sequence,AccelerometerX,AccelerometerY,AccelerometerZ,GyroscopeX,GyroscopeY,GyroscopeZ
0,80,-10,1012,-13,17,-3
1,-32,-4,1005,-14,27,-1
2,-147,-4,975,-17,18,0
3,-144,-21,989,-13,-2,-5
4,-66,-36,998,-19,-22,-10
5,77,-30,1006,-14,-24,-12
6,145,-27,1003,-13,-11,-11
7,99,-17,1002,-11,10,-5
8,-7,-5,1002,-11,24,-1
9,-126,-6,989,-18,22,2
10,-155,-18,989,-18,4,-5
11,-88,-32,986,-16,-18,-9
12,56,-27,1006,-15,-26,-12
13,128,-36,1013,-13,-15,-12
14,124,-19,1011,-11,7,-6
15,17,-7,990,-14,24,-1
16,-109,-3,991,-15,25,2
17,-159,-16,990,-19,7,-2
18,-112,-26,988,-19,-13,-6
19,31,-34,1011,-18,-26,-11
20,112,-34,1008,-14,-17,-11
21,138,-15,1006,-11,2,-8
22,42,-3,1007,-14,22,-1
23,-88,-6,999,-18,27,2
24,-159,-13,977,-18,11,-2
25,-122,-24,979,-20,-12,-5
26,-7,-43,1009,-15,-26,-9
27,111,-36,1009,-13,-20,-11
28,148,-23,1008,-13,0,-8
29,60,-7,1004,-11,20,-4
30,-62,-1,1005,-13,25,-1
31,-153,-4,973,-18,15,0
32,-134,-13,993,-18,-5,-4
33,-34,-38,1001,-19,-22,-10
34,94,-33,1001,-15,-23,-11
35,147,-30,1007,-11,-6,-9
36,77,-12,1009,-15,17,-4
37,-38,-2,1007,-14,27,0
38,-145,-3,973,-19,18,0
39,-141,-19,994,-19,-4,-5
40,-60,-43,993,-17,-21,-11
41,79,-29,1006,-14,-22,-12
42,136,-28,1006,-12,-9,-10
43,94,-13,1002,-11,12,-4
44,-6,-7,1001,-16,24,-1
45,-123,-6,987,-17,22,-1
46,-146,-25,992,-17,2,-3
47,-85,-26,988,-15,-17,-7
48,51,-24,1007,-13,-24,-10
49,126,-27,1011,-14,-13,-10
50,118,-18,1012,-12,8,-6
51,13,-9,992,-16,22,-1
52,-105,-21,984,-18,22,1
53,-154,-22,990,-16,6,-3
54,-100,-14,988,-17,-13,-5
55,30,-23,1010,-15,-23,-11
56,115,-25,1013,-15,-15,-10
57,133,-15,1007,-14,2,-6
58,35,-14,999,-17,22,-2
59,-94,-16,1001,-16,25,2
60,-151,-20,973,-19,9,-2
61,-113,-23,987,-16,-12,-4
62,9,-30,1010,-15,-25,-9
63,107,-27,1011,-12,-17,-10
64,137,-17,1005,-13,2,-8
65,37,-11,1004,-14,21,-1
66,-67,-10,998,-15,24,-1
67,-147,-12,975,-18,13,-2
68,-120,-11,992,-17,-8,-6
69,-19,-35,1000,-17,-23,-10
70,99,-30,1003,-13,-22,-10
71,134,-27,1001,-13,-4,-8
72,66,-12,1010,-13,18,-4
73,-52,-8,1000,-16,25,0
74,-139,-1,976,-18,14,-1
75,-125,-25,997,-18,-4,-4
76,-43,-38,996,-19,-20,-7
77,89,-38,1004,-14,-21,-9
78,130,-32,1006,-11,-6,-8
79,81,-14,995,-12,14,-3
80,-25,-5,1003,-13,23,-3
81,-132,1,981,-18,19,1
82,-133,-16,1000,-17,1,-4
83,-64,-28,989,-18,-19,-8
84,68,-30,1005,-15,-24,-11
85,122,-33,1015,-14,-9,-9
86,99,-21,1009,-13,10,-4
87,-1,-10,989,-14,23,-2
88,-114,-13,989,-15,22,1
89,-139,-18,983,-17,4,-3
90,-85,-13,994,-15,-14,-6
91,43,-19,1009,-15,-23,-10
92,106,-32,1010,-15,-11,-9
93,123,-14,1006,-13,4,-6
94,15,-13,1000,-16,21,-2
95,-91,-9,997,-17,23,0
96,-146,-24,977,-20,8,-1
97,-96,-22,984,-17,-13,-7
98,14,-35,1010,-15,-23,-10
99,105,-30,1007,-15,-16,-10
100,121,-16,1007,-13,3,-6
101,31,-4,1000,-13,19,-2
102,-78,-6,1005,-19,22,-1
103,-139,-15,972,-19,10,-2
104,-100,-29,1000,-18,-8,-5
105,-7,-43,996,-15,-22,-9
106,94,-31,1006,-12,-17,-9
107,121,-16,1004,-11,-2,-7
108,43,0,1008,-14,19,-2
109,-52,0,1001,-16,23,-1
110,-137,-9,976,-20,12,0
111,-112,-27,996,-19,-8,-4
112,-31,-47,998,-18,-19,-8
113,88,-39,1005,-13,-18,-10
114,116,-25,1003,-11,-4,-8
115,69,-11,1005,-11,14,-4
116,-29,-5,994,-15,22,-2
117,-124,-2,986,-17,18,0
118,-125,-20,997,-20,-2,-4
119,-55,-34,988,-18,-19,-8
120,65,-28,1004,-13,-23,-10
121,114,-29,1015,-14,-8,-9
122,88,-14,1009,-13,13,-4
123,-11,-3,984,-15,23,-2
124,-115,-1,992,-19,18,1
125,-133,-25,992,-20,2,-3
126,-67,-35,988,-17,-15,-7
127,53,-35,1011,-14,-22,-10
128,101,-34,1007,-12,-11,-9
129,102,-7,1007,-9,6,-5
130,6,-3,997,-14,22,-2
131,-103,-1,996,-18,21,0
132,-134,-15,979,-20,3,-4
133,-86,-24,991,-19,-15,-5
134,32,-45,1006,-16,-23,-10
135,100,-41,1010,-14,-13,-9
136,113,-13,1006,-11,5,-4
137,18,-2,1003,-13,21,-1
138,-80,2,1001,-16,20,1
139,-135,-7,975,-19,7,-1
140,-93,-22,997,-20,-10,-5
141,1,-44,1002,-17,-20,-9
142,104,-40,999,-12,-17,-9
143,112,-26,1006,-11,-1,-6
144,36,-11,1008,-14,18,-1
145,-64,-1,1001,-15,22,0
146,-132,-2,976,-18,10,0
147,-103,-20,999,-19,-8,-4
148,-18,-37,1000,-19,-21,-8
149,89,-36,1007,-15,-16,-10
150,111,-29,999,-12,0,-8
151,50,-9,1001,-13,15,-3
152,-43,-3,997,-14,21,-2
153,-127,0,985,-20,14,0
154,-105,-23,1003,-21,-4,-4
155,-44,-41,989,-19,-17,-9
156,76,-35,1005,-15,-20,-10
157,108,-31,1013,-12,-5,-8
158,72,-13,1004,-12,14,-3
159,-18,0,986,-15,22,-2
160,-115,1,988,-19,18,1
161,-121,-24,996,-19,-2,-4
162,-51,-29,995,-18,-16,-7
163,58,-40,1007,-15,-19,-10
164,100,-37,1006,-13,-9,-9
165,85,-13,1006,-10,6,-3
166,-4,-5,993,-14,19,-2
167,-101,1,995,-17,17,0
168,-125,-11,986,-19,2,-4
169,-67,-26,986,-20,-15,-7
170,37,-41,1011,-16,-21,-9
171,94,-37,1004,-15,-9,-7
172,99,-22,1008,-12,5,-6
173,4,-7,997,-13,19,-3
174,-79,-1,999,-15,17,-2
175,-125,-9,979,-19,4,-3
176,-84,-23,994,-19,-10,-8
177,15,-39,1005,-17,-19,-10
178,89,-37,1000,-14,-14,-10
179,110,-21,1002,-11,1,-8
180,25,-9,1007,-15,19,-2
181,-61,-4,1000,-16,22,-1
182,-123,-5,980,-19,10,-1
183,-100,-18,995,-17,-7,-4
184,-11,-38,1000,-18,-19,-8
185,89,-34,1003,-15,-16,-9
186,110,-25,1003,-14,0,-7
187,44,-14,1002,-13,18,-3
188,-50,-3,998,-16,21,-1
189,-123,-3,982,-18,12,-1
190,-105,-28,1004,-20,-5,-5
191,-35,-38,994,-17,-17,-9
192,81,-34,1006,-16,-18,-10
193,106,-32,1011,-12,-4,-8
194,59,-6,997,-11,12,-4
195,-30,0,993,-16,20,-3
196,-118,4,986,-18,14,-1
197,-115,-21,999,-22,-2,-6
198,-46,-42,990,-18,-17,-9
199,65,-40,1003,-14,-18,-11
200,100,-38,1010,-12,-4,-10
201,78,-9,1004,-10,11,-4
202,-10,6,991,-14,20,-3
203,-105,0,993,-20,17,-2
204,-121,-18,991,-20,1,-5
205,-58,-31,990,-20,-13,-8
206,46,-43,1013,-16,-22,-11
207,95,-38,1003,-13,-9,-8
208,93,-9,1006,-13,7,-6
209,7,-1,1001,-16,19,-3
210,-89,4,998,-17,18,1
211,-125,-13,983,-22,3,-3
212,-80,-25,989,-21,-13,-7
213,18,-51,1006,-18,-20,-11
214,94,-42,999,-14,-13,-8
215,106,-15,1007,-11,2,-7
216,26,7,1001,-13,18,-2
217,-65,3,1000,-19,20,-1
218,-126,-8,980,-22,10,-2
219,-100,-35,993,-23,-7,-5
220,-8,-61,998,-17,-20,-11
221,82,-45,999,-12,-16,-11
222,113,-22,1001,-9,-1,-9
223,36,4,1007,-9,17,-3
224,-48,16,1002,-15,19,-2
225,-127,6,980,-21,10,-2
226,-105,-24,1001,-23,-7,-5
227,-30,-51,994,-22,-19,-9
228,79,-49,1004,-16,-18,-12
229,109,-40,1000,-12,-5,-10
230,58,-9,1000,-11,11,-4
231,-28,8,995,-13,18,-3
232,-120,8,992,-18,15,-1
233,-113,-21,1000,-23,-2,-5
234,-51,-42,990,-21,-16,-9
235,72,-42,1004,-16,-21,-10
236,98,-38,1010,-13,-5,-10
237,78,-17,1007,-10,10,-6
238,-13,4,986,-12,19,-2
239,-105,7,990,-16,14,-1
240,-120,-15,998,-20,-1,-4
241,-64,-27,986,-22,-15,-9
242,43,-42,1012,-18,-19,-12
243,92,-43,1002,-13,-10,-12
244,90,-21,1001,-9,5,-7
245,8,-6,1000,-11,18,-4
246,-90,4,998,-17,18,0
247,-123,-12,979,-18,4,-4
248,-79,-19,988,-19,-12,-6
249,25,-36,1012,-18,-20,-11
250,87,-38,1005,-16,-12,-10
251,104,-21,1000,-13,3,-6
252,20,0,1003,-12,17,-3
253,-71,-2,997,-16,17,-2
254,-116,-7,984,-19,7,-6
255,-95,-29,991,-20,-9,-6
256,-1,-43,1000,-18,-20,-10
257,93,-43,1001,-15,-16,-9
258,110,-26,1003,-10,-1,-6
259,52,-23,1004,-13,15,0
260,-1,-25,996,-9,16,13
261,-135,80,1006,-11,19,1
262,-165,-65,982,-29,1,-8
263,-70,0,997,-17,-22,-7
264,75,-63,1000,-22,-23,-14
265,141,-25,1002,-13,-8,-12
266,114,-23,1008,-14,9,-3
267,-35,0,992,-14,25,-1
268,-137,-2,990,-20,18,1
269,-146,-20,1000,-20,-1,-5
270,-67,-36,981,-18,-20,-9
271,85,-24,1014,-14,-25,-13
272,134,-34,1013,-13,-10,-12
273,97,-11,995,-12,14,-5
274,-23,-8,1001,-16,26,-2
275,-133,-7,981,-17,20,2
276,-138,-23,998,-18,-2,-4
277,-65,-30,992,-17,-20,-10
278,74,-29,1007,-14,-25,-11
279,117,-32,1009,-15,-9,-9
280,96,-13,1004,-13,9,-3
281,-7,-9,993,-16,21,-1
282,-120,-5,988,-18,19,3
283,-136,-24,989,-19,2,-2
284,-65,-31,990,-16,-15,-7
285,50,-34,1012,-14,-23,-10
286,108,-28,1008,-12,-11,-10
287,107,-14,1001,-11,8,-5
288,-1,-6,1001,-15,22,1
289,-96,-7,997,-17,20,2
290,-133,-21,985,-18,5,-2
291,-77,-22,983,-17,-13,-6
292,31,-38,1014,-14,-20,-9
293,101,-31,1001,-13,-11,-8
294,108,-11,1006,-12,5,-3
295,6,-5,1005,-13,20,-1
296,-83,-4,996,-17,20,0
297,-125,-13,977,-18,6,-1
298,-86,-23,1002,-18,-10,-4
299,14,-41,1000,-17,-22,-9
300,95,-36,1000,-13,-13,-8
301,101,-15,1002,-10,3,-6
302,17,-7,1005,-13,17,-2
303,-64,0,998,-16,19,-1
304,-121,-5,980,-19,8,1
305,-84,-24,1006,-19,-9,-3
306,-11,-43,995,-18,-17,-7
307,88,-32,1005,-13,-13,-7
308,101,-26,1006,-10,0,-6
309,36,-8,992,-11,15,0
310,-43,6,998,-14,17,-1
311,-116,4,990,-19,12,1
312,-92,-21,1004,-21,-5,-3
313,-30,-43,992,-20,-15,-6
314,74,-42,1000,-15,-15,-7
315,94,-35,1011,-13,-2,-6
316,58,-19,1006,-12,13,-2
317,-24,-2,983,-12,19,-1
318,-109,1,992,-16,13,1
319,-108,-18,994,-19,-1,-3
320,-48,-34,995,-19,-13,-5
321,54,-39,1008,-16,-18,-8
322,91,-41,1001,-12,-6,-8
323,81,-11,1007,-10,9,-2
324,-11,-4,991,-14,18,-1
325,-91,1,1000,-17,16,2
326,-119,-14,983,-18,3,1
327,-68,-22,989,-18,-12,-4
328,26,-43,1012,-17,-19,-8
329,84,-44,1006,-16,-11,-8
330,107,-27,1001,-13,4,-6
331,8,-11,999,-12,19,-2
332,-81,2,1001,-15,16,0
333,-124,-3,980,-19,5,-2
334,-91,-12,1000,-20,-9,-4
335,6,-42,1003,-20,-18,-9
336,91,-45,997,-15,-15,-11
337,103,-23,1004,-13,0,-7
338,24,-6,1006,-15,18,-4
339,-67,0,1003,-17,19,-2
340,-125,-4,975,-21,8,-3
341,-88,-23,1001,-19,-9,-8
342,-5,-45,997,-17,-20,-12
343,82,-26,1006,-12,-14,-9
344,101,-16,1003,-11,0,-9
345,33,-9,1000,-16,15,-4
346,-46,-2,998,-17,17,-3
347,-120,-7,988,-8,6,-5
348,-93,-27,1001,-22,-5,-6
349,-29,-47,993,-18,-16,-11
350,80,-27,1005,-14,-18,-12
351,96,-34,1006,-14,-3,-11
352,57,-14,1003,-13,12,-7
353,-14,-9,988,-14,18,-8
354,-103,-3,989,-16,15,-4
355,-115,-9,1006,-18,-2,-6
356,-61,-23,985,-20,-15,-6
357,60,-34,1007,-16,-20,-11
358,98,-43,1014,-15,-6,-11
359,91,-27,996,-13,8,-7
360,6,-18,997,-11,18,-5
361,-103,-4,986,-16,19,0
362,-128,-7,993,-16,4,-3
363,-77,-19,989,-19,-13,-6
364,46,-37,1011,-17,-23,-10
365,114,-55,1007,-12,-13,-11
366,106,-23,996,-10,7,-5
367,4,-10,1008,-12,24,-1
368,-107,-6,989,-13,21,1
369,-135,-10,980,-16,4,-2
370,-77,-12,995,-17,-13,-4
371,33,-40,1005,-15,-21,-8
372,106,-34,1006,-13,-12,-8
373,109,-23,1007,-11,5,-5
374,17,-9,995,-12,21,-2
375,-91,0,1009,-15,21,0
376,-133,-2,973,-17,6,-1
377,-84,-23,1000,-19,-11,-5
378,8,-40,1007,-17,-22,-6
379,104,-37,993,-13,-15,-7
380,109,-25,1010,-8,2,-5
381,17,-12,1001,-13,20,0
382,-68,-2,996,-14,19,-1
383,-114,-13,982,-17,7,3
384,-94,-3,1002,-14,-8,-4
385,-18,-44,1002,-19,-17,-9
386,83,-25,1002,-14,-14,-8
387,95,-29,1004,-14,-1,-6
388,33,-6,995,-13,13,-3
389,-52,-3,998,-15,17,-2
390,-115,0,986,-20,9,-2
391,-92,-31,1004,-20,-6,-5
392,-20,-47,990,-19,-16,-9
393,73,-37,1001,-13,-15,-10
394,84,-28,1014,-11,-3,-10
395,47,-1,1003,-14,12,-4
396,-31,7,989,-14,17,-3
397,-99,0,987,-20,10,-2
398,-92,-26,1001,-22,-5,-5
399,-29,-42,990,-18,-15,-7
400,62,-45,1009,-15,-16,-8
401,80,-38,1004,-10,-4,-6
402,65,-2,1002,-7,9,-3
403,-18,8,996,-14,17,-1
404,-90,8,997,-17,12,0
405,-99,-24,986,-22,0,-3
406,-51,-37,984,-20,-13,-4
407,38,-50,1013,-14,-16,-7
408,82,-40,1003,-11,-6,-6
409,77,-7,1002,-9,8,-4
410,-7,6,999,-11,18,-1
411,-83,6,999,-18,14,2
412,-104,-18,980,-24,2,-1
413,-59,-40,996,-21,-11,-3
414,19,-56,1001,-16,-15,-8
415,79,-37,993,-9,-9,-6
416,87,-11,1009,-8,2,-5
417,5,7,1006,-13,17,0
418,-63,5,999,-18,17,1
419,-100,-13,982,-22,7,0
420,-67,-36,1000,-20,-8,-2
421,-1,-53,1002,-18,-14,-6
422,74,-37,998,-11,-9,-7
423,82,-17,1004,-9,4,-5
424,23,-1,997,-12,14,-1
425,-50,5,996,-13,15,1
426,-92,-12,988,-20,5,4
427,-73,-39,1006,-18,-6,3
428,-29,-56,990,-16,-14,-3
429,56,-37,1000,-9,-12,-7
430,67,-18,1014,-7,-1,-6
431,38,5,997,-10,9,-2
432,-19,5,994,-14,15,-1
433,-75,-13,985,-21,8,6
434,-59,-52,1006,-24,-6,13
435,-13,-56,989,-15,-13,14
436,35,-30,1008,-8,-9,2
437,28,-9,1010,-6,3,-4
438,25,24,1003,-10,7,-1
439,1,10,993,-20,8,6
440,-31,-19,1000,-23,5,16
441,-41,-53,988,-24,-1,16
442,-39,-51,991,-17,-4,15
443,-11,-32,1003,-12,-7,7
444,5,-9,1003,-9,-2,0
445,36,29,1001,-11,3,-4
446,12,20,1004,-18,8,-4
447,-23,-9,1001,-24,7,2
448,-44,-50,985,-27,1,9
449,-40,-49,990,-19,-3,8
450,-29,-52,1003,-12,-4,-1
451,4,-18,994,-8,-2,-6
452,41,14,1007,-8,-2,-9
453,21,22,1005,-16,7,-6
454,-14,1,1007,-23,10,-4
455,-65,-23,986,-25,8,-4
456,-71,-53,993,-24,1,-3
457,-33,-61,996,-16,-9,-7
458,35,-40,995,-10,-10,-10
459,76,-6,1003,-8,-2,-10
460,40,15,1009,-13,10,-6
461,-31,15,1002,-18,16,-5
462,-96,-4,987,-25,10,-3
463,-87,-44,999,-24,-2,-7
464,-36,-67,993,-19,-12,-10
465,57,-44,998,-10,-15,-13
466,84,-19,1011,-6,-4,-13
467,48,10,998,-9,9,-8
468,-25,12,996,-18,15,-5
469,-100,-4,993,-22,11,-4
470,-90,-41,999,-24,-3,-8
471,-40,-59,989,-18,-15,-11
472,60,-39,1000,-12,-16,-14
473,78,-25,1017,-10,-3,-12
474,57,11,1005,-11,9,-8
475,-14,11,988,-16,16,-7
476,-95,-3,992,-21,13,-4
477,-96,-38,995,-22,0,-7
478,-46,-48,989,-19,-12,-10
479,49,-48,1007,-12,-15,-13
480,72,-29,1005,-10,-6,-12
481,72,2,1003,-10,6,-8
482,-1,2,1000,-17,16,-5
483,-77,-5,997,-19,14,-3
484,-100,-28,980,-21,2,-4
485,-60,-45,988,-19,-10,-7
486,26,-45,1010,-12,-17,-11
487,78,-35,1002,-11,-8,-9
488,84,-2,1005,-9,3,-6
489,7,6,1006,-12,16,-4
490,-69,0,997,-18,15,0
491,-104,-19,982,-21,5,-3
492,-68,-44,997,-18,-9,-5
493,15,-48,1001,-13,-15,-9
494,83,-37,996,-9,-9,-8
495,86,-5,1012,-7,3,-5
496,10,3,1002,-12,17,-2
497,-64,3,999,-17,17,0
498,-109,-9,984,-21,6,-1
499,-73,-34,997,-18,-10,-4
500,-2,-50,1001,-15,-16,-6
501,73,-33,1001,-9,-11,-7
502,88,-15,1003,-8,2,-6
503,15,5,999,-12,15,-1
504,-52,6,995,-17,15,-1
505,-103,-9,989,-22,8,0
506,-79,-34,1001,-21,-5,-4
507,-13,-57,991,-17,-15,-7
508,76,-34,1001,-10,-14,-7
509,76,-20,1011,-8,0,-5
510,31,4,1002,-12,15,-2
511,-44,9,986,-16,16,-1
512,-97,-3,990,-21,8,0
513,-79,-34,1004,-23,-6,-3
514,-21,-51,987,-18,-14,-6
515,60,-43,1009,-11,-14,-7
516,70,-27,1006,-9,0,-6
517,42,5,1005,-9,10,-3
518,-28,6,991,-16,16,-4
519,-92,-1,996,-21,9,-1
520,-88,-31,988,-23,-3,-5
521,-31,-39,992,-19,-12,-7
522,43,-44,1009,-15,-14,-7
523,71,-30,1002,-12,-5,-8
524,63,0,1007,-11,7,-6
525,-12,4,999,-16,15,-3
526,-64,-14,993,-21,10,-6
527,-85,-28,985,-21,1,-6
528,-64,-22,994,-20,-10,-5
529,16,-40,1003,-15,-15,-10
530,79,-38,1004,-14,-8,-8
531,75,-3,1004,-12,3,-3
532,16,-5,1001,-16,14,-3
533,-66,-9,1002,-18,15,-1
534,-106,-11,980,-18,5,-1
535,-74,-32,1000,-19,-8,-3
536,2,-47,1005,-17,-18,-5
537,80,-39,992,-13,-13,-7
538,89,-24,1005,-10,0,-6
539,15,-4,1002,-13,15,-4
540,-38,-1,1000,-14,16,-7
541,-116,-10,980,-19,8,0
542,-99,-18,1007,-18,-8,-4
543,-18,-53,989,-18,-17,-8
544,82,-32,1013,-11,-15,-9
545,103,-31,1000,-11,-3,-7
546,46,-5,998,-10,14,-4
547,-48,2,998,-14,19,-2
548,-120,-1,986,-18,12,-1
549,-87,-30,1004,-18,-6,-6
550,-28,-44,987,-17,-17,-7
551,82,-37,1003,-11,-17,-10
552,90,-33,1017,-8,0,-8
553,52,-2,1001,-11,12,-3
554,-35,9,991,-12,18,-3
555,-109,-1,985,-18,11,2
556,-94,-28,999,-18,-5,-4
557,-29,-42,993,-19,-14,-6
558,64,-38,1010,-13,-16,-9
559,97,-34,1009,-9,-3,-11
560,50,0,998,-9,13,-2
561,-41,17,1002,-15,18,-1
562,-100,-2,990,-20,13,0
563,-89,-28,993,-21,-3,-2
564,-34,-42,985,-19,-14,-5
565,52,-48,1014,-14,-16,-8
566,75,-31,1005,-12,-4,-6
567,58,3,1001,-11,9,-3
568,-18,4,1004,-15,17,-3
569,-63,1,994,-19,9,-6
570,-89,-23,984,-24,1,-5
571,-69,-29,1007,-20,-10,-4
572,8,-52,986,-19,-16,-8
573,78,-49,1009,-13,-9,-8
574,90,-14,999,-10,1,-8
575,28,8,1036,-13,18,-8
576,-64,-8,973,-4,23,-4
577,-140,9,992,-16,9,-2
578,-54,-51,986,-18,-10,-7
579,-28,-47,983,-9,-16,-2
580,118,-30,1009,24,-15,-7
581,74,-12,1056,-13,-1,1
582,25,-13,903,-27,11,1
583,-59,11,1016,-25,20,-7
584,-139,7,977,-16,11,0
585,-43,-57,999,-18,-10,-6
586,-23,-49,959,-9,-16,-8
587,95,-7,995,18,-9,-15
588,44,-18,1012,2,12,-7
589,36,-9,930,4,16,-3
590,-53,12,952,13,16,2
591,-147,8,968,-22,9,3
592,-40,-45,1047,-23,-10,-6
593,-23,-42,963,-15,-13,-9
594,60,-22,1027,19,-15,0
595,65,-32,960,14,1,-5
596,34,0,1031,13,14,-1
597,-28,20,964,-26,8,2
598,-134,-19,961,-31,11,1
599,-57,-16,1043,-20,-7,-8
600,-30,-47,959,-22,-13,-8
601,46,-21,1072,-17,-20,-3
602,87,-59,930,-22,-16,-7
603,26,16,1038,8,10,-2
604,-1,20,1014,-41,10,-2
605,-111,-33,951,-38,10,-2
606,-87,1,1022,-22,-4,-8
607,-37,-48,963,-20,-11,-8
608,13,-31,1042,-8,-17,-3
609,113,-49,974,-21,-16,-5
610,31,0,1030,20,8,1
611,8,26,993,-15,8,2
612,-92,-25,986,-25,11,0
613,-100,9,1005,-22,4,-4
614,-41,-51,983,-26,-13,-5
615,-4,-43,975,2,-14,-4
616,95,-28,1020,31,1,-8
617,49,-12,1030,10,20,-2
618,21,9,966,9,18,-2
619,-58,0,1025,12,22,-2
620,-115,10,986,-10,10,0
621,-44,-49,1000,-21,-7,-4
622,-22,-46,977,-19,-13,-6
623,83,-26,1014,-51,-18,-10
624,61,-20,1026,-37,0,-10
625,31,-7,939,-37,4,-2
626,-37,16,1023,-44,7,-4
627,-132,6,996,-25,10,-2
628,-45,-39,1034,-21,-8,-6
629,-31,-49,961,-16,-14,-6
630,71,-26,1024,23,-16,-1
631,60,-40,997,11,3,-4
632,43,-5,1005,21,17,-2
633,-17,8,956,8,16,2
634,-129,-9,938,-17,13,2
635,-59,-17,1054,-21,-5,-5
636,-34,-38,962,-25,-11,-5
637,41,-35,1053,-50,-16,-11
638,83,-66,933,-33,-4,-9
639,41,1,1037,-26,1,-2
640,10,6,954,-52,10,-1
641,-115,-30,909,-37,13,0
642,-82,0,1023,-18,-3,-7
643,-35,-42,960,-21,-13,-6
644,12,-32,1055,3,-8,-4
645,119,-60,961,21,-1,-16
646,34,-6,1027,-42,5,-5
647,11,19,970,-32,14,-5
648,-94,-32,973,-24,16,-4
649,-93,10,1009,-16,-1,-4
650,-39,-58,980,-17,-8,-3
651,-13,-36,974,2,-10,-3
652,95,-22,1024,35,-1,-11
653,42,-6,1033,-25,6,-6
654,18,7,959,-36,10,-6
655,-59,0,1022,-30,18,-7
656,-119,10,993,-18,7,-3
657,-42,-54,996,-20,-10,-6
658,-30,-50,970,-5,-11,-6
659,91,-28,1020,25,-1,-10
660,55,-33,1013,-20,5,-11
661,39,-15,947,-28,9,-4
662,-33,0,964,-48,6,-4
663,-123,11,996,-26,10,-2
664,-44,-40,1034,-20,-6,-7
665,-30,-49,969,-19,-12,-7
666,70,-34,1024,-32,-13,-11
667,64,-41,986,-17,-2,-11
668,37,5,1017,-10,9,1
669,-22,16,994,-7,9,3
670,-130,-7,961,-30,8,2
671,-56,-17,1039,-17,-7,-5
672,-29,-47,960,-22,-10,-6
673,45,-27,1051,-34,-18,-4
674,83,-58,950,-29,-15,-7
675,34,13,1024,22,18,-4
676,-9,16,1003,22,20,-1
677,-104,-27,941,-8,12,2
678,-82,1,1017,-17,-4,-4
679,-30,-48,964,-21,-11,-7
680,8,-35,1043,-8,-14,-1
681,113,-63,969,-2,-12,-8
682,30,-3,1010,-24,8,-10
683,7,-2,920,-27,18,-8
684,-90,-26,965,-2,21,-9
685,-108,22,989,-22,0,-4
686,-23,-64,981,-20,-11,-6
687,-20,-44,934,-4,-8,-4
688,111,-12,992,32,0,-16
689,4,0,980,-1,8,1
690,36,-31,779,-1,1,4
691,-65,8,863,28,10,0
692,-131,33,868,-30,7,1
693,0,-78,956,-24,-10,-10
694,-23,-49,908,-11,-7,-8
695,23,-17,990,37,-20,3
696,9,-71,887,-51,-2,-5
697,29,-50,795,-47,0,2
698,-21,-12,849,47,5,-7
699,-101,-22,871,-34,8,5
700,-22,-16,1029,-6,-6,-9
701,-44,-38,833,-36,-4,-9
702,13,14,992,43,-1,-3
703,55,-154,710,41,-8,-13
704,122,-20,867,72,17,0
705,1,-41,784,-28,32,-10
706,-87,-58,755,-17,14,-3
707,-53,34,876,-3,-6,-6
708,-19,-43,795,-16,-16,-1
709,-49,1,872,-5,-12,9
710,83,-42,759,12,-19,-11
711,167,-74,688,61,7,2
712,22,-19,684,-26,21,-8
713,-24,-61,691,-3,24,-12
714,-50,86,787,-29,2,0
715,28,-82,783,-5,-11,-8
716,-63,-77,732,-15,4,-6
717,-16,-1,846,-57,-12,-14
718,4,-45,734,-19,6,5
719,97,-62,449,-10,6,4
720,18,114,718,34,24,-24
721,-7,95,620,10,17,5
722,40,-71,733,-37,-14,-9
723,-30,-40,787,-25,-9,-9
724,-12,72,805,2,-20,7
725,144,-45,535,-8,5,-19
726,76,-30,648,33,12,-11
727,28,-51,413,-22,-14,10
728,-108,-59,521,-63,1,3
729,-2,-22,741,-5,-7,-9
730,-1,-27,673,-44,-10,-12
731,-40,-71,860,28,-5,8
732,124,-163,482,-2,-13,-22
733,-18,15,558,-27,23,-13
734,125,16,597,62,18,-2
735,5,-84,543,6,6,-8
736,-47,83,458,-10,-4,-4
737,16,-47,699,-12,-5,-4
738,-17,-187,805,-13,-8,2
739,159,-15,663,-19,-27,-7
740,-17,-26,578,20,21,-11
741,90,-103,349,46,7,3
742,50,104,642,45,0,-8
743,-10,64,370,-41,0,2
744,18,-71,696,-27,-10,-4
745,-25,-66,817,-23,-7,-10
746,152,-159,635,29,-4,-12
747,22,12,552,-39,8,-5
748,47,-123,462,-76,2,-4
749,128,35,525,-83,15,-3
750,-58,-77,412,-32,14,-2
751,-22,-43,657,-21,-12,-8
752,0,-37,806,-20,-14,-12
753,6,-109,857,20,0,0
754,103,-71,482,-6,0,-17
755,72,-18,731,-72,1,-2
756,-3,-146,634,-78,4,1
757,-46,76,547,-39,11,-2
758,-18,23,622,-11,-1,-9
759,-19,-50,781,-21,-13,-8
760,-7,-68,911,-14,-9,-9
761,132,-30,788,-28,-9,-19
762,-1,-11,811,-8,8,2
763,-35,12,701,-7,8,-1
764,-24,21,775,31,15,-10
765,-30,53,648,-24,-1,-3
766,-15,-57,854,-22,-9,-4
767,5,-44,965,-14,-8,-9
768,51,-28,946,2,-8,-4
769,27,-27,978,-13,5,-9
770,16,-18,918,-3,16,-7
771,-50,20,882,-12,16,-10
772,-86,-7,860,-18,7,-4
773,-38,-39,953,-13,-7,-7
774,-1,-52,979,-17,-9,-8
775,27,-40,1025,-8,-5,-5
776,56,-30,992,-5,-1,-10
777,23,9,1006,-17,12,-2
778,-13,27,1026,-31,10,-7
779,-74,-15,969,-28,9,-3
780,-68,-19,1005,-19,0,-6
781,-24,-52,977,-21,-9,-6
782,10,-57,1016,-13,-8,-6
783,62,-32,995,-9,-5,-9
784,41,1,1003,-8,5,-7
785,-4,26,1010,-3,13,-3
786,-48,-5,995,6,15,-7
787,-83,-14,992,-22,4,-1
788,-34,-55,995,-19,-8,-6
789,-15,-64,993,-13,-10,-7
790,63,-24,1005,-7,-10,-9
791,52,-16,1009,-8,3,-7
792,11,18,986,-10,12,-4
793,-35,10,995,-17,18,-8
794,-81,-9,988,-19,8,-5
795,-49,-57,1006,-19,-4,-6
796,-19,-58,986,-16,-9,-8
797,45,-36,1008,-10,-11,-7
798,54,-22,1007,-7,-1,-9
799,33,15,1001,-7,9,-5
800,-18,11,1002,-7,15,-4
801,-75,-11,994,-14,9,-1
802,-70,-37,987,-20,-2,-4
803,-31,-51,987,-15,-10,-6
804,30,-52,1013,-12,-12,-6
805,58,-26,997,-8,-5,-8
806,51,7,1007,-9,7,-5
807,-14,15,1001,-15,14,-3
808,-58,2,1000,-21,10,-2
809,-74,-30,983,-22,1,-3
810,-41,-49,997,-19,-9,-4
811,8,-64,1000,-12,-12,-8
812,63,-31,1001,-6,-6,-7
813,54,0,1004,-7,3,-5
814,2,18,994,-12,12,-4
815,-44,9,1002,-19,12,-3
816,-77,-14,985,-24,4,-2
817,-54,-54,1008,-20,-4,-4
818,-8,-61,985,-15,-11,-7
819,54,-31,1002,-7,-10,-8
820,51,-14,1008,-8,1,-6
821,27,17,1005,-12,10,-4
822,-27,15,989,-16,13,-4
823,-81,-3,995,-24,7,-1
824,-63,-47,995,-24,-5,-4
825,-23,-55,988,-17,-10,-6
826,44,-49,1008,-13,-11,-9
827,50,-25,1008,-7,-1,-7
828,48,20,997,-10,7,-5
829,-28,16,1005,-17,15,-5
830,-64,4,995,-22,9,-2
831,-75,-38,989,-24,-1,-5
832,-33,-51,996,-19,-10,-6
833,18,-60,1005,-13,-10,-8
834,58,-27,994,-9,-5,-9
835,49,4,1003,-6,5,-6
836,-4,21,1003,-16,12,-5
837,-48,8,998,-21,13,-3
838,-75,-19,985,-23,3,-3
839,-45,-59,998,-22,-7,-5
840,-5,-60,997,-12,-10,-7
841,58,-32,998,-10,-8,-8
842,54,-4,1011,-9,2,-6
843,14,17,991,-11,9,-4
844,-35,11,995,-8,11,-3
845,-83,-9,991,-22,7,2
846,-58,-52,1008,-25,-6,-3
847,-16,-63,983,-17,-11,-7
848,49,-40,1009,-9,-10,-9
849,53,-17,1006,-8,0,-9
850,35,25,1004,-10,8,-4
851,-23,15,1000,-12,19,-7
852,-86,-10,979,-15,11,-2
853,-69,-45,1003,-20,-2,-4
854,-23,-60,978,-15,-9,-5
855,36,-47,1017,-9,-10,-7
856,63,-26,1002,-7,-4,-9
857,46,21,1003,-7,6,-5
858,-15,26,1025,-21,16,-7
859,-67,-12,972,-14,16,-4
860,-79,-29,998,-22,0,-4
861,-32,-60,986,-18,-10,-5
862,5,-57,1003,-10,-8,-6
863,74,-24,1000,-4,-6,-10
864,49,1,1003,-8,4,-6
865,-4,29,1002,-5,14,-1
866,-48,0,1002,6,17,-6
867,-99,-13,992,-20,5,-2
868,-25,-70,991,-21,-11,-6
869,-18,-62,985,-13,-9,-7
870,69,-23,1010,-12,-14,-8
871,50,-9,1019,-19,3,-8
872,17,21,959,-17,11,-4
873,-33,18,1012,-42,3,-2
874,-111,-5,984,-33,8,-2
875,-31,-61,1027,-25,-8,-7
876,-24,-67,968,-15,-11,-7
877,59,-34,1025,12,-3,-7
878,49,-33,978,10,4,-9
879,25,30,1019,-3,3,-1
880,-15,37,1016,1,11,-3
881,-115,-17,946,-16,11,2
882,-50,-34,1030,-25,-7,-6
883,-21,-68,964,-21,-11,-6
884,22,-40,1052,-33,-10,-9
885,90,-58,952,-23,-6,-14
886,26,26,1018,30,17,-6
887,-1,36,988,6,19,-8
888,-78,-29,945,-3,19,-4
889,-82,-10,1019,-10,0,-4
890,-23,-69,965,-23,-12,-5
891,-7,-45,1004,-19,-10,-4
892,102,-31,1004,-39,-17,-7
893,20,6,1023,-32,11,-10
894,9,12,916,-32,11,-7
895,-60,-23,959,-50,14,-6
896,-93,7,986,-20,4,-5
897,-14,-77,992,-18,-11,-8
898,-20,-58,962,-11,-12,-4
899,73,-16,1025,19,-11,-5
900,22,0,1035,-32,0,-3
901,26,2,910,-47,-2,2
902,-37,21,1005,-29,3,-2
903,-116,0,997,-39,6,-1
904,-20,-62,1038,-27,-11,-9
905,-27,-63,960,-13,-13,-8
906,65,-38,1042,20,-4,-6
907,43,-31,964,20,7,-6
908,24,29,1028,4,7,3
909,-23,35,985,9,9,-1
910,-127,-18,956,-19,12,3
911,-36,-34,1042,-22,-6,-8
912,-19,-64,954,-21,-11,-6
913,32,-30,1065,-21,-7,-9
914,78,-61,933,1,3,-12
915,20,30,1020,29,16,-1
916,4,30,996,16,19,-3
917,-95,-29,946,-7,16,-1
918,-66,-5,1019,-14,0,-4
919,-23,-76,958,-21,-8,-5
920,3,-37,1025,-25,-10,-6
921,92,-40,994,-34,-6,-12
922,14,12,1029,28,18,-5
923,2,26,955,14,19,-5
924,-63,-20,961,13,19,-6
925,-84,4,995,-19,0,-1
926,-16,-88,986,-20,-8,-6
927,-19,-52,965,-12,-5,-6
928,85,-32,1020,-33,-9,-13
929,18,12,1047,21,14,-5
930,23,10,923,23,16,-5
931,-53,28,1026,19,23,-8
932,-114,0,993,-11,7,2
933,-13,-74,1031,-22,-11,-6
934,-33,-64,958,-11,-6,-5
935,71,-28,1017,-21,-3,-11
936,32,-27,969,10,8,-7
937,36,21,989,33,15,-3
938,-24,9,921,23,21,-7
939,-112,-11,969,-8,16,1
940,-28,-42,1041,-13,-5,-6
941,-24,-67,963,-18,-9,-6
942,40,-9,1073,-13,-8,-8
943,55,-59,920,4,5,-11
944,16,38,1047,32,18,-3
945,10,24,950,24,19,-4
946,-111,-36,924,-4,14,1
947,-56,-12,1030,-15,-5,-4
948,-30,-74,956,-18,-6,-5
949,4,-32,1044,-15,-7,-5
950,98,-61,967,-1,-1,-15
951,8,32,1033,36,14,-1
952,7,44,993,18,16,-3
953,-84,-19,975,10,19,-3
954,-86,0,1012,-18,-1,-1
955,-22,-77,981,-27,-12,-5
956,-13,-57,964,-7,-6,-5
957,92,-39,1006,1,2,-15
958,32,-1,1014,24,12,-1
959,22,5,924,16,7,1
960,-57,1,983,11,15,-4
961,-104,14,996,-26,7,1
962,-11,-77,997,-23,-11,-7
963,-21,-67,956,-13,-11,-5
964,65,-13,1025,18,-6,-11
965,17,-11,1019,16,10,-4
966,30,7,914,-4,7,0
967,-33,21,955,28,12,-2
968,-120,0,944,-32,2,2
969,-17,-56,1043,-28,-10,-7
970,-24,-67,960,-17,-7,-7
971,62,-39,1055,17,-5,-5
972,43,-48,916,15,-2,-7
973,15,39,1039,1,4,1
974,-17,39,972,-2,5,3
975,-128,-25,930,-23,11,3
976,-39,-25,1043,-27,-9,-8
977,-25,-77,954,-24,-12,-7
978,20,-22,1055,14,-9,-3
979,99,-80,908,17,0,-11
980,8,31,1001,15,6,2
981,8,28,935,9,4,3
982,-89,-36,923,-14,7,1
983,-69,6,993,-17,1,-5
984,-28,-88,963,-26,-8,-7
985,-15,-31,989,5,-9,-3
986,100,-37,1007,27,-5,-15
987,5,26,1010,17,13,1
988,9,12,856,15,13,1
989,-59,-17,913,27,16,-5
990,-92,9,946,-24,0,0
991,-12,-85,971,-22,-8,-8
992,-27,-60,940,-10,-4,-5
993,77,-29,1017,14,-1,-15
994,7,17,1018,20,13,-9
995,36,-1,856,13,18,-7
996,-43,29,991,8,28,-13
997,-131,0,981,-14,10,1
998,-12,-69,1048,-16,-10,-7
999,-28,-61,934,-9,-7,-6
1000,61,-41,1006,-54,-10,-6
1001,20,-37,899,-31,-2,-12
1002,32,17,1002,-32,7,-3
1003,-28,12,925,-63,1,-1
1004,-140,-20,949,-44,4,1
1005,-23,-28,1051,-22,-9,-11
1006,-22,-66,940,-20,-7,-7
1007,29,-17,1061,20,-10,1
1008,85,-87,867,3,-7,-10
1009,7,35,987,20,13,1
1010,4,8,952,25,17,-5
1011,-107,-51,907,-2,11,-3
1012,-65,8,981,-10,-2,-6
1013,-14,-88,945,-29,-8,-6
1014,-15,-29,1006,-29,-7,-4
1015,113,-45,952,-49,-6,-14
1016,12,16,969,-26,13,-6
1017,13,9,813,-39,-2,-1
1018,-49,-37,927,-51,2,2
1019,-87,22,890,-30,0,-5
1020,-6,-97,967,-32,-14,-9
1021,-35,-51,925,-5,-7,-6
1022,88,-10,983,30,3,-16
1023,-7,-2,957,10,14,-9
1024,42,-18,814,-7,14,-8
1025,-40,-2,887,-63,13,-9
1026,-122,17,870,-27,9,-1
1027,1,-75,986,-16,-8,-9
1028,-34,-55,931,-11,-5,-7
1029,57,6,1006,37,-2,-5
1030,22,-41,879,22,9,-9
1031,31,6,927,3,10,-8
1032,-13,13,838,-65,18,-8
1033,-131,-26,821,-35,13,0
1034,-28,-24,980,-22,-8,-9
1035,-27,-65,912,-17,-8,-7
1036,24,2,1066,0,-1,-8
1037,83,-89,825,11,7,-19
1038,12,37,971,-15,8,-6
1039,5,24,889,-53,1,0
1040,-95,-55,874,-47,4,4
1041,-63,8,922,-29,-5,-9
1042,-14,-87,924,-22,-11,-8
1043,-17,-34,1007,-22,-9,-5
1044,113,-38,957,-50,-16,-12
1045,7,6,980,-5,7,1
1046,11,0,841,3,8,-2
1047,-56,-40,969,32,19,-7
1048,-101,17,923,-24,0,-1
1049,-2,-100,980,-20,-10,-6
1050,-34,-61,938,-6,-8,-3
1051,91,-17,971,43,-9,-9
1052,5,-7,969,7,10,-6
1053,50,-46,857,-10,13,-7
1054,-49,3,906,-65,9,-6
1055,-137,4,952,-37,7,-3
1056,0,-75,1031,-22,-11,-9
1057,-26,-55,925,-18,-12,-8
1058,26,-31,1000,-65,-14,-6
1059,4,-73,850,-34,-1,-11
1060,29,15,895,-20,4,0
1061,-38,46,857,15,20,-15
1062,-113,-45,808,1,14,1
1063,-15,-25,1012,-16,-9,-9
1064,-11,-66,863,-32,-8,-9
1065,7,-6,1077,-29,1,-9
1066,71,-82,822,-23,-3,-17
1067,-15,59,923,-35,1,4
1068,-27,83,810,19,15,-3
1069,-119,-51,820,-1,15,-6
1070,-61,19,829,2,-3,-4
1071,-6,-89,886,-37,-13,-7
1072,-40,-33,976,-33,-5,-5
1073,106,1,903,-52,-13,-17
1074,26,-7,950,-9,7,1
1075,27,-32,771,-16,8,-5
1076,-46,-27,914,-26,22,-16
1077,-113,29,903,-15,6,-3
1078,5,-90,948,-13,-11,-8
1079,-38,-55,937,-16,-9,-5
1080,35,-32,980,16,-15,-2
1081,1,-1,961,-13,8,-9
1082,31,-9,776,-7,10,-5
1083,-41,78,898,-43,-1,2
1084,-126,-7,822,-49,5,1
1085,-5,-58,967,-24,-13,-8
1086,-22,-58,913,-17,-9,-8
1087,39,0,1027,-23,-3,-6
1088,60,-70,838,-11,2,-12
1089,12,31,975,-5,4,1
1090,-6,-4,895,4,24,-11
1091,-106,-52,888,10,16,-4
1092,-53,0,962,-14,-6,-7
1093,-17,-69,946,-18,-7,-7
1094,-8,-25,1045,5,-6,0
1095,107,-66,949,3,-9,-12
1096,-9,41,957,-19,9,-5
1097,0,47,884,-18,1,2
1098,-66,-23,893,-45,-1,0
1099,-87,17,906,-20,1,-4
1100,-10,-89,936,-30,-12,-8
1101,-31,-49,945,-16,-8,-6
1102,93,-15,990,-38,-14,-14
1103,3,-8,980,6,12,-3
1104,36,-28,846,-7,10,-7
1105,-60,1,952,-24,20,-15
1106,-122,10,933,-12,6,0
1107,2,-86,1012,-20,-10,-9
1108,-31,-57,951,-9,-7,-6
1109,59,-30,1021,23,-6,-5
1110,22,-14,943,-5,6,-9
1111,28,21,912,-34,5,-5
1112,-31,61,883,28,3,0
1113,-127,-24,810,-39,4,4
1114,-24,-35,980,-21,-7,-9
1115,-19,-65,907,-21,-9,-8
1116,24,-4,1056,-35,-13,-2
1117,85,-84,842,-31,-11,-10
1118,12,27,964,23,15,-3
1119,-1,19,943,-59,14,-11
1120,-108,-63,892,-51,14,-3
1121,-75,13,977,-9,-5,-7
1122,-11,-84,922,-26,-11,-7
1123,-15,-34,1015,-2,-2,-1
1124,93,-48,990,6,1,-18
1125,-1,36,973,-26,10,-1
1126,0,8,787,-4,7,-3
1127,-86,5,901,48,17,-9
1128,-95,26,846,-18,2,0
1129,-1,-83,938,-22,-9,-7
1130,-34,-52,937,-15,-9,-3
1131,82,-4,956,-2,-18,-4
1132,20,-22,934,-20,7,-9
1133,36,-43,872,-9,9,-4
1134,-51,12,903,-40,-2,1
1135,-138,0,920,-46,6,1
1136,-4,-62,1029,-26,-11,-8
1137,-19,-60,931,-16,-8,-8
1138,45,-12,1071,-38,-9,-7
1139,38,-57,880,-21,-2,-11
1140,11,42,931,7,7,-2
1141,-15,35,883,-53,19,-13
1142,-119,-51,793,-30,10,-4
1143,-46,-5,909,-10,-2,-6
1144,-18,-75,918,-20,-7,-7
1145,-11,-23,1037,2,-3,-2
1146,117,-78,887,13,-1,-18
1147,-12,8,918,-34,8,0
1148,-1,41,877,11,13,-3
1149,-76,-52,870,21,19,-6
1150,-55,24,952,-18,-3,0
1151,-7,-97,910,-28,-10,-6
1152,-30,-41,942,-7,-7,1
1153,94,-17,997,6,-12,-5
1154,-5,5,929,-8,17,-4
1155,31,-49,751,-8,2,-1
1156,-62,-6,896,-5,-1,0
1157,-127,19,827,-39,5,0
1158,11,-86,958,-32,-14,-9
1159,-26,-57,944,-20,-12,-7
1160,37,-25,988,-40,-21,-3
1161,7,-33,877,-11,4,-10
1162,26,10,834,24,16,-6
1163,-53,92,809,-63,-2,2
1164,-107,-41,712,-45,3,2
1165,-21,-23,927,-19,-7,-8
1166,-16,-55,863,-33,-9,-9
1167,12,24,1039,-49,-6,-5
1168,104,-95,727,-40,-16,-12
1169,56,-5,896,58,16,-2
1170,-24,11,863,-66,10,0
1171,-87,-40,765,-61,7,1
1172,-10,17,900,-15,-5,-8
1173,9,-93,859,-44,-14,-10
1174,-42,-41,953,-33,-1,-3
1175,81,-38,888,-57,-19,-14
1176,32,27,818,50,13,-4
1177,7,-71,565,7,5,5
1178,-13,-17,786,-67,-3,1
1179,-115,6,677,-27,4,-3
1180,16,-94,860,-29,-16,-7
1181,-35,-71,889,-26,-11,-3
1182,16,-72,877,25,-15,0
1183,-12,-23,783,-35,10,-15
1184,36,-69,579,-6,11,-8
1185,16,116,780,76,14,-11
1186,-94,-39,561,-39,1,2
1187,-3,-57,778,-6,-6,-6
1188,-5,-58,884,-2,-2,-10
1189,17,-32,990,-49,-3,-6
1190,63,-106,634,-18,-6,-7
1191,-24,12,736,52,8,2
1192,27,146,682,-78,3,11
1193,-51,-90,550,-50,8,0
1194,-9,47,685,-15,-6,-8
1195,-5,-65,814,-14,-12,-7
1196,-15,-81,947,4,5,-3
1197,119,-7,747,-3,0,-22
1198,-35,-39,734,-28,2,8
1199,0,65,553,-82,5,-1
1200,-93,36,691,-64,15,-12
1201,20,90,534,-13,8,-5
1202,20,-108,807,-21,-13,-4
1203,-15,-66,886,-1,-8,-6
1204,103,7,800,-1,2,-16
1205,-28,-35,780,-24,8,0
1206,62,-58,469,-47,-2,3
1207,-55,94,719,-83,5,-3
1208,-56,66,530,-33,9,-4
1209,2,-45,769,-15,-7,-6
1210,-6,-54,857,2,-7,-10
1211,72,-70,932,-43,-7,-2
1212,37,-86,636,-13,-3,-7
1213,-15,12,700,59,13,-5
1214,37,129,730,10,-2,9
1215,-41,-83,468,-27,6,1
1216,-10,24,665,-14,-8,-4
1217,-5,-63,852,-29,-12,-10
1218,-26,-99,985,1,-5,2
1219,160,-56,760,4,-6,-11
1220,-19,5,691,-40,17,-10
1221,46,-35,623,-11,20,-11
1222,0,22,726,5,17,-13
1223,-76,37,492,-8,4,-3
1224,8,-98,839,-17,-9,-5
1225,-30,-93,926,-13,-5,-5
1226,97,-65,835,-25,-6,-13
1227,-13,35,764,7,8,2
1228,41,-115,563,-25,-8,5
1229,61,30,705,-27,-1,1
1230,-91,-33,572,-50,5,-2
1231,-20,-66,832,-30,-9,-6
1232,-17,-41,895,-15,-12,-10
1233,37,-87,916,3,-10,1
1234,51,-59,662,-12,5,-12
1235,34,30,816,-24,13,-12
1236,-4,-94,654,-11,27,-16
1237,-45,21,597,-4,6,-6
1238,-36,-28,748,-8,-5,-6
1239,0,-71,861,-18,-8,-8
1240,-13,-18,967,-26,-4,-2
1241,92,-45,739,-30,-11,-14
1242,62,-35,822,48,12,0
1243,-5,-17,776,13,4,3
1244,-60,4,648,-6,6,-2
1245,-15,41,770,-24,0,-2
1246,-4,-87,862,-30,-13,-6
1247,-22,-65,921,-5,-7,-6
1248,82,0,888,3,-1,-13
1249,4,-4,921,-36,8,-6
1250,2,-5,710,-49,5,-3
1251,-49,82,820,-67,3,-9
1252,-29,27,710,-28,5,-4
1253,-12,-73,889,-19,-4,-8
1254,-18,-53,929,-15,-9,-9
1255,43,-28,972,-14,-15,-5
1256,40,-39,838,-5,-1,-9
1257,22,15,900,21,16,-5
1258,-50,116,895,24,6,3
1259,-93,-37,687,-25,6,0
1260,-42,-26,884,-20,-5,-6
1261,-9,-72,912,-23,-12,-9
1262,8,-45,1038,5,-5,-3
1263,84,-50,908,7,-2,-13
1264,0,53,920,-24,10,-7
1265,-18,61,910,13,16,-8
1266,-89,-32,865,12,19,-8
1267,-78,4,817,-17,-1,-4
1268,-17,-83,941,-21,-12,-8
1269,-18,-53,975,-5,-8,-5
1270,88,-35,999,12,0,-14
1271,19,21,1012,-23,7,-8
1272,6,12,898,-25,9,-4
1273,-53,18,969,16,19,-15
1274,-103,-4,896,-15,8,-1
1275,-5,-85,974,-21,-10,-7
1276,-23,-66,967,-7,-6,-8
1277,56,-25,1017,14,-3,-6
1278,45,-13,1007,6,6,-10
1279,19,23,1000,-8,11,-4
1280,-18,21,975,13,13,-6
1281,-106,-20,956,-16,9,-1
1282,-45,-41,1017,-23,-6,-5
1283,-18,-68,963,-18,-10,-7
1284,28,-46,1024,-11,-11,-6
1285,69,-29,994,-12,-3,-11
1286,24,30,1009,-12,9,-4
1287,-13,47,1037,-40,11,-8
1288,-80,-24,957,-32,11,-3
1289,-75,-28,1010,-19,-3,-5
1290,-18,-70,975,-20,-9,-7
1291,2,-55,1016,-9,-7,-6
1292,78,-19,997,-7,-6,-10
1293,38,6,1006,-6,5,-6
1294,-8,34,996,-23,10,-5
1295,-48,-7,1006,-44,10,-6
1296,-90,-16,987,-22,6,-4
1297,-28,-66,994,-22,-11,-7
1298,-11,-69,993,-10,-10,-7
1299,62,-24,1004,-6,-7,-9
1300,51,-8,1010,-8,4,-8
1301,4,28,986,-7,10,-3
1302,-34,15,996,5,12,-3
1303,-83,-13,988,-19,6,-2
1304,-45,-58,1007,-22,-5,-4
1305,-13,-68,982,-13,-8,-7
1306,48,-40,1008,-9,-9,-7
1307,51,-19,1004,-6,0,-8
1308,27,30,1005,-8,10,-4
1309,-20,22,998,-2,15,-3
1310,-74,-5,993,-12,9,0
1311,-64,-49,989,-24,-3,-2
1312,-29,-63,985,-19,-8,-7
1313,34,-58,1007,-10,-10,-7
1314,58,-22,1003,-7,-3,-9
1315,44,25,1007,-8,5,-5
1316,-17,29,1011,-26,11,-5
1317,-64,-1,996,-39,5,-1
1318,-76,-34,987,-29,1,-4
1319,-38,-66,995,-20,-7,-5
1320,12,-64,998,-15,-12,-6
1321,62,-28,999,-6,-6,-8
1322,48,10,1002,-5,4,-7
1323,-4,31,996,-10,14,-2
1324,-49,13,1007,-16,7,-1
1325,-83,-20,988,-32,3,-2
1326,-39,-67,998,-23,-7,-7
1327,-7,-71,989,-15,-10,-8
1328,62,-31,1006,-8,-8,-8
1329,53,-3,1011,-3,2,-8
1330,15,31,985,-16,11,-5
1331,-39,17,998,-50,5,-5
1332,-94,-8,987,-36,7,-2
1333,-43,-61,1021,-28,-10,-8
1334,-16,-71,972,-16,-12,-6
1335,50,-39,1021,5,-5,-6
1336,55,-21,993,0,3,-10
1337,24,33,1011,-13,5,-1
1338,-10,15,1016,-1,10,-1
1339,-98,-25,942,-20,11,2
1340,-58,-34,1027,-26,-4,-6
1341,-18,-76,966,-22,-11,-6
1342,23,-29,1053,-18,-8,-7
1343,73,-47,952,-7,0,-11
1344,19,41,1033,27,10,0
1345,-7,39,972,17,13,-1
1346,-75,-42,921,0,15,-2
1347,-75,-13,1004,-13,-1,-3
1348,-10,-82,970,-28,-12,-7
1349,-16,-51,973,-6,-4,-4
1350,92,-28,1018,3,1,-15
1351,3,37,1024,25,15,-2
1352,19,14,876,21,12,-4
1353,-62,-6,978,19,21,-11
1354,-105,5,996,-23,12,4
1355,-4,-94,982,-27,-9,-6
1356,-31,-66,926,-21,-10,-4
1357,56,-32,971,-9,-1,-17
1358,-1,-11,962,17,18,-10
1359,57,-50,854,14,19,-9
1360,-48,7,891,-44,16,-12
1361,-135,-5,948,-24,11,-1
1362,-3,-62,1011,-8,-6,-7
1363,-23,-68,918,3,-5,-3
1364,47,18,1003,-58,-17,2
1365,69,-79,771,-59,-7,-10
1366,48,26,967,-54,5,0
1367,12,-18,809,-2,-9,3
1368,-111,-56,798,-24,10,2
1369,-36,-1,922,-22,-10,-9
1370,-21,-69,907,-39,-9,-10
1371,-15,18,1040,-3,3,-9
1372,118,-80,754,26,9,-21
1373,45,35,921,4,21,-7
1374,2,0,779,-50,11,-1
1375,-75,-74,832,-56,6,0
1376,-73,28,825,-22,-2,-6
1377,-13,-80,909,-23,-10,-9
1378,-51,-38,929,10,-1,-4
1379,114,6,884,41,3,-23
1380,57,9,891,26,30,-8
1381,10,-48,632,-27,7,-1
1382,-31,-41,827,-61,4,-3
1383,-119,38,763,-12,10,-3
1384,25,-82,898,-31,-8,-8
1385,-49,-68,837,2,-1,-9
1386,52,78,880,-24,-3,-19
1387,73,-33,779,-37,23,-15
1388,75,-94,671,-45,2,2
1389,3,-8,617,16,-3,-1
1390,-118,-36,720,-38,2,4
1391,10,-61,825,-32,-13,-8
1392,-15,-58,799,-25,-14,-8
1393,23,63,914,4,-16,5
1394,56,-137,592,2,-7,-14
1395,139,-25,721,24,13,-14
1396,-56,65,636,-83,3,7
1397,14,-1,542,-64,3,-3
1398,43,-12,748,-7,-6,-9
1399,21,-89,713,-32,-17,-4
1400,-70,11,889,1,3,-2
1401,100,-111,541,32,1,-26
1402,27,74,587,-46,19,2
1403,112,-77,430,46,25,-5
1404,29,-82,639,39,18,-17
1405,-69,35,412,-11,-2,3
1406,23,-40,662,-52,-17,-4
1407,-14,-152,648,-26,-5,-4
1408,116,11,667,20,2,-24
1409,-44,-55,649,-23,16,7
1410,128,-53,303,-44,16,-2
1411,35,83,609,-49,23,-24
1412,-18,137,428,7,15,2
1413,53,-64,580,-29,-13,-7
1414,-67,-26,706,3,-1,-13
1415,139,11,726,38,-3,-5
1416,0,-126,559,-20,8,-11
1417,61,-59,479,-35,14,-7
1418,75,145,501,-14,37,-24
1419,-18,10,340,15,22,-3
1420,2,35,602,-7,-6,-6
1421,-4,-17,680,-26,-15,-10
1422,46,-140,849,-29,5,-3
1423,137,-83,546,-28,-5,-14
1424,-52,11,570,36,12,6
1425,56,50,503,-47,-6,11
1426,-20,2,534,-50,-6,2
1427,51,103,427,-18,-1,-5
1428,15,-78,744,-40,-12,-8
1429,-1,-154,866,-1,-3,-4
1430,141,-45,687,40,-10,-17
1431,7,41,641,-76,8,-2
1432,91,-186,422,-75,7,-5
1433,66,107,652,-79,12,-9
1434,-77,-38,416,-24,4,-5
1435,0,-86,731,-18,-11,-8
1436,-6,-76,861,-10,-5,-10
1437,47,-112,782,14,-10,0
1438,34,-27,601,-25,6,-11
1439,74,-24,723,-38,8,-13
1440,9,-84,522,-59,20,-13
1441,-12,0,544,-9,15,-3
1442,-29,-22,758,-11,-6,-7
1443,-8,-47,798,-17,-12,-10
1444,2,-23,922,-1,-5,2
1445,101,-61,636,-9,-7,-12
1446,69,-27,795,-3,21,-11
1447,-53,11,703,-30,16,-12
1448,-49,61,583,-25,12,-7
1449,8,23,624,-1,2,-6
1450,0,-90,804,-23,-11,-6
1451,-24,-76,934,-8,-6,-1
1452,117,-19,832,-10,-14,-10
1453,8,-13,820,15,24,-8
1454,38,-53,610,1,16,-10
1455,8,57,803,-17,17,-12
1456,-71,9,586,-10,8,-2
1457,-11,-77,817,-22,-8,-5
1458,-5,-66,936,-11,-7,-7
1459,44,-63,939,-17,-12,-5
1460,1,4,822,3,5,-8
1461,28,-21,779,36,17,-7
1462,17,-48,701,34,18,-12
1463,-70,-26,682,-12,10,0
1464,-42,-35,834,-12,-2,-6
1465,-9,-53,910,-20,-9,-6
1466,13,-18,1017,-15,-6,-5
1467,74,-65,756,-19,-5,-10
1468,24,8,900,-8,1,0
1469,-32,-22,864,-30,4,3
1470,-65,-5,692,-48,-5,3
1471,-32,-6,843,-23,-5,-5
1472,1,-88,890,-26,-10,-7
1473,-22,-47,975,-10,-4,-1
1474,83,2,878,8,-12,-12
1475,16,-21,919,-9,17,-8
1476,2,-22,749,-2,18,-8
1477,-52,36,762,9,23,-14
1478,-33,51,783,-14,6,-1
1479,-3,-86,865,-17,-12,-5
1480,-19,-68,942,-3,-8,-5
1481,69,-10,925,-2,-2,-10
1482,16,-26,842,-15,7,-3
1483,8,-5,769,-60,-4,-1
1484,-60,119,792,-79,4,-3
1485,-30,-17,633,-44,5,-3
1486,-19,-44,870,-18,-8,-9
1487,-6,-58,886,-13,-8,-7
1488,14,-29,1013,-33,-7,-5
1489,103,-85,739,-21,-10,-9
1490,1,19,831,53,14,-5
1491,-23,101,782,11,5,6
1492,-52,-61,673,-30,-2,3
1493,-27,23,695,-23,-7,-7
1494,4,-86,856,-30,-10,-8
1495,-30,-91,984,-12,-5,0
1496,121,-29,861,-2,-15,-10
1497,-7,1,812,-8,24,-10
1498,28,-55,578,14,17,-8
1499,-6,40,795,32,16,-14
1500,-64,7,564,-17,3,1
1501,0,-91,835,-17,-9,-3
1502,-28,-67,928,-14,-10,-2
1503,91,-99,860,31,-3,-12
1504,4,27,737,-42,8,-3
1505,46,-95,559,-76,-1,-3
1506,68,35,696,-75,17,-7
1507,-86,-52,521,-31,9,-2
1508,-22,-56,734,-14,-8,-8
1509,4,-60,875,-4,-7,-9
1510,8,-112,951,-41,-4,-3
1511,90,-75,523,-18,-9,-7
1512,12,42,688,68,15,-5
1513,64,-128,596,21,2,5
1514,26,-27,494,-24,-4,2
1515,-60,-6,561,-15,-4,-5
1516,7,-76,798,-30,-10,-8
1517,-39,-88,864,-3,0,-1
1518,148,-45,616,33,-5,-19
1519,82,-45,732,-68,10,2
1520,13,-129,519,-79,4,-2
1521,27,-2,471,-81,14,-6
1522,-41,45,535,-21,4,-6
1523,37,-98,703,-28,-15,-8
1524,-26,-63,785,-7,-7,-7
1525,154,-14,717,28,-11,-6
1526,41,-130,648,-36,13,-15
1527,125,-105,525,-34,10,-8
1528,52,102,561,-76,14,-8
1529,-60,82,373,-26,13,-5
1530,17,-30,614,-14,-4,-7
1531,11,-73,769,-17,-13,-11
1532,62,-143,935,23,-4,-2
1533,94,-31,521,-12,-1,-12
1534,-12,38,615,-60,4,-3
1535,105,-64,615,-61,8,3
1536,35,-62,471,-42,3,0
1537,-62,26,514,-21,-5,-9
1538,-6,-68,753,-21,-10,-8
1539,-23,-50,874,-18,0,-6
1540,105,-48,653,-29,-7,-17
1541,67,-28,781,23,5,6
1542,11,-109,566,5,9,-4
1543,-10,13,527,19,11,-11
1544,-32,75,562,-27,-1,-2
1545,9,-87,713,-21,-10,-5
1546,-17,-50,876,-16,-8,-6
1547,100,-47,826,-14,-13,-3
1548,7,13,756,7,11,-10
1549,29,-45,574,11,16,-8
1550,118,47,722,-46,11,-9
1551,-57,-1,495,-27,8,-2
1552,-17,-37,663,-12,-6,-7
1553,9,-64,880,-12,-9,-9
1554,7,-69,983,16,-1,-2
1555,50,-44,636,-7,1,-13
1556,37,15,807,-54,5,-7
1557,-16,-114,694,-57,7,-1
1558,-41,38,589,-47,3,0
1559,-24,-15,673,-23,-4,-8
1560,-1,-79,797,-19,-11,-6
1561,-11,-57,938,-7,-3,-3
1562,94,-18,815,-1,-2,-14
1563,-5,0,827,-37,1,1
1564,-15,2,664,-38,-4,0
1565,-9,14,695,0,5,-3
1566,-2,66,584,-35,-2,-4
1567,-10,-81,793,-25,-10,-6
1568,-13,-54,934,-14,-7,-8
1569,58,-56,907,-27,-7,-10
1570,14,14,837,-1,2,-2
1571,36,-54,720,-29,-4,-2
1572,30,2,779,36,13,-5
1573,-75,-35,674,-31,2,-1
1574,-37,-50,812,-23,-7,-5
1575,4,-65,939,-18,-8,-8
1576,11,-20,1023,-26,-5,-5
1577,52,-38,783,-15,-6,-9
1578,16,6,933,-14,-1,-3
1579,-30,-31,854,-9,4,2
1580,-57,3,739,-29,3,1
1581,-48,-6,858,-30,-7,-7
1582,-8,-76,897,-20,-11,-6
1583,-9,-51,996,-7,-3,-5
1584,89,-28,896,4,-2,-15
1585,4,13,941,-33,7,-5
1586,-19,34,796,-59,5,-7
1587,-52,15,778,-68,10,-7
1588,-15,19,784,-21,5,-6
1589,-6,-89,884,-23,-13,-8
1590,-27,-54,956,-9,-9,-8
1591,74,-22,926,-25,-14,-10
1592,15,-9,913,10,9,-4
1593,23,-20,732,13,7,-2
1594,-54,103,857,53,11,-1
1595,-74,-20,672,-31,-1,2
1596,-21,-57,865,-22,-7,-6
1597,1,-70,920,-15,-7,-8
1598,29,-41,1024,9,-3,1
1599,59,-56,756,-2,-1,-12
1600,0,36,832,-35,10,-8
1601,24,50,825,-24,28,-13
1602,-75,-90,673,-24,13,-6
1603,-73,11,718,-4,-2,-6
1604,-2,-83,892,-20,-10,-7
1605,-23,-60,995,-7,-3,-3
1606,102,-66,882,-4,-1,-16
1607,-16,33,839,-20,1,3
1608,0,-63,642,-61,-4,2
1609,19,5,809,-77,3,-2
1610,-88,-3,587,-26,3,-8
1611,2,-110,900,-23,-12,-7
1612,-29,-61,953,-7,-7,-8
1613,53,-24,892,-33,-15,-9
1614,-1,21,844,20,12,-6
1615,39,-88,700,20,6,-5
1616,3,-4,726,61,13,-4
1617,-93,-14,684,-29,2,3
1618,-24,-60,861,-23,-9,-6
1619,-2,-69,924,-10,-7,-10
1620,27,-34,980,7,-2,-3
1621,48,-39,756,1,1,-14
1622,8,41,890,-34,8,-5
1623,-15,-53,788,-24,27,-14
1624,-59,-18,716,-10,13,-6
1625,-64,-14,818,-6,-1,-7
1626,-6,-77,918,-20,-7,-6
1627,-13,-22,1017,-3,-2,-3
1628,95,-49,851,1,-2,-15
1629,21,12,894,-28,5,0
1630,-9,-11,807,-70,8,-5
1631,-58,-18,759,-62,7,-8
1632,-92,28,831,-20,3,-7
1633,8,-107,917,-25,-9,-7
1634,-24,-58,947,-8,-7,-7
1635,71,0,933,-5,-4,-12
1636,19,9,892,-18,6,-5
1637,41,-53,793,-49,2,-1
1638,-47,11,788,-86,3,-8
1639,-108,15,822,-34,7,-5
1640,-12,-67,970,-19,-6,-7
1641,-15,-56,919,-11,-9,-8
1642,44,-10,995,-6,-5,-7
1643,49,-49,812,-3,2,-10
1644,20,23,938,-39,2,1
1645,-33,-11,825,-82,13,-10
1646,-96,-12,761,-43,2,-4
1647,-48,-24,905,-9,-2,-8
1648,-3,-81,923,-17,-8,-8
1649,-6,-7,1043,2,-2,-2
1650,83,-44,846,10,0,-14
1651,21,19,891,-37,7,-2
1652,-1,-9,845,-31,21,-11
1653,-61,-38,817,-4,19,-9
1654,-94,23,850,-11,-2,-4
1655,-1,-94,920,-19,-9,-7
1656,-28,-41,958,-3,-3,-3
1657,83,-17,976,12,-6,-10
1658,-4,10,926,-12,12,-7
1659,23,-52,786,0,7,-5
1660,-54,21,892,60,20,-11
1661,-107,3,822,-25,5,1
1662,0,-88,958,-26,-11,-6
1663,-18,-52,942,-6,-7,-6
1664,48,-12,1027,-29,-12,-5
1665,19,-19,898,-10,4,-8
1666,19,0,892,12,11,-5
1667,-21,-2,867,-43,-5,1
1668,-109,-34,812,-52,0,1
1669,-38,-21,891,-22,-3,-8
1670,-5,-67,937,-25,-9,-7
1671,19,-29,1061,2,-6,-3
1672,74,-66,871,4,-1,-14
1673,2,56,925,-34,4,-1
1674,-32,74,884,-4,22,-10
1675,-95,-47,834,1,19,-6
1676,-64,0,811,-4,-3,-4
1677,-2,-88,906,-20,-12,-6
1678,-34,-47,981,-15,-3,-5
1679,88,-28,940,-40,-14,-12
1680,-4,20,935,17,10,0
1681,9,-8,730,-14,6,-1
1682,-81,55,857,-78,-3,1
1683,-49,17,788,-32,3,-3
1684,10,-96,879,-28,-11,-8
1685,-25,-60,935,-17,-7,-5
1686,64,15,932,25,-13,-6
1687,19,-36,842,-24,7,-11
1688,24,-29,806,-13,11,-7
1689,-60,75,815,57,16,-11
1690,-39,-20,757,-30,2,1
1691,-6,-55,938,-9,-4,-7
1692,-7,-63,874,-12,-4,-7
1693,7,32,1029,-17,-2,-7
1694,79,-68,722,-10,-3,-11
1695,50,10,893,11,3,2
1696,-20,-12,819,-86,9,-3
1697,-72,-17,744,-68,7,-1
1698,-18,8,866,-12,-4,-9
1699,4,-94,869,-33,-15,-9
1700,-27,-18,978,-4,-3,0
1701,101,-28,852,20,-8,-14
1702,42,16,869,-44,17,-9
1703,-10,-32,674,8,15,-7
1704,-12,-37,756,44,17,-14
1705,-88,14,729,-27,0,-3
1706,7,-110,892,-13,-7,-6
1707,-36,-46,917,-8,-5,-6
1708,42,-9,890,-44,-20,-8
1709,10,11,825,20,12,-4
1710,48,-86,679,13,6,-2
1711,-13,1,715,16,1,3
1712,-113,-18,695,-46,-1,4
1713,-10,-61,861,-25,-10,-6
1714,-9,-64,916,1,-3,-7
1715,27,-51,983,-37,-4,-4
1716,38,-48,719,-14,-2,-7
1717,-2,53,825,32,4,-1
1718,8,-27,774,-67,-1,6
1719,-58,-66,655,-53,6,-1
1720,-58,-10,737,-19,-4,-8
1721,-6,-77,929,-20,-14,-8
1722,-26,-32,1003,-8,-3,-3
1723,110,-57,848,-24,-2,-16
1724,-14,42,834,5,6,4
1725,0,-21,735,-64,0,-1
1726,-28,-26,828,-78,1,-4
1727,-94,16,657,-16,6,-4
1728,7,-107,914,-29,-9,-7
1729,-27,-57,950,-6,-7,-4
1730,73,-21,944,6,-3,-12
1731,-15,50,908,-29,9,-4
1732,26,-45,687,-54,6,-1
1733,-25,32,869,-72,11,-12
1734,-107,-17,718,-30,5,-3
1735,-10,-74,903,-16,-5,-6
1736,-22,-49,931,-11,-7,-7
1737,48,-32,1005,19,-4,-4
1738,34,-29,826,-2,1,-11
1739,15,23,834,-48,5,-2
1740,-29,78,867,-22,28,-16
1741,-101,-56,679,-10,9,-2
1742,-42,-16,821,-12,-7,-7
1743,-3,-79,910,-18,-7,-8
1744,-1,-22,1041,7,-3,1
1745,87,-65,856,5,-5,-13
1746,-18,68,844,-21,13,-6
1747,-5,69,819,18,20,-10
1748,-86,-40,821,15,19,-10
1749,-81,17,718,-9,-2,-2
1750,0,-89,900,-25,-14,-8
1751,-34,-50,953,-9,-6,-1
1752,86,-39,928,-7,-13,-10
1753,-9,24,915,3,19,-7
1754,15,-23,683,17,7,-4
1755,-76,103,862,53,12,-8
1756,-81,4,712,-24,6,2
1757,4,-91,888,-28,-8,-7
1758,-15,-59,931,-8,-7,-7
1759,47,-30,967,-36,-14,-6
1760,16,-21,816,-2,3,-8
1761,24,-9,790,39,16,-4
1762,-44,135,797,5,-4,7
1763,-63,-58,621,-43,0,4
1764,-32,-28,859,-17,-1,-6
1765,-2,-64,864,-17,-6,-7
1766,5,-32,1030,-24,-3,-7
1767,92,-99,732,-22,-9,-11
1768,-14,27,790,37,7,4
1769,-28,120,721,-59,4,6
1770,-75,-51,668,-66,-4,3
1771,18,28,669,-18,-2,-7
1772,9,-99,827,-15,-6,-5
1773,-29,-72,947,-4,2,-5
1774,101,14,819,-29,-7,-17
1775,-20,-27,801,17,5,5
1776,54,-37,510,-28,2,5
1777,-75,65,722,-70,-4,1
1778,-13,81,553,-35,2,-3
1779,12,-88,770,-21,-8,-7
1780,-15,-74,901,-8,-2,-8
1781,109,-64,870,-46,-14,-6
1782,-11,-26,720,11,3,-7
1783,13,-39,560,39,12,-5
1784,62,106,714,50,4,-1
1785,-27,-43,462,-40,-1,3
1786,-20,-19,721,-14,-4,-6
1787,0,-56,855,-33,-8,-11
1788,11,-109,995,18,-2,2
1789,124,-85,580,2,-4,-17
1790,-10,27,687,-67,6,-5
1791,85,-8,713,-43,22,-12
1792,-5,-58,585,-28,14,-7
1793,-68,35,532,-1,-2,-7
1794,11,-100,831,-23,-11,-5
1795,-37,-106,947,-11,-2,-3
1796,110,-59,750,-47,-13,-12
1797,0,45,750,47,14,-1
1798,16,-133,518,29,4,2
1799,94,5,622,9,-3,-3
1800,-86,-23,533,-33,-1,-1
1801,0,-87,809,-25,-8,-5
1802,-17,-72,876,-22,-8,-6
1803,46,-37,794,22,-4,-10
1804,49,-48,685,-29,5,-3
1805,96,-84,732,-79,-4,0
1806,-55,-16,552,-67,8,0
1807,-21,18,564,-40,5,-1
1808,-8,-42,796,-16,-9,-8
1809,7,-60,808,-13,-8,-11
1810,0,-17,928,7,-2,2
1811,106,-63,616,-7,-3,-12
1812,71,-32,780,-26,14,-10
1813,-58,22,652,-44,19,-11
1814,-41,39,542,-25,14,-7
1815,-3,38,582,2,1,-7
1816,5,-88,766,-21,-13,-6
1817,-22,-110,925,-2,-7,-1
1818,142,-23,798,-21,-16,-9
1819,-15,-2,771,9,24,-9
1820,47,-58,513,0,13,-9
1821,43,79,725,-9,15,-13
1822,-54,12,493,-5,6,-4
1823,-10,-80,778,-20,-8,-4
1824,-14,-63,930,-12,-9,-7
1825,54,-90,833,-24,-16,-5
1826,8,-6,747,4,10,-7
1827,47,-69,684,37,21,-9
1828,16,-23,575,22,21,-12
1829,-26,-26,558,-16,5,0
1830,-23,-51,765,-6,-3,-5
1831,4,-62,857,-19,-6,-8
1832,6,-9,947,-28,-7,-5
1833,72,-55,634,-21,-9,-7
1834,98,-48,842,53,17,-8
1835,-43,-54,696,32,16,-7
1836,-37,66,572,-9,4,-3
1837,-4,13,660,-6,-3,-4
1838,0,-85,781,-25,-8,-7
1839,-21,-83,928,-22,-4,-5
1840,131,-16,790,-31,-10,-15
1841,-17,-10,788,28,7,4
1842,31,-20,539,22,8,1
1843,2,27,726,21,6,-5
1844,5,62,507,-35,-2,-2
1845,-9,-81,764,-19,-7,-5
1846,-19,-52,921,-18,-6,-6
1847,90,-111,851,-26,-6,-12
1848,7,24,724,6,5,2
1849,49,-93,610,-21,-3,0
1850,72,-12,631,43,12,-1
1851,-59,-48,537,-43,-2,2
1852,-32,-48,725,-19,-8,-7
1853,6,-59,874,-14,-9,-10
1854,7,-36,956,-23,-1,-7
1855,71,-61,610,-9,-2,-9
1856,90,-36,823,-8,-3,2
1857,-42,-108,688,-5,7,4
1858,-37,70,564,-24,1,2
1859,-1,-1,675,-24,-8,-7
1860,3,-82,782,-22,-12,-7
1861,-16,-76,927,-14,1,-4
1862,127,-12,782,-1,0,-17
1863,-23,-26,782,-20,2,7
1864,16,-14,540,-27,-3,2
1865,-19,24,677,-14,1,0
1866,7,84,512,-38,-4,-3
1867,1,-84,757,-25,-11,-6
1868,-23,-61,910,-17,-7,-7
1869,104,-116,851,-12,-2,-14
1870,0,35,723,-9,3,-1
1871,46,-102,580,-53,-8,2
1872,81,-2,639,8,8,2
1873,-56,-54,526,-48,-3,0
1874,-36,-48,707,-22,-8,-6
1875,10,-60,866,-19,-9,-9
1876,5,-52,951,-19,1,-7
1877,65,-58,590,-4,0,-9
1878,84,-31,806,-2,-1,3
1879,-38,-110,685,-4,7,1
1880,-34,77,552,-20,1,0
1881,2,0,659,-18,-6,-7
1882,10,-85,768,-21,-9,-8
1883,-20,-73,926,-26,-1,-6
1884,121,-20,797,-28,-9,-14
1885,-14,-7,793,14,2,3
1886,19,-13,581,6,6,0
1887,9,17,722,35,10,-8
1888,5,62,520,-27,0,-3
1889,-5,-78,769,-22,-10,-4
1890,-14,-64,930,-15,-6,-8
1891,79,-105,865,-38,-9,-12
1892,7,23,749,10,5,-1
1893,45,-90,636,-1,2,-1
1894,57,-19,630,58,16,-4
1895,-51,-44,545,-37,-2,1
1896,-30,-52,736,-14,-7,-6
1897,6,-65,866,-22,-9,-8
1898,9,-32,954,-30,-3,-7
1899,64,-65,614,-14,-4,-8
1900,105,-41,821,33,6,-1
1901,-46,-85,691,27,11,1
1902,-36,81,549,-11,0,-1
1903,4,2,655,-21,-6,-5
1904,8,-88,756,-25,-10,-5
1905,-23,-82,921,-27,-2,-4
1906,139,-20,779,-26,-9,-17
1907,-24,-16,779,15,5,6
1908,40,-22,518,3,4,1
1909,18,27,705,21,7,-5
1910,11,70,475,-33,-2,-1
1911,0,-83,740,-17,-9,-5
1912,-17,-69,917,-18,-7,-8
1913,87,-120,834,-42,-11,-12
1914,2,20,698,19,3,-2
1915,48,-93,619,14,6,-4
1916,59,-23,583,44,18,-9
1917,-31,-47,510,-28,2,1
1918,-26,-55,712,-11,-7,-5
1919,8,-64,839,-23,-9,-8
1920,4,-23,942,-22,-8,-4
1921,77,-49,614,-19,-9,-8
1922,93,-45,831,53,21,-9
1923,-50,-47,682,-2,20,-10
1924,-35,76,544,-24,9,-6
1925,4,14,608,-4,-2,-6
1926,2,-86,759,-22,-10,-6
1927,-18,-88,929,-4,-5,-1
1928,135,-31,811,-9,-13,-8
1929,-9,14,800,-1,22,-11
1930,37,-62,516,-26,12,-8
1931,72,60,735,-50,12,-7
1932,-62,8,493,-17,4,-3
1933,-5,-81,760,-25,-10,-3
1934,-16,-64,916,-10,-7,-5
1935,45,-63,828,17,-9,-4
1936,21,-20,736,-21,12,-11
1937,75,-75,709,-21,11,-12
1938,-20,-32,576,-52,11,-9
1939,-28,-9,551,-36,7,-1
1940,-18,-53,763,-14,-7,-8
1941,3,-60,818,-16,-10,-8
1942,0,-13,935,17,-2,1
1943,86,-53,606,-4,-1,-13
1944,75,-40,783,-33,12,-10
1945,-26,10,652,-60,15,-7
1946,-19,40,527,-46,9,-5
1947,8,36,537,-12,-1,-9
1948,11,-90,743,-24,-12,-7
1949,-26,-119,920,7,-1,1
1950,163,-39,795,22,-4,-13
1951,-19,41,741,-47,17,-7
1952,44,-122,432,-63,0,-3
1953,103,63,700,-64,6,-1
1954,-73,-26,455,-20,4,-4
1955,-3,-82,708,-24,-11,-6
1956,-17,-64,866,-8,-7,-7
1957,50,-59,750,17,2,-12
1958,51,-41,630,-18,9,-1
1959,122,-112,697,-61,-6,2
1960,-50,-14,524,5,7,2
1961,-5,29,438,-47,-3,1
1962,-7,-41,674,-15,-6,-7
1963,5,-58,739,-16,-8,-9
1964,9,-61,921,-41,-2,-7
1965,133,-52,562,-15,-10,-10
1966,0,12,711,41,7,-1
1967,76,13,652,8,16,-8
1968,55,-42,534,-14,9,-7
1969,-14,89,435,-5,-1,-6
1970,6,-83,728,-29,-11,-5
1971,-27,-86,910,3,-4,0
1972,84,-38,752,12,-10,-10
1973,25,44,759,-29,19,-10
1974,20,-142,525,-44,5,-5
1975,53,2,560,-60,4,-2
1976,-50,-4,548,-26,0,-6
1977,2,-76,708,-23,-10,-7
1978,-8,-61,843,-17,-7,-8
1979,86,-29,830,7,2,-12
1980,27,-47,661,-15,6,-1
1981,25,-38,638,-55,-3,1
1982,104,70,631,24,7,-2
1983,-24,-8,390,-53,-4,1
1984,-1,0,626,-13,-6,-8
1985,0,-49,784,-23,-8,-8
1986,5,-119,983,-38,-2,-7
1987,124,-43,521,-25,-10,-10
1988,10,0,660,37,9,0
1989,23,-147,618,19,18,-8
1990,25,-15,438,-14,9,-7
1991,-25,-25,491,3,0,-5
1992,21,-98,698,-28,-11,-6
1993,-37,-48,820,-4,-4,1
1994,125,6,662,14,-12,-12
1995,14,-104,717,-33,23,-10
1996,105,10,474,-43,1,-3
1997,90,9,548,-44,2,1
1998,-53,98,395,-35,-1,-3
1999,21,-56,578,-19,-9,-5
2000,4,-72,803,-12,-5,-8
2001,83,-112,837,-46,-8,-8
2002,-31,67,602,9,-1,-4
2003,42,-75,586,10,4,-4
2004,55,-64,515,-43,11,-13
2005,-28,-49,443,-14,10,-1
2006,-9,-45,618,-11,-6,-5
2007,0,-42,680,-23,-12,-8
2008,-7,-37,899,-1,5,-5
2009,134,-54,512,-1,-1,-14
2010,-11,-6,737,-33,1,5
2011,40,54,639,3,16,-6
2012,86,-9,544,-9,7,-9
2013,33,43,380,-5,1,-6
2014,14,-83,699,-27,-10,-6
2015,-42,-28,822,7,-2,-4
2016,64,-21,787,25,-3,-15
2017,27,74,740,-45,13,-2
2018,55,-109,555,-23,2,-2
2019,-14,38,572,24,10,-11
2020,-50,10,491,-24,3,-1
2021,36,-96,619,-21,-6,-6
2022,5,-61,789,-15,-9,-8
2023,69,-18,894,18,-8,-2
2024,7,58,617,-15,7,-11
2025,15,-32,630,-37,10,-10
2026,135,12,699,12,10,1
2027,-17,-49,475,-37,1,1
2028,-41,15,597,-11,-1,-7
2029,4,-55,702,-26,-10,-9
2030,-13,5,883,-10,-6,4
2031,102,-63,552,-31,-16,-11
2032,39,22,728,40,20,-11
2033,-11,46,672,-41,7,1
2034,20,26,496,-58,-5,-1
2035,35,31,447,-12,2,-6
2036,8,-80,637,-29,-11,-5
2037,-35,-32,766,-9,-6,-2
2038,72,-74,803,-29,-19,-8
2039,-12,84,727,37,19,-6
2040,39,-114,458,-7,5,-4
2041,-38,21,568,-28,-1,-1
2042,-36,-84,486,-32,3,-3
2043,36,-103,653,-21,-7,-6
2044,-1,-42,730,-9,-11,-10
2045,45,-3,860,-11,-11,2
2046,53,52,540,-3,6,-11
2047,14,3,686,0,12,-13
2048,61,67,712,25,15,-1
2049,6,-56,464,-20,4,-1
2050,-31,25,545,-17,-4,-6
2051,22,-74,650,-20,-10,-9
2052,-33,22,845,10,3,-1
2053,112,-62,623,9,0,-17
2054,-34,61,679,-46,7,-2
2055,32,82,656,-32,12,-6
2056,100,-52,650,-3,13,-11
2057,1,52,400,-30,0,-6
2058,8,-79,633,-19,-8,-5
2059,-21,-23,758,-12,-5,-6
2060,70,-14,797,-49,-11,-12
2061,-35,121,777,23,14,0
2062,80,-21,578,1,2,-2
2063,-15,-11,656,2,6,-1
2064,-37,66,514,-37,0,-2
2065,-13,-70,604,-27,-8,-6
2066,2,-49,752,-6,-9,-10
2067,9,30,908,14,-4,1
2068,0,-20,643,-13,1,-11
2069,22,11,773,-39,4,-8
2070,-40,22,607,-1,22,-12
2071,-55,9,531,-13,6,-5
2072,26,-70,663,-11,-3,-6
2073,5,-81,653,-22,-10,-7
2074,-39,22,853,-13,-1,-4
2075,114,-38,795,-28,-8,-16
2076,-25,26,707,34,10,4
2077,-33,-10,462,-19,3,2
2078,-61,30,746,-41,1,-2
2079,-83,-73,556,-20,-2,-5
2080,8,-109,705,-26,-10,-4
2081,-21,-45,826,-1,-3,-7
2082,71,-13,835,20,-5,-6
2083,-14,88,715,-36,8,-4
2084,54,-22,590,-55,-4,-9
2085,-10,45,696,-33,19,-12
2086,-102,-45,609,-30,10,-2
2087,-19,-51,656,-17,-8,-8
2088,15,-57,737,-19,-12,-9
2089,3,-5,942,-23,-6,-2
2090,78,-13,506,-35,-9,-13
2091,6,67,758,19,20,-13
2092,-9,91,802,24,17,-9
2093,19,-76,663,-9,8,-4
2094,-69,27,552,-2,-2,-6
2095,20,-87,667,-30,-11,-6
2096,-33,-54,832,-25,0,-4
2097,89,-18,804,-28,-13,-16
2098,-26,104,706,28,17,-3
2099,43,46,560,22,5,-1
2100,58,-29,838,21,7,-5
2101,-87,27,540,-28,3,2
2102,1,-68,661,-19,-6,-4
2103,-6,-59,821,-26,-8,-7
2104,52,-45,829,-19,1,-12
2105,-5,64,566,9,2,-6
2106,31,17,756,34,10,-5
2107,45,89,772,27,10,-3
2108,-52,-104,583,-30,2,3
2109,-53,11,659,-13,-2,-7
2110,4,-55,708,-32,-11,-9
2111,-13,-28,918,-26,-2,-1
2112,114,-73,627,-36,-11,-16
2113,-27,105,698,34,25,-8
2114,-8,76,764,25,18,-10
2115,14,-69,778,19,13,-9
2116,-94,7,577,-18,-2,-4
2117,2,-98,744,-21,-10,-7
2118,-32,-45,817,-11,-6,-2
2119,88,-37,831,-32,-16,-7
2120,-29,74,767,-43,15,-11
2121,38,20,566,-53,3,-10
2122,-34,-1,863,-27,12,-15
2123,-116,-57,627,-21,7,-2
2124,-11,-69,782,-16,-4,-6
2125,-5,-51,837,-10,-8,-10
2126,32,-20,934,15,-8,3
2127,30,-64,591,-5,-3,-7
2128,6,63,763,-46,-6,1
2129,-61,88,762,-82,4,1
2130,-79,-113,637,-60,0,-2
2131,-64,-13,742,-10,-4,-10
2132,6,-84,746,-24,-11,-9
2133,-40,-10,931,8,2,-3
2134,116,-63,845,10,-1,-19
2135,-17,47,736,40,11,6
2136,-14,49,506,10,5,3
2137,-68,7,772,7,5,-4
2138,-77,-42,658,-28,-1,-1
2139,20,-111,761,-24,-10,-5
2140,-24,-46,844,-13,-3,-5
2141,51,-4,865,-53,-14,-10
2142,-24,26,765,-20,12,-11
2143,48,-26,596,-11,10,-12
2144,-60,78,637,-13,21,-14
2145,-107,-22,684,-20,8,-1
2146,-13,-69,801,-7,-9,-8
2147,10,-61,701,-23,-10,-7
2148,-4,28,986,27,0,3
2149,86,-72,665,2,-6,-9
2150,-12,0,810,3,3,5
2151,-46,85,690,-20,3,5
2152,-84,-65,623,-45,-6,0
2153,-42,-13,688,-19,-1,-7
2154,19,-106,627,-26,-8,-10
2155,-46,-39,781,-24,-1,-3
2156,104,-3,879,-34,-19,-15
2157,-25,46,878,-41,18,-11
2158,21,-71,574,-30,13,-11
2159,-22,-49,792,-37,12,-13
2160,-99,30,612,-28,1,-2
2161,3,-96,698,-15,-9,-8
2162,-2,-51,797,-5,-6,-8
2163,50,-18,880,11,5,-8
2164,10,16,607,31,6,-6
2165,31,23,777,39,8,-4
2166,10,21,823,38,18,-3
2167,-56,-109,645,2,10,1
2168,-61,-7,704,-23,-5,-5
2169,16,-74,744,-19,-13,-8
2170,-33,-20,942,-2,-4,5
2171,121,-74,785,-33,-10,-10
2172,-19,64,703,-39,2,1
2173,-25,29,641,-64,-5,4
2174,-78,-52,825,-69,-4,-4
2175,-112,-2,647,-16,7,-5
2176,20,-105,789,-31,-10,-7
2177,-26,-46,862,-3,-6,-7
2178,58,-5,911,-51,-12,-12
2179,-22,26,822,-31,20,-13
2180,40,-41,560,-14,9,-10
2181,-40,55,708,-45,13,-12
2182,-112,-25,739,-22,5,-5
2183,-20,-60,834,-12,-4,-7
2184,10,-57,757,-12,-7,-9
2185,6,11,976,4,2,-5
2186,62,-63,745,18,4,-15
2187,-11,27,895,53,21,-9
2188,-30,42,724,30,23,-6
2189,-65,-95,698,-3,8,-5
2190,-67,-1,733,-1,-2,-5
2191,5,-89,675,-25,-8,-6
2192,-37,-44,858,-3,-3,3
2193,97,-17,877,27,-8,-13
2194,-23,74,848,3,8,9
2195,15,-41,623,-12,0,6
2196,18,-53,890,-5,-2,-3
2197,-85,20,666,-46,0,0
2198,-2,-83,761,-18,-7,-8
2199,-9,-50,872,-21,-4,-6
2200,58,-40,909,-35,-17,-6
2201,-1,1,679,-51,-6,-9
2202,34,1,747,-65,5,-7
2203,-50,35,818,-65,13,-13
2204,-109,-102,681,-43,-1,-1
2205,-48,-18,835,-10,-4,-9
2206,11,-55,751,-14,-8,-10
2207,-4,-13,1019,-15,5,-4
2208,97,-68,763,0,-5,-20
2209,-21,44,761,29,19,-8
2210,-28,83,661,14,22,-10
2211,-37,-51,679,27,18,-11
2212,-75,-11,796,-21,-4,-3
2213,10,-96,762,-16,-12,-5
2214,-35,-34,787,2,-3,-1
2215,90,-7,937,25,-1,-8
2216,-39,21,869,18,8,5
2217,45,-44,565,-18,-10,4
2218,-41,8,751,30,12,-4
2219,-117,-18,694,-40,4,4
2220,-28,-67,767,-35,-11,-4
2221,-2,-39,770,-5,-9,-9
2222,18,0,920,-34,-9,1
2223,64,-57,711,-47,-5,-8
2224,-7,41,885,-53,-3,-5
2225,-14,3,719,-87,1,-4
2226,-25,-115,685,-57,6,-1
2227,-68,11,704,-10,0,-10
2228,4,-77,745,-24,-13,-8
2229,-37,-36,890,-5,-1,-6
2230,104,-52,861,-27,-3,-18
2231,-12,66,793,28,29,-10
2232,-13,0,659,23,12,-7
2233,-4,-58,933,11,15,-12
2234,-86,1,652,-2,5,-2
2235,0,-90,808,-24,-7,-5
2236,-18,-51,934,-12,-7,-4
2237,54,-28,924,23,-10,-5
2238,-8,2,779,-19,1,1
2239,46,-10,765,-41,1,2
2240,-71,57,790,-45,-4,0
2241,-93,-84,741,-61,-4,3
2242,-36,-38,892,-12,-4,-8
2243,0,-54,811,-22,-5,-10
2244,9,-12,1058,-16,3,-6
2245,76,-78,726,14,-2,-15
2246,-4,33,818,43,16,-4
2247,-43,86,756,30,14,1
2248,-52,-57,723,0,8,-2
2249,-61,-13,807,-7,2,-2
2250,7,-97,780,-30,-13,-7
2251,-32,-29,872,-16,-3,-3
2252,91,-15,964,-41,-14,-14
2253,-24,31,810,-7,20,-11
2254,33,-12,546,7,12,-11
2255,-61,54,768,28,18,-17
2256,-95,-24,777,-22,3,1
2257,-4,-91,829,-27,-7,-5
2258,-12,-49,808,-5,-7,-8
2259,35,0,985,-28,-12,1
2260,21,-41,718,-38,-1,-11
2261,20,0,803,-45,6,-8
2262,-33,85,706,-36,21,-15
2263,-106,-12,665,-23,2,-6
2264,-32,-41,850,-17,-4,-8
2265,4,-83,727,-16,-9,-8
2266,-26,-6,954,-6,-7,2
2267,99,-48,893,-30,-15,-10
2268,-17,28,778,-56,6,-5
2269,-10,56,635,-50,10,-9
2270,-59,10,754,-29,14,-11
2271,-82,-6,770,-17,0,-6
2272,5,-106,787,-23,-9,-6
2273,-15,-55,841,-13,-9,-5
2274,53,-1,936,-12,-15,-5
2275,-18,30,846,-44,10,-8
2276,35,-22,605,-38,3,-7
2277,-37,64,750,-14,19,-15
2278,-110,-11,780,-26,5,-4
2279,-24,-64,840,-18,-6,-7
2280,6,-62,803,-15,-9,-8
2281,20,-3,1021,-29,-9,-4
2282,43,-47,712,-28,-3,-13
2283,-5,40,812,-7,16,-9
2284,-34,66,729,20,18,-8
2285,-70,-47,732,-3,9,-4
2286,-45,-23,818,-10,-1,-7
2287,4,-80,737,-21,-10,-6
2288,-26,-38,929,-15,-1,-5
2289,93,-38,933,-18,-7,-18
2290,-17,59,798,36,13,1
2291,-6,11,535,-2,6,2
2292,-48,1,808,-31,-3,1
2293,-84,-44,712,-38,0,-2
2294,-5,-91,799,-23,-8,-6
2295,-16,-52,863,-10,-4,-7
2296,58,-36,933,29,-6,-8
2297,-12,36,755,-16,4,-4
2298,41,-17,712,-67,-1,-5
2299,-26,44,749,-49,18,-14
2300,-96,-82,653,-29,6,0
2301,-42,-38,766,-16,-8,-8
2302,0,-53,777,-16,-8,-8
2303,4,-17,984,-25,-3,-1
2304,84,-54,614,-32,-12,-13
2305,0,66,805,29,20,-9
2306,-13,61,832,7,8,0
2307,54,-65,731,-11,4,-2
2308,-79,10,586,-6,2,-4
2309,5,-96,771,-36,-13,-6
2310,-36,-41,868,-5,-4,-2
2311,87,-21,829,22,1,-16
2312,-6,83,781,-27,4,5
2313,28,-26,639,-41,3,-1
2314,47,-62,814,-62,-1,-8
2315,-66,35,557,-34,4,-1
2316,-8,-90,692,-17,-4,-6
2317,0,-61,867,-12,-10,-9
2318,36,-11,889,-26,-14,-2
2319,10,33,663,-20,2,-12
2320,38,-30,890,-8,13,-12
2321,-47,-20,718,39,18,-7
2322,-45,9,536,-8,4,-2
2323,-46,-42,696,-14,-4,-5
2324,10,-71,732,-21,-13,-9
2325,-15,-1,965,6,3,-2
2326,85,-38,828,4,0,-14
2327,-10,1,811,-4,3,4
2328,-19,58,677,-60,4,-1
2329,-42,-19,665,-63,3,-4
2330,-45,1,672,-19,4,-6
2331,-10,-91,754,-24,-7,-5
2332,-15,-36,827,-12,-9,-6
2333,71,-34,919,-31,-15,-8
2334,-28,72,833,3,14,-5
2335,34,-19,559,-2,6,-2
2336,-40,23,768,-8,0,-1
2337,-86,-62,727,-38,2,0
2338,-31,-71,815,-24,-5,-7
2339,-2,-51,830,-8,-9,-9
2340,40,-32,975,-3,-7,-1
2341,38,-20,671,-14,2,-12
2342,8,59,825,-19,11,-12
2343,24,55,868,18,13,-4
2344,9,-113,624,-8,8,-1
2345,-68,-9,681,-16,-4,-6
2346,4,-74,839,-19,-9,-8
2347,-31,-22,945,1,-2,1
2348,101,-43,785,5,-5,-11
2349,-5,41,826,-39,9,-7
2350,-39,2,720,-6,8,-4
2351,3,-57,732,20,14,-7
2352,-40,41,576,-19,-1,-3
2353,2,-103,761,-18,-8,-5
2354,-11,-48,898,-5,-7,-5
2355,43,13,883,20,-3,-6
2356,-8,25,886,-32,11,-8
2357,34,-69,663,-38,0,-5
2358,-47,29,702,39,21,-9
2359,-65,6,676,-27,3,0
2360,-24,-63,792,-20,-7,-5
2361,8,-64,821,-10,-9,-10
2362,28,-40,1008,1,-5,0
2363,61,-8,659,-6,-1,-11
2364,0,62,798,-17,11,-10
2365,49,26,813,-5,10,2
2366,36,-111,636,-24,-3,-2
2367,-80,15,635,-22,-5,-6
2368,-2,-66,803,-14,-9,-7
2369,-22,-36,926,-21,-5,-3
2370,94,-35,789,-35,-14,-8
2371,16,25,872,31,15,-7
2372,-11,5,652,-27,7,-4
2373,-12,-15,646,-61,6,-5
2374,-23,37,601,-23,3,-5
2375,0,-92,735,-28,-10,-5
2376,-11,-45,890,-6,-6,-9
2377,74,-47,876,-8,-1,-14
2378,-4,50,770,-5,4,0
2379,50,-90,620,-36,-2,-3
2380,54,-10,698,25,20,-11
2381,-69,-44,594,-34,1,-1
2382,-39,-50,705,-10,-4,-6
2383,12,-64,819,-20,-9,-8
2384,3,-32,948,12,-3,1
2385,72,-19,558,-8,-3,-11
2386,40,-11,817,-22,14,-11
2387,-39,10,700,-44,8,2
2388,-3,35,551,-53,0,2
2389,3,5,532,-17,-5,-8
2390,8,-91,718,-18,-10,-7
2391,-21,-68,897,-22,-1,-5
2392,116,-38,830,-31,-10,-14
2393,-15,61,750,21,8,4
2394,4,-126,495,-10,9,-3
2395,81,13,670,-18,13,-13
2396,-69,-52,543,-16,3,-2
2397,-11,-85,738,-22,-9,-4
2398,-14,-57,855,-9,-8,-8
2399,61,-26,820,23,-2,-8
2400,20,-14,665,-25,8,-5
2401,10,-19,723,-54,1,-3
2402,53,58,659,29,13,-3
2403,-5,-9,439,-40,0,0
2404,-10,-25,654,-11,-3,-6
2405,3,-54,788,-24,-9,-8
2406,0,-52,986,-17,-6,0
2407,80,-36,624,-16,-11,-12
2408,0,-7,746,29,19,-9
2409,-25,-96,694,-50,10,-4
2410,0,2,556,-48,3,-3
2411,-28,-34,597,-13,-2,-6
2412,6,-94,747,-23,-10,-7
2413,-25,-49,906,-4,-1,-4
2414,93,-8,781,7,-2,-15
2415,-11,-16,779,-32,4,3
2416,44,-8,575,-16,2,0
2417,57,-10,690,16,7,-10
2418,-18,77,484,-26,1,-3
2419,-3,-67,687,-20,-8,-5
2420,1,-68,865,-19,-8,-6
2421,60,-89,890,-14,-12,-3
2422,-13,42,705,0,7,-9
2423,40,-66,676,19,17,-11
2424,13,-74,582,-40,12,-8
2425,-18,-36,528,-36,5,-1
2426,-35,-42,699,-11,-4,-7
2427,1,-51,761,-19,-10,-8
2428,0,-33,956,4,1,-4
2429,104,-51,588,5,2,-11
2430,5,-6,778,-53,-2,3
2431,-10,19,688,-10,8,1
2432,24,9,570,-26,-2,-2
2433,25,27,473,-18,-2,-7
2434,7,-91,750,-26,-9,-5
2435,-32,-72,894,-20,-4,-4
2436,103,-48,848,-30,-14,-11
2437,14,51,741,28,13,-3
2438,12,-166,530,5,12,-6
2439,73,33,662,-8,12,-16
2440,-67,-50,520,-13,5,-2
2441,-5,-83,729,-18,-8,-5
2442,3,-68,853,-5,-6,-7
2443,43,-28,860,19,-6,-2
2444,25,-21,632,-18,9,-10
2445,73,-40,777,-37,8,-9
2446,-13,47,623,-27,8,-3
2447,-1,12,454,-38,2,-1
2448,-29,-11,676,-9,-2,-8
2449,2,-57,762,-24,-11,-9
2450,6,-86,982,-13,-1,-6
2451,124,-36,673,-4,-3,-14
2452,-3,35,715,-20,-1,2
2453,9,-65,694,3,7,0
2454,66,-31,626,-9,2,-6
2455,-74,-9,544,-15,0,-4
2456,-5,-85,811,-26,-9,-6
2457,-30,-35,898,-15,-5,-3
2458,75,-23,778,-31,-16,-10
2459,54,-48,835,28,16,-3
2460,42,-96,619,8,13,-8
2461,-23,38,637,-9,14,-12
2462,-44,87,580,-16,6,-1
2463,4,-87,732,-20,-6,-4
2464,-2,-60,858,-8,-8,-7
2465,73,-52,934,12,-8,-2
2466,27,25,696,-18,7,-9
2467,23,-31,664,-26,13,-9
2468,125,16,753,-58,10,-4
2469,-43,-67,503,-48,2,1
2470,-57,5,663,-9,-4,-8
2471,0,-61,813,-24,-10,-9
2472,-1,-46,983,2,1,-3
2473,86,-66,640,6,-2,-13
2474,51,13,789,-53,1,2
2475,-36,-86,691,-13,8,5
2476,-25,38,522,-30,-2,-1
2477,12,-17,597,-16,1,-6
2478,0,-85,765,-27,-10,-8
2479,-30,-53,868,-14,-6,-6
2480,128,-38,801,-33,-14,-14
2481,-9,-2,800,22,12,0
2482,50,-14,534,11,9,-5
2483,85,20,723,21,14,-14
2484,-24,51,481,-17,5,0
2485,2,-74,693,-24,-7,-5
2486,-2,-59,889,-5,-9,-7
2487,33,-89,921,3,-10,0
2488,15,10,651,-13,7,-10
2489,63,-35,737,-19,11,-11
2490,-6,-114,613,-60,7,-3
2491,-32,32,527,-47,-1,-3
2492,-33,-37,685,-7,-2,-9
2493,12,-67,763,-24,-11,-11
2494,-3,-53,964,-12,2,-5
2495,121,-51,676,-6,-2,-13
2496,-26,24,745,-20,2,3
2497,23,7,684,-1,8,-1
2498,33,-11,633,-1,6,-6
2499,15,47,477,-23,0,-3
2500,-6,-83,780,-32,-11,-5
2501,-25,-69,879,-8,-8,-3
2502,93,-64,851,-26,-15,-8
2503,-3,41,780,20,20,-6
2504,17,-131,554,1,10,-9
2505,46,23,628,-30,10,-11
2506,-53,-62,529,-20,6,-2
2507,-6,-89,744,-14,-6,-4
2508,-6,-53,841,-11,-9,-8
2509,36,-19,891,17,-1,-5
2510,35,-25,596,-14,4,-9
2511,44,-36,803,-59,1,0
2512,19,69,679,-16,5,3
2513,8,-26,425,-39,-1,0
2514,-25,18,620,-12,-3,-7
2515,13,-77,762,-22,-12,-8
2516,-10,-86,976,-22,-5,-4
2517,110,-35,715,-35,-9,-12
2518,-10,34,693,40,13,-2
2519,3,-132,612,-16,10,-9
2520,94,-28,584,-1,11,-9
2521,-60,-20,520,-23,-4,-5
2522,4,-89,758,-21,-10,-7
2523,-30,-58,836,-5,-5,-2
2524,85,-9,760,24,-6,-9
2525,15,-40,786,-38,14,-10
2526,52,-12,544,-46,2,-1
2527,66,17,620,-44,-1,-3
2528,-42,63,440,-40,3,-3
2529,10,-68,658,-28,-5,-7
2530,-18,-37,828,-11,-9,-9
2531,57,-91,919,-27,-3,-9
2532,48,0,585,-15,-3,-7
2533,21,-24,668,2,1,1
2534,75,-96,651,11,16,-12
2535,-27,-29,450,-12,6,-2
2536,-34,-33,595,-20,-3,-4
2537,16,-82,740,-18,-11,-9
2538,-31,-1,905,0,-5,2
2539,107,-53,599,-13,-10,-10
2540,53,-49,715,2,18,-12
2541,23,2,614,-39,10,1
2542,20,30,558,-57,0,-4
2543,2,69,435,-19,2,-6
2544,12,-82,679,-32,-12,-6
2545,-10,-68,834,-11,-7,-8
2546,105,-84,807,-27,-7,-14
2547,-29,80,747,-1,10,2
2548,38,-115,505,-15,0,-2
2549,88,10,616,29,16,-14
2550,-45,-68,517,-27,1,-1
2551,-30,-60,695,-21,-5,-3
2552,-1,-45,807,-6,-10,-9
2553,35,-41,866,-1,-7,0
2554,56,-41,565,-12,3,-10
2555,61,-20,826,-16,11,-10
2556,-30,42,642,-44,9,2
2557,7,25,438,-37,0,-3
2558,-2,-7,583,-8,0,-6
2559,7,-74,754,-18,-11,-8
2560,-29,-69,939,-6,-1,-5
2561,139,-23,767,-22,-4,-15
2562,-4,37,697,2,2,3
2563,17,-125,586,-12,6,-4
2564,87,10,681,9,9,-9
2565,-82,-12,485,-25,-1,-3
2566,1,-101,755,-22,-9,-4
2567,-21,-58,867,-11,-8,-5
2568,70,1,765,-25,-15,-5
2569,19,-25,768,12,14,-8
2570,95,-78,576,0,11,-9
2571,-15,20,630,-44,9,-9
2572,-56,80,486,-27,7,-3
2573,-11,-44,678,-20,-5,-6
2574,0,-57,795,-11,-12,-9
2575,51,-76,946,17,1,-5
2576,60,-21,616,-14,4,-11
2577,2,23,696,-51,2,-2
2578,88,-47,737,-15,6,1
2579,19,-73,480,-22,2,-1
2580,-68,10,594,-26,-6,-7
2581,-1,-74,789,-17,-11,-7
2582,-29,-12,926,-22,-3,-5
2583,94,-60,672,-37,-7,-13
2584,67,-29,798,44,9,1
2585,-10,-72,644,-8,8,-7
2586,-24,25,552,12,13,-10
2587,-16,68,537,-24,1,-3
2588,17,-105,720,-23,-7,-4
2589,-13,-49,875,-8,-7,-6
2590,99,-49,821,-14,-10,-4
2591,-15,51,801,7,15,-10
2592,50,-69,505,1,16,-8
2593,129,23,726,-40,11,-9
2594,-65,12,509,-27,6,-2
2595,-29,-30,661,-15,-6,-6
2596,7,-60,865,-13,-9,-9
2597,22,-99,939,24,-4,-1
2598,51,-26,594,-7,2,-12
2599,54,26,794,-48,5,-7
2600,-22,-142,634,-61,11,3
2601,-3,48,501,-42,2,-3
2602,-9,-38,624,-15,-2,-7
2603,1,-71,772,-20,-12,-6
2604,-29,-57,911,3,-1,-4
2605,138,-41,725,5,-2,-15
2606,-5,-38,761,-38,3,2
2607,12,9,600,-28,-1,1
2608,11,24,655,-11,4,-3
2609,14,73,445,-27,-2,-6
2610,10,-102,751,-23,-10,-5
2611,-16,-68,914,-9,-6,-8
2612,85,-75,839,-38,-8,-12
2613,-4,51,751,19,9,0
2614,44,-123,563,6,3,-5
2615,79,-7,654,32,18,-11
2616,-52,-41,554,-22,3,-1
2617,-30,-50,726,-12,-5,-5
2618,8,-64,846,-16,-8,-8
2619,22,-46,931,-24,-8,-2
2620,62,-39,635,-9,-3,-6
2621,53,-21,862,24,16,-9
2622,-34,-22,680,-25,20,-10
2623,-17,42,526,-28,7,-5
2624,-8,0,663,-2,-1,-6
2625,-3,-68,786,-21,-10,-6
2626,-22,-64,945,2,-3,-1
2627,147,-41,803,4,-7,-12
2628,-13,11,785,-27,19,-10
2629,12,-41,617,-41,10,-3
2630,71,38,775,-54,8,-6
2631,-72,-6,513,-14,2,-6
2632,-1,-95,816,-22,-10,-5
2633,-14,-59,953,-1,-6,-6
2634,45,-19,845,16,-1,-9
2635,20,-9,808,-37,8,-8
2636,58,-110,719,-52,-1,-2
2637,-45,0,659,-40,2,0
2638,-50,19,634,-32,4,-1
2639,-19,-50,821,-29,-10,-6
2640,2,-69,851,-15,-10,-8
2641,29,-27,964,-5,-2,-5
2642,52,-44,695,-13,2,-9
2643,-5,38,847,-36,-4,1
2644,-8,54,746,-25,3,4
2645,2,-38,577,-29,3,0
2646,-30,28,660,-27,-4,-6
2647,-7,-73,831,-18,-10,-9
2648,-19,-71,973,-14,-3,-5
2649,119,-58,860,-24,-7,-14
2650,-6,23,802,18,4,3
2651,-12,-84,627,0,7,-2
2652,84,10,770,30,14,-7
2653,-83,-29,572,-32,-2,-2
2654,-2,-99,849,-19,-9,-4
2655,-22,-51,946,-16,-7,-6
2656,57,-9,846,-28,-11,-9
2657,30,-13,843,21,8,-2
2658,56,-95,721,4,9,-6
2659,-47,45,695,21,19,-13
2660,-31,43,596,-26,4,-1
2661,-18,-56,810,-11,-5,-5
2662,10,-66,842,-13,-9,-8
2663,26,-55,987,-7,-7,-1
2664,80,-35,668,-10,-4,-10
2665,-2,43,786,7,16,-11
2666,69,24,769,-52,15,-6
2667,14,-102,595,-41,6,-4
2668,-74,37,615,-10,-2,-7
2669,-3,-71,830,-24,-11,-8
2670,-23,-44,972,7,-1,-3
2671,94,-56,804,9,-1,-14
2672,24,4,863,-49,5,1
2673,-12,-62,634,-35,1,2
2674,-24,4,631,-8,6,-2
2675,-27,13,640,-32,-2,-4
2676,-3,-90,793,-22,-10,-5
2677,-21,-51,905,-14,-7,-7
2678,77,-33,879,-37,-10,-10
2679,12,17,782,28,8,-2
2680,29,-26,659,9,7,-7
2681,70,37,785,-7,18,-11
2682,-45,-2,535,-9,9,-3
2683,-31,-38,713,-16,-5,-5
2684,13,-69,888,-16,-11,-9
2685,5,-36,1009,14,-2,0
2686,44,-38,695,-14,0,-12
2687,14,4,840,-37,6,-6
2688,-27,-88,728,-32,7,1
2689,-45,32,620,-38,0,2
2690,-29,-17,712,-20,-4,-7
2691,-2,-78,800,-21,-9,-6
2692,-16,-52,958,-16,-3,-6
2693,100,-40,849,-24,-7,-13
2694,-6,42,828,17,2,2
2695,-4,4,672,-4,10,-4
2696,39,-10,752,13,12,-12
2697,-20,42,563,-23,0,-3
2698,-11,-79,790,-21,-7,-5
2699,-12,-58,942,-11,-6,-6
2700,47,-38,902,7,-11,-5
2701,1,8,848,-12,9,-10
2702,40,-65,737,-4,13,-10
2703,-32,-20,670,-57,3,-6
2704,-52,-12,646,-31,3,-2
2705,-26,-60,801,-20,-11,-9
2706,2,-66,859,-14,-10,-9
2707,11,-25,994,0,1,-4
2708,65,-41,672,-4,-2,-12
2709,9,20,858,-37,-1,-2
2710,-45,25,774,-16,10,3
2711,2,0,620,-20,1,-1
2712,-10,22,611,-22,-4,-7
2713,4,-84,809,-19,-8,-7
2714,-19,-72,962,-24,-3,-4
2715,90,-39,889,-29,-11,-14
2716,-9,40,817,24,7,0
2717,-2,-103,584,7,12,-5
2718,89,-3,755,7,14,-12
2719,-83,-31,610,-13,4,-2
2720,-12,-89,815,-21,-9,-6
2721,-14,-58,920,-9,-7,-5
2722,58,-30,867,4,-10,-3
2723,25,-13,781,-12,11,-10
2724,32,-40,792,-4,17,-9
2725,-50,60,680,-61,7,-5
2726,-19,25,531,-33,5,0
2727,-24,-52,776,-12,-5,-8
2728,1,-59,827,-15,-9,-8
2729,10,-49,1015,-2,0,-6
2730,97,-29,667,-4,1,-12
2731,1,22,763,-32,-3,2
2732,24,-58,812,8,11,-1
2733,33,-60,665,-15,2,-3
2734,-74,0,610,-13,-4,-7
2735,3,-89,827,-27,-8,-6
2736,-21,-40,945,-17,-4,-3
2737,75,-15,806,-20,-15,-11
2738,23,-11,888,15,15,-7
2739,15,-61,657,-9,11,-6
2740,-13,12,661,-46,8,-7
2741,-30,61,633,-22,4,-4
2742,-10,-76,754,-14,-9,-5
2743,-6,-56,886,-7,-7,-7
2744,71,-56,925,2,-3,-11
2745,7,45,770,-10,5,-4
2746,25,-43,689,-51,-2,0
2747,78,-17,758,36,14,-5
2748,-56,-72,618,-28,3,-2
2749,-47,-31,753,-12,-3,-6
2750,-3,-50,856,-22,-8,-7
2751,-1,-19,1000,-8,-4,-1
2752,86,-46,679,-12,-9,-11
2753,23,-16,878,24,20,-9
2754,-52,7,796,-48,11,-8
2755,-39,48,598,-50,4,-1
2756,14,-10,664,-19,-2,-7
2757,3,-91,799,-20,-10,-7
2758,-20,-39,939,-12,-2,-5
2759,94,-39,889,-5,-3,-13
2760,11,51,815,-33,1,1
2761,24,-98,618,-21,2,1
2762,66,19,829,16,9,-8
2763,-91,-34,625,-30,2,-2
2764,-10,-78,806,-27,-9,-6
2765,0,-67,911,-13,-8,-7
2766,47,-34,906,-15,-13,-6
2767,12,10,757,-9,5,-8
2768,59,-46,862,20,15,-10
2769,-48,17,692,-49,12,-11
2770,-11,18,553,-29,5,-2
2771,-34,-32,783,-13,-3,-7
2772,0,-55,802,-18,-9,-8
2773,13,-55,1015,7,0,-2
2774,103,-40,720,2,1,-13
2775,1,32,781,-53,3,-3
2776,4,-35,759,-17,9,3
2777,62,-43,679,-37,-3,-2
2778,-75,-4,575,-16,1,-5
2779,2,-81,819,-27,-9,-7
2780,-36,-37,924,-17,-4,-6
2781,79,-18,812,-27,-11,-14
2782,41,-21,851,18,10,0
2783,37,-91,639,7,8,-5
2784,-21,36,652,2,15,-13
2785,-39,64,616,-16,6,-2
2786,6,-87,752,-17,-6,-4
2787,-3,-63,860,-7,-7,-5
2788,65,-47,949,8,-7,-1
2789,27,31,710,-14,8,-9
2790,21,-24,691,-29,10,-9
2791,111,27,774,-42,8,0
2792,-51,-70,525,-47,1,0
2793,-59,6,675,-11,-4,-6
2794,3,-56,822,-27,-10,-9
2795,-3,-30,991,-9,0,-6
2796,90,-55,678,-3,-4,-13
2797,35,6,807,-12,3,5
2798,-35,-62,721,-2,10,-2
2799,-30,38,540,-10,4,-7
2800,19,-15,624,-15,1,-5
2801,-3,-84,772,-26,-11,-6
2802,-32,-40,887,-6,-5,-1
2803,122,-52,832,-22,-14,-8
2804,-6,34,814,11,21,-9
2805,40,-40,543,-11,10,-9
2806,91,42,749,-39,7,-10
2807,-67,20,498,-27,4,-3
2808,2,-73,699,-14,-6,-6
2809,-7,-57,884,-13,-5,-7
2810,35,-65,890,12,2,-8
2811,22,10,623,-7,4,-6
2812,101,-44,798,-53,-1,2
2813,-54,-69,610,11,4,-1
2814,-15,59,477,-37,0,0
2815,-12,-43,666,-16,-2,-7
2816,20,-68,717,-21,-13,-9
2817,-9,-64,957,-12,-6,3
2818,145,-32,683,-33,-14,-11
2819,-27,70,705,34,21,-11
2820,40,-38,638,-42,9,-5
2821,110,1,660,-51,1,-6
2822,-42,54,440,-14,1,-5
2823,2,-74,733,-22,-9,-7
2824,-34,-39,846,-10,-1,-5
2825,83,-12,769,-26,-8,-15
2826,17,9,802,-2,5,1
2827,58,-95,595,-22,6,-2
2828,-13,22,605,8,15,-15
2829,-43,51,498,-22,4,-1
2830,5,-79,674,-21,-7,-4
2831,-5,-45,815,-3,-8,-9
2832,51,-27,940,15,2,-6
2833,40,3,634,-12,4,-9
2834,17,-17,688,-44,2,-2
2835,89,-26,747,14,12,-6
2836,-30,-62,488,-11,8,0
2837,-62,0,614,-17,-3,-5
2838,9,-79,762,-18,-10,-8
2839,-26,-7,925,-1,-7,2
2840,95,-51,663,-22,-8,-10
2841,38,-1,737,3,17,-12
2842,-23,4,672,-26,8,2
2843,-1,6,595,-51,-2,-4
2844,-9,55,508,-11,5,-5
2845,6,-94,697,-27,-9,-6
2846,-11,-65,844,-6,-5,-8
2847,96,-78,843,-36,-9,-12
2848,-40,85,772,15,11,2
2849,38,-111,506,-10,4,-5
2850,57,-7,620,-14,15,-13
2851,-48,-73,545,-38,3,-2
2852,-20,-71,712,-24,-6,-4
2853,-4,-50,791,-11,-9,-9
2854,36,-40,888,11,2,-6
2855,51,-36,537,-14,4,-8
2856,3,5,799,-42,2,1
2857,63,83,678,13,12,-8
2858,46,-83,433,-13,6,-3
2859,-4,24,519,-24,-4,-4
2860,9,-77,737,-13,-11,-8
2861,-40,-19,899,1,-4,0
2862,83,-32,735,-1,-8,-11
2863,32,31,743,-13,14,-13
2864,-4,-72,567,-17,4,2
2865,-4,-29,566,-26,3,-3
2866,-26,-12,522,-18,0,-6
2867,37,-112,684,-31,-13,-6
2868,-16,-53,838,-6,-8,-6
2869,102,-19,798,-28,-14,-6
2870,-21,89,752,12,13,-8
2871,37,-23,533,-6,7,-5
2872,165,5,714,-48,5,-2
2873,-60,19,482,-31,5,-3
2874,-20,-19,610,-19,-8,-6
2875,8,-58,819,-13,-9,-11
2876,20,-33,900,-32,-4,-5
2877,49,9,572,-13,-2,-5
2878,52,-6,833,27,8,-3
2879,-36,-29,660,-49,14,-6
2880,-17,55,485,-40,2,-5
2881,10,-25,589,-16,-4,-6
2882,0,-75,707,-24,-10,-7
2883,-28,-23,903,-12,-1,-5
2884,120,-53,811,-21,-6,-14
2885,-15,33,754,9,6,6
2886,-10,-70,558,-26,11,-6
2887,50,28,742,-15,14,-9
2888,-70,-42,531,-21,3,-5
2889,-2,-100,774,-23,-9,-3
2890,-24,-51,880,-7,-7,-6
2891,54,-12,834,2,-2,-12
2892,3,34,751,-12,5,0
2893,34,-25,715,-38,-2,-3
2894,36,11,768,17,23,-11
2895,-25,24,525,-24,4,-3
2896,-21,-41,690,-12,-5,-6
2897,12,-67,846,-16,-9,-6
2898,6,6,994,13,0,-2
2899,36,-20,711,-1,-1,-11
2900,15,-4,857,-50,-1,-4
2901,-38,-52,714,2,14,-3
2902,-50,36,618,-12,6,-3
2903,-11,-33,711,-18,-2,-7
2904,-2,-76,768,-18,-10,-5
2905,-15,-48,939,-17,-5,-1
2906,108,-47,859,-8,-12,-9
2907,-5,75,800,5,18,-9
2908,12,-2,621,-23,6,-3
2909,107,-4,797,-45,4,0
2910,-69,1,553,-25,-1,-5
2911,-9,-75,782,-23,-9,-6
2912,-19,-52,928,-8,-5,-9
2913,51,-19,857,-33,-5,-11
2914,21,10,793,11,3,0
2915,57,-62,775,-13,3,-2
2916,-60,40,661,-9,15,-13
2917,-26,27,566,-22,6,-3
2918,-13,-68,767,-14,-5,-7
2919,2,-62,814,-19,-8,-8
2920,7,-45,1019,13,-1,-1
2921,104,-21,653,-8,-3,-13
2922,9,33,780,-45,6,-6
2923,29,-9,807,-22,8,1
2924,43,-64,647,-32,0,-1
2925,-85,16,589,-18,-5,-8
2926,6,-90,797,-21,-9,-8
2927,-29,-41,943,-23,-1,-4
2928,82,-11,803,-30,-16,-11
2929,26,-2,876,21,10,-1
2930,21,-55,625,-9,10,-5
2931,-9,2,653,-26,12,-12
2932,-41,56,622,-13,5,-2
2933,-2,-81,734,-20,-9,-6
2934,0,-58,869,-2,-7,-8
2935,75,-51,924,21,0,-7
2936,4,53,746,-21,8,-6
2937,19,-42,663,-58,0,-4
2938,101,-4,727,20,9,-5
2939,-58,-75,569,-36,-1,-2
2940,-46,-27,707,-12,-4,-7
2941,-1,-51,828,-23,-9,-9
2942,1,-17,978,-19,-6,-2
2943,84,-49,635,-15,-12,-10
2944,49,-28,835,45,20,-7
2945,-58,-13,765,-41,12,-8
2946,-34,61,569,-41,6,-4
2947,18,-16,623,-14,0,-5
2948,7,-93,761,-23,-10,-5
2949,-26,-44,928,-1,-2,-2
2950,106,-38,859,17,0,-14
2951,2,55,797,-46,8,-2
2952,38,-105,561,-33,-1,1
2953,82,36,778,-13,1,-2
2954,-92,-23,553,-32,1,-3
2955,-5,-75,754,-21,-7,-6
2956,-1,-64,890,-17,-8,-8
2957,46,-37,879,-29,-9,-11
2958,11,-4,695,-5,0,-4
2959,96,-62,801,18,7,-2
2960,-54,-8,621,7,15,-13
2961,-1,37,506,-21,6,0
2962,-27,-26,733,-12,-4,-5
2963,0,-54,755,-20,-11,-8
2964,5,-65,990,7,-4,3
2965,123,-45,669,-12,-7,-12
2966,-5,40,740,-4,20,-11
2967,27,-18,690,-50,11,-4
2968,73,-26,635,-47,4,-2
2969,-61,23,489,-13,0,-6
2970,2,-86,782,-19,-10,-7
2971,-38,-53,907,-2,-1,-6
2972,81,-18,790,9,-2,-17
2973,45,2,789,-41,6,2
2974,47,-136,602,-31,0,3
2975,-24,41,605,2,3,-6
2976,-48,31,560,-29,1,-2
2977,14,-86,725,-29,-7,-7
2978,3,-66,844,-15,-8,-8
2979,64,-40,922,-29,-7,-8
2980,23,10,664,-6,0,-4
2981,15,-19,692,28,11,-4
2982,125,58,732,-2,14,-14
2983,-6,-57,458,-11,8,1
2984,-36,20,643,-7,-2,-7
2985,3,-59,816,-21,-13,-9
2986,-2,-68,1007,1,-6,2
2987,83,-65,682,-16,-8,-12
2988,14,31,773,1,19,-11
2989,-26,-98,668,-47,15,-6
2990,21,-10,534,-50,5,-3
2991,-28,-31,608,-15,1,-6
2992,-8,-82,790,-22,-10,-6
2993,-35,-39,887,-2,-3,-3
2994,90,-7,799,23,-2,-14
2995,11,-34,808,-48,7,-4
2996,10,-31,614,-58,-3,2
2997,10,25,677,-34,0,-2
2998,-30,83,523,-31,1,-3
2999,4,-89,725,-20,-6,-7
3000,-3,-59,880,-17,-9,-9
3001,63,-77,948,-11,-2,-10
3002,18,36,675,-8,-2,-7
3003,26,-47,674,-26,1,3
3004,101,-63,715,12,4,-3
3005,-50,-53,549,-34,2,1
3006,-61,-12,692,-10,-2,-6
3007,2,-64,828,-23,-11,-8
3008,0,-19,985,-25,-5,-5
3009,89,-79,669,-27,-8,-11
3010,65,-25,810,37,12,2
3011,-35,-67,723,12,8,-4
3012,-36,43,538,-4,3,-7
3013,17,6,648,-14,-1,-4
3014,4,-88,777,-28,-11,-7
3015,-27,-44,886,-11,-4,-4
3016,129,-34,817,-42,-17,-12
3017,-14,0,815,22,17,-2
3018,43,-29,544,20,10,-6
3019,55,32,738,26,14,-13
3020,-32,43,498,-19,6,1
3021,4,-82,726,-22,-9,-6
3022,-3,-57,904,-9,-8,-6
3023,42,-103,932,-33,-10,-3
3024,13,4,667,-4,3,-6
3025,27,-32,704,43,14,-9
3026,62,-114,634,21,16,-14
3027,-21,-17,531,-7,10,0
3028,-45,-26,690,-13,-4,-5
3029,5,-67,811,-17,-11,-8
3030,-2,-17,977,-18,-6,-2
3031,92,-62,670,-34,-12,-9
3032,70,-38,823,58,21,-5
3033,-34,-49,721,14,13,-9
3034,-41,45,550,10,10,-8
3035,12,21,633,-8,0,-3
3036,-1,-84,784,-25,-11,-5
3037,-30,-54,890,-4,-3,-5
3038,123,-35,814,-37,-18,-12
3039,-12,-10,823,34,17,-2
3040,49,-31,547,29,7,-3
3041,29,44,733,32,10,-9
3042,-26,40,505,-20,5,1
3043,2,-90,745,-26,-8,-4
3044,-6,-54,905,-8,-10,-8
3045,61,-117,932,-29,-3,-10
3046,25,17,666,-7,1,-5
3047,26,-32,675,7,4,2
3048,94,-92,659,18,-1,2
3049,-46,-44,526,-36,1,3
3050,-56,-21,685,-18,-3,-7
3051,8,-70,838,-26,-11,-9
3052,-3,-26,984,6,-2,-4
3053,80,-83,647,-12,-3,-15
3054,68,-12,799,-46,0,2
3055,-27,-96,710,-61,4,5
3056,-30,13,540,-55,-4,-1
3057,9,5,681,-16,1,-7
3058,-1,-88,812,-29,-8,-7
3059,-34,-38,884,-4,-4,-2
3060,101,13,821,19,-9,-12
3061,30,-60,836,-47,13,-8
3062,16,-46,605,-47,11,-7
3063,-42,58,656,-49,15,-11
3064,-46,91,574,-26,2,-2
3065,7,-92,762,-12,-12,-7
3066,-6,-58,883,-12,-4,-7
3067,77,-56,925,-23,-9,-3
3068,13,-10,699,2,5,-9
3069,24,-29,661,25,14,-10
3070,87,58,747,29,21,-15
3071,-48,-67,478,-10,11,1
3072,-49,3,699,-12,-5,-6
3073,2,-59,847,-15,-13,-9
3074,5,-88,1021,-20,-2,-5
3075,108,-88,661,-25,-6,-12
3076,-12,54,738,44,13,1
3077,16,-98,662,6,1,3
3078,64,-47,579,-19,-2,-2
3079,-69,-21,571,-18,3,-4
3080,-1,-91,843,-32,-9,-7
3081,-40,-34,901,-2,-4,-4
3082,84,-27,788,1,-5,-16
3083,60,-48,829,-24,5,2
3084,48,-134,642,-32,3,6
3085,-36,13,604,-39,-5,0
3086,-46,66,668,-27,1,-1
3087,7,-87,805,-23,-7,-7
3088,-2,-62,872,-19,-6,-8
3089,51,-2,922,22,-4,-7
3090,14,-31,722,-26,0,-8
3091,32,-22,785,-74,0,-3
3092,-36,92,706,-67,9,-4
3093,-35,-9,514,-46,0,-2
3094,-40,-6,768,-14,-6,-8
3095,-3,-55,838,-19,-9,-10
3096,8,-68,1009,3,-2,-1
3097,117,-73,737,-2,-7,-13
3098,-4,30,779,-31,12,-8
3099,14,12,759,-27,20,-14
3100,-10,-54,697,-21,14,-7
3101,-61,6,622,-11,-1,-6
3102,-1,-92,876,-20,-10,-6
3103,-34,-53,964,-8,-3,-3
3104,76,-29,900,-30,-14,-11
3105,12,31,849,28,16,-4
3106,2,-128,674,27,9,0
3107,20,23,764,28,9,-7
3108,-91,0,662,-23,6,0
3109,1,-91,876,-24,-6,-5
3110,-5,-61,935,-13,-8,-6
3111,45,-18,945,13,-3,-9
3112,6,4,796,-22,7,-5
3113,64,-33,855,-67,-1,-1
3114,-55,-43,668,-71,6,-6
3115,-61,-4,700,-41,2,0
3116,-29,-36,898,-16,-5,-9
3117,-3,-58,876,-19,-7,-8
3118,2,0,1006,-16,-6,-2
3119,84,-69,750,-12,-10,-10
3120,32,-2,886,38,20,-8
3121,-47,28,852,36,14,-5
3122,-60,5,669,1,9,-4
3123,1,-9,796,-14,-1,-4
3124,0,-94,870,-28,-9,-5
3125,-26,-42,973,-3,-5,-2
3126,90,10,873,14,-4,-15
3127,-7,-7,905,-46,9,-2
3128,3,-6,704,-58,6,-7
3129,-56,56,767,-61,14,-10
3130,-24,44,710,-19,4,-4
3131,1,-87,845,-17,-11,-7
3132,-14,-62,939,-7,-4,-7
3133,74,-18,922,-26,-6,-11
3134,11,-18,839,5,2,-4
3135,7,-14,720,-21,-1,1
3136,-46,116,783,-33,0,4
3137,-30,-39,608,-45,0,1
3138,-14,-44,850,-20,-8,-9
3139,-6,-64,879,-14,-7,-7
3140,6,-26,1025,-30,-8,-3
3141,100,-85,717,-15,-11,-9
3142,-4,21,824,53,19,-6
3143,-5,96,788,23,7,4
3144,-45,-73,686,-13,0,1
3145,-37,14,689,-25,-5,-5
3146,3,-94,863,-21,-6,-6
3147,-26,-71,987,-15,-5,-1
3148,113,-31,866,-18,-17,-10
3149,-12,16,841,14,21,-10
3150,22,-28,639,24,13,-3
3151,-35,45,788,35,6,-7
3152,-56,4,630,-30,-2,0
3153,6,-96,857,-24,-9,-5
3154,-33,-53,939,-13,-4,-5
3155,74,-53,903,2,-17,-6
3156,2,-3,832,-9,10,-10
3157,33,-53,641,10,17,-7
3158,-2,97,812,57,16,-10
3159,-81,-47,616,-26,0,2
3160,-13,-53,816,-15,-7,-6
3161,2,-65,918,-24,-7,-7
3162,23,-51,1026,0,-8,0
3163,63,-72,695,-2,-4,-13
3164,-10,27,792,-9,15,-11
3165,44,79,803,38,20,-8
3166,-60,-106,625,-4,5,-2
3167,-63,19,705,-10,-6,-6
3168,0,-79,880,-25,-9,-8
3169,-32,-68,991,-10,-4,1
3170,133,-65,838,-1,-11,-12
3171,-24,10,806,-14,21,-10
3172,22,-8,643,11,15,-6
3173,-14,19,790,28,12,-12
3174,-62,8,564,-26,-5,-1
3175,13,-114,874,-22,-9,-6
3176,-33,-67,942,-17,-7,-3
3177,79,-49,874,12,-14,-5
3178,-7,22,817,-21,13,-11
3179,53,-101,571,-17,11,-7
3180,29,77,786,49,20,-17
3181,-95,-32,597,-22,0,1
3182,-9,-56,805,-15,-7,-7
3183,-3,-65,911,-14,-8,-8
3184,39,-84,983,8,-5,-1
3185,56,-63,662,-4,4,-13
3186,-7,24,736,-59,7,-5
3187,68,32,787,-13,26,-16
3188,-63,-93,535,-4,7,-7
3189,-51,0,673,-14,-4,-6
3190,0,-75,904,-19,-9,-8
3191,-36,-78,991,2,-1,0
3192,153,-89,749,17,0,-16
3193,-14,43,711,-60,4,2
3194,38,-95,611,-68,12,-5
3195,26,-1,715,-42,12,-11
3196,-102,13,504,-15,2,-6
3197,17,-114,848,-18,-10,-5
3198,-32,-100,901,2,-3,-5
3199,82,-65,793,-21,-5,-15
3200,-13,56,727,6,9,3
3201,50,-137,532,-25,-4,4
3202,81,17,621,-49,0,0
3203,-86,-62,517,-43,5,-1
3204,-11,-76,793,-22,-9,-9
3205,-15,-50,864,-8,-10,-11
3206,25,-106,879,-26,-11,0
3207,75,-68,573,-4,2,-10
3208,40,36,746,32,16,-13
3209,16,-128,588,37,13,-7
3210,-6,4,491,-1,7,-1
3211,-34,-35,666,-17,-6,-7
3212,11,-88,831,-22,-12,-8
3213,-24,-24,927,2,0,-3
3214,94,-61,625,7,-1,-15
3215,96,-35,762,-58,1,1
3216,3,-99,673,-79,6,-2
3217,-21,-9,550,-55,7,-6
3218,-11,42,666,-16,5,-6
3219,8,-90,808,-21,-7,-8
3220,-26,-57,850,-5,-5,-5
3221,93,30,806,-38,-20,-9
3222,45,-66,835,33,19,-3
3223,61,-86,583,31,9,-5
3224,-31,62,622,52,15,-9
3225,-47,57,610,-24,3,1
3226,0,-84,802,-27,-10,-5
3227,-7,-49,850,-10,-10,-8
3228,65,0,896,15,0,-5
3229,46,-78,649,-17,5,-10
3230,32,-24,731,-68,1,-1
3231,-35,133,708,-69,15,-11
3232,-48,-11,460,-28,4,-4
3233,-28,7,717,-9,0,-7
3234,11,-77,813,-12,-5,-7
3235,0,-86,976,-18,-1,-1
3236,129,-65,710,-35,-13,-13
3237,-33,32,687,65,17,-4
3238,53,14,641,14,4,5
3239,-20,-33,652,-16,-2,-2
3240,-3,66,523,-25,1,-4
3241,5,-89,816,-34,-13,-8
3242,-36,-100,918,-3,-7,0
3243,132,-71,818,20,-8,-11
3244,-8,29,747,-48,16,-7
3245,64,-130,500,-48,9,-9
3246,55,99,710,-26,16,-15
3247,-84,-30,490,-12,4,-2
3248,7,-95,774,-20,-7,-6
3249,-14,-50,900,3,-2,-7
3250,44,-116,877,-38,-4,-8
3251,32,-11,634,2,-2,-7
3252,30,-12,678,31,5,1
3253,84,-105,604,3,-2,4
3254,-46,-40,507,-45,1,3
3255,-50,-19,687,-20,-1,-7
3256,7,-70,832,-30,-12,-9
3257,-8,-43,963,15,-3,1
3258,91,-95,600,-3,-5,-15
3259,61,0,775,-68,7,-3
3260,-18,-90,672,-61,17,-8
3261,-5,-6,528,-43,8,-7
3262,-3,5,670,-11,-3,-6
3263,-1,-86,816,-17,-10,-7
3264,-40,-35,861,-11,-3,-2
3265,93,27,773,-32,-18,-10
3266,66,-95,817,30,19,-6
3267,48,-97,572,25,9,-6
3268,-29,62,593,36,13,-15
3269,-49,97,604,-21,5,0
3270,16,-86,756,-19,-11,-6
3271,-7,-63,858,-4,-10,-7
3272,86,-30,898,-22,-1,-10
3273,5,-32,678,2,4,-4
3274,18,-36,649,-4,3,4
3275,55,71,709,-1,-2,4
3276,-28,-40,444,-46,-3,3
3277,-25,15,696,-21,-3,-7
3278,3,-60,825,-31,-10,-8
3279,3,-117,1008,13,-3,-2
3280,140,-72,649,3,-1,-16
3281,-14,49,686,-61,2,0
3282,49,-55,655,-74,12,-3
3283,35,-51,597,-60,0,-3
3284,-75,0,511,-17,-3,-6
3285,2,-93,824,-22,-9,-7
3286,-46,-73,910,-9,-3,-1
3287,86,-46,759,5,-13,-11
3288,52,-9,761,-18,18,-11
3289,36,-156,586,-22,9,-11
3290,49,6,559,-8,21,-16
3291,-61,15,565,-12,7,-3
3292,13,-91,777,-20,-12,-7
3293,-4,-74,837,-3,-7,-6
3294,43,12,850,-30,-10,-1
3295,34,-79,637,1,6,-6
3296,155,-96,732,35,12,-7
3297,-47,42,554,24,17,-13
3298,-9,27,429,-12,9,0
3299,-30,-3,692,-6,-3,-5
3300,7,-59,744,-18,-11,-7
3301,30,-101,943,-22,-1,-1
3302,139,-68,614,-29,-9,-11
3303,-23,25,686,60,20,-5
3304,54,-16,601,27,8,-6
3305,48,-15,572,-4,5,-5
3306,0,75,428,2,2,-4
3307,16,-99,740,-29,-10,-5
3308,-49,-110,899,-9,-2,-3
3309,114,-56,729,-41,-18,-12
3310,38,41,686,30,17,0
3311,48,-217,503,28,9,-4
3312,93,40,524,24,13,-15
3313,-74,-32,451,-19,7,1
3314,6,-87,703,-22,-6,-5
3315,0,-73,811,-5,-4,-6
3316,45,2,800,-20,-12,-2
3317,34,-92,564,-3,1,-10
3318,165,-86,716,38,14,-10
3319,-3,46,523,-14,21,-17
3320,-6,27,357,2,12,-1
3321,-27,10,607,-8,-3,-6
3322,8,-60,704,-29,-12,-8
3323,22,-132,943,16,-2,4
3324,162,-40,590,-15,-8,-12
3325,-23,48,633,-17,17,-11
3326,30,-91,559,-60,15,-5
3327,108,-22,513,-59,-1,-3
3328,-23,11,422,-10,0,-7
3329,13,-85,698,-22,-11,-6
3330,-53,-36,817,-11,2,-4
3331,108,15,661,-1,-4,-17
3332,82,-41,688,-31,4,7
3333,112,-156,552,-12,1,3
3334,16,8,484,34,9,-13
3335,-84,113,453,-24,3,1
3336,44,-97,572,-24,-6,-6
3337,8,-63,772,-10,-8,-8
3338,101,-44,875,0,-10,2
3339,-2,45,575,-17,8,-11
3340,9,-66,552,-10,12,-13
3341,156,-8,617,-59,3,2
3342,0,-44,424,-56,-6,-1
3343,-17,13,545,-10,-3,-9
3344,10,-53,671,-18,-7,-8
3345,-15,21,873,-21,0,-2
3346,115,-68,512,-31,-14,-12
3347,84,4,696,45,10,2
3348,0,-40,659,-42,11,-9
3349,0,49,420,-19,8,-9
3350,39,39,427,-7,2,-5
3351,17,-83,611,-22,-10,-6
3352,-27,-46,766,-3,-3,-4
3353,119,-78,764,10,-2,-17
3354,-38,103,694,-50,8,2
3355,27,-139,387,-28,0,-2
3356,61,55,591,33,15,-21
3357,-31,-71,426,-8,8,0
3358,21,-79,609,-29,-6,-5
3359,-7,-27,713,-4,-9,-9
3360,43,0,789,17,-2,-7
3361,65,-24,435,-29,4,-8
3362,16,-31,731,-54,2,-5
3363,123,122,599,47,19,-15
3364,41,-85,333,-2,8,-1
3365,-1,47,443,-11,-2,-5
3366,28,-59,597,-18,-12,-8
3367,-47,26,813,-2,1,-2
3368,58,-49,641,-10,-5,-15
3369,56,74,626,-41,3,4
3370,3,-18,564,-67,12,-9
3371,38,-47,442,-25,8,-14
3372,-9,81,386,-13,3,-4
3373,43,-86,539,-21,-7,-4
3374,-26,-4,642,-2,-2,-4
3375,17,-66,771,-39,-12,-12
3376,-88,155,706,53,11,-6
3377,66,-88,358,12,-9,-8
3378,-94,-10,545,51,13,-1
3379,-8,-71,449,-31,0,2
3380,31,-80,587,-35,-11,-5
3381,3,-33,645,1,-9,-10
3382,-24,76,793,-13,7,-4
3383,-17,4,502,-1,-5,-6
3384,-10,-13,652,26,-5,2
3385,-132,67,499,-32,3,7
3386,-81,-38,475,-26,2,2
3387,52,-62,622,-19,-6,-5
3388,35,-81,565,-18,-14,-6
3389,-64,69,726,-11,5,1
3390,56,-29,764,-39,-6,-16
3391,-51,27,631,54,21,-6
3392,-18,87,398,2,4,-5
3393,-67,-12,666,11,16,-11
3394,-49,-59,554,-13,1,-2
3395,29,-109,661,-22,-9,-4
3396,-23,-40,727,-5,-3,-5
3397,35,34,736,29,-12,-3
3398,-48,6,727,-35,4,1
3399,63,-43,594,-61,-8,-1
3400,-57,30,647,-15,6,-3
3401,-94,31,547,-53,-2,4
3402,-6,-77,676,-11,-7,-9
3403,9,-61,647,-24,-8,-10
3404,-20,30,926,-42,3,-5
3405,98,-85,613,-21,-6,-16
3406,-22,1,812,22,21,-12
3407,-53,29,683,-20,18,-14
3408,17,-89,649,-14,17,-6
3409,-73,22,560,-7,0,-7
3410,18,-105,621,-24,-16,-6
3411,-51,-44,753,8,1,-1
3412,105,-21,794,30,0,-18
3413,-35,96,747,30,10,4
3414,51,-27,505,5,-2,3
3415,-3,-28,889,24,12,-10
3416,-118,-8,573,-29,5,4
3417,9,-84,620,-38,-8,-6
3418,-7,-46,782,2,-8,-7
3419,37,-16,914,23,-5,0
3420,12,-40,580,-8,0,-2
3421,16,21,694,-9,-5,4
3422,-85,80,689,9,7,-2
3423,-123,-77,529,-17,1,0
3424,-32,-33,770,-16,-2,-6
3425,26,-84,623,-18,-9,-8
3426,-51,16,872,18,3,3
3427,133,-62,823,12,-5,-17
3428,-41,14,782,44,11,3
3429,-21,13,629,9,13,-3
3430,-23,-83,765,30,16,-12
3431,-111,38,547,-28,-6,-1
3432,28,-125,645,-20,-8,-5
3433,-41,-51,755,-6,-1,-6
3434,67,-16,795,-14,0,-15
3435,-35,40,768,21,24,-12
3436,69,-32,538,4,9,-12
3437,-89,3,790,-42,16,-11
3438,-134,-81,658,-11,11,0
3439,-23,-40,684,-9,-6,-9
3440,17,-64,720,-19,-8,-8
3441,-15,31,1035,-20,-4,1
3442,90,-89,615,-52,-16,-8
3443,-11,16,823,-49,3,2
3444,-49,90,714,-26,2,3
3445,-65,-84,630,-47,-6,0
3446,-57,-13,732,-10,0,-6
3447,27,-102,603,-26,-7,-9
3448,-46,-38,780,-12,3,-2
3449,101,-16,846,31,-1,-21
3450,-39,70,800,21,22,-6
3451,41,-53,521,-7,11,-10
3452,-82,-43,877,-11,16,-13
3453,-117,-17,660,-19,5,-1
3454,11,-90,677,-7,-8,-7
3455,-12,-35,770,-2,-8,-6
3456,37,14,980,-16,-9,3
3457,19,-54,698,-5,-3,-2
3458,7,1,844,-11,-5,3
3459,-37,50,763,17,10,-3
3460,-94,-72,568,-9,6,0
3461,-44,-29,777,-36,-4,-5
3462,13,-77,631,-17,-13,-9
3463,-56,-6,874,-21,-1,-2
3464,131,-70,834,-64,-11,-16
3465,-20,59,760,-31,17,-6
3466,-20,11,577,-59,-10,1
3467,-77,-74,833,-44,-1,-3
3468,-109,23,643,-14,4,-5
3469,24,-111,698,-32,-11,-7
3470,-31,-45,857,5,-4,-7
3471,57,21,820,-13,-3,-15
3472,-17,-10,873,9,23,-11
3473,31,-44,748,8,11,-13
3474,-13,3,777,-69,8,-9
3475,-74,-60,630,-12,10,1
3476,-26,-32,710,-9,-6,-11
3477,12,-54,674,-19,-8,-8
3478,-10,4,1017,14,5,-1
3479,89,-95,676,9,-2,-15
3480,-39,34,808,52,22,-5
3481,-47,83,729,-30,17,-12
3482,-44,-96,582,-21,10,-8
3483,-44,7,834,-7,1,-6
3484,28,-104,661,-25,-13,-7
3485,-47,-34,757,1,-2,0
3486,107,-19,853,24,-2,-16
3487,-50,73,861,39,22,-2
3488,45,-80,562,8,13,-8
3489,-44,-56,869,-11,16,-16
3490,-129,-20,675,-23,6,0
3491,3,-78,702,-8,-4,-7
3492,-10,-35,735,2,-6,-8
3493,21,25,950,1,4,-2
3494,54,-94,721,18,8,-15
3495,-13,37,879,37,18,-9
3496,-10,29,809,-49,20,-5
3497,-20,-118,675,-30,4,-4
3498,-72,28,675,6,0,-7
3499,18,-88,635,-19,-10,-8
3500,-60,-11,872,-6,2,-2
3501,113,-40,894,-31,-9,-18
3502,-52,27,900,-16,27,-10
3503,-1,-3,564,-38,-7,-6
3504,-37,-15,699,-45,-4,-2
3505,-70,9,778,-25,5,-2
3506,21,-95,703,-16,-10,-9
3507,-19,-45,805,-8,-4,-5
3508,52,-22,916,-32,-15,-7
3509,-14,-5,736,-33,-2,-6
3510,31,-12,682,-47,-2,1
3511,-61,0,744,18,2,-6
3512,-87,-75,628,-41,1,3
3513,-33,-7,866,-10,-2,-10
3514,15,-59,632,-33,-13,-11
3515,-34,-2,964,11,-1,5
3516,133,-63,786,-10,-10,-14
3517,-41,55,811,24,7,8
3518,1,-53,744,-8,14,-6
3519,8,-104,894,22,15,-14
3520,-109,51,648,-24,-2,0
3521,32,-108,683,-20,-10,-6
3522,-38,-43,824,0,-2,-3
3523,80,11,859,5,-3,-13
3524,-22,5,942,26,18,-11
3525,40,-65,739,7,12,-8
3526,-26,16,847,-62,7,-6
3527,-88,-24,681,-13,7,-2
3528,-21,-39,715,-12,-8,-8
3529,13,-63,725,-16,-6,-9
3530,-8,17,1016,-23,-2,-5
3531,84,-91,680,-46,-8,-12
3532,-35,25,891,-49,4,-5
3533,-53,102,770,0,8,1
3534,-44,-95,636,-43,-5,-1
3535,-39,13,814,-15,-3,-6
3536,32,-105,632,-23,-11,-10
3537,-52,-33,849,-15,0,4
3538,99,-24,921,35,-9,-15
3539,-58,44,892,13,10,6
3540,17,-51,503,-11,7,-2
3541,-64,-1,666,3,18,-17
3542,-74,-9,760,-25,3,2
3543,17,-93,788,-24,-8,-8
3544,-13,-40,739,-3,-8,-7
3545,47,-8,954,-39,-5,-6
3546,17,-59,677,-34,5,-15
3547,0,51,716,-32,9,-7
3548,-63,1,820,-32,-3,3
3549,-62,-111,654,-37,-3,1
3550,-67,8,803,-23,-3,-8
3551,19,-84,673,-21,-13,-12
3552,-66,-14,874,11,3,2
3553,134,-45,835,10,-5,-17
3554,-33,58,903,39,14,1
3555,1,-50,576,-19,12,-7
3556,-12,-90,942,-41,18,-15
3557,-109,32,700,12,6,-4
3558,28,-104,653,-34,-12,-8
3559,-27,-47,843,-16,-3,-4
3560,63,7,874,-25,-15,-7
3561,-26,-8,816,-54,-2,-1
3562,39,-55,850,-47,-1,-1
3563,9,-33,841,43,12,-8
3564,-68,-84,673,-40,-1,4
3565,-44,-4,757,-2,-5,-10
3566,20,-56,623,-32,-12,-10
3567,-35,12,1015,-12,4,-1
3568,129,-72,763,-19,-6,-23
3569,-54,8,887,-23,21,-11
3570,-19,-59,822,-4,2,4
3571,46,-80,883,-68,-8,-3
3572,-101,60,649,-14,3,-3
3573,35,-113,649,-27,-15,-9
3574,-43,-38,795,-4,-4,-2
3575,87,12,874,20,0,-13
3576,-34,5,960,17,20,-10
3577,45,-74,775,3,8,-6
3578,-18,10,890,-67,4,-4
3579,-90,-25,678,-34,6,-1
3580,-21,-37,745,-12,-7,-9
3581,16,-63,736,-19,-8,-9
3582,-13,32,1016,17,3,3
3583,91,-90,715,13,-3,-13
3584,-26,16,963,52,18,-3
3585,-51,59,843,-69,12,-8
3586,-7,-106,772,-37,7,-3
3587,-66,32,752,4,0,-7
3588,26,-101,670,-29,-10,-8
3589,-54,-25,858,-7,-1,2
3590,100,1,928,12,-14,-13
3591,-43,29,1010,4,9,8
3592,30,-67,681,-15,6,-4
3593,-57,3,810,6,20,-17
3594,-94,-2,751,-12,5,2
3595,7,-85,800,-21,-6,-6
3596,-10,-37,771,-5,-7,-7
3597,26,15,1026,-34,-10,-4
3598,36,-73,785,-46,-5,-8
3599,-12,32,912,-41,-3,0
3600,-19,70,809,11,15,-6
3601,-56,-119,615,-9,2,-3
3602,-49,14,868,-20,-4,-5
3603,14,-85,732,-14,-9,-9
3604,-54,-3,924,-9,0,-1
3605,108,-39,958,-19,-6,-19
3606,-42,20,987,-10,23,-11
3607,-8,-5,556,-35,-4,-3
3608,-34,-35,707,-31,0,-2
3609,-72,19,822,-25,4,-3
3610,18,-91,783,-24,-12,-8
3611,-21,-44,866,-4,-3,-6
3612,52,-18,1001,11,-8,-6
3613,-9,-17,834,19,7,-1
3614,23,-8,753,20,7,-3
3615,-43,30,745,-38,20,-14
3616,-83,-78,657,-1,7,0
3617,-39,-11,952,-12,-2,-6
3618,16,-59,712,-13,-10,-9
3619,-32,-16,1011,-18,-1,0
3620,125,-63,853,-39,-10,-19
3621,-25,63,814,-45,13,-8
3622,-18,9,723,-22,-2,2
3623,-52,-103,858,-47,-5,-4
3624,-100,31,789,-19,1,-4
3625,24,-104,803,-29,-12,-9
3626,-39,-43,871,-3,-6,-4
3627,80,-1,902,3,-9,-7
3628,-14,39,953,2,6,3
3629,43,-52,735,-6,0,-2
3630,-32,-8,917,29,28,-11
3631,-91,-34,798,-19,3,-3
3632,-25,-41,822,-7,-4,-8
3633,11,-59,810,-18,-7,-7
3634,-4,21,1060,0,-1,-1
3635,82,-66,777,9,2,-13
3636,-12,23,986,25,20,-5
3637,-50,47,861,-44,14,-11
3638,-22,-91,798,-33,5,-4
3639,-70,13,821,-7,0,-6
3640,18,-92,722,-23,-11,-8
3641,-39,-35,929,-7,1,-1
3642,87,-14,968,-12,-7,-16
3643,-28,18,943,-22,17,-9
3644,30,-45,625,-40,3,-6
3645,-57,18,727,-50,-5,-6
3646,-79,-8,827,-36,3,-3
3647,1,-86,877,-16,-6,-8
3648,-12,-45,820,-15,-8,-7
3649,47,-11,1000,-22,-8,-6
3650,27,-43,757,-31,0,-15
3651,6,52,820,-50,3,-5
3652,-45,17,897,-49,-3,0
3653,-62,-97,757,-43,-2,0
3654,-66,-9,859,-11,-3,-8
3655,13,-77,806,-23,-12,-9
3656,-40,-9,958,-9,-3,-3
3657,111,-32,925,-32,-9,-16
3658,-21,37,977,-43,11,-7
3659,-11,-1,699,-46,-6,-4
3660,-18,-55,936,-51,-3,-2
3661,-76,17,792,-26,2,-6
3662,9,-98,787,-29,-13,-7
3663,-24,-44,906,-6,-5,-5
3664,45,-7,980,-21,-8,-12
3665,-11,-10,882,-17,9,-9
3666,38,-20,847,-30,5,-10
3667,-38,58,735,-61,4,-8
3668,-78,-67,781,-34,3,0
3669,-40,-32,979,-17,-6,-8
3670,4,-58,798,-16,-10,-9
3671,-11,-16,1045,-1,0,-3
3672,99,-50,860,9,-1,-13
3673,-10,57,910,37,18,-2
3674,-24,25,910,4,20,-8
3675,-36,-76,905,5,18,-8
3676,-76,9,838,-11,3,-2
3677,1,-89,872,-23,-9,-6
3678,-25,-34,934,-6,-5,-4
3679,76,-13,1016,-16,-11,-11
3680,-9,11,961,-34,6,-7
3681,25,-20,758,-51,-3,-1
3682,-34,23,871,-58,-6,-6
3683,-99,-27,920,-31,5,-4
3684,-22,-70,981,-26,-4,-7
3685,-9,-48,903,-13,-9,-8
3686,27,-10,1011,8,-4,-4
3687,51,-33,917,0,0,-8
3688,6,45,1012,-3,3,-3
3689,-23,20,915,-33,2,1
3690,-61,-77,876,-34,-1,-1
3691,-62,-13,915,-20,-6,-7
3692,-5,-72,895,-21,-10,-7
3693,-18,-34,1013,0,-3,-4
3694,82,-33,977,5,-5,-11
3695,9,39,986,-11,1,0
3696,-12,16,867,-43,0,-4
3697,-39,-22,1011,-56,2,-4
3698,-83,-5,912,-24,1,-4
3699,-4,-81,984,-22,-11,-7
3700,-15,-51,976,-11,-6,-7
3701,54,-12,1022,-27,-10,-10
3702,6,-7,965,-20,4,-7
3703,31,7,962,-13,8,-5
3704,-40,40,942,21,14,-6
3705,-84,-44,922,-16,8,0
3706,-40,-47,1021,-16,-3,-7
3707,0,-59,945,-17,-10,-7
3708,17,-13,1074,-7,-8,-1
3709,58,-44,893,-19,-7,-10
3710,8,30,1012,-24,8,-5
3711,-27,60,988,5,18,-6
3712,-51,-57,914,-2,8,-7
3713,-71,-19,980,-13,1,-3
3714,-6,-77,952,-22,-9,-6
3715,-19,-34,981,-13,-5,-3
3716,73,-11,1023,-17,-13,-11
3717,10,15,976,-10,11,-8
3718,12,-9,859,-4,10,-5
3719,-52,25,1000,6,6,-5
3720,-96,-22,920,-33,3,0
3721,-18,-76,980,-19,-6,-7
3722,-9,-55,954,-16,-9,-7
3723,44,-15,1048,-1,-2,-7
3724,29,-16,842,-10,2,-8
3725,28,21,968,-29,2,0
3726,-38,19,974,-37,17,-11
3727,-78,-54,816,-24,4,-5
3728,-59,-25,899,-14,-1,-7
3729,4,-73,928,-12,-7,-9
3730,-13,-27,1042,-15,-4,-3
3731,99,-34,891,-21,-7,-11
3732,-4,66,907,32,10,-2
3733,-26,-15,892,-49,5,-2
3734,-21,-47,889,-60,-1,-4
3735,-82,10,725,-23,0,-6
3736,-2,-86,894,-21,-11,-6
3737,-22,-51,929,-13,-8,-6
3738,76,-8,964,-25,-11,-11
3739,-6,20,988,13,13,-5
3740,24,-34,766,-9,7,-5
3741,-46,20,848,-48,-2,-1
3742,-73,1,771,-41,3,0
3743,-29,-59,892,-19,-7,-7
3744,-3,-52,890,-18,-11,-10
3745,34,-14,1022,-26,-8,-7
3746,30,-35,778,-9,0,-7
3747,2,42,894,28,13,-6
3748,-31,7,888,-58,8,-3
3749,-57,-63,774,-48,0,-2
3750,-62,-25,823,-11,0,-7
3751,0,-68,885,-23,-9,-7
3752,-22,-18,999,-9,-4,-6
3753,98,-53,852,-23,-5,-14
3754,-1,66,860,7,4,4
3755,-32,-12,793,-28,12,-7
3756,18,-33,801,-10,13,-12
3757,-49,39,606,-24,0,-6
3758,5,-100,821,-18,-8,-6
3759,-20,-53,941,-6,-5,-4
3760,51,10,908,23,-4,-7
3761,-1,11,908,-36,10,-8
3762,33,-80,699,-48,1,-1
3763,-51,17,720,20,13,-4
3764,-60,2,673,-29,2,1
3765,-18,-60,811,-26,-9,-7
3766,10,-65,831,-8,-7,-9
3767,27,-40,992,-36,-6,-4
3768,62,-19,643,-11,-5,-8
3769,2,54,786,34,12,-11
3770,69,49,760,-60,12,-4
3771,53,-109,592,-40,3,-3
3772,-65,53,571,-12,-1,-7
3773,3,-74,785,-22,-12,-8
3774,-32,-29,923,3,1,-7
3775,102,-46,755,-11,-6,-17
3776,26,30,835,-15,2,6
3777,0,-43,605,-12,8,-5
3778,-8,-3,579,13,14,-10
3779,-31,30,527,-22,-2,-2
3780,20,-96,689,-19,-7,-4
3781,-19,-36,854,-10,-6,-5
3782,91,-36,840,24,-7,-5
3783,-23,67,738,-32,13,-6
3784,50,-66,568,-45,3,-4
3785,103,8,699,28,14,-3
3786,-63,-25,537,-34,-2,2
3787,-28,-36,627,-14,-6,-7
3788,15,-67,788,-14,-9,-9
3789,-4,-7,926,-9,-5,3
3790,69,-7,515,-13,-6,-12
3791,46,-11,806,14,15,-13
3792,-32,21,720,-33,7,1
3793,-5,38,531,-41,2,2
3794,10,7,496,-17,-5,-8
3795,14,-89,682,-18,-11,-7
3796,-31,-50,868,-22,-3,-2
3797,100,-40,831,-32,-13,-11
3798,-23,57,749,32,10,-3
3799,-6,-120,467,-22,8,-5
3800,44,13,643,-39,9,-8
3801,-65,-59,530,-16,3,-4
3802,2,-84,691,-25,-10,-6
3803,-19,-59,819,-8,-5,-8
3804,89,-19,819,-21,-2,-14
3805,1,22,636,3,1,-1
3806,19,-5,659,-19,2,-2
3807,152,69,673,-9,17,-17
3808,-4,-47,410,-22,7,-1
3809,-2,-4,574,-14,-2,-7
3810,5,-50,746,-22,-11,-9
3811,-12,15,917,-5,3,-7
3812,73,-25,542,-6,-4,-12
3813,72,0,764,-27,-1,6
3814,-55,-14,679,-22,19,-9
3815,-22,53,461,-24,8,-8
3816,32,-17,490,-6,-1,-6
3817,25,-102,623,-24,-10,-7
3818,-31,-17,810,-2,1,-6
3819,84,-42,792,-5,-5,-19
3820,-25,83,719,-26,4,6
3821,20,-109,432,-34,7,-2
3822,0,45,701,-36,9,-13
3823,-78,-56,515,-19,5,-2
3824,8,-87,658,-16,-8,-6
3825,4,-59,770,-16,-7,-7
3826,53,-25,855,-30,-2,-8
3827,9,69,553,-1,-2,-4
3828,22,-2,718,2,4,0
3829,115,89,702,-56,4,-4
3830,-1,-89,453,-44,-2,0
3831,-29,28,565,-8,-2,-7
3832,7,-46,695,-22,-8,-9
3833,-18,14,890,-19,-2,2
3834,106,-56,591,-27,-13,-11
3835,-2,54,737,40,21,-9
3836,-39,56,714,-17,3,1
3837,6,-12,529,-45,-4,-3
3838,16,17,488,-9,5,-6
3839,8,-90,639,-23,-11,-7
3840,-37,6,762,-4,-5,-2
3841,54,-27,845,19,-8,-9
3842,-31,78,795,-33,16,-7
3843,48,-50,515,-16,7,-6
3844,-48,22,663,33,17,-13
3845,-40,-40,529,-24,4,1
3846,19,-98,669,-27,-7,-5
3847,-2,-43,757,-8,-9,-9
3848,26,31,905,-7,3,-10
3849,19,2,581,-12,-1,-9
3850,20,-27,691,-14,1,0
3851,-42,5,687,-62,10,-4
3852,-98,-36,549,-42,1,-2
3853,-35,-40,648,-10,-2,-7
3854,22,-80,665,-23,-12,-9
3855,-29,-3,929,-13,-4,1
3856,126,-25,713,-26,-9,-11
3857,-25,95,706,11,19,-12
3858,15,44,675,12,5,-2
3859,61,1,767,3,5,-6
3860,-80,8,483,-26,-1,-4
3861,10,-85,718,-20,-10,-6
3862,-21,-52,819,3,-4,-5
3863,71,-21,796,12,1,-12
3864,-31,110,747,-29,10,-1
3865,42,-10,607,-43,0,-2
3866,86,-49,766,-29,17,-14
3867,-39,19,525,-23,6,-4
3868,-18,-37,614,-17,-3,-6
3869,7,-53,814,-12,-9,-9
3870,15,3,897,-35,-3,-6
3871,43,14,599,-12,-3,-8
3872,23,10,878,31,10,-7
3873,-34,31,684,-23,4,5
3874,-35,24,513,-34,-1,0
3875,13,-30,592,-20,-5,-8
3876,5,-78,662,-21,-9,-8
3877,-41,23,859,12,2,0
3878,82,-26,857,6,-8,-13
3879,-21,27,804,-39,12,-2
3880,-3,40,531,-31,7,-7
3881,-24,-10,665,1,17,-12
3882,-45,-20,563,-9,4,-6
3883,20,-107,684,-26,-11,-5
3884,-19,-34,803,-12,-7,-6
3885,44,19,828,-37,-8,-9
3886,-41,53,723,9,12,-4
3887,55,-65,575,10,5,-5
3888,-92,47,648,24,5,0
3889,-97,-22,636,-48,-5,4
3890,-3,-96,714,-10,-5,-7
3891,14,-66,715,-18,-8,-9
3892,-2,20,995,1,3,-6
3893,89,-29,553,4,-4,-11
3894,-6,30,735,-13,0,3
3895,-75,44,672,-72,3,0
3896,-102,-52,652,-61,-4,0
3897,-56,-32,621,-10,-2,-8
3898,23,-98,645,-15,-11,-9
3899,-34,-31,868,-4,0,-1
3900,92,-29,862,15,-8,-15
3901,-22,103,730,-42,8,4
3902,18,1,460,-56,2,-4
3903,-91,16,801,-59,4,-10
3904,-106,-56,583,-26,2,-3
3905,2,-79,679,-17,-7,-8
3906,0,-58,786,-5,-6,-8
3907,43,-26,922,17,-8,-2
3908,-5,44,602,-24,3,-5
3909,26,-3,700,-57,0,-2
3910,-77,73,652,-61,9,-7
3911,-114,-91,590,-40,1,-1
3912,-48,-32,696,-4,-1,-8
3913,13,-59,630,-24,-10,-9
3914,-14,-8,967,13,1,3
3915,105,-64,660,-9,-11,-13
3916,-27,81,705,-46,0,4
3917,-69,54,575,-66,3,4
3918,-84,-33,691,-69,-11,-5
3919,-92,-64,581,-12,4,-7
3920,12,-93,666,-32,-9,-9
3921,-32,-31,762,-5,-3,-7
3922,90,-32,860,4,-2,-18
3923,-57,116,733,25,9,1
3924,32,-3,408,1,-6,0
3925,-88,45,665,49,15,-8
3926,-102,-75,636,-40,-3,4
3927,-1,-94,711,-28,-10,-3
3928,-1,-40,704,8,-6,-8
3929,15,41,876,-24,-5,5
3930,27,-73,591,-39,1,-8
3931,10,10,764,-65,0,-4
3932,-31,88,588,-85,-3,3
3933,-93,-43,507,-50,3,-2
3934,-1,-37,668,-12,1,-10
3935,18,-89,583,-29,-14,-9
3936,-69,-4,741,-14,-2,0
3937,129,-58,734,-58,-14,-16
3938,-56,49,753,-24,30,-10
3939,10,-10,496,-64,0,-5
3940,85,-104,807,-70,4,-4
3941,-89,54,469,-12,7,-5
3942,27,-98,542,-27,-10,-6
3943,-29,-51,779,-2,-3,-3
3944,53,-13,774,-24,-15,-5
3945,-28,3,653,-53,2,0
3946,29,-12,562,-62,-4,0
3947,-124,28,597,-1,0,0
3948,-130,-91,569,-55,-4,4
3949,-15,-38,778,-3,-4,-9
3950,15,-56,594,-24,-7,-10
3951,-35,33,946,15,8,1
3952,140,-108,644,21,-6,-20
3953,-65,15,741,65,22,-6
3954,-24,5,720,-9,21,-14
3955,48,-120,674,3,15,-10
3956,-95,52,532,-10,-1,-3
3957,30,-109,570,-12,-13,-7
3958,-52,-36,690,0,-3,4
3959,101,-30,825,6,-14,-10
3960,-80,63,767,4,4,9
3961,15,-20,378,-21,-10,0
3962,-62,3,639,82,29,-22
3963,-119,-39,652,-22,2,2
3964,23,-84,778,-29,-8,-5
3965,-7,-41,664,10,-6,-8
3966,3,17,875,-10,-3,5
3967,66,-101,536,3,-12,-4
3968,-18,65,624,44,-1,0
3969,-46,-41,744,-25,35,-13
3970,-87,-181,638,-31,7,-12
3971,-79,62,571,4,-5,-10
3972,40,-92,477,-17,-7,-8
3973,-97,-12,770,-11,7,1
3974,134,-18,736,-12,-11,-21
3975,-65,-24,848,-51,34,-6
3976,53,-130,501,-44,-19,-1
3977,18,-117,845,35,-6,-6
3978,-114,26,578,-54,2,3
3979,31,-76,426,-16,-10,-7
3980,-14,-49,658,-9,-5,-4
3981,54,26,900,-15,-2,-10
3982,-16,-88,632,-22,12,-16
3983,28,-92,744,-44,19,-10
3984,9,-57,790,73,-1,3
3985,-73,-142,557,-46,-4,7
3986,-62,35,593,-21,-6,-8
3987,42,-79,499,-30,-15,-14
3988,-77,11,898,-4,2,9
3989,142,-83,684,-28,-16,-15
3990,-72,8,815,-13,-7,17
3991,-2,-51,506,-86,10,-6
3992,-60,-120,821,-35,25,-25
3993,-117,42,603,-4,3,-7
3994,61,-118,506,-25,-14,-6
3995,-53,-39,748,9,-1,-3
3996,72,3,849,-40,-13,-6
3997,-56,6,790,-51,9,3
3998,-17,9,520,-82,-7,-4
3999,-44,35,655,-7,38,-31
4000,-52,-91,568,6,10,1
4001,0,-56,830,-2,-7,-11
4002,27,-56,541,-17,-7,-9
4003,-53,40,934,3,4,11
4004,132,-104,684,-24,-19,-15
4005,-33,-1,917,28,-2,15
4006,-5,-39,691,-140,-12,4
4007,60,-78,792,-105,-2,-6
4008,-118,92,597,-8,10,-7
4009,73,-108,572,-34,-18,-11
4010,-74,-28,737,2,-3,0
4011,83,-21,922,-35,-5,-18
4012,-93,35,883,-53,29,-6
4013,23,-24,450,-47,-1,-12
4014,-79,20,763,15,39,-32
4015,-63,-47,578,22,15,0
4016,40,-80,841,-5,-4,-11
4017,16,-60,615,-11,-10,-8
4018,-54,55,1021,-18,7,-2
4019,122,-161,581,-30,-3,-20
4020,-93,-8,951,-83,9,9
4021,-37,-22,734,-88,25,-21
4022,-14,-106,782,-44,10,-14
4023,-70,32,753,9,4,-4
4024,91,-112,584,-22,-8,-10
4025,-79,-24,728,2,8,6
4026,101,-9,890,3,-24,-10
4027,-66,-22,960,20,18,-6
4028,141,-106,631,47,3,-6
4029,-45,5,923,113,7,0
4030,-82,-48,656,-68,-16,11
4031,28,-50,772,-1,-4,-9
4032,13,-57,675,-15,0,-7
4033,-40,43,1053,-26,2,8
4034,146,-154,633,-24,-20,-14
4035,21,40,1015,86,20,-5
4036,5,-23,734,29,-18,13
4037,40,-115,842,-23,-5,1
4038,-94,22,694,-19,1,-3
4039,72,-102,658,-35,-17,-11
4040,-76,-25,770,14,5,6
4041,97,1,889,-23,-21,-12
4042,-47,-30,950,-39,31,-11
4043,126,-99,651,32,7,-14
4044,-57,5,941,88,21,-22
4045,-68,-57,670,-23,7,6
4046,30,-65,763,-4,0,-11
4047,10,-59,684,-50,-12,-9
4048,-50,60,1003,7,7,-1
4049,81,-180,558,6,-4,-19
4050,-108,2,852,53,7,15
4051,-9,14,679,-68,-21,17
4052,-33,-94,751,-92,-16,3
4053,-17,23,784,4,15,-6
4054,95,-122,664,-37,-8,-14
4055,-75,-20,795,19,3,2
4056,-84,25,930,43,-14,-19
4057,-111,-42,683,-14,5,16
4058,86,-4,520,-40,-14,5
4059,-53,69,780,-52,-7,7
4060,-40,-44,556,-81,-13,6
4061,68,-80,772,7,-3,-17
4062,1,-39,754,-41,1,-13
4063,-68,38,1068,16,15,0
4064,101,-112,646,50,-6,-25
4065,18,21,907,45,13,-1
4066,-9,-30,715,54,16,-11
4067,-17,-53,902,66,25,-11
4068,-69,-21,664,-59,-15,4
4069,32,-110,746,-14,-16,-7
4070,-30,-58,816,-31,-5,2
4071,-94,47,910,-70,-14,-10
4072,-98,-9,528,-29,-4,10
4073,61,-13,620,-54,-23,1
4074,-27,79,776,38,2,1
4075,-33,-41,584,-64,1,6
4076,33,-85,773,-28,-4,-15
4077,-1,-31,761,-42,-14,-12
4078,-73,-7,988,-38,2,1
4079,144,-55,672,-48,-7,-26
4080,-77,72,878,-24,8,11
4081,-18,17,696,-11,-6,-3
4082,-60,-7,889,36,11,-7
4083,-60,-47,772,-55,-3,-3
4084,22,-118,784,-28,-5,-10
4085,-24,-39,844,-35,-6,-3
4086,-77,-68,971,-61,-2,-13
4087,-21,-9,519,3,0,2
4088,42,-23,790,14,-3,-5
4089,-38,75,918,-11,30,-19
4090,-104,-96,718,-20,4,0
4091,-32,-9,825,-40,-13,-8
4092,21,-71,834,-21,-11,-7
4093,-68,-50,846,-11,-6,12
4094,-3,27,713,-22,-29,-14
4095,-36,107,668,-25,27,-5
4096,58,-28,528,-18,-7,-4
4097,-51,9,937,-20,-2,0
4098,-88,34,713,-13,10,3
4099,-1,-118,794,-3,-3,-9
4100,-12,-34,885,-24,-7,-5
4101,10,77,952,-19,12,-14
4102,-3,-33,386,10,4,-9
4103,20,81,793,37,7,-6
4104,-15,81,805,-58,17,-7
4105,-57,-104,702,-56,2,1
4106,-37,-5,810,-15,-11,-12
4107,1,-74,858,-13,-7,-6
4108,-61,-69,824,8,0,2
4109,127,54,780,43,-4,-23
4110,-69,124,783,-15,13,10
4111,76,-63,596,-39,-9,-5
4112,-63,12,896,25,20,-18
4113,-79,0,726,-22,6,-1
4114,7,-116,894,-30,-2,-8
4115,-1,-24,872,-5,-11,-6
4116,-22,-12,1056,-5,-10,6
4117,71,-6,489,-40,-18,-7
4118,5,67,872,-34,5,-4
4119,-32,57,853,6,15,-5
4120,-47,-92,757,-3,8,-2
4121,-39,0,877,0,0,-9
4122,10,-79,866,-31,-7,-9
4123,-41,-119,834,-27,-6,4
4124,104,17,897,-19,-21,-11
4125,-91,151,752,-66,13,2
4126,76,-94,680,-34,-9,-7
4127,-52,30,923,42,14,-13
4128,-84,-29,711,-24,7,4
4129,-7,-74,950,-4,1,-11
4130,12,-26,869,-18,-11,-8
4131,-43,-39,1059,-10,-6,10
4132,105,-47,584,-37,-16,-11
4133,-25,104,839,-25,9,2
4134,-14,14,782,-23,9,-10
4135,-27,-79,845,13,12,-11
4136,-75,39,847,-18,3,-7
4137,8,-97,919,-30,-5,-8
4138,-30,-64,848,-2,-4,0
4139,62,14,912,36,-8,-13
4140,-39,50,635,4,8,3
4141,79,-30,809,-2,2,-5
4142,-53,45,865,-78,10,-6
4143,-71,-70,695,-38,-8,1
4144,-36,-29,954,-22,-6,-10
4145,17,-42,853,-15,-4,-8
4146,-69,11,962,-9,6,0
4147,107,-16,679,-33,-12,-25
4148,14,81,823,12,27,-5
4149,21,-19,638,10,4,0
4150,-48,-41,981,1,2,-3
4151,-84,47,759,-7,2,3
4152,12,-123,934,-23,-5,-6
4153,-16,-48,888,-24,-4,-3
4154,16,43,963,0,-14,0
4155,-6,-33,465,-39,-3,1
4156,60,14,888,-35,-8,-4
4157,-37,106,978,-47,20,-13
4158,-52,-102,788,-27,3,-6
4159,-45,8,883,-16,-3,-11
4160,33,-85,900,-15,-12,-9
4161,-73,-69,842,-2,3,1
4162,82,-45,863,-6,-4,-27
4163,-36,113,768,30,31,-1
4164,61,-93,712,-5,-3,-3
4165,-54,30,1027,16,4,-6
4166,-104,9,852,-34,6,7
4167,12,-98,950,-21,-10,-10
4168,1,-44,887,-10,-7,-6
4169,-1,-83,1117,-4,-4,5
4170,84,-47,551,-35,-16,-4
4171,-16,64,840,-12,0,-1
4172,-62,56,1092,-79,13,-11
4173,-34,-107,819,-40,5,-5
4174,-56,40,949,-19,-7,-10
4175,23,-76,902,-13,-6,-6
4176,-53,-117,820,-18,3,1
4177,96,-27,964,-32,-11,-23
4178,-107,90,834,-32,22,-4
4179,63,-91,664,-11,-2,-10
4180,-53,42,1000,47,20,-17
4181,-92,-18,747,-21,4,4
4182,-19,-54,1026,-8,1,-9
4183,20,-30,868,-20,-11,-8
4184,-53,22,1035,2,5,-2
4185,97,-62,600,20,1,-19
4186,14,62,851,26,23,-2
4187,-6,9,743,12,7,1
4188,-29,-99,939,-5,2,-2
4189,-83,65,838,-23,0,0
4190,20,-112,964,-25,-12,-9
4191,-31,-61,850,-19,-2,0
4192,45,-14,922,28,-4,-12
4193,-28,41,608,13,13,0
4194,80,-21,869,12,0,-7
4195,-67,48,1007,-41,-8,3
4196,-76,-85,792,-44,-4,3
4197,-34,-9,1008,-14,0,-11
4198,25,-57,866,-32,-10,-12
4199,-77,-77,971,6,0,9
4200,162,-64,861,-16,-22,-12
4201,-66,103,815,-20,5,8
4202,7,-53,783,-51,-3,-3
4203,-41,-5,1006,-64,4,-8
4204,-81,37,871,-28,-2,-3
4205,13,-98,967,-16,-6,-7
4206,-24,-22,898,-9,-1,-6
4207,19,-70,1063,-39,-10,-2
4208,1,-42,572,-51,-5,-3
4209,-3,43,872,-43,-10,-5
4210,-31,60,941,-68,18,-12
4211,-51,-98,726,-25,10,-5
4212,-53,31,968,-21,-3,-10
4213,27,-77,906,-14,-11,-8
4214,-71,-45,780,-10,0,5
4215,91,-1,818,-67,-22,-18
4216,7,93,780,-44,14,6
4217,84,-97,667,-55,-8,-5
4218,-66,-14,1020,-68,4,-17
4219,-112,-8,810,-13,6,-2
4220,13,-91,1002,-27,-4,-8
4221,4,-40,871,-5,-5,-9
4222,-30,-39,1079,3,-3,10
4223,128,-73,557,-52,-25,-6
4224,-38,9,816,40,11,1
4225,-67,69,1058,-44,-6,10
4226,-30,-113,820,-67,-18,0
4227,-69,51,946,19,6,-5
4228,34,-88,937,-46,-12,-9
4229,-65,-54,808,-6,4,1
4230,82,33,936,28,-1,-25
4231,-18,26,697,-13,23,-7
4232,118,-75,749,17,11,-15
4233,-77,1,950,2,27,-17
4234,-81,-76,737,-9,7,4
4235,-30,-26,1043,-10,-4,-8
4236,35,-62,882,-5,-8,-9
4237,-85,-36,1014,-7,0,10
4238,175,-80,771,-49,-17,-12
4239,-82,8,817,13,4,10
4240,-20,-13,831,-35,-14,5
4241,-47,-34,973,-25,-7,-3
4242,-86,59,863,-29,-2,0
4243,34,-112,1001,-17,-11,-9
4244,-29,-44,868,-26,-6,-4
4245,25,43,982,-46,0,-14
4246,-10,-61,515,-28,-1,-7
4247,85,4,861,-54,-5,-6
4248,-45,8,1040,-79,6,-3
4249,-33,-142,743,-44,-3,-3
4250,-66,24,981,2,2,-10
4251,48,-79,908,-39,-15,-13
4252,-96,-71,882,-6,9,1
4253,140,1,975,-4,-8,-29
4254,-113,16,899,-17,26,-2
4255,28,-101,570,-42,3,-10
4256,-39,44,1033,-45,15,-17
4257,-107,20,775,-25,5,0
4258,1,-92,1025,-4,-5,-10
4259,12,-40,855,-28,-9,-10
4260,-33,8,1046,15,11,-6
4261,70,-99,497,2,4,-18
4262,24,-6,856,-6,20,-9
4263,-67,87,1079,-45,25,-13
4264,-59,-129,815,-17,9,-8
4265,-79,51,962,-13,2,-4
4266,45,-92,932,-23,-10,-8
4267,-73,-47,835,-16,4,3
4268,91,44,930,18,-3,-24
4269,-17,14,725,-8,27,-4
4270,120,-68,751,-28,3,-12
4271,-83,-40,958,-59,24,-12
4272,-75,-93,743,-21,3,3
4273,-31,-18,1042,-17,-4,-10
4274,33,-50,869,-8,-8,-11
4275,-90,-4,1082,-33,10,3
4276,166,-73,835,-34,-10,-26
4277,-126,12,865,-38,16,1
4278,-25,-61,632,-71,-9,-2
4279,-17,-62,1029,-45,-2,-5
4280,-91,68,807,-29,-1,-3
4281,33,-119,985,-24,-11,-8
4282,-29,-37,892,11,-1,-4
4283,21,-7,1036,-48,-12,-4
4284,-3,-82,571,-25,-2,0
4285,2,-43,849,-10,-12,-5
4286,-61,85,1084,-8,3,1
4287,-44,-124,750,-10,-4,2
4288,-63,35,991,-25,-4,-7
4289,43,-77,893,-10,-10,-11
4290,-87,-30,877,2,4,9
4291,96,-19,854,8,-17,-16
4292,-23,53,864,25,24,6
4293,83,-135,657,-14,-2,-7
4294,-86,-8,1006,41,25,-18
4295,-106,-11,824,-42,1,6
4296,1,-69,1075,-20,-8,-8
4297,12,-23,878,-11,-6,-10
4298,-42,61,1082,-1,7,-1
4299,89,-119,579,14,2,-17
4300,36,44,896,-3,21,-7
4301,-36,16,888,-60,21,-11
4302,-6,-175,870,-9,11,-11
4303,-99,59,894,-8,7,-4
4304,50,-107,939,-11,-10,-9
4305,-61,-49,872,-23,0,4
4306,80,-14,1002,-38,-5,-23
4307,-80,-23,803,-26,12,5
4308,12,-59,727,-76,-15,-3
4309,-55,-5,949,-22,-7,4
4310,-61,-86,700,-64,-10,3
4311,-47,-1,1026,10,4,-11
4312,39,-61,842,-20,-12,-11
4313,-97,-28,986,-6,0,12
4314,163,-70,817,-8,-25,-15
4315,-126,1,826,36,16,2
4316,-21,-68,600,14,8,-5
4317,-26,1,980,21,27,-23
4318,-100,68,822,-4,7,5
4319,33,-115,971,-29,-11,-10
4320,-15,-37,850,-24,-6,-3
4321,11,0,1038,-13,9,-15
4322,27,-119,454,-45,0,-9
4323,8,-51,843,-46,-10,-3
4324,-86,112,1048,-22,-4,7
4325,-50,-136,757,-41,-20,3
4326,-82,57,943,-31,-6,-7
4327,54,-97,863,-22,-12,-12
4328,-86,-53,831,-9,7,6
4329,99,-29,875,55,-8,-25
4330,-49,33,812,-18,30,-7
4331,101,-132,622,-38,1,-6
4332,-141,77,1019,-62,7,-5
4333,-113,-31,759,-40,5,4
4334,-14,-42,1043,-8,-7,-11
4335,41,-39,846,-11,-10,-11
4336,-71,12,1043,18,8,8
4337,106,-111,612,12,-7,-18
4338,3,10,801,20,28,-8
4339,-47,42,899,-42,9,-2
4340,-74,-95,858,-66,9,-13
4341,-107,82,885,-9,12,-3
4342,59,-121,950,-15,-12,-10
4343,-48,-46,881,-2,-4,0
4344,30,9,959,26,-9,-6
4345,-23,-12,560,12,21,-2
4346,96,-79,841,20,11,-15
4347,-116,115,1085,-67,20,-8
4348,-85,-128,674,-48,3,-2
4349,-64,18,1012,16,7,-10
4350,52,-69,827,-16,-14,-12
4351,-108,-30,934,4,5,12
4352,100,-25,837,21,-14,-21
4353,-9,39,822,6,37,-3
4354,63,-98,634,-47,0,-8
4355,-127,28,974,-48,2,-10
4356,-117,20,825,-40,9,1
4357,7,-92,1033,-8,-3,-10
4358,1,-31,841,-9,-7,-8
4359,-25,20,1076,18,2,0
4360,50,-101,499,2,1,-16
4361,54,-12,824,3,25,-12
4362,-85,112,1021,-69,7,2
4363,-79,-152,785,-49,-13,-2
4364,-87,62,965,-20,8,-3
4365,59,-115,873,-23,-13,-12
4366,-85,-38,889,-9,4,4
4367,73,-11,922,14,-5,-22
4368,-40,3,693,-13,27,-4
4369,98,-114,742,-37,0,-11
4370,-132,111,999,-24,-6,1
4371,-76,-91,721,-59,-11,5
4372,-47,-14,1050,-14,0,-10
4373,42,-48,818,-32,-13,-13
4374,-88,-3,1049,-9,9,4
4375,118,-87,755,-6,-10,-28
4376,-23,21,815,-25,27,-4
4377,-1,-32,695,-39,-7,1
4378,-88,-32,963,-19,-12,-4
4379,-97,57,863,-39,-2,1
4380,42,-110,973,-17,-9,-11
4381,-21,-31,878,-21,-3,-5
4382,24,1,1047,8,6,-15
4383,-5,-97,486,-19,5,-14
4384,44,-20,852,-33,8,-9
4385,-90,118,1043,-40,2,5
4386,-50,-144,774,-44,-13,5
4387,-89,52,959,-8,-4,-7
4388,61,-93,850,-14,-16,-15
4389,-90,-49,881,-6,13,4
4390,101,-28,882,20,-6,-30
4391,-59,29,819,-32,29,-6
4392,94,-124,599,-45,-9,-1
4393,-129,70,990,-8,1,1
4394,-108,-27,759,-47,-6,7
4395,-20,-43,1041,-22,-7,-10
4396,39,-43,840,-13,-9,-12
4397,-65,2,1076,-4,14,-2
4398,112,-108,628,7,0,-23
4399,-24,-19,773,-47,12,-4
4400,-39,34,836,-23,-7,9
4401,-55,-76,877,-36,-11,-2
4402,-110,86,872,-21,-2,-1
4403,57,-131,935,-39,-18,-12
4404,-54,-43,878,-13,-3,-3
4405,37,-15,994,-35,4,-20
4406,-30,-56,564,-31,5,-2
4407,37,-96,794,-49,-15,-2
4408,-66,91,1019,40,13,-5
4409,-48,-106,668,-17,-8,2
4410,-70,26,1002,-12,-1,-6
4411,60,-78,827,-21,-14,-12
4412,-113,-42,945,-24,7,9
4413,122,-35,872,-55,-25,-20
4414,-100,-30,817,0,7,12
4415,26,-121,507,-20,-6,-6
4416,-18,34,988,16,26,-25
4417,-116,28,784,-6,6,5
4418,9,-89,1030,-14,-6,-9
4419,1,-29,835,9,-4,-7
4420,-25,8,1127,5,-1,8
4421,80,-128,573,-20,-12,-11
4422,-110,-31,776,53,23,-9
4423,-51,2,872,-92,12,-7
4424,6,-130,864,-52,-1,-8
4425,-99,76,920,-3,8,-4
4426,66,-117,867,-29,-13,-11
4427,-81,-38,895,-2,6,5
4428,91,0,990,22,-4,-23
4429,-95,-39,797,-19,29,-4
4430,-19,-84,675,-41,-1,-11
4431,-45,-23,932,3,-7,5
4432,-59,-89,692,-54,-12,5
4433,-58,4,1016,-6,1,-9
4434,47,-48,817,-27,-16,-14
4435,-96,-7,1050,-30,7,6
4436,173,-44,875,-48,-15,-23
4437,-129,37,871,-10,5,13
4438,-34,-70,554,-20,-4,-3
4439,-24,-86,973,49,17,-24
4440,-113,60,801,-12,3,3
4441,35,-102,955,-27,-13,-11
4442,-15,-28,871,3,-1,-3
4443,15,33,1078,3,-8,0
4444,17,-85,577,-14,-4,-6
4445,23,31,846,50,13,-10
4446,-89,19,973,-80,17,-10
4447,25,-195,723,-54,5,-1
4448,-90,66,908,11,2,-7
4449,72,-90,856,-36,-14,-12
4450,-93,-39,866,-7,9,5
4451,128,51,915,26,-5,-28
4452,-42,37,852,-55,23,-4
4453,96,-98,640,-38,-9,-5
4454,-69,-52,968,48,1,-1
4455,-92,-60,706,-51,-11,7
4456,-28,-26,1039,-15,-1,-7
4457,42,-43,831,-16,-9,-10
4458,-85,25,1056,-24,3,9
4459,98,-66,688,-47,-19,-15
4460,39,-11,851,28,3,10
4461,-49,-3,775,-43,7,-8
4462,-85,-105,858,-13,23,-23
4463,-109,80,859,-4,8,-1
4464,64,-119,936,-20,-11,-11
4465,-46,-36,891,-10,1,0
4466,22,14,1001,26,2,-12
4467,-27,-71,517,-2,15,-12
4468,78,-47,827,-33,8,-11
4469,-84,130,1013,-1,0,9
4470,-67,-135,708,-57,-17,5
4471,-81,43,966,-9,-1,-5
4472,62,-90,832,-21,-15,-13
4473,-104,-28,929,-18,7,9
4474,117,-35,889,-42,-25,-20
4475,-95,-26,835,10,14,13
4476,14,-125,504,-28,-9,-7
4477,-18,39,987,-16,28,-22
4478,-103,5,769,-17,10,1
4479,-10,-58,1051,-14,-5,-11
4480,18,-36,853,-10,-8,-10
4481,-35,5,1134,5,7,1
4482,102,-115,692,9,2,-19
4483,-140,3,802,-19,23,-7
4484,-32,-27,788,-11,-3,8
4485,6,-140,905,-37,-12,-3
4486,-111,83,873,-26,3,-1
4487,58,-119,916,-26,-14,-11
4488,-57,-37,912,-11,-1,1
4489,70,11,1022,-41,-13,-13
4490,-69,-29,764,-17,2,3
4491,-5,-24,764,-14,-12,-5
4492,-61,17,958,6,30,-14
4493,-39,-111,685,-7,-1,0
4494,-72,14,997,-9,-1,-7
4495,48,-62,836,-11,-9,-9
4496,-94,-9,987,6,8,11
4497,145,0,914,7,-18,-19
4498,-41,21,907,27,34,1
4499,23,-84,564,-34,0,-6
4500,-35,-77,972,-55,6,-13
4501,-112,24,804,-30,9,1
4502,12,-88,1028,-12,-5,-10
4503,-4,-30,865,-13,-7,-6
4504,-8,47,1082,11,5,-5
4505,45,-95,609,-3,4,-14
4506,77,26,884,0,17,-9
4507,-74,32,961,-45,2,3
4508,28,-178,776,-44,-14,-2
4509,-97,45,929,-14,6,-5
4510,54,-98,897,-24,-12,-12
4511,-78,-35,907,-17,2,3
4512,103,47,932,-20,-10,-22
4513,-19,4,834,-27,18,-2
4514,111,-64,752,-42,-9,-9
4515,-73,-43,962,0,-3,-2
4516,-57,-86,753,-38,-9,3
4517,-40,-19,1059,-14,0,-10
4518,34,-40,860,-22,-8,-11
4519,-72,23,1049,-7,7,2
4520,130,-42,803,-6,-10,-25
4521,9,23,941,-10,26,-6
4522,6,-13,669,-48,-6,-4
4523,-19,-125,993,-52,-4,-5
4524,-97,44,842,-22,1,-3
4525,31,-101,1001,-21,-7,-8
4526,-29,-23,915,8,2,-4
4527,35,18,1049,9,-7,-4
4528,-16,-77,667,6,2,-3
4529,24,24,880,19,3,-10
4530,-61,37,954,5,32,-9
4531,-19,-144,784,-23,5,-6
4532,-72,32,955,1,-1,-5
4533,46,-81,912,-36,-15,-11
4534,-72,-44,933,-23,5,2
4535,124,0,993,-23,-11,-24
4536,-117,12,925,-39,19,0
4537,22,-99,623,-52,-12,-4
4538,-55,17,1044,-43,2,-5
4539,-83,-4,796,-33,3,0
4540,-23,-64,1064,-16,-4,-9
4541,19,-40,884,-7,-9,-9
4542,-25,4,1103,-13,0,4
4543,83,-94,674,-45,-16,-10
4544,-45,41,844,0,7,2
4545,-45,30,971,-24,-3,5
4546,-12,-105,914,-33,-6,-5
4547,-84,41,973,-10,2,-3
4548,30,-97,987,-29,-13,-8
4549,-42,-39,925,2,-1,0
4550,65,19,953,-11,-13,-9
4551,-27,-15,747,-24,4,6
4552,95,-33,862,-16,-4,-5
4553,-74,36,986,-33,-1,1
4554,-65,-81,810,-49,-5,1
4555,-49,-17,1069,2,3,-9
4556,28,-50,892,-44,-14,-12
4557,-58,-31,1057,-22,3,-1
4558,131,-43,937,-31,-9,-23
4559,-60,66,920,-16,22,-7
4560,1,-52,768,-12,4,-7
4561,-45,-41,1042,8,13,-14
4562,-65,24,908,-7,7,0
4563,5,-90,1023,-21,-6,-6
4564,-12,-29,918,5,-6,-3
4565,42,27,1045,-35,-10,-5
4566,5,-92,641,-41,1,-6
4567,37,28,937,-18,0,-8
4568,-37,71,947,-25,17,-12
4569,-36,-102,855,-20,4,-4
4570,-58,10,955,-1,2,-7
4571,18,-75,935,-26,-10,-8
4572,-53,-45,917,-8,-1,1
4573,80,-37,929,-41,-17,-18
4574,-56,93,916,-30,18,-6
4575,55,-52,747,-12,4,-7
4576,-59,35,1035,27,12,-9
4577,-87,-19,911,-35,-3,3
4578,-12,-74,1051,-15,-5,-9
4579,6,-40,911,-21,-4,-8
4580,-7,-20,1102,15,3,2
4581,62,-54,742,-9,-11,-10
4582,-18,79,942,-12,2,-1
4583,-44,52,1005,-14,15,-9
4584,-42,-76,927,-22,10,-6
4585,-57,7,970,-18,-7,-6
4586,8,-88,943,-29,-9,-9
4587,-37,-56,935,-20,-3,2
4588,47,-31,1004,34,-7,-12
4589,-38,87,934,-34,7,-1
4590,61,-32,838,-41,-9,-4
4591,-61,51,994,13,11,-5
4592,-85,-32,907,-31,0,1
4593,-25,-50,1018,-17,-4,-8
4594,9,-48,912,-2,-5,-7
4595,-16,-9,1066,-30,1,-7
4596,23,-81,765,-21,-4,-13
4597,-30,32,886,6,8,2
4598,7,0,818,-9,4,-2
4599,-47,-51,931,-5,11,-2
4600,-69,30,858,-25,-2,-4
4601,0,-97,913,-23,-9,-7
4602,-22,-36,919,0,-1,-4
4603,65,47,913,-39,-1,-18
4604,-63,10,803,-12,15,-1
4605,54,-30,843,-43,-3,-9
4606,-49,0,922,-53,15,-9
4607,-62,-56,720,-32,4,1
4608,-22,-59,961,-15,-5,-12
4609,0,-44,821,-15,-7,-7
4610,-34,9,1101,7,-1,3
4611,30,-93,856,4,-11,-10
4612,-45,29,936,18,6,5
4613,0,-16,762,-37,-8,2
4614,-28,-23,918,-41,0,4
4615,-78,25,758,-32,-2,-4
4616,17,-111,868,-23,-13,-9
4617,-28,-32,917,-1,-3,-3
4618,54,44,949,20,-3,-10
4619,-56,-37,828,25,14,1
4620,43,-30,869,1,-5,-4
4621,-48,-9,938,-73,-11,7
4622,-69,0,741,-61,-1,4
4623,-25,-42,892,-11,0,-12
4624,10,-55,775,-28,-10,-8
4625,-37,12,1018,8,-5,4
4626,34,-90,839,-13,-19,-14
4627,-52,70,887,-36,8,9
4628,5,6,647,-52,11,-9
4629,-54,-67,813,-24,20,-17
4630,-32,8,786,-13,4,-4
4631,41,-119,839,-24,-8,-8
4632,-38,-26,928,-4,-3,-2
4633,1,3,988,-25,0,-16
4634,-63,-28,820,18,14,-7
4635,52,-7,790,16,4,-10
4636,-45,41,844,-45,-10,8
4637,-53,-57,586,-62,0,5
4638,-20,-23,907,-7,-1,-11
4639,19,-74,758,-22,-11,-9
4640,-54,16,1073,-20,-4,2
4641,86,-77,886,-61,-16,-15
4642,-51,51,980,4,27,-11
4643,13,16,595,7,-7,-1
4644,-69,-53,794,8,-3,0
4645,-63,51,766,-33,-2,1
4646,37,-124,819,-21,-5,-10
4647,-48,-27,919,-12,-2,-4
4648,57,3,1020,-35,-21,-10
4649,-38,-28,858,-34,5,-7
4650,37,0,828,-14,10,-13
4651,-52,47,823,35,-2,2
4652,-78,-64,581,-57,-2,6
4653,-32,-4,908,-11,-7,-12
4654,17,-73,754,-25,-13,-10
4655,-55,4,1075,-20,0,2
4656,121,-75,884,-59,-14,-20
4657,-58,50,994,27,20,-6
4658,5,31,599,-29,-8,2
4659,-66,-71,776,-72,-7,4
4660,-50,36,781,-22,1,-4
4661,44,-124,821,-25,-11,-10
4662,-52,-32,908,-4,-2,-4
4663,57,-9,984,-3,1,-16
4664,-41,-20,865,11,11,0
4665,49,5,785,-23,-6,-1
4666,-43,18,869,-52,26,-21
4667,-54,-80,610,-16,7,0
4668,-14,-40,963,-3,-5,-9
4669,20,-70,756,-15,-9,-9
4670,-51,10,1039,-3,-1,6
4671,130,-62,864,-22,-20,-16
4672,-54,58,977,-9,22,-7
4673,-7,10,706,5,0,1
4674,-45,-89,866,-5,-2,-1
4675,-58,18,859,-32,-4,-1
4676,46,-122,837,-25,-12,-10
4677,-40,-29,900,0,-1,-3
4678,56,25,973,11,0,-13
4679,-39,-40,941,5,12,-3
4680,46,-31,921,-38,-3,-3
4681,-33,-15,921,15,25,-20
4682,-86,-47,785,-4,10,2
4683,-33,-6,920,-9,-7,-10
4684,16,-62,756,-16,-9,-8
4685,-43,8,1081,-15,4,1
4686,126,-78,905,-29,-5,-22
4687,-41,6,1085,1,7,8
4688,-16,17,713,-43,14,-8
4689,-29,-79,828,-20,17,-17
4690,-100,53,774,-7,3,-2
4691,44,-127,815,-26,-11,-8
4692,-52,-40,913,-5,-5,-2
4693,88,-12,971,-43,-8,-16
4694,-41,0,969,-6,7,1
4695,56,-14,743,-21,0,-2
4696,-51,16,821,-52,19,-17
4697,-62,-86,644,-21,5,0
4698,-25,-38,970,-10,-8,-12
4699,5,-57,774,-17,-8,-7
4700,-32,26,1062,-24,2,-1
4701,125,-80,816,-26,-9,-20
4702,-57,25,1003,-4,3,6
