sequence,AccelerometerX,AccelerometerY,AccelerometerZ,GyroscopeX,GyroscopeY,GyroscopeZ
0,-98,0,838,-22,-5,14
1,235,-12,832,-10,-18,-23
2,-28,-85,542,-39,17,5
3,69,57,312,-3,2,-2
4,27,-88,332,-3,18,-24
5,-148,184,540,-12,17,11
6,56,-25,782,-6,-14,-15
7,-74,41,812,-26,-4,-2
8,20,32,804,-5,-13,-3
9,109,-63,786,-29,-4,-10
10,30,38,570,-13,5,3
11,125,19,325,16,43,7
12,-44,-146,343,-70,-9,-8
13,-172,205,703,26,0,9
14,106,9,730,-54,-22,-13
15,-122,-8,732,-27,1,12
16,165,48,823,0,-21,-16
17,10,90,806,-47,7,2
18,149,-22,270,2,-2,-10
19,3,-73,274,0,17,6
20,-149,16,395,-34,-1,3
21,-85,84,843,22,-6,-6
22,50,57,581,-36,-18,-13
23,-73,33,777,-14,-4,12
24,235,-13,781,-5,-16,-22
25,33,-17,469,-23,25,5
26,108,0,273,-3,-1,-3
27,62,-55,480,6,24,-18
28,-139,121,638,-9,14,9
29,46,1,767,3,-12,-17
30,-63,45,627,-37,-7,-3
31,69,40,868,-8,-16,-1
32,139,-66,654,-43,-1,-10
33,34,-69,414,-21,8,-3
34,-14,137,524,-1,19,0
35,44,-79,322,-52,14,-15
36,-149,173,766,32,7,4
37,99,-1,711,-32,-17,-16
38,-117,-17,812,-31,0,9
39,122,-12,759,17,-17,-17
40,-19,-9,854,-56,18,6
41,152,-11,332,-1,0,-1
42,18,63,307,2,27,-14
43,-122,25,418,-50,9,0
44,-90,75,858,38,1,-6
45,47,59,661,-52,-15,-11
46,-79,34,794,-14,-4,12
47,236,-12,766,-8,-16,-25
48,41,-34,469,-42,24,9
49,112,-9,264,17,2,-5
50,44,-65,452,-12,27,-18
51,-153,115,612,-12,13,7
52,40,-5,774,7,-9,-16
53,-56,49,637,-39,-8,-3
54,51,21,862,-7,-16,1
55,137,-85,685,-39,-3,-12
56,45,-103,411,-24,8,-8
57,10,29,460,10,6,4
58,8,-132,353,-24,9,-11
59,-152,177,735,28,7,2
60,91,3,751,-36,-20,-16
61,-108,-6,821,-38,-5,9
62,130,53,786,11,-19,-17
63,7,68,781,-52,7,1
64,150,-19,283,11,5,-12
65,3,-71,276,1,22,11
66,-139,23,375,-19,-8,1
67,-82,69,843,11,-4,-8
68,40,58,613,-33,-12,-11
69,-64,15,813,-9,-3,10
70,242,-9,744,-16,-20,-22
71,15,-30,395,-15,7,9
72,35,-26,305,28,25,-2
73,29,-10,502,-45,21,-12
74,-129,145,668,12,-8,11
75,46,-27,802,-40,-21,-11
76,-63,45,768,-32,-3,0
77,-4,2,782,2,-11,0
78,103,-77,735,-42,-2,-10
79,26,32,582,4,11,-1
80,107,110,256,-4,18,0
81,-21,-127,375,-40,22,-15
82,-164,172,733,38,9,3
83,86,15,765,-30,-15,-14
84,-108,-10,720,-27,-3,8
85,198,96,761,17,-14,-18
86,48,-6,453,-52,11,1
87,111,-79,329,18,1,-12
88,-19,-12,514,7,23,10
89,-48,34,593,-36,-9,1
90,-66,41,893,15,-4,-8
91,37,60,623,-37,-13,-11
92,-104,-34,814,-24,-4,10
93,204,-60,771,-10,-18,-23
94,-30,-1,656,-18,18,15
95,158,-21,254,21,18,0
96,-13,-93,431,-21,37,-16
97,-164,180,546,-18,-4,10
98,37,-28,864,-12,-15,-11
99,-65,48,733,-51,-5,0
100,86,90,816,0,-10,0
101,140,-77,595,-31,3,-12
102,67,-3,385,-25,6,-7
103,38,51,540,2,4,3
104,-10,-69,461,-26,8,-8
105,-137,136,807,21,0,1
106,76,21,700,-30,-20,-16
107,-103,-25,783,-37,-5,9
108,141,-17,774,11,-16,-20
109,-8,-38,751,-47,10,6
110,128,-85,253,1,-8,0
111,43,42,460,9,38,-16
112,-118,63,509,-54,12,5
113,-67,38,932,25,-2,-5
114,20,63,705,-39,-17,-8
115,-35,43,841,-33,-7,10
116,223,-26,723,0,-12,-21
117,17,20,332,-22,9,0
118,37,-18,393,12,15,-4
119,0,-54,543,-27,21,-7
120,-146,166,734,-11,-1,8
121,56,-26,824,-6,-19,-12
122,-80,34,793,-32,-7,0
123,24,36,814,-15,-19,-3
124,58,-8,713,-22,3,-9
125,73,27,491,-30,4,-11
126,87,-7,398,11,16,4
127,-56,-91,356,-26,2,-1
128,-142,125,741,11,-3,3
129,68,36,712,-14,-17,-13
130,-112,-13,794,-41,-8,10
131,224,-21,779,2,-18,-19
132,38,-142,624,-31,20,3
133,115,-123,190,-26,-11,-11
134,-8,-80,545,29,27,6
135,-134,80,505,-39,-4,6
136,-49,20,960,-1,-14,-7
137,5,65,723,-18,-13,-8
138,-17,49,870,-40,-10,10
139,214,-51,633,0,-10,-18
140,35,60,310,-27,16,-3
141,45,-58,438,-23,0,1
142,-3,-65,505,15,23,-3
143,-158,165,780,-21,1,9
144,70,-31,749,-16,-25,-14
145,-83,16,774,-26,-9,2
146,45,15,757,-27,-16,-4
147,41,1,669,-8,11,-3
148,107,-20,425,-7,12,-12
149,60,-30,400,6,23,8
150,-81,-74,296,-12,8,-2
151,-132,118,778,-16,0,2
152,66,49,619,-10,-24,-14
153,-115,-33,821,-33,-8,12
154,212,-44,681,-13,-19,-23
155,25,-95,565,-16,18,5
156,140,-118,146,-28,4,-5
157,4,-119,543,18,17,-6
158,-160,119,468,-32,4,11
159,-25,-1,857,-28,-13,-9
160,-9,56,688,2,-17,-7
161,8,58,828,-41,-9,10
162,209,-75,518,-15,-13,-18
163,49,64,317,-3,21,-5
164,39,-73,468,-42,-2,5
165,15,-58,450,18,11,-2
166,-159,160,826,-15,8,10
167,86,-17,656,-21,-23,-15
168,-98,-4,759,-2,-6,3
169,75,4,685,-35,-24,-8
170,7,15,698,-18,13,-2
171,149,21,399,-12,14,-14
172,39,-3,306,0,4,10
173,-96,-46,306,23,15,1
174,-122,111,780,-8,-2,1
175,67,55,576,-27,-20,-14
176,-107,-53,827,-20,-4,13
177,260,-31,661,-31,-26,-24
178,23,-90,475,5,36,13
179,97,-10,169,-16,-5,-9
180,-44,-127,469,24,22,-8
181,-145,163,452,7,8,8
182,15,-7,802,-32,-12,-12
183,-24,51,767,5,-3,-7
184,-16,81,852,-5,2,6
185,183,-152,506,-38,-16,-22
186,59,-79,498,53,28,8
187,111,-18,314,-42,26,6
188,-61,-157,397,-44,-5,-18
189,-180,187,556,25,18,9
190,107,-1,657,-61,-14,-15
191,-121,-11,659,23,4,6
192,148,17,729,-33,-26,-14
193,69,-143,585,-45,-1,1
194,130,-147,194,20,22,-15
195,-25,-37,447,-16,4,9
196,-58,-42,288,33,14,1
197,-116,119,780,-4,-6,-2
198,73,62,675,-54,-29,-15
199,-137,5,812,4,6,15
200,215,-16,671,-31,-27,-27
201,17,-13,613,-20,13,7
202,165,-85,72,25,21,8
203,-19,-177,371,-34,8,-12
204,-218,155,392,24,8,15
205,31,25,750,-67,-15,-11
206,-36,50,512,3,-7,-5
207,46,32,763,-13,-11,9
208,195,-47,538,-45,-19,-19
209,32,-43,279,45,30,5
210,22,31,444,-19,34,12
211,95,-69,368,-32,-14,-15
212,-158,193,799,21,7,13
213,121,-24,543,-66,-21,-17
214,-136,-20,718,27,12,9
215,116,32,710,-32,-29,-13
216,30,-50,723,-39,-3,-4
217,158,-96,292,46,15,-10
218,24,-55,385,-34,25,15
219,-64,-29,254,10,-10,-3
220,-119,134,756,-20,-3,1
221,78,63,659,-39,-23,-14
222,-135,-8,787,-2,3,15
223,217,-41,722,-38,-32,-26
224,-10,193,722,-5,21,8
225,206,21,83,-4,7,-8
226,-64,-151,302,18,10,-5
227,-233,180,431,25,17,10
228,26,6,763,-29,-18,-13
229,-34,52,526,-15,-11,-7
230,32,86,755,-12,-7,6
231,186,-121,566,-32,-11,-17
232,59,-2,420,14,25,1
233,119,38,267,-47,14,3
234,-33,-153,412,-37,3,-19
235,-151,203,615,19,11,8
236,116,8,591,-72,-13,-17
237,-136,-7,608,16,9,7
238,194,123,756,-23,-23,-13
239,81,-56,462,-50,0,-4
240,89,-69,278,42,15,-7
241,29,25,525,-46,20,16
242,44,-24,511,23,6,-1
243,-88,103,824,-24,1,4
244,72,62,482,-47,-30,-13
245,-125,-18,825,-4,3,17
246,237,29,770,-35,-27,-24
247,-11,-42,575,-1,33,10
248,102,-10,200,-26,-4,-6
249,5,19,408,-15,16,-13
250,-123,147,485,14,17,6
251,24,-7,735,-43,-6,-13
252,-28,49,709,7,-4,-9
253,-33,28,829,-16,-9,7
254,191,-32,693,-56,-22,-20
255,-3,13,584,47,26,2
256,161,-20,341,-37,22,9
257,-20,-187,285,19,17,-7
258,-183,245,640,20,18,14
259,100,-11,680,-47,-23,-14
260,-120,-7,767,6,-3,8
261,110,14,726,-32,-23,-9
262,11,22,750,-35,10,0
263,153,15,455,-9,11,-4
264,36,59,299,-50,-3,-4
265,-136,-56,284,8,15,-7
266,-139,151,779,-14,5,-3
267,82,63,569,-29,-12,-16
268,-128,-19,720,-8,1,12
269,218,13,764,-35,-32,-26
270,21,111,682,-1,19,7
271,174,-60,83,0,12,-4
272,-40,-182,312,6,18,-3
273,-206,149,414,6,9,12
274,9,40,797,-35,-19,-8
275,-21,68,451,3,-14,-8
276,-1,70,772,-32,-5,9
277,208,-102,622,-20,-12,-22
278,79,-13,481,12,24,6
279,107,-37,269,-33,14,11
280,-77,-227,409,-3,20,-20
281,-154,231,555,-23,15,13
282,110,19,626,-29,-19,-16
283,-128,5,533,4,-6,5
284,158,125,785,-40,-21,-9
285,96,-74,558,-12,16,-4
286,94,-48,360,-21,8,-3
287,100,25,404,-25,4,-2
288,-41,-73,390,10,23,-9
289,-80,165,784,-28,7,1
290,92,63,468,9,-9,-17
291,-139,-23,701,-35,-5,16
292,246,109,744,-26,-28,-25
293,8,-11,468,2,29,7
294,121,-65,237,-45,-12,-12
295,110,6,490,69,34,-5
296,-71,81,546,10,19,5
297,11,46,772,-11,-3,-8
298,-21,82,451,9,-4,-11
299,-21,67,812,-49,-13,11
300,231,-19,657,-14,-20,-25
301,1,6,349,2,17,6
302,114,-49,343,-28,9,1
303,126,-32,445,11,20,-8
304,-126,202,803,-19,0,15
305,100,-15,598,-22,-26,-13
306,-126,17,601,-9,1,3
307,137,70,827,-29,-16,-5
308,96,14,605,-10,12,-4
309,45,-98,301,11,-1,-2
310,19,170,570,-10,30,7
311,82,-15,293,-33,22,-14
312,-122,118,823,-9,3,4
313,93,55,553,-8,-24,-16
314,-151,-29,731,-47,-9,15
315,200,69,823,7,-14,-25
316,-26,-42,645,-51,24,6
317,155,-80,175,-58,-29,-10
318,-3,53,446,92,25,-8
319,-72,105,336,-18,22,2
320,-35,33,833,19,3,-11
321,0,83,657,-1,-11,-11
322,-100,10,807,-54,-16,12
323,243,-12,772,13,-14,-28
324,-52,17,590,-23,17,5
325,171,-14,355,-17,-1,-2
326,12,-186,281,54,19,-9
327,-199,254,528,-15,-3,15
328,83,-33,767,-20,-24,-12
329,-115,25,739,-21,0,2
330,71,35,781,-23,-19,-1
331,74,-13,751,-10,7,-7
332,69,47,477,-3,1,-1
333,138,-15,344,5,47,8
334,-58,-151,228,-67,1,-10
335,-161,206,721,4,-10,7
336,100,40,671,-23,-20,-14
337,-152,-48,647,-39,3,16
338,192,16,753,11,-18,-22
339,-48,89,808,-46,23,10
340,203,-24,187,1,-14,0
341,-7,3,337,22,42,-18
342,-187,76,329,-66,13,6
343,-47,72,836,34,-4,-11
344,22,76,560,-34,-16,-9
345,-95,-37,700,-26,-5,15
346,241,-50,755,4,-6,-27
347,-19,216,650,-53,17,3
348,201,36,78,-7,-10,-1
349,-102,-163,377,-25,4,-18
350,-192,250,496,-18,14,11
351,82,-34,754,7,-18,-19
352,-108,39,508,-37,-8,0
353,67,59,733,-13,-19,-1
354,126,-13,660,-18,6,-14
355,87,44,451,-8,10,-7
356,90,9,230,42,27,5
357,-121,-219,305,-13,-7,-6
358,-81,257,659,29,6,8
359,118,35,575,-36,-18,-18
360,-152,-43,520,-19,0,13
361,212,71,710,18,-25,-19
362,45,52,688,-45,21,2
363,162,-63,164,9,4,-11
364,-38,-111,363,37,42,13
365,-114,22,334,-22,-12,3
366,-9,116,818,21,-4,-5
367,41,93,400,-58,-17,-11
368,-100,-39,661,-19,-4,17
369,268,-17,704,-13,-28,-28
370,17,140,633,-50,13,6
371,178,6,36,13,1,-3
372,-91,-212,405,-25,7,-10
373,-132,239,468,27,13,14
374,86,-1,742,-8,-23,-14
375,-85,51,449,-30,-6,0
376,63,28,729,-4,-11,4
377,164,-7,644,-42,-11,-12
378,20,109,606,8,16,0
379,129,77,154,-31,10,-1
380,-128,-185,332,-1,26,-18
381,-111,265,643,55,10,4
382,123,-9,612,-67,-25,-22
383,-144,-38,581,-4,6,9
384,202,87,768,1,-20,-16
385,-17,63,707,-56,6,-1
386,131,-38,379,62,14,-3
387,28,-18,336,3,50,12
388,-105,-41,246,-15,-1,2
389,-101,129,764,4,2,-2
390,65,62,599,-57,-23,-14
391,-111,-8,748,-4,1,17
392,253,97,815,-22,-28,-28
393,-86,8,730,-13,26,10
394,129,3,293,-8,4,-9
395,0,7,346,-14,8,-16
396,-130,171,502,23,17,8
397,49,-17,711,-37,-8,-18
398,-37,49,637,14,5,-7
399,26,92,811,-13,-10,9
400,194,-19,617,-42,-17,-24
401,-15,56,639,48,30,0
402,93,12,367,-45,12,-1
403,86,-32,444,0,5,-6
404,-89,266,932,31,9,16
405,127,-6,513,-65,-35,-14
406,-121,-12,595,14,4,8
407,151,100,789,-25,-15,-8
408,76,-48,553,-31,9,-3
409,105,-19,445,25,-4,0
410,53,-40,515,-18,34,10
411,-16,-102,481,-23,9,-6
412,1,213,868,-14,2,3
413,85,61,413,-38,-23,-15
414,-139,-81,602,-27,-7,15
415,268,67,735,-10,-18,-27
416,-40,129,729,-3,35,9
417,159,-73,177,-35,-24,1
418,-31,-15,374,18,17,-18
419,-142,123,391,-63,19,8
420,25,48,820,13,2,-14
421,-16,68,435,-11,-7,-10
422,-33,62,798,-57,-18,12
423,235,35,778,-7,-9,-26
424,-101,10,644,-28,25,5
425,117,70,440,-28,-21,-2
426,30,-93,273,-3,17,-21
427,-186,223,682,-32,15,11
428,96,-40,685,14,-8,-19
429,-114,22,665,-27,-4,3
430,114,91,805,-17,-22,-3
431,113,-16,633,-15,12,-13
432,11,6,527,-26,6,-4
433,76,134,448,1,7,-2
434,61,-66,486,-22,5,-5
435,-60,228,894,31,12,8
436,118,25,561,-2,-16,-15
437,-156,-42,652,-49,-8,15
438,216,82,721,18,-22,-20
439,30,-4,651,-27,26,2
440,129,-39,243,4,4,-4
441,-3,-109,581,28,48,4
442,-36,12,535,-43,-11,11
443,26,139,839,19,-7,-5
444,36,64,411,-49,-8,-9
445,-92,-29,707,-23,1,16
446,260,-6,707,1,-27,-26
447,-46,144,716,-27,13,12
448,162,1,141,2,9,0
449,-81,-112,403,-33,24,-22
450,-165,225,473,0,3,7
451,77,-14,753,-28,-20,-22
452,-76,37,544,-23,10,-1
453,71,86,808,1,-10,1
454,141,6,747,-53,-15,-18
455,-57,13,665,32,15,-3
456,119,13,355,-13,17,6
457,-18,-130,227,-33,-1,-7
458,-180,243,700,44,12,13
459,130,-20,645,-59,-37,-17
460,-142,-22,728,-9,4,11
461,196,140,813,1,-19,-13
462,1,31,710,-41,13,1
463,66,-94,452,6,9,0
464,-22,211,432,-59,10,-6
465,23,15,341,-38,1,-4
466,-88,104,850,-14,9,-4
467,88,39,573,-44,-10,-17
468,-112,8,824,6,-1,15
469,249,79,747,-31,-30,-25
470,-49,35,624,-4,25,7
471,85,-101,282,20,19,3
472,76,24,467,-20,7,-6
473,-43,163,740,22,12,17
474,51,21,735,-44,-22,-10
475,-36,44,561,-10,-12,-5
476,24,69,845,-27,-10,6
477,188,-86,606,-39,-16,-19
478,23,41,554,18,32,2
479,110,60,325,-54,-11,-4
480,77,-74,516,5,7,-11
481,-96,224,853,-9,10,12
482,124,2,551,-43,-25,-20
483,-132,-6,565,5,1,6
484,167,94,825,-27,-22,-10
485,70,-59,559,-20,14,-2
486,109,-16,402,17,9,-1
487,69,5,456,-43,17,1
488,-2,-83,532,-28,9,-14
489,-38,193,878,-27,8,0
490,99,46,442,-13,-11,-18
491,-139,-55,667,-25,-5,16
492,251,55,768,-13,-20,-27
493,25,48,667,0,30,4
494,138,-60,149,-26,-7,-3
495,-36,-160,530,21,19,0
496,-109,109,506,-14,-2,15
497,33,92,831,-36,-18,-7
498,-6,60,376,-19,-18,-8
499,-27,1,788,-40,-8,11
500,229,-40,713,-11,-9,-23
501,-7,134,640,-12,22,2
502,156,29,201,-40,-16,-1
503,-111,-130,421,26,20,-23
504,-172,257,580,-24,13,14
505,111,-29,716,-8,-21,-21
506,-116,11,515,-9,-5,3
507,137,51,809,-31,-21,-6
508,56,22,764,6,17,-8
509,67,69,551,0,-1,-1
510,88,53,274,-10,36,5
511,-102,-143,237,-39,12,-16
512,-159,214,739,-3,-1,5
513,112,27,631,-14,-16,-19
514,-150,-26,613,-46,1,15
515,229,53,826,2,-17,-23
516,-77,70,772,-33,20,4
517,148,-119,260,-14,-8,-8
518,8,-11,378,29,39,9
519,-118,67,267,-56,-15,11
520,-47,90,856,-1,-14,-4
521,40,51,634,-35,-12,-8
522,-83,11,763,-35,-5,14
523,249,24,829,-4,-15,-25
524,-87,-19,677,-30,15,5
525,123,18,360,-13,-7,-2
526,24,-97,243,-8,13,-20
527,-169,204,561,-4,9,13
528,81,-30,718,-8,-25,-19
529,-95,35,735,-34,-1,3
530,88,100,797,-1,-14,0
531,127,1,722,-19,1,-10
532,-25,-38,488,9,11,1
533,30,178,512,-4,34,3
534,80,-19,209,-50,13,-18
535,-125,189,773,24,-1,4
536,138,-8,585,-39,-9,-20
537,-148,-29,708,-22,9,12
538,213,160,771,14,-18,-19
539,0,29,629,-46,10,1
540,86,-80,356,41,8,-6
541,20,76,454,6,46,14
542,63,65,604,-32,-10,4
543,-36,102,861,18,-1,-3
544,75,57,486,-59,-18,-11
545,-110,-14,750,-8,0,18
546,245,35,651,-13,-24,-26
547,-22,0,636,-31,21,9
548,107,11,175,-8,3,-5
549,82,-34,567,-39,9,-17
550,-32,215,750,28,15,9
551,87,17,738,-27,-18,-20
552,-58,46,422,-6,5,-5
553,28,28,780,-1,-8,6
554,180,-33,525,-60,-21,-19
555,73,75,601,35,19,0
556,80,48,267,-14,22,4
557,-89,-249,548,-21,-6,-10
558,-33,294,628,54,13,14
559,134,9,538,-73,-36,-16
560,-140,-34,531,0,0,8
561,193,108,803,-10,-17,-12
562,6,69,657,-45,11,-1
563,101,5,483,44,9,-2
564,44,-11,323,-18,31,10
565,-115,-67,243,-27,-1,-2
566,-105,173,788,-2,6,2
567,86,42,569,-48,-25,-12
568,-125,-30,699,-13,-5,16
569,239,143,828,-21,-24,-27
570,-90,102,705,-24,26,10
571,105,-81,295,19,1,7
572,-34,90,480,0,24,-17
573,-49,140,580,-39,12,17
574,33,0,779,-19,-7,-12
575,-19,52,532,-18,-14,-6
576,-24,0,840,-25,-10,9
577,219,-61,559,-15,-7,-24
578,-5,81,674,18,22,7
579,132,25,313,-8,6,7
580,-2,-204,711,-4,27,-19
581,-44,258,756,-20,4,15
582,126,13,630,-27,-19,-20
583,-130,8,497,-20,-5,4
584,139,93,844,-19,-15,-5
585,58,14,645,-12,11,-6
586,43,58,579,-4,-9,0
587,78,65,302,-11,24,5
588,-91,-135,329,-58,8,-10
589,-101,220,728,8,-8,4
590,97,27,621,-37,-17,-18
591,-147,-30,602,-36,-2,15
592,231,162,906,3,-15,-23
593,-70,69,721,-38,19,9
594,90,-67,326,11,-13,0
595,3,117,454,-10,29,-15
596,-40,98,443,-43,14,5
597,-25,43,855,26,-10,-11
598,37,47,573,-46,-7,-11
599,-80,9,776,-19,0,15
600,244,-4,685,-18,-14,-26
601,-41,38,664,-45,6,7
602,99,19,218,-14,-16,-3
603,76,-35,589,-64,8,-17
604,-45,210,790,9,11,10
605,95,11,712,-9,-24,-19
606,-95,42,510,-28,-1,-1
607,66,51,802,13,-9,1
608,142,-19,585,-60,-4,-15
609,62,85,611,16,6,-3
610,57,49,324,-10,13,2
611,-72,-210,483,-28,5,-10
612,-21,271,674,61,14,9
613,124,5,581,-55,-27,-15
614,-143,-23,579,-17,4,12
615,204,111,809,19,-20,-15
616,-21,79,718,-64,12,1
617,111,-42,464,40,7,-7
618,21,2,328,13,36,7
619,-96,-32,283,-23,-3,2
620,-83,146,823,25,6,-2
621,60,52,645,-40,-17,-10
622,-106,25,750,-12,-5,15
623,242,96,793,-12,-27,-25
624,-87,78,735,-33,23,9
625,71,-52,310,27,11,4
626,-6,61,410,-15,8,-18
627,-74,173,647,-26,10,15
628,55,-7,744,-15,-2,-17
629,-37,37,636,-21,-10,-6
630,21,66,870,-18,-14,5
631,180,-81,609,-21,-8,-19
632,7,62,645,5,30,3
633,110,75,387,-32,-2,4
634,25,-144,634,-5,13,-17
635,-55,218,786,-22,14,9
636,124,14,603,-24,-13,-22
637,-127,-3,598,-6,-3,6
638,164,64,867,-27,-22,-11
639,49,58,682,-9,11,-5
640,105,20,506,-2,13,-6
641,3,1,412,-15,7,0
642,-84,-94,376,21,8,0
643,-39,188,842,-18,4,5
644,95,33,526,-6,-16,-15
645,-135,-22,682,-27,0,13
646,252,37,842,-17,-26,-24
647,-51,122,812,-2,28,5
648,154,-44,246,-26,-12,4
649,-27,4,354,10,30,-24
650,-198,102,397,-48,12,9
651,-4,63,896,3,-2,-12
652,-6,50,521,-6,-10,-8
653,-41,32,789,-47,-13,10
654,229,-8,779,-7,-8,-24
655,-55,96,667,4,23,6
656,170,-19,278,-16,13,7
657,-59,-143,296,-5,21,-17
658,-222,241,571,-44,-8,15
659,95,-29,780,-18,-20,-16
660,-117,13,642,-18,0,5
661,104,58,821,-26,-16,-5
662,53,0,791,-10,10,-8
663,44,20,526,-16,-1,-3
664,100,0,326,25,49,8
665,-56,-129,194,-17,11,-4
666,-161,210,767,-2,-2,9
667,112,23,687,-31,-24,-16
668,-156,-26,670,-36,3,16
669,210,39,822,5,-18,-20
670,-67,52,797,-31,18,6
671,166,-94,251,-9,-7,1
672,-1,-27,355,1,44,-5
673,-150,64,278,-61,-14,10
674,-47,85,861,-5,-23,-7
675,38,49,625,-41,-12,-11
676,-98,-3,749,-30,-1,15
677,235,-17,804,-12,-21,-24
678,-71,96,711,-13,24,13
679,194,-24,219,12,21,6
680,-65,-147,299,-19,38,-15
681,-213,234,500,-21,-4,16
682,81,-28,771,-12,-22,-16
683,-98,32,653,-40,-2,4
684,55,43,760,-1,-9,-2
685,92,-31,761,-28,1,-9
686,28,83,586,5,4,1
687,114,60,238,-1,39,5
688,-84,-179,242,-90,2,-15
689,-181,237,646,36,1,8
690,138,0,660,-44,-20,-18
691,-155,-31,633,-36,5,13
692,187,14,769,12,-16,-21
693,-42,68,818,-54,13,6
694,170,-3,304,10,-1,0
695,-21,40,270,-39,33,-17
696,-168,9,255,-56,5,4
697,-81,108,802,36,-1,-8
698,72,40,577,-60,-11,-14
699,-121,-22,713,-1,6,15
700,242,-35,753,-11,-18,-27
701,-62,131,757,-31,19,13
702,199,14,106,4,7,0
703,-85,-104,273,-68,25,-23
704,-232,217,459,5,9,10
705,62,-14,754,-13,-16,-20
706,-66,34,572,-42,0,-2
707,36,14,750,14,-7,0
708,136,-30,691,-54,-10,-11
709,12,109,648,6,14,-1
710,118,94,153,-32,15,0
711,-121,-169,246,-88,2,-20
712,-174,260,650,51,11,6
713,132,-17,617,-57,-17,-20
714,-137,-35,600,-12,11,11
715,178,14,733,16,-17,-18
716,-13,57,753,-56,9,4
717,164,-15,375,27,12,-5
718,-19,58,239,-54,18,-15
719,-144,-30,204,-31,8,-2
720,-101,142,794,16,1,-7
721,85,50,549,-57,-10,-16
722,-123,-37,708,10,10,14
723,252,-12,752,-19,-25,-27
724,-70,139,784,-19,21,11
725,200,-20,137,2,13,5
726,-75,-97,268,-103,3,-21
727,-238,188,385,5,11,14
728,46,1,763,-49,-6,-17
729,-40,42,567,-10,-3,-7
730,16,49,788,-3,-11,6
731,183,-9,685,-55,-19,-20
732,-52,58,667,44,25,1
733,166,-11,269,-11,29,16
734,-67,-174,213,-28,-10,-9
735,-195,266,634,7,12,16
736,126,-38,612,-73,-33,-18
737,-135,-8,686,12,1,8
738,187,81,850,-37,-28,-14
739,-1,3,766,-42,3,-3
740,79,-103,492,2,9,-9
741,20,49,406,-25,-8,-3
742,-29,-36,146,36,13,1
743,-135,164,872,-12,2,2
744,101,21,614,-26,-22,-17
745,-121,-11,801,-2,3,13
746,258,63,814,-24,-23,-26
747,-65,28,651,2,34,7
748,105,-47,302,-50,-12,0
749,-17,112,444,-34,12,-27
750,-63,120,439,-32,10,8
751,12,24,801,-25,0,-17
752,-7,39,629,1,-10,-9
753,-10,55,866,-43,-16,8
754,216,6,740,-16,-5,-23
755,-45,-17,528,17,31,6
756,33,79,445,-39,15,13
757,86,-3,265,-7,23,-28
758,-147,220,822,-28,14,15
759,115,-40,655,-16,-12,-20
760,-122,13,683,-5,-3,5
761,157,65,856,-34,-18,-9
762,71,21,648,-8,19,-8
763,35,-81,395,8,8,-1
764,-3,165,560,-13,33,7
765,88,7,267,-28,10,-15
766,-107,139,891,-33,-1,4
767,109,20,571,-13,-23,-17
768,-152,-8,745,-46,-6,16
769,241,81,828,-18,-21,-24
770,-41,12,588,-2,34,7
771,109,-101,260,-27,-10,8
772,-13,150,504,2,30,-22
773,-2,95,456,-59,7,9
774,-11,37,856,-13,-7,-11
775,15,50,571,-10,-14,-8
776,-54,41,808,-51,-8,13
777,242,27,733,-1,-6,-22
778,-54,-18,490,-8,24,11
779,28,50,386,-28,-1,9
780,124,19,332,-40,32,-21
781,-122,213,778,-50,-3,15
782,116,-49,673,-8,-24,-19
783,-115,31,638,-30,0,4
784,130,109,801,-16,-13,-3
785,104,25,640,-4,16,-9
786,18,-54,404,-16,0,-2
787,36,61,527,29,40,10
788,130,-33,358,-41,-8,-4
789,-80,218,920,16,-3,9
790,125,12,562,-40,-19,-17
791,-156,-14,666,-41,2,15
792,228,105,758,0,-23,-21
793,-14,-30,570,-49,16,3
794,108,-98,276,-5,-16,-13
795,51,73,443,45,24,-5
796,64,79,669,-25,9,1
797,-17,92,885,42,-3,-10
798,42,55,440,-19,-15,-10
799,-92,-5,772,-17,0,14
800,245,-4,706,13,-15,-24
801,9,16,617,-10,23,12
802,132,-28,133,30,21,5
803,-1,-223,610,-50,12,-17
804,-58,191,697,-25,-10,15
805,99,37,756,-29,-13,-19
806,-85,44,466,-40,0,-1
807,63,42,792,-9,-16,0
808,140,-2,663,-49,-13,-14
809,36,84,639,10,15,-2
810,65,75,239,-28,9,-2
811,-98,-183,383,-27,11,-14
812,-85,259,687,45,11,6
813,135,-18,603,-44,-23,-19
814,-141,-12,598,-2,13,10
815,210,78,826,10,-17,-18
816,-21,55,772,-52,8,0
817,113,-45,473,16,2,-3
818,15,-5,289,-17,37,12
819,-91,-46,234,-35,-4,2
820,-94,152,863,4,4,-2
821,76,30,636,-58,-22,-13
822,-102,10,783,-9,-3,13
823,246,35,830,-24,-24,-24
824,-89,3,739,-18,22,6
825,115,-16,332,-17,-2,-7
826,-13,-14,314,10,10,-15
827,-126,161,514,13,14,10
828,42,6,805,-33,-12,-16
829,-40,25,707,-10,-3,-6
830,36,68,870,-5,-8,3
831,173,6,718,-32,-13,-18
832,-31,-5,560,16,20,1
833,23,109,478,-39,18,8
834,78,4,251,-21,10,-26
835,-137,210,860,-2,17,11
836,132,-33,618,-56,-17,-22
837,-136,-6,733,4,1,7
838,188,103,868,-39,-26,-12
839,30,19,649,-23,16,-4
840,63,-74,435,22,10,-1
841,-18,116,514,-52,28,13
842,73,24,362,-36,-1,-6
843,-93,139,931,-25,8,2
844,97,18,558,-31,-23,-17
845,-125,-15,810,-32,-7,15
846,251,73,813,-28,-24,-23
847,-35,46,543,-2,28,5
848,103,-107,305,-7,5,8
849,15,68,551,-1,18,-11
850,-22,110,606,-35,9,14
851,18,33,839,-33,-9,-9
852,-21,41,579,-12,-17,-7
853,-1,53,875,-39,-13,8
854,208,-9,738,-16,-9,-21
855,-18,17,456,11,23,7
856,37,-9,422,-41,5,12
857,108,-5,381,-3,18,-16
858,-131,210,872,-36,6,15
859,115,-36,678,-22,-21,-16
860,-127,12,669,-13,-3,6
861,161,56,886,-36,-21,-7
862,66,4,649,-6,17,-5
863,41,-64,391,-7,1,-1
864,-5,153,583,-12,34,8
865,86,7,292,-39,11,-11
866,-110,132,919,-22,3,5
867,102,11,609,-6,-21,-17
868,-140,-8,775,-47,-6,14
869,219,30,877,-3,-17,-23
870,-37,-9,624,-16,32,4
871,104,-69,265,-49,-17,0
872,-22,113,491,31,27,-25
873,-51,89,379,-48,16,7
874,-22,39,909,10,5,-12
875,13,46,655,14,-5,-9
876,-75,12,862,-52,-12,11
877,216,-31,820,15,-5,-22
878,-51,-38,588,2,20,-1
879,129,-5,397,-8,-7,-3
880,-1,-134,227,50,16,-7
881,-189,237,612,-10,1,15
882,98,-40,796,-18,-22,-17
883,-108,19,744,-16,1,3
884,71,19,809,-24,-18,-5
885,44,-25,804,-7,15,-5
886,66,29,561,5,-2,1
887,89,32,304,-9,36,9
888,-69,-135,209,-75,2,-11
889,-161,196,783,1,-2,5
890,116,9,686,-29,-22,-17
891,-147,-23,671,-50,0,15
892,184,3,814,11,-12,-22
893,-40,123,825,-35,23,4
894,181,-25,185,-26,-15,-10
895,-31,6,329,49,25,-10
896,-191,65,366,-32,11,4
897,-46,61,895,23,-3,-8
898,35,49,539,-13,-9,-11
899,-55,32,749,-44,-9,11
900,216,-64,764,0,-10,-23
901,42,32,564,-22,17,11
902,119,-39,140,14,9,6
903,-60,-224,470,11,26,-11
904,-187,190,573,-15,-8,15
905,91,4,760,-13,-19,-14
906,-98,38,509,-38,1,4
907,103,83,777,-15,-12,-4
908,121,-91,586,-29,7,-8
909,34,-13,344,-19,2,-7
910,98,84,385,-8,17,0
911,42,-114,445,-66,10,-18
912,-106,186,803,27,6,4
913,126,18,598,-23,-22,-20
914,-149,-12,655,-48,-2,13
915,233,100,771,20,-18,-22
916,1,1,462,-43,18,4
917,104,-108,212,-6,-16,-10
918,31,6,534,30,27,10
919,26,53,623,-18,-11,5
920,-36,62,869,2,-8,-3
921,43,46,526,-34,-10,-11
922,-91,6,802,-17,0,13
923,248,13,781,-11,-22,-24
924,-38,-26,470,-12,27,15
925,21,31,309,20,16,3
926,115,22,384,-62,33,-19
927,-110,177,667,-3,-1,14
928,77,-33,721,-19,-19,-15
929,-85,36,705,-47,1,2
930,45,46,845,8,-9,-1
931,114,-45,726,-41,-3,-11
932,6,-94,419,-7,8,-8
933,30,98,490,-2,10,0
934,59,-94,199,-34,14,-15
935,-158,201,741,33,7,5
936,135,-14,684,-23,-21,-20
937,-140,-18,767,-38,0,11
938,158,15,811,21,-19,-20
939,-31,-7,811,-47,9,3
940,146,-86,345,17,-3,-5
941,10,-11,313,-4,30,12
942,-88,20,269,-11,-16,3
943,-80,107,875,-4,-8,-3
944,67,38,684,-53,-15,-9
945,-121,-25,771,-1,1,15
946,210,-52,774,-29,-28,-23
947,-56,93,799,-17,29,12
948,189,29,132,7,14,-2
949,-79,-83,292,-69,29,-20
950,-211,195,484,16,10,11
951,51,-11,811,-26,-11,-16
952,-56,38,616,-40,3,-1
953,34,66,801,17,-5,-2
954,126,-13,700,-50,-12,-14
955,62,92,585,25,13,-5
956,76,36,170,12,16,6
957,-99,-197,350,0,-3,-9
958,-164,233,691,28,10,8
959,128,-13,649,-53,-30,-19
960,-131,-21,621,-17,2,10
961,186,101,747,1,-24,-15
962,57,-59,639,-40,15,4
963,124,-85,232,17,7,3
964,-9,-112,343,-63,31,3
965,-98,-45,493,-30,-18,0
966,-65,127,861,-10,0,-3
967,82,42,489,-67,-18,-10
968,-101,14,742,9,4,15
969,244,30,708,-45,-28,-24
970,-15,2,489,-13,20,7
971,96,-25,137,1,9,-8
972,108,-56,483,-26,20,-16
973,-109,140,684,33,15,10
974,65,12,759,-25,-17,-17
975,-45,39,546,-29,-5,-5
976,57,69,834,13,-3,1
977,160,-60,606,-50,-14,-16
978,29,33,361,27,15,-1
979,58,-25,401,-7,3,10
980,114,-53,452,2,-13,-7
981,-116,196,897,32,15,9
982,133,-21,591,-49,-34,-19
983,-142,-1,684,-12,-5,7
984,203,97,823,-6,-23,-15
985,40,-9,538,-34,13,0
986,86,-74,356,45,9,-3
987,-22,60,526,-35,13,16
988,64,-9,486,-17,-8,0
989,-76,111,907,-33,5,1
990,81,28,548,-37,-19,-13
991,-109,-4,848,-16,-1,13
992,238,32,795,-32,-29,-24
993,-36,-6,555,5,34,9
994,66,-41,308,-12,13,9
995,11,85,447,-44,14,-22
996,-85,149,541,6,0,11
997,40,-13,791,-66,-5,-13
998,-31,37,687,9,2,-3
999,9,19,898,-25,-11,4
1000,163,-11,736,-39,-12,-16
1001,-3,-96,499,19,25,-6
1002,35,98,486,-50,13,-2
1003,31,-94,193,0,10,-19
1004,-166,212,762,19,11,10
1005,117,-45,677,-63,-21,-20
1006,-118,4,805,21,8,4
1007,133,27,845,-16,-16,-13
1008,5,-22,788,-29,5,-2
1009,107,-66,507,28,8,-7
1010,19,-9,375,-8,11,13
1011,-60,-41,193,20,9,3
1012,-133,156,901,-14,2,0
1013,93,15,656,-27,-33,-16
1014,-113,-33,799,-21,0,14
1015,197,-35,812,-25,-19,-24
1016,-57,89,831,-9,29,7
1017,169,-12,179,-44,-14,-2
1018,-35,-7,315,-37,15,-22
1019,-213,136,460,0,15,9
1020,2,6,898,-42,-2,-14
1021,-11,35,582,7,-7,-7
1022,14,71,827,-34,-12,4
1023,177,-105,668,-31,-14,-20
1024,71,4,524,47,32,8
1025,85,-26,272,-49,16,13
1026,-66,-201,447,3,5,-16
1027,-190,191,671,-23,12,14
1028,110,-23,711,-44,-23,-16
1029,-111,9,606,7,-1,7
1030,177,87,827,-49,-21,-10
1031,66,-31,520,-9,7,-3
1032,77,-45,294,-2,7,-12
1033,7,-2,505,9,1,7
1034,55,-43,485,15,6,2
1035,-110,126,949,-25,-4,1
1036,96,8,560,-3,-26,-15
1037,-123,-18,820,-29,-3,14
1038,211,11,802,-18,-19,-23
1039,-22,-70,594,-14,26,7
1040,131,-84,242,-68,-23,-12
1041,-49,-16,451,31,27,-13
1042,-97,120,364,13,19,8
1043,-1,18,857,-38,-8,-13
1044,-3,42,696,-2,-10,-7
1045,-56,-10,839,-32,-11,7
1046,186,-73,705,-23,-10,-20
1047,-49,50,721,26,31,10
1048,179,38,246,-48,10,13
1049,-76,-156,264,-1,12,-23
1050,-209,232,625,-36,10,14
1051,105,-40,757,-37,-14,-16
1052,-105,18,658,3,-4,7
1053,120,57,824,-44,-22,-9
1054,52,33,693,-10,9,-4
1055,129,-22,375,-5,2,-12
1056,18,-44,344,13,5,7
1057,-112,-113,304,14,5,3
1058,-136,180,873,-22,-8,2
1059,100,10,575,-16,-26,-16
1060,-122,-11,699,-31,-3,12
1061,234,64,747,-11,-20,-22
1062,-7,1,461,-11,25,6
1063,113,-89,218,-47,-12,-9
1064,87,-27,487,29,24,-12
1065,-90,57,618,-5,10,8
1066,12,42,889,-29,-7,-12
1067,-1,50,519,-2,-5,-7
1068,-25,6,876,-34,-10,6
1069,205,-16,681,-12,-6,-20
1070,-6,-87,437,8,27,7
1071,30,111,461,-59,2,9
1072,91,-76,222,-3,12,-26
1073,-172,221,738,-45,12,13
1074,118,-61,682,-35,-15,-18
1075,-117,25,738,0,-3,8
1076,84,-21,761,-43,-22,-9
1077,18,-48,716,-2,15,-4
1078,106,-48,471,2,4,-5
1079,72,-37,341,3,19,12
1080,-54,-98,96,-11,-4,-7
1081,-150,187,815,-31,-2,5
1082,119,7,617,-10,-27,-15
1083,-147,-17,698,-43,-4,15
1084,184,-13,764,-16,-18,-24
1085,-42,176,763,-3,30,5
1086,204,-32,149,-64,-19,-12
1087,-44,-52,270,47,21,-10
1088,-209,95,367,-20,5,8
1089,-18,41,906,-24,-11,-12
1090,10,56,466,3,-7,-9
1091,-30,44,754,-45,-11,9
1092,211,-88,656,-14,-13,-22
1093,36,9,459,20,29,10
1094,111,-64,162,-27,-1,9
1095,-58,-223,520,-5,23,-19
1096,-177,207,664,-31,11,17
1097,121,-24,720,-2,-17,-16
1098,-117,31,516,-19,-5,8
1099,143,70,778,-34,-15,-7
1100,91,-57,526,8,20,-8
1101,40,-27,299,-44,-1,-10
1102,99,75,427,1,10,-4
1103,57,-86,493,4,21,-12
1104,-101,177,871,-32,3,3
1105,117,4,529,0,-15,-19
1106,-152,-3,680,-41,-3,13
1107,244,94,771,3,-17,-23
1108,-28,8,477,2,25,4
1109,124,-133,185,-24,-13,-10
1110,67,10,507,81,33,4
1111,11,62,633,-1,-6,10
1112,-3,53,896,-14,-16,-8
1113,11,52,499,-20,-11,-8
1114,-47,26,801,-33,0,11
1115,236,10,714,-1,-13,-22
1116,-40,-15,444,1,18,11
1117,33,-23,354,-19,-3,9
1118,139,-16,413,-28,32,-11
1119,-120,207,797,-22,-7,16
1120,113,-55,700,-16,-30,-16
1121,-121,45,627,-36,-1,6
1122,99,47,832,-13,-10,-5
1123,85,0,671,-21,15,-5
1124,27,-101,367,-17,-4,-4
1125,7,201,566,-22,21,2
1126,115,-62,104,-87,17,-17
1127,-132,185,826,-12,0,5
1128,127,-1,623,-9,-19,-17
1129,-159,-10,713,-63,-9,14
1130,186,47,824,16,-14,-24
1131,-53,-22,700,-33,24,2
1132,156,-169,233,-18,-18,-13
1133,-45,10,427,74,24,-2
1134,-53,63,199,-59,-5,6
1135,-45,85,861,19,-3,-10
1136,47,51,645,-23,-12,-11
1137,-117,-30,737,-46,-12,13
1138,232,-20,767,1,-17,-24
1139,-78,33,660,-18,19,11
1140,206,-55,224,17,10,5
1141,-39,-150,209,-16,14,-13
1142,-192,238,452,-2,-9,18
1143,88,-50,744,-37,-26,-15
1144,-95,48,683,-34,1,4
1145,46,-5,711,0,-13,-1
1146,83,-30,697,-28,0,-5
1147,35,61,549,3,3,-1
1148,122,61,216,-26,38,7
1149,-91,-208,146,-93,1,-18
1150,-176,241,685,50,-3,7
1151,144,-5,623,-67,-29,-15
1152,-153,-48,579,-29,9,13
1153,187,8,708,25,-12,-22
1154,-47,103,730,-59,18,10
1155,189,-36,233,27,2,-4
1156,-41,45,255,-33,29,-16
1157,-142,-15,184,-83,11,2
1158,-25,75,854,48,-7,-13
1159,50,79,495,-74,-22,-8
1160,-120,-72,616,4,9,14
1161,247,30,702,1,-9,-29
1162,-79,155,607,-25,26,15
1163,209,-64,68,35,26,9
1164,-72,-140,300,-46,25,-21
1165,-175,192,404,-10,3,19
1166,83,-82,699,-36,-16,-20
1167,-91,19,505,-16,4,-2
1168,58,65,769,3,-9,2
1169,127,-2,586,-53,-14,-17
1170,-65,13,588,27,11,-4
1171,142,92,401,-73,-9,-1
1172,19,-162,158,-58,-11,-14
1173,-173,251,695,94,15,3
1174,160,-38,496,-100,-36,-19
1175,-134,-68,593,29,17,7
1176,161,98,663,-8,-22,-15
1177,28,-19,639,-64,1,0
1178,88,-31,529,54,20,-7
1179,25,203,556,-79,-15,-2
1180,52,-30,613,41,11,-1
1181,20,190,945,-26,-3,-9
1182,70,2,365,-21,-8,-21
1183,-134,-79,549,17,13,12
1184,253,53,654,-44,-31,-31
1185,-92,183,725,11,33,10
1186,159,-117,172,16,9,1
1187,2,-70,551,-20,34,-17
1188,-191,154,418,11,10,20
1189,38,2,777,-42,-15,-12
1190,-13,41,461,-14,-11,-3
1191,-34,-63,749,-12,-7,12
1192,211,-123,551,-27,-13,-25
1193,-47,145,827,30,25,8
1194,116,123,474,0,-12,6
1195,2,-108,738,-23,27,-21
1196,-47,316,821,-1,11,14
1197,125,-39,586,-20,-19,-20
1198,-135,-19,402,-59,-18,7
1199,135,99,859,-6,-14,-2
1200,60,11,449,-39,14,-9
1201,10,28,629,4,-2,-1
1202,86,133,555,11,8,5
1203,-26,-90,386,-70,13,-9
1204,-128,246,770,56,-1,0
1205,118,14,580,-57,-17,-17
1206,-147,-93,567,-35,-5,16
1207,175,46,554,13,-20,-23
1208,-62,22,618,-73,12,9
1209,128,-71,435,49,6,-3
1210,38,9,646,-5,36,-13
1211,-99,35,363,-10,2,9
1212,16,123,728,-1,-3,-10
1213,63,54,543,-48,-11,-10
1214,-119,-124,590,-15,6,18
1215,215,-132,544,-33,-24,-31
1216,-97,130,797,-12,27,13
1217,158,-52,364,3,0,-4
1218,-13,-167,750,-68,3,-9
1219,-81,257,486,37,4,16
1220,104,-15,644,-61,-22,-14
1221,-37,8,519,-4,2,-4
1222,-15,-76,672,-1,-2,12
1223,185,-238,446,-62,-28,-25
1224,-94,141,783,49,32,6
1225,134,62,643,-58,-7,-1
1226,-46,-219,678,-3,2,-10
1227,-133,337,631,21,10,14
1228,105,-41,615,-76,-23,-17
1229,-94,-45,591,32,3,7
1230,89,-10,668,-32,-9,-4
1231,24,-175,498,-36,3,-7
1232,34,30,683,3,5,-1
1233,83,74,817,-31,-9,4
1234,-41,-162,471,-33,6,-1
1235,-114,257,723,-5,-3,2
1236,103,17,675,-11,-16,-16
1237,-119,-84,553,-47,-8,14
1238,184,-1,556,21,-8,-21
1239,-94,-40,587,-43,18,12
1240,135,-103,581,17,-4,-3
1241,18,1,786,2,35,-13
1242,-97,28,499,-21,-6,5
1243,-41,135,773,0,-6,-9
1244,74,54,714,-36,-4,-12
1245,-89,-42,498,3,9,18
1246,221,-102,448,-34,-27,-32
1247,-99,91,753,-23,24,13
1248,138,-80,433,-13,-1,-7
1249,0,9,742,-55,7,-6
1250,-150,217,521,25,6,14
1251,36,-27,750,-58,-21,-12
1252,-13,42,661,13,1,-5
1253,-34,107,646,-24,-7,12
1254,229,-179,174,-27,-10,-22
1255,-30,93,529,25,31,9
1256,70,115,423,-42,-4,-4
1257,-50,-112,707,-18,19,-14
1258,-124,282,762,5,2,12
1259,76,-67,655,-52,-17,-13
1260,-108,-21,531,-2,-6,8
1261,130,50,670,-11,-11,-3
1262,110,-119,397,-45,-4,-6
1263,21,81,614,20,-2,-3
1264,82,109,647,-30,17,-1
1265,-47,-183,535,-35,0,-7
1266,-114,257,806,42,6,2
1267,109,5,794,-30,-16,-15
1268,-103,-83,578,-25,-8,14
1269,167,70,492,12,-15,-25
1270,-44,-21,352,-62,10,6
1271,96,-76,608,12,1,-12
1272,-52,234,560,-49,11,3
1273,-32,-18,526,9,8,3
1274,-78,106,855,-21,-3,-6
1275,59,37,655,-41,-9,-15
1276,-133,-112,580,-15,2,21
1277,243,-28,482,-24,-29,-30
1278,1,98,488,28,40,17
1279,224,-126,357,-32,-20,-7
1280,-7,9,535,20,18,-7
1281,-111,74,580,-25,2,10
1282,-14,44,988,-19,-6,-12
1283,48,57,720,13,-2,-15
1284,-51,-19,586,-32,4,18
1285,247,-142,369,-10,-15,-37
1286,-69,47,455,6,24,21
1287,120,33,206,-24,-5,-7
1288,-20,-49,548,-14,10,-13
1289,-62,206,660,-29,-5,11
1290,48,-80,814,-27,-15,-14
1291,-42,12,603,-11,-4,-4
1292,-32,-50,753,-9,7,6
1293,141,-191,328,-37,-12,-23
1294,-48,172,586,16,21,7
1295,54,225,485,-57,-11,-2
1296,12,-80,582,-10,4,-8
1297,-96,211,712,29,12,8
1298,95,-66,763,-65,-14,-15
1299,-95,-59,710,11,5,4
1300,118,-8,558,-24,-13,-1
1301,135,-8,217,-34,2,-2
1302,135,23,437,17,-2,-4
1303,98,91,493,14,30,3
1304,-24,-116,477,-53,4,-5
1305,-123,205,900,21,-3,3
1306,126,11,835,-51,-16,-15
1307,-129,-88,588,-28,5,19
1308,227,86,510,15,-15,-36
1309,101,-41,240,-61,15,13
1310,211,-130,266,44,9,-14
1311,31,-8,392,-52,16,-1
1312,-61,-6,522,-11,6,0
1313,-97,155,978,-5,1,-8
1314,130,55,799,-41,-12,-18
1315,-127,-87,583,5,16,22
1316,297,59,377,-33,-29,-44
1317,61,0,402,3,48,23
1318,224,-171,232,9,-12,-8
1319,-20,44,499,17,44,-11
1320,-124,161,533,-22,-9,18
1321,11,-21,1060,-29,-11,-11
1322,22,-30,532,-15,-11,-8
1323,-90,-91,563,-42,-4,27
1324,333,-137,487,-4,-24,-41
1325,-132,169,404,40,48,19
1326,194,132,300,-9,13,-6
1327,-12,107,296,4,24,-19
1328,14,265,577,-19,3,21
1329,105,-148,928,-32,-14,-17
1330,9,-72,553,-12,-3,-6
1331,-84,-31,383,-38,4,19
1332,153,-278,285,-33,-29,-40
1333,-26,25,168,4,29,23
1334,81,-120,202,-38,-6,-2
1335,-57,-140,434,13,30,-22
1336,-160,318,747,-30,-14,17
1337,140,-148,765,-17,-7,-20
1338,-90,-180,438,-24,-3,2
1339,16,68,569,27,21,5
1340,147,-162,250,-30,-16,-20
1341,-30,103,419,50,24,1
1342,131,72,131,-72,-2,-3
1343,-63,-149,398,-27,-3,-1
1344,-116,233,788,22,7,9
1345,143,-44,724,-61,-19,-17
1346,-68,-201,581,12,3,10
1347,148,130,626,-22,-17,-3
1348,108,-117,284,-39,13,-7
1349,-3,56,511,54,7,-6
1350,71,60,331,-44,7,-2
1351,-85,-77,466,-37,4,-3
1352,-55,173,921,49,2,1
1353,131,-25,714,-96,-17,-16
1354,-92,-204,600,22,10,12
1355,74,73,538,-23,-19,-18
1356,12,-75,338,-56,-3,3
1357,70,-21,578,48,10,-9
1358,-12,71,576,-68,3,-2
1359,-104,32,608,39,12,8
1360,-44,106,1005,-29,-5,-3
1361,122,-55,715,-8,-3,-14
1362,-68,-241,510,-9,2,20
1363,117,-25,547,-8,-4,-30
1364,-18,-88,454,-34,3,12
1365,90,-48,628,-1,-11,-3
1366,-119,293,640,10,35,-9
1367,-77,77,638,-10,18,7
1368,16,44,1076,-2,3,-11
1369,112,-24,780,-18,-13,-11
1370,-21,-30,421,-30,-10,18
1371,182,116,640,11,-17,-31
1372,-81,133,533,-26,32,16
1373,125,36,552,-10,-17,-18
1374,-14,264,595,1,13,-3
1375,-58,105,624,-54,-2,12
1376,25,-33,1111,42,-1,-16
1377,32,-6,742,-58,-10,-9
1378,-35,59,475,-2,13,20
1379,273,-7,522,-3,-17,-35
1380,-77,208,492,-35,16,21
1381,160,12,391,28,-1,-5
1382,-11,88,531,5,40,-17
1383,-94,93,631,-7,6,14
1384,32,-38,1116,-11,-7,-13
1385,-19,-4,619,-23,-9,-5
1386,16,-12,622,-20,-7,15
1387,296,-106,511,-25,-15,-32
1388,-47,178,610,-14,19,18
1389,165,-1,352,8,-4,-14
1390,-66,-29,550,-91,8,-3
1391,-105,150,684,41,5,12
1392,55,-79,1066,-55,-12,-16
1393,-13,-59,571,-11,1,-3
1394,32,54,664,19,8,14
1395,215,-139,470,-29,-7,-31
1396,-67,107,598,29,24,18
1397,149,-23,358,-30,-9,-9
1398,-62,-81,634,-32,20,-9
1399,-116,206,777,20,-3,6
1400,46,-58,983,-56,-12,-14
1401,-27,-76,478,-12,-5,2
1402,-9,45,582,-18,-6,3
1403,134,-214,444,-74,-25,-18
1404,19,94,541,62,21,9
1405,99,7,475,-75,-8,-9
1406,-94,-49,703,9,18,-3
1407,-116,199,856,5,-2,7
1408,70,-98,902,-67,-13,-13
1409,-8,-145,491,20,-1,4
1410,10,25,512,-25,-9,0
1411,77,-205,352,-38,1,-12
1412,45,36,549,46,18,0
1413,7,89,586,-70,-5,-4
1414,-100,-37,698,-6,7,3
1415,-55,187,941,17,2,-1
1416,103,-102,794,-86,-14,-13
1417,14,-136,551,27,3,6
1418,53,-38,608,-21,-3,-12
1419,58,-154,365,-5,5,-3
1420,55,-28,566,9,1,1
1421,-57,292,636,-12,29,-8
1422,-86,-28,644,2,12,0
1423,-11,153,1031,0,-5,-3
1424,103,-56,792,-40,-9,-10
1425,-6,-118,461,-16,-5,13
1426,154,86,595,-32,-17,-18
1427,39,-68,393,-19,2,7
1428,78,-13,624,39,4,-11
1429,-44,333,687,-39,20,-6
1430,-75,52,567,24,9,5
1431,4,70,1069,-21,-8,-8
1432,78,-32,786,-23,-7,-11
1433,-12,-16,434,-4,-1,18
1434,164,189,606,-9,-3,-31
1435,-24,116,489,-1,25,16
1436,110,52,576,14,-4,-16
1437,10,250,523,-43,6,-2
1438,-61,67,593,6,6,9
1439,3,17,1108,-9,-4,-11
1440,41,14,791,-37,-8,-10
1441,-32,-26,477,14,12,18
1442,233,35,506,-28,-20,-33
1443,-57,175,463,-4,16,18
1444,154,-4,445,-27,-14,-7
1445,7,88,479,6,38,-17
1446,-64,71,640,-22,-7,11
1447,15,-14,1126,-19,-2,-11
1448,0,2,672,-15,-8,-4
1449,-15,-29,601,-20,-4,18
1450,274,-75,519,-54,-28,-31
1451,-21,170,563,10,12,17
1452,165,-20,375,-18,-1,-11
1453,-51,7,578,-42,19,-8
1454,-87,123,669,46,6,10
1455,31,-57,1096,-74,-14,-13
1456,-30,-8,605,9,-5,-6
1457,34,19,651,-21,-5,14
1458,227,-119,501,-42,-11,-32
1459,-58,144,611,33,29,16
1460,156,-8,353,-37,-9,-12
1461,-83,-84,599,-47,10,-2
1462,-97,179,720,31,1,8
1463,47,-68,1051,-69,-19,-16
1464,-29,-46,534,-7,-1,-1
1465,-2,93,634,1,9,6
1466,157,-171,475,-67,-24,-23
1467,-50,114,557,42,23,14
1468,130,-35,374,-31,-1,-6
1469,-70,-78,674,0,36,-8
1470,-121,214,799,14,-1,7
1471,55,-58,955,-48,-19,-13
1472,-50,-86,494,-20,-8,5
1473,16,68,560,-9,-5,-2
1474,115,-215,383,-68,-13,-12
1475,32,83,546,34,2,6
1476,68,-5,445,-17,13,-5
1477,-79,-80,689,-18,24,-9
1478,-118,199,844,20,7,3
1479,72,-51,872,-56,-17,-13
1480,-40,-129,532,-10,-5,7
1481,40,42,498,-19,-24,-7
1482,73,-157,278,-13,14,-3
1483,57,19,528,3,1,0
1484,15,0,486,35,34,-6
1485,-67,-66,690,-55,-10,-2
1486,-81,163,950,10,5,-3
1487,98,-47,771,-31,-5,-13
1488,-42,-156,549,-28,-2,15
1489,60,35,377,-1,-28,-17
1490,24,-83,260,-53,0,5
1491,85,-45,506,-7,9,-7
1492,-22,-2,540,14,35,-7
1493,-79,-21,681,-3,7,2
1494,-57,116,1004,-13,-1,-3
1495,92,-18,710,-15,0,-11
1496,-68,-168,509,-32,-8,17
1497,127,11,387,2,-18,-29
1498,-13,-37,303,-38,9,10
1499,109,-93,542,26,2,-12
1500,-44,-21,492,-13,37,-4
1501,-93,37,722,-11,8,4
1502,-42,78,1047,8,1,-10
1503,96,6,700,-37,-10,-9
1504,-69,-127,480,-14,-3,18
1505,143,-41,385,-2,-21,-30
1506,-56,24,391,-43,21,17
1507,104,-149,438,-9,-7,-10
1508,-20,-22,475,11,32,-11
1509,-113,92,737,-25,-4,10
1510,1,15,1114,-24,0,-13
1511,66,14,629,-20,-5,-5
1512,-54,-50,460,-24,-6,19
1513,137,-112,421,-28,-28,-32
1514,-41,41,432,-15,15,17
1515,108,-134,342,-11,5,-8
1516,-29,-62,536,5,36,-17
1517,-129,150,719,-8,0,11
1518,8,-35,1108,-31,-6,-15
1519,40,39,536,-3,-4,-7
1520,-37,-47,469,-38,-15,15
1521,154,-162,448,-15,-12,-29
1522,-46,70,482,-26,9,15
1523,103,-68,319,12,7,-5
1524,-45,-121,559,-17,21,-15
1525,-123,207,716,2,2,13
1526,38,-67,1046,-41,-2,-15
1527,3,16,511,-2,-3,-2
1528,-28,35,505,-34,-17,9
1529,139,-189,446,-9,-11,-20
1530,-33,90,467,38,28,13
1531,103,-44,295,-41,-14,-7
1532,-54,-103,600,0,25,-9
1533,-111,223,778,-23,-7,8
1534,66,-72,932,-18,-13,-15
1535,-58,-56,527,-25,-4,4
1536,22,94,589,-5,7,-4
1537,107,-199,358,-27,-9,-12
1538,0,77,515,22,10,3
1539,99,19,312,-36,-14,-3
1540,-57,-117,586,-25,2,2
1541,-94,209,821,-18,4,5
1542,86,-31,834,-50,-11,-16
1543,-89,-115,581,-4,-5,7
1544,77,99,614,-27,-5,-10
1545,62,-135,311,21,19,-3
1546,7,24,510,32,13,-3
1547,76,55,366,-39,-6,-2
1548,-76,-106,530,-53,0,4
1549,-49,168,921,23,-5,-2
1550,94,-2,743,-47,-18,-14
1551,-106,-132,621,-22,1,13
1552,124,62,543,20,3,-21
1553,22,-42,361,-30,8,7
1554,55,2,497,19,8,-10
1555,27,51,461,-33,-5,-3
1556,-88,-53,512,3,7,8
1557,-25,107,970,-32,-5,-5
1558,67,20,693,-16,-9,-14
1559,-116,-121,625,-23,-2,21
1560,223,30,543,10,-5,-36
1561,-8,27,443,-36,18,18
1562,126,-12,465,23,7,-13
1563,-23,45,408,-16,29,-4
1564,-71,0,541,-14,0,4
1565,-12,63,1039,14,2,-9
1566,34,40,680,-41,-9,-11
1567,-79,-83,624,-20,-5,21
1568,263,-34,543,-17,-27,-31
1569,-33,130,518,-38,22,18
1570,178,-33,326,2,-3,-6
1571,-5,31,351,28,43,-17
1572,-45,55,570,-33,-6,14
1573,17,-15,1098,-1,0,-13
1574,8,27,635,-23,-4,-7
1575,-49,-39,602,-31,-2,19
1576,308,-80,484,-32,-26,-31
1577,-64,168,454,-9,13,18
1578,186,21,288,-24,-19,-8
1579,-17,71,324,5,16,-7
1580,-36,160,624,-18,6,14
1581,46,-80,1024,-51,-11,-15
1582,-29,7,692,21,-5,-5
1583,11,68,556,-44,-2,13
1584,298,-78,397,7,-4,-29
1585,-85,190,490,40,35,19
1586,150,125,390,-33,-18,-11
1587,-56,58,362,-42,6,-2
1588,-14,196,732,22,7,10
1589,65,-82,965,-33,-18,-18
1590,-52,-11,712,-21,-6,1
1591,35,209,586,5,13,7
1592,249,-65,261,-39,-22,-23
1593,-43,169,609,45,37,9
1594,123,226,428,-44,-10,-6
1595,-80,-12,449,7,9,-2
1596,-14,234,844,-21,4,10
1597,74,-102,935,-31,-8,-17
1598,-47,-55,629,-5,-6,5
1599,82,326,611,-13,-2,-1
1600,183,-65,236,-48,-12,-16
1601,3,89,644,31,18,2
1602,53,298,491,-41,15,-5
1603,-91,-52,472,-24,6,-6
1604,-3,205,921,35,2,5
1605,81,-65,866,-76,-21,-15
1606,-34,-75,589,10,6,10
1607,118,306,619,-3,-13,-12
1608,97,-32,324,-30,21,0
1609,43,15,582,14,10,-3
1610,24,351,535,-13,22,-5
1611,-94,-49,490,-41,-6,1
1612,14,153,1032,10,8,0
1613,85,-38,797,-18,-7,-15
1614,-43,-63,491,-29,2,19
1615,150,249,582,11,-15,-24
1616,48,-8,392,-46,5,10
1617,101,-16,570,-6,6,-9
1618,-38,329,593,-15,25,-4
1619,-67,34,512,10,5,5
1620,1,61,1063,-17,-2,-5
1621,84,-16,758,-16,-3,-13
1622,-36,-30,450,-27,-5,21
1623,176,187,579,-10,-18,-33
1624,6,44,476,-42,16,17
1625,121,1,526,22,-1,-15
1626,-46,277,528,-11,29,0
1627,-54,92,566,-23,2,7
1628,1,-2,1117,18,2,-10
1629,60,19,758,-45,-15,-10
1630,-46,47,495,-12,4,22
1631,203,121,498,-10,-19,-35
1632,-46,137,559,-16,38,20
1633,159,0,460,-10,-7,-13
1634,-61,221,490,15,18,-5
1635,-26,153,637,-40,0,12
1636,14,-55,1110,-4,2,-12
1637,32,12,709,-1,-8,-7
1638,-43,147,552,-38,-2,19
1639,240,27,440,11,-19,-38
1640,-60,193,611,0,24,17
1641,139,50,467,-33,-6,-13
1642,-62,150,459,-24,8,-5
1643,-23,190,673,13,3,11
1644,44,-99,1028,-61,-12,-15
1645,-11,5,722,18,1,-5
1646,11,195,585,-30,-1,15
1647,241,-37,370,-11,-8,-32
1648,-61,213,608,19,30,16
1649,125,133,480,-35,-7,-9
1650,-71,66,442,-21,15,-5
1651,-7,204,766,-17,1,11
1652,57,-91,986,-23,-13,-16
1653,-38,-4,703,-16,-4,1
1654,26,239,606,14,14,6
1655,227,-55,265,-11,-8,-23
1656,-45,176,651,33,39,9
1657,121,214,456,-52,-14,-8
1658,-86,-9,479,4,9,0
1659,-10,230,865,-29,5,8
1660,59,-93,944,-22,-5,-17
1661,-40,-46,637,-15,-9,5
1662,76,306,622,-13,0,-1
1663,184,-52,255,-24,-6,-15
1664,-10,124,665,24,19,0
1665,88,293,478,-45,4,-6
1666,-89,-52,474,-9,6,-2
1667,-4,207,927,29,2,2
1668,71,-63,865,-79,-23,-15
1669,-33,-87,581,8,6,10
1670,112,318,612,-15,-15,-11
1671,102,-16,345,-49,9,-4
1672,37,31,581,18,9,-5
1673,53,353,524,-9,17,-6
1674,-88,-56,481,-31,-1,1
1675,12,149,1027,-4,4,0
1676,83,-35,801,-25,-13,-15
1677,-44,-70,501,-26,0,19
1678,145,271,573,16,-11,-24
1679,46,9,411,-31,13,8
1680,96,-4,564,2,12,-11
1681,-12,328,562,-19,20,-5
1682,-64,30,497,6,2,4
1683,-1,57,1058,-25,-5,-6
1684,83,-16,762,-10,-1,-12
1685,-32,-32,451,-17,-5,21
1686,181,207,565,3,-16,-35
1687,11,56,478,-25,22,16
1688,122,3,520,33,0,-15
1689,-41,283,505,-17,30,-1
1690,-52,86,556,-24,-1,6
1691,4,-6,1109,12,-3,-12
1692,70,4,740,-48,-14,-12
1693,-41,45,468,6,9,22
1694,208,122,487,-11,-24,-34
1695,-42,142,559,8,41,18
1696,160,5,451,-8,-11,-15
1697,-53,231,469,-6,5,-4
1698,-37,150,624,-50,-9,10
1699,24,-67,1104,-13,-2,-15
1700,29,-4,688,-7,-7,-8
1701,-40,145,529,-24,4,20
1702,242,25,418,12,-11,-38
1703,-63,212,591,8,30,19
1704,147,54,446,-12,-1,-17
1705,-68,156,435,-31,2,-3
1706,-34,190,655,20,0,12
1707,50,-100,1026,-66,-14,-17
1708,-15,-6,704,23,5,-6
1709,12,168,554,-29,1,14
1710,256,-43,367,-25,-14,-35
1711,-72,233,561,9,21,18
1712,141,129,444,-47,-17,-11
1713,-65,61,416,-58,8,-3
1714,-24,193,753,15,2,10
1715,67,-81,989,-50,-18,-16
1716,-48,-25,684,-15,-3,-1
1717,56,162,571,15,18,8
1718,247,-84,293,-23,-10,-26
1719,-73,184,575,56,28,11
1720,170,179,363,-41,-20,-6
1721,-88,-45,446,-8,27,-6
1722,-24,216,846,-14,3,7
1723,64,-66,932,-22,-14,-16
1724,-53,-87,637,-40,-15,5
1725,124,109,573,2,1,-4
1726,189,-123,276,-57,-10,-14
1727,-12,163,598,12,8,7
1728,167,148,307,25,21,-5
1729,-96,-134,505,-31,11,-10
1730,-39,176,884,10,11,3
1731,64,2,867,-43,-9,-14
1732,-62,-133,648,-20,-10,9
1733,157,64,629,-17,-36,-10
1734,122,-96,376,-34,10,-3
1735,32,103,586,-36,3,0
1736,113,143,423,23,20,-8
1737,-101,-118,529,-58,-9,1
1738,-21,146,959,3,6,-1
1739,62,11,776,-14,-3,-14
1740,-82,-141,645,-39,-5,15
1741,161,55,550,16,-18,-21
1742,61,-19,419,-27,13,6
1743,65,28,562,-14,14,-9
1744,39,70,500,-15,1,-4
1745,-98,-49,550,8,2,7
1746,-29,100,987,-45,-8,-5
1747,55,4,703,7,5,-12
1748,-90,-129,612,-38,-2,18
1749,200,47,532,12,-8,-33
1750,7,20,443,-8,19,14
1751,114,-26,517,7,3,-16
1752,-25,26,450,-26,14,2
1753,-84,10,596,-24,-4,7
1754,-27,70,1044,-13,-10,-11
1755,42,14,663,-42,-10,-12
1756,-68,-97,575,7,9,19
1757,201,-7,513,-17,-20,-36
1758,-42,100,509,-1,36,20
1759,138,-82,363,-10,-14,-17
1760,-38,4,472,6,16,-1
1761,-92,68,620,-57,0,9
1762,17,4,1118,0,-5,-14
1763,10,0,573,-20,-10,-7
1764,-46,-46,593,-22,11,20
1765,214,-47,505,5,-17,-38
1766,-47,132,519,-2,30,20
1767,159,-55,263,-26,-1,-14
1768,-66,-41,537,-25,11,-3
1769,-92,136,626,5,0,13
1770,43,-58,1067,-54,-12,-17
1771,-18,-18,531,24,3,-5
1772,10,3,625,-30,-4,17
1773,237,-108,482,5,-5,-35
1774,-73,157,521,14,25,16
1775,171,2,265,-13,1,-13
1776,-84,-93,511,-41,16,-7
1777,-77,177,673,2,1,12
1778,73,-87,999,-29,-12,-18
1779,-40,-60,562,-10,0,-2
1780,31,71,642,14,7,11
1781,219,-156,419,-34,-19,-27
1782,-68,163,504,18,40,10
1783,180,22,260,-48,-21,-8
1784,-100,-105,543,0,12,0
1785,-80,207,769,-34,3,11
1786,84,-95,898,-9,-8,-17
1787,-77,-128,546,-29,-10,2
1788,62,129,645,1,10,0
1789,147,-197,345,-8,-6,-20
1790,-12,88,552,13,22,5
1791,112,26,326,-6,8,-3
1792,-66,-90,590,29,15,-2
1793,-105,204,816,-22,4,4
1794,94,-31,819,-41,-12,-17
1795,-74,-179,528,-10,-2,8
1796,44,80,547,-26,-16,-8
1797,79,-125,296,15,0,-9
1798,34,32,557,-34,0,5
1799,9,15,458,28,36,-6
1800,-84,-37,662,-12,-5,-7
1801,-96,161,944,-20,1,1
1802,107,-70,744,-3,1,-13
1803,-35,-202,523,-24,0,13
1804,40,21,414,-2,-25,-17
1805,19,-87,323,5,18,3
1806,84,-37,528,-15,13,-11
1807,-47,101,644,-12,-8,-2
1808,-80,26,668,-22,13,8
1809,-26,90,1035,-31,-11,-6
1810,134,-41,721,6,-6,-16
1811,-28,-227,443,-86,-13,16
1812,114,-7,538,39,0,-28
1813,27,-85,386,-54,-2,9
1814,92,-65,573,-3,-13,-3
1815,-131,313,652,21,35,-8
1816,-82,82,619,-42,9,8
1817,21,28,1072,18,3,-10
1818,121,-29,767,-18,-11,-9
1819,-13,-27,398,-47,-10,19
1820,182,127,609,25,-21,-31
1821,-61,124,512,-40,32,19
1822,125,33,521,9,-13,-19
1823,-20,263,529,-6,11,-1
1824,-57,108,613,-85,-7,11
1825,19,-29,1097,34,-4,-15
1826,35,7,743,-60,-13,-10
1827,-36,39,475,-7,10,18
1828,277,-10,489,12,-15,-37
1829,-56,197,465,-61,8,19
1830,157,-10,360,30,-3,-6
1831,-10,58,523,-10,35,-17
1832,-97,92,644,-4,-2,14
1833,31,-31,1112,-16,-6,-14
1834,-19,3,604,-17,-8,-4
1835,10,-12,646,-9,-5,19
1836,284,-86,492,-26,-14,-35
1837,-51,173,584,6,23,19
1838,153,-33,332,-6,-7,-15
1839,-66,-48,582,-58,4,-1
1840,-109,168,693,63,11,9
1841,52,-74,1072,-69,-12,-17
1842,-10,-72,531,19,6,-6
1843,-19,38,596,-2,7,12
1844,189,-143,468,-56,-22,-32
1845,-52,100,550,20,12,20
1846,107,-11,387,-34,2,-7
1847,-76,-50,687,11,18,-13
1848,-144,183,780,-6,-2,10
1849,53,-74,999,-38,-2,-13
1850,11,-97,455,20,0,1
1851,-41,-9,461,-40,-9,10
1852,108,-221,414,-29,-20,-20
1853,15,70,505,43,38,6
1854,65,80,519,-70,-17,-6
1855,-122,7,720,16,18,-5
1856,-68,213,864,-65,-6,5
1857,96,-106,899,-21,-12,-17
1858,41,-121,509,-11,-5,3
1859,33,25,607,-30,1,-6
1860,123,-176,346,0,-9,-15
1861,19,17,619,-2,2,6
1862,7,310,605,8,15,-7
1863,-123,-16,589,-39,8,2
1864,7,209,920,36,6,3
1865,80,-97,866,-40,-9,-13
1866,24,-85,513,-17,2,8
1867,87,312,640,15,-14,-10
1868,71,-2,322,-50,5,-6
1869,-1,110,645,14,4,-3
1870,131,283,488,3,25,-5
1871,-111,-95,504,-46,9,0
1872,4,152,1013,13,-6,-4
1873,66,0,817,-69,-13,-12
1874,-40,-144,583,-18,-5,11
1875,182,38,509,-13,-14,-16
1876,76,-10,416,-42,-3,5
1877,54,54,643,22,10,-10
1878,81,98,486,-74,-14,-6
1879,-111,-35,579,5,6,7
1880,-18,100,1016,-39,-10,-7
1881,54,-27,723,-4,-2,-14
1882,-83,-175,568,-15,-2,15
1883,184,76,513,4,-2,-29
1884,6,-22,423,-26,5,9
1885,85,-42,630,-4,-7,-4
1886,-19,38,550,30,38,-7
1887,-136,55,686,-40,4,9
1888,-26,81,1058,-2,0,-10
1889,89,-18,648,-23,-10,-8
1890,-73,-205,430,-32,-9,20
1891,128,-50,394,8,-23,-29
1892,-60,9,484,-20,38,18
1893,93,-53,514,2,-8,-13
1894,-82,172,659,17,24,-9
1895,-73,126,717,-60,-2,10
1896,44,-23,1106,25,-2,-14
1897,110,-17,668,-54,-10,-6
1898,-21,-124,468,-14,8,18
1899,153,-83,477,-13,-21,-33
1900,-47,31,572,-15,10,19
1901,125,32,539,-11,-8,-13
1902,-101,206,657,-28,14,-9
1903,-42,183,685,17,1,16
1904,42,-66,1052,-54,-10,-14
1905,29,-21,657,10,2,-6
1906,-2,189,532,-23,1,17
1907,232,-6,432,-25,-12,-37
1908,-98,226,567,19,22,19
1909,167,73,449,-20,1,-6
1910,-68,35,526,19,23,-14
1911,-55,168,715,-16,5,10
1912,48,-76,1025,-48,-5,-13
1913,-30,-34,662,18,-4,-4
1914,70,36,609,-67,-21,11
1915,256,-121,416,-1,-17,-22
1916,-37,175,608,3,32,13
1917,155,45,358,-34,-14,-10
1918,-72,-84,600,-5,11,-2
1919,-87,183,781,-41,-5,10
1920,54,-85,989,-4,-8,-17
1921,-53,-94,565,-37,-6,0
1922,33,110,650,8,14,5
1923,156,-188,372,-27,-14,-24
1924,-9,116,571,15,21,15
1925,103,-4,399,7,12,-7
1926,-86,-41,707,-14,34,-7
1927,-140,193,833,0,-2,6
1928,73,-65,905,-30,-11,-13
1929,-31,-178,459,-31,-14,5
1930,13,36,464,-5,-15,-3
1931,82,-169,325,-47,7,-6
1932,49,54,515,33,13,-2
1933,15,82,553,-40,-4,-8
1934,-109,-5,695,-36,2,3
1935,-65,180,916,56,6,-1
1936,115,-113,786,-83,-14,-16
1937,16,-159,530,7,4,7
1938,30,-20,590,1,-3,-11
1939,87,-153,358,-44,-7,-4
1940,39,-45,570,21,4,3
1941,-41,356,620,-12,30,-9
1942,-113,-15,598,-4,2,1
1943,31,151,1006,-12,-1,-1
1944,102,-65,810,-20,-2,-10
1945,5,-77,434,1,1,14
1946,116,257,619,-37,-25,-20
1947,7,54,403,-11,12,6
1948,48,79,637,-13,-1,-9
1949,72,291,551,-33,2,-4
1950,-98,-6,516,-3,26,4
1951,7,80,1048,-21,-4,-9
1952,52,18,803,-5,-7,-13
1953,-23,-119,492,-66,-15,15
1954,232,49,481,12,-7,-26
1955,44,83,380,-53,4,13
1956,114,33,570,3,-15,-10
1957,30,103,461,9,28,-5
1958,-110,-1,603,-35,9,12
1959,-3,59,1073,28,2,-12
1960,36,-7,705,-34,-5,-9
1961,-34,-119,553,-11,6,20
1962,230,22,456,25,-18,-34
1963,-19,87,527,-42,31,19
1964,117,-104,443,0,-13,-12
1965,-5,4,520,20,32,-10
1966,-137,102,670,-51,3,11
1967,18,23,1145,26,-7,-16
1968,27,-21,525,-70,-18,-6
1969,-62,-73,486,-8,7,17
1970,154,-64,440,-26,-19,-33
1971,-34,56,488,-27,8,20
1972,88,-79,394,36,1,-8
1973,-36,0,658,-37,31,-15
1974,-170,153,711,25,3,14
1975,32,-42,1107,-36,-11,-13
1976,64,-25,471,-10,-6,-5
1977,-51,-98,397,-12,-7,17
1978,137,-156,433,-47,-17,-32
1979,-56,67,475,2,22,18
1980,85,-29,469,9,-5,-14
1981,-89,7,686,-80,6,-2
1982,-95,189,752,72,12,9
1983,71,-105,1002,-88,-25,-17
1984,79,-83,530,-12,0,-4
1985,-28,-81,531,25,10,8
1986,120,-219,443,-74,-21,-30
1987,-12,24,480,47,21,17
1988,40,141,556,-28,-4,-8
1989,-143,35,672,-28,27,-12
1990,-34,220,827,31,-3,7
1991,84,-110,954,-61,-12,-13
1992,24,-70,555,-14,-6,3
1993,59,72,593,-6,-6,3
1994,181,-175,310,-78,-14,-13
1995,-5,27,594,83,23,8
1996,35,262,577,-64,1,-8
1997,-136,-7,582,-27,14,-3
1998,4,233,886,48,4,4
1999,75,-112,889,-83,-15,-12
2000,11,-79,550,37,5,5
2001,96,301,633,-6,-15,-5
2002,131,-40,306,-61,9,-7
2003,-17,108,613,68,16,-3
2004,92,337,472,-44,1,-6
2005,-111,-45,510,-58,4,4
2006,20,172,965,59,2,-2
2007,79,-37,830,-90,-19,-13
2008,-20,-109,546,10,5,9
2009,121,256,498,17,-2,-16
2010,57,19,331,-65,6,0
2011,50,83,552,39,1,-5
2012,105,289,426,-48,-4,-4
2013,-93,-55,457,-41,24,5
2014,12,111,1023,33,-3,-6
2015,59,30,762,-52,-15,-12
2016,-39,-137,496,-37,-10,14
2017,193,95,463,40,6,-24
2018,32,55,331,-84,-1,9
2019,102,56,492,39,-2,0
2020,57,141,402,1,27,-11
2021,-97,-40,500,-45,13,6
2022,2,82,1051,39,9,-9
2023,60,23,693,-42,-12,-9
2024,-47,-125,548,-40,-13,18
2025,258,3,519,22,-14,-28
2026,4,100,425,-52,24,15
2027,138,-19,438,4,-12,-13
2028,-26,81,410,9,20,-4
2029,-93,29,611,-90,-11,11
2030,20,14,1084,44,10,-14
2031,29,-11,632,-37,-5,-10
2032,-33,-88,569,-32,5,24
2033,232,5,488,23,-23,-37
2034,-30,109,509,-21,39,20
2035,132,-96,314,-36,-24,-12
2036,-12,-18,543,41,18,-8
2037,-127,133,654,-84,1,15
2038,31,2,1160,30,-3,-15
2039,22,-16,468,-32,-10,-7
2040,-53,-41,508,-40,-1,17
2041,164,-101,470,39,-5,-35
2042,-45,78,502,-73,0,19
2043,94,-55,391,30,1,-6
2044,-62,-19,630,-30,20,-14
2045,-159,173,710,-19,-1,14
2046,44,-75,1082,-10,-3,-14
2047,70,-61,510,-25,-5,-6
2048,-48,-66,447,0,-9,15
2049,132,-184,465,-8,-9,-33
2050,-44,50,495,-2,30,15
2051,81,50,517,20,-2,-12
2052,-121,41,668,-62,17,-5
2053,-63,196,819,12,-2,8
2054,70,-83,974,-33,-10,-15
2055,56,-69,558,-37,-4,-1
2056,17,-26,589,11,4,2
2057,155,-177,355,-79,-32,-20
2058,-12,27,606,55,18,12
2059,54,224,580,-54,-3,-10
2060,-130,24,592,-6,15,-6
2061,-5,240,858,8,-4,7
2062,66,-118,946,-52,-4,-11
2063,9,-62,569,11,-3,2
2064,69,326,614,-11,0,1
2065,159,-51,270,-59,-17,-15
2066,-40,167,682,54,22,2
2067,131,257,427,-63,3,-4
2068,-108,-64,512,11,12,-3
2069,-12,191,909,-2,6,-1
2070,56,-11,899,-60,-13,-14
2071,-26,-127,618,31,4,7
2072,158,104,527,-44,-17,-9
2073,119,-52,315,12,7,-3
2074,33,118,588,6,9,0
2075,133,168,436,-3,19,-7
2076,-114,-109,561,-9,4,3
2077,-19,137,967,-22,1,-1
2078,64,4,795,3,3,-12
2079,-59,-168,620,-30,1,14
2080,158,95,523,-7,-19,-19
2081,81,-32,386,-12,13,5
2082,42,20,588,-5,9,-10
2083,62,29,495,-6,-1,-6
2084,-109,-12,609,-39,13,4
2085,-38,109,1013,1,1,-9
2086,64,-4,665,9,-7,-14
2087,-92,-188,541,-75,-15,13
2088,152,52,434,45,3,-28
2089,-4,-29,350,-56,0,10
2090,98,-45,605,17,-9,-7
2091,-38,22,531,18,33,-8
2092,-137,62,696,-55,3,10
2093,-26,70,1056,36,6,-11
2094,99,-20,662,-27,-9,-9
2095,-76,-212,419,-21,-3,20
2096,132,-47,386,31,-20,-32
2097,-62,11,428,-33,45,20
2098,84,-87,478,8,-10,-15
2099,-66,116,633,2,14,-4
2100,-93,128,714,-79,-4,13
2101,47,-27,1113,37,-6,-15
2102,124,-32,641,-67,-16,-8
2103,-29,-153,448,-9,9,16
2104,130,-103,454,-6,-14,-36
2105,-23,-17,503,-52,9,20
2106,112,11,514,31,-2,-5
2107,-155,196,628,-25,36,-16
2108,-55,186,680,-1,4,15
2109,57,-71,1043,-20,-5,-13
2110,72,-33,650,-12,-7,-4
2111,29,106,534,-5,-5,18
2112,211,-19,399,-31,-17,-34
2113,-91,187,626,6,23,17
2114,137,116,486,-15,-12,-15
2115,-82,112,477,-72,2,-1
2116,-30,197,709,38,3,10
2117,67,-95,993,-81,-16,-15
2118,-19,-25,658,4,4,-4
2119,60,144,531,8,9,11
2120,255,-46,345,-50,-16,-30
2121,-67,202,508,42,24,20
2122,163,104,335,-38,3,-7
2123,-85,-57,518,7,24,-13
2124,-52,172,785,9,-6,9
2125,61,-51,975,-54,-7,-12
2126,-63,-60,605,21,-1,1
2127,103,93,636,-26,-9,6
2128,215,-158,349,-52,-19,-16
2129,-23,182,605,60,30,4
2130,151,43,343,-112,-21,-8
2131,-97,-91,613,33,13,2
2132,-82,192,830,-29,-2,4
2133,70,-64,913,-50,-12,-17
2134,-77,-157,543,15,0,4
2135,71,114,604,-30,7,-5
2136,108,-149,314,-17,-8,-15
2137,8,81,600,-1,4,8
2138,57,26,470,7,30,-4
2139,-93,-54,669,4,11,-6
2140,-110,175,910,-22,5,1
2141,88,-67,793,-23,-7,-14
2142,-39,-180,519,-13,-5,10
2143,34,32,424,-50,-37,-11
2144,44,-94,315,2,19,1
2145,70,0,546,-11,15,-6
2146,-10,94,583,-6,-4,-6
2147,-82,-1,699,-54,7,6
2148,-33,126,1001,7,-1,-3
2149,114,-57,740,-18,-9,-14
2150,-18,-213,507,-64,-8,13
2151,82,6,531,42,2,-20
2152,44,-115,401,-61,-6,4
2153,74,-50,618,17,-5,-3
2154,-84,315,675,5,32,-10
2155,-84,70,595,-28,8,5
2156,18,62,1046,17,-4,-9
2157,103,-46,765,-36,-7,-7
2158,3,-47,406,-26,-9,18
2159,160,167,592,18,-11,-28
2160,-13,102,493,-56,18,15
2161,93,61,591,42,0,-16
2162,13,259,496,-51,5,-2
2163,-70,75,586,-8,6,10
2164,8,17,1101,14,-1,-12
2165,41,17,761,-62,-12,-10
2166,-20,-25,445,16,8,17
2167,246,47,460,-28,-24,-36
2168,-49,177,418,-15,17,18
2169,151,7,421,0,-9,-6
2170,10,89,458,-4,41,-16
2171,-88,67,638,-9,-3,13
2172,26,-11,1122,-27,-5,-11
2173,-2,5,660,-18,-11,-5
2174,-4,-30,576,-6,0,19
2175,284,-52,452,-65,-28,-32
2176,-31,161,517,29,23,20
2177,149,-28,325,-36,-8,-14
2178,-48,-7,582,-47,6,-3
2179,-104,139,652,21,-5,11
2180,46,-63,1097,-95,-20,-14
2181,-16,-36,523,31,3,-6
2182,13,23,564,-24,-2,17
2183,210,-91,441,1,-5,-39
2184,-58,113,573,44,25,17
2185,121,-46,335,-16,6,-9
2186,-74,-79,622,32,26,-12
2187,-129,195,696,36,10,8
2188,65,-67,1053,-73,-10,-15
2189,9,-75,426,30,-1,-4
2190,-40,8,465,-64,-15,9
2191,140,-177,485,-50,-34,-22
2192,-26,91,381,45,30,12
2193,82,5,430,-95,-17,-7
2194,-100,-1,702,42,21,-3
2195,-113,189,791,-44,-4,11
2196,85,-127,967,-25,-7,-15
2197,24,-141,487,3,-1,1
2198,-24,-35,510,-21,11,6
2199,107,-262,395,-2,-13,-24
2200,18,28,495,4,10,9
2201,8,261,583,-11,14,-6
2202,-157,10,650,-1,26,-10
2203,0,224,868,4,6,4
2204,111,-102,877,-21,-11,-14
2205,30,-107,520,-17,-6,6
2206,90,245,667,-25,-21,-6
2207,114,-47,323,-28,16,-5
2208,-52,138,630,7,14,-4
2209,125,335,466,-8,13,-4
2210,-104,-58,490,-38,6,3
2211,11,178,937,52,8,-3
2212,91,-5,846,-74,-14,-16
2213,-29,-138,570,0,5,12
2214,177,125,472,-30,-17,-14
2215,102,-38,363,-16,7,3
2216,21,126,602,43,15,-6
2217,123,108,413,-35,-8,-3
2218,-113,-40,596,-21,17,7
2219,-17,113,992,20,-2,-5
2220,72,-16,710,-22,-6,-14
2221,-76,-230,580,-48,-7,15
2222,111,82,460,36,2,-23
2223,18,-37,351,-44,7,10
2224,75,4,646,23,6,-9
2225,-48,151,610,-52,-10,-1
2226,-111,91,636,-4,12,10
2227,-9,53,1028,-28,-4,-10
2228,152,-54,706,-12,-2,-14
2229,-45,-194,449,-53,-12,16
2230,156,60,562,14,-12,-33
2231,-30,42,549,-15,20,16
2232,70,63,625,11,3,-12
2233,56,299,521,-8,14,-6
2234,-71,72,548,-4,-4,10
2235,19,38,1077,-20,-4,-12
2236,44,32,777,-27,-2,-15
2237,-7,-32,478,-22,0,19
2238,260,-3,476,-47,-34,-34
2239,-11,184,560,29,39,17
2240,88,-95,517,-21,-7,-12
2241,-22,49,567,25,45,-16
2242,-124,100,678,-12,-1,11
2243,44,17,1158,-34,-12,-13
2244,66,-50,542,-17,-9,-8
2245,-87,-185,450,-15,9,22
2246,121,-64,469,-41,-22,-37
2247,-64,69,595,2,9,18
2248,104,87,565,-47,-15,-12
2249,-122,256,626,-18,30,-8
2250,-21,179,643,6,-3,13
2251,79,-71,1041,-78,-13,-13
2252,47,-33,643,39,3,-4
2253,0,178,539,-29,5,19
2254,226,10,494,-6,-10,-34
2255,-46,295,580,24,8,24
2256,165,11,369,-39,-8,-8
2257,-50,3,611,-22,7,-3
2258,-100,173,704,16,2,11
2259,67,-85,1064,-79,-14,-15
2260,14,-78,556,35,6,-6
2261,3,8,558,-63,-7,9
2262,150,-126,515,-1,-12,-29
2263,-66,77,599,44,40,12
2264,76,199,534,-34,6,-9
2265,-123,151,593,55,36,-15
2266,-23,193,763,-20,-3,7
2267,87,-86,951,-47,-9,-14
2268,57,-55,591,18,-1,-2
2269,18,241,691,-37,-1,11
2270,164,-25,328,-24,-24,-26
2271,-112,268,687,15,18,15
2272,172,179,362,-103,-11,-12
2273,-82,-2,600,43,21,-4
2274,-50,175,821,-58,-11,7
2275,67,-58,976,-32,-8,-12
2276,-37,-111,573,15,-7,3
2277,108,148,676,-41,6,1
2278,153,-198,329,7,-15,-17
2279,31,106,689,45,19,8
2280,79,163,537,-78,-11,-4
2281,-110,59,685,44,11,2
2282,-80,195,837,-33,2,4
2283,115,-95,839,-34,-6,-17
2284,31,-140,520,16,2,6
2285,42,152,708,-67,-23,-10
2286,106,-51,380,21,15,-7
2287,-85,191,668,-17,15,-6
2288,159,315,466,11,32,-5
2289,-86,-59,509,35,21,-7
2290,2,178,901,-6,1,-2
2291,86,1,842,-15,-2,-13
2292,-12,-123,598,-17,3,12
2293,190,153,642,-19,-23,-12
2294,129,-101,320,-15,-3,0
2295,30,74,714,-39,-2,2
2296,24,88,526,1,16,-7
2297,-86,26,662,-29,1,8
2298,-55,124,966,-28,-9,-4
2299,111,-59,729,22,4,-13
2300,-53,-237,481,-66,-5,16
2301,85,59,578,33,-4,-24
2302,18,4,505,-29,8,9
2303,9,117,635,3,7,-10
2304,105,357,538,28,16,-6
2305,-63,15,464,-21,26,9
2306,13,94,1003,1,-4,-7
2307,69,29,812,-13,-9,-14
2308,-6,-75,520,-64,-11,20
2309,250,114,556,52,-1,-31
2310,63,33,456,-87,7,14
2311,75,-16,702,7,-17,-12
2312,-47,98,568,-32,17,-2
2313,-109,87,663,-51,-6,9
2314,4,60,1046,19,2,-12
2315,130,-29,689,-43,-6,-10
2316,-101,-213,457,-5,-1,20
2317,167,26,570,0,-19,-37
2318,-85,165,604,-5,39,21
2319,96,99,576,23,1,-14
2320,61,259,488,-7,32,-15
2321,-40,79,571,-3,4,10
2322,12,21,1074,-19,-8,-14
2323,30,29,739,-39,-13,-9
2324,33,-7,568,1,13,22
2325,255,28,534,-26,-31,-37
2326,26,81,597,-16,14,25
2327,93,-50,572,-59,-22,-11
2328,-48,151,661,31,14,-1
2329,-117,144,654,-57,-4,15
2330,49,-30,1128,-4,0,-15
2331,118,-3,632,12,1,-8
2332,-39,0,588,-49,-4,16
2333,192,1,529,9,-13,-37
2334,-157,250,710,-19,33,16
2335,164,80,438,12,-3,-14
2336,11,111,586,-36,23,-14
2337,-81,147,659,-2,1,11
2338,48,-46,1090,-10,4,-13
2339,-27,16,653,-10,-5,-6
2340,85,47,652,-8,1,15
2341,226,-88,528,-11,-10,-33
2342,0,108,687,11,15,23
2343,112,100,594,-13,-1,-7
2344,-89,129,665,-30,12,-5
2345,-70,183,712,32,9,10
2346,71,-81,1010,-69,-14,-16
2347,79,-40,636,20,0,-4
2348,23,119,693,-38,-11,7
2349,169,-13,406,-34,-19,-26
2350,-135,240,739,33,34,11
2351,169,165,427,-41,4,-13
2352,-55,-2,599,20,23,-10
2353,-50,179,776,-30,-9,6
2354,58,-46,1011,-41,-9,-13
2355,-49,-35,656,8,-3,1
2356,108,157,691,-24,4,8
2357,183,-178,382,-25,-26,-22
2358,24,118,727,13,10,14
2359,124,76,530,-98,-9,-9
2360,-77,13,733,42,14,0
2361,-104,187,825,-26,-2,5
2362,72,-87,959,-34,-6,-16
2363,15,-140,588,23,1,2
2364,4,21,635,-40,0,-5
2365,100,-141,403,-7,-6,-10
2366,-46,132,769,30,12,4
2367,123,301,537,-50,1,-5
2368,-72,-15,565,30,7,2
2369,13,202,888,3,1,1
2370,52,-16,921,-63,-8,-13
2371,-10,-99,620,16,1,5
2372,153,141,522,-62,-23,-11
2373,132,-46,367,6,13,1
2374,-4,139,768,16,10,-5
2375,102,63,495,-25,18,-2
2376,-74,-40,726,-14,10,3
2377,-64,147,954,6,-8,-4
2378,74,-25,784,-56,-12,-11
2379,-62,-186,590,-15,-4,12
2380,63,59,478,-24,-17,-17
2381,37,-54,420,-5,12,2
2382,45,23,707,22,7,-9
2383,-31,278,672,-14,12,-1
2384,-63,42,681,-12,27,5
2385,3,86,1002,15,-2,-6
2386,85,-16,794,-32,-13,-9
2387,-24,-155,483,-48,-14,12
2388,142,56,565,14,-4,-23
2389,-3,37,514,-54,7,10
2390,58,61,707,46,13,-10
2391,31,264,649,-49,0,-3
2392,-75,70,624,26,14,8
2393,13,46,1037,-25,-3,-11
2394,40,41,819,-34,-4,-11
2395,-3,-48,459,-14,-6,13
2396,198,84,520,-16,-18,-31
2397,5,141,472,-8,9,14
2398,129,2,583,-12,-10,-8
2399,-4,99,561,14,24,-10
2400,-80,46,730,-19,-1,8
2401,4,10,1064,1,3,-14
2402,-6,31,778,-9,-3,-8
2403,-16,-49,587,-22,-2,18
2404,236,-17,547,-4,-23,-31
2405,-17,152,546,19,37,16
2406,135,-70,421,-43,-12,-14
2407,-25,0,671,20,17,-4
2408,-103,111,743,-48,3,8
2409,7,-7,1095,-28,-6,-12
2410,-8,3,616,3,-5,-6
2411,-21,23,618,-41,4,14
2412,180,-84,494,20,-9,-35
2413,-49,109,543,1,25,16
2414,145,-29,357,-41,-9,-11
2415,-53,-64,693,-14,11,-4
2416,-97,161,733,-4,0,8
2417,23,-48,1032,-60,-12,-12
2418,-3,-15,590,13,1,-3
2419,-16,60,644,-30,4,6
2420,165,-133,449,-11,-8,-26
2421,-58,95,521,37,35,14
2422,140,24,346,-37,-7,-10
2423,-75,-114,671,-3,18,-5
2424,-67,187,759,-25,-2,6
2425,26,-55,960,-21,-13,-13
2426,-66,-13,659,-15,-7,-1
2427,36,82,736,3,16,2
2428,139,-154,395,-20,-9,-18
2429,-4,129,545,41,33,4
2430,123,61,412,-21,10,-5
2431,-99,-112,624,2,21,-6
2432,-43,183,803,-9,-3,6
2433,44,-15,882,-46,-9,-11
2434,-88,-41,720,-18,-6,3
2435,128,71,737,-15,-24,-4
2436,110,-94,436,-40,0,-6
2437,65,122,575,4,1,1
2438,149,203,375,4,13,-3
2439,-34,-99,429,-53,-6,-1
2440,0,161,896,38,2,-3
2441,68,-9,831,-59,-12,-12
2442,-81,-43,717,-2,1,9
2443,145,153,526,4,-5,-16
2444,45,47,439,-35,9,3
2445,101,23,535,16,10,-11
2446,18,276,531,34,39,-3
2447,-30,28,521,-16,13,-2
2448,-19,93,1041,25,2,-4
2449,60,31,782,-35,-9,-12
2450,-91,-95,636,-38,-5,11
2451,155,-55,537,10,-11,-21
2452,19,-72,384,-41,9,11
2453,130,-108,516,14,-1,-16
2454,12,-57,489,0,28,-1
2455,-82,14,608,-24,0,4
2456,-63,68,1067,-7,-4,-7
2457,66,36,758,-36,-12,-12
2458,-98,-75,620,-28,-6,18
2459,144,-42,477,-10,-29,-26
2460,-80,12,433,-24,29,18
2461,146,-85,353,-21,-22,-17
2462,-19,-29,365,25,29,0
2463,-61,96,572,-25,-5,8
2464,6,11,1057,8,2,-11
2465,7,76,714,-25,-10,-7
2466,-68,-14,771,-27,-5,19
2467,263,-66,647,-17,-28,-30
2468,-67,130,510,6,25,18
2469,194,34,319,0,-7,-10
2470,-44,136,266,-35,16,-3
2471,15,205,623,-2,0,11
2472,33,-74,1003,-44,-10,-13
2473,-24,56,812,-5,-5,-5
2474,-10,33,716,-34,-18,14
2475,203,-157,394,-18,-13,-24
2476,24,-19,499,4,23,12
2477,153,-77,439,-8,8,-10
2478,-41,-150,517,-2,18,-12
2479,-116,203,722,-15,-3,10
2480,35,-62,1067,-20,-5,-15
2481,-57,33,733,-19,-4,1
2482,-12,36,693,-23,-13,3
2483,111,-180,391,-37,-12,-13
2484,-6,39,533,26,28,-3
2485,117,62,317,-26,16,2
2486,-60,-129,485,9,25,-13
2487,-29,200,776,-19,1,8
2488,75,-26,869,-33,-15,-15
2489,-92,-5,796,-19,-7,7
2490,133,136,682,-11,-1,-16
2491,98,-41,389,-34,-4,-3
2492,56,35,567,-2,1,1
2493,54,165,534,-18,1,-2
2494,-13,-17,541,-52,-2,0
2495,-97,174,963,32,2,0
2496,87,-16,852,-46,-13,-16
2497,-92,-51,792,-20,2,12
2498,88,44,567,7,-25,-17
2499,-8,-93,357,-36,21,4
2500,96,-45,536,13,0,-14
2501,3,45,414,-10,27,0
2502,-28,-31,459,-48,6,-1
2503,-32,97,924,7,-1,0
2504,76,41,797,-44,-24,-12
2505,-107,-37,787,-37,-2,17
2506,232,66,574,14,-3,-30
2507,-2,-31,526,-46,10,17
2508,179,-102,469,11,-19,-11
2509,9,-36,453,-2,28,4
2510,-90,50,513,-55,-10,3
2511,-55,50,1133,8,2,-8
2512,30,65,822,-40,-20,-8
2513,-87,-78,796,-15,1,17
2514,214,-97,738,-13,-21,-30
2515,-66,116,560,-25,22,21
2516,189,20,338,-1,-10,-7
2517,-43,203,327,-11,19,-7
2518,34,144,596,-28,-6,10
2519,7,-32,1017,-23,-8,-11
2520,-10,59,775,-9,-13,-3
2521,-72,41,743,-24,-6,14
2522,181,-108,522,-31,-13,-26
2523,-90,-5,569,-9,22,14
2524,150,14,267,2,2,-5
2525,-58,-116,434,-26,18,-13
2526,-45,168,632,1,0,10
2527,41,-43,945,-40,-7,-13
2528,-36,38,842,-19,-3,-1
2529,24,4,799,-23,-8,1
2530,177,-176,482,-47,-17,-13
2531,41,75,429,34,26,0
2532,108,51,125,-63,-7,-5
2533,-30,-155,504,-3,14,-4
2534,-143,208,726,-12,7,6
2535,68,-33,954,-38,-13,-15
2536,-79,-5,868,4,-1,6
2537,119,45,842,-20,-18,-5
2538,101,-156,412,-17,14,-7
2539,102,-51,441,-13,1,-7
2540,80,60,248,-17,18,2
2541,-31,-137,456,-36,5,-5
2542,-122,177,876,16,-4,1
2543,83,12,955,-55,-17,-15
2544,-109,-29,870,-21,4,11
2545,199,18,791,9,-13,-22
2546,37,-114,482,-34,15,4
2547,156,-64,466,5,0,-9
2548,34,37,312,-44,7,2
2549,-57,-28,470,2,13,1
2550,-92,95,971,-14,3,-3
2551,65,44,889,-25,-14,-13
2552,-90,-23,904,-19,-3,11
2553,206,19,783,-16,-18,-22
2554,-37,13,584,-10,23,12
2555,139,-55,352,-3,-4,-12
2556,-28,-2,441,-8,25,-6
2557,-102,79,550,-14,-1,5
2558,-40,4,1002,-11,-4,-7
2559,23,54,832,-31,-20,-8
2560,-57,-2,948,-16,-7,13
2561,172,-73,775,-10,-16,-22
2562,-64,42,794,2,22,8
2563,66,29,482,6,18,-5
2564,-29,88,502,-22,15,-8
2565,-66,139,739,5,4,10
2566,12,-27,971,-40,-11,-9
2567,-18,41,885,-1,-3,-1
2568,46,40,959,-35,-9,1
2569,140,-80,585,-34,-12,-11
2570,16,5,707,20,19,5
2571,51,46,503,-37,5,-2
2572,-51,-99,685,21,17,-6
2573,-119,155,743,-3,6,4
2574,33,-7,942,-36,-13,-10
2575,-57,8,902,-6,-3,2
2576,98,58,956,-35,-11,-8
2577,28,-94,717,-14,6,-1
2578,58,32,795,-5,-2,-3
2579,21,45,688,-13,22,0
2580,-49,-54,643,-18,4,-1
2581,-91,126,949,-2,-1,0
2582,29,34,955,-25,-10,-9
2583,-62,-14,905,-24,-7,7
2584,144,28,935,2,-14,-14
2585,-16,-32,850,-28,5,4
2586,96,-28,770,13,5,-7
2587,0,15,742,-5,29,-6
2588,-89,41,672,-14,2,5
2589,-48,74,1013,-11,-5,-6
2590,7,38,889,-31,-12,-5
2591,-32,18,960,-13,-7,6
2592,152,-25,954,-24,-16,-15
2593,2,12,924,-4,15,5
2594,84,-24,628,-14,7,-2
2595,-32,-64,750,-3,16,-8
2596,-137,126,646,4,11,9
2597,21,0,915,-26,-13,-11
2598,-42,32,819,-13,-6,1
2599,64,48,1058,-21,-12,-1
2600,111,-30,857,-29,-10,-9
2601,-4,82,800,10,14,0
2602,-4,6,634,-21,22,0
2603,19,-46,504,-2,9,-8
2604,-129,149,915,-21,6,9
2605,72,-7,805,-30,-19,-16
2606,-100,11,927,-13,-6,7
2607,149,58,963,-25,-20,-10
2608,17,-14,870,-18,7,-3
2609,94,8,701,-7,8,-4
2610,21,-52,623,-3,34,0
2611,-64,-53,494,-16,4,2
2612,-64,148,889,-12,-1,1
2613,64,29,686,-16,-16,-12
2614,-93,0,868,-33,-6,11
2615,210,25,960,-12,-16,-21
2616,-12,93,871,-9,25,2
2617,97,-40,428,-30,-15,-2
2618,30,-3,482,24,18,-9
2619,-168,100,535,-25,13,7
2620,-9,60,977,1,-6,-12
2621,-14,43,656,-17,-12,-6
2622,-5,43,916,-33,-11,5
2623,184,-27,869,-5,-4,-19
2624,-2,84,703,-4,18,0
2625,95,24,308,-21,-7,0
2626,-46,-132,446,41,23,-10
2627,-212,197,641,-4,13,10
2628,80,-11,868,-12,-21,-17
2629,-103,17,682,-26,-8,4
2630,125,74,887,-15,-18,-8
2631,91,-74,745,-12,13,-5
2632,106,-38,468,2,4,-4
2633,94,-24,482,5,39,2
2634,-65,-89,388,-37,11,-10
2635,-131,121,779,-22,-8,4
2636,90,35,659,-17,-16,-13
2637,-120,-6,751,-44,-4,13
2638,225,62,835,1,-14,-21
2639,2,-38,523,-27,14,7
2640,103,-95,303,-15,-1,-3
2641,-33,62,608,20,38,-10
2642,-54,74,526,-44,0,10
2643,-31,31,934,4,-3,-6
2644,16,53,661,-13,-12,-7
2645,-83,-14,834,-34,-6,8
2646,197,-58,772,1,-7,-19
2647,-9,1,633,-21,15,8
2648,152,-9,333,-3,11,1
2649,-14,-131,422,-5,25,-16
2650,-179,195,603,-49,-5,13
2651,67,-21,862,-3,-19,-12
2652,-82,15,740,-29,-7,4
2653,106,101,838,-23,-13,-5
2654,109,-94,648,-15,16,-5
2655,90,-91,390,-13,1,-3
2656,97,19,443,0,11,-1
2657,-48,-79,368,-33,11,-15
2658,-138,112,749,-5,6,2
2659,86,32,637,-13,-14,-13
2660,-115,-21,768,-47,-10,11
2661,197,-15,801,2,-16,-20
2662,10,-110,640,-16,27,3
2663,117,-106,204,-33,-17,-11
2664,-28,-81,502,42,23,4
2665,-96,91,415,-47,-1,4
2666,-49,37,958,-1,-10,-8
2667,14,56,737,-19,-11,-10
2668,-56,48,899,-41,-6,9
2669,182,-104,720,2,-14,-20
2670,33,-22,545,1,15,6
2671,121,-46,286,-21,9,2
2672,-32,-152,462,-7,21,-18
2673,-186,168,559,-35,4,11
2674,77,-20,779,-8,-17,-13
2675,-87,13,672,-27,-8,3
2676,124,-17,838,-26,-19,-6
2677,81,-122,630,-5,13,-6
2678,80,-89,324,-26,0,-10
2679,3,-26,524,14,4,3
2680,-28,-80,295,4,10,-2
2681,-136,151,847,-15,-1,3
2682,89,25,709,-9,-20,-16
2683,-129,-14,791,-41,-3,15
2684,184,33,779,3,-19,-24
2685,19,-97,595,-9,38,8
2686,141,-133,165,-16,-10,1
2687,39,-90,472,1,19,-20
2688,-177,47,428,-66,1,7
2689,-3,48,844,-15,-5,-11
2690,1,59,516,0,-12,-6
2691,-61,-33,840,-55,-11,11
2692,220,-77,613,1,-8,-20
2693,-2,-113,412,-17,20,0
2694,107,0,355,-30,-8,0
2695,4,-248,292,53,19,-6
2696,-187,246,578,-5,9,13
2697,107,-36,757,-10,-24,-19
2698,-109,6,749,-8,-1,4
2699,80,73,775,-28,-20,-7
2700,97,-69,576,5,18,-6
2701,111,-128,318,8,3,-5
2702,44,-65,350,-33,31,10
2703,-107,-111,259,-19,14,-7
2704,-131,162,748,-41,-1,5
2705,109,33,516,1,-22,-15
2706,-145,-48,735,-42,-5,17
2707,272,7,677,-5,-20,-26
2708,-20,-37,458,22,49,9
2709,115,-63,117,-49,-22,0
2710,-13,67,531,24,18,-15
2711,-73,99,422,-39,11,6
2712,5,5,776,-30,3,-12
2713,-13,56,617,30,-1,-7
2714,-80,-24,772,-61,-18,10
2715,205,-86,612,1,-11,-22
2716,-48,47,639,7,38,6
2717,209,64,235,-77,-11,5
2718,-93,-184,330,17,8,-21
2719,-233,256,526,-46,12,11
2720,115,-34,700,-20,-10,-19
2721,-125,-3,605,12,6,7
2722,132,103,764,-41,-25,-9
2723,101,-87,574,-2,14,-5
2724,108,-116,325,16,10,-4
2725,34,-74,338,-23,32,7
2726,-116,-111,284,-18,2,-9
2727,-101,163,788,-37,0,5
2728,110,41,486,4,-16,-16
2729,-138,-41,679,-41,-5,16
2730,266,104,702,-16,-22,-26
2731,-17,9,444,-4,24,5
2732,126,-120,150,-48,-18,-10
2733,107,39,492,41,21,-1
2734,-42,102,589,-21,2,10
2735,23,22,779,-36,-19,-9
2736,-15,69,451,8,-7,-9
2737,-15,35,822,-52,-8,12
2738,230,12,632,-2,-13,-23
2739,-17,-2,418,13,19,9
2740,57,6,344,-18,10,10
2741,141,-28,377,4,27,-23
2742,-126,219,793,-26,6,19
2743,126,-51,602,-13,-24,-16
2744,-131,9,611,-30,-11,5
2745,146,72,830,-36,-18,-8
2746,74,20,612,-14,19,-3
2747,48,-91,343,-18,-5,-3
2748,7,191,573,-9,22,6
2749,106,-17,231,-57,10,-10
2750,-105,135,822,-5,3,4
2751,115,32,538,7,-15,-16
2752,-153,-33,711,-56,-8,16
2753,244,112,787,16,-17,-25
2754,-37,23,605,-24,36,12
2755,114,-107,214,-16,-12,4
2756,-8,159,528,5,29,-20
2757,10,96,417,-76,5,11
2758,-4,19,828,14,-7,-10
2759,17,67,545,-19,-12,-8
2760,-50,45,769,-54,-11,12
2761,247,37,692,22,-3,-26
2762,-39,27,542,-17,19,12
2763,47,10,341,-8,8,8
2764,140,17,391,-1,40,-19
2765,-107,207,749,-31,-6,19
2766,118,-52,660,-13,-25,-16
2767,-119,27,587,-45,-2,2
2768,128,121,802,-13,-17,-3
2769,117,-10,609,-7,7,-11
2770,27,-18,428,-24,-2,-3
2771,103,91,460,32,36,7
2772,125,-29,406,-47,-10,-5
2773,-70,221,858,9,1,10
2774,114,22,554,-35,-21,-16
2775,-152,-27,656,-35,1,14
2776,229,111,759,1,-24,-21
2777,0,-44,560,-45,20,5
2778,107,-77,324,-4,-11,-10
2779,62,122,506,21,23,-4
2780,32,71,579,-51,4,2
2781,-18,89,830,38,-7,-11
2782,41,56,450,-47,-20,-11
2783,-84,6,743,-20,-1,13
2784,242,-2,728,-8,-19,-26
2785,-3,17,588,-30,26,11
2786,131,-14,143,4,6,1
2787,49,-86,551,-25,29,-20
2788,-85,182,611,-5,3,11
2789,89,14,719,-11,-17,-18
2790,-89,46,489,-34,3,0
2791,73,69,788,7,-7,2
2792,136,-83,597,-37,-7,-12
2793,87,-3,520,11,9,2
2794,61,-3,341,5,39,7
2795,-51,-203,408,-59,-7,-14
2796,-51,247,612,33,3,10
2797,133,3,593,-61,-18,-18
2798,-140,-20,587,-8,6,12
2799,194,87,748,-2,-25,-17
2800,55,12,673,-51,6,2
2801,155,-66,273,49,10,-6
2802,-38,-75,347,6,42,10
2803,-106,-35,363,-13,-5,-1
2804,-24,153,805,12,0,-2
2805,71,59,461,-63,-25,-13
2806,-105,-18,702,-10,-2,14
2807,243,1,728,-26,-27,-26
2808,21,114,691,-16,20,7
2809,165,-14,62,10,10,2
2810,-79,-178,403,-32,0,-10
2811,-171,190,468,25,13,14
2812,77,16,761,-54,-21,-12
2813,-51,45,459,-18,-13,-4
2814,36,7,745,-15,-13,4
2815,170,-6,618,-54,-16,-16
2816,46,122,591,30,25,-3
2817,133,86,128,-63,-9,0
2818,-141,-199,411,1,6,-9
2819,-130,276,593,45,20,9
2820,129,-12,636,-58,-30,-19
2821,-146,-23,568,17,8,7
2822,182,37,731,-21,-21,-15
2823,0,49,684,-24,14,-2
2824,145,4,443,3,6,-5
2825,36,47,310,-44,5,-3
2826,-153,-68,278,16,19,-4
2827,-112,164,789,-35,0,-3
2828,87,42,542,-18,-12,-18
2829,-130,-38,702,-13,-4,15
2830,257,38,790,-34,-28,-26
2831,-92,113,733,0,22,6
2832,185,-89,222,-6,5,4
2833,5,-86,394,13,25,-10
2834,-158,140,381,17,15,15
2835,11,23,826,-34,-17,-10
2836,-23,46,635,2,-12,-7
2837,-11,51,824,-36,-9,9
2838,214,16,743,-26,-13,-22
2839,-64,-23,649,2,24,0
2840,118,113,443,-58,-18,-2
2841,45,-91,174,47,21,-13
2842,-185,226,672,-27,16,13
2843,115,-35,688,-20,-14,-19
2844,-125,-5,719,-7,-1,5
2845,166,111,822,-28,-20,-8
2846,65,44,654,3,19,-5
2847,29,-50,455,-10,-1,-2
2848,5,178,543,-12,35,5
2849,86,10,268,-42,10,-13
2850,-101,131,857,-8,-2,3
2851,117,27,552,-3,-15,-18
2852,-145,-25,713,-39,-4,15
2853,247,132,789,-2,-17,-25
2854,-25,38,554,-17,19,5
2855,116,-116,275,-17,-7,-5
2856,73,95,518,38,38,0
2857,30,111,603,-39,-7,11
2858,0,57,838,-11,-16,-7
2859,4,61,499,-15,-9,-9
2860,-44,31,770,-37,-8,12
2861,235,-32,726,-2,-13,-24
2862,-21,15,521,-27,17,2
2863,111,30,273,1,-7,-2
2864,112,-20,540,29,19,-16
2865,-97,201,691,-18,10,12
2866,101,0,662,4,-16,-20
2867,-120,32,515,-25,-1,3
2868,111,85,830,-18,-18,-4
2869,117,-83,591,-24,10,-6
2870,41,13,433,-24,2,-3
2871,102,95,403,-11,13,2
2872,28,-84,454,-38,19,-15
2873,-59,201,730,32,5,2
2874,117,18,579,-22,-16,-19
2875,-154,-24,582,-43,1,14
2876,224,91,744,16,-18,-22
2877,7,-34,564,-51,24,9
2878,120,-74,244,23,7,1
2879,39,31,441,-12,24,-18
2880,-33,44,507,-43,10,5
2881,-8,92,818,29,-6,-9
2882,42,52,440,-41,-10,-10
2883,-87,5,708,-12,3,13
2884,239,-8,730,-4,-14,-25
2885,5,-10,559,-20,25,12
2886,135,-35,103,18,15,3
2887,0,-145,487,-47,27,-18
2888,-116,175,548,2,0,13
2889,89,18,720,-29,-21,-18
2890,-84,44,482,-42,2,1
2891,65,72,772,9,-7,0
2892,142,-89,600,-36,-7,-12
2893,73,-19,488,17,16,2
2894,55,-14,315,-3,43,7
2895,-54,-196,396,-68,-6,-14
2896,-72,243,615,22,2,10
2897,138,1,594,-58,-20,-17
2898,-140,-25,566,-9,7,13
2899,188,96,724,-4,-21,-19
2900,53,-52,621,-41,10,3
2901,138,-83,250,28,14,0
2902,-21,-100,365,-53,33,1
2903,-83,-27,404,-26,-12,1
2904,-28,141,797,-10,-2,-3
2905,74,53,449,-54,-13,-13
2906,-103,-25,676,6,4,15
2907,240,24,697,-28,-29,-25
2908,31,-1,630,-15,16,10
2909,129,-46,33,17,24,10
2910,-57,-196,435,-54,7,-15
2911,-149,177,461,-3,2,18
2912,80,25,748,-48,-15,-14
2913,-46,45,435,-16,-8,-4
2914,33,41,763,-10,-13,7
2915,166,-34,601,-44,-16,-16
2916,97,50,540,37,23,1
2917,91,48,183,-15,24,12
2918,-119,-244,397,-46,-16,-11
2919,-103,272,576,14,16,15
2920,138,-2,622,-72,-31,-17
2921,-137,-18,545,11,2,9
2922,182,51,723,-28,-25,-11
2923,41,91,675,-49,2,-2
2924,163,-8,369,13,11,-10
2925,-5,29,308,-46,-5,3
2926,-129,-68,284,31,20,2
2927,-55,187,796,-7,1,-1
2928,93,56,480,-31,-21,-15
2929,-130,-80,641,-8,6,14
2930,261,9,717,-29,-26,-27
2931,-47,155,729,-9,32,9
2932,200,-31,100,-24,-3,-4
2933,-33,-49,350,0,14,-15
2934,-230,154,394,-18,18,10
2935,32,6,786,-40,-12,-16
2936,-25,53,491,17,-2,-6
2937,-13,12,741,-41,-15,9
2938,216,-17,649,-31,-15,-22
2939,-52,117,606,26,29,7
2940,198,-3,277,-13,20,13
2941,-61,-217,304,-7,18,-21
2942,-228,255,568,-18,9,19
2943,112,-31,672,-29,-23,-16
2944,-128,-16,623,-6,-1,4
2945,149,60,839,-26,-18,-7
2946,23,19,653,-12,15,-7
2947,46,-33,467,-10,10,-6
2948,100,68,468,-15,-9,-1
2949,0,-70,132,0,1,-3
2950,-131,173,767,-6,5,3
2951,108,37,553,-2,-15,-16
2952,-144,-46,684,-42,-4,13
2953,240,194,785,4,-22,-27
2954,-53,84,652,-1,30,9
2955,108,-115,289,-7,-7,3
2956,-22,139,513,37,50,-19
2957,19,132,524,-29,0,14
2958,13,9,836,-9,-18,-10
2959,21,63,462,-43,-11,-7
2960,-59,-22,738,-32,-3,14
2961,246,-45,627,-4,-10,-27
2962,-30,45,656,-13,19,8
2963,126,62,271,-7,-16,2
2964,57,-80,645,-53,20,-21
2965,-46,262,666,-15,11,13
2966,109,-9,646,14,-12,-20
2967,-126,24,434,-28,1,1
2968,92,91,753,12,-10,-1
2969,125,34,562,-30,11,-13
2970,55,55,534,-1,3,-4
2971,96,78,266,-11,-4,-1
2972,-85,-174,392,-71,6,-12
2973,-68,258,660,40,4,2
2974,122,27,606,-46,-23,-18
2975,-155,-51,538,-39,-1,13
2976,211,89,883,27,-17,-19
2977,-57,71,722,-85,9,1
2978,84,-68,417,16,-9,-9
2979,54,68,405,-20,14,-3
2980,-54,24,365,-30,3,0
2981,-47,88,836,50,-4,-10
2982,55,47,617,-66,-14,-12
2983,-103,0,738,6,4,14
2984,243,25,681,-17,-20,-26
2985,-52,47,739,-41,15,9
2986,100,23,280,8,0,-4
2987,51,21,649,-65,5,-13
2988,-37,226,696,45,15,11
2989,86,-1,681,-34,-19,-17
2990,-55,45,497,-13,-2,-3
2991,23,45,773,4,-8,4
2992,176,4,534,-65,-19,-18
2993,54,106,642,21,16,1
2994,90,80,233,-59,4,1
2995,-78,-211,496,-19,-2,-11
2996,-63,288,586,48,12,12
2997,134,13,596,-65,-31,-16
2998,-141,-35,545,19,7,10
2999,179,118,824,-17,-21,-11
3000,-16,61,644,-68,0,-4
3001,74,-19,541,27,6,-7
3002,85,22,401,-34,20,2
3003,-53,-51,286,24,8,0
3004,-114,160,803,-2,-2,3
3005,100,39,578,-34,-29,-14
3006,-125,-39,722,7,5,16
3007,233,110,737,-20,-22,-26
3008,-64,104,703,-20,20,7
3009,106,-90,294,-11,0,-1
3010,27,138,568,1,26,-7
3011,-14,165,669,13,4,17
3012,43,23,780,-33,-17,-9
3013,-12,61,465,-1,-12,-4
3014,-26,-10,806,-41,-9,11
3015,227,-25,563,-34,-18,-26
3016,30,79,628,22,22,7
3017,125,50,234,-17,15,2
3018,-50,-211,556,19,19,-14
3019,-69,283,557,-18,-3,21
3020,124,13,639,-51,-32,-14
3021,-132,0,478,-13,-7,6
3022,140,100,809,-44,-20,-2
3023,64,50,606,-16,6,-10
3024,44,45,553,-3,-3,-1
3025,113,-1,329,24,51,5
3026,-73,-165,320,-37,-2,-7
3027,-155,212,710,5,-5,8
3028,100,26,645,-47,-21,-15
3029,-150,-46,606,-28,2,14
3030,218,192,856,-3,-17,-22
3031,-56,95,702,-25,17,6
3032,85,-76,348,14,-3,-1
3033,-41,126,500,-11,43,-10
3034,16,112,523,-30,3,10
3035,-13,26,852,-13,-16,-9
3036,43,52,544,-56,-9,-10
3037,-87,-31,765,-21,-2,14
3038,240,-14,650,-24,-20,-27
3039,-20,53,707,-3,17,9
3040,129,7,233,-8,9,2
3041,19,-106,666,-36,22,-19
3042,-40,219,597,7,6,12
3043,103,16,686,-45,-17,-19
3044,-100,43,474,-11,7,-3
3045,64,82,752,-3,-8,1
3046,154,-4,574,-60,-13,-13
3047,15,97,644,45,21,-2
3048,103,78,201,-54,6,3
3049,-93,-181,416,-22,9,-14
3050,-110,261,625,45,8,5
3051,129,-4,643,-72,-18,-19
3052,-143,-35,593,18,15,9
3053,189,90,847,-13,-22,-14
3054,-32,35,689,-55,8,-1
3055,73,-91,497,31,12,-8
3056,52,94,385,-80,-3,-2
3057,-24,-18,294,27,15,-1
3058,-84,123,799,8,-5,-6
3059,84,40,583,-60,-27,-15
3060,-111,3,759,14,7,14
3061,245,80,713,-55,-30,-26
3062,-53,62,694,-10,20,7
3063,92,-49,273,4,6,-1
3064,65,78,521,-25,11,-10
3065,-33,202,716,42,12,15
3066,67,15,715,-50,-22,-13
3067,-36,48,488,-10,-12,-4
3068,10,23,818,-11,-6,8
3069,193,-50,541,-45,-14,-21
3070,49,46,632,28,21,6
3071,108,51,281,-3,20,10
3072,-54,-231,521,9,16,-17
3073,-61,289,598,25,16,17
3074,131,15,600,-64,-30,-16
3075,-136,-14,513,-15,-7,7
3076,172,84,778,-21,-17,-11
3077,27,53,608,-35,13,-3
3078,79,23,520,10,2,-3
3079,73,51,323,-11,15,4
3080,-121,-112,297,-46,18,-7
3081,-123,184,756,2,5,1
3082,90,37,587,-27,-13,-16
3083,-142,-47,636,-40,-8,13
3084,242,119,889,10,-16,-26
3085,-85,35,728,-34,30,7
3086,118,-48,287,-18,-15,-5
3087,26,77,412,52,21,-11
3088,-64,98,398,-55,18,8
3089,-5,38,854,35,-1,-15
3090,13,56,554,-4,-7,-9
3091,-44,51,771,-49,-13,13
3092,241,26,697,21,-5,-26
3093,-49,71,637,-27,20,7
3094,89,10,306,-12,11,1
3095,123,16,524,31,15,-11
3096,-80,262,798,-38,-3,18
3097,117,-24,647,-5,-17,-17
3098,-112,33,505,-29,-2,4
3099,97,55,818,-29,-21,-1
3100,129,-52,554,4,7,-8
3101,63,5,521,-4,5,-1
3102,84,43,453,13,45,6
3103,-8,-164,447,-48,5,-15
3104,0,266,712,4,-12,5
3105,116,33,543,-47,-18,-16
3106,-158,-54,533,-36,4,13
3107,228,78,692,4,-22,-20
3108,6,123,692,-55,11,4
3109,154,-39,257,26,-7,-10
3110,-17,20,343,-7,22,-6
3111,-117,19,341,-27,13,1
3112,1,116,810,56,-3,-10
3113,41,64,501,-55,-19,-12
3114,-98,-8,669,-8,3,14
3115,260,32,754,-8,-13,-26
3116,-99,109,671,-33,17,9
3117,187,-40,249,41,18,5
3118,-10,-157,348,-20,12,-13
3119,-171,217,429,-7,10,19
3120,59,-26,742,-29,-22,-15
3121,-67,33,663,-27,-10,-1
3122,60,146,791,-1,-11,2
3123,142,33,698,-32,-13,-15
3124,-42,37,638,1,21,4
3125,22,111,477,-5,30,9
3126,78,-31,259,-15,-2,-18
3127,-111,229,822,-7,10,11
3128,143,-30,555,-54,-11,-20
3129,-130,-44,682,-3,5,8
3130,170,100,725,-27,-30,-13
3131,44,-70,599,-33,5,-1
3132,100,-34,483,16,22,-7
3133,33,144,526,-53,-8,-7
3134,38,-10,568,37,18,-2
3135,0,174,824,-30,-2,-4
3136,77,49,405,-32,-9,-17
3137,-121,-62,677,-4,5,13
3138,252,59,672,-43,-33,-27
3139,2,156,700,1,23,7
3140,150,-26,100,-25,9,-4
3141,-50,-105,458,-1,13,-7
3142,-128,168,437,40,14,13
3143,69,47,784,-53,-21,-13
3144,-32,62,412,26,-5,-5
3145,10,53,771,-42,-8,9
3146,210,2,640,-36,-17,-24
3147,-62,111,645,28,15,6
3148,171,-1,331,-36,12,7
3149,-34,-201,320,21,22,-15
3150,-209,255,584,0,4,20
3151,107,-37,689,-58,-32,-14
3152,-124,-14,640,-8,-4,6
3153,157,165,847,-30,-12,-8
3154,39,66,684,-13,18,-3
3155,10,-17,517,9,-2,-2
3156,17,164,506,-6,28,4
3157,46,-10,315,-45,16,-7
3158,-80,155,866,0,-1,2
3159,117,27,514,-31,-15,-16
3160,-144,-75,684,-33,-2,14
3161,230,72,720,9,-14,-25
3162,-19,-10,642,-39,29,9
3163,127,-56,311,-28,-29,-3
3164,49,59,613,3,19,-16
3165,0,111,568,-81,10,8
3166,54,76,831,28,-8,-13
3167,-9,58,374,-40,-8,-10
3168,-64,-17,708,-31,-7,12
3169,257,10,650,-1,-10,-26
3170,-15,171,614,-48,16,6
3171,156,24,146,-4,-14,0
3172,-75,-151,479,-30,19,-17
3173,-134,249,498,2,19,12
3174,103,-24,737,14,-14,-20
3175,-114,29,540,-36,-1,2
3176,100,87,829,7,-15,0
3177,93,6,670,-53,-1,-12
3178,-40,3,611,-13,4,-2
3179,134,47,442,-10,3,1
3180,20,-126,244,-63,-3,-9
3181,-158,219,682,56,8,4
3182,131,-8,618,-45,-26,-17
3183,-142,-53,685,-26,1,14
3184,198,151,750,16,-20,-17
3185,0,43,674,-73,13,1
3186,88,-56,406,16,-1,-7
3187,29,158,469,-1,30,5
3188,61,81,631,-37,-2,2
3189,-22,121,851,40,-4,-5
3190,68,55,465,-68,-29,-8
3191,-111,-60,707,-13,-1,18
3192,238,45,616,-17,-22,-27
3193,10,43,704,-31,19,10
3194,142,-10,95,39,18,4
3195,-35,-165,557,-4,16,-16
3196,-71,217,465,-11,8,21
3197,108,38,715,-29,-15,-15
3198,-82,35,411,-24,-5,-1
3199,37,80,761,-4,-11,8
3200,184,3,583,-21,-12,-21
3201,-27,121,647,19,27,4
3202,148,-6,285,17,30,12
3203,-65,-215,390,-34,1,-14
3204,-192,257,596,9,15,17
3205,108,-36,632,-59,-25,-17
3206,-133,-30,667,-21,-7,8
3207,165,177,834,-27,-27,-10
3208,11,66,708,-32,10,-3
3209,54,-24,537,33,13,-2
3210,-17,147,457,25,41,5
3211,32,21,425,-35,5,0
3212,-61,140,887,4,1,1
3213,108,27,485,-43,-21,-13
3214,-128,-93,708,-30,-4,17
3215,238,70,657,-4,-19,-26
3216,-9,35,707,-12,29,9
3217,137,-66,225,6,-2,7
3218,19,-77,621,8,35,-18
3219,-35,120,487,-37,14,18
3220,84,84,809,-1,-9,-12
3221,-54,59,328,-26,-6,-7
3222,-23,14,715,-31,-8,11
3223,247,26,610,0,-7,-26
3224,-51,131,596,-6,18,8
3225,163,-2,222,-2,-5,7
3226,-77,-143,435,-17,32,-22
3227,-181,239,486,-23,8,17
3228,91,-58,696,-13,-20,-18
3229,-130,-11,547,-42,-2,2
3230,128,131,883,-3,-15,-4
3231,64,23,673,-21,12,-8
3232,-16,-4,580,-3,-5,-4
3233,65,187,493,1,23,7
3234,36,-63,260,-68,16,-10
3235,-92,211,830,23,-4,2
3236,120,9,564,-49,-14,-18
3237,-146,-70,653,-50,-5,13
3238,216,36,657,21,-13,-22
3239,3,-2,677,-38,18,8
3240,120,-48,354,21,-2,1
3241,22,14,638,1,40,-8
3242,2,38,502,-35,0,10
3243,68,122,810,6,-6,-10
3244,0,70,395,-62,-8,-10
3245,-100,-12,638,-6,1,15
3246,259,41,687,-16,-22,-29
3247,-69,167,681,8,25,9
3248,164,-59,224,25,24,5
3249,-35,-152,465,-9,14,-17
3250,-201,209,438,-9,10,20
3251,66,-43,731,-29,-19,-18
3252,-70,0,607,-10,-1,0
3253,49,112,809,-14,-11,7
3254,135,7,662,-36,-12,-18
3255,-43,89,698,17,22,5
3256,43,120,460,10,31,7
3257,59,-47,419,-9,3,-13
3258,-76,285,870,21,14,15
3259,147,-23,518,-67,-29,-15
3260,-138,-45,598,-12,0,11
3261,155,99,638,-14,-27,-13
3262,70,7,585,-53,7,-3
3263,130,-27,451,30,15,-8
3264,12,25,515,-40,18,1
3265,-52,-81,326,13,2,0
3266,61,216,750,11,0,-1
3267,48,19,403,-53,-26,-12
3268,-126,-67,539,19,11,15
3269,242,63,778,-33,-28,-27
3270,-114,152,718,-23,18,9
3271,133,-45,244,-45,-12,-4
3272,57,-51,469,22,4,-13
3273,-118,142,452,-28,13,12
3274,41,-8,744,-44,-16,-17
3275,-10,34,504,40,5,-13
3276,-31,-80,772,-58,-13,12
3277,235,-107,511,3,-8,-28
3278,-16,118,764,19,31,10
3279,129,52,387,-7,12,4
3280,-5,-170,668,7,27,-22
3281,-6,304,616,7,1,20
3282,133,-30,556,-48,-23,-17
3283,-150,-27,414,-14,-1,5
3284,134,109,883,-21,-14,-3
3285,55,29,542,-24,6,-9
3286,-4,17,650,11,-3,-3
3287,113,117,504,-13,6,3
3288,-7,-111,357,-46,25,-7
3289,-128,223,754,71,6,1
3290,118,17,602,-41,-18,-17
3291,-149,-63,661,-41,-4,13
3292,192,42,639,20,-11,-22
3293,-11,89,685,-87,9,2
3294,127,-27,413,10,-13,-8
3295,27,-11,693,17,22,-1
3296,-49,18,419,-85,0,7
3297,64,145,766,52,-3,-8
3298,25,45,466,-55,-15,-11
3299,-109,-8,669,-6,-1,16
3300,245,-15,807,6,-17,-29
3301,-96,168,756,-24,29,13
3302,72,-24,329,22,15,3
3303,10,8,563,14,20,-18
3304,-95,254,689,-38,7,17
3305,82,-54,705,-26,-16,-18
3306,-56,45,568,-24,-5,1
3307,-9,93,724,-18,-15,9
3308,181,-49,427,-27,-15,-19
3309,-16,136,741,-2,22,4
3310,116,74,393,-80,-6,4
3311,-32,-206,564,21,-2,-12
3312,-72,277,547,-11,8,9
3313,122,-61,562,-53,-16,-22
3314,-127,-65,594,13,11,4
3315,143,39,781,-49,-29,-10
3316,17,37,651,-12,8,-7
3317,51,5,605,18,14,-6
3318,19,237,633,-51,11,0
3319,5,-1,573,39,-1,-1
3320,-47,170,888,-38,-8,1
3321,88,40,465,-6,-8,-15
3322,-143,-70,575,-1,8,15
3323,240,67,679,-35,-28,-26
3324,-72,134,742,4,23,8
3325,135,-115,288,-10,-2,-3
3326,53,-37,633,2,36,-13
3327,-173,109,461,9,1,11
3328,-4,64,829,-54,-16,-8
3329,19,39,544,0,-7,-10
3330,-74,-109,782,-26,-2,15
3331,229,-121,605,-24,-17,-29
3332,-55,176,762,19,20,12
3333,119,39,464,-14,13,2
3334,-23,-180,761,2,26,-18
3335,-65,293,566,12,5,18
3336,116,8,634,-48,-17,-14
3337,-117,19,508,-1,1,3
3338,88,61,921,-27,-16,3
3339,119,-24,539,-30,-5,-12
3340,-33,77,678,36,15,2
3341,43,91,587,-8,33,4
3342,15,-74,500,-11,4,-14
3343,-116,231,778,6,1,7
3344,132,-17,618,-53,-16,-16
3345,-146,-61,663,-7,5,14
3346,155,103,604,-26,-30,-17
3347,-15,5,620,-32,5,4
3348,110,-38,541,16,16,0
3349,39,5,629,-30,20,-5
3350,-87,-37,428,25,11,2
3351,-30,170,724,-34,-3,-6
3352,62,17,605,-12,-5,-13
3353,-122,-65,708,-19,1,17
3354,238,-66,683,-37,-33,-27
3355,-59,117,818,-4,23,8
3356,109,18,348,-50,-7,-5
3357,0,93,782,-30,-9,-14
3358,-73,199,701,-2,5,12
3359,79,17,709,-77,-21,-16
3360,-52,53,462,26,4,-8
3361,-14,103,820,-44,-13,8
3362,216,-35,497,-22,-15,-27
3363,-60,123,720,51,30,4
3364,158,34,442,-55,7,-1
3365,-9,-177,508,22,10,-12
3366,-193,260,595,6,4,16
3367,110,-41,683,-63,-25,-15
3368,-113,-26,681,28,6,5
3369,116,-36,770,-36,-19,-5
3370,71,-44,603,-8,6,-6
3371,55,36,638,20,-5,-3
3372,71,110,712,6,41,2
3373,-24,-113,472,-29,22,-5
3374,10,256,758,29,-5,4
3375,93,64,505,-55,-30,-16
3376,-157,-66,518,-22,0,17
3377,242,85,827,-13,-15,-24
3378,-72,138,653,-52,11,6
3379,94,-51,348,-4,-25,-5
3380,47,2,558,-13,23,-7
3381,-86,105,492,-53,10,7
3382,-24,51,842,38,-11,-11
3383,42,48,606,-67,-12,-9
3384,-99,-50,780,5,4,14
3385,225,-47,588,-18,-13,-31
3386,-43,158,759,-37,14,6
3387,138,34,333,42,5,-3
3388,-13,-163,689,-18,13,-14
3389,-73,242,496,-13,9,13
3390,109,11,684,-1,-16,-15
3391,-86,31,550,-40,-6,1
3392,61,85,917,26,-6,5
3393,140,-25,613,-17,-1,-14
3394,-53,106,720,13,22,5
3395,40,103,494,8,25,7
3396,26,-71,435,-27,1,-14
3397,-127,253,802,-7,10,8
3398,138,-29,596,-44,-20,-20
3399,-134,-42,693,-32,-6,12
3400,128,129,627,-3,-24,-14
3401,22,47,571,-39,9,-3
3402,109,1,537,4,17,-6
3403,34,27,602,-50,-6,-2
3404,-46,-70,387,37,4,-2
3405,12,194,733,-36,-4,-3
3406,78,-2,499,-14,-7,-17
3407,-122,-80,624,-10,6,15
3408,230,-1,791,-27,-30,-28
3409,-88,183,743,21,30,7
3410,114,-91,315,-5,5,-4
3411,-54,128,707,-12,29,-12
3412,-49,173,668,14,2,16
3413,47,-9,789,-41,-17,-9
3414,-22,57,438,14,-6,-7
3415,-50,54,783,-30,-2,13
3416,244,-65,487,-19,-14,-27
3417,-76,114,716,37,22,9
3418,138,-30,407,-5,9,4
3419,-34,-149,595,-13,37,-17
3420,-195,256,512,16,1,18
3421,109,-44,694,-45,-23,-16
3422,-111,-11,641,-4,-3,5
3423,95,-47,786,-11,-5,-2
3424,100,-74,598,-35,4,-9
3425,31,51,704,22,-3,-1
3426,80,175,755,-23,21,4
3427,-15,-125,525,-63,11,-10
3428,-21,279,759,50,2,4
3429,107,55,551,-80,-23,-15
3430,-158,-58,507,-19,4,16
3431,223,76,809,1,-17,-21
3432,-39,118,649,-67,8,4
3433,79,-46,430,21,-12,-6
3434,53,38,547,-47,17,-6
3435,-71,56,497,-9,11,3
3436,-47,86,806,40,-5,-11
3437,63,42,630,-76,-13,-12
3438,-117,-51,759,32,12,14
3439,212,-17,572,-24,-19,-29
3440,-48,147,795,-24,18,7
3441,148,6,298,32,6,-3
3442,-11,-136,691,-61,11,-12
3443,-72,213,476,46,15,12
3444,106,6,668,-42,-23,-14
3445,-59,23,501,-27,-6,-5
3446,19,65,895,12,1,8
3447,173,-29,601,-52,-13,-20
3448,-65,128,750,34,21,6
3449,39,51,498,7,13,6
3450,16,-59,470,-44,5,-16
3451,-117,278,846,33,11,13
3452,127,-33,563,-56,-26,-17
3453,-132,-19,634,-5,-6,9
3454,120,123,687,-3,-15,-11
3455,23,-14,505,-45,9,-2
3456,70,16,636,-8,3,0
3457,69,50,558,-12,-5,-1
3458,-67,-118,376,-33,20,-3
3459,-46,208,714,15,8,-2
3460,92,-2,564,-8,-10,-17
3461,-130,-74,652,-48,-12,15
3462,222,0,746,21,-17,-27
3463,-60,97,732,-43,26,5
3464,120,-49,372,-44,-18,-7
3465,-1,201,772,50,13,-8
3466,-31,143,666,-74,-1,9
3467,31,48,839,35,1,-13
3468,-9,70,416,-15,-4,-11
3469,-78,49,758,-46,-14,14
3470,262,-34,598,24,-10,-29
3471,-80,145,697,-39,17,8
3472,144,-17,360,-10,9,0
3473,11,-138,574,14,10,-16
3474,-193,230,497,-53,-4,16
3475,83,-43,764,12,-9,-16
3476,-93,22,653,-33,-1,2
3477,39,-46,746,-20,-17,2
3478,135,-93,573,-9,-7,-15
3479,26,91,732,0,15,3
3480,75,96,635,9,37,7
3481,-16,-170,555,-7,3,-13
3482,-9,317,661,-1,3,9
3483,118,20,563,-30,-11,-16
3484,-149,-44,535,-14,6,14
3485,192,74,836,-13,-27,-16
3486,-29,87,615,-37,4,4
3487,73,-38,521,8,16,-1
3488,27,83,512,-46,7,-5
3489,-35,31,513,23,8,1
3490,-72,122,799,-43,-7,-7
3491,86,34,594,-20,-6,-15
3492,-125,-59,741,-12,7,16
3493,214,38,545,-36,-31,-27
3494,-65,147,781,1,25,8
3495,145,-29,278,-40,-1,-4
3496,18,-85,666,-10,-1,-11
3497,-93,165,447,14,5,11
3498,85,28,715,-69,-19,-14
3499,-28,-7,462,28,7,-11
3500,-15,-5,841,-51,-13,12
3501,203,-69,606,-19,-15,-26
3502,-71,161,753,41,30,7
3503,58,76,508,-64,4,0
3504,19,-20,593,28,11,-12
3505,-110,293,845,-15,2,15
3506,126,-44,597,-51,-18,-15
3507,-133,-10,544,18,6,4
3508,111,103,806,-43,-17,-4
3509,62,-21,489,-3,7,-8
3510,35,49,660,23,9,0
3511,101,11,543,-3,46,3
3512,-71,-142,403,7,11,-7
3513,-128,234,678,-4,-5,6
3514,104,5,614,-42,-18,-15
3515,-142,-82,637,-5,3,16
3516,205,-62,667,-28,-25,-23
3517,-19,29,706,-39,7,8
3518,115,-33,453,9,-7,-2
3519,-5,117,803,-27,38,-12
3520,-7,64,589,5,8,7
3521,50,109,803,-21,-20,-12
3522,6,61,415,-56,-10,-9
3523,-111,29,636,1,9,17
3524,271,-13,676,-45,-25,-30
3525,-91,158,701,-4,13,11
3526,130,2,317,2,-2,-2
3527,45,-139,549,-81,3,-15
3528,-165,255,545,66,11,11
3529,77,-43,711,-90,-31,-18
3530,-54,36,645,-15,5,-5
3531,-6,13,737,7,-6,4
3532,171,-80,483,-85,-25,-21
3533,-4,153,766,61,22,1
3534,113,88,476,-57,0,-1
3535,-13,-213,577,-42,-4,-10
3536,-48,303,547,63,13,10
3537,127,-31,565,-105,-35,-18
3538,-132,-51,588,30,11,4
3539,152,41,849,-19,-17,-10
3540,7,50,653,-44,10,-4
3541,55,12,603,50,11,-6
3542,-17,150,607,-37,26,2
3543,-2,12,547,-4,4,-1
3544,-58,144,872,8,0,1
3545,98,38,502,-62,-26,-13
3546,-136,-70,644,13,6,14
3547,222,73,636,-19,-19,-27
3548,-78,109,751,-12,25,10
3549,137,-123,307,21,-4,0
3550,32,-47,629,-12,39,-15
3551,-182,107,429,-12,10,16
3552,20,73,816,-8,-14,-12
3553,4,27,519,-35,-18,-4
3554,-58,-93,775,-19,-3,15
3555,229,-126,608,-29,-11,-27
3556,-59,144,794,-14,13,12
3557,111,91,498,7,-1,3
3558,6,-88,758,-48,29,-19
3559,-59,272,652,31,8,15
3560,107,11,612,-18,-17,-19
3561,-125,12,467,-39,-6,4
3562,96,121,869,10,-4,0
3563,114,-10,486,-58,-1,-12
3564,-26,59,670,7,-3,0
3565,113,81,518,-20,5,1
3566,6,-119,448,-63,12,-9
3567,-145,240,696,79,8,3
3568,131,-18,642,-83,-28,-17
3569,-140,-51,713,-13,3,10
3570,147,65,608,10,-17,-17
3571,-12,49,648,-73,7,0
3572,118,-11,509,52,5,-9
3573,33,2,660,-64,5,-1
3574,-51,-29,418,-28,3,1
3575,17,182,726,26,-11,-7
3576,53,20,535,-69,-18,-15
3577,-116,-56,672,24,11,15
3578,236,-56,748,-26,-25,-28
3579,-82,169,769,-24,22,8
3580,95,-49,332,27,3,-4
3581,-21,109,709,-65,8,-11
3582,-75,220,726,18,7,14
3583,73,-16,724,-55,-23,-12
3584,-40,41,473,-17,-7,-7
3585,-27,87,808,2,-1,10
3586,212,-69,453,-52,-17,-25
3587,-55,117,750,33,28,6
3588,141,2,440,2,14,3
3589,-36,-173,551,-27,20,-14
3590,-198,276,563,24,6,16
3591,110,-41,655,-60,-22,-15
3592,-108,-27,665,7,-1,7
3593,103,-61,748,-7,-8,-5
3594,66,-46,591,-31,8,-6
3595,55,44,645,31,3,-3
3596,68,108,735,13,36,0
3597,-29,-117,472,-43,15,-5
3598,1,260,751,41,1,4
3599,85,56,501,-45,-19,-12
3600,-148,-66,510,-13,-2,15
3601,235,1,868,20,-5,-24
3602,-69,153,635,-36,20,10
3603,97,-55,369,24,-4,-1
3604,-16,44,623,-15,41,-14
3605,-57,144,588,-18,5,10
3606,-15,28,836,3,-7,-10
3607,39,52,534,-39,-9,-7
3608,-107,-9,717,-7,5,18
3609,230,-46,503,-8,-14,-29
3610,-77,105,763,-6,19,12
3611,143,-34,358,4,17,2
3612,6,-157,650,-21,17,-20
3613,-176,239,455,14,8,15
3614,83,-16,681,-53,-18,-18
3615,-57,3,646,1,5,1
3616,0,-85,750,-4,-7,5
3617,155,-138,529,-35,-14,-18
3618,-12,152,785,23,26,5
3619,84,114,632,-18,23,5
3620,-25,-187,641,9,18,-16
3621,-54,330,652,-4,11,11
3622,127,0,548,-34,-18,-19
3623,-148,-46,556,-6,-3,9
3624,166,-6,858,-16,-21,-13
3625,3,34,597,-28,5,-4
3626,60,9,603,-4,4,-3
3627,-13,110,643,2,27,0
3628,-26,22,560,-23,9,3
3629,-74,134,859,7,1,2
3630,99,41,519,-32,-16,-15
3631,-137,-50,597,-19,1,16
3632,231,48,657,-14,-23,-28
3633,-86,120,690,-33,19,7
3634,130,-85,322,-39,-15,-6
3635,82,-13,731,19,16,-8
3636,-158,122,517,-28,0,10
3637,-2,52,823,-29,-8,-10
3638,21,51,556,-10,-4,-10
3639,-87,-8,748,-42,-13,14
3640,216,-91,469,-4,-5,-27
3641,-101,96,746,-20,21,11
3642,142,15,483,-7,-7,1
3643,1,-155,680,-41,19,-18
3644,-149,278,461,13,2,14
3645,88,-40,684,-20,-22,-18
3646,-87,3,626,-29,-4,4
3647,33,-72,734,5,-1,2
3648,125,-147,519,-44,-8,-16
3649,-11,104,744,25,18,2
3650,78,67,739,1,31,2
3651,-51,-195,563,-29,5,-9
3652,-69,325,619,16,6,6
3653,115,-36,607,-61,-21,-16
3654,-133,-72,587,-23,0,9
3655,176,-67,686,-8,-25,-16
3656,1,-8,643,-41,11,0
3657,93,-1,570,22,13,-4
3658,10,214,843,-59,-5,-2
3659,-48,15,662,23,4,-1
3660,-42,150,809,-30,-5,-6
3661,55,46,517,-19,-11,-12
3662,-120,-65,575,-9,2,19
3663,245,-115,713,-25,-27,-30
3664,-59,174,628,8,32,12
3665,136,-87,340,10,6,-5
3666,-47,63,819,-1,34,-13
3667,-111,196,697,7,11,15
3668,38,-6,802,-31,-10,-12
3669,-38,65,473,-20,-7,-9
3670,-43,106,754,-28,-12,13
3671,269,-122,407,-26,-17,-28
3672,-74,146,666,1,22,11
3673,97,23,544,-3,-8,1
3674,22,-89,697,-25,27,-19
3675,-173,289,654,-1,6,15
3676,93,-52,702,4,-11,-19
3677,-112,7,567,-32,-3,1
3678,70,116,731,-4,-10,-3
3679,124,-120,319,-52,-2,-15
3680,-8,75,697,2,1,-1
3681,91,99,695,-5,2,1
3682,-5,-100,653,-73,-2,-7
3683,-139,243,638,55,1,2
3684,115,-1,657,-61,-28,-15
3685,-142,-61,658,-30,-2,13
3686,157,62,560,27,-14,-17
3687,-32,-11,513,-58,12,3
3688,102,-49,589,21,-4,-8
3689,59,76,757,-42,3,1
3690,-85,3,617,-27,1,4
3691,-76,146,727,23,-6,-6
3692,70,50,671,-64,-20,-9
3693,-117,-38,642,8,9,19
3694,198,-54,470,-22,-26,-28
3695,-102,76,755,-21,25,14
3696,147,-76,393,-2,-4,-7
3697,49,-26,798,-28,18,-7
3698,-167,181,541,3,6,13
3699,22,11,731,-40,-11,-12
3700,-8,53,649,-11,-1,-3
3701,-56,50,640,-13,-1,14
3702,224,-180,381,-30,-16,-26
3703,-100,94,756,11,23,13
3704,142,-11,604,-20,6,-4
3705,16,-107,702,-6,18,-14
3706,-173,294,523,-7,3,12
3707,84,-48,704,-41,-11,-14
3708,-88,12,684,-7,-2,4
3709,59,46,564,-20,-6,2
3710,94,-175,357,-39,-3,-12
3711,-5,66,736,27,10,-2
3712,108,54,725,-8,30,-1
3713,-8,-106,584,-21,6,-6
3714,-136,281,600,16,2,3
3715,110,0,654,-32,-10,-13
3716,-131,-77,648,-22,3,16
3717,151,20,472,17,-11,-16
3718,-27,-13,465,-16,13,3
3719,112,-57,612,28,3,-10
3720,38,125,709,-46,-1,5
3721,-85,19,612,-7,0,5
3722,-80,148,710,4,-3,-4
3723,68,41,635,-47,-13,-12
3724,-127,2,572,9,8,18
3725,231,-8,413,-34,-38,-31
3726,-46,84,513,-4,34,14
3727,153,-72,279,-11,-2,-2
3728,-41,86,792,27,34,-20
3729,-135,162,663,-29,10,14
3730,21,-14,803,-12,-8,-15
3731,-37,38,459,-22,-11,-7
3732,-47,-42,654,-28,-5,16
3733,276,-162,412,-12,-11,-32
3734,-15,94,547,-19,12,14
3735,117,86,494,-20,-18,-1
3736,-54,-75,781,-30,11,-13
3737,-135,279,690,-13,-3,12
3738,74,-67,752,-6,-10,-16
3739,-81,6,523,-46,-8,-3
3740,4,-6,656,11,5,2
3741,113,-233,357,-50,-13,-18
3742,-44,103,722,10,6,2
3743,82,38,718,-15,12,5
3744,-34,-160,604,-37,6,-5
3745,-131,274,669,29,1,4
3746,109,-16,794,-69,-17,-17
3747,-89,-72,666,-2,9,9
3748,146,-62,404,-8,-16,-13
3749,45,-66,283,-25,8,0
3750,95,-72,498,14,10,-5
3751,5,225,538,-4,24,-5
3752,-47,-41,562,-1,14,1
3753,-85,150,796,7,-7,-4
3754,63,-22,512,-25,-17,-13
3755,-131,-84,457,-27,-3,17
3756,264,-5,585,12,-18,-28
3757,-85,86,501,-13,31,15
3758,228,-123,428,-14,-23,-11
3759,-23,49,605,23,25,-2
3760,-117,91,563,-82,-2,9
3761,-13,72,901,29,-6,-15
3762,53,39,737,-31,-11,-10
3763,-39,-86,475,-22,9,24
3764,251,-154,256,6,-17,-31
3765,49,61,299,9,31,20
3766,181,-104,63,9,-6,-2
3767,-17,-98,529,-37,6,-13
3768,-115,275,596,-10,4,13
3769,63,-46,873,-66,-14,-16
3770,-22,-8,572,14,-7,-10
3771,-42,46,329,-36,-12,11
3772,219,-211,150,-18,-12,-31
3773,-73,3,301,23,42,8
3774,151,15,83,-81,-40,4
3775,8,-263,413,0,7,-18
3776,-52,374,674,-56,4,12
3777,85,-94,814,-5,-13,-17
3778,-59,-79,502,-23,-12,-1
3779,41,33,337,-14,-1,3
3780,156,-218,90,-55,-1,-21
3781,42,-102,232,-22,-1,1
3782,21,70,153,-2,2,6
3783,-16,-260,312,-93,-20,-6
3784,-132,379,732,79,17,6
3785,190,-10,561,-99,-27,-14
3786,-33,-136,510,-3,6,9
3787,255,120,392,40,-6,-10
3788,80,2,286,-43,21,3
3789,55,80,324,33,13,-21
3790,116,513,274,-45,-7,15
3791,-36,-172,88,-40,-7,3
3792,88,243,1067,-6,5,0
3793,183,-39,599,-29,-19,-13
3794,-69,-164,329,-60,-12,15
3795,151,213,584,44,-23,-27
3796,-11,69,454,-72,26,5
3797,41,72,294,56,15,-21
3798,132,223,202,6,22,-17
3799,-64,15,204,-4,16,-3
3800,124,232,932,-10,0,-10
3801,57,98,503,-16,-9,-15
3802,10,-111,523,-27,-2,24
3803,293,172,587,50,-10,-41
3804,10,18,396,-52,18,22
3805,66,-33,605,40,-12,-9
3806,-85,188,536,-6,25,0
3807,-125,144,512,-7,1,16
3808,46,18,1081,15,-2,-12
3809,148,56,737,-60,-11,-12
3810,-64,36,541,26,7,25
3811,165,165,678,-19,-29,-37
3812,-93,237,629,-41,22,27
3813,156,31,466,-14,-24,-9
3814,37,113,450,24,18,1
3815,-74,118,588,-48,-7,15
3816,58,23,1157,15,-8,-16
3817,40,-63,572,-38,-6,-10
3818,-28,-135,537,-7,0,25
3819,182,-18,611,-22,-31,-36
3820,-27,98,643,-24,10,26
3821,116,139,547,-45,-19,-10
3822,-132,339,476,-7,10,4
3823,35,153,538,-15,-9,12
3824,85,-60,1034,-53,-12,-16
3825,42,-29,642,23,-4,-5
3826,36,209,590,-73,-24,22
3827,253,22,504,-22,-21,-35
3828,39,244,558,-32,1,30
3829,52,-49,455,0,-22,-9
3830,-73,165,630,-54,5,6
3831,-128,165,596,15,1,14
3832,78,-89,1055,-60,-5,-15
3833,135,-29,549,14,-3,-5
3834,-5,211,681,-18,-13,19
3835,179,73,594,-16,-10,-35
3836,-64,383,615,42,16,19
3837,129,13,298,14,14,-12
3838,-70,2,583,-17,28,-19
3839,-23,143,622,25,-4,11
3840,94,-107,1081,-51,-5,-14
3841,76,-32,485,-4,-4,-3
3842,-18,75,709,-42,-16,12
3843,176,81,533,-70,-36,-22
3844,-104,307,720,23,24,26
3845,178,181,256,-34,-23,-8
3846,-23,9,434,5,20,-1
3847,-19,190,665,-21,-9,10
3848,52,-60,1026,-24,-11,-14
3849,16,-38,531,-17,-4,1
3850,46,53,728,-11,18,-1
3851,140,1,467,-57,-10,-26
3852,-49,216,768,16,33,8
3853,248,229,273,-73,-23,-8
3854,20,-4,375,13,15,2
3855,-6,245,704,-13,3,6
3856,46,-50,979,-32,-8,-16
3857,-10,-47,553,-3,-8,3
3858,111,74,790,1,17,-5
3859,112,-52,444,3,3,-16
3860,-22,168,786,15,26,-11
3861,223,281,360,-40,11,-7
3862,79,-21,355,0,19,-9
3863,19,279,736,20,12,4
3864,59,-24,938,-29,-3,-15
3865,-18,-64,590,7,5,8
3866,142,101,849,2,-4,-8
3867,69,-66,437,-31,-7,-6
3868,9,132,823,51,10,-8
3869,159,367,399,-35,31,-6
3870,86,-29,347,23,17,-13
3871,42,269,777,0,5,4
3872,76,-11,903,-55,-20,-17
3873,-35,-80,659,5,1,12
3874,183,151,872,-33,-33,-10
3875,46,-95,431,-29,6,5
3876,59,119,826,11,-14,-1
3877,-14,453,460,0,14,1
3878,45,15,336,-42,-9,1
3879,75,197,824,43,6,2
3880,114,-15,862,-48,-10,-14
3881,-34,-74,697,-13,-1,13
3882,189,214,885,-12,-13,-21
3883,85,-93,439,-52,14,7
3884,110,101,813,9,1,-12
3885,-60,485,478,-48,10,4
3886,10,80,404,-24,-3,3
3887,56,128,906,-10,-1,-2
3888,115,6,884,-10,-9,-15
3889,-21,-43,683,-13,11,17
3890,157,251,833,11,-8,-29
3891,109,-28,456,-15,19,11
3892,128,23,758,12,-5,-22
3893,-51,424,556,24,48,-9
3894,-20,118,473,4,18,-5
3895,-1,103,973,38,6,-6
3896,129,21,888,-25,-12,-15
3897,-22,-34,640,-43,-4,22
3898,89,295,780,13,-21,-24
3899,82,50,521,-49,-3,23
3900,121,-21,694,25,-15,-10
3901,-52,260,597,-23,17,-1
3902,-18,125,507,23,10,3
3903,-24,97,1019,-22,-5,-7
3904,140,22,851,-7,-12,-13
3905,-48,-28,641,-45,-10,21
3906,64,253,793,-19,-24,-32
3907,32,124,580,-53,22,21
3908,132,-55,651,11,-11,-14
3909,-72,129,555,-34,3,12
3910,-9,118,585,-15,-5,9
3911,-8,92,1052,0,3,-8
3912,138,60,816,-30,-12,-13
3913,-81,33,654,-3,10,19
3914,135,267,813,-14,-9,-42
3915,-21,232,630,-8,39,19
3916,148,-79,558,-13,-6,-25
3917,-72,64,477,-6,38,1
3918,2,76,609,-33,-12,4
3919,21,41,1106,-13,5,-11
3920,136,83,740,-23,-8,-12
3921,-110,31,674,-16,8,21
3922,212,183,691,11,-22,-39
3923,-60,285,684,-13,36,24
3924,153,-40,416,14,-16,-21
3925,-28,13,508,17,55,-19
3926,19,96,546,-10,-8,6
3927,34,12,1135,19,3,-13
3928,108,76,661,-38,-10,-9
3929,-99,24,723,-20,1,22
3930,252,123,648,-25,-45,-32
3931,-105,286,747,3,12,27
3932,162,20,322,-44,-27,-10
3933,26,41,483,52,34,-9
3934,-1,131,530,-74,-19,14
3935,19,12,1127,-6,-9,-13
3936,60,80,591,-4,-12,-7
3937,-46,-2,730,-54,-5,17
3938,222,36,606,-21,-18,-33
3939,-116,278,778,-24,21,25
3940,208,80,258,-3,-21,-12
3941,33,39,410,-47,-1,9
3942,-8,185,518,-19,-6,12
3943,22,-15,1076,-52,-6,-15
3944,22,40,544,12,-12,-6
3945,14,-22,712,-34,6,10
3946,201,-1,551,-10,-7,-38
3947,-95,247,764,-17,33,17
3948,257,163,239,-27,-17,-15
3949,64,-2,280,-80,-10,9
3950,39,255,524,3,-7,8
3951,67,-23,1016,-40,0,-16
3952,19,16,507,-19,-6,-3
3953,50,20,692,-27,10,5
3954,192,-25,524,-37,-15,-36
3955,-80,267,745,-13,26,22
3956,279,206,169,-39,-19,-10
3957,117,-93,225,-51,8,12
3958,46,268,558,-23,-15,11
3959,55,-29,999,-23,-4,-16
3960,30,46,524,-30,-3,2
3961,57,90,783,-32,-8,10
3962,194,-1,501,-41,-27,-14
3963,-59,283,753,23,10,19
3964,250,133,95,1,2,-10
3965,109,-196,422,32,52,-17
3966,-27,165,605,21,0,9
3967,23,-62,1041,-23,-8,-15
3968,27,75,630,-38,-11,2
3969,18,179,895,26,17,-2
3970,197,53,527,-55,-17,-24
3971,67,255,642,-3,33,9
3972,119,-52,275,-28,-15,-5
3973,72,11,705,-5,10,4
3974,-53,180,628,-50,-11,9
3975,14,-96,1002,-13,-2,-16
3976,5,39,746,-8,-5,5
3977,-47,107,1011,-8,1,0
3978,150,-62,410,1,0,-8
3979,146,107,641,32,30,-12
3980,-24,111,464,-37,4,-1
3981,34,105,355,-15,-1,-4
3982,31,223,726,-27,-8,6
3983,57,-66,903,-29,-16,-16
3984,-54,21,704,-21,-1,7
3985,95,149,1013,-28,-7,-6
3986,128,-55,347,-38,-12,0
3987,33,121,764,54,17,-18
3988,177,261,245,-46,6,2
3989,181,-202,140,25,11,-6
3990,37,280,643,-26,3,8
3991,70,-15,874,-49,-27,-18
3992,-75,34,646,-23,-2,8
3993,139,27,978,-18,-13,-12
3994,150,15,403,-46,-2,4
3995,48,183,667,73,24,-24
3996,212,12,144,-30,4,5
3997,230,-111,682,-42,-24,2
3998,-144,114,662,12,16,9
3999,89,-60,977,-60,-27,-19
4000,-87,49,756,-12,0,15
4001,14,32,1056,6,3,-17
4002,100,-22,298,-48,14,4
4003,186,52,553,21,4,-11
4004,-95,231,282,-37,29,7
4005,124,-11,40,-28,-13,-12
4006,47,241,761,35,5,14
4007,169,-71,865,-77,-25,-27
4008,-170,-5,682,17,11,20
4009,184,26,965,-20,-35,-17
4010,73,112,392,-61,14,8
4011,70,175,582,67,13,-24
4012,247,42,226,-38,15,12
4013,190,-122,700,-69,-34,0
4014,-218,156,738,38,15,14
4015,164,-54,968,-80,-30,-24
4016,-144,46,732,0,11,22
4017,141,48,982,-23,-39,-22
4018,23,-43,337,-22,24,7
4019,117,136,560,69,12,-27
4020,157,250,231,-25,18,11
4021,140,-300,194,-55,-31,1
4022,-32,217,733,37,10,18
4023,178,-42,918,-63,-28,-25
4024,-220,-25,662,-3,16,24
4025,42,5,1009,15,-28,-22
4026,54,-22,291,-82,18,15
4027,203,49,476,18,-12,-10
4028,10,433,241,5,51,6
4029,102,-163,143,-52,-6,-30
4030,-19,244,774,48,25,7
4031,217,-37,941,-72,-19,-32
4032,-214,-46,699,-19,9,22
4033,21,-23,1011,0,-42,-20
4034,58,-40,328,-61,30,12
4035,198,57,505,-19,-2,-19
4036,31,480,288,-4,47,3
4037,84,-138,269,-74,-13,-31
4038,-57,237,786,46,25,8
4039,215,-39,952,-48,-7,-31
4040,-185,-58,680,-19,11,22
4041,-8,-63,1035,18,-37,-23
4042,16,-107,338,-87,6,16
4043,103,34,574,62,-16,-6
4044,159,387,271,-24,13,16
4045,87,-140,405,-69,-31,6
4046,-105,208,800,65,12,12
4047,191,-27,950,-79,-33,-26
4048,-188,-67,660,-5,15,23
4049,52,-111,1071,-12,-38,-21
4050,-34,-148,315,-67,21,9
4051,-26,19,635,-6,-12,-15
4052,224,202,221,-6,41,11
4053,155,-85,613,-102,-22,-13
4054,-190,229,792,57,32,13
4055,201,-22,925,-65,-26,-28
4056,-201,-20,665,-10,13,22
4057,190,-75,1032,0,-16,-26
4058,5,-78,390,-49,20,6
4059,5,18,768,10,0,-21
4060,24,230,308,2,41,7
4061,57,-54,638,-56,-8,-26
4062,-154,234,813,34,20,11
4063,218,-30,946,-66,-30,-28
4064,-174,31,721,-18,8,22
4065,144,-166,1055,15,-10,-28
4066,85,-183,523,-38,18,8
4067,103,52,788,49,10,-18
4068,-13,365,412,-26,24,7
4069,-3,-55,493,-4,-7,-23
4070,-113,196,820,-3,13,15
4071,210,-31,976,-46,-25,-30
4072,-171,-26,701,3,8,20
4073,65,-126,1089,13,-23,-20
4074,33,-173,470,-54,6,9
4075,48,20,751,94,5,-6
4076,157,313,310,-81,1,15
4077,73,-111,545,18,-15,-1
4078,-135,194,786,-15,10,17
4079,178,-30,999,-52,-29,-27
4080,-167,-44,674,13,8,20
4081,47,-128,1087,-49,-35,-18
4082,10,-178,349,-55,10,3
4083,-50,30,720,5,-5,-12
4084,209,194,222,-57,19,6
4085,147,-90,660,-19,8,-18
4086,-185,238,754,21,20,14
4087,162,-36,992,-69,-26,-26
4088,-168,-12,677,7,6,16
4089,180,-80,1002,-8,-2,-22
4090,50,-81,370,-19,11,0
4091,-58,57,782,64,13,-15
4092,127,183,249,-52,3,8
4093,103,-57,780,25,2,-15
4094,-189,262,758,-34,7,19
4095,169,-44,986,-25,-19,-26
4096,-144,8,696,-3,2,16
4097,187,-88,999,-28,-31,-17
4098,129,-123,450,-57,5,1
4099,58,42,837,40,6,-5
4100,0,215,335,-74,13,6
4101,6,-32,634,-16,-8,-14
4102,-144,272,781,7,9,11
4103,170,-53,995,-64,-23,-25
4104,-129,35,704,8,5,14
4105,138,-169,993,-11,3,-18
4106,159,-173,515,-13,7,-1
4107,107,67,802,73,13,-11
4108,-6,297,393,-64,-8,10
4109,-23,-27,516,57,8,-6
4110,-125,266,778,-37,10,19
4111,163,-53,1012,-6,-12,-24
4112,-131,0,694,-6,1,17
4113,85,-111,999,-34,-23,-16
4114,139,-171,529,-38,11,-4
4115,122,43,737,29,17,-15
4116,54,379,366,-26,13,-3
4117,-12,-29,507,32,36,-27
4118,-120,257,756,20,15,13
4119,148,-58,1024,-45,-19,-24
4120,-124,-25,680,-13,2,14
4121,39,-101,1030,-13,-14,-13
4122,117,-201,464,-81,-2,0
4123,104,14,703,51,7,0
4124,95,412,335,-89,5,3
4125,6,-45,509,-34,6,-18
4126,-115,248,747,8,5,11
4127,129,-61,1029,-68,-24,-23
4128,-115,-15,682,9,1,11
4129,-1,-66,1034,-17,-7,-11
4130,109,-208,404,-51,-14,-2
4131,97,27,689,59,-3,4
4132,140,380,307,-116,-3,9
4133,42,-84,484,-5,-1,-2
4134,-114,244,731,-19,1,14
4135,120,-64,1028,-55,-26,-21
4136,-114,-15,666,22,5,12
4137,-33,-83,1060,-21,5,-11
4138,85,-214,376,3,-4,-5
4139,45,47,668,57,8,0
4140,198,323,231,-78,-10,11
4141,84,-102,510,47,0,4
4142,-115,236,713,-70,-5,18
4143,115,-67,1047,-23,-24,-21
4144,-116,-20,652,-3,3,13
4145,0,-110,1068,-40,-9,-14
4146,78,-209,347,-8,8,-10
4147,-19,43,696,36,25,-17
4148,249,265,210,-22,7,0
4149,139,-86,579,3,24,-22
4150,-144,246,693,-38,0,16
4151,111,-66,1082,-3,-13,-23
4152,-125,-20,638,-27,-3,11
4153,77,-108,999,-13,-16,-10
4154,75,-192,351,-64,-9,-5
4155,-91,29,735,50,15,2
4156,227,146,185,-66,8,6
4157,159,-73,695,9,14,-10
4158,-185,264,700,-20,1,13
4159,117,-70,1072,-38,-18,-24
4160,-126,-1,638,-5,4,12
4161,155,-49,972,-20,6,-10
4162,97,-93,399,-1,3,-9
4163,-74,53,784,44,17,-6
4164,162,150,235,-32,-9,4
4165,123,-51,808,55,12,-11
4166,-179,265,718,-40,4,19
4167,119,-76,1060,-3,-18,-22
4168,-109,35,650,-24,-1,13
4169,171,-34,952,-15,-15,-10
4170,162,-91,458,-74,-8,-8
4171,-2,60,828,-6,8,-7
4172,84,159,294,-41,6,-3
4173,62,-34,708,1,41,-25
4174,-150,262,732,0,4,14
4175,124,-81,1066,-45,-15,-20
4176,-106,53,671,-12,3,11
4177,155,-80,924,-17,-7,-7
4178,202,-121,503,-47,-14,-4
4179,50,76,813,36,5,7
4180,20,192,325,-90,-1,4
4181,11,0,623,17,9,-11
4182,-126,264,736,-40,-9,12
4183,124,-87,1053,-35,-17,-21
4184,-98,62,669,-1,3,10
4185,139,-114,910,-19,4,-7
4186,216,-140,526,-11,-15,-7
4187,82,116,767,25,5,7
4188,-9,254,341,-79,-13,8
4189,-7,14,577,24,-7,-1
4190,-114,268,731,-64,-8,15
4191,125,-85,1053,-7,-18,-22
4192,-92,58,673,-18,-1,11
4193,117,-100,908,-14,2,-6
4194,219,-133,539,0,-11,-11
4195,110,134,735,15,10,3
4196,-16,272,346,-48,-13,8
4197,-8,16,553,15,-9,0
4198,-109,266,730,-87,-13,16
4199,119,-89,1059,-6,-13,-20
4200,-86,52,680,-39,-3,10
4201,104,-86,910,9,6,-7
4202,217,-128,543,14,4,-10
4203,119,132,728,25,22,2
4204,-8,281,345,-28,-11,6
4205,-6,13,539,15,-5,1
4206,-102,267,723,-57,-5,17
4207,120,-90,1051,14,-11,-20
4208,-83,51,680,-38,-3,11
4209,84,-73,913,6,5,-8
4210,216,-127,540,-24,-5,-12
4211,120,131,710,23,22,-2
4212,6,293,347,-23,-13,6
4213,-3,8,525,27,7,-1
4214,-99,270,717,-57,-4,19
4215,119,-93,1055,24,-11,-19
4216,-80,40,681,-42,-5,10
4217,59,-68,934,9,1,-9
4218,206,-139,556,-26,3,-13
4219,115,100,682,35,32,-10
4220,31,307,339,-17,-9,0
4221,-6,-3,506,47,32,-13
4222,-95,280,710,-22,4,17
4223,123,-96,1063,2,-15,-20
4224,-82,24,670,-40,-4,9
4225,37,-72,957,2,-4,-8
4226,189,-147,561,-57,2,-11
4227,119,64,654,42,33,-10
4228,75,344,338,-32,-3,-6
4229,-8,-3,515,-6,41,-23
4230,-90,272,706,-8,3,14
4231,109,-92,1068,-28,-14,-19
4232,-91,24,671,-22,-1,9
4233,15,-77,984,-18,-11,-6
4234,166,-175,533,-80,-10,-8
4235,104,28,655,49,25,-2
4236,100,376,334,-65,6,-6
4237,-9,-13,537,17,33,-25
4238,-90,269,700,14,0,11
4239,105,-94,1078,-50,-16,-20
4240,-89,31,674,5,4,8
4241,-25,-79,1003,-35,-7,-3
4242,146,-214,500,-41,-14,-8
4243,80,16,658,47,18,9
4244,142,385,321,-75,3,-1
4245,10,-30,526,6,17,-17
4246,-85,261,691,-25,-7,10
4247,95,-87,1075,-31,-14,-20
4248,-91,36,671,1,5,9
4249,-42,-59,999,-36,-3,0
4250,141,-224,465,-11,-20,-10
4251,87,32,637,14,9,13
4252,159,370,310,-83,-6,0
4253,29,-54,500,24,19,-12
4254,-77,264,688,-64,-12,13
4255,92,-92,1063,-24,-14,-20
4256,-92,35,668,-9,4,7
4257,-50,-50,999,-29,-2,1
4258,143,-223,456,-19,-24,-11
4259,90,35,629,-15,5,14
4260,156,375,303,-72,-2,1
4261,30,-55,494,43,30,-13
4262,-71,264,678,-43,-2,13
4263,93,-94,1061,-12,-9,-19
4264,-90,40,670,-15,1,8
4265,-49,-49,994,-38,-4,1
4266,146,-218,459,-10,-20,-12
4267,91,36,616,-14,7,14
4268,151,383,307,-60,3,-1
4269,26,-40,505,31,24,-15
4270,-70,268,681,-38,-6,13
4271,91,-93,1054,-13,-9,-19
4272,-92,48,677,-11,3,7
4273,-45,-44,989,-42,-7,0
4274,151,-215,462,0,-15,-11
4275,109,34,622,7,12,11
4276,132,393,318,-64,0,-3
4277,20,-24,495,11,26,-20
4278,-69,268,689,-34,-17,9
4279,89,-94,1064,-26,-11,-17
4280,-88,49,678,-10,5,8
4281,-27,-50,985,-48,-11,-1
4282,163,-201,480,-20,-19,-11
4283,128,36,614,7,14,2
4284,97,388,315,-69,5,-7
4285,18,-13,484,42,54,-26
4286,-65,275,693,-29,-11,11
4287,98,-96,1045,-23,-14,-19
4288,-84,49,684,-1,5,7
4289,-5,-51,968,-58,-9,-4
4290,178,-171,496,-39,-9,-10
4291,150,48,606,36,27,-7
4292,77,370,311,-61,1,-10
4293,13,-5,479,38,51,-30
4294,-68,279,701,-19,-6,12
4295,102,-98,1052,-30,-18,-19
4296,-81,45,684,-11,0,5
4297,13,-46,960,-46,-4,-6
4298,184,-147,510,-55,-4,-11
4299,156,61,630,47,28,-13
4300,68,347,325,-67,-11,-7
4301,4,1,485,65,53,-26
4302,-67,274,702,-8,4,12
4303,103,-101,1048,-22,-18,-19
4304,-80,47,681,-14,-4,8
4305,31,-51,938,-30,1,-7
4306,198,-117,529,-77,-4,-11
4307,154,81,647,42,28,-15
4308,52,328,333,-54,-15,-5
4309,4,3,462,48,32,-17
4310,-77,275,705,-14,2,14
4311,112,-99,1056,-17,-19,-19
4312,-84,52,677,-17,-7,9
4313,51,-41,905,-13,6,-9
4314,219,-92,530,-30,14,-13
4315,153,124,638,76,33,-14
4316,26,314,320,-49,-20,2
4317,13,5,443,34,11,-8
4318,-79,275,706,-64,-7,17
4319,121,-100,1049,2,-11,-19
4320,-81,58,674,-19,-7,8
4321,54,-35,891,0,7,-8
4322,217,-94,524,-37,6,-14
4323,137,134,627,72,42,-11
4324,25,328,311,-34,-15,0
4325,13,3,443,48,13,-12
4326,-78,283,700,-51,-3,17
4327,129,-105,1061,-11,-16,-19
4328,-82,47,664,-31,-8,10
4329,35,-45,923,-16,-11,-9
4330,204,-123,531,-66,0,-13
4331,127,89,629,46,39,-11
4332,64,364,307,-28,-1,-9
4333,8,-8,462,32,47,-30
4334,-85,288,694,8,6,13
4335,121,-102,1067,-36,-15,-20
4336,-82,29,647,-18,-4,8
4337,-11,-81,987,-24,-12,-3
4338,165,-183,507,-70,-19,-11
4339,84,27,611,33,16,8
4340,136,382,291,-89,-8,1
4341,23,-61,491,8,17,-12
4342,-95,265,688,-26,-5,15
4343,106,-98,1085,-42,-15,-22
4344,-94,26,635,-9,3,8
4345,-68,-72,1026,-14,11,-5
4346,117,-229,438,-3,-4,-15
4347,-14,60,625,47,20,-2
4348,260,292,219,-31,-9,0
4349,103,-97,530,49,25,-15
4350,-102,250,643,-39,-2,19
4351,92,-91,1139,16,-13,-19
4352,-101,17,605,-31,-1,10
4353,11,-109,971,-12,-12,-1
4354,106,-209,372,-53,-22,-11
4355,-134,97,716,5,13,12
4356,260,146,163,-62,-6,6
4357,180,-61,694,14,10,-2
4358,-170,287,618,-70,-13,18
4359,97,-92,1116,-7,-17,-23
4360,-100,25,595,-18,3,10
4361,98,-41,919,-39,-8,-2
4362,165,-99,484,-43,-9,-18
4363,-56,106,763,-2,25,7
4364,77,143,261,-63,1,-2
4365,59,3,633,-33,10,-15
4366,-100,288,659,-54,-11,16
4367,120,-94,1101,-8,-6,-24
4368,-77,66,638,-25,4,10
4369,0,-119,966,-37,-2,-4
4370,193,-214,691,-38,-8,-21
4371,8,55,681,6,27,3
4372,116,324,315,-46,4,-7
4373,4,-16,546,-9,30,-26
4374,-61,227,628,-45,-9,14
4375,107,-85,1143,-15,-8,-24
4376,-83,30,609,-25,2,6
4377,-75,-81,1052,-13,4,-4
4378,108,-222,589,-36,-9,-23
4379,-166,16,688,22,29,1
4380,246,193,195,-28,9,-8
4381,151,-78,612,-14,29,-31
4382,-108,278,579,-13,-5,13
4383,87,-72,1199,-7,-8,-25
4384,-78,41,588,-20,1,7
4385,39,-97,965,11,10,-1
4386,157,-140,549,-25,-3,-23
4387,-180,130,759,37,30,1
4388,130,137,203,-32,1,-7
4389,89,-19,717,12,29,-33
4390,-96,304,601,28,3,12
4391,99,-84,1142,-40,-15,-24
4392,-49,62,638,-5,-1,4
4393,-12,-125,958,10,2,3
4394,209,-146,697,-27,-2,-23
4395,-11,100,730,60,36,8
4396,80,222,306,-20,0,-6
4397,-38,67,538,0,30,-28
4398,-48,239,563,16,-3,14
4399,108,-88,1149,-53,-13,-23
4400,-42,26,643,2,0,2
4401,-83,-82,1006,14,1,7
4402,158,-200,711,-29,-5,-23
4403,-144,1,698,69,33,11
4404,252,200,215,-14,-1,-5
4405,101,-70,581,7,17,-23
4406,-72,272,510,37,5,16
4407,76,-75,1240,-43,-7,-20
4408,-35,51,587,5,-2,0
4409,-25,-118,966,14,0,10
4410,175,-198,595,-40,-14,-25
4411,-253,88,772,50,22,15
4412,167,120,156,-37,-17,-4
4413,85,-27,711,-1,11,-15
4414,-91,302,526,45,0,16
4415,77,-91,1177,-44,-11,-21
4416,-3,73,603,5,-4,-2
4417,-40,-132,970,-5,-8,13
4418,217,-117,707,-44,-15,-24
4419,-48,104,770,54,27,23
4420,86,122,313,-25,-15,-5
4421,-65,98,572,6,4,-2
4422,-26,258,516,22,-2,19
4423,84,-98,1154,-59,-12,-19
4424,8,46,659,11,-3,-3
4425,-100,-58,955,-29,-15,13
4426,212,-159,813,-56,-22,-24
4427,-83,16,727,-3,19,26
4428,226,188,277,-8,-13,-4
4429,6,-7,620,-62,-1,5
4430,-44,200,490,8,-9,15
4431,62,-92,1227,-77,-13,-20
4432,4,57,622,-5,-7,-4
4433,-122,-109,973,-28,-4,12
4434,143,-228,683,-38,-18,-32
4435,-232,-4,718,-30,29,20
4436,231,103,162,2,1,-9
4437,112,-44,666,-62,20,-18
4438,-65,280,480,23,5,10
4439,27,-74,1250,-47,2,-19
4440,27,82,601,-17,-14,-6
4441,-38,-79,919,-5,14,11
4442,224,-175,626,-32,-12,-36
4443,-191,149,779,45,47,17
4444,175,79,199,-38,-17,-14
4445,32,25,729,13,19,-24
4446,-49,297,514,-3,6,13
4447,29,-83,1211,-28,0,-16
4448,40,95,603,5,-12,-8
4449,-61,-122,901,-20,-2,17
4450,288,-135,696,-19,-16,-33
4451,-26,141,750,21,17,29
4452,111,86,329,-45,-30,-7
4453,-96,160,597,13,13,10
4454,-26,238,462,-17,-9,21
4455,40,-90,1196,-63,-6,-14
4456,53,69,643,29,-10,-8
4457,-118,-76,875,-65,-11,19
4458,271,-151,807,-24,-22,-33
4459,-17,80,669,-18,29,19
4460,219,148,279,-9,-9,-11
4461,-52,109,591,-54,30,-5
4462,-30,179,426,-1,0,13
4463,20,-87,1239,-63,-6,-14
4464,27,79,607,3,-13,-10
4465,-162,-79,910,-42,12,17
4466,167,-227,739,-29,-15,-42
4467,-156,10,641,16,50,17
4468,275,125,176,-13,-11,-17
4469,131,-4,635,-10,35,-26
4470,-33,271,407,-19,1,9
4471,-15,-71,1295,-3,4,-14
4472,46,102,553,-12,-21,-11
4473,-89,-91,860,-20,18,19
4474,253,-215,651,-7,-18,-46
4475,-202,124,721,29,46,23
4476,205,71,175,-23,-19,-18
4477,36,47,753,53,32,-22
4478,-17,281,471,-20,4,13
4479,-17,-59,1232,-1,1,-13
4480,78,119,577,6,-16,-12
4481,-124,-157,880,-31,10,23
4482,302,-159,734,-2,-30,-44
4483,-41,138,680,26,41,29
4484,151,64,334,-40,-33,-16
4485,-114,234,611,90,37,-9
4486,29,196,367,-43,-4,17
4487,-7,-61,1228,-3,-1,-9
4488,86,61,623,6,-17,-11
4489,-189,-117,874,-48,8,28
4490,229,-147,840,22,-26,-42
4491,-129,26,666,0,38,32
4492,267,86,265,-44,-43,-15
4493,66,34,603,88,35,-6
4494,-20,221,359,-56,-11,16
4495,-30,-47,1322,16,-4,-10
4496,69,85,562,-8,-19,-13
4497,-156,-125,832,-53,9,29
4498,246,-232,756,34,-26,-43
4499,-263,37,690,-6,46,31
4500,169,66,190,-29,-46,-18
4501,41,62,714,76,44,-12
4502,16,289,465,-46,-7,14
4503,-58,-41,1257,30,-2,-10
4504,110,116,588,-22,-21,-13
4505,-190,-194,859,-35,16,28
4506,274,-151,830,38,-22,-50
4507,-81,132,680,-6,62,29
4508,208,77,364,17,-19,-22
4509,-148,290,645,12,40,-25
4510,70,142,336,-17,-9,5
4511,-28,-63,1244,26,5,-10
4512,108,59,647,-38,-18,-15
4513,-219,-132,862,-10,20,28
4514,193,-87,882,-4,-22,-50
4515,-258,-23,698,-18,50,26
4516,206,23,287,-17,-30,-25
4517,148,49,607,-6,58,-6
4518,41,222,379,-38,-21,3
4519,-79,-47,1284,-3,8,-10
4520,121,120,621,-20,-14,-19
4521,-227,-103,784,-32,14,31
4522,264,-117,875,-18,-41,-43
4523,-171,66,673,-26,34,33
4524,164,58,371,-33,-38,-21
4525,-157,264,663,51,58,17
4526,120,145,373,-69,-27,9
4527,-56,-30,1210,26,3,-6
4528,156,96,696,-43,-19,-18
4529,-244,-151,827,-39,13,34
4530,198,-74,956,37,-33,-40
4531,-176,62,675,-54,42,37
4532,235,32,471,10,-38,-19
4533,37,141,515,13,28,4
4534,77,113,345,-43,-34,8
4535,-81,-30,1257,33,2,-5
4536,146,93,675,-53,-22,-20
4537,-215,-124,731,-10,19,32
4538,234,-128,901,25,-27,-45
4539,-245,-32,615,-40,46,34
4540,103,40,381,66,-10,-21
4541,14,158,573,6,36,-11
4542,98,171,482,24,-13,0
4543,-108,0,1196,-1,6,-7
4544,186,117,696,-45,-24,-22
4545,-229,-186,735,3,23,32
4546,227,-133,946,-14,-29,-55
4547,-89,87,622,-18,47,29
4548,199,99,515,16,-12,-30
4549,-142,369,608,-30,47,-4
4550,125,20,277,-24,-16,-9
4551,-71,-8,1172,-24,14,-6
4552,187,72,724,-31,-24,-26
4553,-225,-182,753,-24,14,36
4554,160,-27,972,-13,-34,-48
4555,-258,-49,585,-57,32,35
4556,114,13,484,5,-22,-26
4557,111,118,516,-17,45,22
4558,96,146,408,-37,-31,4
4559,-157,14,1151,2,11,-1
4560,205,107,701,-62,-28,-27
4561,-237,-147,703,-8,16,33
4562,219,-90,988,2,-33,-42
4563,-107,21,584,-40,34,35
4564,175,98,568,39,-19,-18
4565,-191,377,627,-35,17,3
4566,121,43,243,84,10,-1
4567,-82,30,1112,-32,10,2
4568,233,52,757,-16,-31,-29
4569,-224,-180,772,-14,20,33
4570,143,-25,1029,-6,-25,-55
4571,-220,3,573,-24,48,27
4572,103,40,571,22,-5,-30
4573,166,140,458,-54,43,11
4574,110,106,345,-32,-6,-9
4575,-164,18,1125,-11,14,2
4576,222,69,694,-26,-27,-29
4577,-258,-129,697,-35,13,35
4578,235,-34,1012,-4,-32,-39
4579,-124,-1,533,-38,23,32
4580,151,88,635,16,-27,-20
4581,-160,423,591,-37,8,12
4582,106,32,258,51,-3,3
4583,-111,46,1063,-35,9,10
4584,248,46,777,22,-31,-30
4585,-215,-167,772,-44,16,35
4586,140,17,1057,3,-24,-51
4587,-226,-9,583,-38,45,22
4588,48,45,598,26,-7,-30
4589,181,147,471,-40,46,15
4590,118,37,414,-65,-23,-6
4591,-188,53,1044,-21,6,10
4592,222,73,754,-16,-24,-33
4593,-279,-120,716,-34,25,36
4594,179,75,1004,7,-37,-38
4595,-77,-38,546,-11,39,26
4596,151,109,694,1,-29,-24
4597,-123,479,583,-12,30,1
4598,70,-43,288,-27,-12,-19
4599,-74,65,998,6,4,9
4600,234,39,806,-7,-27,-31
4601,-225,-165,752,-58,17,33
4602,142,88,1098,16,-33,-40
4603,-226,-64,564,-32,21,24
4604,-58,32,598,-10,-33,-21
4605,121,244,443,29,32,8
4606,106,-27,560,-17,-9,-3
4607,-190,111,957,25,11,17
4608,246,26,810,-6,-31,-29
4609,-249,-118,715,-71,13,35
4610,118,110,1021,31,-16,-42
4611,-93,-53,531,-60,28,17
4612,110,140,752,-15,-32,-21
4613,37,430,447,28,45,18
4614,51,-78,429,-69,-20,0
4615,-54,79,931,47,22,17
4616,236,0,874,-28,-31,-32
4617,-237,-167,728,-49,15,33
4618,164,231,1062,32,-20,-38
4619,-77,-15,523,-64,36,15
4620,-17,67,700,19,-8,-20
4621,-76,357,460,5,49,20
4622,6,-22,511,-89,-31,-11
4623,-93,138,880,5,11,17
4624,277,-24,858,-46,-32,-33
4625,-220,-53,751,-36,14,31
4626,82,180,1122,30,-17,-34
4627,-135,-61,484,-49,32,12
4628,-137,6,709,8,-5,-18
4629,179,164,272,-8,42,17
4630,132,-83,658,-93,-29,-15
4631,-217,147,817,24,22,17
4632,238,-22,930,-51,-31,-34
4633,-242,-57,725,-23,12,27
4634,96,274,1012,18,-18,-28
4635,7,-61,466,-51,25,8
4636,73,125,884,39,8,-17
4637,-6,423,344,-25,37,16
4638,-18,-78,532,-57,-6,-23
