sequence,AccelerometerX,AccelerometerY,AccelerometerZ,GyroscopeX,GyroscopeY,GyroscopeZ
0,69,19,1009,-7,9,-5
1,-50,45,1007,-7,25,-1
2,-137,26,984,-33,21,3
3,-118,-22,993,-27,1,-4
4,-9,-71,991,-18,-18,-10
5,86,-69,1006,-5,-24,-14
6,121,-29,1006,9,-7,-11
7,48,36,1007,3,14,-5
8,-79,48,989,-14,25,2
9,-134,17,1002,-26,16,-1
10,-101,-45,977,-26,-5,-5
11,7,-77,1008,-18,-20,-10
12,111,-66,999,-7,-21,-14
13,102,-9,1005,2,-1,-9
14,28,37,1001,-7,16,-3
15,-108,50,997,-18,25,3
16,-130,5,989,-24,13,-2
17,-81,-60,996,-28,-7,-7
18,32,-75,986,-16,-22,-10
19,119,-55,1020,-5,-18,-13
20,91,-6,993,-3,4,-9
21,-11,48,1014,-6,21,-1
22,-103,42,990,-21,22,0
23,-139,0,994,-27,11,-3
24,-48,-58,984,-26,-14,-7
25,54,-83,1002,-14,-21,-13
26,121,-51,1000,-4,-14,-11
27,74,16,1005,-1,7,-7
28,-33,43,1011,-10,22,-2
29,-122,32,991,-22,20,3
30,-129,-13,979,-26,4,-3
31,-13,-68,1001,-23,-18,-12
32,72,-72,996,-10,-21,-12
33,114,-31,1005,-2,-8,-10
34,59,23,1006,-4,10,-6
35,-67,41,999,-12,25,0
36,-122,20,989,-24,18,1
37,-110,-41,983,-27,-1,-5
38,1,-64,1000,-16,-20,-10
39,97,-66,1004,-9,-20,-13
40,109,-14,994,-1,-4,-11
41,32,31,1014,-5,16,-3
42,-86,42,990,-18,27,0
43,-137,4,996,-25,14,-1
44,-82,-43,987,-26,-7,-7
45,18,-80,1003,-17,-20,-11
46,116,-48,992,-3,-18,-12
47,93,-9,1013,-4,0,-8
48,8,46,995,-7,18,-2
49,-102,38,999,-20,23,2
50,-143,-3,996,-27,11,-1
51,-65,-60,985,-23,-11,-7
52,42,-78,1000,-13,-21,-12
53,125,-49,999,-3,-17,-12
54,81,16,1004,-1,5,-6
55,-19,46,1009,-12,20,0
56,-116,38,989,-21,22,1
57,-128,-22,989,-29,7,-1
58,-41,-68,994,-22,-15,-8
59,68,-79,996,-9,-24,-13
60,119,-27,1005,0,-13,-11
61,70,22,1006,-4,9,-6
62,-53,50,1003,-13,24,0
63,-127,22,989,-24,19,1
64,-123,-35,986,-29,2,-4
65,-8,-76,991,-20,-18,-11
66,93,-68,1007,-8,-22,-13
67,115,-17,1002,-2,-6,-10
68,42,33,1010,-3,13,-3
69,-87,51,990,-16,24,2
70,-127,17,998,-26,15,-1
71,-101,-43,986,-28,-5,-6
72,17,-76,996,-19,-20,-11
73,111,-70,1007,-8,-20,-13
74,99,-10,995,-1,-1,-8
75,15,37,1011,-7,17,-2
76,-106,50,991,-19,24,2
77,-137,2,994,-26,11,-2
78,-60,-54,994,-26,-11,-8
79,36,-77,989,-12,-22,-11
80,127,-50,1009,-3,-17,-13
81,79,0,1001,-4,4,-6
82,-19,48,1004,-8,21,-1
83,-117,31,999,-22,22,1
84,-130,-11,981,-27,6,-2
85,-40,-62,994,-22,-14,-8
86,62,-72,1000,-12,-22,-13
87,124,-39,1002,-4,-12,-10
88,63,15,1002,-4,10,-5
89,-49,45,1010,-14,24,0
90,-121,23,991,-22,19,0
91,-121,-21,981,-27,0,-3
92,-10,-66,993,-22,-18,-9
93,85,-69,1004,-9,-22,-13
94,114,-32,1006,-1,-7,-9
95,46,28,993,-4,13,-3
96,-76,45,1009,-15,25,0
97,-125,20,988,-24,15,0
98,-106,-34,977,-28,-3,-5
99,8,-68,1010,-20,-20,-12
100,109,-70,997,-9,-21,-12
101,99,-19,998,-2,-3,-8
102,26,37,1007,-6,15,-3
103,-99,43,998,-17,25,1
104,-131,9,986,-24,11,-1
105,-84,-48,995,-27,-9,-6
106,36,-75,993,-16,-22,-12
107,124,-59,1003,-6,-17,-12
108,82,-5,999,-1,3,-6
109,-4,44,1010,-5,19,-3
110,-109,39,992,-20,22,1
111,-139,0,992,-26,9,-1
112,-47,-54,991,-24,-13,-9
113,52,-85,998,-14,-22,-12
114,124,-39,997,-4,-15,-11
115,77,8,1012,-2,6,-7
116,-33,49,1009,-8,22,0
117,-124,34,982,-22,22,1
118,-127,-17,996,-26,5,-3
119,-26,-66,991,-22,-16,-9
120,76,-74,998,-11,-20,-13
121,115,-32,1012,-1,-9,-10
122,64,19,998,-3,11,-7
123,-62,44,1003,-11,25,1
124,-130,28,994,-23,17,2
125,-118,-26,980,-28,-1,-4
126,3,-76,1001,-21,-19,-11
127,88,-68,1003,-10,-22,-11
128,118,-27,1001,-2,-6,-9
129,37,29,1010,-2,16,-6
130,-84,47,994,-16,24,1
131,-139,20,990,-25,15,0
132,-98,-44,988,-26,-5,-6
133,24,-71,1000,-20,-21,-11
134,119,-68,998,-8,-20,-12
135,98,-5,1009,-4,0,-7
136,8,33,997,-7,19,-1
137,-107,50,997,-16,24,0
138,-134,0,993,-26,11,-2
139,-70,-54,988,-25,-10,-7
140,46,-72,995,-14,-23,-12
141,123,-51,1007,-5,-17,-12
142,81,2,998,-2,4,-6
143,-24,48,1010,-8,22,-2
144,-114,35,992,-20,22,0
145,-132,-14,985,-27,7,-1
146,-34,-62,991,-24,-15,-10
147,65,-75,1002,-11,-22,-13
148,120,-33,1004,-2,-11,-10
149,60,17,1002,-4,9,-6
150,-48,39,1010,-12,23,-1
151,-125,26,984,-21,19,3
152,-120,-24,988,-27,2,-3
153,-9,-65,992,-21,-19,-10
154,87,-67,1005,-11,-22,-12
155,112,-21,1008,-3,-7,-11
156,45,20,1000,-7,13,-4
157,-84,45,1000,-14,25,1
158,-126,11,990,-24,15,1
159,-108,-35,986,-26,-4,-4
160,18,-63,1005,-17,-22,-12
161,113,-57,1003,-9,-21,-13
162,98,-13,993,-2,-2,-7
163,25,34,1015,-7,16,-3
164,-108,36,983,-20,25,2
165,-134,7,1003,-25,11,-2
166,-73,-51,982,-28,-10,-8
167,35,-72,1003,-15,-22,-11
168,130,-50,999,-5,-19,-12
169,79,-2,1002,-4,4,-7
170,-5,49,1011,-8,19,-1
171,-113,35,986,-22,22,3
172,-139,-7,990,-26,9,-2
173,-33,-65,999,-24,-15,-8
174,48,-74,991,-14,-21,-11
175,125,-42,1005,-3,-14,-11
176,73,16,1011,-2,8,-7
177,-48,43,1002,-13,25,1
178,-116,37,989,-21,19,-1
179,-127,-30,991,-28,3,-4
180,-17,-62,987,-22,-17,-10
181,75,-77,1001,-11,-21,-12
182,120,-27,1012,-1,-8,-11
183,56,18,996,-4,11,-4
184,-74,49,1003,-13,25,1
185,-121,13,993,-24,17,1
186,-117,-29,984,-25,-1,-4
187,9,-60,993,-19,-20,-9
188,102,-63,1017,-9,-21,-14
189,109,-25,990,-3,-3,-10
190,22,30,1007,-4,16,-2
191,-88,41,1002,-17,24,0
192,-140,9,985,-23,12,-1
193,-80,-41,987,-26,-7,-6
194,22,-78,1011,-16,-20,-13
195,121,-48,991,-6,-18,-14
196,91,-17,1010,-5,3,-8
197,0,43,1004,-6,19,-3
198,-108,31,988,-19,24,1
199,-132,7,1000,-25,9,-3
200,-62,-56,992,-26,-13,-8
201,58,-72,991,-15,-22,-12
202,119,-54,1012,-7,-15,-11
203,78,7,995,-3,5,-6
204,-29,36,1010,-10,22,-2
205,-121,43,988,-20,21,0
206,-128,-9,986,-28,4,-2
207,-23,-64,996,-23,-16,-9
208,63,-71,995,-14,-22,-11
209,125,-37,1009,-3,-12,-11
210,65,17,1004,-3,12,-6
211,-64,46,1001,-12,25,2
212,-127,24,994,-23,18,-1
213,-113,-28,980,-29,0,-5
214,-10,-63,1000,-19,-18,-10
215,99,-65,999,-12,-22,-13
216,114,-29,1015,-2,-4,-11
217,39,32,987,-6,15,-3
218,-89,39,1012,-16,26,2
219,-121,10,982,-23,16,-1
220,-112,-37,989,-25,-3,-3
221,25,-62,1001,-19,-22,-12
222,103,-66,1009,-7,-19,-13
223,108,-11,991,-1,-2,-8
224,17,35,1014,-8,18,-4
225,-96,39,991,-17,25,1
226,-142,4,993,-24,12,-1
227,-78,-50,990,-24,-10,-7
228,30,-70,998,-16,-23,-13
229,134,-51,1000,-6,-17,-12
230,90,0,1006,-2,4,-7
231,-10,41,1008,-9,20,-1
232,-117,31,991,-21,22,2
233,-140,-1,986,-27,7,-1
234,-48,-62,992,-23,-15,-8
235,63,-76,999,-12,-24,-13
236,127,-37,1001,-4,-14,-11
237,68,14,1013,-3,7,-6
238,-35,44,1003,-12,22,-1
239,-131,27,992,-22,21,2
240,-129,-18,979,-28,2,-3
241,-14,-68,998,-23,-19,-10
242,84,-72,1000,-10,-22,-11
243,119,-29,1006,-3,-9,-9
244,54,27,1011,-4,12,-4
245,-75,42,993,-14,25,2
246,-136,17,994,-25,17,1
247,-108,-31,983,-28,-3,-5
248,11,-67,1003,-19,-19,-11
249,109,-64,1001,-9,-20,-13
250,107,-22,997,-3,-3,-9
251,32,29,1008,-5,17,-5
252,-105,45,994,-17,26,3
253,-140,9,992,-26,11,0
254,-78,-48,996,-26,-9,-8
255,36,-70,995,-15,-21,-11
256,118,-52,998,-7,-19,-13
257,96,-9,1012,-3,2,-8
258,-7,37,993,-9,21,0
259,-117,38,998,-20,23,2
260,-130,-6,993,-25,9,-3
261,-55,-49,993,-22,-11,-8
262,61,-73,990,-15,-23,-12
263,122,-40,1012,-4,-15,-12
264,79,5,999,-3,5,-6
265,-38,37,1007,-10,23,0
266,-122,29,993,-20,20,0
267,-129,-16,986,-26,4,-3
268,-27,-54,990,-23,-16,-10
269,79,-72,999,-12,-23,-13
270,126,-20,1018,-1,-9,-10
271,64,11,992,-6,12,-4
272,-69,45,1004,-13,27,-1
273,-132,16,1000,-24,17,0
274,-119,-27,969,-27,0,-5
275,-5,-69,1004,-20,-20,-10
276,107,-69,1009,-9,-22,-14
277,112,-26,994,-4,-4,-9
278,35,33,1006,-6,16,-3
279,-95,49,1002,-16,25,0
280,-134,16,984,-24,13,0
281,-102,-43,991,-27,-7,-5
282,25,-74,998,-18,-22,-13
283,122,-69,1004,-7,-19,-14
284,100,-8,997,-2,2,-7
285,13,37,1010,-6,19,-2
286,-108,40,992,-18,25,1
287,-147,1,994,-27,10,0
288,-67,-51,989,-26,-12,-6
289,42,-76,998,-15,-23,-12
290,136,-47,1001,-3,-18,-13
291,89,2,1009,-3,5,-8
292,-17,39,1005,-10,22,-2
293,-127,30,993,-22,25,3
294,-144,-11,985,-26,6,-3
295,-47,-63,993,-23,-16,-8
296,67,-69,991,-12,-25,-12
297,139,-30,1014,-2,-15,-12
298,81,15,1006,-6,9,-5
299,-52,46,1003,-14,26,0
300,-140,12,994,-24,21,1
301,-139,-32,978,-26,1,-4
302,-15,-78,994,-18,-19,-9
303,92,-59,1006,-7,-24,-12
304,141,-19,1007,-1,-9,-11
305,62,29,1011,-3,14,-5
306,-83,49,991,-14,27,2
307,-153,10,993,-24,18,0
308,-129,-39,981,-25,-5,-5
309,11,-72,1000,-19,-23,-11
310,126,-66,1001,-8,-23,-12
311,129,-16,1012,0,-3,-9
312,38,40,998,-6,20,-3
313,-119,44,1000,-17,29,2
314,-164,6,988,-26,13,0
315,-101,-49,988,-28,-10,-6
316,47,-73,993,-17,-26,-13
317,144,-55,1014,-5,-20,-13
318,117,-9,994,-3,3,-9
319,-4,44,1013,-7,24,-1
320,-135,39,992,-21,26,3
321,-166,0,985,-28,11,-1
322,-56,-62,987,-25,-16,-7
323,67,-83,1004,-14,-26,-13
324,154,-50,994,-3,-17,-12
325,90,4,1015,-1,9,-7
326,-40,52,1002,-9,27,0
327,-145,40,993,-22,23,2
328,-146,-8,979,-28,5,-2
329,-32,-61,996,-25,-18,-9
330,94,-65,998,-13,-26,-14
331,142,-40,1012,-5,-10,-9
332,64,8,999,-5,12,-4
333,-66,45,1007,-13,26,0
334,-151,18,988,-24,21,1
335,-142,-18,978,-27,-1,-2
336,7,-72,1003,-19,-22,-13
337,109,-70,1002,-11,-24,-13
338,140,-16,1004,-4,-6,-8
339,45,14,1006,-5,17,-5
340,-101,41,994,-15,28,2
341,-162,8,987,-22,17,1
342,-111,-37,989,-24,-7,-6
343,33,-67,999,-17,-24,-10
344,140,-57,1004,-6,-22,-12
345,112,-9,1006,0,1,-7
346,15,41,1005,-6,24,0
347,-128,44,996,-9,34,3
348,-156,6,988,-28,13,-1
349,-75,-53,989,-27,-12,-8
350,54,-71,994,-14,-24,-12
351,140,-48,1004,-6,-17,-12
352,98,5,1009,-3,4,-8
353,-23,34,1003,-10,23,0
354,-134,34,994,-20,25,2
355,-143,-8,983,-24,7,-2
356,-45,-59,994,-22,-16,-10
357,74,-70,993,-14,-26,-13
358,142,-46,1018,-3,-14,-13
359,76,11,994,-3,10,-6
360,-54,47,1009,-12,27,0
361,-134,29,992,-24,21,0
362,-142,-23,979,-29,2,-3
363,-10,-64,992,-22,-20,-11
364,97,-72,1010,-12,-23,-12
365,135,-35,997,-3,-8,-10
366,55,20,1011,-3,13,-4
367,-87,44,995,-15,26,2
368,-145,21,988,-24,18,0
369,-116,-21,992,-27,-4,-6
370,22,-72,994,-22,-22,-13
371,115,-62,1007,-6,-20,-14
372,123,-20,994,-3,-3,-8
373,17,25,1014,-6,20,-2
374,-116,41,982,-18,26,2
375,-154,12,1004,-25,11,-1
376,-70,-43,982,-27,-11,-8
377,42,-72,999,-17,-23,-11
378,141,-49,1002,-7,-19,-13
379,89,-8,1010,-4,5,-8
380,-11,40,995,-9,23,1
381,-133,29,1005,-21,24,2
382,-142,-1,975,-27,7,-2
383,-48,-56,1001,-25,-15,-8
384,73,-64,995,-15,-25,-14
385,135,-44,1008,-5,-13,-12
386,74,7,1003,-3,9,-6
387,-48,46,1006,-11,25,0
388,-136,25,992,-22,20,0
389,-138,-26,979,-28,3,-2
390,-13,-60,995,-21,-19,-11
391,96,-73,1004,-10,-24,-13
392,135,-31,1005,-4,-8,-11
393,57,14,1004,-3,15,-4
394,-87,48,1001,-12,27,2
395,-147,12,983,-22,18,1
396,-123,-29,988,-24,-4,-5
397,10,-63,1001,-20,-23,-9
398,119,-58,1000,-9,-22,-13
399,125,-20,1003,-1,-5,-9
400,34,22,1009,-6,18,-1
401,-107,42,985,-16,29,2
402,-155,12,1003,-24,14,-2
403,-101,-36,978,-26,-9,-6
404,34,-71,1001,-18,-24,-11
405,142,-56,1009,-7,-22,-14
406,111,-9,1000,-3,2,-8
407,6,33,1004,-8,20,-1
408,-137,47,1001,-19,26,2
409,-153,1,983,-28,10,-1
410,-71,-48,992,-25,-14,-8
411,65,-73,1000,-16,-26,-11
412,148,-57,1004,-5,-18,-13
413,100,-2,1003,-2,5,-9
414,-30,37,1015,-9,25,1
415,-143,39,986,-20,25,0
416,-155,-10,984,-26,6,-2
417,-41,-53,992,-24,-18,-9
418,90,-74,999,-13,-25,-14
419,145,-42,1009,-3,-13,-11
420,86,10,1002,-4,11,-5
421,-72,34,1003,-12,29,0
422,-151,32,991,-22,21,1
423,-143,-21,976,-28,1,-5
424,-4,-62,999,-20,-22,-10
425,117,-63,1008,-11,-25,-13
426,135,-30,1006,-4,-6,-12
427,55,17,1001,-6,15,-3
428,-105,38,1002,-15,29,2
429,-159,12,983,-23,16,-1
430,-113,-36,988,-24,-7,-5
431,28,-83,999,-16,-25,-9
432,134,-66,1004,-3,-21,-13
433,118,-8,1002,0,-1,-8
434,-9,17,997,-4,18,3
435,-124,57,1002,-12,22,6
436,-141,29,999,-24,11,-5
437,-49,-23,986,-28,-12,-6
438,64,-47,1012,-20,-22,-11
439,132,-66,987,-15,-16,-12
440,73,-24,1010,-7,6,-7
441,-33,6,995,-10,21,0
442,-129,18,994,-16,21,2
443,-134,-13,982,-20,5,-2
444,-38,-36,999,-17,-16,-8
445,84,-48,999,-12,-24,-12
446,133,-23,1001,-6,-12,-11
447,75,12,1008,-8,9,-5
448,-58,28,1004,-16,25,0
449,-142,5,984,-23,19,2
450,-130,-34,983,-25,0,-4
451,-15,-61,994,-16,-19,-10
452,103,-38,1014,-7,-23,-14
453,133,6,1007,-5,-7,-13
454,71,23,1005,-13,15,-5
455,-90,18,993,-23,29,2
456,-153,-26,990,-26,18,0
457,-127,-61,972,-22,-3,-5
458,5,-73,1006,-11,-22,-11
459,114,-42,1001,-1,-24,-13
460,131,20,1005,2,-3,-11
461,42,62,1018,-9,18,-3
462,-99,54,987,-23,28,3
463,-153,-7,999,-32,15,-1
464,-100,-74,980,-31,-10,-7
465,25,-91,995,-15,-24,-13
466,134,-67,1005,-3,-21,-14
467,101,3,1001,1,1,-7
468,6,49,1011,-5,21,-1
469,-127,51,999,-18,25,2
470,-143,13,983,-28,9,-1
471,-63,-52,996,-27,-13,-8
472,50,-76,994,-19,-25,-11
473,146,-55,1001,-6,-18,-14
474,73,-15,1012,-4,7,-5
475,-27,40,1005,-8,23,0
476,-128,24,987,-20,22,1
477,-138,6,989,-23,5,-2
478,-28,-53,993,-24,-18,-9
479,87,-54,999,-13,-23,-15
480,129,-43,1009,-7,-11,-8
481,72,10,1003,-5,11,-6
482,-75,21,1002,-13,27,2
483,-134,22,986,-20,18,1
484,-137,-27,988,-25,0,-5
485,8,-55,993,-19,-22,-13
486,106,-62,1010,-10,-22,-13
487,132,-15,999,-3,-6,-10
488,41,15,1011,-6,17,-4
489,-107,43,988,-16,27,2
490,-152,6,994,-26,15,1
491,-96,-38,990,-23,-7,-8
492,28,-78,999,-19,-22,-10
493,127,-51,999,-3,-19,-13
494,106,-5,1009,-3,-1,-8
495,10,37,999,-9,17,-2
496,-121,39,1000,-20,25,2
497,-143,-9,987,-28,9,-2
498,-69,-57,989,-25,-12,-7
499,59,-72,998,-13,-24,-12
500,136,-44,1008,-5,-17,-12
501,88,7,1000,-2,7,-6
502,-18,45,1011,-11,24,-1
503,-133,32,988,-23,24,2
504,-150,-12,984,-29,7,-2
505,-40,-64,995,-23,-19,-8
506,80,-67,994,-13,-25,-13
507,138,-34,1008,-3,-12,-12
508,86,14,1010,-5,10,-5
509,-61,38,993,-14,26,2
510,-142,24,999,-22,21,1
511,-141,-24,975,-29,1,-3
512,-8,-59,999,-19,-22,-11
513,102,-72,1002,-10,-25,-12
514,134,-22,1014,-3,-7,-11
515,64,21,995,-6,14,-5
516,-91,47,1007,-15,28,2
517,-146,7,985,-27,18,0
518,-109,-37,983,-23,-2,-7
519,0,-66,1004,-19,-21,-11
520,118,-57,1001,-6,-23,-13
521,122,-18,1003,0,-4,-9
522,30,22,1006,-5,18,-2
523,-110,52,994,-14,27,1
524,-156,4,995,-26,13,-1
525,-99,-43,982,-27,-10,-6
526,46,-72,1002,-15,-25,-13
527,142,-58,1005,-8,-19,-14
528,105,-8,998,-2,5,-6
529,-1,35,1014,-7,24,-3
530,-145,37,990,-20,26,3
531,-157,10,985,-26,9,-1
532,-60,-55,996,-26,-16,-9
533,73,-71,997,-16,-25,-13
534,156,-52,1003,-6,-16,-12
535,89,0,1007,-2,9,-7
536,-43,34,1016,-11,26,0
537,-146,30,977,-21,25,1
538,-161,-11,988,-26,4,-3
539,-19,-47,996,-23,-21,-11
540,95,-80,998,-14,-25,-13
541,155,-27,1012,-4,-11,-10
542,73,4,1006,-6,14,-4
543,-82,43,999,-11,31,1
544,-161,18,987,-25,20,3
545,-141,-22,982,-26,-3,-5
546,7,-64,994,-19,-26,-11
547,129,-64,1010,-9,-26,-14
548,142,-25,1006,-1,-4,-10
549,42,16,1002,-5,18,-2
550,-113,48,995,-16,30,2
551,-172,15,992,-25,15,1
552,-114,-43,978,-28,-8,-6
553,37,-66,1009,-18,-25,-13
554,150,-63,1000,-8,-22,-12
555,127,-9,1008,0,1,-9
556,11,31,999,-9,21,-1
557,-140,37,1000,-18,29,2
558,-165,12,985,-26,11,-1
559,-80,-48,994,-25,-14,-9
560,72,-72,993,-16,-27,-13
561,152,-51,1010,-6,-18,-12
562,105,-3,1001,-3,6,-8
563,-40,38,1012,-7,27,1
564,-144,31,978,-22,25,1
565,-163,-10,994,-27,7,-2
566,-27,-55,990,-25,-20,-8
567,84,-70,1001,-13,-26,-14
568,154,-39,1007,-4,-13,-11
569,78,7,1012,-3,11,-6
570,-71,45,991,-12,28,2
571,-158,19,1002,-22,22,1
572,-141,-18,969,-27,0,-2
573,-10,-62,1000,-20,-22,-10
574,122,-68,1008,-11,-25,-14
575,139,-39,1007,-4,-7,-10
576,57,29,1002,-4,15,-4
577,-101,40,1004,-16,30,2
578,-155,19,981,-23,17,0
579,-128,-35,981,-26,-7,-3
580,33,-64,1012,-18,-27,-14
581,134,-62,998,-9,-23,-13
582,125,-12,997,-1,-2,-7
583,26,25,1023,-6,21,-4
584,-123,38,977,-19,28,4
585,-171,11,995,-24,13,1
586,-88,-54,990,-26,-13,-6
587,48,-71,992,-14,-26,-11
588,155,-56,1005,-4,-20,-14
589,112,0,1011,-2,4,-6
590,-21,30,1005,-8,26,1
591,-141,48,986,-19,26,3
592,-166,-9,992,-25,10,-1
593,-54,-53,986,-24,-18,-7
594,82,-69,1003,-15,-26,-14
595,156,-43,1003,-3,-16,-13
596,85,8,1007,-4,10,-6
597,-41,42,1007,-11,27,0
598,-165,25,989,-23,24,2
599,-147,-7,981,-26,1,-4
600,-23,-70,992,-23,-21,-9
601,105,-64,1004,-10,-26,-14
602,157,-41,1009,-3,-12,-11
603,68,16,1007,-2,14,-5
604,-86,43,995,-12,29,3
605,-158,29,996,-24,20,-1
606,-141,-33,973,-28,-2,-3
607,6,-58,1002,-21,-26,-10
608,132,-70,1008,-12,-25,-14
609,141,-27,1003,-2,-4,-10
610,42,22,1004,-3,18,-2
611,-116,51,1001,-16,29,1
612,-162,13,981,-26,15,0
613,-112,-36,991,-26,-9,-5
614,37,-67,1000,-19,-26,-12
615,149,-68,1008,-4,-23,-15
616,116,-11,1001,-2,2,-8
617,1,27,1007,-7,21,-3
618,-125,42,995,-17,26,1
619,-174,6,989,-26,11,1
620,-62,-42,985,-25,-15,-10
621,61,-78,1009,-15,-27,-14
622,154,-44,996,-4,-20,-13
623,87,-4,1011,-4,7,-5
624,-29,42,1008,-10,23,-1
625,-148,26,987,-21,24,2
626,-140,-6,982,-25,3,-3
627,-32,-60,999,-23,-18,-9
628,86,-65,985,-12,-24,-12
629,135,-35,1019,-3,-12,-10
630,75,9,997,-6,12,-5
631,-67,41,1006,-13,27,0
632,-140,20,990,-24,19,2
633,-136,-43,977,-28,2,-3
634,6,-61,995,-17,-21,-11
635,109,-68,1012,-8,-22,-14
636,121,-1,1005,-1,-5,-9
637,38,23,1009,-7,16,-4
638,-106,41,993,-17,27,0
639,-139,2,987,-28,15,0
640,-104,-46,989,-26,-5,-7
641,27,-65,999,-16,-23,-12
642,126,-56,1005,-6,-20,-13
643,109,-11,1002,-2,1,-8
644,19,37,1005,-5,19,-2
645,-123,44,994,-18,26,1
646,-153,1,988,-28,11,-1
647,-82,-49,992,-24,-10,-7
648,60,-77,993,-15,-25,-12
649,138,-53,1011,-4,-18,-11
650,95,5,993,0,5,-7
651,-27,32,1015,-8,23,-1
652,-124,45,986,-19,23,1
653,-148,-7,991,-28,8,-1
654,-40,-52,992,-24,-17,-10
655,65,-79,999,-14,-25,-12
656,146,-38,1001,-5,-15,-12
657,76,0,1010,-4,10,-6
658,-42,47,1006,-12,26,1
659,-148,25,989,-21,22,2
660,-143,-9,982,-25,4,-3
661,-21,-62,995,-21,-19,-10
662,97,-65,999,-10,-25,-13
663,141,-42,1014,-5,-9,-9
664,67,17,998,-5,15,-5
665,-89,35,1003,-12,28,3
666,-146,14,989,-22,18,0
667,-145,-31,974,-26,-2,-4
668,22,-57,1009,-17,-25,-13
669,125,-60,1004,-9,-24,-13
670,132,-14,1000,-2,-3,-9
671,36,27,1011,-6,18,-3
672,-106,42,996,-18,28,2
673,-171,3,981,-26,16,0
674,-92,-42,994,-26,-11,-9
675,41,-78,997,-17,-24,-14
676,142,-44,1002,-4,-20,-12
677,107,-3,1006,-6,4,-8
678,6,33,1005,-9,23,-3
679,-136,38,988,-20,27,3
680,-149,-1,993,-31,12,-1
681,-65,-60,995,-29,-13,-8
682,64,-76,991,-13,-26,-13
683,142,-38,1007,-4,-16,-13
684,84,4,1006,-5,7,-6
685,-29,50,1011,-10,24,1
686,-138,25,988,-26,24,2
687,-148,-17,984,-25,5,-3
688,-33,-61,995,-22,-19,-10
689,87,-74,995,-11,-26,-13
690,139,-31,1011,-1,-12,-11
691,86,18,1002,-5,11,-6
692,-76,42,1005,-12,29,2
693,-148,31,984,-24,19,2
694,-143,-27,990,-30,0,-5
695,0,-69,985,-22,-23,-11
696,112,-71,1015,-10,-25,-12
697,143,-34,1001,-2,-7,-11
698,43,23,1006,-4,16,-2
699,-96,47,1000,-16,27,1
700,-164,19,983,-24,17,0
701,-108,-28,988,-27,-7,-7
702,26,-74,1006,-19,-24,-13
703,137,-72,999,-8,-21,-13
704,122,-14,1002,0,-1,-9
705,17,19,1011,-6,21,-2
706,-122,47,984,-14,26,2
707,-159,13,1003,-24,12,1
708,-84,-46,979,-25,-12,-6
709,51,-69,1009,-14,-26,-13
710,150,-65,998,-5,-20,-12
711,97,-1,1002,1,4,-8
712,-11,35,1013,-6,22,-2
713,-142,31,989,-18,26,3
714,-157,-17,978,-22,8,2
715,-46,-63,1000,-18,-17,-7
716,69,-57,1001,-7,-25,-13
717,150,-24,997,-2,-17,-11
718,81,29,1018,-2,10,-6
719,-44,41,1003,-16,25,2
720,-144,15,982,-25,23,3
721,-133,-38,989,-25,2,-3
722,-31,-75,983,-18,-19,-9
723,94,-51,1010,-7,-25,-13
724,132,-19,1012,-1,-11,-10
725,66,33,998,-6,12,-4
726,-76,35,1004,-15,26,3
727,-136,14,989,-25,17,1
728,-129,-48,979,-26,-2,-5
729,7,-54,1003,-15,-22,-11
730,105,-49,1005,-8,-23,-13
731,133,-1,1003,-3,-4,-10
732,24,30,1004,-11,17,0
733,-97,32,995,-21,25,1
734,-155,-19,995,-26,14,0
735,-95,-51,978,-24,-8,-5
736,28,-66,1010,-13,-22,-12
737,135,-39,1002,-4,-21,-13
738,102,10,1004,-4,2,-6
739,5,44,1003,-10,20,-1
740,-120,22,997,-24,24,3
741,-148,-23,982,-27,11,-1
742,-70,-61,995,-22,-13,-9
743,60,-58,993,-11,-25,-14
744,135,-26,1006,-5,-16,-13
745,98,30,1009,-5,5,-7
746,-32,39,1010,-16,24,0
747,-130,21,986,-27,23,-1
748,-153,-28,984,-31,6,-3
749,-35,-66,994,-24,-18,-11
750,82,-73,994,-12,-23,-14
751,142,-25,1017,-3,-11,-13
752,76,14,1002,-6,13,-7
753,-67,45,1004,-14,27,1
754,-152,12,992,-27,21,1
755,-142,-28,975,-28,0,-6
756,-1,-68,996,-21,-21,-11
757,106,-64,1014,-12,-24,-13
758,144,-18,997,-5,-7,-10
759,44,29,1019,-6,17,-4
760,-93,45,988,-18,27,2
761,-168,8,993,-27,18,1
762,-107,-41,977,-30,-8,-6
763,18,-84,1008,-19,-22,-10
764,143,-61,1000,-5,-23,-14
765,115,-12,1000,-2,0,-9
766,19,43,1013,-7,18,-1
767,-126,41,990,-21,27,3
768,-160,2,990,-26,12,0
769,-80,-58,991,-27,-13,-7
770,58,-75,996,-14,-25,-12
771,144,-58,1004,-4,-19,-13
772,103,2,1000,1,4,-7
773,-17,35,1017,-7,24,0
774,-139,30,982,-20,26,3
775,-169,-6,986,-25,6,-1
776,-38,-53,993,-21,-19,-10
777,71,-75,995,-12,-25,-11
778,164,-34,1006,-2,-16,-13
779,76,10,1013,-2,11,-5
780,-50,45,998,-10,27,2
781,-155,29,994,-22,24,3
782,-152,-18,979,-26,3,-3
783,-16,-65,991,-22,-21,-9
784,105,-62,1003,-10,-26,-14
785,150,-30,1016,-4,-9,-9
786,69,20,994,-6,16,-3
787,-96,44,1004,-15,30,3
788,-152,22,990,-25,19,1
789,-136,-39,975,-26,-1,-4
790,13,-61,1010,-17,-24,-11
791,134,-64,1001,-10,-25,-14
792,123,-25,999,-1,-3,-8
793,28,31,1012,-5,17,-3
794,-111,46,989,-18,30,0
795,-164,4,995,-25,15,1
796,-87,-32,980,-27,-9,-6
797,39,-87,1013,-18,-23,-12
798,140,-57,987,-4,-21,-12
799,103,-10,1015,-2,2,-7
800,-3,30,1004,-7,22,-1
801,-133,29,990,-17,26,5
802,-142,2,989,-23,8,0
803,-61,-50,1001,-20,-14,-7
804,66,-54,984,-11,-25,-11
805,145,-36,1018,-5,-16,-11
806,71,6,991,-5,8,-5
807,-39,36,1020,-13,24,0
808,-128,11,981,-22,21,1
809,-145,-28,982,-24,4,0
810,-12,-64,999,-18,-17,-10
811,84,-49,998,-7,-23,-13
812,152,0,1020,-1,-9,-12
813,61,16,986,-9,15,-5
814,-89,31,1010,-16,28,4
815,-156,-2,983,-23,17,0
816,-117,-44,977,-23,-4,-6
817,19,-59,1007,-14,-23,-11
818,109,-38,1004,-7,-20,-14
819,126,2,1006,-5,-3,-10
820,27,40,1009,-12,18,-2
821,-100,28,987,-23,27,2
822,-147,-16,992,-29,14,0
823,-105,-66,990,-24,-8,-7
824,35,-65,994,-13,-23,-12
825,126,-43,1012,-2,-19,-14
826,109,18,1002,-5,0,-8
827,12,40,1004,-13,20,-1
828,-123,20,998,-23,26,3
829,-153,-18,988,-26,11,0
830,-64,-71,991,-22,-14,-9
831,44,-56,1000,-10,-24,-12
832,147,-11,1007,-4,-17,-14
833,93,30,1008,-7,8,-9
834,-21,51,1008,-19,25,-1
835,-129,13,988,-31,24,0
836,-154,-49,980,-31,7,-3
837,-48,-94,988,-23,-18,-8
838,79,-86,996,-8,-25,-15
839,142,-27,1010,1,-13,-12
840,87,35,1009,1,10,-5
841,-51,70,1007,-12,27,1
842,-151,41,990,-26,21,3
843,-140,-25,980,-33,1,-5
844,-21,-86,997,-26,-20,-10
845,113,-89,1000,-11,-26,-13
846,142,-50,1007,0,-7,-10
847,65,26,1011,2,14,-6
848,-88,63,996,-11,30,1
849,-164,38,987,-24,20,0
850,-125,-21,988,-28,-6,-6
851,18,-69,999,-23,-24,-12
852,133,-76,999,-12,-22,-13
853,139,-36,1006,-4,-4,-9
854,23,18,1006,-5,21,-4
855,-124,56,989,-13,28,3
856,-166,16,998,-23,13,-1
857,-88,-30,986,-26,-12,-8
858,56,-78,992,-20,-24,-11
859,149,-62,1017,-5,-19,-14
860,105,-15,995,-4,4,-6
861,-14,27,1012,-6,25,0
862,-143,25,986,-18,24,3
863,-158,-27,985,-21,8,1
864,-50,-62,995,-14,-16,-6
865,76,-57,995,-7,-24,-13
866,152,-9,1012,1,-14,-11
867,82,31,1005,-5,9,-5
868,-44,53,1010,-16,25,0
869,-151,8,986,-27,21,1
870,-148,-30,981,-27,2,-4
871,-18,-93,990,-22,-20,-10
872,93,-67,1002,-7,-23,-13
873,150,-11,1012,-1,-8,-10
874,69,38,1008,-4,16,-5
875,-85,54,994,-15,28,1
876,-152,20,1000,-27,15,0
877,-145,-36,970,-29,-5,-5
878,9,-70,1000,-19,-23,-11
879,128,-64,1016,-12,-22,-14
880,140,-12,989,-5,-2,-9
881,40,35,1016,-9,19,-4
882,-112,42,991,-21,25,-1
883,-159,-3,985,-25,12,-2
884,-97,-59,990,-26,-9,-7
885,30,-74,995,-16,-21,-11
886,150,-50,1006,-5,-18,-12
887,98,0,1006,-3,4,-7
888,-2,49,1001,-8,19,-2
889,-122,35,998,-21,23,-1
890,-149,-9,993,-28,7,-2
891,-58,-61,980,-25,-14,-8
892,59,-76,1007,-13,-21,-13
893,138,-51,998,-5,-13,-10
894,74,13,1001,0,9,-6
895,-25,47,1018,-11,22,-3
896,-131,36,985,-22,21,-1
897,-132,-4,988,-27,5,-4
898,-30,-62,1000,-26,-16,-9
899,76,-84,990,-15,-20,-11
900,119,-49,1004,-5,-8,-9
901,69,14,1006,-1,10,-6
902,-71,53,1003,-10,23,-1
903,-138,33,992,-22,15,1
904,-117,-12,983,-27,-1,-5
905,0,-70,1002,-23,-19,-9
906,101,-73,992,-14,-20,-11
907,122,-39,1012,-5,-3,-8
908,30,21,1003,-4,14,-4
909,-88,46,990,-13,22,1
910,-137,27,1003,-22,12,-2
911,-108,-30,982,-29,-8,-4
912,39,-64,1000,-21,-22,-12
913,119,-75,1010,-10,-17,-10
914,109,-24,986,-2,1,-6
915,12,18,1017,-3,20,-4
916,-120,47,981,-15,23,-1
917,-148,34,1004,-23,8,-2
918,-80,-44,988,-28,-13,-7
919,52,-68,998,-17,-23,-11
920,147,-68,1003,-11,-14,-9
921,94,-14,1003,-1,9,-5
922,-20,33,1002,-6,23,0
923,-139,43,992,-16,21,0
924,-156,15,992,-25,2,-2
925,-34,-45,990,-27,-18,-8
926,82,-76,1004,-17,-21,-11
927,141,-60,1001,-7,-9,-8
928,74,2,1000,-3,14,-5
929,-66,27,1007,-10,25,0
930,-150,39,989,-18,17,0
931,-128,-6,984,-26,-3,-3
932,-2,-66,990,-24,-19,-6
933,114,-93,1007,-10,-20,-10
934,147,-18,1013,0,-3,-11
935,35,45,1004,-2,18,-4
936,-101,51,997,-15,24,4
937,-155,1,995,-27,12,-3
938,-107,-47,968,-28,-6,-5
939,16,-76,1015,-17,-21,-9
940,134,-53,1000,-7,-19,-12
941,120,-10,999,-3,2,-8
942,23,50,1015,-5,18,-3
943,-124,38,985,-21,25,2
944,-144,-4,993,-26,12,-2
945,-94,-69,990,-25,-10,-6
946,51,-70,992,-16,-24,-11
947,128,-55,1017,-4,-18,-14
948,113,11,997,-1,2,-8
949,-16,41,1013,-9,22,0
950,-118,45,984,-19,22,1
951,-164,-25,999,-27,9,-1
952,-47,-68,981,-20,-16,-8
953,60,-70,1007,-10,-23,-11
954,154,-36,1000,0,-16,-13
955,79,19,1013,1,9,-7
956,-31,63,997,-10,24,-1
957,-150,29,1001,-25,21,1
958,-145,-8,975,-29,2,-4
959,-24,-75,1002,-26,-18,-10
960,99,-75,992,-14,-21,-13
961,132,-31,1012,-3,-8,-10
962,75,24,997,-6,13,-7
963,-85,42,1009,-15,26,0
964,-145,25,977,-24,16,0
965,-139,-37,991,-30,-3,-5
966,12,-70,985,-20,-22,-10
967,113,-62,1015,-10,-19,-12
968,138,-15,998,-4,-2,-10
969,29,32,1015,-6,19,-4
970,-96,56,985,-20,24,0
971,-173,-5,1000,-28,13,-1
972,-92,-46,971,-27,-8,-5
973,29,-98,1019,-18,-21,-11
974,137,-59,983,-3,-19,-12
975,114,-10,1017,0,2,-8
976,8,45,996,-3,19,-2
977,-134,49,995,-16,24,3
978,-148,9,989,-26,7,-1
979,-76,-62,996,-26,-13,-6
980,62,-78,988,-13,-23,-9
981,143,-59,1015,-5,-15,-12
982,97,7,999,-1,8,-8
983,-29,51,1009,-7,23,-1
984,-133,44,991,-22,23,1
985,-143,-6,992,-28,5,-2
986,-39,-68,988,-24,-15,-8
987,77,-80,1003,-12,-22,-12
988,132,-40,997,-3,-10,-10
989,60,19,1009,-3,11,-5
990,-60,51,1005,-12,23,1
991,-137,29,986,-23,17,1
992,-118,-28,988,-28,0,-5
993,-4,-80,994,-22,-18,-10
994,87,-71,998,-11,-20,-10
995,121,-28,1010,-1,-5,-9
996,43,25,999,-4,15,-2
997,-82,55,1001,-14,23,0
998,-131,18,990,-25,12,-1
999,-111,-33,984,-27,-6,-5
1000,21,-62,997,-19,-21,-10
1001,115,-74,1009,-9,-17,-13
1002,108,-14,1000,-4,0,-7
1003,24,22,1003,-6,18,-3
1004,-111,41,994,-16,24,-1
1005,-146,-3,992,-23,8,-1
1006,-80,-33,987,-23,-11,-8
1007,49,-69,1008,-17,-21,-11
1008,131,-33,997,-7,-15,-11
1009,94,-3,1005,-8,6,-7
1010,-14,41,1004,-10,21,-3
1011,-122,24,986,-23,21,0
1012,-146,-13,996,-26,6,-4
1013,-46,-72,990,-22,-16,-8
1014,67,-71,994,-11,-20,-12
1015,142,-36,1008,0,-8,-11
1016,74,19,1002,-3,9,-6
1017,-43,46,1008,-12,22,0
1018,-136,21,988,-20,18,0
1019,-136,-27,985,-26,-1,-3
1020,-12,-67,1000,-17,-18,-10
1021,89,-72,994,-11,-20,-11
1022,120,-18,1012,-1,-6,-9
1023,62,23,1003,-5,13,-4
1024,-83,45,999,-15,26,2
1025,-131,19,990,-22,15,1
1026,-113,-42,986,-28,-3,-5
1027,0,-67,989,-18,-19,-8
1028,96,-65,1010,-7,-19,-11
1029,119,-15,1004,-3,-4,-10
1030,30,31,1004,-4,15,-2
1031,-95,42,996,-16,23,1
1032,-137,-2,993,-25,12,-1
1033,-93,-45,986,-22,-7,-6
1034,29,-73,1004,-16,-21,-12
1035,119,-50,1001,-5,-17,-13
1036,88,-6,1002,-1,2,-6
1037,15,39,1003,-8,17,-3
1038,-119,34,996,-18,22,2
1039,-134,-1,990,-25,7,-1
1040,-69,-56,988,-23,-12,-7
1041,50,-70,1000,-11,-21,-11
1042,132,-37,1003,-3,-15,-12
1043,83,10,1001,-4,7,-6
1044,-28,41,1008,-11,23,1
1045,-129,24,985,-22,21,1
1046,-125,-16,992,-26,4,-5
1047,-39,-58,994,-21,-15,-9
1048,77,-58,997,-13,-21,-14
1049,129,-29,1009,-5,-10,-12
1050,49,20,999,-8,11,-5
1051,-53,34,1005,-16,22,-1
1052,-133,6,992,-25,19,0
1053,-119,-35,982,-27,0,-3
1054,-1,-72,1001,-17,-19,-10
1055,88,-60,995,-7,-21,-12
1056,120,-9,1012,-1,-8,-9
1057,44,26,1003,-6,13,-3
1058,-81,31,990,-15,24,2
1059,-135,7,994,-23,14,1
1060,-108,-49,988,-23,-4,-5
1061,19,-57,996,-14,-21,-11
1062,111,-33,1010,-6,-20,-12
1063,102,0,997,-7,-1,-8
1064,29,32,1016,-10,17,-3
1065,-108,21,978,-23,26,2
1066,-146,-12,1001,-25,12,-1
1067,-81,-52,982,-21,-11,-8
1068,38,-60,999,-13,-22,-12
1069,124,-39,1003,-6,-18,-12
1070,102,7,1009,-5,4,-9
1071,-3,31,1001,-13,22,-2
1072,-125,24,992,-19,25,1
1073,-135,-9,997,-25,7,-3
1074,-56,-63,986,-23,-13,-8
1075,56,-58,994,-12,-21,-12
1076,136,-38,1019,-6,-13,-13
1077,71,6,989,-4,10,-6
1078,-39,41,1014,-11,22,0
1079,-122,11,988,-22,19,0
1080,-140,-15,983,-23,4,-1
1081,-12,-66,996,-21,-18,-11
1082,72,-67,1002,-8,-22,-13
1083,130,-17,1003,-5,-10,-8
1084,58,16,1008,-6,13,-6
1085,-53,38,997,-14,25,0
1086,-140,8,994,-23,18,3
1087,-120,-27,975,-24,-2,-5
1088,-4,-64,1005,-17,-20,-11
1089,103,-42,1001,-9,-23,-12
1090,129,-6,1006,-7,-5,-9
1091,36,22,1011,-11,16,-4
1092,-84,31,992,-21,25,1
1093,-147,-10,989,-27,18,0
1094,-118,-46,986,-24,-6,-6
1095,24,-64,1002,-14,-24,-13
1096,132,-47,1005,-7,-20,-14
1097,117,-1,1002,-4,0,-7
1098,19,30,1014,-9,21,-2
1099,-121,27,984,-21,26,2
1100,-166,-21,992,-25,12,0
1101,-78,-51,987,-21,-14,-8
1102,53,-70,998,-10,-26,-12
1103,147,-38,1009,-2,-19,-12
1104,103,14,999,-2,5,-7
1105,-13,36,1013,-11,24,0
1106,-146,21,989,-22,25,3
1107,-160,-26,980,-23,7,-2
1108,-49,-67,996,-16,-19,-9
1109,78,-52,996,-8,-27,-11
1110,155,-19,1012,-1,-14,-12
1111,90,23,1007,-5,11,-6
1112,-51,40,1007,-16,28,2
1113,-149,8,985,-23,22,2
1114,-155,-33,979,-26,2,-3
1115,-17,-65,989,-17,-21,-11
1116,97,-54,1013,-8,-26,-13
1117,149,-6,1008,-4,-10,-10
1118,75,26,1006,-8,15,-6
1119,-85,37,998,-16,29,2
1120,-154,-2,988,-27,20,0
1121,-142,-49,976,-25,-3,-5
1122,5,-70,1002,-15,-25,-11
1123,128,-46,1008,-6,-25,-14
1124,136,-7,999,-1,-4,-9
1125,43,39,1014,-8,19,-4
1126,-107,36,995,-20,30,1
1127,-165,-14,983,-26,16,0
1128,-109,-58,994,-23,-8,-5
1129,37,-58,991,-12,-26,-11
1130,139,-35,1012,-3,-22,-14
1131,118,18,1003,-4,0,-9
1132,8,24,1005,-13,23,-3
1133,-119,24,994,-22,27,1
1134,-167,-13,989,-26,12,1
1135,-59,-59,984,-20,-13,-10
1136,52,-67,1005,-13,-23,-12
1137,143,-30,997,-4,-17,-13
1138,78,17,1011,-6,6,-6
1139,-27,56,1008,-14,21,0
1140,-130,12,985,-28,21,1
1141,-138,-34,984,-26,4,-3
1142,-35,-80,987,-21,-17,-9
1143,82,-60,1005,-8,-24,-14
1144,131,-21,1006,-3,-11,-9
1145,71,37,1005,-5,12,-6
1146,-58,27,1004,-18,26,0
1147,-143,8,983,-25,20,2
1148,-130,-39,982,-26,-2,-3
1149,-6,-65,994,-14,-22,-11
1150,103,-46,1007,-8,-23,-11
1151,131,-1,1008,-3,-5,-10
1152,45,24,1000,-10,17,-4
1153,-85,34,1001,-18,28,1
1154,-156,3,986,-24,16,0
1155,-108,-44,988,-27,-6,-6
1156,24,-73,1006,-18,-22,-13
1157,127,-60,999,-5,-20,-14
1158,113,8,1004,0,1,-8
1159,18,47,1012,-10,20,-4
1160,-123,37,984,-22,26,2
1161,-151,-19,996,-27,10,-1
1162,-71,-77,986,-23,-12,-9
1163,50,-72,998,-10,-23,-12
1164,145,-29,1004,-1,-18,-13
1165,89,26,1007,-2,8,-7
1166,-24,46,1008,-13,24,0
1167,-131,21,989,-25,23,1
1168,-145,-32,981,-28,6,-2
1169,-34,-77,997,-19,-18,-10
1170,76,-59,995,-8,-25,-13
1171,138,-22,1014,-1,-12,-12
1172,75,33,997,-5,12,-6
1173,-59,32,1009,-17,28,2
1174,-141,14,981,-23,21,2
1175,-133,-38,986,-24,1,-4
1176,-2,-71,989,-17,-21,-12
1177,89,-60,1005,-6,-24,-12
1178,126,-11,1008,0,-9,-11
1179,52,25,1005,-5,12,-4
1180,-83,53,995,-15,24,1
1181,-128,11,994,-26,15,0
1182,-114,-52,983,-25,-3,-5
1183,13,-75,993,-16,-22,-9
1184,101,-44,1013,-5,-21,-11
1185,108,-7,991,-3,-3,-8
1186,18,35,1017,-6,17,-4
1187,-83,39,986,-20,24,0
1188,-140,-6,1002,-25,14,-1
1189,-78,-55,980,-25,-7,-6
1190,22,-84,999,-14,-21,-12
1191,121,-38,994,-2,-17,-13
1192,82,15,1012,-4,4,-7
1193,6,44,1002,-10,18,-2
1194,-116,23,994,-21,22,3
1195,-132,-13,988,-26,8,-1
1196,-54,-63,995,-21,-13,-8
1197,53,-72,990,-12,-22,-13
1198,112,-26,1004,-3,-14,-12
1199,82,23,1010,-5,5,-8
1200,-35,46,1005,-14,22,0
1201,-120,19,988,-26,19,2
1202,-121,-38,990,-28,3,-4
1203,-26,-75,992,-20,-16,-10
1204,70,-53,990,-9,-21,-13
1205,123,-12,1021,-3,-10,-12
1206,67,25,994,-7,11,-7
1207,-60,34,1002,-18,26,1
1208,-136,6,992,-25,19,0
1209,-136,-35,980,-27,-2,-4
1210,-3,-72,990,-17,-21,-12
1211,99,-51,1011,-7,-22,-11
1212,138,-1,1004,-3,-6,-9
1213,45,26,1008,-9,18,-4
1214,-91,39,991,-18,27,3
1215,-157,0,996,-25,15,-1
1216,-109,-50,978,-24,-7,-7
1217,21,-75,1005,-17,-23,-11
1218,139,-51,1001,-5,-21,-14
1219,113,-3,1006,-1,3,-7
1220,6,42,1002,-8,21,0
1221,-120,35,992,-20,25,1
1222,-157,-19,995,-27,11,0
1223,-70,-55,984,-23,-13,-5
1224,57,-66,997,-12,-23,-13
1225,142,-37,1014,-3,-17,-14
1226,89,24,993,-5,5,-5
1227,-27,45,1018,-13,23,-1
1228,-133,13,986,-26,22,2
1229,-145,-33,983,-26,7,-1
1230,-39,-64,995,-20,-18,-9
1231,80,-64,996,-8,-24,-14
1232,133,-18,1009,-1,-11,-12
1233,77,33,1008,-6,10,-5
1234,-55,42,1006,-16,27,-2
1235,-142,9,984,-27,21,2
1236,-134,-42,988,-28,1,-4
1237,-10,-78,987,-18,-20,-12
1238,92,-56,1007,-5,-23,-12
1239,143,-16,1011,0,-8,-11
1240,52,32,1005,-3,15,-3
1241,-86,45,995,-17,28,4
1242,-143,1,995,-25,17,-1
1243,-117,-50,976,-24,-5,-4
1244,12,-70,1005,-15,-22,-12
1245,127,-51,1002,-5,-22,-13
1246,116,4,1005,-1,-1,-8
1247,33,36,1006,-11,18,-2
1248,-116,31,994,-21,26,3
1249,-144,-2,986,-24,12,0
1250,-94,-63,991,-23,-8,-6
1251,39,-66,994,-11,-25,-12
1252,133,-33,1007,-3,-19,-12
1253,109,18,1004,-5,3,-7
1254,-10,43,1006,-13,23,0
1255,-114,22,993,-25,25,0
1256,-161,-34,984,-27,10,-1
1257,-58,-55,994,-19,-15,-8
1258,60,-73,993,-13,-25,-13
1259,139,-13,1007,-1,-16,-12
1260,95,13,1007,-8,8,-5
1261,-40,54,1009,-14,26,0
1262,-133,1,982,-27,22,4
1263,-145,-40,986,-24,4,-2
1264,-28,-72,987,-19,-19,-10
1265,81,-58,1000,-6,-24,-14
1266,137,-12,1016,-2,-10,-12
1267,66,29,997,-6,12,-5
1268,-66,52,1003,-16,25,1
1269,-135,3,991,-27,18,1
1270,-128,-41,979,-28,1,-4
1271,2,-80,993,-17,-22,-11
1272,102,-58,1011,-5,-22,-13
1273,123,-12,994,-1,-6,-10
1274,34,46,1011,-6,17,-4
1275,-89,40,998,-21,25,3
1276,-141,1,985,-27,15,1
1277,-95,-60,998,-25,-7,-6
1278,23,-80,993,-14,-22,-12
1279,123,-45,1003,-3,-20,-13
1280,95,9,1008,0,1,-7
1281,7,36,998,-9,18,-2
1282,-104,35,1000,-18,24,2
1283,-137,-17,990,-27,9,0
1284,-74,-65,987,-22,-10,-9
1285,55,-71,1003,-10,-23,-12
1286,115,-32,1003,-2,-14,-11
1287,83,11,999,-3,4,-5
1288,-17,49,1019,-8,21,-2
1289,-121,23,982,-23,22,4
1290,-128,-23,993,-25,6,-1
1291,-36,-73,991,-20,-15,-8
1292,63,-67,994,-9,-22,-12
1293,112,-19,1009,-1,-12,-12
1294,71,32,1007,-5,8,-8
1295,-41,41,1001,-16,23,0
1296,-123,16,993,-23,19,1
1297,-115,-42,983,-25,2,-5
1298,-13,-73,994,-18,-17,-12
1299,74,-61,998,-8,-20,-13
1300,117,-6,1011,-3,-6,-11
1301,41,27,1001,-8,14,-5
1302,-75,52,997,-17,24,0
1303,-110,3,993,-27,14,-1
1304,-115,-42,986,-26,-2,-5
1305,17,-75,996,-19,-20,-12
1306,95,-65,1003,-8,-17,-13
1307,98,-8,994,-1,-2,-7
1308,32,34,1015,-7,15,-2
1309,-102,37,987,-17,23,2
1310,-126,6,1000,-23,10,-1
1311,-79,-51,987,-26,-8,-5
1312,25,-75,995,-15,-22,-10
1313,121,-49,1000,-6,-19,-12
1314,87,-4,1007,-2,2,-8
1315,-10,43,999,-8,20,0
1316,-103,34,998,-19,21,0
1317,-130,-13,991,-25,7,-2
1318,-54,-57,988,-21,-13,-6
1319,61,-66,1001,-13,-23,-12
1320,111,-35,998,-4,-13,-10
1321,72,17,1003,-3,7,-6
1322,-29,47,1018,-12,20,-2
1323,-124,16,980,-24,19,2
1324,-125,-21,991,-27,3,-4
1325,-16,-70,998,-21,-17,-11
1326,63,-61,993,-9,-21,-12
1327,123,-12,1007,-4,-9,-11
1328,51,16,1012,-7,12,-6
1329,-61,43,987,-14,24,0
1330,-126,0,1001,-25,18,-1
1331,-112,-36,984,-22,-2,-5
1332,6,-70,993,-16,-19,-9
1333,93,-50,1004,-7,-19,-12
1334,102,0,1008,-4,-5,-8
1335,40,30,995,-8,14,-4
1336,-95,25,1001,-20,24,2
1337,-125,0,984,-24,13,-1
1338,-87,-48,999,-23,-7,-7
1339,21,-65,991,-15,-19,-10
1340,111,-47,1003,-6,-16,-11
1341,92,-4,1010,-4,1,-8
1342,0,34,995,-10,18,-1
1343,-103,31,995,-18,22,0
1344,-131,-7,1003,-24,10,-2
1345,-55,-52,982,-24,-11,-7
1346,50,-60,1003,-15,-20,-13
1347,115,-41,1002,-8,-13,-11
1348,73,6,1002,-5,6,-8
1349,-27,37,1006,-10,21,-1
1350,-117,31,994,-23,21,2
1351,-118,-19,988,-26,6,-4
1352,-31,-54,992,-22,-15,-9
1353,67,-67,999,-10,-22,-14
1354,105,-22,1008,-4,-17,-13
1355,58,16,1001,-10,5,-7
1356,-49,34,1005,-14,21,-1
1357,-121,13,989,-25,17,1
1358,-109,-29,988,-25,0,-5
1359,-16,-64,993,-18,-17,-11
1360,81,-50,1000,-11,-20,-12
1361,110,-21,1013,-4,-6,-11
1362,54,14,1000,-9,13,-5
1363,-77,34,994,-15,26,1
1364,-126,9,996,-23,15,0
1365,-110,-42,980,-24,-5,-5
1366,8,-57,1001,-14,-21,-10
1367,106,-58,1004,-10,-19,-13
1368,109,-7,1000,-3,-1,-9
1369,30,35,1007,-8,17,-3
1370,-108,46,995,-20,24,1
1371,-134,5,992,-26,11,-1
1372,-80,-59,991,-30,-9,-6
1373,36,-75,991,-14,-22,-12
1374,121,-53,1008,-6,-18,-12
1375,90,0,1003,-3,2,-7
1376,-11,35,1002,-8,20,0
1377,-113,34,999,-20,23,1
1378,-135,-18,981,-26,7,-1
1379,-47,-54,996,-20,-14,-7
1380,57,-67,998,-14,-22,-10
1381,125,-34,1001,-4,-12,-11
1382,72,1,1005,-4,7,-6
1383,-39,33,1010,-10,21,0
1384,-123,22,984,-20,20,2
1385,-128,-14,992,-24,4,-1
1386,-22,-50,991,-19,-16,-7
1387,83,-64,1001,-10,-21,-13
1388,118,-23,1011,-4,-8,-9
1389,57,18,998,-5,11,-5
1390,-63,37,1001,-13,26,0
1391,-134,20,991,-24,17,1
1392,-106,-24,982,-27,-1,-4
1393,2,-73,1003,-20,-17,-10
1394,98,-61,996,-10,-20,-12
1395,113,-12,1009,-4,-3,-10
1396,26,20,1000,-8,15,-4
1397,-93,43,991,-18,24,-1
1398,-122,1,997,-26,14,-2
1399,-99,-43,989,-26,-5,-6
1400,34,-73,992,-17,-22,-12
1401,111,-58,1011,-6,-18,-15
1402,89,-5,991,-3,1,-6
1403,10,41,1014,-7,18,-3
1404,-105,30,990,-19,23,1
1405,-134,0,992,-25,10,-1
1406,-62,-66,993,-24,-11,-8
1407,38,-74,990,-11,-23,-12
1408,123,-38,1008,-4,-16,-12
1409,82,7,999,-3,4,-8
1410,-11,39,1016,-8,22,0
1411,-123,30,984,-21,23,2
1412,-130,-9,988,-23,6,-2
1413,-41,-56,997,-21,-15,-9
1414,57,-62,988,-13,-22,-11
1415,128,-28,1016,-4,-13,-12
1416,83,9,999,-8,8,-6
1417,-54,35,1010,-13,23,1
1418,-128,25,987,-23,18,1
1419,-134,-28,984,-28,2,-4
1420,-11,-57,996,-20,-19,-10
1421,82,-63,998,-13,-21,-12
1422,130,-18,1015,-6,-8,-12
1423,47,13,1001,-7,13,-4
1424,-75,43,996,-14,24,1
1425,-139,0,996,-27,15,-1
1426,-114,-35,981,-25,-4,-6
1427,13,-66,1002,-19,-21,-12
1428,113,-46,1004,-9,-19,-13
1429,104,-14,1001,-7,-3,-7
1430,35,38,1004,-9,15,-5
1431,-104,21,993,-21,25,2
1432,-140,1,991,-24,12,-1
1433,-78,-45,992,-25,-8,-7
1434,29,-60,990,-17,-21,-11
1435,125,-49,1008,-8,-19,-13
1436,99,-9,1003,-3,3,-8
1437,-2,26,999,-10,22,-2
1438,-117,32,1002,-18,25,0
1439,-148,-6,982,-24,9,-2
1440,-58,-41,994,-21,-13,-8
1441,65,-64,1001,-16,-24,-13
1442,132,-43,998,-7,-14,-11
1443,90,-3,1006,-6,8,-6
1444,-44,26,1011,-11,25,-1
1445,-128,21,988,-19,21,1
1446,-145,-16,986,-23,6,-2
1447,-20,-58,988,-19,-18,-9
1448,82,-60,1007,-9,-23,-12
1449,133,-27,999,-4,-11,-10
1450,57,19,1015,-8,11,-5
1451,-67,30,992,-15,25,1
1452,-142,5,998,-22,20,1
1453,-119,-26,973,-25,-1,-3
1454,5,-55,1007,-15,-20,-10
1455,105,-53,1000,-9,-23,-11
1456,114,-13,1003,-3,-5,-8
1457,37,11,1003,-5,16,-3
1458,-95,31,996,-17,25,3
1459,-137,4,988,-21,13,0
1460,-95,-30,993,-22,-6,-5
1461,30,-61,996,-18,-21,-10
1462,120,-54,1007,-5,-18,-13
1463,96,-9,998,-3,1,-7
1464,2,36,1006,-8,19,-2
1465,-105,40,997,-18,22,-1
1466,-133,-4,989,-26,11,-2
1467,-60,-48,993,-24,-10,-7
1468,43,-71,1001,-14,-21,-12
1469,130,-37,998,-5,-15,-12
1470,69,3,1006,-4,6,-7
1471,-23,47,1007,-12,19,-1
1472,-110,18,992,-23,21,0
1473,-133,-17,986,-26,5,-1
1474,-28,-61,994,-22,-16,-9
1475,62,-62,1000,-13,-21,-13
1476,119,-33,998,-6,-13,-10
1477,68,18,1011,-5,9,-6
1478,-44,29,996,-15,25,1
1479,-133,12,996,-22,20,2
1480,-122,-18,980,-25,0,-4
1481,-10,-62,996,-20,-20,-11
1482,89,-50,1001,-11,-23,-12
1483,123,-18,1009,-6,-6,-10
1484,49,18,1006,-8,15,-4
1485,-82,34,994,-17,25,2
1486,-137,11,993,-24,15,-1
1487,-109,-33,988,-25,-5,-4
1488,16,-67,999,-19,-21,-10
1489,118,-60,1007,-8,-19,-15
1490,109,-17,1000,-1,-1,-9
1491,17,36,1006,-7,15,-4
1492,-107,39,995,-19,24,1
1493,-135,0,989,-25,13,0
1494,-76,-52,992,-26,-9,-6
1495,43,-68,994,-14,-23,-13
1496,122,-51,1008,-5,-17,-13
1497,81,14,1000,-2,4,-6
1498,-12,33,1011,-10,19,-1
1499,-121,22,984,-21,22,1
1500,-130,-17,990,-25,8,-2
1501,-37,-61,994,-20,-14,-9
1502,56,-62,993,-10,-21,-13
1503,128,-25,1006,-3,-12,-13
1504,61,17,1007,-6,8,-6
1505,-40,31,1003,-14,23,-1
1506,-123,9,988,-23,20,-1
1507,-125,-24,989,-24,2,-4
1508,-18,-52,993,-20,-17,-8
1509,74,-54,1001,-10,-20,-12
1510,122,-22,1008,-6,-9,-9
1511,64,11,1005,-7,12,-5
1512,-66,28,992,-15,26,0
1513,-132,7,997,-23,18,1
1514,-129,-31,979,-25,-1,-4
1515,4,-57,999,-17,-22,-11
1516,107,-54,1008,-9,-21,-13
1517,127,-14,1003,-5,-4,-8
1518,38,20,1001,-7,18,-3
1519,-101,36,997,-15,25,2
1520,-146,0,987,-23,14,-1
1521,-97,-44,989,-23,-8,-6
1522,31,-65,999,-15,-24,-11
1523,134,-42,1005,-5,-20,-13
1524,95,-5,1001,-4,1,-6
1525,4,38,1010,-10,19,-1
1526,-118,25,988,-20,24,1
1527,-137,-1,998,-23,10,-2
1528,-56,-50,988,-24,-11,-8
1529,44,-61,997,-13,-22,-13
1530,139,-52,1004,-7,-16,-13
1531,72,4,1001,-3,7,-6
1532,-30,38,1008,-8,21,1
1533,-112,38,993,-21,21,-1
1534,-139,-20,984,-28,5,-1
1535,-27,-53,993,-22,-16,-9
1536,72,-73,1000,-14,-21,-13
1537,121,-32,997,-3,-11,-10
1538,62,13,1014,-4,11,-5
1539,-52,33,1001,-14,24,0
1540,-132,17,987,-22,19,1
1541,-121,-28,983,-26,1,-5
1542,-9,-57,997,-19,-19,-10
1543,96,-54,1002,-11,-22,-11
1544,117,-23,1008,-6,-6,-10
1545,52,20,1007,-7,14,-4
1546,-82,28,995,-17,27,2
1547,-144,10,986,-23,15,-1
1548,-106,-39,995,-25,-5,-6
1549,11,-60,992,-18,-21,-11
1550,120,-52,1006,-8,-21,-13
1551,118,-13,1010,-2,-2,-8
1552,20,27,998,-9,19,-2
1553,-110,34,999,-17,27,1
1554,-149,3,985,-24,13,-1
1555,-88,-45,996,-25,-9,-5
1556,48,-59,993,-17,-24,-12
1557,133,-56,1008,-7,-19,-11
1558,96,-6,999,-4,3,-7
1559,-9,34,1007,-7,21,-2
1560,-129,27,992,-19,22,1
1561,-143,-3,987,-24,7,-2
1562,-47,-53,996,-20,-15,-9
1563,66,-62,995,-14,-23,-11
1564,139,-44,1006,-3,-13,-12
1565,66,6,1001,-4,9,-5
1566,-44,45,1015,-12,24,1
1567,-130,18,982,-20,20,0
1568,-130,-10,988,-25,3,-4
1569,-13,-68,996,-23,-18,-10
1570,82,-64,1000,-9,-20,-14
1571,125,-37,1008,-3,-9,-9
1572,45,27,1002,-3,12,-5
1573,-73,40,1002,-15,25,2
1574,-129,14,985,-24,16,0
1575,-117,-31,989,-26,-2,-4
1576,18,-63,1000,-18,-22,-12
1577,103,-57,1001,-9,-19,-12
1578,107,-18,1004,-3,-4,-7
1579,20,30,1002,-6,15,-2
1580,-92,32,994,-19,24,0
1581,-135,3,989,-24,12,-1
1582,-76,-44,1000,-23,-9,-7
1583,36,-55,988,-15,-20,-12
1584,114,-50,1012,-8,-18,-13
1585,84,-5,996,-4,1,-8
1586,-8,32,1006,-9,19,-1
1587,-104,28,991,-17,21,1
1588,-139,-3,993,-24,8,-2
1589,-38,-45,993,-23,-12,-10
1590,50,-71,998,-14,-18,-12
1591,120,-35,999,-5,-13,-11
1592,68,3,1008,-6,8,-7
1593,-39,39,1003,-9,21,0
1594,-114,24,991,-21,19,0
1595,-120,-24,985,-25,5,-3
1596,-16,-57,996,-19,-16,-8
1597,72,-57,997,-11,-20,-12
1598,113,-21,1005,-4,-8,-10
1599,52,14,1007,-6,12,-5
1600,-63,32,993,-15,24,-1
1601,-123,13,1002,-21,17,0
1602,-102,-29,977,-25,-1,-5
1603,-17,-63,998,-17,-18,-11
1604,101,-49,1004,-10,-21,-12
1605,101,-27,1008,-5,-1,-10
1606,50,20,995,-7,13,-4
1607,-90,35,1009,-13,25,1
1608,-125,14,979,-24,13,-3
1609,-116,-32,999,-25,-5,-4
1610,23,-59,996,-21,-23,-11
1611,109,-57,1008,-11,-19,-12
1612,121,-11,997,-4,-2,-9
1613,17,22,1013,-10,19,-2
1614,-110,32,984,-19,25,2
1615,-147,-10,999,-24,11,-1
1616,-80,-47,986,-23,-10,-7
1617,47,-65,999,-13,-23,-12
1618,133,-44,1009,-5,-17,-11
1619,90,4,996,-6,3,-4
1620,-17,39,1013,-8,20,1
1621,-123,23,989,-22,21,1
1622,-143,-15,986,-24,7,-1
1623,-31,-52,996,-22,-18,-9
1624,62,-56,996,-13,-22,-12
1625,130,-33,1007,-6,-14,-11
1626,59,5,1006,-6,8,-5
1627,-46,31,1003,-14,21,0
1628,-130,19,988,-20,18,1
1629,-114,-10,989,-24,1,-4
1630,-11,-60,992,-20,-18,-11
1631,88,-48,1005,-11,-21,-13
1632,111,-36,1004,-7,-6,-8
1633,39,22,1003,-7,13,-4
1634,-74,29,999,-16,22,1
1635,-126,11,984,-23,15,0
1636,-101,-41,990,-25,-4,-5
1637,18,-56,995,-16,-19,-12
1638,104,-57,1009,-10,-18,-12
1639,97,-7,993,-4,-2,-9
1640,22,22,1015,-9,15,-4
1641,-103,32,987,-20,23,3
1642,-135,-7,989,-25,12,-1
1643,-61,-47,1003,-23,-10,-8
1644,36,-66,986,-15,-19,-9
1645,115,-32,1010,-5,-15,-11
1646,87,-7,1003,-8,4,-7
1647,-20,36,1005,-8,21,0
1648,-105,18,985,-22,21,0
1649,-127,-16,1007,-22,8,-4
1650,-46,-56,976,-20,-12,-7
1651,54,-54,1008,-11,-22,-14
1652,122,-30,1003,-6,-14,-11
1653,67,16,1000,-6,8,-5
1654,-27,30,1010,-13,22,0
1655,-123,12,994,-22,21,1
1656,-132,-21,973,-25,4,-3
1657,-32,-58,1007,-19,-17,-9
1658,71,-63,990,-12,-23,-12
1659,138,-29,1010,-2,-10,-11
1660,70,11,1009,-6,13,-5
1661,-60,40,991,-13,27,2
1662,-137,21,1003,-21,20,0
1663,-141,-29,970,-25,0,-4
1664,-13,-56,996,-19,-22,-9
1665,112,-67,1015,-9,-25,-14
1666,126,-21,996,-3,-5,-9
1667,68,21,1013,-4,15,-5
1668,-95,38,993,-16,29,2
1669,-158,2,989,-24,17,2
1670,-120,-35,984,-23,-5,-6
1671,14,-70,1004,-16,-23,-11
1672,128,-47,1000,-7,-23,-13
1673,141,-4,1009,-2,-2,-9
1674,18,19,1006,-9,21,-2
1675,-113,32,987,-16,28,2
1676,-160,-5,1001,-22,15,-2
1677,-98,-47,977,-23,-11,-6
1678,46,-61,1004,-14,-26,-12
1679,138,-48,1009,-6,-21,-14
1680,114,3,998,-2,2,-6
1681,-7,31,1013,-9,23,0
1682,-134,37,995,-19,26,2
1683,-149,-16,976,-24,9,-1
1684,-61,-54,1002,-21,-16,-8
1685,65,-67,990,-14,-27,-11
1686,148,-36,1013,-2,-16,-14
1687,90,8,1006,-6,8,-5
1688,-47,42,1002,-19,30,4
1689,-139,28,996,-18,24,1
1690,-142,-26,976,-28,3,-2
1691,-27,-61,989,-18,-20,-9
1692,96,-63,1015,-8,-26,-13
1693,143,-20,999,-5,-10,-11
1694,59,16,1006,-5,14,-5
1695,-75,48,1004,-14,27,1
1696,-144,9,981,-26,21,0
1697,-127,-35,985,-26,-1,-4
1698,0,-70,1001,-19,-22,-10
1699,118,-54,1003,-7,-23,-15
1700,126,-20,1004,-3,-5,-10
1701,27,39,1008,-6,17,-3
1702,-98,41,992,-20,28,1
1703,-151,0,992,-26,16,1
1704,-100,-42,986,-27,-8,-4
1705,42,-86,998,-17,-23,-13
1706,125,-57,1008,-3,-19,-13
1707,101,3,997,-2,1,-6
1708,0,42,1011,-7,21,-2
1709,-117,33,989,-19,23,1
1710,-147,-10,988,-26,10,0
1711,-50,-58,992,-23,-13,-8
1712,44,-72,1002,-12,-23,-9
1713,133,-23,995,-3,-17,-10
1714,69,1,1016,-3,6,-6
1715,-25,50,1000,-11,21,0
1716,-128,15,995,-22,22,3
1717,-127,-13,982,-25,3,-3
1718,-22,-63,1001,-23,-16,-8
1719,73,-55,996,-11,-22,-13
1720,116,-29,1006,-6,-11,-9
1721,59,14,1009,-7,11,-5
1722,-65,39,990,-15,24,2
1723,-122,15,1001,-23,18,0
1724,-117,-36,981,-26,0,-4
1725,-7,-67,992,-16,-19,-10
1726,97,-63,1009,-9,-22,-13
1727,117,-15,1002,-1,-5,-10
1728,51,34,1005,-6,15,-3
1729,-87,36,997,-19,27,1
1730,-137,7,991,-25,15,0
1731,-115,-51,984,-27,-6,-4
1732,15,-60,1003,-15,-23,-12
1733,123,-50,1003,-6,-21,-12
1734,114,-1,999,-4,1,-10
1735,21,30,1010,-10,19,-4
1736,-109,29,992,-19,25,1
1737,-151,-10,992,-26,12,-1
1738,-85,-49,986,-23,-11,-9
1739,42,-59,1000,-12,-25,-12
1740,143,-40,1006,-5,-19,-12
1741,86,5,997,-4,5,-6
1742,-12,32,1014,-12,20,-2
1743,-124,22,992,-22,23,0
1744,-141,-17,980,-27,8,-2
1745,-45,-53,999,-23,-15,-10
1746,73,-67,995,-13,-22,-13
1747,122,-35,1011,-4,-13,-13
1748,81,17,999,-6,7,-7
1749,-56,41,1015,-12,25,0
1750,-126,30,979,-23,18,0
1751,-132,-32,991,-28,3,-4
1752,-7,-65,989,-20,-18,-10
1753,83,-69,1002,-12,-21,-11
1754,127,-26,1009,-5,-8,-11
1755,40,13,1004,-6,13,-3
1756,-79,37,990,-13,24,1
1757,-134,15,1000,-21,16,0
1758,-100,-29,980,-24,-4,-5
1759,20,-58,1007,-17,-20,-12
1760,109,-61,1002,-9,-19,-13
1761,95,-15,994,-3,-1,-8
1762,24,20,1016,-8,16,-2
1763,-103,37,985,-16,24,2
1764,-130,12,997,-24,13,1
1765,-71,-40,995,-26,-8,-7
1766,38,-66,997,-17,-21,-11
1767,120,-56,997,-7,-15,-12
1768,78,2,1008,-4,3,-8
1769,-12,31,1003,-9,19,-1
1770,-118,30,994,-20,22,1
1771,-130,-21,988,-26,8,-2
1772,-38,-53,998,-19,-13,-10
1773,59,-63,997,-13,-21,-11
1774,120,-28,1004,-4,-12,-10
1775,60,6,1006,-5,9,-4
1776,-45,45,1005,-13,22,0
1777,-116,18,988,-22,18,0
1778,-120,-20,989,-25,3,-3
1779,-11,-69,990,-22,-18,-10
1780,76,-53,1005,-7,-20,-12
1781,112,-21,1003,-4,-9,-8
1782,45,13,1004,-7,13,-5
1783,-63,35,997,-15,24,1
1784,-125,7,993,-23,16,0
1785,-107,-31,984,-24,-2,-6
1786,6,-66,1003,-16,-20,-11
1787,101,-48,999,-8,-20,-13
1788,106,-15,1005,-3,-3,-8
1789,26,32,1007,-6,16,-4
1790,-88,40,990,-20,24,0
1791,-134,2,997,-25,13,0
1792,-95,-34,983,-27,-7,-5
1793,25,-69,1006,-18,-22,-11
1794,115,-52,1003,-8,-20,-12
1795,107,-13,997,-4,1,-8
1796,9,32,1016,-7,19,-2
1797,-112,36,983,-18,26,2
1798,-150,3,995,-26,11,-1
1799,-62,-49,994,-25,-12,-8
1800,45,-67,992,-17,-22,-11
1801,135,-45,1008,-7,-16,-11
1802,87,0,1005,-5,6,-6
1803,-24,29,1003,-12,24,0
1804,-126,25,995,-21,21,1
1805,-139,-8,983,-25,5,-3
1806,-38,-48,993,-21,-15,-9
1807,75,-51,1002,-14,-23,-14
1808,121,-34,1002,-7,-11,-11
1809,73,1,1008,-6,9,-6
1810,-59,39,997,-13,25,1
1811,-132,21,996,-20,19,0
1812,-120,-25,979,-27,1,-5
1813,-5,-63,997,-18,-19,-9
1814,91,-64,1001,-9,-21,-12
1815,120,-15,1011,-2,-6,-11
1816,41,19,1000,-4,14,-4
1817,-84,39,995,-16,24,1
1818,-136,5,992,-24,15,0
1819,-96,-36,990,-24,-6,-6
1820,11,-69,1003,-18,-21,-11
1821,117,-51,998,-5,-20,-14
1822,99,-5,1007,-2,0,-8
1823,24,38,1001,-8,18,-2
1824,-110,36,997,-20,25,2
1825,-136,-10,988,-27,11,-2
1826,-71,-56,994,-22,-10,-7
1827,41,-65,988,-12,-21,-11
1828,124,-40,1015,-5,-17,-12
1829,86,9,1001,-5,3,-7
1830,-26,31,1001,-12,22,0
1831,-110,25,1002,-19,20,-1
1832,-129,-19,980,-25,7,-3
1833,-38,-42,996,-18,-14,-9
1834,65,-63,998,-14,-22,-13
1835,118,-32,1006,-6,-11,-11
1836,59,4,997,-7,8,-5
1837,-44,35,1016,-13,22,-1
1838,-118,13,979,-21,19,0
1839,-127,-13,991,-24,3,-3
1840,-13,-60,988,-21,-19,-10
1841,80,-62,1004,-10,-21,-13
1842,115,-22,1007,-4,-7,-10
1843,51,26,1002,-6,12,-6
1844,-68,40,1000,-16,24,1
1845,-133,7,988,-24,16,1
1846,-108,-36,985,-24,-4,-6
1847,2,-68,997,-17,-20,-11
1848,103,-48,1008,-8,-21,-12
1849,114,-11,999,-3,-4,-10
1850,29,37,1009,-8,17,-3
1851,-96,39,989,-19,25,2
1852,-141,-1,991,-27,14,-1
1853,-85,-58,994,-26,-8,-7
1854,31,-70,988,-14,-20,-11
1855,122,-49,1006,-6,-18,-13
1856,92,-2,1010,-3,1,-7
1857,-3,48,995,-10,18,-1
1858,-109,34,1002,-22,23,1
1859,-136,-6,984,-27,7,-3
1860,-47,-69,993,-24,-12,-9
1861,51,-69,996,-12,-21,-12
1862,116,-32,1005,-4,-13,-11
1863,73,15,1008,-5,6,-7
1864,-35,42,1005,-13,21,1
1865,-118,19,993,-22,20,0
1866,-116,-30,980,-26,4,-4
1867,-25,-72,1002,-20,-15,-9
1868,75,-56,992,-7,-21,-13
1869,110,-13,1010,-3,-8,-10
1870,51,15,1004,-7,11,-5
1871,-57,34,995,-16,22,2
1872,-120,1,993,-23,16,0
1873,-108,-22,982,-22,-2,-6
1874,2,-57,999,-18,-18,-11
1875,89,-55,1002,-7,-19,-12
1876,101,-10,1002,-4,-4,-8
1877,39,28,1006,-9,15,-5
1878,-87,33,997,-18,24,1
1879,-125,0,983,-26,13,0
1880,-87,-48,997,-25,-6,-6
1881,21,-69,1003,-16,-20,-10
1882,106,-40,993,-6,-18,-12
1883,91,1,1011,-6,-1,-8
1884,8,32,1005,-11,17,-3
1885,-102,32,981,-22,22,0
1886,-131,-7,1009,-25,9,-1
1887,-58,-61,979,-24,-11,-8
1888,47,-64,1005,-13,-20,-11
1889,120,-38,999,-3,-15,-11
1890,65,19,1005,-4,6,-5
1891,-19,39,1007,-12,19,-1
1892,-114,21,991,-24,22,0
1893,-125,-29,986,-25,5,-4
1894,-29,-64,998,-20,-16,-9
1895,60,-64,989,-12,-19,-12
1896,119,-21,1014,-3,-10,-12
1897,54,14,1004,-5,10,-5
1898,-50,42,999,-15,23,1
1899,-122,10,994,-25,18,1
1900,-110,-28,989,-25,0,-4
1901,-4,-72,981,-18,-18,-10
1902,83,-57,1016,-6,-20,-14
1903,108,-8,1001,-3,-5,-9
1904,43,24,1000,-9,14,-3
1905,-83,35,998,-16,24,2
1906,-122,2,995,-24,14,-1
1907,-97,-39,979,-24,-3,-6
1908,11,-67,1008,-15,-19,-11
1909,99,-39,997,-5,-19,-12
1910,96,-7,1004,-4,-1,-8
1911,22,26,1009,-10,15,-3
1912,-95,23,986,-20,23,1
1913,-129,-1,999,-23,11,-1
1914,-85,-52,987,-25,-9,-5
1915,31,-59,998,-13,-22,-11
1916,125,-37,1007,-6,-18,-12
1917,88,8,1007,-5,2,-6
1918,2,36,1001,-12,19,-2
1919,-115,16,997,-22,25,2
1920,-140,-17,984,-26,9,0
1921,-53,-64,989,-20,-14,-9
1922,60,-66,1005,-10,-22,-14
1923,122,-32,1000,-2,-14,-10
1924,73,24,1003,-2,8,-6
1925,-31,48,1017,-14,22,-1
1926,-118,22,978,-24,20,1
1927,-131,-25,990,-27,4,-4
1928,-18,-68,994,-22,-17,-10
1929,77,-69,996,-8,-20,-13
1930,112,-25,1005,-3,-8,-10
1931,55,22,1005,-4,10,-4
1932,-61,39,994,-13,24,0
1933,-129,21,999,-26,16,0
1934,-104,-40,977,-28,-2,-5
1935,-1,-66,1003,-18,-18,-11
1936,101,-47,1002,-10,-20,-13
1937,100,-19,1002,-3,-3,-11
1938,30,26,1007,-8,13,-4
1939,-97,30,986,-19,24,2
1940,-124,-2,998,-23,12,-2
1941,-80,-47,991,-24,-7,-5
1942,24,-55,994,-15,-20,-10
1943,119,-40,1009,-6,-19,-14
1944,81,-5,998,-7,1,-6
1945,0,32,1000,-10,17,-3
1946,-100,20,998,-19,20,0
1947,-135,-15,989,-25,9,-1
1948,-51,-54,991,-22,-12,-8
1949,48,-65,1001,-11,-20,-12
1950,111,-36,1000,-5,-13,-10
1951,78,19,1003,-3,6,-8
1952,-27,38,1014,-11,22,-2
1953,-115,20,981,-24,21,2
1954,-121,-28,993,-25,5,-5
1955,-28,-66,994,-20,-16,-10
1956,62,-61,992,-10,-20,-12
1957,116,-21,1008,-3,-9,-11
1958,52,23,1008,-5,10,-4
1959,-51,49,994,-16,22,0
1960,-119,1,998,-26,18,-1
1961,-116,-34,987,-26,0,-4
1962,-2,-74,986,-18,-17,-11
1963,86,-60,1013,-8,-18,-12
1964,109,-8,1001,-2,-5,-8
1965,40,27,1004,-8,14,-4
1966,-78,39,997,-16,23,1
1967,-132,5,986,-26,14,0
1968,-100,-53,992,-25,-6,-6
1969,21,-60,1000,-15,-21,-10
1970,101,-46,1004,-8,-18,-11
1971,103,6,1004,-4,-1,-8
1972,23,30,1004,-12,18,-2
1973,-101,26,988,-21,24,1
1974,-140,-10,996,-26,11,-1
1975,-71,-59,992,-24,-10,-8
1976,28,-59,991,-12,-21,-10
1977,121,-36,1009,-4,-18,-12
1978,87,10,1005,-6,3,-8
1979,-1,39,999,-13,21,-1
1980,-114,23,1000,-23,24,1
1981,-131,-27,984,-26,7,-4
1982,-57,-56,987,-21,-13,-8
1983,58,-64,1003,-11,-22,-12
1984,120,-33,1003,-3,-13,-11
1985,83,12,1002,-5,8,-6
1986,-48,37,1010,-13,24,0
1987,-113,16,988,-22,19,-1
1988,-134,-29,982,-24,4,-4
1989,-17,-62,991,-17,-17,-10
1990,71,-51,1014,-9,-22,-12
1991,123,-22,994,-6,-9,-11
1992,58,19,1012,-6,12,-4
1993,-63,39,997,-15,23,2
1994,-134,3,988,-24,17,-2
1995,-112,-37,985,-23,-2,-5
1996,-1,-64,1004,-16,-19,-10
1997,100,-50,997,-6,-20,-13
1998,115,-2,1009,-1,-5,-8
1999,33,29,1001,-8,16,-3
2000,-91,39,994,-20,25,0
2001,-134,-14,991,-26,12,0
2002,-91,-52,985,-23,-7,-7
2003,22,-68,999,-13,-21,-12
2004,114,-34,1000,-4,-19,-14
2005,92,8,1006,-5,2,-8
2006,6,42,1001,-11,18,0
2007,-108,23,994,-24,23,1
2008,-134,-28,990,-27,9,-2
2009,-57,-57,989,-20,-12,-7
2010,53,-66,1002,-10,-22,-13
2011,117,-25,999,-3,-13,-12
2012,73,17,1009,-5,6,-7
2013,-32,42,1005,-12,20,-1
2014,-115,13,989,-26,19,1
2015,-119,-24,989,-25,4,-4
2016,-25,-72,995,-22,-15,-8
2017,67,-55,996,-8,-20,-13
2018,116,-21,1012,-3,-8,-10
2019,54,25,1000,-7,11,-5
2020,-57,40,1000,-15,24,1
2021,-119,12,994,-25,16,0
2022,-109,-41,978,-27,0,-4
2023,0,-66,998,-18,-18,-11
2024,84,-59,1003,-9,-19,-12
2025,101,-7,1005,-3,-5,-9
2026,44,18,1002,-8,14,-4
2027,-83,37,993,-15,24,2
2028,-132,-2,986,-24,14,-1
2029,-96,-36,997,-21,-7,-7
2030,18,-65,995,-23,-19,-9
2031,99,-44,1000,-5,-17,-11
2032,115,0,1013,-6,-4,-10
2033,14,30,995,-8,19,-1
2034,-107,30,993,-22,25,3
2035,-138,-19,998,-26,10,-2
2036,-75,-51,986,-20,-10,-7
2037,40,-59,993,-13,-22,-10
2038,123,-29,1011,-3,-16,-12
2039,86,9,998,-7,5,-5
2040,-9,40,1007,-12,20,-1
2041,-124,12,993,-23,22,1
2042,-128,-20,983,-26,6,-3
2043,-42,-62,995,-20,-14,-9
2044,57,-57,994,-11,-22,-11
2045,128,-23,1007,-5,-12,-11
2046,65,16,1004,-5,10,-6
2047,-47,39,999,-15,25,2
2048,-120,13,996,-22,20,0
2049,-121,-38,977,-26,2,-3
2050,-10,-66,991,-17,-18,-11
2051,80,-57,1014,-7,-21,-12
2052,114,-13,997,-2,-8,-9
2053,42,27,1009,-6,13,-4
2054,-66,38,995,-16,22,2
2055,-130,6,993,-25,15,2
2056,-102,-41,981,-26,-3,-5
2057,9,-68,1009,-15,-20,-11
2058,100,-50,992,-8,-20,-12
2059,101,0,1008,-2,-3,-7
2060,36,30,1007,-8,16,-4
2061,-100,35,990,-20,25,1
2062,-135,-7,994,-25,12,-1
2063,-85,-55,990,-23,-9,-7
2064,23,-71,993,-13,-21,-11
2065,117,-36,1006,-3,-18,-14
2066,107,15,1007,-5,2,-8
2067,0,39,1000,-11,22,-1
2068,-106,34,1000,-21,23,2
2069,-147,-25,989,-29,8,-2
2070,-64,-65,985,-22,-12,-9
2071,48,-68,1002,-14,-23,-12
2072,127,-29,1000,-2,-16,-12
2073,98,23,1006,-5,5,-7
2074,-27,39,1014,-15,24,0
2075,-127,13,984,-25,22,1
2076,-140,-28,991,-25,5,-3
2077,-36,-68,991,-20,-16,-9
2078,58,-57,994,-8,-23,-12
2079,145,-18,1018,-4,-13,-13
2080,71,13,1002,-6,11,-6
2081,-49,48,991,-13,25,2
2082,-136,6,1002,-24,21,0
2083,-137,-37,974,-25,2,-4
2084,-17,-68,992,-19,-20,-9
2085,99,-53,1012,-8,-24,-14
2086,127,-12,1000,-3,-7,-9
2087,58,30,1006,-6,14,-4
2088,-84,34,995,-19,26,1
2089,-150,-2,993,-25,16,1
2090,-108,-52,982,-24,-5,-6
2091,8,-64,1003,-15,-20,-11
2092,119,-41,999,-4,-22,-11
2093,118,4,1009,-3,-1,-9
2094,20,37,1004,-12,19,-2
2095,-109,32,994,-21,25,2
2096,-148,-23,992,-27,12,-2
2097,-76,-62,988,-21,-10,-6
2098,36,-65,995,-11,-21,-12
2099,134,-32,1010,-3,-18,-14
2100,82,21,1000,-3,5,-6
2101,-5,38,1013,-12,22,0
2102,-128,24,989,-24,24,1
2103,-125,-33,988,-27,7,-2
2104,-46,-62,990,-21,-14,-9
2105,69,-60,1000,-10,-22,-13
2106,117,-24,1008,-3,-12,-13
2107,71,18,998,-5,9,-4
2108,-58,30,1006,-15,24,2
2109,-122,17,988,-22,17,1
2110,-114,-27,985,-25,2,-3
2111,-2,-61,997,-18,-17,-9
2112,82,-57,1004,-10,-20,-11
2113,115,-16,1005,-4,-7,-11
2114,32,19,1006,-6,13,-2
2115,-73,49,988,-16,23,1
2116,-132,-6,999,-26,14,-1
2117,-92,-36,985,-24,-7,-5
2118,17,-70,997,-18,-18,-10
2119,106,-48,1008,-4,-19,-15
2120,91,-5,1000,-2,-2,-6
2121,18,37,1005,-9,16,-3
2122,-106,34,992,-20,23,2
2123,-127,-8,993,-26,10,-2
2124,-61,-58,993,-24,-10,-8
2125,37,-68,989,-14,-19,-10
2126,114,-38,1013,-4,-15,-12
2127,79,14,996,-4,4,-7
2128,-26,37,1003,-12,20,0
2129,-96,33,996,-22,19,-1
2130,-128,-29,984,-28,8,-2
2131,-37,-58,992,-20,-12,-9
2132,60,-70,1005,-11,-19,-12
2133,110,-25,992,-3,-10,-11
2134,60,23,1014,-4,7,-4
2135,-39,45,1000,-16,22,0
2136,-122,14,993,-27,19,2
2137,-107,-33,986,-28,1,-4
2138,-23,-82,993,-18,-16,-9
2139,86,-51,998,-7,-21,-12
2140,104,-21,1011,-3,-7,-9
2141,46,36,996,-7,11,-6
2142,-70,37,1005,-18,24,2
2143,-120,3,983,-24,15,0
2144,-104,-43,990,-25,-3,-5
2145,14,-68,998,-16,-20,-12
2146,104,-50,1005,-6,-18,-12
2147,97,2,1001,-2,-1,-7
2148,22,29,1000,-9,16,-3
2149,-99,30,999,-18,24,0
2150,-129,-6,987,-25,10,0
2151,-74,-52,998,-24,-9,-7
2152,38,-67,991,-13,-20,-11
2153,112,-42,1008,-3,-16,-11
2154,87,7,998,-4,4,-7
2155,-10,35,1004,-11,20,0
2156,-111,27,995,-22,22,1
2157,-130,-20,987,-25,7,-3
2158,-41,-58,998,-20,-15,-9
2159,58,-66,993,-11,-21,-12
2160,117,-28,1006,-4,-12,-12
2161,64,15,1003,-4,7,-7
2162,-41,40,1010,-13,22,2
2163,-123,11,984,-24,19,0
2164,-114,-22,991,-23,2,-5
2165,-13,-69,994,-20,-17,-10
2166,68,-58,995,-8,-18,-13
2167,116,-19,1013,-3,-7,-11
2168,43,29,1002,-7,12,-4
2169,-68,37,993,-16,24,1
2170,-120,3,999,-25,16,-2
2171,-104,-40,978,-23,-1,-4
2172,-1,-65,997,-16,-18,-10
2173,100,-49,1009,-8,-20,-12
2174,95,-14,998,-2,-2,-7
2175,36,42,1002,-8,13,-4
2176,-88,37,1001,-20,22,2
2177,-125,0,980,-24,14,-1
2178,-100,-48,992,-26,-8,-5
2179,20,-67,1004,-17,-22,-10
2180,115,-44,1002,-8,-19,-11
2181,102,-3,1002,-5,0,-8
2182,17,38,1006,-10,18,-3
2183,-104,19,993,-21,25,1
2184,-145,-3,989,-24,11,-1
2185,-77,-57,994,-22,-12,-6
2186,41,-57,996,-12,-23,-13
2187,128,-39,1006,-5,-17,-12
2188,97,13,1007,-5,3,-7
2189,-18,27,1005,-14,21,0
2190,-120,20,992,-21,22,1
2191,-142,-27,988,-24,7,-3
2192,-50,-51,986,-19,-15,-8
2193,69,-61,1004,-10,-24,-13
2194,133,-25,1011,-2,-13,-11
2195,75,15,995,-7,8,-4
2196,-49,47,1015,-14,25,-1
2197,-130,10,983,-24,19,2
2198,-131,-34,982,-25,2,-4
2199,-9,-75,995,-18,-20,-10
2200,88,-59,1004,-7,-21,-14
2201,119,-10,1006,-2,-7,-10
2202,47,41,1005,-6,12,-4
2203,-79,44,997,-20,24,3
2204,-131,-2,988,-28,15,-1
2205,-101,-49,985,-26,-5,-6
2206,12,-73,999,-19,-21,-11
2207,107,-42,1005,-6,-19,-12
2208,101,-1,999,-4,-2,-8
2209,14,31,1011,-10,16,-2
2210,-100,30,983,-20,24,1
2211,-127,-16,1000,-25,10,-1
2212,-68,-50,984,-22,-11,-6
2213,40,-63,1004,-13,-20,-12
2214,119,-39,1000,-6,-15,-12
2215,71,9,1005,-6,5,-6
2216,-5,40,1003,-14,18,-2
2217,-116,20,997,-23,20,1
2218,-116,-21,983,-26,5,-2
2219,-38,-60,1000,-20,-14,-9
2220,58,-62,992,-12,-20,-12
2221,109,-26,1010,-6,-10,-10
2222,62,21,996,-4,9,-6
2223,-44,38,1016,-14,22,1
2224,-115,10,985,-23,18,0
2225,-110,-32,986,-24,1,-4
2226,-11,-65,1000,-18,-16,-10
2227,73,-56,998,-9,-20,-12
2228,109,-14,1009,-4,-6,-10
2229,38,33,1006,-8,12,-6
2230,-61,28,994,-18,22,1
2231,-126,0,992,-25,15,-1
2232,-100,-43,983,-25,-6,-6
2233,16,-73,1003,-15,-19,-11
2234,90,-44,997,-7,-18,-12
2235,100,-3,1007,-4,-2,-9
2236,21,29,1000,-8,16,-4
2237,-96,29,991,-19,22,2
2238,-126,-1,997,-23,11,-2
2239,-67,-51,990,-23,-8,-7
2240,25,-61,1000,-14,-19,-11
2241,117,-43,1002,-3,-16,-14
2242,75,0,1006,-4,5,-7
2243,-3,39,999,-11,18,-1
2244,-109,24,996,-21,21,-1
2245,-121,-14,991,-26,7,-2
2246,-52,-58,991,-22,-12,-7
2247,54,-69,1000,-12,-21,-12
2248,110,-36,1000,-3,-12,-9
2249,70,23,1002,-3,7,-5
2250,-36,44,1013,-13,21,0
2251,-112,21,985,-24,19,1
2252,-123,-25,990,-26,4,-3
2253,-20,-68,991,-20,-17,-11
2254,67,-68,1000,-9,-19,-12
2255,115,-24,1008,-1,-9,-10
2256,50,28,1003,-5,10,-5
2257,-63,42,1002,-15,23,0
2258,-118,11,989,-25,15,-1
2259,-109,-38,983,-26,-1,-4
2260,-2,-63,996,-16,-18,-10
2261,94,-57,1007,-9,-20,-12
2262,106,-15,1003,-4,-3,-8
2263,27,24,1001,-6,15,-2
2264,-83,40,999,-17,22,1
2265,-120,-7,989,-24,11,0
2266,-94,-29,989,-22,-7,-4
2267,32,-68,1005,-19,-21,-12
2268,101,-50,1000,-7,-17,-13
2269,91,6,996,-5,0,-6
2270,14,25,1011,-12,18,-4
2271,-110,22,985,-18,23,2
2272,-121,-3,996,-23,8,-2
2273,-68,-53,997,-23,-11,-8
2274,42,-63,992,-13,-22,-10
2275,123,-39,1008,-5,-14,-12
2276,74,12,998,-4,6,-7
2277,-19,37,1003,-12,19,0
2278,-112,27,999,-23,20,0
2279,-129,-24,979,-28,4,-1
2280,-33,-58,999,-21,-15,-9
2281,61,-72,998,-11,-20,-12
2282,115,-24,998,-2,-12,-10
2283,56,19,1011,-6,8,-5
2284,-48,40,1001,-13,22,0
2285,-117,6,987,-23,17,1
2286,-117,-36,991,-25,0,-4
2287,-6,-60,990,-17,-19,-10
2288,84,-53,1005,-9,-20,-13
2289,108,-5,1006,-4,-5,-9
2290,43,24,1005,-8,13,-4
2291,-74,37,993,-17,22,-1
2292,-124,-4,993,-25,14,0
2293,-102,-48,987,-23,-3,-6
2294,14,-66,993,-16,-20,-11
2295,102,-48,1008,-6,-19,-13
2296,97,1,1000,-4,-2,-8
2297,22,38,1003,-9,16,-3
2298,-97,25,993,-20,24,2
2299,-133,-5,993,-24,11,0
2300,-72,-58,992,-24,-8,-8
2301,36,-68,999,-11,-20,-12
2302,118,-33,999,-3,-17,-11
2303,82,7,1011,-4,4,-8
2304,-14,41,997,-10,20,0
2305,-107,24,995,-21,20,0
2306,-129,-29,991,-26,6,-2
2307,-41,-56,993,-18,-13,-8
2308,57,-68,997,-10,-20,-13
2309,115,-28,1003,-3,-12,-12
2310,62,17,1003,-5,7,-5
2311,-39,45,1007,-14,21,0
2312,-117,20,989,-23,19,0
2313,-115,-28,991,-25,1,-3
2314,-23,-67,983,-21,-17,-8
2315,78,-65,1011,-8,-21,-14
2316,111,-16,1000,-1,-7,-10
2317,43,23,1004,-7,12,-4
2318,-61,44,996,-15,22,-1
2319,-125,14,999,-22,16,1
2320,-108,-31,976,-26,-2,-4
2321,5,-70,1004,-15,-18,-12
2322,93,-57,1006,-8,-19,-13
2323,103,-9,999,-4,-2,-8
2324,33,26,1002,-8,14,-3
2325,-93,40,1000,-16,24,1
2326,-123,1,983,-25,13,-1
2327,-91,-50,998,-24,-5,-6
2328,27,-68,996,-15,-19,-11
2329,109,-49,1010,-3,-16,-13
2330,93,-3,993,-2,1,-7
2331,6,43,1015,-8,17,-1
2332,-99,31,987,-20,23,2
2333,-137,-8,996,-24,10,-1
2334,-52,-53,991,-23,-12,-8
2335,44,-75,1001,-14,-19,-12
2336,120,-39,1002,-3,-14,-11
2337,73,14,1006,-3,6,-7
2338,-25,38,1006,-12,22,0
2339,-124,25,988,-21,22,2
2340,-117,-25,995,-25,5,-4
2341,-26,-65,987,-21,-15,-9
2342,69,-57,1002,-10,-20,-12
2343,111,-19,1007,-3,-9,-12
2344,57,20,1004,-6,11,-4
2345,-59,28,999,-17,24,1
2346,-122,6,993,-22,17,0
2347,-107,-39,984,-25,-2,-5
2348,-16,-61,994,-16,-17,-9
2349,82,-37,1007,-8,-20,-11
2350,107,-12,1011,-6,-5,-9
2351,54,25,996,-10,13,-4
2352,-73,34,1003,-18,24,1
2353,-119,0,992,-25,15,-1
2354,-119,-41,978,-26,-2,-3
2355,0,-63,1005,-16,-20,-11
2356,99,-57,1008,-8,-21,-13
2357,115,-6,994,-2,-3,-8
2358,45,29,1012,-8,18,-4
2359,-103,38,995,-18,27,1
2360,-142,-2,987,-24,13,0
2361,-91,-43,991,-25,-8,-7
2362,25,-71,997,-17,-23,-11
2363,124,-48,1004,-4,-18,-13
2364,100,-5,1002,-4,3,-8
2365,-3,51,1009,-8,20,0
2366,-108,27,990,-20,23,2
2367,-151,-10,991,-26,8,-1
2368,-57,-60,990,-24,-16,-8
2369,57,-76,997,-13,-26,-14
2370,129,-45,1003,2,-12,-10
2371,80,16,1007,-3,7,-6
2372,-38,49,1008,-11,23,2
2373,-134,32,990,-22,22,2
2374,-122,-26,980,-28,3,-2
2375,-21,-82,1000,-20,-16,-9
2376,78,-63,994,-8,-22,-10
2377,119,-21,1016,-1,-9,-11
2378,54,22,997,-5,10,-5
2379,-72,48,999,-12,23,2
2380,-125,11,995,-25,15,0
2381,-104,-38,981,-25,-3,-5
2382,4,-64,1000,-17,-18,-10
2383,100,-50,1008,-8,-19,-13
2384,100,-14,994,-4,-2,-9
2385,28,24,1008,-8,15,-4
2386,-94,31,999,-20,23,1
2387,-119,0,980,-23,13,-2
2388,-90,-41,1002,-24,-6,-5
2389,36,-65,998,-17,-21,-10
2390,113,-47,999,-6,-17,-12
2391,82,8,1006,-5,3,-7
2392,0,35,1007,-12,19,-3
2393,-104,23,987,-21,22,1
2394,-131,-13,995,-26,8,0
2395,-51,-52,994,-22,-11,-8
2396,53,-72,995,-13,-20,-11
2397,110,-32,1002,-4,-12,-10
2398,73,13,1002,-5,5,-8
2399,-24,41,1012,-11,21,-2
2400,-116,25,985,-24,21,3
2401,-122,-24,988,-27,5,-3
2402,-23,-67,1001,-22,-17,-8
2403,65,-64,987,-12,-21,-11
2404,112,-25,1012,-3,-9,-10
2405,57,19,999,-7,10,-4
2406,-57,42,999,-15,24,1
2407,-114,7,995,-23,16,-1
2408,-120,-30,984,-24,0,-4
2409,6,-61,992,-17,-19,-12
2410,81,-53,1013,-11,-21,-12
2411,106,-8,995,-6,-6,-8
2412,37,20,1011,-8,14,-4
2413,-80,32,989,-18,24,1
2414,-129,0,993,-24,14,-1
2415,-86,-43,989,-23,-6,-7
2416,12,-64,1006,-15,-20,-9
2417,115,-48,994,-7,-19,-13
2418,88,-6,1012,-2,1,-8
2419,15,46,996,-9,16,-2
2420,-105,33,998,-21,23,1
2421,-119,-2,995,-26,9,-1
2422,-73,-54,989,-25,-9,-6
2423,48,-73,997,-13,-21,-13
2424,113,-50,1007,-5,-15,-12
2425,73,10,993,-3,5,-6
2426,-20,40,1016,-10,19,-1
2427,-112,24,988,-23,20,1
2428,-123,-14,991,-26,5,-2
2429,-29,-63,995,-22,-16,-9
2430,55,-66,996,-15,-20,-12
2431,117,-37,1000,-3,-10,-11
2432,49,20,1006,-4,9,-2
2433,-43,35,1003,-14,22,1
2434,-118,16,994,-21,18,1
2435,-107,-30,982,-26,1,-3
2436,-11,-60,999,-18,-17,-10
2437,84,-56,1001,-9,-18,-13
2438,101,-19,1012,-5,-4,-9
2439,41,27,994,-8,14,-4
2440,-77,32,1007,-16,23,1
2441,-115,2,986,-24,14,0
2442,-106,-43,988,-25,-2,-3
2443,23,-61,997,-16,-19,-12
2444,90,-50,1013,-7,-18,-11
2445,99,-3,991,-1,-1,-8
2446,17,31,1012,-8,16,-3
2447,-90,34,992,-19,22,0
2448,-125,0,990,-23,12,-1
2449,-72,-52,994,-26,-8,-8
2450,27,-62,999,-13,-19,-12
2451,119,-43,1003,-5,-15,-13
2452,76,7,1002,-5,5,-7
2453,-1,37,1006,-11,19,-1
2454,-109,27,991,-22,23,0
2455,-127,-19,993,-28,8,-1
2456,-55,-62,990,-21,-13,-9
2457,42,-63,998,-12,-21,-11
2458,120,-26,1001,-5,-15,-11
2459,80,16,1010,-6,5,-7
2460,-15,43,1003,-15,21,-1
2461,-122,16,991,-26,22,1
2462,-130,-29,986,-27,4,-4
2463,-36,-71,988,-21,-16,-10
2464,64,-64,1003,-11,-23,-12
2465,134,-16,1008,-4,-13,-12
2466,71,23,999,-7,12,-7
2467,-51,37,1005,-15,24,0
2468,-133,5,989,-24,19,0
2469,-132,-39,978,-24,0,-3
2470,-20,-60,999,-17,-20,-11
2471,100,-56,1006,-8,-24,-13
2472,133,-13,1004,-4,-7,-11
2473,51,25,1003,-7,17,-3
2474,-80,39,998,-17,27,2
2475,-151,1,988,-26,17,1
2476,-125,-48,984,-25,-5,-4
2477,14,-70,1006,-17,-24,-12
2478,131,-52,1000,-6,-23,-13
2479,123,6,1006,-2,-3,-9
2480,34,27,1005,-10,20,-3
2481,-118,34,996,-20,28,3
2482,-160,-15,989,-25,14,1
2483,-95,-55,985,-21,-11,-8
2484,39,-63,998,-11,-26,-10
2485,154,-30,1010,-3,-21,-13
2486,105,13,1005,-4,4,-6
2487,1,39,1009,-11,24,0
2488,-138,15,991,-25,27,3
2489,-160,-23,985,-24,9,-1
2490,-67,-71,983,-20,-16,-8
2491,73,-61,1004,-7,-27,-15
2492,151,-26,1007,-2,-18,-13
2493,103,27,1010,-4,9,-7
2494,-47,45,1003,-17,27,2
2495,-139,19,996,-24,23,1
2496,-158,-37,974,-27,5,-1
2497,-37,-72,987,-17,-20,-9
2498,97,-61,1017,-7,-27,-14
2499,152,-19,1003,-2,-10,-12
2500,76,32,1007,-5,14,-4
2501,-70,45,1008,-17,29,1
2502,-159,10,981,-26,23,1
2503,-141,-52,980,-26,-2,-3
2504,-8,-72,1002,-16,-22,-11
2505,130,-58,1003,-6,-25,-14
2506,135,0,1006,1,-6,-8
2507,55,45,1011,-7,16,-3
2508,-113,36,990,-21,30,1
2509,-153,-9,996,-26,16,-1
2510,-114,-57,979,-25,-7,-5
2511,23,-65,1002,-13,-26,-12
2512,136,-54,1005,-5,-23,-15
2513,118,9,1005,-1,0,-8
2514,14,41,1006,-9,22,-1
2515,-124,35,999,-21,28,3
2516,-144,-14,983,-27,12,-1
2517,-76,-67,991,-23,-10,-7
2518,48,-74,996,-14,-25,-12
2519,134,-38,1006,0,-17,-12
2520,93,16,1000,-1,4,-7
2521,-26,54,1018,-10,24,1
2522,-123,28,984,-24,23,2
2523,-138,-27,983,-28,5,-2
2524,-32,-77,996,-23,-16,-8
2525,62,-65,996,-10,-23,-13
2526,126,-20,1009,-2,-13,-11
2527,65,27,1010,-4,10,-8
2528,-53,47,988,-16,24,0
2529,-119,8,1004,-26,19,0
2530,-125,-34,975,-27,1,-3
2531,-12,-68,999,-18,-19,-11
2532,90,-59,1004,-8,-22,-15
2533,117,-8,1009,-4,-6,-10
2534,48,30,999,-7,14,-4
2535,-88,41,1002,-18,25,1
2536,-133,1,987,-27,14,0
2537,-92,-58,991,-25,-5,-7
2538,14,-67,997,-15,-19,-11
2539,114,-48,1007,-4,-19,-14
2540,96,2,996,-3,0,-9
2541,5,45,1012,-10,17,-1
2542,-103,36,989,-22,22,2
2543,-132,-20,991,-27,11,-2
2544,-55,-67,996,-23,-11,-7
2545,41,-68,990,-12,-20,-11
2546,118,-29,1007,-3,-15,-11
2547,68,15,1003,-4,5,-7
2548,-27,38,1007,-12,20,1
2549,-106,22,990,-23,18,1
2550,-123,-38,988,-25,4,-2
2551,-26,-59,993,-19,-17,-9
2552,62,-59,1002,-10,-21,-12
2553,107,-14,1003,-2,-11,-11
2554,56,24,1004,-7,9,-4
2555,-42,36,1004,-14,21,-1
2556,-116,2,990,-23,17,2
2557,-113,-36,986,-24,1,-3
2558,-20,-70,988,-16,-17,-10
2559,82,-45,1008,-6,-20,-12
2560,115,-7,1004,-3,-6,-9
2561,55,27,1000,-7,13,-5
2562,-69,32,1004,-18,24,1
2563,-129,-2,987,-26,14,-2
2564,-117,-47,986,-24,-2,-6
2565,4,-66,1000,-16,-21,-11
2566,109,-39,1000,-5,-21,-12
2567,105,0,1006,-5,-1,-7
2568,37,37,1007,-11,17,-4
2569,-96,20,994,-21,26,1
2570,-148,-5,992,-25,12,0
2571,-90,-63,986,-23,-9,-7
2572,36,-67,1000,-11,-23,-12
2573,121,-37,999,-6,-19,-10
2574,101,19,1009,-2,3,-8
2575,4,38,1013,-12,20,-1
2576,-114,27,988,-23,24,2
2577,-149,-23,986,-28,9,-1
2578,-66,-60,991,-22,-14,-7
2579,53,-64,998,-14,-25,-12
2580,135,-29,1005,-5,-17,-11
2581,84,18,1006,-4,7,-6
2582,-24,35,1013,-14,24,-1
2583,-127,16,989,-23,22,2
2584,-143,-26,978,-26,5,-2
2585,-41,-61,999,-19,-18,-11
2586,81,-54,995,-10,-24,-13
2587,128,-15,1013,-4,-10,-12
2588,81,15,997,-9,10,-6
2589,-67,32,1010,-15,27,1
2590,-134,4,982,-25,18,0
2591,-141,-41,989,-25,0,-4
2592,-1,-61,989,-16,-21,-10
2593,101,-48,1008,-7,-22,-13
2594,127,-1,998,-2,-6,-9
2595,48,28,1011,-9,15,-3
2596,-87,22,990,-21,27,3
2597,-155,-13,992,-23,16,2
2598,-100,-50,988,-21,-7,-6
2599,21,-53,997,-13,-23,-11
2600,123,-32,1003,-6,-20,-12
2601,113,15,1011,-4,-1,-9
2602,13,38,994,-13,20,-1
2603,-104,17,1004,-22,25,1
2604,-152,-28,987,-27,11,-1
2605,-72,-64,991,-22,-11,-7
2606,49,-65,997,-12,-24,-12
2607,126,-26,1005,-3,-16,-12
2608,86,21,1006,-3,5,-6
2609,-22,49,1006,-13,21,0
2610,-119,19,992,-25,21,1
2611,-127,-32,986,-26,5,-3
2612,-36,-71,989,-21,-15,-9
2613,66,-68,1001,-9,-21,-12
2614,118,-25,1006,-2,-11,-10
2615,54,27,1005,-5,10,-5
2616,-49,48,999,-15,22,1
2617,-117,11,996,-24,17,-1
2618,-113,-36,983,-29,1,-4
2619,-1,-67,993,-18,-18,-12
2620,82,-58,1007,-9,-18,-13
2621,104,-10,1002,-4,-5,-9
2622,35,28,1003,-7,14,-4
2623,-72,29,995,-17,23,1
2624,-124,2,991,-24,15,0
2625,-88,-43,986,-23,-4,-5
2626,11,-62,1009,-16,-18,-11
2627,104,-44,1001,-7,-18,-11
2628,89,-3,997,-3,0,-8
2629,13,29,1013,-9,15,-3
2630,-96,30,989,-20,22,1
2631,-126,-4,996,-25,9,-1
2632,-72,-55,992,-23,-9,-7
2633,43,-66,993,-12,-18,-12
2634,105,-45,1007,-5,-13,-12
2635,80,12,998,-3,3,-9
2636,-16,30,1011,-12,20,-1
2637,-110,29,988,-21,22,0
2638,-124,-19,993,-27,5,-2
2639,-37,-68,987,-21,-14,-11
2640,53,-65,1004,-10,-20,-11
2641,127,-25,999,-2,-13,-11
2642,55,16,1005,-7,9,-5
2643,-44,42,1010,-12,21,1
2644,-116,18,985,-24,19,1
2645,-116,-31,989,-26,2,-3
2646,-12,-61,996,-21,-16,-10
2647,76,-62,999,-10,-19,-12
2648,107,-30,1008,-4,-7,-10
2649,42,24,999,-6,13,-3
2650,-67,33,1002,-13,23,1
2651,-121,11,988,-24,14,1
2652,-98,-31,986,-25,-3,-6
2653,11,-63,1000,-17,-18,-11
2654,89,-52,1004,-9,-18,-11
2655,102,-9,997,-5,-2,-9
2656,17,25,1012,-9,15,-3
2657,-90,31,985,-19,21,1
2658,-127,-6,999,-24,12,-2
2659,-74,-51,991,-23,-7,-6
2660,31,-71,994,-14,-18,-11
2661,114,-42,1008,-3,-16,-13
2662,79,12,1004,-4,4,-6
2663,-6,37,997,-12,20,-1
2664,-109,25,999,-22,20,1
2665,-123,-25,991,-27,8,-2
2666,-49,-61,992,-19,-12,-8
2667,53,-62,1002,-10,-21,-12
2668,120,-29,1002,-4,-12,-12
2669,57,18,1006,-4,9,-5
2670,-34,39,1003,-14,21,-1
2671,-117,14,997,-23,19,0
2672,-115,-25,980,-25,3,-1
2673,-23,-59,1000,-22,-15,-10
2674,70,-61,999,-11,-20,-14
2675,100,-22,1002,-4,-8,-9
2676,60,23,1004,-5,10,-5
2677,-62,37,1004,-15,24,1
2678,-110,11,987,-24,14,0
2679,-113,-38,985,-26,-2,-6
2680,2,-59,1000,-17,-19,-11
2681,82,-61,999,-8,-18,-11
2682,103,-6,1012,-3,-3,-9
2683,34,21,995,-8,13,-3
2684,-82,36,1002,-16,22,0
2685,-122,-6,985,-26,12,0
2686,-91,-39,995,-21,-6,-7
2687,24,-66,997,-17,-20,-12
2688,104,-40,1008,-6,-18,-12
2689,87,-1,998,-4,0,-8
2690,14,33,1007,-12,17,-3
2691,-104,27,989,-20,22,2
2692,-123,-8,996,-24,9,-3
2693,-65,-59,987,-24,-10,-8
2694,37,-61,1000,-11,-20,-11
2695,120,-35,1000,-5,-17,-12
2696,68,13,1004,-4,7,-6
2697,-16,40,1007,-12,18,0
2698,-111,16,990,-24,19,1
2699,-127,-24,990,-25,5,-1
2700,-31,-63,993,-20,-16,-8
2701,52,-58,999,-9,-20,-12
2702,121,-22,1001,-2,-12,-11
2703,54,19,1007,-3,7,-7
2704,-41,41,1006,-16,19,0
2705,-121,10,989,-24,18,1
2706,-109,-36,987,-26,0,-4
2707,-12,-61,995,-18,-17,-10
2708,81,-61,999,-10,-19,-14
2709,102,-20,1013,-3,-7,-10
2710,45,28,994,-6,12,-5
2711,-78,39,1005,-15,23,1
2712,-110,6,987,-24,13,0
2713,-108,-44,991,-25,-3,-5
2714,21,-69,995,-16,-20,-11
2715,89,-60,1009,-6,-18,-11
2716,94,-4,990,-1,-3,-8
2717,21,33,1017,-6,15,-3
2718,-88,43,989,-17,23,3
2719,-129,0,992,-24,11,0
2720,-65,-50,1003,-25,-9,-7
2721,30,-66,989,-14,-20,-11
2722,110,-37,1000,-5,-15,-11
2723,76,-5,1012,-6,3,-7
2724,0,33,997,-10,18,-3
2725,-108,23,988,-21,22,2
2726,-125,-13,1005,-23,8,-3
2727,-42,-68,985,-21,-12,-8
2728,47,-58,996,-11,-19,-12
2729,117,-34,1006,-5,-12,-11
2730,62,18,1001,-3,7,-6
2731,-35,42,1008,-13,21,1
2732,-118,18,993,-23,19,1
2733,-111,-27,983,-25,2,-3
2734,-22,-66,1000,-19,-16,-8
2735,68,-60,990,-8,-20,-11
2736,112,-22,1010,-2,-9,-10
2737,49,24,1004,-6,11,-4
2738,-69,40,996,-16,22,1
2739,-110,8,996,-25,15,-1
2740,-115,-37,985,-25,-1,-3
2741,13,-59,989,-15,-20,-11
2742,85,-57,1013,-9,-17,-13
2743,98,-10,999,-3,-3,-8
2744,24,22,998,-8,14,-4
2745,-81,34,997,-16,21,0
2746,-122,-1,991,-24,12,-1
2747,-81,-37,989,-24,-7,-7
2748,25,-67,1001,-17,-19,-12
2749,104,-51,1005,-7,-16,-12
2750,82,-1,998,-4,2,-7
2751,7,39,1007,-11,16,-2
2752,-99,25,990,-20,21,1
2753,-127,-7,998,-25,8,-1
2754,-55,-59,990,-23,-10,-7
2755,42,-70,999,-11,-18,-12
2756,117,-33,1001,-4,-14,-11
2757,60,14,1007,-4,7,-5
2758,-18,40,998,-12,20,-1
2759,-114,17,997,-23,20,1
2760,-110,-26,980,-26,3,-4
2761,-39,-65,1003,-18,-14,-8
2762,67,-55,986,-9,-20,-12
2763,101,-29,1013,-3,-10,-10
2764,64,29,999,-4,8,-6
2765,-58,38,1009,-15,23,2
2766,-106,13,988,-22,16,0
2767,-112,-34,991,-26,0,-3
2768,2,-73,987,-18,-18,-10
2769,69,-60,1011,-7,-18,-12
2770,111,-13,999,-2,-6,-10
2771,31,26,1008,-7,15,-4
2772,-67,47,994,-16,22,2
2773,-123,1,995,-27,14,0
2774,-95,-47,987,-23,-4,-5
2775,13,-62,1002,-15,-19,-11
2776,98,-54,1001,-7,-18,-12
2777,91,1,1002,-2,-1,-9
2778,21,25,1004,-9,16,-5
2779,-102,35,992,-19,23,1
2780,-117,-3,995,-25,9,0
2781,-74,-54,995,-23,-9,-7
2782,39,-68,990,-12,-20,-12
2783,105,-39,1008,-3,-15,-12
2784,77,8,1004,-5,3,-7
2785,-4,36,994,-10,20,-3
2786,-107,26,1003,-21,21,2
2787,-124,-20,985,-26,6,-2
2788,-48,-69,995,-20,-12,-9
2789,56,-66,997,-10,-21,-10
2790,108,-23,1005,-1,-12,-9
2791,67,23,999,-3,8,-7
2792,-38,39,1012,-13,22,1
2793,-109,13,991,-23,19,1
2794,-117,-31,980,-23,3,-3
2795,-23,-59,1002,-18,-15,-9
2796,76,-60,998,-9,-21,-14
2797,100,-16,1001,-1,-6,-9
2798,52,25,1008,-7,11,-4
2799,-57,40,1001,-15,23,0
2800,-119,10,990,-24,16,1
2801,-111,-32,988,-27,-1,-4
2802,2,-77,996,-19,-18,-10
2803,90,-65,1002,-7,-18,-11
2804,96,2,1007,0,-3,-8
2805,38,38,1000,-8,14,-6
2806,-88,41,999,-20,25,0
2807,-124,-5,992,-28,12,0
2808,-82,-56,986,-24,-6,-6
2809,21,-69,1006,-13,-20,-11
2810,104,-45,1000,-5,-17,-13
2811,87,0,998,-1,1,-8
2812,3,37,1008,-9,18,-2
2813,-96,35,989,-22,22,1
2814,-125,-19,997,-26,9,-3
2815,-59,-49,993,-23,-11,-8
2816,45,-67,997,-14,-21,-12
2817,113,-33,1005,-4,-14,-13
2818,66,14,1000,-6,6,-5
2819,-19,39,1010,-12,20,-2
2820,-103,10,987,-23,19,0
2821,-125,-19,991,-23,4,-3
2822,-27,-63,997,-22,-16,-9
2823,56,-59,997,-10,-19,-12
2824,106,-14,997,-3,-11,-8
2825,63,21,1014,-6,7,-6
2826,-44,35,998,-16,21,1
2827,-119,9,990,-24,17,1
2828,-105,-29,991,-26,-1,-4
2829,-14,-69,991,-20,-17,-10
2830,82,-56,1000,-10,-19,-12
2831,101,-21,1013,-5,-6,-9
2832,46,33,992,-6,12,-4
2833,-66,41,1007,-18,22,0
2834,-116,1,993,-27,14,-1
2835,-104,-50,982,-26,-2,-5
2836,2,-76,1000,-16,-18,-11
2837,98,-55,1006,-4,-18,-12
2838,101,-2,994,0,0,-8
2839,26,35,1011,-8,17,-3
2840,-89,37,984,-19,24,1
2841,-139,-2,1002,-25,13,-1
2842,-80,-49,981,-24,-8,-7
2843,25,-73,1010,-13,-21,-11
2844,129,-43,995,-5,-18,-12
2845,89,4,1005,-3,4,-8
2846,-1,40,1011,-9,18,-3
2847,-112,41,988,-22,23,1
2848,-136,-17,994,-27,8,-2
2849,-55,-60,994,-23,-13,-9
2850,56,-76,994,-13,-23,-13
2851,119,-38,1002,-3,-14,-12
2852,76,22,1006,-4,7,-7
2853,-30,49,1010,-13,23,0
2854,-127,13,988,-25,22,3
2855,-125,-27,984,-26,3,-5
2856,-22,-77,999,-21,-17,-9
2857,75,-66,992,-9,-21,-13
2858,117,-9,1013,0,-9,-10
2859,52,29,1003,-7,11,-5
2860,-63,47,997,-17,23,0
2861,-121,8,996,-27,16,0
2862,-111,-41,981,-27,-1,-5
2863,1,-64,1003,-19,-19,-10
2864,100,-58,997,-11,-20,-13
2865,105,-12,1006,-5,-3,-10
2866,34,27,1003,-7,14,-5
2867,-88,38,997,-18,23,2
2868,-134,-5,981,-26,13,-1
2869,-96,-45,1001,-24,-8,-6
2870,31,-68,992,-15,-21,-13
2871,116,-48,1004,-5,-17,-12
2872,92,1,1008,-2,1,-7
2873,16,43,999,-10,19,-3
2874,-118,29,997,-24,25,3
2875,-137,-13,991,-28,8,-1
2876,-62,-77,989,-23,-11,-8
2877,47,-64,999,-10,-22,-13
2878,123,-23,1004,-4,-15,-11
2879,82,19,1005,-5,6,-7
2880,-28,44,1004,-14,22,2
2881,-113,7,996,-26,21,1
2882,-125,-36,981,-25,6,-4
2883,-39,-65,997,-18,-16,-8
2884,62,-49,996,-8,-22,-13
2885,123,-16,1006,-3,-13,-11
2886,64,25,1006,-7,10,-5
2887,-48,37,998,-16,24,1
2888,-120,4,995,-24,18,1
2889,-122,-40,982,-26,1,-4
2890,-16,-67,990,-15,-17,-11
2891,89,-47,1013,-7,-22,-15
2892,113,-2,1000,-5,-5,-9
2893,60,26,1005,-9,13,-4
2894,-84,30,997,-19,25,2
2895,-127,-4,992,-26,14,-1
2896,-112,-53,978,-25,-4,-7
2897,11,-67,1011,-14,-21,-11
2898,114,-45,993,-5,-19,-14
2899,98,5,1007,-3,-1,-8
2900,32,43,1002,-10,17,-2
2901,-102,36,1001,-23,25,2
2902,-136,-14,986,-28,11,1
2903,-82,-59,992,-25,-9,-8
2904,38,-82,997,-12,-23,-12
2905,114,-36,998,-1,-16,-12
2906,93,18,1006,-2,3,-9
2907,-8,49,1013,-9,20,-1
2908,-108,28,989,-24,22,2
2909,-138,-28,990,-29,8,-2
2910,-46,-71,996,-20,-15,-9
2911,54,-69,991,-9,-20,-13
2912,117,-18,1005,-2,-12,-11
2913,76,29,1009,-5,8,-8
2914,-39,37,1001,-17,23,-1
2915,-122,13,990,-24,19,-1
2916,-127,-45,989,-27,3,-4
2917,-20,-69,984,-20,-17,-10
2918,76,-58,1010,-9,-20,-12
2919,117,2,1006,-4,-8,-10
2920,59,26,1002,-9,13,-5
2921,-61,39,1005,-17,25,0
2922,-133,-5,987,-28,17,1
2923,-118,-43,984,-24,-2,-6
2924,-2,-81,997,-16,-21,-11
2925,104,-50,1000,-6,-22,-13
2926,120,-7,1009,-3,-3,-8
2927,41,42,1000,-7,16,-3
2928,-91,32,1000,-20,25,1
2929,-153,-1,985,-25,14,-1
2930,-96,-55,995,-25,-8,-7
2931,28,-71,995,-12,-22,-12
2932,123,-40,1000,-3,-19,-12
2933,110,10,1013,-4,0,-9
2934,8,39,1003,-11,21,-2
2935,-116,22,990,-22,26,2
2936,-155,-26,996,-26,10,-1
2937,-69,-57,983,-20,-14,-7
2938,45,-64,995,-13,-24,-13
2939,147,-33,1011,-3,-17,-14
2940,93,19,1001,-4,7,-7
2941,-21,51,1011,-13,24,1
2942,-142,12,989,-25,24,0
2943,-141,-32,980,-26,5,-4
2944,-48,-67,996,-20,-18,-8
2945,81,-62,989,-8,-24,-14
2946,140,-21,1024,0,-13,-11
2947,82,30,989,-6,11,-4
2948,-63,34,1011,-15,27,1
2949,-140,12,992,-23,19,2
2950,-142,-39,968,-27,0,-3
2951,-8,-72,1002,-16,-22,-11
2952,106,-63,1006,-5,-25,-13
2953,132,-3,1000,-1,-6,-10
2954,53,32,1016,-6,15,-5
2955,-87,44,992,-17,28,1
2956,-156,4,990,-25,19,1
2957,-117,-45,983,-25,-5,-5
2958,21,-76,1004,-16,-22,-12
2959,125,-57,1003,-5,-22,-12
2960,121,4,1002,-1,-1,-8
2961,27,30,1010,-8,19,-2
2962,-118,38,993,-19,27,3
2963,-147,-7,993,-25,11,-1
2964,-95,-49,986,-23,-9,-6
2965,47,-67,995,-13,-26,-13
2966,139,-38,1011,-3,-20,-14
2967,102,7,999,-4,3,-7
2968,-11,46,1014,-12,23,-2
2969,-122,22,991,-24,26,0
2970,-169,-22,982,-26,10,-1
2971,-43,-56,987,-22,-17,-9
2972,54,-74,1008,-11,-23,-13
2973,147,-17,996,-3,-16,-11
2974,91,9,1014,-6,10,-5
2975,-40,41,1005,-13,27,0
2976,-141,21,990,-23,24,2
2977,-149,-26,977,-27,4,-4
2978,-32,-61,1002,-21,-20,-10
2979,96,-66,987,-12,-25,-15
2980,143,-23,1027,-4,-11,-13
2981,80,16,992,-6,11,-7
2982,-77,40,1005,-14,29,2
2983,-147,1,988,-24,20,1
2984,-148,-37,980,-23,-1,-3
2985,3,-67,997,-16,-23,-10
2986,117,-52,1008,-6,-24,-13
2987,137,-7,1000,-4,-6,-9
2988,51,29,1013,-7,16,-4
2989,-106,42,991,-18,28,2
2990,-161,-9,990,-25,15,1
2991,-112,-44,983,-24,-10,-5
2992,30,-78,1000,-15,-26,-13
2993,141,-38,1001,-3,-23,-13
2994,117,5,1005,-3,1,-8
2995,17,41,1013,-9,21,-2
2996,-125,30,990,-24,29,4
2997,-161,-16,986,-27,12,-1
2998,-77,-63,992,-24,-13,-8
2999,58,-70,994,-12,-25,-13
3000,142,-35,1007,0,-17,-12
3001,108,15,1005,-3,6,-6
3002,-30,43,1017,-12,26,2
3003,-133,22,984,-24,25,1
3004,-160,-32,985,-26,7,-3
3005,-42,-62,987,-20,-18,-9
3006,72,-74,999,-10,-25,-13
3007,153,-14,1017,-1,-15,-12
3008,77,22,1002,-7,11,-4
3009,-49,52,1002,-13,27,-2
3010,-146,9,998,-26,22,2
3011,-145,-38,971,-27,1,-5
3012,-24,-71,999,-18,-20,-10
3013,108,-56,1006,-8,-26,-13
3014,137,-20,1002,-3,-8,-10
3015,70,27,1009,-3,14,-5
3016,-94,42,1001,-19,28,4
3017,-150,9,985,-23,18,-1
3018,-122,-50,987,-26,-4,-6
3019,0,-64,994,-15,-24,-10
3020,124,-42,1008,-5,-24,-14
3021,137,-10,1003,-4,-4,-10
3022,26,35,1011,-8,20,-1
3023,-103,38,988,-21,27,1
3024,-163,-11,1001,-27,15,0
3025,-99,-51,978,-23,-9,-5
3026,35,-66,1000,-14,-24,-13
3027,137,-45,1006,-3,-21,-13
3028,116,13,999,-4,1,-8
3029,-1,41,1016,-11,23,-2
3030,-123,27,994,-23,25,1
3031,-161,-26,977,-26,10,-2
3032,-66,-60,993,-22,-14,-9
3033,57,-70,994,-12,-26,-13
3034,147,-22,1014,-2,-16,-12
3035,105,9,998,-7,7,-6
3036,-34,42,1015,-12,28,-1
3037,-137,12,982,-24,25,2
3038,-164,-28,984,-29,5,-1
3039,-34,-61,980,-21,-20,-10
3040,88,-68,1019,-7,-25,-13
3041,152,-14,998,-3,-12,-12
3042,78,19,1014,-6,13,-5
3043,-66,44,995,-15,28,0
3044,-155,-2,993,-27,22,3
3045,-144,-34,979,-21,-1,-4
3046,-8,-67,1000,-16,-24,-10
3047,124,-47,1005,-6,-24,-13
3048,142,-10,1003,-2,-6,-8
3049,51,38,1005,-8,18,-5
3050,-99,36,998,-20,29,2
3051,-175,-8,987,-26,17,2
3052,-114,-54,982,-26,-9,-6
3053,23,-70,998,-13,-25,-13
3054,144,-37,1012,-5,-24,-14
3055,126,12,995,-2,-1,-8
3056,17,36,1026,-12,22,-3
3057,-126,31,980,-23,27,5
3058,-172,-15,989,-28,13,-1
3059,-70,-72,986,-22,-15,-8
3060,47,-67,999,-11,-25,-10
3061,154,-30,1002,-3,-20,-13
3062,105,21,1017,-2,7,-8
3063,-29,49,1006,-14,27,1
3064,-138,21,992,-27,25,1
3065,-158,-38,979,-29,7,-2
3066,-38,-64,992,-21,-18,-8
3067,87,-66,996,-10,-26,-14
3068,146,-25,1017,-3,-12,-13
3069,81,27,999,-7,10,-5
3070,-76,54,1000,-14,28,3
3071,-141,5,997,-26,20,1
3072,-142,-48,974,-27,0,-4
3073,-11,-69,998,-17,-22,-10
3074,119,-58,1007,-5,-25,-15
3075,120,-6,1002,-1,-5,-9
3076,57,38,1006,-7,14,-5
3077,-103,39,1003,-19,28,1
3078,-146,4,979,-25,15,0
3079,-100,-58,994,-26,-6,-6
3080,25,-75,997,-14,-23,-12
3081,122,-43,1001,-3,-21,-12
3082,103,7,1008,-3,0,-10
3083,10,41,1007,-8,18,-2
3084,-107,33,990,-22,25,1
3085,-144,-13,997,-28,12,-1
3086,-58,-61,983,-22,-11,-6
3087,36,-70,1002,-12,-21,-11
3088,123,-36,1001,-4,-16,-11
3089,84,7,1002,-3,5,-7
3090,-22,42,1011,-10,22,0
3091,-119,23,990,-22,22,2
3092,-129,-19,985,-26,6,-1
3093,-39,-71,990,-21,-14,-8
3094,66,-61,1000,-10,-22,-13
3095,118,-33,1004,-3,-12,-10
3096,61,27,1011,-2,9,-5
3097,-41,43,986,-14,22,0
3098,-133,11,1008,-24,19,0
3099,-108,-36,972,-27,-1,-4
3100,-18,-66,999,-16,-17,-9
3101,92,-59,1002,-9,-22,-13
3102,104,-15,1007,0,-6,-8
3103,47,31,997,-5,12,-4
3104,-92,45,1000,-17,23,2
3105,-115,3,991,-26,14,0
3106,-104,-47,985,-25,-4,-4
3107,23,-66,1001,-17,-20,-11
3108,107,-59,1005,-6,-20,-13
3109,89,0,993,-3,-2,-5
3110,8,38,1014,-9,16,-3
3111,-97,35,989,-20,21,1
3112,-128,-3,993,-27,8,0
3113,-58,-52,993,-24,-11,-9
3114,39,-71,1003,-14,-20,-12
3115,116,-44,992,-6,-15,-11
3116,73,11,1007,-3,6,-6
3117,-18,33,1006,-10,20,-1
3118,-110,27,988,-22,21,1
3119,-123,-23,990,-25,6,-1
3120,-34,-58,991,-20,-14,-8
3121,59,-66,1001,-12,-20,-12
3122,116,-20,999,-4,-11,-12
3123,58,14,1010,-6,9,-5
3124,-45,48,998,-16,22,-1
3125,-112,11,995,-24,16,1
3126,-123,-32,981,-26,1,-5
3127,-4,-70,996,-20,-18,-11
3128,75,-63,1002,-8,-20,-11
3129,109,-21,1005,-2,-6,-8
3130,42,31,1005,-5,12,-4
3131,-72,40,995,-16,22,2
3132,-123,11,996,-25,15,1
3133,-100,-44,982,-25,-4,-4
3134,11,-68,1005,-15,-20,-12
3135,102,-54,996,-6,-20,-11
3136,95,-4,1000,-3,-1,-9
3137,20,30,1011,-7,15,-2
3138,-96,44,985,-17,24,2
3139,-127,2,1001,-25,11,-1
3140,-73,-50,995,-24,-8,-6
3141,32,-67,989,-13,-21,-10
3142,114,-46,1009,-6,-17,-12
3143,79,3,1003,-4,2,-8
3144,-4,38,998,-10,19,-3
3145,-106,30,1000,-23,22,1
3146,-128,-12,988,-26,7,-2
3147,-48,-59,991,-23,-13,-8
3148,43,-73,1001,-14,-20,-12
3149,124,-31,1002,-2,-15,-12
3150,78,14,1006,-5,7,-7
3151,-29,41,1008,-11,23,-1
3152,-111,16,985,-21,21,1
3153,-148,-21,990,-25,5,-2
3154,-37,-63,986,-20,-19,-10
3155,79,-65,1006,-8,-24,-14
3156,124,-22,1008,-2,-10,-8
3157,75,37,1003,-7,10,-4
3158,-51,41,1000,-17,26,0
3159,-140,7,999,-25,19,2
3160,-123,-30,977,-26,-2,-4
3161,-12,-86,1000,-20,-19,-11
3162,100,-54,1001,-6,-23,-13
3163,120,-18,1000,-1,-6,-9
3164,37,41,1012,-4,14,-5
3165,-80,43,987,-18,24,2
3166,-144,16,1002,-23,15,-1
3167,-90,-54,987,-30,-7,-5
3168,15,-71,996,-16,-19,-12
3169,121,-56,1001,-7,-21,-12
3170,87,0,1005,-3,1,-8
3171,8,39,1004,-9,17,-3
3172,-105,34,996,-20,23,0
3173,-133,-3,992,-26,9,-1
3174,-57,-60,994,-23,-10,-8
3175,40,-65,996,-15,-21,-11
3176,121,-40,1002,-5,-15,-11
3177,78,12,1007,-6,6,-7
3178,-15,37,1003,-14,21,-2
3179,-115,19,1002,-21,21,-1
3180,-138,-25,976,-27,6,-2
3181,-36,-63,996,-20,-16,-9
3182,63,-64,995,-10,-23,-13
3183,121,-18,1013,-2,-11,-11
3184,75,21,994,-7,9,-5
3185,-48,45,1014,-14,24,1
3186,-125,8,985,-24,19,1
3187,-132,-38,987,-26,2,-4
3188,-13,-72,991,-16,-19,-10
3189,93,-63,1003,-7,-21,-13
3190,115,-16,1006,0,-6,-10
3191,51,36,1003,-5,13,-4
3192,-87,43,1001,-18,25,1
3193,-124,13,987,-26,14,0
3194,-103,-42,996,-26,-4,-4
3195,16,-80,990,-19,-20,-12
3196,113,-60,1009,-6,-19,-13
3197,93,-3,999,-2,0,-7
3198,15,41,1001,-9,16,-3
3199,-100,33,998,-19,24,1
3200,-137,-4,990,-26,10,-1
3201,-62,-54,995,-23,-11,-8
3202,38,-77,996,-13,-21,-12
3203,114,-43,1002,-5,-16,-10
3204,83,13,1005,-3,4,-7
3205,-26,39,1001,-9,21,-1
3206,-107,28,993,-21,21,0
3207,-126,-23,993,-25,6,-3
3208,-36,-52,986,-20,-15,-8
3209,57,-73,1004,-10,-19,-12
3210,112,-30,1002,-2,-11,-9
3211,60,22,1002,-5,9,-5
3212,-43,51,1009,-15,22,-2
3213,-115,16,992,-24,19,2
3214,-113,-23,988,-26,1,-4
3215,-7,-71,988,-22,-17,-12
3216,76,-62,1013,-8,-18,-12
3217,107,-21,993,-5,-6,-10
3218,31,28,1015,-6,13,-5
3219,-66,38,988,-17,21,1
3220,-124,12,999,-26,14,0
3221,-91,-46,984,-26,-4,-6
3222,8,-64,1006,-17,-18,-10
3223,98,-58,999,-7,-19,-13
3224,87,0,1005,-1,-2,-8
3225,24,33,1001,-9,15,-3
3226,-101,38,991,-19,23,1
3227,-122,-2,1000,-26,9,-1
3228,-64,-63,986,-26,-9,-8
3229,26,-68,998,-15,-19,-10
3230,120,-46,1005,-6,-17,-12
3231,69,1,1002,-4,5,-7
3232,7,37,1001,-9,19,-2
3233,-111,24,1000,-20,23,0
3234,-131,-12,985,-26,7,-2
3235,-50,-53,997,-20,-14,-8
3236,49,-61,995,-13,-20,-12
3237,122,-33,1000,-3,-14,-12
3238,79,19,1014,-3,7,-6
3239,-34,43,995,-14,22,0
3240,-118,18,1000,-24,20,0
3241,-129,-34,981,-28,3,-4
3242,-28,-67,991,-18,-16,-9
3243,75,-62,1004,-9,-22,-13
3244,119,-23,1004,-2,-10,-10
3245,61,30,1004,-6,11,-5
3246,-61,32,996,-16,24,-2
3247,-128,13,994,-23,17,0
3248,-117,-38,980,-25,-2,-4
3249,-1,-65,1001,-16,-20,-12
3250,95,-62,1001,-8,-20,-13
3251,113,-2,1001,-1,-4,-11
3252,38,34,1012,-8,15,-3
3253,-83,36,989,-20,25,-1
3254,-134,0,1001,-27,13,0
3255,-100,-48,983,-28,-6,-5
3256,20,-73,1001,-16,-21,-12
3257,122,-50,1003,-6,-19,-13
3258,98,2,998,-3,1,-7
3259,19,37,1013,-7,19,-4
3260,-105,27,987,-21,25,1
3261,-149,-6,995,-25,13,-1
3262,-74,-56,984,-22,-11,-7
3263,44,-75,1002,-11,-23,-12
3264,130,-37,995,-5,-16,-11
3265,93,10,1013,-3,5,-6
3266,-4,35,1004,-11,22,0
3267,-129,31,993,-21,25,2
3268,-144,-16,981,-25,7,-3
3269,-53,-61,992,-22,-15,-9
3270,70,-70,998,-11,-25,-12
3271,129,-25,1007,-2,-14,-10
3272,81,24,1007,-4,9,-6
3273,-43,42,1000,-13,25,-1
3274,-132,15,994,-24,20,2
3275,-140,-30,979,-26,0,-4
3276,-17,-64,995,-19,-19,-11
3277,92,-70,1002,-9,-23,-12
3278,122,-12,1006,-3,-8,-9
3279,59,26,1000,-6,12,-5
3280,-78,45,1001,-16,26,1
3281,-135,3,989,-24,17,-1
3282,-116,-48,987,-26,-3,-4
3283,10,-64,1002,-15,-21,-12
3284,117,-60,1001,-7,-22,-12
3285,102,0,1002,-1,-4,-7
3286,22,40,1010,-8,15,-2
3287,-102,38,992,-19,24,0
3288,-139,-6,998,-26,11,-1
3289,-68,-55,988,-25,-10,-8
3290,40,-80,996,-14,-21,-11
3291,116,-44,1003,-2,-16,-12
3292,80,17,1003,-2,3,-8
3293,-21,50,1006,-11,20,0
3294,-110,37,999,-23,22,1
3295,-131,-27,983,-30,7,-2
3296,-34,-65,991,-23,-14,-9
3297,67,-85,1003,-13,-20,-13
3298,106,-27,999,-1,-10,-11
3299,62,27,1006,-5,8,-5
3300,-50,46,1004,-15,22,0
3301,-118,19,992,-25,17,0
3302,-111,-28,984,-27,1,-5
3303,-1,-70,996,-19,-17,-12
3304,82,-66,1004,-9,-20,-13
3305,106,-15,1005,-3,-5,-10
3306,39,24,1003,-6,13,-5
3307,-76,44,992,-17,24,1
3308,-126,3,998,-25,15,-2
3309,-86,-41,986,-26,-6,-6
3310,8,-70,1006,-17,-18,-12
3311,110,-52,1002,-7,-18,-14
3312,82,-9,995,-4,0,-8
3313,22,35,1008,-8,16,-3
3314,-102,32,993,-20,24,2
3315,-123,-1,992,-24,10,-2
3316,-65,-55,994,-23,-9,-7
3317,37,-66,999,-13,-20,-12
3318,112,-48,998,-5,-16,-12
3319,75,11,1006,-4,5,-8
3320,-8,39,1002,-10,20,-2
3321,-113,24,994,-21,22,0
3322,-119,-14,987,-27,6,-2
3323,-44,-61,995,-21,-12,-8
3324,64,-67,997,-11,-19,-14
3325,107,-34,1005,-4,-12,-11
3326,67,17,999,-5,7,-8
3327,-44,35,1014,-11,22,-2
3328,-116,23,981,-21,17,1
3329,-116,-27,991,-25,3,-4
3330,-22,-64,993,-19,-17,-9
3331,63,-55,1000,-9,-20,-10
3332,120,-20,1008,-5,-8,-11
3333,67,15,1003,-7,11,-5
3334,-63,36,998,-13,25,2
3335,-123,8,994,-23,18,-1
3336,-129,-38,983,-26,0,-3
3337,-15,-61,995,-17,-20,-8
3338,98,-54,1007,-9,-22,-14
3339,131,-15,1000,-4,-7,-10
3340,50,27,1010,-7,15,-4
3341,-83,38,994,-19,27,0
3342,-151,0,992,-25,16,-1
3343,-120,-43,983,-25,-6,-6
3344,9,-66,994,-15,-23,-12
3345,127,-50,1005,-6,-23,-13
3346,125,0,1007,-3,-2,-8
3347,35,31,1007,-7,21,-3
3348,-113,33,993,-20,29,2
3349,-164,-5,988,-27,14,-1
3350,-100,-56,983,-24,-12,-7
3351,38,-73,1000,-14,-26,-11
3352,148,-44,1006,-3,-20,-13
3353,118,14,1003,-1,4,-7
3354,-2,42,1024,-11,24,0
3355,-130,29,982,-24,27,2
3356,-170,-24,980,-27,10,1
3357,-62,-61,990,-21,-16,-9
3358,67,-71,1001,-11,-27,-13
3359,144,-28,1009,-2,-17,-11
3360,108,19,1006,-5,6,-7
3361,-44,46,1004,-13,27,2
3362,-146,26,996,-25,23,2
3363,-151,-39,969,-28,4,-3
3364,-41,-70,1005,-17,-19,-10
3365,104,-61,995,-10,-27,-13
3366,140,-17,1014,-2,-11,-12
3367,76,28,1006,-7,13,-4
3368,-81,46,997,-20,31,3
3369,-150,1,995,-25,20,0
3370,-130,-44,985,-25,-3,-4
3371,-1,-72,995,-18,-22,-12
3372,116,-56,1010,-5,-25,-14
3373,130,-8,998,-2,-5,-10
3374,37,35,1008,-8,18,-3
3375,-105,43,995,-21,24,2
3376,-153,-4,992,-20,10,-4
3377,-93,-57,984,-28,-11,-6
3378,24,-67,999,-10,-24,-11
3379,136,-45,1001,-5,-21,-14
3380,109,2,1009,-1,1,-8
3381,0,44,1009,-6,20,0
3382,-118,26,994,-22,26,2
3383,-142,-19,983,-24,11,-3
3384,-63,-61,991,-21,-13,-6
3385,52,-60,997,-8,-24,-12
3386,129,-28,1012,-2,-15,-11
3387,91,18,1002,-6,6,-6
3388,-36,38,1009,-14,24,0
3389,-121,17,983,-22,22,1
3390,-145,-27,993,-26,5,-2
3391,-22,-69,986,-19,-18,-10
3392,70,-61,1004,-8,-22,-12
3393,129,-13,1009,-2,-12,-11
3394,61,25,1004,-5,10,-6
3395,-69,45,993,-16,25,2
3396,-131,7,999,-26,16,1
3397,-103,-43,982,-28,-3,-4
3398,-1,-81,1003,-19,-18,-10
3399,107,-53,999,-6,-21,-13
3400,97,-5,1010,-3,-3,-8
3401,29,39,997,-7,14,-4
3402,-102,41,997,-21,23,1
3403,-127,-4,997,-27,11,-2
3404,-76,-49,990,-27,-8,-6
3405,35,-77,991,-15,-21,-11
3406,112,-40,1012,-4,-18,-12
3407,77,4,989,-4,2,-6
3408,-10,43,1020,-9,18,-3
3409,-105,28,982,-23,21,1
3410,-130,-8,994,-27,7,-1
3411,-27,-70,987,-23,-14,-9
3412,46,-71,1003,-12,-18,-10
3413,119,-33,997,-3,-13,-11
3414,60,17,1010,-4,6,-6
3415,-40,46,999,-14,20,0
3416,-114,12,995,-23,18,0
3417,-116,-25,986,-26,2,-4
3418,-12,-68,991,-20,-17,-9
3419,79,-55,1006,-8,-19,-13
3420,103,-20,1008,-5,-7,-9
3421,44,27,997,-6,12,-5
3422,-64,37,1004,-16,23,1
3423,-129,7,989,-24,16,1
3424,-89,-38,989,-26,-3,-6
3425,6,-73,1002,-16,-19,-11
3426,100,-44,1003,-6,-19,-10
3427,98,-11,994,-4,-2,-9
3428,13,32,1013,-8,17,-3
3429,-89,38,984,-18,22,1
3430,-129,-2,1001,-22,11,-2
3431,-71,-51,987,-25,-8,-5
3432,35,-73,1002,-13,-20,-12
3433,104,-47,998,-4,-17,-11
3434,85,5,1003,-4,1,-7
3435,-9,38,1009,-9,17,-2
3436,-105,31,988,-21,20,1
3437,-123,-9,995,-25,7,-3
3438,-50,-58,994,-21,-12,-7
3439,56,-70,996,-13,-20,-12
3440,109,-38,1005,-2,-12,-11
3441,70,19,1003,-2,6,-6
3442,-36,42,1006,-13,22,-1
3443,-116,19,992,-22,19,1
3444,-116,-22,990,-26,2,-3
3445,-16,-64,986,-22,-16,-9
3446,71,-64,1010,-8,-19,-11
3447,108,-25,999,-2,-7,-11
3448,56,23,1004,-5,11,-5
3449,-61,36,995,-12,23,2
3450,-116,18,1001,-23,16,-1
3451,-109,-34,980,-23,-1,-3
3452,0,-61,1000,-16,-18,-11
3453,97,-66,1005,-9,-21,-12
3454,100,-8,1003,-2,-2,-8
3455,34,23,1000,-7,15,-3
3456,-85,41,998,-18,24,-1
3457,-127,4,986,-25,12,0
3458,-91,-42,998,-23,-6,-6
3459,22,-69,995,-15,-21,-12
3460,106,-50,1001,-6,-18,-12
3461,91,0,1006,-5,2,-7
3462,6,32,1000,-10,18,-4
3463,-102,32,993,-19,23,0
3464,-134,-9,998,-25,10,-2
3465,-51,-53,984,-23,-12,-7
3466,38,-71,1005,-13,-21,-11
3467,116,-39,994,-4,-16,-11
3468,72,15,1012,-3,5,-7
3469,-20,34,1004,-13,20,0
3470,-114,30,992,-22,20,0
3471,-119,-22,988,-27,5,-3
3472,-34,-64,993,-22,-15,-7
3473,60,-62,1000,-10,-21,-13
3474,118,-29,1007,-3,-11,-11
3475,61,19,1008,-4,9,-6
3476,-44,51,999,-14,23,-1
3477,-122,16,997,-24,18,1
3478,-117,-32,975,-29,0,-4
3479,-9,-68,1004,-19,-17,-12
3480,85,-62,1000,-10,-21,-12
3481,106,-20,1002,-4,-5,-7
3482,44,29,1006,-6,12,-4
3483,-73,41,995,-16,23,1
3484,-122,10,985,-25,15,0
3485,-104,-40,1001,-26,-5,-3
3486,16,-71,993,-18,-21,-11
3487,102,-59,1000,-8,-18,-11
3488,91,-1,1009,-1,-2,-8
3489,26,25,996,-9,15,-3
3490,-109,41,1001,-18,24,3
3491,-125,0,988,-25,9,-1
3492,-69,-49,994,-24,-9,-8
3493,38,-68,995,-15,-22,-10
3494,112,-41,1006,-6,-16,-10
3495,81,10,1000,-6,4,-8
3496,-13,42,1011,-11,19,-1
3497,-110,31,986,-24,21,1
3498,-126,-18,994,-28,6,-4
3499,-38,-62,991,-22,-13,-8
3500,56,-73,995,-14,-20,-12
3501,115,-31,1006,-4,-12,-12
3502,76,15,1004,-7,8,-7
3503,-32,37,1004,-14,23,-1
3504,-120,15,995,-20,22,1
3505,-137,-19,980,-26,4,-3
3506,-32,-65,992,-18,-17,-9
3507,72,-57,1003,-11,-23,-13
3508,128,-28,1006,-4,-10,-10
3509,73,26,1006,-3,11,-7
3510,-62,39,995,-16,25,3
3511,-128,14,999,-24,19,-1
3512,-135,-37,981,-26,0,-4
3513,-8,-63,1000,-19,-20,-10
3514,106,-64,1003,-10,-23,-14
3515,124,-6,1005,-2,-6,-9
3516,44,31,1008,-9,15,-4
3517,-91,35,987,-18,26,-1
3518,-140,2,999,-24,15,0
3519,-101,-55,986,-26,-6,-5
3520,20,-77,992,-14,-23,-12
3521,125,-47,1010,-4,-20,-13
3522,91,3,1003,-3,2,-7
3523,15,46,1001,-9,19,-2
3524,-114,27,1004,-21,24,2
3525,-131,-7,989,-25,9,0
3526,-48,-68,981,-23,-11,-8
3527,38,-66,1008,-10,-21,-12
3528,127,-34,999,-1,-15,-13
3529,71,13,1003,-2,8,-6
3530,-35,48,1006,-13,20,-1
3531,-110,19,994,-21,18,0
3532,-125,-26,982,-26,4,-3
3533,-19,-64,994,-20,-15,-7
3534,72,-61,1006,-8,-19,-14
3535,105,-27,1002,-3,-9,-9
3536,50,22,1006,-4,9,-5
3537,-60,37,995,-14,23,0
3538,-122,17,995,-22,17,1
3539,-102,-30,986,-25,-2,-4
3540,0,-64,1000,-17,-18,-10
3541,96,-54,1001,-9,-19,-12
3542,97,-20,1004,-4,-4,-9
3543,27,28,1002,-6,13,-4
3544,-82,38,995,-16,22,0
3545,-124,8,992,-23,12,-2
3546,-81,-45,996,-25,-7,-6
3547,23,-63,996,-16,-19,-11
3548,104,-56,1000,-8,-18,-11
3549,86,5,1004,-3,0,-6
3550,0,26,1006,-10,17,0
3551,-102,37,991,-18,21,2
3552,-120,-11,997,-24,8,-1
3553,-57,-56,990,-21,-12,-8
3554,43,-63,998,-14,-20,-11
3555,118,-35,1005,-5,-14,-12
3556,70,7,1001,-5,6,-6
3557,-22,44,1009,-12,20,0
3558,-112,20,993,-22,19,1
3559,-122,-18,983,-27,5,-3
3560,-30,-64,995,-22,-13,-8
3561,60,-62,994,-9,-19,-11
3562,112,-29,1008,-3,-10,-10
3563,59,24,1005,-5,9,-6
3564,-55,44,992,-13,23,1
3565,-119,15,1005,-22,19,-1
3566,-113,-37,974,-26,0,-4
3567,-9,-60,1002,-15,-17,-10
3568,95,-63,1003,-10,-20,-12
3569,97,-10,1003,-3,-5,-7
3570,43,24,999,-7,12,-5
3571,-85,43,996,-17,24,0
3572,-128,0,991,-26,13,1
3573,-95,-35,991,-26,-7,-6
3574,25,-72,999,-18,-20,-12
3575,101,-46,1002,-8,-18,-11
3576,90,-2,1005,-7,0,-7
3577,10,37,1004,-10,18,-4
3578,-107,31,991,-22,22,2
3579,-122,-6,995,-27,7,-3
3580,-70,-61,992,-24,-10,-6
3581,43,-62,997,-13,-22,-12
3582,118,-45,1003,-7,-14,-12
3583,75,11,1007,-4,5,-7
3584,-16,43,1004,-13,21,0
3585,-115,27,992,-24,21,-1
3586,-125,-20,989,-28,4,-4
3587,-28,-62,991,-22,-15,-10
3588,58,-68,996,-12,-20,-12
3589,116,-29,1008,-4,-11,-10
3590,58,20,1002,-5,9,-6
3591,-57,44,997,-14,23,1
3592,-113,17,999,-23,17,1
3593,-115,-34,981,-27,0,-3
3594,-8,-62,994,-19,-16,-10
3595,90,-65,1010,-10,-19,-14
3596,104,-15,997,-3,-4,-8
3597,40,29,1002,-6,13,-4
3598,-75,38,1001,-17,22,-1
3599,-122,5,987,-25,15,0
3600,-95,-44,991,-24,-5,-6
3601,16,-72,999,-16,-19,-12
3602,106,-49,1003,-6,-18,-13
3603,93,-1,997,-2,-1,-8
3604,15,31,1011,-9,16,-3
3605,-100,39,989,-19,23,2
3606,-126,-4,1000,-25,10,-1
3607,-66,-48,992,-23,-9,-6
3608,36,-77,995,-13,-21,-12
3609,112,-39,1002,-4,-16,-12
3610,72,4,998,-4,4,-6
3611,-15,40,1008,-10,20,-2
3612,-108,27,995,-22,21,1
3613,-121,-15,987,-25,6,-2
3614,-38,-66,995,-21,-13,-8
3615,58,-68,995,-11,-21,-11
3616,109,-34,1006,-2,-11,-10
3617,62,22,1002,-4,9,-7
3618,-38,39,1004,-13,22,-1
3619,-115,26,992,-22,18,1
3620,-115,-31,986,-26,2,-2
3621,-16,-73,992,-20,-15,-10
3622,77,-58,1005,-6,-19,-11
3623,110,-21,1004,-3,-6,-9
3624,47,27,1003,-3,13,-6
3625,-66,46,997,-14,24,1
3626,-126,10,993,-26,18,0
3627,-100,-36,985,-25,-3,-6
3628,8,-66,1004,-19,-19,-10
3629,92,-59,999,-9,-19,-13
3630,104,-13,999,-3,-2,-8
3631,27,31,1010,-7,16,-4
3632,-94,42,984,-17,24,1
3633,-126,8,1001,-24,11,-2
3634,-72,-50,993,-26,-9,-6
3635,20,-69,985,-14,-19,-9
3636,115,-46,1014,-5,-16,-12
3637,83,-7,999,-5,1,-8
3638,-4,47,1000,-8,18,-1
3639,-99,24,995,-20,22,-1
3640,-135,-6,993,-24,9,-2
3641,-43,-61,980,-23,-13,-7
3642,41,-65,1008,-13,-21,-13
3643,122,-33,996,-4,-14,-11
3644,66,11,1004,-6,7,-7
3645,-33,46,1004,-13,19,0
3646,-111,15,994,-25,18,0
3647,-123,-20,984,-26,4,-3
3648,-24,-68,989,-22,-16,-9
3649,67,-67,1006,-11,-21,-14
3650,110,-26,1001,-3,-10,-10
3651,61,32,1007,-5,9,-6
3652,-55,35,994,-15,24,-1
3653,-121,11,1005,-24,18,2
3654,-113,-41,975,-24,-1,-5
3655,-14,-65,1001,-17,-17,-10
3656,97,-58,1002,-7,-21,-12
3657,104,-5,999,-3,-5,-9
3658,48,26,1003,-8,13,-5
3659,-74,33,1006,-16,25,0
3660,-137,2,984,-25,15,2
3661,-99,-46,1000,-24,-5,-7
3662,12,-61,989,-16,-21,-12
3663,111,-42,1010,-7,-19,-11
3664,105,4,993,-4,-1,-9
3665,15,29,1015,-9,18,-3
3666,-89,24,994,-20,24,0
3667,-149,-11,990,-27,13,0
3668,-73,-57,984,-22,-11,-7
3669,34,-63,1008,-14,-21,-13
3670,122,-37,988,-4,-18,-11
3671,99,22,1013,-3,3,-8
3672,-7,31,1007,-13,22,0
3673,-123,22,995,-22,24,2
3674,-136,-25,979,-28,6,-2
3675,-56,-68,998,-21,-15,-9
3676,65,-65,991,-10,-25,-12
3677,122,-21,1015,-2,-14,-11
3678,94,25,1000,-6,7,-7
3679,-50,37,1005,-14,26,2
3680,-128,15,993,-22,21,2
3681,-146,-38,980,-25,3,-3
3682,-18,-63,993,-15,-20,-11
3683,92,-64,1010,-8,-24,-14
3684,127,-5,1000,-1,-9,-11
3685,71,23,1004,-7,12,-5
3686,-79,44,1003,-17,27,1
3687,-146,6,987,-27,18,2
3688,-115,-48,985,-24,-3,-4
3689,6,-73,1005,-16,-22,-10
3690,119,-50,991,-5,-23,-14
3691,114,-2,1012,-2,-3,-9
3692,35,37,1006,-8,16,-4
3693,-102,31,989,-19,27,2
3694,-155,0,999,-25,15,-1
3695,-82,-54,983,-25,-8,-6
3696,32,-67,996,-14,-21,-11
3697,129,-40,1003,-6,-20,-12
3698,97,8,1004,-4,3,-9
3699,0,37,1011,-10,20,-3
3700,-119,23,988,-22,23,3
3701,-143,-18,992,-26,9,-3
3702,-53,-60,986,-19,-13,-7
3703,56,-61,998,-10,-22,-12
3704,125,-28,1006,-4,-17,-11
3705,88,24,1004,-5,5,-6
3706,-30,29,1007,-15,24,0
3707,-132,18,993,-22,22,2
3708,-127,-32,982,-26,5,-3
3709,-38,-70,988,-18,-16,-9
3710,84,-52,1007,-12,-25,-12
3711,125,-15,1002,-4,-9,-10
3712,60,30,1004,-7,11,-5
3713,-62,40,996,-18,25,0
3714,-136,3,1000,-24,19,1
3715,-123,-44,974,-24,-1,-4
3716,0,-67,1006,-16,-18,-12
3717,105,-56,1007,-6,-22,-13
3718,116,2,990,-1,-5,-8
3719,38,33,1017,-8,16,-3
3720,-93,36,992,-18,25,2
3721,-143,0,995,-25,14,0
3722,-90,-53,983,-26,-7,-7
3723,19,-71,1000,-14,-22,-10
3724,121,-42,1002,-5,-21,-13
3725,101,9,1000,-5,0,-8
3726,4,36,1011,-9,19,-1
3727,-105,30,992,-22,24,1
3728,-142,-17,990,-28,11,-1
3729,-64,-55,984,-22,-12,-7
3730,51,-71,1003,-13,-23,-13
3731,116,-30,1000,-3,-17,-12
3732,87,16,1006,-5,4,-7
3733,-19,43,1005,-14,22,-1
3734,-119,19,999,-23,22,2
3735,-131,-27,981,-26,5,-2
3736,-41,-72,991,-21,-15,-10
3737,70,-65,1006,-10,-23,-13
3738,120,-20,1008,-2,-12,-11
3739,68,25,997,-5,9,-7
3740,-55,51,1007,-16,22,2
3741,-118,8,990,-27,19,0
3742,-123,-43,984,-28,1,-5
3743,-8,-70,999,-18,-18,-10
3744,101,-56,1003,-7,-21,-15
3745,101,-17,998,-5,-5,-7
3746,44,42,1007,-5,14,-5
3747,-79,34,993,-19,25,2
3748,-135,7,995,-26,14,1
3749,-88,-51,992,-27,-7,-6
3750,15,-75,992,-15,-18,-13
3751,112,-51,1004,-5,-20,-11
3752,91,12,1004,-1,-1,-9
3753,11,37,1005,-11,17,-2
3754,-104,35,995,-20,25,2
3755,-127,-11,990,-28,11,-1
3756,-68,-63,989,-23,-9,-7
3757,39,-70,998,-13,-21,-12
3758,116,-41,1000,-5,-15,-12
3759,80,21,1008,-4,5,-6
3760,-17,45,1009,-14,21,-1
3761,-106,18,993,-23,22,-1
3762,-138,-25,985,-26,8,0
3763,-35,-59,985,-21,-14,-10
3764,59,-70,1008,-11,-20,-13
3765,127,-18,997,-2,-11,-8
3766,55,20,1007,-6,11,-5
3767,-39,41,998,-14,21,-1
3768,-125,6,998,-26,17,3
3769,-117,-37,977,-24,1,-4
3770,-15,-75,1002,-17,-17,-10
3771,92,-54,1000,-6,-22,-13
3772,105,-12,999,-1,-6,-9
3773,43,36,1009,-5,12,-4
3774,-77,44,994,-18,23,0
3775,-129,5,996,-23,15,0
3776,-92,-47,986,-26,-5,-5
3777,25,-74,999,-15,-20,-11
3778,102,-55,1000,-4,-18,-13
3779,90,-3,1002,-2,0,-8
3780,9,40,1006,-8,19,-3
3781,-100,32,992,-19,24,2
3782,-130,-3,997,-25,10,-1
3783,-54,-56,986,-21,-10,-8
3784,40,-71,1004,-12,-20,-12
3785,122,-37,995,-4,-15,-12
3786,60,10,1008,-1,6,-6
3787,-17,42,1005,-12,20,-1
3788,-120,18,993,-21,21,2
3789,-111,-17,985,-24,4,-4
3790,-36,-64,1000,-22,-13,-8
3791,67,-56,992,-10,-21,-12
3792,106,-29,1015,-5,-11,-9
3793,56,19,994,-7,10,-5
3794,-53,37,1002,-13,22,1
3795,-120,7,992,-22,17,0
3796,-107,-32,987,-24,0,-3
3797,-4,-63,992,-17,-16,-11
3798,82,-52,1015,-11,-20,-13
3799,110,-14,992,-5,-6,-9
3800,31,28,1009,-6,13,-5
3801,-82,39,990,-18,23,2
3802,-118,10,999,-23,13,-2
3803,-92,-49,984,-26,-5,-5
3804,17,-64,1003,-17,-19,-12
3805,108,-62,1001,-6,-19,-13
3806,86,0,997,-2,2,-8
3807,10,30,1008,-8,17,-4
3808,-97,38,988,-19,23,0
3809,-125,1,999,-27,10,-2
3810,-53,-49,988,-23,-10,-8
3811,33,-66,997,-15,-18,-11
3812,120,-43,1006,-5,-15,-12
3813,62,0,993,-5,6,-8
3814,-13,34,1014,-11,19,-3
3815,-115,21,991,-20,20,1
3816,-113,-14,979,-25,5,-3
3817,-30,-60,1003,-23,-13,-8
3818,59,-55,992,-12,-20,-13
3819,112,-31,1004,-6,-9,-10
3820,59,19,1011,-7,9,-6
3821,-54,24,991,-17,22,1
3822,-116,15,1002,-22,17,0
3823,-109,-45,980,-26,2,-4
3824,-9,-59,995,-15,-16,-11
3825,95,-62,1009,-8,-19,-14
3826,92,-6,1003,-1,-2,-9
3827,41,30,1000,-6,12,-3
3828,-82,32,995,-18,23,0
3829,-126,4,994,-24,13,0
3830,-84,-44,988,-23,-6,-7
3831,14,-71,999,-17,-19,-11
3832,113,-51,1004,-7,-19,-12
3833,90,0,1002,-3,1,-7
3834,8,38,1002,-10,17,-2
3835,-97,41,997,-20,22,1
3836,-132,-11,993,-26,9,-1
3837,-57,-55,993,-23,-10,-7
3838,39,-72,998,-13,-18,-12
3839,119,-41,1001,-3,-14,-12
3840,61,11,1005,-5,7,-7
3841,-12,33,1000,-11,20,-1
3842,-116,25,1005,-20,20,1
3843,-114,-16,973,-26,5,-3
3844,-36,-60,1008,-19,-13,-9
3845,62,-59,989,-11,-19,-13
3846,103,-31,1009,-4,-10,-11
3847,70,11,1002,-5,8,-6
3848,-60,39,1001,-13,23,2
3849,-109,18,994,-22,18,-1
3850,-120,-33,987,-27,1,-4
3851,-7,-53,986,-18,-17,-9
3852,70,-62,1014,-10,-20,-12
3853,110,-14,1001,-4,-8,-10
3854,51,24,1010,-5,11,-4
3855,-65,38,993,-16,23,0
3856,-125,1,994,-24,15,-1
3857,-105,-40,980,-23,-3,-5
3858,-9,-65,1007,-16,-20,-10
3859,113,-46,998,-7,-23,-13
3860,106,-19,1005,-3,-2,-8
3861,40,39,1009,-7,17,-3
3862,-91,36,988,-18,26,0
3863,-143,7,1000,-24,14,-1
3864,-92,-46,984,-26,-9,-5
3865,28,-71,1000,-15,-21,-13
3866,114,-54,1000,-7,-20,-11
3867,102,0,1005,-3,1,-10
3868,6,31,1004,-8,20,-3
3869,-116,36,997,-19,24,2
3870,-131,-9,988,-26,9,-3
3871,-61,-60,988,-23,-12,-7
3872,49,-65,1001,-13,-22,-11
3873,120,-40,1002,-3,-16,-13
3874,73,13,1008,-4,6,-7
3875,-30,42,1001,-12,21,0
3876,-117,19,996,-22,22,-1
3877,-124,-25,982,-27,6,-3
3878,-34,-57,988,-21,-15,-7
3879,72,-63,1009,-12,-22,-12
3880,121,-24,1009,-5,-10,-10
3881,62,14,998,-4,11,-5
3882,-57,43,1002,-14,24,-1
3883,-129,13,991,-24,18,0
3884,-120,-35,980,-26,-1,-4
3885,-3,-65,1005,-18,-18,-9
3886,96,-52,996,-8,-19,-12
3887,116,-21,1007,-2,-5,-9
3888,39,23,1000,-7,15,-3
3889,-89,39,998,-16,25,1
3890,-134,5,991,-23,14,-2
3891,-99,-49,993,-25,-5,-4
3892,23,-68,988,-15,-21,-11
3893,119,-48,1011,-5,-19,-12
3894,97,-2,998,-2,0,-7
3895,4,45,1006,-7,19,-2
3896,-109,30,998,-21,23,3
3897,-141,-10,985,-26,10,-1
3898,-55,-62,992,-22,-12,-7
3899,48,-65,1005,-11,-20,-11
3900,117,-35,994,-3,-16,-12
3901,76,13,1013,-3,5,-7
3902,-30,45,999,-11,21,-1
3903,-114,17,996,-21,20,-1
3904,-122,-22,983,-24,4,-2
3905,-29,-58,990,-20,-14,-9
3906,67,-72,1007,-10,-21,-13
3907,106,-23,998,-3,-11,-10
3908,63,21,1014,-5,9,-5
3909,-58,42,992,-14,22,0
3910,-119,15,998,-23,17,1
3911,-107,-22,987,-25,-2,-5
3912,-10,-68,994,-20,-17,-10
3913,94,-54,1009,-8,-21,-13
3914,97,-20,998,-6,-5,-9
3915,36,29,1009,-5,15,-6
3916,-77,37,992,-18,23,0
3917,-130,0,993,-22,14,-1
3918,-85,-40,992,-24,-5,-5
3919,18,-69,1000,-16,-18,-11
3920,104,-53,996,-6,-19,-13
3921,94,2,1009,-3,-1,-8
3922,7,35,1003,-8,17,-3
3923,-101,31,988,-21,23,3
3924,-126,-7,1000,-24,10,0
3925,-55,-53,987,-22,-10,-7
3926,38,-67,997,-13,-20,-10
3927,110,-40,1004,-4,-14,-14
3928,76,11,1001,-4,6,-7
3929,-23,38,1007,-10,22,-2
3930,-115,21,987,-22,21,0
3931,-110,-18,994,-24,5,-4
3932,-38,-63,985,-24,-13,-8
3933,62,-62,1008,-11,-20,-13
3934,102,-28,1000,-3,-9,-10
3935,57,22,1008,-7,9,-6
3936,-47,34,994,-13,23,0
3937,-115,16,1001,-23,17,0
3938,-110,-34,977,-27,-1,-3
3939,-13,-62,996,-17,-17,-9
3940,80,-51,1011,-10,-19,-11
3941,107,-16,999,-4,-5,-9
3942,35,26,1006,-8,13,-4
3943,-65,39,997,-17,21,1
3944,-123,-1,990,-25,15,-1
3945,-97,-39,990,-24,-4,-5
3946,15,-67,997,-18,-18,-12
3947,99,-51,1002,-7,-19,-12
3948,95,0,999,-3,-1,-8
3949,18,30,1009,-10,16,-3
3950,-99,29,992,-18,23,1
3951,-127,1,994,-27,10,-1
3952,-64,-59,989,-25,-9,-7
3953,36,-65,998,-12,-19,-11
3954,114,-40,1002,-7,-15,-11
3955,73,5,1002,-4,4,-8
3956,-14,39,1004,-11,19,-2
3957,-102,29,999,-21,20,0
3958,-125,-25,980,-26,6,-2
3959,-34,-55,995,-23,-14,-9
3960,53,-67,1003,-11,-20,-11
3961,108,-31,1001,-2,-12,-11
3962,64,17,1002,-2,8,-6
3963,-43,39,1008,-13,22,0
3964,-108,20,988,-22,17,1
3965,-119,-33,986,-27,2,-3
3966,-18,-52,995,-19,-17,-8
3967,78,-68,1006,-10,-21,-12
3968,110,-20,1003,-1,-6,-8
3969,44,27,1006,-6,12,-3
3970,-64,35,998,-15,22,1
3971,-124,6,990,-24,15,1
3972,-101,-32,986,-23,-3,-5
3973,11,-67,1008,-18,-21,-11
3974,99,-49,999,-8,-18,-12
3975,96,-6,997,-4,-2,-8
3976,26,33,1010,-9,14,-4
3977,-95,28,994,-18,23,3
3978,-126,8,985,-26,12,-1
3979,-73,-52,1001,-25,-8,-7
3980,28,-70,986,-14,-20,-11
3981,115,-38,1008,-5,-17,-11
3982,81,-4,1001,-4,3,-6
3983,-13,36,1006,-8,18,-1
3984,-93,31,990,-21,21,1
3985,-133,-11,996,-24,8,-1
3986,-41,-58,984,-24,-14,-7
3987,51,-61,1008,-13,-21,-13
3988,110,-34,993,-4,-13,-10
3989,69,16,1010,-6,6,-6
3990,-34,38,1004,-13,22,-1
3991,-114,20,991,-23,19,2
3992,-117,-23,983,-26,3,-4
3993,-28,-64,998,-19,-15,-7
3994,76,-59,998,-11,-21,-12
3995,103,-21,1013,-5,-9,-11
3996,55,20,993,-5,9,-5
3997,-60,41,1009,-15,23,2
3998,-114,7,986,-24,16,-2
3999,-108,-33,986,-26,-2,-3
4000,6,-66,1002,-16,-18,-10
4001,89,-62,1003,-9,-18,-11
4002,104,-2,994,-2,-4,-7
4003,24,27,1016,-7,13,-5
4004,-83,38,983,-19,23,0
4005,-131,4,1004,-23,14,0
4006,-71,-47,981,-27,-7,-7
4007,10,-68,1006,-14,-18,-11
4008,127,-51,991,-6,-18,-13
4009,67,-2,1010,-3,4,-7
4010,12,41,999,-9,16,-3
4011,-110,27,999,-21,24,0
4012,-120,-1,983,-26,9,-2
4013,-61,-60,1006,-22,-11,-10
4014,48,-63,983,-15,-20,-12
4015,112,-41,1015,-4,-13,-12
4016,74,7,990,-4,5,-7
4017,-37,43,1020,-13,21,0
4018,-99,19,984,-21,20,-2
4019,-130,-18,990,-23,5,-2
4020,-20,-55,991,-21,-16,-10
4021,53,-68,1001,-12,-19,-13
4022,116,-19,1007,-4,-11,-10
4023,56,13,996,-7,10,-6
4024,-52,37,1006,-14,22,1
4025,-120,9,989,-24,16,1
4026,-110,-27,982,-25,0,-5
4027,-7,-66,1005,-19,-17,-11
4028,88,-51,999,-9,-19,-12
4029,106,-14,998,-5,-5,-10
4030,42,21,1013,-7,13,-6
4031,-76,37,990,-16,24,0
4032,-126,5,993,-22,14,-1
4033,-94,-39,993,-24,-5,-7
4034,14,-69,999,-17,-21,-10
4035,99,-43,996,-5,-19,-12
4036,100,-6,1010,-6,-2,-7
4037,14,29,1001,-9,17,-3
4038,-94,29,994,-18,22,1
4039,-133,-7,995,-25,12,-3
4040,-77,-51,992,-23,-8,-6
4041,38,-63,992,-13,-20,-12
4042,111,-39,1011,-4,-16,-11
4043,91,9,993,-2,3,-8
4044,-6,33,1024,-10,20,-1
4045,-110,27,979,-22,22,1
4046,-136,-21,991,-26,7,-3
4047,-49,-61,994,-20,-13,-10
4048,41,-62,994,-12,-21,-12
4049,124,-28,1007,-1,-13,-13
4050,80,16,1008,-5,6,-7
4051,-34,42,998,-13,23,0
4052,-117,15,1003,-16,19,-3
4053,-132,-31,975,-29,5,-1
4054,-32,-65,995,-18,-16,-8
4055,66,-48,1004,-12,-23,-12
4056,130,-24,1011,-3,-12,-11
4057,72,21,1001,-5,10,-5
4058,-61,42,996,-16,25,2
4059,-128,5,999,-23,18,-1
4060,-124,-40,979,-25,-1,-4
4061,-15,-64,998,-16,-18,-9
4062,101,-52,1006,-7,-22,-12
4063,121,-8,1004,-3,-5,-8
4064,50,32,1003,-9,15,-2
4065,-84,40,1003,-17,26,1
4066,-144,4,991,-24,15,0
4067,-96,-52,983,-26,-6,-6
4068,13,-68,994,-16,-22,-11
4069,116,-41,1006,-8,-21,-13
4070,106,-4,998,-6,0,-10
4071,11,39,1013,-10,18,-1
4072,-104,33,996,-23,23,2
4073,-145,-10,983,-28,9,-2
4074,-51,-55,993,-23,-13,-8
4075,40,-67,1001,-14,-21,-12
4076,124,-32,996,-4,-16,-12
4077,73,10,1016,-6,5,-6
4078,-25,37,997,-12,21,0
4079,-110,17,994,-21,20,1
4080,-124,-25,984,-27,6,-3
4081,-22,-66,989,-19,-15,-8
4082,77,-59,1002,-10,-19,-12
4083,105,-23,1007,-3,-9,-10
4084,49,26,1004,-6,9,-5
4085,-61,42,997,-16,21,-1
4086,-120,9,995,-26,15,1
4087,-101,-37,989,-25,-2,-6
4088,5,-71,994,-19,-18,-11
4089,90,-54,1007,-8,-18,-13
4090,98,-16,998,-4,-3,-9
4091,25,30,1002,-6,15,-5
4092,-86,37,994,-16,21,0
4093,-126,8,995,-23,13,0
4094,-78,-56,988,-27,-6,-4
4095,15,-64,1000,-13,-20,-10
4096,109,-44,997,-7,-19,-12
4097,90,-1,1010,-2,1,-8
4098,17,34,997,-9,18,-1
4099,-104,24,1001,-20,24,2
4100,-137,-11,985,-26,9,0
4101,-70,-57,991,-21,-11,-8
4102,34,-60,1000,-12,-22,-11
4103,128,-40,1001,-4,-16,-11
4104,96,8,1010,-3,6,-8
4105,-13,41,1004,-12,22,-1
4106,-124,28,999,-22,23,1
4107,-135,-16,975,-26,7,-3
4108,-55,-67,997,-21,-15,-7
4109,60,-65,996,-11,-24,-12
4110,132,-28,1014,-3,-13,-13
4111,81,18,995,-4,7,-5
4112,-45,42,1008,-12,25,-1
4113,-122,11,988,-24,20,1
4114,-137,-31,983,-24,4,-3
4115,-14,-63,993,-17,-19,-11
4116,77,-55,1010,-8,-22,-11
4117,133,-14,995,-1,-9,-11
4118,48,30,1007,-5,13,-4
4119,-69,39,997,-18,25,2
4120,-137,5,994,-25,16,0
4121,-103,-48,986,-24,-4,-5
4122,2,-66,998,-17,-21,-9
4123,110,-49,1001,-7,-20,-13
4124,99,-2,1004,-4,-3,-9
4125,26,40,1000,-9,17,-3
4126,-91,23,1005,-21,24,1
4127,-137,-6,992,-26,13,-1
4128,-81,-56,986,-24,-9,-6
4129,32,-66,1007,-13,-21,-11
4130,114,-33,995,-5,-18,-12
4131,96,9,1003,-5,3,-10
4132,-4,37,1016,-10,20,-2
4133,-111,20,989,-22,23,1
4134,-135,-22,981,-25,7,-2
4135,-56,-52,1001,-20,-15,-7
4136,55,-57,991,-12,-22,-13
4137,129,-32,1004,-4,-13,-12
4138,80,14,1011,-5,7,-6
4139,-37,36,993,-13,24,0
4140,-123,12,1001,-23,21,2
4141,-137,-28,978,-24,3,-2
4142,-28,-62,989,-18,-18,-10
4143,87,-58,1012,-9,-23,-13
4144,120,-12,1005,-2,-9,-9
4145,69,18,998,-6,11,-6
4146,-66,38,1008,-15,25,0
4147,-135,4,984,-26,18,0
4148,-125,-41,990,-25,-1,-6
4149,-10,-69,999,-17,-21,-9
4150,106,-48,1002,-5,-23,-13
4151,119,-9,1000,-2,-7,-9
4152,41,36,1011,-7,15,-3
4153,-88,35,993,-18,26,1
4154,-141,0,998,-24,15,0
4155,-95,-49,982,-25,-6,-5
4156,18,-69,1002,-14,-21,-11
4157,117,-43,1001,-5,-21,-13
4158,105,8,1000,-3,0,-8
4159,10,37,1010,-10,18,-2
4160,-106,29,996,-21,25,4
4161,-141,-16,984,-25,12,-1
4162,-64,-63,993,-21,-11,-7
4163,39,-67,996,-10,-22,-13
4164,119,-32,1004,-2,-17,-13
4165,90,19,1002,-3,4,-7
4166,-28,48,1011,-10,22,-1
4167,-108,22,988,-22,21,0
4168,-136,-26,982,-27,7,-1
4169,-34,-64,989,-21,-16,-9
4170,68,-71,1008,-10,-22,-13
4171,115,-25,995,-3,-11,-10
4172,62,26,1011,-3,9,-5
4173,-42,44,998,-15,22,-1
4174,-125,14,993,-24,20,2
4175,-113,-35,983,-25,0,-4
4176,-16,-72,1002,-18,-16,-10
4177,91,-59,999,-7,-20,-12
4178,106,-18,1000,-1,-6,-9
4179,42,27,1008,-4,12,-4
4180,-74,36,995,-16,23,0
4181,-128,7,991,-23,16,1
4182,-91,-38,990,-24,-3,-5
4183,10,-68,998,-17,-19,-9
4184,104,-54,1000,-4,-19,-12
4185,91,-10,1005,-2,-1,-7
4186,18,37,1007,-6,16,-4
4187,-94,33,997,-17,22,2
4188,-130,3,990,-26,10,-1
4189,-67,-50,991,-24,-9,-6
4190,32,-64,1003,-15,-20,-11
4191,113,-43,996,-5,-16,-11
4192,78,2,1006,-1,4,-6
4193,-9,39,1013,-10,20,-2
4194,-108,30,989,-20,22,0
4195,-126,-10,980,-26,6,-1
4196,-46,-52,1005,-22,-14,-8
4197,56,-68,984,-14,-22,-12
4198,114,-35,1014,-4,-12,-11
4199,67,14,999,-5,6,-5
4200,-36,42,998,-13,22,-1
4201,-114,16,998,-23,19,0
4202,-125,-18,978,-27,3,-3
4203,-18,-66,997,-21,-18,-12
4204,82,-65,1007,-11,-21,-13
4205,102,-19,995,-4,-7,-9
4206,58,21,1007,-6,11,-7
4207,-73,35,997,-16,23,1
4208,-119,15,986,-24,14,-1
4209,-106,-39,997,-27,-3,-6
4210,10,-62,996,-20,-20,-9
4211,93,-65,1001,-10,-19,-12
4212,93,-11,997,-2,-4,-9
4213,30,22,1009,-7,14,-4
4214,-93,39,989,-17,23,1
4215,-128,12,1000,-25,11,0
4216,-63,-50,991,-26,-7,-6
4217,20,-72,995,-16,-19,-9
4218,118,-52,1003,-6,-18,-11
4219,79,-8,1003,-1,2,-9
4220,-7,43,1003,-7,20,-1
4221,-101,36,999,-21,22,1
4222,-124,-9,984,-27,8,-3
4223,-46,-57,1001,-21,-12,-6
4224,51,-68,987,-13,-21,-11
4225,107,-42,1008,-4,-12,-11
4226,71,17,1001,-2,7,-7
4227,-41,39,1004,-10,24,-1
4228,-100,30,991,-20,19,-1
4229,-127,-25,990,-28,5,-2
4230,-21,-61,985,-20,-16,-9
4231,70,-73,1006,-11,-20,-11
4232,106,-28,1007,-2,-8,-9
4233,51,23,995,-4,9,-5
4234,-58,44,1004,-13,23,0
4235,-120,17,996,-24,16,3
4236,-101,-28,982,-26,-1,-4
4237,-2,-63,1011,-19,-18,-12
4238,89,-64,992,-10,-20,-11
4239,100,-12,1002,-3,-4,-9
4240,35,20,1007,-7,14,-5
4241,-86,44,992,-15,23,2
4242,-117,2,992,-26,12,-1
4243,-89,-38,997,-25,-5,-6
4244,24,-71,990,-16,-20,-12
4245,104,-54,1004,-6,-16,-13
4246,83,-5,1004,-3,1,-7
4247,9,37,1001,-7,17,-3
4248,-95,37,997,-19,22,-1
4249,-125,-7,989,-25,11,-2
4250,-54,-53,994,-23,-9,-9
4251,38,-67,1001,-15,-19,-12
4252,108,-46,994,-4,-14,-12
4253,77,3,1006,-1,5,-7
4254,-19,42,1005,-9,20,0
4255,-99,27,989,-20,20,0
4256,-128,-19,986,-24,7,-3
4257,-35,-54,991,-21,-13,-8
4258,56,-59,1004,-12,-20,-12
4259,105,-34,1002,-5,-10,-10
4260,73,14,1009,-5,8,-7
4261,-40,29,992,-13,24,-1
4262,-117,28,1003,-20,19,1
4263,-121,-32,974,-26,2,-5
4264,-34,-61,1002,-18,-16,-9
4265,72,-46,1001,-11,-24,-10
4266,111,-11,996,-6,-10,-11
4267,76,21,1010,-9,10,-6
4268,-53,41,996,-19,25,0
4269,-127,-9,995,-26,18,-1
4270,-117,-43,989,-22,-1,-5
4271,-20,-71,995,-16,-18,-9
4272,99,-46,1002,-3,-22,-15
4273,114,-4,1006,-3,-5,-10
4274,42,42,1002,-8,16,-3
4275,-82,38,1002,-19,26,1
4276,-139,-1,990,-26,15,0
4277,-91,-56,991,-26,-5,-7
4278,21,-75,997,-13,-21,-12
4279,109,-51,1002,-4,-19,-11
4280,93,6,999,-1,1,-8
4281,2,37,1016,-7,18,-2
4282,-98,42,986,-19,23,1
4283,-131,-4,993,-26,9,-2
4284,-57,-61,987,-26,-12,-7
4285,39,-70,999,-15,-22,-11
4286,113,-42,1000,-4,-15,-11
4287,75,2,1007,-4,6,-6
4288,-20,39,998,-9,22,0
4289,-110,21,1001,-21,21,2
4290,-122,-11,976,-27,5,-3
4291,-33,-54,1000,-20,-15,-10
4292,72,-67,998,-13,-22,-13
4293,105,-27,1010,-3,-9,-10
4294,65,14,999,-5,8,-5
4295,-51,41,1003,-12,23,1
4296,-118,8,987,-25,17,1
4297,-112,-28,992,-23,-1,-3
4298,-6,-61,995,-18,-18,-10
4299,82,-57,1006,-8,-20,-12
4300,102,-15,995,-1,-6,-8
4301,36,24,1007,-8,14,-4
4302,-76,40,993,-17,23,2
4303,-125,6,998,-25,15,0
4304,-90,-37,986,-26,-4,-5
4305,19,-73,997,-17,-19,-11
4306,101,-46,1001,-5,-17,-11
4307,93,-12,1002,-4,-1,-8
4308,6,38,1005,-7,17,-3
4309,-87,31,997,-20,22,1
4310,-131,3,990,-25,11,-1
4311,-61,-55,989,-24,-10,-6
4312,35,-65,1001,-13,-20,-13
4313,108,-41,999,-5,-14,-11
4314,80,11,1006,-3,4,-8
4315,-12,38,1006,-13,19,-2
4316,-108,26,991,-22,21,0
4317,-119,-22,987,-27,6,-3
4318,-44,-64,989,-23,-14,-8
4319,61,-65,1003,-11,-22,-12
4320,110,-32,1007,-4,-11,-10
4321,75,21,998,-5,7,-7
4322,-53,38,998,-13,24,0
4323,-110,29,1001,-23,17,-1
4324,-120,-32,982,-29,3,-4
4325,-12,-64,993,-22,-16,-10
4326,84,-74,1011,-11,-22,-14
4327,104,-14,991,-1,-7,-10
4328,47,27,1007,-8,12,-3
4329,-79,44,997,-16,24,0
4330,-123,7,995,-27,14,0
4331,-86,-36,987,-25,-5,-5
4332,3,-81,997,-18,-18,-10
4333,102,-53,1000,-4,-18,-12
4334,92,-5,1002,-5,-1,-9
4335,17,34,1004,-8,16,-3
4336,-90,43,997,-19,21,3
4337,-127,-1,993,-26,12,-2
4338,-68,-47,991,-23,-9,-6
4339,28,-80,997,-15,-20,-11
4340,111,-46,998,-5,-17,-11
4341,81,0,1005,-2,2,-6
4342,-11,48,1006,-8,19,-1
4343,-100,31,1001,-22,21,1
4344,-122,-9,981,-27,8,-1
4345,-43,-62,994,-23,-13,-8
4346,55,-66,1002,-12,-21,-12
4347,103,-41,1001,-3,-13,-10
4348,70,15,1000,-4,7,-7
4349,-38,36,1005,-11,23,0
4350,-113,28,991,-21,19,1
4351,-114,-23,985,-27,3,-3
4352,-23,-61,996,-18,-16,-10
4353,77,-66,1006,-11,-23,-12
4354,106,-16,1003,-1,-9,-10
4355,45,19,994,-6,12,-4
4356,-63,49,1011,-14,22,-1
4357,-113,5,982,-24,14,0
4358,-111,-35,992,-25,-1,-4
4359,7,-72,1001,-19,-20,-10
4360,90,-63,1002,-6,-18,-12
4361,101,-8,998,-1,-2,-9
4362,28,31,1012,-7,15,-4
4363,-84,41,987,-17,23,-1
4364,-121,8,1001,-26,12,1
4365,-80,-49,989,-26,-6,-7
4366,17,-73,991,-16,-19,-10
4367,115,-51,1011,-3,-19,-13
4368,80,-7,991,-3,1,-8
4369,0,47,1015,-6,18,-3
4370,-92,37,991,-22,22,-1
4371,-131,-6,986,-26,10,-1
4372,-48,-50,997,-23,-12,-7
4373,36,-72,994,-14,-19,-11
4374,112,-44,1002,-5,-13,-11
4375,71,6,1000,-4,6,-6
4376,-26,39,1008,-10,21,-2
4377,-101,24,993,-21,18,1
4378,-129,-9,983,-26,5,-3
4379,-28,-56,995,-21,-15,-9
4380,72,-65,998,-13,-20,-12
4381,105,-32,1011,-5,-8,-8
4382,61,14,995,-5,9,-7
4383,-57,35,1004,-13,23,0
4384,-114,13,992,-22,17,0
4385,-115,-27,987,-26,0,-3
4386,-8,-64,997,-17,-17,-11
4387,89,-57,1013,-9,-20,-12
4388,103,-15,988,-3,-5,-8
4389,39,28,1011,-7,14,-4
4390,-84,36,995,-21,21,1
4391,-124,13,996,-28,7,-2
4392,-83,-46,985,-30,-3,-5
4393,15,-67,1002,-18,-19,-11
4394,109,-58,997,-5,-18,-11
4395,87,-2,1003,-2,1,-8
4396,7,41,1002,-8,17,-1
4397,-99,34,1005,-18,22,0
4398,-125,-16,979,-28,10,-1
4399,-59,-52,1000,-23,-10,-5
4400,37,-70,997,-14,-20,-11
4401,108,-39,998,-5,-15,-12
4402,80,9,1006,-2,3,-5
4403,-19,42,1004,-12,20,-2
4404,-101,34,997,-23,20,2
4405,-121,-21,982,-26,7,-3
4406,-46,-66,997,-25,-12,-7
4407,63,-73,993,-11,-21,-13
4408,105,-33,1013,-4,-10,-10
4409,69,17,996,-4,7,-6
4410,-48,44,1003,-12,24,-1
4411,-109,25,994,-24,17,0
4412,-120,-35,986,-29,3,-3
4413,-13,-68,994,-18,-18,-11
4414,76,-58,1005,-9,-21,-10
4415,111,-22,999,-1,-7,-11
4416,41,22,1005,-5,12,-4
4417,-65,44,995,-16,23,1
4418,-122,9,998,-23,17,0
4419,-101,-37,984,-25,-3,-4
4420,4,-69,1001,-18,-18,-11
4421,96,-58,997,-7,-18,-11
4422,98,-10,1006,-3,-3,-8
4423,25,34,1000,-6,16,-3
4424,-89,39,1000,-17,23,1
4425,-122,10,992,-26,11,-1
4426,-87,-49,991,-27,-7,-4
4427,28,-68,994,-15,-20,-11
4428,110,-49,1006,-7,-16,-12
4429,83,3,993,-4,2,-8
4430,1,38,1019,-10,19,-1
4431,-98,29,985,-21,23,1
4432,-134,-8,996,-26,11,-1
4433,-46,-66,985,-24,-12,-8
4434,34,-71,1001,-12,-21,-11
4435,119,-38,1004,-1,-14,-11
4436,76,16,1002,-3,6,-7
4437,-27,45,1006,-10,22,0
4438,-110,31,991,-22,20,1
4439,-119,-19,990,-28,4,-2
4440,-33,-63,985,-22,-15,-8
4441,59,-65,1008,-12,-21,-11
4442,117,-35,1000,-3,-11,-11
4443,52,27,1004,-4,10,-3
4444,-48,40,1000,-15,22,-1
4445,-120,15,995,-25,17,0
4446,-107,-31,985,-26,-2,-4
4447,-11,-67,1002,-19,-20,-10
4448,86,-59,998,-9,-21,-12
4449,108,-25,1000,-3,-6,-9
4450,41,31,1006,-4,13,-3
4451,-80,38,992,-17,23,2
4452,-123,8,999,-24,14,-2
4453,-91,-49,988,-27,-4,-4
4454,13,-59,996,-15,-19,-9
4455,111,-56,1003,-6,-19,-13
4456,87,0,998,-3,-1,-8
4457,16,42,1008,-9,16,-2
4458,-93,31,994,-21,24,0
4459,-134,0,985,-27,10,-1
4460,-55,-55,1001,-25,-11,-7
4461,28,-74,989,-16,-20,-11
4462,108,-45,999,-6,-16,-12
4463,85,4,1012,-3,3,-8
4464,-17,38,999,-11,21,-1
4465,-107,34,998,-20,22,0
4466,-123,-20,989,-27,6,-4
4467,-39,-57,992,-22,-14,-7
4468,59,-67,992,-13,-22,-11
4469,109,-29,1019,-3,-11,-11
4470,69,15,991,-7,7,-6
4471,-50,43,1003,-14,23,-1
4472,-112,11,1000,-24,18,-1
4473,-124,-32,978,-26,2,-4
4474,-8,-62,1002,-19,-18,-11
4475,79,-64,1000,-9,-20,-13
4476,105,-14,999,-1,-6,-9
4477,48,25,1006,-7,12,-4
4478,-77,41,994,-17,25,0
4479,-128,-1,999,-24,14,-1
4480,-94,-44,987,-25,-5,-5
4481,8,-82,999,-13,-18,-10
4482,108,-44,1003,-3,-19,-13
4483,96,-4,1002,-3,-2,-9
4484,19,51,1000,-7,15,0
4485,-91,41,1006,-21,23,2
4486,-129,0,988,-28,11,-2
4487,-69,-51,995,-25,-9,-5
4488,38,-81,996,-16,-21,-14
4489,103,-51,1000,-6,-15,-10
4490,85,10,1007,-2,3,-7
4491,-12,36,1004,-10,21,-3
4492,-103,35,993,-20,21,2
4493,-130,-11,992,-25,8,-2
4494,-41,-64,986,-26,-13,-8
4495,48,-64,995,-13,-21,-11
4496,114,-35,1008,-5,-13,-12
4497,71,14,1003,-5,7,-6
4498,-31,42,999,-14,21,2
4499,-119,22,997,-20,20,2
4500,-120,-24,984,-27,2,-4
4501,-21,-70,991,-20,-16,-8
4502,69,-51,1007,-9,-21,-11
4503,117,-30,1006,-6,-8,-11
4504,54,26,1004,-4,12,-5
4505,-65,43,991,-16,23,2
4506,-120,11,1001,-24,17,-4
4507,-105,-39,980,-26,-2,-4
4508,-6,-66,1006,-17,-18,-12
4509,104,-59,995,-9,-21,-14
4510,98,-10,1005,-2,-4,-8
4511,32,31,1001,-9,14,-5
4512,-90,32,997,-16,24,0
4513,-123,6,997,-23,12,0
4514,-86,-51,983,-26,-6,-5
4515,20,-71,1004,-15,-19,-12
4516,109,-53,995,-6,-18,-12
4517,93,9,1006,-3,1,-8
4518,0,34,1003,-8,19,-3
4519,-103,35,997,-21,22,1
4520,-125,-8,991,-27,9,-1
4521,-58,-58,986,-23,-10,-7
4522,45,-73,1003,-14,-20,-10
4523,114,-35,1004,-1,-13,-11
4524,70,9,994,-4,5,-4
