sequence,AccelerometerX,AccelerometerY,AccelerometerZ,GyroscopeX,GyroscopeY,GyroscopeZ
0,242,-166,1146,0,-78,-5
1,391,-94,1123,23,-35,-1
2,190,44,1010,15,33,8
3,-180,111,871,-10,65,15
4,-431,63,828,-28,38,10
5,-236,-96,960,-38,-38,-2
6,188,-165,1128,2,-81,-6
7,392,-108,1127,11,-44,-1
8,244,25,1018,29,25,7
9,-138,112,909,-8,63,14
10,-420,64,827,-35,42,10
11,-274,-83,934,-24,-30,-2
12,127,-163,1107,-5,-76,-6
13,382,-132,1108,19,-49,-2
14,288,24,1048,26,14,5
15,-87,107,901,-5,61,13
16,-393,81,854,-27,49,11
17,-317,-57,920,-33,-20,1
18,76,-167,1069,-9,-74,-4
19,374,-126,1137,15,-56,-5
20,316,-12,1035,20,6,4
21,-37,97,908,7,59,13
22,-366,98,868,-26,55,14
23,-363,-53,902,-35,-10,3
24,24,-158,1080,-4,-71,-7
25,353,-129,1148,12,-63,-4
26,342,-33,1036,23,-4,4
27,27,105,938,8,54,13
28,-342,113,848,-25,60,14
29,-391,-33,882,-38,1,3
30,-37,-145,1081,-16,-65,-5
31,324,-154,1149,12,-67,-2
32,363,-63,1059,20,-13,4
33,65,99,942,12,48,12
34,-296,101,833,-20,63,13
35,-404,-6,864,-37,11,5
36,-103,-128,1051,-13,-59,-5
37,300,-162,1162,8,-73,-3
38,383,-70,1084,20,-21,1
39,114,79,961,17,43,10
40,-248,114,842,-20,64,16
41,-419,12,833,-37,21,7
42,-162,-117,1026,-16,-51,-6
43,261,-154,1157,2,-75,-5
44,393,-107,1093,20,-31,0
45,163,69,1005,23,34,8
46,-207,118,856,-17,65,15
47,-418,34,816,-33,30,8
48,-215,-78,991,-21,-42,-5
49,225,-176,1137,-1,-77,-5
50,394,-102,1128,19,-37,0
51,209,40,1014,21,29,8
52,-163,99,884,-9,65,16
53,-429,59,822,-33,40,10
54,-251,-81,942,-21,-36,-2
55,167,-166,1126,-3,-77,-5
56,388,-110,1125,16,-46,-2
57,266,19,1030,23,19,6
58,-122,117,910,-6,64,13
59,-418,63,831,-33,47,12
60,-292,-75,927,-32,-26,1
61,102,-159,1095,-6,-75,-5
62,382,-134,1126,18,-54,-4
63,302,-2,1026,22,11,6
64,-66,110,912,2,60,14
65,-386,89,860,-24,52,12
66,-338,-58,903,-37,-16,1
67,54,-159,1080,-6,-73,-7
68,367,-133,1146,15,-60,-4
69,330,-16,1034,23,1,4
70,-10,105,919,6,58,12
71,-357,102,859,-28,56,12
72,-370,-40,898,-32,-5,4
73,4,-156,1082,-12,-69,-3
74,338,-146,1147,10,-64,-3
75,351,-41,1054,28,-8,2
76,38,97,932,4,52,11
77,-329,112,841,-18,60,15
78,-392,-11,887,-38,3,5
79,-61,-156,1059,-18,-64,-6
80,318,-156,1160,17,-72,-3
81,373,-63,1082,20,-15,3
82,79,83,937,16,46,10
83,-284,128,839,-16,62,15
84,-411,8,849,-40,14,6
85,-121,-129,1044,-17,-57,-4
86,291,-155,1160,3,-74,-4
87,395,-89,1094,17,-24,1
88,129,67,977,20,42,9
89,-239,118,840,-18,66,14
90,-426,18,818,-35,24,8
91,-182,-101,1021,-18,-49,-4
92,250,-173,1137,3,-77,-6
93,405,-93,1122,24,-34,1
94,179,56,1002,18,34,9
95,-186,113,863,-9,65,15
96,-427,48,831,-35,35,9
97,-231,-93,962,-25,-41,-4
98,201,-164,1133,3,-79,-5
99,388,-110,1129,16,-41,-1
100,233,36,1025,23,24,6
101,-146,110,893,-7,63,15
102,-419,56,828,-35,42,10
103,-269,-80,938,-22,-31,-2
104,144,-163,1115,-8,-77,-5
105,382,-119,1118,18,-48,-2
106,274,13,1036,27,16,5
107,-95,120,915,-7,61,15
108,-405,77,833,-30,49,12
109,-309,-64,928,-33,-24,-2
110,95,-164,1089,-7,-75,-5
111,379,-145,1126,16,-56,-1
112,304,0,1036,23,9,4
113,-45,115,913,5,58,14
114,-380,88,855,-30,53,14
115,-355,-32,912,-33,-14,0
116,46,-168,1082,-12,-74,-3
117,363,-141,1139,14,-61,-2
118,336,-8,1047,26,0,2
119,10,83,918,-1,55,13
120,-356,112,854,-19,60,13
121,-386,-32,891,-36,-3,3
122,-15,-159,1083,-14,-69,-4
123,328,-141,1149,13,-68,-4
124,364,-50,1058,22,-12,3
125,57,96,938,9,50,12
126,-317,116,842,-18,62,13
127,-402,-19,869,-40,7,5
128,-90,-133,1057,-17,-61,-3
129,306,-155,1165,9,-74,-4
130,382,-72,1082,18,-20,2
131,100,75,947,16,44,9
132,-260,119,848,-17,63,16
133,-415,6,830,-41,17,7
134,-145,-125,1034,-13,-55,-5
135,271,-155,1163,5,-77,-6
136,394,-93,1099,19,-29,1
137,147,67,989,18,36,9
138,-220,123,850,-15,63,15
139,-419,23,816,-34,27,9
140,-193,-96,1006,-23,-47,-4
141,236,-162,1143,4,-78,-5
142,392,-103,1125,19,-36,-1
143,189,42,1010,18,29,8
144,-178,114,872,-8,63,16
145,-427,50,832,-36,35,10
146,-235,-98,953,-26,-41,-2
147,181,-150,1122,3,-77,-5
148,389,-112,1129,12,-44,-2
149,247,26,1025,26,21,6
150,-136,121,902,-8,62,14
151,-418,56,828,-39,42,12
152,-281,-72,930,-23,-30,-2
153,130,-162,1106,-9,-77,-5
154,384,-133,1115,18,-50,-1
155,288,4,1039,22,12,6
156,-87,110,903,-2,61,14
157,-392,77,855,-28,48,13
158,-329,-51,918,-30,-21,-1
159,79,-154,1081,-9,-76,-5
160,370,-139,1137,13,-59,-3
161,322,-5,1043,23,3,4
162,-23,110,915,4,57,14
163,-372,87,843,-33,55,12
164,-363,-33,916,-32,-11,1
165,19,-159,1083,-12,-71,-4
166,350,-154,1139,8,-64,-2
167,336,-26,1050,30,-6,3
168,28,98,930,5,51,11
169,-336,103,843,-23,58,14
170,-391,-12,885,-36,-1,3
171,-39,-149,1069,-19,-68,-7
172,325,-153,1161,14,-72,-3
173,365,-53,1068,21,-15,4
174,65,93,945,10,47,9
175,-299,107,830,-20,62,14
176,-407,0,860,-41,8,7
177,-102,-130,1046,-15,-62,-6
178,300,-162,1158,6,-75,-5
179,384,-81,1085,19,-22,0
180,120,67,972,17,41,9
181,-252,119,837,-17,64,14
182,-418,22,822,-36,20,7
183,-161,-112,1020,-20,-52,-4
184,260,-159,1155,0,-78,-4
185,399,-93,1113,20,-33,1
186,162,47,998,15,35,8
187,-204,115,861,-14,64,13
188,-427,32,817,-35,29,9
189,-210,-101,979,-24,-44,-3
190,215,-160,1133,3,-78,-5
191,391,-112,1119,17,-41,-1
192,218,40,1021,23,26,7
193,-156,123,888,-5,64,15
194,-421,60,825,-39,38,10
195,-252,-88,948,-25,-34,-1
196,156,-161,1115,-3,-77,-5
197,387,-128,1120,10,-47,0
198,263,13,1028,28,18,7
199,-115,120,908,-6,61,12
200,-404,63,827,-30,46,12
201,-291,-67,931,-28,-25,1
202,101,-158,1091,-8,-75,-6
203,385,-133,1137,15,-55,-2
204,302,2,1030,23,12,6
205,-63,120,905,-3,60,15
206,-379,73,839,-30,51,13
207,-347,-51,915,-31,-15,0
208,56,-168,1083,-8,-75,-6
209,367,-142,1145,14,-61,0
210,327,-19,1036,26,0,3
211,-3,106,912,11,56,12
212,-355,110,858,-28,57,15
213,-372,-29,892,-31,-4,4
214,0,-145,1088,-15,-69,-5
215,338,-153,1152,8,-65,-3
216,351,-52,1053,25,-8,3
217,49,94,933,7,51,13
218,-317,108,835,-18,62,13
219,-397,-7,880,-33,6,3
220,-57,-134,1063,-16,-64,-4
221,307,-156,1159,10,-70,-2
222,377,-61,1084,18,-17,2
223,81,85,947,14,46,12
224,-275,112,836,-18,64,14
225,-410,5,843,-39,16,5
226,-134,-136,1036,-16,-55,-5
227,279,-171,1155,5,-74,-5
228,390,-87,1098,21,-25,3
229,127,67,981,20,40,7
230,-233,119,843,-16,65,13
231,-416,32,828,-33,23,9
232,-182,-103,1010,-23,-48,-4
233,248,-172,1136,1,-75,-5
234,389,-98,1124,21,-32,1
235,183,43,1006,15,33,8
236,-191,112,868,-9,65,13
237,-427,43,820,-34,33,9
238,-228,-94,965,-21,-40,-2
239,194,-171,1134,5,-79,-5
240,400,-107,1123,19,-43,-1
241,242,36,1027,23,24,8
242,-137,124,893,-5,64,14
243,-413,75,827,-36,42,11
244,-274,-75,946,-27,-29,0
245,138,-163,1110,-8,-75,-6
246,376,-132,1123,14,-50,-1
247,289,0,1032,24,14,7
248,-95,113,898,-4,62,14
249,-401,77,840,-24,50,9
250,-312,-53,927,-32,-21,2
251,75,-159,1089,-10,-72,-5
252,386,-143,1131,16,-58,-4
253,309,2,1042,24,8,4
254,-35,100,907,-1,58,13
255,-366,91,849,-26,55,13
256,-369,-41,901,-35,-9,3
257,25,-176,1080,-10,-70,-5
258,348,-133,1160,15,-64,-4
259,339,-49,1040,23,-4,4
260,21,99,930,13,53,12
261,-344,126,847,-20,60,13
262,-385,-28,874,-38,2,3
263,-36,-141,1080,-17,-66,-5
264,327,-146,1165,15,-68,-4
265,358,-67,1066,20,-11,1
266,65,87,941,11,49,11
267,-296,117,840,-15,63,15
268,-408,-5,851,-41,12,4
269,-97,-132,1049,-12,-59,-5
270,302,-155,1166,7,-73,-3
271,383,-87,1083,18,-21,0
272,118,80,973,23,42,10
273,-254,126,841,-17,65,15
274,-415,17,825,-37,21,6
275,-154,-109,1021,-19,-53,-4
276,261,-156,1152,1,-75,-4
277,400,-100,1107,20,-30,1
278,164,48,998,17,38,10
279,-204,115,861,-12,65,15
280,-422,40,825,-32,30,9
281,-219,-98,978,-23,-42,-4
282,219,-182,1132,3,-76,-4
283,383,-97,1127,21,-36,-1
284,217,39,1013,19,27,7
285,-155,118,892,-4,64,17
286,-427,64,823,-35,39,10
287,-250,-77,954,-27,-34,-1
288,155,-177,1123,-4,-77,-6
289,379,-117,1119,17,-46,-2
290,266,5,1027,23,19,7
291,-116,113,897,-4,63,12
292,-412,77,836,-27,47,9
293,-296,-74,933,-32,-26,1
294,104,-160,1098,-5,-75,-5
295,382,-131,1130,18,-55,-2
296,302,-1,1032,25,11,5
297,-58,119,904,2,60,13
298,-380,87,850,-31,52,11
299,-336,-50,915,-34,-15,2
300,46,-160,1081,-8,-72,-6
301,362,-153,1136,10,-61,-4
302,332,-12,1059,30,0,5
303,4,97,914,3,57,12
304,-350,106,840,-24,58,13
305,-377,-20,899,-33,-3,2
306,-5,-160,1077,-18,-68,-6
307,335,-148,1159,16,-67,-2
308,350,-47,1064,22,-8,3
309,51,86,933,7,52,11
310,-318,121,841,-15,62,16
311,-399,-21,858,-41,7,5
312,-77,-132,1063,-14,-61,-5
313,307,-163,1164,8,-72,-4
314,376,-69,1083,22,-17,3
315,90,85,959,16,43,11
316,-270,116,828,-18,64,13
317,-409,11,845,-41,17,7
318,-143,-122,1035,-14,-54,-4
319,276,-168,1145,5,-74,-5
320,389,-92,1099,21,-26,2
321,147,61,1000,21,37,9
322,-215,130,852,-11,65,14
323,-419,26,810,-37,28,8
324,-190,-97,1005,-23,-46,-4
325,234,-165,1138,2,-76,-6
326,390,-107,1124,19,-36,-2
327,196,48,1014,22,29,7
328,-172,113,871,-8,66,16
329,-424,47,821,-38,36,9
330,-238,-75,964,-22,-37,-3
331,182,-173,1121,0,-76,-5
332,389,-109,1123,15,-43,-1
333,252,33,1035,24,20,6
334,-124,102,889,-10,64,14
335,-420,72,834,-30,45,12
336,-282,-71,934,-27,-28,-1
337,122,-169,1099,-8,-76,-4
338,377,-123,1134,22,-52,-2
339,297,-7,1022,20,13,5
340,-74,120,919,3,62,14
341,-387,77,834,-27,52,10
342,-330,-42,917,-30,-18,2
343,59,-159,1089,-7,-71,-4
344,368,-141,1134,11,-58,-3
345,319,-15,1049,26,1,4
346,-11,83,906,9,57,11
347,-359,109,853,-21,57,12
348,-376,-37,893,-33,-6,2
349,15,-157,1080,-11,-70,-5
350,338,-131,1164,11,-65,-3
351,344,-51,1051,25,-5,0
352,51,93,933,4,51,14
353,-335,122,838,-15,63,15
354,-396,-24,869,-40,4,2
355,-57,-138,1071,-13,-64,-4
356,309,-163,1161,8,-71,-4
357,378,-60,1081,23,-15,2
358,83,78,945,12,46,12
359,-282,118,843,-12,64,12
360,-401,13,844,-37,15,5
361,-134,-119,1035,-16,-55,-3
362,286,-163,1159,2,-75,-5
363,388,-80,1093,20,-24,0
364,136,58,986,16,40,9
365,-226,115,845,-14,65,16
366,-424,33,827,-33,26,8
367,-180,-112,1004,-23,-48,-5
368,240,-157,1140,6,-76,-3
369,391,-98,1122,18,-34,-1
370,191,40,1003,18,31,9
371,-181,125,878,-8,65,16
372,-423,33,822,-40,36,8
373,-233,-88,961,-23,-39,-2
374,187,-160,1136,2,-76,-4
375,391,-136,1109,10,-43,-1
376,236,45,1037,33,23,7
377,-137,107,888,-13,64,15
378,-415,64,827,-33,43,11
379,-279,-62,940,-26,-28,-2
380,134,-171,1108,-9,-76,-4
381,381,-123,1125,18,-49,-1
382,288,0,1033,19,14,5
383,-86,116,905,1,62,12
384,-390,77,843,-29,48,12
385,-324,-54,922,-33,-17,2
386,69,-156,1080,-8,-74,-5
387,374,-145,1136,12,-58,-4
388,322,-5,1053,26,4,4
389,-21,108,909,5,59,14
390,-360,88,845,-31,56,13
391,-371,-26,905,-30,-7,1
392,20,-161,1089,-13,-69,-4
393,344,-148,1137,8,-64,-3
394,341,-36,1055,25,-4,3
395,34,91,931,6,53,11
396,-330,112,843,-19,60,14
397,-393,-27,877,-37,4,3
398,-45,-143,1069,-14,-64,-6
399,313,-145,1164,14,-69,-3
400,373,-66,1072,18,-14,3
401,75,87,939,12,48,12
402,-289,116,842,-19,64,13
403,-407,3,849,-38,14,5
404,-118,-138,1040,-18,-57,-2
405,288,-160,1158,7,-74,-3
406,389,-85,1092,16,-22,2
407,129,64,977,21,41,10
408,-241,126,849,-16,65,14
409,-416,29,823,-31,24,7
410,-176,-114,1009,-24,-48,-5
411,252,-159,1155,5,-77,-5
412,396,-99,1113,20,-33,-1
413,180,48,1005,16,33,7
414,-186,115,867,-10,65,15
415,-425,47,819,-35,34,10
416,-228,-97,964,-26,-40,-4
417,200,-157,1145,4,-78,-4
418,392,-115,1122,13,-40,0
419,233,28,1025,23,25,6
420,-140,122,892,-6,65,15
421,-420,56,819,-40,43,12
422,-275,-80,939,-23,-30,-3
423,135,-170,1109,-4,-77,-6
424,385,-120,1127,20,-49,0
425,279,2,1030,22,14,6
426,-93,122,914,0,62,14
427,-397,79,832,-29,49,13
428,-315,-57,922,-31,-21,0
429,72,-155,1078,-7,-73,-6
430,382,-143,1141,13,-58,-1
431,309,-4,1040,25,7,5
432,-34,107,914,2,60,13
433,-364,81,854,-30,55,13
434,-367,-32,901,-30,-10,2
435,26,-164,1079,-12,-71,-6
436,348,-146,1142,12,-63,-4
437,341,-36,1055,27,-4,3
438,27,101,928,9,55,11
439,-337,116,847,-22,60,14
440,-388,-21,880,-34,1,3
441,-36,-140,1076,-17,-66,-6
442,325,-153,1163,13,-68,-3
443,365,-64,1062,20,-11,1
444,69,96,938,12,48,11
445,-296,102,831,-19,63,14
446,-402,2,864,-34,14,5
447,-108,-131,1044,-16,-57,-5
448,294,-172,1159,7,-73,-5
449,385,-64,1098,25,-21,1
450,116,72,966,17,42,10
451,-242,115,831,-19,64,15
452,-418,31,832,-33,22,7
453,-162,-131,1018,-24,-51,-5
454,263,-165,1161,5,-76,-3
455,386,-96,1099,20,-31,1
456,168,56,1011,19,35,7
457,-205,107,849,-10,65,15
458,-418,52,829,-30,31,10
459,-214,-98,973,-27,-44,-3
460,211,-164,1137,5,-76,-6
461,396,-104,1136,15,-39,-1
462,221,25,1018,19,27,9
463,-159,127,894,-4,65,14
464,-423,56,812,-40,39,10
465,-262,-81,942,-24,-34,-2
466,153,-169,1118,-4,-77,-8
467,393,-129,1121,14,-48,-1
468,270,23,1040,30,19,7
469,-107,108,903,-13,63,13
470,-403,84,835,-23,47,12
471,-307,-64,917,-35,-23,-1
472,97,-179,1086,-7,-74,-6
473,384,-123,1137,19,-56,-1
474,306,-6,1040,17,10,5
475,-46,109,908,4,59,13
476,-382,91,848,-27,52,12
477,-349,-51,907,-34,-14,-1
478,40,-164,1082,-7,-73,-6
479,364,-133,1147,14,-62,-3
480,335,-27,1037,23,0,5
481,7,115,928,10,58,12
482,-348,103,849,-33,59,15
483,-388,-32,889,-35,0,3
484,-19,-155,1083,-16,-67,-6
485,332,-164,1151,10,-67,-2
486,356,-44,1061,27,-8,3
487,56,95,931,7,50,12
488,-309,116,839,-15,64,16
489,-406,-4,870,-38,9,4
490,-83,-146,1058,-20,-62,-5
491,307,-155,1174,13,-73,-3
492,379,-75,1076,16,-18,0
493,97,84,952,17,46,10
494,-267,126,841,-20,65,15
495,-415,3,829,-41,19,5
496,-146,-130,1025,-15,-56,-6
497,274,-162,1167,5,-76,-4
498,398,-107,1102,21,-26,0
499,145,66,994,23,38,8
500,-215,136,852,-12,64,15
501,-425,36,804,-36,30,8
502,-191,-103,994,-26,-46,-5
503,235,-175,1153,1,-78,-5
504,398,-119,1127,21,-35,1
505,195,63,1025,24,32,8
506,-178,114,871,-12,66,15
507,-428,43,811,-36,36,10
508,-245,-81,957,-22,-39,-3
509,188,-184,1121,-3,-78,-5
510,389,-118,1126,18,-44,-1
511,250,43,1044,31,22,7
512,-132,112,899,-12,65,14
513,-422,77,822,-34,45,12
514,-284,-67,933,-27,-29,-1
515,117,-188,1088,-11,-76,-6
516,388,-125,1130,21,-52,-1
517,295,0,1045,22,14,5
518,-78,107,899,0,61,12
519,-392,96,852,-23,50,13
520,-329,-62,909,-37,-17,1
521,67,-165,1076,-6,-73,-6
522,372,-133,1142,12,-57,-3
523,317,-13,1039,23,4,3
524,-17,108,923,8,57,14
525,-367,101,855,-29,57,13
526,-371,-54,895,-35,-8,2
527,15,-165,1086,-9,-71,-6
528,342,-142,1141,15,-64,-4
529,357,-41,1051,25,-6,4
530,29,118,935,13,54,12
531,-328,116,839,-26,61,14
532,-393,-22,888,-37,3,5
533,-47,-150,1069,-18,-65,-5
534,319,-159,1159,12,-69,-4
535,368,-67,1073,21,-13,3
536,75,84,933,15,47,11
537,-289,127,834,-12,63,15
538,-408,1,860,-40,12,4
539,-108,-140,1040,-14,-57,-5
540,289,-157,1174,10,-74,-4
541,390,-92,1086,18,-23,0
542,120,77,974,22,42,11
543,-246,131,836,-18,63,15
544,-418,19,812,-36,24,6
545,-167,-110,1024,-18,-50,-5
546,259,-168,1162,0,-77,-5
547,396,-110,1114,20,-31,0
548,170,55,1003,19,35,8
549,-199,121,847,-8,65,16
550,-423,50,814,-35,32,8
551,-224,-97,969,-26,-42,-3
552,212,-167,1149,5,-78,-4
553,389,-106,1138,17,-39,-1
554,230,26,1023,19,24,9
555,-150,122,889,-4,64,16
556,-430,58,808,-37,42,9
557,-257,-77,945,-21,-34,-1
558,148,-170,1120,-3,-77,-6
559,387,-126,1123,16,-47,-3
560,273,20,1043,28,17,6
561,-106,109,909,-9,63,14
562,-405,81,831,-26,48,12
563,-305,-60,913,-34,-23,0
564,91,-169,1089,-8,-73,-5
565,380,-130,1134,18,-56,-1
566,307,-1,1046,20,8,4
567,-51,105,906,2,60,12
568,-375,92,851,-26,53,14
569,-348,-54,902,-36,-13,1
570,40,-167,1078,-8,-70,-5
571,357,-141,1145,13,-61,-2
572,332,-29,1044,22,-1,4
573,8,108,925,10,57,13
574,-352,114,847,-28,58,14
575,-378,-27,897,-36,-3,3
576,-9,-150,1089,-13,-68,-5
577,326,-157,1145,9,-66,-2
578,355,-45,1057,25,-9,3
579,47,84,932,4,51,11
580,-313,116,843,-12,62,13
581,-399,-3,875,-37,8,4
582,-79,-155,1053,-18,-61,-5
583,310,-143,1176,16,-73,-3
584,377,-68,1079,14,-18,1
585,98,82,945,21,44,10
586,-268,139,836,-17,64,14
587,-408,-3,832,-45,18,7
588,-140,-126,1041,-15,-54,-4
589,276,-162,1166,3,-75,-5
590,385,-105,1097,18,-26,0
591,146,69,993,24,37,9
592,-217,126,831,-17,63,16
593,-417,28,812,-32,28,9
594,-191,-100,1001,-21,-46,-5
595,236,-157,1158,3,-75,-6
596,392,-104,1134,17,-34,0
597,191,34,1000,16,31,8
598,-177,135,876,-2,65,15
599,-425,33,801,-42,36,10
600,-240,-89,960,-21,-36,-3
601,185,-161,1140,0,-77,-4
602,383,-125,1126,14,-42,-4
603,247,29,1037,29,21,6
604,-135,116,894,-7,64,15
605,-413,63,818,-35,44,12
606,-280,-63,936,-24,-28,-1
607,125,-162,1103,-8,-75,-5
608,384,-136,1134,15,-51,-1
609,287,9,1042,23,15,6
610,-83,105,906,-7,61,14
611,-398,80,838,-26,51,11
612,-325,-63,913,-33,-20,1
613,75,-149,1088,-4,-74,-5
614,372,-136,1139,16,-58,-3
615,318,-20,1032,20,7,3
616,-20,120,927,11,58,15
617,-366,94,845,-34,57,13
618,-365,-44,888,-31,-7,1
619,18,-145,1103,-8,-70,-5
620,346,-165,1135,8,-64,-5
621,346,-30,1055,30,-6,4
622,25,105,929,7,53,13
623,-332,97,828,-23,60,12
624,-388,-5,891,-33,3,4
625,-36,-147,1074,-19,-66,-6
626,318,-155,1159,12,-68,-5
627,365,-56,1075,23,-12,3
628,71,89,937,7,47,11
629,-297,110,836,-15,63,15
630,-409,-4,852,-42,13,5
631,-108,-141,1046,-14,-59,-5
632,292,-163,1162,8,-73,-3
633,382,-80,1101,21,-22,0
634,119,76,960,22,42,9
635,-247,126,846,-20,64,15
636,-419,28,822,-33,23,7
637,-160,-121,1021,-22,-50,-3
638,257,-171,1147,3,-76,-5
639,392,-85,1124,23,-32,0
640,169,41,988,13,35,8
641,-201,123,856,-5,64,15
642,-425,49,820,-32,32,9
643,-215,-107,977,-28,-42,-3
644,211,-161,1137,5,-76,-6
645,393,-106,1141,17,-40,-2
646,221,20,1008,21,27,6
647,-147,122,889,-1,64,16
648,-428,69,816,-38,42,10
649,-261,-94,938,-25,-32,-2
650,153,-151,1134,-1,-77,-5
651,385,-122,1124,12,-47,-1
652,275,5,1033,21,18,6
653,-106,129,895,-2,62,13
654,-401,64,825,-36,47,12
655,-304,-71,932,-29,-22,1
656,91,-163,1086,-5,-73,-7
657,383,-136,1149,18,-55,-1
658,300,3,1036,25,11,4
659,-45,113,908,1,58,14
660,-373,81,839,-29,53,14
661,-358,-36,904,-31,-11,-1
662,43,-161,1088,-11,-72,-5
663,364,-148,1148,10,-63,0
664,326,-17,1050,26,2,1
665,13,94,926,5,55,11
666,-351,101,834,-26,58,16
667,-390,-24,878,-30,-1,3
668,-15,-146,1077,-16,-68,-5
669,327,-154,1157,13,-68,-4
670,361,-60,1069,21,-9,2
671,63,92,942,13,49,13
672,-310,120,833,-16,65,15
673,-399,-12,858,-40,10,6
674,-96,-119,1057,-13,-60,-4
675,305,-165,1163,6,-72,-4
676,382,-80,1084,21,-18,1
677,104,80,968,18,43,10
678,-247,108,837,-19,65,15
679,-420,26,822,-33,21,6
680,-155,-123,1034,-18,-52,-5
681,267,-167,1153,5,-76,-3
682,394,-80,1109,31,-29,2
683,166,51,995,22,37,8
684,-207,119,851,-12,67,14
685,-423,45,823,-36,31,9
686,-206,-98,988,-25,-43,-1
687,214,-173,1136,-2,-77,-5
688,390,-109,1125,22,-37,-2
689,217,35,1022,18,27,9
690,-164,114,880,-4,65,17
691,-427,60,819,-37,39,10
692,-262,-85,948,-20,-35,-3
693,161,-165,1132,-3,-78,-4
694,385,-119,1124,17,-47,0
695,275,5,1026,22,19,6
696,-116,131,905,0,65,12
697,-402,65,816,-36,47,12
698,-304,-68,935,-28,-25,1
699,92,-169,1090,-7,-74,-6
700,381,-144,1137,18,-55,-2
701,307,2,1053,23,8,6
702,-45,111,897,4,60,13
703,-372,107,845,-24,54,11
704,-353,-41,905,-35,-10,2
705,41,-161,1088,-9,-72,-5
706,358,-137,1158,10,-62,-3
707,338,-35,1046,23,0,4
708,11,97,919,6,56,11
709,-347,105,843,-24,59,12
710,-385,-39,888,-33,-1,4
711,-32,-152,1066,-15,-65,-6
712,328,-143,1164,14,-70,-4
713,364,-58,1070,25,-12,2
714,70,98,943,10,49,12
715,-298,123,840,-17,63,15
716,-412,-5,847,-46,14,3
717,-99,-132,1043,-13,-60,-3
718,293,-168,1171,6,-73,-4
719,389,-88,1089,21,-21,1
720,112,74,969,21,42,10
721,-241,107,839,-19,64,15
722,-424,31,822,-30,24,6
723,-167,-113,1018,-23,-51,-5
724,261,-169,1158,1,-77,-4
725,388,-88,1118,23,-30,-2
726,180,49,999,14,33,8
727,-192,115,859,-11,64,18
728,-431,52,818,-31,34,8
729,-223,-103,976,-29,-42,-3
730,203,-171,1136,5,-78,-2
731,389,-103,1132,14,-41,-2
732,233,30,1023,24,24,6
733,-144,121,887,-4,65,15
734,-419,66,818,-37,41,11
735,-272,-79,941,-23,-30,0
736,136,-175,1110,-9,-77,-5
737,386,-129,1130,21,-50,-1
738,286,10,1044,26,16,8
739,-87,114,890,-4,62,15
740,-397,88,837,-28,50,11
741,-327,-53,908,-34,-19,0
742,75,-168,1089,-8,-74,-3
743,375,-138,1147,14,-58,-2
744,327,-14,1053,21,3,4
745,-24,100,907,6,59,11
746,-361,97,845,-26,57,13
747,-371,-35,894,-33,-7,4
748,2,-161,1082,-10,-71,-7
749,343,-151,1157,12,-66,-3
750,348,-35,1066,26,-7,3
751,44,98,934,4,52,11
752,-322,115,835,-20,61,14
753,-397,-6,868,-35,5,4
754,-69,-151,1056,-23,-63,-4
755,312,-153,1171,16,-72,-5
756,373,-64,1087,15,-16,0
757,92,71,950,15,46,11
758,-268,124,839,-15,64,15
759,-414,11,840,-41,17,6
760,-140,-133,1023,-16,-54,-5
761,272,-159,1154,7,-76,-4
762,398,-94,1106,19,-29,2
763,153,59,993,18,38,9
764,-219,131,851,-10,65,14
765,-418,34,813,-36,28,9
766,-205,-94,1000,-24,-45,-2
767,228,-176,1142,-2,-79,-6
768,393,-110,1123,22,-36,0
769,202,36,1014,18,29,8
770,-162,119,885,-3,64,16
771,-425,53,813,-40,38,10
772,-261,-85,947,-21,-33,-3
773,163,-161,1131,0,-79,-4
774,391,-132,1126,14,-47,0
775,271,18,1031,31,20,6
776,-111,123,901,-7,63,14
777,-403,72,817,-30,49,13
778,-313,-56,922,-31,-21,-1
779,89,-163,1102,-8,-76,-7
780,383,-154,1140,14,-56,-3
781,311,-4,1050,27,7,3
782,-38,110,898,3,60,14
783,-374,89,836,-29,56,14
784,-364,-35,899,-32,-11,0
785,34,-159,1090,-10,-74,-5
786,354,-145,1154,11,-63,-2
787,350,-33,1054,28,-3,3
788,26,101,932,7,55,12
789,-339,109,839,-24,61,15
790,-395,-13,878,-33,3,4
791,-49,-151,1061,-20,-65,-6
792,321,-161,1168,13,-69,-4
793,370,-69,1079,22,-15,1
794,80,87,950,16,48,11
795,-282,117,834,-14,64,15
796,-415,16,837,-40,16,5
797,-127,-129,1034,-16,-57,-6
798,284,-160,1169,5,-75,-5
799,391,-88,1097,19,-25,0
800,145,59,986,17,39,10
801,-224,118,842,-15,66,16
802,-432,32,810,-33,29,7
803,-197,-106,1007,-26,-46,-4
804,234,-172,1152,3,-79,-2
805,397,-100,1119,21,-34,-2
806,203,40,1009,17,31,8
807,-167,115,872,-5,66,16
808,-423,71,828,-35,38,10
809,-249,-91,952,-29,-35,-1
810,158,-161,1123,3,-77,-5
811,389,-117,1131,10,-46,-1
812,267,2,1032,25,20,6
813,-114,121,895,-5,62,13
814,-403,70,820,-31,46,11
815,-303,-72,922,-27,-23,-1
816,94,-160,1094,-7,-76,-6
817,386,-134,1146,20,-56,-2
818,307,-8,1041,23,10,6
819,-45,115,904,7,59,13
820,-366,102,850,-29,54,15
821,-357,-38,889,-36,-10,0
822,33,-158,1091,-9,-72,-5
823,352,-150,1156,9,-60,0
824,340,-44,1056,25,-1,4
825,20,97,927,7,54,11
826,-339,112,832,-20,59,14
827,-393,-23,877,-33,2,4
828,-43,-133,1076,-13,-67,-6
829,321,-158,1169,10,-69,-4
830,373,-66,1075,22,-12,1
831,75,94,942,13,48,10
832,-283,107,835,-18,64,15
833,-410,8,844,-39,13,6
834,-132,-127,1037,-18,-56,-5
835,288,-175,1163,5,-76,-3
836,397,-83,1096,22,-25,2
837,134,65,991,20,41,9
838,-225,118,837,-16,65,13
839,-427,40,824,-33,26,8
840,-190,-105,996,-25,-47,-3
841,242,-170,1150,2,-77,-3
842,394,-107,1128,19,-35,-2
843,201,41,1010,19,31,6
844,-168,119,872,-3,65,17
845,-431,57,812,-38,39,9
846,-249,-80,955,-24,-35,-3
847,172,-173,1137,-4,-79,-5
848,390,-129,1127,16,-45,-1
849,266,30,1043,29,20,5
850,-113,96,883,-12,63,14
851,-412,87,824,-24,48,11
852,-305,-62,920,-32,-25,-2
853,101,-173,1100,-9,-77,-4
854,375,-135,1144,18,-54,-3
855,320,-10,1046,21,7,5
856,-48,111,902,7,61,14
857,-369,98,840,-25,56,13
858,-358,-33,899,-34,-10,3
859,26,-163,1080,-10,-72,-4
860,353,-145,1150,11,-61,-3
861,340,-31,1064,26,-3,5
862,29,88,929,6,55,13
863,-344,116,840,-20,61,12
864,-387,-22,872,-34,0,4
865,-46,-148,1073,-17,-66,-4
866,315,-149,1163,13,-68,-4
867,377,-71,1077,18,-16,2
868,74,88,944,17,49,11
869,-282,122,844,-16,65,13
870,-404,0,838,-42,14,7
871,-134,-124,1030,-13,-56,-4
872,286,-163,1165,2,-75,-5
873,393,-96,1099,22,-25,1
874,145,64,990,19,41,9
875,-223,130,840,-12,66,15
876,-427,29,811,-37,27,7
877,-197,-107,1000,-23,-47,-4
878,232,-153,1159,4,-78,-4
879,397,-122,1115,16,-36,0
880,206,41,1012,21,29,7
881,-164,125,881,-6,65,17
882,-431,48,805,-39,41,10
883,-258,-75,959,-22,-35,-3
884,158,-176,1124,-5,-78,-4
885,389,-119,1133,14,-48,-2
886,278,12,1031,27,19,7
887,-107,117,896,-6,64,14
888,-403,75,820,-28,49,10
889,-312,-61,926,-31,-23,2
890,83,-153,1090,-7,-76,-5
891,377,-144,1146,13,-57,-2
892,316,-18,1049,24,8,3
893,-33,114,907,10,58,15
894,-370,96,843,-32,57,12
895,-364,-40,886,-34,-8,1
896,20,-149,1087,-10,-72,-4
897,351,-154,1161,9,-65,-4
898,343,-35,1056,30,-3,2
899,37,101,937,4,53,13
900,-332,104,832,-23,62,13
901,-398,-15,864,-35,5,2
902,-58,-146,1067,-20,-65,-4
903,308,-160,1160,14,-69,-5
904,377,-62,1094,21,-17,1
905,86,77,950,13,45,12
906,-271,121,836,-12,65,15
907,-410,12,836,-41,17,7
908,-139,-117,1034,-14,-55,-6
909,281,-176,1157,2,-76,-4
910,393,-82,1108,26,-27,2
911,152,54,995,14,39,9
912,-217,116,841,-13,68,14
913,-428,46,818,-32,27,9
914,-207,-101,990,-28,-47,-3
915,220,-168,1143,7,-78,-6
916,403,-109,1134,17,-39,1
917,223,34,1021,21,28,8
918,-161,119,875,-4,67,12
919,-426,61,812,-39,40,10
920,-271,-80,950,-25,-32,-1
921,149,-170,1118,-5,-78,-5
922,388,-130,1129,15,-50,-1
923,280,3,1036,27,18,4
924,-90,114,903,-5,61,14
925,-393,85,829,-27,49,14
926,-325,-51,904,-32,-18,1
927,72,-166,1088,-10,-75,-5
928,375,-140,1154,16,-58,-1
929,321,-18,1053,19,5,4
930,-23,98,902,9,59,12
931,-359,102,843,-27,56,13
932,-368,-32,894,-30,-8,2
933,4,-153,1079,-13,-71,-5
934,343,-143,1163,11,-66,-4
935,350,-48,1063,25,-5,2
936,43,98,940,5,51,11
937,-315,110,836,-20,61,16
938,-402,-9,861,-38,7,4
939,-83,-141,1048,-18,-62,-6
940,308,-165,1168,11,-72,-4
941,387,-75,1096,18,-19,3
942,97,79,952,19,45,9
943,-256,118,842,-18,65,16
944,-418,24,819,-35,21,6
945,-157,-109,1030,-18,-53,-5
946,267,-170,1155,2,-75,-3
947,396,-101,1112,20,-29,1
948,168,52,998,16,36,8
949,-197,115,860,-12,65,15
950,-426,43,806,-31,32,7
951,-228,-99,978,-27,-43,-3
952,205,-169,1144,5,-78,-4
953,390,-110,1134,17,-42,-1
954,235,35,1023,25,25,7
955,-141,124,885,-5,64,15
956,-421,69,815,-37,42,10
957,-274,-75,936,-24,-29,-1
958,128,-164,1117,-10,-76,-5
959,380,-145,1125,15,-50,-1
960,295,-1,1044,26,14,5
961,-80,125,903,1,62,14
962,-388,79,823,-29,51,11
963,-337,-45,912,-32,-17,1
964,61,-168,1081,-8,-74,-6
965,369,-141,1159,15,-60,-3
966,332,-22,1054,22,3,5
967,-4,100,917,9,58,12
968,-353,109,838,-27,59,12
969,-377,-31,878,-33,-4,4
970,-18,-152,1079,-15,-68,-7
971,337,-143,1169,15,-67,-4
972,356,-61,1070,20,-9,2
973,60,89,943,10,50,10
974,-300,122,831,-15,63,14
975,-414,-8,843,-42,12,4
976,-97,-135,1051,-13,-60,-6
977,300,-160,1172,9,-73,-3
978,387,-80,1098,19,-20,2
979,119,67,967,18,42,10
980,-247,134,845,-13,65,13
981,-414,26,814,-41,22,8
982,-179,-119,1011,-23,-50,-4
983,247,-165,1151,4,-76,-6
984,399,-108,1124,23,-33,0
985,186,40,1001,18,34,7
986,-181,134,865,-3,64,14
987,-422,49,807,-38,35,8
988,-244,-83,970,-22,-38,-2
989,190,-160,1145,0,-79,-5
990,389,-128,1128,8,-44,-2
991,246,18,1020,29,24,4
992,-125,118,897,-5,62,15
993,-417,68,816,-34,45,12
994,-291,-78,918,-25,-28,-2
995,107,-150,1116,-7,-77,-5
996,387,-147,1136,17,-53,-2
997,303,1,1048,22,12,4
998,-62,123,903,3,60,13
999,-376,74,823,-31,54,14
1000,-355,-36,904,-32,-13,1
1001,41,-167,1083,-9,-73,-5
1002,364,-149,1160,12,-61,-1
1003,331,-30,1057,25,0,3
1004,20,100,927,7,56,11
1005,-345,114,837,-24,60,16
1006,-390,-23,865,-35,0,3
1007,-29,-142,1085,-15,-67,-5
1008,318,-155,1158,11,-67,-5
1009,371,-64,1081,20,-13,2
1010,71,88,945,11,49,11
1011,-287,108,829,-18,62,14
1012,-411,10,846,-38,14,4
1013,-117,-129,1034,-17,-58,-3
1014,288,-169,1162,6,-75,-5
1015,387,-83,1102,20,-24,0
1016,137,64,984,20,42,11
1017,-229,123,841,-16,65,14
1018,-422,35,812,-29,28,7
1019,-186,-109,1006,-16,-46,-2
1020,240,-166,1154,2,-78,-3
1021,393,-105,1121,25,-34,-1
1022,203,44,1015,13,30,9
1023,-174,124,871,0,67,14
1024,-424,52,814,-43,37,8
1025,-247,-86,955,-22,-37,0
1026,163,-170,1128,-3,-77,-5
1027,389,-133,1132,13,-45,-4
1028,262,20,1042,32,19,6
1029,-114,113,890,-9,63,14
1030,-401,74,813,-27,46,12
1031,-312,-51,924,-30,-24,-1
1032,97,-174,1094,-7,-76,-5
1033,382,-134,1150,18,-56,-2
1034,307,0,1049,19,9,4
1035,-35,97,892,3,59,15
1036,-371,106,844,-26,56,13
1037,-361,-35,899,-37,-11,-1
1038,27,-173,1071,-10,-71,-4
1039,351,-140,1163,13,-63,-2
1040,350,-39,1065,26,-3,2
1041,32,94,929,9,55,12
1042,-334,116,831,-22,61,13
1043,-397,-9,874,-33,4,2
1044,-53,-147,1057,-18,-66,-4
1045,315,-154,1174,15,-70,-3
1046,378,-73,1089,16,-16,0
1047,85,79,947,19,46,9
1048,-275,121,839,-18,64,14
1049,-411,10,832,-40,17,6
1050,-142,-125,1018,-13,-55,-5
1051,278,-159,1174,3,-75,-5
1052,395,-106,1106,19,-27,1
1053,153,75,1003,24,40,11
1054,-212,124,839,-15,65,15
1055,-427,28,807,-36,30,8
1056,-207,-92,996,-24,-45,-2
1057,217,-171,1144,1,-78,-4
1058,396,-122,1130,18,-39,-1
1059,209,43,1023,25,28,6
1060,-153,111,876,-8,64,15
1061,-420,68,816,-34,41,11
1062,-272,-74,936,-25,-32,-3
1063,152,-170,1129,-5,-78,-5
1064,391,-125,1129,15,-49,1
1065,277,13,1044,26,19,4
1066,-93,104,891,-6,63,12
1067,-396,82,828,-23,50,13
1068,-328,-53,915,-36,-20,-1
1069,79,-176,1078,-8,-76,-5
1070,372,-134,1156,20,-58,-2
1071,325,-15,1050,22,5,3
1072,-14,105,919,9,58,13
1073,-364,109,836,-28,57,13
1074,-375,-20,886,-32,-6,2
1075,2,-157,1084,-16,-71,-4
1076,339,-164,1162,9,-64,-4
1077,357,-39,1072,29,-8,3
1078,44,81,934,2,51,11
1079,-316,112,828,-14,63,14
1080,-409,0,857,-40,7,4
1081,-84,-147,1057,-18,-63,-4
1082,305,-153,1174,16,-73,-3
1083,380,-76,1090,15,-18,1
1084,115,73,970,19,43,11
1085,-256,131,826,-16,66,13
1086,-421,15,825,-42,20,5
1087,-156,-122,1023,-17,-52,-2
1088,255,-159,1157,2,-76,-4
1089,393,-114,1109,20,-31,-2
1090,183,53,1012,22,34,9
1091,-201,132,853,-9,66,14
1092,-424,41,812,-35,33,7
1093,-229,-94,969,-25,-41,-3
1094,195,-164,1146,3,-79,-4
1095,395,-119,1135,12,-42,-2
1096,238,15,1021,26,26,8
1097,-137,125,892,-5,66,14
1098,-418,75,813,-36,44,11
1099,-282,-78,928,-26,-29,-1
1100,120,-163,1114,-6,-77,-6
1101,392,-133,1145,19,-52,-1
1102,296,-2,1039,22,14,5
1103,-68,115,895,3,61,13
1104,-383,90,835,-28,52,13
1105,-345,-52,898,-37,-16,-1
1106,55,-154,1084,-2,-73,-6
1107,365,-140,1166,8,-61,-2
1108,336,-42,1047,24,1,2
1109,7,108,928,12,57,13
1110,-351,120,836,-27,60,14
1111,-387,-29,873,-33,-1,3
1112,-24,-151,1074,-16,-67,-3
1113,328,-150,1164,15,-68,-3
1114,363,-66,1077,20,-11,1
1115,66,84,940,14,50,10
1116,-290,119,842,-16,62,17
1117,-413,4,841,-39,13,6
1118,-112,-123,1034,-16,-59,-7
1119,292,-162,1177,5,-76,-5
1120,392,-91,1097,18,-24,2
1121,134,74,981,20,42,11
1122,-236,112,830,-20,67,14
1123,-423,26,816,-32,26,8
1124,-183,-93,1012,-17,-48,-3
1125,242,-175,1154,-2,-79,-4
1126,399,-107,1122,22,-35,-2
1127,193,48,1015,15,31,7
1128,-171,109,866,-8,63,13
1129,-422,67,818,-32,36,9
1130,-249,-81,952,-28,-36,-2
1131,175,-171,1136,-1,-79,-5
1132,387,-120,1136,13,-44,-1
1133,260,25,1039,29,21,6
1134,-114,109,885,-11,65,13
1135,-409,72,816,-30,47,11
1136,-304,-66,917,-30,-24,-1
1137,99,-179,1100,-8,-76,-5
1138,377,-129,1154,23,-54,0
1139,310,-10,1036,19,9,5
1140,-49,115,905,5,60,13
1141,-369,105,846,-27,54,12
1142,-349,-53,881,-40,-12,1
1143,29,-162,1086,-7,-71,-4
1144,354,-141,1158,9,-62,-3
1145,345,-45,1057,25,-1,5
1146,17,99,938,11,56,11
1147,-339,112,834,-23,60,12
1148,-395,-17,869,-33,1,4
1149,-46,-147,1061,-19,-65,-4
1150,321,-151,1171,14,-69,-4
1151,370,-75,1082,17,-15,1
1152,80,91,954,17,48,10
1153,-282,130,835,-13,64,13
1154,-413,9,829,-43,16,5
1155,-133,-124,1037,-15,-57,-3
1156,282,-169,1164,1,-76,-4
1157,401,-104,1106,21,-26,2
1158,138,65,988,22,42,8
1159,-216,121,842,-17,64,15
1160,-426,38,818,-32,28,9
1161,-203,-111,991,-24,-47,-4
1162,229,-156,1154,7,-78,-4
1163,396,-109,1131,16,-38,0
1164,215,45,1014,23,29,6
1165,-158,117,878,-9,66,16
1166,-425,59,809,-35,40,11
1167,-265,-84,936,-25,-33,-1
1168,146,-178,1125,-3,-78,-6
1169,393,-125,1148,18,-50,0
1170,273,6,1031,29,18,7
1171,-101,122,899,-2,63,13
1172,-395,79,818,-29,49,13
1173,-317,-52,912,-32,-21,0
1174,83,-167,1093,-12,-77,-6
1175,377,-143,1155,19,-57,-2
1176,314,-18,1046,22,8,3
1177,-26,98,910,4,58,14
1178,-362,103,837,-24,55,13
1179,-369,-29,887,-33,-8,0
1180,19,-162,1082,-13,-72,-4
1181,345,-142,1167,11,-63,-2
1182,347,-41,1061,25,-6,0
1183,37,100,934,8,53,9
1184,-321,108,834,-19,63,15
1185,-398,-11,858,-37,6,5
1186,-68,-141,1066,-17,-64,-5
1187,315,-171,1167,11,-72,-4
1188,375,-70,1083,21,-16,1
1189,93,92,963,18,45,11
1190,-258,109,818,-21,66,15
1191,-421,22,833,-38,19,6
1192,-148,-129,1034,-17,-55,-4
1193,270,-163,1160,4,-76,-5
1194,395,-88,1118,20,-29,2
1195,165,46,988,18,38,9
1196,-210,129,847,-10,66,14
1197,-423,45,812,-35,31,8
1198,-216,-102,983,-27,-44,-2
1199,209,-169,1147,6,-76,-6
1200,397,-123,1132,15,-38,-1
1201,218,30,1030,26,27,8
1202,-150,116,872,-6,65,13
1203,-418,76,818,-34,40,11
1204,-275,-81,930,-26,-31,0
1205,143,-161,1128,-3,-78,-6
1206,379,-129,1134,14,-49,-2
1207,287,2,1049,24,15,5
1208,-86,117,895,-3,62,13
1209,-393,81,814,-28,51,12
1210,-325,-52,909,-33,-19,1
1211,64,-165,1084,-8,-75,-6
1212,375,-149,1163,14,-59,-2
1213,326,-22,1053,24,4,4
1214,-16,123,914,12,60,11
1215,-355,88,835,-37,56,12
1216,-372,-29,877,-30,-6,5
1217,-3,-139,1088,-12,-69,-5
1218,341,-170,1150,6,-66,-5
1219,352,-40,1082,32,-7,2
1220,54,97,941,4,50,12
1221,-318,121,832,-15,63,12
1222,-410,-13,850,-40,8,3
1223,-87,-144,1045,-17,-63,-3
1224,309,-152,1187,14,-72,-3
1225,384,-92,1081,15,-18,0
1226,102,80,971,24,43,9
1227,-250,133,838,-16,64,16
1228,-415,16,810,-39,21,7
1229,-165,-107,1024,-19,-51,-5
1230,262,-175,1165,1,-78,-5
1231,393,-106,1118,23,-30,1
1232,174,59,1004,17,35,8
1233,-196,120,853,-11,66,14
1234,-428,46,797,-34,34,9
1235,-227,-83,984,-23,-42,-1
1236,198,-175,1147,2,-77,-5
1237,396,-121,1131,14,-43,-1
1238,232,37,1031,25,24,6
1239,-133,115,886,-7,63,12
1240,-412,66,804,-34,43,11
1241,-282,-66,929,-25,-29,0
1242,123,-169,1118,-6,-76,-6
1243,381,-139,1141,17,-52,-3
1244,295,-1,1049,23,14,5
1245,-74,120,901,2,61,12
1246,-384,88,818,-27,52,13
1247,-333,-52,900,-36,-16,2
1248,61,-159,1087,-6,-74,-5
1249,366,-145,1160,11,-59,-3
1250,331,-30,1057,24,2,3
1251,-6,107,927,11,58,11
1252,-352,104,833,-29,58,13
1253,-383,-27,869,-30,-3,5
1254,-13,-149,1081,-16,-69,-5
1255,337,-152,1167,14,-67,-3
1256,359,-59,1075,25,-10,2
1257,57,93,940,8,50,9
1258,-304,119,830,-15,64,14
1259,-405,0,849,-41,10,5
1260,-103,-134,1045,-17,-59,-4
1261,294,-178,1169,6,-74,-4
1262,391,-83,1100,20,-22,0
1263,116,79,974,22,43,10
1264,-237,114,832,-20,65,14
1265,-419,39,817,-31,24,9
1266,-182,-117,1009,-25,-50,-4
1267,250,-170,1159,5,-76,-6
1268,399,-93,1129,22,-34,0
1269,186,37,1002,14,33,9
1270,-181,135,863,-1,66,14
1271,-422,48,807,-41,36,10
1272,-239,-100,960,-27,-39,0
1273,184,-153,1151,3,-78,-4
1274,393,-135,1140,12,-44,0
1275,244,18,1025,29,24,6
1276,-133,128,895,-3,64,12
1277,-407,58,800,-36,44,12
1278,-296,-61,922,-21,-27,1
1279,115,-161,1108,-10,-77,-6
1280,385,-138,1153,17,-54,-1
1281,296,-4,1049,25,13,3
1282,-54,113,898,2,60,15
1283,-376,86,831,-27,52,14
1284,-350,-44,885,-33,-13,-2
1285,51,-161,1092,-5,-73,-5
1286,355,-153,1164,9,-59,-2
1287,337,-29,1058,27,0,3
1288,4,107,927,9,57,11
1289,-346,101,828,-27,60,14
1290,-389,-8,881,-28,-1,5
1291,-21,-155,1067,-21,-68,-4
1292,326,-162,1169,14,-67,-3
1293,362,-52,1085,23,-10,1
1294,71,88,939,9,50,12
1295,-303,117,827,-14,65,13
1296,-404,5,851,-39,10,5
1297,-109,-133,1032,-15,-60,-4
1298,292,-162,1168,8,-75,-4
1299,394,-89,1106,19,-22,1
1300,126,79,978,23,42,8
1301,-236,121,834,-19,66,14
1302,-424,25,806,-34,26,9
1303,-180,-102,1012,-22,-49,-4
1304,247,-183,1159,0,-78,-5
1305,392,-99,1130,28,-32,0
1306,196,48,1011,15,31,10
1307,-180,118,848,-7,66,14
1308,-423,72,821,-35,36,9
1309,-241,-97,952,-31,-39,-1
1310,178,-167,1143,5,-77,-6
1311,388,-118,1139,12,-44,-2
1312,250,13,1032,28,22,8
1313,-123,125,887,-6,64,13
1314,-407,68,809,-34,46,13
1315,-299,-69,921,-26,-25,0
1316,110,-168,1104,-11,-77,-6
1317,381,-138,1154,19,-55,-2
1318,304,-5,1052,23,10,4
1319,-56,117,895,4,61,13
1320,-376,100,836,-30,54,13
1321,-349,-45,890,-36,-14,2
1322,42,-160,1081,-8,-73,-5
1323,359,-147,1164,10,-62,-3
1324,340,-42,1059,24,-1,4
1325,13,106,934,10,56,13
1326,-345,111,829,-27,59,13
1327,-392,-19,864,-34,1,4
1328,-43,-144,1073,-19,-67,-5
1329,332,-164,1172,12,-70,-3
1330,365,-62,1086,22,-11,2
1331,77,87,948,11,49,11
1332,-286,125,831,-13,63,15
1333,-414,4,833,-44,16,5
1334,-122,-129,1047,-14,-57,-3
1335,287,-162,1170,5,-75,-4
1336,392,-104,1095,18,-23,0
1337,135,69,987,25,41,10
1338,-229,130,839,-18,64,14
1339,-422,20,800,-36,27,8
1340,-190,-94,1016,-21,-49,-3
1341,238,-166,1156,2,-78,-5
1342,399,-113,1122,19,-35,-2
1343,194,57,1019,21,30,7
1344,-170,112,864,-10,66,14
1345,-427,57,808,-39,38,11
1346,-251,-87,958,-28,-38,-2
1347,174,-183,1130,-3,-78,-5
1348,386,-129,1136,14,-45,-1
1349,265,21,1043,32,21,5
1350,-115,121,892,-4,65,15
1351,-412,78,800,-30,47,12
1352,-305,-54,923,-28,-25,-1
1353,101,-166,1099,-9,-76,-6
1354,386,-140,1152,17,-54,0
1355,311,-2,1056,27,13,5
1356,-47,106,898,3,62,13
1357,-376,96,831,-27,54,12
1358,-359,-46,887,-37,-11,3
1359,32,-167,1090,-3,-71,-5
1360,359,-149,1157,11,-64,-3
1361,340,-29,1065,30,-2,3
1362,25,107,935,7,56,10
1363,-335,119,828,-20,59,15
1364,-390,-14,872,-38,2,5
1365,-45,-146,1064,-16,-65,-6
1366,319,-164,1168,10,-70,-3
1367,374,-75,1084,20,-13,3
1368,78,86,949,16,47,10
1369,-284,129,833,-13,65,13
1370,-413,1,831,-45,15,6
1371,-132,-134,1035,-12,-58,-5
1372,287,-156,1169,6,-75,-5
1373,396,-98,1102,16,-25,1
1374,140,63,988,22,41,8
1375,-219,135,850,-13,65,14
1376,-418,32,801,-37,28,10
1377,-202,-107,993,-25,-45,-4
1378,233,-167,1163,5,-77,-5
1379,399,-122,1131,17,-37,1
1380,199,42,1016,23,31,6
1381,-170,124,873,-4,66,15
1382,-425,57,806,-35,38,10
1383,-251,-76,949,-25,-37,-1
1384,169,-172,1133,-2,-77,-4
1385,387,-123,1141,15,-46,-1
1386,267,10,1035,27,21,6
1387,-110,122,895,-5,65,14
1388,-406,83,811,-29,48,12
1389,-307,-68,914,-31,-23,-2
1390,93,-164,1102,-8,-76,-8
1391,382,-149,1150,18,-58,-1
1392,312,-9,1046,24,9,4
1393,-47,120,905,7,61,11
1394,-370,96,843,-30,54,11
1395,-355,-38,885,-34,-11,3
1396,22,-152,1078,-10,-71,-6
1397,355,-153,1161,7,-64,-5
1398,346,-42,1065,28,-3,4
1399,25,112,943,9,55,12
1400,-334,106,826,-25,62,14
1401,-400,-21,861,-35,4,4
1402,-48,-138,1067,-16,-67,-5
1403,318,-169,1171,12,-71,-3
1404,374,-65,1087,25,-14,2
1405,83,99,947,16,48,11
1406,-278,119,831,-18,64,15
1407,-411,9,836,-39,17,6
1408,-129,-129,1031,-17,-57,-5
1409,281,-170,1167,4,-74,-4
1410,393,-98,1110,20,-26,0
1411,143,70,989,25,39,9
1412,-216,126,835,-17,65,15
1413,-424,38,812,-32,29,8
1414,-196,-94,1001,-26,-48,-3
1415,233,-182,1149,-3,-77,-5
1416,394,-108,1138,22,-35,-1
1417,207,46,1015,19,29,7
1418,-169,111,863,-7,66,15
1419,-424,65,816,-35,38,10
1420,-257,-79,947,-23,-35,-2
1421,164,-184,1127,-6,-78,-5
1422,393,-119,1142,18,-47,-1
1423,268,10,1046,26,21,7
1424,-110,113,886,-6,63,13
1425,-402,91,826,-26,45,13
1426,-316,-58,907,-33,-21,-2
1427,92,-173,1089,-8,-75,-6
1428,382,-142,1157,17,-57,0
1429,311,-2,1055,25,9,3
1430,-37,103,899,1,60,13
1431,-373,106,841,-23,55,12
1432,-357,-44,879,-38,-11,2
1433,24,-159,1085,-8,-71,-4
1434,350,-143,1159,12,-64,-2
1435,348,-47,1062,26,-3,3
1436,26,108,944,10,56,10
1437,-330,104,820,-24,61,12
1438,-394,-12,869,-32,3,5
1439,-60,-143,1063,-20,-66,-7
1440,323,-165,1171,15,-71,-3
1441,370,-60,1094,20,-13,3
1442,84,81,945,15,46,11
1443,-272,121,837,-16,64,15
1444,-415,12,833,-40,17,6
1445,-133,-130,1032,-15,-56,-4
1446,276,-171,1160,2,-74,-4
1447,394,-95,1109,22,-26,0
1448,146,65,995,21,39,9
1449,-215,132,844,-14,66,16
1450,-421,34,804,-36,29,9
1451,-204,-104,994,-27,-45,-4
1452,233,-157,1158,6,-77,-4
1453,397,-136,1120,11,-36,1
1454,201,54,1026,28,30,5
1455,-163,119,870,-10,64,15
1456,-423,47,798,-36,38,11
1457,-260,-58,955,-17,-34,-3
1458,166,-188,1128,-9,-78,-5
1459,388,-124,1133,19,-46,0
1460,267,34,1056,30,19,4
1461,-103,97,879,-11,64,12
1462,-403,90,816,-24,47,14
1463,-314,-64,913,-35,-22,0
1464,93,-175,1093,-8,-75,-6
1465,376,-135,1157,17,-57,-2
1466,316,-16,1044,20,8,4
1467,-39,112,910,11,59,12
1468,-364,98,828,-29,55,13
1469,-363,-38,892,-35,-9,3
1470,27,-155,1085,-8,-71,-5
1471,346,-150,1162,11,-62,-3
1472,343,-43,1061,26,-4,2
1473,35,103,942,8,53,14
1474,-340,117,823,-23,62,14
1475,-396,-26,859,-36,3,2
1476,-48,-139,1075,-15,-66,-3
1477,318,-166,1169,13,-70,-2
1478,375,-71,1085,20,-14,2
1479,80,91,956,15,47,12
1480,-284,117,820,-17,65,13
1481,-413,23,841,-36,15,5
1482,-130,-140,1021,-21,-58,-3
1483,277,-158,1178,7,-75,-5
1484,400,-95,1107,18,-28,1
1485,144,52,980,20,40,10
1486,-221,141,850,-12,66,14
1487,-423,27,793,-39,29,8
1488,-204,-103,1007,-21,-46,-2
1489,230,-170,1151,3,-78,-4
1490,393,-111,1130,19,-37,-1
1491,208,33,1012,20,28,6
1492,-163,127,880,1,65,14
1493,-420,64,805,-38,39,9
1494,-256,-86,945,-26,-34,-3
1495,159,-164,1136,-1,-76,-6
1496,386,-121,1141,12,-46,-1
1497,269,4,1027,24,19,5
1498,-110,120,898,-5,62,14
1499,-402,78,819,-28,48,11
1500,-308,-68,910,-34,-24,0
1501,90,-161,1099,-7,-75,-5
1502,380,-149,1154,15,-56,-2
1503,312,-9,1051,23,8,4
1504,-41,120,907,7,59,13
1505,-366,92,826,-30,55,13
1506,-364,-26,884,-31,-10,0
1507,24,-160,1087,-13,-72,-6
1508,362,-155,1168,9,-65,-2
1509,336,-31,1065,27,-2,3
1510,29,81,923,5,55,11
1511,-335,120,838,-17,62,14
1512,-400,-19,854,-37,3,3
1513,-46,-145,1068,-16,-66,-4
1514,313,-160,1173,14,-70,-4
1515,377,-76,1091,19,-15,0
1516,86,94,955,20,48,12
1517,-278,118,825,-20,66,16
1518,-415,17,833,-38,15,4
1519,-136,-118,1029,-16,-56,-3
1520,284,-167,1171,0,-76,-4
1521,395,-92,1107,19,-27,-1
1522,148,58,993,20,39,8
1523,-216,113,839,-17,65,15
1524,-429,44,809,-31,28,9
1525,-206,-107,985,-29,-47,-4
1526,227,-180,1155,6,-79,-6
1527,395,-101,1139,23,-38,0
1528,215,33,1008,17,29,9
1529,-160,123,883,-5,64,13
1530,-423,76,817,-35,39,9
1531,-258,-89,931,-29,-35,0
1532,151,-165,1133,-1,-78,-6
1533,389,-135,1137,13,-47,-2
1534,272,7,1041,26,19,5
1535,-105,116,894,-2,63,13
1536,-398,68,812,-32,48,13
1537,-319,-56,909,-31,-21,2
1538,80,-162,1095,-7,-76,-6
1539,383,-145,1161,19,-58,-2
1540,311,-4,1049,26,7,2
1541,-27,112,901,3,58,11
1542,-364,109,836,-26,56,15
1543,-366,-29,890,-36,-8,2
1544,15,-158,1088,-12,-70,-5
1545,346,-155,1158,6,-64,-4
1546,349,-44,1078,25,-5,3
1547,29,83,921,6,55,11
1548,-326,113,836,-16,62,15
1549,-400,-2,864,-31,5,5
1550,-67,-146,1045,-22,-66,-5
1551,315,-152,1183,17,-73,-4
1552,379,-68,1095,17,-16,0
1553,97,82,951,17,45,11
1554,-271,125,827,-17,66,16
1555,-413,9,826,-41,18,6
1556,-148,-126,1025,-16,-54,-5
1557,274,-171,1170,3,-77,-3
1558,396,-104,1112,21,-29,1
1559,150,59,993,22,39,6
1560,-206,126,840,-11,65,14
1561,-424,46,810,-36,30,10
1562,-209,-96,984,-26,-45,-4
1563,225,-164,1155,3,-79,-4
1564,394,-126,1133,15,-37,0
1565,216,41,1020,24,29,7
1566,-153,118,874,-5,65,16
1567,-423,55,805,-37,42,10
1568,-272,-74,947,-23,-32,-2
1569,151,-174,1128,-4,-79,-4
1570,386,-130,1133,18,-49,-1
1571,276,14,1042,27,18,4
1572,-85,111,894,-4,62,14
1573,-399,102,822,-23,50,11
1574,-319,-62,903,-38,-20,-1
1575,80,-164,1097,-8,-76,-5
1576,370,-143,1159,14,-56,-2
1577,323,-23,1052,19,5,5
1578,-26,113,914,11,60,14
1579,-364,91,821,-32,58,13
1580,-374,-33,884,-26,-8,2
1581,10,-147,1093,-11,-71,-4
1582,346,-160,1156,6,-65,-4
1583,351,-42,1072,27,-7,2
1584,43,103,940,8,53,11
1585,-320,105,821,-21,62,15
1586,-405,0,857,-35,7,4
1587,-75,-143,1053,-19,-62,-5
1588,305,-172,1173,11,-72,-4
1589,382,-73,1099,20,-18,2
1590,99,75,954,20,46,11
1591,-262,130,829,-13,65,13
1592,-413,21,822,-39,20,7
1593,-152,-120,1027,-18,-53,-3
1594,267,-158,1166,5,-76,-4
1595,393,-101,1108,18,-29,0
1596,164,51,1003,18,36,8
1597,-200,128,853,-8,66,15
1598,-423,41,804,-35,33,9
1599,-217,-94,975,-26,-44,-3
1600,206,-168,1149,6,-79,-6
1601,395,-116,1134,17,-41,-1
1602,230,32,1028,23,25,8
1603,-153,125,884,-5,66,12
1604,-420,72,804,-39,42,10
1605,-274,-78,934,-25,-30,-1
1606,135,-168,1123,-8,-79,-6
1607,381,-130,1136,18,-50,-4
1608,292,-15,1047,23,15,7
1609,-87,123,895,3,64,13
1610,-389,97,834,-25,50,11
1611,-329,-67,884,-39,-18,0
1612,65,-139,1095,2,-74,-6
1613,374,-154,1163,5,-59,-3
1614,326,-36,1045,26,3,4
1615,-15,136,937,13,58,12
1616,-351,92,824,-35,58,14
1617,-380,-26,874,-31,-4,4
1618,-13,-147,1085,-19,-68,-7
1619,344,-174,1165,10,-68,-3
1620,353,-39,1077,30,-8,3
1621,58,82,930,3,51,10
1622,-310,118,837,-13,62,13
1623,-408,9,846,-39,10,4
1624,-94,-141,1046,-21,-61,-4
1625,307,-158,1175,12,-75,-3
1626,391,-80,1093,15,-20,2
1627,111,71,972,21,44,8
1628,-249,126,836,-16,66,15
1629,-419,24,818,-39,23,8
1630,-172,-121,1007,-19,-51,-4
1631,258,-173,1164,0,-76,-3
1632,395,-109,1119,24,-32,2
1633,176,62,1004,19,34,8
1634,-186,115,863,-9,64,15
1635,-424,55,811,-34,35,9
1636,-234,-80,965,-26,-40,-2
1637,196,-177,1145,1,-77,-6
1638,395,-117,1137,16,-42,-1
1639,234,32,1024,28,23,5
1640,-128,104,886,-10,65,15
1641,-420,84,816,-27,44,12
1642,-291,-68,923,-29,-29,-2
1643,127,-188,1106,-10,-78,-4
1644,382,-124,1152,24,-52,-1
1645,304,-8,1036,21,12,3
1646,-66,113,906,4,62,14
1647,-387,100,833,-27,53,12
1648,-343,-46,894,-37,-16,1
1649,41,-160,1085,-6,-73,-6
1650,371,-149,1162,9,-62,-3
1651,335,-37,1056,24,0,3
1652,7,106,934,10,57,11
1653,-346,107,829,-28,60,13
1654,-388,-16,867,-30,-2,2
1655,-28,-151,1076,-20,-68,-5
1656,329,-161,1163,14,-69,-3
1657,369,-64,1086,23,-12,2
1658,61,97,945,15,50,9
1659,-290,121,831,-18,63,16
1660,-414,6,842,-43,14,6
1661,-113,-136,1031,-18,-59,-5
1662,294,-170,1170,6,-76,-4
1663,392,-82,1105,22,-22,2
1664,126,61,980,20,42,9
1665,-231,131,841,-16,65,16
1666,-427,33,803,-35,26,8
1667,-185,-114,1008,-25,-49,-5
1668,244,-161,1160,6,-78,-5
1669,401,-117,1124,17,-36,1
1670,194,49,1012,24,33,8
1671,-177,124,871,-8,67,14
1672,-426,53,804,-37,37,10
1673,-251,-81,955,-23,-37,-2
1674,175,-174,1136,0,-77,-5
1675,392,-128,1137,14,-45,-1
1676,261,19,1040,30,22,5
1677,-117,122,894,-4,64,13
1678,-407,72,810,-35,46,13
1679,-308,-63,916,-27,-24,-1
1680,102,-164,1102,-9,-76,-5
1681,385,-143,1146,17,-55,-1
1682,305,1,1052,20,11,2
1683,-43,113,903,7,61,12
1684,-380,92,833,-31,55,13
1685,-356,-38,896,-33,-12,1
1686,36,-161,1084,-11,-73,-3
1687,355,-156,1153,12,-65,-3
1688,340,-38,1062,31,-2,1
1689,18,108,941,8,55,12
1690,-339,103,828,-23,58,16
1691,-393,-6,867,-36,1,4
1692,-48,-149,1068,-17,-66,-6
1693,325,-171,1155,10,-70,-3
1694,373,-52,1102,26,-13,3
1695,77,81,944,9,49,10
1696,-284,124,829,-13,64,13
1697,-412,14,843,-41,14,6
1698,-126,-135,1025,-19,-56,-3
1699,289,-171,1166,5,-75,-3
1700,397,-93,1095,24,-25,1
1701,140,70,1003,21,40,8
1702,-225,123,844,-15,66,14
1703,-428,49,811,-31,28,8
1704,-195,-102,990,-29,-48,-2
1705,235,-170,1149,2,-78,-5
1706,400,-111,1134,18,-36,-2
1707,214,31,1022,20,31,7
1708,-177,129,881,0,68,15
1709,-424,53,801,-43,36,10
1710,-261,-86,938,-23,-36,0
1711,155,-171,1134,-2,-79,-5
1712,396,-136,1122,14,-48,-2
1713,274,25,1057,30,19,7
1714,-105,120,900,-6,64,13
1715,-403,89,807,-27,48,11
1716,-316,-60,916,-39,-23,2
1717,87,-176,1089,-8,-75,-5
1718,380,-144,1154,17,-57,-2
1719,317,-22,1051,22,9,5
1720,-41,119,918,12,60,13
1721,-372,104,825,-31,55,12
1722,-365,-44,886,-34,-9,3
1723,16,-158,1086,-8,-71,-5
1724,357,-151,1160,8,-66,-2
1725,353,-47,1066,28,-4,3
1726,31,111,948,11,56,9
1727,-322,114,828,-22,61,17
1728,-412,-3,856,-38,6,5
1729,-67,-149,1051,-19,-64,-6
1730,317,-173,1168,11,-73,-2
1731,384,-77,1098,18,-18,3
1732,91,79,959,21,47,9
1733,-269,133,841,-14,66,15
1734,-417,12,813,-42,18,9
1735,-149,-114,1026,-14,-54,-5
1736,275,-167,1164,0,-77,-5
1737,398,-114,1108,21,-29,0
1738,160,66,1008,23,38,9
1739,-204,128,853,-13,65,16
1740,-425,40,804,-34,32,8
1741,-220,-94,975,-25,-43,-2
1742,212,-165,1155,3,-79,-4
1743,395,-127,1128,13,-40,-1
1744,227,34,1026,25,27,5
1745,-148,120,886,-5,65,15
1746,-422,62,807,-37,43,12
1747,-281,-71,933,-22,-30,-3
1748,134,-172,1122,-9,-78,-6
1749,388,-128,1139,19,-50,1
1750,294,10,1039,25,16,6
1751,-85,115,903,-3,63,12
1752,-391,76,822,-26,52,12
1753,-335,-36,909,-32,-19,1
1754,63,-179,1080,-11,-75,-5
1755,370,-139,1159,19,-59,-4
1756,330,-24,1056,22,3,5
1757,-8,96,916,9,58,14
1758,-361,125,842,-24,57,12
1759,-380,-33,870,-39,-5,3
1760,0,-154,1082,-14,-69,-5
1761,335,-144,1167,10,-67,-4
1762,362,-62,1070,23,-7,3
1763,53,92,938,7,52,12
1764,-312,123,841,-14,64,15
1765,-410,-12,841,-42,9,5
1766,-95,-136,1045,-13,-61,-5
1767,301,-168,1171,9,-73,-5
1768,392,-86,1097,19,-21,1
1769,119,77,961,22,43,11
1770,-253,142,841,-15,66,13
1771,-414,25,815,-38,22,9
1772,-171,-113,1016,-23,-50,-4
1773,252,-161,1163,0,-78,-6
1774,404,-113,1116,19,-31,0
1775,175,42,1002,18,35,8
1776,-189,126,871,-7,65,14
1777,-426,39,806,-37,34,10
1778,-241,-91,956,-24,-40,-4
1779,192,-166,1146,5,-78,-4
1780,393,-120,1137,13,-43,1
1781,248,26,1033,28,24,5
1782,-133,125,886,-6,64,12
1783,-415,78,820,-35,43,11
1784,-287,-71,922,-26,-27,-1
1785,115,-173,1099,-10,-77,-5
1786,378,-143,1146,19,-52,-3
1787,301,-6,1057,24,11,4
1788,-65,115,896,6,62,13
1789,-379,99,836,-27,52,14
1790,-348,-49,890,-37,-16,-1
1791,47,-159,1081,-7,-74,-5
1792,364,-147,1163,11,-62,-2
1793,335,-30,1063,27,1,3
1794,9,112,934,7,57,13
1795,-342,101,825,-28,60,15
1796,-393,-20,875,-32,1,1
1797,-28,-158,1066,-18,-67,-7
1798,333,-166,1167,11,-70,-2
1799,367,-50,1086,29,-10,2
1800,67,91,938,10,50,11
1801,-292,115,839,-16,63,15
1802,-413,22,854,-38,12,4
1803,-116,-144,1019,-21,-59,-5
1804,297,-171,1167,7,-75,-3
1805,395,-78,1106,21,-23,1
1806,130,64,980,20,43,8
1807,-236,127,844,-18,65,14
1808,-427,36,812,-33,26,7
1809,-185,-120,997,-27,-49,-4
1810,240,-175,1151,3,-78,-4
1811,403,-111,1138,21,-36,0
1812,196,50,1015,21,31,6
1813,-174,124,866,-6,65,15
1814,-426,65,813,-39,36,10
1815,-251,-78,951,-24,-37,-2
1816,172,-179,1133,-5,-78,-5
1817,388,-135,1125,12,-44,-1
1818,261,26,1056,28,22,5
1819,-116,99,879,-12,64,13
1820,-409,90,825,-24,47,13
1821,-308,-66,909,-36,-24,-1
1822,100,-184,1090,-7,-76,-4
1823,384,-131,1160,21,-56,-2
1824,319,-9,1046,20,10,3
1825,-51,114,909,6,62,13
1826,-379,105,831,-28,55,12
1827,-357,-45,890,-36,-11,3
1828,24,-159,1081,-8,-70,-5
1829,363,-158,1151,10,-65,-4
1830,345,-41,1076,30,-4,2
1831,26,113,940,13,56,11
1832,-333,118,822,-23,61,15
1833,-403,-11,867,-37,3,5
1834,-60,-151,1056,-19,-66,-4
1835,319,-167,1175,14,-72,-3
1836,383,-83,1092,18,-15,1
1837,86,89,956,23,48,10
1838,-273,124,829,-17,64,15
1839,-414,21,830,-40,18,9
1840,-152,-124,1023,-16,-56,-6
1841,285,-169,1164,1,-78,-5
1842,399,-97,1119,22,-28,2
1843,154,65,994,19,40,5
1844,-207,118,846,-15,65,15
1845,-429,47,812,-31,31,11
1846,-216,-100,976,-29,-45,-3
1847,211,-172,1148,7,-79,-5
1848,397,-119,1135,17,-40,-1
1849,225,36,1027,26,28,8
1850,-148,126,887,-7,66,15
1851,-419,59,806,-38,41,12
1852,-281,-69,933,-23,-30,-2
1853,134,-171,1119,-7,-78,-6
1854,391,-138,1134,17,-50,1
1855,288,5,1049,27,16,5
1856,-84,120,905,-2,63,12
1857,-389,77,824,-30,50,14
1858,-330,-49,899,-33,-18,0
1859,67,-165,1084,-7,-74,-5
1860,371,-150,1156,15,-58,-2
1861,326,-10,1056,26,5,3
1862,-12,113,925,8,59,13
1863,-357,99,823,-31,57,12
1864,-372,-21,889,-30,-7,2
1865,-2,-161,1079,-16,-68,-5
1866,336,-164,1158,11,-66,-4
1867,354,-53,1071,27,-8,3
1868,53,98,938,10,52,12
1869,-314,124,838,-17,62,15
1870,-411,1,851,-41,8,3
1871,-89,-142,1049,-17,-63,-5
1872,305,-172,1172,9,-73,-3
1873,393,-81,1094,22,-19,2
1874,107,74,965,22,47,10
1875,-249,124,836,-17,64,15
1876,-421,36,820,-36,22,8
1877,-168,-121,1009,-23,-52,-5
1878,258,-171,1159,5,-78,-4
1879,401,-100,1128,24,-33,2
1880,181,50,1003,17,35,8
1881,-192,128,865,-8,65,14
1882,-423,50,800,-37,36,11
1883,-241,-90,958,-28,-40,-3
1884,194,-174,1149,2,-80,-4
1885,396,-127,1136,14,-43,0
1886,245,23,1036,28,24,6
1887,-135,124,892,-4,65,13
1888,-418,77,799,-35,45,11
1889,-287,-74,930,-27,-28,0
1890,111,-164,1108,-11,-76,-6
1891,389,-133,1147,17,-52,-1
1892,300,0,1049,19,13,5
1893,-65,116,895,2,62,10
1894,-378,93,836,-29,53,14
1895,-351,-53,887,-40,-13,3
1896,44,-169,1078,-8,-73,-7
1897,366,-142,1171,12,-63,-4
1898,340,-33,1054,27,0,5
1899,7,117,929,11,57,12
1900,-345,111,832,-27,60,12
1901,-389,-32,872,-35,-1,4
1902,-32,-145,1073,-15,-67,-4
1903,336,-166,1164,7,-69,-3
1904,361,-66,1079,26,-10,1
1905,67,103,951,14,49,10
1906,-291,113,831,-18,63,16
1907,-414,6,846,-39,13,4
1908,-118,-140,1027,-18,-59,-5
1909,297,-178,1172,8,-76,-3
1910,392,-80,1106,22,-23,1
1911,130,74,986,25,42,9
1912,-230,123,833,-20,65,18
1913,-423,36,809,-33,25,9
1914,-185,-112,1004,-26,-48,-5
1915,242,-183,1151,1,-78,-5
1916,390,-108,1141,26,-34,-1
1917,200,44,1004,18,32,9
1918,-176,129,877,-4,65,16
1919,-427,57,802,-38,37,9
1920,-249,-86,945,-24,-37,-2
1921,172,-171,1146,1,-79,-4
1922,392,-126,1131,15,-45,-3
1923,263,17,1038,27,22,5
1924,-116,125,900,-1,64,14
1925,-408,77,806,-34,47,12
1926,-307,-66,918,-30,-24,-1
1927,94,-171,1096,-7,-76,-6
1928,388,-140,1148,20,-55,0
1929,312,3,1052,24,10,4
1930,-47,103,903,0,60,12
1931,-367,100,846,-21,54,12
1932,-360,-40,885,-37,-12,2
1933,26,-168,1079,-7,-72,-7
1934,351,-151,1157,8,-64,-4
1935,349,-36,1067,29,-3,4
1936,21,107,936,8,56,12
1937,-338,114,825,-22,63,12
1938,-390,-13,877,-34,2,5
1939,-50,-158,1058,-22,-66,-4
1940,321,-157,1173,18,-69,-2
1941,368,-66,1085,20,-14,2
1942,83,78,939,17,47,12
1943,-279,134,843,-13,64,15
1944,-413,5,825,-41,15,5
1945,-134,-141,1034,-17,-57,-4
1946,283,-161,1170,7,-77,-4
1947,399,-92,1111,19,-28,1
1948,143,61,988,24,41,9
1949,-217,135,838,-14,65,17
1950,-423,40,814,-36,29,9
1951,-204,-112,988,-29,-46,-5
1952,233,-171,1155,5,-78,-4
1953,395,-121,1135,19,-38,0
1954,206,40,1016,23,29,6
1955,-166,128,884,1,66,13
1956,-426,54,791,-39,39,12
1957,-259,-74,949,-22,-35,-1
1958,160,-163,1133,-5,-79,-5
1959,396,-145,1131,12,-49,-1
1960,272,27,1050,34,18,5
1961,-102,123,898,-7,64,14
1962,-403,75,810,-27,48,13
1963,-322,-51,908,-35,-21,1
1964,87,-177,1095,-9,-77,-5
1965,375,-146,1153,18,-57,-3
1966,317,-13,1057,24,6,5
1967,-33,115,904,8,58,13
1968,-367,102,832,-30,56,13
1969,-362,-35,886,-34,-8,2
1970,21,-155,1091,-11,-71,-5
1971,344,-157,1161,7,-63,-4
1972,350,-45,1059,27,-5,3
1973,32,113,938,9,54,12
1974,-329,104,825,-27,62,13
1975,-397,-9,865,-30,3,4
1976,-63,-144,1065,-21,-65,-4
1977,318,-177,1167,13,-70,-4
1978,377,-59,1097,22,-16,3
1979,86,77,942,14,46,11
1980,-268,126,836,-11,65,14
1981,-416,25,826,-38,17,6
1982,-138,-132,1027,-19,-56,-4
1983,279,-172,1174,3,-76,-3
1984,399,-88,1109,23,-27,2
1985,148,57,1000,16,39,9
1986,-214,122,836,-11,66,14
1987,-428,47,805,-32,29,9
1988,-209,-109,984,-28,-45,-3
1989,223,-168,1157,5,-78,-5
1990,397,-113,1134,17,-39,-2
1991,219,39,1026,22,28,8
1992,-157,122,873,-5,67,15
1993,-426,66,808,-38,40,10
1994,-268,-74,940,-24,-31,-1
1995,149,-175,1122,-5,-78,-6
1996,388,-137,1137,15,-50,-2
1997,280,11,1052,32,19,5
1998,-98,109,890,-8,64,13
1999,-399,91,823,-25,48,13
2000,-318,-60,905,-35,-21,1
2001,73,-163,1086,-7,-74,-6
2002,377,-139,1158,19,-58,-2
2003,322,-22,1054,19,7,5
2004,-26,116,916,12,61,14
2005,-363,105,830,-33,57,14
2006,-374,-41,886,-33,-5,2
2007,11,-164,1082,-12,-71,-6
2008,344,-149,1164,13,-65,-2
2009,350,-49,1062,26,-4,3
2010,34,103,934,9,53,10
2011,-324,122,839,-18,60,14
2012,-393,-17,855,-37,4,6
2013,-71,-135,1060,-17,-64,-6
2014,317,-161,1177,12,-73,-6
2015,380,-87,1091,19,-15,0
2016,90,91,949,21,47,12
2017,-270,124,833,-19,64,15
2018,-415,8,815,-41,18,6
2019,-147,-121,1034,-16,-56,-3
2020,276,-172,1171,0,-78,-6
2021,398,-98,1114,22,-28,0
2022,153,67,996,23,38,8
2023,-205,133,843,-14,65,15
2024,-423,33,797,-34,31,10
2025,-215,-99,983,-25,-44,-5
2026,222,-177,1157,5,-77,-6
2027,397,-117,1143,18,-38,0
2028,217,53,1021,24,26,7
2029,-151,117,879,-9,65,14
2030,-422,61,801,-35,41,10
2031,-265,-73,939,-23,-34,-2
2032,149,-176,1130,-12,-79,-5
2033,384,-130,1138,22,-49,-2
2034,279,5,1036,19,17,5
2035,-97,128,906,4,63,13
2036,-401,79,811,-35,49,11
2037,-313,-58,908,-28,-21,0
2038,81,-168,1089,-10,-74,-6
2039,377,-149,1151,15,-57,-2
2040,319,-13,1055,27,6,5
2041,-31,118,920,8,60,15
2042,-365,96,826,-30,56,13
2043,-364,-21,893,-33,-8,3
2044,13,-169,1079,-14,-70,-5
2045,345,-161,1155,7,-64,-3
2046,350,-35,1078,30,-5,3
2047,35,97,934,6,54,10
2048,-326,111,830,-18,62,15
2049,-400,-5,863,-36,5,5
2050,-71,-148,1054,-19,-65,-6
2051,318,-165,1166,14,-73,-5
2052,379,-62,1105,20,-16,1
2053,95,77,946,16,46,9
2054,-265,124,838,-17,64,16
2055,-418,24,828,-40,19,7
2056,-148,-128,1021,-19,-55,-4
2057,276,-171,1168,3,-77,-4
2058,396,-105,1105,22,-27,0
2059,157,62,1000,20,38,8
2060,-213,139,851,-12,65,14
2061,-421,39,805,-36,31,9
2062,-212,-99,981,-27,-45,-3
2063,217,-166,1151,3,-77,-6
2064,401,-124,1139,13,-40,-1
2065,222,38,1024,24,28,9
2066,-158,126,877,-5,67,13
2067,-421,58,798,-39,42,10
2068,-274,-81,938,-25,-33,-1
2069,148,-169,1133,-2,-79,-5
2070,388,-141,1136,16,-50,-2
2071,276,20,1043,32,18,4
2072,-87,119,901,-9,62,14
2073,-396,79,809,-26,50,14
2074,-320,-40,918,-33,-20,2
2075,73,-171,1084,-12,-74,-6
2076,380,-142,1161,16,-60,-2
2077,322,-17,1052,19,5,5
2078,-22,108,915,8,60,13
2079,-364,94,835,-32,55,13
2080,-380,-37,872,-30,-6,0
2081,9,-148,1092,-10,-72,-4
2082,342,-152,1154,10,-65,-2
2083,356,-45,1067,25,-6,1
2084,46,110,950,10,53,11
2085,-319,111,830,-23,62,14
2086,-402,-10,852,-38,6,4
2087,-78,-140,1052,-19,-64,-5
2088,311,-177,1169,10,-72,-4
2089,381,-70,1100,22,-17,2
2090,99,80,958,17,45,11
2091,-267,117,829,-16,66,14
2092,-413,23,827,-38,20,6
2093,-147,-128,1022,-20,-55,-2
2094,269,-169,1165,4,-75,-5
2095,396,-96,1110,22,-28,0
2096,157,71,1010,21,37,8
2097,-206,126,843,-16,66,15
2098,-422,40,806,-34,30,9
2099,-214,-106,976,-29,-44,-3
2100,215,-180,1149,6,-77,-4
2101,395,-118,1140,17,-39,-1
2102,221,39,1026,25,27,8
2103,-155,122,879,-4,66,14
2104,-424,79,803,-35,40,10
2105,-271,-76,932,-26,-33,0
2106,143,-177,1121,-9,-78,-7
2107,387,-129,1145,20,-50,-4
2108,292,-2,1043,21,17,7
2109,-92,125,901,1,62,15
2110,-403,83,815,-30,49,12
2111,-329,-64,900,-35,-20,1
2112,73,-160,1085,-7,-75,-3
2113,376,-143,1160,14,-60,-3
2114,329,-23,1051,26,5,3
2115,-13,119,930,11,58,15
2116,-360,109,834,-31,58,13
2117,-374,-30,876,-35,-6,2
2118,-1,-159,1077,-15,-70,-6
2119,341,-159,1160,8,-66,-4
2120,358,-54,1078,28,-8,3
2121,45,94,927,9,53,11
2122,-313,117,836,-20,62,15
2123,-405,-11,858,-38,8,5
2124,-88,-136,1044,-18,-63,-6
2125,311,-161,1179,11,-73,-3
2126,380,-70,1093,19,-18,2
2127,102,86,960,18,45,10
2128,-255,122,832,-19,65,16
2129,-416,18,821,-40,21,7
2130,-162,-129,1019,-19,-53,-5
2131,267,-177,1164,4,-77,-4
2132,396,-100,1120,22,-29,2
2133,162,67,999,20,38,6
2134,-199,127,850,-14,65,14
2135,-423,49,801,-34,32,10
2136,-220,-90,972,-28,-44,-3
2137,213,-179,1149,1,-80,-5
2138,393,-118,1147,17,-39,0
2139,231,29,1025,23,26,7
2140,-144,124,887,-6,65,15
2141,-427,71,799,-38,44,10
2142,-275,-83,924,-24,-32,-2
2143,134,-175,1127,-10,-79,-5
2144,389,-136,1143,19,-52,1
2145,290,8,1041,26,15,7
2146,-84,125,906,1,64,13
2147,-389,87,820,-29,50,12
2148,-331,-48,898,-35,-20,0
2149,66,-173,1085,-8,-75,-5
2150,370,-146,1153,16,-59,-2
2151,329,-14,1060,24,1,5
2152,-9,109,923,6,59,11
2153,-361,105,834,-26,59,12
2154,-374,-35,878,-35,-6,5
2155,-7,-154,1081,-12,-68,-5
2156,338,-158,1157,10,-67,-5
2157,355,-50,1076,26,-8,3
2158,51,104,944,12,51,12
2159,-309,116,829,-23,63,14
2160,-404,-1,859,-38,8,6
2161,-90,-150,1039,-21,-62,-6
2162,304,-170,1176,12,-74,-3
2163,381,-73,1100,17,-18,1
2164,108,75,961,22,44,9
2165,-256,132,833,-15,66,14
2166,-416,26,814,-39,22,7
2167,-163,-118,1022,-20,-52,-4
2168,266,-175,1163,1,-76,-4
2169,397,-105,1122,24,-30,1
2170,166,54,1007,17,36,10
2171,-196,125,849,-8,66,14
2172,-427,53,803,-35,33,9
2173,-225,-103,968,-30,-42,-2
2174,203,-176,1148,4,-79,-5
2175,397,-119,1140,16,-42,-1
2176,236,40,1038,28,26,7
2177,-141,127,879,-6,65,15
2178,-424,69,803,-41,42,12
2179,-279,-78,931,-22,-30,-1
2180,129,-175,1112,-10,-78,-5
2181,384,-143,1140,16,-51,-2
2182,293,5,1056,28,14,5
2183,-86,126,897,1,63,14
2184,-382,81,823,-28,50,14
2185,-336,-38,906,-32,-17,0
2186,63,-168,1078,-10,-74,-5
2187,379,-147,1162,14,-59,-1
2188,324,-20,1056,25,5,2
2189,-7,99,917,6,58,11
2190,-357,107,838,-27,58,15
2191,-383,-31,869,-35,-4,3
2192,-10,-158,1084,-12,-71,-6
2193,342,-153,1171,11,-69,-3
2194,361,-49,1072,29,-8,2
2195,53,100,940,9,52,10
2196,-311,114,830,-19,64,15
2197,-411,5,856,-39,10,4
2198,-87,-145,1049,-20,-63,-5
2199,305,-172,1172,11,-72,-4
2200,386,-75,1094,20,-20,0
2201,111,74,969,19,45,10
2202,-253,125,833,-14,66,14
2203,-419,27,811,-36,22,8
2204,-166,-120,1022,-21,-53,-4
2205,264,-174,1167,3,-77,-5
2206,399,-100,1112,24,-30,2
2207,167,59,1006,19,35,9
2208,-192,120,851,-10,65,15
2209,-427,56,805,-32,33,9
2210,-224,-98,970,-30,-42,-2
2211,199,-178,1144,3,-76,-6
2212,392,-115,1148,17,-42,-2
2213,234,25,1026,24,25,8
2214,-145,131,886,-1,66,12
2215,-420,71,800,-38,43,10
2216,-279,-89,924,-27,-31,0
2217,130,-164,1126,-3,-78,-6
2218,389,-141,1135,16,-51,-2
2219,290,7,1050,25,15,3
2220,-77,127,898,3,61,12
2221,-387,81,822,-32,51,14
2222,-336,-47,902,-32,-17,0
2223,64,-167,1084,-9,-75,-4
2224,370,-152,1162,12,-60,-3
2225,326,-19,1053,27,3,3
2226,-5,107,924,4,57,15
2227,-362,108,829,-26,59,14
2228,-377,-31,880,-34,-6,2
2229,-5,-159,1083,-13,-69,-5
2230,334,-150,1165,11,-66,-4
2231,362,-55,1072,26,-9,3
2232,47,95,936,10,52,11
2233,-310,125,835,-15,62,13
2234,-406,-3,846,-41,9,3
2235,-87,-145,1050,-18,-61,-4
2236,304,-163,1173,12,-72,-4
2237,389,-83,1103,16,-20,1
2238,103,86,961,25,46,10
2239,-253,124,829,-21,65,15
2240,-416,23,817,-35,21,7
2241,-160,-117,1023,-24,-51,-3
2242,263,-177,1158,2,-76,-5
2243,397,-101,1124,23,-29,1
2244,169,48,998,19,37,8
2245,-200,122,849,-11,64,13
2246,-424,50,811,-33,31,10
2247,-227,-88,966,-25,-42,-2
2248,208,-166,1150,2,-78,-7
2249,396,-121,1147,15,-41,0
2250,232,31,1027,26,26,8
2251,-144,118,880,-5,67,14
2252,-422,70,811,-38,43,10
2253,-280,-86,922,-25,-30,-3
2254,136,-165,1125,-5,-78,-6
2255,387,-132,1139,17,-50,-1
2256,288,-1,1043,27,16,5
2257,-80,122,902,1,62,13
2258,-390,91,828,-26,51,12
2259,-328,-53,898,-37,-19,0
2260,62,-157,1085,-7,-73,-5
2261,377,-149,1162,11,-59,-2
2262,321,-17,1056,25,5,3
2263,-12,93,910,3,58,13
2264,-365,103,833,-23,58,12
2265,-375,-21,884,-31,-7,2
2266,1,-164,1082,-15,-69,-5
2267,341,-143,1167,15,-65,-4
2268,357,-40,1072,25,-7,2
2269,50,92,938,5,52,11
2270,-314,126,831,-16,64,15
2271,-407,-10,856,-42,8,5
2272,-84,-146,1049,-17,-62,-4
2273,305,-177,1180,9,-74,-3
2274,382,-74,1091,23,-18,1
2275,110,76,963,19,43,12
2276,-261,127,823,-15,66,14
2277,-421,31,820,-40,20,6
2278,-156,-121,1029,-19,-54,-3
2279,263,-167,1164,2,-77,-6
2280,404,-103,1118,21,-30,0
2281,162,57,1002,19,38,7
2282,-200,118,847,-10,66,13
2283,-424,53,812,-32,32,11
2284,-226,-104,965,-31,-43,-2
2285,205,-171,1142,7,-78,-6
2286,398,-112,1148,14,-42,1
2287,231,25,1026,26,26,7
2288,-144,123,891,-2,64,14
2289,-421,73,801,-35,43,11
2290,-276,-78,928,-27,-30,-1
2291,135,-167,1116,-5,-78,-6
2292,384,-134,1141,16,-50,-2
2293,291,1,1042,26,16,5
2294,-83,131,915,0,62,14
2295,-391,64,807,-32,52,13
2296,-334,-43,914,-29,-19,0
2297,69,-168,1085,-9,-75,-7
2298,373,-141,1157,17,-59,-3
2299,325,-12,1057,22,4,3
2300,-11,94,906,5,58,11
2301,-356,118,850,-25,57,15
2302,-378,-39,872,-38,-5,4
2303,-1,-159,1083,-15,-70,-6
2304,337,-149,1167,12,-66,-4
2305,353,-67,1067,22,-8,3
2306,53,106,945,14,50,12
2307,-319,130,830,-20,63,14
2308,-402,-16,848,-39,7,4
2309,-81,-125,1048,-17,-62,-4
2310,307,-169,1180,7,-72,-4
2311,385,-92,1087,18,-19,-2
2312,103,93,979,25,44,11
2313,-257,110,819,-21,66,14
2314,-422,29,818,-32,20,6
2315,-158,-118,1023,-21,-54,-2
2316,267,-181,1160,2,-76,-4
2317,399,-92,1127,26,-31,0
2318,171,54,1000,15,37,8
2319,-197,127,851,-8,67,15
2320,-429,62,808,-35,33,8
2321,-225,-111,962,-30,-43,-3
2322,207,-175,1158,5,-78,-4
2323,391,-110,1146,16,-40,-3
2324,240,21,1015,23,25,7
2325,-144,126,889,1,65,16
2326,-420,75,803,-35,42,11
2327,-277,-88,929,-26,-31,-1
2328,135,-163,1125,-4,-78,-4
2329,383,-128,1136,16,-52,-3
2330,291,0,1045,25,14,4
2331,-77,123,907,0,62,14
2332,-390,88,818,-28,52,13
2333,-326,-57,905,-36,-20,0
2334,57,-168,1080,-6,-73,-6
2335,378,-148,1169,11,-61,-1
2336,322,-27,1043,25,3,4
2337,-12,115,922,9,58,11
2338,-355,104,839,-27,57,13
2339,-376,-27,876,-33,-5,2
2340,0,-147,1086,-11,-70,-5
2341,337,-158,1157,9,-66,-4
2342,358,-47,1081,29,-8,3
2343,49,94,936,7,54,10
2344,-311,120,832,-17,64,15
2345,-409,-6,844,-40,8,4
2346,-86,-145,1054,-17,-63,-5
2347,305,-160,1177,13,-73,-3
2348,388,-86,1095,16,-20,0
2349,104,88,965,25,46,9
2350,-252,129,832,-23,65,16
2351,-414,29,812,-37,21,6
2352,-160,-118,1018,-24,-54,-5
2353,262,-178,1164,1,-76,-5
2354,396,-108,1124,21,-31,2
2355,167,56,1006,20,36,8
2356,-199,127,850,-11,66,14
2357,-423,49,805,-33,32,10
2358,-230,-88,964,-28,-41,-4
2359,213,-174,1155,6,-79,-3
2360,393,-119,1137,16,-41,-1
2361,234,34,1036,25,24,5
2362,-140,122,884,-3,65,14
2363,-423,67,798,-38,43,11
2364,-280,-73,930,-25,-29,-1
2365,131,-174,1119,-7,-77,-4
2366,383,-142,1138,20,-51,-2
2367,290,1,1043,27,13,3
2368,-77,127,908,-1,62,14
2369,-387,85,814,-31,50,11
2370,-330,-45,908,-33,-17,2
2371,63,-161,1083,-8,-74,-6
2372,370,-153,1156,9,-60,-3
2373,324,-15,1061,29,5,4
2374,-10,98,921,3,58,13
2375,-359,98,822,-23,58,15
2376,-373,-21,886,-34,-5,4
2377,-10,-161,1079,-10,-67,-6
2378,338,-156,1161,9,-69,-2
2379,355,-41,1079,29,-9,3
2380,54,89,934,6,51,10
2381,-306,126,833,-14,63,14
2382,-409,-1,852,-43,9,4
2383,-89,-144,1047,-17,-62,-4
2384,299,-160,1175,12,-72,-3
2385,389,-91,1096,14,-20,2
2386,104,74,966,22,45,10
2387,-253,131,839,-18,63,15
2388,-418,21,808,-37,22,6
2389,-164,-118,1016,-21,-52,-3
2390,260,-163,1168,4,-77,-5
2391,403,-102,1125,22,-32,0
2392,175,58,1012,18,36,9
2393,-197,122,845,-13,66,15
2394,-428,52,809,-33,34,8
2395,-229,-103,963,-31,-42,-2
2396,200,-179,1143,6,-79,-5
2397,393,-117,1146,15,-42,-1
2398,237,22,1027,27,24,7
2399,-141,121,885,-3,64,15
2400,-416,84,809,-35,43,12
2401,-282,-76,922,-27,-30,-1
2402,127,-163,1118,-6,-77,-6
2403,393,-136,1146,16,-52,0
2404,290,3,1043,22,15,4
2405,-74,121,900,1,63,13
2406,-393,77,826,-32,52,12
2407,-339,-56,901,-34,-18,1
2408,57,-162,1089,-5,-75,-4
2409,367,-151,1155,14,-59,-4
2410,337,-24,1055,27,2,4
2411,-5,116,923,10,57,11
2412,-348,112,836,-27,58,13
2413,-384,-28,867,-32,-3,3
2414,-13,-143,1090,-15,-68,-7
2415,337,-159,1170,7,-68,-3
2416,359,-62,1075,25,-10,2
2417,55,90,932,8,52,10
2418,-310,118,838,-14,64,15
2419,-404,-10,838,-40,9,3
2420,-95,-132,1057,-12,-61,-4
2421,301,-158,1173,12,-72,-4
2422,388,-81,1099,14,-21,0
2423,114,78,966,21,44,11
2424,-246,127,835,-21,65,14
2425,-418,18,809,-37,22,7
2426,-166,-109,1017,-20,-52,-4
2427,257,-175,1167,2,-76,-5
2428,396,-116,1116,22,-32,-2
2429,176,59,1009,22,35,8
2430,-188,116,854,-11,65,16
2431,-427,63,814,-33,35,9
2432,-234,-88,952,-30,-41,-3
2433,199,-180,1149,1,-81,-5
2434,393,-116,1143,16,-42,-2
2435,247,24,1029,22,24,7
2436,-136,118,895,-4,66,15
2437,-423,74,802,-34,44,11
2438,-287,-65,924,-27,-28,0
2439,119,-173,1114,-12,-77,-5
2440,388,-141,1140,20,-52,0
2441,298,2,1050,24,13,6
2442,-74,114,900,0,62,12
2443,-381,92,838,-24,52,14
2444,-343,-41,903,-38,-15,2
2445,53,-170,1069,-8,-73,-8
2446,367,-144,1160,13,-61,-2
2447,336,-28,1056,26,2,4
2448,3,105,927,5,56,11
2449,-354,112,830,-25,60,13
2450,-387,-26,877,-35,-3,4
2451,-20,-159,1074,-15,-68,-6
2452,334,-138,1177,13,-68,-2
2453,361,-73,1069,19,-10,2
2454,68,93,937,14,50,11
2455,-307,129,837,-18,64,16
2456,-407,-6,845,-41,11,4
2457,-112,-130,1044,-15,-61,-5
2458,298,-170,1174,7,-73,-3
2459,397,-91,1097,18,-22,2
2460,119,77,975,21,42,11
2461,-241,112,830,-20,64,14
2462,-419,36,816,-30,23,8
2463,-184,-113,1010,-25,-50,-3
2464,257,-172,1160,3,-78,-4
2465,397,-88,1135,26,-34,0
2466,186,36,1003,12,34,8
2467,-184,127,862,1,66,16
2468,-423,46,803,-40,33,12
2469,-242,-89,959,-24,-38,-3
2470,189,-165,1145,0,-79,-5
2471,389,-126,1138,14,-43,0
2472,246,25,1038,27,24,5
2473,-129,121,891,-5,63,15
2474,-413,70,802,-35,44,12
2475,-292,-63,922,-26,-27,-3
2476,117,-173,1106,-11,-77,-6
2477,388,-142,1149,17,-54,1
2478,299,2,1044,25,13,5
2479,-70,107,905,-1,60,13
2480,-381,95,831,-23,52,13
2481,-342,-37,902,-37,-16,2
2482,46,-167,1076,-7,-73,-6
2483,369,-144,1162,12,-63,-1
2484,333,-25,1057,25,1,4
2485,8,102,925,7,56,12
2486,-345,109,828,-26,60,15
2487,-392,-26,876,-32,0,4
2488,-18,-153,1080,-18,-69,-4
2489,327,-155,1168,12,-68,-3
2490,362,-57,1076,24,-11,1
2491,63,94,939,12,50,11
2492,-299,119,826,-18,64,16
2493,-406,7,851,-38,12,6
2494,-109,-136,1037,-18,-59,-5
2495,298,-173,1169,6,-75,-3
2496,388,-84,1111,20,-22,1
2497,122,72,971,21,42,10
2498,-240,124,831,-17,67,15
2499,-423,31,806,-37,25,9
2500,-174,-110,1011,-23,-51,-4
2501,250,-167,1168,0,-77,-5
2502,398,-111,1129,22,-34,0
2503,185,42,1007,17,34,7
2504,-186,128,862,-3,67,14
2505,-424,55,801,-37,34,10
2506,-237,-86,955,-26,-38,-1
2507,184,-166,1143,2,-78,-7
2508,393,-127,1142,10,-45,-1
2509,253,26,1040,30,23,7
2510,-128,122,890,-7,65,13
2511,-413,74,801,-35,45,11
2512,-292,-73,923,-29,-27,0
2513,113,-168,1103,-6,-77,-6
2514,384,-136,1148,18,-54,-3
2515,298,-12,1048,23,13,3
2516,-62,115,903,6,61,14
2517,-377,98,838,-29,51,14
2518,-346,-49,892,-37,-14,1
2519,45,-160,1077,-7,-72,-5
2520,366,-146,1161,12,-62,-2
2521,334,-31,1057,24,1,4
2522,7,107,924,9,56,12
2523,-347,107,834,-26,57,14
2524,-386,-27,872,-31,0,4
2525,-26,-148,1076,-17,-67,-6
2526,336,-160,1174,12,-68,-4
2527,356,-61,1072,24,-8,1
2528,64,93,941,11,49,11
2529,-298,116,828,-15,62,17
2530,-412,2,848,-40,12,3
2531,-104,-130,1053,-12,-60,-6
2532,295,-164,1170,6,-73,-4
2533,391,-87,1104,18,-22,1
2534,118,75,972,22,44,9
2535,-239,125,832,-17,65,16
2536,-424,22,800,-38,25,7
2537,-175,-105,1020,-22,-52,-4
2538,254,-175,1159,3,-77,-4
2539,400,-114,1120,23,-33,1
2540,184,55,1018,22,34,7
2541,-183,116,848,-10,66,14
2542,-426,66,808,-31,35,9
2543,-240,-82,954,-27,-39,-2
2544,192,-175,1147,0,-78,-4
2545,394,-117,1142,11,-43,-1
2546,243,30,1039,27,24,6
2547,-129,102,886,-11,65,16
2548,-420,81,810,-30,46,12
2549,-289,-80,914,-29,-28,-1
2550,113,-178,1108,-7,-76,-5
2551,381,-130,1152,23,-53,-2
2552,297,1,1048,24,11,3
2553,-66,112,902,2,60,13
2554,-376,106,837,-24,52,14
2555,-340,-50,890,-40,-15,0
2556,54,-163,1086,-8,-73,-6
2557,361,-135,1166,14,-58,-2
2558,330,-33,1049,19,2,4
2559,-2,100,928,9,58,12
2560,-352,101,827,-29,58,14
2561,-379,-32,883,-31,-4,3
2562,-19,-157,1072,-13,-68,-6
2563,333,-147,1174,14,-68,-3
2564,359,-51,1080,26,-10,2
2565,60,95,935,9,50,10
2566,-310,129,836,-13,64,14
2567,-401,-6,846,-44,10,7
2568,-98,-130,1047,-14,-59,-4
2569,298,-170,1180,7,-74,-4
2570,387,-89,1093,18,-19,1
2571,113,75,973,22,42,12
2572,-249,112,819,-18,66,15
2573,-419,32,817,-31,23,7
2574,-169,-119,1017,-22,-52,-5
2575,263,-168,1162,6,-78,-5
2576,400,-91,1130,21,-32,0
2577,176,55,1005,19,35,7
2578,-190,125,853,-11,65,13
2579,-425,43,812,-36,35,11
2580,-229,-103,952,-29,-39,-1
2581,188,-171,1146,8,-77,-7
2582,393,-129,1147,12,-42,-1
2583,238,27,1033,31,23,8
2584,-140,131,890,0,65,12
2585,-416,62,798,-37,43,12
2586,-280,-62,932,-23,-29,1
2587,132,-160,1122,-9,-77,-6
2588,387,-151,1133,15,-50,-3
2589,287,18,1055,28,16,5
2590,-77,109,895,-5,61,15
2591,-391,78,821,-27,52,13
2592,-341,-47,906,-34,-18,1
2593,62,-171,1080,-7,-75,-5
2594,372,-151,1161,16,-60,-3
2595,327,-12,1058,30,3,3
2596,-1,109,920,8,58,11
2597,-354,105,829,-28,58,14
2598,-377,-15,881,-31,-4,5
2599,-1,-157,1083,-16,-68,-4
2600,334,-154,1168,9,-65,-2
2601,356,-56,1077,23,-7,3
2602,51,89,932,8,50,10
2603,-317,117,828,-17,62,14
2604,-402,-11,853,-35,8,5
2605,-89,-138,1046,-16,-62,-4
2606,311,-164,1181,14,-73,-4
2607,384,-74,1094,21,-19,0
2608,108,83,969,22,43,9
2609,-255,130,822,-18,65,15
2610,-420,32,820,-40,20,8
2611,-162,-124,1023,-21,-53,-4
2612,262,-177,1160,0,-76,-5
2613,403,-111,1122,23,-31,1
2614,165,42,1002,18,38,8
2615,-202,129,849,-5,65,15
2616,-426,50,803,-34,32,9
2617,-227,-90,976,-24,-42,-4
2618,209,-161,1154,3,-79,-6
2619,394,-118,1136,13,-41,-1
2620,232,36,1034,25,26,7
2621,-141,119,883,-7,65,14
2622,-422,56,796,-40,43,11
2623,-279,-78,936,-23,-31,0
2624,130,-178,1115,-5,-78,-6
2625,386,-133,1141,19,-51,-1
2626,289,10,1043,29,15,6
2627,-83,117,897,-5,61,13
2628,-394,94,827,-23,51,12
2629,-321,-54,902,-37,-18,2
2630,69,-155,1090,-6,-74,-4
2631,371,-142,1156,11,-57,-4
2632,324,-26,1056,22,6,3
2633,-21,109,915,7,59,13
2634,-361,94,832,-29,57,13
2635,-376,-43,872,-30,-6,2
2636,0,-140,1087,-9,-71,-5
2637,350,-163,1166,10,-67,-2
2638,351,-42,1068,30,-6,3
2639,47,106,939,8,52,11
2640,-314,119,832,-19,63,15
2641,-407,2,855,-36,9,4
2642,-77,-148,1055,-22,-64,-5
2643,305,-172,1176,11,-71,-3
2644,379,-82,1094,16,-18,0
2645,103,70,955,20,45,11
2646,-264,127,835,-15,65,16
2647,-417,7,810,-40,19,6
2648,-159,-113,1030,-13,-54,-5
2649,270,-165,1170,0,-77,-5
2650,398,-103,1119,21,-29,2
2651,165,63,996,18,36,8
2652,-204,122,850,-13,66,15
2653,-425,53,804,-30,32,8
2654,-218,-94,967,-30,-42,-3
2655,206,-181,1158,3,-78,-6
2656,397,-115,1141,19,-40,-1
2657,221,38,1026,26,28,8
2658,-149,112,878,-7,66,13
2659,-422,69,803,-32,41,10
2660,-267,-76,938,-28,-31,0
2661,145,-178,1131,-7,-77,-5
2662,381,-119,1131,19,-49,-2
2663,281,10,1047,24,16,4
2664,-90,118,903,-2,63,14
2665,-400,83,811,-28,49,12
2666,-320,-69,904,-35,-21,1
2667,69,-165,1091,-5,-75,-6
2668,377,-142,1159,18,-59,-3
2669,322,-19,1053,22,6,6
2670,-28,116,909,12,59,11
2671,-359,104,834,-30,55,13
2672,-374,-29,892,-31,-8,3
2673,10,-156,1082,-11,-70,-6
2674,346,-161,1162,8,-65,-2
2675,347,-42,1068,29,-6,4
2676,42,93,938,5,53,11
2677,-324,114,829,-16,64,17
2678,-400,1,861,-36,5,4
2679,-73,-148,1053,-21,-63,-6
2680,311,-158,1183,15,-72,-4
2681,384,-72,1095,19,-16,2
2682,98,71,949,17,46,10
2683,-263,130,835,-15,66,13
2684,-417,15,816,-39,19,7
2685,-151,-133,1021,-17,-54,-3
2686,268,-150,1182,8,-77,-6
2687,396,-112,1104,15,-29,0
2688,162,62,998,25,37,9
2689,-206,139,845,-12,66,14
2690,-420,25,799,-39,31,9
2691,-214,-83,985,-23,-44,-4
2692,219,-164,1157,-1,-78,-5
2693,398,-137,1126,13,-38,0
2694,215,47,1036,27,29,8
2695,-158,112,870,-8,65,14
2696,-421,53,804,-36,39,11
2697,-271,-75,938,-19,-32,-2
2698,147,-172,1124,-6,-79,-7
2699,388,-129,1140,17,-51,-1
2700,281,20,1052,29,17,5
2701,-89,118,898,-9,64,13
2702,-398,81,811,-30,50,15
2703,-329,-57,909,-33,-20,0
2704,73,-169,1090,3,-75,-8
2705,378,-152,1157,17,-58,0
2706,322,-13,1054,23,5,3
2707,-23,103,907,10,60,13
2708,-364,95,832,-28,58,15
2709,-371,-21,892,-30,-8,3
2710,13,-148,1087,-13,-71,-7
2711,346,-155,1153,7,-65,-4
2712,351,-35,1070,30,-6,4
2713,44,97,940,2,54,13
2714,-322,102,826,-20,62,14
2715,-402,-7,863,-36,6,3
2716,-70,-161,1056,-20,-63,-5
2717,312,-162,1175,16,-71,-3
2718,376,-59,1098,21,-17,1
2719,90,76,945,14,46,11
2720,-267,122,829,-14,64,15
2721,-410,21,827,-42,18,7
2722,-147,-121,1027,-18,-54,-3
2723,274,-168,1173,-2,-76,-5
2724,391,-101,1112,24,-28,0
2725,159,64,1001,20,39,10
2726,-217,119,835,-13,66,15
2727,-426,42,801,-31,30,8
2728,-208,-110,987,-28,-45,-2
2729,222,-159,1163,7,-78,-5
2730,398,-118,1136,15,-39,0
2731,212,35,1022,25,28,6
2732,-158,131,881,-4,65,14
2733,-427,58,798,-40,40,11
2734,-269,-82,937,-24,-33,-2
2735,152,-172,1132,-5,-78,-6
2736,389,-132,1141,14,-48,0
2737,275,13,1041,30,18,6
2738,-102,121,897,-3,64,13
2739,-399,82,812,-28,49,12
2740,-318,-53,908,-34,-20,2
2741,83,-163,1091,-7,-75,-5
2742,379,-143,1158,15,-57,-2
2743,322,-24,1053,18,7,4
2744,-34,123,919,10,59,13
2745,-361,86,819,-38,55,14
2746,-372,-34,893,-28,-7,2
2747,13,-156,1082,-11,-71,-7
2748,354,-155,1168,11,-67,-2
2749,344,-34,1068,29,-5,0
2750,36,101,934,5,53,10
2751,-324,121,835,-21,62,16
2752,-397,-12,856,-40,5,5
2753,-63,-150,1066,-19,-64,-7
2754,315,-168,1168,14,-70,-3
2755,371,-72,1092,19,-15,3
2756,86,84,950,17,46,10
2757,-265,121,835,-15,64,16
2758,-414,20,827,-40,17,7
2759,-143,-121,1028,-16,-55,-5
2760,283,-171,1171,0,-76,-4
2761,399,-100,1106,23,-28,2
2762,147,70,999,20,39,8
2763,-216,118,840,-16,65,15
2764,-424,44,807,-32,28,9
2765,-210,-100,981,-26,-46,-5
2766,225,-171,1157,4,-78,-6
2767,400,-113,1141,19,-39,2
2768,216,41,1014,21,29,7
2769,-159,122,877,-4,67,14
2770,-421,57,796,-40,40,11
2771,-264,-64,951,-23,-34,-2
2772,152,-190,1125,-8,-78,-5
2773,390,-117,1149,21,-49,1
2774,272,16,1037,25,18,6
2775,-102,104,889,-8,65,11
2776,-403,85,820,-26,48,13
2777,-313,-63,911,-36,-22,2
2778,86,-171,1092,-6,-75,-7
2779,374,-137,1150,15,-56,-3
2780,317,-16,1050,22,6,4
2781,-38,124,916,10,59,13
2782,-369,91,827,-33,57,12
2783,-357,-41,885,-32,-9,4
2784,12,-155,1079,-12,-69,-6
2785,359,-158,1168,9,-64,-2
2786,344,-26,1073,30,-4,4
2787,28,98,927,3,54,10
2788,-330,107,828,-22,61,14
2789,-401,-5,872,-32,5,5
2790,-54,-162,1048,-22,-64,-4
2791,314,-151,1187,18,-69,-3
2792,376,-76,1086,16,-15,1
2793,91,85,947,20,47,11
2794,-284,138,835,-18,65,13
2795,-409,1,822,-42,17,6
2796,-139,-131,1030,-17,-55,-3
2797,277,-161,1171,4,-76,-5
2798,403,-97,1116,20,-29,2
2799,141,67,984,19,41,8
2800,-215,128,845,-15,64,14
2801,-424,34,802,-35,28,10
2802,-210,-105,990,-25,-46,-5
2803,232,-177,1156,3,-79,-5
2804,394,-112,1142,22,-38,0
2805,209,41,1014,22,29,7
2806,-165,131,878,-1,67,15
2807,-425,53,799,-43,39,10
2808,-257,-76,945,-23,-34,-1
2809,159,-173,1131,-4,-78,-6
2810,392,-132,1133,15,-48,0
2811,266,15,1049,30,20,6
2812,-106,122,897,-5,62,14
2813,-403,78,811,-28,48,13
2814,-313,-57,913,-30,-22,0
2815,91,-167,1092,-8,-75,-5
2816,383,-145,1158,16,-57,0
2817,309,-1,1055,24,9,4
2818,-41,105,903,4,59,13
2819,-371,93,831,-29,55,13
2820,-360,-32,894,-36,-11,2
2821,26,-162,1080,-10,-71,-7
2822,352,-161,1157,11,-63,-2
2823,346,-30,1074,29,-3,5
2824,24,103,933,7,55,12
2825,-337,116,827,-22,61,12
2826,-397,-12,862,-34,3,3
2827,-46,-154,1066,-23,-67,-4
2828,321,-162,1176,13,-70,-3
2829,371,-64,1083,20,-13,0
2830,83,81,951,15,47,11
2831,-283,130,827,-15,64,15
2832,-413,7,830,-43,16,5
2833,-133,-129,1039,-16,-57,-4
2834,290,-163,1168,3,-75,-3
2835,391,-93,1103,20,-24,0
2836,147,61,999,21,39,8
2837,-224,135,834,-12,67,15
2838,-422,35,805,-37,28,9
2839,-203,-109,991,-23,-46,-4
2840,234,-163,1166,7,-79,-3
2841,398,-120,1129,16,-37,-1
2842,204,41,1022,23,30,7
2843,-171,134,869,-2,67,14
2844,-420,55,798,-40,37,9
2845,-251,-84,942,-25,-35,-2
2846,163,-155,1143,0,-77,-6
2847,388,-144,1127,8,-45,-2
2848,264,20,1054,34,19,6
2849,-116,115,892,-9,63,15
2850,-402,72,807,-29,46,14
2851,-308,-57,915,-29,-23,-2
2852,96,-173,1093,-8,-75,-6
2853,383,-132,1156,21,-56,-2
2854,309,-10,1051,19,9,4
2855,-47,114,903,9,60,13
2856,-372,105,838,-30,54,14
2857,-353,-54,885,-38,-11,2
2858,33,-153,1088,-6,-71,-5
2859,355,-152,1161,8,-63,-2
2860,335,-44,1053,25,-2,2
2861,19,116,946,13,54,13
2862,-339,104,824,-28,60,16
2863,-387,-25,866,-32,1,4
2864,-44,-133,1073,-19,-67,-6
2865,328,-168,1168,10,-70,-3
2866,371,-55,1086,24,-14,2
2867,68,88,939,11,48,9
2868,-285,112,834,-17,63,13
2869,-409,10,842,-40,15,5
2870,-119,-140,1022,-18,-58,-4
2871,289,-168,1183,9,-75,-3
2872,392,-88,1100,22,-23,1
2873,129,70,984,18,40,9
2874,-231,133,839,-15,64,14
2875,-419,35,797,-36,26,7
2876,-185,-125,1001,-26,-48,-6
2877,248,-172,1177,6,-78,-3
2878,387,-104,1126,24,-34,-1
2879,187,44,1004,17,31,5
2880,-173,123,874,-4,63,15
2881,-425,58,798,-34,36,9
2882,-237,-86,949,-25,-38,-2
2883,177,-170,1147,1,-78,-4
2884,391,-119,1139,12,-44,-2
2885,256,27,1042,28,22,7
2886,-124,112,884,-9,64,14
2887,-419,69,807,-30,46,11
2888,-295,-61,920,-30,-27,0
2889,112,-177,1105,-10,-78,-3
2890,382,-137,1151,21,-52,-3
2891,305,0,1053,24,11,3
2892,-61,111,896,3,61,13
2893,-380,103,837,-23,53,12
2894,-347,-49,885,-40,-13,2
2895,48,-162,1085,-6,-73,-4
2896,360,-138,1160,14,-61,-3
2897,337,-30,1063,22,-1,4
2898,4,100,924,9,57,12
2899,-344,110,829,-25,59,13
2900,-386,-28,871,-34,-1,5
2901,-19,-159,1071,-18,-69,-5
2902,324,-149,1176,17,-68,-3
2903,362,-63,1082,23,-11,2
2904,62,100,946,16,48,11
2905,-298,123,828,-19,63,15
2906,-408,0,845,-40,12,4
2907,-103,-140,1035,-17,-60,-3
2908,300,-171,1177,8,-74,-2
2909,383,-78,1111,20,-21,-1
2910,121,66,969,18,42,10
2911,-252,132,831,-12,66,14
2912,-418,36,808,-40,22,7
2913,-167,-127,1008,-22,-51,-4
2914,255,-164,1166,4,-77,-4
2915,400,-111,1133,20,-32,0
2916,176,46,1006,19,34,7
2917,-191,132,855,-6,66,15
2918,-424,39,799,-39,33,10
2919,-236,-92,959,-23,-39,-2
2920,200,-158,1154,5,-79,-6
2921,392,-137,1138,9,-43,-1
2922,244,36,1041,35,25,7
2923,-139,129,887,-12,65,15
2924,-419,65,800,-37,44,12
2925,-281,-69,928,-26,-29,1
2926,124,-172,1110,-11,-77,-6
2927,382,-143,1145,17,-53,-1
2928,289,7,1052,26,14,4
2929,-78,115,902,-1,60,13
2930,-388,82,821,-28,50,13
2931,-331,-48,904,-33,-17,1
2932,63,-166,1085,-6,-74,-5
2933,371,-147,1162,13,-58,-2
2934,325,-14,1053,23,5,4
2935,-10,105,915,5,58,12
2936,-362,105,833,-25,58,12
2937,-379,-29,876,-32,-5,4
2938,3,-153,1093,-15,-71,-4
2939,339,-153,1159,10,-65,-5
2940,357,-58,1069,23,-8,2
2941,50,96,941,11,51,12
2942,-318,123,829,-17,64,15
2943,-403,-8,850,-41,8,4
2944,-82,-142,1052,-15,-62,-4
2945,307,-165,1176,13,-71,-3
2946,382,-69,1103,18,-18,1
2947,101,81,955,16,45,9
2948,-256,121,825,-17,64,15
2949,-420,29,819,-36,20,6
2950,-152,-131,1028,-22,-54,-4
2951,268,-165,1168,4,-75,-3
2952,393,-96,1116,21,-31,-1
2953,161,51,1001,18,37,8
2954,-205,122,848,-10,65,16
2955,-425,37,795,-35,30,9
2956,-214,-96,982,-22,-42,-4
2957,211,-170,1151,3,-78,-6
2958,398,-110,1144,18,-41,-2
2959,226,42,1029,23,27,8
2960,-156,120,874,-6,66,13
2961,-418,67,808,-39,40,10
2962,-273,-94,922,-26,-31,-2
2963,150,-169,1135,-2,-78,-5
2964,380,-131,1138,15,-48,-2
2965,280,5,1049,29,17,6
2966,-96,127,901,-2,62,14
2967,-394,85,815,-31,48,12
2968,-314,-59,909,-32,-20,0
2969,79,-165,1088,-6,-74,-6
2970,376,-137,1162,15,-57,-2
2971,314,-17,1044,20,8,4
2972,-35,110,907,7,59,13
2973,-364,101,840,-29,55,13
2974,-363,-37,883,-32,-9,1
2975,20,-164,1084,-10,-71,-6
2976,351,-154,1163,11,-64,-3
2977,345,-40,1071,28,-5,2
2978,28,105,930,9,55,10
2979,-331,116,829,-23,62,15
2980,-400,-14,855,-36,4,3
2981,-53,-145,1070,-19,-67,-5
2982,325,-162,1184,14,-71,-3
2983,370,-69,1083,18,-14,0
2984,87,87,947,16,46,12
2985,-283,117,821,-17,66,16
2986,-415,17,836,-38,17,6
2987,-133,-132,1024,-18,-56,-4
2988,280,-172,1179,3,-75,-5
2989,397,-83,1117,26,-26,0
2990,142,67,983,17,39,9
2991,-225,126,833,-18,66,15
2992,-423,46,805,-33,28,7
2993,-195,-115,992,-29,-47,-4
2994,238,-175,1166,2,-77,-3
2995,393,-111,1136,22,-35,0
2996,198,38,1020,21,31,8
2997,-168,126,865,-3,67,16
2998,-431,66,803,-36,38,9
2999,-252,-94,931,-26,-36,-2
3000,172,-173,1142,0,-79,-4
3001,393,-124,1148,16,-45,-2
3002,261,20,1038,28,21,6
3003,-124,129,899,-6,65,14
3004,-406,73,800,-36,46,12
3005,-299,-63,918,-28,-26,-1
3006,102,-176,1102,-11,-75,-5
3007,386,-146,1150,17,-55,-1
3008,303,4,1057,24,12,5
3009,-58,106,891,0,61,14
3010,-378,93,835,-24,53,14
3011,-353,-35,900,-34,-13,0
3012,51,-175,1080,-10,-73,-4
3013,361,-151,1152,13,-60,-2
3014,338,-23,1069,30,1,3
3015,9,94,926,4,58,13
3016,-350,131,835,-20,59,15
3017,-385,-26,872,-39,-2,3
3018,-30,-161,1065,-16,-67,-6
3019,335,-155,1179,12,-70,-1
3020,365,-66,1081,24,-10,1
3021,61,97,932,15,50,11
3022,-304,126,830,-16,64,16
3023,-410,-11,843,-42,9,6
3024,-99,-134,1041,-16,-61,-4
3025,296,-171,1179,8,-73,-3
3026,388,-86,1098,17,-20,-1
3027,113,80,976,25,43,9
3028,-240,127,829,-20,66,19
3029,-423,30,807,-37,24,8
3030,-172,-123,1016,-22,-51,-7
3031,259,-176,1168,3,-78,-4
3032,403,-102,1124,23,-32,1
3033,176,54,1007,20,36,7
3034,-196,130,848,-8,66,15
3035,-426,45,804,-36,32,9
3036,-228,-87,966,-25,-41,-3
3037,199,-170,1154,0,-78,-6
3038,397,-131,1143,14,-42,-2
3039,237,37,1032,29,25,8
3040,-145,126,889,-6,67,17
3041,-422,53,790,-43,42,11
3042,-284,-69,932,-18,-29,-1
3043,134,-170,1125,-11,-78,-6
3044,391,-142,1137,18,-51,-1
3045,285,15,1048,29,17,4
3046,-79,116,903,-8,62,15
3047,-397,91,811,-22,51,15
3048,-332,-56,902,-41,-19,-1
3049,71,-171,1092,0,-73,-5
3050,377,-140,1163,11,-60,-1
3051,321,-16,1048,25,5,2
3052,-16,122,927,6,58,13
3053,-362,93,815,-32,58,14
3054,-371,-32,892,-35,-6,2
3055,8,-168,1080,-9,-69,-5
3056,343,-157,1169,8,-65,-2
3057,349,-42,1065,30,-5,2
3058,39,104,945,10,52,10
3059,-324,117,823,-21,61,14
3060,-399,-6,862,-36,6,4
3061,-58,-149,1064,-21,-64,-4
3062,313,-166,1172,14,-70,-4
3063,381,-64,1097,18,-15,0
3064,88,77,949,14,49,11
3065,-282,127,830,-16,65,15
3066,-412,15,827,-39,15,5
3067,-139,-135,1027,-19,-56,-4
3068,286,-163,1173,6,-77,-5
3069,404,-93,1109,20,-27,0
3070,144,68,991,21,40,8
3071,-219,136,849,-16,66,16
3072,-427,41,793,-39,30,8
3073,-206,-118,985,-29,-46,-3
3074,232,-174,1164,4,-79,-6
3075,401,-115,1141,22,-37,-1
3076,203,36,1014,16,30,8
3077,-170,131,869,-1,65,14
3078,-420,65,806,-41,38,11
3079,-260,-84,941,-26,-36,-4
3080,167,-168,1143,0,-78,-7
3081,397,-132,1135,13,-46,0
3082,261,19,1049,27,21,5
3083,-110,118,890,-6,64,14
3084,-413,80,814,-32,48,13
3085,-307,-77,911,-32,-23,-2
3086,102,-169,1101,-5,-77,-6
3087,382,-139,1152,20,-55,-1
3088,314,-4,1052,26,10,5
3089,-55,130,904,3,61,13
3090,-375,92,836,-30,54,12
3091,-349,-47,894,-34,-13,-1
3092,31,-159,1076,-8,-71,-6
3093,367,-166,1161,7,-63,-2
3094,335,-20,1057,34,0,3
3095,9,116,934,6,56,11
3096,-345,102,821,-28,59,13
3097,-393,-10,882,-33,-2,2
3098,-17,-165,1069,-20,-68,-6
3099,334,-169,1167,14,-68,-3
3100,366,-46,1081,28,-8,2
3101,62,97,934,7,51,12
3102,-306,119,835,-18,64,15
3103,-407,1,844,-41,11,4
3104,-108,-148,1041,-19,-60,-6
3105,302,-178,1173,10,-74,-3
3106,391,-74,1111,20,-20,-1
3107,114,86,964,20,43,10
3108,-248,128,828,-20,66,15
3109,-424,35,817,-37,23,6
3110,-170,-132,1014,-28,-52,-6
3111,260,-183,1171,3,-79,-4
3112,397,-90,1120,25,-30,1
3113,171,55,1012,17,36,6
3114,-198,115,848,-14,67,16
3115,-425,61,814,-30,32,8
3116,-228,-105,958,-32,-42,-4
3117,208,-179,1149,6,-79,-5
3118,403,-110,1143,18,-40,-1
3119,233,33,1040,24,27,7
3120,-151,130,884,-4,66,15
3121,-430,80,804,-41,43,11
3122,-277,-98,921,-32,-32,-1
3123,141,-184,1113,-3,-79,-6
3124,396,-135,1142,19,-51,-2
3125,293,0,1049,26,18,5
3126,-99,138,910,5,64,13
3127,-400,91,821,-33,49,13
3128,-322,-54,898,-35,-20,2
3129,71,-168,1076,-10,-75,-7
3130,384,-158,1157,17,-59,-5
3131,326,-13,1062,25,5,5
3132,-32,122,921,9,60,15
3133,-369,104,835,-31,58,14
3134,-372,-50,870,-34,-7,2
3135,15,-169,1088,-9,-72,-4
3136,349,-154,1161,14,-64,-5
3137,354,-41,1071,27,-5,3
3138,30,119,941,12,56,12
3139,-333,130,836,-25,61,14
3140,-399,-28,861,-40,4,3
3141,-57,-166,1055,-18,-66,-5
3142,322,-163,1176,17,-71,-4
3143,378,-78,1086,22,-14,1
3144,80,101,952,20,48,10
3145,-284,138,834,-16,64,16
3146,-410,6,824,-44,16,5
3147,-127,-130,1030,-15,-58,-5
3148,287,-174,1178,3,-76,-5
3149,400,-105,1105,21,-25,0
3150,133,78,994,23,40,11
3151,-231,131,830,-16,67,17
3152,-425,33,794,-34,28,8
3153,-198,-113,996,-23,-48,-6
3154,250,-183,1160,2,-80,-5
3155,405,-106,1150,26,-34,0
3156,193,47,1004,18,34,6
3157,-177,137,883,-4,65,17
3158,-427,60,789,-37,37,10
3159,-245,-83,947,-29,-39,-4
3160,182,-180,1143,0,-79,-6
3161,394,-125,1145,16,-43,-2
3162,250,21,1044,25,24,7
3163,-126,124,898,-4,65,16
3164,-424,85,801,-31,45,11
3165,-292,-92,906,-35,-27,-3
3166,118,-172,1115,-1,-78,-5
3167,390,-134,1143,19,-53,-2
3168,298,8,1049,28,15,2
3169,-69,123,908,0,61,15
3170,-390,98,836,-28,52,14
3171,-339,-53,883,-39,-15,0
3172,57,-176,1078,-8,-75,-4
3173,370,-155,1159,14,-59,-4
3174,334,-21,1062,26,3,2
3175,-6,106,926,7,59,14
3176,-364,116,823,-27,59,14
3177,-382,-32,883,-36,-5,3
3178,-6,-172,1075,-15,-71,-5
3179,346,-149,1173,16,-68,-3
3180,358,-57,1064,23,-6,2
3181,50,103,943,11,52,12
3182,-318,137,828,-18,63,16
3183,-408,-5,856,-42,8,4
3184,-81,-158,1051,-18,-63,-5
3185,313,-164,1177,13,-73,-4
3186,391,-76,1103,19,-18,1
3187,99,76,947,20,47,12
3188,-269,146,833,-14,66,17
3189,-422,15,821,-43,19,7
3190,-150,-142,1020,-19,-56,-5
3191,278,-155,1183,9,-79,-4
3192,402,-112,1110,17,-29,0
3193,156,71,1001,25,39,8
3194,-215,137,841,-16,66,16
3195,-426,32,788,-38,31,9
3196,-213,-96,992,-25,-45,-4
3197,229,-183,1153,0,-80,-5
3198,400,-121,1147,20,-37,-1
3199,212,45,1024,25,30,8
3200,-160,134,867,-7,66,18
3201,-427,64,800,-43,39,9
3202,-258,-83,935,-25,-35,-2
3203,160,-173,1136,-5,-77,-4
3204,396,-132,1141,14,-48,-2
3205,268,25,1053,30,21,5
3206,-110,122,892,-7,65,16
3207,-407,73,801,-34,48,13
3208,-313,-67,910,-32,-24,-3
3209,99,-176,1101,-7,-77,-8
3210,389,-150,1148,17,-56,-1
3211,308,23,1052,30,12,3
3212,-51,117,911,-4,60,15
3213,-378,95,828,-26,54,14
3214,-356,-40,898,-39,-12,0
3215,41,-181,1073,-9,-72,-3
3216,363,-154,1157,11,-62,-4
3217,339,-22,1063,27,1,1
3218,9,106,930,8,56,12
3219,-353,121,832,-23,59,14
3220,-389,-32,865,-39,-1,2
3221,-24,-163,1080,-17,-69,-7
3222,342,-155,1165,15,-70,-2
3223,369,-51,1080,27,-8,2
3224,58,104,944,11,52,12
3225,-308,122,827,-21,64,16
3226,-417,-10,844,-40,11,4
3227,-101,-158,1041,-20,-61,-5
3228,300,-180,1176,13,-76,-4
3229,399,-72,1100,24,-22,0
3230,112,83,969,24,45,11
3231,-256,142,833,-14,65,15
3232,-416,36,815,-38,22,7
3233,-166,-130,1012,-23,-51,-6
3234,270,-171,1163,6,-77,-4
3235,400,-106,1125,25,-30,1
3236,166,52,1006,17,37,8
3237,-207,138,854,-5,66,18
3238,-426,46,798,-37,31,11
3239,-223,-114,956,-27,-44,-5
3240,216,-167,1162,7,-80,-5
3241,405,-117,1145,21,-40,0
3242,221,32,1021,21,28,7
3243,-159,140,898,-3,65,15
3244,-424,58,789,-42,40,13
3245,-271,-93,925,-24,-31,-3
3246,153,-171,1129,0,-78,-7
3247,392,-138,1144,16,-49,0
3248,277,17,1048,33,19,6
3249,-105,140,914,-2,62,15
3250,-406,81,804,-33,50,14
3251,-316,-59,907,-36,-22,-1
3252,88,-179,1087,-8,-76,-5
3253,388,-150,1158,17,-58,-1
3254,311,-6,1052,24,9,3
3255,-46,115,914,6,60,13
3256,-374,100,838,-26,55,15
3257,-362,-41,876,-34,-10,2
3258,27,-158,1082,-8,-72,-5
3259,357,-157,1165,12,-65,-3
3260,343,-28,1065,28,-2,3
3261,23,119,932,11,55,11
3262,-339,111,822,-31,61,16
3263,-394,-20,874,-31,2,2
3264,-36,-161,1070,-22,-68,-6
3265,325,-163,1180,16,-67,-3
3266,366,-52,1080,23,-11,1
3267,69,92,937,11,48,11
3268,-291,114,821,-17,63,17
3269,-414,12,850,-38,14,4
3270,-101,-150,1035,-19,-61,-4
3271,292,-163,1179,12,-73,-4
3272,393,-80,1107,21,-22,0
3273,119,79,972,22,43,10
3274,-247,135,830,-19,66,16
3275,-418,22,805,-40,23,7
3276,-174,-119,1013,-18,-51,-4
3277,256,-172,1168,1,-76,-6
3278,402,-110,1130,22,-32,1
3279,176,61,1008,21,35,9
3280,-195,126,845,-12,67,17
3281,-429,48,798,-34,34,9
3282,-227,-98,958,-25,-41,-4
3283,201,-179,1157,2,-78,-6
3284,399,-123,1142,17,-42,-2
3285,234,42,1037,28,25,8
3286,-147,121,881,-7,66,14
3287,-419,68,795,-35,42,12
3288,-278,-73,933,-26,-32,-2
3289,145,-177,1129,-5,-77,-7
3290,385,-130,1138,15,-49,-2
3291,280,11,1047,24,18,6
3292,-98,118,901,-2,63,14
3293,-396,88,815,-26,50,14
3294,-319,-69,904,-38,-20,-1
3295,75,-170,1094,-4,-74,-6
3296,383,-146,1152,17,-59,-1
3297,315,-13,1059,26,7,4
3298,-36,129,912,12,60,14
3299,-367,104,831,-33,55,14
3300,-365,-40,886,-36,-9,1
3301,24,-160,1080,-8,-71,-5
3302,352,-161,1167,8,-65,-4
3303,349,-44,1064,28,-4,2
3304,20,117,945,13,56,10
3305,-334,104,817,-28,60,16
3306,-397,-15,861,-33,3,5
3307,-48,-150,1070,-19,-67,-6
3308,328,-166,1181,14,-71,-3
3309,370,-52,1091,24,-12,3
3310,79,92,939,9,49,10
3311,-287,121,824,-16,64,16
3312,-419,3,830,-42,16,4
3313,-117,-145,1040,-16,-59,-3
3314,288,-165,1186,6,-75,-4
3315,392,-93,1097,21,-23,-1
3316,128,76,979,24,41,10
3317,-238,132,832,-15,65,18
3318,-417,30,802,-37,24,7
3319,-187,-111,1011,-22,-48,-4
3320,254,-168,1166,4,-78,-6
3321,395,-104,1128,18,-32,0
3322,180,50,1012,20,34,8
3323,-185,124,854,-9,66,16
3324,-424,52,800,-34,36,10
3325,-237,-92,956,-30,-39,-4
3326,199,-188,1148,2,-79,-5
3327,391,-111,1148,19,-41,-2
3328,239,42,1033,23,24,7
3329,-140,116,885,-8,65,15
3330,-420,79,800,-36,43,12
3331,-280,-82,919,-29,-29,-1
3332,139,-184,1121,-10,-77,-6
3333,384,-130,1146,22,-49,-3
3334,290,7,1051,24,16,4
3335,-86,116,898,1,63,16
3336,-401,99,817,-28,51,12
3337,-326,-66,895,-37,-20,0
3338,72,-178,1088,-7,-75,-5
3339,379,-133,1174,16,-59,-3
3340,327,-19,1050,22,5,3
3341,-23,115,907,8,60,15
3342,-368,115,838,-25,57,13
3343,-375,-46,871,-40,-7,1
3344,14,-166,1088,-8,-71,-3
3345,350,-159,1164,8,-65,-3
3346,351,-36,1071,32,-4,2
3347,35,101,939,4,54,12
3348,-330,120,829,-21,62,17
3349,-397,-5,859,-36,4,3
3350,-59,-154,1058,-20,-64,-6
3351,319,-162,1177,13,-72,-3
3352,377,-60,1097,22,-16,1
3353,85,79,945,13,47,12
3354,-282,135,836,-14,63,17
3355,-414,2,817,-42,16,4
3356,-132,-136,1033,-16,-57,-4
3357,285,-168,1182,9,-76,-3
3358,393,-90,1104,20,-24,0
3359,136,77,991,24,40,8
3360,-225,138,832,-17,65,16
3361,-419,23,795,-37,26,9
3362,-188,-110,1007,-22,-48,-5
3363,247,-182,1165,-1,-79,-4
3364,392,-110,1132,24,-34,-1
3365,192,53,1013,20,33,8
3366,-189,129,859,-7,66,16
3367,-419,48,800,-39,34,9
3368,-242,-90,952,-23,-37,-3
3369,187,-179,1145,-1,-79,-6
3370,399,-121,1147,17,-43,-2
3371,239,36,1036,27,23,7
3372,-133,128,883,-7,64,14
3373,-419,63,807,-38,45,12
3374,-283,-69,926,-23,-28,-2
3375,127,-174,1110,-5,-78,-4
3376,388,-138,1141,21,-50,-2
3377,291,8,1053,35,15,3
3378,-79,123,911,-6,61,14
3379,-385,83,811,-22,51,14
3380,-341,-54,904,-41,-17,-2
3381,64,-171,1079,-1,-74,-7
3382,379,-157,1165,10,-61,-1
3383,320,-7,1059,33,4,3
3384,-9,117,919,2,57,14
3385,-358,103,828,-27,58,16
3386,-372,-21,874,-33,-5,3
3387,4,-167,1090,-14,-70,-4
3388,339,-167,1159,12,-64,-3
3389,351,-38,1081,27,-6,3
3390,40,103,929,11,54,12
3391,-325,117,817,-25,61,16
3392,-400,-8,866,-34,6,4
3393,-61,-156,1061,-22,-65,-5
3394,315,-163,1181,18,-70,-3
3395,372,-65,1094,17,-16,1
3396,89,91,944,20,47,11
3397,-277,129,833,-20,65,17
3398,-407,13,820,-39,17,7
3399,-137,-132,1032,-19,-55,-5
3400,287,-177,1170,2,-75,-3
3401,394,-84,1120,25,-26,2
3402,138,59,988,16,40,8
3403,-222,122,834,-9,66,16
3404,-432,44,806,-34,27,8
3405,-188,-121,986,-27,-48,-4
3406,237,-170,1161,6,-77,-5
3407,398,-108,1139,22,-36,0
3408,199,43,1015,18,30,8
3409,-180,137,867,-4,65,15
3410,-422,56,800,-39,36,12
3411,-249,-88,946,-28,-36,-2
3412,179,-175,1143,1,-80,-6
3413,393,-128,1147,15,-45,-1
3414,252,19,1029,30,22,6
3415,-131,126,896,-4,64,14
3416,-414,68,800,-36,45,12
3417,-297,-67,925,-26,-27,-2
3418,116,-169,1112,-8,-78,-7
3419,385,-138,1145,20,-52,-1
3420,297,7,1048,22,12,5
3421,-68,116,898,0,60,14
3422,-387,88,829,-27,52,14
3423,-341,-55,894,-36,-15,0
3424,52,-167,1084,-7,-74,-4
3425,375,-142,1166,14,-61,-2
3426,325,-24,1055,25,4,2
3427,-4,118,912,10,58,13
3428,-356,110,835,-28,57,14
3429,-378,-39,872,-34,-4,1
3430,1,-151,1086,-9,-69,-5
3431,339,-158,1167,5,-67,-3
3432,353,-55,1069,29,-6,1
3433,45,102,940,8,51,12
3434,-319,110,823,-22,61,16
3435,-401,1,856,-34,6,1
3436,-72,-150,1052,-21,-65,-4
3437,309,-167,1177,14,-71,-5
3438,382,-61,1106,21,-18,1
3439,89,82,953,13,48,11
3440,-270,124,831,-18,63,16
3441,-414,9,814,-39,18,6
3442,-145,-124,1036,-15,-54,-6
3443,278,-179,1169,4,-77,-6
3444,394,-94,1111,23,-28,1
3445,147,80,1000,22,40,10
3446,-218,128,831,-16,65,15
3447,-427,46,808,-36,29,8
3448,-198,-115,992,-27,-47,-5
3449,235,-181,1152,3,-79,-4
3450,396,-115,1139,22,-35,0
3451,203,48,1020,21,30,8
3452,-176,129,872,-8,64,16
3453,-427,66,802,-34,38,9
3454,-246,-84,942,-29,-37,-2
3455,172,-180,1137,-2,-79,-4
3456,396,-119,1146,17,-45,-2
3457,256,18,1044,27,22,6
3458,-123,108,890,-6,65,16
3459,-419,90,804,-28,46,12
3460,-296,-75,913,-33,-26,-1
3461,106,-178,1105,-6,-77,-7
3462,392,-125,1160,23,-55,-1
3463,305,-5,1046,19,12,4
3464,-62,120,904,6,62,14
3465,-385,105,831,-27,54,16
3466,-349,-56,885,-39,-13,2
3467,47,-168,1084,-7,-75,-5
3468,368,-145,1167,14,-62,-4
3469,334,-36,1054,23,1,4
3470,2,115,926,11,57,13
3471,-358,114,828,-27,58,12
3472,-379,-36,872,-36,-3,3
3473,-14,-143,1093,-12,-68,-5
3474,341,-159,1161,7,-66,-3
3475,358,-66,1077,25,-8,3
3476,50,111,940,14,54,12
3477,-314,117,822,-21,63,15
3478,-406,-16,853,-39,8,5
3479,-83,-139,1051,-14,-63,-5
3480,309,-167,1175,10,-73,-3
3481,389,-77,1096,20,-18,0
3482,96,94,968,23,46,11
3483,-261,125,815,-22,65,16
3484,-418,17,823,-39,20,7
3485,-152,-134,1019,-20,-54,-5
3486,277,-174,1176,6,-77,-4
3487,395,-97,1119,23,-28,1
3488,155,70,999,23,38,9
3489,-212,136,840,-14,65,16
3490,-425,38,790,-34,30,8
3491,-204,-100,988,-26,-45,-4
3492,223,-166,1165,2,-79,-7
3493,399,-127,1135,18,-37,-2
3494,210,44,1025,23,30,9
3495,-165,123,872,-7,66,15
3496,-423,54,795,-37,39,8
3497,-257,-81,941,-23,-36,-2
3498,165,-176,1142,0,-78,-5
3499,389,-122,1140,17,-46,-1
3500,265,21,1046,28,20,5
3501,-109,128,900,-5,64,15
3502,-416,78,797,-34,48,13
3503,-304,-69,916,-29,-24,-2
3504,101,-183,1101,-9,-76,-6
3505,377,-143,1148,22,-53,-2
3506,308,-2,1056,23,10,4
3507,-57,110,898,2,62,15
3508,-382,101,834,-24,52,12
3509,-341,-29,893,-35,-14,0
3510,43,-172,1081,-10,-73,-6
3511,366,-147,1166,13,-62,-4
3512,340,-22,1062,24,0,4
3513,5,94,922,4,57,11
3514,-349,113,828,-26,60,15
3515,-392,-30,871,-35,-1,3
3516,-17,-162,1082,-14,-69,-5
3517,332,-152,1163,15,-67,-4
3518,364,-55,1087,21,-11,1
3519,69,95,937,11,51,12
3520,-311,132,834,-14,64,15
3521,-402,-6,843,-43,11,5
3522,-101,-137,1049,-16,-60,-5
3523,301,-170,1180,6,-75,-5
3524,391,-90,1090,19,-21,1
3525,105,81,968,21,44,10
3526,-253,118,819,-18,65,16
3527,-422,18,819,-37,21,8
3528,-160,-121,1027,-15,-54,-5
3529,267,-160,1166,5,-76,-4
3530,402,-98,1122,20,-30,2
3531,168,59,997,18,37,8
3532,-206,143,859,-9,66,16
3533,-420,31,792,-40,32,10
3534,-225,-104,974,-26,-43,-5
3535,216,-174,1160,4,-79,-5
3536,400,-127,1137,18,-40,2
3537,207,47,1026,27,28,5
3538,-148,112,874,-6,64,15
3539,-423,66,803,-35,38,13
3540,-263,-67,939,-21,-32,-3
3541,159,-174,1126,-7,-77,-6
3542,383,-129,1140,16,-48,-1
3543,277,24,1055,28,17,5
3544,-99,110,897,-7,63,16
3545,-407,79,807,-29,49,12
3546,-311,-77,905,-36,-23,-1
3547,90,-170,1102,-6,-75,-4
3548,379,-142,1156,18,-57,-2
3549,310,-12,1041,23,9,2
3550,-43,124,916,8,59,14
3551,-372,99,830,-29,52,13
3552,-355,-35,893,-34,-11,1
3553,35,-163,1079,-12,-72,-5
3554,361,-152,1165,10,-64,-4
3555,336,-25,1066,28,0,2
3556,21,93,924,5,57,14
3557,-348,110,827,-24,61,16
3558,-393,-25,863,-35,1,3
3559,-29,-157,1077,-14,-67,-5
3560,324,-156,1175,15,-68,-4
3561,368,-59,1078,24,-13,1
3562,63,105,949,14,48,11
3563,-292,122,825,-18,64,17
3564,-408,10,842,-41,12,6
3565,-104,-137,1038,-19,-60,-5
3566,297,-176,1176,7,-73,-5
3567,382,-72,1114,21,-20,0
3568,121,55,959,15,43,12
3569,-250,130,835,-13,65,16
3570,-422,20,800,-37,23,6
3571,-165,-130,1020,-21,-51,-3
3572,255,-162,1171,2,-78,-5
3573,398,-99,1124,24,-33,-2
3574,176,53,1003,19,34,10
3575,-198,139,852,-7,66,16
3576,-415,54,804,-39,31,11
3577,-229,-105,963,-30,-41,-3
3578,203,-164,1155,4,-77,-7
3579,401,-128,1145,9,-42,0
3580,223,29,1023,27,27,8
3581,-148,123,887,-4,64,14
3582,-421,63,797,-35,42,12
3583,-275,-80,928,-25,-32,-1
3584,146,-164,1132,-4,-79,-7
3585,387,-126,1141,18,-51,-3
3586,287,5,1048,27,17,6
3587,-93,127,903,-2,64,14
3588,-403,89,806,-33,51,12
3589,-320,-75,903,-36,-21,1
3590,73,-165,1098,-4,-75,-4
3591,381,-149,1161,14,-59,-2
3592,317,-20,1046,26,7,3
3593,-36,116,915,9,58,13
3594,-362,101,830,-28,55,16
3595,-364,-37,878,-37,-8,2
3596,17,-152,1089,-9,-71,-6
3597,356,-162,1164,10,-66,-3
3598,344,-30,1075,28,-4,3
3599,33,107,930,9,54,12
3600,-331,106,815,-25,61,15
3601,-393,-13,870,-33,3,4
3602,-47,-147,1071,-17,-66,-6
3603,322,-170,1174,14,-70,-4
3604,368,-68,1086,22,-14,2
3605,77,100,949,16,47,11
3606,-283,124,824,-20,62,15
3607,-412,4,835,-40,14,6
3608,-114,-128,1036,-13,-58,-4
3609,290,-171,1167,4,-74,-4
3610,394,-91,1107,21,-24,2
3611,121,81,988,25,43,9
3612,-231,111,824,-21,65,16
3613,-420,42,807,-28,25,9
3614,-186,-108,1000,-26,-48,-6
3615,251,-180,1163,1,-79,-7
3616,397,-99,1140,26,-34,1
3617,187,40,1002,14,34,8
3618,-187,123,859,-3,67,15
3619,-429,64,809,-37,34,9
3620,-241,-92,953,-29,-39,-3
3621,194,-165,1150,3,-80,-6
3622,390,-128,1142,12,-42,-2
3623,249,20,1034,29,24,7
3624,-135,125,888,-7,65,16
3625,-424,69,802,-35,44,11
3626,-287,-67,926,-23,-28,-3
3627,126,-178,1116,-8,-77,-5
3628,385,-129,1147,19,-51,-3
3629,298,12,1053,25,13,3
3630,-76,106,892,-6,62,14
3631,-390,96,830,-24,52,13
3632,-330,-60,892,-41,-16,1
3633,61,-168,1087,-5,-73,-4
3634,371,-131,1167,17,-60,-2
3635,323,-38,1049,18,2,3
3636,-10,114,918,14,57,11
3637,-360,109,832,-29,57,13
3638,-365,-42,878,-37,-4,3
3639,1,-150,1092,-9,-70,-7
3640,340,-155,1162,7,-66,-4
3641,352,-48,1074,28,-6,4
3642,41,100,933,6,52,11
3643,-323,119,825,-18,62,15
3644,-398,-15,852,-39,6,5
3645,-69,-153,1066,-18,-63,-5
3646,314,-161,1177,13,-70,-4
3647,372,-68,1098,18,-17,0
3648,89,81,944,20,46,10
3649,-268,136,834,-13,64,15
3650,-413,13,821,-42,19,6
3651,-140,-129,1033,-17,-55,-5
3652,283,-168,1174,3,-77,-6
3653,390,-91,1121,22,-26,-1
3654,145,52,978,18,39,10
3655,-224,132,848,-12,64,17
3656,-426,31,793,-36,28,8
3657,-196,-108,999,-22,-47,-3
3658,230,-163,1160,6,-77,-6
3659,403,-119,1133,18,-37,-1
3660,202,49,1017,24,31,8
3661,-168,126,865,-6,66,16
3662,-425,54,806,-40,39,11
3663,-253,-83,945,-26,-36,-3
3664,176,-172,1143,-2,-79,-5
3665,391,-125,1141,14,-44,-1
3666,252,19,1035,29,22,5
3667,-113,113,894,-8,62,16
3668,-417,77,806,-28,47,15
3669,-299,-62,913,-28,-25,-1
3670,105,-178,1112,-11,-77,-5
3671,387,-135,1151,23,-55,-2
3672,309,5,1053,23,10,4
3673,-58,103,893,-1,62,14
3674,-380,101,831,-24,53,13
3675,-347,-41,892,-38,-14,2
3676,38,-166,1092,-9,-73,-4
3677,364,-152,1158,10,-61,-2
3678,331,-26,1060,24,1,3
3679,9,95,923,9,57,13
3680,-346,108,830,-26,59,14
3681,-385,-27,875,-35,-1,3
3682,-19,-164,1079,-14,-68,-6
3683,332,-140,1174,16,-67,-2
3684,354,-51,1072,22,-9,2
3685,59,93,940,7,49,10
3686,-308,126,830,-14,62,16
3687,-401,6,848,-42,10,4
3688,-87,-157,1045,-21,-60,-4
3689,298,-168,1180,10,-72,-4
3690,386,-80,1100,20,-19,2
3691,98,70,959,19,45,10
3692,-254,141,834,-13,64,15
3693,-415,11,805,-43,20,6
3694,-157,-118,1026,-16,-53,-5
3695,269,-156,1180,2,-77,-5
3696,395,-112,1108,17,-29,0
3697,167,56,1012,21,37,10
3698,-208,133,834,-11,67,16
3699,-424,38,807,-36,31,8
3700,-216,-103,978,-27,-43,-2
3701,214,-167,1159,5,-80,-5
3702,395,-118,1136,18,-39,-3
3703,219,39,1024,23,28,6
3704,-156,132,878,-4,66,15
3705,-418,58,797,-42,40,12
3706,-269,-72,947,-21,-32,-3
3707,152,-176,1127,-8,-78,-7
3708,391,-135,1138,14,-49,1
3709,271,15,1047,28,19,4
3710,-101,115,889,-4,63,12
3711,-408,77,816,-28,48,13
3712,-316,-62,910,-41,-20,1
3713,87,-166,1095,-14,-75,-5
3714,379,-138,1161,16,-58,-5
3715,319,-13,1048,22,8,4
3716,-35,119,907,9,59,15
3717,-369,99,830,-33,56,14
3718,-365,-41,884,-31,-8,0
3719,26,-157,1096,-11,-72,-5
3720,357,-160,1162,10,-63,0
3721,338,-31,1062,26,-2,3
3722,23,100,926,10,54,11
3723,-334,116,835,-23,60,15
3724,-395,-17,859,-33,2,3
3725,-35,-155,1074,-18,-67,-4
3726,321,-160,1173,16,-69,-2
3727,369,-57,1089,22,-13,1
3728,75,96,947,11,47,11
3729,-292,116,819,-18,66,15
3730,-406,11,843,-38,13,5
3731,-116,-135,1034,-18,-59,-4
3732,291,-174,1177,9,-74,-5
3733,387,-84,1102,21,-23,0
3734,127,71,980,19,41,9
3735,-238,123,833,-16,64,13
3736,-418,36,809,-34,23,9
3737,-177,-120,1005,-24,-49,-3
3738,248,-161,1164,3,-77,-5
3739,395,-115,1126,21,-32,-1
3740,189,45,1014,19,33,9
3741,-190,139,857,-5,65,13
3742,-424,45,799,-39,34,10
3743,-235,-91,960,-25,-39,-3
3744,191,-172,1147,2,-78,-5
3745,394,-125,1139,15,-43,0
3746,242,35,1037,29,25,8
3747,-138,120,878,-8,66,14
3748,-414,75,807,-35,42,12
3749,-286,-80,927,-27,-29,0
3750,124,-168,1120,-8,-77,-6
3751,386,-130,1149,16,-51,-2
3752,295,-5,1041,23,14,4
3753,-81,125,892,4,63,12
3754,-391,83,827,-30,51,14
3755,-329,-58,899,-35,-18,1
3756,52,-152,1098,-3,-73,-8
3757,383,-151,1158,11,-61,-2
3758,327,-17,1053,26,4,5
3759,-19,107,912,5,60,11
3760,-350,93,828,-30,56,14
3761,-384,-21,887,-30,-3,2
3762,0,-159,1081,-17,-69,-6
3763,342,-155,1166,12,-67,-3
3764,351,-46,1077,27,-6,1
3765,51,92,939,9,53,11
3766,-317,121,826,-16,63,17
3767,-405,-8,846,-37,10,4
3768,-81,-143,1061,-20,-63,-6
3769,317,-161,1182,14,-73,-1
3770,379,-80,1093,19,-16,1
3771,97,84,955,20,45,9
3772,-258,129,836,-17,63,16
3773,-415,9,808,-39,20,8
3774,-154,-119,1026,-16,-54,-4
3775,271,-163,1175,2,-77,-7
3776,395,-105,1113,20,-30,1
3777,157,64,1000,22,37,9
3778,-204,125,841,-14,65,17
3779,-426,32,800,-35,31,7
3780,-208,-92,985,-26,-45,-3
3781,223,-171,1158,1,-77,-3
3782,388,-124,1127,19,-35,-4
3783,216,38,1025,24,28,7
3784,-155,126,883,-4,64,17
3785,-426,74,802,-38,40,8
3786,-260,-85,938,-28,-33,-3
3787,157,-167,1142,-3,-78,-2
3788,389,-128,1129,14,-47,-2
3789,272,8,1043,26,19,5
3790,-105,110,894,-2,64,14
3791,-406,92,815,-28,48,15
3792,-313,-58,912,-34,-23,-1
3793,88,-178,1083,-10,-76,-6
3794,381,-134,1162,22,-58,-3
3795,319,-7,1059,20,6,4
3796,-35,107,903,6,60,14
3797,-374,115,836,-24,55,12
3798,-364,-42,879,-42,-9,2
3799,21,-170,1088,-10,-72,-3
3800,355,-146,1169,9,-65,-2
3801,345,-41,1060,28,-2,3
3802,29,88,927,6,54,12
3803,-332,129,836,-14,62,15
3804,-397,-22,859,-37,3,3
3805,-49,-153,1065,-15,-65,-5
3806,319,-148,1179,17,-70,-3
3807,374,-66,1091,19,-14,1
3808,86,72,938,15,47,12
3809,-285,138,836,-13,65,15
3810,-414,6,826,-45,16,5
3811,-128,-136,1036,-15,-58,-4
3812,286,-161,1173,5,-75,-3
3813,392,-98,1101,21,-25,-2
3814,137,61,997,23,40,8
3815,-228,127,836,-15,65,18
3816,-427,43,806,-34,28,8
3817,-193,-112,993,-28,-47,-5
3818,241,-167,1156,4,-78,-4
3819,398,-105,1146,20,-36,0
3820,198,29,1000,17,31,6
3821,-176,140,879,-1,65,15
3822,-424,52,803,-41,37,11
3823,-250,-93,941,-24,-36,-4
3824,169,-161,1144,-1,-79,-5
3825,398,-153,1132,9,-47,-2
3826,252,33,1052,39,21,4
3827,-112,121,884,-12,62,14
3828,-411,78,806,-28,48,13
3829,-308,-41,924,-27,-23,-3
3830,108,-176,1106,-16,-78,-5
3831,381,-148,1144,18,-54,0
3832,309,3,1057,23,11,3
3833,-51,89,883,-1,62,13
3834,-382,96,841,-23,54,14
3835,-355,-38,892,-33,-13,1
3836,35,-173,1081,-10,-73,-5
3837,360,-139,1162,13,-62,-4
3838,342,-32,1062,25,-3,3
3839,20,110,934,10,57,12
3840,-342,112,824,-26,60,14
3841,-394,-14,872,-36,1,3
3842,-37,-158,1072,-19,-67,-6
3843,332,-162,1175,15,-70,-2
3844,359,-60,1088,20,-10,2
3845,75,73,929,9,49,12
3846,-295,129,838,-11,64,15
3847,-410,9,842,-41,15,5
3848,-110,-142,1032,-15,-59,-4
3849,289,-158,1170,10,-73,-5
3850,398,-86,1113,17,-24,1
3851,127,65,976,20,41,9
3852,-236,139,838,-16,66,14
3853,-419,24,803,-36,26,9
3854,-186,-121,1008,-25,-48,-4
3855,248,-168,1160,2,-78,-6
3856,400,-115,1122,21,-34,0
3857,191,51,1017,21,33,8
3858,-185,128,858,-6,67,14
3859,-422,61,815,-36,34,10
3860,-246,-90,949,-27,-37,-3
3861,183,-165,1142,-1,-79,-5
3862,398,-127,1137,13,-45,-1
3863,252,18,1036,27,23,5
3864,-125,113,890,-5,65,13
3865,-415,74,803,-33,46,12
3866,-295,-63,922,-26,-27,0
3867,109,-169,1107,-9,-77,-5
3868,389,-140,1148,19,-54,-1
3869,305,2,1053,23,12,5
3870,-61,119,901,2,61,13
3871,-381,84,824,-29,54,13
3872,-350,-42,897,-34,-14,1
3873,46,-158,1086,-9,-73,-5
3874,363,-155,1162,11,-62,-3
3875,332,-29,1060,26,0,4
3876,11,101,925,7,55,13
3877,-348,113,826,-24,60,13
3878,-383,-24,874,-35,-1,4
3879,-22,-146,1079,-16,-69,-5
3880,327,-154,1169,11,-68,-4
3881,363,-58,1079,24,-10,1
3882,61,93,944,11,50,11
3883,-297,118,827,-15,63,15
3884,-405,-3,842,-42,12,5
3885,-104,-134,1044,-14,-60,-4
3886,300,-166,1174,8,-74,-3
3887,392,-87,1102,17,-21,1
3888,114,79,975,21,44,9
3889,-245,115,831,-19,66,14
3890,-420,34,815,-31,22,9
3891,-176,-111,1005,-23,-50,-5
3892,259,-174,1162,1,-77,-5
3893,399,-104,1126,24,-32,1
3894,180,61,1012,18,35,7
3895,-186,118,855,-11,65,15
3896,-434,54,805,-33,35,9
3897,-231,-93,955,-29,-41,-2
3898,192,-172,1149,4,-78,-4
3899,390,-120,1145,14,-42,-2
3900,247,23,1033,24,24,5
3901,-139,117,888,-6,64,14
3902,-416,69,801,-33,44,12
3903,-292,-64,929,-24,-28,-1
3904,121,-177,1113,-9,-78,-6
3905,391,-127,1148,23,-52,-2
3906,296,1,1048,21,13,4
3907,-63,103,896,1,63,14
3908,-388,103,831,-24,53,15
3909,-347,-47,896,-40,-16,1
3910,53,-178,1077,-7,-74,-6
3911,365,-135,1171,13,-61,-1
3912,339,-32,1053,22,2,4
3913,0,97,920,6,57,11
3914,-352,111,838,-25,58,14
3915,-385,-20,869,-34,-2,4
3916,-15,-161,1080,-16,-68,-6
3917,328,-145,1162,14,-68,-5
3918,365,-64,1083,23,-11,3
3919,58,85,934,8,52,10
3920,-304,136,839,-13,63,14
3921,-402,-2,845,-45,10,6
3922,-99,-140,1034,-18,-59,-2
3923,289,-161,1180,8,-72,-6
3924,393,-101,1096,12,-22,2
3925,113,83,981,26,42,13
3926,-250,128,825,-20,65,12
3927,-415,17,811,-34,23,8
3928,-176,-103,1019,-20,-51,-3
3929,262,-172,1157,1,-78,-5
3930,398,-114,1126,20,-33,0
3931,176,52,1009,21,37,8
3932,-185,119,856,-11,66,16
3933,-434,64,815,-30,35,9
3934,-237,-97,948,-31,-39,-5
3935,196,-169,1150,4,-79,-6
3936,395,-125,1139,12,-43,-2
3937,247,25,1032,28,25,5
3938,-136,127,892,-6,65,13
3939,-418,61,800,-38,45,12
3940,-295,-71,927,-25,-27,-1
3941,121,-162,1110,-6,-78,-6
3942,391,-149,1138,14,-52,0
3943,299,4,1056,27,14,4
3944,-62,115,897,-1,62,14
3945,-396,93,828,-29,53,14
3946,-341,-40,897,-35,-16,1
3947,54,-173,1079,-7,-73,-5
3948,365,-147,1159,13,-61,-4
3949,340,-26,1066,24,0,3
3950,-2,113,930,10,58,12
3951,-355,105,830,-31,59,13
3952,-383,-21,871,-29,-3,3
3953,-21,-149,1074,-20,-68,-5
3954,339,-176,1167,12,-67,-3
3955,367,-54,1082,27,-9,3
3956,54,94,938,10,53,12
3957,-309,112,831,-16,64,12
3958,-411,21,852,-35,10,5
3959,-106,-141,1036,-23,-60,-4
3960,308,-174,1166,12,-75,-5
3961,397,-71,1103,21,-22,3
3962,122,65,972,18,44,10
3963,-245,125,836,-14,67,12
3964,-423,36,821,-35,23,8
3965,-175,-133,1003,-28,-51,-3
3966,251,-165,1155,7,-79,-6
3967,399,-105,1121,24,-33,0
3968,181,48,1012,18,34,10
3969,-188,141,871,-1,66,15
3970,-425,48,799,-41,34,9
3971,-235,-86,960,-21,-39,-3
3972,188,-180,1144,-2,-77,-6
3973,401,-135,1141,16,-42,0
3974,236,36,1041,31,26,8
3975,-137,110,877,-9,65,13
3976,-420,93,812,-29,44,10
3977,-289,-75,923,-30,-30,-1
3978,127,-174,1109,-8,-77,-5
3979,387,-127,1146,19,-53,-2
3980,300,-10,1051,20,14,4
3981,-69,113,905,4,63,16
3982,-393,100,830,-29,53,15
3983,-348,-58,886,-38,-15,-1
3984,48,-158,1081,-5,-76,-6
3985,381,-148,1167,10,-64,-1
3986,338,-35,1053,26,4,3
3987,4,123,938,11,58,12
3988,-362,104,827,-32,61,13
3989,-391,-23,878,-33,0,3
3990,-25,-157,1065,-17,-68,-5
3991,333,-169,1161,10,-70,-4
3992,376,-64,1086,28,-10,2
3993,61,98,943,12,52,12
3994,-299,121,838,-16,63,16
3995,-419,6,840,-39,14,3
3996,-107,-140,1032,-17,-61,-4
3997,297,-163,1179,9,-75,-3
3998,401,-91,1095,18,-23,2
3999,125,77,985,23,44,11
4000,-239,128,840,-18,66,16
4001,-425,27,798,-39,26,8
4002,-185,-113,1013,-23,-51,-4
4003,255,-183,1160,1,-80,-4
4004,401,-112,1121,25,-34,0
4005,188,60,1020,21,33,7
4006,-180,121,851,-7,67,15
4007,-433,66,815,-36,35,10
4008,-240,-90,947,-28,-39,-3
4009,186,-172,1151,4,-79,-5
4010,397,-130,1131,12,-43,-1
4011,260,27,1034,30,23,7
4012,-134,127,906,-7,64,12
4013,-411,62,800,-35,45,12
4014,-305,-64,925,-26,-26,1
4015,106,-179,1096,-11,-78,-8
4016,389,-143,1149,25,-55,-1
4017,302,3,1053,26,11,5
4018,-57,114,901,1,60,13
4019,-384,110,842,-25,53,13
4020,-349,-43,888,-40,-14,1
4021,43,-169,1075,-9,-72,-6
4022,361,-150,1160,8,-61,-4
4023,342,-36,1061,24,0,2
4024,11,100,932,8,57,12
4025,-352,120,836,-22,61,13
4026,-385,-27,861,-37,-1,3
4027,-35,-162,1068,-18,-68,-6
4028,333,-155,1178,18,-69,-3
4029,376,-61,1073,22,-10,4
4030,68,96,946,12,50,11
4031,-298,139,840,-13,66,13
4032,-414,2,840,-48,13,5
4033,-122,-145,1032,-17,-59,-4
4034,304,-169,1175,8,-77,-4
4035,398,-97,1098,21,-23,1
4036,134,66,974,23,43,11
4037,-239,134,845,-16,66,16
4038,-427,30,803,-33,26,8
4039,-189,-107,1000,-23,-49,-2
4040,238,-176,1154,3,-79,-8
4041,411,-114,1136,23,-36,-1
4042,191,56,1018,23,34,8
4043,-175,132,865,-8,67,15
4044,-430,54,804,-40,37,10
4045,-255,-97,941,-26,-38,-4
4046,182,-174,1147,3,-82,-4
4047,389,-132,1131,15,-44,-3
4048,266,12,1039,30,21,5
4049,-127,137,901,-3,64,14
4050,-410,77,811,-33,45,12
4051,-297,-68,909,-29,-25,0
4052,99,-164,1101,-8,-75,-5
4053,387,-157,1145,20,-53,-4
4054,314,4,1062,25,10,5
4055,-56,121,906,7,61,14
4056,-377,83,828,-36,53,12
4057,-357,-29,891,-26,-12,2
4058,38,-175,1077,-16,-73,-5
4059,363,-160,1154,15,-63,-3
4060,342,-16,1073,31,-2,2
4061,20,104,930,5,56,12
4062,-342,109,832,-24,60,15
4063,-397,-12,870,-34,1,3
4064,-43,-154,1061,-17,-67,-6
4065,330,-167,1171,13,-71,-2
4066,374,-59,1095,25,-13,2
4067,79,87,937,13,48,12
4068,-296,127,833,-14,66,15
4069,-414,3,841,-45,14,5
4070,-118,-132,1038,-14,-59,-2
4071,284,-170,1160,3,-75,-6
4072,395,-93,1102,23,-25,-2
4073,139,69,996,22,39,11
4074,-232,136,843,-15,66,15
4075,-427,30,801,-38,28,8
4076,-198,-108,997,-25,-47,-3
4077,239,-182,1154,2,-79,-6
4078,406,-114,1138,24,-36,0
4079,196,48,1017,21,33,8
4080,-168,125,866,-4,66,15
4081,-433,77,814,-36,39,10
4082,-251,-96,942,-30,-36,0
4083,167,-170,1141,-1,-79,-6
4084,391,-130,1129,12,-46,-2
4085,273,16,1048,29,19,6
4086,-117,121,893,-7,65,13
4087,-409,79,817,-28,47,13
4088,-310,-70,910,-31,-22,-1
4089,96,-168,1098,-6,-77,-4
4090,388,-139,1145,19,-57,-2
4091,318,-10,1056,21,10,4
4092,-46,112,903,9,61,14
4093,-375,114,842,-28,55,12
4094,-365,-44,889,-38,-10,0
4095,33,-166,1075,-10,-73,-4
4096,353,-144,1163,9,-64,-3
4097,351,-54,1062,23,-4,2
4098,21,105,942,12,56,12
4099,-341,119,831,-24,61,16
4100,-399,-18,859,-36,2,5
4101,-64,-149,1064,-16,-66,-7
4102,331,-162,1174,14,-71,-3
4103,381,-71,1093,21,-15,4
4104,80,95,949,18,50,10
4105,-276,125,834,-18,65,16
4106,-420,19,828,-43,16,7
4107,-138,-125,1031,-18,-56,-6
4108,284,-176,1165,-1,-77,-4
4109,400,-104,1110,23,-29,1
4110,149,65,991,23,42,7
4111,-219,127,849,-13,66,15
4112,-425,37,805,-32,30,9
4113,-208,-96,988,-25,-45,-4
4114,232,-176,1151,3,-79,-4
4115,396,-112,1132,19,-36,-1
4116,215,51,1027,19,30,7
4117,-160,114,877,-7,65,16
4118,-434,70,810,-38,41,8
4119,-264,-92,928,-29,-34,-2
4120,155,-178,1130,-2,-80,-5
4121,395,-131,1143,19,-48,0
4122,276,11,1040,27,19,5
4123,-104,131,907,-1,64,13
4124,-403,81,808,-29,49,12
4125,-324,-53,907,-38,-22,0
4126,88,-176,1092,-9,-77,-5
4127,382,-150,1148,15,-58,-2
4128,321,-8,1058,27,8,3
4129,-29,108,925,4,62,13
4130,-370,104,834,-27,57,14
4131,-374,-24,880,-34,-8,2
4132,14,-170,1076,-13,-72,-6
4133,354,-156,1160,13,-66,-4
4134,360,-38,1079,26,-5,4
4135,35,97,935,6,55,11
4136,-328,123,834,-21,62,16
4137,-415,-11,851,-37,7,4
4138,-71,-155,1048,-21,-66,-5
4139,317,-163,1177,14,-75,-1
4140,393,-81,1091,19,-18,0
4141,100,91,960,24,47,10
4142,-266,133,842,-20,66,16
4143,-422,24,823,-41,20,6
4144,-159,-129,1016,-21,-54,-4
4145,271,-174,1161,2,-77,-6
4146,414,-105,1121,24,-31,2
4147,162,53,998,17,39,9
4148,-209,131,857,-9,67,15
4149,-432,42,804,-36,32,9
4150,-230,-104,961,-28,-43,-4
4151,216,-165,1152,8,-80,-5
4152,406,-121,1141,16,-40,0
4153,234,39,1026,28,28,5
4154,-146,136,900,-8,65,16
4155,-427,62,798,-38,43,12
4156,-285,-80,924,-28,-29,-2
4157,134,-182,1117,-9,-78,-6
4158,390,-138,1135,22,-51,-1
4159,290,5,1054,26,16,4
4160,-87,123,900,3,63,13
4161,-389,89,825,-29,48,14
4162,-336,-48,906,-34,-18,1
4163,72,-162,1075,-6,-75,-7
4164,378,-152,1155,9,-60,-2
4165,332,-13,1058,27,4,2
4166,-10,113,925,9,59,13
4167,-368,94,834,-33,57,15
4168,-381,-33,876,-31,-5,2
4169,-8,-159,1073,-14,-71,-6
4170,344,-162,1164,12,-68,-3
4171,365,-45,1080,32,-9,3
4172,45,105,936,10,53,9
4173,-304,125,838,-15,61,15
4174,-413,7,855,-39,9,5
4175,-87,-144,1042,-21,-63,-5
4176,312,-179,1172,5,-75,-2
4177,386,-75,1094,21,-18,-1
4178,110,76,969,18,45,10
4179,-259,115,826,-21,65,14
4180,-422,41,825,-30,20,7
4181,-162,-125,1011,-24,-53,-4
4182,262,-175,1156,4,-78,-7
4183,408,-93,1131,23,-32,1
4184,174,63,1007,18,38,8
4185,-195,123,856,-12,67,15
4186,-431,62,813,-34,35,10
4187,-240,-107,951,-34,-42,-3
4188,202,-189,1145,4,-81,-5
4189,398,-110,1147,20,-41,-1
4190,240,24,1029,23,26,7
4191,-145,119,883,-4,67,15
4192,-424,83,819,-34,44,10
4193,-284,-81,917,-30,-28,-2
4194,118,-172,1105,-9,-79,-6
4195,397,-138,1147,18,-53,-2
4196,298,-1,1051,26,15,4
4197,-71,115,902,1,63,14
4198,-390,97,840,-25,52,14
4199,-347,-50,887,-39,-16,0
4200,52,-168,1078,-4,-75,-6
4201,374,-143,1163,14,-61,-2
4202,338,-31,1061,25,1,3
4203,8,110,931,10,57,13
4204,-354,117,835,-28,59,15
4205,-391,-23,872,-34,-1,2
4206,-27,-169,1070,-19,-68,-5
4207,336,-155,1169,19,-68,-3
4208,371,-55,1079,23,-11,3
4209,60,83,933,11,52,11
4210,-297,139,844,-11,63,17
4211,-416,-1,846,-45,12,5
4212,-112,-147,1033,-17,-60,-5
4213,301,-162,1173,8,-76,-2
4214,398,-100,1092,18,-22,1
4215,128,83,983,27,45,9
4216,-240,132,839,-19,66,16
4217,-426,23,811,-36,25,7
4218,-182,-104,1005,-19,-50,-4
4219,251,-172,1158,-1,-79,-4
4220,407,-117,1125,19,-32,-1
4221,186,57,1015,21,34,8
4222,-187,124,872,-6,66,16
4223,-427,59,798,-37,35,10
4224,-250,-84,950,-26,-38,-3
4225,187,-186,1138,-1,-80,-6
4226,399,-130,1142,18,-46,0
4227,257,28,1042,29,23,6
4228,-121,123,898,-7,64,15
4229,-422,90,803,-30,46,12
4230,-303,-67,913,-33,-26,-1
4231,106,-176,1099,-8,-78,-6
4232,393,-142,1149,17,-57,-2
4233,310,-14,1054,21,10,4
4234,-52,118,908,7,62,15
4235,-376,101,833,-29,54,14
4236,-367,-37,888,-36,-12,0
4237,37,-166,1084,-7,-74,-6
4238,366,-157,1158,9,-62,-3
4239,346,-32,1060,27,-1,3
4240,22,109,945,8,56,12
4241,-348,106,824,-27,62,15
4242,-403,-11,874,-33,0,3
4243,-41,-154,1068,-22,-69,-3
4244,322,-167,1155,14,-71,-3
4245,383,-58,1094,25,-14,3
4246,76,90,943,16,50,11
4247,-288,125,845,-16,65,16
4248,-415,15,832,-42,15,6
4249,-130,-135,1026,-17,-57,-3
4250,289,-175,1166,5,-76,-3
4251,401,-88,1109,22,-26,1
4252,140,58,988,17,42,8
4253,-230,136,847,-11,67,15
4254,-428,34,797,-34,28,9
4255,-205,-109,996,-26,-48,-4
4256,236,-174,1156,4,-79,-4
4257,402,-115,1136,19,-37,-1
4258,206,46,1015,23,31,7
4259,-164,131,877,-3,66,15
4260,-430,72,810,-40,38,11
4261,-260,-97,933,-30,-36,-3
4262,158,-166,1140,1,-79,-5
4263,393,-140,1132,13,-48,-1
4264,276,11,1041,31,19,6
4265,-111,128,901,-5,65,14
4266,-407,77,810,-31,48,13
4267,-317,-59,905,-32,-23,0
4268,86,-166,1094,-8,-76,-5
4269,391,-147,1157,17,-58,-2
4270,320,-5,1053,24,8,5
4271,-36,111,913,5,62,13
4272,-370,96,838,-28,56,13
4273,-373,-36,880,-33,-7,2
4274,15,-163,1074,-11,-71,-6
4275,355,-152,1164,11,-66,-4
4276,353,-43,1069,28,-3,2
4277,36,99,943,8,55,12
4278,-329,128,838,-21,62,16
4279,-401,-15,858,-38,6,4
4280,-72,-140,1049,-19,-65,-7
4281,324,-166,1177,12,-73,-2
4282,383,-77,1087,17,-14,2
4283,91,89,959,20,47,11
4284,-268,110,833,-20,66,15
4285,-423,25,832,-34,20,7
4286,-147,-131,1017,-19,-56,-4
4287,274,-169,1166,3,-78,-4
4288,399,-99,1106,26,-29,0
4289,168,62,998,19,37,10
4290,-210,138,855,-9,68,15
4291,-425,44,805,-37,31,9
4292,-217,-91,981,-27,-43,-4
4293,214,-179,1148,-1,-78,-4
4294,400,-125,1137,16,-39,-1
4295,222,39,1029,24,29,7
4296,-155,111,871,-6,66,16
4297,-429,70,811,-34,41,11
4298,-274,-79,932,-26,-33,-2
4299,147,-182,1121,-5,-79,-5
4300,393,-112,1149,21,-51,-2
4301,291,10,1042,25,18,3
4302,-87,104,891,-5,63,15
4303,-401,107,833,-21,52,14
4304,-330,-63,895,-39,-19,0
4305,59,-179,1078,-7,-74,-6
4306,383,-142,1173,19,-61,-3
4307,334,-25,1054,22,5,4
4308,-14,106,916,11,59,12
4309,-366,119,837,-27,58,13
4310,-376,-32,877,-34,-6,4
4311,-5,-152,1079,-12,-70,-5
4312,344,-149,1162,10,-67,-4
4313,362,-57,1075,24,-7,3
4314,51,92,943,8,52,12
4315,-314,121,839,-14,64,16
4316,-409,-7,848,-41,10,5
4317,-99,-148,1039,-17,-63,-6
4318,310,-155,1180,13,-75,-4
4319,395,-81,1093,17,-19,2
4320,111,72,967,19,45,9
4321,-252,129,839,-15,66,15
4322,-419,25,816,-39,22,9
4323,-167,-116,1016,-23,-52,-3
4324,261,-175,1158,1,-78,-4
4325,398,-106,1119,23,-31,0
4326,178,58,1011,21,36,9
4327,-192,123,853,-11,66,17
4328,-425,50,806,-34,34,9
4329,-238,-94,960,-25,-40,-5
4330,202,-177,1148,2,-80,-3
4331,394,-115,1144,16,-44,-3
4332,244,26,1025,25,24,5
4333,-133,131,890,-2,65,17
4334,-423,72,801,-40,44,11
4335,-288,-77,927,-25,-27,-3
4336,127,-162,1117,-8,-78,-4
4337,389,-142,1139,16,-52,-1
4338,294,1,1046,22,15,2
4339,-67,120,907,0,62,16
4340,-389,85,827,-29,53,16
4341,-347,-51,893,-35,-15,-2
4342,55,-157,1087,-4,-74,-5
4343,368,-147,1149,11,-61,-2
4344,340,-30,1061,24,2,5
4345,-2,111,936,11,58,14
4346,-353,105,826,-29,58,15
4347,-388,-10,882,-31,-1,3
4348,-20,-164,1065,-18,-69,-7
4349,335,-157,1162,10,-68,-4
4350,366,-61,1080,25,-10,3
4351,63,93,947,11,51,12
4352,-302,119,833,-17,64,15
4353,-414,4,853,-40,12,4
4354,-105,-141,1037,-17,-60,-5
4355,297,-174,1169,9,-75,-4
4356,395,-78,1099,21,-22,-1
4357,124,79,976,22,44,11
4358,-243,114,832,-21,66,14
4359,-420,42,820,-31,25,10
4360,-181,-122,1009,-29,-49,-3
4361,249,-177,1155,3,-77,-7
4362,400,-96,1134,23,-35,-2
4363,186,33,1003,15,34,9
4364,-180,135,865,1,67,17
4365,-433,62,807,-39,36,8
4366,-238,-102,956,-26,-39,-3
4367,183,-161,1146,4,-80,-4
4368,393,-125,1141,11,-43,-1
4369,251,19,1034,27,23,6
4370,-128,132,901,-3,65,15
4371,-416,65,796,-38,46,12
4372,-300,-76,917,-24,-26,-3
4373,113,-170,1113,-8,-78,-5
4374,385,-143,1142,20,-54,-1
4375,307,6,1050,26,12,4
4376,-62,129,913,2,63,14
4377,-381,87,822,-31,53,14
4378,-348,-43,894,-37,-14,1
4379,41,-166,1078,-6,-72,-6
4380,367,-160,1158,9,-63,-3
4381,336,-30,1065,28,0,4
4382,11,99,932,10,58,12
4383,-351,115,834,-22,60,15
4384,-389,-22,867,-33,-2,2
4385,-33,-146,1073,-15,-69,-7
4386,337,-147,1174,14,-70,-3
4387,369,-64,1073,22,-9,1
4388,67,96,941,12,52,10
4389,-292,120,839,-17,63,17
4390,-416,0,842,-45,14,3
4391,-118,-135,1035,-13,-58,-6
4392,298,-175,1170,3,-76,-2
4393,393,-84,1101,23,-22,2
4394,126,74,976,20,42,9
4395,-237,125,840,-16,65,15
4396,-422,33,808,-34,24,8
4397,-183,-115,1007,-27,-50,-4
4398,250,-173,1159,7,-78,-5
4399,404,-101,1133,20,-34,1
4400,184,54,1010,19,33,7
4401,-183,130,866,-9,66,14
4402,-424,58,804,-38,35,11
4403,-247,-92,946,-31,-38,-4
4404,189,-190,1140,1,-80,-6
4405,392,-125,1149,17,-45,1
4406,250,30,1033,29,23,6
4407,-127,125,897,-5,65,15
4408,-422,81,803,-33,46,12
4409,-290,-65,921,-29,-28,-1
4410,113,-178,1106,-10,-77,-4
4411,387,-143,1141,22,-54,-3
4412,308,5,1057,25,12,4
4413,-67,114,901,3,62,15
4414,-380,92,835,-26,52,13
4415,-350,-44,891,-38,-14,1
4416,43,-171,1084,-7,-74,-6
4417,368,-149,1152,13,-61,-4
4418,341,-24,1058,25,1,4
4419,6,111,930,11,58,13
4420,-347,114,837,-30,58,15
4421,-391,-16,878,-32,0,3
4422,-23,-166,1067,-22,-68,-6
4423,331,-153,1176,15,-69,-4
4424,366,-59,1076,22,-10,1
4425,64,85,935,13,50,11
4426,-302,126,838,-13,63,15
4427,-408,1,845,-42,12,4
4428,-105,-136,1044,-14,-58,-4
4429,299,-163,1176,8,-74,-3
4430,389,-82,1105,19,-22,0
4431,119,75,973,22,42,9
4432,-241,129,826,-19,65,15
4433,-420,26,812,-36,24,8
4434,-175,-124,1006,-21,-51,-6
