sequence,AccelerometerX,AccelerometerY,AccelerometerZ,GyroscopeX,GyroscopeY,GyroscopeZ
0,-132,32,982,-15,12,-3
1,-98,14,985,-18,-8,-6
2,18,15,1000,-13,-21,-9
3,120,28,1009,-12,-13,-5
4,136,39,994,-32,-2,-4
5,38,48,999,-6,19,0
6,-78,41,1000,-15,21,0
7,-133,22,990,-16,9,-2
8,-79,15,992,-16,-10,-6
9,49,18,993,-17,-21,-8
10,127,29,1001,-12,-12,-6
11,124,50,1001,-13,6,-2
12,7,51,1003,-13,21,1
13,-96,41,1005,-16,18,1
14,-130,16,984,-18,1,-2
15,-54,5,978,-16,-16,-6
16,71,10,1011,-14,-21,-7
17,133,37,994,-12,-8,-5
18,107,45,1009,-9,11,-1
19,-12,63,996,-11,22,2
20,-116,38,1007,-17,17,1
21,-113,21,972,-19,-3,-5
22,-35,4,992,-17,-17,-6
23,90,17,1004,-16,-20,-9
24,141,32,1002,-13,-7,-6
25,90,45,1007,-12,15,-1
26,-34,49,998,-12,23,2
27,-122,34,994,-13,14,-1
28,-110,22,977,-17,-6,-3
29,-18,13,1002,-16,-19,-9
30,115,30,1000,-16,-19,-8
31,138,33,1006,-14,-2,-3
32,81,53,994,-12,17,0
33,-55,32,1009,-14,24,2
34,-139,30,982,-13,12,-1
35,-102,16,981,-16,-8,-4
36,8,19,1003,-15,-21,-8
37,129,28,1014,-15,-17,-6
38,146,47,987,-12,3,-3
39,46,50,1008,-14,21,1
40,-70,41,1002,-16,22,1
41,-145,18,987,-17,9,-2
42,-80,11,990,-16,-12,-6
43,35,11,1001,-15,-20,-8
44,138,24,996,-12,-12,-7
45,124,47,1006,-10,6,-1
46,15,66,1000,-13,21,1
47,-93,44,1006,-15,20,0
48,-138,17,979,-20,5,-3
49,-57,0,990,-20,-14,-7
50,67,7,998,-14,-21,-7
51,131,30,1001,-12,-10,-4
52,112,47,1001,-11,8,-1
53,-7,58,1004,-13,22,1
54,-114,47,1002,-15,18,2
55,-124,17,976,-18,-1,-3
56,-36,10,994,-18,-19,-8
57,86,13,1003,-16,-22,-6
58,143,31,1002,-13,-6,-5
59,94,39,1009,-11,13,1
60,-29,56,999,-10,23,1
61,-119,36,993,-15,15,-2
62,-119,22,983,-16,-3,-4
63,-20,13,993,-17,-20,-8
64,109,26,1007,-14,-20,-9
65,149,37,1005,-15,-4,-5
66,83,44,995,-12,17,0
67,-49,36,1007,-13,24,1
68,-141,27,987,-14,13,-1
69,-108,15,972,-14,-7,-5
70,5,14,1010,-13,-21,-9
71,121,34,1005,-14,-19,-5
72,151,39,997,-13,1,-4
73,62,58,999,-14,20,1
74,-82,39,1005,-16,24,3
75,-144,22,985,-15,9,-4
76,-91,6,991,-16,-11,-5
77,29,15,990,-14,-24,-9
78,141,27,1006,-13,-15,-7
79,134,52,998,-11,6,-2
80,21,57,1003,-15,22,3
81,-87,45,1007,-15,21,-1
82,-147,14,986,-19,5,-1
83,-68,11,981,-16,-15,-7
84,65,10,1006,-15,-23,-6
85,134,28,997,-11,-12,-6
86,125,46,1005,-11,8,-1
87,1,48,1002,-12,23,1
88,-110,45,1001,-13,19,1
89,-126,16,979,-18,0,-4
90,-56,13,986,-17,-16,-7
91,86,19,1007,-15,-24,-9
92,147,36,999,-13,-9,-6
93,100,39,1007,-11,13,0
94,-9,45,1005,-11,24,0
95,-131,32,984,-14,18,-1
96,-119,23,987,-16,-3,-5
97,-29,10,989,-15,-19,-7
98,98,33,1008,-14,-21,-6
99,151,36,1002,-13,-6,-5
100,87,51,1004,-13,15,1
101,-42,39,1001,-16,24,2
102,-137,29,985,-16,14,-2
103,-110,10,984,-16,-7,-5
104,-4,17,995,-14,-22,-6
105,121,27,1014,-15,-19,-7
106,151,50,995,-11,0,-4
107,58,55,996,-14,20,1
108,-65,41,1009,-17,22,1
109,-149,21,984,-16,10,-2
110,-89,8,987,-17,-10,-5
111,27,1,1005,-16,-21,-6
112,135,31,997,-8,-15,-6
113,139,46,1001,-9,5,-3
114,23,64,999,-12,22,2
115,-86,44,1011,-14,21,0
116,-140,19,980,-16,6,-2
117,-67,4,991,-16,-13,-5
118,63,13,996,-14,-21,-7
119,133,25,1007,-11,-10,-6
120,118,50,997,-10,8,-2
121,0,59,1007,-13,24,2
122,-109,42,1006,-13,20,0
123,-128,21,981,-15,2,-3
124,-39,5,980,-16,-17,-8
125,80,15,1011,-14,-19,-6
126,135,31,1000,-11,-7,-4
127,96,45,1006,-11,14,-1
128,-27,51,999,-12,22,2
129,-116,41,993,-16,15,-1
130,-109,20,976,-16,-5,-5
131,-24,11,999,-16,-18,-6
132,102,25,999,-15,-21,-6
133,143,31,1001,-14,-3,-5
134,70,44,1008,-12,16,1
135,-45,46,996,-11,21,0
136,-123,30,983,-15,11,-3
137,-100,20,989,-17,-7,-4
138,11,12,995,-16,-20,-8
139,117,27,1018,-14,-16,-7
140,136,39,988,-14,1,-3
141,48,45,1000,-12,20,0
142,-67,50,1005,-14,20,-1
143,-141,23,985,-17,9,0
144,-75,13,989,-14,-10,-6
145,33,8,1002,-16,-20,-6
146,132,26,997,-12,-13,-8
147,136,40,1000,-12,4,-3
148,15,56,1003,-12,21,3
149,-90,50,1000,-15,20,0
150,-132,22,993,-18,5,-3
151,-64,13,986,-20,-14,-6
152,58,4,993,-15,-21,-9
153,141,34,1011,-13,-11,-7
154,118,36,992,-11,8,-2
155,-12,54,1004,-11,24,2
156,-103,40,1011,-16,17,-1
157,-126,18,974,-14,2,-4
158,-42,8,985,-16,-16,-7
159,80,20,1009,-13,-21,-7
160,139,30,1002,-12,-7,-6
161,100,49,1003,-11,13,1
162,-23,50,1001,-13,22,2
163,-121,38,998,-15,15,-1
164,-114,16,975,-17,-4,-3
165,-23,7,993,-17,-19,-7
166,101,25,1005,-14,-19,-6
167,137,29,1003,-14,-4,-3
168,76,50,1000,-10,15,0
169,-44,47,1002,-13,23,1
170,-130,32,990,-15,13,-2
171,-100,14,979,-15,-8,-5
172,6,15,998,-15,-20,-7
173,116,24,1014,-14,-18,-6
174,136,38,991,-12,1,-3
175,54,48,1001,-12,20,1
176,-61,45,1001,-11,22,0
177,-142,25,990,-15,8,-1
178,-76,19,983,-15,-11,-6
179,24,6,1005,-16,-19,-7
180,138,27,1003,-11,-15,-7
181,134,37,997,-12,5,-3
182,18,60,1001,-11,21,1
183,-86,39,1002,-14,20,1
184,-142,31,984,-14,7,-3
185,-62,7,994,-19,-14,-5
186,61,10,992,-13,-21,-8
187,136,26,1006,-12,-10,-6
188,122,46,999,-11,8,-1
189,-5,56,1002,-11,24,1
190,-111,42,1004,-14,19,-1
191,-125,26,984,-16,1,-4
192,-44,4,975,-16,-17,-6
193,78,23,1009,-13,-21,-6
194,144,31,1006,-14,-7,-6
195,98,42,1001,-10,14,-1
196,-24,55,996,-12,22,2
197,-117,27,1003,-16,16,-2
198,-120,21,972,-15,-3,-4
199,-22,4,987,-17,-18,-6
200,95,30,1010,-14,-19,-7
201,147,42,1001,-13,-5,-4
202,78,46,1007,-12,16,2
203,-39,47,1000,-14,23,2
204,-135,23,983,-15,14,0
205,-100,12,982,-16,-7,-5
206,0,3,1002,-16,-19,-5
207,116,33,1007,-10,-16,-7
208,143,38,1002,-13,-1,-4
209,55,62,997,-10,19,2
210,-61,41,1009,-15,22,1
211,-135,26,980,-17,10,-2
212,-93,10,995,-15,-10,-4
213,32,11,992,-14,-21,-8
214,133,16,1012,-11,-14,-6
215,131,49,991,-7,4,-2
216,28,55,1002,-9,21,2
217,-82,47,1003,-12,21,0
218,-148,27,991,-15,7,0
219,-69,12,988,-16,-11,-7
220,53,9,1004,-14,-21,-6
221,134,24,992,-13,-11,-5
222,126,38,1010,-9,8,-2
223,1,53,1000,-10,21,2
224,-105,47,1006,-13,19,1
225,-131,17,977,-16,2,-4
226,-49,9,989,-16,-15,-6
227,77,16,1000,-12,-21,-7
228,139,29,1003,-13,-8,-4
229,109,53,1004,-11,11,-1
230,-20,54,1002,-14,22,1
231,-119,38,996,-15,17,0
232,-117,16,980,-16,-2,-2
233,-32,11,987,-16,-18,-7
234,93,16,1002,-13,-19,-7
235,142,39,1012,-11,-4,-4
236,86,52,998,-11,16,0
237,-43,54,1001,-14,22,1
238,-123,37,992,-18,13,0
239,-105,12,978,-18,-6,-5
240,-7,4,1001,-18,-18,-8
241,111,23,1004,-15,-18,-7
242,141,34,1000,-12,-1,-5
243,62,53,997,-10,20,-1
244,-66,53,1007,-13,24,1
245,-137,28,979,-17,10,-3
246,-84,14,994,-19,-9,-5
247,22,15,993,-17,-20,-7
248,128,16,1012,-14,-14,-7
249,133,39,995,-10,3,-3
250,32,62,1003,-11,20,3
251,-79,41,995,-16,21,0
252,-143,33,996,-17,7,-1
253,-69,5,986,-20,-13,-6
254,48,15,1001,-16,-20,-8
255,145,19,995,-15,-13,-6
256,119,43,1007,-11,9,-2
257,14,51,999,-14,21,0
258,-108,43,1009,-13,22,2
259,-133,23,974,-17,2,-3
260,-54,13,992,-16,-16,-6
261,73,17,994,-16,-23,-7
262,140,36,1010,-12,-10,-5
263,118,39,994,-13,10,-2
264,-21,47,1013,-14,24,3
265,-111,35,994,-13,17,0
266,-134,20,983,-15,1,-2
267,-41,16,981,-17,-19,-8
268,93,20,1013,-17,-20,-7
269,149,42,1003,-12,-6,-7
270,100,44,1005,-12,15,-1
271,-28,46,1000,-14,24,1
272,-136,25,988,-14,17,1
273,-129,13,981,-14,-5,-5
274,-22,15,994,-15,-20,-9
275,110,33,1005,-12,-20,-8
276,151,43,1004,-13,-3,-3
277,84,65,995,-13,18,-1
278,-55,39,1010,-18,25,1
279,-147,32,981,-18,13,0
280,-117,1,980,-20,-9,-4
281,8,6,1001,-16,-24,-8
282,126,19,1011,-12,-19,-5
283,160,41,989,-9,0,-3
284,54,63,1008,-11,22,2
285,-67,45,993,-16,22,1
286,-154,29,997,-16,10,-1
287,-91,8,982,-19,-13,-5
288,32,7,999,-16,-23,-7
289,145,24,1000,-13,-15,-7
290,144,37,1003,-13,4,-1
291,28,56,998,-13,22,0
292,-89,40,1014,-14,23,0
293,-144,25,974,-16,5,-1
294,-70,14,991,-17,-15,-7
295,65,19,999,-15,-23,-7
296,142,27,1008,-15,-11,-5
297,132,46,999,-11,8,-2
298,-3,42,1009,-13,22,2
299,-105,41,997,-13,17,-1
300,-135,8,984,-17,3,-2
301,-49,14,978,-15,-17,-7
302,85,22,1013,-14,-22,-7
303,146,46,1000,-12,-8,-7
304,99,50,1011,-15,12,1
305,-22,48,994,-16,23,2
306,-133,22,998,-17,17,1
307,-110,16,974,-16,-3,-5
308,-29,1,1000,-17,-17,-6
309,101,32,1001,-13,-19,-8
310,148,33,1009,-10,-2,-6
311,72,60,993,-11,17,0
312,-52,44,1008,-13,23,2
313,-137,28,983,-16,12,-3
314,-105,11,983,-19,-7,-3
315,9,10,994,-17,-21,-8
316,121,26,1020,-14,-17,-7
317,143,40,986,-11,1,-2
318,48,61,1005,-12,19,1
319,-69,42,1001,-16,19,0
320,-149,26,987,-17,9,-1
321,-77,6,986,-17,-13,-7
322,33,10,1004,-17,-22,-5
323,142,27,992,-13,-16,-6
324,137,47,1011,-12,5,-2
325,24,56,998,-13,21,1
326,-94,40,1006,-14,22,0
327,-137,19,988,-17,5,-3
328,-76,6,978,-16,-13,-4
329,67,19,1001,-15,-23,-9
330,143,31,1011,-13,-10,-4
331,119,57,995,-11,10,-3
332,0,49,1007,-14,24,1
333,-114,35,1006,-13,19,0
334,-131,13,977,-14,1,-4
335,-44,6,976,-18,-16,-7
336,85,20,1018,-14,-21,-7
337,148,37,998,-12,-7,-7
338,96,44,1006,-14,14,-2
339,-27,57,997,-13,23,0
340,-129,30,995,-17,16,0
341,-115,17,976,-16,-5,-5
342,-25,8,993,-18,-19,-6
343,113,22,1009,-12,-21,-9
344,149,37,1004,-3,-3,-5
345,74,51,992,-14,17,0
346,-51,48,1013,-10,25,0
347,-139,28,978,-17,13,-3
348,-104,21,986,-17,-7,-5
349,9,15,1000,-16,-22,-7
350,118,24,1017,-18,-17,-8
351,152,31,990,-12,1,-5
352,46,51,1002,-11,19,2
353,-67,43,999,-13,20,0
354,-148,33,996,-14,8,-2
355,-83,17,985,-18,-12,-6
356,35,15,1000,-16,-22,-7
357,138,24,1002,-14,-15,-7
358,128,40,1004,-13,6,-1
359,27,58,992,-12,21,0
360,-95,34,1013,-16,20,1
361,-143,26,989,-17,4,-3
362,-62,3,981,-17,-15,-6
363,60,16,1001,-14,-21,-8
364,137,34,1002,-13,-13,-5
365,132,49,1002,-12,8,-4
366,-4,52,1001,-14,24,2
367,-120,42,1001,-15,19,0
368,-124,9,988,-18,-1,-4
369,-58,2,968,-17,-17,-4
370,85,28,1016,-14,-22,-8
371,155,32,1006,-14,-8,-6
372,101,59,998,-9,14,2
373,-16,50,995,-17,23,0
374,-133,35,1007,-16,18,0
375,-127,9,966,-17,-3,-3
376,-27,6,993,-18,-19,-8
377,105,27,1009,-13,-22,-7
378,152,42,1003,-14,-3,-3
379,94,46,1005,-12,16,0
380,-49,48,1000,-13,26,4
381,-134,26,990,-17,14,-1
382,-116,12,978,-16,-6,-3
383,-1,14,1004,-16,-22,-9
384,123,24,1010,-14,-18,-7
385,143,38,994,-11,0,-4
386,62,50,1001,-11,18,1
387,-65,41,1008,-14,23,-1
388,-153,30,986,-15,10,-1
389,-86,16,988,-16,-11,-6
390,30,5,999,-17,-22,-8
391,133,24,1002,-13,-15,-6
392,138,44,1003,-10,6,-3
393,24,50,997,-11,22,1
394,-96,43,1003,-12,21,1
395,-136,24,988,-15,4,-3
396,-68,6,991,-17,-12,-7
397,60,19,992,-13,-22,-6
398,137,28,1002,-11,-10,-6
399,120,51,1003,-11,10,-2
400,-12,58,1004,-12,23,3
401,-104,45,997,-16,18,0
402,-134,17,990,-18,1,-2
403,-38,9,976,-17,-19,-7
404,81,13,1011,-16,-22,-7
405,144,45,999,-12,-7,-6
406,99,40,1009,-14,13,0
407,-26,59,996,-14,23,1
408,-118,27,997,-18,16,1
409,-126,22,981,-17,-4,-3
410,-21,0,987,-19,-20,-6
411,101,26,1006,-14,-20,-9
412,151,39,1010,-13,-4,-5
413,83,48,1002,-12,17,0
414,-47,48,999,-14,25,1
415,-140,23,987,-16,13,-1
416,-114,18,984,-16,-7,-3
417,1,6,994,-16,-22,-8
418,126,28,1016,-13,-19,-6
419,155,39,992,-12,0,-3
420,67,51,997,-10,20,0
421,-69,40,1010,-15,25,2
422,-160,29,985,-13,10,-1
423,-94,5,982,-17,-12,-5
424,24,13,1002,-16,-23,-8
425,143,29,1001,-14,-18,-7
426,156,41,1007,-12,3,-5
427,37,58,994,-11,22,2
428,-92,44,1005,-15,24,0
429,-156,25,991,-15,9,-3
430,-93,8,985,-15,-13,-5
431,61,16,989,-16,-25,-10
432,147,24,1016,-14,-12,-6
433,135,54,998,-12,8,-1
434,14,47,1002,-15,25,0
435,-112,39,1012,-12,22,0
436,-143,18,976,-17,3,-2
437,-58,14,977,-17,-16,-7
438,77,19,1016,-14,-22,-7
439,144,40,995,-14,-9,-5
440,114,45,1005,-15,12,-2
441,-14,57,1000,-13,24,1
442,-123,35,1004,-18,19,0
443,-125,9,967,-18,-2,-4
444,-40,7,996,-17,-19,-6
445,104,25,1001,-16,-23,-8
446,141,29,1008,-14,-4,-4
447,94,53,1005,-12,13,-1
448,-40,45,998,-15,23,2
449,-131,33,987,-16,13,-2
450,-110,13,982,-19,-7,-3
451,-1,10,1002,-15,-22,-8
452,116,23,998,-14,-18,-5
453,142,38,1003,-13,-1,-5
454,65,50,992,-12,18,0
455,-66,42,1011,-14,22,1
456,-137,30,984,-16,9,-1
457,-93,15,985,-18,-9,-4
458,32,13,1001,-16,-23,-9
459,126,25,1007,-15,-15,-6
460,141,43,995,-13,2,-3
461,32,43,1006,-16,21,1
462,-86,47,1002,-14,21,2
463,-150,17,986,-18,6,-1
464,-79,15,994,-15,-14,-7
465,56,16,997,-17,-25,-8
466,146,29,996,-15,-13,-6
467,140,49,1010,-12,8,-3
468,5,55,995,-14,24,2
469,-110,39,1007,-15,21,-1
470,-141,23,983,-18,2,-3
471,-69,2,978,-18,-17,-4
472,79,27,1005,-15,-26,-9
473,160,23,1005,-17,-11,-7
474,120,44,996,-13,12,-2
475,-9,45,1009,-14,26,2
476,-131,39,996,-14,20,0
477,-142,19,974,-17,-1,-3
478,-45,15,982,-18,-19,-7
479,99,27,1013,-17,-24,-9
480,167,39,1003,-16,-7,-6
481,105,48,1006,-15,14,0
482,-29,33,1000,-16,25,2
483,-145,26,989,-13,17,0
484,-124,3,981,-16,-7,-5
485,-26,21,993,-16,-22,-8
486,122,30,1015,-14,-22,-8
487,168,46,995,-12,-4,-5
488,88,48,1001,-14,19,2
489,-54,40,1007,-16,26,3
490,-158,17,985,-17,14,-1
491,-118,7,978,-15,-9,-5
492,7,12,1005,-16,-23,-9
493,140,21,1005,-14,-20,-8
494,156,50,998,-8,2,-3
495,58,58,999,-14,21,2
496,-78,47,1005,-16,25,2
497,-163,21,991,-18,10,0
498,-100,5,983,-19,-11,-6
499,34,4,1002,-15,-25,-8
500,150,31,997,-13,-17,-7
501,150,41,1008,-13,5,-4
502,30,58,1002,-12,24,1
503,-104,37,1004,-15,23,2
504,-157,27,984,-16,6,-3
505,-81,10,980,-19,-16,-6
506,65,19,1002,-16,-27,-9
507,153,28,1009,-14,-13,-6
508,136,50,993,-11,9,-2
509,3,43,1015,-13,25,3
510,-125,35,994,-13,20,1
511,-143,22,982,-16,0,-2
512,-55,7,981,-16,-19,-7
513,81,30,1005,-15,-25,-7
514,169,35,1009,-14,-10,-7
515,105,43,1000,-13,15,1
516,-16,45,1005,-13,24,2
517,-137,25,991,-16,18,0
518,-135,16,979,-16,-4,-3
519,-28,13,993,-17,-22,-7
520,109,31,1007,-16,-23,-7
521,166,37,1003,-13,-6,-4
522,88,49,996,-14,18,0
523,-47,32,1012,-15,25,2
524,-149,25,981,-16,13,1
525,-125,11,974,-17,-8,-4
526,12,18,1014,-14,-24,-10
527,124,31,1004,-14,-19,-6
528,166,52,994,-10,0,-6
529,62,43,1004,-15,20,2
530,-83,46,1004,-13,25,3
531,-152,14,988,-18,9,-1
532,-98,13,986,-17,-11,-7
533,37,13,999,-17,-25,-7
534,147,32,998,-14,-16,-7
535,145,43,1009,-11,5,-3
536,29,56,997,-14,23,2
537,-101,35,1007,-17,22,0
538,-150,12,981,-17,5,-2
539,-72,14,986,-16,-15,-6
540,66,11,997,-14,-23,-8
541,144,35,999,-13,-11,-4
542,123,45,1007,-13,8,-1
543,1,54,1007,-13,23,2
544,-111,38,1002,-17,20,1
545,-136,13,973,-19,1,-2
546,-50,7,995,-17,-17,-8
547,87,13,1001,-16,-23,-9
548,143,37,1003,-12,-7,-6
549,115,42,1012,-11,12,-2
550,-27,49,993,-11,24,2
551,-126,33,992,-15,16,0
552,-125,22,989,-16,-4,-4
553,-26,9,990,-16,-20,-9
554,115,37,999,-13,-20,-8
555,150,32,1013,-14,-4,-4
556,86,54,996,-12,16,0
557,-50,30,1005,-16,25,3
558,-138,32,985,-13,13,-1
559,-106,5,983,-17,-8,-3
560,8,23,1006,-13,-22,-8
561,124,20,1008,-14,-18,-6
562,146,47,993,-10,0,-4
563,44,48,999,-12,20,1
564,-70,41,1008,-15,21,1
565,-149,23,987,-16,9,0
566,-88,18,982,-16,-11,-6
567,44,17,1005,-16,-24,-8
568,140,29,997,-13,-14,-7
569,133,42,1000,-11,6,-1
570,19,45,1002,-12,21,3
571,-107,38,1001,-15,20,1
572,-144,26,988,-16,3,-1
573,-60,9,987,-19,-17,-7
574,64,19,998,-14,-22,-7
575,148,33,1003,-12,-11,-7
576,120,48,998,-11,9,-2
577,-9,52,1006,-11,23,3
578,-116,37,1007,-17,17,1
579,-130,6,974,-18,0,-3
580,-42,13,982,-16,-18,-7
581,89,22,1017,-16,-22,-9
582,142,44,994,-11,-7,-4
583,100,51,1007,-12,13,0
584,-30,55,1006,-16,23,2
585,-126,21,990,-18,13,0
586,-115,15,975,-16,-6,-5
587,-19,0,1002,-17,-21,-7
588,109,30,1002,-12,-20,-8
589,153,34,1005,-12,-3,-5
590,72,52,1000,-12,18,2
591,-52,55,1008,-14,23,3
592,-133,26,981,-18,11,-2
593,-117,19,981,-19,-9,-3
594,21,13,1006,-18,-24,-10
595,120,14,1009,-16,-16,-7
596,148,40,985,-11,1,-3
597,52,45,1008,-13,20,1
598,-73,51,1008,-13,23,2
599,-147,30,979,-16,8,0
600,-88,21,991,-19,-12,-6
601,39,13,1006,-19,-25,-8
602,140,23,991,-16,-15,-6
603,138,38,1009,-11,5,-4
604,20,44,995,-13,22,2
605,-90,37,1006,-14,21,1
606,-141,25,983,-16,5,-2
607,-75,14,995,-18,-15,-5
608,66,21,990,-14,-24,-9
609,141,32,1008,-13,-11,-5
610,130,45,995,-15,7,-2
611,-2,45,1014,-13,24,2
612,-106,38,997,-16,18,-1
613,-139,17,980,-18,1,-2
614,-42,9,983,-14,-17,-10
615,75,17,1013,-15,-21,-6
616,151,44,996,-14,-8,-7
617,105,41,1011,-15,14,0
618,-23,51,989,-15,24,3
619,-128,28,1007,-18,17,1
620,-130,15,966,-16,-4,-4
621,-24,3,997,-16,-20,-8
622,104,34,1005,-13,-21,-10
623,152,40,1002,-13,-4,-4
624,91,52,1010,-12,16,0
625,-47,42,997,-14,24,3
626,-148,23,987,-15,13,0
627,-109,12,981,-17,-8,-7
628,0,15,1006,-14,-22,-8
629,127,28,1005,-15,-20,-8
630,156,34,996,-13,1,-5
631,55,49,997,-10,20,1
632,-68,49,1009,-14,23,2
633,-145,19,983,-17,10,-3
634,-96,22,988,-17,-10,-5
635,29,16,999,-18,-23,-8
636,132,29,1006,-13,-14,-7
637,142,39,997,-14,4,-3
638,29,47,998,-14,22,1
639,-88,35,1003,-16,21,2
640,-149,29,996,-15,7,-1
641,-67,18,982,-14,-14,-8
642,55,15,1002,-17,-22,-7
643,142,31,999,-14,-12,-7
644,127,42,1010,-13,8,-2
645,5,48,997,-14,23,2
646,-111,33,1011,-14,21,1
647,-130,16,975,-16,2,-4
648,-55,13,987,-16,-17,-5
649,81,23,1000,-13,-23,-9
650,149,34,1014,-14,-8,-6
651,105,47,989,-11,12,0
652,-23,46,1011,-15,23,3
653,-119,31,997,-17,15,0
654,-122,9,975,-15,-4,-4
655,-30,10,991,-15,-18,-7
656,102,28,1009,-14,-21,-8
657,142,35,1003,-11,-5,-5
658,92,54,1008,-12,15,0
659,-38,35,999,-13,23,1
660,-137,34,984,-13,14,0
661,-112,8,988,-15,-7,-6
662,-6,15,993,-13,-21,-8
663,123,30,1012,-14,-19,-7
664,151,36,994,-11,0,-4
665,66,54,1004,-10,19,0
666,-65,43,1004,-15,23,1
667,-144,23,985,-15,11,-3
668,-91,8,986,-15,-9,-5
669,27,8,998,-13,-21,-8
670,129,29,1002,-12,-14,-6
671,144,49,1000,-10,4,-3
672,30,60,1002,-13,22,2
673,-88,39,999,-16,22,1
674,-150,25,997,-17,7,-2
675,-83,5,983,-16,-14,-6
676,56,10,993,-13,-23,-8
677,151,29,1006,-11,-14,-7
678,139,41,1001,-11,8,-1
679,9,56,1002,-10,25,2
680,-109,43,1009,-17,23,1
681,-152,22,972,-16,3,-3
682,-64,12,986,-17,-16,-6
683,70,17,1005,-18,-26,-8
684,164,33,1003,-9,-10,-7
685,125,41,1004,-17,13,1
686,-12,50,1000,-9,26,3
687,-126,30,1004,-12,20,0
688,-140,23,970,-17,0,-4
689,-45,8,987,-13,-19,-7
690,96,35,1004,-15,-24,-8
691,155,37,1012,-15,-8,-5
692,96,49,997,-11,15,1
693,-30,47,1007,-15,24,2
694,-134,20,983,-16,15,-1
695,-119,10,989,-15,-6,-5
696,-12,5,991,-16,-21,-8
697,114,35,1012,-12,-19,-9
698,148,39,991,-13,-3,-4
699,67,57,1007,-11,18,1
700,-56,42,999,-16,22,2
701,-137,24,989,-19,12,-2
702,-93,8,983,-16,-10,-6
703,22,13,1002,-16,-21,-8
704,130,25,1005,-14,-14,-6
705,139,49,995,-9,3,-2
706,41,55,1000,-14,20,1
707,-84,42,1001,-15,22,2
708,-138,25,992,-15,7,-2
709,-72,9,990,-18,-13,-5
710,46,11,991,-15,-20,-7
711,145,21,1001,-12,-12,-7
712,123,42,1007,-11,8,-2
713,9,62,996,-12,23,2
714,-103,40,1013,-17,20,-1
715,-140,25,979,-18,2,-3
716,-53,5,985,-16,-15,-6
717,69,14,1000,-14,-22,-7
718,143,27,1003,-12,-9,-6
719,116,50,1003,-11,11,-1
720,-20,51,1003,-12,23,4
721,-117,39,999,-14,18,0
722,-133,17,981,-16,-1,-2
723,-39,15,982,-15,-19,-5
724,96,22,1007,-16,-23,-8
725,150,42,1008,-12,-7,-5
726,93,45,997,-14,14,0
727,-38,44,1003,-15,23,2
728,-130,27,987,-16,14,1
729,-126,12,985,-16,-5,-2
730,-10,11,994,-17,-23,-10
731,111,26,1008,-12,-20,-7
732,154,45,996,-12,-3,-5
733,72,51,1004,-14,17,2
734,-56,49,1004,-14,24,1
735,-146,22,982,-19,11,1
736,-102,18,987,-15,-9,-5
737,13,8,1001,-17,-21,-7
738,124,27,1008,-13,-18,-7
739,154,39,997,-9,0,-5
740,41,50,992,-14,21,3
741,-72,46,1013,-11,21,0
742,-148,28,986,-18,8,0
743,-86,15,985,-17,-12,-5
744,44,13,1004,-15,-22,-8
745,134,25,992,-14,-14,-6
746,141,41,1008,-11,5,-2
747,22,52,995,-12,23,2
748,-101,37,1011,-14,22,1
749,-140,21,979,-16,3,-3
750,-72,15,992,-16,-16,-6
751,74,19,995,-14,-23,-8
752,137,28,1007,-14,-9,-4
753,129,49,996,-13,8,-2
754,-11,42,1009,-14,23,3
755,-109,42,1000,-13,17,-2
756,-128,8,978,-19,0,-3
757,-40,18,983,-16,-18,-8
758,86,16,1009,-18,-21,-6
759,153,45,1003,-10,-7,-6
760,96,38,998,-15,14,1
761,-30,52,1002,-11,24,1
762,-125,24,992,-17,14,0
763,-118,21,979,-13,-4,-4
764,-17,8,995,-15,-19,-7
765,112,28,1010,-13,-20,-7
766,144,33,997,-14,-2,-5
767,73,54,1002,-11,18,0
768,-50,43,1005,-15,24,2
769,-139,25,979,-17,12,-1
770,-100,13,986,-16,-9,-4
771,8,13,1002,-17,-21,-7
772,127,25,1013,-15,-16,-7
773,148,43,990,-10,1,-2
774,43,50,1007,-13,20,2
775,-73,40,1001,-16,22,1
776,-152,18,987,-16,9,-3
777,-84,19,988,-16,-12,-6
778,42,15,1002,-16,-23,-8
779,146,31,997,-12,-13,-6
780,128,46,1004,-13,7,-1
781,20,52,997,-12,22,1
782,-106,28,1004,-15,22,1
783,-148,19,984,-17,3,-3
784,-57,3,994,-15,-17,-7
785,67,20,993,-14,-22,-7
786,152,35,1003,-12,-11,-6
787,120,47,1005,-11,10,-2
788,-12,59,1004,-13,24,4
789,-118,35,999,-18,18,0
790,-133,7,984,-17,0,-4
791,-41,9,982,-17,-19,-6
792,95,23,1011,-15,-24,-8
793,150,34,1001,-12,-7,-5
794,105,45,1007,-11,14,0
795,-30,52,992,-11,24,2
796,-132,30,995,-16,15,0
797,-118,14,980,-14,-3,-4
798,-23,8,987,-18,-20,-7
799,110,25,1011,-12,-21,-7
800,159,41,1000,-12,-2,-5
801,80,43,1003,-13,17,2
802,-56,50,1005,-14,24,2
803,-137,28,978,-16,12,-1
804,-116,16,983,-15,-6,-3
805,3,11,1007,-15,-22,-7
806,126,31,1004,-14,-19,-8
807,154,41,998,-12,0,-5
808,61,49,996,-11,21,3
809,-74,40,1014,-15,24,2
810,-151,20,975,-16,11,-2
811,-98,13,997,-16,-11,-6
812,33,14,992,-15,-24,-9
813,133,30,1007,-12,-17,-5
814,152,47,1000,-12,4,-3
815,23,49,1000,-15,24,4
816,-91,38,997,-14,22,1
817,-150,17,997,-16,6,-2
818,-73,14,989,-15,-15,-5
819,64,9,992,-15,-23,-8
820,148,28,1004,-12,-11,-7
821,130,50,1011,-9,9,-1
822,-1,57,993,-13,24,2
823,-115,41,1011,-16,20,1
824,-137,11,979,-17,0,-3
825,-51,4,984,-15,-17,-6
826,88,15,1006,-12,-22,-7
827,148,36,1003,-13,-7,-4
828,114,46,1004,-12,13,-2
829,-29,57,1001,-13,25,3
830,-129,39,997,-17,17,0
831,-121,16,980,-15,-5,-4
832,-33,5,986,-17,-21,-7
833,107,26,1006,-16,-24,-8
834,157,28,1011,-12,-5,-5
835,83,41,997,-11,17,1
836,-46,46,1005,-11,25,2
837,-130,32,986,-16,13,-2
838,-124,20,980,-15,-6,-2
839,0,18,1002,-14,-22,-10
840,113,26,1008,-17,-19,-7
841,151,38,992,-12,-1,-5
842,69,43,1001,-14,18,0
843,-67,37,1005,-14,24,2
844,-144,27,979,-14,11,-1
845,-99,14,985,-16,-9,-4
846,22,15,1005,-14,-23,-7
847,133,34,1001,-13,-15,-7
848,149,46,999,-13,3,-2
849,31,52,1004,-13,20,2
850,-82,40,995,-16,20,0
851,-149,14,997,-14,7,-1
852,-73,13,988,-16,-13,-6
853,51,13,1000,-16,-21,-8
854,142,31,998,-10,-12,-5
855,124,47,1006,-11,8,-1
856,3,56,1000,-11,23,1
857,-107,36,1006,-15,19,0
858,-134,18,977,-16,1,-3
859,-46,8,986,-17,-16,-7
860,79,17,1006,-14,-21,-7
861,148,34,1003,-12,-10,-5
862,110,45,1000,-11,13,0
863,-25,59,1008,-14,24,3
864,-118,32,995,-15,18,-1
865,-122,12,980,-17,-1,-4
866,-29,6,989,-17,-18,-8
867,96,20,1002,-15,-19,-6
868,152,40,1006,-14,-4,-4
869,83,47,1002,-12,15,1
870,-37,51,999,-13,22,1
871,-134,24,988,-15,14,1
872,-112,18,979,-15,-7,-4
873,-1,6,1000,-14,-21,-7
874,115,29,1003,-13,-18,-6
875,148,39,1002,-14,-1,-4
876,70,50,998,-13,18,0
877,-73,46,1006,-14,24,2
878,-143,28,980,-18,10,-3
879,-100,3,989,-17,-10,-5
880,19,18,996,-13,-23,-8
881,141,22,1013,-13,-17,-9
882,144,41,991,-11,4,-3
883,37,56,1003,-11,21,2
884,-85,49,995,-15,22,-1
885,-149,14,996,-17,8,-2
886,-77,17,982,-17,-14,-6
887,59,8,1006,-15,-23,-9
888,139,27,991,-13,-13,-6
889,133,45,1009,-10,7,-3
890,8,47,1000,-12,24,1
891,-115,51,1001,-15,20,1
892,-127,17,982,-16,1,-5
893,-64,6,988,-17,-15,-5
894,75,21,996,-14,-23,-8
895,153,34,1011,-13,-11,-6
896,113,43,991,-12,10,0
897,-14,50,1009,-12,24,3
898,-121,29,999,-15,17,-1
899,-129,24,979,-12,0,-2
900,-34,7,979,-15,-19,-8
901,96,27,1017,-13,-21,-9
902,155,31,1002,-12,-5,-6
903,86,55,1002,-11,17,1
904,-33,40,999,-15,24,3
905,-129,30,996,-15,14,-1
906,-121,11,971,-16,-5,-4
907,-8,12,1003,-14,-20,-9
908,112,26,1006,-15,-19,-6
909,148,41,998,-12,-1,-4
910,72,52,1007,-14,18,0
911,-59,44,1003,-15,23,2
912,-143,23,978,-18,11,-1
913,-105,18,987,-17,-8,-5
914,15,16,1005,-16,-23,-8
915,127,28,1003,-14,-19,-6
916,154,40,995,-13,1,-4
917,45,46,1003,-12,21,2
918,-81,41,1000,-14,23,1
919,-147,24,989,-16,9,-2
920,-87,13,987,-15,-12,-7
921,43,17,1003,-15,-23,-7
922,146,30,993,-12,-14,-7
923,127,43,1004,-14,7,-3
924,16,54,1005,-13,22,0
925,-100,36,998,-16,19,0
926,-145,20,988,-16,4,-3
927,-57,7,989,-17,-17,-6
928,77,17,999,-13,-22,-9
929,141,33,997,-13,-10,-6
930,117,50,1006,-11,11,-1
931,-10,54,1002,-14,23,3
932,-122,37,1003,-17,18,2
933,-120,17,977,-18,-2,-5
934,-37,2,991,-16,-17,-6
935,88,25,999,-13,-21,-7
936,147,33,1010,-14,-7,-5
937,94,44,1002,-12,14,0
938,-35,45,997,-12,23,2
939,-117,30,991,-14,14,-1
940,-115,15,985,-16,-4,-3
941,-13,18,989,-15,-20,-8
942,110,23,1008,-14,-19,-7
943,149,49,1004,-11,-1,-3
944,68,41,995,-14,18,2
945,-52,45,1006,-12,22,1
946,-138,20,985,-17,11,0
947,-98,17,978,-16,-8,-5
948,12,5,1010,-18,-20,-6
949,125,29,1010,-12,-16,-7
950,143,35,988,-13,3,-4
951,42,59,1001,-12,21,1
952,-78,41,1007,-16,22,1
953,-138,28,987,-14,7,-1
954,-82,11,985,-17,-12,-5
955,47,10,1004,-15,-21,-8
956,140,21,1006,-14,-13,-7
957,123,42,992,-9,8,-2
958,17,49,1004,-11,22,2
959,-100,45,1001,-12,20,1
960,-140,26,989,-16,3,-2
961,-58,16,984,-17,-15,-7
962,71,15,1007,-15,-21,-8
963,141,28,992,-14,-10,-5
964,115,37,1006,-14,9,-2
965,-6,51,1004,-10,21,0
966,-121,31,999,-16,18,2
967,-123,23,980,-14,0,-4
968,-42,5,987,-16,-17,-5
969,93,35,1002,-13,-22,-8
970,146,32,1011,-16,-6,-5
971,92,52,995,-13,13,1
972,-27,45,1007,-16,22,2
973,-128,31,989,-16,16,-1
974,-121,7,983,-16,-4,-3
975,-8,4,990,-15,-20,-8
976,105,29,1008,-14,-18,-5
977,151,44,999,-11,-3,-4
978,74,53,1013,-13,18,1
979,-57,48,989,-16,23,2
980,-129,27,988,-18,12,-1
981,-104,6,983,-19,-9,-6
982,7,7,1005,-16,-21,-7
983,134,20,1006,-12,-19,-9
984,143,38,999,-11,2,-4
985,57,58,999,-10,20,0
986,-77,45,1006,-15,23,1
987,-152,34,982,-17,9,-2
988,-82,10,994,-18,-13,-5
989,28,11,994,-15,-22,-7
990,149,18,1012,-14,-14,-6
991,135,38,993,-10,6,-3
992,17,54,994,-10,22,2
993,-88,41,1016,-14,20,0
994,-148,23,976,-14,5,-1
995,-68,17,994,-16,-15,-7
996,70,12,1003,-16,-23,-8
997,136,26,994,-13,-9,-5
998,129,48,1004,-12,9,-3
999,-10,45,1008,-12,23,1
1000,-110,40,999,-15,18,-1
1001,-134,9,981,-17,1,-3
1002,-48,16,985,-15,-17,-6
1003,87,20,1011,-15,-22,-8
1004,145,41,998,-13,-7,-7
1005,102,46,1003,-14,14,-1
1006,-24,55,1006,-14,22,2
1007,-128,26,993,-18,16,1
1008,-121,18,977,-15,-3,-3
1009,-19,-1,990,-19,-19,-8
1010,99,32,1010,-12,-20,-6
1011,154,37,997,-13,-5,-6
1012,83,52,1016,-10,17,0
1013,-43,49,994,-14,24,2
1014,-136,30,985,-17,15,0
1015,-107,8,989,-18,-7,-4
1016,-4,15,993,-18,-23,-8
1017,121,20,1014,-29,-21,-9
1018,149,39,994,-23,-2,-4
1019,59,51,999,-12,20,2
1020,-61,50,1009,-13,22,0
1021,-152,29,980,-17,10,-1
1022,-89,9,985,-17,-12,-5
1023,26,4,1004,-17,-24,-7
1024,131,31,1008,-12,-15,-6
1025,151,38,989,-10,4,-5
1026,22,56,1003,-12,23,2
1027,-82,46,1006,-14,20,1
1028,-145,27,982,-16,6,-2
1029,-78,14,992,-18,-13,-5
1030,58,12,1003,-18,-23,-8
1031,137,20,993,-13,-12,-6
1032,121,38,1008,-11,7,-2
1033,7,54,1003,-11,21,1
1034,-108,36,1007,-15,19,1
1035,-138,23,977,-16,2,-2
1036,-51,9,989,-18,-16,-6
1037,80,21,1000,-12,-21,-7
1038,146,35,1004,-12,-7,-4
1039,107,44,998,-11,11,-2
1040,-21,46,1007,-12,24,2
1041,-119,30,997,-14,17,1
1042,-121,15,974,-13,-1,-3
1043,-23,9,993,-16,-19,-7
1044,95,33,1007,-15,-20,-6
1045,150,40,1005,-14,-4,-6
1046,81,56,1006,-13,16,1
1047,-38,42,999,-14,23,1
1048,-129,25,988,-18,14,-1
1049,-105,5,982,-16,-8,-5
1050,-3,9,1001,-14,-20,-8
1051,115,25,1007,-14,-18,-6
1052,151,44,998,-11,-1,-4
1053,61,57,1004,-11,19,1
1054,-64,50,997,-15,22,2
1055,-141,30,989,-17,11,-2
1056,-104,10,983,-19,-11,-4
1057,19,11,1004,-17,-23,-8
1058,139,12,1009,-16,-17,-7
1059,144,36,997,-9,3,-3
1060,50,52,1000,-7,20,1
1061,-83,52,1002,-13,22,2
1062,-149,29,989,-17,8,-2
1063,-84,16,987,-19,-13,-6
1064,40,15,1002,-19,-23,-6
1065,143,20,999,-13,-14,-5
1066,130,38,1002,-13,7,-1
1067,15,52,1001,-14,22,2
1068,-105,34,1003,-14,20,1
1069,-140,22,985,-18,2,-3
1070,-51,13,986,-16,-16,-7
1071,63,21,999,-15,-20,-7
1072,146,35,1008,-15,-9,-6
1073,113,49,1000,-12,11,-2
1074,-16,45,1000,-15,23,2
1075,-117,34,1007,-16,17,-1
1076,-123,17,976,-16,-3,-3
1077,-29,8,988,-15,-20,-7
1078,90,21,1001,-14,-21,-7
1079,147,43,1016,-10,-5,-5
1080,88,46,993,-13,15,1
1081,-37,48,1003,-12,24,2
1082,-123,29,991,-16,13,-1
1083,-116,16,981,-19,-5,-3
1084,0,5,994,-14,-21,-8
1085,112,28,1011,-12,-18,-6
1086,142,34,995,-12,-2,-4
1087,71,51,1007,-9,17,0
1088,-62,47,999,-15,23,2
1089,-136,26,984,-16,10,-1
1090,-89,15,989,-15,-9,-6
1091,12,13,995,-16,-21,-6
1092,132,23,1015,-13,-17,-7
1093,141,40,995,-12,6,-5
1094,34,54,994,-12,22,2
1095,-78,44,1008,-13,21,-1
1096,-146,26,987,-16,7,-3
1097,-82,18,987,-16,-13,-6
1098,57,13,1004,-16,-22,-10
1099,137,23,1000,-13,-11,-6
1100,129,45,999,-9,9,-2
1101,8,46,1004,-13,23,0
1102,-103,43,1008,-11,20,1
1103,-137,24,978,-17,3,-2
1104,-55,13,994,-17,-15,-7
1105,74,20,1000,-14,-23,-8
1106,142,33,996,-14,-9,-7
1107,117,43,1007,-11,10,-2
1108,-19,54,999,-13,23,3
1109,-111,38,1003,-15,18,-1
1110,-134,11,975,-16,-1,-3
1111,-34,13,988,-15,-19,-7
1112,91,20,1008,-14,-21,-6
1113,143,39,1004,-11,-6,-4
1114,99,44,1003,-13,14,0
1115,-42,52,1000,-14,23,3
1116,-125,30,987,-15,14,-2
1117,-115,15,985,-16,-4,-4
1118,-17,11,992,-15,-18,-7
1119,117,25,1005,-15,-18,-7
1120,147,32,998,-15,-2,-4
1121,70,54,1010,-9,17,0
1122,-51,39,992,-15,21,0
1123,-148,34,988,-14,12,0
1124,-93,14,984,-19,-11,-7
1125,8,15,1001,-17,-21,-7
1126,133,25,1010,-13,-17,-6
1127,142,34,1000,-11,2,-3
1128,45,50,991,-11,19,2
1129,-81,44,1011,-13,22,1
1130,-143,22,985,-16,7,-2
1131,-83,13,986,-14,-12,-6
1132,47,16,1007,-16,-24,-9
1133,143,23,997,-12,-13,-6
1134,132,44,997,-10,6,-3
1135,14,52,1006,-12,23,2
1136,-98,42,993,-14,21,0
1137,-145,20,997,-16,3,-3
1138,-59,14,979,-18,-16,-6
1139,64,19,1003,-14,-22,-7
1140,149,27,1002,-15,-11,-8
1141,117,44,1000,-12,9,-1
1142,-2,48,1001,-11,23,3
1143,-122,34,1013,-16,19,2
1144,-132,19,967,-16,0,-5
1145,-44,12,994,-15,-17,-7
1146,88,28,1007,-16,-22,-8
1147,147,29,1000,-13,-8,-5
1148,108,52,1008,-12,13,-2
1149,-28,46,1003,-14,24,3
1150,-128,32,983,-13,16,-1
1151,-122,2,988,-16,-4,-3
1152,-23,12,987,-16,-20,-7
1153,105,31,1002,-14,-20,-6
1154,161,42,1011,-11,-2,-6
1155,73,53,999,-13,18,2
1156,-47,50,1001,-12,23,0
1157,-140,21,986,-20,12,-2
1158,-109,11,980,-17,-9,-3
1159,11,4,1001,-15,-22,-8
1160,120,26,1014,-13,-17,-8
1161,148,35,990,-11,1,-3
1162,53,51,1006,-9,20,1
1163,-73,50,1004,-14,21,3
1164,-144,35,985,-17,9,0
1165,-89,15,989,-18,-12,-6
1166,35,14,999,-17,-23,-7
1167,142,21,1003,-15,-14,-7
1168,132,39,1000,-11,7,-2
1169,23,53,996,-11,22,2
1170,-97,40,1008,-14,21,1
1171,-142,26,986,-15,5,-3
1172,-64,6,995,-16,-15,-6
1173,66,21,995,-14,-23,-8
1174,142,32,997,-14,-10,-5
1175,123,45,1007,-12,10,-2
1176,-9,46,1000,-12,24,3
1177,-111,33,1000,-14,19,1
1178,-130,23,986,-16,0,-3
1179,-39,6,983,-16,-18,-7
1180,87,29,1002,-13,-20,-7
1181,141,37,1006,-14,-7,-5
1182,101,57,1003,-10,14,1
1183,-30,46,997,-15,23,2
1184,-128,32,997,-14,16,0
1185,-111,7,983,-18,-5,-4
1186,-23,7,986,-15,-19,-7
1187,109,23,1005,-12,-20,-8
1188,149,38,1008,-11,-3,-5
1189,72,50,1001,-11,18,1
1190,-46,45,1002,-12,23,1
1191,-138,30,984,-17,13,-1
1192,-101,15,985,-15,-7,-4
1193,3,8,995,-18,-19,-7
1194,120,24,1011,-14,-17,-6
1195,145,33,992,-11,1,-3
1196,54,56,1001,-11,20,0
1197,-70,46,1006,-14,23,2
1198,-145,33,983,-15,9,-2
1199,-85,13,982,-19,-11,-6
1200,27,18,1011,-16,-22,-7
1201,142,13,999,-16,-15,-8
1202,134,39,998,-8,7,-2
1203,28,47,996,-11,21,1
1204,-86,47,1004,-15,21,1
1205,-146,27,983,-17,6,-2
1206,-65,21,1002,-16,-14,-6
1207,62,17,999,-17,-22,-8
1208,139,31,993,-12,-11,-5
1209,125,41,1009,-13,6,-2
1210,0,53,1002,-12,24,3
1211,-111,36,999,-15,19,0
1212,-132,12,983,-17,1,-3
1213,-52,11,991,-15,-18,-5
1214,81,22,994,-13,-22,-7
1215,145,36,1009,-12,-8,-6
1216,103,49,992,-12,13,1
1217,-24,49,1007,-12,24,2
1218,-121,33,995,-16,16,0
1219,-126,19,975,-17,-2,-2
1220,-20,2,987,-18,-20,-8
1221,99,18,1008,-15,-19,-7
1222,149,37,996,-11,-5,-4
1223,88,48,1013,-10,16,-1
1224,-43,46,998,-14,22,1
1225,-131,34,979,-13,13,0
1226,-115,19,994,-17,-6,-5
1227,-6,13,994,-18,-20,-9
1228,113,23,1004,-16,-17,-8
1229,154,32,1000,-14,-1,-4
1230,66,49,1000,-11,18,1
1231,-55,38,1004,-11,24,0
1232,-153,34,987,-14,11,1
1233,-102,23,978,-15,-10,-5
1234,19,13,1010,-16,-23,-9
1235,129,30,1003,-15,-17,-6
1236,148,42,997,-11,3,-3
1237,38,45,1001,-14,21,1
1238,-76,37,1004,-15,22,0
1239,-149,27,983,-16,7,-1
1240,-84,17,997,-15,-13,-6
1241,50,17,994,-16,-23,-9
1242,133,22,999,-14,-14,-5
1243,132,51,1004,-10,7,-2
1244,8,45,999,-15,23,2
1245,-95,42,1010,-14,20,0
1246,-137,16,975,-19,3,-1
1247,-60,9,993,-17,-14,-7
1248,72,15,999,-15,-22,-7
1249,141,34,1000,-13,-9,-6
1250,122,47,1003,-14,10,-1
1251,-12,50,1001,-13,24,2
1252,-112,30,1005,-15,16,-1
1253,-133,22,975,-17,0,-2
1254,-38,7,985,-17,-19,-8
1255,99,25,1009,-14,-22,-7
1256,143,42,1005,-12,-4,-4
1257,102,49,1005,-12,14,-1
1258,-30,41,998,-14,22,2
1259,-141,31,991,-16,15,1
1260,-107,12,986,-16,-7,-5
1261,-14,11,987,-14,-19,-8
1262,115,29,1011,-14,-20,-6
1263,149,45,1000,-13,-1,-3
1264,66,50,1001,-12,20,1
1265,-56,43,1005,-15,24,2
1266,-144,26,982,-18,10,-1
1267,-100,6,984,-19,-11,-4
1268,22,13,1008,-16,-22,-9
1269,129,22,1001,-14,-16,-6
1270,145,39,998,-10,2,-3
1271,45,53,1001,-11,19,2
1272,-84,44,1001,-14,21,0
1273,-144,32,987,-16,7,-2
1274,-87,11,993,-18,-13,-5
1275,41,15,992,-17,-23,-8
1276,146,22,1000,-14,-14,-6
1277,138,45,1005,-12,6,-2
1278,20,47,994,-14,23,1
1279,-96,37,1011,-10,22,-1
1280,-150,17,979,-16,6,-1
1281,-79,17,987,-15,-15,-6
1282,79,19,1003,-15,-25,-8
1283,141,41,997,-12,-10,-4
1284,143,45,1005,-13,8,-2
1285,-2,45,1007,-13,25,2
1286,-124,32,998,-16,20,0
1287,-137,8,982,-16,1,-4
1288,-50,10,981,-13,-18,-9
1289,87,27,1013,-12,-23,-8
1290,157,46,1003,-12,-8,-6
1291,100,52,1002,-12,15,1
1292,-22,50,1003,-15,23,2
1293,-127,27,994,-17,17,0
1294,-122,11,978,-18,-3,-3
1295,-22,0,994,-15,-19,-7
1296,107,23,999,-14,-21,-8
1297,154,36,1012,-12,-2,-5
1298,69,58,994,-11,17,2
1299,-43,46,1005,-14,22,0
1300,-138,35,985,-18,12,-1
1301,-108,14,977,-21,-8,-5
1302,21,8,1006,-15,-22,-9
1303,110,20,1007,-16,-16,-4
1304,154,37,992,-12,0,-4
1305,42,44,999,-11,21,2
1306,-80,57,1005,-12,20,1
1307,-132,24,985,-16,7,-3
1308,-90,22,991,-16,-10,-4
1309,43,13,997,-19,-23,-8
1310,136,23,997,-12,-12,-7
1311,130,35,1003,-12,6,-2
1312,17,52,993,-11,21,3
1313,-94,33,1007,-15,20,0
1314,-137,27,989,-15,4,-2
1315,-59,14,986,-14,-15,-7
1316,68,15,1002,-14,-20,-9
1317,139,37,1004,-11,-9,-5
1318,115,47,998,-12,10,-2
1319,-7,49,1001,-13,23,1
1320,-120,33,1007,-16,18,-1
1321,-120,15,976,-18,-1,-5
1322,-45,9,985,-15,-16,-7
1323,87,27,1008,-14,-21,-8
1324,147,33,1001,-13,-6,-6
1325,95,49,1005,-12,15,0
1326,-31,46,1001,-14,23,2
1327,-122,35,988,-16,15,-1
1328,-118,10,984,-20,-4,-4
1329,-15,9,989,-15,-20,-8
1330,106,20,1003,-15,-20,-7
1331,146,39,1007,-10,-3,-6
1332,77,47,1005,-12,17,0
1333,-49,54,997,-14,23,1
1334,-133,24,985,-17,11,-2
1335,-110,18,987,-18,-8,-6
1336,4,5,996,-16,-20,-8
1337,119,30,1016,-13,-16,-7
1338,154,34,990,-15,-1,-4
1339,52,54,1001,-11,19,2
1340,-62,43,1005,-17,22,1
1341,-154,30,992,-16,11,0
1342,-89,13,978,-17,-12,-5
1343,28,7,1005,-18,-22,-6
1344,142,27,1005,-12,-16,-7
1345,141,37,995,-10,5,-2
1346,25,58,997,-12,21,3
1347,-92,43,1005,-15,22,1
1348,-145,25,990,-17,5,-3
1349,-74,10,986,-17,-14,-4
1350,68,20,1005,-17,-22,-9
1351,143,26,998,-8,-13,-7
1352,123,48,1003,-10,9,-2
1353,-1,51,1004,-14,23,0
1354,-114,33,1004,-16,19,0
1355,-132,12,976,-15,1,-4
1356,-46,8,990,-17,-17,-6
1357,90,18,1001,-12,-22,-7
1358,142,32,999,-9,-6,-5
1359,105,53,1007,-11,13,0
1360,-25,52,998,-12,24,2
1361,-127,38,995,-18,15,0
1362,-120,7,978,-17,-4,-3
1363,-24,8,990,-14,-20,-9
1364,101,21,1002,-16,-21,-6
1365,152,38,1010,-9,-3,-5
1366,93,44,1002,-13,16,-1
1367,-49,50,1001,-13,25,2
1368,-139,32,985,-15,14,-1
1369,-120,21,986,-18,-6,-3
1370,-10,20,991,-16,-22,-7
1371,123,21,1014,-16,-20,-8
1372,166,34,992,-13,-2,-5
1373,68,42,1001,-12,20,2
1374,-57,46,1006,-12,25,0
1375,-159,26,986,-16,13,0
1376,-106,27,975,-15,-11,-6
1377,7,16,1010,-17,-23,-8
1378,144,33,1009,-13,-19,-8
1379,155,37,988,-14,3,-2
1380,49,50,1004,-14,22,1
1381,-81,29,1006,-17,23,1
1382,-167,19,983,-14,10,-3
1383,-88,8,989,-16,-14,-6
1384,45,20,998,-14,-25,-7
1385,145,31,1000,-13,-16,-7
1386,147,58,1006,-12,5,-3
1387,21,51,1002,-18,22,1
1388,-107,29,1006,-15,21,0
1389,-148,13,979,-17,4,-2
1390,-73,3,987,-16,-15,-6
1391,71,21,1001,-14,-25,-8
1392,155,30,1003,-13,-10,-5
1393,127,53,1003,-11,11,-1
1394,-6,49,1003,-15,25,3
1395,-114,37,1005,-12,19,-2
1396,-145,13,972,-17,1,-2
1397,-43,11,986,-18,-18,-7
1398,93,13,1010,-15,-23,-9
1399,151,41,1000,-12,-7,-3
1400,109,44,1009,-12,14,-1
1401,-31,48,1003,-11,27,2
1402,-128,31,987,-15,15,1
1403,-124,25,986,-15,-4,-4
1404,-16,15,998,-18,-21,-7
1405,108,29,1003,-16,-19,-6
1406,151,32,1002,-13,-3,-4
1407,72,43,995,-11,16,0
1408,-51,35,1010,-14,23,2
1409,-136,26,978,-13,11,-1
1410,-99,19,987,-13,-8,-6
1411,16,22,1004,-14,-21,-7
1412,117,31,1002,-14,-15,-6
1413,148,41,1000,-11,1,-4
1414,27,45,991,-15,20,2
1415,-73,42,1012,-16,20,-1
1416,-137,15,988,-16,7,-1
1417,-81,17,985,-14,-11,-5
1418,55,9,1001,-14,-21,-8
1419,132,35,998,-12,-11,-6
1420,127,45,1003,-11,6,-3
1421,4,60,999,-12,22,2
1422,-108,39,1008,-17,19,1
1423,-124,19,986,-16,0,-4
1424,-55,5,985,-18,-16,-6
1425,80,14,1000,-15,-22,-7
1426,147,26,1001,-13,-9,-6
1427,103,50,1002,-13,12,0
1428,-20,56,1002,-12,24,1
1429,-117,33,1001,-15,16,-1
1430,-118,12,982,-18,-4,-4
1431,-30,9,982,-16,-19,-7
1432,104,23,1014,-15,-22,-9
1433,143,32,998,-13,-4,-4
1434,87,53,1009,-11,16,-1
1435,-36,47,995,-15,23,2
1436,-136,30,990,-13,15,1
1437,-109,14,987,-17,-8,-5
1438,-4,11,987,-15,-21,-8
1439,118,27,1009,-13,-19,-7
1440,147,32,998,-14,-2,-2
1441,66,48,999,-10,19,0
1442,-59,45,1006,-12,24,1
1443,-146,30,980,-17,10,-1
1444,-93,17,989,-16,-10,-5
1445,21,14,1001,-16,-22,-9
1446,128,28,1012,-16,-15,-7
1447,148,38,993,-11,2,-4
1448,34,50,995,-13,20,2
1449,-78,36,1011,-15,21,1
1450,-143,27,982,-15,7,-1
1451,-79,12,992,-17,-13,-5
1452,54,20,1004,-15,-23,-7
1453,142,22,997,-12,-13,-7
1454,127,46,997,-10,8,-3
1455,8,52,1005,-14,24,1
1456,-103,41,1001,-15,20,1
1457,-142,23,981,-18,3,-2
1458,-53,8,993,-17,-15,-7
1459,72,13,1000,-15,-23,-7
1460,140,35,996,-11,-10,-5
1461,122,46,1005,-11,9,-2
1462,-19,54,1002,-13,24,3
1463,-115,40,1001,-15,19,0
1464,-125,7,987,-16,-2,-4
1465,-41,16,975,-14,-17,-7
1466,95,17,1014,-16,-21,-8
1467,151,38,1002,-12,-6,-6
1468,87,44,1002,-10,15,0
1469,-30,53,999,-13,22,1
1470,-128,22,994,-18,16,-1
1471,-121,20,975,-14,-5,-3
1472,-12,10,998,-16,-21,-8
1473,113,27,1003,-14,-19,-6
1474,152,49,1007,-12,-1,-3
1475,73,47,999,-14,17,0
1476,-59,46,1008,-15,23,2
1477,-136,24,983,-18,11,-2
1478,-107,7,978,-18,-8,-5
1479,20,7,1012,-14,-22,-8
1480,127,29,1003,-13,-16,-7
1481,144,43,996,-10,4,-4
1482,48,53,999,-12,20,2
1483,-84,48,1006,-16,23,1
1484,-138,28,983,-17,8,-3
1485,-84,14,993,-19,-12,-5
1486,40,9,995,-16,-23,-6
1487,139,22,1002,-15,-14,-5
1488,133,37,1000,-11,6,-3
1489,15,57,999,-12,23,3
1490,-93,42,1000,-14,20,1
1491,-139,24,995,-15,4,-2
1492,-67,15,982,-16,-15,-5
1493,71,16,1002,-16,-22,-9
1494,147,23,1002,-13,-11,-6
1495,112,48,998,-12,10,0
1496,-3,52,1002,-12,23,0
1497,-118,38,1008,-16,18,1
1498,-130,17,977,-18,0,-2
1499,-38,3,980,-16,-16,-7
1500,83,18,1013,-13,-21,-8
1501,152,36,1006,-10,-8,-6
1502,96,46,994,-9,14,0
1503,-27,62,1009,-12,24,2
1504,-123,27,993,-16,16,-2
1505,-119,21,979,-14,-4,-3
1506,-19,2,990,-17,-20,-7
1507,106,29,1011,-13,-19,-8
1508,146,27,1000,-14,-3,-3
1509,81,50,1007,-11,17,0
1510,-47,40,1002,-15,22,0
1511,-134,39,984,-13,13,-1
1512,-107,12,986,-17,-8,-5
1513,6,25,1002,-14,-21,-7
1514,120,20,1007,-17,-17,-6
1515,140,43,993,-12,0,-3
1516,56,44,1004,-12,18,1
1517,-67,49,1005,-13,22,1
1518,-141,23,984,-17,10,0
1519,-84,19,988,-15,-10,-5
1520,26,14,1003,-16,-21,-7
1521,133,32,997,-13,-14,-7
1522,134,36,1007,-13,5,-3
1523,23,52,991,-13,22,1
1524,-87,36,1003,-15,20,-1
1525,-140,21,994,-16,6,-3
1526,-66,14,984,-13,-14,-5
1527,62,21,998,-14,-21,-8
1528,139,27,1005,-12,-11,-6
1529,119,49,997,-12,8,-1
1530,-3,52,1007,-13,23,2
1531,-108,42,999,-16,18,0
1532,-127,10,988,-18,2,-4
1533,-39,9,980,-17,-15,-6
1534,76,16,1008,-14,-20,-6
1535,143,37,999,-11,-7,-6
1536,98,46,1006,-11,12,1
1537,-19,53,998,-12,23,2
1538,-131,31,999,-15,16,0
1539,-109,21,980,-14,-4,-4
1540,-26,0,987,-16,-18,-5
1541,104,27,1002,-12,-21,-8
1542,151,32,1014,-12,-3,-5
1543,75,49,997,-12,16,1
1544,-41,46,1000,-12,24,2
1545,-128,31,990,-16,15,-2
1546,-109,8,982,-15,-7,-4
1547,2,17,996,-13,-20,-7
1548,116,24,1015,-16,-17,-6
1549,149,39,993,-11,0,-4
1550,55,49,1000,-11,19,1
1551,-68,47,1004,-13,22,1
1552,-136,21,983,-19,10,-2
1553,-91,12,982,-15,-9,-5
1554,22,17,1004,-18,-22,-7
1555,135,25,1006,-13,-15,-6
1556,137,43,998,-11,3,-3
1557,27,58,992,-13,20,2
1558,-78,43,1013,-16,20,0
1559,-146,19,981,-16,6,-1
1560,-74,13,988,-16,-13,-7
1561,55,14,1004,-15,-24,-9
1562,136,33,995,-13,-13,-5
1563,125,42,1009,-14,6,-2
1564,9,60,1004,-12,23,0
1565,-107,38,1002,-17,19,1
1566,-123,19,984,-17,1,-5
1567,-51,3,985,-16,-16,-4
1568,77,17,1000,-15,-22,-7
1569,144,32,1009,-10,-8,-7
1570,101,49,998,-12,11,0
1571,-21,56,1001,-13,23,1
1572,-116,37,999,-15,16,-1
1573,-116,11,983,-17,-3,-3
1574,-28,10,978,-18,-17,-7
1575,99,12,1012,-15,-20,-7
1576,142,38,1000,-9,-4,-4
1577,83,53,1009,-9,16,0
1578,-42,55,999,-12,23,0
1579,-128,31,988,-15,13,-1
1580,-109,12,979,-18,-8,-5
1581,-4,8,998,-15,-20,-8
1582,112,18,1010,-13,-18,-8
1583,144,40,992,-11,-1,-3
1584,65,51,1006,-9,17,0
1585,-59,50,1001,-13,21,1
1586,-133,27,984,-15,11,-2
1587,-89,22,988,-14,-9,-5
1588,18,16,999,-16,-20,-7
1589,126,24,1007,-13,-15,-7
1590,139,34,997,-12,2,-4
1591,32,53,999,-11,20,1
1592,-74,41,1003,-14,20,-1
1593,-137,22,990,-16,8,-2
1594,-77,18,989,-18,-11,-5
1595,48,14,1001,-15,-22,-8
1596,133,27,996,-13,-12,-5
1597,125,47,1006,-10,6,-2
1598,17,55,1003,-12,21,2
1599,-104,38,997,-16,19,1
1600,-124,19,986,-15,2,-3
1601,-58,6,988,-17,-15,-6
1602,69,14,993,-14,-20,-6
1603,138,31,1008,-14,-9,-5
1604,109,54,1002,-11,9,0
1605,-10,49,1001,-14,22,2
1606,-112,40,1000,-16,16,0
1607,-121,7,980,-18,-1,-3
1608,-29,14,989,-16,-18,-7
1609,89,19,1002,-16,-22,-6
1610,138,42,1006,-11,-6,-4
1611,90,41,1009,-13,12,-1
1612,-31,53,996,-13,23,1
1613,-119,28,988,-15,13,-2
1614,-111,23,987,-16,-5,-3
1615,-8,8,993,-16,-19,-8
1616,111,22,1004,-16,-17,-6
1617,135,34,1004,-14,-3,-4
1618,75,57,1002,-11,16,-1
1619,-58,45,999,-14,22,2
1620,-132,37,988,-16,11,-2
1621,-89,7,982,-20,-9,-6
1622,11,14,1006,-15,-19,-7
1623,130,19,1002,-13,-18,-7
1624,132,40,1002,-12,4,-3
1625,44,54,994,-12,19,2
1626,-76,43,1007,-14,23,2
1627,-136,23,986,-18,8,-3
1628,-79,17,991,-16,-12,-3
1629,45,8,999,-17,-22,-10
1630,136,21,999,-12,-12,-6
1631,128,48,1002,-11,7,-3
1632,13,52,999,-12,23,0
1633,-94,48,1003,-15,20,0
1634,-133,22,987,-18,3,-1
1635,-60,8,982,-17,-15,-7
1636,63,14,1000,-13,-22,-6
1637,142,24,1004,-12,-11,-5
1638,110,44,994,-9,10,0
1639,-5,60,1012,-10,22,3
1640,-105,41,1001,-14,18,-1
1641,-134,18,980,-16,1,-3
1642,-31,11,983,-16,-18,-8
1643,82,21,1012,-17,-21,-6
1644,138,39,1001,-13,-7,-5
1645,98,46,1011,-12,14,-1
1646,-25,46,1000,-11,24,1
1647,-123,31,988,-14,15,1
1648,-109,15,987,-15,-5,-3
1649,-17,14,987,-17,-19,-6
1650,101,27,1004,-14,-19,-6
1651,145,40,1009,-13,-3,-5
1652,67,46,997,-13,17,1
1653,-38,45,1001,-13,23,0
1654,-136,23,988,-18,12,0
1655,-96,16,978,-15,-8,-5
1656,11,9,1001,-17,-21,-8
1657,113,31,1013,-15,-17,-5
1658,138,40,996,-11,1,-4
1659,49,55,990,-12,19,-1
1660,-67,41,1016,-15,20,0
1661,-142,26,981,-15,9,-3
1662,-77,13,989,-16,-12,-6
1663,34,9,998,-16,-21,-6
1664,127,30,1005,-14,-13,-7
1665,133,34,1002,-12,5,-2
1666,16,57,997,-7,20,2
1667,-92,44,1001,-14,19,0
1668,-131,21,995,-15,5,-3
1669,-64,14,985,-17,-14,-4
1670,64,17,1000,-14,-21,-7
1671,138,30,1005,-13,-10,-6
1672,113,54,1000,-12,10,-2
1673,-6,47,1000,-13,22,2
1674,-111,38,1007,-16,18,-1
1675,-123,18,979,-16,0,-3
1676,-39,3,983,-16,-18,-7
1677,78,18,1008,-16,-22,-6
1678,140,36,1006,-12,-7,-5
1679,102,48,1002,-10,13,-1
1680,-28,55,999,-13,24,2
1681,-115,38,997,-17,16,-1
1682,-118,7,977,-19,-3,-3
1683,-27,9,987,-18,-19,-7
1684,103,22,1008,-15,-20,-7
1685,140,39,1004,-14,-4,-5
1686,80,43,1005,-11,15,0
1687,-44,54,999,-13,22,0
1688,-127,30,986,-16,11,-1
1689,-102,10,988,-13,-7,-4
1690,1,9,998,-16,-19,-6
1691,114,26,1007,-17,-18,-6
1692,140,37,997,-11,0,-3
1693,56,58,996,-10,19,2
1694,-62,42,1007,-18,22,0
1695,-141,29,989,-14,10,-2
1696,-81,12,982,-18,-11,-5
1697,33,6,1006,-17,-19,-8
1698,125,28,1000,-11,-13,-6
1699,134,41,999,-11,6,-4
1700,31,59,1001,-10,21,0
1701,-93,46,997,-14,21,1
1702,-131,21,995,-19,4,-3
1703,-67,7,993,-17,-13,-5
1704,56,13,993,-15,-22,-7
1705,141,29,997,-14,-12,-6
1706,115,44,1013,-11,8,-1
1707,3,57,991,-14,21,0
1708,-110,44,1010,-15,19,1
1709,-125,15,981,-18,0,-2
1710,-52,11,982,-18,-16,-6
1711,85,14,1006,-16,-23,-8
1712,137,33,1001,-13,-7,-4
1713,107,46,1002,-11,11,-2
1714,-18,46,1002,-12,23,2
1715,-119,36,1000,-14,15,0
1716,-115,15,976,-16,-2,-3
1717,-29,14,993,-16,-18,-6
1718,103,26,1006,-16,-20,-6
1719,135,38,997,-11,-2,-3
1720,85,53,1016,-11,15,-1
1721,-37,41,992,-14,24,2
1722,-130,25,985,-16,14,0
1723,-97,9,989,-18,-7,-5
1724,-5,12,990,-15,-18,-7
1725,118,28,1012,-13,-18,-6
1726,137,44,997,-12,0,-3
1727,59,48,1000,-14,18,0
1728,-61,46,1004,-14,23,2
1729,-144,24,982,-16,11,-1
1730,-83,11,989,-18,-12,-5
1731,23,11,997,-16,-23,-7
1732,124,26,1011,-13,-16,-5
1733,143,41,993,-10,3,-2
1734,26,57,1001,-12,21,1
1735,-81,48,998,-15,19,0
1736,-137,24,993,-18,5,-2
1737,-70,11,982,-17,-15,-6
1738,56,13,1009,-15,-21,-7
1739,135,20,983,-13,-11,-6
1740,121,37,1016,-8,9,-3
1741,4,55,995,-10,22,1
1742,-100,44,1009,-13,20,1
1743,-125,16,976,-15,1,-4
1744,-55,20,991,-15,-15,-5
1745,81,16,999,-15,-21,-9
1746,130,34,1001,-11,-7,-4
1747,108,47,1004,-13,9,-3
1748,-15,47,1006,-12,24,2
1749,-117,33,994,-17,17,-1
1750,-116,10,989,-15,-2,-3
1751,-26,11,981,-14,-18,-7
1752,84,24,1005,-15,-20,-6
1753,148,44,1012,-11,-6,-6
1754,83,50,1003,-11,16,0
1755,-34,56,994,-12,21,1
1756,-126,25,990,-18,13,-1
1757,-104,17,984,-18,-7,-4
1758,-6,6,987,-18,-20,-6
1759,102,29,1018,-13,-18,-5
1760,148,32,994,-15,-3,-4
1761,59,51,1001,-9,19,1
1762,-53,41,1003,-13,22,0
1763,-136,23,990,-16,12,-2
1764,-88,21,977,-15,-8,-5
1765,11,19,1006,-18,-20,-6
1766,125,25,1009,-16,-16,-7
1767,136,34,998,-12,2,-2
1768,39,53,992,-10,20,1
1769,-69,42,1008,-14,21,1
1770,-137,22,990,-15,8,-2
1771,-75,15,987,-15,-12,-4
1772,42,15,998,-15,-22,-8
1773,129,23,1003,-11,-13,-7
1774,129,47,1003,-10,6,-3
1775,17,54,1002,-13,22,3
1776,-96,40,999,-14,19,1
1777,-129,18,990,-17,3,-4
1778,-60,7,977,-15,-14,-7
1779,61,16,1003,-13,-20,-6
1780,140,31,1002,-12,-10,-5
1781,110,49,999,-10,9,-1
1782,-2,52,1006,-14,21,1
1783,-114,38,1004,-16,19,0
1784,-114,12,974,-16,1,-4
1785,-42,12,990,-16,-16,-7
1786,83,28,1001,-14,-21,-7
1787,133,35,1007,-14,-6,-4
1788,96,44,1005,-12,12,-1
1789,-33,48,1001,-14,22,3
1790,-110,28,982,-15,16,-3
1791,-115,15,995,-16,-3,-4
1792,-18,17,981,-15,-19,-7
1793,108,17,1007,-14,-19,-7
1794,128,47,1001,-11,-2,-5
1795,76,52,1009,-11,15,-1
1796,-47,44,993,-16,22,1
1797,-131,32,989,-17,13,1
1798,-96,10,984,-18,-7,-6
1799,10,14,1006,-16,-19,-7
1800,115,22,1001,-13,-15,-6
1801,141,46,1006,-11,2,-4
1802,45,51,990,-13,19,0
1803,-73,44,1011,-15,21,0
1804,-131,29,979,-17,7,-3
1805,-80,13,994,-19,-10,-3
1806,40,11,993,-17,-22,-6
1807,124,23,1004,-13,-13,-4
1808,130,43,995,-10,5,-4
1809,18,48,1008,-12,21,2
1810,-89,45,992,-13,19,0
1811,-131,19,997,-17,4,-3
1812,-54,15,984,-17,-14,-7
1813,57,19,997,-14,-19,-5
1814,138,25,1004,-13,-9,-8
1815,107,47,1008,-10,10,-2
1816,-3,53,995,-13,20,1
1817,-102,39,1010,-16,17,-1
1818,-124,12,974,-17,0,-3
1819,-40,6,987,-14,-16,-7
1820,81,18,1003,-12,-20,-7
1821,135,34,1010,-11,-7,-5
1822,98,60,999,-9,12,-2
1823,-27,48,1005,-14,24,2
1824,-118,34,991,-17,14,-1
1825,-112,12,985,-19,-3,-4
1826,-19,2,985,-18,-19,-7
1827,98,23,1008,-12,-18,-6
1828,141,36,1003,-11,-4,-5
1829,75,52,1010,-11,15,1
1830,-42,45,989,-11,22,0
1831,-134,34,995,-16,13,-2
1832,-93,16,977,-17,-8,-6
1833,-1,10,1003,-18,-18,-7
1834,117,27,1006,-14,-18,-7
1835,140,34,1004,-11,0,-4
1836,52,51,987,-10,19,-1
1837,-69,43,1018,-12,22,1
1838,-132,30,978,-16,8,-4
1839,-88,13,993,-16,-9,-5
1840,34,14,992,-17,-23,-8
1841,118,28,1008,-13,-14,-5
1842,138,47,994,-11,2,-4
1843,20,52,1007,-12,21,2
1844,-84,48,995,-14,19,0
1845,-128,19,997,-19,5,-3
1846,-66,11,985,-18,-12,-4
1847,59,14,996,-17,-22,-6
1848,134,27,1002,-13,-11,-6
1849,112,51,1006,-10,8,-1
1850,0,59,995,-14,22,2
1851,-100,37,1010,-15,18,-1
1852,-124,14,976,-19,2,-3
1853,-47,9,984,-16,-15,-6
1854,83,17,1003,-15,-21,-8
1855,127,35,1010,-13,-6,-2
1856,105,50,995,-12,11,-3
1857,-25,48,1012,-13,23,0
1858,-116,36,984,-14,14,-2
1859,-109,15,990,-17,-3,-4
1860,-21,6,980,-15,-17,-7
1861,91,22,1011,-14,-18,-5
1862,146,40,1003,-11,-5,-6
1863,71,46,1009,-12,17,1
1864,-36,50,988,-13,21,0
1865,-127,28,999,-16,12,-1
1866,-99,14,977,-17,-7,-5
1867,0,10,1003,-16,-20,-6
1868,112,26,1007,-14,-17,-7
1869,135,38,1000,-12,1,-3
1870,61,52,997,-12,17,0
1871,-68,43,1008,-16,21,1
1872,-132,27,985,-16,8,-3
1873,-83,13,984,-19,-10,-5
1874,23,14,1000,-14,-20,-7
1875,132,25,1009,-14,-15,-6
1876,129,41,994,-11,5,-3
1877,29,54,998,-12,20,1
1878,-78,45,1003,-15,20,0
1879,-135,23,989,-16,7,-3
1880,-71,18,990,-16,-13,-7
1881,59,17,996,-17,-21,-9
1882,133,23,1003,-12,-11,-5
1883,117,43,1000,-11,7,-2
1884,2,46,1005,-14,22,2
1885,-100,45,1009,-15,18,2
1886,-124,15,975,-19,1,-3
1887,-48,14,989,-14,-16,-7
1888,71,19,1004,-15,-22,-7
1889,136,38,996,-13,-8,-5
1890,101,46,1012,-12,12,-1
1891,-25,55,997,-12,21,1
1892,-112,26,1002,-16,14,-2
1893,-117,17,975,-16,-2,-2
1894,-21,8,990,-16,-18,-7
1895,101,27,1007,-13,-19,-8
1896,136,43,1002,-10,-3,-3
1897,87,59,1010,-12,16,0
1898,-44,39,998,-16,23,2
1899,-128,28,981,-15,13,-1
1900,-100,8,991,-18,-8,-6
1901,-8,6,992,-14,-19,-7
1902,116,27,1016,-12,-18,-4
1903,147,44,989,-11,0,-3
1904,55,52,1005,-10,19,2
1905,-53,50,1000,-13,22,-1
1906,-140,27,984,-18,11,-3
1907,-86,13,982,-16,-11,-5
1908,19,8,1007,-17,-19,-6
1909,126,20,1002,-13,-16,-7
1910,136,36,1002,-9,3,-3
1911,35,58,994,-11,20,0
1912,-78,41,1007,-15,22,1
1913,-136,27,986,-16,7,-2
1914,-72,13,997,-18,-13,-5
1915,47,20,990,-15,-20,-8
1916,132,24,998,-11,-11,-6
1917,124,42,1008,-12,6,-3
1918,9,47,1000,-12,21,2
1919,-100,40,998,-13,19,-2
1920,-126,24,995,-15,2,-3
1921,-54,12,980,-16,-14,-5
1922,72,20,995,-14,-20,-7
1923,141,27,1016,-12,-8,-6
1924,102,50,991,-11,13,0
1925,-17,50,1003,-13,23,0
1926,-108,37,1009,-15,17,-2
1927,-121,15,968,-15,0,-2
1928,-25,10,989,-16,-18,-8
1929,85,26,1017,-12,-20,-6
1930,138,39,996,-11,-4,-4
1931,91,47,1007,-12,15,-1
1932,-39,47,999,-14,23,2
1933,-122,31,987,-16,13,-1
1934,-103,11,985,-18,-6,-6
1935,-15,17,994,-15,-18,-6
1936,110,26,1005,-15,-19,-6
1937,141,38,1000,-12,-2,-5
1938,63,50,1004,-11,16,1
1939,-52,43,999,-14,21,0
1940,-133,23,992,-17,10,-3
1941,-89,18,974,-16,-8,-4
1942,14,13,1004,-17,-21,-6
1943,128,28,1017,-13,-17,-6
1944,133,42,987,-14,2,-2
1945,43,52,997,-11,20,-1
1946,-74,45,1013,-15,21,0
1947,-144,19,978,-15,7,-3
1948,-63,11,995,-16,-13,-7
1949,41,15,999,-15,-21,-6
1950,134,33,999,-12,-13,-6
1951,128,41,1007,-12,6,-2
1952,7,58,998,-13,22,3
1953,-93,39,1004,-15,19,0
1954,-131,21,988,-16,2,-4
1955,-58,10,989,-18,-15,-5
1956,68,13,993,-14,-23,-7
1957,133,25,1007,-14,-9,-6
1958,116,50,1003,-11,9,-2
1959,-17,50,996,-14,23,3
1960,-112,44,1008,-14,18,0
1961,-113,12,980,-18,-1,-4
1962,-45,13,978,-16,-17,-6
1963,92,19,1013,-14,-22,-8
1964,141,35,1004,-13,-6,-4
1965,92,49,1004,-11,13,-1
1966,-26,48,1000,-12,22,0
1967,-120,32,994,-16,16,-1
1968,-105,15,980,-15,-3,-3
1969,-15,12,989,-14,-18,-6
1970,102,33,1010,-15,-18,-6
1971,139,42,1002,-11,-1,-6
1972,72,47,1001,-14,17,-1
1973,-53,44,1002,-15,22,1
1974,-127,24,983,-16,11,-2
1975,-96,4,983,-16,-6,-4
1976,4,13,1001,-13,-19,-6
1977,121,32,1015,-12,-17,-6
1978,140,45,992,-11,1,-5
1979,45,55,1002,-12,19,1
1980,-68,45,1005,-15,22,1
1981,-139,24,985,-17,10,-1
1982,-85,8,984,-15,-11,-4
1983,34,13,1005,-17,-22,-6
1984,132,21,995,-13,-14,-5
1985,128,47,1008,-7,5,-3
1986,24,56,994,-13,20,1
1987,-94,43,999,-14,20,1
1988,-127,23,987,-18,4,-3
1989,-69,10,990,-16,-12,-5
1990,64,19,997,-14,-22,-8
1991,131,28,997,-14,-10,-5
1992,111,44,1008,-11,8,-2
1993,1,56,997,-13,20,0
1994,-111,39,1009,-17,18,-1
1995,-119,16,977,-16,-1,-4
1996,-46,4,985,-14,-16,-5
1997,79,22,1000,-13,-21,-7
1998,137,32,1010,-12,-7,-5
1999,102,52,999,-12,12,-2
2000,-20,51,1006,-14,22,2
2001,-114,27,990,-17,15,-1
2002,-112,18,982,-16,-4,-4
2003,-17,-1,988,-17,-18,-6
2004,86,29,1007,-12,-18,-5
2005,149,37,1001,-11,-5,-6
2006,76,49,1016,-11,16,0
2007,-40,56,987,-14,22,1
2008,-124,25,994,-17,14,-2
2009,-98,15,983,-16,-8,-5
2010,-4,8,993,-15,-18,-6
2011,116,26,1011,-14,-16,-7
2012,134,29,1006,-12,0,-2
2013,57,59,984,-9,17,1
2014,-57,39,1018,-14,22,0
2015,-136,37,982,-15,10,-1
2016,-87,14,984,-18,-9,-4
2017,31,17,1002,-16,-20,-8
2018,118,30,1005,-14,-14,-4
2019,138,41,998,-12,4,-5
2020,26,46,998,-14,21,2
2021,-83,41,1004,-14,19,0
2022,-127,21,989,-16,5,-4
2023,-75,8,994,-15,-13,-4
2024,52,22,990,-15,-22,-6
2025,129,24,1004,-14,-11,-6
2026,124,56,1007,-12,7,-2
2027,-4,52,999,-16,22,3
2028,-90,43,1003,-17,18,-2
2029,-129,9,988,-20,2,-3
2030,-45,9,978,-18,-16,-7
2031,76,10,1007,-16,-22,-8
2032,134,36,1000,1,-2,-1
2033,103,49,1004,-19,11,0
2034,-17,59,998,-11,23,1
2035,-116,36,1007,-18,14,0
2036,-111,17,973,-16,-3,-4
2037,-28,2,991,-18,-17,-7
2038,93,22,1002,-14,-20,-7
2039,137,32,1009,-13,-4,-4
2040,85,43,1000,-11,14,0
2041,-38,49,1005,-13,22,1
2042,-113,32,983,-15,13,-3
2043,-106,13,987,-17,-4,-4
2044,-6,24,991,-13,-21,-8
2045,116,23,1012,-16,-20,-7
2046,135,37,993,-13,-1,-2
2047,61,46,1005,-12,16,0
2048,-57,38,997,-14,21,-1
2049,-136,28,993,-16,10,-1
2050,-84,14,976,-15,-10,-6
2051,21,20,1009,-16,-20,-7
2052,125,34,1006,-13,-14,-7
2053,139,41,996,-14,4,-4
2054,29,44,994,-15,20,1
2055,-78,39,1004,-15,21,0
2056,-130,15,989,-16,7,-4
2057,-71,13,990,-15,-12,-5
2058,47,22,998,-15,-21,-8
2059,137,30,1002,-14,-12,-7
2060,118,50,1006,-12,7,-2
2061,5,57,995,-14,21,0
2062,-103,39,1009,-16,20,0
2063,-130,22,982,-19,1,-2
2064,-48,6,982,-16,-16,-7
2065,71,19,1015,-15,-20,-6
2066,141,21,987,-14,-9,-6
2067,104,52,1012,-11,11,-2
2068,-20,52,995,-15,21,1
2069,-116,40,1009,-15,16,-1
2070,-114,12,973,-16,-3,-5
2071,-35,14,992,-17,-17,-5
2072,98,15,1004,-13,-22,-9
2073,140,36,1010,-12,-4,-4
2074,88,42,996,-11,15,0
2075,-40,54,1007,-11,23,1
2076,-117,30,987,-17,13,-2
2077,-120,17,982,-15,-3,-2
2078,-10,10,994,-17,-21,-8
2079,112,18,1016,-15,-19,-6
2080,142,39,989,-11,-1,-4
2081,70,49,1011,-12,18,1
2082,-47,48,1002,-13,22,0
2083,-141,27,983,-17,13,0
2084,-96,13,976,-17,-8,-5
2085,19,11,1015,-15,-19,-7
2086,122,32,1002,-12,-15,-5
2087,141,42,997,-14,3,-2
2088,47,51,1004,-12,19,0
2089,-75,42,1001,-14,21,1
2090,-140,24,986,-15,8,-3
2091,-76,16,991,-16,-10,-5
2092,35,8,999,-16,-21,-7
2093,135,24,1001,-12,-12,-7
2094,129,43,1006,-12,6,-1
2095,13,62,990,-11,22,1
2096,-90,43,1016,-16,20,0
2097,-137,24,973,-18,4,-2
2098,-64,11,997,-16,-14,-6
2099,74,14,997,-15,-24,-8
2100,136,24,1001,-13,-9,-5
2101,122,43,1000,-10,10,-1
2102,-16,55,1006,-11,24,3
2103,-102,48,1000,-13,18,-2
2104,-130,16,986,-19,2,-3
2105,-42,14,976,-17,-18,-6
2106,85,8,1016,-15,-21,-8
2107,140,31,997,-13,-7,-4
2108,97,49,1008,-11,12,-1
2109,-24,56,1003,-11,22,0
2110,-120,33,994,-18,15,1
2111,-113,18,977,-17,-4,-4
2112,-20,7,997,-16,-18,-9
2113,104,24,999,-15,-19,-8
2114,141,34,1012,-11,-2,-5
2115,77,53,999,-12,15,-1
2116,-47,38,1001,-13,23,1
2117,-130,34,988,-12,13,-2
2118,-98,14,985,-16,-7,-5
2119,3,21,997,-15,-19,-7
2120,119,27,1016,-14,-17,-6
2121,139,36,988,-14,1,-5
2122,51,41,1000,-12,19,0
2123,-68,41,1004,-13,20,0
2124,-139,23,983,-15,9,-3
2125,-79,13,986,-15,-11,-5
2126,32,24,1007,-14,-21,-7
2127,134,27,1001,-13,-14,-6
2128,130,44,998,-13,6,-2
2129,24,55,996,-13,21,2
2130,-85,39,1003,-16,20,0
2131,-141,19,988,-17,5,-3
2132,-61,8,992,-17,-13,-6
2133,58,10,999,-14,-21,-7
2134,136,31,997,-12,-10,-6
2135,121,53,1009,-10,9,-2
2136,-7,58,995,-12,24,3
2137,-98,44,1009,-14,18,-1
2138,-128,11,978,-19,1,-3
2139,-50,6,984,-17,-16,-5
2140,86,8,1006,-15,-20,-8
2141,137,33,1002,-11,-5,-4
2142,107,45,994,-11,12,0
2143,-23,59,1008,-12,25,3
2144,-118,37,997,-14,16,1
2145,-117,18,977,-17,-2,-2
2146,-30,9,987,-18,-17,-6
2147,95,21,1008,-15,-20,-7
2148,146,29,1009,-12,-5,-5
2149,83,51,998,-10,15,0
2150,-37,46,1006,-14,22,0
2151,-121,26,984,-13,14,-2
2152,-113,14,982,-16,-5,-4
2153,-11,18,997,-14,-21,-8
2154,110,33,1013,-14,-17,-8
2155,140,39,996,-14,-1,-5
2156,74,48,998,-11,16,0
2157,-54,43,1007,-15,22,1
2158,-135,22,984,-14,12,-2
2159,-97,7,976,-14,-8,-6
2160,15,18,1011,-13,-20,-7
2161,124,29,1006,-13,-16,-6
2162,138,46,993,-11,3,-3
2163,36,53,1001,-11,19,2
2164,-70,45,1000,-15,20,1
2165,-139,21,991,-16,7,-2
2166,-78,15,988,-15,-12,-5
2167,51,10,1001,-15,-23,-7
2168,134,22,998,-12,-12,-6
2169,117,47,1001,-11,8,-1
2170,15,56,1003,-11,20,0
2171,-91,38,1010,-15,19,1
2172,-135,26,972,-17,3,-2
2173,-49,11,995,-17,-15,-8
2174,65,18,998,-14,-20,-7
2175,130,40,999,-13,-9,-5
2176,118,40,1005,-14,9,-3
2177,-18,47,1003,-13,23,3
2178,-106,34,1000,-14,16,0
2179,-120,16,979,-14,0,-3
2180,-42,14,983,-14,-18,-6
2181,84,28,1010,-14,-21,-6
2182,136,38,1006,-12,-8,-6
2183,100,51,1003,-13,11,-1
2184,-26,44,1000,-15,22,0
2185,-120,31,991,-15,15,-1
2186,-107,11,983,-15,-4,-5
2187,-27,12,987,-15,-17,-6
2188,101,24,1010,-13,-20,-7
2189,145,36,1005,-12,-3,-5
2190,64,55,1003,-12,16,0
2191,-39,46,1001,-14,21,-1
2192,-126,26,988,-18,11,-2
2193,-100,20,978,-16,-8,-3
2194,9,5,1005,-17,-20,-7
2195,108,26,1013,-15,-16,-4
2196,141,37,994,-11,0,-5
2197,50,50,996,-11,19,1
2198,-68,51,1011,-13,21,1
2199,-132,31,986,-15,8,-2
2200,-79,11,989,-19,-10,-5
2201,28,14,995,-15,-21,-6
2202,130,25,1007,-16,-14,-7
2203,128,39,996,-11,4,-2
2204,20,55,999,-12,20,2
2205,-77,33,1006,-17,18,0
2206,-139,22,989,-15,6,-1
2207,-61,17,984,-17,-14,-6
2208,59,18,1004,-16,-21,-6
2209,133,33,1001,-14,-11,-4
2210,115,46,997,-14,7,-2
2211,-3,50,1008,-14,22,1
2212,-101,37,1003,-17,18,-1
2213,-119,10,976,-18,1,-2
2214,-44,9,988,-15,-15,-6
2215,82,21,1003,-15,-20,-7
2216,137,41,1004,-14,-5,-5
2217,91,52,1002,-13,13,0
2218,-27,54,999,-15,22,1
2219,-117,35,998,-17,15,0
2220,-114,12,976,-18,-3,-3
2221,-19,-1,993,-18,-19,-6
2222,106,20,1006,-16,-20,-6
2223,140,35,1003,-11,-3,-4
2224,75,54,1007,-11,16,0
2225,-46,58,1000,-12,22,3
2226,-129,36,982,-15,12,-2
2227,-102,13,988,-21,-9,-4
2228,8,7,997,-18,-22,-7
2229,115,17,1014,-16,-18,-6
2230,146,35,998,-12,0,-4
2231,50,46,991,-12,20,1
2232,-66,52,1015,-11,21,0
2233,-135,29,982,-15,7,-1
2234,-87,16,980,-18,-10,-6
2235,35,13,1012,-17,-23,-9
2236,125,27,997,-14,-15,-6
2237,135,34,1002,-10,3,-4
2238,22,53,998,-12,20,1
2239,-83,41,1003,-14,19,0
2240,-131,28,990,-16,7,-2
2241,-67,10,987,-17,-12,-4
2242,59,13,999,-14,-21,-8
2243,129,36,994,-13,-10,-5
2244,121,42,1007,-11,8,-3
2245,-4,55,1002,-13,23,1
2246,-102,38,1003,-15,17,-1
2247,-126,16,984,-16,0,-4
2248,-44,12,981,-16,-16,-6
2249,76,17,1009,-16,-20,-6
2250,139,34,996,-14,-8,-5
2251,98,43,1008,-12,11,0
2252,-24,50,995,-13,21,1
2253,-110,33,1006,-17,15,-2
2254,-117,14,971,-17,-2,-3
2255,-23,11,991,-15,-18,-7
2256,101,28,1006,-15,-20,-8
2257,138,37,1001,-12,-4,-5
2258,79,55,1008,-10,16,-1
2259,-40,46,1000,-14,23,-1
2260,-132,28,986,-16,13,0
2261,-94,15,984,-18,-7,-5
2262,-6,0,996,-16,-19,-7
2263,116,24,1006,-12,-16,-6
2264,144,30,1006,-12,1,-5
2265,56,59,988,-11,20,0
2266,-66,49,1015,-15,23,1
2267,-135,31,977,-17,9,-3
2268,-95,10,986,-18,-9,-3
2269,32,15,1001,-15,-22,-9
2270,123,16,1013,-14,-15,-6
2271,139,42,992,-8,3,-4
2272,32,54,1000,-11,22,2
2273,-85,43,1001,-13,21,0
2274,-142,25,994,-16,7,-2
2275,-74,12,987,-17,-13,-4
2276,51,15,997,-17,-22,-8
2277,138,26,1003,-15,-14,-5
2278,128,42,1007,-11,7,-3
2279,8,51,993,-12,22,1
2280,-107,40,1007,-15,20,0
2281,-125,14,986,-16,2,-2
2282,-59,11,981,-13,-15,-4
2283,74,23,999,-14,-22,-7
2284,146,38,1012,-11,-9,-6
2285,108,53,995,-12,13,-1
2286,-16,53,1003,-13,23,1
2287,-108,33,1007,-17,16,-2
2288,-124,-3,974,-16,-1,-4
2289,-39,9,986,-14,-17,-6
2290,96,14,1009,-13,-21,-8
2291,136,48,1005,-8,-5,-5
2292,94,52,1003,-10,13,0
2293,-37,58,1000,-13,23,2
2294,-123,26,988,-17,14,-1
2295,-108,13,982,-18,-4,-4
2296,-18,6,992,-16,-19,-7
2297,108,22,1010,-13,-19,-6
2298,141,35,997,-13,-2,-4
2299,68,42,1008,-9,18,1
2300,-48,57,998,-11,23,1
2301,-135,31,989,-16,11,-1
2302,-94,19,977,-17,-8,-5
2303,9,13,1008,-16,-20,-6
2304,119,21,1008,-15,-17,-7
2305,134,33,998,-12,2,-2
2306,50,50,994,-10,19,0
2307,-74,42,1010,-14,22,1
2308,-133,24,982,-16,9,-3
2309,-77,15,992,-14,-10,-6
2310,37,19,997,-16,-21,-7
2311,129,26,996,-14,-12,-5
2312,124,42,1007,-10,6,-3
2313,22,59,995,-12,20,1
2314,-91,44,1004,-14,20,0
2315,-124,25,984,-18,3,-3
2316,-59,11,993,-19,-14,-5
2317,60,11,996,-13,-21,-8
2318,126,34,1004,-14,-9,-5
2319,114,42,1003,-11,9,-3
2320,-7,50,1009,-11,23,3
2321,-100,37,996,-15,17,-2
2322,-120,16,985,-15,1,-4
2323,-39,14,981,-15,-17,-6
2324,80,33,1012,-15,-20,-7
2325,132,40,1002,-14,-7,-5
2326,93,47,1005,-13,12,-2
2327,-20,45,1002,-15,22,2
2328,-120,18,991,-15,15,-2
2329,-105,9,982,-15,-3,-5
2330,-24,8,989,-17,-18,-7
2331,98,32,1005,-13,-18,-7
2332,140,42,1005,-13,-4,-4
2333,69,61,1005,-11,16,1
2334,-43,46,998,-17,21,0
2335,-131,27,986,-17,11,-2
2336,-94,-2,983,-18,-9,-6
2337,8,9,994,-15,-20,-6
2338,119,21,1018,-10,-17,-7
2339,137,45,990,-11,1,-3
2340,47,55,1000,-11,19,0
2341,-67,52,1004,-13,22,0
2342,-141,33,987,-18,9,-1
2343,-74,10,985,-18,-12,-7
2344,29,8,999,-18,-21,-5
2345,128,20,1005,-15,-14,-5
2346,136,33,999,-9,5,-3
2347,19,55,993,-9,21,2
2348,-86,46,1012,-13,20,1
2349,-133,23,981,-17,7,-2
2350,-66,17,995,-16,-13,-6
2351,52,20,992,-16,-21,-6
2352,134,26,1007,-13,-11,-7
2353,123,45,1003,-13,6,-2
2354,-3,48,1001,-13,22,2
2355,-104,34,1003,-15,17,-1
2356,-121,22,984,-18,0,-2
2357,-41,5,980,-16,-16,-6
2358,73,24,1006,-12,-21,-8
2359,137,35,1012,-12,-8,-7
2360,105,45,999,-13,12,0
2361,-28,48,994,-13,24,2
2362,-108,32,1001,-14,14,-2
2363,-109,8,983,-17,-2,-3
2364,-31,13,977,-16,-16,-6
2365,101,23,1012,-9,-18,-8
2366,138,43,1010,-10,-2,-3
2367,77,47,992,-15,15,0
2368,-42,53,1007,-10,23,0
2369,-124,26,984,-19,12,0
2370,-102,12,979,-16,-6,-4
2371,-1,5,1001,-15,-19,-7
2372,103,21,1014,-13,-15,-6
2373,138,39,990,-9,0,-4
2374,60,53,1002,-10,18,-1
2375,-51,52,1011,-14,21,1
2376,-131,41,982,-15,12,-2
2377,-84,15,984,-20,-9,-5
2378,12,11,1003,-17,-20,-7
2379,118,10,1002,-15,-15,-5
2380,130,30,1002,-10,3,-2
2381,28,51,995,-10,18,2
2382,-73,41,1005,-14,20,0
2383,-131,35,995,-14,7,-2
2384,-65,22,985,-17,-12,-5
2385,47,21,1000,-16,-19,-7
2386,131,26,1003,-15,-11,-6
2387,116,41,1001,-14,7,-1
2388,2,44,1001,-15,20,3
2389,-92,33,1004,-13,17,0
2390,-127,13,981,-16,1,-3
2391,-43,13,984,-16,-16,-5
2392,66,28,1004,-13,-19,-6
2393,137,37,1001,-14,-7,-5
2394,99,53,1002,-11,11,0
2395,-16,53,998,-14,22,1
2396,-112,27,1004,-18,15,-2
2397,-117,14,968,-16,-3,-3
2398,-29,-2,994,-17,-17,-6
2399,95,27,1004,-12,-21,-7
2400,132,34,1005,-11,-4,-4
2401,84,54,1003,-10,14,-1
2402,-37,47,1006,-15,22,1
2403,-124,38,974,-16,14,-1
2404,-100,9,999,-18,-7,-5
2405,-4,8,992,-16,-21,-8
2406,104,20,1007,-12,-18,-6
2407,143,35,997,-13,-2,-4
2408,56,50,1008,-11,19,1
2409,-56,54,996,-10,21,1
2410,-132,26,988,-16,10,-2
2411,-89,21,983,-17,-8,-4
2412,18,12,1002,-18,-21,-7
2413,122,18,1008,-16,-16,-5
2414,137,36,998,-10,3,-3
2415,39,48,993,-13,20,0
2416,-77,43,1013,-13,22,1
2417,-133,26,979,-15,7,-3
2418,-74,11,995,-17,-11,-5
2419,49,23,996,-14,-20,-7
2420,129,25,1000,-16,-11,-5
2421,129,50,1000,-12,7,-2
2422,2,52,1004,-14,23,2
2423,-96,35,999,-16,18,-2
2424,-126,15,987,-16,2,-3
2425,-58,8,977,-16,-14,-4
2426,76,23,1014,-12,-21,-7
2427,137,32,992,-14,-8,-5
2428,101,52,1008,-11,11,0
2429,-5,57,1003,-15,21,1
2430,-118,27,1001,-18,17,-1
2431,-116,22,978,-17,-2,-4
2432,-31,2,990,-19,-16,-6
2433,87,22,1002,-13,-20,-6
2434,139,35,1005,-13,-5,-4
2435,85,48,1008,-10,13,-1
2436,-32,48,996,-16,22,1
2437,-124,34,991,-17,14,-1
2438,-103,23,984,-17,-6,-5
2439,-13,2,992,-18,-19,-6
2440,110,29,1006,-13,-19,-6
2441,141,25,1005,-12,-3,-4
2442,63,49,1001,-9,17,0
2443,-49,45,999,-11,22,1
2444,-131,35,985,-15,11,-2
2445,-96,22,983,-18,-8,-4
2446,15,12,1001,-16,-21,-8
2447,123,23,1011,-15,-15,-7
2448,134,38,989,-11,4,-4
2449,44,46,1001,-10,20,0
2450,-72,37,1004,-13,20,1
2451,-141,25,985,-14,9,-1
2452,-73,19,990,-14,-11,-6
2453,38,19,1002,-17,-21,-6
2454,135,29,995,-13,-13,-5
2455,130,42,1002,-10,6,-1
2456,15,55,1000,-13,20,2
2457,-93,37,1000,-15,18,0
2458,-132,11,986,-18,3,-4
2459,-62,8,993,-15,-14,-5
2460,67,15,996,-14,-21,-8
2461,135,36,1006,-11,-10,-6
2462,118,52,998,-12,9,0
2463,-3,57,1008,-14,23,1
2464,-110,33,1003,-16,17,-1
2465,-132,16,975,-17,0,-3
2466,-35,1,984,-17,-17,-7
2467,75,21,1009,-13,-21,-6
2468,145,45,1003,-13,-8,-6
2469,101,51,1001,-12,13,-1
2470,-31,56,1004,-15,22,2
2471,-118,25,988,-18,14,-1
2472,-116,13,987,-16,-3,-4
2473,-23,0,982,-17,-18,-6
2474,95,23,1007,-11,-19,-6
2475,148,40,1009,-10,-5,-5
2476,77,63,997,-10,16,1
2477,-43,43,1004,-16,22,1
2478,-130,34,989,-15,11,-1
2479,-102,9,978,-17,-8,-5
2480,4,10,999,-16,-21,-7
2481,106,25,1014,-15,-17,-5
2482,148,38,987,-11,0,-5
2483,52,48,1007,-12,19,1
2484,-65,48,1000,-13,20,2
2485,-134,22,991,-18,10,-3
2486,-87,13,983,-15,-9,-5
2487,32,12,1003,-16,-21,-6
2488,125,29,1000,-15,-13,-6
2489,131,41,1004,-10,4,-3
2490,32,55,994,-13,20,1
2491,-93,39,1002,-17,21,0
2492,-131,28,996,-15,4,-4
2493,-72,9,985,-19,-13,-5
2494,49,15,992,-14,-22,-7
2495,141,31,1009,-11,-12,-4
2496,111,42,998,-12,7,-2
2497,7,51,1002,-10,20,0
2498,-103,34,1009,-15,19,-1
2499,-130,20,977,-17,3,-4
2500,-39,7,984,-15,-16,-6
2501,68,27,1009,-14,-20,-6
2502,136,41,1002,-13,-9,-5
2503,105,46,1003,-13,10,-1
2504,-28,50,999,-15,23,1
2505,-108,33,999,-13,16,-2
2506,-111,14,974,-17,-1,-5
2507,-31,5,994,-17,-18,-4
2508,100,27,1002,-13,-20,-8
2509,134,37,1007,-13,-2,-5
2510,81,55,1007,-11,13,1
2511,-36,48,996,-13,23,1
2512,-126,34,989,-16,13,-2
2513,-102,18,987,-17,-6,-3
2514,-1,9,992,-16,-19,-8
2515,110,18,1015,-16,-19,-5
2516,141,35,993,-10,-2,-4
2517,60,45,1001,-12,18,1
2518,-59,51,1004,-11,21,2
2519,-133,29,984,-15,11,-2
2520,-91,15,976,-18,-10,-5
2521,25,18,1010,-17,-22,-7
2522,126,22,1004,-15,-16,-6
2523,125,39,997,-13,3,-2
2524,40,49,1000,-13,18,0
2525,-79,36,1003,-16,20,1
2526,-142,28,987,-15,6,-1
2527,-68,15,992,-16,-14,-6
2528,48,16,997,-15,-21,-6
2529,131,28,997,-13,-12,-6
2530,121,45,1008,-12,7,-3
2531,4,60,1003,-14,21,2
2532,-95,35,998,-17,19,0
2533,-129,16,992,-18,3,-4
2534,-45,8,979,-16,-16,-6
2535,73,16,998,-15,-19,-6
2536,134,36,1009,-12,-8,-5
2537,104,52,1004,-11,11,0
2538,-20,51,994,-13,22,2
2539,-114,34,1007,-15,16,-1
2540,-116,9,970,-17,-2,-4
2541,-30,8,992,-15,-18,-9
2542,96,26,1001,-16,-21,-6
2543,137,33,1010,-12,-4,-4
2544,93,41,1007,-11,14,-1
2545,-43,46,993,-12,24,2
2546,-119,37,991,-16,14,-2
2547,-105,12,984,-16,-5,-3
2548,-9,20,991,-16,-19,-6
2549,109,22,1013,-14,-17,-6
2550,143,45,999,-12,-1,-4
2551,63,41,1001,-12,19,1
2552,-61,47,1002,-15,23,2
2553,-135,25,987,-17,10,-3
2554,-92,17,977,-16,-9,-5
2555,17,12,1008,-17,-22,-7
2556,118,31,1005,-13,-16,-6
2557,142,39,998,-13,2,-4
2558,32,57,994,-13,20,2
2559,-76,45,1005,-16,19,0
2560,-135,22,985,-18,6,-3
2561,-76,15,991,-18,-13,-5
2562,53,10,996,-17,-22,-7
2563,130,19,999,-14,-11,-6
2564,123,43,1002,-9,7,0
2565,13,56,1002,-11,23,1
2566,-99,43,1000,-15,20,0
2567,-126,23,988,-17,3,-2
2568,-53,12,987,-19,-14,-6
2569,70,12,998,-16,-20,-6
2570,138,29,1007,-13,-9,-5
2571,108,43,996,-12,10,-1
2572,-13,54,1010,-10,23,2
2573,-117,37,994,-18,16,-1
2574,-119,16,983,-19,-1,-5
2575,-32,7,986,-18,-19,-7
2576,86,23,1003,-14,-20,-7
2577,148,32,1012,-13,-6,-6
2578,89,53,999,-13,15,0
2579,-31,55,1001,-14,22,-1
2580,-124,28,988,-15,14,-3
2581,-114,19,986,-16,-4,-4
2582,-5,7,991,-16,-19,-8
2583,103,22,1010,-12,-18,-6
2584,146,37,1000,-12,-4,-5
2585,68,53,1000,-12,19,0
2586,-56,45,998,-14,23,0
2587,-134,28,992,-16,12,-2
2588,-101,11,973,-16,-7,-5
2589,15,10,1007,-15,-20,-7
2590,120,30,1010,-14,-16,-5
2591,147,45,995,-12,1,-4
2592,47,51,1000,-13,19,2
2593,-79,47,1006,-16,22,1
2594,-139,22,989,-18,8,-3
2595,-94,9,985,-17,-11,-4
2596,40,15,997,-15,-23,-7
2597,137,20,1007,-14,-15,-5
2598,136,53,998,-11,6,-1
2599,22,48,1002,-14,21,2
2600,-91,44,1003,-14,20,-1
2601,-143,15,986,-20,5,-1
2602,-65,8,986,-15,-14,-5
2603,59,17,997,-14,-23,-5
2604,144,36,1002,-11,-10,-6
2605,121,44,1004,-12,8,-1
2606,-9,60,997,-12,23,2
2607,-103,34,1012,-17,19,-2
2608,-130,15,971,-16,1,-2
2609,-44,0,984,-18,-17,-6
2610,88,15,1013,-13,-21,-8
2611,134,40,1003,-11,-7,-5
2612,107,54,1001,-9,12,-2
2613,-30,52,1008,-14,22,2
2614,-122,39,985,-16,14,1
2615,-113,9,989,-18,-3,-5
2616,-23,1,986,-17,-19,-6
2617,104,22,1009,-15,-20,-6
2618,145,34,997,-11,-3,-5
2619,72,54,1016,-13,17,2
2620,-42,53,992,-14,20,1
2621,-136,30,988,-16,13,-1
2622,-97,14,980,-18,-8,-6
2623,2,13,1004,-15,-19,-8
2624,124,24,1004,-14,-16,-8
2625,140,36,1004,-13,2,-2
2626,51,47,988,-11,19,1
2627,-72,44,1016,-13,23,1
2628,-140,29,979,-16,9,-2
2629,-82,13,988,-16,-10,-5
2630,37,10,1001,-16,-21,-7
2631,129,34,1003,-12,-12,-5
2632,132,40,993,-13,5,-4
2633,20,55,1011,-12,21,1
2634,-92,41,988,-18,19,1
2635,-138,17,1002,-17,4,-2
2636,-68,5,978,-16,-16,-5
2637,60,18,1000,-14,-22,-6
2638,154,22,1001,-14,-12,-7
2639,115,49,1008,-11,10,-1
2640,6,56,996,-14,22,0
2641,-121,35,1009,-15,20,0
2642,-132,18,975,-16,1,-4
2643,-42,3,985,-18,-17,-6
2644,78,21,1004,-15,-21,-6
2645,149,37,1011,-12,-8,-5
2646,107,49,994,-12,12,-1
2647,-30,51,1008,-14,25,3
2648,-113,34,992,-17,16,-2
2649,-122,11,982,-15,-2,-3
2650,-31,9,985,-16,-19,-7
2651,108,22,1013,-13,-20,-7
2652,148,39,998,-12,-4,-6
2653,87,52,1015,-13,17,0
2654,-44,51,996,-15,25,0
2655,-136,31,983,-17,15,-2
2656,-108,6,988,-18,-7,-5
2657,-7,9,994,-15,-21,-8
2658,121,23,1012,-11,-18,-8
2659,148,45,1000,-10,0,-5
2660,57,58,991,-12,19,2
2661,-67,53,1009,-14,22,0
2662,-141,21,986,-19,8,-2
2663,-86,13,983,-19,-9,-5
2664,25,1,1004,-18,-22,-7
2665,132,20,1006,-10,-16,-6
2666,137,34,992,-9,3,-3
2667,25,62,1002,-9,21,1
2668,-78,52,1005,-14,20,0
2669,-135,28,988,-16,6,-3
2670,-66,12,987,-19,-13,-6
2671,55,8,998,-16,-20,-8
2672,130,26,1004,-13,-11,-6
2673,119,36,1000,-13,7,-3
2674,-3,47,1004,-13,23,2
2675,-94,46,1010,-13,18,-1
2676,-118,9,975,-15,2,-2
2677,-47,22,984,-16,-14,-6
2678,82,22,1006,-14,-20,-7
2679,123,35,1000,-15,-6,-6
2680,98,47,1006,-12,11,-1
2681,-17,44,1000,-14,21,1
2682,-115,29,998,-17,16,-1
2683,-112,9,975,-15,-3,-3
2684,-28,8,998,-13,-19,-8
2685,98,21,1000,-14,-20,-6
2686,137,51,1002,-10,-4,-3
2687,83,51,1009,-13,14,-2
2688,-43,56,1000,-14,24,1
2689,-126,25,984,-17,12,-2
2690,-102,7,987,-17,-6,-3
2691,-4,4,996,-15,-19,-7
2692,114,23,1006,-13,-17,-8
2693,145,38,1004,-12,0,-5
2694,60,59,993,-12,19,1
2695,-58,49,1011,-15,23,0
2696,-146,31,983,-17,11,-1
2697,-91,9,986,-18,-11,-5
2698,26,6,1001,-17,-22,-7
2699,128,27,1002,-13,-16,-6
2700,141,40,1002,-12,3,-4
2701,33,58,998,-13,21,2
2702,-87,44,1001,-16,21,1
2703,-143,25,990,-18,5,-5
2704,-75,5,993,-23,-15,-5
2705,53,19,992,-19,-23,-7
2706,140,20,1003,-10,-11,-7
2707,125,52,1007,-15,7,-2
2708,6,50,998,-15,21,1
2709,-102,42,1003,-14,18,-1
2710,-130,18,989,-22,2,-3
2711,-50,9,975,-13,-15,-6
2712,80,17,1007,-16,-21,-7
2713,142,26,1002,-14,-9,-6
2714,103,55,1001,-10,12,-1
2715,-13,41,1004,-16,23,0
2716,-121,41,998,-14,16,1
2717,-116,13,977,-18,-3,-5
2718,-31,14,990,-15,-17,-6
2719,95,26,1004,-16,-19,-6
2720,145,32,999,-14,-5,-5
2721,85,47,1008,-13,16,0
2722,-31,39,1003,-13,23,2
2723,-132,26,981,-14,15,-1
2724,-100,13,989,-16,-6,-6
2725,-5,9,994,-15,-20,-8
2726,103,30,1011,-13,-17,-7
2727,147,40,997,-13,-2,-6
2728,54,54,997,-10,19,1
2729,-58,42,1006,-15,21,0
2730,-138,27,985,-16,10,-3
2731,-91,15,984,-17,-10,-5
2732,22,14,1005,-16,-22,-8
2733,130,29,1001,-15,-15,-7
2734,135,44,1001,-12,5,-2
2735,33,56,997,-13,22,0
2736,-80,34,1005,-15,20,0
2737,-146,23,986,-16,7,-1
2738,-70,10,995,-15,-13,-6
2739,54,16,997,-12,-22,-7
2740,137,31,1001,-14,-12,-4
2741,130,51,1005,-11,6,-1
2742,1,52,998,-14,23,2
2743,-107,39,1006,-16,20,2
2744,-127,18,983,-18,1,-4
2745,-52,5,980,-17,-16,-5
2746,76,25,1006,-16,-22,-6
2747,146,24,1003,-14,-8,-5
2748,104,49,1000,-11,13,-1
2749,-11,51,1004,-12,23,1
2750,-123,39,998,-15,17,-1
2751,-124,20,977,-17,-2,-2
2752,-33,13,990,-17,-18,-8
2753,95,22,1002,-16,-21,-7
2754,146,36,1007,-15,-4,-5
2755,93,43,1010,-13,14,-2
2756,-35,44,999,-12,24,2
2757,-132,30,983,-15,15,-1
2758,-108,16,987,-15,-6,-5
2759,-16,16,997,-16,-20,-8
2760,119,29,1005,-13,-19,-8
2761,146,42,1003,-14,-1,-3
2762,69,56,998,-14,18,1
2763,-63,40,1009,-15,24,2
2764,-144,21,985,-16,10,0
2765,-96,10,984,-18,-10,-5
2766,19,5,1000,-15,-22,-7
2767,123,33,1009,-12,-15,-6
2768,145,48,996,-13,3,-4
2769,34,59,1002,-12,22,3
2770,-78,44,1001,-16,20,1
2771,-151,21,991,-17,7,-2
2772,-79,5,989,-18,-13,-6
2773,55,12,998,-14,-23,-8
2774,146,20,1001,-13,-14,-7
2775,120,51,1007,-8,9,-2
2776,14,58,999,-14,23,1
2777,-111,47,1010,-14,21,0
2778,-144,23,978,-19,1,-2
2779,-50,4,986,-17,-17,-8
2780,78,15,1002,-15,-23,-7
2781,147,31,1001,-14,-9,-5
2782,123,43,1004,-11,11,-4
2783,-17,39,1005,-12,25,2
2784,-124,42,997,-13,18,0
2785,-128,19,978,-17,0,-5
2786,-38,16,994,-18,-19,-7
2787,99,21,1000,-16,-23,-7
2788,150,34,1008,-12,-6,-6
2789,94,47,1006,-14,14,1
2790,-38,45,996,-13,24,2
2791,-130,29,992,-16,15,-1
2792,-115,14,978,-17,-5,-3
2793,-9,9,997,-14,-20,-8
2794,114,25,1007,-14,-18,-7
2795,144,41,1001,-12,-2,-3
2796,70,59,996,-12,17,0
2797,-60,46,1009,-14,23,2
2798,-144,27,979,-18,12,-2
2799,-96,9,983,-17,-9,-5
2800,17,10,1003,-18,-21,-8
2801,129,20,1006,-15,-16,-8
2802,154,37,1000,-8,2,-5
2803,26,59,992,-11,22,4
2804,-76,48,1009,-14,21,0
2805,-143,20,993,-16,7,-2
2806,-83,18,983,-18,-12,-5
2807,60,9,999,-17,-23,-9
2808,141,28,1004,-13,-13,-6
2809,128,46,998,-13,8,-1
2810,0,52,997,-12,23,1
2811,-103,38,1015,-15,19,1
2812,-134,23,979,-14,1,-3
2813,-46,6,984,-16,-16,-6
2814,81,18,1007,-16,-21,-7
2815,137,31,1002,-13,-8,-6
2816,113,50,999,-11,12,-2
2817,-25,51,1011,-14,24,2
2818,-123,37,993,-16,17,1
2819,-124,14,981,-18,-1,-4
2820,-24,8,988,-16,-18,-7
2821,94,16,1010,-15,-21,-7
2822,145,32,1000,-13,-6,-5
2823,90,48,1009,-10,14,1
2824,-42,52,995,-12,23,2
2825,-132,40,988,-15,12,-1
2826,-111,15,987,-18,-6,-4
2827,-2,9,989,-17,-22,-6
2828,113,23,1010,-14,-19,-5
2829,150,36,1001,-11,-2,-5
2830,60,50,993,-12,19,1
2831,-61,42,1006,-12,22,-1
2832,-146,26,985,-16,9,-1
2833,-93,19,980,-16,-11,-5
2834,23,14,1007,-16,-21,-8
2835,132,26,1007,-14,-16,-6
2836,146,34,991,-14,4,-3
2837,38,54,1002,-12,23,0
2838,-86,38,1001,-15,22,1
2839,-147,27,986,-15,7,-3
2840,-74,10,989,-16,-13,-7
2841,53,18,1001,-15,-23,-9
2842,140,34,999,-13,-12,-5
2843,129,44,1000,-12,8,-2
2844,3,51,1005,-12,23,2
2845,-112,38,1005,-15,19,1
2846,-134,12,980,-17,1,-3
2847,-49,1,991,-14,-17,-7
2848,79,22,999,-13,-21,-8
2849,148,38,1009,-12,-8,-6
2850,111,53,995,-11,13,0
2851,-28,49,1003,-12,25,2
2852,-118,39,1002,-16,17,-2
2853,-126,5,972,-16,-1,-3
2854,-27,13,994,-16,-19,-8
2855,100,13,1007,-14,-20,-8
2856,146,40,998,-10,-4,-5
2857,93,48,1010,-11,16,0
2858,-43,58,1000,-11,25,2
2859,-138,35,985,-17,15,1
2860,-112,15,982,-17,-5,-4
2861,-21,7,996,-19,-21,-5
2862,119,25,1008,-14,-21,-8
2863,166,32,1002,-13,-2,-6
2864,69,52,1000,-13,20,4
2865,-51,42,1003,-12,24,-1
2866,-149,28,985,-14,13,-2
2867,-112,23,977,-18,-9,-3
2868,16,12,1001,-15,-23,-8
2869,123,30,1015,-14,-19,-6
2870,151,38,992,-13,0,-2
2871,45,48,1001,-11,20,1
2872,-82,45,1005,-16,21,3
2873,-144,18,984,-15,7,-3
2874,-79,11,996,-15,-13,-7
2875,44,16,994,-16,-23,-7
2876,140,31,1004,-13,-13,-6
2877,132,39,1001,-12,6,-2
2878,8,56,999,-10,22,3
2879,-99,38,1007,-13,19,0
2880,-135,25,985,-16,3,-4
2881,-53,9,987,-17,-16,-7
2882,68,15,996,-15,-21,-6
2883,143,29,1009,-14,-10,-7
2884,112,48,999,-10,11,-1
2885,-25,50,999,-14,25,2
2886,-115,40,1005,-15,18,-2
2887,-118,13,981,-17,-2,-3
2888,-34,7,984,-16,-17,-6
2889,98,20,1009,-14,-22,-8
2890,143,29,1002,-13,-6,-4
2891,85,48,1001,-11,17,0
2892,-35,50,998,-13,23,1
2893,-128,37,995,-16,14,-1
2894,-107,16,977,-18,-6,-5
2895,-9,8,996,-19,-21,-7
2896,117,25,1012,-14,-19,-7
2897,142,28,997,-13,-1,-3
2898,61,54,1000,-12,18,0
2899,-59,45,1004,-14,23,2
2900,-140,29,985,-14,9,-2
2901,-95,13,981,-17,-12,-5
2902,19,17,1005,-17,-21,-8
2903,128,22,1011,-16,-16,-6
2904,139,35,991,-11,3,-3
2905,38,55,1004,-12,21,1
2906,-81,39,1000,-15,21,2
2907,-140,25,986,-15,7,-1
2908,-74,10,998,-18,-13,-5
2909,48,20,996,-14,-21,-7
2910,144,26,999,-14,-12,-6
2911,121,48,1006,-10,7,-1
2912,9,52,998,-14,22,1
2913,-102,38,1002,-16,22,1
2914,-143,16,991,-18,4,-2
2915,-47,5,980,-17,-16,-8
2916,76,11,1001,-14,-22,-6
2917,141,40,1005,-11,-8,-5
2918,111,52,1001,-10,11,-2
2919,-14,54,1002,-13,23,1
2920,-124,34,1000,-17,17,0
2921,-126,6,979,-18,-3,-4
2922,-30,4,989,-17,-20,-7
2923,93,18,1003,-15,-22,-5
2924,153,42,1008,-9,-7,-6
2925,99,51,1006,-11,14,0
2926,-42,55,999,-14,23,2
2927,-133,30,989,-17,15,-1
2928,-121,9,980,-17,-4,-4
2929,-11,12,995,-16,-21,-7
2930,115,20,1007,-15,-20,-6
2931,153,39,1000,-10,-3,-5
2932,75,49,1001,-13,18,1
2933,-60,51,1003,-11,23,1
2934,-144,25,985,-17,10,-1
2935,-97,18,979,-17,-9,-6
2936,13,8,1005,-18,-21,-7
2937,131,26,1006,-14,-17,-7
2938,152,35,994,-11,3,-3
2939,44,54,997,-11,22,3
2940,-81,50,1008,-14,22,1
2941,-144,18,987,-17,8,-3
2942,-87,13,989,-15,-13,-3
2943,45,15,993,-16,-23,-8
2944,147,27,1009,-11,-13,-7
2945,131,42,992,-11,6,-2
2946,16,62,1004,-12,21,0
2947,-101,34,1010,-14,20,0
2948,-140,21,982,-19,3,-1
2949,-60,4,981,-19,-14,-7
2950,66,17,1005,-13,-23,-8
2951,155,27,1005,-11,-11,-7
2952,110,51,994,-8,12,-1
2953,-14,63,1007,-11,24,2
2954,-117,38,1004,-15,18,-1
2955,-135,16,974,-19,-1,-4
2956,-28,0,987,-18,-20,-7
2957,90,14,1015,-16,-20,-7
2958,142,30,993,-11,-5,-3
2959,96,52,1014,-10,14,-2
2960,-37,50,995,-14,23,3
2961,-133,38,990,-15,16,0
2962,-110,19,982,-19,-6,-6
2963,-15,13,997,-16,-19,-7
2964,117,25,1003,-15,-20,-8
2965,147,30,1005,-13,-1,-4
2966,69,46,1000,-11,17,1
2967,-53,38,1002,-14,23,0
2968,-145,34,985,-14,12,-2
2969,-100,21,983,-17,-10,-5
2970,16,18,1004,-16,-21,-9
2971,122,22,1007,-14,-18,-7
2972,153,40,997,-11,1,-5
2973,46,40,1000,-14,21,0
2974,-75,48,999,-12,23,1
2975,-148,19,994,-16,9,-2
2976,-82,17,987,-15,-12,-7
2977,39,13,997,-15,-22,-7
2978,141,32,1002,-13,-12,-8
2979,137,39,1003,-14,5,-3
2980,18,57,1000,-12,23,1
2981,-95,40,1004,-17,21,1
2982,-139,16,990,-16,4,-2
2983,-66,11,980,-16,-15,-5
2984,68,13,1002,-14,-21,-8
2985,148,32,1006,-11,-11,-7
2986,110,54,1000,-12,11,0
2987,-2,55,999,-13,22,0
2988,-120,33,1010,-16,19,2
2989,-127,25,973,-16,-2,-3
2990,-37,-2,985,-19,-17,-8
2991,89,24,1010,-14,-20,-7
2992,147,30,997,-15,-6,-5
2993,93,50,1006,-10,16,-1
2994,-35,45,1005,-14,23,4
2995,-130,35,985,-16,15,-2
2996,-110,21,984,-17,-5,-5
2997,-9,11,995,-17,-21,-7
2998,106,23,1008,-13,-20,-7
2999,147,29,996,-14,-3,-6
3000,71,50,1005,-10,18,1
3001,-60,44,999,-13,24,2
3002,-136,29,985,-16,11,-1
3003,-99,13,986,-17,-9,-5
3004,13,26,1001,-15,-22,-7
3005,126,20,1008,-16,-18,-7
3006,143,42,995,-10,3,-3
3007,46,47,999,-13,20,2
3008,-77,41,1005,-12,21,0
3009,-147,22,987,-16,7,0
3010,-82,14,985,-17,-13,-6
3011,45,14,1003,-15,-24,-8
3012,138,28,996,-13,-13,-5
3013,139,47,998,-11,7,-2
3014,15,59,1005,-11,23,1
3015,-100,45,1008,-13,20,-1
3016,-140,15,980,-17,4,-4
3017,-68,8,983,-17,-15,-7
3018,71,13,1007,-15,-25,-8
3019,152,33,999,-12,-11,-7
3020,118,48,995,-10,11,-1
3021,-3,54,1009,-12,23,2
3022,-119,29,1003,-14,17,-1
3023,-134,24,971,-16,0,-5
3024,-39,8,989,-17,-19,-7
3025,91,22,1013,-15,-22,-6
3026,152,35,998,-15,-8,-5
3027,98,52,1008,-11,14,-2
3028,-29,42,1002,-14,24,0
3029,-135,27,986,-16,16,0
3030,-126,11,979,-15,-5,-4
3031,-23,13,997,-15,-21,-8
3032,116,28,1003,-14,-22,-8
3033,153,40,1006,-12,-4,-4
3034,76,55,999,-11,18,0
3035,-43,39,1012,-14,25,1
3036,-151,25,974,-16,14,0
3037,-102,15,988,-18,-8,-5
3038,16,8,1002,-16,-21,-7
3039,117,29,1006,-4,-13,-4
3040,152,42,996,-8,4,-3
3041,42,55,1004,-12,20,1
3042,-77,38,996,-18,21,1
3043,-150,23,992,-15,8,-2
3044,-72,11,996,-18,-13,-7
3045,35,11,987,-15,-22,-5
3046,145,27,1010,-12,-15,-8
3047,134,45,999,-11,7,-3
3048,6,63,999,-11,22,2
3049,-86,43,1009,-17,19,-1
3050,-155,20,986,-18,5,-1
3051,-51,9,986,-17,-16,-7
3052,69,9,1003,-15,-21,-7
3053,139,32,997,-12,-10,-5
3054,127,48,1007,-12,10,-1
3055,-16,53,1001,-13,24,3
3056,-110,40,1006,-14,17,1
3057,-131,8,976,-19,0,-2
3058,-47,12,991,-15,-17,-5
3059,97,16,998,-16,-23,-7
3060,150,43,1013,-11,-6,-4
3061,98,52,998,-13,16,2
3062,-29,49,1006,-14,24,0
3063,-126,26,986,-17,16,0
3064,-130,13,981,-16,-3,-1
3065,-5,5,991,-16,-21,-9
3066,99,24,1012,-12,-18,-5
3067,152,46,997,-12,-4,-4
3068,78,49,1006,-12,17,1
3069,-62,47,998,-13,25,2
3070,-134,26,989,-17,12,-2
3071,-104,14,980,-17,-7,-5
3072,6,6,997,-16,-20,-6
3073,133,24,1015,-12,-17,-7
3074,141,36,997,-12,3,-1
3075,47,64,990,-9,19,3
3076,-72,42,1012,-15,23,1
3077,-149,30,988,-15,9,-2
3078,-80,7,979,-17,-12,-5
3079,41,12,1006,-16,-22,-8
3080,140,23,1000,-12,-15,-5
3081,133,45,1000,-10,6,-2
3082,28,54,1002,-12,22,1
3083,-97,38,1011,-15,22,1
3084,-146,24,977,-17,4,-3
3085,-68,11,992,-18,-15,-6
3086,69,17,993,-15,-24,-7
3087,139,30,1007,-15,-11,-6
3088,136,44,998,-11,9,-4
3089,-7,45,1009,-10,25,2
3090,-113,46,998,-13,18,-1
3091,-132,17,986,-16,2,-4
3092,-53,9,975,-17,-16,-7
3093,93,23,1014,-14,-23,-8
3094,144,34,996,-13,-7,-5
3095,102,54,1010,-11,14,1
3096,-24,42,999,-15,22,1
3097,-132,29,993,-16,16,1
3098,-118,12,980,-16,-4,-4
3099,-15,12,995,-16,-17,-9
3100,100,22,1005,-12,-18,-6
3101,152,43,1000,-10,-3,-5
3102,72,52,1004,-13,18,0
3103,-52,49,1002,-15,22,2
3104,-137,27,986,-16,12,0
3105,-97,12,983,-17,-8,-5
3106,8,8,1002,-13,-20,-6
3107,127,22,1007,-14,-16,-7
3108,136,38,1003,-12,3,-3
3109,46,61,985,-12,20,2
3110,-82,40,1017,-16,23,1
3111,-141,25,982,-16,7,-1
3112,-82,9,992,-17,-13,-5
3113,48,16,994,-14,-23,-9
3114,137,27,1012,-12,-13,-5
3115,131,49,988,-12,6,-3
3116,11,47,1010,-12,23,2
3117,-97,48,1002,-14,19,0
3118,-139,18,988,-17,3,-3
3119,-59,16,981,-16,-16,-7
3120,68,17,1005,-16,-21,-7
3121,146,38,1003,-15,-11,-6
3122,110,41,996,-15,11,0
3123,-7,47,1001,-13,24,1
3124,-117,30,1011,-16,18,0
3125,-124,20,969,-15,-2,-5
3126,-35,5,992,-17,-18,-6
3127,93,32,1005,-16,-22,-6
3128,138,32,1004,-13,-6,-5
3129,96,58,1002,-12,13,0
3130,-36,38,1000,-19,21,3
3131,-121,32,986,-16,14,-2
3132,-104,1,987,-19,-5,-3
3133,-9,5,991,-14,-19,-8
3134,107,26,1007,-14,-17,-6
3135,142,42,1003,-10,-1,-5
3136,64,58,1000,-9,18,2
3137,-61,48,1004,-12,22,2
3138,-130,37,988,-17,10,-1
3139,-97,9,982,-18,-9,-4
3140,23,10,1005,-15,-22,-7
3141,128,11,1011,-14,-16,-6
3142,139,40,993,-7,3,-3
3143,35,47,994,-12,20,2
3144,-80,47,1010,-11,21,1
3145,-134,28,982,-17,6,-1
3146,-76,24,996,-16,-12,-5
3147,52,21,1002,-17,-22,-8
3148,137,20,996,-14,-11,-5
3149,130,38,1001,-13,7,-3
3150,5,40,1006,-12,23,1
3151,-101,40,1001,-11,20,-2
3152,-137,17,990,-16,3,-3
3153,-53,19,985,-16,-15,-6
3154,71,23,1002,-15,-21,-7
3155,138,30,1001,-14,-9,-5
3156,109,50,1000,-12,11,0
3157,-15,46,1003,-15,23,1
3158,-113,40,1003,-14,16,0
3159,-124,4,977,-18,-2,-3
3160,-35,8,987,-14,-18,-7
3161,97,15,1007,-13,-23,-7
3162,140,43,1002,-11,-5,-5
3163,95,53,1006,-9,13,-1
3164,-36,50,998,-13,22,2
3165,-128,30,989,-16,14,-1
3166,-108,11,986,-17,-6,-4
3167,-11,4,986,-17,-19,-8
3168,109,26,1013,-15,-19,-6
3169,149,33,1000,-11,-2,-5
3170,61,53,998,-11,19,0
3171,-47,40,1008,-13,21,1
3172,-143,28,981,-16,12,1
3173,-98,21,978,-17,-10,-5
3174,25,14,1012,-15,-22,-8
3175,123,25,1003,-14,-14,-5
3176,145,41,998,-11,5,-3
3177,40,50,996,-10,21,2
3178,-85,40,1007,-14,22,3
3179,-140,26,982,-15,6,-3
3180,-78,11,997,-17,-12,-7
3181,46,21,996,-15,-23,-7
3182,141,23,998,-12,-12,-6
3183,127,49,1008,-11,6,-2
3184,9,55,998,-12,22,3
3185,-101,38,998,-15,19,-1
3186,-138,17,994,-18,3,-2
3187,-58,3,979,-16,-15,-6
3188,76,16,1006,-13,-21,-7
3189,150,27,1000,-12,-10,-5
3190,108,52,1001,-12,12,-1
3191,-13,54,1002,-13,23,1
3192,-118,45,1007,-15,17,0
3193,-127,8,974,-18,-1,-4
3194,-28,6,990,-15,-18,-7
3195,87,21,1009,-14,-22,-7
3196,149,40,998,-12,-5,-6
3197,91,46,1007,-13,15,0
3198,-38,52,1000,-16,22,0
3199,-126,28,992,-15,14,-2
3200,-117,20,975,-18,-5,-3
3201,-18,2,997,-16,-20,-7
3202,120,24,1006,-12,-20,-8
3203,144,34,1001,-11,-2,-3
3204,74,58,1000,-8,17,1
3205,-51,42,1009,-15,23,1
3206,-145,38,972,-16,14,-1
3207,-99,16,989,-18,-8,-5
3208,11,18,1003,-17,-21,-8
3209,124,19,1008,-17,-17,-6
3210,148,30,994,-13,2,-4
3211,43,42,1000,-12,20,2
3212,-78,46,1005,-12,22,0
3213,-140,21,982,-14,6,-3
3214,-87,23,997,-15,-12,-5
3215,45,17,995,-17,-23,-8
3216,135,23,1003,-12,-14,-5
3217,132,40,1000,-12,6,-1
3218,12,47,1001,-13,22,1
3219,-92,44,1002,-14,20,0
3220,-141,21,983,-18,3,-1
3221,-54,12,990,-16,-16,-8
3222,67,13,1001,-16,-22,-7
3223,140,31,996,-13,-10,-6
3224,120,49,1008,-11,10,-3
3225,-15,45,1000,-13,23,1
3226,-115,40,1004,-15,17,0
3227,-123,17,979,-17,-1,-6
3228,-32,8,990,-17,-19,-6
3229,92,24,1001,-14,-21,-7
3230,145,39,1006,-12,-4,-5
3231,87,48,1006,-11,15,-1
3232,-42,49,994,-13,25,2
3233,-126,29,992,-16,15,-1
3234,-118,11,982,-16,-5,-4
3235,-8,14,995,-14,-21,-9
3236,110,22,998,-14,-19,-6
3237,150,46,1010,-10,-2,-4
3238,78,56,998,-14,16,1
3239,-59,33,999,-15,24,2
3240,-146,29,985,-16,12,-1
3241,-105,10,982,-18,-9,-4
3242,9,12,998,-17,-22,-6
3243,125,31,1011,-14,-19,-6
3244,162,36,999,-12,1,-4
3245,41,50,993,-11,21,4
3246,-73,52,1006,-16,22,1
3247,-148,20,989,-19,8,-2
3248,-91,16,984,-17,-12,-5
3249,40,3,998,-19,-23,-7
3250,141,25,1005,-11,-15,-6
3251,134,38,996,-10,5,-1
3252,19,61,999,-10,20,1
3253,-94,44,1010,-14,20,1
3254,-141,28,983,-15,4,-4
3255,-62,3,990,-19,-15,-6
3256,66,15,1000,-16,-23,-7
3257,142,22,1000,-12,-11,-7
3258,118,45,1004,-11,8,-1
3259,-7,58,995,-12,22,3
3260,-117,36,1010,-14,17,0
3261,-126,25,976,-17,0,-3
3262,-41,6,986,-17,-17,-7
3263,92,16,1003,-14,-21,-9
3264,143,29,1010,-15,-6,-4
3265,97,53,996,-8,13,-1
3266,-30,45,1003,-13,23,2
3267,-128,37,996,-12,13,-1
3268,-123,19,970,-16,-4,-3
3269,-13,7,1003,-17,-19,-8
3270,106,23,997,-15,-19,-7
3271,155,42,1000,-11,-3,-4
3272,84,41,1014,-14,17,1
3273,-56,45,996,-12,26,2
3274,-138,24,983,-17,14,0
3275,-110,20,985,-16,-8,-5
3276,1,19,996,-17,-21,-6
3277,126,36,1013,-14,-20,-7
3278,150,38,999,-14,-1,-3
3279,63,54,993,-13,21,2
3280,-69,29,1011,-16,24,1
3281,-150,21,983,-16,10,-1
3282,-94,7,985,-15,-10,-5
3283,33,15,1001,-15,-22,-7
3284,136,32,1002,-12,-15,-6
3285,135,52,1001,-11,5,-3
3286,26,54,1007,-15,21,3
3287,-94,41,991,-16,21,2
3288,-133,14,999,-19,4,-3
3289,-69,3,979,-17,-14,-5
3290,56,14,1000,-13,-22,-7
3291,146,27,1002,-11,-11,-6
3292,111,50,1005,-10,11,1
3293,1,55,1000,-12,22,2
3294,-115,40,1009,-14,19,1
3295,-131,24,981,-18,0,-3
3296,-39,13,981,-18,-18,-7
3297,85,10,1011,-18,-23,-7
3298,147,35,995,-12,-7,-4
3299,98,41,1011,-11,14,-1
3300,-24,48,998,-14,24,1
3301,-127,37,988,-15,16,1
3302,-114,24,986,-15,-3,-4
3303,-24,9,993,-16,-19,-7
3304,107,32,1001,-14,-21,-7
3305,147,32,1011,-15,-3,-4
3306,76,45,994,-12,17,0
3307,-45,38,1008,-13,22,1
3308,-142,31,985,-14,13,-1
3309,-106,14,976,-15,-8,-4
3310,13,15,1006,-14,-22,-9
3311,122,30,1010,-14,-18,-5
3312,145,42,992,-11,2,-4
3313,56,50,1004,-14,20,0
3314,-82,38,999,-14,23,2
3315,-130,26,986,-16,8,-5
3316,-90,8,993,-16,-10,-4
3317,38,23,997,-15,-23,-7
3318,143,16,1003,-15,-14,-7
3319,127,43,998,-10,7,-2
3320,18,59,1000,-11,21,1
3321,-95,41,1001,-16,20,-1
3322,-146,22,989,-16,4,-2
3323,-59,15,989,-17,-16,-6
3324,69,8,1000,-16,-22,-8
3325,142,33,1001,-12,-9,-4
3326,125,33,998,-12,9,-2
3327,-14,53,1007,-10,25,0
3328,-110,37,1001,-15,18,-1
3329,-136,21,977,-15,1,-3
3330,-37,13,985,-16,-19,-6
3331,83,22,1010,-13,-22,-6
3332,147,32,1004,-13,-8,-6
3333,99,51,1000,-11,13,0
3334,-27,42,1009,-14,23,1
3335,-122,32,993,-14,15,0
3336,-118,18,976,-17,-3,-3
3337,-23,9,998,-16,-19,-6
3338,109,31,1003,-12,-19,-6
3339,144,36,1003,-13,-2,-5
3340,77,48,1002,-11,16,-1
3341,-46,49,1001,-13,23,0
3342,-137,27,987,-17,13,-2
3343,-107,18,978,-16,-6,-4
3344,6,8,1001,-16,-21,-9
3345,117,28,1015,-15,-17,-7
3346,147,41,992,-13,-1,-4
3347,60,55,1000,-14,20,0
3348,-70,41,1012,-16,23,1
3349,-147,25,975,-16,10,0
3350,-92,10,993,-17,-11,-6
3351,29,9,997,-13,-22,-7
3352,137,16,1004,-13,-16,-7
3353,137,42,999,-9,5,-3
3354,25,58,1003,-12,22,1
3355,-91,48,997,-14,21,-1
3356,-147,22,994,-18,6,-1
3357,-66,8,981,-18,-15,-6
3358,59,15,1004,-14,-22,-8
3359,149,25,999,-11,-12,-6
3360,121,49,1002,-12,8,-1
3361,0,51,1003,-10,23,0
3362,-118,34,1005,-15,20,1
3363,-133,26,981,-16,0,-4
3364,-40,8,978,-17,-18,-6
3365,82,21,1009,-16,-22,-8
3366,147,30,1006,-13,-8,-5
3367,101,52,997,-10,14,-1
3368,-32,39,1000,-15,25,1
3369,-118,33,1002,-14,16,-1
3370,-126,11,966,-17,-3,-2
3371,-24,10,999,-13,-20,-7
3372,113,27,1002,-13,-20,-7
3373,143,46,1007,1,-3,-6
3374,91,48,1002,-10,14,-1
3375,-56,44,1010,-13,24,3
3376,-135,24,972,-16,12,-1
3377,-111,14,994,-17,-8,-4
3378,-1,13,997,-16,-22,-8
3379,127,23,1006,-14,-18,-6
3380,159,43,1001,-12,-1,-6
3381,57,53,995,-12,21,2
3382,-65,43,1009,-16,24,0
3383,-158,23,980,-16,10,0
3384,-100,19,985,-15,-11,-5
3385,31,12,1001,-18,-24,-8
3386,143,30,1005,-14,-17,-6
3387,159,37,996,-15,4,-3
3388,37,54,1004,-15,23,1
3389,-91,42,1003,-16,24,1
3390,-159,17,985,-16,7,-2
3391,-91,10,985,-18,-15,-5
3392,59,16,1006,-16,-25,-8
3393,157,31,998,-14,-14,-5
3394,141,44,1001,-14,8,-2
3395,10,55,1008,-15,24,2
3396,-112,35,1001,-16,21,0
3397,-156,9,984,-16,3,-2
3398,-54,8,974,-16,-19,-7
3399,74,20,1010,-14,-23,-7
3400,159,38,1001,-12,-11,-6
3401,128,51,1009,-12,13,0
3402,-12,54,1001,-13,26,1
3403,-127,27,999,-17,20,1
3404,-143,10,977,-14,0,-4
3405,-51,2,985,-16,-22,-6
3406,99,20,1011,-13,-25,-7
3407,167,39,1000,-11,-9,-5
3408,112,51,1012,-12,15,-1
3409,-26,52,999,-12,26,1
3410,-142,33,985,-14,18,0
3411,-129,15,983,-17,-4,-4
3412,-24,9,990,-15,-20,-8
3413,116,24,1012,-15,-21,-8
3414,160,29,1000,-13,-5,-4
3415,81,54,996,-11,18,1
3416,-46,48,1008,-14,25,1
3417,-140,20,987,-15,14,-1
3418,-103,17,981,-13,-6,-7
3419,7,15,1003,-16,-20,-9
3420,126,26,1008,-12,-16,-7
3421,133,43,992,-10,4,-3
3422,42,49,1001,-12,19,1
3423,-75,41,1004,-13,21,1
3424,-136,23,983,-15,7,-3
3425,-78,17,997,-15,-12,-6
3426,40,10,994,-16,-22,-8
3427,136,30,1000,-12,-13,-5
3428,133,47,1003,-13,5,-2
3429,12,50,1000,-13,21,1
3430,-96,48,1006,-15,20,-3
3431,-136,22,986,-19,3,-3
3432,-63,9,977,-16,-15,-6
3433,68,16,1005,-16,-23,-8
3434,139,30,1005,-13,-10,-6
3435,114,49,996,-12,9,-2
3436,-9,48,1005,-13,23,1
3437,-118,35,1002,-16,17,1
3438,-120,15,975,-16,-2,-4
3439,-32,7,986,-16,-18,-7
3440,92,21,1008,-13,-21,-6
3441,141,36,999,-12,-5,-5
3442,89,54,1008,-9,15,-1
3443,-37,50,999,-14,23,1
3444,-128,26,986,-16,14,-1
3445,-101,13,983,-16,-7,-5
3446,-5,15,997,-16,-19,-8
3447,111,21,1005,-12,-17,-7
3448,145,36,1002,-12,-1,-4
3449,56,50,1000,-13,18,0
3450,-61,49,1005,-13,22,1
3451,-134,26,982,-17,10,-2
3452,-93,16,986,-16,-10,-5
3453,22,14,1002,-17,-22,-8
3454,126,25,1008,-14,-16,-8
3455,141,36,997,-10,3,-3
3456,36,50,995,-12,21,2
3457,-86,40,1012,-14,21,1
3458,-139,31,982,-16,7,-3
3459,-74,3,997,-17,-12,-6
3460,50,17,1000,-13,-22,-8
3461,140,30,998,-15,-11,-6
3462,133,39,1002,-13,8,-3
3463,1,53,1001,-13,22,3
3464,-96,41,1001,-17,19,0
3465,-146,22,992,-17,4,-2
3466,-51,8,977,-17,-19,-6
3467,71,12,1005,-15,-22,-7
3468,145,29,1001,-12,-10,-5
3469,120,51,1001,-12,10,-1
3470,-11,43,1004,-11,25,1
3471,-126,43,1001,-14,17,0
3472,-120,22,988,-16,-2,-5
3473,-41,4,975,-15,-18,-7
3474,92,31,1011,-13,-23,-6
3475,154,28,1008,-14,-7,-5
3476,90,58,998,-10,15,1
3477,-24,43,1006,-13,23,0
3478,-128,28,991,-14,16,-2
3479,-116,13,979,-18,-5,-4
3480,-15,15,996,-14,-19,-7
3481,110,20,1005,-14,-18,-7
3482,150,38,1002,-11,-2,-4
3483,73,54,1003,-11,16,-1
3484,-48,48,1004,-13,23,2
3485,-145,26,979,-15,13,-1
3486,-94,14,988,-16,-8,-7
3487,10,3,996,-16,-20,-8
3488,113,26,1011,-13,-15,-6
3489,149,37,997,-11,1,-5
3490,48,52,998,-9,20,2
3491,-73,43,1007,-13,21,-1
3492,-141,40,982,-16,9,-3
3493,-87,4,996,-18,-13,-7
3494,36,12,995,-16,-23,-7
3495,135,23,1003,-14,-15,-6
3496,139,42,996,-9,4,-2
3497,26,50,1004,-11,22,3
3498,-89,48,999,-12,23,1
3499,-144,28,991,-15,7,-1
3500,-59,13,988,-18,-14,-7
3501,58,5,999,-15,-21,-8
3502,135,37,996,-11,-11,-7
3503,126,45,1007,-13,9,-4
3504,-9,47,999,-13,25,0
3505,-103,39,1010,-14,18,0
3506,-129,19,975,-17,3,-2
3507,-47,7,989,-17,-16,-7
3508,81,20,1003,-12,-21,-7
3509,142,41,1001,-12,-6,-5
3510,106,49,1007,-9,12,-1
3511,-21,51,1000,-14,24,1
3512,-123,25,992,-15,17,0
3513,-118,17,981,-13,-2,-3
3514,-27,5,990,-18,-20,-6
3515,102,34,1004,-13,-21,-7
3516,142,36,1006,-15,-3,-3
3517,82,50,1006,-13,14,-1
3518,-40,40,1001,-13,23,2
3519,-139,29,985,-15,13,-1
3520,-101,8,980,-16,-8,-6
3521,1,14,1001,-15,-20,-6
3522,115,32,1004,-13,-17,-6
3523,146,36,1002,-12,-1,-5
3524,59,54,995,-12,19,1
3525,-68,55,1003,-15,23,3
3526,-136,24,984,-19,8,-2
3527,-96,6,988,-18,-11,-5
3528,23,14,999,-16,-22,-7
3529,132,18,1002,-15,-15,-7
3530,139,34,994,-9,3,-3
3531,41,59,1001,-10,21,0
3532,-82,40,1003,-14,22,0
3533,-142,37,987,-16,7,-2
3534,-77,14,995,-18,-12,-6
3535,47,18,989,-16,-22,-8
3536,131,23,1008,-14,-13,-5
3537,134,33,1001,-12,6,-2
3538,7,46,1002,-11,24,1
3539,-97,44,1005,-13,20,1
3540,-132,26,992,-15,4,-2
3541,-59,14,973,-16,-14,-5
3542,69,18,1008,-17,-22,-7
3543,143,33,1003,-15,-9,-7
3544,112,41,1001,-12,11,0
3545,-12,52,999,-13,22,2
3546,-113,30,1004,-15,17,-2
3547,-119,10,976,-14,-1,-5
3548,-36,11,990,-14,-16,-6
3549,93,23,1001,-13,-20,-8
3550,140,40,1010,-13,-4,-4
3551,88,49,998,-12,13,0
3552,-40,50,1000,-15,23,1
3553,-119,27,993,-16,14,-2
3554,-108,10,978,-17,-4,-2
3555,-13,14,993,-17,-19,-8
3556,111,18,1008,-14,-18,-7
3557,132,37,1000,-12,0,-2
3558,72,50,998,-12,16,0
3559,-57,47,1000,-14,22,1
3560,-133,29,986,-17,9,0
3561,-94,15,985,-16,-10,-4
3562,16,14,1002,-16,-22,-6
3563,125,22,1007,-16,-17,-5
3564,134,38,994,-11,1,-3
3565,41,51,1001,-12,19,1
3566,-77,50,1004,-14,20,1
3567,-142,28,986,-16,6,-2
3568,-73,3,994,-18,-13,-5
3569,40,17,998,-16,-21,-7
3570,141,22,999,-13,-13,-6
3571,125,46,1004,-9,7,-2
3572,8,53,998,-11,22,1
3573,-96,41,1009,-15,21,1
3574,-137,25,985,-17,3,-1
3575,-52,6,985,-16,-16,-7
3576,64,12,998,-15,-21,-8
3577,143,31,1005,-13,-10,-6
3578,115,48,998,-13,10,-2
3579,-9,52,1000,-13,24,1
3580,-113,37,1011,-15,19,0
3581,-125,23,974,-18,0,-3
3582,-38,1,981,-19,-17,-6
3583,86,22,1015,-15,-21,-6
3584,146,30,1001,-12,-8,-5
3585,92,50,1003,-11,13,-1
3586,-30,44,1002,-13,23,0
3587,-123,30,990,-13,15,-1
3588,-114,13,979,-17,-4,-3
3589,-11,13,993,-17,-20,-8
3590,104,28,1010,-14,-18,-7
3591,143,37,1002,-13,-2,-4
3592,80,54,1000,-12,17,0
3593,-58,45,1000,-12,24,2
3594,-136,25,987,-17,12,-2
3595,-95,2,989,-18,-7,-5
3596,3,26,997,-14,-20,-7
3597,131,29,1013,-15,-18,-8
3598,143,39,997,-14,2,-4
3599,39,53,993,-14,21,3
3600,-71,40,1007,-16,21,-1
3601,-144,19,990,-19,9,-1
3602,-86,11,982,-17,-12,-5
3603,46,7,1007,-15,-21,-8
3604,133,35,999,-14,-13,-5
3605,132,49,996,-11,6,-3
3606,15,51,999,-14,22,2
3607,-96,45,1008,-17,19,0
3608,-138,15,985,-19,3,-2
3609,-58,1,985,-17,-15,-7
3610,65,10,1003,-16,-21,-6
3611,141,34,1000,-12,-9,-6
3612,122,45,1000,-12,9,-2
3613,-8,61,1006,-10,24,3
3614,-112,39,1001,-15,18,-1
3615,-125,26,981,-16,0,-4
3616,-48,2,984,-19,-18,-6
3617,91,17,1007,-15,-23,-7
3618,146,21,1007,-13,-7,-6
3619,101,50,996,-8,14,0
3620,-24,48,1008,-12,22,1
3621,-126,38,997,-15,16,-1
3622,-124,22,974,-16,-2,-4
3623,-16,11,991,-19,-19,-8
3624,99,30,1012,-15,-19,-7
3625,145,30,996,-13,-5,-4
3626,82,45,1009,-11,16,1
3627,-52,48,1000,-12,23,4
3628,-127,27,984,-15,14,-2
3629,-109,10,986,-19,-8,-4
3630,3,19,994,-15,-22,-7
3631,120,23,1014,-14,-18,-6
3632,143,37,994,-12,0,-3
3633,57,52,1003,-11,19,1
3634,-62,39,1003,-14,22,0
3635,-145,30,982,-15,9,-1
3636,-88,10,990,-15,-11,-6
3637,23,18,1003,-15,-21,-6
3638,136,21,998,-15,-15,-5
3639,140,39,1002,-9,4,-2
3640,33,50,1000,-13,21,2
3641,-86,43,1003,-13,22,1
3642,-147,26,986,-16,7,-1
3643,-72,9,995,-18,-14,-7
3644,55,17,995,-15,-21,-7
3645,138,29,997,-13,-12,-5
3646,128,51,1008,-13,7,0
3647,4,45,1000,-12,23,1
3648,-101,45,1002,-14,21,-1
3649,-129,19,987,-20,2,-4
3650,-55,11,980,-16,-15,-5
3651,74,12,1002,-16,-22,-8
3652,145,31,1002,-12,-9,-5
3653,107,56,1005,-10,11,-1
3654,-8,51,1001,-14,23,1
3655,-124,32,997,-16,18,0
3656,-125,23,982,-17,-1,-4
3657,-30,3,984,-19,-20,-8
3658,90,22,1006,-13,-21,-6
3659,147,34,1004,-13,-6,-4
3660,94,46,1003,-13,16,0
3661,-36,48,1002,-12,24,2
3662,-129,29,989,-18,15,-1
3663,-110,15,982,-17,-6,-5
3664,-11,15,991,-16,-20,-7
3665,108,33,1012,-16,-19,-7
3666,149,32,1000,-13,-2,-5
3667,68,48,998,-10,19,2
3668,-55,49,1000,-14,23,2
3669,-137,18,993,-18,11,-2
3670,-104,16,979,-16,-10,-5
3671,18,13,1003,-16,-22,-8
3672,126,22,1009,-12,-16,-7
3673,140,43,991,-10,4,-3
3674,42,55,1002,-11,21,1
3675,-74,52,1005,-15,21,0
3676,-140,28,988,-18,9,-1
3677,-76,10,991,-18,-12,-6
3678,43,6,1002,-16,-21,-7
3679,134,29,991,-13,-12,-5
3680,126,45,1003,-11,7,-2
3681,12,57,998,-13,22,0
3682,-106,44,1010,-15,20,2
3683,-127,23,983,-18,3,-3
3684,-59,6,986,-19,-14,-5
3685,71,12,998,-14,-22,-8
3686,144,19,1011,-13,-9,-5
3687,105,60,989,-11,12,0
3688,-18,49,1009,-13,23,1
3689,-107,45,1004,-14,16,-2
3690,-136,24,977,-19,-1,-3
3691,-30,17,981,-19,-19,-8
3692,93,13,1017,-19,-23,-5
3693,143,29,993,-16,-7,-5
3694,106,38,1006,-12,14,1
3695,-34,42,1004,-13,25,2
3696,-131,34,988,-14,15,0
3697,-120,15,977,-15,-5,-5
3698,-21,19,997,-15,-20,-7
3699,110,33,1001,-14,-19,-6
3700,152,38,1010,-14,-2,-5
3701,76,44,1000,-15,17,1
3702,-45,50,998,-12,23,0
3703,-145,20,990,-19,13,-1
3704,-109,10,978,-16,-7,-3
3705,6,9,1003,-15,-21,-8
3706,130,32,1010,-11,-18,-7
3707,150,47,996,-11,1,-3
3708,60,59,996,-12,20,2
3709,-77,44,1010,-15,25,2
3710,-150,26,981,-18,9,-1
3711,-94,0,990,-11,-13,-8
3712,33,3,998,-14,-27,-11
3713,141,24,1002,-8,-16,-6
3714,139,45,995,-7,4,-2
3715,30,63,1003,-7,22,2
3716,-91,47,1008,-15,23,2
3717,-141,28,987,-17,6,-2
3718,-73,3,987,-15,-13,-6
3719,58,14,995,-17,-23,-8
3720,142,26,1008,-11,-11,-5
3721,128,43,998,-15,9,-1
3722,4,49,1004,-10,23,1
3723,-112,48,1011,-15,19,0
3724,-130,21,975,-18,0,-4
3725,-50,15,980,-16,-17,-7
3726,80,15,1008,-16,-22,-8
3727,141,31,1004,-11,-8,-5
3728,109,47,994,-12,11,0
3729,-21,46,1008,-11,23,1
3730,-114,33,991,-14,16,-1
3731,-123,15,984,-17,-2,-4
3732,-28,18,985,-15,-19,-7
3733,93,19,1008,-16,-19,-7
3734,151,42,1004,-12,-4,-5
3735,85,43,1004,-12,16,1
3736,-39,56,1001,-12,23,0
3737,-128,23,992,-18,13,0
3738,-118,21,980,-16,-5,-2
3739,0,5,998,-20,-22,-6
3740,115,19,1015,-11,-17,-7
3741,147,33,992,-16,0,-3
3742,64,52,1000,-9,21,0
3743,-67,51,1009,-13,23,1
3744,-147,32,981,-20,9,0
3745,-89,21,989,-17,-12,-6
3746,27,16,1002,-17,-22,-8
3747,133,21,1004,-17,-15,-6
3748,141,31,997,-10,4,-4
3749,26,51,995,-12,21,3
3750,-84,39,1007,-14,21,0
3751,-143,26,988,-15,6,-3
3752,-74,21,990,-18,-13,-7
3753,59,16,994,-15,-23,-8
3754,136,32,1004,-14,-12,-4
3755,126,44,1000,-14,7,-3
3756,0,43,996,-13,22,2
3757,-104,37,1012,-15,18,1
3758,-130,17,984,-17,1,-3
3759,-39,7,981,-17,-17,-8
3760,79,23,1004,-11,-20,-6
3761,140,36,1007,-13,-8,-5
3762,110,49,995,-13,12,-1
3763,-29,55,1003,-13,27,4
3764,-122,36,1003,-20,15,-1
3765,-119,11,977,-16,-3,-4
3766,-26,8,988,-17,-19,-6
3767,105,17,1009,-14,-21,-7
3768,145,25,1002,-11,-3,-5
3769,83,54,1004,-10,16,2
3770,-46,49,998,-12,23,0
3771,-131,34,986,-15,12,-2
3772,-105,14,988,-18,-8,-5
3773,0,14,985,-17,-20,-9
3774,118,22,1018,-13,-16,-7
3775,151,33,997,-14,-1,-6
3776,58,44,994,-10,20,1
3777,-64,51,1001,-13,22,0
3778,-143,32,993,-16,9,-2
3779,-97,14,976,-16,-10,-4
3780,22,19,1008,-16,-21,-8
3781,135,24,1010,-14,-16,-7
3782,136,41,990,-9,5,-3
3783,33,49,1001,-14,20,1
3784,-84,38,1009,-14,21,1
3785,-141,34,983,-14,7,-2
3786,-75,7,993,-18,-13,-5
3787,50,14,1001,-15,-22,-8
3788,145,30,999,-12,-13,-5
3789,130,36,997,-13,6,-2
3790,9,54,1007,-10,22,2
3791,-104,40,1004,-15,18,1
3792,-143,29,978,-17,3,-3
3793,-52,6,989,-16,-18,-7
3794,71,22,999,-15,-22,-8
3795,143,25,1005,-14,-10,-5
3796,125,47,997,-11,10,-2
3797,-15,45,1005,-15,24,3
3798,-116,35,1002,-14,19,-1
3799,-132,13,976,-16,2,-3
3800,-40,16,984,-15,-16,-9
3801,91,26,1006,-13,-21,-7
3802,153,37,1004,-13,-6,-5
3803,104,47,999,-13,15,1
3804,-34,48,1002,-14,24,1
3805,-128,24,992,-16,17,-2
3806,-119,13,977,-16,-5,-4
3807,-23,13,995,-14,-19,-7
3808,115,22,1012,-12,-20,-7
3809,154,43,999,-10,-3,-5
3810,76,57,999,-12,18,1
3811,-52,45,1005,-14,24,1
3812,-136,30,985,-15,13,-2
3813,-104,16,977,-18,-7,-5
3814,10,5,1007,-16,-20,-8
3815,126,24,1009,-12,-17,-6
3816,140,36,994,-12,2,-2
3817,47,51,1000,-10,20,1
3818,-75,51,1009,-15,21,2
3819,-139,29,979,-18,8,-2
3820,-91,15,995,-17,-12,-6
3821,44,17,1002,-19,-24,-8
3822,134,16,996,-16,-13,-5
3823,131,45,997,-11,7,-2
3824,21,46,1008,-14,20,2
3825,-99,41,991,-13,20,1
3826,-138,22,997,-17,3,-1
3827,-56,12,983,-14,-16,-8
3828,60,14,1002,-13,-21,-6
3829,147,33,997,-14,-11,-6
3830,114,47,1009,-11,10,0
3831,-8,48,997,-14,23,1
3832,-113,41,1005,-14,17,1
3833,-126,9,977,-17,0,-4
3834,-41,13,991,-15,-17,-6
3835,91,20,1006,-14,-22,-7
3836,146,37,999,-12,-6,-5
3837,99,52,1005,-12,13,0
3838,-25,41,1001,-12,22,1
3839,-131,34,993,-16,16,1
3840,-117,11,974,-17,-4,-5
3841,-21,11,997,-16,-18,-8
3842,109,21,1003,-13,-20,-7
3843,149,38,1005,-9,-3,-4
3844,84,48,1009,-13,17,0
3845,-52,46,995,-11,24,3
3846,-137,29,987,-13,13,-2
3847,-109,18,989,-16,-9,-6
3848,-1,14,988,-15,-23,-7
3849,123,28,1020,-14,-19,-8
3850,156,36,996,-12,-1,-5
3851,49,47,994,-12,20,2
3852,-60,46,1005,-15,22,-2
3853,-154,18,993,-17,11,-1
3854,-94,17,978,-15,-11,-6
3855,29,10,1006,-15,-23,-8
3856,134,38,1007,-12,-16,-6
3857,148,35,996,-10,4,-3
3858,34,59,997,-12,22,2
3859,-86,43,1004,-16,22,1
3860,-147,27,990,-17,7,-3
3861,-83,9,985,-16,-14,-6
3862,47,11,998,-14,-23,-7
3863,143,32,1010,-13,-14,-6
3864,130,43,998,-12,6,-2
3865,17,46,1004,-12,22,1
3866,-100,45,1007,-14,20,1
3867,-141,23,978,-17,3,-3
3868,-55,8,986,-15,-15,-7
3869,73,18,1002,-16,-22,-7
3870,140,34,1005,-15,-9,-4
3871,111,48,1003,-12,11,-2
3872,-9,46,1001,-13,22,1
3873,-118,33,998,-18,18,0
3874,-118,17,981,-17,0,-3
3875,-33,3,985,-16,-17,-7
3876,92,24,1009,-14,-20,-8
3877,140,37,1005,-12,-5,-5
3878,88,50,1002,-13,14,0
3879,-34,50,1004,-12,23,2
3880,-124,33,991,-18,14,-1
3881,-111,14,974,-18,-5,-4
3882,-8,11,1004,-16,-20,-7
3883,109,24,1008,-13,-18,-6
3884,146,34,999,-12,-1,-5
3885,73,52,997,-11,18,0
3886,-57,49,1006,-14,24,1
3887,-139,29,988,-13,10,-2
3888,-104,18,981,-16,-8,-4
3889,11,19,1003,-15,-21,-8
3890,134,27,1006,-15,-18,-8
3891,141,34,1001,-13,2,-2
3892,43,55,994,-11,20,-1
3893,-79,38,1012,-14,21,0
3894,-139,22,980,-17,7,-2
3895,-87,16,991,-17,-13,-5
3896,52,18,994,-16,-24,-9
3897,133,29,1005,-14,-13,-5
3898,133,52,996,-11,6,-3
3899,18,48,1014,-13,23,1
3900,-97,39,996,-15,20,0
3901,-137,13,985,-16,4,-3
3902,-57,3,981,-15,-16,-7
3903,64,13,1006,-15,-21,-7
3904,143,40,1001,-11,-9,-7
3905,115,49,1006,-12,11,-1
3906,-22,63,1001,-13,23,2
3907,-107,38,1006,-16,16,-2
3908,-116,12,975,-19,-1,-4
3909,-39,8,987,-16,-17,-5
3910,98,14,1009,-14,-20,-9
3911,135,33,1001,-11,-4,-3
3912,82,50,998,-10,15,0
3913,-35,49,1013,-13,22,-1
3914,-130,36,984,-14,13,-1
3915,-104,22,978,-17,-7,-5
3916,1,12,1003,-18,-20,-9
3917,103,22,1003,-14,-17,-4
3918,144,33,1001,-13,-1,-5
3919,62,39,1002,-10,17,0
3920,-63,55,999,-10,23,1
3921,-127,26,989,-17,9,-3
3922,-90,20,983,-15,-9,-5
3923,18,23,1004,-19,-21,-7
3924,130,19,1006,-17,-16,-7
3925,136,28,998,-12,5,-3
3926,37,53,994,-12,21,1
3927,-79,32,1007,-13,22,0
3928,-148,32,983,-12,8,-2
3929,-77,15,992,-16,-14,-5
3930,44,23,998,-15,-22,-6
3931,140,29,1003,-14,-13,-4
3932,141,45,997,-10,6,-3
3933,12,51,1005,-13,24,0
3934,-101,34,1004,-16,20,-1
3935,-145,11,984,-15,5,-2
3936,-63,8,981,-15,-16,-6
3937,65,22,1002,-13,-24,-6
3938,150,42,1008,-11,-11,-7
3939,125,50,997,-15,9,-1
3940,-6,54,1008,-14,24,1
3941,-112,40,995,-16,19,-1
3942,-147,10,971,-18,-1,-1
3943,-44,14,998,-16,-20,-7
3944,90,6,1000,-17,-25,-6
3945,146,37,1002,-10,-7,-4
3946,109,52,1010,-13,11,-1
3947,-27,45,1004,-13,24,2
3948,-129,36,984,-16,15,-1
3949,-120,16,991,-18,-4,-3
3950,-23,12,987,-17,-20,-8
3951,107,22,1006,-15,-21,-6
3952,144,34,1001,-15,-3,-4
3953,68,48,1005,-12,16,1
3954,-43,47,993,-13,22,0
3955,-135,24,993,-16,13,-2
3956,-96,22,979,-16,-8,-6
3957,16,16,1008,-17,-20,-7
3958,121,21,1003,-15,-15,-7
3959,135,49,997,-10,4,-2
3960,45,52,999,-15,19,0
3961,-80,49,1005,-15,21,1
3962,-127,20,984,-17,6,-2
3963,-76,6,997,-20,-10,-4
3964,45,9,997,-16,-20,-6
3965,130,19,995,-12,-10,-6
3966,118,49,1004,-9,8,-3
3967,6,56,1003,-12,22,3
3968,-98,53,997,-16,19,1
3969,-125,22,994,-19,2,-3
3970,-47,12,986,-20,-15,-5
3971,67,9,997,-17,-20,-6
3972,140,35,1002,-12,-9,-7
3973,108,34,1004,-12,11,0
3974,-21,58,1000,-11,23,2
3975,-114,38,999,-14,17,0
3976,-122,23,988,-15,-2,-3
3977,-29,8,979,-19,-19,-5
3978,94,21,1010,-16,-20,-8
3979,141,33,1005,-14,-6,-5
3980,90,48,997,-12,15,1
3981,-40,44,1005,-12,23,2
3982,-130,31,982,-14,14,0
3983,-107,13,990,-16,-6,-5
3984,-9,10,986,-16,-20,-6
3985,109,27,1010,-14,-18,-6
3986,151,37,1003,-10,0,-5
3987,55,48,998,-11,18,3
3988,-57,55,999,-13,23,1
3989,-138,22,989,-18,10,-1
3990,-96,17,978,-18,-10,-4
3991,30,1,1006,-16,-21,-7
3992,121,27,1008,-14,-14,-6
3993,146,34,1000,-12,3,-4
3994,41,42,993,-10,22,1
3995,-89,53,1004,-13,22,3
3996,-134,31,991,-16,6,-3
3997,-82,22,987,-18,-12,-5
3998,49,16,1004,-16,-23,-7
3999,144,20,1000,-14,-12,-7
4000,124,31,999,-10,7,-2
4001,14,52,998,-12,22,1
4002,-101,40,1006,-13,20,1
4003,-143,29,983,-16,2,-3
4004,-51,10,994,-18,-16,-6
4005,76,13,1000,-15,-21,-7
4006,145,36,996,-12,-9,-5
4007,116,39,1009,-11,11,-2
4008,-19,53,995,-11,23,2
4009,-117,40,1006,-16,17,1
4010,-121,19,979,-18,-1,-3
4011,-38,8,987,-17,-17,-6
4012,93,17,1007,-14,-21,-8
4013,142,39,1007,-11,-5,-4
4014,92,47,995,-13,14,-1
4015,-36,56,1010,-14,23,0
4016,-132,29,988,-17,14,-1
4017,-116,20,981,-18,-5,-4
4018,-9,3,993,-17,-21,-8
4019,111,24,1011,-16,-19,-5
4020,148,34,998,-14,-2,-3
4021,69,45,1000,-10,18,1
4022,-59,56,1004,-12,22,1
4023,-132,27,983,-18,11,-1
4024,-105,19,980,-16,-8,-5
4025,14,13,1006,-19,-22,-7
4026,126,25,1013,-14,-16,-5
4027,139,33,985,-14,1,-4
4028,46,53,1006,-11,20,1
4029,-79,47,1000,-15,20,1
4030,-146,24,983,-17,7,-2
4031,-78,22,994,-15,-13,-7
4032,37,8,1007,-19,-22,-7
4033,149,24,989,-11,-13,-6
4034,130,29,1005,-12,7,-1
4035,14,56,1001,-13,23,2
4036,-98,47,999,-14,20,0
4037,-141,28,987,-15,4,-2
4038,-64,16,994,-19,-17,-5
4039,75,11,997,-17,-23,-9
4040,149,25,1006,-13,-10,-6
4041,121,40,994,-10,11,-2
4042,-12,46,1009,-11,25,0
4043,-117,43,997,-14,19,0
4044,-135,26,984,-16,0,-3
4045,-32,3,984,-17,-18,-7
4046,91,21,1010,-16,-20,-6
4047,144,36,996,-13,-5,-5
4048,98,43,1011,-11,14,-1
4049,-31,48,997,-11,23,0
4050,-131,30,994,-14,16,0
4051,-117,22,981,-13,-3,-4
4052,-19,7,993,-15,-20,-7
4053,110,30,1006,-11,-19,-6
4054,146,32,1005,10,-1,-4
4055,74,52,998,-4,18,0
4056,-55,47,1005,-15,24,2
4057,-135,31,986,-14,11,-1
4058,-105,17,980,-17,-9,-3
4059,8,10,1004,-17,-23,-8
4060,123,29,1009,-11,-17,-6
4061,144,35,992,-13,0,-3
4062,51,55,1004,-9,20,2
4063,-79,48,1000,-15,22,2
4064,-148,26,984,-18,8,-2
4065,-82,14,990,-17,-13,-6
4066,35,13,999,-17,-24,-6
4067,145,25,1005,-14,-15,-7
4068,138,38,997,-11,5,-1
4069,22,65,1003,-13,21,1
4070,-98,35,1001,-16,21,1
4071,-143,34,994,-16,3,-2
4072,-66,-2,988,-21,-16,-5
4073,66,19,997,-15,-22,-6
4074,150,22,1006,-13,-12,-4
4075,123,43,1001,-12,10,-1
4076,-5,50,1000,-14,22,3
4077,-119,47,1009,-14,18,0
4078,-132,24,978,-18,0,-3
4079,-44,7,990,-18,-19,-5
4080,92,18,1002,-17,-24,-9
4081,151,23,1006,-16,-7,-5
4082,108,52,997,-10,14,0
4083,-33,43,1004,-13,25,1
4084,-122,45,996,-14,17,-1
4085,-129,21,979,-19,-4,0
4086,-20,7,988,-17,-20,-9
4087,112,12,1016,-16,-21,-7
4088,152,34,994,-14,-4,-5
4089,83,51,1009,-11,16,-1
4090,-50,46,998,-14,25,1
4091,-148,34,993,-14,14,0
4092,-106,11,973,-17,-8,-5
4093,0,17,1009,-16,-21,-8
4094,123,22,1005,-14,-19,-7
4095,155,34,1001,-12,1,-4
4096,55,58,992,-13,21,2
4097,-63,41,1011,-15,24,1
4098,-154,23,982,-16,10,-2
4099,-94,19,984,-17,-13,-4
4100,37,12,1008,-16,-24,-9
4101,136,25,1002,-12,-15,-6
4102,151,42,992,-10,3,-3
4103,25,50,1002,-11,22,1
4104,-91,50,1007,-14,22,2
4105,-155,18,982,-16,6,-2
4106,-64,12,997,-16,-16,-8
4107,55,9,995,-17,-22,-5
4108,149,32,995,-12,-13,-8
4109,130,41,1012,-10,7,-3
4110,0,59,994,-13,23,2
4111,-111,44,1007,-14,20,0
4112,-131,28,985,-17,1,-3
4113,-56,5,983,-18,-16,-5
4114,87,16,1004,-15,-23,-8
4115,143,22,1004,-13,-8,-5
4116,111,50,998,-7,12,-2
4117,-23,43,1010,-12,24,1
4118,-129,48,993,-12,17,0
4119,-122,16,981,-15,-3,-4
4120,-26,6,991,-18,-19,-7
4121,112,18,1004,-15,-21,-8
4122,148,38,1003,-11,-2,-4
4123,86,45,1007,-13,16,0
4124,-53,55,1002,-12,24,2
4125,-139,33,990,-15,12,0
4126,-108,19,983,-17,-8,-5
4127,-1,12,1001,-17,-21,-7
4128,127,22,1006,-15,-19,-7
4129,144,30,1002,-12,1,-5
4130,54,52,989,-10,20,0
4131,-69,47,1009,-14,24,1
4132,-158,28,979,-17,9,0
4133,-88,23,990,-17,-13,-5
4134,38,6,1007,-19,-23,-9
4135,133,24,998,-15,-14,-4
4136,151,32,998,-12,6,-4
4137,21,55,1003,-11,22,2
4138,-95,48,996,-13,20,1
4139,-148,25,994,-17,5,-3
4140,-73,6,994,-19,-15,-5
4141,68,22,993,-13,-23,-8
4142,151,19,1004,-13,-12,-6
4143,129,45,1004,-8,9,-2
4144,-9,58,996,-13,24,2
4145,-113,44,1010,-15,20,1
4146,-142,28,984,-16,1,-2
4147,-42,3,979,-19,-19,-6
4148,86,13,1009,-16,-23,-8
4149,146,30,1004,-13,-8,-4
4150,111,42,994,-9,13,-1
4151,-25,50,1007,-10,24,2
4152,-125,42,999,-15,16,0
4153,-124,26,977,-17,-3,-4
4154,-27,8,990,-18,-20,-6
4155,109,20,1005,-14,-21,-7
4156,154,33,1005,-12,-3,-5
4157,76,43,996,-11,17,0
4158,-46,47,1009,-10,24,1
4159,-134,30,988,-15,13,-1
4160,-114,26,981,-17,-7,-4
4161,10,13,1000,-17,-22,-9
4162,116,21,1008,-17,-18,-6
4163,148,32,991,-12,0,-3
4164,57,40,1006,-11,19,1
4165,-74,46,994,-11,21,2
4166,-144,29,989,-14,9,0
4167,-87,25,985,-18,-11,-5
4168,33,15,1004,-17,-22,-7
4169,143,21,1005,-14,-14,-7
4170,135,30,996,-12,6,-2
4171,26,58,999,-10,22,1
4172,-92,40,1005,-15,22,0
4173,-148,26,987,-17,6,-1
4174,-68,12,991,-17,-15,-6
4175,65,15,1008,-16,-23,-10
4176,147,24,988,-13,-11,-4
4177,119,53,1006,-10,10,-2
4178,-3,50,1002,-13,23,1
4179,-118,50,999,-13,21,2
4180,-134,19,990,-18,1,-3
4181,-43,2,983,-18,-18,-6
4182,89,12,1004,-15,-22,-7
4183,148,26,1000,-12,-7,-5
4184,101,50,1003,-9,13,-1
4185,-28,56,1000,-11,24,3
4186,-135,39,1002,-16,16,1
4187,-117,23,973,-17,-5,-4
4188,-18,8,994,-19,-20,-7
4189,105,16,1009,-15,-21,-6
4190,155,29,996,-11,-2,-5
4191,77,43,1006,-11,19,0
4192,-53,52,999,-12,24,1
4193,-138,33,990,-15,13,-1
4194,-114,26,972,-17,-6,-4
4195,8,7,1013,-20,-22,-8
4196,130,16,999,-15,-18,-8
4197,146,34,1003,-12,0,-3
4198,61,53,997,-12,20,0
4199,-78,45,1005,-13,24,2
4200,-147,36,980,-17,7,-3
4201,-89,14,992,-19,-12,-5
4202,30,14,1004,-17,-22,-8
4203,147,16,1002,-15,-16,-7
4204,136,35,996,-11,6,-2
4205,29,55,1000,-10,23,1
4206,-94,44,1002,-13,22,0
4207,-149,33,984,-15,5,-3
4208,-72,10,1000,-18,-14,-6
4209,63,18,996,-17,-22,-9
4210,150,21,997,-14,-10,-6
4211,125,44,1001,-10,10,-3
4212,-6,51,1003,-14,23,1
4213,-112,49,1000,-14,18,-1
4214,-138,17,989,-19,2,-3
4215,-50,15,982,-18,-17,-6
4216,90,14,1010,-17,-24,-8
4217,147,26,994,-15,-8,-5
4218,103,44,1002,-11,12,-1
4219,-20,46,1002,-12,22,1
4220,-134,40,1000,-14,17,1
4221,-117,28,975,-16,-5,-3
4222,-22,9,996,-17,-19,-7
4223,108,20,1004,-16,-20,-7
4224,146,33,996,-16,-1,-4
4225,85,46,1011,-11,17,0
4226,-50,37,998,-14,23,4
4227,-137,35,985,-13,13,-1
4228,-106,17,985,-19,-7,-4
4229,0,23,1002,-16,-20,-8
4230,124,21,997,-13,-17,-7
4231,143,32,1008,-13,1,-4
4232,61,46,997,-13,19,1
4233,-71,44,1000,-11,23,0
4234,-144,25,988,-16,9,-1
4235,-92,19,985,-15,-10,-4
4236,33,18,1010,-19,-22,-7
4237,138,18,1004,-14,-15,-6
4238,141,41,999,-10,4,-3
4239,29,50,996,-11,23,1
4240,-92,47,1001,-14,22,0
4241,-146,27,986,-17,5,-1
4242,-71,16,994,-17,-14,-6
4243,59,12,1001,-16,-23,-9
4244,148,21,994,-12,-12,-6
4245,130,36,1001,-11,8,-2
4246,0,53,1005,-10,24,-1
4247,-114,39,1003,-13,20,0
4248,-143,32,979,-17,2,-4
4249,-42,9,999,-19,-17,-8
4250,85,20,990,-15,-22,-6
4251,147,29,1007,-15,-8,-5
4252,111,41,999,-11,12,-1
4253,-26,49,1004,-14,25,2
4254,-129,38,992,-15,17,0
4255,-126,22,984,-15,-3,-4
4256,-27,6,991,-18,-20,-7
4257,107,22,1004,-14,-21,-7
4258,153,29,996,-13,-4,-6
4259,83,58,1016,-10,17,1
4260,-42,42,991,-13,24,1
4261,-139,37,993,-13,15,-2
4262,-110,14,987,-20,-8,-3
4263,-3,8,990,-17,-21,-8
4264,128,17,1010,-12,-18,-7
4265,146,36,1003,-10,0,-4
4266,66,55,994,-7,18,0
4267,-70,48,1005,-13,24,2
4268,-150,38,985,-15,10,-2
4269,-94,13,987,-18,-11,-6
4270,25,15,1000,-18,-22,-8
4271,139,8,1012,-15,-16,-6
4272,151,29,996,-9,4,-4
4273,35,52,991,-10,22,3
4274,-89,56,1010,-12,21,0
4275,-151,30,981,-17,6,-1
4276,-73,23,999,-16,-14,-7
4277,50,9,997,-19,-24,-7
4278,147,28,998,-13,-13,-8
4279,133,31,1004,-13,7,-2
4280,0,53,999,-12,24,3
4281,-101,39,1002,-13,20,0
4282,-146,24,992,-15,3,-1
4283,-45,12,985,-16,-16,-7
4284,78,14,1000,-13,-22,-8
4285,150,35,1006,-12,-9,-5
4286,114,47,1002,-11,11,-1
4287,-26,50,999,-12,26,3
4288,-121,41,1003,-17,16,0
4289,-125,14,979,-17,-1,-3
4290,-28,10,987,-17,-20,-7
4291,100,14,1011,-14,-21,-8
4292,154,37,998,-11,-5,-5
4293,79,49,1000,-11,16,2
4294,-35,56,1005,-12,23,1
4295,-136,34,990,-17,14,0
4296,-108,20,977,-19,-6,-5
4297,-4,1,999,-19,-20,-8
4298,119,27,1009,-12,-18,-10
4299,148,25,994,-11,0,-3
4300,66,53,1003,-8,19,0
4301,-64,41,1004,-13,24,2
4302,-144,42,983,-14,11,-2
4303,-89,13,984,-18,-12,-6
4304,27,13,1003,-17,-21,-7
4305,129,22,1005,-14,-15,-7
4306,149,37,1002,-11,4,-4
4307,31,45,991,-12,22,1
4308,-86,48,1006,-13,23,0
4309,-140,25,989,-18,7,-4
4310,-83,19,988,-16,-13,-6
4311,54,8,1004,-18,-24,-9
4312,139,25,994,-12,-13,-5
4313,124,40,1005,-9,6,-1
4314,12,61,1002,-9,22,0
4315,-108,37,1003,-15,18,0
4316,-135,31,984,-17,2,-2
4317,-47,6,995,-18,-17,-7
4318,77,17,997,-12,-22,-7
4319,150,24,1003,-13,-10,-7
4320,109,43,999,-10,13,-2
4321,-24,51,1003,-11,23,2
4322,-120,48,1004,-15,17,-2
4323,-126,15,984,-18,-2,-3
4324,-33,13,981,-18,-20,-6
4325,103,12,1013,-16,-21,-9
4326,154,26,998,-12,-5,-5
4327,92,46,1001,-10,15,1
4328,-42,54,1004,-10,24,0
4329,-132,36,991,-16,15,-1
4330,-111,31,979,-17,-5,-4
4331,-17,6,994,-18,-20,-7
4332,114,19,1002,-14,-20,-9
4333,148,27,1008,-12,-1,-6
4334,66,47,991,-10,19,0
4335,-49,51,1011,-11,22,0
4336,-144,32,980,-14,12,-1
4337,-97,25,985,-15,-9,-5
4338,20,16,1002,-18,-22,-10
4339,123,25,1016,-14,-17,-7
4340,145,33,985,-13,1,-4
4341,43,49,1006,-12,21,1
4342,-79,38,1001,-16,21,2
4343,-148,28,987,-16,8,0
4344,-78,11,995,-17,-13,-6
4345,41,15,997,-14,-21,-7
4346,144,28,1002,-11,-13,-7
4347,125,38,993,-10,7,-2
4348,12,63,1009,-8,22,0
4349,-99,43,995,-15,19,0
4350,-149,26,988,-19,4,-1
4351,-50,8,999,-19,-18,-8
4352,70,11,996,-17,-23,-7
4353,144,17,1001,-12,-9,-5
4354,114,50,998,-10,10,-1
4355,-18,54,1009,-11,22,2
4356,-114,52,997,-14,16,0
4357,-132,25,986,-21,-1,-2
4358,-18,6,985,-19,-20,-7
4359,85,7,1008,-16,-20,-7
4360,141,18,994,-13,-4,-6
4361,90,51,1006,-10,15,1
4362,-34,48,1000,-11,24,1
4363,-126,50,992,-12,15,1
4364,-108,24,982,-18,-6,-5
4365,-13,5,997,-18,-19,-7
4366,103,22,999,-14,-19,-5
4367,151,25,1003,-12,-2,-6
4368,64,45,1004,-11,17,-1
4369,-54,52,995,-10,22,1
4370,-132,35,991,-15,11,-3
4371,-92,20,988,-18,-9,-5
4372,10,20,997,-16,-19,-6
4373,123,14,1009,-13,-16,-8
4374,134,31,999,-12,2,-4
4375,38,45,990,-9,19,1
4376,-66,50,1010,-14,20,0
4377,-132,35,991,-18,7,-2
4378,-74,21,990,-16,-10,-5
4379,46,12,1003,-18,-20,-8
4380,129,18,999,-12,-12,-4
4381,120,36,990,-11,7,-2
4382,11,49,1005,-12,21,0
4383,-90,49,1000,-14,19,0
4384,-128,21,987,-18,5,-2
4385,-59,20,995,-19,-13,-6
4386,74,13,1000,-17,-20,-8
4387,134,22,993,-13,-9,-6
4388,112,44,1001,-23,11,-2
4389,-15,52,1005,-14,24,1
4390,-111,49,999,-13,17,0
4391,-123,19,983,-17,0,-2
4392,-32,17,987,-16,-18,-8
4393,89,9,1007,-14,-21,-7
4394,135,33,995,-13,-6,-6
4395,89,40,1002,-10,14,-2
4396,-33,55,1006,-11,22,1
4397,-128,38,989,-16,14,0
4398,-109,23,982,-18,-6,-4
4399,-9,4,1000,-20,-20,-7
4400,111,23,1000,-15,-18,-6
4401,138,27,1001,-14,-1,-4
4402,71,53,1008,-10,17,-1
4403,-58,44,994,-13,22,2
4404,-131,38,989,-14,12,-1
4405,-97,17,986,-18,-8,-4
4406,16,17,995,-17,-21,-8
4407,122,15,1018,-14,-17,-6
4408,139,37,991,-11,2,-4
4409,39,39,994,-11,21,2
4410,-75,53,1005,-13,20,2
4411,-139,27,990,-18,6,-1
4412,-78,24,983,-16,-12,-5
4413,44,8,1011,-18,-22,-9
4414,131,21,996,-14,-13,-6
4415,131,33,999,-9,6,-3
4416,13,55,993,-12,22,1
4417,-97,47,1006,-14,18,1
4418,-134,35,990,-16,4,-3
4419,-58,9,990,-20,-14,-7
4420,66,12,1003,-15,-21,-7
4421,148,19,998,-13,-10,-6
4422,109,37,999,-11,10,0
4423,-7,59,1000,-11,23,2
4424,-111,40,1013,-14,18,0
4425,-130,30,976,-15,0,-2
4426,-27,12,989,-19,-19,-7
4427,90,12,1008,-14,-20,-7
4428,141,25,1000,-14,-5,-4
4429,94,37,996,-10,15,-1
4430,-31,54,1011,-11,25,2
4431,-127,42,992,-17,17,1
4432,-111,29,978,-16,-4,-5
4433,-11,14,998,-19,-18,-7
4434,109,18,1003,-17,-18,-6
4435,140,26,996,-14,-1,-4
4436,68,33,1007,-11,17,2
4437,-56,50,997,-12,23,2
4438,-133,33,991,-15,12,-1
4439,-94,30,981,-14,-9,-5
4440,8,16,1003,-19,-20,-8
4441,124,25,1005,-16,-17,-8
4442,137,29,998,-14,2,-2
4443,48,48,990,-12,20,1
4444,-75,36,1012,-15,21,2
4445,-137,36,979,-15,6,-2
4446,-84,14,992,-18,-13,-4
4447,47,7,1003,-15,-23,-9
4448,131,27,1000,-13,-12,-5
4449,132,36,997,-10,5,-3
4450,17,58,1002,-10,22,2
4451,-88,47,998,-16,20,0
4452,-137,29,995,-16,5,-3
4453,-58,13,992,-19,-16,-5
4454,64,1,1001,-17,-20,-7
4455,140,25,998,-11,-10,-6
4456,118,30,1003,-11,10,-2
4457,-10,62,1001,-7,25,1
4458,-114,50,1006,-12,20,0
4459,-126,39,983,-17,0,-4
4460,-37,7,986,-19,-17,-5
4461,84,18,1002,-18,-21,-8
4462,141,19,1008,-15,-6,-5
4463,87,40,993,-10,14,0
4464,-26,51,1015,-12,22,0
4465,-121,30,987,-13,15,0
4466,-114,32,986,-14,-3,-4
4467,-10,12,990,-16,-20,-7
4468,102,26,1008,-14,-18,-7
4469,145,30,999,-13,-3,-5
4470,69,39,1003,-14,18,1
4471,-53,48,1008,-13,23,1
4472,-133,34,981,-16,12,0
4473,-95,18,991,-18,-8,-5
4474,11,11,994,-17,-20,-5
4475,122,28,1014,-13,-15,-6
4476,140,32,992,-11,2,-3
4477,43,47,998,-10,21,1
4478,-69,49,1004,-14,21,0
4479,-144,28,989,-16,7,-2
4480,-73,18,984,-16,-13,-6
4481,40,9,1007,-16,-21,-6
4482,127,25,998,-11,-14,-6
4483,135,33,997,-10,5,-3
4484,16,55,1000,-12,22,2
4485,-92,48,1000,-15,20,1
4486,-135,27,993,-16,4,-3
4487,-55,15,987,-18,-15,-4
4488,62,16,1002,-16,-19,-6
4489,147,20,996,-13,-8,-7
4490,111,38,1010,-12,11,-1
4491,-13,60,993,-10,23,2
4492,-110,44,1015,-15,18,-2
4493,-122,29,977,-18,0,-3
4494,-40,13,987,-18,-15,-5
4495,92,12,1006,-15,-20,-8
4496,129,24,1002,-12,-5,-4
4497,100,37,1000,-11,13,-2
4498,-33,46,1005,-12,23,1
4499,-124,43,996,-15,15,-1
4500,-107,20,979,-16,-3,-4
4501,-21,18,993,-15,-19,-7
4502,104,22,1006,-16,-20,-7
4503,143,35,1002,-11,-2,-6
4504,71,41,1002,-11,17,0
4505,-50,45,1002,-12,23,1
4506,-125,27,989,-15,11,-2
4507,-101,9,983,-17,-7,-4
4508,4,22,997,-14,-20,-6
4509,119,22,1016,-14,-17,-7
4510,135,35,986,-10,2,-3
4511,48,51,1001,-10,20,1
4512,-68,50,1007,-13,21,0
4513,-138,32,979,-17,9,-1
4514,-75,15,985,-18,-11,-6
4515,32,14,1009,-19,-21,-6
4516,136,13,1000,-14,-14,-6
4517,129,37,994,-8,6,-3
4518,24,57,999,-12,19,1
4519,-89,45,1005,-14,20,-1
4520,-135,32,984,-17,4,-2
4521,-69,14,996,-17,-14,-5
4522,61,18,994,-16,-22,-7
4523,139,18,1003,-14,-11,-5
4524,119,37,995,-10,9,-1
4525,-3,48,1010,-11,23,0
4526,-104,43,997,-13,17,0
4527,-131,28,992,-14,1,-2
4528,-38,16,977,-16,-17,-7
4529,82,14,1009,-14,-20,-6
4530,137,32,995,-14,-7,-5
4531,95,44,1010,-14,12,-1
4532,-24,47,993,-11,23,0
4533,-118,37,1003,-15,17,1
4534,-111,20,973,-16,-3,-3
4535,-26,9,997,-17,-20,-7
4536,99,24,996,-14,-20,-7
4537,138,28,1010,-11,-3,-3
4538,79,45,1001,-11,14,0
4539,-44,49,1002,-11,22,1
4540,-124,39,988,-15,13,-1
4541,-100,16,985,-19,-7,-4
4542,-2,19,997,-14,-19,-7
4543,113,22,1009,-14,-18,-5
4544,131,32,998,-13,1,-4
4545,59,50,1003,-11,17,0
4546,-67,43,995,-15,22,3
4547,-130,30,988,-16,9,-2
4548,-85,10,989,-16,-11,-4
4549,27,28,1000,-14,-21,-7
4550,134,17,1005,-15,-15,-7
4551,126,44,996,-11,5,-2
4552,27,51,1001,-14,19,1
4553,-80,45,1001,-16,19,0
4554,-137,25,991,-17,6,-2
4555,-61,10,991,-18,-13,-7
4556,61,10,1000,-15,-20,-7
4557,133,25,994,-11,-11,-5
4558,119,45,1007,-11,9,-1
4559,-1,53,997,-12,23,2
4560,-106,49,1007,-15,19,0
4561,-122,20,980,-19,0,-5
4562,-45,12,989,-18,-16,-6
4563,78,8,996,-17,-21,-6
4564,138,27,1010,-13,-7,-5
4565,102,39,996,-12,12,-2
4566,-21,54,1001,-10,22,1
4567,-119,40,1002,-15,15,-1
4568,-116,23,976,-16,-3,-3
4569,-22,13,989,-17,-19,-8
4570,94,19,1011,-16,-21,-7
4571,137,30,999,-12,-5,-4
4572,81,41,1008,-11,16,0
4573,-43,53,997,-13,22,1
4574,-125,30,990,-15,13,-1
4575,-100,19,983,-16,-7,-5
4576,-2,10,995,-16,-20,-5
4577,115,32,1012,-11,-16,-7
4578,139,30,1006,-13,-1,-4
4579,59,51,988,-10,18,1
4580,-66,45,1011,-14,22,2
4581,-130,28,984,-16,9,-2
4582,-91,16,988,-17,-10,-5
4583,28,11,998,-17,-21,-7
4584,128,21,1016,-14,-15,-6
4585,129,37,987,-9,4,-3
4586,27,56,1005,-11,19,1
4587,-79,43,1006,-14,19,-1
4588,-139,30,986,-15,6,-3
4589,-60,16,997,-19,-13,-7
4590,55,17,997,-16,-21,-7
4591,134,22,1000,-14,-11,-6
4592,121,37,1002,-12,8,-4
4593,0,51,999,-12,22,1
4594,-102,43,1006,-13,17,-2
4595,-122,19,981,-17,1,-4
4596,-51,12,985,-15,-14,-5
4597,78,21,999,-15,-20,-8
4598,134,23,1012,-13,-8,-4
4599,98,52,995,-10,11,0
4600,-17,43,1008,-13,23,0
4601,-118,43,992,-14,16,0
4602,-110,20,987,-18,-4,-3
4603,-22,6,983,-18,-17,-8
4604,87,23,1011,-13,-18,-5
4605,143,25,1000,-12,-5,-5
4606,77,52,1006,-10,16,0
4607,-39,43,997,-12,22,1
4608,-121,41,994,-13,14,-1
4609,-106,16,981,-17,-6,-5
4610,0,16,995,-16,-19,-7
