sequence,AccelerometerX,AccelerometerY,AccelerometerZ,GyroscopeX,GyroscopeY,GyroscopeZ
0,-107,23,981,-13,23,3
1,-170,5,988,-20,7,-4
2,-97,-8,980,-10,-15,-7
3,36,15,998,-10,-23,-9
4,159,36,1018,-16,-15,-9
5,138,38,1007,-3,7,-4
6,9,33,999,-18,22,2
7,-131,4,981,-25,22,4
8,-163,5,984,-14,0,-5
9,-62,-3,981,-14,-21,-7
10,74,30,1019,-6,-21,-9
11,175,34,1010,-22,-8,-7
12,108,49,996,-9,15,0
13,-36,31,997,-18,23,3
14,-151,14,993,-20,17,1
15,-157,-12,978,-14,-3,-5
16,-20,-3,1006,-19,-22,-8
17,118,23,1003,-9,-20,-10
18,170,43,1006,-10,-1,-6
19,74,40,1006,-16,20,1
20,-71,33,1002,-13,26,3
21,-162,-3,986,-18,12,-2
22,-132,-9,976,-14,-10,-7
23,4,3,999,-10,-22,-9
24,135,35,1009,-11,-16,-9
25,164,44,1006,-12,3,-5
26,48,47,1014,-15,22,1
27,-103,24,984,-19,24,2
28,-170,0,985,-20,7,-3
29,-112,-5,973,-18,-15,-6
30,32,0,1008,-11,-24,-10
31,166,29,1014,-12,-16,-7
32,143,42,1005,-11,9,-2
33,21,37,1002,-15,24,1
34,-134,15,991,-16,22,2
35,-169,0,975,-16,1,-3
36,-73,-6,995,-14,-18,-6
37,76,21,1003,-13,-24,-10
38,169,31,1021,-11,-9,-8
39,118,40,989,-10,13,-1
40,-36,30,999,-15,26,3
41,-149,0,992,-17,16,0
42,-163,0,980,-13,-5,-2
43,-24,10,999,-12,-22,-10
44,125,32,1004,-12,-20,-10
45,161,47,1008,-12,-2,-5
46,92,40,999,-17,17,-1
47,-91,21,1003,-19,25,3
48,-162,0,988,-15,11,-1
49,-126,-17,980,-15,-11,-6
50,9,4,992,-8,-24,-10
51,142,34,1017,-9,-18,-7
52,144,49,1004,-11,4,-3
53,46,48,1003,-15,20,2
54,-110,24,991,-19,21,2
55,-161,0,982,-19,3,-2
56,-93,-7,975,-18,-15,-6
57,42,-2,1010,-15,-23,-9
58,160,36,1014,-11,-14,-8
59,128,39,1002,-12,9,-3
60,15,43,1002,-11,23,1
61,-112,8,987,-17,22,1
62,-169,5,974,-15,5,-4
63,-72,9,992,-14,-17,-7
64,54,23,1019,-15,-23,-10
65,163,35,1002,-12,-12,-6
66,124,30,999,-18,10,-2
67,-19,28,999,-15,25,2
68,-129,5,989,-18,16,0
69,-158,-1,984,-14,-1,-5
70,-48,11,997,-13,-20,-8
71,101,26,1004,-12,-22,-10
72,158,36,1001,-13,-3,-5
73,86,44,1007,-15,16,2
74,-52,25,1006,-19,23,3
75,-153,1,984,-17,15,-1
76,-133,-2,980,-15,-7,-5
77,6,-2,999,-12,-22,-10
78,124,25,1004,-11,-16,-7
79,148,40,1004,-10,3,-4
80,54,49,1012,-13,21,0
81,-98,22,990,-17,23,3
82,-156,3,977,-16,7,-1
83,-98,-3,987,-16,-14,-6
84,32,7,1000,-12,-22,-9
85,157,35,1013,-11,-13,-8
86,128,38,1011,-13,7,-3
87,9,39,993,-13,22,2
88,-125,8,993,-18,19,1
89,-163,3,974,-16,0,-3
90,-58,-5,998,-14,-17,-8
91,76,23,1008,-10,-21,-10
92,163,40,1015,-11,-8,-6
93,113,38,990,-11,13,-3
94,-45,33,1001,-15,25,4
95,-141,14,991,-15,14,0
96,-150,-5,979,-17,-3,-4
97,-28,5,1002,-14,-20,-9
98,123,16,1002,-12,-20,-10
99,148,44,1004,-9,0,-4
100,88,37,1005,-14,16,0
101,-84,33,1005,-14,26,4
102,-155,2,977,-18,10,0
103,-123,-6,985,-15,-11,-6
104,7,8,991,-12,-22,-8
105,139,31,1012,-12,-17,-8
106,152,47,1012,-13,2,-5
107,44,38,996,-15,22,2
108,-105,19,1002,-17,22,2
109,-161,-9,969,-19,5,-2
110,-98,0,988,-14,-13,-6
111,45,6,1002,-12,-24,-10
112,156,42,1020,-10,-11,-7
113,134,40,995,-13,9,-3
114,4,42,1013,-15,24,2
115,-127,8,978,-17,19,2
116,-168,-6,982,-17,1,-4
117,-56,-4,996,-16,-19,-9
118,74,20,1010,-11,-20,-8
119,167,37,1008,-12,-7,-7
120,114,44,1002,-13,15,-2
121,-38,31,993,-14,26,4
122,-152,10,996,-18,16,0
123,-155,-8,974,-16,-4,-5
124,-25,6,1005,-12,-21,-8
125,114,23,998,-13,-21,-9
126,157,46,1009,-11,0,-5
127,79,42,1007,-13,16,1
128,-72,26,994,-17,25,2
129,-165,-3,987,-16,11,0
130,-122,4,980,-14,-11,-6
131,6,-7,994,-14,-22,-10
132,140,42,1015,-9,-17,-8
133,144,42,1002,-14,4,-3
134,50,44,1011,-12,22,0
135,-110,13,988,-19,23,3
136,-162,1,972,-14,7,-3
137,-97,-12,993,-13,-15,-6
138,41,19,992,-10,-23,-9
139,164,36,1022,-11,-13,-9
140,135,44,1006,-12,9,-2
141,8,38,993,-16,24,4
142,-132,9,991,-17,21,0
143,-171,-3,978,-18,1,-3
144,-61,-12,987,-14,-18,-8
145,82,26,1023,-12,-22,-10
146,169,38,1008,-13,-7,-6
147,115,44,993,-13,14,-2
148,-43,35,1000,-17,25,4
149,-153,9,985,-18,16,1
150,-152,-12,991,-16,-5,-4
151,-21,0,993,-14,-23,-7
152,120,28,1004,-10,-20,-9
153,166,36,1009,-13,-2,-7
154,71,45,1009,-13,19,0
155,-80,27,989,-15,24,3
156,-156,8,988,-17,10,-1
157,-126,-11,983,-15,-11,-4
158,11,6,988,-11,-24,-7
159,141,29,1020,-12,-17,-8
160,150,48,1008,-11,4,-4
161,38,37,1005,-14,22,2
162,-104,18,990,-16,21,2
163,-167,0,977,-15,6,-1
164,-90,-4,982,-14,-16,-7
165,42,14,1004,-12,-23,-9
166,161,30,1016,-9,-12,-9
167,131,40,1002,-11,10,-1
168,4,39,998,-13,23,3
169,-126,1,988,-16,20,1
170,-172,2,977,-15,2,-3
171,-59,0,990,-13,-20,-7
172,78,28,1017,-9,-22,-9
173,169,29,1005,-12,-8,-4
174,105,46,1000,-11,15,1
175,-30,33,996,-14,24,3
176,-149,7,990,-17,16,1
177,-158,-1,980,-14,-4,-3
178,-22,0,1003,-12,-21,-8
179,109,29,998,-10,-20,-8
180,161,33,1008,-14,-1,-4
181,86,42,1010,-13,18,0
182,-70,29,998,-16,25,3
183,-156,-1,984,-14,13,-1
184,-130,0,983,-15,-8,-5
185,0,1,989,-13,-22,-8
186,133,36,1017,-11,-17,-8
187,148,41,1010,-12,3,-4
188,49,46,1002,-12,22,1
189,-95,14,995,-19,21,3
190,-165,2,978,-16,8,-3
191,-100,-7,978,-16,-13,-5
192,31,14,1008,-11,-22,-8
193,147,33,1014,-11,-14,-5
194,145,41,1008,-12,6,-1
195,18,39,997,-15,24,3
196,-113,13,991,-16,20,1
197,-165,-6,980,-14,3,-3
198,-76,2,983,-12,-17,-6
199,60,22,1022,-12,-23,-8
200,166,37,995,-15,-10,-6
201,119,48,1003,-13,12,0
202,-17,42,999,-19,23,3
203,-136,8,993,-20,17,1
204,-154,-8,979,-14,-1,-4
205,-47,-4,998,-16,-20,-7
206,105,18,1000,-10,-22,-11
207,161,44,1006,-11,-4,-5
208,90,46,1010,-16,15,1
209,-52,38,1001,-16,24,2
210,-159,0,990,-18,14,0
211,-135,-5,971,-15,-7,-4
212,-10,-4,996,-16,-23,-9
213,130,28,1010,-13,-20,-9
214,157,45,1009,-13,2,-4
215,64,40,1007,-14,20,0
216,-87,27,993,-17,24,3
217,-160,-3,979,-17,9,-3
218,-112,-2,985,-17,-13,-5
219,25,1,996,-13,-22,-9
220,148,39,1020,-10,-15,-8
221,147,44,1004,-13,6,-4
222,19,33,994,-14,23,1
223,-122,22,999,-15,20,2
224,-162,-5,975,-19,3,-3
225,-73,0,987,-11,-15,-6
226,73,11,1017,-13,-22,-9
227,159,36,1002,-10,-9,-7
228,112,45,995,-11,13,-2
229,-29,35,1004,-14,23,2
230,-139,11,992,-16,17,-1
231,-153,-9,976,-14,-3,-4
232,-25,0,1000,-14,-21,-7
233,108,24,1005,-9,-19,-8
234,150,44,1000,-10,-2,-4
235,84,50,1014,-13,16,0
236,-65,26,999,-18,23,3
237,-156,6,981,-18,13,1
238,-125,-17,982,-15,-9,-4
239,2,4,995,-13,-20,-7
240,131,30,1005,-12,-16,-8
241,155,53,1015,-9,3,-5
242,47,48,1009,-15,22,2
243,-94,19,985,-18,22,1
244,-161,-2,983,-18,6,-4
245,-109,-15,985,-17,-14,-4
246,17,16,998,-11,-23,-8
247,158,30,1016,-13,-16,-8
248,146,46,1007,-12,6,-1
249,29,44,992,-14,22,3
250,-120,12,998,-16,22,1
251,-173,0,980,-16,5,-2
252,-73,-6,986,-16,-16,-7
253,60,20,1007,-12,-22,-8
254,165,39,1013,-11,-11,-8
255,118,43,995,-15,12,-1
256,-26,42,1005,-16,25,3
257,-131,0,990,-20,16,0
258,-161,-1,987,-14,0,-3
259,-35,-10,989,-15,-20,-7
260,102,22,1000,-10,-20,-9
261,160,41,1008,-10,-4,-6
262,83,55,1010,-12,16,0
263,-64,31,992,-18,23,1
264,-151,2,998,-18,12,-3
265,-127,-11,965,-17,-9,-5
266,-7,1,998,-11,-22,-8
267,129,30,1018,-12,-20,-9
268,152,43,1006,-13,1,-4
269,69,40,1007,-14,20,-1
270,-88,25,996,-16,24,2
271,-168,4,979,-16,11,-3
272,-115,-7,978,-16,-11,-6
273,13,9,1002,-12,-23,-9
274,148,23,1017,-11,-16,-7
275,146,40,998,-11,5,-4
276,36,32,999,-14,21,2
277,-101,22,1001,-14,22,0
278,-172,2,976,-16,8,-3
279,-80,0,983,-13,-15,-6
280,38,22,1014,-11,-20,-5
281,145,36,998,-11,-10,-5
282,126,39,1006,-12,8,-3
283,-11,35,998,-17,21,2
284,-118,6,1001,-15,16,-1
285,-146,-5,982,-16,0,-5
286,-50,-3,989,-13,-16,-7
287,87,23,1002,-9,-20,-8
288,137,43,1004,-12,-4,-5
289,87,44,1009,-14,13,-1
290,-43,32,1000,-19,20,2
291,-140,-4,996,-18,12,-1
292,-116,-14,973,-13,-6,-6
293,-11,0,993,-11,-19,-8
294,121,35,1015,-9,-17,-8
295,142,52,1008,-11,3,-4
296,54,49,1003,-15,19,0
297,-93,30,995,-18,22,1
298,-155,-9,977,-19,8,-3
299,-100,-14,987,-16,-12,-6
300,25,3,1000,-12,-22,-7
301,142,34,1018,-9,-13,-6
302,147,46,998,-12,6,-4
303,5,43,996,-15,23,4
304,-110,25,994,-17,17,-1
305,-165,-1,980,-22,1,-2
306,-68,0,988,-15,-18,-7
307,73,6,1010,-18,-22,-8
308,158,28,1003,-13,-8,-7
309,114,36,1003,-13,12,-2
310,-25,37,997,-15,25,2
311,-152,8,999,-16,17,1
312,-143,11,979,-13,-3,-6
313,-44,0,991,-15,-20,-5
314,117,31,1006,-12,-23,-9
315,156,38,1005,-17,-4,-5
316,99,41,1013,-14,17,-3
317,-76,20,997,-19,25,4
318,-166,-1,985,-16,12,-3
319,-129,-21,971,-15,-10,-7
320,-4,6,992,-12,-22,-7
321,142,36,1021,-9,-19,-9
322,163,46,1005,-12,4,-4
323,45,48,1009,-15,23,3
324,-90,14,983,-17,22,1
325,-178,0,986,-14,10,-2
326,-91,-9,977,-15,-16,-6
327,36,7,1017,-11,-23,-10
328,155,30,1005,-9,-12,-8
329,135,42,1008,-11,8,-2
330,4,43,994,-14,24,1
331,-133,19,996,-17,20,2
332,-162,4,978,-16,-1,-4
333,-60,-7,993,-18,-19,-6
334,77,23,1006,-11,-23,-8
335,174,29,1006,-13,-8,-7
336,110,42,1001,-14,14,0
337,-31,35,1003,-17,25,3
338,-135,8,996,-16,16,-3
339,-158,0,981,-15,-2,-3
340,-36,-5,989,-15,-21,-7
341,98,21,1002,-10,-21,-8
342,157,36,1007,-10,-5,-5
343,93,51,1011,-13,15,0
344,-68,30,996,-4,24,1
345,-144,9,986,-10,13,-3
346,-127,-11,981,-19,-8,-4
347,-1,5,984,-11,-21,-8
348,135,21,1027,-14,-18,-8
349,153,49,999,-10,2,-3
350,41,36,1008,-15,20,2
351,-95,27,988,-18,21,1
352,-173,-2,984,-17,7,-2
353,-92,0,977,-17,-15,-7
354,43,9,1010,-13,-21,-10
355,155,33,1016,-10,-12,-7
356,135,41,996,-13,9,-2
357,3,36,997,-16,24,1
358,-137,8,997,-16,19,2
359,-159,2,979,-15,0,-4
360,-58,-4,993,-15,-17,-7
361,84,24,1007,-11,-22,-9
362,169,32,1007,-12,-6,-6
363,103,40,1001,-12,15,1
364,-50,37,1001,-15,24,3
365,-149,5,996,-17,15,-1
366,-147,-1,980,-16,-5,-3
367,-16,-1,982,-15,-21,-8
368,122,22,1021,-11,-21,-8
369,158,47,1001,-12,-1,-4
370,69,43,1005,-14,20,1
371,-92,33,1003,-16,23,4
372,-156,-1,975,-18,9,-2
373,-121,-3,976,-16,-11,-6
374,18,3,1008,-15,-24,-9
375,144,31,1009,-10,-16,-8
376,152,41,1005,-12,6,-5
377,44,41,1010,-14,23,1
378,-106,17,983,-17,23,2
379,-168,3,983,-16,7,-3
380,-104,-2,981,-16,-14,-8
381,42,15,1015,-13,-23,-8
382,156,26,1008,-12,-12,-8
383,136,42,994,-12,8,-2
384,9,42,1010,-15,23,2
385,-128,10,986,-17,20,1
386,-161,1,989,-17,1,-4
387,-61,-4,991,-13,-18,-7
388,84,15,1003,-11,-21,-10
389,168,25,1000,-11,-7,-8
390,103,53,1011,-12,14,-1
391,-49,33,999,-17,25,3
392,-140,10,991,-14,15,-1
393,-150,-4,986,-17,-5,-3
394,-7,-4,981,-15,-21,-10
395,123,23,1018,-11,-18,-8
396,153,45,1004,-10,1,-5
397,64,46,1007,-13,20,0
398,-92,21,994,-16,24,2
399,-167,2,985,-17,10,-2
400,-103,-9,973,-15,-13,-8
401,28,4,1009,-13,-23,-9
402,150,33,1008,-12,-15,-6
403,141,46,1009,-10,8,-4
404,18,36,1003,-15,23,3
405,-128,23,985,-16,22,1
406,-167,-6,975,-17,2,-4
407,-74,0,998,-14,-18,-6
408,70,8,1004,-12,-23,-10
409,168,33,1014,-11,-8,-6
410,113,41,1000,-12,12,0
411,-22,40,994,-12,25,1
412,-150,9,994,-17,17,1
413,-163,-5,979,-16,-3,-3
414,-33,0,1005,-12,-21,-8
415,104,17,993,-11,-22,-8
416,159,35,1012,-10,-3,-4
417,99,49,1004,-13,15,-2
418,-67,35,995,-17,25,2
419,-147,18,994,-16,11,-1
420,-136,-12,984,-20,-7,-5
421,-8,-2,982,-15,-21,-9
422,132,18,1016,-11,-19,-9
423,154,39,1002,-11,1,-5
424,56,44,1010,-12,20,1
425,-86,26,995,-16,23,2
426,-169,4,980,-16,9,-1
427,-95,2,981,-15,-14,-8
428,30,2,998,-15,-22,-8
429,143,34,1012,-13,-13,-8
430,144,32,1009,-13,8,-3
431,8,33,999,-14,25,2
432,-124,21,984,-16,20,3
433,-158,2,985,-16,1,-5
434,-79,0,989,-16,-17,-6
435,75,18,1008,-12,-23,-8
436,161,35,1017,-13,-8,-7
437,110,39,992,-13,12,-2
438,-35,33,996,-16,24,3
439,-147,16,992,-17,14,1
440,-152,-3,981,-16,-4,-3
441,-23,9,1006,-12,-22,-7
442,113,11,997,-14,-20,-9
443,157,32,1007,-9,-1,-5
444,88,48,1004,-13,17,2
445,-80,27,1000,-17,26,2
446,-164,6,988,-15,11,0
447,-125,1,979,-15,-11,-6
448,6,-6,996,-13,-22,-9
449,140,36,1011,-9,-18,-9
450,151,33,1010,-13,3,-4
451,47,45,1002,-11,23,1
452,-114,14,995,-17,23,4
453,-161,2,981,-15,5,-4
454,-98,-5,981,-14,-13,-7
455,45,16,1008,-12,-23,-9
456,160,37,1012,-11,-12,-8
457,142,43,1009,-13,10,-3
458,-2,35,991,-16,24,4
459,-132,8,993,-16,19,2
460,-162,-4,981,-16,0,-3
461,-68,8,986,-12,-18,-6
462,92,15,1018,-14,-24,-10
463,160,33,1010,-12,-7,-5
464,124,44,989,-12,14,-1
465,-43,33,1004,-19,28,3
466,-145,12,989,-16,16,0
467,-158,-8,984,-18,-3,-4
468,-24,-4,997,-13,-23,-7
469,113,21,1008,-9,-20,-9
470,169,36,996,-12,-3,-6
471,83,52,1020,-11,18,-1
472,-75,30,990,-18,26,3
473,-148,7,994,-17,12,-3
474,-137,-10,975,-17,-9,-4
475,0,11,988,-11,-22,-9
476,125,24,1022,-13,-18,-8
477,151,48,996,-12,3,-4
478,62,33,1015,-17,21,-1
479,-93,20,987,-15,24,0
480,-160,1,977,-15,9,-2
481,-109,-4,985,-13,-13,-6
482,26,19,1003,-12,-22,-9
483,156,30,1014,-12,-15,-8
484,134,44,1003,-13,6,-2
485,13,30,998,-19,23,2
486,-117,16,988,-17,18,0
487,-172,-2,982,-17,1,-2
488,-59,-7,984,-15,-17,-7
489,73,21,1026,-13,-21,-9
490,167,27,991,-10,-8,-5
491,109,52,1011,-10,14,-3
492,-33,32,992,-17,24,3
493,-153,23,991,-17,16,1
494,-149,-11,985,-17,-6,-5
495,-25,-7,999,-14,-21,-8
496,119,16,1000,-11,-22,-8
497,159,36,1002,-10,-2,-4
498,79,49,1013,-12,17,1
499,-84,31,994,-16,25,4
500,-163,14,985,-17,11,-1
501,-114,-11,985,-20,-13,-6
502,3,2,991,-14,-22,-8
503,149,29,1013,-13,-18,-9
504,152,39,1016,-14,5,-5
505,48,29,1000,-15,24,1
506,-103,18,993,-13,24,2
507,-167,0,975,-13,8,-3
508,-110,11,980,-13,-13,-5
509,35,19,1005,-14,-25,-10
510,160,46,1023,-15,-16,-7
511,143,33,996,-15,8,-3
512,10,28,999,-16,25,2
513,-122,6,992,-17,20,2
514,-172,-5,976,-15,4,-4
515,-73,2,991,-13,-18,-7
516,80,31,1016,-11,-22,-8
517,161,34,1000,-13,-7,-6
518,121,50,1003,-14,12,-3
519,-41,35,995,-18,25,4
520,-142,1,995,-19,16,-3
521,-161,-12,983,-18,-4,-4
522,-21,0,999,-12,-21,-9
523,121,20,997,-11,-20,-8
524,158,45,1008,-11,0,-6
525,78,42,1014,-14,17,0
526,-72,30,992,-14,25,1
527,-174,3,988,-16,12,-1
528,-111,0,975,-17,-12,-7
529,-2,-2,1001,-14,-20,-7
530,147,29,1008,-9,-17,-8
531,149,41,1013,-12,5,-3
532,45,42,1000,-15,22,1
533,-107,21,996,-16,23,3
534,-173,2,968,-15,8,-1
535,-98,-1,995,-17,-17,-7
536,42,11,999,-12,-26,-8
537,153,30,1018,-13,-14,-7
538,158,32,1003,-11,8,-4
539,0,37,991,-15,26,2
540,-125,15,999,-16,22,1
541,-180,3,982,-14,2,-3
542,-74,2,982,-16,-18,-8
543,76,14,1019,-12,-23,-9
544,171,31,998,-13,-11,-7
545,128,38,1005,-13,13,-2
546,-25,28,1002,-15,26,2
547,-153,13,996,-14,19,1
548,-159,0,975,-14,-3,-5
549,-52,0,993,-14,-21,-6
550,117,37,998,-11,-25,-9
551,161,30,1020,-14,-5,-4
552,105,50,1001,-12,14,-2
553,-68,11,1009,-19,27,3
554,-161,9,977,-13,13,-3
555,-148,-15,975,-14,-8,-4
556,-5,13,992,-11,-24,-10
557,134,31,1020,-15,-19,-7
558,172,50,1002,-11,2,-5
559,52,43,1014,-17,22,2
560,-90,19,985,-17,23,0
561,-181,-4,984,-17,9,0
562,-103,-9,977,-14,-15,-7
563,32,4,1011,-13,-23,-9
564,161,31,1012,-11,-15,-5
565,144,51,1001,-12,8,-2
566,17,44,997,-14,24,2
567,-125,12,998,-16,21,2
568,-179,0,974,-18,1,-1
569,-60,-3,996,-14,-20,-8
570,81,15,1008,-11,-23,-9
571,165,36,1000,-10,-7,-5
572,114,49,1007,-12,14,-1
573,-45,31,997,-17,25,3
574,-145,13,995,-15,14,0
575,-149,-8,984,-17,-6,-4
576,-16,0,985,-12,-21,-9
577,120,20,1010,-10,-19,-9
578,153,41,1006,-10,0,-5
579,73,47,1007,-14,19,1
580,-88,26,1000,-15,24,2
581,-156,2,977,-18,8,-1
582,-114,-10,983,-15,-11,-5
583,18,15,995,-12,-23,-8
584,145,28,1014,-12,-15,-8
585,143,45,1006,-12,7,-3
586,25,38,1002,-14,23,2
587,-112,7,986,-16,21,1
588,-169,1,978,-14,4,-2
589,-77,-3,986,-13,-17,-7
590,56,19,1014,-11,-23,-10
591,160,41,1007,-11,-10,-6
592,132,44,1006,-14,10,-2
593,-25,36,988,-16,25,5
594,-142,15,995,-19,16,1
595,-160,-10,980,-16,-4,-5
596,-41,-2,1002,-15,-22,-7
597,107,12,1002,-12,-25,-9
598,174,41,1009,-9,-3,-8
599,90,47,1005,-13,17,2
600,-50,43,1003,-16,23,2
601,-146,-3,988,-18,14,-1
602,-149,0,987,-15,-6,-4
603,-4,-3,983,-13,-23,-8
604,127,22,1014,-13,-19,-10
605,154,33,1006,-13,0,-2
606,67,51,1002,-12,20,1
607,-79,15,1004,-18,24,1
608,-163,6,972,-14,12,0
609,-120,-6,976,-16,-11,-5
610,15,16,1003,-12,-22,-11
611,144,28,1013,-14,-15,-6
612,147,46,1001,-12,6,-4
613,28,29,1010,-18,23,1
614,-120,4,982,-16,21,2
615,-158,1,982,-14,4,-3
616,-82,-5,985,-13,-15,-6
617,60,29,1013,-8,-21,-9
618,156,32,1008,-11,-9,-8
619,114,52,997,-10,12,-2
620,-17,38,998,-17,23,3
621,-141,14,991,-18,17,1
622,-154,-2,979,-16,-3,-4
623,-45,-7,1000,-15,-21,-8
624,104,21,1000,-11,-21,-9
625,160,34,1005,-11,-4,-5
626,92,49,1008,-14,15,-1
627,-64,32,994,-18,24,2
628,-150,4,996,-18,12,-2
629,-138,-5,973,-16,-8,-4
630,2,-3,995,-14,-23,-10
631,125,30,1010,-11,-19,-7
632,151,49,1010,-12,1,-5
633,64,39,1007,-15,20,0
634,-106,29,998,-18,23,3
635,-153,-3,976,-19,5,-2
636,-103,-18,988,-17,-15,-6
637,35,-1,995,-11,-24,-9
638,157,33,1021,-10,-12,-7
639,142,47,1009,-12,8,-1
640,22,38,997,-14,24,3
641,-121,16,988,-15,23,0
642,-170,3,974,-18,5,-3
643,-87,6,991,-15,-16,-7
644,60,20,1011,-14,-23,-10
645,171,33,1007,-13,-11,-6
646,124,38,1001,-14,13,0
647,-13,31,992,-16,24,2
648,-135,6,1002,-17,18,-1
649,-157,-2,971,-14,0,-4
650,-55,11,999,-12,-19,-8
651,106,29,1001,-12,-21,-11
652,150,35,1004,-14,-3,-5
653,98,49,1004,-15,15,-1
654,-66,25,1004,-18,26,4
655,-152,4,985,-17,12,-1
656,-122,-8,978,-16,-7,-5
657,0,-3,994,-12,-20,-10
658,130,30,1012,-10,-16,-8
659,143,32,1005,-10,3,-5
660,47,47,1003,-12,22,1
661,-100,22,996,-16,23,3
662,-151,6,978,-15,7,-3
663,-101,-8,978,-18,-13,-5
664,36,19,1007,-10,-22,-9
665,153,24,1017,-12,-13,-8
666,135,38,1000,-14,8,-3
667,5,25,995,-14,24,3
668,-115,26,994,-15,20,0
669,-161,-5,982,-16,3,-3
670,-62,13,976,-12,-17,-6
671,71,14,1024,-13,-22,-10
672,156,38,1001,-10,-8,-6
673,108,35,997,-14,13,-1
674,-33,27,1001,-13,23,2
675,-140,5,996,-15,16,1
676,-144,-5,975,-14,-4,-3
677,-27,2,1000,-11,-19,-8
678,105,34,1001,-11,-20,-7
679,148,42,1006,-23,-1,-3
680,79,43,1008,-22,19,1
681,-74,29,1003,-19,22,3
682,-149,-8,982,-12,11,-2
683,-119,-9,980,-16,-9,-5
684,4,0,993,-11,-21,-8
685,133,33,1012,-7,-16,-8
686,140,45,1019,-12,3,-4
687,44,51,991,-12,21,1
688,-105,15,1001,-16,22,1
689,-154,-2,969,-17,5,-2
690,-94,-7,993,-13,-14,-6
691,40,19,997,-12,-23,-9
692,145,28,1024,-13,-11,-7
693,139,38,998,-11,8,-3
694,2,34,993,-18,23,4
695,-118,8,993,-14,19,1
696,-158,-1,981,-13,2,-3
697,-59,3,988,-14,-17,-5
698,69,26,1010,-12,-19,-8
699,159,36,1010,-13,-8,-5
700,109,44,995,-10,12,-2
701,-32,31,998,-16,24,2
702,-133,4,1000,-18,15,0
703,-143,-6,981,-12,-3,-4
704,-33,0,987,-12,-19,-7
705,100,29,1005,-11,-20,-7
706,152,51,1008,-12,-3,-4
707,81,42,1009,-15,15,1
708,-61,26,997,-18,22,3
709,-142,1,991,-17,10,-3
710,-117,-12,976,-15,-8,-6
711,-15,-1,988,-13,-19,-7
712,125,35,1025,-10,-20,-7
713,148,44,996,-11,2,-4
714,44,43,1008,-15,20,1
715,-81,18,996,-16,20,0
716,-154,0,978,-14,8,-3
717,-96,-12,975,-15,-12,-7
718,24,16,1008,-11,-22,-7
719,132,41,1019,-13,-12,-6
720,131,45,991,-13,6,-2
721,13,39,1002,-17,21,1
722,-110,12,1005,-19,17,1
723,-146,-4,973,-18,1,-6
724,-70,-8,997,-14,-14,-6
725,66,18,1005,-12,-21,-7
726,147,36,1002,-12,-7,-8
727,105,41,999,-12,12,-2
728,-35,43,1010,-15,23,3
729,-125,1,990,-18,13,-2
730,-137,-6,983,-14,-2,-5
731,-32,0,984,-13,-17,-6
732,91,25,1008,-11,-18,-8
733,142,41,1000,-12,-3,-4
734,78,45,1017,-14,16,0
735,-65,23,993,-19,21,2
736,-143,0,983,-17,10,-2
737,-107,-13,983,-16,-10,-7
738,-6,5,990,-12,-21,-6
739,128,36,1017,-9,-17,-8
740,140,46,1013,-13,3,-2
741,40,41,995,-16,19,3
742,-84,19,996,-17,20,0
743,-148,-4,983,-19,6,-2
744,-86,-8,984,-13,-12,-5
745,25,9,1010,-12,-19,-8
746,133,37,1009,-11,-12,-6
747,129,39,997,-12,7,-2
748,23,34,999,-13,20,1
749,-102,12,1001,-15,20,0
750,-149,2,985,-11,5,-5
751,-83,0,985,-15,-13,-6
752,44,16,998,-12,-21,-6
753,130,40,1004,-13,-10,-6
754,121,39,1005,-12,8,-2
755,-3,38,1012,-14,22,1
756,-110,7,993,-17,16,0
757,-132,-11,987,-13,0,-6
758,-57,-8,974,-12,-13,-6
759,61,26,1009,-8,-17,-5
760,132,55,1005,-11,-6,-4
761,90,45,1009,-16,12,-1
762,-33,46,1005,-16,20,0
763,-114,-8,983,-19,12,-5
764,-111,-10,980,-14,-4,-5
765,-31,-6,989,-13,-15,-5
766,98,21,1012,-8,-15,-8
767,128,47,1008,-10,0,-3
768,56,43,1000,-13,15,-1
769,-62,30,995,-15,19,-2
770,-131,11,990,-19,8,-3
771,-92,-3,983,-15,-9,-5
772,16,15,995,-14,-19,-7
773,106,22,1019,-12,-12,-5
774,130,45,996,-12,3,-4
775,4,34,994,-17,19,2
776,-95,21,1002,-18,15,0
777,-126,-12,992,-17,1,-5
778,-55,-3,986,-12,-14,-6
779,59,12,996,-10,-18,-7
780,129,40,1009,-10,-6,-6
781,84,48,1010,-14,11,0
782,-33,44,994,-17,20,0
783,-121,8,999,-18,12,-3
784,-117,0,977,-18,-4,-5
785,-19,-8,987,-16,-17,-6
786,95,22,1013,-12,-16,-6
787,131,40,1004,-14,0,-5
788,65,33,1012,-12,15,-2
789,-74,26,984,-15,21,2
790,-137,6,991,-13,8,-5
791,-87,-4,983,-15,-9,-7
792,-1,9,990,-14,-16,-4
793,120,36,1014,-12,-15,-6
794,133,41,1015,-15,4,-4
795,26,32,981,-15,20,2
796,-99,25,1002,-17,19,1
797,-130,-2,990,-17,3,-6
798,-76,-9,978,-14,-10,-5
799,35,22,1015,-11,-19,-5
800,143,24,1004,-13,-11,-7
801,113,44,1003,-10,9,-2
802,0,33,992,-16,21,2
803,-114,18,1009,-14,18,-2
804,-136,-8,980,-15,1,-6
805,-59,0,988,-13,-13,-6
806,72,13,1001,-12,-19,-7
807,134,40,1002,-11,-7,-5
808,98,44,1008,-16,12,-1
809,-32,31,1007,-16,23,2
810,-119,2,984,-15,15,-1
811,-121,-12,986,-14,-4,-6
812,-21,1,978,-10,-16,-5
813,85,39,1020,-11,-16,-4
814,136,49,998,-14,0,-5
815,59,43,1015,-13,17,1
816,-62,15,985,-17,18,1
817,-133,5,986,-16,9,-3
818,-88,-22,983,-16,-10,-7
819,-2,19,1002,-10,-17,-6
820,116,28,1004,-12,-14,-7
821,129,49,1015,-11,4,-4
822,23,33,984,-15,19,3
823,-91,25,1008,-14,18,0
824,-141,0,984,-17,3,-5
825,-68,0,984,-17,-12,-5
826,39,8,1006,-15,-19,-6
827,136,43,1002,-12,-10,-6
828,109,32,1003,-14,10,-2
829,-10,46,1003,-15,19,2
830,-107,1,995,-21,15,-1
831,-132,2,991,-14,1,-4
832,-47,-6,982,-16,-15,-6
833,70,19,999,-12,-17,-8
834,128,42,1010,-10,-7,-6
835,90,43,1007,-13,12,0
836,-38,29,996,-19,20,0
837,-124,2,997,-16,12,-3
838,-98,-7,969,-14,-5,-7
839,-36,-4,1001,-11,-14,-5
840,92,35,993,-10,-17,-5
841,126,46,1025,-10,-1,-6
842,62,41,989,-14,15,1
843,-61,28,1000,-15,20,1
844,-123,-6,984,-16,7,-5
845,-90,-5,988,-13,-6,-5
846,-3,4,996,-13,-16,-5
847,112,29,1014,-10,-13,-5
848,123,42,999,-12,4,-3
849,28,39,998,-14,17,0
850,-84,22,1004,-16,17,-1
851,-129,1,989,-14,4,-5
852,-79,-3,986,-12,-11,-3
853,38,13,994,-14,-18,-6
854,118,35,1006,-10,-11,-6
855,112,47,1006,-13,7,-2
856,-5,34,1004,-15,20,2
857,-96,16,994,-17,15,-2
858,-128,-10,990,-15,1,-5
859,-57,-2,977,-12,-13,-4
860,58,27,1000,-13,-19,-5
861,127,41,1011,-12,-8,-5
862,98,53,1010,-13,11,-2
863,-22,26,1003,-17,22,0
864,-117,2,984,-15,15,-5
865,-120,-14,986,-16,-4,-6
866,-40,3,979,-14,-16,-4
867,70,29,1014,-13,-17,-7
868,140,45,1005,-13,-5,-5
869,77,42,1013,-14,14,0
870,-44,22,983,-17,19,0
871,-137,0,997,-17,12,-5
872,-101,-8,981,-16,-7,-6
873,0,8,997,-13,-17,-7
874,104,19,1008,-11,-14,-4
875,131,51,1000,-10,3,-4
876,22,33,1000,-14,18,2
877,-82,24,995,-14,18,0
878,-133,0,993,-17,5,-4
879,-60,-10,986,-14,-12,-6
880,45,14,998,-11,-18,-4
881,125,33,998,-10,-7,-5
882,92,42,1018,-12,9,-3
883,-25,41,995,-12,20,2
884,-110,12,997,-16,14,-2
885,-105,-4,983,-17,-2,-5
886,-40,0,986,-15,-12,-5
887,86,21,1003,-11,-17,-7
888,128,45,1016,-12,-2,-6
889,70,40,996,-14,15,-1
890,-58,25,1001,-16,20,0
891,-121,1,985,-17,10,-5
892,-94,-19,980,-12,-4,-6
893,-22,16,992,-10,-16,-4
894,106,40,1012,-13,-16,-6
895,127,56,1014,-11,2,-5
896,43,39,990,-17,17,0
897,-78,24,1000,-17,18,-2
898,-127,-10,985,-18,5,-6
899,-87,-14,982,-14,-8,-4
900,13,17,1001,-13,-17,-4
901,120,36,1016,-12,-13,-8
902,117,58,997,-12,5,-4
903,8,34,996,-17,19,1
904,-90,26,999,-17,15,-4
905,-130,-10,994,-19,2,-7
906,-70,-10,984,-17,-13,-5
907,55,11,991,-12,-19,-7
908,124,44,1017,-12,-8,-7
909,105,39,1002,-14,8,-2
910,-32,47,1005,-16,19,2
911,-112,11,984,-19,11,-3
912,-111,-3,994,-17,-3,-6
913,-27,-13,971,-18,-15,-6
914,81,23,1025,-11,-16,-5
915,137,41,1001,-13,-2,-7
916,60,37,1012,-14,18,0
917,-55,24,992,-13,18,2
918,-128,1,990,-15,11,-4
919,-89,-5,979,-16,-7,-7
920,-2,7,997,-13,-15,-4
921,116,44,1013,-11,-13,-7
922,118,41,1011,-13,4,-4
923,28,41,990,-13,18,1
924,-86,12,1002,-20,17,-2
925,-136,-3,985,-17,5,-4
926,-70,-9,989,-18,-12,-5
927,37,16,1001,-12,-18,-5
928,126,30,1009,-10,-10,-6
929,107,44,993,-12,8,-2
930,-15,44,1007,-14,18,2
931,-108,18,991,-16,13,-2
932,-124,-5,993,-16,0,-5
933,-46,0,985,-16,-14,-5
934,79,21,998,-11,-17,-6
935,132,34,1010,-14,-5,-4
936,78,42,1004,-13,13,0
937,-41,30,1002,-15,20,1
938,-124,9,988,-15,12,-2
939,-113,-6,977,-13,-6,-5
940,-13,8,994,-14,-18,-6
941,104,30,1012,-12,-16,-6
942,132,43,1006,-13,2,-4
943,54,39,1003,-17,15,0
944,-86,21,993,-15,21,1
945,-131,-8,981,-16,5,-5
946,-83,-6,995,-13,-11,-6
947,17,8,993,-11,-18,-5
948,135,44,1026,-11,-12,-6
949,118,47,990,-13,7,-2
950,10,37,998,-15,21,0
951,-102,14,999,-16,15,-2
952,-142,-1,984,-16,3,-4
953,-62,-15,990,-12,-13,-6
954,60,24,1007,-11,-19,-6
955,135,29,999,-10,-6,-6
956,105,52,1003,-10,13,0
957,-32,36,1007,-17,21,3
958,-127,16,988,-15,14,-2
959,-131,-12,988,-16,-4,-6
960,-28,0,983,-15,-18,-5
961,82,22,1007,-12,-18,-5
962,148,40,1000,-13,-5,-8
963,71,51,1018,-15,15,0
964,-56,27,991,-18,20,2
965,-135,2,988,-17,11,-5
966,-109,-18,981,-14,-9,-6
967,-2,5,989,-12,-19,-7
968,112,33,1018,-14,-16,-7
969,146,40,1003,-13,2,-4
970,36,47,1005,-15,20,3
971,-89,21,986,-17,19,1
972,-148,2,991,-16,4,-6
973,-82,-4,979,-17,-13,-6
974,42,7,1011,-13,-20,-9
975,135,34,1010,-10,-11,-7
976,127,40,1001,-13,9,-4
977,-8,37,989,-14,23,1
978,-118,19,998,-18,16,-2
979,-142,0,994,-18,0,-6
980,-49,-3,987,-15,-15,-6
981,79,16,1006,-13,-20,-9
982,151,28,1000,-12,-5,-7
983,86,43,1010,-14,13,-2
984,-52,34,994,-17,22,2
985,-138,6,996,-16,13,-2
986,-125,-2,978,-14,-6,-5
987,-12,2,989,-13,-19,-7
988,107,33,1008,-13,-18,-8
989,136,41,1008,-14,0,-3
990,54,40,1007,-15,17,1
991,-73,18,992,-18,19,0
992,-149,-6,986,-15,7,-2
993,-95,-3,971,-14,-11,-5
994,31,0,1009,-13,-20,-10
995,133,37,1006,-9,-12,-6
996,128,41,1013,-12,7,-4
997,16,39,1001,-15,21,-1
998,-116,18,984,-16,19,2
999,-149,-1,981,-17,2,-5
1000,-66,0,995,-16,-15,-8
1001,76,15,1004,-13,-20,-10
1002,144,33,1016,-11,-6,-5
1003,118,38,993,-13,12,-3
1004,-40,33,1000,-15,25,2
1005,-135,13,986,-16,15,0
1006,-147,-9,989,-17,-1,-4
1007,-22,3,998,-13,-20,-8
1008,103,17,1004,-12,-18,-7
1009,154,41,1001,-9,-1,-7
1010,77,43,1011,-14,16,0
1011,-75,32,990,-15,23,3
1012,-154,5,995,-20,10,-1
1013,-118,-1,974,-16,-10,-6
1014,6,-1,995,-13,-23,-8
1015,134,25,1012,-12,-18,-8
1016,141,42,1010,-12,2,-3
1017,47,36,1005,-12,18,0
1018,-109,25,994,-14,17,1
1019,-155,-2,973,-11,3,-4
1020,-90,2,988,-9,-14,-7
1021,43,13,1002,-19,-23,-9
1022,155,28,1014,-11,-12,-8
1023,136,41,1009,-12,9,-2
1024,-4,30,991,-18,24,4
1025,-119,8,993,-12,19,0
1026,-158,-4,981,-17,1,-5
1027,-55,4,992,-11,-17,-7
1028,86,20,1012,-9,-20,-10
1029,152,43,1000,-12,-5,-6
1030,110,51,1004,-11,14,0
1031,-37,32,998,-17,23,2
1032,-146,6,990,-18,15,-1
1033,-147,-6,989,-14,-4,-5
1034,-21,-5,997,-16,-21,-10
1035,107,16,991,-8,-20,-8
1036,154,31,1014,-10,-2,-7
1037,75,55,1011,-12,17,0
1038,-66,30,990,-15,24,0
1039,-154,9,990,-19,11,-1
1040,-114,-3,977,-16,-9,-4
1041,-3,0,994,-14,-20,-8
1042,137,24,1013,-12,-16,-9
1043,134,33,1010,-10,4,-2
1044,33,44,999,-13,19,1
1045,-95,18,995,-17,19,2
1046,-161,2,977,-14,6,-2
1047,-83,-3,982,-14,-15,-6
1048,49,24,1013,-12,-22,-10
1049,151,27,1009,-14,-11,-6
1050,127,43,1002,-14,10,-3
1051,-3,32,995,-15,24,3
1052,-137,20,993,-16,19,2
1053,-153,-6,976,-17,-2,-5
1054,-50,-2,1002,-13,-19,-6
1055,90,30,1001,-14,-21,-8
1056,167,27,1010,-14,-5,-6
1057,94,44,1000,-13,16,0
1058,-50,31,994,-17,24,2
1059,-148,7,1000,-16,13,-1
1060,-139,2,982,-15,-6,-4
1061,-13,-2,986,-14,-21,-10
1062,125,24,1010,-11,-19,-10
1063,148,34,1010,-11,1,-4
1064,66,47,997,-13,20,1
1065,-94,24,1006,-14,24,2
1066,-146,9,976,-15,9,-1
1067,-121,-11,985,-15,-9,-6
1068,28,12,992,-13,-24,-10
1069,139,31,1025,-12,-14,-9
1070,140,40,994,-13,5,-2
1071,24,38,1012,-14,22,3
1072,-110,6,987,-17,20,2
1073,-168,3,978,-13,4,-1
1074,-67,-4,987,-14,-17,-8
1075,58,17,1013,-9,-21,-9
1076,160,41,1008,-11,-10,-4
1077,123,45,1004,-12,11,-2
1078,-23,35,989,-15,25,4
1079,-141,5,994,-16,16,1
1080,-152,-1,982,-14,-2,-4
1081,-40,-8,1000,-15,-20,-6
1082,106,25,1002,-11,-21,-8
1083,165,30,1008,-11,-3,-4
1084,83,49,1003,-10,18,0
1085,-63,36,998,-15,24,2
1086,-156,7,996,-17,13,-2
1087,-143,-5,975,-17,-8,-5
1088,6,0,990,-13,-24,-10
1089,125,24,1012,-12,-20,-7
1090,154,43,1005,-13,0,-4
1091,63,40,1008,-13,21,1
1092,-98,28,996,-14,24,3
1093,-158,1,978,-16,7,-1
1094,-110,-8,980,-15,-13,-7
1095,25,-1,996,-14,-24,-8
1096,150,38,1021,-10,-17,-7
1097,142,38,1002,-11,7,-2
1098,26,42,1003,-14,23,2
1099,-125,19,987,-17,23,0
1100,-155,-4,980,-14,3,-5
1101,-80,-5,987,-14,-16,-6
1102,61,24,1009,-13,-23,-8
1103,162,31,1019,-13,-11,-8
1104,125,40,994,-12,12,-1
1105,-28,33,991,-13,25,3
1106,-138,14,1001,-17,16,0
1107,-144,-6,981,-15,-2,-5
1108,-48,1,987,-14,-17,-6
1109,102,21,1011,-9,-21,-9
1110,151,40,1005,-10,-3,-6
1111,97,43,999,-14,16,-1
1112,-68,33,1002,-16,25,3
1113,-149,5,994,-16,11,-1
1114,-121,-15,974,-14,-9,-5
1115,-10,5,986,-13,-19,-5
1116,127,36,1021,-10,-19,-7
1117,145,53,1004,-12,2,-4
1118,52,37,1005,-16,19,1
1119,-86,23,995,-16,22,1
1120,-157,-5,978,-16,9,-2
1121,-97,-13,977,-12,-13,-6
1122,21,12,1005,-11,-22,-8
1123,142,44,1014,-10,-14,-7
1124,137,41,1007,-14,6,-3
1125,18,40,995,-16,22,2
1126,-115,15,994,-16,20,1
1127,-149,-9,974,-15,3,-7
1128,-77,0,993,-13,-13,-5
1129,67,18,1008,-11,-21,-8
1130,147,37,1015,-11,-7,-7
1131,115,45,988,-12,12,-1
1132,-26,38,1007,-17,23,2
1133,-128,15,989,-18,17,-3
1134,-147,-12,989,-17,0,-6
1135,-31,-2,990,-14,-19,-8
1136,84,23,1003,-12,-18,-8
1137,150,43,1004,-12,-3,-7
1138,85,45,1013,-15,15,0
1139,-58,26,989,-17,24,1
1140,-144,7,1003,-16,12,-2
1141,-114,0,964,-18,-6,-5
1142,-14,1,996,-13,-18,-8
1143,108,31,1014,-13,-19,-6
1144,138,39,1006,-15,-1,-4
1145,61,29,1002,-15,17,1
1146,-84,13,996,-15,20,3
1147,-141,0,979,-15,7,-4
1148,-90,-7,985,-14,-11,-7
1149,20,22,999,-13,-19,-8
1150,135,44,1016,-13,-12,-8
1151,122,45,1002,-17,6,-4
1152,6,27,989,-19,21,1
1153,-112,9,1002,-17,16,0
1154,-138,-12,983,-15,-1,-5
1155,-56,-2,987,-10,-15,-7
1156,86,20,1014,-11,-19,-10
1157,142,39,1006,-7,-3,-6
1158,91,48,991,-13,14,-1
1159,-49,40,1004,-17,21,1
1160,-131,8,990,-16,12,-1
1161,-133,-4,982,-15,-6,-4
1162,-12,-3,994,-14,-21,-8
1163,113,16,1009,-9,-17,-7
1164,145,40,996,-11,1,-4
1165,58,43,1014,-12,19,0
1166,-77,30,996,-13,23,3
1167,-153,7,987,-17,8,-1
1168,-100,0,971,-12,-11,-6
1169,12,13,1008,-13,-20,-7
1170,136,23,1001,-14,-14,-8
1171,132,42,1019,-11,6,-3
1172,28,27,997,-15,21,2
1173,-109,16,989,-13,21,1
1174,-147,0,979,-15,2,-4
1175,-87,0,988,-13,-13,-4
1176,54,18,1004,-11,-21,-10
1177,139,44,1020,-11,-9,-5
1178,122,41,993,-13,9,-2
1179,-9,27,994,-16,22,2
1180,-132,11,996,-17,16,1
1181,-143,-6,980,-16,-1,-4
1182,-44,1,997,-15,-18,-7
1183,83,27,1004,-11,-20,-6
1184,152,34,1009,-11,-5,-5
1185,85,48,998,-13,13,0
1186,-52,27,996,-16,21,4
1187,-137,0,997,-17,11,-1
1188,-125,-7,985,-13,-6,-4
1189,-1,-2,989,-14,-20,-7
1190,117,29,1010,-10,-17,-9
1191,140,37,1005,-12,1,-5
1192,52,48,1000,-13,18,1
1193,-82,23,1002,-16,22,2
1194,-150,4,981,-15,9,-2
1195,-102,-5,979,-16,-12,-5
1196,23,7,997,-12,-21,-8
1197,139,28,1018,-12,-14,-8
1198,130,39,1008,-9,6,-3
1199,23,38,995,-13,21,2
1200,-118,15,995,-15,20,2
1201,-149,1,973,-15,3,-3
1202,-70,0,994,-16,-16,-6
1203,64,25,1003,-12,-22,-9
1204,149,39,1023,-12,-7,-5
1205,115,34,986,-15,11,-1
1206,-31,24,1000,-14,24,3
1207,-133,12,992,-15,14,0
1208,-143,-5,986,-14,-1,-4
1209,-41,8,993,-10,-18,-7
1210,107,26,1012,-12,-21,-8
1211,152,40,998,-11,-4,-5
1212,79,43,1005,-12,16,1
1213,-56,22,1002,-18,21,1
1214,-156,9,991,-15,13,1
1215,-120,-13,972,-16,-10,-5
1216,0,4,1005,-11,-22,-8
1217,127,28,1002,-10,-17,-8
1218,141,50,1015,-11,3,-3
1219,49,41,998,-14,19,1
1220,-93,27,1005,-17,20,2
1221,-157,-7,972,-17,6,-2
1222,-94,-4,981,-13,-14,-7
1223,32,7,1006,-13,-22,-7
1224,141,35,1006,-12,-13,-6
1225,139,41,1015,-12,6,-2
1226,12,49,997,-14,22,4
1227,-120,14,990,-16,19,2
1228,-158,0,975,-16,2,-4
1229,-71,-3,997,-17,-17,-6
1230,67,10,1006,-12,-23,-9
1231,157,33,1015,-9,-10,-6
1232,119,41,995,-13,11,-1
1233,-26,35,993,-14,25,3
1234,-130,9,998,-15,16,-1
1235,-158,-2,979,-16,0,-2
1236,-25,5,1000,-13,-20,-7
1237,97,20,1004,-14,-19,-8
1238,151,38,997,-11,-2,-5
1239,87,37,1017,-13,17,-2
1240,-65,34,993,-17,23,2
1241,-149,4,987,-16,12,-1
1242,-115,-3,987,-16,-8,-7
1243,-5,1,986,-13,-19,-8
1244,130,39,1012,-11,-16,-7
1245,140,34,1010,-14,5,-5
1246,40,42,1004,-13,22,1
1247,-94,13,993,-18,20,1
1248,-151,1,979,-17,6,-4
1249,-87,-9,984,-15,-13,-4
1250,33,24,1006,-11,-20,-8
1251,145,33,1015,-13,-11,-7
1252,126,49,1005,-10,9,-3
1253,8,32,998,-16,23,2
1254,-123,8,986,-16,19,0
1255,-144,-3,984,-16,1,-4
1256,-63,-6,988,-14,-16,-6
1257,66,26,1014,-12,-20,-8
1258,154,32,1010,-13,-8,-7
1259,98,45,991,-13,12,0
1260,-32,31,999,-16,22,1
1261,-132,16,999,-18,12,-1
1262,-140,-13,974,-19,-4,-4
1263,-26,0,1003,-14,-19,-9
1264,106,15,1009,-13,-19,-7
1265,146,42,988,-8,-1,-5
1266,71,41,1020,-14,17,-1
1267,-77,37,993,-15,22,2
1268,-144,4,992,-17,9,-1
1269,-110,-9,977,-15,-10,-4
1270,5,15,998,-11,-20,-7
1271,138,22,1009,-12,-16,-10
1272,130,44,1014,-13,4,-2
1273,40,40,993,-14,19,2
1274,-100,11,1005,-18,20,1
1275,-153,-6,965,-16,6,-2
1276,-83,0,992,-14,-13,-5
1277,49,11,1006,-13,-21,-11
1278,143,42,1016,-10,-10,-5
1279,125,36,996,-12,10,-3
1280,-10,43,1003,-15,22,3
1281,-120,6,985,-17,16,0
1282,-151,3,982,-14,1,-4
1283,-48,-2,991,-15,-19,-7
1284,78,30,1013,-11,-19,-8
1285,154,22,1009,-13,-5,-6
1286,98,45,988,-10,14,-2
1287,-57,29,1008,-17,24,3
1288,-133,13,986,-16,11,0
1289,-138,-2,991,-16,-7,-4
1290,-10,2,990,-14,-21,-9
1291,116,29,1015,-11,-18,-9
1292,146,39,998,-13,-1,-4
1293,65,44,1005,-15,17,0
1294,-84,26,1002,-18,22,2
1295,-149,3,981,-17,9,-2
1296,-108,-10,984,-17,-12,-6
1297,21,0,995,-12,-22,-9
1298,141,32,1015,-10,-14,-8
1299,139,43,1004,-12,7,-5
1300,20,43,1006,-14,23,3
1301,-108,17,988,-17,19,1
1302,-153,-2,978,-14,5,-4
1303,-79,-2,989,-16,-16,-6
1304,62,15,1008,-9,-21,-10
1305,158,28,1018,-11,-9,-7
1306,110,44,991,-11,12,-1
1307,-13,32,1003,-15,23,1
1308,-130,13,994,-16,16,1
1309,-152,2,975,-16,-1,-4
1310,-34,0,1000,-15,-19,-9
1311,83,30,1011,-11,-19,-7
1312,156,34,997,-12,-5,-5
1313,93,42,1005,-14,15,0
1314,-60,28,993,-18,23,3
1315,-143,1,997,-16,12,-1
1316,-124,-9,983,-15,-7,-6
1317,-10,2,994,-12,-19,-8
1318,127,31,1003,-10,-18,-10
1319,139,42,1010,-12,3,-5
1320,55,49,999,-13,19,1
1321,-92,23,999,-20,22,1
1322,-145,-1,984,-15,6,-3
1323,-104,-9,980,-15,-13,-4
1324,25,9,1000,-14,-23,-9
1325,139,32,1015,-11,-14,-8
1326,137,41,1006,-11,7,-3
1327,10,39,1000,-13,23,3
1328,-110,12,992,-14,19,0
1329,-151,0,979,-14,3,-5
1330,-69,5,985,-14,-15,-6
1331,58,23,1018,-12,-20,-10
1332,150,34,1010,-13,-9,-7
1333,108,36,991,-15,12,-1
1334,-26,24,1001,-16,22,2
1335,-126,5,994,-15,14,1
1336,-142,1,981,-16,-3,-5
1337,-25,2,999,-14,-20,-7
1338,97,31,1009,-11,-18,-9
1339,150,27,999,-14,-3,-7
1340,79,44,1009,-14,16,1
1341,-64,24,990,-16,23,1
1342,-140,8,1003,-13,10,-2
1343,-124,-7,977,-15,-8,-4
1344,3,11,995,-10,-19,-8
1345,120,22,1013,-10,-15,-9
1346,135,51,1003,-13,3,-4
1347,52,33,1010,-15,18,0
1348,-95,22,994,-18,22,3
1349,-146,5,982,-17,7,-3
1350,-88,-11,980,-14,-13,-6
1351,20,16,1004,-12,-21,-9
1352,141,32,1008,-22,-15,-7
1353,128,42,1012,-14,9,-4
1354,9,36,1003,-19,21,2
1355,-109,19,983,-13,19,-1
1356,-151,-5,986,-17,3,-4
1357,-61,4,984,-13,-16,-7
1358,53,17,1010,-10,-17,-8
1359,154,36,1016,-13,-10,-7
1360,103,36,999,-13,12,0
1361,-20,34,986,-15,22,1
1362,-124,7,1011,-19,15,-1
1363,-143,-4,971,-13,-1,-5
1364,-41,4,1003,-14,-18,-9
1365,101,27,1006,-12,-21,-9
1366,147,37,997,-10,-1,-6
1367,84,42,1008,-13,15,-2
1368,-68,28,1002,-15,22,3
1369,-136,3,987,-16,11,-2
1370,-122,-3,982,-16,-7,-7
1371,-3,6,987,-12,-20,-7
1372,119,29,1015,-11,-16,-7
1373,135,44,1003,-12,2,-5
1374,53,38,1002,-16,18,1
1375,-93,23,1001,-15,20,0
1376,-143,-5,975,-14,6,-4
1377,-95,-6,985,-13,-11,-6
1378,26,18,1004,-14,-21,-7
1379,135,37,1014,-11,-13,-8
1380,133,42,1006,-14,5,-3
1381,4,37,996,-15,20,3
1382,-99,13,993,-16,17,-1
1383,-151,-6,983,-17,2,-2
1384,-63,1,983,-12,-16,-7
1385,74,14,1023,-13,-19,-9
1386,143,39,1005,-11,-5,-4
1387,105,40,991,-11,13,-2
1388,-33,32,1004,-15,23,3
1389,-135,16,989,-15,15,0
1390,-129,-12,983,-16,-4,-6
1391,-37,6,999,-12,-18,-5
1392,97,31,1001,-12,-19,-8
1393,148,40,1010,-14,-3,-6
1394,63,36,997,-14,17,1
1395,-56,35,1004,-16,21,1
1396,-145,-5,994,-20,10,-1
1397,-112,-4,969,-12,-9,-5
1398,8,2,1000,-12,-20,-9
1399,120,39,1010,-11,-15,-6
1400,136,43,1007,-12,2,-4
1401,42,41,997,-17,18,0
1402,-105,15,999,-17,21,2
1403,-134,-7,975,-17,4,-4
1404,-92,0,987,-15,-12,-5
1405,43,16,997,-14,-21,-8
1406,143,36,1026,-12,-12,-8
1407,118,39,990,-13,9,-2
1408,-2,33,1003,-14,22,2
1409,-118,13,989,-15,18,0
1410,-147,-2,982,-15,1,-3
1411,-43,1,992,-14,-17,-7
1412,79,23,1015,-13,-19,-7
1413,151,30,1005,-11,-5,-5
1414,96,39,997,-12,13,-1
1415,-51,26,995,-15,23,2
1416,-136,14,997,-17,12,-1
1417,-126,-7,983,-16,-5,-5
1418,-29,3,998,-13,-18,-7
1419,124,29,1005,-12,-19,-9
1420,137,36,1002,-12,1,-4
1421,67,43,1008,-14,18,1
1422,-79,20,997,-18,22,3
1423,-151,7,988,-13,9,-2
1424,-106,-10,976,-16,-10,-6
1425,10,9,996,-10,-19,-8
1426,128,39,1017,-12,-14,-6
1427,136,46,1001,-13,6,-5
1428,32,33,1011,-14,20,1
1429,-100,15,988,-17,19,2
1430,-149,-5,979,-15,5,-4
1431,-82,-14,987,-13,-14,-6
1432,32,28,1003,-7,-21,-6
1433,137,40,1013,-12,-11,-7
1434,128,43,1007,-13,7,-3
1435,4,38,989,-16,22,4
1436,-117,8,1000,-16,17,0
1437,-145,-5,978,-17,-1,-5
1438,-55,-4,994,-13,-16,-7
1439,81,25,1008,-11,-21,-9
1440,146,32,1007,-13,-4,-5
1441,95,44,995,-12,13,-1
1442,-49,29,995,-19,22,4
1443,-134,12,996,-15,12,-4
1444,-128,-9,986,-17,-6,-4
1445,-21,2,993,-12,-19,-9
1446,121,22,998,-11,-19,-10
1447,141,36,1014,-12,0,-6
1448,60,40,1001,-15,17,2
1449,-73,25,1004,-16,22,2
1450,-155,9,981,-17,9,-1
1451,-96,-1,976,-16,-11,-7
1452,15,3,1002,-13,-21,-9
1453,134,35,1014,-13,-13,-7
1454,134,35,1008,-14,6,-4
1455,19,33,1001,-17,21,2
1456,-104,14,990,-17,19,1
1457,-151,-7,979,-15,4,-4
1458,-70,6,989,-13,-14,-7
1459,61,14,1010,-10,-19,-11
1460,148,39,1010,-11,-8,-6
1461,107,36,1004,-12,10,-2
1462,-18,31,983,-14,23,2
1463,-134,8,1006,-16,15,1
1464,-138,1,972,-13,-3,-5
1465,-42,4,1005,-14,-16,-7
1466,104,26,1001,-13,-20,-9
1467,146,31,1008,-12,-2,-5
1468,79,46,990,-13,15,1
1469,-66,25,1008,-18,22,2
1470,-137,0,988,-16,10,-1
1471,-127,3,988,-15,-7,-3
1472,11,3,991,-14,-22,-10
1473,117,33,1008,-10,-14,-6
1474,136,42,1002,-13,2,-3
1475,41,36,1004,-14,18,1
1476,-97,25,998,-17,20,2
1477,-147,-1,985,-16,6,-2
1478,-85,-2,977,-14,-13,-6
1479,34,11,1008,-15,-21,-8
1480,150,33,1013,-12,-13,-7
1481,122,39,1004,-13,10,-2
1482,7,42,995,-13,21,3
1483,-128,16,995,-15,19,0
1484,-142,-1,974,-15,-1,-2
1485,-65,-6,994,-15,-16,-6
1486,70,30,1012,-11,-21,-10
1487,159,23,1015,-13,-9,-7
1488,105,48,994,-13,12,-1
1489,-31,28,993,-15,23,3
1490,-130,15,997,-17,13,-1
1491,-154,0,984,-17,-3,-3
1492,-21,6,994,-14,-21,-8
1493,104,14,1017,-12,-20,-9
1494,155,41,986,-10,-2,-5
1495,75,32,1016,-14,18,-2
1496,-73,35,991,-16,23,1
1497,-148,3,991,-17,12,-1
1498,-112,0,986,-15,-9,-7
1499,0,7,991,-14,-20,-7
1500,136,27,1012,-12,-16,-10
1501,135,42,1009,-12,5,-4
1502,45,34,998,-16,20,1
1503,-105,18,998,-15,22,2
1504,-148,5,978,-16,6,-3
1505,-85,-8,982,-13,-13,-7
1506,38,13,1000,-13,-21,-9
1507,144,35,1019,-13,-10,-8
1508,124,42,1002,-13,9,-3
1509,-3,35,1000,-17,23,2
1510,-118,2,987,-18,17,0
1511,-156,3,980,-13,2,-3
1512,-52,2,989,-17,-18,-6
1513,82,17,1018,-11,-20,-10
1514,144,45,1005,-13,-6,-5
1515,106,40,1001,-15,12,0
1516,-47,27,991,-16,22,4
1517,-135,3,993,-18,11,1
1518,-133,-3,988,-15,-6,-3
1519,-17,3,999,-12,-19,-9
1520,117,26,1002,-10,-18,-8
1521,142,47,1002,-12,1,-3
1522,69,32,1001,-16,17,1
1523,-80,29,1005,-16,22,2
1524,-152,4,980,-17,8,2
1525,-102,-2,987,-16,-11,-6
1526,20,2,992,-13,-23,-9
1527,131,42,1016,-9,-15,-8
1528,143,34,997,-15,4,-6
1529,16,42,1013,-14,22,2
1530,-91,11,980,-16,18,1
1531,-157,1,989,-15,7,-3
1532,-72,0,973,-15,-14,-7
1533,43,17,1019,-13,-20,-9
1534,163,30,1002,-13,-11,-7
1535,111,45,1011,-11,13,-1
1536,-8,35,989,-15,23,2
1537,-123,7,994,-16,18,-1
1538,-157,-2,977,-15,0,-2
1539,-41,0,991,-14,-19,-8
1540,86,14,1024,-11,-20,-9
1541,155,40,995,-8,-3,-5
1542,96,41,1003,-12,15,-1
1543,-55,32,993,-17,25,2
1544,-148,6,991,-14,15,-1
1545,-133,-6,986,-15,-6,-7
1546,-24,-1,993,-13,-20,-8
1547,122,28,1006,-11,-20,-9
1548,149,40,1008,-14,0,-4
1549,65,37,1000,-15,18,2
1550,-83,30,1003,-16,21,3
1551,-148,-2,990,-16,8,-1
1552,-111,-3,977,-15,-10,-5
1553,22,0,994,-14,-22,-8
1554,138,32,1019,-11,-13,-8
1555,125,44,995,-11,7,-2
1556,28,36,1011,-15,20,1
1557,-97,18,990,-16,20,0
1558,-154,2,974,-14,4,-2
1559,-65,1,987,-14,-15,-8
1560,44,17,1013,-13,-19,-9
1561,149,29,1001,-12,-10,-6
1562,113,36,1009,-12,9,-2
1563,-15,35,993,-14,21,2
1564,-123,2,988,-16,16,0
1565,-147,8,984,-14,-1,-5
1566,-42,4,994,-13,-18,-5
1567,101,27,1013,-10,-20,-9
1568,140,32,1004,-15,-2,-4
1569,97,43,988,-14,14,-2
1570,-61,23,1014,-17,23,2
1571,-144,7,976,-15,11,-1
1572,-124,-10,997,-13,-6,-6
1573,0,7,997,-14,-21,-7
1574,115,34,994,-11,-16,-8
1575,146,42,1014,-14,1,-5
1576,50,48,1003,-15,20,2
1577,-87,19,989,-16,22,1
1578,-151,-5,1000,-16,8,-4
1579,-101,-3,967,-13,-10,-6
1580,25,6,1004,-12,-21,-11
1581,139,32,1013,-10,-15,-8
1582,131,43,1007,-11,8,-2
1583,25,44,999,-15,22,1
1584,-119,15,993,-18,20,2
1585,-149,0,971,-16,4,-5
1586,-82,-3,991,-17,-14,-6
1587,56,20,1005,-11,-22,-9
1588,149,39,1015,-14,-10,-6
1589,117,38,996,-15,11,-3
1590,-14,27,996,-16,23,3
1591,-133,12,994,-17,16,1
1592,-140,-11,982,-17,-1,-6
1593,-45,6,1000,-12,-17,-8
1594,88,27,1006,-12,-20,-9
1595,154,32,1002,-10,-4,-8
1596,81,44,1000,-14,16,0
1597,-59,26,993,-18,22,2
1598,-140,-5,999,-18,11,0
1599,-124,0,981,-15,-8,-3
1600,-2,3,996,-13,-20,-10
1601,125,26,1008,-11,-17,-10
1602,133,49,1001,-10,3,-2
1603,51,44,1006,-15,18,0
1604,-91,18,998,-16,22,2
1605,-146,-4,981,-16,7,-2
1606,-92,-9,978,-14,-12,-7
1607,28,5,1000,-11,-20,-10
1608,135,38,1016,-9,-12,-6
1609,136,42,1001,-12,7,-4
1610,7,36,1003,-15,23,2
1611,-114,17,988,-14,18,0
1612,-143,-6,988,-15,3,-4
1613,-74,0,975,-13,-15,-7
1614,67,22,1017,-12,-19,-10
1615,143,38,1021,-13,-8,-5
1616,108,44,982,-14,12,-1
1617,-24,26,1004,-17,22,2
1618,-127,6,991,-18,16,2
1619,-145,-5,984,-15,-1,-5
1620,-35,8,994,-13,-20,-7
1621,89,27,1011,-12,-20,-8
1622,154,35,996,-13,-3,-4
1623,82,46,1007,-15,16,1
1624,-59,19,992,-17,21,3
1625,-139,7,999,-16,12,-2
1626,-122,-9,980,-16,-7,-5
1627,-2,6,991,-10,-19,-9
1628,116,25,1008,-11,-17,-7
1629,142,45,1005,-11,1,-4
1630,51,38,1007,-15,18,1
1631,-88,20,995,-17,20,2
1632,-149,13,983,-14,8,-4
1633,-94,-13,979,-15,-11,-7
1634,16,13,996,-11,-20,-6
1635,133,33,1014,-13,-14,-6
1636,137,42,1007,-13,7,-4
1637,26,24,996,-17,20,3
1638,-107,23,990,-14,18,2
1639,-156,-5,984,-15,4,-5
1640,-74,5,982,-11,-15,-7
1641,48,18,1014,-12,-21,-7
1642,153,36,1008,-13,-11,-7
1643,119,36,1003,-15,11,-2
1644,-13,28,989,-16,22,3
1645,-136,16,1004,-16,17,1
1646,-142,-3,980,-15,-1,-5
1647,-34,5,999,-14,-19,-8
1648,90,25,1001,-10,-19,-7
1649,148,41,1002,-13,-3,-5
1650,80,37,1007,-15,15,0
1651,-61,30,994,-17,21,3
1652,-149,-1,997,-17,11,-2
1653,-110,0,979,-15,-9,-6
1654,4,-2,991,-13,-20,-8
1655,131,35,1008,-10,-17,-8
1656,133,41,1008,-14,4,-4
1657,45,47,997,-12,19,1
1658,-92,13,1001,-18,20,3
1659,-150,-2,975,-14,6,-1
1660,-86,3,978,-12,-12,-6
1661,35,6,1013,-13,-20,-10
1662,139,39,1006,-11,-11,-6
1663,128,39,1004,-13,8,-2
1664,5,29,1000,-17,22,2
1665,-119,21,988,-15,20,0
1666,-148,-5,982,-15,1,-6
1667,-58,7,991,-15,-17,-6
1668,69,9,1014,-13,-20,-9
1669,155,39,1004,-10,-6,-8
1670,93,37,999,-12,15,-1
1671,-29,34,996,-14,22,1
1672,-143,9,993,-18,14,0
1673,-131,4,981,-14,-5,-5
1674,-24,-1,1003,-14,-18,-7
1675,101,31,994,-11,-18,-8
1676,143,25,1016,-14,-1,-7
1677,71,49,999,-14,17,0
1678,-71,13,998,-17,23,2
1679,-140,6,995,-13,11,-3
1680,-113,-7,973,-16,-6,-4
1681,0,12,995,-11,-19,-8
1682,128,35,1015,-12,-17,-8
1683,125,51,1005,-12,4,-3
1684,49,37,1006,-17,18,0
1685,-95,13,995,-17,21,2
1686,-151,-2,979,-17,8,-2
1687,-81,-18,982,-14,-13,-8
1688,31,18,1011,-11,-19,-8
1689,146,40,1011,-11,-12,-5
1690,118,50,1003,-11,4,-5
1691,10,40,991,-8,21,1
1692,-123,17,998,-21,17,3
1693,-141,-6,974,-16,0,-5
1694,-57,-6,1001,-15,-15,-6
1695,75,17,1001,-13,-21,-8
1696,147,31,1016,-11,-6,-7
1697,105,36,988,-15,12,-2
1698,-45,34,1006,-14,23,3
1699,-134,18,988,-14,13,-2
1700,-134,-2,987,-18,-5,-5
1701,-22,6,992,-12,-19,-6
1702,109,19,1004,-15,-18,-7
1703,142,33,1006,-12,0,-5
1704,63,37,997,-15,17,2
1705,-72,29,1006,-17,22,2
1706,-144,-7,985,-16,11,-3
1707,-110,5,977,-14,-7,-5
1708,13,11,1003,-14,-20,-7
1709,132,32,1009,-12,-14,-8
1710,128,38,1004,-14,5,-4
1711,27,37,1005,-15,20,1
1712,-100,14,990,-18,19,1
1713,-149,-4,973,-15,5,-3
1714,-74,-8,994,-12,-14,-7
1715,38,25,1004,-11,-20,-8
1716,143,39,1013,-13,-11,-7
1717,123,39,1000,-13,9,-3
1718,1,30,993,-15,23,2
1719,-119,11,1004,-16,19,0
1720,-152,-6,974,-18,2,-5
1721,-60,1,996,-12,-16,-6
1722,69,21,1007,-12,-20,-7
1723,150,48,1004,-12,-7,-6
1724,115,38,1002,-15,12,-2
1725,-29,32,1000,-18,24,3
1726,-136,3,995,-16,15,-2
1727,-147,-4,980,-15,-2,-6
1728,-32,-5,985,-13,-20,-7
1729,97,29,1005,-8,-20,-7
1730,149,42,1013,-12,-5,-6
1731,90,48,999,-14,15,-1
1732,-72,23,1000,-19,22,4
1733,-147,5,990,-16,10,-2
1734,-113,-15,973,-15,-9,-6
1735,0,0,996,-13,-21,-9
1736,129,34,1019,-8,-16,-8
1737,133,45,1000,-11,5,-5
1738,36,40,1005,-14,18,1
1739,-97,25,994,-18,18,1
1740,-151,1,975,-18,5,-2
1741,-73,-7,992,-16,-14,-7
1742,43,16,1006,-12,-19,-8
1743,140,35,1016,-14,-11,-8
1744,123,29,998,-14,7,-2
1745,-17,35,991,-14,23,5
1746,-115,8,999,-15,15,0
1747,-146,9,980,-12,-1,-4
1748,-46,3,999,-16,-18,-6
1749,93,31,1005,-12,-20,-11
1750,146,27,1003,-15,-3,-6
1751,83,44,1000,-15,15,0
1752,-56,17,1000,-17,22,2
1753,-133,-1,994,-13,13,-3
1754,-122,0,980,-14,-6,-3
1755,-5,13,996,-11,-19,-8
1756,116,33,1001,-11,-16,-7
1757,130,43,1007,-11,2,-5
1758,50,38,1008,-16,18,0
1759,-85,17,996,-16,21,0
1760,-148,-5,980,-14,8,-1
1761,-87,-6,980,-14,-13,-6
1762,29,6,1004,-11,-19,-8
1763,134,43,1015,-9,-12,-6
1764,123,39,995,-13,8,-4
1765,7,39,1006,-14,22,0
1766,-99,9,986,-16,17,2
1767,-159,3,985,-15,3,-3
1768,-62,-10,975,-16,-15,-8
1769,62,18,1023,-9,-20,-8
1770,139,39,1007,-11,-8,-5
1771,116,46,992,-12,11,-2
1772,-22,30,1004,-16,22,4
1773,-128,14,991,-16,15,1
1774,-139,-4,978,-17,-2,-4
1775,-42,-2,1000,-14,-18,-6
1776,98,24,1007,-11,-20,-7
1777,145,35,998,-14,-3,-5
1778,91,41,1006,-15,15,-1
1779,-65,30,999,-15,24,3
1780,-139,10,998,-16,12,-3
1781,-122,-15,969,-17,-6,-5
1782,-4,6,991,-11,-19,-8
1783,113,33,1017,-11,-18,-7
1784,144,43,997,-14,1,-5
1785,51,41,1013,-15,18,2
1786,-83,18,990,-16,21,1
1787,-146,-5,988,-15,8,-2
1788,-97,-3,970,-15,-11,-5
1789,14,18,1009,-13,-19,-7
1790,140,41,1011,-11,-15,-9
1791,129,39,1008,-15,5,-2
1792,17,39,994,-16,20,2
1793,-113,4,990,-18,18,2
1794,-148,-2,986,-14,2,-4
1795,-63,-7,983,-16,-17,-4
1796,66,21,1014,-11,-21,-9
1797,151,37,1013,-12,-8,-6
1798,110,47,993,-13,12,-1
1799,-36,32,992,-16,23,3
1800,-133,15,999,-17,13,-1
1801,-139,-4,984,-16,-2,-4
1802,-28,-5,993,-13,-17,-7
1803,105,20,1005,-11,-18,-9
1804,148,38,1005,-11,0,-5
1805,72,47,1006,-14,17,-2
1806,-69,29,998,-19,22,2
1807,-137,2,995,-17,11,-2
1808,-119,0,978,-18,-7,-3
1809,7,1,990,-14,-20,-10
1810,127,33,1020,-10,-15,-8
1811,132,40,1001,-13,4,-4
1812,40,39,1005,-14,20,1
1813,-93,25,996,-17,20,2
1814,-150,-5,972,-16,7,-3
1815,-89,1,986,-14,-14,-6
1816,35,9,1008,-14,-23,-8
1817,139,47,1011,-10,-12,-7
1818,128,37,1007,-14,7,-3
1819,6,30,989,-16,21,1
1820,-116,12,998,-16,18,0
1821,-143,-9,978,-16,2,-5
1822,-73,-1,990,-12,-14,-6
1823,63,25,1008,-9,-21,-8
1824,154,33,1015,-11,-8,-6
1825,108,42,990,-13,12,-1
1826,-21,34,1004,-16,23,3
1827,-125,11,998,-16,17,-1
1828,-147,-13,980,-13,0,-5
1829,-44,1,991,-13,-18,-6
1830,82,29,1002,-10,-21,-7
1831,156,44,1006,-11,-6,-5
1832,94,38,1011,-14,15,0
1833,-47,32,1001,-15,25,2
1834,-139,-4,995,-17,13,-3
1835,-136,-11,967,-13,-4,-5
1836,-24,0,987,-11,-20,-8
1837,115,39,1022,-11,-20,-7
1838,143,49,1008,-12,-1,-4
1839,80,43,1002,-17,16,1
1840,-80,23,1006,-18,23,3
1841,-149,-2,972,-17,9,-2
1842,-106,-16,984,-14,-10,-7
1843,15,13,999,-12,-22,-8
1844,124,43,1017,-11,-14,-6
1845,146,45,1000,-13,4,-5
1846,18,30,992,-17,21,2
1847,-101,25,1000,-17,19,-1
1848,-154,-9,986,-17,4,-5
1849,-73,0,974,-13,-14,-6
1850,55,7,1020,-14,-22,-9
1851,146,49,996,-11,-10,-6
1852,108,42,1004,-14,10,-3
1853,-21,42,994,-17,22,2
1854,-136,11,1006,-19,15,1
1855,-128,-9,975,-16,-4,-6
1856,-39,-7,993,-15,-18,-7
1857,105,28,999,-8,-20,-10
1858,138,34,1014,-14,-2,-5
1859,78,50,995,-14,15,0
1860,-72,24,1005,-17,23,4
1861,-137,13,983,-17,8,-2
1862,-110,-7,979,-15,-8,-5
1863,13,2,990,-13,-19,-10
1864,118,33,1019,-12,-14,-5
1865,137,42,999,-12,4,-5
1866,32,36,1011,-16,20,0
1867,-100,18,982,-17,19,1
1868,-144,2,991,-15,4,-5
1869,-74,-9,982,-17,-13,-7
1870,36,23,1013,-12,-18,-7
1871,152,28,1007,-13,-11,-7
1872,111,47,1002,-12,10,-3
1873,-2,26,989,-15,22,2
1874,-124,23,1005,-16,16,0
1875,-152,-1,979,-17,0,-2
1876,-44,0,996,-14,-16,-8
1877,78,14,1011,-13,-20,-8
1878,151,40,993,-10,-6,-6
1879,95,37,1010,-14,14,-1
1880,-52,31,996,-16,23,4
1881,-137,8,991,-16,12,-1
1882,-120,-9,988,-15,-6,-6
1883,-27,9,985,-11,-17,-6
1884,120,24,1004,-12,-18,-8
1885,137,42,1011,-11,1,-5
1886,66,40,998,-14,17,1
1887,-82,28,1008,-14,22,1
1888,-148,-6,976,-16,8,-2
1889,-97,-8,981,-13,-10,-6
1890,18,3,1003,-12,-21,-9
1891,136,40,1008,-10,-13,-7
1892,133,51,1012,-12,6,-3
1893,24,37,995,-17,22,3
1894,-108,18,998,-17,19,1
1895,-150,-4,974,-17,3,-4
1896,-80,-7,993,-16,-15,-7
1897,59,14,1008,-11,-21,-10
1898,144,34,1015,-10,-9,-5
1899,126,43,997,-13,10,-2
1900,-14,42,993,-15,24,3
1901,-126,16,1002,-16,18,-1
1902,-160,-4,977,-17,-1,-3
1903,-43,0,994,-15,-19,-8
1904,89,13,1015,-14,-21,-8
1905,161,38,989,-11,-6,-6
1906,95,41,1012,-15,16,-2
1907,-47,29,1002,-16,25,3
1908,-148,8,992,-13,15,1
1909,-133,-7,976,-15,-6,-7
1910,-15,0,992,-11,-20,-7
1911,114,37,1006,-10,-18,-6
1912,148,46,1006,-13,0,-5
1913,60,44,1005,-15,18,1
1914,-88,21,1000,-19,22,1
1915,-148,-9,976,-16,8,-3
1916,-102,-8,981,-13,-11,-5
1917,21,11,997,-13,-22,-7
1918,144,37,1018,-12,-14,-9
1919,132,44,1003,-13,6,-2
1920,15,42,1001,-15,21,1
1921,-109,11,989,-16,18,1
1922,-154,1,986,-17,2,-4
1923,-67,-11,983,-16,-17,-6
1924,59,25,1018,-12,-21,-9
1925,159,27,1009,-14,-9,-6
1926,106,43,992,-11,13,-1
1927,-25,32,1001,-15,23,2
1928,-135,13,993,-16,17,-1
1929,-144,-4,979,-15,-2,-5
1930,-31,7,1004,-12,-20,-8
1931,103,25,1004,-11,-18,-8
1932,147,32,997,-13,-1,-5
1933,90,39,1012,-12,15,0
1934,-75,26,994,-16,25,4
1935,-139,7,990,-14,10,-4
1936,-123,-4,985,-14,-8,-5
1937,-6,7,983,-12,-21,-8
1938,124,27,1018,-12,-18,-7
1939,138,51,1003,-13,2,-4
1940,57,29,1006,-17,20,1
1941,-92,20,996,-16,23,4
1942,-151,0,977,-16,9,-1
1943,-96,-11,981,-14,-12,-7
1944,20,16,999,-12,-21,-7
1945,134,47,1017,-13,-15,-5
1946,141,37,1003,-13,6,-5
1947,19,38,998,-15,23,2
1948,-110,12,995,-16,19,2
1949,-161,-6,980,-15,4,-4
1950,-76,-7,981,-12,-15,-6
1951,53,26,1015,-9,-22,-7
1952,155,32,1011,-12,-10,-8
1953,114,52,993,-12,12,-1
1954,-17,40,1000,-18,22,3
1955,-136,5,998,-18,17,0
1956,-142,-6,978,-18,-2,-5
1957,-38,-13,998,-14,-19,-8
1958,95,24,1002,-10,-21,-8
1959,152,36,999,-11,-4,-7
1960,85,53,1016,-12,16,-2
1961,-69,36,993,-16,24,3
1962,-141,2,990,-16,11,-3
1963,-120,-10,980,-17,-8,-5
1964,3,-3,986,-14,-20,-9
1965,119,29,1018,-10,-16,-8
1966,140,46,1005,-12,1,-5
1967,50,33,1005,-15,19,1
1968,-94,20,990,-19,22,3
1969,-144,0,986,-16,8,-2
1970,-82,-2,979,-14,-12,-8
1971,23,9,1002,-13,-21,-9
1972,144,41,1013,-11,-12,-7
1973,125,39,1007,-13,8,-5
1974,8,33,984,-16,21,2
1975,-115,8,1007,-17,17,-1
1976,-149,-5,972,-16,1,-4
1977,-67,-2,994,-15,-17,-7
1978,72,28,1007,-9,-21,-9
1979,142,35,1016,-13,-7,-6
1980,116,41,987,-14,11,-2
1981,-36,28,1002,-17,23,5
1982,-125,12,993,-17,14,-1
1983,-148,-6,990,-15,-1,-4
1984,-21,0,990,-13,-20,-8
1985,93,23,1002,-11,-18,-8
1986,148,44,1006,-11,-3,-6
1987,79,40,1006,-16,16,0
1988,-66,30,1000,-17,22,2
1989,-150,2,992,-17,10,-2
1990,-115,-11,973,-15,-9,-7
1991,2,-4,996,-12,-20,-8
1992,129,37,1012,-10,-17,-8
1993,136,38,1014,-13,5,-4
1994,41,48,993,-14,21,1
1995,-97,13,1004,-17,20,1
1996,-146,4,970,-15,5,-3
1997,-89,-12,991,-15,-12,-6
1998,41,18,999,-11,-20,-11
1999,131,39,1018,-13,-11,-5
2000,134,36,997,-13,7,-5
2001,-8,35,1000,-16,23,4
2002,-112,16,985,-16,16,1
2003,-153,-5,997,-17,1,-4
2004,-54,-1,979,-14,-16,-6
2005,73,18,1019,-12,-19,-8
2006,152,36,1004,-13,-7,-6
2007,91,52,998,-13,14,0
2008,-34,26,999,-19,22,1
2009,-148,15,996,-17,14,-1
2010,-134,-16,981,-19,-6,-5
2011,-14,0,999,-13,-19,-9
2012,106,25,995,-11,-17,-7
2013,141,40,1015,-9,0,-4
2014,66,46,1002,-11,16,0
2015,-85,25,1001,-14,22,3
2016,-143,13,984,-17,7,-2
2017,-97,-13,985,-15,-11,-6
2018,14,9,989,-11,-20,-9
2019,137,26,1018,-12,-14,-8
2020,133,46,1002,-11,6,-5
2021,20,29,1006,-18,21,3
2022,-106,17,986,-15,17,1
2023,-156,-2,980,-14,4,-3
2024,-65,-4,987,-15,-16,-8
2025,60,20,1013,-11,-19,-9
2026,149,33,1004,-13,-8,-7
2027,111,46,1005,-13,12,-2
2028,-13,28,992,-17,22,3
2029,-135,16,992,-15,17,0
2030,-145,-6,982,-16,-3,-4
2031,-36,0,999,-14,-18,-8
2032,99,19,1008,-17,-17,-6
2033,151,35,1005,-30,-4,-4
2034,87,46,997,-3,16,-2
2035,-58,27,1001,-16,24,2
2036,-146,14,986,-18,12,-1
2037,-127,-12,989,-11,-6,-5
2038,-4,12,998,-15,-21,-9
2039,117,24,997,-9,-15,-8
2040,150,42,1012,-10,2,-6
2041,49,36,1004,-21,18,3
2042,-84,27,996,-12,22,0
2043,-152,-9,984,-19,7,-1
2044,-98,0,981,-13,-11,-6
2045,27,9,1003,-10,-21,-10
2046,138,39,1004,-13,-13,-9
2047,129,44,1014,-12,7,-3
2048,26,38,996,-16,22,1
2049,-120,14,993,-20,20,2
2050,-145,-8,975,-14,1,-5
2051,-68,-2,993,-15,-16,-8
2052,57,17,1004,-11,-20,-8
2053,152,42,1017,-12,-9,-8
2054,107,39,999,-14,12,-2
2055,-23,37,986,-14,24,3
2056,-131,4,1001,-18,14,-1
2057,-148,-2,982,-15,-2,-4
2058,-38,2,998,-15,-19,-7
2059,100,24,1006,-13,-20,-10
2060,155,32,1007,-12,-2,-5
2061,77,46,997,-14,17,0
2062,-67,26,1000,-19,23,3
2063,-140,8,997,-15,10,-3
2064,-122,-10,979,-17,-7,-4
2065,3,4,992,-11,-21,-8
2066,126,30,1019,-12,-17,-9
2067,142,35,998,-13,3,-4
2068,42,45,1009,-14,20,1
2069,-90,14,993,-17,22,2
2070,-154,2,992,-14,8,-3
2071,-84,-6,966,-15,-13,-5
2072,20,14,1014,-13,-20,-7
2073,152,33,1003,-13,-14,-8
2074,123,41,1015,-13,9,-3
2075,14,32,993,-15,21,3
2076,-116,13,990,-14,20,0
2077,-160,-3,979,-16,2,-4
2078,-64,-1,984,-15,-17,-6
2079,64,23,1015,-11,-21,-8
2080,153,43,1015,-11,-9,-7
2081,120,39,994,-12,10,-3
2082,-27,38,993,-15,24,3
2083,-130,0,999,-19,16,0
2084,-143,-5,982,-14,-1,-5
2085,-47,-2,990,-13,-18,-6
2086,93,34,1008,-10,-21,-7
2087,151,37,1004,-11,-4,-6
2088,93,53,1000,-15,14,-1
2089,-52,34,1001,-19,23,4
2090,-141,4,996,-18,13,-2
2091,-130,-14,979,-17,-7,-5
2092,-19,-6,983,-11,-21,-7
2093,107,30,1012,-8,-19,-7
2094,151,44,1007,-11,-2,-5
2095,70,47,1005,-13,17,1
2096,-81,26,999,-16,23,3
2097,-146,4,984,-16,10,-3
2098,-112,-2,975,-13,-9,-6
2099,8,0,991,-15,-23,-7
2100,127,37,1022,-12,-17,-7
2101,140,39,1006,-14,4,-4
2102,33,30,995,-15,20,2
2103,-97,19,999,-15,19,0
2104,-152,-2,976,-15,5,-3
2105,-78,-1,984,-15,-14,-6
2106,41,24,1011,-12,-21,-6
2107,147,41,1010,-12,-11,-8
2108,116,37,1001,-16,9,-2
2109,-15,35,990,-15,21,3
2110,-122,5,1006,-19,14,-1
2111,-141,-12,979,-14,-2,-5
2112,-40,6,999,-11,-18,-7
2113,103,18,1001,-11,-20,-11
2114,140,38,1007,-9,-1,-4
2115,84,49,1003,-12,14,0
2116,-65,22,1002,-20,21,2
2117,-140,10,995,-12,10,-2
2118,-116,-10,975,-17,-8,-3
2119,-3,2,994,-11,-18,-8
2120,121,30,1009,-11,-15,-6
2121,139,43,1011,-13,4,-5
2122,51,41,1003,-11,20,0
2123,-96,21,993,-15,22,3
2124,-144,6,985,-15,6,-3
2125,-98,-3,978,-13,-12,-4
2126,31,13,998,-13,-22,-9
2127,133,34,1022,-13,-13,-6
2128,134,43,996,-13,6,-3
2129,13,27,1002,-17,21,2
2130,-111,15,987,-15,18,1
2131,-150,-6,983,-16,4,-4
2132,-58,3,983,-12,-15,-9
2133,50,27,1017,-11,-18,-7
2134,158,41,1007,-12,-9,-7
2135,100,46,998,-14,12,1
2136,-32,30,990,-16,22,2
2137,-124,2,1002,-16,14,0
2138,-145,-14,977,-14,-3,-4
2139,-24,7,998,-11,-20,-9
2140,97,25,1008,-11,-18,-9
2141,152,40,999,-11,-1,-6
2142,69,50,1007,-13,17,0
2143,-69,28,1001,-20,21,2
2144,-145,-1,985,-20,9,-3
2145,-113,-16,981,-15,-11,-7
2146,4,2,996,-12,-21,-7
2147,129,35,1012,-10,-17,-8
2148,139,45,1010,-12,4,-5
2149,39,46,998,-15,21,3
2150,-96,23,1000,-18,21,2
2151,-151,-5,976,-16,7,-3
2152,-91,-10,981,-14,-13,-6
2153,40,14,1007,-11,-22,-9
2154,138,33,1013,-10,-11,-7
2155,134,45,1001,-11,8,-3
2156,1,33,999,-15,22,3
2157,-117,12,987,-16,19,1
2158,-150,-1,985,-17,2,-2
2159,-56,-2,984,-15,-16,-7
2160,63,30,1015,-12,-18,-9
2161,154,36,1007,-14,-8,-7
2162,103,38,999,-15,14,-1
2163,-29,26,990,-17,24,2
2164,-133,9,1002,-17,15,-1
2165,-140,-4,978,-15,-2,-5
2166,-39,-3,997,-14,-19,-6
2167,95,31,997,-9,-21,-8
2168,155,35,1010,-12,-5,-5
2169,81,37,1001,-14,15,0
2170,-52,34,1004,-17,22,3
2171,-142,-4,994,-17,13,-3
2172,-126,-7,970,-13,-6,-3
2173,-12,5,989,-13,-20,-8
2174,116,36,1019,-11,-18,-7
2175,146,41,1006,-13,-1,-3
2176,62,47,1005,-13,18,1
2177,-77,14,1000,-19,22,2
2178,-147,0,977,-14,9,-2
2179,-103,-8,980,-14,-10,-6
2180,13,21,1002,-10,-22,-8
2181,134,43,1012,-12,-15,-7
2182,133,47,1010,-15,5,-3
2183,24,40,990,-18,19,2
2184,-107,8,1000,-19,19,2
2185,-154,-5,980,-19,4,-3
2186,-67,-12,985,-14,-16,-7
2187,63,23,1013,-12,-21,-9
2188,139,40,1009,-12,-8,-4
2189,116,44,993,-12,12,-3
2190,-35,31,1001,-16,22,4
2191,-130,11,988,-17,14,0
2192,-139,-13,995,-16,-2,-5
2193,-24,1,984,-11,-19,-6
2194,93,31,1006,-12,-18,-7
2195,152,39,1007,-13,-2,-6
2196,63,50,1008,-14,17,2
2197,-70,22,992,-18,21,3
2198,-140,-5,995,-15,10,-4
2199,-113,-12,974,-16,-10,-4
2200,13,5,993,-10,-21,-8
2201,127,33,1013,-10,-14,-7
2202,138,51,1011,-11,4,-4
2203,40,41,1001,-13,20,2
2204,-104,23,988,-17,22,2
2205,-151,-4,980,-13,5,-3
2206,-85,-9,989,-14,-14,-7
2207,46,17,999,-10,-21,-8
2208,143,27,1013,-13,-10,-6
2209,123,46,1007,-12,8,-2
2210,-2,32,984,-15,23,3
2211,-129,10,995,-15,18,1
2212,-150,4,990,-16,0,-5
2213,-50,-1,985,-15,-17,-7
2214,77,24,1009,-9,-20,-9
2215,165,34,1009,-13,-6,-7
2216,91,45,998,-13,15,0
2217,-40,26,994,-16,23,3
2218,-140,6,1003,-16,13,0
2219,-134,0,976,-14,-5,-5
2220,-15,0,1000,-13,-18,-9
2221,112,26,1002,-11,-17,-9
2222,144,42,1008,-12,1,-4
2223,64,41,1006,-15,17,0
2224,-82,24,1001,-15,23,2
2225,-146,-4,981,-18,8,-2
2226,-109,-6,979,-13,-8,-6
2227,6,8,1000,-14,-21,-9
2228,122,39,1010,-11,-16,-6
2229,141,47,1008,-13,4,-5
2230,37,34,1003,-17,21,1
2231,-96,14,993,-16,20,1
2232,-149,-5,977,-16,7,-4
2233,-93,0,984,-15,-12,-5
2234,38,22,1013,-11,-22,-8
2235,146,41,1003,-11,-11,-7
2236,126,43,1006,-15,7,-3
2237,3,34,992,-18,21,3
2238,-124,8,996,-17,18,1
2239,-157,-12,977,-15,-1,-4
2240,-43,-2,998,-12,-19,-8
2241,78,17,1011,-10,-20,-8
2242,161,43,996,-9,-6,-7
2243,90,50,1010,-13,15,-1
2244,-46,35,989,-18,23,2
2245,-137,10,1000,-19,12,0
2246,-140,-5,981,-17,-6,-4
2247,-5,-8,994,-16,-22,-9
2248,120,15,1005,-10,-18,-10
2249,146,38,1006,-10,1,-6
2250,62,53,1009,-13,19,0
2251,-81,29,995,-14,24,2
2252,-154,4,983,-18,9,-2
2253,-98,-5,984,-16,-11,-5
2254,13,3,994,-11,-21,-9
2255,144,30,1012,-12,-16,-8
2256,137,38,1015,-11,6,-2
2257,19,40,992,-14,21,3
2258,-112,10,996,-17,21,1
2259,-148,-1,980,-15,3,-4
2260,-69,-1,986,-15,-14,-8
2261,53,20,1016,-12,-20,-10
2262,151,39,1011,-12,-10,-8
2263,114,44,994,-13,12,-3
2264,-25,30,994,-16,24,2
2265,-126,13,996,-16,16,0
2266,-157,-11,982,-16,-2,-7
2267,-44,4,988,-10,-19,-8
2268,88,14,1014,-12,-20,-8
2269,166,39,999,-10,-5,-7
2270,92,43,1007,-13,14,0
2271,-49,33,993,-15,23,1
2272,-142,5,1007,-13,15,-2
2273,-139,-5,970,-16,-5,-5
2274,-20,1,996,-11,-21,-8
2275,114,25,1005,-10,-20,-8
2276,143,56,1008,-12,0,-4
2277,65,44,1004,-16,16,0
2278,-82,30,1001,-18,21,3
2279,-153,-6,979,-18,8,-2
2280,-102,-4,980,-13,-10,-6
2281,14,7,999,-13,-21,-7
2282,144,33,1013,-12,-15,-8
2283,137,45,1006,-12,6,-4
2284,17,42,1003,-17,21,3
2285,-92,10,988,-18,18,2
2286,-169,-8,983,-18,5,-1
2287,-69,-6,986,-15,-17,-7
2288,59,12,1016,-11,-20,-12
2289,154,32,1009,-10,-9,-5
2290,116,51,1001,-12,12,-3
2291,-11,25,989,-15,23,3
2292,-136,23,1004,-16,18,2
2293,-146,-3,975,-16,-2,-5
2294,-38,0,1005,-13,-16,-9
2295,91,17,997,-13,-20,-8
2296,158,31,1005,-10,-4,-8
2297,87,37,1001,-12,16,1
2298,-66,29,998,-15,24,3
2299,-139,12,993,-16,11,-2
2300,-125,-3,990,-16,-5,-5
2301,-8,12,979,-15,-20,-7
2302,124,23,1013,-13,-17,-9
2303,137,39,1011,-12,2,-4
2304,44,41,993,-14,18,2
2305,-91,13,1001,-17,19,1
2306,-143,-6,984,-17,7,-2
2307,-89,-3,975,-11,-12,-6
2308,35,14,1006,-11,-20,-10
2309,142,41,1011,-10,-12,-8
2310,125,46,1007,-12,8,-3
2311,5,28,992,-14,23,2
2312,-121,11,996,-17,18,1
2313,-142,-10,972,-15,0,-4
2314,-63,3,991,-11,-15,-7
2315,77,22,1014,-10,-20,-8
2316,149,45,1012,-11,-7,-7
2317,102,47,990,-14,12,-1
2318,-33,39,1001,-18,22,3
2319,-137,-1,991,-19,14,-2
2320,-143,-2,983,-16,-3,-4
2321,-25,0,998,-16,-20,-7
2322,103,26,1004,-9,-19,-9
2323,155,35,1001,-12,-1,-4
2324,81,47,1010,-15,16,0
2325,-76,27,991,-16,25,3
2326,-143,3,1000,-16,12,-3
2327,-119,-13,971,-14,-7,-6
2328,-1,9,993,-11,-19,-7
2329,132,30,1017,-14,-16,-8
2330,140,43,1002,-12,4,-4
2331,49,41,1007,-15,20,1
2332,-95,14,991,-17,24,1
2333,-152,0,990,-14,7,-3
2334,-92,-14,966,-14,-12,-8
2335,15,23,1015,-11,-20,-8
2336,146,37,1004,-12,-14,-7
2337,134,46,1013,-14,8,-4
2338,21,29,988,-17,22,3
2339,-113,15,1002,-18,20,0
2340,-151,-9,977,-17,1,-4
2341,-72,1,983,-13,-15,-5
2342,53,22,1014,-13,-22,-8
2343,147,47,1013,-12,-10,-6
2344,116,39,991,-15,11,-2
2345,-21,32,992,-17,23,2
2346,-129,0,1008,-18,15,0
2347,-145,-6,975,-15,0,-4
2348,-36,-2,996,-12,-18,-9
2349,95,24,1005,-11,-20,-9
2350,146,55,1002,-10,-4,-4
2351,92,47,1006,-16,14,-2
2352,-61,30,1002,-19,22,2
2353,-142,1,999,-17,10,-2
2354,-125,-17,972,-17,-7,-5
2355,-11,-1,991,-12,-20,-6
2356,126,34,1016,-10,-19,-9
2357,142,36,1002,-12,2,-6
2358,45,51,1009,-12,17,3
2359,-79,24,996,-17,19,1
2360,-161,-8,978,-16,8,-2
2361,-91,-6,979,-14,-14,-7
2362,31,11,1009,-11,-21,-10
2363,143,34,1007,-11,-11,-7
2364,130,46,1009,-13,9,-3
2365,1,28,999,-17,22,3
2366,-114,21,985,-18,17,1
2367,-150,-7,989,-6,0,-7
2368,-57,2,990,-12,-17,-8
2369,77,18,1012,-14,-20,-10
2370,148,26,1006,-13,-6,-6
2371,98,41,997,-9,13,-2
2372,-36,29,995,-16,24,1
2373,-142,9,993,-15,15,0
2374,-126,2,989,-12,-5,-6
2375,-21,0,1004,-14,-20,-9
2376,110,28,992,-9,-18,-9
2377,144,35,1015,-12,0,-5
2378,68,43,1002,-13,17,1
2379,-88,25,1000,-15,23,3
2380,-142,4,985,-17,8,-2
2381,-112,-8,985,-15,-10,-5
2382,26,7,993,-12,-21,-9
2383,127,37,1014,-10,-13,-8
2384,135,44,1003,-14,4,-5
2385,27,36,1008,-14,20,2
2386,-110,12,982,-16,19,1
2387,-144,-1,989,-13,3,-4
2388,-77,-1,980,-14,-14,-6
2389,45,21,1008,-13,-20,-7
2390,143,37,1011,-11,-10,-7
2391,117,43,1007,-15,11,-2
2392,-8,22,989,-16,22,2
2393,-123,13,996,-14,17,1
2394,-148,-8,980,-16,0,-5
2395,-41,2,990,-11,-16,-8
2396,79,27,1022,-12,-19,-8
2397,156,38,995,-13,-6,-6
2398,91,47,1006,-14,15,-1
2399,-55,32,986,-18,22,3
2400,-143,6,1002,-15,12,-1
2401,-131,-9,980,-15,-7,-4
2402,-14,1,998,-13,-20,-7
2403,124,26,1005,-11,-20,-9
2404,149,50,1005,-12,1,-4
2405,61,37,1003,-16,19,1
2406,-82,28,1006,-13,22,2
2407,-154,-1,982,-17,9,-1
2408,-113,-6,978,-14,-11,-6
2409,18,9,998,-12,-23,-8
2410,136,37,1016,-12,-15,-9
2411,141,37,1006,-13,5,-4
2412,25,40,1004,-16,21,3
2413,-101,11,985,-18,21,0
2414,-161,-1,982,-14,5,-2
2415,-72,-8,984,-16,-17,-5
2416,52,24,1010,-11,-20,-9
2417,152,36,1013,-11,-10,-6
2418,122,44,1004,-14,10,-3
2419,-19,34,991,-16,24,3
2420,-134,4,993,-18,16,0
2421,-147,-6,982,-15,-2,-5
2422,-38,4,996,-11,-18,-8
2423,94,22,1005,-13,-18,-9
2424,154,37,1009,-10,-4,-6
2425,95,40,995,-12,15,-1
2426,-65,32,995,-17,24,2
2427,-141,11,997,-17,12,-2
2428,-127,-13,981,-15,-6,-5
2429,-10,9,1000,-12,-20,-8
2430,124,19,997,-13,-17,-10
2431,144,39,1015,-11,2,-5
2432,56,42,998,-14,19,2
2433,-85,25,1000,-15,24,2
2434,-154,-3,985,-15,9,-2
2435,-102,0,972,-14,-10,-5
2436,13,6,1001,-12,-21,-8
2437,141,45,1016,-11,-16,-7
2438,132,37,1009,-13,6,-4
2439,24,41,994,-14,21,2
2440,-113,2,1004,-17,18,2
2441,-149,-4,969,-14,3,-5
2442,-80,-9,987,-14,-15,-6
2443,57,23,1011,-11,-23,-7
2444,156,45,1016,-13,-10,-8
2445,120,45,993,-14,10,-3
2446,-18,36,997,-17,24,4
2447,-128,-1,1000,-18,17,0
2448,-151,-1,971,-14,-1,-4
2449,-36,-1,1001,-14,-20,-8
2450,90,26,1013,-12,-21,-9
2451,154,36,991,-11,-4,-7
2452,92,47,1010,-14,16,0
2453,-60,27,992,-17,24,3
2454,-145,8,995,-17,12,-2
2455,-130,-5,985,-17,-7,-6
2456,-3,-4,990,-12,-20,-9
2457,119,35,1006,-10,-17,-7
2458,145,37,1008,-15,2,-4
2459,52,36,1005,-14,18,0
2460,-84,27,998,-15,21,1
2461,-148,-2,989,-17,9,-3
2462,-105,1,969,-13,-10,-6
2463,19,11,1007,-13,-21,-9
2464,134,37,1010,-13,-15,-7
2465,129,38,1009,-14,6,-4
2466,31,28,1000,-17,20,1
2467,-109,10,996,-16,18,0
2468,-145,-3,980,-14,3,-4
2469,-81,-8,983,-12,-14,-6
2470,42,31,1014,-9,-22,-8
2471,146,37,1016,-14,-11,-7
2472,119,46,991,-15,8,-3
2473,-3,34,998,-16,21,3
2474,-125,10,999,-16,17,1
2475,-150,-6,977,-15,0,-4
2476,-48,-9,997,-12,-18,-7
2477,83,27,1004,-10,-19,-7
2478,152,34,1004,-11,-5,-6
2479,95,47,1000,-11,15,-2
2480,-54,39,1007,-15,24,3
2481,-130,7,993,-16,13,-2
2482,-136,-1,976,-16,-5,-5
2483,-11,1,990,-12,-20,-9
2484,114,25,1013,-13,-18,-7
2485,142,41,1000,-12,0,-6
2486,61,37,1009,-14,18,0
2487,-83,19,998,-16,22,1
2488,-146,-4,982,-14,8,-2
2489,-102,5,978,-13,-11,-5
2490,26,8,1000,-15,-22,-9
2491,133,44,1017,-11,-14,-7
2492,133,39,997,-17,6,-4
2493,13,35,1010,-15,22,1
2494,-105,5,986,-16,18,1
2495,-152,-6,975,-14,3,-2
2496,-64,-4,994,-13,-16,-6
2497,67,26,1012,-10,-20,-8
2498,143,39,1010,-12,-7,-5
2499,118,46,994,-12,12,-3
2500,-42,32,1000,-16,24,4
2501,-122,7,988,-17,13,-1
2502,-152,-11,992,-17,-2,-4
2503,-17,3,986,-14,-19,-8
2504,98,24,1014,-12,-18,-8
2505,153,43,993,-11,-2,-5
2506,74,36,1015,-13,17,-1
2507,-66,29,991,-15,22,2
2508,-148,9,993,-16,11,-1
2509,-115,-13,976,-15,-9,-5
2510,-5,11,993,-11,-20,-7
2511,128,33,1008,-12,-16,-8
2512,137,43,1012,-13,5,-4
2513,45,45,1001,-13,20,2
2514,-90,13,991,-17,21,1
2515,-152,-2,987,-15,7,-3
2516,-91,1,975,-12,-13,-5
2517,28,18,1006,-13,-20,-8
2518,144,41,1016,-14,-12,-7
2519,130,45,1004,-13,8,-4
2520,13,27,998,-16,21,2
2521,-119,2,986,-16,19,1
2522,-145,-2,988,-14,2,-4
2523,-63,0,983,-13,-15,-7
2524,66,28,1016,-11,-20,-8
2525,150,37,1009,-12,-8,-6
2526,103,43,993,-13,12,-3
2527,-32,28,992,-16,22,4
2528,-130,9,1001,-15,15,0
2529,-140,-4,983,-15,-3,-4
2530,-24,-3,989,-13,-18,-7
2531,98,29,1008,-11,-20,-8
2532,146,38,998,-13,-3,-4
2533,70,49,1014,-13,16,-1
2534,-65,19,986,-20,22,4
2535,-149,6,1005,-15,11,-1
2536,-105,-13,969,-14,-10,-7
2537,8,4,1000,-11,-19,-9
2538,125,35,1007,-13,-16,-5
2539,132,50,1012,-11,4,-5
2540,43,35,996,-15,18,1
2541,-98,17,997,-14,20,4
2542,-142,-3,979,-15,5,-4
2543,-90,-5,983,-13,-12,-5
2544,36,20,999,-11,-22,-8
2545,139,35,1023,-14,-11,-6
2546,126,45,998,-12,7,-2
2547,2,26,996,-16,21,3
2548,-113,15,994,-14,17,-1
2549,-153,-3,984,-16,3,-3
2550,-52,-2,982,-13,-16,-7
2551,73,31,1022,-11,-19,-8
2552,148,36,1001,-14,-6,-6
2553,103,46,1000,-15,13,-2
2554,-42,29,991,-17,23,3
2555,-132,13,1003,-17,13,-2
2556,-134,-14,979,-16,-5,-6
2557,-21,2,995,-12,-18,-7
2558,111,24,1003,-11,-18,-8
2559,143,54,1006,-12,0,-5
2560,66,41,1005,-15,17,1
2561,-75,30,997,-19,22,3
2562,-143,-6,993,-17,10,-3
2563,-108,-2,969,-15,-8,-4
2564,3,2,1000,-14,-21,-8
2565,135,35,1009,-11,-15,-8
2566,133,41,1016,-14,5,-3
2567,37,40,988,-14,20,2
2568,-103,13,1009,-14,20,0
2569,-152,-4,965,-16,5,-3
2570,-81,2,993,-14,-14,-7
2571,44,17,1006,-12,-22,-9
2572,144,42,1015,-11,-11,-6
2573,121,31,1004,-14,8,-2
2574,-7,33,993,-15,23,3
2575,-117,7,995,-14,17,0
2576,-153,0,983,-15,2,-3
2577,-46,2,988,-13,-17,-7
2578,78,29,1019,-10,-19,-9
2579,149,36,997,-12,-6,-6
2580,95,42,1003,-13,15,-1
2581,-46,25,993,-18,22,3
2582,-142,6,997,-16,14,0
2583,-126,-9,984,-14,-6,-6
2584,-15,2,988,-12,-19,-8
2585,116,33,1006,-9,-18,-8
2586,140,51,1005,-12,1,-5
2587,67,46,1006,-16,17,-2
2588,-85,21,997,-17,22,3
2589,-150,0,982,-17,9,-3
2590,-96,-22,980,-16,-11,-7
2591,3,13,993,-10,-20,-7
2592,140,37,1019,-12,-15,-8
2593,136,55,1005,-13,7,-4
2594,30,42,1002,-19,20,3
2595,-106,14,988,-17,20,1
2596,-156,0,982,-17,5,-4
2597,-82,-15,978,-17,-15,-7
2598,47,18,1013,-11,-22,-9
2599,150,34,1015,-12,-12,-7
2600,121,44,999,-13,10,-2
2601,-5,39,992,-16,22,1
2602,-130,10,1006,-18,17,0
2603,-150,-7,976,-16,-1,-5
2604,-50,0,997,-15,-17,-7
2605,83,21,1013,-12,-21,-9
2606,162,42,995,-12,-6,-6
2607,85,44,1003,-14,15,0
2608,-48,31,996,-19,21,3
2609,-133,10,995,-16,13,-3
2610,-137,-12,985,-18,-5,-4
2611,-3,5,990,-13,-21,-9
2612,105,23,1003,-11,-16,-8
2613,147,46,1010,-14,0,-5
2614,59,37,1006,-16,18,0
2615,-80,25,996,-17,21,0
2616,-149,1,980,-16,9,-3
2617,-94,-6,984,-12,-11,-7
2618,11,9,996,-12,-19,-7
2619,140,39,1011,-10,-14,-8
2620,126,42,1015,-13,6,-2
2621,23,39,988,-16,20,3
2622,-113,8,997,-17,19,0
2623,-147,-3,974,-17,2,-5
2624,-63,-5,994,-12,-14,-7
2625,64,24,1008,-10,-19,-10
2626,154,28,1014,-12,-7,-8
2627,107,47,1001,-11,13,-2
2628,-26,29,982,-17,23,2
2629,-129,16,1005,-16,16,-1
2630,-145,-4,981,-15,-3,-3
2631,-33,-1,995,-12,-18,-8
2632,96,23,1013,-12,-21,-8
2633,151,43,995,-11,-2,-5
2634,86,33,1010,-14,16,-2
2635,-62,38,992,-16,22,3
2636,-144,0,998,-15,13,-2
2637,-123,3,975,-16,-7,-5
2638,-18,0,994,-14,-20,-6
2639,118,30,1007,-11,-20,-8
2640,147,41,1012,-15,0,-5
2641,66,42,1001,-15,19,2
2642,-76,22,1003,-18,22,3
2643,-160,-5,979,-15,10,-3
2644,-102,-5,981,-13,-11,-6
2645,13,1,999,-11,-22,-8
2646,133,47,1011,-12,-15,-7
2647,140,45,1012,-13,5,-5
2648,18,39,998,-17,21,4
2649,-114,11,990,-16,19,2
2650,-151,-4,984,-16,3,-5
2651,-73,-8,982,-14,-15,-7
2652,57,20,1012,-12,-21,-9
2653,151,34,1011,-14,-10,-6
2654,114,47,1004,-11,10,0
2655,-25,34,990,-18,22,3
2656,-129,9,995,-16,15,0
2657,-145,-4,992,-15,-3,-4
2658,-31,-3,982,-13,-19,-7
2659,99,20,1017,-10,-19,-9
2660,152,41,995,-12,-3,-4
2661,75,39,1009,-14,15,1
2662,-65,29,997,-15,21,3
2663,-146,0,994,-17,11,-1
2664,-109,-1,982,-12,-9,-6
2665,1,0,988,-13,-19,-8
2666,133,34,1010,-10,-15,-8
2667,130,48,1012,-11,4,-4
2668,47,40,1003,-15,18,1
2669,-92,12,993,-18,21,1
2670,-153,-6,979,-17,6,-3
2671,-81,-4,987,-14,-13,-6
2672,27,12,996,-11,-18,-8
2673,150,36,1017,-12,-12,-6
2674,122,47,1010,-12,9,-1
2675,7,36,990,-14,22,3
2676,-119,13,996,-17,19,1
2677,-156,-3,977,-16,1,-3
2678,-51,-5,990,-14,-16,-8
2679,66,25,1012,-11,-19,-7
2680,152,38,1010,-13,-6,-6
2681,109,39,995,-14,13,-2
2682,-44,30,995,-15,23,5
2683,-129,9,993,-15,14,-1
2684,-142,-4,987,-16,-2,-4
2685,-33,7,987,-13,-19,-8
2686,114,25,1010,-12,-20,-9
2687,142,44,1005,-12,-1,-5
2688,74,47,1000,-15,16,1
2689,-74,29,1005,-17,23,0
2690,-149,4,989,-16,10,-1
2691,-115,-20,968,-15,-10,-5
2692,2,3,1002,-11,-21,-10
2693,138,28,1012,-11,-17,-7
2694,134,55,1001,-11,5,-4
2695,40,36,1015,-14,20,2
2696,-104,25,988,-17,21,2
2697,-158,0,970,-17,6,-3
2698,-83,-5,993,-15,-15,-6
2699,41,13,1001,-13,-22,-8
2700,158,26,1013,-12,-12,-8
2701,125,39,1014,-11,8,-3
2702,-3,39,989,-5,24,3
2703,-119,8,993,-18,17,0
2704,-154,6,983,-16,-1,-3
2705,-55,5,982,-12,-16,-7
2706,79,22,1024,-14,-20,-9
2707,157,30,995,-13,-5,-6
2708,97,38,1006,-14,15,0
2709,-41,22,992,-17,23,2
2710,-141,16,998,-12,15,-1
2711,-132,-9,981,-16,-4,-6
2712,-25,8,995,-15,-17,-8
2713,121,25,1008,-11,-19,-11
2714,139,42,996,-12,1,-4
2715,66,45,1014,-13,19,-1
2716,-78,22,996,-18,23,3
2717,-150,5,988,-15,9,-3
2718,-107,-11,970,-15,-11,-7
2719,10,11,1009,-13,-21,-8
2720,133,25,1001,-13,-15,-7
2721,137,52,1013,-12,6,-4
2722,33,28,1005,-18,19,2
2723,-105,26,989,-14,20,2
2724,-151,-1,979,-17,4,-3
2725,-86,-3,987,-14,-15,-6
2726,40,13,1005,-12,-20,-10
2727,143,30,1015,-13,-12,-7
2728,132,37,1004,-12,8,-4
2729,-4,33,993,-14,23,3
2730,-119,18,993,-15,17,0
2731,-158,0,983,-17,2,-4
2732,-45,3,991,-16,-17,-8
2733,85,17,1017,-13,-21,-8
2734,141,34,995,-12,-5,-5
2735,104,45,1009,-14,13,-2
2736,-50,29,993,-17,22,3
2737,-138,5,988,-16,13,0
2738,-125,-5,993,-14,-5,-5
2739,-20,9,991,-12,-19,-7
2740,119,22,996,-11,-18,-9
2741,141,48,1018,-12,0,-5
2742,60,46,998,-16,18,2
2743,-85,19,1001,-17,23,3
2744,-149,-5,982,-17,7,-3
2745,-106,-3,982,-14,-12,-5
2746,27,1,995,-14,-22,-10
2747,139,36,1014,-11,-13,-8
2748,135,49,1006,-12,7,-3
2749,19,36,1006,-17,22,1
2750,-111,16,985,-19,19,2
2751,-156,-6,980,-16,4,-2
2752,-71,1,994,-16,-15,-8
2753,57,11,1006,-11,-22,-9
2754,151,46,1011,-10,-10,-7
2755,119,45,1003,-14,10,-1
2756,-8,35,990,-15,22,3
2757,-128,8,999,-19,17,2
2758,-151,-5,979,-16,-2,-4
2759,-53,-1,1001,-12,-18,-8
2760,92,20,1004,-12,-21,-11
2761,150,38,1002,-12,-5,-5
2762,114,47,1005,-12,12,-3
2763,-54,30,1001,-18,25,2
2764,-142,9,991,-15,14,-1
2765,-153,-9,985,-14,-4,-5
2766,-18,0,984,-13,-21,-9
2767,113,22,1010,-10,-19,-10
2768,155,44,1002,-11,-2,-4
2769,71,37,1013,-14,16,1
2770,-72,22,990,-14,22,0
2771,-162,0,989,-17,11,0
2772,-106,-5,975,-13,-11,-6
2773,3,13,1002,-12,-20,-9
2774,145,37,1008,-13,-16,-8
2775,134,38,1012,-13,6,-5
2776,22,42,998,-15,21,2
2777,-99,9,992,-18,19,2
2778,-158,-4,981,-15,4,-3
2779,-75,0,986,-14,-16,-5
2780,59,20,1013,-12,-21,-9
2781,155,33,1008,-12,-11,-6
2782,109,45,1003,-13,10,-3
2783,-11,27,992,-17,22,2
2784,-133,13,997,-16,17,0
2785,-148,-2,975,-16,-2,-4
2786,-41,8,1010,-12,-17,-9
2787,97,23,999,-12,-21,-9
2788,149,39,1003,-11,-4,-6
2789,87,41,1004,-13,15,-1
2790,-62,27,999,-16,23,3
2791,-139,7,987,-14,11,-1
2792,-132,2,987,-15,-8,-4
2793,8,3,986,-13,-21,-10
2794,112,23,1005,-12,-16,-6
2795,141,47,1008,-13,0,-6
2796,50,30,1006,-14,20,0
2797,-90,20,996,-15,22,2
2798,-149,2,975,-15,8,-1
2799,-88,-5,991,-11,-12,-7
2800,22,16,995,-11,-20,-7
2801,151,33,1011,-12,-13,-8
2802,120,44,1011,-12,11,-3
2803,9,26,992,-16,21,3
2804,-118,20,990,-13,18,0
2805,-151,-4,979,-17,1,-4
2806,-60,0,995,-13,-16,-7
2807,79,17,1008,-13,-20,-9
2808,156,31,1012,-10,-6,-7
2809,100,50,995,-11,14,-1
2810,-35,30,998,-15,23,2
2811,-140,15,988,-16,15,-1
2812,-142,-8,986,-17,-4,-4
2813,-20,2,1003,-12,-21,-8
2814,103,21,997,-12,-19,-9
2815,156,36,1004,-10,-1,-6
2816,72,45,1007,-14,19,1
2817,-83,31,994,-14,23,3
2818,-143,6,992,-16,9,-3
2819,-118,-4,983,-16,-9,-6
2820,6,0,986,-12,-21,-7
2821,132,36,1016,-11,-17,-9
2822,138,34,1009,-16,4,-4
2823,52,36,999,-16,19,1
2824,-95,17,1003,-15,21,2
2825,-159,4,976,-14,6,-3
2826,-92,-9,983,-14,-13,-7
2827,24,17,997,-10,-21,-8
2828,147,42,1017,-11,-13,-8
2829,143,40,1008,-12,6,-4
2830,-1,32,992,-15,22,3
2831,-112,9,994,-15,17,0
2832,-161,-11,983,-14,2,-4
2833,-55,-4,983,-13,-17,-8
2834,72,23,1021,-11,-20,-10
2835,147,41,1006,-10,-8,-6
2836,105,53,994,-14,13,-1
2837,-44,35,997,-18,24,3
2838,-135,2,994,-18,14,0
2839,-140,-8,982,-15,-5,-4
2840,-13,-4,1003,-13,-22,-9
2841,118,26,998,-10,-19,-9
2842,147,43,1006,-10,0,-5
2843,70,43,1004,-14,17,1
2844,-89,33,996,-14,24,3
2845,-149,-4,988,-17,9,-1
2846,-111,5,982,-12,-10,-6
2847,25,-3,992,-14,-22,-10
2848,139,36,1018,-11,-14,-8
2849,131,44,1005,-12,6,-4
2850,30,42,1000,-14,22,1
2851,-115,14,993,-15,21,2
2852,-150,-1,979,-14,3,-3
2853,-82,-5,983,-14,-14,-5
2854,56,20,1012,-11,-22,-11
2855,156,35,1008,-12,-10,-7
2856,117,44,1006,-12,12,-1
2857,-10,33,988,-17,21,2
2858,-138,8,996,-14,17,0
2859,-142,-6,976,-15,-3,-3
2860,-44,0,997,-14,-18,-8
2861,97,22,1014,-12,-20,-10
2862,153,39,1003,-11,-2,-6
2863,88,46,998,-12,16,-1
2864,-59,32,993,-15,24,2
2865,-145,0,995,-16,13,-1
2866,-133,-3,986,-14,-7,-5
2867,-5,-1,993,-12,-19,-9
2868,115,28,1005,-9,-18,-9
2869,148,43,1002,-13,0,-5
2870,58,48,1009,-13,19,1
2871,-90,27,988,-18,23,4
2872,-150,0,994,-17,6,-3
2873,-102,-12,975,-17,-11,-6
2874,16,8,997,-11,-20,-8
2875,141,32,1017,-12,-16,-8
2876,134,48,1005,-11,5,-4
2877,24,31,1002,-14,21,1
2878,-109,15,990,-17,19,3
2879,-158,-6,981,-15,3,-2
2880,-71,-1,986,-14,-17,-7
2881,58,13,1011,-12,-21,-9
2882,160,38,1014,-10,-8,-7
2883,110,41,999,-12,11,-2
2884,-18,36,989,-14,24,3
2885,-138,7,1003,-17,16,1
2886,-146,-6,971,-16,-3,-6
2887,-39,-2,1003,-11,-18,-8
2888,99,28,1011,-10,-20,-9
2889,153,37,1003,-12,-2,-6
2890,80,38,996,-15,16,0
2891,-63,35,1001,-17,22,3
2892,-143,4,991,-16,11,-1
2893,-128,1,982,-16,-8,-4
2894,4,3,1000,-13,-21,-9
2895,118,26,1000,-11,-16,-8
2896,144,42,1003,-14,2,-4
2897,44,45,1011,-16,19,1
2898,-91,23,987,-16,21,1
2899,-150,0,989,-17,7,-2
2900,-98,-8,974,-16,-13,-5
2901,31,12,1004,-11,-22,-8
2902,151,28,1011,-12,-12,-9
2903,122,42,1006,-12,8,-2
2904,20,36,1002,-15,21,2
2905,-130,8,989,-17,21,2
2906,-151,5,973,-15,0,-4
2907,-64,-1,1002,-15,-17,-7
2908,72,19,1001,-13,-21,-9
2909,154,30,1020,-13,-7,-5
2910,116,41,995,-13,14,-3
2911,-40,31,998,-16,25,4
2912,-133,10,989,-14,14,-2
2913,-148,0,987,-16,-3,-5
2914,-29,6,996,-13,-20,-7
2915,110,30,1013,-10,-19,-9
2916,156,29,997,-13,-2,-5
2917,69,54,1009,-14,18,1
2918,-63,12,989,-21,22,2
2919,-156,7,997,-15,11,-1
2920,-119,-3,982,-16,-10,-5
2921,7,4,991,-13,-21,-9
2922,134,34,1009,-11,-17,-9
2923,140,39,1004,-14,5,-3
2924,42,45,1007,-15,20,1
2925,-107,16,990,-19,22,2
2926,-154,1,978,-18,5,-3
2927,-91,-4,983,-13,-13,-5
2928,46,9,1000,-12,-22,-9
2929,147,38,1015,-11,-12,-8
2930,129,38,1008,-13,9,-4
2931,0,44,998,-15,22,1
2932,-132,5,982,-17,18,2
2933,-152,3,987,-16,0,-5
2934,-60,-7,985,-16,-17,-6
2935,85,20,1013,-10,-21,-10
2936,155,30,1015,-14,-6,-6
2937,105,46,996,-14,13,-1
2938,-33,22,990,-15,25,2
2939,-149,11,995,-15,15,1
2940,-142,0,989,-17,-5,-5
2941,-17,2,995,-13,-19,-7
2942,108,27,1014,-12,-18,-8
2943,158,39,995,-11,1,-4
2944,60,41,1011,-11,19,0
2945,-76,31,987,-16,23,3
2946,-153,-4,1000,-17,9,0
2947,-115,-8,978,-14,-11,-6
2948,19,7,998,-11,-21,-10
2949,137,30,1007,-12,-15,-9
2950,128,53,1009,-12,6,-3
2951,41,26,1000,-16,19,1
2952,-112,23,999,-14,21,3
2953,-155,0,974,-14,4,-2
2954,-76,0,986,-14,-14,-7
2955,45,15,1000,-14,-19,-8
2956,151,36,1013,-11,-10,-7
2957,124,42,1006,-14,10,-1
2958,-11,38,993,-16,23,3
2959,-123,4,989,-18,17,1
2960,-155,-4,981,-16,-1,-3
2961,-46,11,994,-13,-19,-7
2962,89,24,1010,-14,-20,-9
2963,155,39,1013,-13,-4,-5
2964,95,40,988,-16,14,0
2965,-49,23,1004,-18,24,1
2966,-138,8,987,-18,14,0
2967,-142,-13,986,-14,-4,-5
2968,-12,11,1005,-11,-20,-9
2969,112,29,1001,-13,-18,-9
2970,153,39,998,-14,0,-6
2971,67,42,1013,-14,18,0
2972,-77,27,997,-18,23,2
2973,-157,2,990,-16,11,-4
2974,-120,0,978,-16,-11,-6
2975,7,3,996,-14,-22,-9
2976,135,31,1008,-13,-17,-9
2977,146,35,1005,-15,3,-5
2978,51,40,1009,-12,23,0
2979,-99,17,998,-15,22,3
2980,-161,-8,967,-15,7,-2
2981,-111,0,989,-13,-14,-7
2982,37,17,1001,-11,-24,-8
2983,150,39,1012,-12,-12,-7
2984,154,47,1003,-14,8,-4
2985,12,27,1006,-19,23,2
2986,-126,18,984,-15,21,2
2987,-166,-11,983,-16,3,-3
2988,-71,-5,992,-13,-19,-7
2989,69,16,1009,-10,-23,-8
2990,169,39,1008,-11,-11,-8
2991,114,43,998,-13,13,-1
2992,-33,39,999,-15,24,2
2993,-144,10,994,-18,17,1
2994,-146,-2,985,-15,-3,-5
2995,-26,0,996,-15,-20,-8
2996,111,22,999,-10,-20,-9
2997,153,35,1011,-12,-1,-6
2998,75,42,1001,-15,16,0
2999,-83,30,1003,-13,23,3
3000,-147,0,982,-15,9,-2
3001,-116,0,985,-14,-9,-6
3002,13,5,991,-10,-22,-9
3003,134,38,1017,-12,-15,-8
3004,140,40,1008,-13,5,-4
3005,27,39,997,-13,21,2
3006,-101,8,999,-16,19,1
3007,-157,-2,973,-14,5,-1
3008,-79,-4,989,-12,-15,-7
3009,56,19,1008,-13,-23,-10
3010,141,35,1013,-11,-9,-5
3011,127,48,999,-13,10,-3
3012,-4,31,995,-17,24,2
3013,-128,8,993,-16,18,1
3014,-158,-6,980,-18,-1,-4
3015,-44,-6,993,-11,-19,-9
3016,78,27,1013,-12,-20,-7
3017,158,37,997,-14,-8,-6
3018,108,40,1005,-13,13,-1
3019,-53,33,996,-16,24,5
3020,-146,11,991,-16,13,-1
3021,-142,-5,987,-15,-7,-5
3022,-11,5,989,-12,-23,-8
3023,119,29,1009,-10,-18,-8
3024,149,35,1007,-14,0,-4
3025,61,45,1005,-13,19,0
3026,-89,21,1000,-16,22,2
3027,-156,3,980,-18,8,-1
3028,-105,-7,973,-15,-12,-5
3029,26,11,1003,-11,-23,-9
3030,141,37,1007,-14,-16,-8
3031,140,47,1012,-13,6,-2
3032,21,31,1002,-16,23,3
3033,-112,13,990,-16,21,1
3034,-157,-6,976,-14,4,-2
3035,-79,6,986,-14,-15,-6
3036,60,17,1012,-14,-21,-10
3037,153,43,1017,-10,-9,-7
3038,122,41,994,-18,10,-2
3039,-17,29,1001,-12,26,2
3040,-133,7,993,-16,23,4
3041,-155,-9,978,-23,-3,-4
3042,-32,6,1004,-12,-19,-8
3043,102,16,1004,-8,-19,-8
3044,155,41,997,-17,-2,-5
3045,86,47,1008,-8,17,0
3046,-67,26,993,-16,23,3
3047,-147,8,996,-17,11,-1
3048,-123,-14,980,-12,-6,-5
3049,1,8,996,-15,-21,-8
3050,129,26,1002,-11,-17,-9
3051,140,43,1012,-10,3,-5
3052,46,44,1002,-17,20,3
3053,-97,25,996,-15,23,3
3054,-158,2,982,-15,7,-2
3055,-92,-8,978,-14,-13,-6
3056,27,9,998,-10,-22,-8
3057,150,40,1017,-12,-13,-8
3058,127,43,1002,-11,9,-3
3059,10,34,995,-16,22,2
3060,-127,13,996,-17,17,2
3061,-154,-4,972,-17,2,-3
3062,-58,-2,997,-14,-19,-9
3063,69,23,1011,-13,-21,-9
3064,159,38,1016,-11,-7,-7
3065,105,40,992,-14,15,-2
3066,-41,34,998,-15,24,4
3067,-137,15,993,-16,15,-1
3068,-146,-10,980,-18,-3,-5
3069,-23,3,1001,-13,-20,-7
3070,113,23,1006,-10,-18,-9
3071,154,29,997,-11,2,-6
3072,73,51,1013,-11,17,0
3073,-70,23,989,-18,23,1
3074,-157,7,998,-15,12,-1
3075,-115,-7,976,-14,-9,-6
3076,10,8,993,-11,-19,-9
3077,128,33,1014,-11,-17,-8
3078,144,44,1002,-12,4,-5
3079,32,39,1008,-15,20,2
3080,-100,14,989,-19,19,2
3081,-153,-5,987,-17,5,-3
3082,-84,-10,974,-13,-15,-7
3083,42,28,1016,-9,-21,-9
3084,155,29,1001,-13,-12,-8
3085,118,49,1017,-11,11,-2
3086,2,27,989,-18,20,3
3087,-130,11,994,-15,19,-1
3088,-151,-10,972,-18,-1,-4
3089,-58,9,998,-12,-17,-7
3090,86,21,1011,-11,-21,-9
3091,148,32,1014,-12,-5,-5
3092,103,40,992,-14,13,0
3093,-43,28,998,-16,23,2
3094,-140,10,991,-16,12,-1
3095,-139,-3,989,-16,-5,-5
3096,-13,3,999,-13,-20,-8
3097,119,23,1003,-11,-18,-8
3098,145,46,1002,-12,1,-5
3099,59,41,1007,-15,18,0
3100,-79,24,992,-15,22,2
3101,-152,5,991,-17,8,-1
3102,-103,-10,980,-16,-10,-7
3103,24,13,1001,-11,-21,-9
3104,136,29,1004,-12,-14,-7
3105,126,47,1013,-12,7,-4
3106,28,39,1004,-17,20,2
3107,-114,11,986,-18,20,2
3108,-147,-3,983,-15,1,-4
3109,-72,-3,985,-13,-16,-8
3110,50,15,1009,-10,-20,-9
3111,157,36,1009,-11,-9,-8
3112,113,43,1006,-15,12,-1
3113,-17,32,990,-14,24,3
3114,-131,12,991,-16,15,1
3115,-157,-8,978,-17,-1,-3
3116,-33,7,996,-12,-20,-8
3117,89,15,1017,-13,-19,-10
3118,158,43,1001,-10,-3,-6
3119,90,40,996,-14,16,-1
3120,-65,35,994,-18,23,3
3121,-141,5,990,-19,12,0
3122,-139,-4,989,-15,-7,-5
3123,0,1,994,-14,-22,-10
3124,123,20,1012,-10,-18,-8
3125,142,48,996,-13,0,-3
3126,58,38,1009,-14,18,1
3127,-90,29,994,-16,22,4
3128,-154,-2,986,-17,8,0
3129,-99,-3,981,-13,-11,-7
3130,25,3,995,-14,-22,-9
3131,145,38,1014,-9,-14,-9
3132,128,46,1006,-14,7,-2
3133,19,39,998,-13,21,3
3134,-115,14,994,-18,18,2
3135,-157,-2,971,-16,2,-1
3136,-62,-5,992,-13,-17,-8
3137,59,17,1009,-11,-21,-8
3138,160,37,1016,-9,-9,-7
3139,126,45,997,-12,13,-4
3140,-19,30,996,-16,25,3
3141,-140,20,985,-15,17,0
3142,-166,-4,988,-16,-3,-4
3143,-47,11,988,-15,-21,-8
3144,95,17,1016,-13,-23,-10
3145,177,31,999,-12,-7,-7
3146,93,38,1002,-13,17,1
3147,-46,23,994,-16,25,2
3148,-161,0,1001,-17,14,0
3149,-136,-7,972,-13,-7,-6
3150,-5,10,1006,-11,-21,-9
3151,120,34,999,-10,-17,-9
3152,156,52,1008,-13,0,-5
3153,55,41,1006,-17,19,2
3154,-89,22,995,-17,24,1
3155,-155,-14,988,-17,8,-3
3156,-103,-2,975,-12,-11,-7
3157,21,2,997,-14,-20,-10
3158,149,42,1020,-8,-14,-9
3159,130,45,998,-15,8,-3
3160,18,44,1009,-15,23,2
3161,-110,7,991,-18,19,1
3162,-159,5,972,-15,5,-3
3163,-69,-11,988,-16,-16,-8
3164,51,26,1011,-11,-22,-8
3165,154,34,1015,-12,-10,-7
3166,131,36,990,-14,11,-4
3167,-23,38,1006,-15,24,5
3168,-121,4,985,-17,16,-1
3169,-164,-2,986,-15,1,-4
3170,-49,4,989,-13,-19,-6
3171,90,24,1017,-13,-21,-10
3172,163,38,996,-13,-5,-6
3173,99,41,1004,-13,14,0
3174,-54,30,1002,-17,23,3
3175,-158,4,992,-16,13,1
3176,-128,-8,985,-14,-8,-7
3177,3,0,997,-12,-22,-7
3178,113,36,998,-9,-16,-9
3179,149,39,1013,-15,0,-6
3180,45,45,1008,-13,19,1
3181,-90,27,988,-16,21,2
3182,-146,-6,991,-18,6,-3
3183,-93,-4,973,-14,-12,-4
3184,32,9,1005,-12,-20,-9
3185,148,32,1005,-13,-13,-9
3186,129,47,1018,-14,10,-4
3187,9,31,990,-15,22,2
3188,-119,21,993,-15,20,1
3189,-157,-2,979,-16,1,-4
3190,-58,0,986,-16,-18,-8
3191,77,15,1015,-12,-20,-11
3192,157,28,1013,-13,-6,-7
3193,102,40,990,-13,12,0
3194,-30,29,999,-14,23,2
3195,-142,14,992,-17,15,1
3196,-149,0,981,-16,-3,-4
3197,-16,-2,1005,-17,-21,-10
3198,105,27,1004,-12,-19,-8
3199,152,32,999,-11,-1,-7
3200,76,38,1006,-14,17,0
3201,-83,30,997,-16,24,3
3202,-146,2,986,-17,11,-1
3203,-115,-3,987,-13,-9,-5
3204,8,6,990,-12,-20,-8
3205,133,29,1014,-9,-16,-9
3206,131,39,1005,-12,5,-4
3207,39,39,1000,-16,20,2
3208,-106,16,997,-16,21,2
3209,-147,1,978,-15,6,-2
3210,-84,-6,984,-16,-14,-6
3211,45,23,1000,-10,-20,-8
3212,143,35,1016,-14,-10,-8
3213,125,45,1003,-14,8,-4
3214,-4,24,1003,-17,23,3
3215,-118,14,979,-16,18,2
3216,-159,-10,986,-18,1,-2
3217,-42,2,986,-13,-19,-8
3218,77,16,1018,-12,-19,-9
3219,158,41,1004,-11,-6,-7
3220,98,47,1006,-14,16,-1
3221,-46,36,986,-15,25,3
3222,-141,4,994,-17,15,0
3223,-146,-5,982,-17,-5,-5
3224,-17,1,1007,-13,-22,-9
3225,120,21,995,-10,-19,-10
3226,144,42,1009,-11,1,-3
3227,75,47,1001,-12,17,-1
3228,-84,29,999,-18,24,3
3229,-149,5,989,-17,8,-1
3230,-122,-5,979,-14,-9,-6
3231,31,1,998,-13,-23,-11
3232,126,25,1007,-12,-15,-7
3233,142,41,1005,-12,4,-4
3234,34,36,1009,-15,21,1
3235,-108,24,987,-14,20,3
3236,-149,-1,985,-16,4,-3
3237,-88,0,984,-13,-14,-7
3238,51,15,1003,-11,-22,-10
3239,153,27,1016,-14,-11,-7
3240,121,45,1002,-11,11,-2
3241,-1,31,999,-16,23,2
3242,-133,6,986,-15,17,1
3243,-149,7,981,-13,0,-4
3244,-47,0,994,-15,-18,-8
3245,86,24,1010,-13,-20,-8
3246,160,33,1013,-13,-5,-7
3247,92,36,991,-15,15,-1
3248,-56,27,997,-13,23,3
3249,-135,10,996,-16,11,-1
3250,-142,-2,982,-16,-6,-3
3251,-4,9,1001,-13,-22,-8
3252,117,20,1008,-12,-18,-8
3253,147,48,997,-12,1,-4
3254,55,33,1013,-15,19,2
3255,-85,25,989,-13,22,2
3256,-156,0,990,-16,8,-1
3257,-102,3,980,-16,-12,-8
3258,18,7,994,-13,-20,-9
3259,136,36,1014,-13,-15,-8
3260,137,39,1011,-13,4,-3
3261,28,40,999,-15,20,3
3262,-107,14,996,-17,19,1
3263,-157,-8,977,-14,4,-4
3264,-81,1,984,-14,-15,-6
3265,50,13,1005,-12,-20,-9
3266,153,42,1020,-11,-10,-6
3267,122,48,996,-14,10,-1
3268,-10,24,992,-16,23,2
3269,-128,11,999,-16,17,1
3270,-162,-6,968,-16,-1,-2
3271,-39,0,1001,-12,-19,-10
3272,84,28,1016,-11,-20,-7
3273,161,32,993,-13,-6,-7
3274,88,45,1010,-12,14,-1
3275,-51,28,982,-19,22,3
3276,-143,9,1007,-16,13,-1
3277,-135,-7,977,-15,-7,-3
3278,-8,2,1005,-13,-21,-9
3279,131,24,996,-11,-19,-9
3280,140,45,1013,-10,2,-4
3281,66,37,1002,-14,19,1
3282,-98,21,1002,-16,23,3
3283,-153,1,979,-15,5,-2
3284,-101,-9,984,-15,-11,-5
3285,28,13,998,-12,-21,-9
3286,142,31,1010,-11,-13,-7
3287,137,44,1013,-13,7,-4
3288,18,37,1000,-13,24,4
3289,-118,15,989,-16,20,1
3290,-152,0,976,-16,3,-2
3291,-71,-4,988,-15,-16,-5
3292,66,20,1004,-12,-22,-10
3293,154,38,1021,-12,-8,-8
3294,120,38,992,-14,12,-1
3295,-28,33,995,-16,24,2
3296,-134,12,996,-19,15,1
3297,-151,-7,979,-17,-2,-5
3298,-37,5,992,-13,-18,-9
3299,103,22,1025,-12,-20,-9
3300,153,28,987,-12,-2,-6
3301,85,50,1010,-12,15,-2
3302,-68,22,992,-17,23,4
3303,-152,16,992,-14,12,-1
3304,-125,-8,987,-19,-9,-7
3305,5,5,996,-11,-20,-9
3306,122,26,999,-10,-17,-8
3307,141,43,1005,-12,2,-6
3308,45,36,1009,-14,19,1
3309,-95,25,987,-17,20,2
3310,-150,-3,993,-18,5,-1
3311,-93,0,975,-15,-13,-5
3312,41,10,1006,-13,-22,-11
3313,143,31,1011,-12,-13,-6
3314,124,37,1006,-13,8,-3
3315,13,32,1000,-14,22,2
3316,-130,7,985,-16,19,1
3317,-149,1,979,-12,0,-4
3318,-49,-3,988,-12,-17,-8
3319,72,20,1017,-10,-21,-8
3320,152,48,1012,-10,-7,-5
3321,107,37,994,-15,14,-3
3322,-33,26,998,-16,24,4
3323,-144,3,988,-16,14,2
3324,-144,-4,987,-14,-4,-5
3325,-20,7,1002,-13,-19,-8
3326,107,25,1004,-13,-18,-9
3327,158,34,1006,-10,-1,-5
3328,76,47,1004,-11,19,1
3329,-86,30,989,-17,25,4
3330,-144,9,999,-17,9,-1
3331,-122,-12,977,-17,-9,-4
3332,11,7,994,-10,-22,-8
3333,133,20,1009,-11,-17,-10
3334,133,49,1007,-9,5,-3
3335,37,39,1002,-14,19,2
3336,-98,22,995,-15,22,1
3337,-149,-6,977,-18,5,-1
3338,-89,5,985,-13,-13,-4
3339,43,10,1004,-14,-22,-10
3340,146,36,1012,-10,-11,-8
3341,120,50,1004,-13,9,-1
3342,0,28,1002,-17,23,2
3343,-125,12,984,-16,18,1
3344,-153,-7,980,-16,0,-3
3345,-51,1,994,-13,-18,-8
3346,79,21,1011,-14,-21,-9
3347,156,33,1012,-13,-6,-7
3348,98,44,996,-12,14,-1
3349,-40,32,989,-14,23,1
3350,-135,13,993,-18,13,-2
3351,-147,-3,984,-18,-6,-4
3352,-16,1,998,-15,-21,-9
3353,114,18,1007,-16,-20,-9
3354,153,40,998,-11,-1,-6
3355,67,36,1011,-17,17,1
3356,-81,31,988,-15,22,1
3357,-147,2,998,-16,10,-1
3358,-110,0,981,-14,-10,-5
3359,11,5,987,-13,-21,-9
3360,145,26,1020,-11,-16,-10
3361,134,49,994,-15,7,-3
3362,27,35,1009,-17,23,0
3363,-103,20,993,-19,19,1
3364,-158,-2,978,-16,3,-2
3365,-74,-8,984,-14,-14,-8
3366,45,10,1009,-12,-20,-8
3367,152,42,1011,-10,-10,-9
3368,117,38,1003,-15,9,-4
3369,-9,38,1000,-16,22,2
3370,-127,7,987,-18,17,0
3371,-151,-4,979,-14,-1,-4
3372,-42,-1,991,-14,-17,-8
3373,90,25,1020,-12,-19,-10
3374,152,32,1007,-10,-2,-6
3375,93,43,989,-11,15,-3
3376,-49,28,1003,-14,25,2
3377,-140,11,984,-18,14,-1
3378,-138,-2,989,-16,-5,-5
3379,-3,0,1003,-10,-21,-9
3380,115,26,1001,-11,-17,-8
3381,149,35,998,-11,1,-6
3382,56,44,1011,-13,19,2
3383,-89,28,995,-18,23,4
3384,-150,2,985,-14,9,-2
3385,-102,-5,989,-16,-11,-6
3386,20,8,991,-12,-21,-9
3387,141,25,1012,-11,-14,-10
3388,132,47,1007,-13,6,-5
3389,18,36,1007,-12,21,2
3390,-111,23,984,-14,18,1
3391,-155,0,982,-16,3,-3
3392,-73,-3,986,-14,-17,-6
3393,59,21,1009,-13,-22,-9
3394,154,25,1008,-14,-8,-7
3395,109,47,1012,-10,11,-1
3396,-16,29,988,-15,22,2
3397,-141,13,987,-14,16,0
3398,-149,-3,977,-17,-5,-2
3399,-32,4,1004,-13,-20,-7
3400,97,20,1007,-13,-21,-8
3401,162,35,1009,-10,-4,-6
3402,89,36,996,-14,16,0
3403,-71,32,995,-15,24,3
3404,-137,10,987,-15,10,-2
3405,-140,-3,998,-16,-6,-2
3406,8,5,989,-14,-22,-8
3407,135,24,1011,-11,-16,-10
3408,139,40,995,-11,1,-2
3409,58,39,1012,-14,20,2
3410,-105,14,993,-15,23,2
3411,-153,6,986,-13,7,-2
3412,-98,-7,986,-14,-14,-7
3413,36,17,994,-9,-22,-10
3414,148,38,1020,-10,-14,-8
3415,129,42,1002,-11,9,-3
3416,12,32,1006,-16,22,1
3417,-120,13,987,-15,20,2
3418,-154,-7,979,-17,2,-3
3419,-69,-3,989,-14,-17,-8
3420,67,21,1004,-14,-21,-9
3421,153,41,1013,-11,-9,-7
3422,111,50,1001,-11,10,-2
3423,-20,28,991,-16,23,1
3424,-140,7,995,-14,16,0
3425,-148,-6,977,-16,-3,-4
3426,-31,5,998,-15,-20,-8
3427,98,22,1012,-13,-22,-9
3428,159,38,1003,-12,-3,-7
3429,83,40,1003,-14,16,0
3430,-70,29,990,-15,24,3
3431,-147,4,999,-18,11,-2
3432,-124,-5,981,-13,-8,-5
3433,-7,11,1002,-11,-20,-7
3434,135,27,1001,-10,-18,-9
3435,139,41,1007,-11,3,-5
3436,50,46,1002,-14,21,0
3437,-98,16,996,-19,23,2
3438,-158,-2,987,-15,7,-2
3439,-98,-6,973,-15,-13,-6
3440,31,13,1005,-9,-21,-8
3441,149,39,1009,-10,-14,-7
3442,129,51,1009,-13,8,-2
3443,21,29,1000,-16,22,2
3444,-123,12,987,-17,20,2
3445,-153,-3,974,-17,1,-3
3446,-69,0,991,-15,-16,-8
3447,65,16,1009,-14,-21,-11
3448,152,38,1013,-12,-8,-6
3449,119,41,1002,-14,12,-3
3450,-25,28,988,-18,25,2
3451,-137,12,999,-17,16,1
3452,-147,-6,975,-17,-2,-5
3453,-33,5,1004,-14,-18,-9
3454,111,20,1007,-12,-20,-9
3455,148,40,1002,-12,-2,-5
3456,88,34,1001,-14,16,-1
3457,-76,30,996,-17,26,3
3458,-146,10,989,-15,12,-2
3459,-132,-8,990,-15,-8,-5
3460,12,8,988,-11,-20,-9
3461,121,30,1012,-11,-16,-9
3462,138,45,1003,-13,3,-4
3463,52,33,1003,-16,18,0
3464,-100,17,994,-16,23,1
3465,-154,-5,988,-17,7,-3
3466,-87,-1,975,-13,-14,-8
3467,33,14,1005,-12,-20,-11
3468,145,43,1008,-13,-12,-9
3469,128,40,1011,-15,10,-4
3470,7,35,994,-16,22,2
3471,-116,9,994,-16,19,1
3472,-155,-6,976,-14,2,-4
3473,-62,2,987,-14,-16,-7
3474,57,18,1014,-12,-22,-9
3475,155,34,1012,-11,-9,-6
3476,117,39,1000,-15,11,-1
3477,-23,32,987,-14,24,3
3478,-128,8,1006,-16,16,-1
3479,-151,1,976,-14,-1,-4
3480,-40,10,999,-11,-18,-8
3481,100,25,1013,-15,-22,-10
3482,148,40,998,-14,-4,-5
3483,93,36,999,-14,14,-2
3484,-68,27,1000,-16,24,4
3485,-145,4,993,-16,11,-2
3486,-121,-18,983,-15,-7,-6
3487,8,8,991,-11,-21,-9
3488,128,22,1010,-11,-16,-9
3489,143,51,1006,-10,3,-5
3490,35,48,1006,-15,20,3
3491,-95,20,994,-18,22,2
3492,-156,-4,979,-16,6,-1
3493,-87,-6,978,-15,-13,-7
3494,42,8,1008,-13,-20,-9
3495,147,34,1008,-10,-12,-7
3496,127,37,1008,-12,9,-4
3497,3,41,999,-14,23,2
3498,-130,9,987,-16,19,2
3499,-142,1,974,-15,0,-4
3500,-62,1,995,-16,-16,-6
3501,79,18,1012,-13,-21,-9
3502,144,40,1013,-13,-6,-5
3503,104,37,991,-14,12,-3
3504,-34,28,1000,-15,23,2
3505,-144,7,987,-17,14,-1
3506,-143,-2,985,-15,-5,-4
3507,-16,0,1003,-13,-20,-8
3508,111,29,1003,-11,-18,-10
3509,148,41,997,-11,-1,-7
3510,70,44,1016,-15,17,-1
3511,-80,26,988,-18,23,2
3512,-153,-5,995,-18,10,-1
3513,-109,0,984,-13,-10,-5
3514,13,0,991,-15,-21,-8
3515,141,36,1013,-7,-15,-8
3516,133,41,1009,-14,6,-3
3517,31,48,1005,-14,21,2
3518,-111,8,987,-19,19,3
3519,-152,-2,981,-15,3,-3
3520,-79,-9,986,-15,-15,-6
3521,48,24,1000,-11,-21,-10
3522,153,37,1021,-14,-12,-6
3523,122,44,1000,-13,11,-2
3524,-16,29,992,-17,23,3
3525,-127,10,992,-15,17,-1
3526,-154,-7,982,-15,-1,-2
3527,-42,3,984,-14,-18,-9
3528,87,27,1024,-12,-22,-9
3529,157,35,1002,-12,-6,-5
3530,100,40,999,-13,15,-4
3531,-53,27,990,-15,23,4
3532,-148,14,993,-17,13,0
3533,-137,-6,983,-16,-7,-6
3534,-9,7,1009,-14,-21,-8
3535,122,21,997,-13,-19,-9
3536,149,36,1006,-11,0,-6
3537,67,45,1010,-15,17,2
3538,-91,24,990,-14,23,3
3539,-146,7,994,-17,7,-2
3540,-114,-11,984,-18,-10,-5
3541,30,10,988,-10,-21,-9
3542,138,29,1020,-9,-14,-8
3543,132,45,999,-12,7,-4
3544,24,35,1010,-14,20,1
3545,-109,14,983,-17,20,2
3546,-157,0,980,-15,5,-1
3547,-68,-1,985,-16,-16,-8
3548,56,16,1008,-12,-20,-9
3549,149,43,1012,-9,-9,-8
3550,118,39,1001,-13,10,-3
3551,-18,31,996,-15,23,2
3552,-128,7,989,-16,16,2
3553,-149,-4,982,-15,-2,-4
3554,-39,5,996,-15,-20,-8
3555,90,20,1009,-13,-19,-9
3556,156,38,1012,-13,-4,-7
3557,92,39,989,-13,15,-2
3558,-63,24,1002,-19,23,3
3559,-142,5,986,-16,12,-1
3560,-135,-1,991,-16,-6,-4
3561,-1,8,991,-13,-20,-9
3562,124,27,1018,-12,-17,-9
3563,148,44,994,-14,1,-3
3564,50,40,1009,-14,20,1
3565,-87,18,994,-18,22,0
3566,-159,-5,991,-16,8,-1
3567,-100,-5,974,-13,-12,-7
3568,31,11,1008,-13,-21,-8
3569,142,38,1004,-11,-13,-8
3570,125,45,1012,-13,9,-2
3571,16,43,1001,-17,22,3
3572,-119,2,991,-18,20,2
3573,-150,-6,973,-15,1,-4
3574,-66,-5,996,-13,-17,-7
3575,66,20,1001,-10,-20,-11
3576,152,47,1021,-10,-8,-6
3577,112,45,991,-13,11,-1
3578,-35,32,997,-14,24,3
3579,-128,12,990,-17,14,0
3580,-154,-5,984,-16,-3,-4
3581,-23,-1,994,-13,-20,-8
3582,102,23,1011,-12,-18,-9
3583,163,37,1004,-12,-1,-6
3584,71,43,997,-13,19,-1
3585,-63,27,997,-15,24,1
3586,-152,6,996,-17,12,0
3587,-127,0,976,-16,-9,-4
3588,5,6,1008,-13,-22,-9
3589,134,18,998,-12,-17,-9
3590,137,42,1009,-11,3,-3
3591,53,35,999,-16,19,1
3592,-105,23,1005,-14,24,3
3593,-146,5,971,-18,6,-2
3594,-99,-5,995,-14,-11,-7
3595,31,18,992,-13,-21,-8
3596,139,31,1013,-13,-13,-7
3597,135,32,1006,-12,6,-5
3598,2,32,1003,-16,23,5
3599,-113,13,985,-15,18,-1
3600,-151,-5,977,-15,3,-3
3601,-65,9,995,-11,-16,-7
3602,72,24,1008,-12,-20,-9
3603,152,41,1013,-13,-7,-6
3604,104,40,1001,-15,12,-1
3605,-28,15,984,-17,23,3
3606,-139,6,1002,-16,15,1
3607,-137,0,977,-15,-5,-4
3608,-22,4,1010,-13,-19,-8
3609,109,34,994,-13,-19,-9
3610,145,34,1010,-13,-1,-6
3611,79,47,995,-14,15,-1
3612,-79,22,999,-17,24,4
3613,-139,5,988,-15,9,-2
3614,-123,-7,993,-15,-9,-4
3615,23,4,985,-12,-21,-11
3616,121,29,1014,-10,-14,-7
3617,134,47,1001,-12,4,-4
3618,35,39,1005,-15,20,1
3619,-98,20,989,-15,20,3
3620,-155,4,987,-15,5,-2
3621,-81,-4,986,-15,-15,-8
3622,39,11,998,-13,-22,-9
3623,147,37,1014,-11,-12,-9
3624,126,36,1008,-13,8,-4
3625,0,31,998,-14,22,2
3626,-122,16,987,-17,19,3
3627,-150,6,982,-14,1,-5
3628,-51,-1,987,-14,-18,-9
3629,75,27,1012,-12,-20,-10
3630,158,37,1008,-13,-7,-7
3631,103,41,1003,-14,14,-1
3632,-46,22,980,-15,23,2
3633,-141,8,999,-17,12,0
3634,-144,-7,982,-16,-6,-4
3635,-16,8,994,-11,-20,-9
3636,122,23,1018,-9,-18,-11
3637,147,45,990,-11,2,-4
3638,73,40,1010,-14,18,1
3639,-89,32,993,-16,24,3
3640,-152,-1,989,-17,9,-1
3641,-114,-9,987,-15,-10,-6
3642,19,1,991,-12,-21,-9
3643,139,34,1009,-10,-16,-8
3644,133,45,1011,-13,6,-4
3645,39,44,999,-14,20,0
3646,-118,15,995,-17,22,2
3647,-149,-1,981,-15,5,-3
3648,-88,-1,983,-13,-14,-5
3649,52,12,1005,-12,-22,-11
3650,149,37,1016,-12,-11,-8
3651,121,40,1001,-14,9,-2
3652,-9,29,1001,-16,23,2
3653,-124,4,984,-15,17,1
3654,-152,7,988,-14,0,-5
3655,-53,4,984,-12,-17,-8
3656,79,31,1021,-11,-20,-11
3657,157,40,1011,-14,-5,-6
3658,91,35,991,-14,14,0
3659,-45,23,997,-16,23,2
3660,-139,3,992,-18,14,0
3661,-142,-8,981,-14,-5,-4
3662,-6,5,1004,-12,-20,-8
3663,112,26,1006,-10,-18,-7
3664,153,41,996,-9,0,-5
3665,58,47,1010,-16,19,1
3666,-80,24,994,-16,22,3
3667,-153,1,988,-14,10,0
3668,-106,-7,985,-16,-11,-7
3669,19,0,995,-12,-21,-9
3670,142,34,1008,-11,-15,-8
3671,132,40,1009,-13,5,-4
3672,30,43,998,-14,21,1
3673,-109,17,998,-16,21,0
3674,-148,1,970,-17,3,-2
3675,-86,-5,991,-13,-13,-6
3676,54,17,1004,-12,-22,-10
3677,150,32,1013,-12,-10,-6
3678,120,41,996,-13,9,-2
3679,-8,20,1005,-15,24,2
3680,-123,18,981,-15,17,1
3681,-154,1,982,-17,0,-3
3682,-41,3,990,-12,-19,-9
3683,79,23,1021,-13,-20,-9
3684,151,32,997,-12,-5,-8
3685,96,44,1004,-15,14,-1
3686,-54,26,990,-16,24,3
3687,-136,5,994,-14,13,-1
3688,-136,0,982,-13,-6,-4
3689,-12,6,1002,-12,-20,-9
3690,122,25,1004,-14,-18,-10
3691,138,40,998,-12,2,-5
3692,57,41,1008,-15,17,0
3693,-86,22,997,-16,22,2
3694,-153,0,988,-16,7,-1
3695,-100,-7,978,-15,-11,-7
3696,19,14,1006,-12,-20,-8
3697,146,26,1001,-13,-14,-8
3698,122,48,1017,-11,8,-3
3699,31,38,998,-14,21,3
3700,-123,20,992,-15,20,1
3701,-148,0,974,-14,1,-2
3702,-75,-1,993,-15,-16,-7
3703,62,16,1001,-11,-21,-11
3704,155,36,1017,-11,-8,-6
3705,121,42,999,-15,10,-3
3706,-22,29,990,-14,24,3
3707,-136,14,993,-16,15,1
3708,-148,-10,976,-18,-3,-5
3709,-38,11,1005,-6,-20,-9
3710,98,25,1004,-15,-22,-9
3711,154,37,1012,-10,-3,-7
3712,93,40,993,-12,17,0
3713,-64,25,997,-21,24,4
3714,-146,5,992,-13,12,-1
3715,-122,-10,985,-18,-8,-5
3716,-6,4,997,-12,-20,-8
3717,134,32,1001,-8,-18,-9
3718,144,40,1011,-13,2,-5
3719,49,44,997,-15,20,2
3720,-91,21,1000,-17,23,2
3721,-155,-3,981,-17,8,-2
3722,-99,0,982,-14,-12,-4
3723,36,8,997,-15,-22,-9
3724,144,37,1020,-11,-13,-8
3725,128,43,998,-12,9,-2
3726,16,40,1009,-17,24,1
3727,-118,7,988,-17,19,1
3728,-160,-2,968,-13,3,-3
3729,-54,-3,1000,-16,-17,-10
3730,52,15,1003,-12,-19,-8
3731,161,43,1011,-12,-8,-9
3732,108,32,1007,-15,13,-1
3733,-32,42,980,-13,23,4
3734,-132,2,1004,-19,14,0
3735,-148,-2,977,-14,-3,-4
3736,-29,1,996,-14,-19,-7
3737,116,24,1012,-12,-19,-11
3738,142,45,1006,-12,1,-5
3739,83,32,991,-15,18,-1
3740,-80,29,1005,-14,24,4
3741,-150,-2,983,-17,10,-1
3742,-121,-2,995,-12,-9,-5
3743,7,3,986,-13,-21,-9
3744,133,41,1016,-10,-15,-9
3745,137,42,1001,-14,4,-2
3746,38,43,1003,-15,20,2
3747,-101,16,996,-18,21,3
3748,-157,-11,985,-17,5,-1
3749,-86,-6,977,-13,-15,-7
3750,42,10,1006,-10,-22,-9
3751,145,44,1010,-9,-12,-9
3752,128,42,1009,-13,9,-3
3753,0,38,997,-15,23,2
3754,-120,11,989,-17,17,2
3755,-154,-11,976,-17,0,-4
3756,-52,4,993,-13,-17,-6
3757,82,10,1006,-10,-20,-10
3758,150,50,1022,-9,-6,-6
3759,107,42,991,-12,12,-1
3760,-39,37,991,-15,24,2
3761,-142,7,995,-17,14,0
3762,-141,0,982,-16,-3,-4
3763,-16,-3,999,-16,-21,-8
3764,107,26,1013,-13,-19,-7
3765,153,39,991,-12,0,-5
3766,68,39,1009,-13,18,0
3767,-82,21,991,-15,22,3
3768,-150,3,996,-13,10,-3
3769,-111,-6,978,-14,-10,-6
3770,9,23,999,-11,-20,-9
3771,138,25,1006,-14,-16,-10
3772,132,45,1009,-14,6,-3
3773,35,36,1001,-15,19,3
3774,-102,11,993,-16,22,0
3775,-147,-1,984,-12,6,-3
3776,-93,-11,978,-14,-13,-6
3777,53,18,1002,-12,-23,-12
3778,142,43,1020,-11,-10,-6
3779,120,55,1000,-13,11,-3
3780,-3,27,1000,-18,22,3
3781,-129,6,988,-15,17,2
3782,-148,-2,978,-15,-1,-2
3783,-54,0,989,-14,-17,-7
3784,83,21,1018,-10,-21,-8
3785,151,42,1009,-11,-6,-5
3786,101,41,998,-15,12,-1
3787,-44,27,987,-16,24,4
3788,-139,6,993,-17,14,0
3789,-136,-1,990,-14,-5,-4
3790,-23,10,993,-15,-21,-8
3791,111,20,1011,-12,-20,-9
3792,150,44,999,-11,-1,-5
3793,71,36,1004,-13,18,0
3794,-80,28,999,-15,23,2
3795,-142,-4,991,-17,9,0
3796,-118,-9,981,-14,-8,-6
3797,20,12,989,-12,-22,-9
3798,126,32,1024,-9,-16,-8
3799,139,53,988,-11,4,-3
3800,27,44,1021,-16,20,2
3801,-104,15,981,-17,20,2
3802,-151,1,977,-16,4,-3
3803,-79,-26,985,-15,-16,-7
3804,40,22,1007,-8,-21,-8
3805,157,34,1006,-11,-11,-9
3806,119,50,1013,-11,11,-1
3807,0,34,988,-17,22,4
3808,-129,16,989,-16,19,1
3809,-152,-1,984,-17,-1,-3
3810,-49,0,989,-17,-19,-7
3811,85,16,1015,-13,-21,-11
3812,156,35,1012,-12,-5,-6
3813,103,31,992,-13,14,-1
3814,-54,32,998,-13,25,3
3815,-137,4,986,-14,15,-1
3816,-140,0,994,-13,-4,-5
3817,-15,14,989,-12,-20,-7
3818,116,33,1012,-13,-17,-9
3819,151,38,1001,-14,0,-5
3820,56,48,1003,-16,18,1
3821,-82,19,995,-20,21,2
3822,-149,-5,995,-17,8,-2
3823,-104,-15,970,-13,-10,-6
3824,17,13,1001,-13,-21,-9
3825,142,41,1016,-10,-16,-10
3826,128,51,1003,-12,7,-3
3827,27,43,1006,-16,20,1
3828,-117,14,990,-18,20,3
3829,-149,-6,977,-17,3,-3
3830,-74,-10,989,-16,-15,-7
3831,47,16,1005,-12,-20,-10
3832,160,34,1016,-12,-10,-8
3833,110,49,1000,-13,12,-2
3834,-9,36,995,-16,23,2
3835,-128,9,995,-18,18,0
3836,-153,-1,978,-18,-1,-4
3837,-37,2,995,-14,-18,-8
3838,87,23,1014,-11,-20,-10
3839,157,26,1004,-14,-6,-7
3840,85,49,993,-12,16,0
3841,-55,26,997,-18,24,3
3842,-152,10,995,-16,13,1
3843,-130,-2,985,-15,-7,-5
3844,-4,0,999,-16,-22,-9
3845,117,33,1000,-11,-17,-7
3846,151,37,1012,-12,1,-5
3847,56,40,1000,-16,18,2
3848,-95,25,1000,-16,23,3
3849,-144,-5,984,-18,7,-3
3850,-109,-7,981,-13,-11,-5
3851,32,14,995,-14,-22,-9
3852,148,35,1025,-14,-14,-9
3853,125,50,996,-13,8,-2
3854,19,32,1008,-16,23,3
3855,-116,8,992,-15,21,0
3856,-149,-8,972,-17,4,-3
3857,-66,-5,992,-14,-15,-8
3858,58,24,1010,-10,-19,-10
3859,153,40,1013,-11,-8,-8
3860,107,50,1000,-14,12,-1
3861,-19,24,991,-16,23,4
3862,-134,9,993,-15,17,0
3863,-149,-9,982,-18,-3,-4
3864,-36,3,999,-11,-19,-7
3865,96,24,1001,-13,-20,-9
3866,153,40,1014,-12,-3,-6
3867,86,44,991,-13,15,0
3868,-63,23,1000,-17,23,2
3869,-144,6,991,-16,10,-1
3870,-128,-4,990,-15,-8,-3
3871,2,3,991,-11,-22,-9
3872,122,37,1008,-11,-17,-8
3873,141,36,1009,-15,2,-4
3874,43,45,998,-14,19,1
3875,-90,9,995,-20,21,2
3876,-148,3,995,-14,7,-1
3877,-89,-6,969,-16,-13,-4
3878,30,16,1010,-12,-19,-9
3879,145,32,1011,-11,-12,-8
3880,119,51,1004,-11,9,-2
3881,15,28,1008,-16,20,1
3882,-120,19,985,-15,19,2
3883,-150,-3,983,-17,1,-3
3884,-52,-4,986,-14,-17,-7
3885,60,20,1009,-12,-19,-8
3886,159,33,1013,-12,-8,-7
3887,106,41,1000,-13,12,-3
3888,-32,25,983,-15,24,4
3889,-132,9,998,-15,14,0
3890,-148,-4,981,-16,-3,-5
3891,-18,14,998,-12,-20,-6
3892,104,24,1011,-14,-19,-8
3893,148,36,993,-13,-1,-5
3894,73,43,1008,-13,17,2
3895,-80,24,990,-16,21,3
3896,-147,1,1001,-17,8,-1
3897,-114,-11,978,-16,-10,-5
3898,15,9,995,-12,-20,-9
3899,130,31,1015,-8,-15,-8
3900,134,50,1000,-14,6,-5
3901,37,35,1008,-15,21,1
3902,-103,18,989,-19,22,2
3903,-151,-1,985,-17,6,-2
3904,-83,-3,980,-14,-13,-6
3905,40,8,1005,-14,-21,-8
3906,148,38,1009,-11,-12,-8
3907,119,42,1013,-13,10,-3
3908,1,31,993,-16,23,2
3909,-118,13,989,-16,18,0
3910,-148,-3,979,-14,1,-2
3911,-60,4,988,-14,-18,-6
3912,79,22,1013,-11,-21,-10
3913,153,35,1013,-13,-6,-6
3914,102,44,995,-14,12,0
3915,-39,24,992,-15,23,2
3916,-136,8,995,-17,14,-1
3917,-142,-6,981,-15,-3,-4
3918,-16,7,1001,-11,-19,-8
3919,109,28,1009,-10,-19,-9
3920,147,41,995,-11,1,-5
3921,70,41,1010,-15,17,-1
3922,-82,23,993,-17,23,3
3923,-144,3,992,-16,10,-1
3924,-111,-13,982,-16,-10,-5
3925,11,12,992,-11,-21,-8
3926,131,34,1014,-12,-17,-9
3927,136,49,1006,-12,4,-4
3928,37,38,1000,-15,19,1
3929,-99,22,1001,-18,20,0
3930,-152,-13,971,-16,6,-3
3931,-86,-8,984,-12,-14,-7
3932,44,18,1007,-11,-21,-10
3933,143,46,1013,-11,-10,-7
3934,124,46,997,-15,8,-2
3935,-1,31,1009,-16,23,3
3936,-116,9,978,-15,19,1
3937,-159,-1,989,-17,1,-1
3938,-51,0,979,-13,-18,-8
3939,64,19,1023,-11,-20,-8
3940,165,38,998,-11,-9,-8
3941,100,47,1003,-13,13,0
3942,-42,31,990,-16,22,1
3943,-138,8,1000,-17,14,-1
3944,-140,-19,976,-16,-5,-4
3945,-18,13,1002,-11,-19,-7
3946,109,20,1003,-13,-18,-9
3947,147,50,1001,-12,-1,-5
3948,72,40,1008,-18,16,0
3949,-84,26,998,-17,24,3
3950,-147,-8,993,-17,9,-2
3951,-103,-6,977,-14,-9,-6
3952,8,4,991,-12,-19,-6
3953,140,45,1023,-12,-16,-9
3954,133,40,1000,-15,6,-3
3955,31,37,1010,-14,22,1
3956,-104,10,991,-18,20,3
3957,-154,-10,970,-16,6,-4
3958,-82,-4,992,-14,-14,-6
3959,51,20,1004,-14,-21,-9
3960,147,43,1020,-12,-10,-8
3961,122,42,995,-13,10,-2
3962,-12,34,998,-14,23,3
3963,-126,13,989,-17,17,1
3964,-151,-3,980,-16,-1,-4
3965,-36,0,990,-14,-17,-7
3966,92,17,1019,-12,-19,-10
3967,158,37,998,-12,-4,-5
3968,83,38,999,-13,16,-1
3969,-60,34,992,-15,21,2
3970,-144,9,1002,-16,11,0
3971,-135,-5,978,-15,-7,-3
3972,0,3,998,-14,-20,-8
3973,122,28,1002,-13,-17,-9
3974,145,38,1012,-12,1,-5
3975,52,44,998,-14,18,1
3976,-89,20,998,-16,21,2
3977,-152,-3,985,-15,8,-1
3978,-95,-4,978,-15,-11,-6
3979,20,6,996,-13,-21,-10
3980,145,41,1021,-10,-15,-10
3981,134,47,1010,-12,7,-2
3982,12,32,992,-15,22,3
3983,-113,12,1000,-16,18,1
3984,-156,-5,972,-16,3,-1
3985,-65,-8,990,-12,-16,-7
3986,71,24,1013,-9,-20,-10
3987,147,39,1015,-11,-8,-6
3988,109,48,996,-12,11,-2
3989,-23,21,990,-18,24,3
3990,-136,14,996,-15,15,1
3991,-144,-5,975,-15,-3,-3
3992,-26,0,1005,-13,-19,-8
3993,96,25,1002,-10,-18,-7
3994,158,39,1001,-10,-2,-7
3995,72,49,999,-16,16,1
3996,-70,30,996,-16,22,4
3997,-135,0,994,-19,11,-2
3998,-128,-12,980,-15,-8,-4
3999,5,12,1001,-12,-22,-9
4000,132,20,1000,-11,-16,-9
4001,126,43,1010,-10,4,-2
4002,61,42,1002,-15,17,2
4003,-109,23,1002,-17,23,2
4004,-142,6,972,-16,5,-2
4005,-88,-10,994,-14,-12,-8
4006,32,11,993,-11,-21,-8
4007,141,31,1016,-12,-12,-8
4008,128,40,1007,-12,7,-4
4009,5,37,1001,-15,23,3
4010,-121,11,983,-14,19,0
4011,-146,3,986,-12,2,-4
4012,-62,0,989,-14,-16,-6
4013,72,26,1008,-10,-21,-9
4014,154,44,1026,-12,-7,-7
4015,105,41,987,-13,13,0
4016,-35,30,996,-16,24,2
4017,-133,-2,996,-18,13,0
4018,-144,-6,983,-15,-3,-3
4019,-27,3,988,-12,-20,-8
4020,106,33,1019,-9,-20,-9
4021,151,39,994,-11,-3,-6
4022,77,48,1009,-13,18,0
4023,-80,23,991,-18,23,4
4024,-149,5,994,-15,10,-1
4025,-116,-16,981,-16,-11,-6
4026,0,8,988,-12,-22,-7
4027,139,34,1016,-11,-17,-9
4028,139,50,1004,-14,6,-3
4029,43,39,1002,-15,20,2
4030,-100,18,998,-18,22,2
4031,-158,-3,979,-16,7,-3
4032,-88,-12,983,-15,-14,-6
4033,43,10,1002,-12,-21,-11
4034,149,46,1018,-12,-11,-8
4035,125,48,1006,-11,9,-3
4036,2,39,991,-16,22,3
4037,-128,5,997,-15,19,0
4038,-150,0,975,-14,1,-3
4039,-58,-5,990,-16,-17,-8
4040,79,22,1014,-9,-20,-9
4041,156,37,1011,-12,-7,-7
4042,105,40,996,-11,13,-3
4043,-42,40,995,-16,24,4
4044,-138,2,993,-18,14,-1
4045,-145,-1,985,-15,-3,-6
4046,-27,0,991,-16,-19,-8
4047,115,25,1011,-10,-20,-10
4048,150,41,999,-12,0,-4
4049,68,39,1003,-14,18,0
4050,-72,25,1005,-16,23,1
4051,-144,-2,986,-15,11,-2
4052,-120,-6,984,-14,-8,-5
4053,14,18,987,-12,-22,-9
4054,126,37,1022,-8,-15,-8
4055,138,44,1001,1,2,-6
4056,32,33,1010,-23,19,1
4057,-99,11,986,-10,22,1
4058,-154,-10,986,-24,4,-3
4059,-80,-6,974,-6,-16,-7
4060,42,24,1013,-11,-22,-9
4061,154,48,1014,-15,-11,-7
4062,116,43,996,-10,12,0
4063,-2,28,1000,-21,21,1
4064,-126,2,990,-16,17,1
4065,-154,-1,979,-12,0,-4
4066,-41,-5,993,-17,-20,-7
4067,86,30,1015,-8,-20,-8
4068,154,32,1004,-13,-6,-6
4069,90,50,994,-13,14,-1
4070,-55,24,998,-15,22,2
4071,-141,8,991,-19,12,-1
4072,-132,-9,985,-15,-8,-5
4073,-5,4,1000,-14,-21,-7
4074,117,22,1003,-13,-17,-6
4075,141,47,1003,-9,1,-5
4076,66,39,1006,-16,18,0
4077,-94,29,997,-17,24,3
4078,-145,-3,986,-17,7,-3
4079,-113,-8,980,-15,-12,-6
4080,26,7,996,-13,-22,-8
4081,134,39,1017,-11,-14,-8
4082,132,45,1000,-14,6,-4
4083,27,33,1008,-15,21,2
4084,-111,15,987,-16,20,2
4085,-150,2,979,-17,4,-3
4086,-69,-5,987,-15,-15,-7
4087,56,14,1009,-12,-21,-9
4088,152,42,1015,-10,-9,-7
4089,115,42,996,-15,12,-3
4090,-16,30,994,-16,23,2
4091,-129,12,992,-15,15,0
4092,-151,-6,981,-17,-1,-5
4093,-36,4,994,-13,-19,-8
4094,92,22,1015,-11,-19,-9
4095,155,37,995,-14,-2,-6
4096,85,45,1006,-15,15,-1
4097,-60,26,996,-17,23,3
4098,-147,8,991,-20,11,-1
4099,-124,-11,986,-16,-8,-5
4100,-6,12,989,-15,-20,-7
4101,126,28,1010,-15,-17,-9
4102,142,39,1008,-11,0,-4
4103,50,44,1000,-16,18,1
4104,-92,18,994,-17,21,1
4105,-154,-1,989,-17,5,0
4106,-92,-11,977,-15,-15,-7
4107,39,11,1002,-12,-22,-11
4108,145,39,1019,-12,-13,-7
4109,134,39,993,-13,8,-4
4110,7,35,1013,-13,22,2
4111,-120,14,981,-16,18,2
4112,-154,-3,984,-16,2,-3
4113,-55,0,990,-14,-19,-7
4114,67,19,1010,-13,-20,-9
4115,161,36,1014,-11,-8,-7
4116,108,37,997,-14,14,-1
4117,-34,28,989,-14,24,3
4118,-136,3,1000,-17,15,1
4119,-151,2,979,-14,-3,-4
4120,-15,6,1008,-13,-19,-9
4121,108,22,1001,-13,-18,-9
4122,155,37,1003,-10,2,-6
4123,69,39,1001,-13,18,-1
4124,-75,30,998,-16,24,2
4125,-148,1,994,-16,11,-1
4126,-124,-4,979,-16,-7,-6
4127,14,5,991,-12,-20,-10
4128,127,34,1012,-11,-15,-8
4129,143,41,1002,-11,5,-5
4130,34,44,1009,-14,21,1
4131,-99,16,992,-17,21,1
4132,-158,1,984,-15,7,-1
4133,-87,-8,973,-16,-14,-8
4134,42,19,1012,-12,-22,-9
4135,144,39,1008,-14,-13,-6
4136,122,49,1006,-12,9,-2
4137,-2,26,1002,-17,22,2
4138,-123,4,984,-16,18,2
4139,-144,-10,979,-15,0,-4
4140,-59,5,993,-11,-17,-6
4141,85,26,1015,-10,-21,-9
4142,144,43,1005,-13,-5,-4
4143,96,45,997,-15,12,-1
4144,-39,29,991,-17,22,2
4145,-145,2,992,-18,13,1
4146,-137,-8,982,-16,-6,-5
4147,-15,3,1007,-13,-20,-8
4148,114,25,1002,-10,-19,-8
4149,151,32,996,-12,0,-5
4150,67,47,1013,-12,18,0
4151,-80,31,992,-15,24,5
4152,-155,5,989,-17,10,-3
4153,-108,-8,985,-17,-10,-7
4154,18,5,993,-13,-19,-9
4155,141,29,1005,-11,-15,-8
4156,128,31,1011,-12,6,-3
4157,41,45,1002,-12,20,2
4158,-117,19,991,-17,22,2
4159,-149,6,974,-15,2,-3
4160,-74,-6,995,-16,-17,-6
4161,49,18,999,-12,-22,-9
4162,152,36,1017,-12,-11,-8
4163,116,34,1002,-14,10,-3
4164,-14,28,997,-13,23,3
4165,-113,6,983,-17,16,0
4166,-156,3,991,-14,1,-2
4167,-36,7,984,-13,-19,-8
4168,84,22,1022,-11,-19,-9
4169,155,42,1003,-11,-5,-5
4170,85,40,994,-14,16,0
4171,-54,26,998,-16,22,1
4172,-140,-2,992,-18,13,1
4173,-128,-3,984,-13,-6,-6
4174,-8,5,1002,-12,-20,-9
4175,125,29,1005,-11,-17,-10
4176,137,42,1000,-10,3,-4
4177,60,40,1003,-15,18,0
4178,-92,29,1002,-17,22,4
4179,-151,2,981,-16,7,-1
4180,-97,-6,986,-17,-13,-6
4181,20,6,990,-13,-21,-8
4182,137,35,1020,-10,-15,-8
4183,135,40,1000,-15,7,-4
4184,10,38,1005,-15,21,3
4185,-103,19,989,-17,17,0
4186,-153,-5,979,-17,4,0
4187,-70,4,982,-15,-16,-5
4188,57,10,1016,-15,-19,-10
4189,150,48,1008,-11,-10,-5
4190,117,37,1000,-15,10,-1
4191,-15,32,997,-15,23,0
4192,-130,12,990,-16,16,1
4193,-146,-6,981,-18,-2,-4
4194,-34,4,993,-12,-20,-9
4195,95,19,1019,-11,-19,-11
4196,158,35,1000,-11,-3,-6
4197,84,46,999,-12,17,1
4198,-62,34,995,-18,23,2
4199,-141,-2,994,-16,13,-1
4200,-136,-1,986,-14,-6,-5
4201,-4,4,997,-16,-21,-8
4202,128,25,1006,-11,-17,-10
4203,142,41,1001,-13,3,-3
4204,52,41,1009,-18,19,2
4205,-91,27,995,-15,22,2
4206,-151,1,984,-16,7,-3
4207,-101,-6,977,-14,-11,-5
4208,30,13,1004,-14,-22,-10
4209,145,29,1007,-12,-14,-8
4210,130,47,1011,-14,7,-4
4211,11,30,1004,-16,21,3
4212,-110,22,989,-14,19,1
4213,-156,-17,974,-15,4,-3
4214,-73,11,992,-12,-16,-7
4215,66,12,1009,-14,-22,-11
4216,153,43,1013,-12,-8,-7
4217,110,46,1000,-15,11,-2
4218,-20,23,986,-15,23,1
4219,-134,8,1002,-17,16,0
4220,-148,-2,973,-17,-3,-5
4221,-30,4,1008,-13,-18,-10
4222,107,16,1006,-14,-19,-9
4223,150,42,1001,-12,-1,-5
4224,78,38,1008,-15,16,1
4225,-66,30,995,-15,22,2
4226,-148,7,988,-15,11,0
4227,-125,0,988,-16,-8,-5
4228,10,4,991,-15,-21,-10
4229,126,28,1007,-12,-15,-9
4230,137,39,1005,-12,3,-5
4231,45,37,1004,-15,20,0
4232,-101,24,996,-16,21,3
4233,-145,-3,981,-19,5,-2
4234,-87,-3,987,-15,-12,-7
4235,39,8,999,-13,-20,-10
4236,146,42,1016,-12,-12,-8
4237,121,39,1001,-12,10,-3
4238,-1,32,1005,-16,24,2
4239,-113,4,984,-15,17,1
4240,-152,2,981,-13,2,-3
4241,-48,0,993,-13,-17,-8
4242,72,25,1014,-10,-19,-10
4243,149,39,1013,-12,-6,-7
4244,97,44,992,-12,14,-1
4245,-37,25,996,-14,23,1
4246,-134,6,988,-17,14,2
4247,-144,-5,988,-13,-4,-4
4248,-21,3,993,-12,-20,-10
4249,109,29,1020,-11,-20,-9
4250,149,43,985,-11,-3,-5
4251,66,46,1014,-14,17,0
4252,-75,25,997,-17,22,3
4253,-145,-2,987,-17,10,-1
4254,-121,-2,982,-15,-10,-3
4255,19,1,1000,-13,-21,-9
4256,130,26,1006,-12,-15,-7
4257,131,40,1004,-12,4,-3
4258,42,38,1010,-14,20,-1
4259,-111,26,989,-15,22,4
4260,-150,0,978,-15,5,-3
4261,-82,1,989,-15,-15,-7
4262,45,16,1004,-13,-20,-8
4263,145,36,1009,-15,-11,-7
4264,125,33,1009,-13,8,-3
4265,-2,29,1004,-14,22,4
4266,-120,0,973,-16,18,1
4267,-153,6,999,-14,-1,-5
4268,-48,3,973,-15,-18,-6
4269,78,29,1026,-10,-19,-10
4270,159,37,1007,-14,-6,-5
4271,95,41,999,-12,14,-1
4272,-44,19,988,-15,23,2
4273,-143,11,999,-16,13,1
4274,-135,-3,977,-14,-5,-5
4275,-12,9,1008,-14,-20,-9
4276,121,23,1002,-12,-17,-9
4277,148,36,1001,-10,1,-5
4278,57,40,1003,-15,18,0
4279,-83,32,1002,-16,24,4
4280,-149,0,981,-15,11,-1
4281,-111,0,988,-14,-11,-5
4282,22,6,987,-12,-22,-9
4283,139,35,1013,-10,-13,-8
4284,135,36,1008,-14,6,-3
4285,26,45,1005,-14,22,2
4286,-108,15,986,-17,21,2
4287,-159,3,981,-15,5,-2
4288,-76,-8,983,-15,-16,-7
4289,39,21,1010,-12,-20,-7
4290,158,42,1012,-13,-11,-8
4291,114,39,1004,-14,11,-2
4292,-6,29,990,-16,22,2
4293,-120,1,995,-17,16,0
4294,-156,0,977,-16,0,-4
4295,-47,0,994,-14,-18,-9
4296,86,31,1016,-12,-21,-9
4297,148,33,1003,-14,-5,-5
4298,94,47,1000,-13,13,-2
4299,-51,26,998,-19,23,4
4300,-142,5,985,-17,13,0
4301,-128,-11,992,-16,-5,-5
4302,-10,2,996,-13,-20,-8
4303,121,27,1003,-10,-17,-9
4304,150,44,1007,-11,0,-6
4305,55,42,1000,-14,18,2
4306,-82,28,999,-17,22,2
4307,-150,-1,987,-19,8,-1
4308,-101,-11,981,-14,-10,-5
4309,23,6,995,-11,-20,-9
4310,142,30,1017,-11,-15,-9
4311,132,49,1003,-11,7,-3
4312,20,34,1006,-15,22,3
4313,-110,15,988,-16,20,2
4314,-154,-3,977,-14,4,-1
4315,-75,-6,988,-14,-15,-8
4316,57,28,1008,-11,-21,-10
4317,153,42,1013,-12,-10,-7
4318,112,46,997,-11,12,-2
4319,-13,24,999,-17,23,2
4320,-132,5,987,-17,16,0
4321,-154,-1,980,-16,-2,-4
4322,-34,2,998,-14,-19,-9
4323,89,29,1008,-11,-20,-8
4324,155,39,1004,-12,-4,-6
4325,87,50,997,-11,16,-1
4326,-55,27,995,-18,23,2
4327,-147,0,996,-19,12,-2
4328,-131,-9,982,-15,-8,-3
4329,1,11,1002,-13,-22,-8
4330,121,23,995,-13,-17,-9
4331,145,46,1015,-12,2,-4
4332,57,38,1000,-17,19,0
4333,-96,25,995,-16,23,3
4334,-145,-9,986,-20,5,-3
4335,-105,0,980,-12,-13,-5
4336,36,2,995,-12,-22,-10
4337,141,42,1016,-11,-13,-8
4338,127,39,1006,-12,7,-4
4339,18,39,1002,-14,22,1
4340,-121,8,991,-18,19,2
4341,-147,-1,972,-14,3,-3
4342,-64,-5,999,-15,-15,-7
4343,60,26,1001,-10,-20,-9
4344,148,35,1017,-12,-9,-7
4345,117,43,997,-11,12,-4
4346,-33,24,994,-15,26,3
4347,-132,14,988,-15,16,0
4348,-144,-1,993,-16,-1,-4
4349,-32,3,985,-13,-19,-7
4350,95,22,1015,-11,-18,-8
4351,157,44,1003,-12,-4,-7
4352,74,46,1002,-14,16,0
4353,-58,22,994,-18,23,3
4354,-144,1,1000,-18,11,-1
4355,-129,-11,974,-14,-8,-5
4356,4,8,1001,-10,-21,-8
4357,123,32,1000,-11,-17,-8
4358,133,49,1010,-13,3,-3
4359,57,42,998,-15,18,-1
4360,-98,22,1001,-17,22,3
4361,-148,-3,978,-18,6,-1
4362,-99,-3,977,-15,-12,-5
4363,28,9,1006,-11,-23,-10
4364,144,39,1007,-12,-15,-8
4365,126,44,1010,-13,7,-3
4366,16,32,1002,-16,21,3
4367,-120,17,992,-14,18,3
4368,-151,-6,972,-16,0,-2
4369,-61,4,995,-12,-17,-7
4370,70,17,1008,-11,-20,-9
4371,146,42,1013,-13,-7,-6
4372,117,41,999,-13,11,-1
4373,-32,30,990,-15,24,3
4374,-131,11,991,-15,15,-1
4375,-145,-4,988,-16,-2,-5
4376,-28,2,995,-13,-19,-9
4377,105,19,1010,-9,-20,-9
4378,152,39,998,-10,-1,-5
4379,74,40,1002,-15,16,0
4380,-71,35,1004,-15,24,3
4381,-145,2,989,-17,11,1
4382,-118,-11,978,-14,-8,-5
4383,11,10,997,-13,-21,-9
4384,129,29,1007,-11,-15,-7
4385,130,44,1003,-12,5,-4
4386,40,38,1010,-15,19,0
4387,-97,15,988,-16,21,3
4388,-153,-2,980,-16,7,-2
4389,-84,-5,984,-19,-14,-5
4390,42,20,1006,-13,-21,-9
4391,143,36,1010,-10,-11,-8
4392,117,49,1008,-11,8,-2
4393,0,28,997,-20,22,2
4394,-117,4,985,-14,19,0
4395,-153,0,985,-13,1,-2
4396,-56,-2,981,-15,-17,-7
4397,77,30,1022,-10,-18,-9
4398,149,35,1008,-18,-7,-6
4399,99,46,997,-15,13,-2
4400,-33,17,999,-18,22,2
4401,-140,8,985,-16,14,1
4402,-136,-9,993,-13,-4,-6
4403,-22,10,994,-12,-18,-7
4404,112,34,1007,-12,-19,-8
4405,148,44,1001,-10,-1,-6
4406,67,47,1007,-16,16,0
4407,-76,19,994,-17,21,2
4408,-147,-3,995,-17,9,-1
4409,-106,-20,979,-18,-10,-6
4410,12,8,990,-10,-21,-8
4411,137,34,1016,-10,-16,-9
4412,136,47,1010,-11,5,-4
4413,33,43,997,-13,22,3
4414,-104,22,995,-18,20,2
4415,-150,-2,978,-17,4,-2
4416,-79,-7,979,-16,-12,-7
4417,39,10,1009,-13,-19,-10
4418,154,35,1016,-10,-12,-7
4419,119,37,1000,-14,9,-3
4420,-9,30,992,-14,23,2
4421,-122,13,997,-15,17,1
4422,-151,-1,977,-14,2,-4
4423,-47,7,985,-14,-17,-8
4424,82,28,1023,-11,-19,-10
4425,155,32,1001,-12,-4,-6
4426,86,38,995,-14,14,-1
4427,-41,24,996,-15,21,1
4428,-144,4,1000,-15,13,0
4429,-128,-2,977,-16,-6,-5
4430,-14,7,1005,-11,-19,-8
4431,116,36,1001,-10,-18,-9
4432,142,32,1002,-14,1,-4
4433,64,47,1009,-16,17,1
4434,-88,19,996,-18,23,3
4435,-149,-3,989,-14,8,-3
4436,-101,-10,978,-14,-12,-5
4437,19,14,995,-12,-19,-9
4438,137,36,1016,-12,-15,-8
4439,130,48,1004,-13,6,-4
4440,23,31,1007,-13,20,2
4441,-109,19,989,-15,20,1
4442,-151,-3,978,-15,4,-3
4443,-72,-8,981,-13,-15,-7
4444,49,22,1011,-10,-21,-10
4445,161,41,1015,-13,-11,-8
4446,110,39,996,-13,11,0
4447,-12,31,997,-17,22,2
4448,-120,3,994,-18,17,-1
4449,-165,0,978,-14,0,-3
4450,-37,2,989,-14,-20,-9
4451,84,27,1021,-12,-18,-8
4452,149,39,998,-12,-5,-4
4453,98,46,998,-12,14,-2
4454,-54,22,1000,-17,23,3
4455,-143,4,989,-18,13,0
4456,-127,-10,988,-17,-6,-5
4457,-15,10,999,-13,-20,-7
4458,120,27,991,-12,-18,-8
4459,144,42,1019,-14,1,-7
4460,60,38,999,-16,18,1
4461,-94,25,994,-16,23,1
4462,-141,-1,991,-18,6,-4
4463,-109,-6,981,-15,-10,-5
4464,35,10,990,-13,-23,-10
4465,137,33,1021,-13,-14,-8
4466,125,54,1006,-12,6,-2
4467,22,30,1003,-17,22,3
4468,-120,12,987,-17,20,1
4469,-148,-12,979,-15,2,-4
4470,-65,1,992,-14,-15,-10
4471,60,18,1005,-13,-20,-10
4472,155,41,1016,-11,-8,-6
4473,108,45,998,-14,13,-1
4474,-29,24,984,-16,24,2
4475,-130,4,1002,-16,15,-3
4476,-148,-3,978,-15,-2,-5
4477,-30,5,1000,-12,-18,-9
4478,107,24,1014,-12,-19,-11
4479,142,36,993,-12,-1,-4
4480,88,42,1008,-12,14,-2
4481,-80,23,990,-17,23,4
4482,-145,11,996,-17,11,-1
4483,-117,-10,986,-13,-8,-6
4484,1,8,990,-13,-19,-8
4485,132,28,1009,-11,-16,-8
4486,141,38,1004,-13,4,-5
4487,33,46,1005,-15,20,3
4488,-89,18,993,-16,20,1
4489,-150,-6,983,-17,6,-3
4490,-86,-5,978,-13,-13,-6
4491,32,19,1009,-10,-21,-10
4492,148,36,1008,-14,-11,-6
4493,122,46,1007,-13,10,-2
4494,5,32,1004,-16,22,2
4495,-114,12,986,-14,18,1
4496,-157,-1,977,-15,2,-2
4497,-58,-5,991,-14,-18,-8
4498,63,22,1012,-12,-21,-9
4499,140,46,1010,-12,-8,-5
4500,116,42,998,-11,11,-2
4501,-22,28,992,-16,23,2
4502,-123,6,998,-19,15,1
4503,-140,-1,985,-15,-2,-5
4504,-50,0,991,-13,-16,-7
4505,84,29,1009,-12,-22,-7
4506,152,37,998,-14,-5,-6
4507,93,44,1011,-14,15,-1
4508,-53,31,996,-16,22,4
4509,-145,6,998,-18,13,0
4510,-120,-9,978,-15,-8,-5
4511,-6,3,989,-13,-20,-6
4512,124,29,1006,-12,-18,-8
4513,143,45,1013,-13,2,-5
4514,42,41,1003,-15,19,2
4515,-96,24,990,-17,20,2
4516,-150,-1,985,-18,5,-3
4517,-90,-11,975,-16,-14,-5
4518,40,13,1005,-12,-21,-8
4519,146,38,1016,-13,-12,-6
4520,124,44,1004,-13,8,-2
4521,3,26,996,-16,21,1
4522,-128,18,986,-16,18,3
4523,-148,1,982,-17,1,-4
4524,-57,-6,991,-16,-17,-9
4525,85,26,1013,-14,-21,-8
4526,155,29,1015,-13,-6,-5
4527,99,45,993,-13,14,0
4528,-47,22,999,-18,23,4
4529,-139,14,987,-15,13,0
4530,-142,0,990,-16,-5,-4
4531,-8,9,996,-13,-20,-10
4532,117,22,1010,-13,-16,-8
4533,149,39,998,-9,1,-5
4534,64,35,1003,-15,18,1
4535,-85,25,1004,-15,22,2
4536,-145,0,981,-15,9,0
4537,-115,0,986,-14,-10,-6
4538,25,8,989,-13,-22,-10
4539,123,36,1018,-11,-13,-7
4540,143,46,1000,-12,3,-3
4541,25,32,1009,-15,21,3
4542,-103,20,991,-13,19,1
4543,-150,-10,972,-14,5,-3
4544,-82,0,992,-12,-15,-7
4545,50,17,1001,-13,-22,-8
4546,141,46,1018,-12,-11,-7
4547,121,39,993,-14,9,-2
4548,-14,35,1004,-15,22,4
4549,-118,2,985,-18,16,1
4550,-151,-3,979,-15,0,-2
4551,-47,8,993,-12,-18,-8
4552,83,25,1015,-12,-19,-9
4553,149,33,1007,-12,-6,-6
4554,97,48,994,-13,14,-1
4555,-51,28,1001,-18,23,3
4556,-139,11,986,-19,13,0
4557,-135,-13,987,-17,-5,-5
4558,-11,7,997,-12,-21,-9
4559,115,23,1005,-12,-18,-10
4560,146,42,1008,-13,0,-6
4561,63,41,999,-17,18,1
4562,-86,30,999,-16,22,3
4563,-144,-1,990,-18,8,-3
4564,-108,-2,976,-16,-10,-7
4565,18,0,995,-14,-20,-9
4566,144,40,1017,-11,-15,-10
4567,127,42,1002,-15,7,-3
4568,26,36,1003,-16,21,2
4569,-112,15,990,-17,18,2
4570,-151,-2,977,-15,4,-3
4571,-74,-6,987,-15,-15,-6
4572,55,23,1009,-13,-21,-9
4573,154,32,1019,-13,-10,-7
4574,114,43,990,-13,12,-2
4575,-18,23,999,-17,23,2
4576,-129,6,993,-14,16,-1
4577,-150,-2,984,-15,-1,-5
4578,-38,8,986,-13,-17,-8
4579,93,32,1021,-13,-20,-9
4580,153,37,1001,-13,-4,-7
4581,91,39,991,-14,15,-1
4582,-63,28,1007,-16,23,2
4583,-142,1,990,-16,12,0
4584,-124,-7,984,-15,-7,-6
4585,-7,10,992,-14,-19,-9
4586,127,30,1016,-10,-17,-10
4587,138,50,999,-11,2,-5
4588,46,38,1003,-14,19,1
4589,-86,21,1000,-17,21,2
4590,-149,-2,988,-17,8,-1
4591,-98,-3,972,-14,-10,-6
4592,31,8,1005,-14,-20,-10
4593,139,40,1014,-12,-12,-9
4594,125,42,1002,-16,8,-2
4595,14,35,1002,-14,22,1
4596,-110,10,994,-15,18,1
4597,-145,-7,970,-15,3,-2
4598,-73,2,992,-13,-14,-5
4599,60,23,1007,-13,-21,-9
4600,137,47,1016,-14,-9,-5
4601,124,38,995,-18,7,-2
4602,-18,19,994,-17,23,3
4603,-122,3,988,-14,15,2
4604,-150,0,990,-14,-2,-4
4605,-30,0,989,-11,-19,-8
4606,81,29,1014,-11,-20,-7
4607,147,44,999,-12,-6,-6
4608,90,47,1002,-14,15,-1
4609,-69,39,997,-18,21,4
4610,-130,0,992,-19,9,0
4611,-130,-15,988,-17,-9,-4
4612,10,0,984,-15,-22,-8
4613,123,17,1015,-10,-16,-9
