sequence,AccelerometerX,AccelerometerY,AccelerometerZ,GyroscopeX,GyroscopeY,GyroscopeZ
0,-163,-6,980,-15,10,1
1,-127,4,977,-14,-11,-4
2,17,-2,1006,-17,-21,-9
3,139,32,1008,-16,-19,-8
4,151,35,1005,-3,6,-4
5,46,45,1009,-17,22,0
6,-104,14,989,-23,25,5
7,-170,2,974,-15,7,-1
8,-105,0,984,-24,-15,-3
9,39,9,1008,-10,-22,-10
10,163,34,1012,-17,-14,-7
11,143,37,1003,-11,7,-2
12,15,38,1003,-12,24,3
13,-126,9,989,-19,20,2
14,-180,-4,971,-12,4,-2
15,-76,4,999,-14,-18,-8
16,78,19,1010,-13,-23,-10
17,171,36,1004,-11,-9,-7
18,122,44,1002,-17,12,-1
19,-30,33,993,-18,25,3
20,-143,6,1001,-16,18,-1
21,-164,-6,974,-16,-3,-3
22,-36,-1,999,-10,-22,-9
23,117,19,1003,-12,-23,-10
24,162,39,1001,-10,-2,-6
25,94,54,1013,-13,16,0
26,-69,26,994,-19,26,3
27,-165,10,993,-16,14,1
28,-139,-14,975,-19,-10,-4
29,-3,0,996,-12,-24,-9
30,139,17,1009,-12,-20,-9
31,161,43,1006,-11,3,-5
32,55,50,1006,-13,22,2
33,-100,27,994,-17,24,2
34,-168,2,983,-17,8,-2
35,-113,-8,971,-13,-13,-5
36,39,8,1013,-13,-24,-10
37,160,23,1009,-13,-14,-8
38,141,44,1008,-11,9,-3
39,20,38,999,-15,24,2
40,-129,13,990,-16,22,3
41,-168,2,978,-16,2,-1
42,-67,-5,991,-15,-19,-7
43,71,18,1009,-11,-23,-10
44,172,34,1015,-12,-10,-7
45,122,42,995,-12,15,-2
46,-37,31,996,-16,27,5
47,-145,7,997,-14,16,0
48,-162,0,978,-15,-2,-3
49,-33,2,991,-15,-21,-8
50,108,19,1014,-11,-22,-10
51,172,40,999,-13,-3,-6
52,90,47,1003,-15,19,-1
53,-70,27,998,-17,25,3
54,-167,8,990,-18,13,1
55,-133,-17,976,-16,-9,-6
56,-2,10,998,-10,-23,-9
57,139,27,1006,-12,-19,-10
58,160,40,1009,-11,4,-7
59,56,47,1005,-15,21,4
60,-98,27,999,-17,24,4
61,-178,-3,981,-17,8,0
62,-100,-12,972,-15,-15,-7
63,24,5,1010,-13,-24,-8
64,178,33,1010,-9,-15,-10
65,142,41,1012,-11,11,-1
66,12,47,1000,-13,25,3
67,-123,15,992,-15,22,1
68,-178,3,969,-15,4,0
69,-77,-5,992,-16,-20,-5
70,80,11,1016,-12,-24,-12
71,165,27,1007,-10,-10,-6
72,127,49,996,-9,13,-2
73,-22,36,1001,-15,27,2
74,-147,13,994,-15,18,0
75,-170,3,967,-15,-2,-3
76,-36,-2,1007,-14,-22,-10
77,102,13,1007,-13,-22,-9
78,174,33,999,-11,-4,-7
79,104,40,1003,-12,16,-1
80,-71,35,1005,-13,27,4
81,-157,10,984,-17,14,0
82,-148,-1,986,-15,-7,-4
83,-6,0,996,-14,-24,-7
84,134,23,1002,-13,-20,-10
85,163,35,1007,-11,0,-5
86,62,47,1008,-14,20,2
87,-90,17,997,-17,25,2
88,-169,0,981,-15,10,0
89,-120,-3,979,-14,-13,-5
90,23,11,996,-14,-23,-11
91,155,31,1020,-12,-17,-8
92,150,44,1000,-12,6,-3
93,27,37,1006,-16,24,2
94,-121,17,994,-17,21,3
95,-169,-5,968,-19,5,-1
96,-86,-7,990,-13,-16,-7
97,64,14,1012,-12,-24,-10
98,169,37,1010,-11,-11,-8
99,128,49,1000,-12,12,-2
100,-6,37,1000,-17,26,3
101,-150,13,990,-18,20,1
102,-163,-7,973,-17,-2,-4
103,-59,-10,998,-15,-20,-7
104,101,17,1011,-10,-23,-12
105,173,33,1007,-11,-5,-9
106,104,48,993,-12,15,-2
107,-55,37,1005,-16,26,3
108,-155,9,991,-19,14,0
109,-162,-5,980,-17,-7,-2
110,-4,1,999,-14,-24,-9
111,125,11,1001,-14,-20,-10
112,162,39,1002,-10,0,-4
113,77,43,1010,-14,18,1
114,-87,27,995,-17,26,2
115,-166,4,987,-17,10,1
116,-125,4,975,-16,-11,-5
117,18,1,1000,-15,-24,-10
118,148,27,1015,-10,-16,-9
119,146,36,1002,-14,6,-4
120,37,34,1006,-16,23,2
121,-110,16,994,-15,22,3
122,-171,-2,972,-15,6,-2
123,-92,5,988,-11,-16,-7
124,54,9,1007,-12,-23,-12
125,156,40,1011,-11,-12,-8
126,133,41,1005,-12,10,-3
127,-4,34,1003,-15,24,1
128,-140,8,981,-17,20,4
129,-155,-3,981,-16,-1,-4
130,-57,-4,993,-15,-18,-7
131,83,20,1013,-11,-21,-10
132,172,38,1005,-12,-7,-8
133,102,44,1002,-13,18,0
134,-43,34,993,-16,26,3
135,-156,4,995,-17,16,0
136,-152,-6,980,-14,-6,-4
137,-21,0,1001,-13,-21,-8
138,118,21,1005,-13,-21,-9
139,169,40,1002,-10,-1,-5
140,76,50,1012,-13,19,1
141,-75,32,993,-16,24,3
142,-164,7,990,-17,12,0
143,-130,-6,980,-16,-11,-4
144,13,-2,992,-14,-23,-10
145,142,27,1011,-12,-15,-10
146,153,39,1006,-13,4,-4
147,46,37,1008,-14,23,3
148,-109,29,991,-16,24,3
149,-168,5,975,-17,6,-1
150,-95,-4,990,-14,-16,-8
151,37,18,1000,-13,-23,-9
152,164,26,1012,-14,-14,-9
153,134,35,1011,-13,9,-3
154,8,34,993,-14,23,2
155,-124,15,989,-13,19,1
156,-166,11,980,-13,1,-1
157,-69,-6,989,-15,-18,-6
158,80,25,1017,-10,-24,-12
159,163,25,1008,-14,-8,-7
160,113,43,991,-13,12,-2
161,-20,22,1004,-16,25,2
162,-149,12,992,-15,17,2
163,-152,3,979,-16,-4,-4
164,-39,-1,999,-13,-21,-7
165,111,32,1010,-12,-21,-10
166,165,27,998,-13,-4,-7
167,83,52,1011,-12,17,0
168,-62,17,991,-20,24,3
169,-160,8,996,-14,14,-1
170,-131,-12,981,-15,-8,-3
171,-7,8,999,-12,-22,-8
172,141,26,999,-10,-20,-10
173,147,47,1016,-10,2,-5
174,62,46,996,-15,20,3
175,-93,21,1003,-17,25,1
176,-166,-3,983,-18,9,0
177,-117,-5,979,-13,-12,-4
178,28,0,994,-12,-23,-11
179,145,35,1016,-11,-15,-8
180,160,47,1011,-11,5,-5
181,27,44,993,-14,26,1
182,-119,24,1001,-15,22,3
183,-169,0,975,-17,5,-1
184,-105,-12,983,-16,-16,-7
185,60,11,1012,-14,-25,-10
186,170,27,1016,-11,-12,-8
187,146,47,990,-10,10,-2
188,7,41,1008,-13,26,2
189,-140,17,997,-17,23,3
190,-191,0,968,-17,2,-1
191,-66,-6,992,-15,-21,-8
192,83,7,1020,-13,-26,-10
193,186,44,994,-10,-10,-7
194,126,37,1004,-13,15,-1
195,-24,43,1006,-15,28,3
196,-169,1,998,-17,19,3
197,-179,0,967,-16,-4,-4
198,-37,-1,1005,-16,-25,-9
199,125,21,992,-12,-25,-10
200,176,36,1017,-12,-5,-4
201,105,43,1007,-15,17,-1
202,-77,31,1008,-15,27,4
203,-157,-1,981,-17,13,0
204,-157,-5,973,-15,-6,-4
205,2,8,1000,-11,-25,-11
206,143,24,1013,-12,-19,-9
207,161,49,1010,-12,3,-5
208,51,34,1003,-16,21,2
209,-102,24,996,-16,24,1
210,-169,-13,975,-17,6,-1
211,-101,6,985,-13,-15,-8
212,41,3,1006,-13,-24,-11
213,158,38,1008,-9,-13,-9
214,141,41,1010,-14,10,-2
215,3,43,994,-14,25,3
216,-132,15,996,-17,20,2
217,-165,-6,969,-17,1,-3
218,-61,0,1002,-15,-18,-7
219,88,11,1004,-13,-23,-10
220,162,37,1013,-10,-6,-7
221,122,43,991,-12,13,-1
222,-58,41,1000,-16,26,5
223,-139,13,989,-18,13,-1
224,-158,-8,989,-16,-5,-2
225,-14,0,992,-14,-23,-8
226,126,15,1007,-12,-20,-10
227,162,35,1002,-9,0,-5
228,73,48,1011,-13,19,2
229,-83,32,993,-14,25,2
230,-164,4,989,-17,11,1
231,-123,-5,980,-15,-11,-6
232,21,1,991,-12,-22,-10
233,145,23,1021,-11,-16,-9
234,153,44,1001,-12,6,-5
235,29,43,1007,-12,24,2
236,-100,29,987,-19,21,4
237,-171,-8,988,-17,8,-1
238,-90,0,976,-14,-15,-6
239,38,11,1010,-13,-22,-10
240,173,25,1011,-13,-14,-9
241,127,35,1005,-13,11,-1
242,20,42,1000,-13,22,1
243,-134,3,989,-17,23,3
244,-176,14,974,-12,4,0
245,-72,-2,993,-14,-20,-8
246,69,32,1011,-13,-25,-10
247,184,31,1011,-14,-11,-7
248,128,37,994,-17,15,-2
249,-24,23,996,-17,27,3
250,-150,9,1007,-15,18,2
251,-184,-11,962,-17,-1,-2
252,-43,5,1000,-10,-23,-9
253,116,28,1012,-9,-24,-9
254,172,46,992,-12,-4,-6
255,118,49,1011,-14,17,-1
256,-66,27,1008,-18,28,4
257,-169,-2,981,-18,16,1
258,-160,-18,975,-16,-7,-4
259,-20,5,997,-11,-25,-9
260,142,21,1004,-11,-22,-9
261,173,54,1011,-10,0,-6
262,77,44,1008,-15,22,1
263,-89,32,1002,-15,28,2
264,-176,-8,979,-19,11,0
265,-129,-6,973,-15,-12,-6
266,14,-3,1000,-14,-25,-10
267,160,34,1020,-11,-18,-9
268,162,44,1003,-10,4,-3
269,35,38,1007,-12,25,3
270,-108,28,994,-15,23,3
271,-183,-6,972,-18,7,-1
272,-88,2,992,-15,-17,-8
273,50,4,1005,-14,-23,-10
274,174,35,1013,-9,-13,-9
275,137,29,994,-14,11,-1
276,-12,46,1001,-12,26,4
277,-125,15,997,-16,18,2
278,-180,5,979,-16,3,-2
279,-49,4,988,-16,-21,-8
280,91,10,1014,-13,-23,-10
281,164,32,1001,-14,-6,-7
282,106,40,1000,-14,15,0
283,-47,36,1000,-16,25,2
284,-160,4,995,-18,16,2
285,-142,4,976,-14,-6,-5
286,-15,0,997,-12,-21,-10
287,126,26,998,-12,-18,-9
288,152,41,1016,-14,1,-5
289,72,44,1000,-15,20,0
290,-89,26,999,-18,25,3
291,-165,0,982,-18,9,-2
292,-114,-6,974,-14,-12,-7
293,21,6,1003,-14,-25,-9
294,149,35,1011,-12,-16,-9
295,154,41,1014,-14,5,-4
296,31,43,999,-16,22,4
297,-119,16,991,-16,22,2
298,-162,-6,978,-17,5,-4
299,-97,-4,983,-15,-16,-6
300,66,15,1010,-12,-25,-9
301,161,37,1014,-12,-10,-7
302,130,43,998,-13,11,-2
303,-12,34,1000,-15,24,3
304,-148,14,988,-17,19,2
305,-162,-5,981,-17,-3,-4
306,-47,-3,994,-14,-20,-8
307,95,17,1017,-12,-22,-9
308,175,37,1005,-13,-6,-6
309,98,43,996,-13,16,0
310,-57,29,1000,-17,27,3
311,-151,8,988,-18,14,0
312,-152,-3,988,-14,-7,-5
313,-15,3,992,-13,-22,-9
314,135,22,1009,-10,-20,-12
315,156,43,1005,-10,1,-5
316,65,48,1006,-15,20,1
317,-89,21,1002,-18,25,3
318,-170,0,982,-17,10,0
319,-118,-14,978,-15,-12,-6
320,26,10,998,-10,-23,-10
321,152,28,1014,-11,-15,-8
322,144,45,1004,-11,7,-2
323,28,41,1005,-15,23,2
324,-112,21,992,-16,23,2
325,-176,-1,976,-15,5,-2
326,-83,-4,984,-14,-17,-7
327,53,7,1008,-11,-23,-10
328,167,34,1010,-11,-11,-8
329,128,42,1011,-12,12,-2
330,-5,39,995,-14,25,2
331,-144,11,995,-17,18,2
332,-167,3,968,-18,-2,-3
333,-51,-9,1000,-15,-21,-10
334,94,22,1011,-13,-24,-11
335,168,30,1013,-11,-6,-7
336,113,43,996,-11,15,-2
337,-50,28,995,-14,26,5
338,-151,15,999,-16,14,1
339,-159,-6,976,-15,-5,-5
340,-18,8,1000,-12,-23,-10
341,123,18,1008,-13,-22,-8
342,160,41,999,-9,1,-6
343,82,41,1014,-9,16,-1
344,-84,29,996,-8,25,3
345,-161,0,986,-15,12,-1
346,-133,-10,981,-16,-10,-4
347,9,14,998,-9,-24,-10
348,148,24,999,-11,-17,-10
349,150,50,1021,-11,4,-4
350,53,37,992,-15,21,1
351,-107,18,1004,-16,25,2
352,-172,-6,971,-17,8,-1
353,-114,-4,980,-12,-13,-5
354,35,4,999,-13,-25,-12
355,162,39,1022,-10,-16,-8
356,150,44,1001,-12,8,-3
357,11,38,1009,-17,26,4
358,-117,14,978,-16,22,1
359,-179,-11,983,-15,5,0
360,-73,-4,986,-12,-21,-8
361,64,18,1018,-10,-23,-11
362,180,34,1008,-11,-10,-9
363,121,45,997,-12,14,-1
364,-14,39,998,-15,24,1
365,-144,8,997,-19,19,2
366,-171,0,973,-17,-1,-3
367,-46,-6,998,-15,-22,-9
368,103,15,1013,-10,-22,-12
369,176,34,999,-12,-5,-7
370,109,46,1006,-12,17,-1
371,-54,34,1000,-14,26,3
372,-160,4,987,-17,16,1
373,-161,0,984,-14,-6,-5
374,-17,-2,988,-13,-24,-9
375,133,26,1007,-12,-21,-9
376,170,39,1008,-12,0,-5
377,75,43,1009,-15,20,2
378,-83,25,997,-16,26,3
379,-171,-1,984,-16,11,1
380,-126,-2,971,-15,-11,-5
381,12,8,999,-12,-23,-10
382,153,39,1023,-12,-18,-8
383,152,47,1001,-15,5,-3
384,37,37,1004,-14,22,1
385,-115,14,990,-18,22,2
386,-175,-8,970,-17,6,-2
387,-84,-5,993,-15,-19,-8
388,54,20,1005,-13,-24,-9
389,164,32,1014,-9,-11,-7
390,132,49,1003,-12,11,-2
391,-15,36,995,-17,25,4
392,-131,13,996,-15,19,1
393,-170,-5,970,-19,-1,-1
394,-49,-1,997,-12,-20,-9
395,90,9,1015,-10,-22,-10
396,168,39,998,-10,-6,-6
397,108,38,1006,-11,14,-2
398,-42,38,996,-15,25,2
399,-152,4,992,-16,17,1
400,-151,0,979,-12,-5,-3
401,-33,0,1003,-14,-23,-7
402,133,22,997,-13,-21,-11
403,163,38,1013,-12,0,-4
404,84,41,1000,-12,18,1
405,-75,22,1009,-17,25,3
406,-164,-1,978,-17,12,1
407,-137,0,980,-14,-10,-3
408,20,1,996,-13,-23,-11
409,145,31,1015,-10,-17,-8
410,151,39,997,-13,4,-4
411,43,50,1014,-14,22,2
412,-101,11,989,-20,22,4
413,-173,-1,971,-16,7,-1
414,-97,-6,988,-14,-16,-8
415,53,13,1007,-13,-23,-10
416,161,31,1006,-11,-11,-7
417,131,46,1009,-11,10,-2
418,1,37,1003,-15,24,2
419,-133,14,984,-15,21,3
420,-169,2,972,-16,1,-2
421,-52,-4,1007,-15,-20,-8
422,74,19,1003,-11,-22,-8
423,168,41,1012,-11,-8,-7
424,114,34,997,-14,15,-1
425,-41,36,993,-15,26,4
426,-140,3,999,-18,15,1
427,-166,0,980,-15,-4,-3
428,-18,-2,994,-14,-23,-8
429,107,26,1013,-10,-19,-9
430,167,42,995,-9,-2,-6
431,80,45,1013,-14,19,-1
432,-72,25,994,-19,24,4
433,-163,4,989,-15,12,0
434,-123,-15,980,-17,-10,-6
435,0,-2,998,-13,-21,-8
436,145,33,1005,-11,-18,-9
437,148,40,1011,-12,4,-4
438,48,47,1003,-12,23,3
439,-101,25,995,-17,24,4
440,-167,-1,980,-17,7,-1
441,-102,-4,975,-16,-14,-4
442,36,5,1009,-14,-23,-10
443,160,37,1013,-10,-14,-10
444,141,38,1003,-14,8,-2
445,16,43,1008,-13,24,2
446,-116,7,982,-16,21,0
447,-177,2,976,-14,3,-2
448,-76,0,997,-14,-19,-7
449,65,17,1011,-14,-23,-11
450,168,37,1003,-13,-10,-7
451,130,41,1009,-14,12,-2
452,-15,32,996,-18,25,2
453,-146,4,993,-16,19,2
454,-171,3,978,-16,-3,-3
455,-44,1,1002,-16,-20,-9
456,105,24,999,-10,-20,-11
457,165,33,1012,-13,-5,-7
458,106,49,994,-13,17,0
459,-71,28,999,-17,27,3
460,-146,9,991,-19,13,-1
461,-156,-3,986,-19,-5,-3
462,3,3,989,-14,-24,-11
463,121,23,1010,-12,-17,-9
464,158,44,1004,-12,1,-6
465,71,41,1012,-16,20,0
466,-96,24,991,-18,25,3
467,-164,8,992,-17,9,0
468,-108,-9,975,-17,-11,-7
469,10,7,999,-12,-21,-8
470,156,31,1019,-12,-19,-9
471,147,39,1003,-13,5,-6
472,48,39,1006,-14,21,3
473,-114,22,995,-17,23,3
474,-174,-2,969,-17,7,-4
475,-103,-13,994,-16,-17,-6
476,42,16,994,-12,-25,-9
477,165,30,1019,-12,-13,-8
478,167,44,1004,-13,9,-4
479,0,28,995,-16,29,4
480,-125,19,997,-17,22,0
481,-196,-11,974,-16,3,-2
482,-81,9,983,-12,-21,-9
483,77,14,1022,-14,-26,-9
484,187,39,1002,-11,-10,-8
485,143,37,995,-14,14,-1
486,-18,35,1004,-14,28,2
487,-165,8,999,-19,21,3
488,-181,-5,967,-15,-2,-4
489,-60,-1,1000,-14,-23,-8
490,120,27,999,-12,-27,-11
491,184,35,1007,-13,-6,-7
492,120,41,1009,-15,17,-1
493,-61,33,1011,-17,30,4
494,-172,1,980,-17,18,0
495,-166,-12,976,-16,-7,-5
496,-21,2,995,-14,-26,-9
497,137,31,1007,-11,-24,-10
498,184,39,1014,-16,-1,-6
499,77,40,1007,-13,22,1
500,-88,28,1004,-17,26,2
501,-180,-4,966,-19,12,-1
502,-130,1,987,-14,-12,-6
503,17,0,995,-15,-26,-9
504,149,40,1013,-8,-17,-10
505,167,43,1011,-14,4,-6
506,27,40,999,-15,24,3
507,-114,10,993,-16,22,2
508,-178,-2,976,-19,4,-1
509,-89,-7,990,-16,-18,-7
510,67,8,1012,-11,-25,-11
511,162,34,1009,-10,-11,-7
512,139,46,992,-10,11,-1
513,-12,42,1009,-15,25,5
514,-148,11,990,-17,18,1
515,-171,0,975,-15,-2,-3
516,-47,-4,1001,-18,-22,-8
517,98,12,1005,-11,-24,-10
518,178,30,1001,-12,-6,-5
519,103,47,1007,-13,16,0
520,-52,34,1001,-16,26,3
521,-162,10,993,-18,14,0
522,-158,-5,975,-20,-7,-4
523,-16,2,997,-13,-24,-9
524,130,24,1007,-14,-22,-8
525,171,36,1005,-11,0,-5
526,79,45,1013,-14,21,1
527,-84,25,1005,-15,28,3
528,-180,6,968,-16,12,0
529,-140,-7,982,-15,-12,-5
530,8,16,1000,-11,-27,-11
531,160,29,1021,-13,-20,-9
532,179,41,994,-13,4,-5
533,44,34,1018,-17,25,3
534,-109,15,978,-18,27,2
535,-204,-1,980,-16,10,0
536,-108,0,981,-15,-18,-8
537,39,15,1015,-13,-26,-9
538,185,31,1008,-15,-16,-9
539,169,42,1001,-12,11,-3
540,16,28,1003,-17,29,2
541,-150,16,994,-16,25,2
542,-198,-4,971,-16,3,-3
543,-95,-1,990,-15,-21,-8
544,95,24,1013,-11,-27,-11
545,195,29,1005,-13,-10,-8
546,144,44,1003,-13,14,-2
547,-19,26,999,-15,29,4
548,-181,9,999,-17,22,3
549,-185,-6,966,-14,-4,-4
550,-56,-1,1003,-14,-24,-8
551,128,26,997,-11,-26,-10
552,198,36,1014,-12,-5,-7
553,121,55,1013,-13,18,0
554,-71,21,996,-15,30,4
555,-184,8,986,-18,16,-1
556,-172,-16,969,-16,-8,-3
557,-15,4,993,-11,-27,-10
558,153,31,1023,-12,-23,-10
559,190,44,1000,-12,1,-5
560,78,44,1013,-14,24,2
561,-105,22,992,-17,29,4
562,-189,0,980,-16,12,-1
563,-138,-17,970,-17,-13,-7
564,15,11,1007,-10,-26,-10
565,183,30,1017,-11,-20,-11
566,166,46,996,-10,6,-4
567,39,37,1012,-15,25,2
568,-132,22,990,-16,25,4
569,-195,1,973,-18,5,-1
570,-95,-4,986,-16,-19,-8
571,60,9,1018,-13,-25,-11
572,187,30,1003,-11,-13,-6
573,137,43,1003,-12,12,-1
574,-8,34,1000,-13,26,2
575,-155,19,1004,-16,21,1
576,-176,-11,967,-16,-1,-3
577,-57,2,1002,-13,-22,-9
578,115,13,1007,-11,-25,-12
579,173,40,997,-9,-4,-7
580,109,47,1013,-13,16,0
581,-59,30,1008,-16,26,4
582,-165,11,981,-16,16,2
583,-154,-6,972,-16,-8,-2
584,-13,5,999,-12,-25,-10
585,141,20,1008,-10,-21,-11
586,159,40,1006,-10,1,-5
587,74,43,1008,-14,21,-1
588,-89,20,1000,-16,26,0
589,-176,6,969,-15,11,1
590,-132,-11,984,-16,-12,-5
591,26,11,1005,-11,-26,-11
592,160,29,1009,-13,-16,-7
593,155,49,1008,-12,7,-5
594,31,36,1007,-15,25,1
595,-119,21,983,-17,24,2
596,-188,-7,978,-18,4,-1
597,-89,1,994,-13,-19,-9
598,70,10,1008,-14,-24,-11
599,166,32,1008,-11,-11,-8
600,141,43,1003,-12,10,-1
601,-11,30,997,-15,27,3
602,-141,18,997,-15,21,2
603,-184,-3,982,-17,-1,-1
604,-52,0,994,-13,-21,-9
605,102,15,1004,-11,-25,-11
606,176,45,1006,-11,-7,-6
607,109,35,1008,-15,16,1
608,-44,34,998,-18,26,3
609,-158,-7,993,-18,16,2
610,-149,2,977,-13,-7,-6
611,-9,-5,998,-15,-23,-9
612,135,30,1000,-10,-21,-10
613,158,39,1008,-13,2,-4
614,70,46,1008,-14,21,0
615,-93,20,999,-17,27,4
616,-172,1,972,-18,9,0
617,-117,-11,987,-14,-13,-5
618,22,6,995,-12,-24,-9
619,150,32,1015,-10,-16,-9
620,151,41,1009,-12,7,-4
621,19,42,1000,-13,25,5
622,-119,21,990,-16,20,2
623,-176,2,982,-17,5,-2
624,-80,-9,981,-15,-17,-8
625,58,16,1017,-12,-22,-11
626,162,33,1005,-12,-11,-7
627,122,47,1001,-10,12,-4
628,-9,36,999,-15,25,4
629,-146,31,995,-16,19,2
630,-159,-11,977,-18,-1,-5
631,-50,-4,998,-14,-21,-8
632,86,15,1005,-12,-22,-9
633,182,32,1010,-10,-7,-8
634,101,40,1000,-12,18,2
635,-41,46,999,-14,25,4
636,-160,0,997,-19,17,0
637,-163,-2,974,-13,-6,-4
638,-14,-10,995,-15,-24,-8
639,128,27,1006,-10,-20,-10
640,163,37,1003,-11,0,-4
641,94,42,1010,-13,18,-1
642,-95,29,1002,-16,27,6
643,-160,12,977,-14,10,-2
644,-128,-14,982,-17,-12,-6
645,16,9,993,-12,-23,-8
646,150,24,1020,-12,-17,-9
647,153,44,1003,-13,5,-5
648,35,37,1008,-13,24,3
649,-105,18,990,-17,22,0
650,-177,-7,976,-17,7,-1
651,-85,-4,984,-13,-16,-8
652,48,15,1009,-12,-23,-9
653,160,35,1007,-11,-13,-8
654,141,52,1009,-10,10,-3
655,-5,30,995,-17,26,4
656,-143,18,995,-18,20,2
657,-164,0,976,-19,0,-5
658,-73,1,991,-15,-19,-7
659,93,20,1012,-11,-24,-10
660,173,34,1010,-12,-8,-8
661,121,43,990,-11,15,-1
662,-45,27,1002,-17,29,4
663,-155,8,990,-17,17,0
664,-172,-7,985,-15,-4,-4
665,-24,7,989,-12,-25,-10
666,115,21,1007,-12,-24,-9
667,181,48,1003,-12,-4,-7
668,90,35,1016,-16,19,0
669,-75,24,991,-16,27,4
670,-175,1,995,-18,13,0
671,-137,-16,970,-16,-12,-7
672,-5,4,996,-10,-23,-9
673,156,33,1014,-10,-21,-11
674,155,45,1007,-12,5,-4
675,66,38,1005,-15,21,2
676,-107,19,1000,-16,25,5
677,-173,-6,966,-17,9,-2
678,-104,-14,986,-15,-15,-7
679,37,10,1007,-12,-25,-9
680,163,39,1009,-11,-14,-8
681,154,45,1012,-11,11,-3
682,15,34,998,-13,33,7
683,-131,15,989,-18,24,4
684,-176,-10,974,-16,2,-4
685,-71,-4,991,-14,-18,-7
686,67,17,1007,-12,-23,-7
687,178,44,1023,-10,-10,-9
688,133,34,986,-14,14,-1
689,-33,45,1003,-13,28,5
690,-144,1,1000,-19,17,2
691,-179,7,972,-13,-2,-3
692,-48,-4,997,-14,-23,-7
693,112,20,1013,-13,-25,-9
694,177,34,996,-10,-4,-6
695,115,40,1009,-11,18,-1
696,-70,37,1002,-18,29,5
697,-167,4,989,-16,16,0
698,-160,0,976,-16,-7,-5
699,-19,1,986,-13,-26,-9
700,142,30,1016,-11,-22,-11
701,176,38,1005,-13,2,-6
702,71,39,1005,-13,22,2
703,-93,24,1003,-16,25,4
704,-177,-11,974,-16,10,-1
705,-122,3,973,-12,-12,-6
706,12,5,1007,-13,-25,-8
707,164,45,1020,-7,-17,-10
708,166,31,996,-14,7,-3
709,32,48,1008,-13,24,3
710,-114,9,998,-17,23,4
711,-186,-2,960,-15,6,-2
712,-88,-7,996,-15,-17,-7
713,62,11,1008,-11,-25,-10
714,167,44,1014,-11,-12,-7
715,150,33,993,-12,9,-2
716,-18,41,1003,-13,27,4
717,-138,4,999,-19,18,2
718,-175,-2,973,-17,0,-3
719,-48,-6,1000,-13,-21,-8
720,101,26,1007,-10,-22,-9
721,169,31,1000,-13,-4,-7
722,98,51,1006,-12,17,1
723,-54,34,1000,-18,26,3
724,-161,5,992,-17,15,-1
725,-149,-4,979,-17,-8,-3
726,-6,0,998,-12,-23,-10
727,128,19,1000,-11,-18,-9
728,155,43,1013,-12,1,-5
729,73,41,1008,-14,19,0
730,-94,30,991,-16,26,3
731,-160,4,992,-17,8,-1
732,-126,-9,972,-15,-12,-7
733,16,6,1001,-14,-24,-11
734,157,25,1018,-9,-17,-8
735,140,48,1004,-9,7,-3
736,41,36,1002,-15,22,1
737,-117,20,996,-16,23,2
738,-164,-5,969,-18,5,-2
739,-88,-7,993,-14,-15,-8
740,57,17,1004,-12,-23,-9
741,166,31,1013,-11,-11,-7
742,129,43,998,-10,10,-2
743,-12,35,996,-15,26,4
744,-133,11,999,-16,18,1
745,-168,-11,972,-17,0,-1
746,-43,2,994,-13,-20,-9
747,98,12,1019,-13,-22,-10
748,163,39,995,-11,-5,-6
749,104,46,1003,-13,17,-1
750,-56,35,1001,-19,25,4
751,-156,10,988,-19,14,1
752,-142,-8,984,-16,-7,-4
753,-15,-1,994,-13,-22,-7
754,137,16,1005,-12,-20,-10
755,150,43,1010,-10,3,-3
756,73,49,1008,-14,18,0
757,-96,24,1001,-14,26,2
758,-164,12,978,-16,8,-1
759,-116,-7,981,-15,-13,-7
760,26,1,1000,-11,-24,-11
761,147,29,1013,-10,-16,-9
762,145,43,1005,-12,6,-5
763,31,40,1005,-13,24,2
764,-119,21,987,-16,22,2
765,-172,-2,974,-18,4,-2
766,-84,-3,991,-15,-17,-8
767,54,10,1006,-12,-23,-10
768,164,37,1011,-12,-11,-7
769,131,38,1005,-14,11,-3
770,-9,32,997,-17,24,3
771,-137,17,984,-16,18,2
772,-169,-4,983,-18,0,-3
773,-48,2,992,-15,-21,-9
774,93,20,1016,-10,-21,-10
775,167,28,1006,-12,-6,-7
776,104,37,995,-14,15,0
777,-47,34,1000,-15,26,3
778,-153,12,992,-18,14,1
779,-151,-4,981,-15,-6,-4
780,-13,4,1005,-15,-22,-9
781,123,17,1001,-12,-20,-10
782,160,43,1000,-11,0,-6
783,77,41,1014,-18,19,0
784,-78,31,1005,-15,25,3
785,-168,0,966,-18,12,0
786,-141,-2,993,-15,-10,-5
787,19,1,991,-11,-25,-10
788,138,27,1006,-12,-17,-10
789,164,39,1012,-12,2,-4
790,42,45,1007,-15,24,1
791,-91,20,988,-19,23,-1
792,-186,-1,982,-16,9,0
793,-107,-1,979,-15,-15,-7
794,35,5,1003,-14,-24,-10
795,167,36,1016,-10,-14,-8
796,146,36,1001,-12,12,-2
797,10,37,1006,-15,25,2
798,-121,12,985,-17,21,3
799,-183,0,980,-16,4,0
800,-71,-8,987,-15,-18,-8
801,70,20,1010,-9,-23,-10
802,177,33,1014,-10,-9,-7
803,116,42,988,-14,15,0
804,-31,45,1002,-15,26,3
805,-145,1,999,-17,17,0
806,-169,-2,970,-14,-2,-3
807,-29,-9,997,-13,-21,-10
808,106,21,1014,-9,-21,-9
809,173,35,992,-10,-2,-5
810,91,58,1015,-10,20,0
811,-68,34,995,-17,25,4
812,-165,7,990,-17,14,0
813,-142,-12,974,-17,-10,-6
814,0,0,999,-11,-23,-11
815,148,20,1005,-12,-20,-10
816,153,42,1005,-12,3,-4
817,62,45,1010,-15,21,2
818,-105,22,991,-17,26,3
819,-171,9,984,-17,7,0
820,-105,-14,973,-16,-15,-6
821,27,16,1007,-10,-24,-11
822,170,25,1012,-15,-16,-8
823,144,45,1007,-11,8,-3
824,14,33,999,-16,24,3
825,-121,16,991,-15,22,0
826,-178,-6,976,-18,2,0
827,-78,4,988,-14,-19,-7
828,76,16,1017,-16,-24,-12
829,171,33,1014,-12,-10,-8
830,132,41,990,-14,12,-1
831,-20,35,1005,-15,26,3
832,-142,10,996,-17,18,0
833,-172,-6,971,-15,-2,-3
834,-44,5,1002,-13,-22,-7
835,106,26,1006,-12,-23,-9
836,173,29,1000,-11,-4,-7
837,103,43,1005,-14,17,2
838,-60,33,1000,-16,27,3
839,-162,6,989,-16,14,0
840,-152,-3,979,-15,-7,-3
841,-9,5,997,-14,-23,-8
842,140,16,1004,-13,-21,-11
843,165,39,1002,-13,1,-4
844,76,43,1014,-15,20,2
845,-90,20,994,-18,26,2
846,-180,7,982,-15,10,0
847,-116,-12,976,-14,-14,-7
848,17,17,1002,-11,-25,-10
849,157,27,1015,-12,-16,-10
850,153,43,1009,-13,6,-5
851,28,37,1000,-15,25,3
852,-114,15,992,-16,23,1
853,-176,-2,974,-16,4,-1
854,-85,-6,985,-13,-17,-7
855,71,12,1017,-13,-24,-11
856,163,41,1006,-9,-9,-8
857,131,42,1000,-11,12,-1
858,-18,36,1000,-16,25,3
859,-152,16,993,-15,17,1
860,-168,-8,971,-17,-3,-4
861,-41,-1,1000,-13,-21,-9
862,100,25,1005,-12,-23,-8
863,179,29,1011,-11,-5,-7
864,102,37,993,-12,16,1
865,-64,40,1004,-14,27,3
866,-150,2,990,-17,13,-2
867,-163,-3,979,-15,-6,-3
868,-2,-2,993,-12,-24,-10
869,123,28,1016,-10,-20,-8
870,169,39,994,-10,0,-6
871,74,44,1015,-13,20,1
872,-92,24,998,-18,24,4
873,-168,0,979,-17,11,-1
874,-110,-10,976,-17,-13,-6
875,8,9,1000,-11,-23,-6
876,155,32,1016,-10,-18,-10
877,154,42,1005,-11,6,-4
878,37,42,1002,-12,23,3
879,-115,23,995,-18,23,4
880,-171,-7,972,-17,5,-3
881,-91,-3,990,-15,-16,-7
882,52,9,1007,-14,-25,-9
883,161,28,1010,-9,-11,-9
884,142,48,1008,-12,10,-3
885,-8,34,992,-14,27,6
886,-137,28,996,-15,20,2
887,-167,-7,976,-20,-1,-3
888,-56,2,992,-15,-21,-9
889,93,7,1014,-12,-24,-11
890,162,38,1007,-9,-6,-7
891,114,41,992,-11,14,-1
892,-40,40,1004,-15,27,3
893,-158,10,996,-16,16,1
894,-149,-3,974,-14,-4,-4
895,-29,-4,998,-12,-21,-9
896,126,19,1002,-8,-21,-10
897,163,34,1008,-11,0,-5
898,81,58,1008,-12,18,1
899,-75,20,997,-18,25,1
900,-168,12,991,-15,12,0
901,-131,-12,967,-15,-11,-4
902,8,12,1007,-12,-22,-10
903,145,18,1007,-14,-17,-8
904,155,49,1012,-9,5,-5
905,57,37,1000,-15,22,2
906,-114,21,1001,-15,25,3
907,-168,2,971,-16,6,-2
908,-111,-8,980,-13,-15,-7
909,36,12,1015,-12,-26,-10
910,163,33,1004,-12,-15,-8
911,153,44,1011,-11,8,-3
912,19,25,993,-18,24,4
913,-135,26,1001,-15,23,2
914,-174,-12,964,-18,4,-2
915,-88,1,996,-10,-17,-7
916,78,20,1009,-11,-25,-9
917,171,30,1017,-12,-9,-8
918,135,48,991,-12,11,-1
919,-26,28,1001,-18,27,5
920,-152,13,999,-18,19,0
921,-166,-15,974,-16,-2,-4
922,-38,-2,995,-12,-22,-9
923,111,18,1007,-12,-23,-9
924,169,49,1005,-9,-4,-7
925,81,45,1007,-16,18,0
926,-64,42,1001,-18,25,3
927,-163,-2,990,-20,13,0
928,-136,-12,965,-17,-9,-5
929,5,-8,1006,-14,-23,-10
930,147,24,1004,-11,-18,-9
931,147,47,1005,-11,5,-4
932,56,54,1013,-14,22,1
933,-110,23,990,-17,24,4
934,-169,6,976,-17,6,0
935,-104,-14,986,-18,-15,-7
936,38,3,1005,-12,-23,-10
937,168,21,1008,-10,-15,-9
938,147,48,1008,-9,10,-4
939,12,41,1002,-14,26,4
940,-124,25,990,-16,23,1
941,-191,1,975,-18,5,0
942,-78,-4,991,-14,-20,-7
943,73,10,1011,-14,-23,-10
944,175,33,1006,-11,-9,-7
945,141,30,998,-15,13,-3
946,-18,49,999,-14,28,3
947,-150,6,1000,-18,20,3
948,-193,5,971,-14,-1,-4
949,-55,-4,997,-16,-23,-7
950,108,23,1004,-12,-26,-10
951,194,30,1006,-13,-7,-7
952,131,40,1012,-13,18,-2
953,-60,28,1002,-15,31,4
954,-176,1,988,-15,18,-1
955,-179,-7,975,-16,-5,-4
956,-34,6,991,-12,-27,-8
957,142,35,1005,-11,-26,-10
958,202,43,1021,-13,-1,-6
959,106,41,1003,-15,23,2
960,-87,17,1006,-17,31,3
961,-197,-6,974,-16,15,0
962,-170,-10,965,-14,-12,-5
963,1,18,1001,-12,-30,-10
964,165,36,1021,-11,-23,-11
965,207,47,1007,-12,2,-6
966,74,36,1005,-17,27,2
967,-117,7,995,-18,30,3
968,-217,-7,973,-15,10,0
969,-143,-2,981,-12,-18,-7
970,38,21,1007,-12,-31,-10
971,197,36,1020,-12,-19,-8
972,195,41,998,-14,9,-3
973,26,33,1003,-12,31,3
974,-147,13,1004,-15,27,0
975,-230,-10,962,-17,6,-1
976,-112,3,988,-11,-22,-7
977,82,18,1009,-12,-32,-9
978,207,40,1007,-11,-15,-8
979,175,46,1008,-13,11,-3
980,-15,28,1003,-17,31,5
981,-173,5,992,-15,25,1
982,-208,-14,972,-15,-1,-3
983,-79,7,986,-11,-25,-7
984,119,32,1004,-12,-31,-11
985,215,37,1016,-14,-8,-8
986,138,46,1012,-16,17,1
987,-53,17,998,-17,31,4
988,-192,2,988,-15,20,-1
989,-183,-18,962,-15,-7,-5
990,-33,8,989,-12,-28,-10
991,145,39,1028,-12,-27,-11
992,201,51,1003,-14,-3,-6
993,97,43,1007,-14,22,1
994,-102,19,997,-17,29,5
995,-188,-9,974,-17,12,-1
996,-141,-23,979,-15,-13,-7
997,8,17,1001,-11,-26,-9
998,171,36,1025,-10,-19,-10
999,178,45,990,-14,6,-5
1000,30,47,1006,-13,26,4
1001,-116,21,1003,-21,23,3
1002,-198,-11,972,-18,7,-2
1003,-84,-12,980,-12,-18,-8
1004,60,8,1018,-10,-24,-8
1005,177,37,997,-8,-12,-9
1006,144,46,1006,-11,13,-2
1007,-18,50,1005,-15,28,4
1008,-148,12,998,-18,20,1
1009,-180,-14,978,-18,-1,-3
1010,-67,-8,983,-14,-22,-6
1011,119,15,1010,-10,-26,-11
1012,184,39,1002,-11,-6,-7
1013,110,46,1016,-15,16,0
1014,-45,43,1007,-17,27,2
1015,-185,5,982,-22,16,1
1016,-160,-6,971,-26,-8,-4
1017,-20,-5,999,-15,-25,-10
1018,147,29,1009,-10,-23,-10
1019,181,32,1009,-12,0,-6
1020,86,47,1013,-14,22,0
1021,-101,20,989,-16,29,4
1022,-190,8,977,-17,12,0
1023,-139,-12,984,-14,-14,-5
1024,23,18,999,-10,-27,-9
1025,172,29,1016,-14,-18,-8
1026,175,44,1007,-12,6,-4
1027,39,33,997,-17,26,4
1028,-132,16,998,-16,26,3
1029,-199,-3,975,-18,5,-2
1030,-99,-7,980,-15,-19,-8
1031,72,20,1018,-12,-29,-10
1032,188,40,1001,-13,-13,-8
1033,157,43,1001,-14,13,-2
1034,-12,35,1007,-18,28,4
1035,-164,3,993,-18,23,2
1036,-189,-8,974,-14,-1,-3
1037,-58,-4,995,-14,-23,-8
1038,108,24,997,-11,-25,-9
1039,196,41,1018,-11,-6,-8
1040,125,41,1010,-15,19,-2
1041,-63,39,1001,-14,32,4
1042,-177,-2,992,-17,17,0
1043,-175,-5,966,-13,-7,-5
1044,-20,-1,989,-12,-26,-7
1045,139,29,1018,-10,-23,-10
1046,193,45,1008,-11,-2,-5
1047,89,41,1011,-14,22,2
1048,-90,24,995,-17,28,3
1049,-194,-4,978,-16,14,-1
1050,-148,-2,973,-15,-13,-6
1051,18,9,1006,-14,-28,-10
1052,167,33,1013,-11,-19,-9
1053,182,42,1009,-12,5,-4
1054,51,39,1003,-13,26,3
1055,-132,21,992,-16,26,2
1056,-192,-7,976,-17,6,-2
1057,-117,-6,985,-13,-17,-7
1058,56,17,1001,-12,-28,-10
1059,187,41,1023,-12,-15,-8
1060,169,44,990,-16,10,-2
1061,-7,33,1003,-14,29,3
1062,-146,4,1006,-19,21,0
1063,-203,-8,969,-15,2,-2
1064,-66,6,993,-11,-22,-9
1065,102,11,1002,-14,-27,-10
1066,184,53,1012,-11,-7,-8
1067,140,38,1005,-19,16,0
1068,-60,35,1009,-15,31,4
1069,-172,2,983,-16,17,2
1070,-162,-13,976,-18,-6,-5
1071,-33,0,984,-12,-25,-9
1072,139,33,1016,-10,-24,-9
1073,187,35,1013,-14,-2,-8
1074,81,50,999,-11,22,3
1075,-84,27,1007,-17,27,2
1076,-186,-7,976,-19,13,-2
1077,-147,-6,970,-14,-12,-6
1078,24,4,1005,-14,-28,-11
1079,154,39,1021,-9,-17,-9
1080,178,38,995,-13,4,-5
1081,38,40,1016,-15,25,3
1082,-119,21,986,-17,25,3
1083,-190,-8,972,-17,6,-3
1084,-102,-5,990,-13,-18,-6
1085,58,20,1008,-10,-25,-9
1086,180,31,1011,-12,-12,-9
1087,154,48,1000,-13,11,-2
1088,-8,24,999,-18,28,6
1089,-147,19,999,-17,22,2
1090,-195,-12,975,-16,0,-3
1091,-67,8,994,-12,-21,-8
1092,99,8,1004,-14,-26,-10
1093,193,48,1004,-9,-9,-8
1094,129,36,1013,-15,15,-1
1095,-56,42,993,-15,30,3
1096,-172,-3,1003,-18,18,2
1097,-177,0,960,-15,-6,-4
1098,-30,-4,995,-14,-26,-10
1099,141,24,1003,-11,-24,-10
1100,188,42,1015,-11,-1,-5
1101,100,40,1005,-13,21,2
1102,-93,27,1004,-14,30,5
1103,-185,0,976,-15,14,0
1104,-162,0,969,-15,-11,-4
1105,13,7,1003,-13,-29,-11
1106,167,34,1022,-12,-19,-9
1107,184,42,1003,-14,3,-4
1108,56,23,1004,-16,25,1
1109,-126,26,1002,-15,27,3
1110,-193,-13,963,-16,7,-2
1111,-119,8,991,-12,-17,-6
1112,49,11,1008,-14,-28,-10
1113,180,42,1012,-10,-15,-9
1114,170,36,1004,-16,9,-3
1115,3,36,999,-13,28,3
1116,-139,6,998,-17,23,3
1117,-202,-6,975,-17,3,-3
1118,-75,0,984,-12,-22,-8
1119,93,20,1011,-11,-26,-12
1120,186,40,1007,-12,-10,-8
1121,126,44,1001,-14,14,0
1122,-40,34,1006,-19,27,5
1123,-168,0,989,-18,18,2
1124,-166,-1,975,-15,-4,-4
1125,-18,0,995,-14,-25,-10
1126,128,29,1009,-10,-21,-9
1127,173,45,1001,-11,0,-5
1128,79,40,1012,-17,21,1
1129,-94,21,999,-16,27,4
1130,-175,-9,977,-16,11,-1
1131,-125,-8,979,-13,-12,-7
1132,22,17,999,-12,-24,-8
1133,162,36,1017,-11,-17,-10
1134,153,39,1002,-13,7,-3
1135,29,34,1009,-15,23,3
1136,-115,10,986,-16,22,2
1137,-181,-2,974,-16,6,-2
1138,-80,0,991,-14,-18,-7
1139,63,18,1008,-12,-24,-10
1140,170,34,1009,-11,-11,-7
1141,135,38,1007,-13,10,-1
1142,-19,29,991,-14,25,4
1143,-142,13,995,-15,20,2
1144,-169,-2,976,-17,-1,-3
1145,-50,4,994,-13,-21,-8
1146,105,17,1013,-13,-22,-10
1147,172,40,1009,-14,-6,-6
1148,104,34,993,-12,16,0
1149,-59,37,1001,-14,26,3
1150,-151,0,991,-17,14,1
1151,-164,6,980,-13,-5,-3
1152,-2,-3,997,-15,-24,-10
1153,121,25,1004,-10,-19,-8
1154,167,48,1002,-12,-1,-6
1155,74,32,1015,-15,22,0
1156,-91,32,995,-15,25,3
1157,-170,-8,978,-16,10,0
1158,-123,0,979,-12,-12,-7
1159,16,6,1001,-12,-25,-10
1160,157,41,1018,-10,-18,-10
1161,151,35,1002,-14,7,-3
1162,39,41,1007,-13,24,2
1163,-118,5,992,-17,24,3
1164,-180,5,970,-14,7,-1
1165,-90,-4,987,-16,-17,-7
1166,63,20,1011,-11,-24,-11
1167,168,33,1008,-14,-12,-7
1168,144,44,1010,-14,12,-2
1169,-14,18,993,-16,27,3
1170,-144,12,991,-15,20,3
1171,-165,-9,976,-16,0,-3
1172,-58,15,989,-12,-19,-9
1173,101,16,1021,-13,-24,-11
1174,171,48,1008,-9,-5,-7
1175,111,34,990,-15,16,1
1176,-47,26,1011,-14,26,2
1177,-164,6,979,-15,16,2
1178,-156,-8,985,-15,-5,-5
1179,-25,10,996,-15,-24,-9
1180,125,28,1006,-13,-21,-7
1181,178,33,1005,-13,-2,-6
1182,83,38,1010,-15,20,1
1183,-76,22,999,-15,26,3
1184,-170,-3,984,-15,14,-1
1185,-143,-8,976,-13,-10,-6
1186,1,14,996,-9,-25,-9
1187,147,32,1015,-11,-19,-10
1188,170,45,1002,-13,3,-5
1189,66,37,1012,-14,24,2
1190,-107,18,990,-18,26,4
1191,-186,0,979,-15,10,-2
1192,-116,-13,975,-15,-16,-7
1193,19,22,1005,-11,-25,-8
1194,178,25,1021,-14,-17,-10
1195,164,43,996,-14,8,-3
1196,24,29,1011,-16,26,4
1197,-131,16,986,-16,25,1
1198,-188,-7,974,-16,4,-2
1199,-80,3,985,-13,-21,-9
1200,67,21,1016,-13,-25,-10
1201,176,37,1010,-12,-11,-7
1202,139,41,998,-15,12,-2
1203,-11,22,993,-18,27,4
1204,-163,3,1005,-17,20,3
1205,-165,-8,970,-15,-4,-3
1206,-56,3,996,-12,-21,-8
1207,116,33,1007,-10,-26,-9
1208,174,41,1007,-12,-5,-6
1209,105,37,1004,-15,16,1
1210,-65,26,1005,-16,26,5
1211,-166,2,989,-16,14,-1
1212,-155,-12,971,-14,-8,-4
1213,-1,9,993,-12,-25,-10
1214,136,29,1017,-11,-19,-7
1215,169,45,1000,-13,1,-5
1216,65,33,1009,-15,21,2
1217,-96,28,1001,-15,25,3
1218,-179,-2,973,-18,9,-1
1219,-113,1,980,-13,-15,-7
1220,22,10,1002,-13,-24,-8
1221,164,39,1016,-12,-17,-10
1222,154,28,1011,-14,7,-3
1223,24,39,1001,-14,24,3
1224,-124,2,988,-16,23,2
1225,-175,1,983,-14,5,-3
1226,-90,6,981,-13,-17,-5
1227,72,26,1017,-10,-25,-12
1228,167,35,1010,-15,-11,-7
1229,133,42,993,-14,12,-2
1230,-15,16,1003,-17,27,3
1231,-151,5,992,-16,19,3
1232,-166,-4,971,-15,-1,-3
1233,-47,9,1003,-10,-21,-9
1234,106,25,1005,-11,-22,-10
1235,170,44,1004,-11,-5,-6
1236,108,43,1005,-16,16,1
1237,-62,24,1003,-16,27,3
1238,-160,1,986,-16,15,2
1239,-161,-7,984,-14,-7,-4
1240,-8,8,992,-13,-24,-10
1241,136,24,1008,-12,-21,-10
1242,175,47,1012,-12,-1,-6
1243,79,31,1007,-16,20,2
1244,-90,24,995,-17,28,3
1245,-185,-6,986,-17,11,2
1246,-129,5,966,-12,-13,-7
1247,12,5,1007,-14,-26,-10
1248,162,40,1015,-13,-20,-9
1249,169,40,1009,-13,5,-5
1250,48,31,1003,-16,24,2
1251,-127,11,994,-16,26,3
1252,-175,-3,971,-14,5,-3
1253,-115,0,988,-14,-16,-5
1254,55,25,1006,-13,-27,-11
1255,180,39,1020,-13,-14,-8
1256,144,42,999,-12,11,0
1257,4,28,996,-17,28,3
1258,-138,1,1002,-16,22,0
1259,-187,-8,966,-15,1,-2
1260,-68,3,995,-13,-20,-9
1261,97,21,1018,-11,-24,-11
1262,181,37,995,-11,-7,-6
1263,120,44,1006,-14,15,0
1264,-52,25,1008,-18,28,4
1265,-157,12,981,-17,16,1
1266,-160,-22,985,-16,-6,-5
1267,-23,9,997,-11,-22,-7
1268,137,22,1000,-13,-21,-9
1269,171,47,1013,-11,0,-6
1270,71,39,1006,-16,20,3
1271,-88,28,1001,-16,27,4
1272,-176,-3,981,-18,11,1
1273,-131,-5,974,-13,-12,-5
1274,33,8,1001,-12,-26,-11
1275,152,24,1019,-12,-16,-9
1276,158,47,1005,-10,6,-4
1277,31,33,1007,-14,25,2
1278,-126,21,987,-15,23,3
1279,-182,0,975,-17,5,-2
1280,-85,-1,987,-14,-18,-8
1281,57,23,1011,-14,-24,-9
1282,177,36,1008,-13,-12,-8
1283,134,41,1011,-15,12,0
1284,-13,26,986,-18,25,3
1285,-147,5,999,-14,19,2
1286,-170,-3,967,-17,-2,-2
1287,-56,8,998,-14,-21,-9
1288,106,24,1016,-11,-25,-11
1289,161,39,1008,-14,-5,-4
1290,120,30,985,-15,16,-2
1291,-65,30,1012,-17,28,4
1292,-147,6,983,-18,14,-1
1293,-167,-7,984,-13,-4,-5
1294,-7,7,998,-14,-25,-9
1295,125,22,1004,-12,-20,-10
1296,170,40,1003,-12,-2,-6
1297,72,38,1014,-14,20,2
1298,-76,29,995,-16,25,2
1299,-178,-3,983,-18,12,1
1300,-128,-2,981,-12,-12,-6
1301,14,7,994,-12,-24,-9
1302,144,33,1015,-12,-18,-10
1303,165,42,1007,-14,4,-4
1304,34,39,1007,-16,24,4
1305,-105,10,994,-17,24,2
1306,-177,-7,975,-16,8,-1
1307,-104,0,984,-13,-17,-5
1308,56,15,1005,-11,-25,-11
1309,156,44,1017,-10,-13,-8
1310,146,40,1007,-14,9,-1
1311,8,27,993,-16,26,1
1312,-133,6,998,-15,21,2
1313,-179,-4,967,-14,1,-2
1314,-70,8,998,-13,-19,-8
1315,85,17,1010,-14,-23,-10
1316,174,40,1014,-11,-7,-8
1317,122,32,992,-13,15,-1
1318,-42,38,1003,-13,27,3
1319,-145,-1,995,-18,16,0
1320,-173,6,973,-12,-4,-3
1321,-21,7,1001,-13,-24,-11
1322,119,19,1009,-12,-20,-11
1323,166,37,999,-12,-2,-4
1324,97,38,1009,-13,18,0
1325,-89,21,999,-17,26,4
1326,-167,1,985,-14,11,1
1327,-136,-3,981,-14,-10,-6
1328,8,10,997,-11,-24,-9
1329,146,32,1007,-10,-19,-10
1330,160,38,1011,-14,3,-5
1331,42,40,1002,-15,23,2
1332,-96,18,997,-17,22,1
1333,-183,-8,982,-18,9,0
1334,-101,-4,971,-14,-17,-7
1335,50,21,1016,-13,-25,-11
1336,156,36,1008,-14,-13,-8
1337,146,43,1010,-14,10,-3
1338,17,32,999,-16,25,4
1339,-133,17,989,-16,22,1
1340,-169,-1,978,-16,2,-3
1341,-87,-9,990,-14,-18,-7
1342,70,27,1006,-10,-24,-10
1343,180,31,1021,-12,-11,-8
1344,127,46,990,-14,12,-2
1345,-9,28,1002,-15,26,2
1346,-152,14,995,-16,19,1
1347,-174,-4,978,-15,-1,-3
1348,-58,-3,986,-13,-21,-8
1349,107,26,1017,-10,-25,-11
1350,185,29,999,-11,-6,-7
1351,107,48,1002,-12,17,-1
1352,-50,25,996,-17,26,3
1353,-172,14,999,-12,17,0
1354,-159,-15,973,5,-4,-6
1355,-19,8,999,-13,-24,-9
1356,135,17,1002,-10,-22,-10
1357,173,52,1018,-9,-1,-6
1358,80,33,999,-17,19,2
1359,-95,30,1001,-13,27,4
1360,-169,-7,984,-20,10,0
1361,-133,-4,970,-11,-10,-7
1362,24,9,1001,-13,-24,-11
1363,152,29,1016,-13,-16,-11
1364,164,53,1010,-8,7,-6
1365,30,36,995,-20,25,4
1366,-122,20,1000,-14,22,1
1367,-175,-9,967,-16,6,0
1368,-96,2,996,-12,-18,-8
1369,76,5,1006,-10,-25,-12
1370,164,39,1014,-9,-9,-8
1371,144,41,1000,-11,11,-2
1372,-22,36,999,-14,27,4
1373,-146,12,988,-15,18,1
1374,-177,-2,975,-17,-1,-1
1375,-38,3,994,-12,-23,-9
1376,98,17,1016,-13,-22,-9
1377,180,34,1003,-8,-5,-7
1378,106,35,999,-16,17,1
1379,-64,33,996,-14,27,4
1380,-163,9,994,-16,15,1
1381,-156,-2,982,-16,-7,-4
1382,-5,7,995,-12,-23,-9
1383,140,14,1008,-13,-20,-11
1384,161,38,1003,-8,0,-4
1385,73,39,1009,-13,20,1
1386,-100,32,1001,-14,27,4
1387,-167,-2,977,-15,10,-1
1388,-124,-1,983,-14,-12,-6
1389,26,-2,994,-15,-25,-9
1390,156,32,1021,-9,-17,-10
1391,158,41,1003,-13,6,-5
1392,31,47,1004,-13,25,3
1393,-123,13,994,-18,23,2
1394,-164,0,970,-16,6,-2
1395,-102,-6,987,-13,-15,-6
1396,67,17,1007,-12,-24,-10
1397,167,25,1018,-11,-11,-8
1398,131,45,994,-10,11,-1
1399,-9,37,1002,-16,25,3
1400,-137,19,990,-15,19,1
1401,-180,-8,971,-18,0,0
1402,-55,4,1000,-14,-23,-9
1403,86,11,1010,-13,-22,-9
1404,180,39,1005,-12,-8,-7
1405,121,41,999,-13,15,-1
1406,-34,42,998,-14,28,3
1407,-153,6,1002,-19,18,1
1408,-178,-5,967,-15,-3,-1
1409,-37,0,1002,-14,-23,-9
1410,128,18,998,-12,-25,-12
1411,165,35,1009,-11,-3,-4
1412,116,54,1001,-14,17,-1
1413,-77,26,1016,-17,29,2
1414,-165,14,971,-18,13,1
1415,-159,-15,978,-17,-8,-4
1416,-2,1,994,-13,-27,-11
1417,142,23,1015,-12,-20,-7
1418,173,40,999,-13,1,-5
1419,66,46,1016,-14,22,1
1420,-88,27,996,-16,25,2
1421,-184,1,971,-17,11,0
1422,-121,-6,981,-15,-13,-5
1423,27,9,1002,-13,-24,-10
1424,163,21,1013,-10,-16,-8
1425,151,47,1004,-13,8,-2
1426,23,32,1009,-14,24,2
1427,-119,21,982,-16,21,2
1428,-179,-3,974,-16,4,0
1429,-79,-1,994,-14,-18,-7
1430,67,19,1010,-14,-23,-9
1431,174,35,1008,-13,-9,-7
1432,127,41,999,-14,13,-1
1433,-25,33,997,-14,25,4
1434,-144,9,992,-19,17,3
1435,-171,-11,984,-15,-2,-2
1436,-34,1,995,-11,-21,-8
1437,107,21,1006,-10,-22,-10
1438,175,44,999,-13,-4,-7
1439,90,39,1014,-15,18,0
1440,-71,35,995,-16,26,3
1441,-165,1,990,-17,14,1
1442,-145,0,975,-15,-9,-4
1443,3,-4,992,-14,-25,-8
1444,141,27,1013,-12,-19,-9
1445,160,34,1007,-13,3,-4
1446,64,45,1008,-11,23,2
1447,-104,26,997,-15,25,3
1448,-169,6,974,-15,8,-2
1449,-120,0,985,-16,-13,-5
1450,31,2,998,-15,-24,-10
1451,158,32,1017,-12,-15,-9
1452,155,35,1006,-14,6,-3
1453,24,38,1004,-15,25,3
1454,-121,13,986,-17,22,2
1455,-182,5,980,-16,5,-1
1456,-86,-4,983,-14,-18,-7
1457,66,23,1014,-11,-24,-10
1458,177,33,1007,-14,-11,-6
1459,129,39,1003,-12,13,-2
1460,-7,35,994,-16,24,3
1461,-150,8,1002,-18,20,2
1462,-171,-6,970,-14,-2,-2
1463,-52,-4,1000,-14,-20,-8
1464,101,22,1006,-11,-23,-9
1465,176,43,1007,-11,-5,-6
1466,105,40,1004,-14,16,0
1467,-68,39,999,-16,27,3
1468,-152,7,994,-18,14,-1
1469,-149,-8,982,-16,-6,-4
1470,-13,0,982,-14,-22,-8
1471,141,16,1014,-12,-21,-12
1472,160,36,1009,-10,1,-5
1473,61,48,1001,-10,20,1
1474,-92,27,1009,-16,25,1
1475,-168,7,976,-15,10,0
1476,-113,-10,976,-15,-13,-4
1477,29,11,1004,-10,-24,-11
1478,155,22,1016,-12,-15,-8
1479,147,44,1010,-9,7,-4
1480,27,38,996,-17,24,3
1481,-130,23,992,-15,23,2
1482,-162,0,974,-17,2,-3
1483,-92,-5,989,-16,-17,-7
1484,68,8,1010,-13,-24,-11
1485,171,29,1010,-10,-10,-8
1486,131,40,997,-11,13,-2
1487,-8,38,996,-12,26,2
1488,-140,12,1000,-16,19,2
1489,-175,7,972,-16,0,-2
1490,-59,-3,992,-15,-21,-8
1491,100,14,1018,-12,-25,-10
1492,179,30,993,-11,-7,-7
1493,109,44,1010,-13,15,-1
1494,-44,34,997,-15,26,4
1495,-161,7,997,-14,18,0
1496,-161,-4,973,-16,-5,-2
1497,-27,-2,996,-12,-23,-7
1498,136,21,1002,-10,-22,-11
1499,163,38,1014,-11,-1,-5
1500,88,52,1001,-12,19,0
1501,-94,28,1006,-16,29,2
1502,-162,0,974,-17,11,-1
1503,-132,-7,984,-15,-10,-5
1504,18,1,990,-13,-24,-10
1505,150,31,1026,-12,-17,-9
1506,155,32,1002,-14,5,-4
1507,29,52,1001,-11,25,3
1508,-105,6,993,-17,20,2
1509,-182,4,975,-12,6,1
1510,-79,-2,983,-16,-18,-6
1511,54,8,1012,-13,-23,-10
1512,165,39,1014,-11,-12,-7
1513,136,34,997,-13,10,-2
1514,-10,35,999,-14,25,4
1515,-135,11,993,-18,18,3
1516,-171,1,976,-15,0,-3
1517,-48,3,992,-13,-20,-7
1518,94,19,1020,-11,-22,-8
1519,171,36,998,-13,-5,-5
1520,99,28,999,-13,17,1
1521,-50,37,1001,-12,25,2
1522,-156,8,991,-14,15,0
1523,-142,5,980,-14,-6,-3
1524,-27,0,1000,-14,-22,-8
1525,135,25,1000,-13,-21,-10
1526,155,39,1007,-14,1,-5
1527,77,47,1011,-14,18,0
1528,-85,23,999,-18,26,4
1529,-163,0,983,-14,10,-2
1530,-125,-14,981,-17,-11,-5
1531,13,9,994,-10,-23,-9
1532,149,32,1014,-13,-17,-8
1533,154,36,1011,-12,6,-4
1534,31,47,1003,-12,24,3
1535,-105,21,986,-19,22,2
1536,-173,6,985,-15,6,0
1537,-93,-6,975,-16,-17,-7
1538,52,9,1014,-15,-24,-11
1539,158,29,1010,-13,-13,-8
1540,138,36,1009,-12,9,-3
1541,0,36,989,-13,25,1
1542,-141,23,997,-16,21,2
1543,-164,5,974,-16,-1,-4
1544,-64,-4,995,-16,-19,-8
1545,91,13,1010,-13,-23,-9
1546,170,26,1009,-11,-7,-8
1547,121,43,998,-13,14,-2
1548,-50,35,999,-16,26,5
1549,-158,12,991,-15,17,0
1550,-156,-4,984,-16,-6,-5
1551,-22,7,993,-14,-23,-7
1552,130,16,1006,-13,-22,-10
1553,171,40,1011,-13,0,-6
1554,84,37,1004,-11,20,1
1555,-91,17,995,-15,26,3
1556,-169,6,991,-14,11,-1
1557,-128,-1,975,-14,-12,-5
1558,13,14,996,-14,-25,-10
1559,152,31,1016,-12,-17,-10
1560,156,37,1010,-15,4,-4
1561,41,36,998,-15,23,2
1562,-117,18,998,-14,24,2
1563,-169,-1,974,-14,5,-1
1564,-100,-1,976,-12,-16,-6
1565,49,20,1014,-14,-24,-10
1566,169,25,1005,-13,-13,-9
1567,138,40,1008,-9,10,-3
1568,8,40,996,-15,24,3
1569,-128,20,989,-15,21,1
1570,-174,3,981,-19,1,-1
1571,-76,-12,988,-17,-20,-8
1572,75,18,1012,-11,-23,-11
1573,178,31,1013,-12,-11,-7
1574,119,38,991,-10,12,-1
1575,-23,34,997,-15,26,1
1576,-149,14,1001,-16,18,2
1577,-172,-1,974,-15,-3,-3
1578,-38,7,1000,-14,-22,-11
1579,112,14,999,-13,-22,-10
1580,170,40,1014,-9,-4,-6
1581,96,35,1000,-14,17,-1
1582,-73,34,1004,-15,28,4
1583,-158,4,988,-20,11,0
1584,-151,-7,978,-16,-8,-4
1585,9,3,994,-13,-24,-9
1586,135,23,1012,-12,-19,-9
1587,159,47,1007,-12,2,-4
1588,62,41,1004,-15,22,1
1589,-111,23,997,-15,25,3
1590,-166,-5,977,-14,6,-1
1591,-105,-11,977,-15,-15,-6
1592,32,15,1004,-12,-24,-8
1593,166,38,1020,-10,-16,-8
1594,146,38,1000,-13,11,-2
1595,10,33,1006,-15,26,3
1596,-121,10,985,-16,22,-1
1597,-177,6,978,-15,4,-2
1598,-78,4,985,-13,-20,-6
1599,70,17,1019,-13,-23,-12
1600,173,26,1008,-11,-10,-8
1601,123,41,995,-12,13,-1
1602,-13,28,1000,-14,25,1
1603,-146,20,999,-13,19,1
1604,-169,4,963,-17,-2,-1
1605,-50,0,1005,-15,-21,-8
1606,105,11,1007,-14,-23,-11
1607,174,35,999,-11,-4,-5
1608,108,43,1003,-12,16,-1
1609,-60,32,1000,-17,25,3
1610,-153,8,993,-16,13,0
1611,-157,-8,975,-15,-6,-3
1612,-15,1,998,-12,-23,-10
1613,136,20,1007,-10,-21,-11
1614,163,47,1005,-12,0,-5
1615,78,38,1011,-15,18,1
1616,-88,15,998,-15,26,3
1617,-169,-1,986,-13,10,0
1618,-129,10,969,-13,-11,-5
1619,24,11,1008,-14,-26,-12
1620,148,30,1016,-14,-17,-8
1621,156,27,998,-13,4,-3
1622,39,35,1014,-12,23,2
1623,-105,23,986,-16,24,3
1624,-173,0,974,-15,9,-1
1625,-102,-8,999,-14,-15,-7
1626,44,15,997,-11,-23,-11
1627,170,40,1015,-7,-12,-8
1628,129,47,1004,-15,9,0
1629,9,40,992,-16,23,1
1630,-128,0,1001,-18,21,1
1631,-186,-6,971,-16,2,0
1632,-59,-8,992,-9,-20,-10
1633,87,20,1014,-10,-24,-11
1634,162,41,1007,-8,-7,-6
1635,123,54,997,-10,14,-1
1636,-43,34,1003,-16,26,2
1637,-152,13,991,-17,16,1
1638,-158,-12,985,-17,-3,-4
1639,-29,-1,993,-16,-23,-9
1640,121,16,1000,-10,-21,-9
1641,166,36,1011,-12,-4,-6
1642,79,33,1012,-13,18,2
1643,-68,41,991,-14,24,3
1644,-160,11,994,-16,12,-1
1645,-134,1,975,-15,-10,-5
1646,1,0,991,-15,-23,-10
1647,141,20,1015,-13,-19,-11
1648,152,36,1007,-14,3,-3
1649,46,34,1003,-12,22,1
1650,-90,22,993,-13,21,1
1651,-164,8,984,-15,8,1
1652,-111,1,979,-15,-14,-4
1653,36,12,1002,-16,-25,-9
1654,156,20,1015,-14,-15,-8
1655,134,38,1004,-11,6,-3
1656,31,33,998,-15,22,0
1657,-119,20,994,-15,23,2
1658,-175,0,975,-15,4,-2
1659,-78,7,998,-14,-17,-8
1660,60,14,997,-14,-22,-9
1661,161,34,1020,-11,-11,-7
1662,135,36,989,-14,10,-3
1663,-17,37,1001,-14,27,2
1664,-131,11,997,-17,18,0
1665,-180,-6,984,-16,1,-2
1666,-45,-1,987,-14,-22,-9
1667,97,17,1001,-13,-23,-10
1668,171,41,1009,-13,-6,-7
1669,110,42,1005,-14,15,-1
1670,-55,42,1000,-16,26,3
1671,-156,4,995,-17,17,3
1672,-160,-11,976,-16,-5,-4
1673,-13,-1,982,-14,-24,-9
1674,128,23,1017,-12,-21,-9
1675,167,34,1004,-13,-1,-7
1676,82,42,1010,-13,21,0
1677,-84,32,999,-16,26,2
1678,-178,-2,981,-17,11,0
1679,-123,1,970,-15,-13,-6
1680,13,5,1006,-14,-24,-10
1681,160,25,1008,-13,-18,-10
1682,147,41,1010,-12,6,-4
1683,43,36,1004,-14,22,1
1684,-113,19,989,-15,22,2
1685,-179,1,978,-16,5,-1
1686,-88,-5,990,-17,-17,-7
1687,50,13,1005,-12,-24,-11
1688,171,35,1018,-10,-11,-7
1689,133,32,990,-14,11,-1
1690,-15,46,1001,-16,26,3
1691,-126,15,999,-20,18,-1
1692,-172,-9,980,-16,1,-3
1693,-52,-6,986,-17,-20,-8
1694,97,19,1006,-11,-22,-11
1695,165,35,1009,-12,-5,-6
1696,104,45,994,-12,14,-1
1697,-48,36,1011,-13,26,3
1698,-143,12,989,-16,16,1
1699,-162,-10,978,-15,-5,-3
1700,-12,8,990,-11,-23,-11
1701,114,12,1011,-12,-19,-8
1702,164,47,1003,-8,-2,-6
1703,79,35,1010,-15,18,1
1704,-80,31,997,-13,24,2
1705,-165,8,984,-15,11,-1
1706,-134,-8,968,-14,-12,-7
1707,8,10,1003,-14,-26,-9
1708,150,29,1017,-13,-19,-8
1709,153,43,1004,-12,6,-6
1710,48,35,1004,-16,22,2
1711,-103,27,998,-15,24,2
1712,-182,-13,966,-18,9,-2
1713,-102,-1,991,-12,-16,-7
1714,47,12,1008,-12,-25,-9
1715,164,34,1008,-9,-13,-9
1716,146,45,1006,-12,7,-1
1717,8,37,995,-15,25,2
1718,-136,10,1001,-17,21,1
1719,-177,3,976,-16,1,-1
1720,-71,-7,992,-16,-19,-7
1721,88,20,1006,-12,-24,-10
1722,172,27,1013,-13,-9,-6
1723,117,47,991,-10,14,-1
1724,-37,38,1005,-15,25,3
1725,-151,3,998,-16,17,0
1726,-157,0,974,-15,-3,-4
1727,-33,-2,991,-13,-22,-10
1728,129,22,1007,-11,-22,-10
1729,164,38,1006,-13,-1,-4
1730,76,47,1007,-13,19,1
1731,-81,33,1002,-18,25,4
1732,-163,0,978,-16,11,-1
1733,-129,-5,978,-16,-12,-6
1734,27,-3,1000,-15,-24,-11
1735,142,24,1012,-12,-15,-9
1736,151,43,1004,-12,5,-5
1737,35,45,1009,-13,23,2
1738,-114,32,984,-16,22,3
1739,-168,-7,974,-18,5,-1
1740,-90,-7,996,-16,-18,-6
1741,57,3,1001,-11,-22,-9
1742,163,32,1012,-10,-10,-8
1743,136,37,1000,-13,11,-3
1744,-8,44,998,-13,26,2
1745,-142,20,993,-18,20,3
1746,-172,-1,972,-16,0,-2
1747,-48,-2,1000,-15,-21,-9
1748,93,5,1007,-12,-22,-10
1749,167,39,1012,-9,-5,-7
1750,112,35,991,-12,15,-2
1751,-57,39,1003,-12,27,5
1752,-147,6,988,-18,14,0
1753,-162,-3,984,-16,-4,-4
1754,-11,5,997,-13,-24,-9
1755,126,19,1002,-11,-20,-10
1756,161,40,1005,-9,0,-4
1757,73,39,1010,-13,19,2
1758,-90,32,996,-15,25,3
1759,-169,4,989,-15,11,0
1760,-124,-9,971,-16,-12,-5
1761,21,6,1004,-11,-24,-9
1762,153,28,1011,-11,-18,-7
1763,150,42,1009,-12,5,-4
1764,39,38,1007,-14,23,2
1765,-118,21,988,-17,24,4
1766,-173,0,977,-18,6,-1
1767,-96,-1,984,-16,-16,-5
1768,45,7,1005,-14,-24,-10
1769,169,33,1013,-11,-14,-10
1770,140,41,1006,-12,10,-3
1771,9,45,999,-14,25,1
1772,-130,15,988,-18,20,2
1773,-185,-2,978,-19,2,-1
1774,-74,0,994,-13,-20,-8
1775,80,14,1009,-13,-24,-10
1776,177,31,1015,-13,-11,-7
1777,136,43,993,-12,12,-1
1778,-23,37,1005,-15,27,3
1779,-150,17,993,-18,20,1
1780,-184,-11,980,-18,-1,-2
1781,-52,-2,987,-14,-23,-8
1782,115,19,1016,-11,-25,-10
1783,181,33,993,-12,-5,-6
1784,110,42,1014,-12,17,0
1785,-55,34,1004,-16,27,3
1786,-171,11,988,-17,17,1
1787,-151,-7,972,-17,-7,-5
1788,-18,7,993,-15,-24,-8
1789,135,19,1009,-14,-21,-9
1790,171,38,1010,-13,0,-5
1791,74,39,1000,-13,21,1
1792,-92,32,1008,-17,25,2
1793,-162,-6,974,-17,10,0
1794,-129,0,979,-14,-11,-5
1795,24,5,1001,-15,-25,-10
1796,154,29,1017,-10,-15,-9
1797,151,46,1004,-12,5,-3
1798,36,33,1003,-14,22,0
1799,-118,26,994,-14,24,2
1800,-174,-8,976,-17,6,-1
1801,-87,3,980,-12,-16,-7
1802,56,8,1022,-14,-24,-9
1803,168,37,1001,-11,-13,-8
1804,136,35,1006,-13,11,-2
1805,-4,32,995,-12,25,5
1806,-140,19,1003,-16,21,2
1807,-174,-6,974,-15,0,-3
1808,-62,2,992,-13,-20,-7
1809,99,18,1013,-12,-24,-10
1810,181,30,1002,-11,-7,-6
1811,110,41,1006,-12,17,0
1812,-47,29,1002,-14,25,4
1813,-170,10,992,-15,17,2
1814,-149,-3,980,-15,-7,-5
1815,-26,0,991,-13,-24,-7
1816,123,25,1004,-13,-23,-9
1817,176,36,1012,-13,-1,-7
1818,70,49,1007,-11,20,2
1819,-78,27,994,-17,25,3
1820,-169,-10,992,-18,12,-2
1821,-124,-2,964,-14,-11,-4
1822,10,5,1003,-13,-23,-9
1823,150,35,1020,-11,-18,-11
1824,152,43,1004,-11,5,-3
1825,45,47,997,-14,22,1
1826,-114,9,1002,-19,24,2
1827,-170,-2,965,-18,5,-1
1828,-99,0,995,-16,-17,-7
1829,55,10,1002,-14,-25,-11
1830,162,27,1019,-10,-11,-8
1831,148,46,991,-11,10,-1
1832,-7,37,1008,-15,27,3
1833,-130,23,989,-17,19,0
1834,-175,-2,980,-17,2,-2
1835,-63,-4,986,-15,-19,-8
1836,86,15,1017,-13,-23,-11
1837,179,26,1002,-11,-8,-7
1838,102,45,995,-11,16,-1
1839,-27,35,1004,-14,24,0
1840,-154,10,995,-17,17,0
1841,-164,-5,976,-16,-5,-4
1842,-27,1,995,-12,-23,-9
1843,118,18,1007,-12,-22,-11
1844,172,45,1001,-11,-1,-5
1845,85,39,1016,-13,18,0
1846,-70,32,996,-15,24,2
1847,-175,0,985,-16,14,1
1848,-126,-6,972,-15,-11,-7
1849,-3,0,999,-13,-22,-9
1850,150,39,1014,-9,-18,-10
1851,157,40,1010,-13,5,-3
1852,54,45,1003,-13,22,2
1853,-110,19,993,-17,23,3
1854,-169,4,979,-16,6,-2
1855,-102,-14,978,-18,-15,-5
1856,35,10,1005,-9,-23,-9
1857,166,36,1019,-10,-15,-9
1858,139,41,1000,-12,10,-2
1859,7,42,1000,-14,24,4
1860,-131,14,992,-18,19,3
1861,-168,4,976,-14,0,-3
1862,-60,-6,987,-16,-19,-8
1863,79,20,1019,-13,-23,-9
1864,170,24,1009,-11,-9,-7
1865,108,48,993,-12,14,0
1866,-39,35,1001,-15,26,3
1867,-147,4,991,-18,17,1
1868,-154,0,985,-16,-4,-2
1869,-24,-1,988,-14,-21,-7
1870,122,21,1016,-11,-21,-10
1871,162,29,997,-12,-1,-4
1872,71,47,1011,-10,19,1
1873,-72,29,997,-17,23,2
1874,-163,12,992,-18,11,-1
1875,-125,-7,970,-16,-11,-4
1876,3,10,1006,-13,-23,-9
1877,144,16,1003,-14,-18,-8
1878,150,40,1010,-10,6,-5
1879,50,46,1008,-15,20,2
1880,-101,20,996,-17,23,2
1881,-170,0,977,-17,9,-1
1882,-107,1,980,-14,-13,-4
1883,36,10,1005,-15,-24,-11
1884,158,31,1010,-13,-13,-8
1885,141,40,1010,-14,10,-3
1886,19,27,1002,-14,24,2
1887,-126,17,983,-14,22,1
1888,-174,-2,977,-17,4,-2
1889,-79,4,994,-12,-18,-8
1890,73,14,1005,-13,-24,-10
1891,162,38,1017,-11,-9,-7
1892,124,41,999,-12,12,-1
1893,-28,22,993,-14,25,3
1894,-138,14,994,-13,17,2
1895,-162,-5,979,-16,-2,-2
1896,-35,8,995,-12,-22,-9
1897,107,21,1013,-12,-21,-8
1898,160,41,1001,-13,-3,-6
1899,90,34,1003,-14,17,0
1900,-58,31,997,-15,26,2
1901,-154,4,995,-17,13,1
1902,-143,-1,978,-14,-7,-5
1903,-5,7,999,-14,-22,-10
1904,130,14,1005,-11,-18,-9
1905,157,40,1002,-9,1,-6
1906,55,41,1014,-15,20,0
1907,-91,31,991,-16,24,2
1908,-165,2,986,-17,9,0
1909,-114,-3,974,-15,-13,-6
1910,28,9,1004,-15,-24,-9
1911,151,26,1013,-13,-15,-9
1912,142,43,1006,-10,7,-3
1913,25,34,1005,-14,23,1
1914,-119,18,990,-15,22,3
1915,-167,-2,973,-15,5,0
1916,-80,-5,989,-14,-17,-8
1917,63,17,1015,-12,-23,-10
1918,169,40,1011,-10,-10,-7
1919,126,34,996,-15,13,-2
1920,-22,33,1005,-14,26,3
1921,-137,15,983,-16,19,2
1922,-172,-9,975,-17,0,-3
1923,-44,4,997,-10,-20,-9
1924,92,16,1015,-12,-22,-9
1925,173,37,1006,-9,-4,-8
1926,109,35,995,-14,16,-1
1927,-54,50,1002,-14,27,4
1928,-155,0,990,-19,16,1
1929,-167,-1,979,-13,-5,-5
1930,-18,4,994,-14,-26,-8
1931,129,25,1011,-13,-21,-9
1932,166,37,1002,-13,0,-5
1933,91,28,1008,-13,18,0
1934,-87,33,1004,-14,28,4
1935,-166,12,981,-16,12,0
1936,-133,-7,978,-16,-10,-7
1937,8,6,993,-12,-24,-9
1938,146,26,1019,-11,-19,-9
1939,163,37,1012,-11,3,-6
1940,40,43,998,-14,23,4
1941,-108,27,999,-16,23,1
1942,-178,-2,977,-18,7,0
1943,-93,-3,973,-15,-16,-7
1944,44,12,1018,-14,-25,-9
1945,172,32,1006,-13,-14,-8
1946,138,34,1010,-13,11,-2
1947,0,32,997,-15,25,2
1948,-138,11,993,-17,21,3
1949,-172,1,971,-16,0,-4
1950,-59,3,999,-16,-20,-7
1951,90,18,1009,-12,-23,-11
1952,174,30,1014,-12,-7,-7
1953,113,40,992,-12,15,-1
1954,-44,41,1002,-14,27,4
1955,-152,5,990,-18,16,0
1956,-166,-2,983,-15,-5,-3
1957,-16,-1,995,-13,-23,-9
1958,116,18,1010,-12,-20,-10
1959,170,37,1000,-10,-1,-4
1960,86,42,1006,-13,19,1
1961,-87,25,996,-16,26,3
1962,-159,8,990,-15,11,1
1963,-134,-7,981,-15,-10,-5
1964,4,13,988,-12,-23,-8
1965,155,19,1018,-12,-19,-10
1966,150,43,1003,-11,6,-3
1967,51,40,1008,-14,22,2
1968,-97,22,997,-16,25,1
1969,-174,2,975,-17,8,-2
1970,-106,-3,980,-17,-15,-7
1971,30,11,1003,-14,-25,-10
1972,162,30,1014,-13,-15,-8
1973,143,44,1007,-12,8,-2
1974,22,38,998,-15,24,2
1975,-127,14,997,-17,22,1
1976,-169,-3,968,-18,3,-2
1977,-77,-15,998,-14,-18,-7
1978,63,18,1006,-12,-24,-10
1979,172,40,1018,-9,-10,-9
1980,128,37,997,-13,13,-3
1981,-24,42,993,-16,27,5
1982,-143,18,1001,-18,17,1
1983,-171,-6,978,-19,-2,-3
1984,-46,2,987,-13,-21,-7
1985,102,22,1018,-12,-22,-10
1986,168,25,1004,-13,-4,-7
1987,101,40,992,-11,17,0
1988,-51,28,1005,-18,26,5
1989,-158,9,990,-16,16,1
1990,-155,2,985,-13,-6,-4
1991,-15,9,988,-13,-23,-8
1992,128,24,1002,-13,-21,-9
1993,167,35,1013,-13,-1,-5
1994,73,39,1005,-15,19,2
1995,-83,20,998,-15,26,3
1996,-170,7,984,-16,12,-1
1997,-124,-2,975,-15,-11,-6
1998,8,14,996,-13,-24,-8
1999,151,28,1019,-14,-19,-8
2000,165,34,1011,-12,4,-5
2001,38,34,997,-13,23,4
2002,-108,21,997,-15,24,1
2003,-173,-2,976,-16,8,-3
2004,-107,7,982,-14,-16,-6
2005,50,12,1005,-15,-26,-10
2006,158,32,1018,-12,-14,-7
2007,148,41,999,-13,9,-3
2008,1,33,1002,-13,24,4
2009,-131,10,990,-17,19,2
2010,-167,-3,976,-16,1,-3
2011,-62,5,993,-13,-19,-7
2012,84,23,1009,-13,-22,-10
2013,172,32,1020,-11,-7,-8
2014,106,34,989,-14,15,1
2015,-41,30,997,-14,25,2
2016,-147,9,995,-17,16,1
2017,-159,7,981,-15,-5,-3
2018,-17,1,995,-15,-24,-10
2019,117,20,1005,-13,-20,-9
2020,164,25,1004,-11,-2,-6
2021,77,41,1009,-11,18,0
2022,-76,30,997,-16,24,2
2023,-159,9,992,-14,11,0
2024,-130,2,973,-15,-10,-5
2025,20,6,1001,-14,-23,-10
2026,138,20,1012,-13,-17,-9
2027,148,36,1002,-13,5,-4
2028,46,40,1011,-15,22,1
2029,-108,20,993,-16,24,2
2030,-165,0,967,-12,8,-2
2031,-93,0,992,-16,-17,-8
2032,37,15,996,-9,-21,-9
2033,163,39,1018,-15,-13,-8
2034,133,33,1006,-12,9,-1
2035,6,31,994,-13,24,3
2036,-124,7,993,-18,18,2
2037,-171,8,973,-11,2,-2
2038,-57,-6,995,-17,-19,-9
2039,70,23,1009,-11,-21,-9
2040,168,29,1016,-11,-9,-6
2041,121,34,990,-13,13,-3
2042,-35,43,1001,-12,25,4
2043,-144,12,996,-18,17,0
2044,-163,-1,977,-18,-3,-4
2045,-28,-9,998,-14,-22,-10
2046,106,22,1009,-11,-20,-10
2047,174,35,1004,-9,-3,-8
2048,83,44,1004,-12,18,1
2049,-69,32,997,-15,24,3
2050,-159,4,994,-17,13,2
2051,-141,-5,980,-16,-9,-4
2052,9,0,992,-11,-25,-9
2053,138,25,1011,-12,-18,-9
2054,152,50,1005,-11,3,-4
2055,56,42,1006,-15,20,2
2056,-106,22,998,-15,25,3
2057,-163,-2,978,-16,8,-1
2058,-110,-12,981,-15,-13,-5
2059,38,14,999,-12,-23,-10
2060,155,27,1019,-11,-15,-9
2061,141,50,999,-12,8,-3
2062,18,39,1009,-17,24,4
2063,-122,18,984,-17,21,1
2064,-170,-6,979,-16,3,-1
2065,-77,-4,988,-14,-18,-8
2066,64,11,1010,-12,-23,-11
2067,175,36,1013,-10,-10,-7
2068,120,40,999,-14,14,-1
2069,-14,40,997,-14,26,2
2070,-141,18,994,-19,19,2
2071,-175,-3,974,-19,-2,-2
2072,-46,-2,996,-15,-22,-9
2073,106,6,1019,-12,-23,-11
2074,166,34,1001,-10,-5,-4
2075,104,46,996,-11,16,1
2076,-54,28,1003,-17,26,2
2077,-156,17,990,-16,15,0
2078,-150,0,982,-16,-5,-4
2079,-26,0,1000,-16,-22,-8
2080,137,17,997,-10,-22,-11
2081,156,35,1013,-11,0,-4
2082,80,45,1004,-13,19,0
2083,-81,25,1005,-16,26,2
2084,-164,0,979,-18,11,0
2085,-132,-2,975,-16,-11,-6
2086,24,6,998,-12,-25,-10
2087,142,28,1016,-10,-17,-7
2088,150,46,1002,-13,5,-5
2089,41,40,1010,-14,23,2
2090,-112,13,986,-19,22,2
2091,-172,0,974,-16,7,-1
2092,-87,-4,993,-14,-17,-7
2093,36,18,999,-12,-22,-8
2094,170,35,1013,-9,-13,-10
2095,133,31,1009,-13,10,-2
2096,0,43,987,-13,24,2
2097,-122,13,1004,-17,18,1
2098,-172,0,971,-17,3,-2
2099,-67,-5,989,-16,-19,-8
2100,87,10,1018,-12,-24,-11
2101,153,39,1006,-11,-7,-4
2102,133,47,996,-11,12,-3
2103,-33,33,1000,-15,26,3
2104,-151,12,992,-16,16,2
2105,-157,0,982,-18,-4,-5
2106,-38,0,991,-15,-21,-9
2107,110,19,1009,-13,-22,-9
2108,167,31,1002,-12,-3,-5
2109,90,40,1009,-13,18,-1
2110,-71,28,997,-16,25,3
2111,-161,15,995,-16,14,-1
2112,-135,-2,976,-18,-9,-4
2113,-7,2,990,-14,-23,-8
2114,144,29,1012,-10,-20,-10
2115,150,35,1010,-14,4,-3
2116,58,41,999,-15,20,1
2117,-94,23,1003,-16,24,3
2118,-171,-7,974,-16,8,-1
2119,-109,0,980,-12,-15,-6
2120,35,15,1002,-13,-23,-8
2121,147,42,1015,-12,-14,-7
2122,147,39,1006,-13,6,-3
2123,19,30,999,-18,24,4
2124,-121,9,987,-16,21,2
2125,-163,-6,979,-18,3,-3
2126,-81,0,992,-14,-16,-7
2127,75,21,1004,-11,-23,-10
2128,157,38,1021,-12,-9,-6
2129,126,46,995,-13,12,-3
2130,-22,24,998,-17,26,3
2131,-137,15,997,-16,18,0
2132,-164,-6,976,-16,-1,-3
2133,-39,6,997,-13,-20,-9
2134,98,15,1011,-13,-21,-8
2135,166,41,1004,-11,-5,-6
2136,96,35,999,-15,16,-1
2137,-62,30,1001,-16,24,4
2138,-152,18,991,-16,12,0
2139,-142,-5,982,-17,-7,-4
2140,-7,2,996,-14,-22,-9
2141,132,17,1000,-10,-19,-10
2142,161,40,1010,-12,1,-5
2143,55,45,1002,-14,20,3
2144,-93,33,1003,-17,24,2
2145,-170,-11,980,-19,8,-1
2146,-113,-4,976,-13,-13,-6
2147,36,0,1003,-12,-24,-11
2148,153,35,1017,-9,-14,-9
2149,149,55,1006,-13,8,-3
2150,18,35,1008,-15,24,2
2151,-128,14,985,-17,22,2
2152,-164,-11,974,-16,3,-3
2153,-83,0,993,-14,-18,-8
2154,61,16,1007,-14,-24,-8
2155,166,35,1014,-11,-11,-9
2156,133,37,1003,-15,11,-3
2157,-14,32,1000,-13,25,3
2158,-144,10,988,-16,18,1
2159,-170,-4,982,-16,0,-5
2160,-47,2,989,-13,-21,-9
2161,85,19,1020,-14,-22,-7
2162,177,43,1003,-12,-6,-7
2163,106,36,1002,-13,18,-1
2164,-49,33,997,-16,26,4
2165,-157,7,990,-16,15,1
2166,-154,-7,983,-15,-6,-5
2167,-22,1,994,-14,-22,-8
2168,122,16,1002,-9,-23,-10
2169,168,46,1010,-9,-3,-5
2170,86,44,1007,-15,20,1
2171,-82,32,1000,-15,26,2
2172,-166,8,987,-17,10,0
2173,-133,-10,971,-14,-10,-7
2174,5,9,1000,-12,-24,-9
2175,151,23,1011,-13,-19,-8
2176,159,32,1011,-13,4,-5
2177,52,43,1003,-13,23,2
2178,-108,19,995,-17,24,3
2179,-177,5,973,-17,8,-2
2180,-103,1,987,-14,-15,-6
2181,31,8,994,-16,-24,-7
2182,163,34,1025,-10,-15,-10
2183,149,37,1001,-13,8,-5
2184,8,44,1005,-16,24,2
2185,-122,5,985,-18,21,2
2186,-181,-1,984,-15,3,-3
2187,-70,-2,982,-13,-19,-7
2188,77,30,1020,-12,-24,-10
2189,172,26,1006,-13,-9,-7
2190,114,46,1002,-11,14,0
2191,-20,28,993,-19,24,2
2192,-156,20,999,-15,18,1
2193,-158,-7,973,-18,-4,-4
2194,-36,0,1003,-16,-20,-8
2195,116,16,1004,-11,-22,-9
2196,166,42,1006,-10,-2,-6
2197,86,43,1003,-14,18,0
2198,-74,27,1001,-15,27,1
2199,-157,4,985,-18,13,-1
2200,-142,2,987,-15,-10,-4
2201,9,-3,989,-15,-24,-10
2202,139,23,1008,-9,-19,-9
2203,158,51,1013,-12,2,-3
2204,53,36,999,-17,21,1
2205,-101,21,1002,-15,24,3
2206,-168,3,975,-16,7,0
2207,-107,-15,979,-15,-14,-8
2208,31,12,1004,-10,-24,-8
2209,163,31,1014,-11,-15,-9
2210,147,42,1010,-10,8,-3
2211,18,42,998,-13,24,4
2212,-126,15,989,-17,23,0
2213,-174,-4,974,-16,3,-2
2214,-77,-2,990,-15,-18,-6
2215,64,13,1015,-14,-23,-9
2216,175,36,1010,-10,-12,-7
2217,129,42,998,-12,11,-2
2218,-13,36,1001,-15,27,2
2219,-146,11,996,-17,20,1
2220,-173,-6,970,-17,-3,-3
2221,-57,-10,995,-13,-22,-9
2222,96,22,1017,-12,-25,-9
2223,184,34,1002,-12,-6,-7
2224,117,47,1003,-11,18,-1
2225,-51,32,1000,-17,28,4
2226,-160,14,989,-17,18,1
2227,-170,-10,977,-17,-5,-4
2228,-28,5,994,-13,-25,-7
2229,126,19,1006,-12,-24,-8
2230,180,39,1009,-12,-3,-6
2231,84,36,1008,-15,19,2
2232,-82,30,1001,-13,26,3
2233,-172,0,983,-17,14,0
2234,-135,5,972,-15,-10,-4
2235,10,9,997,-15,-24,-9
2236,144,29,1020,-13,-18,-10
2237,156,36,1007,-11,4,-3
2238,45,30,998,-14,22,0
2239,-109,28,996,-15,21,2
2240,-166,0,978,-17,5,-2
2241,-104,0,977,-16,-16,-7
2242,49,5,1010,-15,-25,-11
2243,160,32,1015,-11,-13,-8
2244,140,33,996,-14,9,-2
2245,7,39,1006,-13,24,3
2246,-131,16,989,-15,21,0
2247,-180,-3,972,-16,2,-1
2248,-63,3,994,-14,-19,-9
2249,74,20,1015,-12,-23,-9
2250,173,37,1004,-13,-10,-6
2251,128,45,1004,-14,13,-2
2252,-32,24,998,-19,27,3
2253,-152,5,996,-18,18,2
2254,-160,-2,976,-14,-3,-4
2255,-49,-2,994,-14,-21,-10
2256,128,33,1009,-11,-24,-11
2257,164,40,1002,-15,-1,-4
2258,87,50,1005,-14,18,0
2259,-70,23,1010,-19,25,1
2260,-163,-1,978,-17,13,-1
2261,-132,-5,978,-15,-10,-5
2262,5,3,1003,-15,-23,-11
2263,135,22,1006,-11,-18,-8
2264,162,36,999,-11,4,-6
2265,44,54,1017,-13,22,2
2266,-95,29,992,-16,24,2
2267,-170,-9,978,-20,7,-2
2268,-102,-4,981,-14,-14,-8
2269,36,7,1005,-15,-23,-11
2270,153,31,1016,-12,-15,-9
2271,150,42,1002,-13,6,-3
2272,10,39,1006,-15,26,3
2273,-122,16,990,-18,21,1
2274,-180,-1,974,-16,2,-3
2275,-69,4,989,-15,-20,-8
2276,63,7,1018,-14,-23,-9
2277,170,39,1002,-10,-9,-8
2278,132,40,1006,-14,12,-3
2279,-24,36,996,-15,25,4
2280,-145,12,992,-16,17,1
2281,-167,-5,979,-16,-2,-4
2282,-46,2,995,-14,-21,-8
2283,107,21,1009,-11,-24,-11
2284,170,31,1004,-12,-4,-5
2285,95,49,1005,-12,16,-1
2286,-55,28,994,-17,25,2
2287,-167,9,996,-16,14,0
2288,-144,-4,972,-16,-9,-5
2289,0,-1,1008,-14,-23,-9
2290,132,19,994,-12,-18,-8
2291,157,34,1012,-11,2,-5
2292,65,45,1012,-13,20,1
2293,-101,27,992,-16,25,4
2294,-156,4,984,-16,7,-1
2295,-116,-9,979,-16,-12,-5
2296,36,10,998,-11,-23,-10
2297,142,29,1022,-12,-15,-8
2298,151,50,1002,-12,5,-5
2299,22,32,1006,-14,25,2
2300,-122,22,987,-17,21,2
2301,-159,-5,974,-16,4,-3
2302,-75,-7,989,-14,-16,-8
2303,54,20,1011,-12,-21,-9
2304,169,35,1008,-11,-10,-9
2305,121,40,1006,-13,13,-1
2306,-14,36,992,-16,25,3
2307,-138,10,996,-15,19,1
2308,-168,-7,975,-14,-1,-3
2309,-46,6,989,-11,-23,-9
2310,88,13,1022,-10,-23,-9
2311,168,41,1002,-10,-6,-7
2312,112,40,1003,-11,15,-1
2313,-51,32,995,-15,26,2
2314,-159,11,994,-17,15,1
2315,-147,-5,982,-17,-5,-6
2316,-33,0,992,-13,-20,-7
2317,127,20,1008,-10,-22,-9
2318,163,39,1007,-13,-1,-5
2319,79,41,1006,-15,18,1
2320,-79,32,1001,-15,25,5
2321,-164,0,985,-16,11,-1
2322,-129,-8,976,-14,-11,-5
2323,17,9,1000,-11,-25,-8
2324,142,27,1007,-11,-16,-10
2325,152,41,1011,-12,5,-3
2326,46,45,1004,-13,22,2
2327,-110,18,995,-17,24,3
2328,-171,-8,976,-16,6,-3
2329,-104,-1,981,-14,-15,-5
2330,48,8,1005,-12,-24,-10
2331,167,36,1015,-9,-13,-9
2332,136,49,1006,-11,10,-2
2333,9,37,1000,-16,24,1
2334,-130,9,987,-17,21,1
2335,-175,-4,971,-14,1,-1
2336,-72,-3,998,-12,-19,-7
2337,79,17,1008,-12,-22,-10
2338,169,42,1011,-9,-8,-7
2339,125,39,997,-13,12,-2
2340,-31,38,992,-14,25,1
2341,-135,10,1006,-17,16,0
2342,-176,-2,972,-18,-3,-2
2343,-37,-5,995,-13,-23,-8
2344,106,17,1013,-12,-23,-9
2345,167,43,1000,-12,-5,-5
2346,109,39,1009,-13,16,0
2347,-63,40,1000,-15,26,3
2348,-153,1,990,-18,14,0
2349,-156,-9,979,-16,-7,-4
2350,-14,5,995,-13,-23,-9
2351,131,17,1007,-10,-19,-11
2352,160,41,1008,-11,0,-4
2353,79,47,1007,-12,18,0
2354,-84,30,999,-17,25,2
2355,-172,3,980,-18,11,0
2356,-117,-3,977,-17,-12,-4
2357,8,-1,994,-14,-22,-9
2358,155,34,1022,-11,-18,-10
2359,149,31,1006,-14,6,-5
2360,28,43,1000,-12,23,3
2361,-105,31,995,-15,21,2
2362,-174,-5,972,-16,7,-1
2363,-92,-2,990,-14,-16,-7
2364,67,1,1007,-12,-23,-11
2365,157,38,1014,-10,-9,-5
2366,136,44,998,-12,11,-1
2367,-17,34,1000,-15,26,3
2368,-135,18,985,-14,19,1
2369,-165,-7,978,-17,0,-3
2370,-43,0,992,-15,-19,-7
2371,93,14,1022,-12,-22,-11
2372,173,34,995,-11,-4,-8
2373,88,40,1004,-13,18,1
2374,-48,35,993,-17,24,2
2375,-152,11,998,-17,14,0
2376,-151,-8,975,-15,-6,-6
2377,-5,0,1005,-15,-22,-10
2378,124,20,1001,-12,-18,-10
2379,149,44,1002,-11,2,-4
2380,68,40,1017,-15,20,-1
2381,-91,25,989,-18,26,3
2382,-158,-3,991,-16,9,-2
2383,-116,-5,973,-14,-12,-6
2384,17,10,1003,-12,-23,-9
2385,152,30,1013,-11,-16,-9
2386,133,44,1002,-12,8,-3
2387,39,44,1009,-15,21,2
2388,-116,11,993,-18,22,3
2389,-164,1,970,-15,6,-1
2390,-82,-14,992,-16,-16,-5
2391,53,16,1000,-11,-22,-10
2392,166,39,1016,-10,-10,-7
2393,132,42,1003,-12,11,-2
2394,-11,34,1002,-15,25,2
2395,-126,14,983,-16,18,0
2396,-169,0,982,-17,1,-3
2397,-53,-3,989,-13,-21,-7
2398,80,27,1015,-12,-20,-10
2399,173,34,1012,-14,-7,-8
2400,111,41,993,-14,15,-1
2401,-36,28,998,-16,25,3
2402,-147,9,999,-17,17,0
2403,-163,-3,973,-15,-3,-5
2404,-31,4,997,-14,-23,-7
2405,120,20,1013,-13,-22,-11
2406,164,36,996,-12,-2,-5
2407,94,42,1009,-13,18,-2
2408,-68,29,1002,-17,26,2
2409,-161,5,984,-17,14,0
2410,-146,-10,977,-15,-10,-5
2411,-2,8,996,-11,-24,-9
2412,133,28,1011,-13,-19,-8
2413,165,45,1004,-12,3,-4
2414,58,37,1013,-14,22,2
2415,-97,25,993,-16,24,2
2416,-175,-5,981,-15,10,-2
2417,-105,3,979,-12,-13,-7
2418,25,5,996,-14,-22,-9
2419,156,34,1021,-10,-17,-10
2420,148,39,1005,-14,6,-2
2421,19,42,998,-15,23,1
2422,-121,17,995,-16,21,2
2423,-170,-10,969,-15,3,-2
2424,-80,4,994,-11,-17,-8
2425,74,7,1011,-12,-24,-10
2426,155,40,1017,-10,-8,-7
2427,136,40,990,-13,11,-3
2428,-15,36,1004,-15,26,3
2429,-148,12,989,-16,19,2
2430,-166,-7,975,-14,-2,-5
2431,-51,0,1001,-13,-19,-9
2432,94,18,1002,-11,-22,-8
2433,176,36,1008,-12,-7,-7
2434,102,48,1003,-12,16,0
2435,-53,35,993,-17,27,4
2436,-150,7,1000,-17,15,0
2437,-156,-11,977,-16,-6,-3
2438,-10,-2,995,-13,-24,-10
2439,120,19,1005,-9,-20,-8
2440,161,45,1008,-11,-1,-5
2441,78,46,1008,-14,18,1
2442,-91,29,997,-17,26,3
2443,-166,2,986,-16,11,0
2444,-113,-11,976,-15,-11,-7
2445,8,0,998,-12,-23,-9
2446,154,34,1015,-8,-17,-10
2447,149,38,1013,-13,8,-5
2448,29,48,994,-12,23,3
2449,-111,18,993,-18,22,2
2450,-170,-3,981,-15,5,-2
2451,-87,-3,975,-14,-16,-6
2452,58,7,1013,-12,-23,-11
2453,160,37,1017,-12,-11,-8
2454,133,36,995,-12,11,-2
2455,-10,38,1004,-12,25,2
2456,-131,14,989,-16,19,2
2457,-166,-2,980,-15,1,-3
2458,-53,0,985,-13,-20,-7
2459,86,19,1024,-11,-21,-10
2460,170,32,1002,-12,-6,-7
2461,105,41,992,-11,17,0
2462,-44,30,1007,-16,26,3
2463,-155,12,990,-15,16,0
2464,-151,-9,978,-16,-5,-5
2465,-22,2,1003,-12,-21,-8
2466,122,19,1006,-11,-20,-10
2467,166,36,1001,-10,0,-6
2468,79,50,1014,-11,19,2
2469,-82,34,992,-15,25,4
2470,-159,2,991,-17,12,-1
2471,-134,-14,973,-17,-10,-4
2472,15,11,999,-10,-23,-10
2473,145,16,1014,-11,-17,-10
2474,152,48,1002,-9,5,-4
2475,49,39,1006,-16,22,3
2476,-110,32,998,-16,24,3
2477,-168,-3,977,-19,6,-2
2478,-105,0,979,-13,-15,-6
2479,42,8,1010,-14,-24,-9
2480,160,32,1008,-13,-14,-9
2481,141,43,1010,-11,9,-2
2482,15,35,1002,-16,23,3
2483,-126,8,984,-16,22,-1
2484,-175,-1,976,-14,4,-2
2485,-66,2,995,-15,-19,-8
2486,65,21,1009,-11,-23,-10
2487,170,41,1010,-13,-11,-6
2488,133,35,1004,-15,13,-3
2489,-30,29,982,-16,26,4
2490,-144,22,1011,-17,16,0
2491,-165,-18,962,-18,-3,-4
2492,-47,4,999,-11,-20,-7
2493,111,30,1014,-13,-23,-9
2494,161,36,1003,-12,-3,-8
2495,112,47,997,-12,15,-1
2496,-73,30,1006,-18,26,5
2497,-152,5,983,-19,14,0
2498,-150,-7,991,-16,-5,-2
2499,-8,-6,985,-11,-24,-9
2500,128,26,1008,-9,-19,-9
2501,166,45,1014,-13,1,-5
2502,66,40,998,-14,20,1
2503,-84,34,1008,-14,24,1
2504,-169,-3,978,-19,10,1
2505,-120,-6,978,-14,-12,-5
2506,18,-2,995,-14,-24,-8
2507,145,34,1019,-11,-17,-9
2508,160,44,1009,-11,4,-5
2509,39,35,1000,-15,23,2
2510,-110,23,994,-16,23,3
2511,-168,-1,974,-17,5,-2
2512,-98,-20,984,-16,-16,-6
2513,39,22,1003,-10,-26,-6
2514,171,34,1012,-13,-15,-9
2515,148,43,1009,-10,9,-4
2516,4,36,993,-15,25,6
2517,-136,20,996,-15,21,2
2518,-174,-9,974,-15,2,-3
2519,-59,-2,989,-13,-20,-7
2520,76,14,1015,-12,-23,-8
2521,174,32,1012,-11,-8,-7
2522,123,39,996,-11,15,-2
2523,-41,39,994,-15,27,4
2524,-148,12,1003,-16,16,1
2525,-166,-4,975,-16,-2,-3
2526,-27,7,995,-14,-23,-8
2527,114,16,1010,-13,-22,-8
2528,162,40,1002,-13,-2,-5
2529,103,36,1015,-15,17,0
2530,-86,28,995,-14,27,5
2531,-159,1,987,-17,12,-1
2532,-131,-1,981,-14,-9,-6
2533,-2,9,989,-13,-21,-9
2534,144,29,1013,-10,-18,-11
2535,151,31,1007,-14,3,-6
2536,46,47,1007,-14,22,4
2537,-100,14,991,-18,23,2
2538,-174,8,983,-16,7,-1
2539,-94,-11,969,-17,-16,-6
2540,29,16,1018,-11,-23,-8
2541,165,32,998,-14,-15,-8
2542,132,40,1020,-13,10,-4
2543,19,32,995,-16,22,1
2544,-134,16,990,-17,22,2
2545,-161,0,974,-14,2,-4
2546,-70,-1,993,-16,-17,-6
2547,76,21,1013,-11,-22,-11
2548,169,34,1010,-11,-8,-6
2549,111,40,995,-14,14,-2
2550,-26,40,998,-15,25,3
2551,-146,4,997,-18,17,0
2552,-161,-2,975,-16,-4,-4
2553,-23,0,1006,-13,-21,-10
2554,109,15,1000,-11,-20,-10
2555,165,42,1011,-9,-2,-6
2556,88,45,1002,-13,18,0
2557,-77,35,997,-15,27,3
2558,-154,0,990,-19,11,0
2559,-139,-13,980,-15,-8,-5
2560,16,6,997,-13,-25,-10
2561,134,21,1008,-11,-18,-9
2562,155,47,1006,-10,3,-4
2563,49,42,1010,-16,23,3
2564,-101,30,993,-16,24,4
2565,-173,-1,980,-18,7,0
2566,-99,-9,980,-13,-15,-7
2567,29,0,1004,-14,-24,-8
2568,157,34,1014,-12,-15,-9
2569,144,42,1011,-13,9,-4
2570,19,43,997,-15,23,3
2571,-126,17,990,-17,21,3
2572,-163,-1,971,-17,3,-3
2573,-84,-9,995,-15,-18,-8
2574,76,17,1007,-13,-24,-11
2575,159,31,1014,-10,-8,-6
2576,132,40,1001,-12,10,-3
2577,-24,34,992,-15,25,4
2578,-140,18,992,-15,17,0
2579,-162,-8,978,-18,-2,-3
2580,-47,0,990,-13,-20,-8
2581,103,15,1022,-13,-21,-10
2582,165,41,1001,-12,-4,-7
2583,99,47,995,-14,16,0
2584,-58,24,1005,-19,25,2
2585,-161,17,988,-15,14,2
2586,-141,-11,982,-13,-6,-5
2587,-9,6,1001,-12,-22,-7
2588,135,18,997,-12,-18,-8
2589,160,42,1010,-11,2,-5
2590,60,49,1013,-14,20,3
2591,-89,29,993,-16,23,2
2592,-169,0,990,-16,9,-1
2593,-113,-8,976,-17,-13,-6
2594,25,4,997,-13,-23,-10
2595,154,25,1019,-12,-18,-9
2596,144,39,1002,-12,6,-3
2597,27,46,1007,-14,23,2
2598,-113,17,990,-17,21,3
2599,-171,4,976,-17,5,-1
2600,-83,-8,983,-16,-19,-6
2601,49,11,1004,-12,-23,-10
2602,167,31,1013,-11,-11,-8
2603,127,36,1009,-12,10,-2
2604,-2,42,991,-16,24,1
2605,-134,7,996,-16,20,1
2606,-169,4,971,-15,0,-1
2607,-52,2,993,-14,-20,-8
2608,83,13,1018,-11,-23,-10
2609,164,35,1005,-12,-6,-6
2610,117,36,1001,-14,14,0
2611,-49,35,993,-13,26,5
2612,-146,5,1000,-16,16,0
2613,-153,-3,979,-16,-3,-4
2614,-28,0,992,-14,-22,-7
2615,126,29,1016,-12,-21,-11
2616,156,40,998,-13,-1,-4
2617,84,53,1006,-12,18,1
2618,-82,16,1000,-20,26,6
2619,-164,5,989,-14,12,0
2620,-125,-16,975,-16,-10,-4
2621,3,10,1002,-10,-24,-9
2622,145,28,1012,-10,-18,-9
2623,152,50,1006,-12,4,-6
2624,41,43,1005,-17,21,2
2625,-104,19,996,-18,22,1
2626,-166,-5,981,-17,7,-2
2627,-106,-10,973,-16,-15,-5
2628,47,10,1013,-12,-24,-10
2629,154,29,1013,-10,-12,-9
2630,135,49,999,-14,9,-1
2631,14,40,1012,-14,23,1
2632,-127,16,983,-18,20,2
2633,-173,0,971,-16,2,-1
2634,-62,-5,1003,-17,-20,-8
2635,69,10,1006,-13,-21,-9
2636,168,37,1006,-12,-10,-7
2637,122,38,1008,-14,13,-3
2638,-31,36,989,-12,26,2
2639,-149,16,994,-15,17,1
2640,-157,3,984,-17,-4,-4
2641,-42,-5,991,-15,-20,-7
2642,117,20,1015,-13,-24,-11
2643,165,26,1006,-11,-3,-6
2644,92,45,994,-11,17,0
2645,-68,27,1003,-17,25,3
2646,-161,11,987,-13,13,0
2647,-139,-7,985,-16,-8,-5
2648,3,8,996,-12,-23,-8
2649,135,22,1007,-11,-18,-8
2650,160,36,1005,-13,3,-5
2651,52,40,1008,-12,22,2
2652,-98,28,995,-15,25,3
2653,-166,-3,980,-17,9,0
2654,-108,-7,979,-14,-13,-5
2655,37,14,1002,-12,-22,-9
2656,151,31,1016,-11,-13,-9
2657,138,46,1009,-13,8,-2
2658,25,37,1002,-15,23,2
2659,-124,10,989,-17,21,2
2660,-163,0,975,-17,3,-1
2661,-75,-7,993,-15,-16,-8
2662,59,11,1005,-12,-22,-11
2663,169,36,1011,-10,-10,-9
2664,123,41,1009,-11,13,-3
2665,-17,37,994,-14,25,3
2666,-139,19,989,-16,18,1
2667,-162,-5,979,-18,-1,-4
2668,-63,-3,989,-13,-19,-7
2669,95,24,1018,-12,-24,-9
2670,168,33,1013,-14,-8,-7
2671,117,37,990,-13,15,-1
2672,-38,36,1006,-14,25,4
2673,-161,10,991,-15,17,2
2674,-157,4,981,-16,-4,-3
2675,-30,0,996,-15,-22,-7
2676,113,23,1002,-11,-21,-8
2677,178,36,1011,-11,-4,-6
2678,86,45,1005,-12,18,0
2679,-70,31,1000,-16,26,3
2680,-169,5,982,-19,14,0
2681,-146,-11,983,-15,-10,-4
2682,11,2,991,-12,-25,-8
2683,138,27,1013,-10,-19,-9
2684,166,43,1007,-11,2,-4
2685,46,46,1007,-13,22,2
2686,-94,21,995,-15,24,0
2687,-182,-3,985,-16,9,0
2688,-102,-4,970,-14,-16,-7
2689,37,10,1013,-15,-24,-11
2690,153,33,1010,-12,-16,-8
2691,151,48,1010,-12,8,-3
2692,26,22,1003,-16,24,2
2693,-129,14,986,-14,23,4
2694,-170,-3,974,-15,3,-2
2695,-90,0,992,-12,-18,-6
2696,68,29,1008,-11,-24,-10
2697,177,33,1013,-13,-12,-7
2698,133,43,995,-14,11,-1
2699,-8,33,1000,-15,26,1
2700,-139,5,1000,-18,20,0
2701,-182,-7,969,-15,0,-1
2702,-56,1,990,-12,-21,-9
2703,101,22,1023,-16,-24,-8
2704,175,38,997,-9,-6,-5
2705,118,44,1002,-16,15,-2
2706,-50,19,1006,-11,27,3
2707,-160,14,990,-15,17,1
2708,-155,0,984,-16,-6,-4
2709,-29,4,986,-14,-23,-9
2710,126,21,1014,-14,-21,-10
2711,166,32,1001,-12,0,-7
2712,78,47,1011,-12,20,0
2713,-76,31,999,-16,25,2
2714,-168,3,981,-17,12,0
2715,-119,-8,978,-16,-11,-5
2716,10,7,997,-12,-22,-9
2717,146,28,1020,-11,-17,-11
2718,154,40,1002,-10,6,-4
2719,29,44,1006,-13,23,3
2720,-103,17,991,-17,22,3
2721,-172,-6,975,-15,7,-1
2722,-86,-5,980,-15,-18,-7
2723,49,18,1016,-13,-24,-10
2724,165,29,1004,-14,-12,-8
2725,123,43,1007,-11,12,-1
2726,-3,36,999,-16,23,2
2727,-136,15,985,-16,19,1
2728,-162,0,978,-18,0,-3
2729,-57,-1,996,-14,-19,-9
2730,94,23,1014,-13,-21,-11
2731,166,22,1006,-13,-6,-6
2732,105,47,998,-9,15,0
2733,-42,25,998,-15,25,2
2734,-154,10,991,-15,15,0
2735,-151,-4,979,-14,-6,-3
2736,-20,8,1004,-12,-22,-8
2737,125,16,998,-14,-20,-9
2738,160,39,1010,-11,0,-5
2739,78,43,1004,-15,18,1
2740,-85,26,1001,-17,26,2
2741,-160,0,984,-18,10,-2
2742,-127,-6,979,-16,-11,-5
2743,13,10,996,-11,-24,-10
2744,138,23,1009,-13,-18,-7
2745,157,46,1012,-15,4,-5
2746,52,40,1006,-17,22,2
2747,-108,15,992,-18,24,3
2748,-170,2,985,-17,6,-1
2749,-110,-11,973,-13,-14,-7
2750,29,14,1006,-13,-24,-9
2751,160,35,1017,-12,-15,-10
2752,153,45,1008,-12,7,-4
2753,21,34,1001,-18,24,4
2754,-132,15,986,-18,22,2
2755,-176,-7,979,-17,3,-2
2756,-79,-5,987,-13,-17,-6
2757,57,14,1009,-13,-23,-10
2758,178,39,1016,-10,-11,-9
2759,134,42,994,-14,13,-3
2760,-19,39,994,-14,26,3
2761,-142,14,1002,-17,19,1
2762,-175,-9,969,-18,0,-3
2763,-47,-4,994,-14,-22,-8
2764,104,12,1019,-11,-24,-10
2765,174,37,997,-10,-5,-7
2766,101,46,1003,-10,16,0
2767,-61,38,1000,-14,26,3
2768,-157,6,989,-18,14,0
2769,-148,-8,980,-16,-6,-3
2770,-12,0,996,-12,-23,-9
2771,143,20,1006,-10,-21,-11
2772,152,41,1005,-10,3,-3
2773,68,49,1007,-13,21,1
2774,-90,27,1001,-17,25,4
2775,-166,1,982,-14,10,0
2776,-115,-4,972,-16,-13,-5
2777,14,3,1008,-14,-24,-10
2778,158,28,1011,-11,-18,-10
2779,149,42,1007,-12,7,-3
2780,42,46,1003,-16,24,3
2781,-111,10,997,-16,24,2
2782,-171,0,969,-14,6,-1
2783,-101,1,985,-13,-14,-5
2784,48,14,1016,-14,-24,-12
2785,169,31,1004,-13,-14,-7
2786,136,47,1006,-13,9,-1
2787,7,28,1002,-16,24,1
2788,-129,11,994,-15,21,1
2789,-173,-4,965,-14,1,-1
2790,-64,2,1003,-13,-19,-8
2791,83,20,1012,-12,-23,-11
2792,169,36,1005,-12,-7,-5
2793,114,43,999,-11,14,-2
2794,-42,33,1001,-14,27,4
2795,-147,5,990,-16,16,1
2796,-164,0,980,-15,-1,-3
2797,-24,2,1001,-13,-22,-9
2798,116,17,1000,-11,-22,-11
2799,159,39,1005,-12,-1,-5
2800,90,49,1009,-13,17,0
2801,-82,29,997,-17,27,3
2802,-157,5,984,-16,12,-1
2803,-139,-8,985,-16,-9,-4
2804,13,5,991,-12,-24,-9
2805,138,22,1013,-14,-17,-9
2806,149,41,1007,-12,3,-4
2807,58,45,1008,-13,22,1
2808,-112,13,994,-18,25,4
2809,-169,3,978,-16,6,-1
2810,-94,-8,983,-15,-15,-8
2811,32,9,1000,-12,-24,-9
2812,164,39,1017,-12,-14,-8
2813,138,41,1005,-13,9,-5
2814,7,29,1000,-15,25,4
2815,-129,22,985,-15,20,4
2816,-167,-12,976,-17,2,-2
2817,-68,-2,996,-12,-18,-6
2818,76,16,1003,-11,-22,-9
2819,169,48,1023,-10,-8,-8
2820,120,35,990,-14,13,-2
2821,-33,36,997,-13,27,3
2822,-145,9,998,-17,16,2
2823,-163,-10,972,-17,-3,-3
2824,-32,1,995,-13,-22,-8
2825,107,25,1016,-12,-20,-10
2826,171,35,1000,-11,-3,-7
2827,85,51,999,-13,18,0
2828,-64,32,1001,-17,24,3
2829,-165,6,988,-15,12,1
2830,-130,-5,978,-16,-10,-4
2831,-7,-1,1002,-12,-23,-9
2832,138,27,1004,-12,-20,-9
2833,159,31,1002,-11,2,-5
2834,56,48,1014,-12,20,2
2835,-85,26,992,-16,25,3
2836,-167,-1,986,-16,10,0
2837,-121,-1,978,-15,-12,-4
2838,24,5,997,-14,-23,-10
2839,151,28,1022,-12,-17,-8
2840,145,40,995,-13,6,-2
2841,37,46,1013,-14,23,1
2842,-110,21,990,-17,22,2
2843,-177,1,975,-15,7,-1
2844,-91,-10,983,-16,-18,-8
2845,33,10,1009,-12,-25,-8
2846,176,37,1014,-9,-14,-9
2847,144,37,1002,-14,11,-1
2848,5,36,999,-14,26,3
2849,-127,16,994,-16,22,3
2850,-186,2,973,-16,4,-1
2851,-69,5,987,-15,-20,-7
2852,81,21,1023,-13,-24,-8
2853,177,32,1004,-13,-8,-7
2854,118,37,993,-12,14,0
2855,-29,35,1004,-16,24,4
2856,-157,2,992,-17,17,1
2857,-159,-6,981,-15,-5,-4
2858,-25,3,993,-13,-22,-8
2859,118,25,1006,-12,-20,-10
2860,163,37,1004,-12,-2,-6
2861,84,50,1013,-12,18,-1
2862,-81,28,991,-17,27,3
2863,-159,3,993,-20,11,0
2864,-132,-17,973,-17,-10,-5
2865,14,0,995,-13,-24,-10
2866,140,23,1014,-9,-18,-9
2867,155,53,1006,-12,3,-5
2868,46,44,1009,-15,22,2
2869,-106,27,990,-15,24,3
2870,-170,0,985,-19,8,0
2871,-106,-12,973,-15,-16,-7
2872,34,10,1003,-13,-25,-9
2873,161,33,1021,-12,-14,-8
2874,150,46,1002,-11,8,-4
2875,15,26,1000,-16,24,2
2876,-127,22,995,-15,22,2
2877,-179,-5,967,-16,3,-2
2878,-72,1,994,-14,-19,-8
2879,60,20,1012,-12,-24,-9
2880,174,42,1012,-13,-11,-9
2881,138,34,1005,-15,12,-3
2882,-34,29,990,-15,26,6
2883,-138,11,998,-15,17,0
2884,-173,-5,977,-17,-2,-4
2885,-37,8,992,-14,-22,-8
2886,114,16,1012,-12,-22,-9
2887,163,38,1003,-11,-3,-5
2888,97,43,999,-12,16,0
2889,-73,31,1004,-15,24,2
2890,-156,8,986,-17,13,1
2891,-140,-18,980,-17,-7,-5
2892,-1,16,994,-11,-22,-8
2893,135,20,1008,-12,-18,-9
2894,157,44,1006,-10,2,-4
2895,60,43,1007,-17,20,3
2896,-101,27,991,-16,24,2
2897,-167,-6,986,-18,7,0
2898,-105,-8,974,-15,-13,-5
2899,29,6,995,-13,-22,-9
2900,158,36,1030,-11,-15,-9
2901,145,37,995,-12,8,-3
2902,13,43,1006,-14,25,3
2903,-110,18,989,-18,19,-1
2904,-178,-8,974,-15,5,-1
2905,-72,3,988,-15,-19,-5
2906,50,8,1014,-13,-24,-10
2907,172,38,1007,-10,-12,-8
2908,129,38,1004,-13,12,-2
2909,-13,36,998,-15,25,3
2910,-139,8,988,-16,20,0
2911,-173,7,980,-16,-1,-2
2912,-49,-6,990,-14,-21,-8
2913,91,21,1013,-13,-21,-10
2914,174,36,1009,-14,-7,-5
2915,101,38,993,-13,17,0
2916,-44,29,1000,-16,26,1
2917,-152,8,994,-16,16,1
2918,-158,-1,977,-17,-4,-3
2919,-16,-2,1001,-13,-23,-10
2920,116,29,1004,-9,-20,-10
2921,170,37,1005,-12,-2,-6
2922,71,48,1009,-12,19,1
2923,-72,26,997,-16,25,3
2924,-166,-4,986,-18,12,0
2925,-138,-1,968,-14,-9,-5
2926,11,12,1001,-14,-26,-8
2927,133,31,1017,-14,-19,-7
2928,159,34,1005,-14,2,-5
2929,68,35,1003,-13,22,1
2930,-111,22,1000,-12,25,3
2931,-171,-2,970,-14,7,-3
2932,-113,-4,980,-13,-14,-7
2933,26,23,1006,-13,-26,-8
2934,167,34,1013,-14,-16,-9
2935,154,39,1011,-13,8,-4
2936,28,39,998,-15,24,3
2937,-131,6,992,-16,24,1
2938,-176,-4,975,-14,4,-3
2939,-88,-4,987,-15,-19,-7
2940,69,24,1012,-10,-26,-10
2941,177,30,1017,-12,-11,-9
2942,134,48,985,-11,13,-1
2943,-22,34,1010,-15,26,2
2944,-145,4,988,-21,20,1
2945,-172,-5,976,-15,-2,-2
2946,-43,6,992,-13,-22,-9
2947,106,18,1015,-14,-23,-10
2948,172,28,996,-12,-5,-7
2949,88,53,1011,-12,17,1
2950,-58,28,999,-18,24,2
2951,-163,9,989,-19,13,0
2952,-137,-13,979,-16,-9,-5
2953,-4,-2,992,-15,-22,-10
2954,133,25,1010,-9,-18,-11
2955,162,50,1003,-11,2,-3
2956,48,38,1011,-16,22,1
2957,-88,22,996,-15,24,2
2958,-168,0,984,-17,9,1
2959,-109,-6,976,-15,-14,-6
2960,39,6,1004,-13,-24,-10
2961,149,29,1021,-11,-13,-9
2962,146,49,1001,-9,9,-4
2963,22,38,1009,-15,25,0
2964,-128,18,985,-15,22,3
2965,-170,2,976,-14,5,-3
2966,-77,-5,994,-16,-19,-7
2967,48,17,1004,-13,-23,-8
2968,181,29,1015,-11,-12,-9
2969,134,36,1001,-13,12,-3
2970,-14,45,991,-14,26,5
2971,-138,11,998,-17,19,-1
2972,-181,-1,973,-18,0,-3
2973,-53,6,993,-15,-22,-7
2974,94,14,1017,-14,-24,-11
2975,177,33,1006,-11,-8,-8
2976,114,42,992,-13,15,-2
2977,-43,34,1011,-15,26,2
2978,-159,4,987,-17,17,1
2979,-169,-4,977,-17,-4,-4
2980,-21,2,996,-12,-24,-9
2981,122,29,1005,-11,-21,-8
2982,178,44,1010,-13,-3,-5
2983,85,44,1011,-16,19,2
2984,-78,20,995,-18,26,3
2985,-169,-3,984,-15,13,0
2986,-138,-7,970,-15,-10,-7
2987,-2,5,1000,-11,-24,-9
2988,150,33,1017,-13,-20,-9
2989,164,50,1003,-12,3,-4
2990,60,32,1009,-16,23,2
2991,-107,20,996,-16,27,2
2992,-175,-1,971,-15,9,-2
2993,-112,-10,987,-14,-14,-6
2994,25,9,998,-12,-25,-8
2995,166,36,1020,-10,-16,-10
2996,154,45,1003,-13,7,-3
2997,24,42,999,-15,25,3
2998,-128,9,996,-16,22,2
2999,-177,0,968,-15,4,-3
3000,-77,-9,995,-15,-18,-8
3001,70,22,1006,-14,-24,-10
3002,169,21,1016,-11,-10,-8
3003,135,49,992,-10,12,-2
3004,-23,32,1000,-13,27,4
3005,-145,17,999,-15,19,1
3006,-174,0,977,-16,-2,-3
3007,-46,-3,987,-13,-22,-9
3008,98,24,1014,-12,-24,-9
3009,184,38,999,-11,-6,-8
3010,100,40,1012,-13,18,-1
3011,-52,28,998,-15,26,2
3012,-165,7,992,-16,17,1
3013,-161,-4,971,-16,-8,-6
3014,-20,9,993,-12,-25,-9
3015,132,23,1012,-10,-22,-11
3016,180,39,1010,-12,-1,-7
3017,85,41,1009,-14,21,3
3018,-86,24,999,-16,28,2
3019,-177,-7,977,-16,11,0
3020,-135,-5,970,-11,-11,-5
3021,5,11,1003,-15,-26,-9
3022,160,38,1024,-11,-18,-10
3023,171,43,1003,-15,5,-2
3024,41,36,1002,-14,24,4
3025,-119,24,995,-14,23,3
3026,-183,-9,975,-18,6,-1
3027,-94,-8,985,-12,-17,-7
3028,49,9,1008,-14,-25,-9
3029,171,36,1021,-11,-13,-9
3030,146,40,993,-9,10,-3
3031,-3,46,1003,-15,26,4
3032,-136,18,1002,-17,20,1
3033,-174,-8,971,-17,2,-3
3034,-61,-6,990,-13,-19,-7
3035,96,11,1018,-10,-24,-11
3036,168,34,997,-9,-5,-7
3037,107,55,1007,-13,15,0
3038,-42,34,1002,-27,27,5
3039,-160,8,989,-16,17,1
3040,-148,-6,977,-17,-6,-5
3041,-21,1,999,-12,-22,-10
3042,130,23,1001,-12,-21,-10
3043,159,43,1005,-12,1,-5
3044,75,44,1010,-14,19,0
3045,-78,19,1000,-17,26,3
3046,-167,1,983,-15,12,-1
3047,-126,7,976,-16,-11,-5
3048,11,13,1001,-16,-24,-10
3049,145,25,1011,-12,-18,-9
3050,157,31,1010,-15,3,-4
3051,51,28,1005,-12,22,0
3052,-102,19,987,-14,25,2
3053,-179,3,978,-14,9,0
3054,-111,9,983,-14,-14,-6
3055,45,19,1004,-15,-24,-10
3056,166,24,1019,-13,-14,-8
3057,145,37,997,-12,10,-3
3058,10,29,1000,-14,25,1
3059,-133,20,998,-15,20,1
3060,-173,-3,969,-18,1,-4
3061,-67,1,995,-13,-19,-9
3062,76,19,1012,-13,-24,-9
3063,169,35,1007,-12,-8,-8
3064,116,38,994,-11,14,-1
3065,-34,38,1005,-15,25,4
3066,-149,13,993,-18,16,1
3067,-153,-4,977,-15,-3,-5
3068,-26,0,1000,-15,-22,-7
3069,109,16,1003,-12,-19,-10
3070,170,39,1010,-11,-3,-6
3071,76,34,1005,-14,18,0
3072,-66,36,999,-14,24,3
3073,-164,-3,989,-15,13,-1
3074,-127,9,979,-14,-10,-7
3075,6,-1,987,-17,-21,-9
3076,136,29,1021,-11,-18,-9
3077,160,33,1004,-13,2,-5
3078,40,44,1000,-15,23,2
3079,-94,24,1002,-15,22,1
3080,-174,3,970,-16,10,-1
3081,-99,-2,985,-16,-15,-7
3082,33,11,1003,-14,-24,-10
3083,155,33,1016,-12,-14,-10
3084,156,32,1001,-12,7,-5
3085,8,33,1003,-13,24,3
3086,-124,20,989,-14,21,2
3087,-176,3,976,-16,3,-2
3088,-81,-3,988,-15,-19,-7
3089,70,24,1018,-13,-25,-10
3090,176,26,1009,-13,-11,-9
3091,133,35,995,-12,13,0
3092,-14,29,999,-14,26,4
3093,-150,16,1004,-15,20,1
3094,-172,-2,965,-16,-1,-2
3095,-52,5,1002,-14,-20,-7
3096,100,20,1004,-14,-22,-10
3097,181,36,1004,-14,-4,-7
3098,101,36,1007,-14,16,1
3099,-61,28,999,-16,27,5
3100,-155,4,991,-18,16,0
3101,-150,-6,979,-16,-8,-4
3102,-12,6,990,-11,-24,-9
3103,133,28,1016,-10,-20,-9
3104,163,41,1005,-12,0,-5
3105,61,40,1006,-13,20,1
3106,-88,26,1002,-14,24,1
3107,-168,-3,982,-18,11,0
3108,-116,-4,969,-13,-12,-6
3109,23,10,1010,-13,-23,-10
3110,153,30,1015,-11,-15,-9
3111,146,39,1002,-12,8,-3
3112,32,42,1008,-14,22,2
3113,-115,21,988,-16,21,1
3114,-171,-6,976,-17,5,-2
3115,-94,-6,985,-16,-16,-5
3116,48,17,1015,-12,-24,-10
3117,181,29,1013,-12,-13,-9
3118,134,39,992,-10,12,0
3119,4,40,1003,-13,25,1
3120,-139,6,1002,-17,21,2
3121,-184,5,968,-15,0,-1
3122,-67,3,992,-15,-20,-7
3123,92,17,1021,-13,-24,-10
3124,176,31,998,-12,-8,-7
3125,132,42,997,-12,14,-2
3126,-39,25,1011,-17,28,3
3127,-156,8,988,-15,18,1
3128,-178,6,979,-15,-3,-3
3129,-39,6,994,-15,-22,-8
3130,121,21,1006,-12,-23,-10
3131,183,34,1002,-12,-2,-6
3132,94,40,1018,-14,19,2
3133,-58,28,994,-15,26,1
3134,-175,0,986,-16,16,0
3135,-153,5,974,-15,-8,-4
3136,0,6,994,-12,-24,-9
3137,142,24,1016,-12,-20,-8
3138,162,42,1008,-11,1,-2
3139,71,39,1006,-13,21,1
3140,-107,12,994,-18,25,3
3141,-170,9,977,-14,7,-1
3142,-110,-10,987,-14,-14,-7
3143,29,21,999,-12,-23,-10
3144,162,32,1016,-11,-16,-8
3145,144,37,1010,-13,7,-3
3146,9,33,991,-13,25,4
3147,-122,18,1001,-16,20,1
3148,-169,-2,973,-17,2,-1
3149,-71,-3,987,-15,-18,-6
3150,79,23,1020,-11,-22,-10
3151,162,25,1007,-14,-7,-7
3152,119,46,991,-11,14,-1
3153,-29,29,1004,-16,26,4
3154,-142,19,990,-15,17,1
3155,-159,-1,982,-17,-2,-3
3156,-35,7,999,-13,-21,-8
3157,102,12,998,-14,-21,-9
3158,165,27,1006,-12,-3,-6
3159,94,46,1012,-11,16,0
3160,-55,29,993,-17,25,1
3161,-160,11,999,-16,15,-1
3162,-145,-3,971,-18,-7,-3
3163,-15,10,995,-13,-23,-8
3164,140,25,1009,-12,-21,-8
3165,163,29,1009,-15,1,-5
3166,74,38,1003,-14,20,2
3167,-92,23,1004,-16,28,3
3168,-171,4,973,-16,11,-2
3169,-128,-3,976,-12,-12,-5
3170,11,25,1001,-12,-25,-8
3171,154,34,1019,-13,-19,-9
3172,168,36,1007,-14,4,-4
3173,39,21,996,-15,25,3
3174,-104,13,999,-15,24,0
3175,-186,-6,979,-16,7,-2
3176,-112,5,971,-12,-16,-7
3177,55,20,1022,-12,-27,-10
3178,172,35,1008,-13,-13,-8
3179,159,39,995,-11,9,-3
3180,10,27,1000,-14,26,3
3181,-148,24,1003,-14,22,1
3182,-180,-1,965,-17,3,-2
3183,-88,0,993,-15,-19,-6
3184,96,12,1012,-13,-28,-10
3185,182,25,1006,-10,-10,-7
3186,129,47,993,-11,15,-2
3187,-26,39,1018,-15,28,2
3188,-160,15,986,-17,21,1
3189,-180,-1,974,-17,-4,-2
3190,-38,-5,992,-15,-24,-9
3191,113,13,1006,-12,-23,-9
3192,181,43,1005,-11,-4,-7
3193,95,49,1010,-12,19,0
3194,-66,32,1004,-19,26,2
3195,-166,1,985,-18,14,1
3196,-151,-7,965,-15,-8,-4
3197,-8,8,997,-13,-25,-10
3198,143,25,1018,-11,-21,-11
3199,163,45,1002,-12,1,-4
3200,72,46,1010,-15,22,-1
3201,-93,16,996,-18,27,1
3202,-180,0,972,-16,11,0
3203,-121,-13,982,-15,-14,-7
3204,21,19,1010,-12,-25,-10
3205,171,41,1008,-12,-17,-9
3206,156,38,1009,-14,8,-3
3207,23,43,995,-16,26,4
3208,-120,1,995,-19,23,-1
3209,-191,-5,973,-17,5,-3
3210,-87,-5,983,-15,-19,-7
3211,73,25,1016,-8,-25,-13
3212,175,43,1011,-14,-12,-7
3213,136,41,993,-14,12,-2
3214,-18,33,1002,-19,27,3
3215,-154,0,1002,-19,19,2
3216,-168,0,968,-14,-1,-4
3217,-48,3,1004,-14,-22,-10
3218,105,23,998,-11,-24,-10
3219,174,32,1012,-12,-4,-8
3220,103,31,1004,-15,18,-1
3221,-67,34,1000,-13,28,4
3222,-150,12,991,-18,14,-1
3223,-154,0,977,-15,-7,-5
3224,-6,1,988,-14,-23,-9
3225,124,19,1018,-14,-20,-9
3226,172,34,1005,-13,0,-7
3227,70,36,1006,-14,21,0
3228,-87,28,1001,-16,25,2
3229,-176,5,980,-17,10,-1
3230,-122,-11,974,-16,-14,-7
3231,8,11,1003,-13,-25,-7
3232,161,29,1014,-13,-19,-10
3233,162,41,1008,-12,5,-6
3234,42,32,1007,-13,25,2
3235,-116,20,988,-16,24,2
3236,-182,-3,974,-16,6,-3
3237,-104,1,991,-11,-17,-6
3238,46,25,1007,-11,-24,-8
3239,166,30,1010,-13,-13,-9
3240,161,34,1000,-13,8,-3
3241,-2,22,996,-15,27,5
3242,-136,14,1001,-13,21,1
3243,-182,4,975,-15,2,-4
3244,-71,5,985,-12,-19,-8
3245,80,23,1014,-13,-25,-8
3246,183,30,1004,-13,-8,-7
3247,116,33,1000,-12,16,1
3248,-32,32,1003,-14,26,4
3249,-159,3,999,-13,18,1
3250,-155,-2,972,-14,-4,-5
3251,-30,3,996,-10,-22,-8
3252,120,30,1006,-11,-22,-9
3253,160,40,1016,-13,-1,-5
3254,87,50,1003,-12,18,1
3255,-85,23,1001,-19,26,5
3256,-159,0,985,-14,11,-1
3257,-127,-9,977,-15,-10,-6
3258,4,8,991,-13,-23,-9
3259,140,27,1021,-12,-19,-9
3260,164,35,1007,-13,2,-4
3261,40,35,999,-12,24,2
3262,-96,30,1003,-15,22,2
3263,-174,11,975,-16,7,-1
3264,-118,7,979,-15,-15,-6
3265,39,7,1011,-15,-27,-10
3266,161,17,1012,-14,-15,-9
3267,160,23,1000,-11,8,-2
3268,20,36,999,-13,25,1
3269,-125,25,1000,-12,23,1
3270,-187,13,970,-17,4,-1
3271,-91,-2,986,-16,-18,-7
3272,68,7,1015,-12,-26,-10
3273,177,27,1009,-11,-12,-7
3274,149,47,993,-12,12,-2
3275,-10,49,1011,-15,27,2
3276,-145,16,1004,-18,21,1
3277,-186,-13,960,-16,0,-2
3278,-68,-20,996,-14,-22,-9
3279,111,11,1009,-9,-27,-11
3280,179,46,995,-7,-6,-6
3281,129,64,1012,-15,15,-1
3282,-47,39,1018,-19,28,3
3283,-172,-2,970,-19,18,1
3284,-164,-16,978,-18,-6,-5
3285,-22,-5,989,-9,-24,-10
3286,132,28,1016,-11,-22,-10
3287,181,46,1006,-12,-1,-6
3288,74,50,1010,-13,21,2
3289,-82,19,992,-18,25,3
3290,-178,-3,987,-16,12,0
3291,-119,-1,967,-13,-12,-6
3292,2,18,1005,-14,-22,-8
3293,165,35,1023,-13,-18,-11
3294,152,27,1000,-14,7,-4
3295,35,29,1004,-14,23,1
3296,-111,19,994,-15,23,1
3297,-175,9,971,-15,7,-3
3298,-96,9,988,-16,-17,-8
3299,52,18,1013,-15,-25,-9
3300,161,24,1009,-15,-12,-8
3301,146,20,990,-12,9,-4
3302,-2,37,1008,-13,25,3
3303,-133,24,992,-16,19,2
3304,-173,3,979,-15,1,-4
3305,-71,-4,991,-14,-20,-7
3306,87,13,1010,-13,-24,-9
3307,176,30,1001,-10,-8,-8
3308,119,50,1003,-12,14,0
3309,-38,32,998,-18,26,2
3310,-153,8,1002,-18,18,0
3311,-165,-12,974,-16,-4,-4
3312,-31,0,991,-11,-22,-10
3313,123,21,1009,-11,-22,-9
3314,166,51,1002,-10,-3,-4
3315,89,49,1013,-17,17,-1
3316,-77,29,1002,-16,25,3
3317,-165,-2,978,-18,11,0
3318,-133,-9,977,-17,-11,-5
3319,3,3,997,-11,-24,-10
3320,144,23,1013,-9,-18,-10
3321,163,26,1005,-12,3,-4
3322,52,52,1011,-12,23,3
3323,-97,33,987,-17,23,3
3324,-185,9,981,-18,10,-1
3325,-106,-4,978,-18,-15,-6
3326,27,4,1013,-15,-24,-10
3327,169,22,1002,-13,-16,-9
3328,151,41,1006,-11,9,-3
3329,24,41,1011,-16,24,2
3330,-135,19,981,-16,24,2
3331,-180,-12,976,-17,4,-3
3332,-71,0,999,-14,-18,-8
3333,68,19,1009,-11,-22,-9
3334,183,41,1011,-11,-9,-7
3335,125,43,996,-14,13,1
3336,-26,33,1002,-17,24,3
3337,-154,12,994,-18,16,0
3338,-161,-6,980,-15,-5,-5
3339,-37,-6,996,-13,-22,-7
3340,109,18,1002,-10,-21,-10
3341,172,40,1002,-10,-2,-6
3342,88,46,1013,-14,18,1
3343,-60,40,999,-15,26,2
3344,-162,0,989,-19,16,1
3345,-147,-1,970,-16,-8,-4
3346,-5,-5,999,-14,-25,-10
3347,136,27,1007,-11,-20,-10
3348,163,40,1004,-13,1,-4
3349,77,42,1015,-15,21,1
3350,-100,24,998,-16,27,4
3351,-171,4,972,-17,9,-1
3352,-127,-10,986,-15,-13,-6
3353,19,9,999,-12,-24,-9
3354,162,30,1008,-14,-17,-9
3355,174,48,1013,-11,7,-5
3356,30,29,1003,-16,27,4
3357,-115,22,990,-17,24,1
3358,-190,-2,976,-18,7,-2
3359,-104,-3,988,-15,-17,-7
3360,56,5,1007,-11,-26,-9
3361,183,44,1013,-9,-14,-7
3362,152,39,1000,-13,10,-2
3363,-4,39,1003,-12,28,3
3364,-142,10,993,-17,22,2
3365,-193,-1,978,-14,1,-2
3366,-54,0,989,-15,-21,-8
3367,89,7,1012,-11,-23,-10
3368,181,43,1002,-11,-8,-6
3369,116,35,1005,-15,15,-1
3370,-48,37,1001,-15,26,5
3371,-162,4,992,-19,16,2
3372,-154,-2,979,-15,-6,-5
3373,-16,-1,992,-11,-22,-10
3374,131,24,1005,-10,-21,-9
3375,159,46,1006,-9,0,-5
3376,76,45,1010,-6,18,-1
3377,-95,28,999,-15,28,6
3378,-167,0,982,-17,7,-1
3379,-117,-18,979,-13,-11,-6
3380,19,8,994,-12,-24,-8
3381,162,31,1018,-8,-18,-9
3382,146,47,1008,-13,6,-3
3383,23,41,1001,-16,25,4
3384,-112,17,995,-15,23,1
3385,-171,-3,967,-17,4,-2
3386,-85,-3,996,-13,-18,-7
3387,59,12,1004,-12,-23,-9
3388,168,33,1011,-12,-10,-8
3389,133,40,1003,-11,11,-1
3390,-14,38,1004,-13,24,2
3391,-134,20,983,-15,19,0
3392,-172,-4,980,-16,0,-2
3393,-43,-2,987,-15,-21,-8
3394,100,20,1023,-10,-21,-9
3395,169,41,1000,-10,-6,-6
3396,98,44,999,-12,16,-1
3397,-52,28,998,-18,24,2
3398,-158,9,989,-18,15,0
3399,-140,-3,978,-16,-6,-5
3400,-15,-3,1004,-14,-22,-9
3401,133,18,999,-11,-20,-9
3402,159,43,1006,-10,0,-5
3403,67,53,1007,-13,19,0
3404,-90,24,995,-19,24,3
3405,-162,2,987,-18,10,-2
3406,-127,-7,980,-15,-12,-5
3407,24,0,997,-13,-24,-11
3408,144,25,1011,-11,-16,-8
3409,153,40,997,-14,6,-3
3410,36,40,1012,-14,22,2
3411,-111,29,992,-16,23,3
3412,-170,3,981,-17,6,-1
3413,-96,-8,979,-14,-15,-8
3414,34,10,1012,-13,-22,-8
3415,163,29,1005,-13,-14,-9
3416,142,39,1007,-11,9,-4
3417,15,31,1002,-17,24,3
3418,-136,23,992,-15,21,1
3419,-164,0,968,-17,2,-3
3420,-80,2,997,-15,-18,-7
3421,72,10,1013,-13,-26,-10
3422,171,31,1005,-13,-10,-8
3423,131,31,996,-14,11,-3
3424,-20,35,1004,-11,26,3
3425,-141,15,989,-17,18,1
3426,-173,-3,976,-16,0,-4
3427,-41,8,997,-14,-22,-8
3428,94,17,1012,-12,-21,-10
3429,176,37,1001,-12,-5,-6
3430,107,36,1004,-14,17,-1
3431,-53,26,996,-16,26,2
3432,-161,8,991,-16,15,1
3433,-157,-3,980,-15,-8,-4
3434,-22,2,991,-12,-24,-9
3435,126,28,1010,-8,-21,-9
3436,164,42,1005,-13,-1,-5
3437,90,46,1011,-14,19,0
3438,-84,22,995,-18,27,4
3439,-169,3,987,-15,12,-1
3440,-123,-17,977,-14,-10,-8
3441,-4,6,993,-9,-22,-7
3442,148,35,1014,-10,-19,-10
3443,166,40,1013,-12,3,-5
3444,45,48,1000,-12,22,4
3445,-100,22,998,-17,23,1
3446,-186,-1,971,-15,8,-2
3447,-100,-10,982,-15,-15,-5
3448,40,5,1009,-12,-25,-10
3449,157,35,1005,-11,-15,-8
3450,155,46,1011,-11,8,-3
3451,9,37,1001,-15,26,2
3452,-128,14,987,-16,21,0
3453,-175,-4,978,-17,2,-2
3454,-70,-4,993,-14,-18,-7
3455,81,15,1010,-10,-23,-11
3456,171,32,1011,-10,-8,-7
3457,120,47,999,-11,14,1
3458,-40,35,993,-16,26,4
3459,-145,16,1003,-18,16,-1
3460,-159,-5,969,-18,-3,-3
3461,-31,-3,1006,-14,-22,-10
3462,124,14,1003,-14,-23,-10
3463,159,35,1000,-10,-1,-6
3464,85,48,1004,-13,19,1
3465,-74,34,1005,-15,25,2
3466,-160,6,981,-18,12,0
3467,-134,-1,984,-17,-10,-5
3468,12,3,999,-13,-25,-10
3469,136,21,999,-12,-17,-9
3470,157,37,1013,-10,3,-6
3471,46,41,1006,-14,22,2
3472,-98,20,993,-16,24,2
3473,-168,-2,978,-15,8,-2
3474,-103,-4,979,-14,-14,-6
3475,39,13,1005,-13,-24,-11
3476,152,35,1014,-11,-15,-8
3477,145,45,1005,-13,9,-2
3478,20,32,1006,-15,24,3
3479,-132,22,986,-18,21,3
3480,-161,-7,971,-19,3,-3
3481,-78,-3,999,-13,-17,-8
3482,68,17,1005,-11,-23,-9
3483,169,34,1016,-11,-9,-8
3484,127,44,997,-12,13,-3
3485,-25,31,994,-16,25,5
3486,-150,20,1001,-14,18,0
3487,-161,-7,970,-18,-2,-4
3488,-41,0,1001,-12,-19,-8
3489,104,17,1008,-13,-22,-10
3490,166,41,1006,-10,-3,-7
3491,109,38,995,-13,16,-1
3492,-70,34,1003,-15,27,5
3493,-155,10,987,-18,14,0
3494,-151,-4,982,-15,-8,-5
3495,-3,3,992,-14,-24,-9
3496,129,23,1009,-13,-19,-9
3497,162,36,1002,-12,0,-6
3498,71,43,1009,-13,19,1
3499,-86,21,996,-17,24,3
3500,-168,13,985,-17,12,0
3501,-117,-8,978,-15,-12,-6
3502,11,6,995,-13,-23,-9
3503,145,31,1021,-11,-18,-9
3504,158,44,999,-12,4,-5
3505,36,37,1014,-14,22,1
3506,-99,20,984,-17,21,1
3507,-175,1,985,-17,7,-2
3508,-97,-3,973,-16,-16,-6
3509,34,8,1012,-12,-23,-9
3510,165,32,1006,-11,-15,-8
3511,141,40,1006,-12,8,-4
3512,20,36,1004,-13,24,1
3513,-131,21,990,-14,22,3
3514,-172,-3,972,-17,2,-3
3515,-74,4,998,-12,-19,-6
3516,70,13,1006,-14,-23,-9
3517,175,34,1009,-12,-10,-9
3518,131,29,1001,-12,12,0
3519,-25,37,997,-15,28,4
3520,-146,9,998,-18,18,1
3521,-169,3,979,-14,-2,-4
3522,-40,0,991,-14,-21,-9
3523,106,30,1007,-11,-23,-9
3524,173,27,1000,-13,-5,-7
3525,98,41,1007,-12,18,-1
3526,-64,21,1005,-16,26,4
3527,-162,8,984,-16,15,0
3528,-145,-11,983,-15,-7,-6
3529,0,9,990,-12,-24,-9
3530,124,34,1009,-11,-18,-8
3531,165,46,1006,-14,0,-6
3532,66,39,1008,-16,21,2
3533,-100,24,998,-18,26,4
3534,-175,-8,979,-18,9,0
3535,-104,-10,981,-14,-13,-7
3536,21,8,994,-12,-23,-7
3537,157,37,1023,-11,-16,-10
3538,152,42,1006,-12,7,-4
3539,18,42,1001,-12,24,4
3540,-113,16,996,-19,20,1
3541,-179,-4,970,-17,6,-2
3542,-69,-6,990,-13,-19,-8
3543,57,4,1010,-12,-22,-8
3544,160,38,1010,-9,-11,-7
3545,137,42,998,-12,11,-3
3546,-18,43,1000,-13,27,4
3547,-139,19,995,-18,19,2
3548,-164,-4,976,-18,-1,-5
3549,-52,-8,992,-12,-19,-8
3550,94,15,1014,-12,-22,-10
3551,170,30,1003,-11,-6,-8
3552,106,50,1003,-10,16,-1
3553,-48,38,1000,-16,26,3
3554,-159,15,991,-15,16,1
3555,-152,-12,978,-16,-5,-4
3556,-23,0,998,-12,-23,-8
3557,124,16,1006,-12,-21,-10
3558,166,35,1001,-12,-2,-6
3559,81,50,1014,-13,19,1
3560,-79,35,997,-15,25,2
3561,-176,1,985,-17,12,1
3562,-118,-11,975,-15,-13,-6
3563,6,0,1004,-13,-22,-9
3564,151,28,1004,-10,-18,-8
3565,155,44,1013,-11,6,-5
3566,43,50,1000,-17,22,3
3567,-109,18,1002,-17,22,2
3568,-173,-4,968,-16,6,-2
3569,-97,-12,986,-15,-16,-7
3570,50,13,1007,-11,-23,-10
3571,160,26,1005,-11,-11,-7
3572,143,52,1009,-11,10,-3
3573,1,33,998,-16,25,5
3574,-129,18,988,-16,19,1
3575,-169,-4,975,-18,0,-2
3576,-65,1,995,-15,-19,-8
3577,86,8,1013,-14,-22,-10
3578,160,34,1007,-11,-7,-5
3579,126,34,992,-12,12,-2
3580,-36,40,1010,-13,28,2
3581,-150,13,982,-17,17,1
3582,-158,-4,986,-17,-4,-6
3583,-33,-1,994,-15,-21,-7
3584,102,16,1008,-11,-20,-8
3585,181,38,1001,-12,-4,-8
3586,86,39,1007,-13,18,2
3587,-63,36,998,-15,26,3
3588,-164,7,993,-17,15,1
3589,-143,0,978,-15,-8,-6
3590,-4,2,996,-15,-23,-8
3591,131,18,1006,-13,-20,-10
3592,164,39,1001,-12,1,-6
3593,69,45,1014,-15,19,0
3594,-96,22,993,-17,25,4
3595,-170,0,983,-15,9,-1
3596,-121,-5,978,-15,-11,-5
3597,17,9,999,-10,-22,-9
3598,157,30,1013,-12,-17,-9
3599,158,43,1013,-13,6,-4
3600,37,36,998,-13,24,3
3601,-124,24,994,-16,24,4
3602,-173,-7,969,-16,6,-3
3603,-105,-5,995,-14,-16,-6
3604,57,12,1000,-12,-26,-10
3605,167,30,1017,-9,-12,-9
3606,156,45,999,-11,9,-3
3607,-1,37,1002,-17,27,4
3608,-149,22,989,-17,20,1
3609,-178,-8,983,-18,0,-3
3610,-70,0,984,-13,-20,-7
3611,82,13,1015,-12,-24,-9
3612,192,35,1008,-10,-11,-9
3613,117,39,998,-12,15,0
3614,-30,42,1002,-13,25,3
3615,-166,0,993,-17,17,1
3616,-165,3,977,-12,-4,-5
3617,-34,-8,996,-14,-23,-9
3618,122,26,1009,-12,-22,-10
3619,177,33,1000,-13,-4,-6
3620,87,37,1018,-12,18,-1
3621,-74,34,994,-14,25,3
3622,-169,0,988,-15,13,-1
3623,-130,2,980,-14,-11,-5
3624,8,1,988,-13,-24,-9
3625,143,32,1017,-9,-17,-10
3626,154,45,1003,-13,3,-3
3627,47,43,1007,-15,23,0
3628,-110,14,991,-19,22,2
3629,-164,-2,979,-17,6,-3
3630,-97,-9,982,-15,-15,-7
3631,41,14,1002,-11,-22,-10
3632,155,37,1014,-11,-12,-8
3633,145,54,1004,-13,10,-3
3634,8,37,1003,-18,24,3
3635,-129,16,986,-17,20,1
3636,-170,-12,977,-18,3,-4
3637,-63,-10,995,-13,-19,-9
3638,68,16,1014,-11,-22,-9
3639,175,39,1007,-11,-9,-10
3640,118,44,1000,-14,14,-3
3641,-25,37,996,-14,27,1
3642,-149,16,998,-17,19,0
3643,-166,-7,975,-17,-2,-6
3644,-46,0,996,-14,-21,-8
3645,111,15,1008,-11,-23,-11
3646,182,35,998,-12,-4,-7
3647,102,42,1009,-12,18,-1
3648,-61,34,1001,-15,26,3
3649,-167,6,990,-17,15,1
3650,-154,-5,976,-15,-8,-3
3651,-17,8,997,-15,-24,-8
3652,145,21,1006,-13,-23,-11
3653,174,26,1006,-13,0,-5
3654,76,44,1009,-13,20,2
3655,-86,19,998,-16,27,2
3656,-189,0,979,-16,12,1
3657,-137,0,976,-13,-12,-4
3658,22,8,1002,-14,-26,-10
3659,154,33,1014,-13,-19,-8
3660,176,41,1004,-15,5,-6
3661,47,28,1013,-16,24,1
3662,-123,9,984,-16,25,4
3663,-175,-6,976,-13,7,-3
3664,-116,2,989,-12,-15,-6
3665,44,26,1002,-13,-26,-9
3666,175,43,1019,-10,-14,-9
3667,158,37,1001,-13,9,-2
3668,8,26,998,-13,27,3
3669,-141,11,991,-15,22,3
3670,-189,-8,974,-14,4,-3
3671,-79,5,983,-12,-21,-7
3672,78,29,1022,-12,-26,-10
3673,188,38,1003,-12,-10,-9
3674,134,37,1002,-16,14,-1
3675,-32,32,996,-17,27,6
3676,-163,0,995,-18,20,1
3677,-175,-6,977,-14,-4,-6
3678,-45,0,991,-12,-23,-7
3679,121,29,1008,-10,-24,-11
3680,176,40,1007,-11,-2,-7
3681,103,49,1008,-15,18,1
3682,-73,25,999,-19,28,4
3683,-176,0,991,-14,13,1
3684,-140,-13,969,-14,-10,-5
3685,0,10,996,-10,-24,-10
3686,146,33,1012,-11,-20,-9
3687,162,39,1016,-13,3,-5
3688,50,37,993,-15,22,5
3689,-103,18,1002,-15,24,2
3690,-171,1,976,-18,8,-2
3691,-108,-4,976,-13,-14,-6
3692,41,18,1010,-13,-24,-12
3693,160,39,1015,-12,-14,-9
3694,146,36,1005,-13,9,-3
3695,9,33,1000,-17,23,2
3696,-127,5,988,-16,21,0
3697,-174,-2,981,-14,0,-2
3698,-68,2,985,-13,-20,-8
3699,75,18,1013,-12,-24,-11
3700,169,34,1010,-11,-9,-7
3701,121,42,994,-12,12,0
3702,-20,34,1000,-14,25,2
3703,-146,11,1001,-17,19,1
3704,-171,-9,972,-15,-3,-2
3705,-47,0,990,-12,-22,-8
3706,111,13,1018,-11,-24,-11
3707,175,37,997,-9,-5,-5
3708,99,50,1005,-11,15,0
3709,-53,36,1000,-16,26,3
3710,-166,6,995,-20,15,3
3711,-156,-5,968,-22,-11,-4
3712,-18,1,1004,-11,-23,-9
3713,139,25,1002,-13,-21,-9
3714,163,40,1010,-9,1,-4
3715,87,41,999,-14,19,1
3716,-88,29,1013,-13,26,3
3717,-170,2,974,-15,12,-1
3718,-137,-11,976,-14,-11,-5
3719,10,11,999,-11,-25,-9
3720,148,27,1011,-12,-19,-8
3721,164,46,1010,-12,3,-4
3722,56,49,1005,-14,22,3
3723,-105,16,996,-18,25,2
3724,-185,-7,971,-14,10,0
3725,-118,-5,983,-15,-16,-5
3726,38,17,1013,-13,-26,-10
3727,165,28,1003,-13,-15,-8
3728,167,46,1010,-11,8,-4
3729,26,35,1000,-15,27,2
3730,-137,14,991,-16,25,2
3731,-183,-4,975,-18,4,-2
3732,-103,-3,984,-13,-19,-5
3733,79,17,1013,-13,-27,-11
3734,177,36,1013,-13,-12,-7
3735,148,43,990,-14,11,-2
3736,-14,33,1009,-16,28,2
3737,-142,20,995,-16,21,2
3738,-199,-8,970,-16,1,0
3739,-53,-7,995,-14,-23,-11
3740,101,20,1006,-11,-24,-10
3741,186,43,1002,-9,-7,-8
3742,119,47,1013,-13,17,-1
3743,-50,31,1003,-17,28,3
3744,-175,2,987,-15,18,2
3745,-164,-2,977,-17,-8,-4
3746,-24,-1,983,-14,-24,-8
3747,127,23,1015,-9,-22,-9
3748,187,46,1005,-12,-3,-6
3749,81,49,1014,-13,21,1
3750,-80,22,988,-19,26,3
3751,-184,-7,992,-18,13,0
3752,-135,-2,961,-14,-11,-5
3753,2,2,1004,-16,-24,-10
3754,164,26,1023,-10,-20,-13
3755,161,43,1005,-10,5,-2
3756,54,43,996,-13,23,1
3757,-122,23,1005,-15,26,3
3758,-180,3,966,-16,7,-1
3759,-101,-3,988,-16,-16,-7
3760,50,12,1007,-13,-26,-10
3761,173,33,1018,-12,-13,-9
3762,149,36,992,-10,9,-4
3763,-12,37,997,-15,26,5
3764,-132,23,1004,-15,18,2
3765,-173,-10,972,-18,1,-3
3766,-53,-1,987,-13,-20,-9
3767,94,11,1019,-13,-22,-9
3768,168,39,1003,-9,-5,-8
3769,103,41,994,-14,16,-1
3770,-48,37,1005,-14,25,2
3771,-157,4,989,-18,15,1
3772,-145,-3,981,-13,-6,-6
3773,-15,-6,995,-15,-24,-9
3774,125,24,1003,-11,-20,-10
3775,163,40,1009,-11,0,-7
3776,72,47,1008,-12,18,0
3777,-85,31,998,-15,25,3
3778,-162,2,986,-19,10,0
3779,-128,-10,971,-16,-11,-6
3780,7,7,996,-13,-24,-9
3781,146,32,1025,-12,-19,-10
3782,157,40,994,-13,4,-5
3783,45,36,1011,-13,23,3
3784,-102,22,994,-17,23,2
3785,-180,-8,971,-16,8,0
3786,-95,1,979,-12,-17,-8
3787,34,13,1014,-15,-24,-8
3788,166,38,1004,-11,-16,-9
3789,151,32,1012,-13,9,-5
3790,9,35,993,-15,25,5
3791,-132,13,994,-15,21,2
3792,-172,2,973,-15,1,-3
3793,-83,3,985,-15,-20,-7
3794,74,22,1020,-11,-25,-10
3795,172,32,1009,-13,-10,-9
3796,129,32,991,-15,13,-2
3797,-25,28,1004,-14,26,4
3798,-146,12,995,-15,18,0
3799,-165,-3,975,-14,-2,-5
3800,-45,11,996,-13,-22,-8
3801,104,25,1013,-15,-23,-8
3802,174,36,997,-13,-5,-6
3803,99,41,1007,-16,16,1
3804,-64,26,1003,-17,25,4
3805,-164,-1,989,-17,14,1
3806,-136,-9,976,-15,-7,-5
3807,-11,1,994,-12,-23,-7
3808,132,40,1010,-9,-20,-9
3809,164,44,1009,-15,1,-7
3810,67,44,1006,-15,20,1
3811,-96,26,994,-19,24,5
3812,-178,0,982,-19,10,-3
3813,-114,-16,974,-16,-13,-7
3814,20,7,1000,-12,-25,-8
3815,160,30,1017,-12,-17,-9
3816,149,41,1009,-11,6,-4
3817,31,40,996,-15,23,2
3818,-127,25,994,-17,24,3
3819,-177,0,971,-18,6,-1
3820,-79,-8,993,-17,-18,-6
3821,61,10,1009,-12,-23,-10
3822,172,32,1009,-11,-11,-7
3823,131,46,1004,-13,12,-2
3824,-17,39,992,-15,25,4
3825,-143,11,999,-18,18,2
3826,-164,-2,973,-16,-2,-3
3827,-43,-5,994,-15,-21,-8
3828,99,14,1015,-11,-21,-11
3829,167,32,1003,-11,-3,-7
3830,99,46,996,-10,18,-1
3831,-60,34,1003,-14,25,2
3832,-157,9,989,-17,13,0
3833,-147,-3,983,-16,-7,-4
3834,-7,-3,1002,-14,-23,-8
3835,123,26,998,-10,-19,-9
3836,164,30,1005,-13,0,-6
3837,71,46,1012,-12,19,0
3838,-82,27,994,-17,25,3
3839,-163,3,987,-17,12,-2
3840,-126,-12,977,-15,-11,-5
3841,11,8,997,-12,-23,-8
3842,146,32,1017,-11,-18,-9
3843,150,48,1001,-12,5,-4
3844,41,36,1008,-15,22,3
3845,-105,26,994,-16,23,2
3846,-174,-7,973,-18,7,-2
3847,-95,-4,988,-13,-15,-7
3848,41,5,1006,-13,-24,-9
3849,161,37,1005,-11,-14,-7
3850,140,46,1010,-12,9,-2
3851,7,36,1002,-17,24,3
3852,-139,14,988,-16,20,3
3853,-163,-6,973,-17,0,-5
3854,-62,-6,995,-13,-18,-8
3855,82,20,1012,-11,-22,-9
3856,170,30,1010,-12,-7,-8
3857,112,43,996,-10,14,-1
3858,-45,39,996,-14,26,3
3859,-147,6,996,-21,15,-1
3860,-161,-5,976,-16,-4,-3
3861,-19,1,1002,-11,-24,-9
3862,120,15,1012,-11,-20,-11
3863,164,39,991,-10,0,-5
3864,79,47,1013,-15,19,0
3865,-75,33,996,-18,25,3
3866,-162,2,989,-15,12,0
3867,-129,-4,980,-16,-11,-5
3868,9,1,1000,-14,-24,-11
3869,142,21,1006,-11,-18,-9
3870,149,43,1004,-13,4,-3
3871,61,43,1006,-13,22,0
3872,-108,25,1002,-16,26,3
3873,-161,0,970,-16,7,-1
3874,-114,-10,987,-15,-13,-6
3875,20,13,997,-14,-24,-7
3876,155,29,1016,-11,-17,-10
3877,166,43,1009,-11,5,-6
3878,31,38,1007,-14,24,3
3879,-114,20,985,-15,22,1
3880,-182,-5,981,-15,6,-2
3881,-105,-5,983,-13,-16,-6
3882,49,17,1008,-14,-27,-9
3883,178,34,1013,-11,-13,-8
3884,153,43,1002,-13,11,-3
3885,4,44,999,-16,27,4
3886,-151,4,1000,-16,22,1
3887,-183,-2,964,-15,1,-3
3888,-70,-10,999,-13,-21,-9
3889,86,28,1010,-11,-25,-10
3890,182,32,1007,-12,-7,-9
3891,130,45,1000,-11,15,-2
3892,-39,31,999,-15,27,5
3893,-157,11,996,-17,17,0
3894,-170,-13,979,-17,-5,-4
3895,-29,1,993,-10,-25,-8
3896,121,19,1011,-10,-22,-10
3897,169,48,994,-10,-1,-5
3898,93,46,1021,-14,17,-1
3899,-80,33,999,-17,25,4
3900,-163,-6,976,-18,12,0
3901,-130,-16,985,-17,-10,-5
3902,1,6,992,-11,-23,-9
3903,150,23,1009,-11,-19,-10
3904,161,44,1007,-13,4,-5
3905,44,45,1005,-14,22,4
3906,-95,25,998,-15,24,0
3907,-183,0,970,-17,9,1
3908,-99,-10,986,-16,-16,-6
3909,39,6,1004,-13,-25,-9
3910,162,29,1008,-10,-14,-8
3911,153,42,1010,-11,8,-4
3912,12,29,1006,-15,26,4
3913,-128,19,982,-12,22,1
3914,-181,7,981,-16,4,-2
3915,-71,3,995,-15,-18,-9
3916,67,7,1009,-14,-22,-9
3917,171,36,1008,-11,-10,-9
3918,129,33,1004,-13,13,-3
3919,-25,39,991,-15,27,4
3920,-153,10,998,-17,18,1
3921,-167,-5,978,-15,-3,-6
3922,-38,0,994,-14,-22,-9
3923,107,22,1007,-13,-23,-10
3924,171,39,1005,-11,-5,-7
3925,103,40,1003,-14,17,0
3926,-65,31,999,-17,27,4
3927,-164,6,988,-16,14,-1
3928,-140,-7,985,-17,-8,-7
3929,-20,3,995,-13,-22,-8
3930,143,23,1004,-11,-21,-11
3931,163,36,1007,-12,0,-6
3932,71,49,1012,-13,20,2
3933,-95,20,993,-18,26,4
3934,-173,2,989,-17,10,-1
3935,-120,-15,971,-15,-14,-5
3936,14,14,1003,-11,-24,-10
3937,159,31,1015,-12,-18,-9
3938,160,45,1000,-12,6,-4
3939,32,40,1013,-15,24,3
3940,-114,18,986,-17,22,2
3941,-182,-10,969,-16,7,-2
3942,-97,-6,994,-16,-19,-5
3943,50,17,1004,-11,-24,-9
3944,175,35,1011,-13,-14,-9
3945,150,40,1002,-13,10,0
3946,-4,38,1002,-13,27,3
3947,-141,9,988,-17,21,1
3948,-185,-1,977,-14,2,-3
3949,-64,4,989,-13,-21,-7
3950,87,10,1014,-14,-23,-11
3951,180,37,1011,-8,-7,-7
3952,129,40,990,-12,15,-1
3953,-44,37,1007,-15,28,3
3954,-159,9,992,-18,18,3
3955,-176,-5,975,-17,-3,-3
3956,-30,-5,1000,-13,-23,-8
3957,119,20,1000,-10,-24,-10
3958,182,45,1005,-11,-2,-6
3959,99,42,1010,-14,19,0
3960,-71,31,997,-15,28,4
3961,-174,-1,985,-17,15,0
3962,-156,-8,974,-16,-10,-4
3963,5,4,999,-12,-27,-11
3964,150,31,1007,-10,-20,-10
3965,165,43,1009,-11,2,-3
3966,61,42,1010,-14,22,2
3967,-109,19,993,-16,26,2
3968,-183,-1,976,-16,9,0
3969,-115,-5,979,-14,-15,-7
3970,37,3,1005,-11,-26,-11
3971,165,33,1011,-10,-15,-9
3972,154,47,1009,-11,7,-3
3973,17,36,1000,-15,25,3
3974,-130,22,989,-15,23,2
3975,-178,0,969,-17,3,-3
3976,-80,-6,1001,-14,-19,-9
3977,67,17,1005,-11,-24,-10
3978,178,33,1010,-12,-10,-8
3979,130,37,996,-13,14,-2
3980,-21,39,1002,-15,26,4
3981,-139,10,995,-19,18,1
3982,-185,0,976,-16,-1,-3
3983,-38,1,997,-14,-24,-10
3984,101,18,1013,-11,-23,-10
3985,174,35,996,-13,-6,-7
3986,112,45,1011,-14,15,0
3987,-59,26,1000,-17,27,3
3988,-168,10,986,-15,16,1
3989,-149,-7,988,-16,-8,-5
3990,-24,3,995,-12,-23,-9
3991,136,22,1001,-11,-22,-10
3992,173,44,1008,-11,-1,-6
3993,83,44,1014,-13,21,2
3994,-93,24,991,-18,29,4
3995,-174,4,984,-15,11,-1
3996,-138,-11,973,-15,-12,-5
3997,8,8,999,-12,-26,-9
3998,166,32,1020,-10,-19,-10
3999,167,45,1003,-12,6,-6
4000,50,39,1011,-14,23,3
4001,-113,14,998,-17,25,3
4002,-193,-6,961,-17,8,-1
4003,-109,-3,994,-15,-18,-6
4004,41,18,1006,-14,-26,-10
4005,177,41,1009,-11,-16,-9
4006,168,38,1007,-12,8,-3
4007,6,40,1007,-14,28,5
4008,-134,5,985,-18,22,3
4009,-193,-2,978,-15,3,-2
4010,-79,-4,987,-15,-21,-7
4011,85,14,1013,-10,-26,-12
4012,182,34,1010,-10,-10,-7
4013,140,48,1000,-10,14,-1
4014,-29,39,1002,-15,29,3
4015,-163,12,990,-17,20,0
4016,-174,-8,979,-16,-2,-4
4017,-45,0,996,-14,-23,-9
4018,116,19,999,-12,-24,-10
4019,183,37,1007,-12,-4,-6
4020,99,42,1010,-14,18,2
4021,-70,34,1003,-15,27,4
4022,-171,0,982,-17,14,1
4023,-154,-4,981,-15,-9,-4
4024,5,2,990,-14,-24,-10
4025,136,28,1010,-11,-18,-9
4026,169,38,1013,-11,1,-5
4027,59,47,1004,-13,23,3
4028,-102,23,995,-15,25,2
4029,-178,0,976,-17,7,-1
4030,-107,-6,979,-14,-16,-7
4031,38,11,1006,-12,-25,-10
4032,158,29,1011,-13,-16,-8
4033,153,40,1006,-12,9,-4
4034,16,27,1004,-15,24,3
4035,-131,25,984,-13,21,3
4036,-174,-4,977,-15,2,-3
4037,-80,5,988,-14,-18,-8
4038,75,17,1017,-13,-24,-10
4039,175,33,1005,-11,-9,-7
4040,130,37,997,-12,13,-2
4041,-17,46,1006,-14,27,2
4042,-154,-3,988,-19,19,2
4043,-175,1,974,-13,-1,-3
4044,-41,8,1002,-16,-23,-7
4045,107,11,1009,-12,-23,-11
4046,180,36,1002,-10,-5,-5
4047,108,44,1005,-12,16,0
4048,-60,36,1000,-15,26,3
4049,-164,1,991,-16,15,-1
4050,-160,-5,976,-16,-7,-4
4051,-13,13,998,-13,-23,-9
4052,135,24,1001,-14,-20,-10
4053,174,28,1008,-10,1,-7
4054,84,40,1015,-13,19,-1
4055,-90,21,994,-14,27,2
4056,-178,2,982,-15,13,-1
4057,-133,1,976,-15,-12,-6
4058,8,8,999,-12,-26,-10
4059,162,39,1016,-13,-20,-10
4060,164,39,1007,-16,5,-4
4061,47,37,1006,-15,24,2
4062,-116,12,992,-17,26,2
4063,-178,-5,968,-15,8,-1
4064,-111,-8,991,-13,-16,-6
4065,47,23,1003,-10,-27,-10
4066,168,33,1014,-11,-13,-8
4067,160,38,1003,-12,8,-3
4068,6,38,1005,-13,27,4
4069,-134,10,984,-17,23,2
4070,-191,-4,982,-15,4,-3
4071,-71,4,986,-12,-21,-8
4072,77,17,1011,-13,-24,-8
4073,185,40,1014,-10,-10,-9
4074,139,38,994,-14,15,0
4075,-29,32,1003,-15,28,4
4076,-161,7,994,-17,18,1
4077,-181,-3,973,-16,-2,-4
4078,-43,5,1003,-11,-23,-9
4079,117,29,1000,-10,-23,-10
4080,190,38,1006,-11,-4,-7
4081,110,47,1014,-13,19,0
4082,-71,26,994,-18,29,3
4083,-176,-5,990,-19,15,-1
4084,-157,-7,972,-14,-9,-4
4085,-6,4,996,-12,-26,-9
4086,152,31,1005,-9,-22,-11
4087,172,48,1012,-13,0,-4
4088,70,46,1005,-14,21,1
4089,-98,18,1000,-18,27,4
4090,-187,-7,974,-18,9,0
4091,-129,-9,979,-14,-15,-7
4092,35,14,1004,-12,-26,-11
4093,160,36,1014,-13,-16,-8
4094,163,43,1005,-13,7,-5
4095,30,39,1007,-17,26,3
4096,-130,13,985,-17,24,2
4097,-192,-4,974,-18,5,-1
4098,-82,-1,995,-16,-20,-9
4099,61,16,1006,-13,-25,-10
4100,190,41,1009,-12,-12,-8
4101,141,30,1005,-15,13,-1
4102,-11,33,991,-12,29,3
4103,-158,6,997,-16,21,4
4104,-177,7,975,-14,-2,-6
4105,-67,-4,993,-15,-22,-8
4106,112,28,1010,-12,-28,-11
4107,191,33,1006,-14,-5,-7
4108,116,49,1004,-13,18,0
4109,-56,19,997,-19,28,4
4110,-174,8,997,-16,18,0
4111,-167,-11,973,-15,-7,-3
4112,-25,3,990,-12,-25,-9
4113,144,26,1015,-10,-24,-10
4114,184,43,1001,-11,-1,-5
4115,91,44,1012,-14,20,2
4116,-94,25,998,-16,30,4
4117,-181,0,986,-15,11,0
4118,-151,-12,966,-16,-11,-5
4119,6,9,1004,-12,-27,-9
4120,175,18,1013,-14,-22,-12
4121,173,48,1009,-11,5,-4
4122,58,37,1004,-13,24,1
4123,-122,19,1000,-15,28,3
4124,-190,-2,964,-17,8,0
4125,-123,0,981,-15,-17,-6
4126,43,7,1011,-13,-28,-10
4127,179,43,1010,-11,-17,-9
4128,164,36,1004,-14,9,-3
4129,14,36,1006,-14,27,3
4130,-139,16,991,-17,23,3
4131,-196,-8,969,-14,3,-2
4132,-74,-1,996,-13,-21,-8
4133,72,18,1005,-12,-25,-9
4134,185,37,1010,-11,-11,-9
4135,130,38,1000,-15,13,-2
4136,-25,33,1003,-15,27,3
4137,-156,11,991,-18,18,1
4138,-179,1,975,-17,-3,-3
4139,-34,-1,999,-15,-24,-10
4140,114,20,1004,-12,-24,-10
4141,185,34,999,-10,-4,-8
4142,101,37,1015,-14,18,0
4143,-68,29,997,-14,27,2
4144,-173,4,985,-16,14,0
4145,-158,-1,978,-16,-9,-5
4146,-8,11,992,-14,-24,-9
4147,149,28,1005,-11,-22,-10
4148,175,35,1013,-13,2,-5
4149,78,40,1002,-13,22,2
4150,-100,14,1001,-17,27,3
4151,-183,-3,976,-15,9,-1
4152,-140,-7,976,-15,-13,-6
4153,27,14,1007,-11,-28,-13
4154,165,37,1011,-10,-18,-7
4155,173,46,1010,-15,5,-5
4156,47,32,1007,-16,26,2
4157,-136,27,988,-14,26,2
4158,-191,-4,971,-18,5,-2
4159,-120,-4,991,-15,-18,-5
4160,62,12,1004,-13,-30,-11
4161,192,30,1018,-11,-16,-8
4162,178,33,996,-12,10,-4
4163,5,27,1000,-13,31,6
4164,-154,20,1001,-14,25,3
4165,-213,5,965,-14,4,-2
4166,-80,7,990,-12,-23,-9
4167,88,26,1014,-15,-29,-8
4168,202,43,1006,-15,-11,-7
4169,152,28,999,-17,15,-1
4170,-35,32,1007,-16,29,5
4171,-169,-3,992,-18,21,1
4172,-194,-14,977,-12,-3,-3
4173,-48,9,990,-10,-26,-8
4174,124,30,1005,-9,-25,-10
4175,199,49,1013,-12,-4,-8
4176,114,42,1011,-15,20,2
4177,-68,35,1001,-17,30,5
4178,-192,-16,982,-19,17,1
4179,-170,-7,973,-12,-9,-5
4180,-8,0,988,-12,-28,-9
4181,152,38,1016,-10,-23,-12
4182,195,48,1018,-11,0,-4
4183,79,47,1001,-14,25,2
4184,-108,21,990,-18,28,5
4185,-195,-7,986,-17,11,0
4186,-141,-6,966,-15,-13,-5
4187,25,3,1009,-12,-28,-11
4188,181,46,1016,-11,-20,-7
4189,178,41,1005,-12,7,-5
4190,36,39,1001,-14,26,5
4191,-136,12,998,-18,25,4
4192,-202,-9,968,-17,5,-2
4193,-104,-6,985,-13,-18,-7
4194,76,17,1015,-11,-26,-11
4195,181,29,1014,-11,-12,-7
4196,156,51,993,-10,11,-2
4197,-17,40,1009,-15,28,4
4198,-153,15,993,-17,21,1
4199,-190,-9,974,-17,-1,-3
4200,-51,-5,998,-17,-23,-10
4201,111,13,1005,-12,-24,-11
4202,186,33,999,-11,-6,-6
4203,112,45,1012,-11,18,0
4204,-59,41,1001,-14,28,3
4205,-171,13,987,-18,17,0
4206,-161,-6,977,-17,-8,-6
4207,-10,0,992,-14,-24,-9
4208,133,18,1005,-12,-21,-8
4209,183,37,1014,-12,0,-6
4210,80,39,1008,-13,22,2
4211,-91,29,995,-16,29,2
4212,-188,9,982,-17,13,-2
4213,-139,1,971,-16,-12,-7
4214,7,14,1005,-15,-27,-9
4215,171,28,1016,-16,-21,-12
4216,180,31,1006,-13,6,-3
4217,52,31,1002,-14,27,3
4218,-122,8,991,-16,27,4
4219,-199,-6,973,-13,8,-1
4220,-112,0,984,-12,-16,-6
4221,47,30,1013,-10,-29,-9
4222,184,44,1010,-10,-16,-10
4223,164,43,1000,-14,9,-2
4224,12,40,998,-15,27,4
4225,-147,-1,1004,-20,21,1
4226,-191,-8,966,-15,2,-3
4227,-77,-17,994,-13,-20,-8
4228,88,27,1013,-7,-25,-9
4229,188,38,1002,-11,-9,-8
4230,144,59,1006,-10,15,-2
4231,-38,40,1001,-17,30,5
4232,-163,10,989,-19,20,1
4233,-184,-18,982,-18,-4,-4
4234,-42,-4,986,-11,-25,-9
4235,123,17,1005,-10,-24,-9
4236,188,39,1010,-7,-4,-6
4237,104,51,1011,-12,19,1
4238,-70,39,1000,-17,29,4
4239,-180,12,985,-18,15,0
4240,-151,-18,971,-20,-9,-5
4241,-9,-7,998,-12,-25,-9
4242,156,25,1014,-11,-22,-10
4243,172,45,1011,-10,2,-4
4244,67,48,1001,-12,23,2
4245,-104,31,1005,-17,26,3
4246,-182,-3,971,-18,9,0
4247,-128,-10,975,-16,-14,-7
4248,24,5,1015,-13,-27,-9
4249,176,33,1006,-11,-18,-9
4250,166,42,1006,-12,8,-4
4251,31,46,1009,-14,26,5
4252,-134,11,990,-18,26,3
4253,-193,0,969,-17,5,-1
4254,-100,-13,993,-13,-18,-6
4255,73,16,1006,-9,-28,-11
4256,179,28,1021,-11,-11,-8
4257,150,53,987,-10,12,-1
4258,-22,40,1009,-16,29,5
4259,-153,17,993,-17,19,1
4260,-179,-3,976,-16,-2,-3
4261,-45,-3,994,-15,-22,-10
4262,113,26,1011,-12,-24,-10
4263,186,20,995,-13,-5,-8
4264,93,47,1012,-11,19,1
4265,-59,28,999,-17,26,3
4266,-170,11,989,-14,16,0
4267,-147,-6,977,-15,-9,-5
4268,-6,5,996,-12,-24,-10
4269,139,24,1010,-11,-20,-9
4270,168,39,1005,-13,2,-4
4271,67,43,1014,-16,22,1
4272,-97,17,989,-16,26,3
4273,-176,3,989,-16,10,-1
4274,-111,-10,970,-16,-13,-6
4275,22,10,1004,-11,-24,-9
4276,157,38,1017,-11,-17,-8
4277,154,43,1005,-12,6,-4
4278,34,32,1007,-13,23,2
4279,-119,16,986,-17,22,4
4280,-177,-5,982,-15,6,-4
4281,-97,-5,980,-15,-16,-6
4282,48,16,1015,-12,-24,-9
4283,174,42,1011,-11,-12,-9
4284,142,41,999,-13,11,-2
4285,3,41,998,-16,26,4
4286,-154,15,1000,-18,21,2
4287,-167,-5,971,-19,-1,-4
4288,-69,-8,992,-15,-20,-7
4289,100,18,1014,-11,-27,-11
4290,182,25,1008,-10,-7,-7
4291,105,50,994,-10,17,0
4292,-47,38,1006,-16,26,4
4293,-159,8,991,-16,15,-2
4294,-160,-2,971,-16,-8,-4
4295,-14,0,1002,-14,-25,-9
4296,130,21,1005,-12,-21,-12
4297,170,31,998,-10,-1,-4
4298,77,50,1018,-12,20,2
4299,-79,23,996,-17,26,2
4300,-174,7,983,-15,13,-1
4301,-131,-3,973,-16,-12,-4
4302,10,7,1004,-14,-24,-10
4303,152,23,1006,-12,-18,-9
4304,160,40,1018,-12,5,-3
4305,45,44,996,-15,23,2
4306,-104,11,1002,-17,24,0
4307,-177,-1,968,-15,6,1
4308,-111,-5,984,-13,-15,-5
4309,50,11,1005,-11,-26,-11
4310,162,34,1014,-11,-14,-7
4311,155,45,1001,-11,9,-4
4312,4,38,1001,-13,27,3
4313,-128,18,989,-15,20,2
4314,-180,-6,974,-17,2,-1
4315,-71,-1,981,-14,-19,-8
4316,82,17,1024,-11,-23,-9
4317,175,28,1002,-10,-8,-8
4318,123,48,998,-10,14,-1
4319,-33,34,997,-16,26,4
4320,-156,18,1000,-16,18,1
4321,-167,-10,971,-17,-3,-2
4322,-37,3,994,-14,-21,-9
4323,121,22,1014,-10,-22,-10
4324,173,40,999,-10,-2,-5
4325,90,43,1005,-13,18,1
4326,-77,30,1003,-18,25,3
4327,-174,7,988,-19,12,1
4328,-133,-4,971,-16,-12,-5
4329,0,0,1003,-14,-25,-9
4330,148,22,999,-10,-20,-11
4331,162,39,1012,-11,4,-6
4332,53,49,1001,-16,23,3
4333,-104,24,1004,-17,25,3
4334,-168,0,974,-17,8,-1
4335,-120,-2,978,-15,-15,-4
4336,43,10,1002,-13,-26,-12
4337,155,31,1024,-12,-14,-9
4338,156,39,998,-10,7,-3
4339,25,37,1009,-14,26,2
4340,-125,13,986,-17,22,1
4341,-176,1,972,-16,4,-1
4342,-88,-5,985,-15,-18,-6
4343,57,26,1019,-12,-25,-10
4344,186,26,1007,-13,-12,-9
4345,129,42,997,-14,13,-2
4346,-9,30,1000,-14,26,3
4347,-139,8,1001,-15,21,0
4348,-182,-4,961,-16,1,-1
4349,-49,10,1000,-13,-22,-9
4350,105,19,1021,-14,-22,-12
4351,168,39,996,-13,-4,-5
4352,112,42,999,-13,15,-2
4353,-61,29,1005,-16,27,2
4354,-156,3,985,-17,15,0
4355,-152,-12,977,-15,-6,-3
4356,-15,2,1003,-14,-23,-10
4357,135,24,1004,-12,-20,-11
4358,166,39,1001,-12,1,-5
4359,68,49,1012,-15,21,1
4360,-91,25,998,-17,27,2
4361,-179,0,984,-17,11,0
4362,-122,-10,978,-16,-13,-6
4363,23,3,997,-12,-24,-9
4364,148,32,1018,-11,-17,-9
4365,159,48,1003,-12,5,-5
4366,38,42,1006,-15,25,2
4367,-119,19,996,-16,23,3
4368,-180,1,968,-17,6,-1
4369,-96,-14,986,-18,-18,-8
4370,34,17,1002,-12,-25,-7
4371,178,34,1022,-13,-15,-9
4372,162,37,1005,-12,11,-3
4373,5,41,996,-13,28,6
4374,-130,17,996,-18,22,0
4375,-190,-4,969,-16,4,-2
4376,-84,0,990,-15,-20,-6
4377,78,17,1018,-13,-27,-10
4378,184,34,1011,-11,-11,-7
4379,147,38,989,-14,12,-1
4380,-23,34,1006,-15,30,4
4381,-157,8,993,-14,20,1
4382,-186,-3,970,-14,-1,-2
4383,-47,1,994,-13,-23,-9
4384,109,26,1009,-13,-24,-10
4385,187,33,1007,-11,-6,-6
4386,121,50,1003,-12,18,-2
4387,-68,29,1003,-13,29,4
4388,-170,6,993,-8,18,2
4389,-161,-19,967,-15,-5,-4
4390,-25,2,999,-17,-27,-8
4391,142,37,1005,-5,-23,-11
4392,181,39,1015,-16,-1,-7
4393,84,50,1001,-18,20,4
4394,-98,21,1001,-15,29,3
4395,-180,-2,982,-20,11,-2
4396,-135,-15,970,-14,-11,-5
4397,20,13,1002,-8,-25,-12
4398,164,31,1020,-15,-18,-10
4399,161,48,1006,-9,6,-3
4400,34,43,1005,-16,24,4
4401,-120,5,989,-18,24,0
4402,-182,-1,972,-15,5,0
4403,-92,-10,987,-16,-18,-6
4404,62,17,1013,-11,-24,-11
4405,174,34,1012,-12,-13,-6
4406,138,46,999,-12,11,-3
4407,-10,34,1001,-15,27,3
4408,-142,19,994,-16,19,2
4409,-178,-10,969,-16,-1,-2
4410,-49,-2,1001,-13,-20,-8
4411,102,19,1013,-12,-23,-10
4412,169,32,1004,-10,-5,-7
4413,109,43,1003,-14,15,0
4414,-47,38,997,-15,27,2
4415,-157,11,993,-18,15,1
4416,-162,-5,979,-16,-7,-3
4417,-15,-5,997,-12,-23,-9
4418,130,21,1004,-10,-20,-8
4419,163,39,1005,-10,1,-4
4420,80,48,1015,-13,19,1
4421,-87,24,994,-17,26,4
4422,-165,5,988,-16,12,0
4423,-132,-4,977,-15,-13,-3
4424,17,2,996,-13,-24,-10
4425,151,27,1016,-11,-17,-10
4426,154,44,1008,-12,5,-4
4427,42,40,1005,-15,23,2
4428,-113,26,994,-16,23,1
4429,-169,-2,975,-16,5,-3
4430,-98,-5,978,-14,-17,-7
4431,46,6,1014,-13,-25,-10
4432,170,36,1008,-10,-13,-8
4433,136,41,1005,-14,11,-2
4434,4,37,1003,-13,25,2
4435,-140,16,984,-18,19,4
4436,-170,-2,978,-16,-1,-2
4437,-65,-3,993,-16,-21,-7
4438,85,21,1014,-12,-24,-10
4439,172,28,1012,-13,-8,-6
4440,119,46,991,-13,13,-1
4441,-35,34,1000,-14,26,2
4442,-149,13,999,-18,16,0
4443,-165,-6,970,-16,-4,-4
4444,-26,5,1003,-12,-22,-10
4445,115,12,1008,-14,-21,-9
4446,168,34,1000,-10,-2,-5
4447,93,45,1008,-14,18,1
4448,-79,29,996,-17,27,3
4449,-163,6,993,-16,12,-1
4450,-137,-1,975,-14,-10,-4
4451,5,3,1003,-13,-23,-10
4452,140,25,1007,-11,-18,-9
4453,162,42,1003,-11,2,-5
4454,55,40,1013,-14,22,1
4455,-107,22,992,-15,24,4
4456,-169,-3,977,-17,7,-1
4457,-106,-6,985,-13,-15,-6
4458,33,10,997,-13,-24,-10
4459,161,35,1015,-13,-15,-9
4460,145,38,1014,-12,8,-3
4461,14,43,996,-14,24,4
4462,-125,14,991,-18,22,0
4463,-176,-2,977,-18,4,-2
4464,-76,-6,986,-14,-18,-8
4465,58,13,1010,-12,-24,-8
4466,173,36,1015,-11,-12,-8
4467,138,42,998,-13,12,-3
4468,-7,35,1002,-14,26,4
4469,-146,16,987,-17,19,2
4470,-165,-2,983,-16,0,-4
4471,-58,-6,987,-13,-20,-8
4472,86,23,1015,-10,-23,-9
4473,183,30,1006,-11,-7,-9
4474,102,44,994,-12,15,-1
4475,-42,34,1000,-15,25,4
4476,-155,10,998,-17,16,0
4477,-163,-4,965,-15,-6,-2
4478,-14,4,1008,-13,-23,-9
4479,123,15,1002,-13,-21,-8
4480,161,42,1007,-10,-1,-5
4481,86,41,1008,-15,18,0
4482,-85,30,998,-15,27,3
4483,-164,1,986,-14,12,0
4484,-132,-1,975,-15,-10,-5
4485,16,-1,998,-13,-24,-10
4486,141,30,1012,-10,-16,-6
4487,155,44,1004,-13,3,-5
4488,45,39,1007,-13,23,1
4489,-111,24,1000,-16,23,3
4490,-168,2,970,-16,6,-1
4491,-104,-8,984,-16,-16,-6
4492,42,12,1011,-13,-26,-10
4493,172,29,1008,-12,-13,-9
4494,138,44,1009,-12,10,-1
4495,14,33,1000,-15,24,4
4496,-130,10,991,-16,22,0
4497,-180,-2,970,-14,4,-1
4498,-76,2,992,-13,-19,-6
4499,75,18,1018,-10,-24,-11
4500,181,34,1010,-10,-10,-7
4501,128,39,991,-14,14,0
4502,-18,33,1010,-14,28,1
4503,-149,7,990,-18,19,3
4504,-176,-2,976,-16,-1,-2
4505,-46,2,993,-11,-22,-10
4506,111,24,1014,-11,-23,-10
4507,182,34,997,-12,-4,-7
4508,102,50,1007,-13,17,-1
4509,-59,28,1001,-15,26,3
4510,-164,4,987,-16,15,1
4511,-158,-7,979,-12,-8,-4
4512,-14,7,993,-13,-25,-10
4513,136,22,1008,-12,-22,-11
4514,176,39,1007,-12,0,-5
4515,70,44,1007,-13,21,1
4516,-86,26,999,-16,24,2
4517,-183,-1,985,-16,11,-1
4518,-120,-9,965,-14,-13,-5
4519,11,13,1003,-12,-26,-8
4520,164,36,1014,-11,-18,-9
4521,155,44,1013,-13,6,-4
4522,35,39,995,-15,23,4
4523,-127,15,996,-17,23,2
4524,-174,-10,971,-15,5,-2
4525,-91,-2,987,-12,-17,-6
4526,66,18,1011,-13,-26,-10
4527,167,39,1018,-10,-10,-8
4528,133,42,995,-12,11,-1
4529,-12,39,1001,-16,25,3
4530,-140,5,987,-18,18,2
4531,-176,-6,974,-16,-1,-2
4532,-44,-7,993,-13,-21,-7
4533,93,24,1016,-7,-23,-9
4534,181,35,1002,-11,-8,-6
4535,112,49,998,-11,17,-1
4536,-49,34,1000,-18,28,2
4537,-158,15,994,-16,16,1
4538,-164,-12,971,-17,-5,-3
4539,-28,0,1005,-13,-24,-10
4540,135,12,1003,-14,-24,-9
4541,166,41,1003,-10,0,-4
4542,104,53,1013,-13,19,-1
4543,-86,25,1001,-17,28,5
4544,-165,9,982,-15,13,1
4545,-151,-13,971,-19,-9,-4
4546,-4,8,994,-11,-26,-11
4547,155,25,1020,-12,-22,-9
4548,159,40,997,-12,3,-4
4549,69,50,1017,-11,21,1
4550,-95,17,991,-18,25,2
4551,-183,7,975,-15,10,0
4552,-110,-16,978,-16,-15,-7
4553,18,14,1006,-12,-22,-9
4554,172,36,1008,-10,-17,-9
4555,149,43,1012,-13,8,-4
4556,18,38,1001,-15,23,2
4557,-119,16,991,-16,22,1
4558,-182,-8,970,-18,3,-1
4559,-74,-3,994,-13,-18,-8
4560,72,10,1014,-12,-23,-10
4561,170,38,1005,-11,-9,-6
4562,130,45,1005,-10,13,-2
4563,-31,34,992,-18,27,3
4564,-152,14,1003,-17,16,2
4565,-165,-7,967,-17,-4,-5
4566,-39,-5,1003,-13,-23,-7
4567,120,19,1003,-10,-24,-10
4568,167,40,1006,-10,-1,-6
4569,95,51,1006,-13,16,0
4570,-77,35,995,-18,27,5
4571,-165,5,989,-16,13,0
4572,-138,-12,983,-16,-8,-6
4573,-6,2,990,-11,-23,-10
4574,154,22,1010,-11,-19,-11
4575,155,42,1010,-12,4,-3
4576,60,46,1002,-12,22,3
4577,-101,30,997,-17,26,3
4578,-179,-1,982,-17,9,0
