sequence,AccelerometerX,AccelerometerY,AccelerometerZ,GyroscopeX,GyroscopeY,GyroscopeZ
0,-13,24,1008,-11,14,-3
1,-121,-2,991,-24,15,0
2,-147,-24,985,-22,6,-5
3,-53,-59,993,-21,-12,-9
4,66,-42,1003,-17,-23,-12
5,138,-17,1009,-5,-18,-12
6,86,11,1004,-8,6,-5
7,-41,22,1004,-4,22,-1
8,-138,-3,988,-19,20,0
9,-154,-27,983,-24,3,-3
10,-26,-53,987,-26,-21,-10
11,101,-44,1014,-11,-27,-14
12,141,-16,1004,-7,-9,-9
13,75,15,1007,-9,11,-4
14,-75,16,998,-18,27,-1
15,-159,-12,983,-22,19,1
16,-141,-37,991,-22,0,-4
17,12,-55,997,-17,-19,-12
18,125,-39,1009,-8,-21,-13
19,131,-5,1003,-6,-4,-8
20,34,18,1009,-10,16,-2
21,-110,7,987,-20,25,2
22,-163,-16,998,-21,13,0
23,-91,-35,982,-21,-9,-7
24,34,-58,1005,-15,-21,-11
25,149,-20,1000,-7,-18,-13
26,101,-4,1014,-8,2,-6
27,-3,31,997,-12,18,-1
28,-130,-8,1002,-21,24,1
29,-154,-23,972,-21,9,-3
30,-59,-47,1004,-19,-11,-8
31,82,-50,989,-11,-21,-14
32,134,-18,1023,-6,-11,-10
33,89,10,992,-6,6,-5
34,-46,22,1009,-13,21,-1
35,-143,-2,985,-22,19,1
36,-147,-33,984,-24,4,-5
37,-13,-60,994,-17,-18,-11
38,99,-35,1004,-11,-21,-12
39,144,-14,1005,-7,-8,-10
40,43,15,1008,-8,13,-3
41,-84,24,985,-18,22,2
42,-157,-11,1002,-22,16,-2
43,-112,-46,976,-24,-4,-6
44,15,-49,1011,-14,-18,-11
45,136,-43,997,-9,-20,-14
46,110,2,1009,-6,-1,-5
47,23,22,1001,-10,15,-2
48,-109,11,999,-19,24,1
49,-165,-15,982,-23,13,0
50,-87,-47,993,-21,-7,-6
51,51,-51,999,-14,-21,-12
52,139,-27,1004,-9,-17,-11
53,110,-2,1008,-6,2,-6
54,-8,18,1010,-12,21,0
55,-135,4,986,-19,24,3
56,-166,-15,990,-21,7,-2
57,-50,-54,984,-21,-15,-9
58,75,-42,1007,-13,-22,-13
59,156,-28,1006,-8,-14,-10
60,82,11,1011,-8,8,-5
61,-44,15,990,-14,22,-2
62,-151,-7,1000,-20,21,0
63,-157,-27,974,-22,3,-4
64,-23,-54,1000,-18,-18,-11
65,120,-28,1010,-8,-22,-14
66,141,-21,1002,-9,-8,-8
67,62,20,1005,-9,13,-5
68,-88,-3,996,-18,24,2
69,-168,-2,986,-18,17,0
70,-120,-46,987,-23,-3,-4
71,18,-40,999,-12,-19,-11
72,138,-32,1010,-8,-22,-12
73,120,3,1002,-7,-3,-8
74,21,13,1010,-13,17,-1
75,-123,1,989,-17,23,1
76,-160,-21,983,-22,12,-2
77,-77,-50,996,-19,-9,-8
78,58,-40,993,-12,-20,-13
79,138,-30,1007,-7,-14,-13
80,97,21,1014,-7,3,-6
81,-27,11,994,-18,20,0
82,-134,1,1002,-20,21,-1
83,-152,-40,978,-23,5,-2
84,-35,-40,994,-15,-13,-11
85,91,-51,1002,-11,-22,-13
86,138,-3,1014,-6,-10,-9
87,68,6,1004,-9,8,-4
88,-71,26,994,-15,23,0
89,-146,-21,990,-23,18,0
90,-133,-28,986,-19,1,-5
91,1,-55,999,-18,-19,-11
92,122,-42,1003,-7,-21,-15
93,119,-1,1006,-8,-5,-7
94,39,18,1004,-12,14,-3
95,-102,9,991,-16,22,0
96,-151,-17,992,-22,13,-1
97,-99,-41,986,-20,-6,-7
98,43,-54,1000,-13,-21,-14
99,128,-26,1013,-7,-17,-11
100,108,6,994,-7,0,-8
101,-11,21,1022,-11,18,-1
102,-109,0,982,-21,21,-2
103,-167,-22,988,-22,12,-2
104,-54,-50,994,-20,-12,-9
105,64,-49,1001,-11,-20,-12
106,141,-13,1000,-6,-14,-9
107,84,5,1020,-8,7,-4
108,-36,22,986,-13,21,-1
109,-137,-6,1000,-20,21,1
110,-148,-27,981,-23,4,-4
111,-24,-50,993,-16,-16,-10
112,96,-43,1005,-12,-21,-14
113,137,-17,1011,-5,-10,-11
114,60,19,1001,-7,11,-3
115,-79,16,997,-17,23,1
116,-150,-12,991,-22,16,-1
117,-126,-39,987,-21,-2,-4
118,4,-47,996,-16,-19,-11
119,130,-40,1013,-9,-20,-14
120,120,-2,1000,-6,-4,-8
121,34,14,1006,-11,15,-2
122,-110,8,994,-17,24,0
123,-154,-13,993,-22,13,-1
124,-94,-44,984,-21,-6,-6
125,39,-48,1004,-12,-19,-11
126,148,-25,1009,-8,-18,-12
127,101,8,999,-8,3,-6
128,-7,20,1011,-13,19,-2
129,-127,-6,992,-22,22,-2
130,-149,-27,982,-21,9,-1
131,-58,-56,988,-22,-12,-8
132,79,-48,1007,-10,-21,-16
133,138,-14,1008,-6,-12,-9
134,77,21,1002,-7,7,-4
135,-58,19,1002,-14,21,0
136,-134,-7,996,-22,17,-1
137,-139,-43,971,-23,3,-4
138,-6,-51,1012,-15,-18,-11
139,116,-53,995,-10,-18,-14
140,120,-3,1006,-4,-4,-8
141,40,17,1003,-9,12,-3
142,-94,25,995,-16,22,1
143,-149,-6,988,-21,13,0
144,-96,-41,986,-24,-5,-7
145,27,-60,1009,-14,-20,-13
146,134,-38,995,-7,-18,-12
147,96,-10,1007,-6,3,-9
148,-1,31,1005,-10,15,-1
149,-124,11,987,-20,21,1
150,-140,-9,994,-24,9,-3
151,-53,-51,993,-22,-11,-9
152,66,-47,1004,-14,-20,-15
153,133,-35,1000,-8,-11,-11
154,67,6,1002,-7,7,-6
155,-45,11,1005,-13,19,-1
156,-135,6,989,-19,18,0
157,-121,-26,989,-23,3,-4
158,-13,-47,989,-20,-15,-11
159,93,-47,1010,-11,-17,-12
160,120,-17,1001,-7,-7,-10
161,42,9,1004,-10,11,-4
162,-77,13,994,-15,21,0
163,-135,-12,993,-23,15,0
164,-100,-41,978,-19,-2,-7
165,14,-40,1014,-13,-16,-11
166,118,-31,1000,-10,-17,-12
167,98,-6,1000,-7,-1,-7
168,16,20,1009,-10,14,-3
169,-109,1,986,-18,21,0
170,-142,-16,988,-19,9,-2
171,-69,-47,995,-21,-9,-7
172,52,-50,1001,-10,-18,-13
173,122,-24,1003,-7,-13,-10
174,86,5,1000,-8,2,-6
175,-26,24,1011,-11,17,-1
176,-126,0,981,-22,19,0
177,-140,-17,990,-21,6,-3
178,-29,-62,1002,-19,-15,-10
179,71,-35,995,-11,-18,-12
180,132,-27,1005,-8,-10,-12
181,63,18,1011,-9,8,-5
182,-58,16,992,-19,20,0
183,-135,-1,992,-20,16,-1
184,-120,-40,988,-25,0,-5
185,0,-51,991,-17,-15,-11
186,102,-42,1010,-7,-17,-13
187,111,-15,1007,-6,-5,-10
188,41,25,998,-9,12,-4
189,-89,20,1002,-18,22,1
190,-143,-11,983,-24,13,0
191,-99,-44,990,-20,-4,-7
192,21,-63,1007,-15,-17,-11
193,114,-33,995,-8,-18,-12
194,117,-4,1004,-5,-1,-9
195,19,23,1017,-11,17,-2
196,-117,9,978,-20,24,3
197,-153,-9,998,-22,11,-3
198,-83,-55,987,-22,-6,-7
199,38,-50,996,-11,-19,-11
200,143,-29,1010,-8,-17,-12
201,100,5,1002,-7,3,-8
202,-5,14,1012,-10,20,0
203,-131,11,989,-20,24,1
204,-151,-32,981,-22,8,-4
205,-54,-48,994,-17,-12,-9
206,62,-42,996,-10,-21,-12
207,139,-13,1013,-6,-14,-13
208,92,3,1000,-10,6,-6
209,-48,23,1005,-13,23,1
210,-130,-13,983,-23,20,2
211,-152,-35,989,-22,4,-4
212,-12,-53,985,-15,-18,-11
213,87,-40,1016,-8,-20,-13
214,140,-7,999,-6,-9,-9
215,59,20,1011,-8,11,-3
216,-82,18,993,-20,22,2
217,-159,-17,990,-23,15,0
218,-102,-42,983,-21,-3,-7
219,6,-62,1009,-15,-16,-10
220,122,-24,997,-7,-19,-13
221,120,1,1011,-8,-2,-11
222,21,25,1006,-10,16,-4
223,-115,6,986,-19,22,3
224,-152,-17,998,-23,11,-5
225,-73,-62,977,-22,-8,-7
226,45,-48,1014,-10,-19,-12
227,136,-26,996,-8,-17,-12
228,97,3,1005,-4,4,-6
229,-24,29,1009,-11,19,-2
230,-135,10,988,-22,21,0
231,-142,-32,983,-24,6,-5
232,-37,-58,995,-21,-15,-9
233,75,-45,1002,-9,-21,-13
234,126,-19,1005,-7,-11,-10
235,80,8,1008,-9,7,-5
236,-59,13,993,-14,23,1
237,-144,1,996,-20,18,1
238,-125,-38,978,-22,1,-4
239,-16,-46,1001,-16,-15,-11
240,104,-40,1006,-12,-20,-10
241,124,-6,1011,-5,-6,-10
242,46,3,994,-11,12,-3
243,-90,17,1005,-15,22,-1
244,-146,-20,983,-20,14,-2
245,-102,-34,988,-19,-2,-5
246,24,-44,1003,-17,-18,-12
247,123,-25,1009,-8,-17,-14
248,109,-3,997,-10,-1,-6
249,4,17,1008,-12,16,-1
250,-121,0,996,-19,21,2
251,-144,-24,980,-22,10,-2
252,-61,-53,997,-18,-10,-8
253,56,-48,1000,-12,-21,-12
254,133,-16,1006,-6,-14,-11
255,90,10,1006,-5,6,-6
256,-35,18,1005,-15,22,1
257,-134,-1,990,-20,21,1
258,-140,-37,980,-22,5,-4
259,-32,-51,996,-16,-14,-10
260,83,-46,1004,-8,-21,-13
261,133,-8,1011,-4,-10,-10
262,69,7,1000,-8,10,-4
263,-61,16,999,-14,21,1
264,-146,-1,989,-20,18,1
265,-122,-41,985,-22,1,-7
266,-4,-50,1004,-16,-17,-10
267,102,-34,1003,-9,-19,-11
268,131,-11,1006,-6,-4,-10
269,34,6,1000,-9,12,-2
270,-87,24,1003,-17,21,1
271,-151,-27,977,-24,14,-1
272,-98,-30,995,-19,-6,-7
273,34,-51,996,-14,-19,-12
274,117,-23,1013,-9,-17,-12
275,112,1,998,-8,-2,-8
276,2,18,1009,-11,19,-2
277,-119,-5,995,-20,22,1
278,-148,-23,977,-23,9,-3
279,-56,-50,1000,-17,-11,-10
280,52,-40,998,-12,-20,-10
281,132,-12,1004,-6,-13,-12
282,95,2,1011,-8,5,-8
283,-45,14,998,-15,21,1
284,-128,-11,992,-22,19,-1
285,-142,-38,983,-22,5,-6
286,-27,-44,990,-15,-16,-8
287,89,-36,1012,-11,-20,-12
288,133,-15,1007,-8,-10,-10
289,65,18,1003,-10,10,-4
290,-82,15,1001,-16,23,0
291,-139,-11,985,-21,14,-2
292,-130,-42,981,-21,-1,-3
293,5,-48,1009,-15,-19,-12
294,113,-38,1004,-9,-20,-13
295,132,2,999,-5,-6,-8
296,36,17,1010,-11,15,-2
297,-110,9,993,-18,25,0
298,-158,-19,989,-22,12,-1
299,-99,-45,984,-21,-7,-8
300,35,-53,1007,-14,-22,-10
301,144,-27,1004,-8,-19,-12
302,115,-4,1005,-7,1,-5
303,0,27,1010,-10,20,1
304,-133,1,990,-21,25,2
305,-157,-20,978,-22,9,-2
306,-70,-42,993,-20,-13,-8
307,69,-47,1006,-12,-23,-14
308,143,-20,1005,-5,-14,-11
309,92,5,1002,-9,7,-5
310,-47,14,1011,-14,23,1
311,-137,-12,982,-18,20,0
312,-151,-29,983,-20,5,-3
313,-21,-45,994,-15,-16,-10
314,102,-28,1012,-10,-21,-13
315,130,-7,1003,-7,-8,-8
316,51,15,999,-9,11,-3
317,-85,9,1003,-17,21,1
318,-146,-17,975,-22,14,0
319,-111,-48,997,-20,-3,-6
320,20,-49,995,-16,-18,-12
321,123,-32,1007,-8,-18,-12
322,109,0,1001,-6,0,-7
323,9,23,1004,-11,16,-2
324,-115,15,993,-18,23,2
325,-149,-25,988,-26,11,-2
326,-66,-56,995,-19,-8,-8
327,55,-51,996,-12,-20,-12
328,133,-26,1012,-7,-14,-13
329,90,9,1003,-6,3,-7
330,-26,25,1002,-14,18,-1
331,-134,-1,993,-21,19,-1
332,-137,-29,981,-21,5,-3
333,-39,-47,998,-18,-12,-10
334,76,-56,997,-12,-21,-13
335,126,-13,1020,-5,-12,-10
336,78,2,991,-9,9,-5
337,-64,18,1012,-11,22,0
338,-139,-5,979,-20,17,2
339,-137,-31,988,-20,2,-5
340,-11,-48,994,-17,-18,-8
341,112,-32,1011,-9,-21,-13
342,133,-12,997,-6,-7,-9
343,49,18,1015,-11,11,-4
344,-90,10,991,-17,26,2
345,-159,-16,983,-19,17,-2
346,-118,-51,996,-21,-5,-4
347,18,-45,991,-13,-21,-12
348,132,-30,1010,-6,-20,-13
349,121,9,1007,-6,-3,-8
350,23,19,1004,-13,17,-3
351,-119,6,993,-21,24,2
352,-162,-27,985,-25,12,0
353,-86,-58,985,-19,-10,-9
354,55,-54,1001,-11,-22,-12
355,134,-14,1009,-4,-16,-11
356,115,12,1000,-7,3,-8
357,-18,16,1019,-13,21,0
358,-141,12,985,-20,20,1
359,-154,-38,975,-24,6,-5
360,-49,-55,999,-18,-15,-8
361,79,-48,997,-11,-24,-12
362,151,-17,1015,-6,-12,-12
363,82,13,1003,-8,9,-5
364,-60,28,998,-16,23,2
365,-146,-5,998,-22,19,0
366,-146,-42,970,-22,3,-4
367,-14,-59,1005,-16,-17,-12
368,112,-36,1003,-8,-21,-15
369,138,-10,998,-6,-7,-9
370,47,23,1015,-8,12,-3
371,-95,13,988,-18,23,1
372,-159,-13,997,-21,16,-2
373,-113,-44,974,-22,-5,-6
374,26,-48,1009,-13,-19,-13
375,143,-34,998,-9,-20,-13
376,106,6,1007,-6,0,-6
377,12,19,1004,-11,16,-3
378,-128,8,1001,-19,23,2
379,-151,-23,976,-24,10,-1
380,-68,-57,994,-19,-9,-10
381,56,-46,1004,-12,-21,-13
382,143,-21,1000,-6,-15,-13
383,91,3,1007,-7,4,-5
384,-42,32,1006,-14,19,1
385,-131,-2,991,-23,19,0
386,-150,-37,986,-24,5,-3
387,-27,-53,983,-17,-15,-9
388,88,-51,1016,-10,-20,-12
389,140,-8,1001,-5,-9,-10
390,66,13,1007,-7,10,-4
391,-70,25,996,-15,22,1
392,-149,-12,996,-22,16,0
393,-125,-38,968,-22,0,-6
394,-14,-50,1018,-16,-18,-10
395,133,-37,993,-9,-24,-14
396,124,-6,1012,-5,-4,-7
397,40,22,996,-10,13,-2
398,-99,14,1009,-16,23,0
399,-156,-23,975,-23,13,0
400,-102,-39,988,-20,-5,-5
401,38,-55,1002,-12,-20,-15
402,132,-27,1005,-8,-18,-12
403,105,9,999,-7,0,-8
404,-5,17,1014,-13,17,-1
405,-121,4,985,-20,20,1
406,-150,-20,981,-22,9,-3
407,-50,-55,998,-20,-11,-11
408,70,-47,997,-11,-19,-12
409,128,-19,1011,-6,-12,-10
410,75,10,1000,-7,6,-6
411,-56,21,1003,-14,21,1
412,-140,0,991,-21,18,2
413,-127,-36,975,-25,2,-4
414,-4,-53,1006,-17,-15,-11
415,99,-41,1006,-9,-19,-11
416,123,-9,1003,-5,-6,-10
417,35,14,1007,-7,11,-1
418,-96,17,989,-16,21,2
419,-138,-10,989,-21,13,0
420,-96,-46,991,-21,-4,-5
421,34,-44,1005,-15,-17,-13
422,122,-36,1004,-8,-17,-13
423,99,1,1003,-6,0,-8
424,0,16,1004,-13,15,-1
425,-112,10,991,-20,19,2
426,-141,-25,991,-22,8,-1
427,-57,-44,990,-20,-10,-8
428,57,-49,1005,-14,-19,-11
429,134,-16,1000,-6,-13,-12
430,82,6,1002,-9,7,-6
431,-35,17,1009,-15,20,1
432,-129,-3,982,-20,20,0
433,-133,-28,990,-22,3,-3
434,-25,-49,991,-18,-15,-9
435,85,-42,1006,-10,-19,-14
436,129,-18,1010,-7,-9,-10
437,56,20,1002,-8,11,-4
438,-64,14,997,-15,21,0
439,-144,-4,993,-20,16,0
440,-113,-38,976,-23,-2,-4
441,6,-57,1004,-15,-17,-12
442,112,-39,1010,-9,-18,-12
443,114,-6,994,-5,-3,-8
444,25,15,1011,-8,14,-3
445,-100,11,984,-18,21,2
446,-141,-9,993,-21,12,-2
447,-95,-47,987,-22,-6,-5
448,39,-45,1008,-12,-19,-13
449,131,-34,1001,-7,-17,-12
450,83,13,1003,-8,1,-6
451,4,14,1005,-13,16,-3
452,-128,4,990,-20,22,2
453,-133,-18,983,-24,7,-3
454,-51,-60,1003,-17,-11,-9
455,58,-43,997,-11,-19,-12
456,128,-24,999,-5,-12,-12
457,76,13,1011,-7,6,-7
458,-44,20,998,-14,18,2
459,-129,5,992,-20,18,0
460,-123,-38,984,-25,3,-2
461,-18,-38,996,-18,-14,-9
462,91,-59,1004,-13,-19,-12
463,119,-13,1011,-5,-8,-9
464,46,11,996,-10,11,-4
465,-77,17,998,-14,21,-1
466,-131,-4,990,-21,14,0
467,-111,-34,984,-21,-2,-7
468,15,-46,999,-17,-18,-12
469,111,-36,1014,-10,-18,-13
470,109,-15,986,-9,-2,-8
471,12,13,1012,-12,15,-3
472,-98,4,985,-19,20,1
473,-147,-16,991,-19,12,0
474,-72,-37,994,-20,-10,-8
475,48,-46,1002,-15,-18,-14
476,126,-28,1005,-8,-14,-11
477,87,7,1001,-8,3,-6
478,-25,6,1007,-12,17,0
479,-123,0,982,-19,18,1
480,-134,-30,989,-22,5,-3
481,-34,-45,998,-16,-14,-9
482,69,-35,1002,-12,-19,-10
483,129,-18,1002,-5,-11,-10
484,63,15,1010,-7,8,-4
485,-50,15,996,-17,19,0
486,-143,-6,994,-21,18,2
487,-117,-37,977,-23,0,-5
488,-9,-53,1005,-15,-16,-12
489,101,-38,999,-9,-19,-12
490,119,-7,1017,-5,-4,-9
491,40,16,996,-10,12,-4
492,-94,19,999,-17,22,2
493,-127,-12,984,-25,13,-1
494,-117,-44,992,-22,-3,-4
495,33,-48,1000,-17,-19,-13
496,119,-43,1008,-10,-17,-13
497,103,-3,998,-6,-1,-6
498,15,16,1003,-11,15,-2
499,-116,13,993,-18,22,0
500,-145,-17,987,-22,10,0
501,-71,-42,993,-20,-8,-10
502,53,-53,1003,-13,-20,-14
503,126,-24,1007,-6,-14,-11
504,92,2,1000,-9,4,-7
505,-26,11,1005,-11,19,0
506,-132,3,987,-21,19,2
507,-134,-21,985,-22,5,-4
508,-34,-51,996,-18,-15,-9
509,80,-42,1000,-12,-20,-12
510,126,-19,1004,-6,-10,-12
511,60,6,1008,-7,9,-3
512,-62,25,996,-15,22,0
513,-136,-14,995,-21,16,0
514,-117,-33,982,-23,0,-4
515,-3,-50,993,-16,-16,-10
516,105,-37,1014,-8,-19,-13
517,117,-8,1010,-7,-4,-7
518,29,16,994,-9,13,-3
519,-84,22,1001,-17,20,2
520,-144,-22,980,-22,13,0
521,-99,-43,991,-19,-4,-6
522,34,-55,1008,-14,-19,-12
523,121,-26,1004,-6,-16,-14
524,112,-7,995,-6,0,-6
525,-8,27,1015,-10,18,-2
526,-114,5,980,-21,20,0
527,-144,-19,997,-22,9,-2
528,-63,-54,990,-20,-11,-8
529,64,-47,1000,-11,-20,-13
530,128,-28,1006,-6,-14,-11
531,81,7,1000,-5,5,-5
532,-33,25,1012,-13,20,0
533,-140,0,979,-22,20,2
534,-133,-29,991,-22,2,-5
535,-23,-53,997,-18,-15,-10
536,84,-43,1002,-11,-19,-13
537,136,-18,1009,-6,-10,-11
538,51,4,1000,-10,9,-3
539,-75,25,1001,-13,22,0
540,-130,-13,984,-20,16,-1
541,-124,-30,991,-21,0,-4
542,21,-51,992,-15,-19,-11
543,102,-38,1014,-9,-15,-12
544,116,-3,999,-7,-4,-8
545,28,13,1010,-10,14,-3
546,-103,7,984,-19,22,2
547,-140,-13,992,-21,11,-1
548,-90,-49,991,-20,-5,-7
549,35,-44,1004,-14,-18,-11
550,132,-30,1008,-8,-17,-13
551,96,2,999,-9,0,-7
552,-3,20,1005,-12,17,0
553,-125,1,982,-20,22,1
554,-143,-22,997,-23,8,-2
555,-49,-55,986,-22,-12,-9
556,60,-42,1012,-10,-20,-12
557,134,-28,994,-9,-13,-11
558,76,14,1011,-7,7,-7
559,-43,9,999,-13,19,1
560,-137,8,992,-18,19,1
561,-127,-37,982,-23,3,-3
562,-25,-44,998,-17,-15,-10
563,90,-51,1000,-11,-20,-14
564,124,-11,1011,-6,-8,-11
565,54,12,999,-10,10,-4
566,-74,16,1001,-15,22,0
567,-140,-10,984,-22,15,1
568,-114,-28,987,-22,-2,-5
569,12,-58,997,-17,-18,-10
570,114,-38,1007,-10,-19,-13
571,112,-8,1000,-6,-4,-8
572,20,15,1006,-10,14,-4
573,-101,9,992,-18,22,2
574,-142,-13,984,-21,12,-1
575,-91,-40,999,-21,-7,-6
576,52,-50,999,-15,-20,-12
577,118,-26,1006,-5,-15,-12
578,97,2,1004,-7,2,-8
579,-11,10,1004,-11,18,-2
580,-127,4,983,-19,20,3
581,-138,-22,996,-22,7,-3
582,-47,-49,989,-17,-12,-10
583,74,-43,1005,-12,-20,-13
584,124,-20,1001,-8,-11,-11
585,69,9,1006,-8,7,-5
586,-45,18,1003,-15,21,1
587,-139,-2,989,-21,18,1
588,-124,-31,982,-22,1,-3
589,-8,-56,1001,-18,-16,-9
590,90,-44,999,-8,-19,-13
591,127,-13,1009,-5,-7,-9
592,39,13,1002,-8,11,-3
593,-80,28,994,-16,23,2
594,-133,-12,991,-23,15,-1
595,-115,-37,985,-21,-3,-5
596,27,-51,1004,-16,-19,-12
597,112,-33,1006,-8,-16,-14
598,110,-16,994,-7,-3,-7
599,10,23,1012,-8,16,-2
600,-110,11,985,-19,22,0
601,-142,-14,994,-21,11,-2
602,-79,-41,989,-20,-8,-8
603,52,-50,1005,-14,-19,-13
604,131,-31,1004,-7,-16,-11
605,86,8,1003,-7,3,-6
606,-19,10,1006,-13,17,-1
607,-132,6,988,-19,19,1
608,-136,-24,987,-23,6,-2
609,-41,-46,997,-18,-13,-9
610,75,-48,1005,-13,-20,-12
611,135,-17,997,-7,-10,-10
612,59,8,1007,-7,9,-4
613,-50,14,1004,-16,20,0
614,-140,-8,988,-20,18,1
615,-122,-35,980,-22,0,-5
616,-4,-51,1008,-14,-17,-11
617,99,-36,994,-9,-20,-13
618,122,-8,1015,-6,-5,-9
619,41,21,1005,-10,12,-4
620,-92,11,987,-18,22,1
621,-133,-14,992,-23,14,-3
622,-109,-42,991,-21,-4,-6
623,30,-52,997,-16,-20,-13
624,122,-38,1010,-8,-17,-14
625,105,1,999,-6,-1,-7
626,5,18,1003,-11,16,-2
627,-118,10,987,-17,21,0
628,-145,-21,993,-21,9,1
629,-68,-31,989,-20,-9,-8
630,56,-62,1005,-14,-19,-13
631,135,-30,1007,-7,-17,-13
632,79,0,997,-8,6,-5
633,-25,19,1009,-10,19,-3
634,-133,6,988,-18,19,1
635,-134,-23,983,-21,6,-3
636,-28,-45,1007,-19,-14,-9
637,79,-47,988,-13,-19,-12
638,119,-17,1013,-7,-10,-10
639,65,0,1003,-11,6,-4
640,-67,14,994,-15,22,1
641,-132,-7,995,-20,15,0
642,-119,-27,984,-22,1,-4
643,1,-42,994,-16,-17,-11
644,105,-37,1016,-11,-19,-12
645,114,-16,1001,-7,-5,-9
646,37,16,1000,-9,13,-2
647,-96,6,998,-17,23,2
648,-140,-11,985,-21,13,0
649,-93,-45,989,-20,-5,-6
650,34,-45,1013,-14,-18,-12
651,122,-30,996,-7,-16,-12
652,98,0,1008,-6,1,-8
653,0,16,1000,-13,15,0
654,-121,10,994,-18,21,2
655,-136,-28,985,-23,8,-2
656,-66,-44,1002,-21,-9,-7
657,72,-52,993,-14,-20,-13
658,122,-25,1010,-8,-13,-11
659,84,7,994,-7,5,-6
660,-45,21,1015,-13,20,-1
661,-128,-2,980,-23,17,-1
662,-131,-25,989,-21,6,-3
663,-17,-49,1000,-20,-14,-10
664,82,-46,998,-11,-18,-12
665,128,-13,1005,-6,-9,-9
666,49,6,1005,-10,10,-4
667,-66,18,993,-13,20,0
668,-136,-6,993,-22,16,1
669,-115,-36,983,-22,-2,-6
670,7,-42,999,-15,-18,-11
671,109,-44,1006,-11,-19,-14
672,115,-5,1007,-7,-4,-8
673,25,11,998,-11,14,-3
674,-98,15,999,-16,21,1
675,-144,-15,983,-21,12,0
676,-93,-34,997,-20,-6,-7
677,48,-53,1002,-14,-19,-12
678,122,-32,1005,-8,-15,-12
679,99,-2,1007,-8,1,-7
680,-10,20,1002,-13,18,-2
681,-125,5,988,-21,20,3
682,-140,-17,990,-20,9,-3
683,-48,-47,990,-21,-13,-8
684,69,-47,1010,-14,-21,-13
685,134,-25,995,-6,-12,-11
686,68,12,1008,-7,8,-5
687,-52,22,1009,-14,19,0
688,-123,-2,980,-20,16,0
689,-133,-36,987,-23,2,-4
690,-6,-48,1001,-15,-16,-11
691,91,-52,997,-10,-17,-13
692,111,-1,1013,-4,-6,-9
693,54,13,1003,-10,10,-5
694,-85,19,997,-15,22,1
695,-135,-10,986,-23,13,0
696,-105,-42,986,-21,-2,-7
697,17,-55,1005,-16,-18,-11
698,115,-35,1003,-8,-17,-12
699,108,-7,1003,-7,0,-7
700,14,17,1006,-9,14,-1
701,-108,16,984,-21,21,1
702,-146,-16,995,-21,11,-2
703,-69,-40,991,-20,-9,-6
704,46,-56,998,-15,-18,-13
705,129,-29,1007,-6,-15,-13
706,88,-3,998,-8,3,-6
707,-24,17,1001,-11,18,-1
708,-131,9,988,-19,19,1
709,-132,-26,996,-22,6,-4
710,-37,-48,986,-17,-12,-9
711,71,-42,1012,-10,-19,-13
712,132,-22,999,-7,-11,-12
713,60,7,1000,-9,9,-5
714,-52,20,1010,-15,20,1
715,-136,-3,983,-21,17,1
716,-123,-31,992,-22,-1,-4
717,0,-50,995,-19,-17,-10
718,93,-42,1007,-10,-19,-14
719,121,-9,1005,-7,-6,-9
720,35,12,1004,-8,12,-4
721,-85,11,991,-17,21,2
722,-136,-13,991,-21,13,-2
723,-102,-43,984,-20,-4,-7
724,27,-37,1014,-13,-20,-11
725,119,-31,994,-9,-18,-13
726,104,-6,1008,-8,-1,-7
727,21,14,1004,-11,14,-3
728,-118,-1,983,-19,24,-1
729,-141,-14,994,-18,9,-2
730,-77,-46,990,-20,-8,-8
731,36,-44,1004,-12,-18,-13
732,138,-25,997,-9,-17,-13
733,93,3,1009,-7,3,-8
734,-9,9,1002,-13,19,-1
735,-137,9,994,-20,23,2
736,-141,-35,981,-25,8,-3
737,-52,-47,1005,-17,-13,-10
738,76,-56,997,-14,-22,-13
739,128,-12,1007,-3,-12,-11
740,81,9,1004,-8,5,-6
741,-51,19,1006,-14,21,0
742,-142,2,985,-21,18,3
743,-130,-37,986,-24,2,-5
744,-14,-58,993,-17,-16,-11
745,94,-38,1007,-9,-19,-13
746,133,-16,1005,-7,-6,-10
747,40,17,1003,-7,12,-2
748,-80,22,997,-16,20,0
749,-145,-9,987,-23,14,-1
750,-114,-42,983,-23,-3,-5
751,29,-53,1009,-17,-19,-12
752,119,-38,1005,-8,-17,-13
753,109,2,989,-6,-1,-7
754,10,16,1022,-12,15,-3
755,-108,7,976,-18,21,2
756,-151,-18,998,-22,11,0
757,-67,-46,988,-20,-8,-9
758,46,-51,1007,-12,-19,-11
759,132,-22,997,-8,-16,-12
760,82,10,1005,-7,5,-7
761,-17,13,1010,-12,17,-1
762,-132,0,989,-22,20,0
763,-131,-27,976,-23,6,-4
764,-32,-57,1014,-18,-14,-10
765,69,-50,985,-12,-19,-12
766,126,-7,1013,-5,-11,-11
767,67,13,1007,-9,8,-4
768,-62,24,995,-17,22,1
769,-129,-9,989,-23,16,-1
770,-122,-38,988,-24,1,-4
771,-6,-57,993,-17,-16,-10
772,97,-37,1010,-9,-17,-12
773,121,-14,1003,-7,-6,-9
774,30,17,1003,-9,11,-2
775,-82,19,996,-17,21,0
776,-148,-8,987,-21,13,0
777,-96,-34,987,-20,-5,-7
778,22,-56,1009,-17,-17,-12
779,121,-42,999,-9,-18,-14
780,104,-6,995,-6,-1,-7
781,1,20,1019,-10,15,-1
782,-112,0,975,-18,21,0
783,-143,-7,993,-20,10,-1
784,-59,-46,997,-21,-9,-9
785,57,-50,996,-13,-18,-13
786,133,-28,1003,-9,-13,-10
787,69,6,1007,-7,7,-5
788,-28,20,1003,-15,19,1
789,-132,-5,987,-22,19,0
790,-130,-23,985,-22,3,-4
791,-22,-53,1001,-18,-14,-11
792,85,-41,999,-10,-20,-14
793,122,-19,1009,-6,-8,-10
794,54,10,1004,-9,9,-5
795,-73,12,996,-16,20,1
796,-136,-4,989,-21,14,0
797,-115,-40,984,-22,-1,-5
798,13,-46,1002,-15,-17,-12
799,101,-38,1000,-11,-18,-13
800,115,-8,1012,-7,-4,-10
801,33,9,1001,-10,13,-2
802,-103,18,993,-17,23,1
803,-134,-18,990,-23,12,-2
804,-95,-47,992,-21,-5,-6
805,20,-49,996,-15,-18,-10
806,125,-31,1009,-6,-17,-14
807,109,-5,999,-7,-1,-7
808,8,28,1008,-12,16,-2
809,-115,5,993,-20,21,1
810,-152,-22,989,-23,10,-1
811,-70,-55,991,-20,-11,-7
812,50,-50,1000,-11,-22,-11
813,136,-24,1006,-7,-17,-13
814,101,12,1001,-8,5,-6
815,-26,17,1010,-14,20,0
816,-132,14,986,-21,21,2
817,-151,-32,985,-24,6,-3
818,-40,-52,993,-20,-14,-9
819,75,-51,1001,-11,-21,-12
820,141,-15,1007,-7,-11,-10
821,70,12,1011,-9,8,-4
822,-60,18,989,-15,23,1
823,-144,-3,999,-22,18,1
824,-130,-38,972,-23,0,-4
825,-1,-46,1011,-14,-18,-12
826,117,-40,999,-12,-21,-13
827,113,-8,1005,-6,-4,-7
828,40,10,1000,-11,12,-4
829,-104,11,1004,-17,22,-1
830,-144,-12,975,-22,12,-1
831,-96,-45,1003,-20,-3,-8
832,43,-50,993,-13,-20,-12
833,128,-28,1009,-5,-15,-12
834,95,3,1001,-7,2,-7
835,-11,26,1004,-12,16,-1
836,-124,2,987,-20,21,0
837,-142,-27,985,-23,8,-2
838,-42,-43,1000,-19,-12,-9
839,70,-57,1000,-13,-19,-13
840,122,-15,1003,-6,-11,-11
841,75,4,1006,-8,7,-6
842,-46,19,1003,-11,21,0
843,-136,0,986,-22,18,3
844,-123,-30,988,-22,3,-5
845,-14,-57,996,-19,-15,-10
846,89,-44,1002,-10,-20,-12
847,119,-9,1013,-8,-8,-11
848,55,12,997,-10,9,-4
849,-83,20,997,-17,21,3
850,-127,-12,991,-22,14,-3
851,-117,-34,981,-21,-2,-4
852,13,-46,1008,-16,-18,-11
853,110,-40,1000,-11,-17,-12
854,104,-8,1003,-7,-3,-8
855,28,17,1003,-10,12,-3
856,-110,7,992,-18,22,0
857,-137,-11,991,-21,9,-1
858,-80,-49,992,-21,-5,-7
859,38,-48,1000,-13,-19,-12
860,129,-33,1007,-7,-16,-12
861,91,5,998,-7,2,-8
862,-20,18,1006,-13,17,0
863,-120,7,987,-20,19,-1
864,-143,-28,986,-24,7,-3
865,-39,-47,995,-17,-13,-10
866,70,-46,1006,-13,-19,-13
867,132,-21,997,-6,-11,-11
868,67,5,1008,-7,9,-5
869,-55,25,1003,-14,21,0
870,-137,-9,984,-22,17,1
871,-120,-32,991,-22,1,-4
872,-9,-52,989,-17,-18,-9
873,101,-40,1010,-10,-19,-12
874,117,-16,1010,-8,-7,-8
875,41,18,996,-9,12,-3
876,-87,10,998,-17,22,1
877,-134,-4,994,-22,12,-1
878,-104,-47,980,-21,-4,-5
879,31,-53,1010,-15,-20,-12
880,115,-31,1007,-7,-17,-11
881,108,-1,994,-7,-1,-7
882,7,13,1013,-11,15,-1
883,-104,4,979,-19,21,1
884,-140,-17,1004,-20,11,-2
885,-75,-45,977,-21,-7,-7
886,36,-38,1010,-11,-19,-11
887,134,-33,1000,-8,-17,-11
888,79,5,1002,-7,4,-6
889,-11,14,1004,-12,17,-2
890,-123,0,997,-21,20,0
891,-138,-22,982,-21,6,-1
892,-46,-49,993,-17,-11,-8
893,63,-39,1009,-13,-19,-11
894,131,-22,996,-6,-11,-11
895,64,7,1012,-9,8,-4
896,-53,15,998,-15,20,0
897,-125,-6,996,-20,18,-2
898,-127,-37,979,-23,2,-3
899,-9,-39,998,-15,-17,-11
900,99,-48,1009,-10,-19,-14
901,118,-12,1005,-6,-7,-8
902,40,13,1002,-10,12,-3
903,-81,15,997,-18,21,-1
904,-134,-15,985,-22,13,-1
905,-101,-32,991,-21,-4,-6
906,15,-52,1005,-16,-18,-12
907,123,-32,1000,-9,-19,-11
908,105,-5,1005,-6,-1,-7
909,8,16,1004,-11,14,-1
910,-107,7,987,-18,21,1
911,-141,-21,992,-23,10,-3
912,-71,-40,993,-21,-8,-7
913,56,-52,999,-13,-19,-12
914,126,-25,1008,-9,-14,-10
915,84,0,994,-8,2,-6
916,-33,18,1010,-11,19,0
917,-118,2,984,-20,18,1
918,-142,-26,990,-20,7,-4
919,-20,-43,991,-19,-15,-11
920,71,-43,1012,-12,-19,-12
921,130,-19,991,-7,-11,-10
922,52,10,1016,-8,10,-4
923,-57,11,985,-16,20,-1
924,-143,-13,1004,-20,17,0
925,-110,-31,973,-23,-1,-5
926,-4,-42,1007,-14,-15,-10
927,110,-31,1001,-11,-19,-14
928,110,-6,1013,-8,-4,-8
929,33,6,993,-10,13,-3
930,-97,8,1000,-17,22,1
931,-140,-25,982,-20,11,-2
932,-88,-38,990,-19,-6,-7
933,36,-52,1011,-14,-19,-12
934,123,-19,998,-7,-16,-12
935,98,-5,1006,-9,3,-7
936,-9,27,1002,-12,17,-1
937,-122,1,988,-22,20,0
938,-135,-24,993,-20,7,-3
939,-54,-47,991,-17,-10,-8
940,68,-47,1002,-12,-18,-14
941,131,-23,1010,-5,-13,-11
942,66,12,994,-7,8,-5
943,-39,16,1011,-13,20,-1
944,-135,-4,986,-21,19,1
945,-126,-24,982,-21,2,-4
946,-11,-52,1001,-18,-15,-11
947,81,-40,1003,-11,-17,-11
948,124,-13,1000,-8,-7,-8
949,44,11,1010,-9,12,-3
950,-72,12,991,-15,20,2
951,-136,-8,993,-22,15,-1
952,-116,-39,983,-22,-2,-6
953,15,-44,1001,-14,-19,-11
954,112,-44,1007,-12,-18,-13
955,106,-1,998,-5,-3,-8
956,30,13,1006,-10,14,-2
957,-109,5,989,-17,23,0
958,-138,-10,987,-21,10,-1
959,-78,-41,998,-21,-8,-9
960,33,-49,996,-14,-18,-11
961,133,-34,1006,-9,-16,-12
962,91,-3,1005,-7,3,-6
963,-10,17,999,-11,17,0
964,-122,5,990,-18,20,1
965,-143,-18,993,-19,7,-1
966,-42,-46,989,-19,-12,-9
967,58,-44,1008,-12,-17,-12
968,129,-20,1004,-7,-12,-10
969,70,4,1001,-8,8,-5
970,-38,13,1005,-12,21,-1
971,-136,-2,990,-20,19,2
972,-126,-22,981,-22,2,-3
973,-13,-55,1001,-18,-15,-10
974,88,-40,1003,-9,-20,-12
975,124,-15,1007,-6,-7,-8
976,41,14,1000,-10,13,-3
977,-76,14,997,-18,21,2
978,-134,-8,991,-21,13,-1
979,-111,-43,980,-23,-3,-6
980,20,-47,1008,-15,-18,-12
981,110,-38,1005,-10,-17,-13
982,112,-12,997,-7,-3,-8
983,10,16,1007,-8,15,-2
984,-102,13,995,-18,20,0
985,-141,-20,984,-21,11,-1
986,-76,-38,997,-19,-9,-6
987,43,-55,1004,-13,-19,-13
988,127,-32,999,-6,-15,-10
989,84,2,1012,-7,3,-5
990,-2,19,996,-12,16,-1
991,-107,0,999,-17,22,-1
992,-143,-24,984,-22,10,0
993,-75,-38,997,-16,-11,-8
994,54,-48,997,-14,-21,-12
995,137,-23,1005,-7,-13,-10
996,93,0,1004,-8,4,-4
997,-13,15,1008,-14,20,-1
998,-141,-3,990,-18,22,2
999,-160,-18,976,-21,7,-2
1000,-49,-51,995,-19,-16,-9
1001,83,-35,1004,-11,-26,-12
1002,149,-15,1012,-8,-14,-10
1003,94,4,1000,-10,8,-7
1004,-48,10,1006,-13,24,0
1005,-162,-10,988,-20,22,2
1006,-162,-37,974,-20,3,-4
1007,-22,-48,1008,-14,-19,-9
1008,116,-31,997,-9,-25,-12
1009,160,-9,1008,-7,-10,-11
1010,79,14,1014,-9,14,-4
1011,-94,12,992,-18,29,2
1012,-180,-11,987,-21,20,1
1013,-145,-46,983,-23,-3,-4
1014,17,-48,998,-14,-24,-12
1015,140,-39,1005,-10,-24,-13
1016,152,12,1013,-9,-6,-9
1017,36,12,1003,-6,20,-2
1018,-125,8,999,-20,34,4
1019,-184,-25,982,-25,14,1
1020,-104,-48,986,-17,-9,-8
1021,46,-53,999,-13,-25,-12
1022,161,-17,1012,-5,-20,-14
1023,126,9,1004,-6,1,-7
1024,-9,23,1008,-14,21,-1
1025,-139,-3,993,-21,24,2
1026,-174,-32,977,-23,9,-1
1027,-67,-59,982,-19,-13,-9
1028,90,-43,1012,-8,-24,-15
1029,155,-22,1007,-7,-13,-10
1030,79,28,1005,-5,8,-4
1031,-54,24,1001,-17,22,0
1032,-152,-3,993,-25,20,0
1033,-142,-43,974,-24,2,-4
1034,-6,-60,1009,-17,-18,-11
1035,119,-49,996,-8,-20,-14
1036,130,-5,1006,-4,-5,-9
1037,39,25,1010,-8,12,-3
1038,-108,21,992,-16,25,2
1039,-150,-9,986,-24,13,-1
1040,-91,-42,995,-22,-5,-7
1041,48,-59,994,-15,-19,-13
1042,132,-33,1009,-8,-14,-12
1043,101,-6,1004,-4,1,-9
1044,-20,25,1002,-10,18,-1
1045,-135,5,993,-19,20,0
1046,-136,-21,981,-20,6,-4
1047,-40,-47,1000,-20,-11,-9
1048,78,-43,998,-12,-18,-13
1049,131,-18,1017,-5,-9,-11
1050,65,5,994,-10,7,-5
1051,-67,18,1007,-13,21,-1
1052,-130,-16,986,-21,15,-2
1053,-128,-27,989,-20,2,-3
1054,3,-52,989,-15,-15,-11
1055,101,-33,1019,-9,-18,-12
1056,121,-11,991,-8,-5,-8
1057,30,17,1013,-10,13,-4
1058,-92,7,988,-19,21,1
1059,-140,-13,990,-21,12,-2
1060,-97,-47,985,-20,-5,-6
1061,33,-41,1013,-13,-19,-11
1062,126,-37,996,-9,-15,-11
1063,94,6,1007,-5,2,-6
1064,3,15,1002,-11,16,-2
1065,-121,7,991,-19,22,1
1066,-142,-26,993,-21,7,-2
1067,-54,-48,990,-18,-11,-9
1068,56,-51,1009,-12,-19,-11
1069,131,-20,999,-7,-13,-12
1070,75,8,1005,-5,6,-5
1071,-37,23,1002,-13,19,2
1072,-131,0,990,-22,19,1
1073,-127,-30,981,-23,4,-4
1074,-28,-50,1005,-18,-15,-9
1075,87,-47,997,-11,-21,-13
1076,121,-20,1010,-5,-10,-10
1077,54,12,1004,-7,9,-4
1078,-65,14,994,-13,21,0
1079,-143,2,993,-20,16,0
1080,-109,-32,984,-23,-3,-4
1081,2,-48,1002,-16,-17,-10
1082,110,-43,1006,-11,-19,-12
1083,113,-10,1004,-8,-4,-9
1084,22,5,1002,-10,13,-2
1085,-79,12,994,-15,21,0
1086,-136,-15,987,-19,14,-3
1087,-103,-37,991,-19,-3,-6
1088,18,-35,1007,-13,-19,-10
1089,119,-40,994,-9,-19,-11
1090,103,7,1011,-7,1,-7
1091,33,3,1001,-13,17,-4
1092,-115,8,996,-16,25,1
1093,-152,-19,984,-23,12,-1
1094,-84,-51,1000,-18,-8,-8
1095,36,-42,990,-13,-23,-10
1096,140,-11,1013,-6,-17,-12
1097,104,5,1002,-9,2,-7
1098,-13,22,1008,-14,19,-1
1099,-115,-6,985,-21,22,-1
1100,-167,-28,990,-22,9,-2
1101,-50,-51,981,-19,-14,-9
1102,74,-51,1007,-10,-21,-13
1103,135,-10,1011,-4,-14,-9
1104,86,15,1000,-8,7,-5
1105,-49,18,1005,-14,22,1
1106,-142,-7,989,-22,19,2
1107,-141,-37,982,-23,1,-5
1108,-21,-51,999,-16,-17,-11
1109,113,-42,1002,-9,-21,-13
1110,128,-11,1006,-7,-5,-9
1111,48,21,1007,-7,11,-4
1112,-87,16,993,-18,23,1
1113,-152,-13,990,-21,16,0
1114,-103,-45,988,-21,-4,-7
1115,21,-49,1003,-16,-18,-11
1116,132,-40,997,-8,-18,-12
1117,106,0,1016,-7,0,-6
1118,0,22,997,-11,15,1
1119,-119,9,996,-17,22,0
1120,-139,-28,987,-23,9,-3
1121,-67,-44,995,-16,-9,-7
1122,65,-51,999,-11,-20,-13
1123,124,-18,1004,-4,-13,-10
1124,81,9,1006,-8,4,-6
1125,-43,20,1006,-12,19,-1
1126,-126,1,986,-21,18,0
1127,-130,-30,987,-23,4,-2
1128,-22,-48,993,-17,-14,-9
1129,85,-43,1009,-10,-19,-12
1130,130,-17,1002,-5,-8,-10
1131,46,10,1010,-8,12,-3
1132,-74,17,995,-15,22,1
1133,-138,-9,987,-21,17,-3
1134,-106,-38,990,-22,-1,-5
1135,9,-51,1002,-16,-17,-11
1136,118,-35,1001,-10,-18,-14
1137,106,-5,1005,-7,-2,-6
1138,14,14,999,-10,15,-1
1139,-108,6,992,-17,22,0
1140,-140,-15,998,-21,10,-2
1141,-73,-46,984,-22,-9,-7
1142,39,-43,1007,-13,-18,-11
1143,136,-33,1007,-10,-16,-12
1144,78,0,1001,-7,3,-6
1145,-15,19,998,-11,17,-1
1146,-126,4,999,-19,21,1
1147,-138,-21,981,-22,5,-1
1148,-37,-45,997,-18,-13,-9
1149,71,-50,1002,-14,-20,-13
1150,122,-17,1006,-6,-12,-10
1151,74,3,1004,-9,6,-4
1152,-55,11,999,-14,21,0
1153,-135,-4,992,-18,15,0
1154,-120,-32,985,-22,1,-4
1155,-5,-38,994,-16,-17,-9
1156,97,-38,1011,-11,-18,-11
1157,117,-14,1008,-7,-6,-10
1158,37,8,995,-9,12,-3
1159,-87,10,1002,-15,21,1
1160,-133,-15,979,-21,12,0
1161,-102,-35,995,-19,-3,-5
1162,27,-40,1005,-16,-18,-11
1163,119,-31,1005,-10,-16,-12
1164,106,-3,999,-8,0,-7
1165,2,19,1007,-12,16,-2
1166,-112,2,985,-19,20,0
1167,-138,-22,996,-22,9,-2
1168,-73,-50,988,-21,-9,-8
1169,61,-43,1004,-11,-21,-12
1170,124,-31,1009,-6,-14,-11
1171,82,21,990,-7,4,-5
1172,-27,7,1019,-12,20,-2
1173,-124,6,977,-18,19,0
1174,-133,-28,992,-22,5,-2
1175,-26,-48,994,-18,-14,-10
1176,71,-52,1005,-10,-19,-11
1177,134,-14,1000,-6,-10,-12
1178,57,3,1008,-8,10,-3
1179,-57,15,993,-14,21,0
1180,-134,-8,996,-19,19,1
1181,-116,-31,980,-20,0,-5
1182,-4,-43,998,-16,-15,-12
1183,107,-38,1006,-10,-18,-14
1184,110,-11,1009,-6,-2,-8
1185,36,9,994,-9,13,-3
1186,-99,13,1003,-16,24,1
1187,-134,-8,975,-22,12,-2
1188,-102,-42,999,-21,-4,-6
1189,34,-48,1000,-14,-20,-13
1190,113,-28,1006,-9,-15,-12
1191,106,-2,1003,-8,1,-9
1192,2,13,1000,-12,16,-1
1193,-118,6,991,-18,22,0
1194,-134,-22,991,-22,9,-3
1195,-68,-40,991,-20,-9,-9
1196,59,-41,1002,-13,-18,-13
1197,125,-23,1013,-10,-13,-12
1198,77,5,992,-8,5,-5
1199,-35,10,1016,-14,19,-2
1200,-125,-1,984,-21,19,-1
1201,-128,-36,982,-22,5,-4
1202,-29,-47,1000,-18,-14,-10
1203,71,-42,996,-11,-21,-10
1204,118,-9,1017,-7,-9,-10
1205,68,4,992,-12,8,-4
1206,-45,17,1005,-15,22,-1
1207,-126,-12,991,-23,18,0
1208,-135,-33,972,-20,3,-4
1209,-11,-52,1009,-17,-16,-12
1210,84,-36,1008,-9,-19,-11
1211,128,-8,994,-6,-8,-9
1212,50,12,1016,-10,11,-4
1213,-79,9,990,-18,21,3
1214,-150,-13,989,-21,14,-1
1215,-99,-46,988,-23,-4,-7
1216,13,-45,1006,-13,-18,-11
1217,127,-23,997,-10,-19,-12
1218,99,0,1008,-8,0,-7
1219,8,14,1000,-12,15,-2
1220,-124,7,993,-18,21,3
1221,-137,-19,983,-22,7,-5
1222,-65,-54,998,-21,-9,-6
1223,60,-44,999,-12,-21,-12
1224,128,-22,1003,-7,-13,-11
1225,86,10,1009,-7,6,-5
1226,-44,19,1000,-16,19,1
1227,-129,0,991,-22,19,-1
1228,-135,-34,984,-23,4,-3
1229,-20,-47,988,-19,-14,-9
1230,90,-45,1012,-11,-19,-13
1231,130,-14,1004,-8,-9,-8
1232,52,10,1000,-10,11,-3
1233,-74,20,997,-16,22,1
1234,-131,-11,992,-24,15,-2
1235,-119,-47,977,-23,1,-3
1236,10,-46,1015,-14,-18,-11
1237,114,-41,989,-10,-18,-13
1238,118,0,1018,-6,-4,-9
1239,27,12,993,-12,13,-2
1240,-114,20,993,-19,23,0
1241,-136,-22,999,-23,12,-3
1242,-87,-46,983,-21,-5,-7
1243,42,-54,1002,-14,-19,-12
1244,133,-30,1006,-4,-16,-13
1245,88,9,1003,-7,3,-7
1246,-14,24,1001,-11,18,0
1247,-129,4,994,-21,21,-1
1248,-135,-23,986,-23,6,-3
1249,-48,-50,991,-18,-12,-8
1250,62,-45,1005,-12,-20,-13
1251,129,-26,1008,-7,-13,-12
1252,74,7,1000,-7,7,-5
1253,-44,18,1002,-14,21,0
1254,-129,0,996,-20,18,-1
1255,-132,-30,979,-21,2,-4
1256,-25,-41,989,-18,-15,-10
1257,86,-43,1020,-12,-22,-13
1258,134,-19,995,-7,-9,-9
1259,57,2,1011,-9,12,-4
1260,-70,12,994,-16,22,0
1261,-150,-11,992,-18,17,0
1262,-118,-36,978,-20,-1,-6
1263,4,-42,1013,-15,-19,-11
1264,115,-26,999,-10,-20,-12
1265,128,-5,1006,-10,-4,-8
1266,24,7,1002,-12,15,-3
1267,-104,8,992,-17,24,2
1268,-148,-27,993,-20,13,-4
1269,-90,-41,982,-18,-7,-6
1270,44,-40,1014,-13,-20,-11
1271,127,-23,994,-8,-15,-12
1272,97,13,1013,-7,3,-6
1273,-8,15,1001,-14,18,-1
1274,-132,0,991,-21,22,2
1275,-139,-37,984,-23,7,-3
1276,-45,-51,995,-18,-11,-9
1277,70,-53,999,-10,-20,-12
1278,132,-13,1008,-3,-10,-10
1279,70,8,1006,-9,8,-4
1280,-55,25,995,-13,21,1
1281,-136,-8,997,-21,17,0
1282,-127,-38,978,-22,1,-5
1283,-11,-56,999,-17,-15,-9
1284,101,-38,1006,-10,-20,-12
1285,114,-8,1008,-6,-5,-9
1286,47,17,998,-9,10,-4
1287,-85,12,1001,-17,21,0
1288,-144,-11,988,-21,13,-1
1289,-103,-42,987,-21,-4,-6
1290,6,-53,1001,-15,-18,-11
1291,124,-33,1002,-8,-20,-11
1292,114,0,1003,-7,-3,-9
1293,27,16,1004,-11,14,-2
1294,-109,14,999,-17,24,0
1295,-155,-28,983,-23,12,-2
1296,-91,-44,990,-18,-7,-6
1297,39,-48,1000,-12,-22,-11
1298,136,-26,1001,-7,-18,-11
1299,111,10,1006,-8,1,-8
1300,-5,27,1012,-13,20,-2
1301,-123,0,990,-22,24,0
1302,-164,-36,982,-22,10,-1
1303,-69,-51,987,-18,-12,-8
1304,68,-48,1004,-11,-24,-13
1305,148,-15,1008,-5,-16,-10
1306,97,17,1009,-8,6,-6
1307,-32,21,998,-16,22,-2
1308,-143,-7,998,-22,21,0
1309,-160,-33,970,-24,4,-3
1310,-37,-58,999,-18,-17,-10
1311,106,-43,1008,-10,-23,-13
1312,146,-11,997,-4,-10,-9
1313,75,20,1014,-7,10,-5
1314,-78,18,1001,-17,25,1
1315,-162,-9,981,-22,19,0
1316,-134,-48,990,-22,-2,-5
1317,3,-53,1000,-14,-20,-10
1318,123,-38,997,-6,-22,-13
1319,139,5,1012,-6,-5,-9
1320,34,15,1013,-11,16,-2
1321,-101,14,983,-19,26,0
1322,-167,-24,997,-23,14,-2
1323,-102,-55,978,-19,-7,-6
1324,25,-50,1006,-11,-21,-11
1325,150,-25,993,-6,-21,-12
1326,122,15,1020,-5,1,-7
1327,5,21,1003,-14,18,-1
1328,-138,8,997,-19,26,1
1329,-164,-36,978,-23,9,-1
1330,-77,-58,990,-19,-12,-8
1331,70,-46,995,-10,-25,-13
1332,155,-17,1019,-5,-16,-11
1333,109,18,1002,-8,5,-6
1334,-40,28,1003,-13,24,2
1335,-150,3,994,-22,23,1
1336,-165,-44,972,-24,5,-2
1337,-39,-60,997,-18,-17,-10
1338,107,-50,1008,-10,-25,-13
1339,158,-14,998,-3,-9,-10
1340,74,24,1020,-7,11,-4
1341,-80,22,991,-15,25,1
1342,-167,0,995,-21,20,1
1343,-134,-43,980,-24,0,-4
1344,1,-52,994,-17,-20,-10
1345,135,-44,1010,-10,-25,-13
1346,133,-7,998,-5,-4,-6
1347,45,21,1010,-8,16,-2
1348,-112,7,1001,-18,25,1
1349,-167,-16,975,-21,15,1
1350,-102,-52,993,-19,-5,-6
1351,39,-46,993,-15,-22,-11
1352,142,-23,1014,-2,-20,-13
1353,118,8,1003,-6,0,-7
1354,-26,22,1006,-13,21,0
1355,-115,9,996,-21,20,-1
1356,-163,-46,982,-24,10,-2
1357,-47,-51,976,-16,-12,-9
1358,76,-52,1022,-10,-21,-13
1359,137,-15,1001,-1,-13,-11
1360,74,15,1001,-6,8,-4
1361,-61,29,1006,-13,19,0
1362,-131,-6,991,-21,17,0
1363,-134,-40,977,-23,2,-3
1364,-14,-49,1004,-18,-17,-9
1365,110,-49,1002,-9,-21,-13
1366,119,-11,1000,-6,-7,-8
1367,52,15,1010,-8,10,-4
1368,-84,17,996,-16,23,-1
1369,-151,-13,990,-21,16,0
1370,-115,-37,986,-21,-3,-6
1371,19,-48,995,-14,-20,-12
1372,126,-28,1012,-9,-19,-10
1373,119,2,997,-8,-1,-9
1374,15,12,1016,-12,16,-2
1375,-108,6,991,-20,22,-1
1376,-162,-29,984,-21,14,-2
1377,-87,-44,987,-19,-9,-9
1378,45,-48,1003,-13,-21,-11
1379,137,-21,1004,-7,-17,-11
1380,119,11,1009,-9,2,-5
1381,-15,16,1002,-15,21,-1
1382,-137,-3,997,-19,23,1
1383,-165,-34,970,-23,7,-2
1384,-64,-50,996,-18,-14,-10
1385,83,-41,1003,-10,-23,-12
1386,145,-10,1009,-6,-14,-11
1387,102,12,1007,-9,7,-6
1388,-51,18,1005,-17,25,1
1389,-152,-10,984,-22,21,1
1390,-153,-43,983,-20,3,-3
1391,-32,-55,1000,-16,-17,-9
1392,112,-38,1001,-7,-24,-13
1393,149,-4,1007,-4,-9,-9
1394,70,27,1014,-10,13,-5
1395,-91,11,991,-17,25,0
1396,-169,-14,996,-22,18,1
1397,-123,-54,977,-23,-3,-5
1398,8,-56,999,-13,-21,-11
1399,138,-33,1007,-6,-22,-12
1400,134,10,1003,-4,-4,-8
1401,27,25,1012,-9,17,-2
1402,-115,7,998,-20,24,0
1403,-167,-24,979,-23,12,-1
1404,-86,-54,984,-20,-10,-6
1405,38,-51,1006,-12,-23,-12
1406,144,-20,1002,-5,-18,-11
1407,120,9,1010,-7,1,-6
1408,-14,21,1004,-14,20,-1
1409,-131,-3,996,-21,23,1
1410,-170,-28,976,-22,9,-2
1411,-69,-52,983,-17,-12,-9
1412,84,-48,1011,-11,-24,-14
1413,149,-8,1006,-6,-15,-11
1414,101,20,1005,-8,8,-5
1415,-53,19,1007,-17,23,-1
1416,-150,-6,986,-22,22,0
1417,-148,-48,982,-23,4,-4
1418,-30,-55,995,-16,-16,-9
1419,112,-41,1003,-7,-25,-13
1420,147,-3,1006,-5,-9,-10
1421,59,17,1011,-10,12,-3
1422,-82,26,996,-16,25,0
1423,-165,-19,994,-24,18,0
1424,-118,-50,980,-24,-3,-7
1425,6,-57,1001,-15,-19,-10
1426,137,-33,1003,-8,-21,-14
1427,127,-4,1009,-4,-3,-9
1428,15,31,1007,-10,16,-2
1429,-108,10,1001,-19,23,-3
1430,-163,-25,977,-23,13,0
1431,-89,-52,986,-22,-8,-6
1432,58,-56,1001,-12,-20,-15
1433,131,-21,1013,-5,-15,-10
1434,113,15,992,-7,1,-7
1435,-34,24,1014,-13,22,0
1436,-127,-3,994,-22,20,0
1437,-149,-34,971,-23,9,-3
1438,-31,-53,997,-15,-13,-11
1439,86,-37,1015,-12,-20,-13
1440,131,-14,999,-8,-9,-10
1441,57,12,1006,-9,9,-4
1442,-77,15,996,-17,22,0
1443,-147,-5,989,-19,16,-1
1444,-106,-44,981,-22,-2,-7
1445,21,-47,1006,-15,-17,-12
1446,113,-38,1005,-9,-15,-11
1447,108,-3,1000,-7,-1,-8
1448,7,16,1005,-11,16,-3
1449,-108,10,992,-17,21,0
1450,-144,-19,987,-22,10,-2
1451,-68,-43,996,-21,-9,-7
1452,56,-49,1000,-12,-19,-13
1453,121,-29,1000,-8,-12,-10
1454,87,5,1008,-7,3,-7
1455,-29,12,1003,-12,19,-1
1456,-130,3,988,-19,19,0
1457,-131,-28,982,-20,5,-5
1458,-30,-39,1000,-17,-13,-9
1459,76,-39,999,-13,-18,-11
1460,117,-15,1012,-8,-8,-10
1461,65,1,999,-10,7,-4
1462,-65,11,995,-15,21,1
1463,-136,-15,993,-20,17,0
1464,-111,-24,981,-18,1,-7
1465,4,-48,1004,-16,-16,-11
1466,93,-32,1007,-11,-18,-11
1467,121,-15,1000,-7,-6,-9
1468,22,10,1009,-8,11,-2
1469,-91,21,988,-17,19,1
1470,-137,-20,992,-21,12,-3
1471,-94,-38,994,-19,-6,-5
1472,36,-45,998,-15,-19,-12
1473,113,-33,1011,-8,-15,-11
1474,101,0,995,-8,0,-6
1475,-6,16,1008,-12,16,-1
1476,-107,4,983,-21,19,-1
1477,-138,-21,996,-22,9,-3
1478,-59,-45,991,-20,-10,-7
1479,42,-47,1000,-15,-18,-11
1480,127,-20,1004,-8,-16,-12
1481,80,-1,1003,-8,5,-5
1482,-17,18,1004,-12,18,-2
1483,-114,-3,992,-20,20,-1
1484,-144,-29,983,-21,7,-3
1485,-48,-47,999,-18,-13,-8
1486,70,-43,990,-9,-20,-13
1487,129,-18,1021,-7,-12,-10
1488,79,9,991,-10,7,-5
1489,-43,22,1005,-15,21,-2
1490,-128,-11,993,-22,19,0
1491,-145,-23,981,-21,6,-4
1492,-17,-51,993,-17,-16,-11
1493,90,-44,1009,-10,-19,-12
1494,132,-17,999,-8,-8,-11
1495,49,8,1009,-9,12,-4
1496,-81,19,988,-17,22,2
1497,-141,-5,996,-20,16,-1
1498,-104,-37,986,-23,-3,-6
1499,13,-46,1000,-17,-17,-11
1500,122,-28,1002,-10,-18,-13
1501,101,-18,1010,-10,0,-8
1502,4,18,996,-11,15,-1
1503,-107,2,993,-18,20,-1
1504,-136,-19,991,-20,10,-3
1505,-63,-45,991,-20,-8,-7
1506,58,-46,1000,-11,-17,-14
1507,116,-25,1006,-7,-12,-10
1508,82,7,1000,-7,5,-6
1509,-37,11,1007,-13,19,-1
1510,-123,6,982,-20,18,-1
1511,-130,-35,991,-21,4,-4
1512,-21,-42,990,-17,-15,-10
1513,76,-50,1007,-11,-18,-13
1514,121,-9,1004,-5,-9,-10
1515,56,8,1003,-8,10,-6
1516,-69,19,993,-15,20,0
1517,-128,-6,998,-23,15,0
1518,-110,-38,976,-23,1,-7
1519,0,-42,1005,-16,-18,-10
1520,108,-39,1009,-10,-17,-14
1521,104,-9,999,-6,-3,-9
1522,30,16,1003,-10,13,-3
1523,-103,8,999,-18,21,-1
1524,-135,-14,980,-20,10,-1
1525,-79,-40,999,-21,-7,-9
1526,25,-50,1004,-16,-18,-13
1527,120,-28,1001,-7,-17,-12
1528,89,-2,1005,-7,2,-8
1529,-3,16,1001,-12,16,-2
1530,-112,4,988,-20,21,1
1531,-134,-22,992,-21,8,-3
1532,-61,-45,992,-18,-9,-8
1533,42,-46,1003,-13,-20,-10
1534,124,-20,995,-8,-14,-11
1535,95,5,1013,-9,3,-7
1536,-16,12,1004,-14,19,-1
1537,-124,5,991,-19,21,1
1538,-147,-33,983,-21,6,-3
1539,-51,-45,991,-19,-14,-8
1540,68,-47,1003,-12,-22,-12
1541,136,-12,1006,-6,-12,-11
1542,98,9,1014,-10,7,-6
1543,-53,15,994,-15,24,1
1544,-143,-9,998,-21,20,-1
1545,-148,-33,976,-21,3,-5
1546,-27,-53,997,-16,-18,-10
1547,105,-37,1006,-9,-23,-13
1548,144,-15,1004,-7,-9,-10
1549,69,19,1006,-8,11,-4
1550,-80,20,999,-19,26,1
1551,-163,-14,990,-22,17,0
1552,-134,-46,980,-22,-2,-5
1553,6,-58,1000,-15,-20,-10
1554,131,-30,1009,-7,-22,-12
1555,139,0,1007,-6,-4,-9
1556,34,19,1005,-11,16,-2
1557,-109,14,995,-16,25,1
1558,-167,-23,986,-24,15,-2
1559,-99,-52,985,-19,-8,-7
1560,36,-56,1002,-14,-22,-11
1561,142,-19,1003,-5,-20,-12
1562,119,7,1005,-6,0,-8
1563,-7,24,1012,-11,19,1
1564,-135,7,986,-21,22,0
1565,-153,-26,983,-23,9,-4
1566,-55,-56,992,-22,-12,-7
1567,70,-44,1002,-10,-23,-12
1568,135,-24,1004,-7,-14,-11
1569,79,15,1013,-8,6,-6
1570,-52,22,996,-14,21,0
1571,-146,-3,993,-22,18,0
1572,-122,-35,980,-21,1,-6
1573,0,-53,1006,-18,-15,-11
1574,100,-44,996,-11,-18,-12
1575,120,-8,1011,-4,-7,-12
1576,34,14,1000,-10,12,-4
1577,-96,20,993,-18,23,0
1578,-134,-12,993,-23,12,-3
1579,-91,-53,990,-23,-4,-6
1580,28,-46,1003,-14,-18,-11
1581,120,-35,1000,-8,-17,-14
1582,99,3,1009,-5,0,-8
1583,7,24,999,-12,15,-2
1584,-110,7,997,-20,21,-2
1585,-144,-27,981,-23,9,0
1586,-78,-49,996,-20,-8,-7
1587,48,-54,1000,-12,-20,-11
1588,135,-24,997,-5,-15,-11
1589,104,6,1014,-7,4,-8
1590,-23,22,1006,-13,21,-1
1591,-122,2,992,-21,21,0
1592,-158,-31,980,-22,8,-2
1593,-55,-48,991,-20,-15,-8
1594,74,-47,1003,-10,-23,-14
1595,143,-19,1010,-5,-13,-11
1596,94,9,1002,-8,8,-5
1597,-42,15,1010,-14,24,-1
1598,-144,-1,983,-20,23,2
1599,-155,-31,979,-22,5,-4
1600,-28,-50,998,-17,-17,-11
1601,100,-40,1004,-13,-23,-13
1602,146,-16,1004,-8,-10,-10
1603,69,11,1007,-9,11,-5
1604,-73,12,1003,-15,24,2
1605,-159,-4,978,-21,19,1
1606,-130,-44,993,-22,-1,-5
1607,1,-46,989,-13,-18,-11
1608,119,-30,1008,-9,-20,-12
1609,132,-3,1005,-8,-6,-9
1610,30,20,1007,-11,15,-2
1611,-101,8,991,-17,23,-1
1612,-169,-17,988,-24,14,0
1613,-75,-51,988,-21,-8,-10
1614,34,-49,1004,-12,-18,-12
1615,132,-25,997,-6,-17,-11
1616,100,8,1013,-6,2,-8
1617,-12,19,1005,-14,17,1
1618,-130,10,991,-20,21,1
1619,-136,-29,977,-24,7,-4
1620,-43,-54,1004,-18,-11,-8
1621,70,-49,987,-11,-19,-11
1622,121,-15,1018,-5,-11,-11
1623,77,7,1003,-9,7,-7
1624,-59,20,994,-13,21,1
1625,-134,-4,997,-21,17,-1
1626,-128,-34,979,-23,3,-5
1627,-10,-52,1002,-17,-15,-10
1628,89,-43,1000,-10,-18,-12
1629,130,-15,1006,-6,-7,-10
1630,46,8,1003,-9,13,-4
1631,-87,19,997,-16,23,0
1632,-135,-9,992,-21,15,-2
1633,-109,-46,986,-20,-2,-7
1634,12,-38,999,-13,-19,-9
1635,117,-37,1015,-8,-20,-14
1636,119,-6,992,-8,-2,-8
1637,24,14,1013,-11,15,-2
1638,-106,4,991,-17,22,1
1639,-158,-18,989,-20,12,0
1640,-73,-43,988,-19,-8,-8
1641,27,-48,1005,-14,-20,-10
1642,135,-21,998,-7,-18,-11
1643,99,0,1010,-5,3,-8
1644,-9,14,1004,-12,18,-1
1645,-125,5,993,-19,22,0
1646,-144,-31,980,-22,7,-4
1647,-59,-44,994,-20,-12,-8
1648,57,-43,1001,-10,-21,-11
1649,136,-19,1005,-6,-15,-12
1650,87,9,1007,-9,6,-5
1651,-43,23,1005,-13,21,0
1652,-136,-9,986,-22,20,-1
1653,-134,-32,978,-21,5,-5
1654,-27,-53,1004,-16,-14,-10
1655,93,-37,997,-11,-20,-13
1656,129,-12,1007,-8,-8,-9
1657,63,15,1008,-9,10,-5
1658,-84,11,989,-17,24,1
1659,-144,-13,994,-20,16,-1
1660,-110,-41,985,-21,-3,-7
1661,3,-46,999,-15,-18,-11
1662,117,-30,1003,-8,-19,-12
1663,119,-9,1008,-6,-3,-9
1664,31,18,1001,-11,15,-2
1665,-109,9,999,-19,23,2
1666,-146,-19,984,-23,12,-2
1667,-93,-45,989,-19,-6,-7
1668,31,-42,1005,-13,-20,-11
1669,130,-25,1002,-8,-18,-12
1670,116,2,1001,-7,0,-7
1671,-2,15,1018,-12,18,-1
1672,-129,-4,984,-21,22,1
1673,-149,-22,981,-20,8,-4
1674,-62,-52,996,-19,-12,-8
1675,60,-38,1000,-9,-21,-12
1676,144,-10,1009,-7,-14,-11
1677,98,8,1005,-9,6,-5
1678,-43,16,1000,-13,23,2
1679,-131,-10,989,-21,20,-1
1680,-154,-42,979,-20,5,-4
1681,-35,-43,992,-14,-16,-10
1682,92,-43,1010,-12,-22,-13
1683,136,-10,999,-5,-11,-9
1684,76,15,1010,-9,8,-3
1685,-69,15,999,-17,24,0
1686,-158,-10,984,-21,17,0
1687,-128,-42,986,-21,-1,-6
1688,-6,-50,1002,-15,-18,-10
1689,121,-30,999,-10,-20,-13
1690,128,-3,1011,-7,-3,-7
1691,51,16,1000,-11,13,-4
1692,-113,15,999,-18,25,3
1693,-154,-19,986,-22,13,-3
1694,-99,-54,989,-21,-4,-7
1695,26,-49,998,-12,-21,-10
1696,135,-19,1009,-6,-19,-13
1697,126,0,1005,-9,0,-8
1698,-3,21,1014,-12,20,1
1699,-127,3,991,-21,23,0
1700,-159,-34,982,-23,10,-4
1701,-72,-56,983,-20,-11,-7
1702,53,-43,1009,-11,-23,-11
1703,157,-20,1002,-8,-17,-13
1704,107,10,1014,-8,6,-6
1705,-35,21,995,-12,22,0
1706,-146,-3,1001,-20,23,-1
1707,-158,-37,966,-24,7,-2
1708,-53,-52,1005,-15,-16,-9
1709,107,-42,1000,-10,-25,-13
1710,143,-12,1014,-6,-11,-10
1711,89,23,1003,-8,9,-5
1712,-79,18,1006,-16,26,3
1713,-160,-6,985,-21,18,0
1714,-131,-53,983,-24,0,-6
1715,0,-58,1004,-15,-19,-12
1716,119,-33,1001,-6,-21,-13
1717,136,0,1007,-6,-5,-10
1718,20,25,1007,-11,15,0
1719,-105,24,995,-17,22,0
1720,-161,-25,986,-23,13,-2
1721,-76,-47,988,-20,-7,-6
1722,51,-54,1005,-16,-19,-12
1723,129,-37,1004,-6,-16,-13
1724,91,8,1000,-7,2,-5
1725,-30,21,1009,-12,18,-1
1726,-126,8,989,-21,17,1
1727,-138,-24,982,-23,5,-2
1728,-27,-42,1003,-19,-13,-9
1729,81,-54,1000,-13,-19,-13
1730,123,-17,1010,-5,-9,-10
1731,55,4,998,-10,9,-3
1732,-54,16,1004,-13,20,-1
1733,-126,-11,984,-20,18,0
1734,-125,-27,983,-20,4,-4
1735,-6,-39,1000,-17,-15,-11
1736,94,-37,1005,-10,-18,-13
1737,118,-5,1003,-9,-5,-8
1738,43,2,1006,-11,12,-3
1739,-85,11,999,-15,22,1
1740,-141,-9,980,-20,13,0
1741,-99,-38,1002,-20,-4,-7
1742,28,-56,996,-16,-19,-11
1743,118,-25,1001,-6,-16,-12
1744,104,-10,1008,-6,-1,-8
1745,-8,25,1001,-10,17,-1
1746,-108,9,990,-19,20,2
1747,-142,-18,994,-22,8,-3
1748,-53,-52,994,-21,-9,-9
1749,63,-50,1005,-11,-17,-12
1750,122,-30,999,-6,-12,-11
1751,73,11,1005,-5,6,-6
1752,-39,23,1008,-13,18,-1
1753,-128,7,983,-22,18,-1
1754,-121,-30,988,-23,5,-4
1755,-17,-58,995,-20,-14,-10
1756,78,-39,1001,-9,-18,-12
1757,116,-21,1006,-6,-8,-10
1758,50,16,1002,-8,9,-5
1759,-68,12,996,-15,19,1
1760,-131,-4,991,-19,14,-1
1761,-107,-28,980,-22,-1,-5
1762,11,-52,1009,-16,-16,-13
1763,102,-42,999,-10,-17,-12
1764,108,-12,1004,-6,-4,-9
1765,18,11,1008,-8,13,-4
1766,-94,17,986,-17,20,0
1767,-130,-13,988,-22,12,-2
1768,-79,-36,1001,-20,-6,-7
1769,28,-50,998,-15,-17,-11
1770,118,-33,1000,-9,-15,-12
1771,89,1,1007,-7,1,-8
1772,-7,11,998,-13,17,-3
1773,-105,6,991,-17,20,-2
1774,-131,-32,997,-22,8,-3
1775,-74,-39,984,-18,-9,-8
1776,46,-45,1007,-12,-19,-12
1777,123,-20,1003,-7,-16,-12
1778,95,8,999,-8,4,-5
1779,-13,16,1020,-14,20,-2
1780,-124,2,980,-21,20,1
1781,-142,-37,985,-23,8,-4
1782,-53,-54,994,-19,-13,-9
1783,61,-44,998,-10,-22,-12
1784,141,-15,1008,-6,-14,-11
1785,88,13,1011,-9,6,-6
1786,-50,29,999,-16,23,1
1787,-135,-9,989,-22,19,-1
1788,-143,-38,983,-23,4,-5
1789,-11,-58,993,-16,-17,-10
1790,92,-40,1010,-8,-20,-12
1791,129,-10,998,-6,-8,-9
1792,51,20,1013,-6,12,-4
1793,-81,15,991,-19,22,1
1794,-149,-4,984,-22,15,-1
1795,-98,-46,993,-23,-5,-7
1796,22,-52,1006,-15,-18,-10
1797,124,-40,993,-7,-17,-12
1798,105,-7,1012,-5,-2,-9
1799,-1,22,998,-9,16,0
1800,-118,19,989,-19,20,2
1801,-135,-21,992,-23,9,-3
1802,-66,-43,995,-21,-8,-7
1803,65,-51,1000,-16,-20,-13
1804,122,-35,1005,-8,-12,-12
1805,73,8,999,-6,5,-5
1806,-34,15,1006,-13,18,-1
1807,-132,0,992,-20,18,-1
1808,-120,-22,980,-21,4,-5
1809,-19,-47,1003,-19,-12,-12
1810,73,-37,1002,-11,-18,-12
1811,120,-22,1002,-6,-7,-12
1812,53,9,1007,-11,10,-5
1813,-65,13,995,-16,21,0
1814,-125,-6,989,-20,16,-2
1815,-118,-42,991,-22,0,-4
1816,-2,-42,988,-15,-17,-9
1817,92,-41,1015,-10,-18,-11
1818,118,-5,998,-6,-7,-10
1819,40,12,1008,-8,13,-4
1820,-80,14,998,-16,23,2
1821,-144,-13,983,-21,15,1
1822,-101,-45,990,-20,-4,-7
1823,8,-53,1007,-16,-18,-11
1824,117,-34,990,-8,-19,-12
1825,115,2,1018,-7,-1,-8
1826,18,15,1004,-12,15,-1
1827,-107,11,988,-18,23,0
1828,-148,-21,996,-23,12,-2
1829,-74,-52,987,-21,-9,-7
1830,50,-55,998,-12,-19,-12
1831,126,-26,1011,-6,-15,-11
1832,91,9,998,-5,3,-6
1833,-27,17,1010,-12,20,0
1834,-126,11,986,-20,19,2
1835,-134,-30,988,-23,5,-4
1836,-25,-53,993,-18,-13,-9
1837,71,-46,1010,-9,-19,-12
1838,122,-16,1001,-5,-9,-11
1839,58,9,1012,-8,9,-5
1840,-60,15,989,-15,22,0
1841,-138,-5,997,-20,17,0
1842,-106,-28,982,-22,-1,-6
1843,0,-45,999,-16,-15,-10
1844,103,-36,1006,-11,-18,-13
1845,111,-15,1012,-8,-4,-9
1846,28,11,992,-9,12,-2
1847,-96,10,998,-17,22,2
1848,-131,-7,993,-21,12,-2
1849,-87,-38,985,-21,-4,-7
1850,33,-44,1011,-17,-17,-12
1851,112,-30,1001,-10,-15,-11
1852,93,-4,1006,-7,0,-9
1853,-1,7,1000,-13,14,-1
1854,-111,6,987,-17,20,0
1855,-133,-21,996,-20,8,-4
1856,-57,-43,993,-21,-8,-7
1857,56,-44,1004,-12,-19,-12
1858,112,-23,1002,-8,-13,-10
1859,73,2,1006,-9,5,-6
1860,-25,4,1000,-13,17,-1
1861,-123,0,990,-18,19,0
1862,-124,-25,989,-21,4,-3
1863,-31,-39,1002,-16,-13,-10
1864,67,-45,993,-11,-18,-12
1865,111,-9,1017,-7,-11,-10
1866,64,5,996,-11,6,-7
1867,-60,9,998,-15,19,1
1868,-133,0,995,-19,14,2
1869,-112,-38,978,-23,1,-5
1870,0,-47,1002,-15,-16,-10
1871,93,-29,1007,-10,-19,-10
1872,113,-13,1006,-9,-5,-9
1873,24,6,992,-10,12,-2
1874,-87,12,1004,-17,19,1
1875,-129,-17,977,-21,11,-2
1876,-95,-35,998,-18,-6,-5
1877,39,-49,1005,-15,-20,-14
1878,108,-27,1010,-7,-14,-14
1879,96,0,994,-7,0,-8
1880,-2,13,1014,-12,17,-2
1881,-106,0,981,-18,19,2
1882,-137,-19,996,-22,9,-2
1883,-48,-52,995,-20,-9,-9
1884,54,-45,1000,-11,-17,-10
1885,127,-18,1007,-6,-12,-12
1886,71,5,1002,-8,6,-6
1887,-35,20,1002,-12,20,-1
1888,-126,0,990,-22,19,0
1889,-126,-27,987,-22,3,-4
1890,-22,-51,1001,-19,-14,-10
1891,78,-44,1000,-10,-18,-13
1892,121,-13,1007,-6,-8,-10
1893,49,9,1004,-7,11,-4
1894,-67,21,997,-13,21,-1
1895,-126,-3,985,-21,15,0
1896,-117,-30,996,-22,-1,-6
1897,6,-51,987,-18,-18,-10
1898,95,-39,1016,-9,-17,-14
1899,110,-21,1003,-8,-4,-9
1900,27,13,997,-8,13,-2
1901,-89,15,996,-15,20,0
1902,-136,-14,988,-20,12,-1
1903,-87,-33,987,-20,-5,-6
1904,26,-48,1008,-15,-18,-11
1905,113,-26,1005,-9,-18,-11
1906,100,-8,1000,-8,0,-7
1907,-5,16,1005,-13,15,-1
1908,-108,2,985,-18,19,1
1909,-134,-26,998,-21,8,-2
1910,-62,-43,985,-19,-11,-7
1911,52,-40,1012,-11,-19,-14
1912,130,-19,1003,-8,-13,-12
1913,70,9,998,-8,5,-4
1914,-30,16,1006,-13,17,0
1915,-123,-8,988,-23,19,1
1916,-125,-28,987,-22,4,-2
1917,-27,-48,995,-19,-13,-10
1918,77,-42,1008,-10,-18,-13
1919,118,-19,1000,-7,-9,-10
1920,51,19,1006,-8,8,-4
1921,-56,9,1001,-16,20,0
1922,-139,-1,982,-20,17,1
1923,-102,-35,987,-24,-2,-6
1924,-2,-53,1003,-15,-17,-12
1925,99,-35,998,-12,-17,-12
1926,111,-13,1014,-6,-5,-8
1927,26,16,998,-9,12,-4
1928,-81,16,993,-19,21,1
1929,-135,-16,987,-23,14,-1
1930,-94,-35,991,-20,-4,-6
1931,31,-52,1008,-13,-18,-12
1932,112,-34,998,-9,-16,-12
1933,99,-11,1003,-6,0,-8
1934,1,15,1009,-8,16,-2
1935,-112,10,980,-17,22,1
1936,-129,-10,997,-20,10,-3
1937,-61,-44,996,-21,-8,-8
1938,50,-42,1000,-14,-18,-12
1939,128,-30,1003,-9,-12,-13
1940,72,-1,1007,-6,6,-5
1941,-23,8,995,-13,18,1
1942,-124,4,991,-18,19,-1
1943,-128,-24,985,-19,4,-4
1944,-29,-38,1000,-18,-13,-9
1945,70,-46,1005,-13,-19,-12
1946,121,-12,1000,-6,-10,-11
1947,60,6,1012,-9,9,-3
1948,-65,14,990,-16,20,1
1949,-129,-14,991,-20,15,0
1950,-115,-39,986,-20,-1,-5
1951,-4,-43,999,-15,-17,-9
1952,106,-30,1005,-9,-19,-14
1953,109,-6,1014,-7,-4,-6
1954,32,16,994,-10,11,-2
1955,-93,7,1000,-18,21,1
1956,-130,-14,983,-23,11,-1
1957,-106,-41,992,-21,-5,-4
1958,40,-55,1006,-14,-19,-13
1959,114,-30,1001,-7,-15,-11
1960,96,0,1002,-6,-1,-6
1961,2,17,1007,-12,15,-2
1962,-109,4,980,-19,21,2
1963,-140,-12,1001,-21,10,-1
1964,-54,-50,991,-20,-9,-9
1965,49,-53,1002,-11,-19,-12
1966,130,-21,1004,-7,-15,-11
1967,72,0,1002,-6,6,-6
1968,-23,22,1003,-13,18,0
1969,-126,7,985,-21,18,2
1970,-132,-19,991,-22,5,-4
1971,-26,-53,996,-19,-15,-8
1972,64,-46,1005,-11,-18,-13
1973,131,-27,992,-7,-11,-11
1974,53,1,1018,-7,10,-5
1975,-54,23,988,-12,21,0
1976,-127,5,994,-20,18,-1
1977,-121,-29,991,-24,0,-5
1978,-8,-40,990,-18,-16,-10
1979,98,-52,1011,-10,-20,-15
1980,109,-13,1005,-6,-6,-9
1981,37,3,998,-9,10,-5
1982,-78,17,1002,-13,21,0
1983,-137,-11,981,-21,14,1
1984,-101,-25,989,-19,-4,-8
1985,26,-46,1012,-17,-19,-13
1986,107,-34,993,-11,-16,-11
1987,99,-10,1005,-7,-1,-7
1988,10,10,1006,-12,14,-2
1989,-103,2,983,-17,22,1
1990,-135,-10,995,-18,11,-3
1991,-69,-46,998,-20,-8,-8
1992,52,-42,996,-11,-19,-12
1993,122,-26,1005,-8,-14,-11
1994,81,3,1005,-8,3,-7
1995,-21,15,1001,-13,19,-1
1996,-125,2,993,-20,19,0
1997,-125,-26,986,-21,6,-3
1998,-36,-48,1002,-17,-12,-10
1999,71,-45,995,-12,-19,-13
2000,119,-20,1010,-5,-9,-11
2001,57,6,999,-8,8,-5
2002,-52,14,1006,-14,19,0
2003,-128,0,987,-21,17,0
2004,-119,-30,987,-23,1,-5
2005,3,-47,993,-18,-15,-11
2006,84,-44,1007,-11,-16,-12
2007,119,-14,1011,-7,-6,-9
2008,31,8,994,-10,12,-3
2009,-83,11,993,-15,20,1
2010,-128,-9,996,-21,13,-2
2011,-101,-37,980,-21,-2,-6
2012,25,-44,1011,-14,-19,-11
2013,110,-32,1001,-8,-17,-12
2014,97,-8,1002,-6,-1,-7
2015,5,13,1003,-12,15,-2
2016,-110,4,988,-19,20,1
2017,-123,-19,994,-21,9,-3
2018,-72,-38,991,-20,-7,-7
2019,48,-46,1004,-13,-18,-13
2020,117,-29,1007,-10,-14,-12
2021,84,-1,997,-9,5,-6
2022,-30,13,1003,-11,18,1
2023,-115,1,990,-20,18,-1
2024,-128,-27,989,-21,5,-3
2025,-34,-40,995,-17,-13,-8
2026,73,-47,1010,-14,-19,-13
2027,126,-23,994,-5,-9,-11
2028,53,10,1012,-9,9,-4
2029,-48,15,995,-14,20,-2
2030,-138,-6,996,-18,17,0
2031,-112,-30,978,-26,-1,-4
2032,-9,-49,1004,-19,-20,-11
2033,94,-39,1006,-3,-18,-14
2034,117,-13,1004,-6,-5,-9
2035,35,13,1001,-7,13,-3
2036,-81,16,999,-14,22,-1
2037,-134,-12,984,-22,14,-2
2038,-99,-36,988,-21,-3,-5
2039,20,-52,1009,-15,-19,-13
2040,114,-33,1004,-10,-17,-15
2041,97,-7,1000,-8,-1,-8
2042,9,14,1009,-9,15,-3
2043,-108,9,983,-17,22,1
2044,-135,-10,991,-21,10,-1
2045,-68,-45,996,-22,-8,-10
2046,47,-40,999,-13,-18,-12
2047,124,-33,1009,-9,-15,-12
2048,83,3,1002,-8,6,-6
2049,-27,12,1002,-12,19,0
2050,-123,0,989,-19,18,0
2051,-124,-26,990,-21,5,-5
2052,-36,-45,994,-18,-13,-9
2053,74,-45,1009,-11,-19,-13
2054,123,-16,1000,-6,-9,-10
2055,55,6,1001,-7,7,-4
2056,-56,15,1006,-14,19,0
2057,-131,-2,982,-20,15,-1
2058,-116,-35,990,-23,1,-5
2059,-3,-48,998,-14,-16,-10
2060,86,-39,1002,-11,-17,-13
2061,121,-12,1013,-8,-5,-10
2062,29,10,994,-10,11,-4
2063,-79,12,994,-16,22,1
2064,-128,-9,994,-21,13,-1
2065,-104,-36,981,-21,-3,-5
2066,24,-44,1006,-15,-17,-12
2067,105,-33,1011,-10,-17,-13
2068,106,-7,993,-7,-2,-8
2069,6,11,1009,-11,16,-3
2070,-107,8,984,-17,21,1
2071,-131,-21,990,-22,10,-2
2072,-71,-35,997,-19,-8,-7
2073,50,-49,999,-15,-19,-13
2074,116,-26,1012,-8,-14,-12
2075,82,-2,996,-9,3,-5
2076,-25,19,1008,-12,17,-1
2077,-115,-1,985,-20,18,0
2078,-128,-26,990,-21,6,-4
2079,-34,-46,999,-16,-13,-9
2080,63,-39,1003,-10,-17,-12
2081,124,-18,1002,-5,-11,-11
2082,57,5,1005,-7,9,-4
2083,-58,15,1001,-15,20,1
2084,-120,-4,986,-21,16,-1
2085,-123,-36,987,-20,2,-6
2086,0,-40,995,-16,-17,-10
2087,89,-41,1002,-11,-17,-13
2088,113,-11,1011,-7,-6,-9
2089,43,6,997,-10,11,-3
2090,-85,15,997,-14,22,0
2091,-135,-13,991,-21,13,1
2092,-95,-36,984,-20,-3,-8
2093,21,-48,1009,-16,-18,-12
2094,111,-31,1002,-11,-16,-13
2095,103,-8,1002,-8,-1,-7
2096,8,14,1002,-12,14,-1
2097,-108,11,989,-20,20,1
2098,-133,-23,995,-20,8,-4
2099,-71,-38,991,-21,-9,-7
2100,48,-54,1003,-13,-19,-14
2101,124,-27,1009,-6,-16,-13
2102,83,2,995,-9,3,-3
2103,-24,21,1007,-11,18,-1
2104,-119,4,987,-21,19,0
2105,-132,-21,991,-23,8,-3
2106,-32,-44,993,-19,-13,-9
2107,67,-51,1008,-14,-19,-12
2108,123,-19,1000,-6,-11,-10
2109,60,0,1001,-8,8,-5
2110,-47,16,1012,-13,19,-1
2111,-124,-10,975,-20,17,1
2112,-126,-25,994,-19,2,-4
2113,2,-44,991,-17,-18,-11
2114,82,-42,1009,-10,-17,-13
2115,116,-11,1004,-9,-7,-9
2116,37,6,1006,-10,12,-4
2117,-72,11,987,-15,20,0
2118,-135,-7,996,-22,14,0
2119,-101,-36,988,-21,-2,-8
2120,10,-48,1002,-16,-16,-11
2121,113,-32,1003,-9,-17,-12
2122,94,-12,1008,-6,0,-7
2123,19,12,1000,-9,13,-3
2124,-105,7,991,-17,20,1
2125,-132,-5,988,-19,9,-3
2126,-78,-47,990,-23,-7,-7
2127,43,-48,1005,-13,-19,-13
2128,117,-29,1005,-8,-15,-11
2129,81,0,1001,-7,2,-7
2130,-12,13,1001,-13,16,-1
2131,-116,3,989,-18,20,1
2132,-138,-21,990,-21,6,-2
2133,-39,-46,993,-18,-13,-8
2134,63,-48,1009,-13,-19,-11
2135,119,-19,992,-8,-13,-10
2136,64,8,1018,-7,6,-3
2137,-42,18,992,-14,18,1
2138,-135,4,995,-21,18,2
2139,-113,-34,982,-23,0,-4
2140,-18,-47,999,-19,-15,-9
2141,93,-53,1001,-12,-20,-14
2142,113,-9,1011,-7,-8,-10
2143,45,12,997,-11,10,-4
2144,-72,16,998,-16,20,0
2145,-132,-12,992,-23,14,-1
2146,-100,-37,979,-21,-4,-7
2147,12,-46,1011,-14,-17,-13
2148,111,-32,1001,-10,-16,-12
2149,104,-10,1004,-7,-1,-8
2150,19,14,1000,-11,13,-1
2151,-104,9,996,-19,22,1
2152,-132,-20,984,-22,11,-3
2153,-78,-45,995,-21,-7,-7
2154,48,-50,1003,-12,-19,-12
2155,115,-32,1002,-6,-13,-10
2156,95,10,1005,-7,3,-8
2157,-19,17,1002,-13,19,-2
2158,-121,10,980,-21,19,2
2159,-135,-20,1005,-23,6,-4
2160,-39,-51,984,-20,-12,-10
2161,62,-53,1009,-12,-18,-13
2162,122,-20,1002,-7,-12,-11
2163,64,5,1006,-6,7,-5
2164,-42,19,1000,-12,20,1
2165,-138,7,994,-21,18,1
2166,-114,-28,980,-22,1,-5
2167,-13,-50,1001,-20,-15,-10
2168,90,-47,1000,-12,-19,-14
2169,115,-15,1011,-5,-8,-10
2170,44,6,995,-10,11,-3
2171,-78,16,1004,-14,22,1
2172,-126,-7,984,-19,14,-1
2173,-112,-33,987,-22,-1,-6
2174,22,-44,1004,-16,-18,-12
2175,98,-34,1011,-10,-15,-11
2176,113,-3,994,-9,-4,-8
2177,10,9,1010,-11,15,-2
2178,-101,5,983,-19,20,0
2179,-132,-26,994,-21,10,-2
2180,-76,-41,992,-18,-7,-7
2181,46,-41,1006,-12,-18,-13
2182,125,-24,1002,-8,-15,-12
2183,77,4,1005,-8,3,-3
2184,-7,21,998,-13,17,-2
2185,-123,-2,991,-19,21,2
2186,-133,-29,985,-23,6,-3
2187,-40,-52,1003,-18,-11,-10
2188,66,-49,1001,-10,-17,-13
2189,121,-13,1003,-6,-10,-10
2190,64,6,1003,-7,8,-6
2191,-52,20,1005,-14,20,1
2192,-124,-2,983,-22,17,0
2193,-118,-31,990,-23,2,-5
2194,-10,-45,998,-18,-15,-10
2195,86,-46,1003,-12,-19,-13
2196,113,-13,1005,-7,-6,-9
2197,41,11,1002,-9,11,-3
2198,-78,15,995,-14,21,1
2199,-129,-4,989,-21,14,-1
2200,-104,-38,986,-23,-2,-7
2201,15,-44,1008,-15,-18,-11
2202,109,-40,1001,-10,-17,-11
2203,101,-9,1008,-5,-2,-7
2204,16,14,998,-10,13,-2
2205,-101,8,992,-17,21,-1
2206,-133,-13,992,-21,9,-2
2207,-76,-33,987,-20,-8,-8
2208,44,-53,1011,-14,-18,-12
2209,122,-28,995,-9,-16,-11
2210,86,2,1006,-7,4,-6
2211,-13,14,1000,-14,16,-2
2212,-118,5,987,-19,19,2
2213,-129,-32,991,-22,7,-5
2214,-44,-45,997,-16,-11,-9
2215,66,-47,1005,-11,-20,-12
2216,125,-21,999,-5,-11,-11
2217,62,6,1006,-7,7,-3
2218,-46,20,1004,-12,19,-2
2219,-131,-4,987,-21,19,0
2220,-118,-24,987,-22,1,-3
2221,-17,-53,998,-17,-14,-10
2222,87,-41,1005,-9,-19,-14
2223,118,-20,1006,-7,-7,-7
2224,41,18,1001,-8,12,-3
2225,-69,13,997,-16,21,0
2226,-137,-6,990,-21,15,-1
2227,-104,-39,981,-21,-4,-6
2228,17,-43,1009,-15,-18,-11
2229,107,-37,1005,-10,-17,-12
2230,112,-10,999,-6,-2,-9
2231,11,8,1011,-9,14,-3
2232,-97,8,980,-18,22,2
2233,-138,-14,998,-20,13,-1
2234,-74,-39,991,-21,-8,-7
2235,40,-50,1002,-13,-19,-13
2236,121,-24,1009,-5,-15,-11
2237,85,1,998,-7,4,-5
2238,-10,10,1003,-13,17,-2
2239,-123,3,986,-19,20,2
2240,-136,-24,988,-20,7,-2
2241,-43,-50,1000,-16,-10,-9
2242,63,-45,1000,-10,-18,-12
2243,123,-13,1006,-7,-12,-11
2244,70,4,1005,-9,7,-5
2245,-45,19,1000,-15,19,1
2246,-131,2,990,-22,18,1
2247,-120,-30,986,-21,0,-4
2248,-17,-50,994,-21,-15,-8
2249,88,-41,1007,-11,-19,-13
2250,124,-17,1005,-7,-9,-9
2251,41,12,1004,-10,11,-2
2252,-68,12,993,-17,20,0
2253,-136,-6,993,-22,15,0
2254,-102,-35,982,-22,-2,-5
2255,12,-46,1005,-16,-16,-10
2256,105,-39,1006,-10,-18,-12
2257,106,-7,1006,-5,-2,-9
2258,21,5,999,-10,14,-3
2259,-102,9,989,-14,21,1
2260,-133,-18,993,-21,11,-2
2261,-84,-36,987,-21,-7,-6
2262,40,-45,1004,-14,-19,-13
2263,121,-25,1003,-8,-16,-13
2264,87,-6,1003,-9,0,-6
2265,-12,9,999,-11,16,-1
2266,-119,7,992,-18,19,2
2267,-129,-25,990,-20,7,-3
2268,-51,-41,991,-17,-10,-6
2269,64,-42,1012,-12,-21,-12
2270,120,-22,997,-9,-12,-10
2271,66,5,1005,-7,5,-5
2272,-36,9,1004,-13,18,-1
2273,-127,-1,989,-20,17,1
2274,-118,-28,985,-20,2,-3
2275,-23,-47,1004,-17,-15,-9
2276,86,-41,996,-12,-20,-13
2277,117,-12,1011,-6,-9,-9
2278,47,11,1002,-10,10,-4
2279,-70,13,993,-16,22,1
2280,-136,-13,992,-22,15,1
2281,-107,-34,985,-22,-2,-4
2282,9,-53,1002,-15,-17,-10
2283,103,-27,1005,-8,-17,-12
2284,114,-14,1006,-7,-4,-8
2285,14,14,998,-9,14,-3
2286,-93,14,994,-18,21,0
2287,-132,-9,988,-22,12,-1
2288,-89,-44,993,-24,-6,-6
2289,41,-53,999,-14,-20,-12
2290,120,-34,1011,-7,-15,-12
2291,89,-4,994,-7,1,-7
2292,-9,23,1011,-11,17,-4
2293,-111,8,982,-18,19,1
2294,-142,-15,993,-22,8,-2
2295,-43,-51,994,-21,-11,-11
2296,56,-53,1005,-11,-18,-12
2297,126,-19,999,-7,-12,-10
2298,72,7,1004,-7,7,-6
2299,-45,19,1008,-13,19,1
2300,-132,2,981,-21,18,1
2301,-119,-36,989,-22,3,-5
2302,-17,-50,999,-18,-14,-9
2303,82,-37,1001,-10,-18,-13
2304,122,-17,1005,-5,-7,-11
2305,49,14,1005,-8,11,-3
2306,-69,15,992,-17,21,1
2307,-135,-6,995,-21,14,-1
2308,-108,-39,983,-22,-3,-6
2309,6,-50,1001,-15,-17,-12
2310,112,-42,1008,-10,-18,-13
2311,101,-11,1003,-7,-1,-8
2312,25,16,1001,-9,14,-2
2313,-100,17,998,-18,23,0
2314,-134,-18,986,-23,11,-2
2315,-87,-35,988,-20,-6,-7
2316,42,-47,1009,-14,-18,-13
2317,121,-34,1003,-8,-15,-11
2318,89,-3,999,-7,3,-6
2319,-7,9,1004,-11,16,-2
2320,-117,8,991,-18,21,1
2321,-128,-19,984,-21,8,-3
2322,-59,-38,1001,-19,-10,-9
2323,62,-43,998,-13,-19,-12
2324,126,-23,1009,-7,-11,-10
2325,65,6,994,-8,6,-5
2326,-38,17,1014,-14,18,-1
2327,-129,-7,979,-22,18,1
2328,-122,-26,986,-20,3,-4
2329,-7,-52,1007,-17,-15,-10
2330,74,-43,995,-10,-17,-12
2331,119,-12,1012,-4,-7,-11
2332,49,13,1004,-11,11,-3
2333,-75,17,987,-14,21,2
2334,-125,-6,1001,-21,15,-1
2335,-109,-38,979,-23,-2,-6
2336,10,-41,1003,-15,-18,-10
2337,105,-44,1006,-11,-18,-13
2338,98,-5,1005,-6,-3,-6
2339,27,8,1000,-9,13,-2
2340,-103,14,998,-17,22,0
2341,-127,-12,981,-20,11,-1
2342,-91,-36,1002,-21,-6,-6
2343,38,-49,994,-16,-19,-11
2344,116,-30,1010,-7,-15,-11
2345,88,-4,999,-9,2,-7
2346,-8,12,1002,-11,16,0
2347,-110,4,988,-18,20,0
2348,-136,-21,994,-23,8,-2
2349,-45,-37,994,-18,-10,-10
2350,62,-48,1001,-13,-16,-12
2351,115,-19,1007,-6,-10,-11
2352,73,2,1002,-8,5,-6
2353,-40,14,999,-11,19,-1
2354,-130,1,992,-20,18,0
2355,-117,-29,982,-21,3,-4
2356,-14,-41,1002,-17,-15,-10
2357,78,-42,1001,-11,-19,-13
2358,114,-17,1003,-8,-8,-11
2359,51,2,1008,-9,11,-5
2360,-73,16,988,-17,20,0
2361,-129,-12,997,-20,14,-1
2362,-111,-34,978,-23,-2,-6
2363,10,-42,1004,-15,-18,-12
2364,109,-35,1007,-10,-17,-13
2365,106,-1,1004,-8,-4,-7
2366,18,1,997,-18,12,-3
2367,-100,13,998,-19,21,0
2368,-134,-20,985,-23,11,-2
2369,-84,-38,991,-19,-7,-8
2370,44,-48,1005,-14,-18,-13
2371,115,-32,1004,-7,-16,-12
2372,93,7,995,-7,2,-7
2373,-15,11,1009,-13,17,-1
2374,-115,15,987,-19,19,2
2375,-131,-30,988,-25,8,-4
2376,-45,-45,1002,-19,-12,-9
2377,63,-54,998,-15,-21,-12
2378,124,-19,1001,-5,-11,-12
2379,61,7,1006,-8,7,-4
2380,-39,21,1003,-12,18,-1
2381,-125,-6,983,-20,18,0
2382,-122,-26,989,-21,4,-4
2383,-11,-48,1000,-19,-16,-11
2384,83,-41,997,-11,-18,-12
2385,110,-16,1014,-8,-8,-9
2386,49,12,992,-10,10,-3
2387,-75,7,1001,-15,21,1
2388,-128,-2,984,-21,13,-2
2389,-107,-37,994,-20,-1,-7
2390,21,-43,995,-16,-17,-12
2391,104,-35,1010,-11,-16,-11
2392,101,-9,1005,-7,-1,-8
2393,16,12,996,-10,14,-3
2394,-104,3,992,-17,21,1
2395,-133,-10,988,-21,11,-2
2396,-67,-50,991,-20,-7,-8
2397,38,-35,1006,-13,-17,-10
2398,121,-26,1000,-9,-13,-13
2399,86,1,1004,-7,3,-8
2400,-17,8,995,-13,18,-1
2401,-115,1,993,-20,21,-1
2402,-130,-28,987,-23,7,-3
2403,-44,-44,998,-17,-12,-9
2404,66,-46,1000,-12,-18,-14
2405,125,-15,1010,-4,-11,-11
2406,67,6,997,-8,7,-5
2407,-48,23,1010,-13,19,-1
2408,-130,-6,984,-23,16,0
2409,-126,-25,985,-21,1,-4
2410,-10,-56,995,-18,-16,-11
2411,87,-43,1006,-8,-18,-13
2412,118,-18,1003,-5,-7,-10
2413,47,18,1006,-9,11,-4
2414,-75,14,993,-16,21,0
2415,-134,-3,995,-23,14,-1
2416,-104,-39,976,-25,-1,-5
2417,3,-44,1013,-15,-17,-12
2418,116,-38,1000,-9,-17,-12
2419,105,-14,1001,-6,0,-9
2420,19,11,1004,-8,13,-4
2421,-103,13,992,-18,21,2
2422,-135,-15,984,-21,11,-1
2423,-83,-40,999,-21,-7,-6
2424,46,-45,1001,-14,-19,-13
2425,121,-30,1004,-7,-15,-11
2426,85,4,1005,-7,1,-5
2427,-13,11,999,-12,16,-1
2428,-119,5,992,-19,20,1
2429,-135,-25,985,-22,7,-3
2430,-44,-43,999,-18,-12,-8
2431,65,-51,1005,-13,-19,-13
2432,124,-18,1001,-7,-11,-11
2433,68,7,1002,-8,6,-6
2434,-52,16,1003,-13,20,0
2435,-124,4,985,-22,18,-1
2436,-124,-33,988,-23,3,-4
2437,-10,-41,999,-18,-15,-10
2438,85,-52,999,-11,-17,-13
2439,116,-10,1011,-5,-7,-9
2440,50,7,1001,-11,10,-2
2441,-73,20,990,-15,22,1
2442,-136,-12,1002,-23,14,1
2443,-107,-38,968,-22,-2,-6
2444,12,-44,1015,-14,-17,-12
2445,108,-36,995,-10,-18,-11
2446,104,-2,1009,-6,-3,-8
2447,24,12,997,-12,15,-1
2448,-104,10,995,-19,22,2
2449,-130,-20,991,-21,11,-1
2450,-89,-37,995,-20,-6,-7
2451,49,-43,1001,-14,-20,-13
2452,116,-33,1007,-8,-14,-12
2453,82,1,1004,-9,1,-6
2454,-8,17,1003,-13,17,-3
2455,-115,0,988,-20,18,0
2456,-135,-17,991,-21,6,-1
2457,-39,-51,1000,-18,-12,-10
2458,60,-48,996,-11,-19,-12
2459,122,-14,1006,-7,-12,-11
2460,65,2,1008,-7,6,-8
2461,-40,18,997,-15,19,0
2462,-133,-3,991,-21,17,2
2463,-117,-27,986,-22,0,-5
2464,-16,-50,999,-17,-16,-10
2465,85,-39,995,-9,-19,-14
2466,116,-17,1018,-7,-7,-10
2467,47,13,996,-8,11,-4
2468,-80,10,994,-16,21,0
2469,-128,-5,993,-22,14,-2
2470,-107,-44,986,-20,-2,-6
2471,15,-42,996,-15,-18,-11
2472,105,-37,1015,-8,-17,-13
2473,110,-4,999,-7,-2,-8
2474,12,13,1001,-11,14,0
2475,-102,14,989,-18,20,-1
2476,-135,-18,996,-22,11,0
2477,-78,-42,982,-22,-7,-6
2478,49,-51,1006,-14,-19,-14
2479,120,-34,1011,-6,-16,-13
2480,82,1,991,-7,2,-6
2481,-10,20,1006,-12,17,-3
2482,-123,3,989,-18,19,0
2483,-133,-15,994,-22,7,-3
2484,-39,-48,991,-18,-11,-9
2485,65,-45,1008,-12,-19,-13
2486,127,-24,1000,-7,-12,-11
2487,62,5,997,-7,7,-6
2488,-45,13,1005,-15,19,-1
2489,-129,1,990,-21,19,1
2490,-121,-36,981,-23,2,-5
2491,-9,-42,1004,-16,-14,-11
2492,79,-41,999,-10,-17,-12
2493,122,-12,1006,-7,-8,-10
2494,39,9,1002,-10,12,-4
2495,-76,19,994,-17,21,1
2496,-123,-15,992,-23,15,-3
2497,-110,-41,982,-21,-1,-5
2498,16,-46,1000,-15,-18,-11
2499,102,-38,1010,-9,-17,-11
2500,103,-1,999,-6,-3,-7
2501,21,11,1003,-12,13,-3
2502,-99,14,993,-18,21,2
2503,-135,-18,986,-22,12,0
2504,-76,-42,997,-20,-5,-9
2505,36,-47,999,-14,-18,-11
2506,119,-26,1008,-7,-15,-12
2507,88,-3,1000,-8,3,-7
2508,-11,18,1003,-12,17,-1
2509,-113,4,987,-21,20,2
2510,-134,-28,987,-23,7,-2
2511,-45,-46,1001,-18,-12,-8
2512,62,-52,998,-12,-17,-12
2513,119,-19,1006,-7,-11,-10
2514,76,2,1002,-7,5,-5
2515,-48,15,1002,-13,20,0
2516,-126,-3,988,-20,18,0
2517,-124,-23,992,-20,3,-4
2518,-19,-49,992,-18,-16,-10
2519,85,-39,1005,-9,-18,-13
2520,120,-19,1008,-7,-7,-8
2521,49,13,998,-9,10,-3
2522,-72,8,997,-17,21,0
2523,-136,-1,993,-21,13,0
2524,-104,-42,980,-20,-2,-5
2525,6,-39,1003,-13,-16,-11
2526,111,-37,1008,-11,-19,-11
2527,104,-6,1003,-6,-4,-8
2528,25,5,1000,-11,13,-3
2529,-101,11,1000,-19,20,1
2530,-131,-17,979,-20,12,-2
2531,-93,-37,998,-20,-6,-6
2532,46,-47,1001,-14,-20,-12
2533,114,-26,1003,-6,-15,-11
2534,97,2,1001,-9,0,-8
2535,-16,15,1003,-13,18,-1
2536,-113,-1,988,-21,20,0
2537,-135,-25,994,-23,8,-1
2538,-52,-45,990,-18,-11,-9
2539,57,-46,1009,-12,-19,-12
2540,132,-16,1000,-7,-12,-11
2541,71,2,1000,-8,8,-4
2542,-36,18,1011,-13,19,-2
2543,-132,-9,981,-21,19,0
2544,-124,-19,986,-20,3,-4
2545,-14,-54,997,-18,-14,-8
2546,87,-37,1008,-8,-18,-14
2547,121,-21,1004,-9,-7,-8
2548,39,14,1005,-8,13,-3
2549,-69,5,997,-17,21,-1
2550,-127,-5,987,-20,15,-1
2551,-113,-34,986,-21,-1,-5
2552,11,-41,1003,-16,-17,-12
2553,105,-37,1010,-10,-17,-14
2554,103,-6,993,-7,-2,-6
2555,20,13,1019,-9,13,-3
2556,-93,6,974,-19,21,0
2557,-142,-17,999,-21,12,-1
2558,-75,-42,989,-20,-8,-8
2559,32,-50,1004,-12,-17,-11
2560,122,-19,1001,-6,-16,-11
2561,83,1,1009,-9,2,-7
2562,-5,11,996,-14,16,-2
2563,-120,1,994,-20,19,1
2564,-129,-21,986,-20,6,-3
2565,-45,-49,995,-19,-12,-7
2566,56,-46,1003,-9,-18,-12
2567,127,-15,1007,-6,-13,-10
2568,69,4,999,-8,5,-6
2569,-43,19,1009,-14,19,0
2570,-124,-4,984,-20,18,-1
2571,-122,-30,989,-21,3,-5
2572,-9,-51,991,-18,-14,-9
2573,75,-34,1010,-10,-17,-13
2574,123,-17,1005,-7,-8,-9
2575,38,14,1005,-9,11,-3
2576,-63,7,990,-18,20,-1
2577,-137,-14,1000,-21,16,-1
2578,-104,-39,971,-20,-2,-7
2579,2,-39,1014,-12,-16,-11
2580,115,-33,1001,-9,-18,-13
2581,104,-5,1002,-8,-1,-8
2582,25,13,1005,-10,14,-2
2583,-103,4,988,-19,22,0
2584,-132,-15,990,-22,11,-3
2585,-87,-38,993,-22,-6,-7
2586,34,-46,1002,-13,-19,-12
2587,117,-26,1004,-8,-17,-11
2588,88,0,1007,-7,0,-6
2589,1,11,994,-13,15,-1
2590,-110,1,1001,-18,19,1
2591,-135,-25,984,-21,7,-3
2592,-55,-43,998,-17,-10,-10
2593,58,-41,1000,-13,-20,-13
2594,112,-15,1002,-8,-13,-11
2595,74,2,1005,-10,5,-7
2596,-40,9,1009,-15,19,0
2597,-117,-11,981,-21,17,2
2598,-120,-28,990,-20,5,-4
2599,-22,-40,995,-18,-13,-8
2600,82,-35,1007,-12,-19,-12
2601,111,-15,1004,-8,-8,-8
2602,52,14,1009,-10,10,-6
2603,-68,5,994,-16,21,0
2604,-132,-11,984,-22,15,0
2605,-106,-37,990,-22,-3,-5
2606,9,-48,998,-12,-17,-10
2607,101,-34,1009,-9,-17,-11
2608,104,-4,1001,-6,-3,-7
2609,24,15,1007,-11,13,-2
2610,-95,10,989,-18,20,2
2611,-138,-8,989,-21,12,-1
2612,-80,-46,992,-21,-7,-7
2613,35,-49,1000,-14,-18,-12
2614,116,-32,1004,-6,-16,-11
2615,96,0,1004,-8,1,-8
2616,-8,15,1000,-14,17,0
2617,-117,12,989,-19,20,2
2618,-129,-22,990,-26,7,-3
2619,-49,-52,998,-19,-10,-8
2620,61,-42,1001,-13,-18,-12
2621,124,-28,1005,-5,-11,-11
2622,71,3,1007,-7,7,-5
2623,-40,22,1001,-14,20,0
2624,-125,-2,987,-21,18,0
2625,-121,-28,987,-20,3,-4
2626,-23,-44,994,-18,-15,-11
2627,88,-46,1006,-9,-19,-15
2628,112,-17,1009,-6,-7,-8
2629,58,15,996,-8,10,-4
2630,-73,9,1001,-15,22,0
2631,-135,-2,990,-21,15,-1
2632,-112,-37,979,-23,-2,-7
2633,10,-49,1012,-15,-18,-11
2634,101,-36,999,-10,-17,-10
2635,118,-9,1008,-8,-3,-10
2636,17,10,1007,-10,14,-1
2637,-96,12,982,-17,21,0
2638,-141,-17,994,-20,12,-3
2639,-84,-44,986,-19,-7,-7
2640,34,-45,1009,-14,-18,-11
2641,130,-23,1004,-8,-16,-12
2642,85,0,1003,-8,3,-7
2643,-5,14,1000,-14,16,-2
2644,-121,1,990,-20,20,0
2645,-134,-26,991,-23,8,-3
2646,-52,-48,997,-18,-10,-9
2647,61,-38,1003,-10,-19,-12
2648,129,-14,1006,-7,-11,-11
2649,67,8,1002,-9,7,-5
2650,-44,13,1004,-16,19,0
2651,-127,-4,987,-22,17,1
2652,-125,-30,982,-22,2,-3
2653,-18,-44,1003,-18,-15,-10
2654,84,-40,999,-10,-19,-13
2655,119,-16,1012,-7,-8,-9
2656,56,8,1001,-10,9,-5
2657,-76,6,995,-16,21,2
2658,-130,-9,993,-20,15,-2
2659,-112,-37,977,-22,-1,-6
2660,6,-45,1009,-15,-18,-10
2661,107,-33,1005,-10,-18,-13
2662,108,-8,1003,-7,-3,-9
2663,26,11,1001,-10,12,-2
2664,-97,4,994,-19,20,1
2665,-134,-18,986,-21,11,-2
2666,-91,-40,994,-20,-5,-7
2667,46,-41,1002,-13,-19,-13
2668,112,-32,1004,-9,-14,-10
2669,97,10,1002,-6,1,-7
2670,-9,13,1005,-14,19,-2
2671,-121,4,986,-20,19,1
2672,-130,-27,991,-24,7,-3
2673,-51,-45,993,-18,-9,-9
2674,61,-48,1006,-13,-18,-11
2675,128,-19,1000,-6,-12,-12
2676,62,5,1001,-9,7,-5
2677,-33,17,1009,-13,17,-3
2678,-129,0,984,-22,18,2
2679,-127,-28,983,-21,4,-4
2680,-19,-45,1007,-18,-14,-10
2681,84,-42,994,-11,-19,-12
2682,109,-14,1012,-6,-6,-9
2683,58,11,1003,-10,9,-6
2684,-69,10,999,-16,22,1
2685,-135,-7,981,-21,16,0
2686,-111,-32,993,-20,0,-7
2687,7,-41,998,-14,-17,-11
2688,101,-34,1010,-12,-16,-10
2689,110,-11,1000,-5,-3,-10
2690,22,6,1006,-10,13,-3
2691,-97,9,992,-17,21,1
2692,-132,-14,985,-20,12,-2
2693,-84,-42,997,-20,-6,-6
2694,32,-41,1000,-14,-17,-11
2695,121,-26,1005,-8,-15,-12
2696,89,2,1006,-9,1,-7
2697,-7,11,997,-14,15,-2
2698,-113,-2,993,-20,20,-1
2699,-139,-23,981,-21,9,-2
2700,-48,-48,1002,-16,-12,-9
2701,65,-43,996,-11,-20,-12
2702,118,-17,1006,-7,-11,-9
2703,79,14,1005,-9,5,-6
2704,-45,10,1000,-6,19,-1
2705,-135,-2,986,-23,16,-1
2706,-119,-37,988,-19,3,-7
2707,-23,-51,994,-19,-14,-9
2708,83,-43,1004,-10,-19,-11
2709,116,-10,1010,-5,-9,-10
2710,57,14,1000,-11,10,-3
2711,-66,10,995,-14,23,0
2712,-130,-11,996,-21,15,0
2713,-117,-35,975,-22,-1,-6
2714,3,-50,1003,-15,-17,-11
2715,96,-31,1007,-10,-19,-10
2716,107,-7,1006,-6,-3,-8
2717,47,8,994,-10,13,-3
2718,-89,9,1008,-18,22,2
2719,-140,-15,975,-22,14,0
2720,-99,-42,1000,-20,-6,-8
2721,26,-46,998,-13,-20,-11
2722,111,-27,1005,-7,-16,-11
2723,102,1,1004,-8,-1,-7
2724,0,13,1004,-13,16,-1
2725,-103,13,988,-19,20,0
2726,-146,-21,992,-22,11,-2
2727,-54,-49,991,-18,-10,-10
2728,52,-51,1003,-12,-19,-11
2729,123,-20,1005,-5,-14,-11
2730,75,2,1002,-7,6,-5
2731,-36,20,1010,-12,19,-1
2732,-118,2,982,-22,17,0
2733,-135,-26,991,-23,6,-4
2734,-20,-51,993,-20,-15,-10
2735,74,-45,1007,-10,-16,-13
2736,119,-23,997,-7,-9,-9
2737,57,9,1018,-8,9,-5
2738,-58,15,988,-14,20,1
2739,-138,-3,997,-20,15,1
2740,-108,-34,979,-21,0,-6
2741,1,-48,1007,-14,-16,-11
2742,104,-39,998,-9,-19,-13
2743,106,-8,1011,-7,-3,-8
2744,32,7,1000,-9,12,-4
2745,-95,13,994,-17,23,1
2746,-132,-14,984,-21,11,-2
2747,-92,-32,998,-20,-5,-6
2748,35,-47,999,-17,-19,-11
2749,119,-29,1003,-9,-16,-12
2750,90,-3,1009,-8,1,-7
2751,-2,12,992,-12,15,-2
2752,-114,0,997,-17,19,1
2753,-135,-18,989,-21,7,-1
2754,-57,-48,992,-19,-9,-9
2755,61,-38,1006,-13,-19,-13
2756,123,-21,1002,-7,-14,-11
2757,73,6,999,-9,5,-6
2758,-38,16,1013,-15,18,0
2759,-128,-5,975,-21,18,0
2760,-127,-30,990,-22,3,-4
2761,-19,-53,1003,-19,-13,-12
2762,80,-44,994,-10,-18,-12
2763,123,-9,1018,-6,-8,-9
2764,47,10,999,-9,10,-4
2765,-68,18,994,-17,21,-1
2766,-132,-13,995,-23,15,0
2767,-113,-33,978,-21,-1,-5
2768,11,-53,1003,-15,-17,-12
2769,106,-37,1010,-9,-18,-12
2770,110,-6,1000,-7,-3,-7
2771,22,8,1008,-10,14,-4
2772,-97,15,989,-16,21,1
2773,-140,-12,987,-22,13,-3
2774,-81,-45,995,-20,-6,-8
2775,26,-45,1000,-13,-18,-10
2776,121,-30,1011,-6,-17,-12
2777,97,-4,996,-7,2,-7
2778,-9,17,1006,-12,17,0
2779,-114,10,989,-19,20,1
2780,-132,-21,993,-24,7,-3
2781,-52,-44,994,-21,-12,-7
2782,59,-44,1006,-11,-20,-13
2783,124,-30,1001,-7,-12,-11
2784,74,11,1009,-7,5,-4
2785,-36,14,1003,-12,20,0
2786,-132,3,986,-20,18,0
2787,-116,-24,991,-21,2,-5
2788,-25,-50,995,-19,-14,-9
2789,83,-45,1002,-12,-19,-13
2790,119,-14,1009,-6,-8,-10
2791,52,8,1004,-9,9,-3
2792,-67,7,988,-15,22,1
2793,-130,-14,999,-18,16,-2
2794,-109,-28,977,-20,-2,-4
2795,0,-42,1003,-15,-16,-11
2796,102,-33,1011,-9,-18,-12
2797,114,-11,997,-9,-3,-6
2798,21,11,1006,-9,14,-4
2799,-92,10,993,-18,20,1
2800,-132,-22,985,-21,12,-1
2801,-89,-38,995,-21,-5,-6
2802,38,-41,1003,-15,-18,-11
2803,118,-34,1001,-8,-14,-12
2804,87,5,1006,-8,1,-6
2805,-8,16,996,-14,16,-1
2806,-111,-5,996,-20,22,0
2807,-140,-25,985,-22,8,-1
2808,-50,-40,1001,-18,-11,-8
2809,66,-49,1000,-12,-21,-13
2810,113,-19,1002,-8,-12,-9
2811,76,10,1005,-6,4,-6
2812,-38,13,1006,-14,20,-1
2813,-123,-1,981,-20,18,1
2814,-125,-27,991,-22,2,-3
2815,-28,-45,997,-17,-16,-11
2816,87,-41,996,-10,-20,-13
2817,114,-15,1014,-7,-9,-9
2818,55,7,1000,-10,9,-5
2819,-69,11,997,-15,22,0
2820,-131,-10,991,-21,16,0
2821,-111,-33,982,-22,-3,-6
2822,14,-44,1001,-14,-18,-13
2823,97,-32,1009,-10,-17,-12
2824,111,-8,998,-8,-3,-9
2825,24,8,1008,-9,15,-3
2826,-94,8,989,-19,21,2
2827,-136,-11,989,-21,13,-3
2828,-81,-50,992,-21,-5,-7
2829,30,-43,1002,-14,-18,-11
2830,121,-28,1009,-8,-15,-11
2831,92,-2,1000,-8,1,-7
2832,-10,16,1000,-14,16,-2
2833,-110,7,990,-18,20,0
2834,-142,-31,989,-23,8,-3
2835,-52,-40,993,-18,-12,-9
2836,59,-50,1005,-13,-19,-12
2837,122,-22,1004,-7,-12,-11
2838,74,9,1004,-7,7,-6
2839,-36,9,1003,-15,20,-1
2840,-127,3,989,-19,19,1
2841,-128,-24,980,-24,4,-4
2842,-21,-53,1005,-19,-15,-10
2843,81,-41,996,-11,-20,-12
2844,116,-19,1008,-7,-7,-10
2845,57,6,1002,-9,9,-6
2846,-73,9,1000,-17,21,1
2847,-131,-2,984,-21,15,-1
2848,-111,-31,984,-22,-1,-6
2849,3,-43,1000,-14,-17,-11
2850,103,-36,1006,-9,-17,-14
2851,111,-14,1004,-7,-2,-9
2852,25,5,1005,-10,14,-2
2853,-90,15,989,-16,20,0
2854,-136,-18,989,-20,12,-1
2855,-88,-33,992,-19,-6,-6
2856,34,-45,1002,-16,-19,-11
2857,114,-29,1007,-10,-16,-12
2858,102,-3,998,-8,0,-8
2859,-5,13,1006,-14,17,-3
2860,-111,5,985,-18,20,0
2861,-137,-22,991,-23,9,-2
2862,-59,-39,991,-18,-10,-8
2863,63,-45,1006,-12,-19,-13
2864,122,-22,1005,-7,-13,-10
2865,70,6,995,-8,5,-5
2866,-35,17,1014,-13,17,-1
2867,-123,-1,983,-22,18,2
2868,-132,-31,984,-21,4,-5
2869,-20,-50,1001,-18,-15,-10
2870,78,-44,1003,-10,-18,-11
2871,125,-14,1002,-6,-9,-10
2872,50,16,1011,-8,11,-5
2873,-61,13,993,-14,21,1
2874,-144,-4,986,-21,18,-1
2875,-102,-32,987,-23,-2,-6
2876,0,-55,1002,-17,-16,-11
2877,106,-34,1004,-9,-18,-12
2878,110,-13,1006,-8,-4,-7
2879,24,13,1002,-10,13,-3
2880,-89,8,990,-19,21,1
2881,-143,-13,987,-21,14,-3
2882,-81,-44,998,-19,-6,-8
2883,29,-47,999,-13,-17,-12
2884,114,-25,1005,-8,-15,-11
2885,106,-1,1003,-8,1,-7
2886,-13,20,1005,-12,19,0
2887,-111,5,984,-21,21,0
2888,-138,-27,998,-22,10,-4
2889,-58,-47,991,-18,-10,-8
2890,61,-43,1004,-13,-19,-14
2891,123,-23,1005,-7,-12,-13
2892,73,11,1002,-7,6,-4
2893,-32,15,1006,-15,18,-1
2894,-134,-2,986,-21,20,1
2895,-123,-26,983,-22,4,-5
2896,-23,-49,1002,-19,-14,-11
2897,75,-38,996,-11,-19,-11
2898,119,-14,1012,-7,-9,-9
2899,54,3,998,-8,10,-6
2900,-62,15,1000,-15,21,0
2901,-124,-10,987,-22,17,-1
2902,-124,-35,982,-22,0,-5
2903,0,-43,995,-15,-17,-10
2904,82,-30,1013,-10,-19,-10
2905,126,-3,998,-9,-7,-10
2906,51,-1,1007,-12,12,-3
2907,-78,11,995,-18,22,1
2908,-137,-19,988,-21,15,-3
2909,-105,-47,985,-18,-3,-7
2910,9,-40,1007,-13,-18,-10
2911,107,-27,1000,-8,-18,-12
2912,112,3,1005,-9,-3,-9
2913,21,6,1006,-13,15,-1
2914,-104,8,988,-18,21,3
2915,-141,-22,1000,-21,10,-3
2916,-68,-49,982,-19,-8,-8
2917,30,-41,1002,-12,-17,-10
2918,125,-22,1010,-7,-15,-11
2919,91,0,1003,-8,2,-6
2920,-13,19,1005,-13,17,0
2921,-123,1,992,-21,21,-1
2922,-132,-34,980,-24,7,-4
2923,-46,-48,993,-18,-11,-9
2924,63,-43,1004,-13,-19,-12
2925,119,-18,1008,-7,-13,-10
2926,80,6,1004,-9,5,-6
2927,-44,11,995,-15,19,0
2928,-137,2,1001,-20,17,1
2929,-118,-36,973,-23,2,-7
2930,-16,-46,1000,-14,-15,-10
2931,88,-35,1009,-11,-19,-10
2932,119,-13,1003,-7,-7,-11
2933,50,6,1002,-10,11,-3
2934,-86,14,993,-17,21,3
2935,-135,-18,993,-22,13,-2
2936,-95,-40,983,-20,-3,-5
2937,21,-45,1007,-15,-17,-11
2938,122,-29,1007,-7,-17,-13
2939,94,-3,995,-7,1,-5
2940,2,23,1010,-12,15,-2
2941,-111,0,987,-19,19,0
2942,-138,-14,990,-22,10,-2
2943,-51,-62,996,-21,-10,-8
2944,49,-49,1001,-11,-19,-12
2945,127,-23,1004,-8,-13,-10
2946,76,6,1005,-6,7,-6
2947,-37,23,1003,-12,18,0
2948,-124,6,985,-20,16,-1
2949,-126,-33,986,-23,4,-4
2950,-21,-49,1000,-19,-14,-9
2951,82,-48,998,-10,-17,-13
2952,119,-17,1008,-5,-9,-10
2953,54,12,1006,-8,9,-5
2954,-70,13,990,-15,21,1
2955,-133,-4,995,-21,15,-1
2956,-112,-36,978,-22,0,-6
2957,5,-38,1006,-12,-16,-11
2958,110,-41,1004,-11,-19,-13
2959,107,-4,1010,-7,-3,-7
2960,29,6,995,-11,13,-3
2961,-103,14,1000,-18,22,0
2962,-135,-22,981,-22,10,-1
2963,-89,-39,993,-20,-6,-7
2964,37,-52,1007,-15,-18,-11
2965,123,-23,1003,-7,-16,-12
2966,95,-3,1002,-8,2,-6
2967,-14,20,1005,-11,18,0
2968,-110,6,986,-19,20,0
2969,-144,-23,992,-22,9,-1
2970,-52,-49,992,-17,-10,-7
2971,70,-44,1006,-12,-19,-13
2972,125,-24,1003,-8,-11,-9
2973,71,11,1002,-7,7,-5
2974,-43,9,999,-14,20,-1
2975,-133,0,993,-21,19,0
2976,-123,-31,978,-23,3,-4
2977,-17,-45,1002,-18,-14,-11
2978,80,-44,1003,-10,-19,-13
2979,126,-10,1003,-8,-9,-11
2980,44,-1,1006,-11,10,-3
2981,-73,22,990,-15,21,0
2982,-129,-16,994,-22,14,-2
2983,-115,-34,981,-22,-2,-4
2984,13,-43,1000,-14,-19,-12
2985,107,-35,1011,-9,-18,-14
2986,103,-12,1003,-7,-3,-5
2987,22,17,999,-9,13,-3
2988,-93,5,999,-19,20,0
2989,-139,-13,981,-21,11,0
2990,-82,-38,998,-20,-6,-6
2991,37,-46,1002,-14,-19,-12
2992,121,-29,1008,-8,-15,-11
2993,90,0,998,-8,2,-6
2994,-9,12,1010,-12,17,-2
2995,-111,-1,983,-20,19,2
2996,-141,-25,996,-23,9,-2
2997,-46,-46,992,-17,-12,-9
2998,58,-39,1008,-11,-18,-12
2999,127,-16,996,-7,-13,-11
3000,65,8,1011,-8,6,-5
3001,-33,13,996,-15,18,-1
3002,-130,-8,994,-20,18,1
3003,-125,-33,979,-20,4,-4
3004,-21,-51,1005,-16,-13,-10
3005,85,-41,996,-8,-20,-13
3006,112,-7,1012,-7,-7,-9
3007,52,14,997,-9,9,-6
3008,-69,16,999,-15,20,2
3009,-129,-11,986,-22,16,-1
3010,-113,-34,985,-22,0,-6
3011,11,-55,998,-15,-17,-10
3012,98,-34,1009,-9,-16,-12
3013,115,-13,1001,-7,-3,-9
3014,20,13,1006,-9,15,-2
3015,-93,13,991,-17,21,2
3016,-136,-6,987,-21,13,-1
3017,-95,-37,994,-21,-7,-7
3018,43,-46,1003,-16,-19,-13
3019,116,-38,1004,-10,-15,-12
3020,97,-4,1006,-7,2,-6
3021,-9,13,998,-11,17,-1
3022,-116,6,993,-18,20,0
3023,-139,-24,990,-21,9,-2
3024,-52,-38,992,-20,-10,-9
3025,65,-40,1009,-12,-20,-13
3026,121,-23,999,-9,-13,-10
3027,75,1,1004,-8,7,-7
3028,-41,11,1005,-14,21,-1
3029,-124,-3,986,-21,18,-2
3030,-126,-29,985,-20,4,-4
3031,-17,-41,1001,-16,-14,-10
3032,76,-39,1001,-11,-18,-13
3033,116,-11,1008,-7,-9,-9
3034,50,9,1002,-12,9,-5
3035,-66,14,998,-16,20,0
3036,-133,-10,989,-23,14,0
3037,-109,-35,986,-22,-2,-7
3038,2,-48,1002,-13,-17,-10
3039,92,-24,1006,-4,-14,-9
3040,108,-18,998,-9,-4,-9
3041,40,11,1009,-9,11,-2
3042,-80,8,990,-17,21,2
3043,-144,-10,990,-20,12,-2
3044,-82,-45,991,-20,-6,-7
3045,16,-45,1004,-13,-16,-11
3046,120,-31,999,-8,-16,-12
3047,96,-7,1006,-8,0,-7
3048,1,21,1002,-10,15,0
3049,-112,5,988,-21,20,1
3050,-138,-18,993,-22,9,-5
3051,-61,-50,992,-19,-9,-8
3052,59,-49,997,-12,-20,-14
3053,123,-24,1008,-5,-13,-10
3054,79,9,1000,-6,6,-6
3055,-38,17,1003,-14,19,0
3056,-126,3,990,-20,16,-1
3057,-132,-30,981,-22,3,-4
3058,-22,-51,998,-18,-15,-10
3059,84,-43,1002,-12,-20,-12
3060,117,-18,1006,-7,-9,-9
3061,54,16,1002,-8,10,-2
3062,-62,13,996,-15,21,1
3063,-135,-5,993,-22,16,2
3064,-112,-37,979,-23,0,-5
3065,2,-38,1006,-15,-16,-11
3066,105,-35,1006,-11,-20,-12
3067,107,-14,1002,-7,-2,-9
3068,31,5,996,-11,12,-3
3069,-96,11,1005,-17,21,1
3070,-135,-10,974,-21,13,-2
3071,-89,-36,1000,-20,-5,-7
3072,37,-44,1012,-17,-21,-12
3073,119,-32,993,-9,-15,-12
3074,91,-4,1010,-7,0,-7
3075,-2,9,998,-12,16,0
3076,-116,7,987,-18,20,1
3077,-134,-23,993,-23,8,-4
3078,-53,-44,996,-16,-8,-9
3079,59,-48,997,-14,-19,-12
3080,117,-21,1011,-8,-13,-11
3081,81,4,996,-9,4,-5
3082,-42,19,1009,-13,20,2
3083,-127,-1,983,-21,18,1
3084,-125,-27,994,-21,4,-5
3085,-18,-47,991,-19,-15,-9
3086,76,-47,1003,-11,-17,-12
3087,124,-14,1011,-6,-9,-12
3088,47,9,998,-11,9,-4
3089,-64,22,1000,-13,20,0
3090,-128,-14,992,-22,15,1
3091,-111,-30,982,-21,-2,-5
3092,8,-50,1000,-15,-17,-12
3093,101,-36,1009,-11,-18,-13
3094,110,-6,1004,-8,-3,-8
3095,23,9,1003,-11,14,-4
3096,-96,9,993,-17,22,2
3097,-132,-12,986,-19,12,-2
3098,-86,-35,991,-20,-6,-9
3099,34,-49,1006,-15,-18,-12
3100,119,-29,1004,-7,-16,-12
3101,93,-9,999,-9,0,-7
3102,-5,20,1005,-11,16,-3
3103,-118,7,988,-20,21,1
3104,-131,-25,990,-22,8,-3
3105,-55,-49,994,-20,-10,-9
3106,61,-46,1003,-13,-20,-13
3107,127,-22,1005,-8,-12,-11
3108,70,5,1002,-8,7,-5
3109,-44,22,1004,-14,18,1
3110,-125,-8,988,-22,18,-2
3111,-124,-28,987,-21,4,-3
3112,-17,-44,996,-17,-14,-10
3113,83,-41,1006,-11,-18,-14
3114,114,-17,1004,-6,-7,-9
3115,52,9,1002,-10,10,-6
3116,-75,3,994,-15,22,0
3117,-127,-2,993,-19,13,0
3118,-111,-38,981,-21,0,-5
3119,6,-42,1003,-15,-17,-11
3120,101,-37,1015,-10,-18,-12
3121,109,-3,993,-9,-4,-8
3122,20,8,1009,-10,12,-2
3123,-85,15,993,-18,19,-1
3124,-137,-24,981,-22,12,-1
3125,-83,-31,997,-20,-6,-6
3126,29,-55,1004,-16,-17,-11
3127,118,-26,999,-6,-15,-11
3128,92,-3,1006,-7,2,-6
3129,-6,16,1004,-12,16,-2
3130,-112,9,986,-18,20,3
3131,-133,-19,991,-22,8,-3
3132,-61,-49,997,-21,-11,-7
3133,62,-46,991,-11,-20,-13
3134,116,-28,1014,-7,-12,-10
3135,79,9,993,-7,5,-7
3136,-42,12,1012,-14,21,0
3137,-117,3,980,-20,17,1
3138,-132,-27,996,-21,6,-4
3139,-14,-39,990,-19,-14,-11
3140,78,-42,1008,-11,-17,-12
3141,116,-16,1001,-7,-8,-9
3142,49,-1,1007,-10,10,-5
3143,-68,8,992,-13,21,1
3144,-126,-7,994,-20,16,0
3145,-112,-33,982,-20,0,-6
3146,9,-40,1004,-15,-18,-11
3147,98,-33,1000,-11,-16,-12
3148,107,0,1010,-8,-3,-8
3149,23,5,998,-12,12,-3
3150,-97,9,995,-17,20,0
3151,-129,-22,979,-22,11,-1
3152,-93,-42,1000,-18,-6,-7
3153,45,-44,998,-13,-19,-12
3154,110,-26,1007,-7,-14,-10
3155,91,5,1002,-7,0,-6
3156,-11,18,1005,-14,16,-2
3157,-110,5,981,-20,19,-1
3158,-141,-18,994,-23,7,-3
3159,-41,-52,993,-18,-12,-10
3160,54,-44,1002,-11,-17,-10
3161,123,-24,1003,-7,-14,-11
3162,70,10,1000,-7,7,-5
3163,-35,16,1007,-14,19,1
3164,-129,-5,984,-20,19,1
3165,-123,-26,990,-21,4,-4
3166,-19,-48,999,-18,-15,-10
3167,75,-45,999,-12,-18,-13
3168,121,-14,1007,-5,-8,-10
3169,56,4,1006,-9,9,-3
3170,-71,19,992,-16,22,2
3171,-129,-12,992,-22,15,0
3172,-111,-34,984,-21,0,-6
3173,5,-44,1000,-16,-17,-9
3174,103,-35,1003,-8,-18,-14
3175,106,-9,1010,-7,-3,-8
3176,30,9,997,-11,12,-3
3177,-98,12,994,-16,23,2
3178,-130,-21,987,-22,11,-1
3179,-90,-34,997,-20,-6,-7
3180,34,-43,998,-14,-19,-12
3181,117,-33,1010,-9,-16,-12
3182,95,-6,993,-8,0,-7
3183,-12,16,1010,-13,17,-1
3184,-106,4,980,-17,19,0
3185,-135,-15,1002,-22,8,0
3186,-49,-47,980,-21,-11,-8
3187,55,-43,1016,-10,-18,-12
3188,125,-29,997,-9,-13,-11
3189,64,3,1001,-7,6,-5
3190,-30,13,1006,-14,18,-1
3191,-125,0,989,-21,20,1
3192,-116,-26,986,-21,3,-4
3193,-27,-42,1004,-19,-13,-10
3194,78,-47,999,-11,-20,-12
3195,114,-10,1002,-6,-9,-9
3196,52,2,1004,-10,9,-5
3197,-65,13,995,-15,20,1
3198,-123,-15,990,-21,14,-1
3199,-114,-30,987,-20,-1,-5
3200,10,-47,996,-16,-18,-11
3201,94,-31,1014,-9,-16,-12
3202,117,-8,997,-10,-4,-8
3203,16,11,1011,-8,16,-3
3204,-83,13,985,-19,21,-1
3205,-143,-14,993,-22,13,-1
3206,-81,-40,987,-19,-6,-9
3207,30,-51,1012,-15,-17,-10
3208,115,-26,996,-8,-16,-13
3209,95,-6,1011,-6,2,-8
3210,-3,19,998,-12,18,-2
3211,-115,7,983,-19,22,3
3212,-129,-20,1001,-21,8,-4
3213,-60,-48,984,-19,-10,-8
3214,57,-44,1003,-11,-19,-13
3215,126,-23,1009,-8,-14,-12
3216,71,14,997,-8,5,-4
3217,-35,11,1001,-15,20,0
3218,-130,3,997,-21,18,0
3219,-118,-32,978,-23,1,-4
3220,-29,-49,1001,-19,-14,-9
3221,80,-50,1002,-11,-20,-12
3222,116,-13,1004,-6,-9,-10
3223,54,7,1005,-10,8,-5
3224,-66,15,996,-16,20,1
3225,-129,0,990,-21,15,0
3226,-112,-33,988,-23,-1,-6
3227,4,-47,998,-15,-17,-11
3228,97,-41,1010,-10,-17,-13
3229,114,-20,1002,-8,-3,-9
3230,23,14,1003,-8,13,-3
3231,-93,9,991,-18,22,1
3232,-133,-8,990,-20,13,-1
3233,-81,-40,991,-21,-6,-7
3234,27,-40,1010,-13,-16,-12
3235,118,-35,993,-8,-15,-11
3236,92,-1,1011,-8,2,-7
3237,-4,11,993,-15,17,0
3238,-109,11,994,-18,22,-2
3239,-127,-28,991,-22,8,-2
3240,-66,-38,993,-18,-9,-7
3241,63,-44,1007,-11,-20,-13
3242,116,-20,1005,-6,-12,-11
3243,76,6,994,-8,4,-5
3244,-38,14,1015,-13,19,0
3245,-121,-2,982,-22,17,0
3246,-125,-31,986,-22,5,-3
3247,-21,-47,1003,-18,-14,-10
3248,74,-44,1002,-12,-19,-12
3249,121,-23,1002,-5,-8,-11
3250,51,9,1012,-8,10,-3
3251,-57,21,989,-14,21,1
3252,-139,-7,994,-21,17,-1
3253,-106,-27,982,-22,-1,-6
3254,0,-44,1004,-15,-17,-10
3255,104,-44,1000,-11,-18,-14
3256,101,-10,1012,-7,-3,-8
3257,43,5,996,-8,12,-4
3258,-99,10,995,-15,22,3
3259,-131,-9,981,-21,13,-1
3260,-97,-32,996,-20,-4,-7
3261,35,-42,1003,-16,-20,-12
3262,101,-31,1005,-9,-15,-10
3263,96,-7,999,-11,-1,-8
3264,8,3,1010,-12,15,-3
3265,-100,-2,978,-15,20,0
3266,-137,-18,1002,-19,11,-2
3267,-67,-40,985,-18,-9,-8
3268,34,-26,1001,-11,-20,-9
3269,124,-19,1008,-11,-16,-12
3270,92,2,1002,-10,3,-7
3271,-12,5,1004,-15,18,-1
3272,-118,-4,997,-20,21,-1
3273,-139,-35,972,-22,7,-4
3274,-43,-48,1006,-15,-11,-10
3275,62,-34,996,-10,-21,-11
3276,118,-10,1011,-4,-10,-9
3277,88,15,1003,-8,6,-7
3278,-52,13,1000,-17,22,1
3279,-131,-6,992,-20,18,1
3280,-128,-40,977,-24,2,-6
3281,-16,-59,998,-15,-15,-11
3282,88,-35,1007,-8,-20,-10
3283,120,-7,1009,-5,-6,-10
3284,55,11,995,-8,11,-4
3285,-84,20,1003,-14,22,1
3286,-140,-14,981,-22,13,-2
3287,-103,-42,992,-21,-5,-5
3288,21,-50,1000,-16,-19,-11
3289,104,-30,1007,-7,-18,-12
3290,113,-8,994,-8,-3,-8
3291,2,9,1018,-11,14,-1
3292,-103,12,977,-17,20,1
3293,-141,-13,1001,-22,10,-2
3294,-61,-47,991,-20,-10,-8
3295,45,-50,1001,-13,-18,-10
3296,130,-31,1003,-8,-16,-12
3297,75,0,1002,-7,4,-5
3298,-26,17,1003,-13,17,0
3299,-125,3,987,-20,18,0
3300,-126,-23,988,-21,4,-5
3301,-29,-45,999,-19,-12,-10
3302,69,-43,999,-11,-19,-12
3303,121,-15,1005,-6,-10,-10
3304,57,8,1006,-10,9,-4
3305,-63,10,995,-15,22,1
3306,-129,-8,991,-20,16,1
3307,-115,-36,987,-22,0,-6
3308,4,-48,996,-15,-17,-11
3309,97,-34,1008,-11,-17,-12
3310,111,-4,1006,-8,-5,-8
3311,27,10,1000,-9,12,-2
3312,-89,12,992,-19,21,0
3313,-133,-15,988,-20,12,-2
3314,-88,-43,989,-19,-5,-7
3315,34,-46,1010,-15,-18,-12
3316,118,-30,996,-7,-15,-12
3317,94,3,1007,-4,2,-7
3318,-5,16,1002,-12,17,-1
3319,-116,10,982,-19,20,0
3320,-137,-24,999,-24,8,-3
3321,-51,-45,990,-20,-11,-9
3322,57,-46,1002,-11,-18,-12
3323,126,-26,1013,-7,-13,-11
3324,74,7,996,-9,6,-5
3325,-37,13,1006,-13,19,-2
3326,-126,7,987,-20,18,-1
3327,-124,-30,987,-23,4,-4
3328,-22,-45,998,-19,-14,-11
3329,70,-47,1001,-12,-19,-12
3330,125,-12,1011,-5,-8,-11
3331,48,2,1000,-12,10,-3
3332,-60,19,994,-14,21,1
3333,-132,-8,999,-20,16,-1
3334,-115,-31,973,-22,-1,-5
3335,4,-42,1005,-17,-18,-11
3336,100,-41,1008,-12,-19,-14
3337,113,-14,998,-8,-5,-7
3338,29,14,1000,-8,13,-3
3339,-93,8,996,-20,21,1
3340,-133,-11,983,-21,13,-1
3341,-88,-42,991,-19,-5,-7
3342,27,-45,1006,-14,-19,-12
3343,127,-33,1007,-8,-16,-12
3344,83,-3,998,-8,2,-6
3345,2,19,1004,-14,15,-2
3346,-120,2,994,-19,22,0
3347,-131,-17,982,-23,8,-3
3348,-62,-50,1001,-18,-10,-9
3349,61,-38,1006,-13,-19,-13
3350,123,-23,1001,-8,-12,-9
3351,68,6,999,-8,6,-5
3352,-33,10,1011,-15,18,-1
3353,-127,-3,982,-21,18,1
3354,-125,-31,981,-22,4,-4
3355,-18,-45,1008,-17,-14,-11
3356,77,-44,996,-11,-18,-12
3357,119,-14,1004,-5,-8,-10
3358,47,10,1016,-10,9,-4
3359,-66,9,982,-15,19,0
3360,-128,-7,996,-20,15,0
3361,-108,-40,978,-21,-2,-6
3362,3,-39,1006,-13,-17,-11
3363,104,-39,1001,-10,-16,-13
3364,102,-8,1009,-8,-2,-7
3365,33,10,997,-11,11,-2
3366,-98,11,1000,-17,21,2
3367,-129,-15,977,-22,11,-1
3368,-87,-43,1001,-21,-5,-7
3369,36,-48,1004,-14,-18,-12
3370,113,-28,1003,-7,-14,-11
3371,100,1,1008,-6,1,-8
3372,-13,15,994,-13,16,-1
3373,-110,13,994,-17,23,-1
3374,-131,-29,992,-20,9,-3
3375,-55,-45,993,-19,-11,-9
3376,66,-52,1001,-14,-19,-13
3377,118,-25,1012,-6,-12,-11
3378,67,5,995,-9,5,-5
3379,-35,16,1005,-13,19,-1
3380,-124,0,992,-19,19,1
3381,-122,-26,977,-23,4,-4
3382,-21,-41,1008,-16,-14,-11
3383,77,-44,998,-14,-18,-11
3384,114,-18,1005,-9,-8,-9
3385,51,1,1002,-11,10,-4
3386,-65,14,999,-15,21,0
3387,-124,-11,988,-20,15,-1
3388,-115,-31,985,-20,-1,-5
3389,9,-40,1003,-16,-18,-11
3390,95,-38,1005,-11,-18,-13
3391,109,-12,1006,-8,-3,-9
3392,28,8,1001,-10,12,-3
3393,-95,13,990,-17,21,2
3394,-129,-15,986,-24,10,-1
3395,-93,-46,993,-20,-5,-8
3396,37,-42,1007,-13,-17,-12
3397,112,-32,1001,-7,-15,-13
3398,96,-4,1005,-6,0,-5
3399,-4,14,1000,-13,17,-1
3400,-121,4,986,-19,20,0
3401,-125,-22,993,-20,6,-3
3402,-58,-45,997,-19,-10,-8
3403,62,-41,994,-11,-19,-11
3404,122,-25,1011,-7,-11,-11
3405,65,11,995,-8,6,-4
3406,-36,13,1004,-15,17,0
3407,-128,-5,989,-22,17,0
3408,-116,-32,984,-21,3,-2
3409,-20,-43,1003,-16,-13,-10
3410,83,-40,1002,-11,-19,-13
3411,118,-6,1006,-7,-8,-9
3412,47,13,1004,-13,9,-3
3413,-72,9,994,-18,21,1
3414,-128,-13,986,-21,15,-1
3415,-111,-40,987,-20,-1,-6
3416,11,-46,1001,-14,-16,-10
3417,106,-36,1005,-8,-16,-14
3418,104,-2,1005,-5,-3,-8
3419,19,10,1003,-9,13,-2
3420,-92,13,991,-19,21,0
3421,-138,-19,986,-24,13,-1
3422,-85,-37,998,-20,-6,-7
3423,40,-53,1001,-15,-19,-11
3424,120,-31,1007,-5,-14,-11
3425,91,0,1001,-7,2,-6
3426,-5,16,1000,-14,17,-2
3427,-120,4,990,-19,19,1
3428,-130,-21,988,-23,7,-3
3429,-53,-49,999,-20,-11,-10
3430,61,-47,993,-11,-19,-12
3431,116,-18,1016,-8,-11,-10
3432,73,8,992,-7,5,-8
3433,-37,16,1009,-13,20,0
3434,-127,-2,989,-21,18,-1
3435,-123,-31,984,-22,2,-3
3436,-20,-46,998,-18,-16,-11
3437,78,-39,1005,-10,-20,-12
3438,118,-16,1002,-7,-8,-9
3439,51,13,1008,-10,9,-4
3440,-66,14,995,-16,20,0
3441,-128,-8,987,-20,16,-1
3442,-114,-44,982,-21,-1,-4
3443,5,-40,1001,-14,-17,-12
3444,104,-37,1006,-10,-18,-12
3445,108,-4,1007,-6,-3,-8
3446,24,14,1000,-10,13,-2
3447,-94,8,995,-18,21,0
3448,-132,-16,988,-22,11,-1
3449,-93,-44,990,-22,-5,-6
3450,39,-50,1008,-15,-19,-11
3451,118,-30,1004,-6,-15,-12
3452,90,5,1001,-6,2,-7
3453,-4,14,1003,-13,18,-2
3454,-115,2,987,-18,20,1
3455,-131,-13,993,-22,6,-3
3456,-51,-49,993,-20,-10,-9
3457,60,-45,1001,-12,-18,-12
3458,123,-27,1003,-6,-13,-11
3459,70,6,999,-8,6,-6
3460,-37,15,1006,-14,19,0
3461,-123,0,989,-20,18,0
3462,-118,-31,981,-22,4,-5
3463,-26,-45,1004,-16,-13,-9
3464,83,-48,997,-10,-18,-13
3465,114,-13,1009,-5,-6,-10
3466,50,9,998,-9,10,-3
3467,-67,15,1005,-14,21,0
3468,-129,-9,984,-23,15,-1
3469,-112,-33,989,-21,0,-5
3470,12,-50,1000,-14,-17,-12
3471,92,-32,1010,-9,-17,-10
3472,117,-10,1002,-8,-4,-9
3473,19,7,1008,-9,13,-2
3474,-93,13,987,-17,20,1
3475,-132,-17,989,-20,12,-3
3476,-83,-37,992,-19,-6,-8
3477,26,-44,1010,-14,-18,-10
3478,122,-29,998,-9,-17,-13
3479,91,-3,1005,-6,0,-7
3480,-9,13,1002,-12,17,-2
3481,-114,0,989,-18,20,0
3482,-133,-27,990,-21,7,-2
3483,-56,-39,996,-17,-11,-7
3484,67,-45,1002,-12,-19,-12
3485,124,-20,1010,-7,-12,-11
3486,69,15,997,-7,6,-4
3487,-42,12,1006,-15,19,0
3488,-127,-6,986,-22,18,2
3489,-125,-31,983,-23,3,-3
3490,-19,-54,1006,-17,-16,-10
3491,80,-39,999,-9,-19,-11
3492,124,-12,1005,-6,-9,-9
3493,41,10,1003,-9,9,-3
3494,-62,21,1003,-16,20,0
3495,-130,-13,979,-22,16,-1
3496,-112,-34,991,-22,-2,-5
3497,7,-50,1000,-16,-17,-11
3498,104,-40,1005,-9,-18,-14
3499,108,-9,1002,-6,-2,-7
3500,26,18,1010,-9,14,-3
3501,-92,7,986,-16,22,1
3502,-144,-10,988,-22,14,0
3503,-79,-41,994,-21,-8,-9
3504,33,-49,1010,-14,-19,-13
3505,120,-27,993,-8,-16,-11
3506,96,-2,1015,-6,2,-9
3507,-7,8,999,-13,16,0
3508,-117,10,982,-20,21,2
3509,-137,-23,1002,-22,8,-4
3510,-55,-37,988,-17,-11,-7
3511,64,-47,1002,-13,-19,-11
3512,124,-25,1005,-7,-12,-11
3513,72,6,1004,-8,5,-5
3514,-39,13,1001,-15,20,-1
3515,-128,0,986,-22,19,1
3516,-123,-33,985,-21,4,-4
3517,-22,-41,1002,-18,-13,-10
3518,80,-48,996,-11,-18,-11
3519,118,-10,1011,-5,-8,-10
3520,51,10,1004,-9,9,-3
3521,-67,18,992,-14,21,1
3522,-132,-11,999,-22,16,0
3523,-113,-36,975,-22,0,-5
3524,6,-47,1008,-14,-17,-10
3525,107,-42,999,-10,-18,-13
3526,110,-9,1010,-8,-3,-8
3527,33,12,998,-11,12,-3
3528,-99,11,997,-19,22,1
3529,-134,-18,983,-21,11,-1
3530,-85,-32,994,-19,-5,-5
3531,30,-47,1008,-15,-18,-12
3532,117,-29,1002,-10,-15,-11
3533,100,-5,1004,-7,2,-6
3534,-10,12,1004,-13,18,-1
3535,-111,1,987,-19,20,0
3536,-132,-20,995,-20,9,-3
3537,-55,-46,992,-18,-10,-7
3538,59,-38,1007,-10,-18,-13
3539,120,-21,1007,-9,-12,-11
3540,69,4,998,-9,6,-6
3541,-34,14,1006,-13,19,0
3542,-125,-1,987,-22,19,0
3543,-124,-32,982,-23,4,-4
3544,-23,-46,1004,-19,-13,-10
3545,82,-47,999,-12,-20,-12
3546,113,-10,1007,-5,-8,-9
3547,56,1,1003,-10,10,-5
3548,-70,15,998,-14,21,2
3549,-125,-2,984,-21,15,-1
3550,-118,-32,990,-22,-1,-5
3551,8,-42,997,-16,-18,-10
3552,95,-40,1008,-11,-18,-12
3553,108,-10,1002,-8,-3,-7
3554,22,8,1007,-9,14,-2
3555,-81,9,986,-18,21,0
3556,-140,-6,989,-21,12,-1
3557,-81,-41,993,-21,-7,-8
3558,29,-49,1004,-15,-18,-11
3559,122,-30,1004,-8,-16,-12
3560,90,0,1003,-7,1,-6
3561,-2,14,999,-14,15,-2
3562,-114,8,996,-19,20,2
3563,-137,-30,983,-22,8,-2
3564,-59,-37,1001,-18,-9,-8
3565,63,-53,1002,-12,-21,-13
3566,118,-16,1004,-8,-12,-10
3567,75,3,1001,-10,5,-5
3568,-36,21,1010,-13,19,0
3569,-126,-8,978,-24,17,1
3570,-127,-26,990,-19,4,-6
3571,-23,-54,1001,-18,-15,-9
3572,77,-34,992,-10,-18,-12
3573,124,-20,1015,-7,-9,-10
3574,51,14,1001,-10,10,-4
3575,-65,16,998,-17,21,0
3576,-132,-9,988,-20,16,0
3577,-114,-38,987,-22,-1,-4
3578,14,-45,998,-14,-18,-12
3579,95,-34,1010,-9,-17,-12
3580,111,-8,1002,-8,-4,-8
3581,25,14,1006,-10,15,-2
3582,-92,6,990,-19,21,0
3583,-130,-17,989,-21,13,-2
3584,-88,-40,988,-20,-5,-7
3585,38,-42,1013,-15,-18,-13
3586,116,-41,994,-7,-15,-12
3587,90,6,1009,-7,1,-7
3588,-1,10,1000,-14,15,-3
3589,-117,9,986,-19,22,1
3590,-128,-21,993,-22,8,-1
3591,-55,-36,1002,-19,-9,-9
3592,65,-55,993,-15,-19,-12
3593,114,-22,1011,-8,-12,-10
3594,73,-2,998,-9,6,-5
3595,-40,14,1004,-11,21,-1
3596,-124,-2,986,-21,18,2
3597,-120,-23,988,-20,4,-4
3598,-20,-42,1002,-18,-13,-8
3599,74,-41,995,-11,-16,-13
3600,115,-16,1016,-6,-7,-11
3601,51,3,992,-12,9,-3
3602,-67,11,997,-14,20,-2
3603,-119,-3,994,-18,14,-2
3604,-113,-37,984,-20,1,-4
3605,2,-37,988,-14,-16,-11
3606,87,-42,1023,-14,-17,-11
3607,104,-12,991,-8,-6,-9
3608,36,7,1007,-10,10,-3
3609,-72,9,999,-17,20,0
3610,-141,-15,986,-18,14,1
3611,-86,-34,986,-18,-5,-7
3612,12,-46,1016,-13,-16,-11
3613,113,-23,990,-8,-17,-12
3614,95,-2,1011,-8,1,-8
3615,13,8,999,-14,14,-3
3616,-110,0,988,-19,21,3
3617,-128,-25,996,-20,7,-5
3618,-71,-47,989,-17,-8,-8
3619,60,-35,1003,-11,-19,-13
3620,116,-21,1009,-8,-13,-11
3621,78,9,995,-9,4,-6
3622,-29,19,1009,-14,18,-1
3623,-119,-3,987,-22,18,0
3624,-131,-33,982,-23,6,-4
3625,-27,-43,1003,-18,-13,-10
3626,71,-49,999,-12,-17,-11
3627,111,-7,1002,-5,-9,-9
3628,65,8,1011,-10,8,-5
3629,-57,14,993,-16,22,-1
3630,-132,-12,996,-21,17,-1
3631,-113,-35,978,-22,1,-6
3632,-8,-45,1002,-16,-16,-10
3633,95,-32,1004,-8,-19,-12
3634,114,-12,1007,-7,-4,-9
3635,35,10,1001,-11,11,-3
3636,-85,13,998,-18,22,1
3637,-133,-16,982,-21,13,-3
3638,-97,-43,989,-19,-4,-7
3639,28,-52,1008,-13,-19,-12
3640,116,-28,1001,-7,-16,-12
3641,99,-3,1004,-7,0,-7
3642,0,13,999,-11,16,-1
3643,-112,5,992,-18,20,-1
3644,-133,-20,989,-21,9,-2
3645,-63,-42,991,-19,-8,-6
3646,58,-43,1003,-13,-19,-12
3647,126,-25,1005,-9,-12,-10
3648,74,4,997,-8,4,-5
3649,-33,15,1010,-13,18,-1
3650,-122,-4,983,-22,18,0
3651,-128,-26,983,-21,6,-3
3652,-24,-44,1004,-17,-15,-10
3653,77,-36,998,-9,-18,-13
3654,113,-19,1003,-5,-10,-9
3655,53,15,1008,-10,8,-4
3656,-64,1,991,-17,21,-1
3657,-127,-2,994,-19,16,-1
3658,-112,-39,981,-23,0,-6
3659,6,-48,998,-14,-17,-11
3660,96,-38,1012,-9,-18,-12
3661,110,-5,1004,-6,-4,-9
3662,26,9,1002,-11,13,-3
3663,-90,15,989,-19,22,1
3664,-133,-17,988,-23,12,-2
3665,-89,-40,986,-19,-5,-6
3666,30,-42,1011,-14,-18,-13
3667,111,-30,1000,-8,-17,-12
3668,94,-3,1004,-7,0,-6
3669,1,9,998,-13,15,-2
3670,-107,1,992,-18,20,1
3671,-137,-22,987,-20,8,-2
3672,-59,-43,998,-19,-9,-7
3673,59,-44,1000,-11,-20,-12
3674,108,-18,1006,-8,-11,-9
3675,79,9,1003,-9,3,-6
3676,-28,17,1002,-13,18,0
3677,-126,-2,993,-21,19,1
3678,-123,-33,979,-22,4,-4
3679,-30,-57,1007,-17,-13,-10
3680,80,-39,992,-10,-20,-12
3681,114,-20,1009,-5,-8,-11
3682,63,16,1005,-8,8,-5
3683,-64,19,995,-16,22,1
3684,-132,2,990,-20,15,-1
3685,-112,-36,987,-24,-2,-6
3686,0,-48,995,-16,-18,-12
3687,99,-49,1014,-10,-19,-13
3688,117,-12,1001,-7,-5,-9
3689,26,7,1004,-9,15,-2
3690,-84,18,993,-16,21,0
3691,-142,-11,987,-21,13,-1
3692,-86,-31,993,-18,-7,-8
3693,29,-47,1002,-15,-19,-10
3694,116,-30,1009,-8,-17,-14
3695,96,-10,996,-7,-1,-7
3696,-4,14,1011,-11,16,-2
3697,-110,4,983,-17,20,0
3698,-136,-15,998,-22,8,-2
3699,-58,-44,989,-19,-10,-10
3700,53,-48,1001,-12,-18,-11
3701,127,-21,1010,-7,-13,-11
3702,67,10,999,-8,6,-5
3703,-26,20,1004,-15,18,-1
3704,-126,-3,988,-22,20,1
3705,-124,-33,986,-21,4,-5
3706,-28,-51,995,-16,-12,-10
3707,77,-44,1007,-9,-19,-13
3708,119,-13,998,-5,-9,-9
3709,55,13,1010,-8,10,-4
3710,-62,13,995,-16,20,2
3711,-131,-7,991,-20,16,0
3712,-113,-36,983,-17,-1,-6
3713,0,-44,1002,-16,-15,-10
3714,98,-42,1000,-10,-17,-12
3715,104,-11,1009,-7,-5,-9
3716,37,13,1001,-8,13,-4
3717,-91,11,993,-18,21,1
3718,-130,-11,986,-21,12,-1
3719,-94,-39,995,-19,-5,-6
3720,31,-44,1002,-16,-19,-11
3721,113,-33,1006,-9,-16,-11
3722,94,-4,1001,-7,-1,-7
3723,5,7,1006,-12,16,-3
3724,-118,7,983,-17,21,1
3725,-127,-19,995,-22,8,-2
3726,-53,-44,992,-19,-9,-9
3727,47,-39,1002,-12,-18,-11
3728,130,-22,1004,-10,-13,-12
3729,69,-1,1006,-9,6,-5
3730,-30,17,997,-13,17,0
3731,-120,-3,993,-20,19,-1
3732,-126,-30,987,-22,5,-4
3733,-25,-44,997,-17,-12,-8
3734,77,-43,1002,-11,-17,-14
3735,114,-16,1005,-8,-9,-9
3736,51,8,1003,-9,8,-5
3737,-59,8,997,-14,20,-1
3738,-130,-2,994,-20,15,1
3739,-108,-33,982,-22,-1,-6
3740,4,-51,997,-15,-16,-11
3741,88,-29,1009,-9,-17,-11
3742,114,-20,999,-8,-5,-9
3743,26,16,1007,-10,12,-3
3744,-82,9,986,-17,20,1
3745,-137,-9,995,-21,14,0
3746,-83,-43,983,-21,-5,-8
3747,22,-44,1013,-14,-19,-12
3748,117,-30,999,-9,-17,-11
3749,86,0,1004,-6,2,-8
3750,13,8,1002,-14,15,-2
3751,-118,4,989,-17,20,2
3752,-126,-16,991,-21,7,-3
3753,-65,-44,994,-20,-10,-8
3754,54,-37,1002,-12,-21,-10
3755,118,-29,1005,-10,-13,-11
3756,74,0,1005,-9,6,-6
3757,-28,17,997,-14,17,0
3758,-124,-8,990,-21,19,-1
3759,-117,-24,990,-20,4,-4
3760,-31,-45,995,-18,-13,-7
3761,74,-42,1002,-12,-19,-13
3762,116,-11,1006,-7,-9,-10
3763,52,10,997,-11,9,-6
3764,-61,7,1007,-15,20,0
3765,-123,-5,982,-20,14,0
3766,-117,-38,991,-21,1,-5
3767,4,-46,995,-14,-17,-10
3768,86,-35,1010,-11,-16,-11
3769,115,-10,1005,-9,-6,-9
3770,23,7,1004,-10,13,0
3771,-83,11,991,-16,20,0
3772,-129,-14,989,-21,13,-2
3773,-88,-33,990,-19,-4,-7
3774,23,-44,1006,-18,-16,-11
3775,114,-33,1007,-10,-15,-13
3776,91,-9,995,-7,2,-6
3777,7,15,1011,-12,15,-3
3778,-111,2,988,-18,20,-1
3779,-130,-13,990,-21,9,-1
3780,-64,-48,998,-19,-8,-8
3781,48,-40,996,-11,-19,-12
3782,124,-28,1010,-9,-15,-12
3783,74,6,998,-8,4,-6
3784,-27,10,1005,-15,19,-1
3785,-124,-2,990,-20,19,0
3786,-129,-32,982,-20,6,-4
3787,-28,-41,1000,-16,-14,-9
3788,72,-45,1003,-11,-20,-13
3789,119,-7,1000,-7,-11,-10
3790,60,7,1010,-9,9,-4
3791,-64,12,998,-17,21,2
3792,-131,-6,988,-21,15,-1
3793,-113,-44,985,-23,-1,-6
3794,0,-46,1000,-15,-16,-10
3795,99,-38,1004,-10,-18,-13
3796,105,-8,1008,-5,-4,-8
3797,32,14,1002,-10,11,-2
3798,-87,12,993,-16,21,0
3799,-127,-16,988,-22,14,-1
3800,-99,-37,992,-20,-5,-5
3801,29,-50,1000,-14,-18,-12
3802,108,-41,1010,-9,-17,-11
3803,101,-1,999,-6,-2,-7
3804,6,13,1002,-11,15,-2
3805,-107,14,986,-16,20,1
3806,-136,-17,999,-22,8,-1
3807,-66,-36,987,-22,-9,-8
3808,50,-56,1006,-15,-18,-12
3809,118,-28,1005,-9,-15,-11
3810,80,-3,999,-8,3,-5
3811,-24,23,1009,-9,18,-1
3812,-123,1,984,-20,20,1
3813,-127,-21,990,-22,7,-4
3814,-35,-39,1002,-18,-13,-8
3815,72,-44,998,-14,-19,-13
3816,119,-22,1006,-7,-8,-11
3817,60,3,1003,-9,8,-5
3818,-58,14,1004,-17,21,0
3819,-124,-11,986,-22,16,0
3820,-114,-34,989,-21,0,-4
3821,-4,-43,991,-15,-16,-10
3822,95,-37,1012,-9,-18,-13
3823,109,-13,1005,-8,-6,-7
3824,31,14,1000,-11,13,-3
3825,-80,7,995,-18,22,-1
3826,-136,-14,994,-22,13,-2
3827,-89,-37,979,-21,-4,-8
3828,22,-48,1017,-14,-17,-13
3829,107,-29,996,-9,-16,-12
3830,98,-1,1005,-6,-1,-8
3831,10,7,1003,-13,15,-3
3832,-111,11,992,-17,20,2
3833,-126,-23,984,-20,8,-4
3834,-71,-40,1003,-18,-7,-7
3835,59,-44,995,-13,-19,-11
3836,115,-25,1007,-5,-12,-11
3837,79,-1,1004,-7,3,-6
3838,-25,15,1002,-13,17,-1
3839,-119,-2,986,-20,19,1
3840,-135,-18,992,-21,6,-3
3841,-23,-49,998,-19,-15,-11
3842,64,-44,1003,-11,-18,-12
3843,122,-10,999,-6,-10,-11
3844,53,3,1012,-11,8,-5
3845,-51,13,994,-16,20,0
3846,-131,-4,993,-22,16,1
3847,-103,-32,986,-21,-1,-7
3848,-7,-49,999,-17,-15,-9
3849,91,-41,1000,-10,-18,-12
3850,107,-10,1019,-6,-6,-9
3851,38,9,992,-10,11,-3
3852,-86,12,994,-15,21,2
3853,-127,-3,996,-21,12,-3
3854,-96,-35,983,-21,-4,-6
3855,23,-43,1003,-15,-18,-12
3856,108,-37,1004,-10,-16,-13
3857,99,-4,1005,-7,-2,-7
3858,3,7,998,-11,15,-1
3859,-103,7,990,-18,20,-1
3860,-132,-24,993,-21,9,-2
3861,-68,-41,994,-18,-9,-8
3862,54,-39,998,-12,-18,-12
3863,112,-19,1012,-7,-13,-11
3864,80,3,992,-10,3,-5
3865,-26,17,1006,-15,18,-2
3866,-121,-4,982,-21,18,0
3867,-128,-27,996,-22,6,-3
3868,-30,-51,990,-17,-13,-8
3869,69,-39,1011,-9,-18,-12
3870,124,-15,995,-6,-11,-11
3871,54,11,1008,-9,9,-3
3872,-53,17,1003,-15,20,1
3873,-133,-4,986,-21,17,0
3874,-112,-35,988,-22,0,-5
3875,-2,-51,997,-16,-16,-11
3876,91,-38,1003,-10,-18,-13
3877,118,-16,1011,-7,-7,-9
3878,31,11,997,-9,13,-4
3879,-80,11,993,-15,22,0
3880,-130,-10,996,-21,14,-1
3881,-101,-35,982,-21,-3,-6
3882,27,-39,1007,-14,-18,-13
3883,108,-38,1004,-11,-16,-11
3884,94,-6,1002,-7,-1,-7
3885,15,8,1000,-11,16,-3
3886,-111,5,994,-17,22,1
3887,-129,-15,982,-19,9,-3
3888,-72,-47,998,-18,-6,-7
3889,54,-41,1000,-11,-18,-12
3890,117,-27,1005,-9,-13,-10
3891,76,6,1006,-8,4,-6
3892,-25,8,999,-14,18,0
3893,-119,2,989,-19,18,1
3894,-130,-34,991,-21,6,-1
3895,-27,-48,995,-17,-12,-9
3896,64,-45,1009,-13,-18,-10
3897,125,-13,998,-6,-11,-10
3898,48,6,1003,-8,8,-3
3899,-41,25,1003,-15,18,-2
3900,-130,-12,986,-24,16,1
3901,-113,-32,986,-21,2,-6
3902,-7,-56,1002,-18,-15,-9
3903,90,-33,998,-9,-18,-14
3904,109,-13,1013,-8,-7,-8
3905,43,14,999,-11,12,-4
3906,-83,11,995,-18,21,2
3907,-129,-7,988,-20,13,-1
3908,-101,-44,989,-23,-3,-7
3909,23,-49,997,-13,-17,-12
3910,107,-35,1014,-10,-16,-12
3911,106,-7,993,-8,-3,-8
3912,10,12,1009,-10,16,-2
3913,-106,11,988,-19,21,1
3914,-133,-15,995,-20,10,-1
3915,-69,-39,991,-19,-7,-8
3916,42,-43,1002,-15,-18,-12
3917,128,-28,1006,-9,-16,-12
3918,74,3,1000,-10,5,-4
3919,-12,14,1000,-13,17,0
3920,-126,-1,994,-19,19,0
3921,-128,-25,981,-23,5,-3
3922,-33,-48,1009,-18,-13,-10
3923,68,-44,990,-10,-18,-11
3924,118,-16,1009,-6,-11,-9
3925,64,10,1006,-8,8,-6
3926,-55,11,997,-16,21,0
3927,-127,-4,991,-19,17,-2
3928,-117,-32,984,-21,1,-5
3929,0,-44,1000,-14,-15,-11
3930,88,-36,1001,-9,-18,-12
3931,108,-11,1012,-8,-5,-10
3932,43,12,998,-9,11,-3
3933,-85,12,986,-15,22,1
3934,-125,-15,999,-22,13,-1
3935,-95,-42,979,-22,-2,-5
3936,15,-48,1001,-13,-16,-12
3937,110,-28,1015,-9,-17,-14
3938,99,-7,993,-8,0,-8
3939,10,14,1011,-10,15,-2
3940,-103,11,983,-20,22,1
3941,-131,-16,997,-21,10,-2
3942,-70,-46,993,-21,-9,-7
3943,42,-48,1001,-14,-18,-12
3944,119,-30,1007,-8,-15,-11
3945,85,-1,1000,-6,3,-5
3946,-21,20,1002,-10,17,-1
3947,-119,8,988,-20,18,1
3948,-132,-21,997,-23,5,-3
3949,-38,-47,989,-18,-11,-8
3950,65,-42,1008,-12,-18,-13
3951,121,-28,999,-9,-12,-11
3952,63,3,1005,-9,7,-6
3953,-44,11,998,-14,19,-1
3954,-128,0,995,-18,18,-1
3955,-113,-31,981,-21,2,-5
3956,-20,-43,996,-15,-14,-9
3957,75,-35,1006,-11,-20,-12
3958,114,-8,1005,-8,-8,-8
3959,50,6,1000,-12,10,-5
3960,-56,0,1002,-17,21,-1
3961,-126,-14,986,-21,16,-1
3962,-117,-43,983,-19,1,-5
3963,-9,-45,1006,-11,-17,-10
3964,97,-28,1001,-8,-19,-13
3965,120,0,1007,-6,-6,-8
3966,45,15,1003,-10,12,-4
3967,-85,12,996,-20,23,0
3968,-144,-25,986,-24,14,0
3969,-101,-45,992,-20,-5,-8
3970,20,-55,1001,-14,-19,-11
3971,109,-26,1001,-5,-19,-12
3972,119,-4,1004,-8,-3,-9
3973,9,24,1016,-11,17,-1
3974,-111,8,976,-18,22,2
3975,-145,-16,998,-22,11,-3
3976,-66,-54,990,-20,-10,-7
3977,48,-47,1000,-11,-19,-12
3978,128,-29,1006,-7,-15,-12
3979,83,8,1006,-6,3,-6
3980,-22,15,1000,-13,18,0
3981,-128,6,996,-21,19,1
3982,-133,-25,977,-22,5,-2
3983,-22,-43,1001,-19,-13,-10
3984,77,-41,1000,-12,-20,-12
3985,120,-12,1010,-8,-10,-11
3986,57,3,1003,-12,8,-2
3987,-72,13,993,-15,21,1
3988,-131,-8,994,-20,15,0
3989,-108,-39,978,-21,0,-6
3990,9,-41,1007,-13,-17,-10
3991,104,-37,1004,-10,-17,-13
3992,105,-5,1003,-7,-3,-8
3993,18,9,1001,-11,12,-2
3994,-103,14,994,-18,20,2
3995,-127,-16,985,-21,10,-2
3996,-84,-43,999,-19,-6,-7
3997,49,-51,999,-12,-18,-13
3998,117,-26,1010,-6,-13,-11
3999,80,0,998,-7,4,-5
4000,-12,18,1003,-12,17,-2
4001,-122,4,990,-19,20,1
4002,-125,-16,988,-23,7,-3
4003,-47,-51,999,-20,-10,-9
4004,74,-49,1003,-12,-19,-12
4005,120,-23,1003,-6,-10,-10
4006,58,9,1000,-9,7,-6
4007,-46,16,1012,-11,17,0
4008,-125,0,980,-21,16,0
4009,-119,-27,991,-20,2,-5
4010,-4,-48,1002,-18,-16,-11
4011,85,-47,997,-10,-18,-11
4012,109,-16,1009,-6,-6,-8
4013,44,10,1004,-11,11,-5
4014,-82,12,993,-17,22,1
4015,-121,-7,988,-20,12,-2
4016,-108,-36,991,-22,-2,-6
4017,18,-41,996,-15,-18,-12
4018,108,-40,1015,-9,-16,-12
4019,99,-6,998,-7,-2,-8
4020,13,10,1003,-11,14,-3
4021,-98,7,994,-18,20,-1
4022,-137,-11,984,-22,12,0
4023,-72,-44,995,-20,-7,-7
4024,42,-47,1006,-13,-18,-11
4025,117,-29,999,-7,-14,-10
4026,90,3,1005,-7,2,-7
4027,-12,8,1008,-14,17,-2
4028,-113,11,978,-19,20,1
4029,-136,-23,1000,-23,7,-2
4030,-40,-51,990,-19,-11,-10
4031,59,-43,1005,-10,-18,-12
4032,120,-13,1004,-7,-12,-9
4033,66,3,1001,-9,7,-6
4034,-38,14,1003,-15,20,-1
4035,-129,-2,984,-21,17,1
4036,-118,-29,988,-21,3,-5
4037,-18,-57,998,-19,-13,-9
4038,74,-36,999,-10,-17,-13
4039,110,-19,1010,-8,-9,-9
4040,63,13,1003,-8,9,-5
4041,-67,13,997,-16,22,1
4042,-130,-3,995,-21,15,-2
4043,-110,-37,977,-23,-1,-5
4044,2,-52,1005,-15,-16,-9
4045,93,-40,1000,-10,-19,-11
4046,117,-9,1008,-7,-6,-10
4047,35,12,998,-9,12,-2
4048,-93,23,1002,-18,23,1
4049,-133,-20,982,-21,14,-2
4050,-105,-40,995,-21,-4,-6
4051,34,-51,1000,-15,-20,-12
4052,108,-37,1005,-7,-16,-11
4053,102,7,1000,-4,0,-7
4054,6,17,1007,-4,12,-4
4055,-110,6,990,-20,24,2
4056,-141,-16,987,-22,10,-2
4057,-61,-56,998,-20,-8,-9
4058,48,-53,997,-12,-20,-10
4059,121,-20,1005,-7,-15,-11
4060,89,4,998,-7,3,-7
4061,-31,19,1015,-12,19,1
4062,-122,10,982,-22,18,1
4063,-133,-31,990,-23,6,-5
4064,-24,-49,998,-20,-15,-9
4065,70,-48,996,-12,-19,-12
4066,118,-17,1008,-6,-11,-12
4067,61,7,1005,-9,8,-4
4068,-55,19,993,-15,21,0
4069,-133,-4,993,-21,18,0
4070,-118,-32,981,-22,2,-6
4071,-2,-48,1003,-17,-17,-10
4072,89,-44,995,-10,-18,-11
4073,111,-5,1016,-6,-6,-9
4074,48,7,995,-10,10,-5
4075,-89,20,997,-16,22,1
4076,-131,-14,987,-21,13,-2
4077,-101,-39,989,-21,-2,-8
4078,27,-47,1007,-15,-19,-12
4079,107,-31,1000,-7,-16,-12
4080,103,-8,1008,-7,0,-8
4081,9,15,998,-12,16,-1
4082,-109,9,997,-18,22,0
4083,-138,-21,990,-21,9,-2
4084,-65,-40,989,-18,-7,-8
4085,47,-50,1003,-13,-19,-11
4086,117,-26,1003,-8,-14,-11
4087,91,3,999,-9,1,-7
4088,-26,14,1010,-14,18,1
4089,-124,0,991,-19,20,1
4090,-128,-28,975,-21,5,-4
4091,-36,-49,1009,-16,-12,-10
4092,69,-42,991,-10,-18,-11
4093,119,-19,1012,-5,-10,-11
4094,70,6,998,-8,7,-5
4095,-63,19,1002,-14,21,1
4096,-123,-9,987,-19,16,-2
4097,-131,-31,983,-21,2,-4
4098,1,-49,997,-15,-17,-12
4099,90,-37,1010,-10,-19,-12
4100,115,-8,998,-9,-7,-9
4101,38,11,1008,-10,11,-4
4102,-81,8,996,-17,21,1
4103,-143,-7,983,-20,15,1
4104,-95,-47,993,-21,-6,-7
4105,27,-50,1007,-15,-19,-11
4106,114,-27,995,-7,-16,-11
4107,99,0,1007,-7,0,-8
4108,2,14,1001,-13,15,0
4109,-112,13,988,-17,22,1
4110,-137,-26,992,-23,8,-3
4111,-57,-41,994,-20,-10,-8
4112,59,-55,1003,-13,-18,-13
4113,114,-22,999,-8,-12,-12
4114,81,0,1003,-7,5,-7
4115,-31,21,1005,-12,20,-1
4116,-125,2,989,-22,20,2
4117,-125,-31,981,-20,4,-4
4118,-24,-46,1002,-18,-14,-9
4119,76,-47,994,-10,-18,-12
4120,113,-13,1011,-4,-8,-11
4121,58,5,1005,-10,9,-4
4122,-70,17,995,-13,21,1
4123,-125,-12,992,-22,14,-1
4124,-111,-29,985,-20,1,-5
4125,0,-41,998,-15,-16,-11
4126,104,-35,1012,-10,-18,-12
4127,100,-12,999,-8,-1,-9
4128,30,8,1005,-11,13,-2
4129,-93,7,992,-17,21,1
4130,-134,-14,982,-22,12,0
4131,-81,-35,999,-19,-6,-8
4132,32,-44,1004,-15,-17,-11
4133,119,-30,1000,-9,-15,-12
4134,88,1,1006,-8,1,-8
4135,-7,9,1000,-14,16,-3
4136,-119,8,986,-19,20,1
4137,-124,-23,996,-22,7,-4
4138,-56,-46,994,-20,-10,-8
4139,66,-53,999,-13,-19,-12
4140,119,-22,1012,-6,-12,-11
4141,65,10,994,-8,6,-6
4142,-35,15,1007,-14,19,-1
4143,-130,0,988,-20,19,1
4144,-120,-32,981,-22,5,-4
4145,-18,-47,1005,-17,-15,-12
4146,82,-47,998,-11,-18,-11
4147,114,-10,1006,-6,-7,-9
4148,48,8,1007,-9,8,-6
4149,-70,11,994,-16,21,0
4150,-127,-8,991,-20,15,-2
4151,-109,-32,983,-20,-1,-5
4152,5,-45,999,-14,-17,-11
4153,98,-39,1009,-10,-18,-12
4154,106,-9,1004,-8,-3,-8
4155,21,13,1004,-11,13,-1
4156,-93,9,990,-20,21,2
4157,-127,-19,985,-21,12,-2
4158,-93,-39,1000,-19,-6,-6
4159,41,-47,997,-14,-18,-13
4160,116,-31,1008,-6,-15,-12
4161,88,0,1002,-7,1,-5
4162,-1,16,1002,-11,16,-2
4163,-119,3,988,-18,19,1
4164,-127,-22,991,-22,6,-3
4165,-54,-45,1000,-17,-10,-8
4166,68,-51,997,-13,-19,-12
4167,112,-23,1005,-7,-11,-9
4168,75,14,1003,-6,6,-7
4169,-39,5,1003,-14,19,-1
4170,-130,3,982,-19,18,1
4171,-113,-31,991,-21,4,-5
4172,-21,-43,997,-17,-14,-9
4173,82,-43,1002,-10,-19,-12
4174,118,-14,1008,-6,-9,-10
4175,44,8,1006,-11,10,-4
4176,-65,14,991,-16,21,0
4177,-133,-7,992,-22,15,-1
4178,-105,-34,983,-22,-1,-6
4179,8,-48,999,-16,-16,-13
4180,105,-38,1009,-10,-19,-13
4181,108,-9,998,-8,-3,-8
4182,18,14,1009,-9,15,-3
4183,-95,11,991,-17,21,2
4184,-140,-11,982,-20,12,-2
4185,-77,-38,1000,-21,-8,-7
4186,36,-44,1002,-15,-18,-12
4187,119,-33,998,-10,-14,-10
4188,93,-5,1010,-7,2,-6
4189,-16,10,999,-14,19,0
4190,-112,5,988,-17,21,0
4191,-134,-20,998,-20,8,-2
4192,-47,-39,991,-19,-12,-9
4193,67,-51,1005,-13,-20,-12
4194,118,-20,1002,-6,-12,-11
4195,69,14,999,-9,5,-4
4196,-45,7,1011,-15,18,0
4197,-125,-2,978,-21,16,2
4198,-123,-27,998,-21,3,-4
4199,-16,-48,991,-19,-15,-9
4200,79,-40,1005,-11,-18,-11
4201,120,-16,1007,-7,-8,-10
4202,45,7,1001,-11,10,-3
4203,-74,10,996,-15,20,0
4204,-128,-11,987,-20,15,0
4205,-111,-33,991,-21,0,-4
4206,15,-38,992,-15,-17,-10
4207,105,-38,1015,-10,-17,-11
4208,105,-6,1001,-7,-2,-7
4209,18,7,999,-10,16,-3
4210,-101,6,994,-17,20,1
4211,-130,-18,987,-21,9,-3
4212,-82,-42,994,-18,-8,-7
4213,41,-38,1006,-14,-18,-12
4214,119,-32,1004,-7,-15,-12
4215,86,6,1000,-6,2,-6
4216,-16,13,1002,-16,16,-1
4217,-111,0,990,-18,18,0
4218,-134,-28,987,-24,6,-1
4219,-46,-44,999,-17,-11,-10
4220,63,-52,999,-11,-19,-13
4221,119,-15,1003,-5,-12,-9
4222,66,1,1002,-8,7,-5
4223,-43,16,1004,-12,19,0
4224,-122,-1,985,-21,17,-1
4225,-116,-22,987,-20,2,-5
4226,-17,-47,999,-19,-13,-9
4227,81,-47,1001,-12,-18,-13
4228,113,-21,1006,-6,-7,-9
4229,46,9,1001,-10,10,-4
4230,-68,14,1001,-16,21,1
4231,-130,-11,984,-20,16,1
4232,-107,-29,990,-22,-1,-5
4233,13,-49,998,-14,-17,-12
4234,95,-30,1008,-10,-17,-11
4235,112,-11,1001,-8,-2,-8
4236,19,10,1006,-10,14,-2
4237,-95,6,988,-18,21,2
4238,-138,-18,989,-21,11,-2
4239,-82,-45,992,-18,-6,-8
4240,35,-38,1004,-12,-18,-11
4241,123,-29,1006,-7,-15,-13
4242,85,0,1004,-8,3,-7
4243,-9,17,998,-14,16,-1
4244,-123,4,992,-21,20,-1
4245,-122,-33,991,-23,8,-3
4246,-54,-42,991,-19,-10,-7
4247,68,-46,1010,-10,-20,-13
4248,115,-23,1004,-7,-12,-9
4249,68,14,995,-8,6,-5
4250,-43,15,1014,-14,19,-1
4251,-126,0,983,-22,17,0
4252,-120,-31,981,-22,3,-4
4253,-19,-56,1009,-18,-15,-10
4254,81,-44,995,-10,-19,-13
4255,122,-11,1007,-5,-9,-12
4256,45,12,1010,-10,9,-3
4257,-61,18,990,-16,22,0
4258,-135,-6,993,-22,15,-1
4259,-106,-29,987,-23,-2,-5
4260,10,-54,996,-17,-17,-11
4261,102,-39,1012,-10,-16,-12
4262,107,-8,1002,-7,-2,-7
4263,17,12,1005,-11,15,-3
4264,-94,5,982,-17,22,1
4265,-132,-3,999,-19,11,-1
4266,-78,-51,987,-21,-7,-7
4267,29,-36,1007,-14,-18,-11
4268,123,-40,1002,-9,-17,-13
4269,86,6,1004,-7,3,-7
4270,-6,2,995,-16,16,1
4271,-116,13,994,-18,21,0
4272,-126,-25,989,-24,7,-3
4273,-49,-43,996,-19,-10,-10
4274,59,-48,1001,-12,-19,-11
4275,118,-20,1003,-7,-12,-11
4276,67,0,1004,-7,6,-6
4277,-42,19,1003,-14,20,1
4278,-124,0,988,-21,18,-1
4279,-116,-22,989,-21,3,-4
4280,-20,-51,998,-20,-15,-8
4281,84,-39,999,-11,-18,-13
4282,114,-20,1016,-7,-7,-9
4283,51,11,992,-10,10,-5
4284,-73,9,1005,-14,22,1
4285,-133,-2,988,-22,15,-1
4286,-104,-40,982,-21,-1,-6
4287,6,-39,1007,-13,-17,-10
4288,99,-35,1002,-11,-19,-13
4289,109,-6,1006,-6,-3,-9
4290,22,12,1000,-12,13,-2
4291,-99,5,989,-18,21,-1
4292,-128,-24,994,-20,11,-3
4293,-89,-44,984,-20,-5,-6
4294,38,-39,1012,-12,-19,-13
4295,117,-33,1000,-8,-16,-10
4296,86,5,1000,-7,1,-5
4297,-4,14,1007,-14,15,-2
4298,-120,3,985,-20,20,-2
4299,-129,-22,993,-22,7,-2
4300,-50,-45,993,-20,-11,-8
4301,58,-50,1005,-13,-19,-13
4302,119,-22,1004,-8,-13,-10
4303,64,3,1000,-9,7,-6
4304,-33,14,1003,-14,18,-1
4305,-123,-1,991,-20,18,0
4306,-125,-24,985,-20,4,-2
4307,-15,-48,1000,-16,-13,-9
4308,67,-37,999,-13,-17,-11
4309,119,-12,1016,-10,-10,-9
4310,54,2,998,-11,11,-7
4311,-65,11,996,-16,22,0
4312,-123,-17,993,-19,16,-1
4313,-118,-35,985,-20,0,-6
4314,10,-44,992,-14,-18,-10
4315,88,-25,1023,-9,-17,-12
4316,119,-5,989,-10,-6,-9
4317,19,11,1011,-10,14,-3
4318,-87,6,991,-20,20,0
4319,-137,-16,985,-21,12,-1
4320,-86,-43,992,-21,-5,-5
4321,30,-44,1008,-12,-18,-11
4322,125,-27,996,-8,-16,-12
4323,88,1,1012,-7,1,-5
4324,0,18,997,-13,15,-1
4325,-124,6,992,-19,20,1
4326,-129,-26,989,-23,6,-3
4327,-55,-52,993,-18,-10,-7
4328,69,-51,1003,-12,-20,-12
4329,120,-18,1007,-6,-11,-10
4330,71,12,998,-7,6,-7
4331,-41,15,1010,-14,19,-1
4332,-129,3,986,-21,17,0
4333,-122,-27,981,-23,2,-4
4334,-11,-52,1008,-19,-15,-11
4335,79,-45,992,-12,-18,-11
4336,121,-11,1014,-7,-8,-10
4337,42,5,999,-12,10,-3
4338,-75,12,993,-16,20,0
4339,-128,0,994,-20,14,-1
4340,-109,-38,984,-23,-2,-5
4341,13,-48,999,-15,-17,-11
4342,110,-34,1012,-12,-19,-11
4343,101,-9,1001,-6,-3,-8
4344,21,13,998,-11,14,-2
4345,-105,9,994,-18,22,1
4346,-135,-16,988,-20,11,-3
4347,-77,-44,993,-20,-5,-7
4348,35,-41,1001,-13,-18,-11
4349,125,-26,1008,-9,-16,-11
4350,83,-3,1000,-8,2,-6
4351,-12,19,1002,-12,17,-2
4352,-121,3,988,-19,19,-1
4353,-130,-22,993,-21,6,-4
4354,-41,-56,992,-18,-12,-8
4355,66,-39,1006,-13,-20,-12
4356,124,-20,1002,-7,-11,-12
4357,63,11,1002,-8,7,-5
4358,-49,19,1006,-15,19,-1
4359,-126,-1,985,-22,18,0
4360,-119,-32,988,-23,2,-5
4361,-12,-48,999,-18,-15,-11
4362,86,-44,1003,-9,-18,-13
4363,116,-9,1010,-6,-7,-9
4364,43,16,1002,-11,12,-4
4365,-68,6,993,-16,20,0
4366,-133,-7,995,-21,15,0
4367,-106,-41,979,-21,-2,-5
4368,13,-46,1007,-14,-18,-12
4369,108,-36,1001,-10,-17,-12
4370,107,4,1006,-6,-3,-8
4371,19,15,1000,-11,15,-2
4372,-102,11,993,-17,22,0
4373,-133,-21,984,-21,10,-2
4374,-80,-43,997,-19,-9,-8
4375,43,-46,998,-12,-20,-12
4376,121,-25,1009,-6,-14,-11
4377,84,0,999,-10,2,-6
4378,-9,16,1001,-13,18,-2
4379,-121,1,994,-19,20,1
4380,-129,-21,981,-23,6,-4
4381,-42,-51,1004,-18,-11,-10
4382,61,-42,999,-11,-20,-12
4383,121,-19,1004,-6,-11,-11
4384,65,0,1004,-7,7,-7
4385,-52,21,1002,-14,19,1
4386,-123,-3,990,-21,16,-1
4387,-122,-32,983,-22,3,-3
4388,-10,-46,1002,-23,-9,-7
4389,85,-39,1003,-10,-17,-14
4390,115,-17,1010,-8,-9,-9
4391,42,14,999,-11,11,-3
4392,-77,15,996,-15,20,0
4393,-129,-17,987,-23,13,0
4394,-104,-29,989,-20,-1,-4
4395,19,-48,1004,-15,-17,-11
4396,102,-28,1005,-9,-18,-12
4397,109,-9,998,-7,-2,-7
4398,8,10,1009,-11,16,-2
4399,-98,5,981,-19,21,1
4400,-133,-20,999,-19,11,-3
4401,-72,-37,987,-19,-7,-6
4402,45,-39,1009,-13,-18,-12
4403,126,-29,1000,-9,-14,-12
4404,79,3,1010,-7,3,-6
4405,-15,11,992,-14,16,-2
4406,-125,0,1000,-19,19,1
4407,-126,-26,981,-23,6,-3
4408,-37,-49,999,-16,-11,-10
4409,74,-43,1002,-12,-18,-13
4410,119,-15,1003,-6,-9,-11
4411,60,8,999,-9,9,-4
4412,-57,17,1010,-15,20,0
4413,-124,-9,978,-22,17,0
4414,-119,-34,994,-21,2,-3
4415,-2,-51,992,-17,-17,-10
4416,87,-36,1009,-8,-17,-13
4417,115,-10,1002,-6,-5,-9
4418,38,17,1004,-10,13,-4
4419,-77,11,992,-17,22,0
4420,-136,-9,991,-22,14,-1
4421,-97,-46,984,-21,-4,-7
4422,15,-52,1004,-15,-18,-11
4423,114,-34,1006,-8,-17,-13
4424,103,-3,998,-7,-3,-8
4425,12,24,1007,-9,14,-2
4426,-104,14,987,-19,22,1
4427,-144,-21,996,-24,10,-1
4428,-67,-44,983,-21,-8,-9
4429,42,-53,1010,-14,-18,-13
4430,131,-34,999,-7,-15,-12
4431,82,3,1005,-6,3,-5
4432,-18,18,1008,-12,17,-1
4433,-122,7,989,-18,20,0
4434,-134,-21,984,-23,7,-3
4435,-44,-48,1000,-20,-12,-9
4436,68,-47,1005,-13,-20,-12
4437,121,-22,999,-8,-12,-11
4438,64,6,1008,-8,7,-5
4439,-46,9,1003,-14,20,0
4440,-129,-6,987,-19,18,1
4441,-121,-27,986,-22,2,-4
4442,-8,-41,997,-17,-15,-11
4443,85,-44,1003,-11,-19,-11
4444,118,-15,1010,-8,-7,-9
4445,40,10,1001,-9,11,-4
4446,-77,13,992,-14,21,-1
4447,-130,-14,995,-21,14,-1
4448,-105,-35,977,-18,-2,-5
4449,21,-40,1010,-14,-17,-12
4450,111,-34,1003,-11,-17,-12
4451,100,1,996,-7,-1,-6
4452,13,9,1012,-11,13,-3
4453,-108,1,986,-19,21,1
4454,-137,-18,990,-22,11,-1
4455,-64,-48,996,-20,-8,-9
4456,46,-47,1005,-11,-19,-13
4457,122,-16,998,-8,-14,-11
4458,81,6,1013,-10,4,-7
4459,-30,20,993,-12,18,0
4460,-122,0,992,-22,19,0
4461,-129,-35,989,-22,4,-5
4462,-31,-46,999,-16,-14,-10
4463,78,-54,1002,-10,-19,-13
4464,119,-14,1002,-6,-10,-10
4465,59,9,1004,-8,8,-5
4466,-59,22,1004,-14,21,1
4467,-130,-2,982,-21,17,1
4468,-114,-32,992,-22,0,-6
4469,-3,-54,993,-17,-16,-10
4470,92,-39,1007,-9,-17,-12
4471,118,-15,1008,-7,-4,-10
4472,32,12,1001,-11,12,-3
4473,-84,13,990,-15,20,0
4474,-129,-6,991,-21,13,-2
4475,-97,-35,989,-20,-5,-6
4476,21,-44,997,-16,-19,-11
4477,113,-36,1013,-11,-18,-14
4478,102,-15,992,-9,-2,-7
4479,-1,18,1010,-11,16,-2
4480,-100,4,988,-19,20,-1
4481,-138,-16,993,-19,10,-1
4482,-66,-34,989,-21,-10,-7
4483,50,-42,1009,-12,-19,-14
4484,128,-33,1000,-10,-15,-11
4485,67,6,1000,-8,4,-6
4486,-21,8,1007,-13,17,-2
4487,-126,0,990,-19,19,1
4488,-124,-22,985,-21,5,-3
4489,-31,-40,1000,-17,-11,-9
4490,80,-47,1007,-13,-19,-14
4491,115,-17,994,-7,-8,-9
4492,56,6,1007,-11,9,-5
4493,-61,9,1004,-15,21,0
4494,-128,-3,982,-19,17,1
4495,-117,-33,990,-20,1,-4
4496,6,-44,1000,-15,-17,-12
4497,89,-41,1008,-10,-16,-12
4498,118,-9,1001,-7,-6,-10
4499,24,11,1009,-9,13,-2
4500,-83,12,985,-17,20,0
4501,-135,-14,991,-20,13,-2
4502,-92,-37,990,-20,-5,-7
4503,27,-46,1004,-15,-18,-12
4504,115,-30,1007,-7,-17,-13
4505,97,-5,998,-9,0,-7
4506,-1,10,1006,-11,16,-3
