sequence,AccelerometerX,AccelerometerY,AccelerometerZ,GyroscopeX,GyroscopeY,GyroscopeZ
0,-131,10,987,-16,13,-1
1,-107,-23,984,-15,-9,-9
2,5,-60,993,-14,-26,-11
3,104,-47,1005,-11,-19,-10
4,112,-26,997,-12,0,-5
5,24,11,1018,-6,20,-2
6,-91,10,993,-22,27,1
7,-144,5,984,-19,12,-1
8,-80,-36,974,-25,-13,-8
9,29,-44,1013,-13,-23,-13
10,119,-47,1008,-11,-17,-11
11,100,-11,1002,-9,5,-6
12,-7,12,1003,-11,25,1
13,-116,19,997,-18,22,1
14,-142,-15,972,-23,5,-4
15,-62,-39,1010,-17,-17,-9
16,68,-59,992,-15,-25,-12
17,128,-33,1011,-6,-10,-11
18,83,-2,999,-8,12,-3
19,-49,28,1003,-14,26,0
20,-127,10,996,-19,20,-2
21,-129,-21,985,-24,-1,-4
22,-27,-50,1000,-20,-21,-11
23,91,-61,994,-11,-24,-13
24,118,-25,1006,-7,-7,-8
25,59,1,1000,-10,15,-5
26,-76,31,1015,-14,26,0
27,-137,8,988,-21,14,-2
28,-101,-27,981,-23,-7,-7
29,0,-62,996,-19,-24,-11
30,102,-48,1001,-11,-22,-13
31,112,-21,1005,-7,-2,-8
32,30,15,1014,-11,19,-2
33,-91,22,995,-16,26,2
34,-140,-6,976,-21,12,-2
35,-85,-35,989,-22,-12,-7
36,27,-58,998,-15,-24,-12
37,122,-43,1010,-10,-17,-13
38,98,-14,1005,-7,5,-6
39,1,28,997,-12,24,0
40,-116,4,1002,-18,23,1
41,-145,-6,970,-23,6,-3
42,-59,-39,1010,-20,-17,-9
43,67,-58,992,-15,-25,-12
44,118,-36,1012,-9,-11,-9
45,93,-2,999,-8,7,-7
46,-49,17,997,-14,27,2
47,-126,26,996,-19,20,0
48,-133,-27,995,-24,-1,-5
49,-23,-47,991,-19,-20,-11
50,90,-59,1003,-12,-25,-11
51,121,-31,1001,-6,-6,-9
52,58,2,1007,-9,15,-1
53,-76,26,1002,-14,27,1
54,-140,7,997,-21,16,-1
55,-97,-30,980,-22,-6,-7
56,-6,-56,993,-16,-23,-11
57,115,-45,998,-9,-22,-13
58,110,-21,1016,-6,-1,-9
59,24,15,997,-8,20,-1
60,-89,20,1012,-16,25,1
61,-140,-3,978,-21,11,-2
62,-88,-31,981,-20,-12,-7
63,31,-51,1005,-14,-24,-14
64,112,-45,1010,-8,-16,-11
65,104,-12,1001,-7,3,-7
66,-2,10,1006,-11,23,-2
67,-111,20,995,-16,24,1
68,-138,-13,978,-22,6,-3
69,-60,-32,1001,-20,-16,-9
70,60,-60,1000,-17,-25,-12
71,128,-33,1014,-7,-12,-12
72,82,-9,995,-8,11,-4
73,-42,30,1000,-12,26,0
74,-124,4,1007,-21,20,-1
75,-128,-17,973,-23,1,-6
76,-31,-52,1008,-19,-20,-10
77,89,-58,991,-10,-25,-13
78,117,-23,1006,-5,-6,-9
79,62,4,1002,-8,14,-4
80,-71,30,1011,-15,27,0
81,-132,0,988,-23,16,-2
82,-109,-29,985,-24,-7,-7
83,0,-61,993,-18,-23,-12
84,104,-46,999,-9,-22,-11
85,112,-13,1009,-6,-3,-8
86,34,18,1006,-11,18,-2
87,-95,18,1009,-19,26,1
88,-134,1,967,-23,11,-2
89,-91,-34,994,-23,-11,-5
90,30,-57,992,-18,-26,-12
91,114,-45,1016,-9,-17,-11
92,109,-13,1006,-9,4,-6
93,-3,13,996,-11,24,0
94,-117,21,999,-16,25,1
95,-141,-6,981,-24,7,-3
96,-62,-35,995,-19,-15,-9
97,60,-53,1005,-16,-26,-13
98,127,-45,1008,-9,-13,-12
99,86,-14,998,-7,10,-5
100,-40,25,995,-13,27,2
101,-125,7,997,-20,20,-2
102,-137,-12,993,-21,0,-5
103,-22,-48,990,-20,-21,-12
104,87,-56,1008,-11,-23,-13
105,121,-24,991,-6,-7,-8
106,65,6,1011,-10,15,-4
107,-79,21,999,-17,28,0
108,-133,5,1000,-21,16,-1
109,-109,-31,974,-23,-6,-6
110,-1,-53,997,-16,-23,-11
111,105,-55,1000,-11,-22,-12
112,121,-14,1006,-6,-2,-10
113,22,9,1011,-10,20,-1
114,-83,23,997,-17,26,-2
115,-146,0,987,-23,12,-2
116,-86,-28,977,-21,-13,-7
117,31,-58,1009,-15,-25,-13
118,114,-47,1006,-9,-17,-11
119,99,-12,1001,-7,4,-5
120,2,15,1004,-11,23,-2
121,-110,10,995,-18,23,1
122,-144,4,976,-22,6,-4
123,-60,-44,998,-21,-15,-10
124,58,-45,1004,-15,-26,-12
125,127,-45,1000,-11,-12,-9
126,84,-8,1002,-7,11,-4
127,-41,21,1001,-13,26,1
128,-120,8,988,-20,21,-2
129,-141,-17,997,-21,1,-3
130,-22,-43,990,-18,-21,-11
131,87,-58,1008,-12,-23,-13
132,120,-21,990,-8,-8,-9
133,57,0,1018,-8,15,-4
134,-72,24,995,-13,26,0
135,-135,11,998,-22,18,-1
136,-109,-30,985,-23,-5,-7
137,0,-54,990,-16,-23,-12
138,107,-50,1007,-10,-22,-12
139,112,-14,1004,-6,-3,-7
140,30,9,1016,-10,20,-1
141,-86,20,990,-19,26,0
142,-144,-4,990,-21,13,-3
143,-83,-42,973,-22,-11,-9
144,22,-50,1002,-15,-23,-11
145,114,-36,1019,-8,-18,-11
146,109,-15,994,-10,4,-8
147,-8,19,1010,-10,24,-1
148,-106,12,994,-18,23,0
149,-151,-13,975,-23,6,-3
150,-49,-41,988,-18,-16,-10
151,52,-51,1021,-13,-23,-11
152,129,-37,992,-9,-13,-10
153,84,-5,1007,-6,10,-5
154,-42,23,1004,-13,26,1
155,-119,17,988,-20,19,-3
156,-139,-20,1001,-21,1,-4
157,-28,-48,986,-21,-20,-11
158,82,-58,1013,-13,-23,-12
159,122,-26,988,-7,-9,-9
160,59,3,1016,-8,15,-4
161,-68,30,999,-13,26,0
162,-136,8,997,-23,17,0
163,-113,-21,982,-22,-5,-6
164,-2,-63,995,-19,-23,-12
165,103,-51,1004,-10,-23,-12
166,110,-21,1000,-6,-3,-8
167,32,20,1021,-8,20,-1
168,-85,17,998,-18,26,0
169,-144,0,976,-22,13,-1
170,-84,-33,990,-23,-11,-7
171,21,-59,992,-17,-26,-12
172,119,-41,1013,-8,-18,-12
173,99,-17,1003,-10,3,-6
174,-2,25,1005,-11,22,-2
175,-99,3,998,-19,23,1
176,-153,0,973,-23,6,-2
177,-56,-40,995,-22,-17,-10
178,60,-58,1007,-15,-26,-13
179,113,-47,1002,-9,-13,-9
180,98,1,1002,-6,8,-7
181,-43,22,1007,-13,26,2
182,-120,17,981,-22,20,1
183,-133,-19,1004,-23,1,-5
184,-32,-50,989,-20,-20,-9
185,86,-54,1001,-12,-25,-12
186,124,-34,1000,-7,-8,-9
187,59,3,1012,-8,16,-3
188,-65,25,994,-13,27,0
189,-136,15,1005,-21,17,0
190,-112,-31,981,-26,-5,-5
191,0,-53,990,-17,-23,-12
192,100,-61,1010,-10,-23,-11
193,109,-10,993,-5,-2,-8
194,30,9,1026,-8,20,-2
195,-84,26,992,-17,24,0
196,-150,3,988,-22,11,0
197,-79,-34,975,-24,-13,-9
198,16,-58,1010,-17,-24,-11
199,122,-47,998,-9,-20,-11
200,101,-14,1013,-7,4,-7
201,11,16,1000,-10,22,-1
202,-113,23,1000,-17,25,2
203,-141,-8,974,-24,6,-4
204,-70,-32,1000,-19,-16,-9
205,57,-61,997,-14,-26,-13
206,132,-41,1014,-7,-14,-11
207,86,-11,992,-7,9,-3
208,-30,25,1004,-10,25,-1
209,-125,9,991,-19,20,-1
210,-135,-1,990,-21,2,-5
211,-37,-44,999,-22,-19,-10
212,90,-54,1002,-14,-26,-13
213,115,-40,1000,-8,-8,-8
214,64,3,1004,-8,13,-4
215,-68,18,1008,-13,28,1
216,-140,7,990,-22,18,-1
217,-119,-22,992,-22,-6,-6
218,3,-56,990,-17,-23,-12
219,89,-48,1004,-11,-21,-11
220,126,-17,1000,-8,-4,-9
221,27,6,1019,-9,20,-2
222,-78,22,990,-16,26,1
223,-154,1,991,-22,12,-2
224,-81,-29,978,-23,-13,-10
225,17,-66,999,-18,-24,-12
226,116,-38,1005,-8,-20,-12
227,108,-18,1010,-8,3,-6
228,1,18,999,-11,23,-1
229,-104,16,1001,-18,23,1
230,-145,-8,977,-22,7,-3
231,-66,-36,990,-19,-17,-8
232,57,-54,1005,-13,-27,-13
233,128,-44,1015,-9,-13,-10
234,90,-8,991,-7,8,-4
235,-33,30,1006,-13,25,0
236,-118,14,993,-19,22,0
237,-140,-8,986,-24,3,-4
238,-34,-55,1002,-22,-19,-11
239,82,-63,999,-13,-25,-12
240,122,-32,999,-7,-8,-8
241,72,-1,1006,-7,13,-5
242,-68,39,1004,-14,28,2
243,-133,8,995,-23,18,-2
244,-118,-26,988,-23,-4,-7
245,-9,-52,986,-18,-23,-10
246,103,-58,1007,-10,-23,-14
247,118,-25,999,-7,-4,-8
248,32,16,1016,-7,19,-1
249,-81,24,1005,-18,25,0
250,-148,0,975,-23,15,-1
251,-91,-25,992,-22,-11,-6
252,20,-63,989,-17,-24,-12
253,116,-45,1013,-9,-18,-12
254,108,-19,1004,-7,3,-5
255,4,16,1007,-8,23,-1
256,-107,20,998,-16,24,2
257,-150,1,970,-22,9,-3
258,-62,-34,995,-21,-16,-9
259,51,-57,1006,-17,-25,-11
260,121,-40,1009,-9,-14,-11
261,93,-20,997,-8,7,-8
262,-40,18,1002,-11,26,-1
263,-120,5,994,-19,20,0
264,-143,-9,985,-20,2,-6
265,-32,-45,1002,-20,-20,-11
266,88,-45,1005,-12,-25,-14
267,126,-34,994,-9,-8,-9
268,63,3,1008,-8,14,-4
269,-66,27,1002,-15,27,0
270,-142,0,993,-22,18,0
271,-121,-24,980,-22,-5,-5
272,0,-63,1004,-16,-25,-13
273,102,-56,995,-9,-24,-12
274,117,-19,1009,-5,-5,-8
275,38,20,1007,-6,20,-3
276,-87,30,1009,-17,27,1
277,-139,9,978,-23,13,-3
278,-102,-38,990,-23,-10,-7
279,21,-56,995,-19,-26,-13
280,121,-59,1005,-10,-20,-13
281,102,-16,1008,-7,3,-6
282,17,16,1005,-11,22,-2
283,-105,27,1002,-14,25,2
284,-148,-6,963,-25,8,0
285,-74,-32,1001,-22,-14,-10
286,47,-59,998,-16,-25,-11
287,135,-42,1018,-9,-16,-11
288,91,-14,993,-7,8,-5
289,-21,17,1004,-13,25,1
290,-116,8,995,-18,23,0
291,-151,-10,979,-23,5,-2
292,-38,-39,1007,-21,-19,-12
293,82,-52,998,-14,-24,-13
294,122,-33,997,-7,-11,-8
295,82,1,1010,-7,12,-6
296,-62,20,1004,-16,28,2
297,-142,10,989,-19,20,-1
298,-116,-27,996,-25,-4,-6
299,-17,-56,987,-16,-22,-11
300,104,-48,1001,-8,-23,-13
301,114,-27,1007,-6,-4,-9
302,40,21,1010,-6,18,-2
303,-73,17,1001,-17,27,0
304,-154,5,988,-22,15,-1
305,-94,-36,979,-23,-10,-7
306,15,-62,995,-15,-25,-14
307,106,-42,1010,-10,-20,-11
308,114,-13,1004,-7,0,-8
309,10,17,1011,-9,23,-1
310,-98,14,992,-16,25,0
311,-152,-2,980,-22,10,-4
312,-68,-41,990,-20,-16,-9
313,40,-49,1001,-14,-28,-12
314,125,-48,1014,-9,-17,-10
315,103,-8,1004,-6,6,-6
316,-28,18,990,-11,25,1
317,-115,22,1003,-18,22,-2
318,-144,-16,986,-24,2,-4
319,-47,-36,992,-20,-19,-9
320,77,-57,1008,-15,-26,-13
321,129,-41,997,-9,-10,-9
322,69,-3,1001,-8,12,-3
323,-54,29,1007,-12,25,-1
324,-133,12,999,-22,18,0
325,-125,-18,983,-24,-3,-4
326,-12,-51,996,-19,-23,-11
327,99,-61,1008,-12,-24,-13
328,113,-27,992,-7,-4,-8
329,48,10,1012,-8,18,-3
330,-80,15,1005,-17,27,1
331,-144,10,984,-22,15,-1
332,-96,-37,979,-21,-9,-8
333,4,-50,1001,-16,-23,-11
334,120,-53,1004,-11,-21,-13
335,109,-19,1003,-6,2,-7
336,8,24,1015,-12,21,1
337,-84,12,995,-19,23,-2
338,-158,-2,972,-23,11,0
339,-69,-34,988,-23,-16,-9
340,38,-56,1013,-14,-26,-13
341,126,-46,998,-10,-15,-10
342,101,-10,1011,-8,6,-7
343,-13,19,994,-15,26,1
344,-119,15,998,-25,25,3
345,-143,-11,972,-22,5,-6
346,-49,-42,1018,-20,-18,-9
347,75,-53,986,-16,-25,-13
348,123,-42,1009,-9,-10,-10
349,75,4,1003,-7,11,-4
350,-48,18,998,-15,27,1
351,-137,17,994,-18,20,-1
352,-121,-26,991,-24,-4,-5
353,-17,-53,990,-17,-22,-12
354,91,-51,1001,-10,-25,-11
355,126,-17,998,-5,-5,-8
356,46,7,1014,-8,18,-3
357,-79,29,999,-16,26,1
358,-140,-2,995,-24,15,-2
359,-104,-35,978,-20,-7,-9
360,14,-58,995,-16,-25,-12
361,107,-50,1003,-10,-21,-11
362,110,-8,1006,-6,0,-7
363,24,14,1013,-11,21,0
364,-109,16,991,-16,28,1
365,-136,-4,982,-22,9,-4
366,-87,-34,987,-22,-14,-8
367,38,-56,996,-16,-25,-11
368,126,-38,1027,-9,-17,-14
369,95,-13,991,-9,6,-5
370,-15,24,1002,-10,25,-1
371,-116,6,998,-20,22,0
372,-145,-3,978,-22,4,-4
373,-55,-46,997,-21,-18,-10
374,82,-50,1012,-13,-27,-14
375,117,-42,996,-8,-11,-9
376,88,1,1004,-6,10,-6
377,-59,21,1001,-15,25,1
378,-130,12,993,-19,19,0
379,-129,-26,995,-23,-2,-6
380,-17,-50,988,-18,-22,-11
381,91,-56,1008,-10,-26,-13
382,126,-25,995,-8,-7,-10
383,48,9,1013,-9,16,-1
384,-75,26,996,-17,28,1
385,-143,6,997,-23,15,-1
386,-105,-31,975,-23,-8,-6
387,4,-53,997,-19,-24,-12
388,115,-53,1007,-10,-21,-13
389,112,-18,1004,-7,-1,-6
390,26,20,1010,-8,21,-2
391,-98,23,1003,-17,26,1
392,-142,-2,976,-24,10,-3
393,-81,-41,981,-24,-12,-8
394,34,-56,1013,-15,-26,-12
395,128,-50,1003,-10,-16,-11
396,97,-2,1004,-7,7,-6
397,-9,15,1001,-14,23,0
398,-117,22,997,-19,23,0
399,-148,-7,976,-25,5,-3
400,-50,-42,1003,-20,-17,-10
401,67,-61,1001,-15,-24,-12
402,129,-37,999,-9,-12,-9
403,81,-4,1009,-7,11,-5
404,-52,24,999,-14,28,1
405,-133,11,996,-22,20,0
406,-125,-24,989,-23,-1,-7
407,-21,-47,999,-19,-20,-11
408,98,-51,999,-12,-24,-13
409,124,-28,1001,-9,-5,-8
410,50,8,1011,-9,16,-2
411,-80,23,1000,-15,28,0
412,-143,0,995,-23,15,-2
413,-108,-33,981,-21,-8,-7
414,9,-57,991,-16,-25,-13
415,111,-41,1014,-10,-22,-10
416,115,-14,995,-7,-1,-7
417,22,19,1026,-12,21,-1
418,-99,7,985,-20,25,1
419,-152,-1,983,-22,10,-4
420,-74,-41,982,-22,-14,-10
421,40,-51,1002,-13,-26,-14
422,121,-44,1014,-8,-16,-10
423,109,-6,1003,-6,6,-6
424,-20,23,998,-12,25,2
425,-117,22,1002,-19,23,-1
426,-142,-20,978,-24,3,-4
427,-64,-41,992,-19,-17,-9
428,86,-61,1016,-14,-27,-13
429,123,-49,992,-7,-11,-10
430,81,10,999,-5,11,-3
431,-47,28,1012,-14,26,0
432,-138,24,985,-20,20,1
433,-128,-19,992,-26,-3,-5
434,-23,-51,1002,-23,-20,-13
435,96,-72,993,-13,-23,-12
436,125,-25,999,-7,-5,-11
437,56,-6,1015,-10,18,-1
438,-80,30,999,-12,28,1
439,-144,7,992,-22,16,-1
440,-102,-19,984,-21,-7,-8
441,4,-56,992,-20,-24,-11
442,112,-47,1006,-11,-22,-12
443,111,-23,1004,-9,0,-7
444,20,9,1011,-8,21,-3
445,-98,22,1001,-16,27,1
446,-140,-4,974,-20,10,-2
447,-84,-32,989,-20,-13,-9
448,39,-48,1001,-15,-25,-13
449,126,-41,1015,-10,-17,-12
450,99,-14,990,-10,6,-5
451,-15,20,1014,-12,25,0
452,-112,7,988,-20,23,0
453,-154,-8,983,-24,6,-2
454,-53,-45,993,-18,-18,-10
455,69,-50,1012,-13,-25,-13
456,131,-39,993,-7,-13,-9
457,79,2,1008,-5,12,-5
458,-50,27,999,-16,26,1
459,-133,12,992,-20,20,-1
460,-131,-24,990,-23,-3,-5
461,-20,-54,1000,-19,-23,-10
462,100,-63,998,-9,-25,-11
463,124,-20,1000,-5,-6,-8
464,50,8,1008,-10,17,-2
465,-75,30,1002,-16,29,0
466,-147,5,995,-23,17,-1
467,-100,-27,978,-24,-7,-7
468,9,-70,998,-20,-25,-12
469,110,-54,997,-9,-22,-12
470,118,-17,1012,-6,-1,-9
471,18,19,1008,-7,21,-2
472,-99,20,1002,-19,27,1
473,-143,-3,979,-23,11,-2
474,-90,-42,983,-22,-13,-8
475,47,-54,1002,-14,-27,-13
476,119,-52,1013,-8,-15,-11
477,103,-5,1000,-6,6,-5
478,-13,20,1004,-13,25,0
479,-118,23,996,-17,23,0
480,-144,-10,978,-23,5,-4
481,-54,-38,999,-20,-17,-10
482,73,-69,1006,-15,-25,-12
483,126,-32,1003,-7,-11,-11
484,81,-13,998,-6,10,-5
485,-52,32,1002,-12,27,1
486,-132,14,994,-21,20,0
487,-131,-17,987,-23,0,-6
488,-17,-50,1002,-20,-21,-12
489,96,-57,999,-11,-23,-13
490,118,-27,1001,-6,-5,-9
491,55,3,1009,-8,17,-4
492,-83,25,999,-14,27,1
493,-140,6,995,-21,14,-2
494,-108,-29,983,-20,-7,-8
495,10,-59,988,-17,-24,-12
496,110,-40,1012,-11,-22,-13
497,115,-21,996,-8,0,-8
498,22,22,1019,-10,23,-2
499,-95,12,988,-20,26,0
500,-151,0,986,-21,10,-3
501,-77,-47,974,-23,-13,-9
502,26,-54,1011,-14,-24,-12
503,125,-46,1006,-7,-17,-12
504,106,-11,1005,-7,5,-6
505,-10,22,1003,-11,24,1
506,-112,15,993,-18,24,-1
507,-151,-8,982,-23,5,-5
508,-56,-44,993,-20,-19,-10
509,66,-55,1006,-14,-26,-13
510,140,-48,1011,-9,-12,-10
511,74,-2,996,-6,12,-4
512,-41,28,998,-12,26,-1
513,-130,10,1003,-19,21,-2
514,-140,-16,975,-23,-1,-3
515,-19,-40,1009,-20,-22,-13
516,95,-58,998,-12,-26,-13
517,119,-22,996,-8,-7,-8
518,63,-4,1011,-11,16,-5
519,-81,24,1005,-14,27,1
520,-144,3,986,-22,14,-1
521,-108,-21,990,-21,-7,-9
522,5,-62,993,-15,-25,-12
523,115,-40,996,-9,-23,-12
524,112,-28,1011,-8,0,-7
525,23,25,1007,-9,20,-2
526,-99,14,1001,-22,26,1
527,-143,0,975,-21,11,-3
528,-87,-41,990,-23,-13,-7
529,36,-58,997,-16,-26,-13
530,118,-45,1011,-8,-18,-11
531,107,-10,1003,-8,4,-6
532,-9,16,1009,-11,24,0
533,-114,21,982,-18,23,2
534,-150,-9,990,-26,5,-2
535,-57,-39,988,-20,-19,-10
536,59,-63,1008,-16,-25,-12
537,134,-42,1009,-7,-13,-11
538,87,-11,998,-6,11,-5
539,-45,27,997,-11,27,2
540,-134,20,996,-19,20,0
541,-139,-17,988,-22,0,-5
542,-22,-50,1000,-22,-23,-10
543,94,-57,999,-12,-25,-13
544,127,-38,998,-7,-7,-8
545,58,1,1011,-8,16,-1
546,-78,26,998,-13,28,1
547,-145,12,998,-21,17,-1
548,-107,-27,983,-23,-7,-7
549,-2,-53,992,-17,-23,-12
550,115,-45,1004,-10,-23,-11
551,112,-22,1001,-8,-1,-7
552,26,19,1016,-11,20,0
553,-90,7,996,-20,26,2
554,-151,3,980,-21,12,-2
555,-84,-38,985,-22,-13,-7
556,35,-55,1000,-14,-26,-12
557,118,-43,1004,-7,-18,-9
558,107,-5,1013,-6,4,-6
559,-7,12,999,-13,24,0
560,-113,20,997,-18,25,1
561,-151,-7,977,-26,5,-3
562,-48,-35,993,-20,-18,-10
563,61,-67,1010,-16,-27,-12
564,134,-35,1005,-7,-13,-9
565,80,-11,1006,-7,11,-4
566,-41,35,989,-12,27,2
567,-137,8,1006,-21,22,2
568,-131,-10,980,-23,-1,-5
569,-30,-56,1001,-22,-20,-9
570,103,-57,1003,-12,-25,-14
571,120,-39,990,-8,-5,-7
572,63,9,1011,-9,16,-3
573,-79,25,999,-16,26,3
574,-144,18,996,-21,17,-1
575,-102,-34,985,-25,-7,-6
576,-4,-53,992,-17,-24,-10
577,117,-54,1001,-9,-23,-13
578,111,-29,1003,-7,1,-7
579,24,20,1008,-8,21,0
580,-80,22,1004,-18,25,-1
581,-156,5,982,-24,13,0
582,-81,-34,972,-23,-13,-7
583,25,-60,1017,-15,-24,-14
584,123,-55,992,-8,-19,-11
585,98,-8,1007,-5,4,-5
586,5,14,1005,-9,22,-1
587,-113,21,997,-16,25,0
588,-146,0,972,-25,6,-3
589,-64,-37,999,-21,-18,-9
590,64,-58,1006,-16,-26,-12
591,131,-49,1005,-8,-13,-8
592,82,-8,998,-6,10,-5
593,-33,24,1008,-11,25,-1
594,-127,12,986,-19,21,2
595,-146,-6,989,-23,1,-4
596,-23,-47,1004,-19,-22,-11
597,85,-58,1003,-13,-24,-13
598,132,-33,986,-8,-9,-8
599,60,3,1026,-8,15,-5
600,-64,23,986,-15,28,2
601,-150,7,1004,-20,20,0
602,-114,-29,983,-23,-7,-7
603,0,-60,991,-16,-23,-12
604,113,-54,1006,-8,-23,-12
605,111,-15,998,-4,-1,-8
606,39,15,1019,-7,20,-5
607,-94,29,998,-19,28,2
608,-153,3,981,-24,12,-2
609,-85,-50,991,-22,-12,-9
610,18,-65,991,-17,-24,-13
611,129,-47,1007,-6,-20,-13
612,103,-11,1010,-3,4,-7
613,0,21,1002,-10,23,0
614,-114,30,1001,-16,25,0
615,-147,-8,976,-26,6,-3
616,-65,-36,993,-20,-18,-10
617,64,-72,1002,-16,-27,-13
618,129,-43,1016,-6,-13,-11
619,87,-9,992,-7,9,-5
620,-33,28,1006,-10,27,0
621,-134,25,993,-20,22,1
622,-139,-12,985,-22,2,-5
623,-28,-48,1001,-21,-21,-11
624,87,-69,1000,-12,-25,-13
625,129,-30,995,-6,-8,-9
626,61,-5,1016,-8,15,-3
627,-71,32,991,-13,28,0
628,-141,14,1003,-21,18,-1
629,-111,-19,986,-23,-8,-7
630,0,-61,988,-19,-24,-11
631,112,-53,1004,-10,-23,-14
632,112,-27,1003,-7,-2,-9
633,39,13,1008,-8,20,-2
634,-93,20,1003,-17,28,0
635,-142,9,978,-22,14,-2
636,-89,-37,992,-23,-11,-8
637,15,-58,985,-18,-25,-12
638,117,-46,1016,-11,-20,-11
639,116,-18,1002,-9,2,-7
640,1,14,1013,-11,24,0
641,-98,24,986,-18,24,0
642,-154,-7,992,-25,9,-3
643,-55,-41,976,-21,-16,-10
644,45,-61,1012,-15,-24,-12
645,123,-42,1007,-8,-14,-11
646,100,-9,1006,-6,7,-6
647,-36,26,995,-11,26,0
648,-116,18,994,-21,22,0
649,-142,-16,993,-24,3,-5
650,-34,-48,990,-21,-20,-10
651,83,-55,1012,-11,-25,-13
652,123,-38,991,-8,-8,-8
653,57,6,1012,-7,14,-4
654,-70,17,993,-16,25,0
655,-143,16,1002,-20,17,0
656,-108,-32,980,-25,-5,-5
657,1,-49,999,-17,-22,-12
658,101,-48,996,-10,-23,-11
659,121,-20,1005,-8,-3,-9
660,22,8,1008,-10,19,-2
661,-85,29,1003,-17,25,-1
662,-146,-4,980,-23,12,-3
663,-79,-32,988,-20,-12,-8
664,26,-61,996,-15,-25,-12
665,118,-40,1006,-8,-17,-12
666,99,-14,1009,-7,4,-5
667,5,19,1006,-11,24,-1
668,-110,15,999,-18,25,2
669,-154,-4,972,-24,7,-2
670,-57,-43,998,-21,-17,-9
671,61,-63,1003,-14,-26,-12
672,126,-37,1010,-7,-12,-10
673,93,-9,1004,-7,10,-7
674,-39,28,997,-12,27,1
675,-131,13,992,-21,23,1
676,-138,-15,988,-23,2,-6
677,-35,-51,1006,-20,-20,-10
678,92,-53,989,-14,-26,-12
679,129,-44,1011,-6,-8,-10
680,62,5,1003,-8,15,-3
681,-69,25,998,-14,27,-1
682,-142,7,997,-29,21,0
683,-121,-23,988,-22,-4,-7
684,2,-55,983,-17,-24,-12
685,107,-51,1012,-10,-22,-11
686,117,-16,998,-7,-3,-8
687,32,1,1017,-11,20,-2
688,-97,20,994,-16,26,1
689,-151,1,987,-22,12,-2
690,-87,-43,980,-21,-13,-7
691,25,-50,997,-13,-26,-11
692,125,-40,1013,-9,-19,-11
693,111,-7,998,-8,4,-7
694,-2,17,1017,-12,24,0
695,-110,15,985,-20,24,2
696,-150,-14,983,-23,7,-3
697,-65,-44,989,-19,-18,-10
698,60,-59,1004,-14,-27,-12
699,134,-31,1015,-6,-15,-10
700,93,-6,998,-9,10,-3
701,-37,38,1001,-12,28,1
702,-127,8,997,-24,21,1
703,-149,-8,980,-22,1,-5
704,-26,-56,1005,-22,-22,-11
705,88,-60,996,-11,-26,-12
706,129,-41,997,-7,-9,-8
707,70,7,1015,-6,14,-5
708,-77,28,989,-16,28,3
709,-143,16,1000,-20,18,-1
710,-111,-35,986,-26,-6,-7
711,-13,-57,988,-17,-23,-9
712,121,-46,1006,-10,-25,-14
713,116,-31,1005,-8,-1,-7
714,32,15,1008,-7,19,-1
715,-81,22,999,-17,26,-1
716,-156,3,985,-21,13,-1
717,-85,-37,977,-24,-12,-6
718,17,-54,1006,-15,-25,-13
719,127,-49,995,-10,-20,-11
720,108,-9,1017,-7,3,-6
721,-2,12,999,-13,23,1
722,-101,20,1002,-18,24,0
723,-155,-12,971,-24,8,-2
724,-66,-33,991,-19,-16,-10
725,57,-59,1012,-14,-26,-14
726,131,-43,1009,-9,-13,-10
727,80,-6,1000,-6,9,-3
728,-28,34,1005,-10,25,1
729,-123,2,991,-21,22,1
730,-145,-7,981,-22,2,-4
731,-32,-51,1013,-20,-22,-10
732,83,-54,989,-11,-25,-14
733,127,-40,1004,-7,-8,-9
734,75,8,1012,-7,14,-6
735,-75,23,996,-16,28,2
736,-133,14,992,-18,17,-2
737,-116,-30,1000,-24,-5,-6
738,-8,-59,976,-15,-22,-10
739,113,-49,1013,-9,-23,-12
740,111,-23,1004,-8,-3,-8
741,41,19,1004,-10,18,-3
742,-94,19,1003,-18,26,2
743,-141,8,988,-21,12,-1
744,-82,-39,978,-22,-11,-8
745,12,-57,999,-18,-23,-12
746,124,-54,1010,-9,-20,-13
747,104,-18,1003,-6,3,-8
748,0,23,1008,-10,23,1
749,-98,25,999,-17,25,-1
750,-153,-7,976,-24,9,-2
751,-64,-41,983,-22,-16,-8
752,46,-49,1017,-14,-25,-13
753,130,-57,1002,-10,-14,-11
754,90,-6,999,-5,9,-5
755,-34,15,1004,-12,24,1
756,-118,23,988,-18,21,-2
757,-141,-24,988,-22,3,-4
758,-34,-38,1000,-17,-19,-10
759,80,-59,1006,-13,-24,-12
760,134,-26,987,-6,-9,-11
761,60,-3,1020,-8,14,-3
762,-59,26,988,-15,26,-2
763,-140,4,1004,-22,18,-1
764,-112,-23,982,-22,-4,-7
765,-16,-57,994,-17,-21,-10
766,106,-52,1002,-9,-23,-13
767,115,-25,1005,-6,-3,-10
768,43,23,1010,-6,19,-4
769,-82,14,999,-19,27,-3
770,-141,1,988,-22,15,-4
771,-101,-33,976,-21,-9,-5
772,8,-52,1000,-17,-26,-14
773,117,-52,1009,-10,-20,-12
774,111,-15,1002,-4,3,-7
775,10,20,1010,-10,23,-3
776,-87,9,998,-17,25,-2
777,-152,0,977,-22,11,-1
778,-73,-39,980,-22,-13,-10
779,35,-45,1020,-13,-24,-13
780,134,-40,1001,-11,-15,-11
781,96,-11,1003,-8,8,-7
782,-16,17,992,-12,25,-1
783,-119,11,1010,-19,23,-1
784,-137,-21,962,-23,5,-4
785,-54,-37,1020,-19,-17,-9
786,77,-51,994,-14,-25,-13
787,126,-34,994,-8,-9,-10
788,70,9,1013,-10,12,-5
789,-49,19,1000,-17,26,0
790,-138,4,998,-21,21,-1
791,-111,-31,981,-24,-3,-6
792,-24,-53,1003,-16,-19,-10
793,105,-47,988,-10,-24,-12
794,109,-25,1016,-6,-3,-8
795,47,22,1001,-9,18,-3
796,-85,13,1010,-18,28,-1
797,-136,4,972,-20,14,-4
798,-99,-42,991,-22,-8,-6
799,10,-52,984,-14,-24,-11
800,105,-43,1018,-7,-20,-10
801,113,-5,1002,-8,0,-6
802,12,11,1013,-12,22,-1
803,-98,18,988,-16,24,0
804,-141,-14,988,-22,9,-3
805,-72,-40,974,-20,-14,-8
806,35,-42,1013,-14,-24,-11
807,129,-48,1015,-10,-16,-11
808,86,-4,993,-9,7,-4
809,-19,19,1004,-14,24,0
810,-108,12,998,-19,22,-2
811,-150,-17,973,-23,4,-3
812,-33,-39,1004,-20,-20,-10
813,63,-52,1009,-13,-23,-12
814,126,-35,981,-9,-10,-9
815,65,3,1025,-9,11,-4
816,-44,19,992,-17,25,1
817,-135,6,1006,-21,19,1
818,-119,-24,973,-23,-3,-4
819,-13,-58,1005,-18,-21,-10
820,88,-46,992,-10,-23,-10
821,117,-18,1008,-9,-4,-7
822,50,9,1015,-9,17,-3
823,-81,12,996,-17,27,3
824,-136,0,992,-21,14,-2
825,-97,-38,983,-21,-9,-6
826,9,-52,997,-15,-24,-13
827,113,-47,1002,-9,-19,-12
828,105,-15,1011,-8,2,-7
829,21,18,1005,-11,21,-2
830,-93,10,1001,-18,24,1
831,-151,0,966,-23,10,0
832,-68,-39,997,-21,-13,-9
833,38,-52,1003,-14,-24,-11
834,122,-44,1005,-8,-15,-9
835,103,-9,1013,-6,6,-8
836,-21,11,988,-13,25,1
837,-115,18,998,-18,22,-1
838,-141,-11,985,-22,4,-5
839,-46,-38,997,-19,-18,-9
840,71,-47,1006,-13,-24,-12
841,125,-34,995,-10,-10,-10
842,74,-6,1016,-9,13,-5
843,-51,15,989,-16,27,1
844,-136,13,1004,-19,20,0
845,-119,-27,985,-24,-3,-5
846,-35,-48,987,-19,-22,-8
847,95,-45,1001,-12,-26,-11
848,111,-24,1014,-9,-6,-7
849,61,4,993,-10,16,-1
850,-70,21,1020,-16,28,1
851,-134,-3,978,-23,16,-1
852,-105,-38,979,-20,-6,-6
853,-4,-55,1000,-17,-24,-11
854,103,-45,1006,-8,-21,-10
855,118,-24,1003,-8,-1,-10
856,20,14,1017,-11,20,-1
857,-94,19,993,-17,23,0
858,-143,-12,982,-23,9,-3
859,-86,-34,983,-21,-14,-6
860,45,-51,1010,-14,-26,-15
861,124,-41,1009,-9,-18,-12
862,105,-8,1000,-8,5,-5
863,-18,18,1001,-12,25,0
864,-119,10,1000,-20,23,3
865,-149,-16,979,-22,4,-4
866,-58,-44,995,-19,-17,-9
867,76,-51,1006,-13,-26,-13
868,134,-41,997,-7,-12,-11
869,91,7,1005,-7,11,-5
870,-54,24,1007,-14,29,1
871,-138,15,996,-20,22,0
872,-141,-30,983,-25,0,-4
873,-18,-52,987,-17,-24,-12
874,94,-53,1012,-10,-26,-12
875,134,-23,987,-6,-9,-9
876,55,10,1029,-10,18,-2
877,-78,24,993,-17,29,1
878,-147,10,1000,-20,16,-3
879,-112,-45,960,-23,-7,-6
880,-7,-54,1013,-16,-25,-11
881,121,-56,995,-10,-24,-13
882,115,-17,1014,-4,0,-7
883,26,16,1009,-9,20,-1
884,-99,22,1003,-15,27,0
885,-147,-11,967,-24,10,-2
886,-84,-27,995,-19,-12,-9
887,31,-57,998,-15,-26,-10
888,127,-34,1019,-7,-18,-11
889,99,-14,990,-8,4,-5
890,-4,28,1004,-12,24,-2
891,-110,9,996,-21,23,-1
892,-148,-9,987,-24,6,-3
893,-52,-51,995,-21,-18,-8
894,68,-59,1001,-12,-25,-13
895,121,-38,997,-6,-12,-8
896,85,8,1008,-6,11,-5
897,-40,28,1003,-14,27,-2
898,-136,14,1001,-22,22,1
899,-128,-20,987,-25,-1,-5
900,-28,-66,983,-20,-19,-11
901,94,-54,1006,-10,-23,-12
902,120,-26,999,-8,-5,-9
903,56,18,1013,-7,17,-2
904,-73,21,1005,-17,28,2
905,-140,13,987,-22,16,0
906,-112,-35,984,-24,-7,-5
907,1,-63,989,-18,-25,-11
908,108,-52,1011,-9,-22,-11
909,122,-14,1001,-6,0,-8
910,25,6,1013,-9,22,-1
911,-92,29,997,-15,25,0
912,-154,-5,982,-25,11,-1
913,-77,-31,978,-22,-13,-9
914,30,-58,1013,-17,-25,-12
915,125,-39,1007,-9,-17,-12
916,101,-22,997,-10,5,-6
917,-8,21,1003,-12,25,-1
918,-113,10,996,-21,24,0
919,-147,-6,981,-21,5,-4
920,-55,-47,996,-20,-19,-9
921,72,-47,1005,-14,-26,-13
922,127,-43,998,-8,-11,-9
923,74,0,1005,-6,12,-4
924,-48,16,1007,-14,26,-1
925,-134,14,992,-18,20,0
926,-122,-24,991,-24,-3,-5
927,-22,-48,995,-17,-22,-12
928,97,-53,993,-10,-25,-11
929,114,-19,1008,-7,-5,-9
930,53,0,1004,-9,17,-4
931,-84,25,1007,-16,27,1
932,-133,1,988,-23,14,-2
933,-103,-35,983,-21,-6,-7
934,6,-56,984,-17,-24,-11
935,113,-47,1018,-7,-20,-12
936,116,-14,998,-6,0,-8
937,21,19,1016,-10,22,-2
938,-98,17,992,-19,26,0
939,-149,-4,980,-23,11,-2
940,-80,-43,980,-21,-13,-7
941,32,-51,1010,-13,-26,-10
942,138,-42,1012,-9,-18,-12
943,99,-10,998,-7,7,-6
944,-16,24,1001,-10,25,1
945,-120,18,1003,-20,23,0
946,-150,-19,968,-25,5,-5
947,-61,-33,1011,-19,-19,-10
948,81,-60,996,-15,-29,-13
949,129,-37,1006,-6,-11,-10
950,90,-3,1003,-7,11,-3
951,-62,19,1005,-14,29,1
952,-129,16,991,-19,20,-1
953,-141,-21,990,-24,0,-4
954,-18,-42,992,-18,-24,-12
955,95,-59,1000,-12,-25,-12
956,118,-29,997,-7,-7,-9
957,62,2,1019,-9,16,-4
958,-77,19,993,-14,27,2
959,-144,11,994,-20,17,-1
960,-99,-37,983,-20,-8,-7
961,-8,-45,983,-16,-23,-10
962,115,-46,1013,-10,-21,-13
963,115,-19,1007,-7,-1,-9
964,25,8,1002,-11,22,-1
965,-89,21,1010,-17,26,-1
966,-153,-10,974,-21,11,-1
967,-85,-30,978,-19,-12,-8
968,32,-49,1010,-15,-25,-13
969,124,-37,1011,-10,-18,-10
970,105,-5,998,-9,6,-5
971,-12,12,1001,-13,24,-1
972,-107,13,1002,-20,23,1
973,-152,-15,973,-24,5,-2
974,-55,-39,1000,-19,-17,-10
975,62,-61,1010,-13,-25,-13
976,121,-35,994,-7,-13,-9
977,80,0,1007,-7,10,-4
978,-41,32,1001,-14,24,0
979,-127,14,992,-22,20,0
980,-128,-20,993,-23,0,-5
981,-31,-61,988,-20,-21,-11
982,92,-59,1001,-10,-26,-12
983,113,-24,996,-6,-8,-8
984,65,5,1012,-8,15,-5
985,-73,32,1003,-16,27,1
986,-137,14,988,-23,16,-2
987,-101,-35,987,-24,-7,-8
988,-6,-60,985,-18,-22,-11
989,109,-46,1009,-10,-21,-11
990,112,-23,1005,-6,-1,-8
991,26,13,1011,-9,20,-2
992,-82,20,1004,-16,26,0
993,-148,-3,976,-22,12,-2
994,-81,-45,982,-22,-13,-8
995,31,-48,1005,-15,-26,-12
996,118,-45,1012,-9,-18,-10
997,102,-10,995,-8,4,-6
998,-3,17,1011,-11,24,-1
999,-110,13,988,-19,24,0
1000,-148,-6,982,-23,7,-5
1001,-60,-45,996,-20,-16,-11
1002,63,-59,1009,-14,-25,-14
1003,122,-40,999,-7,-14,-11
1004,88,-6,1004,-6,9,-5
1005,-43,23,999,-11,25,-1
1006,-127,19,998,-19,21,0
1007,-133,-14,986,-23,0,-5
1008,-30,-48,999,-19,-21,-11
1009,84,-59,997,-12,-24,-12
1010,120,-28,1001,-7,-9,-10
1011,62,0,1012,-9,14,-3
1012,-69,24,999,-14,27,2
1013,-138,6,997,-23,18,-2
1014,-100,-29,986,-20,-5,-8
1015,-11,-54,986,-16,-22,-9
1016,105,-47,1004,-7,-23,-14
1017,111,-18,1011,-3,-5,-11
1018,26,19,1009,-11,19,-1
1019,-80,13,999,-19,25,-2
1020,-144,-6,983,-20,11,-2
1021,-88,-34,974,-21,-11,-6
1022,29,-57,1007,-16,-25,-13
1023,110,-43,1003,-8,-16,-10
1024,110,-7,1009,-7,4,-6
1025,-3,18,1000,-11,23,-1
1026,-105,19,1001,-19,24,0
1027,-144,-13,974,-24,7,-4
1028,-70,-40,990,-19,-15,-9
1029,54,-58,1007,-15,-25,-12
1030,132,-39,1010,-8,-13,-12
1031,77,-11,989,-8,10,-3
1032,-23,38,1007,-12,25,-2
1033,-123,10,1000,-19,22,-1
1034,-143,-10,975,-22,2,-4
1035,-32,-50,1011,-21,-22,-11
1036,78,-65,992,-11,-26,-12
1037,116,-29,999,-7,-10,-7
1038,77,1,1010,-9,12,-6
1039,-75,21,1004,-12,27,3
1040,-128,21,998,-21,15,-1
1041,-111,-35,978,-25,-5,-7
1042,-7,-54,996,-16,-22,-10
1043,102,-52,1004,-11,-24,-13
1044,113,-28,994,-7,-3,-9
1045,40,18,1024,-8,17,-3
1046,-84,17,991,-18,26,-1
1047,-137,5,985,-19,13,-4
1048,-86,-33,987,-22,-11,-8
1049,8,-52,991,-16,-23,-12
1050,117,-46,1019,-8,-20,-11
1051,103,-15,1000,-7,2,-6
1052,8,16,1004,-11,22,0
1053,-91,15,1000,-17,24,1
1054,-145,-1,979,-23,10,-3
1055,-63,-39,986,-21,-14,-10
1056,36,-50,1013,-16,-24,-12
1057,119,-47,1005,-10,-14,-10
1058,91,-11,996,-6,8,-6
1059,-27,21,999,-11,24,0
1060,-107,19,1002,-19,20,-1
1061,-137,-18,980,-23,4,-4
1062,-43,-34,1005,-19,-17,-10
1063,80,-62,1000,-14,-23,-13
1064,111,-37,996,-8,-8,-8
1065,71,2,1009,-8,12,-5
1066,-57,18,1001,-13,26,0
1067,-140,11,995,-20,18,0
1068,-104,-19,986,-22,-6,-8
1069,-18,-50,996,-16,-21,-12
1070,101,-47,991,-12,-22,-11
1071,111,-25,1013,-9,-3,-9
1072,38,4,1006,-11,19,-2
1073,-75,16,1005,-16,26,0
1074,-142,-1,980,-21,15,-3
1075,-91,-28,978,-21,-9,-7
1076,11,-51,1004,-17,-22,-12
1077,114,-43,999,-10,-19,-12
1078,103,-12,1015,-8,3,-7
1079,17,16,1002,-11,22,-2
1080,-96,8,1002,-16,25,-2
1081,-141,-5,974,-22,10,-4
1082,-74,-33,991,-19,-13,-9
1083,36,-47,1002,-15,-25,-12
1084,111,-38,1021,-11,-15,-10
1085,100,-7,992,-10,5,-7
1086,-17,15,1007,-14,25,-1
1087,-111,8,992,-21,22,-1
1088,-154,-15,987,-21,3,-3
1089,-48,-41,993,-20,-20,-9
1090,69,-50,1006,-13,-26,-12
1091,135,-38,999,-8,-12,-9
1092,90,4,1011,-7,12,-6
1093,-56,11,992,-17,28,1
1094,-139,16,1005,-17,21,-1
1095,-133,-31,978,-24,-2,-4
1096,-23,-43,991,-16,-23,-10
1097,97,-48,1004,-11,-27,-11
1098,129,-24,1005,-8,-7,-10
1099,55,5,1011,-9,18,-2
1100,-74,19,1003,-15,27,0
1101,-148,5,989,-22,16,-1
1102,-109,-29,972,-19,-7,-7
1103,0,-56,1004,-16,-25,-12
1104,108,-43,1002,-7,-22,-12
1105,119,-14,1007,-7,-1,-7
1106,41,14,1014,-10,19,-1
1107,-100,15,990,-17,28,3
1108,-149,4,982,-21,12,-2
1109,-97,-34,985,-21,-13,-7
1110,34,-43,1003,-16,-26,-12
1111,138,-47,1019,-10,-18,-11
1112,109,-21,993,-9,6,-6
1113,-3,12,1007,-12,27,0
1114,-130,10,995,-18,25,0
1115,-156,-5,979,-23,5,-3
1116,-63,-34,995,-20,-17,-9
1117,70,-45,1012,-15,-27,-12
1118,148,-42,997,-10,-16,-12
1119,88,-6,1010,-8,11,-5
1120,-47,20,996,-16,28,2
1121,-138,7,1004,-21,23,-1
1122,-143,-24,982,-26,0,-3
1123,-29,-45,987,-19,-22,-11
1124,101,-51,1013,-12,-27,-14
1125,129,-28,998,-9,-7,-7
1126,60,7,1005,-10,17,-3
1127,-75,16,1013,-16,28,0
1128,-148,5,983,-22,18,0
1129,-102,-35,980,-21,-7,-7
1130,-3,-47,994,-18,-24,-11
1131,111,-48,1006,-11,-23,-11
1132,115,-18,1008,-7,-2,-9
1133,29,10,1007,-11,21,-1
1134,-95,16,1002,-18,27,0
1135,-140,-8,973,-22,12,-3
1136,-88,-37,984,-20,-12,-7
1137,26,-50,1005,-14,-25,-11
1138,125,-41,1016,-9,-18,-12
1139,101,-8,996,-7,4,-6
1140,-3,19,1001,-13,23,-1
1141,-112,13,1005,-19,23,-1
1142,-148,-14,969,-24,7,-2
1143,-54,-39,999,-17,-16,-11
1144,59,-51,1012,-15,-24,-11
1145,125,-35,993,-8,-12,-11
1146,87,-6,1007,-7,9,-5
1147,-45,29,1003,-14,26,1
1148,-119,12,990,-20,20,-2
1149,-141,-22,994,-23,0,-5
1150,-23,-46,994,-18,-21,-12
1151,83,-58,999,-11,-23,-13
1152,120,-30,1000,-7,-7,-8
1153,60,10,1009,-8,15,-4
1154,-64,23,996,-16,27,0
1155,-138,8,1002,-22,17,-1
1156,-109,-30,972,-23,-5,-6
1157,-5,-53,1002,-17,-23,-11
1158,107,-45,999,-12,-22,-12
1159,106,-20,1005,-8,-2,-7
1160,34,12,1014,-10,19,-2
1161,-87,13,1003,-17,26,0
1162,-135,-9,968,-20,11,-3
1163,-93,-34,990,-21,-10,-7
1164,27,-48,996,-16,-25,-13
1165,110,-43,1010,-9,-17,-10
1166,108,-9,1003,-9,4,-7
1167,-1,13,1008,-13,24,-1
1168,-100,13,988,-19,23,-1
1169,-150,-15,985,-23,7,-3
1170,-64,-39,988,-19,-16,-8
1171,53,-50,1010,-14,-25,-12
1172,124,-39,1001,-9,-13,-9
1173,86,0,1006,-6,9,-4
1174,-29,24,993,-14,25,-1
1175,-122,10,1005,-21,22,0
1176,-135,-23,976,-22,1,-5
1177,-34,-48,1005,-20,-20,-11
1178,82,-64,997,-11,-25,-11
1179,118,-22,998,-6,-8,-8
1180,68,2,1010,-9,13,-4
1181,-62,26,1001,-13,28,0
1182,-137,13,1000,-20,18,-1
1183,-109,-26,981,-23,-4,-7
1184,-14,-54,989,-17,-21,-10
1185,103,-52,1005,-11,-23,-13
1186,113,-23,1009,-7,-4,-9
1187,39,9,1004,-10,18,-1
1188,-86,17,1011,-16,26,0
1189,-142,-1,972,-21,13,-2
1190,-94,-33,988,-20,-10,-8
1191,15,-42,995,-15,-25,-10
1192,110,-42,1012,-10,-19,-12
1193,119,-12,1003,-8,2,-7
1194,0,10,1011,-13,24,1
1195,-93,16,989,-16,23,-1
1196,-154,-22,983,-22,9,-2
1197,-72,-33,981,-19,-15,-8
1198,46,-48,1014,-13,-26,-12
1199,122,-31,1009,-9,-15,-10
1200,92,-6,993,-7,8,-4
1201,-19,18,1006,-14,25,-1
1202,-122,6,996,-21,22,1
1203,-137,-17,977,-21,3,-4
1204,-42,-51,1013,-18,-19,-11
1205,74,-48,988,-11,-25,-12
1206,122,-34,1005,-7,-11,-9
1207,73,8,1002,-7,12,-4
1208,-56,22,1006,-16,27,1
1209,-132,5,996,-19,19,-1
1210,-118,-24,986,-23,-2,-6
1211,-13,-58,990,-18,-20,-11
1212,86,-39,999,-10,-22,-12
1213,120,-26,1006,-10,-4,-9
1214,38,13,1011,-9,18,-3
1215,-72,10,999,-17,25,-1
1216,-135,2,992,-19,14,-3
1217,-95,-37,971,-22,-8,-6
1218,0,-48,1003,-15,-22,-11
1219,106,-34,1001,-10,-20,-11
1220,113,-17,1013,-9,1,-8
1221,15,18,1005,-14,21,-1
1222,-97,8,1002,-19,25,0
1223,-140,-9,977,-21,10,-3
1224,-83,-46,980,-21,-12,-8
1225,44,-49,1012,-13,-25,-13
1226,116,-38,1011,-9,-15,-10
1227,100,-5,992,-8,7,-6
1228,-14,19,1006,-11,23,0
1229,-115,15,998,-21,22,-1
1230,-141,-18,971,-23,4,-3
1231,-57,-40,1010,-19,-18,-9
1232,73,-57,996,-15,-25,-11
1233,126,-35,998,-6,-11,-9
1234,75,0,1011,-8,11,-3
1235,-47,21,994,-14,26,0
1236,-127,6,1003,-19,19,0
1237,-127,-22,981,-23,-1,-3
1238,-27,-46,1000,-17,-20,-11
1239,94,-55,995,-10,-24,-12
1240,114,-17,1006,-8,-6,-8
1241,57,7,1010,-10,17,-3
1242,-71,14,1005,-17,25,1
1243,-138,0,987,-20,17,-1
1244,-104,-31,982,-20,-7,-8
1245,0,-56,990,-17,-23,-11
1246,104,-46,1006,-9,-21,-11
1247,113,-12,1004,-7,-1,-8
1248,27,10,1016,-11,20,-1
1249,-91,19,997,-17,25,-1
1250,-139,-8,972,-22,11,-3
1251,-86,-39,990,-20,-12,-8
1252,25,-49,998,-13,-25,-12
1253,117,-41,1014,-9,-18,-11
1254,99,-12,998,-7,3,-5
1255,5,22,1001,-10,23,-1
1256,-114,12,1004,-18,24,1
1257,-146,-9,964,-22,6,-3
1258,-60,-42,1012,-19,-16,-10
1259,59,-61,994,-15,-25,-12
1260,120,-40,1014,-8,-13,-9
1261,97,0,995,-7,8,-7
1262,-46,25,1007,-13,26,-1
1263,-115,19,993,-20,19,-2
1264,-137,-20,992,-22,2,-4
1265,-29,-45,992,-19,-19,-10
1266,82,-54,1004,-12,-24,-12
1267,123,-33,996,-8,-7,-9
1268,57,0,1014,-8,14,-3
1269,-55,21,994,-13,26,-2
1270,-132,8,1004,-20,17,-2
1271,-109,-22,973,-22,-4,-5
1272,-6,-47,999,-19,-22,-12
1273,100,-44,997,-12,-21,-11
1274,107,-16,1009,-10,-2,-8
1275,36,3,1016,-12,17,-4
1276,-85,9,991,-19,26,0
1277,-139,-8,985,-20,13,-3
1278,-84,-34,979,-20,-10,-8
1279,11,-46,1000,-15,-23,-12
1280,118,-32,1003,-9,-19,-12
1281,100,-8,1017,-8,4,-7
1282,9,17,993,-14,21,-2
1283,-107,12,1003,-19,24,0
1284,-139,-18,977,-24,7,-4
1285,-71,-50,994,-18,-14,-8
1286,54,-48,997,-11,-25,-12
1287,121,-39,1021,-7,-13,-10
1288,89,0,991,-6,7,-5
1289,-33,32,1000,-15,25,0
1290,-115,8,998,-21,20,-1
1291,-139,-20,987,-22,1,-4
1292,-33,-50,994,-20,-20,-10
1293,76,-58,1007,-13,-24,-11
1294,123,-28,991,-6,-9,-8
1295,64,1,1020,-8,14,-3
1296,-62,25,990,-14,25,1
1297,-139,11,1005,-21,18,-1
1298,-108,-30,974,-23,-4,-6
1299,-19,-51,997,-16,-22,-10
1300,107,-51,1000,-11,-23,-12
1301,111,-22,1009,-7,-2,-8
1302,36,12,1007,-7,18,-1
1303,-80,20,1001,-17,26,-1
1304,-143,2,986,-20,12,-2
1305,-95,-33,974,-21,-11,-8
1306,8,-47,1004,-15,-24,-12
1307,116,-45,1005,-10,-20,-11
1308,103,-16,1008,-8,3,-7
1309,15,11,1005,-12,22,-2
1310,-103,16,1004,-18,24,1
1311,-135,-8,966,-23,8,-2
1312,-82,-39,994,-19,-13,-7
1313,45,-49,1007,-15,-26,-13
1314,118,-36,1013,-10,-15,-9
1315,102,-10,991,-10,6,-5
1316,-28,22,1009,-12,25,0
1317,-103,7,995,-19,20,-1
1318,-145,-14,980,-23,3,-4
1319,-44,-39,999,-19,-18,-10
1320,72,-55,1005,-13,-25,-13
1321,123,-27,993,-8,-11,-9
1322,76,0,1012,-9,11,-3
1323,-55,25,993,-15,25,-1
1324,-129,4,1009,-20,18,0
1325,-119,-23,974,-22,-2,-5
1326,-21,-56,1000,-16,-21,-10
1327,97,-48,999,-8,-22,-13
1328,110,-26,1000,-8,-3,-9
1329,49,10,1016,-8,17,-2
1330,-76,22,999,-16,26,1
1331,-133,6,986,-20,14,-3
1332,-100,-34,981,-22,-7,-7
1333,13,-50,994,-19,-23,-12
1334,103,-46,1008,-9,-19,-11
1335,108,-14,1004,-8,0,-7
1336,13,7,1009,-12,22,-3
1337,-92,10,994,-17,24,-1
1338,-144,-7,979,-20,8,-3
1339,-72,-36,982,-20,-15,-8
1340,32,-44,1010,-14,-24,-11
1341,119,-37,1006,-10,-16,-10
1342,94,-5,1005,-9,6,-6
1343,-13,12,997,-14,23,0
1344,-115,17,1000,-19,21,0
1345,-139,-22,975,-25,4,-4
1346,-55,-41,1004,-17,-18,-9
1347,70,-53,1004,-14,-25,-11
1348,122,-33,999,-6,-12,-9
1349,79,-1,1005,-7,10,-4
1350,-46,28,1001,-15,26,0
1351,-131,16,992,-27,25,3
1352,-129,-27,992,-27,-2,-5
1353,-24,-50,989,-17,-20,-11
1354,97,-58,1004,-12,-24,-11
1355,117,-23,1002,-9,-7,-8
1356,59,1,1008,-8,16,-3
1357,-80,20,1005,-15,26,1
1358,-134,8,990,-20,14,-2
1359,-96,-36,984,-20,-8,-7
1360,-5,-46,991,-17,-23,-10
1361,112,-41,1007,-10,-22,-13
1362,113,-17,1005,-8,0,-8
1363,17,7,1009,-11,21,0
1364,-87,18,999,-17,24,-1
1365,-144,-13,977,-21,11,-2
1366,-77,-33,982,-19,-13,-8
1367,23,-49,1008,-13,-24,-12
1368,123,-40,1007,-8,-16,-11
1369,99,-16,1004,-7,5,-6
1370,-3,26,1001,-11,23,-2
1371,-105,12,997,-18,23,0
1372,-147,-5,971,-22,7,-4
1373,-63,-43,999,-20,-16,-9
1374,72,-55,1010,-14,-26,-13
1375,118,-46,997,-9,-11,-9
1376,83,0,1005,-5,10,-5
1377,-39,16,1001,-13,25,0
1378,-129,21,990,-19,22,0
1379,-129,-19,991,-24,1,-6
1380,-34,-45,1004,-17,-20,-11
1381,92,-54,990,-13,-24,-12
1382,118,-32,1005,-8,-6,-8
1383,58,8,1007,-9,14,-3
1384,-62,17,998,-15,28,-1
1385,-134,2,995,-21,18,-1
1386,-110,-28,984,-21,-6,-6
1387,0,-47,992,-15,-21,-12
1388,102,-46,1004,-10,-22,-12
1389,109,-10,1006,-8,-1,-9
1390,29,3,1016,-13,20,-4
1391,-84,11,989,-18,26,-1
1392,-141,-4,989,-21,12,-2
1393,-90,-39,979,-21,-11,-7
1394,26,-47,1000,-14,-25,-14
1395,108,-41,1008,-10,-18,-13
1396,106,-8,1009,-8,4,-8
1397,3,12,1003,-11,23,-2
1398,-111,10,994,-16,24,0
1399,-147,-2,978,-21,6,-5
1400,-65,-40,987,-20,-14,-11
1401,58,-44,1012,-13,-24,-14
1402,125,-39,1006,-11,-13,-10
1403,90,-7,1001,-9,9,-6
1404,-35,16,998,-13,25,1
1405,-125,13,992,-20,20,-1
1406,-137,-23,988,-21,0,-5
1407,-38,-49,1000,-19,-19,-12
1408,84,-50,1006,-10,-26,-12
1409,128,-25,996,-6,-10,-10
1410,58,7,1011,-8,14,-4
1411,-55,23,997,-16,26,1
1412,-144,6,998,-22,19,0
1413,-106,-35,977,-23,-6,-7
1414,-14,-53,999,-15,-21,-12
1415,111,-49,995,-10,-23,-11
1416,113,-17,1009,-7,-2,-8
1417,46,18,1013,-10,18,-4
1418,-81,17,998,-17,27,1
1419,-149,2,983,-23,15,-3
1420,-88,-43,982,-21,-10,-8
1421,10,-52,998,-17,-24,-13
1422,118,-54,1005,-11,-21,-11
1423,106,-12,1008,-6,3,-8
1424,10,14,1013,-13,23,-1
1425,-99,15,989,-17,25,0
1426,-147,-5,980,-22,9,-3
1427,-76,-40,983,-20,-15,-10
1428,47,-49,1010,-14,-25,-15
1429,122,-38,1009,-8,-15,-10
1430,99,-6,1003,-8,8,-6
1431,-19,16,998,-14,25,0
1432,-125,5,996,-20,23,0
1433,-145,-14,976,-21,2,-4
1434,-55,-48,1005,-18,-19,-9
1435,78,-44,1001,-12,-27,-12
1436,126,-34,1004,-8,-11,-8
1437,83,5,1006,-7,12,-5
1438,-57,22,1000,-16,27,0
1439,-138,11,994,-20,19,0
1440,-121,-35,989,-24,-4,-5
1441,-23,-52,992,-16,-22,-9
1442,97,-53,997,-11,-25,-11
1443,119,-19,1009,-5,-6,-9
1444,49,12,1009,-10,17,-3
1445,-76,24,998,-17,27,0
1446,-141,-1,996,-23,16,-1
1447,-104,-33,977,-21,-7,-6
1448,6,-47,992,-17,-24,-11
1449,112,-45,1010,-10,-21,-12
1450,105,-18,1009,-7,1,-7
1451,31,13,1007,-10,19,-3
1452,-106,9,1006,-17,26,0
1453,-138,0,969,-21,9,-1
1454,-82,-44,992,-22,-13,-7
1455,29,-45,998,-14,-26,-11
1456,125,-38,1016,-9,-17,-10
1457,101,-17,1000,-9,4,-6
1458,-14,21,1000,-13,24,1
1459,-105,8,995,-19,23,-2
1460,-151,-10,981,-23,4,-3
1461,-48,-40,991,-19,-18,-9
1462,65,-50,1012,-14,-25,-13
1463,133,-37,1002,-9,-12,-10
1464,75,0,1004,-8,12,-5
1465,-47,20,994,-17,26,1
1466,-130,6,1005,-19,21,-1
1467,-128,-16,978,-24,-1,-5
1468,-25,-52,1009,-20,-20,-11
1469,98,-54,993,-12,-24,-12
1470,114,-27,1000,-9,-5,-9
1471,63,14,1015,-9,16,-4
1472,-84,12,997,-16,27,1
1473,-141,9,994,-18,16,-3
1474,-100,-42,986,-22,-8,-7
1475,-5,-51,987,-14,-23,-11
1476,120,-46,1006,-9,-23,-12
1477,106,-18,1011,-6,0,-7
1478,24,17,1004,-10,21,-1
1479,-90,13,1006,-17,27,-1
1480,-149,-1,978,-21,11,-2
1481,-82,-37,980,-21,-13,-7
1482,31,-57,1007,-13,-25,-13
1483,118,-41,1005,-8,-17,-9
1484,107,-8,1010,-7,5,-6
1485,-2,14,1003,-11,24,1
1486,-113,15,993,-18,23,1
1487,-142,-18,975,-22,5,-4
1488,-62,-34,998,-18,-16,-8
1489,61,-49,1003,-13,-27,-13
1490,124,-34,1015,-9,-13,-12
1491,89,-11,992,-9,9,-5
1492,-41,17,1005,-13,26,0
1493,-124,9,988,-19,19,0
1494,-136,-16,992,-23,0,-5
1495,-35,-49,994,-17,-20,-10
1496,84,-47,1002,-12,-25,-13
1497,121,-32,1002,-8,-10,-10
1498,64,9,1008,-9,13,-4
1499,-69,15,999,-15,26,0
1500,-138,10,996,-20,17,-2
1501,-113,-30,985,-22,-7,-5
1502,-3,-51,991,-14,-25,-12
1503,107,-51,1002,-10,-24,-11
1504,117,-19,1001,-8,-3,-8
1505,33,9,1014,-8,20,-3
1506,-83,27,998,-16,26,0
1507,-148,0,983,-21,14,-2
1508,-90,-33,983,-22,-11,-6
1509,7,-51,996,-18,-24,-11
1510,127,-41,1006,-11,-21,-13
1511,106,-20,1012,-10,3,-6
1512,9,12,1001,-11,23,-1
1513,-98,16,1003,-16,25,0
1514,-152,-10,964,-23,8,-1
1515,-66,-32,996,-20,-16,-9
1516,49,-49,1004,-14,-25,-13
1517,120,-38,1018,-9,-13,-9
1518,101,-9,996,-8,7,-6
1519,-29,19,1001,-12,26,-1
1520,-113,16,989,-19,21,1
1521,-144,-22,984,-23,3,-4
1522,-45,-50,995,-20,-18,-10
1523,77,-50,1007,-12,-26,-13
1524,128,-40,998,-6,-10,-10
1525,68,6,1010,-5,13,-5
1526,-53,22,999,-15,27,0
1527,-139,16,998,-19,19,0
1528,-124,-26,981,-26,-3,-5
1529,-24,-55,999,-18,-22,-11
1530,99,-57,999,-9,-25,-11
1531,119,-28,999,-7,-6,-8
1532,52,8,1012,-7,17,-3
1533,-80,25,1005,-13,26,1
1534,-142,6,979,-21,14,-3
1535,-101,-30,992,-19,-9,-8
1536,3,-54,989,-18,-24,-10
1537,115,-40,1007,-8,-22,-13
1538,111,-27,1002,-8,0,-7
1539,17,17,1024,-9,21,-3
1540,-81,11,985,-17,23,-1
1541,-153,-4,990,-18,11,-3
1542,-77,-33,979,-20,-14,-7
1543,30,-47,1005,-14,-25,-12
1544,116,-38,1007,-8,-18,-10
1545,104,-15,1007,-9,4,-7
1546,-6,16,993,-11,24,0
1547,-109,13,1006,-18,24,1
1548,-142,-15,975,-21,6,-4
1549,-61,-34,997,-18,-17,-8
1550,67,-55,1007,-15,-26,-11
1551,113,-43,1002,-8,-11,-9
1552,94,-1,994,-7,7,-4
1553,-40,25,1014,-12,26,-1
1554,-124,22,987,-21,21,0
1555,-128,-14,994,-24,1,-4
1556,-31,-58,989,-21,-19,-10
1557,75,-58,1008,-11,-24,-12
1558,123,-35,986,-7,-8,-9
1559,51,8,1021,-7,16,-3
1560,-56,32,993,-16,26,1
1561,-133,6,1009,-22,17,-2
1562,-109,-23,969,-22,-6,-6
1563,-2,-56,1005,-19,-23,-11
1564,97,-55,988,-12,-22,-12
1565,111,-25,1014,-8,-3,-8
1566,38,6,1004,-10,18,-4
1567,-88,25,1008,-15,25,1
1568,-135,4,974,-21,11,-3
1569,-85,-28,990,-23,-10,-8
1570,20,-49,993,-18,-24,-11
1571,114,-45,1015,-11,-17,-11
1572,101,-19,998,-9,4,-7
1573,2,18,1007,-13,23,-2
1574,-105,6,1001,-18,24,0
1575,-142,-13,972,-25,6,-2
1576,-68,-37,997,-19,-15,-9
1577,58,-50,1007,-15,-25,-13
1578,123,-43,1006,-9,-13,-10
1579,86,-1,999,-7,10,-3
1580,-39,19,1002,-14,25,1
1581,-112,15,999,-19,19,-1
1582,-142,-18,985,-23,1,-4
1583,-26,-50,997,-21,-19,-11
1584,81,-64,1004,-11,-24,-12
1585,112,-28,992,-6,-7,-9
1586,63,3,1009,-9,14,-4
1587,-63,28,1000,-14,27,0
1588,-137,6,998,-20,17,1
1589,-101,-21,983,-21,-5,-8
1590,-10,-61,995,-19,-21,-10
1591,103,-51,996,-9,-22,-13
1592,114,-23,1014,-6,-3,-9
1593,24,9,1001,-7,19,-1
1594,-87,25,1008,-15,24,-1
1595,-136,-3,981,-21,12,-2
1596,-92,-30,982,-20,-9,-5
1597,29,-60,996,-16,-24,-13
1598,109,-46,1014,-8,-17,-12
1599,103,-18,997,-8,3,-6
1600,4,24,1014,-13,23,-1
1601,-99,15,989,-17,23,0
1602,-142,2,986,-22,8,-2
1603,-71,-45,983,-24,-14,-8
1604,41,-45,1013,-14,-25,-14
1605,129,-51,1006,-10,-16,-11
1606,88,-16,1001,-8,8,-5
1607,-29,21,994,-11,24,-2
1608,-106,16,1008,-20,21,-2
1609,-153,-12,975,-23,5,-2
1610,-31,-35,1007,-20,-19,-11
1611,75,-63,1004,-15,-25,-12
1612,119,-34,990,-7,-9,-7
1613,76,3,1015,-8,13,-4
1614,-69,17,995,-14,27,1
1615,-126,20,999,-18,18,-2
1616,-116,-31,990,-24,-2,-6
1617,-19,-46,986,-17,-20,-10
1618,107,-54,1004,-11,-22,-12
1619,104,-17,1004,-8,-3,-7
1620,43,10,1006,-8,17,-3
1621,-74,13,1008,-16,26,-2
1622,-147,0,980,-21,14,0
1623,-84,-35,985,-19,-10,-7
1624,4,-55,996,-16,-23,-12
1625,115,-40,1002,-8,-21,-11
1626,107,-18,1015,-7,1,-7
1627,10,25,1001,-12,23,-1
1628,-89,11,1002,-18,24,-1
1629,-150,-8,971,-23,9,-3
1630,-74,-36,991,-21,-14,-8
1631,50,-56,998,-15,-23,-14
1632,114,-41,1021,-9,-13,-9
1633,101,-9,993,-7,8,-7
1634,-25,19,1006,-11,27,-2
1635,-113,19,990,-19,22,1
1636,-142,-10,984,-23,4,-4
1637,-46,-44,999,-21,-19,-8
1638,75,-50,1002,-14,-25,-13
1639,121,-37,1001,-8,-9,-10
1640,73,-9,1005,-9,12,-5
1641,-57,18,1003,-13,27,-1
1642,-132,5,992,-20,21,-2
1643,-118,-19,990,-21,-1,-5
1644,-17,-47,997,-17,-20,-10
1645,95,-42,998,-10,-23,-12
1646,110,-16,1004,-10,-4,-9
1647,51,9,1010,-11,17,-4
1648,-83,16,1002,-19,27,0
1649,-136,-1,986,-22,15,-2
1650,-97,-47,984,-22,-8,-7
1651,3,-45,993,-14,-23,-11
1652,107,-48,1006,-9,-19,-11
1653,108,-9,1009,-5,1,-7
1654,12,20,1014,-10,21,-2
1655,-86,15,990,-17,22,-1
1656,-152,-9,979,-22,9,-2
1657,-62,-36,985,-21,-14,-9
1658,25,-54,1002,-14,-23,-12
1659,122,-36,1013,-9,-17,-9
1660,97,-9,1005,-9,7,-6
1661,-13,17,998,-11,26,0
1662,-110,7,997,-20,23,1
1663,-141,-12,983,-23,5,-3
1664,-57,-42,994,-19,-18,-9
1665,65,-52,1012,-15,-26,-13
1666,125,-29,999,-9,-12,-8
1667,82,-1,1005,-10,12,-4
1668,-49,22,1002,-16,26,1
1669,-127,5,993,-22,20,-1
1670,-129,-29,989,-23,-1,-4
1671,-21,-47,997,-17,-21,-10
1672,97,-54,995,-12,-23,-12
1673,113,-21,1011,-7,-6,-7
1674,52,9,1003,-11,15,-2
1675,-74,19,1006,-16,26,0
1676,-137,4,994,-21,14,0
1677,-99,-33,973,-23,-8,-7
1678,4,-53,1003,-19,-22,-11
1679,103,-44,997,-10,-20,-10
1680,110,-15,1007,-8,1,-7
1681,28,6,1014,-11,19,-3
1682,-96,20,994,-17,25,1
1683,-134,-8,980,-20,9,-3
1684,-78,-28,985,-20,-13,-8
1685,23,-54,999,-17,-24,-9
1686,122,-37,1011,-10,-18,-12
1687,94,-17,1002,-10,5,-5
1688,-1,19,996,-13,22,-1
1689,-109,11,1005,-18,22,1
1690,-144,-12,968,-25,2,-5
1691,-60,-30,1001,-17,-17,-9
1692,72,-53,1009,-18,-26,-12
1693,114,-37,998,-9,-10,-9
1694,90,-7,1006,-9,9,-5
1695,-41,15,1002,-14,26,1
1696,-127,11,987,-19,19,1
1697,-123,-21,996,-22,-2,-5
1698,-34,-43,1000,-19,-20,-10
1699,95,-53,993,-13,-24,-12
1700,112,-26,1007,-8,-6,-7
1701,59,0,1003,-10,15,-3
1702,-72,24,1006,-15,26,0
1703,-135,1,988,-22,15,-2
1704,-105,-32,996,-22,-6,-8
1705,6,-59,983,-16,-23,-9
1706,94,-45,1005,-9,-20,-11
1707,116,-13,1008,-8,-1,-8
1708,19,13,1010,-10,21,-1
1709,-82,19,992,-19,25,0
1710,-140,-5,997,-21,11,-3
1711,-82,-39,966,-23,-12,-7
1712,27,-53,1009,-16,-24,-12
1713,113,-41,1006,-9,-17,-10
1714,98,-10,1008,-8,5,-6
1715,1,19,1006,-12,24,-2
1716,-111,10,993,-19,23,1
1717,-139,-8,976,-22,7,-4
1718,-62,-43,993,-21,-16,-10
1719,54,-48,1004,-14,-24,-13
1720,124,-39,1015,-8,-12,-11
1721,86,-3,996,-7,10,-4
1722,-36,20,1002,-14,26,1
1723,-120,12,993,-19,20,-1
1724,-135,-21,984,-22,1,-5
1725,-32,-46,1001,-19,-19,-10
1726,83,-55,1000,-12,-24,-12
1727,120,-29,1000,-7,-8,-9
1728,62,3,1006,-7,14,-5
1729,-66,26,1000,-15,26,0
1730,-129,0,991,-20,16,-3
1731,-117,-27,995,-22,-4,-6
1732,-4,-56,981,-17,-22,-12
1733,102,-45,1014,-9,-20,-12
1734,113,-22,995,-7,-1,-7
1735,37,16,1025,-8,19,-3
1736,-79,16,987,-16,27,0
1737,-154,-1,990,-20,14,-2
1738,-92,-35,982,-20,-12,-8
1739,3,-55,993,-16,-26,-12
1740,98,-38,1007,-9,-21,-9
1741,119,-11,1009,-8,0,-8
1742,15,16,1014,-13,21,-1
1743,-80,16,987,-18,21,1
1744,-154,-9,985,-22,9,-1
1745,-80,-35,981,-20,-15,-6
1746,40,-48,1009,-15,-25,-11
1747,127,-44,1010,-12,-16,-10
1748,118,-6,1005,-9,6,-7
1749,-23,9,999,-13,26,1
1750,-123,17,994,-20,24,1
1751,-169,-24,982,-24,4,-2
1752,-59,-32,993,-19,-21,-8
1753,81,-54,1007,-14,-29,-11
1754,146,-22,998,-8,-13,-10
1755,99,0,1012,-11,13,-3
1756,-55,19,998,-17,29,2
1757,-158,4,998,-22,22,1
1758,-135,-36,977,-24,-1,-5
1759,-40,-59,994,-16,-23,-9
1760,112,-41,996,-9,-29,-12
1761,141,-19,1015,-8,-7,-9
1762,67,19,1003,-9,18,-2
1763,-84,25,1013,-19,30,2
1764,-160,-11,981,-24,16,0
1765,-119,-45,974,-22,-8,-5
1766,2,-62,997,-14,-27,-11
1767,122,-42,1005,-5,-25,-12
1768,134,-1,1007,-6,-1,-8
1769,31,18,1022,-11,22,-1
1770,-103,26,986,-19,28,2
1771,-159,-19,981,-25,12,-1
1772,-92,-46,977,-22,-13,-7
1773,31,-62,1008,-14,-28,-12
1774,134,-38,1013,-7,-19,-12
1775,110,-7,1005,-7,5,-6
1776,-4,30,999,-10,26,-1
1777,-121,12,1000,-19,26,1
1778,-150,-5,971,-22,6,-3
1779,-63,-45,1006,-20,-17,-9
1780,77,-53,999,-14,-26,-13
1781,121,-40,1009,-7,-11,-8
1782,87,-1,994,-8,10,-5
1783,-46,23,1010,-12,27,0
1784,-127,10,984,-17,20,0
1785,-132,-16,994,-20,-1,-5
1786,-20,-49,989,-18,-22,-12
1787,82,-42,1007,-11,-23,-11
1788,126,-32,994,-10,-8,-9
1789,46,16,1021,-8,17,-3
1790,-65,9,993,-18,25,1
1791,-137,7,999,-21,16,-3
1792,-97,-42,975,-22,-6,-5
1793,-8,-41,1000,-15,-22,-11
1794,100,-40,1002,-12,-21,-11
1795,110,-15,1008,-10,-1,-8
1796,19,15,1012,-12,20,-1
1797,-77,10,1000,-19,22,-1
1798,-139,-14,977,-21,11,-1
1799,-80,-32,985,-20,-11,-7
1800,28,-53,1006,-15,-24,-12
1801,102,-39,1006,-8,-16,-9
1802,96,-6,1006,-10,4,-6
1803,-6,15,1003,-12,22,-3
1804,-100,11,995,-19,21,0
1805,-141,-12,975,-23,6,-4
1806,-57,-44,1002,-18,-16,-9
1807,61,-55,1000,-14,-24,-12
1808,118,-33,1005,-7,-12,-11
1809,83,0,1006,-7,8,-4
1810,-44,25,993,-16,26,1
1811,-120,12,993,-19,19,-1
1812,-134,-22,994,-23,0,-4
1813,-21,-49,994,-21,-21,-10
1814,82,-58,1002,-10,-24,-11
1815,120,-27,1001,-8,-8,-9
1816,52,7,1014,-10,15,-3
1817,-66,22,988,-17,26,1
1818,-134,7,1008,-21,15,-1
1819,-106,-34,969,-22,-7,-6
1820,0,-53,1002,-16,-23,-11
1821,101,-51,995,-10,-22,-13
1822,105,-13,1006,-4,-1,-8
1823,35,17,1014,-8,18,-3
1824,-90,21,1002,-18,25,1
1825,-129,1,977,-21,10,-2
1826,-82,-42,987,-22,-11,-9
1827,20,-58,995,-14,-23,-12
1828,102,-40,1008,-9,-17,-10
1829,102,-8,1008,-7,3,-7
1830,1,14,998,-11,22,1
1831,-94,16,1002,-17,22,0
1832,-138,-11,977,-25,6,-4
1833,-55,-37,994,-19,-14,-10
1834,46,-56,1008,-14,-22,-11
1835,118,-34,1010,-8,-12,-10
1836,80,-16,996,-9,9,-5
1837,-39,21,1000,-13,26,-1
1838,-111,8,996,-18,18,-2
1839,-124,-21,988,-21,1,-6
1840,-36,-42,1000,-18,-19,-10
1841,87,-53,998,-11,-23,-13
1842,110,-30,999,-8,-7,-7
1843,57,9,1003,-9,12,-3
1844,-64,23,1007,-15,24,-1
1845,-125,3,992,-22,15,-2
1846,-109,-23,988,-22,-3,-7
1847,0,-60,987,-18,-20,-11
1848,91,-48,1008,-10,-20,-11
1849,104,-18,996,-8,-2,-9
1850,29,11,1022,-9,20,-3
1851,-75,17,992,-17,24,0
1852,-143,-2,981,-21,12,-2
1853,-88,-31,982,-21,-12,-9
1854,12,-52,1000,-16,-23,-10
1855,108,-37,1005,-10,-18,-11
1856,104,-14,1007,-9,3,-7
1857,9,9,1008,-12,21,-2
1858,-99,7,986,-17,23,1
1859,-154,-11,985,-21,8,-2
1860,-71,-31,986,-18,-18,-8
1861,45,-50,1009,-15,-26,-10
1862,125,-34,1009,-10,-17,-12
1863,110,-9,1005,-9,6,-7
1864,-35,18,993,-13,27,1
1865,-130,9,999,-20,23,1
1866,-146,-17,985,-21,3,-6
1867,-44,-51,992,-20,-21,-9
1868,87,-51,1010,-12,-27,-13
1869,123,-23,994,-6,-10,-9
1870,75,4,1008,-10,13,-4
1871,-57,28,1001,-15,27,0
1872,-139,7,999,-24,19,0
1873,-110,-33,983,-23,-5,-7
1874,-13,-69,990,-18,-22,-12
1875,100,-51,1003,-7,-24,-12
1876,108,-17,1003,-5,-4,-10
1877,42,16,1010,-8,18,-2
1878,-87,25,1005,-17,26,2
1879,-130,1,984,-22,12,-3
1880,-93,-40,983,-22,-9,-6
1881,5,-55,992,-18,-24,-12
1882,115,-52,1009,-10,-20,-12
1883,103,-17,1003,-7,2,-7
1884,9,19,1009,-12,22,-1
1885,-89,16,998,-15,24,-2
1886,-141,1,978,-21,9,-1
1887,-73,-37,982,-22,-14,-8
1888,39,-51,1016,-15,-24,-15
1889,116,-48,1005,-11,-14,-9
1890,92,-14,998,-6,8,-6
1891,-22,19,1005,-11,25,-1
1892,-106,19,993,-19,20,0
1893,-143,-14,985,-22,3,-4
1894,-44,-42,999,-19,-19,-11
1895,76,-53,1003,-13,-25,-13
1896,119,-34,1001,-8,-10,-9
1897,72,6,1002,-8,11,-4
1898,-55,19,1005,-15,27,-1
1899,-131,9,997,-18,18,0
1900,-122,-25,984,-25,-3,-5
1901,-21,-56,993,-18,-22,-11
1902,94,-51,1002,-10,-25,-10
1903,108,-19,1004,-9,-5,-7
1904,57,11,1012,-10,15,-4
1905,-75,27,1005,-17,26,1
1906,-131,2,981,-24,14,0
1907,-108,-34,987,-22,-8,-5
1908,5,-60,990,-20,-25,-11
1909,108,-47,1013,-10,-20,-11
1910,121,-28,1000,-7,1,-7
1911,22,10,1021,-8,21,-2
1912,-93,10,982,-15,26,1
1913,-158,-3,986,-20,11,-3
1914,-86,-27,975,-21,-15,-8
1915,30,-41,1014,-15,-27,-11
1916,138,-48,1011,-12,-18,-12
1917,107,-20,1002,-10,7,-6
1918,-7,4,994,-11,24,-2
1919,-123,7,1006,-17,25,0
1920,-162,-6,971,-19,5,-1
1921,-55,-30,1002,-18,-17,-10
1922,70,-50,1007,-13,-27,-12
1923,135,-34,998,-8,-15,-10
1924,94,0,1003,-9,10,-4
1925,-50,21,1003,-16,28,1
1926,-123,6,1002,-21,21,-1
1927,-141,-33,980,-22,1,-6
1928,-31,-49,992,-16,-22,-10
1929,94,-50,1008,-9,-25,-13
1930,123,-27,998,-6,-7,-9
1931,60,19,1012,-7,17,-4
1932,-67,23,1004,-17,29,0
1933,-140,4,992,-24,17,-1
1934,-114,-31,977,-24,-7,-5
1935,-13,-52,990,-20,-23,-12
1936,101,-51,1006,-11,-24,-12
1937,133,-18,1007,-9,-4,-7
1938,33,4,1010,-12,23,0
1939,-85,16,999,-16,27,0
1940,-155,-6,976,-22,14,-2
1941,-100,-23,980,-22,-12,-7
1942,16,-48,1002,-17,-25,-12
1943,129,-37,1018,-12,-20,-13
1944,126,-19,999,-11,3,-5
1945,-1,12,996,-13,26,-1
1946,-107,3,1007,-19,25,0
1947,-173,-15,969,-21,10,-1
1948,-69,-36,989,-17,-17,-9
1949,65,-52,1018,-14,-28,-13
1950,139,-29,997,-7,-16,-10
1951,97,-8,1001,-7,10,-5
1952,-37,18,1008,-14,27,1
1953,-133,13,990,-18,22,0
1954,-138,-27,988,-21,2,-7
1955,-41,-45,987,-18,-21,-11
1956,85,-47,1010,-9,-25,-13
1957,126,-31,991,-8,-10,-9
1958,64,13,1015,-9,15,-3
1959,-60,19,1004,-17,28,1
1960,-136,4,996,-21,18,0
1961,-108,-36,974,-22,-4,-6
1962,-16,-50,999,-16,-22,-10
1963,103,-38,996,-10,-24,-12
1964,107,-22,1007,-8,-2,-8
1965,39,13,1016,-10,18,-2
1966,-76,17,1001,-18,26,-1
1967,-143,-5,968,-23,13,-2
1968,-94,-35,999,-22,-9,-7
1969,15,-48,984,-19,-23,-13
1970,117,-46,1019,-10,-18,-12
1971,118,-19,1003,-7,2,-8
1972,0,12,1006,-11,25,0
1973,-103,15,992,-17,24,0
1974,-158,-3,981,-21,8,-3
1975,-60,-37,986,-20,-16,-11
1976,45,-51,1014,-14,-25,-12
1977,130,-36,1004,-9,-14,-11
1978,102,-11,1009,-8,7,-6
1979,-33,14,993,-13,27,1
1980,-123,9,1001,-19,22,-1
1981,-151,-22,984,-21,2,-4
1982,-41,-38,998,-18,-21,-9
1983,82,-47,1000,-12,-26,-13
1984,131,-28,1006,-9,-10,-9
1985,80,6,1003,-9,13,-4
1986,-62,17,1001,-16,28,0
1987,-147,2,998,-21,19,-1
1988,-124,-38,978,-23,-4,-6
1989,-19,-53,986,-15,-24,-11
1990,111,-40,1006,-9,-26,-13
1991,130,-22,1007,-7,-4,-10
1992,42,18,1013,-10,20,-1
1993,-79,22,996,-18,28,0
1994,-160,-7,985,-23,16,-2
1995,-95,-36,976,-22,-10,-6
1996,7,-54,1003,-16,-25,-12
1997,119,-46,998,-8,-22,-12
1998,117,-7,1021,-6,1,-8
1999,13,12,998,-13,24,1
2000,-107,19,1002,-17,26,1
2001,-142,-9,975,-23,8,-3
2002,-87,-44,986,-21,-12,-7
2003,47,-47,1008,-13,-27,-13
2004,133,-51,1013,-11,-16,-12
2005,93,-48,986,-3,8,-6
2006,-27,-9,1013,-3,24,-1
2007,-107,15,992,-7,22,-2
2008,-136,22,979,-11,5,-3
2009,-38,4,1008,-17,-16,-9
2010,68,-24,1003,-18,-22,-12
2011,121,-31,996,-15,-10,-9
2012,68,-20,1005,-15,13,-4
2013,-58,-10,999,-17,26,0
2014,-126,-23,1000,-15,17,-2
2015,-122,-24,977,-16,-2,-6
2016,-23,-35,998,-13,-21,-9
2017,77,-22,1002,-7,-23,-12
2018,112,0,1001,-8,-6,-8
2019,57,19,1013,-13,15,-3
2020,-58,17,998,-22,27,0
2021,-120,-10,1002,-24,16,-2
2022,-97,-50,969,-22,-4,-6
2023,-20,-51,997,-17,-20,-11
2024,93,-41,1001,-10,-22,-12
2025,103,-14,1013,-8,-1,-8
2026,34,11,1002,-11,18,-1
2027,-72,20,1008,-16,24,-2
2028,-125,-7,973,-21,13,-2
2029,-98,-27,982,-22,-7,-7
2030,9,-52,1003,-19,-23,-12
2031,94,-40,1013,-11,-21,-12
2032,111,-20,991,-11,0,-7
2033,17,7,1015,-11,20,-4
2034,-95,9,991,-18,24,1
2035,-147,-7,983,-21,8,-2
2036,-78,-33,991,-19,-16,-9
2037,42,-47,1010,-16,-25,-12
2038,131,-33,996,-10,-16,-10
2039,104,-7,1007,-9,7,-5
2040,-21,14,1004,-15,23,0
2041,-125,4,996,-19,22,-1
2042,-146,-30,982,-22,4,-3
2043,-50,-38,993,-19,-19,-9
2044,79,-49,1005,-12,-26,-12
2045,134,-19,999,-8,-13,-10
2046,80,-1,1013,-10,13,-3
2047,-56,16,1002,-15,28,1
2048,-141,-3,998,-20,20,1
2049,-125,-28,974,-21,-3,-5
2050,-28,-45,992,-17,-22,-10
2051,102,-38,1006,-10,-25,-12
2052,125,-20,1003,-9,-4,-8
2053,49,13,1014,-10,17,-3
2054,-76,9,1004,-18,26,-1
2055,-139,-11,973,-20,15,-3
2056,-94,-38,985,-20,-9,-7
2057,-1,-47,996,-14,-23,-10
2058,108,-31,1009,-7,-20,-12
2059,113,-13,1010,-7,0,-8
2060,13,12,1001,-11,21,-1
2061,-86,10,1002,-17,25,0
2062,-141,-14,978,-23,10,-4
2063,-81,-36,981,-18,-12,-7
2064,32,-53,1015,-13,-24,-12
2065,119,-34,1007,-7,-16,-12
2066,101,-8,997,-6,6,-5
2067,-9,17,1002,-11,24,-1
2068,-110,11,1004,-18,23,0
2069,-146,-20,973,-22,5,-2
2070,-63,-37,1002,-18,-17,-10
2071,66,-53,1003,-13,-26,-13
2072,121,-24,1000,-9,-13,-9
2073,94,-3,1004,-11,9,-4
2074,-35,15,1011,-13,27,-1
2075,-129,6,995,-20,22,0
2076,-131,-24,978,-22,2,-6
2077,-48,-46,988,-17,-19,-10
2078,81,-41,1001,-11,-27,-11
2079,124,-16,1009,-9,-9,-9
2080,68,6,1013,-12,15,-2
2081,-52,21,1007,-18,27,0
2082,-137,-8,984,-21,18,-2
2083,-117,-30,978,-20,-5,-6
2084,-20,-51,993,-19,-21,-9
2085,93,-39,1005,-10,-24,-11
2086,126,-12,1009,-8,-4,-7
2087,49,10,1019,-11,19,-3
2088,-77,11,993,-17,28,1
2089,-148,-5,979,-22,15,-2
2090,-102,-36,981,-20,-9,-9
2091,7,-47,1000,-16,-25,-11
2092,115,-32,1013,-11,-21,-11
2093,122,-14,1004,-9,1,-8
2094,9,10,999,-12,22,1
2095,-96,7,1001,-19,24,0
2096,-144,-20,975,-23,9,-5
2097,-81,-36,995,-19,-13,-8
2098,49,-46,1000,-15,-25,-12
2099,111,-34,1013,-9,-15,-10
2100,104,1,993,-9,6,-5
2101,-27,16,1012,-15,25,0
2102,-114,7,989,-20,21,0
2103,-139,-22,995,-22,4,-4
2104,-41,-49,980,-19,-18,-10
2105,70,-45,1010,-10,-25,-11
2106,126,-27,994,-7,-9,-11
2107,66,6,1016,-9,13,-3
2108,-56,15,994,-14,25,1
2109,-128,-2,1008,-20,17,-2
2110,-108,-39,966,-21,-2,-6
2111,-22,-46,998,-13,-20,-11
2112,91,-39,999,-10,-22,-13
2113,109,-8,1009,-6,-4,-8
2114,43,8,1011,-10,17,-3
2115,-75,14,1005,-17,26,0
2116,-130,-11,972,-19,14,-2
2117,-101,-38,990,-20,-8,-7
2118,4,-42,990,-15,-22,-12
2119,101,-35,1019,-8,-19,-10
2120,110,-10,999,-9,-1,-7
2121,14,9,1012,-11,19,-2
2122,-81,11,991,-16,22,-1
2123,-141,-13,984,-22,11,-3
2124,-69,-30,974,-19,-12,-9
2125,26,-42,1023,-13,-22,-10
2126,110,-36,994,-11,-16,-9
2127,83,-8,1007,-9,5,-5
2128,6,12,999,-11,20,-1
2129,-105,10,995,-18,22,1
2130,-126,-10,983,-22,5,-5
2131,-55,-39,1005,-20,-14,-9
2132,51,-42,993,-14,-21,-12
2133,109,-26,1004,-10,-11,-9
2134,70,-12,1000,-12,8,-5
2135,-40,15,1001,-15,22,0
2136,-111,-1,1006,-19,17,-2
2137,-110,-19,982,-20,0,-5
2138,-25,-45,990,-16,-18,-10
2139,72,-36,1002,-11,-21,-12
2140,107,-23,1003,-10,-5,-10
2141,48,0,1011,-10,14,-4
2142,-64,8,1001,-16,23,-1
2143,-114,-7,995,-20,13,-4
2144,-93,-34,978,-19,-5,-7
2145,-7,-38,994,-16,-20,-11
2146,92,-40,1004,-10,-18,-11
2147,94,-19,1008,-8,-1,-6
2148,25,11,1011,-12,18,-3
2149,-80,0,994,-17,23,-1
2150,-127,-7,984,-19,9,-4
2151,-77,-35,982,-18,-11,-7
2152,12,-36,1004,-12,-22,-10
2153,107,-31,1013,-10,-17,-10
2154,104,-12,1001,-10,4,-6
2155,0,9,995,-12,21,0
2156,-92,-1,1003,-19,21,-1
2157,-143,-16,976,-20,6,-3
2158,-67,-34,989,-17,-15,-8
2159,42,-45,1016,-13,-24,-10
2160,116,-28,998,-9,-13,-8
2161,96,-5,1002,-7,7,-6
2162,-23,17,1003,-15,23,-1
2163,-114,-2,997,-20,21,-1
2164,-130,-22,987,-21,3,-5
2165,-47,-41,988,-18,-16,-8
2166,71,-42,1006,-11,-24,-12
2167,108,-30,997,-9,-9,-9
2168,63,0,1010,-10,11,-4
2169,-41,15,1004,-14,24,-2
2170,-120,1,1001,-17,17,-2
2171,-110,-24,978,-20,-1,-5
2172,-20,-40,987,-18,-18,-10
2173,73,-42,1006,-12,-21,-11
2174,102,-22,1003,-10,-5,-7
2175,46,0,1016,-10,14,-3
2176,-60,15,1002,-15,23,0
2177,-121,-5,984,-19,15,-3
2178,-93,-29,974,-19,-5,-8
2179,-3,-41,1001,-16,-21,-9
2180,87,-34,1008,-11,-19,-9
2181,100,-15,1005,-10,-1,-8
2182,26,7,1007,-13,18,-3
2183,-75,5,1002,-16,23,-1
2184,-128,-16,976,-20,10,-5
2185,-78,-37,984,-19,-11,-8
2186,13,-39,1009,-14,-22,-10
2187,93,-36,1007,-9,-16,-11
2188,92,-8,1001,-8,3,-7
2189,1,6,998,-14,19,-4
2190,-85,1,1001,-17,21,-4
2191,-127,-10,981,-17,6,-5
2192,-58,-34,997,-17,-13,-8
2193,35,-47,999,-13,-21,-11
2194,100,-19,1007,-7,-13,-9
2195,82,-11,995,-10,6,-8
2196,-31,13,1005,-14,23,-4
2197,-91,5,1007,-17,15,-4
2198,-113,-23,986,-21,3,-5
2199,-42,-40,982,-19,-15,-8
2200,59,-40,1008,-10,-21,-12
2201,93,-21,998,-10,-7,-9
2202,58,3,1006,-10,12,-5
2203,-41,4,1004,-16,23,-3
2204,-109,-2,998,-19,16,-4
2205,-94,-28,974,-19,-2,-5
2206,-36,-42,990,-17,-16,-9
2207,75,-33,1003,-11,-22,-11
2208,94,-16,1003,-9,-4,-9
2209,53,8,1018,-12,14,-3
2210,-52,7,995,-18,21,0
2211,-131,-9,980,-20,13,-3
2212,-92,-35,977,-22,-7,-6
2213,-8,-40,1001,-16,-21,-10
2214,102,-37,1010,-12,-21,-10
2215,117,-9,1004,-9,-2,-8
2216,27,3,1006,-13,20,-3
2217,-93,3,998,-18,24,-1
2218,-139,-19,977,-21,10,-3
2219,-83,-38,992,-17,-12,-7
2220,22,-49,1004,-12,-23,-9
2221,114,-30,1012,-8,-17,-11
2222,103,-11,996,-7,3,-7
2223,-7,11,1002,-11,23,-2
2224,-101,5,996,-18,22,-4
2225,-123,-17,990,-17,7,-7
2226,-62,-35,989,-18,-11,-8
2227,39,-46,1002,-12,-21,-11
2228,98,-32,999,-5,-13,-11
2229,78,-11,1004,-9,7,-10
2230,-17,5,999,-11,21,-7
2231,-91,6,1016,-13,20,-7
2232,-103,-20,976,-18,4,-9
2233,-51,-27,987,-12,-11,-10
2234,35,-29,995,-14,-20,-9
2235,80,-16,1012,-12,-10,-11
2236,72,0,997,-14,7,-9
2237,-20,-1,1011,-16,19,-5
2238,-85,-7,994,-17,14,-4
2239,-94,-29,983,-18,2,-8
2240,-42,-39,982,-16,-12,-8
2241,44,-28,1010,-11,-18,-9
2242,80,-11,1001,-8,-7,-9
2243,54,0,1019,-13,9,-7
2244,-36,10,990,-16,19,-4
2245,-93,-3,996,-19,13,-6
2246,-86,-30,976,-20,-3,-8
2247,-29,-44,1000,-17,-14,-7
2248,63,-32,1008,-12,-17,-10
2249,89,-15,1002,-11,-3,-8
2250,38,0,996,-13,13,-2
2251,-58,13,1008,-17,20,-1
2252,-114,-13,986,-22,10,-5
2253,-80,-32,989,-19,-6,-5
2254,-2,-46,998,-18,-16,-6
2255,76,-27,1007,-11,-15,-9
2256,101,-13,998,-12,-2,-6
2257,11,13,996,-15,17,-4
2258,-81,9,1009,-19,20,-1
2259,-119,-19,990,-22,7,-4
2260,-67,-37,984,-21,-9,-7
2261,31,-52,998,-15,-21,-8
2262,92,-29,1008,-9,-13,-11
2263,80,-8,994,-10,5,-5
2264,-27,21,1012,-12,20,-1
2265,-92,-4,1004,-17,16,-2
2266,-102,-19,980,-18,2,-6
2267,-41,-40,978,-16,-15,-8
2268,51,-34,1012,-11,-21,-10
2269,86,-23,998,-8,-8,-10
2270,60,0,1013,-8,10,-5
2271,-40,10,1000,-16,22,-1
2272,-101,-4,994,-17,15,-4
2273,-82,-25,979,-18,-3,-8
2274,-32,-39,991,-17,-15,-7
2275,67,-33,1009,-11,-19,-10
2276,88,-16,1009,-10,-3,-8
2277,32,2,1001,-12,14,-3
2278,-51,8,1004,-16,19,-4
2279,-107,-10,984,-19,12,-6
2280,-73,-32,983,-18,-5,-8
2281,-2,-40,1000,-15,-16,-10
2282,69,-32,1011,-11,-14,-11
2283,85,-15,997,-10,0,-9
2284,12,3,998,-11,16,-5
2285,-62,7,1005,-17,18,-5
2286,-106,-16,987,-18,9,-7
2287,-65,-30,989,-16,-5,-8
2288,0,-42,998,-15,-17,-8
2289,66,-23,999,-9,-13,-8
2290,82,-9,1005,-9,0,-8
2291,3,10,993,-16,16,-4
2292,-67,8,1011,-17,18,-1
2293,-96,-26,997,-19,5,-5
2294,-59,-40,978,-18,-9,-6
2295,23,-46,998,-11,-17,-7
2296,81,-17,1008,-9,-10,-8
2297,74,-1,1002,-12,4,-6
2298,-11,9,1002,-12,18,-1
2299,-95,0,1012,-19,17,-4
2300,-93,-33,978,-17,2,-8
2301,-51,-45,979,-17,-11,-8
2302,43,-39,1006,-13,-19,-9
2303,85,-13,1011,-8,-7,-8
2304,59,-2,1006,-11,8,-4
2305,-33,14,1008,-13,19,-2
2306,-92,-5,988,-19,13,-4
2307,-82,-26,979,-21,-2,-6
2308,-27,-36,991,-17,-13,-8
2309,47,-31,1007,-12,-16,-8
2310,89,-13,1005,-12,-5,-8
2311,41,-5,1002,-13,12,-3
2312,-44,4,1003,-16,18,-2
2313,-99,-11,992,-19,11,-6
2314,-75,-33,981,-16,-1,-7
2315,-13,-37,1006,-15,-14,-7
2316,57,-29,1002,-10,-14,-7
2317,79,-9,1002,-10,-2,-7
2318,17,9,1000,-11,13,-4
2319,-61,7,1003,-18,19,-4
2320,-97,-20,989,-19,6,-6
2321,-65,-36,1000,-17,-7,-6
2322,11,-41,985,-17,-16,-7
2323,75,-31,1005,-9,-12,-10
2324,65,-8,998,-9,2,-6
2325,3,11,1011,-13,15,-3
2326,-82,1,998,-17,15,-2
2327,-94,-14,998,-20,3,-6
2328,-45,-41,979,-17,-11,-9
2329,31,-39,995,-13,-16,-6
2330,74,-20,1007,-11,-10,-8
2331,60,-4,1008,-9,5,-7
2332,-18,8,1000,-15,17,-2
2333,-82,6,1008,-18,16,-5
2334,-85,-30,981,-19,1,-7
2335,-39,-41,984,-20,-11,-8
2336,45,-35,1002,-13,-17,-9
2337,80,-21,1005,-9,-5,-8
2338,44,-3,1016,-11,10,-5
2339,-35,5,994,-15,16,-3
2340,-93,-9,992,-18,13,-4
2341,-76,-24,982,-18,-3,-7
2342,-17,-37,993,-17,-13,-8
2343,59,-27,1013,-11,-15,-8
2344,82,-13,1002,-12,-3,-8
2345,21,0,1000,-13,13,-5
2346,-52,4,1001,-16,18,-4
2347,-105,-20,987,-19,10,-6
2348,-66,-37,989,-15,-5,-8
2349,5,-37,1002,-12,-15,-8
2350,73,-34,1002,-10,-12,-8
2351,75,-11,995,-7,1,-6
2352,9,14,1006,-11,15,-5
2353,-64,5,999,-15,18,-5
2354,-99,-11,996,-17,8,-6
2355,-63,-36,987,-19,-7,-8
2356,10,-37,990,-14,-17,-7
2357,72,-21,1001,-11,-12,-8
2358,73,-7,1006,-12,3,-6
2359,-5,11,995,-14,17,-3
2360,-70,1,1018,-18,16,-4
2361,-88,-21,986,-20,4,-7
2362,-55,-43,974,-20,-8,-7
2363,26,-35,998,-14,-16,-9
2364,68,-13,1011,-11,-9,-9
2365,64,0,1003,-10,4,-7
2366,-23,10,1008,-18,14,-3
2367,-84,-5,990,-21,15,-4
2368,-87,-30,992,-23,0,-7
2369,-32,-44,976,-16,-12,-8
2370,41,-33,1012,-14,-14,-8
2371,79,-20,1004,-11,-6,-7
2372,39,0,1012,-9,9,-4
2373,-32,9,986,-17,16,-3
2374,-103,-5,1002,-18,12,-4
2375,-71,-32,973,-20,-5,-7
2376,-14,-39,1004,-17,-15,-9
2377,67,-32,1004,-12,-14,-7
2378,77,-18,1004,-11,-2,-6
2379,31,7,993,-11,12,-4
2380,-66,2,1005,-19,18,-2
2381,-106,-8,987,-19,9,-6
2382,-60,-33,995,-17,-7,-8
2383,15,-40,992,-16,-17,-7
2384,74,-30,1009,-11,-12,-8
2385,81,-11,994,-11,1,-8
2386,-4,8,999,-14,17,-3
2387,-76,3,1008,-17,16,-3
2388,-102,-20,992,-17,5,-6
2389,-48,-35,985,-18,-9,-8
2390,30,-39,1000,-11,-18,-9
2391,78,-27,997,-11,-9,-8
2392,66,0,1009,-12,6,-7
2393,-18,13,1002,-15,19,-2
2394,-94,2,1003,-19,17,-3
2395,-87,-28,987,-20,2,-7
2396,-43,-43,981,-18,-12,-7
2397,36,-39,992,-14,-16,-8
2398,82,-21,1020,-10,-8,-9
2399,55,-5,998,-10,10,-5
2400,-32,6,1007,-15,20,-2
2401,-89,-7,994,-16,11,-6
2402,-78,-27,982,-18,-2,-6
2403,-37,-37,986,-16,-13,-8
2404,48,-26,1006,-11,-17,-9
2405,81,-12,1013,-12,-5,-9
2406,41,-7,995,-12,10,-5
2407,-44,7,1008,-14,17,-4
2408,-87,-17,987,-19,10,-7
2409,-80,-34,982,-17,-2,-6
2410,-16,-34,996,-12,-14,-7
2411,54,-26,1016,-11,-14,-8
2412,83,-14,994,-9,-2,-8
2413,22,6,999,-13,12,-5
2414,-47,7,1005,-17,18,-5
2415,-104,-10,992,-19,9,-5
2416,-60,-36,993,-20,-7,-8
2417,-1,-42,989,-15,-14,-7
2418,72,-32,1008,-12,-12,-8
2419,71,-10,992,-10,1,-7
2420,4,6,1006,-13,15,-3
2421,-66,3,1001,-16,16,-4
2422,-92,-16,1007,-19,7,-6
2423,-52,-38,969,-17,-7,-7
2424,20,-37,1002,-13,-16,-8
2425,71,-13,1003,-11,-11,-8
2426,60,-2,1006,-12,4,-7
2427,-14,11,998,-14,15,-4
2428,-73,-3,1016,-19,14,-7
2429,-88,-34,977,-19,3,-6
2430,-40,-40,984,-16,-11,-7
2431,27,-34,993,-13,-15,-8
2432,73,-16,1011,-10,-8,-8
2433,53,0,1014,-11,6,-4
2434,-20,6,994,-15,17,-4
2435,-83,-9,999,-17,13,-5
2436,-83,-31,979,-18,0,-7
2437,-44,-40,989,-14,-11,-7
2438,42,-28,1001,-13,-16,-9
2439,80,-10,1013,-11,-6,-9
2440,42,-3,997,-12,9,-5
2441,-30,9,1001,-15,16,-3
2442,-93,-10,991,-18,12,-5
2443,-80,-33,983,-18,-2,-6
2444,-24,-35,998,-16,-15,-8
2445,52,-34,1006,-13,-16,-8
2446,78,-9,996,-12,-5,-5
2447,29,7,1003,-13,9,-2
2448,-43,5,1002,-19,16,-3
2449,-98,-15,994,-20,10,-6
2450,-66,-37,991,-19,-5,-6
2451,0,-48,989,-16,-15,-7
2452,69,-32,1001,-10,-13,-8
2453,68,-4,1005,-9,-1,-6
2454,4,15,995,-13,13,-2
2455,-68,5,1012,-17,15,-4
2456,-94,-10,990,-20,7,-6
2457,-46,-41,982,-19,-9,-8
2458,26,-41,991,-14,-16,-9
2459,65,-13,1011,-12,-9,-7
2460,61,-11,1002,-14,4,-6
2461,-22,5,1005,-15,17,-3
2462,-77,-7,1001,-19,15,-4
2463,-87,-31,989,-18,2,-7
2464,-38,-39,975,-16,-10,-7
2465,45,-36,1005,-11,-16,-9
2466,72,-12,1007,-9,-6,-8
2467,52,5,1010,-13,9,-6
2468,-35,12,998,-17,19,-3
2469,-90,-5,993,-20,13,-4
2470,-85,-36,980,-21,-1,-6
2471,-24,-37,992,-16,-15,-8
2472,53,-35,1006,-13,-16,-8
2473,89,-21,1010,-11,-4,-9
2474,31,-5,997,-12,12,-4
2475,-46,4,1001,-14,20,-1
2476,-106,-15,992,-17,10,-6
2477,-67,-28,980,-16,-4,-6
2478,-11,-34,1000,-16,-16,-7
2479,69,-26,1008,-12,-15,-8
2480,75,-1,997,-9,-2,-6
2481,24,2,1004,-14,12,-4
2482,-66,4,995,-18,19,-3
2483,-103,-16,998,-20,8,-5
2484,-75,-46,993,-18,-8,-6
2485,11,-43,985,-14,-17,-6
2486,78,-30,1006,-9,-14,-8
2487,85,-8,1010,-10,1,-7
2488,0,17,991,-11,17,-2
2489,-72,4,1020,-16,17,-5
2490,-108,-16,981,-22,6,-4
2491,-59,-40,985,-18,-9,-8
2492,24,-43,998,-14,-18,-8
2493,76,-20,1003,-13,-11,-7
2494,72,-11,1004,-11,3,-7
2495,-15,10,1008,-14,18,-2
2496,-89,-8,996,-17,16,-4
2497,-88,-28,988,-17,2,-8
2498,-35,-42,979,-17,-12,-8
2499,40,-33,1005,-11,-16,-8
2500,78,-13,1006,-9,-8,-9
2501,48,3,1014,-12,10,-6
2502,-37,11,995,-15,18,-5
2503,-91,-12,988,-17,11,-4
2504,-82,-32,986,-19,-2,-6
2505,-25,-41,990,-15,-14,-9
2506,58,-34,1009,-10,-15,-8
2507,82,-21,1005,-9,-4,-7
2508,38,6,999,-10,13,-6
2509,-43,0,1003,-15,19,-4
2510,-106,-9,994,-16,11,-5
2511,-73,-30,980,-15,-4,-8
2512,-11,-38,1002,-14,-14,-8
2513,58,-26,1001,-11,-15,-6
2514,76,-9,1003,-10,-3,-7
2515,24,4,996,-12,11,-5
2516,-48,6,1008,-16,17,-4
2517,-100,-18,994,-16,9,-7
2518,-67,-37,990,-15,-6,-8
2519,10,-48,988,-13,-16,-9
2520,61,-31,1003,-8,-12,-8
2521,63,-11,1003,-9,1,-6
2522,9,8,998,-9,14,-6
2523,-54,6,1013,-11,16,-6
2524,-80,-14,992,-16,7,-5
2525,-62,-35,980,-12,-6,-7
2526,14,-45,990,-10,-15,-8
2527,48,-24,1005,-8,-9,-9
2528,60,-13,1008,-6,2,-8
2529,-1,6,1003,-10,13,-5
2530,-55,4,1002,-13,16,-4
2531,-81,-24,989,-14,5,-5
2532,-55,-34,990,-12,-8,-6
2533,16,-40,986,-9,-16,-7
2534,56,-34,1014,-6,-9,-10
2535,48,-3,999,-6,5,-5
2536,0,15,1012,-7,14,-6
2537,-74,1,979,-12,14,-4
2538,-76,-7,995,-14,3,-5
2539,-43,-32,987,-15,-11,-7
2540,27,-34,1006,-13,-13,-8
2541,62,-11,994,-11,-6,-8
2542,41,0,1010,-12,6,-8
2543,-18,20,989,-18,15,-3
2544,-76,10,1006,-25,12,-2
2545,-73,-15,988,-25,0,-4
2546,-20,-26,995,-25,-9,-5
2547,42,-36,994,-24,-12,-10
2548,59,-13,999,-21,-3,-8
2549,25,9,1001,-24,9,-4
2550,-43,-6,1013,-27,13,-4
2551,-95,-24,996,-27,7,-3
2552,-51,-63,996,-25,-7,-8
2553,16,-63,990,-14,-16,-9
2554,61,-39,1000,-9,-9,-6
2555,61,-22,1011,-6,2,-7
2556,-6,5,994,-7,15,-4
2557,-63,0,1015,-11,17,-4
2558,-85,-13,989,-14,5,-6
2559,-48,-32,978,-11,-7,-4
2560,21,-34,997,-9,-15,-8
2561,56,-16,1005,-8,-11,-9
2562,62,-2,1001,-8,3,-8
2563,1,16,1010,-12,14,-8
2564,-64,8,992,-20,17,-5
2565,-80,-18,997,-21,5,-5
2566,-55,-34,984,-17,-9,-9
2567,19,-43,986,-16,-14,-8
2568,61,-29,1014,-11,-7,-10
2569,53,-14,1012,-11,6,-9
2570,-5,-6,996,-13,15,-6
2571,-69,-15,994,-13,15,-6
2572,-77,-33,990,-14,3,-6
2573,-48,-50,991,-8,-8,-9
2574,23,-54,1007,-1,-15,-9
2575,51,-31,998,2,-8,-7
2576,32,-17,999,4,3,-4
2577,-17,0,1009,4,9,-2
2578,-71,0,991,0,7,-2
2579,-64,-30,999,3,-3,-2
2580,-7,-40,996,5,-12,-6
2581,43,-38,992,10,-12,-9
2582,74,-13,1000,10,-3,-11
2583,19,11,1005,8,11,-9
2584,-34,12,998,4,15,-5
2585,-96,1,1003,0,12,-4
2586,-73,-23,989,-2,-2,-4
2587,-9,-44,988,3,-15,-7
2588,51,-37,999,7,-15,-11
2589,59,-16,999,7,-3,-8
2590,22,6,1006,7,10,-7
2591,-45,6,1015,3,14,-5
2592,-72,-11,986,0,8,-2
2593,-59,-38,985,2,-4,-6
2594,5,-39,988,5,-12,-7
2595,43,-27,997,8,-10,-10
2596,54,-5,1023,10,0,-10
2597,-2,12,988,6,12,-5
2598,-52,8,1006,3,13,-4
2599,-78,-9,986,-1,1,-4
2600,-41,-29,990,-1,-8,-6
2601,25,-34,986,1,-14,-9
2602,59,-12,1013,3,-7,-11
2603,47,0,998,1,6,-9
2604,-10,22,1014,-1,14,-6
2605,-72,11,976,-9,14,-3
2606,-73,-3,997,-12,2,-5
2607,-32,-19,994,-13,-10,-9
2608,34,-30,1000,-13,-13,-11
2609,66,-4,990,-11,-6,-13
2610,31,12,1010,-15,7,-10
2611,-26,22,995,-22,17,-6
2612,-80,11,996,-26,12,-6
2613,-62,-13,999,-28,-1,-7
2614,-15,-30,989,-28,-9,-8
2615,48,-36,992,-25,-12,-12
2616,58,-7,1002,-25,-2,-11
2617,17,15,995,-29,12,-10
2618,-40,8,1014,-34,15,-11
2619,-75,-1,994,-37,9,-7
2620,-60,-29,993,-37,-1,-7
2621,-4,-44,986,-33,-12,-10
2622,44,-26,993,-30,-10,-11
2623,60,-15,1003,-31,-1,-15
2624,4,5,1007,-32,12,-14
2625,-42,2,1007,-35,14,-12
2626,-73,-20,996,-36,7,-12
2627,-54,-38,981,-34,-4,-11
2628,6,-40,992,-30,-12,-14
2629,43,-25,995,-28,-7,-19
2630,47,-7,1012,-29,3,-22
2631,0,3,995,-33,11,-25
2632,-50,-4,1006,-33,12,-23
2633,-63,-24,987,-35,3,-21
2634,-43,-41,992,-32,-5,-20
2635,10,-33,991,-28,-11,-24
2636,51,-18,1004,-29,-7,-31
2637,40,-6,992,-31,4,-39
2638,-1,11,1011,-33,12,-41
2639,-57,-3,991,-37,10,-38
2640,-55,-15,998,-35,3,-34
2641,-27,-32,998,-35,-6,-31
2642,18,-31,993,-33,-8,-35
2643,43,-7,984,-32,-3,-43
2644,22,10,1002,-38,6,-47
2645,-18,4,1001,-45,11,-48
2646,-74,-36,1023,-41,7,-40
2647,-47,-69,1008,-30,-3,-27
2648,-12,-85,978,-21,-6,-20
2649,25,-63,984,-12,-5,-21
2650,37,-23,1018,-8,0,-27
2651,9,-10,989,-7,7,-34
2652,-26,-1,1013,-6,9,-35
2653,-57,-2,1001,-11,5,-28
2654,-40,-23,998,-8,-1,-22
2655,0,-18,978,-8,-7,-21
2656,30,-1,996,-9,-4,-26
2657,39,7,1000,-15,4,-31
2658,-8,17,1007,-19,10,-31
2659,-41,-8,1010,-22,8,-26
2660,-66,-27,998,-21,4,-18
2661,-43,-44,977,-19,-3,-12
2662,10,-43,995,-14,-9,-15
2663,45,-25,1000,-12,-4,-21
2664,43,-14,1008,-12,4,-26
2665,-2,-7,1004,-12,8,-29
2666,-51,-16,992,-13,10,-24
2667,-61,-31,996,-11,4,-19
2668,-44,-40,989,-6,-4,-16
2669,12,-33,1001,-4,-8,-20
2670,45,-25,997,-3,-5,-26
2671,36,-5,999,-3,3,-31
2672,-8,9,1002,-6,11,-31
2673,-66,-9,1001,-10,10,-25
2674,-61,-19,995,-7,1,-20
2675,-26,-43,1003,-5,-7,-20
2676,23,-39,990,-1,-10,-22
2677,47,-12,993,0,-4,-28
2678,25,1,999,-2,5,-33
2679,-19,9,1000,-5,11,-31
2680,-62,0,1015,-8,8,-26
2681,-57,-31,997,-8,0,-20
2682,-9,-36,986,-2,-7,-19
2683,29,-37,983,-1,-8,-22
2684,41,-6,1003,-2,-1,-28
2685,11,7,998,-4,6,-30
2686,-28,1,1022,-6,9,-28
2687,-64,-12,993,-9,8,-20
2688,-49,-37,994,-5,-1,-14
2689,-8,-40,984,-1,-10,-15
2690,38,-28,998,1,-8,-22
2691,45,-12,998,1,0,-28
2692,6,12,1013,-3,9,-27
2693,-45,0,994,-6,11,-23
2694,-64,-17,1004,-5,4,-18
2695,-46,-29,982,-4,-4,-15
2696,11,-33,992,-1,-10,-17
2697,39,-16,990,-2,-6,-19
2698,38,4,1012,-3,3,-26
2699,-4,14,998,-8,10,-26
2700,-53,10,996,-11,10,-21
2701,-61,-14,995,-14,2,-16
2702,-37,-24,994,-12,-5,-11
2703,19,-26,993,-12,-8,-13
2704,54,-9,997,-8,-7,-22
2705,25,11,990,-9,1,-26
2706,-10,15,1008,-19,11,-23
2707,-68,11,1000,-25,9,-20
2708,-52,-8,996,-26,0,-15
2709,-16,-31,1001,-26,-6,-15
2710,30,-30,981,-24,-8,-17
2711,44,-1,990,-25,0,-22
2712,19,7,1006,-32,8,-27
2713,-30,11,1003,-33,12,-23
2714,-68,-3,1002,-38,8,-15
2715,-57,-31,1004,-37,-1,-12
2716,-12,-38,976,-34,-10,-11
2717,39,-36,998,-33,-11,-16
2718,44,-13,989,-31,-1,-21
2719,12,10,1012,-34,10,-20
2720,-35,0,1006,-36,11,-20
2721,-62,-11,1002,-37,6,-13
2722,-49,-37,982,-36,-2,-10
2723,-2,-38,996,-34,-8,-11
2724,36,-27,990,-30,-7,-15
2725,48,-18,1016,-31,0,-20
2726,-1,0,996,-32,9,-21
2727,-49,-29,1008,-31,9,-18
2728,-64,-51,1003,-25,1,-10
2729,-41,-66,976,-20,-4,-7
2730,13,-56,997,-12,-10,-10
2731,52,-22,1015,-7,-6,-14
2732,36,-18,1000,-9,4,-19
2733,-9,0,993,-7,10,-21
2734,-62,-6,1002,-10,10,-17
2735,-62,-21,998,-11,1,-12
2736,-36,-35,991,-6,-7,-10
2737,23,-35,1003,-4,-10,-13
2738,50,-14,993,-7,-6,-17
2739,30,-5,994,-6,4,-20
2740,-17,10,1007,-9,10,-20
2741,-64,-1,1000,-11,8,-16
2742,-63,-27,1004,-8,1,-11
2743,-13,-41,991,-9,-9,-10
2744,28,-42,990,-2,-10,-13
2745,52,-17,993,-1,-3,-16
2746,12,1,1002,-5,7,-21
2747,-25,2,1013,-4,10,-20
2748,-68,-15,1004,-7,8,-13
2749,-53,-37,996,-3,-1,-11
2750,-3,-45,980,1,-11,-11
2751,45,-32,999,4,-9,-17
2752,49,-8,995,1,0,-23
2753,9,9,1006,0,11,-25
2754,-45,6,1013,-4,12,-23
2755,-69,-10,998,-5,7,-16
2756,-47,-37,980,-5,-4,-14
2757,0,-31,993,0,-10,-15
2758,39,-17,992,0,-7,-19
2759,48,2,1017,-2,1,-26
2760,2,16,992,-8,10,-25
2761,-42,11,1000,-10,13,-22
2762,-64,-11,999,-13,4,-19
2763,-40,-24,983,-13,-4,-16
2764,14,-26,998,-9,-8,-19
2765,49,-9,998,-12,-4,-23
2766,31,4,999,-15,6,-26
2767,-11,18,1001,-19,12,-26
2768,-64,6,999,-26,11,-19
2769,-63,-16,990,-27,2,-14
2770,-34,-34,1002,-23,-7,-14
2771,21,-36,993,-22,-10,-15
2772,54,-18,993,-20,-5,-20
2773,28,-2,1002,-23,4,-25
2774,-18,4,999,-24,11,-20
2775,-67,-11,1013,-25,9,-18
2776,-57,-37,998,-25,0,-13
2777,-13,-51,989,-20,-8,-11
2778,32,-44,991,-12,-9,-16
2779,45,-22,1001,-10,-2,-19
2780,10,-1,996,-12,8,-20
2781,-33,0,1019,-16,10,-20
2782,-68,-12,1003,-16,7,-13
2783,-48,-38,989,-12,-3,-11
2784,-2,-44,989,-9,-10,-10
2785,35,-24,991,-5,-7,-13
2786,42,-6,1010,-6,0,-21
2787,5,10,998,-11,9,-21
2788,-42,6,1006,-13,12,-18
2789,-68,-5,995,-15,5,-13
2790,-51,-31,992,-14,-4,-10
2791,9,-37,982,-11,-11,-11
2792,45,-11,998,-11,-6,-15
2793,44,-4,1008,-13,3,-18
2794,-6,19,1001,-18,11,-19
2795,-49,5,997,-22,10,-15
2796,-63,-18,991,-23,2,-11
2797,-42,-23,992,-23,-6,-8
2798,17,-35,999,-20,-10,-13
2799,53,-19,1003,-21,-7,-17
2800,34,0,990,-24,5,-18
2801,-7,8,1012,-25,11,-19
2802,-73,5,997,-29,10,-13
2803,-58,-15,997,-28,2,-9
2804,-24,-38,999,-27,-7,-10
2805,31,-37,991,-24,-8,-13
2806,51,-12,991,-22,-2,-19
2807,21,5,1006,-25,8,-20
2808,-28,11,997,-29,12,-18
2809,-72,0,1016,-32,8,-14
2810,-54,-26,995,-32,-1,-11
2811,-12,-34,983,-30,-9,-10
2812,36,-34,989,-28,-8,-14
2813,44,-8,1005,-30,-1,-18
2814,10,3,1001,-28,8,-20
2815,-42,-16,1023,-31,10,-17
2816,-70,-38,1001,-29,5,-11
2817,-51,-64,978,-23,-4,-9
2818,15,-64,983,-14,-11,-12
2819,44,-33,1011,-8,-7,-12
2820,45,-14,1005,-6,3,-16
2821,-2,2,1006,-7,10,-19
2822,-48,-3,992,-11,11,-16
2823,-70,-18,999,-12,4,-12
2824,-46,-24,981,-12,-6,-9
2825,11,-19,997,-8,-11,-11
2826,50,-8,995,-12,-6,-17
2827,44,6,1013,-15,2,-22
2828,-5,15,999,-18,9,-20
2829,-59,-4,1000,-21,10,-14
2830,-66,-24,990,-22,2,-12
2831,-36,-42,989,-20,-6,-8
2832,19,-39,1004,-16,-9,-12
2833,59,-20,1002,-14,-7,-18
2834,30,-17,989,-13,5,-21
2835,-16,-12,1015,-16,11,-17
2836,-77,-19,995,-15,9,-12
2837,-56,-32,998,-12,1,-10
2838,-17,-41,989,-10,-8,-11
2839,36,-32,999,-6,-9,-17
2840,54,-16,988,-5,-5,-24
2841,24,7,1007,-7,5,-25
2842,-33,5,999,-10,13,-20
2843,-77,-6,1012,-15,9,-17
2844,-57,-29,993,-13,-3,-13
2845,-3,-41,981,-8,-10,-14
2846,43,-29,990,-7,-10,-17
2847,45,-6,999,-8,0,-23
2848,14,17,1003,-12,8,-26
2849,-34,12,1017,-13,12,-25
2850,-60,-1,991,-20,8,-18
2851,-49,-21,987,-21,0,-16
2852,0,-23,989,-17,-8,-17
2853,36,0,991,-19,-6,-24
2854,42,10,1008,-24,3,-29
2855,0,20,1000,-32,10,-30
2856,-57,-12,1007,-35,11,-25
2857,-66,-35,1002,-30,1,-17
2858,-42,-63,976,-28,-5,-12
2859,15,-67,998,-19,-8,-15
2860,54,-39,1012,-12,-4,-19
2861,33,-32,1001,-11,5,-24
2862,-11,-8,1000,-7,10,-25
2863,-56,-10,1001,-9,8,-21
2864,-56,-23,990,-9,3,-18
2865,-25,-20,1000,-7,-5,-18
2866,24,-15,996,-7,-8,-21
2867,53,0,992,-9,-2,-27
2868,19,14,994,-12,6,-31
2869,-22,16,1010,-19,10,-26
2870,-80,-6,997,-21,8,-19
2871,-56,-27,1004,-22,-2,-15
2872,-14,-36,976,-21,-8,-12
2873,36,-34,1004,-19,-11,-19
2874,51,-17,989,-19,-5,-24
2875,18,-13,1012,-18,7,-29
2876,-37,-19,1011,-17,10,-24
2877,-68,-27,1010,-16,6,-18
2878,-51,-37,980,-12,-3,-17
2879,0,-27,991,-10,-8,-19
2880,42,-11,994,-10,-7,-26
2881,48,3,1008,-13,1,-32
2882,3,14,996,-17,9,-31
2883,-42,-1,1020,-19,9,-29
2884,-65,-16,982,-18,5,-21
2885,-45,-41,987,-17,-4,-16
2886,1,-27,989,-16,-9,-19
2887,45,-16,1006,-14,-7,-24
2888,42,-13,1010,-15,2,-29
2889,-7,-7,1001,-16,9,-28
2890,-55,-21,996,-15,9,-20
2891,-65,-30,991,-15,2,-16
2892,-33,-34,988,-11,-5,-15
2893,25,-18,1010,-9,-8,-20
2894,57,-7,988,-13,-3,-25
2895,33,0,1003,-13,7,-31
2896,-12,5,1007,-19,10,-28
2897,-76,-13,1003,-21,9,-20
2898,-67,-29,982,-18,2,-13
2899,-29,-27,1002,-18,-6,-11
2900,29,-34,996,-17,-10,-15
2901,49,-7,994,-14,-4,-19
2902,12,-5,998,-16,6,-18
2903,-36,-3,1009,-15,8,-13
2904,-88,-10,1000,-18,5,-4
2905,-55,-25,998,-17,-6,-3
2906,15,-25,982,-15,-12,-7
2907,77,-18,1001,-16,-10,-9
2908,73,-3,1004,-16,1,-12
2909,-2,1,996,-19,14,-9
2910,-74,-6,1014,-19,14,-7
2911,-102,-28,994,-22,5,-6
2912,-62,-61,973,-16,-8,-6
2913,31,-44,1001,-9,-18,-9
2914,80,-16,1004,-8,-9,-10
2915,66,6,1004,-10,5,-11
2916,-11,10,1004,-15,16,-11
2917,-79,-7,998,-18,16,-9
2918,-86,-21,987,-16,3,-8
2919,-44,-42,979,-17,-9,-9
2920,33,-32,998,-12,-16,-11
2921,71,-13,1017,-9,-7,-13
2922,45,-14,999,-12,7,-15
2923,-21,0,999,-12,15,-14
2924,-72,-10,1004,-14,10,-12
2925,-70,-26,983,-15,0,-11
2926,-23,-30,989,-12,-10,-11
2927,37,-21,1015,-11,-12,-15
2928,63,-5,992,-14,-3,-20
2929,31,0,999,-13,8,-23
2930,-25,0,1006,-18,13,-20
2931,-85,-12,996,-20,12,-14
2932,-69,-31,994,-17,-1,-12
2933,-18,-43,988,-16,-10,-11
2934,38,-26,996,-11,-10,-15
2935,66,-13,1002,-13,-3,-20
2936,15,-3,992,-15,10,-23
2937,-30,0,1012,-13,13,-20
2938,-81,-18,1012,-17,8,-15
2939,-59,-37,977,-14,-2,-12
2940,-5,-27,993,-11,-10,-11
2941,46,-17,995,-13,-8,-17
2942,52,-7,1004,-13,0,-23
2943,11,4,998,-16,9,-20
2944,-44,-9,1021,-17,13,-17
2945,-67,-28,986,-17,5,-13
2946,-53,-38,986,-15,-3,-12
2947,12,-28,987,-11,-9,-15
2948,47,-17,1007,-13,-7,-21
2949,47,-3,1000,-12,2,-28
2950,2,6,1012,-17,10,-28
2951,-49,-12,994,-17,11,-24
2952,-71,-31,993,-16,5,-15
2953,-47,-30,985,-16,-4,-13
2954,11,-21,1002,-13,-8,-16
2955,52,-13,994,-14,-6,-23
2956,38,-4,1004,-16,3,-26
2957,-5,0,1001,-17,9,-23
2958,-74,-21,1000,-19,8,-16
2959,-64,-38,987,-16,0,-9
2960,-41,-37,999,-13,-7,-7
2961,34,-28,995,-10,-10,-10
2962,55,-1,998,-9,-5,-17
2963,39,12,988,-14,4,-18
2964,-15,6,1017,-18,10,-19
2965,-68,-7,992,-20,8,-13
2966,-71,-30,1003,-22,1,-7
2967,-19,-41,979,-16,-9,-9
2968,34,-24,994,-11,-9,-11
2969,61,-13,1004,-14,-3,-18
2970,7,-1,1000,-14,9,-18
2971,-45,-1,1010,-18,13,-18
2972,-81,-28,1000,-18,6,-20
2973,-37,-40,978,-15,-6,-18
2974,19,-45,1001,-12,-10,-19
2975,52,-18,992,-9,-7,-19
2976,42,1,1006,-11,2,-23
2977,3,6,1007,-12,10,-26
2978,-57,0,1004,-17,12,-20
2979,-67,-26,992,-15,4,-14
2980,-58,-29,983,-15,-5,-12
2981,13,-20,987,-12,-12,-14
2982,49,-11,1005,-13,-7,-21
2983,48,-3,1011,-17,5,-23
2984,-12,3,995,-18,11,-21
2985,-52,-15,1007,-17,9,-18
2986,-70,-24,985,-17,1,-9
2987,-36,-48,989,-15,-5,-8
2988,24,-20,1004,-10,-10,-14
2989,61,-11,1004,-13,-4,-19
2990,31,-5,983,-15,7,-20
2991,-22,7,1019,-16,12,-18
2992,-75,-13,991,-18,9,-12
2993,-71,-27,995,-17,1,-9
2994,-8,-34,988,-15,-8,-10
2995,43,-24,1007,-13,-9,-15
2996,62,-12,989,-12,-2,-19
2997,11,2,999,-16,9,-19
2998,-33,1,1013,-15,10,-17
2999,-84,-26,1001,-18,7,-13
3000,-54,-37,985,-17,0,-10
3001,3,-39,998,-12,-11,-12
3002,49,-22,992,-10,-9,-17
3003,54,-7,999,-11,2,-22
3004,5,2,1010,-13,10,-24
3005,-47,0,1006,-16,13,-20
3006,-69,-28,998,-16,7,-15
3007,-55,-43,978,-13,-2,-12
3008,5,-23,987,-12,-9,-12
3009,44,-12,1003,-11,-7,-21
3010,49,-3,1009,-12,3,-26
3011,-2,3,998,-17,10,-24
3012,-50,-16,1008,-16,11,-19
3013,-73,-34,983,-15,4,-12
3014,-48,-42,986,-12,-4,-11
3015,11,-24,998,-9,-11,-14
3016,52,-9,1001,-10,-6,-20
3017,42,-3,1003,-11,2,-26
3018,-2,1,1005,-13,9,-24
3019,-69,-12,996,-15,10,-17
3020,-65,-27,996,-14,1,-12
3021,-36,-40,987,-13,-6,-11
3022,24,-28,1003,-9,-8,-14
3023,53,-9,999,-10,-6,-22
3024,37,4,986,-12,5,-25
3025,-13,7,1012,-17,12,-23
3026,-75,2,1000,-19,9,-17
3027,-62,-23,1001,-18,1,-13
3028,-19,-37,982,-17,-9,-12
3029,29,-31,990,-13,-9,-14
3030,52,-8,1000,-14,-4,-20
3031,18,6,1000,-17,6,-24
3032,-29,-3,1013,-20,11,-21
3033,-69,-17,1005,-22,7,-15
3034,-48,-41,993,-18,-1,-10
3035,-3,-40,975,-12,-9,-10
3036,38,-20,1007,-12,-7,-18
3037,43,-7,1002,-13,-1,-24
3038,4,7,1004,-18,9,-23
3039,-45,-4,1007,-24,15,-17
3040,-70,-20,998,-18,5,-12
3041,-54,-38,975,-17,-4,-9
3042,11,-29,1000,-13,-11,-14
3043,48,-11,994,-14,-7,-18
3044,47,-6,1016,-16,2,-23
3045,-1,-3,998,-19,9,-23
3046,-60,-9,1006,-18,10,-16
3047,-69,-29,984,-18,4,-10
3048,-44,-37,993,-14,-5,-9
3049,23,-26,995,-12,-10,-11
3050,52,-7,1004,-12,-5,-19
3051,39,0,997,-15,4,-22
3052,-11,-2,1007,-17,10,-20
3053,-67,-12,999,-18,9,-14
3054,-64,-29,992,-16,1,-10
3055,-16,-40,997,-15,-7,-11
3056,32,-26,989,-11,-8,-14
3057,50,-6,1002,-12,-3,-19
3058,20,2,996,-15,6,-22
3059,-29,-2,1013,-18,10,-20
3060,-73,-12,994,-19,7,-11
3061,-53,-35,1012,-17,-1,-10
3062,-1,-33,968,-13,-8,-11
3063,42,-22,1000,-13,-8,-16
3064,55,-1,1007,-14,0,-22
3065,2,4,1003,-16,8,-23
3066,-41,-12,1007,-18,12,-20
3067,-73,-24,1004,-19,6,-13
3068,-54,-43,973,-16,-3,-9
3069,11,-30,990,-9,-8,-11
3070,44,-7,1003,-12,-7,-16
3071,40,-6,1006,-14,2,-20
3072,-6,1,1004,-17,9,-20
3073,-67,-15,1001,-17,8,-13
3074,-86,-24,979,-19,1,-4
3075,-52,-33,988,-16,-10,-4
3076,38,-19,991,-12,-15,-7
3077,86,2,1017,-15,-5,-10
3078,58,-1,1000,-18,5,-11
3079,-10,8,1002,-19,15,-12
3080,-81,-21,999,-23,15,-11
3081,-85,-43,990,-19,4,-7
3082,-41,-51,979,-14,-9,-8
3083,37,-42,1017,-9,-13,-10
3084,67,-10,996,-8,-7,-12
3085,32,1,992,-11,7,-12
3086,-23,1,1007,-13,12,-12
3087,-82,-10,1005,-15,10,-9
3088,-55,-33,990,-13,0,-8
3089,-11,-30,992,-12,-9,-9
3090,44,-15,989,-10,-9,-12
3091,50,-2,1002,-11,-1,-18
3092,15,9,1001,-17,8,-20
3093,-43,2,1010,-19,12,-15
3094,-71,-21,1003,-21,6,-10
3095,-64,-37,985,-18,-4,-8
3096,15,-42,979,-15,-11,-11
3097,50,-18,1013,-12,-9,-16
3098,57,-6,997,-14,2,-19
3099,-1,2,1012,-17,10,-21
3100,-49,-6,1003,-17,12,-18
3101,-73,-25,993,-14,6,-11
3102,-46,-34,979,-14,-4,-10
3103,4,-22,992,-13,-10,-11
3104,46,-9,1003,-12,-6,-17
3105,41,0,1015,-15,1,-22
3106,-7,1,998,-19,9,-18
3107,-65,-16,995,-20,9,-12
3108,-67,-30,994,-20,1,-8
3109,-35,-37,981,-17,-6,-9
3110,18,-31,1008,-13,-10,-18
3111,63,-15,1001,-13,-6,-23
3112,41,-13,996,-12,5,-26
3113,-9,-1,1002,-14,10,-18
3114,-80,-4,1006,-16,10,-12
3115,-65,-18,989,-16,1,-10
3116,-16,-27,991,-19,-9,-9
3117,38,-19,1001,-15,-10,-14
3118,55,-6,996,-16,-3,-19
3119,12,-3,994,-19,7,-21
3120,-37,-9,1011,-16,9,-14
3121,-83,-22,1001,-19,6,-8
3122,-54,-36,992,-18,-2,-9
3123,12,-34,987,-13,-12,-10
3124,54,-20,999,-12,-7,-14
3125,51,-11,1004,-13,2,-20
3126,-2,2,998,-14,10,-19
3127,-53,-7,1016,-17,11,-17
3128,-71,-24,989,-17,5,-12
3129,-46,-37,984,-16,-6,-10
3130,19,-26,994,-12,-12,-12
3131,47,-8,1003,-12,-7,-17
3132,51,-3,1003,-14,3,-22
3133,-10,-2,1010,-19,11,-20
3134,-57,-11,992,-17,11,-15
3135,-69,-26,993,-16,3,-10
3136,-34,-33,980,-15,-6,-9
3137,25,-23,1007,-12,-10,-12
3138,58,-13,1000,-13,-5,-19
3139,30,-11,999,-15,5,-22
3140,-19,-4,1002,-14,11,-19
3141,-79,-17,998,-18,10,-12
3142,-67,-27,987,-16,0,-8
3143,-21,-38,991,-13,-9,-7
3144,37,-17,1013,-10,-9,-12
3145,64,-7,985,-12,-5,-17
3146,21,-2,1007,-14,8,-20
3147,-32,1,991,-16,10,-14
3148,-82,-12,1017,-17,7,-10
3149,-61,-37,977,-17,-3,-7
3150,-9,-27,1000,-12,-9,-8
3151,55,-24,989,-11,-12,-12
3152,54,-6,1008,-15,0,-16
3153,7,1,987,-16,9,-15
3154,-49,-5,1033,-17,11,-14
3155,-75,-19,983,-20,5,-7
3156,-54,-40,990,-15,-4,-7
3157,13,-29,984,-10,-13,-10
3158,55,-15,1011,-10,-8,-13
3159,47,-7,995,-12,1,-19
3160,-10,11,1011,-16,11,-18
3161,-56,-9,1000,-19,10,-13
3162,-77,-21,996,-18,4,-9
3163,-38,-41,974,-17,-6,-7
3164,22,-25,1002,-13,-11,-9
3165,59,-12,1006,-13,-7,-12
3166,41,-6,1008,-16,5,-16
3167,-16,-5,991,-17,13,-13
3168,-74,-12,1008,-17,11,-9
3169,-73,-23,979,-17,1,-6
3170,-24,-40,993,-15,-10,-6
3171,40,-23,1006,-11,-13,-10
3172,64,-9,1004,-12,-3,-12
3173,24,-5,988,-14,7,-15
3174,-30,1,1007,-15,12,-11
3175,-86,-9,997,-18,8,-7
3176,-64,-25,996,-17,-2,-7
3177,-5,-40,987,-16,-11,-8
3178,57,-24,1007,-13,-11,-10
3179,61,-4,995,-14,-2,-13
3180,7,-4,1003,-15,11,-14
3181,-48,3,1001,-17,12,-10
3182,-86,-14,1010,-19,7,-7
3183,-56,-42,977,-17,-5,-7
3184,15,-35,991,-13,-13,-8
3185,65,-17,1007,-11,-8,-11
3186,54,-7,1000,-13,3,-13
3187,-13,10,996,-13,13,-12
3188,-64,-6,1021,-19,13,-8
3189,-81,-30,985,-19,6,-7
3190,-45,-39,977,-15,-6,-7
3191,37,-30,1004,-10,-16,-9
3192,67,-9,1000,-12,-5,-11
3193,50,-6,1013,-15,7,-13
3194,-19,11,993,-17,14,-12
3195,-76,-14,1006,-18,13,-9
3196,-80,-27,980,-19,2,-5
3197,-42,-37,991,-17,-9,-7
3198,39,-33,1002,-13,-15,-11
3199,74,-16,1013,-13,-6,-9
3200,39,0,997,-14,8,-9
3201,-30,1,1003,-16,14,-7
3202,-92,-10,993,-17,9,-7
3203,-71,-29,991,-16,-2,-7
3204,-7,-40,993,-17,-12,-7
3205,56,-28,1008,-10,-11,-8
3206,70,-9,997,-11,-1,-9
3207,9,7,1002,-13,13,-9
3208,-47,4,998,-17,15,-8
3209,-91,-15,1005,-20,8,-6
3210,-60,-36,990,-19,-4,-6
3211,4,-41,989,-13,-13,-8
3212,66,-28,1000,-11,-11,-10
3213,63,-2,1004,-12,2,-9
3214,-4,4,995,-15,14,-8
3215,-60,0,1017,-16,13,-7
3216,-83,-19,996,-18,5,-7
3217,-50,-41,972,-18,-6,-6
3218,20,-34,997,-12,-14,-7
3219,64,-16,1003,-13,-7,-8
3220,52,-2,1009,-12,6,-7
3221,-13,5,999,-17,14,-5
3222,-75,-4,1004,-20,14,-4
3223,-75,-20,984,-19,2,-7
3224,-42,-47,982,-19,-9,-8
3225,40,-29,998,-10,-15,-9
3226,77,-13,1022,-11,-6,-9
3227,41,-2,994,-13,9,-6
3228,-33,3,1003,-16,17,-6
3229,-90,-8,993,-19,11,-8
3230,-72,-25,987,-19,0,-8
3231,-18,-40,986,-18,-12,-7
3232,47,-28,1019,-15,-13,-7
3233,79,-12,997,-13,-3,-9
3234,16,5,997,-13,12,-7
3235,-51,0,994,-17,14,-6
3236,-98,-9,1011,-18,7,-7
3237,-60,-43,978,-20,-5,-7
3238,7,-44,1005,-15,-14,-7
3239,69,-29,997,-11,-13,-8
3240,65,-6,1011,-10,2,-8
3241,-5,14,991,-14,13,-5
3242,-72,1,1010,-19,14,-5
3243,-90,-18,994,-20,3,-6
3244,-51,-38,986,-18,-10,-7
3245,36,-43,987,-15,-18,-9
3246,73,-21,1012,-9,-9,-9
3247,61,-6,1001,-11,5,-5
3248,-23,9,1004,-14,17,-4
3249,-87,-1,1000,-18,15,-3
3250,-83,-24,988,-17,1,-4
3251,-34,-39,980,-16,-12,-7
3252,51,-34,999,-14,-17,-8
3253,77,-14,1008,-9,-6,-8
3254,54,-3,1009,-13,8,-6
3255,-44,8,994,-18,18,-4
3256,-90,1,1000,-20,12,-5
3257,-79,-33,982,-20,-3,-8
3258,-21,-32,984,-15,-12,-9
3259,67,-33,1024,-12,-15,-10
3260,83,-17,997,-10,-2,-9
3261,25,-3,993,-14,14,-3
3262,-60,2,1007,-18,18,-2
3263,-112,-6,991,-21,10,-4
3264,-59,-35,989,-18,-6,-8
3265,8,-40,995,-15,-16,-9
3266,76,-29,1014,-11,-12,-9
3267,76,-13,996,-9,2,-8
3268,-10,11,992,-13,18,-2
3269,-72,3,1003,-17,16,-5
3270,-103,-16,1005,-19,5,-6
3271,-47,-38,976,-19,-10,-6
3272,28,-37,1003,-13,-17,-10
3273,77,-28,999,-11,-10,-9
3274,62,0,1007,-12,4,-7
3275,-28,4,996,-14,16,-1
3276,-85,-1,1010,-18,14,-4
3277,-91,-30,982,-20,2,-4
3278,-39,-41,982,-15,-12,-7
3279,45,-35,1002,-11,-19,-8
3280,77,-22,1005,-10,-7,-8
3281,57,-1,1007,-9,8,-5
3282,-35,9,1005,-16,18,-2
3283,-95,0,985,-18,13,-3
3284,-81,-28,988,-19,-4,-6
3285,-31,-36,985,-17,-15,-8
3286,57,-26,1006,-14,-17,-9
3287,92,-19,1012,-13,-5,-10
3288,34,-4,992,-14,12,-5
3289,-42,11,1006,-15,18,-3
3290,-109,-11,1002,-22,12,-2
3291,-77,-28,969,-19,-4,-6
3292,0,-46,1015,-16,-18,-10
3293,68,-35,1006,-10,-14,-10
3294,85,-14,991,-10,-2,-7
3295,11,8,1000,-12,15,-5
3296,-71,6,1004,-19,19,-2
3297,-107,-8,990,-19,8,-5
3298,-55,-33,998,-20,-10,-9
3299,22,-39,987,-15,-17,-8
3300,84,-34,1004,-12,-13,-9
3301,75,-14,1007,-11,3,-8
3302,-22,7,989,-14,18,0
3303,-81,7,1018,-17,15,-3
3304,-101,-23,990,-20,4,-5
3305,-41,-39,970,-17,-11,-6
3306,41,-40,1009,-13,-18,-10
3307,78,-25,996,-9,-9,-9
3308,57,0,1013,-9,7,-6
3309,-30,11,1002,-15,19,-4
3310,-97,-4,996,-19,15,-3
3311,-81,-23,986,-18,-1,-7
3312,-33,-45,988,-17,-14,-9
3313,56,-33,1001,-12,-17,-10
3314,84,-18,1010,-11,-5,-9
3315,40,-8,1002,-12,12,-6
3316,-43,4,1001,-15,19,-4
3317,-104,-7,991,-16,12,-3
3318,-80,-28,979,-18,-4,-6
3319,-10,-39,1002,-14,-16,-9
3320,71,-37,1010,-10,-17,-9
3321,79,-16,999,-11,-2,-8
3322,23,0,991,-10,15,-7
3323,-56,8,1018,-16,19,-3
3324,-103,1,978,-18,8,-5
3325,-71,-24,1009,-16,-6,-7
3326,9,-36,980,-18,-16,-8
3327,72,-30,1016,-13,-12,-10
3328,78,-20,989,-13,0,-9
3329,-1,10,999,-15,17,-5
3330,-68,2,1011,-18,16,-4
3331,-101,-18,997,-20,6,-5
3332,-53,-40,973,-19,-8,-8
3333,22,-43,1003,-12,-17,-10
3334,74,-22,1000,-11,-10,-9
3335,60,1,1006,-12,6,-7
3336,-17,8,996,-16,17,-5
3337,-81,2,1009,-18,15,-6
3338,-84,-24,988,-20,1,-7
3339,-46,-39,973,-20,-10,-6
3340,40,-35,1006,-13,-17,-10
3341,79,-21,1007,-10,-8,-10
3342,49,-7,1007,-14,9,-5
3343,-35,6,999,-16,17,-4
3344,-90,-6,994,-18,12,-5
3345,-76,-32,981,-19,-1,-8
3346,-24,-35,994,-15,-12,-8
3347,48,-30,1005,-12,-14,-9
3348,79,-10,1012,-10,-4,-10
3349,25,0,981,-15,12,-7
3350,-47,0,1013,-17,16,-5
3351,-99,-12,991,-18,8,-5
3352,-69,-33,988,-17,-4,-6
3353,8,-42,1000,-14,-16,-10
3354,69,-33,1007,-10,-13,-9
3355,70,-10,995,-8,1,-9
3356,2,8,993,-13,14,-9
3357,-56,12,1009,-16,16,-9
3358,-93,-13,1005,-19,7,-7
3359,-58,-32,982,-19,-6,-8
3360,19,-35,994,-14,-16,-9
3361,71,-24,1005,-11,-10,-11
3362,62,-13,997,-14,5,-11
3363,-9,5,999,-15,16,-10
3364,-74,1,1019,-17,15,-8
3365,-82,-24,986,-18,4,-7
3366,-47,-39,978,-15,-8,-9
3367,32,-30,1000,-14,-15,-9
3368,66,-19,1005,-12,-7,-11
3369,46,-4,1005,-12,9,-12
3370,-20,5,997,-16,15,-10
3371,-81,-7,1004,-17,11,-9
3372,-79,-24,976,-19,1,-6
3373,-35,-30,994,-14,-11,-8
3374,47,-32,1001,-12,-16,-12
3375,73,-14,1007,-11,-3,-11
3376,39,-7,997,-15,9,-11
3377,-35,3,1004,-15,15,-9
3378,-95,-10,994,-17,10,-7
3379,-75,-26,986,-17,-3,-6
3380,-9,-36,997,-14,-14,-10
3381,62,-33,1012,-11,-13,-10
3382,68,-11,991,-11,-1,-11
3383,19,-5,1001,-13,13,-11
3384,-51,4,998,-16,15,-8
3385,-92,-10,1006,-17,9,-5
3386,-63,-28,989,-18,-5,-7
3387,16,-41,993,-16,-15,-11
3388,67,-24,1002,-9,-10,-11
3389,62,-9,994,-14,3,-13
3390,-7,3,1005,-16,15,-12
3391,-62,4,1012,-15,15,-10
3392,-82,-16,989,-20,6,-8
3393,-52,-35,985,-18,-6,-8
3394,27,-30,989,-15,-16,-9
3395,63,-19,1007,-14,-7,-13
3396,52,-9,1005,-13,6,-12
3397,-21,-4,1005,-16,14,-8
3398,-76,-7,997,-16,12,-6
3399,-84,-27,987,-16,0,-7
3400,-33,-41,987,-16,-11,-9
3401,47,-31,1001,-10,-15,-10
3402,76,-3,1005,-11,-4,-12
3403,37,-7,1009,-15,9,-13
3404,-27,6,991,-16,15,-11
3405,-97,-6,1006,-19,10,-6
3406,-72,-30,974,-17,-5,-8
3407,-24,-33,1000,-15,-13,-10
3408,64,-28,1010,-14,-14,-11
3409,70,-14,1001,-12,-2,-12
3410,26,-8,985,-15,11,-10
3411,-55,3,1015,-17,15,-6
3412,-95,-11,988,-18,8,-5
3413,-72,-20,993,-18,-5,-7
3414,18,-43,996,-17,-16,-10
3415,63,-23,1003,-10,-11,-10
3416,76,-13,997,-13,1,-9
3417,-9,6,998,-17,15,-6
3418,-66,1,1008,-17,17,-4
3419,-102,-17,1003,-21,7,-4
3420,-43,-36,971,-19,-9,-9
3421,36,-42,1006,-14,-16,-11
3422,78,-21,1003,-13,-8,-9
3423,58,-4,1001,-10,5,-8
3424,-24,5,999,-14,17,-6
3425,-94,3,1010,-19,15,-4
3426,-83,-26,979,-20,2,-6
3427,-39,-36,986,-17,-12,-9
3428,58,-34,1005,-12,-17,-10
3429,86,-15,1004,-11,-5,-11
3430,43,-7,1007,-14,12,-5
3431,-54,7,1003,-16,19,-5
3432,-97,-14,986,-19,11,-7
3433,-84,-31,988,-19,-4,-7
3434,-9,-37,983,-16,-16,-10
3435,69,-36,1025,-10,-15,-11
3436,88,-12,993,-12,-2,-9
3437,15,2,1001,-12,16,-4
3438,-59,6,998,-16,18,-5
3439,-114,-14,998,-21,8,-5
3440,-62,-25,975,-16,-8,-7
3441,7,-46,1012,-15,-18,-9
3442,83,-32,996,-11,-15,-12
3443,76,-12,1008,-11,2,-8
3444,1,5,986,-15,17,-6
3445,-80,8,1015,-16,17,-5
3446,-105,-13,987,-20,4,-6
3447,-55,-36,996,-18,-10,-7
3448,32,-41,985,-13,-18,-10
3449,85,-24,1011,-12,-9,-10
3450,65,-7,1000,-12,5,-8
3451,-20,9,1001,-14,20,-6
3452,-83,-8,1009,-17,15,-5
3453,-93,-16,991,-17,2,-8
3454,-37,-44,971,-17,-10,-9
3455,44,-27,1015,-13,-17,-9
3456,72,-16,997,-13,-6,-10
3457,57,-6,1010,-14,9,-12
3458,-32,-2,1001,-16,18,-9
3459,-86,-7,995,-17,13,-7
3460,-77,-32,986,-18,-1,-8
3461,-37,-44,986,-15,-12,-9
3462,56,-27,1012,-10,-16,-10
3463,77,-13,1005,-11,-4,-13
3464,40,-6,994,-13,10,-15
3465,-33,4,1006,-14,16,-12
3466,-89,-2,995,-16,12,-12
3467,-78,-27,981,-18,-1,-9
3468,-18,-27,1003,-15,-13,-9
3469,54,-29,1004,-14,-13,-11
3470,66,-18,999,-14,-1,-15
3471,22,-13,991,-15,10,-13
3472,-40,-1,1016,-13,14,-13
3473,-88,-17,991,-15,8,-10
3474,-59,-32,1000,-14,-3,-11
3475,2,-31,984,-12,-12,-11
3476,54,-14,1001,-12,-10,-15
3477,63,-5,1000,-14,1,-20
3478,0,4,997,-15,12,-18
3479,-51,-1,1018,-15,12,-14
3480,-83,-20,996,-18,6,-9
3481,-53,-38,973,-15,-5,-9
3482,13,-29,1000,-13,-13,-11
3483,61,-13,1000,-13,-8,-14
3484,55,-9,1006,-14,5,-17
3485,-12,-3,1002,-15,12,-17
3486,-58,-8,1009,-16,11,-14
3487,-73,-30,979,-16,3,-10
3488,-43,-34,988,-15,-7,-10
3489,24,-18,999,-13,-12,-13
3490,60,-6,1005,-13,-5,-19
3491,46,-5,1003,-16,4,-21
3492,-17,2,1008,-16,12,-18
3493,-76,-15,991,-19,9,-13
3494,-76,-30,985,-19,-1,-10
3495,-29,-38,994,-14,-10,-10
3496,45,-28,1006,-13,-12,-13
3497,60,-8,1005,-14,-3,-17
3498,26,-8,986,-13,7,-19
3499,-33,-1,1021,-16,11,-16
3500,-87,-7,987,-16,8,-11
3501,-66,-36,998,-17,-3,-8
3502,0,-26,988,-14,-11,-10
3503,54,-21,998,-13,-11,-12
3504,61,-13,1001,-14,-1,-18
3505,-2,-1,995,-15,11,-14
3506,-48,-5,1015,-16,12,-10
3507,-86,-18,993,-18,5,-8
3508,-50,-27,991,-14,-5,-8
3509,23,-33,991,-14,-12,-12
3510,58,-15,1003,-13,-7,-12
3511,56,-5,1001,-16,2,-14
3512,-18,-5,1006,-17,12,-12
3513,-68,-10,1000,-17,11,-8
3514,-80,-15,996,-16,3,-7
3515,-39,-36,972,-17,-8,-8
3516,37,-22,1005,-15,-14,-9
3517,73,-11,1006,-14,-7,-11
3518,43,-11,1006,-16,8,-13
3519,-37,0,992,-17,15,-9
3520,-86,-15,1005,-18,11,-6
3521,-75,-28,972,-19,0,-6
3522,-22,-36,995,-15,-11,-9
3523,60,-24,1013,-11,-15,-9
3524,73,-9,1002,-12,-3,-9
3525,19,-4,988,-14,10,-8
3526,-56,-3,1014,-16,15,-5
3527,-104,-20,986,-19,5,-4
3528,-65,-28,991,-17,-7,-6
3529,20,-40,997,-15,-16,-9
3530,79,-30,1013,-10,-12,-10
3531,73,-8,989,-10,0,-7
3532,-5,10,1001,-15,15,-7
3533,-71,4,1003,-17,16,-7
3534,-99,-14,1001,-19,6,-6
3535,-50,-37,981,-18,-9,-9
3536,28,-38,1000,-12,-16,-10
3537,81,-22,1000,-11,-10,-12
3538,55,-7,1002,-11,6,-10
3539,-15,5,1002,-14,16,-8
3540,-86,-4,1014,-19,14,-6
3541,-82,-21,982,-18,2,-7
3542,-39,-38,986,-16,-11,-7
3543,45,-27,1002,-14,-15,-10
3544,72,-15,999,-13,-6,-11
3545,47,-3,1015,-14,8,-11
3546,-36,0,998,-18,17,-7
3547,-89,-6,993,-15,12,-7
3548,-75,-24,987,-18,-2,-7
3549,-30,-43,984,-17,-11,-7
3550,58,-22,1013,-11,-15,-10
3551,84,-21,1004,-14,-3,-11
3552,28,8,1000,-13,12,-8
3553,-48,-7,998,-18,15,-6
3554,-105,-7,999,-16,9,-8
3555,-72,-28,974,-18,-5,-7
3556,3,-34,1010,-16,-14,-9
3557,74,-31,1006,-13,-13,-10
3558,71,-8,996,-11,3,-8
3559,3,1,997,-14,14,-5
3560,-76,-5,1009,-18,16,-6
3561,-102,-22,986,-16,4,-6
3562,-55,-40,997,-15,-9,-8
3563,21,-40,990,-12,-19,-10
3564,80,-22,1002,-7,-12,-10
3565,64,-1,999,-10,3,-13
3566,-13,6,1000,-13,15,-11
3567,-72,1,1016,-15,13,-7
3568,-88,-18,989,-18,4,-5
3569,-49,-33,974,-15,-10,-8
3570,43,-30,1008,-13,-19,-12
3571,68,-17,998,-15,-7,-11
3572,55,-9,1004,-14,7,-13
3573,-29,-4,1001,-16,16,-10
3574,-83,-17,1002,-16,12,-6
3575,-81,-15,977,-14,0,-7
3576,-38,-37,994,-15,-11,-7
3577,48,-23,995,-11,-17,-10
3578,75,-8,1015,-11,-6,-12
3579,37,-1,991,-16,9,-13
3580,-33,2,1012,-18,16,-7
3581,-98,-6,984,-21,10,-3
3582,-77,-25,986,-21,-4,-5
3583,-7,-43,993,-18,-15,-9
3584,62,-30,1023,-13,-13,-11
3585,79,-22,984,-12,-2,-9
3586,5,0,1003,-12,12,-6
3587,-62,0,997,-17,14,-2
3588,-108,-4,1000,-18,7,-4
3589,-55,-32,984,-20,-8,-7
3590,25,-34,1003,-15,-17,-10
3591,87,-31,1001,-12,-11,-10
3592,70,-12,994,-12,4,-10
3593,-17,5,998,-18,17,-7
3594,-79,4,1019,-17,16,-5
3595,-100,-21,984,-20,5,-5
3596,-45,-37,983,-16,-10,-8
3597,54,-37,1010,-12,-19,-13
3598,83,-25,996,-11,-8,-9
3599,57,-2,996,-12,7,-9
3600,-36,10,1017,-16,18,-5
3601,-95,-2,999,-20,14,-5
3602,-92,-20,978,-19,0,-7
3603,-21,-39,990,-18,-14,-9
3604,60,-36,1013,-15,-17,-10
3605,90,-24,990,-12,-4,-10
3606,39,-6,1023,-13,13,-6
3607,-57,1,993,-14,20,-1
3608,-113,-7,984,-17,12,-4
3609,-69,-24,992,-19,-7,-8
3610,-3,-40,989,-17,-15,-8
3611,88,-25,1020,-11,-15,-11
3612,80,-19,995,-11,1,-7
3613,15,-2,1000,-12,18,-5
3614,-73,2,999,-17,21,-4
3615,-108,-10,989,-17,9,-8
3616,-64,-36,984,-17,-8,-8
3617,20,-33,1013,-14,-18,-10
3618,87,-29,994,-11,-13,-10
3619,80,-14,1006,-9,4,-10
3620,-6,-1,990,-14,18,-6
3621,-86,-1,1009,-16,17,-6
3622,-102,-14,989,-17,4,-7
3623,-54,-33,994,-17,-9,-8
3624,36,-32,992,-13,-18,-10
3625,82,-24,1004,-11,-9,-11
3626,58,-4,998,-13,7,-11
3627,-21,0,1008,-16,19,-5
3628,-92,-4,1005,-17,15,-4
3629,-90,-21,986,-18,-1,-7
3630,-34,-41,979,-16,-13,-10
3631,49,-32,1006,-13,-17,-10
3632,82,-15,999,-11,-6,-10
3633,49,0,1014,-14,9,-9
3634,-42,3,1003,-18,18,-5
3635,-98,-6,984,-19,12,-4
3636,-79,-28,992,-18,-4,-9
3637,-24,-34,982,-16,-14,-8
3638,66,-26,1018,-12,-17,-12
3639,83,-13,997,-12,-3,-11
3640,27,-10,1006,-15,14,-8
3641,-52,2,997,-14,16,-6
3642,-106,-12,992,-18,10,-6
3643,-68,-28,980,-18,-5,-9
3644,2,-29,1013,-13,-15,-10
3645,78,-24,999,-13,-13,-11
3646,80,-9,1002,-15,2,-11
3647,4,-2,997,-14,16,-8
3648,-70,0,1004,-18,19,-6
3649,-100,-19,988,-19,7,-7
3650,-60,-34,998,-18,-6,-7
3651,21,-40,995,-14,-16,-11
3652,77,-23,1001,-10,-11,-10
3653,69,-6,997,-12,4,-9
3654,-17,0,1008,-16,17,-8
3655,-87,-4,999,-16,16,-7
3656,-99,-17,999,-18,1,-7
3657,-40,-41,972,-16,-13,-8
3658,41,-32,1005,-12,-17,-10
3659,83,-10,1006,-10,-8,-12
3660,57,-8,1008,-12,9,-12
3661,-25,-2,995,-15,18,-8
3662,-91,-1,1008,-17,14,-5
3663,-83,-27,976,-18,-1,-6
3664,-44,-26,985,-18,-12,-8
3665,56,-22,1010,-14,-18,-11
3666,77,-14,1004,-14,-5,-11
3667,47,-8,1003,-17,10,-10
3668,-44,-6,1004,-17,18,-6
3669,-103,-15,989,-18,11,-3
3670,-82,-30,975,-18,-5,-7
3671,-7,-34,1005,-13,-15,-10
3672,70,-26,1009,-11,-15,-11
3673,83,-5,994,-13,-1,-12
3674,18,-6,1001,-15,13,-10
3675,-70,6,1003,-17,18,-5
3676,-107,-16,995,-19,8,-5
3677,-65,-33,984,-16,-7,-8
3678,23,-36,1004,-16,-17,-10
3679,89,-31,1000,-10,-13,-12
3680,71,-5,996,-11,5,-10
3681,-15,1,999,-15,18,-8
3682,-79,-6,1009,-17,15,-5
3683,-94,-15,987,-18,3,-6
3684,-53,-35,988,-17,-9,-9
3685,40,-29,1000,-12,-18,-12
3686,84,-25,1003,-13,-9,-12
3687,51,-8,994,-14,8,-11
3688,-24,0,1009,-15,17,-8
3689,-89,-12,1005,-17,13,-7
3690,-87,-17,980,-16,-1,-7
3691,-37,-40,984,-16,-13,-10
3692,57,-20,1012,-12,-16,-11
3693,76,-6,994,-13,-4,-11
3694,43,-6,1014,-15,11,-12
3695,-48,-5,1001,-18,17,-6
3696,-89,-16,986,-18,10,-6
3697,-79,-32,979,-18,-3,-8
3698,-11,-35,1005,-14,-14,-9
3699,68,-24,1001,-11,-13,-11
3700,80,-11,1006,-11,0,-11
3701,21,1,1002,-12,13,-9
3702,-60,-4,996,-18,17,-6
3703,-104,-5,989,-19,7,-6
3704,-69,-27,985,-18,-7,-7
3705,8,-37,1007,-17,-16,-9
3706,85,-29,1005,-11,-13,-10
3707,72,-11,997,-12,3,-10
3708,-5,-3,1000,-14,16,-8
3709,-79,-4,1001,-15,14,-7
3710,-104,-11,992,-17,3,-8
3711,-50,-32,994,-19,-8,-7
3712,42,-34,1001,-10,-21,-13
3713,84,-23,996,-16,-7,-9
3714,65,-3,1005,-13,5,-12
3715,-31,-2,996,-15,19,-9
3716,-88,-2,1011,-16,13,-7
3717,-93,-14,987,-18,0,-8
3718,-37,-43,980,-18,-12,-9
3719,51,-30,1007,-13,-18,-11
3720,81,-15,1002,-11,-6,-12
3721,41,-2,1009,-14,10,-17
3722,-37,-19,995,-17,18,-17
3723,-88,-16,1001,-15,10,-13
3724,-73,-18,981,-15,-3,-12
3725,-17,-27,990,-15,-14,-12
3726,50,-7,1009,-11,-15,-14
3727,83,-14,995,-17,-2,-20
3728,23,-22,1012,-17,13,-19
3729,-44,-3,988,-14,15,-12
3730,-93,-11,1006,-18,10,-13
3731,-75,-31,970,-18,-3,-11
3732,-3,-17,1012,-14,-13,-13
3733,68,-15,1003,-15,-12,-17
3734,72,-22,995,-17,2,-21
3735,12,-14,989,-16,12,-19
3736,-52,-6,1016,-15,13,-16
3737,-93,-13,982,-17,6,-12
3738,-63,-25,1005,-17,-4,-12
3739,14,-24,992,-16,-14,-14
3740,69,-24,1005,-16,-9,-18
3741,58,-14,988,-16,3,-20
3742,-11,-6,1012,-17,12,-18
3743,-62,2,1000,-16,10,-16
3744,-89,-24,1001,-18,4,-14
3745,-38,-28,980,-17,-7,-13
3746,23,-30,1007,-14,-12,-15
3747,66,-10,981,-14,-7,-18
3748,41,-20,1015,-18,6,-21
3749,-21,0,996,-14,12,-20
3750,-67,-10,1004,-17,10,-16
3751,-79,-24,984,-17,1,-12
3752,-43,-31,989,-14,-11,-10
3753,38,-19,995,-13,-14,-15
3754,71,-20,1007,-15,-4,-20
3755,39,-21,1005,-14,9,-20
3756,-41,-9,1002,-14,14,-14
3757,-81,-3,990,-13,8,-10
3758,-74,-15,988,-17,-2,-10
3759,-15,-24,992,-16,-12,-12
3760,64,-11,1011,-15,-12,-16
3761,74,-24,996,-18,1,-21
3762,15,-29,993,-16,13,-15
3763,-59,-4,1009,-13,13,-8
3764,-101,-9,988,-14,5,-7
3765,-62,-14,985,-15,-5,-8
3766,27,-17,1016,-15,-16,-13
3767,72,-24,996,-15,-9,-16
3768,73,-26,992,-17,2,-20
3769,-18,-22,1003,-16,15,-11
3770,-77,-2,1002,-11,14,-8
3771,-89,-11,994,-15,4,-7
3772,-45,-27,994,-15,-8,-10
3773,47,-18,1005,-13,-16,-13
3774,79,-16,987,-16,-6,-19
3775,56,-25,1003,-17,9,-21
3776,-26,-7,1004,-14,16,-15
3777,-78,3,1007,-16,12,-13
3778,-71,-19,986,-18,3,-15
3779,-37,-29,993,-15,-7,-13
3780,47,-15,991,-15,-11,-16
3781,66,-17,1010,-16,-1,-21
3782,34,-12,993,-16,9,-22
3783,-33,-11,1012,-16,13,-22
3784,-89,-39,986,-17,11,-17
3785,-82,-23,993,-13,-1,-13
3786,-17,-21,986,-13,-13,-14
3787,55,-2,1011,-13,-12,-18
3788,80,0,997,-17,0,-21
3789,24,-11,1009,-20,12,-22
3790,-39,-1,995,-18,13,-16
3791,-104,-22,995,-21,8,-13
3792,-89,-26,978,-19,-6,-10
3793,-13,-25,1009,-16,-16,-10
3794,72,-18,1006,-17,-14,-12
3795,80,-18,994,-17,-1,-12
3796,16,-16,1004,-17,12,-9
3797,-68,-13,994,-17,15,-3
3798,-112,-12,993,-16,5,-4
3799,-51,-27,1001,-17,-10,-7
3800,41,-30,994,-15,-17,-11
3801,89,-23,1001,-12,-9,-12
3802,63,-5,1006,-13,5,-10
3803,-36,-7,989,-16,17,-6
3804,-104,-8,1009,-17,13,-4
3805,-101,-23,985,-17,-1,-6
3806,-27,-35,988,-13,-14,-9
3807,78,-27,1010,-11,-19,-13
3808,94,-7,996,-14,-5,-13
3809,52,-6,1008,-14,12,-15
3810,-58,-11,1003,-16,21,-9
3811,-115,-2,990,-16,12,-5
3812,-83,-19,982,-16,-4,-7
3813,-22,-36,996,-16,-16,-10
3814,87,-18,1002,-12,-18,-13
3815,88,-12,1005,-15,0,-17
3816,31,-20,1005,-17,15,-14
3817,-68,-9,1000,-16,18,-6
3818,-108,-3,981,-16,10,-7
3819,-76,-24,988,-18,-6,-8
3820,15,-20,1002,-14,-17,-12
3821,89,-30,1017,-15,-13,-14
3822,82,-17,987,-13,2,-14
3823,-1,-21,1006,-15,18,-12
3824,-77,-7,991,-12,15,-7
3825,-109,-3,993,-15,5,-8
3826,-56,-26,989,-16,-9,-10
3827,38,-15,1013,-13,-16,-12
3828,89,-26,996,-14,-7,-12
3829,63,-15,999,-15,7,-13
3830,-28,-10,996,-17,19,-8
3831,-92,-5,1003,-14,15,-8
3832,-102,-18,989,-18,2,-8
3833,-51,-34,1000,-16,-12,-8
3834,57,-28,991,-11,-20,-10
3835,91,-10,1002,-12,-7,-10
3836,64,0,1006,-15,9,-9
3837,-43,-3,1004,-18,19,-4
3838,-118,-8,992,-20,12,-3
3839,-106,-27,990,-18,-5,-6
3840,-11,-48,986,-17,-20,-10
3841,75,-24,1006,-10,-19,-10
3842,112,-6,1002,-10,-5,-10
3843,36,3,1024,-12,17,-5
3844,-73,3,978,-18,23,0
3845,-137,-8,996,-19,11,-3
3846,-78,-43,975,-22,-9,-7
3847,-2,-38,999,-15,-20,-9
3848,125,-28,1007,-11,-19,-13
3849,97,-12,1015,-10,4,-8
3850,17,14,989,-14,19,-3
3851,-107,3,1009,-18,23,-1
3852,-139,-15,967,-23,7,-4
3853,-72,-42,992,-19,-14,-8
3854,51,-45,1009,-14,-24,-13
3855,118,-34,1010,-9,-14,-11
3856,98,-5,991,-8,6,-8
3857,-27,11,1004,-15,24,-1
3858,-117,5,991,-19,20,-2
3859,-130,-21,986,-21,2,-6
3860,-42,-38,998,-18,-17,-11
3861,68,-40,1001,-13,-24,-13
3862,128,-23,1003,-8,-9,-13
3863,65,0,1002,-10,13,-5
3864,-55,12,1001,-14,24,-3
3865,-126,-8,1003,-17,17,-4
3866,-113,-26,980,-20,-3,-6
3867,-22,-45,991,-16,-19,-10
3868,100,-36,1014,-10,-22,-13
3869,104,-17,989,-11,-3,-8
3870,45,5,1017,-11,16,-5
3871,-69,-1,999,-18,24,-2
3872,-136,-8,978,-18,15,-3
3873,-89,-35,991,-17,-9,-8
3874,-4,-38,994,-13,-20,-10
3875,108,-24,1003,-8,-18,-11
3876,106,-11,1011,-11,1,-8
3877,20,2,1006,-14,20,-4
3878,-83,-3,989,-17,23,-4
3879,-130,-12,986,-17,9,-6
3880,-79,-30,980,-20,-11,-6
3881,17,-38,1006,-13,-20,-12
3882,111,-25,1016,-10,-16,-11
3883,92,-7,994,-12,4,-8
3884,5,-2,1006,-14,20,-6
3885,-100,-5,994,-19,20,-3
3886,-130,-12,983,-16,6,-7
3887,-63,-31,995,-16,-13,-8
3888,45,-30,1011,-14,-22,-11
3889,109,-17,993,-12,-13,-9
3890,86,-12,1008,-12,6,-7
3891,-39,1,996,-19,23,-1
3892,-113,-6,995,-19,17,-2
3893,-118,-35,994,-20,1,-6
3894,-38,-37,988,-16,-16,-8
3895,83,-30,1008,-10,-24,-12
3896,110,-17,998,-9,-6,-11
3897,54,6,1007,-12,12,-5
3898,-55,12,1001,-17,23,-3
3899,-128,-12,999,-22,15,-3
3900,-102,-34,970,-21,-5,-6
3901,-10,-42,1000,-14,-21,-13
3902,99,-36,1004,-12,-21,-13
3903,99,-15,1002,-9,-2,-8
3904,32,11,1010,-11,17,-5
3905,-78,-1,1005,-19,22,-1
3906,-129,-7,970,-18,11,-2
3907,-80,-35,990,-21,-9,-7
3908,21,-37,1001,-13,-22,-12
3909,103,-32,1009,-11,-17,-11
3910,99,-8,1008,-11,2,-8
3911,0,9,1003,-14,21,-4
3912,-95,-1,994,-18,22,-2
3913,-133,-16,979,-21,6,-5
3914,-61,-35,990,-17,-14,-10
3915,50,-41,1008,-13,-23,-13
3916,103,-23,1013,-9,-12,-11
3917,82,-2,995,-9,8,-7
3918,-28,13,1006,-15,22,-3
3919,-110,-2,988,-20,18,-3
3920,-118,-16,994,-18,1,-7
3921,-38,-48,996,-20,-17,-9
3922,66,-38,998,-9,-21,-12
3923,113,-25,1003,-7,-8,-9
3924,55,1,1003,-11,12,-4
3925,-52,15,996,-17,24,-1
3926,-122,-4,1005,-20,15,-3
3927,-110,-26,979,-20,-4,-6
3928,-9,-42,992,-17,-21,-10
3929,84,-35,1003,-10,-21,-11
3930,103,-18,1002,-10,-4,-7
3931,37,12,1010,-11,14,-3
3932,-74,6,997,-19,22,1
3933,-127,-9,986,-22,12,-2
3934,-85,-42,985,-21,-9,-6
3935,2,-47,993,-16,-22,-11
3936,100,-34,1007,-10,-17,-11
3937,96,-8,1006,-7,0,-8
3938,14,14,1013,-13,20,-1
3939,-91,11,989,-17,21,0
3940,-137,-14,985,-21,8,-3
3941,-67,-46,981,-21,-13,-8
3942,40,-48,1013,-12,-22,-12
3943,109,-35,1003,-9,-13,-11
3944,93,-4,1008,-8,6,-8
3945,-16,10,993,-12,23,-2
3946,-113,19,1002,-19,22,-1
3947,-128,-21,980,-21,2,-6
3948,-51,-38,1001,-18,-16,-7
3949,63,-45,1000,-15,-24,-12
3950,126,-37,1007,-8,-11,-12
3951,65,-4,995,-9,11,-4
3952,-45,21,1000,-14,24,0
3953,-120,0,1000,-19,18,-2
3954,-121,-20,987,-21,-1,-5
3955,-23,-46,993,-19,-19,-10
3956,91,-48,1001,-10,-23,-12
3957,110,-17,1000,-10,-5,-7
3958,49,10,1009,-11,16,-3
3959,-68,14,1000,-17,25,-2
3960,-131,-6,993,-22,16,-1
3961,-100,-33,980,-20,-7,-6
3962,-3,-55,993,-16,-22,-11
3963,101,-35,998,-11,-22,-11
3964,104,-12,1012,-9,-1,-8
3965,28,15,1009,-13,18,-2
3966,-87,9,1000,-19,24,0
3967,-135,-12,971,-20,10,-2
3968,-72,-41,995,-20,-11,-7
3969,22,-43,990,-14,-22,-11
3970,106,-33,1014,-10,-16,-11
3971,100,-12,1008,-10,4,-7
3972,1,14,999,-13,23,0
3973,-102,9,995,-19,23,0
3974,-140,-13,979,-22,5,-4
3975,-63,-42,990,-20,-14,-7
3976,57,-44,1005,-14,-24,-12
3977,113,-35,1014,-9,-12,-10
3978,88,-1,996,-8,8,-5
3979,-40,16,1000,-13,25,-1
3980,-119,8,992,-20,18,-1
3981,-133,-23,989,-24,1,-5
3982,-27,-47,1000,-19,-19,-10
3983,80,-47,1000,-13,-23,-11
3984,112,-21,1004,-9,-7,-9
3985,65,2,1004,-10,13,-3
3986,-72,13,996,-16,25,1
3987,-128,-1,997,-21,16,-2
3988,-106,-36,990,-22,-5,-6
3989,-5,-49,986,-15,-22,-11
3990,100,-38,1010,-9,-22,-11
3991,111,-16,1001,-8,-2,-8
3992,31,18,1006,-9,18,0
3993,-78,10,1003,-18,24,0
3994,-142,-8,988,-20,13,-1
3995,-85,-44,978,-19,-11,-7
3996,11,-53,999,-14,-22,-11
3997,116,-40,1006,-8,-19,-11
3998,101,-8,1004,-8,3,-7
3999,5,18,1013,-11,22,-1
4000,-92,13,996,-16,23,-1
4001,-148,-8,975,-22,8,-2
4002,-62,-37,987,-20,-16,-8
4003,35,-51,1013,-15,-25,-12
4004,116,-38,998,-10,-15,-11
4005,98,-9,1014,-9,6,-6
4006,-20,12,991,-11,23,0
4007,-110,18,1003,-19,22,-1
4008,-138,-22,978,-23,4,-5
4009,-50,-35,1000,-18,-17,-9
4010,71,-48,1005,-14,-24,-13
4011,115,-33,1002,-9,-10,-10
4012,76,0,1000,-10,10,-4
4013,-48,13,1002,-16,25,0
4014,-122,10,996,-21,17,-1
4015,-123,-28,988,-23,-3,-5
4016,-22,-45,996,-18,-20,-13
4017,94,-47,1002,-14,-22,-12
4018,109,-23,1004,-7,-3,-8
4019,57,10,1002,-10,14,-2
4020,-70,17,1013,-16,25,1
4021,-139,0,984,-22,15,0
4022,-98,-38,988,-22,-7,-6
4023,-2,-50,987,-15,-21,-10
4024,106,-40,1004,-8,-20,-10
4025,112,-10,1004,-7,0,-9
4026,22,17,1018,-10,20,-1
4027,-87,14,997,-21,23,0
4028,-142,-13,975,-23,10,-3
4029,-84,-46,987,-21,-11,-8
4030,21,-50,1001,-16,-24,-12
4031,108,-39,1007,-8,-18,-11
4032,105,-7,1006,-6,4,-7
4033,5,20,1010,-12,23,0
4034,-107,11,986,-19,24,2
4035,-145,-14,982,-23,6,-3
4036,-61,-41,988,-18,-16,-9
4037,47,-52,1008,-14,-24,-11
4038,120,-35,1009,-8,-13,-10
4039,97,0,1000,-7,9,-5
4040,-30,19,993,-14,27,1
4041,-113,10,1001,-21,20,-1
4042,-142,-23,979,-22,4,-4
4043,-49,-40,999,-19,-18,-10
4044,81,-54,1008,-11,-26,-13
4045,126,-34,998,-7,-9,-10
4046,75,6,1005,-7,13,-4
4047,-54,14,1004,-14,27,0
4048,-138,10,997,-19,19,0
4049,-119,-23,978,-23,-3,-5
4050,-26,-48,1002,-16,-23,-10
4051,106,-46,993,-10,-24,-12
4052,121,-14,1007,-8,-4,-9
4053,54,7,1011,-12,21,-1
4054,-83,22,1004,-20,28,2
4055,-149,-8,981,-23,14,-2
4056,-103,-38,980,-20,-10,-7
4057,7,-59,999,-16,-24,-11
4058,118,-31,1002,-9,-22,-11
4059,115,-5,1014,-7,0,-8
4060,23,20,1010,-13,21,-2
4061,-101,5,994,-20,27,2
4062,-152,-13,976,-21,9,-2
4063,-78,-47,984,-21,-14,-9
4064,33,-48,1003,-14,-25,-12
4065,116,-35,1011,-9,-19,-11
4066,109,-2,1005,-9,4,-7
4067,-12,21,1003,-14,25,2
4068,-110,7,994,-22,22,1
4069,-146,-12,978,-23,5,-3
4070,-55,-47,995,-21,-18,-8
4071,58,-54,1005,-15,-25,-12
4072,128,-31,1008,-7,-13,-11
4073,77,-5,997,-8,11,-3
4074,-40,29,1000,-14,25,0
4075,-122,1,995,-22,19,-1
4076,-136,-20,987,-21,-1,-4
4077,-19,-50,997,-20,-22,-10
4078,82,-54,999,-12,-24,-13
4079,116,-20,1002,-7,-8,-7
4080,66,-2,1002,-10,13,-3
4081,-72,25,1006,-15,26,1
4082,-130,-1,994,-22,16,0
4083,-112,-28,978,-22,-5,-6
4084,1,-53,999,-16,-23,-10
4085,97,-43,1001,-9,-21,-10
4086,110,-15,999,-9,-3,-7
4087,34,9,1020,-10,17,-2
4088,-88,12,995,-19,24,2
4089,-129,-1,976,-21,12,-3
4090,-90,-37,995,-19,-10,-6
4091,12,-46,984,-16,-24,-9
4092,116,-42,1017,-9,-18,-12
4093,99,-13,1003,-8,3,-5
4094,3,18,1003,-11,22,-1
4095,-88,6,1000,-18,23,-2
4096,-150,-11,977,-22,8,-1
4097,-59,-33,985,-19,-14,-9
4098,41,-53,1014,-14,-23,-11
4099,115,-32,1007,-7,-15,-9
4100,98,-10,997,-7,7,-6
4101,-23,19,1005,-13,25,0
4102,-108,8,992,-19,21,1
4103,-140,-14,982,-22,4,-4
4104,-47,-44,1000,-19,-17,-10
4105,67,-54,1008,-13,-24,-13
4106,122,-29,990,-8,-10,-11
4107,71,4,1015,-8,11,-4
4108,-44,19,989,-15,24,-1
4109,-131,9,1005,-21,19,0
4110,-119,-25,977,-24,-3,-6
4111,-23,-57,1002,-17,-20,-11
4112,95,-48,991,-9,-23,-12
4113,109,-22,1008,-7,-6,-8
4114,53,13,1003,-10,15,-3
4115,-77,21,1006,-16,26,1
4116,-133,-1,988,-23,14,-1
4117,-100,-35,984,-23,-8,-7
4118,0,-59,994,-16,-23,-11
4119,98,-42,1002,-9,-20,-10
4120,110,-21,1006,-7,0,-7
4121,29,18,1010,-10,19,-1
4122,-86,21,999,-19,24,0
4123,-140,-2,977,-22,10,-3
4124,-86,-42,986,-24,-11,-7
4125,23,-57,1001,-17,-24,-11
4126,114,-46,1005,-10,-17,-10
4127,108,-13,1007,-6,4,-8
4128,4,14,1001,-9,23,0
4129,-105,16,999,-16,23,0
4130,-147,-6,972,-22,7,-4
4131,-62,-30,997,-19,-15,-9
4132,52,-53,1005,-17,-24,-11
4133,123,-36,1005,-9,-13,-10
4134,90,-18,1003,-9,8,-5
4135,-29,15,997,-12,24,0
4136,-119,12,995,-17,21,1
4137,-140,-18,985,-21,3,-3
4138,-29,-37,1001,-19,-18,-10
4139,73,-51,998,-13,-23,-10
4140,121,-21,1001,-9,-9,-10
4141,70,-8,1006,-11,13,-3
4142,-62,20,996,-16,26,2
4143,-126,2,1006,-20,17,-2
4144,-115,-32,982,-20,-3,-6
4145,-14,-47,987,-15,-21,-10
4146,99,-41,1006,-10,-24,-12
4147,109,-18,1004,-9,-2,-7
4148,40,17,1005,-9,18,-2
4149,-76,15,1011,-18,26,1
4150,-133,-5,980,-22,15,-2
4151,-95,-44,976,-22,-9,-6
4152,12,-55,1004,-15,-23,-11
4153,105,-38,1000,-8,-17,-10
4154,107,-9,1008,-7,1,-7
4155,12,18,1015,-11,21,-1
4156,-92,21,996,-19,22,0
4157,-136,-14,971,-22,8,-3
4158,-76,-42,991,-20,-14,-8
4159,35,-58,1005,-13,-25,-13
4160,112,-32,1011,-7,-14,-10
4161,98,-4,1000,-9,5,-5
4162,-12,22,1007,-12,24,0
4163,-106,8,991,-20,22,1
4164,-142,-14,983,-25,4,-4
4165,-53,-50,991,-20,-17,-9
4166,61,-49,1014,-14,-24,-13
4167,122,-40,993,-9,-11,-8
4168,73,4,1009,-5,11,-5
4169,-38,21,995,-17,23,1
4170,-125,7,997,-20,20,-1
4171,-122,-25,983,-23,-1,-4
4172,-25,-48,1003,-18,-20,-11
4173,91,-49,997,-11,-23,-12
4174,111,-27,997,-8,-5,-9
4175,53,12,1014,-9,15,-5
4176,-69,21,996,-16,24,0
4177,-127,1,995,-20,15,-2
4178,-103,-34,989,-23,-7,-6
4179,0,-55,985,-18,-23,-10
4180,100,-47,1006,-9,-21,-10
4181,103,-12,1001,-7,-2,-7
4182,29,13,1015,-10,18,-3
4183,-80,20,996,-19,24,1
4184,-144,-4,981,-21,11,-2
4185,-75,-39,987,-21,-13,-8
4186,15,-51,998,-16,-24,-11
4187,111,-35,1004,-9,-19,-10
4188,101,-14,1011,-8,3,-7
4189,-2,14,1001,-13,22,0
4190,-99,10,998,-17,22,0
4191,-138,-8,976,-22,5,-3
4192,-58,-38,986,-21,-16,-7
4193,50,-50,1013,-13,-25,-11
4194,115,-33,1008,-9,-14,-11
4195,92,-4,998,-11,8,-5
4196,-27,15,998,-13,25,1
4197,-113,14,994,-21,20,-1
4198,-134,-17,986,-24,2,-5
4199,-36,-46,1001,-19,-20,-9
4200,76,-48,1000,-13,-24,-13
4201,122,-36,1007,-7,-8,-10
4202,66,0,1000,-8,12,-3
4203,-56,22,998,-16,27,-1
4204,-134,5,1001,-20,18,-2
4205,-116,-21,983,-23,-3,-5
4206,-11,-54,996,-18,-20,-12
4207,88,-48,996,-11,-22,-11
4208,122,-20,1007,-8,-4,-9
4209,45,6,1004,-10,17,-2
4210,-85,30,1000,-16,26,2
4211,-128,-4,995,-24,13,-4
4212,-95,-32,983,-22,-8,-6
4213,1,-56,984,-18,-22,-9
4214,103,-43,1016,-9,-20,-13
4215,111,-21,1002,-8,1,-7
4216,13,11,1010,-11,20,1
4217,-88,16,997,-19,23,0
4218,-133,-8,984,-21,11,-3
4219,-80,-34,976,-22,-11,-6
4220,31,-50,1011,-16,-24,-13
4221,115,-40,1007,-10,-16,-11
4222,100,-9,999,-9,5,-5
4223,-3,15,1006,-14,23,0
4224,-114,9,997,-18,22,0
4225,-137,-19,971,-24,4,-4
4226,-65,-39,1001,-17,-15,-8
4227,67,-46,1003,-14,-26,-13
4228,115,-36,1016,-9,-12,-11
4229,88,-4,982,-10,9,-4
4230,-40,20,1016,-13,26,0
4231,-116,6,984,-21,20,-1
4232,-148,-22,988,-22,1,-4
4233,-23,-43,1004,-18,-21,-13
4234,80,-61,1006,-11,-23,-11
4235,127,-19,989,-6,-8,-8
4236,60,1,1013,-9,16,-3
4237,-68,28,993,-16,27,0
4238,-131,5,1000,-21,17,-1
4239,-117,-25,983,-22,-5,-7
4240,-12,-57,997,-16,-21,-11
4241,102,-47,1001,-8,-24,-14
4242,108,-20,1001,-7,-3,-7
4243,45,12,1011,-8,19,-2
4244,-81,20,1001,-15,26,-1
4245,-138,3,988,-23,13,-1
4246,-98,-33,981,-19,-11,-6
4247,11,-55,997,-17,-24,-12
4248,106,-47,1003,-10,-19,-12
4249,105,-13,1009,-7,1,-7
4250,23,16,1020,-10,21,-1
4251,-98,16,988,-19,24,0
4252,-144,-6,974,-22,8,-2
4253,-75,-42,994,-20,-13,-9
4254,30,-52,999,-14,-25,-11
4255,117,-38,1003,-9,-17,-10
4256,99,-9,1014,-7,5,-6
4257,-6,11,994,-13,23,1
4258,-117,13,994,-18,22,0
4259,-145,-12,985,-23,3,-3
4260,-50,-41,992,-18,-19,-9
4261,63,-51,1007,-14,-25,-12
4262,122,-33,1012,-8,-12,-10
4263,81,-4,998,-9,10,-6
4264,-49,24,999,-15,25,1
4265,-123,6,994,-21,18,0
4266,-131,-18,991,-23,0,-4
4267,-27,-48,992,-20,-20,-10
4268,86,-53,1000,-13,-25,-12
4269,125,-21,1007,-7,-7,-9
4270,60,8,1001,-11,14,-4
4271,-69,19,1000,-17,26,1
4272,-138,2,998,-22,15,-2
4273,-109,-38,985,-23,-6,-7
4274,0,-50,987,-15,-23,-11
4275,104,-48,1011,-11,-22,-12
4276,115,-11,1003,-8,-2,-9
4277,27,11,1007,-10,20,-1
4278,-82,19,1003,-18,24,-1
4279,-139,-4,985,-22,13,-2
4280,-87,-35,975,-22,-10,-7
4281,18,-53,1004,-16,-24,-12
4282,112,-40,1002,-8,-17,-11
4283,102,-13,1007,-8,4,-6
4284,8,16,1011,-12,21,-1
4285,-98,12,994,-19,24,0
4286,-139,-15,977,-23,8,-2
4287,-76,-32,988,-20,-15,-7
4288,48,-49,1008,-15,-27,-13
4289,121,-32,1013,-9,-14,-10
4290,88,-8,995,-11,8,-4
4291,-28,19,1006,-14,24,-1
4292,-117,0,993,-21,21,0
4293,-141,-18,976,-21,2,-4
4294,-40,-39,1003,-17,-19,-9
4295,76,-51,1006,-13,-24,-12
4296,123,-21,999,-8,-9,-11
4297,74,0,1002,-10,13,-4
4298,-63,21,999,-17,26,1
4299,-128,6,994,-21,16,0
4300,-118,-31,984,-23,-2,-7
4301,-20,-57,1001,-19,-23,-11
4302,99,-50,988,-9,-23,-12
4303,114,-17,1010,-5,-5,-8
4304,54,9,1001,-11,16,-3
4305,-87,26,1004,-16,27,0
4306,-122,1,992,-22,12,-3
4307,-107,-34,985,-21,-5,-6
4308,6,-54,988,-16,-23,-10
4309,111,-47,1015,-9,-20,-12
4310,103,-18,991,-7,1,-7
4311,21,22,1022,-10,20,-2
4312,-83,14,993,-19,24,0
4313,-147,-9,980,-22,13,0
4314,-72,-40,985,-21,-13,-8
4315,23,-52,1002,-16,-23,-12
4316,119,-41,1000,-9,-17,-11
4317,101,-10,1014,-9,4,-7
4318,-4,18,1003,-12,23,-2
4319,-113,15,993,-18,22,-1
4320,-135,-11,979,-23,4,-4
4321,-68,-45,989,-20,-15,-8
4322,59,-46,1011,-12,-25,-12
4323,123,-41,1008,-10,-12,-10
4324,92,-3,999,-8,9,-5
4325,-31,19,1001,-15,25,1
4326,-126,11,995,-22,21,0
4327,-136,-20,973,-23,1,-4
4328,-37,-39,1013,-18,-19,-10
4329,82,-56,998,-14,-27,-11
4330,124,-27,1002,-7,-9,-9
4331,71,-3,1004,-10,12,-4
4332,-65,19,997,-15,26,1
4333,-135,7,993,-20,17,-1
4334,-117,-28,997,-22,-4,-6
4335,-9,-48,985,-18,-21,-9
4336,106,-51,1004,-11,-22,-13
4337,117,-17,1005,-8,-3,-8
4338,39,10,1004,-11,19,-1
4339,-79,17,1003,-18,25,1
4340,-142,-1,993,-22,14,-1
4341,-91,-44,974,-21,-8,-6
4342,8,-47,1000,-14,-23,-12
4343,119,-40,1000,-11,-20,-11
4344,105,-5,1009,-9,3,-6
4345,12,16,1011,-13,22,0
4346,-95,14,996,-20,24,0
4347,-146,-15,969,-24,9,-3
4348,-73,-41,993,-20,-15,-8
4349,35,-56,999,-15,-25,-12
4350,123,-37,1008,-7,-16,-11
4351,96,-4,1006,-7,6,-7
4352,-13,22,999,-12,23,-1
4353,-113,8,998,-18,23,-1
4354,-145,-13,971,-23,2,-3
4355,-51,-39,998,-18,-19,-11
4356,73,-56,1013,-13,-24,-13
4357,115,-33,1000,-9,-10,-10
4358,93,-2,1003,-8,11,-6
4359,-45,19,1006,-13,25,0
4360,-127,19,987,-20,20,0
4361,-131,-21,991,-23,-2,-7
4362,-32,-48,1004,-19,-21,-9
4363,89,-52,990,-12,-25,-12
4364,121,-36,1006,-7,-7,-10
4365,66,11,1009,-6,14,-2
4366,-70,20,991,-16,26,1
4367,-135,13,1004,-21,16,-2
4368,-111,-33,984,-22,-7,-6
4369,-5,-50,989,-16,-22,-11
4370,106,-53,1003,-11,-22,-11
4371,112,-17,1006,-10,-1,-9
4372,38,8,1006,-10,20,-2
4373,-89,20,1000,-17,25,2
4374,-136,6,988,-21,13,-2
4375,-92,-38,979,-21,-10,-7
4376,13,-47,996,-16,-23,-11
4377,114,-46,1008,-10,-19,-12
4378,100,-9,1005,-8,1,-7
4379,9,5,1013,-13,21,-1
4380,-100,14,995,-16,24,-1
4381,-134,-12,975,-22,9,-2
4382,-71,-34,989,-18,-13,-8
4383,46,-45,1006,-13,-25,-12
4384,120,-38,1012,-9,-14,-10
4385,90,-9,996,-9,7,-5
4386,-26,18,1004,-13,24,0
4387,-107,4,996,-18,19,-2
4388,-145,-16,974,-15,1,-6
4389,-38,-43,1002,-19,-20,-11
4390,74,-53,1009,-13,-24,-13
4391,119,-31,1000,-8,-9,-8
4392,77,0,1000,-9,13,-4
4393,-54,14,1005,-13,26,1
4394,-127,13,987,-20,18,0
4395,-124,-29,997,-21,-2,-6
4396,-20,-48,996,-17,-21,-10
4397,96,-48,998,-11,-23,-12
4398,124,-26,1002,-7,-4,-8
4399,49,9,1008,-10,18,-2
4400,-79,20,996,-17,26,1
4401,-136,-1,999,-21,15,-3
4402,-106,-31,980,-22,-5,-6
4403,7,-53,992,-17,-23,-12
4404,112,-50,1009,-9,-21,-12
4405,102,-12,1000,-8,2,-6
4406,28,12,1015,-9,20,-3
4407,-92,12,1002,-16,25,0
4408,-140,-5,973,-21,10,-2
4409,-80,-38,987,-18,-12,-10
4410,23,-50,1000,-15,-25,-12
4411,114,-37,1004,-8,-18,-11
4412,103,-4,1013,-7,3,-7
4413,-3,15,1006,-14,22,0
4414,-108,10,989,-18,23,0
4415,-136,-14,978,-23,6,-3
4416,-66,-45,989,-19,-16,-9
4417,58,-45,1013,-12,-27,-12
4418,126,-39,1002,-8,-12,-11
4419,83,2,1006,-8,9,-4
4420,-23,16,998,-12,24,0
4421,-124,13,995,-21,22,0
4422,-135,-20,978,-22,1,-3
4423,-42,-39,1005,-18,-20,-10
4424,85,-61,999,-14,-24,-11
4425,126,-27,998,-6,-9,-10
4426,66,0,1006,-8,14,-4
4427,-60,25,999,-15,27,0
4428,-130,11,996,-21,18,-1
4429,-123,-27,989,-25,-3,-5
4430,-10,-48,995,-18,-23,-11
4431,100,-52,1004,-12,-23,-13
4432,118,-24,997,-8,-4,-8
4433,39,13,1012,-8,18,-1
4434,-81,17,1004,-15,25,0
4435,-140,-1,983,-21,14,0
4436,-95,-34,991,-20,-10,-7
4437,11,-47,994,-16,-25,-12
4438,111,-44,1000,-11,-19,-11
4439,104,-9,1011,-9,1,-7
4440,15,11,1009,-12,20,-1
4441,-94,17,992,-17,24,0
4442,-143,-10,980,-20,8,-3
4443,-72,-42,987,-21,-15,-9
4444,35,-45,1004,-12,-25,-13
4445,129,-42,1005,-10,-17,-11
4446,88,-8,1010,-9,8,-6
4447,-5,22,998,-12,23,-1
4448,-112,5,998,-19,22,0
4449,-146,-7,969,-23,4,-4
4450,-50,-42,999,-18,-17,-10
4451,63,-53,1006,-14,-24,-12
4452,123,-34,1005,-9,-12,-11
4453,85,-9,1006,-6,10,-7
4454,-40,19,993,-14,26,1
4455,-126,14,992,-20,20,-2
4456,-136,-16,993,-22,0,-5
4457,-27,-44,995,-20,-20,-10
4458,89,-59,1007,-12,-24,-13
4459,120,-30,993,-7,-8,-9
4460,61,2,1008,-9,13,-4
4461,-70,23,996,-15,26,1
4462,-135,8,997,-21,16,0
4463,-112,-27,993,-22,-5,-6
4464,0,-51,988,-16,-24,-11
4465,102,-52,1005,-10,-22,-11
4466,110,-19,996,-8,-1,-8
4467,35,8,1014,-9,19,-3
4468,-87,20,995,-17,25,0
4469,-139,1,994,-22,13,-1
4470,-90,-40,977,-20,-10,-6
4471,13,-48,1004,-16,-24,-12
4472,121,-40,992,-10,-19,-13
4473,102,-13,1017,-8,4,-7
4474,11,14,1006,-13,21,0
4475,-105,12,994,-18,24,0
4476,-144,-9,977,-20,8,-1
4477,-71,-36,988,-21,-15,-9
4478,43,-55,1004,-14,-26,-13
4479,124,-32,1012,-9,-16,-11
4480,100,-6,1002,-9,8,-6
4481,-24,14,1002,-14,25,2
4482,-115,10,995,-20,21,1
4483,-145,-20,976,-22,4,-3
4484,-47,-43,1000,-18,-19,-9
4485,67,-47,1006,-13,-25,-13
4486,129,-37,1007,-7,-12,-9
4487,72,2,1003,-8,12,-3
4488,-40,21,998,-14,26,1
4489,-132,5,991,-21,19,-1
4490,-129,-19,987,-22,-2,-5
4491,-23,-50,1006,-19,-21,-11
4492,97,-53,998,-11,-23,-12
4493,119,-23,993,-7,-6,-8
4494,59,6,1015,-11,15,-4
4495,-79,20,993,-18,26,2
4496,-133,4,998,-21,16,-1
4497,-105,-38,986,-23,-6,-7
