sequence,AccelerometerX,AccelerometerY,AccelerometerZ,GyroscopeX,GyroscopeY,GyroscopeZ
0,80,-14,57,-117,-29,-19
1,135,-86,56,24,6,-24
2,29,-27,384,57,28,-14
3,-82,-170,290,-38,25,-12
4,-283,141,180,29,22,-22
5,27,72,385,1,6,-37
6,-97,0,339,-3,24,-1
7,74,54,293,254,-20,-42
8,46,-70,6,-190,-29,23
9,175,-56,48,78,22,-5
10,83,-284,315,-52,26,-1
11,-293,77,401,-158,32,140
12,-158,-38,127,108,-40,206
13,-7,143,200,-120,19,78
14,184,-62,-227,-65,-37,75
15,225,-32,148,-54,-3,-9
16,123,-87,293,-215,11,43
17,1,-33,505,151,46,-16
18,-124,-4,512,-187,0,21
19,-215,-48,511,26,-5,16
20,-69,-119,712,40,2,-2
21,-43,40,801,-96,-21,-10
22,73,18,528,78,-26,-38
23,270,46,386,-189,-44,-2
24,11,105,378,127,44,-12
25,-53,-56,579,-125,0,-52
26,-212,47,476,-65,0,-24
27,-218,-16,337,20,12,-36
28,3,-135,422,25,-21,-45
29,142,-69,772,25,-24,-17
30,219,-67,773,51,-3,-11
31,152,-18,729,26,29,-12
32,-173,170,801,62,36,3
33,-180,5,611,60,8,-24
34,-101,-61,768,29,16,8
35,-88,52,879,4,-26,-14
36,138,-244,929,-14,-7,-31
37,172,-34,712,19,-19,9
38,125,-18,647,23,19,-14
39,9,-50,919,-6,37,-3
40,-153,114,903,31,24,9
41,-185,28,891,-38,3,-4
42,-96,-11,1000,-17,-16,-12
43,66,-64,1015,-26,-27,-5
44,143,-91,989,-29,-14,-11
45,158,-84,1014,6,4,-7
46,34,0,994,-7,20,3
47,-101,23,999,-8,27,0
48,-167,40,991,-14,10,0
49,-117,6,997,-32,-14,-5
50,11,-63,990,-21,-27,-10
51,130,-85,1006,-18,-20,-9
52,163,-66,1003,-12,1,-8
53,62,-21,1006,0,23,-2
54,-65,26,1005,-7,24,0
55,-153,39,980,-14,12,0
56,-128,0,997,-25,-9,-6
57,-28,-55,1005,-30,-21,-9
58,114,-82,1005,-18,-19,-11
59,148,-73,995,-8,-3,-8
60,92,-29,1002,-1,14,-4
61,-30,20,1002,-6,23,-2
62,-136,46,987,-16,18,1
63,-144,10,997,-24,0,-4
64,-60,-44,991,-27,-20,-8
65,82,-82,1003,-22,-25,-10
66,136,-86,1008,-12,-8,-9
67,119,-37,1001,-3,12,-4
68,5,19,998,-2,23,-1
69,-116,43,996,-12,17,0
70,-148,20,986,-23,2,-4
71,-82,-26,984,-29,-12,-7
72,41,-79,1007,-26,-21,-8
73,124,-92,998,-15,-14,-9
74,133,-52,1004,-5,3,-6
75,35,6,1002,-1,22,-2
76,-82,39,1003,-8,22,0
77,-144,33,977,-20,7,-2
78,-106,-9,1004,-29,-11,-4
79,2,-73,993,-26,-22,-9
80,114,-95,994,-16,-17,-9
81,137,-67,1004,-6,-2,-7
82,63,-11,1005,-2,17,-1
83,-48,34,1002,-6,23,0
84,-137,49,981,-17,14,2
85,-122,3,1004,-27,-7,-5
86,-36,-63,989,-27,-20,-8
87,89,-89,1003,-21,-21,-9
88,137,-83,1003,-10,-6,-8
89,93,-33,1002,-1,13,-4
90,-7,29,991,-5,22,-2
91,-126,52,992,-13,19,2
92,-134,15,999,-25,-2,-3
93,-63,-40,985,-31,-17,-7
94,59,-81,1007,-24,-21,-9
95,123,-95,1000,-14,-10,-9
96,120,-48,1000,-1,7,-6
97,17,16,1000,-2,19,-2
98,-94,42,1008,-10,21,-1
99,-141,34,977,-21,6,-2
100,-91,-13,988,-30,-12,-5
101,25,-80,1004,-27,-23,-10
102,111,-99,997,-17,-13,-8
103,137,-64,1001,-5,2,-6
104,44,-6,1006,0,20,-1
105,-62,34,1005,-7,20,0
106,-137,46,979,-20,12,0
107,-113,3,1001,-27,-6,-4
108,-14,-67,994,-30,-21,-8
109,103,-90,999,-20,-20,-9
110,139,-81,997,-10,-4,-7
111,73,-25,1000,-2,16,-3
112,-34,28,1000,-2,22,-2
113,-128,53,990,-16,14,1
114,-127,10,999,-27,-4,-4
115,-50,-46,986,-29,-17,-7
116,80,-80,1002,-22,-22,-10
117,132,-87,1011,-12,-8,-10
118,107,-41,999,-5,12,-4
119,0,18,996,-3,23,-2
120,-110,43,991,-12,19,1
121,-141,16,990,-24,0,-2
122,-74,-24,986,-29,-16,-7
123,46,-75,1009,-26,-22,-9
124,124,-87,998,-14,-12,-9
125,126,-53,1001,-5,6,-5
126,28,5,1005,-5,22,-3
127,-87,34,1005,-9,22,2
128,-137,31,974,-21,7,-2
129,-103,-13,1005,-29,-11,-4
130,9,-72,994,-26,-23,-9
131,115,-92,999,-17,-15,-10
132,137,-61,1003,-5,1,-8
133,55,-4,1006,0,18,-3
134,-48,29,1005,-8,21,-1
135,-143,45,982,-17,12,1
136,-115,0,999,-26,-7,-5
137,-33,-68,998,-28,-21,-9
138,98,-82,1001,-20,-19,-10
139,142,-79,1004,-9,-3,-9
140,86,-27,996,-2,15,-3
141,-19,30,999,-5,22,0
142,-125,49,990,-17,16,1
143,-138,12,1002,-26,-1,-2
144,-53,-44,982,-29,-18,-8
145,66,-88,1014,-22,-22,-9
146,132,-89,995,-12,-9,-8
147,113,-43,1007,-4,10,-5
148,10,19,997,-2,22,0
149,-108,44,998,-12,19,2
150,-136,27,982,-24,3,-4
151,-101,4,963,-38,-16,-4
152,38,-52,786,-25,-20,-5
153,118,-121,734,34,-13,1
154,136,-54,874,-45,-2,-2
155,35,-6,959,37,27,4
156,-71,30,997,-37,23,1
157,-135,35,957,-27,3,0
158,-116,-11,998,-12,-8,-3
159,0,-75,1003,-52,-23,-8
160,108,-81,996,-6,-17,-9
161,129,-61,992,-13,-5,-7
162,84,-27,1002,-14,11,-3
163,-19,20,1010,4,24,3
164,-114,56,916,-19,17,7
165,-105,-63,921,-23,0,-5
166,-55,-158,978,-19,-8,-21
167,-94,299,627,253,68,50
168,143,31,639,-4,60,117
169,18,85,277,-33,-45,118
170,91,-121,350,-386,-77,1
171,-102,1,278,-111,17,14
172,-153,11,345,-211,-31,-22
173,-45,65,299,-228,-69,-14
174,0,-162,483,138,6,-44
175,-110,175,555,94,-6,31
176,48,136,682,362,28,-36
177,-58,115,358,259,14,58
178,-111,7,525,3,15,29
179,-89,66,405,155,95,18
180,-23,-226,250,-27,40,11
181,-85,-98,540,-29,-58,4
182,-50,-47,728,122,-70,30
183,60,71,356,-52,9,-6
184,62,-180,282,-78,43,-2
185,82,-27,448,70,6,1
186,-112,-7,429,-151,-2,16
187,-53,-182,216,61,32,-14
188,-288,141,316,-261,-62,13
189,110,-145,483,105,-118,16
190,134,-86,498,-274,-10,-8
191,208,129,369,104,28,-41
192,63,-34,-55,28,71,8
193,-94,29,341,-112,-16,15
194,-210,-12,350,86,30,-5
195,-189,32,366,-53,1,-3
196,-4,-3,551,-21,-21,-8
197,68,46,824,-8,-46,-28
198,260,-141,759,-132,-28,-20
199,137,-41,670,43,34,-14
200,-112,-1,623,-16,44,-3
201,-242,28,618,-90,37,44
202,-183,25,734,24,-20,35
203,7,-59,779,-184,-62,9
204,201,-143,551,-31,-27,2
205,227,-89,522,-34,6,4
206,-25,129,555,-37,31,-30
207,-20,15,431,152,55,-54
208,-217,-15,676,-90,-5,42
209,-116,1,438,49,-6,-53
210,11,-248,383,-102,-35,11
211,139,40,454,16,-18,-9
212,-74,-8,552,55,26,-53
213,116,-5,410,-144,-23,20
214,-39,186,365,-63,-10,9
215,-48,-3,210,-60,42,-43
216,-125,-152,246,-64,9,32
217,-70,-11,514,11,-34,-13
218,-151,-103,704,-91,-34,-61
219,188,-29,596,-76,-15,16
220,101,123,280,14,10,1
221,113,-47,236,-37,29,-38
222,-54,-92,334,-15,-6,46
223,-163,150,504,-9,13,-8
224,-246,-104,543,-70,16,-39
225,95,9,402,-32,-66,17
226,204,-189,589,-50,-40,21
227,148,77,448,-30,11,-50
228,104,-142,525,-49,17,26
229,-34,133,309,9,37,23
230,-191,-85,304,-51,12,-2
231,-197,60,301,-19,-14,-4
232,-52,-76,299,-23,-17,-3
233,104,-38,357,-15,-16,-23
234,207,-55,368,-16,-18,-5
235,141,-8,367,-4,18,-5
236,-52,7,358,-17,37,5
237,-165,11,467,-14,22,1
238,-177,-20,534,-31,-6,-3
239,-63,-61,539,-22,-28,-8
240,100,-64,569,-13,-22,-11
241,204,-62,603,-10,-5,-13
242,114,-6,713,1,16,1
243,-15,26,796,-11,24,0
244,-161,34,765,-20,24,0
245,-178,-4,773,-26,2,-1
246,-79,-54,829,-27,-23,-10
247,96,-90,867,-17,-29,-13
248,170,-73,915,-8,-12,-9
249,132,-22,938,-4,13,-5
250,4,29,950,-3,27,-2
251,-139,51,945,-19,22,4
252,-172,10,980,-27,1,-3
253,-91,-46,987,-34,-19,-9
254,68,-93,1000,-25,-26,-9
255,148,-92,1012,-9,-14,-10
256,146,-46,1009,-3,7,-5
257,30,24,996,0,26,-2
258,-114,50,1000,-10,27,1
259,-164,34,979,-24,6,-2
260,-103,-26,983,-29,-15,-6
261,27,-85,1002,-27,-28,-10
262,136,-103,1004,-16,-17,-10
263,153,-62,1000,-4,4,-7
264,48,7,1005,0,23,-2
265,-77,43,1010,-5,24,0
266,-157,48,979,-20,10,-2
267,-119,-1,1000,-29,-9,-5
268,-7,-74,997,-31,-25,-9
269,118,-99,995,-21,-21,-9
270,154,-76,1005,-8,-3,-7
271,74,-19,1007,-3,21,-1
272,-41,36,1004,-6,25,-1
273,-146,53,981,-15,14,0
274,-134,12,997,-27,-8,-3
275,-41,-56,994,-29,-20,-8
276,94,-86,1002,-23,-20,-8
277,143,-89,1002,-12,-7,-10
278,102,-41,999,-1,13,-5
279,-12,23,993,-3,25,-1
280,-123,52,987,-12,20,2
281,-146,20,1002,-23,-1,-3
282,-68,-31,985,-31,-20,-7
283,61,-81,1011,-25,-24,-10
284,132,-94,1002,-15,-10,-10
285,124,-54,1000,-3,9,-6
286,24,15,1003,-1,22,-3
287,-105,39,1007,-10,21,3
288,-145,38,976,-20,5,-3
289,-96,-16,992,-29,-13,-5
290,26,-74,1000,-26,-24,-9
291,123,-98,1005,-17,-15,-10
292,143,-59,997,-7,4,-6
293,44,-4,1006,-1,21,-1
294,-68,35,1006,-6,22,0
295,-146,39,980,-20,9,1
296,-113,0,1000,-27,-7,-3
297,-12,-68,1001,-29,-22,-8
298,109,-91,993,-19,-19,-10
299,143,-75,1001,-7,-2,-8
300,77,-21,1000,-2,16,-2
301,-38,30,1003,-4,23,-1
302,-134,47,985,-16,14,1
303,-132,10,1002,-27,-4,-3
304,-46,-54,990,-29,-17,-8
305,89,-81,1006,-21,-21,-9
306,136,-89,1004,-11,-7,-8
307,106,-40,1003,-1,11,-4
308,-6,20,992,-4,23,-2
309,-123,49,987,-10,19,1
310,-139,19,999,-24,-1,-4
311,-78,-28,988,-31,-17,-7
312,59,-78,1006,-26,-23,-10
313,127,-95,1004,-16,-10,-9
314,128,-52,996,-3,8,-6
315,25,9,1003,-2,21,-2
316,-98,40,1008,-9,22,1
317,-142,33,974,-21,5,-1
318,-98,-12,995,-28,-13,-6
319,20,-74,1001,-27,-23,-9
320,119,-93,1000,-16,-15,-9
321,141,-63,998,-7,3,-6
322,47,-4,1008,-1,19,-2
323,-61,34,1003,-8,20,-1
324,-146,41,981,-19,12,0
325,-115,0,1003,-27,-8,-5
326,-18,-65,994,-30,-22,-8
327,107,-83,1000,-19,-20,-9
328,144,-76,998,-10,-3,-8
329,80,-29,1000,-2,17,-3
330,-36,26,998,-3,24,-1
331,-134,50,990,-16,14,-1
332,-130,8,997,-26,-4,-4
333,-52,-44,988,-30,-19,-7
334,86,-82,1002,-22,-22,-11
335,137,-86,1007,-12,-8,-9
336,108,-42,999,-3,11,-3
337,0,20,993,-3,25,-3
338,-114,45,993,-12,21,1
339,-142,21,989,-22,1,-2
340,-76,-29,995,-28,-14,-8
341,51,-79,1004,-25,-23,-9
342,122,-92,996,-15,-12,-9
343,129,-51,1006,-6,5,-6
344,28,10,1003,-9,22,1
345,-87,40,1007,-19,20,2
346,-143,31,983,-21,6,-1
347,-97,-7,993,-28,-12,-5
348,14,-75,998,-28,-21,-9
349,113,-92,1001,-17,-16,-10
350,142,-64,999,-7,0,-7
351,53,-7,1007,-1,18,-1
352,-57,34,1005,-8,22,0
353,-142,47,978,-20,13,0
354,-120,2,1001,-26,-7,-5
355,-24,-64,996,-30,-21,-8
356,102,-90,1004,-19,-20,-9
357,142,-76,993,-9,-4,-8
358,56,-10,986,-15,17,-2
359,-3,46,661,-15,18,-7
360,-137,40,749,7,40,-2
361,-129,-12,853,-8,-15,-6
362,-60,-35,781,-26,-10,-3
363,77,-98,933,9,-15,-8
364,137,-86,964,-43,-13,-5
365,102,-39,991,7,9,-3
366,9,22,1005,2,24,-2
367,-112,51,1006,-29,19,3
368,-141,23,980,-9,3,-2
369,-67,-31,969,-44,-19,-7
370,58,-97,973,-25,-23,-7
371,165,-148,916,-4,-4,-10
372,95,-92,955,5,16,-24
373,-141,209,559,-320,-40,-44
374,198,56,629,237,23,-155
375,-133,-88,346,350,124,-62
376,-124,-27,176,167,-45,-12
377,20,79,301,181,20,-29
378,97,-163,354,-179,-15,2
379,75,-128,159,113,11,-48
380,-163,101,58,-111,64,124
381,68,268,248,34,18,105
382,-216,239,178,15,31,4
383,-135,72,0,-244,-65,-43
384,42,-53,-7,86,21,-26
385,143,-232,189,-14,-1,-29
386,35,53,407,-23,-12,-16
387,-31,138,94,175,-31,5
388,-125,15,510,-67,10,2
389,-13,52,382,3,69,-8
390,36,8,535,58,6,15
391,-34,-78,542,-70,-49,-6
392,-138,153,141,-129,-20,-10
393,155,-35,192,-173,-52,42
394,33,55,466,-21,58,-35
395,-28,95,187,75,-87,-17
396,-220,74,-14,-133,-21,5
397,-149,65,155,49,101,-1
398,-145,204,122,10,35,-61
399,-34,135,11,-179,-99,-24
400,83,13,624,124,-35,-21
401,35,-5,723,-85,49,-38
402,195,-102,500,-23,26,13
403,3,17,451,72,-56,38
404,-65,81,499,-203,-24,-1
405,-112,68,626,141,74,-13
406,-72,-52,740,2,22,7
407,94,-112,683,-13,-70,-15
408,179,-97,506,95,-33,0
409,113,-33,466,-83,31,10
410,-115,88,434,-16,85,-38
411,-108,117,558,-289,-9,25
412,-83,6,889,-55,-71,3
413,-20,-71,851,-18,14,-26
414,43,-146,850,-71,-5,-3
415,89,15,659,24,-10,-1
416,23,41,594,-47,-7,-20
417,74,-27,947,-34,8,30
418,-12,47,976,-42,13,13
419,-125,-49,979,-68,21,-15
420,-102,-44,988,-15,-17,6
421,-6,-37,966,-43,-26,-6
422,68,-71,1002,-12,-10,-20
423,137,-15,1046,-10,-5,-1
424,73,-3,974,-14,12,-1
425,-60,25,996,-13,21,-2
426,-119,-6,1012,-24,13,3
427,-123,-11,958,-25,1,-3
428,-20,-76,1000,-19,-22,-9
429,91,-63,1020,-14,-26,-8
430,146,-55,985,-3,-5,-8
431,73,15,1004,-4,22,-2
432,-39,29,1027,-15,27,0
433,-137,20,967,-20,14,-1
434,-137,-17,989,-27,-9,-3
435,-31,-71,1004,-25,-20,-10
436,89,-89,992,-14,-18,-10
437,153,-54,998,-5,-7,-8
438,91,-3,1020,-1,14,-2
439,-23,32,1002,-9,26,0
440,-140,40,980,-19,18,2
441,-145,-2,1000,-27,-4,-4
442,-57,-66,991,-30,-23,-8
443,83,-89,1002,-19,-24,-9
444,152,-75,999,-9,-6,-9
445,113,-23,1003,-1,14,-4
446,-3,28,998,-2,23,-1
447,-131,53,991,-17,19,2
448,-149,12,997,-26,2,-4
449,-87,-45,980,-30,-18,-7
450,68,-84,1004,-23,-26,-9
451,143,-95,1013,-13,-11,-10
452,133,-42,1001,-4,11,-4
453,21,22,1000,-1,23,-2
454,-114,50,999,-12,21,2
455,-160,26,980,-24,4,-2
456,-96,-22,994,-29,-14,-7
457,38,-83,1006,-25,-24,-9
458,131,-98,1000,-14,-15,-11
459,143,-58,1000,-4,3,-6
460,42,6,1006,-1,22,-2
461,-82,41,1004,-9,24,1
462,-157,40,979,-21,8,-1
463,-116,-5,997,-28,-12,-5
464,3,-77,997,-28,-22,-11
465,116,-96,996,-20,-16,-9
466,152,-71,1004,-6,-2,-8
467,67,-12,1007,0,17,-3
468,-56,33,1004,-7,23,1
469,-150,54,983,-16,14,0
470,-130,2,999,-27,-7,-4
471,-31,-61,995,-29,-23,-9
472,107,-89,1007,-20,-21,-10
473,149,-82,994,-11,-4,-8
474,94,-32,1002,-1,16,-3
475,-27,25,998,-2,23,-2
476,-138,55,990,-15,16,0
477,-142,13,1000,-26,-1,-4
478,-64,-39,985,-31,-18,-7
479,81,-82,1004,-23,-23,-10
480,144,-91,1008,-12,-9,-9
481,116,-46,1000,-6,11,-5
482,5,14,992,-2,23,-2
483,-116,44,996,-9,21,2
484,-148,21,985,-22,3,-2
485,-81,-22,989,-29,-14,-6
486,48,-76,1009,-25,-22,-10
487,129,-89,998,-16,-14,-10
488,137,-58,1002,-5,5,-7
489,29,8,1004,-3,23,-1
490,-89,36,1005,-9,24,1
491,-146,31,980,-19,6,-2
492,-106,-9,995,-28,-12,-4
493,17,-70,999,-26,-24,-10
494,119,-89,997,-18,-17,-11
495,147,-63,998,-7,2,-7
496,55,-9,1006,-2,18,-2
497,-56,32,1005,-8,22,0
498,-145,40,978,-17,13,0
499,-122,3,1001,-25,-7,-6
500,-25,-67,991,-28,-23,-9
501,106,-84,1003,-18,-21,-10
502,145,-74,997,-9,-5,-7
503,84,-26,997,-2,15,-4
504,-24,26,1002,-4,23,-1
505,-137,50,986,-16,18,1
506,-131,10,998,-26,-2,-4
507,-58,-48,990,-28,-18,-8
508,79,-79,999,-22,-23,-9
509,142,-86,1010,-12,-11,-9
510,109,-42,1008,-2,11,-4
511,4,20,990,-3,22,-2
512,-119,43,999,-13,21,1
513,-147,20,988,-25,3,-2
514,-80,-27,990,-29,-16,-6
515,51,-78,1007,-26,-23,-9
516,126,-92,1000,-13,-13,-10
517,135,-48,1002,-2,6,-6
518,28,8,1002,-3,21,-1
519,-88,40,1009,-10,23,0
520,-147,26,973,-21,7,-2
521,-106,-10,994,-28,-12,-5
522,20,-78,1001,-26,-24,-10
523,114,-88,998,-17,-16,-10
524,146,-60,998,-8,1,-7
525,58,-6,1011,1,20,-3
526,-60,33,1003,-8,22,-1
527,-142,44,978,-19,12,-1
528,-122,-1,1002,-26,-7,-4
529,-24,-66,992,-29,-23,-8
530,106,-88,1003,-19,-21,-9
531,146,-79,997,-9,-3,-9
532,82,-27,1000,-3,16,-4
533,-31,26,996,-3,23,-2
534,-136,51,994,-16,15,-1
535,-132,12,997,-26,-2,-3
536,-57,-49,986,-29,-17,-7
537,84,-83,1007,-22,-23,-10
538,136,-90,1007,-10,-8,-8
539,111,-44,1004,-3,11,-5
540,0,19,993,-3,23,-1
541,-115,51,992,-11,18,0
542,-145,18,991,-25,0,-3
543,-83,-24,994,-30,-15,-7
544,52,-79,1004,-26,-22,-9
545,126,-94,1002,-14,-12,-9
546,134,-50,999,-2,6,-5
547,27,9,1005,-4,23,-2
548,-88,40,1003,-10,24,1
549,-147,30,980,-19,7,-1
550,-102,-7,989,-27,-13,-6
551,17,-77,1005,-26,-24,-10
552,121,-91,997,-18,-16,-8
553,147,-61,1002,-7,2,-6
554,55,-5,1004,-1,18,-3
555,-63,33,1006,-9,22,1
556,-146,44,979,-20,11,-1
557,-120,-1,1000,-26,-7,-5
558,-15,-68,994,-28,-24,-10
559,105,-85,1000,-18,-21,-9
560,149,-73,998,-11,-3,-8
561,81,-24,1002,-1,18,-3
562,-32,30,1001,-4,25,-1
563,-145,68,992,-19,15,1
564,-142,11,916,-31,-3,1
565,-51,-57,987,-22,-17,-11
566,108,-92,903,-52,-33,-8
567,163,-129,983,14,-2,-13
568,89,-79,876,-3,19,-10
569,-77,94,842,-44,20,-20
570,-92,78,922,-54,18,-55
571,-133,11,922,-58,-9,-25
572,-62,6,974,-63,-36,12
573,48,-130,843,52,-9,-33
574,98,-64,470,-26,-5,-6
575,155,-102,462,-12,5,4
576,22,-20,678,30,24,-3
577,-46,-15,850,-48,17,1
578,-143,-21,908,15,13,-7
579,-249,230,580,27,-22,14
580,135,-64,726,-147,-70,-10
581,53,21,295,-29,-22,2
582,197,83,419,-108,-33,-28
583,21,-42,384,-27,14,7
584,-21,48,389,-44,15,-4
585,-123,-90,332,11,30,-2
586,-250,165,645,-58,0,-16
587,-26,-98,615,-165,-157,7
588,176,101,466,68,0,-19
589,147,113,-57,-72,-127,21
590,170,-70,322,-393,22,7
591,37,47,411,166,62,-18
592,-59,-110,650,-38,33,-5
593,-146,-63,738,-111,-50,-3
594,-142,-1,635,186,5,-16
595,-64,366,653,-221,8,-36
596,128,134,893,117,-49,31
597,12,11,51,-168,-72,15
598,-48,27,160,54,106,2
599,-165,109,178,98,100,36
600,-224,65,163,-136,-38,-4
601,-200,-187,231,-77,-40,-40
602,-27,-12,336,108,-25,-19
603,207,-103,817,-183,-38,-19
604,247,-20,922,85,16,-17
605,201,-118,885,-36,1,13
606,-167,-10,751,63,42,-31
607,-79,153,490,357,113,-118
608,-318,16,328,-286,-53,41
609,-51,53,353,169,-25,-75
610,140,-85,308,-34,-39,-16
611,321,-4,380,-132,-24,8
612,-115,-11,554,152,82,-8
613,-108,-24,435,-149,-25,-57
614,-154,-109,363,123,13,39
615,-92,156,120,112,19,-67
616,-82,-186,105,-121,-17,-15
617,154,-80,186,140,-11,16
618,113,-118,254,-40,7,-9
619,4,-100,278,-21,13,-110
620,36,-32,60,-64,11,83
621,-68,131,516,42,37,-8
622,73,-173,244,-64,11,-51
623,-15,-109,144,-27,-41,45
624,35,78,154,2,-7,-13
625,-26,-95,380,-26,18,-41
626,196,-94,815,-6,-25,5
627,77,-93,434,-28,-2,38
628,-139,218,533,-33,25,-25
629,-51,-61,452,-38,17,0
630,-105,40,347,-44,-5,12
631,-27,-109,603,-35,-28,-19
632,72,-94,510,-16,-31,-14
633,137,0,528,10,0,3
634,77,38,721,-11,26,-10
635,-21,27,709,-21,16,-3
636,-122,17,615,-25,6,3
637,-158,-27,664,-41,1,-2
638,-26,-101,732,-15,-15,-10
639,87,-98,782,-18,-21,-9
640,153,-56,854,-6,-10,-8
641,90,17,874,4,16,-4
642,-22,43,873,-14,28,0
643,-151,52,863,-18,18,2
644,-141,-1,958,-34,-11,-4
645,-46,-82,976,-36,-21,-10
646,89,-99,974,-14,-17,-8
647,154,-81,1004,-6,-8,-9
648,108,-26,995,-1,10,-5
649,-18,34,999,-3,22,2
650,-146,68,1008,-17,20,1
651,-145,17,999,-26,1,-5
652,-72,-56,984,-33,-20,-7
653,84,-90,1009,-24,-26,-10
654,158,-99,1003,-10,-11,-11
655,119,-50,988,0,13,-3
656,1,30,998,0,23,0
657,-127,55,999,-10,21,2
658,-155,29,990,-22,2,-1
659,-85,-25,989,-31,-15,-6
660,58,-80,1008,-26,-23,-10
661,140,-97,993,-16,-14,-10
662,133,-59,1004,-4,6,-5
663,28,7,1004,-1,22,-3
664,-104,41,1009,-9,24,1
665,-157,39,977,-21,8,-1
666,-101,-9,995,-29,-15,-6
667,30,-71,1004,-27,-26,-10
668,124,-98,1000,-18,-15,-8
669,148,-63,996,-7,2,-8
670,47,-11,1009,0,21,-2
671,-73,33,999,-6,23,1
672,-151,42,984,-19,12,-1
673,-117,2,1003,-26,-7,-6
674,-9,-65,993,-28,-24,-9
675,114,-85,998,-18,-22,-10
676,149,-75,1001,-7,-2,-9
677,76,-20,1004,-5,20,-3
678,-44,24,1001,-4,28,-1
679,-142,46,985,-16,15,1
680,-133,7,997,-26,-6,-4
681,-47,-53,992,-28,-21,-8
682,97,-80,1005,-18,-21,-12
683,144,-82,1002,-10,-6,-8
684,105,-36,1000,-2,12,-4
685,-9,18,1000,-4,26,-1
686,-127,44,988,-13,21,1
687,-145,17,997,-23,1,-3
688,-73,-34,986,-30,-20,-8
689,66,-75,1008,-23,-25,-10
690,131,-89,1005,-13,-10,-10
691,125,-46,1003,-4,8,-5
692,19,13,1003,-2,21,-1
693,-100,39,1000,-12,21,2
694,-150,24,983,-21,6,-3
695,-94,-16,984,-27,-13,-6
696,28,-73,1007,-26,-24,-8
697,124,-89,1006,-15,-15,-10
698,144,-55,998,-8,4,-6
699,44,0,1004,-4,23,-2
700,-73,35,1006,-9,22,0
701,-147,32,979,-21,9,0
702,-116,-7,996,-26,-9,-6
703,-9,-69,996,-29,-21,-9
704,110,-83,994,-18,-18,-9
705,147,-73,1003,-7,-2,-7
706,72,-13,1006,-4,17,-2
707,-41,26,1001,-7,23,-1
708,-143,46,985,-19,14,0
709,-131,1,994,-27,-6,-5
710,-43,-53,1000,-28,-21,-9
711,97,-85,1002,-21,-21,-10
712,143,-80,1001,-10,-6,-8
713,105,-37,1001,-1,13,-3
714,-14,23,997,-4,23,-2
715,-123,50,989,-15,19,2
716,-146,13,998,-24,0,-4
717,-73,-36,987,-30,-18,-8
718,67,-83,1006,-23,-23,-9
719,137,-90,1008,-14,-10,-10
720,125,-49,1000,-3,8,-4
721,18,13,1000,-3,23,-2
722,-106,43,1001,-12,21,0
723,-154,24,978,-25,5,-2
724,-93,-16,989,-28,-14,-7
725,35,-80,1004,-26,-25,-9
726,125,-92,1004,-14,-15,-9
727,145,-59,997,-6,3,-7
728,40,1,1008,-3,23,-2
729,-76,37,1002,-8,23,0
730,-148,41,980,-20,10,-1
731,-115,-2,999,-28,-10,-5
732,0,-73,994,-27,-22,-9
733,116,-92,995,-18,-18,-10
734,146,-72,1001,-7,-2,-7
735,69,-15,1005,-3,17,-3
736,-47,31,1004,-6,25,-2
737,-145,50,981,-16,15,1
738,-125,7,1000,-27,-7,-5
739,-38,-58,998,-28,-22,-8
740,96,-86,1007,-21,-21,-10
741,148,-86,998,-11,-5,-9
742,93,-34,1001,0,13,-3
743,-14,24,994,-5,22,-2
744,-131,51,994,-13,19,0
745,-140,17,998,-24,-1,-4
746,-66,-39,988,-29,-19,-8
747,72,-85,1005,-22,-23,-10
748,133,-91,1005,-14,-8,-8
749,121,-45,1003,-3,9,-5
750,12,13,997,-3,23,-2
751,-109,45,1000,-11,20,1
752,-147,27,982,-22,5,-3
753,-90,-23,990,-28,-13,-7
754,36,-77,1002,-25,-24,-9
755,123,-93,1003,-16,-15,-9
756,141,-58,1001,-6,3,-8
757,37,2,1002,-2,22,-1
758,-79,36,1007,-8,22,0
759,-146,38,979,-20,8,0
760,-109,-8,1003,-28,-11,-5
761,2,-71,992,-28,-23,-11
762,113,-92,996,-20,-17,-9
763,145,-69,999,-7,-1,-8
764,64,-14,1006,-2,19,-2
765,-46,31,1004,-7,23,-2
766,-142,51,982,-18,13,0
767,-125,3,998,-26,-7,-4
768,-35,-59,995,-29,-21,-8
769,97,-85,1008,-21,-20,-10
770,141,-79,996,-11,-3,-9
771,96,-33,1001,-1,14,-4
772,-18,27,996,-5,23,-2
773,-129,52,993,-13,19,2
774,-139,13,996,-24,-1,-3
775,-71,-38,986,-30,-19,-7
776,76,-80,1004,-23,-24,-10
777,132,-90,1005,-14,-10,-9
778,119,-44,1002,-3,10,-5
779,16,12,998,-1,22,-3
780,-111,44,996,-12,22,1
781,-152,81,969,-22,2,-1
782,-96,-31,899,-28,-13,-5
783,51,-149,944,-38,-26,-14
784,133,-104,997,7,-8,-6
785,134,-50,929,-3,9,-3
786,-22,49,826,17,23,12
787,-41,64,864,47,9,14
788,-190,25,858,3,15,9
789,-67,-16,846,-22,-3,2
790,18,-105,748,-3,-18,4
791,133,-156,864,-46,-19,-7
792,141,-121,744,-10,5,-3
793,-67,141,760,-12,18,-3
794,-31,-1,663,-95,11,0
795,-117,71,526,0,8,-12
796,-42,32,530,-11,-19,-7
797,-60,-145,471,-58,-9,4
798,124,-128,440,-5,3,-16
799,20,-19,459,33,1,-14
800,80,-4,414,-275,1,9
801,-6,37,212,107,-22,-14
802,-99,176,62,-89,47,-14
803,-29,-56,441,-60,-24,-12
804,-138,-36,190,73,7,0
805,0,-110,311,-222,-29,-21
806,183,-124,575,8,-29,10
807,91,-35,502,-29,20,-10
808,42,28,564,-21,4,-36
809,-252,235,821,64,6,-6
810,-63,-62,635,-66,-5,-33
811,-83,-3,702,-69,27,15
812,100,37,32,-9,-60,-14
813,104,-289,343,-184,-23,-8
814,95,58,301,208,26,-5
815,78,-98,324,-110,28,4
816,-50,8,303,91,30,0
817,-240,163,376,143,8,-5
818,10,-10,565,85,-2,-78
819,-86,-78,373,56,-10,35
820,186,-48,282,-75,-13,-50
821,146,-266,197,70,14,0
822,100,64,106,1,24,13
823,-112,-59,312,-15,46,-62
824,-194,107,428,108,47,12
825,-112,108,571,-24,-19,58
826,38,-7,837,35,-28,-49
827,118,-312,809,-98,-15,34
828,62,220,561,15,8,-4
829,88,-238,547,-131,-9,-56
830,24,20,501,-25,-13,40
831,-112,121,535,-113,-4,-19
832,-114,-9,920,-81,15,-35
833,-25,3,814,-11,-24,20
834,59,-20,787,-66,-35,-33
835,-8,-169,768,-59,-7,-42
836,148,20,556,-89,-10,90
837,0,-6,652,-167,4,0
838,-51,-89,633,60,32,-16
839,-126,-62,841,-93,-32,57
840,-138,91,689,-34,10,-9
841,-53,-163,913,31,20,-12
842,109,54,867,-73,-46,2
843,132,-88,823,18,-21,-14
844,63,39,1003,-3,13,-3
845,-5,-2,1042,-60,33,10
846,-130,1,916,23,35,-9
847,-134,-52,946,-56,-28,1
848,-42,-36,967,-20,-34,-8
849,64,-87,956,-4,-4,-11
850,155,-26,999,-24,-2,-6
851,107,1,1036,11,8,-6
852,-8,18,988,-19,14,-3
853,-137,28,990,-29,20,4
854,-151,-9,993,-13,9,-4
855,-68,-74,971,-36,-24,-9
856,84,-84,1006,-15,-34,-10
857,156,-64,1012,-6,-8,-10
858,121,-20,988,-8,20,-6
859,-5,37,1001,6,25,1
860,-128,50,1001,-20,11,1
861,-150,-3,996,-31,-2,-4
862,-87,-54,981,-26,-10,-8
863,62,-84,1001,-25,-20,-10
864,151,-88,1012,-7,-16,-10
865,131,-39,1006,-3,5,-4
866,25,26,998,-6,25,-3
867,-114,49,991,-8,29,2
868,-167,24,986,-24,2,-1
869,-101,-31,992,-30,-21,-6
870,49,-88,1008,-26,-26,-10
871,135,-96,996,-15,-11,-10
872,148,-51,1001,0,6,-6
873,41,13,1007,-1,19,0
874,-94,43,1006,-12,21,1
875,-161,35,976,-22,12,-1
876,-112,-9,989,-31,-9,-5
877,15,-78,1002,-27,-25,-10
878,121,-100,999,-18,-21,-10
879,160,-65,1002,-7,1,-8
880,59,-2,1002,0,25,-2
881,-66,38,1007,-5,23,0
882,-158,45,982,-18,9,0
883,-124,4,1002,-28,-8,-5
884,-16,-71,992,-30,-21,-9
885,112,-90,997,-19,-21,-10
886,158,-78,999,-7,-5,-8
887,80,-25,1005,-2,16,-2
888,-39,32,1002,-4,26,0
889,-145,53,983,-15,18,0
890,-138,13,995,-25,-5,-3
891,-55,-50,996,-30,-21,-8
892,94,-83,1005,-22,-24,-10
893,150,-90,1003,-12,-8,-7
894,110,-40,1004,-2,12,-4
895,-10,21,992,-4,25,-1
896,-130,49,992,-11,20,0
897,-150,19,996,-26,1,-3
898,-77,-30,989,-30,-18,-8
899,68,-79,1006,-25,-23,-10
900,135,-92,1006,-15,-11,-9
901,129,-53,1000,-5,8,-5
902,18,11,1005,0,24,-2
903,-104,39,1001,-12,23,1
904,-155,30,980,-23,7,-2
905,-97,-12,985,-28,-14,-6
906,30,-70,1008,-26,-25,-9
907,126,-93,1001,-16,-17,-11
908,147,-61,1000,-7,3,-6
909,39,-4,1005,-3,23,-1
910,-78,32,1005,-6,24,0
911,-153,36,979,-18,9,-1
912,-116,0,999,-26,-10,-5
913,-2,-68,997,-29,-23,-9
914,113,-87,995,-18,-20,-10
915,147,-71,1001,-7,-2,-7
916,71,-17,1009,-4,17,-3
917,-46,25,1000,-6,24,0
918,-147,48,980,-15,15,0
919,-130,6,1001,-25,-7,-5
920,-39,-54,994,-29,-22,-8
921,100,-82,1005,-22,-21,-10
922,146,-82,1000,-10,-6,-8
923,95,-34,998,-2,13,-2
924,-14,20,998,-4,24,-2
925,-132,48,989,-15,19,1
926,-142,14,996,-24,-2,-3
927,-71,-38,989,-29,-20,-6
928,70,-75,1005,-22,-25,-8
929,140,-89,1008,-15,-9,-9
930,120,-48,1004,-5,10,-4
931,12,15,996,-1,23,-1
932,-110,38,996,-12,21,0
933,-153,19,982,-22,4,-2
934,-89,-19,991,-28,-15,-7
935,42,-70,1005,-26,-23,-10
936,130,-90,998,-15,-14,-10
937,140,-53,1004,-7,4,-5
938,41,1,1000,-4,22,-2
939,-86,32,1008,-9,24,1
940,-146,32,974,-19,8,-2
941,-115,-7,996,-27,-11,-5
942,9,-73,998,-27,-23,-10
943,113,-89,996,-17,-17,-9
944,154,-62,1000,-7,0,-9
945,61,-10,1011,-2,19,-3
946,-55,31,1001,-7,23,-1
947,-146,40,981,-17,14,1
948,-127,2,997,-26,-6,-3
949,-27,-66,995,-28,-23,-8
950,105,-85,1005,-18,-20,-11
951,147,-76,998,-10,-5,-8
952,92,-21,998,0,15,-3
953,-23,25,1003,-5,22,-1
954,-137,51,990,-16,17,3
955,-138,7,995,-25,-2,-3
956,-63,-47,989,-28,-18,-7
957,82,-81,1003,-20,-23,-11
958,145,-87,1009,-12,-10,-10
959,115,-40,1005,-3,11,-4
960,3,24,993,-2,25,-1
961,-117,44,992,-13,20,2
962,-152,20,991,-23,1,-2
963,-79,-32,993,-29,-16,-8
964,50,-82,1006,-25,-22,-10
965,129,-91,1002,-11,-12,-9
966,139,-49,1005,-3,6,-4
967,25,11,1006,-3,22,0
968,-87,42,1003,-10,23,1
969,-153,28,983,-21,9,-1
970,-105,-10,985,-29,-13,-5
971,18,-78,1006,-27,-24,-10
972,117,-91,998,-18,-15,-9
973,149,-61,1001,-7,2,-7
974,54,-5,1009,1,21,-2
975,-66,36,1004,-8,23,0
976,-146,43,981,-18,12,0
977,-122,-1,1004,-28,-6,-4
978,-16,-66,989,-32,-22,-8
979,109,-90,1002,-18,-21,-10
980,148,-73,996,-9,-5,-8
981,81,-26,1001,-3,16,-3
982,-35,29,1002,-4,25,-1
983,-140,51,988,-17,16,1
984,-132,7,998,-25,-4,-5
985,-81,7,924,-64,-28,-7
986,82,-82,965,-23,-15,-23
987,135,-110,956,24,-5,-17
988,129,-63,976,-10,0,-3
989,7,11,785,46,41,0
990,-112,38,788,-26,31,5
991,-129,-11,808,-14,6,-1
992,-90,-113,835,9,-12,-13
993,-154,58,579,-1,-9,51
994,165,-59,700,-17,-17,107
995,62,29,348,166,28,34
996,7,9,375,47,-3,-54
997,-108,19,303,40,56,-27
998,-7,-11,176,98,54,-30
999,-13,33,52,-118,-42,-3
1000,-16,-120,303,44,-47,-11
1001,96,-125,232,17,-4,-33
1002,42,348,436,-61,68,-15
1003,178,83,673,117,35,-2
1004,-68,205,146,87,21,1
1005,-293,129,182,32,-1,17
1006,-109,119,347,10,-5,8
1007,42,-175,218,-136,-5,-11
1008,-53,-5,122,95,4,-17
1009,25,94,165,-307,51,-7
1010,-63,180,231,166,-38,21
1011,87,58,-24,398,102,-42
1012,-72,-127,203,-314,-4,32
1013,-147,136,216,301,19,0
1014,8,-160,150,-216,-31,25
1015,22,-248,145,-35,-19,-25
1016,-82,62,230,77,24,-25
1017,3,-106,416,-283,-79,-79
1018,205,287,90,-319,-71,-15
1019,-75,97,209,-37,52,-68
1020,-35,-242,170,101,-9,-44
1021,-168,55,356,-158,-37,13
1022,-100,-56,373,227,54,-26
1023,61,-140,546,-92,-33,-28
1024,72,-43,757,-198,-41,4
1025,134,18,668,265,27,-20
1026,15,49,842,-229,10,1
1027,33,-51,696,49,27,11
1028,-240,134,831,31,10,5
1029,-42,-97,394,-39,-90,16
1030,-117,-30,347,252,10,44
1031,132,-19,84,211,-4,-146
1032,162,-121,58,20,40,6
1033,57,166,183,252,36,-12
1034,-116,-119,349,-124,31,28
1035,-295,187,630,60,64,-58
1036,-31,-142,760,6,-22,122
1037,-86,155,149,-114,-44,48
1038,58,-26,223,58,38,-15
1039,159,-154,110,-17,33,25
1040,-66,82,297,-55,8,41
1041,-394,95,146,98,53,-14
1042,-64,24,605,-174,-7,-4
1043,-10,-146,297,54,-16,74
1044,-32,98,417,-80,-40,-74
1045,174,-476,390,-124,-22,-3
1046,178,106,518,59,9,33
1047,-79,81,484,-47,51,-26
1048,-142,-93,600,84,22,-78
1049,-156,18,289,-130,-30,76
1050,8,22,303,92,38,-14
1051,36,-55,443,-7,0,-78
1052,204,-223,182,21,-45,47
1053,119,2,363,18,-19,21
1054,8,-108,466,24,54,-43
1055,-122,84,415,-28,41,15
1056,-162,76,403,3,0,6
1057,-158,-15,450,-35,-32,-24
1058,34,-55,482,-32,-42,-4
1059,126,-112,369,-11,8,-4
1060,155,-79,404,-5,20,-13
1061,92,-43,417,-11,3,-2
1062,-86,40,386,2,24,2
1063,-193,60,578,-14,22,2
1064,-133,19,780,-27,-5,-6
1065,-7,-65,783,-26,-31,-10
1066,115,-85,713,-26,-31,-7
1067,192,-85,722,-10,4,-10
1068,84,-40,766,-2,33,-1
1069,-58,25,854,-6,23,4
1070,-161,42,895,-16,5,-2
1071,-154,15,851,-28,-7,-4
1072,-46,-40,853,-28,-18,-6
1073,111,-73,905,-23,-23,-11
1074,176,-88,955,-14,-11,-10
1075,111,-42,990,-5,14,0
1076,-29,16,1010,-2,30,-1
1077,-150,44,973,-11,22,1
1078,-167,16,977,-23,-3,-2
1079,-70,-29,1004,-27,-22,-9
1080,92,-78,1013,-25,-22,-11
1081,160,-82,1001,-13,-7,-9
1082,128,-47,1016,-4,9,-5
1083,4,7,996,-3,22,-2
1084,-131,37,986,-13,23,3
1085,-161,19,993,-21,5,-3
1086,-91,-22,989,-28,-15,-7
1087,58,-70,1002,-25,-28,-11
1088,144,-87,1008,-15,-16,-11
1089,144,-51,996,-5,6,-6
1090,32,5,1000,-4,26,-1
1091,-110,32,1008,-11,24,2
1092,-158,27,976,-22,7,-2
1093,-105,-14,988,-27,-12,-5
1094,15,-73,1006,-24,-23,-9
1095,127,-86,1000,-16,-16,-9
1096,149,-58,1000,-8,-1,-6
1097,53,-3,1006,-1,20,-1
1098,-67,31,1010,-8,27,0
1099,-154,38,977,-18,16,0
1100,-124,-2,1001,-27,-8,-6
1101,-15,-67,996,-28,-25,-10
1102,112,-89,996,-17,-22,-10
1103,152,-73,999,-9,-4,-8
1104,82,-22,1002,-2,18,-3
1105,-36,30,999,-5,24,0
1106,-135,51,988,-17,16,1
1107,-136,8,998,-26,-2,-3
1108,-50,-50,988,-28,-19,-9
1109,89,-82,1003,-21,-23,-8
1110,142,-83,1004,-11,-10,-9
1111,105,-44,1009,-3,12,-3
1112,-1,22,992,-3,25,-2
1113,-124,45,988,-12,21,1
1114,-142,20,999,-24,-1,-4
1115,-80,-31,986,-30,-18,-6
1116,57,-76,1007,-23,-23,-11
1117,128,-91,1003,-15,-10,-9
1118,129,-50,1000,-2,6,-5
1119,25,10,1005,-3,21,-1
1120,-96,38,1009,-12,23,1
1121,-147,30,971,-21,6,-2
1122,-98,-14,992,-27,-14,-6
1123,17,-72,1005,-25,-26,-9
1124,119,-93,997,-17,-16,-9
1125,145,-61,1002,-6,3,-6
1126,45,-5,1006,-2,21,-1
1127,-62,31,1005,-7,22,0
1128,-148,38,979,-21,10,0
1129,-122,5,999,-27,-9,-4
1130,-17,-68,999,-28,-23,-9
1131,110,-84,998,-17,-19,-10
1132,146,-74,999,-9,-2,-8
1133,83,-22,1009,-2,17,-3
1134,-40,24,1000,-5,25,0
1135,-136,51,980,-16,15,0
1136,-135,2,1003,-27,-5,-4
1137,-54,-48,989,-29,-19,-7
1138,89,-81,1007,-23,-21,-8
1139,145,-85,1003,-11,-7,-9
1140,107,-38,998,-4,10,-3
1141,-2,17,994,-4,23,-1
1142,-128,47,993,-11,20,1
1143,-148,19,990,-23,0,-4
1144,-76,-33,994,-28,-17,-6
1145,58,-75,1005,-23,-22,-8
1146,134,-89,1002,-15,-10,-10
1147,133,-50,1003,-3,9,-7
1148,21,12,999,-3,21,-1
1149,-99,40,1003,-11,20,0
1150,-155,24,981,-21,7,-2
1151,-97,-14,982,-28,-14,-6
1152,26,-75,1009,-26,-25,-10
1153,122,-95,1001,-16,-16,-11
1154,147,-59,1001,-7,3,-7
1155,47,-2,1000,-3,21,-2
1156,-70,36,1008,-7,22,0
1157,-148,40,975,-22,10,0
1158,-121,0,1003,-26,-8,-5
1159,-6,-71,993,-29,-23,-9
1160,113,-91,996,-18,-19,-11
1161,153,-74,1000,-8,-4,-8
1162,75,-18,1006,-3,16,-2
1163,-44,31,1002,-6,25,-1
1164,-146,50,981,-17,15,1
1165,-130,6,1002,-26,-6,-5
1166,-41,-57,994,-31,-19,-9
1167,95,-81,1006,-23,-21,-8
1168,149,-86,1004,-11,-7,-9
1169,98,-36,997,-1,12,-3
1170,-13,24,997,-5,21,-1
1171,-131,49,994,-13,20,2
1172,-141,15,993,-23,-1,-4
1173,-71,-35,987,-29,-17,-7
1174,70,-81,1006,-23,-23,-10
1175,134,-89,1002,-15,-10,-9
1176,130,-52,1002,-3,9,-5
1177,14,14,997,-1,23,-1
1178,-106,42,1001,-11,21,1
1179,-152,25,981,-23,6,-1
1180,-94,-17,988,-28,-12,-6
1181,36,-77,1006,-25,-24,-11
1182,124,-89,1001,-14,-15,-11
1183,143,-56,1003,-7,3,-6
1184,38,1,1005,-2,22,-2
1185,-78,34,1002,-7,22,0
1186,-148,35,981,-19,10,-1
1187,-114,-4,999,-28,-10,-5
1188,1,-73,995,-28,-22,-10
1189,92,-26,932,-10,-10,-9
1190,144,-86,963,33,18,-4
1191,59,-46,895,34,15,7
1192,-13,37,922,-46,0,-3
1193,-150,29,915,-72,12,5
1194,-110,-6,913,3,3,-7
1195,-41,-47,983,-53,-20,-5
1196,101,-132,926,-16,-20,-15
1197,45,20,914,-31,-6,-22
1198,81,39,830,-266,17,-18
1199,28,117,786,-216,-6,7
1200,-15,25,298,-368,-5,11
1201,-76,114,446,-133,-27,28
1202,-118,67,560,-71,-9,17
1203,-3,-73,526,-135,-40,5
1204,126,-158,480,-9,-4,-9
1205,12,69,592,-62,8,-10
1206,-5,-138,615,-209,-26,1
1207,-38,-42,561,25,-5,-35
1208,-41,179,46,6,18,-20
1209,-65,-125,58,7,4,2
1210,91,-106,168,-6,10,0
1211,109,-209,331,-3,-4,-15
1212,-187,251,250,-379,-58,-11
1213,41,175,534,126,-74,-4
1214,-13,-50,105,178,131,-10
1215,45,8,-90,-153,-23,0
1216,-83,-17,-61,85,65,4
1217,5,-218,158,23,5,-1
1218,82,-23,380,22,-43,-15
1219,96,-26,603,95,4,23
1220,114,-31,807,-24,33,2
1221,-227,163,537,-135,30,-63
1222,-30,25,546,-271,-107,-20
1223,-208,66,26,-419,-38,-29
1224,-55,-85,-55,154,3,-42
1225,-66,121,-28,-504,-114,-8
1226,83,-122,275,67,62,13
1227,59,-102,511,173,2,2
1228,42,112,636,-393,-57,28
1229,35,-92,767,296,47,8
1230,-170,-51,555,-374,29,-31
1231,-9,170,280,-422,-54,81
1232,105,219,484,343,44,-67
1233,130,4,77,-210,31,-18
1234,161,-263,70,134,-21,-10
1235,89,28,450,-18,40,16
1236,-217,161,320,-177,2,-15
1237,0,137,280,44,-12,-39
1238,16,-50,286,2,-53,-19
1239,-54,150,297,-33,-23,-60
1240,67,-173,431,224,3,-2
1241,173,2,346,-19,-6,3
1242,-58,-165,393,-67,38,-53
1243,120,-68,495,158,55,-61
1244,-105,-19,-18,-94,-33,72
1245,-52,145,3,63,-17,-74
1246,49,-153,20,-23,-4,0
1247,149,-22,447,-8,-29,10
1248,-132,14,388,78,27,-24
1249,-73,-237,409,-164,4,-59
1250,-176,-103,367,-16,56,153
1251,18,196,351,-64,25,-43
1252,33,-233,187,-125,-29,3
1253,14,2,-16,53,-35,33
1254,-31,-62,411,-66,31,19
1255,114,13,445,47,59,-27
1256,80,-36,416,-18,-8,5
1257,-30,45,326,-37,-27,-2
1258,-141,107,335,31,13,4
1259,-83,-8,363,-71,27,-2
1260,-66,-51,361,-25,7,-5
1261,84,-127,271,-6,-47,-10
1262,112,-90,379,-39,-22,-7
1263,97,-70,427,21,35,-5
1264,-8,49,499,2,31,-2
1265,-86,51,537,-25,-1,-5
1266,-135,38,495,-1,-4,-1
1267,-79,-15,518,-45,-4,-4
1268,47,-86,610,-20,-4,-11
1269,126,-117,737,-14,-18,-10
1270,112,-63,835,-15,-9,-3
1271,29,1,835,10,21,-4
1272,-84,42,762,-11,32,0
1273,-148,50,744,-21,8,-1
1274,-86,0,842,-23,-20,-8
1275,18,-70,906,-40,-25,-9
1276,100,-86,938,-14,-9,-8
1277,135,-71,950,-10,5,-7
1278,54,-20,961,-5,15,-2
1279,-60,22,966,-1,21,1
1280,-134,47,977,-21,14,-1
1281,-117,7,998,-25,-5,-4
1282,-18,-54,991,-26,-25,-8
1283,104,-86,1008,-23,-23,-9
1284,145,-77,1001,-8,0,-8
1285,75,-29,999,-6,21,-2
1286,-34,20,1006,-4,24,-2
1287,-136,39,980,-14,11,0
1288,-132,9,990,-26,-7,-4
1289,-52,-46,999,-26,-18,-8
1290,86,-72,1006,-21,-20,-9
1291,144,-80,999,-12,-9,-8
1292,105,-38,1007,-1,12,-2
1293,-3,15,993,-7,26,-1
1294,-125,39,989,-13,21,1
1295,-150,13,997,-22,-3,-3
1296,-78,-36,990,-28,-21,-7
1297,64,-75,1004,-23,-23,-9
1298,137,-83,1013,-14,-7,-9
1299,132,-44,1004,-4,11,-6
1300,21,9,998,-4,21,-1
1301,-105,36,998,-13,19,1
1302,-154,17,982,-22,7,-1
1303,-98,-21,985,-27,-13,-6
1304,31,-75,1005,-25,-25,-11
1305,126,-91,1005,-14,-17,-10
1306,151,-53,998,-5,5,-5
1307,46,2,1001,-3,24,-3
1308,-80,36,1007,-9,23,2
1309,-155,33,972,-20,8,-1
1310,-122,-8,1002,-26,-10,-5
1311,1,-71,996,-27,-21,-10
1312,117,-91,995,-17,-15,-10
1313,153,-67,1000,-6,-2,-7
1314,71,-12,1011,-2,17,-2
1315,-51,32,1000,-7,24,0
1316,-151,45,978,-16,15,-1
1317,-133,4,1005,-26,-7,-5
1318,-35,-62,994,-28,-23,-9
1319,105,-88,1007,-20,-21,-11
1320,155,-79,997,-11,-3,-8
1321,94,-29,997,1,16,-3
1322,-21,24,1000,-5,22,-1
1323,-138,52,990,-14,18,2
1324,-143,12,995,-27,-2,-4
1325,-63,-46,988,-30,-19,-8
1326,81,-80,1003,-22,-24,-9
1327,143,-89,1008,-12,-11,-9
1328,120,-45,1006,-4,10,-4
1329,5,21,993,-3,24,-2
1330,-117,46,991,-12,21,1
1331,-157,22,992,-23,2,-3
1332,-83,-24,989,-29,-17,-6
1333,54,-80,1007,-25,-23,-8
1334,130,-91,999,-15,-14,-10
1335,139,-54,1003,-4,5,-6
1336,31,8,1002,-3,22,-1
1337,-96,42,1006,-9,23,3
1338,-153,32,979,-21,9,-1
1339,-108,-10,991,-27,-12,-6
1340,17,-76,999,-25,-25,-11
1341,120,-93,1001,-16,-17,-10
1342,151,-64,996,-5,1,-8
1343,54,-6,1006,0,20,-3
1344,-61,37,1007,-7,23,-1
1345,-151,41,979,-18,13,0
1346,-121,1,999,-26,-7,-4
1347,-19,-68,998,-29,-22,-8
1348,106,-83,995,-18,-21,-10
1349,151,-78,1002,-10,-4,-8
1350,81,-24,1003,-2,15,-3
1351,-33,26,998,-1,25,1
1352,-139,47,988,-8,13,-2
1353,-137,7,1000,-25,-1,-2
1354,-52,-49,987,-28,-19,-8
1355,89,-82,1005,-23,-23,-10
1356,144,-85,1005,-11,-8,-9
1357,111,-39,1001,-2,12,-5
1358,-6,20,996,-5,24,-1
1359,-121,47,989,-12,20,1
1360,-145,15,997,-24,1,-2
1361,-78,-30,985,-29,-18,-6
1362,59,-78,1009,-24,-23,-9
1363,134,-90,1001,-16,-11,-10
1364,129,-48,1001,-3,7,-5
1365,24,12,1005,-1,23,-2
1366,-102,38,1003,-12,22,1
1367,-151,30,976,-21,6,-2
1368,-97,-15,989,-29,-14,-6
1369,26,-75,1006,-28,-26,-10
1370,125,-92,1002,-15,-17,-10
1371,145,-59,1002,-5,3,-8
1372,46,-3,1003,1,23,-3
1373,-75,34,1003,-6,23,1
1374,-151,39,977,-20,8,0
1375,-114,-3,1005,-27,-10,-6
1376,-7,-68,991,-29,-22,-9
1377,113,-85,997,-18,-19,-9
1378,153,-75,1003,-7,-4,-9
1379,69,-15,1004,-2,20,-3
1380,-43,27,1001,-7,24,0
1381,-146,46,984,-15,14,0
1382,-139,11,994,-26,-7,-4
1383,-77,-27,955,-32,-22,-9
1384,129,-71,969,-40,-29,-11
1385,152,-96,972,-15,-4,-6
1386,105,-58,1009,-14,15,-6
1387,-14,36,936,-12,26,0
1388,-121,46,923,-15,17,3
1389,-155,8,913,-25,-2,-6
1390,-59,-65,960,-31,-21,-4
1391,75,-125,1009,-11,-21,-14
1392,41,61,947,7,5,-20
1393,155,-18,575,35,36,-10
1394,77,3,507,10,26,6
1395,-70,-33,428,40,7,2
1396,-158,110,435,-22,3,6
1397,-144,17,319,-47,-14,-7
1398,55,-85,608,-39,-18,-10
1399,105,-87,685,-12,-12,-8
1400,167,-58,867,-19,-19,-7
1401,80,-83,953,-18,17,-1
1402,-207,145,1039,-63,34,-4
1403,-76,-213,478,54,-94,-4
1404,9,91,443,-86,20,-2
1405,6,59,34,-522,-211,31
1406,66,-265,88,108,44,-66
1407,98,-143,186,-166,-3,3
1408,56,-57,392,36,19,-18
1409,-61,107,481,-7,10,11
1410,-149,-56,597,8,37,-20
1411,-143,-5,751,-192,11,17
1412,-41,-142,720,143,-8,-29
1413,-51,145,423,1,-59,-36
1414,-131,-93,555,-295,-17,13
1415,-49,-90,156,373,42,22
1416,-82,93,-48,-403,-69,-58
1417,-178,-167,115,-2,39,-19
1418,-203,-16,-7,195,27,-35
1419,-162,10,158,-411,-49,-4
1420,4,135,131,369,8,-16
1421,251,-8,582,-152,-44,-17
1422,180,-13,827,-103,5,-11
1423,120,-9,747,196,46,6
1424,-32,-134,492,-209,16,22
1425,-229,-148,231,291,103,-109
1426,-348,172,360,-137,42,-5
1427,-130,344,416,-32,29,-25
1428,-99,-254,62,-121,-49,-44
1429,201,161,43,-62,-26,-11
1430,215,64,131,-162,18,19
1431,-102,-3,224,85,68,24
1432,-251,173,431,35,51,-74
1433,-230,111,288,-44,-4,91
1434,46,-180,463,-36,-25,-48
1435,-27,-116,463,-25,-6,-10
1436,216,168,753,38,-5,58
1437,191,-166,550,24,16,37
1438,27,-26,280,-97,58,19
1439,-102,28,207,-48,63,-20
1440,-78,-44,200,-204,-82,109
1441,-125,103,277,-24,-63,-23
1442,148,-231,60,-20,-7,-18
1443,232,-2,417,-8,12,4
1444,184,-28,177,11,5,3
1445,-34,-2,704,-1,23,11
1446,-276,4,866,-67,24,-22
1447,14,-164,337,111,36,-82
1448,71,8,384,-72,-57,53
1449,11,88,511,120,-23,-85
1450,134,-308,154,-61,19,-8
1451,71,19,423,29,23,23
1452,-53,35,531,29,38,-1
1453,-158,55,551,-55,25,-8
1454,-147,13,422,14,25,31
1455,-85,-112,337,-30,-8,-4
1456,-23,-107,398,-8,-44,-15
1457,120,-59,521,49,-25,-6
1458,114,38,531,-15,18,-5
1459,71,42,541,-6,35,-5
1460,-75,57,691,-4,24,-1
1461,-169,-2,821,-58,1,0
1462,-144,-57,964,-11,-7,-6
1463,9,-121,927,-26,-25,-10
1464,113,-104,838,-14,-19,-9
1465,170,-40,862,16,1,-9
1466,76,36,901,-7,26,-2
1467,-63,71,915,-3,31,1
1468,-158,44,954,-26,8,0
1469,-146,-19,956,-38,-13,-4
1470,-22,-101,932,-25,-23,-8
1471,103,-118,975,-19,-17,-9
1472,174,-75,998,-3,-2,-9
1473,95,-4,1004,7,17,-2
1474,-44,55,1012,-7,24,1
1475,-163,68,980,-14,17,1
1476,-156,15,997,-29,-5,-3
1477,-47,-70,997,-36,-23,-8
1478,101,-107,1002,-22,-20,-11
1479,168,-97,995,-10,-4,-10
1480,109,-34,1002,3,15,-2
1481,-23,31,1006,1,22,0
1482,-146,64,994,-14,17,1
1483,-162,26,997,-25,0,-3
1484,-73,-39,992,-32,-16,-8
1485,86,-88,1006,-27,-25,-10
1486,157,-98,1003,-12,-12,-10
1487,130,-57,1003,-3,10,-5
1488,0,16,992,-1,26,-1
1489,-127,53,992,-9,22,1
1490,-165,29,994,-23,1,-1
1491,-88,-17,987,-31,-16,-6
1492,64,-78,1004,-28,-23,-11
1493,143,-97,1002,-15,-13,-11
1494,141,-60,996,-3,5,-6
1495,22,2,1007,-2,22,-2
1496,-105,42,1006,-10,24,1
1497,-163,36,978,-20,10,-1
1498,-104,-5,984,-28,-12,-5
1499,28,-70,1008,-26,-27,-9
1500,130,-93,999,-19,-18,-10
1501,154,-66,1000,-8,3,-7
1502,46,-6,1006,-1,22,-1
1503,-79,28,1003,-5,25,0
1504,-152,44,983,-18,10,-1
1505,-122,1,998,-26,-8,-5
1506,-4,-59,996,-28,-24,-10
1507,117,-89,992,-18,-21,-9
1508,154,-72,1002,-6,-4,-8
1509,77,-25,1007,-4,18,-2
1510,-46,26,1002,-6,27,0
1511,-149,45,984,-17,17,0
1512,-132,6,995,-23,-6,-5
1513,-42,-51,996,-28,-22,-9
1514,101,-79,1006,-22,-21,-11
1515,149,-80,1001,-11,-6,-7
1516,102,-32,1001,0,14,-4
1517,-14,18,995,-4,24,0
1518,-134,45,993,-14,20,2
1519,-144,12,994,-24,1,-3
1520,-73,-37,986,-30,-19,-7
1521,72,-77,1003,-21,-26,-10
1522,140,-88,1008,-13,-11,-9
1523,126,-47,1007,-5,10,-4
1524,17,13,997,-3,25,0
1525,-112,41,998,-12,21,2
1526,-152,22,985,-22,3,-3
1527,-96,-21,988,-29,-16,-7
1528,43,-78,1005,-25,-24,-10
1529,125,-90,1004,-14,-14,-10
1530,144,-54,1001,-3,4,-7
1531,40,3,1004,-3,23,-3
1532,-84,36,1008,-8,25,0
1533,-154,35,974,-19,7,-1
1534,-113,-8,993,-28,-13,-5
1535,7,-70,999,-27,-25,-9
1536,116,-90,997,-19,-17,-10
1537,157,-66,1003,-7,-1,-8
1538,65,-11,1004,-1,18,-2
1539,-55,33,1005,-8,23,0
1540,-151,40,976,-17,14,1
1541,-131,5,1001,-24,-7,-4
1542,-27,-62,996,-29,-24,-8
1543,104,-83,1003,-19,-22,-10
1544,158,-82,998,-12,-5,-8
1545,90,-30,999,-1,17,-3
1546,-28,23,1002,-4,24,-1
1547,-140,49,988,-16,17,0
1548,-143,12,997,-24,-3,-3
1549,-59,-45,990,-29,-19,-9
1550,86,-79,1009,-23,-23,-10
1551,149,-87,1002,-12,-9,-9
1552,116,-44,1005,-5,12,-4
1553,0,13,992,-5,24,-1
1554,-124,47,989,-10,21,2
1555,-154,20,996,-23,1,-2
1556,-85,-25,989,-29,-17,-7
1557,64,-75,1008,-24,-24,-10
1558,136,-91,1002,-14,-11,-9
1559,136,-53,1001,-3,7,-6
1560,27,6,1001,-2,21,-1
1561,-106,38,1002,-10,23,2
1562,-155,28,977,-19,7,-2
1563,-103,-13,988,-27,-13,-5
1564,29,-70,1006,-25,-27,-10
1565,127,-91,1004,-18,-16,-10
1566,150,-60,1001,-7,3,-7
1567,49,-5,1003,-2,22,-3
1568,-78,35,1006,-7,23,0
1569,-153,38,978,-20,10,0
1570,-121,-4,999,-25,-8,-5
1571,0,-67,992,-27,-22,-9
1572,116,-90,996,-19,-19,-11
1573,155,-67,1001,-7,-4,-7
1574,72,-20,1005,-3,17,-2
1575,-47,27,1005,-8,26,-1
1576,-151,42,978,-17,15,1
1577,-134,8,996,-24,-7,-4
1578,-39,-58,1000,-30,-22,-9
1579,91,-27,992,-23,-20,-10
1580,134,-81,939,27,15,-8
1581,105,-47,992,42,15,5
1582,-2,33,998,14,23,9
1583,-130,23,957,-32,21,9
1584,-131,-6,955,-28,1,0
1585,-72,-41,990,-34,-21,0
1586,86,-97,962,-41,-33,-11
1587,139,-133,1013,-11,-7,-16
1588,29,94,835,82,10,8
1589,73,126,922,183,6,-33
1590,-97,9,772,198,69,-13
1591,-61,-29,476,146,24,32
1592,-128,49,576,-57,-37,-9
1593,-4,-78,510,41,-12,-26
1594,115,-64,460,128,19,1
1595,152,-32,359,-61,1,2
1596,96,-42,613,30,24,3
1597,-74,-83,536,21,28,0
1598,-286,217,572,-23,-10,29
1599,-66,127,620,-142,-50,-16
1600,-25,-76,207,-17,-13,-13
1601,146,-61,181,-58,-39,-27
1602,165,92,110,14,32,1
1603,103,3,296,37,26,-3
1604,-46,39,118,-57,11,6
1605,-242,61,346,265,73,-7
1606,50,177,601,-109,118,6
1607,-74,28,573,227,32,-3
1608,117,57,142,269,108,-1
1609,41,-160,139,-178,-73,-8
1610,78,115,-42,303,53,-4
1611,1,-68,231,-67,40,27
1612,-176,37,347,-39,35,-60
1613,-216,-48,209,251,38,-56
1614,-174,-104,130,-4,-29,-71
1615,133,115,160,61,-85,-7
1616,121,66,409,-121,-40,-63
1617,102,-182,135,-73,78,-24
1618,-12,55,159,60,49,24
1619,-134,43,63,-101,-37,10
1620,-258,9,310,-116,-15,-9
1621,-170,23,421,31,14,-17
1622,115,-56,580,-49,-38,-29
1623,212,-67,687,-25,-37,-15
1624,294,-118,739,38,-8,-8
1625,69,-102,716,-43,54,5
1626,-238,69,458,-51,76,-17
1627,-247,96,431,-379,-55,73
1628,-198,139,272,68,-37,7
1629,81,25,20,-80,-32,-39
1630,60,-86,131,7,-8,19
1631,210,151,212,23,26,13
1632,89,-100,200,-30,31,2
1633,-120,173,397,11,56,-26
1634,-205,-7,543,-221,5,53
1635,-71,-62,583,-5,-32,45
1636,48,41,751,-119,-58,-44
1637,151,-212,535,-81,-36,27
1638,217,107,625,66,30,21
1639,61,-92,524,-73,47,-15
1640,-202,195,756,21,12,6
1641,-147,-27,502,21,-14,-21
1642,-126,-55,462,23,8,29
1643,16,80,378,-56,-37,-21
1644,194,-215,557,-37,-2,-28
1645,142,-33,737,58,10,22
1646,92,0,817,-15,21,-10
1647,-78,-26,928,14,31,-11
1648,-192,129,833,14,2,16
1649,-162,34,787,-62,-6,-13
1650,-32,-69,888,-15,-7,-11
1651,149,-100,990,-29,-27,3
1652,172,-108,998,-19,-9,-18
1653,91,-86,1020,19,15,-2
1654,-37,61,986,-12,26,6
1655,-163,48,964,-3,27,-3
1656,-154,49,988,-18,-8,-4
1657,-54,-22,1006,-47,-28,-6
1658,80,-77,1001,-18,-19,-12
1659,153,-109,1019,-21,-8,-8
1660,128,-62,992,-3,7,-5
1661,4,-5,991,4,22,-2
1662,-116,43,1015,-13,22,0
1663,-164,39,974,-14,10,-2
1664,-92,0,980,-26,-16,-7
1665,48,-68,1023,-31,-31,-10
1666,127,-94,1003,-17,-16,-9
1667,147,-70,993,-12,8,-6
1668,33,-12,1007,-1,24,-1
1669,-89,31,999,-4,21,0
1670,-149,33,982,-19,4,-2
1671,-115,5,999,-23,-10,-5
1672,5,-59,997,-26,-21,-10
1673,118,-81,998,-18,-19,-11
1674,151,-70,1001,-9,-2,-7
1675,70,-21,1009,-5,19,-3
1676,-52,18,1000,-7,27,-1
1677,-153,43,976,-15,14,0
1678,-130,7,999,-24,-11,-5
1679,-38,-55,1002,-26,-25,-9
1680,106,-79,1000,-21,-20,-10
1681,154,-76,1004,-10,-2,-8
1682,99,-30,995,-2,16,-3
1683,-22,16,1001,-6,22,-1
1684,-137,41,988,-15,17,1
1685,-145,9,995,-24,-1,-3
1686,-69,-43,989,-28,-19,-7
1687,76,-75,1007,-21,-25,-10
1688,152,-81,1005,-11,-11,-9
1689,121,-45,1005,0,15,-5
1690,11,17,990,5,28,-1
1691,-124,44,992,-13,21,2
1692,-158,15,991,-24,0,-1
1693,-92,-31,990,-27,-16,-6
1694,54,-73,1007,-24,-23,-9
1695,137,-86,1005,-14,-12,-9
1696,141,-46,999,-2,5,-6
1697,34,5,1002,-4,21,-2
1698,-99,37,1007,-10,24,1
1699,-159,27,978,-21,8,-2
1700,-112,-12,985,-28,-13,-6
1701,22,-75,1007,-26,-25,-9
1702,127,-94,1000,-18,-16,-10
1703,155,-59,1003,-6,3,-7
1704,55,-4,1003,-3,20,-1
1705,-75,34,1005,-6,23,0
1706,-156,37,981,-21,10,0
1707,-126,-1,999,-27,-9,-6
1708,-7,-71,995,-29,-22,-9
1709,116,-88,995,-17,-21,-9
1710,160,-69,1002,-6,-5,-8
1711,78,-16,1010,0,17,-3
1712,-46,30,1002,-6,26,0
1713,-153,45,980,-16,16,1
1714,-139,5,999,-27,-6,-4
1715,-41,-59,996,-28,-23,-9
1716,100,-84,1004,-20,-23,-11
1717,158,-80,998,-10,-7,-9
1718,103,-31,999,-1,14,-3
1719,-20,24,997,-4,24,-1
1720,-137,48,994,-13,20,0
1721,-148,13,994,-25,1,-2
1722,-69,-41,988,-28,-18,-9
1723,79,-78,1003,-23,-25,-10
1724,147,-87,1005,-11,-12,-8
1725,124,-48,1006,-3,10,-5
1726,8,15,990,-2,24,0
1727,-120,47,991,-10,21,2
1728,-156,23,992,-22,2,-3
1729,-92,-24,990,-29,-16,-6
1730,56,-74,1002,-28,-24,-11
1731,134,-94,1007,-15,-12,-10
1732,142,-53,1000,-1,6,-5
1733,34,4,1004,-3,23,-2
1734,-99,38,1004,-10,24,0
1735,-158,32,978,-21,8,-2
1736,-105,-10,984,-28,-12,-6
1737,19,-70,1007,-25,-27,-11
1738,128,-92,1000,-17,-20,-11
1739,153,-61,1001,-7,2,-6
1740,55,-5,1004,-3,22,-2
1741,-71,30,1005,-8,24,0
1742,-158,40,980,-19,11,0
1743,-122,-1,998,-28,-10,-6
1744,-7,-65,996,-27,-25,-11
1745,114,-88,993,-19,-21,-9
1746,158,-68,1004,-7,-4,-8
1747,75,-17,1011,-4,19,-2
1748,-45,24,1002,-6,25,0
1749,-151,42,982,-16,16,0
1750,-143,7,996,-26,-7,-4
1751,-41,-54,998,-28,-22,-8
1752,98,-80,1008,-20,-22,-10
1753,158,-80,996,-12,-7,-9
1754,104,-35,1000,-3,14,-4
1755,-19,20,1000,-5,25,0
1756,-138,46,990,-15,19,1
1757,-149,12,998,-23,0,-2
1758,-71,-43,985,-27,-19,-7
1759,79,-74,1006,-21,-27,-10
1760,153,-86,1009,-13,-12,-9
1761,124,-45,1001,-4,11,-5
1762,10,15,993,-3,26,-1
1763,-123,43,991,-11,22,2
1764,-158,21,989,-21,1,-2
1765,-94,-23,991,-29,-16,-7
1766,52,-73,1004,-24,-24,-10
1767,138,-89,1003,-15,-13,-10
1768,144,-51,1004,-5,6,-5
1769,32,7,1002,-2,22,-1
1770,-98,35,1005,-10,24,1
1771,-161,30,979,-20,9,-2
1772,-109,-13,979,-28,-13,-5
1773,20,-73,1009,-25,-26,-10
1774,125,-91,1002,-18,-18,-9
1775,158,-58,999,-6,2,-7
1776,57,-1,1008,-2,22,-2
1777,-76,34,1003,-7,25,1
1778,-153,41,980,-19,11,-2
1779,-129,-6,998,-28,-9,-5
1780,-8,-65,995,-28,-23,-10
1781,48,-49,1006,-19,-19,-9
1782,213,-98,923,-25,-15,-11
1783,76,-5,901,5,24,3
1784,-10,7,965,-15,26,0
1785,-120,-1,584,-24,26,5
1786,-140,-60,957,32,5,-8
1787,-174,37,847,-116,-20,2
1788,90,27,890,-240,-51,50
1789,113,-127,723,-197,-24,39
1790,60,48,413,-23,23,56
1791,-50,23,259,-18,24,52
1792,-77,69,196,-142,12,36
1793,-68,4,329,-55,14,13
1794,-93,-159,485,-38,2,-8
1795,-145,61,300,0,-35,-5
1796,190,24,487,-31,-81,-3
1797,-146,51,173,-14,17,4
1798,129,-50,253,-37,12,-18
1799,-133,-17,192,-53,53,10
1800,-125,27,461,38,1,-4
1801,-130,-134,140,-47,-29,-2
1802,-238,-6,291,-59,-44,-6
1803,177,153,19,224,-14,-87
1804,98,-62,43,-230,-77,57
1805,207,84,170,-42,-73,-5
1806,40,-57,285,-149,30,6
1807,-25,118,163,45,73,15
1808,-117,-115,312,53,25,-3
1809,-180,-137,464,-26,-63,-9
1810,-85,-99,118,216,65,-10
1811,105,296,354,286,8,61
1812,-77,-125,108,-193,23,46
1813,28,-128,161,391,148,16
1814,-137,38,-107,-253,-46,49
1815,-193,-33,72,-180,-65,7
1816,-212,28,434,133,24,-29
1817,-57,33,728,-257,6,-3
1818,211,-47,909,173,-22,-22
1819,161,-6,752,-31,-55,-8
1820,137,-37,735,-108,11,9
1821,-43,38,732,144,104,7
1822,-153,-102,580,-156,23,20
1823,-322,-5,561,172,-47,-4
1824,-3,93,472,444,-20,-114
1825,171,237,251,-171,-49,31
1826,88,103,183,9,25,-42
1827,38,-201,-13,82,64,-1
1828,-9,111,83,-105,-49,18
1829,-100,-107,-32,6,36,10
1830,-321,-60,86,49,61,6
1831,-12,-85,497,-282,-8,-96
1832,71,-15,261,190,-37,93
1833,59,159,727,53,12,12
1834,173,-128,583,-90,28,0
1835,-98,137,196,31,47,46
1836,-130,22,189,-86,15,15
1837,-181,-107,302,-47,15,9
1838,-201,145,312,4,-2,10
1839,163,-136,316,-138,-62,-41
1840,146,-119,366,-29,-42,71
1841,134,138,297,39,9,-16
1842,-5,-97,242,-77,61,6
1843,-153,176,394,9,53,29
1844,-114,-64,418,-50,31,4
1845,-133,-137,557,-27,-32,-4
1846,19,-21,771,-15,-57,-3
1847,71,-97,554,-7,-14,-86
1848,247,-57,479,147,63,-1
1849,169,34,657,-37,-3,-14
1850,-154,30,741,26,39,-49
1851,-211,-13,552,4,26,15
1852,-145,53,225,-52,-20,13
1853,17,-159,164,11,-24,-45
1854,148,-128,339,14,-42,0
1855,205,28,419,-32,4,8
1856,42,-16,602,36,67,-6
1857,-84,41,658,-19,27,9
1858,-192,33,668,-27,-8,-1
1859,-197,-14,734,-13,-18,-7
1860,29,-59,820,-56,-29,-8
1861,176,-77,869,9,-5,-14
1862,194,-82,867,-11,-1,-5
1863,81,-1,839,-15,12,0
1864,-125,33,788,7,41,4
1865,-205,24,827,-27,18,1
1866,-152,-14,956,-17,-19,-7
1867,34,-64,991,-21,-37,-13
1868,174,-80,977,-28,-21,-10
1869,182,-57,952,3,13,-7
1870,62,-7,946,-9,24,-1
1871,-112,30,979,-16,20,2
1872,-203,21,1003,-16,9,-1
1873,-149,-13,976,-32,-8,-7
1874,29,-63,999,-16,-25,-12
1875,155,-82,1017,-17,-25,-10
1876,184,-56,1012,-13,-3,-6
1877,69,-4,997,-2,27,-2
1878,-108,37,1006,-10,32,4
1879,-189,25,983,-19,11,-1
1880,-143,-15,992,-28,-13,-6
1881,16,-67,1004,-28,-28,-12
1882,141,-90,1004,-13,-19,-12
1883,181,-57,997,-4,-2,-8
1884,74,-2,1007,-3,19,-2
1885,-82,32,1015,-8,29,1
1886,-178,30,974,-20,18,-1
1887,-147,-2,982,-25,-7,-5
1888,-8,-71,1003,-26,-29,-11
1889,126,-90,999,-20,-26,-12
1890,179,-68,998,-6,-3,-8
1891,83,-6,1010,-2,22,-2
1892,-58,32,1007,-7,27,2
1893,-163,41,981,-18,17,1
1894,-151,0,1000,-27,-5,-4
1895,-34,-63,992,-29,-23,-8
1896,112,-91,998,-18,-25,-10
1897,170,-73,1000,-8,-10,-9
1898,107,-27,1006,-3,16,-3
1899,-30,25,1004,-5,29,-1
1900,-151,51,985,-17,21,2
1901,-154,11,996,-25,-3,-3
1902,-64,-51,990,-31,-22,-8
1903,91,-85,1007,-22,-25,-11
1904,162,-84,998,-12,-9,-9
1905,119,-41,1002,-2,13,-4
1906,-1,21,997,-3,24,-1
1907,-132,49,991,-13,23,2
1908,-159,18,994,-23,4,-3
1909,-89,-32,983,-28,-19,-7
1910,67,-78,1005,-23,-27,-9
1911,147,-91,1009,-14,-13,-10
1912,140,-53,1005,-3,10,-5
1913,26,12,999,-3,26,-2
1914,-109,41,997,-10,23,1
1915,-164,23,983,-21,5,-3
1916,-104,-18,990,-27,-15,-8
1917,37,-74,1004,-25,-25,-10
1918,131,-91,1003,-16,-16,-10
1919,151,-57,1000,-6,4,-6
1920,50,3,1007,-3,23,-2
1921,-88,36,1006,-8,27,1
1922,-161,34,978,-20,9,-1
1923,-119,-8,984,-27,-12,-5
1924,4,-71,1005,-26,-26,-9
1925,122,-91,1002,-18,-19,-10
1926,161,-62,1001,-8,1,-7
1927,67,-7,1006,-2,20,-2
1928,-60,32,1007,-7,24,0
1929,-157,41,978,-19,14,0
1930,-133,1,999,-26,-8,-4
1931,-22,-65,995,-29,-24,-9
1932,109,-89,994,-18,-22,-10
1933,162,-74,1002,-8,-5,-9
1934,92,-21,1006,-3,18,-2
1935,-34,25,1001,-5,27,-1
1936,-147,47,978,-16,16,0
1937,-148,11,998,-24,-5,-4
1938,-52,-51,997,-31,-22,-8
1939,90,-86,1004,-21,-21,-9
1940,161,-84,998,-11,-6,-9
1941,113,-38,998,-1,12,-5
1942,-9,19,996,-2,24,-1
1943,-136,47,995,-14,20,3
1944,-155,15,994,-24,1,-3
1945,-84,-37,986,-28,-18,-7
1946,73,-77,1006,-23,-26,-10
1947,148,-89,1009,-14,-12,-10
1948,132,-51,1005,-4,11,-5
1949,16,12,993,-2,25,-1
1950,-117,45,993,-10,23,2
1951,-164,22,992,-22,3,-1
1952,-102,-21,987,-29,-15,-7
1953,46,-76,1007,-25,-25,-9
1954,133,-91,1001,-15,-14,-9
1955,153,-53,1001,-4,4,-6
1956,41,5,1005,-2,23,-1
1957,-98,40,1003,-9,25,1
1958,-161,31,976,-21,8,-2
1959,-117,-8,985,-28,-14,-5
1960,17,-70,1002,-26,-26,-9
1961,127,-97,1003,-16,-18,-10
1962,159,-62,1001,-6,0,-7
1963,61,-5,1003,-2,20,-3
1964,-73,34,1006,-7,24,1
1965,-158,45,980,-18,11,0
1966,-130,0,999,-28,-8,-4
1967,-14,-63,994,-29,-23,-10
1968,117,-91,996,-20,-20,-11
1969,164,-72,1002,-7,-4,-10
1970,81,-16,1006,-2,19,-3
1971,-41,29,1003,-7,25,-1
1972,-155,47,982,-15,17,1
1973,-142,12,996,-26,-5,-3
1974,-44,-60,997,-29,-22,-9
1975,100,-88,1004,-21,-22,-11
1976,164,-83,993,-11,-6,-10
1977,105,-35,1002,-1,14,-4
1978,-14,25,1000,-4,24,0
1979,-143,54,993,-14,21,2
1980,-198,50,961,-22,-1,1
1981,-35,-55,680,-46,-27,-12
1982,75,-84,813,-5,-18,-5
1983,177,-81,823,3,-15,-4
1984,122,-72,585,-27,9,3
1985,23,-28,817,35,35,-6
1986,-134,9,582,-8,28,0
1987,-257,143,561,17,0,16
1988,-121,2,487,-165,-116,-8
1989,15,-105,599,-311,-84,-26
1990,101,-28,528,-347,-107,-13
1991,64,9,438,-200,-37,-57
1992,27,-25,262,-172,17,-62
1993,-59,-17,594,118,50,-35
1994,-179,12,716,39,3,-14
1995,-108,-80,815,9,-5,-18
1996,-132,204,781,113,8,65
1997,179,-4,704,202,24,119
1998,-29,-23,344,140,59,116
1999,119,15,234,-37,16,62
2000,-20,51,293,-11,51,27
2001,-68,89,418,-3,34,-3
2002,-74,-17,353,-15,-8,8
2003,-182,-1,232,63,-32,-15
2004,1,23,306,36,6,-8
2005,19,-24,272,48,34,0
2006,45,14,-16,104,70,-14
2007,-10,-252,344,-22,-1,12
2008,-152,143,287,47,-42,17
2009,-120,-167,179,-32,30,-1
2010,-305,-66,78,-230,63,-32
2011,230,4,280,-298,-194,25
2012,-36,-145,192,257,39,-82
2013,123,14,64,-111,8,11
2014,13,74,196,122,55,1
2015,-91,161,149,66,69,18
2016,-141,-13,237,-24,-24,6
2017,-131,-136,287,-49,-17,5
2018,68,-147,481,138,-13,-12
2019,-71,182,316,-18,-1,-8
2020,4,-79,305,218,45,24
2021,-46,194,196,215,63,106
2022,-124,-85,88,-91,103,76
2023,-154,-53,-144,306,42,57
2024,-193,-96,167,-443,-53,56
2025,-75,-129,336,167,27,4
2026,61,-27,523,-76,-53,-18
2027,255,7,811,-255,-33,12
2028,176,-78,718,273,44,-3
2029,-116,61,550,-157,16,-11
2030,-115,-76,357,208,45,-106
2031,-225,-41,467,-61,11,71
2032,-46,97,240,17,-31,-72
2033,107,-249,226,4,-55,3
2034,253,40,181,3,-13,-6
2035,93,-128,244,-36,50,13
2036,-90,301,269,-25,49,-70
2037,-135,-56,695,26,5,66
2038,-232,176,199,28,-3,-4
2039,59,-97,299,-5,0,-34
2040,77,-217,130,-3,-7,0
2041,148,21,325,22,-4,17
2042,-93,18,250,3,31,-23
2043,-35,44,483,-7,22,-79
2044,-19,-96,176,5,17,42
2045,-107,209,188,112,-5,-48
2046,9,-192,114,-142,-26,-26
2047,56,-62,445,214,25,23
2048,121,8,321,-21,-7,-9
2049,-27,-25,423,-28,7,-32
2050,34,71,530,121,30,-27
2051,-16,-51,729,98,46,-5
2052,-92,77,752,-27,-7,-29
2053,-85,-116,549,-51,-34,-17
2054,4,-33,469,32,1,12
2055,116,-110,488,-45,9,-9
2056,108,-70,442,25,13,-18
2057,20,18,622,24,-2,10
2058,-105,110,886,-28,12,0
2059,-121,1,883,2,24,-9
2060,-92,0,757,-35,-9,-2
2061,35,-92,707,-42,-33,-11
2062,122,-112,726,0,-14,-13
2063,118,-68,875,-17,12,-1
2064,39,3,943,9,27,-4
2065,-88,44,944,-6,17,1
2066,-138,46,883,-27,-2,-1
2067,-109,-6,879,-17,-6,-5
2068,28,-59,952,-31,-17,-11
2069,115,-99,982,-19,-18,-9
2070,141,-75,995,-4,-6,-7
2071,51,-8,1014,-11,19,-2
2072,-74,26,1005,-2,30,1
2073,-155,46,955,-18,12,1
2074,-114,6,996,-28,-14,-6
2075,4,-60,1006,-25,-24,-9
2076,113,-88,991,-22,-16,-10
2077,149,-67,1010,-8,0,-8
2078,67,-21,1004,-2,17,-2
2079,-57,23,1009,-9,22,0
2080,-146,35,988,-15,15,0
2081,-131,8,998,-24,-4,-4
2082,-22,-52,995,-26,-24,-10
2083,100,-82,1002,-19,-26,-11
2084,159,-71,1001,-11,-6,-9
2085,88,-29,1006,-3,20,-3
2086,-34,22,999,-6,28,1
2087,-144,39,983,-15,15,1
2088,-142,6,993,-21,-5,-5
2089,-55,-50,993,-28,-20,-8
2090,90,-75,1005,-22,-22,-10
2091,153,-76,1001,-12,-9,-9
2092,110,-37,995,-4,12,-4
2093,-11,14,1007,-6,26,-1
2094,-130,44,988,-16,22,1
2095,-154,9,992,-23,2,-3
2096,-80,-40,985,-28,-21,-6
2097,66,-77,1003,-22,-26,-11
2098,147,-82,1011,-13,-12,-10
2099,133,-43,1010,-5,10,-5
2100,21,16,995,-3,24,-2
2101,-113,40,993,-11,21,1
2102,-161,19,989,-23,3,-3
2103,-97,-27,987,-27,-15,-6
2104,39,-71,1008,-24,-25,-10
2105,133,-88,998,-15,-15,-9
2106,151,-54,1005,-4,4,-6
2107,42,5,1004,-4,24,-3
2108,-89,34,1007,-11,28,2
2109,-163,29,978,-21,8,-2
2110,-120,-5,985,-28,-13,-5
2111,12,-74,1001,-27,-27,-9
2112,123,-89,1007,-18,-17,-10
2113,161,-64,994,-8,1,-7
2114,63,-6,1008,-1,21,-3
2115,-64,27,1006,-6,24,1
2116,-159,41,976,-18,14,0
2117,-131,0,1000,-27,-7,-5
2118,-21,-61,996,-28,-24,-8
2119,115,-87,993,-19,-22,-12
2120,163,-75,1004,-8,-4,-8
2121,89,-23,1008,-4,18,-3
2122,-36,25,1001,-5,26,-1
2123,-154,46,979,-15,16,1
2124,-149,10,998,-25,-7,-4
2125,-50,-52,997,-30,-21,-8
2126,95,-82,1006,-22,-21,-11
2127,163,-79,998,-10,-7,-9
2128,113,-40,998,-2,14,-3
2129,-15,22,998,-5,25,0
2130,-136,47,992,-15,20,2
2131,-156,12,995,-24,-1,-4
2132,-79,-38,983,-29,-20,-8
2133,76,-77,1006,-23,-24,-10
2134,150,-89,1013,-13,-11,-10
2135,133,-47,1000,-6,9,-5
2136,15,18,996,-3,25,-2
2137,-120,41,996,-11,21,0
2138,-160,22,986,-24,2,-1
2139,-100,-24,991,-29,-14,-7
2140,46,-76,1004,-26,-24,-9
2141,136,-93,1003,-15,-14,-10
2142,148,-53,999,-3,4,-5
2143,41,8,1009,-4,20,-2
2144,-91,35,1006,-9,25,1
2145,-166,35,975,-21,10,0
2146,-112,-8,987,-29,-13,-6
2147,11,-79,1004,-26,-25,-9
2148,129,-91,1000,-18,-17,-9
2149,159,-69,1002,-7,1,-7
2150,57,-3,1002,-1,20,-2
2151,-65,33,1007,-7,24,0
2152,-157,45,981,-20,13,0
2153,-131,1,1000,-27,-7,-4
2154,-16,-63,996,-28,-24,-9
2155,113,-91,995,-18,-22,-10
2156,161,-76,1002,-8,-5,-8
2157,83,-24,1004,-4,18,-3
2158,-37,27,1003,-5,26,-1
2159,-150,46,982,-16,17,2
2160,-143,14,995,-26,-5,-3
2161,-50,-56,1001,-29,-22,-8
2162,98,-82,1001,-24,-22,-10
2163,155,-83,1001,-12,-7,-9
2164,110,-39,999,-2,12,-5
2165,-15,23,997,-3,24,0
2166,-132,49,989,-13,20,2
2167,-158,14,999,-23,1,-3
2168,-73,-36,984,-29,-20,-8
2169,72,-77,1002,-23,-25,-11
2170,148,-91,1015,-15,-10,-11
2171,130,-50,1001,-5,11,-4
2172,17,12,995,-2,25,-1
2173,-116,43,996,-10,22,2
2174,-160,24,985,-21,6,-2
2175,-94,-20,989,-29,-14,-7
2176,45,-75,1007,-27,-24,-9
2177,133,-89,997,-15,-14,-9
2178,147,-55,1003,-6,4,-6
2179,37,4,1004,-3,22,-2
2180,-92,34,1007,-9,25,-1
2181,-158,34,976,-21,9,-2
2182,-114,-9,986,-27,-12,-5
2183,12,-69,1004,-25,-25,-10
2184,124,-95,999,-18,-17,-11
2185,156,-59,1002,-5,1,-7
2186,64,-6,1003,-1,20,-2
2187,-65,31,1009,-7,24,1
2188,-151,39,978,-18,13,1
2189,-132,0,999,-27,-7,-3
2190,-21,-60,995,-29,-23,-9
2191,56,-23,753,78,-48,45
2192,210,-82,665,-58,-21,-18
2193,71,-28,938,36,3,26
2194,-1,9,902,-105,-28,-1
2195,-173,20,499,-12,9,-13
2196,-130,-11,449,-11,4,-14
2197,-45,-40,708,-44,-17,-4
2198,88,-44,964,3,-19,-13
2199,184,-149,944,-17,-11,-15
2200,5,119,990,96,51,4
2201,-72,41,870,41,46,54
2202,-61,231,375,-94,28,77
2203,-46,-22,57,-140,-86,35
2204,9,40,232,-340,-87,-29
2205,52,-27,359,197,60,-29
2206,147,-173,379,-120,-20,-18
2207,-36,113,134,-82,-32,-15
2208,-73,123,545,-291,51,66
2209,-182,-58,529,-559,-32,89
2210,-93,88,57,121,44,75
2211,-30,-78,98,-56,-41,40
2212,6,-8,168,-118,-18,23
2213,143,-188,255,118,37,-2
2214,-169,244,106,-191,-22,-5
2215,-18,-48,136,-66,-26,-8
2216,-46,-1,238,12,35,-22
2217,80,-48,43,-101,-12,-25
2218,-99,6,407,59,17,18
2219,74,-174,461,-55,-24,-18
2220,-5,-150,328,-288,7,-29
2221,168,-64,329,2,-83,46
2222,87,-133,197,-63,41,-76
2223,-16,63,-41,-366,-32,28
2224,-42,45,143,320,105,-17
2225,-116,94,186,-164,13,30
2226,-29,36,392,25,-50,-8
2227,81,9,210,102,18,4
2228,181,6,385,-103,-7,13
2229,75,3,748,64,50,-3
2230,-141,101,919,167,18,25
2231,-72,85,361,-186,80,49
2232,-90,172,296,531,110,167
2233,73,-47,-128,-263,-106,69
2234,74,-296,121,-124,46,53
2235,87,100,267,417,70,20
2236,12,-127,199,-547,-58,29
2237,-239,78,451,262,5,-48
2238,-21,62,266,-29,7,31
2239,-83,-58,120,-478,-28,30
2240,58,-96,210,466,48,-57
2241,-23,33,468,-333,-66,40
2242,-16,251,554,43,1,-3
2243,-3,-3,370,-6,38,-31
2244,48,140,399,-257,-35,53
2245,97,98,651,116,29,1
2246,-52,-121,495,-126,-29,-28
2247,-124,-16,217,-215,-40,33
2248,-159,61,129,231,36,-41
2249,96,-144,582,-42,6,-45
2250,283,-66,620,17,-50,82
2251,181,126,612,152,35,-27
2252,-95,-109,685,-183,55,7
2253,-189,264,605,104,38,27
2254,-116,-55,446,-94,34,73
2255,-81,-175,503,-225,-58,154
2256,209,4,460,-78,-53,36
2257,158,-255,517,-129,20,11
2258,78,82,884,-62,2,31
2259,-10,66,885,-51,17,10
2260,-205,66,669,-73,20,0
2261,-153,51,604,-42,-23,9
2262,-64,-62,654,-56,-30,-14
2263,86,-133,682,-57,-29,-10
2264,200,-95,761,9,-3,-6
2265,118,-55,758,-13,23,-8
2266,-11,17,700,-5,24,-2
2267,-149,85,782,-8,15,0
2268,-191,34,888,-36,1,-3
2269,-79,-23,948,-24,-21,-10
2270,89,-91,1017,-30,-28,-9
2271,165,-105,978,-22,-12,-10
2272,150,-74,969,1,12,-6
2273,1,7,960,-3,29,0
2274,-138,51,988,-7,21,3
2275,-168,40,998,-17,-1,-3
2276,-104,-13,986,-33,-18,-6
2277,65,-64,1000,-22,-23,-11
2278,148,-102,1012,-20,-13,-12
2279,148,-64,994,-7,5,-5
2280,33,-7,1006,-2,23,-3
2281,-115,28,1009,-9,27,0
2282,-174,39,972,-16,8,0
2283,-112,2,994,-25,-14,-6
2284,28,-63,1011,-29,-28,-10
2285,138,-87,1002,-18,-17,-10
2286,162,-69,1001,-10,4,-6
2287,47,-11,1006,-2,22,-1
2288,-79,26,1003,-8,23,1
2289,-165,32,979,-20,11,0
2290,-124,4,998,-26,-9,-6
2291,-3,-64,996,-27,-24,-10
2292,122,-83,995,-20,-21,-10
2293,161,-67,1003,-7,-4,-8
2294,76,-17,1005,-5,20,-2
2295,-52,22,1003,-7,28,0
2296,-156,44,977,-15,17,0
2297,-141,1,995,-25,-8,-5
2298,-36,-55,999,-26,-24,-10
2299,103,-79,1005,-21,-22,-10
2300,160,-74,997,-13,-5,-8
2301,98,-28,1001,-2,15,-4
2302,-23,20,998,-4,24,-1
2303,-141,45,991,-14,18,0
2304,-148,8,995,-25,0,-4
2305,-69,-43,985,-28,-21,-10
2306,80,-77,1006,-22,-25,-9
2307,148,-81,1009,-11,-11,-9
2308,122,-43,1005,-5,13,-4
2309,10,19,992,-4,25,-1
2310,-118,45,991,-12,21,2
2311,-155,19,990,-24,1,-3
2312,-91,-29,989,-29,-17,-7
2313,48,-78,1004,-26,-24,-9
2314,133,-89,1001,-14,-14,-9
2315,145,-50,1003,-3,4,-7
2316,37,11,1005,-4,22,-1
2317,-93,38,1006,-10,24,1
2318,-158,29,980,-22,9,0
2319,-111,-12,982,-28,-14,-4
2320,15,-78,1006,-26,-25,-10
2321,123,-93,1003,-17,-18,-10
2322,158,-61,998,-4,2,-6
2323,59,-2,1008,-2,21,-2
2324,-66,34,1008,-9,23,0
2325,-155,38,977,-19,12,0
2326,-127,-4,1000,-27,-9,-5
2327,-19,-70,996,-27,-24,-10
2328,112,-88,992,-18,-21,-9
2329,158,-72,1002,-6,-4,-7
2330,85,-16,1006,-1,18,-3
2331,-37,30,1002,-5,28,0
2332,-148,52,982,-16,15,1
2333,-139,6,995,-28,-7,-4
2334,-52,-57,996,-29,-20,-9
2335,94,-86,1005,-23,-22,-9
2336,154,-83,1001,-10,-7,-9
2337,105,-35,1000,-1,12,-2
2338,-10,23,999,-3,24,0
2339,-131,53,991,-15,20,1
2340,-153,16,996,-27,1,-1
2341,-77,-35,987,-30,-18,-7
2342,71,-85,1003,-24,-25,-10
2343,143,-89,1006,-14,-12,-9
2344,132,-49,1004,-4,9,-4
2345,21,12,997,-2,23,0
2346,-109,42,994,-11,21,1
2347,-161,29,984,-21,4,-1
2348,-95,-20,987,-27,-15,-8
2349,37,-77,1004,-27,-24,-9
2350,128,-92,1000,-15,-16,-10
2351,151,-56,1006,-5,3,-6
2352,40,2,1002,-2,22,-2
2353,-85,39,1006,-8,25,-1
2354,-154,30,978,-20,9,-1
2355,-119,-7,989,-27,-12,-5
2356,10,-72,1002,-27,-24,-9
2357,117,-91,999,-18,-18,-10
2358,153,-65,998,-7,-1,-8
2359,64,-11,1009,-3,19,-2
2360,-58,29,1004,-8,24,1
2361,-152,44,978,-17,13,1
2362,-128,1,1001,-27,-7,-5
2363,-27,-64,996,-28,-24,-9
2364,106,-84,999,-19,-22,-9
2365,160,-75,998,-9,-4,-9
2366,89,-27,1001,-6,17,-2
2367,-26,25,1000,6,29,1
2368,-140,49,987,-15,23,3
2369,-142,11,1000,-26,-2,-2
2370,-58,-48,989,-27,-18,-8
2371,88,-80,1004,-22,-23,-9
2372,153,-87,1003,-11,-8,-8
2373,113,-40,1004,-3,11,-4
2374,1,17,992,-4,25,-2
2375,-129,46,992,-12,23,1
2376,-148,19,992,-23,0,-4
2377,-84,-32,988,-28,-18,-6
2378,62,-77,1004,-24,-25,-10
2379,137,-91,1003,-12,-12,-10
2380,134,-48,1002,-3,6,-5
2381,23,8,1001,-1,23,-1
2382,-102,38,1007,-12,23,1
2383,-154,29,977,-22,7,-1
2384,-106,-13,987,-28,-12,-5
2385,30,-75,1006,-27,-25,-11
2386,123,-96,1001,-15,-16,-10
2387,148,-56,999,-6,2,-6
2388,49,-5,1007,-2,22,-2
2389,-73,38,1001,-7,23,1
2390,-155,40,981,-19,9,1
2391,-119,-2,1002,-27,-10,-5
2392,-8,-70,992,-30,-23,-9
2393,117,-88,996,-18,-20,-11
2394,157,-74,1003,-6,-5,-8
2395,62,46,967,32,23,11
2396,-56,22,652,-29,-21,17
2397,-131,19,689,-130,6,-37
2398,-135,12,749,43,31,-19
2399,-33,-70,757,-127,-34,-7
2400,80,-95,751,35,-18,-10
2401,173,-93,707,-12,-4,-5
2402,103,-9,916,-41,13,6
2403,17,45,975,31,33,-4
2404,-134,-45,871,-55,15,-5
2405,-242,226,895,-85,-13,-12
2406,-125,-32,569,2,16,-32
2407,129,40,532,287,-9,-94
2408,63,-53,349,-96,-44,-26
2409,188,21,319,55,-47,-53
2410,6,56,169,-249,-45,-96
2411,-13,34,235,-262,-25,-28
2412,-146,-131,222,201,43,-41
2413,-208,125,362,-157,-47,-66
2414,-95,143,345,234,-61,-186
2415,-57,112,384,325,21,-118
2416,54,122,235,39,-64,-100
2417,62,192,169,31,-10,2
2418,-13,111,209,42,9,-20
2419,-158,-70,406,34,63,1
2420,-325,72,394,138,47,-15
2421,-46,-107,423,-9,-100,-19
2422,7,-158,519,118,-100,5
2423,74,101,155,-47,36,-8
2424,211,-107,197,-112,66,-15
2425,6,-40,250,53,-45,14
2426,-154,-111,612,-39,-29,7
2427,-122,-182,533,-277,-12,-3
2428,72,-21,454,109,21,-49
2429,-21,-34,59,-198,-240,34
2430,194,-96,148,-34,-50,-23
2431,247,14,33,5,41,36
2432,147,-150,92,-173,51,29
2433,-109,28,395,2,32,-4
2434,-296,-34,338,-47,14,-9
2435,-354,44,274,-172,-5,-16
2436,34,-97,254,29,-57,-58
2437,333,188,301,-95,-118,38
2438,453,-198,-13,92,33,5
2439,175,83,344,27,47,5
2440,-94,149,-60,28,19,13
2441,-131,-109,269,26,26,-10
2442,-254,-32,343,-45,12,-3
2443,-31,-112,327,2,-35,-1
2444,231,-285,488,0,-40,-13
2445,24,3,551,64,-1,5
2446,114,-72,417,77,89,-90
2447,3,204,277,-163,30,57
2448,-100,-12,-303,-147,56,68
2449,-132,-59,351,-102,-83,5
2450,-46,0,488,-93,-44,17
2451,10,1,223,77,34,-5
2452,-24,-44,214,-21,34,-51
2453,-38,-43,812,-17,-50,68
2454,34,124,574,-94,-26,-31
2455,-74,-112,620,-19,34,26
2456,-105,174,212,-34,28,18
2457,-332,-79,136,-102,-6,-12
2458,16,-201,566,-315,-129,-97
2459,172,-220,105,-167,-137,-8
2460,34,91,302,-20,12,-68
2461,44,44,380,-59,52,-10
2462,5,71,498,72,42,30
2463,-294,256,316,57,25,-10
2464,-123,-192,337,-111,14,67
2465,152,-53,465,103,13,214
2466,213,34,331,-12,0,91
2467,103,-30,571,-158,15,14
2468,113,-46,383,8,2,81
2469,-64,54,545,-154,15,45
2470,-224,-50,619,-8,43,-3
2471,-243,30,751,-43,-9,14
2472,19,-18,899,-81,-43,-3
2473,123,-66,993,19,-18,-19
2474,170,-12,940,-62,-17,-3
2475,114,-39,847,-17,16,-3
2476,-107,21,878,8,36,6
2477,-170,-13,961,-54,9,3
2478,-179,-32,946,1,6,-6
2479,-31,-48,1001,-26,-21,-8
2480,129,-49,1044,-23,-29,-13
2481,186,-57,981,10,-11,-10
2482,106,9,984,-18,10,0
2483,-55,26,1046,-11,32,2
2484,-171,8,975,-19,27,0
2485,-159,-11,966,-34,-3,-2
2486,-39,-70,1017,-17,-31,-11
2487,101,-88,1000,-19,-30,-12
2488,180,-52,990,-10,-9,-6
2489,100,-1,1016,2,20,-1
2490,-20,35,1015,-13,28,0
2491,-150,33,981,-19,20,1
2492,-168,0,994,-27,-1,-2
2493,-60,-67,993,-31,-23,-9
2494,76,-90,986,-15,-27,-10
2495,167,-72,1000,-10,-14,-9
2496,128,-24,1017,-4,15,-5
2497,-1,25,1004,-5,33,0
2498,-139,51,986,-17,24,2
2499,-170,14,992,-23,-4,-3
2500,-95,-52,989,-30,-24,-7
2501,65,-83,1003,-22,-26,-9
2502,158,-85,1001,-10,-10,-9
2503,141,-44,998,-2,11,-4
2504,25,14,1003,-3,25,0
2505,-118,47,997,-13,26,2
2506,-171,19,991,-23,5,-2
2507,-116,-25,981,-28,-17,-8
2508,45,-75,1009,-25,-28,-10
2509,146,-92,1008,-15,-16,-10
2510,157,-59,1005,-5,9,-6
2511,50,5,998,-1,25,-2
2512,-98,38,998,-9,23,2
2513,-174,27,985,-20,6,0
2514,-131,-9,989,-28,-13,-5
2515,15,-67,1005,-27,-24,-10
2516,129,-89,1001,-17,-18,-9
2517,170,-62,1000,-8,0,-8
2518,70,-8,1007,-3,22,-3
2519,-74,28,1005,-8,28,2
2520,-165,37,978,-17,13,0
2521,-142,-1,990,-26,-11,-5
2522,-16,-61,999,-28,-25,-10
2523,122,-88,1001,-20,-20,-11
2524,171,-65,1000,-9,-2,-7
2525,91,-17,1003,-3,16,-3
2526,-44,20,1008,-7,25,-1
2527,-162,43,979,-17,16,0
2528,-152,6,994,-25,-4,-4
2529,-51,-56,1003,-27,-24,-11
2530,103,-82,998,-20,-25,-11
2531,170,-77,998,-10,-6,-9
2532,110,-33,1000,-4,16,-3
2533,-16,20,1003,-3,26,-1
2534,-149,43,984,-15,19,0
2535,-168,10,998,-24,0,-4
2536,-73,-41,991,-28,-20,-8
2537,75,-75,1006,-23,-25,-10
2538,161,-87,1001,-12,-13,-10
2539,134,-48,1009,-5,9,-5
2540,11,18,986,-6,23,0
2541,-123,44,994,-11,23,1
2542,-164,17,997,-23,5,-3
2543,-103,-24,986,-27,-16,-7
2544,55,-74,1006,-25,-27,-11
2545,138,-91,1004,-16,-15,-10
2546,148,-50,996,-4,5,-5
2547,41,6,1008,-4,22,-2
2548,-100,36,1004,-12,25,1
2549,-164,28,976,-19,10,-2
2550,-113,-15,985,-29,-12,-6
2551,12,-71,1005,-26,-27,-10
2552,130,-92,1001,-17,-20,-11
2553,155,-57,1003,-7,2,-6
2554,65,-6,1003,-2,21,-2
2555,-63,30,1009,-7,26,0
2556,-156,40,978,-19,11,0
2557,-132,-1,1000,-26,-8,-5
2558,-17,-67,995,-29,-25,-10
2559,110,-88,990,-19,-22,-10
2560,160,-70,1004,-7,-7,-8
2561,88,-19,1009,-3,17,-1
2562,-34,29,1005,-6,27,1
2563,-147,43,981,-17,18,0
2564,-148,7,997,-25,-4,-3
2565,-51,-52,994,-28,-22,-8
2566,91,-82,1009,-24,-23,-10
2567,154,-78,995,-11,-8,-9
2568,114,-39,1001,-1,13,-4
2569,-6,17,998,-4,25,1
2570,-129,45,992,-13,23,2
2571,-154,14,995,-24,2,-3
2572,-89,-34,986,-29,-18,-7
2573,65,-75,1002,-22,-27,-10
2574,140,-90,1010,-15,-13,-9
2575,137,-48,1002,-5,8,-4
2576,29,9,1000,-1,26,0
2577,-106,39,998,-10,23,2
2578,-160,23,987,-20,4,0
2579,-107,-16,987,-27,-15,-7
2580,28,-73,1003,-26,-25,-10
2581,128,-89,1003,-16,-17,-10
2582,151,-57,1000,-6,3,-5
2583,57,-1,1002,-4,23,-2
2584,-78,31,1012,-7,26,1
2585,-159,33,976,-19,10,-1
2586,-127,-3,990,-27,-12,-4
2587,-3,-67,1002,-27,-26,-10
2588,114,-91,993,-19,-19,-9
2589,162,-63,1003,-7,-1,-8
2590,77,-14,1006,-1,19,-3
2591,-45,30,1008,-7,25,1
2592,-150,40,980,-17,16,1
2593,-141,6,996,-25,-6,-3
2594,-40,-61,998,-29,-23,-9
2595,95,-84,1000,-20,-23,-10
2596,157,-81,996,-11,-6,-8
2597,106,-32,1002,-2,17,-3
2598,-14,21,1002,-4,26,1
2599,-140,50,987,-15,19,2
2600,-148,10,997,-24,-1,-4
2601,-78,-40,986,-27,-17,-8
2602,78,-73,1007,-20,-24,-10
2603,150,-87,1006,-12,-10,-9
2604,125,-48,1002,-4,11,-4
2605,16,13,992,-3,25,-2
2606,-118,42,994,-11,22,2
2607,-160,20,990,-23,1,-1
2608,-98,-22,991,-27,-16,-7
2609,47,-75,1005,-25,-24,-10
2610,136,-89,1002,-16,-14,-11
2611,148,-52,1002,-3,4,-6
2612,42,6,1004,-2,22,-2
2613,-93,34,1006,-9,25,1
2614,-162,31,976,-19,10,-2
2615,-115,-11,987,-28,-12,-5
2616,11,-70,1007,-26,-26,-8
2617,125,-89,1001,-17,-20,-10
2618,147,-45,998,-17,1,-8
2619,35,40,723,-15,21,-12
2620,-44,-16,798,28,45,-20
2621,-152,26,844,24,19,-12
2622,-122,-14,917,-7,-4,-4
2623,-29,-65,683,11,-13,-10
2624,102,-91,725,-23,-26,-11
2625,186,-83,751,12,-9,-10
2626,98,1,935,12,22,3
2627,-3,-27,968,-11,31,-5
2628,-235,72,875,26,34,4
2629,-211,224,688,102,-5,75
2630,61,-24,632,-312,-59,62
2631,48,-6,410,-409,-102,35
2632,171,-99,405,70,40,-2
2633,56,-24,442,119,33,-8
2634,29,-35,388,56,57,-8
2635,-121,304,283,234,97,103
2636,-105,-78,342,-10,37,129
2637,-49,60,143,205,1,53
2638,45,18,329,153,-68,-48
2639,-21,-104,153,92,38,-13
2640,86,-103,247,286,68,-37
2641,-76,155,490,34,64,-21
2642,-45,76,311,235,84,8
2643,-185,-19,42,114,2,-4
2644,25,132,125,-68,-30,-3
2645,89,-107,283,105,4,7
2646,-11,209,404,-21,12,-17
2647,80,-299,450,207,84,-56
2648,83,131,499,-189,-59,53
2649,0,110,-226,37,39,-36
2650,11,-40,155,26,40,12
2651,-81,94,180,-26,-42,-4
2652,-95,-79,12,-39,-19,-7
2653,-151,117,159,107,24,-5
2654,245,105,192,2,-23,21
2655,144,46,353,-482,25,70
2656,29,22,372,379,41,0
2657,-210,181,69,-307,-47,31
2658,-207,93,170,155,92,52
2659,-116,-41,287,472,106,34
2660,122,-74,133,-292,-93,15
2661,214,-31,414,280,-11,11
2662,108,-54,571,-50,21,0
2663,-11,99,229,-277,45,-29
2664,-24,56,353,120,-10,54
2665,-77,98,676,-31,-8,26
2666,-144,-149,680,-14,11,-20
2667,-145,226,367,66,11,-6
2668,210,109,207,-230,-68,-25
2669,250,-48,505,-243,-51,11
2670,150,47,583,44,52,-18
2671,-54,-110,661,-177,16,-12
2672,-317,189,574,-26,-4,12
2673,-250,-31,417,-112,9,-47
2674,54,-112,514,-246,-58,50
2675,235,-10,516,18,-8,-1
2676,218,-146,616,-44,-9,-28
2677,51,11,720,16,9,12
2678,-163,121,758,-6,40,20
2679,-238,56,736,-34,42,-41
2680,-132,-37,723,-59,-35,28
2681,51,-81,728,-43,-55,-7
2682,152,-181,589,-25,-18,-31
2683,189,-58,615,-6,9,4
2684,52,58,716,1,37,5
2685,-83,35,745,4,32,-10
2686,-179,82,683,-21,-2,6
2687,-145,1,725,-30,-9,-4
2688,-27,-72,883,-35,-16,-14
2689,137,-125,942,-27,-23,-9
2690,179,-87,925,-2,-6,-10
2691,96,-35,945,-1,16,-5
2692,-44,41,983,-1,30,1
2693,-162,68,957,-9,21,1
2694,-162,34,1002,-26,-6,-2
2695,-48,-50,1006,-31,-26,-9
2696,105,-97,982,-27,-23,-11
2697,168,-101,977,-14,-6,-9
2698,114,-55,1004,-1,13,-4
2699,-4,15,993,-1,21,-2
2700,-143,56,992,-9,21,1
2701,-164,37,997,-21,6,-2
2702,-84,-25,987,-28,-17,-6
2703,68,-69,995,-27,-29,-9
2704,155,-97,1016,-18,-14,-10
2705,142,-68,1003,-8,9,-7
2706,17,5,990,-3,26,1
2707,-118,41,1001,-7,23,1
2708,-171,29,993,-20,5,-1
2709,-103,-3,986,-29,-13,-6
2710,41,-66,1009,-27,-23,-11
2711,138,-88,1002,-17,-16,-11
2712,150,-63,994,-6,1,-5
2713,46,-10,1007,-3,22,-2
2714,-89,26,1009,-10,28,1
2715,-161,32,972,-17,13,-1
2716,-125,1,993,-25,-12,-4
2717,5,-61,1002,-25,-27,-10
2718,122,-83,994,-19,-20,-10
2719,159,-64,1001,-8,-2,-8
2720,70,-19,1006,-2,18,-2
2721,-57,20,1004,-9,25,-1
2722,-151,37,980,-17,16,-1
2723,-136,2,1002,-25,-4,-4
2724,-30,-56,993,-28,-23,-9
2725,100,-79,1002,-19,-23,-10
2726,164,-71,999,-10,-7,-9
2727,93,-29,1003,-6,16,-3
2728,-20,23,1004,-4,26,-2
2729,-139,39,986,-15,21,2
2730,-146,11,997,-24,-2,-3
2731,-69,-46,991,-26,-19,-8
2732,82,-75,1005,-22,-24,-11
2733,150,-79,1002,-11,-11,-9
2734,121,-43,1002,-5,10,-4
2735,9,17,993,-5,24,-2
2736,-115,38,992,-12,21,1
2737,-156,18,991,-24,2,-2
2738,-93,-29,987,-28,-17,-7
2739,53,-75,1002,-23,-25,-10
2740,130,-89,1004,-13,-13,-10
2741,143,-45,1002,-3,7,-6
2742,40,5,1004,-4,24,-2
2743,-97,35,1004,-11,24,3
2744,-158,28,978,-21,8,-2
2745,-109,-14,986,-28,-12,-6
2746,14,-72,1006,-25,-27,-8
2747,122,-86,1000,-15,-19,-9
2748,157,-60,999,-8,1,-9
2749,60,-4,1008,-3,22,-2
2750,-64,31,1002,-8,24,1
2751,-153,32,982,-19,12,-1
2752,-133,-1,998,-26,-8,-4
2753,-19,-60,994,-28,-23,-11
2754,113,-91,996,-20,-22,-11
2755,156,-66,1000,-7,-3,-8
2756,89,-20,1008,-4,18,-4
2757,-37,23,1009,-7,26,0
2758,-146,46,976,-15,18,1
2759,-143,8,998,-25,-4,-3
2760,-53,-55,998,-28,-23,-9
2761,93,-78,1003,-19,-22,-11
2762,158,-79,1000,-12,-8,-10
2763,111,-33,1001,-2,14,-4
2764,-5,19,997,-4,24,-1
2765,-133,45,993,-14,20,1
2766,-155,17,998,-22,1,-3
2767,-83,-38,981,-28,-17,-6
2768,71,-76,1006,-23,-24,-10
2769,146,-84,1010,-12,-12,-9
2770,139,-50,1003,-7,9,-4
2771,23,13,993,-3,25,-1
2772,-112,39,994,-11,24,1
2773,-164,23,991,-22,5,-2
2774,-103,-17,987,-28,-16,-6
2775,38,-73,1006,-26,-26,-10
2776,133,-92,1005,-16,-16,-11
2777,156,-56,995,-7,3,-7
2778,46,-1,1006,-4,23,0
2779,-85,30,1009,-9,25,1
2780,-165,29,975,-20,10,-1
2781,-121,-4,984,-28,-13,-5
2782,7,-69,1009,-26,-26,-9
2783,120,-82,998,-17,-19,-10
2784,164,-65,999,-8,-1,-7
2785,68,-10,1007,-3,19,-2
2786,-61,25,1001,-9,24,0
2787,-156,42,984,-16,13,1
2788,-140,1,999,-26,-6,-2
2789,-29,-61,992,-29,-24,-10
2790,109,-87,1000,-18,-24,-10
2791,164,-72,998,-10,-6,-8
2792,95,-27,1006,-4,16,-3
2793,-29,25,1001,-6,26,0
2794,-147,41,984,-15,18,1
2795,-148,9,995,-25,-3,-3
2796,-61,-49,995,-29,-20,-8
2797,89,-78,1009,-21,-24,-10
2798,155,-81,997,-10,-9,-10
2799,121,-39,1002,-1,11,-4
2800,-2,14,999,-4,25,0
2801,-128,45,987,-13,23,2
2802,-156,16,997,-24,2,-2
2803,-88,-32,985,-30,-18,-6
2804,63,-73,1004,-23,-26,-10
2805,146,-91,1009,-14,-12,-11
2806,135,-51,1001,-5,8,-5
2807,28,8,1000,-1,24,-2
2808,-107,37,999,-11,22,2
2809,-160,26,984,-21,6,-1
2810,-102,-17,988,-27,-11,-7
2811,30,-70,1010,-27,-24,-10
2812,129,-87,998,-15,-16,-9
2813,151,-58,1005,-5,3,-7
2814,52,-2,1004,-4,22,-1
2815,-80,32,1008,-7,26,1
2816,-156,29,981,-19,9,-1
2817,-121,-5,988,-27,-10,-4
2818,-30,-17,882,52,-12,-8
2819,116,-114,779,-57,-57,-28
2820,154,-81,567,-44,16,-8
2821,97,-4,855,57,35,33
2822,-47,13,831,-107,2,-11
2823,-153,25,888,-6,7,0
2824,-160,17,990,15,13,-5
2825,-37,-67,980,-76,-21,-10
2826,134,-49,994,11,-32,-3
2827,190,-66,969,-8,-13,-9
2828,113,-134,974,-35,25,-10
2829,-141,189,991,46,48,2
2830,-162,-24,605,-96,12,-38
2831,-5,182,487,215,-22,-100
2832,-73,-25,332,5,-4,-49
2833,137,-174,317,198,-15,-51
2834,103,-101,194,-156,-31,-49
2835,101,-19,251,-35,-25,-39
2836,-25,11,172,24,24,-38
2837,-203,132,285,-66,29,-34
2838,-194,89,285,111,12,12
2839,-95,199,260,89,1,6
2840,-88,117,284,80,34,41
2841,208,-181,151,415,83,9
2842,65,-36,248,-44,4,48
2843,44,-33,538,-49,12,46
2844,-79,-22,170,96,59,4
2845,-219,-165,108,-131,11,10
2846,-71,220,101,31,-4,7
2847,-47,-91,55,128,-34,-14
2848,141,-205,-20,-129,-48,3
2849,123,-11,180,136,38,20
2850,27,-28,277,-49,18,22
2851,-163,267,61,-261,-69,7
2852,43,76,261,171,20,-8
2853,-105,-12,175,-314,-62,44
2854,-58,9,246,131,-60,-54
2855,170,181,216,-199,-80,11
2856,188,66,443,88,42,-4
2857,54,-3,469,-61,73,-8
2858,-240,366,589,100,32,-13
2859,-86,287,326,59,34,-2
2860,36,61,524,39,-28,100
2861,41,-16,-76,-315,-21,20
2862,51,-119,343,-102,-9,-49
2863,76,-135,341,9,-51,14
2864,-51,200,578,-470,-45,25
2865,30,12,621,7,26,-11
2866,-72,42,203,-249,-14,5
2867,-23,-23,371,-114,-23,-3
2868,-81,-136,421,56,-6,-15
2869,-159,128,557,-188,-20,-26
2870,115,-48,411,-61,-24,34
2871,216,-19,-26,-11,13,28
2872,120,-19,-15,1,-16,-37
2873,-37,-84,189,41,17,23
2874,-178,159,279,11,19,31
2875,-269,115,469,-4,6,-120
2876,-11,12,390,20,-42,-117
2877,206,-101,129,120,-46,-58
2878,112,16,308,19,11,-74
2879,43,-125,33,7,24,-35
2880,-130,118,391,40,49,-33
2881,-5,-203,204,-197,-20,27
2882,-33,20,445,82,-24,10
2883,27,-98,652,-130,-39,-26
2884,70,-130,712,-10,1,-4
2885,-62,217,934,-7,6,13
2886,90,-142,485,-14,3,-27
2887,60,-54,561,-117,-30,40
2888,29,76,484,11,24,0
2889,-131,-171,627,12,28,-24
2890,-92,1,684,-70,-28,9
2891,-25,-29,688,59,-7,-10
2892,87,-29,705,-29,-10,-24
2893,107,5,720,-33,-14,5
2894,51,32,742,26,20,-7
2895,-63,-12,814,-61,26,0
2896,-105,-17,835,2,12,2
2897,-108,-75,818,-22,-6,-6
2898,6,-80,840,-31,-28,-11
2899,101,-49,887,17,-16,-8
2900,124,-18,931,-16,5,-8
2901,56,30,1000,-10,21,-1
2902,-69,48,1009,-12,22,1
2903,-140,0,984,-40,7,-2
2904,-123,-50,972,-19,-12,-4
2905,11,-82,1003,-23,-24,-10
2906,119,-95,998,-16,-16,-11
2907,141,-41,1006,8,5,-6
2908,69,26,1006,-7,18,-3
2909,-76,46,1001,-11,22,0
2910,-160,30,993,-23,8,1
2911,-131,-24,992,-38,-9,-5
2912,5,-82,1001,-23,-21,-10
2913,113,-98,994,-18,-19,-10
2914,164,-61,1010,-3,-3,-7
2915,79,-1,1006,1,18,-2
2916,-67,42,1007,-8,27,1
2917,-161,39,982,-17,14,0
2918,-141,0,982,-28,-7,-3
2919,-12,-68,1003,-29,-23,-11
2920,109,-94,998,-19,-18,-11
2921,170,-73,1000,-9,-3,-7
2922,88,-17,1002,1,17,-3
2923,-54,29,1009,-4,24,1
2924,-153,50,986,-17,15,0
2925,-154,9,998,-25,-2,-3
2926,-40,-53,993,-29,-21,-10
2927,105,-90,999,-20,-26,-11
2928,167,-79,999,-8,-9,-9
2929,108,-32,1006,-4,16,-2
2930,-25,20,1008,-4,28,0
2931,-151,47,982,-13,19,1
2932,-153,16,996,-24,-2,-3
2933,-71,-43,998,-29,-20,-8
2934,91,-77,1003,-23,-25,-11
2935,161,-84,999,-12,-12,-9
2936,125,-45,996,-2,10,-4
2937,2,11,1000,-2,25,-1
2938,-131,41,989,-13,24,2
2939,-162,20,997,-22,3,-3
2940,-88,-27,982,-27,-19,-9
2941,61,-71,1003,-22,-27,-10
2942,151,-85,1008,-16,-15,-10
2943,142,-54,1005,-7,8,-4
2944,29,7,994,-3,24,-1
2945,-110,37,998,-10,24,2
2946,-165,22,987,-20,8,-3
2947,-105,-14,986,-27,-14,-7
2948,30,-66,1005,-25,-27,-10
2949,131,-87,1002,-16,-18,-10
2950,157,-60,1001,-5,3,-6
2951,54,-3,1004,-4,24,-2
2952,-82,30,1012,-8,28,0
2953,-158,35,975,-19,12,-1
2954,-124,-8,989,-27,-11,-5
2955,-2,-64,999,-25,-25,-8
2956,119,-86,999,-17,-20,-11
2957,160,-63,997,-9,-3,-9
2958,72,-11,1009,-3,19,-1
2959,-43,26,1006,-7,24,0
2960,-153,37,981,-16,17,1
2961,-140,8,997,-25,-5,-5
2962,-38,-62,995,-29,-23,-9
2963,100,-83,993,-19,-23,-9
2964,162,-74,1002,-10,-6,-8
2965,101,-29,1007,-3,17,-3
2966,-21,19,998,-4,27,0
2967,-144,46,988,-15,20,2
2968,-151,9,995,-24,-1,-4
2969,-74,-45,993,-26,-19,-9
2970,78,-75,1003,-22,-24,-10
2971,153,-85,1004,-12,-12,-9
2972,130,-45,1003,-3,11,-4
2973,9,13,996,-3,27,-1
2974,-118,42,990,-11,23,0
2975,-162,18,994,-21,2,-2
2976,-101,-27,983,-29,-17,-6
2977,54,-76,1008,-24,-26,-10
2978,137,-92,1005,-17,-13,-10
2979,147,-53,1003,-5,7,-5
2980,41,3,1003,-3,23,-2
2981,-103,39,1003,-10,24,1
2982,-160,26,981,-21,7,-2
2983,-117,-11,990,-27,-12,-6
2984,19,-69,1002,-27,-26,-9
2985,128,-91,1006,-18,-18,-10
2986,156,-61,1001,-7,1,-7
2987,62,-3,1005,-2,22,-4
2988,-73,30,1007,-6,26,-1
2989,-160,37,975,-18,12,1
2990,-132,0,998,-26,-10,-5
2991,-14,-64,997,-29,-23,-9
2992,113,-87,992,-20,-19,-10
2993,165,-69,1007,-8,-3,-8
2994,87,-18,1006,-3,18,-2
2995,-41,24,1005,-6,26,-1
2996,-151,41,981,-16,18,1
2997,-148,11,996,-25,-4,-4
2998,-48,-53,999,-29,-23,-9
2999,93,-80,999,-19,-23,-10
3000,162,-80,998,-12,-8,-9
3001,112,-37,1000,-2,15,-3
3002,-15,20,1002,-4,25,1
3003,-136,43,989,-14,19,2
3004,-156,16,998,-23,-1,-4
3005,-79,-37,986,-29,-19,-7
3006,74,-72,1008,-22,-27,-10
3007,154,-87,1007,-13,-14,-11
3008,133,-47,998,-4,9,-3
3009,21,13,997,-4,26,-1
3010,-119,40,993,-11,23,2
3011,-164,28,986,-21,4,-1
3012,-101,-26,993,-28,-16,-7
3013,44,-71,1008,-24,-26,-9
3014,140,-90,1001,-16,-13,-10
3015,149,-54,1001,-3,5,-6
3016,48,5,1003,-3,20,-1
3017,-92,32,1003,-10,25,1
3018,-163,33,980,-19,10,-1
3019,-117,-7,984,-28,-11,-5
3020,10,-69,1007,-27,-26,-10
3021,125,-90,1001,-18,-18,-9
3022,158,-63,1002,-7,2,-8
3023,65,-11,1000,-2,23,-2
3024,-103,63,1033,-38,23,0
3025,-154,62,510,-137,12,-42
3026,-82,-54,787,78,19,-8
3027,-17,-74,745,-160,-41,-3
3028,125,-107,745,-52,-22,-28
3029,81,-64,482,49,23,-10
3030,79,-3,782,-139,-2,-5
3031,-32,53,806,33,29,4
3032,-132,38,887,3,18,-1
3033,-131,-9,1000,-110,-15,-1
3034,-59,-63,1015,39,-13,-9
3035,97,-88,993,-59,-28,-11
3036,133,-86,963,-17,-11,-13
3037,130,-36,945,43,14,-4
3038,21,55,990,-44,17,8
3039,-111,59,951,16,30,0
3040,-149,-85,997,-30,9,-6
3041,-167,-36,971,-29,-11,-14
3042,-153,191,777,-505,-165,-71
3043,252,-21,522,71,-83,-224
3044,65,-90,357,-196,-14,-128
3045,126,-30,293,302,65,-123
3046,-78,32,375,308,154,11
3047,-43,-39,290,-55,-5,44
3048,-121,-77,344,158,11,0
3049,-36,-154,509,-213,-59,13
3050,-73,147,300,61,-5,49
3051,257,18,407,341,7,120
3052,-32,87,300,106,56,141
3053,-124,-13,480,136,64,109
3054,-153,27,205,76,64,60
3055,-168,-20,109,-73,19,32
3056,-99,-15,221,86,-30,12
3057,-135,88,255,-73,-39,10
3058,94,111,503,-46,37,-11
3059,23,-69,464,150,31,2
3060,139,218,-30,48,69,42
3061,55,-99,88,65,0,45
3062,-105,-106,230,-61,8,7
3063,-396,-41,197,-12,5,4
3064,21,160,574,556,-31,-89
3065,-35,84,447,-471,-75,72
3066,290,-2,548,180,-38,-24
3067,166,4,547,-108,37,9
3068,-61,24,235,-162,-16,21
3069,-199,-145,85,282,93,0
3070,-295,91,268,-165,1,1
3071,-233,-60,297,442,77,-11
3072,277,-4,332,-192,11,156
3073,209,22,399,423,-2,126
3074,-52,7,348,-387,-52,17
3075,-146,188,464,-366,-40,-59
3076,-108,-32,231,282,123,-134
3077,-169,-148,546,5,-14,-97
3078,-69,-12,300,41,-97,-43
3079,227,-223,841,41,-18,-37
3080,198,-31,830,48,67,-21
3081,-199,152,417,29,65,-45
3082,93,122,504,6,18,-53
3083,-76,-14,566,-126,-50,54
3084,-163,114,291,183,42,-62
3085,33,-110,341,47,13,-18
3086,77,-6,314,8,-29,23
3087,-93,191,286,81,2,-32
3088,135,-78,305,72,21,-66
3089,107,-17,480,178,36,72
3090,-42,141,426,141,25,-2
3091,-166,-129,133,-40,14,-8
3092,-158,39,278,102,23,-39
3093,139,-207,118,-74,-6,-57
3094,250,-129,396,-89,-75,42
3095,173,128,881,88,20,6
3096,-11,-61,907,-84,31,4
3097,-152,100,853,-4,40,1
3098,-200,-94,490,21,22,-41
3099,22,-266,269,-214,-103,51
3100,202,-91,398,67,-38,63
3101,141,35,454,-60,22,18
3102,46,-57,423,-6,27,29
3103,-24,65,563,-29,35,-1
3104,-131,-43,605,-69,8,-7
3105,-191,33,576,-2,-18,8
3106,-52,-52,680,-39,-33,-8
3107,70,-66,687,-32,-8,-12
3108,165,-71,611,-2,2,-3
3109,148,-35,627,-24,2,-10
3110,-17,10,590,-2,23,1
3111,-118,46,636,-3,22,3
3112,-175,-1,746,-36,6,-1
3113,-99,-32,857,-20,-17,-6
3114,65,-74,935,-28,-24,-10
3115,141,-89,901,-16,-9,-11
3116,142,-38,902,4,7,-4
3117,45,10,918,-7,15,-2
3118,-106,34,976,-9,23,3
3119,-162,29,972,-20,15,1
3120,-116,-21,976,-31,-6,-5
3121,15,-71,974,-21,-27,-9
3122,126,-92,997,-19,-23,-10
3123,159,-56,1007,-8,-1,-8
3124,59,1,1002,0,23,-1
3125,-69,34,1014,-8,25,0
3126,-155,30,984,-17,12,-1
3127,-128,-4,999,-28,-6,-5
3128,-17,-69,995,-27,-19,-9
3129,105,-84,997,-16,-21,-10
3130,158,-68,998,-7,-9,-7
3131,82,-17,1008,-2,16,-2
3132,-33,23,1006,-8,29,-1
3133,-139,42,979,-15,21,0
3134,-144,8,994,-26,-4,-3
3135,-55,-53,993,-29,-24,-8
3136,85,-83,1007,-21,-24,-11
3137,150,-76,994,-9,-7,-10
3138,114,-33,1004,-2,14,-3
3139,0,17,1003,-3,24,0
3140,-126,48,993,-15,20,1
3141,-152,9,996,-24,3,-4
3142,-90,-38,985,-28,-17,-7
3143,60,-79,1003,-23,-28,-10
3144,139,-82,1010,-13,-15,-9
3145,140,-50,1006,-7,9,-5
3146,28,13,995,-4,26,-1
3147,-100,40,995,-11,24,1
3148,-164,20,989,-23,4,-1
3149,-109,-19,981,-28,-16,-6
3150,30,-69,1008,-26,-25,-9
3151,121,-88,999,-15,-16,-9
3152,155,-55,999,-5,4,-7
3153,59,-2,1012,-5,22,-2
3154,-79,31,1004,-11,27,1
3155,-154,30,977,-18,11,-1
3156,-133,-4,988,-26,-11,-6
3157,-8,-60,1003,-27,-28,-10
3158,115,-89,1002,-18,-19,-10
3159,162,-64,1001,-10,0,-7
3160,85,-13,1007,-2,20,-2
3161,-47,24,1003,-5,26,0
3162,-155,38,981,-16,14,2
3163,-143,5,999,-24,-6,-4
3164,-43,-56,993,-29,-22,-8
3165,98,-84,995,-19,-22,-10
3166,167,-74,1005,-10,-8,-8
3167,107,-30,1004,-6,16,-3
3168,-17,21,1004,-5,26,0
3169,-145,42,981,-16,19,1
3170,-157,15,994,-24,-3,-2
3171,-73,-47,995,-29,-20,-9
3172,79,-76,1006,-22,-23,-11
3173,160,-81,1004,-13,-11,-9
3174,130,-43,1001,-3,10,-4
3175,10,12,994,-5,24,-1
3176,-124,44,994,-11,23,2
3177,-166,20,993,-23,3,-1
3178,-100,-32,984,-29,-18,-7
3179,54,-73,1008,-23,-25,-10
3180,144,-88,1010,-15,-13,-10
3181,153,-52,1003,-5,5,-6
3182,37,7,1000,-2,22,-1
3183,-103,37,1001,-11,24,2
3184,-165,25,986,-21,9,-1
3185,-120,-14,985,-29,-12,-5
3186,24,-74,1003,-27,-26,-10
3187,131,-92,1005,-15,-19,-9
3188,162,-60,1000,-6,2,-5
3189,62,0,1006,-3,23,-3
3190,-76,30,1009,-8,26,1
3191,-162,37,976,-19,12,0
3192,-134,0,992,-26,-9,-5
3193,-11,-66,1000,-26,-23,-9
3194,114,-89,995,-20,-20,-9
3195,169,-70,1002,-8,-4,-9
3196,82,-18,1007,-1,17,-2
3197,-48,30,1005,-7,25,0
3198,-151,42,982,-15,17,-1
3199,-148,10,997,-25,-4,-3
3200,-44,-52,995,-30,-24,-8
3201,101,-85,1003,-21,-25,-11
3202,160,-77,1000,-12,-7,-9
3203,111,-36,994,-3,15,-4
3204,-18,18,1008,-2,25,-1
3205,-137,46,985,-14,19,3
3206,-156,17,996,-24,1,-2
3207,-78,-39,992,-28,-19,-7
3208,74,-75,1002,-23,-25,-11
3209,154,-87,1005,-13,-13,-10
3210,129,-50,1006,-4,9,-3
3211,19,13,991,-4,25,0
3212,-119,41,992,-11,25,1
3213,-163,20,991,-21,3,-2
3214,-102,-24,988,-29,-17,-7
3215,45,-73,1003,-25,-25,-10
3216,136,-88,1005,-15,-16,-9
3217,153,-50,1001,-6,4,-4
3218,40,3,1005,-3,24,-1
3219,-91,31,1005,-12,25,2
3220,-165,26,978,-20,11,-1
3221,-117,-10,986,-27,-11,-6
3222,12,-68,1004,-26,-27,-10
3223,120,-88,1001,-16,-20,-11
3224,162,-61,1002,-10,0,-8
3225,66,-9,1002,-3,21,-2
3226,-68,30,1005,-6,25,0
3227,-151,36,982,-19,12,-1
3228,-140,-2,995,-27,-7,-5
3229,-20,-62,995,-27,-24,-10
3230,107,-89,995,-18,-21,-10
3231,161,-65,1000,-7,-6,-8
3232,97,-23,1008,-2,18,-3
3233,-36,28,1008,-8,28,0
3234,-144,44,977,-17,18,1
3235,-149,8,998,-25,-5,-3
3236,-59,-53,993,-29,-23,-9
3237,94,-80,1007,-21,-24,-12
3238,158,-81,999,-13,-8,-8
3239,118,-38,995,-1,14,-4
3240,-32,34,1017,9,26,0
3241,-155,76,575,46,35,14
3242,-107,-51,804,48,6,12
3243,-76,-33,825,-74,-19,2
3244,51,-95,576,58,13,1
3245,119,-83,743,-15,-24,-5
3246,134,-41,721,-15,16,-1
3247,33,22,470,39,29,3
3248,-96,38,541,-66,15,0
3249,-149,12,678,-1,2,1
3250,-118,-18,840,-40,-21,-1
3251,37,-74,814,-55,-29,-8
3252,113,-92,811,6,-11,-11
3253,146,-51,879,-21,0,-6
3254,46,0,884,6,20,-3
3255,-78,39,993,-5,26,2
3256,-148,40,978,-38,9,1
3257,-114,-9,955,-21,-14,-5
3258,-9,-68,1015,-36,-31,-9
3259,130,-101,987,-20,-20,-10
3260,202,-76,995,1,1,-1
3261,111,-80,1009,-5,24,-9
3262,-207,161,1040,68,49,-2
3263,-133,56,648,408,179,67
3264,11,147,471,230,12,122
3265,-71,12,264,-251,-171,-19
3266,114,-99,292,-199,-38,-87
3267,43,-26,340,-126,-19,-20
3268,38,79,396,-238,-78,-21
3269,-39,5,517,57,6,-70
3270,-277,251,773,49,96,-50
3271,-5,133,393,-582,-86,-97
3272,-136,47,288,-237,-124,-70
3273,54,37,228,-10,-95,-55
3274,141,-51,214,-290,-59,0
3275,103,-50,208,183,101,-7
3276,-50,252,256,-118,2,8
3277,-153,61,252,-354,-205,-42
3278,-124,257,248,5,-63,-32
3279,-42,57,171,-163,131,-17
3280,32,-1,152,119,3,19
3281,147,-6,232,55,-103,23
3282,-74,8,527,118,47,7
3283,132,75,230,606,164,-89
3284,-20,185,345,-460,-44,64
3285,71,-138,495,181,-13,-78
3286,70,-241,110,-5,-17,22
3287,-10,128,510,-79,-30,-2
3288,35,-104,761,252,41,-68
3289,15,44,476,-31,-6,4
3290,-138,172,582,-177,-46,-85
3291,169,-1,513,-235,-245,-139
3292,109,153,677,-470,6,-71
3293,3,51,253,178,25,-74
3294,-268,81,390,-84,-6,-68
3295,63,35,186,28,-30,36
3296,80,5,339,6,-17,22
3297,53,-32,384,-253,12,-24
3298,-163,242,314,207,-65,-31
3299,148,-20,887,373,-38,-44
3300,83,21,702,-170,3,83
3301,-3,-54,374,307,68,-53
3302,-58,-155,376,-160,9,13
3303,-201,185,254,67,7,-41
3304,155,-47,631,-126,-36,11
3305,211,-29,746,-212,-41,50
3306,107,23,584,62,38,-9
3307,-88,-105,379,-124,-1,1
3308,-196,72,398,-45,-4,11
3309,-116,-26,517,24,13,-16
3310,-62,64,742,-107,-22,-9
3311,157,-100,506,46,-25,-56
3312,206,-123,435,-80,-22,33
3313,104,12,551,19,35,21
3314,-79,-109,586,1,51,-13
3315,-232,23,551,-42,5,13
3316,-155,54,799,7,-23,2
3317,1,-28,843,-18,-19,-23
3318,164,-8,723,-41,-16,-3
3319,201,-41,710,6,-6,-9
3320,37,-27,830,-42,11,-3
3321,-113,-29,890,-14,26,7
3322,-194,-16,839,-6,26,-1
3323,-126,-41,807,-37,-13,-10
3324,41,-39,770,5,-37,-12
3325,171,-30,860,-15,-25,-12
3326,150,6,973,-15,12,-5
3327,31,6,1022,-1,31,-1
3328,-126,1,982,-32,21,1
3329,-178,-20,971,-23,3,-2
3330,-101,-67,974,-23,-14,-10
3331,47,-79,988,-19,-23,-12
3332,165,-45,1009,3,-19,-10
3333,152,-12,1020,-6,2,-6
3334,22,25,1011,-8,27,1
3335,-121,38,983,-15,31,2
3336,-175,1,991,-29,8,-1
3337,-107,-59,983,-28,-21,-8
3338,52,-92,996,-20,-30,-11
3339,158,-72,1004,-10,-12,-11
3340,148,-27,1003,0,11,-5
3341,32,27,1012,-5,24,-3
3342,-120,49,991,-15,23,2
3343,-169,17,993,-24,8,-4
3344,-123,-40,986,-30,-13,-6
3345,45,-78,1002,-23,-28,-9
3346,151,-91,1011,-12,-21,-11
3347,155,-54,1000,-5,6,-5
3348,48,13,1001,-2,28,-1
3349,-101,47,995,-10,28,3
3350,-173,27,991,-22,7,-1
3351,-129,-18,978,-29,-17,-6
3352,24,-75,1005,-23,-27,-10
3353,134,-91,1006,-16,-16,-11
3354,164,-64,1003,-7,2,-6
3355,67,0,1004,-1,21,-2
3356,-84,32,1005,-10,28,2
3357,-170,34,978,-19,13,-1
3358,-139,-2,985,-25,-10,-5
3359,-1,-59,1000,-29,-28,-10
3360,121,-92,1006,-19,-22,-10
3361,173,-66,999,-9,-1,-6
3362,80,-15,1009,-3,23,-2
3363,-58,27,1008,-5,26,0
3364,-165,37,977,-17,13,0
3365,-150,8,989,-25,-8,-5
3366,-28,-60,1002,-26,-24,-11
3367,108,-78,997,-19,-22,-11
3368,175,-73,1003,-11,-5,-8
3369,100,-23,1007,-4,18,-3
3370,-32,15,1006,-8,28,0
3371,-157,37,977,-15,22,2
3372,-161,9,997,-23,-2,-3
3373,-59,-46,996,-25,-23,-9
3374,91,-77,998,-13,-21,-10
3375,171,-72,999,-16,-3,-7
3376,121,-42,1000,-3,15,-4
3377,-7,18,999,-5,25,0
3378,-140,41,990,-15,20,2
3379,-166,16,992,-22,2,-2
3380,-89,-38,991,-27,-18,-8
3381,70,-73,1007,-22,-25,-11
3382,160,-84,1006,-12,-14,-9
3383,144,-46,1002,-5,9,-5
3384,18,11,996,-5,26,-1
3385,-119,42,990,-11,24,1
3386,-169,20,997,-20,4,-2
3387,-110,-24,983,-26,-16,-7
3388,48,-72,1008,-24,-25,-10
3389,143,-87,1008,-16,-16,-10
3390,152,-53,1001,-5,5,-6
3391,49,7,1004,-2,22,-2
3392,-96,34,1002,-10,25,2
3393,-167,32,982,-19,10,-2
3394,-122,-12,985,-29,-12,-6
3395,13,-68,1004,-27,-27,-10
3396,126,-91,1003,-17,-20,-10
3397,167,-61,999,-8,0,-8
3398,68,-7,1006,-3,22,-2
3399,-70,30,1005,-8,27,3
3400,-160,35,980,-18,12,0
3401,-138,-3,994,-28,-9,-3
3402,-16,-62,997,-27,-24,-10
3403,115,-87,996,-19,-21,-11
3404,168,-69,1001,-9,-5,-9
3405,85,-25,1007,-2,17,-2
3406,-37,24,1007,-7,26,1
3407,-155,42,981,-16,20,2
3408,-149,10,994,-26,-4,-4
3409,-50,-55,999,-27,-24,-9
3410,97,-80,1000,-18,-25,-11
3411,165,-77,998,-11,-7,-9
3412,111,-34,1000,-2,15,-4
3413,-12,16,1002,-3,26,-1
3414,-136,47,990,-14,22,3
3415,-158,12,997,-25,1,-2
3416,-80,-40,986,-29,-18,-9
3417,73,-75,1007,-22,-25,-10
3418,152,-82,1008,-11,-14,-10
3419,133,-47,1002,-5,9,-4
3420,16,10,995,-3,26,0
3421,-116,43,992,-12,24,3
3422,-164,19,992,-22,5,-1
3423,-104,-22,986,-30,-16,-6
3424,44,-70,1010,-25,-25,-10
3425,136,-88,998,-17,-16,-10
3426,149,-54,1005,-4,4,-6
3427,44,6,1002,-2,22,0
3428,-91,31,1006,-10,26,1
3429,-163,33,980,-19,11,-1
3430,-121,-12,983,-28,-12,-6
3431,12,-66,1007,-26,-27,-11
3432,122,-87,1001,-18,-19,-10
3433,164,-60,1003,-8,0,-8
3434,66,-8,1002,-3,21,-3
3435,-66,29,1008,-6,25,0
3436,-153,36,984,-18,13,0
3437,-140,2,992,-25,-7,-4
3438,-19,-60,997,-27,-24,-10
3439,109,-90,996,-19,-21,-11
3440,164,-66,1001,-8,-4,-8
3441,92,-20,1011,-4,17,-2
3442,-39,22,1007,-6,26,-1
3443,-148,42,979,-15,18,1
3444,-145,11,996,-25,-3,-4
3445,-52,-53,996,-28,-22,-8
3446,92,-78,1002,-22,-23,-10
3447,159,-81,1000,-12,-8,-10
3448,116,-37,998,-2,14,-4
3449,-5,16,1002,-4,23,-2
3450,-133,48,989,-13,21,1
3451,-156,15,996,-24,1,-3
3452,-82,-33,984,-27,-18,-8
3453,68,-72,1006,-23,-25,-9
3454,151,-85,1007,-13,-14,-10
3455,135,-54,1005,-5,9,-5
3456,22,8,991,-3,25,0
3457,-114,41,994,-10,23,0
3458,-163,22,991,-23,4,-2
3459,-106,-19,987,-27,-17,-6
3460,-10,-27,1006,-29,-26,-10
3461,141,-93,854,5,-23,-25
3462,217,-105,993,-55,-13,-19
3463,30,14,869,-12,33,-11
3464,-40,-5,829,23,31,0
3465,-198,43,892,-53,14,19
3466,-138,-10,874,-37,-6,-6
3467,-27,-120,741,-11,-19,-11
3468,-29,127,607,-59,-42,-9
3469,210,170,538,-3,-42,-14
3470,43,-150,660,-114,36,15
3471,-97,129,250,64,41,-35
3472,-112,-51,403,-185,-20,17
3473,-201,97,310,-30,-15,1
3474,-63,-173,363,70,19,-18
3475,70,-94,415,-153,-55,-7
3476,226,-100,560,42,-16,2
3477,220,-73,881,4,5,-4
3478,-164,-29,793,-107,48,-12
3479,-82,4,664,-238,115,8
3480,-144,-193,308,-311,-82,41
3481,18,63,540,-407,-46,-16
3482,132,-274,546,129,23,-6
3483,139,-2,524,-141,-67,-8
3484,141,-64,548,-119,7,0
3485,-7,26,889,187,53,-5
3486,-95,13,963,-196,-3,-3
3487,-144,-22,945,57,21,0
3488,-148,-9,990,58,-12,-4
3489,-169,140,733,-203,-67,-48
3490,252,-103,557,-121,-80,-80
3491,244,69,430,-123,-10,15
3492,-146,150,-15,125,46,13
3493,-145,2,210,53,88,83
3494,-152,27,-129,-120,73,75
3495,-114,-75,184,272,21,-5
3496,-104,78,143,-333,-97,29
3497,179,26,247,189,-32,1
3498,336,-37,536,-49,24,11
3499,-119,300,873,24,65,3
3500,19,-97,491,337,9,-160
3501,-62,-26,289,20,7,74
3502,-156,200,422,-150,31,-39
3503,97,-282,69,-172,-30,21
3504,95,21,129,22,-23,12
3505,-111,2,-66,-93,-23,-43
3506,213,-29,317,47,-66,-193
3507,151,20,504,135,8,-65
3508,-149,319,403,112,0,-137
3509,-87,-217,431,91,-22,-76
3510,-41,35,294,67,17,-13
3511,-207,164,-13,89,64,-88
3512,198,-100,106,-381,-7,3
3513,232,-145,498,-177,-114,81
3514,69,238,334,-96,43,45
3515,-149,-128,416,-98,34,9
3516,-191,191,530,-76,19,-26
3517,-29,-266,267,-122,-67,11
3518,177,-237,181,-96,-66,60
3519,160,84,386,40,9,23
3520,46,-87,771,-71,21,17
3521,-19,86,606,-28,19,14
3522,-55,-19,608,-3,23,-13
3523,-190,-23,572,-66,-11,-1
3524,-121,-18,718,-10,-18,1
3525,65,-54,837,2,-18,-19
3526,124,-85,832,-41,-13,-4
3527,173,-18,779,12,4,-7
3528,32,0,836,-19,24,-5
3529,-111,26,880,-17,22,4
3530,-164,13,919,-3,5,0
3531,-129,-33,974,-42,-14,-6
3532,25,-65,973,-16,-19,-9
3533,138,-81,977,-12,-12,-12
3534,145,-48,989,-10,-1,-5
3535,75,7,1005,5,12,-5
3536,-75,25,1020,-17,26,0
3537,-168,30,980,-18,19,2
3538,-127,-9,994,-24,-5,-5
3539,-17,-72,999,-29,-27,-9
3540,111,-85,995,-15,-24,-10
3541,169,-62,1014,-9,-2,-11
3542,74,-10,1003,-4,21,-1
3543,-42,34,1009,-6,24,1
3544,-152,35,997,-22,15,1
3545,-143,4,989,-27,-3,-3
3546,-43,-62,993,-28,-20,-8
3547,94,-86,996,-19,-26,-11
3548,159,-74,997,-6,-12,-9
3549,109,-28,1006,-4,13,-4
3550,-16,21,1007,-5,30,0
3551,-133,46,982,-14,22,1
3552,-156,13,995,-25,-2,-4
3553,-77,-46,990,-29,-22,-8
3554,75,-79,1007,-23,-24,-10
3555,153,-85,998,-11,-11,-9
3556,127,-43,1002,-2,9,-4
3557,17,13,1003,-4,23,-2
3558,-117,43,995,-12,25,2
3559,-161,18,992,-21,5,-2
3560,-105,-25,984,-27,-16,-5
3561,44,-70,1006,-22,-28,-10
3562,136,-89,1005,-15,-16,-10
3563,150,-57,1005,-6,6,-6
3564,45,3,998,-3,24,-2
3565,-96,35,997,-10,25,1
3566,-161,26,987,-21,8,-1
3567,-124,-10,984,-25,-12,-4
3568,13,-65,1002,-27,-27,-9
3569,121,-85,1005,-15,-20,-9
3570,161,-59,996,-7,0,-6
3571,71,-9,1009,-4,21,-2
3572,-67,28,1006,-8,29,1
3573,-157,32,980,-17,11,0
3574,-137,1,986,-25,-10,-4
3575,-22,-59,999,-26,-26,-8
3576,117,-82,999,-20,-23,-11
3577,164,-64,1001,-11,-4,-7
3578,95,-20,1005,-4,18,-2
3579,-35,17,1009,-6,26,0
3580,-153,37,978,-15,19,1
3581,-149,6,995,-24,-5,-4
3582,-54,-53,998,-27,-21,-8
3583,97,-77,995,-21,-25,-10
3584,166,-75,1007,-12,-8,-9
3585,116,-32,1001,-5,14,-3
3586,-10,15,1001,-5,25,0
3587,-138,44,988,-14,21,1
3588,-160,10,995,-24,-1,-2
3589,-84,-40,989,-26,-20,-7
3590,73,-76,1005,-22,-26,-11
3591,159,-81,1008,-11,-12,-10
3592,135,-46,1000,-5,9,-4
3593,19,14,996,-5,26,-2
3594,-120,41,994,-11,24,0
3595,-168,16,990,-21,4,-3
3596,-105,-25,987,-28,-16,-8
3597,45,-71,1005,-24,-26,-12
3598,140,-85,1009,-16,-15,-10
3599,153,-54,1002,-6,6,-6
3600,44,3,1002,-2,23,-2
3601,-96,33,1003,-11,25,2
3602,-165,23,981,-20,10,-1
3603,-127,-10,985,-27,-11,-5
3604,16,-65,1005,-27,-26,-11
3605,123,-91,1005,-18,-19,-11
3606,165,-59,997,-6,-1,-8
3607,70,-6,1006,-4,22,-2
3608,-67,25,1006,-6,26,1
3609,-160,37,978,-19,12,0
3610,-142,-1,994,-26,-7,-5
3611,-19,-62,997,-26,-24,-9
3612,112,-89,997,-20,-21,-10
3613,165,-68,1002,-6,-5,-9
3614,93,-23,1007,-1,17,-4
3615,-38,25,1005,-6,26,0
3616,-152,40,978,-16,19,1
3617,-150,12,999,-24,-3,-4
3618,-55,-56,996,-28,-22,-7
3619,94,-81,1003,-20,-24,-11
3620,164,-82,998,-13,-9,-9
3621,117,-35,998,-4,14,-3
3622,-7,15,1006,-3,26,-1
3623,-140,47,987,-14,21,3
3624,-158,14,996,-24,0,-3
3625,-87,-37,987,-29,-17,-8
3626,69,-72,1006,-23,-26,-10
3627,155,-85,1007,-12,-13,-10
3628,135,-48,1003,-5,10,-4
3629,24,11,996,-4,26,-3
3630,-119,39,992,-11,25,2
3631,-165,22,992,-23,4,-2
3632,-106,-24,988,-27,-16,-7
3633,41,-69,1006,-24,-25,-9
3634,139,-87,1004,-15,-18,-10
3635,153,-54,1001,-5,4,-5
3636,52,0,1006,-3,21,-1
3637,-91,33,1004,-11,27,3
3638,-165,30,981,-20,12,-1
3639,-123,-8,982,-28,-13,-5
3640,7,-66,1004,-26,-28,-11
3641,124,-89,1004,-17,-20,-11
3642,166,-60,1002,-8,-1,-8
3643,72,-10,1001,-2,21,-2
3644,-65,30,1008,-7,26,0
3645,-157,34,978,-20,14,1
3646,-141,0,997,-24,-5,-4
3647,-26,-62,992,-27,-23,-9
3648,111,-84,998,-19,-22,-10
3649,164,-72,1000,-8,-5,-8
3650,95,-21,1008,-3,18,-3
3651,-32,21,1003,-6,27,-1
3652,-148,42,979,-15,18,0
3653,-150,8,997,-24,-5,-5
3654,-60,-49,996,-28,-23,-9
3655,91,-78,1003,-21,-24,-10
3656,163,-79,1000,-13,-9,-10
3657,118,-36,1000,-4,12,-4
3658,-2,16,999,-4,25,-1
3659,-157,78,979,-42,18,2
3660,-162,3,787,10,14,3
3661,-62,-48,830,6,-3,-5
3662,60,-70,925,36,-24,0
3663,152,-112,799,-45,-17,-11
3664,141,-33,942,64,18,-8
3665,21,6,982,-6,26,4
3666,-131,49,950,-62,14,1
3667,-155,27,978,38,9,-3
3668,-107,-20,981,-67,-19,-6
3669,40,-74,1012,-28,-25,-10
3670,138,-93,1003,16,-12,-12
3671,149,-55,1002,-47,-4,-4
3672,59,-1,1000,19,24,-3
3673,-87,29,1017,-16,26,2
3674,-157,29,976,-35,8,1
3675,-90,-1,982,-5,-10,-1
3676,38,-120,1005,-45,-25,-12
3677,100,-160,971,-3,-6,-21
3678,-117,279,814,-139,-71,-3
3679,85,-18,689,-255,-98,-107
3680,47,107,390,-72,11,-81
3681,-13,-50,334,-159,-26,-84
3682,-192,-19,551,262,49,-64
3683,-60,-7,331,-28,-3,-8
3684,95,-116,224,12,-13,-10
3685,147,-124,187,25,17,-15
3686,-56,181,279,-46,15,14
3687,-23,60,176,-54,-28,71
3688,-90,241,155,-136,7,71
3689,-178,-10,571,24,34,10
3690,-79,-202,182,150,19,36
3691,50,-43,57,-17,-41,14
3692,104,-92,130,65,-14,1
3693,-58,20,358,10,45,-16
3694,130,-142,325,-131,27,-3
3695,-13,119,-21,133,21,-27
3696,20,-16,-79,-48,-71,-19
3697,-47,-61,-33,-18,15,21
3698,-6,-79,348,39,55,-21
3699,-190,289,372,-42,117,-38
3700,49,43,499,-407,-78,77
3701,50,96,345,170,19,-74
3702,159,-58,866,68,72,-25
3703,0,-15,847,58,36,22
3704,-108,107,325,-103,-37,9
3705,-182,-55,381,29,-26,-21
3706,-206,204,359,-266,-79,-56
3707,329,-37,448,-693,-318,-158
3708,234,-99,462,90,42,-90
3709,58,145,127,31,-111,-52
3710,-198,-69,542,-312,-9,-60
3711,-133,-30,470,372,94,-44
3712,-23,-33,534,-387,1,-10
3713,-13,-11,600,23,-71,-44
3714,-92,-4,76,85,-103,-11
3715,324,15,426,-166,-152,35
3716,191,111,618,338,149,58
3717,8,150,756,-257,-27,4
3718,-247,-181,673,56,17,-2
3719,-328,172,457,146,41,-6
3720,154,-174,322,-124,15,78
3721,286,-91,474,192,-17,97
3722,231,28,571,72,-9,64
3723,26,-30,550,-185,-6,49
3724,-190,291,642,151,84,-51
3725,73,-123,569,-27,9,12
3726,-27,-8,636,9,-42,60
3727,51,-13,528,161,16,-18
3728,88,-142,499,-112,5,-3
3729,-19,-36,361,54,26,-46
3730,64,-216,279,-69,-3,14
3731,-18,21,456,-112,-21,52
3732,-43,-40,428,69,33,-21
3733,-84,-122,538,-50,15,-6
3734,-66,71,496,-2,-31,8
3735,23,-4,273,22,-5,-17
3736,101,49,284,-54,8,-6
3737,129,-23,388,30,6,-2
3738,-28,-14,340,-24,7,-8
3739,-116,-53,428,-30,6,5
3740,-126,-19,509,1,20,-1
3741,-32,-82,446,-43,-2,-12
3742,54,-45,410,4,-29,-8
3743,136,-14,534,0,-22,-10
3744,79,20,692,-22,14,-4
3745,-18,37,769,0,32,1
3746,-107,3,736,-32,15,-2
3747,-137,-34,694,-32,-7,-2
3748,-56,-84,690,-15,-17,-8
3749,61,-91,814,-19,-16,-12
3750,148,-55,901,2,-10,-9
3751,104,7,946,1,5,-3
3752,3,40,897,-16,20,0
3753,-121,45,856,-13,27,2
3754,-148,-3,921,-31,4,-1
3755,-77,-75,966,-31,-22,-7
3756,64,-99,992,-17,-27,-10
3757,145,-80,995,-11,-10,-9
3758,119,-20,1000,4,13,-6
3759,16,32,1001,-3,22,-1
3760,-111,62,1000,-19,19,1
3761,-154,15,996,-26,6,-3
3762,-98,-45,984,-33,-13,-8
3763,44,-88,1003,-24,-27,-10
3764,137,-98,1013,-13,-19,-10
3765,144,-55,1013,-4,6,-7
3766,37,18,997,1,27,-2
3767,-99,52,995,-8,26,1
3768,-160,27,1001,-22,4,-3
3769,-115,-18,977,-30,-17,-6
3770,30,-75,1005,-26,-24,-10
3771,121,-96,1001,-17,-15,-11
3772,152,-63,1000,-5,2,-6
3773,64,-6,1002,-4,19,-2
3774,-82,36,1010,-9,28,1
3775,-159,35,976,-19,13,-1
3776,-133,0,988,-26,-10,-5
3777,-5,-59,1003,-27,-29,-9
3778,115,-91,1009,-19,-21,-11
3779,165,-65,997,-9,1,-8
3780,79,-20,1006,-3,21,-1
3781,-52,25,1011,-4,23,1
3782,-159,37,980,-17,13,1
3783,-139,8,997,-26,-6,-5
3784,-37,-56,997,-27,-21,-9
3785,105,-77,993,-20,-21,-10
3786,167,-74,1005,-9,-6,-9
3787,100,-29,1008,-4,15,-4
3788,-24,15,1000,-6,27,0
3789,-146,39,982,-14,20,0
3790,-154,11,994,-22,-5,-3
3791,-63,-41,996,-26,-22,-8
3792,87,-73,1008,-21,-21,-11
3793,161,-77,999,-14,-8,-9
3794,124,-42,998,-5,11,-4
3795,3,11,998,-5,24,-1
3796,-129,38,994,-12,21,2
3797,-158,15,994,-23,3,-3
3798,-96,-32,987,-27,-17,-6
3799,66,-66,1004,-22,-27,-10
3800,147,-85,1012,-14,-14,-9
3801,143,-48,1004,-7,7,-5
3802,32,5,996,-3,24,-1
3803,-108,37,993,-11,23,3
3804,-165,20,990,-21,5,-1
3805,-112,-18,988,-27,-15,-7
3806,31,-67,1006,-27,-26,-10
3807,132,-87,1003,-16,-17,-11
3808,156,-55,1000,-6,1,-7
3809,55,0,1003,-5,22,-3
3810,-83,30,1013,-8,26,0
3811,-165,30,972,-18,11,1
3812,-126,-7,987,-26,-11,-6
3813,0,-66,1003,-25,-26,-9
3814,118,-86,999,-19,-20,-11
3815,168,-66,1001,-7,-2,-7
3816,71,-12,1005,-3,20,0
3817,-50,25,1005,-7,25,0
3818,-155,37,983,-16,16,0
3819,-140,4,998,-25,-4,-4
3820,-38,-61,996,-28,-21,-9
3821,106,-85,1000,-19,-23,-11
3822,161,-76,995,-9,-7,-9
3823,102,-28,1006,-4,17,-4
3824,-24,20,1005,-6,26,0
3825,-145,47,985,-14,19,1
3826,-150,10,997,-24,-1,-3
3827,-71,-44,992,-28,-18,-8
3828,84,-79,1004,-24,-25,-11
3829,158,-87,1006,-12,-11,-9
3830,122,-45,999,-2,10,-4
3831,8,16,997,-4,25,-2
3832,-124,45,995,-12,24,1
3833,-161,24,994,-21,3,-3
3834,-92,-27,985,-29,-17,-7
3835,53,-74,1007,-25,-25,-11
3836,142,-89,1002,-16,-14,-9
3837,144,-55,1004,-6,7,-5
3838,39,8,999,-1,22,-1
3839,-98,35,1001,-12,24,2
3840,-162,29,982,-20,8,-2
3841,-112,-8,987,-28,-12,-5
3842,20,-70,1005,-28,-27,-10
3843,123,-88,1001,-16,-19,-10
3844,160,-62,1000,-7,1,-8
3845,61,-6,1009,-4,22,-1
3846,-71,29,1002,-5,26,1
3847,-157,35,984,-17,11,0
3848,-132,0,992,-26,-9,-5
3849,-16,-64,999,-27,-24,-8
3850,113,-82,995,-20,-20,-10
3851,161,-71,1001,-8,-4,-9
3852,86,-20,1007,-1,18,-4
3853,-42,17,1004,-7,26,0
3854,-147,43,979,-14,18,0
3855,-146,5,997,-25,-4,-4
3856,-46,-50,995,-27,-23,-9
3857,95,-80,1005,-21,-24,-10
3858,159,-78,999,-12,-7,-9
3859,108,-32,997,-5,14,-4
3860,-8,17,1002,-4,24,-2
3861,-135,43,990,-16,20,2
3862,-153,14,991,-24,1,-2
3863,-80,-37,989,-29,-19,-8
3864,71,-74,1005,-23,-26,-9
3865,151,-83,1005,-12,-14,-9
3866,132,-49,1006,-6,9,-5
3867,21,14,992,-3,26,0
3868,-112,41,992,-11,23,1
3869,-162,19,993,-22,3,-1
3870,-102,-24,987,-28,-16,-6
3871,42,-71,1004,-25,-26,-11
3872,132,-87,1003,-15,-16,-11
3873,117,-4,935,-14,-3,-2
3874,79,-35,947,-71,-4,-11
3875,-93,18,908,29,40,-3
3876,-143,27,973,-38,2,-1
3877,-144,-13,911,-48,-5,13
3878,-1,-56,723,-146,-61,-15
3879,133,-88,915,-8,-6,-24
3880,157,-57,907,42,5,-12
3881,79,-20,918,-5,15,-2
3882,-72,32,942,9,29,7
3883,-132,44,950,-33,17,2
3884,-112,9,986,-49,-6,1
3885,-30,-96,981,-10,-23,-11
3886,83,-158,973,-31,-20,-21
3887,-67,105,950,45,-22,-42
3888,264,0,681,113,-39,-182
3889,-59,13,409,-19,-5,-109
3890,-18,-129,374,81,43,-120
3891,-172,-22,716,-24,1,-83
3892,-119,-12,317,102,-36,-121
3893,10,-136,409,87,-31,-42
3894,94,-29,668,100,21,-7
3895,210,-42,819,-11,35,1
3896,116,-50,847,21,34,6
3897,-168,30,906,47,16,0
3898,-263,195,574,61,21,3
3899,-39,14,556,46,7,34
3900,123,31,-19,0,-45,-15
3901,5,-67,469,-69,8,4
3902,61,50,489,1,-13,5
3903,142,-18,377,-110,25,3
3904,0,13,565,48,50,7
3905,-204,-51,836,-6,14,3
3906,-205,134,441,-204,27,-45
3907,130,-58,559,-303,-105,20
3908,-83,-8,119,202,73,-107
3909,253,-29,290,-226,10,-51
3910,112,98,198,220,-27,-19
3911,-50,-37,396,-140,27,-21
3912,-135,-65,621,-70,0,-3
3913,-198,-28,736,127,33,-11
3914,-42,-113,838,-94,-32,-10
3915,66,-38,846,47,-22,-17
3916,-6,122,727,-60,-6,-24
3917,-17,-116,338,-433,-144,-177
3918,172,150,508,-81,-65,-159
3919,-128,55,-232,94,-18,-139
3920,-27,-274,81,-266,-27,-90
3921,-161,-96,123,472,38,-51
3922,-48,69,18,-274,-28,-19
3923,104,-35,177,238,6,-33
3924,242,25,171,95,6,9
3925,139,-42,311,-106,3,1
3926,-221,151,363,-142,153,-40
3927,-25,33,641,-568,-76,121
3928,-66,181,-19,98,5,3
3929,117,-215,209,130,-50,-45
3930,202,-50,293,-38,-18,50
3931,-87,234,416,69,20,10
3932,47,-197,455,45,8,-75
3933,88,-32,503,183,19,61
3934,-57,287,83,336,70,14
3935,-70,-256,275,44,16,-64
3936,-31,-188,280,43,-14,46
3937,-94,335,209,185,41,-17
3938,67,-115,7,236,-30,-80
3939,240,-128,364,341,17,61
3940,57,134,548,108,19,39
3941,-146,-128,479,103,97,-17
3942,-171,117,526,49,28,-53
3943,186,-294,177,73,-19,-10
3944,166,-129,362,64,-29,44
3945,165,65,552,104,41,13
3946,52,-139,713,-55,12,6
3947,-128,112,332,19,22,6
3948,-105,-23,513,37,34,0
3949,-151,40,283,-51,11,5
3950,-18,-72,239,-8,-21,-4
3951,59,-71,352,-6,-32,-16
3952,83,-68,355,-36,-15,1
3953,97,12,460,20,28,-5
3954,-30,0,455,-19,40,1
3955,-123,36,506,-19,14,2
3956,-131,0,681,-15,-6,-4
3957,-81,-53,799,-38,-17,-8
3958,64,-61,849,-9,-20,-8
3959,159,-70,817,-4,-12,-12
3960,98,-32,779,-5,9,1
3961,23,22,756,1,22,-3
3962,-120,27,797,-24,28,1
3963,-155,7,859,-26,3,-1
3964,-90,-40,853,-27,-23,-7
3965,42,-78,915,-27,-28,-10
3966,136,-72,943,-9,-14,-9
3967,144,-45,956,-3,10,-8
3968,40,8,956,-7,25,-1
3969,-94,38,992,-8,23,1
3970,-161,15,997,-25,5,-3
3971,-122,-22,980,-23,-12,-4
3972,27,-69,1007,-23,-26,-10
3973,124,-88,1004,-18,-18,-10
3974,164,-51,994,-3,2,-7
3975,65,0,1010,-6,23,-1
3976,-80,34,1007,-9,26,1
3977,-164,28,984,-18,11,0
3978,-135,-6,988,-29,-10,-5
3979,-7,-63,1011,-25,-25,-10
3980,121,-89,1007,-16,-20,-12
3981,167,-66,1000,-7,-2,-7
3982,85,-9,1006,-2,18,-3
3983,-51,24,1008,-8,25,0
3984,-156,36,975,-18,17,0
3985,-146,2,1001,-26,-4,-4
3986,-39,-57,993,-29,-21,-8
3987,108,-86,993,-18,-24,-11
3988,168,-73,999,-8,-8,-8
3989,106,-26,1004,-5,16,-3
3990,-22,18,1007,-5,25,0
3991,-149,44,979,-15,19,2
3992,-157,13,1000,-23,-1,-3
3993,-72,-49,993,-28,-20,-8
3994,85,-81,1006,-23,-25,-10
3995,163,-82,999,-11,-11,-10
3996,125,-38,997,-3,10,-4
3997,4,19,1004,-4,24,-1
3998,-127,46,992,-13,24,1
3999,-164,14,997,-23,5,-2
4000,-97,-30,982,-27,-17,-7
4001,58,-76,1005,-23,-27,-10
4002,145,-89,1006,-13,-16,-10
4003,146,-51,1002,-6,6,-6
4004,37,8,998,-2,25,-2
4005,-106,41,999,-11,25,2
4006,-162,27,986,-22,7,-1
4007,-115,-15,987,-28,-12,-5
4008,26,-71,1001,-27,-27,-10
4009,125,-94,1004,-15,-18,-11
4010,158,-60,998,-5,0,-6
4011,60,-3,1009,-3,23,-1
4012,-73,33,1009,-8,27,2
4013,-159,36,980,-18,13,0
4014,-129,-3,987,-27,-10,-5
4015,-11,-65,1002,-25,-26,-10
4016,114,-89,999,-18,-21,-9
4017,165,-68,1000,-7,-4,-8
4018,81,-16,1007,-2,17,-2
4019,-43,28,1006,-5,26,0
4020,-149,44,985,-15,17,1
4021,-145,8,997,-25,-5,-3
4022,-41,-56,995,-29,-23,-10
4023,96,-85,999,-20,-24,-10
4024,164,-76,998,-12,-8,-9
4025,110,-36,1005,-4,16,-3
4026,-18,21,1003,-4,27,0
4027,-136,44,987,-14,19,2
4028,-157,13,993,-25,-1,-2
4029,-73,-42,991,-27,-18,-8
4030,76,-74,1007,-23,-25,-11
4031,152,-81,1002,-14,-11,-10
4032,131,-47,1003,-3,10,-4
4033,13,12,993,-4,25,0
4034,-116,40,991,-12,24,2
4035,-162,20,995,-19,4,-2
4036,-102,-23,982,-28,-18,-6
4037,50,-70,1008,-23,-26,-10
4038,135,-87,1006,-15,-16,-9
4039,148,-51,1001,-5,5,-5
4040,46,3,1002,-3,23,-2
4041,-97,30,1005,-11,25,1
4042,-159,30,974,-20,8,-2
4043,-121,-10,989,-27,-12,-7
4044,13,-66,1003,-27,-25,-11
4045,123,-87,1003,-15,-19,-11
4046,160,-57,999,-8,0,-7
4047,66,-10,1006,-2,22,-2
4048,-63,28,1004,-7,26,0
4049,-162,36,983,-19,13,0
4050,-134,1,990,-26,-9,-5
4051,-20,-65,999,-27,-23,-10
4052,110,-84,993,-19,-21,-10
4053,162,-68,1003,-6,-6,-9
4054,93,-20,1009,4,15,-6
4055,-36,22,1002,-8,27,1
4056,-146,45,980,-16,18,0
4057,-148,5,999,-24,-3,-3
4058,-55,-53,993,-29,-22,-9
4059,92,-85,1004,-21,-23,-12
4060,161,-77,1000,-10,-8,-10
4061,115,-38,997,-3,13,-3
4062,-4,20,1003,-2,25,0
4063,-134,45,990,-15,21,2
4064,-157,14,993,-25,1,-2
4065,-86,-39,987,-28,-17,-8
4066,67,-75,1002,-23,-26,-11
4067,149,-87,1009,-13,-12,-10
4068,137,-52,1004,-6,9,-5
4069,24,13,994,-4,24,0
4070,-111,40,991,-9,23,2
4071,-161,21,990,-21,6,-1
4072,-106,-19,989,-28,-14,-6
4073,40,-73,1005,-25,-24,-10
4074,131,-89,1003,-14,-16,-11
4075,153,-53,998,-6,2,-7
4076,51,-1,1008,-2,20,-1
4077,-86,33,1006,-8,25,1
4078,-160,33,977,-18,11,-1
4079,-126,-6,989,-25,-11,-5
4080,2,-69,1004,-26,-26,-10
4081,125,-88,1003,-18,-19,-10
4082,161,-66,999,-8,0,-6
4083,75,-10,1006,-1,19,-2
4084,-57,26,1007,-8,26,2
4085,-185,64,999,-1,15,1
4086,-146,14,657,-18,-3,1
4087,17,-104,915,15,-41,-6
4088,101,-64,812,-161,-31,-5
4089,169,-85,626,72,23,-13
4090,56,-29,852,-24,21,-8
4091,-17,30,688,4,28,2
4092,-138,55,736,42,21,4
4093,-117,0,683,-82,-10,-1
4094,-34,-76,819,-1,-16,-8
4095,66,-130,906,-19,-16,-17
4096,41,125,903,-82,-28,-10
4097,44,4,882,-247,-75,-76
4098,76,-40,680,181,30,-141
4099,-196,109,462,-110,-22,-46
4100,-137,122,268,-37,-28,-57
4101,53,-7,230,-216,-87,-67
4102,104,1,262,-141,-24,-76
4103,37,-31,318,196,-6,-45
4104,106,-42,434,-40,-16,-19
4105,23,-29,692,65,38,-18
4106,-223,267,669,122,140,25
4107,54,1,649,-463,-37,96
4108,-135,-134,214,-21,9,42
4109,51,41,441,-168,-108,-3
4110,34,-13,239,-227,-62,-45
4111,130,-103,358,294,89,-36
4112,68,-38,363,-189,0,-5
4113,-46,-54,479,69,-1,-14
4114,-243,329,537,67,41,-32
4115,-48,90,759,-209,-1,11
4116,-208,36,281,290,0,-24
4117,86,-177,143,-204,-55,-9
4118,130,45,168,101,7,0
4119,120,-102,138,14,57,33
4120,31,10,404,-95,20,6
4121,-283,41,476,-70,58,-31
4122,-34,-94,397,-396,-107,51
4123,-112,18,508,-63,-78,23
4124,166,-105,201,-163,-40,-16
4125,169,-116,215,14,-21,-29
4126,117,-104,421,-196,15,23
4127,-1,66,630,6,23,-1
4128,-124,14,613,-84,34,-8
4129,-131,-18,863,-68,-23,-3
4130,-215,57,713,161,12,-38
4131,188,146,582,36,17,31
4132,177,98,266,314,-23,123
4133,-28,110,92,-354,-33,42
4134,-123,-113,450,-129,15,48
4135,-97,-88,-65,136,82,-33
4136,-65,-22,321,-56,14,6
4137,-117,1,16,-64,-112,8
4138,93,-158,164,-130,-44,-4
4139,171,-137,173,122,59,-10
4140,-118,199,542,-136,42,-11
4141,157,73,635,-435,5,43
4142,42,-35,685,-28,-56,57
4143,10,197,177,-253,68,-15
4144,11,-358,344,-114,-12,35
4145,30,-26,608,-14,-31,30
4146,-59,-165,608,-149,-60,10
4147,-10,-114,399,134,29,-72
4148,163,-79,360,-331,3,123
4149,40,91,344,-7,51,32
4150,0,-127,441,-118,-61,-31
4151,-68,-75,356,-192,-68,47
4152,-170,198,396,11,81,-5
4153,37,-220,612,95,52,-9
4154,195,-168,281,72,-93,96
4155,29,181,181,112,-41,61
4156,-31,-60,657,-19,82,1
4157,-52,-169,479,21,65,65
4158,-52,51,292,-10,-16,10
4159,-338,38,350,-60,-47,-72
4160,103,-192,351,112,1,34
4161,206,-75,439,-115,-8,60
4162,42,143,295,139,57,-6
4163,144,-51,125,-68,-11,37
4164,25,8,319,-34,-3,45
4165,-152,-1,609,60,63,-6
4166,-172,-135,476,-73,0,-2
4167,-35,-14,370,13,-36,2
4168,87,-50,115,24,-13,-14
4169,134,7,321,-30,-2,-5
4170,141,14,273,20,11,-4
4171,-72,42,275,-25,11,2
4172,-135,0,327,-53,8,1
4173,-137,-35,419,3,24,-5
4174,-42,-87,406,-46,-9,-9
4175,78,-96,555,-12,-35,-10
4176,147,-40,718,15,-20,-11
4177,93,10,785,-19,15,-2
4178,-23,60,781,4,37,0
4179,-124,30,765,-23,21,-2
4180,-141,-15,707,-40,-7,-1
4181,-58,-76,720,-17,-19,-8
4182,69,-107,777,-24,-19,-11
4183,153,-72,833,-7,-12,-8
4184,109,-14,866,4,7,-4
4185,-1,32,903,-13,23,-1
4186,-120,48,874,-11,25,2
4187,-157,19,932,-27,2,-1
4188,-83,-56,960,-33,-24,-8
4189,63,-91,987,-18,-30,-10
4190,148,-85,990,-16,-10,-8
4191,125,-38,1007,-1,15,-5
4192,25,13,1010,-1,23,-3
4193,-120,53,986,-14,19,3
4194,-161,26,1001,-21,4,-3
4195,-106,-34,997,-28,-15,-9
4196,42,-72,1006,-26,-26,-10
4197,150,-89,1013,-13,-17,-11
4198,149,-63,1008,-6,7,-5
4199,43,5,990,-3,26,-1
4200,-100,38,999,-8,25,1
4201,-172,26,989,-21,7,-1
4202,-128,-14,981,-26,-15,-5
4203,29,-67,1008,-26,-25,-9
4204,130,-88,1005,-18,-14,-9
4205,168,-61,999,-6,3,-7
4206,63,-6,1002,-3,19,-3
4207,-84,29,1003,-9,23,1
4208,-171,27,980,-16,12,-2
4209,-139,2,982,-24,-9,-4
4210,-4,-60,1008,-26,-26,-11
4211,121,-86,1006,-17,-20,-11
4212,173,-68,999,-10,0,-8
4213,82,-13,1006,-3,21,-3
4214,-59,20,1008,-7,26,0
4215,-164,33,979,-16,14,1
4216,-149,5,997,-24,-6,-4
4217,-37,-54,998,-27,-21,-9
4218,111,-78,994,-19,-22,-11
4219,172,-71,1006,-8,-8,-8
4220,103,-23,1003,-4,14,-3
4221,-27,11,1007,-6,26,0
4222,-152,42,978,-14,21,2
4223,-161,8,995,-22,-1,-3
4224,-63,-44,999,-28,-22,-10
4225,89,-73,1004,-22,-25,-11
4226,165,-76,997,-13,-11,-10
4227,125,-39,1000,-3,11,-4
4228,-1,20,1000,-5,24,0
4229,-129,39,992,-14,21,1
4230,-162,11,994,-24,4,-3
4231,-92,-32,989,-27,-16,-7
4232,64,-72,1001,-22,-28,-10
4233,148,-85,1016,-12,-16,-10
4234,146,-49,1000,-6,7,-5
4235,29,9,995,-4,25,-2
4236,-109,40,996,-11,25,2
4237,-167,21,989,-21,7,-2
4238,-111,-18,986,-27,-12,-8
4239,30,-72,1004,-25,-25,-10
4240,131,-89,1003,-15,-18,-10
4241,156,-58,996,-4,2,-5
4242,56,1,1006,-4,22,-1
4243,-82,29,1012,-9,28,2
4244,-158,28,974,-19,13,0
4245,-129,-6,988,-26,-10,-5
4246,-2,-70,1002,-25,-27,-9
4247,117,-86,998,-18,-20,-10
4248,167,-60,1002,-8,-3,-8
4249,76,-11,1008,-2,19,-2
4250,-44,26,1009,-7,25,-1
4251,-153,36,981,-17,17,0
4252,-143,1,993,-25,-5,-4
4253,-42,-62,995,-28,-24,-8
4254,99,-83,995,-17,-23,-10
4255,160,-71,998,-9,-9,-9
4256,105,-25,1007,-3,15,-3
4257,-16,23,1001,-3,27,-1
4258,-138,46,986,-14,20,2
4259,-154,9,995,-24,-2,-4
4260,-73,-47,992,-28,-20,-10
4261,77,-80,1003,-22,-25,-11
4262,152,-84,1003,-11,-13,-9
4263,131,-45,999,-2,10,-5
4264,14,19,999,-4,24,-1
4265,-117,41,991,-11,23,1
4266,-162,21,994,-22,5,-2
4267,-101,-25,982,-28,-17,-7
4268,46,-75,1008,-24,-26,-10
4269,137,-89,1005,-15,-14,-10
4270,147,-58,1001,-4,5,-6
4271,48,5,1000,-3,23,-3
4272,-91,36,1007,-10,27,3
4273,-161,34,976,-21,9,-2
4274,-117,-11,988,-28,-13,-7
4275,11,-72,1003,-26,-26,-10
4276,120,-92,1000,-16,-19,-11
4277,162,-65,1005,-6,0,-7
4278,66,-9,1000,-2,22,-1
4279,-60,33,1009,-5,25,0
4280,-160,39,982,-18,12,0
4281,-138,5,989,-27,-8,-4
4282,-20,-66,1001,-27,-23,-9
4283,104,-87,992,-20,-20,-10
4284,167,-73,1002,-9,-5,-9
4285,94,-22,1008,-1,17,-2
4286,-37,25,1004,-6,27,1
4287,-143,47,980,-13,19,0
4288,-152,12,1002,-25,-3,-2
4289,-56,-48,991,-27,-22,-7
4290,90,-81,1010,-21,-23,-10
4291,160,-81,995,-12,-8,-10
4292,117,-42,998,-2,13,-4
4293,-3,16,1003,-3,24,-2
4294,-150,87,960,-15,22,2
4295,-156,29,729,-39,1,-4
4296,-91,-91,850,1,-9,-7
4297,79,-61,900,-39,-41,-6
4298,152,-77,724,2,-12,3
4299,126,-44,848,-39,-1,-9
4300,28,13,1013,-17,25,-1
4301,-117,43,971,14,22,-1
4302,-152,23,972,-51,-4,-2
4303,-111,-18,981,-15,-11,-5
4304,39,-75,992,-27,-22,-11
4305,132,-93,995,-26,-19,-10
4306,147,-54,1005,11,3,-8
4307,52,-5,1007,-11,24,-3
4308,-89,33,1014,-10,29,3
4309,-155,31,980,-14,11,0
4310,-118,-8,990,-37,-15,-4
4311,2,-66,1000,-26,-26,-8
4312,114,-83,995,-19,-16,-9
4313,161,-65,1004,-12,0,-7
4314,71,-9,1001,-3,17,0
4315,-47,19,1007,-18,21,1
4316,-151,34,974,-19,14,2
4317,-150,0,1007,-25,-4,-5
4318,-3,-74,990,-33,-21,-9
4319,138,-130,1012,-7,-18,-12
4320,58,-45,1024,-7,6,-23
4321,13,54,533,-336,-103,-16
4322,2,161,472,-14,-15,-76
4323,-34,-55,264,-272,30,-12
4324,-53,-125,256,255,33,-10
4325,-5,-95,458,109,8,7
4326,83,28,299,-145,-17,11
4327,55,-62,125,232,52,0
4328,-4,-49,353,-158,0,0
4329,-105,124,299,-133,-17,26
4330,11,168,231,325,56,53
4331,-74,185,273,-29,11,19
4332,-130,-26,276,31,-7,-4
4333,-23,-24,213,-64,13,4
4334,78,-129,289,112,17,20
4335,139,-104,337,-54,9,0
4336,-210,141,175,-23,31,-2
4337,57,-78,817,-82,-7,6
4338,-100,108,524,108,58,-9
4339,19,-58,325,-21,-20,-5
4340,-75,-219,123,-49,-46,-3
4341,72,-157,438,4,13,2
4342,135,-60,358,46,29,-3
4343,-17,21,235,-506,21,50
4344,-56,362,194,-3,-11,178
4345,-80,68,367,-12,-51,87
4346,1,-94,285,-233,21,44
4347,33,-104,161,113,61,18
4348,88,-76,114,-319,-21,34
4349,21,-165,213,150,-28,1
4350,-1,19,479,-18,-35,10
4351,14,34,478,-196,48,-1
4352,-157,63,544,164,55,1
4353,-112,70,634,-386,-84,-104
4354,175,112,714,57,-180,-103
4355,20,29,12,32,39,-78
4356,100,-33,-118,221,98,-84
4357,-20,48,157,274,-27,-3
4358,0,187,132,-215,-91,3
4359,-45,-59,253,156,68,-3
4360,-356,165,271,92,88,-7
4361,30,93,302,185,-27,-138
4362,123,97,608,96,-57,25
4363,146,89,0,41,3,-34
4364,136,-68,393,87,74,-24
4365,62,141,429,34,1,25
4366,-170,-10,354,20,26,-41
4367,-31,-51,428,-138,-65,-73
4368,-10,-62,231,-115,-42,47
4369,55,281,123,54,3,-62
4370,54,-243,159,-84,-2,-25
4371,217,-62,162,-1,-20,33
4372,-128,281,284,91,31,-4
4373,43,-141,77,76,-16,38
4374,33,-106,367,104,2,102
4375,25,145,477,30,38,15
4376,-92,-190,423,-10,23,1
4377,-33,58,268,141,4,-48
4378,203,-243,137,64,-9,56
4379,196,-52,238,165,3,36
4380,-96,199,441,-29,16,-46
4381,16,-219,154,54,42,7
4382,-84,94,542,-122,-3,37
4383,-67,-46,778,-14,-4,-36
4384,-66,-87,597,-10,-4,-7
4385,87,15,299,-22,-38,0
4386,93,-31,261,0,-3,-16
4387,62,9,238,-39,15,2
4388,32,5,328,-19,32,1
4389,-112,-15,275,-16,26,-5
4390,-97,-59,326,-42,-19,0
4391,-26,-54,392,-1,-19,-9
4392,48,-67,524,-18,-11,-9
4393,142,-22,795,-13,-3,-8
4394,81,1,879,-3,18,-5
4395,-50,39,750,-23,22,3
4396,-120,10,694,-22,11,-3
4397,-145,-35,627,-22,-6,-4
4398,-22,-67,702,-31,-27,-8
4399,87,-83,784,-7,-15,-12
4400,139,-45,768,-8,5,-5
4401,101,9,781,-3,19,-4
4402,-45,34,866,-5,24,1
4403,-145,25,901,-23,9,-1
4404,-148,-11,953,-26,-6,-3
4405,-36,-68,1004,-23,-19,-9
4406,98,-89,977,-20,-19,-10
4407,169,-67,986,-8,-5,-10
4408,97,-8,993,-4,17,-3
4409,-40,32,1011,-6,25,1
4410,-148,36,984,-18,15,1
4411,-160,5,995,-30,-4,-2
4412,-43,-60,992,-29,-18,-10
4413,95,-91,994,-19,-20,-10
4414,169,-68,996,-8,-9,-8
4415,110,-27,1008,-3,12,-4
4416,-20,23,1004,-6,23,-1
4417,-152,49,984,-14,22,3
4418,-157,19,1001,-25,3,-3
4419,-73,-51,996,-31,-20,-7
4420,90,-81,1005,-22,-26,-12
4421,164,-84,1002,-14,-12,-11
4422,122,-44,995,-1,11,-5
4423,4,12,1005,-2,25,-1
4424,-135,49,999,-13,23,3
4425,-160,20,995,-23,5,-3
4426,-91,-31,987,-28,-14,-9
4427,64,-69,1001,-24,-27,-11
4428,146,-86,1008,-14,-17,-10
4429,140,-56,1002,-6,6,-5
4430,25,1,992,-3,25,-1
4431,-107,38,998,-8,25,2
4432,-166,21,990,-21,7,-1
4433,-109,-11,985,-26,-14,-7
4434,33,-67,1007,-26,-26,-10
4435,122,-84,1001,-17,-17,-10
4436,157,-63,998,-7,0,-7
4437,50,-3,1011,-3,23,-2
4438,-77,29,1007,-10,27,2
4439,-155,31,981,-18,12,-1
4440,-127,-1,985,-28,-10,-5
4441,-7,-62,998,-26,-26,-11
4442,114,-86,1001,-18,-21,-12
4443,155,-66,997,-9,-4,-7
4444,78,-13,1008,-2,18,-4
4445,-44,20,1010,-7,27,-2
4446,-147,37,979,-16,18,1
4447,-140,3,997,-23,-5,-4
4448,-39,-54,996,-27,-22,-10
4449,94,-80,995,-18,-24,-10
4450,155,-70,1000,-10,-7,-7
4451,106,-30,1003,-4,17,-4
4452,-13,15,999,-4,27,0
4453,-130,41,991,-14,19,2
4454,-153,11,995,-25,-1,-1
4455,-76,-39,987,-27,-20,-8
4456,72,-74,1006,-23,-25,-10
4457,142,-81,1006,-12,-10,-9
4458,131,-46,1005,-5,9,-6
4459,18,10,995,-6,25,-3
4460,-109,41,991,-11,23,0
4461,-155,19,995,-22,3,-4
4462,-104,-24,982,-28,-16,-6
4463,39,-72,1010,-23,-24,-10
4464,131,-88,1002,-16,-13,-11
4465,150,-52,1002,-3,6,-6
4466,53,7,1002,-2,21,-2
4467,-88,34,1009,-11,25,0
4468,-162,29,972,-21,10,-2
4469,-121,-12,986,-27,-12,-6
4470,2,-71,1005,-25,-25,-9
4471,116,-85,999,-16,-18,-10
4472,160,-59,1003,-8,1,-7
4473,70,-10,1002,-2,20,-1
4474,-53,28,1010,-7,24,0
4475,-155,36,980,-18,13,1
4476,-140,2,998,-26,-6,-4
4477,-32,-63,996,-28,-22,-10
4478,102,-84,992,-17,-22,-10
4479,164,-73,1002,-10,-6,-9
4480,97,-26,1006,-5,18,-3
4481,-26,24,1004,-6,25,-1
4482,-143,41,981,-15,18,0
4483,-152,11,999,-24,-4,-3
4484,-64,-44,996,-28,-21,-8
4485,89,-79,1005,-23,-22,-10
4486,156,-82,1002,-12,-8,-9
4487,123,-43,997,-2,12,-4
4488,0,9,997,-4,24,-3
4489,-124,43,993,-12,22,1
4490,-157,18,996,-21,3,-2
4491,-90,-26,986,-26,-18,-8
4492,58,-72,1006,-25,-25,-9
