sequence,AccelerometerX,AccelerometerY,AccelerometerZ,GyroscopeX,GyroscopeY,GyroscopeZ
0,163,40,1007,-19,12,-1
1,22,11,1010,-19,29,4
2,-143,-5,979,-18,27,4
3,-196,-11,979,-13,7,0
4,-128,0,983,-10,-17,-6
5,48,33,1004,-5,-30,-9
6,184,52,1009,-14,-21,-8
7,180,41,1006,-16,7,-3
8,67,23,1013,-22,28,3
9,-111,3,993,-19,29,5
10,-196,-14,976,-21,8,0
11,-163,-4,976,1,-6,-1
12,12,29,1012,-8,-29,-8
13,155,45,1012,-9,-24,-10
14,200,40,1005,-13,-2,-5
15,104,32,995,-18,23,3
16,-74,4,1003,-17,31,6
17,-188,-14,986,-18,17,2
18,-187,-4,967,-11,-7,-3
19,-25,25,1003,-6,-26,-7
20,117,40,1016,-11,-26,-9
21,208,47,1009,-11,-7,-5
22,138,34,1005,-20,18,2
23,-38,6,1002,-21,31,6
24,-171,-12,973,-17,22,3
25,-194,-7,971,-11,0,0
26,-76,15,998,-6,-24,-6
27,89,30,1019,-9,-28,-10
28,203,52,1012,-13,-13,-8
29,158,40,1005,-18,14,1
30,11,9,1011,-19,30,3
31,-151,-3,981,-16,25,4
32,-200,-7,973,-13,4,1
33,-117,0,982,-8,-18,-5
34,58,32,1005,-9,-29,-8
35,190,52,1012,-12,-18,-9
36,178,41,1012,-18,9,-1
37,53,20,1012,-21,28,4
38,-120,3,985,-17,29,5
39,-201,-14,974,-16,11,2
40,-161,5,978,-11,-14,-4
41,6,40,1024,28,-19,5
42,170,36,1015,-44,-34,-8
43,207,45,902,-60,10,-10
44,97,6,775,-12,31,-5
45,-96,13,751,-53,34,4
46,-182,-19,876,-4,28,-1
47,-187,-2,948,10,-8,-7
48,-17,37,959,-42,-33,-8
49,135,46,1011,20,-22,-12
50,205,47,1011,-25,-5,-5
51,142,39,995,-36,18,4
52,-49,0,1014,6,33,6
53,-178,-22,968,-47,17,1
54,-193,-12,964,3,0,0
55,-70,19,1010,-6,-24,-8
56,93,38,1016,-23,-29,-11
57,219,59,1011,4,-14,-5
58,157,52,1003,-32,14,1
59,10,-6,1007,-20,32,4
60,-157,-2,996,-12,24,8
61,-187,-22,948,-24,5,2
62,-99,-46,996,1,-17,-9
63,45,-3,1016,5,-22,-13
64,71,208,543,-38,-33,-24
65,159,-114,159,236,-70,-18
66,48,52,226,-258,62,35
67,-2,-63,163,308,0,-29
68,-85,-86,315,-344,45,50
69,-224,-23,633,271,-98,-10
70,8,18,823,-109,10,0
71,124,79,597,-98,-35,-1
72,265,38,811,271,10,-12
73,134,-8,713,-397,0,12
74,-139,97,640,294,67,-8
75,-155,10,290,-170,9,-9
76,-136,-73,680,-95,-2,-29
77,212,46,683,277,-27,-24
78,131,-79,426,-278,-52,-15
79,181,53,548,59,56,-19
80,150,14,323,50,19,1
81,-62,7,538,-180,13,2
82,-176,-34,611,208,9,-11
83,-221,-30,356,-101,48,-10
84,-66,51,390,0,-10,-22
85,20,181,553,131,-30,-27
86,15,-13,346,-337,-13,-129
87,323,72,73,-88,53,-8
88,77,78,389,-250,88,-34
89,-59,-362,147,-159,121,-110
90,-175,-20,161,64,37,-19
91,-163,52,106,-84,-27,2
92,-5,48,-28,260,-11,-7
93,170,220,228,-63,-71,40
94,234,65,905,-7,-46,16
95,65,-3,688,17,24,12
96,-63,-56,742,-145,29,20
97,-156,-197,681,59,19,10
98,-241,137,713,20,-36,-9
99,-42,-140,363,91,-21,-130
100,-34,119,270,69,49,8
101,266,101,222,45,-31,-60
102,80,-24,282,130,33,-11
103,-45,66,159,-17,-21,35
104,-150,-199,219,-10,40,22
105,-199,-151,69,35,-2,-2
106,-256,179,401,101,-3,-91
107,121,-115,387,41,-19,-35
108,200,241,574,333,-24,-11
109,138,86,364,68,-19,-43
110,-100,-39,424,60,11,30
111,-62,-32,433,243,6,20
112,-172,-223,202,-154,-28,22
113,-224,201,318,211,-29,-15
114,-222,-287,403,-103,34,-44
115,57,-46,793,-32,-78,46
116,99,291,306,85,36,-34
117,-101,-50,554,-147,45,13
118,-63,107,278,-29,25,26
119,-227,-168,542,-12,19,16
120,-183,-50,471,-33,-31,-7
121,-99,161,794,118,-31,-27
122,304,-257,358,-228,66,-60
123,254,69,512,240,-14,37
124,61,196,319,-1,-79,-25
125,216,-128,533,-190,78,-27
126,-17,-5,448,231,161,29
127,-28,-36,483,-239,-4,0
128,10,-137,869,134,-148,-25
129,199,144,624,27,-43,1
130,183,27,684,-172,103,-3
131,102,62,811,161,53,-11
132,-52,54,974,-143,-70,16
133,-193,9,836,36,-5,-2
134,-192,-36,721,-6,70,-4
135,-68,18,686,-93,3,-5
136,112,8,651,85,-72,-12
137,225,16,760,-59,-58,-6
138,152,39,878,-11,49,2
139,-21,23,989,4,84,4
140,-187,13,1006,-62,10,7
141,-221,12,950,31,-35,2
142,-64,12,983,-24,-31,-8
143,98,31,1013,-26,-4,-9
144,199,32,1008,6,1,-6
145,169,27,981,-39,-5,0
146,-4,9,1003,-5,19,7
147,-158,-7,990,-12,36,4
148,-199,0,968,-23,15,-1
149,-105,21,979,3,-26,-6
150,59,36,1000,-16,-42,-9
151,197,48,1012,-12,-15,-9
152,172,40,1012,-18,21,-2
153,30,8,1019,-31,32,4
154,-136,-10,988,-14,20,5
155,-205,-11,964,-11,1,1
156,-127,5,977,-6,-16,-6
157,42,34,1007,-3,-22,-9
158,186,61,1013,-16,-19,-8
159,181,50,1019,-19,4,-2
160,55,18,1023,-23,27,5
161,-116,0,983,-24,29,6
162,-193,-20,974,-13,9,2
163,-157,-10,975,-10,-15,-3
164,20,24,1006,-6,-28,-8
165,167,51,1014,-9,-19,-10
166,189,48,1004,-19,4,-2
167,90,35,1013,-20,22,3
168,-86,9,1002,-19,29,8
169,-193,-14,979,-16,13,3
170,-176,-9,962,-9,-8,-3
171,-7,16,1008,-7,-26,-9
172,139,41,1024,-10,-25,-10
173,202,40,1013,-15,-3,-5
174,123,41,997,-18,21,2
175,-53,12,996,-18,29,6
176,-187,-11,981,-15,18,3
177,-196,-2,969,-11,-2,-1
178,-47,17,1005,-10,-24,-8
179,103,29,1020,-13,-25,-10
180,207,48,1010,-13,-10,-7
181,151,33,1005,-17,14,0
182,-13,7,1010,-18,30,7
183,-164,-7,971,-17,26,4
184,-197,-3,962,-11,2,1
185,-94,12,999,-9,-22,-7
186,73,37,1018,-10,-28,-9
187,200,50,1014,-15,-16,-8
188,170,37,1009,-16,10,-1
189,26,5,1003,-20,27,5
190,-136,-5,980,-17,27,5
191,-199,-13,982,-13,9,1
192,-138,8,978,-11,-15,-4
193,42,36,1012,-9,-30,-10
194,176,55,1014,-12,-20,-9
195,184,39,1004,-19,4,-2
196,70,16,1006,-20,24,3
197,-103,0,995,-19,30,5
198,-188,-18,980,-15,14,2
199,-169,-1,976,-7,-9,-3
200,7,32,1015,-8,-28,-8
201,146,52,1014,-11,-23,-8
202,196,42,1001,-16,-3,-5
203,109,33,995,-21,20,3
204,-70,5,1000,-21,30,6
205,-182,-22,985,-17,17,2
206,-184,-6,969,-12,-6,-3
207,-32,21,1010,-7,-27,-8
208,115,40,1015,-9,-25,-10
209,204,50,1007,-12,-8,-6
210,140,42,1001,-18,17,1
211,-31,7,1007,-23,30,5
212,-166,-11,976,-18,22,4
213,-194,-9,968,-15,0,1
214,-76,14,1003,-8,-24,-6
215,84,31,1016,-8,-28,-9
216,197,53,1010,-12,-13,-6
217,162,41,1005,-18,13,-1
218,11,12,1014,-18,29,5
219,-145,-1,976,-19,25,4
220,-197,-10,982,-15,6,0
221,-121,5,982,-11,-18,-6
222,51,25,1002,-9,-30,-9
223,187,51,1014,-9,-20,-9
224,173,36,1008,-17,7,-2
225,63,19,1014,-20,27,3
226,-116,2,989,-18,30,6
227,-193,-5,979,-15,9,0
228,-157,-4,980,-10,-15,-4
229,13,32,1009,-9,-29,-9
230,162,47,1008,-12,-22,-9
231,194,34,1004,-14,1,-2
232,98,31,997,-21,22,4
233,-78,4,1006,-18,32,7
234,-188,-13,989,-16,16,2
235,-182,-3,966,-13,-7,-2
236,-13,27,1005,-6,-28,-8
237,121,41,1020,-12,-26,-8
238,206,46,1010,-15,-6,-6
239,132,32,999,-19,20,0
240,-43,10,1005,-20,29,6
241,-171,-15,974,-17,20,3
242,-195,-1,974,-10,-1,0
243,-67,13,997,-10,-24,-6
244,88,37,1017,-6,-27,-10
245,213,50,1011,-13,-13,-8
246,154,41,1003,-19,15,1
247,3,12,1012,-20,31,5
248,-153,-12,978,-21,25,4
249,-200,-4,970,-11,3,1
250,-108,1,983,-9,-20,-4
251,61,36,1016,-8,-28,-9
252,192,53,1007,-10,-17,-9
253,173,38,1012,-18,9,-2
254,49,16,1016,-19,28,5
255,-125,0,981,-17,29,5
256,-195,-13,977,-14,10,1
257,-152,-1,978,-9,-14,-4
258,32,36,1012,-7,-30,-9
259,170,46,1007,-14,-21,-10
260,191,42,1005,-16,3,-4
261,86,21,1003,-20,23,2
262,-96,3,999,-18,30,6
263,-190,-19,984,-15,15,2
264,-180,-4,968,-11,-8,-2
265,0,32,1004,-7,-29,-8
266,137,44,1025,-11,-25,-9
267,198,44,1006,-16,-5,-6
268,122,32,997,-19,21,2
269,-56,4,997,-18,30,6
270,-188,-8,981,-16,20,2
271,-211,25,972,-33,-5,-2
272,-17,-13,870,-22,-23,-11
273,125,20,807,-12,-23,-11
274,202,28,781,-6,-1,-9
275,128,60,783,-23,27,1
276,-36,36,881,-17,30,2
277,-212,45,883,34,6,3
278,-150,-50,532,-106,24,11
279,-84,47,500,2,-39,-14
280,79,-55,784,31,-28,-11
281,217,43,959,-100,-6,1
282,178,23,933,99,18,-9
283,-61,144,917,-82,24,15
284,-136,-103,457,44,-42,90
285,-175,50,515,1,-28,72
286,-146,13,622,-315,-36,-8
287,34,-37,830,44,28,-31
288,164,43,490,-159,11,-20
289,160,-7,337,44,15,-28
290,94,3,828,-47,43,-8
291,-117,-13,956,-29,30,3
292,-200,-53,927,44,32,-4
293,-171,164,826,-33,-11,-6
294,-93,2,392,27,-45,-10
295,152,67,544,-128,-31,-74
296,207,10,158,23,15,-25
297,153,5,155,-66,22,-41
298,-8,-138,351,-77,48,3
299,-225,15,336,182,38,-10
300,-151,-2,594,-157,-22,-3
301,-108,62,771,95,-14,-7
302,86,141,915,15,-33,-5
303,247,22,980,-137,-23,-5
304,167,8,879,95,27,6
305,-7,-102,821,-129,29,17
306,-224,41,985,35,35,-7
307,-85,-98,694,-94,-26,-81
308,-14,-141,170,41,-39,32
309,107,286,422,-157,6,-12
310,219,-189,385,115,-22,-63
311,29,104,370,-40,-23,30
312,-100,42,235,-77,54,25
313,-237,-144,399,110,86,-17
314,-283,190,156,-77,-8,-37
315,-126,-198,411,168,-116,78
316,-2,150,752,175,-85,21
317,-10,27,224,-166,-5,-10
318,95,-82,409,210,4,23
319,36,15,579,-136,-2,35
320,-82,41,765,29,17,-21
321,184,-232,174,-111,127,-34
322,60,88,739,-447,-21,56
323,101,268,387,-84,42,-83
324,113,-44,228,9,-6,-65
325,149,51,785,-375,11,5
326,16,-8,398,120,113,-11
327,-79,-159,529,41,38,-11
328,-171,0,576,-219,-16,24
329,-215,-2,423,313,24,-22
330,-59,79,789,-205,-22,-6
331,87,132,556,38,-27,-8
332,167,109,443,109,-8,-12
333,176,12,363,-242,-14,5
334,-5,-15,365,157,54,4
335,-149,-86,405,-115,27,2
336,-189,-61,514,-23,-4,0
337,-105,4,772,115,-19,-8
338,74,50,967,-115,-38,-10
339,193,100,1036,75,8,-10
340,155,100,986,-42,15,0
341,18,30,894,-65,13,6
342,-142,-22,829,36,23,4
343,-194,-48,820,-76,2,3
344,-115,-46,844,19,-8,-8
345,46,7,890,14,-22,-9
346,181,63,963,-29,-25,-9
347,175,69,1018,21,10,-3
348,55,59,1014,-38,26,5
349,-120,28,991,-25,28,7
350,-196,-16,977,-7,7,3
351,-159,-24,974,-33,-19,-2
352,29,-5,1016,2,-26,-11
353,168,23,1017,-13,-18,-10
354,199,38,1005,-18,0,-5
355,98,40,996,-3,22,2
356,-87,30,1002,-23,29,6
357,-192,4,977,-14,18,2
358,-184,4,969,-11,-3,-3
359,-20,21,1003,-18,-28,-7
360,125,27,1028,-8,-26,-9
361,208,28,1007,-17,-8,-7
362,133,20,992,-15,18,1
363,-36,4,1002,-11,30,5
364,-175,-6,977,-17,22,3
365,-193,13,971,-9,2,-1
366,-69,28,1008,-13,-23,-5
367,84,41,1017,-14,-30,-9
368,202,44,1012,-16,-15,-8
369,156,25,1002,-22,12,2
370,10,-1,1006,-17,31,4
371,-142,-18,978,-16,26,4
372,-198,-3,980,-11,6,2
373,-114,14,988,-4,-18,-6
374,51,44,1009,-7,-28,-10
375,183,61,1012,-12,-19,-9
376,171,36,1005,-19,6,-1
377,51,8,1009,-22,27,5
378,-117,-9,986,-18,29,6
379,-191,-21,978,-14,11,0
380,-153,-2,981,-7,-13,-5
381,22,40,1012,-3,-29,-10
382,156,55,1006,-12,-22,-9
383,188,49,1000,-15,1,-3
384,88,25,1001,-19,22,2
385,-81,1,1004,-21,30,6
386,-183,-24,989,-17,15,2
387,-179,-8,969,-10,-8,-2
388,-12,25,1005,-6,-29,-10
389,122,44,1015,-9,-25,-9
390,197,51,1005,-15,-4,-6
391,127,38,999,-19,18,1
392,-44,6,1008,-23,30,6
393,-169,-15,976,-20,18,1
394,-188,-10,975,-11,-2,-2
395,-62,19,998,-10,-25,-7
396,93,31,1015,-10,-29,-10
397,197,53,1006,-11,-12,-7
398,152,40,1009,-19,16,0
399,5,11,1017,-20,31,6
400,-152,-9,975,-19,23,4
401,-194,-3,973,-14,2,0
402,-110,0,988,-10,-21,-5
403,61,32,1002,-9,-29,-9
404,188,51,1015,-10,-16,-9
405,172,38,1017,-19,9,0
406,48,16,1013,-20,28,4
407,-126,0,985,-18,29,6
408,-195,-5,980,-14,9,2
409,-154,-3,975,-8,-16,-3
410,28,36,1009,-7,-29,-8
411,168,46,1012,-13,-20,-9
412,190,36,1003,-14,4,-4
413,91,22,1005,-21,24,3
414,-88,4,1002,-19,30,5
415,-192,-13,982,-16,15,2
416,-177,-2,968,-10,-8,-2
417,-15,32,1003,-6,-28,-8
418,130,41,1021,-11,-25,-10
419,205,44,1014,-15,-6,-6
420,124,30,996,-19,18,2
421,-45,3,1002,-20,31,5
422,-179,-17,976,-16,19,2
423,-190,-1,968,-8,-3,-1
424,-60,21,1000,-9,-24,-7
425,94,41,1016,-7,-25,-9
426,209,54,1010,-16,-11,-8
427,151,37,1009,-22,14,1
428,0,8,1006,-20,29,6
429,-152,-13,976,-19,23,4
430,-195,-9,976,-11,2,1
431,-108,3,983,-6,-21,-5
432,65,38,1013,-9,-28,-10
433,191,53,1012,-10,-16,-9
434,174,43,1014,-17,7,-2
435,46,15,1011,-24,26,5
436,-129,0,981,-17,28,5
437,-194,-13,974,-14,10,1
438,-171,33,976,29,-23,14
439,37,19,932,135,-104,53
440,162,42,922,-19,-66,21
441,203,55,929,-80,2,-6
442,91,3,519,-83,27,6
443,-96,-11,589,-9,44,-2
444,-188,-14,875,1,18,-2
445,-179,0,857,-36,-15,0
446,-7,42,924,30,-29,-8
447,133,55,982,-41,-26,-10
448,194,43,1020,-16,0,-5
449,125,33,1006,-6,19,0
450,-43,-11,976,-48,27,8
451,-178,-42,964,1,20,2
452,-181,-8,1013,-15,-3,-2
453,-20,2,977,-17,-24,-6
454,118,-19,996,12,-21,-11
455,39,192,872,5,-12,-9
456,77,-58,181,-166,18,-7
457,62,-79,181,153,-40,-11
458,-37,46,135,-171,34,-1
459,-237,-90,212,-26,7,-9
460,-222,37,48,237,43,-20
461,1,-6,319,-355,-10,3
462,153,34,592,322,-14,-21
463,199,-5,841,-130,-20,6
464,50,-20,757,-110,39,-1
465,-291,75,507,153,73,-75
466,-9,40,-19,-432,84,-17
467,-108,67,1,146,-151,54
468,109,53,340,289,34,29
469,139,45,434,-159,-129,63
470,77,1,365,112,-54,28
471,44,-29,597,-89,-16,35
472,-72,14,466,-108,79,31
473,-107,-62,433,85,36,2
474,-168,-22,518,-129,-33,8
475,20,-48,597,40,-28,-8
476,46,299,624,-22,25,-32
477,153,-169,103,-16,13,-40
478,-161,10,-84,-234,20,14
479,30,223,127,32,131,4
480,-59,-187,100,-174,-59,47
481,-144,70,168,-313,-48,19
482,-133,-52,185,147,122,-23
483,19,5,291,-150,52,-55
484,166,125,576,26,-12,-16
485,190,-30,837,36,-47,-9
486,-36,285,932,-29,20,-8
487,-75,-277,299,177,72,-73
488,-123,14,383,120,32,37
489,13,-18,214,10,-83,-28
490,77,-256,342,180,-88,-28
491,42,147,111,-29,-4,25
492,57,-94,145,-21,29,22
493,4,216,213,87,-41,-25
494,-152,-233,268,-281,-49,1
495,-430,-79,442,-175,84,87
496,53,203,242,98,44,-37
497,48,-142,417,-389,-57,-4
498,173,87,182,121,-98,2
499,166,-185,234,-71,55,-5
500,-7,50,291,-209,166,-3
501,-48,173,485,314,-58,-61
502,-147,-61,542,-242,-74,62
503,-18,157,324,75,-22,-42
504,31,124,419,1,92,-58
505,32,137,740,-251,-44,-18
506,173,-4,477,157,-32,-18
507,33,-99,565,-157,26,-9
508,70,26,571,21,69,3
509,-244,55,586,-148,57,-50
510,-145,-48,147,80,-75,20
511,72,123,490,-72,-80,16
512,33,72,316,21,58,-45
513,152,-53,332,28,26,4
514,144,105,389,-93,-46,17
515,-25,-81,351,59,25,-10
516,-141,-12,388,-49,23,6
517,-145,-19,408,7,35,9
518,-92,9,365,23,-8,-9
519,72,58,368,-32,-54,-4
520,145,72,391,0,-2,-9
521,117,58,404,-18,28,0
522,41,5,551,-24,26,6
523,-109,-11,636,-3,11,3
524,-147,-30,715,-17,8,-1
525,-133,-10,726,-18,3,-3
526,21,26,700,12,-21,-9
527,146,53,750,-16,-30,-9
528,161,47,835,-11,1,-1
529,72,44,892,-16,32,2
530,-82,13,920,-33,32,5
531,-178,-19,938,-5,7,3
532,-151,-4,926,-18,-16,-3
533,0,12,967,-10,-21,-7
534,117,30,983,-6,-15,-8
535,186,43,1017,-18,-6,-5
536,112,38,1010,-9,14,1
537,-45,15,1000,-19,28,5
538,-157,-1,977,-18,24,2
539,-177,-2,978,-12,1,-1
540,-60,11,993,-14,-27,-7
541,90,27,1006,-9,-29,-10
542,193,42,1001,-14,-10,-7
543,147,33,1004,-19,16,-1
544,6,12,1013,-15,29,4
545,-152,0,977,-19,22,6
546,-185,3,980,-12,2,1
547,-113,9,981,-10,-18,-4
548,59,36,1007,-11,-28,-9
549,181,45,1013,-13,-17,-9
550,170,33,1009,-19,6,-2
551,56,12,1009,-22,28,4
552,-114,-1,996,-17,29,6
553,-189,-9,984,-13,10,2
554,-157,2,975,-10,-13,-3
555,20,37,1011,-8,-31,-8
556,151,48,1013,-12,-22,-8
557,191,36,1007,-16,0,-4
558,100,20,997,-22,23,3
559,-81,0,998,-19,31,7
560,-185,-20,985,-14,16,2
561,-180,-1,970,-9,-7,-2
562,-24,30,1003,-9,-28,-6
563,119,47,1013,-12,-24,-10
564,202,47,1007,-15,-6,-7
565,130,38,1008,-19,17,1
566,-32,1,1009,-22,29,4
567,-172,-19,967,-17,23,3
568,-186,-3,967,-12,-1,1
569,-73,12,1000,-10,-23,-6
570,82,39,1017,-9,-28,-10
571,201,55,1015,-12,-14,-9
572,151,40,1009,-20,14,0
573,12,14,1010,-22,29,5
574,-142,-10,978,-20,24,3
575,-196,-11,977,-13,5,1
576,-118,1,981,-10,-19,-5
577,56,31,1007,-8,-29,-9
578,183,53,1013,-11,-19,-8
579,178,38,1009,-19,6,-1
580,57,24,1010,-17,27,5
581,-110,0,993,-21,27,6
582,-192,-13,977,-14,9,2
583,-159,-2,976,-10,-12,-4
584,20,32,1013,-8,-29,-9
585,150,43,1016,-9,-21,-8
586,194,41,1007,-14,-1,-4
587,103,25,999,-20,22,2
588,-75,7,991,-18,30,7
589,-186,-13,986,-17,16,2
590,-180,-2,969,-9,-6,-3
591,-32,21,1008,-8,-26,-8
592,115,41,1017,-13,-25,-9
593,204,46,1008,-13,-7,-6
594,140,35,1001,-20,16,1
595,-31,5,1008,-20,30,6
596,-167,-10,969,-17,22,2
597,-189,-7,968,-13,1,0
598,-84,12,996,-8,-22,-6
599,84,37,1020,-9,-29,-9
600,200,54,1012,-13,-14,-8
601,160,38,1006,-18,11,-1
602,23,8,1010,-21,28,3
603,-143,-7,979,-18,27,5
604,-194,-9,977,-12,6,1
605,-129,2,988,-8,-17,-5
606,47,41,1009,-7,-30,-8
607,181,51,1007,-12,-20,-9
608,179,36,1006,-19,6,-2
609,63,18,1004,-18,25,3
610,-108,1,996,-19,28,6
611,-191,-16,980,-14,11,2
612,-166,0,970,-9,-12,-2
613,12,36,1012,-8,-29,-8
614,147,46,1018,-12,-24,-8
615,196,39,1006,-15,-2,-5
616,107,32,993,-18,22,3
617,-69,1,997,-20,31,6
618,-182,-19,984,-15,17,1
619,-183,-4,971,-10,-6,0
620,-35,24,1004,-6,-27,-8
621,110,44,1018,-11,-26,-11
622,200,52,1002,-13,-8,-6
623,137,36,1003,-22,16,2
624,-22,3,1009,-22,30,5
625,-168,-12,974,-16,23,2
626,-218,26,953,-15,3,-1
627,-75,8,946,26,-35,-20
628,82,29,868,3,-31,-12
629,207,48,973,2,-17,-5
630,146,33,842,-16,10,0
631,17,2,896,-28,26,0
632,-123,0,866,10,25,5
633,-198,-5,923,-18,2,2
634,-132,6,990,-8,-17,-6
635,34,39,993,-1,-26,-8
636,182,62,971,-22,-24,-4
637,210,15,962,-13,5,-1
638,80,-51,985,-19,30,-4
639,-194,95,914,31,75,28
640,-143,-56,112,51,-48,105
641,-79,-112,247,-87,1,97
642,23,101,319,-261,-31,18
643,14,-123,95,316,-88,77
644,130,79,97,-190,0,78
645,82,-21,292,-82,54,69
646,0,-29,442,216,-76,30
647,-96,-42,570,-319,-125,26
648,-131,-36,808,128,172,3
649,-66,-32,772,-26,87,-13
650,60,86,390,-95,-153,1
651,140,22,-159,302,-177,-34
652,87,-18,322,-306,62,16
653,28,-82,283,19,233,-5
654,-144,-29,264,17,-7,5
655,-252,-109,162,-177,-230,6
656,-146,-99,359,250,11,-22
657,-92,45,371,-197,154,-3
658,199,-95,283,27,-15,-77
659,241,3,-46,-120,-66,10
660,156,127,65,-22,-2,-1
661,66,4,163,-62,171,-42
662,-170,44,588,-108,0,21
663,-166,-128,293,90,-47,4
664,-39,-80,638,-4,-70,-19
665,79,86,560,-6,71,-3
666,57,275,451,39,50,-18
667,-18,147,79,-5,-97,1
668,318,141,115,-119,-49,32
669,-83,52,800,83,171,-29
670,-228,-171,375,-263,90,-49
671,-38,52,-93,-58,-82,-51
672,22,-24,237,32,-9,-81
673,108,14,202,20,38,-22
674,150,143,719,-11,40,17
675,46,116,970,68,-16,7
676,-153,33,977,-71,-40,16
677,-110,-106,912,-16,27,15
678,-154,-67,950,2,28,7
679,-76,-2,615,206,-132,-24
680,-27,-100,-23,287,-75,69
681,202,210,399,185,-85,1
682,74,55,197,23,53,36
683,-119,52,406,70,-12,26
684,-136,-14,250,-13,-22,37
685,-231,69,189,-9,1,-16
686,-135,-12,597,-155,86,-114
687,-29,-45,348,-107,22,-39
688,66,230,744,-134,7,-61
689,0,-203,563,-30,98,-61
690,-106,5,496,-14,53,-9
691,-157,19,356,-52,40,6
692,-238,-82,421,75,11,-25
693,-183,250,260,-16,-54,-21
694,128,50,274,35,-39,-10
695,105,18,622,75,-17,11
696,-37,158,201,-125,3,-27
697,-124,-109,570,-16,70,-18
698,-146,-27,235,64,26,38
699,-204,16,420,-104,2,-2
700,-112,-31,808,101,-11,-24
701,55,129,754,-22,-38,2
702,177,139,839,-40,-19,-5
703,178,32,776,31,8,-6
704,31,42,763,-88,15,12
705,-138,-61,707,-14,38,5
706,-197,-68,744,-11,16,1
707,-100,-24,836,-29,-29,-5
708,45,9,927,38,-30,-11
709,187,78,963,-17,-17,-7
710,161,100,996,-13,16,-1
711,29,56,992,-11,29,4
712,-129,12,982,-46,19,7
713,-194,-24,994,-11,8,2
714,-123,-49,983,-19,-15,-7
715,38,-11,979,-11,-28,-9
716,184,31,992,8,-22,-10
717,176,54,1009,-13,4,-3
718,58,57,1024,-8,30,3
719,-111,44,988,-19,34,5
720,-200,8,981,-27,10,2
721,-164,-9,981,-10,-18,-2
722,15,0,1017,-16,-32,-8
723,165,17,998,-12,-22,-11
724,199,18,997,-9,2,-4
725,104,27,1007,-15,22,2
726,-83,26,1016,-11,30,6
727,-191,14,983,-14,16,2
728,-192,9,962,-14,-7,-2
729,-25,30,1003,-10,-29,-8
730,123,26,1027,-18,-29,-10
731,205,26,1008,-16,-7,-6
732,139,16,990,-18,18,0
733,-30,2,1005,-17,30,5
734,-179,-12,984,-11,21,4
735,-192,12,970,-7,0,0
736,-76,30,994,-8,-22,-6
737,80,47,1014,-10,-28,-9
738,206,51,1018,-17,-16,-8
739,156,29,1000,-23,13,0
740,9,-7,1009,-19,31,5
741,-145,-19,979,-15,25,4
742,-196,-10,975,-9,5,0
743,-116,13,987,-6,-18,-6
744,53,47,1012,-9,-29,-8
745,181,64,1010,-12,-17,-8
746,175,43,1010,-21,7,-2
747,51,12,1014,-22,25,4
748,-118,-6,987,-20,28,5
749,-186,-24,972,-15,10,2
750,-157,-10,978,-10,-12,-5
751,27,29,1019,-5,-29,-10
752,157,52,1010,-10,-22,-9
753,186,47,1001,-13,1,-3
754,91,34,998,-20,22,3
755,-81,6,1002,-21,30,5
756,-190,-21,985,-18,16,2
757,-177,-10,973,-12,-8,-3
758,-14,20,1008,-7,-28,-9
759,123,40,1015,-9,-24,-10
760,202,45,1010,-12,-5,-7
761,128,42,1002,-16,17,0
762,-40,10,1002,-21,29,6
763,-172,-10,975,-17,21,3
764,-191,-5,973,-14,-1,-1
765,-68,9,999,-10,-25,-8
766,90,29,1013,-8,-28,-10
767,201,48,1011,-12,-13,-7
768,154,40,1005,-18,14,1
769,9,11,1011,-16,30,5
770,-149,-3,979,-20,24,5
771,-194,-5,982,-12,5,1
772,-121,3,981,-9,-18,-5
773,58,37,1007,-8,-30,-10
774,184,49,1008,-10,-18,-9
775,177,31,1007,-19,6,-2
776,59,16,1010,-20,27,4
777,-118,0,994,-16,29,6
778,-189,-6,976,-13,11,0
779,-167,-2,976,-10,-12,-3
780,18,37,1008,-7,-30,-8
781,151,46,1015,-12,-21,-9
782,193,38,1001,-15,0,-4
783,106,21,998,-22,22,3
784,-72,1,998,-17,29,6
785,-187,-19,986,-15,16,2
786,-177,3,972,-9,-6,-3
787,-32,28,1006,-5,-27,-8
788,112,46,1012,-10,-26,-10
789,205,45,1010,-17,-8,-7
790,135,33,1002,-20,19,2
791,-26,2,1007,-23,29,6
792,-166,-19,975,-16,22,1
793,-191,-5,969,-9,-1,-1
794,-82,13,994,-6,-24,-6
795,79,36,1016,-9,-28,-10
796,199,56,1012,-14,-14,-9
797,158,42,1008,-17,12,1
798,20,9,1012,-23,29,5
799,-141,-5,983,-19,24,4
800,-192,-14,973,-15,5,0
801,-127,-1,984,-9,-17,-6
802,51,37,1009,-4,-29,-9
803,179,51,1007,-12,-20,-8
804,181,42,1006,-16,6,-3
805,63,19,1008,-21,26,3
806,-107,3,994,-20,28,5
807,-189,-16,979,-14,11,1
808,-167,-1,970,-9,-10,-3
809,13,35,1011,-8,-29,-8
810,145,44,1017,-11,-23,-10
811,198,43,1007,-18,-1,-4
812,109,28,998,-21,22,2
813,-66,4,997,-18,31,6
814,-181,-19,983,-18,16,4
815,-182,0,974,-9,-5,-2
816,-38,23,1003,-7,-26,-7
817,109,40,1015,-11,-26,-11
818,182,69,1029,-15,-9,-6
819,155,46,1011,-26,15,-1
820,-27,-22,918,-27,28,4
821,-175,-13,793,0,21,4
822,-174,-9,518,-12,0,0
823,-89,-7,802,3,-26,-5
824,80,43,732,0,-30,-7
825,192,65,935,-32,-17,-7
826,169,50,1001,0,11,0
827,33,16,1024,-39,24,7
828,-136,0,982,-17,27,7
829,-197,-45,967,-4,12,1
830,-148,-48,983,-24,-16,-10
831,-26,141,994,35,-31,-3
832,167,32,385,-45,-17,-74
833,201,-25,342,0,25,-31
834,122,105,98,-50,44,-3
835,-52,-138,275,249,-2,-22
836,-248,13,597,-265,14,38
837,-167,-32,858,205,-8,-14
838,-62,5,594,4,-54,-8
839,128,50,931,-153,-54,5
840,230,77,1008,204,14,-6
841,144,41,929,-182,3,9
842,7,0,961,9,31,12
843,-217,-22,905,61,37,-10
844,-248,-68,887,-138,-2,-14
845,-85,37,883,91,-12,-12
846,117,51,939,-64,-36,-23
847,206,76,965,-60,-3,-19
848,203,66,979,47,25,-5
849,2,-3,982,-89,28,8
850,-159,-29,999,18,24,5
851,-209,-41,979,-3,1,5
852,-114,-32,963,-44,-21,-5
853,90,0,1019,44,-24,-6
854,204,72,1006,-24,-17,-7
855,33,111,489,-85,22,-48
856,73,38,14,-31,35,4
857,-82,112,289,-186,45,-29
858,-91,-66,638,-253,131,-107
859,-164,-116,159,157,44,-94
860,37,142,396,-85,-40,-47
861,124,-62,287,204,-18,-26
862,136,196,425,-13,-9,-7
863,126,21,771,39,18,1
864,-53,-7,901,-22,16,16
865,-217,137,962,-61,18,4
866,-258,-304,448,-142,-23,80
867,-56,-45,371,-61,-114,55
868,120,-38,659,-158,-1,-25
869,99,-115,545,39,36,-30
870,121,91,566,18,46,15
871,-12,-50,715,-39,-10,29
872,-272,191,702,83,22,4
873,-292,-182,336,69,-76,74
874,-140,-74,640,149,-122,150
875,160,5,179,-100,-74,13
876,224,-58,495,41,-6,3
877,186,155,318,-84,0,19
878,36,-136,421,-82,24,21
879,-121,-62,686,92,27,0
880,-311,158,473,-114,20,-14
881,-104,-104,143,104,-32,-5
882,15,-60,624,32,-26,27
883,136,125,299,6,-16,-56
884,114,-26,319,-47,29,18
885,108,136,586,1,-10,20
886,-102,-122,502,-46,39,9
887,-209,-58,520,-3,10,-7
888,-203,51,591,18,-13,4
889,-52,105,742,-12,-23,-12
890,145,175,600,-39,-32,-45
891,211,7,464,-121,-5,14
892,166,37,346,63,18,8
893,-25,-137,347,-54,11,3
894,-197,-62,507,-44,5,11
895,-214,-19,588,93,30,3
896,-75,48,908,-83,-13,-10
897,99,125,1029,32,-37,-6
898,209,101,964,8,-27,-7
899,156,70,860,-86,9,1
900,-7,-13,772,20,44,10
901,-160,-59,685,-60,25,4
902,-192,-62,721,-15,2,2
903,-98,-17,768,25,-16,-7
904,69,32,844,-31,-29,-12
905,190,86,937,25,-14,-8
906,163,86,983,-13,4,-1
907,29,45,1007,-36,26,4
908,-138,5,981,-11,36,6
909,-199,-31,992,-42,10,3
910,-131,-35,982,-9,-19,-5
911,43,-4,990,-1,-35,-9
912,183,37,982,-11,-23,-10
913,186,51,1000,2,11,-4
914,70,54,1008,-21,27,3
915,-108,38,1000,-20,31,6
916,-198,1,986,-19,12,3
917,-172,-8,974,-23,-13,-2
918,2,4,1009,-6,-30,-8
919,158,18,1006,-10,-28,-9
920,204,19,1004,-15,-3,-5
921,120,33,1002,-10,27,2
922,-67,21,1014,-19,35,5
923,-189,9,994,-12,18,2
924,-197,11,965,-13,-8,-1
925,-43,25,997,-13,-31,-7
926,112,29,1016,-12,-27,-10
927,209,32,1009,-17,-7,-5
928,153,19,1005,-20,18,0
929,-18,0,1019,-17,31,6
930,-169,-9,970,-14,22,4
931,-200,8,965,-7,1,0
932,-94,24,995,-7,-23,-7
933,74,45,1008,-10,-28,-10
934,203,54,1022,-17,-13,-8
935,164,30,1014,-24,13,0
936,28,2,1015,-21,27,4
937,-135,-17,976,-19,24,4
938,-203,-13,975,-9,6,1
939,-129,4,978,-7,-18,-6
940,42,44,1009,-5,-26,-9
941,178,62,1017,-13,-18,-9
942,185,46,1011,-21,3,-3
943,64,17,1014,-21,24,3
944,-107,-1,988,-20,26,6
945,-193,-23,975,-13,11,1
946,-167,-11,971,-7,-11,-4
947,14,32,1013,-6,-27,-10
948,150,49,1023,-10,-22,-10
949,196,48,1010,-15,-2,-5
950,106,34,997,-21,21,2
951,-71,10,997,-18,29,6
952,-189,-21,980,-16,17,2
953,-184,-10,968,-11,-6,-2
954,-29,16,1011,-9,-25,-8
955,116,38,1021,-10,-25,-11
956,203,50,1010,-11,-8,-7
957,137,43,1004,-20,17,2
958,-26,9,1006,-22,29,5
959,-169,-7,964,-19,23,4
960,-191,-6,970,-14,2,1
961,-82,7,1001,-9,-22,-7
962,80,35,1016,-9,-27,-8
963,201,49,1013,-14,-14,-8
964,157,39,1010,-16,12,-1
965,21,13,1002,-19,27,4
966,-141,-3,980,-17,25,4
967,-196,-6,983,-10,7,0
968,-128,6,986,-13,-18,-7
969,52,34,1011,-9,-29,-10
970,175,48,1008,-12,-20,-9
971,184,33,1003,-16,4,-3
972,65,18,1005,-18,25,3
973,-107,1,994,-20,30,5
974,-191,-15,985,-14,11,0
975,-164,2,972,-10,-12,-5
976,10,35,1011,-8,-29,-9
977,148,47,1020,-11,-23,-9
978,193,38,1005,-17,-2,-4
979,107,29,991,-21,21,3
980,-66,-1,998,-18,31,7
981,-182,-15,987,-14,18,3
982,-183,-5,973,-13,-4,-1
983,-37,24,1006,-6,-26,-8
984,112,43,1017,-9,-26,-10
985,199,52,1004,-12,-8,-7
986,138,40,1003,-19,16,2
987,-23,3,1011,-23,29,5
988,-164,-15,973,-17,23,3
989,-188,-8,973,-16,0,0
990,-86,9,997,-8,-23,-7
991,77,36,1009,-7,-29,-10
992,198,53,1010,-11,-14,-7
993,158,44,1011,-18,11,-1
994,24,9,1007,-22,28,5
995,-136,-2,985,-19,26,4
996,-193,-12,984,-14,7,0
997,-134,2,980,-10,-16,-5
998,47,32,1009,-6,-30,-9
999,172,48,1005,-10,-19,-8
1000,183,37,1001,-18,5,-2
1001,69,19,1012,-19,25,4
1002,-104,6,999,-20,29,6
1003,-189,-15,983,-16,12,1
1004,-168,1,970,-7,-10,-4
1005,7,30,1009,-8,-29,-8
1006,143,43,1019,-12,-23,-9
1007,196,39,1007,-17,-3,-4
1008,115,29,1001,-19,21,1
1009,-58,9,1000,-15,30,7
1010,-197,0,981,-24,17,17
1011,-180,-5,1001,2,-12,-9
1012,-37,18,941,-46,-30,4
1013,114,28,970,7,-20,-12
1014,191,54,952,-4,-8,-4
1015,144,31,1000,-51,10,4
1016,-20,9,980,15,35,5
1017,-167,-8,985,-43,19,2
1018,-186,0,976,-5,-7,-2
1019,-100,8,992,6,-24,-6
1020,76,34,1005,-31,-30,-10
1021,191,51,1023,3,-11,-8
1022,165,36,1011,-22,9,-2
1023,36,5,1004,-29,24,5
1024,-128,0,983,-4,27,5
1025,-190,-18,979,-24,9,0
1026,-124,-21,983,-4,-13,-7
1027,26,-9,1001,-3,-25,-17
1028,82,140,826,-101,-14,-41
1029,277,7,379,-117,60,-62
1030,-176,-61,103,-189,97,-42
1031,-232,52,134,-23,49,-34
1032,-226,-67,98,-199,59,-53
1033,-240,20,303,62,39,-65
1034,-1,12,440,-125,27,-45
1035,47,79,602,-101,10,-29
1036,203,58,939,156,13,-25
1037,191,-4,876,-171,-8,-11
1038,-123,72,750,40,38,-12
1039,-165,-8,430,241,-67,-35
1040,-245,-35,18,175,-14,73
1041,-211,-11,485,395,-159,103
1042,106,-72,565,51,-111,118
1043,162,65,386,15,-12,72
1044,146,-3,423,105,8,52
1045,0,-50,548,-293,-55,24
1046,-266,78,520,228,15,20
1047,-59,57,-5,-8,40,-1
1048,-117,-46,120,-109,61,5
1049,-73,45,111,124,-142,-16
1050,178,64,362,-154,-212,2
1051,251,-68,278,-57,188,-13
1052,-30,117,198,114,119,-8
1053,96,102,-83,-260,-623,-53
1054,5,45,-30,7,-419,15
1055,-5,-32,171,137,16,-65
1056,-73,-12,537,-414,53,-34
1057,-46,137,359,347,-30,-14
1058,17,22,424,-198,252,0
1059,41,-60,420,-73,716,-28
1060,-137,119,283,202,13,4
1061,-44,248,449,-204,-398,-22
1062,181,37,-32,206,-212,54
1063,167,77,351,-248,173,16
1064,173,-140,-46,13,140,-26
1065,121,0,296,28,-233,25
1066,112,39,160,-84,-128,2
1067,-59,-74,37,114,294,-66
1068,-157,81,262,35,124,-14
1069,-153,9,796,-2,-198,4
1070,-62,59,668,204,-124,-1
1071,140,-7,858,-121,76,12
1072,177,-23,713,50,91,4
1073,13,143,479,124,-153,28
1074,-20,-80,444,270,-230,117
1075,-37,108,508,89,-16,83
1076,-217,-18,714,118,-2,46
1077,-48,3,355,-93,-40,42
1078,85,78,468,-18,-131,18
1079,97,-54,861,-1,-10,4
1080,-16,290,872,-158,86,-33
1081,89,-110,356,-110,78,-107
1082,-75,-66,827,-136,40,1
1083,-103,167,645,-121,17,-49
1084,-95,-235,194,116,32,-71
1085,3,70,426,-210,28,14
1086,122,30,424,126,28,-33
1087,127,-57,516,0,-42,-15
1088,100,133,475,-113,-13,14
1089,-97,32,417,165,81,-2
1090,-155,93,451,-160,25,-10
1091,-136,-50,538,18,-33,11
1092,35,-6,565,4,-57,-9
1093,121,-60,580,-131,26,-14
1094,144,18,755,135,50,-4
1095,84,62,903,-117,-4,6
1096,-44,29,975,46,-9,-1
1097,-160,72,957,13,21,1
1098,-175,9,879,-97,16,0
1099,-51,34,870,65,-15,-8
1100,94,-8,858,-76,-53,-6
1101,202,2,804,-11,-10,-8
1102,138,-2,802,8,40,0
1103,-11,2,856,-52,28,4
1104,-155,9,884,32,9,2
1105,-182,37,917,-16,-10,2
1106,-95,43,985,-21,-9,-5
1107,64,50,1018,1,-11,-10
1108,176,43,1015,-45,-22,-5
1109,160,9,1012,-10,-3,0
1110,43,-26,1005,-19,23,4
1111,-117,-21,972,-22,34,5
1112,-180,-5,979,6,15,2
1113,-139,29,989,-14,-19,-4
1114,29,66,1011,-5,-31,-9
1115,164,69,1015,-13,-17,-9
1116,172,39,1008,-28,3,-2
1117,76,3,999,-18,20,2
1118,-90,-21,995,-21,24,5
1119,-176,-31,983,-14,13,2
1120,-159,-3,974,-1,-4,-4
1121,0,46,1011,-8,-24,-9
1122,129,66,1025,-8,-24,-9
1123,186,54,1003,-17,-6,-5
1124,106,36,993,-22,21,3
1125,-52,0,993,-20,30,6
1126,-173,-36,986,-21,18,2
1127,-176,-10,974,-11,-4,-2
1128,-44,11,1004,-6,-23,-6
1129,98,45,1011,-7,-25,-10
1130,195,55,1007,-9,-9,-7
1131,139,51,1005,-19,14,1
1132,-19,9,1011,-22,28,6
1133,-157,-9,972,-19,23,2
1134,-188,-11,978,-18,0,0
1135,-93,0,990,-8,-23,-7
1136,71,26,1007,-7,-28,-10
1137,192,52,1009,-11,-15,-8
1138,161,45,1011,-17,12,0
1139,32,19,1014,-21,26,5
1140,-135,5,980,-19,27,5
1141,-193,-8,981,-16,7,0
1142,-139,-2,982,-13,-20,-5
1143,39,25,1008,-7,-30,-9
1144,173,46,1007,-13,-20,-8
1145,187,34,1004,-13,5,-3
1146,78,27,1007,-18,25,2
1147,-95,6,1000,-19,31,6
1148,-192,-9,989,-14,13,1
1149,-174,1,962,-11,-10,-2
1150,0,32,1007,-7,-28,-8
1151,141,44,1021,-10,-24,-9
1152,197,37,1007,-18,-2,-5
1153,123,30,1000,-20,21,2
1154,-56,0,1003,-20,31,6
1155,-182,-12,976,-15,18,2
1156,-188,-2,973,-9,-3,-1
1157,-55,26,1002,-8,-26,-7
1158,100,39,1015,-10,-26,-9
1159,205,50,1012,-15,-10,-8
1160,148,36,1005,-21,15,0
1161,-5,3,1013,-20,29,5
1162,-160,-16,974,-16,25,3
1163,-194,-3,971,-11,3,2
1164,-103,9,988,-8,-20,-5
1165,64,39,1010,-9,-27,-9
1166,191,55,1011,-14,-16,-9
1167,166,37,1013,-20,9,-2
1168,42,13,1014,-23,27,3
1169,-130,-3,980,-18,28,4
1170,-193,-14,976,-11,8,1
1171,-147,0,983,-9,-16,-3
1172,31,37,1011,-6,-29,-10
1173,170,50,1014,-12,-21,-10
1174,188,38,1001,-16,2,-3
1175,83,23,1002,-19,23,2
1176,-90,4,999,-19,28,6
1177,-190,-17,982,-14,14,2
1178,-178,-2,972,-10,-8,-3
1179,-10,30,1006,-6,-28,-8
1180,134,43,1020,-10,-24,-10
1181,202,45,1011,-16,-5,-5
1182,122,37,1000,-18,20,3
1183,-46,0,999,-21,30,7
1184,-179,-15,975,-16,20,3
1185,-191,-3,969,-11,-2,-1
1186,-57,15,1005,-8,-25,-7
1187,99,38,1020,-9,-29,-10
1188,204,53,1006,-16,-14,-8
1189,149,40,1007,-19,15,-1
1190,-1,7,1005,-17,29,5
1191,-156,-8,974,-17,23,4
1192,-193,-7,979,-11,3,0
1193,-108,7,985,-8,-19,-5
1194,67,37,1004,-8,-27,-10
1195,188,51,1019,-13,-16,-9
1196,170,40,1005,-21,7,-1
1197,47,16,1011,-20,28,4
1198,-124,0,985,-18,28,5
1199,-197,-14,975,-13,9,2
1200,-144,0,983,-8,-14,-5
1201,25,32,1014,-8,-30,-7
1202,164,49,1012,-11,-22,-10
1203,190,34,1003,-16,1,-4
1204,89,28,992,-20,23,3
1205,-83,1,1000,-21,31,6
1206,-186,-15,983,-15,15,3
1207,-179,1,970,-13,-8,-2
1208,-14,27,1007,-9,-28,-8
1209,122,44,1018,-11,-24,-10
1210,204,45,1004,-15,-6,-6
1211,128,35,1001,-17,19,1
1212,-39,2,1007,-20,30,5
1213,-178,-15,970,-16,20,4
1214,-186,-1,970,-10,-1,-2
1215,-73,12,1003,-10,-24,-7
1216,83,55,1016,-6,-29,-9
1217,171,68,961,0,-18,-3
1218,166,34,980,-63,23,-11
1219,20,7,933,8,36,8
1220,-156,-20,784,-26,21,9
1221,-193,-20,854,-39,-1,8
1222,-113,-3,960,12,-14,-3
1223,57,37,972,-17,-26,-9
1224,175,63,1001,-28,-22,-9
1225,178,48,1000,3,4,-1
1226,54,17,1007,-42,26,5
1227,-99,1,982,-20,32,9
1228,-182,-22,985,-4,8,5
1229,-157,-5,956,-32,-15,-1
1230,7,26,1004,11,-27,-6
1231,135,47,1050,-19,-22,-11
1232,200,38,1000,-20,-2,-4
1233,143,-10,983,-8,19,1
1234,-57,-61,1001,-26,36,-4
1235,-344,141,657,-23,11,30
1236,-10,25,295,271,-163,9
1237,-37,-30,0,218,-102,7
1238,166,52,254,6,-54,55
1239,282,11,84,339,-36,44
1240,242,32,378,-390,7,9
1241,46,-57,205,132,33,-18
1242,-225,-58,177,-16,56,-21
1243,-365,198,329,-359,61,-101
1244,-61,85,434,-336,194,-162
1245,-104,88,57,-378,85,-188
1246,-1,133,378,148,57,-174
1247,-112,-33,421,350,40,-59
1248,55,42,620,-123,19,-28
1249,22,-80,635,312,25,-3
1250,-269,98,659,38,-73,18
1251,-135,-109,25,-163,-84,-11
1252,65,63,190,288,47,-7
1253,-25,-46,376,-238,-5,-34
1254,-72,-29,159,90,-97,2
1255,-99,-76,340,67,-30,1
1256,-220,-32,514,-243,58,-3
1257,6,4,-23,64,239,-41
1258,5,-68,90,-281,-127,1
1259,27,96,370,16,-255,-17
1260,-46,-51,616,241,175,-3
1261,162,37,606,-403,252,-10
1262,21,-17,313,213,-164,-7
1263,-93,17,212,20,-79,12
1264,-116,110,298,-260,-202,-41
1265,-143,-153,154,-17,-52,-56
1266,238,-93,419,-297,-249,1
1267,84,59,311,-86,-351,-52
1268,97,-155,456,-243,-140,-98
1269,118,54,118,-398,152,-7
1270,-70,-19,303,134,102,-24
1271,-187,4,144,2,-151,-38
1272,-168,31,574,-43,-137,-5
1273,-38,53,489,119,218,-14
1274,109,-52,620,-127,90,-5
1275,107,199,990,58,-145,-15
1276,151,-111,542,-238,-84,41
1277,81,-79,377,-254,18,30
1278,-106,216,343,-131,215,9
1279,-163,-178,575,-43,28,-38
1280,-128,29,341,-21,-88,22
1281,37,97,164,-51,-61,-21
1282,105,-56,303,-14,92,-27
1283,87,180,455,-61,45,-18
1284,118,0,363,-81,-23,-4
1285,-37,-27,446,-61,-6,0
1286,-106,5,377,-27,81,-20
1287,-194,-95,443,-65,52,-9
1288,-23,27,573,17,-43,-8
1289,73,31,644,-13,-50,-18
1290,137,81,774,5,2,-10
1291,144,78,701,-19,55,0
1292,-25,51,710,-18,35,3
1293,-142,-23,847,-19,-12,4
1294,-166,-25,907,-26,-10,-1
1295,-77,-26,944,-4,6,-4
1296,79,2,986,-10,-13,-10
1297,186,46,1008,0,-26,-8
1298,141,62,972,-9,1,1
1299,-1,38,990,-23,36,5
1300,-139,20,974,-12,33,3
1301,-188,0,966,-23,-4,2
1302,-95,-8,987,-16,-29,-5
1303,56,4,1016,-13,-21,-9
1304,180,34,1017,-14,-7,-8
1305,166,34,1015,-8,8,-2
1306,46,22,1006,-14,18,4
1307,-122,21,982,-14,27,6
1308,-187,7,982,-13,15,1
1309,-148,11,990,-15,-12,-4
1310,29,27,1005,-10,-33,-9
1311,164,35,1006,-16,-23,-10
1312,185,18,1003,-17,4,-3
1313,85,13,1006,-15,25,2
1314,-85,6,998,-17,29,5
1315,-185,-6,983,-10,12,1
1316,-174,15,975,-9,-7,-4
1317,-13,39,1003,-10,-24,-9
1318,125,44,1027,-14,-26,-8
1319,198,38,1006,-20,-9,-5
1320,120,18,991,-19,19,3
1321,-43,-6,1003,-17,31,6
1322,-174,-21,979,-17,20,2
1323,-187,2,973,-7,-1,-2
1324,-59,27,1001,-9,-24,-8
1325,90,48,1020,-8,-27,-9
1326,196,59,1008,-17,-12,-6
1327,148,36,1003,-25,14,1
1328,0,0,1010,-21,30,6
1329,-153,-18,976,-18,23,5
1330,-186,-14,982,-11,3,0
1331,-106,6,987,-5,-20,-7
1332,62,43,1006,-7,-28,-8
1333,188,60,1015,-9,-16,-8
1334,162,49,1012,-18,7,-2
1335,44,17,1012,-24,26,5
1336,-124,-3,983,-19,28,6
1337,-192,-20,975,-14,9,1
1338,-141,-10,982,-7,-16,-6
1339,29,29,1011,-6,-29,-9
1340,163,50,1006,-10,-21,-10
1341,189,43,1006,-12,1,-4
1342,84,34,1001,-19,24,2
1343,-85,8,996,-22,30,5
1344,-188,-15,992,-17,14,1
1345,-175,-5,965,-11,-9,-3
1346,-9,24,1003,-6,-28,-8
1347,130,37,1023,-11,-23,-8
1348,198,47,1011,-14,-5,-5
1349,129,32,998,-18,20,1
1350,-53,6,1006,-20,31,6
1351,-179,-11,978,-17,18,2
1352,-186,-5,967,-12,-2,-2
1353,-63,17,1001,-2,-27,-7
1354,92,38,1017,-10,-28,-9
1355,205,48,1013,-16,-12,-8
1356,149,38,1004,-19,15,1
1357,1,8,1012,-22,29,5
1358,-153,-12,976,-18,26,3
1359,-198,-6,976,-12,3,0
1360,-109,6,984,-10,-21,-6
1361,62,32,1009,-7,-29,-9
1362,186,52,1013,-11,-18,-8
1363,178,35,1007,-18,8,-2
1364,45,20,1013,-21,27,5
1365,-118,2,985,-17,28,5
1366,-195,-11,976,-13,10,1
1367,-156,2,980,-9,-15,-4
1368,26,31,1016,-7,-29,-10
1369,161,46,1010,-13,-21,-10
1370,192,39,1006,-18,1,-3
1371,96,27,999,-21,22,3
1372,-84,2,1000,-18,30,6
1373,-187,-14,982,-15,15,1
1374,-178,0,972,-10,-7,-2
1375,-17,29,1006,-10,-28,-8
1376,123,42,1019,-13,-25,-10
1377,202,45,1011,-15,-7,-5
1378,129,31,998,-19,17,1
1379,-39,0,1004,-22,29,5
1380,-173,-16,974,-14,20,3
1381,-187,-3,971,-11,-2,0
1382,-67,17,999,-9,-24,-7
1383,85,37,1018,-9,-28,-10
1384,204,54,1012,-15,-13,-8
1385,153,36,1007,-18,14,0
1386,8,11,1007,-19,28,6
1387,-148,-10,976,-19,24,5
1388,-193,-9,983,-11,4,0
1389,-118,3,979,-11,-19,-6
1390,53,39,1009,-7,-29,-9
1391,188,51,1013,-12,-20,-8
1392,173,41,1008,-19,7,-1
1393,55,20,1010,-20,26,4
1394,-118,0,991,-18,30,5
1395,-194,-16,977,-14,9,1
1396,-157,-4,976,-9,-13,-2
1397,22,30,1014,-7,-28,-8
1398,156,50,1014,-12,-21,-9
1399,197,41,1003,-16,0,-4
1400,94,30,996,-18,23,3
1401,-78,3,999,-20,31,5
1402,-188,-17,981,-16,17,3
1403,-182,-1,973,-11,-8,-2
1404,-23,23,1006,-8,-28,-9
1405,120,39,1018,-13,-25,-9
1406,206,49,1006,-13,-6,-6
1407,131,36,1003,-20,18,2
1408,-35,8,1007,-21,30,5
1409,-174,-13,973,-17,21,2
1410,-191,-3,967,-11,-1,-2
1411,-78,8,1002,-10,-24,-7
1412,87,53,1004,-7,-30,-10
1413,194,61,1024,-12,-11,-3
1414,165,35,1003,-32,15,2
1415,10,12,1000,-15,24,3
1416,-140,-15,932,-33,28,4
1417,-206,-12,978,-15,7,-3
1418,-122,-2,991,0,-19,-8
1419,54,29,989,-25,-32,-9
1420,190,59,1012,-2,-18,-8
1421,184,44,1013,-19,8,-2
1422,61,26,1007,-29,25,4
1423,-109,1,987,-12,29,6
1424,-203,-19,981,-24,12,2
1425,-166,-5,981,-10,-14,-3
1426,17,26,1016,-3,-30,-8
1427,158,51,1010,-18,-25,-8
1428,202,40,1002,-14,-1,-4
1429,112,31,997,-24,23,4
1430,-75,0,1007,-23,32,6
1431,-193,-17,989,-15,18,3
1432,-190,-4,964,-14,-6,0
1433,-27,23,1006,-7,-29,-7
1434,122,47,1019,-11,-27,-7
1435,210,60,1002,-16,-9,-3
1436,135,29,1001,-27,21,2
1437,-35,-3,1017,-23,32,8
1438,-179,-26,971,-19,22,6
1439,-174,-19,962,-13,-2,-1
1440,-38,-29,986,-4,-21,-6
1441,78,-33,993,14,-19,-23
1442,-38,224,670,-62,-27,-14
1443,37,63,324,154,-76,65
1444,-130,34,434,166,5,78
1445,85,-46,306,84,-41,58
1446,-59,0,358,-93,-22,47
1447,100,-93,535,105,4,-1
1448,-15,33,223,-188,-23,2
1449,-9,-6,444,7,-15,-5
1450,0,197,533,122,19,-6
1451,-28,241,610,17,-9,25
1452,-182,69,152,47,-29,16
1453,-114,-24,291,-237,40,-7
1454,-168,-68,229,44,13,19
1455,2,53,685,31,-74,7
1456,215,46,572,-92,-42,-18
1457,131,-62,409,32,64,-1
1458,-87,110,425,9,20,-21
1459,-43,-93,286,15,1,-25
1460,-163,-19,20,-121,48,-16
1461,-11,67,165,293,-24,-46
1462,-56,-142,83,-277,37,-3
1463,-41,101,84,17,-5,-12
1464,-1,-4,251,201,-46,-31
1465,16,16,556,-453,6,12
1466,-20,20,632,285,48,-9
1467,-113,12,711,-171,37,1
1468,-150,4,985,-87,-16,1
1469,-36,34,969,281,-18,-13
1470,65,-4,918,-363,-31,1
1471,188,-19,642,224,23,-12
1472,109,-75,609,-54,18,0
1473,-174,167,722,-226,-7,-45
1474,5,-18,156,309,22,-79
1475,-38,-10,21,-379,49,0
1476,-23,143,110,160,88,-61
1477,45,-109,383,118,-33,-9
1478,153,128,172,-522,-141,7
1479,105,-19,175,409,86,-16
1480,61,-12,585,-198,83,3
1481,-58,-50,753,-114,-13,17
1482,-137,-28,676,376,-21,-9
1483,-230,198,647,-379,-34,1
1484,-119,-119,100,219,16,21
1485,73,163,351,-23,-19,15
1486,230,-192,184,-278,-19,-14
1487,66,-91,354,314,-7,22
1488,-174,261,152,-223,49,1
1489,-188,-263,470,176,74,-71
1490,-56,-9,642,142,-24,35
1491,5,190,125,-171,-64,-46
1492,84,-147,646,339,-16,-43
1493,255,72,297,-296,16,26
1494,76,-12,269,142,24,-6
1495,-135,74,666,54,13,-2
1496,-120,9,368,-255,-32,-25
1497,-156,-12,882,352,40,32
1498,-135,175,460,-327,-35,-28
1499,-59,-96,529,89,-10,-5
1500,243,105,533,121,-15,5
1501,121,-69,760,-283,-8,14
1502,-21,21,711,297,70,-13
1503,-184,74,658,-143,-13,6
1504,-27,-48,400,-182,55,34
1505,0,89,769,173,-44,5
1506,92,98,520,-348,-31,-39
1507,171,-114,498,269,27,-37
1508,131,35,549,-122,38,32
1509,21,39,532,-88,10,-8
1510,-123,-19,450,164,10,-1
1511,-159,23,634,-212,-17,16
1512,-122,18,664,127,29,-14
1513,23,26,773,-39,-15,-9
1514,126,72,677,-93,-54,-7
1515,151,26,615,116,1,-8
1516,97,12,595,-135,23,4
1517,-76,5,745,29,49,4
1518,-167,-15,838,3,13,0
1519,-161,-3,965,-69,-29,0
1520,-21,38,1006,68,-20,-8
1521,116,35,1014,-54,-16,-8
1522,187,55,985,-9,1,-3
1523,116,37,966,2,17,2
1524,-32,-1,965,-61,18,7
1525,-166,-15,935,13,24,4
1526,-173,-7,927,-22,1,-1
1527,-63,9,980,-14,-24,-7
1528,79,38,1010,13,-27,-8
1529,193,54,1017,-31,-12,-6
1530,152,42,1007,-10,19,-2
1531,6,15,1006,-19,29,5
1532,-142,-4,978,-30,20,3
1533,-193,-11,983,-2,3,0
1534,-118,3,976,-16,-19,-6
1535,56,32,999,-6,-26,-10
1536,183,50,1012,-7,-16,-9
1537,170,39,1014,-26,7,-1
1538,52,21,1015,-12,27,4
1539,-114,3,986,-19,26,5
1540,-193,-10,969,-18,10,1
1541,-156,-3,979,-5,-12,-4
1542,18,31,1016,-12,-26,-7
1543,158,44,1014,-12,-19,-9
1544,191,37,1005,-13,0,-4
1545,96,31,999,-20,20,3
1546,-76,3,998,-14,30,5
1547,-188,-16,980,-17,16,2
1548,-181,0,967,-11,-6,-3
1549,-22,28,1008,-6,-26,-7
1550,124,40,1024,-15,-26,-10
1551,202,47,1007,-13,-6,-6
1552,133,33,1002,-20,18,1
1553,-37,3,1000,-20,30,5
1554,-175,-11,973,-14,20,4
1555,-189,-2,967,-11,0,0
1556,-73,14,1002,-10,-22,-7
1557,91,39,1021,-9,-28,-9
1558,200,52,1016,-16,-14,-6
1559,156,37,1006,-17,13,-1
1560,9,8,1003,-19,28,6
1561,-149,-8,974,-20,24,5
1562,-194,-12,982,-12,6,1
1563,-118,6,986,-9,-16,-5
1564,56,35,1011,-9,-28,-9
1565,183,56,1009,-8,-17,-9
1566,178,40,1006,-21,7,-2
1567,55,16,1006,-20,26,4
1568,-113,1,994,-20,29,6
1569,-191,-18,975,-17,10,1
1570,-160,-3,980,-8,-12,-4
1571,22,33,1018,-8,-30,-9
1572,152,49,1012,-11,-22,-10
1573,193,41,1003,-16,0,-4
1574,99,29,994,-21,22,3
1575,-78,3,998,-20,32,6
1576,-187,-16,988,-17,17,1
1577,-180,-4,974,-9,-6,-2
1578,-27,21,1005,-6,-26,-8
1579,120,41,1018,-9,-26,-11
1580,202,47,1005,-14,-7,-6
1581,133,39,1000,-18,18,3
1582,-35,7,1010,-22,31,6
1583,-170,-14,975,-18,22,3
1584,-190,-6,970,-12,-1,-1
1585,-75,14,999,-7,-25,-7
1586,81,33,1013,-9,-29,-10
1587,199,51,1009,-15,-15,-7
1588,154,38,1007,-17,13,1
1589,11,12,1009,-19,29,5
1590,-147,-4,981,-20,26,5
1591,-192,-9,982,-13,6,1
1592,-123,2,980,-11,-18,-4
1593,56,32,1007,-6,-30,-9
1594,184,50,1011,-9,-19,-9
1595,174,38,1002,-19,7,-2
1596,59,19,1015,-19,27,4
1597,-116,1,992,-18,29,6
1598,-191,-12,974,-15,10,1
1599,-157,0,981,-8,-14,-4
1600,15,33,1009,-7,-29,-8
1601,157,48,1009,-10,-23,-10
1602,194,37,1008,-15,-1,-4
1603,104,28,997,-21,23,3
1604,-72,0,1000,-20,31,6
1605,-186,-17,983,-17,17,2
1606,-182,-3,974,-9,-7,-2
1607,-26,26,1000,-5,-27,-7
1608,119,41,1018,-11,-25,-10
1609,204,48,1007,-12,-6,-6
1610,135,34,1003,-18,18,2
1611,-28,4,1007,-21,30,6
1612,-172,-16,972,-16,21,4
1613,-188,-1,969,-11,-1,0
1614,-76,11,998,-7,-23,-6
1615,83,39,1016,-6,-28,-9
1616,201,53,1009,-15,-13,-8
1617,153,39,1009,-18,14,0
1618,13,7,1008,-21,28,6
1619,-147,-7,980,-17,25,4
1620,-191,-11,979,-11,5,0
1621,-123,5,979,-7,-17,-5
1622,53,37,1008,-7,-29,-8
1623,182,49,1009,-12,-19,-9
1624,179,41,1009,-18,7,-2
1625,32,44,1008,-17,24,9
1626,-93,17,899,-25,24,2
1627,-190,-48,936,-31,15,-2
1628,-163,6,909,17,-13,-2
1629,30,10,836,-40,-31,-6
1630,163,11,795,5,-19,-16
1631,200,20,908,1,4,-7
1632,16,95,866,-27,21,6
1633,-111,88,644,105,26,104
1634,-98,-85,317,38,-154,149
1635,-347,19,411,206,-69,94
1636,-14,-17,437,-139,-65,32
1637,96,27,268,-128,-27,-19
1638,35,71,528,-106,59,-80
1639,12,18,389,8,33,-46
1640,-43,-3,490,90,16,-6
1641,-99,-50,477,19,0,-4
1642,-254,149,454,61,-13,37
1643,-107,-3,174,323,-202,238
1644,57,11,98,239,-231,167
1645,46,36,525,192,-188,146
1646,123,-70,201,158,-59,103
1647,32,38,400,-46,-26,49
1648,-21,-72,157,-17,-5,31
1649,-63,-94,66,-20,11,15
1650,-223,221,469,46,5,19
1651,39,100,156,-83,-48,-15
1652,61,11,145,30,-57,-30
1653,235,67,83,-65,-18,-23
1654,77,-141,48,-41,54,-8
1655,-82,2,369,23,98,-2
1656,-140,-168,47,-92,-30,-1
1657,-345,62,315,175,-6,12
1658,113,-18,110,-262,-2,72
1659,214,116,117,-138,-55,11
1660,142,119,473,116,73,-13
1661,43,-94,145,-184,-121,18
1662,-92,115,104,3,121,20
1663,-175,-139,440,57,57,6
1664,-228,-6,627,-175,-33,13
1665,-6,-49,782,116,-60,-7
1666,143,3,666,-42,-13,-6
1667,117,134,607,-25,21,-9
1668,96,37,560,-132,64,-52
1669,65,-4,101,-175,-2,51
1670,11,45,347,-75,19,17
1671,-171,-153,247,35,89,-64
1672,-135,-75,228,-125,-35,-23
1673,36,61,144,20,-9,-24
1674,231,-87,151,1,8,-32
1675,107,175,333,11,28,0
1676,61,28,525,153,-26,-11
1677,-137,-73,359,12,20,68
1678,-95,191,546,55,-56,-3
1679,-144,-223,566,-13,4,3
1680,54,18,226,20,-25,19
1681,-30,169,317,7,-40,23
1682,162,-110,715,-132,-73,78
1683,28,228,818,-130,-6,114
1684,-16,-162,264,134,15,-9
1685,-84,-87,214,-311,-10,79
1686,-206,194,168,182,5,15
1687,-67,-21,213,-128,-21,-95
1688,69,-190,616,-282,16,63
1689,112,19,387,288,-19,-17
1690,88,-279,437,-210,6,-56
1691,-76,-54,634,0,-16,56
1692,-152,140,748,149,79,6
1693,-110,-11,210,-131,31,-19
1694,326,-80,303,154,-106,22
1695,94,112,638,-205,-6,15
1696,178,-23,340,6,87,-85
1697,89,-51,774,24,-45,51
1698,92,143,401,-58,-40,20
1699,-166,-204,320,54,82,-23
1700,-229,109,388,4,67,8
1701,-186,83,384,-24,-16,4
1702,3,69,437,52,-67,-24
1703,206,126,402,-100,-55,3
1704,210,13,459,-30,25,-9
1705,76,-39,566,-26,52,6
1706,-99,-70,852,-41,5,14
1707,-195,-58,970,43,2,-4
1708,-158,-24,900,-25,6,-6
1709,-17,86,798,7,-4,-5
1710,145,104,674,9,-32,-13
1711,191,92,676,-34,-26,-5
1712,100,38,764,-9,22,5
1713,-66,-12,858,-43,48,6
1714,-180,-62,948,-34,22,2
1715,-190,-52,967,4,-18,-2
1716,-10,5,1022,-11,-39,-8
1717,133,52,1018,8,-17,-11
1718,193,79,997,-6,5,-6
1719,122,81,1011,-25,16,3
1720,-58,35,1010,-18,23,7
1721,-174,-15,984,-32,16,3
1722,-182,-31,974,-24,3,-1
1723,-42,-22,1002,-9,-25,-8
1724,103,12,1003,-10,-33,-11
1725,206,42,1005,1,-10,-8
1726,144,60,1000,-10,22,1
1727,-14,38,1012,-24,35,4
1728,-168,8,981,-18,24,3
1729,-200,3,972,-21,-2,1
1730,-93,-5,990,-14,-23,-6
1731,75,14,1008,-10,-29,-8
1732,206,30,1011,-15,-14,-7
1733,170,34,1011,-10,13,-2
1734,28,20,1013,-17,30,3
1735,-140,10,981,-16,28,4
1736,-205,5,980,-9,8,0
1737,-140,10,982,-11,-18,-5
1738,41,33,1005,-9,-32,-9
1739,181,38,1006,-14,-21,-10
1740,188,26,1009,-22,5,-2
1741,73,10,1010,-18,26,4
1742,-104,3,998,-17,29,5
1743,-197,-10,976,-13,12,2
1744,-179,8,972,-5,-10,-4
1745,8,42,1009,-8,-28,-9
1746,144,52,1016,-12,-23,-10
1747,200,36,1007,-21,-3,-5
1748,114,20,997,-23,22,3
1749,-65,0,1001,-18,31,6
1750,-185,-23,982,-14,17,2
1751,-190,0,970,-8,-4,-2
1752,-37,28,998,-5,-25,-7
1753,109,50,1023,-9,-26,-10
1754,203,56,1012,-15,-8,-7
1755,141,40,1006,-20,15,1
1756,-18,0,1010,-24,29,5
1757,-168,-23,970,-17,22,4
1758,-191,-9,967,-13,1,0
1759,-87,5,997,-7,-22,-6
1760,80,42,1017,-5,-29,-10
1761,201,57,1011,-13,-15,-9
1762,161,47,1013,-16,12,-1
1763,22,17,1007,-21,28,5
1764,-139,-6,978,-20,26,4
1765,-199,-14,979,-14,7,1
1766,-129,-1,978,-12,-17,-4
1767,50,31,1011,-6,-27,-9
1768,183,51,1008,-13,-19,-8
1769,181,38,1007,-17,6,-2
1770,66,23,1009,-18,25,4
1771,-109,4,992,-19,28,5
1772,-191,-14,982,-16,11,1
1773,-169,-3,972,-10,-11,-2
1774,13,33,1014,-8,-28,-9
1775,152,47,1019,-11,-24,-9
1776,196,40,1005,-15,-3,-4
1777,108,31,994,-20,21,4
1778,-69,1,996,-20,30,7
1779,-187,-15,982,-16,17,3
1780,-186,-4,971,-11,-6,-2
1781,-33,24,1009,-9,-28,-8
1782,115,41,1016,-11,-25,-10
1783,204,52,1008,-12,-8,-6
1784,138,39,1002,-19,17,2
1785,-24,0,1009,-21,29,6
1786,-169,-12,971,-17,24,4
1787,-191,-8,966,-12,2,-1
1788,-86,8,1002,-7,-24,-7
1789,79,38,1014,-9,-29,-9
1790,200,57,1009,-13,-13,-7
1791,162,37,1009,-19,12,0
1792,20,12,1008,-20,29,5
1793,-140,-4,977,-20,25,5
1794,-195,-14,985,-12,7,1
1795,-134,1,982,-8,-17,-5
1796,51,34,1009,-7,-30,-10
1797,178,52,1009,-11,-20,-9
1798,180,39,1003,-18,5,-2
1799,71,28,1012,-18,26,4
1800,-110,1,995,-19,30,6
1801,-193,-13,980,-16,11,1
1802,-163,-6,978,-9,-11,-4
1803,9,31,1008,-6,-29,-8
1804,148,45,1018,-9,-24,-9
1805,194,38,1009,-14,-2,-4
1806,108,35,992,-18,22,3
1807,-65,3,997,-18,33,5
1808,-190,-18,989,-16,17,2
1809,-180,-1,970,-11,-7,-3
1810,-35,15,1007,-7,-26,-7
1811,109,42,1015,-10,-25,-10
1812,208,50,1005,-13,-9,-7
1813,138,37,1005,-18,16,0
1814,-26,5,1007,-20,30,5
1815,-164,-11,975,-17,22,3
1816,-193,-6,966,-14,1,0
1817,-86,9,994,-9,-23,-6
1818,80,36,1018,-9,-28,-9
1819,197,53,1006,-15,-14,-7
1820,162,41,1009,-17,13,0
1821,24,8,1011,-23,27,4
1822,-143,-3,979,-16,26,5
1823,-194,-13,978,-13,6,1
1824,-134,3,984,-8,-18,-5
1825,48,36,1007,-5,-31,-8
1826,177,52,1012,-12,-20,-9
1827,183,38,1002,-17,5,-4
1828,67,21,1010,-19,26,2
1829,-102,4,995,-20,28,5
1830,-195,-16,983,-15,12,2
1831,-164,-1,968,-10,-11,-3
1832,5,28,1014,-7,-28,-8
1833,132,59,1017,-14,-24,-9
1834,185,53,947,-29,5,-8
1835,105,18,992,-16,5,1
1836,-33,13,842,-71,31,11
1837,-191,-35,749,7,20,-3
1838,-198,2,758,-3,1,-1
1839,-29,10,828,-41,-36,-7
1840,95,44,970,39,-22,-10
1841,204,61,974,-47,-13,-5
1842,152,37,1005,-12,19,2
1843,-22,9,1005,-9,32,9
1844,-160,-9,949,-43,16,6
1845,-191,-18,959,8,5,0
1846,-94,0,987,-17,-21,-7
1847,79,28,1003,-16,-28,-9
1848,234,20,994,0,-15,-9
1849,160,9,1005,-19,15,-3
1850,-76,145,972,-32,31,-4
1851,-76,2,763,-45,-15,-64
1852,71,-86,37,-131,48,-120
1853,-196,89,158,213,48,-45
1854,0,-55,217,-94,-28,-13
1855,49,52,207,-4,-11,-37
1856,202,-25,596,35,47,-30
1857,49,-11,424,-157,41,1
1858,-208,212,542,-69,25,-41
1859,-105,64,109,-302,44,-15
1860,-173,-68,143,-189,29,16
1861,6,-68,467,177,-12,30
1862,138,-157,69,-25,-57,17
1863,224,-16,337,140,-31,-4
1864,118,-120,101,-35,22,13
1865,-208,119,115,80,78,-5
1866,-199,-59,251,57,-12,44
1867,-19,66,-21,-74,-34,28
1868,73,-64,399,115,-69,-30
1869,93,-54,93,-97,16,11
1870,80,-67,210,-51,29,-13
1871,-142,-65,258,76,-153,-92
1872,-23,93,-39,-232,183,-32
1873,51,36,47,208,52,-63
1874,-56,43,190,174,49,-21
1875,48,16,88,-246,-146,-12
1876,108,42,59,428,24,-63
1877,210,-78,85,-501,15,-24
1878,135,39,256,226,70,16
1879,-40,163,344,-82,-4,-56
1880,42,-1,166,-250,-7,47
1881,-40,-103,88,322,65,64
1882,-85,-13,481,-259,-30,-69
1883,-43,-183,678,-572,109,77
1884,110,205,864,265,-34,38
1885,88,-23,86,-467,-52,9
1886,62,-23,364,93,98,20
1887,-10,11,86,84,32,31
1888,-278,198,275,-252,-41,26
1889,26,-146,257,170,-163,104
1890,32,166,236,-142,10,70
1891,182,-14,176,-80,-54,8
1892,231,-96,212,58,-25,33
1893,-28,313,15,-277,18,-2
1894,-126,-273,322,-125,165,-105
1895,-59,77,359,-472,49,40
1896,7,147,90,64,46,-107
1897,-20,-148,154,-292,21,-52
1898,207,182,221,-79,50,-15
1899,25,-87,260,0,94,-73
1900,66,-36,502,-97,-49,8
1901,-256,86,562,33,-9,68
1902,-277,-76,185,4,69,-64
1903,-249,-249,125,-86,30,34
1904,-121,304,449,173,10,-6
1905,-126,-223,213,-97,-14,-100
1906,44,-28,-95,-176,-62,76
1907,130,183,416,305,25,-20
1908,131,-40,392,-383,25,-47
1909,-58,1,368,183,6,29
1910,-45,48,305,-23,38,18
1911,-209,13,223,-122,15,-23
1912,18,160,424,186,-13,-11
1913,51,88,378,-160,-39,-7
1914,88,167,358,95,-4,-16
1915,126,52,266,-66,2,5
1916,-13,33,376,-80,11,-1
1917,-119,-76,362,47,30,4
1918,-155,-62,487,-90,1,1
1919,-63,-38,528,45,-18,-9
1920,87,28,567,4,-25,-11
1921,161,78,627,-19,-9,-4
1922,126,104,694,30,30,0
1923,-24,65,782,-48,28,7
1924,-152,1,804,-14,14,5
1925,-175,-22,822,-22,-4,3
1926,-48,-46,845,-36,-22,-6
1927,71,-17,859,2,-19,-6
1928,187,28,885,-9,-12,-6
1929,146,45,941,-7,11,-1
1930,4,50,971,-4,30,5
1931,-143,39,973,-22,27,4
1932,-192,19,971,-16,5,0
1933,-110,4,975,-15,-24,-6
1934,55,1,993,-19,-32,-9
1935,190,12,972,-10,-14,-9
1936,171,12,988,-14,11,-2
1937,50,14,1017,-12,28,2
1938,-124,22,988,-13,26,6
1939,-192,21,976,-11,9,1
1940,-150,21,983,-10,-13,-4
1941,25,43,1016,-14,-29,-7
1942,163,34,1012,-22,-21,-9
1943,189,18,999,-19,1,-4
1944,88,-1,1006,-20,23,3
1945,-83,-3,1001,-15,30,5
1946,-184,-13,986,-10,16,3
1947,-179,15,960,-7,-7,-2
1948,-13,48,1002,-6,-26,-7
1949,128,53,1027,-13,-23,-9
1950,193,43,1005,-22,-6,-5
1951,122,22,994,-23,20,2
1952,-48,-9,994,-23,29,6
1953,-175,-30,985,-12,17,2
1954,-182,-3,971,-7,-2,-2
1955,-55,23,1002,-5,-23,-7
1956,98,49,1020,-6,-25,-11
1957,197,61,1012,-14,-9,-7
1958,141,44,1009,-21,14,0
1959,-11,1,1012,-25,29,5
1960,-155,-18,969,-20,22,4
1961,-187,-18,972,-12,1,0
1962,-94,0,994,-7,-21,-6
1963,65,34,1011,-8,-27,-9
1964,194,61,1012,-10,-15,-8
1965,159,50,1010,-17,10,-1
1966,32,20,1011,-20,26,3
1967,-136,1,980,-20,27,4
1968,-190,-16,976,-17,9,0
1969,-138,-9,981,-11,-15,-5
1970,39,27,1014,-7,-30,-10
1971,174,46,1007,-12,-21,-9
1972,186,40,1000,-15,4,-3
1973,73,33,1004,-19,24,2
1974,-99,13,995,-22,28,6
1975,-192,-15,986,-16,13,0
1976,-172,-2,969,-14,-10,-2
1977,2,28,1007,-9,-29,-10
1978,139,34,1021,-12,-25,-11
1979,200,39,1009,-16,-5,-5
1980,117,29,993,-17,21,2
1981,-55,7,999,-18,29,5
1982,-183,-11,982,-16,17,3
1983,-184,5,972,-9,-4,-1
1984,-50,19,1004,-9,-24,-7
1985,98,38,1019,-11,-28,-9
1986,202,45,1005,-15,-11,-6
1987,146,31,1004,-20,15,0
1988,-9,3,1014,-18,30,5
1989,-160,-10,975,-17,24,3
1990,-191,1,974,-11,3,0
1991,-102,8,989,-11,-21,-5
1992,65,43,1010,-9,-29,-9
1993,195,48,1009,-12,-16,-8
1994,162,35,1009,-20,8,0
1995,39,11,1010,-21,27,4
1996,-130,-5,983,-16,28,5
1997,-191,-10,980,-12,8,2
1998,-144,2,982,-9,-16,-4
1999,35,40,1011,-6,-30,-9
2000,167,49,1009,-11,-21,-8
2001,182,38,998,-16,3,-3
2002,79,19,1006,-20,25,3
2003,-92,-3,999,-20,29,6
2004,-187,-18,985,-13,13,1
2005,-172,-2,972,-10,-9,-2
2006,-7,34,1004,-6,-27,-7
2007,134,44,1019,-10,-25,-9
2008,196,45,1010,-17,-5,-5
2009,116,34,996,-20,20,2
2010,-48,0,1003,-21,29,5
2011,-178,-16,978,-17,19,3
2012,-185,-2,971,-10,-4,-1
2013,-47,19,1003,-8,-25,-8
2014,95,38,1017,-7,-26,-9
2015,203,52,1004,-14,-11,-7
2016,147,38,1011,-21,16,0
2017,-12,10,1011,-19,30,6
2018,-157,-12,974,-18,23,4
2019,-193,-7,979,-12,1,0
2020,-102,10,982,-9,-20,-5
2021,69,31,1010,-7,-30,-10
2022,189,52,1013,-11,-15,-9
2023,170,38,1011,-19,10,-2
2024,42,15,1014,-20,27,3
2025,-127,3,983,-18,29,5
2026,-191,-12,976,-14,8,0
2027,-144,2,982,-10,-15,-5
2028,34,33,1012,-8,-29,-8
2029,169,46,1006,-13,-20,-9
2030,187,36,1005,-15,3,-3
2031,86,23,1001,-19,23,2
2032,-89,4,1001,-5,31,4
2033,-193,-17,984,-13,15,2
2034,-179,-2,971,-12,-11,-2
2035,-9,29,999,-5,-29,-7
2036,130,41,1025,-12,-24,-9
2037,204,44,1011,-16,-4,-5
2038,123,32,997,-19,20,2
2039,-47,6,1003,-20,29,6
2040,-193,4,972,-10,19,3
2041,-185,15,914,-20,-3,3
2042,-44,5,914,-13,-26,-8
2043,60,28,838,-5,-27,-5
2044,242,39,622,-31,-13,-10
2045,147,31,740,-12,19,-2
2046,-20,10,726,-9,32,2
2047,-154,-1,917,-60,24,4
2048,-195,4,914,33,7,2
2049,-87,5,973,-28,-24,-4
2050,80,12,1007,-23,-27,-9
2051,163,21,1013,22,-7,-17
2052,47,139,986,-16,7,5
2053,-19,-24,528,85,9,161
2054,-4,-88,165,208,-155,149
2055,-423,62,397,-15,-54,93
2056,-86,-35,343,-220,66,1
2057,-40,34,472,-85,0,22
2058,229,33,388,-134,-89,-25
2059,160,45,445,111,94,-5
2060,-20,38,495,-79,-4,8
2061,-51,11,566,-88,21,15
2062,-142,-65,683,92,25,-2
2063,-113,-35,610,-109,-26,-7
2064,-267,147,379,-339,107,-64
2065,70,-53,84,-556,103,-109
2066,-78,98,116,-407,119,-48
2067,80,2,205,-387,110,-47
2068,-14,-34,234,-391,132,0
2069,-180,-56,359,7,83,-52
2070,-225,-38,238,-262,35,-38
2071,-109,-27,485,-42,45,-44
2072,-58,109,606,128,22,-52
2073,21,23,15,-193,-43,-16
2074,-11,-77,45,14,13,-2
2075,-109,0,527,-52,55,-16
2076,-169,-140,764,-120,34,11
2077,-57,-45,520,70,-24,0
2078,-107,-106,428,-11,-18,-14
2079,-279,130,763,-90,46,-42
2080,52,131,134,183,-18,-69
2081,262,-9,48,118,-98,-24
2082,-27,-157,50,-174,-64,-2
2083,-176,-13,298,-190,253,-5
2084,-155,-112,230,193,-20,6
2085,-156,-128,471,-162,-252,-11
2086,-132,16,640,136,-68,-19
2087,11,292,628,-52,271,-24
2088,74,-206,102,171,-36,11
2089,143,-28,287,-140,-224,37
2090,54,12,122,345,-87,23
2091,-112,-227,209,-257,139,75
2092,-239,63,38,199,102,17
2093,-114,-113,190,-152,-205,-37
2094,8,66,34,-101,-83,-28
2095,174,121,669,156,102,-11
2096,236,87,709,-180,36,-21
2097,78,-29,785,34,-13,18
2098,-196,202,804,121,-28,-6
2099,-220,-203,308,148,-52,-34
2100,-144,-162,167,210,12,61
2101,3,163,470,185,-174,42
2102,226,-70,405,-116,-77,15
2103,200,98,579,23,-41,37
2104,-10,83,644,-92,102,31
2105,-291,0,650,194,71,-73
2106,-70,-24,333,257,-73,48
2107,-81,-40,446,-134,-66,-56
2108,-53,-84,-6,142,15,-77
2109,98,38,186,-50,17,-17
2110,69,-99,287,13,-10,11
2111,-36,138,319,72,43,-30
2112,-109,8,410,-79,15,10
2113,-217,-32,402,25,-1,64
2114,-291,215,344,121,-39,-41
2115,-311,-213,345,-127,-70,-3
2116,-12,188,704,77,-20,-10
2117,68,-88,440,-5,-2,13
2118,49,-53,564,-66,13,-10
2119,-18,167,647,94,10,-25
2120,112,-153,186,-174,13,12
2121,-6,162,499,179,-7,39
2122,83,-41,475,-58,-53,-51
2123,9,-89,715,-96,-57,11
2124,182,121,543,126,51,3
2125,67,-65,587,-105,14,-2
2126,-7,20,535,-7,-2,6
2127,-133,-78,664,48,23,13
2128,-181,39,678,-65,12,-3
2129,-69,13,628,29,-4,-10
2130,44,81,624,24,-42,-10
2131,176,66,818,-67,-26,-4
2132,152,58,902,19,31,-4
2133,1,0,880,-58,35,6
2134,-123,-35,863,-27,13,5
2135,-171,-29,907,24,-8,1
2136,-98,-20,925,-39,-20,-5
2137,49,41,969,21,-8,-11
2138,171,70,1003,-11,-11,-6
2139,151,67,1010,-31,-3,-1
2140,47,30,1022,3,20,1
2141,-120,5,988,-43,29,6
2142,-179,-23,974,-11,13,1
2143,-135,-27,971,-5,-18,-4
2144,27,13,1006,-16,-32,-7
2145,165,45,1017,5,-13,-8
2146,174,50,1005,-21,11,-2
2147,75,45,1005,-17,21,3
2148,-93,20,1003,-13,24,5
2149,-186,-11,988,-23,10,2
2150,-165,-10,959,-8,-5,-2
2151,-1,16,1007,-12,-23,-9
2152,134,29,1023,-15,-24,-9
2153,194,37,1015,-8,-4,-5
2154,119,37,996,-17,20,2
2155,-60,15,993,-15,31,7
2156,-181,-5,980,-15,17,2
2157,-185,3,980,-12,-5,-1
2158,-49,22,1002,-12,-24,-7
2159,102,31,1014,-13,-26,-9
2160,200,45,1011,-15,-10,-7
2161,144,30,1002,-19,14,1
2162,-11,2,1011,-18,29,5
2163,-161,-8,974,-16,24,4
2164,-189,0,967,-11,3,1
2165,-95,15,998,-10,-22,-7
2166,66,39,1017,-12,-29,-9
2167,194,55,1010,-14,-15,-7
2168,163,33,1007,-19,10,0
2169,35,7,1007,-19,26,5
2170,-130,-6,983,-16,27,4
2171,-188,-12,984,-13,9,0
2172,-139,4,982,-8,-16,-4
2173,38,39,1009,-8,-29,-9
2174,168,54,1012,-13,-21,-8
2175,182,39,996,-16,4,-3
2176,75,23,1004,-20,25,3
2177,-95,1,1002,-22,28,5
2178,-187,-22,983,-17,12,1
2179,-171,-3,973,-10,-10,-3
2180,3,31,1009,-7,-27,-8
2181,135,48,1015,-10,-23,-9
2182,195,45,1005,-16,-4,-5
2183,113,33,999,-19,22,1
2184,-57,3,997,-21,31,6
2185,-180,-21,983,-19,18,3
2186,-187,-7,976,-10,-5,-3
2187,-47,17,1002,-7,-27,-8
2188,103,40,1016,-8,-25,-11
2189,201,51,1004,-14,-8,-6
2190,143,40,1005,-22,16,1
2191,-15,5,1016,-21,29,5
2192,-163,-8,973,-18,23,4
2193,-192,-6,972,-12,1,0
2194,-94,7,993,-8,-22,-7
2195,70,35,1009,-7,-28,-11
2196,200,54,1011,-13,-16,-7
2197,162,41,1012,-18,12,1
2198,33,16,1011,-18,28,5
2199,-134,-2,983,-19,28,4
2200,-197,-10,983,-14,8,1
2201,-141,-2,979,-10,-17,-5
2202,42,33,1006,-5,-30,-8
2203,177,49,1010,-11,-20,-8
2204,185,37,1005,-18,4,-2
2205,77,24,1011,-18,25,2
2206,-101,4,996,-19,29,6
2207,-193,-13,983,-16,12,3
2208,-171,-3,970,-10,-11,-3
2209,5,29,1008,-9,-29,-8
2210,147,45,1017,-12,-22,-9
2211,198,39,1008,-18,-1,-5
2212,115,32,995,-19,22,1
2213,-63,6,999,-21,32,6
2214,-188,-17,980,-15,19,2
2215,-186,0,974,-10,-4,-1
2216,-38,21,1003,-8,-27,-8
2217,107,39,1020,-12,-26,-9
2218,206,49,1009,-13,-9,-7
2219,140,34,1004,-19,17,1
2220,-16,6,1012,-20,29,5
2221,-172,-15,975,-16,23,3
2222,-190,-1,966,-12,0,0
2223,-91,9,996,-9,-22,-5
2224,77,41,1014,-9,-29,-9
2225,198,50,1017,-15,-15,-9
2226,163,37,1007,-17,11,-1
2227,25,11,1011,-20,29,5
2228,-142,0,981,-19,25,5
2229,-196,-13,977,-12,5,1
2230,-133,1,981,-10,-16,-5
2231,43,34,1012,-7,-29,-10
2232,181,51,1008,-11,-21,-10
2233,182,37,1005,-17,4,-4
2234,68,21,1008,-19,25,3
2235,-105,1,995,-19,29,6
2236,-193,-12,979,-13,12,2
2237,-166,0,972,-11,-10,-4
2238,7,31,1012,-7,-27,-8
2239,137,62,1031,-37,-16,-8
2240,209,62,991,29,-28,-10
2241,97,7,972,-54,12,2
2242,-69,1,921,58,27,3
2243,-178,-28,916,-35,3,8
2244,-183,-15,956,32,-15,2
2245,-29,24,995,-2,-35,-2
2246,107,47,1020,-26,-29,-7
2247,198,63,1011,6,-5,-4
2248,137,41,1000,-40,11,2
2249,-20,2,1006,-23,26,6
2250,-161,-19,983,-10,24,2
2251,-190,-9,978,-26,2,1
2252,-84,3,994,0,-20,-8
2253,78,38,1012,-9,-31,-10
2254,198,57,1014,-18,-14,-8
2255,167,41,1010,-10,14,0
2256,23,17,1006,-29,27,7
2257,-142,-6,991,-16,26,6
2258,-201,-14,981,-11,7,1
2259,-138,-2,982,-13,-17,-4
2260,82,12,1002,-6,-31,-8
2261,197,-14,1021,-4,-16,-16
2262,68,145,972,13,18,-6
2263,41,102,610,-185,101,-2
2264,69,-9,-9,-441,156,35
2265,-249,-110,156,-165,-17,-9
2266,-228,-55,126,-159,16,-110
2267,-104,41,393,-49,67,-95
2268,10,20,543,146,-29,-84
2269,89,-13,465,-45,15,12
2270,104,-12,786,157,18,19
2271,-71,51,776,187,-25,68
2272,-93,-61,322,547,-216,121
2273,-206,-27,72,643,-154,97
2274,-103,-40,365,569,-191,2
2275,72,-12,439,299,-181,25
2276,161,38,253,300,-105,29
2277,141,-54,557,-75,-42,51
2278,-103,98,410,231,16,48
2279,-55,-88,351,-38,-41,40
2280,-150,24,-284,56,-65,47
2281,-64,59,2,-43,-61,5
2282,103,-50,281,-195,-20,-4
2283,47,39,779,70,31,3
2284,130,-61,237,-102,-49,2
2285,-202,113,209,21,-33,-35
2286,48,-6,113,126,75,-29
2287,33,9,47,-164,144,-24
2288,-102,-4,297,370,-263,-16
2289,41,-63,162,-345,-89,-3
2290,210,-31,479,124,114,-19
2291,183,-35,517,-10,106,-11
2292,2,-1,410,-138,-136,7
2293,-106,228,147,134,0,-26
2294,156,-70,-33,-102,162,-45
2295,-72,-82,-27,-231,40,3
2296,36,218,444,-36,5,-57
2297,92,-135,330,-36,-67,-56
2298,197,36,-58,-393,15,-5
2299,40,60,406,351,118,-3
2300,-88,-9,168,-183,32,3
2301,-129,47,656,177,-48,9
2302,-159,32,813,33,-44,2
2303,34,-56,950,-123,-9,15
2304,46,96,886,167,25,-11
2305,63,38,609,-366,77,-109
2306,-58,-99,113,-179,5,-3
2307,63,74,371,14,143,-75
2308,-99,-106,286,-315,109,-64
2309,-140,106,378,120,14,-20
2310,-32,-30,206,-32,15,-21
2311,-177,231,51,-52,-3,-59
2312,9,-61,93,-130,80,-116
2313,159,113,551,-305,22,-11
2314,125,150,197,232,92,-99
2315,-34,-295,505,-206,17,-31
2316,15,46,377,127,11,-18
2317,-102,-160,465,-47,36,6
2318,-5,20,380,48,-23,-17
2319,-7,177,381,94,-48,-47
2320,37,-40,253,57,14,29
2321,-17,181,548,-1,-12,-10
2322,-177,-34,214,-159,47,-6
2323,-204,7,308,186,34,14
2324,-94,-10,344,-206,-33,8
2325,-55,-63,360,123,-19,-14
2326,141,37,600,-2,-26,5
2327,156,17,741,-92,-4,8
2328,64,108,728,125,24,-4
2329,-19,52,370,-57,20,-17
2330,139,-2,243,-72,6,13
2331,-75,88,369,55,27,14
2332,-40,-30,171,-259,-5,-35
2333,0,-46,638,205,-1,5
2334,185,8,497,-222,-43,-9
2335,93,-67,602,83,39,-16
2336,-7,113,533,-33,41,11
2337,-160,17,696,-63,-13,8
2338,-162,36,774,72,1,-3
2339,-59,16,936,-103,-26,1
2340,59,2,751,27,-8,-12
2341,165,0,737,-36,-12,-2
2342,152,-5,605,-8,-12,3
2343,17,10,678,19,31,3
2344,-116,15,705,-39,35,4
2345,-190,55,874,9,13,1
2346,-127,35,948,-26,-24,-4
2347,36,48,1001,-14,-39,-7
2348,171,28,1019,-13,-19,-7
2349,172,2,980,-39,11,-3
2350,71,-18,1011,-9,28,1
2351,-107,-11,1001,-16,24,6
2352,-179,-2,984,-6,8,0
2353,-154,17,980,2,-6,-5
2354,10,61,1008,-11,-23,-8
2355,141,64,1019,-13,-23,-9
2356,180,37,1000,-22,-4,-3
2357,93,10,987,-23,22,4
2358,-63,-14,997,-20,33,4
2359,-173,-35,992,-19,17,1
2360,-174,-1,968,-5,-8,-3
2361,-24,38,999,-2,-27,-7
2362,113,60,1017,-7,-23,-8
2363,193,58,1011,-15,-5,-4
2364,124,44,1003,-22,17,2
2365,-38,0,1006,-26,28,6
2366,-168,-27,977,-18,17,1
2367,-183,-15,969,-5,0,-1
2368,-57,7,999,-5,-24,-8
2369,85,37,1020,-4,-25,-10
2370,196,61,1009,-12,-11,-8
2371,145,49,1009,-18,14,-1
2372,-1,15,1011,-22,27,4
2373,-151,-6,974,-22,22,4
2374,-188,-12,974,-13,3,-1
2375,-106,-4,982,-10,-20,-7
2376,61,25,1008,-8,-27,-9
2377,186,48,1013,-11,-16,-10
2378,168,45,1012,-17,9,-2
2379,45,22,1012,-20,26,3
2380,-130,10,983,-17,28,5
2381,-192,-7,980,-14,8,0
2382,-148,-5,982,-12,-14,-4
2383,28,31,1009,-9,-29,-8
2384,170,41,1012,-15,-22,-9
2385,186,32,1005,-16,2,-4
2386,85,25,998,-19,21,2
2387,-85,8,1001,-19,29,5
2388,-189,-11,984,-15,15,2
2389,-177,4,966,-11,-6,-3
2390,-7,31,1009,-9,-27,-9
2391,130,39,1020,-11,-25,-9
2392,200,38,1008,-17,-5,-6
2393,121,28,996,-18,20,1
2394,-47,2,1003,-20,30,5
2395,-177,-17,976,-14,17,2
2396,-189,0,972,-9,-2,-1
2397,-53,21,1002,-8,-23,-7
2398,93,38,1021,-11,-26,-9
2399,205,54,1007,-15,-11,-8
2400,147,35,1005,-20,14,0
2401,-2,6,1010,-18,30,5
2402,-156,-13,977,-17,23,5
2403,-187,-7,974,-10,3,0
2404,-104,4,991,-8,-19,-7
2405,67,39,1006,-9,-28,-9
2406,187,55,1013,-14,-16,-8
2407,163,42,1011,-18,7,-1
2408,42,14,1007,-22,26,4
2409,-128,-2,982,-19,30,5
2410,-194,-13,980,-12,10,1
2411,-143,-5,983,-11,-15,-4
2412,32,34,1012,-6,-29,-8
2413,167,51,1008,-13,-21,-9
2414,191,42,1002,-14,3,-4
2415,78,21,1002,-19,23,4
2416,-93,7,1000,-19,29,6
2417,-189,-20,986,-15,15,3
2418,-175,0,970,-12,-9,-3
2419,-3,31,1007,-7,-29,-8
2420,132,43,1021,-10,-25,-9
2421,204,46,1007,-17,-6,-6
2422,118,33,993,-20,21,2
2423,-54,6,1003,-21,31,6
2424,-180,-17,981,-19,19,3
2425,-188,-1,971,-11,-4,-2
2426,-48,16,1003,-10,-26,-8
2427,98,39,1019,-8,-27,-11
2428,205,52,1004,-12,-11,-6
2429,147,39,1008,-18,15,1
2430,-10,9,1013,-18,30,5
2431,-158,-9,972,-17,25,3
2432,-195,-2,974,-13,2,1
2433,-100,5,989,-9,-21,-6
2434,72,35,1010,-9,-29,-10
2435,194,52,1012,-12,-14,-9
2436,165,41,1012,-17,10,-1
2437,38,15,1013,-21,28,4
2438,-133,-3,979,-18,27,6
2439,-205,4,985,-9,6,5
2440,-137,7,932,-52,-25,-6
2441,30,31,957,41,-17,-30
2442,174,55,828,-98,-37,-31
2443,209,27,808,67,22,-5
2444,66,18,900,6,11,-6
2445,-99,1,919,-68,24,4
2446,-205,-19,905,79,31,-1
2447,-176,9,972,-57,-22,0
2448,4,41,1011,6,-36,-7
2449,137,46,1020,25,-26,-8
2450,207,43,1015,-71,-8,-2
2451,108,25,953,13,25,4
2452,-50,-13,967,-31,25,9
2453,-143,-52,958,-33,15,5
2454,-176,-73,957,28,6,-10
2455,-132,148,887,-37,-23,-11
2456,19,11,416,-87,-56,-207
2457,208,-7,93,167,158,-233
2458,-130,91,176,-253,-8,-178
2459,-308,-94,106,427,197,-108
2460,-188,-6,13,-241,142,-14
2461,-190,-82,520,-124,-29,3
2462,-48,-63,505,294,28,-20
2463,38,-15,465,-288,-61,-10
2464,67,204,782,162,15,5
2465,85,40,478,535,-174,214
2466,23,74,-109,170,-231,204
2467,-231,32,321,104,-70,110
2468,-73,-137,257,-107,51,-5
2469,-98,-46,525,-115,-40,-11
2470,-39,-95,402,21,5,-28
2471,67,-27,476,-70,5,-26
2472,0,34,641,-24,-4,1
2473,18,153,126,-103,1,-21
2474,-26,45,-16,-28,31,-14
2475,-138,25,250,50,-6,-7
2476,-239,-46,130,-35,4,8
2477,-90,-66,162,-74,-11,-11
2478,79,-70,314,125,-27,-19
2479,-59,254,417,-5,1,-5
2480,123,26,73,124,-131,-23
2481,-190,-19,527,78,123,12
2482,-65,-11,345,-242,-39,1
2483,-170,74,214,28,3,0
2484,-86,-88,507,0,-41,13
2485,47,-134,661,-85,67,-6
2486,110,45,501,117,-15,-7
2487,109,306,658,-85,-43,-23
2488,-71,-109,328,-92,71,-76
2489,70,-93,210,-277,49,-37
2490,-228,103,459,45,49,-54
2491,-82,-215,232,-28,-56,-31
2492,33,39,241,-6,-40,28
2493,78,-7,320,-89,102,-8
2494,86,26,503,-45,54,-6
2495,91,84,829,-116,-62,1
2496,-74,52,801,92,2,-10
2497,-139,32,794,-134,67,-1
2498,-69,-81,794,24,36,2
2499,-125,167,807,0,-48,-5
2500,0,-54,539,204,-169,42
2501,12,-8,344,172,-26,105
2502,176,54,327,-20,-52,22
2503,-49,-79,274,83,-14,46
2504,-122,121,335,-42,-34,25
2505,-109,-51,248,-25,23,18
2506,-192,213,227,-8,38,-21
2507,-139,-46,184,-136,11,-62
2508,9,-147,282,-106,11,-48
2509,86,223,286,-210,78,-64
2510,10,-194,444,-36,115,-70
2511,-66,32,796,-77,69,-21
2512,-155,-89,842,19,-3,-19
2513,-136,39,891,100,-1,-32
2514,-38,182,989,-76,-16,-9
2515,116,24,413,150,-36,11
2516,68,0,697,-35,-31,38
2517,30,34,451,31,0,-34
2518,-136,-129,899,-57,48,28
2519,-126,8,725,21,22,10
2520,-124,-116,551,-8,-7,-7
2521,-7,64,840,17,-36,-8
2522,129,87,927,10,-12,-6
2523,118,120,850,-20,21,-7
2524,72,97,878,-36,9,9
2525,-68,0,918,-26,9,1
2526,-165,-28,957,-50,12,6
2527,-134,-79,971,-4,0,-2
2528,1,-24,967,-7,-22,-11
2529,151,11,982,2,-28,-8
2530,176,75,1002,11,3,-4
2531,73,72,976,-25,31,2
2532,-95,75,953,-10,31,7
2533,-184,9,967,-28,3,4
2534,-168,-18,968,-26,-17,-3
2535,7,-22,1019,-12,-22,-9
2536,144,0,1014,-18,-15,-9
2537,190,14,989,-5,-3,-4
2538,118,27,993,-7,14,1
2539,-68,43,1014,-10,30,8
2540,-183,25,994,-12,22,2
2541,-192,25,963,-21,-4,-2
2542,-38,24,992,-15,-32,-7
2543,114,21,1030,-14,-29,-10
2544,205,14,1022,-21,-6,-5
2545,147,14,991,-16,21,1
2546,-24,0,999,-16,29,4
2547,-170,-1,984,-11,18,4
2548,-196,19,973,-5,1,-1
2549,-81,36,999,-10,-19,-7
2550,78,47,1013,-10,-26,-8
2551,199,48,1016,-18,-16,-9
2552,162,23,1008,-22,12,0
2553,15,-11,1010,-19,28,6
2554,-141,-20,970,-15,25,4
2555,-194,-9,975,-9,6,1
2556,-120,15,987,-5,-17,-6
2557,52,51,1012,-6,-27,-9
2558,180,64,1008,-13,-18,-8
2559,173,43,1008,-22,6,-1
2560,52,8,1016,-23,25,4
2561,-119,-11,982,-21,28,5
2562,-186,-27,977,-14,10,1
2563,-151,-10,978,-8,-12,-4
2564,21,39,1013,-4,-28,-9
2565,164,58,1014,-9,-21,-10
2566,185,52,1003,-15,2,-3
2567,89,38,996,-21,21,2
2568,-84,6,1001,-22,29,6
2569,-186,-23,987,-18,15,3
2570,-176,-14,971,-11,-8,-2
2571,-11,21,1001,-8,-28,-9
2572,127,37,1024,-8,-25,-10
2573,205,45,1009,-14,-7,-4
2574,120,47,1001,-16,18,3
2575,-41,17,995,-20,30,6
2576,-179,-13,977,-19,20,3
2577,-187,-5,969,-14,-2,0
2578,-59,11,1006,-13,-25,-7
2579,96,27,1015,-9,-27,-10
2580,204,44,1002,-14,-11,-7
2581,155,38,1008,-17,15,0
2582,0,11,1013,-17,32,5
2583,-160,-2,972,-16,25,4
2584,-196,1,974,-13,3,1
2585,-111,6,988,-11,-20,-7
2586,65,33,1009,-10,-30,-9
2587,194,50,1015,-13,-17,-8
2588,174,36,1007,-20,8,0
2589,43,12,1011,-22,27,5
2590,-126,0,984,-17,29,5
2591,-199,-11,982,-12,9,1
2592,-148,1,979,-6,-16,-4
2593,24,34,1014,-6,-30,-9
2594,172,56,1007,-13,-21,-9
2595,187,34,1002,-18,4,-2
2596,87,27,1002,-19,24,2
2597,-92,-2,1000,-22,29,7
2598,-188,-15,984,-13,14,2
2599,-177,-2,967,-12,-8,-3
2600,-6,33,1006,-5,-29,-9
2601,131,42,1022,-12,-26,-9
2602,202,46,1009,-16,-5,-6
2603,122,31,994,-19,21,2
2604,-51,2,1002,-20,30,6
2605,-174,-18,976,-17,20,2
2606,-191,-8,973,-11,-3,-1
2607,-53,22,1003,-9,-27,-7
2608,98,38,1016,-9,-28,-9
2609,202,57,1011,-13,-12,-6
2610,153,40,1003,-20,14,0
2611,-8,7,1012,-20,31,5
2612,-157,-12,974,-19,25,4
2613,-195,-7,978,-14,3,1
2614,-102,6,983,-11,-21,-5
2615,64,30,1009,-8,-28,-9
2616,194,55,1014,-10,-15,-9
2617,165,38,1013,-19,9,1
2618,41,18,1011,-21,28,5
2619,-130,-2,985,-18,29,6
2620,-197,-13,975,-14,8,1
2621,-143,-4,985,-10,-15,-4
2622,35,33,1012,-8,-30,-8
2623,174,46,1009,-13,-21,-9
2624,190,41,999,-16,3,-3
2625,56,56,997,-27,20,9
2626,-72,-7,924,7,17,2
2627,-202,-17,845,-19,7,6
2628,-190,-20,867,15,-4,-4
2629,-1,35,753,-5,-34,-8
2630,156,25,853,-19,-33,-12
2631,195,47,1015,17,0,-4
2632,115,41,925,-56,19,3
2633,-60,12,953,2,36,6
2634,-208,-19,986,-17,15,2
2635,-180,-3,976,-34,-12,-4
2636,-36,18,1011,19,-24,-5
2637,116,50,1004,-29,-27,-11
2638,204,41,1008,-14,-9,-5
2639,142,39,1023,-8,16,3
2640,-24,-2,1005,-38,30,8
2641,-164,-12,973,-6,25,3
2642,-195,-7,974,-19,0,1
2643,-93,9,986,-11,-24,-7
2644,70,40,1017,2,-29,-9
2645,192,58,1016,-24,-16,-7
2646,179,39,1022,-21,11,0
2647,75,3,1001,-17,28,9
2648,-125,-60,974,-21,32,4
2649,-332,57,977,22,12,9
2650,-174,-64,591,208,-173,209
2651,-86,20,-31,-12,-192,150
2652,-228,48,173,-327,-17,41
2653,-110,-70,397,-236,29,12
2654,-111,7,440,-194,34,45
2655,-112,-35,575,34,71,10
2656,-193,-16,608,-63,50,-19
2657,-167,5,772,39,2,-16
2658,5,42,736,52,-61,-19
2659,113,56,949,-63,-44,-6
2660,249,-3,985,66,14,-6
2661,48,27,965,-64,39,0
2662,-56,-11,700,86,28,-8
2663,-144,-54,-100,-66,43,53
2664,-139,-60,310,-2,-44,-8
2665,-3,-95,339,75,-30,-3
2666,-76,125,617,-171,-14,19
2667,128,80,430,192,-45,-12
2668,175,-12,926,-214,-8,9
2669,32,-29,948,90,49,4
2670,-286,129,561,65,92,15
2671,-118,-52,93,-47,-72,85
2672,112,65,-49,243,-131,-1
2673,85,37,636,-321,-28,-5
2674,77,-42,223,363,31,16
2675,-4,123,227,-257,20,4
2676,-7,-28,389,-2,-29,9
2677,-182,-12,609,142,67,-15
2678,-221,0,529,-213,31,9
2679,-220,4,887,139,20,-9
2680,8,28,768,-21,-50,-10
2681,225,2,782,-58,-56,-12
2682,205,22,985,97,25,-6
2683,15,130,835,-242,14,-50
2684,61,-61,109,-253,106,-6
2685,-197,-11,89,-65,60,48
2686,-112,-30,573,-90,-76,57
2687,-67,-126,272,40,-37,80
2688,100,136,263,87,-53,33
2689,176,2,283,-190,-55,12
2690,182,10,667,144,29,19
2691,4,-5,955,-117,27,23
2692,-202,136,917,32,15,-49
2693,-187,-80,344,108,74,-40
2694,-80,29,597,-87,-75,7
2695,118,58,345,224,-88,-13
2696,220,-162,415,-29,-13,2
2697,210,105,286,-93,0,28
2698,-3,-74,242,144,59,12
2699,-108,139,248,-73,25,-57
2700,-349,-37,269,137,12,-26
2701,-217,115,574,63,-2,-28
2702,62,39,645,-107,-7,-54
2703,220,-65,753,306,-56,-21
2704,215,35,592,-210,-31,25
2705,36,-112,711,119,68,2
2706,-233,144,819,77,47,0
2707,-213,-73,295,-154,-19,5
2708,-201,41,697,185,-54,28
2709,5,137,823,-133,-15,-25
2710,129,-51,640,-39,-16,-8
2711,235,54,535,73,0,21
2712,111,-79,712,-147,5,12
2713,-113,-65,872,81,59,-10
2714,-244,13,799,-48,26,11
2715,-232,98,721,-13,-11,-35
2716,1,42,815,-32,-48,16
2717,205,142,865,20,-33,-19
2718,219,15,540,-94,-1,-17
2719,150,-28,850,-7,18,12
2720,-53,-29,914,-23,31,13
2721,-189,-122,800,-18,18,1
2722,-185,3,741,20,7,5
2723,-82,22,954,-6,-14,-9
2724,65,129,1010,14,-23,-15
2725,197,115,996,-18,-20,-4
2726,156,92,914,-23,9,-2
2727,9,-10,897,-44,33,6
2728,-141,-56,900,-29,28,3
2729,-194,-73,901,-17,2,1
2730,-100,-35,951,-1,-24,-7
2731,57,25,1007,10,-25,-11
2732,193,85,1017,0,-10,-9
2733,162,95,1019,-11,11,-1
2734,35,58,1007,-26,24,5
2735,-141,13,977,-32,21,7
2736,-192,-35,979,-22,6,2
2737,-140,-44,987,-18,-14,-4
2738,43,-1,994,-5,-29,-9
2739,180,32,1005,-5,-18,-9
2740,187,53,1015,-7,5,-2
2741,76,59,1020,-12,26,3
2742,-103,35,996,-24,30,5
2743,-202,0,976,-20,12,3
2744,-174,-7,975,-18,-13,-3
2745,-1,4,1011,-12,-29,-8
2746,152,19,1016,-9,-24,-10
2747,207,21,1008,-15,-2,-5
2748,123,32,997,-14,21,2
2749,-63,18,1004,-13,32,7
2750,-193,2,981,-13,19,2
2751,-196,16,962,-10,-5,-1
2752,-47,26,1004,-11,-27,-6
2753,103,34,1021,-13,-27,-10
2754,211,33,1009,-16,-11,-7
2755,151,25,998,-20,14,-1
2756,-12,-2,1007,-18,29,6
2757,-163,-9,976,-13,25,3
2758,-201,4,969,-8,3,-1
2759,-99,23,992,-6,-21,-6
2760,68,46,1016,-10,-29,-9
2761,194,57,1014,-17,-16,-8
2762,170,30,1014,-20,9,-2
2763,36,2,1005,-21,27,4
2764,-132,-12,978,-17,28,5
2765,-193,-13,982,-9,8,1
2766,-144,5,981,-10,-15,-4
2767,43,46,1010,-4,-29,-9
2768,173,57,1011,-13,-20,-9
2769,182,43,1003,-20,3,-3
2770,79,20,1005,-22,24,4
2771,-102,-4,997,-23,28,5
2772,-187,-23,981,-15,11,0
2773,-171,-10,973,-8,-9,-3
2774,2,35,1010,-5,-27,-9
2775,143,49,1022,-7,-23,-10
2776,194,50,1005,-16,-3,-4
2777,113,36,992,-21,22,2
2778,-59,6,998,-19,31,7
2779,-183,-19,983,-20,17,3
2780,-180,-6,973,-12,-5,-2
2781,-41,11,1006,-8,-24,-8
2782,103,35,1013,-8,-26,-10
2783,203,54,1009,-11,-11,-7
2784,139,43,1005,-19,16,0
2785,-19,11,1008,-19,30,5
2786,-163,-8,972,-18,23,3
2787,-190,-7,972,-15,1,1
2788,-92,2,994,-9,-21,-6
2789,72,30,1010,-10,-27,-9
2790,196,52,1009,-13,-15,-8
2791,164,40,1013,-17,12,-2
2792,28,16,1007,-20,28,4
2793,-136,2,982,-18,27,5
2794,-197,-11,980,-14,7,2
2795,-138,5,984,-10,-17,-5
2796,42,29,1008,-7,-30,-11
2797,170,50,1008,-13,-21,-8
2798,187,32,1003,-18,3,-3
2799,71,22,1005,-17,26,3
2800,-99,6,999,-20,30,6
2801,-192,-15,982,-15,13,1
2802,-172,4,973,-10,-10,-2
2803,4,31,1004,-7,-28,-8
2804,139,42,1022,-10,-23,-9
2805,199,43,1005,-16,-3,-4
2806,115,29,991,-19,21,2
2807,-59,4,1001,-19,31,6
2808,-184,-19,984,-16,18,2
2809,-185,-1,970,-11,-4,-2
2810,-45,18,1002,-7,-25,-7
2811,106,43,1020,-10,-27,-11
2812,205,51,1003,-15,-10,-7
2813,146,38,1005,-21,16,1
2814,-15,3,1012,-20,31,6
2815,-165,-16,974,-18,24,4
2816,-191,-8,968,-11,1,0
2817,-96,9,994,-6,-22,-6
2818,76,37,1015,-9,-28,-11
2819,195,54,1011,-13,-15,-8
2820,162,42,1011,-17,10,-1
2821,30,14,1010,-21,27,4
2822,-137,-3,980,-20,26,5
2823,-197,-10,978,-13,7,1
2824,-133,-2,984,-11,-16,-5
2825,40,33,1006,-5,-29,-9
2826,171,50,1007,-13,-20,-9
2827,185,38,1002,-17,5,-2
2828,70,22,1009,-16,24,2
2829,-99,7,996,-20,28,7
2830,-192,-15,980,-14,13,1
2831,-168,0,973,-9,-10,-4
2832,0,31,1004,-6,-29,-7
2833,137,40,1020,-9,-24,-10
2834,200,37,1010,-17,-5,-5
2835,116,33,994,-17,21,2
2836,-60,7,999,-18,32,5
2837,-182,-13,983,-16,18,2
2838,-184,0,972,-11,-5,-2
2839,-47,22,1002,-10,-25,-6
2840,107,38,1022,-11,-26,-10
2841,204,46,1004,-15,-9,-7
2842,143,33,1005,-19,16,1
2843,-15,2,1011,-22,31,7
2844,-162,-10,974,-16,24,3
2845,-194,-2,970,-13,2,1
2846,-95,13,995,-7,-21,-5
2847,52,68,968,-4,-32,-1
2848,194,50,980,-26,-11,-9
2849,193,46,860,-18,8,1
2850,37,-23,945,-35,24,5
2851,-134,-11,805,-12,34,7
2852,-193,-30,971,-27,10,1
2853,-138,12,952,5,-17,-4
2854,30,48,994,-5,-31,-8
2855,167,70,1016,-28,-21,-8
2856,182,48,1010,0,6,-3
2857,77,20,996,-42,21,5
2858,-84,-18,990,-22,25,8
2859,-183,-33,996,-8,13,3
2860,-170,-17,972,-23,-8,-3
2861,-5,30,999,7,-26,-10
2862,129,57,1027,-11,-25,-8
2863,188,60,1016,-23,-7,-4
2864,119,44,999,-10,21,5
2865,-50,1,996,-33,29,10
2866,-172,-26,982,-21,17,5
2867,-185,-19,975,-12,-4,0
2868,-50,8,1009,-10,-23,-5
2869,100,32,1010,-5,-24,-8
2870,207,65,1000,-15,-9,-4
2871,154,29,1002,-19,14,1
2872,31,-84,1012,-18,32,-2
2873,-250,135,952,93,53,18
2874,-220,-40,738,-137,84,55
2875,106,-1,-100,-320,43,51
2876,-120,-6,435,-252,-56,124
2877,140,52,-81,-218,-82,57
2878,106,-26,80,-73,-4,-4
2879,100,-31,279,108,41,-4
2880,-213,-17,476,-200,-2,1
2881,-313,189,831,482,119,-47
2882,-93,16,301,-49,26,-150
2883,-52,34,-48,-204,69,-194
2884,14,3,153,-51,43,-147
2885,118,54,508,3,58,-54
2886,130,-100,165,-96,75,-44
2887,-170,6,268,236,88,-36
2888,-48,48,-133,-102,6,23
2889,-135,-46,15,130,-89,2
2890,-99,64,140,5,8,-2
2891,169,54,548,-70,-9,-1
2892,197,42,294,236,-21,-13
2893,17,126,25,-318,-10,-21
2894,43,-153,-96,571,54,-112
2895,-159,-45,69,-349,51,-2
2896,-145,110,443,54,-34,-7
2897,59,-94,450,297,25,-9
2898,-92,229,430,-375,-149,3
2899,-68,10,346,307,87,-14
2900,3,-8,476,-6,29,9
2901,-8,59,524,-129,-46,20
2902,-255,67,717,191,58,7
2903,-69,-95,184,241,-76,15
2904,-56,-98,363,-128,-57,18
2905,98,106,561,242,10,-85
2906,148,-63,201,-72,-37,-103
2907,121,164,510,-115,21,-82
2908,27,-37,614,155,124,-62
2909,-126,10,524,-182,38,-10
2910,-136,-19,371,152,-19,5
2911,-224,218,464,12,-9,-32
2912,-61,-117,481,-444,100,-54
2913,37,2,461,32,-10,-19
2914,202,135,490,-109,34,-60
2915,129,-189,514,-84,48,-20
2916,-59,102,691,127,48,15
2917,-169,-93,709,-109,24,-2
2918,-300,132,688,120,10,-42
2919,0,27,484,-207,27,-100
2920,77,-51,903,-10,40,-56
2921,223,129,631,-93,34,-89
2922,86,-153,321,-1,38,-24
2923,42,49,548,-62,37,12
2924,-148,-145,457,62,41,-12
2925,-270,25,579,-14,26,-9
2926,-174,144,346,65,-46,-23
2927,72,21,576,116,-35,7
2928,166,169,909,-126,-60,2
2929,239,27,590,53,38,-35
2930,0,-57,547,-26,49,27
2931,-112,-32,898,-61,-7,25
2932,-207,-124,851,75,18,-14
2933,-166,10,763,-43,-10,-5
2934,1,86,874,27,-9,-3
2935,161,133,989,6,-22,-15
2936,203,100,953,-45,-20,-1
2937,94,45,852,-16,22,5
2938,-103,-36,785,-61,40,8
2939,-200,-78,816,-23,14,4
2940,-178,-66,820,11,-20,-4
2941,10,0,868,-2,-28,-8
2942,164,73,957,4,-8,-10
2943,192,90,984,-12,10,-5
2944,89,85,989,-18,13,4
2945,-80,35,950,-18,18,7
2946,-190,-24,932,-32,18,2
2947,-178,-45,964,-23,5,-3
2948,-17,-18,1008,-11,-24,-8
2949,129,19,1023,-5,-33,-10
2950,206,40,1001,-2,-11,-7
2951,136,59,988,-10,24,-1
2952,-49,43,1013,-17,36,5
2953,-184,13,986,-18,19,2
2954,-202,2,959,-18,-6,0
2955,-56,-1,998,-16,-25,-7
2956,97,8,1029,-13,-25,-9
2957,208,29,1011,-11,-12,-8
2958,160,29,996,-15,12,-1
2959,3,19,1006,-15,30,5
2960,-160,6,976,-14,28,4
2961,-196,17,979,-15,5,0
2962,-112,17,991,-12,-22,-6
2963,58,36,1005,-13,-33,-8
2964,196,41,1011,-17,-18,-8
2965,172,18,1009,-17,8,-2
2966,50,0,1011,-18,30,4
2967,-123,-2,982,-14,31,5
2968,-196,-1,982,-9,10,1
2969,-154,14,988,-8,-15,-5
2970,23,48,1014,-8,-29,-7
2971,160,54,999,-17,-23,-9
2972,188,35,999,-20,2,-3
2973,89,12,1004,-22,23,3
2974,-82,-7,1007,-20,29,5
2975,-185,-24,985,-14,15,2
2976,-178,-1,964,-8,-7,-3
2977,-11,37,1003,-5,-27,-8
2978,124,55,1022,-10,-23,-9
2979,195,51,1009,-16,-5,-5
2980,121,36,996,-21,20,2
2981,-47,0,1001,-23,28,6
2982,-175,-25,984,-18,17,2
2983,-182,-9,967,-9,-3,-2
2984,-57,16,997,-6,-25,-7
2985,92,40,1017,-7,-26,-9
2986,199,58,1009,-13,-10,-7
2987,150,43,1007,-19,16,0
2988,-5,10,1011,-20,29,5
2989,-152,-9,972,-19,21,4
2990,-189,-12,977,-13,2,0
2991,-103,0,986,-8,-20,-6
2992,62,31,1005,-8,-28,-9
2993,189,52,1011,-9,-16,-10
2994,168,41,1016,-16,9,-2
2995,44,19,1010,-21,27,4
2996,-126,5,983,-17,27,5
2997,-189,-12,974,-16,8,1
2998,-150,-4,975,-10,-16,-4
2999,33,28,1017,-8,-31,-9
3000,166,44,1009,-13,-20,-9
3001,188,36,1002,-15,4,-4
3002,91,27,1001,-18,23,2
3003,-90,6,1000,-17,29,5
3004,-189,-12,981,-16,15,1
3005,-175,0,969,-11,-7,-3
3006,-16,28,1007,-8,-28,-8
3007,128,45,1018,-11,-26,-11
3008,201,36,1012,-16,-4,-5
3009,127,32,999,-17,19,1
3010,-46,0,999,-20,28,6
3011,-176,-13,974,-15,21,2
3012,-189,-1,970,-10,-1,-1
3013,-67,19,996,-8,-23,-7
3014,93,40,1023,-10,-28,-9
3015,200,49,1009,-16,-12,-7
3016,150,37,1007,-18,14,0
3017,7,5,1011,-18,29,4
3018,-152,-9,974,-18,23,3
3019,-185,-8,976,-12,3,-1
3020,-113,5,987,-10,-18,-4
3021,59,41,1009,-7,-28,-7
3022,182,55,1010,-12,-18,-8
3023,172,39,1012,-18,7,-2
3024,49,15,1006,-22,26,4
3025,-114,-4,988,-19,28,5
3026,-191,-15,976,-16,10,1
3027,-154,0,981,-9,-13,-3
3028,28,36,1017,-7,-29,-9
3029,154,50,1012,-12,-22,-8
3030,191,42,1002,-18,-1,-3
3031,97,28,996,-22,23,2
3032,-81,1,997,-18,31,6
3033,-187,-17,980,-16,16,2
3034,-177,0,977,-11,-7,-2
3035,-20,23,1005,-6,-28,-7
3036,119,40,1015,-8,-26,-10
3037,202,47,1009,-15,-6,-7
3038,130,34,1001,-20,17,2
3039,-32,5,1004,-19,26,4
3040,-174,-12,973,-9,17,1
3041,-184,-6,973,-9,-1,-1
3042,-77,15,998,-11,-23,-6
3043,85,39,1015,-8,-29,-10
3044,200,49,1013,-13,-13,-8
3045,151,38,1006,-19,14,0
3046,19,15,1007,-17,29,4
3047,-147,-5,982,-18,26,5
3048,-193,-5,977,-11,4,0
3049,-123,0,983,-10,-17,-5
3050,52,39,1009,-8,-31,-9
3051,180,45,1007,-13,-17,-8
3052,180,34,1007,-18,6,-3
3053,59,17,1008,-18,26,4
3054,-107,5,991,-17,29,6
3055,-214,3,994,-13,6,2
3056,-146,17,901,-32,-9,-4
3057,-19,12,913,6,-18,-11
3058,158,36,927,-58,-39,-16
3059,211,31,614,11,11,-5
3060,109,21,851,-36,16,-3
3061,-74,11,977,-26,35,6
3062,-198,-6,964,-7,25,1
3063,-184,9,941,-12,-12,-3
3064,-30,29,1011,-18,-31,-8
3065,107,38,1021,-1,-25,-10
3066,210,40,997,-31,-10,-6
3067,143,26,978,-20,16,4
3068,-11,-6,973,-12,28,9
3069,-165,-19,945,-26,20,6
3070,-174,-19,927,3,4,-1
3071,-75,-45,984,-10,-19,-13
3072,-20,141,1010,42,-17,-8
3073,184,81,795,-129,62,7
3074,206,55,14,-346,122,26
3075,-198,-50,55,-413,62,-103
3076,-302,-73,0,-296,224,-143
3077,-97,-93,40,87,62,-21
3078,-41,-22,266,-279,6,-39
3079,187,-18,663,-17,32,-37
3080,136,81,473,148,8,-30
3081,-88,61,585,-518,8,-69
3082,-1,101,144,-105,71,51
3083,-79,-5,41,-147,-25,114
3084,-172,-53,174,-107,-3,69
3085,-255,33,666,-135,39,10
3086,-8,-87,693,-265,-29,-7
3087,168,-78,405,125,-3,-39
3088,35,9,480,-191,10,-18
3089,-18,106,-82,-147,107,-33
3090,-23,107,295,103,14,-12
3091,-72,-28,58,-27,-13,-5
3092,-159,-1,40,-251,5,16
3093,-97,-52,103,280,50,-23
3094,-23,19,264,-257,-16,-20
3095,22,158,-107,-57,-11,-40
3096,163,96,304,83,28,0
3097,91,144,90,-381,42,-2
3098,-76,-49,243,176,78,-3
3099,-135,20,373,-188,-46,-4
3100,-121,-35,672,-60,-7,-10
3101,-8,-16,811,84,48,-19
3102,155,34,745,-152,-13,-13
3103,155,22,738,107,-17,-10
3104,78,-27,687,-40,-4,3
3105,-43,-69,648,-45,47,3
3106,-187,144,714,175,66,55
3107,-72,-47,71,238,-277,177
3108,31,1,408,-16,-92,168
3109,75,41,47,134,-55,81
3110,177,-102,11,-406,-192,98
3111,169,-94,381,147,6,67
3112,-60,-93,257,2,136,34
3113,-110,79,503,-197,22,-79
3114,-335,6,71,221,21,-1
3115,127,56,489,-10,-142,-8
3116,-50,49,278,131,31,-29
3117,190,33,305,91,15,7
3118,169,-66,177,-77,-57,34
3119,-63,106,276,127,-7,-22
3120,-118,-120,359,-262,129,-135
3121,-148,-11,429,-25,52,-20
3122,-43,166,406,-64,25,-135
3123,26,-42,619,-299,59,-73
3124,152,111,858,202,10,-50
3125,173,-26,506,-125,21,-14
3126,57,-78,548,-58,52,-21
3127,-260,208,511,265,95,-34
3128,-45,-192,432,-284,-70,45
3129,-179,163,599,354,0,21
3130,112,153,155,-119,-1,-37
3131,254,41,722,-101,-50,16
3132,240,114,603,179,23,17
3133,49,-109,544,-196,-6,11
3134,-89,10,581,52,28,14
3135,-202,-29,655,26,23,7
3136,-270,117,429,-128,-3,0
3137,85,-46,533,66,-68,-61
3138,149,84,651,-180,34,12
3139,222,68,410,166,20,-26
3140,110,-80,593,-110,8,-11
3141,-55,28,639,23,0,15
3142,-199,-44,621,11,73,-8
3143,-217,-9,718,-28,34,-9
3144,-44,75,806,36,-49,0
3145,113,68,869,-15,-72,-11
3146,218,62,754,-21,-3,-8
3147,140,37,707,-11,46,6
3148,-25,-18,572,-38,24,7
3149,-164,-50,552,0,-8,5
3150,-199,-5,653,-21,-5,1
3151,-84,6,794,-9,5,-8
3152,63,62,921,7,-17,-9
3153,200,76,996,-12,-36,-7
3154,172,52,996,-16,-2,-2
3155,21,11,1015,-29,41,7
3156,-140,-18,992,-25,40,5
3157,-193,-31,977,-14,1,0
3158,-130,-14,969,-6,-31,-3
3159,52,31,1003,-3,-28,-9
3160,181,54,1002,-7,-8,-10
3161,179,57,998,-18,6,-2
3162,58,34,1001,-19,17,4
3163,-108,9,988,-22,27,5
3164,-193,-22,979,-20,18,3
3165,-162,-11,983,-11,-8,-3
3166,12,19,1012,-9,-33,-8
3167,150,40,1003,-8,-27,-10
3168,196,40,1003,-11,1,-5
3169,107,40,1003,-18,25,1
3170,-69,15,1001,-19,32,6
3171,-186,-10,987,-18,15,3
3172,-187,-3,975,-15,-7,0
3173,-31,19,1005,-7,-26,-8
3174,110,29,1017,-12,-25,-10
3175,204,42,1003,-12,-9,-6
3176,137,33,1005,-17,17,1
3177,-23,9,1012,-18,31,6
3178,-172,-6,971,-16,23,3
3179,-187,2,966,-12,-1,0
3180,-88,10,998,-8,-24,-6
3181,80,34,1010,-9,-28,-11
3182,201,47,1015,-14,-14,-8
3183,159,34,1007,-17,13,-1
3184,26,8,1009,-21,27,4
3185,-139,-6,981,-17,26,5
3186,-193,-4,982,-11,6,1
3187,-133,2,979,-13,-18,-5
3188,46,41,1009,-7,-30,-10
3189,180,52,1009,-13,-19,-8
3190,183,36,1009,-19,7,-3
3191,67,15,1011,-20,26,4
3192,-106,0,991,-21,28,6
3193,-195,-20,982,-17,10,2
3194,-163,0,974,-9,-11,-4
3195,5,35,1008,-6,-28,-9
3196,148,49,1021,-9,-23,-10
3197,194,40,1010,-15,-1,-4
3198,110,29,993,-21,21,1
3199,-62,1,1000,-20,31,5
3200,-184,-17,979,-18,17,2
3201,-182,-3,972,-11,-5,-2
3202,-35,19,1003,-7,-26,-8
3203,104,43,1017,-10,-25,-10
3204,206,51,1008,-12,-10,-7
3205,135,36,1005,-19,16,0
3206,-20,2,1010,-20,28,5
3207,-165,-12,972,-16,23,3
3208,-189,-2,972,-15,1,-1
3209,-88,6,992,-10,-21,-6
3210,72,39,1016,-8,-28,-10
3211,195,51,1011,-15,-15,-8
3212,161,37,1013,-16,11,-1
3213,28,15,1006,-22,26,5
3214,-135,-5,978,-18,27,4
3215,-189,-13,981,-13,7,0
3216,-139,0,983,-13,-16,-4
3217,46,35,1012,-6,-29,-9
3218,168,48,1007,-13,-19,-8
3219,180,43,1000,-16,5,-2
3220,76,20,1006,-22,24,3
3221,-103,4,997,-19,29,6
3222,-184,-19,980,-16,11,1
3223,-168,0,974,-9,-10,-2
3224,1,35,1003,-8,-30,-7
3225,137,44,1020,-10,-24,-9
3226,194,43,1010,-15,-2,-5
3227,112,35,995,-21,21,2
3228,-55,2,1001,-20,31,4
3229,-181,-17,978,-18,17,2
3230,-180,0,973,-8,-4,-2
3231,-46,14,1004,-8,-24,-6
3232,99,41,1018,-8,-25,-8
3233,204,51,1006,-13,-10,-7
3234,138,34,1008,-20,16,1
3235,-6,7,1007,-22,30,6
3236,-160,-9,980,-19,24,4
3237,-189,-6,972,-15,2,0
3238,-101,4,991,-10,-21,-6
3239,73,38,1010,-8,-29,-11
3240,187,47,1011,-14,-15,-7
3241,169,40,1008,-17,8,-1
3242,39,11,1015,-21,26,4
3243,-127,3,980,-17,27,5
3244,-196,7,961,-22,6,6
3245,-147,5,1006,-13,-15,-12
3246,30,30,937,-7,-25,-12
3247,176,48,970,-21,-30,-8
3248,174,34,934,8,5,-2
3249,88,15,954,-43,20,4
3250,-85,4,993,4,27,9
3251,-187,-14,992,-14,10,3
3252,-170,1,974,-25,-11,-1
3253,-10,38,1018,8,-25,-7
3254,128,43,1013,-30,-26,-8
3255,205,41,1005,-16,-6,-6
3256,123,26,988,-14,19,2
3257,-45,-5,1002,-35,31,8
3258,-173,-19,977,-5,22,4
3259,-183,-1,970,-13,-3,0
3260,-35,11,1006,-11,-27,-6
3261,96,2,1033,-1,-22,-14
3262,181,15,996,-14,-4,-16
3263,-8,167,679,68,47,45
3264,231,-81,352,-260,104,143
3265,-392,5,255,-159,-32,76
3266,-288,5,295,-115,1,3
3267,-67,5,187,-35,21,11
3268,79,-23,339,-76,-54,-20
3269,195,82,611,-95,7,-36
3270,7,93,750,-89,60,-23
3271,72,46,617,112,32,-1
3272,-57,-63,850,-40,-14,19
3273,-205,155,762,-3,12,-1
3274,-97,-51,321,-480,168,-58
3275,27,-39,47,-351,74,-20
3276,104,74,424,111,-28,-2
3277,165,-119,307,-426,41,-34
3278,52,-6,472,-220,112,-4
3279,32,-55,278,162,74,-38
3280,-144,-88,311,-302,-20,-16
3281,-320,74,533,153,43,-13
3282,-13,-22,-130,-29,-37,-40
3283,-89,-71,27,-262,-32,-17
3284,133,36,196,301,-5,-48
3285,152,-4,476,-185,0,9
3286,77,-132,600,42,24,-3
3287,-240,18,236,150,87,-2
3288,-172,-18,190,-88,26,21
3289,49,-111,-128,341,-159,-28
3290,239,-144,381,-362,-38,-16
3291,204,-55,327,301,-39,8
3292,71,44,2,-136,44,1
3293,-62,-162,513,-121,-8,14
3294,-81,-82,501,237,59,-2
3295,-73,319,742,-148,-21,9
3296,170,-80,454,-111,20,-21
3297,-10,-47,-59,255,-16,87
3298,102,180,534,-207,-109,6
3299,266,0,349,223,-10,3
3300,111,-22,610,36,5,41
3301,-94,28,313,-158,47,17
3302,-177,-99,189,112,19,6
3303,-193,35,172,-229,-72,30
3304,-11,28,595,35,4,-2
3305,161,3,845,-38,17,-5
3306,54,255,818,-177,7,-6
3307,27,-116,190,-225,-1,39
3308,-172,-54,182,-345,-5,82
3309,-107,87,-20,29,120,-57
3310,-134,-327,142,-119,49,-21
3311,-31,112,-24,-44,9,-8
3312,-99,-13,198,103,-24,-17
3313,-13,43,173,-187,-50,61
3314,-16,201,528,129,-21,77
3315,-20,-96,306,-119,19,-33
3316,-77,-138,309,-229,0,21
3317,-125,72,630,275,62,15
3318,-438,48,815,-263,14,-20
3319,91,22,436,254,-65,-44
3320,163,-82,687,-64,-50,39
3321,199,220,415,-48,13,-70
3322,47,-118,460,10,50,2
3323,-56,149,392,-99,-12,18
3324,-240,102,480,-58,39,-44
3325,-27,-141,312,-18,47,-25
3326,-2,127,565,-28,-123,50
3327,130,56,385,4,-34,-43
3328,69,-86,615,119,-11,7
3329,129,87,710,-177,-48,32
3330,-116,-40,770,124,57,18
3331,-280,-14,752,-75,31,3
3332,-242,64,844,-16,10,10
3333,-76,52,551,40,-21,-14
3334,119,74,565,-90,-45,-7
3335,193,63,448,9,-11,-7
3336,177,-2,395,-30,9,0
3337,22,-36,521,-59,32,11
3338,-156,-34,686,22,46,2
3339,-205,-34,836,-34,15,-4
3340,-118,43,960,5,-21,-5
3341,47,67,948,23,-40,-10
3342,203,76,924,-34,-26,-12
3343,171,62,913,-12,20,-1
3344,29,13,924,-31,37,7
3345,-126,-31,889,-35,24,5
3346,-188,-43,842,-1,2,1
3347,-126,-25,862,-16,-18,-5
3348,35,25,885,5,-23,-12
3349,169,69,924,2,-20,-9
3350,175,73,950,-18,0,-2
3351,64,45,1021,-18,30,5
3352,-109,15,993,-32,37,5
3353,-192,-24,969,-26,11,2
3354,-158,-31,952,-10,-20,-4
3355,15,1,979,-7,-33,-8
3356,164,34,985,-5,-17,-9
3357,192,53,1011,-10,8,-3
3358,93,51,1014,-19,25,4
3359,-85,34,1006,-20,26,5
3360,-190,-8,992,-20,10,2
3361,-187,-12,963,-15,-8,-2
3362,-12,8,994,-8,-29,-9
3363,127,25,1016,-10,-25,-10
3364,205,34,1016,-13,-4,-7
3365,133,40,1011,-15,22,1
3366,-46,16,1006,-20,31,6
3367,-180,1,979,-16,19,3
3368,-197,0,962,-15,-5,0
3369,-65,17,995,-12,-26,-6
3370,96,30,1022,-11,-27,-9
3371,208,40,1010,-20,-10,-7
3372,158,29,1010,-23,14,-1
3373,0,5,1020,-16,29,6
3374,-161,-1,971,-16,21,5
3375,-194,1,967,-2,2,-3
3376,-110,14,987,-14,-21,-6
3377,59,42,1012,-7,-28,-9
3378,194,50,1022,-16,-16,-8
3379,169,37,1013,-22,8,0
3380,48,6,1010,-17,25,5
3381,-122,-4,980,-19,27,5
3382,-196,-12,974,-11,10,2
3383,-151,4,982,-7,-12,-4
3384,26,40,1018,-9,-27,-8
3385,165,56,1013,-11,-21,-8
3386,188,39,1009,-18,1,-4
3387,87,23,998,-22,22,5
3388,-88,-2,993,-19,29,7
3389,-187,-23,983,-14,15,2
3390,-177,-1,974,-9,-7,-3
3391,-10,27,1007,-4,-27,-9
3392,124,48,1023,-9,-24,-9
3393,196,51,1013,-15,-6,-6
3394,125,37,997,-17,18,1
3395,-44,3,1000,-22,29,6
3396,-172,-19,971,-18,19,2
3397,-186,-9,976,-11,0,-2
3398,-63,14,1001,-11,-23,-7
3399,91,38,1021,-8,-27,-9
3400,198,56,1008,-14,-13,-6
3401,147,40,1004,-19,13,1
3402,3,8,1007,-20,29,5
3403,-150,-4,977,-20,25,4
3404,-186,-11,980,-16,5,-1
3405,-115,3,988,-10,-18,-5
3406,63,36,1008,-7,-29,-9
3407,181,49,1009,-10,-17,-8
3408,170,41,1005,-19,6,-2
3409,49,20,1012,-19,26,4
3410,-118,1,988,-17,29,5
3411,-188,-12,979,-16,10,2
3412,-152,0,982,-10,-14,-5
3413,24,29,1010,-12,-30,-9
3414,154,49,1010,-11,-22,-9
3415,189,37,1003,-17,0,-3
3416,92,27,996,-20,23,3
3417,-77,5,1000,-19,30,6
3418,-185,-15,988,-17,17,1
3419,-175,2,976,-10,-8,-2
3420,-21,25,1006,-7,-28,-8
3421,117,40,1017,-12,-25,-9
3422,201,48,1003,-13,-7,-5
3423,132,31,1003,-20,19,1
3424,-33,1,1010,-19,31,5
3425,-173,-12,972,-13,22,3
3426,-187,-2,969,-11,-1,-2
3427,-77,15,1000,-8,-24,-6
3428,82,41,1010,-9,-28,-8
3429,198,48,1011,-15,-14,-7
3430,152,37,1010,-18,14,0
3431,17,11,1007,-21,28,4
3432,-145,-11,981,-18,25,4
3433,-195,-9,981,-11,5,2
3434,-122,4,983,-8,-19,-5
3435,54,37,1005,-7,-30,-10
3436,178,55,1011,-14,-18,-9
3437,179,36,1006,-19,8,-3
3438,59,20,1011,-21,27,4
3439,-111,3,994,-22,28,7
3440,-190,-21,982,-18,10,2
3441,-162,0,971,-8,-12,-1
3442,16,30,1007,-9,-28,-8
3443,147,45,1019,-10,-22,-9
3444,196,40,1011,-17,-2,-4
3445,103,33,992,-19,21,2
3446,-68,5,1000,-18,31,7
3447,-186,-18,983,-18,16,3
3448,-183,1,966,-10,-7,-1
3449,-33,20,1006,-7,-26,-7
3450,110,39,1022,-11,-24,-9
3451,207,52,1004,-14,-10,-7
3452,138,39,1008,-22,16,2
3453,-22,3,1010,-21,28,6
3454,-163,-10,969,-16,22,3
3455,-188,-4,968,-12,1,0
3456,-89,10,994,-9,-23,-6
3457,79,35,1016,-10,-27,-10
3458,197,53,1011,-17,-15,-8
3459,161,38,1012,-19,11,0
3460,29,11,1011,-20,27,4
3461,-144,1,980,-17,27,5
3462,-207,4,978,-16,6,6
3463,-131,0,1004,-10,-20,-7
3464,46,47,959,-21,-30,-5
3465,193,22,909,-7,-22,-9
3466,164,38,926,-10,4,-1
3467,80,20,983,-41,24,4
3468,-104,-5,990,2,32,6
3469,-185,-12,999,-25,11,1
3470,-150,-2,975,-12,-11,-2
3471,-5,13,990,5,-22,-13
3472,127,18,997,-21,-20,-12
3473,134,111,1031,-7,0,-2
3474,79,84,700,-85,-8,-84
3475,-93,-78,392,-41,154,-156
3476,-407,-4,458,45,79,-91
3477,-271,-38,329,-27,10,14
3478,-238,0,516,183,-60,30
3479,-131,70,408,27,-35,0
3480,99,56,344,-64,2,-3
3481,134,75,701,63,6,1
3482,50,-20,695,-147,21,3
3483,-153,-57,809,11,47,-1
3484,-274,60,733,-18,27,-11
3485,-179,7,886,-372,101,-103
3486,-4,-59,236,-293,105,-159
3487,-81,90,86,-261,51,-69
3488,139,23,243,139,18,1
3489,13,51,447,127,36,23
3490,-143,-21,452,-270,-11,8
3491,-116,-48,574,166,36,4
3492,-171,3,844,-29,-20,4
3493,-209,161,509,-40,-49,-12
3494,150,-114,74,87,-3,-9
3495,108,83,477,-138,-37,-1
3496,23,-64,459,-57,14,-5
3497,-162,-20,552,106,98,9
3498,-169,-91,303,-202,74,-1
3499,-246,89,441,126,-47,-27
3500,-74,88,-5,109,-200,-9
3501,152,44,87,-144,109,-10
3502,196,242,480,238,48,-33
3503,167,-57,-70,-232,-150,12
3504,-33,80,151,-24,-38,18
3505,-138,-31,258,128,110,12
3506,-198,-94,126,-277,45,22
3507,-69,85,503,89,-43,-1
3508,-33,252,518,9,-147,-18
3509,-71,-18,485,-350,57,-88
3510,331,-46,148,99,169,3
3511,77,41,375,-599,74,-52
3512,-43,-311,251,-104,56,-68
3513,-238,28,166,-242,82,-55
3514,-126,-92,212,-180,114,-66
3515,31,23,143,201,66,-67
3516,196,104,453,-243,-60,-20
3517,7,188,542,79,84,-69
3518,-12,-57,216,-353,133,7
3519,-140,-103,301,-287,52,-13
3520,-163,179,49,-50,95,-80
3521,-142,-313,275,-105,-41,-22
3522,55,87,178,-86,79,-18
3523,-31,48,326,156,82,-76
3524,90,-15,279,-420,-86,46
3525,168,256,389,90,-70,37
3526,-49,72,583,-197,206,-77
3527,-83,-165,706,-287,79,-6
3528,28,47,810,223,-55,-16
3529,-195,-147,354,-268,-44,-120
3530,-63,-134,534,146,117,25
3531,-131,181,796,-103,70,9
3532,50,-46,463,-97,-33,-50
3533,-111,36,417,179,-61,38
3534,-71,120,420,-198,47,27
3535,-288,-37,605,219,130,-42
3536,29,65,191,-24,-108,29
3537,121,171,409,113,-129,33
3538,144,73,396,-42,55,-78
3539,301,-201,483,-124,12,0
3540,171,21,616,70,26,37
3541,-136,-135,842,-50,-20,6
3542,-232,75,909,32,53,-9
3543,-234,57,704,-14,43,8
3544,-39,124,591,23,-56,-15
3545,144,64,632,-57,-82,-6
3546,215,77,547,6,-1,-10
3547,138,-51,535,-62,70,5
3548,-19,-59,605,-30,38,6
3549,-186,-54,717,10,-7,5
3550,-203,-40,819,-37,-13,-6
3551,-75,68,1002,40,-2,-6
3552,111,103,1016,-12,-22,-7
3553,202,96,984,-23,-24,-6
3554,146,59,887,-12,13,3
3555,-34,-1,815,-60,39,11
3556,-155,-71,820,-12,24,2
3557,-203,-61,850,-12,-13,2
3558,-55,-16,920,-5,-33,-9
3559,92,42,1010,17,-11,-12
3560,188,93,1018,-17,0,-6
3561,154,92,1013,-10,13,0
3562,-9,46,1016,-25,21,5
3563,-160,-12,968,-35,18,4
3564,-194,-37,959,-14,6,-1
3565,-91,-34,990,-15,-23,-6
3566,73,2,970,-2,-30,-9
3567,206,46,1005,-3,-11,-9
3568,167,65,1005,-15,17,-3
3569,22,50,1011,-13,30,4
3570,-150,26,977,-21,21,4
3571,-202,-3,972,-17,2,0
3572,-128,-12,977,-19,-15,-5
3573,48,6,1017,-15,-26,-8
3574,189,27,1017,-10,-20,-10
3575,188,27,1009,-14,3,-3
3576,66,33,1007,-12,24,4
3577,-115,22,996,-13,32,6
3578,-198,9,969,-13,15,1
3579,-176,7,972,-11,-10,-2
3580,14,32,1021,-10,-29,-9
3581,152,32,1025,-19,-22,-10
3582,204,23,1001,-16,-2,-5
3583,109,15,994,-18,19,3
3584,-70,2,994,-14,29,5
3585,-189,-8,983,-8,20,2
3586,-186,12,976,-10,-2,-2
3587,-37,37,1013,-6,-25,-8
3588,115,47,1026,-14,-27,-11
3589,200,45,1008,-16,-9,-6
3590,143,24,997,-17,15,0
3591,-24,-8,1003,-19,31,7
3592,-168,-22,971,-13,24,4
3593,-188,0,975,-6,5,-1
3594,-82,22,1006,-6,-21,-7
3595,77,49,1017,-7,-28,-9
3596,199,60,1012,-17,-16,-9
3597,154,39,1002,-22,11,0
3598,18,2,1004,-21,28,5
3599,-139,-12,981,-18,28,4
3600,-188,-16,983,-12,7,0
3601,-125,0,987,-5,-16,-5
3602,48,42,1006,-5,-30,-8
3603,176,54,1006,-10,-20,-9
3604,174,45,1005,-18,5,-2
3605,67,25,1005,-21,26,3
3606,-110,3,997,-22,30,6
3607,-186,-21,984,-17,11,3
3608,-162,-11,980,-12,-12,-4
3609,11,28,1009,-7,-30,-10
3610,146,44,1012,-9,-24,-9
3611,194,46,1002,-14,-2,-4
3612,104,34,992,-22,21,3
3613,-66,10,1000,-20,30,5
3614,-188,-19,991,-18,17,2
3615,-180,-2,970,-14,-7,-2
3616,-30,17,1007,-7,-28,-7
3617,112,38,1012,-10,-27,-10
3618,203,48,1005,-12,-7,-7
3619,138,38,1003,-19,19,2
3620,-30,7,1015,-22,31,6
3621,-167,-10,975,-18,23,2
3622,-194,-4,969,-12,0,0
3623,-83,8,995,-9,-24,-8
3624,80,32,1014,-8,-28,-10
3625,201,52,1011,-14,-13,-8
3626,159,42,1009,-17,14,0
3627,21,12,1013,-21,28,4
3628,-144,-3,984,-18,25,5
3629,-195,-6,976,-12,4,1
3630,-131,1,981,-12,-20,-5
3631,50,37,1005,-7,-30,-9
3632,184,46,1008,-14,-18,-9
3633,184,36,1006,-20,5,-2
3634,65,20,1015,-16,25,3
3635,-105,3,992,-19,28,6
3636,-197,-15,978,-12,11,2
3637,-168,4,971,-8,-13,-4
3638,11,36,1007,-8,-28,-8
3639,154,48,1016,-14,-23,-9
3640,198,38,1009,-20,-1,-4
3641,106,28,997,-20,23,2
3642,-67,-2,995,-19,31,6
3643,-185,-17,984,-14,17,2
3644,-183,3,970,-10,-7,-1
3645,-35,27,1006,-8,-28,-8
3646,112,44,1014,-12,-25,-10
3647,205,48,1008,-13,-8,-6
3648,139,35,1007,-20,17,2
3649,-23,1,1006,-22,29,5
3650,-167,-15,975,-16,22,5
3651,-190,-6,963,-11,1,1
3652,-86,10,995,-7,-22,-6
3653,81,39,1015,-11,-28,-10
3654,198,57,1015,-14,-14,-8
3655,164,41,1008,-18,11,-1
3656,20,5,1011,-20,28,6
3657,-138,-3,978,-18,25,5
3658,-195,-16,979,-14,8,1
3659,-131,3,982,-8,-16,-5
3660,46,34,1008,-9,-28,-8
3661,182,50,1011,-12,-20,-10
3662,180,40,1005,-18,5,-2
3663,70,24,1006,-18,25,3
3664,-107,3,995,-21,29,7
3665,-190,-15,977,-16,12,1
3666,-167,-2,974,-11,-11,-4
3667,10,33,1012,-7,-29,-8
3668,145,43,1017,-13,-23,-10
3669,197,38,1009,-15,-3,-5
3670,108,34,992,-17,21,2
3671,-65,6,994,-19,31,5
3672,-184,-17,983,-16,17,1
3673,-184,1,970,-9,-5,-1
3674,-33,21,1006,-9,-27,-8
3675,108,38,1015,-9,-26,-10
3676,204,53,1005,-14,-10,-5
3677,141,34,1003,-19,15,1
3678,-21,4,1006,-20,29,5
3679,-163,-9,973,-18,22,4
3680,-191,-4,969,-10,1,0
3681,-86,11,991,-10,-24,-6
3682,77,35,1019,-10,-27,-9
3683,199,54,1010,-15,-14,-8
3684,130,80,982,-51,10,-14
3685,32,26,950,-7,22,1
3686,-133,-24,884,-46,23,4
3687,-178,-25,765,17,-2,5
3688,-143,-18,857,-23,-16,-2
3689,54,19,915,-23,-25,-11
3690,187,44,995,14,-10,-9
3691,194,21,871,-39,1,-4
3692,72,-6,1001,3,27,-4
3693,-123,5,992,-7,36,7
3694,-272,145,776,1,36,9
3695,38,-57,474,-269,77,-42
3696,-248,29,232,-242,12,-38
3697,152,5,313,-169,54,-35
3698,95,-6,473,-176,43,-15
3699,63,0,894,-61,27,-16
3700,-51,-4,757,5,62,0
3701,-201,-61,435,14,22,-16
3702,-255,166,636,36,-12,18
3703,-99,-2,703,126,-128,142
3704,2,63,-12,55,-120,58
3705,-25,-8,357,-5,-62,-4
3706,147,-86,262,72,10,-5
3707,-26,-40,512,-20,0,30
3708,-93,-126,185,102,5,6
3709,-263,-62,181,-26,20,11
3710,-195,198,108,-29,30,-13
3711,106,-76,118,159,-140,-13
3712,158,82,173,-202,56,18
3713,165,2,348,154,-51,-15
3714,11,-90,401,-82,11,46
3715,-87,-140,515,-119,33,16
3716,-285,-33,603,299,47,1
3717,-111,14,-18,-326,-67,22
3718,284,84,-204,244,-17,-2
3719,36,161,824,-202,-37,-14
3720,96,12,551,-96,9,7
3721,126,94,628,83,47,-22
3722,-81,0,564,-243,16,-1
3723,-208,-163,479,60,59,-5
3724,-231,-52,505,-29,45,-15
3725,-108,228,-11,-11,-39,-14
3726,67,-99,132,160,-80,23
3727,273,146,164,-93,-31,59
3728,158,178,385,157,17,93
3729,-9,-277,205,101,-101,116
3730,-108,16,222,-163,-77,96
3731,-189,-122,77,122,77,22
3732,-108,-45,353,-43,-22,-4
3733,99,11,688,-124,-99,12
3734,76,356,854,178,-24,-12
3735,36,-176,280,214,-119,50
3736,119,99,396,351,-18,100
3737,-84,-42,590,55,-110,39
3738,-250,-309,400,-154,-100,64
3739,-139,-11,275,158,-16,58
3740,-15,-68,476,-140,32,29
3741,-189,145,438,-58,-13,-82
3742,226,36,333,-289,0,17
3743,142,120,554,-89,126,-52
3744,-33,-70,544,-267,119,-54
3745,-139,15,454,-120,41,6
3746,-108,-102,482,-40,17,0
3747,-177,-16,724,-95,16,-50
3748,110,-9,438,-102,-21,-29
3749,14,-70,955,168,-13,29
3750,-156,228,359,-100,32,-46
3751,-116,-132,434,71,33,-1
3752,-39,135,521,19,26,6
3753,-187,-156,548,-163,-4,8
3754,-84,3,355,171,23,-20
3755,-60,105,591,-59,-27,-45
3756,254,-31,129,-14,12,13
3757,184,155,438,84,-16,-15
3758,203,-136,290,-185,54,-3
3759,-144,-6,695,63,4,3
3760,-160,-16,378,-5,33,11
3761,-146,-67,512,-79,-50,-12
3762,28,70,605,117,-49,-5
3763,126,14,631,-111,-16,-2
3764,171,66,704,52,28,-1
3765,84,-40,587,-19,17,18
3766,-93,2,496,-40,2,5
3767,-200,-3,450,29,33,2
3768,-162,37,422,-48,6,-2
3769,-13,53,457,17,-32,-8
3770,187,55,673,0,-42,-9
3771,193,42,850,-45,4,-1
3772,83,2,871,-9,49,3
3773,-102,-16,844,-34,30,6
3774,-197,-28,823,-6,-6,4
3775,-158,-6,818,3,-16,-4
3776,12,30,934,-15,-12,-8
3777,138,75,1003,-2,-11,-8
3778,190,59,1015,-19,-12,-5
3779,91,35,1001,-21,10,4
3780,-69,8,955,-22,31,6
3781,-173,-35,976,-28,26,1
3782,-183,-18,952,-10,-6,-2
3783,-18,14,1003,-3,-35,-8
3784,133,41,1020,-8,-27,-11
3785,199,53,1006,-10,2,-6
3786,126,50,999,-19,24,1
3787,-52,22,1008,-23,26,7
3788,-183,-15,980,-18,12,3
3789,-188,-11,959,-13,-4,-1
3790,-45,4,1008,-10,-21,-7
3791,101,28,1021,-10,-24,-10
3792,200,43,1000,-11,-13,-6
3793,143,46,1001,-17,12,2
3794,-10,16,1017,-18,31,6
3795,-163,0,973,-18,25,4
3796,-197,0,971,-14,2,1
3797,-94,6,999,-10,-22,-6
3798,73,23,1015,-11,-28,-9
3799,202,44,1010,-13,-15,-8
3800,170,34,1015,-16,10,0
3801,28,17,1005,-18,27,5
3802,-139,2,978,-18,27,6
3803,-194,-4,984,-13,7,2
3804,-139,3,981,-14,-17,-4
3805,43,32,1004,-9,-31,-9
3806,178,44,1009,-15,-20,-9
3807,182,33,1008,-19,3,-3
3808,70,18,1006,-17,27,3
3809,-106,1,995,-18,29,5
3810,-192,-12,982,-14,12,2
3811,-170,-1,974,-9,-9,-4
3812,1,36,1012,-10,-27,-7
3813,149,49,1016,-11,-24,-9
3814,194,41,1004,-15,-4,-4
3815,111,29,989,-21,21,2
3816,-66,0,1004,-21,31,6
3817,-185,-19,984,-15,17,3
3818,-186,-3,971,-10,-6,-2
3819,-37,25,1006,-8,-26,-7
3820,105,45,1020,-10,-26,-10
3821,202,55,1000,-14,-8,-6
3822,140,37,1006,-20,16,1
3823,-18,3,1012,-22,31,5
3824,-169,-16,973,-17,24,4
3825,-186,-8,968,-12,0,-2
3826,-89,8,1001,-5,-22,-7
3827,76,41,1011,-8,-29,-9
3828,203,50,1010,-12,-14,-9
3829,158,44,1011,-15,12,-1
3830,25,13,1008,-21,28,4
3831,-140,-3,979,-18,27,3
3832,-197,-12,983,-15,6,0
3833,-131,-1,982,-11,-18,-5
3834,48,30,1006,-7,-29,-9
3835,179,50,1005,-14,-21,-9
3836,179,38,1009,-16,6,-3
3837,70,22,1011,-19,26,3
3838,-109,2,994,-20,29,7
3839,-192,-16,982,-14,11,1
3840,-167,-2,975,-10,-11,-3
3841,10,33,1007,-7,-29,-8
3842,147,44,1016,-13,-22,-10
3843,196,39,1007,-16,-1,-4
3844,108,29,993,-20,21,2
3845,-68,0,1002,-19,32,7
3846,-183,-15,982,-16,17,2
3847,-183,0,970,-10,-6,-2
3848,-35,20,1001,-8,-27,-7
3849,108,40,1017,-12,-25,-10
3850,206,48,1004,-13,-8,-6
3851,136,36,1004,-20,16,2
3852,-19,2,1010,-20,29,5
3853,-169,-14,974,-15,22,3
3854,-194,-3,966,-10,0,0
3855,-84,8,997,-7,-22,-8
3856,75,37,1013,-8,-29,-10
3857,199,53,1009,-15,-15,-8
3858,159,41,1012,-17,12,0
3859,22,14,1009,-20,28,5
3860,-139,-5,980,-20,24,4
3861,-195,-12,981,-13,5,1
3862,-126,1,980,-11,-17,-5
3863,51,35,1006,-7,-30,-9
3864,178,52,1014,-12,-19,-9
3865,181,43,1006,-18,5,-2
3866,67,23,1013,-18,26,3
3867,-106,2,995,-20,27,5
3868,-195,-13,977,-13,11,1
3869,-162,-2,979,-8,-11,-4
3870,11,31,1008,-9,-28,-8
3871,152,46,1014,-9,-22,-11
3872,196,39,1007,-16,-1,-4
3873,104,32,995,-20,20,4
3874,-68,5,996,-20,30,7
3875,-191,-19,983,-16,18,2
3876,-180,0,972,-10,-7,-2
3877,-32,17,1004,-9,-27,-7
3878,113,42,1016,-11,-25,-8
3879,208,45,1011,-14,-9,-6
3880,137,37,1002,-19,17,0
3881,-28,7,1004,-19,29,5
3882,-167,-11,976,-16,23,3
3883,-195,-5,967,-10,2,0
3884,-80,12,997,-9,-22,-7
3885,82,35,1018,-10,-27,-10
3886,198,51,1012,-14,-14,-7
3887,162,41,1006,-16,13,0
3888,18,9,1010,-21,29,5
3889,-146,-6,976,-19,24,6
3890,-194,-9,981,-11,5,0
3891,-140,37,896,-75,-36,-14
3892,41,49,922,3,-32,-23
3893,174,55,677,-40,-14,-20
3894,208,19,648,-11,-17,9
3895,54,-4,685,7,46,6
3896,-110,-18,868,-74,19,4
3897,-195,-11,933,14,24,2
3898,-171,9,940,-3,-6,-4
3899,20,51,983,-36,-37,-9
3900,153,65,1028,5,-22,-9
3901,188,46,971,-24,0,-4
3902,126,-3,919,-38,22,4
3903,-39,-85,990,3,32,0
3904,-276,12,969,-10,23,-3
3905,-190,56,716,-180,-27,-108
3906,156,27,120,24,177,-226
3907,68,-83,430,-276,76,-152
3908,400,-47,282,-249,87,-78
3909,123,77,315,143,96,-13
3910,-26,-79,371,-125,21,-8
3911,-105,-82,112,-49,14,1
3912,-160,118,328,128,17,-52
3913,-291,-144,109,-509,130,-175
3914,-79,261,-96,-51,108,-94
3915,62,63,262,-94,-7,14
3916,-138,-42,23,73,5,25
3917,-77,-53,254,-198,15,8
3918,-66,-78,443,-73,41,10
3919,-318,22,181,175,37,-19
3920,-130,12,218,-220,20,36
3921,-15,5,-97,138,-26,-20
3922,23,82,54,-26,-27,-4
3923,91,-15,56,-221,11,15
3924,85,-123,254,162,23,-3
3925,-205,-35,177,-84,85,43
3926,-126,-26,-7,174,-150,65
3927,49,-140,8,39,19,-58
3928,159,33,94,-95,50,-76
3929,85,106,612,29,-124,-14
3930,215,-10,516,-92,70,-13
3931,93,81,479,82,67,7
3932,-209,99,441,-54,2,26
3933,101,-34,272,-14,-103,0
3934,60,-94,-136,-226,40,85
3935,-74,39,93,44,50,20
3936,122,21,667,-85,-137,17
3937,214,76,578,-129,-160,9
3938,137,-5,565,100,122,-17
3939,-34,6,526,-167,203,-13
3940,-179,52,428,52,-12,14
3941,-183,-15,423,32,-153,-2
3942,-42,-36,527,-102,-25,0
3943,-16,256,696,100,122,-43
3944,112,-185,287,-165,210,-189
3945,3,-118,303,-58,-45,-8
3946,123,176,521,-53,37,-37
3947,-54,-218,322,-410,158,-38
3948,-131,23,282,-30,103,-13
3949,-272,145,210,-106,13,-29
3950,20,-118,83,-265,-25,-106
3951,-16,-3,199,-292,62,5
3952,225,223,152,-115,139,-105
3953,127,-46,374,-267,47,-28
3954,30,83,394,38,22,6
3955,-160,-102,626,-131,60,12
3956,-211,200,614,-13,24,-47
3957,-99,-74,225,253,-15,-11
3958,67,40,546,-316,-97,-25
3959,52,132,283,148,67,-46
3960,157,107,751,-27,-7,-20
3961,19,-37,783,-258,-5,30
3962,-136,-122,765,270,88,3
3963,-204,138,713,-178,13,-22
3964,196,-211,252,-24,-16,-35
3965,-24,80,466,151,-28,21
3966,241,100,457,-280,-50,-23
3967,192,-80,549,191,36,-17
3968,39,72,489,-221,-9,27
3969,-202,-70,636,40,51,9
3970,-222,-44,746,8,29,2
3971,-64,-45,821,-94,-53,1
3972,57,23,638,74,-17,-7
3973,179,61,631,-42,-5,-9
3974,138,105,500,-6,11,-4
3975,24,63,503,7,24,9
3976,-112,30,511,-54,22,5
3977,-193,1,690,-18,26,0
3978,-122,-44,892,-22,-9,-4
3979,31,-13,1007,-11,-42,-8
3980,186,12,1005,4,-29,-11
3981,187,34,1004,-7,14,-5
3982,51,54,1006,-16,42,4
3983,-123,48,955,-11,29,6
3984,-194,15,947,-18,-1,1
3985,-157,1,929,-20,-17,-3
3986,22,4,971,-11,-22,-9
3987,161,16,968,-17,-20,-10
3988,185,15,984,-11,-3,-4
3989,100,14,1002,-11,21,2
3990,-80,21,1010,-16,35,5
3991,-185,8,988,-12,21,2
3992,-188,14,972,-13,-10,-2
3993,-19,37,1003,-8,-34,-8
3994,133,41,1009,-14,-27,-9
3995,205,26,1008,-21,0,-6
3996,126,21,1001,-17,26,2
3997,-52,-2,1009,-18,31,6
3998,-178,-17,995,-14,18,2
3999,-194,1,963,-5,-3,-1
4000,-44,33,998,-6,-23,-9
4001,96,48,1021,-8,-25,-9
4002,199,54,1007,-16,-10,-7
4003,148,35,1004,-23,14,0
4004,-13,-3,1011,-22,29,5
4005,-162,-23,975,-19,22,4
4006,-192,-14,964,-9,2,-1
4007,-92,11,997,-4,-22,-6
4008,72,41,1014,-6,-28,-10
4009,192,66,1011,-14,-15,-8
4010,163,51,1010,-20,11,-1
4011,21,14,1014,-22,28,5
4012,-138,-10,977,-21,24,4
4013,-195,-19,980,-15,5,2
4014,-122,-4,976,-9,-18,-5
4015,45,31,1006,-6,-28,-9
4016,181,53,1014,-9,-19,-9
4017,178,49,1013,-18,5,-3
4018,61,26,1013,-20,26,3
4019,-112,8,989,-18,28,5
4020,-189,-16,976,-17,10,1
4021,-161,-9,977,-11,-12,-3
4022,16,27,1010,-7,-28,-9
4023,157,43,1011,-11,-21,-10
4024,193,42,1004,-14,-1,-3
4025,98,32,997,-18,23,2
4026,-75,11,1001,-18,30,4
4027,-190,-16,984,-18,16,3
4028,-184,-3,969,-12,-7,-1
4029,-20,23,1005,-6,-28,-8
4030,120,37,1018,-12,-25,-10
4031,201,45,1012,-14,-6,-6
4032,135,34,997,-18,17,2
4033,-36,8,1004,-20,30,6
4034,-171,-15,975,-16,21,3
4035,-192,-2,971,-13,0,-1
4036,-69,15,997,-10,-23,-5
4037,84,35,1020,-8,-28,-9
4038,203,52,1011,-16,-14,-6
4039,154,35,1003,-20,12,1
4040,6,9,1010,-19,28,5
4041,-150,-8,981,-18,25,5
4042,-194,-6,973,-12,4,0
4043,-113,2,986,-11,-19,-6
4044,58,35,1003,-9,-29,-9
4045,186,52,1014,-10,-18,-8
4046,177,40,1008,-18,7,-1
4047,50,19,1013,-22,28,5
4048,-117,1,985,-19,29,5
4049,-194,-14,977,-16,10,2
4050,-152,-2,982,-11,-15,-6
4051,24,30,1007,-9,-30,-9
4052,161,50,1007,-12,-21,-10
4053,195,37,1004,-15,2,-4
4054,89,27,1001,-14,25,3
4055,-82,4,996,-20,31,6
4056,-189,-17,989,-14,15,1
4057,-184,-3,966,-11,-8,-2
4058,-14,30,1002,-6,-29,-7
4059,131,44,1023,-8,-25,-9
4060,205,46,1007,-17,-5,-4
4061,127,35,1001,-19,20,1
4062,-42,3,1001,-20,30,6
4063,-181,-16,977,-18,20,4
4064,-188,-2,970,-7,-2,-1
4065,-62,16,1002,-9,-24,-7
4066,96,40,1018,-8,-28,-10
4067,199,53,1007,-12,-10,-7
4068,153,41,1005,-21,15,1
4069,0,7,1014,-21,30,5
4070,-160,-7,977,-18,25,5
4071,-198,-9,969,-13,3,0
4072,-107,6,992,-7,-20,-5
4073,63,33,1008,-9,-29,-9
4074,194,53,1013,-11,-16,-9
4075,173,43,1013,-18,9,-1
4076,41,18,1009,-21,27,4
4077,-128,0,985,-17,28,4
4078,-199,-14,976,-14,9,2
4079,-144,0,979,-10,-17,-4
4080,33,27,1009,-8,-30,-8
4081,172,50,1007,-14,-21,-8
4082,189,39,1005,-15,4,-3
4083,80,31,1007,-18,24,2
4084,-95,7,1001,-21,30,6
4085,-191,-13,981,-15,13,2
4086,-179,-4,970,-11,-9,-3
4087,0,26,1006,-9,-29,-8
4088,140,40,1022,-10,-26,-9
4089,205,44,1007,-16,-6,-5
4090,121,33,999,-19,21,2
4091,-57,6,997,-19,31,5
4092,-184,-9,984,-16,18,3
4093,-190,-5,970,-12,-4,-2
4094,-51,21,1002,-9,-25,-7
4095,108,36,1017,-11,-26,-10
4096,199,81,926,-23,-15,-2
4097,142,38,931,-16,22,-6
4098,-17,0,890,-63,23,-1
4099,-144,-35,790,4,29,1
4100,-203,-16,778,-18,9,2
4101,-96,-5,984,-20,-26,-7
4102,64,45,940,2,-23,-7
4103,186,71,991,-5,-18,-6
4104,173,56,1014,-31,9,2
4105,34,21,1026,-20,29,6
4106,-131,-2,974,-19,25,5
4107,-194,-29,988,-35,7,4
4108,-129,-13,988,5,-17,-5
4109,45,20,1008,-13,-30,-8
4110,173,48,1013,-8,-20,-9
4111,213,-12,993,-12,5,-4
4112,76,-15,993,-10,33,-8
4113,-295,68,651,25,27,124
4114,240,-54,187,411,-249,208
4115,-139,-106,398,335,-139,268
4116,200,-22,264,181,-196,121
4117,11,95,282,-81,-11,37
4118,45,-73,356,-129,-51,-11
4119,157,-90,111,33,20,0
4120,-88,182,238,192,62,77
4121,-197,130,118,395,-192,213
4122,-198,18,-51,160,-127,110
4123,-14,-9,-10,69,-123,19
4124,9,-9,314,-150,-74,41
4125,104,67,491,-22,0,6
4126,27,-89,287,-89,48,21
4127,-47,-137,74,149,-3,19
4128,-84,65,-4,-111,-16,20
4129,132,160,61,-59,32,-1
4130,197,30,230,-54,-17,-13
4131,45,14,260,0,-51,11
4132,103,-84,45,28,-13,-9
4133,85,-96,111,-155,15,-13
4134,116,33,-48,-99,137,37
4135,0,41,263,-59,-104,-1
4136,-241,3,150,155,88,-33
4137,-105,16,-77,-148,-33,8
4138,33,-104,406,56,1,0
4139,143,47,427,-15,-89,-21
4140,84,319,483,-5,-20,-9
4141,54,74,36,-168,173,-50
4142,-324,-93,-14,61,16,-13
4143,-124,23,443,-56,-136,-27
4144,-210,-136,218,222,-93,-10
4145,-54,158,374,-65,212,5
4146,107,16,317,46,80,-65
4147,136,67,263,97,-296,-54
4148,89,86,598,-55,-117,-2
4149,-15,34,644,143,245,-11
4150,-105,-99,688,-118,104,16
4151,-285,191,543,80,-173,-47
4152,42,-38,418,-81,16,-112
4153,10,-7,498,-140,34,-55
4154,101,301,272,76,272,-84
4155,117,-178,263,-42,4,-49
4156,35,80,235,-2,-129,17
4157,-252,133,216,144,24,-15
4158,-359,-78,328,-17,170,-77
4159,-84,44,669,141,-34,25
4160,86,181,532,254,-213,-27
4161,127,-72,356,3,-104,-14
4162,190,-3,803,206,135,32
4163,76,-142,498,-100,48,30
4164,-273,38,318,115,-104,-12
4165,-138,-69,196,161,-53,1
4166,-279,-31,505,-189,29,58
4167,-56,244,273,176,64,-51
4168,98,-11,236,-128,-76,-13
4169,244,97,262,-54,-100,11
4170,161,-74,270,89,82,9
4171,-114,-64,628,-125,74,-2
4172,-145,91,373,70,16,-12
4173,320,-99,107,113,-74,33
4174,136,248,610,-183,-86,1
4175,166,24,113,72,20,-55
4176,233,122,562,-154,60,21
4177,28,94,530,3,-62,22
4178,-92,-48,571,49,-45,1
4179,-164,-21,726,-110,36,7
4180,-198,-42,680,55,84,9
4181,-59,41,809,-32,-47,-2
4182,140,37,825,9,-109,-7
4183,185,89,667,9,13,-7
4184,106,66,579,-72,77,3
4185,-64,28,517,11,28,7
4186,-181,-24,553,-30,-40,4
4187,-171,-40,665,-19,-14,0
4188,-28,-1,884,-13,34,-8
4189,103,27,992,-23,1,-11
4190,189,52,1007,8,-40,-7
4191,140,56,997,-10,-12,0
4192,-29,34,965,-22,50,5
4193,-165,2,950,-20,50,3
4194,-202,5,960,-19,-6,0
4195,-72,2,965,-10,-44,-7
4196,85,11,988,-13,-27,-10
4197,200,35,987,-15,2,-8
4198,161,30,978,-15,15,-3
4199,7,19,1000,-10,16,4
4200,-149,12,967,-14,20,6
4201,-194,10,978,-19,15,1
4202,-111,12,1000,-16,-9,-6
4203,50,29,1012,-13,-34,-8
4204,189,42,1007,-15,-28,-8
4205,177,23,1001,-16,6,-2
4206,56,8,1008,-17,32,5
4207,-115,1,989,-14,33,6
4208,-192,0,987,-11,10,1
4209,-153,9,982,-9,-15,-5
4210,20,39,1009,-11,-29,-9
4211,164,49,1011,-15,-22,-9
4212,188,32,1001,-18,-2,-3
4213,90,17,1003,-17,22,3
4214,-86,0,999,-21,31,6
4215,-187,-15,994,-16,17,1
4216,-175,-3,973,-10,-7,-4
4217,-12,34,1006,-8,-29,-10
4218,137,52,1016,-10,-27,-10
4219,192,43,1002,-17,-4,-5
4220,120,33,991,-21,19,1
4221,-56,4,999,-21,31,7
4222,-177,-17,987,-18,19,2
4223,-188,-11,973,-12,-2,0
4224,-48,20,1003,-7,-26,-7
4225,104,38,1013,-10,-27,-9
4226,206,52,1006,-12,-10,-7
4227,142,46,1002,-19,15,1
4228,-12,12,1013,-21,32,4
4229,-167,-13,978,-20,24,3
4230,-193,-8,963,-15,0,0
4231,-86,1,997,-9,-24,-7
4232,71,33,1013,-7,-29,-10
4233,199,51,1011,-13,-15,-9
4234,167,44,1010,-17,12,-1
4235,15,17,1010,-21,29,7
4236,-136,-1,986,-17,27,4
4237,-199,-11,980,-14,7,1
4238,-128,2,974,-11,-19,-6
4239,51,23,1007,-6,-29,-9
4240,180,50,1012,-9,-19,-8
4241,182,43,1008,-17,6,-2
4242,64,24,1018,-20,27,4
4243,-117,4,992,-19,29,5
4244,-193,-11,971,-14,11,1
4245,-163,-5,984,-11,-15,-3
4246,13,31,1004,-8,-30,-8
4247,166,45,1010,-12,-20,-9
4248,196,41,1003,-15,1,-4
4249,95,30,1005,-19,22,3
4250,-78,5,1001,-21,30,6
4251,-196,-17,985,-15,16,3
4252,-182,-5,962,-10,-8,-2
4253,-21,25,1006,-5,-27,-7
4254,131,45,1022,-10,-26,-11
4255,202,44,1011,-17,-5,-5
4256,133,36,997,-19,20,1
4257,-45,5,1002,-20,31,6
4258,-179,-13,977,-16,20,3
4259,-190,-4,972,-10,-3,-1
4260,-61,19,998,-9,-25,-7
4261,94,34,1018,-10,-28,-10
4262,210,53,1008,-11,-12,-7
4263,149,38,1005,-19,15,1
4264,0,9,1009,-19,30,4
4265,-161,-14,979,-19,24,4
4266,-199,-4,962,-11,3,1
4267,-103,5,995,-8,-20,-6
4268,68,37,1015,-8,-28,-9
4269,197,54,1008,-12,-16,-8
4270,175,40,1010,-19,10,-2
4271,37,14,1010,-19,28,5
4272,-133,-3,978,-19,28,4
4273,-198,-11,983,-15,9,2
4274,-139,-1,982,-11,-15,-4
4275,36,34,1004,-8,-30,-10
4276,177,48,1010,-11,-22,-9
4277,185,44,1006,-16,3,-4
4278,77,22,1008,-20,24,2
4279,-105,3,997,-19,28,5
4280,-192,-17,978,-16,11,2
4281,-170,-9,975,-8,-10,-4
4282,6,30,1013,-7,-28,-7
4283,150,47,1009,-10,-25,-9
4284,201,44,1008,-16,-2,-5
4285,111,31,994,-21,22,4
4286,-67,9,1000,-18,33,7
4287,-183,-15,990,-20,19,2
4288,-192,-6,969,-12,-4,-1
4289,-34,19,1002,-8,-27,-8
4290,114,38,1021,-11,-26,-10
4291,203,52,1011,-14,-8,-5
4292,138,37,997,-21,17,2
4293,-28,7,1007,-21,30,5
4294,-171,-13,975,-16,21,2
4295,-202,-8,968,-13,1,-1
4296,-79,9,998,-9,-23,-7
4297,84,34,1019,-8,-30,-10
4298,204,54,1008,-11,-14,-9
4299,164,44,1004,-18,14,-2
4300,15,13,1013,-19,31,4
4301,-152,-5,977,-19,26,4
4302,-199,-8,973,-13,5,0
4303,-119,0,985,-9,-19,-5
4304,52,31,1003,-7,-30,-9
4305,194,50,1016,-11,-18,-9
4306,179,39,1010,-17,7,-1
4307,55,22,1011,-20,28,3
4308,-119,1,990,-19,30,6
4309,-205,-12,975,-13,10,3
4310,-150,-2,981,-10,-15,-4
4311,8,48,1016,-6,-29,-10
4312,157,68,847,20,-13,11
4313,189,31,893,-29,-20,-2
4314,91,32,830,-2,25,17
4315,-54,-18,602,-65,17,13
4316,-221,-19,557,40,26,2
4317,-183,-5,712,-73,-8,0
4318,-13,30,944,26,-28,-9
4319,133,53,949,-1,-25,-11
4320,214,52,999,-58,-10,-5
4321,120,42,947,22,29,1
4322,-42,-15,970,-55,31,8
4323,-155,-101,980,-10,21,-2
4324,-262,39,916,18,4,-10
4325,-167,99,544,121,-46,128
4326,162,-4,47,235,-232,171
4327,99,-105,86,507,-57,171
4328,-139,-7,7,-165,-164,171
4329,7,83,159,59,-47,89
4330,-79,65,224,-188,76,-11
4331,-76,-95,351,40,6,-25
4332,-277,157,141,-321,-2,-45
4333,-110,44,369,-107,36,-3
4334,-111,12,176,-14,10,30
4335,182,54,35,-95,-12,3
4336,134,16,385,142,17,9
4337,-37,-128,341,52,21,2
4338,-299,-9,396,-154,14,-7
4339,-157,0,285,296,-6,-19
4340,-27,109,-87,-192,-51,5
4341,86,291,459,-27,4,-3
4342,204,-29,97,229,-58,-32
4343,-156,-36,175,-431,3,35
4344,-165,-28,81,450,62,8
4345,-56,105,20,-313,125,110
4346,-51,-90,-268,67,-225,26
4347,12,14,157,200,-61,50
4348,114,85,531,-157,-86,-7
4349,-13,185,187,258,60,-5
4350,151,16,310,-341,-16,13
4351,87,-17,441,264,-11,19
4352,-185,-121,415,-13,-14,13
4353,-244,24,297,-186,37,-3
4354,52,-25,525,137,85,-145
4355,207,231,92,-376,-74,-29
4356,193,216,204,-76,-51,-55
4357,246,-228,-4,70,98,-84
4358,121,85,93,-144,61,70
4359,-159,-70,139,284,-30,32
4360,-236,-54,90,-181,-106,12
4361,-139,34,793,133,25,-5
4362,85,-84,928,12,47,4
4363,62,234,836,18,-80,-26
4364,83,-122,221,383,-100,-15
4365,19,-31,109,-142,-47,68
4366,-70,99,159,226,10,32
4367,-180,-162,389,-130,56,33
4368,-65,18,530,-123,-65,27
4369,13,-9,305,147,-37,5
4370,13,-41,522,78,-53,63
4371,-276,-123,134,190,-74,136
4372,-160,64,523,150,-63,28
4373,-195,-28,375,-202,-13,26
4374,-58,-55,424,248,39,26
4375,-208,-45,500,-217,24,31
4376,-49,-182,755,30,-57,-7
4377,-29,139,451,114,15,-51
4378,34,-210,384,-269,-53,35
4379,-142,53,430,375,70,17
4380,-301,143,255,-197,-14,-21
4381,-142,-7,821,-103,-9,11
4382,31,-25,102,288,22,5
4383,8,-155,574,-346,-38,-3
4384,73,13,874,251,16,-12
4385,-26,29,608,-18,13,-53
4386,8,-179,85,130,-16,42
4387,-185,75,450,-59,4,62
4388,8,8,100,6,106,-30
4389,-12,-105,161,-95,-14,13
4390,-45,86,361,17,-42,7
4391,-12,-61,258,-96,14,-34
4392,127,30,358,-10,-10,-14
4393,152,46,365,19,9,6
4394,40,39,428,-54,-8,-4
4395,-101,21,421,44,4,10
4396,-159,33,374,-59,26,4
4397,-93,2,415,-3,3,-2
4398,46,-47,494,7,-32,-1
4399,141,43,530,-46,-34,-9
4400,99,2,633,15,24,-2
4401,15,47,896,-29,28,5
4402,-96,46,798,-1,13,3
4403,-130,36,804,-13,-4,-1
4404,-84,26,676,-35,-12,-3
4405,17,4,621,0,-12,-7
4406,150,9,619,-24,-17,-8
4407,129,-3,658,-9,-2,-1
4408,42,11,832,-11,26,2
4409,-95,12,957,-22,33,3
4410,-167,28,987,-1,10,3
4411,-120,27,972,-16,-21,-3
4412,87,24,801,-15,-31,1
4413,100,61,841,6,-6,-8
4414,131,-26,904,-45,15,-6
4415,54,-6,711,21,17,13
4416,-73,15,765,-18,20,2
4417,-153,-21,754,-12,11,0
4418,-124,41,870,11,-5,2
4419,9,34,899,-37,-22,-5
4420,121,62,936,-2,-21,-5
4421,144,21,992,-17,0,0
4422,74,19,986,-27,22,2
4423,-60,-17,994,-4,29,7
4424,-142,-17,970,-19,11,5
4425,-139,5,970,0,-5,0
4426,-10,40,1000,1,-18,-2
4427,87,56,948,-16,-15,-4
4428,172,28,928,-11,-1,1
4429,111,47,1007,-13,17,2
4430,-32,0,1003,-27,28,8
4431,-157,-33,957,-2,20,10
4432,-146,-21,948,-14,-1,6
4433,-59,-4,976,-6,-13,1
4434,78,43,1007,17,-17,-3
4435,168,54,978,-24,-8,3
4436,137,60,1004,7,18,3
4437,16,13,1033,-29,30,9
4438,-101,-24,981,-6,28,11
4439,-131,-47,972,-7,13,15
4440,-103,-28,975,4,-2,15
4441,229,201,1021,-61,-47,-33
4442,200,192,295,-122,39,-108
4443,89,278,856,-81,35,-29
4444,-56,-179,683,-110,27,12
4445,260,-228,561,7,-57,92
4446,853,-84,1101,17,-105,195
4447,418,136,1200,38,61,274
4448,-92,-150,873,-54,97,253
4449,257,-111,608,-10,-36,277
4450,751,160,1291,83,-69,339
4451,163,344,1266,-30,89,319
4452,-172,-76,826,-94,96,275
4453,260,-165,369,-8,-59,334
4454,947,219,1468,69,-114,428
4455,182,399,1408,-11,144,420
4456,-195,-101,861,-107,150,357
4457,345,-106,97,22,-42,402
4458,729,254,891,101,-134,507
4459,796,690,1826,1,27,490
4460,-477,-289,1062,-210,235,438
4461,290,-308,141,-50,26,528
4462,344,-155,2,57,-103,704
4463,1019,66,1210,132,-177,861
4464,38,598,1844,14,150,807
4465,-182,-408,862,-220,308,707
4466,351,-177,-2,-62,143,824
4467,321,-309,168,-39,59,1025
4468,-155,-657,710,47,-57,1210
4469,-483,-204,1516,162,-245,1340
4470,795,214,1722,99,-208,1317
4471,173,177,1126,-7,141,1208
4472,-250,-72,883,-79,207,1183
4473,-288,-320,929,-92,118,1233
4474,-46,-490,658,-52,28,1338
4475,-131,-390,595,47,-60,1481
4476,127,-58,1298,97,-126,1576
4477,73,325,1710,66,49,1462
4478,-343,150,1040,-25,217,1306
4479,-110,-178,554,-76,154,1306
4480,-178,-243,664,-39,87,1387
4481,-342,-197,875,-3,-1,1465
4482,-400,-205,957,29,-102,1509
4483,160,78,1193,50,-145,1517
4484,126,379,1550,71,62,1344
4485,-535,324,1171,1,239,1132
4486,-358,60,793,-70,176,1071
4487,-247,-124,615,-70,112,1081
4488,-395,-139,831,-25,48,1114
4489,-575,-121,1014,15,-26,1132
4490,-526,20,911,23,-78,1117
4491,-419,33,815,16,-120,1078
4492,-86,259,1451,19,-105,993
4493,-330,330,1442,20,85,760
4494,-544,92,940,-8,173,617
4495,-468,132,684,-8,118,597
4496,-578,-40,787,-35,60,620
4497,-664,-5,857,-7,-39,656
4498,-614,107,885,9,-130,669
4499,-152,371,1220,-3,-159,593
4500,-14,524,1353,19,-31,330
4501,-105,514,855,37,57,56
4502,-33,484,781,0,12,-36
4503,54,518,1046,-61,-29,-18
4504,56,257,1195,-142,-25,3
4505,-38,-120,974,-155,-22,-1
4506,-42,-337,944,-118,-30,-6
4507,49,-373,989,-60,-23,-9
4508,73,-302,916,8,3,-19
4509,129,-230,920,56,16,-25
4510,106,4,1107,97,27,-17
4511,-24,274,1103,80,28,-2
4512,-143,367,900,26,26,3
4513,-204,336,568,-26,14,-17
4514,-103,172,566,-86,-33,3
4515,44,-24,590,-107,-41,-9
4516,70,-196,880,-108,-35,-14
4517,73,-199,913,-12,-18,-1
4518,74,-184,907,-35,1,-4
4519,23,-115,960,43,23,-13
4520,8,16,1016,54,21,-11
4521,7,163,1017,12,9,-7
4522,-48,229,985,36,14,-4
4523,-56,204,988,-40,2,-3
4524,-67,92,1034,-61,-6,0
4525,-47,-44,996,-44,-9,-2
4526,-25,-114,991,-70,-20,-4
4527,45,-92,998,-7,-15,-11
4528,51,-62,1003,-12,-6,-21
4529,92,-26,969,2,7,-26
4530,76,55,1000,24,18,-16
4531,9,104,1020,-3,18,5
4532,-123,104,967,-11,16,3
4533,-117,68,888,-27,3,-3
4534,40,-39,1044,-35,-19,0
