sequence,AccelerometerX,AccelerometerY,AccelerometerZ,GyroscopeX,GyroscopeY,GyroscopeZ
0,-81,107,998,665,5,-15
1,-76,89,975,656,-6,-20
2,-16,83,966,653,-17,-28
3,31,100,968,649,-21,-35
4,57,120,984,644,-14,-34
5,33,150,993,630,-3,-26
6,-23,167,990,618,8,-15
7,-67,167,998,608,5,-11
8,-65,150,968,601,-8,-17
9,-5,155,958,589,-21,-28
10,47,171,963,567,-18,-32
11,52,189,990,548,-8,-28
12,21,224,975,527,4,-18
13,-38,231,988,504,8,-9
14,-69,232,986,482,3,-6
15,-66,212,964,460,-6,-12
16,6,214,945,438,-14,-21
17,60,236,967,415,-13,-24
18,67,259,975,387,-5,-20
19,21,288,980,355,10,-11
20,-36,298,982,322,15,-2
21,-70,297,978,286,9,1
22,-59,274,953,254,-5,-7
23,-2,263,951,226,-13,-16
24,61,293,954,193,-10,-17
25,59,302,981,156,0,-12
26,16,317,980,118,12,-2
27,-48,314,979,80,16,7
28,-64,300,964,45,8,6
29,-57,265,966,12,-5,-1
30,12,248,956,-17,-11,-12
31,65,263,965,-44,-8,-13
32,57,269,978,-75,4,-5
33,2,279,987,-105,16,7
34,-62,274,983,-137,19,16
35,-72,249,969,-166,11,14
36,-38,211,973,-187,0,2
37,26,191,955,-205,-8,-6
38,82,218,977,-222,-5,-5
39,62,235,984,-246,11,-3
40,-6,236,994,-271,24,5
41,-75,228,980,-293,22,14
42,-74,204,984,-314,11,11
43,-37,187,959,-330,0,2
44,20,164,963,-346,-6,-5
45,65,186,969,-362,0,-4
46,47,204,994,-377,11,2
47,-13,209,993,-397,19,10
48,-80,190,994,-415,19,15
49,-67,163,969,-430,7,12
50,-23,144,973,-442,-3,2
51,34,128,970,-451,-3,-3
52,63,136,983,-460,4,-2
53,36,162,981,-471,14,4
54,-31,162,1005,-483,20,13
55,-86,148,990,-497,16,17
56,-75,122,973,-503,6,11
57,-17,109,970,-509,-5,3
58,36,100,980,-515,-5,-1
59,70,116,984,-520,5,0
60,33,135,993,-529,16,9
61,-27,133,1001,-536,21,17
62,-73,123,1001,-546,14,20
63,-52,80,979,-552,5,15
64,3,69,967,-550,-1,6
65,48,65,984,-550,0,1
66,61,77,991,-552,8,4
67,19,99,999,-555,21,11
68,-42,100,1004,-560,23,17
69,-83,84,1000,-564,16,19
70,-65,54,975,-565,6,13
71,3,41,975,-560,-2,5
72,59,59,982,-558,-1,3
73,66,62,1008,-560,11,5
74,17,93,992,-563,22,12
75,-49,95,998,-569,24,16
76,-81,76,996,-574,15,15
77,-68,51,975,-573,4,8
78,9,48,972,-572,-3,-1
79,63,68,992,-575,1,-2
80,57,84,999,-580,12,3
81,1,105,988,-587,21,8
82,-59,111,995,-598,18,12
83,-73,100,979,-608,8,11
84,-50,78,987,-614,-1,6
85,19,68,966,-621,-6,1
86,68,98,980,-632,-2,2
87,52,99,985,-642,11,3
88,-21,143,1016,-657,23,7
89,-108,118,978,-680,24,5
90,-100,102,968,-686,4,3
91,-23,84,968,-699,-11,5
92,59,73,987,-711,-8,2
93,97,106,976,-725,5,8
94,58,112,998,-739,18,12
95,-5,118,989,-755,27,13
96,-80,88,980,-773,27,15
97,-71,66,972,-782,16,15
98,-46,43,982,-791,3,11
99,16,32,970,-797,-2,7
100,55,54,989,-805,4,6
101,34,69,986,-815,13,10
102,-30,75,994,-829,19,17
103,-82,57,985,-842,17,19
104,-64,38,972,-851,6,21
105,-5,34,974,-857,-2,17
106,43,27,978,-864,-2,13
107,69,52,989,-876,6,16
108,21,75,977,-888,19,21
109,-42,73,993,-904,23,28
110,-156,-96,1048,-923,18,40
111,-270,-1755,1853,-747,-41,13
112,56,-871,1254,-316,-136,61
113,408,-433,311,-286,-98,192
114,324,-473,222,-219,-32,271
115,359,-844,978,-25,71,274
116,-83,-691,1248,161,110,102
117,-429,-314,845,187,69,42
118,-241,-418,559,189,8,-17
119,-247,-451,960,314,4,-27
120,-279,675,1742,333,-25,-47
121,18,741,1094,97,-57,-49
122,281,668,696,12,-38,-120
123,456,460,1205,-102,17,-101
124,-102,-45,1167,-158,74,-4
125,-217,-140,898,-117,11,28
126,-154,-361,800,-103,-2,2
127,-94,-405,1093,-38,-14,-3
128,23,-207,969,16,-8,-15
129,-23,-86,886,34,9,-9
130,48,195,1124,50,-5,-7
131,22,212,1071,3,3,-7
132,0,169,913,-34,9,-7
133,-5,47,1052,-55,1,-2
134,2,-69,1026,-63,3,-13
135,-33,-131,934,-53,8,-6
136,-67,-117,975,-31,0,-5
137,-56,-69,1028,-14,-4,-11
138,-20,-5,974,-12,-4,-13
139,20,31,1002,-14,-6,-12
140,72,77,1037,-22,-3,-15
141,50,52,1006,-41,6,-16
142,-24,30,996,-51,11,-6
143,-78,5,1044,-54,3,-3
144,-78,80,1051,-67,-4,1
145,-46,125,1046,-94,-6,-9
146,-13,165,1045,-116,-4,-29
147,29,178,1063,-146,1,-38
148,52,203,1082,-184,1,-28
149,27,224,1093,-233,0,-5
150,12,238,1106,-283,-1,9
151,-45,257,1101,-332,5,13
152,-46,281,1104,-385,4,2
153,-25,283,1101,-440,0,-8
154,0,278,1090,-497,0,-9
155,28,268,1091,-555,-3,-3
156,6,248,1097,-609,-2,12
157,-20,226,1098,-659,-4,18
158,-52,212,1089,-709,-4,20
159,-32,203,1070,-755,-6,11
160,7,186,1050,-796,-6,4
161,24,139,1051,-834,-2,4
162,38,116,1037,-869,-2,13
163,3,88,1029,-895,-3,26
164,-31,55,1037,-917,-4,33
165,-69,44,1027,-934,-5,29
166,-44,35,1004,-951,-9,16
167,-5,22,1002,-963,-10,5
168,19,2,988,-975,-6,3
169,36,-34,989,-983,-5,8
170,14,-58,987,-988,-4,21
171,-18,-82,1001,-987,-5,28
172,-43,-74,981,-985,-8,28
173,-30,-79,972,-985,-9,17
174,16,-71,973,-979,-7,6
175,19,-70,972,-977,1,1
176,15,-80,977,-975,2,4
177,-15,-87,983,-975,3,12
178,-46,-74,998,-973,-1,17
179,-63,-54,1004,-979,-8,13
180,-35,-52,992,-985,-10,2
181,15,-37,976,-990,-8,-8
182,38,-40,979,-999,-1,-11
183,32,-63,993,-1006,6,-2
184,-4,-81,997,-1013,5,9
185,-43,-86,1005,-1015,1,15
186,-53,-66,993,-1022,-8,14
187,-37,-72,976,-1026,-8,5
188,11,-84,965,-1029,-8,-6
189,36,-100,966,-1034,-3,-5
190,22,-143,960,-1031,1,2
191,-6,-177,970,-1024,2,13
192,-48,-189,968,-1015,-3,18
193,-46,-186,949,-1002,-8,15
194,-21,-206,948,-993,-9,4
195,11,-226,921,-975,-5,-2
196,42,-244,909,-953,1,-5
197,22,-284,922,-930,4,3
198,-14,-322,934,-899,4,12
199,-55,-318,929,-869,1,13
200,-43,-302,920,-837,-7,9
201,-4,-301,909,-804,-7,-3
202,23,-316,893,-775,0,-9
203,46,-327,896,-742,5,-9
204,18,-354,905,-710,9,2
205,-30,-375,920,-671,8,13
206,-68,-382,928,-630,0,15
207,-54,-363,908,-594,-6,7
208,-23,-361,891,-555,-7,-5
209,8,-380,881,-514,-2,-13
210,28,-408,882,-471,2,-14
211,9,-433,881,-425,5,-4
212,-20,-451,906,-375,3,6
213,-44,-448,896,-323,-2,7
214,-23,-435,884,-271,-5,1
215,16,-413,864,-224,-4,-8
216,44,-442,868,-175,5,-14
217,49,-461,859,-121,12,-10
218,11,-480,875,-67,16,3
219,-33,-484,894,-8,12,10
220,-65,-463,894,46,7,11
221,-46,-443,875,101,1,1
222,-1,-414,870,148,1,-11
223,24,-406,866,197,7,-16
224,28,-426,898,244,12,-14
225,-8,-411,897,290,13,-6
226,-49,-398,918,336,7,0
227,-60,-361,926,377,0,-1
228,-36,-332,916,410,-2,-11
229,21,-302,901,441,-1,-22
230,35,-296,915,468,7,-23
231,27,-309,929,496,11,-16
232,-7,-312,944,524,10,-7
233,-50,-291,944,551,6,-1
234,-54,-259,950,572,1,-4
235,-38,-244,937,594,-1,-16
236,13,-233,931,611,3,-27
237,36,-234,929,627,9,-29
238,16,-251,947,648,11,-18
239,-18,-250,962,666,10,-8
240,-51,-237,960,683,4,-2
241,-51,-208,954,700,0,-9
242,-29,-194,953,712,2,-21
243,14,-203,936,724,6,-33
244,33,-205,934,739,9,-30
245,5,-224,950,754,10,-20
246,-23,-234,962,769,5,-10
247,-61,-228,957,788,1,-4
248,-39,-201,953,804,-2,-10
249,-12,-191,941,819,-1,-24
250,26,-203,932,835,4,-32
251,32,-199,934,852,8,-29
252,4,-203,949,868,10,-18
253,-28,-199,970,885,6,-9
254,-67,-178,975,898,2,-6
255,-48,-146,957,909,-2,-17
256,-8,-121,954,920,0,-32
257,20,-126,956,926,4,-41
258,28,-120,962,931,10,-36
259,2,-118,974,935,8,-24
260,-23,-115,998,939,3,-14
261,-49,-92,991,939,-1,-11
262,-28,-70,984,940,-3,-20
263,18,-49,975,936,0,-31
264,35,-71,977,933,8,-35
265,23,-77,967,936,9,-27
266,-9,-92,974,937,8,-19
267,-19,-96,977,951,0,-30
268,-30,-69,976,966,5,-47
269,-36,-84,980,966,13,-69
270,-21,-88,952,974,13,-85
271,-2,-89,940,986,12,-94
272,3,-112,950,999,11,-93
273,-23,-123,964,1010,13,-86
274,-59,-140,975,1020,9,-82
275,-55,-128,980,1034,1,-83
276,-27,-117,937,1045,0,-89
277,27,-121,918,1061,4,-97
278,47,-148,933,1085,10,-104
279,21,-172,934,1113,14,-104
280,-17,-185,921,1144,14,-105
281,-58,-199,910,1176,10,-110
282,-56,-186,896,1212,4,-123
283,-22,-198,890,1255,-2,-146
284,37,-211,866,1300,0,-172
285,-16,-36,907,1359,9,-196
286,-11,1779,1846,1137,-67,-167
287,13,521,719,306,-87,-142
288,147,-43,-119,329,-92,-228
289,3,-382,-176,422,-192,-245
290,1224,362,1480,501,-133,-224
291,803,539,1694,390,332,-358
292,-982,-126,1233,288,385,-156
293,-515,197,400,334,-50,268
294,-233,-192,800,374,-127,288
295,-193,562,1124,353,-1,111
296,-538,193,1371,217,97,-32
297,-301,-323,672,264,-48,-6
298,7,200,996,382,-113,54
299,334,206,1060,293,-49,1
300,106,-92,1049,236,12,-24
301,122,60,883,289,3,34
302,26,88,1200,284,11,8
303,-45,-82,892,254,35,-28
304,-143,-90,930,284,19,-20
305,5,-5,1052,294,-11,-27
306,-77,-59,1011,294,-7,-34
307,-1,-11,923,303,-8,-11
308,-54,10,1065,309,-15,-10
309,-21,-4,1005,306,-11,-1
310,-28,-42,981,310,-9,-6
311,81,-53,1026,327,-15,-17
312,49,-34,979,337,-8,-21
313,71,-35,1023,344,5,-24
314,-43,-32,996,354,11,-25
315,-70,-13,1021,363,8,-12
316,-111,-63,984,370,-2,-16
317,-55,-90,1018,388,-14,-20
318,19,-88,965,404,-23,-19
319,90,-101,1043,427,-18,-24
320,63,-86,991,444,-5,-22
321,16,-70,1035,464,8,-14
322,-62,-85,995,482,11,-14
323,-94,-105,1025,504,3,-15
324,-70,-145,980,530,-11,-20
325,5,-156,1026,565,-20,-29
326,55,-138,971,595,-18,-29
327,51,-124,1035,625,-6,-25
328,-3,-106,1013,649,3,-15
329,-76,-101,1020,675,5,-9
330,-74,-108,995,703,-6,-15
331,-52,-126,1011,732,-17,-24
332,30,-121,981,762,-23,-31
333,66,-93,1011,792,-17,-36
334,48,-52,1000,813,-4,-26
335,-22,-27,1015,830,3,-18
336,-82,-23,992,846,1,-15
337,-81,-21,994,858,-11,-20
338,-30,-24,973,875,-22,-28
339,20,-28,984,890,-25,-34
340,66,29,983,900,-20,-32
341,31,63,995,903,-7,-25
342,-17,87,999,904,0,-18
343,-81,84,989,898,-1,-13
344,-70,74,975,899,-11,-13
345,-31,82,960,898,-27,-23
346,37,72,976,897,-24,-30
347,57,104,960,894,-19,-31
348,44,138,993,886,-8,-21
349,-13,148,992,876,1,-11
350,-75,151,1003,866,0,-7
351,-61,132,955,857,-12,-13
352,0,120,963,852,-23,-29
353,52,138,954,846,-24,-38
354,75,163,989,834,-14,-37
355,42,183,982,818,2,-26
356,-39,202,982,807,9,-16
357,-77,206,977,791,0,-15
358,-66,169,965,775,-12,-27
359,-1,171,945,764,-20,-38
360,50,181,968,751,-21,-43
361,67,207,980,734,-12,-38
362,25,228,977,713,2,-25
363,-31,229,988,694,7,-16
364,-79,228,982,674,4,-13
365,-67,192,966,658,-11,-20
366,-3,169,947,647,-18,-35
367,53,178,959,637,-17,-41
368,55,190,978,625,-8,-33
369,19,202,1009,611,2,-20
370,-52,193,979,595,7,-7
371,-74,184,977,590,0,-9
372,-53,169,967,579,-13,-19
373,11,154,960,574,-20,-34
374,67,184,959,570,-17,-41
375,56,211,989,558,-6,-34
376,2,238,985,542,7,-18
377,-68,244,986,524,8,-6
378,-79,239,967,505,-1,-7
379,-47,231,957,490,-13,-16
380,20,213,949,474,-20,-28
381,64,248,968,456,-16,-26
382,48,280,965,435,-2,-14
383,-9,296,996,411,8,-1
384,-66,308,980,384,8,7
385,-64,277,962,358,-2,1
386,-14,270,946,335,-12,-14
387,35,264,952,314,-16,-22
388,75,286,960,292,-9,-19
389,42,320,981,264,5,-9
390,-14,327,987,233,13,3
391,-77,325,975,206,11,7
392,-68,295,956,178,0,1
393,-7,287,945,151,-11,-11
394,45,288,953,130,-15,-22
395,73,306,971,104,-6,-19
396,43,328,975,74,8,-7
397,-17,335,978,44,17,4
398,-68,337,979,13,12,6
399,-59,295,951,-16,3,-5
400,10,283,941,-39,-6,-16
401,65,286,958,-64,-4,-21
402,70,300,973,-89,7,-15
403,18,328,979,-117,18,-1
404,-47,328,982,-148,24,8
405,-80,310,969,-178,17,7
406,-61,271,955,-203,5,-1
407,3,253,951,-224,-3,-10
408,58,277,954,-245,-2,-10
409,48,286,974,-266,8,-6
410,1,307,990,-292,17,7
411,-60,303,975,-320,19,16
412,-64,279,969,-346,13,15
413,-41,247,954,-367,2,7
414,20,230,952,-383,-2,-4
415,67,245,963,-400,2,-4
416,51,261,977,-421,12,3
417,-10,274,986,-441,22,14
418,-68,264,989,-463,22,20
419,-72,229,964,-481,13,16
420,-29,210,953,-493,3,8
421,25,199,962,-505,-2,0
422,68,213,970,-522,5,1
423,36,241,974,-537,18,12
424,-22,248,998,-554,23,22
425,-76,229,985,-572,18,25
426,-61,184,963,-585,7,19
427,-7,163,957,-591,-2,8
428,49,151,970,-596,-1,2
429,78,158,981,-601,7,2
430,43,171,991,-610,21,9
431,-26,168,998,-618,27,17
432,-81,153,996,-620,19,19
433,-79,111,965,-623,7,9
434,-12,96,961,-618,-5,-6
435,40,104,970,-616,-7,-11
436,58,112,1003,-617,1,-7
437,13,137,994,-618,15,4
438,-41,134,1001,-620,20,13
439,-75,114,991,-622,11,13
440,-62,85,974,-619,1,5
441,11,72,965,-613,-7,-9
442,59,90,979,-608,-3,-13
443,60,113,991,-607,6,-7
444,12,138,1008,-612,18,3
445,-59,150,993,-619,21,10
446,-78,138,980,-624,14,10
447,-55,121,966,-628,1,-2
448,12,113,967,-632,-6,-11
449,73,149,969,-641,-3,-12
450,54,173,993,-652,10,-5
451,0,203,993,-667,20,7
452,-69,201,982,-689,22,15
453,-70,181,973,-708,12,11
454,-37,172,952,-724,2,4
455,27,155,958,-741,-2,-4
456,70,182,973,-758,3,-3
457,45,212,978,-780,17,9
458,-16,220,991,-803,26,18
459,-79,213,986,-829,23,24
460,-72,190,946,-855,12,22
461,-16,175,954,-872,1,10
462,38,179,960,-894,-2,5
463,79,201,969,-917,7,11
464,39,225,972,-945,21,18
465,-26,234,987,-977,28,28
466,-79,213,970,-1007,24,31
467,-64,171,950,-1033,14,26
468,-4,161,944,-1054,6,18
469,47,161,961,-1075,5,13
470,57,171,966,-1099,13,17
471,22,189,971,-1128,26,27
472,-43,179,975,-1154,29,33
473,-83,150,967,-1178,22,38
474,-61,114,941,-1198,11,32
475,6,99,953,-1211,3,20
476,61,113,961,-1227,4,15
477,62,114,978,-1245,16,17
478,14,135,974,-1265,24,23
479,-49,136,974,-1290,25,34
480,-81,108,940,-1313,19,38
481,-66,87,952,-1332,9,35
482,1,91,952,-1347,1,30
483,59,109,970,-1368,2,28
484,51,120,958,-1391,14,36
485,0,129,970,-1422,24,55
486,-164,-43,1025,-1459,26,80
487,-427,-1765,1873,-1160,-54,39
488,-77,-254,1218,-523,-180,4
489,64,26,27,-625,-121,-41
490,-26,146,-117,-649,-188,-118
491,1525,-801,1330,-637,-53,55
492,313,-922,1348,-436,331,67
493,-1131,-161,1025,-316,240,-87
494,-226,-259,356,-365,-48,-240
495,31,-636,1153,-268,-17,-173
496,-562,35,605,-187,60,-58
497,-265,-390,1203,-226,-33,-134
498,105,-220,993,-158,-67,-160
499,-194,10,878,-155,-11,-88
500,215,-67,905,-169,-56,-148
501,169,-239,1238,-129,-24,-100
502,158,203,881,-123,-7,-89
503,195,-48,1068,-182,13,-78
504,119,-23,990,-168,32,-34
505,-58,41,1072,-179,31,9
506,-6,59,1008,-210,13,23
507,-136,7,1076,-228,14,31
508,-91,135,960,-235,0,2
509,-40,20,1032,-262,-4,-15
510,3,88,1006,-263,-10,-21
511,16,31,1058,-291,-10,-9
512,41,58,1017,-304,-13,0
513,0,41,1051,-326,-1,11
514,3,79,1030,-340,-4,6
515,-3,53,1052,-364,0,5
516,27,84,1020,-383,1,5
517,33,79,1036,-410,7,7
518,10,67,1030,-429,10,15
519,-42,48,1049,-448,8,26
520,-62,65,1035,-470,1,26
521,-61,63,1040,-491,-3,16
522,-25,85,1026,-512,-4,3
523,23,62,1028,-534,-1,-5
524,54,63,1020,-551,3,-1
525,28,47,1036,-574,5,13
526,-12,35,1042,-594,3,27
527,-58,36,1031,-612,1,28
528,-51,52,1030,-632,-3,21
529,-18,55,1013,-651,-1,6
530,15,36,1018,-669,0,1
531,37,29,1016,-687,1,5
532,12,10,1019,-704,5,18
533,-17,-8,1032,-718,2,25
534,-52,-2,1030,-729,1,28
535,-34,6,1006,-744,-2,18
536,5,2,1005,-757,-1,8
537,17,-7,994,-767,4,4
538,27,-31,998,-779,6,9
539,-7,-54,999,-788,6,22
540,-45,-65,1017,-793,1,30
541,-68,-51,1000,-798,-3,25
542,-40,-65,991,-802,-6,14
543,13,-53,983,-804,-4,0
544,21,-73,973,-810,3,-1
545,32,-106,979,-811,4,3
546,-1,-120,985,-809,4,18
547,-37,-126,989,-803,1,25
548,-47,-112,993,-799,-4,23
549,-27,-112,964,-799,-8,13
550,16,-115,959,-794,-4,4
551,37,-128,968,-792,1,4
552,23,-165,970,-788,4,11
553,-21,-176,969,-776,4,23
554,-54,-185,969,-765,-2,28
555,-53,-176,966,-752,-8,25
556,-29,-177,956,-741,-10,13
557,18,-186,945,-731,-6,4
558,37,-204,932,-718,2,2
559,11,-235,942,-699,4,10
560,-29,-262,958,-678,0,17
561,-70,-265,949,-652,-4,18
562,-59,-251,934,-629,-10,11
563,-14,-254,926,-607,-13,2
564,29,-271,919,-581,-10,-3
565,46,-267,921,-553,-2,-2
566,13,-298,934,-530,5,2
567,-42,-320,941,-500,7,4
568,-94,-307,938,-466,0,3
569,-71,-288,923,-438,-8,-7
570,-16,-280,918,-407,-12,-20
571,20,-288,916,-378,-6,-28
572,43,-298,921,-353,-2,-27
573,16,-315,929,-321,3,-21
574,-29,-322,950,-289,4,-13
575,-61,-303,939,-261,-2,-11
576,-44,-299,929,-233,-6,-18
577,1,-274,914,-207,-8,-27
578,29,-290,918,-180,-4,-29
579,37,-304,924,-151,1,-25
580,2,-314,934,-123,4,-13
581,-38,-321,954,-93,1,-10
582,-63,-294,947,-63,-3,-9
583,-39,-288,932,-40,-7,-17
584,12,-271,913,-15,-7,-25
585,35,-274,926,10,-2,-27
586,30,-300,946,36,3,-22
587,-11,-301,940,63,4,-14
588,-45,-300,950,90,0,-7
589,-49,-281,952,112,-8,-7
590,-25,-271,935,139,-10,-14
591,32,-276,926,161,-7,-22
592,60,-283,919,184,1,-22
593,43,-318,926,213,7,-14
594,1,-332,944,246,9,-2
595,-46,-337,934,278,7,4
596,-43,-319,926,313,2,-2
597,-19,-316,913,343,2,-10
598,20,-319,895,379,5,-18
599,41,-322,897,413,11,-19
600,14,-345,919,448,15,-13
601,-26,-345,930,487,13,-7
602,-71,-323,928,523,9,-7
603,-56,-298,922,554,5,-16
604,-14,-265,914,586,3,-28
605,24,-268,917,613,8,-39
606,31,-259,924,639,14,-36
607,-6,-254,934,663,15,-28
608,-40,-245,963,686,8,-21
609,-67,-217,964,704,1,-19
610,-47,-175,952,723,-3,-27
611,8,-143,955,730,-2,-40
612,37,-143,963,739,5,-46
613,26,-140,963,745,11,-40
614,-4,-138,989,749,11,-27
615,-38,-129,995,752,5,-16
616,-60,-100,1002,753,1,-15
617,-28,-86,984,751,-3,-24
618,18,-73,971,747,1,-37
619,38,-76,978,745,7,-39
620,25,-102,993,741,13,-29
621,-8,-106,992,742,10,-15
622,-41,-101,998,742,4,-5
623,-44,-81,1001,739,-1,-8
624,-28,-77,981,740,0,-23
625,19,-76,966,739,5,-34
626,38,-82,971,736,10,-32
627,12,-103,982,740,11,-21
628,-12,-112,1001,744,8,-12
629,-57,-97,984,747,7,-9
630,-49,-81,978,751,3,-18
631,-12,-77,980,752,1,-31
632,25,-86,965,756,7,-39
633,42,-88,954,764,12,-41
634,3,-115,961,772,15,-38
635,-38,-140,938,806,12,-64
636,-63,-101,929,846,17,-110
637,-91,-138,938,873,30,-160
638,-106,-152,921,906,32,-211
639,-58,-164,888,945,27,-249
640,-16,-199,888,980,22,-261
641,-19,-205,921,1011,18,-251
642,-21,-243,992,1031,14,-238
643,-44,-234,965,1050,14,-225
644,-21,-204,910,1076,13,-220
645,19,-191,884,1106,16,-225
646,13,-208,890,1147,24,-239
647,-26,-207,888,1195,29,-258
648,-79,-209,884,1242,28,-281
649,-115,-213,884,1293,24,-309
650,-130,-197,872,1348,15,-343
651,-373,598,1185,1399,-8,-378
652,408,1629,1871,798,-215,-192
653,177,171,357,233,-108,-54
654,290,-106,28,321,-108,-116
655,41,59,131,334,-134,-67
656,523,-252,478,385,-74,-45
657,997,710,1696,418,160,-141
658,-338,511,1620,221,415,-53
659,-684,10,842,102,93,325
660,-86,-240,520,181,-50,496
661,-394,120,558,229,23,445
662,-436,548,1404,108,22,331
663,-447,-83,1141,13,-32,224
664,-83,-68,852,105,-76,269
665,94,78,945,176,-92,236
666,274,98,1239,165,-63,122
667,351,7,847,148,-27,51
668,321,-155,1118,188,13,24
669,38,57,987,218,44,26
670,-160,-87,1072,202,52,22
671,-224,-201,896,217,23,8
672,-214,-142,1035,269,-11,15
673,-63,-139,955,290,-34,7
674,38,-133,1096,318,-41,-8
675,107,-97,931,345,-29,8
676,67,-64,1094,361,-8,8
677,3,-73,974,372,3,1
678,-32,-85,1036,393,2,-4
679,30,-75,971,411,-9,-21
680,0,-77,1019,421,-1,-27
681,37,-31,961,439,-6,-20
682,-40,-12,1042,443,0,-18
683,-65,-2,981,448,-2,-9
684,-95,-1,1012,450,-8,-2
685,-32,-23,989,453,-18,-8
686,8,-25,988,461,-23,-10
687,93,-14,986,469,-19,-12
688,53,1,1009,473,-7,-11
689,26,20,994,474,5,-5
690,-66,4,1012,474,8,-5
691,-70,-22,1008,481,1,-5
692,-77,-62,980,493,-10,-8
693,18,-88,1011,510,-19,-15
694,40,-71,983,529,-16,-16
695,63,-78,1019,548,-6,-11
696,-4,-72,1017,568,1,-11
697,-56,-87,1024,588,5,-5
698,-70,-106,998,614,-4,-8
699,-40,-122,1017,647,-15,-17
700,15,-129,978,675,-20,-24
701,53,-101,1016,703,-15,-30
702,36,-69,992,725,-5,-26
703,-17,-57,1031,745,3,-19
704,-66,-48,1007,765,0,-17
705,-67,-59,1010,784,-9,-22
706,-13,-58,965,805,-19,-32
707,39,-48,993,826,-20,-45
708,78,0,974,841,-13,-45
709,46,38,999,846,1,-38
710,-8,62,1000,848,9,-28
711,-81,73,1013,850,7,-20
712,-79,61,974,848,-6,-24
713,-29,50,952,852,-17,-36
714,35,74,966,853,-21,-42
715,49,97,987,848,-13,-35
716,24,129,992,838,2,-22
717,-47,144,994,829,6,-12
718,-74,143,992,819,-2,-6
719,-61,120,959,812,-16,-18
720,9,106,961,805,-22,-32
721,65,130,962,798,-20,-34
722,68,146,988,785,-8,-28
723,16,171,988,774,6,-20
724,-54,183,994,762,8,-10
725,-71,171,981,750,-2,-8
726,-56,149,967,739,-12,-18
727,8,135,951,730,-20,-31
728,58,160,963,720,-20,-34
729,57,188,980,706,-6,-25
730,0,205,1002,690,6,-12
731,-71,208,992,674,7,-3
732,-74,190,977,658,-5,-5
733,-36,177,943,646,-16,-17
734,25,164,955,633,-21,-31
735,66,196,964,620,-16,-32
736,49,231,986,600,-1,-22
737,-9,252,991,580,8,-9
738,-69,263,986,557,4,-1
739,-68,247,950,532,-5,-7
740,-16,249,959,509,-16,-21
741,33,249,948,487,-19,-29
742,67,273,977,462,-10,-26
743,36,309,964,431,3,-12
744,-24,321,983,399,12,5
745,-76,332,979,367,7,12
746,-71,304,964,330,-3,5
747,-3,292,934,299,-16,-11
748,55,293,951,270,-16,-18
749,72,311,965,239,-7,-13
750,32,340,978,202,9,0
751,-38,348,980,163,16,12
752,-72,349,970,126,10,15
753,-57,316,960,92,-2,4
754,4,300,944,59,-11,-9
755,61,323,936,28,-13,-14
756,60,345,974,-10,0,-6
757,8,365,983,-51,13,11
758,-59,363,976,-93,19,24
759,-61,341,966,-133,11,23
760,-33,314,948,-168,0,14
761,26,285,943,-197,-6,2
762,68,301,954,-228,-3,-1
763,51,317,968,-259,9,4
764,-1,325,993,-292,19,16
765,-61,307,990,-330,21,25
766,-66,262,959,-358,15,22
767,-19,240,953,-381,2,10
768,28,224,960,-400,-2,-1
769,61,229,967,-419,3,-5
770,38,246,977,-441,15,3
771,-25,250,995,-460,23,15
772,-70,238,996,-482,20,23
773,-72,196,966,-501,9,16
774,-17,180,947,-514,-2,4
775,49,185,963,-524,-3,-4
776,66,191,990,-539,6,-2
777,29,212,974,-554,17,7
778,-34,216,999,-568,23,16
779,-66,201,986,-586,15,16
780,-63,164,970,-597,5,7
781,6,147,958,-606,-3,-8
782,57,156,968,-615,-1,-14
783,63,169,974,-624,12,-7
784,7,195,1004,-637,23,4
785,-68,195,991,-653,25,13
786,-86,169,977,-668,13,11
787,-51,141,967,-677,-1,-2
788,13,128,956,-682,-7,-12
789,75,143,971,-693,-2,-15
790,63,163,976,-705,14,-6
791,4,186,1001,-719,24,5
792,-64,179,997,-735,23,13
793,-76,156,978,-749,12,8
794,-30,134,945,-758,-3,-4
795,19,124,965,-767,-6,-14
796,64,153,959,-780,-1,-12
797,35,183,991,-795,14,-1
798,-19,197,995,-817,22,11
799,-83,186,993,-838,18,20
800,-67,158,952,-853,6,15
801,-11,144,957,-870,-6,4
802,49,148,960,-885,-4,0
803,58,160,975,-903,6,4
804,25,192,973,-927,19,16
805,-46,196,990,-949,23,27
806,-81,178,980,-975,17,33
807,-72,147,950,-993,6,28
808,-1,133,954,-1009,-3,18
809,60,150,963,-1029,0,15
810,58,152,966,-1050,11,22
811,16,173,982,-1072,21,33
812,-53,165,986,-1098,25,43
813,-64,132,962,-1122,18,48
814,-21,97,957,-1147,9,57
815,37,63,944,-1170,10,75
816,58,98,952,-1190,21,99
817,16,121,977,-1214,32,122
818,-32,117,980,-1244,35,146
819,-91,87,967,-1270,32,175
820,-79,60,958,-1291,23,196
821,-47,37,952,-1305,13,199
822,8,12,972,-1307,10,192
823,41,24,969,-1308,12,181
824,35,30,989,-1308,19,173
825,-9,13,991,-1315,23,176
826,-51,-19,976,-1321,23,187
827,-72,-179,1025,-1322,18,198
828,-409,-1767,1872,-1033,-39,99
829,-1,-345,1334,-440,-180,-3
830,65,-157,276,-578,-118,52
831,-74,-264,183,-582,-150,64
832,680,-739,857,-436,-46,162
833,521,-686,946,-196,140,52
834,-244,-283,806,-103,226,108
835,-422,-464,944,-108,90,30
836,-111,-505,1376,-45,-20,-61
837,-232,-17,526,-45,14,-54
838,-165,-352,793,-35,5,-64
839,-54,-322,934,90,-22,-87
840,-88,-189,1111,138,-25,-75
841,158,-63,904,122,-31,-115
842,134,-186,1001,142,4,-103
843,128,-26,846,177,16,-97
844,73,-107,1050,190,24,-68
845,11,-27,997,203,24,-53
846,-122,13,1062,191,24,-43
847,-77,57,980,175,7,-53
848,-81,55,1056,162,2,-56
849,1,127,979,144,-7,-59
850,44,61,1073,116,-6,-53
851,45,110,1037,99,-2,-37
852,6,77,1084,71,0,-17
853,6,132,1046,42,-2,-3
854,-11,116,1060,11,2,3
855,42,175,1036,-15,3,-4
856,31,142,1063,-49,10,-2
857,9,149,1055,-77,11,5
858,-30,163,1063,-113,8,18
859,-68,159,1075,-147,3,21
860,-79,195,1073,-180,-2,14
861,-42,187,1065,-220,-3,-2
862,4,192,1060,-256,-4,-12
863,44,195,1060,-296,-2,-10
864,32,150,1078,-337,0,4
865,1,154,1064,-368,-2,19
866,-49,141,1071,-403,-1,25
867,-51,144,1050,-436,-3,15
868,-44,139,1049,-466,-2,4
869,-2,127,1034,-494,-4,-6
870,12,105,1039,-523,-3,-5
871,9,88,1038,-545,-3,2
872,-24,77,1053,-569,-5,13
873,-48,93,1039,-591,-7,11
874,-36,98,1054,-615,-9,1
875,-4,113,1031,-641,-8,-10
876,29,88,1028,-668,-5,-15
877,50,88,1031,-688,-1,-9
878,19,84,1028,-713,0,8
879,-18,65,1058,-734,-2,17
880,-50,86,1047,-759,-4,15
881,-44,89,1024,-785,-5,7
882,1,86,1020,-809,-6,-7
883,15,70,1023,-832,-2,-9
884,37,58,1018,-852,0,-4
885,2,45,1033,-872,2,10
886,-27,46,1038,-895,-1,16
887,-56,55,1048,-914,-4,15
888,-32,66,1024,-939,-8,3
889,-1,70,1013,-961,-7,-5
890,34,67,1008,-985,-3,-7
891,24,27,1030,-1010,0,4
892,-16,21,1019,-1028,0,18
893,-48,8,1038,-1047,-6,21
894,-48,24,1017,-1068,-12,19
895,-25,28,1012,-1087,-13,9
896,17,10,993,-1107,-10,0
897,49,-8,993,-1122,-3,0
898,28,-40,995,-1135,3,10
899,-6,-72,1002,-1147,1,22
900,-58,-75,1003,-1151,-3,27
901,-46,-65,985,-1158,-9,25
902,-15,-78,976,-1165,-11,16
903,14,-91,953,-1166,-8,9
904,40,-116,956,-1169,-4,6
905,6,-150,962,-1166,1,15
906,-33,-169,973,-1156,0,20
907,-71,-171,974,-1151,-7,26
908,-45,-167,954,-1143,-16,20
909,5,-150,946,-1138,-16,10
910,37,-171,930,-1130,-9,3
911,44,-197,935,-1119,2,3
912,3,-223,943,-1105,7,10
913,-39,-236,961,-1087,3,17
914,-72,-220,956,-1071,-7,19
915,-49,-224,938,-1060,-14,11
916,1,-210,926,-1046,-14,2
917,32,-218,919,-1031,-6,-2
918,31,-254,928,-1017,0,0
919,-5,-298,935,-994,4,7
920,-50,-301,948,-969,-2,12
921,-65,-296,928,-948,-11,13
922,-27,-296,922,-926,-17,7
923,12,-302,898,-903,-14,2
924,49,-325,884,-874,-6,1
925,35,-374,900,-840,0,5
926,-10,-412,907,-806,3,12
927,-67,-432,914,-761,-2,17
928,-59,-420,889,-717,-12,17
929,-26,-431,866,-674,-18,15
930,15,-457,838,-618,-16,19
931,40,-474,842,-562,-13,32
932,25,-501,855,-505,-9,49
933,-10,-533,892,-442,-11,60
934,-47,-522,883,-385,-16,66
935,-40,-512,859,-323,-23,64
936,3,-483,843,-266,-26,61
937,27,-490,844,-210,-22,63
938,40,-500,856,-154,-15,62
939,13,-521,880,-101,-6,58
940,-44,-532,890,-43,-3,48
941,-67,-516,879,12,-6,35
942,-64,-521,863,70,-11,20
943,-19,-482,831,127,-12,7
944,30,-505,848,182,-9,-4
945,42,-516,856,239,-2,-11
946,8,-544,869,299,8,-14
947,-31,-553,865,363,8,-15
948,-47,-530,863,429,2,-14
949,-25,-504,849,489,-3,-16
950,27,-497,845,546,-4,-18
951,60,-486,832,606,4,-18
952,37,-507,860,664,14,-15
953,-5,-507,867,724,19,-11
954,-65,-498,881,784,15,-9
955,-66,-455,878,840,5,-12
956,-33,-413,865,888,0,-19
957,23,-408,858,934,1,-28
958,42,-396,867,981,10,-29
959,9,-390,870,1025,18,-25
960,-19,-392,919,1071,17,-24
961,-64,-353,920,1110,10,-20
962,-48,-297,902,1141,3,-23
963,5,-255,904,1165,0,-33
964,43,-238,904,1186,9,-39
965,40,-226,926,1207,19,-35
966,6,-228,944,1223,22,-26
967,-43,-207,966,1239,18,-17
968,-67,-158,976,1250,9,-11
969,-49,-132,959,1250,4,-17
970,4,-107,941,1255,6,-25
971,20,-86,946,1250,13,-34
972,33,-112,956,1245,14,-30
973,17,-139,989,1245,11,-16
974,-25,-119,980,1248,7,-2
975,-22,-83,986,1249,2,2
976,-4,-65,977,1242,4,-8
977,30,-74,967,1236,13,-20
978,30,-75,954,1236,21,-21
979,-18,-91,970,1232,24,-11
980,-50,-105,987,1234,16,-3
981,-86,-89,986,1235,6,3
982,-58,-51,971,1233,-3,-7
983,-3,-52,964,1227,-3,-24
984,32,-69,964,1229,7,-33
985,25,-69,961,1230,14,-31
986,-8,-77,975,1230,13,-22
987,-42,-90,988,1232,5,-12
988,-65,-69,982,1234,0,-7
989,-38,-42,961,1235,-4,-18
990,13,-42,960,1232,1,-35
991,38,-58,964,1237,9,-44
992,16,-69,957,1241,16,-37
993,-13,-97,951,1251,10,-33
994,-26,-71,955,1271,5,-39
995,-41,-74,973,1278,8,-50
996,-50,-72,958,1285,8,-66
997,-5,-70,928,1298,7,-80
998,31,-79,924,1315,10,-91
999,1,-96,929,1334,14,-91
1000,-18,-109,951,1355,12,-93
1001,-55,313,1121,1395,10,-99
1002,-108,1833,1913,976,-43,-77
1003,-476,498,463,297,-109,-117
1004,-166,-37,-71,298,-250,-220
1005,-183,-37,212,407,-412,-208
1006,1065,437,1636,431,-314,-192
1007,482,360,1148,282,106,-330
1008,0,-410,475,270,266,-249
1009,222,36,661,332,178,-54
1010,589,90,1555,371,235,60
1011,-484,639,1329,314,303,138
1012,-618,84,996,154,82,220
1013,-344,-330,361,193,-48,253
1014,-249,248,1244,270,-38,262
1015,-266,290,1177,185,-7,147
1016,-185,-265,995,158,-46,93
1017,187,-189,775,265,-97,132
1018,316,-12,1279,328,-37,138
1019,186,-34,963,308,19,146
1020,-8,-142,980,346,29,162
1021,-5,0,969,373,17,160
1022,-205,-32,1111,358,21,132
1023,-155,-139,871,355,-5,103
1024,-70,-133,1037,393,-37,92
1025,69,-53,1014,422,-39,93
1026,26,-36,1028,431,-20,104
1027,67,-43,973,444,-15,122
1028,-50,-8,1032,462,-6,140
1029,-19,1,1009,462,-4,155
1030,-62,-43,1003,476,-11,155
1031,34,-32,993,494,-20,171
1032,41,0,982,506,-17,196
1033,53,22,1006,509,-1,229
1034,-54,51,983,508,12,250
1035,-83,34,1030,500,10,262
1036,-92,-11,980,508,-7,265
1037,8,-47,1016,526,-19,283
1038,71,-38,969,550,-24,314
1039,118,-3,1014,567,-5,358
1040,51,47,963,566,21,386
1041,-41,65,1022,555,37,390
1042,-132,33,984,539,30,362
1043,-116,-49,1023,542,8,327
1044,-20,-110,969,565,-16,309
1045,68,-112,1021,600,-21,324
1046,109,-86,987,628,-6,352
1047,63,-64,1017,650,18,373
1048,-21,-52,996,665,35,375
1049,-92,-70,1032,678,31,360
1050,-85,-133,1006,705,11,328
1051,-12,-172,1007,745,-8,307
1052,72,-148,986,788,-12,305
1053,64,-125,1008,819,3,309
1054,25,-94,997,842,21,308
1055,-67,-96,1027,864,27,290
1056,-76,-127,1023,891,14,262
1057,-47,-172,1003,929,-5,229
1058,37,-187,993,980,-16,204
1059,89,-152,995,1022,-15,194
1060,75,-105,978,1055,4,190
1061,6,-58,1011,1078,19,171
1062,-76,-34,1012,1091,21,138
1063,-107,-37,996,1109,3,93
1064,-45,-41,974,1129,-25,47
1065,21,-14,974,1153,-38,11
1066,69,45,966,1165,-33,-7
1067,63,76,956,1161,-17,-16
1068,18,105,976,1160,-3,-23
1069,-28,121,995,1157,-4,-26
1070,-38,115,999,1158,-15,-36
1071,0,109,959,1160,-27,-49
1072,48,115,940,1161,-26,-57
1073,54,139,930,1157,-16,-54
1074,33,162,967,1145,4,-41
1075,-34,180,990,1135,10,-28
1076,-79,185,1003,1126,4,-16
1077,-75,170,972,1122,-17,-23
1078,-8,145,942,1120,-32,-42
1079,55,148,930,1115,-29,-50
1080,71,171,939,1104,-12,-45
1081,33,184,978,1097,4,-32
1082,-36,195,1001,1090,11,-17
1083,-59,193,991,1085,1,-12
1084,-32,166,952,1083,-15,-27
1085,12,147,942,1082,-20,-45
1086,48,171,921,1079,-14,-50
1087,34,207,959,1069,-1,-41
1088,-21,254,979,1058,9,-31
1089,-72,272,999,1045,2,-23
1090,-70,261,967,1031,-13,-27
1091,-14,252,928,1018,-24,-40
1092,47,268,925,1000,-26,-49
1093,64,290,938,977,-14,-46
1094,45,316,949,951,1,-35
1095,-20,325,973,927,9,-22
1096,-48,341,976,905,5,-14
1097,-52,312,963,883,-7,-18
1098,2,285,920,860,-15,-31
1099,50,283,917,844,-14,-38
1100,52,299,939,822,0,-29
1101,10,319,969,799,12,-16
1102,-61,321,986,780,13,-7
1103,-72,315,971,760,0,-11
1104,-27,280,944,746,-14,-25
1105,29,255,932,734,-19,-42
1106,56,444,1067,718,-14,-41
1107,-52,638,1124,642,-11,-33
1108,-203,475,898,557,-32,-66
1109,-245,419,857,531,-81,-124
1110,-225,469,978,498,-138,-147
1111,-186,440,951,439,-183,-149
1112,-177,357,862,401,-226,-160
1113,-67,406,896,382,-265,-176
1114,110,574,1087,338,-267,-188
1115,145,459,957,254,-226,-181
1116,146,308,807,213,-187,-165
1117,261,403,939,207,-154,-158
1118,292,449,973,165,-100,-147
1119,263,387,846,115,-35,-134
1120,235,413,860,90,17,-125
1121,209,504,934,46,68,-103
1122,102,504,919,-20,116,-73
1123,-11,482,885,-80,132,-35
1124,-78,514,896,-132,117,-5
1125,-103,542,917,-193,90,6
1126,-109,534,883,-260,58,12
1127,-91,534,872,-324,23,23
1128,-47,516,935,-380,7,19
1129,-25,486,937,-418,14,-2
1130,35,430,948,-430,28,-35
1131,128,438,964,-438,37,-57
1132,193,362,931,-475,61,-58
1133,242,316,890,-499,106,-50
1134,268,357,937,-521,163,-26
1135,197,427,987,-554,227,2
1136,-153,517,1102,-605,251,29
1137,-507,371,993,-647,169,27
1138,-481,359,1014,-638,36,-10
1139,-279,327,935,-655,-32,-61
1140,-131,241,845,-698,-39,-64
1141,-19,258,889,-722,-37,-16
1142,27,356,1035,-741,-31,31
1143,74,391,1060,-769,-23,45
1144,101,303,975,-793,-13,28
1145,142,235,896,-803,2,11
1146,133,237,919,-815,25,17
1147,67,272,943,-835,51,30
1148,-79,299,990,-854,61,37
1149,-181,290,983,-874,38,34
1150,-170,259,958,-882,-1,19
1151,-53,229,934,-889,-28,-3
1152,41,206,936,-902,-31,-9
1153,118,224,935,-914,-16,3
1154,96,259,975,-928,8,20
1155,36,282,993,-943,26,34
1156,-35,262,998,-963,28,39
1157,-47,215,945,-972,19,27
1158,-18,190,935,-978,11,12
1159,38,194,936,-988,10,8
1160,26,204,947,-999,17,13
1161,-10,224,977,-1015,27,24
1162,-69,227,988,-1027,25,31
1163,-76,211,981,-1039,11,34
1164,-33,166,957,-1046,0,22
1165,32,141,945,-1046,-2,11
1166,76,158,947,-1051,6,12
1167,58,182,966,-1062,22,23
1168,-18,198,982,-1072,32,35
1169,-84,200,998,-1087,30,42
1170,-98,167,963,-1093,14,38
1171,-36,138,958,-1095,0,25
1172,20,125,944,-1094,-3,21
1173,67,145,959,-1099,7,31
1174,45,159,964,-1111,24,49
1175,-13,176,991,-1118,36,68
1176,-65,160,990,-1129,33,82
1177,-60,112,971,-1132,20,86
1178,-11,87,951,-1124,13,89
1179,54,99,957,-1116,16,102
1180,52,116,962,-1118,28,122
1181,8,133,974,-1128,43,138
1182,-66,143,989,-1142,47,144
1183,-95,109,979,-1151,33,144
1184,-60,66,967,-1152,19,142
1185,4,43,950,-1139,10,144
1186,63,79,962,-1133,15,153
1187,54,113,975,-1137,30,163
1188,1,121,986,-1151,40,170
1189,-48,130,1015,-1178,42,180
1190,-62,66,943,-1211,38,201
1191,-39,37,931,-1226,34,211
1192,-32,64,946,-1228,32,210
1193,-7,115,985,-1245,29,201
1194,-5,108,974,-1272,27,190
1195,-20,79,971,-1287,28,189
1196,-31,69,966,-1300,24,198
1197,-19,42,977,-1305,21,202
1198,19,38,961,-1304,18,193
1199,54,51,973,-1302,22,181
1200,45,58,960,-1305,31,172
1201,6,67,985,-1317,36,174
1202,-55,48,974,-1329,37,186
1203,-71,33,965,-1337,28,197
1204,-46,15,958,-1343,18,195
1205,-3,10,964,-1341,13,184
1206,41,46,968,-1341,15,169
1207,33,46,987,-1347,23,161
1208,-11,49,980,-1352,28,164
1209,-60,40,975,-1367,26,176
1210,-38,-35,983,-1380,20,183
1211,-395,-1694,1834,-1139,-14,99
1212,-152,-344,1398,-494,-161,-52
1213,-97,72,317,-623,-121,-99
1214,-159,-57,251,-672,-181,-193
1215,650,-531,1037,-628,-69,-60
1216,470,-561,1006,-470,142,-129
1217,-225,-125,822,-383,222,-135
1218,-293,-417,758,-396,124,-174
1219,-170,-576,1329,-261,1,-180
1220,-171,143,588,-213,-27,-131
1221,45,-145,964,-283,-22,-130
1222,28,-357,1076,-243,2,-142
1223,-119,-113,1066,-183,-14,-125
1224,175,79,902,-208,-44,-145
1225,149,-109,1105,-237,6,-143
1226,60,-6,913,-236,39,-138
1227,25,-138,1050,-232,27,-121
1228,-4,-40,932,-207,14,-73
1229,-87,-11,995,-213,5,-26
1230,33,-8,1020,-216,-12,-18
1231,34,-2,1076,-228,-5,-14
1232,72,70,966,-244,2,-15
1233,66,-30,1021,-264,7,-11
1234,14,-25,982,-258,14,3
1235,-86,-13,1019,-258,9,22
1236,-63,22,1033,-266,-6,21
1237,-47,27,1030,-282,-6,10
1238,13,60,1003,-292,-3,-8
1239,50,53,1014,-309,4,-12
1240,27,33,1032,-325,8,1
1241,-19,41,1050,-342,5,17
1242,-48,65,1042,-362,1,23
1243,-51,77,1040,-384,-2,16
1244,-19,100,1033,-406,-3,4
1245,16,84,1029,-431,0,-3
1246,39,84,1040,-454,3,3
1247,0,75,1036,-478,4,15
1248,-45,59,1058,-502,0,25
1249,-69,71,1051,-526,-5,22
1250,-45,76,1035,-548,-9,13
1251,2,81,1026,-573,-9,3
1252,32,66,1026,-596,-3,1
1253,35,47,1030,-617,0,6
1254,-2,30,1027,-639,2,19
1255,-47,12,1034,-653,-1,25
1256,-54,36,1039,-671,-9,24
1257,-43,35,1014,-691,-13,12
1258,23,31,1016,-708,-10,1
1259,43,20,1006,-728,-2,0
1260,18,2,1009,-741,2,9
1261,-23,-26,1027,-754,0,19
1262,-52,-23,1027,-764,-5,22
1263,-62,10,1016,-778,-11,19
1264,-19,-3,1003,-797,-15,6
1265,27,-12,996,-806,-10,-5
1266,39,-14,994,-817,-1,0
1267,2,-46,995,-831,1,9
1268,-31,-58,1028,-834,-3,17
1269,-67,-44,1014,-845,-9,18
1270,-51,-45,1000,-856,-13,12
1271,9,-36,985,-864,-16,-1
1272,35,-60,981,-871,-8,-2
1273,43,-79,976,-875,-3,2
1274,-2,-126,978,-879,1,15
1275,-33,-140,995,-870,-3,18
1276,-67,-125,991,-870,-10,20
1277,-42,-130,962,-871,-15,12
1278,10,-146,956,-864,-16,2
1279,47,-161,935,-857,-8,2
1280,24,-197,943,-846,-1,8
1281,-11,-241,964,-828,2,15
1282,-60,-250,962,-803,-3,16
1283,-65,-230,943,-786,-12,15
1284,-19,-246,925,-766,-17,6
1285,30,-258,914,-740,-13,0
1286,56,-275,906,-716,-4,1
1287,22,-324,908,-686,6,5
1288,-24,-357,939,-647,5,7
1289,-69,-348,929,-608,-2,8
1290,-63,-352,907,-570,-12,2
1291,-1,-340,894,-534,-17,-7
1292,31,-343,876,-492,-8,-11
1293,43,-379,889,-454,1,-12
1294,11,-406,899,-407,9,-9
1295,-39,-404,918,-357,9,-4
1296,-57,-385,918,-314,-1,-7
1297,-37,-371,906,-272,-7,-10
1298,22,-356,885,-235,-9,-14
1299,58,-366,873,-191,1,-14
1300,49,-382,894,-146,9,-9
1301,3,-411,916,-103,17,-3
1302,-51,-406,926,-56,13,1
1303,-64,-379,910,-14,4,-1
1304,-23,-373,895,25,-2,-9
1305,19,-366,876,68,-1,-16
1306,24,-387,882,109,7,-13
1307,8,-402,893,158,12,-14
1308,-45,-416,927,205,11,-7
1309,-72,-394,915,252,3,-8
1310,-51,-380,907,293,-4,-14
1311,15,-349,873,336,-7,-22
1312,54,-362,886,378,1,-23
1313,54,-385,889,422,11,-20
1314,4,-406,906,470,17,-12
1315,-47,-398,907,515,14,-8
1316,-57,-380,913,560,8,-8
1317,-31,-354,898,602,1,-16
1318,20,-345,878,640,2,-21
1319,55,-346,878,683,12,-25
1320,25,-352,901,727,20,-21
1321,-30,-355,918,768,19,-15
1322,-74,-336,928,810,13,-15
1323,-67,-290,918,844,5,-19
1324,-18,-259,904,875,0,-29
1325,32,-265,906,902,5,-36
1326,39,-269,906,933,14,-35
1327,2,-274,926,963,17,-25
1328,-26,-278,943,994,14,-20
1329,-57,-256,950,1023,8,-17
1330,-38,-217,915,1045,3,-24
1331,16,-217,905,1066,3,-32
1332,54,-213,909,1094,11,-36
1333,26,-235,923,1118,20,-28
1334,-9,-242,940,1148,19,-19
1335,-62,-232,937,1173,15,-13
1336,-53,-183,929,1201,6,-17
1337,-24,-168,927,1218,4,-28
1338,21,-169,915,1238,10,-38
1339,42,-164,919,1262,16,-42
1340,9,-180,934,1280,20,-32
1341,-34,-178,944,1305,16,-26
1342,-79,-176,916,1337,7,-41
1343,-20,-121,897,1376,4,-84
1344,14,-112,901,1400,19,-123
1345,-5,-159,923,1427,32,-159
1346,-22,-148,893,1461,29,-181
1347,-43,-156,907,1495,22,-192
1348,-68,-140,914,1521,17,-196
1349,-86,-126,949,1542,9,-200
1350,-51,-91,936,1559,2,-212
1351,23,-56,926,1568,0,-227
1352,77,-74,936,1577,8,-237
1353,-26,891,1381,1577,15,-222
1354,-74,1650,1754,781,-96,-148
1355,-407,575,-9,204,-122,-243
1356,-23,-203,-152,153,-269,-361
1357,-143,98,271,205,-338,-290
1358,674,-138,799,205,-304,-218
1359,989,593,1811,237,12,-324
1360,482,264,680,131,391,-369
1361,144,-111,481,45,419,-293
1362,-421,441,1541,89,360,-122
1363,-997,518,1571,12,95,232
1364,-262,84,532,-35,-113,426
1365,-19,-152,392,15,-148,404
1366,477,678,1469,33,-23,306
1367,-193,348,1330,-103,141,108
1368,-360,-299,773,-102,22,184
1369,-45,152,685,-18,-62,297
1370,-75,176,1384,-59,10,177
1371,-193,-119,809,-129,12,107
1372,154,-174,942,-79,-42,171
1373,193,-32,1126,-23,-17,143
1374,-57,-34,1094,-40,27,126
1375,25,-201,832,-41,0,142
1376,-18,-207,1159,16,1,131
1377,-103,-126,955,47,11,121
1378,-6,-254,1044,75,-9,96
1379,65,-267,988,142,-15,60
1380,-22,-172,1074,203,0,48
1381,22,-238,1009,230,-4,29
1382,-49,-316,1075,292,-4,12
1383,-20,-288,977,357,-9,4
1384,40,-341,1073,413,-15,-24
1385,80,-363,996,480,-9,-37
1386,38,-317,1049,545,7,-32
1387,-14,-327,1038,600,14,-33
1388,-128,-329,1035,666,7,-35
1389,-95,-319,999,727,-9,-39
1390,-64,-342,1045,791,-23,-54
1391,31,-297,996,852,-27,-56
1392,63,-233,1015,904,-22,-57
1393,36,-175,1015,947,-9,-54
1394,-57,-120,1004,979,-4,-45
1395,-100,-100,1005,1002,-8,-42
1396,-105,-101,998,1024,-21,-43
1397,-15,-82,974,1046,-31,-41
1398,55,-78,986,1066,-32,-46
1399,91,-35,985,1080,-19,-39
1400,36,0,982,1088,-5,-27
1401,-23,6,1007,1093,4,-21
1402,-85,0,1000,1104,-2,-18
1403,-63,-27,971,1112,-13,-21
1404,8,-52,965,1132,-22,-33
1405,59,-41,979,1147,-22,-34
1406,59,-21,983,1159,-9,-28
1407,20,-11,998,1171,2,-21
1408,-68,-5,994,1182,3,-15
1409,-76,-7,992,1196,-4,-18
1410,-53,-49,978,1216,-18,-34
1411,22,-46,962,1240,-28,-46
1412,75,-27,962,1260,-22,-50
1413,50,6,992,1273,-10,-46
1414,-14,33,992,1285,1,-35
1415,-79,29,996,1297,0,-32
1416,-79,31,972,1309,-13,-39
1417,-27,15,958,1327,-25,-52
1418,32,16,956,1346,-30,-68
1419,57,58,964,1362,-25,-76
1420,37,98,970,1362,-11,-68
1421,-19,120,974,1359,-4,-56
1422,-85,124,981,1363,-5,-54
1423,-102,129,942,1372,-19,-75
1424,-44,122,940,1388,-36,-119
1425,25,131,940,1404,-47,-161
1426,49,164,957,1410,-44,-179
1427,42,204,960,1402,-36,-178
1428,-24,217,962,1382,-28,-162
1429,-33,242,950,1364,-29,-147
1430,-35,229,946,1346,-35,-150
1431,11,231,917,1333,-40,-164
1432,46,263,934,1319,-37,-178
1433,40,298,942,1298,-29,-175
1434,-3,328,961,1265,-23,-157
1435,-53,331,953,1228,-21,-138
1436,-69,338,938,1196,-28,-129
1437,-22,337,919,1165,-38,-138
1438,22,321,925,1138,-42,-152
1439,54,364,931,1113,-38,-154
1440,47,388,954,1068,-26,-138
1441,-3,408,956,1023,-15,-115
1442,-51,414,958,973,-12,-90
1443,-60,402,927,931,-17,-82
1444,-14,393,912,893,-26,-97
1445,31,408,912,859,-28,-107
1446,46,451,942,816,-24,-102
1447,24,472,967,760,-13,-82
1448,-34,486,949,699,-4,-54
1449,-50,492,940,638,-4,-30
1450,-29,480,923,579,-10,-24
1451,15,472,911,531,-16,-30
1452,53,506,929,478,-13,-28
1453,49,651,1055,410,2,-14
1454,-15,623,975,317,15,6
1455,-63,544,847,254,17,15
1456,-43,545,870,196,2,5
1457,25,539,928,129,-11,1
1458,65,524,915,67,-8,0
1459,77,513,906,9,3,-1
1460,53,534,907,-49,22,8
1461,-10,531,950,-111,37,25
1462,-66,492,923,-173,36,38
1463,-86,416,901,-217,20,39
1464,-29,394,918,-247,3,26
1465,20,403,952,-277,-1,10
1466,41,389,965,-313,6,4
1467,3,424,1006,-348,15,16
1468,-50,429,1010,-390,16,27
1469,-60,379,944,-429,13,20
1470,-18,335,914,-452,4,8
1471,43,340,928,-477,-2,-1
1472,75,361,959,-509,7,4
1473,31,377,950,-542,23,13
1474,-44,394,975,-578,27,24
1475,-83,390,961,-608,18,26
1476,-67,350,955,-639,5,16
1477,0,328,914,-666,-3,5
1478,58,322,939,-689,-1,1
1479,70,345,944,-718,8,13
1480,10,366,970,-749,22,26
1481,-42,365,967,-787,24,32
1482,-74,341,963,-814,18,32
1483,-41,298,932,-840,4,24
1484,17,270,938,-858,-2,14
1485,72,284,934,-876,4,13
1486,44,298,956,-900,18,24
1487,-17,300,974,-925,27,38
1488,-82,281,985,-950,23,47
1489,-74,240,964,-971,12,51
1490,-12,199,935,-979,2,46
1491,28,177,946,-983,3,40
1492,63,197,955,-988,10,41
1493,31,218,979,-999,22,46
1494,0,212,998,-1018,26,59
1495,-19,199,991,-1040,22,86
1496,6,147,948,-1063,21,115
1497,33,148,932,-1063,27,122
1498,43,184,958,-1065,36,118
1499,15,194,974,-1072,42,109
1500,-17,192,991,-1083,44,109
1501,-76,169,976,-1095,42,120
1502,-80,155,956,-1102,32,129
1503,-47,109,957,-1106,22,127
1504,-3,93,943,-1095,17,117
1505,40,121,975,-1084,18,104
1506,28,130,982,-1083,26,95
1507,-13,125,999,-1089,33,100
1508,-51,97,986,-1101,33,116
1509,-42,58,963,-1103,26,133
1510,0,43,961,-1096,20,143
1511,29,53,962,-1085,23,146
1512,39,76,989,-1077,32,145
1513,6,93,996,-1080,42,148
1514,-38,69,988,-1089,45,157
1515,-66,39,989,-1092,40,174
1516,-57,19,956,-1086,32,183
1517,-18,11,976,-1074,25,180
1518,24,32,967,-1058,26,166
1519,10,43,989,-1047,31,156
1520,-17,53,1003,-1043,34,157
1521,-70,38,997,-1039,32,162
1522,-55,26,986,-1036,24,165
1523,-27,3,960,-1024,17,156
1524,16,4,973,-1006,14,135
1525,36,33,982,-989,15,112
1526,17,63,1002,-978,22,98
1527,-26,60,999,-977,23,92
1528,-57,57,1002,-976,20,90
1529,-49,39,954,-972,11,82
1530,4,32,983,-967,5,61
1531,31,56,962,-954,5,35
1532,48,82,1005,-949,10,14
1533,20,110,975,-953,15,1
1534,-32,119,1007,-961,17,0
1535,-47,129,955,-975,12,-4
1536,-23,111,969,-989,4,-12
1537,30,120,952,-1006,2,-19
1538,72,159,969,-1028,8,-18
1539,32,183,957,-1058,20,-11
1540,-34,214,978,-1091,27,0
1541,-92,202,969,-1127,21,8
1542,-73,184,953,-1160,9,9
1543,1,167,936,-1188,1,1
1544,58,170,960,-1221,2,-4
1545,79,202,947,-1258,14,5
1546,19,220,971,-1295,29,13
1547,-54,230,964,-1343,32,20
1548,-81,206,948,-1385,25,25
1549,-442,-767,1367,-1388,7,15
1550,-331,-1270,1912,-833,-168,-52
1551,4,517,820,-698,-183,-159
1552,97,388,131,-916,-148,-398
1553,552,-177,800,-967,-83,-437
1554,1020,-385,1201,-935,210,-347
1555,-886,-998,1106,-764,353,-343
1556,-729,192,310,-543,6,-267
1557,191,-38,874,-566,-153,-312
1558,196,-154,1268,-582,-7,-256
1559,-374,-29,1076,-656,76,-201
1560,77,-321,1149,-648,-38,-239
1561,-37,145,818,-609,-35,-164
1562,84,123,887,-663,-18,-124
1563,197,-205,1216,-672,-13,-157
1564,38,89,1086,-639,8,-130
1565,89,126,865,-693,3,-138
1566,69,-20,1055,-716,28,-111
1567,-146,-13,1027,-712,32,-86
1568,-92,62,1079,-736,-5,-80
1569,8,28,1017,-771,-15,-83
1570,0,61,1008,-794,-4,-63
1571,88,29,989,-824,-11,-56
1572,87,-45,1069,-836,-6,-22
1573,26,7,1014,-853,-1,10
1574,-14,-34,1027,-875,-3,32
1575,-6,-9,999,-883,-6,30
1576,-6,-1,998,-896,0,25
1577,22,-18,971,-904,4,14
1578,23,-53,1006,-911,9,17
1579,-23,-50,971,-914,7,25
1580,-64,-75,1019,-920,4,33
1581,-78,-45,997,-921,-6,31
1582,-52,-38,997,-930,-13,17
1583,19,-26,987,-938,-13,0
1584,36,-28,987,-945,-2,-2
1585,40,-38,990,-956,0,5
1586,-2,-72,1006,-967,2,19
1587,-51,-64,1016,-968,0,27
1588,-58,-44,1007,-983,-10,25
1589,-35,-52,993,-994,-14,16
1590,11,-49,973,-1002,-12,5
1591,50,-77,969,-1011,-5,3
1592,16,-105,978,-1011,2,11
1593,-35,-124,990,-1017,0,20
1594,-75,-133,995,-1013,-6,21
1595,-68,-105,980,-1016,-14,14
1596,-13,-110,962,-1019,-18,2
1597,24,-125,954,-1018,-12,-4
1598,49,-155,953,-1017,-4,-3
1599,12,-186,965,-1007,1,9
1600,-34,-198,978,-1000,-2,16
1601,-62,-200,975,-990,-8,17
1602,-37,-180,944,-981,-14,8
1603,6,-191,935,-973,-14,1
1604,47,-209,931,-960,-8,-3
1605,28,-247,938,-947,2,2
1606,-8,-277,937,-924,2,11
1607,-59,-291,954,-901,0,14
1608,-66,-269,932,-881,-8,12
1609,-33,-281,933,-863,-13,1
1610,28,-272,903,-837,-11,-6
1611,62,-288,908,-813,-2,-9
1612,41,-305,909,-787,6,-1
1613,-13,-330,944,-757,9,8
1614,-61,-320,947,-730,3,9
1615,-68,-298,933,-709,-4,5
1616,-12,-291,908,-689,-11,-6
1617,4,-307,910,-666,-6,-10
1618,27,-324,907,-639,-1,-9
1619,-11,-361,929,-615,3,-3
1620,-50,-374,933,-579,1,-2
1621,-75,-360,936,-546,-7,-4
1622,-51,-355,902,-515,-14,-10
1623,10,-364,892,-483,-16,-18
1624,56,-386,881,-449,-7,-21
1625,48,-426,885,-407,2,-15
1626,8,-457,899,-363,6,-6
1627,-44,-462,899,-316,6,-2
1628,-45,-445,904,-266,-2,-4
1629,-19,-431,879,-226,-6,-14
1630,19,-433,858,-181,-2,-19
1631,49,-441,865,-133,4,-21
1632,15,-458,882,-84,12,-15
1633,-31,-464,915,-33,12,-11
1634,-73,-452,915,12,3,-11
1635,-55,-420,890,56,-5,-13
1636,8,-405,881,95,-10,-19
1637,42,-414,868,136,-2,-21
1638,52,-431,886,180,6,-18
1639,21,-460,893,225,12,-11
1640,-40,-456,911,275,10,-4
1641,-58,-433,902,317,2,-3
1642,-35,-424,895,360,-5,-8
1643,13,-405,869,400,-4,-11
1644,58,-416,860,443,2,-12
1645,41,-445,889,491,13,-9
1646,-19,-446,896,538,16,-3
1647,-67,-449,905,587,12,-2
1648,-65,-417,902,631,2,-7
1649,-26,-376,873,673,-2,-14
1650,25,-386,871,711,-1,-21
1651,46,-388,871,753,10,-23
1652,7,-398,895,795,17,-16
1653,-33,-390,919,839,16,-16
1654,-79,-366,926,878,9,-15
1655,-62,-318,902,910,-1,-22
1656,0,-283,888,935,-3,-31
1657,41,-279,903,962,4,-36
1658,33,-273,922,987,14,-32
1659,4,-290,943,1010,16,-28
1660,-58,-273,952,1035,14,-20
1661,-61,-214,939,1054,3,-20
1662,-33,-204,948,1065,-3,-27
1663,28,-183,924,1077,1,-37
1664,50,-180,929,1087,10,-37
1665,23,-200,945,1098,18,-30
1666,-20,-208,976,1113,16,-22
1667,-66,-187,976,1125,9,-14
1668,-50,-149,956,1130,0,-16
1669,5,-131,941,1134,-3,-26
1670,45,-136,945,1138,7,-34
1671,44,-146,944,1144,16,-29
1672,8,-172,967,1153,19,-20
1673,-32,-170,973,1165,16,-11
1674,-60,-146,977,1174,9,-6
1675,-41,-128,948,1177,1,-12
1676,30,-130,929,1185,3,-23
1677,53,-145,936,1194,14,-25
1678,24,-163,937,1208,21,-17
1679,-9,-201,970,1226,18,-7
1680,-60,-189,948,1245,14,0
1681,-64,-155,933,1264,7,-2
1682,-10,-150,927,1277,3,-16
1683,30,-165,917,1296,12,-27
1684,30,-161,915,1317,20,-29
1685,-10,-167,924,1338,22,-20
1686,-51,-162,958,1359,15,-15
1687,-86,-117,953,1371,2,-16
1688,-73,-76,941,1384,-3,-28
1689,-2,-34,940,1392,1,-49
1690,16,-35,956,1397,9,-63
1691,7,-11,949,1408,11,-73
1692,-20,-19,980,1409,14,-73
1693,-63,13,986,1412,10,-75
1694,-76,50,1010,1402,3,-80
1695,-34,71,993,1387,-2,-91
1696,19,70,993,1369,1,-101
1697,53,73,981,1357,6,-101
1698,-56,1461,1658,1259,-5,-78
1699,-177,1307,1317,402,-76,-75
1700,-142,616,98,58,-93,-124
1701,-1,-50,27,-16,-183,-142
1702,148,187,458,-93,-178,-11
1703,438,1,505,-154,-96,82
1704,849,368,1596,-149,106,82
1705,478,735,1229,-220,433,29
1706,-1322,-432,1651,-295,305,269
1707,-332,289,510,-113,-219,705
1708,425,-286,913,-109,-184,665
1709,322,175,988,49,75,349
1710,-580,167,1382,43,150,93
1711,-15,-89,792,11,-44,42
1712,-78,41,910,35,15,135
1713,-373,127,1035,-25,19,207
1714,-97,-109,1110,-56,-57,222
1715,181,-161,850,4,-27,195
1716,53,-36,1090,15,15,189
1717,140,-54,986,-4,-7,197
1718,79,-160,1032,3,10,206
1719,-61,-43,952,19,23,232
1720,-198,-78,1035,7,10,268
1721,-101,-110,975,8,-10,274
1722,-97,-143,1019,41,-15,265
1723,25,-122,994,76,-27,241
1724,87,-148,1058,114,-27,193
1725,98,-168,1025,162,-11,153
1726,15,-154,1049,205,-4,125
1727,-3,-220,1024,250,-4,97
1728,-51,-251,1019,300,-7,67
1729,9,-250,1013,355,-12,37
1730,27,-267,1029,415,-15,2
1731,45,-232,1029,470,-12,-17
1732,7,-220,1028,512,-7,-18
1733,-45,-232,1022,550,-3,-14
1734,-85,-230,1001,597,-10,-14
1735,-34,-242,1036,641,-19,-22
1736,28,-244,1006,685,-25,-33
1737,72,-211,1008,730,-16,-34
1738,34,-180,1003,765,-6,-30
1739,-30,-155,1035,798,0,-25
1740,-96,-165,1006,828,-5,-22
1741,-80,-179,1011,863,-18,-27
1742,-15,-180,987,902,-29,-33
1743,47,-179,1014,937,-27,-36
1744,69,-150,984,968,-17,-31
1745,19,-124,1008,996,-5,-24
1746,-37,-107,1004,1021,0,-21
1747,-87,-120,1031,1051,-6,-22
1748,-64,-135,979,1079,-22,-29
1749,2,-144,984,1114,-30,-40
1750,74,-121,979,1145,-28,-43
1751,59,-94,1002,1169,-14,-38
1752,15,-66,995,1192,-2,-32
1753,-71,-59,1005,1211,0,-27
1754,-74,-54,990,1234,-12,-32
1755,-54,-80,991,1259,-26,-45
1756,27,-81,955,1284,-31,-57
1757,69,-50,977,1306,-27,-62
1758,49,-7,973,1321,-10,-55
1759,-10,20,992,1335,-2,-47
1760,-73,23,993,1347,-4,-42
1761,-85,27,977,1358,-15,-47
1762,-25,24,953,1372,-29,-60
1763,26,27,953,1385,-32,-78
1764,61,79,955,1392,-24,-79
1765,28,119,961,1387,-10,-67
1766,-23,158,971,1378,-2,-58
1767,-81,181,975,1372,-7,-49
1768,-80,188,952,1358,-20,-52
1769,-27,196,916,1352,-32,-75
1770,32,212,934,1342,-34,-97
1771,33,251,936,1330,-29,-116
1772,7,291,969,1315,-21,-131
1773,-40,311,964,1283,-23,-129
1774,-45,309,957,1253,-32,-120
1775,-34,293,921,1223,-36,-125
1776,15,306,929,1195,-40,-138
1777,70,324,932,1158,-34,-143
1778,68,348,960,1114,-21,-122
1779,30,366,949,1065,-8,-88
1780,-42,364,964,1014,1,-56
1781,-51,375,944,965,-6,-37
1782,-27,356,941,920,-16,-36
1783,29,351,930,880,-18,-42
1784,51,367,933,841,-11,-37
1785,38,401,942,798,-1,-24
1786,-31,417,962,753,9,-10
1787,-74,426,971,708,4,-4
1788,-76,404,947,661,-9,-10
1789,0,382,923,622,-19,-21
1790,50,388,921,581,-17,-24
1791,60,414,946,535,-5,-12
1792,15,437,954,486,9,2
1793,-48,450,975,437,14,13
1794,-73,440,947,390,3,15
1795,-41,404,952,346,-11,2
1796,25,387,921,307,-16,-9
1797,77,404,932,264,-10,-9
1798,61,429,946,219,6,-1
1799,0,457,968,173,17,13
1800,-63,455,970,121,17,20
1801,-64,432,949,76,5,11
1802,-18,410,934,32,-8,-1
1803,44,403,924,-9,-12,-9
1804,72,414,940,-52,-1,-6
1805,41,446,949,-99,15,6
1806,-20,465,976,-148,24,20
1807,-69,453,967,-198,19,19
1808,-60,410,949,-245,9,11
1809,8,392,917,-284,-2,2
1810,61,387,940,-322,0,-1
1811,63,400,944,-364,11,5
1812,8,419,964,-410,25,16
1813,-50,423,971,-455,27,27
1814,-74,400,967,-497,18,26
1815,-40,361,938,-534,8,17
1816,22,331,934,-568,2,8
1817,77,345,936,-600,6,7
1818,54,364,951,-637,20,16
1819,-1,381,967,-673,30,24
1820,-67,369,983,-712,27,30
1821,-68,348,945,-748,16,27
1822,-19,317,939,-774,5,12
1823,33,302,935,-802,3,4
1824,76,323,940,-834,11,9
1825,48,333,956,-869,25,17
1826,-20,341,977,-901,34,30
1827,-72,323,972,-934,29,37
1828,-58,273,950,-963,17,28
1829,0,241,932,-981,9,17
1830,60,233,941,-1000,11,16
1831,63,229,959,-1023,24,22
1832,12,239,966,-1044,36,32
1833,-62,222,989,-1064,38,43
1834,-78,192,966,-1076,25,41
1835,-50,138,965,-1082,12,32
1836,20,114,943,-1081,7,19
1837,72,116,964,-1082,14,17
1838,50,133,964,-1087,26,26
1839,-23,136,997,-1091,31,32
1840,-91,123,996,-1097,26,39
1841,-85,80,971,-1095,12,34
1842,-22,53,962,-1082,0,20
1843,32,44,970,-1071,-1,16
1844,63,48,966,-1066,6,18
1845,28,59,991,-1062,19,25
1846,-39,69,1004,-1056,26,32
1847,-75,44,1005,-1051,20,35
1848,-61,4,971,-1038,7,26
1849,6,-9,967,-1017,-2,12
1850,62,6,980,-1002,2,5
1851,59,22,988,-994,16,8
1852,5,42,989,-988,27,13
1853,-65,45,1010,-983,29,19
1854,-80,35,987,-975,17,20
1855,-42,0,975,-968,6,12
1856,16,-4,961,-952,2,-3
1857,64,25,986,-941,7,-6
1858,43,57,992,-941,18,1
1859,-18,71,998,-941,26,11
1860,-80,61,998,-940,24,16
1861,-70,45,974,-940,12,11
1862,-2,27,970,-937,2,0
1863,49,36,977,-933,3,-5
1864,75,58,977,-934,13,2
1865,28,84,993,-941,25,13
1866,-46,89,994,-949,33,18
1867,-84,66,997,-957,23,21
1868,-54,22,960,-960,12,12
1869,20,11,974,-954,6,3
1870,75,22,974,-955,9,4
1871,50,32,992,-960,23,10
1872,-7,51,998,-961,31,17
1873,-74,33,1003,-972,29,26
1874,-43,9,967,-980,18,42
1875,-4,-33,962,-988,12,64
1876,26,-23,969,-988,19,79
1877,23,2,1000,-989,23,85
1878,3,-7,990,-999,27,103
1879,-48,-21,989,-1003,29,130
1880,-86,-28,1000,-1011,27,156
1881,-73,-68,970,-1014,22,174
1882,-21,-99,983,-1009,18,184
1883,1,-101,984,-994,19,184
1884,19,-96,1005,-979,19,184
1885,-603,-1026,1509,-923,-6,166
1886,-64,-1332,1754,-447,-200,43
1887,396,-175,729,-214,-164,16
1888,185,-179,246,-197,-71,-60
1889,319,-363,541,-105,-35,-68
1890,823,-418,892,-12,96,-29
1891,-354,-667,1224,108,251,-51
1892,-741,-210,905,207,119,-223
1893,-265,-380,808,249,-9,-408
1894,-115,-216,688,358,4,-456
1895,-411,997,1506,313,-40,-416
1896,631,492,1487,-122,-167,-249
1897,320,-106,720,-249,12,-159
1898,-1,-474,675,-129,114,-152
1899,-358,-266,1157,31,44,-132
1900,-73,55,1040,69,-46,-169
1901,52,148,890,9,-6,-208
1902,111,27,1152,-32,13,-181
1903,-42,46,1048,-41,6,-104
1904,17,123,925,-57,2,-100
1905,-56,-54,1001,-68,23,-141
1906,-160,-20,1060,-42,28,-150
1907,-177,66,981,-46,9,-173
1908,-84,62,981,-54,-7,-202
1909,13,54,1010,-67,-13,-216
1910,76,41,1063,-78,-7,-204
1911,62,83,1032,-94,0,-183
1912,33,71,1070,-126,3,-154
1913,-18,81,1050,-155,3,-128
1914,-7,131,1096,-185,-1,-106
1915,26,161,1055,-229,-5,-97
1916,68,153,1073,-268,-1,-85
1917,74,167,1046,-307,2,-67
1918,24,142,1081,-344,7,-43
1919,-45,167,1081,-381,4,-21
1920,-81,174,1100,-427,-1,-8
1921,-48,196,1064,-472,-8,-8
1922,7,196,1077,-517,-11,-9
1923,40,198,1052,-560,-7,-9
1924,36,166,1083,-597,-2,3
1925,-9,167,1059,-637,-1,16
1926,-59,146,1081,-672,-5,23
1927,-62,160,1061,-710,-11,16
1928,-44,150,1051,-745,-13,6
1929,17,145,1035,-778,-13,-5
1930,40,115,1040,-809,-8,-3
1931,19,107,1034,-836,-6,6
1932,-26,75,1052,-867,-6,19
1933,-54,80,1046,-889,-11,17
1934,-54,98,1038,-917,-14,11
1935,-4,82,1016,-942,-15,-3
1936,24,73,1015,-962,-8,-6
1937,34,51,1010,-987,-7,-3
1938,0,23,1009,-1003,-6,9
1939,-42,6,1037,-1018,-8,16
1940,-67,24,1018,-1033,-14,14
1941,-41,7,1007,-1051,-17,3
1942,20,20,995,-1062,-16,-10
1943,34,6,985,-1077,-8,-9
1944,38,-20,992,-1092,-3,-3
1945,-6,-50,1004,-1098,-3,7
1946,-46,-35,1014,-1102,-6,10
1947,-64,-20,1006,-1117,-11,9
1948,-25,-12,993,-1130,-17,-4
1949,9,-11,989,-1144,-13,-13
1950,48,-11,976,-1158,-7,-13
1951,36,-37,997,-1170,-2,-5
1952,-13,-57,1006,-1181,-2,6
1953,-67,-57,1020,-1190,-7,14
1954,-45,-47,1004,-1206,-16,10
1955,0,-47,984,-1216,-19,3
1956,29,-54,960,-1227,-14,0
1957,55,-89,956,-1236,-5,5
1958,22,-133,968,-1236,0,17
1959,-21,-157,989,-1232,0,23
1960,-57,-167,987,-1227,-8,27
1961,-39,-166,949,-1227,-16,24
1962,8,-183,924,-1219,-20,18
1963,53,-201,907,-1206,-14,15
1964,36,-248,918,-1190,-5,21
1965,5,-297,922,-1166,0,27
1966,-47,-320,945,-1137,-1,30
1967,-66,-307,916,-1110,-8,29
1968,-34,-319,905,-1083,-17,21
1969,15,-325,877,-1051,-17,17
1970,55,-352,872,-1014,-9,15
1971,36,-383,880,-977,0,19
1972,-9,-439,901,-932,7,24
1973,-64,-437,912,-883,3,22
1974,-66,-417,879,-840,-6,20
1975,-13,-424,871,-795,-12,9
1976,19,-419,848,-748,-7,4
1977,37,-443,852,-697,1,3
1978,2,-480,872,-644,7,4
1979,-44,-495,897,-589,8,4
1980,-76,-472,900,-534,2,0
1981,-61,-454,872,-488,-7,-8
1982,2,-440,853,-436,-10,-18
1983,32,-440,853,-389,-2,-21
1984,32,-459,869,-338,6,-20
1985,-4,-482,901,-284,11,-15
1986,-61,-474,901,-235,7,-12
1987,-58,-453,898,-184,-1,-15
1988,-28,-429,880,-142,-8,-19
1989,21,-430,859,-98,-5,-22
1990,58,-452,865,-52,3,-24
1991,26,-481,871,-1,12,-18
1992,-21,-495,892,56,15,-11
1993,-65,-503,899,106,8,-8
1994,-50,-488,876,160,0,-11
1995,0,-459,859,211,-5,-18
1996,39,-470,843,261,4,-22
1997,46,-490,848,315,13,-21
1998,6,-516,867,376,20,-16
1999,-45,-513,883,438,16,-16
2000,-67,-483,891,494,8,-17
2001,-51,-457,871,546,0,-24
2002,9,-431,856,593,0,-32
2003,51,-427,856,641,8,-35
2004,36,-445,869,691,17,-33
2005,-7,-453,896,742,21,-28
2006,-62,-438,902,795,16,-22
2007,-54,-390,898,836,8,-23
2008,-20,-365,895,873,2,-28
2009,35,-347,871,911,6,-38
2010,54,-353,881,947,17,-36
2011,14,-358,893,986,26,-31
2012,-41,-353,924,1024,26,-23
2013,-73,-324,932,1058,16,-25
2014,-62,-277,917,1088,7,-31
2015,-3,-230,903,1105,2,-42
2016,38,-234,912,1124,9,-48
2017,30,-229,924,1145,18,-43
2018,-6,-226,947,1163,21,-35
2019,-44,-210,962,1180,16,-31
2020,-67,-171,963,1192,7,-35
2021,-46,-150,924,1212,1,-64
2022,47,-121,918,1232,7,-102
2023,60,-133,923,1246,32,-128
2024,-2,-162,942,1264,48,-143
2025,-60,-178,966,1283,44,-149
2026,-103,-164,957,1300,31,-154
2027,-76,-108,956,1306,21,-157
2028,-26,-103,952,1300,17,-164
2029,31,-119,961,1300,20,-163
2030,41,-116,949,1301,24,-157
2031,26,-121,958,1305,26,-143
2032,-5,-129,985,1310,26,-129
2033,-46,-113,981,1315,23,-120
2034,-38,-82,961,1316,18,-126
2035,16,-67,944,1317,15,-143
2036,54,-85,941,1321,21,-155
2037,34,-108,946,1333,29,-156
2038,-11,-130,944,1349,35,-150
2039,-71,-125,956,1370,27,-149
2040,-78,-93,948,1381,19,-157
2041,-43,-87,943,1389,14,-174
2042,13,-86,919,1409,19,-193
2043,48,-108,913,1423,22,-203
2044,29,-142,931,1440,25,-202
2045,-25,-142,934,1464,28,-195
2046,-63,-144,935,1489,24,-197
2047,-40,-121,926,1515,17,-211
2048,25,-99,901,1541,13,-234
2049,87,-140,895,1564,17,-257
2050,-297,569,1186,1610,16,-262
2051,12,1696,1894,997,-160,-165
2052,-46,154,307,310,-99,-74
2053,285,-312,149,367,-148,-77
2054,38,-121,268,394,-189,10
2055,533,-562,504,438,-125,110
2056,194,-352,605,568,-7,134
2057,427,-313,670,650,106,231
2058,477,851,1549,711,303,159
2059,-1016,788,1644,510,332,123
2060,-399,-90,378,395,-25,406
2061,110,-306,338,504,-90,411
2062,-47,-424,304,624,-54,320
2063,0,690,1606,709,12,241
2064,-453,337,1657,534,66,22
2065,-277,-356,672,519,13,70
2066,-54,-306,368,666,-41,155
2067,-128,68,1271,741,-41,98
2068,16,187,1208,648,-45,31
2069,141,-370,1032,639,-21,-5
2070,142,-235,802,764,-26,23
2071,69,67,1130,803,-9,50
2072,41,-72,1014,764,14,-4
2073,-147,-184,1037,801,23,-29
2074,-75,-93,893,851,-17,-9
2075,-25,-100,1076,879,-29,-37
2076,47,-76,944,893,-19,-50
2077,10,-65,987,908,-11,-35
2078,37,-18,1008,929,-11,-30
2079,-78,0,1048,942,-6,-21
2080,-22,2,964,944,-9,-18
2081,-44,-66,995,963,-17,-39
2082,58,-22,953,983,-23,-44
2083,67,-8,997,994,-14,-45
2084,52,10,993,1000,1,-38
2085,-55,58,994,1005,7,-25
2086,-74,47,1002,1006,0,-23
2087,-92,38,973,1014,-13,-35
2088,0,38,962,1022,-24,-42
2089,48,24,953,1027,-24,-54
2090,79,71,995,1035,-14,-49
2091,37,101,977,1026,-1,-34
2092,-18,89,1012,1022,9,-25
2093,-85,95,981,1024,3,-23
2094,-72,62,977,1027,-8,-32
2095,-16,42,937,1039,-21,-56
2096,34,49,966,1055,-22,-76
2097,28,82,972,1071,-17,-92
2098,5,101,1026,1072,-14,-93
2099,-51,80,972,1072,-12,-87
2100,-58,77,988,1080,-16,-84
2101,-45,61,950,1090,-25,-99
2102,6,57,973,1106,-34,-121
2103,44,79,950,1114,-34,-136
2104,34,107,987,1119,-23,-133
2105,-8,137,982,1112,-17,-118
2106,-63,134,996,1105,-16,-100
2107,-70,139,953,1102,-22,-93
2108,-32,130,947,1098,-30,-104
2109,17,142,946,1104,-35,-120
2110,35,179,974,1101,-33,-125
2111,31,215,971,1082,-24,-110
2112,-16,215,979,1062,-14,-86
2113,-51,231,971,1041,-13,-63
2114,-57,222,959,1024,-19,-60
2115,-4,204,942,1011,-27,-70
2116,32,221,931,1005,-27,-83
2117,46,250,961,991,-20,-80
2118,17,272,982,967,-12,-65
2119,-38,276,980,941,-7,-43
2120,-46,264,963,914,-9,-30
2121,-35,238,938,900,-14,-37
2122,10,239,928,891,-19,-53
2123,36,270,948,882,-21,-63
2124,33,303,962,860,-13,-59
2125,-4,326,981,827,-5,-43
2126,-53,328,969,798,-3,-25
2127,-54,331,949,766,-8,-17
2128,-6,328,923,736,-16,-24
2129,40,336,936,712,-18,-32
2130,53,375,943,678,-11,-27
2131,29,403,957,639,3,-14
2132,-39,419,965,600,8,-2
2133,-77,420,956,559,2,3
2134,-58,388,940,524,-13,-7
2135,8,369,924,495,-27,-21
2136,74,387,917,458,-16,-23
2137,79,405,961,416,5,-12
2138,20,427,964,374,21,7
2139,-55,435,979,334,20,17
2140,-65,413,952,293,8,9
2141,-30,374,934,262,-10,-8
2142,23,369,920,230,-15,-18
2143,53,386,937,195,-8,-14
2144,28,427,952,158,5,-1
2145,-32,443,979,114,14,11
2146,-68,440,966,72,9,13
2147,-54,410,943,32,-1,3
2148,21,390,922,-3,-10,-9
2149,66,402,925,-37,-7,-12
2150,73,418,947,-78,6,-5
2151,9,451,956,-122,18,6
2152,-56,465,974,-167,21,18
2153,-72,455,952,-212,13,15
2154,-41,409,942,-254,2,2
2155,13,395,898,-290,-5,-10
2156,77,407,941,-326,-3,-10
2157,54,446,938,-371,11,4
2158,-5,462,982,-420,25,20
2159,-74,451,963,-470,24,25
2160,-69,414,951,-511,11,23
2161,-13,384,909,-547,1,10
2162,31,365,932,-579,0,2
2163,64,389,929,-613,6,7
2164,27,405,961,-656,17,22
2165,-28,422,970,-697,26,35
2166,-71,405,974,-741,20,42
2167,-56,357,932,-778,10,36
2168,5,320,926,-803,4,25
2169,58,329,927,-831,6,22
2170,56,332,945,-859,15,31
2171,12,347,977,-894,24,45
2172,-51,336,973,-930,27,62
2173,-54,305,964,-963,20,73
2174,-18,257,936,-988,14,73
2175,29,237,933,-1005,13,70
2176,78,250,945,-1025,19,76
2177,61,264,964,-1055,33,99
2178,14,273,989,-1087,44,128
2179,-41,260,984,-1121,49,162
2180,-36,236,951,-1152,46,184
2181,-6,202,931,-1173,42,191
2182,14,189,921,-1183,45,188
2183,8,209,958,-1190,49,184
2184,-17,224,976,-1206,51,188
2185,-56,210,993,-1221,50,197
2186,-67,184,967,-1240,44,209
2187,-43,135,943,-1250,39,212
2188,-1,112,937,-1250,37,204
2189,36,127,947,-1248,40,194
2190,22,129,971,-1247,45,190
2191,-14,142,991,-1252,48,196
2192,-61,130,991,-1260,48,207
2193,-49,108,970,-1271,42,217
2194,-17,73,936,-1273,38,216
2195,8,58,944,-1265,38,209
2196,20,88,956,-1259,39,199
2197,-1,105,982,-1258,45,198
2198,-41,104,1007,-1263,43,205
2199,-68,91,989,-1268,38,217
2200,-48,53,959,-1270,34,224
2201,-1,25,935,-1263,30,216
2202,18,34,955,-1250,30,203
2203,24,58,975,-1242,31,195
2204,-4,62,1001,-1241,33,195
2205,-43,64,1000,-1241,34,205
2206,-57,42,978,-1245,32,212
2207,-29,17,959,-1241,29,208
2208,-2,-3,951,-1230,25,195
2209,35,23,968,-1217,25,181
2210,17,32,990,-1211,27,176
2211,-7,33,1005,-1208,32,182
2212,-57,20,1005,-1210,32,193
2213,-28,-4,981,-1211,31,201
2214,9,-32,964,-1203,30,194
2215,37,-37,975,-1187,33,183
2216,35,-20,980,-1173,36,172
2217,21,-5,1009,-1164,41,171
2218,-18,-4,1022,-1160,44,172
2219,-26,-12,1030,-1156,47,176
2220,1,-45,995,-1150,53,170
2221,40,-68,977,-1131,57,152
2222,67,-51,982,-1112,60,132
2223,42,-35,1002,-1095,65,118
2224,7,-13,1020,-1083,69,108
2225,-35,-4,1028,-1080,75,102
2226,-23,-12,998,-1073,78,94
2227,6,-35,977,-1064,80,74
2228,-240,-290,1102,-1043,77,47
2229,-1477,-1618,1613,-824,-112,-40
2230,-529,-410,1135,-389,-486,-197
2231,715,-231,888,-327,-447,-364
2232,935,-227,1152,-306,-161,-370
2233,677,-134,1049,-348,164,-284
2234,-247,-660,1096,-308,241,-384
2235,-338,-235,758,-136,96,-427
2236,91,-91,700,-81,45,-464
2237,-81,-296,876,-44,83,-486
2238,-339,-144,885,-2,83,-444
2239,-320,-266,1075,7,13,-474
2240,-131,-112,907,48,-39,-488
2241,30,81,797,34,-46,-453
2242,133,-121,941,10,-59,-440
2243,196,-175,1256,36,-59,-372
2244,226,72,1234,-1,-28,-280
2245,155,38,1156,-79,7,-243
2246,83,154,990,-123,20,-202
2247,88,142,1029,-163,17,-173
2248,91,120,1075,-185,16,-159
2249,30,187,1059,-217,18,-150
2250,1,146,1035,-259,15,-151
2251,-75,115,1083,-289,7,-144
2252,-98,158,1053,-323,-3,-125
2253,-50,142,1088,-366,-13,-119
2254,33,167,1076,-410,-13,-109
2255,56,151,1073,-456,-3,-96
2256,58,138,1073,-492,6,-78
2257,-22,123,1065,-527,13,-54
2258,-79,150,1066,-561,7,-37
2259,-83,160,1072,-603,-3,-36
2260,-42,176,1069,-643,-8,-40
2261,7,174,1056,-689,-6,-47
2262,48,169,1056,-725,-1,-49
2263,-2,155,1056,-761,4,-37
2264,-48,156,1076,-799,2,-20
2265,-100,156,1079,-838,-2,-10
2266,-68,182,1083,-885,-12,-9
2267,-15,175,1059,-933,-15,-9
2268,39,150,1058,-977,-12,-5
2269,45,121,1044,-1016,-3,8
2270,-9,97,1046,-1048,-2,30
2271,-54,69,1052,-1080,-6,41
2272,-91,57,1043,-1107,-12,39
2273,-60,56,1002,-1132,-18,28
2274,-1,26,992,-1152,-18,15
2275,37,2,988,-1165,-13,12
2276,19,-34,988,-1178,-6,17
2277,-12,-79,987,-1186,-6,27
2278,-51,-100,996,-1185,-11,28
2279,-57,-80,969,-1183,-17,24
2280,-24,-98,963,-1185,-21,15
2281,23,-117,941,-1180,-17,5
2282,49,-130,948,-1172,-8,6
2283,13,-159,947,-1165,-1,11
2284,-28,-190,972,-1152,-1,14
2285,-79,-186,968,-1136,-6,14
2286,-58,-160,949,-1126,-15,9
2287,5,-170,934,-1115,-18,-2
2288,27,-170,932,-1103,-11,-2
2289,43,-189,926,-1089,-5,0
2290,19,-230,954,-1075,-1,10
2291,-30,-238,958,-1054,-1,17
2292,-64,-231,954,-1036,-9,23
2293,-21,-240,933,-1019,-16,16
2294,15,-239,914,-999,-15,14
2295,55,-247,902,-977,-8,15
2296,40,-295,914,-954,-1,21
2297,-15,-328,928,-922,5,30
2298,-65,-353,931,-889,-1,28
2299,-71,-351,921,-850,-9,27
2300,-33,-353,880,-814,-16,21
2301,13,-383,858,-770,-15,26
2302,54,-402,853,-719,-13,37
2303,28,-427,877,-669,-10,57
2304,-7,-454,904,-617,-9,68
2305,-47,-461,916,-563,-12,70
2306,-37,-433,871,-508,-18,70
2307,3,-419,864,-460,-21,68
2308,39,-413,859,-413,-16,66
2309,40,-429,882,-367,-6,64
2310,1,-451,896,-320,0,57
2311,-54,-459,913,-269,4,40
2312,-77,-444,907,-223,1,22
2313,-65,-435,878,-177,-3,2
2314,-6,-421,859,-128,-3,-10
2315,35,-432,857,-82,2,-16
2316,23,-463,875,-27,8,-12
2317,-5,-465,900,27,9,-8
2318,-56,-465,901,80,7,-4
2319,-41,-433,904,130,0,-8
2320,1,-414,878,177,-2,-18
2321,37,-414,869,223,4,-18
2322,55,-415,864,269,12,-17
2323,13,-441,889,320,19,-8
2324,-36,-439,916,368,16,-4
2325,-72,-419,913,418,10,-2
2326,-51,-392,896,461,1,-10
2327,12,-366,874,501,2,-20
2328,39,-373,881,544,10,-25
2329,34,-377,886,585,16,-21
2330,-12,-402,910,628,18,-13
2331,-54,-382,911,674,14,-8
2332,-58,-344,927,709,6,-10
2333,-31,-323,904,744,2,-21
2334,21,-315,897,774,7,-30
2335,43,-314,876,809,16,-33
2336,13,-325,910,847,21,-27
2337,-36,-334,921,881,18,-20
2338,-81,-315,940,920,9,-21
2339,-69,-269,905,948,2,-37
2340,4,-246,898,989,-2,-71
2341,55,-232,889,1026,10,-100
2342,40,-241,909,1055,30,-111
2343,-18,-255,919,1086,38,-118
2344,-82,-258,954,1116,33,-122
2345,-91,-210,937,1147,21,-131
2346,-69,-182,935,1162,17,-145
2347,-7,-150,903,1174,19,-162
2348,22,-186,938,1191,25,-173
2349,10,-173,923,1209,26,-173
2350,-8,-190,962,1228,24,-164
2351,-49,-171,946,1243,23,-159
2352,-60,-141,977,1256,20,-158
2353,-29,-113,944,1261,14,-171
2354,27,-118,943,1267,15,-183
2355,53,-123,918,1280,23,-187
2356,17,-137,951,1294,31,-179
2357,-34,-138,957,1313,32,-173
2358,-97,-126,983,1326,27,-172
2359,-67,-85,946,1335,18,-184
2360,-19,-72,946,1338,15,-201
2361,32,-70,924,1346,17,-212
2362,25,-92,940,1358,21,-210
2363,0,-91,957,1372,24,-202
2364,-60,-89,976,1382,23,-197
2365,-61,-67,985,1388,14,-198
2366,-35,-48,954,1390,12,-206
2367,33,-42,937,1399,13,-215
2368,70,-67,935,1400,16,-220
2369,51,-87,953,1418,24,-213
2370,21,-97,971,1432,27,-203
2371,-19,-112,989,1447,31,-196
2372,-730,1290,1587,1401,-29,-180
2373,119,1214,1578,647,-253,-107
2374,193,252,279,332,-150,-98
2375,294,-341,205,341,-183,-110
2376,305,-36,509,341,-164,2
2377,540,-470,518,380,-60,94
2378,207,-437,715,473,86,168
2379,560,81,831,547,209,259
2380,-361,877,1850,526,365,164
2381,-798,372,1151,323,119,275
2382,26,-234,360,342,-84,443
2383,154,-369,352,420,-64,332
2384,-28,-188,662,538,9,280
2385,-344,505,1833,551,50,196
2386,-567,-19,1371,461,13,116
2387,-12,-385,512,547,-44,167
2388,-20,-294,589,684,-31,97
2389,-53,86,1236,748,-44,21
2390,67,23,1318,675,-54,-11
2391,83,-340,993,717,-17,-13
2392,-21,-158,815,819,-19,25
2393,89,-4,1082,821,-29,25
2394,56,-174,1013,814,-2,-35
2395,7,-148,998,861,11,-39
2396,-8,-69,958,895,-7,-21
2397,-47,-76,1080,918,-5,-26
2398,-105,-55,929,924,-2,-23
2399,-78,-122,1020,946,-14,-20
2400,-1,-84,961,978,-35,-30
2401,71,-75,1034,1000,-29,-33
2402,96,-76,969,1018,-15,-38
2403,19,-48,1024,1038,5,-25
2404,-29,-22,974,1053,7,-15
2405,-94,-59,1047,1069,2,-22
2406,-74,-66,949,1094,-13,-32
2407,-15,-86,979,1121,-26,-47
2408,67,-62,956,1145,-26,-56
2409,38,-17,1005,1163,-16,-50
2410,20,4,984,1168,-3,-38
2411,-75,1,1016,1184,0,-34
2412,-60,17,975,1200,-12,-32
2413,-37,3,974,1215,-25,-49
2414,30,-19,958,1237,-28,-68
2415,43,21,954,1255,-24,-79
2416,36,43,982,1269,-15,-80
2417,-30,60,996,1277,-8,-78
2418,-73,68,1000,1287,-12,-73
2419,-79,45,958,1299,-24,-84
2420,-27,44,941,1321,-34,-115
2421,18,62,946,1344,-39,-149
2422,47,98,983,1357,-39,-167
2423,29,131,966,1356,-31,-164
2424,-14,141,977,1349,-25,-147
2425,-52,166,954,1342,-25,-137
2426,-55,153,963,1339,-32,-140
2427,-11,161,930,1338,-40,-161
2428,36,181,941,1339,-42,-180
2429,38,213,945,1330,-37,-183
2430,10,239,974,1310,-28,-169
2431,-42,248,965,1285,-26,-149
2432,-54,248,958,1260,-28,-137
2433,-26,246,925,1245,-36,-144
2434,14,239,936,1235,-40,-159
2435,46,276,921,1219,-39,-168
2436,42,299,966,1192,-30,-162
2437,-3,326,960,1155,-21,-139
2438,-45,330,967,1121,-19,-113
2439,-57,321,938,1091,-23,-105
2440,-25,321,918,1068,-31,-118
2441,32,323,922,1045,-36,-136
2442,36,356,944,1019,-34,-142
2443,37,370,956,982,-23,-126
2444,-19,384,970,937,-13,-101
2445,-32,394,953,893,-14,-80
2446,-44,370,939,854,-19,-77
2447,1,371,909,825,-25,-90
2448,34,391,925,795,-31,-105
2449,55,419,948,750,-26,-105
2450,20,432,964,701,-18,-91
2451,-28,426,957,652,-13,-69
2452,-52,434,937,607,-11,-56
2453,-8,460,954,567,-13,-59
2454,13,606,1069,512,-21,-73
2455,20,592,964,425,-27,-84
2456,8,489,833,350,-34,-107
2457,13,510,879,298,-46,-118
2458,11,558,981,224,-48,-108
2459,11,515,948,135,-44,-93
2460,24,448,865,57,-49,-80
2461,87,453,869,-1,-52,-75
2462,106,497,938,-57,-36,-81
2463,104,522,965,-122,-5,-86
2464,39,467,939,-186,23,-81
2465,-7,409,922,-227,37,-60
2466,-46,393,933,-242,33,-38
2467,-51,382,936,-248,21,-28
2468,-48,386,931,-247,18,-40
2469,-74,391,934,-248,23,-52
2470,-120,407,975,-259,24,-43
2471,-161,378,947,-287,12,-9
2472,-121,416,978,-315,-8,19
2473,-38,437,997,-366,-18,10
2474,30,366,934,-414,-10,-8
2475,84,345,911,-437,-4,-2
2476,67,392,947,-464,7,20
2477,25,436,990,-505,21,35
2478,-51,402,982,-549,27,31
2479,-62,349,927,-580,16,15
2480,-4,326,923,-601,0,-2
2481,59,342,932,-623,-1,-7
2482,46,361,942,-656,12,3
2483,-4,378,957,-692,23,18
2484,-82,392,976,-724,19,26
2485,-68,381,969,-762,6,24
2486,-26,330,932,-788,-3,9
2487,39,315,921,-812,-5,0
2488,82,332,925,-843,2,8
2489,54,350,955,-874,17,20
2490,-30,375,970,-909,29,32
2491,-83,365,979,-944,23,38
2492,-83,318,933,-973,8,31
2493,-13,287,928,-998,-3,18
2494,38,285,918,-1018,-7,11
2495,61,293,954,-1045,3,21
2496,21,319,945,-1076,18,35
2497,-33,318,991,-1106,25,49
2498,-63,302,953,-1137,18,57
2499,-36,253,951,-1161,8,51
2500,20,213,920,-1182,4,44
2501,66,225,935,-1197,11,48
2502,63,250,956,-1219,23,61
2503,27,262,995,-1260,34,93
2504,-13,232,977,-1306,42,146
2505,-24,207,948,-1343,47,195
2506,-9,185,930,-1370,49,224
2507,3,168,941,-1393,54,242
2508,19,183,948,-1412,61,257
2509,-8,183,968,-1430,67,277
2510,-52,180,973,-1454,68,305
2511,-75,159,973,-1477,64,333
2512,-65,118,935,-1499,58,351
2513,-18,98,928,-1504,54,355
2514,19,91,931,-1508,55,350
2515,12,111,965,-1508,60,349
2516,-12,123,971,-1515,62,355
2517,-55,104,992,-1527,62,369
2518,-61,89,951,-1534,56,380
2519,-42,53,941,-1540,50,382
2520,-9,34,927,-1534,48,371
2521,8,65,953,-1526,47,357
2522,0,81,970,-1524,46,350
2523,-33,81,991,-1523,45,346
2524,-70,73,978,-1525,41,349
2525,-53,35,949,-1527,35,343
2526,-18,12,936,-1518,28,324
2527,4,12,947,-1503,28,299
2528,20,33,967,-1489,24,275
2529,-5,51,990,-1485,25,263
2530,-29,50,986,-1485,28,257
2531,-52,20,983,-1486,25,254
2532,-34,4,938,-1482,20,248
2533,3,-10,954,-1476,16,231
2534,39,8,964,-1468,16,212
2535,24,33,981,-1465,19,202
2536,0,27,994,-1467,22,200
2537,-55,27,981,-1475,25,204
2538,-34,20,964,-1481,22,208
2539,-264,-304,1081,-1484,20,196
2540,-560,-1738,1902,-1085,-121,58
2541,5,316,1239,-564,-227,-165
2542,126,195,274,-803,-81,-450
2543,-69,70,201,-856,-72,-651
2544,1052,-513,1149,-868,79,-560
2545,-159,-1452,1167,-699,328,-499
2546,-935,-295,536,-330,135,-346
2547,16,106,267,-271,-116,-384
2548,317,-434,1170,-293,-59,-422
2549,-186,-300,1018,-259,72,-290
2550,-156,-463,1319,-244,8,-299
2551,163,-45,786,-175,-65,-315
2552,94,78,781,-210,-1,-245
2553,230,-223,1040,-227,19,-251
2554,-6,-223,1199,-150,21,-219
2555,116,213,836,-146,-2,-211
2556,79,-42,1047,-197,30,-206
2557,-153,-1,1026,-188,48,-181
2558,-166,73,1100,-205,8,-190
2559,39,119,1003,-233,-12,-202
2560,-9,115,1038,-273,6,-185
2561,70,98,1029,-310,4,-160
2562,42,26,1125,-337,-2,-123
2563,37,150,1076,-371,-4,-78
2564,11,86,1093,-428,-6,-46
2565,49,121,1073,-469,-5,-20
2566,42,107,1060,-508,-2,-1
2567,82,152,1028,-542,1,17
2568,28,82,1064,-579,10,30
2569,-33,94,1045,-600,13,36
2570,-104,80,1056,-633,9,37
2571,-83,92,1029,-655,-5,27
2572,-59,92,1029,-681,-10,15
2573,16,87,1021,-705,-11,6
2574,53,61,1032,-729,-7,2
2575,23,58,1034,-750,-1,16
2576,-16,31,1035,-774,-1,23
2577,-56,23,1050,-791,-5,28
2578,-43,52,1017,-811,-11,20
2579,4,39,1012,-832,-11,12
2580,23,23,1003,-851,-5,5
2581,21,2,1006,-867,0,8
2582,-17,-18,1012,-878,1,16
2583,-59,-34,1021,-889,-4,20
2584,-74,-18,1016,-900,-11,16
2585,-46,-13,997,-912,-14,5
2586,16,-15,988,-924,-14,-9
2587,41,-33,995,-931,-5,-11
2588,26,-48,982,-942,-1,-5
2589,-14,-77,1008,-948,-1,7
2590,-66,-72,1007,-952,-8,13
2591,-66,-50,999,-960,-15,9
2592,-15,-60,984,-970,-20,-5
2593,17,-58,967,-973,-13,-8
2594,45,-80,970,-980,-8,-8
2595,23,-112,986,-983,-3,4
2596,-26,-136,998,-981,-4,13
2597,-66,-131,992,-980,-10,16
2598,-40,-135,962,-978,-19,11
2599,13,-147,959,-974,-19,4
2600,40,-152,936,-966,-13,3
2601,48,-203,947,-957,-6,10
2602,13,-241,940,-943,-1,20
2603,-39,-261,958,-918,-3,30
2604,-51,-254,954,-900,-11,29
2605,-35,-269,930,-878,-15,23
2606,21,-271,904,-852,-14,14
2607,51,-285,891,-828,-6,16
2608,43,-325,902,-795,2,21
2609,-5,-370,933,-757,6,26
2610,-62,-359,924,-719,5,26
2611,-69,-356,912,-684,-3,21
2612,-29,-352,886,-647,-11,12
2613,4,-360,877,-606,-10,8
2614,43,-377,876,-566,-4,5
2615,12,-414,896,-521,6,6
2616,-36,-424,912,-473,8,7
2617,-68,-423,913,-425,3,2
2618,-50,-413,891,-379,-5,-6
2619,-6,-391,873,-335,-9,-13
2620,32,-393,864,-290,-2,-17
2621,34,-425,885,-243,5,-17
2622,0,-432,890,-194,9,-12
2623,-53,-437,914,-142,9,-9
2624,-63,-409,912,-96,0,-13
2625,-35,-387,900,-54,-6,-21
2626,13,-373,883,-15,-4,-26
2627,51,-377,876,27,3,-29
2628,34,-397,896,69,12,-24
2629,-19,-415,917,113,13,-18
2630,-63,-403,928,160,6,-14
2631,-52,-369,915,195,-2,-17
2632,5,-343,894,233,-5,-25
2633,40,-349,889,267,2,-27
2634,59,-368,890,301,10,-24
2635,17,-390,908,343,16,-17
2636,-30,-388,929,386,16,-8
2637,-67,-370,925,426,7,-7
2638,-46,-346,916,460,1,-12
2639,15,-321,890,494,-1,-21
2640,44,-313,893,527,7,-21
2641,30,-345,910,561,16,-20
2642,-9,-350,928,600,18,-10
2643,-64,-350,936,634,13,-4
2644,-58,-315,925,667,3,-6
2645,-24,-294,917,696,-3,-15
2646,33,-297,891,725,4,-24
2647,54,-300,897,758,12,-23
2648,21,-322,914,789,20,-15
2649,-29,-320,939,827,17,-7
2650,-68,-306,939,859,11,-5
2651,-60,-270,925,886,4,-11
2652,0,-233,906,911,2,-23
2653,32,-257,921,935,10,-31
2654,32,-237,902,961,17,-31
2655,-14,-263,943,986,19,-20
2656,-38,-238,942,1012,13,-15
2657,-66,-211,975,1035,6,-14
2658,-37,-173,929,1047,4,-25
2659,16,-167,930,1061,6,-36
2660,52,-153,924,1078,13,-40
2661,13,-163,950,1090,21,-32
2662,-30,-173,955,1109,17,-33
2663,-64,-173,946,1142,8,-58
2664,-15,-92,932,1170,11,-93
2665,-27,-116,958,1177,26,-124
2666,-16,-117,927,1191,33,-147
2667,-19,-120,931,1210,32,-162
2668,-29,-102,930,1225,30,-163
2669,-69,-115,971,1234,23,-163
2670,-66,-113,993,1241,14,-159
2671,-43,-86,984,1242,8,-157
2672,21,-51,958,1238,7,-158
2673,62,-79,950,1235,13,-156
2674,59,-94,961,1243,20,-140
2675,9,-101,970,1248,23,-120
2676,-36,-102,986,1256,22,-111
2677,-57,-71,970,1262,16,-112
2678,-34,-62,954,1269,11,-120
2679,20,-59,923,1276,13,-134
2680,45,-82,938,1293,19,-145
2681,17,-95,920,1317,24,-153
2682,-16,-121,958,1342,23,-158
2683,-44,-130,937,1368,20,-166
2684,-8,-108,959,1396,20,-178
2685,-524,1437,1642,1324,-42,-172
2686,160,1004,1422,546,-202,-91
2687,236,173,236,316,-115,-63
2688,255,-404,115,337,-152,-46
2689,298,-112,504,391,-129,83
2690,446,-460,491,439,-24,172
2691,318,-347,902,549,118,242
2692,209,976,1691,603,300,257
2693,-961,549,1733,340,227,232
2694,-52,-84,472,273,-43,402
2695,48,-411,229,348,-44,403
2696,87,-245,539,461,10,362
2697,-579,486,1544,504,39,300
2698,-462,192,1558,366,-32,214
2699,-70,-339,600,390,-59,195
2700,105,-394,579,541,-48,170
2701,60,187,1219,619,-40,105
2702,147,18,1435,566,-16,41
2703,66,-363,875,604,1,31
2704,38,-202,852,710,4,62
2705,-26,-57,1061,736,6,20
2706,-26,-161,1076,730,7,-34
2707,-34,-226,912,780,-3,-45
2708,-18,-88,1026,840,-16,-32
2709,-53,-32,1017,843,-14,-27
2710,-67,-91,1005,852,-10,-27
2711,-46,-95,966,880,-22,-30
2712,44,-61,1022,908,-33,-35
2713,104,-45,984,920,-23,-49
2714,74,-44,1008,933,-2,-50
2715,7,-6,971,945,9,-35
2716,-76,13,1020,952,9,-24
2717,-104,6,985,959,-4,-30
2718,-84,-21,984,974,-16,-40
2719,10,-20,954,990,-29,-53
2720,66,10,989,1003,-27,-62
2721,74,39,982,1004,-15,-55
2722,16,52,1005,1001,-2,-40
2723,-52,51,988,1001,3,-25
2724,-70,50,993,1002,-3,-24
2725,-41,28,960,1012,-14,-42
2726,-6,11,963,1033,-22,-70
2727,19,42,975,1059,-23,-99
2728,10,63,1007,1068,-21,-111
2729,-5,52,989,1067,-18,-105
2730,-40,30,992,1078,-17,-97
2731,-45,30,976,1089,-22,-97
2732,-2,16,957,1103,-27,-116
2733,41,5,973,1123,-29,-136
2734,37,44,975,1139,-24,-143
2735,10,70,1002,1145,-18,-136
2736,-51,74,987,1143,-14,-123
2737,-80,75,970,1152,-21,-116
2738,-62,76,968,1160,-31,-128
2739,-11,64,955,1173,-40,-149
2740,42,102,952,1185,-41,-167
2741,43,123,980,1186,-34,-166
2742,11,157,983,1178,-24,-150
2743,-53,159,983,1165,-18,-129
2744,-57,168,962,1156,-23,-117
2745,-33,165,947,1149,-32,-124
2746,9,169,943,1147,-37,-142
2747,36,203,950,1143,-37,-151
2748,35,243,967,1124,-28,-141
2749,-8,268,975,1094,-19,-118
2750,-44,272,971,1065,-16,-96
2751,-60,274,945,1042,-21,-89
2752,-8,274,926,1023,-29,-97
2753,28,290,931,1004,-31,-110
2754,46,326,951,979,-25,-112
2755,17,356,961,943,-16,-99
2756,-31,373,966,896,-11,-72
2757,-42,375,952,852,-10,-56
2758,-25,364,940,811,-17,-53
2759,19,356,915,782,-21,-61
2760,57,379,940,748,-19,-67
2761,52,417,946,703,-8,-58
2762,8,428,975,651,2,-36
2763,-50,429,961,595,7,-8
2764,-71,413,938,551,4,4
2765,-29,402,932,507,-5,-6
2766,13,389,934,472,-12,-17
2767,54,398,935,434,-6,-12
2768,26,420,950,389,4,-1
2769,-26,443,965,344,13,13
2770,-69,439,975,298,8,17
2771,-55,399,941,256,-5,4
2772,12,382,933,223,-14,-11
2773,68,393,917,186,-12,-14
2774,72,416,949,145,1,-6
2775,10,446,968,97,15,10
2776,-62,456,972,50,18,20
2777,-74,447,964,6,7,15
2778,-34,412,926,-35,-6,-2
2779,33,398,918,-73,-9,-13
2780,82,416,935,-115,-4,-9
2781,51,454,943,-162,13,7
2782,-4,472,981,-211,24,19
2783,-72,467,965,-264,22,23
2784,-56,428,950,-309,13,16
2785,-4,404,912,-350,3,1
2786,50,393,930,-386,3,-7
2787,60,415,938,-429,10,-1
2788,20,439,961,-476,23,13
2789,-45,442,965,-523,29,25
2790,-75,425,974,-574,22,31
2791,-58,375,930,-610,11,26
2792,8,334,932,-641,4,12
2793,59,339,924,-672,7,11
2794,56,347,956,-705,16,22
2795,0,359,972,-741,27,34
2796,-66,340,985,-774,28,46
2797,-63,301,957,-807,17,47
2798,-21,252,941,-825,9,39
2799,25,231,929,-836,7,25
2800,54,243,955,-848,13,21
2801,31,257,967,-868,23,28
2802,-23,258,997,-889,29,39
2803,-55,239,985,-911,25,55
2804,-47,203,959,-930,18,64
2805,16,184,937,-945,13,64
2806,59,179,951,-956,18,70
2807,64,197,964,-972,30,87
2808,22,218,985,-989,44,108
2809,-37,220,1003,-1015,48,135
2810,-58,213,969,-1040,42,159
2811,-41,170,946,-1056,36,166
2812,-14,158,931,-1062,32,161
2813,10,189,939,-1066,32,151
2814,0,204,975,-1078,35,142
2815,-40,211,985,-1090,35,143
2816,-65,209,988,-1107,31,153
2817,-54,178,956,-1124,26,158
2818,0,152,937,-1136,20,152
2819,21,144,943,-1140,21,145
2820,48,167,959,-1147,26,138
2821,12,176,989,-1159,33,142
2822,-17,178,990,-1178,39,155
2823,-53,148,983,-1196,38,174
2824,-38,123,948,-1214,34,186
2825,-8,99,935,-1221,32,183
2826,31,108,957,-1221,32,177
2827,11,126,965,-1229,34,176
2828,-8,139,993,-1237,37,182
2829,-58,127,984,-1254,37,193
2830,-57,112,973,-1265,34,204
2831,-33,74,944,-1277,29,204
2832,0,52,949,-1275,28,193
2833,27,79,955,-1270,28,185
2834,8,99,987,-1275,31,182
2835,-23,94,998,-1279,33,183
2836,-65,75,992,-1290,33,193
2837,-40,42,952,-1297,28,199
2838,-9,4,952,-1294,23,192
2839,14,12,959,-1286,23,179
2840,17,17,983,-1275,23,170
2841,2,22,993,-1272,25,168
2842,-37,15,1003,-1273,28,173
2843,-51,-9,988,-1272,24,180
2844,-35,-43,966,-1267,21,182
2845,10,-59,961,-1252,18,170
2846,31,-42,975,-1235,19,156
2847,19,-26,990,-1223,18,147
2848,-16,-7,1014,-1215,22,145
2849,-44,-8,1012,-1212,27,144
2850,-25,-21,1002,-1207,29,139
2851,13,-38,971,-1194,30,121
2852,34,-43,962,-1176,31,94
2853,50,-9,977,-1162,29,70
2854,-178,-151,1079,-1155,33,54
2855,-1011,-1725,1849,-949,-107,1
2856,-105,-267,1558,-472,-299,-113
2857,219,260,617,-581,-118,-355
2858,130,228,376,-682,-22,-619
2859,672,-440,1073,-719,111,-662
2860,-126,-1204,1079,-542,233,-580
2861,-569,-172,573,-199,72,-419
2862,81,324,410,-159,-52,-458
2863,-95,-298,1059,-237,3,-532
2864,-266,-272,1185,-172,22,-472
2865,-96,-100,1272,-183,-33,-470
2866,262,119,891,-215,-44,-468
2867,126,63,900,-271,14,-399
2868,209,-89,1129,-283,6,-334
2869,75,-3,1203,-268,-9,-273
2870,173,313,1018,-321,-4,-235
2871,110,94,1077,-406,33,-230
2872,0,136,1076,-420,44,-197
2873,-39,202,1034,-455,20,-190
2874,2,189,1062,-502,12,-177
2875,-127,136,1098,-554,12,-159
2876,-89,164,1112,-599,-11,-136
2877,0,137,1090,-657,-26,-121
2878,98,189,1073,-710,-22,-83
2879,148,124,1067,-763,-15,-55
2880,144,112,1093,-804,-3,-13
2881,61,90,1052,-844,6,22
2882,-18,69,1059,-873,6,47
2883,-59,77,1018,-901,-1,48
2884,-55,54,1022,-922,-4,40
2885,-21,34,983,-941,-4,22
2886,1,-5,994,-953,-2,21
2887,-16,-31,980,-960,-2,26
2888,-40,-70,1006,-964,-6,33
2889,-61,-70,1004,-962,-12,33
2890,-29,-56,988,-969,-17,25
2891,29,-77,973,-968,-14,12
2892,42,-82,966,-966,-5,13
2893,46,-111,958,-965,2,18
2894,-1,-145,976,-959,4,32
2895,-54,-141,972,-947,0,37
2896,-71,-144,981,-939,-9,34
2897,-46,-136,958,-930,-15,23
2898,10,-127,944,-919,-13,12
2899,48,-144,948,-910,-6,7
2900,26,-169,952,-900,2,12
2901,-19,-187,965,-883,3,22
2902,-68,-183,975,-871,-2,24
2903,-60,-156,965,-857,-11,21
2904,-20,-143,960,-851,-14,10
2905,18,-151,942,-840,-10,3
2906,48,-162,947,-831,-4,3
2907,8,-191,957,-822,2,11
2908,-40,-206,974,-803,-1,18
2909,-81,-201,974,-792,-7,21
2910,-51,-197,953,-778,-15,14
2911,4,-195,947,-763,-16,4
2912,32,-202,923,-747,-11,1
2913,42,-233,933,-732,-6,6
2914,0,-271,944,-709,0,16
2915,-50,-276,954,-683,-2,21
2916,-65,-276,955,-659,-10,18
2917,-44,-272,915,-636,-15,11
2918,2,-283,908,-609,-17,7
2919,49,-298,893,-578,-15,8
2920,33,-355,913,-543,-7,19
2921,-6,-382,914,-503,-6,32
2922,-52,-407,919,-459,-8,37
2923,-40,-396,896,-411,-15,40
2924,-16,-398,877,-362,-20,45
2925,38,-398,854,-309,-24,53
2926,55,-411,874,-260,-18,66
2927,31,-431,887,-210,-9,71
2928,-27,-447,920,-160,-4,69
2929,-65,-445,915,-113,-4,55
2930,-59,-430,886,-65,-6,33
2931,-15,-412,864,-18,-7,16
2932,24,-425,860,32,-3,0
2933,30,-451,879,84,6,-8
2934,-9,-479,879,139,14,-9
2935,-48,-487,893,202,12,-10
2936,-56,-450,882,261,5,-13
2937,-30,-438,875,315,0,-19
2938,34,-422,863,369,-1,-25
2939,65,-419,858,422,9,-25
2940,37,-435,876,476,19,-18
2941,-16,-439,895,531,20,-13
2942,-72,-435,901,585,16,-10
2943,-54,-388,902,634,8,-16
2944,-18,-360,872,677,5,-26
2945,34,-364,876,723,10,-32
2946,44,-358,872,767,18,-31
2947,2,-369,900,814,24,-22
2948,-36,-358,921,856,19,-18
2949,-70,-326,923,899,13,-18
2950,-49,-278,903,933,6,-28
2951,1,-248,893,961,7,-42
2952,26,-239,902,992,13,-51
2953,-1,-247,896,1032,14,-71
2954,9,-211,918,1081,14,-96
2955,-37,-198,947,1110,25,-113
2956,-87,-162,965,1129,30,-130
2957,-78,-134,960,1138,24,-149
2958,-15,-123,931,1148,18,-162
2959,18,-100,930,1157,18,-161
2960,3,-115,959,1160,22,-150
2961,-25,-131,1012,1162,19,-135
2962,-57,-109,1011,1163,13,-120
2963,-29,-55,983,1155,7,-116
2964,28,-36,971,1145,7,-116
2965,63,-49,970,1139,13,-113
2966,57,-64,972,1137,22,-103
2967,4,-72,986,1138,27,-87
2968,-57,-64,992,1139,21,-78
2969,-80,-45,1001,1137,13,-79
2970,-61,-25,972,1131,5,-90
2971,7,-20,954,1126,3,-103
2972,44,-48,967,1129,9,-110
2973,17,-51,965,1133,17,-102
2974,-21,-77,992,1139,16,-94
2975,-64,-81,984,1143,11,-91
2976,-51,-44,973,1148,4,-95
2977,-5,-55,962,1146,3,-104
2978,48,-78,946,1155,9,-111
2979,63,-86,940,1173,17,-116
2980,25,-106,934,1194,26,-119
2981,-16,-126,950,1222,27,-126
2982,-58,-122,940,1252,25,-143
2983,-414,1511,1709,1178,-42,-144
2984,129,917,1349,449,-156,-86
2985,259,129,311,280,-84,-86
2986,244,-376,204,297,-116,-99
2987,329,-183,556,339,-67,-5
2988,425,-446,492,393,34,57
2989,216,-348,862,487,164,122
2990,-414,1047,1849,513,241,180
2991,-791,279,1535,285,62,251
2992,67,-3,374,294,-88,331
2993,36,-267,294,342,-73,226
2994,206,-97,644,415,-11,127
2995,-285,550,1763,458,59,40
2996,-392,194,1294,349,7,67
2997,-58,-173,480,383,-67,132
2998,117,-143,710,483,-45,69
2999,103,387,1260,461,12,11
3000,57,-13,1213,352,20,20
3001,-34,-178,832,399,-2,68
3002,-52,90,929,452,6,103
3003,-82,40,1082,412,6,41
3004,-26,-111,990,398,-9,16
3005,47,-106,916,443,-21,34
3006,58,-1,1087,475,-15,16
3007,-19,15,1004,472,-2,-5
3008,-22,-53,987,476,1,-13
3009,-31,-58,1009,498,-9,-16
3010,-25,-36,1014,513,-13,-10
3011,30,-60,967,515,-13,-22
3012,53,-70,1017,537,-7,-34
3013,29,-8,984,551,-4,-20
3014,-26,-19,1032,553,4,-14
3015,-91,-40,998,565,4,-15
3016,-85,-49,1004,578,-9,-11
3017,-5,-85,983,597,-19,-24
3018,46,-103,1010,621,-19,-34
3019,82,-74,983,638,-10,-29
3020,32,-70,1016,657,4,-24
3021,-44,-50,1018,676,10,-16
3022,-103,-64,1019,695,4,-15
3023,-78,-109,995,719,-10,-26
3024,-13,-116,982,750,-22,-38
3025,51,-94,988,779,-22,-43
3026,54,-75,1008,801,-10,-40
3027,15,-35,1010,821,1,-27
3028,-59,-20,1010,835,4,-17
3029,-76,-17,1001,849,-3,-20
3030,-64,-35,987,869,-17,-34
3031,6,-40,973,893,-26,-49
3032,51,8,968,912,-23,-61
3033,48,24,1003,922,-13,-61
3034,-4,66,996,923,-4,-45
3035,-54,50,1001,920,-4,-27
3036,-57,50,977,920,-9,-21
3037,-26,47,971,926,-18,-26
3038,21,38,965,934,-19,-36
3039,49,70,977,938,-17,-37
3040,29,93,983,935,-7,-25
3041,-26,104,994,926,-3,-12
3042,-82,105,996,928,-1,-5
3043,-73,87,983,929,-15,-10
3044,0,59,953,933,-26,-25
3045,58,60,966,940,-24,-34
3046,68,92,972,943,-13,-26
3047,22,119,998,939,0,-15
3048,-52,132,992,934,7,-9
3049,-76,131,995,934,-3,-12
3050,-51,113,972,935,-18,-26
3051,18,103,947,939,-25,-42
3052,67,131,951,938,-21,-45
3053,48,182,969,928,-8,-33
3054,-3,218,990,913,5,-18
3055,-77,229,994,895,4,-11
3056,-70,227,964,880,-9,-16
3057,-14,213,944,867,-21,-31
3058,46,206,946,854,-22,-43
3059,67,240,946,838,-13,-38
3060,43,280,979,807,2,-23
3061,-24,292,972,779,11,-8
3062,-70,305,992,754,6,-4
3063,-70,290,955,728,-7,-15
3064,4,263,935,705,-18,-32
3065,57,279,931,683,-16,-40
3066,64,314,955,655,-7,-30
3067,21,354,980,617,6,-15
3068,-54,362,980,578,13,-5
3069,-72,368,970,545,5,-4
3070,-35,344,949,510,-10,-16
3071,28,329,925,479,-14,-29
3072,70,346,932,446,-10,-27
3073,54,387,956,405,4,-17
3074,-14,416,984,356,16,-1
3075,-65,416,979,309,15,7
3076,-68,393,952,268,7,-2
3077,1,372,939,231,-8,-16
3078,51,369,924,194,-9,-23
3079,69,387,949,156,-1,-17
3080,26,423,955,104,13,-3
3081,-40,438,982,56,23,11
3082,-75,438,977,7,14,12
3083,-66,396,945,-34,3,3
3084,7,373,928,-74,-5,-7
3085,62,388,921,-115,-2,-9
3086,53,401,956,-161,10,2
3087,-6,430,967,-211,21,20
3088,-72,427,979,-261,23,31
3089,-73,397,962,-307,13,28
3090,-34,360,941,-342,2,16
3091,24,338,920,-374,-2,5
3092,72,344,944,-410,2,4
3093,43,370,953,-449,14,18
3094,-17,384,991,-493,24,33
3095,-72,371,977,-534,22,39
3096,-61,320,960,-570,12,37
3097,-4,301,920,-599,3,25
3098,41,283,947,-620,3,11
3099,53,297,952,-647,9,12
3100,20,306,980,-680,21,26
3101,-35,310,984,-710,24,36
3102,-60,292,981,-744,19,46
3103,-33,238,946,-769,9,47
3104,14,206,944,-784,6,36
3105,49,224,942,-791,12,25
3106,28,242,974,-808,18,20
3107,-12,245,992,-829,22,25
3108,-65,224,994,-851,21,37
3109,-43,207,969,-876,10,52
3110,4,167,942,-894,7,63
3111,37,153,940,-903,10,65
3112,43,183,966,-909,20,61
3113,10,201,988,-924,25,66
3114,-32,184,1003,-944,25,78
3115,-60,163,983,-957,24,95
3116,-52,125,959,-969,18,106
3117,-2,104,947,-974,14,104
3118,34,100,965,-969,15,96
3119,33,103,982,-967,19,93
3120,12,112,997,-972,27,99
3121,-36,93,1002,-978,32,114
3122,-43,88,986,-986,29,137
3123,-25,46,964,-991,25,146
3124,4,24,965,-983,25,143
3125,36,60,965,-971,28,140
3126,12,63,996,-968,33,141
3127,-18,71,1001,-971,37,150
3128,-68,51,1009,-975,38,170
3129,-46,40,975,-977,32,185
3130,-21,12,963,-970,27,185
3131,11,7,964,-957,26,174
3132,15,28,985,-942,28,164
3133,3,55,998,-937,31,163
3134,-38,56,1014,-939,32,171
3135,-50,40,1006,-939,29,181
3136,-45,9,967,-941,25,184
3137,8,0,955,-928,20,175
3138,19,0,972,-915,22,161
3139,20,33,989,-903,24,154
3140,-20,44,1009,-900,26,151
3141,-51,40,1012,-903,26,154
3142,-57,29,985,-902,22,159
3143,-21,1,975,-899,18,154
3144,-3,-12,958,-886,16,139
3145,30,19,975,-873,16,125
3146,1,37,992,-868,16,115
3147,-31,57,1015,-868,16,115
3148,-63,54,1008,-877,14,121
3149,-36,37,982,-882,12,119
3150,-3,34,959,-877,10,104
3151,19,36,965,-876,10,87
3152,16,62,970,-872,8,70
3153,-5,88,1000,-878,8,67
3154,-42,111,1002,-892,8,68
3155,-42,99,1013,-910,8,71
3156,-12,73,958,-927,9,67
3157,36,67,971,-935,10,52
3158,64,84,952,-942,12,39
3159,41,102,991,-956,16,35
3160,14,123,996,-975,22,39
3161,-25,122,1021,-1002,28,47
3162,8,114,986,-1030,32,56
3163,-77,-4,1023,-1054,42,54
3164,-885,-1565,1799,-911,-61,5
3165,-76,-318,1680,-485,-260,-101
3166,268,380,730,-591,-103,-307
3167,151,305,451,-723,3,-548
3168,435,-525,1062,-771,116,-568
3169,-231,-1008,1031,-563,184,-443
3170,-394,-5,691,-276,27,-319
3171,162,419,518,-303,-47,-377
3172,-3,-290,1070,-408,14,-461
3173,-200,-358,1121,-323,33,-379
3174,-221,-33,1172,-293,-26,-335
3175,168,130,937,-336,-59,-355
3176,49,44,997,-396,-1,-318
3177,193,0,1093,-408,-3,-285
3178,129,47,1122,-402,-6,-257
3179,174,275,977,-439,7,-226
3180,17,65,1086,-504,33,-224
3181,-94,107,1100,-515,32,-201
3182,-139,201,1049,-548,7,-203
3183,-8,212,1049,-602,-8,-213
3184,-16,154,1064,-656,-6,-218
3185,69,132,1091,-699,-6,-189
3186,36,129,1064,-745,-8,-154
3187,40,120,1109,-790,-9,-104
3188,2,110,1076,-843,-10,-65
3189,27,115,1101,-888,-13,-34
3190,51,126,1022,-933,-13,-23
3191,75,93,1049,-972,-6,-5
3192,35,56,1007,-1000,0,9
3193,-30,3,1031,-1018,4,28
3194,-77,15,1002,-1028,-5,29
3195,-94,-2,1017,-1048,-10,26
3196,-41,0,984,-1059,-18,3
3197,6,-27,994,-1068,-14,-5
3198,51,-19,963,-1076,-10,-6
3199,24,-60,996,-1084,-5,7
3200,-9,-71,993,-1088,-6,12
3201,-63,-77,1020,-1091,-7,18
3202,-43,-45,981,-1099,-15,11
3203,3,-62,983,-1106,-15,2
3204,28,-55,958,-1110,-10,-2
3205,36,-88,964,-1116,-2,2
3206,8,-126,976,-1114,-1,12
3207,-43,-132,998,-1109,-3,21
3208,-65,-107,983,-1107,-11,20
3209,-37,-117,974,-1113,-16,9
3210,11,-109,952,-1107,-14,-1
3211,41,-111,946,-1108,-8,-3
3212,29,-153,955,-1105,-4,2
3213,-11,-175,969,-1095,1,12
3214,-66,-174,980,-1089,-5,17
3215,-59,-163,970,-1080,-14,11
3216,-32,-160,958,-1077,-18,4
3217,14,-167,926,-1071,-16,-4
3218,57,-192,929,-1061,-9,-4
3219,21,-224,942,-1048,-1,4
3220,-22,-251,956,-1029,-1,10
3221,-71,-258,965,-1012,-6,13
3222,-47,-253,936,-997,-16,9
3223,-4,-258,919,-979,-20,2
3224,26,-278,897,-957,-15,-1
3225,43,-317,897,-929,-8,0
3226,15,-354,913,-897,0,9
3227,-32,-380,923,-862,1,13
3228,-62,-387,929,-824,-7,13
3229,-40,-375,887,-787,-15,6
3230,7,-379,874,-751,-16,2
3231,52,-391,858,-710,-10,-2
3232,43,-436,878,-665,1,3
3233,3,-455,895,-613,6,5
3234,-57,-468,910,-565,5,6
3235,-60,-432,889,-515,-4,3
3236,-29,-428,878,-472,-10,-4
3237,18,-423,858,-423,-7,-9
3238,43,-440,866,-379,0,-8
3239,25,-458,873,-329,7,-4
3240,-22,-490,911,-274,10,0
3241,-65,-464,902,-224,4,0
3242,-53,-454,886,-176,-5,-3
3243,4,-435,865,-131,-9,-11
3244,44,-442,859,-83,-3,-11
3245,52,-460,867,-30,5,-7
3246,14,-481,881,17,15,0
3247,-35,-488,904,74,16,1
3248,-66,-467,902,125,10,-2
3249,-51,-451,878,174,4,-7
3250,12,-442,857,221,2,-11
3251,44,-443,848,270,7,-13
3252,30,-476,871,323,14,-9
3253,-17,-490,899,379,15,-3
3254,-69,-483,886,434,9,-1
3255,-59,-456,896,487,1,-5
3256,-12,-423,858,534,-1,-15
3257,37,-431,857,578,4,-20
3258,61,-435,859,630,13,-21
3259,15,-443,881,681,21,-12
3260,-25,-435,906,729,17,-8
3261,-72,-415,914,777,11,-6
3262,-56,-366,888,819,4,-12
3263,-6,-341,877,851,3,-21
3264,36,-328,879,887,9,-29
3265,14,-327,906,922,17,-27
3266,-20,-323,917,953,20,-21
3267,-59,-314,949,985,13,-19
3268,-69,-241,943,1009,4,-20
3269,-35,-205,940,1023,-2,-29
3270,34,-193,929,1033,2,-38
3271,55,-177,931,1047,13,-36
3272,30,-191,956,1057,20,-26
3273,-15,-196,982,1066,16,-15
3274,-67,-178,980,1076,8,-6
3275,-48,-136,970,1076,3,-9
3276,0,-121,949,1079,0,-18
3277,33,-137,950,1082,7,-23
3278,36,-143,941,1086,15,-20
3279,3,-178,964,1093,17,-11
3280,-34,-178,973,1102,12,-2
3281,-59,-160,975,1112,3,2
3282,-36,-144,949,1120,0,-5
3283,21,-139,929,1125,4,-18
3284,55,-151,933,1140,13,-24
3285,20,-167,946,1151,20,-16
3286,-26,-180,962,1167,19,-6
3287,-61,-175,967,1182,10,-3
3288,-62,-133,948,1196,4,-9
3289,-32,-127,926,1210,1,-33
3290,49,-132,902,1236,2,-68
3291,77,-145,902,1266,19,-88
3292,13,-184,932,1289,33,-101
3293,-46,-203,941,1322,30,-106
3294,-85,-196,941,1348,25,-113
3295,-58,-164,901,1372,17,-127
3296,4,-150,903,1391,11,-142
3297,52,-189,900,1416,15,-156
3298,56,-210,900,1451,22,-158
3299,17,-214,899,1488,28,-153
3300,-49,-225,913,1524,30,-152
3301,-69,-185,910,1566,23,-164
3302,-47,-156,883,1598,17,-196
3303,26,-128,858,1635,14,-240
3304,60,-140,870,1673,21,-285
3305,-25,-69,883,1720,31,-318
3306,-417,1701,1768,1540,-67,-288
3307,-142,852,909,436,-180,-175
3308,74,265,232,247,-158,-215
3309,-61,-200,-9,248,-249,-262
3310,259,-23,574,259,-231,-181
3311,302,-121,473,273,-135,-178
3312,137,-321,738,303,-2,-116
3313,294,246,374,332,117,-36
3314,509,-24,1336,311,252,-65
3315,110,1152,1903,308,454,-131
3316,-978,561,1655,105,205,149
3317,-56,25,357,89,-163,385
3318,-145,-183,343,147,-172,326
3319,468,92,708,194,-96,269
3320,245,454,1695,226,160,62
3321,-703,291,1311,138,191,65
3322,-321,-151,572,94,-58,287
3323,66,-234,753,208,-73,276
3324,-164,388,1184,241,28,151
3325,-101,176,1136,105,20,66
3326,21,-362,878,123,-49,76
3327,41,59,939,239,-32,141
3328,-22,185,1148,200,-5,101
3329,52,-163,1020,157,-7,43
3330,67,-151,862,216,-10,67
3331,117,-21,1098,248,9,68
3332,-53,-59,1031,241,22,44
3333,-58,-116,957,251,11,65
3334,-90,-139,998,275,-4,69
3335,-94,-136,1059,309,-9,60
3336,-21,-151,968,334,-23,42
3337,94,-212,1044,383,-26,10
3338,79,-162,1017,437,-10,-8
3339,61,-141,1047,462,5,-8
3340,-29,-199,1005,496,10,-21
3341,-78,-180,1023,537,4,-20
3342,-62,-187,999,573,-10,-29
3343,1,-199,1028,615,-18,-46
3344,43,-151,971,651,-15,-44
3345,39,-132,1031,680,-6,-37
3346,-17,-102,1006,704,3,-30
3347,-90,-85,1029,727,2,-21
3348,-65,-103,996,749,-8,-26
3349,-22,-119,1000,779,-18,-39
3350,55,-105,980,807,-20,-44
3351,70,-85,1008,829,-10,-42
3352,27,-46,981,845,7,-30
3353,-52,-36,1018,857,12,-21
3354,-93,-26,1014,874,3,-21
3355,-88,-45,993,891,-11,-28
3356,4,-54,958,911,-25,-42
3357,48,-36,988,931,-23,-52
3358,64,14,989,943,-11,-45
3359,16,39,996,944,0,-32
3360,-50,56,993,944,6,-20
3361,-81,64,989,947,-2,-20
3362,-50,56,989,950,-17,-30
3363,15,35,958,954,-23,-43
3364,65,71,964,962,-18,-45
3365,48,111,984,957,-5,-37
3366,-3,132,997,943,4,-20
3367,-67,132,983,929,6,-9
3368,-73,127,979,922,-4,-11
3369,-16,132,962,916,-17,-25
3370,41,112,967,909,-19,-39
3371,69,153,957,903,-11,-38
3372,38,194,978,885,3,-24
3373,-21,209,980,861,11,-15
3374,-77,225,992,840,5,-12
3375,-69,209,966,817,-6,-17
3376,-9,193,943,805,-15,-31
3377,54,192,940,793,-16,-40
3378,44,216,965,777,-6,-40
3379,26,253,997,755,2,-31
3380,-42,237,997,724,7,-24
3381,-47,216,969,705,1,-22
3382,-48,163,953,693,-7,-36
3383,8,161,951,695,-14,-59
3384,42,182,968,691,-18,-74
3385,55,189,991,672,-10,-69
3386,-1,198,985,655,1,-49
3387,-50,195,991,631,6,-24
3388,-67,189,970,612,0,-17
3389,-19,167,975,601,-8,-20
3390,18,162,956,596,-10,-31
3391,40,179,975,593,-7,-34
3392,6,196,972,586,0,-31
3393,-42,227,997,577,4,-30
3394,-70,208,1004,560,-6,-33
3395,-54,181,957,552,-16,-44
3396,-6,165,935,554,-22,-66
3397,40,204,956,557,-26,-88
3398,45,245,986,545,-21,-94
3399,23,276,995,516,-11,-84
3400,-33,290,976,486,-5,-65
3401,-48,295,968,455,-6,-50
3402,-37,293,949,428,-13,-50
3403,10,281,940,404,-17,-62
3404,50,308,958,380,-17,-70
3405,33,342,970,345,-8,-60
3406,7,355,986,301,2,-35
3407,-43,353,975,252,8,-12
3408,-49,330,953,214,6,1
3409,-18,320,943,182,-1,-3
3410,23,319,955,156,-5,-13
3411,47,322,956,124,-3,-11
3412,17,334,963,88,9,0
3413,-44,346,975,54,14,12
3414,-74,342,988,17,6,16
3415,-58,302,960,-11,-5,6
3416,19,272,941,-34,-12,-9
3417,64,283,949,-55,-8,-9
3418,59,311,962,-83,3,2
3419,-5,327,989,-120,16,14
3420,-74,332,986,-149,17,21
3421,-77,313,970,-179,7,18
3422,-26,274,949,-202,-5,3
3423,30,259,945,-221,-9,-7
3424,69,278,954,-247,-3,0
3425,37,299,967,-273,10,11
3426,-29,327,1000,-304,17,23
3427,-77,315,979,-334,15,27
3428,-54,269,966,-361,3,16
3429,1,252,947,-378,-5,4
3430,63,254,946,-396,-5,-2
3431,69,265,977,-419,6,2
3432,19,291,972,-444,19,16
3433,-48,294,989,-474,25,28
3434,-72,270,983,-500,16,26
3435,-57,228,954,-517,5,16
3436,18,209,952,-530,-3,4
3437,65,219,955,-543,0,0
3438,61,243,976,-561,13,11
3439,-7,255,987,-585,24,20
3440,-70,246,997,-605,22,23
3441,-69,221,970,-625,11,19
3442,-11,189,953,-634,3,7
3443,36,176,960,-643,2,-3
3444,67,193,968,-656,8,2
3445,31,219,974,-674,22,11
3446,-38,225,996,-692,29,18
3447,-80,223,993,-708,20,21
3448,-66,178,966,-726,8,14
3449,5,156,943,-733,0,-1
3450,52,166,962,-737,3,-4
3451,57,180,974,-754,13,5
3452,10,201,989,-769,25,15
3453,-62,205,994,-790,28,23
3454,-72,183,976,-807,16,25
3455,-42,135,962,-817,4,16
3456,12,124,948,-818,-1,4
3457,61,153,960,-823,1,-1
3458,37,162,990,-838,10,4
3459,-20,184,982,-852,20,15
3460,-75,174,1004,-871,18,21
3461,-62,152,967,-887,7,22
3462,-7,134,951,-897,-1,17
3463,25,123,951,-902,1,5
3464,44,173,970,-911,5,-1
3465,17,200,988,-930,13,1
3466,-28,207,988,-954,18,9
3467,-71,200,977,-978,13,16
3468,-51,173,949,-1000,4,13
3469,9,154,946,-1016,-2,4
3470,65,163,957,-1033,2,2
3471,49,175,965,-1054,12,10
3472,3,185,987,-1080,21,23
3473,-43,191,990,-1115,22,41
3474,-41,148,962,-1151,18,69
3475,-18,110,928,-1179,18,90
3476,-9,104,942,-1190,21,95
3477,20,131,970,-1204,18,94
3478,1,126,979,-1222,20,91
3479,-29,117,978,-1237,24,100
3480,-77,85,981,-1254,20,112
3481,-56,64,947,-1265,12,115
3482,-12,27,957,-1271,7,105
3483,21,32,961,-1267,5,89
3484,29,47,983,-1264,8,77
3485,11,55,987,-1270,12,74
3486,-40,50,983,-1274,14,79
3487,-60,32,969,-1289,11,90
3488,-47,4,954,-1294,6,89
3489,0,0,972,-1292,1,80
3490,45,8,974,-1290,2,70
3491,37,15,986,-1289,11,65
3492,-7,27,984,-1294,17,70
3493,-396,-826,1396,-1272,13,68
3494,-386,-1354,1892,-733,-142,-39
3495,-97,304,863,-542,-141,-198
3496,-169,123,89,-690,-107,-458
3497,156,-268,584,-694,-111,-548
3498,1012,-456,1179,-657,80,-452
3499,-355,-997,1106,-558,313,-410
3500,-736,-337,428,-325,114,-355
3501,-33,-364,801,-215,-105,-343
3502,173,-223,997,-156,-50,-285
3503,-103,-84,889,-199,33,-239
3504,231,-486,1198,-177,-7,-304
3505,29,-124,929,-104,-2,-294
3506,19,16,815,-129,18,-264
3507,17,-317,1029,-136,22,-302
3508,-80,-183,1001,-47,18,-267
3509,3,70,863,-39,-6,-270
3510,173,-92,1067,-61,9,-292
3511,-9,-138,962,-51,41,-277
3512,-32,-81,972,-23,20,-241
3513,0,-50,951,-7,-6,-220
3514,27,-17,1032,-10,0,-191
3515,52,-15,1002,-24,6,-183
3516,81,-46,1055,-22,8,-174
3517,76,25,946,-33,14,-162
3518,45,-73,1025,-40,25,-135
3519,-40,-38,983,-32,18,-103
3520,-73,-5,1042,-32,5,-80
3521,-8,10,1003,-50,-8,-82
3522,15,-6,1041,-65,1,-78
3523,43,0,973,-72,3,-75
3524,36,-28,1023,-82,9,-56
3525,2,-32,992,-83,4,-39
3526,-59,-52,1042,-89,6,-21
3527,-40,-18,1000,-96,-5,-18
3528,-18,-40,1010,-104,-6,-14
3529,37,-28,975,-107,-4,-13
3530,54,-64,988,-105,-1,-5
3531,27,-72,991,-99,2,7
3532,-27,-93,995,-95,5,17
3533,-71,-87,983,-82,0,15
3534,-51,-88,977,-77,-3,5
3535,1,-77,963,-65,-4,-10
3536,24,-87,969,-55,0,-11
3537,42,-92,973,-45,1,-7
3538,1,-111,981,-33,3,5
3539,-36,-108,992,-20,2,11
3540,-52,-92,981,-11,-2,8
3541,-32,-92,979,1,0,-2
3542,22,-76,957,13,1,-14
3543,38,-87,977,22,6,-12
3544,29,-86,982,31,7,-4
3545,-26,-92,994,43,7,7
3546,-60,-76,985,49,3,8
3547,-47,-53,990,59,1,0
3548,-18,-48,986,61,1,-15
3549,18,-53,980,64,3,-20
3550,50,-54,981,72,4,-18
3551,6,-54,996,72,8,-2
3552,-34,-54,1003,77,6,4
3553,-66,-44,1015,78,3,3
3554,-46,-11,986,79,2,-9
3555,8,-10,993,76,0,-20
3556,40,-15,997,75,3,-19
3557,32,-13,1008,73,6,-7
3558,3,-33,1010,67,6,4
3559,-42,-30,1016,66,5,10
3560,-61,-10,1009,63,4,5
3561,-30,-21,996,58,3,-6
3562,25,-9,990,60,3,-12
3563,53,-24,1000,55,6,-9
3564,32,-35,1002,53,9,5
3565,-11,-45,1011,52,10,17
3566,-45,-42,1000,53,8,18
3567,-38,-22,1003,55,7,11
3568,8,-14,993,53,8,-2
3569,30,-32,987,52,13,-4
3570,42,-19,988,53,13,4
3571,13,-43,1001,50,14,18
3572,-24,-40,1023,52,12,27
3573,-47,-21,1011,50,12,25
3574,-14,-21,999,50,14,14
3575,39,-6,992,48,17,5
3576,53,-23,998,47,23,6
3577,52,-31,1012,47,26,18
3578,21,-50,1005,47,27,28
3579,33,-66,1013,58,27,24
3580,95,-53,1048,70,39,17
3581,124,-62,1062,79,70,5
3582,188,-61,1082,88,106,-16
3583,228,-63,1060,96,149,-31
3584,212,-83,1082,113,196,-36
3585,165,-72,1077,125,239,-38
3586,128,-81,1099,136,275,-40
3587,154,-45,1085,144,309,-52
3588,183,-40,1087,146,351,-58
3589,213,-41,1055,149,392,-69
3590,187,-55,1068,156,432,-70
3591,143,-51,1045,166,466,-64
3592,77,-64,1078,170,491,-55
3593,62,-40,1050,172,510,-51
3594,69,-42,1055,169,529,-48
3595,123,-14,1029,169,548,-48
3596,123,-36,1021,166,573,-47
3597,101,-50,1025,167,593,-36
3598,38,-71,1023,172,606,-21
3599,9,-60,1022,178,615,-10
3600,0,-58,1028,176,623,-5
3601,37,-44,1006,183,631,-4
3602,42,-3,1039,182,644,-4
3603,-36,189,1167,163,640,5
3604,17,299,1158,92,624,53
3605,94,299,1039,7,640,107
3606,-3,217,1029,-54,672,133
3607,-48,65,1028,-94,674,123
3608,14,-68,999,-86,658,104
3609,91,-77,948,-59,662,100
3610,68,-85,972,-48,684,106
3611,-31,-110,1021,-34,701,106
3612,-102,-98,1039,-19,704,106
3613,-88,-74,998,-10,705,105
3614,-46,-62,963,3,709,98
3615,-1,-10,959,17,712,90
3616,6,18,994,23,722,77
3617,-20,44,1035,17,732,71
3618,-66,70,1040,1,741,76
3619,-91,49,1029,-24,745,84
3620,-85,31,997,-36,743,90
3621,-50,-10,969,-42,742,93
3622,-7,-24,959,-37,741,97
3623,2,-18,957,-26,742,108
3624,-39,-10,984,-20,746,116
3625,-102,-1,997,-23,746,125
3626,-144,-19,1002,-25,738,128
3627,-105,-27,977,-27,728,125
3628,-60,-24,945,-18,721,124
3629,-28,-6,936,-9,718,121
3630,-60,14,966,-11,720,114
3631,-123,21,1008,-19,718,113
3632,-188,8,1023,-37,712,116
3633,-190,-18,988,-44,700,118
3634,-146,-41,937,-44,685,123
3635,-84,-30,908,-31,672,123
3636,-59,-36,931,-19,665,124
3637,-104,-24,979,-13,661,127
3638,-168,-19,1005,-14,659,131
3639,-211,-31,1021,-27,656,135
3640,-194,-37,975,-31,646,138
3641,-143,-61,950,-28,637,141
3642,-101,-58,924,-19,631,144
3643,-130,-37,954,-10,625,144
3644,-162,-36,974,-13,614,150
3645,-224,-25,983,-19,606,165
3646,-256,-28,975,-27,595,178
3647,-224,-39,946,-38,578,187
3648,-165,-44,926,-32,560,190
3649,-149,-33,916,-29,548,190
3650,-150,-18,935,-25,539,190
3651,-246,-17,967,-25,534,189
3652,-357,-5,986,-35,505,190
3653,-353,-18,918,-38,458,194
3654,-278,-46,855,-37,407,193
3655,-205,-36,822,-22,362,192
3656,-173,-19,853,-9,330,189
3657,-215,0,895,-8,309,180
3658,-294,29,942,-15,290,178
3659,-365,49,983,-35,263,170
3660,-361,39,975,-53,228,155
3661,-290,14,932,-64,190,139
3662,-190,-12,888,-61,154,121
3663,-124,-25,883,-51,130,110
3664,-146,-19,903,-42,119,109
3665,-215,-21,958,-36,117,115
3666,-313,-4,1011,-33,110,120
3667,-319,22,1008,-36,93,112
3668,-244,27,966,-40,64,91
3669,-159,6,919,-43,45,72
3670,-104,-6,906,-40,39,69
3671,-138,-23,932,-37,43,83
3672,-237,-32,992,-32,51,101
3673,-317,0,1030,-28,45,111
3674,-309,2,1006,-37,28,104
3675,-217,11,951,-41,7,87
3676,-138,-8,911,-42,-4,71
3677,-135,-34,906,-41,-4,71
3678,-214,-49,930,-36,-1,89
3679,-343,-51,973,-31,-5,106
3680,-389,-24,989,-29,-31,105
3681,-342,-16,949,-31,-64,85
3682,-236,-24,881,-32,-92,59
3683,-168,-46,867,-26,-104,44
3684,-221,-65,893,-15,-103,53
3685,-353,-46,977,-5,-111,69
3686,-440,-18,1007,-7,-136,71
3687,-378,-6,960,-9,-170,54
3688,-239,-7,896,-13,-194,29
3689,-163,-34,874,-7,-200,16
3690,-188,-29,933,5,-198,21
3691,-301,1,999,10,-206,33
3692,-343,36,1018,1,-225,35
3693,-294,20,973,-15,-248,30
3694,-219,16,916,-17,-260,33
3695,-186,0,918,-20,-266,28
3696,-192,4,939,-15,-277,23
3697,-240,0,967,-14,-291,18
3698,-282,1,964,-16,-312,15
3699,-313,1,941,-19,-333,12
3700,-287,-6,919,-23,-358,5
3701,-241,-14,901,-16,-384,-7
3702,-213,-17,896,-10,-407,-17
3703,-217,7,920,-6,-426,-22
3704,-272,25,939,-10,-449,-19
3705,-324,39,961,-23,-477,-14
3706,-325,22,928,-32,-509,-14
3707,-281,0,908,-34,-538,-26
3708,-224,-5,880,-26,-563,-46
3709,-199,-15,915,-13,-580,-60
3710,-217,1,930,-8,-598,-63
3711,-260,2,956,-16,-623,-57
3712,-291,-1,947,-27,-651,-51
3713,-274,-16,929,-31,-676,-52
3714,-231,-36,908,-26,-699,-63
3715,-183,-46,900,-16,-718,-79
3716,-161,-34,909,-1,-731,-90
3717,-204,-19,955,6,-746,-91
3718,-231,-4,966,4,-766,-87
3719,-235,-8,974,-4,-786,-82
3720,-174,-2,959,-7,-800,-87
3721,-126,-7,951,0,-803,-109
3722,-81,-15,963,8,-799,-139
3723,-80,-9,975,23,-795,-161
3724,-90,25,1000,25,-797,-162
3725,-107,39,1018,15,-799,-155
3726,-90,37,1019,-1,-798,-148
3727,-72,12,997,-10,-790,-156
3728,-28,0,977,-6,-779,-180
3729,-27,-4,976,3,-767,-203
3730,-58,-2,983,13,-762,-215
3731,-96,14,1002,13,-769,-207
3732,-128,13,996,-1,-775,-193
3733,-109,9,984,-11,-780,-190
3734,-94,-12,966,-13,-779,-206
3735,-69,-13,945,-2,-779,-231
3736,-69,2,947,11,-782,-251
3737,-106,32,956,13,-793,-254
3738,-141,52,984,3,-811,-243
3739,-150,41,975,-15,-830,-231
3740,-130,15,961,-23,-841,-232
3741,-97,-12,946,-22,-847,-255
3742,-85,-31,942,-7,-852,-280
3743,-90,-13,955,5,-862,-292
3744,-118,-12,956,2,-875,-285
3745,-133,-11,969,-3,-895,-265
3746,-128,-23,961,-17,-913,-245
3747,-100,-49,946,-18,-923,-245
3748,-74,-74,939,-11,-932,-256
3749,-43,-62,928,6,-941,-263
3750,-55,-39,951,14,-958,-250
3751,-58,-10,972,2,-978,-217
3752,-73,-25,985,-12,-991,-186
3753,-36,-33,981,-22,-996,-172
3754,-6,-51,973,-14,-994,-189
3755,25,-39,981,2,-986,-213
3756,856,138,1407,15,-959,-213
3757,1481,645,1742,-140,-450,-139
3758,-406,85,420,-327,-79,-312
3759,-159,-187,232,-310,-247,-502
3760,-143,-835,1023,-259,-235,-415
3761,-26,-661,764,-18,-190,-417
3762,-363,-540,882,94,-219,-416
3763,-202,-415,704,170,-288,-359
3764,-35,-352,1248,242,-339,-350
3765,284,280,1541,229,-355,-294
3766,-286,342,1102,78,-378,-239
3767,-271,326,866,0,-460,-241
3768,-282,162,1041,-38,-525,-253
3769,-95,192,1082,-47,-550,-249
3770,-212,76,1032,-79,-587,-241
3771,-155,-24,1025,-73,-629,-224
3772,-231,-30,1003,-60,-670,-198
3773,-128,-72,1094,-40,-709,-171
3774,-206,-24,991,-36,-755,-140
3775,-101,-42,1040,-32,-805,-96
3776,-96,-20,986,-27,-844,-69
3777,-44,-14,1022,-22,-866,-32
3778,-67,17,964,-22,-886,5
3779,-37,6,1060,-25,-901,37
3780,-60,37,979,-30,-915,56
3781,-9,10,1034,-38,-936,65
3782,16,27,940,-45,-950,64
3783,65,-20,1007,-43,-957,62
3784,73,-1,956,-43,-955,57
3785,55,-37,1008,-37,-950,61
3786,51,4,971,-32,-952,61
3787,47,-10,1019,-34,-960,53
3788,70,22,955,-34,-967,34
3789,93,12,981,-46,-969,13
3790,104,17,931,-49,-961,-10
3791,96,-3,993,-54,-947,-29
3792,92,5,979,-51,-936,-48
3793,71,-8,1014,-54,-937,-63
3794,100,21,986,-57,-943,-78
3795,101,7,971,-67,-942,-86
3796,120,10,938,-75,-932,-88
3797,129,-4,941,-79,-912,-91
3798,148,-15,984,-74,-890,-93
3799,124,2,998,-71,-878,-90
3800,119,-4,1007,-71,-874,-82
3801,120,-1,976,-76,-873,-78
3802,137,-8,939,-77,-865,-72
3803,146,-21,936,-75,-849,-67
3804,156,-39,964,-67,-826,-62
3805,130,-43,993,-55,-808,-64
3806,114,-30,1008,-53,-802,-66
3807,113,-25,995,-54,-809,-69
3808,113,-45,975,-59,-815,-67
3809,132,-59,937,-55,-813,-62
3810,140,-81,945,-44,-806,-55
3811,138,-67,968,-28,-794,-45
3812,134,-37,1010,-17,-790,-36
3813,118,-24,1016,-19,-795,-31
3814,134,-5,986,-23,-805,-27
3815,153,-15,959,-27,-809,-20
3816,167,-25,929,-25,-801,-12
3817,190,-34,954,-18,-785,-2
3818,189,-25,976,-13,-768,13
3819,207,-16,1017,-10,-756,30
3820,219,-20,1008,-19,-744,53
3821,199,-34,933,-17,-722,71
3822,229,-29,909,-12,-705,78
3823,277,-28,936,-8,-678,92
3824,298,-21,980,-4,-640,109
3825,270,-13,982,-9,-593,125
3826,251,-24,961,-11,-553,131
3827,260,-21,956,-12,-524,126
3828,275,-33,938,-15,-495,119
3829,300,-43,939,-15,-464,109
3830,307,-55,932,-11,-431,106
3831,300,-68,958,-2,-392,108
3832,285,-61,983,4,-354,112
3833,259,-45,977,12,-323,109
3834,257,-24,959,11,-303,99
3835,273,-11,930,5,-284,85
3836,282,-28,940,2,-260,76
3837,278,-27,950,-4,-232,68
3838,240,-26,975,-2,-206,60
3839,229,-1,1001,-3,-187,45
3840,228,-8,997,-11,-178,27
3841,226,-25,964,-18,-173,10
3842,233,-45,932,-23,-169,-5
3843,253,-57,931,-22,-159,-12
3844,253,-65,964,-17,-141,-11
3845,256,-51,994,-6,-123,-5
3846,246,-37,1005,-2,-110,-1
3847,253,-7,973,-1,-103,1
3848,267,-9,935,-5,-96,6
3849,295,-16,936,-6,-86,10
3850,312,-1,931,-1,-65,20
3851,316,-5,975,4,-39,37
3852,314,20,985,7,-15,54
3853,288,13,987,4,6,73
3854,299,16,942,-1,21,83
3855,315,4,931,-1,39,92
3856,341,3,926,-1,65,105
3857,350,-17,955,1,104,123
3858,338,-18,974,7,146,147
3859,322,-20,968,10,186,174
3860,337,-14,956,14,218,194
3861,327,-22,932,19,249,208
3862,355,-13,917,24,281,223
3863,366,-8,928,29,319,234
3864,361,-21,962,34,363,250
3865,328,0,972,41,403,268
3866,294,-3,972,39,435,278
3867,278,14,944,39,457,277
3868,287,12,939,33,474,272
3869,290,3,942,25,492,262
3870,283,-17,959,19,516,252
3871,244,-39,968,16,541,241
3872,215,-50,986,22,560,227
3873,188,-52,978,24,574,206
3874,181,-55,958,25,580,182
3875,209,-52,951,22,583,158
3876,207,-60,960,20,593,142
3877,218,-75,975,24,608,130
3878,186,-78,991,32,626,123
3879,168,-59,970,40,640,118
3880,173,-41,973,44,645,113
3881,187,-24,955,42,649,112
3882,218,-15,962,41,657,113
3883,232,-16,958,40,674,119
3884,224,-19,973,44,697,135
3885,204,-3,980,49,719,157
3886,187,-8,978,49,737,177
3887,195,15,959,50,745,191
3888,212,28,954,44,755,203
3889,229,8,948,43,770,208
3890,225,-6,968,41,792,222
3891,199,-13,961,43,818,240
3892,177,-5,986,48,837,259
3893,166,0,978,48,849,271
3894,170,14,965,48,855,275
3895,189,16,955,42,867,276
3896,185,8,941,36,889,275
3897,187,-13,962,35,916,281
3898,161,-33,969,35,942,294
3899,158,-44,985,43,957,308
3900,148,-25,969,49,965,323
3901,156,-10,956,54,973,332
3902,171,-8,946,55,987,336
3903,182,-11,943,50,1015,344
3904,162,-20,948,52,1048,358
3905,156,-23,979,55,1079,379
3906,133,-19,965,59,1103,398
3907,149,0,966,65,1118,409
3908,166,24,935,61,1134,416
3909,178,17,944,55,1160,426
3910,180,18,939,47,1192,435
3911,158,4,953,42,1233,453
3912,147,18,949,45,1266,466
3913,140,5,965,42,1295,472
3914,149,18,931,42,1319,474
3915,176,15,939,40,1342,472
3916,141,31,917,33,1377,466
3917,114,8,962,30,1403,456
3918,98,-24,963,29,1427,452
3919,64,-22,958,36,1449,443
3920,51,9,936,40,1459,429
3921,66,23,958,31,1464,407
3922,96,15,966,24,1473,383
3923,80,-7,948,15,1484,366
3924,-84,3,969,18,1495,345
3925,-1782,195,1811,-12,1009,199
3926,-787,59,449,-192,-212,44
3927,-82,-259,463,-85,-205,-105
3928,-329,-145,169,-4,-233,-178
3929,367,-85,452,41,-161,-119
3930,203,-506,584,118,-56,-213
3931,275,-255,644,234,86,-125
3932,477,-4,402,281,238,-63
3933,-390,471,1396,314,359,-116
3934,-1275,1557,1838,-86,58,-89
3935,586,-231,1074,-489,-179,-39
3936,915,-529,575,-361,17,-80
3937,550,-384,780,-174,234,21
3938,-125,-724,1347,-26,322,-1
3939,-228,-263,1766,165,257,-169
3940,604,139,795,149,361,-232
3941,416,67,1144,94,518,-268
3942,267,170,1245,60,538,-166
3943,278,207,1200,-18,561,-30
3944,346,151,1117,-76,668,4
3945,-141,0,1135,-117,748,20
3946,15,-108,946,-128,706,34
3947,56,-317,918,-62,707,-15
3948,-30,-87,956,13,744,-66
3949,-118,-123,967,16,740,-98
3950,-37,-98,1016,37,705,-59
3951,-131,69,947,24,698,-7
3952,-82,2,968,-21,692,19
3953,-93,-99,949,-23,672,27
3954,-37,1,969,3,660,33
3955,-13,-23,951,0,663,2
3956,-49,-28,1034,7,669,-3
3957,-85,-2,1004,8,660,10
3958,-51,-26,1031,-7,657,23
3959,-25,-76,980,-6,664,31
3960,21,-36,1022,4,677,56
3961,26,-23,1005,-7,690,69
3962,35,-43,1026,-14,699,81
3963,-1,-20,978,-20,713,94
3964,-75,-47,1036,-18,723,101
3965,-95,-20,989,-13,719,100
3966,-80,-27,1000,-12,720,92
3967,-48,-15,944,-7,721,78
3968,-50,18,968,-4,719,72
3969,-74,17,947,-10,712,70
3970,-137,30,983,-13,702,75
3971,-185,47,961,-22,690,79
3972,-179,22,977,-30,674,73
3973,-149,10,941,-31,657,58
3974,-113,8,932,-27,646,41
3975,-97,22,925,-23,634,26
3976,-148,27,962,-26,622,20
3977,-186,33,964,-30,604,21
3978,-225,4,984,-39,587,20
3979,-188,-19,937,-38,570,10
3980,-140,-44,941,-28,553,-5
3981,-108,-40,927,-15,541,-18
3982,-121,-27,965,-8,533,-20
3983,-155,-13,981,-12,525,-12
3984,-207,-20,1009,-19,517,5
3985,-186,-26,977,-24,502,10
3986,-149,-78,961,-21,495,4
3987,-86,-61,935,-4,489,-9
3988,-77,-54,974,9,486,-16
3989,-93,-19,988,14,487,-12
3990,-148,-5,1004,8,485,3
3991,-176,4,994,-6,480,17
3992,-174,-5,969,-11,473,22
3993,-131,-25,960,-13,464,14
3994,-117,-12,955,-8,465,9
3995,-119,19,955,-7,458,8
3996,-162,11,960,-16,445,12
3997,-204,8,969,-21,434,22
3998,-256,0,966,-25,418,20
3999,-223,-18,945,-26,398,9
4000,-195,-33,922,-13,379,-8
4001,-174,-8,922,-4,362,-23
4002,-170,2,922,-1,347,-27
4003,-222,22,958,-6,334,-15
4004,-277,21,976,-25,313,0
4005,-272,-1,960,-37,287,11
4006,-238,-37,927,-39,264,9
4007,-182,-40,912,-26,246,-4
4008,-167,-26,929,-14,234,-16
4009,-189,-7,964,-11,220,-18
4010,-239,5,976,-16,206,-9
4011,-264,-6,976,-29,188,4
4012,-246,-21,948,-34,166,12
4013,-204,-47,931,-34,147,8
4014,-168,-57,919,-22,133,-1
4015,-163,-31,938,-10,123,-4
4016,-217,-5,958,-11,113,-2
4017,-268,-1,979,-17,96,9
4018,-296,4,962,-26,73,16
4019,-256,-10,925,-31,50,14
4020,-210,-14,909,-25,27,2
4021,-201,10,914,-19,12,-7
4022,-217,21,929,-19,-6,-14
4023,-283,33,949,-28,-29,-8
4024,-327,28,946,-42,-57,1
4025,-319,-2,923,-51,-92,-1
4026,-275,-29,897,-46,-120,-11
4027,-240,-14,892,-35,-146,-25
4028,-232,-7,906,-32,-168,-33
4029,-269,-5,928,-31,-193,-32
4030,-309,8,943,-35,-224,-20
4031,-346,0,932,-48,-255,-9
4032,-315,-19,918,-55,-290,-5
4033,-274,-27,899,-55,-323,-6
4034,-234,-36,887,-52,-352,-9
4035,-210,-44,889,-47,-382,-2
4036,-259,-45,912,-44,-407,16
4037,-311,-57,934,-44,-440,35
4038,-323,-60,940,-50,-481,53
4039,-268,-46,917,-53,-519,67
4040,-196,-23,918,-59,-546,77
4041,-158,-29,915,-65,-561,85
4042,-169,-48,935,-63,-574,95
4043,-210,-54,941,-56,-594,108
4044,-249,-45,968,-52,-617,116
4045,-236,-8,973,-54,-640,114
4046,-204,2,963,-59,-655,105
4047,-140,32,938,-65,-667,95
4048,-124,16,928,-70,-674,90
4049,-155,6,934,-66,-682,89
4050,-210,13,963,-65,-699,90
4051,-252,14,981,-65,-720,81
4052,-226,41,999,-62,-739,60
4053,-174,65,972,-84,-749,42
4054,-130,55,944,-91,-753,23
4055,-122,39,939,-98,-759,14
4056,-155,32,949,-93,-771,11
4057,-189,31,993,-96,-787,5
4058,-192,29,1009,-104,-800,-7
4059,-149,33,1010,-112,-808,-24
4060,-79,50,984,-126,-809,-42
4061,-37,34,972,-132,-802,-55
4062,-46,11,970,-130,-798,-59
4063,-80,0,979,-129,-799,-61
4064,-124,-1,1003,-125,-805,-67
4065,-119,17,1008,-131,-811,-79
4066,-88,19,999,-136,-812,-96
4067,-38,17,974,-142,-809,-109
4068,-25,11,943,-141,-803,-117
4069,-65,-19,960,-136,-804,-120
4070,-117,-24,962,-129,-815,-124
4071,-156,-21,986,-124,-828,-132
4072,-130,-6,976,-127,-838,-149
4073,-89,4,950,-125,-846,-169
4074,-63,-1,925,-124,-850,-183
4075,-65,-17,915,-115,-858,-198
4076,-116,-25,929,-102,-869,-207
4077,-171,-30,953,-91,-885,-220
4078,-179,-27,957,-84,-907,-243
4079,-135,-23,933,-79,-928,-267
4080,-80,-12,909,-74,-940,-289
4081,-48,-33,900,-63,-950,-310
4082,-81,-73,906,-46,-961,-323
4083,-115,-86,910,-27,-979,-330
4084,-163,-84,921,-8,-1004,-337
4085,-140,-51,912,6,-1030,-355
4086,1376,-1211,1772,78,-961,-351
4087,1507,-442,1859,306,-422,-323
4088,278,584,1028,220,-155,-541
4089,230,414,618,-27,-276,-754
4090,487,-41,1178,-176,-192,-697
4091,209,-46,880,-177,8,-652
4092,-256,-37,822,-164,80,-709
4093,-26,-92,850,-151,32,-793
4094,36,-353,1174,-132,38,-845
4095,-92,-177,886,-91,54,-871
4096,-129,-315,930,-86,22,-876
4097,-60,-395,914,-21,-8,-881
4098,-214,-416,901,57,-23,-854
4099,-181,-405,861,140,-71,-828
4100,-198,-446,909,218,-127,-800
4101,-153,-397,850,302,-175,-761
4102,-147,-437,864,376,-215,-727
4103,-129,-425,862,464,-242,-692
4104,-177,-408,842,547,-269,-664
4105,-127,-397,905,633,-307,-645
4106,276,102,1376,700,-340,-623
4107,556,1389,1860,514,-307,-569
4108,-283,1279,1079,128,-318,-656
4109,-343,845,691,-91,-462,-734
4110,-26,312,1124,-193,-508,-717
4111,-73,-35,878,-172,-415,-604
4112,-199,-154,897,-84,-397,-458
4113,-32,-5,1069,-3,-449,-318
4114,18,120,1188,5,-502,-190
4115,-29,115,1039,-11,-552,-94
4116,-131,81,940,-14,-594,1
4117,-81,150,1000,1,-619,68
4118,-139,147,1089,-23,-641,112
4119,-184,105,1033,-47,-686,127
4120,-153,10,1052,-67,-736,115
4121,-145,-82,983,-71,-761,98
4122,-141,-138,968,-63,-783,83
4123,-77,-156,1022,-45,-798,59
4124,-128,-144,1022,-31,-814,30
4125,-114,-104,1022,-22,-847,1
4126,-95,-70,1018,-15,-878,-34
4127,-79,-56,985,-14,-900,-67
4128,-40,-25,968,-17,-917,-86
4129,2,0,986,-17,-922,-92
4130,2,11,1008,-20,-925,-86
4131,-11,14,1019,-19,-938,-64
4132,-19,24,1018,-19,-956,-42
4133,-22,39,991,-22,-973,-21
4134,-2,44,978,-29,-990,-10
4135,31,34,986,-38,-997,-3
4136,34,1,973,-43,-995,3
4137,20,-14,1003,-44,-1000,11
4138,12,-13,1011,-40,-1013,21
4139,8,-37,1014,-38,-1034,24
4140,11,-38,974,-36,-1049,22
4141,53,-31,954,-36,-1056,15
4142,89,-38,971,-38,-1053,2
4143,98,-54,971,-34,-1044,-4
4144,96,-66,997,-28,-1041,-7
4145,89,-62,987,-19,-1044,-6
4146,103,-56,984,-12,-1048,-2
4147,116,-39,951,-7,-1049,0
4148,163,-29,949,-9,-1032,7
4149,174,-30,925,-13,-1006,17
4150,188,-33,969,-6,-983,28
4151,193,-21,992,4,-967,47
4152,183,-31,1005,9,-956,70
4153,179,-24,952,21,-953,88
4154,202,-27,955,25,-943,105
4155,220,-33,939,29,-920,118
4156,221,-52,963,35,-890,136
4157,207,-67,958,41,-861,159
4158,201,-77,1002,58,-847,180
4159,203,-86,999,77,-841,197
4160,204,-99,986,97,-836,210
4161,216,-84,951,117,-829,218
4162,205,-74,943,126,-811,223
4163,214,-51,949,133,-786,226
4164,197,-48,976,132,-760,230
4165,205,-29,977,136,-745,231
4166,213,-20,996,141,-742,229
4167,223,-21,966,143,-740,222
4168,223,-15,944,146,-730,216
4169,234,-10,926,140,-712,209
4170,225,7,948,133,-685,207
4171,226,20,979,125,-663,205
4172,227,9,983,116,-651,202
4173,251,11,971,112,-646,197
4174,272,4,942,110,-638,193
4175,287,5,934,108,-618,193
4176,287,15,932,104,-589,195
4177,284,21,944,95,-556,199
4178,287,41,970,87,-530,201
4179,300,29,977,80,-511,204
4180,317,22,954,75,-496,204
4181,338,23,930,72,-475,204
4182,340,35,910,65,-442,208
4183,352,54,931,57,-406,212
4184,333,61,950,39,-364,216
4185,343,67,956,23,-332,220
4186,352,64,956,10,-309,216
4187,352,56,932,-1,-286,208
4188,365,61,914,-12,-260,200
4189,369,57,907,-30,-223,192
4190,358,60,930,-50,-180,184
4191,348,57,960,-68,-142,175
4192,339,28,969,-83,-111,161
4193,351,15,954,-92,-88,146
4194,360,-6,930,-96,-66,132
4195,364,-23,921,-99,-37,121
4196,364,-19,917,-99,2,116
4197,346,-17,939,-106,43,115
4198,349,-12,962,-107,81,112
4199,351,-14,983,-108,110,107
4200,360,-29,948,-107,135,102
4201,379,-37,932,-100,159,100
4202,370,-30,902,-96,196,108
4203,375,-34,922,-93,240,120
4204,364,-19,945,-92,285,135
4205,366,-8,973,-94,328,150
4206,377,0,960,-94,363,159
4207,372,-16,951,-91,395,169
4208,382,-18,903,-88,429,183
4209,373,-10,905,-85,470,202
4210,372,3,926,-86,518,226
4211,359,31,962,-92,567,252
4212,360,49,967,-108,611,276
4213,349,60,936,-132,653,293
4214,373,10,920,-148,695,295
4215,426,-102,974,-140,741,282
4216,450,-211,1000,-96,787,262
4217,375,-258,968,-41,825,254
4218,277,-241,908,12,850,251
4219,225,-189,894,55,866,240
4220,245,-98,929,74,882,223
4221,291,-29,958,68,898,199
4222,287,0,959,54,917,172
4223,274,-2,955,40,939,143
4224,235,-6,955,35,961,118
4225,220,5,975,30,980,97
4226,200,5,965,22,993,77
4227,200,-8,952,15,1000,57
4228,217,-17,937,10,1010,38
4229,225,-38,947,7,1024,27
4230,219,-56,958,12,1042,24
4231,195,-66,979,19,1059,27
4232,174,-60,962,28,1072,34
4233,171,-34,963,35,1080,38
4234,182,-20,948,36,1088,42
4235,205,-19,945,34,1102,47
4236,218,-17,940,36,1126,55
4237,206,-32,959,38,1155,76
4238,188,-27,960,47,1184,104
4239,172,-23,978,53,1208,132
4240,177,2,934,56,1232,155
4241,185,10,933,54,1255,178
4242,206,4,929,50,1284,200
4243,221,6,933,49,1321,227
4244,202,-3,942,50,1363,259
4245,182,5,947,52,1404,289
4246,163,1,949,57,1434,311
4247,168,10,932,61,1459,326
4248,198,27,919,58,1482,339
4249,205,13,928,59,1511,347
4250,200,6,931,57,1545,361
4251,158,9,922,58,1582,376
4252,148,17,947,60,1612,387
4253,133,16,954,60,1636,391
4254,100,58,919,56,1660,385
4255,93,54,931,44,1669,358
4256,114,23,946,24,1679,341
4257,116,-24,961,26,1694,333
4258,50,-58,952,29,1712,322
4259,36,-70,935,41,1722,309
4260,40,-64,958,55,1732,294
4261,6,-22,924,55,1741,282
4262,-1662,290,1703,18,1340,202
4263,-882,206,601,-180,-143,131
4264,107,-483,689,-156,-107,-6
4265,-358,-296,214,4,-90,-83
4266,346,-243,675,74,6,5
