sequence,AccelerometerX,AccelerometerY,AccelerometerZ,GyroscopeX,GyroscopeY,GyroscopeZ
0,0,-15,990,-4,-4,4
1,0,-16,990,-5,-4,4
2,0,-13,991,-5,-5,4
3,1,-14,992,-5,-4,5
4,-1,-15,992,-4,-4,4
5,-1,-15,990,-5,-4,5
6,0,-15,991,-6,-6,6
7,-1,-13,990,-12,-3,6
8,0,-15,992,-8,-5,5
9,0,-15,991,-3,-5,6
10,0,-15,992,-8,-4,4
11,1,-12,991,0,-5,5
12,0,-14,991,-6,-4,4
13,0,-15,991,-5,-4,5
14,0,-14,992,-4,-5,4
15,-1,-15,992,-7,-3,5
16,0,-16,992,-2,-4,5
17,0,-14,992,-6,-5,4
18,-1,-14,993,-1,-4,5
19,0,-16,992,-6,-5,5
20,-1,-16,991,-1,-5,4
21,0,-15,991,-7,-5,5
22,-2,-15,992,-3,-5,5
23,-2,-17,992,-6,-5,4
24,0,-15,992,-3,-4,3
25,-1,-14,992,-6,-4,5
26,0,-14,992,-5,-4,5
27,0,-14,991,-6,-4,4
28,0,-14,990,-5,-5,5
29,-1,-15,991,-6,-4,5
30,-1,-13,990,-6,-3,5
31,0,-12,991,-4,-5,4
32,1,-15,991,-6,-5,5
33,-1,-14,991,-4,-5,5
34,0,-14,990,-5,-5,6
35,0,-14,991,-3,-5,5
36,0,-15,991,-4,-4,4
37,-2,-15,990,-4,-4,4
38,-3,-15,990,-5,-5,5
39,-1,-14,991,-4,-5,5
40,0,-14,991,-5,-4,5
41,0,-14,989,-5,-4,6
42,0,-14,990,-5,-4,5
43,-1,-15,990,-4,-5,5
44,-2,-14,990,-4,-5,5
45,-1,-15,990,-5,-4,6
46,-2,-14,991,-4,-5,4
47,-2,-15,989,-3,-4,4
48,0,-15,990,-3,-5,5
49,-1,-14,989,-3,-5,6
50,-1,-16,990,-4,-5,5
51,0,-14,993,-3,-5,6
52,0,-13,990,-4,-4,4
53,0,-15,990,-4,-4,6
54,0,-14,991,-5,-6,5
55,0,-13,990,-4,-5,5
56,0,-14,990,-4,-5,4
57,0,-14,990,-4,-5,5
58,0,-14,991,-5,-4,5
59,-1,-13,993,-4,-5,4
60,-2,-15,990,-4,-4,5
61,0,-14,990,-4,-5,4
62,-1,-16,992,-4,-4,4
63,-3,-14,990,-5,-5,5
64,-1,-13,990,-3,-4,5
65,0,-13,990,-5,-4,5
66,0,-13,991,-4,-4,5
67,0,-16,992,-5,-3,6
68,2,-14,992,-5,-4,5
69,2,-14,990,-5,-4,6
70,0,-14,991,-6,-3,6
71,0,-14,990,-5,-4,6
72,0,-14,991,-6,-4,5
73,0,-15,992,-5,-4,5
74,0,-15,991,-6,-4,6
75,-1,-15,991,-4,-5,5
76,-1,-15,992,-6,-4,5
77,-1,-14,990,-4,-4,6
78,0,-14,992,-6,-5,5
79,1,-14,992,-5,-4,6
80,0,-14,991,-5,-5,6
81,0,-14,992,-4,-4,5
82,0,-13,991,-4,-4,5
83,-1,-14,991,-4,-4,5
84,0,-14,990,-5,-3,4
85,-2,-14,990,-5,-4,6
86,0,-13,990,-4,-4,6
87,-1,-15,991,-5,-5,6
88,-1,-12,991,-4,-4,5
89,0,-14,990,-7,-5,6
90,-2,-14,991,-5,-4,4
91,0,-15,992,-7,-5,4
92,0,-15,990,-3,-3,4
93,0,-15,990,-6,-5,4
94,-1,-14,990,-6,-4,5
95,-2,-14,992,-6,-5,5
96,1,-14,990,-5,-5,6
97,0,-14,991,-5,-5,4
98,2,-13,990,-4,-5,5
99,0,-14,990,-5,-4,5
100,-1,-15,991,-5,-5,4
101,-1,-12,990,-5,-5,4
102,-1,-15,989,-6,-5,5
103,0,-14,991,-4,-4,5
104,1,-16,991,-5,-5,4
105,-1,-15,992,-4,-5,5
106,-1,-14,993,-3,-5,4
107,0,-14,992,-3,-4,5
108,0,-14,992,-3,-4,5
109,-2,-12,992,-2,-3,5
110,0,-12,993,-5,-4,5
111,-2,-14,991,-5,-4,5
112,0,-16,990,-4,-5,5
113,0,-15,992,-4,-4,5
114,0,-15,991,-6,-3,6
115,-1,-14,990,-3,-4,5
116,-1,-14,991,-4,-4,5
117,0,-14,992,-5,-5,4
118,0,-15,991,-4,-4,5
119,0,-14,990,-6,-4,5
120,0,-14,992,-5,-4,5
121,0,-15,991,-6,-4,4
122,-1,-15,991,-3,-5,6
123,-1,-14,991,-6,-6,5
124,0,-15,988,-3,-5,5
125,0,-14,991,-6,-4,6
126,-1,-14,991,-4,-6,6
127,-2,-15,991,-5,-5,5
128,0,-15,991,-4,-4,5
129,-1,-15,992,-4,-5,5
130,-3,-15,990,-4,-4,4
131,-2,-14,990,-4,-5,5
132,0,-14,992,-4,-4,6
133,0,-15,991,-3,-4,5
134,-1,-11,992,-4,-4,4
135,-4,-12,992,-2,-4,4
136,-3,-14,992,-2,-5,4
137,0,-16,990,-2,-4,5
138,1,-15,992,-4,-5,5
139,-1,-12,991,-4,-4,5
140,0,-12,990,-6,-4,5
141,0,-11,989,-3,-4,5
142,0,-11,989,-5,-4,5
143,0,-13,990,-4,-4,5
144,0,-12,989,-6,-4,5
145,0,-14,992,-4,-4,4
146,0,-14,991,-6,-3,5
147,0,-14,990,-5,-5,5
148,0,-15,989,-5,-4,5
149,0,-13,990,-7,-4,5
150,0,-15,991,-4,-4,4
151,0,-13,991,-5,-5,3
152,0,-13,991,-5,-3,5
153,0,-14,990,-5,-4,4
154,0,-16,991,-4,-4,5
155,0,-13,989,-6,-4,6
156,-1,-13,992,-2,-5,5
157,0,-15,992,-3,-4,4
158,-1,-16,991,-2,-4,5
159,-1,-15,991,-6,-5,6
160,0,-13,991,-4,-5,5
161,0,-15,989,-5,-4,6
162,0,-12,991,-5,-5,5
163,-1,-14,993,-5,-5,5
164,0,-14,992,-6,-4,5
165,0,-11,990,-5,-5,5
166,0,-13,991,-5,-6,4
167,0,-14,990,-6,-4,5
168,-2,-14,991,-5,-4,5
169,-1,-13,991,-4,-4,5
170,0,-15,991,-5,-4,4
171,0,-15,991,-5,-5,5
172,0,-13,990,-7,-4,4
173,0,-12,991,-5,-4,5
174,-2,-14,992,-7,-5,5
175,-2,-16,989,-4,-5,4
176,0,-16,992,-4,-5,5
177,0,-14,991,-4,-6,5
178,-2,-16,991,-5,-5,4
179,0,-15,991,-6,-4,4
180,0,-14,991,-5,-5,4
181,0,-13,989,-4,-5,5
182,-2,-15,992,-2,-5,5
183,-1,-13,991,-4,-5,4
184,-1,-13,991,-2,-4,5
185,1,-14,991,-6,-4,5
186,0,-14,990,-4,-4,4
187,0,-18,991,-5,-3,4
188,-1,-16,991,-5,-4,4
189,-1,-15,991,-5,-5,4
190,0,-16,990,-4,-4,5
191,-2,-13,990,-4,-5,5
192,0,-13,991,-4,-5,5
193,0,-14,989,-4,-3,5
194,0,-13,991,-6,-4,7
195,1,-15,989,-4,-4,6
196,-1,-12,990,-4,-4,5
197,-1,-14,989,-2,-4,5
198,-2,-14,991,-5,-4,6
199,-1,-14,989,-5,-3,5
200,0,-14,991,-5,-5,5
201,-1,-14,991,-5,-5,5
202,0,-14,992,-5,-4,4
203,0,-14,991,-6,-4,5
204,-1,-12,993,-6,-5,5
205,0,-12,992,-6,-4,4
206,0,-13,991,-6,-5,5
207,-2,-14,992,-7,-4,6
208,0,-15,991,-5,-4,5
209,0,-14,993,-6,-5,6
210,-1,-15,991,-5,-4,5
211,-2,-14,991,-5,-5,5
212,-1,-15,992,-6,-5,6
213,-1,-16,992,-5,-3,4
214,0,-16,991,-6,-4,6
215,0,-16,991,-5,-4,5
216,0,-15,991,-5,-4,5
217,0,-15,992,-4,-4,5
218,0,-15,991,-5,-4,5
219,0,-16,990,-5,-4,4
220,-1,-14,991,-4,-4,5
221,-1,-13,991,-4,-4,5
222,0,-15,991,-4,-3,4
223,-1,-14,990,-4,-4,4
224,1,-13,991,-4,-4,6
225,0,-15,990,-6,-4,5
226,0,-14,990,-5,-4,5
227,-1,-15,990,-6,-4,5
228,0,-13,990,-6,-4,5
229,-2,-13,991,-5,-4,5
230,-1,-15,990,-4,-4,6
231,0,-15,990,-5,-5,5
232,0,-15,990,-6,-5,5
233,-1,-16,991,-4,-4,5
234,-2,-15,991,-6,-5,5
235,0,-16,989,-5,-4,6
236,0,-13,991,-5,-4,5
237,0,-13,990,-6,-5,5
238,-2,-13,991,-4,-5,5
239,0,-16,990,-5,-5,4
240,0,-15,990,-6,-5,5
241,0,-14,990,-5,-3,5
242,0,-13,991,-4,-4,5
243,-1,-14,991,-5,-4,5
244,0,-13,991,-5,-5,6
245,0,-14,991,-4,-5,5
246,0,-14,990,-6,-4,5
247,0,-14,991,-5,-4,5
248,0,-14,991,-7,-5,4
249,0,-14,991,-4,-4,5
250,-1,-14,990,-6,-4,4
251,-1,-14,990,-4,-4,4
252,0,-14,991,-3,-4,5
253,-2,-13,991,-2,-3,5
254,-1,-13,991,-5,-4,6
255,-1,-13,990,-4,-4,5
256,0,-14,991,-4,-5,5
257,0,-14,990,-5,-4,4
258,0,-14,992,-3,-4,3
259,0,-15,991,-5,-5,5
260,-2,-14,991,-3,-4,4
261,-3,-14,990,-6,-4,5
262,0,-13,991,-4,-4,6
263,-2,-12,990,-7,-5,5
264,0,-14,990,-5,-4,5
265,-1,-13,991,-5,-4,4
266,0,-13,991,-5,-5,5
267,1,-12,990,-6,-4,5
268,0,-14,989,-6,-4,5
269,-1,-13,990,-6,-5,5
270,0,-14,991,-7,-4,4
271,0,-14,990,-6,-5,6
272,0,-15,991,-7,-5,5
273,-1,-14,991,-4,-4,5
274,0,-13,990,-6,-4,5
275,-2,-12,992,-4,-3,6
276,0,-13,990,-6,-3,5
277,-1,-13,992,-5,-4,5
278,-1,-14,991,-6,-4,5
279,-1,-15,990,-4,-4,5
280,0,-17,990,-6,-4,5
281,0,-15,990,-5,-3,5
282,0,-15,989,-4,-4,5
283,-1,-15,992,-5,-5,5
284,-2,-14,991,-3,-5,5
285,-4,-14,991,-5,-4,4
286,0,-15,992,-4,-5,4
287,-2,-13,990,-5,-5,5
288,-1,-16,989,-3,-4,4
289,0,-15,991,-5,-4,5
290,0,-16,992,-4,-5,5
291,-2,-14,991,-5,-6,6
292,-1,-15,993,-3,-5,4
293,0,-13,992,-4,-4,5
294,0,-15,992,-3,-4,5
295,-1,-14,992,-4,-4,6
296,0,-13,992,-4,-4,6
297,-2,-16,991,-5,-5,4
298,-3,-16,993,-4,-4,4
299,-2,-15,991,-4,-4,6
300,-1,-15,992,-3,-5,6
301,-2,-15,993,-3,-5,5
302,0,-14,992,-4,-5,5
303,-1,-12,993,-3,-4,4
304,0,-15,992,-4,-4,6
305,0,-15,992,-2,-4,5
306,0,-12,992,-5,-4,5
307,0,-13,990,-4,-3,5
308,0,-12,993,-4,-4,5
309,0,-12,992,-4,-4,4
310,0,-13,990,-4,-4,4
311,-1,-13,992,-4,-4,6
312,0,-16,990,-4,-4,5
313,0,-15,991,-3,-4,6
314,0,-15,992,-4,-4,5
315,0,-15,990,-5,-4,4
316,0,-14,991,-4,-4,5
317,-1,-14,991,-5,-4,5
318,1,-14,991,-2,-4,6
319,0,-14,992,-3,-5,5
320,0,-16,991,-2,-5,5
321,0,-15,992,-4,-4,4
322,0,-16,990,-4,-4,5
323,-1,-16,990,-5,-5,5
324,-1,-15,991,-2,-4,5
325,0,-16,991,-5,-4,4
326,-1,-13,991,-4,-4,5
327,0,-16,990,-3,-4,5
328,0,-13,992,-2,-4,5
329,1,-14,991,-3,-5,5
330,-1,-14,990,-4,-4,6
331,0,-15,990,-4,-4,6
332,-1,-13,991,-6,-4,5
333,-1,-12,993,-4,-4,5
334,0,-13,991,-5,-4,5
335,0,-14,990,-3,-4,6
336,0,-13,991,-6,-5,6
337,0,-12,990,-5,-4,5
338,0,-15,990,-4,-5,5
339,-1,-13,991,-4,-4,5
340,-1,-13,990,-4,-4,5
341,-1,-12,991,-4,-5,4
342,0,-14,990,-4,-5,6
343,-1,-14,991,-6,-5,5
344,0,-14,990,-3,-5,5
345,0,-14,990,-6,-4,5
346,1,-14,990,-13,-2,8
347,0,-14,991,-2,-5,5
348,-1,-14,991,-7,-4,5
349,0,-14,992,1,-4,6
350,0,-14,992,-8,-3,5
351,-2,-15,990,-2,-2,6
352,0,-13,991,-7,-4,5
353,-1,-15,991,-3,-4,6
354,0,-16,991,-6,-4,5
355,-1,-14,989,-6,-5,5
356,-2,-14,990,-5,-5,5
357,-1,-14,990,-6,-5,4
358,-2,-15,990,-5,-4,4
359,-2,-14,992,-5,-4,5
360,0,-13,992,-5,-4,5
361,-1,-14,991,-5,-5,5
362,0,-14,990,-4,-4,5
363,0,-13,992,-4,-5,6
364,0,-14,991,-3,-4,5
365,-1,-14,990,-3,-5,5
366,-2,-14,990,-3,-5,4
367,-1,-15,992,-4,-3,5
368,-1,-14,990,-4,-4,6
369,-1,-14,990,-3,-4,6
370,0,-14,991,-5,-5,5
371,-1,-13,990,-5,-4,5
372,0,-14,990,-4,-4,5
373,0,-14,991,-6,-4,6
374,0,-15,990,-3,-5,6
375,1,-14,992,-4,-4,5
376,0,-14,991,-5,-4,5
377,0,-14,990,-5,-5,5
378,0,-15,991,-3,-5,5
379,0,-13,991,-5,-4,4
380,0,-15,990,-4,-5,4
381,-1,-14,990,-6,-5,4
382,-1,-14,989,-3,-4,4
383,-1,-13,991,-5,-4,5
384,0,-14,992,-5,-4,5
385,0,-14,991,-6,-5,4
386,-1,-16,990,-5,-5,5
387,0,-15,993,-6,-5,5
388,0,-13,991,-4,-4,4
389,0,-13,990,-5,-4,6
390,-1,-13,994,-3,-4,5
391,0,-13,993,-3,-3,5
392,0,-13,991,-4,-4,5
393,-1,-14,992,-4,-4,6
394,-3,-13,994,-3,-5,6
395,-4,-13,993,-4,-4,6
396,-2,-13,991,-6,-4,5
397,0,-14,991,-6,-4,5
398,0,-16,991,-6,-5,5
399,0,-16,993,-5,-5,5
400,-1,-17,991,-5,-5,5
401,-1,-16,992,-5,-5,4
402,-1,-15,990,-5,-5,5
403,0,-17,991,-4,-4,4
404,0,-15,991,-5,-4,5
405,1,-15,989,-5,-4,5
406,-1,-15,991,-4,-4,4
407,-1,-14,990,-3,-6,4
408,0,-15,991,-3,-5,4
409,0,-15,990,-4,-4,3
410,-2,-14,989,-3,-5,5
411,-1,-15,991,-4,-5,5
412,0,-16,990,-3,-4,6
413,0,-15,991,-5,-5,4
414,1,-13,989,-4,-4,5
415,0,-13,992,-4,-4,5
416,0,-12,990,-6,-5,5
417,0,-13,991,-5,-5,6
418,-1,-13,991,-5,-5,5
419,0,-14,990,-5,-4,5
420,-1,-14,990,-5,-4,4
421,0,-13,991,-7,-5,4
422,0,-14,991,-5,-4,5
423,-1,-13,991,-6,-4,5
424,-1,-12,991,-6,-4,6
425,0,-13,990,-5,-5,4
426,0,-13,991,-6,-4,5
427,0,-15,989,-5,-6,4
428,0,-15,990,-4,-5,5
429,1,-16,990,-3,-4,5
430,1,-15,990,-4,-4,5
431,0,-14,990,-4,-4,4
432,1,-14,990,-5,-4,5
433,-1,-14,990,-3,-4,4
434,0,-17,990,-6,-4,4
435,-1,-15,991,-5,-3,5
436,-2,-14,991,-5,-5,3
437,-1,-13,990,-4,-4,4
438,-2,-14,991,-4,-4,6
439,-1,-15,990,-4,-5,6
440,-1,-15,990,-4,-4,5
441,-1,-14,991,-4,-4,4
442,0,-15,991,-5,-5,5
443,0,-13,993,-5,-5,5
444,0,-11,989,-4,-5,4
445,0,-11,990,-5,-4,5
446,0,-12,990,-4,-3,5
447,0,-12,991,-5,-4,4
448,0,-11,992,-5,-5,5
449,-1,-13,990,-5,-5,5
450,0,-15,988,-6,-4,4
451,-1,-13,991,-6,-4,3
452,0,-13,991,-5,-4,6
453,1,-13,990,-3,-5,6
454,1,-13,991,-7,-4,5
455,0,-15,990,-4,-5,4
456,0,-14,991,-5,-4,4
457,-1,-14,991,-3,-4,5
458,-1,-16,991,-4,-5,4
459,0,-15,991,-3,-4,4
460,0,-16,991,-5,-4,4
461,0,-13,992,-4,-4,4
462,1,-14,991,-4,-5,4
463,0,-15,991,-3,-5,4
464,0,-15,990,-4,-4,4
465,-1,-15,991,-4,-5,5
466,-2,-13,990,-4,-3,5
467,0,-15,992,-5,-5,5
468,-3,-16,989,-2,-5,5
469,-1,-17,991,-5,-5,5
470,0,-13,989,-4,-5,4
471,-1,-12,993,-5,-4,5
472,2,-13,992,-2,-4,5
473,0,-11,990,-5,-5,4
474,0,-11,993,-3,-3,5
475,0,-13,990,-7,-4,5
476,1,-13,991,-5,-5,4
477,-1,-14,992,-6,-4,5
478,-1,-13,991,-4,-4,5
479,-2,-15,993,-4,-5,4
480,-2,-12,992,-4,-5,3
481,-1,-13,992,-3,-5,5
482,-1,-14,994,-4,-4,5
483,-3,-14,993,-2,-5,5
484,-1,-14,990,-5,-4,5
485,-1,-15,993,-4,-5,5
486,0,-15,993,-5,-5,5
487,0,-16,991,-3,-4,5
488,0,-15,991,-3,-5,4
489,-1,-14,991,-3,-4,4
490,0,-16,991,-3,-5,4
491,0,-15,990,-3,-4,5
492,-1,-14,991,-4,-4,4
493,0,-14,991,-6,-4,4
494,-1,-13,990,-6,-4,5
495,0,-15,989,-6,-4,5
496,1,-14,990,-5,-4,4
497,0,-15,990,-5,-5,4
498,1,-13,991,-4,-5,5
499,0,-12,990,-6,-4,5
500,0,-13,991,-5,-4,4
501,0,-13,992,-5,-5,4
502,0,-13,991,-4,-4,5
503,1,-13,990,-5,-4,4
504,-1,-13,991,-6,-4,4
505,0,-15,990,-6,-4,5
506,-1,-14,991,-6,-4,4
507,-3,-15,991,-5,-4,4
508,-1,-15,991,-6,-4,4
509,0,-17,991,-3,-6,5
510,-1,-15,990,-4,-5,5
511,0,-17,992,-3,-5,5
512,0,-15,992,-4,-4,5
513,0,-15,989,-3,-4,5
514,-1,-15,990,-4,-4,5
515,1,-15,991,-4,-4,5
516,1,-16,989,-4,-5,4
517,2,-14,990,-3,-4,4
518,1,-13,990,-4,-3,5
519,-1,-14,989,-4,-5,5
520,1,-16,991,-2,-5,4
521,0,-15,991,-4,-4,5
522,-1,-14,991,-3,-5,4
523,-1,-14,991,-5,-5,4
524,-1,-14,989,-5,-4,4
525,-1,-15,990,-6,-4,5
526,0,-13,991,-5,-4,4
527,0,-13,990,-6,-4,5
528,-1,-12,990,-4,-5,5
529,0,-13,991,-6,-5,5
530,0,-13,991,-4,-4,5
531,-2,-14,992,-4,-4,5
532,-1,-13,990,-5,-4,4
533,0,-14,991,-4,-3,4
534,-1,-14,989,-5,-4,5
535,0,-12,990,-4,-4,5
536,-1,-14,991,-5,-4,5
537,-1,-12,991,-4,-5,5
538,0,-15,991,-6,-4,5
539,0,-14,993,-4,-4,5
540,-1,-14,990,-5,-5,4
541,1,-13,991,-5,-4,6
542,0,-13,992,-6,-4,5
543,0,-14,992,-5,-4,4
544,0,-15,990,-6,-3,5
545,0,-16,990,-5,-5,5
546,0,-14,991,-5,-5,5
547,0,-14,990,-7,-3,5
548,-1,-15,991,-4,-4,6
549,-1,-14,992,-7,-4,4
550,0,-14,992,-5,-4,5
551,-1,-15,990,-6,-4,4
552,0,-15,991,-4,-5,4
553,0,-15,991,-3,-4,6
554,0,-14,991,-3,-5,4
555,0,-15,991,-4,-5,5
556,1,-14,991,-3,-4,4
557,-1,-14,993,-3,-5,5
558,0,-14,991,-3,-4,5
559,-1,-15,989,-4,-5,5
560,0,-16,991,-6,-4,6
561,0,-13,991,-4,-5,5
562,-1,-14,991,-5,-4,4
563,-2,-15,990,-4,-4,4
564,0,-13,990,-5,-4,4
565,-1,-14,991,-4,-3,6
566,-1,-15,991,-6,-4,5
567,-1,-14,992,-4,-3,6
568,0,-14,991,-3,-4,6
569,-1,-14,990,-4,-4,5
570,-1,-15,992,-5,-4,5
571,-1,-13,991,-5,-4,4
572,0,-15,992,-4,-5,4
573,-1,-15,992,-6,-5,5
574,0,-14,991,-5,-4,5
575,-1,-15,993,-6,-3,4
576,0,-15,991,-5,-5,5
577,-1,-14,992,-7,-5,4
578,-1,-14,992,-4,-4,3
579,-1,-14,992,-6,-5,5
580,-2,-16,993,-4,-5,6
581,0,-14,992,-6,-4,4
582,-2,-15,992,-4,-6,5
583,-1,-12,991,-5,-5,5
584,0,-13,991,-5,-5,5
585,-1,-14,992,-2,-5,3
586,0,-15,992,-4,-4,5
587,0,-15,990,-4,-4,6
588,-2,-15,991,-5,-3,4
589,0,-14,991,-4,-4,5
590,0,-12,991,-6,-5,5
591,-1,-14,992,-6,-4,5
592,0,-15,991,-6,-5,5
593,0,-14,990,-4,-5,4
594,-1,-14,990,-6,-4,4
595,-1,-14,990,-2,-5,4
596,0,-16,991,-4,-6,5
597,0,-15,990,-4,-4,4
598,0,-15,990,-5,-5,4
599,-1,-13,990,-3,-4,5
600,0,-14,989,-4,-4,4
601,0,-15,990,-4,-5,5
602,0,-14,992,-5,-4,5
603,-2,-14,990,-4,-4,4
604,0,-15,990,-5,-3,5
605,0,-14,989,-3,-4,5
606,0,-16,991,-4,-5,5
607,0,-16,989,-4,-4,5
608,0,-13,989,-5,-4,5
609,-1,-14,990,-5,-4,4
610,-1,-12,991,-4,-4,4
611,0,-14,990,-7,-4,4
612,0,-12,991,-3,-4,6
613,1,-12,991,-6,-5,4
614,0,-13,990,-6,-4,4
615,0,-14,991,-5,-4,4
616,1,-15,991,-2,-5,5
617,0,-13,990,-4,-5,4
618,-1,-14,989,-4,-5,4
619,0,-15,991,-4,-5,5
620,-1,-14,991,-4,-5,5
621,-1,-13,991,-4,-4,5
622,-2,-14,991,-3,-4,5
623,-2,-15,989,-4,-4,5
624,0,-14,992,-3,-5,5
625,-1,-14,991,-4,-4,4
626,0,-14,991,-7,-3,5
627,0,-14,990,-5,-5,5
628,0,-14,991,-5,-4,6
629,0,-15,991,-4,-5,5
630,0,-15,991,-5,-5,5
631,-1,-14,991,-3,-3,5
632,-1,-13,991,-6,-4,5
633,-1,-15,991,-5,-5,5
634,0,-14,991,-6,-4,5
635,0,-15,991,-5,-4,4
636,1,-14,992,-4,-5,5
637,0,-14,991,-4,-4,4
638,0,-13,990,-5,-5,5
639,-1,-13,990,-4,-5,4
640,0,-14,992,-6,-4,4
641,0,-13,991,-4,-5,4
642,0,-14,992,-5,-4,5
643,0,-15,991,-4,-5,5
644,0,-13,991,-5,-4,3
645,0,-13,991,-5,-3,5
646,0,-14,992,-5,-4,3
647,0,-14,992,-2,-4,4
648,-1,-12,991,-4,-5,5
649,0,-14,991,-5,-5,5
650,-1,-16,992,-4,-4,5
651,-1,-16,991,-5,-4,5
652,-1,-14,991,-2,-5,5
653,0,-15,991,-6,-4,5
654,0,-13,990,-5,-5,5
655,0,-13,990,-5,-4,4
656,0,-14,990,-5,-3,5
657,2,-14,991,-4,-3,5
658,1,-13,992,-5,-4,6
659,-1,-13,991,-6,-4,5
660,0,-13,990,-5,-3,5
661,0,-15,991,-6,-4,5
662,-2,-13,989,-4,-3,5
663,-1,-14,990,-5,-5,3
664,0,-14,991,-4,-5,4
665,0,-13,993,-5,-5,4
666,0,-14,992,-5,-5,5
667,0,-15,991,-6,-4,5
668,0,-16,991,-6,-4,5
669,-2,-15,992,-6,-4,5
670,0,-13,989,-6,-4,5
671,-3,-16,992,-5,-4,6
672,-1,-13,992,-5,-4,5
673,0,-15,991,-5,-4,5
674,0,-15,991,-4,-4,6
675,-2,-14,993,-4,-4,5
676,0,-14,991,-6,-4,5
677,-2,-14,991,-3,-4,4
678,-2,-12,991,-6,-4,4
679,0,-12,992,-4,-5,4
680,0,-13,991,-6,-6,5
681,0,-15,993,-2,-4,5
682,0,-15,990,-9,-2,6
683,0,-15,988,-5,-5,4
684,-1,-14,991,-2,-4,5
685,0,-14,992,-8,-5,4
686,1,-14,990,-1,-6,5
687,-2,-12,991,-5,-3,6
688,0,-14,991,-6,-4,5
689,0,-14,990,-4,-4,5
690,0,-14,991,-6,-4,4
691,0,-13,991,-2,-5,4
692,0,-15,991,-4,-5,6
693,0,-16,990,-2,-3,5
694,0,-13,991,-4,-4,4
695,0,-14,992,-4,-4,5
696,0,-13,990,-5,-4,4
697,0,-12,989,-5,-5,5
698,1,-13,990,-5,-5,5
699,0,-15,989,-5,-3,4
700,-1,-13,989,-5,-4,5
701,-1,-13,990,-6,-5,4
702,-1,-16,990,-4,-4,5
703,0,-14,988,-4,-4,5
704,0,-15,990,-2,-4,4
705,0,-14,991,-5,-5,4
706,-1,-13,990,-3,-5,6
707,-1,-13,989,-6,-5,5
708,1,-12,990,-5,-4,5
709,0,-14,990,-4,-4,5
710,0,-14,990,-3,-3,5
711,0,-13,989,-4,-4,4
712,-1,-14,991,-6,-4,5
713,0,-13,991,-6,-4,5
714,0,-14,991,-5,-4,4
715,-1,-15,992,-5,-4,4
716,-3,-15,991,-6,-5,6
717,-1,-15,991,-4,-4,5
718,-1,-15,990,-5,-5,5
719,-1,-13,991,-3,-5,5
720,0,-14,990,-5,-5,5
721,0,-13,991,-4,-5,4
722,-1,-14,990,-5,-5,5
723,0,-15,990,-4,-4,4
724,-1,-15,989,-3,-4,5
725,-1,-13,991,-5,-5,5
726,0,-14,990,-2,-5,4
727,0,-14,990,-5,-4,5
728,0,-12,992,-5,-4,5
729,0,-13,992,-5,-4,5
730,0,-14,992,-6,-4,5
731,-1,-13,992,-5,-5,5
732,-1,-13,991,-5,-5,4
733,-1,-14,991,-5,-5,5
734,0,-13,991,-4,-4,4
735,-2,-14,991,-3,-3,4
736,0,-13,991,-4,-4,5
737,0,-13,990,-3,-4,5
738,-1,-12,992,-5,-4,5
739,0,-13,991,-5,-5,6
740,0,-16,990,-4,-5,5
741,-2,-14,990,-5,-3,5
742,-1,-15,990,-3,-3,6
743,-2,-15,990,-6,-4,6
744,-1,-14,991,-5,-4,5
745,-1,-13,990,-4,-5,5
746,0,-14,990,-4,-5,4
747,0,-15,992,-5,-4,5
748,-1,-14,991,-5,-4,6
749,0,-13,991,-4,-4,5
750,-1,-13,991,-3,-4,5
751,-1,-13,991,-5,-4,4
752,0,-14,991,-4,-5,3
753,0,-15,991,-4,-4,4
754,0,-13,992,-4,-5,5
755,1,-14,993,-4,-5,6
756,0,-14,991,-3,-4,4
757,-2,-15,992,-4,-4,6
758,-3,-12,992,-5,-4,5
759,-1,-15,991,-4,-4,4
760,-1,-15,991,-5,-4,4
761,0,-14,991,-4,-4,5
762,-1,-15,992,-7,-4,5
763,0,-15,990,-5,-3,5
764,0,-14,990,-5,-3,5
765,-2,-15,991,-4,-5,5
766,-3,-13,992,-4,-4,6
767,-1,-15,992,-3,-4,5
768,-1,-13,991,-4,-5,4
769,0,-13,989,-4,-4,5
770,0,-16,991,-4,-5,5
771,-1,-14,990,-4,-4,5
772,-1,-15,990,-4,-4,4
773,0,-14,990,-4,-4,5
774,-1,-15,989,-4,-4,6
775,-1,-14,989,-5,-4,5
776,0,-13,990,-4,-5,6
777,-1,-14,989,-5,-4,6
778,1,-15,990,-4,-5,5
779,1,-13,990,-5,-4,5
780,0,-13,990,-5,-5,4
781,0,-14,990,-5,-4,4
782,-2,-14,991,-6,-4,6
783,-1,-15,990,-5,-5,5
784,0,-14,992,-4,-6,5
785,-1,-15,991,-3,-4,4
786,-1,-14,991,-3,-5,4
787,-1,-15,992,-3,-5,5
788,-1,-15,992,-5,-4,4
789,-1,-17,991,-4,-4,5
790,0,-16,991,-5,-5,5
791,0,-15,990,-4,-5,4
792,0,-14,990,-5,-4,5
793,0,-16,992,-4,-4,5
794,-1,-16,990,-4,-4,5
795,1,-13,989,-3,-4,5
796,0,-13,992,-4,-5,4
797,-1,-14,990,-4,-3,5
798,1,-14,989,-4,-5,5
799,0,-13,991,-5,-4,4
800,0,-15,992,-4,-5,5
801,-1,-14,989,-4,-4,5
802,0,-14,991,-4,-3,5
803,-1,-12,991,-7,-4,4
804,-2,-13,991,-6,-4,4
805,-1,-15,991,-6,-4,5
806,-2,-13,988,-3,-5,4
807,0,-15,990,-3,-4,5
808,1,-15,992,-3,-4,4
809,1,-13,991,-4,-4,5
810,0,-15,990,-4,-4,5
811,0,-14,992,-4,-4,5
812,0,-13,992,-5,-4,5
813,-3,-14,991,-4,-4,6
814,-1,-12,991,-4,-4,5
815,-2,-13,991,-4,-4,5
816,0,-14,989,-5,-5,5
817,0,-15,990,-5,-5,4
818,0,-14,990,-5,-3,4
819,0,-14,991,-4,-3,4
820,1,-14,991,-5,-4,4
821,0,-14,989,-4,-3,6
822,0,-12,991,-4,-4,5
823,-1,-14,990,-4,-4,4
824,-1,-13,990,-5,-4,5
825,-1,-13,990,-4,-4,4
826,-1,-15,990,-6,-5,4
827,0,-17,991,-4,-4,5
828,-2,-15,991,-5,-4,5
829,-2,-15,990,-5,-5,6
830,-2,-15,991,-4,-4,5
831,-2,-15,991,-4,-3,5
832,0,-12,991,-5,-5,5
833,0,-12,991,-4,-6,4
834,0,-14,991,-3,-5,4
835,0,-15,990,-4,-6,4
836,-2,-13,990,-3,-5,5
837,0,-14,991,-5,-4,5
838,0,-13,989,-3,-4,5
839,-1,-14,992,-4,-5,5
840,0,-13,992,-2,-5,4
841,0,-13,991,-2,-3,5
842,0,-15,991,-3,-3,5
843,0,-14,990,-5,-4,5
844,0,-15,992,-5,-4,5
845,-1,-16,989,-6,-5,5
846,-1,-12,991,-5,-4,6
847,0,-12,991,-5,-5,5
848,0,-14,992,-6,-5,5
849,0,-15,992,-5,-5,4
850,1,-14,992,-7,-5,5
851,0,-14,991,-4,-5,5
852,0,-14,993,-5,-6,4
853,0,-14,991,-4,-5,4
854,0,-15,991,-5,-5,4
855,-1,-13,989,-5,-4,5
856,0,-15,991,-3,-5,4
857,-2,-16,992,-3,-5,4
858,0,-14,990,-3,-4,5
859,-1,-11,991,-4,-4,5
860,0,-15,991,-3,-5,5
861,-2,-14,991,-4,-4,5
862,0,-15,991,-3,-4,5
863,0,-14,991,-6,-5,5
864,0,-14,992,-5,-3,6
865,1,-13,990,-7,-4,5
866,-1,-14,991,-5,-4,5
867,0,-13,991,-6,-4,5
868,1,-14,990,-4,-4,4
869,0,-15,990,-6,-4,4
870,-2,-16,989,-4,-3,4
871,0,-15,993,-5,-4,5
872,0,-14,989,-4,-5,5
873,-1,-14,990,-5,-5,5
874,0,-13,991,-5,-5,3
875,0,-12,990,-4,-4,4
876,0,-13,989,-3,-4,4
877,0,-13,991,-3,-4,5
878,0,-13,989,-5,-4,5
879,0,-12,991,-5,-3,5
880,-1,-16,992,-8,-6,4
881,0,-14,990,-5,-4,4
882,0,-16,991,-6,-4,5
883,-1,-14,990,-4,-5,6
884,-1,-13,991,-5,-4,4
885,-1,-13,991,-4,-4,4
886,0,-13,990,-5,-3,4
887,0,-14,990,-7,-4,4
888,0,-15,991,-6,-5,5
889,0,-15,993,-6,-4,4
890,0,-14,989,-4,-4,4
891,0,-15,991,-4,-4,5
892,0,-15,991,-3,-5,5
893,0,-13,991,-4,-4,5
894,1,-12,989,-3,-4,4
895,-1,-13,989,-3,-5,4
896,0,-13,989,-3,-3,4
897,0,-13,990,-4,-4,6
898,0,-12,991,-4,-4,5
899,0,-15,988,-5,-3,5
900,-1,-14,991,-3,-4,6
901,0,-14,989,-4,-4,5
902,0,-15,991,-4,-5,5
903,-1,-15,992,-4,-4,5
904,-1,-15,990,-7,-4,5
905,0,-13,990,-5,-5,4
906,-2,-14,989,-6,-4,5
907,-1,-13,991,-4,-4,4
908,0,-14,990,-6,-6,5
909,0,-14,990,-5,-4,4
910,0,-14,990,-6,-5,4
911,0,-14,991,-5,-4,5
912,-1,-14,990,-5,-4,5
913,0,-15,990,-4,-5,5
914,0,-15,990,-3,-5,5
915,0,-15,989,-4,-5,4
916,-2,-12,992,-3,-4,4
917,-1,-13,989,-6,-5,4
918,0,-13,990,-4,-5,4
919,0,-14,991,-7,-4,5
920,0,-14,989,-5,-4,6
921,0,-15,990,-5,-5,5
922,0,-15,991,-3,-4,5
923,-2,-13,990,-5,-4,5
924,0,-14,990,-4,-4,5
925,-1,-14,991,-5,-5,6
926,0,-14,991,-6,-5,6
927,-1,-13,990,-4,-4,4
928,-1,-14,989,-3,-4,6
929,-1,-14,993,-4,-4,4
930,0,-14,989,-4,-5,6
931,0,-14,991,-4,-4,6
932,0,-14,991,-3,-4,6
933,-1,-15,992,-3,-4,4
934,0,-13,991,-4,-5,4
935,-1,-14,992,-3,-5,4
936,0,-13,992,-4,-4,4
937,0,-13,991,-4,-4,5
938,0,-14,992,-6,-3,6
939,-1,-14,991,-5,-4,5
940,-2,-12,991,-6,-4,5
941,-2,-16,992,-5,-4,4
942,-2,-15,993,-5,-4,5
943,0,-16,991,-4,-5,5
944,1,-16,993,-6,-5,6
945,-1,-15,993,-5,-5,5
946,0,-15,990,-4,-5,5
947,0,-15,992,-4,-3,6
948,0,-14,991,-3,-5,5
949,-1,-15,991,-4,-4,5
950,0,-15,991,-4,-3,4
951,0,-16,992,-4,-4,5
952,0,-15,992,-3,-4,6
953,0,-12,990,-3,-4,5
954,0,-14,992,-5,-4,6
955,0,-13,992,-4,-4,4
956,-2,-12,990,-4,-6,5
957,-2,-15,990,-3,-5,6
958,0,-14,991,-4,-4,5
959,0,-15,991,-5,-4,5
960,0,-16,992,-4,-4,4
961,0,-15,991,-3,-4,5
962,0,-14,991,-5,-5,5
963,0,-13,991,-6,-5,5
964,0,-14,989,-6,-4,4
965,-2,-14,991,-6,-4,4
966,-2,-13,991,-5,-5,4
967,0,-12,992,-4,-5,5
968,0,-14,991,-3,-5,5
969,-1,-15,991,-2,-4,4
970,0,-13,991,-3,-4,5
971,-1,-13,990,-4,-5,5
972,-1,-14,990,-6,-5,5
973,0,-14,991,-4,-4,5
974,0,-14,990,-4,-5,4
975,-1,-15,990,-4,-5,4
976,0,-15,990,-3,-5,6
977,-1,-13,991,-4,-4,5
978,-1,-14,990,-4,-5,5
979,0,-15,991,-5,-4,5
980,0,-14,991,-3,-5,5
981,0,-14,991,-3,-5,4
982,-1,-15,991,-3,-3,4
983,0,-15,989,-4,-3,5
984,-1,-14,990,-3,-4,5
985,0,-14,990,-5,-4,7
986,0,-14,990,-4,-3,7
987,0,-13,991,-4,-4,5
988,-1,-13,991,-3,-4,6
989,0,-12,990,-5,-5,6
990,0,-12,989,-3,-3,6
991,-1,-13,989,-6,-3,5
992,0,-14,991,-5,-5,5
993,-1,-13,992,-6,-4,4
994,0,-16,993,-6,-4,4
995,0,-13,991,-5,-5,5
996,0,-15,990,-4,-4,5
997,0,-13,989,-4,-4,5
998,-1,-13,990,-6,-4,5
999,0,-13,991,-5,-3,6
1000,0,-13,990,-7,-4,5
1001,0,-14,990,-4,-5,5
1002,0,-14,989,-6,-4,5
1003,0,-12,991,-4,-4,4
1004,0,-13,992,-6,-5,5
1005,0,-13,990,-5,-4,6
1006,0,-15,992,-6,-5,5
1007,-2,-14,991,-6,-4,5
1008,0,-14,990,-5,-4,5
1009,0,-14,991,-6,-4,4
1010,-2,-14,990,-5,-5,4
1011,0,-13,990,-6,-4,5
1012,0,-15,990,-4,-4,5
1013,0,-12,992,-6,-6,5
1014,0,-14,992,-6,-4,5
1015,0,-14,991,-6,-4,4
1016,0,-16,991,-6,-4,5
1017,-1,-17,989,-6,-6,4
1018,0,-13,990,-4,-5,4
1019,0,-15,989,-5,-5,4
1020,-2,-14,993,-2,-4,5
1021,-2,-16,992,-9,-4,4
1022,0,-15,992,0,-5,5
1023,0,-14,991,-8,-5,4
1024,0,-13,991,-1,-5,4
1025,-1,-14,992,-7,-5,6
1026,-1,-14,991,-2,-5,4
1027,-1,-13,993,-8,-4,4
1028,-2,-14,991,-3,-5,4
1029,-3,-13,991,-5,-5,3
1030,-1,-14,991,-3,-5,4
1031,0,-14,991,-4,-5,5
1032,0,-14,992,-4,-5,5
1033,0,-14,992,-3,-4,5
1034,-2,-15,992,-5,-5,4
1035,-2,-14,992,-2,-5,4
1036,0,-13,990,-5,-5,5
1037,0,-16,993,-4,-6,5
1038,-1,-13,991,-6,-4,6
1039,-2,-14,990,-3,-4,5
1040,0,-16,991,-5,-4,5
1041,0,-16,991,-4,-3,5
1042,-1,-13,992,-5,-4,6
1043,0,-14,991,-5,-5,5
1044,-1,-12,990,-5,-4,5
1045,-1,-13,991,-5,-4,5
1046,0,-14,991,-5,-4,7
1047,-1,-13,991,-6,-4,6
1048,0,-14,990,-3,-3,5
1049,-1,-15,990,-5,-5,5
1050,-2,-15,992,-4,-5,5
1051,0,-13,992,-6,-5,5
1052,0,-15,992,-4,-5,5
1053,0,-15,991,-4,-4,5
1054,-1,-14,991,-3,-5,5
1055,-2,-14,990,-3,-5,5
1056,0,-15,992,-5,-4,5
1057,-1,-13,992,-4,-5,4
1058,0,-15,992,-5,-5,5
1059,-1,-15,991,-3,-5,6
1060,-2,-14,992,-4,-4,4
1061,-3,-12,991,-4,-4,4
1062,0,-12,992,-5,-4,5
1063,0,-13,991,-5,-4,6
1064,0,-13,990,-5,-4,4
1065,0,-12,990,-4,-3,5
1066,-2,-12,991,-5,-4,5
1067,-1,-13,991,-4,-4,6
1068,-1,-15,989,-5,-4,5
1069,0,-15,989,-5,-4,5
1070,0,-14,991,-4,-4,6
1071,0,-14,991,-5,-4,5
1072,1,-13,992,-3,-5,5
1073,-1,-14,990,-6,-5,4
1074,0,-13,990,-3,-4,6
1075,0,-15,990,-6,-5,5
1076,-1,-14,991,-4,-4,5
1077,-2,-15,990,-4,-5,5
1078,-1,-16,990,-4,-5,5
1079,-1,-16,991,-3,-5,4
1080,1,-14,990,-4,-4,5
1081,0,-13,992,-3,-4,5
1082,0,-15,989,-5,-4,3
1083,-1,-13,991,-3,-4,4
1084,0,-13,992,-3,-5,4
1085,0,-14,991,-3,-5,5
1086,0,-14,990,-4,-5,6
1087,0,-14,989,-5,-4,6
1088,0,-11,991,-4,-4,5
1089,-1,-12,990,-6,-5,5
1090,-1,-12,991,-4,-5,5
1091,0,-13,991,-5,-4,6
1092,0,-13,991,-5,-3,5
1093,0,-13,991,-4,-4,4
1094,-1,-15,990,-5,-4,7
1095,0,-15,991,-3,-3,6
1096,1,-16,989,-5,-5,5
1097,-1,-14,990,-4,-5,5
1098,-1,-14,992,-5,-4,5
1099,0,-14,990,-4,-3,6
1100,0,-14,992,-4,-5,5
1101,0,-15,992,-4,-4,4
1102,-1,-15,991,-4,-4,5
1103,0,-15,992,-5,-4,4
1104,-1,-14,991,-5,-4,5
1105,-4,-16,990,-6,-5,5
1106,0,-14,991,-4,-5,5
1107,-1,-14,990,-5,-4,5
1108,0,-15,992,-5,-5,5
1109,-1,-14,991,-6,-5,5
1110,0,-13,992,-4,-4,4
1111,-1,-15,991,-6,-6,4
1112,0,-14,990,-5,-5,5
1113,0,-14,992,-5,-4,5
1114,1,-13,990,-5,-5,5
1115,0,-14,990,-2,-3,4
1116,0,-15,990,-5,-4,5
1117,0,-14,991,-3,-5,5
1118,0,-13,989,-5,-5,4
1119,0,-14,992,-4,-4,5
1120,0,-14,991,-4,-4,5
1121,0,-15,991,-5,-4,4
1122,-2,-13,991,-5,-4,5
1123,-3,-14,991,-5,-5,6
1124,-2,-15,992,-4,-4,6
1125,0,-14,990,-6,-5,6
1126,0,-13,991,-5,-4,5
1127,-2,-14,992,-5,-4,5
1128,0,-14,992,-5,-4,4
1129,0,-14,991,-5,-4,5
1130,-1,-14,991,-5,-4,5
1131,-1,-15,992,-5,-4,4
1132,-1,-14,991,-5,-5,5
1133,-2,-14,991,-6,-4,5
1134,-2,-14,991,-6,-4,5
1135,-2,-14,991,-5,-4,5
1136,0,-15,991,-7,-4,6
1137,0,-16,990,-5,-4,5
1138,0,-15,990,-5,-5,4
1139,1,-14,991,-5,-5,3
1140,0,-13,990,-5,-5,5
1141,0,-13,991,-4,-4,4
1142,0,-14,991,-3,-4,5
1143,0,-13,989,-4,-4,4
1144,0,-13,989,-3,-4,4
1145,0,-14,991,-5,-4,4
1146,-1,-16,991,-4,-4,4
1147,0,-14,989,-3,-4,6
1148,0,-16,990,-3,-5,5
1149,-1,-16,990,-3,-4,4
1150,0,-15,990,-5,-5,5
1151,0,-14,991,-3,-5,5
1152,-1,-13,991,-4,-5,4
1153,0,-14,990,-4,-4,3
1154,0,-14,989,-5,-6,4
1155,1,-14,988,-5,-3,5
1156,1,-14,991,-5,-5,5
1157,0,-12,990,-6,-5,5
1158,0,-14,992,-4,-4,6
1159,0,-15,991,-3,-4,4
1160,0,-14,991,-3,-5,5
1161,0,-14,989,-4,-4,5
1162,-1,-14,990,-5,-4,6
1163,0,-13,993,-5,-5,5
1164,0,-16,991,-5,-4,4
1165,-2,-13,991,-5,-5,5
1166,0,-13,990,-5,-5,4
1167,0,-14,991,-4,-4,5
1168,2,-14,991,-7,-5,5
1169,0,-14,990,-4,-4,5
1170,0,-14,990,-5,-4,6
1171,1,-15,990,-5,-4,5
1172,1,-14,992,-7,-4,4
1173,0,-13,990,-6,-4,5
1174,0,-14,990,-5,-5,5
1175,-1,-14,991,-5,-3,5
1176,-2,-12,991,-6,-4,4
1177,0,-12,989,-4,-3,5
1178,-2,-13,991,-5,-4,5
1179,-2,-12,991,-5,-5,5
1180,-1,-13,989,-5,-5,6
1181,-2,-16,991,-5,-5,5
1182,0,-14,990,-3,-5,5
1183,-1,-14,992,-6,-4,5
1184,0,-13,991,-3,-3,5
1185,0,-14,989,-5,-4,6
1186,0,-13,991,-5,-5,6
1187,-1,-14,991,-6,-4,5
1188,-1,-14,990,-4,-3,7
1189,1,-13,991,-5,-4,5
1190,0,-14,990,-5,-4,5
1191,0,-14,991,-5,-4,5
1192,0,-14,990,-5,-6,4
1193,-1,-15,990,-5,-3,6
1194,-1,-15,990,-6,-4,6
1195,-1,-14,990,-4,-5,5
1196,0,-15,991,-5,-4,5
1197,-1,-15,990,-4,-4,6
1198,-1,-15,991,-5,-5,4
1199,0,-15,990,-5,-4,5
1200,0,-14,989,-2,-5,4
1201,0,-15,990,-4,-5,4
1202,-1,-16,990,-3,-4,4
1203,0,-14,992,-4,-5,5
1204,-1,-13,991,-3,-4,6
1205,-1,-14,989,-4,-5,4
1206,0,-14,991,-4,-5,4
1207,0,-15,991,-5,-5,6
1208,0,-14,991,-5,-3,5
1209,-1,-13,991,-5,-4,5
1210,-1,-16,991,-4,-4,5
1211,1,-13,989,-4,-4,5
1212,0,-15,992,-4,-6,6
1213,0,-14,990,-3,-4,5
1214,0,-15,989,-4,-5,5
1215,0,-15,990,-3,-4,4
1216,-1,-13,992,-5,-4,6
1217,-1,-13,992,-4,-4,5
1218,-1,-16,991,-4,-4,5
1219,0,-15,993,-3,-4,6
1220,-2,-15,992,-4,-5,6
1221,-1,-15,992,-4,-5,5
1222,-1,-15,991,-5,-5,5
1223,0,-16,991,-4,-5,5
1224,0,-14,992,-5,-4,5
1225,0,-13,992,-6,-4,4
1226,-1,-15,992,-6,-4,5
1227,0,-13,992,-6,-3,4
1228,-1,-14,991,-7,-5,4
1229,-3,-15,991,-6,-4,5
1230,-1,-14,992,-6,-5,5
1231,-1,-15,992,-5,-4,5
1232,-1,-16,991,-7,-4,5
1233,0,-14,991,-6,-4,5
1234,-1,-15,991,-6,-5,4
1235,-1,-14,990,-5,-4,4
1236,1,-14,990,-3,-5,4
1237,0,-14,992,-4,-4,4
1238,0,-16,991,-3,-4,5
1239,-1,-13,990,-5,-5,5
1240,-1,-15,991,-5,-5,5
1241,-2,-15,990,-7,-4,6
1242,-1,-14,991,-5,-5,6
1243,-1,-14,991,-5,-5,4
1244,-1,-13,989,-4,-4,5
1245,-2,-15,991,-4,-4,4
1246,-1,-15,991,-4,-5,5
1247,-1,-18,990,-3,-4,5
1248,0,-16,989,-3,-4,6
1249,-2,-14,990,-4,-4,5
1250,0,-15,990,-6,-4,5
1251,0,-14,990,-5,-5,4
1252,0,-15,989,-5,-5,4
1253,-1,-15,991,-5,-5,5
1254,0,-13,991,-4,-3,4
1255,0,-15,991,-6,-4,5
1256,0,-13,991,-4,-5,5
1257,0,-13,991,-4,-4,5
1258,0,-14,991,-4,-5,5
1259,1,-15,989,-2,-4,5
1260,-1,-15,990,-5,-4,5
1261,0,-17,991,-3,-4,4
1262,0,-15,990,-4,-4,5
1263,-1,-15,987,-4,-5,5
1264,0,-15,990,-5,-4,6
1265,0,-14,989,-4,-3,6
1266,0,-13,991,-3,-4,5
1267,0,-14,991,-4,-4,5
1268,0,-12,988,-5,-4,6
1269,0,-15,992,-7,-4,5
1270,0,-14,991,-6,-4,5
1271,0,-12,993,-6,-4,6
1272,-1,-13,992,-5,-4,4
1273,0,-14,990,-5,-4,4
1274,-1,-12,991,-4,-3,4
1275,0,-14,989,-3,-4,5
1276,0,-15,989,-5,-3,5
1277,1,-13,990,-6,-4,5
1278,0,-11,989,-5,-4,5
1279,-1,-13,991,-4,-4,4
1280,0,-14,992,-5,-6,4
1281,-1,-14,990,-5,-5,5
1282,-1,-14,990,-4,-4,4
1283,0,-13,990,-4,-5,4
1284,0,-14,991,-5,-5,5
1285,0,-13,990,-3,-4,5
1286,0,-12,991,-4,-4,3
1287,0,-14,990,-4,-4,5
1288,2,-14,991,-5,-4,6
1289,0,-15,991,-4,-3,6
1290,-1,-15,991,-6,-4,5
1291,0,-16,991,-5,-4,4
1292,0,-13,990,-5,-4,5
1293,0,-12,990,-5,-5,5
1294,0,-14,992,-4,-5,5
1295,0,-16,990,-5,-5,5
1296,0,-14,990,-6,-4,6
1297,0,-15,990,-7,-5,5
1298,-1,-14,989,-6,-4,5
1299,0,-15,990,-6,-6,3
1300,-1,-15,989,-5,-4,5
1301,0,-14,989,-5,-4,4
1302,0,-15,991,-4,-5,4
1303,0,-13,991,-5,-4,4
1304,-1,-13,991,-6,-4,5
1305,0,-15,990,-2,-5,5
1306,0,-13,990,-4,-3,5
1307,0,-13,992,-4,-5,6
1308,0,-14,991,-4,-5,4
1309,0,-14,991,-3,-4,4
1310,0,-16,992,-4,-4,4
1311,0,-15,991,-5,-4,5
1312,-1,-14,992,-5,-4,5
1313,0,-13,992,-5,-4,5
1314,0,-15,991,-6,-4,5
1315,0,-13,992,-5,-5,4
1316,-1,-13,990,-6,-5,5
1317,-1,-14,993,-3,-3,5
1318,-1,-13,992,-5,-4,5
1319,-2,-15,992,-3,-4,5
1320,0,-14,991,-4,-5,3
1321,0,-13,992,-5,-4,4
1322,1,-14,992,-4,-5,4
1323,0,-14,991,-4,-3,5
1324,-1,-12,992,-4,-5,5
1325,0,-14,993,-6,-4,4
1326,0,-15,989,-5,-4,4
1327,0,-15,991,-5,-5,4
1328,-1,-14,991,-4,-4,5
1329,0,-14,990,-4,-5,3
1330,-1,-14,992,-5,-5,5
1331,-2,-13,991,-5,-4,4
1332,-1,-14,990,-5,-4,4
1333,0,-14,990,-4,-5,4
1334,-2,-13,990,-3,-6,4
1335,0,-15,990,-4,-5,5
1336,1,-16,989,-4,-4,4
1337,1,-15,990,-4,-4,5
1338,0,-14,992,-3,-5,5
1339,-1,-13,992,-4,-5,4
1340,-2,-12,992,-3,-4,6
1341,0,-13,990,-5,-6,4
1342,0,-14,990,-5,-4,6
1343,0,-14,989,-7,-3,6
1344,1,-14,991,-5,-4,5
1345,-1,-14,991,-5,-4,4
1346,-2,-15,990,-4,-5,4
1347,-1,-14,989,-2,-5,4
1348,0,-15,991,-4,-5,4
1349,0,-15,989,-3,-5,4
1350,0,-13,989,-5,-4,5
1351,0,-15,990,-5,-3,6
1352,1,-13,992,-4,-4,5
1353,0,-12,991,-4,-3,6
1354,0,-14,992,-5,-4,5
1355,0,-13,989,-6,-3,6
1356,0,-14,989,-3,-5,5
1357,0,-16,989,-9,-4,5
1358,0,-14,989,-1,-4,6
1359,0,-14,991,-10,-5,5
1360,-1,-14,991,-2,-4,3
1361,-2,-13,991,-7,-4,5
1362,0,-12,992,-3,-4,5
1363,-1,-15,992,-7,-3,5
1364,0,-12,991,-3,-4,4
1365,0,-14,991,-5,-5,4
1366,0,-14,990,-4,-6,3
1367,-1,-15,990,-5,-4,5
1368,0,-15,991,-4,-4,6
1369,-1,-13,991,-3,-4,5
1370,0,-12,991,-5,-4,5
1371,0,-13,991,-6,-4,4
1372,0,-13,990,-6,-4,6
1373,0,-14,990,-5,-4,6
1374,0,-16,990,-6,-5,6
1375,0,-15,990,-5,-5,5
1376,0,-14,990,-5,-4,4
1377,-1,-15,991,-4,-4,5
1378,0,-13,991,-5,-4,4
1379,0,-14,992,-4,-5,6
1380,0,-14,990,-6,-4,5
1381,0,-13,991,-5,-5,5
1382,0,-15,992,-5,-5,5
1383,-2,-14,993,-5,-5,6
1384,0,-15,991,-4,-4,5
1385,0,-15,992,-5,-4,4
1386,0,-17,990,-4,-5,5
1387,-2,-15,990,-5,-5,4
1388,-1,-17,991,-4,-5,5
1389,0,-14,991,-5,-4,4
1390,-1,-14,991,-4,-4,6
1391,-1,-15,991,-4,-5,5
1392,0,-15,991,-4,-3,5
1393,-2,-13,991,-4,-4,5
1394,-1,-15,991,-3,-5,5
1395,0,-16,989,-3,-4,4
1396,0,-14,992,-4,-5,5
1397,0,-15,990,-4,-3,6
1398,0,-13,991,-5,-4,5
1399,-1,-15,990,-5,-4,6
1400,0,-15,990,-6,-4,5
1401,0,-14,991,-5,-4,4
1402,-2,-14,992,-4,-6,4
1403,0,-13,991,-5,-6,5
1404,0,-14,992,-3,-5,4
1405,-1,-15,991,-6,-3,5
1406,-2,-14,990,-4,-3,5
1407,-1,-15,990,-8,-4,4
1408,0,-13,993,-5,-4,6
1409,0,-14,991,-6,-5,6
1410,0,-16,991,-4,-5,5
1411,-1,-16,992,-5,-4,5
1412,0,-13,993,-5,-4,5
1413,0,-14,992,-5,-5,4
1414,-2,-16,992,-4,-4,5
1415,0,-14,993,-3,-5,5
1416,0,-16,991,-4,-5,4
1417,0,-15,991,-3,-5,5
1418,-1,-13,992,-6,-5,6
1419,0,-13,992,-5,-5,6
1420,0,-15,991,-5,-4,5
1421,0,-12,992,-5,-4,5
1422,-1,-13,992,-4,-4,4
1423,-2,-11,991,-5,-5,4
1424,0,-12,990,-5,-6,4
1425,-1,-13,990,-5,-5,5
1426,-1,-14,990,-3,-5,5
1427,0,-14,990,-4,-6,4
1428,0,-15,990,-4,-5,6
1429,-2,-14,991,-6,-5,5
1430,0,-16,990,-3,-5,5
1431,-1,-16,990,-3,-4,6
1432,0,-13,991,-3,-4,5
1433,-2,-13,989,-4,-5,5
1434,-1,-15,991,-4,-4,5
1435,-1,-14,991,-3,-5,5
1436,0,-13,992,-5,-5,3
1437,1,-14,990,-4,-4,5
1438,0,-13,990,-5,-4,5
1439,0,-13,990,-3,-5,5
1440,0,-13,990,-5,-4,5
1441,-2,-14,991,-4,-3,5
1442,0,-13,991,-4,-4,5
1443,-1,-14,991,-4,-4,5
1444,-1,-13,991,-5,-5,5
1445,0,-13,991,-3,-4,5
1446,0,-12,992,-4,-4,5
1447,0,-14,991,-4,-4,5
1448,0,-14,991,-4,-4,5
1449,1,-15,989,-4,-3,5
1450,0,-16,991,-4,-4,5
1451,0,-13,991,-6,-4,5
1452,-1,-14,990,-5,-4,5
1453,0,-13,990,-7,-4,5
1454,0,-14,991,-4,-4,4
1455,-1,-14,991,-5,-3,4
1456,0,-13,991,-4,-4,5
1457,-1,-13,991,-6,-4,5
1458,-2,-13,991,-5,-6,5
1459,0,-14,991,-5,-4,5
1460,0,-14,990,-6,-4,5
1461,-2,-13,991,-4,-4,5
1462,0,-15,991,-5,-5,5
1463,1,-14,990,-4,-5,5
1464,-2,-12,990,-6,-5,4
1465,-1,-13,990,-5,-4,5
1466,0,-15,991,-5,-4,4
1467,0,-15,991,-4,-3,4
1468,0,-15,990,-4,-5,5
1469,-1,-15,991,-4,-4,4
1470,-1,-16,989,-5,-4,5
1471,-2,-14,991,-5,-4,5
1472,-1,-15,991,-5,-4,5
1473,0,-14,990,-7,-5,5
1474,-1,-15,992,-4,-5,5
1475,0,-14,991,-6,-5,4
1476,0,-15,990,-4,-6,5
1477,0,-15,991,-4,-7,5
1478,0,-15,990,-5,-4,4
1479,0,-13,990,-4,-4,5
1480,0,-15,990,-4,-5,4
1481,-1,-15,990,-4,-4,6
1482,0,-13,991,-5,-4,5
1483,0,-14,991,-3,-4,5
1484,-1,-15,990,-5,-4,4
1485,-1,-15,991,-4,-4,5
1486,0,-14,990,-6,-3,5
1487,-2,-14,991,-3,-3,5
1488,0,-13,990,-3,-5,4
1489,0,-13,990,-6,-5,5
1490,0,-14,990,-5,-4,5
1491,0,-13,991,-4,-4,5
1492,1,-15,990,-5,-4,5
1493,-1,-14,990,-6,-4,4
1494,-1,-15,992,-7,-4,4
1495,-1,-14,992,-7,-5,4
1496,0,-13,991,-6,-4,4
1497,0,-14,991,-7,-5,5
1498,-1,-14,991,-4,-4,5
1499,0,-15,991,-6,-4,4
1500,0,-14,992,-4,-5,3
1501,-1,-15,992,-4,-4,5
1502,0,-15,993,-3,-4,5
1503,-1,-15,992,-4,-6,4
1504,1,-14,991,-4,-4,5
1505,0,-16,993,-5,-4,6
1506,0,-13,994,-5,-5,5
1507,0,-13,993,-5,-4,5
1508,-1,-14,991,-5,-4,5
1509,-2,-13,991,-6,-5,4
1510,0,-13,992,-6,-5,5
1511,-1,-16,991,-3,-4,4
1512,-1,-15,991,-5,-5,5
1513,-1,-14,992,-1,-4,5
1514,-1,-15,992,-4,-5,5
1515,0,-13,991,-2,-5,4
1516,0,-15,990,-5,-4,5
1517,0,-14,990,-4,-5,4
1518,-1,-13,990,-4,-6,4
1519,-1,-14,991,-4,-5,4
1520,0,-12,991,-4,-4,4
1521,-1,-13,990,-4,-4,5
1522,0,-13,991,-3,-5,5
1523,0,-15,991,-4,-5,4
1524,-1,-15,990,-3,-5,4
1525,-2,-15,990,-4,-4,5
1526,-2,-14,990,-4,-4,6
1527,-2,-14,992,-6,-4,5
1528,-1,-14,992,-4,-4,5
1529,-1,-14,991,-5,-4,5
1530,0,-14,991,-4,-4,5
1531,0,-13,991,-6,-5,3
1532,0,-14,991,-3,-5,5
1533,0,-14,991,-5,-4,5
1534,0,-14,990,-4,-5,5
1535,-2,-13,989,-6,-5,6
1536,0,-13,990,-3,-4,6
1537,0,-13,990,-5,-5,4
1538,0,-13,990,-6,-4,5
1539,0,-16,991,-5,-4,6
1540,0,-14,991,-5,-5,5
1541,0,-13,990,-3,-5,5
1542,0,-13,990,-5,-4,4
1543,-1,-15,991,-5,-6,4
1544,0,-14,990,-5,-4,4
1545,0,-14,990,-3,-4,5
1546,0,-14,990,-5,-4,4
1547,0,-15,991,-3,-5,4
1548,0,-13,990,-5,-3,5
1549,-1,-13,991,-4,-4,5
1550,0,-13,991,-5,-5,4
1551,0,-13,990,-4,-4,5
1552,-1,-12,990,-5,-4,5
1553,-1,-14,990,-4,-4,4
1554,0,-15,990,-5,-5,6
1555,0,-16,992,-6,-5,5
1556,1,-15,992,-5,-4,5
1557,1,-14,992,-5,-4,5
1558,-2,-12,991,-5,-4,5
1559,-1,-12,988,-6,-6,4
1560,0,-13,990,-4,-5,4
1561,0,-16,990,-5,-5,4
1562,-1,-14,990,-4,-5,4
1563,-1,-14,991,-5,-3,5
1564,0,-15,989,-3,-4,5
1565,-1,-14,991,-5,-4,6
1566,0,-13,990,-3,-5,5
1567,-1,-14,990,-5,-4,5
1568,-1,-13,990,-5,-4,5
1569,0,-15,990,-6,-5,6
1570,0,-15,991,-3,-5,4
1571,1,-13,991,-5,-5,6
1572,0,-14,992,-4,-5,6
1573,-1,-13,991,-5,-5,4
1574,0,-14,991,-5,-4,5
1575,0,-12,991,-4,-3,5
1576,0,-13,991,-4,-4,5
1577,0,-15,992,-5,-5,4
1578,0,-15,992,-6,-4,4
1579,-3,-16,991,-4,-5,4
1580,0,-15,991,-7,-5,5
1581,0,-14,991,-5,-4,5
1582,0,-16,990,-5,-5,4
1583,-2,-14,991,-4,-5,5
1584,0,-15,990,-5,-4,5
1585,0,-14,991,-4,-4,5
1586,0,-13,991,-6,-5,5
1587,0,-16,990,-5,-4,4
1588,0,-15,992,-5,-4,4
1589,0,-14,991,-4,-5,6
1590,-1,-15,992,-5,-6,5
1591,-1,-15,992,-4,-4,6
1592,0,-14,991,-3,-6,5
1593,-1,-13,991,-4,-3,4
1594,0,-13,993,-4,-4,5
1595,0,-13,992,-4,-4,4
1596,-2,-14,992,-3,-4,4
1597,-3,-14,992,-6,-3,5
1598,-1,-14,992,-4,-4,4
1599,-1,-15,991,-5,-4,5
1600,0,-14,992,-4,-5,5
1601,0,-14,992,-5,-5,5
1602,0,-13,991,-4,-3,5
1603,-1,-14,992,-4,-4,6
1604,0,-15,991,-5,-5,4
1605,0,-13,992,-5,-4,4
1606,0,-15,990,-7,-4,4
1607,-1,-14,992,-4,-5,6
1608,0,-13,990,-6,-4,4
1609,0,-16,990,-6,-5,5
1610,-1,-16,990,-5,-5,5
1611,-1,-16,991,-3,-5,5
1612,0,-15,990,-4,-5,5
1613,0,-14,991,-3,-5,5
1614,0,-14,990,-4,-5,4
1615,0,-15,990,-4,-5,5
1616,0,-13,991,-5,-5,5
1617,0,-13,989,-5,-5,5
1618,0,-15,989,-4,-4,5
1619,-2,-15,990,-5,-4,4
1620,-2,-15,991,-3,-4,5
1621,-2,-15,992,-6,-5,5
1622,-1,-15,990,-4,-4,4
1623,0,-13,990,-5,-4,5
1624,0,-16,989,-4,-4,5
1625,0,-15,991,-5,-5,4
1626,-1,-16,992,-4,-4,5
1627,-1,-14,990,-5,-6,5
1628,0,-15,990,-3,-4,4
1629,0,-15,990,-4,-5,5
1630,0,-14,990,-4,-5,5
1631,-1,-15,990,-4,-5,5
1632,0,-15,991,-4,-4,4
1633,0,-13,990,-4,-4,5
1634,0,-14,989,-4,-5,5
1635,0,-13,990,-5,-4,5
1636,0,-15,990,-5,-3,4
1637,0,-14,991,-3,-4,5
1638,-1,-14,992,-4,-4,4
1639,-1,-14,991,-3,-5,4
1640,-1,-15,990,-4,-5,5
1641,-1,-14,990,-4,-3,5
1642,0,-13,990,-5,-4,5
1643,0,-13,990,-4,-5,5
1644,0,-13,990,-7,-4,5
1645,0,-14,991,-3,-4,5
1646,-2,-15,991,-5,-4,5
1647,0,-14,992,-3,-4,6
1648,0,-13,992,-6,-4,5
1649,-2,-15,992,-5,-4,6
1650,-1,-15,989,-6,-4,5
1651,0,-13,991,-5,-5,6
1652,-1,-13,989,-6,-6,4
1653,0,-14,990,-3,-5,4
1654,-2,-13,991,-5,-5,5
1655,1,-11,991,-3,-5,4
1656,1,-13,991,-5,-6,4
1657,-1,-14,991,-5,-4,5
1658,0,-12,990,-5,-5,4
1659,-2,-14,990,-4,-4,5
1660,-1,-14,991,-3,-4,5
1661,0,-14,991,-5,-5,5
1662,0,-15,989,-4,-4,5
1663,0,-17,991,-5,-5,6
1664,-1,-16,989,-5,-4,5
1665,-1,-13,989,-7,-3,5
1666,0,-14,991,-4,-3,5
1667,0,-16,992,-6,-4,4
1668,1,-14,992,-4,-5,5
1669,0,-12,992,-4,-4,4
1670,0,-13,991,-3,-5,4
1671,0,-15,991,-5,-4,4
1672,0,-14,990,-4,-4,5
1673,0,-13,991,-5,-5,4
1674,0,-15,990,-4,-4,5
1675,0,-13,991,-4,-5,5
1676,-1,-14,990,-6,-4,6
1677,0,-13,992,-6,-3,5
1678,-2,-14,990,-7,-4,4
1679,0,-14,991,-4,-5,4
1680,0,-14,992,-6,-5,5
1681,0,-13,992,-6,-5,5
1682,-1,-15,993,-4,-4,5
1683,0,-16,993,-6,-3,5
1684,-2,-15,992,-5,-3,4
1685,-1,-15,992,-5,-4,5
1686,-1,-15,992,-5,-4,5
1687,0,-14,992,-7,-4,4
1688,0,-11,991,-6,-4,6
1689,0,-16,991,-5,-4,5
1690,0,-15,991,-3,-4,5
1691,0,-14,991,0,-5,5
1692,0,-15,991,-5,-4,4
1693,0,-16,991,-4,-5,5
1694,-1,-15,990,-3,-4,6
1695,-1,-15,992,-5,-5,5
1696,0,-14,991,-2,-4,4
1697,-1,-13,991,-6,-4,5
1698,0,-13,991,-3,-4,5
1699,0,-15,991,-6,-5,4
1700,0,-13,991,-3,-4,6
1701,0,-15,991,-7,-4,5
1702,-1,-14,989,-4,-4,5
1703,0,-15,992,-6,-4,5
1704,-1,-13,991,-5,-4,5
1705,-2,-15,990,-4,-4,5
1706,-1,-15,991,-3,-6,4
1707,-2,-14,991,-4,-4,5
1708,0,-13,990,-4,-5,5
1709,0,-13,991,-5,-5,5
1710,-2,-14,990,-5,-5,5
1711,1,-15,990,-5,-4,4
1712,0,-15,992,-5,-5,4
1713,0,-13,990,-5,-5,5
1714,0,-15,990,-6,-5,5
1715,-2,-14,992,-4,-4,6
1716,0,-12,992,-5,-5,5
1717,0,-14,991,-4,-5,5
1718,-1,-15,990,-4,-5,5
1719,0,-13,989,-3,-3,5
1720,0,-14,990,-4,-4,5
1721,0,-14,991,-5,-4,5
1722,-1,-14,989,-6,-4,5
1723,-1,-14,990,-5,-4,5
1724,0,-15,991,-4,-4,4
1725,0,-15,990,-7,-4,5
1726,1,-13,991,-5,-4,5
1727,0,-12,992,-5,-5,4
1728,-1,-12,990,-4,-5,3
1729,0,-15,990,-4,-5,5
1730,0,-12,991,-4,-4,6
1731,0,-13,990,-4,-4,4
1732,0,-15,991,-4,-3,4
1733,0,-15,990,-5,-4,5
1734,0,-17,990,-5,-4,4
1735,0,-15,991,-4,-4,5
1736,-1,-14,991,-4,-5,6
1737,0,-13,989,-4,-4,5
1738,0,-14,991,-5,-4,4
1739,0,-14,992,-5,-4,4
1740,1,-13,990,-4,-4,5
1741,0,-12,991,-4,-3,4
1742,0,-12,990,-7,-5,5
1743,-1,-13,991,-6,-4,4
1744,0,-15,990,-6,-4,5
1745,0,-14,990,-4,-4,4
1746,0,-16,990,-3,-5,5
1747,-1,-14,991,-5,-4,4
1748,-1,-15,992,-4,-5,4
1749,0,-12,990,-3,-5,5
1750,0,-13,992,-4,-4,4
1751,0,-14,994,-5,-6,4
1752,0,-13,990,-3,-5,5
1753,0,-14,990,-5,-4,4
1754,-2,-13,990,-2,-5,5
1755,0,-15,993,-6,-6,5
1756,0,-15,990,-4,-4,5
1757,0,-12,990,-5,-5,4
1758,-1,-13,991,-5,-4,4
1759,-1,-13,990,-4,-4,4
1760,0,-15,990,-7,-5,5
1761,-1,-14,992,-4,-5,5
1762,-1,-13,992,-6,-4,5
1763,-1,-13,991,-4,-4,5
1764,-1,-14,992,-6,-4,4
1765,-1,-14,992,-4,-4,5
1766,-1,-16,990,-4,-5,6
1767,0,-14,990,-4,-4,4
1768,1,-13,993,-4,-5,4
1769,-2,-14,991,-3,-5,4
1770,0,-14,991,-4,-4,5
1771,1,-14,991,-4,-4,4
1772,0,-15,991,-3,-4,5
1773,-1,-13,991,-4,-4,4
1774,-1,-13,992,-5,-4,5
1775,-2,-12,992,-7,-4,5
1776,0,-16,992,-5,-4,5
1777,-1,-15,992,-5,-4,5
1778,0,-15,991,-5,-4,5
1779,0,-14,992,-4,-3,5
1780,-1,-15,991,-5,-4,4
1781,0,-14,991,-3,-5,5
1782,0,-12,993,-4,-4,5
1783,0,-14,990,-4,-4,5
1784,0,-12,991,-4,-4,5
1785,0,-12,991,-5,-4,5
1786,0,-14,989,-5,-4,6
1787,-1,-15,992,-3,-4,6
1788,-1,-13,990,-4,-5,6
1789,0,-14,990,-5,-4,6
1790,0,-15,991,-4,-4,4
1791,-1,-14,990,-5,-5,5
1792,0,-13,991,-4,-4,4
1793,0,-14,992,-5,-5,4
1794,2,-13,991,-4,-3,5
1795,0,-13,991,-6,-4,5
1796,0,-13,990,-6,-4,5
1797,0,-13,990,-7,-3,5
1798,0,-15,992,-6,-4,6
1799,-1,-13,991,-4,-4,6
1800,0,-15,989,-6,-4,4
1801,1,-14,991,-4,-5,5
1802,0,-14,990,-5,-6,4
1803,-1,-16,990,-4,-5,5
1804,1,-16,991,-4,-5,4
1805,0,-14,991,-3,-3,5
1806,0,-15,992,-4,-4,5
1807,0,-15,991,-4,-4,5
1808,0,-16,991,-4,-4,4
1809,0,-16,991,-5,-5,5
1810,0,-16,991,-4,-4,4
1811,0,-14,990,-4,-3,5
1812,0,-14,991,-4,-4,5
1813,0,-14,990,-6,-5,5
1814,0,-14,989,-4,-5,5
1815,-1,-13,990,-5,-6,4
1816,1,-14,991,-5,-4,4
1817,0,-15,989,-5,-4,5
1818,-1,-14,990,-6,-4,5
1819,0,-15,990,-6,-4,6
1820,-1,-15,990,-6,-4,4
1821,-1,-13,991,-5,-3,6
1822,0,-13,991,-5,-4,5
1823,0,-13,990,-4,-4,3
1824,1,-14,990,-5,-4,3
1825,-1,-13,991,-5,-4,4
1826,0,-12,989,-4,-5,4
1827,-1,-14,989,-4,-4,4
1828,0,-15,991,-3,-5,5
1829,0,-15,991,-4,-4,4
1830,0,-15,990,-5,-4,6
1831,0,-14,990,-5,-5,5
1832,0,-14,991,-3,-4,5
1833,0,-13,989,-4,-4,5
1834,0,-14,991,-4,-5,5
1835,0,-15,991,-4,-5,5
1836,-3,-14,991,-3,-4,5
1837,0,-14,991,-4,-4,6
1838,0,-13,991,-4,-5,5
1839,0,-15,990,-3,-4,4
1840,0,-13,990,-5,-4,4
1841,1,-14,990,-2,-4,5
1842,-2,-14,993,-4,-5,5
1843,-1,-15,992,-4,-5,5
1844,-1,-15,990,-5,-4,5
1845,-1,-13,991,-3,-3,5
1846,-3,-12,990,-4,-4,5
1847,-3,-14,990,-3,-4,5
1848,-1,-14,990,-5,-4,5
1849,-2,-14,990,-6,-6,5
1850,0,-13,992,-6,-5,4
1851,0,-12,989,-5,-4,5
1852,0,-14,991,-4,-4,5
1853,0,-13,991,-5,-3,5
1854,0,-14,990,-3,-4,5
1855,-1,-14,991,-5,-6,5
1856,0,-15,993,-5,-5,5
1857,0,-14,992,-6,-5,5
1858,0,-15,991,-5,-5,5
1859,-1,-15,991,-4,-5,6
1860,-1,-13,991,-5,-4,4
1861,-2,-15,991,-4,-5,3
1862,-1,-14,991,-5,-5,4
1863,0,-14,993,-3,-6,4
1864,0,-12,993,-4,-5,5
1865,0,-14,992,-2,-4,4
1866,-1,-14,993,-4,-4,4
1867,-1,-14,993,-4,-4,5
1868,0,-12,992,-6,-4,5
1869,0,-13,993,-6,-4,4
1870,0,-15,992,-6,-5,5
1871,-1,-16,993,-7,-4,5
1872,0,-15,991,-4,-4,5
1873,-2,-14,992,-6,-5,5
1874,-2,-14,991,-3,-5,3
1875,-2,-15,991,-5,-6,4
1876,-1,-14,990,-3,-5,5
1877,0,-13,991,-4,-5,4
1878,0,-14,992,-3,-3,5
1879,0,-14,991,-3,-5,5
1880,0,-14,991,-5,-4,6
1881,0,-13,991,-5,-4,4
1882,1,-14,991,-3,-4,5
1883,0,-12,991,-3,-4,4
1884,0,-13,992,-4,-5,5
1885,0,-14,990,-3,-4,4
1886,-1,-12,989,-5,-4,4
1887,-2,-12,991,-3,-4,5
1888,0,-14,989,-6,-4,6
1889,0,-14,989,-3,-4,5
1890,0,-14,991,-5,-4,5
1891,-2,-13,990,-3,-3,5
1892,0,-15,990,-5,-4,5
1893,0,-14,991,-3,-4,5
1894,0,-14,993,-3,-4,5
1895,0,-14,990,-3,-5,5
1896,0,-13,989,-4,-4,5
1897,0,-13,991,-4,-3,5
1898,0,-14,990,-3,-5,5
1899,0,-15,989,-5,-5,5
1900,-3,-13,991,-5,-4,4
1901,0,-14,990,-5,-5,5
1902,0,-15,991,-4,-5,5
1903,-1,-14,990,-6,-4,5
1904,0,-15,991,-4,-4,6
1905,0,-13,992,-5,-3,5
1906,0,-13,990,-5,-5,4
1907,0,-15,991,-6,-4,5
1908,0,-15,991,-4,-4,4
1909,0,-14,990,-4,-3,5
1910,0,-15,990,-4,-4,4
1911,-1,-12,992,-4,-5,4
1912,-1,-14,990,-3,-4,5
1913,1,-14,991,-5,-4,6
1914,0,-13,991,-6,-4,4
1915,0,-15,991,-7,-4,5
1916,-2,-13,991,-6,-4,5
1917,0,-14,991,-4,-4,6
1918,0,-16,990,-6,-5,4
1919,-1,-15,990,-5,-4,5
1920,0,-15,990,-6,-5,4
1921,0,-13,990,-4,-4,4
1922,0,-13,991,-5,-5,4
1923,0,-14,992,-3,-5,5
1924,1,-11,990,-4,-5,5
1925,0,-13,990,-4,-4,5
1926,0,-13,991,-4,-4,4
1927,-1,-14,990,-4,-5,5
1928,0,-15,989,-3,-5,5
1929,-2,-16,992,-3,-5,5
1930,0,-14,989,-3,-5,4
1931,-1,-15,989,-4,-3,5
1932,0,-15,992,-3,-4,5
1933,0,-15,990,-3,-4,6
1934,-1,-14,992,-3,-3,6
1935,0,-16,990,-4,-4,4
1936,-1,-17,991,-3,-5,4
1937,0,-13,990,-5,-4,5
1938,-1,-13,990,-6,-4,4
1939,0,-14,991,-6,-4,5
1940,-1,-15,991,-5,-4,4
1941,-4,-15,992,-5,-3,5
1942,-1,-14,990,-4,-4,5
1943,0,-16,991,-5,-4,5
1944,0,-14,989,-4,-4,5
1945,0,-13,990,-5,-4,4
1946,-1,-12,991,-4,-4,4
1947,0,-14,993,-5,-4,4
1948,0,-14,992,-3,-4,4
1949,0,-14,992,-4,-5,5
1950,0,-12,991,-3,-4,4
1951,-2,-13,991,-5,-5,5
1952,-2,-12,991,-3,-5,5
1953,-1,-15,990,-5,-5,5
1954,0,-16,992,-5,-5,5
1955,-1,-15,991,-4,-6,5
1956,-2,-15,991,-3,-6,5
1957,0,-14,991,-5,-4,4
1958,0,-14,993,-4,-5,5
1959,-1,-15,992,-3,-5,5
1960,0,-15,991,-5,-3,5
1961,0,-15,991,-5,-5,5
1962,-1,-14,992,-5,-4,4
1963,-1,-15,991,-5,-4,4
1964,-1,-15,991,-5,-5,5
1965,-1,-13,992,-2,-5,5
1966,0,-14,990,-5,-4,6
1967,0,-13,991,-2,-4,5
1968,1,-13,990,-5,-4,5
1969,-1,-14,989,-5,-3,5
1970,0,-12,990,-5,-4,5
1971,-2,-16,991,-4,-5,5
1972,-1,-16,991,-5,-5,5
1973,-1,-16,990,-3,-5,4
1974,-2,-14,992,-6,-3,4
1975,0,-16,990,-3,-3,5
1976,0,-12,989,-4,-4,5
1977,-1,-12,990,-4,-4,5
1978,0,-14,991,-6,-4,6
1979,0,-15,990,-5,-4,5
1980,0,-16,992,-6,-4,5
1981,0,-13,992,-5,-3,4
1982,-1,-14,992,-6,-5,5
1983,0,-14,990,-6,-5,5
1984,0,-14,990,-4,-3,5
1985,1,-13,990,-5,-5,5
1986,0,-15,990,-4,-4,4
1987,-1,-12,990,-5,-4,5
1988,-2,-14,991,-3,-5,6
1989,-1,-16,989,-4,-4,4
1990,0,-14,991,-3,-3,5
1991,1,-14,991,-4,-5,6
1992,0,-13,992,-5,-4,6
1993,0,-14,992,-5,-4,6
1994,0,-13,990,-5,-3,5
1995,-1,-12,992,-4,-4,4
1996,0,-12,991,-6,-4,4
1997,0,-15,990,-5,-5,5
1998,-1,-15,989,-5,-5,5
1999,0,-14,991,-5,-4,5
2000,0,-13,991,-7,-4,5
2001,0,-14,991,-4,-4,5
2002,-1,-14,991,-5,-3,5
2003,-1,-14,992,-4,-4,5
2004,-1,-13,990,-5,-5,4
2005,0,-13,990,-4,-5,5
2006,0,-16,990,-3,-5,5
2007,0,-15,990,-5,-4,5
2008,0,-15,989,-4,-4,4
2009,-1,-15,991,-4,-5,4
2010,-2,-14,991,-4,-5,4
2011,-1,-13,991,-5,-3,7
2012,0,-13,991,-4,-4,5
2013,0,-15,992,-6,-3,5
2014,0,-14,991,-4,-4,6
2015,-1,-14,991,-5,-5,4
2016,0,-14,990,-4,-4,5
2017,-2,-15,990,-7,-5,5
2018,0,-15,990,-5,-5,4
2019,0,-13,990,-6,-5,5
2020,-1,-13,991,-2,-4,5
2021,-1,-12,990,-4,-4,5
2022,0,-11,991,-4,-4,5
2023,0,-12,992,-4,-4,6
2024,0,-14,991,-3,-4,5
2025,0,-15,989,-4,-4,6
2026,0,-16,991,-6,-3,4
2027,-2,-14,990,-3,-3,5
2028,-2,-14,991,-4,-4,6
2029,-2,-15,992,-3,-3,5
2030,0,-14,987,-9,-5,6
2031,0,-14,990,-9,-4,5
2032,0,-13,991,-3,-4,5
2033,0,-14,990,-8,-5,6
2034,0,-15,992,-1,-5,6
2035,0,-14,991,-9,-5,5
2036,0,-14,992,-2,-4,5
2037,0,-14,991,-9,-5,4
2038,0,-15,991,-2,-4,5
2039,0,-15,989,-9,-5,4
2040,0,-16,991,-2,-5,4
2041,-1,-14,990,-9,-5,4
2042,0,-15,991,-2,-5,5
2043,0,-14,992,-5,-6,5
2044,0,-13,991,-4,-4,4
2045,0,-14,991,-5,-5,5
2046,-1,-15,992,-5,-5,5
2047,0,-15,991,-4,-5,5
2048,0,-14,992,-4,-4,4
2049,0,-13,992,-2,-4,5
2050,-1,-15,991,-6,-4,5
2051,0,-15,991,-3,-6,4
2052,0,-15,991,-6,-3,6
2053,0,-13,990,-4,-4,5
2054,0,-14,992,-7,-4,5
2055,0,-14,991,-5,-5,4
2056,0,-15,991,-6,-5,5
2057,0,-13,991,-3,-5,4
2058,-1,-14,991,-4,-5,5
2059,0,-15,992,-3,-4,5
2060,0,-14,992,-5,-6,5
2061,0,-14,992,-5,-4,6
2062,0,-15,992,-5,-4,5
2063,-1,-14,991,-5,-4,5
2064,0,-12,992,-4,-4,5
2065,-1,-12,989,-5,-5,5
2066,-1,-13,989,-2,-4,5
2067,-1,-12,991,-4,-4,5
2068,1,-16,991,-3,-4,6
2069,0,-16,989,-5,-4,6
2070,0,-14,991,-4,-3,5
2071,-1,-13,990,-6,-3,6
2072,0,-14,990,-4,-5,6
2073,-2,-15,991,-5,-4,6
2074,0,-15,991,-4,-4,5
2075,1,-14,991,-5,-3,6
2076,1,-13,992,-5,-5,5
2077,-1,-14,991,-6,-5,4
2078,0,-14,992,-6,-5,6
2079,-2,-14,990,-4,-5,6
2080,0,-12,990,-5,-4,5
2081,-1,-14,990,-4,-5,4
2082,0,-15,992,-6,-4,4
2083,0,-14,991,-3,-4,5
2084,-2,-14,991,-5,-4,5
2085,-1,-16,989,-3,-4,5
2086,-1,-14,991,-4,-5,5
2087,-1,-15,990,-4,-4,6
2088,0,-15,991,-5,-4,6
2089,-1,-15,990,-5,-4,4
2090,-1,-13,990,-5,-4,6
2091,-1,-11,991,-5,-5,5
2092,-1,-13,991,-5,-5,4
2093,0,-14,991,-6,-4,5
2094,0,-14,991,-5,-4,5
2095,-1,-14,990,-6,-6,5
2096,-2,-15,990,-4,-4,4
2097,0,-15,991,-3,-4,5
2098,0,-13,990,-5,-4,4
2099,-1,-13,992,-3,-4,5
2100,-2,-13,991,-4,-4,5
2101,-1,-12,992,-4,-4,5
2102,0,-14,992,-6,-4,5
2103,0,-15,991,-5,-4,6
2104,-1,-14,991,-5,-5,5
2105,-1,-14,990,-6,-5,4
2106,0,-14,990,-5,-5,4
2107,-1,-16,991,-5,-5,5
2108,0,-13,990,-4,-4,5
2109,1,-14,991,-5,-5,5
2110,-1,-14,989,-4,-4,5
2111,-1,-14,989,-5,-4,5
2112,-1,-13,990,-4,-4,6
2113,-2,-13,990,-4,-4,4
2114,-1,-15,991,-4,-3,5
2115,-1,-14,992,-5,-4,4
2116,-1,-14,991,-4,-5,5
2117,0,-14,991,-4,-4,5
2118,0,-14,991,-5,-4,4
2119,0,-13,991,-4,-4,4
2120,0,-13,992,-4,-4,3
2121,0,-13,992,-4,-4,4
2122,0,-13,991,-4,-5,5
2123,1,-13,991,-3,-3,5
2124,-1,-15,991,-6,-5,5
2125,0,-15,991,-5,-4,6
2126,-2,-15,992,-5,-5,5
2127,-1,-14,991,-4,-5,3
2128,0,-15,992,-3,-4,4
2129,0,-15,992,-3,-5,5
2130,0,-14,990,-3,-4,5
2131,-1,-15,993,-4,-5,4
2132,0,-14,991,-2,-5,5
2133,0,-14,993,-5,-4,5
2134,1,-16,992,-5,-4,5
2135,0,-14,992,-7,-4,5
2136,0,-15,993,-4,-3,4
2137,-1,-13,993,-6,-4,5
2138,-1,-14,992,-4,-4,5
2139,-1,-14,992,-5,-5,4
2140,0,-16,990,-4,-4,5
2141,-1,-16,992,-5,-5,5
2142,0,-13,990,-5,-5,5
2143,0,-13,991,-3,-4,5
2144,0,-13,991,-4,-4,5
2145,-2,-14,991,-3,-4,6
2146,-1,-14,992,-4,-4,5
2147,-2,-13,990,-5,-4,6
2148,0,-14,990,-5,-5,6
2149,0,-12,991,-5,-4,5
2150,1,-15,991,-4,-5,5
2151,-1,-14,990,-4,-4,5
2152,0,-14,989,-2,-4,6
2153,0,-15,990,-4,-4,5
2154,0,-14,991,-3,-5,4
2155,0,-15,992,-5,-4,4
2156,0,-14,991,-3,-5,5
2157,-2,-15,992,-5,-5,5
2158,-1,-15,990,-3,-5,5
2159,0,-13,989,-5,-4,5
2160,0,-14,991,-3,-3,5
2161,-1,-13,991,-3,-4,6
2162,-1,-13,991,-5,-4,5
2163,-1,-13,990,-4,-4,6
2164,-1,-12,989,-5,-4,6
2165,1,-14,990,-5,-5,4
2166,0,-15,991,-6,-5,4
2167,-1,-15,991,-4,-5,5
2168,0,-15,990,-4,-4,5
2169,0,-14,991,-4,-5,5
2170,0,-14,990,-4,-5,5
2171,-1,-14,990,-5,-4,6
2172,0,-15,991,-5,-4,5
2173,1,-16,992,-4,-4,4
2174,0,-14,991,-3,-5,6
2175,0,-14,990,-5,-4,4
2176,0,-13,989,-3,-4,5
2177,-1,-14,992,-5,-4,5
2178,-2,-14,992,-7,-5,6
2179,0,-15,992,-5,-5,6
2180,0,-15,991,-5,-4,5
2181,-1,-15,991,-4,-5,5
2182,-1,-13,990,-4,-5,4
2183,-1,-12,990,-3,-3,5
2184,-1,-13,991,-6,-6,4
2185,0,-12,990,-6,-4,6
2186,0,-13,989,-5,-4,6
2187,-1,-13,991,-5,-5,6
2188,0,-15,990,-5,-5,5
2189,-1,-14,990,-6,-4,5
2190,-1,-13,992,-5,-4,4
2191,-1,-13,990,-5,-4,5
2192,0,-14,990,-3,-4,5
2193,0,-13,992,-4,-6,4
2194,0,-12,990,-3,-4,5
2195,0,-15,990,-6,-5,4
2196,0,-14,991,-3,-5,6
2197,0,-16,990,-6,-4,4
2198,-1,-14,990,-4,-4,4
2199,-2,-13,990,-5,-4,4
2200,-1,-13,989,-3,-5,4
2201,0,-13,991,-4,-3,5
2202,1,-14,991,-4,-4,5
2203,0,-14,991,-3,-4,5
2204,0,-14,992,-5,-4,5
2205,0,-14,990,-3,-4,5
2206,-1,-14,990,-7,-4,6
2207,-1,-15,990,-5,-4,5
2208,0,-14,991,-5,-4,6
2209,0,-13,990,-4,-4,5
2210,-1,-13,990,-4,-5,7
2211,0,-13,990,-5,-4,4
2212,0,-13,991,-4,-4,5
2213,0,-15,990,-5,-5,5
2214,0,-15,991,-4,-5,5
2215,0,-15,990,-5,-4,5
2216,0,-14,991,-5,-5,5
2217,0,-13,990,-4,-4,5
2218,-1,-12,989,-5,-4,6
2219,0,-14,991,-7,-5,4
2220,0,-15,993,-4,-5,5
2221,0,-15,992,-5,-5,4
2222,-1,-16,992,-4,-5,4
2223,0,-14,992,-5,-4,4
2224,0,-16,990,-5,-4,4
2225,-1,-16,992,-3,-4,4
2226,-1,-15,991,-5,-5,4
2227,-2,-14,991,-4,-5,4
2228,-1,-12,993,-5,-4,5
2229,-2,-14,992,-3,-5,4
2230,-1,-17,990,-5,-4,5
2231,-1,-13,993,-5,-4,5
2232,0,-14,991,-4,-4,5
2233,0,-14,990,-4,-4,6
2234,1,-12,990,-4,-4,4
2235,0,-13,992,-4,-4,4
2236,-1,-15,991,-4,-5,5
2237,0,-14,990,-6,-4,6
2238,0,-14,992,-5,-4,4
2239,-2,-15,991,-6,-4,5
2240,0,-15,988,-6,-4,4
2241,0,-14,990,-6,-4,5
2242,0,-13,991,-4,-6,5
2243,0,-15,990,-5,-5,5
2244,0,-15,991,-5,-5,5
2245,0,-15,992,-3,-5,5
2246,0,-14,992,-6,-5,5
2247,0,-14,991,-5,-5,5
2248,0,-14,992,-5,-5,6
2249,-2,-13,990,-5,-4,5
2250,0,-16,991,-6,-4,5
2251,-1,-16,992,-5,-5,4
2252,-1,-15,991,-5,-5,5
2253,-2,-14,991,-4,-4,5
2254,-1,-14,991,-3,-5,5
2255,-1,-15,991,-2,-4,5
2256,-2,-14,990,-3,-4,5
2257,-1,-14,992,-4,-3,5
2258,0,-16,991,-5,-4,5
2259,1,-13,989,-5,-4,4
2260,0,-12,991,-4,-5,5
2261,-1,-12,991,-5,-4,5
2262,0,-14,988,-4,-3,6
2263,-1,-13,989,-6,-4,5
2264,0,-12,989,-5,-4,5
2265,-1,-14,991,-6,-4,5
2266,0,-13,990,-4,-4,4
2267,0,-13,990,-5,-5,4
2268,-1,-12,991,-4,-4,5
2269,0,-14,990,-6,-5,5
2270,-1,-14,992,-5,-5,5
2271,-1,-14,990,-4,-4,6
2272,1,-17,992,-4,-4,5
2273,-1,-14,992,-5,-5,4
2274,0,-12,993,-5,-4,4
2275,-1,-12,990,-4,-5,4
2276,-1,-15,992,-5,-4,4
2277,0,-14,990,-4,-5,5
2278,0,-14,992,-4,-4,5
2279,-2,-14,990,-3,-4,4
2280,-1,-15,991,-5,-4,4
2281,-1,-14,991,-2,-5,4
2282,-1,-15,991,-4,-5,5
2283,0,-14,993,-2,-4,5
2284,0,-14,991,-5,-4,5
2285,0,-12,991,-4,-4,5
2286,0,-12,990,-4,-3,5
2287,-1,-15,991,-4,-4,4
2288,0,-15,989,-6,-4,5
2289,0,-13,992,-5,-4,4
2290,-1,-15,990,-5,-4,6
2291,0,-15,990,-6,-5,5
2292,0,-15,991,-4,-4,5
2293,-2,-15,991,-6,-4,5
2294,0,-14,991,-4,-3,5
2295,-2,-13,990,-5,-3,4
2296,0,-14,993,-3,-5,5
2297,0,-14,990,-5,-4,5
2298,2,-15,991,-6,-5,5
2299,0,-15,992,-4,-6,4
2300,0,-12,991,-5,-4,5
2301,0,-15,992,-2,-5,5
2302,-1,-13,991,-6,-4,5
2303,-1,-15,992,-4,-4,5
2304,-1,-13,991,-6,-3,6
2305,0,-13,990,-5,-4,6
2306,0,-15,991,-5,-3,6
2307,-1,-14,990,-5,-4,4
2308,-1,-15,993,-6,-4,4
2309,-1,-14,992,-5,-4,5
2310,-1,-15,991,-5,-4,5
2311,1,-16,992,-6,-5,6
2312,0,-14,991,-4,-4,5
2313,1,-14,991,-4,-5,5
2314,0,-14,993,-5,-5,5
2315,-1,-15,993,-5,-4,6
2316,0,-14,992,-6,-6,6
2317,-1,-12,991,-5,-4,5
2318,0,-14,992,-5,-5,5
2319,-1,-14,993,-6,-4,5
2320,-2,-13,989,-5,-4,4
2321,0,-14,991,-4,-4,5
2322,0,-12,989,-4,-5,6
2323,-1,-15,991,-3,-5,5
2324,1,-14,990,-4,-4,6
2325,0,-14,991,-4,-4,5
2326,0,-14,990,-5,-5,5
2327,-2,-14,992,-4,-5,6
2328,-1,-14,990,-4,-4,5
2329,0,-14,991,-5,-5,4
2330,0,-14,991,-5,-5,5
2331,0,-15,989,-6,-4,5
2332,0,-14,991,-4,-4,5
2333,-1,-15,990,-5,-5,5
2334,-2,-15,990,-5,-4,5
2335,0,-17,990,-4,-5,4
2336,-1,-14,991,-4,-5,4
2337,0,-15,990,-5,-5,5
2338,0,-14,990,-5,-5,4
2339,0,-15,991,-4,-5,5
2340,1,-15,990,-5,-4,5
2341,-1,-13,990,-3,-4,5
2342,0,-14,990,-5,-5,5
2343,-2,-15,990,-4,-4,5
2344,0,-15,990,-5,-4,6
2345,0,-14,989,-4,-3,5
2346,-1,-14,989,-5,-4,4
2347,1,-15,991,-5,-4,5
2348,0,-15,992,-7,-5,4
2349,0,-14,991,-4,-4,6
2350,-1,-14,991,-5,-5,5
2351,-1,-13,992,-4,-5,4
2352,-1,-14,991,-4,-5,5
2353,0,-15,990,-4,-4,5
2354,-1,-14,990,-4,-4,5
2355,0,-14,990,-5,-4,4
2356,1,-14,991,-4,-5,6
2357,-1,-12,991,-6,-5,5
2358,-1,-14,991,-5,-4,6
2359,0,-14,990,-5,-4,6
2360,-1,-14,991,-5,-5,5
2361,-1,-15,991,-7,-4,5
2362,0,-15,990,-4,-4,5
2363,0,-14,990,-5,-5,5
2364,0,-14,991,-4,-4,6
2365,-2,-14,990,-5,-5,6
2366,0,-14,989,-2,-4,4
2367,0,-13,989,-1,-5,5
2368,0,-14,991,-3,-4,5
2369,0,-16,991,-9,-4,5
2370,0,-14,991,0,-4,6
2371,2,-12,991,-8,-5,5
2372,0,-13,990,-2,-4,5
2373,0,-12,992,-7,-5,5
2374,-2,-13,992,-3,-4,5
2375,0,-16,991,-5,-5,5
2376,0,-15,990,-4,-5,5
2377,0,-15,990,-4,-4,5
2378,0,-16,990,-5,-4,6
2379,-1,-13,991,-3,-4,4
2380,0,-15,992,-5,-3,5
2381,0,-13,991,-5,-5,5
2382,-1,-12,991,-6,-5,4
2383,-1,-13,991,-4,-4,5
2384,-1,-14,991,-4,-5,4
2385,0,-13,990,-4,-5,5
2386,0,-12,989,-4,-5,5
2387,0,-15,989,-5,-4,5
2388,-1,-14,990,-4,-4,4
2389,-2,-13,991,-3,-4,4
2390,0,-14,992,-4,-5,5
2391,0,-11,992,-5,-4,5
2392,0,-13,991,-5,-5,5
2393,0,-14,990,-6,-5,6
2394,0,-14,991,-5,-4,5
2395,0,-15,990,-5,-5,4
2396,-2,-16,991,-4,-5,5
2397,-1,-17,992,-4,-5,4
2398,-2,-15,992,-4,-5,5
2399,0,-15,993,-4,-4,6
2400,0,-13,991,-4,-4,5
2401,0,-13,990,-4,-4,5
2402,0,-15,992,-4,-5,5
2403,-1,-14,992,-3,-4,6
2404,-1,-15,991,-5,-4,5
2405,-2,-17,990,-4,-5,5
2406,0,-15,991,-5,-4,4
2407,-2,-15,991,-5,-4,4
2408,0,-13,991,-6,-5,5
2409,-1,-15,992,-4,-3,5
2410,0,-13,991,-6,-5,5
2411,-1,-13,990,-4,-5,5
2412,-1,-14,992,-6,-5,5
2413,0,-13,991,-4,-5,5
2414,-1,-12,990,-6,-4,5
2415,0,-14,991,-4,-4,5
2416,0,-15,991,-5,-4,6
2417,1,-14,990,-4,-4,5
2418,0,-16,990,-5,-6,4
2419,0,-15,991,-6,-3,6
2420,0,-15,992,-4,-4,5
2421,0,-14,991,-6,-5,5
2422,1,-13,989,-5,-6,5
2423,0,-12,991,-5,-5,4
2424,0,-12,990,-5,-5,5
2425,0,-14,990,-5,-5,4
2426,-1,-15,990,-4,-5,5
2427,-2,-13,991,-5,-5,5
2428,-1,-12,991,-3,-4,5
2429,0,-14,988,-4,-5,4
2430,0,-15,989,-3,-5,4
2431,-2,-15,992,-5,-4,5
2432,0,-14,991,-4,-5,5
2433,1,-14,990,-5,-4,4
2434,-1,-13,990,-6,-5,4
2435,0,-13,992,-6,-5,5
2436,0,-13,989,-5,-5,6
2437,-1,-13,989,-4,-5,5
2438,0,-15,991,-5,-4,4
2439,0,-15,990,-2,-4,5
2440,0,-13,990,-5,-4,5
2441,1,-14,991,-3,-4,6
2442,0,-13,990,-6,-4,5
2443,0,-13,990,-4,-5,4
2444,-2,-14,991,-6,-5,4
2445,-2,-15,991,-6,-5,3
2446,0,-14,992,-5,-5,4
2447,0,-14,992,-5,-4,4
2448,0,-13,993,-5,-5,4
2449,-1,-15,991,-4,-5,4
2450,0,-15,990,-5,-6,5
2451,0,-15,990,-2,-5,4
2452,-1,-15,991,-5,-5,4
2453,-1,-13,991,-3,-4,5
2454,0,-12,989,-5,-4,5
2455,3,-13,990,-5,-4,5
2456,1,-13,990,-3,-5,5
2457,-2,-14,991,-6,-3,5
2458,0,-15,991,-4,-4,4
2459,0,-15,989,-5,-3,5
2460,-1,-16,991,-4,-4,6
2461,-1,-15,991,-6,-4,6
2462,-2,-14,990,-4,-3,5
2463,0,-15,990,-7,-4,5
2464,0,-13,990,-4,-5,5
2465,0,-15,990,-6,-5,4
2466,0,-15,991,-4,-4,5
2467,-1,-13,989,-5,-4,4
2468,-1,-13,990,-4,-4,6
2469,-2,-13,992,-5,-4,5
2470,0,-13,990,-5,-4,6
2471,0,-13,991,-4,-5,5
2472,0,-14,991,-4,-4,5
2473,0,-12,991,-3,-5,5
2474,0,-13,990,-4,-4,5
2475,1,-13,990,-4,-4,4
2476,1,-15,990,-5,-5,4
2477,0,-13,992,-3,-5,5
2478,0,-14,991,-4,-4,5
2479,0,-15,992,-3,-5,5
2480,0,-14,991,-5,-4,5
2481,1,-14,989,-4,-3,5
2482,0,-15,990,-5,-5,4
2483,0,-15,992,-4,-4,4
2484,0,-15,992,-5,-4,6
2485,-1,-15,991,-5,-5,5
2486,-1,-15,992,-6,-4,5
2487,-1,-14,992,-5,-4,5
2488,-1,-14,992,-5,-5,5
2489,-1,-13,992,-7,-4,5
2490,-1,-14,992,-4,-4,5
2491,0,-15,992,-6,-4,4
2492,0,-14,990,-4,-5,5
2493,-3,-15,991,-6,-5,5
2494,0,-13,991,-4,-4,4
2495,-1,-13,991,-5,-5,5
2496,-1,-15,990,-4,-4,5
2497,0,-16,991,-4,-7,5
2498,0,-13,991,-4,-4,5
2499,0,-14,991,-3,-4,4
2500,0,-15,991,-4,-4,4
2501,0,-14,990,-3,-4,5
2502,-2,-16,991,-4,-5,5
2503,-2,-15,991,-4,-5,5
2504,0,-14,990,-5,-4,6
2505,-1,-13,991,-4,-4,4
2506,-1,-12,992,-6,-5,5
2507,0,-14,992,-4,-4,6
2508,0,-13,990,-5,-5,4
2509,0,-13,989,-5,-5,4
2510,0,-14,990,-7,-4,5
2511,-2,-14,991,-4,-5,5
2512,0,-14,991,-5,-4,5
2513,0,-14,991,-5,-5,5
2514,-1,-15,989,-5,-5,6
2515,0,-15,990,-5,-4,6
2516,0,-14,991,-6,-4,5
2517,-1,-14,991,-5,-5,4
2518,0,-14,990,-5,-5,5
2519,-3,-13,991,-5,-4,5
2520,-1,-13,991,-4,-4,4
2521,-1,-16,991,-6,-4,5
2522,0,-15,991,-4,-5,5
2523,0,-13,990,-6,-5,5
2524,0,-13,990,-4,-5,5
2525,0,-15,990,-5,-4,5
2526,0,-16,989,-3,-4,6
2527,0,-15,990,-4,-5,5
2528,0,-14,991,-4,-3,6
2529,-2,-15,992,-4,-4,4
2530,-3,-16,992,-2,-4,5
2531,-2,-14,991,-7,-5,5
2532,-1,-14,991,-5,-5,4
2533,-2,-13,991,-5,-5,4
2534,0,-14,991,-5,-5,5
2535,0,-14,991,-4,-4,5
2536,0,-14,991,-4,-4,5
2537,0,-14,992,-4,-4,6
2538,1,-13,990,-5,-4,5
2539,0,-14,990,-5,-5,5
2540,0,-13,990,-6,-4,5
2541,0,-15,989,-5,-4,5
2542,-2,-14,991,-6,-4,6
2543,0,-14,991,-4,-4,5
2544,-1,-15,990,-5,-4,4
2545,-2,-13,991,-4,-4,5
2546,-1,-13,990,-4,-5,5
2547,0,-15,990,-5,-4,6
2548,0,-13,989,-5,-5,5
2549,0,-14,990,-4,-4,5
2550,0,-14,991,-6,-4,5
2551,0,-12,989,-4,-4,5
2552,-1,-14,989,-4,-5,6
2553,-1,-14,991,-5,-4,6
2554,-1,-15,992,-6,-4,4
2555,0,-14,991,-5,-5,6
2556,0,-16,991,-4,-4,5
2557,-2,-14,991,-6,-4,4
2558,-1,-15,990,-5,-5,4
2559,-2,-15,992,-7,-4,4
2560,0,-15,990,-4,-5,5
2561,1,-13,990,-5,-4,5
2562,0,-13,992,-4,-4,5
2563,0,-14,992,-5,-5,5
2564,0,-14,990,-4,-5,5
2565,1,-15,990,-6,-5,5
2566,0,-16,990,-4,-4,5
2567,-2,-15,991,-5,-4,6
2568,0,-15,991,-3,-4,6
2569,0,-14,992,-6,-4,5
2570,0,-13,990,-4,-4,5
2571,-1,-13,991,-5,-5,5
2572,0,-14,992,-4,-4,5
2573,-1,-15,990,-5,-4,5
2574,-1,-14,991,-6,-4,5
2575,-1,-15,990,-5,-4,5
2576,-1,-16,992,-5,-3,6
2577,0,-15,991,-5,-4,5
2578,0,-13,990,-5,-4,6
2579,0,-13,993,-5,-5,5
2580,-1,-15,992,-4,-4,4
2581,0,-14,991,-4,-4,5
2582,-1,-14,991,-4,-4,7
2583,-1,-14,992,-5,-4,4
2584,0,-15,991,-7,-4,5
2585,0,-16,990,-4,-5,5
2586,0,-14,991,-7,-4,4
2587,0,-15,991,-3,-6,5
2588,-1,-15,990,-5,-4,5
2589,0,-13,990,-4,-4,5
2590,0,-13,991,-6,-4,6
2591,0,-13,990,-5,-4,5
2592,0,-12,991,-6,-6,5
2593,0,-14,991,-4,-6,4
2594,0,-14,990,-5,-4,6
2595,0,-16,989,-5,-5,5
2596,0,-15,991,-3,-5,5
2597,0,-14,991,-5,-4,6
2598,-1,-14,989,-6,-4,6
2599,-2,-15,990,-5,-4,5
2600,-1,-16,990,-3,-4,5
2601,0,-13,992,-6,-5,5
2602,0,-14,993,-2,-4,5
2603,-1,-15,993,-6,-5,4
2604,-1,-16,992,-3,-4,5
2605,0,-14,991,-5,-4,5
2606,0,-13,993,-4,-5,4
2607,0,-14,991,-5,-5,4
2608,0,-13,991,-4,-4,6
2609,0,-15,991,-5,-5,5
2610,-1,-15,990,-4,-5,5
2611,-1,-13,991,-4,-5,5
2612,0,-14,989,-3,-5,5
2613,0,-14,990,-3,-6,6
2614,0,-15,991,-4,-4,5
2615,0,-13,990,-5,-4,5
2616,1,-13,991,-6,-5,6
2617,1,-13,990,-4,-4,4
2618,1,-14,990,-5,-4,5
2619,1,-13,991,-5,-4,5
2620,0,-13,990,-4,-5,5
2621,0,-15,991,-5,-4,6
2622,0,-14,990,-5,-4,5
2623,-1,-13,991,-5,-4,4
2624,1,-13,990,-5,-4,4
2625,0,-15,991,-5,-5,5
2626,0,-15,991,-5,-4,5
2627,0,-15,992,-5,-4,5
2628,-2,-14,990,-4,-5,5
2629,-1,-14,992,-5,-5,5
2630,-1,-14,993,-5,-5,5
2631,-2,-13,990,-4,-5,6
2632,0,-15,990,-5,-5,4
2633,0,-13,990,-4,-5,5
2634,0,-13,991,-4,-4,5
2635,-1,-14,991,-5,-5,5
2636,0,-13,990,-4,-6,5
2637,-1,-14,992,-5,-4,5
2638,-1,-13,991,-4,-4,5
2639,-1,-15,988,-5,-4,5
2640,0,-16,991,-4,-5,5
2641,-1,-15,991,-5,-4,4
2642,-1,-16,991,-3,-4,4
2643,-1,-16,990,-4,-4,5
2644,1,-14,988,-3,-4,5
2645,0,-14,991,-5,-4,6
2646,0,-13,992,-4,-5,5
2647,0,-14,992,-5,-6,4
2648,0,-13,991,-3,-5,5
2649,0,-15,992,-4,-4,5
2650,0,-15,992,-3,-4,5
2651,-2,-14,992,-4,-5,5
2652,0,-15,990,-4,-5,5
2653,-1,-15,992,-6,-4,5
2654,-2,-13,990,-4,-5,5
2655,-1,-16,991,-5,-5,5
2656,-1,-14,990,-4,-5,5
2657,0,-13,990,-4,-4,4
2658,0,-13,992,-3,-4,5
2659,-1,-15,991,-3,-5,4
2660,0,-13,990,-3,-6,4
2661,0,-12,992,-3,-4,5
2662,0,-12,992,-5,-4,5
2663,0,-14,992,-3,-4,6
2664,1,-15,990,-5,-4,5
2665,-1,-13,990,-4,-4,6
2666,-1,-13,992,-6,-4,5
2667,0,-14,990,-5,-2,5
2668,0,-14,990,-5,-4,5
2669,0,-14,991,-4,-4,5
2670,-1,-14,991,-6,-3,6
2671,-2,-14,992,-5,-5,5
2672,0,-16,991,-6,-5,5
2673,0,-15,990,-5,-5,5
2674,-1,-16,989,-5,-5,5
2675,0,-15,991,-5,-6,5
2676,1,-16,992,-5,-4,4
2677,0,-15,992,-5,-6,3
2678,-1,-13,990,-3,-4,6
2679,-1,-14,991,-7,-4,5
2680,0,-15,991,-5,-5,3
2681,0,-13,991,-5,-4,5
2682,-1,-13,992,-5,-5,4
2683,0,-14,991,-4,-5,5
2684,0,-16,990,-5,-5,4
2685,0,-14,991,-3,-4,5
2686,0,-15,990,-4,-4,4
2687,-1,-11,989,-3,-5,5
2688,0,-13,990,-5,-5,5
2689,0,-13,990,-5,-4,5
2690,0,-14,991,-6,-5,5
2691,-1,-12,990,-3,-4,5
2692,-1,-15,990,-5,-4,5
2693,-1,-14,990,-3,-5,4
2694,-1,-15,989,-4,-5,5
2695,0,-14,991,-4,-4,6
2696,0,-17,990,-4,-5,5
2697,0,-15,991,-5,-4,5
2698,0,-15,990,-4,-4,5
2699,0,-15,990,-5,-4,4
2700,0,-16,990,-3,-4,4
2701,0,-13,991,-5,-5,5
2702,-1,-16,991,-6,-6,4
2703,0,-15,991,-4,-5,5
2704,0,-16,991,-2,-4,5
2705,0,-15,992,-7,-3,4
2706,0,-13,991,1,-5,5
2707,-1,-14,991,-7,-5,5
2708,0,-13,990,-2,-5,4
2709,0,-13,991,-5,-5,4
2710,0,-14,990,-5,-3,4
2711,0,-13,990,-4,-4,5
2712,0,-15,991,-6,-3,6
2713,-2,-14,991,-2,-4,6
2714,-1,-16,991,-6,-4,4
2715,1,-14,992,-3,-4,4
2716,1,-14,989,-5,-4,5
2717,-1,-14,991,-2,-4,6
2718,0,-13,990,-7,-5,6
2719,-1,-13,989,-5,-5,5
2720,1,-14,992,-5,-5,4
2721,-2,-12,990,-5,-4,5
2722,0,-14,991,-4,-5,5
2723,-2,-13,991,-6,-4,5
2724,-2,-13,991,-3,-5,4
2725,0,-13,991,-5,-3,5
2726,-1,-15,992,-2,-5,5
2727,0,-15,990,-5,-5,4
2728,1,-15,990,-3,-5,5
2729,0,-16,990,-5,-4,4
2730,0,-15,990,-4,-4,5
2731,0,-13,991,-5,-4,4
2732,0,-15,990,-4,-4,5
2733,0,-14,991,-5,-4,6
2734,0,-13,991,-5,-5,5
2735,0,-14,991,-4,-4,5
2736,0,-15,991,-6,-5,4
2737,0,-14,989,-4,-4,5
2738,0,-14,990,-6,-4,5
2739,-1,-14,990,-3,-5,5
2740,-1,-14,990,-4,-5,5
2741,0,-14,990,-3,-4,6
2742,0,-15,990,-3,-5,5
2743,-1,-13,990,-4,-4,6
2744,0,-13,992,-5,-3,4
2745,0,-13,993,-4,-5,4
2746,0,-14,991,-3,-5,5
2747,-1,-13,991,-6,-4,5
2748,-1,-14,990,-4,-5,5
2749,-1,-14,990,-7,-5,6
2750,0,-14,991,-5,-4,5
2751,-1,-16,992,-6,-4,5
2752,0,-15,991,-4,-4,5
2753,-1,-14,992,-5,-4,5
2754,0,-16,993,-5,-4,5
2755,-1,-15,991,-6,-4,6
2756,-1,-15,992,-5,-5,5
2757,0,-15,991,-4,-5,5
2758,0,-13,991,-5,-4,5
2759,0,-18,992,-4,-5,5
2760,0,-16,990,-5,-4,4
2761,-1,-14,991,-3,-5,5
2762,-2,-14,989,-4,-4,5
2763,-2,-15,991,-2,-5,5
2764,-1,-14,990,-4,-5,5
2765,-1,-15,992,-4,-3,4
2766,0,-14,990,-5,-4,4
2767,-2,-13,990,-4,-3,5
2768,1,-13,990,-6,-4,5
2769,0,-14,991,-4,-5,4
2770,0,-12,990,-4,-4,4
2771,0,-14,990,-6,-5,5
2772,0,-15,991,-5,-4,4
2773,0,-14,990,-5,-4,5
2774,0,-12,991,-3,-4,5
2775,0,-14,992,-4,-4,6
2776,0,-14,992,-3,-3,6
2777,0,-14,992,-7,-4,5
2778,-1,-13,991,-5,-4,5
2779,-1,-16,992,-6,-4,6
2780,0,-14,991,-4,-3,5
2781,0,-16,992,-5,-5,4
2782,-2,-15,990,-4,-4,5
2783,0,-13,989,-5,-5,5
2784,0,-14,991,-5,-5,5
2785,0,-13,990,-4,-5,4
2786,0,-13,991,-5,-4,5
2787,1,-14,991,-4,-4,6
2788,-1,-12,991,-5,-5,4
2789,0,-13,989,-4,-5,4
2790,-1,-14,991,-4,-5,5
2791,-1,-14,992,-4,-5,5
2792,-2,-15,990,-5,-4,4
2793,-2,-15,992,-4,-5,5
2794,-1,-14,991,-3,-4,6
2795,-2,-16,990,-4,-5,5
2796,0,-14,991,-4,-4,6
2797,0,-14,990,-4,-4,4
2798,0,-14,991,-5,-5,5
2799,0,-13,991,-6,-4,5
2800,0,-14,992,-4,-5,5
2801,0,-14,991,-5,-4,4
2802,0,-13,991,-6,-4,5
2803,-1,-15,991,-4,-4,5
2804,0,-13,990,-3,-4,5
2805,0,-14,989,-4,-4,5
2806,-1,-13,991,-5,-4,4
2807,-1,-13,990,-6,-4,5
2808,0,-14,991,-3,-6,5
2809,0,-14,991,-6,-5,6
2810,0,-14,991,-4,-4,5
2811,-1,-15,990,-5,-5,5
2812,0,-15,990,-5,-3,5
2813,0,-15,990,-6,-5,5
2814,0,-15,990,-4,-5,5
2815,-2,-15,990,-5,-4,5
2816,0,-14,990,-5,-5,6
2817,-1,-15,991,-5,-5,5
2818,0,-14,991,-5,-5,4
2819,0,-14,990,-4,-5,6
2820,0,-15,991,-4,-5,5
2821,-2,-15,990,-4,-4,5
2822,-1,-14,991,-4,-4,4
2823,0,-12,992,-3,-4,5
2824,0,-15,992,-4,-5,5
2825,-1,-15,991,-4,-5,5
2826,-1,-14,992,-4,-4,5
2827,0,-15,990,-4,-4,5
2828,0,-14,990,-4,-4,5
2829,0,-14,991,-3,-5,5
2830,0,-12,990,-5,-4,5
2831,0,-15,991,-3,-5,5
2832,0,-12,990,-6,-4,5
2833,0,-14,992,-4,-4,5
2834,0,-15,991,-5,-4,6
2835,0,-13,991,-3,-4,5
2836,0,-14,991,-5,-5,6
2837,-1,-13,990,-5,-4,5
2838,0,-13,989,-6,-4,6
2839,-2,-16,992,-5,-4,6
2840,0,-13,992,-6,-4,5
2841,0,-16,991,-4,-4,5
2842,-1,-13,989,-4,-5,5
2843,1,-14,991,-6,-4,6
2844,-1,-14,991,-5,-4,6
2845,0,-15,990,-5,-4,5
2846,0,-17,993,-4,-5,5
2847,-2,-14,991,-6,-4,5
2848,0,-15,992,-4,-5,4
2849,0,-14,990,-6,-4,4
2850,0,-15,992,-4,-5,4
2851,0,-15,991,-5,-5,4
2852,-2,-15,990,-4,-5,4
2853,-2,-14,991,-5,-4,5
2854,-1,-16,992,-5,-4,5
2855,-3,-15,991,-4,-4,5
2856,-1,-13,991,-5,-5,5
2857,-1,-15,992,-4,-5,5
2858,-2,-15,990,-3,-4,4
2859,0,-14,991,-4,-3,4
2860,0,-11,990,-6,-4,5
2861,0,-14,992,-6,-5,6
2862,-1,-15,990,-6,-4,5
2863,-1,-15,989,-4,-5,5
2864,0,-14,991,-6,-4,4
2865,-1,-12,988,-4,-4,5
2866,-1,-13,991,-6,-3,5
2867,0,-14,988,-4,-4,5
2868,0,-13,992,-4,-3,4
2869,-2,-15,990,-4,-3,5
2870,0,-15,990,-3,-4,5
2871,0,-13,991,-4,-4,5
2872,0,-13,990,-2,-4,6
2873,2,-13,991,-5,-3,5
2874,0,-14,989,-5,-4,4
2875,-3,-14,992,-6,-5,5
2876,-1,-13,991,-6,-4,6
2877,0,-13,990,-6,-4,5
2878,-2,-15,990,-5,-5,4
2879,-1,-16,989,-5,-5,6
2880,0,-15,992,-4,-4,5
2881,0,-14,991,-5,-5,5
2882,0,-14,992,-4,-5,5
2883,0,-14,990,-5,-4,4
2884,0,-14,991,-5,-4,5
2885,0,-14,992,-4,-5,4
2886,0,-14,991,-4,-4,5
2887,0,-13,989,-5,-4,5
2888,0,-13,990,-5,-4,4
2889,0,-15,990,-5,-5,4
2890,0,-13,990,-6,-3,5
2891,0,-13,990,-5,-4,6
2892,0,-14,990,-6,-4,6
2893,0,-14,990,-5,-3,6
2894,0,-14,992,-5,-4,5
2895,-1,-14,992,-5,-4,5
2896,0,-16,991,-6,-4,4
2897,0,-16,991,-4,-5,5
2898,-2,-15,993,-6,-5,5
2899,-1,-14,991,-4,-5,5
2900,-2,-14,991,-7,-4,5
2901,-1,-12,992,-4,-4,4
2902,-2,-11,990,-5,-4,3
2903,0,-12,992,-4,-4,4
2904,0,-16,990,-5,-4,4
2905,0,-14,991,-3,-4,5
2906,-2,-13,992,-4,-6,5
2907,-2,-14,991,-4,-4,5
2908,-1,-13,991,-4,-5,5
2909,-1,-15,991,-3,-4,4
2910,0,-14,990,-4,-4,4
2911,-1,-14,991,-4,-3,5
2912,0,-14,991,-3,-4,5
2913,-1,-13,990,-4,-3,5
2914,0,-13,991,-5,-3,4
2915,0,-12,991,-4,-5,5
2916,0,-14,991,-5,-5,5
2917,0,-15,991,-5,-4,5
2918,0,-14,990,-5,-4,5
2919,-1,-15,991,-7,-4,5
2920,-1,-14,991,-5,-5,5
2921,-2,-15,991,-6,-5,4
2922,-2,-15,990,-5,-5,5
2923,-1,-15,990,-6,-6,5
2924,-1,-15,990,-4,-5,5
2925,-1,-15,992,-5,-4,5
2926,0,-14,991,-5,-4,5
2927,0,-14,991,-4,-5,6
2928,0,-13,993,-3,-4,6
2929,0,-15,992,-4,-5,5
2930,0,-12,992,-3,-5,5
2931,0,-14,991,-6,-5,5
2932,0,-15,992,-6,-4,5
2933,0,-15,991,-5,-4,5
2934,-1,-14,993,-6,-4,5
2935,-2,-15,991,-5,-4,5
2936,0,-16,989,-5,-3,5
2937,-2,-15,991,-4,-5,5
2938,-2,-16,992,-5,-5,5
2939,-2,-14,992,-3,-4,4
2940,0,-14,990,-6,-5,4
2941,0,-14,990,-5,-5,5
2942,0,-13,991,-5,-4,5
2943,0,-14,991,-5,-5,6
2944,0,-14,992,-6,-5,5
2945,0,-14,988,-6,-4,5
2946,0,-16,991,-6,-5,5
2947,-1,-15,990,-4,-4,5
2948,1,-15,991,-6,-4,5
2949,-1,-14,992,-5,-5,4
2950,-1,-12,990,-5,-4,6
2951,-1,-15,992,-5,-5,6
2952,0,-14,990,-4,-5,5
2953,0,-13,991,-5,-4,5
2954,-2,-13,991,-4,-5,5
2955,-1,-14,992,-4,-4,5
2956,0,-14,989,-4,-4,5
2957,-1,-13,991,-4,-5,4
2958,-1,-15,990,-3,-5,4
2959,0,-14,991,-4,-4,5
2960,0,-13,991,-3,-4,5
2961,0,-12,991,-4,-4,4
2962,-1,-14,991,-4,-3,4
2963,-1,-13,990,-5,-5,5
2964,-1,-14,988,-5,-4,5
2965,0,-15,990,-6,-4,5
2966,0,-13,990,-6,-4,4
2967,0,-15,989,-4,-4,4
2968,0,-14,991,-5,-4,5
2969,0,-14,991,-5,-5,4
2970,1,-14,991,-5,-5,5
2971,0,-13,991,-6,-5,4
2972,0,-13,991,-5,-5,4
2973,0,-14,991,-4,-4,5
2974,-1,-14,992,-4,-5,4
2975,0,-13,991,-5,-5,4
2976,-1,-14,991,-4,-4,5
2977,-1,-15,990,-5,-4,5
2978,-3,-15,990,-5,-4,5
2979,0,-16,990,-4,-5,4
2980,-1,-15,990,-4,-5,5
2981,0,-15,990,-5,-3,6
2982,0,-13,991,-3,-5,5
2983,-1,-14,991,-6,-5,5
2984,-1,-13,990,-2,-5,5
2985,-1,-13,991,-6,-5,5
2986,0,-13,990,-3,-5,5
2987,0,-15,991,-4,-4,4
2988,0,-15,991,-3,-5,4
2989,0,-16,992,-4,-5,4
2990,0,-13,990,-2,-4,5
2991,0,-14,991,-4,-4,6
2992,0,-14,990,-3,-5,6
2993,0,-14,989,-4,-5,5
2994,0,-13,990,-4,-4,4
2995,0,-15,991,-5,-4,5
2996,-1,-13,990,-4,-4,5
2997,0,-15,991,-6,-3,6
2998,-2,-14,992,-6,-4,5
2999,0,-14,991,-6,-5,5
3000,-1,-15,991,-5,-4,5
3001,0,-13,991,-5,-4,5
3002,0,-14,993,-4,-4,6
3003,-1,-13,991,-4,-4,5
3004,0,-12,991,-6,-5,5
3005,0,-14,991,-4,-5,5
3006,-1,-15,991,-4,-4,5
3007,0,-15,990,-4,-5,5
3008,-1,-13,992,-3,-5,5
3009,-1,-13,990,-4,-5,5
3010,0,-14,991,-4,-4,4
3011,-1,-13,992,-3,-4,4
3012,0,-12,991,-4,-5,4
3013,0,-12,992,-2,-5,5
3014,-2,-13,991,-4,-4,5
3015,0,-15,992,-5,-4,5
3016,0,-14,991,-6,-3,6
3017,-2,-16,991,-5,-5,5
3018,-2,-15,991,-5,-4,5
3019,-1,-15,992,-5,-5,5
3020,0,-15,993,-6,-5,4
3021,0,-14,991,-5,-5,5
3022,-1,-15,991,-5,-5,4
3023,0,-13,993,-4,-4,4
3024,0,-13,992,-6,-4,5
3025,0,-13,992,-4,-5,4
3026,1,-15,992,-4,-4,4
3027,0,-13,991,-3,-4,5
3028,0,-14,991,-3,-4,5
3029,0,-14,991,-4,-4,5
3030,0,-16,990,-5,-5,5
3031,0,-13,991,-3,-6,5
3032,0,-12,989,-5,-4,5
3033,0,-14,992,-3,-4,6
3034,0,-15,990,-5,-4,6
3035,-1,-13,990,-5,-5,5
3036,0,-15,991,-4,-5,5
3037,-1,-13,991,-5,-5,5
3038,0,-15,991,-7,-4,5
3039,0,-16,992,-9,-2,7
3040,-2,-13,991,-7,-4,6
3041,-3,-13,989,-1,-4,6
3042,-2,-15,991,-8,-5,5
3043,0,-16,990,-2,-5,5
3044,0,-15,991,-7,-4,6
3045,0,-15,989,-4,-5,5
3046,-2,-14,991,-5,-6,4
3047,-2,-13,989,-4,-6,5
3048,-4,-14,991,-4,-4,6
3049,0,-15,991,-5,-5,6
3050,-1,-14,992,-3,-4,5
3051,0,-17,991,-3,-5,5
3052,0,-15,992,-4,-4,5
3053,0,-13,990,-4,-4,5
3054,0,-13,989,-3,-5,4
3055,0,-14,989,-4,-4,4
3056,0,-13,992,-3,-3,4
3057,-1,-13,990,-5,-5,5
3058,0,-12,991,-3,-4,5
3059,1,-15,990,-4,-4,5
3060,0,-12,992,-5,-5,5
3061,-1,-15,989,-6,-4,4
3062,-1,-13,991,-6,-5,6
3063,-1,-14,991,-5,-6,4
3064,-1,-13,990,-5,-5,4
3065,0,-14,990,-5,-4,4
3066,0,-14,989,-4,-6,4
3067,-1,-14,989,-4,-4,4
3068,0,-17,990,-4,-5,5
3069,-2,-15,989,-4,-5,4
3070,0,-15,991,-4,-4,4
3071,-1,-13,990,-4,-4,3
3072,0,-13,991,-3,-4,4
3073,0,-12,991,-3,-5,5
3074,0,-13,991,-4,-4,5
3075,0,-11,992,-6,-4,5
3076,-1,-13,991,-5,-4,6
3077,0,-13,990,-8,-4,4
3078,0,-14,991,-5,-5,5
3079,0,-17,991,-4,-5,3
3080,0,-16,990,-4,-4,4
3081,0,-14,990,-4,-5,5
3082,0,-12,991,-5,-5,5
3083,0,-13,991,-5,-5,4
3084,0,-14,990,-6,-4,6
3085,-1,-13,992,-4,-4,4
3086,-1,-13,992,-5,-4,4
3087,-1,-14,990,-3,-4,6
3088,-2,-15,991,-6,-4,4
3089,-1,-15,991,-3,-4,5
3090,0,-14,990,-6,-5,5
3091,-2,-15,989,-3,-4,5
3092,-2,-15,991,-5,-4,5
3093,-1,-14,992,-4,-6,4
3094,0,-13,992,-6,-4,4
3095,0,-13,991,-6,-5,5
3096,-1,-12,991,-3,-5,5
3097,0,-15,992,-4,-5,6
3098,0,-16,992,-4,-4,5
3099,0,-15,991,-6,-5,5
3100,-1,-14,993,-2,-4,5
3101,0,-11,990,-5,-4,5
3102,-2,-13,992,-3,-4,5
3103,-1,-14,990,-4,-4,6
3104,-1,-13,992,-3,-4,5
3105,0,-13,988,-4,-5,5
3106,-1,-13,992,-2,-4,5
3107,-2,-15,990,-4,-4,4
3108,-1,-15,992,-3,-4,5
3109,0,-15,989,-6,-4,5
3110,0,-15,991,-5,-4,6
3111,0,-14,990,-5,-5,5
3112,-2,-13,992,-5,-5,4
3113,-2,-15,990,-6,-5,4
3114,0,-14,991,-5,-4,4
3115,-1,-13,990,-5,-6,6
3116,-1,-16,990,-6,-4,5
3117,-2,-15,992,-4,-4,5
3118,-2,-16,989,-4,-4,5
3119,-2,-14,991,-2,-4,5
3120,0,-13,990,-4,-5,4
3121,0,-12,993,-3,-5,6
3122,1,-12,991,-4,-4,6
3123,-1,-12,991,-3,-5,6
3124,1,-14,990,-4,-5,6
3125,0,-13,990,-3,-4,5
3126,-1,-15,990,-5,-4,5
3127,0,-15,991,-4,-4,5
3128,0,-15,991,-4,-5,5
3129,0,-14,992,-3,-4,5
3130,0,-14,991,-6,-4,5
3131,-1,-14,992,-6,-4,5
3132,0,-14,990,-7,-4,4
3133,0,-14,991,-5,-4,5
3134,0,-15,989,-4,-4,4
3135,0,-14,991,-5,-5,5
3136,0,-15,991,-4,-6,4
3137,1,-15,991,-4,-5,5
3138,0,-13,990,-3,-5,4
3139,0,-14,991,-4,-5,3
3140,0,-14,991,-4,-4,4
3141,-1,-13,990,-5,-4,5
3142,0,-16,991,-5,-4,5
3143,-2,-13,989,-4,-4,5
3144,-1,-14,989,-5,-4,5
3145,-1,-16,988,-5,-5,5
3146,0,-16,989,-4,-5,4
3147,0,-15,990,-4,-5,4
3148,0,-13,991,-5,-3,5
3149,0,-14,990,-5,-4,6
3150,1,-15,990,-5,-4,5
3151,-1,-14,991,-3,-4,5
3152,0,-14,990,-5,-5,5
3153,1,-14,991,-4,-4,4
3154,1,-15,990,-4,-6,5
3155,0,-16,991,-3,-5,4
3156,-1,-16,989,-4,-4,5
3157,0,-14,991,-4,-4,6
3158,-1,-15,990,-4,-5,5
3159,-1,-13,991,-4,-4,5
3160,0,-14,991,-4,-5,5
3161,0,-15,992,-4,-4,5
3162,1,-14,991,-5,-4,5
3163,0,-15,990,-4,-4,5
3164,0,-13,993,-6,-4,5
3165,0,-13,991,-5,-4,5
3166,0,-11,990,-6,-4,5
3167,-1,-13,990,-5,-4,5
3168,0,-15,992,-6,-4,5
3169,-2,-15,991,-5,-5,6
3170,-1,-16,990,-5,-4,6
3171,0,-16,991,-5,-4,5
3172,-1,-14,990,-5,-5,5
3173,-1,-15,991,-5,-5,5
3174,-1,-16,990,-6,-4,5
3175,-1,-15,991,-4,-7,4
3176,-1,-16,990,-5,-6,4
3177,0,-14,990,-4,-4,5
3178,0,-14,989,-5,-4,6
3179,1,-15,990,-3,-4,5
3180,0,-15,991,-5,-5,4
3181,0,-15,990,-4,-5,5
3182,0,-15,990,-4,-4,4
3183,-1,-14,991,-4,-4,5
3184,-1,-12,990,-4,-4,5
3185,0,-14,991,-3,-4,6
3186,0,-15,990,-4,-5,5
3187,0,-14,991,-4,-5,5
3188,-1,-13,990,-3,-5,5
3189,0,-13,991,-3,-4,6
3190,1,-15,992,-3,-4,4
3191,2,-15,989,-4,-3,5
3192,0,-13,991,-5,-4,4
3193,0,-15,992,-5,-4,5
3194,0,-15,990,-5,-4,5
3195,0,-16,992,-4,-4,6
3196,-1,-15,990,-6,-4,6
3197,0,-15,991,-5,-5,5
3198,-2,-15,992,-7,-3,4
3199,0,-14,990,-5,-4,4
3200,-1,-13,991,-5,-4,5
3201,-1,-15,991,-4,-4,5
3202,0,-15,992,-5,-6,5
3203,-3,-14,991,-4,-4,6
3204,-1,-14,991,-5,-4,4
3205,2,-14,990,-4,-5,4
3206,0,-13,992,-6,-5,5
3207,-2,-14,991,-4,-5,5
3208,0,-13,990,-5,-5,5
3209,-1,-13,992,-4,-5,5
3210,-1,-14,990,-5,-4,4
3211,0,-16,992,-5,-4,6
3212,-1,-16,991,-5,-4,4
3213,-3,-15,990,-4,-5,4
3214,-1,-13,990,-4,-4,5
3215,-1,-14,991,-4,-4,5
3216,0,-14,990,-6,-4,5
3217,0,-15,990,-4,-5,5
3218,0,-15,992,-6,-4,5
3219,0,-15,990,-5,-5,5
3220,-1,-13,991,-4,-4,5
3221,0,-14,990,-4,-5,5
3222,0,-14,989,-4,-4,5
3223,-1,-13,990,-4,-5,5
3224,0,-13,991,-4,-4,5
3225,-1,-14,991,-4,-3,5
3226,-1,-13,992,-3,-5,6
3227,0,-14,989,-3,-4,5
3228,-2,-14,990,-4,-5,5
3229,0,-11,991,-3,-4,5
3230,0,-13,990,-6,-4,4
3231,0,-13,989,-5,-5,5
3232,0,-14,990,-6,-5,5
3233,0,-13,991,-5,-4,5
3234,0,-14,990,-5,-4,5
3235,1,-14,991,-4,-4,5
3236,-1,-15,991,-5,-4,6
3237,0,-15,992,-4,-3,4
3238,0,-14,991,-7,-4,5
3239,0,-13,991,-6,-5,5
3240,-1,-14,990,-6,-4,5
3241,0,-14,989,-5,-5,5
3242,0,-15,990,-3,-4,5
3243,0,-16,990,-4,-4,5
3244,-1,-13,990,-4,-5,5
3245,0,-15,991,-5,-5,5
3246,0,-15,990,-4,-5,4
3247,0,-13,991,-7,-5,4
3248,0,-13,989,-4,-5,4
3249,-1,-12,990,-5,-5,4
3250,0,-13,991,-4,-5,4
3251,-1,-16,990,-5,-4,5
3252,-1,-14,991,-4,-5,5
3253,-1,-14,990,-4,-3,4
3254,-1,-15,991,-4,-4,5
3255,-1,-14,989,-5,-4,5
3256,-2,-16,990,-4,-6,5
3257,-1,-14,991,-5,-4,5
3258,-1,-14,992,-5,-5,4
3259,0,-14,992,-6,-5,5
3260,-1,-14,991,-5,-3,6
3261,0,-14,991,-6,-4,5
3262,-1,-15,990,-6,-5,5
3263,-1,-15,991,-6,-5,4
3264,-2,-12,989,-4,-4,5
3265,0,-14,990,-4,-4,5
3266,0,-13,991,-4,-5,4
3267,-1,-15,991,-6,-4,4
3268,-2,-14,991,-4,-4,4
3269,0,-14,992,-6,-4,6
3270,0,-13,991,-5,-5,6
3271,0,-14,991,-7,-5,4
3272,0,-13,992,-5,-4,5
3273,0,-13,991,-4,-4,5
3274,0,-15,992,-3,-5,4
3275,1,-14,991,-5,-5,5
3276,0,-15,992,-3,-4,6
3277,1,-13,992,-5,-4,5
3278,-2,-14,991,-3,-5,5
3279,-3,-15,992,-3,-4,5
3280,-1,-14,992,-4,-5,6
3281,-1,-15,992,-5,-5,4
3282,0,-15,991,-3,-4,6
3283,0,-14,992,-5,-4,4
3284,-1,-15,991,-4,-4,6
3285,-1,-16,993,-6,-3,6
3286,0,-16,990,-4,-4,5
3287,0,-14,990,-7,-4,4
3288,0,-14,990,-3,-5,5
3289,0,-13,990,-6,-5,5
3290,1,-14,991,-4,-5,5
3291,0,-13,991,-3,-4,5
3292,0,-14,992,-3,-4,5
3293,0,-12,990,-4,-4,4
3294,0,-12,990,-4,-4,5
3295,-1,-14,991,-5,-4,5
3296,0,-15,991,-4,-4,5
3297,-1,-14,991,-4,-4,5
3298,0,-14,990,-5,-5,5
3299,-1,-14,991,-6,-4,5
3300,0,-15,990,-5,-5,5
3301,-2,-14,992,-4,-3,5
3302,-1,-16,990,-5,-4,6
3303,-1,-14,991,-4,-4,3
3304,0,-14,991,-5,-4,4
3305,0,-14,991,-5,-4,5
3306,0,-12,990,-5,-5,5
3307,-1,-14,991,-4,-5,4
3308,-2,-13,989,-5,-4,5
3309,0,-14,991,-3,-3,5
3310,1,-14,989,-5,-4,6
3311,-1,-13,991,-3,-5,5
3312,0,-14,991,-5,-4,5
3313,0,-14,991,-5,-5,5
3314,0,-14,990,-6,-4,5
3315,-1,-13,991,-6,-3,6
3316,1,-14,992,-5,-4,5
3317,0,-15,991,-4,-4,4
3318,0,-14,991,-4,-5,4
3319,-2,-13,991,-4,-4,5
3320,0,-13,990,-6,-4,6
3321,0,-13,991,-5,-4,5
3322,-1,-13,992,-5,-4,4
3323,-1,-14,991,-3,-4,5
3324,-2,-13,990,-5,-4,4
3325,-2,-14,990,-5,-4,5
3326,-1,-14,991,-5,-4,6
3327,0,-14,991,-4,-4,4
3328,0,-13,991,-4,-4,4
3329,0,-15,991,-6,-4,5
3330,0,-14,990,-4,-5,5
3331,1,-14,991,-6,-4,5
3332,0,-15,989,-4,-3,5
3333,0,-13,989,-5,-5,5
3334,0,-16,989,-4,-4,5
3335,0,-13,990,-5,-5,4
3336,0,-13,990,-3,-5,6
3337,0,-15,989,-7,-4,5
3338,0,-14,990,-4,-6,5
3339,0,-13,991,-6,-4,6
3340,-1,-13,990,-5,-4,5
3341,-1,-15,990,-6,-4,5
3342,0,-15,990,-5,-5,5
3343,-1,-15,991,-6,-5,5
3344,0,-14,992,-3,-5,4
3345,1,-15,990,-4,-5,5
3346,2,-14,990,-5,-5,5
3347,1,-13,989,-5,-5,5
3348,0,-13,992,-5,-5,5
3349,-1,-12,991,-5,-5,5
3350,0,-13,990,-5,-5,5
3351,0,-14,991,-4,-4,5
3352,-1,-13,990,-5,-5,5
3353,-1,-15,992,-4,-5,5
3354,-1,-12,991,-5,-5,4
3355,-2,-14,989,-5,-5,4
3356,0,-13,989,-5,-5,5
3357,0,-15,990,-4,-5,5
3358,-1,-15,991,-4,-5,5
3359,0,-15,993,-3,-4,5
3360,0,-15,989,-5,-5,6
3361,0,-15,992,-4,-4,5
3362,0,-13,991,-4,-4,5
3363,0,-14,991,-5,-4,5
3364,0,-15,991,-6,-4,4
3365,0,-14,992,-5,-4,4
3366,-2,-14,992,-4,-4,5
3367,-1,-14,992,-5,-4,5
3368,-1,-14,992,-5,-5,4
3369,-1,-15,991,-4,-4,4
3370,0,-15,993,-6,-4,5
3371,-1,-13,991,-6,-5,6
3372,0,-13,991,-7,-4,5
3373,0,-13,991,-3,-5,5
3374,1,-12,992,-6,-5,5
3375,-1,-12,992,-5,-5,5
3376,-2,-13,990,-7,-5,4
3377,0,-13,990,-6,-5,5
3378,-1,-16,992,-3,-5,4
3379,-1,-15,992,-10,-4,5
3380,-2,-14,991,-2,-4,5
3381,-1,-13,989,-8,-5,5
3382,-2,-13,991,-2,-4,6
3383,0,-13,991,-8,-5,5
3384,0,-14,991,0,-6,5
3385,-2,-14,992,-6,-4,5
3386,-1,-15,990,-2,-4,5
3387,0,-15,990,-6,-5,6
3388,-2,-14,990,-4,-4,4
3389,-1,-14,990,-6,-3,4
3390,-1,-15,991,-5,-4,6
3391,0,-14,990,-5,-6,6
3392,0,-14,990,-5,-5,5
3393,0,-14,991,-4,-4,5
3394,0,-14,992,-5,-4,5
3395,1,-13,991,-5,-4,5
3396,-1,-15,991,-5,-3,6
3397,-2,-14,990,-4,-4,5
3398,0,-17,991,-4,-4,5
3399,-1,-15,990,-5,-4,5
3400,0,-14,991,-4,-5,6
3401,0,-12,992,-4,-5,6
3402,0,-15,990,-6,-4,5
3403,0,-13,990,-5,-4,4
3404,0,-15,990,-5,-4,5
3405,0,-14,990,-6,-4,5
3406,0,-16,990,-5,-5,5
3407,-1,-13,990,-5,-4,6
3408,0,-13,990,-4,-4,6
3409,-1,-13,991,-4,-4,5
3410,0,-11,990,-3,-4,5
3411,-1,-14,991,-4,-5,4
3412,-2,-14,989,-5,-5,4
3413,0,-14,989,-4,-5,4
3414,-1,-12,990,-6,-5,5
3415,0,-14,990,-5,-4,5
3416,0,-14,991,-6,-5,4
3417,0,-14,990,-3,-4,5
3418,-1,-13,992,-5,-6,6
3419,0,-12,990,-3,-6,5
3420,0,-13,989,-4,-4,5
3421,-1,-14,991,-4,-4,7
3422,-1,-13,992,-5,-4,6
3423,0,-13,991,-5,-3,6
3424,0,-15,992,-4,-5,6
3425,1,-15,990,-4,-4,6
3426,0,-13,990,-4,-4,5
3427,-1,-15,990,-4,-4,6
3428,0,-16,991,-5,-4,5
3429,0,-14,989,-6,-5,4
3430,0,-13,991,-3,-5,4
3431,0,-13,991,-5,-4,5
3432,0,-13,991,-3,-5,5
3433,0,-14,991,-4,-5,6
3434,0,-12,991,-4,-5,4
3435,-1,-14,991,-5,-4,5
3436,-2,-15,990,-4,-5,5
3437,1,-15,991,-5,-5,5
3438,-1,-15,990,-4,-5,5
3439,0,-14,990,-4,-4,4
3440,0,-14,991,-5,-4,5
3441,0,-13,989,-6,-5,5
3442,0,-12,990,-5,-5,4
3443,0,-15,991,-7,-4,5
3444,0,-14,991,-5,-5,5
3445,-2,-15,991,-5,-5,5
3446,0,-15,990,-5,-5,5
3447,-1,-13,990,-6,-4,4
3448,-1,-14,991,-5,-4,5
3449,-2,-16,994,-7,-3,5
3450,-1,-15,991,-3,-5,5
3451,-2,-13,990,-6,-4,6
3452,-1,-13,991,-5,-5,5
3453,-1,-13,992,-4,-5,4
3454,0,-14,991,-3,-5,4
3455,0,-14,991,-4,-4,5
3456,0,-13,991,-5,-5,5
3457,0,-15,991,-5,-4,5
3458,0,-16,990,-5,-4,5
3459,0,-15,991,-4,-4,5
3460,-1,-15,991,-5,-5,5
3461,-1,-14,991,-4,-3,5
3462,-1,-14,991,-5,-4,5
3463,0,-13,990,-4,-3,5
3464,0,-15,991,-4,-3,4
3465,-3,-13,991,-5,-5,5
3466,0,-15,991,-4,-4,5
3467,-1,-16,992,-5,-5,5
3468,-1,-14,992,-4,-5,6
3469,-2,-13,990,-5,-4,5
3470,0,-14,990,-5,-5,5
3471,0,-13,991,-3,-5,5
3472,1,-12,990,-5,-4,6
3473,0,-13,991,-4,-3,5
3474,0,-13,991,-6,-5,5
3475,0,-13,990,-3,-5,5
3476,0,-15,990,-6,-5,5
3477,-1,-15,990,-4,-5,4
3478,-1,-14,990,-4,-5,4
3479,-3,-14,992,-4,-5,5
3480,-2,-15,992,-4,-4,6
3481,0,-15,990,-5,-4,5
3482,0,-16,991,-6,-4,5
3483,-1,-16,990,-6,-3,5
3484,-2,-14,991,-6,-4,4
3485,0,-13,991,-4,-5,4
3486,0,-14,990,-5,-4,4
3487,-1,-13,990,-5,-5,5
3488,0,-13,991,-6,-5,5
3489,-2,-14,990,-6,-5,5
3490,0,-13,991,-4,-5,4
3491,-2,-14,990,-6,-4,5
3492,0,-15,991,-4,-4,5
3493,0,-15,991,-5,-4,5
3494,-2,-15,989,-5,-5,4
3495,-1,-14,990,-6,-4,5
3496,0,-14,991,-5,-4,4
3497,0,-15,990,-5,-4,5
3498,0,-14,991,-5,-4,4
3499,0,-13,991,-5,-4,5
3500,0,-14,991,-5,-4,5
3501,0,-13,990,-6,-5,4
3502,1,-14,991,-4,-5,5
3503,-1,-15,991,-4,-4,6
3504,0,-14,990,-4,-4,5
3505,0,-15,991,-4,-5,6
3506,-1,-15,991,-4,-5,6
3507,0,-14,990,-4,-5,5
3508,-1,-13,991,-5,-4,6
3509,-1,-13,991,-4,-4,6
3510,-1,-15,990,-6,-4,5
3511,-1,-16,991,-6,-4,5
3512,0,-15,990,-5,-4,6
3513,0,-12,991,-6,-5,5
3514,0,-15,991,-5,-4,5
3515,0,-14,990,-5,-4,5
3516,-2,-14,990,-3,-5,5
3517,0,-13,991,-5,-5,5
3518,0,-14,991,-5,-4,5
3519,0,-13,989,-5,-4,4
3520,0,-15,989,-5,-5,5
3521,0,-15,987,-5,-4,5
3522,0,-14,989,-4,-5,5
3523,-1,-16,990,-4,-4,5
3524,-2,-15,990,-4,-4,5
3525,-1,-13,990,-2,-4,5
3526,0,-14,991,-4,-5,4
3527,-1,-12,989,-2,-3,5
3528,0,-14,992,-4,-5,4
3529,0,-13,991,-3,-4,4
3530,0,-11,990,-5,-3,5
3531,0,-15,992,-5,-4,3
3532,0,-16,989,-6,-4,4
3533,-1,-16,991,-4,-4,5
3534,0,-17,990,-6,-5,5
3535,-2,-14,991,-5,-4,5
3536,0,-14,991,-4,-4,6
3537,-1,-12,990,-4,-4,5
3538,0,-14,991,-4,-6,5
3539,0,-15,991,-4,-5,5
3540,0,-13,992,-4,-5,6
3541,0,-14,991,-6,-4,6
3542,0,-15,991,-6,-4,5
3543,-2,-13,991,-6,-4,5
3544,1,-15,991,-5,-4,5
3545,0,-14,990,-5,-4,4
3546,0,-16,992,-4,-5,4
3547,-2,-14,991,-6,-6,4
3548,0,-14,992,-3,-4,6
3549,-1,-12,991,-5,-5,5
3550,0,-13,992,-3,-4,5
3551,-2,-14,992,-3,-3,5
3552,0,-14,990,-4,-5,6
3553,-1,-16,991,-5,-4,5
3554,-1,-14,991,-4,-4,5
3555,-2,-13,991,-5,-4,5
3556,0,-13,991,-5,-5,5
3557,-1,-13,992,-4,-4,5
3558,1,-15,991,-5,-4,5
3559,0,-14,990,-5,-5,5
3560,-1,-14,989,-4,-4,4
3561,0,-14,990,-5,-4,6
3562,0,-15,991,-8,-4,5
3563,-1,-15,992,-4,-4,4
3564,-2,-14,991,-6,-5,5
3565,0,-13,991,-5,-4,5
3566,-1,-15,991,-6,-4,5
3567,0,-14,991,-4,-4,5
3568,0,-15,992,-7,-5,4
3569,0,-15,990,-3,-5,5
3570,1,-14,990,-3,-4,5
3571,0,-13,990,-3,-4,6
3572,0,-14,992,-6,-4,4
3573,0,-15,991,-4,-3,5
3574,0,-13,990,-6,-3,6
3575,0,-13,991,-5,-4,5
3576,0,-14,991,-5,-4,4
3577,-1,-15,991,-5,-4,4
3578,-3,-16,990,-5,-4,5
3579,0,-14,989,-5,-4,4
3580,0,-13,990,-5,-5,6
3581,0,-14,992,-5,-5,4
3582,0,-14,991,-4,-4,6
3583,0,-13,989,-6,-5,5
3584,0,-14,990,-4,-5,5
3585,-1,-14,990,-5,-5,5
3586,0,-15,991,-4,-4,5
3587,-2,-14,990,-5,-5,6
3588,0,-15,991,-4,-5,6
3589,0,-12,990,-4,-4,6
3590,-1,-13,991,-4,-5,5
3591,0,-14,991,-4,-4,4
3592,0,-14,992,-3,-3,5
3593,-1,-14,992,-4,-5,4
3594,1,-13,991,-5,-4,4
3595,0,-13,990,-5,-5,6
3596,0,-13,989,-5,-5,5
3597,0,-15,992,-5,-4,6
3598,-1,-15,992,-4,-4,5
3599,0,-13,991,-4,-4,5
3600,0,-14,990,-4,-5,6
3601,-1,-15,990,-5,-5,5
3602,-1,-14,989,-4,-4,4
3603,0,-15,991,-3,-4,5
3604,-1,-13,991,-4,-3,4
3605,0,-14,990,-3,-3,6
3606,0,-15,992,-6,-4,5
3607,0,-14,991,-5,-4,5
3608,-1,-14,990,-6,-4,5
3609,-1,-13,990,-5,-4,5
3610,-1,-14,990,-5,-4,6
3611,-1,-15,990,-6,-5,4
3612,0,-14,989,-7,-4,5
3613,0,-13,989,-6,-4,5
3614,0,-13,992,-5,-6,5
3615,0,-15,992,-5,-4,5
3616,1,-14,992,-4,-4,5
3617,-1,-13,990,-4,-5,5
3618,0,-15,991,-2,-5,4
3619,0,-14,990,-5,-5,5
3620,-2,-14,989,-4,-5,5
3621,0,-15,989,-3,-5,5
3622,0,-16,990,-3,-5,5
3623,0,-17,989,-4,-5,5
3624,0,-16,989,-2,-5,4
3625,1,-15,992,-6,-4,5
3626,1,-13,992,-3,-5,6
3627,0,-11,993,-4,-3,5
3628,0,-11,992,-4,-4,6
3629,-2,-12,992,-5,-4,5
3630,0,-13,992,-5,-4,6
3631,-1,-15,990,-6,-5,5
3632,0,-18,988,-6,-4,5
3633,0,-20,989,-5,-5,5
3634,0,-18,989,-5,-5,6
3635,0,-16,990,-5,-4,5
3636,0,-12,992,-3,-3,5
3637,0,-12,993,-4,-4,5
3638,0,-10,993,-5,-5,6
3639,-1,-11,991,-5,-4,6
3640,-1,-12,991,-6,-5,4
3641,0,-16,990,-7,-4,5
3642,-2,-17,991,-5,-4,5
3643,-1,-17,989,-4,-5,4
3644,-2,-17,991,-4,-5,4
3645,-2,-15,991,-3,-5,4
3646,0,-13,993,-3,-5,5
3647,-1,-11,993,-3,-6,5
3648,0,-11,991,-5,-5,6
3649,1,-11,990,-3,-5,5
3650,0,-14,992,-5,-5,5
3651,-3,-16,990,-4,-4,5
3652,-2,-17,990,-6,-4,5
3653,-2,-17,990,-4,-5,6
3654,-2,-16,990,-6,-5,5
3655,-1,-16,992,-3,-4,6
3656,1,-13,990,-3,-5,5
3657,0,-12,992,-3,-4,6
3658,0,-12,991,-4,-5,6
3659,-2,-11,991,-5,-3,6
3660,1,-11,989,-6,-4,5
3661,-1,-15,990,-6,-4,5
3662,0,-15,991,-5,-4,5
3663,-3,-18,990,-6,-5,6
3664,-2,-16,990,-5,-5,5
3665,0,-14,990,-5,-5,6
3666,1,-14,991,-4,-5,5
3667,0,-13,991,-5,-5,5
3668,0,-13,991,-5,-4,5
3669,-1,-10,991,-4,-5,4
3670,-1,-13,992,-4,-4,5
3671,-1,-13,991,-4,-4,6
3672,-1,-14,990,-4,-5,5
3673,0,-16,991,-4,-5,4
3674,-2,-15,989,-4,-3,4
3675,1,-15,989,-5,-3,4
3676,0,-12,991,-2,-4,5
3677,0,-12,991,-5,-4,5
3678,-1,-13,990,-4,-4,5
3679,-2,-14,991,-6,-4,4
3680,0,-14,992,-5,-3,5
3681,0,-13,990,-5,-4,4
3682,-1,-13,992,-4,-3,5
3683,1,-15,991,-6,-6,6
3684,2,-14,991,-4,-4,5
3685,0,-14,991,-7,-4,5
3686,0,-14,991,-6,-4,4
3687,-1,-15,991,-7,-3,5
3688,0,-15,990,-5,-5,5
3689,-1,-13,990,-4,-5,5
3690,-1,-15,992,-4,-5,6
3691,0,-14,991,-5,-5,5
3692,0,-15,991,-5,-5,5
3693,0,-12,991,-6,-5,4
3694,0,-14,992,-6,-5,4
3695,-1,-14,991,-5,-5,5
3696,0,-13,991,-5,-4,6
3697,0,-16,992,-4,-6,6
3698,-2,-14,992,-5,-5,5
3699,-2,-12,991,-4,-4,5
3700,0,-14,990,-5,-4,4
3701,-1,-14,990,-3,-4,5
3702,0,-14,990,-6,-4,6
3703,0,-12,990,-3,-4,5
3704,0,-14,991,-5,-4,6
3705,-2,-15,991,-5,-5,4
3706,-2,-14,991,-7,-5,5
3707,-1,-17,990,-4,-5,5
3708,-1,-14,989,-5,-5,6
3709,0,-13,992,-5,-4,6
3710,0,-13,992,-5,-5,5
3711,-2,-14,990,-6,-4,6
3712,0,-15,992,-8,-5,5
3713,-1,-16,990,-7,-5,4
3714,0,-15,990,-2,-4,6
3715,0,-16,991,-7,-3,5
3716,0,-14,991,-3,-5,6
3717,-1,-14,992,-7,-4,5
3718,0,-15,991,-4,-4,6
3719,0,-13,993,-4,-5,5
3720,1,-13,992,-5,-4,5
3721,-1,-15,990,-1,-4,4
3722,1,-15,991,-5,-4,4
3723,0,-16,991,-4,-4,5
3724,0,-13,990,-6,-5,4
3725,1,-13,992,-3,-4,4
3726,0,-13,992,-6,-3,5
3727,0,-11,991,-5,-5,5
3728,-1,-14,991,-6,-4,5
3729,-1,-14,992,-5,-5,5
3730,-1,-15,991,-5,-5,4
3731,-1,-15,990,-4,-4,5
3732,-1,-15,990,-4,-4,5
3733,1,-14,991,-4,-6,5
3734,0,-15,991,-2,-5,4
3735,0,-14,991,-5,-5,4
3736,-1,-15,991,-5,-5,4
3737,0,-14,991,-3,-5,4
3738,0,-12,990,-5,-4,6
3739,0,-15,990,-4,-4,5
3740,0,-12,990,-6,-4,5
3741,0,-15,991,-5,-4,5
3742,-1,-16,990,-6,-4,4
3743,-1,-15,990,-4,-4,5
3744,0,-14,991,-4,-4,5
3745,0,-14,991,-3,-4,5
3746,-2,-14,992,-4,-4,6
3747,-1,-13,991,-3,-2,4
3748,0,-13,990,-4,-5,6
3749,2,-14,990,-4,-4,5
3750,1,-12,991,-5,-4,5
3751,0,-13,991,-5,-4,5
3752,0,-15,992,-5,-3,6
3753,0,-14,990,-5,-4,6
3754,0,-14,990,-6,-4,5
3755,0,-15,990,-6,-4,5
3756,0,-16,989,-5,-5,5
3757,-1,-16,989,-5,-5,5
3758,-1,-16,989,-4,-4,6
3759,-1,-14,990,-5,-4,6
3760,0,-16,991,-3,-4,7
3761,-2,-14,990,-6,-5,6
3762,0,-13,989,-3,-4,4
3763,0,-13,991,-5,-4,4
3764,1,-14,990,-2,-4,4
3765,0,-16,991,-5,-5,4
3766,0,-13,990,-4,-5,5
3767,0,-16,991,-6,-4,5
3768,0,-15,989,-5,-4,5
3769,-2,-14,991,-7,-4,5
3770,-2,-15,991,-6,-4,5
3771,-1,-14,992,-7,-4,4
3772,-1,-14,990,-6,-3,5
3773,-1,-13,990,-6,-3,4
3774,0,-14,991,-4,-4,4
3775,0,-16,991,-4,-5,5
3776,0,-12,990,-3,-5,6
3777,0,-16,991,-4,-5,5
3778,-1,-13,989,-4,-5,4
3779,-2,-12,990,-5,-5,5
3780,0,-14,990,-6,-5,5
3781,0,-14,989,-3,-5,5
3782,0,-15,990,-5,-4,5
3783,-1,-13,990,-3,-4,5
3784,1,-15,992,-4,-5,5
3785,-1,-14,991,-3,-4,5
3786,-1,-14,992,-6,-5,5
3787,-2,-14,990,-4,-4,6
3788,0,-15,991,-5,-5,5
3789,0,-15,990,-4,-4,5
3790,0,-15,991,-3,-4,5
3791,0,-14,993,-3,-4,5
3792,0,-14,992,-3,-5,4
3793,0,-15,992,-5,-3,4
3794,0,-14,991,-5,-4,4
3795,0,-14,991,-4,-4,4
3796,-1,-17,990,-6,-4,4
3797,0,-14,991,-4,-3,5
3798,1,-14,990,-5,-4,5
3799,-1,-13,992,-7,-4,5
3800,0,-16,990,-5,-5,4
3801,-1,-14,990,-6,-4,5
3802,-1,-14,991,-7,-4,5
3803,-2,-14,988,-6,-4,5
3804,0,-14,991,-5,-5,5
3805,-1,-14,990,-4,-6,5
3806,0,-15,991,-3,-5,6
3807,1,-12,990,-4,-5,5
3808,0,-13,990,-2,-3,4
3809,-1,-14,990,-4,-4,5
3810,-1,-15,991,-4,-4,5
3811,0,-13,991,-5,-5,5
3812,-2,-15,991,-2,-4,4
3813,0,-14,992,-4,-4,5
3814,0,-14,992,-4,-4,5
3815,-2,-15,991,-5,-4,6
3816,0,-14,991,-4,-4,5
3817,0,-14,990,-4,-6,5
3818,-1,-14,991,-5,-5,5
3819,-2,-14,989,-4,-5,5
3820,-1,-15,992,-5,-4,5
3821,0,-15,991,-3,-5,5
3822,0,-15,992,-5,-3,5
3823,-1,-15,991,-3,-3,6
3824,-2,-14,991,-5,-5,5
3825,0,-12,991,-4,-4,5
3826,-1,-13,991,-4,-5,5
3827,0,-16,990,-5,-5,5
3828,-2,-16,991,-5,-4,5
3829,0,-15,990,-5,-4,5
3830,-1,-13,990,-5,-4,5
3831,-1,-13,990,-5,-5,5
3832,0,-14,990,-4,-4,5
3833,0,-15,989,-6,-4,6
3834,0,-13,991,-4,-5,5
3835,-1,-14,991,-5,-4,6
3836,0,-13,991,-4,-3,5
3837,-2,-13,990,-5,-4,4
3838,-1,-14,992,-4,-4,6
3839,0,-14,991,-7,-4,6
3840,1,-17,990,-6,-5,5
3841,-1,-13,990,-7,-4,5
3842,0,-13,991,-6,-4,5
3843,0,-13,992,-4,-5,5
3844,-1,-16,990,-5,-5,6
3845,-1,-15,992,-4,-4,5
3846,-1,-13,992,-4,-5,5
3847,0,-14,991,-4,-3,4
3848,-1,-13,991,-6,-4,5
3849,0,-13,991,-4,-4,5
3850,0,-15,990,-5,-4,5
3851,-2,-16,989,-3,-4,6
3852,0,-15,992,-5,-5,5
3853,1,-14,991,-5,-4,5
3854,0,-14,992,-5,-4,5
3855,0,-14,991,-4,-4,6
3856,0,-15,991,-5,-4,5
3857,0,-13,991,-5,-5,6
3858,0,-14,991,-4,-4,5
3859,-1,-15,991,-4,-4,5
3860,-1,-14,991,-5,-4,5
3861,0,-15,989,-5,-4,5
3862,0,-15,991,-5,-4,4
3863,-2,-13,989,-7,-4,5
3864,0,-14,990,-4,-6,5
3865,0,-13,990,-7,-6,5
3866,-1,-14,989,-5,-4,5
3867,-1,-13,989,-5,-4,5
3868,-1,-16,989,-5,-4,5
3869,0,-14,989,-7,-3,6
3870,-1,-14,990,-5,-5,5
3871,-1,-14,990,-5,-5,6
3872,-3,-15,990,-6,-4,5
3873,-1,-15,991,-4,-5,4
3874,0,-13,991,-4,-5,5
3875,1,-14,990,-3,-4,6
3876,-1,-12,989,-6,-5,5
3877,-1,-14,992,-2,-5,4
3878,0,-12,990,-6,-4,4
3879,-1,-14,992,-3,-4,5
3880,0,-13,991,-5,-4,5
3881,0,-13,991,-3,-4,5
3882,-1,-15,990,-5,-4,5
3883,0,-15,991,-4,-4,5
3884,0,-15,989,-6,-4,5
3885,0,-13,991,-4,-4,6
3886,-1,-14,991,-5,-4,5
3887,0,-13,991,-5,-4,5
3888,0,-14,991,-5,-5,6
3889,0,-14,992,-6,-5,6
3890,-1,-14,991,-7,-3,6
3891,-1,-15,991,-6,-4,5
3892,0,-14,990,-6,-4,6
3893,0,-14,990,-6,-4,5
3894,0,-13,990,-4,-4,5
3895,-3,-14,990,-7,-5,5
3896,-1,-13,992,-4,-5,5
3897,-2,-14,991,-4,-5,5
3898,-1,-13,990,-2,-5,5
3899,-1,-13,991,-3,-4,4
3900,0,-15,991,-4,-5,6
3901,0,-14,992,-4,-5,6
3902,0,-14,991,-5,-4,6
3903,0,-14,991,-5,-4,5
3904,1,-13,991,-4,-5,5
3905,0,-14,991,-5,-4,5
3906,0,-13,991,-4,-5,5
3907,0,-15,990,-5,-5,5
3908,0,-14,991,-5,-5,5
3909,-1,-13,991,-3,-4,5
3910,-1,-15,991,-7,-6,4
3911,-3,-15,990,-4,-5,5
3912,-1,-15,990,-6,-4,5
3913,0,-15,990,-4,-5,5
3914,0,-14,991,-5,-4,6
3915,1,-16,992,-4,-4,5
3916,1,-15,991,-5,-4,4
3917,0,-16,991,-4,-5,5
3918,1,-15,992,-4,-4,6
3919,-1,-15,991,-4,-4,5
3920,0,-13,990,-5,-4,6
3921,0,-15,990,-5,-4,5
3922,0,-14,990,-7,-5,5
3923,-1,-14,991,-5,-4,5
3924,-2,-14,991,-6,-4,4
3925,-1,-15,990,-5,-4,4
3926,2,-14,991,-5,-3,4
3927,-1,-14,991,-6,-4,3
3928,-1,-14,990,-5,-5,5
3929,0,-14,991,-6,-4,5
3930,0,-13,990,-5,-5,6
3931,0,-14,990,-6,-4,5
3932,0,-14,991,-5,-4,5
3933,-1,-13,990,-6,-3,5
3934,0,-14,991,-3,-4,4
3935,-1,-14,991,-5,-5,6
3936,0,-14,990,-4,-5,5
3937,0,-13,991,-5,-5,4
3938,0,-15,990,-4,-4,4
3939,-2,-14,991,-5,-4,4
3940,-1,-14,992,-4,-4,5
3941,-1,-12,991,-4,-5,5
3942,0,-14,990,-4,-4,4
3943,0,-15,991,-6,-4,5
3944,0,-14,991,-5,-5,6
3945,-1,-13,990,-6,-4,6
3946,-1,-14,990,-5,-4,5
3947,0,-15,990,-5,-5,5
3948,1,-14,990,-5,-5,5
3949,0,-15,991,-4,-4,5
3950,0,-14,991,-3,-3,5
3951,0,-10,990,-3,-4,5
3952,-1,-14,990,-5,-4,4
3953,-1,-14,992,-3,-5,4
3954,0,-12,991,-4,-5,4
3955,0,-14,990,-3,-5,4
3956,0,-16,992,-5,-5,4
3957,0,-14,990,-5,-5,6
3958,0,-14,990,-5,-5,6
3959,-1,-13,990,-2,-5,5
3960,0,-13,990,-4,-7,4
3961,0,-11,991,-3,-4,4
3962,0,-13,990,-4,-4,5
3963,0,-15,991,-4,-3,6
3964,0,-15,991,-5,-3,5
3965,-1,-17,989,-6,-4,5
3966,0,-14,991,-4,-5,4
3967,-2,-15,990,-4,-4,4
3968,0,-12,992,-3,-5,5
3969,-1,-15,991,-5,-5,5
3970,0,-12,992,-4,-5,5
3971,0,-13,991,-4,-4,4
3972,0,-15,990,-4,-5,5
3973,0,-14,993,-4,-4,4
3974,-1,-13,992,-4,-4,5
3975,-1,-13,991,-6,-4,5
3976,-2,-15,991,-4,-4,6
3977,-1,-15,991,-5,-3,6
3978,0,-15,991,-5,-4,4
3979,0,-14,991,-5,-4,6
3980,0,-14,991,-6,-3,5
3981,0,-13,991,-5,-4,5
3982,-1,-14,990,-5,-5,4
3983,0,-13,990,-5,-4,4
3984,1,-13,991,-6,-5,5
3985,0,-15,991,-5,-4,5
3986,-3,-15,990,-5,-5,4
3987,1,-13,991,-5,-5,5
3988,0,-14,991,-5,-5,5
3989,-1,-15,990,-4,-5,5
3990,0,-14,990,-6,-5,5
3991,0,-14,992,-4,-4,5
3992,0,-15,991,-5,-4,5
3993,0,-13,992,-3,-4,4
3994,0,-13,991,-5,-5,4
3995,0,-14,992,-4,-5,5
3996,-1,-15,991,-5,-5,5
3997,0,-14,992,-4,-5,5
3998,-2,-15,990,-4,-5,5
3999,0,-13,990,-4,-5,5
4000,0,-14,990,-3,-5,5
4001,0,-13,993,-4,-4,5
4002,-1,-14,991,-4,-4,6
4003,0,-12,992,-5,-3,6
4004,0,-12,991,-5,-4,4
4005,0,-13,992,-4,-4,6
4006,-2,-15,993,-4,-5,4
4007,-2,-13,990,-3,-5,5
4008,-1,-14,991,-3,-4,6
4009,-1,-14,991,-4,-6,5
4010,0,-13,989,-4,-4,5
4011,1,-14,992,-5,-5,5
4012,-1,-13,991,-4,-3,5
4013,-1,-13,990,-6,-4,6
4014,0,-14,992,-6,-3,5
4015,-2,-13,993,-6,-4,5
4016,0,-13,989,-4,-4,6
4017,0,-13,991,-6,-4,5
4018,-2,-15,991,-6,-4,5
4019,0,-14,990,-6,-5,5
4020,0,-16,990,-4,-4,6
4021,-3,-13,992,-5,-4,6
4022,-2,-15,991,-6,-4,6
4023,-1,-12,989,-6,-5,5
4024,-1,-12,990,-4,-4,5
4025,0,-14,992,-5,-5,5
4026,-1,-13,990,-4,-5,6
4027,0,-14,991,-3,-4,5
4028,0,-15,990,-3,-5,5
4029,0,-14,991,-3,-4,4
4030,-1,-13,989,-5,-4,5
4031,-1,-13,991,-4,-5,5
4032,0,-13,993,-3,-4,5
4033,0,-12,989,-3,-5,4
4034,-1,-13,987,-5,-5,4
4035,0,-15,992,-4,-4,5
4036,0,-15,991,-6,-4,5
4037,0,-14,987,-3,-4,5
4038,-3,-16,989,-3,-4,5
4039,-2,-15,992,-3,-5,5
4040,1,-14,991,-4,-5,6
4041,-1,-13,990,-3,-4,5
4042,1,-13,992,-3,-5,5
4043,0,-12,991,-6,-4,4
4044,0,-13,990,-7,-5,5
4045,-1,-14,991,-5,-5,5
4046,-3,-14,992,-5,-5,6
4047,-1,-12,990,-6,-4,5
4048,0,-12,991,-4,-4,4
4049,0,-15,990,-5,-4,5
4050,-3,-15,992,-5,-5,4
4051,0,-15,993,-4,-5,5
4052,0,-14,990,-4,-5,5
4053,0,-14,990,-5,-4,5
4054,0,-14,989,-4,-4,5
4055,0,-13,991,-5,-5,5
4056,0,-14,991,-1,-4,5
4057,-1,-15,991,-9,-4,4
4058,0,-15,992,1,-4,6
4059,0,-14,991,-7,-4,5
4060,0,-14,990,-1,-4,5
4061,0,-14,990,-6,-5,5
4062,0,-15,991,-5,-5,4
4063,0,-14,990,-5,-4,4
4064,-1,-15,991,-7,-5,5
4065,0,-14,989,-4,-4,6
4066,-1,-15,990,-7,-4,5
4067,0,-14,991,-3,-4,5
4068,-1,-12,991,-6,-4,4
4069,-1,-14,992,-2,-4,4
4070,-1,-15,991,-5,-5,5
4071,0,-15,991,-2,-4,5
4072,0,-14,992,-5,-4,4
4073,0,-15,991,-6,-4,5
4074,0,-15,991,-5,-3,5
4075,-1,-14,991,-7,-4,5
4076,-1,-14,991,-5,-4,6
4077,-2,-16,991,-6,-3,5
4078,0,-15,992,-5,-4,6
4079,0,-13,991,-6,-5,5
4080,0,-14,990,-4,-5,4
4081,-1,-13,991,-4,-5,5
4082,0,-14,991,-3,-5,5
4083,-1,-15,992,-3,-3,5
4084,-1,-15,992,-4,-3,5
4085,-1,-14,991,-4,-3,6
4086,-1,-13,990,-5,-4,5
4087,0,-14,989,-4,-4,5
4088,0,-13,990,-6,-4,5
4089,0,-14,988,-4,-3,4
4090,-1,-15,990,-6,-5,4
4091,-1,-14,991,-6,-4,6
4092,0,-14,992,-4,-5,5
4093,-2,-14,992,-4,-5,5
4094,-1,-13,992,-3,-3,5
4095,0,-13,993,-4,-5,5
4096,0,-13,992,-4,-5,4
4097,-1,-13,992,-5,-4,6
4098,0,-14,992,-4,-4,6
4099,0,-15,992,-5,-4,5
4100,0,-15,990,-5,-5,4
4101,0,-13,991,-4,-5,3
4102,-1,-14,991,-3,-5,5
4103,-1,-14,990,-4,-4,5
4104,-1,-14,989,-5,-4,4
4105,0,-15,991,-4,-5,5
4106,0,-13,991,-6,-5,5
4107,-2,-13,991,-5,-5,4
4108,-2,-15,992,-2,-5,5
4109,-1,-15,991,-3,-4,5
4110,0,-15,991,-4,-5,5
4111,0,-14,991,-3,-4,5
4112,0,-14,992,-3,-4,5
4113,0,-13,990,-4,-4,4
4114,0,-14,990,-5,-4,4
4115,-1,-13,990,-6,-5,4
4116,0,-14,991,-6,-5,4
4117,-1,-13,990,-6,-4,5
4118,-2,-14,990,-6,-5,4
4119,-1,-16,991,-5,-5,5
4120,0,-13,992,-6,-4,4
4121,0,-14,991,-5,-5,4
4122,0,-14,991,-5,-5,4
4123,0,-14,993,-2,-5,4
4124,0,-12,990,-4,-5,4
4125,0,-13,990,-6,-3,5
4126,0,-14,991,-6,-5,6
4127,-1,-12,991,-5,-4,5
4128,-1,-13,990,-5,-4,5
4129,1,-13,990,-5,-4,4
4130,2,-14,992,-5,-3,5
4131,1,-14,990,-8,-4,4
4132,0,-12,991,-5,-5,5
4133,-2,-14,992,-6,-3,5
4134,-2,-17,990,-6,-4,6
4135,-2,-15,989,-5,-5,5
4136,0,-16,990,-6,-6,5
4137,0,-15,990,-5,-4,5
4138,-3,-13,991,-5,-4,5
4139,-1,-13,991,-3,-4,4
4140,0,-13,989,-4,-5,4
4141,0,-14,990,-4,-4,5
4142,0,-13,992,-6,-4,4
4143,-1,-12,992,-6,-3,4
4144,0,-15,990,-6,-5,5
4145,-1,-14,991,-4,-5,4
4146,-1,-15,992,-5,-4,4
4147,-1,-15,990,-3,-4,5
4148,-2,-16,992,-4,-4,5
4149,0,-15,990,-5,-4,5
4150,-3,-13,992,-5,-4,6
4151,-1,-12,992,-6,-4,4
4152,0,-13,991,-4,-5,5
4153,0,-11,992,-5,-5,6
4154,-1,-13,990,-3,-4,6
4155,-1,-13,992,-4,-5,5
4156,0,-14,991,-3,-4,5
4157,-1,-14,991,-4,-3,5
4158,-2,-14,992,-5,-4,5
4159,-2,-16,990,-5,-3,5
4160,0,-14,991,-6,-5,5
4161,0,-13,992,-5,-5,4
4162,-1,-15,992,-6,-5,5
4163,-2,-14,991,-5,-4,5
4164,-1,-15,991,-5,-5,5
4165,-1,-14,991,-5,-5,5
4166,0,-15,991,-5,-6,4
4167,-1,-13,991,-5,-5,4
4168,0,-12,991,-4,-4,4
4169,1,-14,992,-3,-5,4
4170,0,-13,991,-3,-4,6
4171,-1,-14,990,-4,-4,5
4172,1,-15,989,-3,-5,5
4173,-1,-14,989,-5,-4,4
4174,0,-14,990,-3,-4,5
4175,0,-13,992,-4,-4,4
4176,-2,-14,991,-5,-3,5
4177,-1,-13,991,-5,-4,6
4178,-1,-14,991,-4,-4,5
4179,0,-13,989,-4,-3,6
4180,0,-15,992,-3,-3,5
4181,0,-15,991,-4,-4,5
4182,0,-13,991,-4,-4,6
4183,0,-11,990,-5,-4,5
4184,0,-11,991,-4,-5,5
4185,0,-15,990,-6,-5,5
4186,0,-14,990,-7,-5,5
4187,-2,-14,991,-5,-5,4
4188,-1,-15,992,-5,-4,5
4189,0,-14,990,-5,-5,5
4190,-1,-13,990,-4,-4,5
4191,-2,-15,991,-4,-4,6
4192,-1,-15,992,-3,-5,5
4193,-1,-15,993,-3,-5,5
4194,0,-13,991,-4,-4,5
4195,0,-13,992,-4,-4,5
4196,0,-13,991,-5,-4,5
4197,0,-14,990,-5,-4,6
4198,0,-14,992,-6,-4,5
4199,-1,-15,992,-4,-4,4
4200,-1,-14,990,-6,-5,4
4201,-2,-15,991,-5,-4,5
4202,-1,-14,991,-6,-4,4
4203,0,-14,991,-4,-4,5
4204,0,-13,992,-6,-5,4
4205,-3,-14,992,-4,-4,6
4206,0,-13,992,-6,-4,5
4207,-1,-13,992,-5,-4,5
4208,-1,-15,990,-6,-4,5
4209,0,-15,989,-4,-4,4
4210,1,-15,992,-4,-5,5
4211,0,-15,992,-5,-5,6
4212,-1,-12,990,-4,-5,5
4213,1,-14,991,-3,-5,4
4214,1,-12,991,-5,-5,5
4215,-1,-12,991,-3,-5,4
4216,0,-11,990,-4,-5,5
4217,0,-14,990,-4,-5,6
4218,-1,-14,991,-4,-5,5
4219,0,-14,992,-4,-4,4
4220,0,-16,991,-5,-4,5
4221,0,-16,989,-5,-4,6
4222,-1,-15,990,-5,-5,5
4223,0,-14,992,-5,-5,6
4224,0,-14,990,-5,-4,6
4225,0,-12,991,-5,-5,4
4226,0,-14,989,-4,-4,4
4227,1,-13,990,-6,-4,5
4228,0,-15,990,-5,-4,5
4229,0,-14,991,-5,-5,5
4230,-1,-14,989,-5,-4,5
4231,-2,-16,991,-6,-5,6
4232,0,-16,991,-5,-4,6
4233,0,-15,991,-6,-4,6
4234,0,-13,989,-5,-4,6
4235,0,-12,989,-5,-3,5
4236,0,-13,991,-5,-4,4
4237,0,-14,992,-5,-4,6
4238,0,-14,990,-5,-4,4
4239,0,-13,990,-3,-4,5
4240,0,-12,990,-5,-5,4
4241,0,-14,991,-2,-4,5
4242,-1,-15,990,-4,-4,5
4243,-1,-15,989,-2,-4,5
4244,0,-14,991,-6,-5,4
4245,-1,-14,991,-4,-5,5
4246,-1,-15,990,-5,-4,6
4247,-3,-16,990,-4,-5,6
4248,-1,-13,991,-4,-5,4
4249,-1,-14,990,-4,-4,5
4250,0,-14,991,-5,-5,4
4251,0,-14,992,-3,-4,5
4252,-1,-14,991,-5,-3,4
4253,0,-15,990,-4,-3,4
4254,0,-12,991,-5,-4,5
4255,1,-15,990,-4,-4,5
4256,0,-14,991,-3,-5,5
4257,0,-15,992,-4,-4,4
4258,0,-14,990,-5,-4,5
4259,-1,-14,991,-6,-4,5
4260,-1,-15,991,-6,-4,5
4261,-2,-17,991,-5,-5,5
4262,-1,-16,991,-5,-5,4
4263,-1,-14,991,-5,-4,5
4264,1,-13,990,-5,-5,5
4265,0,-13,991,-4,-5,5
4266,0,-12,991,-4,-5,5
4267,0,-14,991,-3,-4,5
4268,0,-15,992,-5,-5,5
4269,-1,-13,991,-3,-4,4
4270,-1,-12,991,-5,-4,4
4271,-2,-16,990,-3,-4,4
4272,-1,-14,992,-6,-4,6
4273,0,-15,989,-3,-4,6
4274,-1,-15,991,-6,-4,5
4275,-1,-14,992,-4,-4,5
4276,0,-11,991,-4,-5,5
4277,0,-13,991,-4,-5,6
4278,-1,-14,990,-4,-4,6
4279,0,-13,990,-4,-4,6
4280,0,-13,991,-6,-4,5
4281,0,-14,991,-5,-4,5
4282,-1,-13,991,-4,-5,4
4283,0,-15,992,-6,-5,5
4284,0,-15,992,-4,-4,5
4285,-3,-13,990,-5,-5,4
4286,0,-12,990,-3,-5,5
4287,0,-13,991,-6,-3,6
4288,0,-14,989,-5,-5,5
4289,-1,-15,990,-4,-4,4
4290,0,-13,990,-4,-4,4
4291,0,-12,990,-4,-5,4
4292,-1,-15,991,-4,-4,5
4293,0,-14,991,-4,-4,5
4294,0,-13,992,-6,-4,5
4295,-1,-13,991,-6,-5,5
4296,0,-15,991,-5,-5,4
4297,0,-15,991,-5,-4,5
4298,-2,-14,989,-6,-4,4
4299,0,-13,991,-5,-3,4
4300,0,-15,992,-6,-5,4
4301,-2,-15,991,-6,-3,5
4302,0,-13,991,-6,-4,5
4303,0,-14,990,-6,-4,6
4304,0,-15,991,-6,-4,5
4305,0,-14,991,-5,-5,6
4306,1,-14,991,-3,-5,5
4307,-1,-13,991,-4,-4,4
4308,0,-13,991,-4,-4,6
4309,0,-14,991,-4,-4,6
4310,0,-13,991,-3,-5,5
4311,-1,-13,991,-5,-5,6
4312,0,-15,991,-1,-4,6
4313,-1,-15,989,-5,-4,4
4314,0,-14,991,-3,-3,4
4315,-1,-14,992,-4,-4,5
4316,-2,-15,992,-4,-5,5
4317,-3,-15,990,-4,-4,5
4318,-1,-17,989,-6,-3,5
4319,0,-15,991,-3,-5,5
4320,0,-13,992,-4,-4,4
4321,0,-13,990,-4,-4,5
4322,-2,-14,990,-5,-5,5
4323,-1,-12,991,-4,-3,5
4324,-1,-16,992,-6,-5,5
4325,-2,-14,991,-5,-4,4
4326,0,-14,991,-6,-3,5
4327,-1,-16,990,-7,-4,5
4328,0,-15,991,-6,-4,5
4329,-2,-16,991,-4,-5,6
4330,-1,-15,992,-4,-6,5
4331,1,-15,990,-4,-5,5
4332,0,-13,990,-5,-5,5
4333,-2,-13,992,-4,-5,6
4334,-1,-14,991,-6,-4,5
4335,0,-15,991,-5,-4,5
4336,0,-14,992,-4,-5,4
4337,-1,-14,991,-5,-4,5
4338,0,-13,991,-5,-4,3
4339,1,-12,990,-5,-5,5
4340,0,-12,990,-3,-4,5
4341,0,-13,992,-4,-4,5
4342,-1,-15,990,-4,-5,5
4343,-1,-16,992,-6,-4,5
4344,0,-14,992,-3,-4,5
4345,0,-15,989,-5,-5,4
4346,-1,-14,991,-3,-4,4
4347,-1,-15,991,-5,-4,4
4348,0,-13,991,-5,-4,4
4349,0,-13,993,-5,-4,5
4350,0,-13,991,-4,-5,4
4351,-1,-14,991,-3,-5,4
4352,0,-14,992,-5,-5,5
4353,-1,-14,992,-3,-4,5
4354,-2,-14,991,-6,-5,5
4355,-1,-15,991,-5,-4,6
4356,-2,-15,990,-7,-5,6
4357,0,-14,991,-4,-4,6
4358,-1,-12,989,-5,-4,5
4359,0,-13,991,-3,-5,6
4360,0,-15,992,-4,-6,5
4361,0,-13,991,-4,-5,4
4362,1,-14,991,-3,-4,5
4363,0,-15,988,-4,-4,4
4364,0,-13,991,-3,-4,5
4365,0,-14,990,-5,-4,3
4366,0,-13,991,-2,-4,4
4367,0,-15,990,-5,-4,5
4368,-1,-14,991,-4,-5,5
4369,0,-15,990,-5,-5,5
4370,0,-13,991,-3,-5,6
4371,0,-12,991,-4,-4,5
4372,-2,-13,990,-4,-4,5
4373,-2,-15,991,-5,-3,4
4374,-2,-14,991,-5,-5,6
4375,-2,-13,992,-5,-4,6
4376,0,-14,990,-6,-4,4
4377,-2,-14,990,-6,-4,5
4378,-2,-16,990,-5,-4,5
4379,0,-13,990,-4,-5,4
4380,0,-12,990,-4,-5,4
4381,0,-15,991,-4,-4,4
4382,0,-14,990,-5,-4,5
4383,0,-14,991,-3,-4,5
4384,-1,-13,989,-5,-4,5
4385,-1,-17,991,-4,-4,6
4386,-1,-14,991,-4,-4,4
4387,-1,-16,990,-1,-5,5
4388,-2,-15,989,-7,-6,4
4389,0,-14,992,-6,-4,4
4390,1,-14,992,-1,-4,5
4391,0,-13,992,-7,-3,5
4392,0,-13,989,1,-4,4
4393,0,-12,992,-7,-4,4
4394,0,-13,991,-4,-4,6
4395,0,-16,990,-6,-4,7
4396,-1,-15,991,-5,-4,5
4397,-1,-16,992,-6,-4,5
4398,0,-14,990,-4,-5,5
4399,0,-14,990,-4,-5,5
4400,0,-14,991,-4,-4,4
4401,-2,-14,988,-3,-5,4
4402,-2,-14,990,-4,-5,5
4403,0,-12,991,-3,-4,5
4404,0,-14,990,-4,-4,5
4405,0,-13,990,-3,-4,5
4406,-1,-14,990,-4,-4,6
4407,-1,-13,990,-4,-4,5
4408,-1,-13,990,-5,-5,6
4409,-1,-14,991,-5,-4,5
4410,-1,-15,990,-5,-5,4
4411,0,-15,991,-5,-4,6
4412,-1,-14,991,-6,-4,5
4413,-1,-16,990,-4,-5,5
4414,0,-15,989,-5,-4,5
4415,-3,-14,992,-5,-4,7
4416,0,-11,990,-4,-5,5
4417,0,-11,989,-5,-4,5
4418,-1,-14,991,-5,-5,4
4419,0,-14,991,-3,-4,4
4420,-1,-13,990,-3,-4,5
4421,0,-14,991,-3,-5,5
4422,0,-13,990,-3,-5,5
4423,1,-13,991,-5,-4,5
4424,0,-13,992,-5,-4,5
4425,0,-15,991,-6,-4,5
4426,1,-15,989,-5,-4,5
4427,0,-15,991,-5,-5,5
4428,0,-15,991,-4,-5,5
4429,0,-14,991,-5,-5,5
4430,-1,-15,991,-5,-4,4
4431,-2,-13,992,-6,-4,5
4432,0,-15,990,-4,-5,5
4433,-2,-15,991,-4,-4,4
4434,0,-14,992,-4,-4,4
4435,0,-15,989,-3,-5,4
4436,-1,-14,990,-4,-5,4
4437,-1,-13,991,-4,-5,5
4438,0,-14,990,-4,-6,5
4439,0,-15,991,-4,-4,4
4440,0,-16,991,-5,-5,6
4441,0,-15,990,-4,-4,6
4442,-2,-14,991,-4,-3,5
4443,-1,-14,991,-3,-4,5
4444,0,-14,991,-4,-5,6
4445,-1,-13,991,-5,-5,5
4446,0,-13,991,-5,-5,4
4447,0,-14,991,-6,-4,5
4448,0,-14,991,-5,-4,5
4449,0,-16,991,-6,-4,5
4450,0,-16,990,-5,-3,6
4451,-1,-15,990,-7,-4,5
4452,-1,-16,990,-3,-4,4
4453,-1,-17,990,-6,-5,3
4454,0,-13,990,-3,-5,4
4455,-1,-14,992,-4,-5,4
4456,0,-13,989,-3,-5,5
4457,0,-12,992,-3,-4,5
4458,0,-13,992,-4,-5,5
4459,0,-13,990,-6,-4,4
4460,2,-14,991,-5,-4,4
4461,0,-14,991,-3,-4,4
4462,0,-16,989,-6,-4,5
4463,0,-16,992,-3,-4,5
4464,-1,-13,991,-5,-4,5
4465,0,-13,991,-4,-4,6
4466,-1,-14,992,-5,-5,4
4467,-2,-13,991,-3,-4,4
4468,0,-15,991,-2,-3,5
4469,0,-14,991,-5,-4,4
4470,-1,-14,991,-4,-5,4
4471,0,-15,991,-5,-3,4
4472,-1,-15,992,-4,-4,5
4473,0,-14,990,-6,-5,5
4474,0,-14,992,-4,-5,4
4475,0,-14,992,-6,-5,5
4476,0,-14,991,-6,-5,5
4477,1,-15,990,-5,-2,5
4478,-1,-14,992,-5,-4,5
4479,0,-13,991,-4,-4,4
4480,0,-15,991,-5,-4,4
4481,-1,-15,991,-5,-5,5
4482,-1,-14,990,-6,-5,5
4483,-2,-15,990,-4,-4,5
4484,-1,-15,990,-5,-5,5
4485,0,-14,990,-5,-4,4
4486,0,-15,989,-6,-4,4
4487,0,-15,990,-6,-5,5
4488,0,-14,991,-4,-4,5
4489,0,-12,990,-4,-4,5
4490,-2,-13,990,-4,-4,5
4491,-1,-14,991,-5,-5,5
4492,-1,-14,991,-2,-4,5
4493,-1,-14,992,-4,-5,5
4494,0,-15,993,-2,-5,4
4495,0,-14,992,-5,-3,6
4496,-1,-14,990,-4,-5,6
4497,0,-15,990,-4,-4,5
4498,0,-13,991,-5,-4,6
4499,-1,-15,992,-4,-5,4
4500,0,-13,991,-6,-4,5
4501,0,-14,991,-4,-4,5
4502,-1,-13,992,-6,-5,6
4503,1,-14,991,-2,-5,5
4504,0,-15,990,-6,-4,5
4505,0,-14,991,-3,-4,5
4506,0,-15,990,-4,-4,5
4507,0,-14,992,-4,-4,4
4508,0,-13,990,-4,-5,5
4509,1,-12,992,-4,-4,5
4510,-1,-14,991,-3,-5,5
4511,-1,-13,991,-4,-5,4
4512,-1,-14,990,-3,-3,5
4513,-1,-15,990,-5,-3,4
4514,0,-15,989,-3,-4,4
4515,0,-16,990,-5,-4,5
4516,-1,-15,992,-4,-5,5
4517,0,-15,992,-6,-4,6
4518,-1,-12,991,-4,-5,5
4519,0,-12,990,-5,-5,4
4520,0,-12,989,-4,-5,4
4521,-1,-13,989,-4,-5,5
4522,0,-17,992,-5,-5,5
4523,-1,-16,989,-4,-5,4
4524,-1,-16,990,-5,-5,5
4525,0,-16,991,-4,-5,5
4526,-1,-15,990,-6,-4,6
4527,0,-12,990,-4,-4,6
4528,-1,-12,991,-4,-4,6
4529,1,-11,992,-4,-4,5
4530,0,-15,989,-5,-4,5
4531,0,-15,989,-4,-4,4
4532,0,-15,989,-4,-5,4
4533,0,-16,991,-4,-4,5
4534,0,-13,992,-3,-5,5
4535,0,-14,989,-5,-4,4
4536,-1,-15,990,-4,-4,4
4537,-1,-15,991,-5,-5,6
4538,0,-14,991,-4,-3,6
4539,0,-13,991,-6,-4,5
4540,0,-14,991,-5,-4,5
4541,0,-13,992,-5,-3,5
4542,0,-15,992,-5,-5,6
4543,0,-14,991,-5,-5,6
4544,0,-14,990,-4,-4,5
4545,-1,-14,991,-3,-4,5
4546,0,-13,991,-4,-4,6
4547,0,-13,990,-6,-3,5
4548,-1,-15,990,-5,-4,5
4549,-1,-13,989,-5,-4,5
4550,-1,-14,990,-5,-4,5
4551,-1,-15,991,-4,-5,5
4552,-1,-14,991,-5,-4,5
4553,-1,-14,990,-5,-4,4
4554,0,-16,990,-4,-5,4
4555,-2,-14,990,-7,-4,6
4556,0,-14,991,-5,-5,5
4557,0,-14,989,-5,-5,4
4558,-1,-13,991,-3,-5,5
4559,0,-14,992,-4,-5,4
4560,-1,-13,990,-4,-5,5
4561,0,-15,989,-2,-4,4
4562,0,-12,990,-5,-4,5
4563,-2,-13,991,-4,-4,6
4564,0,-15,990,-6,-4,6
4565,0,-13,991,-4,-4,6
4566,0,-14,991,-5,-4,6
4567,0,-15,991,-4,-4,5
4568,-1,-15,991,-4,-5,4
4569,0,-15,991,-4,-4,5
4570,0,-14,990,-5,-5,5
4571,-1,-14,992,-4,-5,5
4572,1,-14,991,-5,-4,6
4573,1,-12,991,-3,-3,6
4574,0,-13,992,-5,-3,6
4575,-1,-15,989,-6,-4,6
4576,0,-16,991,-3,-4,5
4577,-1,-15,989,-6,-5,6
4578,-1,-17,991,-4,-4,5
4579,-2,-15,990,-6,-5,5
4580,0,-13,991,-4,-4,5
4581,-1,-13,989,-5,-5,6
4582,0,-14,990,-3,-5,5
4583,-1,-14,991,-5,-5,4
4584,-1,-12,990,-3,-5,4
4585,0,-14,992,-3,-4,4
4586,-1,-13,990,-3,-5,5
4587,0,-13,992,-4,-5,5
4588,-1,-12,991,-6,-4,5
4589,0,-13,990,-4,-4,4
4590,0,-13,991,-5,-3,6
4591,-2,-13,989,-4,-5,6
4592,0,-15,991,-6,-5,5
4593,-1,-15,991,-5,-4,5
4594,0,-15,990,-7,-5,6
4595,-1,-15,989,-4,-4,6
4596,1,-16,990,-5,-4,5
4597,-1,-15,989,-4,-5,6
4598,0,-15,992,-6,-5,5
4599,-1,-14,991,-4,-5,5
4600,0,-15,991,-6,-4,6
4601,0,-14,992,-6,-4,6
4602,1,-13,990,-5,-5,5
4603,0,-12,992,-5,-4,5
4604,0,-15,990,-3,-4,5
4605,-1,-13,990,-6,-4,6
4606,0,-13,990,-4,-3,4
4607,0,-15,991,-5,-4,4
4608,0,-14,989,-4,-4,5
4609,0,-13,990,-4,-4,5
4610,0,-14,990,-5,-5,6
4611,0,-14,991,-6,-5,6
4612,0,-14,990,-4,-4,5
4613,0,-15,990,-5,-4,5
4614,0,-13,990,-4,-5,5
4615,-1,-14,990,-3,-5,6
4616,0,-14,992,-5,-5,6
4617,0,-17,992,-4,-3,5
4618,0,-12,991,-6,-4,5
4619,-2,-12,991,-4,-4,6
4620,0,-13,989,-6,-5,5
4621,0,-13,991,-6,-6,5
4622,0,-15,989,-6,-6,4
4623,0,-14,991,-6,-4,4
4624,0,-14,991,-6,-5,5
4625,-1,-13,990,-6,-5,6
4626,0,-13,991,-4,-5,5
4627,0,-12,992,-5,-4,3
4628,1,-13,990,-4,-6,5
4629,0,-14,991,-4,-6,4
4630,0,-14,990,-3,-5,5
4631,0,-13,990,-5,-5,5
4632,0,-14,991,-4,-3,4
4633,-1,-15,991,-4,-4,5
4634,-1,-13,989,-3,-4,5
4635,-1,-16,990,-5,-4,5
4636,0,-15,990,-4,-5,5
4637,-1,-15,991,-5,-3,5
4638,0,-14,992,-4,-5,5
4639,-2,-14,989,-4,-4,6
4640,0,-13,990,-5,-3,5
4641,0,-14,991,-4,-4,4
4642,-1,-14,991,-5,-4,5
4643,0,-15,991,-5,-4,6
4644,2,-15,991,-7,-4,6
4645,-1,-12,991,-4,-5,4
4646,1,-14,989,-4,-5,5
4647,1,-12,992,-4,-5,6
4648,0,-13,990,-3,-4,5
4649,0,-15,991,-4,-5,5
4650,0,-15,991,-3,-6,5
4651,0,-15,991,-4,-5,5
4652,-2,-14,991,-3,-4,5
4653,0,-14,992,-4,-5,5
4654,-1,-13,991,-3,-4,5
4655,0,-13,990,-3,-5,4
4656,0,-15,992,-3,-6,6
4657,0,-13,991,-3,-5,5
4658,-1,-12,989,-4,-5,3
4659,0,-12,992,-4,-5,4
4660,1,-14,992,-4,-5,5
4661,0,-13,990,-3,-4,4
4662,-1,-14,990,-5,-4,4
4663,0,-15,991,-3,-4,5
4664,0,-14,992,-4,-5,4
4665,0,-14,989,-3,-4,5
4666,0,-15,989,-3,-4,6
4667,-1,-14,991,-3,-4,4
4668,0,-13,991,-3,-4,5
4669,-1,-14,990,-3,-3,6
4670,0,-15,991,-3,-3,5
4671,0,-13,991,-4,-4,5
4672,0,-13,992,-2,-4,5
4673,-1,-15,990,-7,-4,5
4674,0,-14,990,-5,-4,5
4675,0,-16,991,-6,-5,6
4676,-1,-13,991,-3,-5,5
4677,0,-14,990,-4,-6,5
4678,0,-14,990,-3,-6,5
4679,-2,-14,991,-4,-5,5
4680,0,-13,990,-4,-3,4
4681,0,-14,991,-2,-3,5
4682,-1,-14,989,-4,-5,4
4683,1,-14,990,-2,-5,6
4684,0,-15,989,-4,-5,5
4685,1,-13,991,-3,-5,4
4686,0,-15,992,-5,-5,5
4687,0,-15,990,-5,-4,6
4688,0,-15,990,-4,-5,5
4689,0,-13,990,-4,-4,4
4690,-2,-13,990,-5,-4,6
4691,0,-16,991,-7,-4,6
4692,0,-12,992,-4,-4,5
4693,0,-16,989,-5,-4,6
4694,0,-13,988,-2,-4,5
4695,-3,-14,991,-4,-4,5
4696,0,-14,991,-3,-4,4
4697,0,-14,990,-4,-4,6
4698,0,-12,992,-4,-4,5
4699,0,-14,991,-5,-4,6
4700,0,-12,991,-6,-5,5
4701,0,-14,993,-4,-3,6
4702,-1,-13,991,-6,-4,5
4703,0,-12,991,-4,-4,6
4704,0,-14,991,-5,-4,6
4705,0,-15,992,-4,-4,5
4706,0,-16,992,-5,-3,5
4707,0,-15,991,-5,-4,5
4708,-1,-15,992,-5,-5,5
4709,0,-14,991,-6,-4,5
4710,0,-15,991,-6,-5,3
4711,-1,-14,992,-4,-4,5
4712,0,-15,990,-4,-4,5
4713,-1,-14,991,-4,-5,5
4714,-1,-15,991,-4,-4,5
4715,0,-15,991,-5,-5,5
4716,0,-15,991,-3,-4,5
4717,0,-14,991,-5,-4,5
4718,-1,-14,989,-4,-4,6
4719,0,-12,990,-6,-6,6
4720,0,-13,992,-4,-5,5
4721,-1,-16,991,-4,-4,5
4722,0,-13,992,-3,-4,4
4723,0,-14,991,-5,-5,3
4724,0,-15,992,0,-7,3
4725,0,-14,992,-5,-5,4
4726,0,-14,989,-4,-4,7
4727,0,-14,991,-2,-3,6
4728,-2,-14,991,-6,-5,4
4729,-1,-14,990,0,-4,5
4730,-2,-13,992,-7,-5,5
4731,0,-15,990,-1,-4,5
4732,0,-13,990,-7,-5,5
4733,-1,-15,989,-1,-4,4
4734,0,-15,990,-7,-4,5
4735,0,-13,991,-3,-4,5
4736,0,-15,991,-6,-5,4
4737,0,-15,990,-3,-4,5
4738,-2,-16,989,-4,-5,5
4739,0,-14,991,-3,-5,5
4740,0,-15,990,-3,-4,7
4741,0,-15,991,-4,-5,5
4742,-1,-12,990,-3,-4,6
4743,-1,-14,991,-5,-5,6
4744,0,-14,991,-4,-5,5
4745,-1,-13,990,-3,-4,4
4746,0,-15,990,-5,-5,4
4747,-2,-15,991,-5,-4,5
4748,0,-14,991,-4,-4,4
4749,-1,-15,992,-4,-4,5
4750,-1,-14,990,-5,-3,5
4751,-1,-13,992,-5,-4,6
4752,0,-13,991,-4,-5,4
4753,0,-14,990,-5,-5,5
4754,-1,-14,992,-4,-5,5
4755,0,-14,991,-6,-5,5
4756,-1,-15,991,-5,-5,5
4757,-1,-16,991,-5,-6,5
4758,0,-15,992,-3,-5,5
4759,0,-15,993,-5,-4,4
4760,0,-15,992,-5,-4,5
4761,-1,-13,992,-4,-4,5
4762,-1,-14,992,-5,-5,5
4763,0,-14,991,-3,-4,5
4764,0,-14,990,-5,-5,5
4765,1,-14,990,-5,-5,5
4766,-1,-15,991,-5,-4,7
4767,-1,-14,991,-5,-3,5
4768,0,-14,990,-5,-5,6
4769,0,-13,991,-5,-4,4
4770,-1,-13,992,-5,-4,5
4771,0,-13,990,-4,-4,4
4772,0,-14,990,-4,-6,5
4773,0,-14,992,-4,-5,5
4774,0,-14,991,-5,-4,5
4775,-1,-13,992,-4,-5,4
4776,-1,-14,991,-4,-6,6
4777,0,-16,991,-4,-5,6
4778,0,-13,990,-3,-4,5
4779,-1,-14,992,-4,-5,3
4780,0,-13,990,-3,-4,4
4781,-1,-15,991,-4,-5,4
4782,-1,-14,990,-4,-4,5
4783,0,-15,991,-5,-3,5
4784,0,-14,988,-5,-4,5
4785,-1,-12,992,-4,-4,4
4786,0,-14,990,-5,-4,5
4787,0,-14,991,-4,-4,6
4788,0,-14,992,-6,-5,5
4789,-1,-15,992,-4,-6,5
4790,0,-15,991,-3,-4,4
4791,-1,-16,992,-4,-3,5
4792,0,-14,990,-3,-5,6
4793,0,-15,990,-5,-5,5
4794,0,-15,991,-4,-4,6
4795,0,-13,991,-5,-5,5
4796,-1,-14,992,-5,-4,5
4797,0,-14,990,-4,-5,5
4798,0,-11,992,-5,-4,5
4799,0,-13,991,-5,-4,5
4800,0,-13,991,-6,-5,5
4801,0,-15,991,-5,-4,6
4802,-1,-14,991,-6,-4,5
4803,0,-13,992,-5,-5,5
4804,-2,-14,991,-4,-4,3
4805,-2,-14,991,-5,-5,4
4806,-1,-12,991,-4,-4,5
4807,0,-15,991,-4,-5,4
4808,0,-15,990,-3,-4,4
4809,0,-13,990,-5,-5,4
4810,0,-13,992,-6,-4,6
4811,0,-15,989,-6,-4,5
4812,0,-16,991,-4,-5,5
4813,1,-14,991,-4,-4,6
4814,0,-15,991,-5,-5,5
4815,0,-15,990,-5,-4,6
4816,-1,-13,991,-6,-5,6
4817,-2,-13,990,-4,-4,6
4818,-2,-13,991,-6,-5,3
4819,-1,-14,992,-4,-5,5
4820,0,-15,991,-5,-5,5
4821,0,-14,991,-4,-5,5
4822,-1,-14,990,-5,-5,5
4823,-1,-15,990,-4,-4,5
4824,-1,-14,989,-5,-6,4
4825,0,-13,992,-3,-5,5
4826,0,-13,992,-5,-4,5
4827,-1,-14,989,-4,-5,5
4828,-1,-14,989,-5,-3,4
4829,-1,-15,991,-4,-4,6
4830,-2,-15,990,-4,-4,5
4831,-3,-16,990,-4,-4,5
4832,-1,-15,990,-3,-4,5
4833,-1,-15,991,-5,-4,6
4834,0,-13,990,-4,-5,5
4835,0,-14,990,-5,-5,5
4836,0,-13,992,-4,-5,5
4837,0,-13,991,-5,-5,5
4838,-1,-13,991,-3,-5,4
4839,-1,-14,990,-4,-5,5
4840,0,-14,991,-4,-5,5
4841,0,-14,992,-4,-5,4
4842,0,-16,991,-3,-5,4
4843,0,-15,991,-4,-4,5
4844,-1,-13,991,-4,-4,5
4845,-2,-18,991,-3,-5,5
4846,-3,-16,990,-5,-4,4
4847,-1,-12,990,-2,-3,5
4848,0,-15,990,-6,-5,6
4849,0,-15,991,-4,-5,5
4850,0,-14,992,-6,-5,5
4851,0,-15,989,-5,-4,5
4852,0,-15,991,-4,-4,5
4853,-1,-14,991,-5,-4,5
4854,0,-15,992,-5,-5,4
4855,0,-14,990,-5,-6,4
4856,1,-14,992,-4,-5,5
4857,-1,-14,992,-6,-5,3
4858,0,-15,990,-4,-3,5
4859,0,-14,993,-4,-4,4
4860,-1,-15,991,-2,-4,5
4861,-2,-14,991,-5,-5,4
4862,0,-13,991,-5,-4,5
4863,0,-13,991,-4,-5,4
4864,0,-13,990,-5,-4,5
4865,0,-15,991,-4,-4,5
4866,0,-14,991,-6,-4,6
4867,-1,-17,991,-5,-5,6
4868,-1,-14,992,-7,-5,4
4869,0,-14,990,-4,-5,4
4870,-1,-15,991,-6,-5,4
4871,-1,-13,992,-5,-4,6
4872,-1,-14,990,-6,-5,5
4873,-1,-15,990,-5,-4,5
4874,-1,-15,990,-6,-5,4
4875,0,-14,991,-5,-5,4
4876,-1,-14,991,-4,-4,5
4877,0,-14,990,-6,-4,5
4878,0,-15,990,-3,-4,4
4879,0,-16,990,-5,-5,4
4880,0,-14,991,-3,-5,4
4881,0,-14,990,-5,-6,5
4882,0,-15,991,-4,-4,6
4883,0,-13,991,-4,-4,5
4884,-1,-13,989,-5,-4,5
4885,-2,-13,992,-5,-3,5
4886,-2,-14,991,-4,-4,6
4887,0,-14,989,-3,-5,5
4888,0,-13,991,-4,-3,5
4889,0,-15,990,-3,-3,5
4890,-1,-14,990,-4,-4,5
4891,0,-14,989,-4,-4,5
4892,1,-14,990,-5,-4,4
4893,0,-15,991,-3,-3,5
4894,0,-14,991,-4,-5,4
4895,-1,-14,990,-5,-4,5
4896,-1,-14,991,-5,-5,5
4897,0,-13,991,-5,-3,5
4898,0,-14,991,-5,-5,5
4899,0,-14,991,-4,-5,5
4900,-1,-15,992,-6,-4,5
4901,-1,-15,991,-5,-5,5
4902,-1,-15,991,-5,-5,5
4903,-2,-14,991,-5,-5,5
4904,1,-14,990,-3,-4,4
4905,0,-15,990,-5,-5,4
4906,0,-14,991,-4,-5,4
4907,0,-14,991,-5,-5,4
4908,3,-13,991,-5,-5,5
4909,1,-13,990,-5,-4,4
4910,0,-14,993,-4,-5,6
4911,0,-14,991,-5,-5,6
4912,-2,-14,991,-3,-3,5
4913,0,-15,989,-4,-4,5
4914,0,-14,991,-5,-3,5
4915,-1,-14,992,-6,-4,6
4916,0,-15,993,-6,-4,6
4917,0,-12,992,-5,-4,5
4918,0,-11,991,-7,-4,5
4919,1,-15,992,-5,-4,4
4920,0,-13,991,-7,-4,4
4921,-1,-13,991,-3,-4,5
4922,-1,-14,989,-5,-5,5
4923,2,-15,992,-4,-5,6
4924,0,-13,990,-6,-4,6
4925,-1,-15,992,-3,-4,6
4926,0,-14,991,-3,-4,4
4927,0,-13,992,-5,-5,5
4928,0,-13,991,-5,-4,5
4929,-2,-13,991,-8,-5,5
4930,0,-15,991,-4,-5,6
4931,-1,-14,990,-5,-4,5
4932,-1,-14,991,-5,-5,4
4933,0,-13,990,-6,-4,5
4934,0,-11,990,-4,-3,4
4935,-1,-13,991,-6,-5,5
4936,1,-14,989,-4,-3,4
4937,0,-14,991,-4,-4,6
4938,1,-15,991,-5,-4,4
4939,0,-14,990,-3,-4,4
4940,1,-15,989,-3,-4,4
4941,0,-14,991,-3,-4,5
4942,-2,-13,991,-4,-5,6
4943,-2,-16,990,-3,-4,5
4944,0,-15,991,-5,-4,5
4945,1,-16,991,-3,-4,4
4946,0,-13,989,-5,-4,4
4947,0,-13,990,-5,-5,5
4948,0,-15,991,-6,-5,5
4949,1,-12,991,-5,-5,5
4950,-2,-13,991,-5,-5,6
4951,-1,-14,992,-5,-4,4
4952,0,-14,990,-4,-5,5
4953,0,-13,991,-6,-5,5
4954,-3,-12,992,-5,-4,6
4955,-2,-15,991,-5,-5,5
4956,0,-16,990,-3,-4,5
4957,-1,-14,992,-5,-4,5
4958,0,-14,991,-3,-4,6
4959,0,-15,991,-6,-4,6
4960,0,-14,991,-5,-5,5
4961,0,-14,991,-4,-4,5
4962,0,-15,991,-5,-5,5
4963,1,-14,991,-4,-5,5
4964,0,-12,991,-6,-4,6
4965,2,-13,990,-6,-3,5
4966,0,-13,990,-5,-4,4
4967,-2,-13,990,-4,-5,5
4968,0,-15,991,-7,-4,5
4969,1,-15,990,-4,-5,5
4970,0,-15,990,-5,-6,5
4971,0,-15,990,-4,-4,4
4972,-1,-14,990,-5,-4,5
4973,0,-15,990,-3,-5,4
4974,-2,-15,990,-5,-5,3
4975,0,-15,992,-4,-4,4
4976,0,-13,991,-3,-4,5
4977,0,-13,991,-4,-3,5
4978,-1,-14,991,-4,-5,5
4979,0,-13,990,-6,-5,5
4980,0,-15,990,-5,-4,5
4981,0,-14,991,-7,-5,6
4982,-1,-14,990,-3,-5,4
4983,0,-15,991,-5,-4,5
4984,0,-13,990,-3,-4,5
4985,-1,-15,991,-5,-5,5
4986,-1,-14,989,-3,-4,5
4987,-1,-14,990,-6,-4,4
4988,0,-15,990,-2,-5,4
4989,1,-14,992,-4,-5,5
4990,0,-14,991,-4,-5,5
4991,-1,-16,993,-4,-5,6
4992,0,-14,991,-5,-4,6
4993,0,-11,992,-4,-4,6
4994,-1,-13,990,-5,-4,5
4995,0,-14,991,-4,-5,4
4996,0,-15,992,-6,-5,4
4997,0,-13,993,-3,-5,5
4998,0,-15,991,-5,-5,4
4999,-2,-15,992,-5,-5,4
5000,0,-16,990,-4,-4,5
5001,0,-12,991,-4,-4,4
5002,0,-15,991,-3,-4,5
5003,0,-13,990,-5,-5,6
5004,-2,-14,989,-5,-3,5
5005,0,-12,989,-5,-4,5
5006,0,-14,990,-4,-4,6
5007,0,-17,990,-6,-4,5
5008,-1,-16,990,-5,-4,5
5009,-2,-15,990,-6,-3,5
5010,-1,-16,991,-5,-4,5
5011,-1,-15,991,-5,-4,6
5012,0,-15,991,-6,-4,5
5013,-1,-13,991,-4,-4,5
5014,-1,-14,991,-5,-4,5
5015,-1,-13,990,-3,-4,5
5016,0,-13,991,-5,-5,5
5017,0,-14,991,-4,-5,4
5018,1,-15,991,-4,-4,4
5019,0,-16,991,-4,-4,5
5020,0,-15,991,-5,-4,4
5021,0,-14,989,-4,-4,4
5022,0,-14,992,-6,-4,5
5023,-1,-13,990,-5,-5,5
5024,0,-14,989,-5,-5,5
5025,-1,-13,992,-6,-5,6
5026,-1,-13,990,-5,-4,5
5027,-2,-15,991,-5,-4,6
5028,-1,-15,990,-5,-5,5
5029,-1,-15,990,-4,-5,5
5030,-1,-13,989,-4,-5,5
5031,-1,-14,990,-5,-5,4
5032,0,-14,990,-3,-5,5
5033,0,-13,991,-4,-5,5
5034,0,-11,990,-5,-4,5
5035,0,-14,990,-5,-4,5
5036,-1,-13,991,-3,-5,5
5037,0,-14,991,-4,-5,4
5038,0,-12,992,-4,-5,5
5039,0,-15,990,-7,-3,6
5040,0,-14,992,-4,-4,5
5041,-1,-14,990,-6,-5,5
5042,0,-14,991,-5,-5,5
5043,0,-14,990,-6,-4,4
5044,0,-14,990,-5,-5,6
5045,0,-15,990,-4,-5,5
5046,0,-15,991,-6,-5,4
5047,-1,-15,991,-4,-4,5
5048,-1,-13,990,-6,-3,5
5049,0,-12,991,-6,-4,5
5050,1,-16,990,-4,-5,7
5051,0,-13,991,-4,-4,4
5052,-1,-14,991,-4,-4,5
5053,-2,-14,990,-3,-5,5
5054,0,-12,991,-3,-4,5
5055,0,-15,991,-3,-4,4
5056,0,-12,993,-4,-5,5
5057,0,-14,992,-4,-4,5
5058,-1,-14,991,-2,-5,5
5059,-2,-12,991,-7,-5,4
5060,-2,-14,992,-3,-3,5
5061,-2,-14,991,-3,-3,5
5062,-1,-14,989,-4,-4,6
5063,0,-14,991,-2,-5,4
5064,0,-15,991,-5,-5,4
5065,0,-15,991,-3,-5,5
5066,0,-15,990,-8,-6,5
5067,0,-13,990,-2,-5,5
5068,0,-12,993,-7,-6,5
5069,1,-15,989,-2,-5,4
5070,0,-12,993,-7,-4,5
5071,-1,-13,990,-3,-5,5
5072,0,-13,990,-5,-5,5
5073,0,-15,989,-3,-5,5
5074,0,-13,991,-5,-5,5
5075,0,-14,990,-3,-5,5
5076,0,-13,992,-3,-3,5
5077,0,-12,990,-4,-4,5
5078,-1,-13,991,-3,-4,4
5079,0,-12,991,-5,-3,5
5080,-1,-15,992,-5,-4,6
5081,-1,-14,990,-4,-4,5
5082,-1,-15,988,-4,-4,6
5083,0,-13,992,-5,-4,4
5084,-1,-16,991,-6,-4,5
5085,-2,-16,991,-6,-3,6
5086,0,-14,989,-6,-5,4
5087,0,-14,992,-4,-5,5
5088,1,-14,989,-4,-3,6
5089,0,-12,993,-3,-5,6
5090,0,-13,988,-4,-4,5
5091,0,-14,991,-4,-5,4
5092,0,-14,989,-4,-4,5
5093,-1,-14,992,-4,-3,5
5094,0,-16,988,-5,-4,6
5095,-1,-16,992,-5,-4,5
5096,-1,-15,991,-4,-4,5
5097,0,-13,992,-5,-5,5
5098,0,-14,991,-5,-5,4
5099,0,-16,990,-5,-5,5
5100,1,-13,991,-3,-5,5
5101,0,-13,991,-7,-5,5
5102,0,-13,992,-5,-4,5
5103,1,-15,990,-5,-5,5
5104,0,-14,991,-3,-5,5
5105,0,-14,991,-5,-6,4
5106,-1,-14,991,-4,-5,5
5107,0,-16,989,-4,-4,4
5108,0,-14,991,-4,-3,5
5109,0,-14,990,-4,-4,6
5110,0,-15,992,-5,-4,6
5111,0,-14,990,-4,-4,5
5112,1,-15,992,-5,-5,4
5113,-1,-14,990,-5,-5,5
5114,0,-15,991,-5,-5,6
5115,0,-14,990,-4,-4,5
5116,-2,-13,992,-5,-5,4
5117,0,-16,991,-4,-5,5
5118,1,-15,990,-5,-4,5
5119,-1,-14,992,-3,-5,5
5120,0,-14,990,-5,-5,5
5121,0,-13,992,-4,-3,5
5122,-1,-14,991,-5,-3,5
5123,-2,-14,989,-5,-4,5
5124,0,-14,992,-4,-4,5
5125,0,-15,991,-6,-5,5
5126,0,-16,989,-6,-5,5
5127,0,-15,992,-6,-4,4
5128,0,-17,989,-5,-5,5
5129,0,-14,991,-6,-5,5
5130,0,-13,990,-1,-4,4
5131,0,-13,992,-5,-4,5
5132,0,-14,990,-4,-4,5
5133,-1,-12,992,-4,-4,5
5134,0,-14,990,-3,-5,5
5135,1,-14,990,-5,-4,5
5136,1,-13,991,-5,-5,5
5137,-1,-14,990,-5,-5,5
5138,-2,-15,991,-4,-6,4
5139,-1,-14,989,-4,-5,5
5140,-1,-13,992,-4,-4,5
5141,0,-14,990,-4,-4,6
5142,0,-12,992,-5,-5,5
5143,-1,-13,991,-4,-5,5
5144,0,-13,992,-5,-4,6
5145,-1,-13,991,-4,-4,5
5146,-1,-15,990,-6,-4,6
5147,-1,-14,990,-4,-5,5
5148,0,-14,992,-6,-4,5
5149,-1,-15,990,-4,-4,4
5150,0,-14,990,-6,-4,4
5151,1,-15,990,-5,-5,5
5152,0,-14,991,-5,-5,5
5153,-1,-14,991,-3,-4,5
5154,0,-14,992,-3,-4,4
5155,0,-13,991,-5,-4,6
5156,0,-15,991,-5,-4,5
5157,0,-14,990,-5,-5,4
5158,0,-13,992,-4,-5,5
5159,0,-14,989,-4,-5,5
5160,0,-11,992,-3,-4,5
5161,0,-11,990,-4,-4,5
5162,0,-13,991,-5,-4,6
5163,-1,-14,991,-4,-5,4
5164,-1,-16,991,-4,-4,4
5165,0,-13,992,-5,-4,5
5166,-1,-15,989,-5,-3,5
5167,-2,-17,991,-7,-4,5
5168,0,-14,990,-5,-5,5
5169,-1,-13,989,-7,-4,4
5170,-1,-14,990,-3,-4,5
5171,-1,-14,990,-4,-5,6
5172,0,-14,992,-4,-6,5
5173,0,-13,991,-5,-5,6
5174,0,-12,992,-4,-4,5
5175,-1,-13,989,-5,-3,5
