sequence,AccelerometerX,AccelerometerY,AccelerometerZ,GyroscopeX,GyroscopeY,GyroscopeZ
0,3,32,997,-13,2,-3
1,0,30,997,-13,1,-3
2,1,32,995,-14,2,-3
3,1,31,997,-13,0,-3
4,3,32,997,-11,0,-4
5,3,30,998,-11,-1,-2
6,3,32,996,-38,2,0
7,2,33,998,-14,1,-4
8,0,32,995,-13,1,-3
9,0,31,997,-13,1,-2
10,2,30,996,-15,0,-3
11,3,32,996,-15,1,-2
12,3,32,997,-14,0,-3
13,2,31,996,-13,2,-3
14,1,34,996,-15,0,-3
15,0,31,996,-15,0,-3
16,2,30,996,-14,-1,-2
17,2,32,996,-15,1,-2
18,2,31,996,-14,1,-3
19,2,30,998,-14,1,-3
20,2,31,997,-15,0,-4
21,3,30,997,-15,0,-3
22,2,32,996,-15,0,-3
23,2,32,997,-14,1,-3
24,1,31,996,-14,1,-4
25,2,30,997,-15,2,-3
26,1,32,998,-14,0,-4
27,1,31,996,-13,1,-2
28,2,32,997,-16,1,-3
29,1,30,997,-14,1,-3
30,1,32,996,-14,1,-4
31,0,31,997,-14,1,-3
32,1,33,997,-15,0,-3
33,1,31,996,-13,0,-3
34,1,30,996,-13,1,-3
35,1,30,998,-14,0,-2
36,2,31,996,-13,1,-2
37,3,32,997,-15,1,-3
38,2,30,997,-15,1,-3
39,1,28,998,-13,0,-3
40,2,29,998,-14,1,-3
41,0,32,996,-13,1,-3
42,0,32,997,-15,0,-3
43,0,31,997,-15,0,-2
44,1,33,996,-14,1,-3
45,0,33,998,-13,1,-3
46,1,31,998,-15,1,-4
47,2,32,998,-14,2,-3
48,1,30,997,-14,0,-3
49,2,31,997,-15,1,-3
50,1,29,997,-12,2,-3
51,2,31,997,-14,1,-4
52,2,31,998,-14,0,-3
53,-1,32,998,-13,1,-2
54,1,31,998,-13,1,-3
55,1,32,998,-14,1,-2
56,3,31,997,-14,2,-3
57,3,31,998,-15,1,-3
58,3,32,997,-12,1,-3
59,2,32,996,-12,1,-4
60,1,32,997,-14,1,-3
61,2,30,995,-14,1,-3
62,2,30,997,-16,1,-4
63,3,31,998,-15,0,-3
64,3,30,997,-14,2,-4
65,4,31,997,-14,1,-4
66,2,31,997,-13,0,-3
67,1,31,996,-15,0,-3
68,2,32,995,-14,0,-2
69,2,31,998,-14,1,-2
70,1,31,997,-15,1,-3
71,2,32,998,-14,1,-4
72,0,31,996,-15,1,-3
73,4,31,997,-16,1,-2
74,2,31,997,-14,1,-3
75,1,29,996,-15,0,-2
76,2,32,997,-14,0,-3
77,1,31,997,-14,0,-3
78,2,31,996,-15,0,-3
79,2,33,997,-14,0,-2
80,2,32,998,-14,0,-3
81,2,32,997,-13,0,-3
82,2,30,997,-15,1,-3
83,0,32,997,-15,0,-3
84,4,31,998,-13,1,-4
85,1,31,997,-14,2,-3
86,2,31,998,-13,2,-2
87,0,32,997,-15,2,-3
88,3,32,995,-14,0,-3
89,4,32,996,-14,0,-3
90,2,32,997,-15,2,-3
91,1,29,997,-14,1,-3
92,2,30,997,-14,0,-3
93,2,31,997,-14,0,-5
94,2,31,996,-14,0,-5
95,4,33,998,-15,0,-4
96,3,31,996,-16,1,-3
97,0,29,997,-14,2,-3
98,1,32,996,-15,2,-3
99,2,31,997,-16,1,-3
100,1,32,997,-13,1,-4
101,2,30,998,-15,0,-3
102,2,31,999,-14,0,-3
103,2,32,996,-13,1,-3
104,1,31,997,-14,1,-3
105,0,30,997,-13,1,-3
106,0,32,998,-15,1,-3
107,1,31,997,-14,1,-3
108,1,30,998,-15,0,-2
109,2,31,998,-14,1,-3
110,1,31,998,-13,1,-3
111,1,33,999,-14,0,-3
112,1,31,998,-11,0,-3
113,2,32,998,-13,2,-2
114,1,31,997,-15,1,-3
115,0,30,997,-15,1,-4
116,2,29,997,-16,0,-4
117,4,30,998,-15,1,-3
118,2,31,999,-12,1,-2
119,2,30,997,-13,1,-4
120,3,32,997,-12,0,-4
121,0,32,997,-15,0,-3
122,1,32,998,-14,0,-3
123,2,33,996,-12,0,-3
124,2,33,997,-14,1,-2
125,2,32,996,-12,0,-3
126,2,31,997,-13,0,-2
127,3,32,996,-14,-1,-3
128,4,31,997,-15,0,-3
129,4,33,998,-13,2,-3
130,2,31,998,-15,1,-3
131,1,32,999,-14,0,-3
132,2,29,996,-15,0,-3
133,3,31,997,-13,0,-3
134,2,30,998,-13,0,-3
135,2,31,998,-13,-1,-3
136,2,32,997,-15,1,-2
137,0,31,996,-16,1,-3
138,1,32,998,-14,0,-4
139,1,33,997,-13,1,-4
140,2,33,998,-15,1,-3
141,1,32,997,-13,1,-4
142,2,31,997,-13,1,-3
143,2,30,998,-14,0,-2
144,2,31,996,-14,0,-3
145,1,32,997,-15,0,-2
146,2,29,997,-15,-1,-3
147,0,30,997,-14,2,-3
148,4,30,995,-15,0,-3
149,3,30,996,-16,0,-2
150,3,30,998,-14,2,-3
151,2,32,996,-15,2,-3
152,2,31,996,-13,1,-4
153,2,32,998,-15,1,-3
154,1,31,996,-14,2,-2
155,2,33,997,-12,0,-2
156,4,32,997,-15,2,-2
157,3,33,998,-13,2,-3
158,2,33,997,-15,0,-3
159,2,30,997,-14,2,-3
160,1,31,997,-13,1,-3
161,0,33,998,-13,0,-3
162,1,31,997,-13,0,-3
163,2,33,998,-14,1,-3
164,3,33,996,-13,0,-4
165,1,31,997,-14,0,-4
166,0,32,998,-14,2,-3
167,1,31,997,-14,2,-3
168,1,31,996,-13,1,-3
169,2,32,998,-14,1,-3
170,0,32,997,-14,2,-2
171,0,32,997,-15,1,-4
172,1,32,995,-13,1,-4
173,3,33,997,-14,1,-3
174,1,31,997,-16,1,-2
175,0,32,998,-13,0,-3
176,1,30,997,-16,1,-3
177,2,31,996,-15,1,-3
178,2,32,997,-15,1,-2
179,2,32,997,-13,1,-2
180,2,33,996,-14,0,-3
181,2,32,996,-13,0,-4
182,2,32,996,-14,1,-4
183,2,31,997,-16,1,-3
184,2,32,996,-15,1,-3
185,3,33,997,-12,0,-3
186,3,32,997,-14,0,-3
187,3,30,997,-13,1,-3
188,5,30,997,-14,1,-3
189,4,31,998,-15,0,-3
190,4,31,1000,-14,1,-3
191,2,29,996,-16,1,-3
192,2,29,996,-15,1,-3
193,1,31,998,-14,1,-4
194,1,29,998,-14,0,-5
195,1,31,997,-14,1,-4
196,3,32,998,-15,1,-3
197,0,31,998,-15,1,-3
198,0,31,997,-14,0,-4
199,2,31,998,-15,0,-3
200,0,31,996,-16,1,-3
201,0,30,998,-15,1,-3
202,2,30,998,-15,2,-3
203,1,31,997,-15,1,-3
204,1,31,998,-13,-1,-4
205,0,31,997,-15,0,-2
206,1,30,998,-14,1,-3
207,1,30,997,-14,0,-3
208,2,32,996,-13,0,-3
209,1,32,996,-12,1,-3
210,1,31,998,-14,1,-3
211,0,31,997,-13,0,-3
212,0,29,996,-14,-1,-2
213,1,30,997,-15,1,-1
214,1,32,998,-15,-1,-3
215,2,31,998,-13,0,-4
216,0,31,998,-15,0,-4
217,1,31,998,-14,1,-3
218,2,30,998,-13,2,-3
219,2,30,999,-12,1,-4
220,1,30,997,-14,1,-4
221,2,31,997,-13,1,-3
222,3,32,998,-14,1,-3
223,3,31,997,-13,1,-3
224,3,32,997,-15,1,-3
225,2,30,997,-16,0,-4
226,1,30,997,-13,-1,-4
227,1,33,997,-14,0,-3
228,3,31,998,-15,0,-3
229,3,31,996,-15,0,-3
230,2,31,996,-15,1,-2
231,2,33,999,-15,1,-3
232,1,32,998,-14,1,-4
233,3,33,997,-13,1,-3
234,2,30,997,-14,2,-3
235,2,31,997,-15,1,-3
236,2,31,995,-13,2,-3
237,2,31,996,-16,1,-3
238,4,33,996,-14,1,-4
239,2,31,996,-16,0,-5
240,2,31,997,-14,-1,-4
241,2,32,998,-13,1,-3
242,3,31,999,-13,1,-3
243,2,31,996,-13,0,-4
244,1,33,996,-14,1,-4
245,1,30,996,-15,0,-4
246,0,30,997,-14,0,-4
247,0,31,997,-16,0,-3
248,0,31,997,-13,2,-4
249,3,32,995,-15,0,-3
250,2,30,996,-14,0,-3
251,1,29,996,-14,1,-3
252,2,30,996,-14,0,-4
253,0,32,996,-14,1,-4
254,1,31,996,-17,1,-4
255,1,31,997,-14,1,-2
256,2,31,997,-15,1,-2
257,0,32,997,-13,1,-3
258,0,31,998,-13,1,-4
259,1,31,997,-15,1,-2
260,3,30,996,-15,1,-3
261,1,31,995,-14,1,-3
262,1,30,998,-16,1,-4
263,0,30,996,-14,1,-3
264,1,30,998,-16,0,-3
265,1,32,997,-16,0,-3
266,1,31,997,-12,1,-3
267,0,31,997,-15,1,-3
268,1,32,998,-14,1,-3
269,0,32,997,-12,0,-3
270,2,30,996,-14,1,-3
271,2,31,997,-14,1,-3
272,1,30,996,-14,1,-3
273,3,31,999,-15,1,-2
274,2,31,998,-15,1,-4
275,1,31,997,-15,1,-3
276,2,32,995,-14,0,-3
277,2,30,996,-14,1,-3
278,2,30,997,-14,0,-3
279,0,32,997,-13,0,-3
280,1,30,998,-13,1,-3
281,1,30,997,-14,2,-3
282,2,32,997,-14,0,-2
283,2,31,997,-13,2,-3
284,3,30,997,-13,1,-4
285,2,29,998,-14,0,-4
286,3,31,999,-13,0,-4
287,1,30,998,-14,0,-2
288,2,30,998,-13,0,-3
289,2,31,998,-13,1,-3
290,1,31,996,-13,1,-3
291,3,30,998,-14,0,-3
292,2,33,997,-14,1,-3
293,1,31,997,-12,1,-3
294,3,30,997,-15,1,-3
295,1,32,997,-13,1,-3
296,0,31,998,-14,0,-3
297,4,33,998,-15,1,-2
298,3,31,998,-15,3,-3
299,1,31,998,-13,1,-4
300,2,31,998,-15,1,-3
301,0,31,998,-15,1,-3
302,2,31,997,-15,1,-4
303,3,32,997,-15,1,-3
304,3,33,998,-13,2,-3
305,1,32,998,-15,1,-3
306,0,32,998,-15,2,-2
307,3,32,997,-15,1,-3
308,2,32,997,-16,0,-3
309,1,31,996,-13,1,-3
310,0,33,996,-14,1,-3
311,3,31,995,-15,1,-3
312,3,31,997,-14,1,-3
313,2,32,998,-14,0,-4
314,0,30,998,-13,0,-3
315,1,30,997,-13,1,-3
316,3,31,996,-14,1,-4
317,1,31,997,-14,1,-3
318,2,31,995,-14,1,-3
319,3,30,997,-14,1,-3
320,2,31,996,-13,1,-3
321,2,30,997,-16,2,-3
322,1,30,998,-14,1,-3
323,1,30,996,-13,1,-3
324,2,31,997,-14,1,-3
325,1,32,996,-15,1,-3
326,2,30,998,-13,2,-3
327,1,31,996,-13,2,-3
328,0,30,996,-13,1,-3
329,1,31,996,-13,0,-3
330,1,31,996,-12,0,-3
331,0,31,996,-14,-1,-3
332,1,31,998,-14,1,-4
333,3,32,996,-15,1,-4
334,2,30,997,-14,1,-2
335,3,30,996,-13,0,-4
336,2,29,996,-14,1,-3
337,2,29,996,-14,1,-2
338,1,31,997,-12,0,-3
339,2,31,998,-14,0,-4
340,2,32,997,-15,1,-3
341,3,31,996,-12,2,-3
342,2,32,997,-13,1,-2
343,0,32,996,-18,1,-3
344,0,32,997,-14,1,-3
345,0,31,997,-13,1,-3
346,1,33,996,-15,1,-2
347,2,33,996,-13,0,-3
348,1,31,996,-14,1,-3
349,2,31,997,-14,1,-4
350,2,33,996,-12,1,-4
351,0,31,997,-16,1,-3
352,3,31,998,-15,1,-2
353,2,32,997,-13,1,-2
354,2,31,997,-15,1,-3
355,1,32,997,-14,1,-2
356,1,31,996,-14,1,-2
357,2,30,997,-14,1,-3
358,2,32,996,-15,1,-3
359,1,30,998,-16,0,-3
360,2,32,998,-15,0,-3
361,2,31,999,-13,0,-4
362,3,31,998,-15,0,-3
363,1,31,996,-13,1,-2
364,1,32,997,-14,1,-3
365,1,32,998,-14,1,-5
366,3,32,997,-14,1,-2
367,1,31,998,-15,2,-2
368,-1,31,996,-14,1,-3
369,1,32,996,-14,1,-3
370,3,32,997,-14,2,-2
371,3,33,997,-14,3,-3
372,2,32,998,-13,1,-3
373,3,31,998,-13,1,-2
374,3,29,997,-15,1,-2
375,1,31,998,-14,-1,-3
376,1,30,998,-11,0,-2
377,4,31,997,-14,1,-4
378,1,31,998,-14,2,-3
379,3,32,999,-13,0,-4
380,2,31,998,-14,1,-4
381,0,29,997,-13,-1,-4
382,2,29,997,-13,0,-4
383,2,30,997,-15,1,-2
384,2,31,997,-14,1,-2
385,2,31,997,-14,1,-3
386,0,31,997,-15,1,-2
387,0,31,997,-14,3,-3
388,1,30,997,-14,1,-3
389,1,30,996,-13,0,-3
390,1,30,996,-14,0,-3
391,0,32,996,-14,0,-3
392,0,32,996,-14,1,-2
393,-1,32,996,-15,2,-2
394,3,30,996,-13,2,-3
395,1,32,998,-13,1,-4
396,1,31,998,-13,1,-4
397,1,31,996,-14,1,-4
398,1,29,997,-15,2,-2
399,1,29,999,-15,0,-3
400,3,32,998,-14,0,-2
401,4,31,997,-15,1,-3
402,3,30,996,-12,1,-4
403,1,32,996,-13,2,-2
404,3,33,996,-13,2,-3
405,3,31,997,-15,0,-4
406,3,31,996,-15,1,-4
407,2,30,998,-14,1,-3
408,5,30,998,-15,2,-4
409,2,30,997,-13,2,-4
410,1,32,998,-14,0,-3
411,2,32,996,-13,1,-3
412,1,32,997,-13,0,-3
413,2,30,997,-14,1,-2
414,3,31,996,-13,1,-3
415,1,33,995,-14,1,-3
416,1,31,998,-14,1,-3
417,2,31,996,-14,1,-3
418,1,30,996,-15,2,-3
419,0,31,996,-16,1,-3
420,2,32,996,-14,1,-3
421,1,31,998,-17,1,-4
422,0,31,998,-14,2,-4
423,1,30,998,-12,2,-4
424,3,31,998,-16,1,-3
425,3,32,998,-14,1,-3
426,3,31,997,-14,1,-2
427,2,32,998,-15,2,-4
428,2,30,997,-12,1,-4
429,3,30,997,-15,2,-3
430,2,32,998,-14,1,-2
431,1,31,996,-15,0,-2
432,4,30,995,-15,0,-3
433,1,31,998,-14,1,-3
434,1,33,997,-16,1,-3
435,2,32,996,-14,1,-3
436,1,31,997,-14,1,-5
437,3,31,998,-14,2,-3
438,1,30,996,-14,2,-3
439,2,31,998,-15,2,-4
440,3,30,997,-15,1,-4
441,2,32,998,-13,1,-5
442,0,31,997,-14,1,-4
443,1,32,997,-12,1,-3
444,2,31,997,-14,2,-4
445,3,30,997,-14,1,-4
446,2,31,997,-14,1,-3
447,3,30,998,-15,2,-3
448,2,30,998,-14,1,-3
449,1,31,997,-13,2,-3
450,1,33,997,-13,2,-3
451,1,30,997,-13,0,-2
452,1,31,996,-12,2,-3
453,4,31,997,-15,3,-3
454,1,31,999,-13,2,-3
455,1,30,998,-14,3,-4
456,1,30,998,-15,2,-3
457,2,32,998,-13,2,-4
458,1,31,997,-15,2,-3
459,2,32,996,-13,2,-3
460,3,30,997,-14,2,-2
461,3,30,997,-15,2,-2
462,2,32,998,-14,1,-2
463,1,30,997,-14,1,-3
464,3,31,996,-15,2,-3
465,2,32,997,-13,1,-4
466,4,32,995,-14,1,-4
467,2,31,997,-13,2,-2
468,2,31,997,-13,2,-2
469,1,31,997,-16,1,-4
470,1,31,997,-13,1,-4
471,2,31,996,-15,1,-3
472,4,31,996,-13,2,-3
473,2,32,998,-15,2,-3
474,3,31,997,-14,2,-3
475,3,32,996,-15,3,-3
476,0,32,996,-16,1,-3
477,0,31,996,-13,1,-3
478,0,31,997,-13,0,-3
479,0,32,998,-14,1,-3
480,0,31,996,-14,2,-4
481,1,29,996,-15,2,-4
482,0,30,999,-13,0,-3
483,0,29,997,-13,1,-3
484,2,31,996,-14,1,-2
485,2,31,997,-13,0,-3
486,0,33,997,-14,1,-3
487,2,31,998,-15,1,-4
488,0,31,997,-13,1,-3
489,3,31,997,-14,1,-3
490,2,33,995,-15,2,-3
491,2,32,996,-13,2,-3
492,3,30,997,-16,2,-3
493,0,31,998,-13,2,-3
494,0,32,998,-14,2,-2
495,-2,29,997,-16,1,-2
496,0,29,996,-12,2,-3
497,1,30,999,-13,1,-2
498,2,30,996,-13,1,-3
499,1,32,995,-12,1,-2
500,2,33,996,-14,0,-3
501,2,32,996,-13,1,-2
502,0,31,996,-15,1,-4
503,2,29,997,-14,1,-2
504,2,30,997,-14,0,-2
505,3,30,996,-13,1,-4
506,5,32,997,-14,2,-2
507,3,31,995,-15,2,-2
508,3,34,998,-14,1,-3
509,2,33,997,-15,0,-4
510,4,33,998,-15,-1,-4
511,2,31,998,-13,1,-2
512,1,31,998,-15,1,-2
513,4,30,998,-14,1,-3
514,4,32,996,-14,1,-4
515,1,31,997,-15,1,-4
516,3,32,996,-15,2,-3
517,1,33,997,-14,1,-4
518,0,31,997,-13,1,-4
519,2,31,996,-14,1,-4
520,1,31,998,-14,1,-4
521,1,31,999,-14,1,-3
522,1,29,997,-11,1,-4
523,0,30,996,-13,2,-4
524,2,32,997,-13,0,-4
525,1,32,998,-15,0,-2
526,3,32,997,-15,0,-3
527,3,31,997,-15,1,-4
528,3,30,997,-15,1,-3
529,3,33,996,-15,0,-4
530,2,32,997,-13,-1,-3
531,1,31,996,-12,1,-3
532,1,34,997,-13,2,-3
533,1,32,997,-15,1,-3
534,1,34,997,-14,1,-3
535,2,30,997,-14,0,-4
536,2,29,997,-14,1,-4
537,2,31,998,-13,0,-3
538,3,30,998,-14,2,-2
539,2,32,997,-13,2,-2
540,2,32,997,-15,1,-3
541,1,30,998,-14,2,-4
542,1,30,997,-16,2,-4
543,2,32,998,-14,1,-4
544,1,30,997,-15,1,-3
545,1,32,997,-15,1,-3
546,1,30,997,-14,1,-4
547,1,30,997,-14,1,-4
548,0,30,997,-15,0,-3
549,1,31,997,-14,0,-2
550,1,29,997,-14,1,-3
551,1,30,997,-15,2,-4
552,3,29,997,-13,2,-3
553,1,31,998,-15,0,-3
554,1,31,997,-13,2,-2
555,0,31,997,-14,2,-2
556,2,32,997,-15,0,-3
557,1,30,996,-11,0,-3
558,1,32,998,-13,1,-4
559,3,30,998,-15,1,-3
560,3,32,997,-14,2,-3
561,4,32,996,-15,0,-3
562,3,32,996,-14,0,-2
563,0,31,995,-13,1,-3
564,0,31,997,-13,1,-3
565,1,31,997,-14,1,-3
566,1,32,997,-14,1,-2
567,1,31,997,-14,0,-3
568,0,32,997,-14,-1,-3
569,2,33,995,-14,0,-2
570,0,33,998,-15,2,-3
571,2,33,996,-15,1,-4
572,1,34,995,-16,-1,-3
573,2,32,997,-15,0,-3
574,0,31,996,-14,-1,-3
575,4,31,996,-14,0,-4
576,2,32,996,-14,1,-4
577,0,31,995,-13,1,-3
578,1,31,997,-15,1,-3
579,1,31,997,-15,2,-2
580,2,31,998,-16,1,-3
581,3,29,998,-15,1,-4
582,2,30,998,-15,2,-3
583,2,31,996,-14,1,-4
584,4,32,997,-13,0,-4
585,1,29,997,-13,0,-4
586,1,32,997,-14,1,-4
587,0,31,998,-12,1,-3
588,2,30,998,-14,0,-3
589,2,30,997,-15,1,-3
590,2,31,997,-12,1,-2
591,2,32,997,-14,2,-4
592,3,32,998,-13,2,-3
593,2,29,997,-14,1,-2
594,2,31,996,-15,0,-3
595,1,32,998,-12,0,-3
596,3,33,998,-14,1,-3
597,2,32,996,-14,2,-3
598,3,31,997,-15,1,-2
599,1,33,997,-14,1,-3
600,1,32,997,-15,1,-3
601,1,30,997,-15,1,-3
602,3,31,996,-13,0,-4
603,2,31,996,-13,1,-4
604,1,32,998,-15,0,-4
605,2,32,997,-15,1,-3
606,3,33,998,-14,0,-2
607,0,31,998,-14,0,-2
608,0,31,996,-14,2,-3
609,3,32,997,-15,2,-2
610,2,32,997,-14,0,-3
611,2,33,998,-13,2,-3
612,1,32,998,-13,2,-3
613,2,32,997,-14,0,-3
614,1,32,996,-15,0,-3
615,3,32,998,-15,1,-3
616,1,31,997,-15,1,-3
617,2,33,997,-13,1,-2
618,1,31,997,-14,0,-3
619,1,30,998,-16,-1,-2
620,1,30,998,-14,0,-4
621,0,30,997,-15,1,-3
622,4,30,998,-14,1,-3
623,2,31,997,-12,1,-3
624,2,33,996,-14,1,-4
625,2,33,996,-14,0,-2
626,2,31,996,-14,1,-4
627,3,30,996,-13,1,-3
628,2,32,996,-13,1,-3
629,2,32,998,-14,0,-2
630,1,30,996,-15,1,-3
631,0,32,996,-15,0,-4
632,1,32,996,-16,1,-4
633,0,29,997,-14,1,-3
634,2,30,998,-14,1,-3
635,0,30,997,-13,0,-3
636,3,31,997,-14,0,-3
637,1,31,996,-13,1,-3
638,3,31,997,-13,1,-3
639,1,32,997,-13,0,-3
640,2,31,996,-13,0,-3
641,2,32,996,-14,2,-2
642,1,32,996,-14,0,-3
643,1,33,996,-12,1,-3
644,2,33,997,-14,1,-3
645,1,32,997,-13,1,-3
646,1,33,997,-15,1,-3
647,3,31,996,-13,3,-4
648,1,31,996,-14,1,-3
649,0,33,998,-16,1,-4
650,0,31,996,-13,0,-3
651,1,30,997,-14,0,-3
652,1,32,997,-15,1,-2
653,1,34,996,-13,2,-2
654,1,31,996,-14,1,-2
655,0,30,998,-15,2,-2
656,2,30,997,-14,1,-3
657,2,31,997,-14,1,-2
658,1,31,996,-12,0,-2
659,1,31,996,-13,1,-3
660,2,31,998,-13,1,-4
661,2,30,999,-13,1,-2
662,2,30,997,-13,0,-3
663,1,31,997,-15,0,-3
664,3,31,996,-12,2,-3
665,2,32,996,-15,1,-3
666,1,31,998,-14,0,-4
667,1,31,996,-13,1,-4
668,3,32,998,-14,1,-4
669,3,31,995,-13,1,-4
670,1,30,998,-14,1,-4
671,1,31,997,-14,2,-2
672,2,32,998,-15,0,-2
673,5,32,997,-15,2,-2
674,2,31,998,-14,1,-3
675,1,31,998,-15,0,-3
676,2,30,998,-15,-1,-3
677,0,30,997,-13,0,-4
678,1,30,996,-13,0,-3
679,2,31,996,-14,0,-3
680,3,31,997,-14,1,-4
681,2,32,997,-15,-1,-5
682,4,32,999,-6,1,-4
683,3,32,997,-15,1,-3
684,3,31,996,-16,-1,-3
685,0,31,997,-10,1,-3
686,1,31,998,-15,1,-3
687,2,33,997,-14,1,-3
688,0,31,997,-12,1,-3
689,1,30,997,-16,1,-3
690,1,31,999,-12,0,-3
691,2,31,997,-14,0,-3
692,2,31,998,-15,1,-3
693,1,32,996,-12,2,-3
694,2,31,997,-15,1,-4
695,1,31,998,-13,0,-3
696,2,32,997,-16,0,-3
697,3,31,997,-14,1,-3
698,2,30,997,-12,1,-4
699,1,32,997,-15,2,-3
700,1,31,999,-13,1,-4
701,1,32,998,-14,0,-4
702,2,31,996,-13,1,-4
703,1,30,997,-14,1,-4
704,2,31,998,-14,0,-3
705,3,32,998,-15,1,-3
706,2,30,997,-13,1,-4
707,0,32,996,-12,1,-3
708,0,30,997,-12,1,-3
709,2,31,997,-14,1,-3
710,2,32,996,-15,1,-3
711,0,30,996,-13,0,-3
712,1,30,996,-13,0,-3
713,3,29,997,-15,1,-3
714,1,30,996,-13,1,-4
715,3,32,997,-15,2,-3
716,2,32,996,-15,1,-3
717,2,31,996,-13,1,-3
718,2,31,998,-14,1,-3
719,2,32,998,-14,1,-3
720,0,32,996,-16,1,-3
721,0,31,996,-15,1,-3
722,2,31,996,-13,1,-3
723,2,30,999,-14,1,-3
724,1,30,996,-13,0,-4
725,3,31,997,-13,1,-2
726,2,31,997,-14,1,-2
727,1,32,997,-16,1,-3
728,1,32,997,-14,2,-5
729,2,31,998,-16,2,-4
730,1,30,997,-14,1,-5
731,1,31,998,-15,2,-4
732,1,30,997,-14,2,-3
733,2,31,998,-14,2,-2
734,2,32,997,-13,0,-3
735,1,32,996,-13,1,-4
736,1,32,997,-14,0,-4
737,2,31,996,-15,0,-4
738,2,32,997,-13,0,-3
739,4,31,997,-14,1,-4
740,3,31,996,-14,0,-4
741,3,31,998,-14,0,-4
742,2,31,997,-16,2,-2
743,2,31,997,-16,1,-4
744,2,31,997,-15,0,-4
745,3,31,998,-14,1,-3
746,1,29,998,-13,2,-4
747,2,31,996,-14,1,-3
748,1,31,997,-14,1,-2
749,0,32,997,-14,-1,-3
750,2,31,997,-14,0,-3
751,2,33,997,-14,0,-4
752,1,30,998,-14,1,-4
753,1,31,996,-15,2,-4
754,0,31,999,-14,1,-4
755,2,32,998,-13,1,-2
756,3,34,998,-13,0,-4
757,2,32,997,-12,1,-3
758,3,30,997,-14,1,-3
759,2,32,996,-16,1,-2
760,3,31,997,-15,2,-2
761,1,30,998,-15,2,-3
762,2,30,998,-16,1,-3
763,0,31,997,-14,1,-3
764,1,32,997,-13,0,-3
765,1,32,999,-12,3,-2
766,0,33,997,-14,0,-3
767,1,30,997,-14,-1,-4
768,1,30,997,-16,1,-3
769,2,30,999,-16,0,-3
770,2,31,997,-15,1,-4
771,2,31,998,-15,1,-3
772,1,31,996,-13,1,-4
773,1,30,997,-16,1,-2
774,3,32,999,-14,1,-4
775,3,32,996,-14,2,-2
776,2,32,997,-14,1,-3
777,1,32,997,-13,0,-3
778,1,33,998,-14,0,-3
779,0,31,998,-13,1,-3
780,2,31,997,-13,0,-4
781,1,31,995,-15,1,-4
782,2,31,996,-13,0,-3
783,2,30,996,-14,1,-3
784,1,30,997,-12,1,-2
785,2,30,997,-12,0,-3
786,3,30,998,-13,1,-4
787,2,32,997,-14,1,-3
788,1,32,998,-13,2,-2
789,0,33,997,-13,3,-3
790,2,31,998,-15,2,-2
791,3,31,997,-14,0,-3
792,1,30,998,-14,1,-4
793,2,33,997,-14,1,-3
794,3,31,997,-13,1,-3
795,2,31,997,-15,2,-3
796,0,31,996,-14,0,-3
797,2,31,997,-14,1,-4
798,0,31,998,-14,1,-3
799,2,31,997,-14,0,-3
800,4,33,998,-14,1,-3
801,2,31,997,-14,1,-3
802,1,30,996,-14,1,-3
803,0,30,997,-15,1,-3
804,1,30,997,-14,2,-3
805,1,30,996,-16,2,-3
806,0,32,996,-14,1,-2
807,0,30,998,-15,0,-3
808,1,30,997,-12,1,-3
809,1,33,995,-14,1,-2
810,3,32,996,-15,1,-2
811,1,33,997,-14,1,-3
812,0,32,998,-16,1,-2
813,1,31,997,-15,2,-2
814,2,31,999,-14,0,-3
815,2,33,997,-15,1,-3
816,1,33,999,-13,2,-3
817,1,31,997,-14,0,-3
818,2,33,997,-13,1,-4
819,0,32,998,-14,1,-3
820,3,31,998,-15,0,-3
821,3,31,997,-13,1,-3
822,2,30,998,-13,1,-3
823,3,30,997,-15,1,-3
824,2,32,997,-14,0,-3
825,2,31,996,-15,0,-3
826,3,33,998,-15,0,-2
827,2,32,998,-15,1,-2
828,2,32,997,-13,2,-2
829,1,32,997,-14,1,-3
830,1,30,997,-14,0,-3
831,1,31,997,-15,0,-3
832,0,31,997,-15,1,-2
833,3,30,996,-13,2,-4
834,2,31,996,-14,1,-3
835,-1,30,998,-14,1,-2
836,1,31,996,-14,1,-3
837,1,33,997,-14,1,-4
838,0,32,999,-14,0,-3
839,1,32,999,-13,1,-2
840,2,32,999,-15,2,-3
841,3,32,998,-14,2,-3
842,2,30,997,-12,2,-3
843,0,34,997,-16,1,-2
844,4,30,996,-13,1,-3
845,3,31,998,-14,2,-3
846,1,31,999,-15,0,-4
847,0,32,997,-12,1,-4
848,2,33,996,-14,2,-3
849,3,30,998,-14,0,-2
850,0,33,997,-13,1,-2
851,0,31,997,-14,1,-3
852,1,31,996,-14,0,-3
853,2,32,997,-14,0,-4
854,1,34,997,-15,0,-4
855,1,32,997,-13,1,-3
856,0,32,998,-14,1,-3
857,2,31,996,-14,1,-3
858,1,32,997,-16,1,-3
859,1,32,998,-16,-1,-3
860,1,30,996,-14,0,-3
861,0,29,997,-14,2,-3
862,1,32,998,-14,1,-3
863,3,31,997,-14,1,-3
864,4,32,996,-14,1,-4
865,2,31,996,-14,0,-4
866,2,32,997,-14,0,-5
867,2,31,998,-14,0,-4
868,2,31,996,-14,0,-3
869,1,32,998,-14,0,-3
870,0,32,998,-15,1,-4
871,2,32,999,-14,2,-4
872,0,31,997,-13,2,-3
873,2,31,998,-13,1,-4
874,2,31,997,-15,0,-3
875,1,31,997,-13,1,-3
876,0,30,997,-15,1,-3
877,1,32,998,-14,2,-2
878,3,31,998,-14,1,-3
879,2,32,998,-16,1,-4
880,4,31,997,-13,0,-3
881,3,31,996,-14,0,-2
882,2,32,997,-16,2,-3
883,0,31,996,-14,0,-2
884,3,31,999,-14,1,-2
885,3,31,997,-17,2,-4
886,3,30,997,-14,1,-4
887,2,31,997,-15,0,-3
888,2,31,997,-14,1,-4
889,2,30,996,-14,1,-4
890,5,31,997,-15,0,-3
891,1,30,995,-12,0,-4
892,1,31,997,-16,0,-4
893,2,32,996,-13,-1,-3
894,1,31,999,-15,1,-2
895,1,30,998,-14,1,-4
896,1,31,997,-12,1,-4
897,1,32,996,-14,1,-3
898,2,32,996,-13,0,-3
899,0,31,997,-14,1,-2
900,3,31,997,-15,0,-1
901,4,32,996,-13,0,-2
902,0,32,996,-14,0,-3
903,2,31,996,-12,2,-3
904,1,30,998,-14,2,-2
905,0,30,997,-14,2,-3
906,1,31,996,-14,1,-4
907,3,32,997,-13,1,-2
908,2,32,999,-13,1,-3
909,1,32,998,-14,0,-4
910,1,31,996,-15,-1,-3
911,0,32,998,-14,1,-4
912,2,31,997,-15,2,-3
913,0,30,997,-15,1,-3
914,1,31,997,-12,1,-3
915,1,32,997,-14,1,-3
916,2,33,997,-14,1,-3
917,2,33,996,-15,1,-3
918,3,30,997,-15,0,-3
919,3,30,998,-14,1,-5
920,0,31,996,-14,1,-5
921,1,31,996,-13,1,-3
922,2,31,996,-14,1,-2
923,2,31,997,-13,2,-3
924,3,32,998,-15,1,-2
925,0,31,998,-15,0,-4
926,1,30,998,-14,1,-3
927,0,31,996,-15,0,-3
928,1,31,996,-13,1,-3
929,3,32,996,-15,2,-3
930,2,32,996,-14,1,-3
931,3,31,998,-13,0,-3
932,3,33,998,-15,0,-3
933,2,32,996,-14,1,-4
934,2,31,998,-15,1,-4
935,1,33,996,-12,0,-3
936,2,32,997,-12,0,-4
937,1,33,996,-15,1,-3
938,1,31,996,-14,2,-3
939,1,31,996,-14,1,-3
940,2,31,997,-14,2,-2
941,0,31,998,-12,0,-3
942,2,30,998,-13,0,-3
943,3,30,998,-13,1,-4
944,1,31,997,-14,1,-4
945,2,31,998,-13,1,-4
946,1,29,998,-14,1,-3
947,2,30,997,-13,0,-3
948,2,32,996,-13,2,-4
949,1,32,996,-14,2,-4
950,1,33,995,-14,2,-2
951,1,32,998,-14,1,-3
952,3,32,998,-15,0,-3
953,2,32,997,-14,2,-2
954,1,31,996,-13,2,-3
955,3,30,999,-14,1,-3
956,3,32,997,-15,0,-3
957,0,33,998,-14,1,-3
958,0,31,997,-14,0,-3
959,1,31,997,-14,1,-4
960,1,32,998,-15,2,-2
961,1,32,998,-15,1,-2
962,1,31,998,-15,0,-3
963,3,33,997,-14,1,-3
964,3,31,997,-15,1,-2
965,2,31,999,-13,1,-3
966,2,32,999,-13,2,-3
967,1,31,998,-14,1,-4
968,2,32,998,-13,1,-2
969,2,30,999,-14,1,-2
970,2,32,997,-14,1,-3
971,0,31,997,-13,1,-3
972,3,31,999,-14,0,-4
973,2,31,998,-13,1,-3
974,3,32,996,-14,1,-3
975,3,30,998,-13,2,-3
976,2,31,996,-13,1,-2
977,3,33,997,-15,1,-3
978,3,31,995,-14,2,-3
979,2,31,997,-14,0,-3
980,2,30,996,-13,1,-3
981,3,30,997,-13,1,-4
982,3,32,997,-13,1,-4
983,2,31,998,-15,0,-5
984,0,31,998,-13,2,-4
985,1,33,997,-14,1,-5
986,2,33,998,-15,1,-3
987,1,30,997,-14,1,-4
988,2,30,998,-14,0,-3
989,0,31,997,-15,0,-2
990,0,31,997,-14,1,-2
991,2,34,997,-14,1,-2
992,4,32,997,-15,1,-2
993,1,31,997,-14,2,-3
994,1,31,997,-15,1,-4
995,0,32,997,-14,1,-4
996,1,32,998,-17,0,-3
997,3,30,998,-17,1,-3
998,2,32,999,-14,1,-4
999,1,32,997,-17,2,-3
1000,2,30,996,-16,0,-3
1001,3,32,996,-12,1,-4
1002,2,32,997,-15,1,-4
1003,2,33,998,-13,1,-4
1004,2,31,997,-14,1,-3
1005,1,31,997,-16,1,-3
1006,1,31,998,-14,1,-3
1007,1,30,996,-15,1,-2
1008,2,32,997,-14,2,-2
1009,1,32,998,-14,1,-2
1010,2,30,998,-13,1,-3
1011,1,30,997,-15,0,-3
1012,-1,31,997,-14,1,-4
1013,2,29,997,-13,0,-3
1014,2,29,996,-15,1,-3
1015,2,31,998,-15,0,-3
1016,2,30,998,-15,-1,-4
1017,2,32,996,-38,-1,-3
1018,4,32,997,-14,1,-4
1019,3,32,997,-16,1,-4
1020,2,31,995,-10,1,-3
1021,2,30,997,-15,1,-4
1022,1,32,997,-15,0,-3
1023,2,33,997,-13,1,-3
1024,0,31,996,-18,2,-3
1025,2,31,997,-13,2,-3
1026,2,30,998,-15,1,-3
1027,1,30,998,-16,1,-2
1028,1,33,996,-12,0,-3
1029,2,30,996,-15,1,-3
1030,1,31,997,-14,-1,-2
1031,3,33,995,-14,0,-3
1032,2,31,998,-15,1,-2
1033,1,32,998,-15,0,-3
1034,0,31,996,-14,0,-2
1035,1,32,996,-15,1,-2
1036,1,32,997,-14,1,-3
1037,3,32,997,-15,0,-3
1038,3,30,997,-14,1,-2
1039,2,31,998,-13,1,-3
1040,4,31,998,-15,1,-2
1041,2,31,997,-14,0,-2
1042,2,32,997,-14,0,-4
1043,0,31,996,-14,0,-3
1044,2,29,996,-16,1,-4
1045,2,29,997,-15,2,-4
1046,0,30,997,-13,1,-3
1047,2,31,998,-14,1,-4
1048,3,32,996,-13,1,-2
1049,1,32,995,-14,1,-4
1050,2,32,997,-15,0,-3
1051,2,31,998,-13,1,-3
1052,1,29,997,-14,2,-4
1053,1,30,997,-13,1,-3
1054,3,30,998,-13,0,-2
1055,2,29,997,-15,1,-2
1056,1,30,999,-14,1,-3
1057,2,32,997,-16,1,-4
1058,2,32,995,-15,0,-2
1059,4,32,997,-13,1,-2
1060,4,32,996,-15,0,-3
1061,2,32,997,-15,2,-2
1062,2,31,997,-14,1,-3
1063,0,31,997,-15,1,-4
1064,3,31,997,-13,1,-3
1065,2,31,997,-13,2,-3
1066,0,31,998,-15,1,-3
1067,0,34,999,-14,1,-3
1068,0,30,998,-14,0,-3
1069,1,30,998,-14,1,-3
1070,2,29,996,-15,1,-2
1071,1,29,996,-14,1,-2
1072,1,30,997,-13,1,-4
1073,2,32,997,-15,1,-3
1074,3,32,996,-13,1,-4
1075,1,33,997,-14,1,-3
1076,3,33,998,-16,0,-3
1077,0,32,996,-14,1,-3
1078,1,31,998,-15,1,-3
1079,0,31,997,-14,1,-4
1080,0,31,997,-15,1,-3
1081,2,32,997,-14,2,-3
1082,1,32,996,-14,0,-2
1083,0,33,997,-14,1,-2
1084,2,32,998,-16,1,-3
1085,3,32,998,-12,2,-2
1086,4,30,996,-15,1,-3
1087,2,30,997,-12,1,-4
1088,4,31,995,-14,1,-3
1089,2,30,996,-15,0,-3
1090,3,29,997,-13,0,-3
1091,1,32,997,-13,0,-4
1092,2,31,997,-15,0,-4
1093,1,32,998,-15,1,-3
1094,2,32,998,-15,0,-1
1095,2,32,998,-15,1,-2
1096,0,31,997,-15,1,-2
1097,2,30,998,-15,0,-3
1098,2,32,997,-13,1,-2
1099,1,32,997,-14,1,-3
1100,2,31,995,-14,0,-3
1101,2,29,995,-13,1,-3
1102,2,31,996,-14,0,-2
1103,2,31,998,-13,2,-3
1104,2,31,997,-15,2,-3
1105,2,32,996,-15,0,-2
1106,0,32,998,-14,1,-2
1107,1,31,998,-14,0,-3
1108,2,31,997,-14,1,-2
1109,1,31,999,-13,2,-2
1110,2,31,998,-14,1,-3
1111,0,31,997,-14,2,-3
1112,2,32,996,-16,1,-3
1113,3,32,997,-13,2,-3
1114,1,30,998,-12,1,-3
1115,0,31,996,-14,0,-2
1116,1,30,998,-13,0,-3
1117,2,31,997,-15,0,-3
1118,1,32,997,-15,1,-3
1119,1,30,997,-14,1,-3
1120,0,31,996,-16,2,-3
1121,0,30,997,-14,2,-4
1122,0,30,998,-15,0,-3
1123,2,30,997,-13,0,-3
1124,3,30,998,-15,0,-3
1125,1,30,996,-15,1,-3
1126,1,33,997,-12,-1,-3
1127,0,32,997,-14,1,-3
1128,1,32,998,-14,1,-4
1129,2,31,996,-12,0,-3
1130,1,31,997,-15,0,-4
1131,1,31,997,-13,0,-3
1132,1,32,997,-13,1,-2
1133,1,31,997,-16,1,-3
1134,0,31,998,-13,0,-3
1135,0,31,997,-13,1,-3
1136,0,30,998,-13,2,-3
1137,3,30,998,-14,1,-3
1138,2,32,999,-14,1,-3
1139,1,31,997,-16,1,-3
1140,3,31,997,-15,1,-3
1141,1,30,998,-15,1,-3
1142,2,31,997,-14,1,-2
1143,2,30,995,-15,0,-3
1144,3,31,997,-15,1,-4
1145,2,31,997,-14,2,-4
1146,0,32,997,-15,0,-3
1147,1,32,997,-15,0,-3
1148,4,33,996,-14,1,-4
1149,2,32,997,-14,1,-3
1150,0,30,997,-13,2,-3
1151,1,32,996,-14,3,-3
1152,2,31,997,-15,1,-2
1153,2,31,996,-15,2,-3
1154,1,30,997,-16,1,-4
1155,2,31,996,-14,1,-3
1156,0,29,994,-14,0,-3
1157,0,32,996,-15,2,-4
1158,0,31,996,-12,1,-3
1159,3,32,997,-13,0,-3
1160,3,32,996,-16,0,-2
1161,3,33,998,-14,0,-4
1162,2,33,996,-13,1,-3
1163,2,31,997,-14,1,-3
1164,1,30,997,-15,0,-3
1165,1,31,996,-15,1,-3
1166,2,31,997,-15,2,-2
1167,2,31,996,-14,1,-2
1168,3,31,997,-15,2,-3
1169,1,31,996,-15,-1,-3
1170,1,30,997,-14,1,-3
1171,2,32,996,-15,1,-2
1172,2,32,997,-14,1,-4
1173,0,32,995,-15,2,-4
1174,1,32,997,-15,0,-4
1175,0,32,998,-15,0,-3
1176,2,31,996,-13,1,-3
1177,1,31,997,-14,0,-4
1178,2,32,997,-15,1,-3
1179,0,30,998,-15,2,-2
1180,0,29,997,-15,0,-3
1181,0,28,997,-14,1,-3
1182,2,31,998,-14,2,-3
1183,1,32,997,-14,0,-3
1184,2,30,997,-13,0,-3
1185,3,33,997,-13,-1,-2
1186,2,32,996,-14,0,-3
1187,2,30,996,-13,0,-4
1188,1,29,997,-14,1,-2
1189,0,31,996,-13,0,-2
1190,0,30,998,-15,1,-2
1191,2,32,998,-13,1,-4
1192,0,31,997,-14,1,-3
1193,1,31,995,-15,0,-2
1194,0,30,996,-13,1,-3
1195,2,30,995,-14,1,-3
1196,4,30,997,-14,1,-2
1197,0,29,997,-13,2,-4
1198,2,31,998,-15,1,-3
1199,2,29,997,-11,1,-3
1200,1,33,998,-14,0,-2
1201,3,33,997,-13,0,-4
1202,1,31,995,-13,0,-4
1203,3,31,997,-14,0,-4
1204,3,30,997,-11,0,-5
1205,0,29,997,-12,0,-3
1206,1,31,997,-15,-1,-2
1207,1,32,998,-14,1,-3
1208,2,30,998,-15,1,-4
1209,0,32,997,-15,1,-4
1210,3,32,998,-14,1,-4
1211,2,32,999,-14,0,-3
1212,3,31,998,-14,0,-3
1213,2,32,997,-13,2,-2
1214,2,32,995,-14,1,-3
1215,0,32,997,-13,-1,-3
1216,2,32,997,-13,1,-3
1217,1,31,998,-14,2,-3
1218,1,31,997,-12,1,-3
1219,1,31,998,-13,2,-2
1220,1,31,998,-15,1,-2
1221,2,30,998,-13,1,-2
1222,2,31,995,-14,1,-3
1223,1,31,997,-14,2,-4
1224,2,32,997,-14,1,-4
1225,3,31,996,-14,1,-3
1226,4,32,997,-15,1,-3
1227,2,32,997,-15,1,-3
1228,2,33,998,-15,1,-2
1229,2,31,997,-14,1,-3
1230,3,30,997,-15,0,-3
1231,2,30,996,-13,1,-3
1232,2,31,997,-15,0,-3
1233,0,31,996,-14,0,-3
1234,0,31,997,-14,2,-3
1235,0,32,997,-14,1,-2
1236,3,31,997,-13,1,-3
1237,1,32,997,-14,1,-3
1238,1,31,998,-13,2,-3
1239,1,31,997,-14,0,-2
1240,3,31,996,-15,1,-2
1241,1,31,998,-14,-1,-3
1242,1,31,997,-15,0,-2
1243,1,31,998,-15,2,-2
1244,1,31,998,-13,1,-1
1245,3,31,999,-14,0,-2
1246,2,31,997,-13,2,-3
1247,1,31,996,-14,2,-3
1248,0,31,998,-16,2,-2
1249,2,32,998,-11,2,-4
1250,2,31,996,-14,2,-4
1251,3,29,997,-15,2,-2
1252,2,30,998,-14,1,-4
1253,2,31,997,-14,0,-3
1254,2,32,997,-13,2,-2
1255,2,31,997,-14,0,-2
1256,0,31,996,-16,0,-2
1257,0,32,997,-13,1,-2
1258,4,33,997,-15,2,-3
1259,1,31,997,-14,2,-3
1260,2,30,997,-14,1,-4
1261,1,31,996,-13,1,-3
1262,2,30,999,-13,1,-3
1263,3,31,998,-16,1,-3
1264,2,30,996,-14,0,-3
1265,1,29,997,-15,0,-3
1266,0,30,997,-13,1,-3
1267,1,31,998,-14,0,-2
1268,0,32,999,-13,1,-3
1269,2,32,997,-14,1,-3
1270,0,32,997,-15,0,-4
1271,0,32,995,-14,1,-3
1272,0,33,998,-13,1,-3
1273,2,33,998,-14,1,-2
1274,2,31,995,-15,1,-3
1275,2,32,997,-14,1,-3
1276,3,31,997,-13,0,-3
1277,1,30,997,-14,1,-3
1278,1,30,998,-15,1,-3
1279,2,31,996,-15,1,-4
1280,1,32,997,-14,0,-4
1281,2,29,997,-13,1,-3
1282,1,32,997,-15,1,-3
1283,1,31,997,-14,1,-3
1284,3,32,997,-13,1,-3
1285,1,32,997,-14,1,-3
1286,3,30,997,-14,1,-4
1287,3,32,998,-13,2,-3
1288,1,31,998,-15,1,-4
1289,1,33,998,-12,1,-3
1290,1,32,996,-15,2,-3
1291,0,31,996,-14,1,-3
1292,0,29,997,-14,0,-3
1293,0,30,996,-14,1,-4
1294,1,31,999,-14,0,-2
1295,0,30,997,-14,0,-2
1296,2,32,998,-14,1,-3
1297,3,34,995,-14,1,-3
1298,2,32,997,-13,1,-2
1299,0,30,998,-16,0,-3
1300,3,32,996,-12,1,-3
1301,1,32,996,-14,1,-3
1302,3,30,998,-15,0,-4
1303,1,30,997,-13,1,-3
1304,2,32,998,-17,1,-3
1305,1,30,997,-13,1,-2
1306,1,30,997,-15,1,-3
1307,2,30,999,-15,2,-3
1308,1,31,996,-13,1,-3
1309,0,31,997,-15,1,-3
1310,1,31,998,-15,1,-4
1311,1,31,996,-15,0,-4
1312,4,32,996,-14,0,-3
1313,2,31,996,-14,2,-4
1314,1,33,996,-13,2,-3
1315,2,30,995,-14,1,-3
1316,3,32,997,-14,2,-3
1317,2,31,998,-16,1,-3
1318,3,30,997,-15,1,-2
1319,1,32,999,-16,1,-2
1320,3,31,997,-12,1,-3
1321,1,31,996,-15,-1,-3
1322,0,30,998,-14,2,-4
1323,0,31,996,-14,1,-3
1324,0,30,996,-15,0,-3
1325,0,31,997,-15,0,-3
1326,1,30,997,-15,1,-3
1327,1,32,998,-14,1,-3
1328,1,32,998,-13,1,-4
1329,1,33,997,-15,1,-4
1330,2,32,998,-15,2,-3
1331,0,32,998,-14,0,-3
1332,1,30,996,-15,1,-2
1333,2,30,997,-14,0,-3
1334,1,32,995,-17,0,-3
1335,2,32,996,-14,1,-2
1336,2,32,998,-15,1,-3
1337,0,32,997,-15,1,-4
1338,1,31,997,-16,1,-3
1339,2,31,997,-14,0,-5
1340,1,31,998,-15,1,-4
1341,1,31,997,-15,1,-4
1342,0,33,995,-14,0,-4
1343,1,31,997,-13,0,-3
1344,1,31,997,-13,0,-3
1345,2,29,998,-15,2,-2
1346,2,31,997,-14,0,-4
1347,1,30,998,-13,1,-3
1348,2,29,997,-16,0,-4
1349,1,30,996,-14,0,-3
1350,1,30,996,-14,1,-2
1351,3,32,997,-13,0,-2
1352,3,32,996,-15,0,-3
1353,2,32,997,-15,0,-2
1354,2,31,997,-8,2,-3
1355,2,30,995,-13,0,-3
1356,1,32,997,-15,2,-3
1357,2,30,996,-13,1,-2
1358,2,31,996,-13,1,-3
1359,1,33,998,-13,0,-3
1360,2,31,998,-12,1,-2
1361,3,32,999,-15,1,-1
1362,0,30,997,-14,2,-2
1363,0,31,997,-14,2,-2
1364,1,32,996,-14,1,-2
1365,2,32,997,-12,0,-2
1366,1,30,997,-13,1,-4
1367,2,31,997,-15,0,-2
1368,0,32,996,-14,1,-3
1369,1,32,997,-15,0,-3
1370,2,29,995,-15,0,-3
1371,2,32,996,-14,1,-2
1372,5,34,996,-14,2,-3
1373,3,32,997,-13,2,-2
1374,0,30,998,-15,1,-2
1375,1,32,997,-13,1,-2
1376,0,31,997,-14,0,-2
1377,2,31,996,-13,0,-3
1378,1,32,996,-13,1,-4
1379,2,31,997,-15,1,-4
1380,4,32,999,-13,0,-4
1381,3,31,998,-13,0,-3
1382,3,33,998,-15,1,-2
1383,2,30,998,-13,1,-2
1384,1,31,998,-15,0,-3
1385,1,31,997,-14,1,-4
1386,3,31,997,-13,1,-4
1387,0,31,998,-13,0,-3
1388,2,29,998,-12,1,-4
1389,2,31,997,-14,2,-4
1390,0,31,997,-13,1,-4
1391,2,30,997,-15,1,-3
1392,1,31,997,-15,1,-2
1393,0,31,996,-13,2,-3
1394,2,30,997,-12,1,-4
1395,2,31,997,-13,1,-4
1396,4,31,998,-15,1,-3
1397,1,31,995,-13,1,-3
1398,2,32,998,-14,1,-3
1399,0,31,996,-15,1,-3
1400,2,33,997,-15,1,-3
1401,0,30,997,-13,1,-4
1402,0,31,998,-13,1,-4
1403,0,31,997,-16,2,-4
1404,2,32,997,-13,1,-3
1405,1,30,998,-13,1,-3
1406,1,30,997,-14,0,-3
1407,1,28,995,-13,0,-5
1408,3,31,996,-14,0,-5
1409,1,33,996,-13,0,-3
1410,0,32,996,-15,1,-3
1411,0,32,997,-14,1,-3
1412,3,33,997,-15,2,-3
1413,2,31,996,-15,1,-3
1414,2,33,997,-13,1,-2
1415,1,31,998,-14,0,-4
1416,0,31,996,-17,0,-4
1417,1,32,997,-13,1,-4
1418,2,32,999,-13,0,-4
1419,1,32,997,-14,1,-3
1420,2,32,996,-13,1,-3
1421,1,31,998,-15,1,-3
1422,2,32,995,-13,1,-3
1423,1,32,997,-14,1,-3
1424,0,31,997,-15,2,-2
1425,1,31,995,-13,1,-3
1426,1,30,997,-15,1,-3
1427,2,32,997,-13,1,-3
1428,1,31,997,-14,1,-3
1429,0,31,996,-17,0,-3
1430,3,30,996,-14,1,-4
1431,1,31,996,-13,0,-4
1432,1,33,997,-16,1,-3
1433,3,30,997,-15,1,-3
1434,2,31,996,-15,0,-4
1435,4,32,996,-13,0,-2
1436,2,31,995,-16,0,-1
1437,-1,31,996,-16,1,-3
1438,0,32,997,-13,1,-3
1439,0,30,997,-14,-1,-4
1440,1,32,998,-12,0,-3
1441,2,33,997,-14,0,-4
1442,2,31,997,-14,1,-3
1443,3,31,998,-14,2,-3
1444,2,31,998,-16,1,-3
1445,1,31,996,-12,2,-2
1446,1,30,997,-13,1,-2
1447,0,31,996,-13,1,-3
1448,1,33,997,-13,1,-3
1449,2,30,997,-16,0,-3
1450,3,33,997,-14,0,-3
1451,1,33,998,-14,0,-2
1452,1,32,995,-15,1,-3
1453,1,31,996,-15,0,-3
1454,1,29,997,-15,1,-5
1455,1,32,996,-13,0,-4
1456,1,30,996,-14,1,-3
1457,1,32,997,-15,1,-3
1458,4,31,996,-15,0,-4
1459,1,31,997,-14,1,-3
1460,3,32,996,-14,2,-2
1461,2,31,997,-13,1,-3
1462,0,30,999,-14,1,-3
1463,0,32,997,-13,0,-4
1464,1,31,997,-14,2,-3
1465,3,31,997,-16,2,-3
1466,2,32,995,-14,1,-2
1467,1,31,997,-15,0,-3
1468,2,31,998,-14,2,-4
1469,4,31,996,-14,1,-4
1470,1,31,996,-16,2,-3
1471,2,31,996,-13,1,-2
1472,2,30,997,-15,0,-3
1473,1,31,996,-14,1,-3
1474,2,31,996,-14,1,-3
1475,1,32,997,-15,1,-3
1476,2,31,998,-16,1,-3
1477,2,32,996,-15,0,-4
1478,3,31,999,-14,0,-3
1479,2,33,997,-15,1,-3
1480,2,31,996,-14,1,-3
1481,1,33,998,-14,1,-2
1482,2,32,998,-16,1,-3
1483,2,29,998,-13,1,-3
1484,2,31,999,-14,0,-3
1485,4,29,997,-13,1,-2
1486,3,31,999,-13,0,-4
1487,1,31,998,-16,1,-5
1488,2,33,997,-13,1,-2
1489,0,32,996,-12,1,-3
1490,0,33,996,-15,0,-3
1491,0,32,996,-13,1,-3
1492,1,31,997,-13,0,-4
1493,2,31,996,-13,0,-4
1494,1,30,996,-14,0,-3
1495,1,30,997,-13,0,-3
1496,0,30,998,-12,1,-3
1497,3,32,998,-13,1,-3
1498,2,31,997,-14,0,-5
1499,1,30,997,-14,0,-3
1500,1,30,996,-16,1,-2
1501,2,30,998,-16,1,-3
1502,2,32,997,-13,1,-3
1503,1,31,998,-16,0,-3
1504,0,30,998,-16,1,-3
1505,0,30,998,-14,1,-5
1506,2,32,997,-14,0,-3
1507,1,31,995,-15,1,-3
1508,1,31,996,-15,0,-3
1509,1,31,996,-14,1,-3
1510,1,32,995,-13,0,-3
1511,2,32,999,-14,1,-2
1512,3,30,999,-15,0,-2
1513,3,32,997,-14,1,-3
1514,1,31,997,-14,2,-3
1515,3,30,998,-13,1,-3
1516,2,31,997,-14,1,-3
1517,1,31,997,-14,1,-3
1518,2,32,998,-13,0,-3
1519,3,31,996,-11,1,-4
1520,2,32,996,-15,0,-5
1521,1,31,997,-14,0,-4
1522,1,33,995,-13,1,-3
1523,0,32,997,-15,1,-3
1524,3,32,996,-14,1,-4
1525,2,32,997,-15,1,-4
1526,1,31,996,-13,0,-3
1527,1,30,997,-13,1,-4
1528,1,32,998,-13,1,-3
1529,1,31,996,-14,1,-3
1530,2,30,996,-14,0,-5
1531,1,32,997,-13,2,-3
1532,2,29,996,-14,1,-3
1533,3,30,996,-14,2,-3
1534,2,30,997,-12,0,-4
1535,2,31,996,-14,1,-4
1536,1,32,997,-15,2,-5
1537,3,31,997,-15,1,-4
1538,3,31,997,-14,1,-4
1539,2,31,996,-14,0,-3
1540,2,31,997,-14,0,-3
1541,0,30,997,-13,1,-2
1542,1,31,998,-14,2,-2
1543,0,32,999,-13,1,-4
1544,0,32,997,-15,0,-3
1545,1,31,998,-16,0,-4
1546,1,31,998,-12,0,-4
1547,1,29,998,-13,1,-4
1548,2,31,999,-16,1,-3
1549,0,30,997,-15,0,-4
1550,0,31,996,-14,1,-3
1551,2,32,997,-14,-1,-3
1552,0,31,998,-14,0,-3
1553,3,31,996,-13,1,-3
1554,2,31,998,-14,1,-4
1555,1,34,997,-14,1,-4
1556,1,32,996,-15,1,-3
1557,2,32,998,-13,1,-3
1558,0,32,999,-12,1,-3
1559,1,30,998,-14,0,-3
1560,0,31,995,-11,1,-3
1561,3,31,999,-14,0,-4
1562,3,31,999,-13,1,-4
1563,2,30,998,-15,0,-3
1564,1,33,997,-14,1,-4
1565,2,32,997,-14,1,-3
1566,1,32,996,-14,1,-3
1567,2,32,995,-14,1,-3
1568,1,32,998,-15,1,-3
1569,2,32,997,-14,1,-4
1570,0,30,998,-14,1,-4
1571,0,32,997,-14,0,-4
1572,1,30,998,-13,1,-3
1573,3,32,997,-12,1,-3
1574,3,30,998,-14,1,-3
1575,1,31,996,-13,1,-3
1576,0,31,996,-14,0,-3
1577,1,31,997,-15,1,-3
1578,0,31,998,-15,1,-4
1579,1,30,998,-14,1,-4
1580,0,31,998,-14,2,-2
1581,1,30,997,-15,1,-3
1582,1,31,997,-16,1,-4
1583,1,32,997,-14,2,-4
1584,0,31,998,-15,1,-2
1585,2,33,998,-14,1,-2
1586,3,30,997,-14,1,-3
1587,1,32,997,-14,1,-2
1588,3,32,997,-16,1,-2
1589,3,29,996,-14,1,-4
1590,2,32,998,-14,2,-3
1591,0,30,997,-14,2,-2
1592,1,31,998,-14,1,-4
1593,2,31,997,-13,0,-4
1594,1,31,996,-16,1,-3
1595,2,31,997,-14,2,-3
1596,2,31,997,-13,1,-3
1597,1,31,997,-14,1,-4
1598,0,32,998,-15,1,-3
1599,1,31,998,-13,1,-4
1600,0,32,997,-15,1,-4
1601,0,30,997,-14,0,-4
1602,0,31,997,-14,1,-3
1603,1,30,998,-16,1,-2
1604,3,31,997,-15,1,-2
1605,2,31,996,-15,2,-3
1606,0,30,996,-15,0,-3
1607,1,30,996,-14,2,-3
1608,1,30,997,-14,0,-2
1609,0,31,998,-12,1,-4
1610,1,30,996,-16,1,-3
1611,2,31,997,-15,2,-3
1612,2,31,997,-14,1,-3
1613,2,31,998,-14,1,-3
1614,1,32,997,-15,3,-2
1615,1,32,998,-13,1,-3
1616,2,32,998,-15,0,-3
1617,1,31,998,-13,0,-3
1618,2,33,998,-12,1,-3
1619,0,33,997,-15,0,-3
1620,2,34,997,-13,0,-3
1621,2,32,997,-15,1,-3
1622,2,31,994,-15,2,-2
1623,0,31,996,-15,1,-2
1624,1,31,997,-16,1,-2
1625,3,31,997,-15,2,-2
1626,1,33,998,-15,2,-3
1627,2,32,996,-13,1,-4
1628,1,31,997,-13,1,-3
1629,2,31,996,-14,1,-3
1630,1,32,996,-14,1,-2
1631,0,32,998,-15,0,-4
1632,2,31,997,-15,1,-3
1633,2,33,996,-15,0,-3
1634,1,32,997,-15,0,-4
1635,2,31,996,-15,1,-3
1636,3,30,998,-15,2,-3
1637,0,30,998,-14,1,-4
1638,1,31,997,-13,0,-4
1639,3,29,997,-14,1,-2
1640,2,31,997,-14,0,-2
1641,1,32,996,-13,1,-2
1642,1,32,997,-13,0,-3
1643,1,32,996,-14,0,-2
1644,2,31,997,-14,0,-3
1645,2,30,999,-15,0,-3
1646,2,31,997,-13,1,-3
1647,3,31,998,-15,1,-3
1648,2,32,997,-14,1,-4
1649,2,32,997,-14,1,-3
1650,2,31,995,-13,0,-3
1651,2,33,996,-12,0,-3
1652,1,32,996,-14,2,-3
1653,1,31,997,-15,1,-4
1654,1,30,998,-14,2,-4
1655,1,31,997,-13,1,-4
1656,2,30,999,-12,0,-3
1657,3,32,996,-15,1,-3
1658,0,32,998,-13,1,-3
1659,0,30,998,-13,1,-3
1660,1,32,997,-14,2,-4
1661,3,32,996,-14,1,-4
1662,2,32,998,-14,2,-3
1663,0,32,997,-15,1,-1
1664,1,31,997,-14,1,-2
1665,1,30,998,-13,1,-2
1666,1,32,998,-15,0,-3
1667,0,31,997,-15,0,-3
1668,1,33,997,-13,1,-4
1669,1,31,999,-14,0,-3
1670,2,31,996,-13,1,-4
1671,1,30,997,-14,0,-3
1672,3,31,996,-14,0,-4
1673,1,32,996,-14,-1,-3
1674,0,32,997,-15,-1,-3
1675,2,32,998,-13,0,-3
1676,2,33,997,-15,1,-2
1677,2,32,997,-13,2,-3
1678,1,31,997,-14,1,-3
1679,2,32,998,-15,1,-3
1680,3,32,997,-14,0,-3
1681,2,31,996,-13,0,-3
1682,2,31,997,-14,0,-3
1683,1,31,997,-14,1,-3
1684,0,31,996,-14,1,-3
1685,3,31,997,-13,0,-4
1686,3,31,997,-15,1,-4
1687,1,30,999,-16,0,-4
1688,3,33,996,-12,0,-3
1689,0,31,995,-15,-1,-4
1690,2,30,997,-12,0,-4
1691,2,30,996,-11,1,-2
1692,4,33,997,-17,0,-3
1693,3,30,997,-11,2,-3
1694,3,31,997,-13,1,-3
1695,3,31,997,-16,0,-3
1696,2,32,997,-11,2,-3
1697,2,31,996,-15,1,-4
1698,3,31,997,-14,0,-3
1699,2,31,996,-12,0,-4
1700,2,31,996,-15,0,-3
1701,2,31,996,-14,1,-3
1702,2,31,998,-16,1,-3
1703,0,32,997,-15,0,-2
1704,2,31,997,-13,1,-3
1705,1,31,996,-15,1,-2
1706,1,31,997,-15,2,-4
1707,2,32,996,-15,1,-3
1708,1,30,997,-14,1,-3
1709,1,33,997,-14,0,-3
1710,2,31,996,-14,1,-3
1711,0,30,998,-15,1,-3
1712,0,32,996,-14,2,-3
1713,1,32,997,-15,1,-3
1714,0,31,997,-14,1,-4
1715,2,29,999,-14,0,-3
1716,2,30,997,-15,-1,-3
1717,1,29,997,-14,2,-3
1718,1,31,997,-14,2,-3
1719,2,33,996,-14,1,-3
1720,0,33,998,-12,2,-3
1721,1,31,995,-12,1,-5
1722,2,32,996,-14,2,-3
1723,1,32,997,-13,1,-3
1724,0,29,997,-16,1,-3
1725,1,33,998,-13,1,-4
1726,1,31,997,-13,1,-2
1727,1,31,996,-15,1,-3
1728,2,31,996,-14,1,-3
1729,1,31,997,-14,2,-3
1730,2,32,997,-14,1,-3
1731,2,31,997,-14,0,-3
1732,2,30,997,-12,1,-3
1733,3,30,998,-16,3,-3
1734,3,33,998,-15,1,-3
1735,2,31,997,-13,2,-4
1736,4,32,997,-14,1,-3
1737,2,32,997,-14,2,-4
1738,2,32,996,-14,2,-4
1739,0,32,996,-16,1,-4
1740,1,32,997,-14,1,-3
1741,1,32,996,-14,0,-3
1742,3,30,997,-14,0,-3
1743,4,31,998,-14,0,-4
1744,2,32,996,-14,1,-3
1745,1,34,996,-15,1,-2
1746,3,33,998,-15,1,-3
1747,1,31,998,-14,1,-4
1748,2,32,997,-14,1,-3
1749,1,31,998,-13,1,-3
1750,3,31,997,-13,2,-2
1751,2,31,997,-14,2,-2
1752,2,31,998,-14,1,-4
1753,1,31,998,-14,0,-4
1754,1,30,996,-16,0,-2
1755,0,30,999,-15,0,-4
1756,2,30,1000,-15,0,-4
1757,0,32,998,-13,1,-3
1758,3,30,998,-16,2,-3
1759,2,31,997,-14,2,-3
1760,1,32,996,-15,1,-2
1761,2,31,997,-15,1,-2
1762,1,33,997,-14,1,-3
1763,0,32,998,-16,1,-4
1764,1,30,997,-13,0,-5
1765,0,30,999,-14,1,-3
1766,2,31,997,-14,1,-1
1767,2,32,997,-13,1,-3
1768,2,30,999,-13,1,-3
1769,0,31,998,-14,0,-3
1770,0,30,995,-14,0,-3
1771,2,31,996,-14,1,-4
1772,2,30,996,-15,0,-3
1773,2,31,997,-13,1,-4
1774,0,32,998,-15,1,-3
1775,0,29,997,-14,0,-3
1776,2,31,998,-13,0,-3
1777,2,30,998,-13,0,-4
1778,2,31,998,-15,1,-4
1779,0,30,998,-14,0,-3
1780,0,31,998,-17,0,-2
1781,-1,30,998,-14,0,-3
1782,1,30,999,-14,1,-2
1783,2,31,998,-15,1,-3
1784,3,31,996,-14,1,-3
1785,2,30,997,-14,1,-3
1786,2,32,997,-14,1,-3
1787,2,31,997,-12,2,-4
1788,2,32,996,-16,1,-3
1789,1,32,997,-15,1,-4
1790,0,32,998,-13,1,-4
1791,2,32,998,-14,1,-2
1792,0,31,996,-14,1,-3
1793,2,32,998,-16,1,-3
1794,1,30,997,-14,1,-3
1795,4,30,997,-12,1,-3
1796,3,31,996,-13,0,-2
1797,2,32,997,-14,0,-3
1798,2,31,997,-14,1,-3
1799,1,32,995,-16,1,-4
1800,3,31,996,-15,0,-1
1801,0,29,997,-15,1,-2
1802,1,31,995,-13,0,-3
1803,2,31,998,-15,1,-3
1804,2,29,997,-14,1,-3
1805,3,32,995,-14,2,-3
1806,1,33,998,-14,2,-3
1807,3,33,997,-14,0,-4
1808,2,29,997,-14,1,-3
1809,1,31,997,-15,1,-3
1810,2,31,996,-12,1,-4
1811,0,31,999,-14,1,-2
1812,1,31,997,-14,2,-3
1813,2,31,997,-15,1,-3
1814,1,32,998,-14,0,-3
1815,2,32,996,-13,1,-3
1816,1,30,997,-14,2,-3
1817,2,33,997,-14,1,-3
1818,2,33,997,-15,0,-2
1819,1,32,996,-15,0,-2
1820,4,32,997,-14,1,-3
1821,2,31,998,-14,1,-3
1822,2,30,997,-15,1,-3
1823,2,32,998,-14,1,-3
1824,1,31,997,-13,1,-3
1825,2,31,997,-14,1,-3
1826,1,30,997,-15,2,-3
1827,4,31,997,-15,1,-3
1828,3,31,997,-14,0,-4
1829,0,33,997,-15,1,-2
1830,1,33,998,-15,2,-3
1831,2,32,997,-14,1,-3
1832,3,31,998,-14,1,-3
1833,2,30,997,-13,2,-3
1834,2,31,998,-14,1,-3
1835,0,32,996,-13,0,-4
1836,1,32,996,-13,0,-4
1837,0,29,997,-15,3,-3
1838,2,30,996,-15,1,-4
1839,1,31,995,-15,0,-4
1840,2,33,997,-15,-1,-3
1841,0,30,996,-14,1,-3
1842,2,32,996,-15,1,-3
1843,2,32,996,-13,1,-4
1844,1,31,997,-14,1,-3
1845,1,32,998,-14,1,-3
1846,0,32,998,-15,2,-4
1847,1,32,998,-13,1,-4
1848,2,32,997,-13,2,-4
1849,2,32,998,-14,1,-5
1850,0,32,997,-13,1,-4
1851,2,32,998,-14,1,-3
1852,2,31,997,-15,0,-2
1853,0,31,998,-13,0,-3
1854,3,30,998,-14,1,-4
1855,3,32,999,-13,1,-3
1856,3,33,997,-13,3,-3
1857,2,33,997,-13,0,-4
1858,1,31,995,-14,1,-3
1859,2,31,995,-13,1,-3
1860,2,31,997,-16,0,-3
1861,2,30,998,-14,1,-3
1862,4,30,998,-15,2,-3
1863,2,31,997,-15,2,-4
1864,2,31,997,-15,1,-3
1865,2,30,998,-14,1,-2
1866,0,31,998,-16,1,-3
1867,0,31,998,-14,1,-3
1868,2,31,996,-14,1,-4
1869,4,31,998,-13,1,-3
1870,1,32,997,-15,0,-3
1871,2,32,997,-13,1,-4
1872,1,31,998,-13,1,-3
1873,4,30,996,-14,1,-2
1874,3,29,996,-14,2,-2
1875,2,30,996,-15,2,-3
1876,0,30,996,-15,2,-3
1877,1,31,996,-15,1,-4
1878,2,31,998,-14,0,-3
1879,1,30,997,-14,1,-4
1880,0,30,998,-12,1,-4
1881,2,30,998,-14,1,-2
1882,2,32,997,-14,-1,-3
1883,1,30,997,-14,0,-3
1884,3,30,997,-13,-1,-1
1885,1,32,999,-15,0,-3
1886,0,32,999,-13,1,-4
1887,1,31,997,-12,1,-5
1888,2,32,997,-15,0,-3
1889,2,31,996,-13,1,-4
1890,0,33,998,-14,1,-3
1891,2,32,998,-14,1,-4
1892,1,30,1000,-14,1,-2
1893,1,31,997,-14,0,-2
1894,0,30,997,-16,-1,-4
1895,4,32,997,-14,0,-4
1896,2,31,995,-15,1,-4
1897,3,31,997,-14,1,-3
1898,0,32,997,-13,1,-2
1899,3,31,998,-15,1,-3
1900,0,31,997,-15,-1,-3
1901,0,30,998,-15,2,-3
1902,2,30,997,-16,2,-4
1903,2,31,998,-12,1,-3
1904,3,31,996,-15,1,-3
1905,2,32,997,-14,1,-4
1906,2,30,998,-13,1,-3
1907,1,31,997,-15,1,-3
1908,2,31,998,-14,1,-3
1909,2,30,998,-16,1,-3
1910,1,29,997,-14,0,-4
1911,2,32,996,-13,1,-3
1912,2,30,997,-15,1,-2
1913,2,31,997,-15,1,-3
1914,1,31,998,-15,1,-2
1915,0,29,997,-14,1,-2
1916,0,30,997,-14,2,-3
1917,2,32,997,-15,1,-3
1918,2,30,996,-15,0,-3
1919,2,30,997,-15,1,-2
1920,1,30,998,-14,1,-2
1921,1,32,998,-13,0,-3
1922,1,29,997,-15,1,-3
1923,2,30,998,-14,2,-4
1924,3,30,999,-14,0,-3
1925,2,31,998,-14,0,-3
1926,2,30,998,-14,0,-4
1927,3,31,996,-16,0,-3
1928,1,30,996,-15,2,-3
1929,1,30,996,-14,1,-3
1930,0,31,996,-16,1,-3
1931,2,31,997,-14,0,-3
1932,3,31,999,-14,1,-2
1933,2,32,997,-15,1,-3
1934,1,31,997,-13,2,-4
1935,1,32,998,-14,1,-3
1936,0,30,998,-15,1,-3
1937,2,31,997,-14,1,-4
1938,3,32,998,-14,0,-4
1939,2,32,996,-14,0,-3
1940,1,32,997,-14,0,-3
1941,0,31,997,-14,2,-3
1942,0,30,996,-14,1,-2
1943,1,30,996,-15,0,-2
1944,2,31,997,-14,1,-3
1945,0,30,997,-15,1,-3
1946,1,32,998,-14,0,-3
1947,1,30,997,-14,0,-3
1948,2,31,996,-16,0,-3
1949,1,30,997,-14,1,-3
1950,0,31,997,-14,1,-3
1951,0,31,996,-14,2,-3
1952,1,31,996,-12,1,-4
1953,2,31,997,-14,1,-3
1954,2,31,997,-13,1,-3
1955,0,33,996,-14,1,-2
1956,1,31,996,-15,1,-4
1957,2,31,996,-15,1,-2
1958,1,30,996,-15,1,-3
1959,3,31,996,-15,2,-3
1960,0,30,997,-14,1,-3
1961,1,33,997,-14,1,-4
1962,1,32,999,-14,2,-3
1963,0,31,998,-14,0,-3
1964,1,31,998,-14,1,-3
1965,2,31,998,-14,0,-4
1966,3,33,996,-15,1,-2
1967,1,31,996,-15,2,-2
1968,2,30,997,-16,1,-2
1969,0,31,997,-14,2,-4
1970,2,32,997,-15,0,-3
1971,2,31,995,-16,1,-2
1972,2,31,997,-13,1,-2
1973,0,31,998,-16,2,-3
1974,1,30,997,-13,2,-3
1975,0,29,998,-14,2,-3
1976,0,30,998,-14,1,-3
1977,1,30,996,-13,1,-3
1978,0,31,996,-14,0,-4
1979,0,32,997,-14,1,-3
1980,4,31,995,-17,1,-2
1981,2,32,996,-13,1,-2
1982,1,31,997,-13,0,-4
1983,0,29,997,-14,1,-3
1984,1,31,997,-13,2,-4
1985,1,31,996,-15,1,-4
1986,1,32,998,-13,1,-2
1987,2,29,998,-15,1,-2
1988,3,32,999,-16,1,-3
1989,0,32,998,-14,1,-3
1990,1,31,997,-15,0,-2
1991,1,29,996,-14,1,-2
1992,3,30,997,-14,1,-3
1993,2,30,997,-15,1,-3
1994,2,33,996,-14,0,-3
1995,0,32,998,-12,2,-3
1996,2,33,998,-15,0,-3
1997,3,33,996,-16,1,-3
1998,3,32,996,-14,1,-3
1999,3,30,997,-13,2,-4
2000,0,32,996,-14,1,-3
2001,3,31,997,-16,2,-3
2002,2,30,997,-14,1,-3
2003,1,31,997,-14,2,-3
2004,2,30,997,-14,1,-3
2005,1,32,998,-14,0,-3
2006,2,32,997,-15,0,-4
2007,2,32,995,-13,0,-4
2008,1,32,997,-14,1,-3
2009,3,32,998,-15,0,-2
2010,4,34,997,-14,1,-3
2011,2,32,997,-15,1,-3
2012,3,31,998,-14,0,-3
2013,2,30,996,-15,1,-3
2014,3,30,997,-14,2,-3
2015,1,30,999,-15,1,-3
2016,2,31,998,-14,2,-3
2017,2,31,997,-12,1,-3
2018,0,32,997,-14,1,-3
2019,3,31,997,-14,0,-3
2020,2,32,996,-15,0,-2
2021,2,30,997,-16,0,-3
2022,1,31,997,-15,0,-2
2023,2,31,997,-13,1,-3
2024,1,32,997,-14,-1,-4
2025,4,31,998,-15,1,-3
2026,2,31,997,-15,1,-2
2027,0,32,997,-13,0,-2
2028,1,31,998,-15,0,-3
2029,1,31,998,-14,1,-4
2030,0,33,996,-19,0,-4
2031,4,31,998,-16,4,-2
2032,1,29,999,-28,8,2
2033,3,29,997,-15,1,-4
2034,1,31,998,-15,1,-3
2035,2,32,998,-12,0,-3
2036,1,31,996,-14,0,-3
2037,3,32,998,-13,0,-4
2038,2,32,997,-14,1,-4
2039,1,29,996,-15,1,-3
2040,0,33,997,-14,1,-3
2041,0,30,996,-14,1,-3
2042,2,32,996,-14,0,-4
2043,1,32,998,-13,1,-3
2044,3,32,997,-15,1,-2
2045,3,32,997,-14,1,-2
2046,3,31,997,-14,0,-3
2047,0,30,997,-15,0,-3
2048,1,30,996,-13,1,-3
2049,2,31,997,-12,0,-4
2050,2,33,999,-15,-1,-2
2051,2,32,997,-15,0,-3
2052,3,31,997,-12,0,-3
2053,3,32,997,-14,0,-2
2054,1,30,997,-14,1,-3
2055,1,31,996,-13,2,-2
2056,1,32,996,-13,0,-3
2057,1,31,999,-13,0,-4
2058,2,32,997,-16,1,-3
2059,3,32,997,-12,2,-4
2060,2,32,996,-14,1,-3
2061,2,32,997,-13,1,-3
2062,1,31,998,-13,1,-3
2063,1,30,997,-14,-1,-5
2064,3,31,998,-14,0,-3
2065,4,30,998,-11,0,-4
2066,2,30,997,-15,0,-4
2067,1,32,997,-12,-1,-3
2068,0,31,997,-14,1,-3
2069,0,31,997,-17,2,-3
2070,0,31,997,-13,1,-4
2071,1,31,997,-15,0,-4
2072,4,31,997,-14,1,-4
2073,2,31,998,-13,0,-4
2074,2,33,997,-15,0,-3
2075,2,31,997,-15,1,-3
2076,3,32,996,-15,1,-3
2077,2,31,997,-14,1,-3
2078,2,33,996,-16,1,-4
2079,3,32,997,-14,-1,-4
2080,1,32,998,-14,0,-1
2081,3,31,997,-15,2,-1
2082,1,31,997,-15,1,-3
2083,1,29,997,-14,0,-3
2084,3,32,997,-15,1,-3
2085,2,30,998,-13,1,-3
2086,4,30,998,-14,1,-3
2087,1,31,997,-14,0,-4
2088,0,32,996,-15,0,-3
2089,2,31,998,-14,1,-3
2090,2,31,998,-15,1,-3
2091,1,31,996,-15,1,-3
2092,1,32,997,-14,1,-2
2093,3,33,997,-15,2,-4
2094,1,32,997,-14,1,-3
2095,3,32,996,-17,1,-2
2096,1,31,998,-14,1,-3
2097,0,31,997,-15,2,-3
2098,1,31,999,-14,2,-3
2099,1,32,997,-13,1,-4
2100,1,31,998,-15,0,-3
2101,0,30,996,-15,1,-3
2102,1,32,997,-15,1,-3
2103,1,31,998,-16,0,-3
2104,0,31,998,-15,0,-4
2105,1,32,999,-14,1,-4
2106,1,31,999,-14,1,-3
2107,2,30,997,-14,1,-2
2108,2,32,997,-16,2,-3
2109,2,32,996,-15,1,-3
2110,1,30,997,-15,2,-3
2111,2,31,998,-14,2,-3
2112,1,30,997,-16,0,-3
2113,3,32,998,-16,0,-4
2114,2,31,998,-16,1,-2
2115,2,31,997,-12,1,-2
2116,2,32,998,-15,1,-3
2117,1,29,998,-14,1,-2
2118,2,31,997,-12,1,-2
2119,1,32,997,-14,2,-3
2120,2,31,996,-15,1,-3
2121,0,31,996,-14,1,-4
2122,2,30,995,-15,0,-4
2123,3,31,996,-13,1,-4
2124,1,33,998,-15,0,-4
2125,0,32,998,-16,1,-3
2126,3,30,999,-15,1,-4
2127,2,31,998,-14,1,-3
2128,1,31,998,-13,1,-2
2129,0,30,998,-15,0,-2
2130,1,32,998,-13,0,-2
2131,2,31,996,-15,0,-3
2132,2,30,996,-14,1,-3
2133,2,33,996,-15,-1,-2
2134,2,32,998,-15,1,-2
2135,2,31,997,-14,1,-2
2136,2,32,996,-16,1,-2
2137,3,30,998,-13,2,-3
2138,1,30,998,-15,1,-4
2139,0,31,997,-13,0,-3
2140,2,31,996,-14,1,-3
2141,2,31,996,-15,1,-3
2142,1,31,996,-13,2,-4
2143,1,32,997,-14,0,-3
2144,0,31,997,-12,1,-3
2145,3,31,997,-13,1,-3
2146,3,33,996,-15,1,-2
2147,0,32,998,-14,0,-3
2148,2,31,998,-13,0,-3
2149,3,30,997,-14,1,-4
2150,1,32,997,-14,0,-4
2151,1,32,997,-14,0,-3
2152,3,32,997,-14,2,-5
2153,2,32,996,-15,1,-3
2154,4,32,997,-14,1,-2
2155,2,32,997,-14,-1,-3
2156,2,32,997,-15,0,-2
2157,2,30,996,-13,1,-3
2158,2,33,998,-14,2,-4
2159,0,32,997,-14,2,-3
2160,3,32,996,-15,2,-4
2161,2,33,996,-13,2,-2
2162,2,30,996,-15,1,-3
2163,1,31,997,-13,1,-2
2164,2,32,997,-14,1,-3
2165,3,31,997,-14,1,-3
2166,0,30,995,-12,1,-3
2167,2,31,996,-15,1,-3
2168,0,28,998,-13,1,-3
2169,0,30,999,-16,0,-4
2170,0,32,998,-15,1,-2
2171,0,30,996,-12,1,-2
2172,1,31,996,-15,1,-4
2173,1,29,996,-13,2,-3
2174,3,30,997,-14,1,-3
2175,1,33,997,-15,1,-3
2176,2,31,996,-13,0,-2
2177,1,31,998,-15,0,-3
2178,1,32,998,-15,1,-4
2179,0,33,996,-14,1,-3
2180,1,32,997,-15,2,-3
2181,2,30,996,-15,2,-2
2182,2,32,997,-16,0,-3
2183,3,31,996,-13,1,-3
2184,2,30,996,-13,1,-3
2185,0,31,998,-14,2,-2
2186,0,32,997,-14,2,-3
2187,1,32,996,-15,1,-3
2188,1,33,997,-13,0,-4
2189,2,30,997,-14,0,-4
2190,3,31,997,-13,0,-3
2191,1,32,997,-15,1,-4
2192,1,31,996,-15,1,-4
2193,3,30,997,-13,1,-3
2194,3,31,998,-13,1,-3
2195,1,32,996,-15,1,-2
2196,0,31,997,-15,1,-4
2197,0,31,997,-15,1,-4
2198,0,31,996,-13,1,-1
2199,1,30,996,-14,1,-2
2200,3,31,998,-16,1,-3
2201,2,32,997,-13,0,-3
2202,0,31,998,-14,2,-3
2203,0,31,996,-15,0,-4
2204,2,32,996,-14,0,-3
2205,3,32,997,-15,1,-2
2206,0,32,996,-13,1,-4
2207,1,32,996,-17,1,-3
2208,1,32,996,-15,1,-2
2209,2,31,996,-13,0,-2
2210,2,33,997,-15,1,-2
2211,0,32,997,-14,1,-2
2212,0,30,997,-15,1,-2
2213,0,32,996,-15,1,-3
2214,3,31,999,-13,1,-2
2215,2,32,997,-14,0,-2
2216,2,32,998,-12,0,-3
2217,2,31,997,-15,1,-3
2218,0,30,998,-14,2,-4
2219,2,32,996,-15,0,-2
2220,1,32,997,-14,0,-2
2221,3,33,997,-15,0,-3
2222,3,32,995,-14,2,-4
2223,1,32,995,-14,1,-4
2224,2,32,996,-14,0,-3
2225,1,30,997,-13,1,-4
2226,1,30,997,-14,0,-4
2227,1,31,998,-14,0,-3
2228,3,34,998,-12,2,-2
2229,2,32,996,-14,1,-4
2230,2,31,996,-14,1,-4
2231,0,31,995,-13,0,-3
2232,2,31,997,-16,0,-3
2233,2,33,996,-16,1,-5
2234,1,31,998,-14,1,-3
2235,1,31,997,-14,2,-2
2236,2,32,999,-13,1,-2
2237,3,31,997,-15,1,-2
2238,2,31,997,-15,1,-4
2239,2,31,998,-15,0,-3
2240,1,29,998,-14,1,-3
2241,1,30,998,-14,1,-2
2242,3,31,997,-13,1,-3
2243,1,31,995,-15,0,-4
2244,3,31,996,-14,1,-3
2245,1,31,997,-14,0,-3
2246,1,30,997,-14,1,-3
2247,2,31,997,-13,1,-4
2248,0,31,997,-11,1,-3
2249,2,32,996,-14,0,-3
2250,2,31,998,-13,1,-3
2251,0,31,997,-14,-1,-3
2252,2,32,997,-16,0,-2
2253,1,32,996,-14,1,-3
2254,1,31,998,-15,1,-2
2255,2,30,997,-16,0,-2
2256,1,31,998,-16,1,-2
2257,1,31,996,-14,0,-3
2258,3,32,999,-16,1,-3
2259,1,32,996,-15,1,-3
2260,2,32,996,-14,1,-3
2261,2,32,997,-14,1,-2
2262,3,32,997,-16,0,-3
2263,2,31,996,-15,0,-4
2264,2,32,997,-14,0,-3
2265,1,30,995,-13,0,-3
2266,0,30,998,-13,1,-3
2267,2,30,996,-14,1,-3
2268,1,31,998,-11,1,-3
2269,0,30,997,-14,1,-3
2270,2,32,996,-14,1,-3
2271,3,32,997,-12,0,-3
2272,2,32,998,-14,0,-3
2273,3,30,996,-14,0,-3
2274,2,31,997,-15,1,-3
2275,1,32,996,-15,0,-3
2276,1,31,995,-14,2,-3
2277,0,30,997,-14,2,-4
2278,1,30,997,-13,2,-4
2279,3,31,997,-14,1,-3
2280,0,31,998,-15,1,-1
2281,1,32,997,-13,1,-3
2282,1,31,997,-15,0,-2
2283,1,31,998,-12,0,-3
2284,1,30,997,-15,1,-4
2285,1,32,997,-15,1,-4
2286,2,32,998,-13,0,-4
2287,2,33,997,-16,1,-3
2288,1,31,996,-15,1,-4
2289,1,30,996,-13,1,-3
2290,2,32,998,-15,0,-2
2291,2,33,997,-13,1,-3
2292,5,31,998,-13,1,-4
2293,0,33,1000,-14,1,-3
2294,2,32,997,-13,0,-3
2295,1,30,997,-14,0,-4
2296,1,31,998,-13,1,-3
2297,1,31,997,-15,1,-3
2298,2,31,998,-14,1,-4
2299,0,32,997,-14,1,-3
2300,2,31,997,-16,0,-3
2301,0,31,998,-16,1,-3
2302,2,32,997,-14,1,-2
2303,2,32,997,-13,1,-3
2304,5,33,996,-12,1,-2
2305,2,32,997,-13,1,-3
2306,2,30,998,-15,2,-4
2307,1,30,996,-14,1,-2
2308,0,29,997,-16,1,-2
2309,1,31,998,-15,1,-3
2310,1,31,997,-12,1,-3
2311,1,30,997,-15,1,-3
2312,0,30,997,-14,1,-4
2313,1,33,995,-15,1,-3
2314,1,31,997,-14,1,-3
2315,1,31,997,-16,1,-2
2316,2,30,997,-15,0,-3
2317,3,31,997,-14,1,-3
2318,2,30,998,-15,1,-4
2319,2,32,997,-12,2,-4
2320,1,33,997,-14,1,-4
2321,1,32,999,-16,2,-3
2322,1,32,997,-14,1,-3
2323,3,32,998,-14,2,-2
2324,1,32,998,-15,1,-3
2325,1,31,997,-13,1,-3
2326,2,31,996,-14,2,-3
2327,1,30,997,-13,2,-4
2328,0,31,996,-14,1,-4
2329,4,32,997,-14,1,-4
2330,3,31,996,-14,1,-4
2331,1,33,997,-14,2,-3
2332,0,34,998,-14,2,-4
2333,1,32,997,-15,1,-3
2334,3,31,997,-14,1,-4
2335,1,31,998,-14,0,-3
2336,1,32,997,-14,0,-1
2337,1,30,997,-13,0,-2
2338,1,30,998,-14,1,-3
2339,2,29,997,-15,1,-3
2340,2,30,998,-14,0,-4
2341,2,32,998,-14,1,-3
2342,1,30,998,-14,2,-2
2343,1,32,998,-14,0,-2
2344,2,32,997,-14,-1,-3
2345,3,32,996,-13,1,-2
2346,3,30,997,-14,1,-3
2347,0,31,997,-14,0,-3
2348,2,32,997,-12,0,-3
2349,0,31,997,-14,1,-3
2350,1,30,996,-15,0,-4
2351,3,30,995,-14,0,-2
2352,2,31,997,-12,2,-3
2353,2,31,996,-14,2,-3
2354,1,31,997,-14,0,-3
2355,0,32,998,-15,2,-4
2356,1,31,998,-13,1,-4
2357,2,33,996,-14,1,-3
2358,1,32,997,-14,1,-3
2359,2,32,997,-16,1,-2
2360,1,31,996,-15,1,-2
2361,1,32,995,-13,0,-3
2362,2,31,998,-14,1,-2
2363,1,31,996,-14,0,-3
2364,2,29,997,-14,1,-2
2365,1,30,997,-16,-1,-3
2366,1,32,997,-17,1,-3
2367,1,32,997,-14,0,-3
2368,1,30,996,-13,1,-3
2369,2,31,996,-15,1,-2
2370,2,32,998,-13,1,-3
2371,2,30,997,-14,1,-2
2372,0,31,996,-16,1,-3
2373,2,32,996,-14,2,-3
2374,0,32,997,-15,0,-3
2375,3,33,997,-12,2,-3
2376,2,32,998,-14,2,-3
2377,1,31,997,-14,2,-3
2378,2,32,996,-14,0,-4
2379,0,32,996,-14,0,-4
2380,0,33,996,-15,0,-4
2381,1,31,999,-13,0,-3
2382,1,32,997,-14,2,-3
2383,1,30,996,-14,1,-4
2384,4,31,998,-15,0,-2
2385,2,33,997,-14,2,-3
2386,0,32,998,-13,1,-3
2387,0,32,997,-14,1,-3
2388,2,31,996,-15,0,-3
2389,2,30,998,-15,1,-1
2390,1,31,998,-14,0,-3
2391,1,30,998,-15,2,-3
2392,1,32,998,-15,1,-2
2393,1,32,998,-14,1,-3
2394,2,32,997,-16,1,-3
2395,2,32,998,-15,1,-4
2396,1,30,998,-15,1,-3
2397,1,30,997,-14,1,-2
2398,2,31,997,-14,1,-2
2399,0,31,997,-16,0,-4
2400,2,32,996,-14,0,-3
2401,2,31,996,-15,1,-3
2402,1,32,996,-14,0,-4
2403,1,30,999,-12,1,-2
2404,2,31,998,-14,1,-3
2405,2,31,997,-14,1,-3
2406,0,30,997,-15,2,-3
2407,2,30,997,-15,0,-3
2408,1,32,995,-13,0,-3
2409,1,31,994,-14,1,-2
2410,2,31,996,-14,0,-2
2411,2,32,998,-14,1,-4
2412,3,32,997,-15,1,-3
2413,1,30,997,-15,1,-2
2414,4,31,997,-13,1,-3
2415,1,31,998,-15,2,-3
2416,0,32,996,-16,1,-3
2417,2,31,997,-15,0,-4
2418,0,30,998,-13,1,-3
2419,1,30,999,-15,0,-3
2420,2,31,1000,-15,1,-4
2421,2,32,997,-14,0,-2
2422,2,31,995,-15,1,-3
2423,1,31,997,-14,1,-2
2424,2,30,998,-14,1,-4
2425,1,30,998,-15,0,-3
2426,2,31,997,-14,1,-3
2427,2,32,997,-13,2,-3
2428,1,33,996,-13,1,-3
2429,2,33,998,-14,1,-3
2430,0,31,997,-13,1,-3
2431,1,31,997,-15,1,-3
2432,3,31,998,-15,0,-4
2433,0,31,998,-14,0,-3
2434,1,32,997,-14,2,-4
2435,3,31,998,-14,1,-3
2436,2,31,997,-13,2,-2
2437,1,31,999,-13,2,-3
2438,0,30,998,-14,1,-4
2439,1,29,996,-14,1,-4
2440,0,30,998,-14,1,-3
2441,1,31,996,-14,2,-3
2442,2,32,997,-12,2,-3
2443,2,33,997,-14,1,-3
2444,1,31,996,-15,1,-3
2445,2,33,998,-14,0,-3
2446,1,32,999,-16,-1,-2
2447,2,32,997,-14,2,-3
2448,3,32,998,-14,1,-3
2449,2,32,998,-14,2,-2
2450,1,30,998,-14,1,-2
2451,1,31,998,-14,2,-3
2452,3,31,998,-15,0,-3
2453,1,32,997,-14,0,-3
2454,1,32,997,-15,1,-3
2455,3,32,997,-15,1,-3
2456,2,32,996,-15,1,-3
2457,1,32,996,-13,0,-3
2458,0,32,998,-13,0,-3
2459,3,31,997,-15,1,-4
2460,2,31,997,-14,0,-3
2461,1,30,997,-16,0,-4
2462,2,31,997,-16,0,-4
2463,1,30,999,-14,1,-4
2464,1,31,998,-15,0,-3
2465,1,31,997,-15,0,-4
2466,3,31,999,-14,1,-4
2467,1,30,998,-16,2,-3
2468,2,33,996,-14,1,-3
2469,2,30,996,-14,0,-3
2470,1,29,997,-15,1,-4
2471,3,32,997,-14,1,-3
2472,2,33,999,-16,1,-3
2473,2,32,998,-16,1,-3
2474,2,32,997,-14,0,-3
2475,2,32,995,-15,0,-1
2476,3,32,997,-14,1,-2
2477,1,33,997,-14,1,-3
2478,1,31,996,-15,1,-2
2479,2,32,996,-13,1,-4
2480,2,30,998,-15,0,-3
2481,1,30,998,-14,1,-3
2482,4,34,996,-14,1,-3
2483,3,32,997,-14,0,-3
2484,4,31,997,-15,0,-4
2485,1,32,997,-14,1,-3
2486,0,32,997,-14,1,-3
2487,1,32,997,-12,-1,-4
2488,0,29,998,-13,1,-1
2489,1,31,996,-15,1,-2
2490,3,29,997,-16,1,-3
2491,3,30,997,-13,1,-3
2492,3,33,997,-17,-1,-3
2493,2,30,998,-13,-1,-3
2494,2,32,999,-14,0,-4
2495,3,33,998,-15,0,-3
2496,0,31,996,-13,1,-3
2497,1,30,997,-13,0,-4
2498,3,31,996,-13,1,-2
2499,1,30,996,-14,1,-3
2500,2,30,997,-14,1,-4
2501,1,32,997,-15,2,-4
2502,2,31,997,-15,1,-1
2503,0,31,998,-15,2,-3
2504,3,31,999,-15,1,-3
2505,2,32,998,-14,1,-3
2506,2,30,995,-13,1,-4
2507,1,32,998,-15,1,-3
2508,2,32,996,-14,1,-3
2509,3,33,996,-15,0,-4
2510,2,32,998,-14,-1,-3
2511,2,32,997,-14,0,-3
2512,1,31,996,-15,1,-5
2513,2,32,999,-15,1,-4
2514,1,29,997,-13,0,-4
2515,0,31,997,-14,-2,-3
2516,2,30,996,-13,0,-2
2517,2,31,997,-15,1,-2
2518,1,32,997,-14,0,-3
2519,3,31,996,-15,1,-3
2520,2,30,997,-14,1,-4
2521,3,30,998,-14,0,-4
2522,2,31,997,-15,1,-3
2523,1,31,997,-13,1,-3
2524,1,31,997,-15,1,-4
2525,0,31,998,-15,1,-2
2526,0,33,997,-13,1,-2
2527,0,31,997,-13,0,-2
2528,1,31,995,-13,2,-3
2529,1,29,998,-14,1,-2
2530,1,29,997,-14,2,-3
2531,1,31,997,-14,2,-3
2532,3,31,999,-16,1,-2
2533,1,32,997,-15,1,-3
2534,2,32,998,-14,1,-4
2535,2,31,999,-15,1,-3
2536,2,30,998,-14,1,-3
2537,2,30,998,-14,1,-3
2538,4,31,998,-13,1,-3
2539,0,31,997,-15,1,-2
2540,2,29,997,-15,0,-2
2541,1,32,997,-13,3,-3
2542,1,31,997,-14,0,-3
2543,0,31,996,-12,0,-4
2544,1,32,997,-15,1,-3
2545,0,32,996,-14,1,-4
2546,0,33,998,-15,2,-2
2547,1,31,997,-14,1,-3
2548,3,31,997,-14,2,-3
2549,0,30,996,-13,0,-3
2550,2,30,996,-15,1,-2
2551,2,32,998,-14,1,-4
2552,4,31,996,-14,0,-3
2553,2,32,996,-14,0,-3
2554,4,33,997,-14,1,-3
2555,1,31,997,-15,0,-3
2556,1,32,997,-14,-1,-3
2557,3,33,998,-14,0,-3
2558,3,33,998,-16,1,-3
2559,2,31,998,-15,0,-3
2560,3,32,998,-15,-1,-2
2561,1,30,998,-15,1,-2
2562,2,30,997,-14,1,-3
2563,3,30,995,-14,1,-3
2564,1,30,996,-15,2,-2
2565,1,30,995,-14,0,-4
2566,2,30,995,-13,0,-4
2567,1,31,997,-15,-1,-3
2568,0,31,997,-15,1,-4
2569,1,32,997,-13,1,-4
2570,2,32,996,-14,0,-3
2571,0,31,997,-14,2,-3
2572,2,32,996,-15,1,-2
2573,2,32,997,-13,2,-4
2574,1,30,998,-13,0,-3
2575,-1,31,999,-16,-1,-2
2576,0,31,997,-14,0,-4
2577,1,32,999,-17,1,-3
2578,3,31,998,-14,1,-3
2579,1,31,998,-12,0,-3
2580,3,30,999,-15,0,-3
2581,1,30,998,-15,1,-3
2582,3,32,997,-14,1,-2
2583,1,32,996,-15,0,-4
2584,2,31,995,-14,2,-3
2585,3,32,997,-15,1,-3
2586,2,32,996,-14,2,-3
2587,1,30,997,-13,1,-3
2588,0,30,999,-16,0,-2
2589,0,31,996,-15,1,-3
2590,1,31,998,-14,1,-4
2591,1,32,997,-14,1,-4
2592,2,32,998,-13,1,-4
2593,1,31,997,-15,0,-4
2594,2,31,997,-14,0,-4
2595,2,32,998,-13,0,-2
2596,1,32,997,-16,0,-3
2597,2,32,996,-13,0,-4
2598,1,31,997,-13,1,-2
2599,2,31,997,-15,0,-2
2600,4,30,997,-14,2,-3
2601,3,31,998,-14,2,-3
2602,2,31,998,-14,1,-3
2603,1,31,997,-13,1,-3
2604,0,30,998,-15,1,-3
2605,2,30,998,-14,2,-3
2606,3,31,998,-16,1,-3
2607,3,31,996,-14,1,-2
2608,1,32,998,-14,2,-2
2609,2,30,997,-15,2,-2
2610,1,31,997,-15,0,-2
2611,3,32,997,-15,0,-3
2612,2,33,997,-14,1,-3
2613,2,32,999,-14,1,-3
2614,1,32,998,-15,0,-3
2615,2,32,998,-15,0,-3
2616,2,32,998,-13,1,-2
2617,1,31,997,-14,1,-2
2618,1,31,998,-14,1,-3
2619,3,31,998,-14,1,-3
2620,3,30,996,-14,1,-3
2621,0,30,996,-14,0,-3
2622,2,33,997,-13,0,-3
2623,1,31,996,-12,1,-4
2624,1,31,997,-13,0,-2
2625,1,32,996,-14,0,-3
2626,0,31,996,-14,0,-2
2627,0,31,996,-17,1,-2
2628,0,31,996,-16,2,-2
2629,1,30,996,-15,1,-2
2630,0,31,997,-15,2,-3
2631,0,30,997,-15,2,-2
2632,2,31,998,-15,2,-3
2633,1,33,997,-12,1,-3
2634,1,30,997,-15,2,-4
2635,0,33,996,-14,2,-3
2636,2,32,997,-14,0,-4
2637,3,32,997,-13,1,-3
2638,3,33,998,-14,1,-3
2639,2,31,996,-13,2,-3
2640,2,31,997,-15,1,-2
2641,3,31,995,-15,1,-3
2642,1,31,997,-16,1,-3
2643,1,30,997,-14,0,-5
2644,2,32,999,-13,0,-4
2645,2,33,998,-14,0,-3
2646,3,32,997,-13,0,-2
2647,2,32,997,-14,1,-2
2648,2,33,997,-14,0,-3
2649,2,32,996,-14,1,-3
2650,1,32,997,-14,1,-3
2651,1,32,997,-14,0,-3
2652,3,31,997,-14,0,-4
2653,1,32,996,-14,0,-3
2654,2,33,997,-13,0,-4
2655,1,31,996,-14,0,-4
2656,2,32,996,-14,1,-3
2657,1,31,995,-13,1,-3
2658,1,31,997,-15,1,-4
2659,3,30,998,-14,2,-2
2660,2,30,996,-15,0,-3
2661,2,31,997,-13,1,-3
2662,4,32,998,-14,0,-3
2663,2,32,997,-14,1,-4
2664,1,33,997,-14,1,-4
2665,0,33,997,-13,1,-3
2666,2,32,996,-14,0,-3
2667,0,31,996,-16,1,-2
2668,0,30,997,-14,2,-3
2669,2,31,998,-15,2,-2
2670,3,32,999,-13,1,-3
2671,1,31,998,-13,2,-3
2672,2,30,996,-16,1,-2
2673,1,30,997,-14,1,-3
2674,1,32,998,-14,1,-3
2675,2,30,998,-14,-1,-3
2676,2,29,997,-15,1,-2
2677,1,32,996,-15,0,-3
2678,1,32,998,-15,1,-3
2679,1,32,997,-14,2,-3
2680,2,30,995,-13,2,-3
2681,3,31,997,-14,2,-3
2682,1,31,996,-14,1,-4
2683,0,32,998,-15,2,-3
2684,0,32,997,-14,0,-3
2685,0,31,996,-17,0,-3
2686,1,30,998,-14,0,-2
2687,3,31,997,-16,1,-3
2688,2,31,997,-14,0,-3
2689,3,32,998,-13,0,-4
2690,1,30,996,-15,2,-2
2691,1,31,996,-14,1,-3
2692,2,30,997,-14,0,-3
2693,3,29,998,-14,0,-3
2694,0,30,997,-15,1,-4
2695,2,31,997,-16,1,-4
2696,3,32,998,-13,3,-3
2697,2,32,997,-14,1,-3
2698,1,32,996,-15,0,-2
2699,3,30,997,-15,0,-3
2700,3,30,998,-15,0,-3
2701,2,30,996,-14,2,-3
2702,1,30,996,-14,1,-3
2703,2,30,997,-22,0,-2
2704,2,31,998,-16,-1,-4
2705,1,31,996,-15,0,-3
2706,1,32,996,-10,1,-4
2707,0,32,997,-17,0,-2
2708,2,30,997,-13,0,-2
2709,2,31,998,-15,0,-3
2710,0,31,997,-16,1,-3
2711,2,31,996,-11,2,-3
2712,2,31,996,-16,1,-3
2713,2,30,998,-15,0,-4
2714,1,31,998,-13,2,-3
2715,1,30,997,-13,1,-3
2716,0,31,997,-13,0,-2
2717,2,31,996,-14,0,-3
2718,1,31,996,-16,0,-2
2719,2,33,998,-13,0,-3
2720,4,30,996,-14,1,-2
2721,3,30,995,-16,-1,-2
2722,2,30,996,-12,-1,-3
2723,0,30,997,-16,1,-1
2724,1,29,998,-12,1,-3
2725,2,31,997,-14,2,-3
2726,1,33,997,-14,1,-3
2727,0,32,996,-11,0,-3
2728,2,31,998,-15,1,-2
2729,2,30,998,-13,0,-2
2730,1,30,999,-13,1,-2
2731,0,32,996,-15,0,-2
2732,0,32,996,-12,2,-4
2733,0,31,997,-16,1,-4
2734,3,31,997,-15,0,-5
2735,3,31,996,-12,-1,-4
2736,2,32,998,-17,0,-3
2737,3,32,997,-13,1,-3
2738,2,30,997,-14,0,-3
2739,1,32,998,-15,0,-3
2740,2,32,998,-14,1,-2
2741,2,30,997,-17,1,-3
2742,2,30,998,-15,1,-3
2743,2,30,998,-14,1,-2
2744,1,32,997,-14,1,-3
2745,2,30,997,-15,0,-3
2746,3,32,997,-15,1,-3
2747,1,32,996,-15,1,-4
2748,2,31,997,-12,1,-4
2749,2,30,999,-13,1,-3
2750,2,32,997,-14,0,-4
2751,1,32,998,-14,0,-3
2752,2,31,995,-14,2,-3
2753,3,32,996,-15,1,-3
2754,0,33,996,-15,1,-3
2755,3,32,997,-14,1,-4
2756,2,30,998,-14,1,-4
2757,0,31,997,-15,1,-3
2758,1,30,998,-16,0,-3
2759,2,30,997,-14,0,-3
2760,1,32,998,-14,0,-2
2761,0,33,997,-14,1,-3
2762,3,32,997,-14,1,-4
2763,0,33,998,-15,1,-3
2764,2,32,997,-16,0,-3
2765,3,32,997,-15,1,-3
2766,2,32,997,-15,1,-2
2767,1,32,998,-14,1,-3
2768,3,32,997,-13,1,-4
2769,3,30,997,-13,0,-3
2770,1,29,998,-13,2,-3
2771,1,30,997,-15,1,-4
2772,2,29,995,-14,2,-4
2773,2,31,997,-14,1,-4
2774,2,32,999,-15,1,-2
2775,3,31,998,-16,1,-4
2776,2,30,996,-16,1,-3
2777,1,30,995,-12,1,-3
2778,1,29,996,-14,1,-2
2779,0,30,996,-16,0,-2
2780,3,31,998,-13,2,-3
2781,2,31,998,-14,1,-3
2782,2,31,996,-16,0,-3
2783,2,30,995,-14,3,-3
2784,3,31,996,-15,1,-2
2785,2,32,995,-13,1,-3
2786,0,31,996,-15,1,-3
2787,2,31,997,-15,1,-3
2788,2,32,997,-14,1,-3
2789,1,31,998,-14,0,-3
2790,1,34,997,-15,1,-3
2791,2,33,997,-14,0,-3
2792,1,31,997,-15,2,-2
2793,0,31,997,-15,0,-3
2794,0,32,997,-14,1,-3
2795,2,33,997,-14,2,-2
2796,2,30,997,-14,2,-3
2797,0,31,998,-14,2,-3
2798,2,30,997,-15,1,-3
2799,2,31,998,-14,0,-3
2800,2,32,998,-15,1,-3
2801,2,30,997,-15,1,-3
2802,2,31,998,-13,0,-4
2803,1,32,998,-15,1,-3
2804,2,32,997,-14,1,-3
2805,1,31,996,-13,1,-3
2806,1,31,998,-14,2,-3
2807,2,33,997,-15,1,-2
2808,3,33,997,-15,0,-4
2809,2,33,997,-15,1,-2
2810,1,31,997,-14,1,-3
2811,0,31,998,-14,0,-4
2812,1,33,997,-13,0,-4
2813,2,31,998,-13,1,-3
2814,1,30,997,-17,0,-3
2815,1,29,998,-13,0,-3
2816,0,29,997,-16,-1,-3
2817,1,32,997,-15,2,-4
2818,0,30,998,-13,1,-4
2819,1,32,996,-13,1,-3
2820,2,30,996,-15,2,-3
2821,3,32,998,-15,2,-4
2822,1,33,997,-14,1,-3
2823,1,31,997,-14,1,-2
2824,0,30,997,-13,0,-2
2825,1,32,996,-15,1,-3
2826,3,30,996,-15,1,-2
2827,1,30,998,-16,0,-3
2828,3,32,997,-14,0,-2
2829,0,31,997,-14,0,-3
2830,2,31,997,-15,1,-3
2831,0,32,998,-14,0,-3
2832,1,32,996,-12,1,-4
2833,1,31,997,-15,1,-3
2834,3,33,997,-13,1,-2
2835,1,31,996,-15,1,-3
2836,2,30,996,-15,1,-3
2837,3,30,997,-16,0,-3
2838,2,32,998,-14,0,-3
2839,2,31,998,-14,0,-5
2840,1,33,996,-16,2,-2
2841,0,31,998,-15,1,-3
2842,0,30,998,-13,0,-2
2843,1,30,998,-14,-1,-3
2844,1,32,999,-15,1,-3
2845,2,32,997,-15,0,-3
2846,1,32,996,-14,1,-4
2847,2,32,996,-14,2,-3
2848,0,32,997,-14,2,-2
2849,0,32,997,-15,0,-2
2850,2,32,996,-14,2,-3
2851,2,32,997,-16,2,-3
2852,4,30,998,-15,0,-4
2853,1,30,997,-15,2,-4
2854,3,32,996,-15,2,-2
2855,2,32,997,-14,2,-2
2856,1,33,997,-14,1,-4
2857,1,31,998,-15,0,-3
2858,1,32,996,-14,1,-2
2859,0,30,997,-14,0,-3
2860,3,31,997,-14,1,-3
2861,4,30,997,-13,0,-3
2862,3,29,997,-14,0,-3
2863,2,32,996,-14,1,-3
2864,1,31,997,-14,0,-4
2865,3,33,998,-13,0,-5
2866,2,31,998,-15,1,-3
2867,2,31,999,-14,1,-3
2868,0,31,998,-16,0,-4
2869,0,30,999,-16,0,-4
2870,0,32,997,-14,1,-3
2871,0,30,997,-15,1,-3
2872,0,31,998,-16,0,-3
2873,1,32,998,-14,1,-3
2874,1,31,996,-13,1,-3
2875,0,31,997,-14,-1,-4
2876,2,31,997,-15,1,-2
2877,2,30,997,-15,0,-2
2878,1,30,997,-15,0,-3
2879,1,29,997,-15,1,-3
2880,0,30,998,-15,1,-3
2881,1,30,998,-13,1,-3
2882,2,30,996,-13,0,-3
2883,1,30,997,-15,1,-3
2884,2,30,997,-15,1,-3
2885,3,32,997,-14,1,-2
2886,1,30,998,-13,0,-3
2887,2,29,996,-12,1,-3
2888,2,31,998,-16,1,-4
2889,3,31,997,-15,1,-3
2890,4,32,997,-14,1,-2
2891,2,33,996,-14,1,-3
2892,2,33,996,-14,2,-3
2893,1,32,997,-15,1,-3
2894,1,31,998,-13,1,-4
2895,2,29,996,-13,1,-3
2896,3,32,997,-14,1,-3
2897,0,31,999,-14,1,-3
2898,2,29,997,-14,1,-2
2899,2,31,999,-15,1,-2
2900,1,31,998,-14,-1,-2
2901,2,32,996,-14,0,-4
2902,1,32,996,-14,1,-3
2903,3,32,997,-15,0,-3
2904,2,32,998,-12,1,-3
2905,1,34,996,-14,2,-2
2906,2,31,995,-15,1,-3
2907,1,31,998,-14,1,-3
2908,3,31,998,-13,0,-2
2909,0,32,997,-14,1,-3
2910,1,30,997,-14,0,-4
2911,2,32,996,-13,0,-4
2912,0,31,996,-14,1,-4
2913,2,30,997,-12,1,-3
2914,1,31,997,-13,1,-2
2915,1,34,996,-13,2,-3
2916,3,32,996,-14,1,-3
2917,4,31,997,-16,1,-4
2918,1,32,996,-14,1,-4
2919,1,31,995,-13,0,-4
2920,2,31,996,-12,1,-2
2921,3,31,998,-14,0,-3
2922,1,32,999,-14,0,-3
2923,0,31,997,-14,0,-4
2924,2,31,998,-15,1,-3
2925,1,32,998,-15,1,-4
2926,2,30,998,-11,1,-3
2927,2,32,999,-12,1,-3
2928,2,31,996,-14,1,-3
2929,2,32,998,-14,1,-3
2930,3,32,997,-15,1,-3
2931,1,30,998,-14,1,-3
2932,1,31,998,-14,1,-3
2933,3,31,998,-15,1,-3
2934,2,31,997,-14,1,-4
2935,2,32,997,-13,1,-4
2936,2,31,996,-14,1,-3
2937,3,31,998,-15,0,-3
2938,3,30,997,-14,1,-2
2939,2,31,997,-13,1,-3
2940,2,31,999,-14,1,-4
2941,2,31,997,-13,0,-3
2942,2,31,996,-13,1,-2
2943,1,32,996,-13,1,-3
2944,0,30,997,-14,0,-3
2945,1,32,998,-14,0,-3
2946,2,32,998,-14,0,-4
2947,0,31,997,-16,1,-4
2948,1,30,998,-14,0,-3
2949,2,30,998,-14,2,-2
2950,2,31,998,-13,1,-3
2951,2,30,997,-15,-1,-4
2952,2,31,997,-14,0,-2
2953,2,32,997,-15,1,-3
2954,2,31,996,-14,1,-3
2955,0,30,998,-14,2,-3
2956,1,30,999,-15,0,-3
2957,0,31,997,-14,0,-2
2958,3,31,997,-14,0,-2
2959,4,32,997,-15,2,-3
2960,2,33,995,-13,1,-3
2961,1,32,997,-14,0,-4
2962,3,32,997,-16,1,-3
2963,4,33,997,-14,1,-2
2964,2,33,997,-16,1,-3
2965,0,31,997,-14,0,-3
2966,2,31,997,-14,1,-4
2967,1,30,997,-14,1,-3
2968,1,31,998,-15,2,-2
2969,0,31,997,-14,1,-1
2970,3,33,997,-16,1,-3
2971,2,31,996,-14,0,-3
2972,2,31,997,-13,0,-3
2973,1,31,996,-15,0,-3
2974,1,29,998,-15,0,-3
2975,4,28,998,-16,0,-2
2976,3,31,997,-15,0,-3
2977,0,31,998,-14,0,-4
2978,2,30,998,-14,1,-3
2979,0,30,996,-15,1,-3
2980,1,32,997,-13,2,-3
2981,1,31,998,-14,1,-3
2982,2,31,997,-14,0,-4
2983,1,32,997,-14,1,-3
2984,3,31,997,-15,1,-4
2985,3,33,997,-16,1,-4
2986,2,30,999,-14,0,-3
2987,0,30,997,-15,0,-4
2988,1,33,997,-13,1,-3
2989,1,32,997,-13,0,-2
2990,0,31,997,-15,1,-3
2991,2,31,997,-14,0,-3
2992,1,31,996,-15,1,-4
2993,0,31,996,-14,1,-3
2994,1,32,998,-14,2,-3
2995,1,31,996,-14,2,-3
2996,-1,32,997,-14,-1,-3
2997,0,31,996,-15,1,-3
2998,0,30,997,-15,1,-2
2999,0,31,998,-14,1,-3
3000,2,32,996,-16,1,-3
3001,1,32,997,-13,2,-2
3002,1,30,998,-13,1,-3
3003,0,31,999,-16,0,-3
3004,0,32,997,-16,0,-3
3005,2,33,998,-16,2,-2
3006,2,30,999,-14,1,-2
3007,4,33,998,-12,1,-3
3008,2,31,997,-14,1,-3
3009,2,33,998,-14,2,-2
3010,3,30,997,-13,0,-2
3011,2,31,996,-14,0,-4
3012,2,32,997,-14,1,-4
3013,2,30,995,-14,0,-3
3014,2,31,995,-14,1,-2
3015,1,32,998,-14,1,-3
3016,1,31,997,-15,0,-2
3017,3,30,997,-16,1,-3
3018,1,32,998,-15,1,-3
3019,1,30,998,-13,2,-3
3020,2,31,998,-16,1,-3
3021,2,30,998,-15,1,-3
3022,2,32,998,-13,2,-3
3023,1,30,998,-13,2,-3
3024,1,31,997,-14,1,-3
3025,2,32,996,-14,0,-4
3026,3,32,999,-14,1,-3
3027,2,33,999,-14,1,-2
3028,2,31,997,-14,1,-2
3029,3,30,997,-14,0,-4
3030,2,31,995,-15,2,-2
3031,0,31,998,-14,2,-3
3032,2,31,997,-14,0,-3
3033,0,31,996,-14,0,-2
3034,1,31,996,-14,1,-3
3035,1,30,996,-15,0,-4
3036,1,31,997,-15,0,-5
3037,1,32,996,-14,0,-4
3038,1,30,999,-9,1,-4
3039,2,31,998,-16,-6,-7
3040,1,30,997,-9,-2,-4
3041,1,30,996,-14,0,-2
3042,2,30,998,-15,-1,-2
3043,1,32,998,-15,0,-4
3044,3,29,997,-13,1,-3
3045,1,32,997,-14,0,-3
3046,2,31,997,-14,1,-3
3047,0,32,997,-13,1,-3
3048,1,29,995,-15,0,-4
3049,4,30,996,-15,0,-4
3050,2,30,999,-13,1,-3
3051,1,30,997,-13,1,-2
3052,2,31,997,-14,1,-3
3053,1,32,998,-13,2,-3
3054,2,31,996,-12,0,-3
3055,2,31,997,-12,1,-3
3056,0,31,997,-16,1,-3
3057,0,31,997,-14,1,-3
3058,3,31,996,-14,1,-3
3059,2,32,998,-13,1,-3
3060,3,32,998,-14,1,-3
3061,1,31,998,-14,2,-4
3062,1,31,997,-12,2,-3
3063,3,32,998,-14,2,-4
3064,3,32,997,-14,1,-4
3065,2,30,997,-14,2,-2
3066,0,31,998,-15,1,-4
3067,1,32,996,-13,1,-4
3068,1,32,996,-14,1,-4
3069,2,31,998,-15,0,-3
3070,1,30,997,-12,0,-4
3071,1,31,996,-13,0,-2
3072,2,31,997,-14,1,-3
3073,3,31,997,-15,1,-4
3074,1,31,998,-14,1,-4
3075,0,31,997,-15,1,-3
3076,1,32,998,-14,1,-2
3077,2,31,998,-15,2,-3
3078,3,33,997,-14,2,-4
3079,2,32,997,-15,1,-2
3080,0,31,996,-12,1,-4
3081,0,33,998,-15,1,-3
3082,1,32,997,-14,1,-3
3083,2,32,998,-13,0,-3
3084,1,32,997,-14,0,-2
3085,4,31,996,-13,1,-2
3086,2,31,997,-13,1,-3
3087,3,31,998,-17,0,-4
3088,3,33,997,-13,1,-3
3089,1,31,998,-13,1,-4
3090,2,32,998,-13,1,-4
3091,1,32,997,-14,2,-3
3092,3,30,996,-16,1,-4
3093,1,30,997,-14,1,-4
3094,2,32,997,-14,1,-4
3095,1,31,997,-16,0,-2
3096,4,32,996,-15,1,-3
3097,3,30,997,-13,1,-3
3098,1,30,997,-13,1,-4
3099,0,32,997,-14,2,-4
3100,1,33,998,-14,0,-3
3101,0,32,997,-14,0,-3
3102,1,31,996,-13,0,-3
3103,0,31,997,-15,1,-3
3104,2,31,997,-15,0,-3
3105,2,30,998,-13,1,-4
3106,3,27,997,-14,0,-4
3107,1,30,997,-15,0,-4
3108,0,30,998,-15,1,-3
3109,1,30,997,-14,2,-4
3110,2,31,999,-13,1,-3
3111,2,30,998,-14,2,-2
3112,1,31,997,-14,2,-3
3113,1,31,999,-14,0,-3
3114,2,32,997,-13,1,-3
3115,2,32,997,-12,2,-3
3116,2,32,997,-14,1,-2
3117,2,29,996,-13,2,-4
3118,1,32,997,-15,2,-3
3119,1,33,998,-15,1,-3
3120,2,30,998,-16,0,-4
3121,4,32,997,-16,1,-4
3122,3,30,997,-15,1,-2
3123,3,30,997,-12,1,-3
3124,1,31,997,-15,0,-4
3125,2,33,997,-15,1,-3
3126,1,33,997,-14,2,-3
3127,1,33,998,-14,0,-2
3128,2,33,997,-14,1,-3
3129,2,32,997,-15,1,-3
3130,2,32,997,-15,2,-3
3131,2,32,997,-14,0,-4
3132,3,30,999,-14,1,-3
3133,0,30,997,-13,0,-3
3134,2,31,998,-13,2,-3
3135,3,32,997,-14,2,-2
3136,0,32,996,-14,1,-3
3137,1,31,995,-14,1,-4
3138,0,32,998,-16,0,-4
3139,2,30,997,-14,1,-3
3140,3,32,997,-15,1,-3
3141,2,32,997,-15,1,-3
3142,3,32,997,-14,1,-2
3143,5,32,998,-16,1,-3
3144,2,31,999,-14,1,-2
3145,2,32,997,-13,1,-3
3146,3,31,996,-13,1,-3
3147,1,33,997,-12,0,-3
3148,3,31,996,-15,1,-2
3149,3,30,996,-15,0,-3
3150,2,31,998,-15,1,-3
3151,0,29,998,-13,1,-3
3152,1,29,997,-15,1,-2
3153,0,30,996,-14,-1,-2
3154,2,31,996,-14,0,-2
3155,2,33,996,-13,0,-3
3156,2,32,997,-12,1,-4
3157,2,32,997,-14,0,-3
3158,4,31,999,-13,1,-3
3159,1,32,996,-14,1,-3
3160,1,32,998,-14,1,-3
3161,2,32,998,-12,1,-4
3162,1,31,997,-14,2,-3
3163,0,31,996,-15,2,-3
3164,0,31,997,-14,2,-3
3165,0,31,998,-13,1,-3
3166,1,32,996,-15,1,-3
3167,1,32,997,-14,0,-3
3168,2,31,998,-15,0,-3
3169,2,32,998,-14,1,-3
3170,2,33,998,-14,0,-2
3171,1,32,998,-14,1,-3
3172,2,33,996,-14,1,-4
3173,2,30,998,-14,2,-3
3174,0,30,998,-15,1,-3
3175,0,31,996,-13,1,-4
3176,2,31,997,-14,2,-3
3177,2,30,998,-15,0,-3
3178,0,31,998,-14,2,-3
3179,1,32,998,-13,1,-2
3180,3,30,998,-13,1,-3
3181,3,31,997,-15,0,-4
3182,2,31,997,-14,1,-4
3183,2,30,997,-13,1,-4
3184,2,31,996,-16,1,-3
3185,2,30,996,-14,1,-4
3186,3,31,997,-14,1,-2
3187,3,31,997,-15,0,-2
3188,2,29,997,-14,1,-2
3189,1,30,996,-14,1,-3
3190,2,31,997,-15,1,-3
3191,2,31,998,-14,1,-2
3192,2,32,995,-14,0,-3
3193,3,32,997,-15,1,-3
3194,2,33,996,-14,1,-3
3195,0,32,996,-13,0,-3
3196,2,31,997,-12,2,-3
3197,1,32,998,-14,2,-4
3198,2,31,997,-13,1,-4
3199,2,32,997,-14,2,-3
3200,2,33,998,-13,0,-4
3201,1,32,998,-13,1,-3
3202,1,33,997,-13,1,-4
3203,0,33,997,-15,1,-5
3204,0,30,997,-13,1,-2
3205,1,30,997,-15,2,-2
3206,0,32,998,-17,2,-2
3207,1,31,996,-14,1,-3
3208,1,30,997,-17,1,-4
3209,1,31,997,-14,1,-3
3210,0,32,998,-14,1,-2
3211,1,31,998,-14,0,-4
3212,2,31,997,-14,0,-2
3213,3,30,997,-13,0,-3
3214,2,30,996,-15,2,-3
3215,1,31,998,-12,0,-3
3216,2,31,997,-15,0,-3
3217,1,30,997,-13,1,-3
3218,0,29,997,-14,1,-3
3219,2,31,997,-14,0,-2
3220,2,29,998,-13,1,-4
3221,0,30,997,-14,0,-4
3222,1,31,996,-15,-1,-3
3223,1,31,997,-12,0,-4
3224,2,31,996,-15,1,-4
3225,1,31,998,-14,1,-3
3226,2,33,998,-14,2,-2
3227,0,32,996,-14,1,-3
3228,3,33,998,-13,1,-3
3229,1,33,998,-15,1,-3
3230,1,31,998,-14,1,-3
3231,2,31,997,-13,1,-4
3232,5,32,998,-14,1,-3
3233,4,32,999,-14,1,-2
3234,1,33,997,-13,0,-4
3235,2,32,998,-14,-1,-3
3236,3,32,995,-12,0,-3
3237,3,31,997,-15,1,-2
3238,3,34,998,-15,1,-3
3239,2,30,998,-14,2,-3
3240,4,32,996,-15,2,-4
3241,1,31,999,-15,1,-4
3242,2,31,997,-15,2,-2
3243,1,30,997,-15,1,-2
3244,0,30,997,-15,0,-3
3245,0,30,997,-15,1,-3
3246,1,32,999,-14,1,-3
3247,2,30,998,-14,0,-3
3248,2,30,997,-14,1,-3
3249,2,30,997,-14,1,-3
3250,1,31,996,-15,1,-2
3251,2,30,997,-13,1,-3
3252,2,30,998,-16,1,-3
3253,2,33,998,-13,1,-4
3254,1,32,996,-14,0,-4
3255,1,32,996,-14,0,-2
3256,0,32,999,-14,2,-3
3257,0,31,998,-16,-1,-4
3258,1,30,997,-15,1,-4
3259,1,31,998,-13,1,-4
3260,2,29,996,-16,1,-2
3261,1,30,997,-14,1,-3
3262,1,30,997,-13,0,-3
3263,2,31,998,-15,3,-4
3264,2,31,998,-12,1,-3
3265,2,31,996,-14,1,-3
3266,2,33,998,-14,1,-3
3267,2,31,999,-13,0,-2
3268,1,32,998,-14,1,-2
3269,2,30,998,-15,1,-2
3270,0,32,996,-15,0,-4
3271,0,31,997,-13,0,-3
3272,1,32,996,-15,1,-3
3273,2,32,997,-15,0,-3
3274,2,32,998,-15,0,-3
3275,2,31,998,-15,0,-3
3276,0,31,997,-15,1,-2
3277,1,33,996,-16,3,-1
3278,0,31,998,-15,2,-2
3279,1,32,998,-16,1,-1
3280,4,32,997,-14,1,-2
3281,2,31,997,-15,1,-3
3282,4,32,998,-15,0,-3
3283,1,31,997,-15,0,-3
3284,3,31,996,-15,-1,-3
3285,0,32,997,-16,1,-4
3286,0,29,1000,-13,0,-4
3287,2,29,998,-14,0,-3
3288,2,29,997,-16,1,-4
3289,1,32,997,-15,0,-3
3290,1,30,998,-15,0,-4
3291,1,31,998,-13,1,-3
3292,1,32,997,-13,1,-3
3293,1,31,996,-14,1,-4
3294,1,31,997,-15,1,-4
3295,0,31,997,-14,2,-3
3296,1,31,998,-14,1,-2
3297,0,32,997,-15,1,-3
3298,1,31,998,-14,1,-3
3299,1,32,998,-14,1,-3
3300,2,31,995,-15,1,-4
3301,0,29,997,-13,1,-4
3302,1,31,997,-14,0,-3
3303,2,31,997,-13,1,-2
3304,1,31,996,-15,2,-2
3305,3,31,997,-14,1,-3
3306,1,31,996,-13,2,-2
3307,1,31,997,-14,1,-3
3308,1,31,998,-13,1,-3
3309,2,32,996,-13,0,-4
3310,4,33,997,-14,0,-2
3311,4,32,996,-15,0,-2
3312,2,33,997,-15,2,-2
3313,1,30,997,-13,2,-3
3314,2,31,997,-13,1,-4
3315,3,32,998,-14,1,-4
3316,3,31,998,-14,1,-3
3317,4,30,996,-15,1,-3
3318,4,29,996,-15,1,-2
3319,1,30,997,-15,1,-3
3320,0,29,998,-13,2,-3
3321,0,31,997,-13,0,-2
3322,1,30,998,-15,1,-3
3323,3,32,997,-14,0,-4
3324,3,30,997,-13,0,-3
3325,2,29,999,-14,2,-3
3326,2,29,997,-14,1,-4
3327,2,30,996,-15,1,-3
3328,0,28,996,-13,0,-2
3329,1,32,996,-14,0,-2
3330,0,32,996,-13,1,-3
3331,1,31,998,-15,0,-2
3332,2,32,998,-16,0,-3
3333,2,30,997,-13,2,-2
3334,2,30,996,-15,1,-3
3335,3,32,997,-14,1,-4
3336,2,31,996,-12,0,-4
3337,1,32,998,-16,0,-3
3338,3,32,999,-14,1,-4
3339,0,30,997,-14,2,-4
3340,0,29,998,-15,1,-4
3341,2,29,996,-13,2,-3
3342,2,30,996,-13,1,-3
3343,2,32,996,-12,0,-3
3344,3,33,998,-14,0,-3
3345,0,31,997,-15,0,-4
3346,0,32,996,-14,0,-3
3347,0,30,995,-15,0,-3
3348,1,32,997,-14,0,-4
3349,1,30,996,-14,0,-3
3350,0,30,997,-15,1,-3
3351,2,32,997,-13,1,-3
3352,2,30,997,-16,0,-4
3353,0,31,996,-14,0,-4
3354,0,32,996,-14,2,-2
3355,1,31,996,-15,2,-1
3356,3,30,998,-14,2,-3
3357,2,30,997,-15,1,-3
3358,2,29,996,-14,1,-2
3359,1,32,996,-12,2,-2
3360,0,32,998,-14,2,-2
3361,0,31,997,-13,1,-3
3362,1,29,997,-15,1,-2
3363,3,30,996,-14,-1,-3
3364,3,31,997,-14,0,-4
3365,3,31,997,-16,2,-3
3366,2,31,998,-14,2,-2
3367,0,30,997,-14,1,-3
3368,1,30,997,-16,2,-3
3369,2,29,999,-14,1,-4
3370,5,31,998,-16,1,-3
3371,2,32,998,-15,1,-4
3372,0,31,997,-13,0,-3
3373,0,31,996,-18,-4,-5
3374,1,31,997,-13,1,-4
3375,2,33,997,-14,1,-3
3376,4,31,997,-16,0,-2
3377,3,33,998,-13,2,-3
3378,3,31,997,-14,1,-3
3379,0,31,997,-13,1,-3
3380,1,32,998,-13,2,-3
3381,1,31,997,-15,0,-3
3382,0,31,996,-13,0,-3
3383,2,33,996,-15,1,-3
3384,1,29,997,-15,0,-3
3385,1,31,996,-12,1,-3
3386,1,30,999,-14,1,-2
3387,1,32,998,-13,2,-3
3388,3,31,998,-14,1,-3
3389,2,30,997,-16,1,-3
3390,2,31,996,-14,1,-3
3391,1,31,995,-14,1,-4
3392,1,31,996,-13,2,-3
3393,2,33,996,-15,2,-3
3394,3,32,997,-15,1,-2
3395,1,33,998,-13,1,-2
3396,1,31,998,-16,1,-3
3397,2,29,998,-16,1,-2
3398,1,29,997,-13,2,-4
3399,1,32,997,-12,3,-2
3400,2,32,998,-13,1,-4
3401,1,30,996,-14,-1,-4
3402,0,32,997,-14,1,-4
3403,1,33,997,-14,1,-2
3404,0,32,997,-15,1,-2
3405,0,30,998,-12,1,-3
3406,2,32,998,-15,1,-3
3407,1,30,997,-14,2,-2
3408,4,30,996,-16,3,-3
3409,0,31,996,-15,2,-2
3410,2,30,999,-15,1,-3
3411,0,31,997,-13,1,-4
3412,2,31,996,-15,0,-4
3413,1,31,996,-13,0,-4
3414,3,30,997,-14,1,-3
3415,3,32,997,-13,1,-3
3416,4,30,998,-14,1,-3
3417,4,32,997,-15,0,-3
3418,2,31,996,-13,1,-3
3419,0,31,997,-13,1,-3
3420,3,31,997,-13,0,-2
3421,2,32,997,-15,0,-3
3422,2,32,997,-14,0,-2
3423,2,30,997,-15,0,-1
3424,0,30,997,-16,1,-3
3425,0,30,997,-16,1,-4
3426,1,31,998,-13,1,-3
3427,3,29,999,-15,2,-2
3428,4,31,997,-13,1,-3
3429,5,33,997,-14,2,-4
3430,2,31,998,-16,1,-3
3431,2,31,997,-15,0,-3
3432,1,31,997,-14,1,-3
3433,1,31,997,-13,1,-2
3434,3,33,997,-16,1,-3
3435,1,31,997,-14,0,-3
3436,2,31,997,-13,0,-3
3437,1,29,997,-16,0,-3
3438,1,29,996,-13,-1,-3
3439,1,33,997,-15,1,-2
3440,0,33,997,-16,1,-2
3441,2,33,997,-13,1,-3
3442,3,32,998,-15,1,-4
3443,0,32,997,-15,0,-3
3444,0,31,996,-15,2,-3
3445,0,30,996,-15,1,-3
3446,0,31,997,-14,0,-1
3447,2,31,997,-14,0,-2
3448,3,33,996,-15,0,-2
3449,2,31,998,-14,0,-3
3450,1,31,996,-15,1,-3
3451,1,31,997,-15,2,-4
3452,1,32,995,-14,0,-3
3453,3,31,997,-15,0,-3
3454,3,30,996,-14,0,-3
3455,3,30,997,-13,2,-3
3456,0,30,997,-13,1,-3
3457,0,30,998,-14,1,-3
3458,0,31,996,-15,1,-4
3459,1,30,998,-15,1,-3
3460,1,30,996,-15,1,-3
3461,3,32,995,-16,0,-3
3462,1,31,997,-14,1,-4
3463,2,31,999,-15,2,-3
3464,0,29,997,-14,1,-4
3465,0,29,997,-12,1,-3
3466,0,29,997,-13,1,-2
3467,2,32,998,-13,1,-3
3468,2,31,996,-14,1,-4
3469,0,31,997,-16,1,-4
3470,0,31,998,-15,1,-3
3471,1,32,998,-14,0,-2
3472,1,31,997,-15,2,-3
3473,2,31,996,-15,1,-3
3474,2,31,997,-13,0,-3
3475,0,31,997,-16,1,-3
3476,1,32,996,-15,2,-3
3477,2,31,997,-14,1,-3
3478,2,32,997,-15,2,-2
3479,1,32,997,-16,1,-3
3480,0,31,997,-15,0,-2
3481,3,31,998,-16,2,-3
3482,1,31,997,-15,0,-3
3483,1,32,999,-12,0,-4
3484,0,32,998,-13,1,-3
3485,3,31,995,-14,0,-4
3486,2,30,997,-15,-1,-4
3487,3,33,997,-13,-1,-2
3488,2,32,996,-15,1,-4
3489,3,33,996,-13,1,-3
3490,0,31,998,-14,1,-3
3491,3,31,997,-15,0,-3
3492,3,30,997,-14,0,-3
3493,2,31,996,-12,-1,-3
3494,3,30,997,-13,1,-3
3495,1,32,998,-14,2,-2
3496,1,31,998,-15,2,-2
3497,0,32,998,-14,0,-3
3498,0,31,997,-13,1,-2
3499,1,31,998,-15,0,-2
3500,1,31,996,-14,0,-3
3501,3,31,997,-15,1,-3
3502,1,31,996,-14,1,-3
3503,0,31,997,-14,0,-3
3504,1,32,997,-15,0,-4
3505,3,32,998,-14,1,-2
3506,4,31,997,-16,2,-2
3507,2,31,998,-13,1,-2
3508,2,29,998,-14,2,-3
3509,2,31,998,-14,1,-3
3510,1,32,998,-12,1,-3
3511,2,32,998,-14,1,-3
3512,1,30,998,-15,1,-2
3513,2,31,997,-14,1,-2
3514,0,30,998,-14,1,-3
3515,1,30,996,-13,1,-3
3516,2,29,997,-14,1,-3
3517,1,29,995,-14,0,-2
3518,0,32,996,-15,1,-3
3519,2,32,996,-13,0,-2
3520,0,30,997,-14,0,-3
3521,1,32,997,-15,0,-3
3522,0,33,997,-15,1,-3
3523,0,31,997,-15,1,-3
3524,2,32,998,-14,1,-3
3525,2,31,998,-14,1,-4
3526,3,31,998,-14,1,-3
3527,1,30,999,-14,2,-2
3528,2,31,997,-16,1,-3
3529,1,31,997,-15,0,-3
3530,3,32,998,-15,0,-3
3531,3,33,997,-17,0,-4
3532,4,31,998,-15,-1,-4
3533,4,32,996,-15,0,-4
3534,2,31,995,-15,0,-3
3535,0,32,997,-15,0,-3
3536,1,30,997,-15,1,-3
3537,1,30,995,-15,1,-3
3538,1,30,998,-14,1,-4
3539,2,30,998,-14,0,-3
3540,2,29,998,-14,0,-3
3541,0,31,998,-13,1,-2
3542,0,29,997,-13,2,-2
3543,0,31,996,-16,1,-3
3544,2,32,998,-14,2,-3
3545,2,30,998,-13,2,-3
3546,2,33,998,-17,1,-3
3547,3,32,998,-14,1,-2
3548,1,30,997,-14,1,-4
3549,1,30,998,-16,2,-3
3550,0,31,997,-14,1,-3
3551,2,31,998,-15,0,-3
3552,1,31,998,-15,1,-3
3553,2,32,998,-14,1,-4
3554,1,30,997,-14,1,-3
3555,0,31,997,-14,2,-2
3556,1,32,997,-13,0,-3
3557,2,32,997,-13,0,-4
3558,1,32,997,-15,1,-3
3559,2,33,997,-13,0,-3
3560,3,32,998,-14,0,-4
3561,2,33,997,-15,1,-4
3562,1,31,997,-14,1,-3
3563,1,31,998,-15,1,-3
3564,2,31,997,-14,2,-3
3565,1,31,997,-15,2,-3
3566,4,31,997,-15,2,-2
3567,1,30,997,-14,2,-2
3568,1,33,996,-16,0,-4
3569,0,32,998,-15,-1,-2
3570,4,32,997,-15,-2,-3
3571,1,30,998,-15,0,-3
3572,2,32,997,-15,1,-3
3573,1,32,995,-16,1,-3
3574,0,33,998,-12,1,-3
3575,0,32,997,-15,1,-2
3576,1,31,997,-15,1,-3
3577,2,31,997,-14,1,-4
3578,2,29,997,-14,0,-3
3579,1,31,997,-15,1,-3
3580,2,32,998,-15,2,-2
3581,0,31,997,-14,1,-3
3582,1,30,999,-12,1,-4
3583,2,30,998,-15,0,-3
3584,2,30,998,-15,1,-3
3585,1,29,999,-13,1,-2
3586,1,31,997,-16,2,-3
3587,1,32,997,-15,1,-3
3588,1,32,996,-16,1,-3
3589,1,33,997,-14,0,-4
3590,2,30,998,-13,1,-4
3591,3,30,998,-13,1,-4
3592,1,29,997,-14,0,-3
3593,1,30,996,-13,2,-2
3594,1,31,996,-17,0,-2
3595,1,31,999,-14,2,-3
3596,2,33,998,-13,1,-4
3597,2,33,996,-16,0,-3
3598,2,32,997,-14,1,-4
3599,2,32,996,-16,2,-2
3600,2,31,996,-13,1,-3
3601,0,30,998,-14,1,-3
3602,2,32,998,-13,0,-3
3603,1,32,997,-13,1,-4
3604,1,30,998,-15,1,-4
3605,3,32,996,-13,1,-2
3606,1,32,997,-14,0,-3
3607,1,30,997,-16,0,-3
3608,2,30,997,-14,1,-3
3609,2,31,998,-13,1,-3
3610,2,31,998,-15,0,-2
3611,1,31,996,-14,1,-3
3612,1,30,997,-15,1,-3
3613,2,29,998,-14,0,-3
3614,2,30,997,-15,1,-3
3615,3,32,999,-13,1,-3
3616,2,33,996,-14,1,-2
3617,3,31,997,-13,2,-2
3618,1,30,1000,-15,1,-3
3619,0,31,998,-14,0,-3
3620,0,28,997,-15,1,-3
3621,0,31,997,-14,0,-3
3622,1,31,997,-15,2,-3
3623,3,30,998,-15,2,-4
3624,2,32,998,-13,0,-3
3625,3,31,996,-14,1,-3
3626,2,31,996,-14,1,-3
3627,2,30,997,-13,1,-3
3628,1,31,997,-12,1,-2
3629,0,31,996,-13,1,-3
3630,3,31,998,-16,1,-2
3631,1,31,997,-16,0,-2
3632,1,31,997,-16,1,-2
3633,4,31,998,-16,0,-3
3634,2,31,996,-13,0,-3
3635,2,31,998,-13,0,-4
3636,4,32,997,-13,1,-3
3637,3,30,996,-13,2,-3
3638,0,31,997,-15,1,-3
3639,1,32,996,-13,1,-2
3640,2,31,998,-15,0,-4
3641,3,29,996,-13,2,-4
3642,4,29,997,-17,0,-3
3643,3,31,999,-14,1,-2
3644,3,31,996,-15,1,-3
3645,0,31,997,-12,1,-3
3646,0,32,998,-15,0,-3
3647,0,31,995,-15,-1,-3
3648,1,30,998,-13,1,-3
3649,2,31,996,-15,1,-4
3650,2,32,998,-15,1,-2
3651,1,31,996,-13,2,-4
3652,2,31,998,-16,1,-3
3653,1,31,997,-14,0,-2
3654,2,30,997,-16,0,-3
3655,3,32,997,-14,1,-3
3656,3,33,997,-15,1,-3
3657,2,31,996,-16,-1,-3
3658,2,31,997,-14,0,-3
3659,0,32,997,-16,0,-3
3660,2,32,998,-14,1,-3
3661,1,32,997,-14,1,-3
3662,3,31,997,-15,1,-3
3663,4,31,997,-15,2,-3
3664,2,31,997,-15,1,-3
3665,2,31,997,-15,1,-4
3666,0,29,996,-14,1,-3
3667,1,31,996,-13,0,-3
3668,2,30,998,-13,1,-3
3669,1,31,998,-13,2,-2
3670,1,30,996,-15,1,-3
3671,0,32,997,-14,1,-3
3672,0,31,997,-15,0,-3
3673,1,32,997,-13,0,-3
3674,2,31,995,-13,0,-3
3675,4,31,998,-14,0,-3
3676,3,29,996,-15,1,-2
3677,0,29,997,-15,1,-3
3678,0,31,997,-14,0,-3
3679,2,32,996,-13,0,-2
3680,3,32,996,-15,1,-3
3681,3,31,997,-14,1,-3
3682,1,30,996,-14,2,-3
3683,1,32,998,-15,1,-4
3684,1,31,998,-13,2,-4
3685,1,32,998,-15,1,-5
3686,0,31,999,-13,0,-4
3687,0,30,997,-14,1,-3
3688,2,31,997,-16,0,-3
3689,1,29,996,-14,0,-3
3690,1,30,997,-15,0,-3
3691,1,30,998,-13,3,-3
3692,0,31,997,-15,0,-3
3693,0,32,999,-13,0,-3
3694,3,31,997,-14,1,-4
3695,3,32,997,-14,0,-3
3696,1,30,998,-13,0,-2
3697,2,32,997,-14,1,-3
3698,2,31,998,-14,1,-2
3699,0,32,998,-15,1,-3
3700,2,32,996,-15,0,-3
3701,2,33,998,-15,1,-3
3702,2,32,998,-16,1,-4
3703,1,30,997,-13,1,-4
3704,0,32,996,-15,1,-2
3705,1,32,997,-15,0,-3
3706,1,33,998,-16,0,-2
3707,2,30,998,-15,0,-2
3708,2,30,997,-14,1,-3
3709,2,30,998,-14,1,-4
3710,2,31,997,-16,1,-3
3711,1,31,996,-17,0,-4
3712,2,30,996,-9,-1,-3
3713,0,32,997,-12,0,-2
3714,1,31,996,-15,0,-2
3715,0,30,997,-14,2,-3
3716,2,30,998,-12,0,-3
3717,1,30,998,-16,0,-2
3718,2,30,996,-14,0,-3
3719,3,31,998,-12,0,-3
3720,2,30,999,-14,0,-3
3721,2,33,997,-15,0,-3
3722,2,32,997,-13,-1,-4
3723,1,31,998,-14,0,-2
3724,0,30,996,-15,0,-3
3725,1,29,997,-15,1,-4
3726,3,31,998,-15,1,-4
3727,2,30,996,-14,1,-4
3728,2,31,997,-14,1,-4
3729,3,31,996,-13,1,-3
3730,1,30,997,-12,1,-3
3731,-1,33,996,-14,2,-3
3732,2,32,997,-15,1,-3
3733,1,31,998,-13,1,-2
3734,4,31,997,-15,1,-3
3735,2,30,998,-12,2,-2
3736,1,31,999,-15,1,-2
3737,1,32,997,-16,1,-3
3738,1,32,997,-12,1,-4
3739,0,31,998,-15,0,-3
3740,3,31,997,-15,1,-3
3741,2,32,996,-14,0,-3
3742,1,30,996,-15,1,-3
3743,0,31,997,-13,1,-3
3744,1,31,996,-14,1,-3
3745,0,30,997,-14,1,-3
3746,0,30,996,-13,1,-2
3747,1,31,998,-15,1,-2
3748,2,31,998,-12,1,-3
3749,0,31,999,-14,2,-3
3750,0,31,996,-14,2,-2
3751,1,30,997,-12,1,-3
3752,2,30,998,-14,0,-4
3753,2,31,996,-14,1,-3
3754,3,30,997,-15,1,-4
3755,1,31,999,-16,0,-3
3756,2,30,997,-13,2,-3
3757,2,31,997,-16,1,-3
3758,2,32,997,-16,0,-4
3759,3,31,998,-15,1,-4
3760,3,30,997,-16,0,-4
3761,1,32,997,-12,1,-4
3762,1,31,998,-13,1,-3
3763,0,30,997,-14,1,-2
3764,1,30,998,-15,0,-3
3765,2,31,998,-16,0,-3
3766,2,32,997,-16,1,-2
3767,0,31,997,-14,1,-3
3768,1,32,997,-14,1,-3
3769,3,30,997,-16,2,-2
3770,2,32,997,-13,1,-3
3771,2,32,996,-14,0,-4
3772,4,31,998,-15,1,-3
3773,2,32,997,-15,2,-3
3774,2,30,998,-13,1,-3
3775,2,31,997,-13,1,-2
3776,1,31,997,-14,0,-3
3777,0,33,997,-14,1,-3
3778,1,31,997,-14,1,-3
3779,2,32,996,-15,1,-4
3780,3,32,996,-13,1,-3
3781,3,30,997,-14,1,-4
3782,4,30,997,-14,2,-4
3783,3,32,998,-14,1,-4
3784,4,32,998,-16,1,-4
3785,4,33,997,-15,1,-3
3786,0,32,997,-13,1,-3
3787,0,31,997,-14,0,-2
3788,0,30,997,-14,1,-2
3789,1,32,998,-15,1,-2
3790,1,30,999,-14,0,-3
3791,2,30,997,-14,0,-3
3792,2,31,998,-14,1,-2
3793,2,32,996,-13,1,-2
3794,1,31,999,-13,1,-3
3795,0,30,998,-14,0,-3
3796,0,31,998,-15,1,-3
3797,4,32,997,-15,1,-4
3798,2,31,997,-15,2,-3
3799,0,30,997,-14,1,-3
3800,0,31,996,-16,2,-3
3801,0,30,997,-14,2,-2
3802,0,31,996,-14,1,-1
3803,1,32,997,-14,0,-3
3804,1,32,997,-15,0,-2
3805,2,30,998,-14,1,-3
3806,4,29,997,-15,0,-4
3807,1,30,999,-14,0,-4
3808,0,30,997,-12,0,-3
3809,2,30,997,-14,1,-4
3810,2,30,999,-15,1,-3
3811,2,32,997,-14,0,-3
3812,3,31,996,-14,2,-2
3813,2,33,996,-13,1,-3
3814,2,33,998,-14,0,-3
3815,2,32,998,-15,2,-3
3816,1,33,998,-15,1,-2
3817,3,31,997,-14,1,-2
3818,2,32,997,-14,1,-2
3819,2,32,997,-15,1,-3
3820,1,33,997,-14,0,-3
3821,1,33,998,-13,1,-3
3822,2,32,997,-13,-1,-3
3823,3,31,997,-14,1,-3
3824,3,32,998,-14,0,-4
3825,3,33,995,-15,0,-3
3826,1,32,997,-16,1,-4
3827,3,30,998,-15,1,-2
3828,2,30,997,-14,2,-3
3829,1,31,997,-15,1,-4
3830,0,31,996,-15,1,-4
3831,1,29,998,-14,1,-3
3832,2,30,996,-14,1,-3
3833,2,29,997,-14,2,-2
3834,1,29,997,-12,1,-3
3835,1,28,996,-15,0,-3
3836,2,30,997,-13,0,-4
3837,2,29,999,-15,0,-3
3838,4,31,997,-15,-1,-3
3839,2,28,996,-13,0,-3
3840,1,30,999,-16,0,-3
3841,2,31,997,-13,1,-3
3842,2,30,997,-14,1,-3
3843,1,31,996,-15,1,-4
3844,3,30,998,-14,1,-4
3845,2,29,997,-14,2,-3
3846,2,29,997,-15,1,-3
3847,3,31,996,-14,2,-3
3848,1,31,996,-14,1,-4
3849,1,33,997,-14,2,-4
3850,2,32,997,-13,1,-3
3851,2,33,997,-14,1,-4
3852,3,33,999,-15,1,-2
3853,3,32,997,-17,0,-2
3854,1,32,998,-14,1,-2
3855,3,32,996,-14,1,-3
3856,2,31,997,-15,1,-4
3857,2,33,998,-14,1,-3
3858,3,31,997,-15,2,-4
3859,1,31,997,-13,2,-4
3860,1,32,996,-16,1,-3
3861,0,30,997,-14,1,-4
3862,3,31,997,-13,1,-3
3863,4,32,997,-16,0,-3
3864,0,31,997,-12,2,-3
3865,1,33,996,-13,0,-3
3866,0,31,996,-13,0,-4
3867,1,32,996,-13,2,-3
3868,2,31,998,-16,1,-3
3869,1,32,998,-13,2,-3
3870,3,30,996,-13,2,-2
3871,3,31,997,-13,1,-4
3872,1,32,997,-13,0,-2
3873,2,30,998,-15,1,-3
3874,2,30,997,-13,1,-4
3875,1,32,998,-15,-1,-4
3876,2,31,998,-15,0,-4
3877,3,32,997,-15,0,-3
3878,3,32,998,-14,2,-2
3879,2,31,997,-16,1,-3
3880,2,31,996,-14,1,-4
3881,1,33,996,-14,0,-4
3882,3,33,997,-14,1,-3
3883,3,34,997,-15,0,-4
3884,2,32,997,-15,0,-3
3885,3,31,996,-16,1,-4
3886,4,30,996,-15,0,-4
3887,1,29,996,-14,0,-4
3888,1,31,998,-14,0,-3
3889,3,31,998,-14,1,-4
3890,1,32,996,-14,0,-4
3891,8,31,1000,-15,0,-3
3892,12,31,1003,-16,0,-3
3893,9,27,996,-15,1,-4
3894,5,26,998,-14,1,-4
3895,0,25,999,-15,1,-3
3896,-1,29,994,-13,2,-3
3897,0,34,995,-12,0,-4
3898,3,38,999,-12,0,-5
3899,5,36,996,-14,0,-4
3900,6,36,997,-15,1,-4
3901,5,35,998,-15,0,-3
3902,2,30,996,-16,1,-3
3903,0,26,996,-15,1,-4
3904,-2,27,997,-15,2,-4
3905,-1,30,997,-12,2,-4
3906,-1,32,999,-13,1,-3
3907,-1,33,997,-14,1,-3
3908,-1,31,998,-13,2,-3
3909,-3,33,997,-15,2,-3
3910,-4,32,996,-14,0,-3
3911,-4,30,996,-13,1,-3
3912,-5,29,997,-15,1,-4
3913,-5,29,996,-15,0,-4
3914,-2,31,994,-15,1,-4
3915,-5,30,997,-13,2,-3
3916,-4,30,995,-12,0,-3
3917,-1,30,997,-15,1,-3
3918,-2,29,999,-15,1,-2
3919,-2,29,998,-14,1,-3
3920,-1,30,998,-14,1,-3
3921,-2,30,998,-15,0,-4
3922,-1,31,998,-11,2,-3
3923,-1,30,997,-12,1,-2
3924,0,32,997,-14,-1,-2
3925,0,33,996,-14,0,-2
3926,1,34,998,-15,-1,-1
3927,0,33,997,-14,0,-2
3928,2,32,997,-14,1,-3
3929,3,33,997,-15,2,-2
3930,2,33,996,-14,2,-3
3931,2,33,997,-15,2,-3
3932,5,33,997,-14,1,-3
3933,3,31,998,-15,1,-3
3934,4,30,997,-14,1,-2
3935,4,31,996,-14,1,-2
3936,6,32,996,-14,1,-3
3937,5,32,998,-14,3,-2
3938,5,33,997,-14,-1,-2
3939,4,31,997,-15,0,-2
3940,5,31,996,-15,1,-3
3941,5,27,998,-16,1,-3
3942,4,28,998,-15,0,-3
3943,4,29,998,-15,1,-3
3944,4,30,998,-14,1,-3
3945,1,31,996,-14,1,-3
3946,0,34,995,-14,1,-3
3947,0,34,997,-12,1,-3
3948,2,31,997,-16,1,-2
3949,1,31,997,-14,1,-2
3950,1,32,996,-11,1,-4
3951,1,32,996,-14,-1,-3
3952,1,32,997,-14,1,-3
3953,1,33,996,-15,2,-3
3954,0,32,996,-13,2,-3
3955,2,31,997,-13,1,-2
3956,2,33,997,-15,0,-2
3957,3,32,997,-13,1,-3
3958,1,30,998,-13,1,-2
3959,2,30,997,-16,1,-2
3960,1,31,996,-14,0,-3
3961,3,31,995,-15,1,-2
3962,4,31,997,-13,0,-3
3963,2,30,997,-14,1,-2
3964,2,31,997,-14,0,-3
3965,2,31,997,-13,1,-3
3966,5,33,998,-15,1,-2
3967,4,31,998,-15,2,-2
3968,3,31,998,-14,2,-4
3969,2,30,996,-14,1,-3
3970,2,32,996,-14,1,-3
3971,1,31,998,-14,2,-4
3972,3,31,996,-13,0,-4
3973,3,29,996,-13,0,-3
3974,0,31,996,-15,0,-3
3975,0,32,996,-15,0,-4
3976,1,32,998,-14,2,-3
3977,1,32,997,-13,0,-4
3978,1,33,997,-14,1,-3
3979,0,33,997,-15,1,-2
3980,0,32,997,-14,0,-3
3981,0,30,998,-14,0,-3
3982,1,30,998,-16,0,-3
3983,1,30,997,-14,0,-3
3984,1,30,998,-15,0,-3
3985,1,32,998,-14,1,-3
3986,0,33,997,-12,1,-3
3987,1,32,996,-14,0,-3
3988,0,32,997,-14,0,-2
3989,1,31,998,-15,0,-4
3990,2,29,997,-13,1,-4
3991,2,31,995,-14,1,-3
3992,2,31,998,-15,2,-3
3993,2,29,996,-14,1,-2
3994,3,31,997,-15,1,-3
3995,3,32,996,-14,0,-3
3996,3,32,998,-12,0,-3
3997,2,31,997,-16,1,-3
3998,3,30,997,-15,1,-2
3999,2,31,998,-14,1,-3
4000,3,31,996,-14,0,-2
4001,3,31,997,-13,1,-3
4002,2,32,999,-15,1,-3
4003,0,32,998,-14,1,-3
4004,3,31,996,-15,0,-3
4005,0,33,998,-15,1,-3
4006,1,32,997,-14,1,-4
4007,4,30,998,-15,0,-3
4008,2,31,997,-13,1,-3
4009,2,32,996,-15,1,-3
4010,0,29,997,-14,0,-3
4011,0,30,998,-15,1,-2
4012,1,30,997,-15,0,-3
4013,2,30,997,-15,0,-3
4014,1,32,997,-16,1,-4
4015,2,30,997,-14,1,-4
4016,2,30,999,-12,0,-4
4017,0,31,997,-14,1,-2
4018,1,31,998,-15,1,-2
4019,2,32,996,-14,1,-2
4020,2,31,997,-13,2,-3
4021,2,31,996,-16,1,-2
4022,1,31,997,-13,2,-3
4023,2,31,996,-12,1,-3
4024,2,30,997,-15,1,-3
4025,3,30,996,-13,1,-2
4026,1,30,996,-15,1,-4
4027,1,32,997,-15,1,-4
4028,3,30,996,-14,0,-3
4029,0,32,997,-15,1,-3
4030,2,32,999,-14,1,-4
4031,2,30,996,-16,0,-3
4032,2,30,996,-14,0,-3
4033,1,30,997,-13,0,-3
4034,1,33,997,-14,0,-3
4035,0,33,996,-14,0,-2
4036,0,30,996,-15,0,-3
4037,2,31,997,-16,1,-3
4038,1,31,996,-15,1,-3
4039,2,29,997,-15,0,-3
4040,2,29,999,-14,1,-3
4041,1,29,998,-16,1,-2
4042,0,32,998,-15,1,-2
4043,0,31,998,-13,1,-3
4044,0,30,998,-13,1,-4
4045,0,33,998,-15,0,-3
4046,2,32,998,-15,0,-3
4047,2,31,997,-15,2,-3
4048,0,31,997,-15,1,-2
4049,0,30,997,-14,1,-2
4050,1,31,997,-12,0,-3
4051,2,32,996,-15,1,-4
4052,1,31,997,-14,1,-3
4053,1,32,999,-11,1,-3
4054,1,31,996,-8,7,1
4055,0,30,995,-15,3,-2
4056,1,31,996,-16,2,-2
4057,3,31,998,-13,0,-3
4058,2,31,997,-15,0,-3
4059,2,31,998,-15,0,-4
4060,2,29,998,-13,1,-2
4061,2,30,997,-14,1,-3
4062,2,30,997,-14,1,-3
4063,1,30,996,-15,1,-3
4064,3,31,997,-15,0,-3
4065,3,33,996,-15,0,-3
4066,3,33,997,-14,2,-2
4067,2,33,997,-15,1,-3
4068,0,32,997,-13,0,-4
4069,1,32,996,-15,1,-4
4070,1,30,997,-13,1,-2
4071,3,32,997,-14,1,-3
4072,3,31,998,-15,0,-3
4073,0,31,998,-14,0,-2
4074,1,31,998,-15,1,-2
4075,2,31,997,-14,0,-3
4076,1,33,996,-14,0,-3
4077,1,31,997,-14,2,-2
4078,1,32,996,-13,2,-3
4079,2,32,999,-14,1,-3
4080,2,32,997,-15,1,-4
4081,3,31,996,-15,1,-3
4082,3,29,997,-15,1,-3
4083,0,32,999,-15,1,-3
4084,2,32,997,-14,0,-4
4085,2,30,997,-13,1,-2
4086,3,30,998,-15,1,-3
4087,3,31,997,-15,1,-2
4088,2,32,997,-14,1,-3
4089,2,31,998,-14,0,-3
4090,2,31,998,-13,1,-4
4091,1,32,996,-13,1,-3
4092,2,31,997,-12,1,-3
4093,1,32,997,-14,1,-3
4094,1,31,998,-15,1,-3
4095,0,29,998,-14,2,-4
4096,0,30,998,-15,1,-4
4097,2,30,997,-14,1,-3
4098,2,30,997,-13,2,-3
4099,2,31,997,-15,0,-3
4100,2,31,998,-14,0,-3
4101,0,31,998,-15,1,-4
4102,0,33,997,-15,0,-3
4103,0,32,997,-14,1,-3
4104,1,32,998,-14,0,-4
4105,1,32,997,-13,0,-4
4106,1,31,996,-14,1,-3
4107,1,31,997,-14,1,-3
4108,3,31,997,-15,0,-3
4109,4,31,998,-12,1,-3
4110,2,29,998,-13,1,-3
4111,2,31,997,-14,1,-3
4112,3,31,997,-14,2,-4
4113,2,29,997,-13,1,-3
4114,0,30,997,-13,0,-3
4115,0,30,997,-13,1,-3
4116,3,32,997,-14,1,-3
4117,1,31,998,-14,2,-3
4118,3,31,996,-15,2,-2
4119,3,31,998,-14,0,-3
4120,1,30,996,-15,0,-3
4121,2,29,997,-15,1,-2
4122,2,32,996,-13,0,-3
4123,2,30,997,-14,1,-3
4124,4,30,998,-13,0,-4
4125,3,30,997,-15,2,-3
4126,1,31,997,-16,1,-3
4127,2,30,996,-14,1,-3
4128,1,32,997,-14,1,-4
4129,1,31,996,-16,1,-4
4130,2,33,997,-13,2,-2
4131,2,32,997,-15,1,-3
4132,3,31,997,-13,2,-3
4133,1,32,996,-14,1,-3
4134,0,30,996,-15,0,-3
4135,1,32,997,-12,1,-4
4136,1,30,996,-14,1,-3
4137,2,29,998,-17,1,-4
4138,1,30,999,-14,0,-3
4139,2,32,996,-14,1,-3
4140,1,32,997,-15,1,-2
4141,2,32,998,-15,1,-2
4142,1,32,997,-16,2,-2
4143,1,32,998,-15,2,-3
4144,2,31,996,-16,1,-3
4145,1,30,996,-14,1,-3
4146,0,31,996,-13,0,-3
4147,0,32,998,-14,1,-3
4148,0,32,997,-15,1,-2
4149,0,32,997,-15,0,-4
4150,3,31,998,-13,1,-4
4151,1,31,996,-14,1,-4
4152,1,29,997,-14,0,-3
4153,1,30,997,-14,0,-2
4154,0,30,998,-14,0,-3
4155,0,30,998,-14,1,-3
4156,2,30,997,-14,0,-3
4157,1,30,997,-15,0,-2
4158,0,31,998,-14,1,-2
4159,3,29,996,-15,0,-3
4160,3,33,997,-15,1,-3
4161,3,31,996,-14,1,-3
4162,2,30,996,-14,1,-3
4163,1,32,997,-14,1,-3
4164,2,30,999,-14,1,-4
4165,4,31,997,-16,1,-3
4166,3,30,998,-16,2,-3
4167,3,31,999,-13,0,-3
4168,4,33,999,-15,0,-2
4169,3,32,996,-13,0,-3
4170,2,31,996,-16,1,-4
4171,1,31,997,-13,0,-3
4172,2,31,997,-14,2,-3
4173,2,32,997,-13,1,-4
4174,2,32,998,-14,0,-4
4175,2,32,998,-13,1,-3
4176,1,33,997,-15,1,-2
4177,1,32,997,-13,1,-3
4178,2,32,995,-15,1,-3
4179,1,32,996,-15,1,-3
4180,0,31,996,-16,1,-3
4181,1,32,997,-15,1,-3
4182,1,31,998,-14,1,-3
4183,1,31,997,-14,0,-4
4184,1,30,997,-15,1,-3
4185,0,30,997,-14,2,-3
4186,0,32,996,-16,2,-2
4187,1,30,997,-15,2,-3
4188,2,30,997,-13,2,-1
4189,3,32,997,-15,2,-3
4190,1,30,998,-14,2,-3
4191,0,30,999,-14,1,-4
4192,1,30,997,-15,1,-3
4193,3,30,997,-15,2,-2
4194,1,30,998,-15,2,-2
4195,1,30,998,-14,1,-3
4196,1,31,999,-14,1,-3
4197,1,30,998,-15,1,-2
4198,1,31,996,-13,1,-3
4199,1,30,998,-14,1,-3
4200,2,32,999,-15,0,-3
4201,2,32,997,-13,1,-2
4202,2,32,998,-14,1,-2
4203,1,32,997,-12,1,-4
4204,1,31,997,-15,2,-3
4205,1,32,999,-13,1,-2
4206,2,31,998,-15,1,-2
4207,2,33,996,-15,1,-3
4208,4,34,996,-14,0,-4
4209,3,32,997,-14,0,-3
4210,1,31,997,-13,1,-3
4211,0,32,998,-13,2,-3
4212,1,31,997,-15,0,-3
4213,1,31,998,-14,0,-3
4214,3,31,998,-15,2,-2
4215,3,31,998,-15,1,-1
4216,1,30,996,-14,2,-4
4217,1,32,997,-14,2,-3
4218,-1,32,997,-13,2,-2
4219,1,32,998,-15,1,-4
4220,0,30,997,-15,1,-4
4221,0,31,998,-14,1,-4
4222,0,32,997,-15,0,-4
4223,1,31,997,-15,2,-2
4224,1,31,996,-16,1,-3
4225,1,29,996,-13,1,-4
4226,0,31,995,-12,1,-4
4227,1,30,997,-13,2,-3
4228,3,32,996,-14,1,-2
4229,2,30,998,-13,1,-3
4230,2,31,998,-13,2,-4
4231,1,30,997,-16,1,-3
4232,0,28,999,-13,0,-3
4233,2,33,997,-14,0,-4
4234,2,32,997,-16,0,-3
4235,2,32,997,-13,0,-3
4236,2,32,996,-14,1,-4
4237,1,31,998,-14,0,-3
4238,2,32,998,-14,1,-3
4239,2,31,996,-15,1,-3
4240,1,32,997,-13,1,-2
4241,1,32,997,-14,1,-4
4242,1,32,997,-15,1,-3
4243,2,30,998,-13,0,-3
4244,1,32,998,-15,1,-4
4245,0,31,996,-16,0,-3
4246,2,32,997,-15,1,-2
4247,0,33,997,-14,2,-3
4248,3,31,998,-15,1,-4
4249,1,31,998,-14,2,-4
4250,1,30,996,-15,1,-3
4251,1,31,997,-13,0,-3
4252,2,33,997,-15,1,-3
4253,2,31,998,-15,2,-3
4254,4,32,997,-13,1,-3
4255,1,30,997,-14,2,-3
4256,4,30,998,-14,0,-3
4257,2,29,999,-13,1,-4
4258,1,29,999,-15,1,-3
4259,1,30,997,-15,1,-2
4260,2,31,997,-14,1,-3
4261,2,29,996,-15,2,-2
4262,2,31,997,-14,1,-3
4263,1,32,998,-14,1,-2
4264,2,31,997,-15,0,-3
4265,0,31,997,-13,1,-3
4266,1,32,996,-13,0,-3
4267,1,32,998,-15,0,-3
4268,3,31,997,-13,0,-3
4269,1,29,998,-14,1,-4
4270,0,32,995,-14,1,-4
4271,2,32,998,-14,1,-4
4272,1,32,997,-14,1,-3
4273,1,30,996,-15,1,-3
4274,3,32,997,-14,1,-3
4275,2,31,998,-15,1,-2
4276,1,31,997,-14,1,-3
4277,0,31,997,-13,1,-2
4278,1,32,998,-15,0,-3
4279,1,32,999,-14,1,-3
4280,3,31,996,-16,1,-3
4281,1,32,997,-14,1,-3
4282,2,32,997,-12,2,-1
4283,1,32,997,-14,1,-3
4284,2,33,998,-13,0,-2
4285,3,32,997,-13,1,-3
4286,1,32,998,-14,1,-3
4287,2,31,997,-14,1,-3
4288,3,30,996,-15,1,-3
4289,3,31,997,-13,0,-2
4290,2,30,998,-13,-1,-3
4291,2,30,999,-15,0,-3
4292,2,29,996,-15,-1,-3
4293,4,30,997,-16,1,-2
4294,3,31,996,-13,1,-4
4295,0,32,999,-13,1,-4
4296,1,31,997,-15,0,-4
4297,2,32,996,-14,0,-2
4298,2,31,997,-15,1,-2
4299,2,31,997,-15,1,-3
4300,4,31,996,-13,2,-3
4301,1,31,997,-16,0,-4
4302,1,31,998,-13,0,-4
4303,1,31,997,-14,0,-3
4304,1,31,998,-13,1,-4
4305,0,31,998,-15,0,-3
4306,2,31,997,-15,2,-3
4307,0,31,998,-13,1,-4
4308,2,30,997,-16,1,-3
4309,1,32,998,-15,1,-3
4310,1,32,997,-14,2,-3
4311,1,30,999,-16,0,-3
4312,1,30,998,-16,1,-4
4313,2,31,997,-14,1,-4
4314,2,30,997,-14,1,-4
4315,1,33,998,-13,2,-4
4316,2,32,998,-13,1,-4
4317,3,31,997,-13,1,-5
4318,3,31,996,-14,0,-3
4319,0,33,997,-15,1,-3
4320,3,30,996,-13,1,-3
4321,1,32,996,-13,1,-3
4322,4,30,997,-14,1,-3
4323,2,28,996,-15,2,-3
4324,0,31,997,-13,0,-3
4325,2,31,997,-15,0,-1
4326,1,33,997,-16,0,-2
4327,2,32,996,-14,1,-3
4328,-1,31,998,-13,1,-3
4329,0,32,997,-14,2,-3
4330,0,30,997,-14,2,-3
4331,2,31,996,-14,1,-3
4332,2,31,996,-15,1,-3
4333,3,32,998,-15,0,-2
4334,0,30,998,-14,1,-3
4335,0,31,997,-14,2,-2
4336,2,31,997,-13,1,-2
4337,1,31,997,-15,1,-4
4338,2,31,997,-13,0,-4
4339,2,33,998,-14,1,-3
4340,2,32,997,-14,0,-3
4341,0,28,997,-13,1,-3
4342,3,33,996,-15,0,-3
4343,0,33,996,-13,2,-3
4344,1,30,996,-15,0,-3
4345,1,32,997,-14,1,-2
4346,0,30,997,-12,1,-4
4347,1,32,998,-12,0,-3
4348,3,32,996,-15,1,-3
4349,1,29,998,-13,1,-3
4350,1,30,999,-14,1,-3
4351,0,30,998,-13,1,-4
4352,1,30,997,-14,0,-4
4353,1,30,997,-15,2,-2
4354,0,31,997,-14,0,-3
4355,0,31,998,-15,0,-5
4356,2,33,998,-14,0,-4
4357,0,32,998,-14,0,-2
4358,0,32,997,-15,2,-3
4359,1,32,999,-15,1,-2
4360,0,31,996,-14,2,-3
4361,0,30,996,-15,0,-4
4362,1,32,997,-15,0,-3
4363,2,32,998,-13,1,-3
4364,3,31,997,-14,1,-3
4365,2,32,999,-12,0,-2
4366,0,32,997,-13,2,-2
4367,1,31,998,-14,1,-2
4368,2,30,995,-13,1,-3
4369,0,30,998,-14,0,-3
4370,1,30,997,-14,0,-2
4371,0,32,997,-13,0,-2
4372,3,32,997,-15,1,-3
4373,1,31,996,-15,2,-2
4374,4,30,998,-13,2,-3
4375,0,31,997,-17,0,-3
4376,0,29,998,-14,1,-3
4377,4,30,997,-13,1,-4
4378,3,29,996,-14,0,-2
4379,0,30,996,-14,1,-3
4380,3,30,997,-15,0,-4
4381,1,30,997,-13,1,-4
4382,1,32,997,-13,-1,-4
4383,3,31,998,-14,-1,-3
4384,1,32,997,-15,0,-4
4385,3,30,998,-15,0,-4
4386,2,33,997,-15,1,-4
4387,2,31,996,-18,4,-1
4388,3,30,999,-17,5,-3
4389,1,31,998,-15,1,-3
4390,2,32,997,-13,1,-3
4391,1,31,996,-15,1,-4
4392,1,30,997,-14,1,-4
4393,1,32,998,-14,1,-3
4394,1,30,997,-15,2,-3
4395,2,29,996,-14,1,-3
4396,2,28,997,-13,2,-3
4397,2,31,995,-14,1,-3
4398,2,33,997,-15,1,-2
4399,1,33,998,-14,1,-4
4400,0,31,997,-13,2,-4
4401,2,30,998,-14,1,-4
4402,2,30,997,-14,0,-3
4403,1,31,997,-15,0,-2
4404,2,30,996,-14,1,-2
4405,1,32,997,-14,1,-4
4406,3,31,997,-14,1,-4
4407,2,30,998,-13,1,-3
4408,0,30,998,-14,0,-4
4409,2,31,998,-13,1,-3
4410,2,32,998,-13,1,-3
4411,1,32,998,-14,1,-2
4412,2,31,996,-15,0,-3
4413,0,32,996,-15,1,-3
4414,1,30,997,-14,1,-4
4415,2,30,998,-12,1,-4
4416,3,31,996,-15,2,-3
4417,2,32,998,-14,2,-4
4418,1,33,997,-14,1,-4
4419,1,30,998,-14,1,-4
4420,1,32,998,-13,0,-4
4421,0,31,997,-13,1,-4
4422,0,31,997,-15,0,-3
4423,2,31,997,-14,1,-4
4424,2,31,998,-17,1,-2
4425,2,31,997,-13,0,-2
4426,3,32,996,-15,1,-3
4427,1,31,996,-15,1,-3
4428,3,33,997,-15,1,-3
4429,2,31,998,-16,1,-4
4430,3,30,997,-15,1,-4
4431,3,31,997,-14,0,-3
4432,2,32,996,-15,0,-2
4433,1,32,999,-15,1,-2
4434,1,32,998,-14,2,-3
4435,2,30,998,-15,1,-3
4436,2,31,997,-13,0,-2
4437,3,31,997,-14,0,-4
4438,1,32,998,-14,1,-3
4439,1,31,998,-13,1,-3
4440,1,31,998,-14,2,-4
4441,2,31,996,-13,0,-4
4442,2,30,997,-13,1,-3
4443,3,31,996,-15,1,-2
4444,1,30,996,-13,1,-2
4445,1,30,996,-16,1,-3
4446,3,31,997,-15,1,-3
4447,1,30,998,-13,1,-4
4448,1,30,998,-15,0,-3
4449,2,31,996,-14,0,-3
4450,2,30,998,-15,0,-3
4451,1,32,996,-13,0,-3
4452,3,31,997,-13,0,-3
4453,1,31,998,-16,0,-2
4454,1,31,997,-15,0,-3
4455,2,32,997,-15,0,-3
4456,1,32,997,-14,1,-3
4457,2,34,999,-14,0,-3
4458,0,32,997,-14,0,-4
4459,2,31,997,-15,2,-3
4460,1,31,998,-13,0,-3
4461,1,31,998,-15,1,-3
4462,3,33,999,-14,0,-3
4463,2,31,998,-15,-1,-3
4464,1,30,999,-14,-1,-2
4465,1,33,997,-15,1,-3
4466,1,31,997,-14,1,-4
4467,0,30,998,-15,0,-2
4468,3,30,996,-15,0,-2
4469,0,32,997,-15,1,-3
4470,2,31,997,-13,1,-3
4471,1,31,998,-12,2,-4
4472,2,30,997,-14,1,-4
4473,3,31,997,-14,1,-3
4474,1,33,996,-14,0,-3
4475,2,31,997,-14,1,-4
4476,1,29,996,-14,0,-2
4477,1,30,998,-14,1,-3
4478,1,31,997,-15,1,-3
4479,3,31,997,-14,0,-4
4480,1,32,997,-13,0,-5
4481,2,31,995,-13,0,-4
4482,1,32,996,-13,1,-2
4483,0,30,996,-14,0,-3
4484,2,32,998,-15,1,-3
4485,1,33,996,-15,1,-2
4486,2,31,997,-14,1,-2
4487,2,30,998,-14,1,-3
4488,0,31,998,-14,2,-3
4489,1,32,997,-12,0,-4
4490,2,31,997,-15,0,-3
4491,1,31,997,-14,1,-3
4492,1,31,998,-15,1,-3
4493,2,33,999,-14,2,-3
4494,3,31,997,-15,0,-3
4495,2,30,997,-14,0,-3
4496,2,31,997,-13,0,-3
4497,0,30,998,-12,0,-3
4498,2,32,998,-13,0,-2
4499,3,33,998,-14,1,-3
4500,3,32,997,-14,0,-3
4501,1,31,998,-13,0,-2
4502,1,30,997,-17,0,-3
4503,2,29,997,-12,2,-4
4504,2,29,998,-15,0,-3
4505,2,30,997,-15,0,-3
4506,1,30,997,-12,0,-4
4507,1,31,998,-16,0,-4
4508,1,31,998,-13,0,-3
4509,2,32,998,-15,-1,-3
4510,2,31,997,-15,1,-3
4511,4,34,996,-14,2,-4
4512,2,30,997,-14,1,-3
4513,2,33,999,-14,1,-3
4514,1,33,996,-14,0,-3
4515,0,32,996,-15,1,-3
4516,2,30,999,-14,1,-3
4517,0,32,998,-14,0,-4
4518,1,31,998,-13,0,-3
4519,0,32,996,-14,0,-4
4520,1,32,998,-14,0,-2
4521,2,30,998,-13,0,-3
4522,1,31,997,-13,2,-3
4523,1,30,997,-14,1,-4
4524,2,31,996,-14,2,-3
4525,1,32,998,-14,1,-4
4526,1,31,997,-14,1,-4
4527,1,30,997,-13,1,-2
4528,0,31,998,-15,1,-3
4529,2,30,997,-14,1,-3
4530,0,30,997,-14,3,-2
4531,1,30,999,-13,1,-3
4532,1,32,998,-14,1,-3
4533,2,32,996,-13,1,-3
4534,2,32,997,-15,0,-4
4535,2,32,996,-13,1,-4
4536,1,32,997,-14,1,-4
4537,1,30,996,-15,1,-3
4538,0,32,996,-13,1,-3
4539,2,31,997,-14,1,-3
4540,4,33,997,-12,0,-3
4541,1,32,998,-13,1,-3
4542,1,30,998,-15,2,-2
4543,1,30,997,-15,2,-2
4544,2,31,998,-14,2,-2
4545,2,31,998,-14,2,-4
4546,1,31,997,-15,0,-3
4547,1,30,997,-14,0,-4
4548,2,32,999,-15,1,-4
4549,3,32,996,-14,1,-4
4550,2,33,997,-14,0,-3
4551,3,32,998,-14,2,-3
4552,2,32,997,-13,1,-3
4553,4,30,995,-13,2,-4
4554,1,32,997,-15,0,-2
4555,0,31,996,-15,0,-4
4556,1,30,997,-16,0,-4
4557,0,31,999,-15,1,-3
4558,2,31,996,-15,0,-3
4559,2,31,998,-13,1,-4
4560,1,29,997,-14,1,-3
4561,1,32,998,-16,1,-3
4562,2,31,995,-15,1,-3
4563,0,31,997,-14,1,-3
4564,2,30,998,-15,1,-3
4565,2,31,996,-13,1,-3
4566,1,29,997,-14,0,-4
4567,1,30,997,-14,1,-4
4568,2,32,997,-13,2,-4
4569,2,32,997,-15,1,-4
4570,2,31,996,-13,1,-4
4571,0,31,997,-13,1,-2
4572,1,33,997,-14,1,-3
4573,1,31,998,-13,0,-4
4574,0,31,998,-16,2,-3
4575,2,31,998,-13,2,-3
4576,0,31,998,-14,0,-3
4577,2,31,997,-14,0,-4
4578,2,33,998,-14,1,-3
4579,1,32,998,-14,1,-3
4580,2,31,997,-14,-1,-3
4581,3,34,996,-15,0,-3
4582,1,33,996,-14,1,-4
4583,1,33,998,-13,2,-3
4584,1,32,997,-14,1,-3
4585,2,32,998,-15,2,-2
4586,1,30,997,-15,0,-2
4587,0,31,998,-15,1,-2
4588,1,31,997,-15,2,-3
4589,1,33,996,-15,1,-3
4590,2,33,997,-14,1,-2
4591,0,31,998,-15,1,-3
4592,3,32,998,-13,2,-1
4593,2,32,998,-16,0,-3
4594,3,30,997,-14,0,-4
4595,3,29,997,-14,0,-4
4596,1,31,997,-14,1,-2
4597,1,32,996,-14,1,-3
4598,1,32,998,-15,2,-2
4599,0,32,998,-14,1,-3
4600,1,29,997,-15,1,-2
4601,0,30,997,-15,2,-3
4602,0,30,999,-14,1,-2
4603,2,31,998,-15,1,-3
4604,3,32,996,-13,1,-3
4605,0,30,997,-12,0,-3
4606,2,31,997,-13,1,-3
4607,2,31,998,-13,2,-3
4608,3,32,997,-16,1,-3
4609,1,31,997,-15,1,-2
4610,1,31,996,-16,0,-3
4611,0,32,996,-16,1,-2
4612,1,31,999,-14,1,-2
4613,1,32,998,-16,1,-2
4614,2,32,998,-14,2,-2
4615,2,30,998,-16,2,-3
4616,3,31,996,-14,2,-3
4617,1,31,998,-13,1,-3
4618,1,32,996,-15,0,-2
4619,1,30,997,-12,1,-3
4620,1,30,996,-14,0,-2
4621,1,31,996,-16,0,-3
4622,2,31,998,-13,-1,-3
4623,1,29,999,-14,2,-3
4624,2,30,998,-15,0,-4
4625,0,33,997,-14,1,-4
4626,1,31,997,-14,1,-4
4627,1,30,998,-12,0,-3
4628,2,31,998,-13,0,-2
4629,2,29,999,-15,1,-3
4630,4,31,997,-14,1,-2
4631,2,30,998,-15,1,-2
4632,2,30,998,-15,1,-3
4633,2,31,997,-14,0,-4
4634,1,30,997,-15,0,-4
4635,1,33,996,-14,1,-3
4636,2,32,996,-14,2,-3
4637,0,31,997,-15,0,-4
4638,1,30,998,-14,1,-4
4639,0,31,999,-14,0,-3
4640,1,30,997,-14,2,-3
4641,0,30,997,-12,1,-3
4642,1,32,997,-14,1,-3
4643,1,30,998,-15,1,-3
4644,1,32,996,-15,2,-3
4645,2,31,997,-15,0,-3
4646,3,30,997,-13,0,-3
4647,3,30,996,-16,1,-4
4648,2,31,998,-14,1,-2
4649,1,32,998,-15,0,-3
4650,0,30,997,-15,1,-3
4651,3,31,997,-14,1,-5
4652,1,31,998,-14,1,-3
4653,1,32,997,-15,2,-3
4654,1,32,997,-15,1,-3
4655,2,32,997,-15,1,-2
4656,2,30,997,-13,1,-3
4657,0,30,996,-14,0,-4
4658,3,32,996,-14,0,-3
4659,2,30,997,-14,1,-3
4660,3,30,996,-14,0,-3
4661,3,30,996,-14,1,-3
4662,4,31,996,-17,0,-2
4663,1,32,997,-15,1,-3
4664,1,31,997,-15,2,-3
4665,1,30,997,-15,2,-3
4666,0,31,998,-13,2,-3
4667,2,30,997,-14,1,-2
4668,1,29,997,-14,0,-3
4669,1,33,997,-14,0,-3
4670,1,33,997,-15,0,-3
4671,1,30,996,-13,1,-2
4672,0,30,997,-14,1,-3
4673,0,30,998,-14,0,-2
4674,0,30,997,-12,-1,-2
4675,1,31,998,-14,0,-3
4676,2,29,998,-14,1,-3
4677,4,31,996,-12,0,-2
4678,0,33,998,-14,0,-4
4679,0,30,998,-15,1,-3
4680,2,30,997,-14,1,-3
4681,3,30,997,-14,1,-3
4682,1,31,998,-14,1,-3
4683,1,30,997,-14,0,-3
4684,-1,32,997,-15,1,-2
4685,2,32,997,-13,0,-3
4686,1,32,998,-14,1,-3
4687,0,31,996,-14,1,-4
4688,2,32,996,-14,0,-4
4689,2,31,998,-15,1,-4
4690,2,32,996,-13,1,-3
4691,2,33,996,-13,2,-4
4692,2,30,998,-15,1,-3
4693,0,31,996,-16,0,-3
4694,1,31,997,-14,0,-2
4695,2,32,997,-15,2,-4
4696,2,29,997,-13,0,-4
4697,2,29,996,-14,1,-3
4698,0,32,999,-13,1,-3
4699,0,31,999,-13,1,-3
4700,3,31,997,-15,1,-3
4701,1,31,998,-16,1,-3
4702,0,31,997,-15,1,-2
4703,2,32,996,-15,2,-3
4704,2,31,999,-14,1,-3
4705,1,32,997,-14,0,-2
4706,4,31,999,-15,1,-2
4707,4,30,998,-16,1,-4
4708,1,32,998,-13,1,-3
4709,1,32,997,-14,1,-4
4710,0,30,996,-14,0,-4
4711,0,33,997,-14,0,-3
4712,0,30,997,-14,0,-3
4713,1,30,996,-14,1,-4
4714,-1,31,997,-14,1,-3
4715,0,31,997,-15,0,-3
4716,1,32,997,-15,1,-3
4717,1,30,997,-16,1,-2
4718,0,33,997,-14,1,-2
4719,0,32,997,-14,2,-2
4720,2,32,998,-15,1,-3
4721,1,30,997,-14,0,-3
4722,2,31,996,-18,0,-4
4723,4,31,996,-14,2,-4
4724,3,30,997,-14,1,-3
4725,1,30,997,-17,2,-4
4726,2,31,999,-12,-1,-4
4727,1,32,996,-14,0,-3
4728,2,32,996,-11,0,-3
4729,1,31,997,-16,0,-2
4730,2,31,997,-16,0,-4
4731,1,31,996,-13,1,-3
4732,3,35,997,-15,1,-3
4733,1,32,997,-13,1,-3
4734,1,32,996,-13,1,-3
4735,3,32,998,-17,1,-3
4736,3,30,997,-15,1,-4
4737,1,31,995,-15,0,-4
4738,3,31,996,-15,1,-3
4739,1,31,999,-14,1,-3
4740,2,31,997,-15,-1,-3
4741,2,31,996,-12,0,-3
4742,1,29,997,-15,1,-2
4743,1,31,997,-17,0,-2
4744,1,31,997,-14,0,-3
4745,1,31,995,-14,0,-3
4746,1,32,996,-14,1,-2
4747,2,31,997,-14,3,-3
4748,0,31,997,-14,0,-5
4749,2,30,997,-13,0,-4
4750,1,29,998,-13,1,-3
4751,1,32,998,-14,1,-2
4752,4,32,997,-12,1,-3
4753,1,30,998,-15,0,-3
4754,1,29,998,-14,1,-4
4755,1,31,997,-15,1,-3
4756,0,32,999,-13,2,-3
4757,1,31,996,-15,1,-2
4758,2,31,996,-14,1,-3
4759,3,32,998,-15,0,-3
4760,2,31,998,-14,1,-3
4761,1,32,997,-16,0,-3
4762,3,31,997,-16,1,-3
4763,0,30,997,-14,1,-2
4764,1,31,997,-15,1,-3
4765,1,31,997,-14,1,-3
4766,3,32,996,-14,0,-3
4767,1,30,997,-15,1,-3
4768,2,30,996,-14,0,-3
4769,1,30,998,-16,0,-2
4770,2,30,998,-14,1,-2
4771,1,31,997,-14,0,-4
4772,3,32,997,-15,0,-4
4773,2,31,997,-14,0,-2
4774,2,30,997,-15,0,-3
4775,3,31,997,-13,-1,-2
4776,2,30,997,-16,1,-2
4777,2,30,999,-15,2,-3
4778,2,30,996,-11,1,-3
4779,1,31,997,-15,1,-2
4780,2,31,998,-14,1,-3
4781,2,32,997,-15,2,-2
4782,0,31,997,-15,1,-2
4783,2,32,997,-14,1,-3
4784,1,32,996,-15,1,-3
4785,3,30,996,-13,1,-4
4786,3,30,997,-14,1,-4
4787,3,32,998,-14,1,-2
4788,2,31,998,-14,1,-3
4789,0,31,997,-14,0,-3
4790,1,31,996,-15,1,-3
4791,2,31,997,-15,2,-4
4792,2,30,998,-14,1,-2
4793,1,31,999,-12,2,-2
4794,0,30,997,-13,1,-2
4795,1,30,998,-14,1,-2
4796,1,29,997,-14,2,-3
4797,3,31,997,-15,0,-3
4798,1,30,996,-13,2,-4
4799,3,32,997,-14,2,-4
4800,3,32,997,-14,1,-4
4801,2,30,997,-13,0,-3
4802,2,31,994,-16,-1,-2
4803,1,31,997,-13,-1,-3
4804,2,31,999,-13,0,-3
4805,1,31,996,-15,1,-3
4806,3,31,998,-14,0,-3
4807,0,33,996,-13,1,-4
4808,0,31,997,-15,1,-5
4809,2,32,997,-14,0,-3
4810,3,30,998,-16,1,-3
4811,0,31,997,-15,1,-2
4812,1,32,997,-14,0,-3
4813,1,32,998,-14,0,-5
4814,2,34,998,-13,0,-3
4815,2,31,997,-15,2,-4
4816,2,32,998,-14,1,-3
4817,1,30,999,-14,1,-2
4818,2,31,996,-14,2,-3
4819,1,32,999,-13,1,-4
4820,1,31,997,-14,0,-3
4821,1,32,997,-12,1,-4
4822,1,32,996,-15,1,-2
4823,1,33,997,-13,1,-4
4824,0,32,999,-14,1,-4
4825,1,31,996,-15,1,-3
4826,2,31,996,-14,1,-3
4827,2,31,996,-15,0,-3
4828,2,31,998,-15,1,-3
4829,4,31,998,-14,1,-3
4830,2,32,998,-16,1,-3
4831,1,31,998,-13,1,-4
4832,1,33,997,-13,1,-3
4833,3,32,996,-14,1,-3
4834,4,31,997,-13,1,-3
4835,2,31,997,-13,1,-3
4836,2,32,999,-15,0,-3
4837,2,31,998,-15,0,-3
4838,3,33,998,-16,1,-3
4839,2,31,998,-14,1,-3
4840,2,31,997,-16,0,-2
4841,0,30,998,-16,1,-2
4842,1,31,996,-12,1,-2
4843,0,32,998,-13,1,-3
4844,3,32,996,-14,1,-3
4845,1,33,996,-15,1,-3
4846,1,32,995,-15,0,-3
4847,2,33,997,-13,1,-3
4848,2,31,997,-16,1,-3
4849,0,31,997,-14,1,-3
4850,1,30,997,-14,1,-3
4851,0,31,997,-15,1,-3
4852,2,30,998,-14,1,-3
4853,2,32,996,-15,1,-3
4854,1,34,996,-15,1,-3
4855,0,32,997,-14,0,-3
4856,1,30,998,-15,1,-3
4857,3,31,997,-16,2,-3
4858,2,31,998,-14,1,-4
4859,3,31,998,-14,2,-4
4860,1,31,996,-15,1,-3
4861,1,31,996,-13,1,-2
4862,1,30,996,-14,0,-3
4863,2,31,997,-15,0,-3
4864,1,31,999,-15,1,-2
4865,1,31,996,-15,1,-2
4866,0,31,996,-14,2,-3
4867,0,31,998,-15,1,-4
4868,2,31,998,-15,1,-4
4869,2,33,997,-15,1,-4
4870,1,32,997,-15,1,-4
4871,1,31,996,-15,2,-3
4872,1,32,997,-14,1,-3
4873,2,31,997,-13,1,-3
4874,1,30,998,-15,0,-4
4875,2,31,998,-13,0,-4
4876,2,31,997,-13,0,-3
4877,1,29,996,-15,2,-3
4878,2,30,999,-14,0,-2
4879,0,31,997,-14,1,-4
4880,1,31,998,-15,0,-3
4881,1,33,996,-15,0,-4
4882,2,31,997,-14,0,-3
4883,2,31,995,-16,1,-4
4884,2,32,997,-15,2,-3
4885,1,31,997,-12,0,-4
4886,2,32,998,-13,1,-3
4887,3,32,998,-12,0,-4
4888,2,32,998,-15,1,-3
4889,1,31,997,-13,2,-3
4890,0,31,998,-16,1,-4
4891,1,30,999,-15,0,-3
4892,1,30,997,-14,0,-3
4893,0,31,996,-15,1,-3
4894,0,30,997,-14,0,-3
4895,1,30,997,-14,1,-3
4896,1,31,996,-14,2,-2
4897,1,32,997,-15,1,-3
4898,1,31,998,-13,1,-3
4899,1,32,998,-14,1,-4
4900,0,32,997,-16,1,-3
4901,0,33,999,-14,2,-3
4902,1,33,998,-15,2,-3
4903,0,32,998,-14,0,-2
4904,2,30,998,-14,0,-3
4905,0,31,997,-13,1,-3
4906,2,31,997,-14,0,-4
4907,2,31,997,-13,0,-4
4908,0,33,996,-15,1,-3
4909,2,31,997,-14,1,-2
4910,2,32,996,-13,1,-2
4911,2,32,996,-15,1,-4
4912,0,32,997,-15,1,-3
4913,2,32,996,-12,0,-4
4914,1,33,996,-14,1,-3
4915,1,32,998,-15,2,-3
4916,4,30,997,-13,1,-4
4917,1,31,997,-14,2,-3
4918,1,30,996,-13,1,-2
4919,1,31,996,-14,0,-2
4920,2,32,996,-14,1,-3
4921,2,31,998,-14,1,-2
4922,2,30,998,-13,1,-2
4923,2,31,996,-13,1,-3
4924,2,30,996,-15,0,-4
4925,2,31,998,-14,1,-4
4926,2,32,996,-14,1,-4
4927,1,32,997,-15,1,-4
4928,1,32,997,-13,1,-3
4929,2,31,997,-15,1,-3
4930,2,31,996,-14,1,-3
4931,1,31,995,-13,1,-3
4932,1,30,998,-14,1,-4
4933,1,29,997,-14,1,-3
4934,2,32,996,-14,0,-3
4935,2,32,998,-15,1,-2
4936,2,33,997,-14,0,-2
4937,2,31,996,-15,1,-3
4938,0,31,996,-15,1,-3
4939,2,31,998,-14,1,-4
4940,1,32,998,-13,0,-2
4941,2,32,996,-14,0,-3
4942,4,31,996,-14,0,-4
4943,1,31,997,-13,1,-2
4944,2,32,997,-15,1,-3
4945,2,31,997,-15,1,-3
4946,2,32,999,-14,1,-3
4947,3,32,997,-13,1,-3
4948,2,33,996,-14,1,-4
4949,2,31,997,-13,1,-3
4950,0,30,997,-13,1,-3
4951,1,30,997,-13,0,-4
4952,1,30,996,-14,1,-4
4953,2,31,996,-15,1,-3
4954,2,32,996,-15,1,-4
4955,1,31,998,-15,0,-2
4956,2,30,999,-15,-1,-2
4957,2,33,998,-14,1,-2
4958,1,29,998,-15,1,-4
4959,0,31,998,-15,0,-4
4960,1,33,997,-14,1,-3
4961,1,32,997,-14,2,-2
4962,1,32,999,-14,1,-2
4963,1,31,998,-14,0,-3
4964,0,32,997,-15,0,-3
4965,0,30,997,-14,2,-2
4966,1,30,998,-14,2,-3
4967,1,32,998,-12,1,-4
4968,1,30,998,-15,0,-3
4969,2,32,998,-15,1,-2
4970,1,32,997,-13,1,-3
4971,2,31,997,-12,1,-3
4972,2,31,997,-14,0,-4
4973,2,32,996,-16,1,-3
4974,1,31,998,-14,1,-4
4975,3,31,998,-14,1,-2
4976,1,31,996,-14,1,-2
4977,0,30,997,-14,2,-2
4978,1,29,998,-15,2,-2
4979,1,30,998,-15,1,-4
4980,2,30,997,-15,2,-4
4981,2,30,998,-14,2,-4
4982,1,31,996,-14,1,-4
4983,0,32,996,-15,0,-4
4984,0,31,998,-14,1,-3
4985,1,31,997,-15,1,-3
4986,1,30,997,-15,0,-3
4987,0,31,996,-15,0,-3
4988,0,30,998,-13,0,-4
4989,1,31,998,-13,1,-2
4990,2,32,997,-14,0,-3
4991,3,31,996,-12,1,-5
4992,2,32,998,-14,1,-4
4993,2,30,998,-16,2,-3
4994,1,31,997,-14,0,-3
4995,0,30,997,-15,1,-3
4996,2,31,998,-13,1,-3
4997,1,32,996,-14,1,-3
4998,1,32,996,-14,2,-3
4999,2,33,997,-13,1,-4
5000,0,33,997,-15,0,-4
5001,2,35,996,-14,1,-3
5002,2,32,998,-15,1,-3
5003,1,30,996,-14,1,-4
5004,3,30,996,-15,1,-2
5005,0,29,996,-16,0,-3
5006,3,32,996,-14,0,-5
5007,3,31,997,-16,1,-3
5008,1,32,998,-14,1,-3
5009,3,30,999,-14,2,-3
5010,1,31,998,-14,2,-4
5011,0,31,998,-14,0,-2
5012,2,31,996,-17,1,-4
5013,2,31,997,-15,1,-3
5014,2,31,997,-14,2,-3
5015,1,31,997,-14,1,-3
5016,2,31,997,-14,1,-2
5017,1,31,999,-14,1,-3
5018,0,31,997,-12,0,-3
5019,0,31,997,-13,1,-4
5020,0,31,998,-16,1,-3
5021,3,29,997,-14,2,-2
5022,3,30,996,-14,1,-3
5023,1,33,997,-16,0,-3
5024,1,32,997,-14,1,-3
5025,1,34,997,-15,0,-4
5026,0,33,997,-13,-1,-4
5027,2,30,996,-14,1,-3
5028,2,32,997,-15,1,-2
5029,1,31,997,-15,0,-3
5030,3,30,997,-15,0,-3
5031,2,31,996,-13,0,-4
5032,2,31,998,-14,1,-4
5033,3,31,998,-15,0,-2
5034,2,31,998,-14,1,-2
5035,0,31,997,-15,0,-3
5036,1,31,996,-15,1,-3
5037,2,31,997,-14,0,-3
5038,3,31,997,-15,1,-3
5039,0,31,998,-13,1,-3
5040,0,31,996,-12,1,-2
5041,1,31,997,-14,0,-3
5042,0,30,998,-13,0,-4
5043,2,31,996,-15,-1,-3
5044,2,33,997,-15,0,-2
5045,1,32,997,-14,2,-2
5046,1,34,997,-13,0,-3
5047,0,31,997,-16,2,-3
5048,1,31,996,-15,1,-3
5049,2,31,997,-14,0,-2
5050,2,32,996,-13,0,-2
5051,2,32,997,-15,2,-2
5052,3,32,997,-15,1,-3
5053,1,30,996,-14,1,-3
5054,2,30,997,-15,2,-3
5055,4,31,997,-14,1,-4
5056,0,30,998,-14,1,-3
5057,3,30,997,-15,1,-4
5058,0,31,997,-13,0,-4
5059,1,30,996,-14,1,-4
5060,1,31,998,-16,-1,-4
5061,2,30,998,-1,-1,-6
5062,0,30,997,5,-2,-6
5063,1,29,996,-13,0,-3
5064,1,30,996,-16,0,-2
5065,1,32,995,-15,0,-2
5066,2,31,997,-14,1,-2
5067,0,31,996,-16,0,-3
5068,1,31,997,-12,1,-3
5069,0,31,997,-14,1,-3
5070,0,32,995,-12,1,-4
5071,2,31,996,-13,0,-3
5072,1,32,997,-14,1,-2
5073,1,32,997,-13,1,-1
5074,1,31,996,-14,1,-3
5075,0,30,997,-14,0,-2
5076,1,31,998,-13,0,-3
5077,3,32,996,-16,0,-4
5078,2,31,997,-14,0,-3
5079,2,31,998,-13,1,-2
5080,1,32,997,-15,2,-2
5081,2,32,996,-13,1,-4
5082,1,31,997,-14,0,-3
5083,2,32,997,-14,1,-4
5084,2,30,997,-15,0,-4
5085,3,31,996,-14,1,-4
5086,2,33,999,-15,2,-3
5087,1,33,997,-15,1,-4
5088,2,31,997,-14,1,-3
5089,1,30,997,-15,1,-3
5090,1,32,996,-15,2,-3
5091,2,30,995,-13,2,-3
5092,2,30,997,-15,1,-4
5093,2,31,996,-14,2,-4
5094,2,31,997,-14,1,-3
5095,2,30,997,-15,1,-3
5096,1,32,996,-14,1,-4
5097,3,31,999,-16,0,-4
5098,2,30,998,-16,0,-3
5099,1,32,996,-14,1,-3
5100,0,32,997,-15,0,-2
5101,1,32,996,-13,1,-4
5102,2,30,996,-13,1,-2
5103,3,32,998,-15,0,-2
5104,2,31,998,-14,0,-3
5105,3,32,997,-15,0,-3
5106,1,32,997,-14,0,-3
5107,2,30,997,-13,2,-3
5108,2,30,997,-15,1,-2
5109,2,33,996,-14,1,-3
5110,2,32,998,-16,3,-2
5111,3,30,997,-14,3,-4
5112,1,32,998,-14,2,-4
5113,2,31,996,-13,2,-3
5114,2,32,998,-12,1,-3
5115,1,32,997,-16,2,-4
5116,1,32,997,-15,1,-4
5117,0,32,998,-14,-1,-4
5118,2,31,998,-15,0,-3
5119,1,30,998,-14,-1,-3
5120,1,32,997,-16,1,-4
5121,1,30,997,-13,1,-3
5122,2,30,996,-15,0,-4
5123,2,31,997,-13,0,-4
5124,2,30,996,-14,1,-2
5125,1,31,995,-16,0,-2
5126,2,30,997,-14,1,-3
5127,2,32,998,-13,1,-3
5128,3,30,998,-14,1,-2
5129,3,32,997,-14,1,-3
5130,2,31,997,-14,1,-3
5131,2,30,996,-14,1,-3
5132,1,31,996,-15,0,-3
5133,2,30,997,-13,0,-4
5134,2,30,998,-15,1,-4
5135,1,32,995,-14,2,-3
5136,2,31,998,-14,1,-3
5137,3,31,998,-15,1,-3
5138,2,30,996,-14,2,-3
5139,1,31,997,-15,1,-3
5140,0,30,999,-15,0,-3
5141,0,29,998,-13,1,-2
5142,0,30,998,-13,1,-2
5143,2,33,997,-14,1,-3
5144,3,31,998,-14,0,-3
5145,2,31,996,-15,1,-3
5146,3,31,995,-12,1,-3
5147,0,30,996,-15,0,-3
5148,0,29,997,-13,1,-3
5149,0,30,997,-14,1,-3
5150,1,30,998,-13,0,-4
5151,3,31,997,-13,0,-3
5152,1,31,998,-14,2,-3
5153,0,32,998,-15,2,-3
5154,0,33,998,-13,1,-4
5155,0,32,997,-15,1,-3
5156,2,33,998,-14,1,-2
5157,0,29,998,-16,2,-3
5158,2,30,998,-15,0,-2
5159,2,29,997,-15,1,-3
5160,1,30,997,-14,1,-2
5161,0,31,998,-13,1,-2
5162,2,32,997,-14,1,-3
5163,2,30,998,-14,0,-3
5164,2,32,997,-15,0,-4
5165,0,31,997,-15,1,-3
5166,3,33,999,-14,0,-3
5167,3,30,997,-14,1,-4
5168,2,32,999,-14,1,-3
5169,1,32,997,-13,2,-4
5170,1,33,998,-14,1,-4
5171,2,31,999,-14,2,-2
5172,3,30,998,-15,0,-3
5173,1,31,997,-13,1,-3
5174,0,32,998,-13,1,-4
5175,2,31,997,-15,1,-3
5176,2,33,997,-13,1,-3
5177,2,30,997,-15,0,-3
5178,3,31,998,-14,1,-3
5179,1,32,997,-12,1,-3
5180,1,31,997,-14,1,-3
5181,0,32,997,-15,1,-3
5182,1,29,998,-14,1,-3
5183,2,29,996,-13,1,-3
5184,3,31,997,-13,1,-3
5185,2,30,996,-14,0,-3
5186,2,30,996,-14,1,-3
5187,2,33,998,-13,2,-3
5188,3,33,998,-15,0,-3
5189,1,31,997,-15,0,-2
5190,1,32,998,-15,0,-3
5191,1,32,997,-15,1,-3
5192,0,32,998,-13,1,-3
5193,2,29,997,-13,2,-3
5194,1,32,996,-14,1,-3
5195,0,31,998,-14,0,-2
5196,3,31,998,-15,1,-2
5197,2,31,998,-14,0,-3
5198,2,33,997,-15,2,-2
5199,2,31,996,-15,1,-2
5200,1,30,997,-15,1,-2
5201,3,29,998,-16,1,-3
5202,4,29,996,-13,1,-3
5203,2,30,996,-14,2,-2
5204,3,31,998,-13,2,-2
5205,1,31,998,-13,1,-2
5206,1,32,997,-16,0,-4
5207,2,31,999,-13,0,-2
5208,3,32,998,-13,1,-3
5209,2,31,998,-15,-1,-3
5210,1,29,997,-14,1,-3
5211,1,30,998,-16,1,-2
5212,0,30,998,-13,0,-3
5213,0,31,997,-14,1,-4
5214,2,31,997,-14,0,-3
5215,0,31,997,-14,0,-4
5216,3,31,998,-16,0,-3
5217,3,32,998,-16,1,-3
5218,1,32,997,-13,2,-2
5219,-1,31,998,-13,0,-3
5220,0,31,996,-14,0,-3
5221,1,32,997,-14,1,-2
5222,1,32,998,-14,1,-2
5223,1,32,995,-13,0,-4
5224,0,32,996,-14,1,-3
5225,2,32,997,-13,1,-3
5226,0,32,996,-14,0,-3
5227,1,30,998,-13,2,-3
5228,2,31,998,-13,1,-3
5229,1,32,998,-15,1,-4
5230,1,31,997,-13,2,-3
5231,1,32,998,-14,1,-2
5232,1,32,997,-12,0,-2
5233,2,30,998,-14,0,-2
5234,3,32,998,-13,1,-2
5235,3,33,997,-12,1,-3
5236,2,30,996,-15,1,-4
5237,2,31,997,-15,0,-5
5238,0,31,997,-14,2,-4
5239,2,32,997,-17,1,-3
5240,2,31,999,-14,0,-3
5241,1,33,998,-15,0,-2
5242,1,33,998,-12,1,-4
5243,2,32,997,-15,0,-3
5244,1,33,997,-15,0,-3
5245,2,32,997,-14,1,-3
5246,1,31,997,-15,1,-3
5247,1,29,997,-14,2,-3
5248,1,31,997,-14,0,-3
5249,2,33,996,-14,0,-4
5250,1,33,997,-15,1,-3
5251,1,31,997,-13,0,-2
5252,1,31,997,-14,1,-3
5253,2,32,996,-13,1,-4
