sequence,AccelerometerX,AccelerometerY,AccelerometerZ,GyroscopeX,GyroscopeY,GyroscopeZ
0,5,30,999,-16,1,-4
1,2,31,1000,-14,1,-2
2,6,32,998,-14,1,-3
3,6,33,999,-12,1,-2
4,5,31,999,-17,1,-2
5,6,32,998,-18,2,-3
6,7,30,998,-16,1,-2
7,5,29,995,-11,1,-3
8,5,32,997,-16,1,-2
9,7,30,998,-12,1,-3
10,5,31,1000,-14,1,-4
11,6,27,998,-15,0,-3
12,6,30,997,-13,0,-4
13,4,30,998,-14,0,-4
14,4,29,997,-16,1,-2
15,3,30,997,-14,1,-3
16,4,29,997,-14,1,-4
17,3,31,997,-12,0,-4
18,5,30,997,-14,0,-3
19,5,30,997,-14,1,-3
20,6,30,998,-14,1,-2
21,5,31,998,-15,1,-3
22,4,30,998,-14,2,-3
23,4,33,998,-14,1,-4
24,4,34,998,-13,1,-4
25,3,30,998,-13,2,-3
26,4,30,1000,-14,1,-3
27,4,30,1000,-15,0,-3
28,5,28,999,-14,1,-2
29,4,30,1000,-15,1,-2
30,4,33,999,-15,0,-3
31,4,31,999,-13,1,-3
32,5,31,1000,-13,0,-3
33,5,31,1001,-11,0,-4
34,5,31,1001,-13,0,-3
35,6,30,999,-15,0,-2
36,3,29,1001,-15,0,-3
37,4,30,1000,-15,-1,-4
38,5,29,998,-16,1,-2
39,5,30,998,-15,1,-3
40,5,30,999,-15,1,-2
41,6,29,998,-15,1,-4
42,5,31,998,-12,1,-4
43,4,30,999,-14,0,-3
44,6,31,999,-13,2,-2
45,5,31,997,-14,1,-3
46,4,29,997,-14,0,-3
47,5,30,999,-14,0,-4
48,6,30,998,-15,-1,-4
49,4,31,997,-13,1,-2
50,5,29,998,-13,1,-3
51,6,30,998,-13,1,-3
52,4,29,999,-13,1,-3
53,4,30,998,-13,1,-2
54,5,30,999,-15,2,-4
55,5,29,999,-14,1,-3
56,4,30,998,-13,0,-3
57,3,32,999,-12,0,-4
58,5,31,999,-14,1,-4
59,7,30,998,-14,1,-3
60,6,32,998,-15,0,-2
61,5,31,998,-14,2,-1
62,4,31,997,-14,2,-3
63,5,30,998,-15,2,-3
64,6,33,999,-15,1,-3
65,4,31,998,-14,1,-3
66,6,30,998,-15,1,-4
67,4,29,998,-12,1,-3
68,4,30,997,-13,0,-3
69,5,28,996,-14,1,-3
70,7,29,999,-16,2,-3
71,7,30,998,-15,2,-2
72,5,31,997,-13,1,-3
73,3,32,997,-15,0,-4
74,6,32,997,-13,-1,-4
75,6,30,997,-14,1,-4
76,5,29,996,-14,1,-5
77,4,31,999,-14,0,-4
78,4,31,998,-13,1,-4
79,6,30,997,-14,1,-4
80,5,31,998,-13,1,-3
81,4,31,999,-14,1,-4
82,6,29,997,-14,2,-4
83,6,29,999,-13,1,-3
84,4,29,999,-16,2,-3
85,5,30,998,-11,2,-3
86,3,29,998,-15,0,-4
87,4,30,998,-14,1,-4
88,4,31,999,-15,2,-3
89,4,31,997,-17,0,-3
90,6,30,998,-14,0,-3
91,5,30,999,-14,1,-4
92,7,29,998,-14,0,-3
93,6,29,999,-15,0,-3
94,5,30,998,-15,0,-4
95,5,30,999,-13,0,-3
96,5,28,998,-14,0,-3
97,3,30,999,-14,1,-3
98,7,32,998,-16,0,-3
99,5,30,998,-13,0,-3
100,5,31,998,-14,1,-3
101,5,31,997,-14,0,-4
102,5,31,996,-13,1,-4
103,5,29,996,-13,1,-4
104,4,30,997,-14,2,-3
105,4,32,996,-12,1,-3
106,6,29,998,-13,0,-4
107,7,29,998,-13,1,-2
108,5,30,998,-13,1,-3
109,5,29,999,-14,2,-3
110,5,30,999,-13,1,-4
111,5,31,998,-13,1,-3
112,3,30,999,-14,0,-3
113,5,30,999,-16,0,-3
114,5,31,1000,-14,1,-3
115,6,31,998,-12,1,-2
116,4,31,1000,-15,1,-2
117,5,31,1000,-12,2,-3
118,5,32,999,-16,0,-3
119,4,30,1000,-16,1,-3
120,5,31,999,-13,1,-5
121,4,33,1000,-15,0,-3
122,5,32,1001,-14,0,-3
123,4,31,1001,-15,0,-3
124,5,31,999,-16,0,-3
125,5,29,999,-15,1,-2
126,5,30,999,-16,1,-2
127,3,30,998,-15,1,-3
128,6,30,998,-14,1,-3
129,6,28,997,-14,2,-3
130,5,28,998,-13,0,-4
131,6,31,999,-14,0,-3
132,5,30,999,-13,1,-3
133,6,30,998,-14,1,-3
134,6,32,999,-13,2,-4
135,6,29,997,-14,2,-3
136,3,30,996,-13,0,-3
137,3,29,998,-13,1,-3
138,6,28,999,-14,0,-3
139,3,30,998,-13,0,-4
140,3,32,998,-13,1,-3
141,6,31,998,-15,1,-2
142,4,30,998,-13,2,-3
143,5,28,997,-13,1,-3
144,5,32,998,-14,0,-2
145,5,31,998,-14,0,-3
146,4,30,999,-15,0,-3
147,5,31,998,-13,1,-3
148,4,29,998,-14,2,-4
149,3,30,999,-14,1,-3
150,3,31,998,-13,0,-2
151,5,32,997,-15,1,-4
152,4,31,999,-13,1,-3
153,5,30,997,-14,1,-3
154,5,30,998,-14,1,-3
155,5,30,998,-16,1,-3
156,5,30,998,-13,0,-4
157,4,31,997,-15,1,-3
158,5,31,996,-16,1,-3
159,5,31,998,-14,0,-3
160,5,32,997,-16,1,-2
161,5,31,997,-14,1,-3
162,8,31,998,-15,1,-3
163,6,32,998,-14,0,-3
164,3,29,998,-14,0,-3
165,3,30,997,-14,1,-2
166,6,31,998,-15,2,-3
167,4,30,998,-13,2,-3
168,4,31,998,-15,1,-2
169,2,30,998,-15,0,-3
170,4,31,998,-14,1,-3
171,4,32,998,-15,0,-3
172,6,29,997,-14,1,-4
173,4,29,998,-16,1,-3
174,5,30,998,-16,2,-3
175,6,31,998,-15,1,-3
176,6,31,998,-14,0,-2
177,5,31,999,-14,1,-4
178,3,30,998,-14,2,-4
179,6,30,999,-14,1,-3
180,5,29,998,-12,1,-4
181,3,31,999,-14,0,-3
182,5,29,997,-12,0,-2
183,5,31,997,-13,0,-3
184,5,31,997,-15,0,-3
185,5,32,997,-14,0,-4
186,5,30,997,-12,1,-4
187,5,31,996,-13,-1,-4
188,5,32,996,-15,1,-4
189,4,31,998,-14,1,-3
190,6,28,996,-14,1,-3
191,5,30,996,-14,1,-3
192,5,30,997,-14,1,-4
193,6,30,998,-14,1,-4
194,6,29,1000,-16,1,-3
195,2,31,998,-14,1,-3
196,4,30,999,-13,2,-3
197,4,31,998,-17,1,-2
198,5,29,997,-15,0,-3
199,5,29,997,-14,1,-3
200,5,31,997,-14,1,-3
201,5,30,997,-12,1,-4
202,6,29,998,-14,1,-3
203,5,30,999,-14,2,-2
204,4,30,998,-14,2,-4
205,3,30,1000,-14,0,-3
206,5,32,999,-13,1,-4
207,5,32,999,-14,1,-2
208,4,30,1000,-15,2,-3
209,4,30,999,-13,1,-3
210,4,29,1000,-15,1,-3
211,5,29,998,-14,2,-2
212,6,30,1001,-14,1,-3
213,5,31,999,-15,1,-4
214,4,32,998,-13,1,-4
215,4,32,999,-14,1,-3
216,4,31,998,-14,1,-2
217,4,32,999,-13,1,-4
218,6,30,999,-15,2,-3
219,4,28,998,-13,2,-3
220,5,29,998,-15,0,-2
221,4,32,998,-14,1,-4
222,5,29,1000,-12,1,-3
223,5,30,998,-15,0,-2
224,5,31,998,-14,1,-3
225,4,30,998,-12,1,-4
226,4,29,997,-15,1,-2
227,5,31,997,-14,1,-2
228,5,31,996,-14,0,-3
229,5,29,998,-12,1,-3
230,4,30,999,-13,0,-4
231,5,32,997,-16,1,-3
232,5,30,997,-12,1,-4
233,5,30,999,-14,1,-4
234,5,30,997,-15,2,-3
235,3,29,997,-13,1,-2
236,4,29,998,-15,1,-2
237,6,31,997,-13,1,-3
238,5,31,998,-14,1,-3
239,6,29,999,-15,2,-3
240,6,32,999,-13,1,-2
241,4,31,998,-15,1,-3
242,6,31,999,-14,2,-3
243,5,31,998,-15,2,-2
244,5,29,998,-15,0,-3
245,4,30,999,-15,1,-3
246,4,30,998,-17,1,-3
247,3,32,997,-14,1,-2
248,5,31,999,-14,1,-3
249,5,31,998,-14,1,-4
250,6,31,1000,-14,2,-3
251,3,30,999,-16,0,-2
252,5,30,997,-15,1,-4
253,6,31,997,-14,2,-4
254,6,31,998,-14,2,-3
255,4,32,997,-14,2,-3
256,5,31,998,-14,1,-3
257,4,30,998,-14,0,-3
258,6,31,998,-14,1,-3
259,5,30,998,-15,0,-4
260,7,29,998,-14,1,-2
261,6,28,997,-16,1,-3
262,4,28,998,-14,1,-3
263,5,30,998,-14,1,-3
264,4,30,997,-15,0,-3
265,4,31,999,-13,2,-4
266,6,30,999,-15,2,-4
267,4,29,1001,-13,2,-4
268,6,30,999,-14,0,-4
269,6,29,997,-15,1,-3
270,6,30,998,-13,2,-3
271,6,31,999,-14,2,-3
272,5,31,999,-14,2,-3
273,3,31,999,-15,1,-2
274,5,31,998,-13,0,-4
275,6,31,997,-14,1,-5
276,5,31,998,-13,1,-4
277,3,30,999,-13,1,-4
278,5,29,997,-15,0,-3
279,6,30,996,-14,1,-3
280,6,29,996,-15,2,-3
281,4,29,996,-14,2,-3
282,3,31,998,-14,1,-3
283,4,30,998,-15,1,-2
284,4,30,998,-14,1,-3
285,5,30,997,-15,0,-3
286,4,32,999,-14,0,-4
287,5,31,998,-15,0,-5
288,5,31,997,-14,2,-3
289,5,30,997,-15,1,-3
290,5,33,997,-15,2,-3
291,3,32,998,-15,1,-3
292,5,29,997,-13,0,-2
293,4,31,997,-14,1,-4
294,4,30,998,-15,0,-4
295,5,30,997,-14,1,-4
296,7,30,999,-14,2,-2
297,4,30,999,-14,1,-3
298,4,32,999,-14,1,-3
299,4,31,1001,-15,0,-3
300,5,32,1000,-15,0,-3
301,2,30,1000,-14,0,-4
302,4,31,999,-16,1,-5
303,5,31,999,-14,1,-4
304,6,30,999,-15,2,-2
305,5,30,999,-12,1,-2
306,5,31,1001,-14,1,-4
307,3,32,1001,-16,1,-3
308,4,30,1000,-13,2,-3
309,5,30,1000,-15,1,-2
310,5,31,999,-13,1,-3
311,4,30,999,-14,1,-4
312,5,29,998,-15,1,-4
313,5,29,998,-14,1,-4
314,5,30,997,-17,2,-2
315,4,30,998,-15,2,-3
316,5,29,999,-15,1,-3
317,5,29,998,-14,1,-3
318,4,29,999,-13,2,-3
319,4,30,997,-14,0,-3
320,4,29,998,-14,0,-3
321,4,28,998,-14,1,-3
322,4,30,997,-15,1,-3
323,5,30,996,-14,1,-2
324,4,30,998,-13,0,-3
325,6,29,997,-15,1,-4
326,6,30,997,-13,1,-4
327,5,30,997,-13,1,-4
328,6,29,997,-14,0,-3
329,5,30,995,-14,1,-3
330,5,30,998,-16,1,-2
331,5,31,999,-14,1,-3
332,3,29,997,-15,0,-3
333,4,30,997,-15,0,-4
334,6,30,999,-13,1,-3
335,5,30,997,-15,0,-2
336,5,29,998,-13,-1,-2
337,4,30,998,-14,1,-3
338,5,30,998,-14,2,-3
339,4,31,998,-13,0,-4
340,4,32,999,-15,1,-3
341,6,30,998,-14,0,-5
342,7,29,998,-15,1,-3
343,5,29,998,-12,0,-5
344,4,30,998,-14,-1,-5
345,5,32,997,-12,1,-4
346,3,29,996,-16,1,-4
347,5,31,998,-17,1,-3
348,4,31,997,-13,0,-4
349,5,30,997,-17,0,-3
350,6,30,999,-14,1,-4
351,6,32,998,-12,1,-4
352,4,31,998,-17,0,-2
353,4,30,999,-14,0,-3
354,5,29,998,-14,0,-3
355,4,30,997,-15,1,-2
356,5,31,998,-13,1,-4
357,6,31,998,-14,1,-4
358,3,31,997,-14,1,-3
359,4,30,997,-14,0,-3
360,6,31,999,-15,1,-2
361,5,31,998,-15,1,-4
362,4,30,997,-15,0,-3
363,4,32,999,-14,1,-3
364,5,32,998,-14,1,-4
365,4,31,998,-14,1,-4
366,4,30,999,-15,2,-4
367,6,32,999,-14,0,-4
368,6,31,997,-14,1,-3
369,6,31,998,-15,2,-3
370,6,31,998,-13,2,-3
371,5,31,998,-12,1,-3
372,5,32,998,-14,2,-3
373,6,30,997,-14,2,-3
374,6,32,999,-13,1,-3
375,7,31,997,-13,0,-3
376,5,30,999,-14,0,-2
377,4,30,997,-12,2,-4
378,4,31,996,-14,2,-3
379,2,30,995,-13,1,-3
380,4,31,997,-14,1,-4
381,4,30,998,-14,0,-3
382,5,28,998,-16,0,-4
383,5,32,997,-14,1,-2
384,5,30,996,-15,1,-3
385,3,30,998,-14,2,-3
386,4,30,998,-13,1,-4
387,3,30,999,-14,0,-4
388,5,29,999,-14,1,-4
389,5,30,998,-15,2,-3
390,5,30,999,-14,0,-3
391,5,30,1001,-13,1,-4
392,4,31,999,-14,0,-3
393,5,30,1000,-12,1,-3
394,5,31,1001,-13,1,-4
395,3,29,999,-15,0,-3
396,3,31,1001,-15,2,-3
397,5,30,999,-13,2,-3
398,4,31,1001,-15,1,-2
399,6,30,1001,-14,2,-3
400,5,31,1001,-13,1,-3
401,6,31,1000,-16,1,-3
402,5,30,999,-14,2,-3
403,7,29,999,-15,1,-3
404,6,30,999,-14,0,-3
405,6,31,997,-15,0,-3
406,3,30,999,-14,1,-3
407,4,30,998,-13,1,-4
408,4,30,997,-13,0,-3
409,6,31,997,-13,0,-3
410,6,28,998,-14,2,-2
411,7,29,997,-14,0,-3
412,6,31,996,-15,0,-3
413,6,31,997,-14,1,-4
414,7,30,997,-15,2,-3
415,4,31,997,-15,2,-3
416,4,31,996,-14,1,-3
417,4,30,996,-15,1,-2
418,5,33,998,-15,2,-2
419,5,31,999,-12,2,-3
420,4,30,997,-14,1,-4
421,4,30,998,-15,2,-3
422,4,30,998,-14,0,-3
423,5,30,1000,-13,1,-4
424,7,31,1000,-13,0,-2
425,4,31,998,-15,1,-2
426,5,32,998,-15,2,-4
427,4,32,997,-14,1,-2
428,5,31,998,-15,1,-1
429,4,31,997,-13,1,-3
430,4,30,999,-14,1,-4
431,6,30,998,-14,1,-3
432,4,31,997,-14,1,-4
433,5,30,998,-15,0,-2
434,4,29,998,-15,1,-3
435,5,29,997,-14,2,-2
436,5,29,996,-14,1,-2
437,5,29,996,-16,0,-3
438,5,28,997,-14,1,-3
439,6,31,996,-15,1,-3
440,6,29,998,-14,1,-3
441,5,30,998,-14,2,-4
442,6,30,998,-13,0,-4
443,5,30,996,-14,1,-3
444,6,30,998,-17,1,-3
445,5,31,998,-14,1,-4
446,4,30,997,-15,0,-4
447,4,32,997,-15,1,-4
448,5,30,998,-14,1,-3
449,5,29,998,-16,0,-3
450,5,29,999,-14,0,-3
451,6,31,998,-13,0,-4
452,5,29,998,-16,0,-3
453,6,29,998,-14,0,-3
454,6,30,998,-14,0,-3
455,6,31,998,-14,1,-4
456,4,30,999,-12,0,-4
457,3,30,998,-13,0,-4
458,5,30,998,-15,1,-3
459,4,31,999,-15,0,-4
460,3,31,997,-15,1,-3
461,5,33,999,-16,1,-4
462,4,31,998,-14,1,-3
463,5,30,998,-13,1,-2
464,6,31,997,-14,-1,-2
465,4,32,997,-13,1,-3
466,4,29,997,-14,2,-3
467,4,29,997,-15,3,-3
468,4,30,997,-14,1,-4
469,3,29,998,-15,0,-3
470,2,30,999,-13,1,-3
471,5,31,997,-13,1,-4
472,5,30,997,-14,0,-3
473,5,28,998,-14,2,-3
474,4,29,999,-16,1,-4
475,5,30,998,-15,2,-4
476,5,31,997,-15,1,-4
477,5,30,998,-14,1,-3
478,5,31,998,-15,1,-2
479,4,31,998,-16,0,-3
480,4,30,999,-13,1,-2
481,5,31,999,-15,1,-2
482,3,31,999,-15,0,-3
483,5,30,998,-13,1,-3
484,6,31,997,-14,2,-3
485,3,31,999,-14,1,-3
486,5,30,1000,-14,1,-4
487,6,31,998,-15,2,-3
488,5,30,999,-14,1,-3
489,4,31,1000,-13,0,-3
490,5,31,1000,-13,1,-3
491,5,30,999,-14,0,-4
492,4,30,999,-13,2,-3
493,6,29,999,-14,1,-3
494,5,29,1000,-14,1,-4
495,4,30,999,-13,2,-3
496,7,31,999,-16,0,-3
497,4,30,999,-15,0,-3
498,6,29,1000,-14,2,-3
499,4,30,999,-15,1,-2
500,5,30,999,-15,2,-3
501,6,31,999,-14,1,-3
502,4,31,999,-13,1,-3
503,5,31,997,-15,0,-3
504,4,32,997,-15,1,-3
505,4,31,997,-12,2,-5
506,5,30,998,-14,1,-3
507,5,31,996,-13,1,-2
508,4,30,998,-14,1,-3
509,6,31,997,-16,0,-3
510,4,31,996,-14,1,-4
511,6,31,997,-15,1,-3
512,5,31,997,-13,1,-3
513,4,31,998,-14,1,-2
514,6,30,997,-14,1,-3
515,6,31,999,-14,0,-3
516,4,31,998,-14,1,-3
517,5,29,998,-15,1,-3
518,6,30,998,-14,2,-3
519,5,31,998,-15,1,-2
520,5,30,999,-14,1,-3
521,5,30,998,-12,1,-3
522,5,30,996,-14,1,-2
523,6,31,999,-13,1,-4
524,4,30,997,-14,1,-3
525,6,30,997,-13,1,-3
526,4,31,998,-15,2,-3
527,5,28,998,-15,1,-2
528,5,27,999,-13,2,-4
529,3,30,997,-15,1,-4
530,5,31,999,-14,1,-4
531,5,30,998,-15,1,-3
532,2,30,998,-15,1,-4
533,4,32,998,-14,0,-4
534,3,31,997,-15,0,-3
535,6,31,998,-14,1,-2
536,6,31,998,-13,0,-2
537,5,32,997,-13,0,-1
538,5,31,998,-14,0,-2
539,6,30,999,-14,0,-4
540,4,29,998,-14,1,-4
541,5,29,998,-14,2,-3
542,5,30,998,-15,1,-4
543,4,30,997,-14,0,-3
544,4,29,999,-14,0,-3
545,5,30,999,-15,1,-2
546,6,30,1000,-13,2,-3
547,6,32,997,-15,1,-3
548,5,29,997,-14,1,-3
549,4,30,998,-15,1,-4
550,5,30,997,-15,1,-4
551,6,30,998,-14,1,-4
552,4,30,996,-15,0,-3
553,5,29,997,-13,1,-3
554,5,31,998,-16,2,-4
555,6,29,999,-15,2,-4
556,4,32,998,-15,1,-3
557,5,31,997,-14,2,-4
558,4,31,999,-12,2,-4
559,4,31,1000,-14,1,-3
560,3,30,999,-11,0,-4
561,7,30,997,-15,0,-4
562,5,30,999,-14,-1,-3
563,6,31,999,-13,1,-4
564,5,29,997,-15,1,-3
565,5,30,997,-14,1,-3
566,4,31,998,-14,1,-3
567,5,30,998,-15,0,-3
568,3,31,999,-13,0,-3
569,5,30,997,-14,2,-4
570,6,31,997,-14,0,-4
571,5,32,998,-13,1,-4
572,5,30,998,-13,2,-3
573,5,31,998,-13,2,-4
574,5,31,999,-13,1,-3
575,6,30,999,-15,1,-2
576,5,29,997,-15,1,-3
577,6,30,998,-14,0,-3
578,6,32,998,-15,0,-3
579,5,32,998,-15,1,-3
580,4,32,998,-14,2,-3
581,3,31,999,-14,1,-3
582,3,30,999,-15,0,-2
583,3,30,1000,-13,1,-4
584,4,32,999,-12,2,-3
585,4,31,999,-15,1,-3
586,5,29,998,-16,2,-2
587,6,31,998,-15,1,-3
588,4,30,998,-14,0,-3
589,3,30,997,-13,1,-2
590,4,32,999,-15,0,-4
591,4,32,999,-16,1,-4
592,5,33,998,-16,1,-2
593,4,29,999,-15,0,-3
594,4,31,997,-14,0,-3
595,4,30,999,-14,0,-3
596,4,30,998,-15,1,-4
597,3,32,998,-12,1,-3
598,5,30,1000,-15,1,-3
599,5,30,999,-14,2,-3
600,6,30,998,-15,2,-3
601,4,31,997,-14,1,-3
602,5,30,998,-13,1,-3
603,4,33,996,-14,1,-4
604,5,32,997,-15,0,-4
605,4,31,998,-14,1,-3
606,6,32,998,-13,1,-1
607,6,32,999,-14,1,-4
608,5,32,998,-15,0,-4
609,6,31,997,-16,0,-3
610,6,30,998,-15,1,-3
611,7,30,998,-15,1,-4
612,6,30,1000,-15,0,-3
613,5,30,998,-14,0,-3
614,6,29,997,-15,-1,-3
615,5,30,998,-14,0,-4
616,5,29,998,-14,0,-4
617,5,29,999,-14,1,-3
618,7,30,997,-15,0,-3
619,4,29,998,-14,1,-4
620,5,30,999,-15,0,-3
621,6,30,998,-14,0,-3
622,5,29,999,-13,1,-4
623,4,31,998,-14,2,-3
624,2,30,997,-12,2,-3
625,5,28,997,-13,2,-4
626,6,30,996,-14,0,-3
627,6,30,998,-15,1,-3
628,2,32,997,-15,1,-3
629,4,30,999,-13,1,-4
630,5,32,999,-14,1,-3
631,5,30,998,-15,2,-3
632,5,32,998,-14,1,-3
633,4,30,999,-14,2,-3
634,4,32,998,-14,1,-3
635,5,29,998,-15,1,-4
636,5,30,999,-14,0,-3
637,6,31,997,-15,0,-4
638,5,32,997,-14,0,-4
639,4,32,997,-13,1,-2
640,5,31,997,-14,1,-3
641,3,30,997,-14,0,-4
642,4,31,998,-13,0,-3
643,5,31,999,-14,2,-2
644,5,30,997,-15,1,-3
645,7,29,997,-14,1,-3
646,6,31,997,-16,0,-2
647,5,30,998,-14,0,-2
648,5,30,997,-14,1,-3
649,4,31,999,-14,1,-3
650,5,32,998,-14,0,-4
651,5,30,999,-15,0,-2
652,5,31,998,-15,1,-4
653,5,30,999,-14,0,-4
654,6,30,999,-14,0,-3
655,4,30,998,-15,1,-3
656,5,29,999,-14,1,-3
657,2,31,998,-12,1,-4
658,2,30,998,-13,1,-3
659,4,31,997,-13,0,-4
660,5,30,998,-14,0,-4
661,4,30,998,-16,1,-3
662,5,29,998,-14,1,-3
663,8,31,998,-14,1,-4
664,5,31,998,-14,0,-4
665,4,30,998,-13,0,-3
666,6,30,997,-14,0,-3
667,4,31,999,-14,0,-4
668,5,31,998,-13,0,-3
669,3,30,998,-14,0,-3
670,7,31,998,-16,1,-3
671,5,31,997,-15,1,-3
672,4,32,998,-13,1,-3
673,4,30,998,-15,2,-4
674,7,32,998,-15,0,-3
675,6,30,998,-15,1,-2
676,4,28,998,-14,1,-3
677,6,29,999,-13,0,-3
678,6,30,999,-13,1,-3
679,6,31,999,-15,0,-3
680,4,29,998,-15,1,-3
681,5,29,998,-16,2,-3
682,6,30,998,-1,1,-4
683,3,30,999,-15,0,-2
684,5,30,998,-8,3,-4
685,4,32,998,-19,1,-3
686,3,31,998,-14,1,-3
687,3,30,998,-13,1,-3
688,4,31,999,-19,0,-3
689,4,30,998,-9,0,-3
690,4,32,998,-16,1,-3
691,5,32,998,-15,2,-3
692,6,31,996,-12,0,-3
693,4,31,997,-16,1,-3
694,3,31,998,-13,2,-3
695,5,30,998,-15,1,-4
696,6,31,997,-16,1,-2
697,6,32,998,-14,2,-3
698,4,30,999,-14,3,-3
699,6,30,997,-14,1,-4
700,7,32,999,-14,0,-3
701,5,31,999,-14,0,-2
702,5,31,997,-14,0,-3
703,4,30,996,-16,1,-3
704,7,31,998,-15,0,-2
705,6,31,996,-16,1,-3
706,6,31,998,-15,1,-2
707,5,30,997,-13,0,-3
708,5,32,998,-14,0,-3
709,6,30,998,-14,0,-2
710,5,31,999,-16,0,-3
711,4,31,999,-14,0,-3
712,4,29,997,-14,0,-3
713,6,31,997,-14,1,-3
714,4,31,997,-14,2,-3
715,6,30,997,-15,2,-4
716,7,30,996,-15,2,-3
717,6,32,997,-14,1,-3
718,4,32,997,-15,1,-3
719,4,30,998,-13,2,-5
720,6,32,998,-14,2,-3
721,5,30,998,-14,1,-2
722,2,30,999,-14,1,-3
723,4,31,999,-15,1,-3
724,4,30,999,-14,1,-4
725,5,30,998,-13,1,-3
726,4,31,999,-14,1,-3
727,5,29,998,-14,1,-3
728,5,30,998,-15,0,-4
729,3,30,999,-15,0,-3
730,3,33,999,-16,0,-3
731,4,33,999,-14,0,-4
732,3,31,997,-14,0,-2
733,3,30,998,-15,-1,-3
734,6,31,998,-16,-1,-3
735,4,32,998,-13,0,-3
736,5,31,997,-15,0,-3
737,5,31,997,-14,1,-2
738,6,31,998,-15,1,-4
739,5,30,997,-13,0,-4
740,4,30,998,-15,0,-3
741,6,30,998,-14,0,-2
742,6,30,998,-14,1,-3
743,5,29,998,-15,2,-3
744,5,30,996,-14,2,-4
745,3,29,998,-15,1,-2
746,5,31,996,-15,1,-3
747,4,30,998,-12,0,-3
748,5,30,999,-15,1,-3
749,5,31,998,-14,2,-3
750,5,31,999,-14,1,-1
751,5,30,999,-15,2,-2
752,4,30,999,-14,1,-4
753,5,29,998,-14,0,-4
754,6,29,999,-13,2,-3
755,6,30,1000,-13,2,-4
756,4,31,997,-13,1,-3
757,3,29,999,-15,1,-4
758,7,30,998,-12,0,-3
759,5,31,998,-14,2,-3
760,5,31,999,-15,2,-3
761,3,31,997,-14,2,-4
762,5,31,999,-15,1,-4
763,5,30,998,-13,1,-3
764,5,29,1000,-15,0,-2
765,5,31,998,-13,1,-3
766,4,31,998,-13,1,-4
767,4,31,998,-14,1,-4
768,4,30,998,-13,1,-4
769,4,31,998,-13,1,-4
770,6,30,997,-14,1,-3
771,4,31,997,-14,0,-5
772,4,31,997,-14,0,-3
773,4,30,996,-13,1,-4
774,4,31,997,-13,2,-3
775,4,30,997,-15,0,-3
776,6,31,998,-13,1,-4
777,5,30,998,-12,1,-4
778,5,30,999,-14,0,-4
779,6,30,997,-14,1,-2
780,3,31,998,-14,1,-2
781,4,31,999,-14,1,-3
782,4,33,999,-14,0,-3
783,6,32,998,-13,0,-3
784,4,30,998,-14,1,-3
785,6,30,998,-16,1,-3
786,5,32,998,-15,1,-2
787,4,30,998,-14,0,-3
788,4,32,998,-16,0,-2
789,7,32,997,-14,1,-3
790,6,30,999,-13,0,-3
791,6,30,998,-15,0,-3
792,7,29,998,-15,1,-3
793,5,30,999,-14,1,-3
794,6,28,998,-14,1,-3
795,5,30,1000,-14,0,-3
796,5,30,998,-15,2,-2
797,5,29,999,-12,0,-3
798,4,30,998,-12,0,-4
799,5,31,999,-16,0,-3
800,5,29,997,-13,1,-3
801,7,31,997,-13,0,-3
802,5,30,998,-14,1,-3
803,6,30,998,-14,1,-2
804,3,29,997,-15,1,-3
805,3,29,997,-14,-1,-3
806,4,30,998,-14,0,-2
807,5,31,998,-16,0,-2
808,4,29,999,-15,1,-4
809,5,31,999,-13,1,-4
810,7,33,998,-15,1,-4
811,5,31,999,-15,1,-4
812,6,28,1000,-14,1,-4
813,6,30,997,-14,2,-3
814,4,30,999,-13,0,-3
815,5,32,999,-13,1,-4
816,6,32,996,-15,0,-5
817,6,29,996,-14,1,-4
818,5,31,998,-14,2,-3
819,3,31,998,-14,1,-4
820,4,30,998,-15,2,-3
821,6,30,999,-15,1,-3
822,5,31,999,-15,1,-4
823,6,30,998,-13,2,-3
824,4,30,999,-13,1,-3
825,3,30,999,-13,0,-3
826,6,30,999,-13,2,-3
827,5,32,997,-16,1,-3
828,5,32,999,-14,1,-4
829,6,31,998,-13,1,-4
830,3,30,998,-14,1,-4
831,3,30,1000,-14,1,-3
832,4,30,1000,-13,1,-3
833,2,32,998,-14,1,-3
834,4,32,997,-14,2,-3
835,5,30,998,-13,2,-3
836,5,28,998,-13,0,-4
837,6,29,1000,-14,0,-3
838,4,29,997,-14,1,-3
839,4,30,999,-13,-1,-3
840,5,30,997,-14,0,-3
841,4,30,1000,-14,0,-4
842,6,31,998,-15,1,-4
843,4,31,998,-14,1,-3
844,3,31,998,-14,1,-3
845,5,32,999,-13,2,-4
846,6,30,999,-14,1,-4
847,5,31,999,-15,1,-4
848,4,30,999,-15,0,-3
849,4,31,999,-14,1,-2
850,3,32,999,-13,0,-3
851,5,31,998,-14,1,-4
852,4,29,998,-15,1,-3
853,4,30,998,-16,0,-3
854,5,30,998,-14,1,-3
855,6,31,997,-15,1,-2
856,6,31,997,-14,1,-4
857,7,31,996,-14,0,-4
858,4,31,998,-14,2,-4
859,3,31,999,-13,2,-4
860,5,31,998,-14,1,-4
861,4,30,998,-15,1,-4
862,5,30,998,-14,1,-3
863,6,30,998,-14,1,-4
864,5,31,999,-14,0,-3
865,6,31,998,-13,0,-3
866,6,32,999,-14,0,-3
867,4,29,999,-14,0,-3
868,3,31,998,-13,0,-4
869,4,31,998,-14,0,-3
870,3,31,999,-15,0,-1
871,4,31,998,-12,-1,-3
872,5,31,998,-15,0,-3
873,5,31,996,-13,1,-4
874,5,31,1000,-14,1,-3
875,7,31,998,-14,1,-4
876,4,30,998,-14,2,-3
877,4,30,998,-14,0,-4
878,7,29,998,-14,1,-4
879,5,29,999,-15,2,-4
880,6,30,998,-15,2,-3
881,5,30,999,-14,1,-3
882,5,31,998,-14,2,-3
883,4,33,999,-16,0,-4
884,6,31,999,-15,1,-4
885,3,32,999,-15,1,-3
886,4,32,1000,-15,1,-3
887,6,32,998,-15,1,-2
888,5,31,998,-14,2,-3
889,5,31,998,-15,1,-2
890,5,31,998,-14,1,-3
891,6,32,999,-13,1,-3
892,5,31,998,-15,1,-4
893,4,31,998,-15,3,-4
894,5,30,999,-16,1,-4
895,6,31,998,-13,-1,-3
896,6,33,997,-14,0,-3
897,5,29,997,-13,1,-3
898,6,31,998,-13,0,-3
899,5,29,997,-15,0,-2
900,5,30,997,-14,1,-3
901,5,31,996,-14,2,-4
902,4,32,997,-14,0,-3
903,3,31,999,-13,0,-4
904,4,29,998,-13,1,-4
905,5,29,999,-14,0,-3
906,4,31,1000,-17,2,-4
907,5,31,999,-15,2,-3
908,5,29,999,-16,2,-3
909,3,30,999,-12,1,-4
910,5,30,999,-14,0,-4
911,4,31,997,-12,1,-4
912,3,31,998,-12,1,-2
913,5,33,999,-16,0,-3
914,5,32,998,-11,2,-4
915,4,32,997,-14,1,-4
916,5,33,999,-13,0,-4
917,5,34,999,-14,1,-3
918,7,30,998,-15,1,-3
919,5,30,998,-12,2,-3
920,5,30,998,-15,1,-4
921,5,31,998,-15,1,-4
922,5,31,998,-12,1,-3
923,5,31,998,-15,1,-3
924,4,33,998,-14,1,-4
925,5,30,999,-16,1,-3
926,4,31,999,-15,1,-4
927,4,32,998,-14,1,-3
928,6,31,999,-14,2,-3
929,5,31,998,-16,1,-3
930,5,30,998,-15,2,-3
931,6,29,998,-14,2,-3
932,5,29,998,-14,0,-2
933,4,30,998,-14,1,-3
934,4,29,999,-15,2,-3
935,6,30,998,-14,2,-3
936,3,30,997,-13,2,-3
937,3,31,999,-14,1,-3
938,4,31,999,-15,0,-4
939,5,32,997,-15,1,-3
940,4,31,998,-15,1,-4
941,7,31,997,-13,1,-4
942,6,33,997,-14,1,-3
943,6,31,998,-14,2,-2
944,5,31,997,-14,1,-3
945,4,29,997,-13,0,-4
946,6,32,998,-14,0,-3
947,3,31,998,-15,1,-3
948,4,28,999,-13,0,-4
949,5,29,999,-15,1,-4
950,4,29,999,-14,1,-3
951,5,30,999,-15,2,-2
952,4,32,997,-13,2,-4
953,4,30,998,-14,2,-3
954,6,31,998,-13,1,-4
955,6,29,998,-14,1,-3
956,2,29,998,-13,1,-4
957,5,31,999,-14,1,-3
958,4,31,997,-13,0,-3
959,7,30,996,-14,1,-3
960,5,29,998,-14,0,-4
961,5,30,999,-14,1,-4
962,4,30,998,-14,0,-4
963,5,30,998,-13,2,-3
964,5,32,999,-14,-1,-3
965,4,32,998,-15,1,-4
966,5,31,998,-14,1,-4
967,5,30,998,-15,0,-3
968,5,30,1000,-13,1,-2
969,4,31,997,-14,1,-2
970,6,30,997,-13,-1,-4
971,5,30,999,-14,0,-3
972,3,30,999,-16,0,-3
973,5,32,998,-14,1,-4
974,6,32,999,-15,0,-3
975,6,31,998,-12,1,-3
976,4,30,997,-13,2,-3
977,5,31,999,-13,0,-3
978,4,31,997,-15,1,-3
979,5,30,999,-15,1,-4
980,6,30,998,-14,-1,-2
981,4,31,998,-14,0,-2
982,6,30,998,-14,1,-3
983,5,29,998,-14,0,-4
984,4,31,998,-13,2,-3
985,6,31,999,-13,2,-4
986,6,31,998,-15,2,-4
987,5,32,998,-14,1,-3
988,6,31,999,-14,1,-5
989,4,32,999,-14,0,-4
990,6,31,997,-16,0,-3
991,5,30,997,-15,1,-3
992,6,30,998,-13,1,-3
993,5,31,998,-14,1,-2
994,6,33,999,-15,1,-3
995,4,32,998,-14,1,-3
996,5,32,997,-15,2,-3
997,5,32,998,-13,1,-2
998,5,31,996,-14,2,-2
999,5,32,997,-15,1,-2
1000,7,30,998,-15,1,-2
1001,5,30,998,-16,1,-2
1002,5,30,997,-16,0,-3
1003,5,31,998,-14,1,-2
1004,5,30,998,-14,1,-3
1005,5,30,998,-13,0,-3
1006,5,31,998,-15,1,-4
1007,4,31,999,-15,2,-4
1008,7,31,998,-13,1,-3
1009,4,31,996,-13,1,-4
1010,5,32,997,-13,2,-3
1011,6,29,999,-13,1,-4
1012,5,31,997,-14,2,-2
1013,5,31,999,-15,1,-2
1014,4,30,999,-16,0,-3
1015,4,30,999,-15,1,-3
1016,4,31,999,-16,0,-4
1017,4,28,999,-19,2,-2
1018,5,28,998,-14,0,-3
1019,7,30,997,-14,0,-3
1020,5,31,997,-14,1,-3
1021,5,32,999,-13,1,-5
1022,4,29,998,-14,2,-5
1023,4,30,998,-15,2,-4
1024,5,32,997,-15,1,-3
1025,4,31,999,-14,1,-4
1026,4,30,999,-14,1,-3
1027,4,32,998,-13,1,-3
1028,5,30,999,-15,1,-3
1029,3,29,999,-13,1,-3
1030,3,30,998,-13,1,-3
1031,4,32,997,-14,1,-3
1032,4,29,998,-15,1,-3
1033,5,28,1000,-14,1,-3
1034,5,31,998,-14,2,-3
1035,6,30,997,-14,1,-3
1036,4,29,998,-14,1,-3
1037,3,30,997,-15,0,-4
1038,6,30,996,-12,0,-4
1039,6,31,998,-13,1,-3
1040,3,31,997,-16,1,-3
1041,5,31,998,-13,0,-3
1042,5,30,998,-15,1,-3
1043,4,30,998,-13,1,-3
1044,5,30,1000,-14,0,-3
1045,6,30,998,-15,0,-3
1046,5,32,997,-15,0,-2
1047,5,31,998,-14,1,-3
1048,5,31,998,-14,1,-3
1049,4,32,998,-14,1,-2
1050,4,31,1000,-13,1,-2
1051,4,31,999,-14,0,-3
1052,5,30,998,-15,1,-4
1053,6,32,1000,-15,1,-4
1054,5,31,1000,-13,1,-3
1055,6,31,997,-14,1,-4
1056,6,30,1000,-13,1,-3
1057,5,32,997,-14,1,-3
1058,5,30,997,-13,1,-4
1059,5,31,998,-13,1,-4
1060,5,28,998,-16,1,-3
1061,5,30,999,-14,0,-3
1062,6,30,996,-14,0,-3
1063,6,28,997,-15,1,-3
1064,5,30,996,-13,1,-3
1065,5,28,996,-15,1,-3
1066,7,31,997,-13,1,-3
1067,5,29,998,-13,1,-3
1068,5,30,999,-14,1,-3
1069,5,29,997,-14,1,-3
1070,4,30,997,-14,1,-3
1071,3,30,997,-14,1,-3
1072,5,31,997,-13,1,-4
1073,3,30,997,-15,1,-3
1074,2,31,998,-13,1,-3
1075,5,30,998,-14,1,-2
1076,6,30,998,-13,1,-3
1077,6,31,998,-13,1,-3
1078,4,30,998,-13,1,-3
1079,5,30,998,-14,1,-3
1080,6,31,998,-12,0,-4
1081,6,30,999,-13,0,-4
1082,5,32,1000,-13,2,-3
1083,5,32,999,-13,1,-3
1084,5,31,999,-15,1,-3
1085,5,31,997,-14,2,-3
1086,5,33,999,-14,2,-3
1087,6,30,999,-15,2,-3
1088,2,31,998,-13,0,-3
1089,5,30,995,-14,1,-4
1090,5,30,997,-14,1,-4
1091,5,29,999,-13,2,-3
1092,6,30,998,-13,2,-2
1093,4,29,997,-16,1,-4
1094,4,29,996,-15,1,-3
1095,3,31,997,-14,2,-3
1096,3,31,997,-13,1,-3
1097,3,29,996,-13,0,-3
1098,3,29,998,-14,0,-3
1099,5,29,998,-15,0,-3
1100,3,29,997,-15,1,-2
1101,4,31,998,-14,2,-3
1102,5,32,998,-14,2,-4
1103,4,29,999,-14,2,-3
1104,5,31,997,-14,2,-3
1105,4,30,998,-13,2,-4
1106,4,28,998,-15,1,-3
1107,4,29,997,-13,1,-3
1108,5,30,999,-14,1,-3
1109,4,32,999,-14,1,-3
1110,6,30,999,-14,-1,-4
1111,7,30,999,-13,0,-3
1112,7,32,1000,-12,1,-3
1113,5,30,998,-14,0,-4
1114,5,31,998,-14,0,-3
1115,5,32,997,-15,1,-2
1116,6,32,997,-15,1,-3
1117,7,31,998,-12,0,-2
1118,7,32,999,-14,1,-2
1119,5,31,999,-16,2,-3
1120,5,29,998,-16,2,-3
1121,4,29,997,-15,1,-2
1122,5,29,998,-15,2,-3
1123,5,30,998,-16,1,-3
1124,4,32,997,-14,1,-3
1125,6,31,997,-15,1,-5
1126,5,31,998,-14,1,-4
1127,4,31,998,-13,2,-3
1128,4,32,998,-14,1,-3
1129,4,30,998,-14,0,-3
1130,5,31,998,-13,2,-2
1131,3,32,999,-14,2,-3
1132,4,30,999,-13,2,-4
1133,5,31,998,-14,1,-3
1134,2,31,999,-15,0,-4
1135,2,30,1000,-14,1,-3
1136,3,31,998,-15,1,-4
1137,4,31,1000,-14,2,-3
1138,4,29,999,-13,2,-3
1139,5,29,998,-15,0,-4
1140,4,29,999,-12,0,-4
1141,3,31,999,-14,1,-4
1142,5,30,998,-14,2,-4
1143,4,31,998,-14,1,-4
1144,4,31,998,-15,0,-5
1145,5,31,1000,-13,1,-3
1146,5,30,999,-14,0,-3
1147,3,31,996,-15,1,-4
1148,5,31,998,-15,0,-4
1149,6,29,996,-12,-1,-3
1150,6,30,997,-14,0,-3
1151,5,30,997,-13,0,-4
1152,7,30,997,-15,0,-3
1153,6,29,999,-14,0,-3
1154,6,29,997,-13,1,-3
1155,5,30,998,-13,1,-4
1156,6,31,997,-14,1,-4
1157,5,32,998,-13,1,-3
1158,3,31,997,-16,1,-4
1159,6,30,996,-15,1,-3
1160,6,31,997,-15,0,-4
1161,5,30,998,-13,0,-3
1162,4,31,999,-15,1,-3
1163,5,32,997,-13,1,-3
1164,5,29,997,-14,2,-3
1165,5,30,996,-15,1,-3
1166,6,31,998,-15,2,-3
1167,4,32,998,-14,2,-3
1168,3,32,997,-14,2,-4
1169,4,30,999,-13,2,-3
1170,4,30,999,-12,1,-4
1171,4,32,998,-14,1,-3
1172,3,30,998,-16,1,-4
1173,6,30,999,-14,2,-2
1174,3,30,998,-14,1,-2
1175,5,31,997,-16,0,-3
1176,4,30,998,-13,1,-3
1177,4,29,999,-14,2,-2
1178,4,29,998,-14,1,-3
1179,6,32,998,-13,0,-3
1180,6,31,997,-15,1,-3
1181,6,28,997,-15,-1,-3
1182,4,30,997,-14,1,-3
1183,6,30,998,-15,0,-3
1184,4,29,999,-15,0,-3
1185,7,32,999,-15,0,-3
1186,7,30,998,-13,0,-3
1187,6,30,998,-16,1,-3
1188,7,31,999,-14,1,-3
1189,6,31,999,-14,1,-3
1190,8,30,997,-14,1,-4
1191,7,32,998,-14,1,-3
1192,5,30,998,-12,1,-3
1193,6,30,998,-14,2,-2
1194,6,31,998,-14,2,-3
1195,5,31,997,-15,0,-3
1196,7,32,997,-13,0,-4
1197,4,31,998,-14,2,-4
1198,5,32,999,-16,1,-3
1199,6,31,1000,-14,1,-4
1200,4,29,997,-13,0,-3
1201,5,30,996,-15,1,-4
1202,5,31,998,-15,2,-3
1203,6,30,998,-15,1,-3
1204,6,30,997,-16,1,-3
1205,5,31,999,-14,0,-4
1206,6,30,999,-15,1,-3
1207,3,28,999,-12,0,-3
1208,4,30,997,-14,1,-2
1209,5,32,998,-14,1,-3
1210,4,30,998,-12,1,-4
1211,3,29,998,-15,0,-2
1212,4,29,999,-13,1,-2
1213,4,30,997,-16,1,-3
1214,4,31,998,-14,-1,-3
1215,5,30,998,-14,1,-4
1216,4,31,999,-14,1,-3
1217,4,31,1000,-14,1,-4
1218,5,31,998,-13,1,-3
1219,5,29,999,-14,0,-2
1220,5,32,1000,-15,0,-3
1221,5,30,999,-14,1,-3
1222,5,30,1000,-14,1,-3
1223,6,30,998,-15,2,-1
1224,5,31,999,-14,1,-2
1225,3,30,998,-15,-1,-3
1226,4,30,998,-16,-1,-3
1227,4,30,998,-15,1,-3
1228,5,30,998,-13,0,-4
1229,5,30,998,-13,1,-4
1230,4,29,1000,-14,1,-4
1231,6,32,998,-15,-1,-4
1232,3,30,999,-14,0,-3
1233,4,30,998,-14,1,-3
1234,4,30,998,-15,1,-4
1235,4,30,998,-14,0,-3
1236,6,30,998,-13,1,-3
1237,5,30,997,-14,1,-4
1238,5,32,1000,-14,1,-3
1239,5,30,999,-15,2,-2
1240,5,31,998,-15,1,-3
1241,3,29,998,-14,0,-3
1242,6,29,998,-15,1,-2
1243,6,30,1000,-15,0,-3
1244,6,31,997,-13,1,-3
1245,5,30,998,-15,0,-3
1246,5,30,997,-14,0,-3
1247,6,29,997,-12,1,-2
1248,6,30,999,-15,0,-4
1249,5,31,998,-13,0,-4
1250,4,32,998,-13,0,-4
1251,5,30,998,-14,1,-5
1252,4,30,997,-15,1,-3
1253,2,30,998,-14,2,-4
1254,4,30,998,-14,1,-4
1255,4,30,997,-15,1,-2
1256,4,30,998,-15,1,-3
1257,4,31,997,-13,1,-3
1258,4,30,999,-14,1,-3
1259,5,30,997,-14,0,-3
1260,6,30,999,-13,0,-3
1261,5,29,999,-15,1,-3
1262,4,30,998,-15,1,-3
1263,4,31,1000,-13,1,-4
1264,6,31,998,-15,1,-3
1265,5,31,996,-14,1,-4
1266,6,31,998,-14,0,-3
1267,6,30,998,-16,1,-3
1268,4,29,999,-13,1,-3
1269,5,30,999,-13,1,-3
1270,5,33,999,-13,2,-3
1271,5,31,999,-11,1,-4
1272,5,30,997,-13,1,-3
1273,5,30,999,-12,1,-4
1274,4,30,999,-13,2,-2
1275,4,31,999,-15,1,-3
1276,5,29,998,-14,0,-4
1277,6,31,1000,-14,0,-4
1278,6,30,998,-14,1,-3
1279,5,29,997,-13,2,-2
1280,3,31,998,-14,2,-4
1281,3,31,998,-14,1,-3
1282,4,29,997,-15,1,-3
1283,4,30,998,-14,1,-3
1284,3,29,999,-14,2,-2
1285,3,31,999,-14,1,-2
1286,3,31,996,-12,1,-3
1287,3,30,998,-14,1,-3
1288,4,31,997,-15,1,-3
1289,4,30,998,-12,1,-4
1290,5,29,998,-13,2,-3
1291,6,31,999,-13,1,-3
1292,6,28,998,-14,2,-3
1293,6,30,999,-14,1,-3
1294,5,31,998,-13,2,-4
1295,3,31,997,-15,2,-4
1296,4,30,998,-13,1,-3
1297,4,31,998,-13,1,-3
1298,7,32,998,-14,2,-2
1299,7,30,997,-11,2,-3
1300,5,29,999,-13,1,-2
1301,4,30,997,-14,4,-3
1302,5,31,998,-14,2,-2
1303,6,30,999,-13,1,-3
1304,7,31,999,-15,1,-3
1305,7,31,999,-15,2,-3
1306,6,30,998,-14,1,-3
1307,5,29,998,-13,1,-2
1308,5,28,997,-13,2,-3
1309,6,30,998,-14,1,-3
1310,6,32,999,-13,2,-3
1311,4,28,998,-13,3,-4
1312,4,30,997,-13,2,-3
1313,6,32,998,-13,2,-4
1314,5,32,999,-13,3,-3
1315,5,31,997,-15,3,-3
1316,3,32,998,-13,2,-2
1317,2,33,997,-13,2,-3
1318,3,32,998,-13,1,-4
1319,4,31,998,-13,2,-4
1320,3,30,999,-13,2,-3
1321,3,30,997,-14,2,-2
1322,3,31,999,-13,2,-2
1323,4,29,999,-13,1,-3
1324,3,30,999,-12,2,-3
1325,4,32,999,-13,0,-3
1326,2,30,998,-14,2,-2
1327,3,29,999,-13,1,-2
1328,1,32,999,-12,2,-4
1329,3,32,998,-16,1,-3
1330,4,32,998,-13,1,-3
1331,4,30,1000,-12,0,-3
1332,5,30,998,-15,1,-2
1333,6,28,998,-13,1,-2
1334,5,29,999,-14,1,-4
1335,5,29,1000,-14,1,-4
1336,5,31,998,-14,1,-4
1337,5,32,998,-15,1,-3
1338,6,33,998,-13,2,-3
1339,5,31,999,-14,2,-3
1340,6,32,999,-15,2,-3
1341,6,31,998,-15,1,-3
1342,5,30,998,-14,1,-3
1343,5,30,998,-13,1,-3
1344,3,33,997,-13,2,-3
1345,-2,32,1000,-14,1,-3
1346,1,32,999,-14,1,-3
1347,2,34,998,-15,1,-2
1348,3,30,998,-14,1,-3
1349,4,26,998,-15,0,-4
1350,5,30,999,-18,1,-3
1351,6,30,1000,-29,2,-2
1352,3,31,998,-16,0,-2
1353,1,31,997,-15,-1,-2
1354,4,32,999,-10,1,-3
1355,7,32,999,-19,0,-3
1356,6,29,997,-11,1,-3
1357,7,29,999,-15,0,-3
1358,8,30,997,-18,0,-3
1359,8,30,998,-11,1,-3
1360,5,30,997,-14,2,-3
1361,7,32,997,-14,1,-3
1362,4,34,995,-13,1,-4
1363,7,34,997,-17,1,-3
1364,8,35,998,-13,0,-3
1365,9,32,999,-18,0,-3
1366,6,28,999,-16,0,-4
1367,6,25,1002,-13,2,-3
1368,6,26,999,-15,0,-4
1369,2,25,999,-12,0,-4
1370,3,30,1000,-13,1,-3
1371,3,32,1000,-15,1,-3
1372,4,34,999,-13,0,-3
1373,5,34,998,-15,0,-4
1374,3,33,998,-14,1,-3
1375,1,31,997,-16,1,-3
1376,3,29,999,-15,1,-2
1377,6,29,998,-15,1,-3
1378,5,30,997,-15,0,-3
1379,7,32,998,-15,0,-2
1380,6,29,999,-13,1,-4
1381,4,31,999,-14,1,-3
1382,3,31,998,-13,0,-4
1383,4,31,999,-14,0,-4
1384,4,31,999,-16,1,-2
1385,6,30,998,-15,1,-3
1386,6,32,996,-15,0,-5
1387,7,30,997,-15,0,-4
1388,8,31,999,-14,1,-3
1389,6,30,997,-14,0,-3
1390,5,29,997,-15,1,-3
1391,4,29,998,-14,1,-2
1392,5,28,997,-15,1,-3
1393,5,29,999,-12,2,-3
1394,6,30,998,-13,1,-3
1395,7,29,998,-15,1,-4
1396,4,30,998,-14,1,-2
1397,3,32,998,-13,2,-3
1398,3,32,998,-14,1,-3
1399,4,31,998,-12,2,-3
1400,6,32,999,-15,1,-3
1401,5,32,998,-15,1,-2
1402,6,33,1000,-14,0,-3
1403,4,31,998,-13,0,-2
1404,5,31,998,-14,1,-2
1405,4,31,997,-13,1,-3
1406,4,32,999,-12,1,-3
1407,4,32,997,-15,1,-3
1408,3,33,998,-15,1,-3
1409,2,32,998,-14,1,-2
1410,5,32,997,-13,0,-4
1411,6,33,998,-14,1,-4
1412,6,31,998,-15,1,-3
1413,5,30,998,-13,0,-4
1414,6,29,1000,-13,0,-4
1415,6,30,997,-15,0,-4
1416,5,30,997,-16,1,-4
1417,5,30,999,-15,1,-3
1418,2,31,998,-13,1,-4
1419,4,30,999,-15,1,-4
1420,4,31,999,-16,1,-3
1421,4,31,999,-12,0,-3
1422,5,31,997,-15,0,-3
1423,4,30,999,-14,1,-3
1424,4,32,1000,-14,0,-3
1425,4,28,1000,-14,0,-3
1426,4,28,998,-13,0,-3
1427,5,28,998,-15,1,-3
1428,7,31,999,-14,1,-4
1429,4,29,998,-15,0,-3
1430,4,31,997,-14,0,-2
1431,5,30,999,-15,0,-3
1432,5,30,999,-14,1,-3
1433,6,30,997,-15,1,-3
1434,4,30,997,-13,2,-4
1435,4,29,996,-14,1,-3
1436,4,29,997,-14,1,-3
1437,5,29,998,-15,0,-2
1438,5,31,999,-14,2,-3
1439,6,32,997,-14,0,-3
1440,4,32,998,-14,1,-3
1441,3,32,999,-13,1,-3
1442,5,31,1000,-12,1,-2
1443,5,30,998,-14,0,-3
1444,4,32,998,-15,1,-4
1445,6,29,998,-14,1,-2
1446,6,33,999,-14,1,-4
1447,7,31,997,-15,1,-4
1448,6,32,999,-15,1,-3
1449,4,32,998,-14,0,-3
1450,5,31,998,-14,0,-4
1451,4,30,999,-15,1,-3
1452,2,27,997,-14,2,-4
1453,5,31,997,-14,2,-4
1454,4,29,997,-14,1,-3
1455,3,31,997,-13,1,-3
1456,3,30,998,-13,1,-2
1457,3,31,998,-15,1,-3
1458,4,30,998,-14,1,-3
1459,3,29,998,-12,1,-4
1460,4,29,998,-15,1,-3
1461,4,31,998,-14,1,-3
1462,4,29,999,-14,2,-4
1463,4,30,998,-13,0,-4
1464,5,31,998,-12,0,-3
1465,4,31,999,-14,1,-4
1466,4,31,999,-15,0,-3
1467,6,33,999,-15,1,-3
1468,5,31,996,-14,2,-4
1469,6,31,999,-14,1,-5
1470,7,31,998,-12,0,-3
1471,6,31,998,-15,0,-2
1472,7,31,999,-15,-1,-4
1473,6,33,998,-14,0,-2
1474,6,31,1000,-14,0,-3
1475,7,31,998,-15,1,-2
1476,6,31,999,-14,1,-3
1477,7,30,998,-14,0,-3
1478,6,30,998,-16,0,-3
1479,6,30,999,-14,1,-3
1480,5,30,997,-15,2,-3
1481,5,30,998,-15,2,-3
1482,5,30,998,-13,2,-4
1483,4,31,998,-15,1,-4
1484,3,31,999,-13,1,-3
1485,4,30,999,-13,1,-3
1486,3,30,999,-15,2,-2
1487,5,29,999,-14,2,-2
1488,5,31,999,-16,2,-3
1489,4,32,999,-14,2,-3
1490,5,30,998,-12,2,-3
1491,4,31,998,-13,1,-3
1492,3,32,998,-14,0,-4
1493,2,30,997,-13,-1,-3
1494,2,30,997,-13,1,-2
1495,5,30,999,-13,1,-3
1496,5,29,999,-14,1,-3
1497,4,31,999,-15,1,-4
1498,3,31,999,-14,1,-3
1499,5,31,998,-14,1,-4
1500,4,31,999,-13,1,-5
1501,3,30,998,-14,0,-3
1502,6,31,1000,-14,0,-4
1503,5,31,998,-14,1,-3
1504,4,31,999,-14,1,-3
1505,4,30,999,-15,1,-3
1506,5,30,998,-13,1,-3
1507,3,31,999,-15,1,-2
1508,6,31,998,-13,0,-3
1509,5,31,998,-13,1,-3
1510,4,31,999,-14,2,-4
1511,6,31,999,-13,1,-4
1512,7,31,1000,-15,0,-3
1513,5,30,999,-14,1,-5
1514,6,30,998,-14,0,-3
1515,6,32,999,-14,0,-3
1516,4,30,997,-12,1,-2
1517,6,32,997,-12,0,-2
1518,5,33,999,-13,1,-4
1519,6,31,999,-14,1,-3
1520,5,31,999,-15,1,-4
1521,4,30,998,-13,0,-3
1522,4,30,998,-14,1,-3
1523,7,29,1000,-13,1,-4
1524,4,29,999,-14,2,-3
1525,6,30,999,-13,1,-1
1526,3,31,1000,-13,1,-4
1527,4,30,999,-15,2,-3
1528,4,32,999,-13,1,-3
1529,4,31,1000,-14,1,-4
1530,5,30,998,-15,0,-3
1531,5,30,999,-14,1,-3
1532,5,31,998,-14,1,-5
1533,4,31,999,-14,2,-2
1534,5,29,999,-14,1,-4
1535,6,32,998,-15,0,-3
1536,5,30,997,-13,2,-3
1537,6,30,997,-14,0,-3
1538,6,31,999,-13,1,-2
1539,6,31,998,-13,1,-2
1540,4,31,998,-15,1,-3
1541,7,30,999,-14,-1,-3
1542,6,31,1000,-13,1,-4
1543,4,32,1000,-13,1,-3
1544,5,31,998,-12,1,-3
1545,7,31,999,-15,1,-3
1546,6,31,997,-13,2,-3
1547,3,31,997,-13,2,-2
1548,4,31,998,-13,3,-4
1549,6,30,1000,-14,2,-3
1550,5,31,999,-14,1,-3
1551,4,31,998,-14,1,-3
1552,5,29,1001,-14,1,-3
1553,4,29,1000,-15,0,-3
1554,6,30,998,-14,1,-4
1555,6,28,997,-13,0,-3
1556,5,30,998,-13,0,-3
1557,5,31,997,-15,1,-3
1558,5,30,996,-14,3,-3
1559,5,31,998,-14,2,-3
1560,6,30,999,-14,2,-3
1561,6,30,998,-14,2,-3
1562,6,31,998,-13,0,-3
1563,5,31,998,-12,1,-3
1564,5,31,1000,-13,1,-2
1565,6,31,998,-12,1,-2
1566,3,31,1000,-14,2,-3
1567,3,30,999,-14,1,-3
1568,3,29,1000,-15,0,-4
1569,3,30,998,-14,0,-4
1570,3,30,999,-13,1,-4
1571,6,30,998,-15,1,-3
1572,5,29,998,-14,1,-2
1573,6,30,998,-14,0,-3
1574,7,31,998,-15,2,-3
1575,5,32,997,-14,1,-4
1576,4,32,999,-13,1,-3
1577,2,30,998,-12,0,-3
1578,3,30,996,-15,0,-3
1579,2,32,997,-14,0,-4
1580,3,30,998,-14,0,-3
1581,3,30,998,-13,0,-3
1582,4,30,998,-13,1,-3
1583,3,32,998,-15,1,-3
1584,4,30,996,-14,1,-3
1585,4,30,996,-15,1,-4
1586,2,31,996,-13,1,-3
1587,5,31,998,-13,1,-4
1588,5,31,997,-13,1,-3
1589,5,31,998,-14,2,-3
1590,6,31,999,-13,0,-3
1591,7,31,998,-14,1,-3
1592,5,30,999,-15,2,-2
1593,6,30,999,-14,0,-3
1594,5,30,998,-13,1,-3
1595,4,31,999,-14,0,-3
1596,5,31,998,-13,1,-4
1597,5,31,998,-15,1,-2
1598,5,31,998,-14,0,-4
1599,4,31,998,-12,1,-3
1600,3,30,999,-13,1,-3
1601,5,30,998,-13,1,-2
1602,3,30,998,-13,1,-3
1603,4,31,999,-14,1,-3
1604,5,32,998,-14,1,-3
1605,6,32,998,-13,0,-3
1606,5,30,999,-14,1,-3
1607,3,33,997,-12,1,-4
1608,3,31,998,-14,0,-3
1609,4,31,1000,-14,2,-3
1610,3,32,998,-14,2,-3
1611,1,30,997,-14,1,-3
1612,6,32,999,-13,1,-3
1613,5,31,998,-14,0,-2
1614,5,31,998,-16,1,-3
1615,4,31,997,-13,1,-3
1616,4,30,998,-14,1,-2
1617,5,31,997,-12,1,-2
1618,5,31,998,-11,0,-2
1619,4,29,999,-14,1,-3
1620,4,30,999,-13,1,-3
1621,4,32,998,-15,1,-3
1622,3,30,999,-14,2,-3
1623,4,29,998,-13,2,-3
1624,2,32,998,-13,2,-3
1625,3,31,998,-13,2,-3
1626,4,31,998,-14,1,-3
1627,3,31,998,-13,1,-4
1628,2,31,998,-13,0,-3
1629,4,31,999,-12,1,-3
1630,5,31,998,-15,0,-4
1631,3,32,999,-14,1,-3
1632,6,32,997,-13,0,-4
1633,6,30,998,-13,1,-3
1634,4,31,996,-14,0,-4
1635,4,30,998,-13,0,-4
1636,5,30,999,-15,0,-3
1637,3,28,998,-15,0,-3
1638,5,31,996,-15,2,-3
1639,3,30,997,-15,1,-4
1640,4,28,999,-14,1,-4
1641,6,30,1000,-14,0,-4
1642,6,29,998,-15,1,-3
1643,6,30,999,-15,1,-4
1644,6,30,998,-15,-1,-3
1645,5,30,998,-16,-1,-3
1646,5,31,999,-15,0,-3
1647,5,30,998,-15,3,-3
1648,3,32,999,-14,3,-2
1649,3,29,997,-13,1,-3
1650,7,30,998,-15,1,-2
1651,6,31,998,-13,1,-3
1652,7,30,998,-15,0,-2
1653,5,30,999,-13,1,-3
1654,5,30,999,-13,1,-4
1655,6,30,997,-14,2,-3
1656,5,33,998,-13,1,-3
1657,4,31,999,-16,1,-3
1658,6,30,998,-14,0,-3
1659,6,31,999,-13,1,-3
1660,5,30,998,-14,0,-3
1661,5,29,997,-13,1,-3
1662,5,31,998,-16,1,-2
1663,5,31,998,-13,0,-3
1664,3,31,998,-14,0,-3
1665,4,30,999,-13,0,-2
1666,6,32,998,-15,1,-3
1667,6,32,998,-15,1,-4
1668,5,30,998,-16,0,-3
1669,5,31,998,-16,0,-3
1670,6,29,999,-13,1,-2
1671,6,30,998,-14,0,-2
1672,5,31,997,-15,1,-3
1673,5,32,997,-15,1,-3
1674,5,30,998,-15,2,-3
1675,5,30,999,-15,0,-4
1676,4,30,997,-14,0,-4
1677,5,32,998,-13,1,-3
1678,5,31,998,-13,0,-3
1679,3,31,999,-13,1,-4
1680,4,32,997,-15,1,-3
1681,3,33,998,-15,1,-3
1682,5,33,996,-14,0,-3
1683,5,31,998,-14,1,-4
1684,5,32,999,-15,2,-3
1685,6,32,997,-15,1,-2
1686,5,32,998,-14,2,-3
1687,6,31,998,-15,0,-3
1688,3,30,998,-12,1,-3
1689,3,30,996,-12,0,-4
1690,3,32,999,4,2,-3
1691,4,31,999,-11,0,-3
1692,5,30,998,-13,1,-3
1693,6,30,997,-16,1,-3
1694,4,30,998,-11,1,-3
1695,5,30,997,-17,0,-3
1696,4,30,997,-15,1,-3
1697,6,31,998,-12,1,-3
1698,6,33,999,-15,0,-4
1699,6,31,997,-14,0,-3
1700,6,29,998,-14,2,-3
1701,4,31,999,-14,1,-3
1702,4,30,998,-13,0,-4
1703,6,30,997,-15,0,-3
1704,6,30,998,-15,1,-4
1705,6,30,997,-14,2,-4
1706,6,29,998,-14,0,-3
1707,4,30,997,-12,0,-3
1708,4,31,998,-14,0,-2
1709,4,32,998,-13,1,-4
1710,5,32,997,-12,1,-4
1711,5,31,998,-15,0,-3
1712,4,31,997,-15,1,-3
1713,5,30,998,-15,1,-3
1714,6,31,997,-14,1,-2
1715,4,31,998,-13,2,-4
1716,5,31,998,-13,2,-4
1717,4,30,997,-15,2,-3
1718,4,29,1000,-16,1,-2
1719,5,31,999,-15,1,-3
1720,4,30,1000,-14,2,-4
1721,4,30,999,-14,1,-2
1722,5,30,997,-12,2,-3
1723,5,29,998,-13,1,-2
1724,3,29,999,-15,1,-3
1725,5,33,1000,-13,0,-3
1726,6,31,997,-16,0,-2
1727,5,30,997,-13,0,-3
1728,4,31,997,-14,1,-4
1729,5,32,998,-14,2,-4
1730,5,30,998,-14,1,-3
1731,4,29,998,-15,0,-3
1732,4,31,999,-15,0,-5
1733,5,30,999,-14,1,-3
1734,6,30,999,-17,0,-4
1735,5,30,997,-14,2,-2
1736,5,32,997,-15,1,-3
1737,5,31,999,-15,1,-3
1738,5,30,998,-13,1,-2
1739,4,29,997,-15,2,-2
1740,6,32,998,-15,1,-2
1741,4,31,999,-13,0,-4
1742,4,32,998,-15,0,-4
1743,5,30,997,-16,2,-3
1744,6,31,998,-13,1,-3
1745,6,31,997,-14,1,-4
1746,5,31,999,-13,1,-3
1747,4,29,998,-15,1,-3
1748,4,31,998,-14,2,-3
1749,3,30,998,-14,1,-4
1750,4,30,999,-14,1,-4
1751,4,31,998,-13,1,-3
1752,5,32,999,-14,1,-3
1753,4,32,998,-15,1,-4
1754,3,32,998,-15,0,-3
1755,3,32,998,-15,1,-2
1756,5,30,998,-15,1,-3
1757,2,31,997,-13,2,-4
1758,2,29,998,-15,0,-4
1759,5,28,998,-13,1,-3
1760,5,30,996,-14,0,-3
1761,4,30,999,-14,1,-4
1762,4,28,999,-11,0,-5
1763,4,31,997,-14,1,-4
1764,5,31,998,-13,1,-3
1765,6,32,997,-13,1,-3
1766,4,32,997,-14,2,-3
1767,5,30,997,-15,0,-3
1768,5,31,998,-15,1,-4
1769,6,30,998,-14,0,-3
1770,5,31,997,-13,2,-4
1771,5,31,998,-13,0,-3
1772,5,30,998,-13,0,-4
1773,5,30,997,-14,1,-3
1774,3,30,999,-14,1,-3
1775,4,30,999,-15,0,-3
1776,3,31,999,-15,1,-3
1777,5,29,998,-14,1,-2
1778,7,30,999,-13,0,-3
1779,5,29,997,-14,1,-3
1780,5,30,999,-15,1,-3
1781,6,32,998,-14,1,-3
1782,4,32,997,-14,1,-3
1783,6,30,998,-15,2,-3
1784,6,30,998,-15,2,-3
1785,5,31,999,-15,1,-3
1786,5,32,998,-15,1,-3
1787,4,30,998,-15,1,-3
1788,6,30,998,-13,1,-2
1789,3,30,999,-15,1,-2
1790,5,31,998,-14,2,-2
1791,5,31,998,-13,1,-2
1792,2,31,997,-16,0,-3
1793,3,31,998,-14,0,-4
1794,4,30,998,-14,1,-3
1795,4,31,999,-14,0,-3
1796,5,30,998,-16,0,-2
1797,5,33,997,-13,2,-3
1798,6,32,999,-13,2,-3
1799,4,30,1000,-15,0,-4
1800,5,32,997,-15,1,-4
1801,4,31,998,-14,1,-3
1802,6,30,998,-16,1,-4
1803,5,29,998,-14,0,-4
1804,5,30,998,-15,1,-3
1805,4,31,999,-14,2,-3
1806,4,30,999,-13,1,-3
1807,5,33,997,-14,1,-2
1808,4,31,998,-14,0,-3
1809,3,31,998,-16,0,-3
1810,5,32,998,-14,1,-3
1811,6,32,998,-13,2,-4
1812,5,31,999,-13,2,-3
1813,5,31,999,-14,0,-2
1814,5,28,999,-14,0,-4
1815,5,32,999,-16,1,-4
1816,6,29,997,-14,1,-3
1817,3,30,997,-15,2,-2
1818,4,32,997,-14,1,-2
1819,3,31,998,-14,1,-2
1820,5,29,998,-14,1,-2
1821,4,30,997,-13,1,-4
1822,5,31,998,-13,1,-2
1823,4,32,998,-13,-1,-3
1824,7,31,997,-15,1,-3
1825,6,29,1000,-15,1,-2
1826,6,31,996,-16,1,-3
1827,6,30,998,-13,1,-3
1828,6,31,998,-13,1,-3
1829,6,29,999,-15,1,-4
1830,6,30,997,-15,1,-4
1831,4,30,997,-15,2,-3
1832,5,31,998,-17,1,-3
1833,4,30,999,-13,1,-3
1834,4,29,998,-14,1,-4
1835,5,31,998,-16,1,-3
1836,5,30,999,-15,1,-3
1837,5,31,998,-15,2,-4
1838,4,32,998,-14,0,-3
1839,3,31,999,-13,1,-2
1840,4,31,998,-15,-1,-3
1841,4,30,997,-15,0,-4
1842,4,31,998,-14,1,-3
1843,4,31,999,-13,1,-3
1844,3,30,1000,-14,1,-4
1845,4,31,999,-15,1,-3
1846,5,30,998,-13,2,-2
1847,3,30,998,-14,1,-3
1848,5,31,998,-13,0,-4
1849,3,31,998,-14,1,-4
1850,4,31,997,-14,0,-4
1851,3,30,999,-13,0,-4
1852,6,30,999,-14,0,-3
1853,4,31,999,-13,1,-3
1854,6,31,997,-14,1,-2
1855,5,30,997,-15,1,-3
1856,4,31,999,-13,1,-3
1857,4,30,999,-15,1,-3
1858,5,29,999,-15,2,-2
1859,4,30,999,-13,0,-1
1860,3,31,998,-15,1,-2
1861,3,30,999,-15,2,-3
1862,3,31,998,-15,3,-4
1863,4,31,999,-15,1,-2
1864,5,33,999,-14,0,-3
1865,4,31,998,-14,0,-3
1866,4,31,998,-13,0,-4
1867,5,32,997,-17,1,-2
1868,5,29,998,-14,1,-3
1869,5,31,999,-12,1,-3
1870,5,31,998,-14,0,-4
1871,6,30,1001,-14,1,-4
1872,4,31,998,-12,0,-3
1873,4,30,999,-14,0,-3
1874,4,32,998,-14,1,-3
1875,4,28,997,-13,1,-4
1876,3,29,998,-15,1,-4
1877,4,30,998,-12,1,-3
1878,5,29,998,-15,0,-2
1879,4,28,998,-15,-1,-3
1880,4,32,999,-14,0,-3
1881,4,29,996,-15,0,-3
1882,5,31,997,-13,1,-3
1883,4,31,998,-14,2,-3
1884,4,31,997,-14,2,-3
1885,5,29,998,-13,2,-3
1886,5,30,999,-17,1,-3
1887,4,32,997,-13,2,-3
1888,7,31,997,-14,1,-3
1889,5,32,999,-14,0,-2
1890,5,32,996,-14,1,-4
1891,6,31,998,-14,0,-4
1892,6,32,999,-14,-1,-2
1893,5,31,998,-13,1,-2
1894,6,29,998,-14,1,-3
1895,5,31,999,-14,2,-3
1896,4,29,999,-14,1,-3
1897,2,29,999,-16,1,-3
1898,4,29,998,-14,1,-4
1899,3,31,999,-14,2,-5
1900,5,32,1000,-15,1,-5
1901,3,31,997,-16,1,-5
1902,2,30,999,-14,1,-3
1903,4,29,998,-14,1,-3
1904,3,30,996,-13,0,-4
1905,5,31,998,-13,1,-2
1906,5,31,998,-15,0,-3
1907,3,31,997,-15,1,-3
1908,5,31,998,-14,1,-2
1909,5,30,998,-15,0,-3
1910,5,31,999,-13,0,-3
1911,4,32,998,-14,0,-3
1912,4,29,998,-14,0,-4
1913,3,31,997,-13,1,-4
1914,6,31,999,-13,0,-5
1915,3,29,998,-14,1,-3
1916,5,30,998,-15,1,-3
1917,4,31,998,-13,2,-4
1918,3,30,999,-13,0,-3
1919,3,29,998,-14,0,-4
1920,5,29,997,-14,0,-4
1921,3,31,998,-14,1,-3
1922,5,31,997,-14,2,-3
1923,6,30,997,-13,0,-4
1924,5,31,998,-14,0,-3
1925,4,31,998,-13,1,-3
1926,5,30,998,-13,1,-3
1927,4,31,998,-12,1,-3
1928,2,30,999,-14,2,-4
1929,4,31,998,-14,1,-2
1930,4,30,998,-14,0,-3
1931,4,29,998,-16,2,-4
1932,3,29,1000,-13,1,-4
1933,5,31,995,-13,1,-4
1934,7,32,998,-14,1,-4
1935,5,32,998,-15,1,-4
1936,5,30,997,-15,1,-3
1937,6,30,999,-15,1,-3
1938,5,29,999,-14,0,-3
1939,4,30,999,-14,1,-4
1940,5,30,998,-14,2,-3
1941,4,30,1000,-13,1,-3
1942,5,31,998,-14,1,-3
1943,4,33,998,-15,2,-3
1944,4,30,999,-15,2,-4
1945,4,32,998,-15,2,-3
1946,3,30,996,-12,0,-3
1947,4,31,997,-16,0,-2
1948,4,31,996,-15,1,-3
1949,6,31,997,-14,0,-3
1950,5,30,999,-16,0,-3
1951,4,29,998,-13,1,-4
1952,4,31,997,-14,0,-4
1953,4,32,998,-15,1,-3
1954,6,32,999,-13,1,-3
1955,6,31,997,-15,0,-3
1956,6,31,998,-14,2,-4
1957,4,30,998,-13,1,-4
1958,6,31,997,-16,2,-3
1959,6,31,998,-13,1,-3
1960,5,30,998,-14,0,-3
1961,5,30,998,-15,0,-3
1962,5,31,998,-13,1,-3
1963,5,32,998,-15,0,-4
1964,6,31,998,-15,1,-3
1965,4,29,998,-13,0,-3
1966,5,30,999,-15,1,-3
1967,5,32,998,-13,1,-3
1968,6,31,999,-15,1,-3
1969,3,31,998,-15,2,-3
1970,3,32,999,-13,1,-3
1971,5,31,998,-14,1,-3
1972,4,30,998,-14,1,-3
1973,5,31,998,-14,1,-4
1974,3,31,998,-15,1,-2
1975,5,31,998,-14,0,-3
1976,4,30,998,-14,1,-4
1977,4,31,998,-13,0,-3
1978,6,29,998,-13,1,-3
1979,5,31,998,-13,0,-3
1980,4,32,998,-13,1,-4
1981,5,30,998,-14,0,-3
1982,5,29,997,-13,0,-3
1983,5,31,998,-13,1,-3
1984,6,30,998,-13,2,-3
1985,5,29,998,-13,1,-3
1986,3,31,997,-14,1,-2
1987,4,31,996,-15,2,-3
1988,4,31,999,-14,2,-3
1989,4,32,999,-15,2,-3
1990,5,31,998,-15,1,-3
1991,5,31,997,-14,1,-3
1992,5,32,997,-14,2,-3
1993,4,32,999,-14,0,-3
1994,6,30,999,-14,0,-3
1995,4,30,999,-15,0,-3
1996,4,30,998,-14,1,-2
1997,4,31,999,-15,1,-3
1998,5,30,998,-14,0,-3
1999,5,29,998,-14,1,-5
2000,4,30,999,-16,1,-5
2001,3,30,999,-14,2,-4
2002,6,30,999,-14,1,-2
2003,6,30,998,-15,1,-3
2004,4,31,998,-12,0,-4
2005,4,31,996,-13,2,-4
2006,6,30,998,-15,1,-5
2007,5,29,999,-14,1,-4
2008,5,31,999,-14,1,-4
2009,4,29,998,-12,1,-4
2010,5,30,998,-14,1,-3
2011,5,31,998,-15,1,-4
2012,4,30,999,-14,1,-4
2013,5,31,998,-13,2,-4
2014,3,31,998,-15,1,-4
2015,5,29,999,-13,1,-3
2016,6,30,997,-13,0,-3
2017,5,31,999,-13,0,-2
2018,4,31,999,-15,1,-2
2019,5,31,999,-15,0,-3
2020,5,30,998,-15,1,-4
2021,5,28,997,-14,1,-4
2022,4,31,998,-15,2,-3
2023,3,32,999,-15,1,-3
2024,4,31,998,-13,1,-3
2025,5,29,997,-14,1,-3
2026,4,31,997,-13,1,-2
2027,6,30,999,-15,2,-3
2028,4,31,999,-16,2,-2
2029,3,29,997,-13,0,-3
2030,5,32,997,-12,1,-3
2031,6,31,1000,-12,-1,-3
2032,6,31,1000,-18,0,-3
2033,6,30,998,-13,1,-4
2034,5,31,999,-14,0,-3
2035,6,31,999,-16,0,-3
2036,4,30,1000,-12,1,-3
2037,4,32,998,-16,1,-3
2038,5,31,999,-15,1,-2
2039,5,31,998,-14,1,-3
2040,4,30,998,-16,0,-3
2041,4,31,998,-13,0,-4
2042,7,30,999,-15,1,-3
2043,4,32,998,-15,1,-3
2044,4,31,998,-14,0,-4
2045,3,31,998,-15,1,-4
2046,5,31,997,-15,2,-3
2047,5,30,997,-14,0,-3
2048,3,32,998,-14,0,-3
2049,6,31,996,-13,1,-4
2050,6,33,999,-15,0,-4
2051,4,32,997,-14,0,-3
2052,3,31,997,-13,1,-3
2053,3,29,997,-15,1,-4
2054,5,31,998,-13,1,-4
2055,4,31,998,-15,1,-3
2056,3,30,996,-16,1,-3
2057,4,31,997,-13,0,-4
2058,6,31,997,-15,0,-2
2059,4,30,997,-15,-1,-2
2060,4,31,998,-14,1,-2
2061,4,31,998,-14,1,-3
2062,6,31,999,-11,2,-4
2063,4,31,997,-14,2,-4
2064,5,31,998,-13,1,-4
2065,4,31,998,-13,-1,-3
2066,4,31,998,-14,1,-3
2067,2,30,997,-13,1,-2
2068,4,29,999,-13,0,-2
2069,4,31,998,-16,0,-3
2070,4,30,999,-15,1,-3
2071,5,32,999,-13,1,-3
2072,4,32,996,-14,1,-4
2073,5,31,997,-15,1,-4
2074,4,30,996,-15,1,-3
2075,5,31,998,-14,1,-4
2076,5,29,998,-15,0,-4
2077,6,30,998,-13,1,-3
2078,4,29,999,-16,0,-4
2079,5,30,996,-15,0,-4
2080,6,31,996,-14,1,-3
2081,5,31,998,-14,0,-4
2082,4,31,997,-13,0,-4
2083,4,32,998,-14,1,-3
2084,5,30,997,-14,0,-3
2085,5,31,999,-14,1,-3
2086,5,30,998,-15,0,-3
2087,4,30,998,-13,0,-3
2088,5,29,999,-16,1,-3
2089,6,31,999,-13,2,-3
2090,5,31,997,-14,2,-2
2091,5,30,997,-13,1,-4
2092,5,32,999,-14,0,-3
2093,4,30,999,-15,1,-3
2094,5,32,998,-13,2,-4
2095,4,30,999,-14,1,-3
2096,5,30,998,-13,1,-3
2097,4,31,997,-14,1,-3
2098,4,31,998,-15,2,-3
2099,2,31,998,-14,2,-4
2100,4,31,999,-14,1,-3
2101,4,30,999,-15,2,-2
2102,7,31,998,-14,1,-4
2103,6,30,998,-13,0,-3
2104,6,31,997,-16,1,-2
2105,6,33,999,-15,1,-3
2106,5,30,999,-14,1,-4
2107,4,31,997,-12,1,-4
2108,5,28,998,-13,1,-2
2109,3,30,999,-15,0,-3
2110,6,31,997,-13,2,-3
2111,4,31,998,-16,2,-3
2112,5,30,1000,-15,1,-3
2113,5,30,998,-15,1,-3
2114,4,31,1000,-14,1,-3
2115,4,31,998,-14,0,-3
2116,4,31,998,-13,0,-3
2117,6,32,997,-16,1,-4
2118,4,30,997,-14,1,-3
2119,3,31,997,-14,0,-3
2120,4,31,999,-14,0,-3
2121,4,29,999,-14,1,-3
2122,5,29,998,-15,1,-3
2123,5,30,997,-14,2,-4
2124,3,32,998,-15,2,-4
2125,5,32,999,-13,1,-4
2126,6,30,998,-14,1,-4
2127,6,31,997,-14,2,-3
2128,6,31,998,-16,1,-3
2129,3,31,999,-14,0,-3
2130,5,29,998,-14,0,-3
2131,3,31,997,-15,0,-4
2132,5,31,998,-14,1,-3
2133,5,31,997,-13,0,-4
2134,4,29,998,-12,2,-4
2135,3,31,1000,-15,2,-4
2136,6,31,999,-14,1,-3
2137,5,29,998,-14,0,-2
2138,5,31,997,-17,1,-4
2139,5,30,999,-13,1,-4
2140,6,31,999,-14,1,-3
2141,5,30,997,-14,1,-3
2142,5,30,998,-13,1,-3
2143,3,32,998,-15,1,-4
2144,4,33,997,-14,0,-4
2145,3,32,998,-13,0,-3
2146,6,31,997,-14,0,-2
2147,5,32,998,-12,0,-4
2148,4,30,998,-14,1,-5
2149,5,31,998,-13,1,-3
2150,3,29,999,-12,1,-3
2151,3,30,999,-14,1,-3
2152,4,30,999,-14,1,-4
2153,5,30,997,-15,2,-4
2154,6,30,997,-16,1,-3
2155,5,30,999,-16,1,-4
2156,6,31,997,-16,1,-3
2157,2,28,997,-12,1,-4
2158,6,31,997,-15,2,-4
2159,4,30,997,-15,2,-3
2160,5,31,998,-14,1,-2
2161,3,31,998,-15,1,-2
2162,7,31,999,-13,0,-4
2163,5,30,998,-15,1,-2
2164,4,30,999,-16,1,-3
2165,5,31,998,-14,0,-4
2166,4,30,998,-14,1,-4
2167,5,31,997,-15,1,-2
2168,5,31,998,-15,1,-3
2169,5,32,998,-15,2,-2
2170,5,30,999,-14,0,-3
2171,7,30,998,-14,1,-3
2172,8,30,997,-13,1,-2
2173,5,31,998,-16,1,-3
2174,4,31,997,-14,1,-3
2175,4,29,996,-15,1,-2
2176,6,30,998,-14,1,-2
2177,4,31,997,-15,2,-3
2178,6,31,998,-14,1,-3
2179,5,30,998,-16,1,-3
2180,4,30,998,-14,1,-3
2181,4,31,999,-13,1,-3
2182,4,29,997,-14,0,-4
2183,5,31,999,-13,0,-4
2184,6,30,998,-14,1,-4
2185,4,29,997,-15,0,-2
2186,5,31,999,-13,1,-3
2187,4,31,999,-15,1,-2
2188,5,32,998,-14,1,-3
2189,6,32,999,-14,0,-4
2190,5,32,998,-14,1,-4
2191,6,31,998,-15,2,-3
2192,6,31,998,-14,1,-4
2193,6,32,998,-14,1,-3
2194,3,30,998,-12,0,-3
2195,2,29,999,-15,0,-3
2196,3,30,998,-17,1,-3
2197,5,30,998,-15,1,-3
2198,3,31,996,-13,2,-3
2199,6,30,997,-14,0,-2
2200,6,30,997,-14,0,-3
2201,5,31,997,-15,0,-4
2202,5,31,998,-14,1,-3
2203,3,31,999,-15,1,-2
2204,4,31,998,-14,1,-3
2205,4,30,998,-16,0,-3
2206,5,33,999,-13,1,-4
2207,5,33,1000,-14,1,-4
2208,5,30,999,-15,1,-3
2209,4,31,999,-14,0,-3
2210,5,30,999,-14,0,-3
2211,4,31,998,-14,1,-3
2212,2,30,998,-15,1,-3
2213,5,29,998,-14,0,-3
2214,5,30,998,-15,1,-3
2215,4,31,996,-14,1,-3
2216,3,32,997,-15,2,-3
2217,2,33,998,-14,1,-4
2218,3,29,997,-16,2,-3
2219,4,31,1000,-14,1,-3
2220,4,30,999,-15,2,-3
2221,4,30,1000,-13,1,-3
2222,3,31,999,-14,0,-3
2223,5,30,998,-13,0,-3
2224,5,31,997,-13,0,-3
2225,4,30,997,-13,1,-2
2226,6,32,999,-15,1,-2
2227,4,31,998,-15,-1,-3
2228,4,31,997,-14,0,-4
2229,7,32,998,-14,0,-2
2230,5,30,1000,-14,1,-3
2231,5,32,998,-15,1,-3
2232,5,30,999,-15,0,-2
2233,5,30,1000,-14,0,-3
2234,4,30,999,-14,0,-3
2235,5,30,1000,-15,2,-2
2236,4,31,998,-15,1,-2
2237,4,30,999,-14,1,-2
2238,4,31,997,-15,1,-2
2239,5,31,997,-14,2,-3
2240,4,30,997,-13,0,-2
2241,4,33,996,-14,1,-2
2242,5,31,998,-14,0,-1
2243,4,31,998,-15,2,-2
2244,5,30,998,-13,2,-2
2245,3,29,998,-13,0,-4
2246,2,29,997,-16,0,-2
2247,2,30,996,-13,1,-3
2248,5,30,998,-14,0,-3
2249,4,31,998,-14,1,-2
2250,5,30,999,-13,1,-3
2251,5,32,996,-14,0,-2
2252,6,29,997,-14,2,-2
2253,5,31,997,-15,1,-4
2254,4,29,999,-15,1,-3
2255,3,30,997,-13,1,-3
2256,6,29,999,-14,1,-3
2257,5,31,998,-13,1,-3
2258,4,30,998,-14,2,-4
2259,5,30,998,-15,0,-2
2260,6,31,999,-12,0,-3
2261,2,29,998,-13,0,-3
2262,3,30,998,-13,2,-3
2263,5,31,999,-13,1,-3
2264,4,28,997,-16,1,-3
2265,6,29,998,-15,2,-3
2266,6,30,998,-15,1,-4
2267,6,31,998,-14,1,-4
2268,4,32,998,-13,0,-3
2269,5,31,998,-14,1,-3
2270,5,31,998,-12,0,-3
2271,4,31,998,-15,1,-3
2272,4,29,998,-13,2,-4
2273,3,31,999,-13,2,-3
2274,6,30,999,-13,-1,-2
2275,5,30,999,-12,1,-3
2276,6,31,1000,-13,1,-3
2277,5,31,997,-14,1,-3
2278,5,31,998,-13,2,-3
2279,5,32,998,-15,1,-2
2280,4,31,1000,-14,1,-3
2281,5,30,998,-14,1,-3
2282,4,32,997,-14,1,-3
2283,6,31,998,-14,1,-2
2284,5,31,1000,-15,-1,-3
2285,6,31,999,-12,1,-3
2286,4,30,999,-15,1,-3
2287,5,33,999,-15,2,-4
2288,4,30,999,-13,1,-4
2289,4,32,998,-14,1,-3
2290,4,32,998,-13,1,-4
2291,5,31,998,-13,1,-3
2292,4,31,998,-16,2,-3
2293,6,29,996,-14,1,-3
2294,5,29,997,-14,1,-4
2295,4,32,999,-14,1,-3
2296,5,30,998,-13,1,-3
2297,5,31,998,-15,2,-3
2298,5,31,997,-15,2,-3
2299,3,30,998,-14,2,-4
2300,4,29,1000,-13,1,-3
2301,4,30,998,-14,2,-3
2302,5,30,999,-14,1,-3
2303,4,30,1000,-14,1,-4
2304,4,30,999,-14,0,-3
2305,4,31,998,-13,0,-3
2306,6,31,998,-13,1,-3
2307,3,31,999,-14,1,-3
2308,2,31,998,-14,1,-2
2309,4,30,998,-13,1,-3
2310,5,30,999,-13,0,-3
2311,6,30,1000,-14,0,-3
2312,6,30,999,-15,1,-4
2313,6,30,997,-14,1,-4
2314,5,31,999,-14,0,-3
2315,4,32,999,-13,1,-3
2316,5,31,997,-14,0,-3
2317,5,29,997,-13,1,-3
2318,4,30,999,-14,1,-3
2319,5,30,997,-13,0,-3
2320,3,32,998,-14,1,-3
2321,3,31,999,-14,0,-3
2322,5,30,997,-14,1,-3
2323,4,31,999,-15,0,-2
2324,5,30,999,-13,0,-3
2325,4,31,998,-13,0,-3
2326,4,30,998,-16,1,-3
2327,4,30,998,-13,2,-3
2328,4,31,996,-15,1,-3
2329,5,31,997,-14,0,-2
2330,3,31,998,-14,0,-2
2331,5,31,1000,-15,1,-3
2332,4,31,999,-15,1,-3
2333,4,31,998,-15,1,-4
2334,4,30,999,-14,2,-2
2335,3,31,999,-15,1,-3
2336,4,30,997,-14,0,-3
2337,4,30,998,-13,0,-3
2338,5,31,999,-15,0,-3
2339,4,32,998,-14,1,-2
2340,5,30,998,-16,2,-3
2341,5,30,999,-13,2,-3
2342,3,31,999,-13,2,-3
2343,5,30,998,-14,1,-4
2344,4,30,998,-14,1,-4
2345,4,30,998,-15,1,-4
2346,4,30,998,-15,1,-3
2347,4,30,998,-13,1,-2
2348,5,30,997,-13,1,-2
2349,4,30,997,-13,2,-2
2350,3,30,998,-14,0,-2
2351,4,30,998,-14,1,-2
2352,5,31,997,-14,0,-2
2353,4,30,998,-16,1,-3
2354,5,29,999,-14,1,-2
2355,4,30,998,-13,1,-3
2356,6,28,998,-15,1,-3
2357,6,32,998,-13,0,-3
2358,4,32,999,-13,0,-3
2359,4,30,998,-15,1,-3
2360,5,30,996,-13,0,-4
2361,5,31,999,-14,0,-3
2362,4,30,998,-14,0,-3
2363,5,32,998,-14,0,-2
2364,6,30,998,-13,0,-3
2365,5,29,999,-12,0,-3
2366,4,29,998,-8,0,-4
2367,4,30,996,-11,0,-4
2368,4,31,998,-12,0,-3
2369,5,31,998,-17,1,-3
2370,5,31,998,-10,1,-4
2371,4,30,997,-16,2,-2
2372,4,30,999,-15,1,-2
2373,5,30,999,-12,1,-4
2374,4,31,999,-16,-1,-3
2375,5,30,998,-12,0,-3
2376,5,30,998,-14,1,-3
2377,3,30,999,-16,0,-4
2378,4,30,999,-12,1,-3
2379,4,31,1000,-15,1,-3
2380,5,31,998,-13,2,-3
2381,5,31,999,-14,2,-3
2382,7,31,998,-14,1,-3
2383,4,32,998,-14,2,-3
2384,4,30,999,-15,1,-4
2385,2,30,999,-14,0,-4
2386,5,32,998,-13,1,-3
2387,5,30,998,-14,0,-3
2388,6,30,998,-15,2,-3
2389,5,30,997,-15,2,-3
2390,3,30,997,-15,1,-4
2391,3,31,999,-14,1,-2
2392,5,30,999,-15,1,-3
2393,4,30,997,-14,0,-3
2394,5,31,998,-14,1,-3
2395,4,31,997,-14,0,-3
2396,5,32,997,-13,0,-3
2397,5,31,998,-12,0,-3
2398,4,31,999,-15,2,-3
2399,6,32,998,-15,1,-3
2400,6,32,997,-13,1,-3
2401,4,29,999,-14,0,-3
2402,5,29,999,-14,1,-3
2403,6,28,998,-15,0,-3
2404,3,30,998,-15,0,-3
2405,3,31,998,-15,0,-4
2406,4,31,998,-16,1,-4
2407,4,30,997,-13,0,-4
2408,5,31,998,-15,0,-3
2409,6,31,998,-13,0,-3
2410,4,31,997,-14,1,-3
2411,6,32,997,-15,1,-4
2412,4,31,999,-15,0,-4
2413,4,31,998,-15,1,-4
2414,6,29,998,-15,1,-4
2415,5,31,999,-13,1,-3
2416,5,31,999,-14,0,-4
2417,4,31,997,-13,0,-3
2418,5,31,998,-12,0,-3
2419,1,29,998,-13,2,-3
2420,4,29,999,-13,2,-3
2421,4,31,999,-14,1,-4
2422,5,30,999,-16,2,-3
2423,6,30,997,-13,1,-3
2424,4,33,998,-15,1,-3
2425,6,33,998,-15,1,-4
2426,5,31,998,-16,0,-3
2427,4,31,997,-14,1,-4
2428,6,31,1000,-13,0,-4
2429,4,29,999,-15,1,-3
2430,4,28,998,-14,1,-3
2431,3,30,999,-15,1,-2
2432,4,31,999,-14,1,-3
2433,3,29,998,-13,1,-4
2434,3,32,998,-14,0,-3
2435,5,30,998,-14,1,-4
2436,5,30,998,-14,1,-3
2437,5,31,999,-15,1,-4
2438,4,31,999,-13,1,-3
2439,4,31,998,-15,1,-3
2440,6,31,998,-13,1,-4
2441,4,30,999,-13,0,-3
2442,2,29,998,-14,1,-4
2443,5,32,998,-13,1,-3
2444,5,30,999,-15,2,-3
2445,5,31,999,-14,1,-3
2446,4,28,1000,-14,0,-3
2447,4,30,999,-14,1,-3
2448,3,29,999,-16,1,-2
2449,4,31,999,-14,1,-3
2450,4,32,998,-15,1,-3
2451,3,30,999,-14,1,-3
2452,4,30,999,-12,0,-4
2453,5,32,998,-15,0,-4
2454,4,32,998,-14,1,-3
2455,4,30,999,-14,0,-2
2456,4,31,998,-13,1,-2
2457,4,29,997,-13,1,-3
2458,5,30,998,-13,1,-4
2459,6,29,999,-13,1,-3
2460,4,30,997,-14,1,-3
2461,4,33,998,-13,1,-3
2462,5,34,1000,-15,1,-3
2463,5,31,997,-13,1,-3
2464,4,30,997,-16,0,-2
2465,5,31,998,-15,1,-2
2466,4,32,998,-14,0,-3
2467,7,32,997,-15,1,-3
2468,4,30,998,-13,-1,-3
2469,4,33,998,-15,2,-3
2470,5,32,999,-14,1,-3
2471,4,30,999,-13,0,-4
2472,5,29,1000,-13,1,-3
2473,5,30,999,-14,1,-3
2474,5,29,999,-13,1,-3
2475,4,29,1000,-13,0,-3
2476,4,30,998,-14,1,-3
2477,5,30,999,-14,1,-4
2478,6,31,999,-15,1,-3
2479,5,31,998,-13,1,-3
2480,5,30,998,-13,0,-4
2481,5,31,997,-13,1,-4
2482,5,30,998,-14,1,-4
2483,5,32,998,-15,1,-3
2484,6,31,998,-14,1,-3
2485,7,31,999,-15,1,-2
2486,4,31,1000,-15,1,-3
2487,4,30,997,-14,2,-4
2488,4,31,998,-14,1,-4
2489,5,32,998,-14,1,-3
2490,4,30,999,-13,0,-3
2491,4,32,997,-14,1,-4
2492,5,31,999,-13,1,-3
2493,4,30,999,-15,0,-3
2494,4,31,999,-14,0,-4
2495,6,32,997,-14,0,-3
2496,4,31,997,-13,1,-3
2497,5,30,998,-13,1,-3
2498,4,30,998,-12,2,-4
2499,5,29,998,-14,1,-4
2500,4,31,997,-15,1,-4
2501,3,31,998,-14,1,-4
2502,5,31,999,-15,0,-4
2503,5,31,999,-15,0,-3
2504,6,30,999,-14,0,-3
2505,3,30,999,-13,1,-3
2506,5,30,998,-16,1,-3
2507,3,30,998,-14,1,-3
2508,5,30,997,-16,1,-3
2509,5,30,1000,-15,0,-4
2510,4,30,999,-14,0,-3
2511,6,30,998,-14,1,-3
2512,4,32,999,-15,1,-3
2513,3,31,1000,-14,0,-3
2514,5,30,999,-15,0,-3
2515,3,30,998,-16,1,-4
2516,3,32,998,-13,1,-3
2517,4,32,998,-14,2,-3
2518,5,29,998,-13,1,-3
2519,4,30,997,-14,1,-3
2520,5,31,998,-14,1,-3
2521,3,31,997,-14,1,-3
2522,5,30,998,-15,1,-3
2523,5,30,998,-14,1,-4
2524,5,31,998,-15,2,-4
2525,5,31,997,-14,2,-2
2526,4,31,999,-14,1,-4
2527,5,30,998,-13,0,-3
2528,4,31,998,-14,1,-3
2529,4,30,1000,-15,1,-2
2530,4,29,999,-15,1,-4
2531,4,29,998,-14,1,-4
2532,7,29,999,-14,1,-4
2533,5,29,999,-13,1,-3
2534,5,30,999,-14,1,-3
2535,4,31,997,-13,2,-2
2536,4,32,998,-12,2,-3
2537,4,30,999,-14,1,-4
2538,6,30,999,-13,1,-4
2539,6,30,998,-15,2,-3
2540,4,31,997,-16,1,-3
2541,4,30,997,-14,0,-2
2542,4,30,999,-14,0,-3
2543,5,30,998,-14,1,-3
2544,5,31,998,-15,1,-3
2545,4,32,998,-14,0,-3
2546,5,32,998,-13,1,-3
2547,4,32,998,-14,1,-3
2548,5,32,998,-13,1,-4
2549,6,31,999,-16,2,-3
2550,4,32,998,-15,1,-3
2551,7,30,997,-13,1,-5
2552,4,30,998,-14,0,-4
2553,6,29,998,-13,0,-3
2554,2,30,998,-13,0,-3
2555,2,30,1000,-15,1,-3
2556,3,30,999,-14,-1,-3
2557,3,31,996,-15,0,-4
2558,7,29,998,-14,0,-4
2559,5,30,997,-13,0,-3
2560,1,31,998,-16,0,-4
2561,4,30,999,-14,1,-3
2562,8,31,997,-13,2,-3
2563,5,31,998,-14,1,-3
2564,5,32,998,-14,1,-4
2565,6,31,998,-16,2,-4
2566,6,31,997,-16,1,-3
2567,5,30,999,-14,0,-2
2568,5,32,998,-15,1,-2
2569,3,30,998,-14,1,-2
2570,3,32,1000,-15,2,-2
2571,5,30,997,-16,2,-2
2572,5,29,998,-14,1,-3
2573,5,29,998,-14,1,-4
2574,4,29,999,-14,0,-2
2575,5,30,997,-12,2,-3
2576,4,31,996,-14,0,-2
2577,3,31,997,-14,1,-3
2578,6,30,998,-13,1,-2
2579,5,31,999,-13,0,-4
2580,5,31,997,-14,2,-3
2581,6,31,998,-13,1,-4
2582,3,32,998,-13,1,-3
2583,6,30,998,-14,1,-4
2584,5,30,998,-13,0,-4
2585,5,30,998,-14,0,-3
2586,4,30,997,-14,0,-4
2587,6,30,996,-15,0,-3
2588,4,32,998,-14,1,-2
2589,6,31,998,-14,1,-4
2590,5,31,999,-15,0,-4
2591,4,29,997,-13,0,-3
2592,6,31,997,-14,0,-3
2593,5,30,997,-15,-1,-3
2594,4,29,997,-15,1,-3
2595,4,29,999,-14,1,-4
2596,5,31,999,-15,2,-3
2597,4,32,997,-13,1,-3
2598,5,32,997,-16,1,-2
2599,5,31,998,-15,1,-3
2600,4,29,998,-14,1,-3
2601,7,30,999,-15,1,-2
2602,5,29,998,-15,1,-3
2603,7,30,997,-14,1,-3
2604,4,30,999,-14,1,-4
2605,5,31,999,-13,1,-4
2606,6,31,998,-13,1,-2
2607,3,32,999,-12,1,-3
2608,5,30,997,-14,1,-4
2609,6,31,998,-15,0,-3
2610,6,32,998,-15,1,-3
2611,5,30,999,-15,1,-3
2612,5,31,999,-13,2,-4
2613,4,31,998,-14,0,-3
2614,4,31,998,-14,2,-4
2615,5,29,998,-13,1,-3
2616,3,29,997,-13,0,-4
2617,2,30,998,-13,0,-2
2618,4,30,998,-15,1,-3
2619,3,31,997,-14,2,-3
2620,7,32,998,-12,1,-3
2621,6,31,998,-14,1,-2
2622,5,32,998,-14,1,-3
2623,5,33,999,-13,0,-2
2624,4,33,998,-13,1,-3
2625,4,32,998,-13,0,-2
2626,5,31,998,-14,1,-3
2627,5,29,999,-13,0,-3
2628,5,31,998,-13,0,-5
2629,5,30,997,-14,1,-3
2630,5,30,999,-13,1,-2
2631,5,30,998,-14,1,-3
2632,2,32,997,-14,0,-2
2633,4,31,998,-14,1,-2
2634,6,30,999,-15,1,-3
2635,6,30,999,-14,1,-3
2636,5,30,998,-14,0,-2
2637,7,30,999,-15,1,-3
2638,6,30,998,-16,0,-3
2639,4,31,998,-15,1,-3
2640,2,30,998,-13,0,-4
2641,3,31,999,-13,0,-3
2642,4,30,998,-15,1,-4
2643,4,31,997,-15,1,-3
2644,5,30,998,-16,0,-3
2645,5,30,998,-15,1,-3
2646,5,29,998,-13,1,-3
2647,6,30,998,-15,1,-3
2648,3,32,998,-13,2,-3
2649,5,31,998,-14,1,-3
2650,5,31,998,-16,1,-3
2651,5,32,999,-14,2,-2
2652,4,31,999,-15,1,-3
2653,6,32,997,-14,1,-3
2654,4,31,998,-15,1,-2
2655,4,31,998,-15,-1,-2
2656,5,29,998,-13,1,-2
2657,4,29,998,-14,0,-4
2658,4,31,998,-16,0,-4
2659,6,33,997,-14,1,-3
2660,7,32,997,-16,1,-4
2661,6,32,998,-13,0,-4
2662,4,30,996,-13,1,-3
2663,6,30,998,-16,0,-3
2664,6,32,1000,-13,1,-4
2665,6,31,997,-12,1,-4
2666,5,28,998,-13,2,-3
2667,5,30,999,-14,2,-3
2668,4,33,998,-15,0,-3
2669,4,31,999,-13,0,-4
2670,4,31,999,-15,0,-3
2671,3,31,998,-15,0,-3
2672,5,31,999,-13,1,-3
2673,5,30,997,-15,1,-4
2674,4,31,998,-13,1,-3
2675,4,30,998,-15,0,-3
2676,6,30,998,-16,0,-4
2677,6,31,998,-14,1,-3
2678,5,31,999,-16,2,-3
2679,4,30,999,-13,2,-3
2680,4,33,998,-15,1,-3
2681,4,31,999,-14,1,-3
2682,4,30,999,-15,0,-4
2683,5,30,999,-13,1,-3
2684,4,30,999,-13,1,-3
2685,4,32,998,-13,1,-3
2686,4,30,998,-13,-1,-3
2687,6,30,999,-15,1,-4
2688,6,32,998,-13,1,-4
2689,5,30,998,-13,1,-4
2690,4,31,997,-14,1,-3
2691,4,31,998,-13,1,-4
2692,4,29,997,-13,0,-3
2693,5,29,997,-12,1,-3
2694,5,30,997,-14,1,-3
2695,5,32,998,-16,0,-3
2696,4,30,999,-14,0,-4
2697,4,31,999,-14,1,-4
2698,4,29,1000,-16,2,-2
2699,5,30,1000,-15,0,-3
2700,5,30,999,-14,1,-3
2701,5,31,998,-14,2,-3
2702,5,31,999,-15,1,-2
2703,6,32,998,-12,1,-3
2704,7,31,999,0,1,-4
2705,6,30,1001,-14,-3,-7
2706,6,28,999,-9,1,-3
2707,5,31,998,-14,1,-3
2708,4,31,999,-16,0,-3
2709,5,30,998,-10,1,-3
2710,4,29,998,-17,0,-3
2711,5,29,999,-13,1,-3
2712,4,30,998,-11,2,-4
2713,6,29,996,-17,0,-2
2714,5,30,997,-12,1,-4
2715,5,30,996,-15,0,-4
2716,3,31,999,-14,1,-3
2717,6,31,998,-14,2,-4
2718,6,29,997,-15,1,-4
2719,4,31,999,-12,1,-5
2720,3,30,997,-15,1,-4
2721,5,30,998,-14,0,-2
2722,3,29,997,-14,0,-4
2723,5,31,997,-14,0,-2
2724,4,29,998,-14,1,-2
2725,4,30,998,-15,1,-3
2726,4,30,999,-14,1,-3
2727,4,31,997,-15,1,-2
2728,3,31,998,-15,0,-2
2729,5,31,998,-13,0,-3
2730,4,31,997,-13,0,-3
2731,6,32,998,-13,1,-2
2732,6,33,998,-13,1,-3
2733,6,32,997,-14,2,-3
2734,5,31,998,-13,1,-3
2735,6,29,999,-13,1,-4
2736,5,29,997,-14,1,-3
2737,2,31,998,-14,0,-2
2738,4,30,999,-13,1,-3
2739,4,31,998,-14,0,-2
2740,5,31,1000,-15,2,-2
2741,3,31,996,-12,1,-3
2742,4,30,997,-12,1,-3
2743,4,31,998,-12,1,-5
2744,6,30,997,-13,1,-4
2745,4,29,999,-13,0,-3
2746,4,29,1000,-14,0,-4
2747,6,31,998,-14,2,-4
2748,4,31,998,-14,1,-4
2749,3,32,997,-13,0,-3
2750,3,32,998,-16,1,-2
2751,5,30,999,-15,1,-3
2752,5,29,999,-13,1,-3
2753,4,31,997,-14,0,-2
2754,7,29,998,-15,1,-2
2755,3,32,999,-14,1,-2
2756,5,31,999,-15,1,-3
2757,5,31,998,-14,0,-2
2758,5,30,998,-14,0,-2
2759,5,31,998,-13,0,-3
2760,4,31,997,-13,1,-3
2761,3,30,997,-12,1,-3
2762,5,32,997,-14,0,-3
2763,6,32,997,-13,1,-3
2764,6,28,999,-15,1,-2
2765,3,29,999,-13,1,-3
2766,5,30,998,-13,1,-3
2767,5,30,997,-15,0,-3
2768,5,30,998,-14,2,-3
2769,4,31,997,-15,1,-3
2770,4,31,997,-14,1,-4
2771,4,31,998,-15,1,-4
2772,3,30,999,-14,1,-4
2773,5,29,999,-13,1,-4
2774,5,31,997,-14,1,-4
2775,4,32,999,-15,1,-3
2776,4,32,999,-14,1,-3
2777,4,30,998,-15,1,-4
2778,5,29,997,-14,2,-3
2779,4,32,998,-16,1,-5
2780,2,31,998,-15,1,-3
2781,4,33,998,-14,0,-4
2782,3,31,999,-14,0,-3
2783,5,31,998,-12,1,-3
2784,5,32,997,-13,1,-3
2785,4,30,999,-13,1,-4
2786,6,31,999,-13,2,-3
2787,5,33,998,-15,2,-3
2788,5,31,998,-14,1,-3
2789,5,30,998,-14,2,-2
2790,5,31,997,-15,2,-2
2791,6,30,997,-13,2,-3
2792,5,32,998,-14,0,-4
2793,5,30,998,-14,0,-3
2794,5,31,997,-15,1,-3
2795,5,30,998,-13,1,-3
2796,5,31,999,-14,0,-3
2797,4,32,996,-14,1,-3
2798,4,31,998,-14,0,-4
2799,4,32,998,-13,2,-3
2800,3,31,997,-15,0,-3
2801,6,31,999,-15,0,-4
2802,6,31,1000,-14,1,-3
2803,5,31,999,-14,2,-4
2804,4,31,998,-15,0,-2
2805,4,31,999,-14,0,-3
2806,4,31,998,-13,1,-4
2807,5,30,998,-14,0,-3
2808,6,30,1000,-14,1,-4
2809,4,32,998,-13,1,-4
2810,5,30,997,-13,2,-3
2811,4,30,998,-15,1,-3
2812,5,29,998,-13,0,-4
2813,5,31,998,-15,0,-3
2814,4,29,998,-13,0,-3
2815,4,29,998,-13,1,-2
2816,5,30,999,-14,1,-2
2817,4,32,998,-14,1,-3
2818,4,32,998,-15,1,-3
2819,5,30,998,-15,1,-3
2820,6,31,999,-14,1,-3
2821,5,29,999,-14,1,-4
2822,4,31,998,-14,2,-3
2823,1,29,998,-13,2,-4
2824,4,28,997,-13,2,-4
2825,4,30,998,-13,1,-1
2826,5,29,997,-14,0,-3
2827,3,30,997,-13,2,-4
2828,5,30,998,-15,1,-3
2829,5,30,999,-14,1,-3
2830,6,30,998,-14,1,-3
2831,3,31,998,-15,2,-4
2832,5,30,998,-16,1,-4
2833,5,30,999,-15,1,-4
2834,6,31,998,-15,1,-3
2835,4,31,999,-14,0,-3
2836,5,29,1000,-14,1,-3
2837,6,28,997,-14,1,-3
2838,3,30,998,-16,2,-3
2839,6,31,999,-16,1,-3
2840,5,31,998,-15,-1,-4
2841,6,32,998,-14,0,-2
2842,5,30,999,-14,1,-3
2843,4,31,998,-15,3,-3
2844,6,30,998,-13,2,-3
2845,6,29,998,-13,2,-3
2846,3,30,997,-15,1,-2
2847,4,29,998,-15,1,-2
2848,5,29,999,-16,1,-3
2849,4,30,999,-15,0,-3
2850,5,31,997,-15,1,-2
2851,3,30,999,-14,1,-3
2852,4,31,998,-14,0,-3
2853,3,33,999,-14,1,-4
2854,6,31,998,-13,2,-3
2855,4,30,999,-13,1,-3
2856,5,33,999,-15,1,-3
2857,4,29,998,-12,2,-2
2858,3,31,999,-16,1,-3
2859,3,30,998,-14,1,-5
2860,4,32,999,-16,2,-4
2861,7,32,998,-16,2,-4
2862,5,32,998,-14,1,-4
2863,5,33,998,-14,1,-4
2864,5,31,998,-14,1,-2
2865,3,31,999,-12,1,-2
2866,6,30,1000,-12,1,-3
2867,6,31,999,-15,1,-3
2868,5,32,998,-13,0,-3
2869,4,31,998,-13,1,-3
2870,4,32,998,-13,0,-2
2871,4,31,997,-12,1,-4
2872,6,31,997,-15,0,-4
2873,4,30,999,-15,0,-3
2874,4,29,999,-13,1,-4
2875,5,28,998,-15,1,-3
2876,5,29,999,-14,0,-3
2877,4,30,1000,-13,0,-4
2878,4,31,997,-15,2,-3
2879,3,32,998,-14,1,-3
2880,5,32,999,-13,-1,-3
2881,2,31,999,-16,1,-3
2882,5,29,998,-13,0,-3
2883,4,30,997,-15,0,-1
2884,5,31,997,-15,2,-3
2885,6,30,997,-11,1,-3
2886,6,30,998,-14,0,-4
2887,6,31,999,-13,0,-2
2888,4,31,998,-15,0,-3
2889,5,31,998,-14,-1,-4
2890,4,30,1000,-14,0,-4
2891,3,29,999,-15,-1,-2
2892,5,31,998,-13,0,-3
2893,5,30,1000,-14,1,-3
2894,3,30,999,-14,1,-3
2895,3,32,997,-14,1,-4
2896,5,31,998,-14,1,-3
2897,5,32,999,-14,2,-4
2898,7,31,997,-14,0,-3
2899,5,31,998,-15,1,-3
2900,4,29,998,-14,1,-3
2901,5,30,998,-15,1,-3
2902,6,30,999,-13,1,-3
2903,6,31,998,-14,1,-3
2904,5,30,1000,-15,0,-3
2905,4,31,998,-13,2,-3
2906,6,29,998,-15,1,-3
2907,5,32,999,-14,1,-4
2908,5,30,997,-15,1,-4
2909,4,29,997,-15,1,-4
2910,5,31,997,-14,1,-4
2911,4,31,997,-15,2,-4
2912,5,31,997,-14,1,-4
2913,2,30,999,-13,1,-4
2914,4,31,998,-14,1,-2
2915,4,30,998,-13,1,-4
2916,3,31,997,-14,1,-2
2917,4,30,998,-13,2,-2
2918,5,31,998,-14,2,-4
2919,5,28,998,-14,1,-4
2920,6,32,1000,-14,2,-3
2921,4,32,999,-17,1,-3
2922,4,31,998,-12,2,-3
2923,5,30,999,-14,0,-2
2924,5,30,998,-13,1,-3
2925,5,32,998,-14,0,-3
2926,6,31,998,-14,2,-3
2927,4,31,998,-14,1,-3
2928,3,30,998,-16,1,-3
2929,4,30,998,-14,1,-3
2930,6,30,998,-15,0,-4
2931,5,30,999,-13,2,-4
2932,5,30,998,-14,2,-3
2933,6,31,998,-15,1,-4
2934,3,29,999,-15,1,-4
2935,5,32,999,-14,1,-2
2936,4,30,999,-14,2,-2
2937,4,30,998,-14,1,-3
2938,5,30,997,-14,1,-2
2939,5,30,996,-14,2,-2
2940,4,30,998,-15,0,-4
2941,4,32,998,-13,1,-3
2942,4,33,995,-14,1,-3
2943,5,31,998,-16,1,-3
2944,3,32,998,-13,2,-3
2945,4,32,998,-13,1,-4
2946,4,31,999,-14,1,-3
2947,4,31,999,-13,2,-3
2948,4,31,999,-14,1,-3
2949,5,31,999,-14,1,-3
2950,6,30,999,-14,1,-3
2951,5,30,999,-15,1,-2
2952,4,31,998,-12,0,-3
2953,4,29,998,-15,0,-4
2954,5,30,999,-15,1,-4
2955,5,32,998,-14,1,-2
2956,6,30,997,-15,0,-4
2957,4,31,998,-14,0,-3
2958,4,31,998,-16,1,-2
2959,4,32,997,-14,1,-2
2960,6,31,999,-14,0,-3
2961,4,30,997,-16,1,-2
2962,4,30,999,-14,1,-4
2963,4,29,998,-14,1,-3
2964,5,30,1000,-15,1,-3
2965,5,29,998,-13,0,-4
2966,4,30,998,-15,0,-3
2967,5,29,998,-15,1,-3
2968,5,30,999,-15,2,-3
2969,4,31,999,-13,1,-3
2970,5,30,998,-13,0,-2
2971,4,32,998,-16,0,-2
2972,5,32,998,-15,1,-3
2973,3,29,998,-16,0,-4
2974,5,31,1000,-15,1,-3
2975,5,31,999,-15,1,-4
2976,4,29,999,-14,1,-3
2977,5,30,998,-12,1,-3
2978,4,31,999,-14,1,-4
2979,4,30,999,-13,1,-3
2980,6,31,1000,-15,0,-3
2981,3,33,999,-14,1,-4
2982,4,32,998,-15,0,-4
2983,5,31,998,-14,1,-4
2984,5,31,999,-14,1,-3
2985,4,30,998,-14,0,-3
2986,4,31,996,-15,2,-2
2987,5,29,999,-14,3,-3
2988,3,31,998,-15,1,-3
2989,5,31,999,-15,0,-3
2990,4,30,998,-15,0,-4
2991,5,30,998,-16,1,-2
2992,4,31,998,-14,2,-4
2993,4,29,996,-14,1,-3
2994,5,32,999,-14,1,-4
2995,7,32,997,-14,2,-3
2996,4,30,997,-15,0,-3
2997,5,31,998,-14,1,-4
2998,5,30,1001,-14,0,-3
2999,6,29,998,-13,1,-2
3000,4,30,999,-14,1,-2
3001,5,29,1000,-15,0,-1
3002,4,31,998,-15,1,-2
3003,3,30,998,-15,2,-4
3004,7,30,998,-14,0,-2
3005,2,32,998,-13,1,-2
3006,4,30,998,-14,0,-2
3007,5,31,1000,-14,2,-2
3008,5,30,999,-13,0,-4
3009,5,30,997,-12,1,-3
3010,6,30,997,-15,0,-3
3011,6,29,998,-15,0,-3
3012,6,30,999,-14,1,-3
3013,4,31,999,-14,1,-4
3014,4,30,997,-15,1,-2
3015,3,31,997,-15,1,-2
3016,3,31,997,-15,1,-3
3017,4,32,998,-14,0,-3
3018,4,32,998,-15,0,-3
3019,4,29,998,-15,1,-3
3020,3,29,998,-13,0,-3
3021,4,30,998,-16,0,-3
3022,5,28,997,-15,1,-3
3023,6,31,998,-13,0,-4
3024,3,30,999,-14,1,-3
3025,4,32,998,-14,2,-3
3026,1,32,999,-15,2,-3
3027,5,32,1000,-15,2,-3
3028,4,30,999,-15,0,-3
3029,5,30,997,-13,0,-2
3030,6,30,996,-15,1,-2
3031,5,30,999,-15,0,-2
3032,4,30,997,-15,1,-3
3033,4,32,999,-16,2,-3
3034,5,31,998,-14,2,-3
3035,3,33,997,-16,0,-3
3036,4,30,999,-14,1,-4
3037,4,29,999,-16,2,-4
3038,4,30,1001,-8,1,-6
3039,5,30,997,-12,0,-5
3040,6,29,999,-11,1,-4
3041,5,30,998,-16,0,-3
3042,4,31,999,-14,0,-3
3043,5,31,997,-11,1,-2
3044,4,30,998,-15,0,-3
3045,4,29,999,-15,0,-3
3046,4,30,997,-14,1,-3
3047,4,31,997,-14,1,-3
3048,7,29,998,-13,1,-3
3049,3,31,998,-16,1,-3
3050,5,31,998,-15,1,-4
3051,4,30,997,-15,1,-5
3052,4,29,998,-14,1,-5
3053,6,30,999,-13,1,-4
3054,6,31,999,-15,1,-3
3055,6,30,997,-14,1,-3
3056,5,30,997,-16,1,-3
3057,4,29,998,-14,1,-3
3058,4,30,999,-14,1,-3
3059,4,32,998,-14,1,-3
3060,5,30,998,-15,0,-3
3061,3,31,998,-14,0,-3
3062,3,30,998,-14,1,-3
3063,4,29,998,-14,1,-2
3064,5,29,999,-16,0,-3
3065,4,28,998,-15,1,-3
3066,6,30,997,-14,1,-3
3067,4,30,999,-14,1,-4
3068,4,30,998,-13,1,-3
3069,4,32,999,-15,1,-3
3070,5,31,1000,-15,1,-5
3071,5,31,999,-15,2,-3
3072,4,31,999,-15,1,-3
3073,5,31,999,-16,1,-2
3074,4,29,998,-13,0,-3
3075,3,29,999,-15,0,-3
3076,4,30,999,-13,1,-3
3077,4,31,997,-13,1,-3
3078,4,32,998,-15,1,-3
3079,4,31,1000,-14,0,-3
3080,5,30,998,-14,-1,-4
3081,5,31,997,-14,1,-2
3082,5,29,997,-15,2,-3
3083,6,30,998,-15,1,-3
3084,6,31,998,-14,0,-3
3085,4,31,1000,-13,1,-4
3086,4,32,999,-14,2,-3
3087,4,30,999,-15,0,-2
3088,4,32,998,-15,0,-4
3089,5,31,998,-13,1,-4
3090,6,30,997,-14,2,-3
3091,3,31,997,-12,1,-4
3092,3,31,998,-16,1,-4
3093,4,31,998,-14,1,-3
3094,6,30,999,-15,0,-4
3095,5,30,998,-14,2,-4
3096,5,31,998,-13,2,-4
3097,5,31,999,-13,1,-4
3098,4,32,998,-12,0,-3
3099,5,32,999,-13,1,-3
3100,5,31,997,-13,2,-3
3101,6,29,997,-15,2,-4
3102,4,31,998,-15,1,-3
3103,4,30,998,-14,1,-4
3104,4,30,997,-14,0,-2
3105,4,29,999,-13,1,-3
3106,3,29,997,-15,0,-3
3107,4,30,998,-16,0,-3
3108,3,31,999,-16,1,-4
3109,4,31,999,-15,1,-5
3110,4,32,998,-14,1,-4
3111,3,30,998,-14,1,-4
3112,5,30,999,-12,0,-3
3113,6,32,998,-13,0,-3
3114,5,30,998,-13,1,-3
3115,3,29,999,-15,1,-2
3116,5,31,1000,-15,2,-3
3117,3,31,998,-14,2,-3
3118,4,30,997,-16,1,-3
3119,5,29,997,-14,1,-2
3120,4,31,997,-15,0,-2
3121,4,30,998,-15,0,-3
3122,5,32,998,-15,1,-2
3123,5,32,997,-16,1,-3
3124,6,31,998,-13,1,-2
3125,6,30,999,-14,2,-2
3126,3,30,999,-16,0,-3
3127,4,30,997,-14,1,-4
3128,4,31,999,-15,0,-4
3129,5,31,999,-13,0,-3
3130,4,31,997,-14,1,-3
3131,5,32,999,-15,0,-4
3132,4,33,998,-13,2,-3
3133,4,32,998,-15,1,-2
3134,6,30,998,-13,0,-3
3135,5,30,999,-13,1,-3
3136,4,31,999,-14,2,-3
3137,3,31,998,-14,1,-4
3138,5,31,998,-12,2,-5
3139,2,33,999,-14,3,-4
3140,3,31,999,-15,2,-4
3141,4,31,998,-15,1,-4
3142,6,30,998,-14,1,-4
3143,6,31,999,-14,3,-4
3144,5,31,998,-16,1,-3
3145,5,30,998,-14,1,-2
3146,4,29,998,-15,1,-4
3147,4,30,999,-13,2,-3
3148,5,31,999,-14,1,-3
3149,5,31,999,-15,0,-3
3150,5,30,998,-16,1,-3
3151,5,29,998,-15,1,-4
3152,6,32,998,-15,0,-3
3153,5,32,997,-13,1,-3
3154,3,30,996,-13,1,-4
3155,4,30,999,-16,1,-3
3156,4,32,998,-15,1,-2
3157,4,32,998,-13,1,-3
3158,4,31,998,-13,2,-3
3159,5,31,998,-15,1,-3
3160,5,29,998,-14,1,-2
3161,5,29,997,-13,2,-3
3162,3,30,998,-15,0,-3
3163,4,30,999,-15,1,-4
3164,5,30,999,-14,0,-4
3165,4,31,999,-15,1,-3
3166,5,30,999,-15,0,-3
3167,5,30,998,-16,-1,-3
3168,5,32,998,-15,0,-2
3169,4,30,998,-14,2,-3
3170,5,30,999,-14,1,-3
3171,4,28,998,-15,1,-4
3172,5,28,998,-13,1,-3
3173,5,30,998,-15,1,-3
3174,4,30,998,-13,0,-3
3175,4,30,997,-15,0,-3
3176,6,30,999,-14,0,-3
3177,5,31,998,-14,1,-2
3178,6,30,997,-16,0,-3
3179,4,31,999,-14,1,-2
3180,5,31,998,-15,1,-2
3181,5,30,998,-16,1,-3
3182,0,31,998,-13,2,-2
3183,6,32,1000,-14,1,-3
3184,7,30,1000,-14,1,-4
3185,5,29,999,-14,1,-3
3186,5,31,1000,-14,1,-3
3187,5,31,999,-14,1,-3
3188,5,31,998,-15,1,-2
3189,5,29,998,-12,1,-3
3190,5,32,997,-15,0,-3
3191,5,30,996,-15,0,-4
3192,4,30,998,-14,0,-3
3193,4,30,997,-14,1,-3
3194,4,31,998,-14,0,-3
3195,4,32,998,-15,2,-4
3196,6,32,999,-13,2,-3
3197,6,32,996,-14,1,-3
3198,4,30,998,-14,1,-3
3199,3,32,999,-13,3,-3
3200,4,30,999,-13,2,-3
3201,5,32,998,-14,2,-2
3202,4,32,999,-16,2,-3
3203,4,30,1000,-15,0,-3
3204,4,31,1000,-15,0,-3
3205,5,29,999,-14,0,-3
3206,3,29,998,-15,1,-3
3207,3,31,996,-15,2,-4
3208,4,32,997,-14,2,-3
3209,5,32,999,-15,2,-2
3210,5,31,1000,-14,1,-4
3211,5,30,998,-14,1,-3
3212,5,32,999,-14,0,-2
3213,4,31,1000,-16,0,-2
3214,5,29,998,-14,2,-3
3215,4,30,1000,-15,1,-3
3216,4,30,999,-15,1,-3
3217,4,30,998,-14,1,-4
3218,4,31,997,-15,2,-3
3219,3,32,998,-16,0,-2
3220,3,30,998,-14,0,-4
3221,5,31,998,-14,0,-4
3222,4,31,998,-15,1,-4
3223,5,30,1000,-13,1,-4
3224,4,31,997,-13,1,-3
3225,4,32,998,-13,2,-2
3226,5,32,998,-15,1,-3
3227,3,32,998,-14,2,-3
3228,4,31,998,-15,1,-2
3229,6,30,998,-14,1,-3
3230,4,30,998,-15,2,-2
3231,5,29,997,-16,1,-3
3232,6,30,998,-14,1,-3
3233,5,32,998,-15,1,-2
3234,5,31,997,-13,1,-3
3235,3,31,998,-15,1,-2
3236,3,31,997,-14,0,-3
3237,4,30,1000,-14,1,-4
3238,5,29,998,-16,0,-4
3239,5,31,998,-13,1,-3
3240,1,31,998,-14,0,-2
3241,5,31,1000,-13,1,-3
3242,3,32,1000,-14,0,-3
3243,2,31,999,-15,0,-2
3244,3,31,999,-14,1,-3
3245,6,31,996,-15,0,-4
3246,5,30,997,-13,1,-3
3247,4,30,997,-13,1,-3
3248,4,31,997,-15,1,-3
3249,6,32,998,-15,2,-4
3250,5,31,997,-14,0,-3
3251,3,30,998,-15,1,-3
3252,4,31,998,-14,1,-3
3253,5,29,999,-15,1,-4
3254,6,29,999,-15,1,-3
3255,4,30,998,-15,0,-2
3256,5,31,998,-14,1,-2
3257,5,30,999,-14,1,-4
3258,6,30,998,-15,0,-3
3259,5,30,998,-15,1,-2
3260,5,30,996,-15,1,-3
3261,5,30,997,-13,1,-4
3262,6,30,999,-16,-1,-3
3263,5,31,999,-15,0,-4
3264,5,31,998,-14,2,-3
3265,4,32,997,-14,1,-2
3266,5,32,998,-14,1,-3
3267,7,31,998,-14,1,-4
3268,5,30,998,-14,0,-3
3269,4,29,999,-14,1,-2
3270,5,29,998,-13,1,-3
3271,4,30,997,-14,1,-4
3272,4,31,999,-13,1,-3
3273,3,31,998,-14,1,-3
3274,6,32,997,-13,2,-3
3275,6,30,997,-14,1,-3
3276,3,31,999,-15,1,-3
3277,4,30,997,-13,1,-4
3278,5,31,998,-15,1,-3
3279,4,30,999,-14,1,-3
3280,4,30,999,-14,0,-2
3281,4,31,998,-15,0,-2
3282,5,30,999,-13,1,-3
3283,5,29,997,-15,1,-2
3284,5,30,998,-14,0,-3
3285,4,29,998,-15,1,-3
3286,6,30,998,-14,1,-3
3287,4,30,998,-14,1,-3
3288,4,29,998,-16,1,-4
3289,5,29,998,-14,1,-4
3290,6,29,999,-14,1,-2
3291,4,30,999,-16,1,-3
3292,4,32,998,-13,0,-4
3293,6,31,998,-14,1,-3
3294,6,32,998,-15,1,-3
3295,4,32,999,-14,0,-4
3296,3,32,1000,-15,0,-4
3297,5,31,998,-14,0,-4
3298,4,31,998,-14,1,-3
3299,4,31,998,-15,1,-3
3300,4,30,999,-14,2,-3
3301,4,31,999,-14,1,-4
3302,4,32,998,-14,1,-3
3303,4,32,998,-14,0,-3
3304,5,30,999,-14,1,-3
3305,4,30,998,-13,0,-3
3306,4,30,999,-15,2,-4
3307,5,31,999,-13,1,-3
3308,5,31,1000,-14,0,-4
3309,5,30,998,-15,-1,-4
3310,6,29,997,-14,0,-3
3311,5,29,997,-16,1,-3
3312,6,31,997,-12,0,-5
3313,5,32,998,-14,0,-3
3314,6,29,997,-14,1,-3
3315,5,30,999,-14,1,-3
3316,6,29,996,-16,0,-3
3317,6,31,997,-13,1,-2
3318,4,30,998,-13,0,-3
3319,5,29,997,-14,0,-3
3320,5,30,997,-14,1,-3
3321,4,32,998,-15,0,-3
3322,4,30,998,-15,1,-3
3323,5,32,997,-14,0,-3
3324,5,30,1001,-16,1,-2
3325,5,31,998,-14,1,-4
3326,3,31,998,-16,0,-3
3327,5,31,999,-15,1,-3
3328,4,30,998,-14,1,-3
3329,5,30,998,-16,0,-3
3330,4,30,1000,-13,1,-3
3331,4,30,998,-16,1,-4
3332,6,31,996,-15,1,-3
3333,6,31,998,-14,1,-4
3334,4,31,1000,-15,0,-3
3335,5,31,997,-14,-2,-4
3336,5,32,998,-14,1,-3
3337,4,30,998,-14,1,-3
3338,4,31,997,-15,2,-3
3339,3,28,998,-16,2,-3
3340,5,31,999,-13,-1,-4
3341,6,31,999,-13,1,-3
3342,5,31,998,-15,1,-3
3343,6,30,998,-13,1,-4
3344,5,30,998,-13,1,-3
3345,5,31,998,-14,0,-2
3346,4,32,998,-14,0,-3
3347,6,31,999,-14,2,-3
3348,4,31,998,-14,0,-4
3349,5,32,999,-14,1,-4
3350,4,31,998,-14,0,-3
3351,3,30,999,-14,1,-3
3352,6,29,999,-14,1,-3
3353,5,31,999,-13,0,-3
3354,4,28,999,-12,0,-3
3355,4,29,1000,-13,1,-3
3356,5,31,998,-13,1,-3
3357,4,31,997,-14,0,-3
3358,3,30,998,-14,1,-3
3359,5,31,998,-15,1,-2
3360,4,31,998,-15,1,-3
3361,6,30,997,-15,2,-3
3362,4,30,998,-14,1,-2
3363,5,31,996,-14,1,-3
3364,3,31,997,-13,0,-3
3365,5,32,998,-14,1,-3
3366,4,30,997,-14,1,-4
3367,6,32,997,-14,1,-3
3368,3,30,1000,-15,2,-3
3369,2,32,998,-14,2,-3
3370,4,32,997,-15,0,-3
3371,5,30,997,-16,0,-2
3372,5,32,997,-13,0,-3
3373,5,31,997,-13,1,-3
3374,4,30,1000,-17,2,-2
3375,3,31,998,-14,1,-4
3376,5,31,998,-11,2,-3
3377,5,30,998,-16,0,-4
3378,7,30,998,-11,1,-3
3379,5,32,999,-15,2,-3
3380,4,31,998,-16,-1,-3
3381,3,32,998,-13,1,-3
3382,4,32,999,-14,0,-3
3383,4,31,999,-13,0,-3
3384,6,32,996,-14,1,-2
3385,5,29,998,-15,1,-2
3386,5,29,998,-13,1,-3
3387,6,31,997,-15,1,-3
3388,3,30,999,-14,0,-3
3389,3,31,999,-13,0,-3
3390,5,30,998,-13,1,-3
3391,3,30,998,-12,1,-3
3392,6,31,999,-14,0,-2
3393,4,32,1000,-15,0,-2
3394,4,32,999,-12,1,-3
3395,4,31,999,-16,2,-2
3396,5,31,998,-13,1,-4
3397,6,31,997,-13,1,-4
3398,4,29,999,-14,1,-3
3399,5,32,998,-13,0,-4
3400,5,33,997,-15,0,-3
3401,5,30,998,-12,2,-3
3402,5,31,999,-14,1,-3
3403,5,29,998,-15,1,-3
3404,5,31,998,-14,1,-3
3405,4,31,998,-14,1,-4
3406,4,32,999,-15,0,-3
3407,4,31,999,-14,-1,-3
3408,4,31,998,-14,-1,-5
3409,4,30,999,-15,-1,-4
3410,3,29,999,-15,1,-4
3411,3,32,999,-14,1,-3
3412,3,32,997,-14,0,-3
3413,5,31,998,-14,0,-3
3414,7,30,997,-13,1,-4
3415,4,31,998,-15,0,-3
3416,5,31,998,-14,1,-3
3417,4,32,998,-15,0,-3
3418,6,32,998,-12,0,-4
3419,5,31,998,-14,1,-3
3420,4,30,997,-13,1,-3
3421,5,29,998,-14,1,-3
3422,4,30,996,-14,0,-3
3423,4,30,996,-13,0,-3
3424,3,32,998,-14,0,-4
3425,3,30,998,-14,0,-3
3426,5,31,999,-13,0,-4
3427,7,31,998,-15,0,-4
3428,5,32,998,-15,0,-3
3429,5,31,999,-13,0,-3
3430,5,31,999,-14,1,-2
3431,5,31,998,-15,2,-3
3432,4,30,999,-12,1,-3
3433,4,30,999,-15,-1,-3
3434,4,30,999,-13,0,-3
3435,4,32,999,-13,1,-3
3436,5,31,998,-15,0,-2
3437,4,30,999,-14,1,-2
3438,3,30,997,-15,1,-4
3439,6,30,999,-15,1,-4
3440,6,30,998,-16,0,-3
3441,3,31,998,-14,1,-3
3442,5,31,999,-16,0,-3
3443,4,31,1000,-14,0,-4
3444,4,30,999,-14,1,-3
3445,6,32,1000,-15,1,-3
3446,3,30,997,-13,0,-4
3447,4,30,997,-13,1,-3
3448,5,30,999,-15,1,-4
3449,4,28,997,-15,1,-3
3450,5,31,998,-14,1,-5
3451,4,30,999,-13,0,-4
3452,5,32,998,-13,1,-2
3453,3,31,998,-14,1,-3
3454,3,29,999,-15,1,-2
3455,5,31,1000,-13,0,-4
3456,5,31,999,-14,2,-3
3457,5,30,998,-14,0,-3
3458,4,31,999,-14,0,-3
3459,7,31,1000,-14,0,-3
3460,6,29,997,-13,1,-3
3461,4,31,999,-16,0,-3
3462,5,32,999,-14,0,-3
3463,4,31,1000,-14,1,-3
3464,6,30,1000,-15,-1,-4
3465,5,31,998,-13,0,-4
3466,4,30,999,-14,0,-3
3467,5,31,999,-13,1,-3
3468,4,29,1000,-14,0,-3
3469,3,30,999,-14,0,-4
3470,3,29,998,-13,1,-3
3471,5,30,998,-14,2,-4
3472,6,31,999,-15,2,-2
3473,5,29,998,-14,0,-3
3474,6,29,997,-12,0,-4
3475,6,30,999,-14,1,-4
3476,2,30,999,-14,1,-2
3477,4,30,997,-14,0,-3
3478,4,30,997,-13,0,-3
3479,5,30,999,-14,2,-2
3480,5,30,999,-14,1,-3
3481,4,30,999,-16,2,-4
3482,4,31,998,-15,0,-2
3483,5,30,999,-13,0,-3
3484,5,30,997,-15,1,-3
3485,6,31,997,-16,1,-4
3486,6,32,999,-13,1,-4
3487,5,31,998,-13,-1,-3
3488,7,32,998,-15,0,-3
3489,5,32,998,-15,2,-3
3490,5,31,998,-14,0,-3
3491,5,31,998,-14,1,-1
3492,5,31,998,-15,1,-3
3493,3,30,999,-13,1,-3
3494,5,31,998,-14,0,-3
3495,4,31,999,-15,0,-4
3496,5,29,997,-13,0,-2
3497,3,29,999,-14,1,-3
3498,5,29,997,-14,2,-3
3499,5,32,998,-12,2,-4
3500,4,30,998,-15,1,-3
3501,6,30,998,-14,1,-4
3502,4,31,997,-12,2,-4
3503,5,29,998,-14,1,-3
3504,5,31,998,-13,2,-3
3505,3,29,997,-13,1,-3
3506,7,31,999,-14,0,-4
3507,6,31,997,-14,1,-3
3508,6,28,998,-15,1,-3
3509,5,29,1000,-15,1,-3
3510,6,30,998,-14,0,-3
3511,4,32,998,-15,0,-4
3512,5,30,999,-14,1,-3
3513,5,30,999,-14,1,-3
3514,4,31,998,-14,0,-3
3515,6,33,998,-13,1,-3
3516,6,33,998,-14,2,-2
3517,6,32,998,-17,1,-3
3518,5,31,1000,-13,2,-4
3519,5,31,1000,-14,1,-3
3520,5,31,999,-14,1,-3
3521,3,30,998,-14,0,-4
3522,5,30,998,-15,0,-3
3523,5,32,999,-15,2,-3
3524,5,32,998,-14,1,-4
3525,7,31,1000,-14,1,-3
3526,5,30,998,-14,1,-5
3527,5,30,998,-15,0,-3
3528,3,29,997,-14,1,-3
3529,3,30,998,-14,1,-4
3530,3,31,998,-14,0,-4
3531,4,29,998,-13,0,-3
3532,5,30,999,-15,0,-3
3533,3,31,999,-14,1,-3
3534,5,30,996,-15,0,-4
3535,3,29,997,-13,1,-3
3536,4,30,1000,-15,2,-2
3537,2,31,998,-14,1,-3
3538,4,32,997,-14,1,-3
3539,6,32,999,-14,1,-2
3540,6,32,999,-15,-1,-3
3541,5,30,997,-15,1,-3
3542,4,29,997,-13,0,-4
3543,6,32,998,-14,1,-3
3544,5,29,998,-14,1,-3
3545,4,31,998,-13,1,-3
3546,7,31,1000,-14,2,-2
3547,6,31,998,-14,1,-3
3548,5,32,999,-15,2,-3
3549,8,30,999,-15,2,-3
3550,7,29,1000,-14,1,-3
3551,7,30,1000,-13,1,-3
3552,5,31,1000,-15,1,-4
3553,7,32,999,-15,1,-3
3554,5,31,998,-16,1,-3
3555,5,32,999,-15,0,-3
3556,6,28,998,-13,0,-3
3557,6,31,998,-14,1,-3
3558,2,33,998,-12,0,-3
3559,4,31,997,-15,0,-3
3560,6,32,999,-16,0,-3
3561,5,32,1000,-15,2,-3
3562,6,32,998,-15,2,-4
3563,4,30,997,-15,2,-3
3564,4,31,997,-14,1,-2
3565,3,30,998,-13,2,-3
3566,4,29,998,-14,1,-3
3567,4,29,997,-13,0,-2
3568,3,31,999,-14,1,-2
3569,3,30,998,-13,0,-2
3570,4,30,998,-14,0,-2
3571,4,31,999,-14,-1,-3
3572,5,30,998,-15,0,-2
3573,3,31,998,-15,0,-3
3574,6,30,999,-13,2,-3
3575,5,31,998,-14,1,-2
3576,4,32,999,-14,1,-3
3577,2,31,998,-14,0,-3
3578,5,31,997,-14,0,-3
3579,4,30,998,-15,1,-3
3580,4,30,998,-15,0,-3
3581,4,32,999,-15,0,-3
3582,5,31,998,-15,-1,-3
3583,7,31,998,-15,0,-2
3584,6,29,998,-13,0,-4
3585,6,29,999,-15,0,-3
3586,5,32,998,-13,1,-3
3587,4,32,997,-14,0,-3
3588,5,32,999,-17,1,-4
3589,3,31,998,-13,2,-4
3590,6,32,997,-14,1,-4
3591,8,33,998,-14,0,-3
3592,6,30,997,-13,0,-2
3593,4,30,999,-13,1,-3
3594,5,29,998,-14,1,-2
3595,5,30,997,-15,1,-3
3596,6,31,997,-15,2,-3
3597,5,30,1000,-13,1,-4
3598,4,30,998,-14,1,-2
3599,4,30,998,-12,1,-2
3600,5,32,998,-15,0,-2
3601,4,30,997,-13,1,-3
3602,6,31,998,-16,2,-4
3603,5,31,997,-13,1,-3
3604,3,30,999,-16,2,-4
3605,3,32,997,-15,1,-3
3606,4,28,998,-14,0,-2
3607,3,30,999,-13,1,-4
3608,3,29,999,-13,1,-4
3609,4,30,999,-13,1,-3
3610,4,31,998,-14,1,-3
3611,4,31,996,-14,0,-3
3612,5,30,996,-16,1,-2
3613,4,31,998,-15,0,-4
3614,5,30,1001,-14,1,-3
3615,6,31,999,-14,0,-2
3616,4,32,999,-15,1,-3
3617,4,29,999,-13,2,-3
3618,5,29,999,-13,1,-3
3619,4,30,999,-13,1,-4
3620,4,30,999,-15,2,-2
3621,6,31,998,-13,2,-2
3622,5,32,998,-14,2,-3
3623,4,32,999,-14,1,-3
3624,5,29,998,-14,1,-4
3625,3,32,997,-14,-1,-3
3626,5,33,998,-15,1,-3
3627,6,32,998,-13,2,-2
3628,5,32,999,-14,0,-3
3629,6,31,998,-14,0,-4
3630,3,31,997,-13,1,-4
3631,6,31,998,-15,1,-3
3632,5,30,998,-14,1,-4
3633,5,29,998,-13,1,-3
3634,6,30,999,-14,0,-2
3635,4,30,1000,-13,0,-3
3636,5,30,999,-14,0,-2
3637,4,32,999,-14,1,-3
3638,4,29,999,-14,2,-3
3639,6,29,998,-14,0,-3
3640,2,32,998,-13,1,-4
3641,4,30,998,-15,1,-3
3642,7,32,999,-13,1,-3
3643,4,30,999,-13,1,-2
3644,3,30,1000,-15,2,-2
3645,6,31,999,-13,1,-3
3646,3,29,999,-12,1,-3
3647,5,30,999,-15,-1,-4
3648,4,30,1000,-14,0,-3
3649,3,32,1000,-13,1,-3
3650,5,31,1000,-13,0,-4
3651,5,30,999,-12,1,-3
3652,4,31,999,-13,1,-4
3653,5,31,999,-12,1,-3
3654,6,31,997,-13,1,-2
3655,7,30,998,-12,1,-3
3656,4,30,999,-13,1,-3
3657,5,31,999,-14,1,-4
3658,6,29,997,-13,2,-3
3659,6,30,997,-13,2,-3
3660,5,31,997,-14,1,-3
3661,5,30,998,-14,2,-3
3662,3,30,998,-15,1,-3
3663,4,29,999,-14,0,-3
3664,3,29,999,-14,0,-3
3665,5,29,997,-13,1,-4
3666,7,30,997,-14,1,-3
3667,7,31,998,-15,1,-4
3668,5,31,998,-13,-1,-3
3669,4,31,998,-15,0,-3
3670,5,31,997,-13,0,-4
3671,4,31,998,-13,1,-4
3672,4,31,998,-14,1,-4
3673,4,30,998,-13,1,-3
3674,5,31,999,-13,1,-3
3675,4,29,998,-14,0,-4
3676,4,30,998,-12,1,-4
3677,6,31,998,-15,1,-3
3678,5,32,999,-15,1,-2
3679,4,32,998,-15,0,-3
3680,4,30,998,-14,0,-4
3681,3,30,1000,-13,1,-3
3682,5,33,999,-14,2,-3
3683,5,30,997,-15,0,-4
3684,6,32,999,-13,1,-4
3685,4,32,999,-13,1,-3
3686,4,32,997,-15,0,-3
3687,6,32,997,-13,0,-3
3688,5,30,997,-15,1,-3
3689,5,30,998,-12,2,-3
3690,5,30,998,-15,1,-3
3691,4,29,1000,-15,2,-3
3692,6,30,999,-13,2,-3
3693,6,32,998,-13,1,-3
3694,4,31,999,-14,1,-3
3695,5,29,998,-14,1,-3
3696,5,30,998,-13,2,-3
3697,4,30,998,-14,1,-3
3698,4,30,998,-14,2,-3
3699,4,31,997,-15,0,-3
3700,5,28,1000,-13,1,-4
3701,4,30,999,-15,0,-2
3702,4,31,998,-13,-1,-2
3703,3,29,998,-14,0,-3
3704,4,31,999,-14,0,-3
3705,3,31,999,-13,0,-3
3706,4,32,998,-13,1,-3
3707,4,30,998,-15,0,-4
3708,3,30,997,-13,1,-4
3709,4,32,999,-14,1,-3
3710,3,29,997,-15,1,-3
3711,5,29,999,-12,-1,-4
3712,6,31,997,-18,1,-1
3713,4,31,998,-12,-1,-3
3714,4,29,996,-13,1,-3
3715,4,30,998,-14,1,-4
3716,4,29,999,-17,0,-3
3717,5,29,999,-11,1,-4
3718,6,30,998,-16,1,-3
3719,4,33,999,-15,0,-3
3720,5,31,997,-14,0,-3
3721,4,29,997,-15,1,-3
3722,4,31,999,-13,1,-3
3723,4,29,999,-14,1,-3
3724,4,30,997,-14,0,-3
3725,4,29,1000,-14,1,-2
3726,4,30,997,-15,1,-2
3727,5,32,997,-15,1,-3
3728,2,31,1001,-13,1,-3
3729,5,31,999,-15,1,-4
3730,4,30,999,-13,1,-4
3731,3,31,999,-14,1,-3
3732,4,31,999,-14,0,-3
3733,5,31,999,-14,1,-4
3734,7,32,1000,-16,0,-4
3735,5,31,1000,-14,0,-3
3736,4,31,999,-13,0,-4
3737,6,30,1000,-14,1,-4
3738,6,30,998,-15,1,-3
3739,3,29,1000,-15,1,-4
3740,6,29,999,-14,1,-3
3741,4,30,999,-15,1,-2
3742,5,32,1001,-14,0,-3
3743,6,29,1000,-13,1,-3
3744,5,31,999,-14,1,-4
3745,4,31,999,-14,1,-3
3746,6,30,998,-14,0,-3
3747,7,30,999,-15,1,-3
3748,3,31,999,-14,1,-2
3749,5,30,999,-14,2,-3
3750,4,31,998,-13,1,-4
3751,5,31,998,-13,1,-3
3752,5,30,998,-15,1,-4
3753,5,31,997,-14,1,-3
3754,5,31,997,-15,0,-3
3755,4,30,998,-15,0,-2
3756,5,30,998,-14,0,-3
3757,5,30,998,-14,1,-3
3758,5,31,998,-13,1,-4
3759,4,30,998,-13,1,-4
3760,4,31,997,-15,0,-3
3761,3,32,998,-15,1,-3
3762,4,32,999,-15,2,-3
3763,5,31,997,-14,1,-3
3764,6,30,999,-14,2,-2
3765,4,30,998,-14,0,-4
3766,3,32,998,-13,0,-3
3767,4,31,996,-13,1,-3
3768,5,30,997,-14,0,-5
3769,4,31,997,-12,2,-2
3770,5,30,997,-14,1,-3
3771,4,30,998,-13,1,-3
3772,3,32,999,-14,1,-3
3773,4,32,998,-14,1,-3
3774,4,32,999,-14,0,-3
3775,4,31,996,-13,1,-2
3776,5,31,998,-13,1,-3
3777,4,31,998,-13,1,-4
3778,5,30,998,-14,1,-4
3779,4,29,999,-15,1,-3
3780,7,30,997,-14,1,-3
3781,4,30,996,-14,1,-2
3782,4,30,997,-13,0,-4
3783,4,29,997,-13,1,-2
3784,3,31,997,-13,1,-3
3785,5,30,998,-14,1,-3
3786,5,30,996,-15,1,-4
3787,4,30,998,-14,2,-3
3788,4,29,998,-15,1,-2
3789,5,31,998,-14,2,-1
3790,3,30,999,-14,1,-2
3791,6,30,999,-15,1,-2
3792,6,32,998,-14,2,-3
3793,2,30,999,-14,0,-4
3794,6,30,997,-14,1,-3
3795,4,31,999,-13,0,-3
3796,3,30,998,-14,1,-5
3797,4,32,997,-13,2,-3
3798,5,30,996,-15,1,-3
3799,3,29,998,-15,1,-4
3800,5,31,998,-13,1,-3
3801,3,30,998,-13,1,-4
3802,5,31,997,-15,0,-4
3803,5,31,998,-13,1,-3
3804,8,31,997,-14,1,-4
3805,3,30,997,-13,2,-3
3806,5,29,997,-13,1,-3
3807,7,31,997,-15,1,-2
3808,4,30,997,-13,0,-4
3809,4,31,999,-14,1,-3
3810,5,29,998,-16,1,-4
3811,6,29,999,-14,0,-2
3812,5,30,999,-13,1,-3
3813,4,31,998,-15,1,-2
3814,4,29,999,-15,2,-3
3815,4,31,998,-15,1,-3
3816,4,32,999,-14,1,-2
3817,2,30,998,-13,1,-3
3818,5,31,1000,-16,0,-4
3819,5,32,998,-14,0,-2
3820,5,31,1000,-15,1,-3
3821,6,29,999,-13,1,-3
3822,6,31,999,-13,0,-3
3823,5,30,1000,-13,1,-4
3824,5,32,999,-16,2,-2
3825,5,32,999,-14,2,-3
3826,7,30,999,-13,1,-3
3827,5,31,999,-16,0,-3
3828,5,30,1000,-15,0,-4
3829,6,30,999,-14,0,-4
3830,3,30,999,-15,1,-3
3831,6,30,1000,-14,0,-3
3832,3,32,999,-12,1,-3
3833,4,30,999,-14,1,-3
3834,6,31,999,-13,1,-3
3835,4,33,998,-15,1,-3
3836,5,30,999,-13,1,-3
3837,5,30,999,-13,2,-3
3838,3,28,998,-15,1,-4
3839,6,29,997,-14,0,-3
3840,5,30,997,-14,1,-3
3841,4,30,997,-14,1,-3
3842,3,30,998,-15,1,-3
3843,5,32,998,-14,1,-3
3844,4,29,998,-15,1,-4
3845,4,28,998,-13,1,-3
3846,6,29,999,-14,2,-3
3847,4,28,1000,-14,0,-2
3848,5,30,998,-12,0,-3
3849,4,30,998,-15,0,-3
3850,3,31,999,-14,1,-2
3851,4,31,998,-13,0,-2
3852,4,33,997,-15,1,-3
3853,4,31,1000,-14,1,-2
3854,4,30,999,-15,2,-1
3855,5,33,1001,-14,0,-3
3856,3,33,999,-14,0,-4
3857,4,31,998,-16,0,-3
3858,5,31,997,-15,0,-3
3859,5,30,999,-14,1,-3
3860,4,29,998,-14,2,-3
3861,4,30,998,-14,0,-3
3862,5,31,998,-15,0,-4
3863,6,31,998,-15,1,-3
3864,7,29,998,-13,1,-4
3865,5,32,999,-13,0,-3
3866,4,32,997,-13,1,-2
3867,6,32,996,-13,1,-3
3868,5,31,997,-13,0,-3
3869,5,30,998,-13,0,-4
3870,2,31,998,-13,2,-4
3871,4,31,997,-15,1,-4
3872,7,31,998,-13,-1,-4
3873,5,30,998,-14,1,-3
3874,6,29,997,-13,0,-4
3875,5,30,997,-13,1,-4
3876,5,30,999,-13,1,-5
3877,4,31,998,-14,1,-3
3878,3,30,999,-16,1,-3
3879,5,31,997,-13,1,-3
3880,3,30,997,-13,0,-3
3881,4,29,997,-13,1,-3
3882,6,28,999,-13,0,-2
3883,5,29,997,-13,1,-3
3884,4,31,999,-14,1,-3
3885,4,30,999,-13,2,-4
3886,2,30,999,-13,1,-4
3887,2,31,999,-14,2,-3
3888,4,30,997,-14,1,-3
3889,5,30,998,-14,1,-4
3890,4,31,998,-15,1,-3
3891,4,30,997,-14,1,-3
3892,4,32,997,-16,1,-3
3893,6,30,998,-15,2,-3
3894,4,30,997,-14,2,-3
3895,4,31,998,-14,2,-4
3896,3,31,998,-15,1,-4
3897,5,31,998,-15,1,-4
3898,5,29,997,-15,1,-3
3899,5,30,999,-14,1,-2
3900,5,29,999,-14,2,-2
3901,5,31,997,-14,1,-3
3902,5,30,997,-13,0,-4
3903,3,29,997,-15,0,-3
3904,4,31,999,-15,1,-4
3905,5,30,999,-16,1,-3
3906,7,31,998,-14,1,-2
3907,6,32,999,-13,1,-3
3908,2,30,998,-13,2,-4
3909,5,29,998,-15,0,-3
3910,2,31,1000,-14,1,-3
3911,5,31,1000,-14,0,-3
3912,5,30,1000,-13,2,-4
3913,3,30,999,-14,1,-3
3914,4,29,999,-13,1,-4
3915,3,32,999,-13,2,-3
3916,3,30,1000,-15,2,-3
3917,4,31,1000,-13,0,-4
3918,4,30,999,-13,1,-4
3919,6,30,1000,-15,0,-3
3920,6,30,999,-16,1,-3
3921,4,30,999,-15,0,-4
3922,5,30,998,-14,1,-3
3923,5,29,997,-17,1,-2
3924,3,28,997,-14,1,-4
3925,5,29,999,-13,1,-4
3926,2,30,998,-14,2,-3
3927,5,30,999,-15,1,-2
3928,4,30,1000,-15,1,-3
3929,2,29,998,-15,2,-3
3930,5,30,998,-13,1,-3
3931,5,31,998,-15,1,-4
3932,5,30,996,-14,1,-3
3933,6,29,997,-15,1,-2
3934,5,30,999,-13,0,-3
3935,6,30,998,-14,1,-3
3936,6,30,998,-17,-1,-3
3937,3,32,999,-14,0,-2
3938,5,30,998,-13,1,-4
3939,6,31,997,-14,1,-3
3940,5,31,999,-13,1,-3
3941,5,30,999,-14,1,-4
3942,4,33,999,-14,0,-3
3943,5,30,997,-16,0,-2
3944,2,30,999,-14,1,-4
3945,3,30,998,-13,2,-4
3946,5,30,998,-13,0,-3
3947,6,31,997,-14,0,-2
3948,5,30,997,-14,1,-4
3949,6,31,997,-13,0,-3
3950,6,31,999,-15,0,-4
3951,4,30,999,-17,0,-3
3952,5,30,997,-14,0,-2
3953,4,29,998,-15,1,-3
3954,5,32,1000,-14,1,-3
3955,5,30,997,-13,1,-3
3956,4,31,997,-15,1,-3
3957,5,30,997,-13,1,-3
3958,4,30,998,-15,0,-2
3959,3,32,998,-14,1,-3
3960,4,31,998,-13,1,-2
3961,3,31,999,-14,0,-3
3962,5,30,996,-16,0,-3
3963,5,29,997,-16,0,-2
3964,6,29,997,-15,1,-3
3965,5,30,997,-14,2,-4
3966,5,30,998,-15,1,-3
3967,5,30,997,-13,1,-3
3968,6,30,998,-13,1,-3
3969,5,30,999,-14,1,-2
3970,5,31,998,-13,1,-1
3971,4,31,999,-15,0,-3
3972,3,30,998,-15,0,-4
3973,6,30,998,-14,0,-4
3974,4,31,998,-14,0,-4
3975,5,31,999,-15,0,-3
3976,6,32,998,-14,1,-2
3977,5,30,997,-15,0,-3
3978,5,30,998,-13,0,-3
3979,5,30,999,-15,1,-3
3980,5,31,999,-13,1,-5
3981,5,31,1000,-14,2,-4
3982,5,30,999,-15,1,-3
3983,4,31,997,-13,1,-3
3984,5,30,999,-14,1,-3
3985,4,30,998,-14,1,-4
3986,5,30,999,-14,1,-3
3987,6,31,998,-14,1,-3
3988,5,30,998,-14,1,-1
3989,6,29,999,-14,1,-3
3990,4,31,999,-14,1,-4
3991,5,31,998,-15,1,-3
3992,6,29,999,-14,2,-3
3993,5,31,998,-15,0,-3
3994,5,32,997,-14,0,-2
3995,4,33,999,-14,0,-2
3996,3,30,999,-13,1,-3
3997,4,30,999,-14,2,-3
3998,6,30,1000,-14,2,-3
3999,5,32,999,-14,1,-3
4000,5,31,999,-14,0,-2
4001,3,31,1001,-14,1,-3
4002,5,32,1000,-15,0,-3
4003,3,30,1000,-16,0,-2
4004,5,30,999,-15,2,-4
4005,4,32,999,-14,0,-3
4006,4,31,999,-14,0,-4
4007,4,31,999,-14,0,-3
4008,5,30,999,-14,0,-3
4009,2,29,998,-15,2,-4
4010,4,30,998,-15,1,-3
4011,2,31,998,-14,2,-3
4012,3,32,998,-14,1,-3
4013,5,30,998,-13,2,-3
4014,5,32,997,-13,2,-4
4015,5,30,998,-14,1,-3
4016,7,30,997,-12,1,-3
4017,6,30,998,-15,1,-3
4018,5,29,998,-15,2,-3
4019,6,29,997,-13,0,-3
4020,5,28,997,-15,0,-2
4021,6,30,998,-14,1,-4
4022,6,32,997,-15,0,-3
4023,4,29,998,-15,1,-4
4024,5,32,997,-16,1,-3
4025,5,31,998,-14,2,-3
4026,3,31,998,-14,1,-2
4027,4,33,998,-15,1,-3
4028,3,32,997,-12,1,-4
4029,3,30,998,-15,0,-3
4030,4,30,998,-14,1,-4
4031,5,31,998,-13,1,-3
4032,4,30,1000,-13,2,-3
4033,4,30,998,-13,2,-3
4034,3,29,997,-14,1,-3
4035,3,30,996,-15,1,-3
4036,3,32,997,-14,1,-4
4037,2,28,998,-14,1,-3
4038,4,32,998,-14,0,-4
4039,4,29,997,-14,0,-3
4040,4,32,998,-14,0,-3
4041,4,32,997,-14,0,-2
4042,5,32,997,-14,0,-3
4043,3,29,997,-15,1,-4
4044,6,32,997,-15,1,-5
4045,4,31,997,-15,1,-3
4046,4,30,996,-16,1,-3
4047,5,30,998,-14,0,-3
4048,4,30,999,-15,0,-2
4049,4,31,998,-14,1,-2
4050,6,30,998,-13,1,-3
4051,5,29,998,-15,1,-3
4052,5,29,997,-13,0,-4
4053,6,30,998,-16,2,-2
4054,6,31,999,-17,2,-3
4055,3,30,998,-16,1,-3
4056,2,31,1000,-13,1,-3
4057,5,30,997,-14,1,-3
4058,5,31,999,-16,0,-3
4059,6,30,999,-12,1,-2
4060,4,31,998,-17,0,-3
4061,5,31,998,-14,1,-3
4062,5,31,997,-14,1,-4
4063,4,32,999,-14,1,-4
4064,3,30,998,-14,1,-3
4065,4,31,1000,-16,-1,-3
4066,5,30,999,-16,1,-2
4067,3,32,997,-13,2,-3
4068,6,30,998,-14,1,-2
4069,4,31,998,-13,1,-2
4070,6,29,998,-13,-1,-4
4071,5,30,998,-14,1,-4
4072,5,29,999,-15,1,-3
4073,4,30,998,-16,1,-4
4074,6,32,998,-13,1,-4
4075,4,31,998,-14,1,-4
4076,5,31,999,-15,2,-4
4077,5,32,999,-13,1,-3
4078,4,29,998,-15,0,-3
4079,4,32,998,-14,1,-3
4080,6,31,998,-13,1,-3
4081,5,29,998,-14,0,-3
4082,5,31,1000,-12,1,-3
4083,5,29,998,-15,0,-4
4084,4,30,998,-14,1,-3
4085,4,30,999,-12,1,-3
4086,5,30,1000,-16,1,-4
4087,4,30,1000,-13,1,-3
4088,5,31,997,-15,2,-3
4089,4,31,998,-14,2,-3
4090,3,31,999,-13,0,-4
4091,4,31,998,-15,0,-4
4092,5,29,1000,-12,0,-4
4093,4,31,998,-13,0,-4
4094,5,30,998,-15,0,-3
4095,6,30,1000,-15,2,-3
4096,5,31,1000,-16,1,-2
4097,4,29,999,-14,1,-3
4098,6,31,999,-15,2,-3
4099,6,29,999,-15,2,-3
4100,3,31,997,-14,1,-3
4101,5,30,998,-14,0,-1
4102,6,31,998,-16,2,-1
4103,6,30,997,-14,2,-3
4104,4,31,996,-13,0,-2
4105,4,31,998,-14,1,-3
4106,5,32,1000,-12,2,-3
4107,6,29,998,-15,1,-4
4108,6,30,997,-15,0,-4
4109,7,30,997,-15,2,-3
4110,6,30,997,-14,1,-3
4111,4,31,998,-13,1,-3
4112,7,30,997,-13,0,-3
4113,5,30,997,-12,0,-2
4114,4,29,999,-13,1,-2
4115,4,29,998,-12,1,-3
4116,4,31,999,-14,1,-5
4117,6,32,997,-15,1,-4
4118,5,32,998,-13,1,-3
4119,4,32,998,-13,1,-2
4120,4,30,999,-15,1,-3
4121,5,30,1000,-15,0,-2
4122,6,30,998,-14,0,-3
4123,5,28,999,-14,2,-3
4124,4,30,996,-15,1,-3
4125,4,30,996,-14,0,-3
4126,4,33,998,-12,1,-3
4127,4,30,998,-14,1,-3
4128,4,32,997,-12,2,-3
4129,5,31,998,-15,1,-3
4130,5,30,998,-15,1,-2
4131,5,30,997,-14,2,-3
4132,5,31,999,-15,0,-3
4133,4,30,999,-16,0,-3
4134,4,30,996,-15,2,-3
4135,6,30,998,-14,2,-3
4136,6,32,999,-13,2,-3
4137,6,29,998,-15,2,-3
4138,5,30,1000,-14,1,-4
4139,3,30,997,-14,1,-3
4140,5,31,998,-14,1,-4
4141,5,30,999,-15,0,-3
4142,5,29,998,-14,1,-3
4143,4,30,998,-13,1,-3
4144,5,30,998,-14,0,-4
4145,3,30,998,-14,0,-3
4146,6,31,998,-15,1,-3
4147,3,30,1000,-14,1,-4
4148,3,30,997,-15,2,-3
4149,4,31,999,-15,1,-2
4150,4,29,998,-14,0,-2
4151,6,29,999,-15,0,-3
4152,5,32,1000,-15,1,-3
4153,3,31,998,-13,0,-3
4154,3,30,997,-17,1,-3
4155,4,29,998,-16,0,-3
4156,7,32,999,-14,1,-3
4157,6,32,998,-15,2,-2
4158,4,32,998,-15,1,-3
4159,4,31,997,-13,1,-3
4160,4,30,999,-15,1,-3
4161,5,31,997,-14,1,-3
4162,3,33,998,-13,1,-3
4163,4,30,998,-15,1,-3
4164,5,29,998,-14,1,-3
4165,2,32,998,-13,0,-3
4166,5,30,999,-13,1,-4
4167,5,31,998,-13,1,-3
4168,2,31,997,-13,1,-3
4169,5,33,997,-15,1,-3
4170,5,28,1000,-14,1,-2
4171,3,30,998,-14,1,-3
4172,5,29,998,-13,1,-2
4173,5,32,998,-13,1,-4
4174,5,31,999,-13,1,-4
4175,5,30,999,-14,0,-3
4176,5,31,1000,-14,1,-2
4177,4,31,998,-14,0,-3
4178,5,30,999,-13,2,-3
4179,6,31,999,-14,3,-3
4180,5,31,999,-16,1,-3
4181,4,31,998,-14,1,-3
4182,5,30,999,-13,2,-3
4183,5,30,999,-15,2,-3
4184,6,29,999,-13,1,-3
4185,4,31,997,-14,0,-3
4186,7,31,997,-13,1,-4
4187,4,31,999,-14,0,-3
4188,4,29,996,-14,0,-2
4189,5,31,999,-14,1,-4
4190,5,32,1000,-14,0,-4
4191,5,30,998,-13,0,-2
4192,5,30,999,-13,0,-3
4193,5,30,998,-14,1,-3
4194,4,33,998,-14,3,-3
4195,3,30,997,-12,0,-3
4196,5,31,998,-15,0,-3
4197,7,30,998,-12,1,-3
4198,5,30,998,-14,0,-2
4199,4,31,997,-12,0,-2
4200,6,31,999,-14,0,-4
4201,5,30,996,-14,1,-4
4202,6,29,997,-13,0,-3
4203,6,31,997,-14,1,-3
4204,5,30,997,-14,0,-4
4205,5,30,997,-14,1,-3
4206,5,30,999,-15,1,-2
4207,5,31,998,-13,2,-3
4208,2,32,998,-14,2,-3
4209,4,31,998,-14,1,-3
4210,4,30,998,-14,1,-4
4211,5,31,997,-14,3,-3
4212,6,31,998,-16,1,-4
4213,5,31,997,-13,1,-2
4214,4,32,998,-13,2,-3
4215,5,31,999,-13,0,-4
4216,5,32,998,-12,0,-4
4217,3,30,998,-14,1,-3
4218,3,29,997,-15,0,-4
4219,4,31,998,-14,1,-3
4220,5,31,999,-16,2,-3
4221,5,30,999,-12,1,-3
4222,5,31,999,-16,0,-4
4223,5,30,999,-15,0,-3
4224,6,29,1000,-13,1,-3
4225,4,30,997,-16,1,-2
4226,6,28,997,-13,1,-3
4227,5,30,996,-14,0,-4
4228,5,28,998,-14,1,-3
4229,5,29,998,-14,1,-2
4230,5,31,997,-14,1,-3
4231,4,30,999,-13,1,-4
4232,5,30,998,-15,1,-3
4233,5,32,999,-15,2,-3
4234,5,29,998,-14,1,-3
4235,4,29,999,-15,1,-2
4236,4,31,998,-12,1,-3
4237,4,30,1000,-14,1,-4
4238,4,31,999,-15,1,-2
4239,4,32,998,-13,0,-3
4240,3,30,998,-14,0,-3
4241,5,31,998,-13,1,-3
4242,5,29,999,-13,-1,-3
4243,5,30,999,-15,1,-3
4244,5,31,999,-14,1,-4
4245,6,30,997,-14,-1,-3
4246,5,30,999,-15,-1,-3
4247,5,34,999,-15,1,-3
4248,4,32,998,-16,1,-4
4249,4,32,998,-13,1,-4
4250,3,32,998,-13,1,-3
4251,5,32,999,-15,1,-4
4252,5,31,997,-13,0,-2
4253,4,30,996,-15,1,-2
4254,4,31,998,-16,0,-4
4255,6,30,998,-14,1,-3
4256,5,31,998,-16,1,-3
4257,5,31,997,-14,1,-4
4258,5,30,998,-12,2,-3
4259,5,31,997,-14,1,-4
4260,4,31,997,-13,1,-4
4261,5,29,999,-14,0,-4
4262,2,29,1000,-16,1,-2
4263,5,31,999,-15,3,-2
4264,6,30,998,-14,2,-3
4265,3,31,999,-15,1,-3
4266,3,31,1000,-14,1,-4
4267,3,30,998,-14,2,-4
4268,5,31,999,-15,1,-3
4269,4,31,998,-14,-1,-3
4270,6,32,998,-15,-1,-2
4271,7,30,997,-14,1,-4
4272,3,29,999,-14,1,-3
4273,3,31,999,-14,0,-4
4274,3,32,1000,-15,1,-2
4275,4,30,1000,-15,1,-2
4276,5,30,999,-14,2,-3
4277,5,31,996,-12,1,-4
4278,4,31,998,-13,1,-4
4279,4,29,998,-13,0,-4
4280,4,32,998,-15,0,-3
4281,5,30,999,-14,1,-4
4282,7,31,999,-14,1,-3
4283,8,31,996,-13,2,-3
4284,6,31,997,-13,3,-3
4285,6,29,997,-14,0,-3
4286,4,31,997,-15,0,-3
4287,3,29,998,-15,-1,-3
4288,4,30,997,-13,-1,-3
4289,4,30,997,-14,0,-3
4290,4,30,998,-13,1,-3
4291,6,30,998,-14,1,-3
4292,4,30,998,-15,0,-3
4293,5,31,998,-13,0,-3
4294,6,29,998,-13,0,-4
4295,4,29,999,-13,0,-3
4296,5,31,997,-13,1,-3
4297,6,31,999,-12,0,-2
4298,6,32,999,-14,1,-3
4299,6,31,998,-14,1,-4
4300,5,30,998,-15,1,-4
4301,5,31,998,-13,1,-3
4302,6,30,999,-14,1,-3
4303,5,33,998,-14,0,-2
4304,5,31,997,-15,2,-3
4305,5,31,999,-14,0,-4
4306,6,31,999,-16,2,-4
4307,2,31,999,-14,2,-3
4308,4,31,998,-15,0,-4
4309,4,31,997,-15,0,-3
4310,5,31,997,-14,1,-3
4311,4,30,997,-13,0,-4
4312,5,29,997,-14,1,-3
4313,5,29,997,-14,1,-4
4314,4,31,999,-14,1,-4
4315,3,31,997,-16,1,-3
4316,4,31,998,-15,1,-3
4317,5,30,998,-15,-1,-3
4318,3,30,999,-15,1,-2
4319,5,31,998,-14,1,-3
4320,6,31,999,-16,1,-4
4321,4,30,1000,-14,0,-3
4322,5,30,998,-13,0,-3
4323,4,30,998,-15,1,-3
4324,4,30,997,-14,1,-2
4325,4,33,998,-14,1,-4
4326,5,31,998,-15,1,-3
4327,6,30,998,-13,1,-3
4328,6,30,999,-13,0,-3
4329,4,30,998,-15,0,-4
4330,5,30,998,-13,1,-3
4331,4,29,1000,-13,1,-3
4332,5,30,999,-15,0,-2
4333,4,31,999,-15,1,-4
4334,4,32,998,-14,1,-3
4335,6,32,999,-15,0,-3
4336,6,31,1000,-14,1,-3
4337,4,31,997,-15,0,-4
4338,4,31,997,-14,0,-3
4339,4,32,998,-15,0,-4
4340,5,31,999,-14,0,-4
4341,5,30,999,-13,1,-3
4342,5,31,1000,-14,0,-3
4343,7,30,998,-14,0,-3
4344,5,30,999,-16,0,-2
4345,5,32,999,-14,-1,-3
4346,8,30,999,-15,1,-2
4347,4,30,999,-14,1,-3
4348,5,30,998,-15,1,-3
4349,3,30,998,-13,1,-4
4350,5,31,998,-15,0,-3
4351,4,30,1000,-15,1,-3
4352,4,31,998,-14,0,-3
4353,5,29,997,-14,1,-2
4354,6,30,1000,-15,0,-2
4355,5,32,1000,-15,1,-5
4356,5,30,1000,-13,2,-3
4357,4,29,998,-15,1,-2
4358,5,29,998,-15,1,-3
4359,5,31,1001,-13,1,-4
4360,6,33,999,-13,0,-3
4361,5,31,1000,-14,1,-3
4362,5,29,1000,-15,0,-2
4363,4,30,1000,-14,1,-3
4364,4,30,998,-14,2,-4
4365,5,30,997,-14,1,-4
4366,5,31,999,-14,0,-3
4367,6,31,998,-15,1,-3
4368,5,31,998,-15,0,-3
4369,4,31,996,-12,1,-4
4370,5,32,999,-14,1,-4
4371,6,31,999,-11,2,-3
4372,5,30,997,-14,0,-3
4373,5,30,998,-13,0,-4
4374,4,32,998,-15,1,-3
4375,4,31,998,-15,0,-3
4376,3,31,998,-12,-1,-3
4377,4,30,999,-14,-1,-2
4378,5,31,998,-15,0,-4
4379,4,31,999,-14,0,-3
4380,5,28,999,-14,2,-3
4381,4,31,998,-14,1,-3
4382,6,32,997,-16,1,-4
4383,5,31,997,-14,0,-4
4384,5,30,997,-15,0,-3
4385,4,30,998,-13,0,-3
4386,6,31,998,-14,1,-2
4387,6,32,998,-11,1,-3
4388,5,32,997,-14,0,-4
4389,5,30,997,-21,1,-2
4390,5,31,997,-9,1,-4
4391,6,29,998,-16,0,-3
4392,4,30,998,-14,0,-2
4393,4,31,998,-12,0,-3
4394,5,32,998,-17,0,-3
4395,5,31,997,-13,2,-3
4396,5,31,997,-14,1,-4
4397,5,31,998,-16,1,-3
4398,4,31,997,-11,0,-4
4399,5,30,998,-13,1,-3
4400,4,31,997,-14,1,-4
4401,6,30,998,-12,1,-3
4402,6,30,998,-14,1,-3
4403,3,29,996,-15,0,-4
4404,5,31,998,-15,1,-3
4405,3,30,998,-16,0,-4
4406,3,31,998,-12,0,-3
4407,5,32,998,-14,1,-2
4408,3,30,999,-14,-1,-3
4409,4,29,998,-14,0,-3
4410,6,31,997,-14,0,-3
4411,5,31,998,-14,2,-3
4412,6,30,998,-15,1,-1
4413,6,30,998,-14,1,-4
4414,5,32,998,-12,1,-3
4415,6,30,997,-14,2,-3
4416,6,30,998,-13,0,-4
4417,4,30,998,-14,0,-2
4418,5,29,996,-14,1,-3
4419,5,31,998,-13,1,-3
4420,5,30,998,-12,1,-3
4421,7,33,998,-13,1,-4
4422,5,33,999,-14,1,-3
4423,4,30,999,-15,0,-3
4424,3,31,998,-14,1,-2
4425,4,32,998,-14,2,-2
4426,5,30,998,-15,1,-3
4427,6,31,997,-14,1,-3
4428,4,31,999,-13,0,-3
4429,5,31,998,-15,0,-2
4430,4,31,1000,-15,0,-2
4431,5,30,999,-15,0,-4
4432,4,31,999,-15,0,-4
4433,4,29,998,-15,0,-4
4434,6,30,999,-13,-1,-2
4435,6,31,999,-14,0,-3
4436,4,31,999,-14,0,-3
4437,5,29,999,-13,0,-3
4438,5,30,999,-14,0,-3
4439,4,32,998,-14,0,-3
4440,5,32,998,-13,1,-4
4441,5,30,999,-14,1,-4
4442,3,30,999,-15,1,-3
4443,3,31,999,-14,0,-3
4444,4,31,999,-14,0,-2
4445,4,30,999,-14,1,-3
4446,5,30,998,-15,1,-5
4447,5,28,1000,-15,0,-2
4448,3,29,998,-13,2,-1
4449,3,31,999,-13,1,-3
4450,5,29,1000,-13,2,-4
4451,3,30,999,-12,1,-3
4452,5,30,998,-14,1,-3
4453,6,31,999,-14,1,-2
4454,4,32,999,-15,1,-2
4455,3,30,998,-14,1,-3
4456,6,31,997,-15,1,-3
4457,5,32,1000,-14,1,-3
4458,5,32,998,-13,1,-4
4459,5,31,997,-14,1,-3
4460,3,31,998,-15,0,-3
4461,5,31,998,-14,0,-3
4462,4,30,998,-14,0,-4
4463,5,32,998,-13,1,-4
4464,6,32,999,-13,0,-3
4465,4,30,999,-13,2,-2
4466,5,33,999,-13,1,-2
4467,5,31,997,-15,0,-3
4468,4,32,998,-15,1,-3
4469,5,31,998,-12,1,-4
4470,3,30,998,-13,0,-4
4471,6,30,997,-13,1,-4
4472,6,29,998,-15,2,-5
4473,7,32,997,-13,0,-3
4474,6,31,997,-12,2,-4
4475,4,29,997,-15,2,-2
4476,3,31,997,-15,1,-2
4477,4,31,998,-13,1,-3
4478,5,32,999,-14,1,-4
4479,5,31,998,-15,1,-4
4480,4,32,998,-14,0,-4
4481,3,31,999,-15,1,-3
4482,3,31,999,-15,1,-4
4483,4,32,998,-14,1,-4
4484,4,31,998,-14,1,-4
4485,5,33,999,-14,0,-3
4486,3,30,999,-15,1,-3
4487,2,30,998,-12,1,-2
4488,5,31,997,-15,1,-2
4489,5,30,999,-15,0,-3
4490,4,32,999,-13,1,-3
4491,6,30,998,-14,0,-3
4492,4,31,996,-13,1,-3
4493,3,31,999,-15,1,-3
4494,4,31,998,-15,1,-3
4495,5,30,999,-14,1,-3
4496,6,29,997,-16,2,-3
4497,5,29,999,-15,1,-3
4498,5,29,998,-14,1,-2
4499,3,29,998,-12,1,-3
4500,5,28,998,-13,1,-3
4501,5,29,998,-15,2,-2
4502,4,30,999,-15,1,-4
4503,5,31,999,-14,2,-4
4504,4,31,997,-14,2,-4
4505,4,32,998,-15,2,-3
4506,5,32,997,-14,1,-3
4507,5,31,998,-13,2,-2
4508,7,31,998,-13,0,-2
4509,4,30,998,-12,1,-2
4510,3,32,999,-14,1,-3
4511,4,30,999,-16,0,-3
4512,4,31,999,-13,1,-3
4513,5,31,999,-15,-1,-3
4514,3,31,998,-14,1,-4
4515,4,29,1000,-16,2,-3
4516,5,30,1000,-15,1,-2
4517,6,30,1000,-14,0,-3
4518,5,31,998,-14,1,-2
4519,4,31,998,-15,1,-3
4520,4,30,1000,-14,2,-2
4521,5,30,1000,-14,1,-3
4522,5,30,997,-12,1,-4
4523,3,30,998,-14,0,-3
4524,3,30,998,-14,2,-3
4525,5,31,999,-14,2,-3
4526,5,30,999,-15,1,-2
4527,4,29,999,-14,0,-3
4528,5,31,997,-15,0,-3
4529,4,30,998,-14,1,-3
4530,4,31,998,-15,1,-3
4531,3,30,997,-14,2,-3
4532,1,31,997,-15,1,-4
4533,5,31,997,-15,1,-4
4534,2,31,998,-15,1,-4
4535,5,32,996,-15,1,-3
4536,4,31,998,-15,1,-3
4537,5,31,999,-15,1,-4
4538,4,29,1000,-13,0,-3
4539,4,30,998,-14,0,-3
4540,6,30,998,-15,1,-4
4541,4,30,999,-14,1,-3
4542,4,30,999,-14,0,-4
4543,5,29,998,-15,2,-2
4544,5,29,999,-11,1,-3
4545,7,30,997,-15,1,-3
4546,7,30,998,-13,1,-3
4547,5,29,997,-14,1,-3
4548,6,30,998,-15,1,-4
4549,7,31,998,-15,0,-3
4550,5,30,999,-16,1,-4
4551,5,31,998,-14,-1,-3
4552,5,32,997,-14,1,-2
4553,5,31,997,-14,2,-3
4554,7,30,997,-13,1,-4
4555,5,30,999,-15,1,-5
4556,4,30,997,-16,1,-2
4557,3,31,997,-13,1,-4
4558,4,30,998,-15,1,-3
4559,5,29,998,-14,1,-4
4560,5,31,998,-15,0,-2
4561,4,31,999,-14,0,-4
4562,4,31,997,-13,1,-3
4563,4,30,998,-15,0,-3
4564,4,30,999,-14,1,-2
4565,2,31,998,-13,1,-3
4566,3,31,999,-15,1,-2
4567,3,32,999,-14,1,-2
4568,4,30,999,-13,1,-3
4569,5,30,998,-15,0,-3
4570,6,31,999,-13,1,-3
4571,6,32,999,-16,1,-3
4572,4,29,998,-13,1,-3
4573,4,29,999,-14,-1,-4
4574,3,29,998,-13,0,-4
4575,6,29,998,-13,1,-3
4576,6,32,997,-15,1,-3
4577,4,31,998,-12,2,-3
4578,4,32,998,-13,1,-2
4579,6,31,999,-15,0,-3
4580,6,31,997,-13,-1,-3
4581,4,32,998,-15,1,-3
4582,3,31,999,-12,1,-3
4583,3,31,998,-14,0,-2
4584,5,29,998,-15,2,-2
4585,5,28,997,-14,1,-3
4586,6,29,998,-15,0,-3
4587,5,29,999,-14,0,-3
4588,6,31,998,-14,1,-3
4589,7,32,998,-15,2,-2
4590,5,30,999,-16,2,-3
4591,5,31,999,-15,0,-4
4592,4,30,999,-15,0,-4
4593,2,29,999,-13,1,-4
4594,4,32,998,-14,0,-2
4595,5,29,998,-16,1,-3
4596,3,30,998,-14,1,-3
4597,4,31,998,-15,2,-3
4598,4,30,999,-15,0,-3
4599,4,32,999,-11,1,-3
4600,6,28,998,-15,1,-3
4601,4,29,999,-14,2,-3
4602,5,32,999,-14,1,-3
4603,3,34,998,-13,1,-4
4604,2,30,997,-15,1,-3
4605,4,30,997,-14,1,-3
4606,4,30,998,-12,0,-4
4607,6,30,998,-14,1,-3
4608,3,30,996,-15,2,-2
4609,4,31,998,-14,1,-4
4610,4,29,998,-13,1,-2
4611,4,30,1000,-13,2,-4
4612,3,29,997,-13,0,-3
4613,5,31,998,-13,1,-2
4614,4,30,998,-13,2,-3
4615,6,30,997,-14,1,-2
4616,4,31,997,-16,0,-3
4617,5,29,996,-14,0,-3
4618,8,31,998,-14,1,-4
4619,4,30,997,-13,-1,-2
4620,3,32,999,-14,0,-3
4621,4,32,999,-14,0,-3
4622,4,31,997,-14,1,-3
4623,5,30,998,-16,2,-3
4624,6,32,1000,-14,1,-2
4625,6,29,999,-14,1,-2
4626,6,30,997,-15,2,-3
4627,4,30,998,-12,2,-4
4628,4,30,999,-14,1,-4
4629,4,29,997,-13,2,-3
4630,5,29,999,-15,2,-4
4631,5,30,997,-14,1,-3
4632,5,28,997,-13,1,-3
4633,3,30,999,-13,2,-3
4634,6,30,998,-14,0,-4
4635,5,28,999,-13,0,-2
4636,3,31,998,-14,0,-2
4637,4,30,999,-13,1,-3
4638,5,31,999,-14,1,-3
4639,5,32,997,-14,1,-4
4640,5,30,998,-14,0,-3
4641,4,31,1000,-15,1,-3
4642,4,29,999,-13,1,-3
4643,7,30,999,-14,0,-3
4644,4,32,998,-16,1,-2
4645,6,30,999,-14,0,-3
4646,6,31,998,-14,1,-2
4647,6,31,998,-14,1,-3
4648,5,32,998,-15,1,-3
4649,4,31,999,-15,0,-3
4650,7,31,999,-12,0,-2
4651,5,32,1000,-15,1,-2
4652,4,31,999,-15,1,-3
4653,4,31,999,-15,0,-3
4654,4,32,998,-14,1,-3
4655,4,31,999,-13,1,-2
4656,5,31,997,-14,1,-3
4657,3,33,998,-13,1,-2
4658,4,30,999,-14,0,-2
4659,5,30,999,-14,1,-3
4660,3,31,997,-14,1,-3
4661,5,30,997,-14,0,-2
4662,5,29,997,-13,0,-3
4663,5,31,998,-14,1,-3
4664,6,32,998,-14,1,-3
4665,5,29,998,-16,0,-3
4666,5,31,998,-16,2,-3
4667,5,30,999,-14,1,-3
4668,4,31,999,-16,1,-3
4669,5,30,999,-14,1,-3
4670,3,30,998,-15,0,-3
4671,4,29,998,-14,1,-3
4672,5,30,999,-12,0,-4
4673,5,31,998,-14,1,-3
4674,4,30,998,-14,1,-3
4675,4,29,998,-14,2,-3
4676,4,30,997,-15,1,-3
4677,4,31,998,-14,2,-3
4678,5,32,998,-15,1,-2
4679,6,29,999,-14,0,-4
4680,4,32,998,-14,1,-3
4681,3,30,998,-14,1,-3
4682,4,31,999,-14,1,-3
4683,5,30,998,-14,1,-4
4684,6,32,997,-15,1,-4
4685,7,31,999,-15,0,-4
4686,5,31,997,-15,0,-3
4687,7,29,999,-15,1,-3
4688,6,30,998,-16,1,-3
4689,5,31,999,-16,1,-3
4690,4,31,997,-14,0,-3
4691,5,31,997,-14,0,-3
4692,4,30,999,-15,1,-3
4693,5,31,998,-13,1,-3
4694,4,32,997,-14,1,-3
4695,4,29,999,-14,0,-3
4696,3,30,998,-15,1,-4
4697,4,29,996,-14,0,-4
4698,5,31,997,-13,0,-4
4699,3,31,998,-14,0,-4
4700,5,30,998,-15,1,-3
4701,3,32,999,-14,1,-3
4702,5,31,998,-15,1,-2
4703,4,32,997,-15,0,-3
4704,4,31,998,-16,-1,-3
4705,4,32,998,-14,1,-3
4706,4,30,997,-13,2,-3
4707,4,31,998,-14,1,-2
4708,5,30,998,-15,0,-3
4709,5,30,999,-14,2,-3
4710,5,31,999,-13,2,-3
4711,5,31,998,-14,1,-3
4712,6,31,999,-15,1,-4
4713,4,31,998,-15,0,-3
4714,6,30,998,-14,0,-4
4715,3,28,1000,-15,0,-4
4716,5,31,999,-14,1,-3
4717,5,31,998,-15,1,-3
4718,6,30,997,-14,1,-3
4719,4,31,998,-15,0,-3
4720,5,32,997,-13,1,-2
4721,4,31,999,-15,1,-3
4722,6,31,998,-14,1,-4
4723,5,30,998,-15,1,-4
4724,5,30,998,-15,1,-3
4725,5,30,998,-12,1,-3
4726,4,30,1000,-10,0,-4
4727,5,31,997,-22,2,-1
4728,5,31,998,-11,0,-2
4729,4,30,998,-15,0,-4
4730,4,31,999,-11,0,-4
4731,3,31,997,-16,0,-4
4732,3,31,999,-13,1,-3
4733,5,30,998,-15,1,-4
4734,4,30,998,-14,1,-3
4735,5,32,998,-12,1,-3
4736,3,32,998,-15,1,-3
4737,4,30,997,-15,1,-3
4738,3,31,998,-14,1,-2
4739,4,31,999,-14,1,-4
4740,4,29,997,-12,0,-4
4741,5,30,998,-14,1,-4
4742,5,30,997,-16,1,-4
4743,6,30,998,-15,1,-3
4744,2,31,998,-14,1,-3
4745,2,32,998,-14,1,-2
4746,5,31,997,-13,2,-4
4747,4,31,999,-15,1,-3
4748,6,29,999,-14,1,-4
4749,5,31,999,-13,1,-3
4750,3,31,998,-15,1,-3
4751,5,30,999,-13,1,-2
4752,5,28,998,-15,1,-3
4753,3,33,999,-14,1,-4
4754,6,31,998,-15,0,-3
4755,4,30,998,-14,0,-4
4756,4,30,999,-14,0,-3
4757,4,29,996,-15,0,-4
4758,5,30,998,-16,1,-3
4759,3,30,997,-14,1,-4
4760,3,30,1000,-13,0,-4
4761,4,31,997,-13,0,-3
4762,4,30,998,-14,1,-2
4763,4,31,998,-13,0,-3
4764,5,31,996,-13,0,-3
4765,6,32,998,-15,1,-4
4766,6,31,999,-13,1,-3
4767,6,31,999,-13,2,-4
4768,5,31,998,-15,1,-2
4769,4,32,997,-14,1,-2
4770,4,32,999,-15,1,-3
4771,5,32,998,-14,1,-3
4772,5,30,996,-15,2,-3
4773,6,31,998,-16,1,-3
4774,3,31,997,-14,0,-3
4775,4,31,998,-13,0,-3
4776,5,31,999,-15,1,-2
4777,5,32,998,-14,1,-3
4778,5,30,999,-14,0,-3
4779,5,31,999,-14,0,-3
4780,4,30,999,-15,0,-3
4781,5,28,999,-15,2,-3
4782,5,30,999,-15,1,-3
4783,5,30,999,-14,0,-4
4784,4,32,997,-14,0,-3
4785,3,29,998,-15,1,-3
4786,4,31,998,-13,1,-3
4787,4,31,999,-13,0,-4
4788,4,29,1000,-14,1,-3
4789,5,30,999,-16,2,-2
4790,5,31,1001,-15,1,-3
4791,4,30,999,-15,1,-2
4792,4,30,999,-15,0,-2
4793,3,30,998,-13,1,-3
4794,4,31,999,-14,1,-2
4795,4,31,997,-12,2,-3
4796,5,31,998,-15,1,-3
4797,4,29,999,-14,1,-3
4798,3,28,999,-15,1,-3
4799,5,30,998,-14,2,-4
4800,6,31,997,-14,1,-5
4801,7,31,998,-15,1,-3
4802,6,31,999,-14,2,-3
4803,5,30,999,-15,2,-3
4804,5,30,998,-14,1,-3
4805,5,31,997,-15,1,-4
4806,4,30,997,-13,1,-3
4807,6,31,998,-12,1,-4
4808,5,32,996,-14,0,-2
4809,5,30,997,-13,1,-4
4810,5,32,999,-12,0,-4
4811,5,32,998,-13,0,-4
4812,4,31,998,-14,1,-3
4813,3,32,1000,-13,1,-3
4814,4,30,997,-15,1,-3
4815,4,30,999,-14,0,-5
4816,4,31,999,-13,0,-3
4817,5,30,999,-15,1,-2
4818,2,31,999,-14,1,-2
4819,3,31,999,-13,1,-2
4820,5,31,998,-15,1,-3
4821,3,31,998,-12,0,-4
4822,5,30,998,-14,1,-3
4823,4,31,1000,-15,1,-2
4824,4,31,998,-14,1,-3
4825,4,29,998,-13,0,-3
4826,5,32,998,-15,1,-3
4827,5,31,998,-15,1,-3
4828,4,31,999,-15,1,-3
4829,5,30,998,-13,1,-3
4830,4,30,998,-15,1,-3
4831,6,32,999,-14,1,-3
4832,4,30,998,-14,1,-2
4833,6,32,996,-14,2,-2
4834,5,31,998,-15,1,-4
4835,5,30,997,-14,1,-3
4836,6,31,998,-14,1,-3
4837,5,31,998,-15,1,-3
4838,4,31,998,-16,1,-4
4839,4,29,999,-13,1,-3
4840,6,30,999,-14,1,-3
4841,6,31,999,-15,0,-4
4842,6,32,997,-17,1,-3
4843,5,32,998,-16,1,-3
4844,5,29,998,-14,1,-4
4845,5,30,998,-14,1,-4
4846,5,31,998,-17,0,-2
4847,5,30,999,-16,0,-2
4848,5,30,997,-13,0,-3
4849,6,30,998,-13,1,-3
4850,6,30,998,-13,0,-3
4851,3,30,1000,-14,1,-3
4852,3,29,1000,-14,1,-3
4853,3,31,999,-13,1,-3
4854,5,31,999,-13,2,-3
4855,4,31,999,-13,1,-3
4856,5,30,998,-13,0,-3
4857,6,31,999,-13,2,-3
4858,5,32,999,-15,2,-2
4859,3,31,999,-16,1,-2
4860,3,31,1000,-14,1,-4
4861,3,32,999,-14,0,-4
4862,5,31,997,-14,0,-3
4863,5,30,999,-13,1,-3
4864,3,31,998,-14,1,-3
4865,4,30,998,-14,1,-4
4866,5,31,999,-14,1,-4
4867,5,29,998,-14,1,-3
4868,3,31,996,-15,1,-3
4869,3,30,999,-16,1,-3
4870,5,33,997,-14,2,-3
4871,4,31,997,-15,2,-2
4872,5,31,999,-14,0,-4
4873,6,29,998,-15,2,-3
4874,6,30,998,-15,3,-3
4875,5,29,998,-14,1,-3
4876,3,32,997,-14,1,-3
4877,5,31,996,-14,1,-4
4878,7,29,998,-14,2,-3
4879,5,29,998,-15,1,-3
4880,3,32,999,-14,0,-3
4881,3,31,999,-14,1,-3
4882,7,29,999,-14,2,-3
4883,4,31,999,-14,0,-3
4884,4,30,998,-13,1,-3
4885,6,32,997,-14,2,-3
4886,5,30,998,-14,2,-3
4887,4,29,998,-13,1,-3
4888,3,30,999,-14,0,-4
4889,4,31,999,-14,1,-3
4890,6,30,999,-13,1,-3
4891,5,31,999,-14,1,-3
4892,3,30,999,-13,0,-3
4893,5,30,997,-14,0,-3
4894,5,31,1000,-14,0,-4
4895,4,30,997,-13,1,-4
4896,4,31,998,-15,2,-3
4897,4,30,997,-14,1,-3
4898,3,31,999,-13,1,-3
4899,4,29,998,-15,0,-4
4900,4,31,997,-16,1,-3
4901,3,33,999,-15,1,-3
4902,5,32,999,-14,0,-4
4903,5,30,999,-14,1,-3
4904,4,30,999,-16,0,-3
4905,4,30,999,-14,1,-3
4906,3,31,999,-15,2,-4
4907,4,31,998,-14,0,-4
4908,5,30,999,-13,0,-3
4909,4,31,999,-15,0,-2
4910,4,29,998,-14,1,-3
4911,6,29,998,-14,1,-3
4912,5,31,999,-14,2,-3
4913,5,31,997,-16,2,-3
4914,6,32,998,-13,1,-3
4915,6,30,997,-13,2,-3
4916,4,31,997,-15,0,-2
4917,4,31,998,-13,2,-4
4918,4,31,999,-14,-1,-2
4919,5,31,998,-13,1,-4
4920,5,31,998,-14,1,-4
4921,5,30,997,-16,1,-3
4922,4,32,998,-11,0,-4
4923,4,29,998,-13,1,-3
4924,3,30,996,-14,0,-3
4925,5,31,997,-14,0,-4
4926,5,32,999,-13,0,-4
4927,4,32,997,-14,0,-3
4928,3,29,998,-14,1,-4
4929,4,30,998,-14,1,-4
4930,5,30,998,-12,2,-4
4931,5,32,998,-16,1,-2
4932,4,30,998,-14,0,-3
4933,3,29,999,-15,1,-4
4934,4,32,1000,-15,2,-3
4935,3,31,998,-15,1,-4
4936,4,31,997,-14,2,-3
4937,4,30,999,-13,2,-4
4938,5,31,999,-15,1,-3
4939,3,32,998,-15,1,-3
4940,4,30,998,-14,2,-4
4941,4,29,999,-16,2,-4
4942,4,30,998,-15,1,-4
4943,5,29,996,-13,2,-4
4944,3,31,999,-15,1,-2
4945,3,31,1000,-14,1,-2
4946,6,31,998,-14,0,-3
4947,6,31,997,-15,1,-2
4948,4,31,998,-13,1,-2
4949,2,30,999,-16,1,-3
4950,4,30,999,-13,0,-4
4951,4,29,999,-15,0,-3
4952,2,30,998,-13,1,-2
4953,3,31,997,-15,-1,-4
4954,7,31,997,-13,1,-3
4955,4,30,999,-14,0,-3
4956,6,30,999,-15,0,-3
4957,5,31,998,-14,0,-2
4958,4,31,998,-15,1,-4
4959,4,31,998,-14,0,-4
4960,5,31,998,-15,1,-3
4961,5,31,999,-15,1,-3
4962,6,31,999,-15,0,-2
4963,6,33,998,-15,1,-3
4964,5,32,998,-15,1,-3
4965,6,31,998,-12,1,-3
4966,4,30,1000,-14,1,-4
4967,5,31,998,-14,1,-3
4968,5,30,999,-15,1,-4
4969,6,31,999,-13,2,-3
4970,5,33,998,-14,1,-2
4971,4,31,998,-13,0,-4
4972,3,30,998,-13,2,-3
4973,5,31,997,-15,1,-3
4974,5,31,998,-15,1,-4
4975,3,30,999,-13,1,-3
4976,2,29,998,-13,0,-3
4977,3,28,998,-12,0,-3
4978,5,30,998,-13,1,-4
4979,5,30,997,-14,1,-4
4980,5,30,997,-15,0,-4
4981,6,30,999,-15,0,-3
4982,6,30,998,-16,1,-3
4983,2,31,997,-14,1,-4
4984,4,30,998,-14,0,-2
4985,4,30,998,-14,2,-2
4986,4,29,999,-15,2,-4
4987,5,29,998,-14,1,-2
4988,5,31,999,-12,2,-3
4989,6,30,998,-14,1,-3
4990,4,31,998,-15,1,-2
4991,5,29,999,-15,-1,-3
4992,4,31,999,-14,0,-3
4993,5,31,997,-14,1,-2
4994,6,30,998,-17,1,-3
4995,6,30,999,-13,1,-3
4996,4,30,999,-14,1,-3
4997,4,30,999,-13,1,-3
4998,4,31,999,-15,0,-4
4999,4,31,1000,-16,0,-3
5000,3,31,999,-15,1,-3
5001,4,31,998,-14,1,-2
5002,6,30,1000,-14,0,-2
5003,4,29,999,-15,1,-2
5004,3,30,997,-12,1,-3
5005,3,31,998,-12,0,-2
5006,3,32,998,-14,0,-2
5007,4,30,998,-15,1,-2
5008,5,30,997,-15,1,-4
5009,3,30,996,-14,1,-4
5010,4,31,999,-15,1,-3
5011,4,32,997,-14,1,-3
5012,3,31,998,-15,1,-3
5013,4,29,999,-14,1,-2
5014,4,30,997,-15,0,-4
5015,4,29,998,-13,0,-3
5016,4,29,999,-15,0,-4
5017,4,30,999,-15,2,-4
5018,3,30,999,-14,2,-3
5019,4,30,998,-15,1,-3
5020,6,30,999,-14,2,-3
5021,4,29,997,-14,1,-2
5022,4,31,998,-13,1,-3
5023,5,33,998,-14,0,-4
5024,6,32,996,-14,0,-3
5025,4,32,998,-14,0,-2
5026,5,32,998,-16,1,-3
5027,4,30,998,-16,1,-4
5028,7,31,998,-14,1,-3
5029,5,30,997,-15,1,-3
5030,3,30,999,-14,2,-3
5031,5,31,997,-15,1,-3
5032,5,30,999,-14,2,-4
5033,4,33,999,-14,0,-3
5034,4,31,998,-13,0,-3
5035,4,31,999,-16,1,-4
5036,4,32,999,-13,1,-4
5037,4,30,998,-14,0,-4
5038,6,30,998,-15,0,-4
5039,4,28,998,-13,-1,-5
5040,4,30,998,-14,1,-3
5041,4,31,998,-14,1,-3
5042,6,32,998,-14,1,-2
5043,5,32,997,-15,3,-4
5044,4,29,999,-15,2,-4
5045,4,31,998,-13,1,-3
5046,2,30,999,-15,1,-2
5047,4,31,999,-14,2,-2
5048,3,30,999,-14,1,-2
5049,4,30,999,-15,1,-3
5050,5,30,998,-12,0,-3
5051,3,30,999,-15,1,-4
5052,4,31,999,-15,2,-4
5053,4,29,997,-15,0,-4
5054,4,31,997,-16,1,-3
5055,5,31,997,-15,1,-4
5056,3,29,997,-14,0,-4
5057,3,32,998,-15,0,-5
5058,6,30,999,-15,1,-3
5059,3,31,1000,-15,1,-3
5060,2,29,999,-12,0,-3
5061,5,30,999,-20,1,-2
5062,5,30,998,-15,0,-4
5063,4,30,997,-15,1,-3
5064,4,32,998,-14,1,-3
5065,5,32,999,-14,0,-3
5066,5,31,999,-14,0,-3
5067,5,31,999,-14,0,-3
5068,4,31,996,-13,1,-3
5069,4,30,999,-16,1,-4
5070,4,30,999,-15,2,-3
5071,4,30,997,-14,0,-4
5072,5,30,998,-13,0,-4
5073,4,29,997,-12,0,-4
5074,4,29,997,-14,1,-3
5075,2,28,997,-14,2,-3
5076,3,29,998,-13,1,-3
5077,6,30,999,-13,1,-2
5078,5,30,996,-15,0,-2
5079,4,29,997,-14,1,-2
5080,4,29,999,-13,1,-3
5081,4,30,998,-14,1,-3
5082,5,29,998,-15,1,-2
5083,5,28,999,-13,0,-3
5084,4,29,998,-12,2,-3
5085,5,29,998,-15,0,-3
5086,4,31,999,-16,-1,-4
5087,5,31,998,-13,0,-4
5088,6,32,999,-14,1,-3
5089,5,31,998,-16,1,-2
5090,6,31,998,-14,1,-3
5091,4,31,998,-15,1,-4
5092,5,33,1000,-14,1,-2
5093,6,32,998,-14,0,-2
5094,6,32,997,-16,0,-4
5095,6,31,1000,-13,-1,-3
5096,7,31,999,-15,1,-3
5097,4,32,998,-15,1,-3
5098,6,31,999,-13,2,-3
5099,7,32,998,-14,1,-3
5100,4,31,999,-15,0,-3
5101,4,31,998,-13,1,-3
5102,4,29,997,-13,1,-3
5103,2,32,998,-13,1,-3
5104,2,31,997,-15,1,-3
5105,3,32,999,-15,2,-3
5106,5,31,999,-14,1,-4
5107,4,31,998,-14,2,-3
5108,4,30,998,-16,2,-4
5109,4,31,998,-13,2,-4
5110,3,30,998,-14,1,-4
5111,5,29,998,-13,2,-4
5112,4,30,997,-14,1,-3
5113,5,28,998,-14,0,-3
5114,2,30,998,-14,1,-2
5115,5,30,997,-14,1,-3
5116,2,28,998,-13,2,-4
5117,4,30,998,-13,0,-2
5118,4,30,999,-15,0,-3
5119,5,32,998,-14,0,-4
5120,6,32,999,-13,1,-3
5121,6,30,999,-14,2,-3
5122,7,30,999,-14,1,-4
5123,7,31,999,-12,1,-4
5124,6,30,998,-14,1,-3
5125,7,31,997,-13,0,-4
5126,6,30,997,-14,0,-3
5127,7,29,997,-13,0,-4
5128,6,30,997,-13,0,-3
5129,8,30,998,-14,1,-3
5130,5,31,998,-16,0,-4
5131,7,30,998,-14,0,-3
5132,5,32,997,-13,1,-3
5133,5,32,997,-14,1,-3
5134,5,33,997,-15,1,-3
5135,5,33,997,-15,1,-3
5136,5,31,996,-14,2,-4
5137,4,30,997,-14,0,-4
5138,5,27,998,-15,1,-3
5139,5,32,999,-14,3,-3
5140,5,30,998,-14,2,-2
5141,4,29,998,-14,2,-2
5142,4,31,999,-15,3,-3
5143,3,30,998,-14,1,-3
5144,2,30,998,-15,2,-3
5145,3,31,998,-14,1,-2
5146,4,29,998,-13,1,-2
5147,4,29,1000,-13,1,-3
5148,3,29,998,-14,0,-3
5149,2,30,998,-14,1,-3
5150,4,31,998,-15,2,-3
5151,4,31,997,-14,1,-2
5152,5,31,999,-14,1,-4
5153,4,31,999,-12,2,-3
5154,4,31,997,-15,1,-3
5155,5,31,999,-15,0,-3
5156,4,31,998,-14,0,-3
5157,6,31,999,-13,1,-3
5158,5,31,998,-14,2,-3
5159,5,32,998,-14,2,-3
5160,5,32,998,-15,2,-2
5161,5,31,999,-14,1,-3
5162,5,32,997,-14,1,-2
5163,7,30,998,-14,1,-3
5164,4,29,998,-14,0,-3
5165,6,31,999,-14,1,-2
5166,6,30,999,-14,0,-2
5167,4,30,996,-14,1,-2
5168,4,30,998,-13,1,-3
5169,5,28,999,-15,1,-4
5170,6,30,1000,-15,1,-3
5171,6,31,999,-14,2,-3
5172,5,30,999,-16,2,-3
5173,3,30,1000,-14,0,-4
5174,5,32,998,-14,-1,-4
5175,2,28,998,-15,0,-3
5176,5,31,999,-14,0,-3
5177,4,30,998,-14,2,-2
5178,5,31,998,-14,2,-3
5179,4,31,998,-14,0,-3
5180,5,30,998,-14,1,-4
5181,4,31,999,-13,0,-3
5182,6,32,998,-16,0,-3
5183,6,31,998,-13,1,-4
5184,4,29,999,-13,1,-3
5185,3,31,998,-14,2,-3
5186,3,32,999,-12,1,-3
5187,4,33,998,-13,0,-3
5188,5,31,998,-16,1,-2
5189,3,30,999,-14,1,-2
5190,4,29,999,-13,0,-3
5191,4,30,998,-13,0,-2
5192,5,30,998,-15,0,-2
5193,6,31,998,-14,0,-3
5194,7,30,996,-14,0,-2
5195,6,31,997,-14,0,-3
5196,4,31,998,-13,1,-3
5197,6,30,998,-14,0,-4
5198,6,30,998,-14,0,-3
5199,5,30,997,-14,0,-3
5200,4,30,999,-14,1,-2
5201,5,30,998,-12,1,-4
5202,4,30,998,-15,1,-3
5203,6,30,999,-14,1,-4
5204,5,32,998,-14,1,-2
5205,4,30,998,-15,1,-3
5206,5,29,998,-14,1,-4
5207,5,31,998,-16,0,-3
5208,7,30,999,-12,1,-3
5209,5,28,998,-14,1,-3
5210,6,29,999,-14,0,-3
5211,3,30,998,-13,0,-3
5212,5,31,999,-14,1,-3
5213,4,31,997,-15,1,-2
5214,5,32,997,-14,0,-2
5215,5,31,999,-14,1,-3
5216,5,31,1000,-13,1,-4
5217,5,29,998,-15,1,-3
5218,6,31,998,-14,3,-4
5219,5,28,999,-15,1,-3
5220,4,29,998,-14,1,-3
5221,4,30,998,-14,1,-4
5222,4,28,998,-15,0,-3
5223,4,29,998,-13,0,-4
5224,3,31,999,-13,0,-3
5225,4,30,998,-14,1,-3
5226,5,29,997,-15,1,-2
5227,5,31,998,-15,1,-4
5228,3,29,999,-14,2,-2
5229,2,31,999,-15,2,-4
5230,2,32,999,-13,0,-3
5231,4,30,998,-16,1,-3
5232,4,32,998,-14,0,-3
5233,5,30,1000,-13,1,-4
5234,5,32,998,-13,1,-3
5235,4,30,999,-15,1,-3
5236,4,31,998,-15,1,-3
5237,5,29,998,-14,1,-3
5238,6,30,998,-13,2,-2
5239,3,29,999,-14,1,-3
5240,5,32,1000,-13,1,-3
5241,6,32,998,-13,1,-2
5242,5,31,998,-14,1,-4
