sequence,AccelerometerX,AccelerometerY,AccelerometerZ,GyroscopeX,GyroscopeY,GyroscopeZ
0,-7,-19,998,-11,1,-7
1,-7,-19,997,-15,1,-6
2,-7,-19,999,-10,0,-7
3,-6,-19,999,-16,2,-6
4,-6,-20,997,-15,1,-5
5,-8,-20,997,-17,4,-5
6,-7,-19,997,-18,2,-6
7,-8,-20,996,-8,3,-6
8,-8,-18,999,-9,-2,-6
9,-9,-20,998,-15,1,-5
10,-7,-18,998,-13,0,-6
11,-6,-18,997,-14,1,-6
12,-7,-20,998,-15,2,-6
13,-8,-18,998,-14,1,-7
14,-7,-21,996,-15,0,-7
15,-6,-19,998,-14,0,-6
16,-6,-19,998,-13,1,-7
17,-7,-20,997,-13,2,-5
18,-9,-21,999,-14,2,-6
19,-9,-19,998,-14,1,-6
20,-9,-19,998,-14,1,-6
21,-8,-19,999,-14,1,-6
22,-7,-21,998,-13,1,-6
23,-6,-19,998,-13,2,-6
24,-6,-19,998,-14,0,-7
25,-8,-18,998,-15,1,-7
26,-6,-18,999,-13,1,-6
27,-7,-19,999,-15,0,-5
28,-8,-20,998,-14,0,-6
29,-8,-20,999,-13,1,-5
30,-7,-20,998,-14,1,-6
31,-6,-19,998,-13,1,-6
32,-7,-18,997,-14,0,-5
33,-6,-18,998,-13,0,-6
34,-8,-19,998,-13,0,-6
35,-6,-21,999,-14,1,-6
36,-6,-20,998,-14,1,-5
37,-6,-20,998,-15,0,-6
38,-6,-18,997,-13,1,-7
39,-6,-18,996,-14,1,-5
40,-9,-18,998,-13,1,-6
41,-7,-18,996,-14,1,-7
42,-6,-19,1000,-13,1,-7
43,-6,-18,998,-14,0,-7
44,-7,-18,999,-13,0,-7
45,-7,-19,997,-13,1,-5
46,-8,-19,999,-15,1,-6
47,-7,-19,998,-14,2,-6
48,-8,-20,998,-14,1,-7
49,-8,-20,998,-14,2,-7
50,-6,-18,997,-14,2,-5
51,-7,-18,998,-13,2,-6
52,-6,-20,998,-13,1,-5
53,-8,-20,997,-12,1,-6
54,-7,-19,997,-14,2,-6
55,-6,-19,998,-13,2,-6
56,-5,-20,999,-13,2,-5
57,-7,-20,998,-13,1,-5
58,-7,-20,997,-14,2,-6
59,-8,-17,998,-14,2,-6
60,-6,-18,998,-14,1,-5
61,-6,-20,997,-14,2,-5
62,-8,-19,998,-13,1,-5
63,-6,-20,998,-14,1,-7
64,-5,-18,999,-15,1,-6
65,-6,-19,998,-14,1,-7
66,-6,-18,997,-14,2,-7
67,-6,-18,996,-14,2,-7
68,-8,-20,997,-14,0,-6
69,-8,-18,999,-13,0,-6
70,-7,-18,998,-14,1,-6
71,-5,-19,997,-15,0,-6
72,-7,-19,998,-14,1,-6
73,-8,-19,998,-14,0,-7
74,-7,-19,999,-12,0,-6
75,-7,-19,997,-13,0,-6
76,-8,-20,999,-15,1,-6
77,-6,-19,997,-13,0,-5
78,-8,-19,999,-14,1,-6
79,-7,-19,999,-14,2,-6
80,-7,-19,999,-14,0,-6
81,-6,-20,998,-15,0,-5
82,-6,-19,998,-13,0,-7
83,-6,-18,997,-14,1,-6
84,-8,-20,997,-14,1,-5
85,-11,-19,998,-13,1,-6
86,-9,-19,997,-15,0,-5
87,-7,-20,997,-14,0,-5
88,-7,-19,997,-14,1,-6
89,-6,-18,998,-15,0,-6
90,-9,-17,998,-13,0,-6
91,-8,-18,999,-14,1,-6
92,-9,-20,998,-14,2,-6
93,-6,-18,997,-14,1,-6
94,-8,-19,997,-13,-1,-6
95,-7,-19,997,-12,0,-7
96,-7,-20,996,-13,1,-5
97,-7,-19,999,-13,0,-5
98,-8,-20,998,-14,0,-5
99,-7,-19,998,-14,1,-6
100,-8,-20,997,-14,1,-6
101,-8,-19,999,-14,0,-7
102,-6,-18,998,-13,0,-7
103,-6,-19,997,-14,0,-6
104,-7,-19,998,-14,0,-7
105,-8,-20,1000,-14,1,-6
106,-8,-19,997,-14,2,-5
107,-7,-21,998,-16,1,-7
108,-6,-19,998,-13,1,-6
109,-8,-19,998,-15,0,-7
110,-5,-19,997,-14,0,-7
111,-7,-19,996,-14,1,-7
112,-8,-20,998,-12,1,-7
113,-7,-20,997,-12,2,-6
114,-7,-17,997,-13,-1,-7
115,-8,-18,997,-14,0,-6
116,-7,-19,997,-14,1,-6
117,-8,-19,998,-14,1,-5
118,-7,-20,997,-14,2,-5
119,-8,-17,997,-15,1,-5
120,-9,-19,999,-15,0,-6
121,-9,-18,998,-14,1,-7
122,-6,-18,999,-15,1,-6
123,-7,-18,998,-14,2,-7
124,-7,-19,998,-12,1,-7
125,-7,-19,998,-12,0,-7
126,-9,-19,999,-13,1,-7
127,-7,-19,998,-13,1,-6
128,-7,-20,999,-16,1,-5
129,-7,-19,997,-14,1,-7
130,-8,-20,996,-14,0,-7
131,-6,-21,998,-13,1,-6
132,-8,-21,997,-13,0,-7
133,-9,-18,997,-13,1,-6
134,-7,-19,999,-14,0,-6
135,-5,-20,998,-13,0,-6
136,-5,-20,998,-14,1,-6
137,-5,-20,997,-13,1,-6
138,-8,-22,999,-13,1,-6
139,-7,-19,998,-14,1,-5
140,-7,-19,999,-14,-1,-6
141,-6,-20,998,-13,1,-6
142,-7,-18,997,-15,2,-5
143,-7,-18,996,-14,3,-6
144,-7,-20,998,-14,1,-6
145,-9,-21,997,-14,0,-6
146,-7,-19,997,-14,0,-5
147,-6,-20,998,-14,1,-6
148,-5,-18,999,-14,0,-5
149,-6,-19,998,-13,2,-6
150,-7,-19,996,-14,1,-6
151,-8,-18,997,-14,1,-7
152,-8,-19,998,-15,1,-7
153,-6,-20,998,-13,1,-6
154,-5,-18,998,-14,0,-7
155,-7,-18,998,-14,2,-7
156,-7,-19,996,-14,3,-6
157,-7,-19,999,-15,1,-6
158,-7,-19,999,-13,1,-6
159,-7,-18,998,-13,1,-6
160,-7,-19,998,-14,1,-5
161,-8,-19,997,-14,1,-5
162,-7,-18,998,-12,2,-6
163,-7,-19,998,-14,2,-6
164,-7,-18,997,-14,1,-6
165,-5,-18,997,-13,0,-5
166,-8,-20,1000,-13,1,-7
167,-8,-18,997,-13,1,-5
168,-5,-18,998,-12,1,-5
169,-7,-18,997,-12,1,-6
170,-8,-17,998,-14,0,-6
171,-5,-20,998,-14,1,-7
172,-8,-19,998,-14,2,-5
173,-7,-18,997,-15,0,-7
174,-7,-19,998,-14,0,-7
175,-8,-20,998,-13,0,-5
176,-7,-19,998,-13,2,-6
177,-9,-19,998,-14,0,-6
178,-7,-19,998,-14,0,-7
179,-7,-21,999,-14,1,-7
180,-7,-18,998,-14,1,-7
181,-7,-19,999,-14,0,-6
182,-7,-20,998,-13,1,-5
183,-8,-18,998,-13,1,-7
184,-9,-19,998,-15,1,-7
185,-8,-21,997,-14,1,-6
186,-9,-19,998,-14,1,-6
187,-8,-18,997,-13,1,-5
188,-10,-19,998,-13,1,-6
189,-7,-19,997,-13,0,-5
190,-7,-20,997,-14,1,-6
191,-7,-19,998,-14,1,-7
192,-8,-20,999,-14,2,-7
193,-6,-20,996,-13,1,-7
194,-7,-20,997,-13,0,-6
195,-7,-19,997,-14,2,-5
196,-9,-20,998,-13,0,-6
197,-8,-20,997,-14,1,-6
198,-9,-18,997,-13,2,-6
199,-7,-20,998,-14,1,-7
200,-5,-20,997,-13,1,-6
201,-7,-19,997,-13,1,-6
202,-9,-20,996,-14,1,-5
203,-6,-20,997,-14,1,-5
204,-8,-18,998,-13,1,-6
205,-7,-18,999,-14,1,-7
206,-9,-18,999,-14,1,-6
207,-7,-18,999,-14,0,-5
208,-6,-19,999,-15,0,-6
209,-4,-19,996,-13,2,-6
210,-8,-20,998,-13,1,-6
211,-6,-18,998,-13,0,-6
212,-9,-19,998,-13,0,-6
213,-9,-18,998,-14,1,-7
214,-7,-19,998,-14,2,-6
215,-7,-21,998,-13,1,-7
216,-5,-20,998,-14,1,-7
217,-6,-20,998,-12,1,-6
218,-8,-19,997,-13,1,-6
219,-6,-20,998,-12,1,-5
220,-7,-19,998,-13,1,-5
221,-9,-21,998,-14,1,-7
222,-7,-19,998,-13,2,-6
223,-7,-19,997,-14,1,-6
224,-7,-18,998,-13,1,-6
225,-8,-19,998,-13,1,-7
226,-7,-22,996,-14,1,-7
227,-5,-18,997,-14,1,-6
228,-7,-19,998,-13,1,-7
229,-8,-18,998,-14,1,-5
230,-8,-19,998,-13,1,-6
231,-9,-19,996,-15,1,-5
232,-5,-22,997,-13,0,-7
233,-5,-20,997,-13,0,-6
234,-7,-19,998,-14,1,-6
235,-8,-19,999,-13,2,-7
236,-6,-21,996,-13,1,-7
237,-6,-19,996,-14,1,-7
238,-6,-18,997,-14,1,-7
239,-6,-19,999,-14,1,-7
240,-7,-19,997,-14,0,-6
241,-7,-19,997,-15,1,-6
242,-8,-19,998,-15,1,-6
243,-8,-17,997,-13,1,-7
244,-7,-20,998,-14,0,-5
245,-9,-18,999,-13,2,-6
246,-7,-20,998,-14,1,-6
247,-6,-20,997,-13,0,-7
248,-6,-19,998,-13,1,-6
249,-7,-20,997,-13,2,-6
250,-7,-20,998,-13,1,-7
251,-7,-19,997,-14,0,-6
252,-8,-21,999,-13,0,-6
253,-6,-19,997,-15,1,-6
254,-5,-19,998,-15,2,-6
255,-6,-20,997,-14,0,-6
256,-8,-19,998,-14,1,-7
257,-8,-18,997,-14,-1,-7
258,-6,-20,998,-14,1,-6
259,-7,-19,997,-13,1,-6
260,-8,-20,999,-13,1,-5
261,-8,-19,998,-12,1,-5
262,-10,-18,999,-12,2,-5
263,-8,-18,998,-14,1,-7
264,-9,-19,999,-12,1,-7
265,-8,-18,998,-13,0,-5
266,-8,-20,998,-13,2,-6
267,-7,-19,998,-13,1,-7
268,-6,-19,999,-13,1,-7
269,-8,-20,998,-13,1,-6
270,-8,-19,998,-15,0,-6
271,-8,-20,997,-13,0,-6
272,-7,-19,998,-13,1,-6
273,-6,-21,997,-13,1,-6
274,-6,-18,996,-14,2,-5
275,-7,-20,996,-14,1,-7
276,-9,-17,996,-14,2,-6
277,-9,-19,998,-15,1,-5
278,-5,-20,997,-14,3,-6
279,-6,-19,999,-13,2,-6
280,-8,-18,997,-13,1,-6
281,-7,-19,998,-14,0,-6
282,-8,-17,998,-11,1,-6
283,-7,-20,999,-14,0,-5
284,-8,-18,998,-13,0,-6
285,-7,-19,999,-14,1,-6
286,-9,-19,998,-14,1,-7
287,-8,-20,998,-14,2,-6
288,-6,-19,999,-14,1,-5
289,-7,-19,997,-14,1,-6
290,-7,-17,997,-14,1,-7
291,-6,-19,997,-15,2,-7
292,-8,-20,998,-13,1,-6
293,-9,-20,998,-14,1,-5
294,-7,-17,998,-15,1,-6
295,-8,-19,997,-14,1,-5
296,-7,-18,997,-13,2,-6
297,-5,-19,998,-14,1,-6
298,-6,-17,998,-12,1,-6
299,-7,-20,998,-15,2,-6
300,-9,-18,998,-13,1,-7
301,-8,-20,998,-14,0,-6
302,-9,-19,998,-14,1,-6
303,-7,-19,998,-14,2,-7
304,-7,-19,998,-14,0,-6
305,-5,-19,998,-13,2,-6
306,-7,-19,998,-12,1,-7
307,-7,-19,998,-13,2,-6
308,-6,-19,998,-13,0,-6
309,-6,-20,997,-14,0,-6
310,-7,-17,998,-14,1,-6
311,-6,-20,998,-14,1,-6
312,-4,-19,999,-13,1,-6
313,-5,-19,997,-12,2,-5
314,-7,-19,998,-13,1,-6
315,-8,-19,997,-14,1,-6
316,-7,-19,998,-15,1,-7
317,-4,-21,998,-14,0,-6
318,-6,-19,999,-13,2,-7
319,-7,-21,998,-13,0,-7
320,-7,-20,999,-13,0,-6
321,-8,-19,998,-13,1,-6
322,-7,-18,999,-13,2,-6
323,-7,-20,998,-13,1,-6
324,-8,-20,996,-15,-1,-6
325,-6,-20,997,-13,2,-6
326,-6,-19,997,-14,1,-6
327,-8,-21,998,-14,1,-5
328,-7,-20,998,-14,1,-7
329,-8,-18,998,-14,2,-6
330,-8,-19,997,-14,1,-7
331,-6,-18,996,-14,1,-7
332,-7,-19,998,-13,2,-5
333,-8,-18,997,-12,2,-6
334,-6,-20,998,-12,2,-5
335,-6,-18,997,-15,2,-6
336,-8,-20,998,-14,1,-6
337,-8,-20,998,-13,2,-6
338,-7,-20,997,-13,2,-7
339,-6,-20,997,-15,1,-7
340,-6,-19,996,-13,1,-6
341,-8,-19,997,-14,1,-5
342,-7,-19,998,-13,1,-7
343,-7,-20,995,-13,1,-7
344,-8,-19,998,-12,4,-7
345,-7,-16,995,-12,1,-7
346,-6,-19,999,-13,1,-5
347,-7,-18,996,-14,0,-6
348,-5,-16,1000,-14,1,-7
349,-8,-17,998,-14,1,-5
350,-6,-17,999,-13,0,-6
351,-6,-19,1001,-15,0,-6
352,-6,-19,996,-14,0,-6
353,-5,-20,1000,-15,0,-6
354,-7,-19,996,-14,2,-6
355,-6,-21,1000,-14,1,-6
356,-7,-19,998,-14,1,-7
357,-7,-19,997,-14,1,-7
358,-7,-19,999,-14,1,-5
359,-6,-19,996,-13,2,-6
360,-7,-20,1000,-14,1,-5
361,-7,-19,996,-14,1,-5
362,-7,-20,999,-14,1,-5
363,-7,-21,997,-16,1,-6
364,-9,-20,996,-15,0,-6
365,-6,-18,997,-15,1,-7
366,-7,-19,997,-14,0,-6
367,-7,-18,996,-15,1,-5
368,-6,-19,996,-15,0,-6
369,-7,-19,995,-14,-1,-6
370,-6,-21,997,-15,-1,-7
371,-6,-20,995,-15,-1,-5
372,-7,-20,997,-14,0,-6
373,-5,-18,995,-14,0,-6
374,-7,-21,999,-15,1,-6
375,-9,-17,995,-15,1,-6
376,-8,-18,998,-14,0,-6
377,-7,-18,999,-14,1,-6
378,-6,-18,997,-14,2,-6
379,-7,-20,999,-15,2,-6
380,-7,-18,997,-14,1,-6
381,-7,-17,996,-14,1,-5
382,-8,-18,999,-15,1,-5
383,-7,-20,999,-14,0,-6
384,-6,-18,998,-13,1,-6
385,-6,-18,999,-15,1,-7
386,-5,-20,999,-15,0,-6
387,-6,-20,997,-15,0,-7
388,-4,-20,997,-15,0,-6
389,-7,-20,998,-15,0,-6
390,-8,-18,999,-14,0,-7
391,-6,-20,999,-13,0,-6
392,-5,-18,997,-14,1,-6
393,-6,-20,995,-14,1,-5
394,-7,-18,997,-14,0,-6
395,-7,-19,996,-15,1,-6
396,-9,-20,998,-14,1,-6
397,-7,-19,998,-14,1,-6
398,-7,-18,998,-14,1,-5
399,-6,-17,996,-15,1,-6
400,-6,-19,998,-15,0,-6
401,-9,-18,997,-13,0,-7
402,-9,-21,999,-13,1,-5
403,-8,-19,998,-14,0,-6
404,-9,-20,996,-14,1,-7
405,-8,-20,998,-15,0,-6
406,-5,-19,998,-13,0,-5
407,-8,-19,997,-15,1,-6
408,-7,-20,999,-14,2,-6
409,-8,-19,998,-14,1,-5
410,-5,-20,998,-12,0,-6
411,-6,-19,998,-14,2,-7
412,-8,-19,999,-13,1,-6
413,-7,-18,998,-14,1,-6
414,-6,-19,999,-14,1,-6
415,-7,-19,1000,-14,2,-5
416,-8,-19,998,-15,0,-5
417,-7,-19,999,-15,0,-6
418,-7,-20,997,-13,0,-6
419,-7,-19,997,-13,1,-6
420,-7,-19,998,-14,1,-6
421,-7,-20,996,-14,1,-6
422,-7,-20,998,-15,2,-6
423,-7,-19,997,-14,2,-5
424,-8,-21,996,-14,0,-6
425,-8,-21,997,-14,1,-7
426,-7,-19,997,-13,2,-6
427,-7,-20,998,-14,0,-6
428,-7,-20,996,-13,0,-6
429,-9,-19,997,-13,3,-7
430,-7,-19,998,-14,2,-7
431,-6,-18,998,-12,1,-7
432,-7,-20,998,-14,2,-6
433,-5,-20,998,-13,2,-6
434,-6,-19,998,-14,2,-7
435,-6,-20,996,-14,1,-6
436,-7,-20,998,-14,2,-6
437,-6,-20,998,-13,1,-6
438,-8,-20,999,-14,1,-6
439,-7,-20,997,-14,1,-6
440,-6,-18,999,-14,1,-6
441,-7,-17,998,-14,0,-6
442,-7,-18,997,-14,1,-6
443,-6,-20,997,-14,1,-6
444,-6,-17,997,-14,1,-7
445,-7,-18,997,-14,1,-6
446,-8,-21,998,-15,1,-5
447,-6,-20,999,-15,1,-5
448,-6,-19,997,-13,0,-6
449,-3,-17,1000,-15,0,-6
450,-6,-18,997,-15,0,-6
451,-7,-19,998,-14,0,-5
452,-7,-19,996,-14,1,-6
453,-7,-18,998,-14,1,-6
454,-9,-20,996,-14,1,-6
455,-8,-19,997,-13,0,-5
456,-8,-18,998,-14,1,-7
457,-9,-19,997,-14,2,-5
458,-8,-19,997,-14,1,-7
459,-8,-21,998,-15,1,-6
460,-9,-19,997,-14,1,-6
461,-8,-17,998,-15,0,-6
462,-7,-18,998,-14,0,-5
463,-7,-17,998,-15,2,-7
464,-7,-19,997,-15,1,-5
465,-8,-20,999,-14,2,-6
466,-8,-19,997,-14,2,-5
467,-7,-21,998,-13,2,-6
468,-7,-21,999,-13,1,-6
469,-7,-20,998,-13,1,-6
470,-6,-19,999,-14,2,-6
471,-7,-20,999,-14,1,-6
472,-6,-21,998,-14,0,-7
473,-6,-19,999,-11,2,-7
474,-6,-20,998,-14,2,-6
475,-7,-20,997,-13,1,-7
476,-9,-21,999,-13,1,-6
477,-7,-20,999,-14,1,-6
478,-6,-18,997,-15,2,-6
479,-6,-18,998,-16,0,-5
480,-7,-19,997,-14,2,-6
481,-8,-18,997,-14,3,-6
482,-8,-18,997,-15,1,-6
483,-6,-19,998,-13,1,-5
484,-7,-20,998,-14,0,-6
485,-9,-19,997,-14,1,-6
486,-6,-18,996,-13,0,-6
487,-9,-19,998,-14,1,-6
488,-8,-19,996,-14,1,-6
489,-10,-18,997,-15,0,-7
490,-9,-18,996,-13,1,-6
491,-8,-19,996,-15,2,-5
492,-8,-18,997,-14,1,-5
493,-6,-17,998,-14,1,-6
494,-9,-18,997,-14,-1,-6
495,-8,-19,996,-14,2,-7
496,-8,-19,999,-14,1,-5
497,-8,-19,997,-14,0,-5
498,-8,-20,996,-15,-1,-6
499,-6,-20,999,-15,0,-7
500,-7,-18,995,-14,1,-6
501,-8,-17,999,-15,1,-5
502,-7,-17,998,-14,0,-5
503,-7,-18,998,-14,0,-6
504,-7,-18,1000,-15,-1,-6
505,-5,-15,999,-15,0,-6
506,-5,-19,999,-16,0,-5
507,-6,-18,999,-15,0,-7
508,-7,-20,999,-16,0,-7
509,-6,-20,1000,-16,0,-5
510,-6,-19,999,-16,-1,-5
511,-5,-19,1001,-16,-1,-6
512,-7,-19,997,-16,-1,-6
513,-4,-20,999,-14,0,-6
514,-6,-18,998,-14,0,-5
515,-7,-21,997,-15,0,-6
516,-6,-21,998,-14,1,-6
517,-7,-22,997,-15,2,-6
518,-8,-21,996,-15,1,-6
519,-11,-21,995,-16,1,-6
520,-10,-20,996,-14,1,-7
521,-9,-20,995,-14,2,-5
522,-8,-22,996,-15,0,-5
523,-8,-20,996,-13,1,-6
524,-7,-20,994,-13,0,-5
525,-10,-20,997,-13,0,-5
526,-10,-19,995,-12,1,-7
527,-10,-19,998,-12,1,-7
528,-9,-19,997,-14,1,-7
529,-8,-17,999,-14,1,-5
530,-6,-20,997,-14,1,-6
531,-6,-20,998,-14,1,-6
532,-5,-21,997,-12,2,-7
533,-7,-20,999,-14,2,-6
534,-7,-19,999,-14,1,-6
535,-7,-19,998,-13,0,-6
536,-6,-20,1000,-14,1,-6
537,-8,-19,999,-14,0,-5
538,-6,-21,998,-15,0,-6
539,-6,-22,999,-13,2,-7
540,-9,-21,998,-14,1,-6
541,-6,-20,998,-14,1,-6
542,-6,-19,999,-16,0,-6
543,-7,-17,996,-15,0,-5
544,-7,-19,998,-13,1,-5
545,-8,-19,998,-14,0,-7
546,-6,-17,998,-15,1,-6
547,-7,-19,998,-13,1,-6
548,-9,-18,996,-14,1,-5
549,-9,-19,996,-16,0,-4
550,-8,-18,998,-14,-1,-6
551,-8,-18,997,-14,0,-7
552,-9,-19,996,-15,0,-7
553,-10,-18,998,-15,1,-6
554,-9,-18,997,-15,0,-7
555,-7,-17,996,-16,0,-7
556,-6,-19,998,-15,1,-5
557,-7,-20,999,-14,1,-6
558,-7,-18,1000,-15,1,-6
559,-6,-19,998,-15,0,-6
560,-8,-19,999,-15,-1,-7
561,-9,-20,999,-15,-1,-6
562,-6,-18,997,-15,1,-7
563,-4,-20,999,-14,1,-6
564,-5,-21,998,-15,1,-6
565,-5,-20,997,-14,1,-7
566,-7,-20,997,-15,0,-7
567,-6,-20,997,-15,1,-6
568,-6,-20,997,-14,1,-5
569,-6,-19,997,-15,0,-6
570,-4,-19,997,-15,1,-6
571,-7,-19,996,-16,0,-6
572,-7,-20,996,-15,0,-7
573,-7,-21,995,-14,1,-6
574,-7,-20,997,-15,2,-6
575,-7,-20,995,-14,1,-6
576,-8,-20,994,-13,1,-6
577,-7,-19,996,-13,1,-6
578,-8,-21,998,-14,2,-5
579,-6,-20,996,-14,1,-6
580,-8,-19,997,-13,1,-6
581,-10,-19,997,-12,1,-6
582,-8,-19,998,-13,1,-5
583,-8,-20,997,-13,2,-6
584,-7,-19,998,-13,1,-7
585,-6,-18,999,-12,1,-6
586,-6,-19,1001,-13,1,-6
587,-6,-20,999,-13,0,-7
588,-6,-21,998,-14,2,-6
589,-7,-20,999,-13,1,-6
590,-6,-21,998,-13,1,-5
591,-5,-21,998,-12,1,-6
592,-5,-19,999,-14,1,-6
593,-7,-20,999,-12,2,-6
594,-6,-19,998,-13,1,-6
595,-7,-19,997,-12,2,-5
596,-8,-19,998,-12,2,-5
597,-7,-18,997,-12,2,-6
598,-7,-17,998,-13,2,-6
599,-5,-17,998,-12,1,-5
600,-9,-18,999,-12,1,-7
601,-8,-18,997,-13,2,-7
602,-7,-16,998,-14,2,-5
603,-9,-15,996,-14,1,-5
604,-8,-15,999,-12,0,-6
605,-8,-16,999,-14,0,-7
606,-6,-18,997,-17,0,-6
607,-8,-17,998,-14,0,-6
608,-8,-18,997,-13,2,-6
609,-8,-19,998,-15,1,-7
610,-5,-18,999,-14,1,-6
611,-6,-19,998,-14,0,-7
612,-5,-21,997,-14,-1,-6
613,-5,-19,997,-15,0,-5
614,-5,-21,998,-14,1,-7
615,-5,-19,999,-13,1,-6
616,-5,-20,998,-15,1,-5
617,-7,-20,998,-15,1,-6
618,-5,-21,999,-14,0,-7
619,-7,-21,997,-15,0,-7
620,-5,-19,998,-13,1,-6
621,-8,-20,997,-14,1,-6
622,-8,-21,997,-15,2,-7
623,-5,-20,998,-13,1,-7
624,-6,-19,998,-13,0,-6
625,-6,-20,998,-14,1,-6
626,-7,-20,996,-15,2,-6
627,-7,-19,997,-14,2,-6
628,-8,-19,998,-13,2,-6
629,-8,-21,997,-13,1,-8
630,-7,-19,996,-12,2,-6
631,-9,-19,995,-14,0,-6
632,-7,-19,998,-14,0,-5
633,-5,-20,997,-13,2,-6
634,-7,-22,998,-13,2,-6
635,-7,-21,999,-12,1,-7
636,-7,-19,997,-13,1,-7
637,-10,-18,997,-11,1,-7
638,-9,-20,999,-12,2,-6
639,-8,-19,999,-14,1,-7
640,-7,-18,999,-13,2,-6
641,-8,-17,999,-12,3,-7
642,-7,-17,998,-13,2,-6
643,-7,-20,997,-12,1,-7
644,-7,-20,998,-12,1,-5
645,-4,-18,999,-14,2,-6
646,-8,-16,998,-14,1,-6
647,-7,-17,997,-14,2,-5
648,-7,-19,998,-13,3,-6
649,-7,-18,997,-14,2,-6
650,-7,-20,996,-14,1,-6
651,-9,-20,999,-14,1,-7
652,-6,-19,998,-14,2,-5
653,-6,-18,999,-12,1,-6
654,-6,-19,998,-15,1,-6
655,-9,-18,996,-13,0,-6
656,-8,-20,998,-13,0,-5
657,-5,-18,997,-13,1,-6
658,-7,-18,999,-14,0,-6
659,-8,-19,997,-15,0,-7
660,-6,-19,997,-15,1,-6
661,-9,-20,999,-15,1,-6
662,-8,-17,999,-12,1,-6
663,-7,-18,997,-14,0,-6
664,-7,-18,998,-13,-1,-6
665,-7,-20,998,-13,1,-7
666,-7,-19,999,-15,1,-6
667,-6,-21,996,-14,1,-6
668,-6,-22,996,-14,0,-6
669,-8,-21,998,-14,0,-6
670,-5,-21,998,-14,0,-7
671,-4,-19,997,-14,2,-5
672,-6,-18,996,-14,2,-5
673,-5,-19,995,-15,0,-6
674,-7,-19,998,-14,2,-6
675,-5,-20,998,-15,2,-5
676,-7,-21,997,-14,1,-5
677,-8,-18,997,-14,2,-7
678,-9,-20,998,-13,2,-6
679,-7,-19,997,-7,5,-6
680,-7,-18,999,-11,2,-6
681,-8,-17,997,-13,1,-7
682,-6,-20,996,-13,1,-6
683,-9,-18,998,-13,1,-4
684,-7,-20,997,-12,0,-5
685,-6,-19,998,-14,1,-5
686,-7,-19,997,-13,1,-6
687,-8,-20,997,-14,1,-6
688,-7,-19,998,-13,1,-6
689,-6,-20,999,-15,2,-5
690,-7,-20,997,-14,2,-5
691,-9,-19,998,-14,1,-6
692,-8,-20,997,-13,0,-7
693,-7,-19,998,-14,1,-5
694,-7,-17,997,-13,1,-6
695,-7,-18,998,-13,1,-6
696,-7,-18,998,-14,0,-7
697,-8,-18,996,-13,1,-7
698,-6,-18,997,-14,1,-5
699,-7,-18,998,-14,3,-5
700,-7,-20,998,-12,1,-6
701,-9,-19,998,-14,1,-6
702,-7,-19,997,-12,2,-6
703,-6,-19,998,-14,2,-6
704,-8,-20,997,-15,1,-6
705,-8,-18,997,-14,0,-7
706,-7,-19,997,-13,0,-6
707,-9,-19,997,-14,2,-7
708,-9,-19,998,-14,1,-6
709,-7,-19,996,-14,1,-6
710,-7,-18,997,-12,1,-7
711,-8,-18,997,-12,1,-6
712,-7,-19,998,-13,-1,-6
713,-8,-20,996,-13,1,-7
714,-9,-18,998,-12,1,-6
715,-5,-18,998,-14,2,-8
716,-7,-18,998,-12,1,-7
717,-7,-18,998,-14,1,-6
718,-6,-20,998,-13,1,-6
719,-8,-20,999,-14,2,-7
720,-8,-19,997,-14,1,-5
721,-7,-19,999,-13,0,-7
722,-7,-19,997,-13,1,-6
723,-7,-20,1000,-13,0,-6
724,-7,-20,999,-13,1,-7
725,-6,-18,998,-14,2,-5
726,-8,-19,998,-13,0,-6
727,-7,-19,998,-14,0,-6
728,-6,-20,999,-13,1,-6
729,-7,-20,997,-13,2,-5
730,-6,-20,998,-14,1,-6
731,-6,-18,998,-13,0,-6
732,-7,-20,997,-14,2,-6
733,-5,-19,997,-14,1,-6
734,-6,-18,998,-11,-1,-7
735,-8,-18,998,-13,1,-6
736,-9,-18,998,-15,4,-6
737,-8,-18,998,-14,2,-7
738,-8,-19,997,-14,1,-5
739,-7,-19,997,-13,1,-5
740,-8,-18,998,-13,2,-5
741,-9,-18,999,-14,2,-6
742,-8,-18,999,-12,1,-6
743,-10,-19,999,-13,1,-5
744,-7,-18,999,-14,1,-6
745,-8,-17,999,-14,1,-7
746,-7,-17,997,-14,0,-6
747,-7,-17,998,-14,1,-7
748,-7,-19,997,-14,2,-6
749,-10,-19,998,-14,1,-6
750,-9,-21,997,-14,2,-6
751,-8,-18,997,-13,1,-7
752,-10,-17,997,-14,0,-6
753,-8,-18,996,-15,0,-6
754,-6,-18,998,-14,1,-6
755,-5,-19,998,-14,2,-5
756,-6,-20,998,-12,0,-6
757,-5,-20,998,-14,0,-6
758,-7,-20,998,-15,0,-6
759,-8,-18,998,-14,1,-7
760,-8,-19,996,-14,3,-6
761,-8,-19,998,-14,0,-6
762,-9,-21,997,-13,1,-5
763,-8,-20,996,-15,1,-6
764,-6,-22,998,-13,1,-5
765,-7,-20,997,-13,1,-6
766,-6,-18,999,-13,0,-6
767,-8,-19,997,-13,0,-6
768,-6,-19,998,-14,1,-6
769,-7,-19,998,-14,2,-6
770,-7,-19,997,-13,2,-5
771,-6,-19,998,-14,0,-5
772,-7,-19,997,-14,1,-6
773,-6,-21,998,-14,0,-6
774,-8,-20,998,-13,0,-7
775,-5,-19,996,-14,2,-6
776,-5,-18,998,-13,1,-6
777,-6,-19,998,-13,1,-5
778,-4,-20,997,-15,1,-6
779,-7,-17,998,-12,1,-6
780,-6,-20,998,-14,0,-6
781,-7,-20,999,-14,1,-6
782,-7,-20,997,-14,1,-6
783,-8,-20,998,-15,1,-5
784,-8,-18,997,-13,0,-5
785,-8,-19,998,-14,1,-6
786,-7,-19,997,-13,1,-5
787,-7,-21,998,-14,1,-5
788,-8,-18,997,-14,1,-5
789,-7,-18,997,-15,1,-7
790,-6,-17,996,-14,2,-7
791,-8,-18,996,-14,2,-6
792,-7,-19,996,-14,2,-5
793,-7,-19,997,-12,1,-6
794,-7,-20,998,-15,1,-6
795,-10,-19,999,-14,-1,-5
796,-8,-19,997,-14,-1,-5
797,-8,-20,996,-13,1,-5
798,-7,-20,996,-14,1,-6
799,-7,-19,997,-15,2,-6
800,-5,-19,996,-14,2,-6
801,-8,-18,997,-14,1,-6
802,-8,-19,998,-14,0,-7
803,-9,-19,996,-13,1,-6
804,-7,-19,998,-13,0,-6
805,-6,-20,996,-13,1,-5
806,-7,-20,996,-13,1,-5
807,-7,-20,997,-13,1,-6
808,-8,-20,998,-13,0,-7
809,-7,-20,998,-14,1,-6
810,-8,-20,996,-14,0,-6
811,-7,-20,999,-13,1,-6
812,-8,-18,998,-13,2,-5
813,-6,-19,998,-14,2,-5
814,-7,-17,997,-14,1,-5
815,-8,-18,998,-13,2,-6
816,-8,-18,996,-13,1,-6
817,-7,-19,998,-15,1,-6
818,-7,-19,997,-15,2,-7
819,-7,-18,998,-14,0,-7
820,-8,-19,995,-13,1,-6
821,-7,-21,998,-13,1,-6
822,-5,-20,996,-14,2,-6
823,-5,-19,999,-14,0,-5
824,-7,-20,998,-14,0,-6
825,-5,-19,998,-14,2,-6
826,-6,-17,998,-16,1,-6
827,-7,-18,997,-14,1,-6
828,-8,-18,997,-14,1,-5
829,-4,-18,998,-14,2,-7
830,-5,-18,998,-15,2,-5
831,-7,-20,998,-13,1,-5
832,-7,-19,998,-13,0,-5
833,-6,-19,997,-14,1,-6
834,-6,-18,998,-14,2,-6
835,-7,-19,998,-14,1,-6
836,-9,-18,997,-15,1,-6
837,-8,-19,999,-13,2,-6
838,-7,-20,996,-15,1,-6
839,-10,-19,998,-15,1,-5
840,-8,-19,995,-14,1,-5
841,-9,-18,998,-15,1,-6
842,-5,-20,999,-13,2,-6
843,-8,-19,998,-13,0,-6
844,-6,-22,998,-13,1,-6
845,-8,-19,997,-13,1,-6
846,-6,-19,998,-13,0,-5
847,-7,-19,997,-15,1,-5
848,-8,-22,998,-14,1,-6
849,-6,-19,996,-14,1,-6
850,-7,-19,998,-14,1,-6
851,-8,-20,998,-15,1,-5
852,-8,-20,997,-14,1,-7
853,-6,-19,999,-14,2,-7
854,-6,-19,996,-15,1,-7
855,-7,-19,997,-13,1,-6
856,-5,-19,998,-13,1,-6
857,-6,-19,996,-14,0,-7
858,-8,-18,998,-14,2,-5
859,-8,-18,998,-14,2,-6
860,-8,-19,997,-13,1,-6
861,-8,-18,997,-13,1,-6
862,-5,-18,998,-13,1,-5
863,-9,-19,998,-14,1,-6
864,-7,-18,998,-14,2,-7
865,-8,-20,998,-13,2,-6
866,-7,-20,999,-13,0,-6
867,-7,-19,997,-14,1,-7
868,-6,-20,998,-13,0,-6
869,-7,-19,997,-12,1,-6
870,-9,-18,998,-14,2,-6
871,-8,-18,999,-14,0,-6
872,-7,-19,999,-14,0,-6
873,-6,-19,999,-13,1,-7
874,-8,-17,998,-14,1,-5
875,-7,-20,998,-15,1,-6
876,-7,-20,997,-14,1,-6
877,-5,-18,999,-14,1,-6
878,-7,-20,999,-16,2,-6
879,-7,-19,996,-14,1,-6
880,-8,-19,997,-13,1,-5
881,-9,-19,998,-14,1,-7
882,-6,-19,999,-14,1,-7
883,-6,-18,997,-14,1,-6
884,-7,-18,998,-14,0,-6
885,-7,-19,997,-15,1,-6
886,-7,-21,997,-15,0,-5
887,-7,-19,998,-13,0,-6
888,-8,-19,997,-15,1,-6
889,-8,-20,999,-14,0,-6
890,-8,-20,997,-14,1,-5
891,-7,-19,997,-15,2,-5
892,-8,-19,998,-14,1,-5
893,-8,-18,995,-15,1,-6
894,-6,-18,997,-14,1,-6
895,-8,-17,997,-14,1,-5
896,-6,-19,997,-15,1,-6
897,-9,-20,998,-15,1,-5
898,-8,-20,997,-15,0,-6
899,-6,-21,997,-15,1,-6
900,-9,-19,997,-13,1,-7
901,-6,-17,998,-14,1,-5
902,-8,-17,997,-15,0,-5
903,-6,-19,998,-13,0,-6
904,-7,-21,997,-13,1,-6
905,-7,-20,997,-14,1,-6
906,-6,-20,997,-13,1,-7
907,-4,-19,998,-14,0,-6
908,-8,-19,998,-14,0,-5
909,-7,-20,998,-14,0,-6
910,-7,-19,999,-13,1,-6
911,-9,-19,998,-14,1,-5
912,-7,-19,997,-14,1,-6
913,-9,-18,996,-13,1,-6
914,-7,-19,999,-13,0,-6
915,-6,-19,996,-13,0,-7
916,-6,-20,998,-13,1,-7
917,-6,-20,998,-15,0,-7
918,-5,-20,998,-13,1,-6
919,-5,-19,997,-13,0,-6
920,-7,-18,998,-15,0,-6
921,-6,-18,999,-15,1,-6
922,-7,-19,1000,-14,1,-6
923,-9,-20,1000,-14,1,-7
924,-7,-19,997,-13,1,-6
925,-6,-19,998,-14,0,-6
926,-8,-20,998,-14,2,-5
927,-8,-19,998,-15,2,-5
928,-8,-20,998,-15,2,-5
929,-8,-19,996,-13,0,-6
930,-9,-19,999,-14,1,-6
931,-7,-18,998,-14,1,-6
932,-7,-20,998,-13,-1,-5
933,-6,-19,997,-14,0,-5
934,-8,-20,998,-13,1,-7
935,-7,-19,998,-14,1,-6
936,-8,-19,999,-13,1,-7
937,-6,-19,998,-13,1,-6
938,-7,-19,998,-14,1,-6
939,-7,-19,997,-15,1,-7
940,-7,-20,997,-15,0,-6
941,-8,-20,996,-14,1,-5
942,-4,-21,998,-14,1,-5
943,-5,-22,999,-14,1,-6
944,-6,-21,997,-14,1,-7
945,-8,-20,998,-14,0,-6
946,-6,-19,998,-14,0,-6
947,-8,-19,998,-14,0,-6
948,-7,-20,998,-14,1,-5
949,-6,-19,998,-14,1,-6
950,-6,-20,997,-16,1,-6
951,-7,-18,996,-13,1,-7
952,-6,-20,997,-14,2,-6
953,-9,-19,997,-14,1,-6
954,-7,-20,996,-14,2,-6
955,-8,-19,998,-15,1,-7
956,-7,-19,999,-12,0,-7
957,-8,-17,996,-13,1,-6
958,-9,-18,1000,-13,-1,-6
959,-6,-16,998,-14,1,-7
960,-7,-19,999,-16,2,-7
961,-7,-17,999,-14,0,-6
962,-8,-19,997,-14,0,-6
963,-8,-21,997,-15,0,-7
964,-6,-21,996,-13,1,-7
965,-6,-20,997,-12,0,-7
966,-8,-19,998,-14,1,-6
967,-8,-18,996,-14,2,-6
968,-7,-17,999,-13,1,-6
969,-8,-19,997,-14,0,-7
970,-6,-20,998,-15,1,-7
971,-7,-20,998,-14,2,-6
972,-6,-19,996,-11,1,-6
973,-8,-19,998,-14,1,-5
974,-7,-18,998,-14,0,-5
975,-6,-19,999,-15,1,-6
976,-8,-21,996,-15,0,-6
977,-9,-19,999,-14,0,-7
978,-7,-16,998,-14,1,-6
979,-8,-18,999,-13,1,-7
980,-7,-18,997,-15,0,-6
981,-9,-19,998,-15,0,-5
982,-8,-18,998,-14,1,-6
983,-8,-19,999,-15,1,-6
984,-7,-18,997,-13,1,-6
985,-9,-18,999,-14,0,-6
986,-5,-21,997,-14,1,-6
987,-7,-20,997,-14,0,-6
988,-6,-18,997,-13,1,-5
989,-7,-20,999,-15,1,-5
990,-8,-21,997,-14,0,-7
991,-6,-20,998,-12,0,-6
992,-7,-19,997,-13,0,-6
993,-7,-18,997,-13,1,-5
994,-7,-19,997,-14,1,-7
995,-9,-19,998,-13,1,-5
996,-6,-18,998,-14,1,-6
997,-8,-19,998,-14,1,-6
998,-6,-19,998,-13,1,-5
999,-6,-19,998,-13,1,-5
1000,-7,-19,997,-15,1,-7
1001,-8,-19,998,-13,1,-6
1002,-7,-18,998,-16,0,-6
1003,-7,-20,997,-14,0,-6
1004,-6,-18,998,-13,2,-6
1005,-7,-18,998,-14,2,-7
1006,-7,-19,997,-14,2,-6
1007,-7,-21,995,-14,1,-6
1008,-9,-17,997,-14,1,-6
1009,-8,-20,998,-14,0,-5
1010,-9,-19,998,-15,0,-6
1011,-9,-19,998,-14,-1,-6
1012,-9,-19,998,-12,2,-6
1013,-9,-20,997,-14,2,-6
1014,-8,-20,996,-14,2,-8
1015,-6,-20,998,-13,1,-7
1016,-7,-17,997,-14,1,-6
1017,-7,-19,998,-11,-1,-7
1018,-7,-18,998,-15,2,-5
1019,-6,-18,999,-13,1,-7
1020,-8,-18,997,-13,1,-6
1021,-8,-20,999,-16,1,-6
1022,-9,-19,997,-14,2,-6
1023,-7,-19,1000,-14,0,-5
1024,-6,-18,997,-15,0,-6
1025,-7,-20,998,-13,0,-4
1026,-7,-19,998,-14,1,-6
1027,-8,-20,997,-14,0,-6
1028,-9,-19,998,-13,2,-5
1029,-7,-20,998,-14,1,-5
1030,-8,-18,998,-14,1,-6
1031,-8,-18,999,-14,1,-6
1032,-7,-19,998,-14,0,-7
1033,-6,-20,999,-13,1,-6
1034,-6,-19,999,-13,1,-7
1035,-6,-18,998,-14,0,-5
1036,-8,-19,997,-14,2,-5
1037,-6,-19,998,-13,1,-5
1038,-5,-19,997,-14,1,-6
1039,-8,-18,998,-14,1,-6
1040,-8,-20,998,-14,1,-6
1041,-8,-19,998,-14,0,-6
1042,-7,-20,998,-14,0,-5
1043,-8,-20,997,-15,1,-5
1044,-6,-20,999,-14,1,-6
1045,-8,-19,996,-14,2,-6
1046,-8,-19,996,-15,1,-6
1047,-8,-17,997,-13,1,-6
1048,-7,-18,996,-15,1,-6
1049,-6,-20,997,-15,-1,-7
1050,-7,-19,998,-15,1,-6
1051,-6,-18,997,-15,0,-5
1052,-8,-20,998,-14,1,-6
1053,-7,-20,998,-14,0,-6
1054,-7,-18,998,-14,0,-7
1055,-7,-19,999,-14,0,-7
1056,-7,-20,998,-15,1,-6
1057,-7,-19,999,-14,2,-6
1058,-6,-18,997,-14,1,-6
1059,-7,-19,998,-14,2,-6
1060,-7,-18,999,-13,0,-5
1061,-7,-19,998,-15,0,-5
1062,-7,-20,998,-15,0,-7
1063,-7,-20,998,-14,1,-6
1064,-7,-19,998,-14,2,-5
1065,-9,-19,997,-14,2,-5
1066,-6,-21,997,-14,1,-5
1067,-7,-17,998,-13,1,-7
1068,-9,-18,999,-14,1,-6
1069,-8,-18,997,-14,0,-6
1070,-6,-19,997,-14,2,-5
1071,-7,-19,997,-14,1,-6
1072,-7,-19,996,-14,2,-6
1073,-7,-17,997,-13,1,-5
1074,-8,-18,997,-14,1,-5
1075,-8,-17,998,-14,0,-6
1076,-8,-19,998,-14,2,-6
1077,-8,-18,998,-13,1,-7
1078,-6,-19,999,-13,0,-5
1079,-6,-19,998,-13,0,-6
1080,-6,-21,999,-15,1,-7
1081,-8,-19,998,-13,2,-7
1082,-5,-19,998,-13,1,-6
1083,-9,-18,996,-14,0,-7
1084,-6,-18,999,-14,1,-6
1085,-5,-20,998,-12,2,-7
1086,-6,-20,998,-13,2,-7
1087,-6,-21,998,-13,1,-7
1088,-8,-19,998,-14,1,-5
1089,-7,-19,998,-12,1,-5
1090,-6,-18,998,-14,1,-6
1091,-6,-19,997,-14,1,-6
1092,-8,-20,998,-13,1,-7
1093,-6,-19,997,-15,1,-5
1094,-6,-18,998,-15,0,-5
1095,-8,-18,997,-13,0,-6
1096,-10,-18,998,-15,0,-6
1097,-5,-20,998,-13,1,-6
1098,-6,-21,996,-14,1,-6
1099,-7,-20,997,-14,0,-6
1100,-7,-19,995,-13,0,-7
1101,-8,-22,994,-13,2,-5
1102,-5,-25,996,-13,1,-5
1103,-5,-22,1003,-13,1,-7
1104,-10,-14,1003,-13,-1,-7
1105,-13,-7,997,-13,1,-6
1106,-12,-8,993,-15,0,-6
1107,-10,-17,996,-16,1,-7
1108,-7,-25,995,-14,0,-8
1109,-3,-27,1001,-14,1,-6
1110,-2,-27,998,-14,1,-6
1111,-5,-22,996,-13,2,-6
1112,-7,-17,1000,-12,2,-6
1113,-12,-11,999,-13,2,-5
1114,-12,-13,998,-15,2,-5
1115,-8,-17,998,-16,0,-5
1116,-4,-23,998,-14,0,-6
1117,-3,-26,996,-14,1,-5
1118,-4,-25,998,-13,1,-6
1119,-6,-19,998,-11,1,-7
1120,-9,-18,998,-14,2,-6
1121,-12,-15,997,-13,1,-5
1122,-9,-16,998,-15,0,-5
1123,-6,-18,997,-15,-1,-6
1124,-6,-21,998,-15,1,-6
1125,-6,-20,998,-13,1,-7
1126,-7,-22,999,-13,0,-6
1127,-9,-17,998,-14,2,-6
1128,-7,-16,998,-15,1,-6
1129,-8,-16,997,-15,2,-5
1130,-8,-17,999,-15,2,-6
1131,-8,-19,997,-15,1,-7
1132,-7,-22,997,-16,0,-6
1133,-7,-24,999,-15,1,-6
1134,-9,-21,998,-14,0,-6
1135,-7,-17,997,-15,0,-5
1136,-6,-18,998,-15,1,-5
1137,-5,-19,999,-15,1,-6
1138,-6,-20,997,-14,1,-6
1139,-9,-23,997,-14,1,-6
1140,-9,-21,999,-14,0,-5
1141,-7,-20,998,-13,2,-6
1142,-7,-18,999,-12,0,-5
1143,-8,-15,998,-14,2,-6
1144,-6,-17,997,-15,1,-6
1145,-6,-18,999,-15,0,-7
1146,-7,-21,998,-15,1,-6
1147,-6,-21,997,-15,2,-6
1148,-8,-23,997,-14,1,-6
1149,-7,-20,997,-12,1,-6
1150,-8,-19,996,-12,0,-6
1151,-8,-17,998,-14,1,-6
1152,-8,-16,998,-12,1,-7
1153,-6,-19,998,-14,1,-6
1154,-7,-22,997,-15,2,-5
1155,-6,-23,996,-15,2,-5
1156,-6,-24,997,-12,2,-6
1157,-9,-19,999,-13,1,-6
1158,-8,-17,998,-12,0,-6
1159,-10,-16,996,-14,0,-6
1160,-8,-18,997,-15,1,-5
1161,-6,-20,997,-14,1,-6
1162,-5,-22,998,-14,0,-6
1163,-5,-23,997,-14,0,-6
1164,-5,-22,997,-14,2,-5
1165,-8,-19,998,-13,1,-6
1166,-10,-15,999,-14,1,-6
1167,-11,-15,998,-13,1,-6
1168,-8,-16,998,-14,0,-6
1169,-6,-19,996,-15,0,-5
1170,-5,-21,997,-15,1,-4
1171,-5,-22,996,-13,2,-6
1172,-6,-23,998,-12,1,-6
1173,-7,-19,997,-13,1,-7
1174,-8,-18,998,-14,2,-7
1175,-8,-17,996,-14,0,-6
1176,-9,-18,998,-12,1,-5
1177,-10,-20,999,-13,2,-5
1178,-8,-21,997,-14,1,-6
1179,-7,-22,997,-13,1,-5
1180,-7,-20,997,-14,0,-6
1181,-8,-19,997,-12,0,-5
1182,-7,-18,996,-14,2,-5
1183,-7,-19,997,-14,2,-5
1184,-6,-20,999,-14,2,-5
1185,-6,-20,997,-14,1,-6
1186,-5,-21,998,-13,1,-6
1187,-7,-20,998,-14,1,-6
1188,-8,-18,996,-13,0,-6
1189,-8,-17,998,-12,2,-7
1190,-8,-18,998,-13,1,-5
1191,-7,-21,998,-14,1,-6
1192,-7,-22,996,-13,1,-5
1193,-6,-22,997,-14,1,-6
1194,-6,-21,996,-13,0,-7
1195,-6,-22,994,-13,1,-7
1196,-4,-23,993,-14,2,-6
1197,-4,-22,1003,-12,2,-5
1198,-8,-17,1004,-13,2,-6
1199,-11,-15,998,-13,1,-6
1200,-12,-12,996,-13,1,-6
1201,-8,-19,997,-14,1,-5
1202,-5,-22,996,-14,1,-6
1203,-4,-26,999,-14,0,-6
1204,-1,-26,997,-13,1,-7
1205,-3,-24,992,-13,3,-7
1206,-5,-19,1004,-13,3,-5
1207,-11,-13,1003,-13,3,-6
1208,-13,-8,996,-14,1,-6
1209,-10,-12,998,-14,1,-6
1210,-6,-18,996,-16,0,-5
1211,-1,-26,994,-17,0,-5
1212,-3,-27,1000,-15,0,-6
1213,-3,-26,997,-14,1,-6
1214,-8,-22,995,-11,3,-6
1215,-11,-16,998,-12,1,-5
1216,-12,-13,996,-13,1,-5
1217,-12,-13,998,-14,1,-5
1218,-6,-20,998,-15,0,-6
1219,-6,-23,997,-16,-1,-6
1220,-4,-23,996,-14,-2,-5
1221,-6,-22,997,-14,0,-6
1222,-5,-21,994,-13,2,-7
1223,-8,-19,1001,-13,2,-7
1224,-9,-16,1001,-14,1,-6
1225,-11,-14,998,-12,1,-6
1226,-10,-15,997,-13,0,-6
1227,-7,-19,998,-16,0,-6
1228,-9,-21,996,-14,0,-7
1229,-8,-24,1000,-13,0,-5
1230,-4,-21,997,-13,0,-5
1231,-7,-21,995,-14,1,-5
1232,-6,-17,998,-13,1,-7
1233,-7,-18,997,-13,2,-7
1234,-10,-17,995,-13,1,-6
1235,-11,-20,997,-15,1,-6
1236,-8,-20,996,-13,2,-6
1237,-7,-22,997,-14,2,-5
1238,-6,-19,998,-13,2,-5
1239,-7,-17,997,-13,0,-6
1240,-6,-18,1000,-13,0,-6
1241,-7,-19,999,-14,0,-7
1242,-6,-21,997,-14,1,-7
1243,-8,-23,997,-15,1,-7
1244,-8,-21,998,-14,0,-8
1245,-7,-20,998,-12,1,-6
1246,-7,-16,998,-13,2,-7
1247,-5,-18,999,-14,1,-5
1248,-5,-18,998,-15,1,-6
1249,-6,-19,998,-14,1,-7
1250,-6,-21,998,-15,1,-6
1251,-6,-21,999,-14,1,-6
1252,-7,-21,999,-13,3,-6
1253,-7,-21,997,-14,1,-6
1254,-8,-18,998,-13,0,-7
1255,-8,-18,997,-13,1,-7
1256,-5,-18,999,-15,1,-6
1257,-6,-18,997,-15,1,-6
1258,-7,-20,998,-14,1,-5
1259,-7,-22,997,-14,1,-7
1260,-6,-20,997,-13,1,-6
1261,-8,-19,997,-12,0,-5
1262,-7,-18,998,-12,2,-6
1263,-8,-18,996,-12,2,-7
1264,-7,-19,997,-14,0,-6
1265,-8,-19,997,-13,0,-5
1266,-8,-20,998,-13,1,-5
1267,-7,-19,996,-14,2,-6
1268,-8,-19,997,-12,1,-6
1269,-8,-18,999,-14,2,-5
1270,-7,-17,999,-13,2,-7
1271,-7,-18,997,-13,1,-6
1272,-8,-19,998,-15,1,-5
1273,-10,-19,999,-14,1,-6
1274,-6,-19,998,-12,1,-7
1275,-7,-18,997,-14,1,-6
1276,-7,-20,998,-13,1,-6
1277,-7,-18,998,-16,2,-6
1278,-7,-18,999,-14,1,-6
1279,-7,-18,999,-13,0,-5
1280,-9,-18,998,-14,0,-5
1281,-8,-20,999,-15,0,-5
1282,-7,-21,998,-14,0,-6
1283,-5,-20,997,-15,1,-5
1284,-7,-20,996,-14,0,-7
1285,-7,-19,998,-13,1,-6
1286,-7,-19,998,-13,0,-6
1287,-8,-18,998,-15,0,-5
1288,-7,-20,996,-14,1,-6
1289,-8,-20,997,-12,1,-6
1290,-7,-20,996,-13,2,-7
1291,-8,-20,996,-14,1,-7
1292,-9,-19,999,-14,2,-7
1293,-8,-20,997,-13,2,-5
1294,-9,-19,997,-14,2,-5
1295,-7,-20,998,-13,0,-5
1296,-7,-21,998,-13,2,-6
1297,-6,-19,998,-14,1,-6
1298,-6,-20,999,-13,1,-7
1299,-6,-17,998,-15,2,-6
1300,-7,-19,997,-14,1,-6
1301,-7,-18,997,-13,0,-6
1302,-7,-19,997,-14,0,-5
1303,-7,-19,997,-14,2,-6
1304,-6,-22,994,-13,2,-6
1305,-3,-27,990,-14,2,-7
1306,-4,-27,1005,-12,3,-6
1307,-10,-16,1011,-10,2,-6
1308,-11,-6,998,-11,2,-5
1309,-14,0,992,-14,2,-6
1310,-7,-14,997,-17,0,-7
1311,-4,-27,992,-18,-1,-7
1312,-1,-33,1003,-16,1,-7
1313,0,-30,1001,-14,-1,-7
1314,-1,-27,990,-13,1,-5
1315,-4,-17,998,-12,2,-5
1316,-12,-9,1000,-12,3,-6
1317,-17,-7,996,-15,3,-6
1318,-14,-14,1000,-16,0,-6
1319,-6,-20,999,-15,0,-6
1320,-1,-28,993,-16,1,-6
1321,-2,-26,996,-14,2,-5
1322,-5,-23,997,-12,2,-6
1323,-10,-16,994,-13,2,-6
1324,-14,-15,999,-12,2,-7
1325,-12,-13,999,-14,0,-6
1326,-10,-17,995,-15,0,-6
1327,-6,-20,998,-14,0,-7
1328,-5,-25,998,-15,-1,-6
1329,-8,-23,998,-13,1,-5
1330,-7,-19,999,-11,3,-6
1331,-8,-17,998,-13,1,-6
1332,-6,-15,999,-14,1,-6
1333,-7,-16,998,-15,0,-8
1334,-4,-20,998,-16,1,-7
1335,-5,-22,998,-16,1,-5
1336,-8,-24,998,-14,1,-7
1337,-7,-22,997,-12,1,-6
1338,-7,-19,997,-14,1,-5
1339,-7,-17,999,-14,1,-6
1340,-5,-19,998,-14,0,-6
1341,-6,-19,997,-12,0,-6
1342,-7,-22,996,-13,2,-5
1343,-8,-23,998,-14,1,-5
1344,-8,-20,997,-12,2,-5
1345,-11,-17,998,-12,1,-6
1346,-8,-16,999,-13,2,-6
1347,-7,-14,999,-13,0,-5
1348,-6,-15,996,-16,2,-5
1349,-5,-19,996,-15,1,-5
1350,-7,-23,996,-13,1,-6
1351,-8,-24,995,-14,2,-5
1352,-9,-21,997,-18,4,-5
1353,-8,-17,998,-13,1,-5
1354,-9,-16,998,-14,2,-5
1355,-7,-16,998,-14,1,-7
1356,-8,-18,997,-12,1,-6
1357,-6,-22,998,-13,0,-6
1358,-6,-24,996,-14,1,-6
1359,-7,-23,997,-15,1,-5
1360,-7,-21,998,-13,1,-5
1361,-6,-19,997,-13,2,-4
1362,-7,-17,997,-14,2,-6
1363,-5,-18,998,-14,1,-7
1364,-7,-18,998,-14,0,-6
1365,-4,-20,997,-14,0,-6
1366,-4,-20,996,-16,2,-5
1367,-8,-20,997,-13,1,-6
1368,-7,-19,998,-14,1,-6
1369,-8,-21,992,-13,0,-6
1370,-4,-25,996,-12,1,-8
1371,-8,-20,1007,-12,1,-6
1372,-8,-17,1001,-12,1,-6
1373,-10,-9,994,-13,3,-6
1374,-9,-11,997,-15,2,-6
1375,-7,-18,994,-15,1,-6
1376,-5,-25,996,-15,2,-7
1377,-3,-22,1003,-14,1,-6
1378,-2,-22,995,-12,1,-6
1379,-4,-16,996,-14,1,-6
1380,-8,-13,999,-14,2,-6
1381,-11,-12,999,-14,1,-6
1382,-9,-16,997,-16,0,-6
1383,-8,-19,1000,-16,-1,-6
1384,-5,-23,995,-16,0,-6
1385,-2,-25,997,-13,1,-5
1386,-3,-22,1000,-13,1,-5
1387,-7,-19,997,-13,2,-6
1388,-9,-16,998,-15,1,-6
1389,-9,-17,999,-14,0,-7
1390,-10,-19,997,-15,0,-6
1391,-5,-22,999,-15,1,-6
1392,-6,-21,997,-14,1,-6
1393,-8,-20,998,-13,0,-6
1394,-7,-19,997,-13,1,-6
1395,-7,-20,998,-13,1,-6
1396,-9,-18,997,-13,1,-8
1397,-8,-16,997,-14,0,-5
1398,-8,-17,997,-13,0,-5
1399,-8,-19,997,-15,-1,-6
1400,-7,-18,997,-15,1,-6
1401,-9,-21,1000,-13,0,-6
1402,-6,-18,997,-13,0,-6
1403,-7,-18,996,-12,0,-6
1404,-6,-16,998,-13,0,-6
1405,-5,-16,997,-14,1,-6
1406,-5,-19,999,-14,0,-6
1407,-9,-23,996,-15,0,-6
1408,-7,-25,993,-14,1,-6
1409,-7,-25,996,-13,0,-6
1410,-5,-23,1001,-13,0,-6
1411,-6,-18,1001,-13,0,-6
1412,-9,-13,998,-15,1,-6
1413,-7,-14,998,-14,1,-5
1414,-7,-18,997,-15,1,-6
1415,-8,-21,997,-16,0,-6
1416,-7,-23,998,-15,0,-6
1417,-7,-23,997,-14,2,-7
1418,-4,-19,998,-14,1,-7
1419,-7,-17,1000,-14,0,-5
1420,-8,-14,998,-13,1,-5
1421,-7,-18,996,-15,1,-5
1422,-8,-21,999,-14,1,-5
1423,-6,-21,999,-14,1,-6
1424,-8,-19,999,-14,-1,-6
1425,-7,-17,999,-16,1,-6
1426,-8,-15,996,-14,1,-5
1427,-7,-17,996,-15,1,-5
1428,-7,-20,999,-16,0,-6
1429,-7,-23,999,-15,2,-6
1430,-8,-22,995,-13,2,-6
1431,-8,-20,997,-15,0,-6
1432,-6,-19,998,-13,1,-5
1433,-10,-15,998,-13,1,-5
1434,-9,-17,998,-13,1,-6
1435,-9,-17,999,-14,0,-6
1436,-5,-18,996,-14,0,-6
1437,-4,-23,994,-14,0,-6
1438,-5,-22,999,-14,0,-6
1439,-6,-21,1002,-12,1,-6
1440,-11,-17,997,-12,0,-7
1441,-11,-15,998,-13,1,-6
1442,-9,-13,998,-15,2,-7
1443,-7,-18,996,-15,1,-6
1444,-3,-21,1000,-15,1,-6
1445,-4,-23,1000,-14,0,-6
1446,-5,-23,996,-14,1,-6
1447,-8,-20,996,-13,1,-5
1448,-12,-16,998,-14,2,-5
1449,-10,-15,996,-13,0,-5
1450,-7,-16,998,-15,0,-5
1451,-7,-19,997,-15,-1,-6
1452,-4,-21,996,-14,1,-6
1453,-8,-22,997,-14,2,-7
1454,-6,-20,998,-13,1,-7
1455,-8,-19,997,-13,1,-6
1456,-5,-17,997,-15,1,-6
1457,-7,-17,999,-14,1,-5
1458,-7,-19,997,-12,1,-7
1459,-8,-21,997,-13,0,-7
1460,-8,-21,998,-13,1,-5
1461,-9,-20,997,-13,1,-6
1462,-8,-19,998,-13,1,-7
1463,-8,-19,998,-13,1,-6
1464,-7,-16,998,-13,2,-6
1465,-7,-15,998,-14,0,-6
1466,-6,-17,999,-14,-1,-7
1467,-6,-21,997,-15,2,-6
1468,-7,-20,998,-14,1,-6
1469,-6,-20,998,-13,2,-6
1470,-6,-19,997,-13,0,-6
1471,-7,-18,998,-13,1,-6
1472,-7,-18,998,-13,0,-7
1473,-7,-18,998,-13,1,-6
1474,-6,-19,998,-14,2,-7
1475,-7,-20,997,-15,1,-6
1476,-8,-22,998,-14,1,-6
1477,-7,-21,998,-14,0,-6
1478,-8,-16,998,-13,1,-5
1479,-8,-17,998,-15,0,-6
1480,-7,-20,999,-16,1,-6
1481,-7,-19,998,-13,0,-7
1482,-7,-20,997,-14,1,-6
1483,-6,-20,999,-14,1,-6
1484,-5,-19,997,-14,0,-6
1485,-7,-19,998,-14,1,-7
1486,-8,-17,999,-13,1,-6
1487,-7,-17,998,-14,0,-7
1488,-5,-17,997,-15,1,-6
1489,-6,-20,995,-14,1,-7
1490,-4,-22,993,-15,2,-6
1491,-6,-24,994,-14,3,-5
1492,-7,-22,1004,-12,3,-6
1493,-10,-16,1002,-12,2,-6
1494,-11,-10,998,-13,1,-7
1495,-10,-9,999,-15,1,-8
1496,-8,-15,996,-16,0,-7
1497,-6,-21,997,-16,-1,-7
1498,-4,-25,999,-16,0,-7
1499,-1,-27,996,-15,-1,-7
1500,-4,-24,996,-13,1,-6
1501,-6,-18,998,-13,2,-6
1502,-10,-13,998,-13,3,-7
1503,-12,-13,999,-14,3,-7
1504,-8,-16,998,-15,0,-6
1505,-6,-20,998,-15,0,-5
1506,-5,-22,996,-16,1,-5
1507,-4,-23,995,-14,2,-6
1508,-7,-22,997,-12,1,-7
1509,-9,-20,999,-14,1,-6
1510,-11,-16,997,-14,2,-5
1511,-11,-18,996,-14,1,-5
1512,-10,-20,998,-14,-1,-7
1513,-7,-22,996,-13,0,-7
1514,-8,-22,996,-13,0,-7
1515,-10,-22,998,-13,0,-6
1516,-9,-18,998,-12,1,-6
1517,-11,-16,998,-14,1,-6
1518,-8,-15,1000,-14,1,-5
1519,-7,-17,998,-14,0,-7
1520,-6,-19,998,-14,1,-7
1521,-8,-20,998,-16,0,-6
1522,-5,-22,998,-15,0,-6
1523,-6,-20,998,-14,1,-7
1524,-5,-18,998,-14,1,-6
1525,-6,-19,998,-13,0,-7
1526,-5,-19,998,-14,0,-6
1527,-5,-18,999,-15,0,-7
1528,-5,-22,998,-15,2,-4
1529,-6,-21,997,-15,1,-6
1530,-7,-22,997,-14,1,-7
1531,-9,-20,998,-14,1,-6
1532,-6,-18,997,-15,1,-6
1533,-6,-17,998,-14,1,-5
1534,-7,-18,998,-15,1,-6
1535,-7,-20,997,-16,0,-6
1536,-7,-20,998,-14,1,-6
1537,-8,-18,997,-13,1,-5
1538,-9,-19,997,-13,1,-6
1539,-9,-18,998,-13,1,-5
1540,-7,-15,998,-14,1,-6
1541,-10,-16,998,-13,2,-6
1542,-8,-17,998,-14,2,-6
1543,-9,-19,998,-16,1,-5
1544,-9,-20,999,-15,1,-6
1545,-8,-19,998,-14,1,-7
1546,-8,-18,998,-14,0,-7
1547,-10,-18,997,-15,0,-7
1548,-8,-18,997,-13,1,-6
1549,-9,-18,998,-13,1,-7
1550,-5,-20,998,-11,1,-6
1551,-8,-22,998,-12,0,-6
1552,-9,-21,998,-14,1,-6
1553,-7,-21,996,-13,1,-6
1554,-3,-22,992,-14,1,-6
1555,-5,-24,1000,-13,1,-7
1556,-4,-20,1001,-12,1,-6
1557,-7,-14,1000,-13,1,-6
1558,-7,-13,996,-13,1,-6
1559,-8,-16,996,-16,1,-6
1560,-5,-20,995,-15,1,-6
1561,-7,-24,999,-13,1,-6
1562,-5,-23,999,-14,1,-7
1563,-2,-22,996,-14,1,-6
1564,-5,-18,999,-11,1,-7
1565,-11,-14,999,-10,2,-5
1566,-10,-15,998,-14,2,-6
1567,-10,-17,998,-14,1,-6
1568,-8,-19,998,-15,-1,-5
1569,-7,-21,997,-13,1,-5
1570,-3,-22,997,-13,0,-6
1571,-5,-22,998,-16,1,-6
1572,-8,-18,997,-14,1,-5
1573,-9,-18,998,-14,1,-6
1574,-10,-17,998,-14,0,-6
1575,-8,-19,996,-15,0,-6
1576,-7,-18,997,-14,0,-7
1577,-8,-19,997,-14,1,-6
1578,-7,-19,997,-12,2,-6
1579,-7,-20,998,-14,2,-7
1580,-7,-20,998,-13,1,-7
1581,-8,-18,996,-14,0,-6
1582,-10,-19,997,-14,1,-5
1583,-7,-19,998,-13,1,-7
1584,-7,-21,997,-14,2,-6
1585,-7,-21,997,-13,1,-7
1586,-6,-18,998,-14,0,-7
1587,-7,-18,999,-12,1,-6
1588,-5,-19,999,-14,-1,-6
1589,-6,-18,998,-15,0,-7
1590,-6,-19,999,-15,1,-6
1591,-8,-21,998,-14,0,-8
1592,-5,-18,997,-15,0,-6
1593,-7,-20,997,-14,-1,-6
1594,-7,-20,997,-14,1,-6
1595,-7,-20,999,-13,1,-7
1596,-9,-19,998,-13,1,-6
1597,-6,-19,999,-13,0,-6
1598,-7,-20,998,-14,0,-6
1599,-7,-18,998,-14,1,-6
1600,-8,-20,999,-15,1,-5
1601,-7,-18,999,-13,1,-6
1602,-8,-17,998,-13,1,-5
1603,-7,-17,999,-14,1,-5
1604,-9,-18,996,-12,1,-7
1605,-7,-19,996,-12,1,-7
1606,-8,-19,996,-13,1,-6
1607,-8,-20,997,-12,0,-7
1608,-7,-21,998,-14,1,-6
1609,-9,-20,997,-14,0,-6
1610,-5,-20,997,-13,2,-6
1611,-6,-21,996,-12,1,-7
1612,-6,-20,997,-12,0,-6
1613,-4,-20,999,-13,1,-6
1614,-7,-19,998,-13,2,-6
1615,-7,-20,998,-14,2,-5
1616,-8,-19,997,-13,2,-6
1617,-7,-20,998,-13,2,-6
1618,-8,-20,998,-14,2,-7
1619,-6,-20,998,-15,0,-6
1620,-8,-18,998,-14,1,-7
1621,-9,-19,997,-14,1,-6
1622,-6,-19,997,-13,0,-7
1623,-6,-20,995,-15,0,-6
1624,-6,-21,996,-13,1,-7
1625,-7,-21,1003,-13,2,-6
1626,-8,-18,1000,-13,1,-6
1627,-9,-15,997,-13,1,-6
1628,-8,-14,1000,-14,1,-6
1629,-8,-18,998,-15,1,-7
1630,-9,-21,998,-15,1,-7
1631,-4,-22,1001,-15,0,-7
1632,-7,-22,997,-13,0,-7
1633,-9,-21,995,-14,1,-7
1634,-8,-20,998,-13,1,-6
1635,-11,-18,998,-14,0,-7
1636,-7,-16,997,-15,0,-6
1637,-7,-19,999,-15,0,-7
1638,-5,-20,997,-14,1,-6
1639,-5,-22,997,-14,1,-5
1640,-7,-22,998,-13,0,-6
1641,-9,-20,997,-12,1,-6
1642,-6,-17,998,-13,2,-6
1643,-6,-17,999,-14,1,-6
1644,-6,-19,998,-15,1,-5
1645,-7,-18,996,-14,1,-5
1646,-5,-18,998,-14,2,-6
1647,-7,-20,996,-13,2,-6
1648,-8,-21,998,-13,1,-6
1649,-8,-19,998,-14,0,-6
1650,-6,-18,998,-13,-1,-7
1651,-6,-18,998,-14,0,-5
1652,-9,-19,998,-14,1,-6
1653,-7,-20,998,-15,0,-5
1654,-7,-21,998,-15,0,-7
1655,-8,-20,998,-14,1,-5
1656,-7,-19,997,-14,1,-5
1657,-5,-19,998,-15,0,-6
1658,-8,-19,999,-14,0,-6
1659,-8,-18,999,-13,1,-6
1660,-10,-19,997,-13,2,-5
1661,-9,-20,996,-14,2,-5
1662,-8,-19,998,-14,2,-6
1663,-7,-21,997,-12,1,-6
1664,-8,-19,998,-14,2,-6
1665,-7,-17,998,-12,1,-7
1666,-7,-18,996,-14,2,-6
1667,-6,-16,997,-13,0,-6
1668,-8,-18,997,-14,1,-6
1669,-6,-19,996,-14,2,-6
1670,-8,-20,999,-15,1,-6
1671,-5,-19,997,-15,1,-7
1672,-5,-18,998,-14,1,-7
1673,-5,-19,997,-13,0,-6
1674,-6,-19,998,-14,1,-6
1675,-5,-21,996,-13,1,-7
1676,-6,-20,997,-14,0,-6
1677,-5,-20,998,-13,1,-7
1678,-5,-20,998,-15,-1,-6
1679,-8,-19,999,-14,0,-6
1680,-7,-19,996,-13,0,-6
1681,-8,-19,998,-13,0,-7
1682,-7,-19,998,-13,0,-6
1683,-8,-18,998,-14,1,-6
1684,-8,-20,997,-13,2,-6
1685,-8,-17,997,-13,0,-5
1686,-8,-18,997,-14,-1,-6
1687,-7,-18,997,-14,1,-6
1688,-9,-19,997,-14,3,-5
1689,-9,-20,998,-14,1,-6
1690,-8,-18,998,-24,1,-5
1691,-6,-19,1000,-18,3,-6
1692,-6,-18,1000,-13,1,-7
1693,-6,-20,998,-14,1,-7
1694,-5,-22,995,-15,1,-7
1695,-6,-23,995,-13,1,-7
1696,-10,-22,1003,-13,1,-7
1697,-8,-14,1003,-12,1,-6
1698,-9,-8,999,-14,1,-6
1699,-12,-10,997,-14,0,-6
1700,-9,-17,996,-16,1,-7
1701,-5,-25,997,-16,1,-6
1702,-3,-27,1000,-14,0,-6
1703,-2,-26,997,-14,0,-7
1704,-1,-24,997,-12,1,-5
1705,-8,-17,999,-13,3,-4
1706,-11,-12,997,-13,1,-6
1707,-12,-12,997,-15,1,-6
1708,-10,-16,999,-15,0,-6
1709,-6,-19,997,-15,-1,-5
1710,-5,-24,997,-15,-1,-6
1711,-5,-25,997,-14,0,-6
1712,-6,-21,998,-13,1,-6
1713,-9,-18,999,-13,0,-7
1714,-12,-18,997,-14,2,-6
1715,-10,-14,997,-13,1,-6
1716,-10,-16,998,-15,0,-7
1717,-9,-19,998,-14,1,-6
1718,-8,-21,997,-14,1,-6
1719,-6,-21,996,-14,1,-6
1720,-8,-18,998,-10,2,-6
1721,-8,-16,999,-13,1,-7
1722,-6,-15,999,-13,2,-6
1723,-6,-17,997,-14,1,-5
1724,-6,-17,998,-13,1,-7
1725,-6,-20,997,-14,1,-7
1726,-7,-22,998,-16,0,-5
1727,-7,-21,998,-11,1,-6
1728,-9,-20,998,-12,1,-6
1729,-7,-18,998,-13,1,-6
1730,-6,-18,999,-14,1,-7
1731,-5,-20,999,-14,1,-7
1732,-7,-21,998,-14,1,-6
1733,-9,-22,996,-14,2,-6
1734,-9,-21,999,-15,1,-6
1735,-9,-19,998,-14,1,-6
1736,-7,-18,997,-14,1,-7
1737,-6,-16,996,-15,1,-6
1738,-8,-18,997,-14,0,-6
1739,-5,-20,998,-15,1,-6
1740,-7,-21,997,-14,1,-5
1741,-8,-18,998,-14,0,-6
1742,-6,-20,998,-14,1,-6
1743,-8,-21,998,-14,0,-6
1744,-8,-18,997,-12,1,-6
1745,-9,-17,998,-13,0,-6
1746,-8,-19,997,-13,0,-7
1747,-6,-19,996,-13,1,-6
1748,-7,-17,998,-14,0,-5
1749,-9,-19,997,-14,1,-6
1750,-7,-20,998,-13,1,-5
1751,-7,-19,997,-14,1,-6
1752,-8,-19,997,-13,2,-6
1753,-7,-21,997,-13,1,-6
1754,-5,-22,994,-14,1,-5
1755,-5,-22,998,-13,2,-6
1756,-7,-20,1002,-13,2,-7
1757,-6,-17,1001,-13,1,-6
1758,-9,-15,998,-13,1,-6
1759,-10,-15,999,-14,0,-6
1760,-8,-17,998,-14,0,-5
1761,-6,-19,999,-16,0,-6
1762,-4,-21,998,-14,0,-5
1763,-5,-21,998,-14,1,-5
1764,-4,-22,998,-14,1,-5
1765,-6,-20,998,-13,0,-7
1766,-8,-18,996,-12,1,-6
1767,-10,-15,999,-14,1,-5
1768,-9,-16,999,-15,2,-6
1769,-9,-20,997,-14,1,-6
1770,-6,-20,998,-13,-2,-6
1771,-8,-19,998,-14,1,-6
1772,-9,-19,996,-14,2,-5
1773,-9,-18,998,-15,0,-5
1774,-9,-19,997,-13,1,-5
1775,-9,-18,997,-13,-1,-5
1776,-9,-18,999,-14,0,-6
1777,-10,-19,997,-14,0,-6
1778,-8,-18,998,-13,1,-6
1779,-6,-20,998,-14,0,-5
1780,-8,-17,997,-14,0,-6
1781,-9,-18,998,-14,0,-6
1782,-7,-20,997,-14,0,-6
1783,-6,-23,996,-15,2,-6
1784,-5,-23,1000,-14,1,-6
1785,-6,-21,1001,-13,3,-7
1786,-8,-17,999,-13,2,-6
1787,-8,-13,1000,-13,1,-7
1788,-11,-15,999,-14,0,-6
1789,-9,-18,998,-16,-1,-7
1790,-7,-19,999,-16,1,-6
1791,-5,-22,997,-15,0,-6
1792,-3,-25,995,-14,0,-6
1793,-4,-22,997,-13,1,-6
1794,-7,-20,998,-13,1,-6
1795,-9,-16,998,-13,2,-6
1796,-11,-16,1000,-15,2,-6
1797,-9,-15,997,-14,1,-7
1798,-6,-18,997,-15,1,-6
1799,-7,-20,997,-14,0,-6
1800,-4,-21,997,-14,0,-6
1801,-7,-20,996,-14,1,-5
1802,-7,-21,997,-13,2,-7
1803,-9,-17,999,-15,1,-5
1804,-8,-17,998,-14,1,-5
1805,-9,-18,999,-15,0,-5
1806,-7,-19,999,-14,1,-6
1807,-8,-18,999,-14,1,-6
1808,-7,-21,997,-14,1,-5
1809,-8,-20,999,-13,0,-5
1810,-8,-18,998,-15,1,-6
1811,-7,-18,997,-15,2,-6
1812,-7,-18,998,-13,1,-6
1813,-6,-19,999,-14,2,-6
1814,-7,-22,996,-13,0,-6
1815,-7,-22,997,-14,1,-6
1816,-6,-21,997,-14,1,-7
1817,-7,-20,999,-14,0,-5
1818,-6,-18,998,-14,1,-6
1819,-8,-18,998,-14,1,-6
1820,-6,-19,997,-13,1,-6
1821,-9,-19,998,-13,1,-7
1822,-8,-21,998,-13,1,-7
1823,-8,-20,998,-14,0,-7
1824,-8,-18,998,-14,0,-6
1825,-9,-18,996,-14,2,-6
1826,-7,-17,996,-13,1,-6
1827,-5,-18,998,-14,1,-6
1828,-6,-18,999,-15,1,-6
1829,-6,-20,996,-15,2,-6
1830,-5,-23,995,-14,2,-6
1831,-8,-25,998,-13,1,-6
1832,-8,-22,1006,-14,1,-5
1833,-10,-18,1000,-13,0,-5
1834,-9,-11,997,-14,1,-6
1835,-10,-13,1000,-15,1,-6
1836,-5,-16,998,-16,1,-6
1837,-3,-21,997,-15,1,-6
1838,-4,-23,1001,-15,0,-6
1839,-5,-23,994,-15,1,-6
1840,-7,-21,996,-14,1,-8
1841,-10,-19,1000,-14,1,-6
1842,-12,-19,997,-13,1,-6
1843,-8,-20,998,-14,1,-6
1844,-6,-22,1000,-14,0,-6
1845,-6,-23,996,-14,1,-6
1846,-5,-22,997,-15,0,-6
1847,-7,-20,999,-13,0,-7
1848,-9,-19,996,-13,1,-6
1849,-8,-16,997,-13,0,-6
1850,-5,-17,997,-13,1,-6
1851,-6,-18,997,-13,1,-7
1852,-5,-21,998,-13,0,-6
1853,-6,-20,997,-14,1,-6
1854,-8,-19,995,-15,-1,-6
1855,-8,-18,997,-14,0,-7
1856,-8,-17,999,-13,0,-6
1857,-8,-16,999,-13,1,-6
1858,-6,-17,997,-15,1,-6
1859,-8,-17,1000,-14,1,-6
1860,-7,-20,997,-15,2,-6
1861,-9,-23,997,-15,0,-6
1862,-8,-19,998,-13,0,-6
1863,-8,-18,998,-12,1,-7
1864,-8,-19,998,-14,2,-6
1865,-9,-17,998,-13,2,-6
1866,-7,-18,997,-14,0,-5
1867,-7,-21,998,-14,0,-6
1868,-7,-22,998,-12,1,-7
1869,-9,-20,998,-14,0,-6
1870,-10,-20,996,-12,1,-6
1871,-7,-19,997,-14,2,-7
1872,-5,-18,998,-14,1,-7
1873,-7,-16,1000,-13,2,-6
1874,-8,-17,999,-13,1,-6
1875,-9,-17,998,-13,1,-6
1876,-9,-17,997,-15,2,-6
1877,-9,-19,996,-14,1,-6
1878,-4,-22,997,-15,1,-4
1879,-6,-21,999,-15,0,-5
1880,-3,-22,997,-13,2,-5
1881,-5,-19,1000,-14,1,-5
1882,-5,-20,998,-14,0,-5
1883,-7,-18,998,-14,2,-6
1884,-10,-17,998,-15,2,-6
1885,-9,-18,998,-14,1,-6
1886,-7,-18,997,-14,0,-5
1887,-6,-21,997,-14,0,-6
1888,-5,-21,997,-15,1,-6
1889,-7,-19,997,-13,0,-5
1890,-7,-19,997,-13,1,-6
1891,-8,-18,998,-14,1,-6
1892,-11,-20,997,-14,1,-6
1893,-9,-20,997,-13,1,-6
1894,-7,-17,996,-14,0,-6
1895,-8,-18,998,-15,2,-5
1896,-7,-20,997,-13,1,-6
1897,-8,-20,998,-13,1,-6
1898,-7,-18,998,-14,1,-6
1899,-5,-18,999,-14,1,-6
1900,-7,-20,998,-16,1,-6
1901,-8,-19,997,-14,2,-6
1902,-6,-19,998,-14,2,-7
1903,-7,-19,997,-14,1,-8
1904,-7,-20,998,-15,1,-7
1905,-9,-19,999,-16,0,-6
1906,-5,-19,998,-14,0,-6
1907,-6,-21,998,-14,1,-6
1908,-7,-20,997,-14,0,-7
1909,-7,-19,998,-14,0,-7
1910,-8,-21,999,-14,0,-5
1911,-11,-19,998,-13,0,-6
1912,-6,-19,997,-13,1,-7
1913,-6,-17,997,-14,0,-7
1914,-7,-19,996,-14,1,-7
1915,-8,-19,997,-15,1,-6
1916,-7,-20,997,-14,2,-6
1917,-6,-19,998,-14,0,-6
1918,-9,-19,997,-13,1,-6
1919,-7,-20,999,-13,1,-7
1920,-9,-19,999,-13,1,-6
1921,-9,-18,999,-14,1,-6
1922,-6,-20,998,-14,1,-7
1923,-5,-20,997,-13,2,-6
1924,-6,-22,995,-14,2,-5
1925,-7,-23,999,-13,2,-6
1926,-6,-18,1002,-12,1,-6
1927,-5,-18,999,-14,1,-7
1928,-7,-14,999,-14,2,-6
1929,-8,-17,998,-14,0,-6
1930,-8,-19,997,-15,0,-7
1931,-8,-20,999,-14,0,-7
1932,-5,-20,997,-15,0,-7
1933,-5,-20,997,-15,0,-6
1934,-5,-18,999,-13,1,-6
1935,-7,-17,999,-13,1,-6
1936,-7,-18,998,-14,1,-6
1937,-9,-16,999,-14,1,-5
1938,-7,-19,998,-15,0,-6
1939,-6,-20,997,-14,0,-5
1940,-6,-19,998,-16,1,-6
1941,-7,-20,997,-14,0,-6
1942,-8,-19,997,-14,0,-5
1943,-7,-18,997,-15,2,-5
1944,-9,-18,998,-15,2,-6
1945,-7,-18,996,-14,2,-5
1946,-7,-18,997,-13,0,-6
1947,-8,-19,995,-15,0,-6
1948,-7,-23,995,-15,1,-6
1949,-8,-22,999,-12,1,-6
1950,-8,-20,999,-13,1,-6
1951,-8,-16,1000,-11,2,-6
1952,-10,-13,1000,-14,2,-5
1953,-8,-16,998,-14,2,-6
1954,-10,-18,998,-15,1,-5
1955,-9,-20,998,-16,1,-5
1956,-7,-21,998,-15,1,-6
1957,-5,-21,998,-15,2,-6
1958,-4,-21,996,-15,1,-6
1959,-6,-20,997,-14,0,-6
1960,-7,-19,997,-15,0,-6
1961,-5,-19,998,-14,1,-7
1962,-5,-21,998,-14,2,-6
1963,-6,-22,998,-15,1,-6
1964,-6,-23,999,-14,1,-6
1965,-6,-20,997,-14,2,-6
1966,-6,-19,997,-13,1,-7
1967,-7,-20,996,-14,0,-6
1968,-8,-19,997,-13,1,-6
1969,-8,-19,998,-12,1,-5
1970,-7,-20,999,-14,1,-6
1971,-8,-21,997,-15,1,-6
1972,-8,-20,995,-12,0,-6
1973,-8,-19,996,-13,0,-5
1974,-9,-19,998,-13,1,-6
1975,-9,-16,998,-13,2,-5
1976,-9,-17,997,-14,3,-5
1977,-8,-17,996,-12,1,-6
1978,-8,-18,997,-14,1,-5
1979,-8,-18,996,-13,0,-6
1980,-8,-18,997,-14,0,-6
1981,-7,-19,998,-13,1,-7
1982,-8,-18,997,-13,1,-6
1983,-7,-18,997,-14,0,-6
1984,-9,-18,998,-14,0,-7
1985,-7,-22,994,-13,2,-5
1986,-6,-24,992,-14,1,-7
1987,-7,-23,1007,-13,1,-6
1988,-9,-17,1002,-13,2,-6
1989,-11,-11,996,-13,1,-5
1990,-11,-8,999,-13,1,-6
1991,-9,-14,1000,-16,1,-6
1992,-3,-21,993,-16,0,-7
1993,-1,-24,1002,-14,1,-6
1994,-4,-24,998,-12,1,-6
1995,-6,-23,993,-14,1,-6
1996,-8,-19,1000,-14,2,-6
1997,-11,-15,998,-13,2,-5
1998,-9,-14,995,-15,1,-6
1999,-6,-20,998,-16,1,-6
2000,-5,-22,997,-16,0,-6
2001,-5,-25,996,-14,0,-6
2002,-5,-24,999,-14,2,-6
2003,-8,-22,996,-13,2,-7
2004,-8,-19,996,-13,2,-6
2005,-10,-17,999,-12,1,-5
2006,-8,-14,997,-14,2,-7
2007,-8,-17,997,-14,0,-6
2008,-7,-21,998,-13,0,-6
2009,-6,-22,997,-14,1,-6
2010,-6,-21,996,-12,0,-6
2011,-9,-18,1000,-14,0,-5
2012,-7,-16,999,-14,0,-5
2013,-5,-16,998,-14,1,-6
2014,-4,-18,999,-15,1,-6
2015,-7,-20,997,-14,1,-6
2016,-8,-20,996,-15,1,-6
2017,-8,-22,998,-14,1,-5
2018,-7,-21,997,-14,0,-5
2019,-6,-21,997,-12,0,-6
2020,-8,-19,999,-13,1,-6
2021,-7,-18,997,-13,2,-6
2022,-7,-20,998,-14,1,-5
2023,-7,-22,997,-13,1,-7
2024,-7,-21,997,-13,2,-5
2025,-9,-22,997,-16,2,-5
2026,-10,-20,997,-14,1,-5
2027,-8,-17,997,-13,0,-6
2028,-8,-17,998,-15,1,-6
2029,-8,-17,998,-14,2,-6
2030,-7,-17,998,-16,2,-5
2031,-6,-20,998,-15,2,-5
2032,-8,-20,998,-13,3,-5
2033,-8,-20,997,-8,2,-8
2034,-5,-20,997,-12,1,-5
2035,-7,-19,996,-12,1,-6
2036,-8,-18,1000,-12,1,-5
2037,-8,-16,1001,-12,2,-6
2038,-9,-14,1001,-14,0,-5
2039,-10,-13,996,-16,1,-5
2040,-6,-17,996,-16,0,-6
2041,-6,-25,995,-16,0,-6
2042,-3,-27,997,-15,1,-6
2043,-3,-26,997,-14,1,-6
2044,-4,-23,995,-14,1,-5
2045,-5,-16,998,-14,2,-6
2046,-11,-13,999,-12,3,-6
2047,-10,-13,999,-13,2,-6
2048,-9,-17,999,-15,0,-5
2049,-7,-19,996,-15,0,-6
2050,-6,-21,997,-14,0,-6
2051,-6,-21,998,-13,-1,-6
2052,-5,-23,995,-14,1,-6
2053,-9,-18,996,-12,1,-6
2054,-9,-16,999,-14,0,-6
2055,-10,-18,998,-14,0,-7
2056,-11,-19,996,-15,1,-6
2057,-7,-21,997,-14,1,-6
2058,-8,-22,996,-14,1,-5
2059,-9,-21,997,-14,2,-6
2060,-8,-21,997,-13,1,-7
2061,-8,-19,997,-13,2,-7
2062,-8,-17,998,-15,2,-7
2063,-6,-19,998,-15,1,-6
2064,-7,-20,997,-14,1,-6
2065,-5,-22,998,-14,0,-5
2066,-5,-21,998,-13,1,-6
2067,-6,-20,997,-15,2,-7
2068,-7,-19,999,-14,2,-6
2069,-7,-20,997,-13,0,-6
2070,-6,-18,999,-15,0,-6
2071,-5,-19,997,-12,1,-6
2072,-6,-20,998,-13,1,-5
2073,-8,-20,997,-15,0,-5
2074,-7,-20,997,-14,1,-5
2075,-6,-20,997,-14,2,-6
2076,-7,-19,997,-13,0,-6
2077,-7,-18,998,-13,1,-6
2078,-7,-18,997,-15,1,-8
2079,-7,-18,999,-13,0,-8
2080,-7,-20,998,-13,1,-6
2081,-10,-19,998,-13,1,-5
2082,-7,-19,997,-13,0,-5
2083,-8,-20,997,-13,0,-6
2084,-10,-18,997,-15,0,-7
2085,-5,-19,996,-14,1,-6
2086,-7,-20,995,-14,2,-6
2087,-8,-21,1000,-14,1,-7
2088,-8,-20,1001,-13,1,-6
2089,-10,-15,998,-12,1,-5
2090,-8,-14,1000,-14,1,-7
2091,-8,-16,995,-15,0,-6
2092,-8,-20,997,-16,1,-5
2093,-7,-20,1001,-15,1,-6
2094,-6,-22,998,-14,0,-6
2095,-5,-21,998,-13,1,-6
2096,-7,-19,999,-14,1,-5
2097,-9,-19,996,-14,2,-5
2098,-7,-17,998,-14,1,-6
2099,-9,-18,999,-14,1,-6
2100,-6,-21,998,-15,1,-6
2101,-5,-23,997,-16,1,-6
2102,-6,-21,996,-14,1,-7
2103,-6,-18,997,-13,1,-6
2104,-9,-17,998,-13,1,-6
2105,-9,-19,998,-14,0,-6
2106,-10,-19,997,-15,2,-6
2107,-9,-18,999,-15,1,-6
2108,-10,-18,997,-15,1,-6
2109,-10,-20,998,-15,0,-6
2110,-10,-18,996,-15,0,-6
2111,-10,-18,999,-13,1,-6
2112,-7,-18,998,-14,1,-5
2113,-8,-18,997,-13,0,-6
2114,-6,-18,998,-14,0,-5
2115,-8,-19,998,-15,0,-6
2116,-8,-22,999,-14,1,-7
2117,-7,-21,997,-15,2,-8
2118,-7,-19,999,-14,1,-7
2119,-7,-18,996,-13,1,-6
2120,-5,-17,998,-15,1,-6
2121,-5,-16,999,-13,1,-6
2122,-4,-20,996,-14,1,-6
2123,-8,-22,997,-15,0,-6
2124,-7,-21,997,-13,1,-6
2125,-6,-21,1000,-14,1,-5
2126,-8,-19,999,-14,0,-5
2127,-8,-19,1000,-13,0,-6
2128,-8,-16,997,-14,1,-7
2129,-8,-16,998,-13,1,-6
2130,-6,-18,997,-14,1,-6
2131,-7,-20,998,-14,1,-7
2132,-6,-23,997,-15,2,-6
2133,-7,-22,997,-15,1,-7
2134,-8,-18,996,-14,1,-5
2135,-7,-18,998,-13,2,-5
2136,-11,-18,998,-12,0,-7
2137,-9,-17,996,-13,0,-6
2138,-6,-19,995,-14,1,-6
2139,-8,-21,995,-14,1,-6
2140,-7,-23,997,-15,0,-6
2141,-8,-21,998,-15,1,-6
2142,-7,-19,1000,-15,2,-6
2143,-8,-17,1000,-15,1,-4
2144,-9,-15,999,-13,0,-6
2145,-8,-17,999,-13,0,-6
2146,-5,-20,998,-15,1,-6
2147,-6,-22,996,-14,1,-6
2148,-5,-22,1000,-14,1,-7
2149,-6,-22,997,-13,1,-6
2150,-7,-19,998,-14,2,-6
2151,-7,-16,997,-13,0,-5
2152,-9,-16,996,-15,1,-6
2153,-7,-20,995,-15,0,-6
2154,-5,-24,1000,-15,2,-6
2155,-6,-21,1002,-15,1,-4
2156,-7,-17,999,-15,1,-5
2157,-9,-14,996,-13,1,-6
2158,-7,-16,998,-15,1,-5
2159,-6,-18,996,-15,0,-6
2160,-6,-20,999,-15,0,-6
2161,-6,-23,999,-15,1,-6
2162,-6,-23,996,-15,0,-6
2163,-6,-21,995,-14,1,-6
2164,-8,-18,998,-13,1,-6
2165,-11,-16,995,-14,1,-5
2166,-6,-16,997,-14,0,-6
2167,-7,-19,999,-14,0,-6
2168,-7,-21,998,-14,1,-6
2169,-7,-22,998,-15,1,-5
2170,-6,-21,1001,-14,1,-6
2171,-7,-20,997,-12,2,-5
2172,-8,-17,999,-13,1,-6
2173,-8,-19,999,-14,1,-6
2174,-8,-18,997,-13,1,-6
2175,-5,-19,998,-14,1,-6
2176,-6,-21,1000,-13,0,-7
2177,-6,-21,997,-13,1,-5
2178,-7,-22,998,-14,2,-6
2179,-8,-20,998,-12,1,-6
2180,-8,-16,1000,-13,1,-6
2181,-6,-17,999,-14,0,-7
2182,-7,-18,997,-13,1,-6
2183,-6,-19,997,-15,0,-6
2184,-7,-20,998,-13,1,-5
2185,-9,-19,996,-13,0,-5
2186,-8,-21,996,-14,1,-5
2187,-8,-18,999,-13,1,-6
2188,-8,-18,998,-14,1,-6
2189,-8,-17,998,-14,1,-6
2190,-9,-17,997,-15,1,-7
2191,-6,-20,997,-13,1,-6
2192,-6,-20,997,-15,3,-8
2193,-9,-20,997,-13,1,-7
2194,-7,-18,996,-14,1,-7
2195,-7,-18,998,-14,1,-6
2196,-8,-18,997,-14,1,-6
2197,-7,-19,998,-14,2,-6
2198,-6,-20,998,-14,2,-6
2199,-6,-20,999,-13,1,-6
2200,-6,-22,998,-13,1,-5
2201,-8,-19,998,-13,1,-6
2202,-8,-19,997,-13,0,-6
2203,-7,-18,998,-14,1,-6
2204,-9,-17,998,-14,1,-7
2205,-7,-19,998,-13,1,-6
2206,-9,-18,998,-13,1,-6
2207,-7,-20,997,-13,0,-6
2208,-6,-20,998,-14,1,-6
2209,-9,-20,996,-13,2,-5
2210,-7,-21,998,-14,2,-6
2211,-8,-18,997,-14,2,-7
2212,-7,-19,999,-14,-1,-6
2213,-8,-20,997,-14,0,-6
2214,-9,-18,997,-13,1,-7
2215,-9,-19,999,-14,1,-6
2216,-9,-18,999,-15,0,-6
2217,-8,-19,998,-13,1,-7
2218,-6,-18,997,-15,1,-6
2219,-7,-19,998,-16,0,-6
2220,-6,-18,997,-15,1,-6
2221,-8,-20,999,-14,2,-6
2222,-7,-20,998,-14,2,-6
2223,-9,-21,997,-12,1,-7
2224,-6,-20,998,-14,1,-6
2225,-7,-19,996,-13,2,-6
2226,-7,-18,999,-13,1,-5
2227,-7,-17,997,-15,0,-7
2228,-7,-19,998,-15,1,-6
2229,-5,-20,997,-14,1,-5
2230,-5,-19,996,-14,0,-6
2231,-8,-18,997,-13,1,-5
2232,-6,-17,998,-14,1,-6
2233,-6,-18,998,-13,0,-6
2234,-6,-19,997,-14,0,-6
2235,-6,-20,997,-14,0,-6
2236,-5,-22,997,-14,1,-7
2237,-6,-23,997,-14,1,-8
2238,-7,-21,1000,-14,1,-7
2239,-6,-17,1000,-14,2,-5
2240,-10,-14,998,-12,1,-6
2241,-9,-15,999,-13,1,-7
2242,-9,-16,998,-15,2,-6
2243,-7,-21,996,-15,0,-7
2244,-7,-22,999,-13,1,-7
2245,-6,-22,996,-14,1,-7
2246,-5,-22,997,-15,1,-5
2247,-6,-19,999,-14,1,-6
2248,-9,-18,997,-14,1,-6
2249,-10,-17,999,-16,1,-7
2250,-8,-19,996,-14,0,-6
2251,-8,-21,997,-15,1,-6
2252,-6,-21,999,-14,0,-7
2253,-7,-19,999,-14,0,-7
2254,-9,-19,998,-14,1,-7
2255,-8,-18,997,-13,2,-6
2256,-9,-18,996,-14,0,-5
2257,-10,-19,999,-14,0,-6
2258,-9,-20,999,-15,1,-5
2259,-8,-20,996,-14,1,-4
2260,-6,-22,997,-14,0,-6
2261,-7,-22,997,-14,2,-6
2262,-7,-22,997,-14,2,-6
2263,-8,-22,998,-14,1,-6
2264,-7,-19,1000,-13,1,-5
2265,-8,-16,998,-12,0,-7
2266,-8,-13,999,-14,1,-7
2267,-8,-15,998,-14,0,-5
2268,-8,-17,996,-15,-1,-6
2269,-10,-21,998,-15,0,-7
2270,-6,-23,998,-14,0,-6
2271,-5,-22,997,-14,0,-6
2272,-3,-20,996,-13,0,-7
2273,-7,-20,998,-14,2,-6
2274,-9,-17,997,-14,0,-7
2275,-9,-18,998,-15,2,-6
2276,-10,-20,1000,-14,1,-6
2277,-7,-21,997,-14,1,-6
2278,-6,-21,999,-14,0,-5
2279,-5,-20,997,-14,1,-6
2280,-4,-19,996,-14,2,-7
2281,-7,-21,996,-14,2,-6
2282,-7,-19,999,-14,1,-5
2283,-9,-19,998,-15,1,-6
2284,-9,-17,997,-14,1,-6
2285,-9,-19,997,-14,1,-5
2286,-8,-18,996,-15,0,-5
2287,-6,-20,993,-14,1,-6
2288,-5,-24,987,-15,1,-6
2289,-7,-27,1006,-12,1,-6
2290,-8,-18,1005,-12,1,-7
2291,-13,-9,996,-12,1,-5
2292,-16,-4,996,-13,1,-6
2293,-11,-10,1001,-16,1,-7
2294,-6,-17,991,-16,1,-6
2295,-2,-24,1003,-17,-1,-7
2296,-4,-26,1001,-15,-1,-7
2297,-4,-26,990,-14,1,-6
2298,-6,-21,999,-14,2,-6
2299,-11,-17,1001,-13,2,-6
2300,-9,-15,994,-14,2,-6
2301,-7,-20,998,-14,0,-6
2302,-5,-22,999,-15,1,-7
2303,-3,-28,995,-16,1,-7
2304,-4,-27,998,-12,1,-6
2305,-6,-24,1000,-12,1,-6
2306,-7,-18,997,-12,1,-6
2307,-8,-18,999,-13,1,-6
2308,-7,-16,996,-14,0,-6
2309,-7,-19,996,-16,-1,-7
2310,-6,-20,1000,-13,0,-6
2311,-8,-21,998,-13,0,-6
2312,-9,-21,996,-13,2,-6
2313,-8,-19,1000,-12,1,-6
2314,-9,-15,999,-13,2,-7
2315,-7,-16,997,-13,1,-6
2316,-8,-17,999,-14,2,-6
2317,-7,-18,998,-13,0,-7
2318,-9,-21,996,-15,1,-7
2319,-8,-24,999,-13,1,-6
2320,-9,-22,998,-13,3,-5
2321,-10,-18,999,-13,2,-6
2322,-9,-16,998,-11,-1,-6
2323,-5,-16,997,-15,1,-5
2324,-8,-20,996,-14,1,-7
2325,-6,-23,997,-14,1,-7
2326,-7,-22,1000,-13,1,-7
2327,-11,-17,1001,-12,1,-6
2328,-12,-11,998,-13,1,-6
2329,-10,-10,997,-12,0,-6
2330,-6,-13,997,-15,0,-6
2331,-4,-19,997,-15,0,-6
2332,-3,-23,998,-15,1,-6
2333,-1,-27,997,-14,1,-6
2334,-4,-26,996,-12,0,-6
2335,-7,-19,999,-11,2,-6
2336,-9,-13,999,-13,2,-5
2337,-10,-10,998,-13,1,-6
2338,-9,-12,998,-15,-1,-6
2339,-6,-19,996,-16,1,-6
2340,-5,-22,996,-16,2,-5
2341,-5,-23,998,-14,1,-5
2342,-6,-23,998,-14,1,-5
2343,-9,-19,998,-14,2,-6
2344,-9,-18,998,-14,2,-5
2345,-13,-15,996,-14,1,-6
2346,-10,-18,998,-13,0,-6
2347,-8,-20,998,-14,0,-6
2348,-7,-21,996,-13,1,-6
2349,-8,-19,999,-14,2,-6
2350,-7,-20,998,-13,1,-6
2351,-8,-18,998,-13,0,-5
2352,-7,-15,998,-13,0,-7
2353,-8,-15,997,-13,1,-7
2354,-7,-18,997,-14,0,-6
2355,-6,-20,998,-15,1,-5
2356,-7,-21,999,-16,1,-5
2357,-6,-21,997,-14,1,-6
2358,-6,-21,999,-12,1,-6
2359,-5,-18,998,-13,2,-6
2360,-6,-18,998,-13,1,-7
2361,-6,-19,998,-14,1,-6
2362,-5,-22,997,-14,1,-5
2363,-5,-22,997,-13,2,-5
2364,-10,-21,998,-13,0,-7
2365,-9,-19,998,-12,0,-7
2366,-8,-19,999,-9,2,-8
2367,-5,-16,998,-15,1,-5
2368,-6,-19,997,-13,1,-6
2369,-8,-19,998,-14,1,-6
2370,-7,-21,997,-15,0,-6
2371,-8,-19,997,-15,1,-6
2372,-7,-20,995,-14,1,-7
2373,-9,-24,993,-13,2,-6
2374,-7,-22,1001,-11,2,-7
2375,-7,-17,1002,-11,1,-6
2376,-10,-12,999,-13,1,-7
2377,-11,-10,1000,-14,1,-7
2378,-10,-17,999,-16,0,-6
2379,-10,-19,996,-14,1,-6
2380,-7,-22,1000,-14,0,-6
2381,-4,-22,998,-14,-1,-5
2382,-3,-22,995,-13,0,-5
2383,-2,-21,998,-13,1,-6
2384,-8,-17,998,-13,1,-6
2385,-9,-15,998,-15,1,-6
2386,-6,-16,999,-15,0,-7
2387,-7,-20,997,-15,-1,-6
2388,-6,-21,996,-16,0,-6
2389,-5,-22,999,-13,2,-5
2390,-5,-20,997,-13,2,-5
2391,-6,-18,998,-12,2,-5
2392,-9,-17,998,-15,1,-5
2393,-9,-18,998,-13,0,-6
2394,-7,-19,999,-14,0,-5
2395,-7,-19,997,-14,1,-6
2396,-8,-22,996,-14,1,-6
2397,-9,-22,996,-15,1,-7
2398,-9,-20,995,-12,2,-5
2399,-10,-19,999,-13,1,-6
2400,-9,-14,1000,-13,2,-7
2401,-9,-14,997,-14,1,-6
2402,-8,-13,997,-14,1,-6
2403,-9,-15,997,-15,0,-6
2404,-8,-20,997,-14,0,-6
2405,-7,-21,998,-15,1,-6
2406,-6,-21,998,-14,1,-6
2407,-6,-20,998,-14,-1,-7
2408,-7,-19,998,-14,1,-7
2409,-7,-18,998,-13,1,-7
2410,-7,-19,998,-14,1,-6
2411,-8,-20,998,-13,0,-6
2412,-6,-23,996,-14,0,-7
2413,-6,-23,997,-13,1,-5
2414,-4,-22,997,-12,0,-6
2415,-4,-20,998,-12,1,-7
2416,-6,-18,999,-12,1,-7
2417,-6,-17,999,-14,2,-6
2418,-7,-19,998,-14,2,-7
2419,-7,-20,998,-15,0,-6
2420,-8,-21,998,-13,0,-5
2421,-6,-22,997,-14,1,-6
2422,-8,-19,996,-13,3,-6
2423,-8,-17,999,-14,1,-6
2424,-9,-16,997,-13,2,-5
2425,-7,-17,995,-14,0,-6
2426,-7,-18,997,-14,1,-6
2427,-7,-20,1000,-14,0,-6
2428,-8,-18,999,-12,2,-6
2429,-10,-15,997,-14,1,-5
2430,-11,-14,997,-14,1,-6
2431,-8,-13,998,-14,1,-6
2432,-5,-17,995,-15,1,-6
2433,-6,-20,999,-14,1,-5
2434,-5,-23,998,-14,1,-5
2435,-4,-23,994,-15,1,-7
2436,-8,-20,997,-14,1,-6
2437,-9,-19,998,-15,2,-5
2438,-9,-20,998,-14,1,-5
2439,-7,-20,999,-16,0,-6
2440,-6,-20,999,-15,0,-7
2441,-6,-22,997,-16,1,-6
2442,-4,-21,999,-14,1,-6
2443,-8,-23,996,-14,1,-6
2444,-7,-21,998,-14,1,-6
2445,-6,-18,999,-13,1,-7
2446,-7,-17,997,-14,0,-6
2447,-7,-17,998,-13,-1,-6
2448,-5,-19,998,-15,1,-6
2449,-6,-20,997,-14,1,-6
2450,-8,-21,999,-14,1,-5
2451,-9,-19,996,-15,0,-6
2452,-8,-18,996,-13,1,-6
2453,-8,-17,997,-14,0,-6
2454,-9,-18,998,-13,1,-6
2455,-8,-17,998,-14,2,-5
2456,-8,-19,997,-13,1,-6
2457,-8,-19,998,-12,1,-5
2458,-8,-20,997,-13,1,-6
2459,-8,-20,996,-14,2,-6
2460,-9,-20,998,-13,1,-6
2461,-7,-20,997,-13,0,-7
2462,-7,-17,998,-14,0,-6
2463,-6,-18,999,-15,1,-6
2464,-6,-19,998,-14,1,-6
2465,-7,-21,998,-12,0,-6
2466,-6,-22,1000,-13,0,-6
2467,-7,-20,997,-13,1,-6
2468,-9,-20,997,-15,1,-6
2469,-6,-19,998,-14,1,-6
2470,-7,-19,998,-13,0,-6
2471,-7,-17,997,-13,0,-6
2472,-7,-18,999,-13,1,-6
2473,-8,-19,997,-14,0,-6
2474,-5,-21,999,-13,1,-6
2475,-6,-18,997,-15,1,-7
2476,-6,-18,998,-14,2,-6
2477,-7,-19,999,-14,1,-6
2478,-9,-19,999,-14,1,-7
2479,-8,-19,997,-13,1,-5
2480,-8,-18,997,-13,1,-6
2481,-9,-19,1000,-13,1,-6
2482,-7,-19,998,-14,1,-5
2483,-9,-18,997,-13,1,-6
2484,-9,-18,998,-13,2,-6
2485,-9,-20,995,-14,0,-6
2486,-8,-22,992,-14,2,-6
2487,-9,-21,1003,-13,3,-7
2488,-10,-16,1005,-12,2,-6
2489,-13,-8,999,-12,2,-6
2490,-11,-6,994,-15,1,-7
2491,-9,-17,996,-16,1,-6
2492,-4,-25,994,-18,1,-6
2493,-3,-32,1000,-16,1,-5
2494,-1,-30,999,-13,1,-5
2495,-1,-23,995,-12,2,-6
2496,-5,-19,998,-11,2,-6
2497,-11,-11,999,-12,2,-5
2498,-13,-11,998,-14,2,-5
2499,-10,-13,999,-15,1,-6
2500,-7,-20,996,-16,-1,-6
2501,-2,-24,996,-13,-1,-6
2502,-2,-24,998,-14,1,-6
2503,-7,-22,996,-14,2,-6
2504,-8,-18,997,-13,2,-6
2505,-10,-16,999,-13,2,-5
2506,-11,-14,998,-14,1,-6
2507,-9,-17,998,-17,2,-7
2508,-7,-22,997,-15,0,-6
2509,-7,-23,998,-13,1,-6
2510,-8,-21,996,-14,1,-6
2511,-8,-19,999,-12,1,-6
2512,-7,-16,998,-14,1,-6
2513,-9,-15,998,-15,1,-6
2514,-7,-17,998,-14,1,-6
2515,-6,-20,997,-16,0,-6
2516,-5,-21,996,-15,1,-6
2517,-6,-22,998,-14,1,-6
2518,-8,-21,997,-14,1,-7
2519,-8,-21,997,-13,2,-7
2520,-4,-19,998,-15,1,-7
2521,-5,-18,996,-13,0,-6
2522,-4,-19,998,-15,0,-5
2523,-6,-21,998,-13,0,-6
2524,-7,-21,995,-13,1,-7
2525,-7,-22,993,-13,1,-6
2526,-7,-25,994,-12,2,-6
2527,-8,-20,1002,-12,1,-5
2528,-6,-15,1001,-12,0,-6
2529,-7,-13,997,-12,0,-6
2530,-6,-11,997,-13,1,-7
2531,-9,-16,997,-14,1,-7
2532,-8,-20,996,-15,1,-6
2533,-8,-22,998,-14,0,-6
2534,-6,-20,997,-15,0,-5
2535,-4,-19,997,-14,1,-6
2536,-6,-17,999,-13,1,-6
2537,-10,-14,998,-14,0,-6
2538,-9,-15,998,-14,2,-6
2539,-7,-19,999,-14,1,-5
2540,-6,-21,998,-14,0,-5
2541,-6,-20,997,-13,0,-5
2542,-7,-21,998,-13,0,-5
2543,-7,-20,998,-13,1,-6
2544,-7,-19,997,-13,1,-7
2545,-10,-17,998,-14,1,-6
2546,-8,-18,997,-14,1,-6
2547,-8,-19,998,-14,1,-5
2548,-7,-17,999,-13,1,-6
2549,-7,-19,998,-15,0,-5
2550,-7,-19,997,-15,0,-6
2551,-6,-16,998,-14,1,-6
2552,-6,-18,997,-14,2,-7
2553,-7,-19,998,-15,1,-6
2554,-4,-20,998,-15,0,-6
2555,-6,-22,998,-14,0,-7
2556,-7,-21,999,-15,0,-5
2557,-6,-19,999,-15,1,-5
2558,-7,-20,997,-12,2,-6
2559,-7,-20,998,-15,1,-6
2560,-7,-20,1000,-13,0,-6
2561,-7,-20,1001,-14,1,-5
2562,-7,-16,999,-13,1,-5
2563,-9,-16,996,-13,2,-6
2564,-9,-17,998,-16,0,-6
2565,-11,-20,997,-14,0,-6
2566,-8,-19,998,-15,1,-5
2567,-7,-20,997,-14,0,-6
2568,-6,-19,996,-12,0,-6
2569,-5,-18,998,-15,2,-5
2570,-8,-18,998,-15,1,-6
2571,-8,-16,998,-14,1,-7
2572,-9,-18,996,-15,0,-7
2573,-9,-20,999,-14,0,-6
2574,-6,-22,995,-15,-1,-7
2575,-7,-20,999,-14,1,-6
2576,-4,-20,998,-13,1,-7
2577,-7,-19,997,-14,2,-7
2578,-6,-20,998,-14,2,-6
2579,-8,-20,998,-14,0,-5
2580,-7,-21,997,-14,0,-5
2581,-8,-21,997,-13,1,-6
2582,-6,-21,997,-14,2,-6
2583,-8,-21,997,-14,0,-6
2584,-6,-19,998,-14,1,-5
2585,-6,-19,999,-13,2,-5
2586,-6,-18,999,-13,1,-5
2587,-6,-17,998,-14,2,-5
2588,-6,-17,998,-14,1,-6
2589,-8,-20,996,-15,1,-5
2590,-8,-22,997,-13,2,-5
2591,-9,-19,997,-15,1,-6
2592,-8,-19,997,-14,1,-7
2593,-7,-19,997,-14,1,-5
2594,-7,-20,998,-14,1,-5
2595,-8,-18,998,-14,0,-6
2596,-8,-19,997,-14,0,-6
2597,-9,-21,995,-14,1,-5
2598,-7,-22,997,-14,0,-6
2599,-8,-20,998,-14,1,-6
2600,-6,-19,997,-12,2,-7
2601,-9,-20,998,-13,1,-6
2602,-7,-18,998,-14,0,-7
2603,-5,-20,996,-13,0,-6
2604,-5,-22,993,-14,2,-6
2605,-4,-24,1000,-14,1,-7
2606,-7,-19,1005,-13,1,-7
2607,-9,-15,999,-12,2,-6
2608,-10,-13,997,-15,2,-6
2609,-9,-11,1000,-14,2,-6
2610,-7,-17,995,-16,1,-5
2611,-7,-21,998,-16,1,-5
2612,-4,-23,1000,-14,0,-6
2613,-4,-22,995,-14,1,-5
2614,-8,-19,997,-14,1,-5
2615,-8,-19,996,-11,1,-6
2616,-10,-18,997,-14,1,-6
2617,-9,-17,1000,-13,1,-6
2618,-9,-15,1000,-13,0,-7
2619,-8,-18,995,-16,0,-7
2620,-6,-18,997,-14,2,-6
2621,-5,-22,997,-15,0,-6
2622,-5,-22,997,-16,1,-5
2623,-6,-22,999,-13,0,-6
2624,-5,-21,998,-15,1,-6
2625,-6,-18,996,-13,1,-5
2626,-7,-16,999,-12,2,-6
2627,-10,-15,999,-13,1,-6
2628,-10,-17,997,-13,0,-6
2629,-8,-19,997,-14,0,-6
2630,-8,-20,997,-13,0,-6
2631,-6,-19,996,-12,1,-5
2632,-6,-21,999,-13,2,-6
2633,-7,-19,997,-14,0,-6
2634,-7,-18,996,-14,1,-6
2635,-9,-17,997,-13,1,-6
2636,-8,-20,997,-14,2,-7
2637,-8,-20,998,-14,0,-6
2638,-6,-19,999,-14,1,-5
2639,-6,-19,996,-13,1,-6
2640,-7,-20,997,-15,2,-7
2641,-9,-20,998,-15,2,-5
2642,-7,-18,997,-15,1,-5
2643,-6,-18,999,-12,2,-5
2644,-6,-19,998,-13,0,-6
2645,-7,-21,998,-14,2,-7
2646,-5,-18,998,-13,1,-6
2647,-6,-20,998,-14,1,-5
2648,-7,-18,998,-14,0,-5
2649,-7,-19,997,-14,0,-5
2650,-7,-19,997,-13,0,-6
2651,-8,-19,997,-15,1,-6
2652,-7,-19,998,-14,1,-6
2653,-6,-20,998,-14,1,-6
2654,-9,-18,998,-15,1,-6
2655,-9,-19,997,-14,1,-6
2656,-9,-19,997,-13,1,-7
2657,-8,-19,998,-14,1,-6
2658,-7,-18,998,-14,1,-6
2659,-6,-19,997,-14,0,-7
2660,-9,-19,998,-14,1,-6
2661,-7,-20,997,-14,2,-5
2662,-12,-19,998,-13,1,-5
2663,-10,-20,997,-14,0,-6
2664,-7,-19,997,-14,1,-6
2665,-9,-17,998,-14,0,-5
2666,-7,-19,997,-14,1,-6
2667,-9,-20,1000,-15,1,-6
2668,-9,-19,997,-13,2,-6
2669,-8,-20,995,-14,0,-7
2670,-8,-23,998,-13,0,-5
2671,-7,-19,1001,-12,1,-7
2672,-7,-15,999,-13,2,-6
2673,-11,-15,998,-14,1,-6
2674,-10,-14,997,-14,0,-6
2675,-10,-19,996,-15,0,-6
2676,-6,-22,998,-15,1,-6
2677,-6,-21,998,-14,0,-7
2678,-4,-22,996,-14,0,-6
2679,-4,-21,999,-14,0,-7
2680,-8,-17,999,-12,1,-7
2681,-8,-16,999,-14,1,-6
2682,-7,-17,999,-14,2,-6
2683,-8,-17,999,-14,0,-6
2684,-5,-21,997,-14,1,-5
2685,-6,-21,998,-15,1,-5
2686,-8,-22,998,-16,2,-5
2687,-7,-20,997,-14,1,-6
2688,-7,-17,998,-14,2,-7
2689,-9,-19,997,-14,1,-6
2690,-9,-18,998,-14,0,-6
2691,-7,-19,998,-15,0,-6
2692,-8,-22,996,-14,0,-5
2693,-5,-23,996,-12,1,-6
2694,-6,-21,999,-12,2,-5
2695,-9,-16,999,-13,2,-6
2696,-9,-15,998,-12,2,-5
2697,-9,-14,999,-14,2,-4
2698,-8,-16,998,-14,1,-5
2699,-8,-18,999,-14,1,-6
2700,-7,-21,998,-15,-1,-5
2701,-6,-24,996,-9,-2,-8
2702,-4,-22,996,-12,-1,-7
2703,-5,-18,997,-14,0,-5
2704,-5,-18,997,-13,1,-5
2705,-7,-17,998,-13,1,-6
2706,-6,-19,998,-14,1,-5
2707,-5,-20,995,-14,0,-7
2708,-6,-25,995,-13,2,-5
2709,-5,-24,999,-13,2,-6
2710,-6,-20,1000,-12,1,-6
2711,-6,-17,1000,-12,2,-7
2712,-9,-11,998,-13,0,-6
2713,-9,-13,999,-13,1,-5
2714,-9,-17,998,-16,0,-6
2715,-8,-21,998,-15,1,-6
2716,-6,-23,999,-15,0,-6
2717,-5,-22,998,-15,0,-6
2718,-6,-19,997,-13,2,-5
2719,-9,-16,1000,-11,1,-5
2720,-10,-12,998,-13,1,-5
2721,-11,-14,998,-15,1,-5
2722,-9,-17,997,-14,1,-5
2723,-6,-23,996,-14,0,-6
2724,-4,-25,999,-14,1,-6
2725,-5,-21,999,-13,1,-7
2726,-7,-17,999,-13,1,-6
2727,-8,-15,998,-15,1,-7
2728,-8,-16,996,-13,0,-6
2729,-8,-20,997,-15,0,-7
2730,-6,-22,997,-16,1,-6
2731,-5,-24,998,-15,1,-6
2732,-6,-25,997,-15,1,-7
2733,-6,-20,999,-14,2,-7
2734,-7,-17,999,-13,2,-6
2735,-9,-14,997,-14,2,-5
2736,-8,-16,998,-13,0,-7
2737,-5,-18,998,-14,1,-5
2738,-5,-21,997,-16,1,-6
2739,-6,-20,998,-14,1,-6
2740,-7,-21,997,-13,1,-8
2741,-8,-20,997,-15,2,-6
2742,-7,-19,997,-14,2,-6
2743,-8,-17,999,-15,1,-5
2744,-7,-17,998,-14,1,-6
2745,-8,-18,998,-13,1,-6
2746,-8,-20,998,-15,0,-5
2747,-9,-21,997,-13,1,-6
2748,-8,-22,998,-13,1,-6
2749,-8,-19,999,-14,1,-6
2750,-7,-16,998,-14,1,-5
2751,-8,-15,998,-14,0,-5
2752,-8,-18,999,-14,2,-6
2753,-8,-19,997,-14,0,-6
2754,-8,-20,998,-14,1,-6
2755,-8,-20,997,-13,1,-7
2756,-9,-19,997,-13,1,-6
2757,-9,-17,998,-15,0,-7
2758,-8,-16,998,-14,1,-6
2759,-8,-18,996,-14,0,-6
2760,-5,-19,998,-14,1,-6
2761,-5,-19,998,-12,3,-7
2762,-5,-21,999,-14,1,-6
2763,-6,-22,997,-14,0,-7
2764,-7,-20,998,-13,1,-7
2765,-7,-19,999,-14,1,-6
2766,-9,-18,997,-14,2,-6
2767,-5,-18,998,-14,0,-6
2768,-5,-18,998,-14,0,-6
2769,-6,-20,998,-13,3,-6
2770,-5,-20,998,-14,2,-6
2771,-7,-18,997,-13,0,-6
2772,-7,-17,997,-14,1,-5
2773,-8,-18,998,-13,1,-6
2774,-6,-18,998,-15,1,-6
2775,-7,-18,998,-15,0,-5
2776,-6,-19,998,-15,0,-6
2777,-9,-18,998,-13,0,-7
2778,-9,-17,998,-13,1,-6
2779,-8,-18,997,-14,2,-6
2780,-10,-17,998,-13,0,-6
2781,-9,-18,998,-14,1,-7
2782,-8,-19,997,-14,1,-6
2783,-7,-19,995,-14,0,-6
2784,-6,-21,998,-15,1,-5
2785,-5,-20,998,-13,0,-5
2786,-5,-20,998,-14,2,-5
2787,-8,-18,999,-14,1,-6
2788,-8,-16,1001,-15,2,-5
2789,-7,-15,999,-15,2,-6
2790,-8,-18,997,-15,1,-6
2791,-5,-21,998,-15,1,-6
2792,-6,-22,1000,-15,1,-5
2793,-7,-23,998,-14,1,-7
2794,-6,-20,996,-14,1,-5
2795,-8,-18,997,-13,1,-6
2796,-8,-18,999,-13,1,-6
2797,-10,-16,999,-15,1,-6
2798,-9,-18,998,-14,0,-6
2799,-8,-20,998,-15,0,-7
2800,-6,-21,997,-15,0,-5
2801,-6,-20,997,-13,1,-5
2802,-8,-19,997,-14,2,-6
2803,-7,-20,998,-13,1,-7
2804,-7,-17,998,-12,1,-6
2805,-8,-18,998,-14,2,-5
2806,-7,-19,997,-12,0,-6
2807,-8,-20,997,-14,0,-5
2808,-9,-20,998,-14,-1,-6
2809,-7,-19,997,-14,1,-4
2810,-4,-18,997,-15,1,-4
2811,-7,-19,997,-14,1,-6
2812,-8,-19,997,-13,2,-6
2813,-7,-20,998,-13,2,-6
2814,-7,-20,998,-15,2,-7
2815,-6,-20,997,-13,1,-6
2816,-8,-19,998,-15,1,-5
2817,-8,-20,999,-13,1,-6
2818,-8,-19,998,-13,1,-7
2819,-8,-17,998,-13,0,-7
2820,-7,-18,998,-13,1,-6
2821,-7,-19,998,-15,0,-6
2822,-8,-21,998,-14,-1,-5
2823,-9,-22,998,-14,0,-6
2824,-7,-22,997,-11,2,-6
2825,-7,-20,997,-14,2,-5
2826,-8,-20,998,-13,0,-6
2827,-8,-18,1000,-13,1,-6
2828,-7,-18,998,-14,0,-7
2829,-7,-17,998,-14,0,-5
2830,-8,-20,997,-13,1,-7
2831,-7,-20,997,-14,1,-6
2832,-7,-19,998,-14,0,-6
2833,-7,-19,997,-13,1,-5
2834,-6,-18,997,-14,0,-5
2835,-5,-18,994,-14,1,-5
2836,-5,-23,993,-15,1,-6
2837,-5,-23,1003,-13,2,-5
2838,-6,-19,1002,-13,2,-6
2839,-7,-13,1000,-12,3,-6
2840,-8,-10,998,-14,2,-5
2841,-10,-15,996,-15,1,-5
2842,-9,-21,996,-15,2,-6
2843,-8,-22,999,-15,0,-6
2844,-4,-25,996,-15,0,-6
2845,-2,-22,996,-15,1,-6
2846,-3,-18,998,-14,1,-7
2847,-5,-16,997,-14,1,-6
2848,-10,-15,998,-14,1,-4
2849,-11,-16,999,-16,0,-6
2850,-8,-19,998,-16,0,-6
2851,-6,-21,996,-16,0,-5
2852,-6,-21,998,-13,1,-5
2853,-7,-21,998,-14,1,-6
2854,-7,-19,998,-15,0,-6
2855,-8,-18,998,-15,1,-7
2856,-10,-18,996,-13,1,-7
2857,-9,-19,995,-15,1,-6
2858,-8,-23,994,-13,1,-6
2859,-8,-23,997,-14,2,-6
2860,-10,-21,1000,-13,0,-6
2861,-8,-18,999,-13,1,-6
2862,-10,-14,997,-14,1,-7
2863,-9,-14,999,-14,1,-7
2864,-8,-15,998,-16,1,-6
2865,-7,-19,998,-15,0,-7
2866,-6,-21,997,-14,-1,-6
2867,-6,-24,997,-15,1,-7
2868,-6,-21,998,-15,0,-6
2869,-5,-20,997,-14,1,-4
2870,-7,-19,997,-14,2,-5
2871,-8,-17,999,-14,0,-5
2872,-7,-19,999,-15,0,-5
2873,-6,-21,998,-15,0,-5
2874,-6,-21,999,-14,2,-6
2875,-7,-22,999,-15,1,-6
2876,-9,-21,998,-13,2,-6
2877,-8,-20,997,-12,2,-7
2878,-10,-17,997,-15,1,-6
2879,-8,-18,997,-13,1,-5
2880,-6,-20,997,-16,1,-5
2881,-7,-21,996,-14,0,-6
2882,-8,-24,996,-14,0,-6
2883,-8,-22,998,-13,2,-6
2884,-8,-19,999,-12,1,-7
2885,-8,-17,996,-14,1,-6
2886,-9,-14,999,-12,0,-7
2887,-9,-16,999,-14,1,-7
2888,-8,-17,999,-15,1,-6
2889,-8,-18,998,-13,0,-6
2890,-8,-21,998,-15,0,-5
2891,-9,-21,999,-15,1,-7
2892,-7,-19,997,-13,2,-6
2893,-7,-17,998,-13,2,-6
2894,-6,-20,998,-14,2,-5
2895,-7,-20,998,-16,0,-7
2896,-8,-18,1000,-16,0,-6
2897,-6,-22,997,-14,1,-6
2898,-6,-20,998,-15,1,-6
2899,-6,-20,998,-13,0,-5
2900,-4,-18,999,-15,3,-5
2901,-7,-19,999,-14,2,-5
2902,-7,-18,996,-15,2,-6
2903,-7,-20,998,-14,1,-6
2904,-7,-22,997,-13,2,-6
2905,-8,-22,997,-14,1,-6
2906,-6,-22,995,-13,0,-7
2907,-6,-22,1001,-13,1,-6
2908,-9,-18,1000,-15,1,-5
2909,-10,-15,997,-13,1,-6
2910,-9,-11,997,-13,2,-6
2911,-9,-13,1000,-14,0,-5
2912,-8,-18,996,-14,1,-5
2913,-9,-20,1000,-15,0,-6
2914,-6,-22,998,-15,1,-6
2915,-6,-23,996,-16,2,-6
2916,-8,-20,998,-14,1,-7
2917,-10,-17,997,-14,1,-6
2918,-10,-19,995,-15,1,-5
2919,-8,-20,1000,-15,1,-6
2920,-6,-20,998,-14,1,-7
2921,-7,-23,995,-14,0,-7
2922,-7,-22,999,-13,1,-6
2923,-6,-22,996,-13,2,-5
2924,-3,-22,994,-13,1,-6
2925,-7,-19,1004,-13,1,-6
2926,-7,-14,1003,-13,1,-7
2927,-10,-9,999,-13,2,-7
2928,-11,-10,996,-16,1,-6
2929,-8,-20,995,-16,0,-7
2930,-4,-28,995,-15,1,-7
2931,-3,-29,1002,-14,0,-6
2932,-3,-25,999,-13,0,-6
2933,-3,-19,996,-12,2,-7
2934,-7,-14,1000,-13,2,-6
2935,-10,-12,998,-15,3,-5
2936,-13,-14,998,-15,2,-6
2937,-11,-17,999,-15,2,-6
2938,-7,-20,996,-15,0,-6
2939,-4,-24,996,-14,1,-5
2940,-4,-22,998,-15,1,-6
2941,-6,-19,997,-14,2,-6
2942,-11,-17,997,-14,1,-5
2943,-10,-17,999,-14,2,-5
2944,-10,-18,997,-13,0,-6
2945,-9,-20,998,-14,0,-6
2946,-7,-23,998,-14,1,-5
2947,-7,-22,998,-13,1,-6
2948,-8,-20,998,-14,1,-5
2949,-8,-18,999,-13,1,-7
2950,-9,-14,999,-13,1,-7
2951,-7,-15,997,-14,2,-7
2952,-8,-17,998,-14,0,-6
2953,-6,-19,997,-14,2,-5
2954,-5,-21,999,-14,1,-5
2955,-7,-22,998,-14,-1,-6
2956,-6,-20,998,-13,0,-5
2957,-8,-19,998,-14,2,-6
2958,-5,-19,996,-13,1,-6
2959,-6,-19,998,-14,1,-6
2960,-6,-22,996,-13,1,-7
2961,-7,-21,996,-15,0,-6
2962,-8,-21,997,-15,1,-6
2963,-8,-20,996,-14,2,-6
2964,-10,-18,997,-14,2,-6
2965,-6,-18,998,-13,0,-6
2966,-7,-18,998,-12,1,-7
2967,-7,-17,997,-14,1,-6
2968,-5,-19,994,-13,2,-7
2969,-7,-24,994,-14,3,-6
2970,-7,-22,1002,-12,1,-6
2971,-8,-18,1003,-12,2,-6
2972,-9,-10,1000,-12,2,-8
2973,-10,-7,1000,-15,2,-6
2974,-9,-14,996,-15,1,-6
2975,-9,-20,996,-16,1,-7
2976,-5,-23,1000,-17,0,-6
2977,-1,-27,997,-14,0,-6
2978,-1,-25,996,-15,0,-6
2979,-2,-20,999,-13,1,-6
2980,-10,-15,997,-14,2,-6
2981,-10,-16,998,-13,1,-6
2982,-9,-16,999,-13,0,-6
2983,-8,-22,997,-13,0,-6
2984,-6,-23,997,-15,0,-6
2985,-6,-24,998,-15,1,-6
2986,-7,-21,999,-15,2,-5
2987,-7,-20,999,-13,2,-5
2988,-8,-16,999,-14,0,-7
2989,-7,-15,998,-14,0,-6
2990,-10,-17,997,-15,1,-6
2991,-9,-18,998,-14,1,-8
2992,-9,-19,998,-13,0,-6
2993,-7,-20,997,-14,1,-6
2994,-8,-18,999,-13,1,-6
2995,-6,-18,999,-13,1,-7
2996,-8,-18,998,-14,1,-6
2997,-8,-17,997,-15,1,-6
2998,-6,-18,997,-15,0,-6
2999,-7,-20,996,-15,0,-7
3000,-7,-19,997,-15,1,-7
3001,-6,-19,995,-14,1,-6
3002,-5,-19,996,-14,1,-6
3003,-7,-19,998,-15,0,-5
3004,-5,-20,998,-14,0,-5
3005,-3,-19,997,-14,2,-6
3006,-6,-21,995,-14,1,-5
3007,-6,-25,995,-14,1,-6
3008,-9,-22,998,-13,0,-6
3009,-8,-20,1000,-13,1,-6
3010,-8,-16,999,-13,1,-6
3011,-8,-11,999,-12,1,-7
3012,-9,-12,997,-14,1,-6
3013,-7,-17,997,-15,0,-5
3014,-7,-20,999,-15,0,-5
3015,-4,-22,999,-16,2,-6
3016,-6,-24,996,-13,2,-6
3017,-6,-22,997,-13,1,-6
3018,-7,-20,996,-13,1,-6
3019,-7,-20,996,-13,1,-6
3020,-9,-16,997,-14,0,-6
3021,-8,-18,1000,-13,1,-6
3022,-8,-19,1000,-14,0,-6
3023,-9,-16,1000,-13,0,-5
3024,-8,-16,997,-14,1,-6
3025,-9,-16,997,-15,1,-7
3026,-7,-20,998,-15,1,-6
3027,-6,-20,996,-14,1,-6
3028,-7,-21,996,-13,0,-7
3029,-5,-20,998,-13,1,-6
3030,-7,-18,998,-14,1,-6
3031,-8,-16,998,-14,2,-6
3032,-9,-15,998,-14,1,-7
3033,-8,-17,999,-13,1,-7
3034,-7,-18,997,-14,0,-7
3035,-6,-20,995,-15,1,-6
3036,-5,-24,997,-14,1,-6
3037,-5,-25,1000,-14,1,-7
3038,-8,-20,998,-13,1,-6
3039,-9,-17,997,-15,0,-6
3040,-11,-13,997,-11,3,-5
3041,-9,-15,996,-13,-1,-7
3042,-5,-19,996,-14,0,-6
3043,-5,-21,999,-15,0,-6
3044,-5,-23,998,-14,0,-5
3045,-9,-22,996,-14,1,-6
3046,-10,-19,998,-15,1,-6
3047,-9,-17,998,-13,1,-5
3048,-10,-15,995,-13,2,-5
3049,-6,-17,998,-14,1,-6
3050,-7,-18,997,-16,0,-6
3051,-5,-21,997,-15,1,-6
3052,-6,-23,998,-14,0,-6
3053,-9,-21,997,-14,2,-6
3054,-8,-18,996,-13,1,-7
3055,-9,-17,997,-13,0,-7
3056,-8,-18,997,-13,2,-6
3057,-8,-18,996,-14,1,-6
3058,-7,-22,997,-15,0,-6
3059,-9,-21,998,-13,2,-6
3060,-9,-21,999,-13,1,-6
3061,-8,-20,999,-12,0,-6
3062,-6,-17,999,-13,0,-7
3063,-6,-17,998,-14,1,-6
3064,-6,-19,998,-15,1,-5
3065,-7,-21,998,-13,2,-5
3066,-7,-19,998,-14,1,-5
3067,-6,-19,997,-14,0,-7
3068,-8,-20,996,-13,0,-7
3069,-7,-19,997,-14,1,-5
3070,-7,-18,997,-14,0,-6
3071,-7,-18,997,-14,1,-7
3072,-6,-18,998,-15,1,-6
3073,-8,-21,997,-14,0,-6
3074,-7,-19,998,-14,0,-6
3075,-8,-19,999,-14,1,-6
3076,-7,-19,996,-15,1,-6
3077,-7,-19,997,-13,1,-7
3078,-8,-19,997,-14,2,-6
3079,-7,-20,998,-14,1,-6
3080,-6,-19,998,-13,0,-7
3081,-6,-20,998,-13,1,-7
3082,-9,-20,998,-13,1,-7
3083,-7,-19,997,-13,1,-6
3084,-7,-19,998,-15,0,-6
3085,-8,-18,999,-13,0,-6
3086,-8,-18,997,-14,0,-6
3087,-8,-19,997,-15,0,-7
3088,-7,-20,997,-14,0,-6
3089,-8,-19,999,-14,0,-6
3090,-10,-19,1000,-12,0,-6
3091,-8,-20,999,-14,1,-6
3092,-8,-20,998,-14,0,-6
3093,-8,-21,997,-14,1,-5
3094,-7,-19,997,-13,2,-6
3095,-7,-20,997,-14,1,-7
3096,-7,-19,998,-14,0,-7
3097,-8,-19,997,-15,1,-6
3098,-7,-20,998,-14,2,-5
3099,-9,-18,997,-16,1,-5
3100,-7,-19,998,-15,1,-7
3101,-6,-18,998,-14,1,-6
3102,-5,-18,998,-14,0,-7
3103,-5,-18,997,-14,1,-6
3104,-5,-22,996,-15,0,-6
3105,-6,-21,999,-14,1,-6
3106,-7,-22,1000,-13,2,-5
3107,-10,-16,1002,-12,1,-7
3108,-10,-14,999,-13,1,-6
3109,-10,-14,994,-15,1,-6
3110,-8,-19,995,-15,1,-6
3111,-6,-22,999,-15,-1,-7
3112,-5,-25,997,-15,1,-5
3113,-5,-23,999,-14,1,-6
3114,-6,-19,999,-13,2,-6
3115,-7,-16,997,-14,1,-7
3116,-10,-15,998,-13,1,-6
3117,-9,-15,999,-15,2,-6
3118,-7,-20,998,-15,0,-6
3119,-4,-23,996,-14,-1,-6
3120,-5,-23,997,-14,0,-6
3121,-6,-23,998,-12,1,-6
3122,-8,-18,997,-14,2,-5
3123,-9,-17,999,-12,1,-6
3124,-7,-17,998,-13,2,-6
3125,-7,-19,998,-15,2,-6
3126,-6,-23,996,-14,1,-7
3127,-5,-23,1002,-14,1,-5
3128,-8,-22,998,-12,1,-5
3129,-11,-17,999,-12,2,-6
3130,-11,-12,997,-14,2,-5
3131,-9,-13,998,-15,1,-6
3132,-7,-17,997,-16,1,-5
3133,-6,-21,998,-15,0,-6
3134,-4,-23,997,-16,1,-6
3135,-5,-25,997,-13,0,-5
3136,-6,-22,998,-13,2,-5
3137,-9,-16,997,-13,1,-6
3138,-9,-15,997,-13,1,-6
3139,-7,-16,996,-15,0,-7
3140,-5,-18,999,-14,0,-7
3141,-5,-21,998,-15,1,-6
3142,-4,-25,999,-15,1,-6
3143,-6,-24,998,-13,1,-7
3144,-6,-20,995,-14,1,-7
3145,-5,-19,998,-13,0,-7
3146,-6,-17,996,-13,1,-5
3147,-8,-16,999,-14,2,-5
3148,-7,-18,997,-14,0,-5
3149,-7,-22,996,-15,0,-5
3150,-7,-23,996,-15,1,-7
3151,-8,-22,998,-13,2,-6
3152,-8,-19,999,-14,1,-7
3153,-8,-16,998,-13,0,-6
3154,-9,-17,998,-15,0,-5
3155,-8,-17,998,-15,2,-5
3156,-8,-18,997,-14,1,-6
3157,-7,-20,998,-14,0,-5
3158,-7,-22,998,-15,1,-7
3159,-8,-19,998,-15,1,-6
3160,-7,-19,998,-13,0,-6
3161,-6,-19,998,-14,0,-5
3162,-6,-18,998,-14,2,-7
3163,-6,-20,997,-15,2,-6
3164,-6,-21,996,-15,2,-7
3165,-6,-20,997,-14,2,-6
3166,-8,-20,997,-13,2,-6
3167,-8,-19,999,-13,2,-6
3168,-8,-17,998,-14,1,-6
3169,-9,-16,997,-14,1,-5
3170,-9,-17,997,-14,2,-5
3171,-7,-18,996,-15,1,-6
3172,-8,-21,997,-14,0,-6
3173,-7,-22,999,-15,2,-5
3174,-7,-20,998,-13,1,-4
3175,-7,-20,998,-12,0,-6
3176,-5,-18,997,-13,2,-7
3177,-6,-17,998,-13,2,-6
3178,-6,-16,999,-13,1,-5
3179,-8,-18,998,-15,0,-8
3180,-9,-18,999,-13,0,-7
3181,-8,-19,996,-13,0,-6
3182,-7,-20,998,-13,1,-6
3183,-6,-19,997,-13,0,-6
3184,-7,-18,999,-12,1,-5
3185,-8,-18,998,-14,1,-7
3186,-6,-19,999,-13,2,-7
3187,-7,-20,998,-14,0,-7
3188,-8,-21,997,-15,1,-6
3189,-8,-21,997,-15,2,-7
3190,-8,-20,998,-14,1,-6
3191,-9,-19,998,-13,0,-6
3192,-8,-19,998,-14,0,-7
3193,-6,-19,999,-14,1,-6
3194,-7,-18,998,-14,0,-5
3195,-6,-19,997,-15,1,-5
3196,-6,-22,996,-14,0,-6
3197,-6,-21,995,-14,2,-5
3198,-9,-18,997,-15,1,-7
3199,-8,-19,997,-14,1,-6
3200,-9,-18,997,-14,2,-7
3201,-8,-18,998,-15,0,-6
3202,-7,-17,998,-14,1,-5
3203,-5,-19,997,-13,1,-6
3204,-6,-19,997,-15,0,-6
3205,-7,-20,998,-13,1,-6
3206,-7,-20,998,-15,2,-6
3207,-6,-18,997,-15,1,-5
3208,-6,-19,999,-15,0,-6
3209,-8,-17,999,-14,2,-7
3210,-7,-16,998,-14,2,-7
3211,-5,-18,998,-14,2,-6
3212,-8,-21,996,-13,1,-6
3213,-6,-21,996,-14,1,-6
3214,-6,-21,1000,-14,1,-7
3215,-8,-19,999,-13,1,-6
3216,-7,-16,997,-13,2,-6
3217,-8,-14,999,-15,0,-6
3218,-8,-15,997,-14,0,-7
3219,-7,-19,997,-15,1,-5
3220,-6,-22,999,-14,1,-6
3221,-5,-22,997,-14,-1,-6
3222,-5,-20,996,-13,1,-6
3223,-7,-17,998,-13,0,-6
3224,-6,-19,997,-14,1,-5
3225,-9,-16,999,-15,1,-6
3226,-9,-18,1000,-13,1,-6
3227,-6,-18,998,-15,2,-6
3228,-6,-21,999,-14,1,-7
3229,-6,-21,999,-13,0,-7
3230,-5,-20,998,-15,1,-7
3231,-6,-19,996,-13,1,-7
3232,-7,-18,999,-15,0,-6
3233,-7,-17,996,-13,0,-6
3234,-7,-18,998,-14,1,-6
3235,-6,-20,999,-14,0,-6
3236,-7,-18,997,-15,1,-6
3237,-8,-18,999,-14,0,-6
3238,-8,-18,998,-14,1,-6
3239,-9,-18,998,-14,1,-5
3240,-8,-19,997,-14,1,-5
3241,-8,-19,997,-14,1,-6
3242,-8,-19,997,-14,2,-6
3243,-7,-21,998,-13,1,-6
3244,-7,-21,998,-15,1,-6
3245,-7,-19,997,-15,0,-6
3246,-6,-18,996,-14,1,-6
3247,-8,-18,997,-15,1,-5
3248,-8,-19,996,-13,1,-7
3249,-8,-20,997,-13,1,-6
3250,-6,-21,996,-12,0,-5
3251,-6,-20,998,-14,1,-6
3252,-7,-20,998,-14,1,-6
3253,-8,-17,998,-13,2,-6
3254,-8,-18,997,-13,1,-6
3255,-8,-18,997,-15,2,-6
3256,-6,-19,997,-12,2,-6
3257,-9,-19,998,-13,1,-6
3258,-7,-19,997,-14,1,-5
3259,-7,-21,998,-14,-1,-6
3260,-7,-19,996,-14,1,-5
3261,-6,-20,997,-15,1,-5
3262,-5,-19,996,-14,2,-5
3263,-8,-18,998,-14,3,-5
3264,-7,-19,999,-14,2,-6
3265,-6,-20,997,-16,2,-6
3266,-6,-20,999,-14,1,-7
3267,-7,-19,998,-14,1,-5
3268,-8,-20,998,-14,2,-6
3269,-7,-20,995,-14,3,-6
3270,-6,-23,995,-13,2,-6
3271,-7,-22,1000,-12,3,-6
3272,-7,-14,1004,-11,1,-5
3273,-12,-11,1001,-11,1,-6
3274,-11,-9,995,-15,1,-6
3275,-7,-16,996,-16,1,-6
3276,-5,-22,996,-15,2,-6
3277,-5,-27,999,-15,1,-7
3278,-4,-26,1000,-14,1,-6
3279,-4,-25,996,-13,1,-6
3280,-6,-18,998,-13,1,-6
3281,-8,-14,999,-12,1,-6
3282,-11,-15,998,-14,2,-6
3283,-9,-17,999,-15,1,-5
3284,-7,-21,998,-15,0,-6
3285,-5,-23,997,-14,0,-6
3286,-5,-24,997,-13,1,-5
3287,-5,-20,998,-13,0,-5
3288,-9,-18,997,-13,1,-5
3289,-10,-17,1000,-15,2,-6
3290,-9,-18,997,-14,1,-7
3291,-7,-19,996,-14,1,-6
3292,-7,-20,998,-15,1,-6
3293,-7,-21,998,-14,0,-5
3294,-8,-19,997,-13,0,-6
3295,-9,-18,998,-13,0,-6
3296,-7,-17,996,-14,0,-7
3297,-7,-21,993,-14,1,-6
3298,-6,-20,1001,-14,1,-7
3299,-8,-20,1001,-14,1,-6
3300,-8,-15,997,-13,1,-5
3301,-11,-17,999,-14,1,-6
3302,-9,-18,997,-15,1,-6
3303,-8,-21,993,-15,0,-5
3304,-5,-25,999,-14,2,-6
3305,-5,-25,996,-14,0,-6
3306,-2,-24,997,-12,1,-5
3307,-5,-21,999,-14,1,-6
3308,-8,-15,998,-14,2,-5
3309,-8,-16,998,-13,2,-5
3310,-9,-16,1000,-14,1,-7
3311,-7,-19,997,-14,0,-6
3312,-5,-19,997,-14,0,-5
3313,-5,-22,999,-13,2,-6
3314,-4,-20,997,-13,1,-5
3315,-5,-17,997,-14,1,-6
3316,-7,-18,999,-13,1,-7
3317,-8,-18,999,-13,1,-6
3318,-9,-19,997,-13,1,-6
3319,-9,-19,998,-14,1,-6
3320,-7,-20,996,-14,1,-6
3321,-7,-20,996,-14,1,-7
3322,-8,-19,997,-14,1,-7
3323,-9,-18,999,-14,2,-5
3324,-9,-18,999,-14,1,-6
3325,-8,-18,998,-13,0,-7
3326,-7,-20,996,-12,1,-6
3327,-7,-20,997,-14,1,-6
3328,-8,-21,998,-14,1,-5
3329,-7,-20,998,-14,1,-6
3330,-8,-18,998,-14,1,-6
3331,-7,-18,997,-15,1,-6
3332,-6,-19,998,-14,1,-7
3333,-6,-17,998,-15,1,-6
3334,-6,-18,996,-15,0,-6
3335,-8,-21,998,-14,0,-6
3336,-7,-20,998,-14,1,-6
3337,-7,-20,997,-15,1,-6
3338,-6,-20,998,-13,-1,-5
3339,-6,-18,997,-14,1,-5
3340,-6,-20,997,-14,3,-6
3341,-5,-20,994,-14,2,-6
3342,-6,-23,996,-13,2,-7
3343,-8,-21,999,-12,1,-7
3344,-7,-19,999,-12,1,-6
3345,-10,-13,1000,-13,0,-6
3346,-9,-12,1001,-14,1,-6
3347,-8,-12,996,-15,0,-6
3348,-6,-18,996,-15,0,-5
3349,-7,-23,998,-15,1,-6
3350,-7,-23,995,-14,1,-6
3351,-6,-23,998,-13,0,-8
3352,-7,-20,994,-11,2,-7
3353,-7,-18,996,-13,1,-5
3354,-8,-17,1000,-14,1,-5
3355,-10,-16,1002,-12,1,-6
3356,-8,-15,999,-13,1,-6
3357,-8,-15,998,-14,1,-7
3358,-7,-19,998,-16,1,-7
3359,-6,-23,997,-14,0,-6
3360,-4,-23,997,-13,2,-6
3361,-4,-23,997,-12,1,-6
3362,-5,-22,997,-12,1,-6
3363,-7,-19,998,-13,0,-7
3364,-7,-18,998,-13,1,-5
3365,-9,-17,997,-15,2,-5
3366,-8,-18,997,-14,2,-6
3367,-8,-19,997,-14,1,-6
3368,-6,-22,998,-14,1,-7
3369,-5,-19,998,-13,1,-6
3370,-4,-18,999,-13,1,-5
3371,-7,-18,999,-14,2,-6
3372,-9,-18,995,-14,2,-5
3373,-9,-19,995,-16,2,-6
3374,-8,-22,1000,-21,2,-5
3375,-6,-21,1003,-13,1,-7
3376,-6,-16,997,-14,1,-7
3377,-9,-15,998,-13,1,-7
3378,-9,-16,997,-15,2,-5
3379,-10,-20,994,-15,2,-6
3380,-5,-23,999,-14,1,-6
3381,-7,-22,996,-15,0,-6
3382,-5,-22,997,-14,0,-7
3383,-8,-18,998,-14,1,-6
3384,-10,-17,998,-13,1,-6
3385,-9,-17,998,-15,3,-6
3386,-9,-18,997,-16,0,-6
3387,-6,-19,998,-13,0,-6
3388,-8,-21,997,-14,1,-6
3389,-4,-23,997,-15,0,-6
3390,-7,-19,998,-14,1,-5
3391,-8,-22,999,-14,2,-6
3392,-7,-18,997,-13,2,-7
3393,-9,-17,996,-13,-1,-7
3394,-8,-18,998,-14,0,-5
3395,-6,-19,999,-14,0,-6
3396,-6,-21,998,-13,2,-6
3397,-7,-21,998,-14,3,-6
3398,-6,-19,997,-15,2,-5
3399,-7,-19,998,-13,2,-7
3400,-9,-18,999,-14,0,-6
3401,-7,-19,998,-14,1,-5
3402,-9,-18,998,-13,0,-6
3403,-7,-17,997,-12,0,-7
3404,-8,-18,999,-13,0,-6
3405,-8,-18,998,-14,1,-8
3406,-8,-19,996,-14,0,-6
3407,-9,-20,996,-15,0,-6
3408,-8,-18,998,-15,0,-6
3409,-6,-20,999,-14,1,-6
3410,-7,-21,999,-13,2,-5
3411,-6,-21,998,-13,2,-6
3412,-6,-20,997,-12,2,-6
3413,-10,-21,999,-13,0,-7
3414,-6,-20,998,-14,1,-6
3415,-8,-20,998,-14,2,-5
3416,-8,-17,999,-14,1,-6
3417,-8,-20,998,-14,0,-7
3418,-7,-18,998,-13,1,-4
3419,-6,-20,998,-14,1,-6
3420,-7,-21,998,-12,2,-7
3421,-7,-20,998,-14,2,-5
3422,-7,-19,998,-15,1,-6
3423,-7,-19,996,-13,0,-5
3424,-6,-23,987,-14,1,-6
3425,-8,-28,1002,-12,2,-5
3426,-9,-18,1008,-12,0,-6
3427,-10,-10,999,-12,1,-6
3428,-13,-2,995,-13,1,-6
3429,-9,-15,998,-17,-1,-7
3430,-6,-23,990,-17,-1,-6
3431,-4,-32,1002,-16,0,-6
3432,-3,-26,1004,-14,0,-7
3433,-2,-26,991,-13,0,-5
3434,-5,-17,998,-13,2,-6
3435,-7,-13,1000,-11,2,-6
3436,-12,-10,996,-14,1,-7
3437,-12,-14,999,-17,1,-6
3438,-8,-22,999,-14,0,-6
3439,-4,-28,995,-14,0,-7
3440,-3,-25,997,-14,0,-7
3441,-7,-22,998,-13,1,-6
3442,-6,-17,997,-14,1,-6
3443,-8,-18,1000,-13,2,-6
3444,-8,-17,997,-13,2,-6
3445,-8,-17,996,-14,1,-6
3446,-7,-19,998,-14,0,-6
3447,-6,-22,997,-15,2,-6
3448,-6,-22,997,-13,1,-6
3449,-9,-20,996,-13,1,-5
3450,-9,-16,999,-12,1,-6
3451,-8,-14,998,-13,2,-6
3452,-7,-14,999,-14,0,-6
3453,-6,-19,996,-16,0,-6
3454,-7,-20,997,-15,1,-6
3455,-5,-23,999,-15,0,-5
3456,-9,-20,998,-15,1,-6
3457,-11,-20,997,-13,1,-7
3458,-7,-18,998,-13,1,-7
3459,-6,-15,999,-15,0,-5
3460,-4,-19,999,-16,0,-6
3461,-7,-21,999,-15,1,-6
3462,-8,-23,997,-15,1,-6
3463,-7,-21,998,-14,0,-6
3464,-9,-19,998,-12,1,-6
3465,-8,-17,998,-13,0,-7
3466,-7,-16,999,-13,1,-5
3467,-6,-16,997,-14,2,-6
3468,-8,-17,998,-15,0,-6
3469,-6,-22,997,-15,1,-7
3470,-6,-21,996,-14,1,-6
3471,-8,-21,998,-12,2,-4
3472,-6,-19,999,-14,1,-6
3473,-9,-16,998,-14,0,-7
3474,-7,-17,998,-13,0,-6
3475,-6,-17,997,-15,1,-5
3476,-7,-20,998,-15,1,-6
3477,-6,-20,997,-15,1,-6
3478,-7,-20,998,-15,1,-7
3479,-8,-19,999,-14,2,-6
3480,-6,-19,996,-14,3,-5
3481,-11,-19,998,-15,1,-6
3482,-8,-18,997,-15,2,-6
3483,-8,-20,998,-14,1,-6
3484,-8,-20,998,-13,1,-7
3485,-7,-19,999,-13,1,-6
3486,-7,-20,998,-14,1,-7
3487,-5,-18,998,-14,1,-6
3488,-8,-19,997,-14,1,-5
3489,-10,-22,995,-14,0,-6
3490,-6,-20,997,-13,1,-6
3491,-8,-19,1001,-14,2,-6
3492,-9,-16,1001,-13,1,-6
3493,-9,-16,999,-14,0,-6
3494,-8,-16,997,-15,0,-7
3495,-7,-20,993,-16,0,-6
3496,-7,-27,997,-14,0,-6
3497,-7,-24,996,-13,0,-6
3498,-5,-22,1000,-14,1,-7
3499,-5,-18,999,-12,2,-6
3500,-8,-16,997,-13,2,-6
3501,-9,-14,997,-14,2,-7
3502,-9,-16,998,-13,1,-6
3503,-8,-20,997,-15,0,-6
3504,-6,-23,996,-14,0,-7
3505,-5,-24,999,-14,1,-8
3506,-5,-20,997,-15,0,-7
3507,-8,-18,998,-14,1,-6
3508,-10,-17,996,-14,1,-6
3509,-9,-21,990,-15,0,-6
3510,-9,-22,1001,-12,1,-6
3511,-8,-19,1004,-13,0,-7
3512,-9,-13,998,-12,1,-6
3513,-10,-10,998,-14,2,-5
3514,-9,-13,996,-15,1,-6
3515,-7,-20,990,-15,2,-7
3516,-7,-27,999,-16,0,-7
3517,-3,-25,1000,-14,0,-5
3518,-3,-22,996,-14,0,-5
3519,-6,-16,998,-14,1,-6
3520,-9,-13,999,-13,1,-6
3521,-11,-13,997,-14,3,-5
3522,-10,-17,1002,-15,1,-7
3523,-8,-22,998,-16,0,-7
3524,-3,-25,994,-15,-1,-6
3525,-1,-24,998,-14,1,-6
3526,-4,-23,997,-13,3,-6
3527,-7,-17,995,-13,1,-6
3528,-9,-16,1000,-13,1,-6
3529,-7,-16,999,-14,2,-6
3530,-8,-17,996,-15,1,-5
3531,-5,-20,998,-15,0,-6
3532,-6,-21,998,-15,1,-6
3533,-5,-20,997,-15,1,-6
3534,-6,-19,998,-14,1,-6
3535,-8,-18,997,-13,1,-6
3536,-8,-17,998,-13,1,-6
3537,-9,-17,999,-13,1,-7
3538,-7,-20,998,-14,2,-6
3539,-7,-21,997,-15,2,-5
3540,-7,-22,997,-14,1,-6
3541,-7,-20,997,-14,1,-6
3542,-7,-16,997,-14,3,-5
3543,-6,-18,998,-14,1,-6
3544,-7,-17,999,-14,1,-5
3545,-7,-18,1000,-14,1,-7
3546,-6,-22,998,-13,1,-6
3547,-9,-22,999,-14,1,-7
3548,-8,-21,997,-13,1,-6
3549,-6,-19,998,-13,-1,-6
3550,-7,-17,994,-13,0,-6
3551,-8,-18,997,-14,0,-6
3552,-6,-19,1005,-15,1,-6
3553,-5,-19,999,-13,0,-7
3554,-5,-17,996,-16,1,-5
3555,-8,-17,999,-14,0,-7
3556,-10,-18,996,-14,1,-5
3557,-10,-21,993,-14,0,-6
3558,-7,-21,1000,-14,1,-7
3559,-5,-20,996,-13,1,-6
3560,-5,-19,995,-14,2,-6
3561,-7,-18,1000,-14,2,-6
3562,-7,-17,997,-13,1,-7
3563,-7,-17,996,-14,1,-6
3564,-7,-18,998,-14,1,-6
3565,-7,-21,996,-14,1,-6
3566,-7,-20,997,-14,1,-6
3567,-8,-20,1000,-12,1,-5
3568,-6,-21,997,-15,1,-5
3569,-9,-19,998,-14,0,-5
3570,-7,-19,998,-14,1,-7
3571,-8,-18,998,-13,0,-6
3572,-7,-16,998,-15,1,-6
3573,-7,-18,997,-15,0,-6
3574,-6,-17,996,-13,-1,-6
3575,-6,-17,996,-13,2,-6
3576,-6,-19,997,-13,1,-7
3577,-8,-20,999,-14,0,-6
3578,-8,-20,998,-15,0,-7
3579,-5,-20,997,-15,1,-7
3580,-7,-18,996,-15,1,-6
3581,-7,-18,998,-14,0,-6
3582,-5,-18,998,-14,2,-6
3583,-7,-18,998,-14,2,-6
3584,-7,-19,997,-13,1,-5
3585,-8,-19,1000,-15,1,-7
3586,-8,-19,998,-14,0,-7
3587,-7,-20,997,-14,0,-5
3588,-7,-19,997,-15,1,-6
3589,-6,-20,999,-15,0,-7
3590,-7,-20,998,-14,1,-6
3591,-7,-20,998,-14,1,-7
3592,-6,-19,998,-14,0,-7
3593,-8,-18,999,-15,1,-7
3594,-6,-18,997,-14,1,-7
3595,-6,-18,998,-14,1,-5
3596,-6,-18,998,-14,0,-6
3597,-7,-20,998,-14,2,-6
3598,-8,-19,998,-14,1,-6
3599,-9,-20,998,-15,0,-5
3600,-7,-18,999,-13,2,-7
3601,-6,-19,999,-14,2,-6
3602,-7,-19,999,-13,1,-7
3603,-7,-19,997,-13,1,-7
3604,-6,-19,997,-14,1,-6
3605,-6,-20,998,-13,1,-6
3606,-8,-21,997,-14,1,-6
3607,-7,-19,997,-13,2,-5
3608,-5,-20,995,-13,0,-5
3609,-6,-20,997,-13,0,-5
3610,-6,-18,995,-13,2,-6
3611,-5,-18,998,-15,1,-7
3612,-8,-19,997,-16,1,-6
3613,-7,-18,999,-15,0,-6
3614,-7,-19,996,-14,2,-6
3615,-6,-20,999,-14,2,-7
3616,-7,-18,999,-13,1,-6
3617,-9,-17,997,-12,0,-6
3618,-7,-19,996,-13,1,-5
3619,-7,-20,996,-13,0,-6
3620,-8,-19,1000,-13,2,-6
3621,-7,-19,998,-13,1,-6
3622,-8,-19,998,-15,0,-6
3623,-9,-19,998,-14,1,-5
3624,-8,-18,997,-13,1,-7
3625,-7,-18,998,-13,1,-6
3626,-7,-18,997,-13,1,-5
3627,-8,-21,994,-14,1,-6
3628,-9,-22,995,-14,1,-6
3629,-8,-20,1000,-13,0,-7
3630,-7,-18,1001,-13,0,-7
3631,-7,-13,999,-14,2,-5
3632,-10,-13,998,-15,2,-6
3633,-9,-16,997,-15,2,-6
3634,-6,-20,995,-15,1,-6
3635,-6,-23,998,-15,0,-5
3636,-6,-22,997,-14,1,-6
3637,-7,-20,998,-14,2,-6
3638,-7,-16,999,-12,0,-8
3639,-7,-14,998,-13,2,-6
3640,-8,-16,999,-15,2,-6
3641,-9,-17,997,-13,1,-6
3642,-6,-21,996,-14,0,-6
3643,-6,-21,997,-14,1,-6
3644,-5,-22,997,-13,1,-6
3645,-7,-20,997,-13,2,-6
3646,-8,-19,997,-13,3,-6
3647,-6,-16,997,-14,3,-6
3648,-8,-16,996,-14,1,-6
3649,-9,-19,997,-15,1,-7
3650,-6,-19,997,-12,2,-7
3651,-6,-20,995,-13,0,-7
3652,-7,-22,997,-14,1,-6
3653,-9,-20,998,-13,0,-6
3654,-9,-18,998,-13,1,-7
3655,-6,-18,999,-14,1,-7
3656,-7,-18,999,-14,0,-6
3657,-6,-19,997,-14,1,-6
3658,-5,-22,997,-15,1,-5
3659,-6,-21,998,-13,2,-7
3660,-8,-20,995,-14,1,-7
3661,-8,-21,995,-13,0,-5
3662,-8,-18,1000,-13,1,-6
3663,-5,-18,1001,-14,0,-7
3664,-6,-16,1000,-13,0,-6
3665,-8,-14,998,-14,0,-6
3666,-7,-15,997,-15,1,-7
3667,-8,-18,995,-15,1,-7
3668,-7,-22,997,-15,0,-6
3669,-5,-23,998,-13,1,-6
3670,-5,-21,995,-14,0,-7
3671,-7,-18,998,-12,1,-7
3672,-6,-17,1000,-14,2,-7
3673,-8,-18,998,-13,0,-6
3674,-8,-19,998,-15,1,-6
3675,-7,-20,998,-14,1,-6
3676,-6,-19,996,-14,1,-7
3677,-6,-20,998,-13,1,-6
3678,-7,-20,998,-14,1,-6
3679,-5,-19,998,-14,1,-6
3680,-7,-17,998,-13,1,-7
3681,-9,-19,998,-14,2,-5
3682,-8,-18,998,-14,2,-6
3683,-9,-18,998,-14,1,-6
3684,-8,-19,996,-14,0,-7
3685,-10,-20,998,-14,1,-6
3686,-8,-19,997,-14,2,-6
3687,-6,-19,998,-13,1,-6
3688,-7,-17,999,-14,1,-6
3689,-8,-18,997,-13,1,-5
3690,-8,-18,997,-14,0,-6
3691,-8,-18,998,-15,-1,-6
3692,-9,-19,998,-14,1,-5
3693,-6,-21,996,-13,1,-6
3694,-5,-21,998,-14,1,-6
3695,-5,-18,997,-13,1,-7
3696,-5,-19,998,-13,1,-6
3697,-7,-20,999,-15,1,-5
3698,-9,-18,998,-14,1,-6
3699,-8,-18,997,-14,1,-6
3700,-7,-20,997,-13,1,-6
3701,-7,-19,997,-13,1,-6
3702,-6,-19,997,-13,0,-5
3703,-6,-19,999,-14,1,-5
3704,-5,-18,997,-13,2,-6
3705,-8,-19,998,-13,1,-6
3706,-8,-19,997,-14,2,-7
3707,-8,-20,997,-15,1,-6
3708,-8,-19,991,-14,0,-6
3709,-5,-20,1004,-14,1,-6
3710,-5,-19,1000,-14,1,-7
3711,-7,-17,998,-16,1,-6
3712,-6,-16,998,-18,-2,-7
3713,-10,-19,1000,-19,0,-5
3714,-9,-18,994,-13,1,-6
3715,-10,-21,999,-14,0,-6
3716,-5,-21,999,-12,0,-6
3717,-5,-21,995,-15,0,-6
3718,-8,-19,998,-13,0,-7
3719,-7,-18,999,-12,2,-7
3720,-9,-18,995,-15,3,-6
3721,-10,-19,1000,-12,1,-6
3722,-6,-18,999,-14,1,-6
3723,-5,-20,996,-15,0,-6
3724,-4,-20,998,-12,2,-7
3725,-5,-20,997,-14,2,-5
3726,-7,-20,998,-14,1,-6
3727,-8,-20,998,-14,2,-6
3728,-7,-19,998,-13,1,-5
3729,-7,-19,997,-13,0,-6
3730,-5,-18,1000,-13,1,-6
3731,-6,-19,998,-14,1,-6
3732,-8,-19,997,-14,1,-6
3733,-8,-19,995,-14,0,-7
3734,-9,-19,998,-13,1,-6
3735,-9,-20,996,-13,2,-6
3736,-7,-19,997,-13,-1,-6
3737,-7,-19,995,-14,0,-6
3738,-7,-18,996,-15,1,-5
3739,-8,-19,998,-14,1,-6
3740,-7,-20,997,-15,2,-5
3741,-6,-20,997,-14,2,-6
3742,-8,-20,995,-14,0,-6
3743,-7,-20,996,-12,1,-7
3744,-8,-18,998,-13,1,-6
3745,-9,-19,997,-12,1,-7
3746,-8,-20,998,-14,1,-6
3747,-8,-20,998,-14,2,-6
3748,-8,-19,998,-13,2,-5
3749,-9,-19,998,-14,2,-5
3750,-7,-19,993,-13,0,-6
3751,-7,-22,996,-13,0,-6
3752,-7,-20,1001,-14,1,-5
3753,-9,-17,1003,-13,1,-6
3754,-7,-15,998,-14,0,-7
3755,-8,-14,999,-12,1,-6
3756,-7,-17,997,-15,1,-6
3757,-7,-21,997,-16,1,-6
3758,-5,-25,996,-13,0,-6
3759,-5,-25,998,-14,-1,-6
3760,-5,-20,998,-13,1,-6
3761,-6,-17,999,-15,2,-6
3762,-5,-14,997,-14,2,-5
3763,-8,-15,998,-15,2,-7
3764,-10,-17,1000,-16,1,-6
3765,-8,-20,998,-15,0,-6
3766,-7,-22,998,-14,1,-5
3767,-5,-21,998,-13,1,-6
3768,-6,-20,998,-13,0,-5
3769,-8,-18,999,-13,1,-6
3770,-8,-19,999,-13,1,-6
3771,-10,-17,998,-16,1,-6
3772,-11,-20,997,-16,-1,-7
3773,-7,-19,997,-14,0,-7
3774,-7,-20,997,-14,1,-6
3775,-7,-19,998,-14,0,-6
3776,-6,-17,996,-14,1,-7
3777,-9,-17,998,-15,0,-7
3778,-6,-19,997,-15,-1,-6
3779,-6,-19,998,-15,1,-6
3780,-7,-19,997,-13,0,-7
3781,-8,-21,997,-14,0,-7
3782,-7,-19,997,-14,-1,-6
3783,-8,-19,998,-12,0,-6
3784,-7,-18,998,-14,0,-7
3785,-7,-18,997,-13,1,-6
3786,-7,-20,998,-14,0,-7
3787,-5,-19,997,-15,1,-7
3788,-4,-20,1000,-13,0,-6
3789,-7,-21,997,-15,1,-6
3790,-6,-20,998,-12,1,-7
3791,-7,-17,998,-13,2,-5
3792,-8,-17,998,-13,1,-7
3793,-8,-15,998,-13,1,-7
3794,-7,-20,995,-13,1,-7
3795,-10,-24,994,-13,1,-5
3796,-8,-22,1001,-14,1,-5
3797,-6,-18,1003,-13,0,-5
3798,-7,-15,999,-11,2,-5
3799,-7,-12,1000,-13,2,-6
3800,-9,-13,998,-15,1,-7
3801,-9,-19,997,-14,0,-7
3802,-9,-25,996,-14,0,-6
3803,-7,-26,996,-15,1,-5
3804,-7,-22,997,-14,1,-6
3805,-4,-19,999,-12,1,-5
3806,-6,-13,1001,-12,0,-5
3807,-8,-14,999,-13,2,-5
3808,-9,-14,999,-13,1,-6
3809,-9,-18,998,-15,1,-6
3810,-6,-22,996,-14,0,-6
3811,-4,-25,997,-15,0,-7
3812,-3,-23,997,-13,1,-6
3813,-3,-23,998,-13,1,-6
3814,-9,-18,1000,-13,3,-7
3815,-11,-14,1000,-12,2,-6
3816,-11,-16,998,-15,1,-6
3817,-9,-19,999,-15,0,-6
3818,-6,-20,999,-15,0,-6
3819,-5,-21,996,-16,0,-5
3820,-5,-21,998,-13,1,-6
3821,-7,-20,996,-14,0,-6
3822,-10,-19,995,-13,0,-5
3823,-11,-18,994,-13,0,-6
3824,-6,-19,1003,-14,1,-6
3825,-6,-19,1001,-14,1,-6
3826,-5,-19,997,-14,1,-6
3827,-10,-18,999,-15,1,-6
3828,-10,-19,998,-14,2,-6
3829,-9,-18,995,-15,2,-6
3830,-6,-20,999,-14,0,-6
3831,-3,-19,998,-13,1,-6
3832,-6,-18,996,-15,1,-6
3833,-7,-18,997,-15,2,-6
3834,-8,-21,998,-14,1,-6
3835,-8,-21,997,-14,1,-8
3836,-7,-21,998,-12,0,-7
3837,-5,-17,997,-14,-1,-7
3838,-6,-18,996,-13,-1,-6
3839,-7,-18,1000,-14,0,-6
3840,-5,-20,997,-14,0,-6
3841,-7,-21,997,-14,1,-6
3842,-8,-22,998,-14,1,-5
3843,-8,-20,998,-13,1,-6
3844,-8,-19,999,-15,1,-6
3845,-8,-18,996,-14,1,-6
3846,-8,-17,997,-13,1,-5
3847,-7,-18,997,-14,2,-5
3848,-7,-20,996,-14,1,-6
3849,-9,-19,999,-15,1,-6
3850,-8,-19,997,-14,2,-6
3851,-6,-20,998,-14,1,-6
3852,-7,-19,996,-13,1,-5
3853,-11,-19,999,-13,1,-6
3854,-7,-18,997,-14,2,-6
3855,-9,-19,998,-13,2,-6
3856,-8,-20,997,-14,1,-6
3857,-7,-21,999,-13,2,-6
3858,-8,-19,998,-15,1,-6
3859,-7,-21,997,-14,0,-6
3860,-6,-19,999,-13,0,-6
3861,-8,-19,998,-15,1,-6
3862,-7,-19,997,-13,2,-6
3863,-8,-17,998,-15,2,-6
3864,-8,-16,997,-14,2,-7
3865,-6,-20,997,-14,0,-6
3866,-4,-18,999,-13,-1,-7
3867,-8,-17,996,-15,0,-6
3868,-7,-18,998,-13,1,-6
3869,-7,-18,998,-14,1,-7
3870,-8,-19,997,-14,0,-5
3871,-7,-19,997,-15,1,-5
3872,-7,-19,999,-15,1,-6
3873,-9,-20,998,-12,1,-6
3874,-7,-20,997,-14,1,-6
3875,-9,-19,996,-14,1,-6
3876,-8,-20,999,-14,1,-5
3877,-9,-20,999,-15,2,-6
3878,-9,-19,998,-12,1,-6
3879,-8,-18,997,-14,1,-6
3880,-6,-19,997,-15,-1,-7
3881,-8,-20,997,-15,0,-6
3882,-6,-19,996,-14,0,-7
3883,-8,-19,997,-13,1,-6
3884,-6,-19,998,-13,1,-6
3885,-7,-18,998,-14,1,-6
3886,-9,-18,997,-13,0,-6
3887,-6,-19,998,-14,1,-5
3888,-8,-18,997,-14,0,-5
3889,-6,-18,998,-14,-1,-6
3890,-7,-18,999,-16,1,-6
3891,-8,-19,997,-14,0,-6
3892,-7,-20,999,-14,2,-6
3893,-9,-19,997,-14,0,-7
3894,-6,-19,997,-14,1,-7
3895,-5,-21,997,-15,0,-6
3896,-7,-19,997,-14,1,-5
3897,-8,-19,996,-14,1,-5
3898,-7,-19,998,-13,1,-6
3899,-7,-19,997,-15,2,-5
3900,-5,-21,997,-14,1,-7
3901,-5,-22,998,-15,2,-6
3902,-7,-20,998,-14,1,-7
3903,-8,-19,998,-14,1,-6
3904,-7,-18,997,-13,1,-6
3905,-10,-19,997,-13,1,-7
3906,-8,-19,997,-13,2,-5
3907,-7,-20,998,-14,1,-7
3908,-6,-19,998,-14,0,-7
3909,-8,-19,996,-13,1,-6
3910,-9,-21,996,-13,1,-6
3911,-7,-23,997,-14,1,-7
3912,-7,-21,1001,-13,1,-7
3913,-5,-17,999,-13,2,-7
3914,-7,-16,998,-14,1,-5
3915,-8,-17,998,-14,2,-6
3916,-10,-19,997,-15,1,-6
3917,-10,-21,996,-14,0,-6
3918,-8,-28,980,-13,1,-6
3919,-6,-30,1005,-11,0,-6
3920,-5,-16,1018,-12,1,-7
3921,-5,-11,993,-14,2,-8
3922,-9,-3,996,-16,2,-6
3923,-15,-11,1006,-15,0,-7
3924,-10,-20,988,-19,1,-6
3925,-5,-33,995,-17,-1,-6
3926,-2,-29,1008,-12,-1,-6
3927,1,-26,990,-12,0,-6
3928,-3,-15,998,-12,3,-5
3929,-8,-11,1003,-13,4,-5
3930,-11,-10,996,-14,2,-6
3931,-11,-15,997,-16,0,-6
3932,-10,-22,1001,-15,0,-6
3933,-5,-25,991,-15,0,-6
3934,-4,-25,999,-14,1,-6
3935,-5,-19,1001,-13,1,-5
3936,-9,-15,996,-14,2,-5
3937,-9,-12,1000,-13,0,-6
3938,-8,-16,998,-14,0,-7
3939,-8,-19,993,-14,0,-6
3940,-6,-21,999,-15,0,-6
3941,-7,-24,999,-14,0,-6
3942,-8,-22,997,-14,1,-4
3943,-9,-19,999,-13,1,-5
3944,-8,-14,998,-13,1,-5
3945,-10,-14,998,-13,2,-5
3946,-9,-17,1001,-13,0,-6
3947,-5,-21,998,-15,1,-5
3948,-5,-22,996,-14,1,-5
3949,-7,-23,999,-14,1,-6
3950,-8,-20,998,-13,2,-5
3951,-8,-16,998,-12,1,-5
3952,-8,-14,999,-14,1,-5
3953,-6,-16,996,-13,1,-6
3954,-5,-21,990,-15,1,-6
3955,-4,-28,998,-16,-1,-6
3956,-5,-24,1007,-13,0,-6
3957,-7,-17,1003,-12,2,-6
3958,-9,-10,997,-13,1,-6
3959,-9,-9,998,-14,0,-6
3960,-9,-15,994,-16,0,-7
3961,-5,-21,994,-15,1,-6
3962,-4,-29,1001,-15,0,-5
3963,-3,-29,997,-12,-1,-5
3964,-3,-24,996,-12,1,-5
3965,-8,-16,999,-12,1,-6
3966,-11,-11,998,-12,2,-6
3967,-13,-12,998,-13,1,-6
3968,-10,-16,999,-15,1,-5
3969,-9,-22,995,-16,0,-6
3970,-6,-25,996,-15,0,-5
3971,-6,-24,997,-15,0,-6
3972,-6,-20,998,-14,1,-6
3973,-8,-17,998,-11,2,-6
3974,-10,-16,997,-14,1,-6
3975,-12,-15,997,-14,1,-5
3976,-8,-18,996,-15,2,-6
3977,-6,-22,998,-15,0,-7
3978,-6,-23,997,-14,0,-5
3979,-6,-20,997,-14,1,-6
3980,-7,-18,998,-12,1,-6
3981,-5,-16,996,-14,0,-6
3982,-5,-17,999,-15,1,-6
3983,-6,-17,1000,-13,1,-6
3984,-7,-20,997,-14,1,-6
3985,-5,-22,997,-15,1,-5
3986,-7,-22,998,-14,1,-6
3987,-7,-20,997,-15,2,-6
3988,-6,-18,998,-14,1,-6
3989,-5,-19,998,-14,1,-7
3990,-6,-19,997,-15,0,-7
3991,-7,-18,997,-14,0,-6
3992,-7,-20,999,-15,0,-6
3993,-7,-23,998,-15,2,-5
3994,-8,-20,999,-14,1,-6
3995,-8,-17,998,-14,1,-6
3996,-8,-17,999,-15,0,-6
3997,-8,-17,996,-13,1,-6
3998,-7,-19,996,-15,2,-5
3999,-6,-19,997,-15,1,-6
4000,-4,-20,997,-14,0,-6
4001,-6,-22,998,-14,0,-6
4002,-8,-21,997,-13,1,-6
4003,-7,-19,997,-13,0,-5
4004,-8,-18,999,-13,0,-5
4005,-6,-17,998,-14,0,-6
4006,-6,-17,998,-14,2,-6
4007,-7,-20,998,-15,0,-6
4008,-6,-20,996,-15,-1,-5
4009,-7,-22,996,-15,1,-6
4010,-5,-21,996,-15,1,-7
4011,-8,-20,998,-13,1,-7
4012,-8,-20,998,-14,2,-6
4013,-7,-18,998,-14,1,-5
4014,-7,-18,997,-14,0,-6
4015,-8,-18,999,-15,0,-5
4016,-7,-18,997,-13,1,-6
4017,-7,-18,998,-15,0,-6
4018,-7,-20,997,-14,0,-6
4019,-8,-20,999,-13,2,-6
4020,-7,-19,998,-14,1,-7
4021,-8,-19,997,-13,2,-7
4022,-8,-19,998,-15,1,-7
4023,-9,-19,998,-14,2,-6
4024,-9,-18,997,-15,2,-6
4025,-9,-19,999,-14,1,-6
4026,-8,-19,998,-13,1,-6
4027,-8,-18,997,-13,0,-6
4028,-8,-18,997,-15,0,-5
4029,-6,-20,998,-13,0,-7
4030,-6,-19,996,-13,2,-6
4031,-6,-19,998,-14,0,-6
4032,-7,-20,996,-13,1,-6
4033,-7,-18,998,-13,0,-6
4034,-6,-18,999,-15,1,-6
4035,-6,-21,998,-13,1,-5
4036,-6,-20,997,-14,1,-7
4037,-7,-18,998,-14,0,-7
4038,-7,-20,999,-13,0,-6
4039,-6,-19,998,-14,1,-6
4040,-7,-21,998,-15,2,-6
4041,-9,-20,998,-14,2,-5
4042,-6,-20,994,-14,1,-5
4043,-5,-21,996,-14,1,-6
4044,-8,-21,1000,-14,1,-6
4045,-6,-19,999,-12,0,-7
4046,-8,-15,996,-12,1,-5
4047,-9,-15,997,-14,1,-6
4048,-8,-18,1000,-14,1,-6
4049,-4,-21,997,-15,1,-7
4050,-3,-22,1000,-14,0,-6
4051,-6,-22,1003,-13,1,-6
4052,-7,-19,997,-12,2,-6
4053,-9,-18,997,-13,2,-7
4054,-8,-16,999,-12,1,-6
4055,-8,-18,998,-14,5,-4
4056,-8,-20,1000,-14,1,-6
4057,-5,-22,998,-15,0,-5
4058,-5,-23,995,-15,1,-5
4059,-7,-22,999,-14,0,-5
4060,-8,-18,998,-14,1,-6
4061,-8,-16,997,-15,1,-5
4062,-8,-17,999,-12,1,-6
4063,-8,-18,998,-14,1,-6
4064,-8,-18,998,-14,0,-7
4065,-5,-19,996,-14,1,-5
4066,-5,-21,997,-13,0,-6
4067,-7,-20,997,-14,0,-6
4068,-8,-20,997,-15,1,-7
4069,-7,-19,998,-14,1,-6
4070,-8,-18,999,-13,2,-6
4071,-7,-17,999,-14,1,-6
4072,-7,-19,997,-14,1,-5
4073,-8,-20,997,-14,0,-6
4074,-9,-20,999,-15,2,-6
4075,-6,-20,998,-13,1,-7
4076,-6,-19,997,-15,1,-5
4077,-4,-20,998,-13,2,-6
4078,-5,-20,1000,-12,1,-6
4079,-6,-20,998,-14,0,-7
4080,-6,-19,997,-15,2,-6
4081,-9,-19,998,-13,1,-6
4082,-9,-19,996,-14,0,-6
4083,-8,-18,997,-15,0,-7
4084,-8,-19,999,-14,1,-5
4085,-6,-19,998,-13,1,-6
4086,-8,-19,996,-14,0,-6
4087,-8,-20,997,-14,0,-6
4088,-9,-19,998,-15,0,-5
4089,-9,-18,998,-14,1,-6
4090,-8,-20,998,-12,2,-5
4091,-8,-19,996,-16,1,-6
4092,-9,-20,999,-14,1,-7
4093,-8,-19,996,-14,1,-6
4094,-8,-20,998,-13,1,-7
4095,-8,-21,998,-14,2,-6
4096,-6,-19,998,-15,0,-5
4097,-7,-19,996,-15,1,-5
4098,-8,-19,998,-14,1,-6
4099,-8,-19,997,-14,1,-7
4100,-8,-20,996,-14,1,-7
4101,-9,-20,1000,-14,1,-7
4102,-7,-20,999,-14,1,-6
4103,-7,-19,998,-14,1,-5
4104,-8,-17,997,-13,1,-6
4105,-6,-20,998,-13,1,-6
4106,-8,-20,996,-13,0,-5
4107,-7,-19,998,-14,0,-6
4108,-5,-19,998,-14,1,-5
4109,-6,-19,998,-14,1,-5
4110,-7,-16,998,-13,0,-7
4111,-5,-18,995,-13,1,-6
4112,-6,-22,995,-14,3,-7
4113,-8,-21,1002,-13,1,-6
4114,-5,-20,1001,-14,2,-6
4115,-6,-16,999,-14,0,-6
4116,-7,-14,999,-14,-1,-6
4117,-8,-18,997,-15,2,-6
4118,-6,-20,996,-15,2,-6
4119,-6,-22,999,-15,0,-6
4120,-3,-22,997,-14,0,-7
4121,-5,-21,995,-15,1,-7
4122,-6,-18,999,-13,1,-6
4123,-8,-16,998,-14,2,-6
4124,-9,-15,997,-14,2,-5
4125,-10,-18,998,-15,2,-5
4126,-8,-18,997,-15,2,-6
4127,-8,-20,997,-14,2,-6
4128,-6,-21,997,-15,2,-6
4129,-7,-19,996,-13,2,-7
4130,-7,-19,998,-14,2,-7
4131,-8,-18,999,-15,2,-7
4132,-7,-17,998,-14,0,-7
4133,-7,-19,996,-14,1,-7
4134,-7,-19,998,-14,0,-6
4135,-6,-20,998,-15,-1,-6
4136,-6,-20,999,-16,0,-6
4137,-5,-19,998,-15,0,-6
4138,-5,-17,998,-14,1,-5
4139,-7,-17,998,-13,0,-6
4140,-8,-18,998,-15,0,-5
4141,-7,-19,997,-14,1,-5
4142,-5,-20,996,-14,1,-6
4143,-6,-21,994,-14,0,-6
4144,-6,-22,998,-12,1,-6
4145,-7,-19,999,-13,1,-5
4146,-6,-16,1000,-13,1,-6
4147,-8,-15,999,-15,1,-5
4148,-8,-15,997,-15,-1,-6
4149,-7,-18,996,-14,0,-6
4150,-8,-22,997,-15,0,-7
4151,-7,-25,995,-15,0,-6
4152,-8,-23,998,-12,0,-6
4153,-7,-20,997,-12,1,-6
4154,-6,-18,997,-14,2,-6
4155,-7,-18,996,-15,1,-6
4156,-8,-19,999,-14,2,-5
4157,-7,-19,999,-14,0,-6
4158,-6,-19,1000,-14,0,-6
4159,-5,-18,998,-15,1,-7
4160,-8,-16,998,-14,2,-7
4161,-11,-16,999,-14,1,-5
4162,-9,-19,998,-14,0,-6
4163,-9,-21,996,-15,0,-6
4164,-7,-19,997,-14,1,-6
4165,-6,-21,998,-14,1,-7
4166,-8,-19,996,-14,1,-7
4167,-8,-17,998,-14,1,-6
4168,-9,-17,998,-14,1,-7
4169,-8,-18,998,-14,0,-6
4170,-5,-19,998,-15,1,-6
4171,-6,-20,997,-15,1,-6
4172,-6,-18,999,-15,0,-5
4173,-7,-21,998,-14,1,-7
4174,-7,-19,996,-14,1,-7
4175,-7,-20,996,-14,0,-7
4176,-8,-20,999,-14,0,-6
4177,-6,-20,1001,-13,-1,-7
4178,-5,-18,999,-13,-1,-6
4179,-5,-15,998,-13,0,-6
4180,-8,-17,1000,-14,1,-6
4181,-9,-17,996,-15,2,-5
4182,-7,-20,996,-13,0,-6
4183,-5,-20,1001,-13,-1,-5
4184,-5,-19,997,-15,0,-5
4185,-6,-19,997,-14,0,-6
4186,-9,-19,999,-14,1,-7
4187,-9,-16,997,-15,2,-6
4188,-9,-16,997,-15,1,-6
4189,-8,-19,999,-14,0,-6
4190,-8,-19,996,-14,0,-6
4191,-9,-20,997,-15,1,-6
4192,-7,-21,998,-13,1,-5
4193,-7,-20,997,-13,0,-7
4194,-7,-19,998,-15,2,-7
4195,-8,-19,999,-15,1,-6
4196,-7,-19,998,-14,0,-7
4197,-8,-18,997,-15,0,-6
4198,-6,-19,999,-15,0,-6
4199,-6,-19,997,-14,0,-5
4200,-7,-21,997,-14,2,-5
4201,-9,-20,997,-14,1,-6
4202,-6,-20,998,-13,1,-6
4203,-6,-18,997,-13,1,-7
4204,-4,-19,999,-14,1,-7
4205,-7,-18,997,-14,0,-6
4206,-7,-16,998,-14,1,-6
4207,-8,-18,997,-14,1,-6
4208,-7,-19,997,-13,1,-5
4209,-9,-19,997,-14,1,-5
4210,-7,-19,999,-13,0,-6
4211,-6,-19,999,-14,0,-6
4212,-9,-19,998,-14,2,-6
4213,-8,-18,998,-14,1,-6
4214,-8,-19,1000,-14,1,-5
4215,-9,-20,998,-14,1,-5
4216,-8,-19,998,-15,2,-6
4217,-9,-18,999,-15,-1,-7
4218,-8,-17,999,-14,0,-6
4219,-9,-18,1000,-14,1,-5
4220,-8,-17,997,-16,0,-8
4221,-8,-18,999,-13,0,-7
4222,-7,-18,997,-15,1,-6
4223,-5,-19,998,-13,2,-4
4224,-4,-20,1000,-13,1,-7
4225,-7,-19,999,-13,1,-7
4226,-6,-18,998,-12,1,-6
4227,-8,-18,999,-14,1,-6
4228,-9,-17,998,-16,0,-7
4229,-5,-17,996,-14,0,-6
4230,-6,-19,998,-14,0,-6
4231,-4,-22,998,-14,1,-7
4232,-4,-20,997,-14,2,-6
4233,-7,-19,998,-14,0,-5
4234,-9,-19,998,-14,1,-5
4235,-8,-17,998,-14,0,-6
4236,-7,-19,997,-14,1,-6
4237,-9,-19,998,-13,0,-7
4238,-7,-19,999,-15,1,-5
4239,-7,-19,999,-14,2,-6
4240,-8,-19,998,-14,1,-6
4241,-9,-18,998,-15,1,-5
4242,-8,-19,999,-13,2,-6
4243,-10,-18,998,-14,1,-6
4244,-6,-18,997,-14,0,-5
4245,-7,-19,995,-13,2,-5
4246,-7,-21,998,-15,1,-6
4247,-6,-21,997,-14,-1,-5
4248,-10,-18,997,-15,0,-6
4249,-7,-18,998,-14,1,-6
4250,-6,-20,999,-14,1,-6
4251,-8,-18,998,-16,2,-5
4252,-9,-20,996,-14,1,-6
4253,-6,-19,999,-13,0,-5
4254,-7,-19,997,-12,0,-7
4255,-6,-18,997,-14,1,-7
4256,-5,-18,997,-14,1,-6
4257,-8,-19,999,-14,-1,-6
4258,-7,-17,997,-14,2,-6
4259,-6,-18,1000,-13,1,-6
4260,-6,-19,997,-13,2,-6
4261,-7,-21,997,-13,2,-6
4262,-8,-19,996,-14,1,-6
4263,-8,-19,997,-13,2,-6
4264,-8,-21,995,-13,2,-7
4265,-6,-25,985,-12,3,-5
4266,-6,-28,1003,-12,2,-5
4267,-8,-17,1018,-11,1,-6
4268,-7,-9,998,-11,2,-6
4269,-14,2,991,-15,1,-5
4270,-10,-14,1000,-17,1,-6
4271,-5,-28,985,-16,0,-6
4272,-1,-41,998,-16,1,-5
4273,0,-31,1012,-10,0,-5
4274,2,-25,988,-12,1,-4
4275,-6,-12,997,-11,2,-6
4276,-12,-6,1005,-11,1,-5
4277,-19,-5,995,-16,2,-6
4278,-17,-16,997,-17,0,-7
4279,-7,-24,1000,-16,-1,-6
4280,0,-30,992,-14,0,-5
4281,-1,-27,999,-14,0,-6
4282,-5,-18,1002,-11,2,-5
4283,-11,-14,993,-13,3,-7
4284,-14,-13,996,-15,1,-7
4285,-12,-14,998,-14,0,-7
4286,-9,-17,995,-16,-1,-7
4287,-6,-24,999,-14,0,-6
4288,-4,-25,999,-13,1,-6
4289,-6,-23,995,-13,2,-6
4290,-10,-20,1000,-13,2,-7
4291,-11,-16,999,-14,1,-6
4292,-6,-14,998,-13,0,-6
4293,-5,-15,999,-11,1,-7
4294,-5,-20,998,-14,1,-6
4295,-5,-23,995,-14,1,-6
4296,-7,-24,997,-13,1,-6
4297,-9,-24,998,-13,1,-6
4298,-7,-18,998,-12,1,-6
4299,-6,-15,999,-13,1,-6
4300,-5,-16,998,-14,1,-6
4301,-4,-18,998,-15,1,-7
4302,-5,-23,996,-15,1,-6
4303,-7,-26,998,-15,2,-6
4304,-8,-24,997,-13,2,-5
4305,-9,-20,998,-13,0,-5
4306,-7,-14,998,-13,1,-5
4307,-6,-13,999,-13,1,-5
4308,-5,-17,996,-14,0,-7
4309,-4,-19,998,-15,1,-6
4310,-5,-21,997,-15,1,-5
4311,-5,-24,996,-14,2,-6
4312,-10,-21,998,-12,1,-6
4313,-8,-18,996,-12,1,-6
4314,-8,-15,997,-13,0,-6
4315,-7,-14,997,-14,1,-6
4316,-7,-15,998,-14,1,-6
4317,-9,-19,998,-15,0,-5
4318,-7,-22,998,-13,0,-5
4319,-9,-20,998,-13,0,-7
4320,-8,-19,999,-13,0,-7
4321,-7,-18,996,-13,1,-7
4322,-7,-18,997,-14,1,-5
4323,-9,-17,997,-13,1,-6
4324,-6,-19,998,-14,2,-6
4325,-7,-20,997,-13,1,-5
4326,-7,-21,998,-13,2,-6
4327,-8,-21,997,-14,2,-6
4328,-7,-18,998,-14,1,-6
4329,-7,-18,998,-13,1,-6
4330,-7,-17,998,-13,1,-7
4331,-6,-17,998,-14,1,-6
4332,-6,-18,996,-14,0,-6
4333,-7,-20,996,-15,0,-6
4334,-7,-22,997,-13,0,-6
4335,-8,-20,996,-15,1,-5
4336,-7,-18,997,-13,1,-6
4337,-6,-19,998,-12,0,-4
4338,-8,-17,997,-13,0,-6
4339,-8,-18,998,-13,0,-6
4340,-8,-18,998,-14,1,-6
4341,-7,-20,996,-13,0,-6
4342,-5,-20,996,-15,1,-5
4343,-6,-20,996,-13,1,-5
4344,-6,-19,997,-13,1,-7
4345,-7,-20,997,-13,1,-6
4346,-7,-19,997,-13,0,-5
4347,-7,-20,996,-15,1,-5
4348,-8,-21,998,-15,1,-5
4349,-8,-20,998,-14,2,-7
4350,-7,-21,997,-14,0,-6
4351,-8,-18,998,-14,-1,-6
4352,-8,-18,998,-13,1,-6
4353,-9,-18,997,-13,1,-5
4354,-5,-19,998,-13,1,-6
4355,-5,-19,997,-13,0,-5
4356,-8,-18,997,-14,1,-7
4357,-9,-19,998,-14,2,-6
4358,-7,-18,997,-15,1,-7
4359,-6,-20,998,-13,2,-6
4360,-6,-19,997,-12,1,-7
4361,-5,-19,998,-13,2,-7
4362,-6,-19,998,-14,0,-6
4363,-6,-19,1000,-14,0,-6
4364,-8,-18,997,-13,2,-5
4365,-8,-20,998,-15,2,-5
4366,-6,-17,998,-14,1,-6
4367,-7,-19,999,-12,1,-7
4368,-9,-21,998,-13,0,-6
4369,-9,-18,998,-12,2,-5
4370,-8,-20,997,-14,1,-6
4371,-7,-20,997,-15,0,-6
4372,-6,-19,998,-14,1,-6
4373,-7,-18,997,-14,1,-6
4374,-7,-18,996,-13,0,-6
4375,-8,-19,997,-13,0,-6
4376,-8,-19,998,-12,2,-5
4377,-7,-17,997,-15,1,-6
4378,-7,-18,997,-13,0,-6
4379,-7,-19,998,-13,1,-6
4380,-6,-19,997,-13,2,-6
4381,-7,-18,996,-12,1,-5
4382,-8,-19,997,-13,1,-5
4383,-9,-18,1000,-13,1,-7
4384,-7,-18,1000,-13,1,-6
4385,-8,-19,1000,-15,2,-6
4386,-6,-18,998,-15,1,-7
4387,-6,-19,999,-13,0,-6
4388,-8,-19,999,-14,-4,-7
4389,-7,-19,997,-14,-3,-7
4390,-6,-19,999,-15,1,-7
4391,-7,-18,997,-15,1,-7
4392,-8,-19,999,-13,0,-6
4393,-8,-20,999,-13,0,-6
4394,-7,-19,998,-14,0,-6
4395,-6,-19,997,-14,1,-5
4396,-5,-18,997,-15,1,-6
4397,-7,-19,999,-14,0,-6
4398,-8,-20,999,-15,1,-7
4399,-5,-18,997,-13,2,-6
4400,-7,-20,998,-13,0,-6
4401,-9,-19,998,-15,1,-5
4402,-7,-21,998,-14,0,-5
4403,-6,-20,998,-14,0,-7
4404,-7,-21,998,-14,0,-7
4405,-8,-21,998,-14,1,-6
4406,-7,-18,997,-13,0,-6
4407,-6,-19,998,-14,0,-6
4408,-7,-19,997,-14,0,-6
4409,-8,-21,998,-14,0,-6
4410,-7,-20,998,-13,0,-6
4411,-6,-17,998,-13,0,-6
4412,-6,-19,997,-14,2,-5
4413,-6,-21,998,-13,2,-6
4414,-8,-20,998,-13,1,-5
4415,-8,-18,998,-12,2,-7
4416,-7,-17,997,-15,2,-6
4417,-9,-18,998,-14,3,-6
4418,-7,-19,997,-14,1,-6
4419,-7,-20,996,-14,1,-6
4420,-7,-20,997,-13,1,-7
4421,-8,-19,997,-14,1,-7
4422,-7,-20,997,-15,2,-6
4423,-7,-20,996,-13,1,-7
4424,-8,-19,998,-14,-1,-6
4425,-6,-20,997,-14,1,-5
4426,-8,-19,998,-14,1,-6
4427,-9,-18,999,-14,2,-5
4428,-8,-19,999,-14,1,-7
4429,-7,-20,998,-13,1,-6
4430,-6,-20,996,-13,1,-6
4431,-7,-19,997,-14,0,-6
4432,-7,-19,999,-14,1,-6
4433,-8,-19,998,-13,0,-6
4434,-8,-18,999,-14,0,-6
4435,-8,-19,998,-15,1,-6
4436,-8,-18,999,-14,1,-7
4437,-8,-21,997,-12,0,-7
4438,-8,-19,998,-15,1,-7
4439,-6,-20,996,-13,1,-7
4440,-7,-19,997,-14,-1,-5
4441,-7,-18,998,-13,1,-6
4442,-8,-21,998,-13,1,-6
4443,-7,-21,996,-12,1,-7
4444,-7,-19,998,-13,1,-6
4445,-8,-19,997,-14,0,-6
4446,-8,-20,998,-12,2,-5
4447,-8,-18,999,-12,0,-6
4448,-8,-19,997,-15,1,-6
4449,-6,-20,996,-13,0,-7
4450,-7,-18,998,-14,0,-7
4451,-8,-17,998,-14,-1,-6
4452,-6,-19,998,-15,0,-6
4453,-9,-20,998,-14,1,-6
4454,-7,-19,998,-14,1,-6
4455,-8,-19,998,-14,1,-6
4456,-7,-19,998,-14,2,-6
4457,-7,-19,998,-14,1,-7
4458,-8,-19,998,-14,0,-6
4459,-7,-19,997,-14,0,-7
4460,-8,-19,997,-13,0,-6
4461,-8,-17,996,-14,0,-7
4462,-7,-18,997,-14,0,-6
4463,-9,-21,999,-12,2,-6
4464,-6,-19,999,-14,1,-6
4465,-8,-18,998,-14,1,-6
4466,-6,-20,997,-13,1,-7
4467,-6,-20,996,-15,2,-7
4468,-5,-19,998,-14,1,-7
4469,-7,-17,998,-13,1,-6
4470,-8,-19,998,-15,1,-6
4471,-8,-19,996,-14,1,-5
4472,-7,-19,999,-14,1,-6
4473,-8,-18,998,-13,2,-6
4474,-8,-18,997,-14,1,-6
4475,-6,-18,997,-14,1,-6
4476,-6,-20,999,-12,1,-6
4477,-8,-18,998,-13,0,-6
4478,-6,-19,998,-12,1,-6
4479,-9,-19,999,-14,1,-5
4480,-9,-18,998,-14,1,-5
4481,-8,-18,997,-13,2,-7
4482,-6,-20,998,-14,1,-8
4483,-6,-21,998,-14,1,-6
4484,-7,-20,997,-12,1,-6
4485,-8,-19,998,-12,1,-6
4486,-9,-18,998,-14,1,-6
4487,-7,-20,999,-13,2,-6
4488,-7,-21,998,-12,0,-6
4489,-6,-18,997,-13,0,-6
4490,-7,-18,1000,-14,1,-5
4491,-6,-18,998,-12,1,-6
4492,-6,-20,997,-13,2,-5
4493,-6,-19,998,-14,1,-5
4494,-8,-19,998,-14,1,-5
4495,-5,-20,997,-14,1,-5
4496,-8,-20,998,-14,0,-6
4497,-8,-22,997,-13,1,-5
4498,-8,-19,999,-15,1,-5
4499,-7,-19,997,-14,0,-7
4500,-8,-20,998,-13,1,-7
4501,-8,-19,999,-14,1,-6
4502,-7,-19,998,-14,1,-6
4503,-8,-20,997,-14,1,-6
4504,-8,-19,996,-14,1,-6
4505,-9,-19,997,-15,0,-5
4506,-7,-20,995,-14,1,-5
4507,-7,-21,997,-13,1,-6
4508,-9,-19,1001,-14,1,-6
4509,-8,-16,998,-14,1,-5
4510,-8,-14,998,-13,0,-6
4511,-8,-16,998,-15,0,-7
4512,-7,-20,995,-16,0,-6
4513,-8,-22,996,-15,1,-5
4514,-6,-24,999,-14,1,-5
4515,-5,-23,997,-13,0,-5
4516,-4,-21,997,-15,1,-4
4517,-5,-19,998,-13,1,-6
4518,-7,-18,997,-11,2,-5
4519,-9,-17,998,-14,2,-6
4520,-9,-19,999,-15,1,-5
4521,-8,-20,997,-13,2,-5
4522,-8,-23,998,-13,0,-7
4523,-5,-21,998,-13,1,-6
4524,-8,-20,998,-13,2,-7
4525,-7,-19,998,-12,0,-6
4526,-5,-17,999,-14,1,-7
4527,-8,-19,997,-15,2,-7
4528,-9,-18,998,-15,2,-6
4529,-7,-19,997,-14,0,-6
4530,-6,-20,996,-13,0,-7
4531,-9,-19,998,-14,0,-7
4532,-9,-17,999,-15,0,-6
4533,-8,-16,997,-11,1,-7
4534,-8,-18,997,-14,0,-7
4535,-6,-18,997,-13,0,-6
4536,-5,-19,997,-15,1,-7
4537,-6,-21,999,-14,2,-6
4538,-9,-20,998,-13,1,-7
4539,-6,-18,996,-12,1,-6
4540,-7,-19,998,-13,1,-5
4541,-6,-18,996,-14,1,-6
4542,-6,-18,998,-14,0,-6
4543,-4,-20,998,-14,1,-7
4544,-6,-20,997,-12,2,-5
4545,-8,-21,998,-13,1,-5
4546,-7,-22,996,-13,2,-6
4547,-7,-19,998,-13,1,-7
4548,-6,-20,991,-13,1,-6
4549,-5,-22,1001,-12,1,-5
4550,-6,-17,1006,-12,1,-6
4551,-8,-17,1001,-12,0,-6
4552,-10,-11,995,-13,1,-6
4553,-10,-12,998,-15,1,-6
4554,-8,-17,993,-15,0,-6
4555,-6,-23,998,-14,-1,-6
4556,-5,-23,1000,-14,0,-7
4557,-4,-22,994,-12,1,-6
4558,-6,-15,998,-13,1,-6
4559,-9,-15,1000,-12,2,-5
4560,-10,-12,997,-15,2,-5
4561,-10,-16,999,-14,2,-6
4562,-7,-19,1000,-14,0,-6
4563,-5,-22,994,-14,0,-5
4564,-6,-23,996,-14,1,-5
4565,-6,-22,998,-14,1,-5
4566,-8,-20,995,-13,2,-5
4567,-10,-17,998,-14,2,-6
4568,-9,-18,997,-14,1,-5
4569,-10,-19,995,-14,1,-6
4570,-7,-19,997,-14,2,-5
4571,-5,-22,995,-14,1,-5
4572,-6,-23,995,-13,2,-7
4573,-7,-21,999,-13,2,-5
4574,-8,-18,999,-12,1,-7
4575,-8,-15,1000,-13,1,-7
4576,-9,-15,999,-14,0,-7
4577,-7,-17,997,-14,1,-7
4578,-6,-19,999,-15,0,-6
4579,-5,-22,999,-14,1,-6
4580,-6,-22,997,-14,1,-7
4581,-7,-22,998,-13,1,-6
4582,-4,-19,997,-13,0,-7
4583,-5,-18,996,-13,1,-6
4584,-6,-18,997,-14,1,-6
4585,-6,-20,998,-16,1,-7
4586,-5,-20,997,-13,0,-6
4587,-7,-20,998,-13,2,-5
4588,-7,-19,997,-12,1,-6
4589,-7,-18,998,-12,0,-5
4590,-8,-17,998,-14,1,-5
4591,-6,-16,999,-14,1,-5
4592,-7,-18,997,-15,1,-6
4593,-8,-20,997,-14,0,-6
4594,-8,-20,996,-14,1,-6
4595,-8,-20,998,-14,0,-6
4596,-8,-18,998,-12,1,-7
4597,-8,-17,998,-13,0,-7
4598,-7,-17,998,-14,0,-7
4599,-9,-18,997,-14,0,-7
4600,-6,-19,999,-14,1,-6
4601,-6,-21,997,-13,0,-7
4602,-6,-22,997,-13,2,-6
4603,-6,-20,998,-13,1,-6
4604,-7,-20,996,-12,2,-6
4605,-6,-20,996,-14,1,-5
4606,-9,-20,996,-13,0,-6
4607,-5,-21,1002,-13,0,-7
4608,-6,-19,999,-14,0,-6
4609,-6,-18,998,-13,1,-5
4610,-7,-15,998,-13,1,-6
4611,-8,-16,999,-14,1,-6
4612,-8,-18,996,-14,1,-6
4613,-7,-19,1000,-14,0,-5
4614,-6,-20,996,-13,0,-6
4615,-7,-22,996,-14,0,-6
4616,-8,-19,999,-14,0,-5
4617,-7,-19,998,-14,0,-6
4618,-7,-18,997,-14,1,-7
4619,-8,-19,999,-15,2,-6
4620,-7,-19,998,-14,1,-6
4621,-7,-18,996,-14,0,-6
4622,-7,-20,998,-14,0,-5
4623,-7,-20,998,-13,-1,-6
4624,-9,-21,997,-14,1,-6
4625,-7,-20,998,-14,0,-6
4626,-8,-19,998,-15,0,-6
4627,-9,-18,997,-14,1,-6
4628,-8,-16,999,-14,1,-7
4629,-7,-19,996,-12,1,-5
4630,-6,-19,996,-12,1,-6
4631,-8,-19,997,-14,1,-6
4632,-8,-19,998,-13,1,-6
4633,-7,-18,998,-12,2,-7
4634,-6,-17,999,-13,1,-6
4635,-6,-16,997,-14,1,-6
4636,-7,-18,998,-13,2,-5
4637,-6,-20,998,-14,2,-6
4638,-7,-20,998,-13,2,-5
4639,-5,-19,998,-13,1,-6
4640,-5,-19,998,-13,2,-6
4641,-9,-20,998,-13,1,-6
4642,-9,-19,999,-13,1,-5
4643,-5,-20,997,-14,2,-6
4644,-6,-21,999,-13,2,-6
4645,-7,-19,997,-14,1,-7
4646,-6,-20,998,-13,0,-6
4647,-6,-17,997,-14,-1,-6
4648,-9,-17,998,-13,0,-6
4649,-7,-17,998,-14,1,-6
4650,-8,-18,998,-13,1,-7
4651,-4,-20,998,-13,0,-6
4652,-6,-20,998,-14,0,-6
4653,-7,-19,998,-14,1,-6
4654,-8,-17,997,-13,-1,-6
4655,-7,-16,998,-16,1,-6
4656,-8,-19,997,-14,1,-6
4657,-9,-20,999,-13,0,-5
4658,-9,-19,998,-13,1,-6
4659,-8,-20,997,-13,2,-6
4660,-7,-20,999,-15,1,-6
4661,-8,-18,997,-14,0,-7
4662,-10,-19,998,-14,0,-7
4663,-7,-19,998,-13,1,-5
4664,-7,-19,997,-14,0,-6
4665,-8,-19,998,-13,0,-6
4666,-6,-20,998,-15,1,-5
4667,-5,-19,998,-13,1,-6
4668,-7,-20,998,-14,1,-6
4669,-6,-18,998,-14,-1,-6
4670,-6,-17,999,-14,0,-5
4671,-5,-17,999,-15,2,-4
4672,-8,-17,998,-14,2,-5
4673,-8,-18,998,-14,2,-6
4674,-6,-18,996,-15,1,-5
4675,-7,-19,996,-14,0,-7
4676,-6,-19,996,-13,0,-6
4677,-8,-20,997,-15,1,-6
4678,-7,-18,997,-13,1,-7
4679,-6,-18,997,-13,1,-6
4680,-8,-19,998,-13,0,-5
4681,-7,-19,998,-12,1,-6
4682,-7,-19,998,-14,1,-6
4683,-8,-19,996,-14,0,-6
4684,-6,-20,997,-14,1,-4
4685,-5,-20,995,-14,1,-7
4686,-8,-19,998,-14,0,-6
4687,-6,-19,999,-14,1,-6
4688,-7,-21,999,-14,0,-7
4689,-7,-19,996,-14,0,-7
4690,-7,-21,998,-13,1,-6
4691,-7,-18,997,-14,-1,-5
4692,-6,-18,998,-13,1,-6
4693,-7,-21,997,-14,0,-6
4694,-7,-18,999,-14,1,-6
4695,-8,-19,997,-14,0,-6
4696,-7,-17,995,-13,1,-6
4697,-8,-18,998,-15,2,-6
4698,-8,-18,998,-13,0,-6
4699,-6,-18,997,-13,0,-7
4700,-7,-19,997,-15,1,-6
4701,-8,-19,997,-14,1,-6
4702,-6,-20,997,-13,2,-5
4703,-8,-20,997,-13,1,-6
4704,-6,-20,998,-15,1,-7
4705,-7,-20,998,-15,0,-6
4706,-7,-20,999,-13,1,-6
4707,-6,-20,997,-13,2,-6
4708,-6,-19,998,-14,0,-5
4709,-8,-20,997,-14,1,-7
4710,-7,-20,999,-15,1,-6
4711,-6,-19,998,-15,1,-6
4712,-7,-19,997,-14,0,-6
4713,-6,-19,997,-15,1,-6
4714,-7,-18,996,-14,2,-5
4715,-8,-18,997,-15,2,-6
4716,-8,-20,998,-14,1,-7
4717,-8,-20,998,-14,2,-5
4718,-6,-19,998,-14,1,-6
4719,-5,-19,998,-13,2,-6
4720,-7,-19,998,-15,1,-6
4721,-7,-19,998,-13,1,-6
4722,-7,-18,998,-13,0,-6
4723,-7,-18,999,-8,-3,-9
4724,-7,-20,998,-7,-3,-9
4725,-6,-19,997,-13,1,-6
4726,-8,-19,998,-15,1,-5
4727,-6,-20,997,-14,0,-5
4728,-7,-19,997,-14,1,-6
4729,-6,-19,997,-13,1,-6
4730,-6,-19,998,-14,2,-6
4731,-7,-19,996,-14,0,-5
4732,-3,-23,989,-13,0,-5
4733,-6,-24,995,-12,1,-5
4734,-6,-22,1006,-12,1,-7
4735,-9,-16,1002,-12,0,-5
4736,-10,-12,997,-13,3,-6
4737,-10,-12,1000,-15,1,-7
4738,-6,-18,996,-16,0,-5
4739,-3,-25,988,-15,0,-6
4740,-3,-34,999,-14,0,-7
4741,-6,-26,1012,-12,1,-7
4742,-10,-15,999,-11,3,-6
4743,-13,-7,994,-12,3,-5
4744,-14,-4,1001,-16,2,-5
4745,-11,-13,996,-17,2,-6
4746,-4,-25,992,-17,1,-7
4747,-4,-29,1005,-15,-1,-7
4748,-1,-27,992,-13,0,-6
4749,-4,-21,994,-12,2,-6
4750,-8,-16,1000,-11,2,-6
4751,-12,-11,999,-12,2,-6
4752,-11,-13,998,-12,0,-6
4753,-9,-16,1001,-16,-1,-6
4754,-5,-21,996,-15,0,-7
4755,-6,-26,997,-15,1,-6
4756,-5,-24,1000,-15,1,-6
4757,-7,-19,995,-13,1,-6
4758,-8,-15,998,-11,1,-5
4759,-8,-15,999,-13,0,-5
4760,-9,-16,998,-15,0,-6
4761,-7,-18,998,-16,0,-7
4762,-8,-21,999,-14,0,-6
4763,-8,-22,996,-15,-1,-6
4764,-8,-22,999,-14,0,-6
4765,-10,-18,999,-12,0,-7
4766,-8,-15,996,-13,1,-6
4767,-10,-13,997,-16,1,-5
4768,-7,-18,1000,-15,0,-6
4769,-7,-20,997,-15,1,-6
4770,-7,-25,996,-14,1,-6
4771,-7,-24,996,-13,1,-7
4772,-9,-20,997,-13,0,-7
4773,-7,-18,998,-12,1,-7
4774,-8,-16,999,-13,0,-7
4775,-7,-16,999,-14,1,-6
4776,-7,-18,998,-15,1,-6
4777,-7,-22,996,-15,0,-5
4778,-4,-27,991,-14,1,-5
4779,-6,-26,1004,-13,1,-5
4780,-7,-19,1005,-11,1,-7
4781,-7,-12,999,-12,1,-6
4782,-10,-9,996,-14,2,-6
4783,-8,-12,998,-15,1,-6
4784,-8,-22,993,-15,1,-6
4785,-4,-27,998,-15,1,-7
4786,-2,-27,1000,-15,1,-6
4787,-4,-26,995,-12,2,-5
4788,-5,-20,998,-13,2,-6
4789,-9,-15,998,-12,3,-6
4790,-10,-13,997,-15,3,-4
4791,-10,-15,998,-15,1,-6
4792,-7,-19,996,-14,1,-6
4793,-6,-24,994,-14,1,-6
4794,-5,-23,997,-13,0,-6
4795,-7,-21,998,-13,0,-6
4796,-8,-19,997,-14,1,-6
4797,-10,-17,998,-13,0,-6
4798,-11,-18,996,-14,0,-6
4799,-9,-19,997,-13,0,-6
4800,-7,-19,1002,-13,1,-6
4801,-6,-16,1000,-14,1,-7
4802,-6,-15,997,-14,2,-6
4803,-9,-14,997,-13,1,-7
4804,-8,-16,996,-14,1,-6
4805,-6,-19,997,-13,1,-6
4806,-6,-21,997,-15,1,-6
4807,-3,-23,997,-13,1,-6
4808,-4,-22,999,-13,2,-6
4809,-6,-21,999,-14,2,-6
4810,-10,-16,998,-13,1,-6
4811,-10,-16,999,-12,1,-6
