sequence,AccelerometerX,AccelerometerY,AccelerometerZ,GyroscopeX,GyroscopeY,GyroscopeZ
0,-6,-19,998,-16,2,-4
1,-9,-18,1000,-18,1,-5
2,-10,-20,1000,-19,1,-5
3,-10,-18,998,-21,6,-3
4,-9,-17,999,-19,1,-5
5,-9,-17,999,-14,1,-5
6,-10,-19,1000,-15,2,-5
7,-8,-17,997,-19,-1,-6
8,-9,-20,998,-14,1,-7
9,-10,-16,998,-18,1,-6
10,-10,-18,999,-15,0,-6
11,-10,-17,999,-14,1,-5
12,-10,-18,1000,-19,1,-6
13,-8,-16,999,-16,2,-5
14,-9,-17,997,-18,1,-5
15,-10,-17,999,-16,1,-4
16,-10,-17,998,-14,1,-5
17,-9,-16,998,-17,0,-6
18,-10,-18,998,-17,1,-6
19,-9,-16,1000,-17,0,-6
20,-10,-16,999,-18,1,-5
21,-9,-16,998,-16,1,-6
22,-11,-18,998,-16,0,-5
23,-11,-18,998,-15,0,-5
24,-12,-18,998,-14,1,-6
25,-10,-17,998,-16,1,-6
26,-8,-17,999,-16,-1,-4
27,-9,-18,997,-17,1,-5
28,-9,-18,998,-15,1,-6
29,-9,-17,997,-15,0,-6
30,-9,-19,997,-16,-1,-6
31,-8,-20,999,-16,1,-5
32,-9,-17,998,-16,1,-5
33,-8,-19,998,-16,0,-7
34,-7,-19,997,-14,0,-6
35,-7,-17,999,-16,1,-5
36,-8,-18,998,-16,1,-5
37,-7,-20,999,-16,1,-5
38,-6,-20,998,-15,0,-6
39,-8,-18,999,-16,1,-6
40,-9,-20,999,-15,1,-6
41,-9,-19,999,-17,0,-5
42,-10,-20,1000,-17,0,-6
43,-8,-18,999,-17,0,-6
44,-9,-17,1000,-17,1,-5
45,-9,-18,998,-16,1,-5
46,-8,-18,1000,-14,0,-5
47,-9,-20,999,-15,0,-5
48,-6,-20,999,-14,1,-5
49,-10,-17,999,-16,0,-6
50,-8,-18,998,-15,0,-5
51,-5,-17,998,-15,0,-5
52,-8,-19,1001,-16,1,-6
53,-8,-19,997,-16,2,-6
54,-9,-19,998,-16,1,-5
55,-6,-18,996,-16,0,-5
56,-8,-20,997,-16,0,-5
57,-7,-18,999,-18,-1,-6
58,-6,-18,999,-17,0,-6
59,-7,-17,997,-15,0,-6
60,-8,-18,999,-17,-1,-5
61,-9,-19,999,-16,1,-6
62,-9,-20,997,-17,1,-6
63,-10,-18,999,-17,1,-5
64,-9,-21,998,-15,1,-4
65,-9,-17,1000,-17,0,-5
66,-7,-19,998,-15,0,-4
67,-9,-17,1000,-15,0,-5
68,-8,-17,999,-16,1,-6
69,-8,-17,1000,-15,1,-5
70,-10,-18,999,-17,0,-5
71,-9,-19,1000,-17,0,-5
72,-9,-19,999,-15,1,-6
73,-10,-18,1002,-17,2,-6
74,-7,-18,1001,-15,1,-5
75,-10,-19,1001,-16,2,-6
76,-9,-18,1000,-16,1,-5
77,-10,-18,1000,-16,1,-5
78,-9,-19,1001,-15,1,-5
79,-10,-19,998,-16,1,-5
80,-8,-19,999,-15,1,-6
81,-9,-17,998,-16,1,-5
82,-7,-15,999,-15,0,-5
83,-7,-15,998,-16,0,-5
84,-8,-16,1000,-18,2,-6
85,-6,-17,997,-15,2,-4
86,-10,-19,999,-15,2,-5
87,-9,-18,998,-16,2,-5
88,-10,-19,999,-15,1,-6
89,-10,-19,999,-16,1,-6
90,-10,-18,999,-15,1,-5
91,-9,-18,998,-15,2,-6
92,-9,-19,997,-16,1,-6
93,-8,-18,998,-16,1,-4
94,-9,-16,998,-16,1,-5
95,-10,-19,1000,-16,0,-6
96,-11,-19,999,-17,0,-6
97,-11,-18,998,-16,0,-5
98,-9,-17,999,-15,0,-5
99,-9,-17,999,-15,1,-6
100,-10,-19,998,-15,1,-5
101,-11,-18,997,-14,1,-5
102,-11,-18,998,-16,-1,-6
103,-9,-18,999,-15,0,-6
104,-11,-18,999,-16,0,-6
105,-9,-19,998,-16,1,-5
106,-8,-18,1000,-16,0,-6
107,-9,-18,997,-15,-1,-6
108,-9,-18,998,-17,0,-6
109,-8,-18,1000,-16,0,-5
110,-8,-19,999,-15,0,-6
111,-9,-16,999,-16,0,-6
112,-9,-19,997,-15,1,-6
113,-10,-18,999,-14,1,-6
114,-14,-19,994,-15,2,-6
115,-15,-15,1001,-16,1,-5
116,-11,-14,1002,-14,-1,-7
117,-6,-12,997,-17,0,-7
118,-3,-18,996,-18,-1,-7
119,-5,-22,1003,-18,0,-6
120,-7,-25,997,-16,1,-5
121,-9,-24,999,-15,0,-5
122,-10,-18,1001,-15,1,-5
123,-8,-17,997,-15,1,-7
124,-8,-17,1000,-15,1,-6
125,-5,-16,1001,-16,1,-5
126,-6,-19,997,-16,0,-5
127,-7,-22,997,-16,2,-6
128,-8,-22,1000,-16,1,-7
129,-9,-19,999,-17,1,-5
130,-7,-16,1000,-16,0,-5
131,-8,-15,1001,-16,2,-4
132,-9,-16,1001,-15,1,-6
133,-9,-19,1001,-16,1,-5
134,-11,-20,1000,-17,2,-6
135,-9,-21,999,-17,2,-5
136,-8,-19,997,-16,1,-6
137,-8,-18,997,-14,1,-6
138,-7,-17,998,-15,-1,-6
139,-8,-17,999,-16,0,-6
140,-7,-17,998,-16,1,-5
141,-8,-17,996,-17,0,-5
142,-8,-17,999,-17,0,-5
143,-8,-19,999,-16,1,-5
144,-9,-19,998,-16,0,-5
145,-7,-17,997,-16,1,-5
146,-9,-16,997,-15,2,-5
147,-11,-17,997,-17,2,-5
148,-11,-17,999,-16,2,-5
149,-7,-19,997,-18,1,-5
150,-8,-19,1000,-16,1,-5
151,-8,-20,1000,-14,0,-5
152,-8,-19,999,-16,1,-6
153,-8,-18,1001,-17,2,-6
154,-9,-19,999,-16,0,-5
155,-8,-18,1000,-15,0,-7
156,-10,-21,1000,-15,-1,-6
157,-9,-20,1001,-15,2,-5
158,-8,-19,999,-15,1,-5
159,-8,-18,1000,-16,0,-6
160,-9,-17,1000,-16,0,-6
161,-11,-17,1001,-16,1,-6
162,-8,-17,1000,-16,0,-6
163,-10,-18,1001,-15,1,-6
164,-10,-19,999,-16,0,-5
165,-8,-18,999,-15,-1,-6
166,-8,-17,998,-16,1,-6
167,-7,-18,1000,-14,1,-5
168,-10,-17,999,-15,1,-5
169,-10,-17,1000,-17,1,-5
170,-9,-16,999,-16,0,-5
171,-9,-16,999,-17,1,-4
172,-9,-17,997,-15,1,-5
173,-9,-16,999,-14,1,-5
174,-9,-18,997,-14,1,-6
175,-9,-17,1000,-15,1,-5
176,-10,-17,998,-15,0,-6
177,-12,-15,999,-16,0,-5
178,-11,-16,999,-17,1,-5
179,-9,-16,998,-16,0,-6
180,-9,-16,998,-15,0,-5
181,-8,-18,999,-15,0,-5
182,-8,-17,999,-15,0,-6
183,-8,-18,1000,-16,1,-6
184,-9,-17,1000,-16,2,-5
185,-10,-18,999,-16,1,-5
186,-8,-18,999,-17,0,-5
187,-10,-17,999,-17,1,-5
188,-10,-19,1000,-16,0,-5
189,-10,-18,999,-16,0,-5
190,-8,-19,998,-14,0,-5
191,-8,-20,997,-16,0,-7
192,-8,-18,998,-16,1,-5
193,-8,-18,999,-15,1,-5
194,-8,-19,997,-17,1,-6
195,-9,-19,1000,-16,1,-7
196,-9,-20,998,-16,2,-5
197,-8,-18,997,-15,0,-6
198,-8,-19,998,-15,1,-6
199,-8,-18,998,-15,1,-5
200,-9,-19,998,-16,0,-5
201,-10,-19,998,-16,1,-5
202,-9,-19,999,-16,1,-6
203,-9,-18,999,-16,1,-6
204,-8,-18,999,-15,0,-6
205,-9,-20,999,-15,0,-4
206,-9,-18,999,-16,1,-5
207,-9,-15,998,-16,1,-7
208,-11,-17,1000,-15,-1,-6
209,-10,-16,1000,-15,0,-6
210,-9,-16,999,-15,0,-5
211,-10,-17,1000,-15,0,-5
212,-10,-17,999,-15,-1,-7
213,-8,-18,999,-15,0,-7
214,-10,-17,1000,-16,0,-5
215,-9,-17,1001,-16,-1,-5
216,-6,-20,1000,-17,-1,-6
217,-8,-17,1000,-16,1,-5
218,-9,-17,999,-16,1,-6
219,-7,-17,999,-17,0,-6
220,-7,-18,999,-16,0,-5
221,-9,-20,999,-16,1,-6
222,-6,-20,999,-16,1,-6
223,-7,-19,999,-16,1,-6
224,-5,-18,999,-17,0,-7
225,-8,-19,999,-17,1,-6
226,-7,-19,999,-17,1,-6
227,-9,-19,998,-17,0,-6
228,-9,-20,999,-16,0,-6
229,-8,-20,999,-16,1,-5
230,-9,-18,998,-16,1,-6
231,-8,-20,999,-16,0,-5
232,-7,-20,1000,-17,1,-4
233,-9,-16,999,-17,1,-5
234,-9,-17,999,-16,-1,-4
235,-9,-18,998,-15,-1,-6
236,-10,-18,1000,-18,1,-6
237,-10,-17,999,-17,1,-5
238,-10,-18,999,-17,0,-5
239,-8,-18,998,-18,0,-5
240,-8,-18,998,-16,2,-5
241,-8,-17,1000,-17,0,-6
242,-7,-17,1000,-16,2,-5
243,-7,-16,1000,-18,1,-6
244,-8,-17,1001,-16,1,-6
245,-11,-17,1001,-16,0,-5
246,-9,-19,997,-17,1,-5
247,-9,-20,998,-17,2,-4
248,-7,-20,1000,-17,0,-4
249,-9,-18,999,-17,1,-5
250,-8,-18,999,-14,0,-5
251,-9,-15,999,-16,-1,-6
252,-9,-14,999,-17,1,-5
253,-9,-16,1000,-16,1,-5
254,-7,-19,1001,-17,1,-5
255,-6,-21,999,-16,1,-6
256,-7,-21,999,-16,0,-6
257,-7,-21,1000,-17,0,-6
258,-8,-20,1000,-17,0,-5
259,-9,-20,999,-17,1,-5
260,-8,-20,998,-17,1,-5
261,-8,-21,999,-17,2,-5
262,-8,-20,1000,-16,0,-5
263,-9,-20,997,-16,1,-5
264,-9,-19,997,-15,1,-4
265,-9,-17,998,-15,0,-5
266,-9,-16,997,-16,1,-5
267,-10,-17,996,-16,1,-5
268,-11,-19,999,-18,0,-4
269,-10,-19,997,-18,0,-5
270,-11,-17,998,-17,1,-5
271,-10,-19,999,-16,1,-6
272,-9,-18,1000,-15,1,-6
273,-10,-16,999,-16,1,-5
274,-10,-16,1000,-15,1,-5
275,-10,-16,998,-15,1,-6
276,-10,-17,999,-17,1,-5
277,-10,-17,999,-17,0,-6
278,-11,-17,998,-17,-1,-6
279,-9,-18,996,-15,0,-7
280,-10,-18,998,-16,-1,-5
281,-11,-17,998,-17,-1,-4
282,-9,-16,1001,-17,1,-6
283,-8,-18,998,-17,1,-6
284,-7,-20,999,-16,0,-5
285,-8,-20,997,-16,0,-6
286,-9,-21,998,-17,0,-6
287,-9,-19,999,-17,0,-5
288,-8,-20,998,-17,1,-6
289,-8,-19,998,-17,0,-5
290,-6,-19,999,-16,1,-6
291,-6,-22,998,-16,0,-6
292,-7,-22,999,-16,1,-6
293,-9,-22,997,-16,1,-6
294,-7,-22,1000,-17,0,-6
295,-7,-20,998,-16,0,-6
296,-6,-19,999,-16,0,-6
297,-7,-19,998,-16,2,-5
298,-8,-18,1000,-16,1,-6
299,-7,-20,999,-19,1,-5
300,-8,-19,999,-17,-1,-5
301,-7,-20,998,-16,0,-5
302,-6,-20,998,-16,1,-5
303,-10,-20,1001,-16,1,-6
304,-8,-17,999,-16,1,-5
305,-9,-17,999,-18,1,-4
306,-7,-18,1000,-16,0,-5
307,-8,-19,999,-17,1,-6
308,-7,-19,999,-17,0,-5
309,-7,-19,1000,-17,0,-4
310,-9,-18,1000,-15,1,-5
311,-8,-18,998,-17,0,-4
312,-10,-17,998,-17,0,-5
313,-9,-18,998,-16,1,-5
314,-6,-17,999,-16,0,-5
315,-8,-18,999,-16,2,-6
316,-7,-20,999,-15,2,-5
317,-9,-18,997,-17,0,-6
318,-9,-18,998,-17,1,-5
319,-9,-18,998,-16,1,-5
320,-9,-18,997,-16,2,-4
321,-12,-18,998,-17,1,-5
322,-9,-19,1000,-15,0,-4
323,-7,-19,999,-16,1,-4
324,-8,-20,1000,-16,1,-5
325,-9,-18,999,-15,-1,-6
326,-9,-18,1000,-16,0,-5
327,-8,-20,998,-16,-1,-5
328,-8,-19,999,-17,0,-6
329,-7,-20,1000,-17,2,-5
330,-9,-20,999,-16,2,-5
331,-8,-18,1000,-16,1,-6
332,-8,-22,1000,-16,0,-4
333,-8,-21,1001,-15,0,-5
334,-9,-19,999,-16,0,-5
335,-9,-16,999,-15,1,-6
336,-10,-17,998,-16,2,-6
337,-13,-13,1003,-15,1,-4
338,-11,-11,999,-16,1,-5
339,-8,-13,998,-16,1,-4
340,-8,-18,999,-17,2,-4
341,-8,-18,1001,-16,1,-6
342,-10,-19,998,-14,0,-5
343,-10,-18,1000,-9,-2,-7
344,-11,-16,998,-4,3,-5
345,-11,-13,999,-15,1,-4
346,-9,-14,999,-15,2,-5
347,-6,-16,1001,-15,1,-5
348,-10,-16,999,-16,0,-5
349,-11,-19,998,-15,0,-5
350,-10,-19,999,-16,0,-6
351,-10,-18,998,-17,0,-6
352,-10,-16,999,-16,1,-6
353,-10,-17,998,-17,0,-5
354,-10,-17,999,-15,0,-6
355,-7,-19,999,-17,1,-5
356,-8,-21,998,-16,1,-6
357,-8,-22,1000,-16,1,-5
358,-10,-20,999,-17,2,-5
359,-10,-21,999,-16,1,-5
360,-9,-19,999,-15,1,-6
361,-8,-17,999,-15,0,-5
362,-9,-19,998,-15,0,-6
363,-10,-20,998,-17,0,-6
364,-9,-18,999,-17,2,-5
365,-8,-18,998,-17,1,-6
366,-10,-19,998,-15,1,-6
367,-10,-19,997,-15,1,-5
368,-10,-18,999,-16,1,-5
369,-11,-16,997,-15,1,-6
370,-12,-16,999,-15,0,-5
371,-11,-17,998,-17,0,-6
372,-9,-17,998,-16,2,-6
373,-11,-20,998,-16,1,-6
374,-9,-17,997,-16,1,-4
375,-10,-17,998,-14,0,-5
376,-9,-16,999,-15,0,-6
377,-10,-17,998,-16,1,-7
378,-10,-17,998,-16,1,-6
379,-9,-19,1000,-16,0,-6
380,-10,-19,1000,-16,-1,-5
381,-8,-18,998,-16,0,-5
382,-9,-20,998,-15,0,-6
383,-9,-19,999,-16,0,-6
384,-8,-18,998,-16,0,-6
385,-6,-19,1000,-14,-1,-5
386,-7,-21,1000,-15,0,-5
387,-8,-21,1000,-17,-1,-7
388,-5,-21,999,-17,-1,-6
389,-8,-19,999,-17,0,-5
390,-7,-20,1000,-16,0,-6
391,-9,-19,998,-15,0,-6
392,-6,-20,999,-17,2,-6
393,-7,-18,999,-16,0,-7
394,-7,-18,998,-16,0,-6
395,-8,-18,999,-16,0,-6
396,-9,-18,997,-16,1,-4
397,-14,-19,996,-15,2,-6
398,-14,-13,1003,-16,-1,-6
399,-9,-11,1003,-17,-1,-6
400,-4,-15,995,-18,2,-6
401,-3,-19,1001,-17,0,-5
402,-6,-23,1002,-16,0,-5
403,-9,-23,995,-17,2,-5
404,-12,-22,999,-15,1,-4
405,-11,-16,1002,-14,1,-6
406,-10,-13,996,-15,-1,-6
407,-8,-15,1000,-15,0,-6
408,-7,-16,1002,-16,2,-7
409,-8,-18,998,-18,1,-5
410,-10,-23,997,-15,0,-6
411,-10,-22,1001,-16,0,-5
412,-8,-19,999,-14,1,-6
413,-7,-15,999,-14,0,-5
414,-7,-14,999,-15,0,-4
415,-8,-16,1000,-17,0,-6
416,-9,-18,1000,-18,1,-5
417,-11,-21,999,-15,1,-5
418,-11,-23,999,-16,1,-5
419,-10,-21,1000,-15,1,-5
420,-8,-20,1001,-16,1,-5
421,-7,-17,1002,-14,1,-5
422,-9,-15,1001,-15,0,-6
423,-10,-18,999,-17,1,-5
424,-8,-18,997,-17,0,-4
425,-9,-19,999,-17,1,-5
426,-8,-20,999,-15,1,-6
427,-10,-19,999,-15,0,-5
428,-9,-17,998,-17,2,-7
429,-9,-15,1000,-16,1,-6
430,-10,-14,998,-16,1,-6
431,-10,-19,998,-15,1,-7
432,-11,-19,998,-16,0,-6
433,-10,-20,998,-16,0,-5
434,-9,-20,999,-16,1,-6
435,-7,-19,999,-15,1,-6
436,-7,-18,998,-16,1,-5
437,-10,-18,999,-15,0,-5
438,-11,-17,998,-16,2,-6
439,-10,-17,998,-16,2,-6
440,-9,-19,997,-16,1,-6
441,-8,-18,999,-16,0,-5
442,-8,-17,998,-15,1,-6
443,-10,-17,998,-15,1,-6
444,-7,-17,998,-15,1,-6
445,-10,-16,1000,-18,0,-5
446,-10,-19,999,-18,1,-5
447,-9,-18,997,-16,0,-6
448,-8,-20,1000,-16,1,-7
449,-9,-20,997,-15,1,-6
450,-8,-20,999,-15,0,-6
451,-9,-17,1000,-16,0,-6
452,-10,-16,999,-16,1,-6
453,-10,-17,997,-15,0,-5
454,-8,-20,999,-16,0,-5
455,-8,-17,998,-14,2,-5
456,-10,-18,998,-16,1,-6
457,-11,-17,1000,-16,0,-6
458,-10,-16,997,-14,1,-6
459,-9,-18,998,-15,1,-6
460,-10,-18,997,-16,0,-6
461,-9,-18,1000,-16,0,-7
462,-8,-20,998,-17,1,-7
463,-10,-19,998,-15,1,-5
464,-8,-18,997,-14,1,-5
465,-11,-19,999,-15,1,-5
466,-9,-17,1000,-16,0,-6
467,-9,-19,1000,-16,0,-7
468,-9,-18,998,-15,1,-5
469,-9,-21,999,-15,1,-6
470,-10,-19,998,-15,1,-6
471,-10,-19,998,-16,-1,-6
472,-9,-19,999,-15,0,-7
473,-9,-19,999,-15,1,-6
474,-6,-18,999,-15,0,-7
475,-9,-20,1000,-16,0,-6
476,-7,-19,1001,-16,0,-6
477,-6,-19,999,-15,1,-6
478,-9,-19,1001,-16,1,-6
479,-7,-18,1001,-17,0,-5
480,-9,-18,999,-15,0,-5
481,-7,-18,999,-16,1,-6
482,-7,-19,999,-16,2,-4
483,-8,-20,998,-15,-1,-6
484,-6,-19,998,-15,0,-6
485,-7,-18,997,-16,0,-5
486,-9,-19,999,-16,0,-5
487,-6,-18,999,-16,1,-5
488,-8,-19,999,-16,0,-5
489,-9,-19,999,-17,1,-4
490,-8,-19,999,-15,0,-4
491,-8,-18,999,-16,0,-4
492,-9,-20,1000,-16,-1,-6
493,-10,-18,998,-15,0,-6
494,-11,-19,1000,-16,0,-6
495,-9,-19,1000,-16,1,-7
496,-8,-19,999,-16,1,-5
497,-10,-18,999,-16,1,-5
498,-9,-20,1000,-17,0,-5
499,-9,-16,999,-17,1,-5
500,-8,-19,1000,-18,1,-4
501,-10,-19,1001,-15,0,-6
502,-9,-18,1002,-17,1,-5
503,-9,-19,1000,-15,0,-7
504,-9,-18,1000,-16,0,-6
505,-9,-17,1000,-16,0,-6
506,-9,-20,999,-18,0,-5
507,-9,-19,1001,-16,2,-6
508,-9,-18,1000,-18,2,-6
509,-10,-18,1000,-16,0,-5
510,-8,-19,999,-16,0,-6
511,-8,-19,999,-16,1,-5
512,-7,-19,999,-15,1,-6
513,-7,-19,999,-16,0,-6
514,-7,-18,998,-17,0,-5
515,-9,-19,998,-15,0,-5
516,-9,-18,999,-15,1,-4
517,-10,-18,996,-16,2,-5
518,-8,-17,998,-16,1,-5
519,-9,-18,1000,-15,0,-7
520,-9,-16,997,-15,0,-5
521,-11,-17,999,-15,1,-5
522,-10,-19,997,-16,2,-4
523,-8,-18,998,-17,1,-4
524,-9,-17,999,-16,-1,-5
525,-9,-19,999,-15,0,-5
526,-8,-18,998,-16,0,-4
527,-9,-19,999,-16,1,-6
528,-9,-18,999,-16,0,-7
529,-10,-18,1000,-16,1,-6
530,-9,-16,999,-16,1,-6
531,-8,-16,998,-16,0,-5
532,-9,-19,998,-17,0,-6
533,-8,-20,999,-16,1,-7
534,-7,-18,999,-17,0,-7
535,-8,-18,1000,-16,-1,-7
536,-9,-17,997,-15,0,-6
537,-8,-16,998,-15,1,-6
538,-9,-19,998,-16,0,-5
539,-8,-17,998,-17,1,-6
540,-9,-18,998,-17,1,-7
541,-8,-19,997,-16,0,-6
542,-8,-19,997,-16,1,-5
543,-8,-18,997,-16,1,-6
544,-8,-19,1000,-15,2,-6
545,-8,-19,998,-16,1,-5
546,-8,-19,998,-16,1,-5
547,-10,-20,997,-16,-1,-6
548,-9,-20,1000,-14,1,-6
549,-8,-19,999,-15,0,-5
550,-9,-18,998,-14,1,-5
551,-9,-19,998,-15,1,-6
552,-8,-20,998,-15,0,-6
553,-7,-20,1000,-15,0,-5
554,-8,-18,998,-15,0,-5
555,-7,-18,999,-17,1,-6
556,-9,-18,999,-15,0,-5
557,-9,-19,999,-16,1,-5
558,-10,-18,999,-15,1,-8
559,-9,-19,1000,-15,-1,-6
560,-8,-20,999,-17,0,-5
561,-9,-20,999,-15,2,-5
562,-6,-20,998,-17,0,-5
563,-8,-19,997,-17,1,-5
564,-8,-18,997,-15,1,-6
565,-9,-16,1000,-16,1,-5
566,-8,-18,999,-15,0,-7
567,-9,-18,999,-17,0,-5
568,-8,-18,999,-16,0,-5
569,-7,-17,998,-17,0,-5
570,-7,-18,999,-18,1,-6
571,-8,-19,1000,-16,0,-6
572,-9,-17,998,-15,0,-5
573,-8,-17,999,-16,0,-6
574,-9,-17,999,-18,0,-5
575,-7,-20,999,-16,1,-5
576,-9,-18,998,-18,0,-5
577,-7,-20,999,-15,0,-6
578,-8,-19,999,-17,1,-5
579,-8,-20,999,-17,1,-5
580,-10,-19,999,-16,1,-6
581,-10,-19,999,-16,0,-6
582,-9,-20,997,-16,0,-6
583,-9,-19,998,-14,1,-6
584,-10,-19,999,-15,0,-6
585,-11,-19,1000,-14,1,-6
586,-8,-19,999,-15,1,-5
587,-9,-17,999,-15,0,-5
588,-10,-17,999,-13,0,-5
589,-9,-18,998,-15,1,-5
590,-8,-17,1000,-15,1,-5
591,-10,-18,998,-15,1,-5
592,-9,-19,1001,-15,1,-6
593,-9,-18,998,-13,0,-6
594,-10,-18,999,-16,1,-5
595,-9,-17,999,-16,0,-5
596,-8,-18,1000,-13,1,-5
597,-7,-19,1000,-15,2,-5
598,-8,-19,1000,-15,0,-6
599,-7,-18,1001,-16,1,-6
600,-8,-17,1001,-15,1,-7
601,-8,-16,999,-16,0,-6
602,-9,-17,999,-17,2,-5
603,-8,-18,999,-16,0,-5
604,-8,-18,1000,-14,1,-6
605,-8,-18,998,-16,1,-6
606,-8,-21,998,-16,1,-5
607,-7,-19,999,-17,0,-5
608,-7,-19,999,-15,1,-6
609,-6,-19,998,-16,1,-4
610,-6,-20,999,-17,0,-5
611,-9,-20,999,-16,0,-6
612,-8,-19,999,-16,0,-5
613,-9,-21,998,-16,0,-5
614,-9,-19,1000,-15,0,-6
615,-8,-18,998,-17,1,-5
616,-8,-17,999,-18,1,-5
617,-10,-17,997,-15,1,-5
618,-11,-16,998,-18,1,-4
619,-12,-17,999,-15,1,-6
620,-9,-18,998,-16,1,-6
621,-9,-19,997,-16,-1,-6
622,-10,-18,997,-16,0,-5
623,-10,-16,998,-15,0,-6
624,-9,-18,997,-16,1,-5
625,-11,-19,998,-15,0,-6
626,-10,-19,999,-16,1,-5
627,-10,-20,998,-15,1,-5
628,-6,-16,999,-15,2,-5
629,-8,-19,997,-17,1,-5
630,-7,-17,999,-16,1,-5
631,-8,-18,998,-14,0,-6
632,-8,-19,997,-16,0,-7
633,-8,-17,998,-16,-1,-6
634,-8,-19,999,-14,1,-6
635,-9,-19,999,-16,1,-5
636,-8,-19,998,-15,1,-5
637,-7,-19,999,-15,1,-6
638,-6,-21,999,-16,0,-5
639,-8,-19,999,-15,0,-5
640,-7,-20,999,-15,1,-6
641,-8,-21,999,-15,0,-6
642,-9,-20,999,-14,0,-5
643,-10,-19,999,-15,1,-6
644,-9,-20,998,-15,1,-6
645,-9,-18,999,-15,0,-6
646,-7,-20,1000,-15,1,-5
647,-8,-20,999,-14,1,-5
648,-9,-18,998,-14,0,-5
649,-8,-19,998,-15,1,-5
650,-9,-19,999,-15,0,-6
651,-8,-19,998,-16,1,-5
652,-8,-18,999,-15,1,-6
653,-8,-18,999,-15,0,-6
654,-9,-20,999,-15,1,-5
655,-9,-18,997,-15,0,-4
656,-9,-18,1000,-14,1,-5
657,-9,-18,1001,-15,1,-7
658,-9,-18,999,-15,3,-4
659,-10,-17,999,-15,1,-4
660,-8,-16,999,-16,1,-5
661,-9,-16,1000,-16,0,-5
662,-10,-16,1000,-17,0,-6
663,-6,-17,1000,-17,0,-5
664,-7,-19,999,-16,1,-5
665,-7,-21,998,-15,0,-6
666,-9,-19,998,-17,0,-4
667,-8,-21,999,-17,0,-4
668,-8,-19,1002,-15,0,-6
669,-9,-16,999,-16,-1,-6
670,-9,-16,997,-16,1,-5
671,-7,-17,1000,-16,0,-6
672,-11,-20,1001,-16,0,-5
673,-9,-20,998,-16,1,-5
674,-8,-19,999,-15,1,-5
675,-9,-19,999,-15,1,-4
676,-9,-19,999,-17,1,-5
677,-9,-17,999,-16,1,-5
678,-11,-18,999,-15,2,-5
679,-10,-18,998,-15,0,-5
680,-9,-19,997,-14,0,-5
681,-9,-19,999,-8,-2,-6
682,-8,-20,999,-14,-2,-5
683,-10,-19,999,-13,1,-6
684,-8,-17,999,-15,1,-6
685,-10,-17,999,-14,1,-5
686,-10,-17,998,-14,0,-5
687,-9,-17,998,-16,1,-5
688,-8,-18,998,-15,1,-6
689,-10,-18,1000,-15,-1,-6
690,-9,-18,997,-15,-1,-6
691,-8,-18,999,-14,-1,-6
692,-9,-17,998,-15,0,-5
693,-8,-19,999,-14,0,-6
694,-9,-16,997,-15,1,-6
695,-8,-17,999,-15,0,-5
696,-8,-18,998,-14,1,-6
697,-9,-18,999,-15,0,-6
698,-8,-18,999,-15,0,-5
699,-9,-18,998,-14,0,-4
700,-10,-18,999,-13,1,-6
701,-11,-18,998,-15,1,-6
702,-10,-16,998,-16,-1,-6
703,-9,-19,1000,-15,0,-5
704,-8,-18,998,-13,0,-6
705,-8,-19,999,-15,1,-7
706,-9,-16,999,-15,0,-6
707,-9,-17,998,-15,1,-6
708,-10,-16,998,-16,2,-6
709,-7,-18,998,-15,1,-7
710,-8,-19,997,-15,2,-6
711,-10,-18,999,-16,1,-6
712,-9,-17,998,-15,0,-5
713,-11,-15,998,-16,0,-5
714,-9,-18,997,-16,0,-5
715,-9,-18,998,-14,0,-5
716,-7,-18,998,-15,1,-6
717,-9,-18,998,-15,0,-5
718,-8,-17,999,-16,0,-5
719,-7,-18,1000,-16,1,-6
720,-8,-17,999,-15,1,-5
721,-8,-18,999,-15,1,-5
722,-8,-19,999,-15,1,-7
723,-7,-18,997,-16,0,-6
724,-9,-19,998,-15,0,-5
725,-10,-19,998,-15,0,-6
726,-8,-18,998,-16,0,-6
727,-9,-20,998,-15,0,-6
728,-6,-20,999,-15,1,-6
729,-8,-19,999,-16,0,-6
730,-9,-20,997,-18,-1,-5
731,-9,-18,998,-16,1,-6
732,-9,-18,998,-15,2,-5
733,-9,-18,998,-15,2,-6
734,-8,-17,997,-15,1,-6
735,-7,-17,998,-15,1,-7
736,-8,-20,998,-16,1,-5
737,-9,-16,999,-16,0,-5
738,-8,-16,999,-15,0,-6
739,-7,-17,999,-16,1,-5
740,-8,-19,999,-15,-1,-5
741,-10,-19,999,-16,0,-6
742,-9,-19,1000,-16,-1,-6
743,-9,-19,999,-14,0,-6
744,-8,-20,1000,-17,0,-5
745,-8,-18,999,-16,1,-6
746,-8,-19,999,-16,1,-5
747,-9,-18,1000,-17,0,-4
748,-8,-20,1000,-15,0,-5
749,-11,-20,1000,-15,0,-4
750,-10,-18,1001,-16,1,-5
751,-8,-18,1000,-15,0,-5
752,-8,-18,1000,-16,2,-5
753,-9,-17,1000,-17,2,-5
754,-11,-15,1001,-17,1,-5
755,-11,-15,999,-17,2,-5
756,-10,-16,1001,-15,2,-6
757,-9,-17,1000,-17,1,-5
758,-10,-16,1000,-16,1,-6
759,-9,-18,999,-16,0,-6
760,-8,-18,998,-16,1,-5
761,-10,-15,999,-16,1,-5
762,-10,-15,999,-15,1,-6
763,-10,-14,998,-15,1,-5
764,-11,-16,999,-15,1,-6
765,-10,-17,999,-16,1,-6
766,-10,-19,1000,-16,1,-6
767,-11,-17,999,-16,1,-7
768,-9,-16,999,-15,0,-5
769,-10,-17,999,-15,0,-6
770,-9,-18,998,-15,1,-4
771,-10,-17,998,-17,1,-4
772,-11,-20,998,-17,0,-5
773,-9,-20,997,-16,0,-6
774,-9,-17,999,-14,0,-6
775,-8,-19,998,-16,0,-6
776,-11,-20,998,-16,1,-5
777,-9,-18,996,-15,0,-6
778,-7,-18,1000,-15,0,-7
779,-9,-19,998,-16,1,-6
780,-7,-20,998,-15,1,-6
781,-8,-19,998,-15,1,-6
782,-10,-19,998,-15,0,-5
783,-10,-19,999,-17,1,-6
784,-7,-18,998,-15,1,-6
785,-8,-18,998,-16,1,-5
786,-10,-18,998,-17,-1,-6
787,-10,-18,997,-16,1,-6
788,-8,-20,1000,-17,0,-6
789,-8,-20,997,-17,1,-5
790,-10,-20,998,-16,0,-6
791,-8,-19,998,-15,0,-6
792,-8,-21,997,-15,0,-6
793,-9,-19,998,-15,2,-6
794,-8,-18,999,-15,0,-6
795,-8,-18,999,-14,1,-5
796,-7,-19,998,-16,1,-4
797,-7,-18,999,-16,2,-5
798,-10,-18,998,-15,1,-5
799,-8,-18,1000,-17,1,-5
800,-8,-18,998,-14,1,-5
801,-8,-17,1000,-16,1,-5
802,-7,-15,999,-15,0,-5
803,-8,-16,1000,-15,0,-7
804,-9,-17,999,-17,0,-5
805,-9,-18,1000,-15,0,-5
806,-8,-18,999,-16,1,-5
807,-8,-17,999,-15,0,-5
808,-8,-19,999,-15,0,-4
809,-9,-18,999,-16,0,-5
810,-5,-16,999,-16,0,-5
811,-8,-18,1001,-16,0,-5
812,-8,-18,999,-15,-1,-6
813,-7,-17,999,-17,1,-5
814,-11,-19,999,-16,2,-5
815,-9,-20,998,-17,1,-6
816,-8,-20,1000,-17,1,-5
817,-8,-18,998,-16,1,-5
818,-9,-19,998,-15,1,-5
819,-8,-17,1000,-16,0,-5
820,-8,-18,998,-16,0,-5
821,-8,-20,998,-16,0,-6
822,-8,-19,1000,-14,0,-5
823,-7,-18,998,-15,2,-5
824,-8,-19,998,-15,0,-7
825,-10,-19,999,-15,-1,-6
826,-11,-18,1000,-16,1,-6
827,-10,-18,998,-16,0,-6
828,-9,-18,998,-15,0,-6
829,-10,-18,999,-15,1,-5
830,-9,-17,999,-16,1,-5
831,-8,-17,999,-15,2,-5
832,-6,-18,998,-15,1,-6
833,-7,-18,998,-16,0,-5
834,-8,-19,1000,-16,0,-5
835,-10,-19,1001,-16,0,-6
836,-7,-20,998,-16,2,-6
837,-8,-18,1001,-15,1,-6
838,-8,-18,999,-16,0,-7
839,-8,-18,999,-17,0,-6
840,-9,-18,1001,-15,0,-5
841,-9,-19,1001,-16,0,-5
842,-8,-19,999,-16,1,-5
843,-9,-20,998,-17,0,-5
844,-8,-18,999,-17,1,-5
845,-7,-19,1000,-15,1,-6
846,-8,-17,999,-14,1,-4
847,-7,-18,999,-15,1,-5
848,-9,-18,1000,-16,1,-5
849,-10,-19,1000,-17,1,-5
850,-8,-17,999,-16,1,-5
851,-10,-18,999,-15,0,-6
852,-10,-18,999,-16,0,-6
853,-10,-18,1000,-16,0,-5
854,-10,-19,1000,-16,1,-5
855,-8,-18,1001,-16,0,-5
856,-8,-17,998,-16,1,-5
857,-9,-17,998,-16,2,-6
858,-9,-18,999,-15,1,-6
859,-11,-18,1000,-15,1,-5
860,-8,-17,997,-16,1,-5
861,-9,-18,998,-16,1,-7
862,-10,-17,998,-14,1,-6
863,-10,-18,998,-15,1,-6
864,-9,-18,999,-16,0,-7
865,-10,-19,999,-16,0,-6
866,-8,-19,998,-17,-1,-5
867,-9,-19,999,-15,1,-5
868,-10,-19,997,-16,1,-6
869,-10,-17,998,-17,1,-6
870,-9,-18,998,-15,1,-5
871,-8,-18,999,-16,1,-4
872,-11,-19,998,-14,0,-5
873,-9,-20,996,-15,0,-5
874,-9,-19,998,-15,0,-6
875,-9,-18,998,-17,1,-6
876,-8,-17,997,-15,0,-5
877,-9,-18,998,-16,1,-7
878,-8,-19,998,-16,0,-5
879,-9,-19,998,-15,0,-6
880,-11,-18,1000,-15,1,-6
881,-9,-19,997,-16,0,-5
882,-8,-19,997,-15,0,-5
883,-6,-19,999,-16,-1,-6
884,-7,-19,998,-16,0,-6
885,-8,-18,998,-15,2,-6
886,-8,-20,999,-16,1,-6
887,-7,-18,999,-15,0,-6
888,-9,-17,1000,-15,-1,-6
889,-9,-18,1000,-15,-1,-5
890,-10,-16,999,-15,1,-4
891,-8,-18,999,-16,1,-6
892,-9,-17,998,-14,0,-6
893,-9,-18,999,-16,1,-6
894,-8,-19,999,-16,1,-5
895,-7,-20,1001,-16,1,-6
896,-6,-18,1000,-17,1,-5
897,-8,-19,1000,-17,1,-5
898,-8,-18,1000,-17,0,-6
899,-8,-19,998,-18,1,-6
900,-7,-19,999,-17,1,-5
901,-8,-21,1000,-16,1,-5
902,-10,-21,999,-16,1,-5
903,-7,-19,1000,-17,1,-5
904,-8,-16,999,-15,1,-4
905,-9,-18,998,-15,2,-6
906,-8,-18,999,-17,-1,-6
907,-9,-17,998,-16,0,-6
908,-8,-19,998,-17,-1,-5
909,-10,-17,999,-16,1,-5
910,-10,-17,999,-16,2,-5
911,-10,-18,999,-16,0,-5
912,-10,-17,998,-16,0,-4
913,-12,-17,1000,-14,1,-5
914,-9,-19,999,-16,1,-5
915,-10,-17,999,-15,1,-7
916,-7,-19,1000,-15,1,-6
917,-7,-18,999,-16,1,-6
918,-9,-18,1001,-16,0,-5
919,-9,-19,998,-16,1,-5
920,-9,-16,1000,-16,0,-6
921,-9,-20,1000,-16,2,-6
922,-8,-18,999,-16,0,-5
923,-9,-18,1001,-17,0,-5
924,-9,-15,999,-16,0,-6
925,-8,-17,1000,-15,-1,-5
926,-8,-17,999,-16,1,-6
927,-7,-17,1000,-17,2,-7
928,-10,-19,1000,-16,0,-6
929,-11,-20,1000,-15,0,-6
930,-9,-19,1000,-15,1,-6
931,-9,-19,999,-16,1,-5
932,-8,-19,999,-16,0,-5
933,-7,-19,1000,-16,0,-6
934,-10,-17,998,-15,1,-6
935,-11,-18,997,-15,0,-5
936,-10,-19,998,-17,2,-6
937,-9,-18,999,-17,2,-5
938,-9,-19,997,-16,0,-6
939,-9,-19,999,-15,1,-5
940,-9,-17,999,-16,1,-5
941,-9,-17,998,-16,0,-4
942,-9,-18,1000,-15,1,-6
943,-10,-17,999,-15,1,-6
944,-12,-16,998,-16,1,-5
945,-9,-20,998,-17,1,-5
946,-8,-20,1000,-16,1,-6
947,-8,-18,999,-17,1,-5
948,-10,-16,1000,-16,2,-6
949,-11,-18,998,-16,1,-6
950,-9,-19,998,-17,0,-5
951,-7,-19,999,-17,0,-5
952,-9,-18,997,-16,0,-5
953,-10,-16,999,-14,0,-6
954,-8,-16,999,-14,0,-5
955,-8,-19,998,-15,1,-5
956,-11,-18,998,-15,0,-5
957,-10,-18,998,-15,0,-6
958,-10,-18,999,-16,0,-5
959,-9,-18,998,-15,1,-5
960,-10,-17,998,-15,1,-5
961,-10,-17,1000,-15,0,-5
962,-10,-17,999,-17,0,-5
963,-9,-16,999,-16,0,-6
964,-9,-18,998,-16,1,-5
965,-8,-20,998,-16,0,-5
966,-9,-20,1000,-16,0,-5
967,-7,-17,998,-14,1,-5
968,-9,-16,999,-16,1,-5
969,-7,-18,998,-15,-1,-5
970,-8,-20,998,-14,0,-5
971,-10,-20,998,-16,0,-5
972,-9,-19,998,-15,-1,-6
973,-11,-18,1000,-16,-1,-5
974,-10,-18,999,-15,0,-6
975,-9,-19,997,-15,1,-6
976,-8,-18,999,-16,-1,-4
977,-9,-19,1000,-16,0,-5
978,-10,-17,999,-16,1,-6
979,-9,-19,998,-17,0,-5
980,-9,-19,998,-16,1,-5
981,-8,-18,999,-15,1,-5
982,-7,-20,997,-16,1,-6
983,-8,-18,998,-14,2,-5
984,-7,-18,998,-16,2,-5
985,-7,-17,998,-15,0,-6
986,-8,-17,999,-15,-1,-5
987,-9,-18,998,-16,1,-5
988,-8,-19,1000,-16,1,-5
989,-7,-20,1000,-17,0,-4
990,-9,-19,999,-16,0,-6
991,-11,-18,998,-16,1,-6
992,-10,-17,998,-15,0,-6
993,-6,-18,998,-17,1,-6
994,-7,-18,998,-16,0,-5
995,-8,-17,998,-16,1,-4
996,-8,-19,998,-15,0,-5
997,-7,-19,998,-17,-1,-5
998,-8,-20,999,-16,0,-6
999,-9,-18,999,-17,0,-6
1000,-10,-19,999,-16,0,-5
1001,-8,-19,1000,-16,0,-5
1002,-9,-18,1000,-17,0,-7
1003,-9,-18,999,-17,-1,-5
1004,-9,-18,999,-15,1,-5
1005,-8,-18,1000,-16,1,-5
1006,-10,-18,998,-14,1,-6
1007,-9,-17,999,-15,1,-6
1008,-9,-17,999,-16,2,-6
1009,-11,-18,1000,-15,0,-5
1010,-9,-17,999,-16,2,-6
1011,-9,-18,1000,-16,2,-7
1012,-9,-18,1000,-15,1,-5
1013,-8,-18,999,-16,0,-5
1014,-9,-18,998,-14,0,-5
1015,-10,-17,998,-15,-1,-5
1016,-11,-20,997,-12,-4,-8
1017,-10,-17,998,-17,1,-5
1018,-8,-18,998,-11,1,-5
1019,-9,-17,1000,-17,0,-6
1020,-8,-18,999,-16,1,-6
1021,-10,-18,998,-17,1,-6
1022,-9,-17,998,-16,0,-7
1023,-9,-18,999,-14,0,-6
1024,-10,-18,998,-16,1,-5
1025,-10,-19,1000,-16,1,-5
1026,-9,-18,1000,-14,0,-5
1027,-8,-18,999,-16,1,-4
1028,-8,-17,998,-15,1,-5
1029,-8,-18,998,-15,2,-5
1030,-7,-17,998,-16,0,-5
1031,-8,-18,998,-16,0,-5
1032,-7,-17,998,-15,0,-5
1033,-10,-18,998,-16,1,-6
1034,-10,-19,998,-16,1,-5
1035,-9,-17,998,-16,0,-6
1036,-8,-19,999,-15,1,-7
1037,-9,-16,999,-14,2,-6
1038,-10,-17,997,-15,0,-5
1039,-10,-17,999,-16,-1,-6
1040,-9,-18,997,-16,1,-6
1041,-9,-17,999,-15,1,-5
1042,-9,-16,998,-16,0,-6
1043,-8,-17,998,-15,1,-5
1044,-8,-17,998,-16,2,-5
1045,-9,-18,998,-14,1,-6
1046,-9,-19,999,-16,-1,-5
1047,-8,-18,996,-15,1,-6
1048,-9,-18,999,-15,1,-5
1049,-10,-18,1000,-14,1,-5
1050,-8,-17,998,-15,0,-5
1051,-9,-18,999,-16,0,-6
1052,-8,-20,998,-15,0,-6
1053,-10,-19,999,-16,1,-5
1054,-8,-18,999,-15,1,-5
1055,-7,-19,998,-16,1,-6
1056,-9,-19,999,-16,2,-5
1057,-9,-18,999,-15,1,-5
1058,-7,-18,998,-16,0,-6
1059,-7,-18,997,-16,0,-5
1060,-8,-17,1000,-15,1,-6
1061,-8,-18,1000,-16,0,-6
1062,-7,-17,1000,-17,1,-7
1063,-8,-17,999,-15,0,-6
1064,-7,-19,998,-16,1,-6
1065,-9,-18,1000,-15,0,-5
1066,-7,-18,1000,-17,0,-5
1067,-7,-16,999,-15,0,-5
1068,-8,-19,997,-16,0,-5
1069,-8,-20,999,-16,-1,-6
1070,-7,-21,998,-16,1,-6
1071,-8,-21,999,-14,1,-7
1072,-8,-18,998,-15,0,-6
1073,-8,-17,1001,-16,0,-6
1074,-11,-15,996,-16,1,-5
1075,-11,-17,1000,-14,0,-5
1076,-9,-18,996,-15,0,-4
1077,-9,-18,1000,-15,0,-6
1078,-8,-18,997,-16,0,-6
1079,-8,-18,999,-16,0,-5
1080,-9,-18,997,-15,0,-3
1081,-8,-20,1000,-15,0,-5
1082,-7,-18,999,-17,0,-5
1083,-8,-20,1000,-16,1,-6
1084,-9,-19,999,-16,1,-5
1085,-8,-17,1000,-17,-1,-4
1086,-10,-18,998,-15,0,-5
1087,-9,-19,1000,-16,0,-5
1088,-9,-17,1000,-15,0,-6
1089,-7,-17,1002,-15,0,-5
1090,-6,-18,1001,-14,1,-5
1091,-8,-19,1001,-15,0,-6
1092,-9,-17,1001,-16,0,-5
1093,-9,-19,1000,-16,1,-5
1094,-9,-19,1000,-15,-1,-5
1095,-9,-17,1000,-16,1,-7
1096,-11,-17,1001,-16,0,-6
1097,-10,-17,1001,-16,0,-4
1098,-10,-18,1000,-15,2,-5
1099,-9,-18,1001,-15,0,-6
1100,-9,-17,999,-15,1,-6
1101,-11,-17,1000,-15,1,-6
1102,-9,-17,999,-17,0,-6
1103,-9,-18,997,-16,0,-6
1104,-8,-17,999,-16,2,-6
1105,-9,-18,999,-16,1,-5
1106,-10,-17,999,-15,1,-5
1107,-8,-16,1000,-15,3,-5
1108,-10,-17,998,-16,2,-6
1109,-8,-17,999,-15,2,-4
1110,-9,-17,999,-15,1,-5
1111,-10,-18,998,-12,-1,-6
1112,-8,-16,999,-15,0,-5
1113,-9,-15,999,-16,2,-5
1114,-9,-16,998,-16,1,-5
1115,-10,-19,999,-16,1,-5
1116,-10,-18,998,-16,2,-4
1117,-8,-17,999,-15,2,-4
1118,-9,-18,998,-16,1,-6
1119,-9,-18,998,-15,1,-6
1120,-10,-18,998,-16,0,-6
1121,-10,-17,998,-17,0,-5
1122,-11,-18,1001,-15,0,-5
1123,-10,-18,997,-15,-1,-5
1124,-9,-18,999,-15,0,-5
1125,-10,-17,999,-15,0,-6
1126,-10,-19,996,-16,0,-5
1127,-9,-19,998,-15,0,-6
1128,-8,-19,998,-16,0,-6
1129,-10,-19,998,-14,0,-5
1130,-8,-19,999,-15,1,-6
1131,-9,-18,998,-15,1,-4
1132,-9,-19,1000,-15,1,-5
1133,-9,-18,998,-15,0,-6
1134,-7,-19,1000,-16,-1,-5
1135,-7,-19,998,-15,0,-6
1136,-9,-19,998,-16,1,-6
1137,-10,-16,1000,-16,1,-5
1138,-9,-18,998,-17,1,-5
1139,-9,-17,999,-16,1,-6
1140,-8,-20,998,-15,2,-6
1141,-8,-20,999,-15,-1,-6
1142,-7,-19,998,-16,0,-5
1143,-9,-19,999,-15,1,-6
1144,-7,-17,999,-16,1,-6
1145,-9,-18,999,-17,1,-5
1146,-8,-19,1000,-15,0,-5
1147,-10,-20,1000,-17,1,-6
1148,-8,-18,1000,-16,0,-6
1149,-6,-19,998,-16,0,-6
1150,-6,-20,999,-15,1,-5
1151,-7,-17,999,-16,0,-5
1152,-6,-20,999,-15,0,-6
1153,-9,-18,997,-14,1,-6
1154,-9,-16,998,-17,0,-5
1155,-9,-17,999,-16,1,-6
1156,-9,-18,997,-16,1,-5
1157,-9,-17,999,-16,1,-5
1158,-9,-17,998,-15,2,-6
1159,-11,-16,998,-15,-1,-5
1160,-10,-18,998,-16,1,-5
1161,-8,-18,998,-15,0,-5
1162,-10,-18,997,-15,1,-4
1163,-9,-17,998,-16,1,-5
1164,-8,-18,999,-15,1,-5
1165,-10,-16,999,-16,1,-5
1166,-9,-18,998,-15,1,-4
1167,-8,-19,999,-16,0,-5
1168,-8,-18,998,-16,0,-6
1169,-8,-19,999,-17,0,-5
1170,-7,-18,998,-18,0,-4
1171,-8,-19,998,-16,2,-5
1172,-8,-20,999,-16,2,-6
1173,-9,-20,998,-16,0,-4
1174,-9,-21,1000,-16,0,-4
1175,-8,-19,1001,-15,0,-5
1176,-8,-18,999,-16,2,-5
1177,-9,-18,999,-16,0,-5
1178,-10,-19,999,-15,1,-5
1179,-8,-19,998,-17,1,-5
1180,-9,-19,999,-17,1,-6
1181,-8,-18,999,-16,1,-6
1182,-6,-18,999,-17,2,-6
1183,-8,-19,999,-17,1,-5
1184,-7,-19,1000,-16,0,-5
1185,-9,-18,998,-16,0,-7
1186,-9,-17,998,-17,0,-5
1187,-11,-18,999,-16,1,-5
1188,-8,-18,998,-16,2,-5
1189,-8,-18,998,-17,0,-5
1190,-11,-17,999,-16,0,-6
1191,-8,-18,998,-16,-1,-5
1192,-12,-17,997,-16,1,-6
1193,-11,-17,997,-15,1,-6
1194,-9,-18,997,-17,1,-6
1195,-9,-16,1000,-16,1,-6
1196,-10,-17,998,-16,1,-6
1197,-10,-17,998,-17,0,-5
1198,-8,-17,998,-15,1,-6
1199,-10,-17,999,-15,0,-5
1200,-8,-18,998,-16,0,-5
1201,-9,-17,999,-15,1,-6
1202,-10,-17,997,-15,0,-4
1203,-10,-17,999,-15,0,-5
1204,-9,-17,1000,-15,1,-6
1205,-10,-18,998,-16,1,-6
1206,-10,-17,998,-14,0,-5
1207,-8,-17,1000,-16,1,-5
1208,-9,-17,999,-17,1,-6
1209,-8,-17,998,-17,1,-5
1210,-7,-16,998,-14,1,-5
1211,-7,-18,1000,-16,0,-5
1212,-7,-19,999,-16,0,-6
1213,-10,-19,998,-15,1,-7
1214,-8,-19,1001,-18,0,-6
1215,-9,-18,997,-15,1,-5
1216,-9,-16,999,-15,0,-6
1217,-10,-18,999,-17,1,-4
1218,-8,-18,1000,-16,0,-5
1219,-7,-19,1000,-18,1,-6
1220,-11,-19,999,-16,0,-6
1221,-9,-20,998,-16,1,-6
1222,-8,-19,998,-16,1,-6
1223,-9,-19,998,-15,1,-6
1224,-9,-17,998,-14,1,-6
1225,-9,-18,999,-15,0,-6
1226,-8,-17,998,-16,1,-6
1227,-9,-19,998,-16,1,-5
1228,-9,-20,998,-15,1,-6
1229,-8,-19,999,-16,1,-7
1230,-8,-19,999,-16,0,-6
1231,-7,-18,998,-16,0,-4
1232,-7,-19,1000,-17,0,-5
1233,-9,-17,998,-15,2,-5
1234,-7,-17,999,-16,2,-4
1235,-7,-18,1000,-16,1,-5
1236,-7,-18,998,-15,0,-6
1237,-10,-17,999,-17,1,-6
1238,-10,-17,999,-17,1,-4
1239,-8,-17,1001,-17,0,-5
1240,-9,-19,999,-17,1,-5
1241,-9,-18,999,-16,2,-6
1242,-8,-18,999,-17,0,-5
1243,-8,-18,999,-17,0,-5
1244,-8,-16,1000,-15,1,-6
1245,-6,-17,999,-16,1,-6
1246,-7,-18,998,-16,2,-6
1247,-7,-17,998,-16,0,-6
1248,-8,-17,998,-15,0,-5
1249,-9,-19,999,-18,1,-6
1250,-8,-18,997,-17,1,-5
1251,-10,-19,998,-17,0,-5
1252,-9,-17,999,-17,1,-5
1253,-11,-19,999,-17,0,-5
1254,-9,-19,1000,-16,-1,-5
1255,-10,-18,998,-16,0,-6
1256,-8,-20,999,-16,2,-6
1257,-7,-21,999,-17,1,-6
1258,-8,-20,1000,-15,1,-6
1259,-10,-18,1001,-15,2,-5
1260,-10,-18,1001,-17,0,-5
1261,-7,-18,999,-15,1,-5
1262,-7,-18,1000,-18,1,-6
1263,-9,-18,1000,-17,0,-6
1264,-8,-20,1000,-17,1,-5
1265,-8,-19,1001,-15,1,-3
1266,-9,-17,1001,-16,1,-6
1267,-12,-17,1000,-15,0,-5
1268,-7,-18,999,-16,0,-5
1269,-9,-19,1001,-15,0,-8
1270,-10,-18,1000,-15,1,-6
1271,-10,-17,1000,-16,0,-6
1272,-8,-18,999,-15,1,-6
1273,-8,-17,999,-16,1,-5
1274,-8,-18,999,-15,2,-5
1275,-9,-19,1000,-16,1,-5
1276,-9,-17,999,-16,1,-6
1277,-9,-17,998,-17,1,-4
1278,-10,-14,998,-17,1,-4
1279,-9,-17,997,-17,1,-5
1280,-11,-17,1000,-16,1,-5
1281,-8,-17,997,-16,1,-5
1282,-8,-17,999,-16,0,-5
1283,-7,-18,999,-18,1,-5
1284,-7,-18,998,-17,1,-6
1285,-7,-17,998,-16,2,-5
1286,-9,-17,997,-16,2,-5
1287,-10,-18,998,-16,2,-5
1288,-10,-17,997,-16,0,-6
1289,-10,-17,997,-16,0,-6
1290,-9,-17,997,-15,1,-5
1291,-10,-16,999,-15,0,-6
1292,-10,-17,999,-16,-1,-4
1293,-11,-18,998,-15,0,-6
1294,-8,-17,996,-16,1,-6
1295,-10,-17,999,-16,1,-5
1296,-9,-17,999,-16,1,-6
1297,-10,-17,999,-15,-1,-5
1298,-9,-17,998,-15,-1,-6
1299,-8,-17,999,-16,-1,-5
1300,-10,-17,999,-15,-1,-6
1301,-9,-18,998,-15,0,-4
1302,-8,-17,998,-16,-1,-6
1303,-8,-18,998,-15,0,-6
1304,-8,-16,1000,-15,0,-6
1305,-9,-18,999,-15,0,-6
1306,-8,-19,999,-15,1,-6
1307,-7,-19,999,-16,1,-5
1308,-6,-17,998,-16,1,-6
1309,-8,-18,997,-16,1,-6
1310,-7,-18,998,-17,1,-6
1311,-7,-18,1000,-17,0,-6
1312,-8,-19,999,-15,-1,-6
1313,-8,-21,1000,-16,1,-6
1314,-9,-21,998,-16,1,-7
1315,-9,-20,998,-15,0,-6
1316,-7,-19,998,-17,1,-5
1317,-6,-20,998,-15,1,-5
1318,-8,-22,997,-14,1,-5
1319,-8,-21,997,-15,0,-6
1320,-9,-19,999,-15,1,-6
1321,-8,-18,1000,-15,0,-6
1322,-8,-18,999,-15,-1,-5
1323,-9,-18,998,-15,0,-5
1324,-9,-18,999,-16,0,-6
1325,-10,-17,999,-14,0,-6
1326,-9,-17,999,-15,0,-5
1327,-9,-16,998,-15,0,-6
1328,-9,-16,1000,-15,0,-6
1329,-10,-16,999,-16,0,-6
1330,-9,-16,1000,-15,1,-6
1331,-6,-16,999,-16,1,-5
1332,-8,-17,998,-18,1,-6
1333,-6,-17,998,-17,0,-5
1334,-9,-17,999,-16,-1,-6
1335,-9,-17,999,-17,0,-6
1336,-7,-18,998,-17,-1,-6
1337,-9,-19,998,-16,0,-6
1338,-7,-19,997,-16,0,-6
1339,-7,-20,999,-16,0,-6
1340,-7,-21,999,-16,1,-6
1341,-7,-20,999,-16,1,-6
1342,-8,-22,999,-15,0,-5
1343,-10,-21,999,-16,1,-5
1344,-9,-19,998,-16,1,-5
1345,-10,-20,999,-15,2,-6
1346,-9,-19,998,-14,2,-5
1347,-7,-18,998,-15,2,-5
1348,-10,-20,1000,-15,2,-5
1349,-10,-17,998,-16,1,-6
1350,-9,-17,998,-15,0,-6
1351,-9,-16,1000,-14,-1,-5
1352,-10,-16,1000,-15,1,-5
1353,-10,-17,1000,-14,2,-5
1354,-9,-17,1002,-14,-1,-6
1355,-9,-16,1003,-5,-3,-9
1356,-7,-18,1000,-13,2,-7
1357,-10,-19,1000,-16,1,-7
1358,-10,-17,1001,-17,0,-5
1359,-8,-18,999,-17,1,-4
1360,-8,-17,999,-14,1,-6
1361,-10,-16,999,-16,1,-5
1362,-8,-15,1001,-16,1,-5
1363,-9,-16,1000,-15,2,-5
1364,-9,-16,998,-17,0,-4
1365,-8,-19,998,-17,2,-4
1366,-9,-18,998,-16,0,-6
1367,-9,-19,999,-17,1,-6
1368,-7,-17,999,-15,0,-6
1369,-8,-16,998,-15,1,-5
1370,-6,-16,998,-16,1,-6
1371,-8,-19,998,-15,1,-6
1372,-9,-18,998,-16,0,-6
1373,-9,-19,997,-15,1,-5
1374,-10,-20,998,-16,0,-5
1375,-8,-19,998,-17,-1,-4
1376,-10,-18,998,-16,1,-7
1377,-10,-17,999,-17,1,-6
1378,-7,-17,999,-15,0,-6
1379,-9,-17,998,-15,1,-6
1380,-8,-19,998,-17,0,-5
1381,-9,-17,999,-15,0,-6
1382,-9,-19,999,-16,0,-6
1383,-10,-18,999,-16,0,-5
1384,-9,-17,998,-14,0,-5
1385,-10,-17,998,-17,2,-4
1386,-10,-17,999,-16,1,-6
1387,-9,-18,999,-17,1,-5
1388,-9,-17,998,-17,0,-6
1389,-9,-19,999,-16,0,-5
1390,-10,-18,998,-16,-1,-5
1391,-10,-20,999,-15,0,-5
1392,-11,-18,999,-15,1,-6
1393,-12,-16,999,-16,0,-6
1394,-9,-15,997,-16,0,-5
1395,-8,-17,998,-16,0,-5
1396,-8,-18,997,-17,0,-5
1397,-9,-18,1000,-16,0,-6
1398,-9,-17,999,-14,0,-5
1399,-10,-17,998,-15,0,-6
1400,-9,-17,1000,-17,0,-7
1401,-8,-17,998,-16,0,-6
1402,-8,-18,1000,-17,0,-5
1403,-7,-18,999,-16,2,-6
1404,-6,-19,1001,-14,0,-6
1405,-6,-19,999,-15,-1,-6
1406,-7,-18,999,-16,0,-6
1407,-10,-18,998,-16,1,-5
1408,-8,-20,998,-16,1,-5
1409,-8,-19,1000,-17,1,-5
1410,-8,-18,999,-15,1,-4
1411,-7,-19,998,-15,0,-5
1412,-8,-18,998,-15,0,-6
1413,-8,-20,999,-14,0,-6
1414,-6,-18,999,-16,1,-5
1415,-8,-17,998,-15,1,-7
1416,-10,-19,999,-16,0,-5
1417,-8,-18,999,-15,1,-5
1418,-7,-18,997,-16,1,-4
1419,-8,-19,998,-16,0,-5
1420,-8,-19,999,-15,0,-6
1421,-9,-20,998,-16,0,-5
1422,-8,-19,999,-16,0,-5
1423,-9,-15,998,-16,1,-6
1424,-11,-17,998,-15,2,-6
1425,-9,-15,998,-16,2,-6
1426,-10,-16,999,-17,1,-5
1427,-8,-18,1000,-16,1,-6
1428,-9,-17,999,-18,0,-6
1429,-9,-16,1000,-16,0,-6
1430,-9,-19,998,-15,2,-5
1431,-10,-18,998,-16,1,-6
1432,-9,-17,1000,-17,0,-5
1433,-10,-18,999,-14,1,-4
1434,-8,-18,1000,-19,1,-4
1435,-9,-19,1000,-15,0,-5
1436,-9,-19,1000,-17,1,-5
1437,-8,-18,1001,-16,1,-6
1438,-9,-19,999,-16,1,-7
1439,-9,-19,999,-15,2,-6
1440,-8,-18,999,-14,2,-5
1441,-9,-18,999,-15,2,-6
1442,-8,-19,1000,-16,1,-5
1443,-9,-17,1000,-17,2,-6
1444,-9,-18,1000,-16,0,-5
1445,-8,-17,999,-16,0,-6
1446,-10,-19,999,-15,0,-7
1447,-8,-18,998,-15,0,-7
1448,-8,-19,998,-16,1,-6
1449,-9,-18,1000,-15,1,-5
1450,-9,-18,1000,-15,-1,-5
1451,-8,-17,1000,-16,0,-5
1452,-8,-17,1000,-16,0,-5
1453,-10,-18,1000,-15,0,-6
1454,-7,-18,998,-16,1,-6
1455,-9,-17,998,-15,1,-5
1456,-8,-17,997,-16,1,-5
1457,-9,-16,999,-17,1,-4
1458,-9,-19,998,-15,0,-6
1459,-7,-18,998,-17,0,-7
1460,-10,-17,999,-16,1,-6
1461,-10,-17,998,-16,1,-5
1462,-9,-16,1000,-15,1,-5
1463,-10,-18,998,-15,0,-6
1464,-9,-16,997,-16,1,-7
1465,-10,-18,999,-15,0,-4
1466,-9,-17,998,-14,-1,-5
1467,-8,-18,998,-15,-1,-6
1468,-11,-17,997,-16,0,-6
1469,-9,-16,997,-16,1,-6
1470,-10,-18,998,-15,1,-6
1471,-8,-17,998,-16,1,-6
1472,-8,-17,998,-15,2,-6
1473,-8,-16,998,-16,1,-5
1474,-8,-17,999,-16,-1,-5
1475,-9,-18,999,-17,1,-5
1476,-8,-20,997,-16,-1,-5
1477,-8,-19,998,-16,0,-6
1478,-8,-20,997,-16,0,-7
1479,-10,-19,998,-18,2,-6
1480,-10,-18,998,-15,0,-5
1481,-6,-20,999,-17,1,-6
1482,-9,-19,999,-17,0,-5
1483,-8,-18,998,-17,0,-5
1484,-9,-19,998,-16,1,-6
1485,-8,-20,999,-14,0,-6
1486,-6,-20,998,-16,-1,-6
1487,-8,-20,999,-15,2,-5
1488,-9,-17,997,-16,2,-6
1489,-7,-18,999,-15,-1,-5
1490,-7,-19,999,-17,0,-6
1491,-7,-18,998,-16,0,-6
1492,-8,-19,998,-16,0,-5
1493,-8,-19,999,-14,0,-6
1494,-8,-19,1000,-15,0,-6
1495,-8,-17,999,-15,0,-5
1496,-8,-19,1001,-14,0,-5
1497,-8,-19,998,-16,1,-5
1498,-8,-18,998,-16,0,-6
1499,-8,-18,999,-15,1,-5
1500,-8,-18,999,-15,2,-6
1501,-9,-18,998,-14,1,-6
1502,-10,-18,1000,-16,-1,-6
1503,-10,-16,999,-15,-1,-6
1504,-7,-17,998,-16,0,-7
1505,-10,-17,1000,-17,1,-6
1506,-9,-17,998,-16,1,-6
1507,-11,-18,998,-16,1,-6
1508,-10,-17,999,-15,1,-5
1509,-10,-17,998,-16,1,-6
1510,-10,-18,998,-16,1,-6
1511,-8,-17,998,-15,1,-6
1512,-8,-16,999,-17,0,-6
1513,-10,-19,1000,-16,1,-7
1514,-8,-19,999,-15,1,-6
1515,-8,-19,1000,-16,1,-7
1516,-9,-19,999,-17,1,-7
1517,-11,-19,1000,-16,0,-6
1518,-9,-18,998,-15,1,-6
1519,-8,-17,998,-17,1,-4
1520,-8,-18,1000,-16,0,-6
1521,-8,-18,999,-16,1,-4
1522,-9,-19,999,-16,0,-5
1523,-9,-19,999,-18,1,-5
1524,-8,-18,1000,-17,1,-4
1525,-8,-19,1000,-15,0,-5
1526,-7,-18,999,-15,2,-5
1527,-7,-18,999,-16,0,-6
1528,-9,-18,1000,-16,-1,-6
1529,-10,-18,1000,-16,0,-5
1530,-9,-18,999,-18,0,-6
1531,-9,-20,999,-16,0,-5
1532,-10,-19,998,-17,0,-5
1533,-8,-18,999,-16,-1,-5
1534,-9,-17,1000,-15,1,-5
1535,-9,-18,998,-13,1,-5
1536,-10,-18,998,-16,1,-5
1537,-9,-18,999,-15,1,-6
1538,-9,-19,998,-15,2,-5
1539,-9,-19,999,-15,2,-5
1540,-9,-20,997,-16,0,-5
1541,-9,-18,999,-17,1,-5
1542,-11,-18,997,-17,3,-4
1543,-11,-17,998,-14,1,-5
1544,-9,-19,998,-16,0,-5
1545,-10,-18,998,-16,0,-5
1546,-8,-17,998,-16,1,-5
1547,-8,-16,998,-17,1,-5
1548,-9,-16,997,-16,0,-5
1549,-9,-18,997,-16,0,-6
1550,-11,-17,998,-16,1,-6
1551,-9,-18,998,-16,1,-5
1552,-10,-17,998,-15,1,-6
1553,-8,-17,999,-15,1,-5
1554,-9,-17,997,-15,1,-5
1555,-10,-17,999,-16,0,-5
1556,-9,-17,1000,-16,1,-6
1557,-9,-17,1000,-16,0,-6
1558,-11,-15,998,-15,2,-6
1559,-8,-18,999,-15,1,-6
1560,-7,-17,998,-16,1,-5
1561,-8,-16,998,-15,1,-6
1562,-6,-18,998,-16,2,-4
1563,-8,-18,997,-16,0,-5
1564,-10,-17,998,-15,1,-5
1565,-9,-19,997,-16,1,-5
1566,-7,-17,998,-17,1,-6
1567,-8,-18,1001,-16,0,-5
1568,-9,-19,999,-17,0,-6
1569,-10,-21,998,-16,-1,-5
1570,-9,-21,999,-17,-1,-6
1571,-9,-20,997,-16,0,-7
1572,-7,-20,998,-17,1,-6
1573,-8,-19,998,-15,0,-5
1574,-8,-18,998,-14,0,-6
1575,-7,-18,998,-16,2,-5
1576,-8,-17,997,-16,1,-6
1577,-9,-18,998,-16,1,-5
1578,-6,-18,997,-15,0,-5
1579,-8,-19,998,-15,1,-5
1580,-8,-19,1000,-17,1,-5
1581,-9,-19,998,-16,1,-7
1582,-8,-20,998,-15,0,-6
1583,-8,-19,998,-16,1,-5
1584,-8,-19,999,-15,0,-4
1585,-9,-17,997,-16,0,-5
1586,-7,-18,998,-16,1,-5
1587,-8,-18,1000,-16,0,-5
1588,-9,-18,999,-16,1,-6
1589,-9,-17,997,-15,1,-6
1590,-9,-21,999,-16,1,-5
1591,-8,-19,1000,-16,2,-5
1592,-8,-19,1000,-15,2,-6
1593,-9,-20,1000,-15,1,-5
1594,-8,-17,999,-16,1,-6
1595,-8,-18,999,-15,2,-5
1596,-10,-20,998,-16,1,-6
1597,-8,-17,999,-15,1,-6
1598,-9,-18,999,-16,2,-6
1599,-9,-17,1000,-16,0,-5
1600,-9,-17,1000,-14,1,-5
1601,-7,-18,1000,-14,0,-5
1602,-9,-18,1000,-16,2,-5
1603,-9,-20,1000,-16,0,-5
1604,-9,-18,1000,-15,1,-6
1605,-10,-18,1001,-16,0,-5
1606,-10,-18,1000,-17,0,-5
1607,-9,-17,999,-17,1,-4
1608,-10,-18,1001,-15,-1,-5
1609,-9,-18,999,-17,0,-6
1610,-9,-17,998,-16,0,-5
1611,-10,-18,1000,-17,1,-6
1612,-10,-19,1000,-18,0,-5
1613,-10,-19,1000,-16,1,-6
1614,-9,-18,999,-17,1,-7
1615,-10,-18,1000,-16,2,-5
1616,-11,-18,1000,-16,1,-5
1617,-8,-17,999,-15,-1,-6
1618,-9,-18,999,-16,0,-6
1619,-10,-18,999,-16,1,-5
1620,-9,-19,999,-15,1,-5
1621,-9,-18,998,-16,-1,-6
1622,-9,-17,999,-14,1,-6
1623,-11,-19,999,-14,1,-5
1624,-9,-18,998,-16,1,-6
1625,-9,-19,998,-16,1,-5
1626,-8,-18,998,-16,0,-6
1627,-8,-17,998,-15,1,-5
1628,-8,-18,998,-16,1,-4
1629,-8,-18,999,-16,0,-5
1630,-11,-19,998,-15,1,-6
1631,-6,-18,997,-14,1,-6
1632,-6,-18,999,-16,0,-5
1633,-9,-16,1001,-16,1,-6
1634,-8,-17,997,-15,2,-5
1635,-10,-18,999,-15,1,-5
1636,-7,-19,997,-15,0,-6
1637,-8,-19,1000,-16,0,-5
1638,-9,-17,999,-15,1,-7
1639,-10,-17,998,-16,1,-6
1640,-9,-18,998,-16,1,-6
1641,-9,-19,999,-15,1,-6
1642,-9,-18,997,-18,1,-6
1643,-8,-17,998,-16,1,-6
1644,-8,-16,999,-17,1,-5
1645,-8,-17,998,-14,0,-4
1646,-8,-20,998,-16,1,-5
1647,-9,-19,998,-15,1,-5
1648,-9,-19,999,-14,0,-6
1649,-7,-17,999,-17,-1,-6
1650,-8,-20,998,-17,0,-5
1651,-8,-19,998,-16,1,-5
1652,-9,-17,999,-16,0,-5
1653,-9,-18,999,-16,0,-5
1654,-7,-19,998,-15,1,-6
1655,-9,-19,999,-16,2,-6
1656,-10,-20,999,-17,1,-7
1657,-11,-20,998,-15,0,-6
1658,-9,-19,1000,-14,0,-5
1659,-11,-19,1000,-14,1,-5
1660,-11,-19,998,-16,1,-6
1661,-7,-18,999,-17,2,-6
1662,-8,-19,998,-15,0,-6
1663,-10,-20,1000,-16,0,-5
1664,-8,-19,1000,-15,1,-5
1665,-10,-18,999,-15,0,-5
1666,-8,-19,999,-15,0,-5
1667,-7,-18,998,-14,0,-5
1668,-7,-18,997,-15,0,-4
1669,-9,-19,998,-16,1,-5
1670,-7,-18,1000,-15,0,-5
1671,-9,-18,1000,-17,1,-6
1672,-9,-19,998,-16,1,-5
1673,-7,-20,998,-16,1,-5
1674,-7,-19,1000,-17,1,-5
1675,-8,-18,998,-15,0,-6
1676,-9,-17,999,-16,1,-6
1677,-9,-17,998,-16,1,-5
1678,-7,-16,999,-17,1,-5
1679,-7,-18,1000,-16,1,-5
1680,-7,-18,1000,-16,0,-6
1681,-10,-19,998,-16,0,-6
1682,-8,-17,1000,-15,1,-5
1683,-10,-18,998,-16,0,-6
1684,-11,-18,999,-14,0,-6
1685,-10,-19,1000,-15,0,-6
1686,-10,-19,999,-16,-1,-5
1687,-8,-18,998,-15,1,-6
1688,-9,-19,999,-15,-1,-5
1689,-8,-19,999,-21,2,-4
1690,-7,-19,1000,-13,2,-6
1691,-9,-16,1001,-16,1,-6
1692,-7,-17,999,-16,1,-6
1693,-8,-18,999,-13,2,-6
1694,-9,-16,1000,-16,1,-4
1695,-9,-17,998,-16,0,-5
1696,-10,-17,999,-16,1,-6
1697,-9,-18,1000,-16,2,-7
1698,-8,-20,1000,-17,1,-5
1699,-9,-18,1000,-18,0,-5
1700,-9,-18,999,-17,2,-4
1701,-8,-19,998,-15,2,-6
1702,-8,-19,999,-14,0,-7
1703,-8,-19,998,-15,1,-4
1704,-9,-18,998,-16,0,-5
1705,-8,-17,999,-17,0,-5
1706,-8,-17,997,-16,0,-5
1707,-7,-19,999,-16,1,-5
1708,-9,-19,999,-16,2,-5
1709,-10,-18,997,-16,0,-6
1710,-8,-18,997,-16,1,-6
1711,-8,-17,997,-15,0,-6
1712,-8,-19,997,-15,1,-5
1713,-10,-17,998,-15,1,-7
1714,-10,-19,997,-16,1,-7
1715,-10,-19,998,-15,1,-6
1716,-10,-18,999,-16,-1,-6
1717,-10,-18,999,-14,0,-5
1718,-9,-20,998,-16,1,-5
1719,-9,-18,999,-16,2,-4
1720,-9,-18,999,-14,1,-5
1721,-9,-17,999,-15,1,-5
1722,-10,-17,998,-16,1,-5
1723,-8,-19,998,-15,0,-6
1724,-8,-18,998,-15,0,-6
1725,-8,-17,997,-15,1,-6
1726,-10,-17,998,-15,1,-6
1727,-9,-17,996,-16,1,-4
1728,-9,-17,1000,-15,2,-5
1729,-11,-18,997,-16,0,-5
1730,-8,-17,999,-16,1,-5
1731,-8,-19,997,-15,0,-6
1732,-9,-19,999,-16,0,-6
1733,-10,-19,999,-15,1,-6
1734,-9,-19,998,-17,0,-6
1735,-7,-18,999,-17,0,-6
1736,-7,-20,999,-15,1,-7
1737,-8,-18,998,-16,1,-5
1738,-9,-19,999,-14,0,-5
1739,-8,-20,999,-15,0,-5
1740,-7,-21,998,-16,-1,-5
1741,-7,-19,1000,-15,1,-5
1742,-7,-18,1000,-15,0,-5
1743,-6,-19,999,-16,0,-4
1744,-8,-19,998,-15,0,-4
1745,-9,-18,998,-16,0,-5
1746,-6,-19,998,-17,-1,-5
1747,-8,-18,998,-17,1,-6
1748,-8,-18,1000,-15,0,-6
1749,-8,-19,999,-16,0,-7
1750,-7,-19,998,-16,0,-7
1751,-9,-18,999,-16,1,-8
1752,-7,-19,998,-15,1,-5
1753,-8,-17,999,-15,1,-6
1754,-10,-17,998,-15,1,-6
1755,-9,-18,1000,-16,1,-6
1756,-8,-19,1000,-15,2,-6
1757,-9,-18,998,-15,0,-6
1758,-10,-19,999,-16,1,-5
1759,-8,-17,1000,-16,0,-4
1760,-8,-17,998,-16,0,-6
1761,-9,-18,999,-15,1,-5
1762,-7,-17,998,-16,1,-6
1763,-8,-18,999,-15,1,-7
1764,-9,-19,1001,-17,1,-6
1765,-10,-19,999,-17,1,-5
1766,-8,-18,999,-16,1,-5
1767,-7,-18,999,-17,1,-6
1768,-9,-19,999,-15,1,-5
1769,-9,-19,998,-17,0,-6
1770,-10,-18,1000,-16,0,-5
1771,-10,-18,1000,-15,1,-5
1772,-11,-18,1000,-15,0,-5
1773,-6,-18,999,-18,1,-5
1774,-10,-18,1000,-17,0,-6
1775,-7,-17,1000,-17,1,-5
1776,-8,-17,999,-16,1,-4
1777,-8,-18,999,-17,0,-5
1778,-8,-17,1000,-17,1,-7
1779,-9,-18,999,-16,1,-6
1780,-10,-19,1001,-16,1,-6
1781,-8,-18,998,-16,-1,-6
1782,-9,-18,999,-17,0,-5
1783,-11,-18,1000,-16,0,-5
1784,-9,-17,999,-16,-1,-6
1785,-10,-16,1000,-15,0,-5
1786,-10,-18,999,-17,1,-5
1787,-7,-16,999,-16,1,-5
1788,-8,-16,999,-17,0,-6
1789,-8,-18,1000,-16,0,-5
1790,-7,-18,998,-17,1,-6
1791,-7,-17,998,-16,0,-5
1792,-7,-19,998,-17,1,-4
1793,-10,-18,999,-16,1,-4
1794,-7,-19,997,-17,0,-5
1795,-8,-16,999,-17,0,-6
1796,-9,-20,995,-16,1,-5
1797,-8,-19,1000,-16,1,-4
1798,-10,-18,997,-16,0,-5
1799,-10,-17,1000,-14,1,-5
1800,-10,-17,997,-15,2,-6
1801,-10,-16,1000,-16,1,-5
1802,-9,-17,998,-17,1,-5
1803,-10,-19,999,-16,1,-5
1804,-10,-19,997,-15,1,-6
1805,-10,-20,999,-15,1,-5
1806,-9,-18,997,-16,2,-5
1807,-11,-19,998,-16,2,-6
1808,-10,-16,999,-14,2,-6
1809,-9,-18,998,-16,0,-6
1810,-9,-16,999,-17,0,-5
1811,-9,-17,997,-15,1,-6
1812,-6,-17,1001,-16,1,-6
1813,-9,-17,998,-16,2,-6
1814,-9,-17,1000,-15,2,-6
1815,-11,-18,998,-13,1,-6
1816,-11,-18,1001,-16,1,-4
1817,-10,-19,999,-16,1,-6
1818,-9,-17,1000,-16,1,-5
1819,-10,-17,999,-16,1,-6
1820,-8,-19,999,-15,0,-6
1821,-9,-16,998,-16,0,-5
1822,-7,-19,998,-16,0,-6
1823,-7,-17,999,-16,0,-5
1824,-9,-18,997,-16,0,-6
1825,-9,-17,1001,-17,0,-6
1826,-8,-19,999,-16,0,-5
1827,-9,-19,1001,-15,1,-6
1828,-9,-18,998,-16,0,-6
1829,-8,-17,999,-15,1,-5
1830,-7,-18,998,-15,1,-6
1831,-7,-19,1000,-14,2,-7
1832,-8,-17,1000,-17,1,-7
1833,-6,-18,998,-17,1,-5
1834,-9,-15,998,-15,-1,-6
1835,-8,-19,996,-16,0,-7
1836,-7,-19,1000,-15,1,-5
1837,-7,-19,996,-15,2,-6
1838,-10,-17,1000,-15,0,-6
1839,-8,-19,997,-14,1,-7
1840,-12,-15,999,-18,0,-5
1841,-8,-19,997,-15,0,-5
1842,-9,-18,1000,-16,0,-5
1843,-9,-18,999,-16,1,-5
1844,-9,-18,999,-15,-1,-5
1845,-6,-18,996,-16,0,-5
1846,-8,-19,998,-15,1,-6
1847,-8,-17,997,-15,1,-6
1848,-9,-18,999,-18,1,-6
1849,-9,-18,998,-16,1,-6
1850,-7,-19,1000,-17,1,-6
1851,-10,-18,998,-15,0,-6
1852,-9,-20,999,-16,1,-5
1853,-11,-19,1000,-15,0,-5
1854,-9,-19,1000,-15,0,-6
1855,-8,-18,1000,-15,0,-6
1856,-9,-20,1001,-16,-1,-6
1857,-9,-18,998,-15,0,-5
1858,-7,-18,1001,-14,1,-5
1859,-7,-18,1001,-16,-1,-6
1860,-9,-19,1000,-15,1,-5
1861,-7,-16,1000,-17,1,-6
1862,-9,-19,1000,-16,0,-5
1863,-8,-16,999,-15,1,-6
1864,-8,-18,999,-16,1,-6
1865,-8,-17,999,-17,1,-5
1866,-7,-19,999,-17,1,-6
1867,-8,-18,1000,-17,2,-5
1868,-9,-19,999,-16,2,-5
1869,-9,-18,999,-16,2,-5
1870,-8,-17,999,-16,2,-5
1871,-9,-16,1000,-15,1,-6
1872,-9,-17,999,-16,0,-5
1873,-10,-19,1000,-16,2,-5
1874,-10,-18,999,-15,1,-6
1875,-8,-19,999,-16,1,-6
1876,-8,-16,999,-16,1,-5
1877,-10,-20,999,-15,1,-5
1878,-8,-17,997,-16,1,-6
1879,-10,-17,999,-15,1,-6
1880,-9,-18,998,-16,0,-6
1881,-9,-18,998,-16,0,-6
1882,-10,-18,999,-15,1,-6
1883,-10,-19,998,-17,1,-5
1884,-9,-16,997,-17,1,-5
1885,-9,-17,998,-16,1,-4
1886,-9,-15,999,-15,1,-5
1887,-9,-17,998,-16,0,-6
1888,-9,-16,1000,-13,0,-6
1889,-10,-16,999,-15,0,-5
1890,-9,-17,999,-15,0,-5
1891,-9,-17,998,-16,0,-6
1892,-8,-17,997,-16,1,-4
1893,-8,-18,999,-15,2,-4
1894,-10,-18,999,-16,0,-5
1895,-8,-18,999,-14,1,-7
1896,-9,-18,999,-16,0,-5
1897,-10,-19,999,-16,1,-5
1898,-7,-18,997,-14,1,-5
1899,-7,-20,998,-14,0,-5
1900,-6,-17,999,-15,1,-6
1901,-8,-18,999,-15,2,-6
1902,-8,-19,998,-15,1,-5
1903,-9,-18,1001,-15,0,-6
1904,-9,-20,1000,-15,0,-6
1905,-8,-19,999,-15,0,-6
1906,-8,-19,998,-15,-1,-6
1907,-9,-19,1000,-15,1,-6
1908,-7,-18,998,-16,1,-6
1909,-6,-19,1001,-15,1,-7
1910,-10,-19,998,-15,1,-5
1911,-8,-18,1000,-16,1,-5
1912,-7,-18,998,-16,0,-6
1913,-9,-17,1000,-15,2,-5
1914,-9,-18,998,-16,0,-6
1915,-8,-18,1000,-16,0,-6
1916,-6,-17,999,-15,1,-6
1917,-7,-18,1000,-16,0,-6
1918,-9,-17,998,-15,0,-5
1919,-9,-18,998,-16,1,-6
1920,-10,-18,998,-16,0,-5
1921,-9,-17,1000,-16,1,-5
1922,-9,-18,998,-14,1,-6
1923,-10,-18,998,-16,1,-6
1924,-9,-18,999,-16,1,-6
1925,-11,-17,999,-17,3,-5
1926,-11,-17,997,-16,2,-5
1927,-9,-17,998,-14,1,-5
1928,-9,-18,1000,-15,1,-6
1929,-9,-19,998,-16,-1,-5
1930,-9,-19,999,-16,1,-5
1931,-9,-18,999,-16,0,-5
1932,-10,-18,1000,-16,1,-5
1933,-9,-18,999,-17,-1,-6
1934,-9,-17,999,-16,1,-6
1935,-10,-18,998,-16,0,-6
1936,-8,-19,1000,-15,1,-5
1937,-8,-18,1000,-14,1,-6
1938,-7,-17,999,-15,0,-6
1939,-9,-17,999,-16,1,-6
1940,-10,-18,1000,-15,1,-5
1941,-10,-19,1000,-17,0,-6
1942,-7,-19,1000,-17,0,-5
1943,-7,-18,1001,-15,0,-4
1944,-8,-20,1000,-17,-1,-6
1945,-8,-17,1001,-16,1,-5
1946,-10,-18,998,-14,1,-6
1947,-8,-18,1001,-16,0,-5
1948,-10,-19,999,-15,0,-6
1949,-7,-18,1000,-16,1,-5
1950,-9,-19,1000,-17,0,-6
1951,-9,-16,999,-14,-1,-5
1952,-7,-21,1002,-16,0,-5
1953,-7,-18,1001,-15,1,-5
1954,-8,-17,999,-16,1,-5
1955,-10,-16,999,-16,1,-5
1956,-8,-15,1000,-16,1,-6
1957,-8,-16,1000,-16,1,-5
1958,-9,-17,999,-16,0,-5
1959,-9,-16,999,-16,0,-5
1960,-9,-18,999,-15,1,-6
1961,-9,-17,999,-15,0,-6
1962,-9,-17,998,-16,1,-6
1963,-8,-17,999,-16,1,-6
1964,-7,-17,998,-15,1,-5
1965,-7,-17,998,-16,1,-5
1966,-7,-18,999,-16,0,-5
1967,-9,-17,1000,-16,1,-6
1968,-10,-17,1001,-15,1,-6
1969,-9,-16,999,-16,1,-5
1970,-7,-18,999,-15,0,-6
1971,-9,-17,1000,-15,0,-7
1972,-10,-18,999,-16,1,-6
1973,-9,-16,1000,-16,1,-5
1974,-8,-17,1000,-15,1,-6
1975,-8,-18,998,-16,1,-6
1976,-9,-18,999,-15,1,-5
1977,-9,-19,999,-17,1,-6
1978,-8,-18,999,-16,1,-5
1979,-7,-18,999,-15,1,-5
1980,-9,-17,997,-14,0,-6
1981,-9,-17,998,-16,-1,-7
1982,-9,-18,999,-16,0,-5
1983,-8,-18,998,-16,0,-5
1984,-10,-19,998,-16,1,-6
1985,-11,-18,999,-17,0,-6
1986,-10,-19,999,-15,0,-6
1987,-9,-20,998,-16,-1,-6
1988,-9,-18,998,-16,0,-5
1989,-8,-18,998,-15,1,-5
1990,-9,-20,999,-15,1,-5
1991,-9,-19,999,-15,0,-5
1992,-9,-19,999,-16,1,-5
1993,-9,-18,997,-16,1,-5
1994,-8,-19,999,-15,1,-6
1995,-7,-18,997,-17,0,-6
1996,-8,-19,999,-15,1,-5
1997,-8,-17,998,-17,-1,-6
1998,-8,-17,998,-15,0,-4
1999,-7,-18,998,-15,0,-4
2000,-9,-19,998,-16,0,-6
2001,-9,-18,997,-17,-1,-6
2002,-8,-17,999,-16,0,-5
2003,-8,-19,1000,-16,0,-6
2004,-8,-17,1000,-16,0,-6
2005,-8,-18,1000,-16,0,-5
2006,-8,-18,999,-16,1,-6
2007,-8,-17,999,-15,1,-6
2008,-10,-18,999,-15,0,-5
2009,-6,-19,998,-17,2,-5
2010,-8,-19,999,-16,1,-5
2011,-8,-17,999,-16,0,-5
2012,-7,-17,1000,-15,0,-6
2013,-8,-16,1000,-17,0,-5
2014,-8,-18,998,-16,1,-5
2015,-8,-18,1000,-16,0,-5
2016,-8,-19,999,-16,0,-5
2017,-8,-18,1000,-16,-1,-6
2018,-8,-17,1000,-17,1,-5
2019,-8,-18,999,-16,1,-5
2020,-8,-18,999,-17,1,-5
2021,-8,-17,999,-16,1,-5
2022,-9,-15,1000,-17,1,-4
2023,-8,-19,1000,-17,0,-5
2024,-7,-18,1002,-17,1,-5
2025,-8,-17,999,-17,0,-5
2026,-6,-18,1000,-17,0,-4
2027,-11,-18,999,-16,0,-5
2028,-7,-18,1000,-16,0,-5
2029,-7,-19,998,-15,2,-6
2030,-9,-19,999,-14,1,-5
2031,-9,-18,1001,-15,-2,-7
2032,-8,-18,999,-14,3,-6
2033,-7,-19,999,-19,0,-6
2034,-7,-19,1000,-16,0,-6
2035,-10,-18,999,-16,0,-5
2036,-8,-18,1000,-18,0,-5
2037,-9,-19,1000,-15,0,-6
2038,-8,-17,999,-16,0,-5
2039,-9,-17,998,-16,1,-5
2040,-10,-17,999,-15,2,-5
2041,-8,-17,998,-16,2,-5
2042,-9,-17,999,-15,1,-5
2043,-10,-18,998,-16,-1,-5
2044,-9,-17,999,-16,0,-5
2045,-7,-18,999,-15,1,-7
2046,-9,-19,999,-17,0,-5
2047,-9,-18,998,-16,0,-6
2048,-10,-20,998,-16,1,-6
2049,-11,-18,999,-16,0,-5
2050,-8,-17,998,-16,0,-5
2051,-10,-16,998,-17,0,-7
2052,-10,-16,998,-15,0,-6
2053,-11,-16,999,-14,1,-5
2054,-11,-17,1000,-16,1,-6
2055,-9,-18,999,-15,0,-6
2056,-9,-17,999,-17,1,-6
2057,-9,-17,997,-16,0,-6
2058,-9,-17,998,-15,0,-5
2059,-9,-18,997,-16,0,-6
2060,-9,-18,999,-15,0,-6
2061,-9,-17,1000,-16,0,-6
2062,-9,-17,998,-16,1,-5
2063,-9,-18,999,-15,-1,-5
2064,-7,-18,999,-16,-1,-7
2065,-10,-17,1000,-16,0,-7
2066,-8,-17,998,-15,0,-6
2067,-9,-15,998,-15,1,-6
2068,-9,-16,1000,-15,1,-6
2069,-9,-16,998,-15,0,-7
2070,-10,-19,999,-15,1,-7
2071,-9,-18,1000,-15,1,-6
2072,-11,-17,998,-17,-1,-5
2073,-10,-20,998,-16,0,-5
2074,-8,-18,998,-16,1,-6
2075,-9,-17,999,-16,2,-6
2076,-10,-18,1000,-16,1,-5
2077,-9,-17,1000,-16,0,-6
2078,-7,-17,999,-15,1,-6
2079,-10,-17,999,-16,0,-5
2080,-8,-18,999,-15,0,-5
2081,-9,-18,997,-16,0,-5
2082,-8,-19,998,-15,0,-6
2083,-8,-18,998,-16,1,-5
2084,-7,-19,999,-15,-1,-6
2085,-9,-17,1000,-15,-1,-6
2086,-8,-16,999,-15,1,-5
2087,-7,-17,998,-15,0,-5
2088,-9,-18,999,-17,1,-4
2089,-7,-17,1000,-18,1,-5
2090,-6,-17,998,-17,0,-6
2091,-7,-17,999,-15,-1,-6
2092,-9,-17,1000,-15,0,-5
2093,-6,-17,1000,-15,1,-5
2094,-9,-19,999,-16,1,-6
2095,-9,-18,998,-16,0,-6
2096,-9,-20,998,-15,1,-4
2097,-9,-18,999,-17,0,-5
2098,-7,-19,999,-16,1,-5
2099,-8,-18,1000,-17,1,-5
2100,-9,-17,998,-16,1,-5
2101,-10,-17,998,-15,0,-4
2102,-9,-16,999,-16,0,-6
2103,-11,-17,1000,-15,0,-6
2104,-9,-19,1000,-16,0,-7
2105,-9,-18,999,-17,0,-5
2106,-8,-19,999,-14,1,-5
2107,-8,-19,999,-16,0,-5
2108,-9,-18,1000,-16,0,-5
2109,-9,-18,998,-16,0,-5
2110,-7,-16,999,-16,1,-7
2111,-9,-19,1000,-15,1,-5
2112,-9,-17,1000,-15,2,-5
2113,-9,-18,998,-16,0,-5
2114,-8,-18,999,-15,0,-5
2115,-10,-16,1001,-17,-1,-6
2116,-8,-18,1000,-15,0,-6
2117,-9,-16,1000,-17,2,-6
2118,-6,-15,999,-16,0,-6
2119,-8,-17,1000,-14,0,-6
2120,-8,-18,1000,-16,-1,-5
2121,-8,-19,1000,-15,0,-4
2122,-8,-20,999,-15,0,-5
2123,-10,-19,999,-18,1,-6
2124,-7,-18,999,-17,2,-6
2125,-8,-18,999,-16,0,-6
2126,-9,-17,999,-15,0,-5
2127,-8,-18,998,-15,1,-6
2128,-9,-19,996,-16,0,-6
2129,-8,-18,999,-15,0,-5
2130,-9,-19,998,-16,1,-6
2131,-9,-19,998,-16,0,-6
2132,-9,-19,999,-15,1,-6
2133,-8,-17,998,-14,1,-5
2134,-9,-18,999,-15,0,-4
2135,-9,-17,998,-15,2,-6
2136,-10,-18,998,-16,1,-6
2137,-10,-18,1000,-15,0,-5
2138,-7,-18,999,-16,0,-6
2139,-10,-19,999,-16,0,-7
2140,-8,-17,997,-16,1,-6
2141,-10,-18,999,-15,0,-5
2142,-10,-16,998,-16,1,-5
2143,-11,-17,998,-15,1,-5
2144,-9,-18,999,-16,1,-5
2145,-9,-16,999,-15,1,-5
2146,-9,-17,999,-16,0,-6
2147,-9,-16,998,-17,0,-6
2148,-9,-18,999,-15,0,-6
2149,-9,-19,999,-15,1,-6
2150,-10,-18,999,-16,1,-4
2151,-9,-17,999,-15,1,-6
2152,-9,-17,998,-15,1,-7
2153,-10,-18,999,-15,0,-6
2154,-10,-19,1000,-17,1,-6
2155,-9,-17,997,-15,-1,-5
2156,-9,-17,998,-15,0,-6
2157,-9,-18,999,-17,1,-7
2158,-8,-18,1000,-15,1,-6
2159,-8,-18,999,-16,1,-6
2160,-7,-19,1000,-15,1,-5
2161,-8,-19,1000,-16,0,-6
2162,-9,-17,999,-16,1,-5
2163,-8,-18,999,-16,0,-6
2164,-7,-19,1000,-16,1,-6
2165,-7,-20,1000,-15,0,-5
2166,-7,-19,998,-16,1,-5
2167,-7,-19,999,-16,1,-5
2168,-8,-19,999,-14,1,-6
2169,-7,-18,998,-16,0,-5
2170,-8,-17,999,-15,1,-5
2171,-8,-18,998,-16,1,-6
2172,-8,-19,999,-16,1,-5
2173,-7,-17,998,-16,1,-5
2174,-8,-17,999,-16,1,-6
2175,-9,-16,1000,-15,1,-6
2176,-7,-17,999,-18,1,-6
2177,-8,-18,1001,-17,1,-6
2178,-8,-19,999,-16,0,-5
2179,-7,-19,999,-17,0,-6
2180,-7,-20,999,-16,0,-6
2181,-8,-19,999,-17,1,-6
2182,-7,-19,999,-16,0,-6
2183,-9,-19,999,-16,0,-6
2184,-8,-18,1000,-16,2,-5
2185,-9,-18,999,-15,1,-6
2186,-8,-17,1000,-17,1,-5
2187,-9,-19,997,-16,1,-6
2188,-9,-19,997,-17,2,-6
2189,-9,-19,998,-15,0,-6
2190,-9,-18,999,-14,0,-5
2191,-10,-19,997,-17,0,-7
2192,-10,-18,999,-13,0,-7
2193,-8,-19,999,-16,0,-5
2194,-10,-19,999,-16,1,-6
2195,-9,-19,1000,-16,1,-5
2196,-10,-19,1000,-17,0,-5
2197,-9,-19,1000,-16,0,-5
2198,-9,-18,1000,-16,1,-6
2199,-9,-17,1000,-17,-1,-6
2200,-9,-18,999,-15,0,-6
2201,-9,-17,998,-16,2,-6
2202,-7,-18,998,-15,1,-5
2203,-6,-17,999,-16,-1,-5
2204,-8,-18,1000,-16,0,-5
2205,-9,-17,1000,-15,1,-6
2206,-8,-17,1000,-16,1,-5
2207,-9,-18,1000,-15,1,-5
2208,-10,-17,998,-15,1,-5
2209,-8,-18,1000,-15,0,-5
2210,-10,-19,998,-15,1,-4
2211,-8,-18,998,-15,2,-5
2212,-9,-18,999,-14,0,-6
2213,-9,-18,998,-14,0,-6
2214,-9,-17,999,-15,1,-6
2215,-8,-19,999,-16,1,-5
2216,-10,-18,998,-16,2,-5
2217,-10,-18,999,-15,1,-6
2218,-9,-16,998,-17,0,-5
2219,-9,-16,999,-16,1,-6
2220,-7,-18,998,-16,0,-5
2221,-9,-16,997,-16,0,-6
2222,-9,-19,1000,-15,0,-5
2223,-8,-18,999,-14,1,-7
2224,-8,-18,999,-16,1,-6
2225,-11,-17,999,-16,1,-5
2226,-9,-18,998,-16,1,-6
2227,-9,-18,997,-14,1,-5
2228,-8,-19,998,-16,1,-7
2229,-9,-18,998,-15,0,-7
2230,-9,-18,999,-15,1,-6
2231,-9,-18,999,-16,0,-5
2232,-10,-18,998,-16,1,-6
2233,-9,-17,999,-14,0,-5
2234,-8,-18,999,-15,0,-6
2235,-8,-16,999,-16,1,-6
2236,-9,-18,998,-16,0,-5
2237,-9,-18,1000,-17,0,-5
2238,-8,-19,999,-16,0,-4
2239,-8,-17,999,-17,0,-7
2240,-8,-20,997,-17,-1,-6
2241,-8,-19,1000,-16,1,-5
2242,-8,-17,999,-16,0,-5
2243,-8,-20,999,-16,-1,-7
2244,-8,-20,998,-15,0,-5
2245,-8,-19,1000,-15,1,-5
2246,-8,-18,997,-15,0,-6
2247,-8,-19,999,-16,1,-6
2248,-7,-20,999,-16,1,-6
2249,-7,-19,999,-14,1,-5
2250,-7,-17,999,-15,0,-5
2251,-7,-19,998,-15,1,-7
2252,-9,-19,998,-14,0,-6
2253,-9,-19,998,-15,1,-6
2254,-7,-18,999,-16,1,-6
2255,-9,-18,998,-16,0,-4
2256,-9,-19,998,-15,1,-6
2257,-9,-18,998,-16,0,-4
2258,-8,-17,998,-17,1,-6
2259,-11,-16,999,-15,0,-5
2260,-9,-20,999,-15,0,-5
2261,-9,-18,997,-15,1,-6
2262,-7,-18,998,-16,1,-5
2263,-7,-17,998,-15,1,-6
2264,-9,-18,999,-15,0,-7
2265,-11,-18,999,-15,-1,-6
2266,-9,-19,999,-14,-1,-6
2267,-9,-16,1001,-13,1,-6
2268,-7,-17,1000,-15,0,-5
2269,-9,-19,1001,-16,0,-6
2270,-10,-17,999,-16,1,-6
2271,-8,-16,1001,-16,-1,-6
2272,-9,-17,999,-17,-1,-5
2273,-9,-19,999,-17,1,-6
2274,-9,-19,998,-16,2,-5
2275,-9,-18,1000,-16,2,-6
2276,-8,-18,1002,-15,1,-6
2277,-8,-17,1001,-15,1,-6
2278,-9,-17,1001,-15,0,-5
2279,-10,-18,1000,-15,-1,-6
2280,-8,-16,1001,-17,0,-6
2281,-9,-18,1000,-17,1,-6
2282,-8,-19,999,-16,-1,-6
2283,-6,-19,1000,-15,0,-6
2284,-9,-18,999,-14,1,-5
2285,-8,-19,999,-15,0,-7
2286,-10,-17,999,-15,0,-6
2287,-8,-19,999,-15,0,-5
2288,-7,-20,999,-16,2,-5
2289,-6,-19,1000,-16,1,-6
2290,-8,-17,999,-15,1,-5
2291,-8,-18,999,-16,0,-6
2292,-8,-19,999,-15,1,-4
2293,-9,-19,998,-15,1,-4
2294,-8,-17,998,-16,0,-4
2295,-9,-18,998,-15,1,-5
2296,-9,-18,998,-15,1,-6
2297,-9,-17,999,-15,1,-5
2298,-9,-18,999,-16,1,-6
2299,-10,-17,998,-15,0,-5
2300,-10,-17,998,-15,0,-6
2301,-10,-19,998,-16,1,-5
2302,-10,-18,999,-15,1,-5
2303,-7,-17,997,-15,2,-6
2304,-10,-18,997,-15,0,-6
2305,-10,-17,1000,-16,-1,-6
2306,-9,-17,998,-15,2,-6
2307,-7,-20,999,-16,2,-5
2308,-10,-18,998,-15,0,-6
2309,-9,-18,999,-14,0,-7
2310,-9,-18,998,-15,1,-6
2311,-9,-17,999,-16,2,-6
2312,-7,-16,999,-16,1,-6
2313,-10,-16,1000,-17,1,-6
2314,-8,-17,1000,-16,0,-6
2315,-10,-19,997,-16,-1,-6
2316,-10,-19,999,-17,0,-6
2317,-8,-22,999,-14,0,-6
2318,-9,-19,998,-15,-1,-5
2319,-9,-17,995,-14,0,-5
2320,-7,-18,999,-15,0,-6
2321,-9,-17,997,-15,0,-5
2322,-10,-19,999,-14,1,-5
2323,-12,-18,998,-15,1,-5
2324,-11,-18,998,-16,0,-6
2325,-8,-18,998,-16,1,-5
2326,-8,-18,999,-16,3,-5
2327,-11,-17,999,-16,1,-5
2328,-10,-18,999,-16,1,-5
2329,-8,-17,998,-16,0,-5
2330,-8,-17,998,-17,1,-5
2331,-7,-17,999,-16,1,-6
2332,-6,-21,999,-16,2,-7
2333,-8,-16,998,-15,1,-5
2334,-7,-17,1000,-16,1,-5
2335,-8,-17,999,-16,2,-5
2336,-9,-16,998,-15,1,-6
2337,-9,-18,1000,-15,0,-5
2338,-8,-18,1000,-16,0,-5
2339,-8,-18,998,-16,1,-6
2340,-9,-19,997,-16,1,-6
2341,-8,-18,998,-15,0,-6
2342,-10,-17,1000,-16,0,-6
2343,-7,-18,998,-16,0,-5
2344,-10,-19,998,-14,0,-6
2345,-9,-18,999,-15,0,-6
2346,-10,-18,998,-16,-1,-5
2347,-9,-18,997,-16,1,-6
2348,-7,-19,999,-16,1,-5
2349,-7,-20,999,-16,1,-6
2350,-6,-20,998,-14,1,-6
2351,-7,-18,998,-15,0,-5
2352,-6,-17,999,-15,1,-5
2353,-9,-19,998,-15,1,-6
2354,-8,-17,1000,-16,0,-4
2355,-9,-18,999,-14,1,-5
2356,-8,-18,999,-16,1,-4
2357,-8,-18,999,-14,0,-6
2358,-7,-17,999,-16,2,-6
2359,-7,-17,1000,-15,1,-6
2360,-8,-19,1000,-15,1,-5
2361,-10,-18,999,-16,2,-6
2362,-9,-19,1000,-17,1,-6
2363,-8,-18,999,-16,1,-6
2364,-7,-18,999,-16,0,-5
2365,-10,-17,998,-17,-2,-6
2366,-9,-18,999,-11,8,-4
2367,-9,-16,1000,-16,8,-3
2368,-8,-17,998,-17,0,-4
2369,-8,-18,1000,-15,-1,-5
2370,-9,-18,999,-16,1,-6
2371,-7,-17,1000,-15,2,-5
2372,-9,-15,998,-15,0,-5
2373,-8,-17,1000,-16,1,-6
2374,-9,-16,1000,-15,1,-6
2375,-9,-17,1000,-15,1,-6
2376,-8,-16,999,-16,2,-6
2377,-11,-17,998,-16,1,-6
2378,-9,-18,1000,-16,1,-5
2379,-9,-18,1000,-16,0,-5
2380,-10,-17,999,-15,0,-5
2381,-9,-18,999,-15,1,-4
2382,-9,-16,998,-16,0,-6
2383,-8,-16,999,-16,-1,-5
2384,-8,-18,999,-16,-1,-5
2385,-9,-19,998,-15,0,-6
2386,-9,-18,999,-15,1,-6
2387,-7,-18,999,-16,1,-6
2388,-7,-20,998,-14,1,-6
2389,-8,-17,998,-16,-1,-6
2390,-9,-18,999,-16,0,-5
2391,-8,-16,998,-15,0,-7
2392,-9,-19,998,-15,2,-5
2393,-9,-18,998,-17,1,-4
2394,-7,-18,998,-16,0,-5
2395,-8,-17,999,-15,-1,-6
2396,-8,-17,998,-15,0,-6
2397,-10,-19,997,-15,1,-5
2398,-8,-18,999,-15,-1,-5
2399,-8,-20,1000,-15,0,-6
2400,-7,-18,1000,-16,0,-7
2401,-9,-18,999,-16,1,-7
2402,-8,-18,998,-14,1,-6
2403,-8,-19,999,-16,1,-5
2404,-8,-18,999,-17,1,-5
2405,-8,-18,999,-15,2,-4
2406,-8,-18,999,-15,0,-4
2407,-12,-18,998,-15,0,-6
2408,-9,-17,999,-16,1,-4
2409,-8,-20,998,-16,0,-6
2410,-9,-18,999,-16,0,-6
2411,-9,-17,998,-16,-1,-6
2412,-9,-17,998,-15,0,-6
2413,-6,-18,998,-17,-1,-5
2414,-9,-18,999,-16,1,-6
2415,-9,-17,999,-15,1,-6
2416,-9,-19,998,-17,0,-5
2417,-8,-20,998,-16,1,-5
2418,-7,-18,997,-16,1,-4
2419,-9,-16,997,-15,0,-5
2420,-9,-18,999,-16,0,-6
2421,-9,-19,999,-16,0,-6
2422,-9,-17,999,-16,1,-7
2423,-7,-18,999,-16,1,-5
2424,-9,-16,997,-16,0,-6
2425,-10,-18,999,-16,-1,-6
2426,-9,-18,999,-16,0,-6
2427,-8,-20,998,-17,2,-7
2428,-8,-17,998,-15,2,-5
2429,-9,-18,999,-17,2,-4
2430,-8,-16,997,-16,1,-5
2431,-8,-18,998,-16,0,-5
2432,-9,-17,998,-16,1,-5
2433,-9,-18,999,-15,0,-6
2434,-8,-16,998,-16,0,-5
2435,-9,-18,1000,-16,0,-4
2436,-8,-19,998,-15,1,-5
2437,-8,-18,998,-17,1,-5
2438,-9,-19,999,-15,0,-5
2439,-7,-19,997,-15,0,-6
2440,-8,-17,999,-14,1,-6
2441,-11,-17,1001,-14,0,-6
2442,-9,-18,999,-18,1,-4
2443,-8,-19,998,-17,-1,-6
2444,-11,-18,1000,-17,1,-4
2445,-8,-18,999,-17,0,-5
2446,-7,-20,999,-16,0,-6
2447,-9,-19,1000,-16,0,-5
2448,-9,-19,998,-17,0,-6
2449,-8,-19,1000,-16,0,-5
2450,-6,-18,998,-15,1,-6
2451,-8,-19,999,-16,0,-5
2452,-7,-18,999,-17,-1,-5
2453,-7,-18,999,-18,-1,-6
2454,-10,-17,1000,-17,1,-4
2455,-9,-17,999,-14,1,-6
2456,-9,-18,1000,-15,0,-6
2457,-10,-20,1000,-15,0,-6
2458,-8,-19,1000,-17,0,-5
2459,-9,-18,998,-15,1,-6
2460,-10,-18,999,-15,0,-5
2461,-9,-17,1000,-15,2,-6
2462,-9,-16,999,-15,2,-7
2463,-9,-17,999,-15,1,-6
2464,-8,-17,999,-15,1,-6
2465,-9,-17,999,-16,0,-5
2466,-10,-16,999,-16,1,-5
2467,-9,-19,998,-15,1,-7
2468,-10,-20,996,-16,1,-6
2469,-7,-19,998,-16,0,-5
2470,-9,-18,999,-16,0,-6
2471,-10,-17,998,-16,0,-5
2472,-10,-17,998,-16,1,-5
2473,-8,-18,1000,-15,0,-5
2474,-8,-18,999,-16,1,-5
2475,-10,-17,997,-15,1,-5
2476,-11,-16,996,-15,0,-6
2477,-9,-16,999,-16,0,-6
2478,-9,-19,999,-16,1,-5
2479,-9,-18,998,-15,1,-5
2480,-8,-18,999,-16,0,-6
2481,-9,-18,1000,-15,1,-6
2482,-8,-17,999,-14,0,-5
2483,-11,-17,999,-15,-1,-5
2484,-11,-18,999,-15,-1,-5
2485,-10,-17,999,-14,-1,-5
2486,-9,-18,999,-15,0,-6
2487,-8,-19,999,-17,0,-6
2488,-8,-18,998,-14,-1,-5
2489,-10,-18,999,-16,0,-5
2490,-8,-17,1000,-15,-1,-6
2491,-7,-18,999,-15,0,-5
2492,-7,-18,999,-15,1,-5
2493,-7,-18,1000,-14,1,-6
2494,-9,-19,999,-16,1,-5
2495,-8,-18,999,-16,1,-5
2496,-8,-18,999,-16,1,-5
2497,-8,-19,998,-15,-1,-5
2498,-9,-20,998,-15,0,-6
2499,-9,-20,998,-16,1,-5
2500,-8,-17,998,-17,0,-5
2501,-9,-19,999,-15,1,-6
2502,-8,-19,1000,-14,1,-5
2503,-8,-19,999,-14,1,-7
2504,-7,-17,1000,-15,0,-6
2505,-8,-19,999,-16,-1,-6
2506,-8,-18,999,-16,0,-6
2507,-7,-17,999,-16,1,-6
2508,-8,-18,999,-16,0,-6
2509,-6,-19,998,-15,1,-6
2510,-9,-19,998,-15,0,-7
2511,-6,-18,998,-16,1,-6
2512,-9,-18,999,-17,-1,-4
2513,-10,-18,999,-16,1,-6
2514,-8,-18,999,-15,1,-6
2515,-9,-17,999,-15,1,-5
2516,-10,-18,1000,-16,1,-6
2517,-10,-17,999,-16,2,-5
2518,-7,-18,999,-16,0,-6
2519,-8,-21,1000,-15,1,-6
2520,-8,-18,997,-16,0,-5
2521,-7,-16,999,-15,1,-6
2522,-9,-18,999,-18,1,-6
2523,-8,-19,999,-16,1,-5
2524,-8,-17,999,-16,1,-5
2525,-8,-16,999,-17,1,-5
2526,-8,-18,999,-17,1,-4
2527,-9,-18,1000,-17,0,-6
2528,-8,-18,998,-16,1,-6
2529,-9,-17,999,-16,0,-6
2530,-7,-18,999,-16,0,-6
2531,-10,-18,998,-16,0,-5
2532,-8,-18,1000,-16,0,-6
2533,-11,-17,1001,-16,0,-5
2534,-9,-16,1000,-15,1,-6
2535,-9,-17,1000,-17,1,-5
2536,-8,-16,999,-16,1,-6
2537,-10,-17,999,-17,0,-5
2538,-7,-17,1000,-16,1,-6
2539,-8,-17,1000,-16,2,-5
2540,-9,-18,998,-15,1,-6
2541,-9,-18,999,-16,0,-6
2542,-9,-18,999,-15,1,-6
2543,-9,-18,1001,-16,1,-6
2544,-9,-17,999,-16,1,-5
2545,-10,-17,999,-16,1,-5
2546,-8,-17,998,-16,1,-6
2547,-7,-18,997,-15,1,-5
2548,-9,-20,998,-15,1,-6
2549,-8,-18,998,-17,1,-5
2550,-9,-18,1000,-16,1,-5
2551,-9,-19,998,-16,1,-5
2552,-10,-18,999,-16,0,-6
2553,-9,-18,998,-16,-1,-6
2554,-9,-19,998,-15,0,-7
2555,-10,-18,998,-16,0,-6
2556,-9,-18,999,-16,0,-6
2557,-9,-19,999,-16,1,-4
2558,-7,-18,999,-15,1,-4
2559,-9,-18,998,-16,0,-6
2560,-8,-17,1001,-16,0,-6
2561,-10,-18,998,-16,-1,-6
2562,-6,-18,1000,-17,0,-4
2563,-9,-19,998,-16,0,-5
2564,-10,-18,1001,-16,0,-5
2565,-8,-17,998,-16,0,-7
2566,-9,-17,998,-17,0,-6
2567,-7,-16,997,-17,0,-5
2568,-9,-20,997,-16,0,-5
2569,-9,-17,998,-16,0,-7
2570,-7,-19,997,-17,0,-7
2571,-8,-18,1001,-16,1,-5
2572,-8,-19,997,-14,1,-5
2573,-8,-18,1000,-16,2,-5
2574,-10,-20,998,-15,0,-5
2575,-9,-19,999,-15,0,-6
2576,-8,-17,998,-16,1,-6
2577,-8,-18,999,-16,2,-6
2578,-7,-18,999,-16,0,-6
2579,-8,-18,998,-17,-1,-6
2580,-8,-18,999,-16,1,-4
2581,-10,-17,999,-15,1,-5
2582,-9,-19,1000,-16,1,-6
2583,-8,-17,998,-17,1,-5
2584,-8,-16,999,-16,0,-5
2585,-8,-18,1000,-14,2,-5
2586,-7,-18,999,-16,0,-7
2587,-8,-18,998,-16,0,-6
2588,-9,-18,1000,-15,1,-6
2589,-8,-18,998,-15,1,-6
2590,-7,-17,997,-15,1,-6
2591,-8,-18,998,-16,0,-6
2592,-8,-17,998,-15,0,-6
2593,-8,-19,999,-16,1,-6
2594,-7,-17,999,-15,2,-5
2595,-8,-17,998,-14,2,-6
2596,-7,-19,996,-16,2,-6
2597,-7,-17,998,-15,1,-5
2598,-11,-19,998,-16,1,-5
2599,-8,-17,999,-16,1,-5
2600,-10,-17,998,-14,0,-5
2601,-9,-18,999,-17,0,-6
2602,-8,-17,998,-17,0,-5
2603,-8,-17,1000,-16,1,-5
2604,-7,-17,998,-17,0,-4
2605,-10,-18,999,-16,1,-5
2606,-9,-19,999,-16,1,-6
2607,-8,-18,998,-16,-1,-5
2608,-10,-19,1000,-16,1,-5
2609,-8,-19,999,-16,0,-5
2610,-8,-18,999,-15,1,-6
2611,-11,-19,998,-15,1,-6
2612,-8,-18,1000,-15,2,-6
2613,-9,-18,1000,-15,0,-6
2614,-7,-18,999,-16,0,-6
2615,-8,-16,999,-16,0,-6
2616,-10,-18,999,-16,-1,-5
2617,-9,-17,1000,-16,0,-6
2618,-9,-18,1000,-15,1,-5
2619,-8,-18,1000,-16,1,-6
2620,-10,-18,1000,-17,1,-5
2621,-10,-20,1001,-16,1,-6
2622,-8,-18,999,-15,-1,-4
2623,-8,-19,1000,-16,0,-6
2624,-8,-18,999,-16,1,-5
2625,-9,-18,999,-17,0,-5
2626,-8,-17,1000,-17,0,-5
2627,-8,-17,999,-16,1,-5
2628,-8,-18,999,-17,1,-5
2629,-7,-18,997,-16,0,-6
2630,-9,-18,999,-15,1,-6
2631,-9,-19,998,-16,1,-5
2632,-10,-18,1001,-16,1,-5
2633,-8,-18,998,-17,1,-5
2634,-8,-18,998,-17,2,-6
2635,-8,-17,996,-15,0,-5
2636,-10,-16,999,-16,0,-6
2637,-9,-19,997,-15,1,-5
2638,-8,-18,999,-15,1,-6
2639,-9,-18,997,-16,1,-5
2640,-9,-17,998,-16,1,-6
2641,-11,-18,998,-16,1,-5
2642,-9,-16,999,-17,1,-5
2643,-9,-17,1002,-16,1,-5
2644,-10,-18,998,-17,1,-6
2645,-9,-17,999,-17,0,-6
2646,-10,-18,1000,-16,2,-5
2647,-8,-17,999,-16,1,-6
2648,-10,-18,998,-16,1,-5
2649,-10,-17,999,-16,1,-6
2650,-8,-17,997,-18,0,-6
2651,-10,-20,1000,-16,1,-6
2652,-10,-19,998,-15,-1,-5
2653,-9,-17,998,-15,1,-6
2654,-8,-19,999,-16,0,-5
2655,-8,-21,999,-17,0,-5
2656,-10,-19,997,-15,0,-5
2657,-9,-19,1000,-16,0,-5
2658,-8,-18,999,-17,1,-6
2659,-8,-18,997,-16,0,-6
2660,-8,-19,999,-16,0,-6
2661,-10,-19,999,-15,0,-5
2662,-9,-17,998,-15,0,-6
2663,-8,-18,998,-16,2,-6
2664,-8,-17,998,-15,0,-6
2665,-10,-18,998,-16,0,-5
2666,-7,-19,998,-16,1,-5
2667,-8,-19,1000,-14,0,-6
2668,-9,-19,999,-15,-1,-6
2669,-8,-17,1000,-16,0,-5
2670,-8,-19,998,-16,1,-5
2671,-8,-19,1002,-16,0,-5
2672,-8,-18,999,-15,0,-5
2673,-7,-17,1001,-15,1,-4
2674,-9,-17,998,-16,0,-6
2675,-6,-17,1000,-16,1,-6
2676,-8,-19,999,-17,0,-6
2677,-8,-16,999,-16,1,-7
2678,-10,-17,999,-16,0,-6
2679,-9,-16,1000,-17,1,-7
2680,-9,-19,999,-15,0,-6
2681,-9,-18,999,-15,0,-6
2682,-9,-18,999,-17,2,-5
2683,-8,-18,997,-15,2,-6
2684,-8,-17,999,-16,0,-5
2685,-8,-19,998,-17,0,-6
2686,-9,-18,998,-14,0,-6
2687,-9,-17,999,-15,2,-6
2688,-11,-17,999,-15,2,-5
2689,-7,-19,998,-16,1,-5
2690,-9,-18,999,-16,0,-6
2691,-9,-20,998,-15,1,-6
2692,-9,-18,999,-17,2,-6
2693,-9,-18,999,-16,2,-5
2694,-7,-18,998,-17,1,-5
2695,-7,-17,999,-15,1,-5
2696,-7,-19,1000,-16,0,-6
2697,-8,-18,1001,-15,0,-5
2698,-8,-19,999,-15,1,-6
2699,-7,-17,1000,-15,1,-5
2700,-8,-17,1000,-15,2,-5
2701,-6,-18,1000,-16,1,-5
2702,-8,-18,999,-16,1,-6
2703,-9,-19,999,-16,0,-6
2704,-8,-18,1000,-10,1,-6
2705,-9,-19,998,-15,0,-5
2706,-7,-17,1000,-15,-1,-5
2707,-8,-18,999,-16,0,-6
2708,-8,-18,1000,-16,1,-4
2709,-7,-19,1000,-15,1,-5
2710,-8,-18,999,-15,0,-6
2711,-9,-17,998,-16,2,-6
2712,-10,-17,1000,-16,1,-5
2713,-8,-18,998,-16,1,-6
2714,-9,-19,999,-15,1,-5
2715,-9,-17,998,-15,0,-5
2716,-9,-19,999,-15,0,-6
2717,-9,-18,999,-15,0,-6
2718,-9,-17,1000,-16,1,-6
2719,-9,-16,997,-16,1,-6
2720,-9,-16,998,-15,2,-5
2721,-9,-18,999,-15,1,-6
2722,-9,-18,997,-15,0,-6
2723,-11,-17,998,-14,0,-5
2724,-8,-17,999,-15,1,-5
2725,-10,-18,998,-16,2,-5
2726,-8,-16,999,-15,0,-5
2727,-10,-18,1000,-17,0,-6
2728,-10,-18,1000,-15,0,-5
2729,-9,-17,998,-15,1,-5
2730,-9,-17,998,-17,1,-6
2731,-8,-19,998,-15,1,-6
2732,-9,-17,999,-15,1,-6
2733,-9,-18,998,-14,0,-6
2734,-10,-18,997,-16,0,-5
2735,-9,-19,999,-16,0,-5
2736,-10,-19,999,-16,1,-5
2737,-9,-18,997,-14,0,-6
2738,-9,-17,997,-15,0,-4
2739,-7,-18,1000,-16,-1,-5
2740,-8,-18,999,-16,-1,-7
2741,-7,-17,999,-15,0,-7
2742,-9,-16,999,-16,0,-6
2743,-8,-18,998,-16,0,-7
2744,-9,-17,998,-16,0,-6
2745,-9,-18,1000,-15,0,-6
2746,-8,-19,998,-17,0,-6
2747,-8,-17,999,-16,0,-7
2748,-10,-17,997,-17,1,-6
2749,-11,-19,999,-14,1,-6
2750,-9,-19,998,-15,1,-5
2751,-9,-16,999,-16,1,-5
2752,-10,-18,998,-16,0,-4
2753,-9,-18,998,-15,0,-6
2754,-8,-19,1000,-15,1,-6
2755,-8,-18,999,-15,2,-6
2756,-10,-17,1000,-17,1,-5
2757,-7,-17,1000,-14,-1,-5
2758,-9,-19,998,-15,0,-6
2759,-8,-17,999,-14,1,-7
2760,-8,-17,1001,-14,1,-5
2761,-8,-18,1000,-16,0,-5
2762,-8,-19,999,-15,2,-5
2763,-9,-20,998,-15,1,-5
2764,-8,-19,998,-16,1,-6
2765,-8,-20,998,-15,1,-5
2766,-7,-20,998,-16,1,-5
2767,-8,-20,998,-17,1,-6
2768,-10,-17,999,-15,1,-5
2769,-8,-18,998,-15,0,-5
2770,-8,-18,998,-14,0,-5
2771,-9,-19,1000,-16,1,-5
2772,-9,-18,998,-16,-1,-4
2773,-9,-17,1000,-16,0,-5
2774,-7,-18,1000,-16,0,-4
2775,-9,-18,999,-16,0,-5
2776,-8,-18,999,-17,0,-6
2777,-7,-18,1000,-15,0,-6
2778,-8,-19,1000,-15,0,-6
2779,-10,-19,1000,-17,0,-5
2780,-9,-19,1000,-15,2,-5
2781,-9,-18,999,-15,1,-5
2782,-9,-19,999,-16,2,-6
2783,-8,-19,1000,-16,2,-5
2784,-9,-18,1000,-17,1,-4
2785,-10,-18,998,-15,0,-5
2786,-9,-16,999,-16,1,-5
2787,-9,-16,999,-15,1,-6
2788,-9,-19,998,-16,0,-6
2789,-8,-17,1000,-17,-1,-6
2790,-10,-17,999,-15,1,-5
2791,-8,-17,999,-17,1,-5
2792,-8,-19,999,-18,1,-4
2793,-7,-17,1000,-15,1,-4
2794,-8,-17,999,-17,0,-5
2795,-8,-17,999,-16,0,-4
2796,-8,-20,999,-16,0,-5
2797,-8,-17,999,-17,1,-6
2798,-9,-17,998,-16,1,-6
2799,-10,-18,1000,-16,1,-5
2800,-8,-17,1000,-15,2,-6
2801,-9,-17,998,-16,1,-6
2802,-10,-17,998,-16,0,-6
2803,-9,-18,999,-16,0,-6
2804,-9,-20,998,-16,1,-5
2805,-11,-17,999,-15,2,-6
2806,-10,-20,998,-17,1,-5
2807,-10,-18,998,-15,0,-5
2808,-9,-18,997,-15,0,-6
2809,-10,-18,998,-15,0,-5
2810,-8,-18,998,-15,0,-5
2811,-8,-18,999,-17,-1,-5
2812,-7,-17,1000,-15,1,-5
2813,-11,-19,998,-16,1,-5
2814,-11,-20,999,-14,1,-5
2815,-10,-19,999,-15,2,-5
2816,-9,-19,997,-16,0,-5
2817,-8,-17,997,-16,0,-6
2818,-8,-18,998,-15,0,-6
2819,-9,-18,999,-16,0,-7
2820,-9,-18,998,-15,0,-6
2821,-8,-17,998,-15,1,-4
2822,-7,-17,999,-16,0,-6
2823,-10,-17,998,-15,0,-5
2824,-9,-17,997,-16,0,-5
2825,-8,-18,1000,-16,0,-6
2826,-8,-17,1000,-15,0,-6
2827,-9,-18,1000,-16,0,-6
2828,-9,-18,1000,-16,1,-6
2829,-10,-18,999,-17,1,-7
2830,-10,-18,999,-17,0,-5
2831,-10,-20,999,-17,1,-5
2832,-10,-17,999,-16,0,-6
2833,-9,-18,998,-14,0,-6
2834,-6,-19,999,-16,1,-5
2835,-7,-17,1000,-16,0,-5
2836,-7,-18,999,-15,0,-6
2837,-8,-18,998,-15,1,-6
2838,-7,-18,998,-16,2,-4
2839,-9,-20,998,-15,1,-6
2840,-6,-17,998,-15,0,-6
2841,-8,-18,999,-16,0,-6
2842,-9,-20,1000,-15,0,-6
2843,-7,-19,999,-16,0,-6
2844,-8,-17,999,-15,1,-5
2845,-8,-18,1000,-15,0,-7
2846,-9,-18,999,-17,1,-6
2847,-7,-18,998,-17,1,-5
2848,-9,-19,999,-16,1,-5
2849,-9,-20,998,-16,0,-5
2850,-8,-19,998,-18,1,-5
2851,-7,-18,999,-16,1,-5
2852,-8,-17,999,-18,0,-5
2853,-6,-17,999,-17,1,-5
2854,-8,-18,1000,-15,0,-6
2855,-9,-18,1000,-16,0,-5
2856,-9,-18,998,-16,0,-5
2857,-9,-17,999,-17,0,-4
2858,-9,-18,999,-17,0,-5
2859,-8,-18,998,-17,2,-6
2860,-9,-18,999,-17,1,-6
2861,-11,-19,1001,-14,1,-6
2862,-8,-19,999,-15,1,-6
2863,-9,-19,999,-15,0,-6
2864,-7,-19,1000,-17,1,-5
2865,-8,-17,1000,-17,2,-5
2866,-10,-19,1000,-15,1,-6
2867,-7,-18,1000,-16,2,-5
2868,-8,-19,999,-15,1,-5
2869,-8,-18,999,-15,0,-4
2870,-8,-17,998,-16,0,-4
2871,-11,-18,999,-15,0,-6
2872,-9,-17,1000,-15,1,-6
2873,-8,-18,999,-16,1,-4
2874,-8,-16,998,-17,1,-5
2875,-8,-17,998,-18,0,-5
2876,-9,-18,999,-17,1,-6
2877,-9,-18,999,-17,1,-6
2878,-7,-18,998,-14,-1,-6
2879,-7,-18,998,-14,0,-5
2880,-8,-17,998,-17,1,-7
2881,-9,-17,998,-16,0,-6
2882,-9,-18,999,-14,1,-5
2883,-7,-19,998,-16,1,-4
2884,-11,-20,1000,-17,1,-4
2885,-9,-18,997,-15,1,-4
2886,-8,-17,999,-16,0,-5
2887,-8,-18,999,-17,1,-6
2888,-10,-16,999,-17,-1,-5
2889,-10,-18,999,-15,0,-5
2890,-10,-16,998,-15,1,-5
2891,-9,-17,998,-15,1,-6
2892,-9,-16,998,-17,1,-6
2893,-10,-19,997,-16,1,-6
2894,-9,-19,998,-16,2,-6
2895,-9,-18,999,-16,1,-6
2896,-8,-19,998,-14,1,-6
2897,-8,-18,998,-15,1,-6
2898,-9,-18,999,-15,0,-6
2899,-9,-18,998,-16,0,-6
2900,-8,-17,999,-16,1,-6
2901,-7,-16,999,-14,1,-5
2902,-10,-17,999,-16,1,-6
2903,-9,-18,997,-16,0,-6
2904,-8,-19,997,-15,0,-6
2905,-8,-17,998,-17,0,-6
2906,-8,-17,998,-16,0,-5
2907,-8,-18,999,-18,2,-5
2908,-9,-18,999,-16,1,-5
2909,-8,-19,998,-16,0,-5
2910,-10,-17,998,-16,0,-5
2911,-9,-18,999,-15,1,-5
2912,-7,-19,998,-15,0,-4
2913,-7,-20,999,-15,1,-5
2914,-8,-20,999,-15,1,-5
2915,-8,-18,998,-16,0,-5
2916,-9,-18,998,-16,0,-5
2917,-8,-18,998,-17,1,-5
2918,-8,-19,998,-16,0,-5
2919,-9,-18,999,-16,1,-6
2920,-8,-18,999,-16,0,-6
2921,-8,-18,999,-16,0,-6
2922,-9,-17,997,-16,1,-6
2923,-10,-16,999,-15,0,-5
2924,-9,-16,999,-16,-1,-5
2925,-9,-19,1000,-15,0,-5
2926,-7,-18,998,-16,2,-5
2927,-8,-18,998,-15,1,-6
2928,-8,-18,999,-16,-1,-6
2929,-8,-18,998,-15,0,-5
2930,-8,-18,998,-15,1,-5
2931,-9,-17,998,-16,1,-6
2932,-11,-17,998,-15,1,-5
2933,-8,-18,998,-14,0,-5
2934,-9,-17,999,-15,0,-5
2935,-9,-19,998,-16,-1,-7
2936,-8,-19,1000,-15,0,-5
2937,-9,-17,998,-16,1,-6
2938,-8,-18,999,-15,1,-5
2939,-8,-20,999,-16,1,-5
2940,-9,-18,998,-15,0,-6
2941,-8,-19,998,-14,0,-5
2942,-8,-18,999,-16,1,-6
2943,-8,-17,999,-15,-1,-6
2944,-8,-17,999,-15,-1,-6
2945,-9,-18,1000,-18,1,-5
2946,-8,-17,1000,-16,2,-4
2947,-9,-19,1000,-16,1,-5
2948,-9,-16,999,-17,1,-5
2949,-9,-17,1000,-16,2,-6
2950,-9,-19,1000,-16,2,-5
2951,-10,-19,1000,-15,0,-4
2952,-7,-17,999,-16,0,-4
2953,-8,-18,999,-17,1,-4
2954,-9,-17,999,-16,0,-5
2955,-10,-17,1000,-16,0,-5
2956,-8,-17,1000,-15,1,-4
2957,-7,-17,999,-15,1,-4
2958,-8,-18,1000,-18,0,-5
2959,-8,-17,998,-15,0,-5
2960,-8,-17,999,-16,-1,-6
2961,-9,-17,999,-15,0,-6
2962,-8,-18,999,-16,1,-6
2963,-8,-17,999,-16,2,-5
2964,-9,-17,1000,-15,1,-6
2965,-7,-17,999,-16,2,-5
2966,-8,-16,998,-15,2,-6
2967,-8,-19,997,-15,2,-6
2968,-8,-17,998,-16,2,-6
2969,-8,-17,999,-17,0,-5
2970,-7,-18,997,-16,2,-5
2971,-9,-18,998,-17,1,-5
2972,-8,-18,998,-15,1,-5
2973,-9,-16,998,-16,1,-6
2974,-10,-19,998,-16,0,-6
2975,-9,-17,998,-16,2,-6
2976,-11,-17,998,-16,1,-5
2977,-9,-17,998,-16,2,-5
2978,-8,-18,997,-16,1,-6
2979,-9,-18,998,-15,1,-6
2980,-9,-17,1000,-16,0,-6
2981,-7,-19,998,-17,1,-6
2982,-8,-18,999,-16,0,-6
2983,-9,-17,1000,-15,1,-6
2984,-9,-17,998,-16,0,-6
2985,-10,-18,998,-16,1,-4
2986,-9,-18,997,-15,1,-5
2987,-8,-17,998,-16,0,-6
2988,-8,-16,998,-15,-1,-6
2989,-9,-17,997,-14,0,-6
2990,-7,-16,999,-16,0,-5
2991,-8,-18,998,-15,-1,-4
2992,-7,-17,998,-15,1,-6
2993,-8,-18,999,-15,0,-6
2994,-9,-19,999,-15,0,-6
2995,-8,-18,998,-16,1,-5
2996,-9,-18,998,-16,1,-6
2997,-8,-17,999,-14,1,-6
2998,-7,-18,998,-15,1,-5
2999,-7,-20,998,-15,1,-5
3000,-10,-17,998,-16,0,-5
3001,-9,-19,998,-15,0,-6
3002,-8,-17,998,-16,1,-6
3003,-8,-18,997,-16,0,-5
3004,-8,-17,999,-15,0,-5
3005,-8,-17,998,-16,0,-6
3006,-8,-18,998,-17,1,-6
3007,-9,-16,999,-17,-1,-5
3008,-8,-17,999,-14,0,-5
3009,-7,-18,997,-16,1,-6
3010,-8,-18,999,-17,0,-7
3011,-8,-16,997,-16,1,-6
3012,-7,-19,998,-16,0,-7
3013,-8,-19,999,-13,0,-6
3014,-7,-18,998,-15,2,-6
3015,-7,-17,999,-17,1,-5
3016,-8,-17,999,-15,1,-6
3017,-7,-18,998,-15,1,-5
3018,-7,-18,999,-15,0,-6
3019,-8,-16,999,-16,0,-6
3020,-8,-17,998,-15,1,-7
3021,-7,-16,999,-16,1,-6
3022,-9,-16,998,-17,1,-6
3023,-10,-17,999,-15,0,-5
3024,-10,-19,1000,-16,2,-5
3025,-10,-19,999,-15,1,-6
3026,-10,-17,999,-16,1,-5
3027,-10,-17,1001,-15,0,-6
3028,-10,-18,999,-15,-1,-5
3029,-9,-18,997,-16,0,-4
3030,-9,-19,999,-16,0,-6
3031,-11,-19,999,-16,0,-6
3032,-10,-17,1001,-17,0,-5
3033,-8,-17,999,-16,1,-6
3034,-8,-16,1000,-17,0,-6
3035,-11,-19,998,-17,0,-6
3036,-10,-18,999,-16,0,-5
3037,-9,-18,1000,-17,1,-6
3038,-8,-18,1000,-18,1,-5
3039,-9,-19,997,-17,-1,-4
3040,-10,-18,999,-14,2,-5
3041,-9,-16,999,-16,2,-5
3042,-8,-16,1001,-17,2,-6
3043,-6,-17,1000,-14,0,-6
3044,-7,-21,999,-15,1,-5
3045,-9,-17,999,-16,2,-5
3046,-9,-18,998,-15,0,-5
3047,-8,-18,997,-18,0,-5
3048,-7,-19,999,-14,1,-6
3049,-7,-18,999,-17,0,-6
3050,-9,-18,999,-15,1,-5
3051,-8,-19,1000,-14,0,-6
3052,-8,-19,999,-15,0,-5
3053,-9,-19,998,-16,0,-5
3054,-8,-17,999,-16,0,-6
3055,-8,-16,997,-16,1,-6
3056,-9,-18,999,-16,1,-6
3057,-8,-18,1000,-16,1,-5
3058,-8,-16,999,-16,1,-4
3059,-8,-17,998,-14,1,-6
3060,-9,-17,998,-16,0,-7
3061,-9,-18,999,-16,0,-6
3062,-8,-18,998,-16,1,-5
3063,-10,-17,997,-17,1,-5
3064,-9,-18,999,-15,0,-5
3065,-9,-17,998,-16,0,-5
3066,-11,-18,999,-16,1,-5
3067,-10,-17,999,-16,1,-4
3068,-9,-17,998,-16,1,-5
3069,-8,-18,998,-15,0,-6
3070,-9,-19,996,-16,0,-5
3071,-10,-17,998,-15,1,-6
3072,-7,-18,999,-15,1,-5
3073,-11,-18,998,-16,0,-5
3074,-8,-17,999,-14,1,-5
3075,-8,-18,998,-15,0,-6
3076,-9,-18,998,-16,0,-6
3077,-8,-17,999,-16,1,-5
3078,-9,-16,998,-16,0,-6
3079,-9,-17,999,-17,0,-6
3080,-9,-18,999,-16,1,-5
3081,-7,-20,998,-17,1,-5
3082,-8,-20,999,-16,1,-5
3083,-7,-17,998,-15,-1,-6
3084,-7,-17,997,-16,0,-5
3085,-8,-19,997,-16,1,-4
3086,-7,-20,999,-15,2,-5
3087,-8,-18,999,-16,2,-5
3088,-9,-20,999,-16,0,-6
3089,-7,-18,999,-15,0,-6
3090,-8,-17,999,-16,0,-5
3091,-9,-17,999,-16,2,-5
3092,-7,-18,998,-17,0,-5
3093,-7,-18,998,-15,0,-5
3094,-9,-18,998,-17,1,-6
3095,-8,-17,997,-15,0,-6
3096,-9,-17,999,-16,1,-5
3097,-9,-18,999,-16,2,-4
3098,-6,-19,999,-16,0,-5
3099,-9,-17,999,-16,0,-7
3100,-9,-19,998,-15,0,-5
3101,-8,-19,998,-16,-1,-5
3102,-9,-18,999,-15,0,-6
3103,-6,-16,999,-15,0,-5
3104,-7,-19,999,-16,0,-5
3105,-8,-18,997,-15,-1,-6
3106,-8,-18,999,-16,-1,-5
3107,-7,-17,999,-15,0,-6
3108,-9,-18,998,-15,2,-6
3109,-7,-17,999,-15,0,-5
3110,-9,-18,998,-17,0,-5
3111,-9,-16,998,-15,2,-5
3112,-8,-17,999,-17,1,-6
3113,-9,-17,998,-16,0,-6
3114,-11,-18,1000,-16,1,-5
3115,-8,-19,999,-16,1,-5
3116,-9,-19,998,-16,1,-6
3117,-8,-18,998,-15,0,-7
3118,-9,-19,1000,-16,1,-4
3119,-9,-18,1000,-15,2,-5
3120,-9,-19,1000,-16,1,-6
3121,-10,-19,999,-16,0,-5
3122,-8,-19,998,-15,0,-6
3123,-8,-19,1001,-15,0,-6
3124,-7,-17,1000,-15,1,-5
3125,-9,-19,998,-16,2,-6
3126,-10,-17,1001,-15,1,-6
3127,-7,-18,999,-15,1,-6
3128,-7,-17,998,-16,0,-5
3129,-9,-17,999,-16,0,-5
3130,-7,-18,998,-17,0,-5
3131,-8,-18,999,-15,1,-4
3132,-8,-17,998,-15,0,-5
3133,-11,-16,999,-16,1,-6
3134,-8,-17,999,-15,1,-5
3135,-9,-18,1000,-15,1,-6
3136,-7,-16,998,-16,0,-5
3137,-9,-17,998,-15,1,-5
3138,-9,-18,998,-16,0,-6
3139,-7,-17,998,-16,0,-5
3140,-8,-18,998,-17,0,-6
3141,-9,-19,997,-16,0,-5
3142,-9,-18,998,-17,1,-5
3143,-10,-17,998,-16,1,-6
3144,-8,-18,999,-16,0,-6
3145,-10,-18,998,-17,1,-7
3146,-10,-17,998,-16,1,-5
3147,-8,-17,999,-16,1,-5
3148,-9,-16,999,-17,1,-5
3149,-11,-19,998,-16,0,-5
3150,-8,-19,998,-16,1,-6
3151,-7,-18,997,-17,1,-5
3152,-7,-17,998,-14,1,-5
3153,-8,-17,1000,-15,1,-5
3154,-9,-16,999,-17,1,-6
3155,-9,-18,998,-16,1,-6
3156,-10,-16,998,-16,1,-6
3157,-8,-17,999,-16,1,-5
3158,-8,-18,997,-17,0,-6
3159,-9,-18,998,-17,0,-6
3160,-8,-17,998,-15,1,-5
3161,-10,-17,998,-16,0,-6
3162,-8,-18,998,-17,0,-6
3163,-9,-19,998,-16,1,-6
3164,-7,-17,999,-18,0,-6
3165,-9,-18,999,-16,0,-6
3166,-7,-18,998,-14,1,-6
3167,-9,-18,998,-18,0,-7
3168,-6,-18,998,-15,0,-7
3169,-8,-19,1001,-15,-1,-6
3170,-8,-17,998,-16,0,-6
3171,-10,-19,998,-16,0,-6
3172,-9,-19,998,-17,1,-6
3173,-9,-17,998,-16,1,-7
3174,-8,-17,999,-16,0,-7
3175,-8,-18,999,-16,0,-6
3176,-7,-19,998,-16,0,-5
3177,-9,-16,999,-16,0,-4
3178,-8,-18,998,-15,0,-5
3179,-8,-18,998,-16,0,-5
3180,-8,-19,998,-15,0,-6
3181,-9,-18,1000,-16,1,-6
3182,-6,-17,998,-16,1,-6
3183,-9,-17,1000,-16,1,-5
3184,-7,-16,999,-15,1,-6
3185,-8,-18,999,-16,1,-6
3186,-7,-18,999,-15,1,-6
3187,-9,-17,998,-14,0,-6
3188,-10,-17,999,-16,0,-4
3189,-9,-18,999,-15,0,-5
3190,-9,-18,998,-15,1,-6
3191,-8,-18,999,-16,1,-5
3192,-10,-18,998,-16,1,-5
3193,-11,-18,999,-17,1,-6
3194,-9,-21,999,-17,1,-6
3195,-9,-16,999,-16,0,-6
3196,-8,-19,999,-17,1,-5
3197,-6,-17,1000,-16,1,-6
3198,-9,-17,999,-16,1,-5
3199,-9,-19,1000,-16,1,-5
3200,-8,-20,999,-15,0,-6
3201,-9,-19,1000,-16,0,-5
3202,-8,-18,1002,-15,1,-6
3203,-7,-19,999,-16,1,-5
3204,-9,-19,1000,-15,2,-6
3205,-9,-19,1000,-15,2,-6
3206,-7,-19,1000,-16,1,-5
3207,-9,-18,998,-16,1,-5
3208,-8,-18,998,-17,0,-5
3209,-10,-20,999,-16,1,-6
3210,-10,-19,999,-15,1,-6
3211,-9,-18,999,-17,1,-5
3212,-10,-17,999,-15,0,-5
3213,-9,-19,999,-15,0,-5
3214,-11,-16,1000,-16,0,-7
3215,-9,-17,1000,-15,2,-6
3216,-9,-18,999,-16,0,-5
3217,-10,-16,999,-15,0,-5
3218,-10,-17,999,-17,1,-6
3219,-8,-17,999,-16,2,-6
3220,-10,-16,998,-17,1,-5
3221,-9,-17,998,-16,1,-5
3222,-9,-17,998,-15,1,-7
3223,-9,-17,999,-16,0,-7
3224,-11,-17,999,-16,1,-4
3225,-11,-18,998,-15,1,-4
3226,-11,-16,998,-15,1,-5
3227,-9,-18,998,-14,0,-4
3228,-10,-16,999,-16,0,-5
3229,-9,-17,999,-16,1,-5
3230,-8,-17,999,-15,1,-5
3231,-8,-17,998,-15,0,-5
3232,-9,-17,997,-15,1,-5
3233,-9,-18,999,-15,0,-6
3234,-9,-18,999,-16,2,-5
3235,-8,-16,998,-14,1,-6
3236,-7,-17,999,-17,0,-6
3237,-9,-19,999,-17,0,-6
3238,-10,-19,1000,-15,-1,-6
3239,-9,-18,998,-16,0,-5
3240,-8,-20,996,-14,0,-6
3241,-8,-17,998,-14,1,-5
3242,-8,-17,998,-15,1,-6
3243,-9,-16,999,-16,1,-5
3244,-9,-17,998,-16,1,-6
3245,-10,-20,998,-15,1,-6
3246,-7,-16,998,-14,0,-5
3247,-9,-19,1000,-16,2,-4
3248,-9,-17,999,-16,2,-6
3249,-9,-17,999,-15,0,-6
3250,-8,-18,999,-15,0,-5
3251,-9,-18,998,-16,1,-5
3252,-9,-17,998,-16,1,-6
3253,-8,-18,998,-16,0,-7
3254,-9,-18,999,-15,0,-6
3255,-8,-18,999,-15,0,-6
3256,-6,-18,998,-16,0,-5
3257,-10,-20,999,-13,-1,-5
3258,-7,-19,999,-16,0,-6
3259,-9,-20,999,-15,0,-6
3260,-9,-19,999,-15,0,-5
3261,-7,-19,999,-17,0,-5
3262,-8,-18,998,-14,1,-5
3263,-9,-19,997,-16,1,-6
3264,-8,-18,999,-15,1,-5
3265,-9,-18,998,-16,1,-5
3266,-9,-18,1000,-16,1,-6
3267,-10,-18,997,-16,0,-6
3268,-7,-17,998,-15,1,-5
3269,-9,-17,998,-16,0,-5
3270,-8,-18,1000,-16,0,-6
3271,-8,-18,997,-15,0,-5
3272,-6,-19,998,-15,1,-4
3273,-9,-18,1000,-17,2,-6
3274,-8,-18,997,-17,1,-5
3275,-8,-18,1000,-15,0,-5
3276,-8,-17,999,-16,-1,-5
3277,-10,-18,999,-16,1,-4
3278,-9,-18,998,-16,-1,-5
3279,-8,-18,1000,-15,0,-5
3280,-9,-17,998,-15,2,-5
3281,-9,-17,999,-17,1,-6
3282,-9,-19,999,-16,1,-6
3283,-8,-18,999,-15,0,-6
3284,-9,-18,999,-16,1,-6
3285,-9,-17,1001,-17,0,-6
3286,-8,-18,999,-17,1,-6
3287,-8,-17,1000,-15,1,-6
3288,-8,-18,1001,-16,1,-5
3289,-10,-17,1000,-18,1,-6
3290,-6,-18,999,-16,1,-5
3291,-7,-17,999,-15,2,-5
3292,-10,-18,1000,-16,0,-5
3293,-9,-19,1000,-17,1,-5
3294,-9,-18,999,-16,0,-5
3295,-7,-17,999,-15,0,-6
3296,-9,-18,999,-15,1,-5
3297,-9,-18,999,-16,1,-6
3298,-9,-18,998,-15,0,-6
3299,-7,-19,997,-15,1,-5
3300,-8,-18,998,-16,-1,-6
3301,-9,-16,999,-17,0,-6
3302,-9,-17,999,-16,1,-4
3303,-10,-18,1000,-16,0,-5
3304,-9,-18,999,-17,1,-6
3305,-10,-18,999,-15,2,-5
3306,-9,-17,999,-16,1,-6
3307,-9,-17,998,-15,1,-6
3308,-9,-17,997,-17,1,-7
3309,-9,-19,998,-15,1,-6
3310,-9,-17,998,-15,1,-5
3311,-9,-18,998,-16,1,-5
3312,-8,-16,999,-15,1,-6
3313,-9,-17,999,-14,2,-6
3314,-9,-17,998,-15,1,-6
3315,-8,-18,999,-14,0,-6
3316,-9,-18,998,-15,-1,-6
3317,-8,-18,999,-15,0,-6
3318,-6,-16,998,-16,0,-5
3319,-9,-18,996,-15,0,-5
3320,-8,-17,998,-15,1,-5
3321,-8,-18,999,-16,1,-5
3322,-8,-17,998,-15,0,-6
3323,-10,-17,998,-16,1,-4
3324,-9,-18,999,-15,2,-5
3325,-9,-18,999,-15,1,-6
3326,-7,-18,998,-16,0,-5
3327,-7,-17,999,-16,0,-6
3328,-9,-17,998,-15,0,-6
3329,-9,-17,1000,-16,1,-5
3330,-9,-18,999,-15,0,-5
3331,-8,-17,998,-16,0,-5
3332,-11,-17,1000,-16,0,-6
3333,-6,-17,1000,-15,-1,-6
3334,-8,-18,998,-15,-1,-6
3335,-9,-20,998,-15,1,-6
3336,-9,-17,999,-15,0,-6
3337,-8,-17,999,-14,0,-6
3338,-8,-17,999,-16,1,-6
3339,-8,-18,997,-16,0,-4
3340,-8,-18,999,-17,0,-5
3341,-9,-17,999,-16,1,-4
3342,-9,-16,999,-16,2,-5
3343,-7,-19,999,-15,2,-6
3344,-9,-20,998,-15,0,-6
3345,-8,-17,1000,-15,1,-6
3346,-6,-16,998,-16,0,-6
3347,-8,-17,999,-17,0,-6
3348,-9,-16,999,-15,0,-5
3349,-7,-18,998,-17,1,-5
3350,-8,-18,998,-17,0,-5
3351,-9,-19,999,-14,1,-7
3352,-7,-17,999,-17,1,-6
3353,-10,-19,1000,-17,1,-6
3354,-7,-17,998,-16,0,-5
3355,-10,-17,998,-16,2,-5
3356,-8,-19,999,-16,0,-4
3357,-9,-19,998,-15,1,-4
3358,-7,-19,999,-15,1,-6
3359,-6,-18,998,-14,1,-5
3360,-9,-19,1000,-17,1,-4
3361,-9,-19,1000,-16,0,-4
3362,-8,-18,999,-17,0,-4
3363,-9,-19,999,-15,1,-5
3364,-8,-19,999,-16,0,-4
3365,-9,-19,998,-16,1,-4
3366,-7,-18,998,-15,1,-6
3367,-9,-17,999,-16,0,-6
3368,-9,-17,1000,-15,0,-4
3369,-10,-19,998,-16,1,-5
3370,-8,-17,1000,-16,0,-5
3371,-10,-15,1000,-16,-1,-6
3372,-8,-17,998,-19,1,-5
3373,-9,-17,998,-24,5,-3
3374,-8,-18,1000,-27,0,-3
3375,-7,-18,1000,-18,0,-4
3376,-9,-19,1001,-14,2,-5
3377,-10,-18,999,-16,2,-6
3378,-9,-18,998,-14,1,-5
3379,-9,-15,1001,-15,1,-6
3380,-8,-18,999,-16,1,-6
3381,-8,-17,1000,-17,0,-5
3382,-7,-18,998,-17,1,-6
3383,-7,-20,998,-16,0,-6
3384,-7,-17,998,-15,1,-6
3385,-7,-16,999,-17,-1,-5
3386,-9,-16,997,-16,0,-5
3387,-8,-19,999,-17,0,-5
3388,-8,-17,998,-15,1,-5
3389,-9,-17,999,-15,0,-7
3390,-10,-18,999,-15,0,-6
3391,-9,-18,999,-15,1,-5
3392,-8,-17,998,-16,0,-5
3393,-10,-19,997,-16,1,-5
3394,-11,-19,999,-16,1,-5
3395,-9,-17,999,-16,1,-6
3396,-7,-18,998,-15,1,-5
3397,-10,-18,999,-15,1,-5
3398,-9,-17,999,-14,0,-6
3399,-9,-18,1000,-15,1,-6
3400,-8,-18,999,-15,0,-5
3401,-6,-19,999,-17,0,-6
3402,-6,-18,999,-17,0,-6
3403,-8,-18,998,-15,0,-5
3404,-9,-17,998,-15,1,-5
3405,-10,-20,997,-16,1,-5
3406,-11,-17,998,-15,0,-6
3407,-8,-17,1001,-17,1,-5
3408,-8,-16,1001,-14,1,-5
3409,-8,-18,999,-15,0,-5
3410,-8,-17,998,-18,1,-6
3411,-8,-17,999,-15,0,-6
3412,-7,-17,998,-17,1,-5
3413,-8,-19,998,-15,2,-5
3414,-7,-18,999,-13,1,-6
3415,-8,-16,999,-16,1,-7
3416,-10,-18,998,-16,0,-6
3417,-7,-18,1000,-15,1,-5
3418,-8,-17,999,-16,0,-6
3419,-7,-18,998,-16,0,-5
3420,-11,-16,998,-15,-1,-6
3421,-9,-19,999,-17,-1,-6
3422,-8,-19,999,-14,0,-6
3423,-8,-17,1000,-15,1,-6
3424,-7,-18,999,-16,1,-5
3425,-8,-18,998,-16,0,-5
3426,-8,-18,1000,-16,0,-7
3427,-9,-19,1000,-16,0,-6
3428,-8,-18,998,-17,1,-6
3429,-8,-17,999,-17,1,-5
3430,-8,-19,998,-17,-1,-6
3431,-8,-19,998,-16,0,-5
3432,-8,-19,998,-16,0,-6
3433,-9,-17,998,-15,1,-5
3434,-8,-16,999,-16,0,-6
3435,-8,-18,998,-16,1,-5
3436,-8,-19,997,-15,1,-4
3437,-7,-18,999,-15,2,-5
3438,-9,-17,999,-15,1,-4
3439,-8,-18,999,-16,0,-5
3440,-9,-19,999,-16,1,-6
3441,-10,-17,997,-15,0,-6
3442,-8,-18,999,-16,1,-5
3443,-8,-17,998,-17,1,-5
3444,-8,-18,998,-17,2,-6
3445,-9,-17,999,-17,1,-4
3446,-9,-18,999,-16,1,-5
3447,-10,-19,997,-15,1,-5
3448,-8,-20,998,-16,1,-6
3449,-9,-17,1000,-15,0,-4
3450,-8,-17,998,-18,1,-5
3451,-8,-18,999,-18,1,-6
3452,-9,-18,1000,-16,0,-6
3453,-10,-16,1000,-16,0,-5
3454,-9,-18,1000,-16,1,-6
3455,-7,-17,998,-16,1,-6
3456,-10,-17,1000,-17,0,-6
3457,-10,-18,1000,-18,1,-5
3458,-9,-18,1000,-16,0,-5
3459,-9,-19,999,-15,1,-6
3460,-8,-19,999,-16,0,-5
3461,-9,-18,997,-16,1,-6
3462,-5,-19,999,-16,2,-6
3463,-8,-18,997,-16,0,-7
3464,-9,-17,997,-15,1,-6
3465,-10,-17,997,-16,0,-6
3466,-9,-18,998,-15,1,-5
3467,-9,-19,997,-17,2,-6
3468,-8,-16,999,-16,2,-4
3469,-9,-17,999,-16,1,-4
3470,-8,-17,1000,-15,0,-6
3471,-9,-16,997,-16,1,-5
3472,-10,-18,998,-16,2,-5
3473,-10,-17,998,-15,0,-6
3474,-8,-18,999,-15,-1,-6
3475,-8,-17,1000,-15,0,-5
3476,-9,-18,998,-16,1,-5
3477,-12,-19,998,-16,1,-5
3478,-9,-16,997,-16,1,-6
3479,-8,-16,997,-16,0,-6
3480,-9,-18,998,-15,1,-6
3481,-11,-19,1000,-16,1,-5
3482,-9,-18,999,-16,-1,-5
3483,-10,-17,999,-16,0,-5
3484,-8,-16,1000,-16,0,-5
3485,-6,-17,999,-15,1,-5
3486,-8,-17,998,-16,0,-5
3487,-8,-17,996,-15,1,-5
3488,-9,-18,998,-16,1,-6
3489,-11,-18,998,-15,1,-5
3490,-10,-18,999,-16,0,-5
3491,-8,-17,999,-15,0,-5
3492,-10,-18,999,-15,0,-5
3493,-7,-18,999,-15,0,-6
3494,-7,-17,998,-16,1,-5
3495,-8,-19,997,-16,1,-5
3496,-9,-19,999,-16,0,-6
3497,-8,-18,999,-16,1,-6
3498,-8,-18,998,-17,2,-5
3499,-8,-18,1000,-16,0,-4
3500,-8,-17,1000,-14,-1,-6
3501,-10,-18,999,-15,1,-6
3502,-10,-16,999,-16,1,-5
3503,-8,-17,998,-16,1,-6
3504,-10,-18,998,-17,0,-6
3505,-10,-18,999,-16,0,-5
3506,-9,-17,999,-15,0,-5
3507,-9,-19,999,-15,0,-4
3508,-7,-19,999,-16,0,-4
3509,-10,-18,998,-14,0,-6
3510,-9,-18,999,-15,0,-5
3511,-6,-20,999,-16,0,-5
3512,-8,-17,998,-15,1,-6
3513,-9,-19,1000,-16,0,-6
3514,-6,-18,999,-14,1,-5
3515,-6,-18,998,-16,1,-6
3516,-7,-20,999,-16,1,-5
3517,-7,-18,999,-16,0,-5
3518,-8,-18,998,-16,0,-6
3519,-9,-18,997,-17,1,-5
3520,-9,-17,999,-15,1,-5
3521,-8,-18,999,-16,1,-5
3522,-10,-16,999,-16,1,-6
3523,-7,-17,999,-16,2,-7
3524,-9,-20,998,-17,0,-6
3525,-9,-18,998,-16,-1,-5
3526,-7,-19,998,-17,0,-5
3527,-9,-18,999,-17,1,-6
3528,-9,-16,999,-16,0,-6
3529,-8,-18,999,-17,0,-6
3530,-9,-16,997,-15,1,-4
3531,-10,-17,1000,-15,1,-5
3532,-9,-18,997,-16,2,-5
3533,-9,-17,999,-16,1,-6
3534,-10,-18,1000,-14,0,-6
3535,-8,-17,999,-17,1,-6
3536,-7,-18,1000,-15,2,-6
3537,-7,-17,1001,-16,0,-5
3538,-8,-17,999,-16,-1,-5
3539,-8,-18,1000,-17,0,-5
3540,-11,-18,998,-17,0,-5
3541,-9,-18,998,-16,1,-5
3542,-8,-19,999,-17,0,-4
3543,-8,-19,1000,-15,0,-5
3544,-8,-18,999,-17,1,-6
3545,-8,-19,998,-16,0,-5
3546,-7,-18,998,-17,0,-5
3547,-8,-17,1000,-16,1,-4
3548,-9,-16,998,-15,2,-5
3549,-8,-18,998,-16,2,-5
3550,-7,-18,998,-16,1,-6
3551,-9,-17,998,-17,1,-5
3552,-10,-18,999,-17,0,-5
3553,-8,-20,998,-17,-1,-6
3554,-9,-19,1000,-16,1,-6
3555,-10,-20,998,-16,0,-6
3556,-10,-20,999,-17,2,-5
3557,-8,-19,999,-16,1,-5
3558,-8,-18,998,-16,0,-5
3559,-9,-19,999,-16,1,-5
3560,-9,-20,998,-15,0,-5
3561,-7,-18,1000,-15,0,-5
3562,-9,-17,999,-16,1,-5
3563,-8,-18,998,-17,0,-5
3564,-9,-18,998,-15,1,-6
3565,-8,-16,999,-14,2,-6
3566,-8,-16,998,-16,0,-5
3567,-10,-19,998,-15,0,-5
3568,-8,-18,998,-15,1,-5
3569,-9,-19,998,-15,0,-5
3570,-10,-19,999,-17,1,-5
3571,-8,-17,998,-16,0,-5
3572,-8,-18,998,-16,1,-5
3573,-10,-18,999,-17,0,-5
3574,-9,-18,998,-16,1,-6
3575,-9,-18,1000,-15,1,-4
3576,-9,-18,998,-15,2,-5
3577,-8,-19,998,-15,1,-6
3578,-10,-18,998,-15,-1,-6
3579,-9,-18,997,-16,0,-5
3580,-8,-18,998,-16,0,-5
3581,-7,-17,1000,-15,0,-6
3582,-5,-19,999,-15,1,-6
3583,-7,-17,1000,-15,1,-6
3584,-8,-19,998,-15,1,-6
3585,-10,-18,999,-17,1,-6
3586,-7,-19,998,-15,0,-6
3587,-8,-20,999,-16,1,-5
3588,-7,-17,999,-15,2,-4
3589,-9,-16,1000,-17,1,-6
3590,-9,-18,999,-16,1,-5
3591,-9,-18,998,-15,-1,-5
3592,-9,-17,999,-15,0,-6
3593,-9,-18,999,-17,0,-6
3594,-8,-17,998,-16,1,-6
3595,-9,-18,999,-15,1,-5
3596,-8,-19,998,-16,1,-5
3597,-9,-18,997,-18,1,-5
3598,-10,-18,998,-16,1,-5
3599,-8,-18,999,-16,0,-5
3600,-8,-19,1001,-15,0,-6
3601,-9,-19,999,-16,0,-6
3602,-6,-19,999,-15,0,-6
3603,-8,-18,1000,-15,0,-6
3604,-8,-18,999,-16,0,-6
3605,-9,-19,998,-17,1,-6
3606,-11,-17,999,-16,2,-5
3607,-8,-16,1000,-15,0,-6
3608,-10,-17,999,-15,1,-5
3609,-9,-17,999,-17,2,-5
3610,-6,-18,999,-17,0,-5
3611,-8,-17,998,-17,0,-5
3612,-8,-17,999,-17,0,-5
3613,-6,-19,999,-16,-1,-6
3614,-9,-18,999,-15,0,-5
3615,-8,-17,1000,-17,0,-5
3616,-8,-17,999,-15,1,-6
3617,-9,-19,999,-17,-1,-5
3618,-9,-17,998,-15,0,-5
3619,-8,-18,998,-16,1,-6
3620,-8,-19,999,-17,1,-5
3621,-7,-18,999,-17,1,-5
3622,-9,-18,998,-16,1,-5
3623,-10,-17,1000,-17,2,-5
3624,-10,-18,1000,-16,1,-5
3625,-7,-18,999,-16,1,-6
3626,-9,-19,999,-16,1,-6
3627,-9,-18,998,-16,1,-7
3628,-8,-18,998,-15,1,-6
3629,-9,-19,999,-15,1,-5
3630,-9,-20,998,-15,1,-5
3631,-12,-18,999,-15,1,-6
3632,-9,-18,998,-15,0,-6
3633,-9,-18,997,-17,0,-7
3634,-9,-16,999,-16,1,-5
3635,-7,-19,998,-17,1,-5
3636,-8,-18,997,-15,1,-5
3637,-8,-17,1000,-15,-1,-5
3638,-9,-17,998,-15,0,-6
3639,-9,-19,998,-15,0,-6
3640,-10,-21,998,-14,1,-4
3641,-10,-17,999,-15,0,-5
3642,-7,-18,998,-15,1,-6
3643,-8,-19,1000,-16,-1,-6
3644,-9,-18,998,-15,1,-6
3645,-8,-17,999,-15,-1,-6
3646,-9,-18,999,-15,0,-6
3647,-9,-16,999,-16,1,-5
3648,-8,-16,998,-15,1,-6
3649,-9,-19,998,-15,1,-6
3650,-9,-18,998,-16,0,-6
3651,-9,-19,999,-15,1,-6
3652,-9,-17,998,-16,1,-5
3653,-9,-17,999,-15,1,-6
3654,-10,-15,999,-16,1,-5
3655,-9,-19,998,-17,1,-6
3656,-8,-20,999,-17,1,-6
3657,-10,-20,998,-15,1,-6
3658,-9,-17,997,-16,1,-5
3659,-8,-17,998,-16,1,-4
3660,-9,-17,999,-17,0,-5
3661,-8,-18,998,-16,1,-6
3662,-7,-18,999,-16,1,-6
3663,-7,-19,999,-16,0,-7
3664,-9,-18,998,-16,0,-5
3665,-8,-19,999,-16,0,-6
3666,-9,-18,997,-16,0,-6
3667,-9,-17,996,-16,1,-5
3668,-9,-17,999,-17,1,-4
3669,-8,-17,999,-16,1,-5
3670,-10,-17,998,-17,1,-4
3671,-11,-18,998,-17,1,-5
3672,-9,-18,999,-16,1,-6
3673,-10,-18,998,-17,1,-5
3674,-9,-19,1000,-15,1,-5
3675,-9,-17,998,-15,1,-6
3676,-9,-16,998,-16,0,-6
3677,-9,-17,1001,-16,1,-7
3678,-8,-19,999,-16,1,-5
3679,-8,-18,998,-16,1,-5
3680,-8,-19,998,-15,1,-5
3681,-9,-18,998,-15,1,-6
3682,-6,-18,998,-16,1,-5
3683,-10,-19,998,-17,0,-5
3684,-8,-18,999,-15,0,-6
3685,-9,-18,999,-14,1,-7
3686,-8,-18,998,-16,-1,-7
3687,-9,-18,999,-15,0,-6
3688,-8,-18,998,-15,0,-5
3689,-7,-17,999,-16,0,-5
3690,-7,-18,999,-15,1,-6
3691,-8,-19,998,-17,1,-6
3692,-9,-16,1000,-15,0,-5
3693,-9,-17,999,-15,0,-4
3694,-8,-19,999,-17,0,-4
3695,-9,-18,999,-16,1,-5
3696,-7,-18,997,-15,1,-6
3697,-9,-19,999,-14,1,-6
3698,-8,-19,1000,-17,0,-5
3699,-9,-17,1000,-15,1,-4
3700,-8,-18,999,-17,1,-6
3701,-8,-17,1000,-17,2,-6
3702,-8,-19,999,-16,1,-5
3703,-8,-19,999,-15,1,-6
3704,-8,-17,999,-15,1,-6
3705,-8,-19,998,-15,1,-5
3706,-9,-17,1000,-16,1,-5
3707,-8,-17,997,-17,1,-6
3708,-10,-18,999,-14,1,-6
3709,-9,-18,998,-14,0,-5
3710,-9,-17,1000,-13,0,-6
3711,-8,-18,998,-19,0,-6
3712,-8,-17,999,-16,2,-5
3713,-8,-19,998,-15,0,-6
3714,-8,-18,999,-16,2,-5
3715,-8,-17,1000,-15,0,-6
3716,-9,-18,999,-16,1,-6
3717,-8,-17,1000,-15,1,-5
3718,-9,-19,998,-17,1,-6
3719,-10,-17,997,-16,0,-6
3720,-10,-16,999,-15,0,-5
3721,-8,-18,999,-15,1,-5
3722,-8,-19,998,-17,0,-5
3723,-8,-18,1000,-14,0,-5
3724,-9,-17,999,-15,1,-6
3725,-10,-18,999,-16,0,-6
3726,-9,-18,998,-16,0,-7
3727,-10,-18,1000,-15,0,-6
3728,-9,-18,998,-15,0,-6
3729,-9,-18,1000,-14,1,-7
3730,-9,-19,997,-16,1,-6
3731,-9,-19,999,-16,1,-6
3732,-11,-17,999,-16,0,-5
3733,-8,-18,998,-14,-1,-6
3734,-9,-17,998,-16,1,-8
3735,-9,-18,999,-15,-1,-6
3736,-9,-17,1001,-15,1,-6
3737,-11,-16,1000,-16,1,-5
3738,-9,-19,999,-15,1,-5
3739,-9,-17,999,-15,1,-6
3740,-7,-18,999,-16,0,-6
3741,-8,-18,999,-15,1,-6
3742,-8,-19,999,-16,1,-4
3743,-9,-20,1000,-14,0,-5
3744,-9,-17,1000,-17,1,-6
3745,-7,-18,1000,-14,1,-6
3746,-8,-18,998,-16,0,-6
3747,-8,-18,999,-16,0,-5
3748,-10,-18,999,-15,0,-7
3749,-9,-19,997,-16,1,-4
3750,-9,-18,998,-16,1,-5
3751,-7,-17,998,-15,1,-6
3752,-8,-17,997,-15,1,-5
3753,-10,-19,998,-16,1,-6
3754,-9,-17,999,-16,0,-6
3755,-9,-17,999,-15,1,-6
3756,-8,-20,999,-16,0,-6
3757,-9,-18,998,-15,2,-6
3758,-9,-16,999,-15,1,-6
3759,-8,-17,999,-17,1,-6
3760,-10,-18,998,-16,0,-6
3761,-9,-17,998,-17,0,-6
3762,-9,-17,1000,-16,2,-4
3763,-8,-17,999,-16,1,-7
3764,-9,-17,998,-17,1,-6
3765,-9,-17,1000,-17,1,-5
3766,-8,-18,1000,-16,0,-6
3767,-8,-18,998,-15,0,-6
3768,-8,-19,998,-16,1,-4
3769,-8,-19,997,-15,3,-5
3770,-8,-17,999,-17,2,-6
3771,-8,-19,999,-15,2,-5
3772,-9,-18,999,-17,1,-6
3773,-8,-18,999,-16,1,-5
3774,-8,-19,999,-18,1,-6
3775,-6,-19,999,-17,0,-5
3776,-7,-18,999,-15,1,-5
3777,-10,-20,999,-15,1,-5
3778,-9,-19,999,-15,0,-6
3779,-7,-20,999,-15,1,-5
3780,-7,-20,999,-16,0,-6
3781,-7,-18,1000,-15,1,-6
3782,-8,-19,999,-16,0,-5
3783,-10,-17,998,-15,1,-6
3784,-9,-18,1000,-15,1,-5
3785,-8,-17,1000,-17,1,-6
3786,-9,-19,1000,-16,-1,-6
3787,-8,-16,1000,-16,0,-5
3788,-7,-17,998,-16,1,-5
3789,-9,-20,1000,-16,1,-5
3790,-8,-19,1000,-15,1,-5
3791,-9,-19,999,-16,0,-6
3792,-8,-19,999,-17,1,-6
3793,-8,-17,998,-16,0,-6
3794,-8,-17,998,-16,0,-7
3795,-10,-18,998,-16,0,-6
3796,-10,-17,999,-17,1,-5
3797,-6,-19,998,-16,2,-6
3798,-8,-19,999,-15,1,-5
3799,-10,-17,998,-16,-1,-5
3800,-10,-17,999,-15,1,-6
3801,-11,-17,998,-15,1,-5
3802,-9,-16,999,-16,1,-6
3803,-9,-18,999,-16,1,-6
3804,-7,-18,998,-17,1,-5
3805,-8,-18,998,-13,1,-5
3806,-11,-17,999,-15,0,-5
3807,-9,-17,999,-14,-1,-6
3808,-9,-17,998,-17,0,-5
3809,-9,-17,1000,-15,0,-6
3810,-10,-18,997,-17,1,-6
3811,-9,-18,998,-16,0,-6
3812,-10,-18,998,-17,0,-5
3813,-8,-18,997,-17,0,-6
3814,-9,-18,999,-16,0,-6
3815,-8,-17,998,-17,0,-5
3816,-9,-18,998,-15,1,-5
3817,-9,-18,998,-16,2,-5
3818,-9,-18,999,-16,1,-6
3819,-8,-19,999,-16,0,-6
3820,-8,-17,998,-16,1,-4
3821,-9,-19,999,-15,1,-5
3822,-10,-18,998,-15,1,-6
3823,-8,-18,999,-16,-1,-5
3824,-8,-17,999,-16,0,-5
3825,-9,-18,998,-16,1,-6
3826,-6,-17,997,-16,0,-6
3827,-9,-18,998,-15,1,-5
3828,-8,-19,998,-16,0,-6
3829,-6,-18,999,-15,0,-6
3830,-5,-19,998,-15,0,-7
3831,-6,-18,998,-15,0,-6
3832,-8,-20,1000,-15,0,-6
3833,-9,-17,999,-16,0,-5
3834,-10,-17,999,-16,1,-6
3835,-8,-19,1000,-16,1,-6
3836,-7,-18,999,-14,0,-6
3837,-9,-20,999,-16,1,-5
3838,-8,-18,998,-17,0,-6
3839,-8,-20,999,-16,0,-6
3840,-8,-20,997,-17,1,-6
3841,-9,-19,998,-17,0,-5
3842,-8,-16,998,-16,2,-5
3843,-8,-18,999,-18,1,-6
3844,-9,-18,999,-16,1,-5
3845,-10,-18,999,-17,1,-5
3846,-9,-18,999,-17,1,-6
3847,-8,-18,998,-15,1,-6
3848,-8,-18,998,-16,0,-5
3849,-10,-19,1000,-16,0,-6
3850,-8,-18,1000,-15,0,-5
3851,-8,-17,999,-17,0,-6
3852,-8,-18,998,-16,2,-5
3853,-8,-18,1000,-18,2,-3
3854,-8,-18,998,-18,0,-5
3855,-8,-19,1000,-17,1,-5
3856,-8,-19,999,-16,1,-5
3857,-8,-17,998,-15,2,-6
3858,-10,-17,1000,-15,1,-5
3859,-8,-18,999,-16,1,-5
3860,-9,-18,999,-15,1,-5
3861,-9,-19,999,-17,0,-7
3862,-8,-18,999,-16,1,-7
3863,-8,-18,999,-16,1,-4
3864,-10,-18,998,-16,0,-5
3865,-8,-19,999,-15,-1,-6
3866,-7,-18,999,-16,0,-6
3867,-8,-18,999,-16,0,-6
3868,-10,-17,1000,-15,1,-5
3869,-8,-18,999,-17,1,-6
3870,-8,-18,999,-15,0,-5
3871,-7,-18,1000,-15,1,-5
3872,-10,-17,999,-16,-1,-4
3873,-9,-16,998,-15,0,-5
3874,-8,-19,998,-16,1,-5
3875,-10,-18,997,-16,0,-6
3876,-10,-16,999,-17,0,-5
3877,-10,-19,998,-16,0,-6
3878,-6,-19,998,-16,0,-5
3879,-9,-17,998,-15,1,-4
3880,-9,-18,998,-15,1,-6
3881,-9,-19,998,-16,0,-6
3882,-8,-19,998,-15,1,-4
3883,-10,-19,998,-16,1,-5
3884,-9,-18,997,-15,1,-5
3885,-9,-18,1000,-16,1,-5
3886,-9,-18,999,-17,1,-4
3887,-10,-18,999,-15,0,-6
3888,-9,-19,998,-16,1,-6
3889,-8,-18,998,-15,0,-5
3890,-6,-20,998,-15,0,-5
3891,-7,-17,998,-16,0,-5
3892,-9,-17,998,-16,1,-5
3893,-8,-17,999,-15,2,-5
3894,-9,-17,999,-17,1,-5
3895,-9,-17,996,-15,0,-6
3896,-9,-19,999,-16,0,-6
3897,-6,-20,999,-16,1,-5
3898,-8,-16,999,-17,0,-5
3899,-7,-17,998,-16,-1,-6
3900,-7,-17,998,-16,0,-6
3901,-8,-19,998,-16,2,-6
3902,-9,-17,998,-16,2,-5
3903,-9,-16,999,-15,0,-6
3904,-9,-18,999,-14,0,-5
3905,-9,-18,1000,-14,0,-4
3906,-10,-17,1001,-16,1,-5
3907,-8,-18,997,-16,0,-6
3908,-10,-16,997,-16,-1,-6
3909,-10,-17,998,-16,-1,-6
3910,-8,-17,999,-15,1,-6
3911,-10,-17,1000,-16,0,-5
3912,-10,-17,998,-15,0,-6
3913,-9,-16,998,-16,0,-7
3914,-8,-19,998,-15,1,-6
3915,-6,-19,998,-15,0,-6
3916,-8,-18,998,-16,1,-6
3917,-6,-18,997,-15,2,-5
3918,-6,-18,998,-16,1,-6
3919,-8,-18,998,-15,-1,-5
3920,-10,-17,999,-17,0,-5
3921,-7,-17,999,-16,0,-6
3922,-7,-18,998,-16,0,-5
3923,-6,-19,998,-17,0,-5
3924,-9,-19,997,-15,0,-5
3925,-9,-18,997,-15,0,-6
3926,-8,-18,999,-17,-1,-4
3927,-9,-18,999,-16,1,-5
3928,-10,-17,999,-17,2,-5
3929,-9,-19,1000,-16,1,-6
3930,-8,-19,998,-16,1,-5
3931,-8,-19,998,-16,0,-5
3932,-8,-18,999,-15,-1,-5
3933,-9,-20,999,-17,1,-4
3934,-8,-18,999,-15,0,-5
3935,-7,-18,1000,-17,0,-6
3936,-7,-19,999,-17,0,-4
3937,-8,-18,1001,-15,1,-5
3938,-9,-18,999,-16,1,-5
3939,-10,-17,999,-17,0,-5
3940,-8,-19,1000,-15,0,-5
3941,-7,-19,999,-15,0,-6
3942,-8,-17,1000,-15,1,-6
3943,-8,-16,1000,-15,1,-6
3944,-7,-16,1000,-16,1,-5
3945,-10,-17,999,-16,0,-7
3946,-8,-17,999,-17,1,-6
3947,-8,-17,998,-16,1,-5
3948,-8,-17,998,-16,0,-5
3949,-8,-18,998,-17,0,-5
3950,-8,-18,998,-16,2,-5
3951,-7,-18,999,-16,0,-5
3952,-9,-17,999,-16,1,-6
3953,-10,-17,1000,-16,0,-4
3954,-8,-17,1000,-14,0,-6
3955,-9,-15,999,-17,0,-5
3956,-9,-17,998,-17,1,-5
3957,-9,-17,997,-17,1,-5
3958,-7,-18,998,-17,1,-5
3959,-7,-18,997,-15,1,-4
3960,-7,-16,1000,-16,1,-5
3961,-9,-18,1000,-16,1,-5
3962,-9,-18,999,-16,1,-6
3963,-8,-18,998,-17,1,-6
3964,-9,-19,997,-16,1,-6
3965,-8,-17,998,-15,2,-5
3966,-9,-18,999,-16,0,-5
3967,-8,-18,998,-16,0,-7
3968,-8,-17,1000,-15,0,-5
3969,-10,-15,999,-16,1,-5
3970,-10,-17,999,-16,1,-6
3971,-8,-17,1000,-15,1,-5
3972,-6,-16,997,-16,1,-7
3973,-9,-17,998,-16,0,-5
3974,-9,-18,999,-16,0,-5
3975,-9,-17,1000,-16,1,-5
3976,-10,-18,999,-16,1,-6
3977,-9,-17,997,-15,1,-6
3978,-9,-16,997,-17,1,-5
3979,-8,-17,997,-16,1,-5
3980,-7,-19,999,-14,1,-5
3981,-9,-17,998,-16,1,-5
3982,-10,-17,999,-17,2,-5
3983,-10,-18,998,-16,0,-6
3984,-9,-19,998,-16,0,-4
3985,-8,-18,999,-15,0,-6
3986,-9,-17,998,-15,1,-6
3987,-9,-18,998,-15,0,-6
3988,-10,-17,998,-16,0,-5
3989,-9,-18,999,-17,0,-6
3990,-8,-18,999,-17,1,-4
3991,-10,-17,999,-16,0,-5
3992,-8,-16,998,-16,0,-5
3993,-10,-19,998,-17,2,-6
3994,-9,-18,998,-15,1,-5
3995,-8,-18,997,-15,1,-6
3996,-8,-19,998,-16,1,-6
3997,-9,-18,999,-16,1,-6
3998,-7,-17,999,-15,1,-6
3999,-10,-19,1000,-14,0,-5
4000,-8,-19,1000,-14,0,-6
4001,-9,-18,999,-14,0,-5
4002,-7,-17,999,-16,0,-5
4003,-8,-19,999,-17,2,-5
4004,-8,-19,998,-17,0,-5
4005,-8,-18,1000,-15,1,-6
4006,-9,-18,1000,-15,1,-4
4007,-9,-20,1000,-15,1,-6
4008,-9,-17,998,-16,1,-6
4009,-9,-18,999,-16,0,-5
4010,-7,-18,1000,-15,1,-5
4011,-10,-19,999,-17,0,-5
4012,-8,-18,1001,-17,-1,-5
4013,-8,-17,999,-17,0,-6
4014,-7,-18,999,-17,1,-5
4015,-8,-18,997,-16,1,-6
4016,-10,-19,998,-17,2,-6
4017,-10,-17,999,-17,0,-6
4018,-8,-17,998,-17,0,-6
4019,-7,-18,998,-16,1,-6
4020,-8,-18,999,-16,1,-4
4021,-7,-19,1000,-17,1,-5
4022,-10,-19,999,-16,-1,-6
4023,-9,-17,998,-16,0,-6
4024,-10,-18,999,-16,1,-6
4025,-10,-18,999,-16,1,-6
4026,-9,-17,999,-18,1,-4
4027,-9,-17,999,-16,0,-5
4028,-8,-18,999,-18,1,-5
4029,-9,-19,999,-16,0,-6
4030,-8,-17,1000,-15,0,-5
4031,-10,-18,1001,-15,1,-5
4032,-7,-17,999,-16,1,-6
4033,-8,-18,999,-16,1,-4
4034,-9,-18,997,-15,1,-4
4035,-9,-18,999,-16,1,-5
4036,-8,-18,998,-15,0,-6
4037,-9,-18,1000,-16,0,-6
4038,-9,-18,998,-16,0,-5
4039,-7,-18,998,-17,1,-5
4040,-8,-18,999,-17,0,-6
4041,-8,-19,1000,-14,1,-6
4042,-8,-17,999,-15,1,-5
4043,-9,-18,999,-15,1,-6
4044,-8,-18,999,-16,1,-6
4045,-9,-17,999,-16,0,-4
4046,-9,-18,997,-17,1,-5
4047,-9,-17,999,-17,1,-5
4048,-7,-18,998,-15,1,-5
4049,-8,-17,1000,-16,1,-5
4050,-8,-18,999,-16,0,-6
4051,-9,-18,998,-16,0,-6
4052,-8,-17,998,-14,0,-6
4053,-7,-17,999,-19,-4,-5
4054,-8,-18,999,-17,2,-4
4055,-9,-18,999,-14,2,-6
4056,-10,-18,998,-20,0,-5
4057,-8,-17,999,-15,-1,-6
4058,-7,-18,998,-15,0,-6
4059,-9,-17,998,-18,2,-5
4060,-9,-18,998,-14,2,-6
4061,-9,-18,999,-17,-1,-5
4062,-10,-15,998,-17,1,-6
4063,-8,-16,998,-14,1,-5
4064,-10,-19,999,-17,0,-5
4065,-8,-19,999,-14,0,-6
4066,-6,-18,998,-15,0,-5
4067,-8,-17,998,-17,1,-6
4068,-7,-18,998,-16,1,-7
4069,-10,-17,998,-17,1,-5
4070,-9,-17,1000,-16,0,-6
4071,-9,-18,999,-16,0,-7
4072,-9,-19,998,-16,1,-6
4073,-7,-18,998,-17,2,-5
4074,-9,-18,999,-17,0,-5
4075,-7,-19,998,-17,0,-6
4076,-8,-16,999,-15,0,-6
4077,-8,-19,999,-16,1,-5
4078,-9,-18,999,-16,1,-5
4079,-8,-18,998,-18,1,-5
4080,-8,-18,998,-17,2,-5
4081,-8,-18,1000,-16,1,-5
4082,-8,-18,998,-16,1,-6
4083,-7,-21,999,-16,0,-6
4084,-10,-16,999,-14,0,-6
4085,-8,-18,1001,-17,0,-4
4086,-8,-18,999,-16,0,-6
4087,-10,-19,999,-17,0,-6
4088,-9,-17,998,-14,1,-6
4089,-7,-17,998,-16,0,-6
4090,-7,-18,999,-15,0,-7
4091,-9,-17,1000,-14,0,-7
4092,-8,-17,998,-16,1,-6
4093,-11,-18,999,-15,1,-5
4094,-9,-18,999,-15,1,-5
4095,-9,-19,999,-15,0,-6
4096,-10,-19,997,-15,0,-7
4097,-9,-18,999,-15,0,-5
4098,-10,-19,998,-15,0,-6
4099,-10,-19,1001,-16,1,-7
4100,-8,-18,999,-16,0,-5
4101,-7,-19,999,-15,0,-5
4102,-10,-16,998,-17,1,-5
4103,-9,-15,997,-16,0,-6
4104,-9,-17,999,-15,1,-6
4105,-8,-17,1000,-15,0,-5
4106,-6,-18,999,-14,1,-6
4107,-8,-17,998,-16,0,-6
4108,-7,-17,999,-16,0,-6
4109,-8,-19,999,-16,1,-5
4110,-9,-17,999,-17,1,-5
4111,-9,-17,998,-16,0,-6
4112,-10,-18,999,-15,1,-6
4113,-11,-20,999,-17,1,-5
4114,-7,-19,998,-17,1,-5
4115,-7,-19,999,-15,1,-6
4116,-9,-18,998,-16,0,-6
4117,-10,-18,999,-14,-1,-5
4118,-9,-19,999,-17,1,-5
4119,-6,-17,998,-16,1,-5
4120,-7,-16,998,-15,1,-5
4121,-10,-18,999,-16,1,-5
4122,-8,-18,1000,-15,0,-5
4123,-10,-19,1000,-15,-1,-5
4124,-9,-16,999,-17,0,-5
4125,-8,-17,999,-13,2,-6
4126,-9,-18,997,-15,1,-5
4127,-8,-19,1000,-14,2,-4
4128,-10,-17,999,-15,2,-5
4129,-9,-17,999,-15,1,-5
4130,-8,-17,999,-15,2,-6
4131,-8,-17,999,-16,0,-5
4132,-9,-16,1000,-17,0,-6
4133,-10,-19,999,-16,1,-5
4134,-11,-18,1000,-16,1,-5
4135,-8,-18,998,-15,2,-6
4136,-8,-18,999,-15,1,-5
4137,-8,-18,997,-16,-1,-6
4138,-8,-19,999,-16,1,-6
4139,-9,-18,999,-18,2,-5
4140,-8,-18,999,-16,1,-7
4141,-11,-17,999,-16,2,-6
4142,-10,-17,998,-16,2,-6
4143,-8,-17,999,-17,1,-5
4144,-8,-17,999,-16,1,-6
4145,-10,-17,999,-14,-1,-6
4146,-8,-18,999,-15,0,-6
4147,-8,-17,998,-16,1,-5
4148,-10,-17,998,-16,1,-5
4149,-9,-19,999,-15,2,-5
4150,-7,-18,998,-16,0,-5
4151,-8,-18,1000,-17,-1,-6
4152,-9,-20,999,-17,0,-6
4153,-10,-19,998,-16,0,-5
4154,-9,-18,999,-15,0,-5
4155,-9,-17,1000,-15,0,-4
4156,-9,-16,998,-16,2,-5
4157,-9,-18,997,-16,1,-6
4158,-10,-18,998,-17,2,-5
4159,-9,-18,998,-17,1,-6
4160,-8,-18,999,-16,1,-5
4161,-7,-20,997,-16,0,-5
4162,-10,-19,999,-16,0,-6
4163,-8,-16,997,-16,0,-6
4164,-8,-16,999,-16,0,-5
4165,-8,-18,1000,-15,0,-6
4166,-8,-20,999,-15,1,-5
4167,-9,-17,998,-16,1,-5
4168,-8,-18,998,-16,0,-5
4169,-9,-18,999,-17,0,-6
4170,-8,-17,1000,-16,1,-5
4171,-9,-17,997,-14,0,-6
4172,-9,-18,998,-15,-1,-5
4173,-9,-18,997,-16,0,-5
4174,-8,-17,999,-15,1,-5
4175,-6,-19,998,-17,2,-5
4176,-8,-17,998,-15,1,-5
4177,-9,-18,1000,-16,0,-6
4178,-9,-18,999,-16,1,-6
4179,-10,-19,998,-17,0,-6
4180,-9,-19,999,-15,0,-5
4181,-8,-17,1000,-16,1,-5
4182,-8,-19,999,-15,1,-5
4183,-8,-18,1000,-16,1,-5
4184,-9,-18,999,-17,1,-5
4185,-9,-18,999,-18,2,-5
4186,-10,-19,1000,-16,1,-5
4187,-9,-18,1000,-15,1,-6
4188,-10,-19,999,-15,1,-6
4189,-10,-18,998,-14,1,-7
4190,-8,-18,998,-16,-1,-6
4191,-9,-18,998,-15,1,-4
4192,-8,-19,998,-17,1,-4
4193,-9,-19,1001,-17,0,-5
4194,-7,-19,999,-16,0,-5
4195,-8,-18,1000,-16,1,-5
4196,-8,-18,998,-17,0,-5
4197,-11,-18,999,-16,-1,-5
4198,-9,-18,998,-17,1,-5
4199,-8,-17,998,-15,1,-6
4200,-9,-18,1000,-16,0,-5
4201,-10,-18,999,-16,1,-5
4202,-9,-17,998,-16,1,-5
4203,-8,-18,998,-16,1,-5
4204,-9,-18,1000,-17,1,-5
4205,-9,-17,998,-16,1,-6
4206,-9,-18,998,-17,2,-5
4207,-9,-18,999,-17,1,-6
4208,-9,-17,998,-16,1,-5
4209,-9,-18,999,-17,1,-4
4210,-8,-17,999,-17,1,-5
4211,-10,-17,998,-17,0,-5
4212,-8,-18,999,-16,1,-5
4213,-9,-18,997,-17,0,-6
4214,-10,-17,999,-15,1,-6
4215,-10,-19,997,-15,1,-4
4216,-10,-16,998,-14,0,-4
4217,-9,-16,1000,-16,1,-5
4218,-8,-18,999,-17,1,-5
4219,-9,-18,1000,-16,-1,-6
4220,-9,-18,1000,-15,0,-5
4221,-10,-18,999,-16,1,-6
4222,-10,-17,999,-17,1,-5
4223,-10,-17,999,-16,1,-5
4224,-11,-16,998,-16,0,-4
4225,-6,-19,1001,-16,0,-6
4226,-9,-18,999,-15,1,-5
4227,-8,-18,998,-16,1,-6
4228,-8,-18,999,-15,1,-6
4229,-9,-17,1000,-14,0,-4
4230,-9,-17,997,-16,1,-5
4231,-9,-17,998,-16,1,-6
4232,-8,-19,998,-17,0,-6
4233,-7,-18,998,-15,0,-7
4234,-7,-17,999,-15,0,-7
4235,-7,-18,1001,-15,0,-6
4236,-9,-17,1000,-15,1,-6
4237,-9,-18,999,-15,1,-5
4238,-8,-18,999,-15,1,-4
4239,-8,-19,1000,-15,0,-5
4240,-10,-20,1000,-15,1,-5
4241,-9,-17,1000,-15,0,-6
4242,-9,-18,1001,-15,0,-5
4243,-9,-18,1000,-14,1,-5
4244,-8,-18,998,-17,1,-5
4245,-8,-18,1000,-15,0,-5
4246,-9,-18,999,-16,1,-6
4247,-10,-17,999,-15,1,-5
4248,-9,-19,1000,-16,1,-4
4249,-9,-18,998,-16,2,-4
4250,-8,-18,998,-15,1,-6
4251,-9,-16,998,-15,0,-6
4252,-9,-18,998,-17,0,-5
4253,-8,-18,999,-17,1,-6
4254,-7,-18,998,-16,1,-6
4255,-8,-18,999,-16,1,-5
4256,-9,-19,999,-16,1,-5
4257,-10,-19,999,-16,1,-5
4258,-10,-18,1000,-16,2,-4
4259,-8,-17,999,-16,2,-6
4260,-7,-19,999,-16,1,-5
4261,-8,-17,997,-15,1,-5
4262,-7,-17,998,-16,0,-5
4263,-11,-18,1000,-16,1,-6
4264,-8,-17,998,-17,0,-6
4265,-8,-18,999,-16,1,-7
4266,-9,-17,999,-16,1,-6
4267,-9,-16,998,-15,1,-5
4268,-8,-16,999,-16,1,-5
4269,-7,-17,998,-16,0,-6
4270,-7,-18,999,-15,2,-6
4271,-8,-18,999,-16,2,-5
4272,-10,-18,997,-17,0,-6
4273,-11,-19,999,-15,0,-6
4274,-10,-18,998,-16,1,-5
4275,-10,-18,998,-16,2,-4
4276,-9,-18,999,-15,1,-6
4277,-8,-18,999,-15,0,-5
4278,-8,-19,999,-17,1,-6
4279,-10,-18,998,-14,1,-5
4280,-8,-17,999,-15,0,-7
4281,-9,-19,998,-16,1,-5
4282,-9,-18,999,-15,1,-5
4283,-8,-16,999,-15,1,-4
4284,-9,-18,999,-16,1,-7
4285,-8,-17,999,-16,0,-6
4286,-9,-18,999,-15,1,-6
4287,-9,-18,999,-16,1,-5
4288,-8,-18,998,-16,1,-4
4289,-8,-17,1000,-16,0,-5
4290,-7,-19,998,-16,2,-5
4291,-10,-17,999,-15,0,-4
4292,-8,-17,999,-16,-1,-4
4293,-9,-18,999,-16,0,-6
4294,-10,-18,1000,-16,1,-5
4295,-9,-17,999,-15,0,-7
4296,-9,-18,999,-14,0,-6
4297,-8,-19,998,-16,1,-6
4298,-6,-17,998,-14,2,-5
4299,-8,-18,998,-17,1,-5
4300,-9,-19,999,-16,2,-6
4301,-9,-17,999,-15,1,-5
4302,-8,-19,1000,-15,1,-5
4303,-7,-18,998,-16,1,-6
4304,-8,-18,998,-16,0,-5
4305,-8,-17,999,-16,1,-6
4306,-9,-18,999,-16,1,-6
4307,-9,-16,998,-17,2,-5
4308,-9,-17,999,-15,1,-6
4309,-7,-17,998,-14,1,-5
4310,-9,-17,998,-16,0,-6
4311,-8,-18,1000,-16,1,-5
4312,-9,-18,998,-17,0,-5
4313,-8,-17,1000,-16,0,-4
4314,-9,-16,998,-16,0,-6
4315,-8,-19,1000,-16,2,-6
4316,-8,-18,999,-17,1,-5
4317,-9,-20,999,-16,2,-5
4318,-7,-18,999,-17,3,-5
4319,-9,-19,1000,-15,-1,-6
4320,-10,-18,999,-16,0,-5
4321,-9,-18,998,-17,1,-4
4322,-7,-17,999,-16,1,-5
4323,-8,-17,999,-16,0,-5
4324,-7,-17,998,-16,0,-6
4325,-10,-18,999,-15,-1,-5
4326,-9,-17,999,-17,1,-5
4327,-8,-18,1000,-15,1,-6
4328,-8,-17,997,-16,1,-6
4329,-10,-17,999,-16,0,-4
4330,-8,-17,998,-14,0,-6
4331,-9,-18,1000,-17,0,-5
4332,-8,-19,999,-15,0,-6
4333,-10,-18,999,-17,1,-5
4334,-8,-20,999,-15,0,-6
4335,-8,-19,998,-15,1,-6
4336,-8,-18,1000,-15,1,-6
4337,-9,-19,999,-16,1,-6
4338,-8,-18,999,-17,1,-6
4339,-8,-17,997,-16,0,-5
4340,-7,-18,998,-15,0,-5
4341,-9,-20,999,-16,0,-5
4342,-8,-18,998,-15,0,-5
4343,-9,-20,998,-15,0,-6
4344,-10,-17,999,-15,0,-6
4345,-9,-17,999,-17,0,-5
4346,-10,-18,1000,-14,0,-6
4347,-8,-19,999,-16,2,-5
4348,-8,-18,1000,-16,1,-6
4349,-9,-19,1000,-16,0,-6
4350,-8,-19,999,-16,1,-5
4351,-9,-18,998,-15,0,-6
4352,-8,-18,997,-14,1,-6
4353,-9,-16,998,-14,1,-7
4354,-8,-17,998,-15,1,-6
4355,-8,-18,998,-16,1,-6
4356,-9,-18,999,-18,1,-5
4357,-8,-19,1000,-16,1,-5
4358,-10,-19,999,-17,-1,-6
4359,-8,-19,998,-15,1,-5
4360,-7,-17,998,-16,1,-5
4361,-9,-18,999,-17,2,-4
4362,-10,-18,998,-14,1,-4
4363,-8,-17,999,-16,0,-5
4364,-8,-17,997,-15,1,-7
4365,-10,-18,998,-16,0,-5
4366,-8,-18,999,-17,-1,-6
4367,-10,-20,999,-16,1,-5
4368,-9,-18,998,-15,1,-5
4369,-8,-17,999,-16,1,-5
4370,-9,-17,999,-16,0,-5
4371,-8,-19,999,-16,0,-5
4372,-8,-15,999,-17,0,-6
4373,-5,-16,998,-16,0,-5
4374,-9,-18,998,-16,0,-6
4375,-10,-20,997,-15,0,-5
4376,-8,-17,998,-15,-1,-4
4377,-8,-19,998,-15,0,-5
4378,-8,-17,999,-17,0,-6
4379,-9,-18,998,-15,0,-6
4380,-8,-18,999,-16,1,-6
4381,-10,-17,999,-16,0,-5
4382,-9,-17,999,-16,0,-5
4383,-8,-17,999,-17,0,-5
4384,-9,-16,999,-16,0,-6
4385,-9,-18,1000,-16,1,-7
4386,-8,-19,1000,-17,1,-5
4387,-9,-17,998,-14,2,-5
4388,-8,-18,999,-7,-1,-7
4389,-8,-17,999,-6,2,-7
4390,-9,-19,1000,-15,-1,-5
4391,-9,-18,998,-17,0,-6
4392,-7,-18,998,-16,0,-5
4393,-10,-17,999,-15,0,-6
4394,-7,-19,999,-16,0,-6
4395,-8,-17,998,-17,1,-5
4396,-10,-18,999,-16,1,-5
4397,-9,-19,999,-16,1,-4
4398,-8,-18,999,-15,0,-6
4399,-9,-17,998,-17,0,-5
4400,-8,-17,997,-15,-1,-6
4401,-9,-19,998,-16,0,-6
4402,-8,-18,998,-16,0,-6
4403,-8,-18,998,-17,-1,-7
4404,-9,-19,997,-17,1,-7
4405,-8,-18,997,-15,0,-6
4406,-8,-17,998,-16,1,-5
4407,-9,-17,998,-17,0,-6
4408,-7,-17,999,-17,1,-5
4409,-10,-16,999,-17,0,-5
4410,-8,-18,999,-15,0,-5
4411,-8,-19,999,-16,0,-5
4412,-10,-18,999,-16,1,-5
4413,-9,-17,999,-17,0,-5
4414,-9,-16,999,-15,1,-6
4415,-8,-17,999,-15,0,-4
4416,-7,-16,999,-15,-1,-4
4417,-9,-17,1000,-16,0,-6
4418,-9,-17,1000,-16,1,-5
4419,-8,-17,997,-16,0,-4
4420,-8,-19,998,-15,0,-5
4421,-6,-19,997,-15,2,-6
4422,-7,-16,997,-15,-1,-5
4423,-8,-17,997,-15,0,-5
4424,-8,-18,999,-14,2,-6
4425,-8,-18,999,-16,1,-5
4426,-9,-18,999,-16,1,-5
4427,-9,-18,998,-15,1,-6
4428,-8,-18,999,-17,0,-5
4429,-9,-18,999,-16,1,-6
4430,-8,-18,1000,-16,0,-6
4431,-9,-18,998,-16,1,-5
4432,-8,-19,998,-15,1,-5
4433,-9,-18,996,-17,1,-5
4434,-8,-17,999,-15,1,-4
4435,-9,-16,1000,-15,0,-6
4436,-9,-16,999,-16,1,-5
4437,-7,-17,999,-16,0,-5
4438,-7,-20,998,-15,0,-5
4439,-10,-18,998,-16,1,-5
4440,-9,-16,999,-16,1,-5
4441,-8,-17,999,-16,0,-5
4442,-9,-17,1000,-16,1,-6
4443,-10,-19,999,-15,1,-6
4444,-9,-19,1000,-18,0,-6
4445,-9,-18,1000,-16,1,-7
4446,-9,-18,998,-17,1,-5
4447,-7,-16,998,-19,0,-5
4448,-8,-18,998,-16,1,-5
4449,-9,-19,998,-15,0,-5
4450,-9,-17,999,-15,0,-6
4451,-9,-17,998,-15,1,-5
4452,-7,-19,999,-16,1,-5
4453,-7,-18,997,-16,1,-6
4454,-7,-18,999,-17,1,-5
4455,-8,-18,1000,-16,1,-6
4456,-8,-17,998,-14,1,-6
4457,-9,-17,997,-15,1,-7
4458,-8,-18,999,-15,1,-6
4459,-9,-19,1000,-16,0,-5
4460,-6,-19,1000,-16,0,-6
4461,-8,-17,1000,-15,0,-6
4462,-9,-18,999,-17,0,-6
4463,-10,-17,998,-15,1,-5
4464,-9,-17,998,-16,0,-5
4465,-9,-19,999,-15,-1,-5
4466,-8,-18,998,-17,0,-5
4467,-10,-17,997,-16,0,-5
4468,-10,-18,998,-15,1,-4
4469,-9,-18,999,-15,0,-6
4470,-8,-18,998,-16,0,-6
4471,-9,-20,998,-15,1,-5
4472,-9,-19,998,-15,1,-5
4473,-9,-19,998,-16,1,-5
4474,-8,-18,999,-17,1,-6
4475,-9,-18,1000,-17,1,-7
4476,-8,-19,1000,-15,1,-6
4477,-9,-19,998,-15,1,-6
4478,-8,-18,999,-14,0,-6
4479,-8,-18,1000,-15,0,-5
4480,-10,-17,998,-17,0,-5
4481,-9,-16,999,-16,0,-5
4482,-8,-17,1000,-16,0,-5
4483,-8,-17,998,-17,1,-7
4484,-8,-17,1000,-17,1,-5
4485,-9,-17,998,-16,-1,-6
4486,-6,-18,999,-15,2,-6
4487,-8,-17,998,-18,1,-6
4488,-9,-20,999,-17,1,-5
4489,-9,-17,1000,-16,0,-7
4490,-8,-17,1000,-15,1,-5
4491,-9,-19,998,-16,1,-5
4492,-8,-19,999,-15,0,-6
4493,-8,-21,999,-15,1,-6
4494,-10,-20,998,-16,0,-5
4495,-8,-18,999,-15,-1,-5
4496,-9,-19,999,-16,1,-4
4497,-8,-18,999,-16,1,-5
4498,-9,-18,999,-16,0,-5
4499,-8,-18,999,-16,0,-5
4500,-10,-17,999,-16,1,-4
4501,-10,-16,999,-15,0,-6
4502,-8,-18,999,-16,0,-4
4503,-7,-17,999,-17,0,-5
4504,-8,-18,999,-16,0,-6
4505,-8,-19,999,-16,0,-5
4506,-9,-17,998,-17,0,-5
4507,-8,-18,998,-17,2,-5
4508,-9,-18,1000,-16,1,-5
4509,-9,-17,1000,-15,-1,-5
4510,-9,-19,1000,-16,0,-6
4511,-9,-17,999,-16,0,-5
4512,-8,-16,998,-14,1,-6
4513,-8,-18,998,-15,1,-5
4514,-8,-16,999,-16,1,-6
4515,-9,-18,999,-14,0,-5
4516,-8,-19,999,-16,0,-4
4517,-7,-19,999,-16,0,-4
4518,-10,-18,999,-17,0,-5
4519,-9,-18,999,-16,1,-5
4520,-9,-17,999,-15,1,-5
4521,-8,-20,998,-17,0,-5
4522,-7,-18,998,-14,0,-6
4523,-7,-18,998,-16,0,-5
4524,-8,-17,998,-15,1,-5
4525,-11,-19,997,-17,1,-5
4526,-10,-18,998,-17,2,-6
4527,-9,-18,999,-15,0,-6
4528,-10,-18,999,-15,1,-7
4529,-9,-18,997,-15,1,-5
4530,-6,-18,999,-15,1,-4
4531,-8,-18,999,-16,0,-6
4532,-9,-19,997,-17,1,-7
4533,-6,-17,997,-16,1,-6
4534,-9,-18,998,-17,1,-5
4535,-9,-19,999,-16,0,-5
4536,-8,-18,1000,-16,0,-6
4537,-8,-18,999,-16,0,-6
4538,-7,-18,999,-16,0,-5
4539,-9,-18,999,-17,2,-5
4540,-11,-18,999,-16,1,-5
4541,-6,-18,1000,-15,1,-5
4542,-9,-17,997,-16,0,-6
4543,-8,-18,998,-16,0,-5
4544,-8,-17,1000,-16,1,-4
4545,-10,-19,999,-15,1,-6
4546,-8,-16,999,-17,0,-5
4547,-9,-19,999,-15,2,-6
4548,-8,-19,997,-15,0,-6
4549,-10,-18,998,-16,2,-5
4550,-8,-17,999,-17,1,-5
4551,-8,-19,999,-17,1,-6
4552,-7,-20,998,-17,2,-6
4553,-8,-18,1000,-17,1,-4
4554,-9,-17,998,-16,0,-6
4555,-9,-18,999,-17,2,-6
4556,-10,-18,1000,-17,2,-5
4557,-10,-19,1001,-17,1,-5
4558,-8,-19,999,-17,1,-5
4559,-9,-17,999,-16,0,-7
4560,-9,-19,999,-16,0,-4
4561,-11,-18,999,-16,1,-5
4562,-9,-19,999,-16,1,-6
4563,-7,-17,999,-15,0,-5
4564,-7,-17,1000,-15,1,-5
4565,-7,-17,998,-17,0,-5
4566,-7,-17,998,-15,0,-4
4567,-8,-19,999,-17,0,-5
4568,-6,-19,1000,-16,1,-6
4569,-8,-19,998,-15,0,-6
4570,-8,-18,998,-15,1,-5
4571,-9,-18,999,-16,1,-5
4572,-9,-19,998,-16,1,-5
4573,-8,-18,997,-15,1,-6
4574,-9,-18,999,-15,0,-5
4575,-8,-20,998,-16,1,-5
4576,-8,-19,1000,-15,1,-5
4577,-9,-18,999,-16,1,-4
4578,-11,-18,999,-16,0,-4
4579,-10,-17,999,-16,1,-5
4580,-10,-17,999,-14,1,-5
4581,-10,-17,998,-14,1,-6
4582,-9,-18,998,-16,0,-7
4583,-9,-17,999,-15,0,-6
4584,-7,-17,998,-16,-1,-6
4585,-7,-19,999,-15,-1,-6
4586,-7,-18,999,-13,1,-5
4587,-9,-17,999,-16,1,-5
4588,-9,-17,999,-15,1,-6
4589,-10,-19,1001,-15,1,-5
4590,-9,-17,999,-16,2,-6
4591,-9,-17,998,-15,0,-6
4592,-11,-19,1000,-17,0,-6
4593,-8,-19,999,-15,1,-5
4594,-7,-19,999,-14,1,-4
4595,-9,-19,999,-15,1,-5
4596,-8,-17,1000,-14,1,-5
4597,-9,-17,998,-17,1,-5
4598,-9,-19,998,-16,1,-6
4599,-9,-17,999,-16,1,-6
4600,-10,-18,1000,-17,1,-5
4601,-10,-19,998,-16,1,-5
4602,-10,-18,999,-16,0,-5
4603,-9,-18,999,-15,0,-7
4604,-9,-19,998,-16,0,-6
4605,-10,-18,1000,-17,1,-5
4606,-9,-18,997,-15,0,-6
4607,-9,-18,999,-17,1,-5
4608,-6,-18,999,-16,1,-5
4609,-7,-17,1000,-16,1,-6
4610,-7,-18,999,-16,1,-6
4611,-7,-19,998,-16,1,-6
4612,-7,-17,998,-16,0,-6
4613,-7,-18,998,-15,0,-4
4614,-7,-18,999,-17,0,-5
4615,-7,-20,999,-16,1,-6
4616,-7,-19,999,-15,1,-6
4617,-9,-19,999,-14,1,-5
4618,-9,-18,999,-16,0,-5
4619,-8,-18,999,-17,0,-5
4620,-9,-19,999,-16,0,-6
4621,-9,-18,998,-15,1,-7
4622,-10,-19,997,-17,0,-6
4623,-9,-20,998,-15,0,-6
4624,-9,-19,999,-14,0,-5
4625,-8,-16,998,-16,0,-5
4626,-8,-17,1000,-16,0,-5
4627,-9,-18,998,-15,1,-5
4628,-9,-17,999,-15,1,-5
4629,-8,-16,997,-16,0,-6
4630,-9,-18,998,-15,0,-6
4631,-9,-17,998,-16,0,-5
4632,-9,-18,999,-16,0,-4
4633,-10,-18,1000,-15,1,-5
4634,-9,-18,998,-15,1,-6
4635,-10,-16,999,-15,1,-6
4636,-7,-17,999,-15,1,-6
4637,-8,-17,999,-16,0,-5
4638,-9,-18,998,-17,1,-4
4639,-9,-18,998,-16,1,-5
4640,-8,-18,999,-15,1,-5
4641,-10,-18,1000,-15,1,-6
4642,-9,-18,998,-16,-1,-5
4643,-8,-19,999,-15,-1,-5
4644,-8,-17,997,-16,1,-5
4645,-9,-17,999,-16,1,-6
4646,-8,-18,998,-16,0,-6
4647,-8,-17,1000,-18,-1,-5
4648,-9,-18,997,-17,0,-4
4649,-10,-17,1000,-16,1,-5
4650,-9,-19,999,-16,-1,-6
4651,-9,-18,1000,-16,1,-5
4652,-7,-16,999,-16,0,-5
4653,-8,-16,999,-16,0,-5
4654,-8,-16,1000,-15,0,-5
4655,-9,-18,999,-15,0,-6
4656,-9,-18,999,-16,2,-5
4657,-10,-19,1000,-16,1,-5
4658,-8,-18,999,-15,1,-4
4659,-10,-18,999,-17,1,-5
4660,-7,-17,998,-16,0,-6
4661,-8,-19,998,-14,1,-6
4662,-9,-18,998,-15,1,-5
4663,-9,-18,996,-15,0,-5
4664,-11,-18,998,-17,0,-6
4665,-9,-18,998,-16,0,-6
4666,-8,-18,999,-15,2,-5
4667,-9,-18,998,-16,2,-6
4668,-9,-18,999,-15,2,-6
4669,-11,-17,999,-16,0,-6
4670,-9,-17,999,-16,-1,-5
4671,-7,-18,998,-15,0,-5
4672,-9,-18,998,-16,1,-5
4673,-9,-17,998,-16,0,-5
4674,-8,-19,999,-16,0,-6
4675,-9,-17,1000,-17,-1,-7
4676,-8,-18,998,-16,1,-6
4677,-9,-18,999,-16,0,-6
4678,-8,-17,998,-14,0,-5
4679,-8,-19,1001,-15,0,-5
4680,-8,-18,998,-17,0,-6
4681,-8,-19,997,-15,1,-5
4682,-8,-19,999,-15,0,-5
4683,-9,-16,1000,-15,0,-6
4684,-9,-17,999,-15,1,-6
4685,-8,-18,998,-17,0,-6
4686,-11,-18,1000,-17,1,-5
4687,-8,-17,999,-15,1,-6
4688,-8,-17,999,-17,1,-5
4689,-7,-18,1000,-15,0,-6
4690,-8,-16,999,-17,1,-5
4691,-8,-19,998,-16,0,-5
4692,-7,-19,998,-16,1,-4
4693,-8,-18,1000,-16,0,-4
4694,-7,-18,1000,-15,0,-6
4695,-9,-18,997,-16,1,-6
4696,-9,-19,1000,-16,1,-6
4697,-7,-18,1000,-16,0,-6
4698,-7,-16,999,-17,2,-5
4699,-10,-17,999,-17,2,-6
4700,-10,-19,1000,-17,1,-4
4701,-7,-17,999,-17,1,-7
4702,-11,-17,1000,-15,1,-6
4703,-11,-18,999,-15,0,-6
4704,-9,-18,999,-16,1,-5
4705,-6,-19,998,-16,0,-6
4706,-8,-19,1000,-15,1,-6
4707,-7,-17,997,-16,0,-5
4708,-10,-19,998,-15,1,-6
4709,-11,-18,998,-16,0,-5
4710,-8,-18,1000,-15,0,-6
4711,-8,-16,999,-16,-1,-6
4712,-8,-18,997,-14,0,-4
4713,-9,-16,998,-17,1,-6
4714,-8,-20,997,-17,2,-5
4715,-7,-18,1000,-17,1,-6
4716,-8,-19,997,-16,1,-6
4717,-9,-16,1001,-16,1,-5
4718,-9,-18,999,-17,1,-6
4719,-10,-18,999,-16,2,-6
4720,-7,-17,997,-17,0,-5
4721,-8,-17,1000,-14,0,-6
4722,-5,-18,1000,-16,0,-6
4723,-8,-18,1000,-16,1,-5
4724,-9,-18,999,-16,0,-5
4725,-9,-18,999,-17,1,-4
4726,-8,-18,999,-19,7,-3
4727,-9,-18,998,-17,1,-5
4728,-9,-17,999,-15,0,-5
4729,-7,-19,999,-16,0,-5
4730,-9,-17,1000,-17,1,-6
4731,-9,-20,1000,-16,-1,-6
4732,-8,-19,999,-18,1,-6
4733,-9,-18,999,-17,0,-6
4734,-8,-17,998,-16,1,-6
4735,-8,-19,999,-16,0,-6
4736,-8,-19,999,-14,1,-5
4737,-8,-16,1000,-15,1,-5
4738,-7,-18,998,-17,1,-5
4739,-7,-18,999,-17,1,-5
4740,-7,-17,999,-18,0,-5
4741,-8,-18,997,-16,0,-5
4742,-9,-19,999,-15,0,-6
4743,-8,-16,999,-17,0,-6
4744,-7,-16,999,-16,2,-6
4745,-8,-17,999,-15,1,-5
4746,-9,-19,998,-16,1,-5
4747,-9,-20,998,-16,0,-6
4748,-8,-18,999,-17,0,-7
4749,-8,-18,999,-17,1,-4
4750,-7,-18,1000,-15,1,-6
4751,-8,-19,997,-17,1,-6
