sequence,AccelerometerX,AccelerometerY,AccelerometerZ,GyroscopeX,GyroscopeY,GyroscopeZ
0,452,-48,1022,8,4,3
1,117,47,1006,17,69,13
2,-290,83,949,-5,76,25
3,-509,24,877,-11,16,6
4,-292,-78,966,-22,-62,-11
5,203,-125,1080,-8,-95,-5
6,474,-103,1036,-3,-47,2
7,375,2,1025,15,34,4
8,-39,73,995,7,80,21
9,-434,72,915,-11,60,21
10,-477,-15,886,-16,-15,-2
11,-119,-104,1012,-21,-84,-12
12,378,-127,1084,-5,-86,-1
13,490,-72,1024,3,-14,3
14,225,35,1033,18,60,10
15,-219,85,965,-1,79,26
16,-520,46,864,-11,37,13
17,-372,-58,929,-22,-49,-12
18,108,-127,1059,-12,-96,-9
19,468,-120,1067,-6,-62,3
20,428,-22,1025,16,15,3
21,40,65,1004,9,77,18
22,-378,78,922,-6,69,25
23,-506,10,872,-18,3,3
24,-206,-91,999,-17,-76,-12
25,297,-132,1083,-12,-92,-3
26,492,-91,1034,3,-33,2
27,301,17,1021,14,46,7
28,-137,71,974,2,84,23
29,-466,66,897,-9,47,19
30,-428,-29,910,-19,-30,-5
31,-7,-115,1045,-16,-91,-11
32,412,-124,1070,-8,-76,1
33,455,-48,1017,11,1,4
34,144,40,1013,8,68,15
35,-278,84,952,0,77,25
36,-513,29,876,-15,22,8
37,-305,-76,959,-19,-59,-11
38,185,-126,1074,-13,-97,-6
39,475,-108,1034,-2,-48,2
40,391,-4,1032,15,32,4
41,-29,66,996,5,79,21
42,-427,79,913,-7,63,22
43,-490,-8,882,-20,-13,-2
44,-134,-108,1008,-16,-84,-11
45,365,-124,1086,-10,-87,-1
46,498,-72,1027,8,-19,2
47,243,28,1033,12,59,10
48,-215,85,967,3,81,24
49,-516,51,870,-15,38,14
50,-375,-58,928,-20,-46,-7
51,90,-122,1056,-12,-96,-9
52,463,-115,1073,-3,-64,3
53,434,-32,1026,12,13,4
54,47,61,1002,11,78,16
55,-360,84,925,-4,71,24
56,-504,6,874,-17,7,4
57,-219,-92,994,-18,-72,-13
58,286,-128,1087,-13,-94,-4
59,483,-93,1033,3,-34,2
60,314,17,1023,12,44,6
61,-124,77,975,5,85,23
62,-460,66,902,-12,50,19
63,-438,-29,904,-19,-27,-6
64,-29,-116,1041,-17,-91,-12
65,409,-125,1069,-7,-77,1
66,462,-55,1021,7,-2,3
67,155,42,1016,12,67,13
68,-266,92,958,-1,78,27
69,-515,32,870,-16,24,9
70,-322,-70,950,-18,-57,-11
71,172,-121,1075,-14,-96,-7
72,479,-112,1042,-1,-52,2
73,400,-5,1033,14,28,5
74,-9,71,999,7,79,20
75,-427,79,912,-7,65,22
76,-495,-8,882,-18,-9,-1
77,-148,-100,1004,-17,-82,-12
78,359,-128,1085,-9,-87,-1
79,500,-75,1033,7,-21,3
80,248,32,1026,16,57,9
81,-201,82,974,0,80,26
82,-509,54,867,-14,41,16
83,-382,-50,924,-19,-44,-9
84,79,-126,1059,-15,-96,-11
85,458,-119,1070,-2,-66,3
86,435,-24,1027,13,11,4
87,61,55,997,8,77,17
88,-346,84,932,-6,71,25
89,-504,17,873,-16,9,3
90,-230,-89,989,-20,-71,-13
91,272,-128,1083,-10,-96,-3
92,478,-95,1033,1,-36,2
93,323,7,1019,15,41,6
94,-108,75,982,5,82,23
95,-453,68,902,-11,52,20
96,-443,-25,897,-16,-24,-5
97,-44,-115,1042,-19,-90,-11
98,401,-122,1068,-7,-80,1
99,469,-53,1019,8,-5,3
100,167,34,1020,13,65,13
101,-259,92,959,1,77,26
102,-516,34,869,-17,26,11
103,-327,-68,948,-18,-58,-11
104,159,-121,1068,-15,-95,-7
105,476,-115,1047,-2,-53,3
106,407,-12,1032,12,27,5
107,-6,66,1002,6,78,21
108,-417,80,913,-8,65,23
109,-499,0,880,-18,-6,-1
110,-156,-105,1000,-18,-81,-13
111,357,-122,1089,-8,-88,-1
112,497,-76,1029,3,-24,2
113,257,23,1027,17,56,9
114,-198,91,973,1,81,25
115,-505,54,870,-14,41,15
116,-388,-49,925,-22,-40,-9
117,67,-118,1056,-15,-96,-10
118,452,-121,1068,-4,-68,2
119,441,-37,1027,10,8,4
120,67,56,1001,10,76,16
121,-336,85,932,-8,72,25
122,-507,13,875,-16,11,5
123,-243,-85,986,-21,-68,-13
124,259,-123,1082,-10,-97,-4
125,478,-98,1034,0,-37,3
126,335,7,1019,15,40,6
127,-95,78,981,5,83,23
128,-453,66,908,-11,55,20
129,-450,-23,897,-18,-23,-5
130,-59,-108,1033,-16,-88,-12
131,393,-125,1073,-8,-79,0
132,475,-53,1022,8,-7,2
133,181,36,1022,14,64,12
134,-247,83,959,-1,79,27
135,-519,39,874,-15,29,10
136,-338,-68,940,-20,-55,-12
137,152,-122,1070,-14,-95,-7
138,475,-112,1050,-5,-55,3
139,407,-14,1027,15,25,4
140,1,70,1007,7,78,19
141,-410,72,911,-6,65,23
142,-502,1,879,-18,-4,0
143,-162,-102,1001,-15,-79,-12
144,351,-131,1088,-9,-89,-1
145,489,-76,1034,4,-24,3
146,266,26,1023,17,54,8
147,-191,84,969,0,82,25
148,-505,57,874,-12,43,16
149,-385,-47,920,-21,-41,-8
150,59,-123,1056,-15,-94,-9
151,447,-121,1069,-5,-67,1
152,439,-34,1025,14,9,3
153,71,54,1001,10,74,16
154,-329,83,939,-2,73,25
155,-505,19,873,-18,12,6
156,-247,-85,987,-19,-68,-12
157,251,-127,1085,-11,-95,-5
158,476,-95,1028,1,-38,3
159,339,8,1024,15,39,6
160,-85,73,983,5,81,21
161,-449,68,911,-11,56,20
162,-453,-23,899,-19,-23,-5
163,-67,-113,1029,-16,-87,-11
164,391,-123,1071,-9,-81,-1
165,479,-58,1020,11,-7,3
166,187,37,1030,11,64,11
167,-248,87,958,3,80,24
168,-518,43,872,-16,29,11
169,-345,-73,938,-20,-55,-11
170,145,-126,1066,-13,-95,-8
171,476,-114,1052,-2,-57,3
172,414,-17,1035,15,23,4
173,8,70,1001,8,79,18
174,-410,82,914,-8,67,23
175,-501,0,877,-21,-4,1
176,-173,-100,999,-17,-80,-12
177,341,-126,1088,-10,-90,-2
178,501,-82,1035,7,-25,2
179,268,23,1024,15,55,8
180,-185,83,971,5,83,24
181,-497,58,880,-14,44,17
182,-398,-47,916,-19,-37,-8
183,48,-115,1056,-15,-95,-10
184,442,-119,1073,-6,-67,2
185,441,-43,1020,10,7,3
186,84,54,1002,12,74,16
187,-318,86,941,-5,74,26
188,-503,18,874,-16,14,6
189,-261,-82,982,-17,-65,-12
190,238,-125,1080,-12,-97,-4
191,478,-101,1030,2,-41,3
192,349,6,1022,14,38,5
193,-73,73,987,8,81,21
194,-442,69,912,-11,57,21
195,-464,-16,893,-18,-21,-4
196,-81,-108,1026,-19,-87,-11
197,388,-130,1075,-8,-82,0
198,480,-63,1018,8,-8,1
199,200,35,1029,13,62,10
200,-240,85,963,0,79,25
201,-522,43,869,-13,33,10
202,-350,-62,937,-19,-53,-11
203,135,-123,1065,-13,-95,-7
204,479,-115,1056,-3,-58,2
205,415,-14,1033,16,23,4
206,16,64,1006,8,78,19
207,-403,78,915,-6,68,25
208,-503,1,875,-18,-3,1
209,-177,-98,1001,-19,-78,-13
210,334,-128,1088,-9,-90,-2
211,495,-81,1031,4,-28,2
212,275,23,1028,16,53,7
213,-177,79,970,-1,81,23
214,-490,59,877,-10,44,17
215,-400,-40,920,-22,-34,-7
216,40,-125,1050,-15,-95,-11
217,434,-124,1068,-6,-69,1
218,444,-36,1023,13,6,3
219,91,49,1002,9,73,15
220,-313,86,944,-4,75,25
221,-505,22,874,-16,14,7
222,-265,-86,975,-20,-66,-12
223,230,-129,1080,-11,-96,-5
224,475,-95,1032,1,-41,3
225,351,4,1023,13,36,5
226,-66,72,988,6,81,21
227,-443,75,912,-8,57,22
228,-464,-23,893,-22,-20,-3
229,-91,-109,1024,-16,-85,-12
230,386,-128,1072,-8,-83,0
231,486,-62,1025,9,-9,3
232,205,34,1028,12,63,11
233,-238,87,960,1,79,25
234,-520,46,870,-16,31,13
235,-357,-67,930,-20,-53,-11
236,129,-123,1066,-14,-96,-8
237,481,-114,1061,-4,-59,3
238,421,-23,1027,14,21,3
239,19,62,1004,7,78,19
240,-396,81,915,-4,69,24
241,-504,-2,874,-22,-1,2
242,-187,-96,1004,-15,-77,-13
243,326,-120,1086,-10,-91,-3
244,496,-91,1032,5,-28,3
245,282,27,1026,14,50,8
246,-164,80,971,1,83,23
247,-487,60,882,-12,44,18
248,-409,-38,917,-19,-34,-6
249,30,-119,1049,-13,-94,-11
250,432,-129,1071,-7,-72,2
251,444,-44,1022,13,7,3
252,104,47,999,11,72,13
253,-303,85,947,-2,74,26
254,-504,25,874,-17,15,8
255,-275,-78,971,-18,-63,-12
256,218,-125,1081,-13,-97,-4
257,476,-104,1033,0,-42,4
258,359,-1,1024,14,36,5
259,-55,70,992,6,80,21
260,-438,72,911,-10,59,21
261,-472,-17,891,-19,-20,-5
262,-95,-106,1019,-16,-85,-12
263,384,-127,1075,-8,-82,1
264,486,-61,1027,10,-12,3
265,214,39,1030,11,61,12
266,-228,78,962,1,79,26
267,-521,43,868,-16,33,13
268,-357,-60,932,-18,-49,-11
269,122,-129,1063,-15,-95,-8
270,475,-110,1063,-2,-61,2
271,423,-15,1027,14,20,4
272,24,60,1001,8,78,18
273,-393,83,920,-5,69,24
274,-501,3,874,-21,2,2
275,-187,-100,998,-17,-77,-12
276,318,-129,1086,-9,-92,-4
277,492,-87,1033,5,-28,2
278,281,19,1026,13,48,7
279,-159,79,972,4,83,22
280,-482,64,885,-12,47,18
281,-413,-37,916,-18,-34,-8
282,25,-117,1054,-14,-93,-12
283,422,-121,1067,-6,-72,0
284,448,-40,1021,9,2,3
285,112,45,1002,7,70,14
286,-298,82,946,-1,76,25
287,-503,26,877,-18,17,8
288,-283,-77,973,-17,-63,-11
289,209,-126,1074,-14,-96,-7
290,477,-100,1039,-1,-45,2
291,365,-1,1026,13,34,4
292,-49,69,988,6,81,21
293,-438,76,913,-8,61,22
294,-476,-19,889,-20,-18,-3
295,-108,-106,1017,-15,-84,-13
296,376,-127,1075,-9,-85,0
297,493,-70,1030,9,-14,4
298,219,36,1028,14,62,11
299,-226,86,965,3,80,24
300,-524,49,867,-17,34,13
301,-362,-53,931,-19,-49,-11
302,115,-125,1059,-14,-95,-9
303,476,-115,1068,-4,-63,2
304,423,-22,1027,14,19,3
305,29,58,1003,7,78,18
306,-386,81,918,-4,68,24
307,-506,3,871,-20,3,1
308,-198,-97,999,-15,-77,-12
309,314,-119,1088,-10,-93,-2
310,491,-89,1035,4,-31,3
311,288,21,1021,13,47,6
312,-153,82,976,3,83,23
313,-480,55,884,-15,48,18
314,-415,-39,917,-19,-32,-7
315,10,-115,1048,-14,-93,-10
316,425,-125,1071,-6,-73,2
317,448,-44,1022,11,2,2
318,117,45,1000,11,70,14
319,-288,89,954,-2,76,25
320,-508,33,874,-15,16,6
321,-288,-78,964,-18,-61,-12
322,200,-126,1080,-14,-97,-5
323,477,-109,1032,0,-48,3
324,370,-1,1027,14,35,4
325,-40,67,995,8,80,21
326,-431,71,912,-8,61,23
327,-481,-12,885,-19,-16,-3
328,-112,-106,1013,-18,-85,-12
329,375,-128,1083,-8,-85,-1
330,492,-66,1025,8,-15,3
331,227,39,1035,13,60,10
332,-223,80,960,-2,79,25
333,-519,49,866,-15,35,13
334,-367,-60,932,-20,-49,-11
335,113,-134,1057,-15,-95,-9
336,472,-112,1070,-1,-61,3
337,426,-22,1022,14,16,3
338,32,57,1003,12,79,18
339,-383,89,924,-5,68,24
340,-503,12,871,-17,2,2
341,-200,-98,998,-21,-76,-12
342,309,-123,1088,-8,-92,-3
343,490,-91,1032,2,-31,2
344,294,13,1022,16,48,8
345,-145,79,977,5,83,24
346,-473,64,889,-9,47,18
347,-423,-37,910,-19,-31,-7
348,3,-113,1047,-12,-93,-11
349,415,-123,1067,-11,-75,1
350,456,-46,1022,12,1,3
351,130,48,1009,10,69,13
352,-286,84,950,-3,77,24
353,-509,31,874,-16,20,7
354,-299,-76,957,-21,-60,-12
355,193,-125,1075,-11,-97,-6
356,476,-109,1035,-4,-48,3
357,384,-8,1031,17,31,6
358,-32,72,996,6,80,19
359,-430,77,910,-5,63,23
360,-485,-11,885,-20,-15,-1
361,-127,-104,1011,-15,-83,-13
362,374,-127,1082,-10,-86,-1
363,497,-75,1031,6,-17,4
364,237,32,1031,13,60,10
365,-218,83,966,1,81,26
366,-517,44,869,-17,39,15
367,-374,-57,927,-19,-47,-8
368,98,-120,1058,-15,-96,-9
369,471,-118,1070,-2,-64,3
370,432,-24,1025,13,14,4
371,40,64,1001,9,78,17
372,-368,85,924,-6,71,24
373,-505,9,874,-18,5,3
374,-213,-91,994,-18,-73,-12
375,293,-126,1088,-10,-93,-3
376,489,-95,1029,2,-34,3
377,306,14,1020,14,44,6
378,-127,77,975,3,83,22
379,-468,61,895,-12,49,19
380,-432,-28,908,-19,-28,-5
381,-13,-106,1044,-17,-92,-10
382,408,-125,1068,-6,-77,1
383,465,-49,1022,10,-1,3
384,146,42,1013,11,68,14
385,-275,83,952,-2,78,27
386,-511,31,873,-16,21,8
387,-312,-72,953,-16,-60,-11
388,178,-127,1076,-15,-97,-5
389,479,-106,1038,1,-49,3
390,393,0,1030,14,30,3
391,-16,65,999,5,79,20
392,-427,82,914,-8,64,23
393,-496,-11,881,-20,-12,-2
394,-140,-107,1006,-15,-82,-12
395,365,-132,1082,-12,-87,-1
396,497,-77,1028,9,-21,3
397,245,31,1035,13,59,9
398,-207,84,967,3,80,24
399,-515,58,867,-13,40,14
400,-379,-47,926,-19,-42,-9
401,86,-122,1058,-16,-96,-9
402,460,-119,1070,-5,-64,2
403,435,-28,1028,13,13,2
404,52,47,992,8,77,16
405,-360,83,934,-4,72,25
406,-503,12,872,-18,8,3
407,-226,-94,993,-15,-71,-12
408,277,-123,1084,-10,-94,-3
409,485,-90,1032,3,-35,3
410,319,12,1020,12,41,6
411,-113,78,980,5,84,22
412,-458,70,906,-15,51,20
413,-441,-30,901,-19,-28,-6
414,-37,-117,1038,-18,-90,-11
415,403,-122,1070,-6,-80,0
416,468,-58,1017,9,-4,2
417,165,40,1017,12,67,13
418,-260,93,958,1,78,25
419,-516,32,871,-20,24,10
420,-326,-65,951,-16,-57,-12
421,162,-124,1069,-18,-97,-8
422,479,-112,1047,2,-53,3
423,406,-9,1030,12,29,5
424,-7,65,1001,8,79,19
425,-419,81,914,-11,66,24
426,-497,-8,880,-18,-7,-1
427,-157,-103,1002,-17,-82,-12
428,357,-124,1084,-7,-89,-2
429,499,-80,1033,6,-24,3
430,258,28,1029,15,55,10
431,-195,88,970,2,82,24
432,-508,53,870,-18,42,16
433,-388,-47,924,-18,-42,-7
434,68,-113,1058,-17,-94,-9
435,451,-126,1067,-3,-67,2
436,437,-33,1027,11,9,3
437,67,55,996,11,76,17
438,-338,80,935,-8,70,25
439,-506,17,872,-14,11,4
440,-241,-81,990,-19,-68,-12
441,256,-128,1084,-11,-96,-5
442,480,-101,1029,2,-37,2
443,329,14,1023,16,40,4
444,-95,73,982,6,81,23
445,-451,70,910,-12,55,21
446,-453,-23,896,-17,-24,-3
447,-57,-110,1031,-17,-89,-11
448,395,-130,1071,-6,-81,1
449,476,-58,1024,9,-5,1
450,184,38,1024,13,64,12
451,-250,87,958,1,80,26
452,-519,39,868,-17,28,10
453,-338,-65,941,-18,-55,-11
454,151,-128,1067,-14,-95,-7
455,480,-115,1051,-2,-56,2
456,413,-9,1032,14,25,4
457,5,64,1005,8,79,19
458,-414,81,914,-6,67,23
459,-502,2,877,-19,-5,0
460,-167,-105,999,-18,-80,-12
461,348,-125,1088,-12,-90,-3
462,498,-78,1034,6,-25,2
463,266,23,1027,14,54,8
464,-188,82,972,3,81,23
465,-501,58,871,-13,44,16
466,-396,-44,922,-19,-39,-9
467,55,-121,1054,-13,-97,-9
468,444,-117,1071,-5,-68,2
469,442,-37,1021,11,7,1
470,85,50,1000,11,73,15
471,-328,89,941,-3,74,25
472,-502,17,876,-18,11,6
473,-258,-86,983,-17,-66,-13
474,241,-127,1081,-11,-97,-6
475,479,-99,1029,2,-40,4
476,343,2,1024,13,38,6
477,-77,70,981,6,82,21
478,-444,76,915,-8,55,20
479,-462,-25,892,-19,-23,-3
480,-78,-110,1025,-14,-87,-10
481,388,-120,1075,-8,-81,0
482,483,-63,1022,8,-9,2
483,195,39,1026,12,62,11
484,-242,90,962,2,79,25
485,-519,42,868,-18,30,12
486,-352,-63,939,-17,-54,-11
487,137,-127,1061,-17,-95,-8
488,481,-115,1062,-2,-59,4
489,416,-19,1029,15,23,3
490,13,67,1002,10,78,17
491,-404,82,918,-6,67,24
492,-501,1,871,-20,-3,1
493,-175,-98,997,-15,-78,-13
494,339,-128,1091,-12,-91,-1
495,495,-84,1034,5,-27,3
496,270,25,1023,14,53,8
497,-172,80,971,2,81,24
498,-494,56,879,-15,45,17
499,-401,-46,917,-19,-37,-10
500,46,-116,1057,-15,-96,-11
501,434,-124,1066,-6,-69,3
502,447,-38,1025,13,5,3
503,94,55,1002,11,71,14
504,-312,83,942,-3,74,25
505,-506,24,875,-16,12,7
506,-265,-77,975,-18,-66,-12
507,230,-131,1080,-14,-96,-4
508,478,-101,1037,3,-42,3
509,355,6,1023,14,36,6
510,-63,69,988,4,82,21
511,-442,73,914,-10,56,21
512,-469,-22,888,-19,-20,-3
513,-91,-112,1024,-16,-85,-13
514,384,-129,1076,-8,-84,0
515,487,-63,1025,10,-11,3
516,206,39,1030,12,62,13
517,-236,85,962,1,78,25
518,-519,47,868,-15,32,12
519,-355,-62,933,-21,-53,-11
520,130,-132,1063,-14,-97,-9
521,475,-113,1062,-1,-58,3
522,420,-17,1028,13,21,4
523,20,63,1005,10,78,18
524,-398,86,918,-5,68,22
525,-502,7,872,-18,-1,1
526,-185,-100,999,-18,-79,-13
527,326,-125,1086,-11,-90,-2
528,494,-85,1033,4,-30,4
529,279,17,1021,12,49,9
530,-164,80,975,3,83,23
531,-485,62,881,-14,44,16
532,-406,-41,914,-18,-34,-8
533,26,-115,1050,-15,-95,-11
534,430,-118,1071,-5,-72,2
535,447,-43,1024,8,4,4
536,103,44,998,11,72,15
537,-304,86,948,-2,75,27
538,-506,24,876,-17,14,8
539,-275,-81,972,-17,-63,-12
540,218,-123,1084,-13,-96,-5
541,474,-103,1030,2,-42,3
542,363,0,1026,14,35,4
543,-57,74,990,6,81,21
544,-436,78,912,-9,59,22
545,-472,-17,891,-21,-19,-4
546,-105,-111,1014,-18,-84,-11
547,383,-130,1079,-9,-83,-1
548,488,-71,1028,8,-12,3
549,214,31,1028,14,61,11
550,-233,94,966,3,80,26
551,-520,46,865,-17,34,12
552,-357,-57,934,-19,-52,-10
553,119,-120,1062,-17,-94,-8
554,480,-123,1063,-5,-60,3
555,420,-20,1030,14,20,4
556,25,62,1003,6,78,18
557,-388,76,920,-5,69,24
558,-506,6,871,-18,1,1
559,-185,-98,994,-15,-78,-15
560,324,-127,1090,-11,-91,-2
561,493,-87,1037,5,-28,4
562,280,28,1021,15,50,8
563,-158,81,975,2,83,23
564,-481,64,890,-12,46,18
565,-409,-38,913,-20,-34,-7
566,24,-121,1050,-16,-93,-11
567,426,-128,1065,-5,-72,2
568,448,-40,1024,14,5,3
569,106,47,1003,11,71,14
570,-297,84,950,-2,75,25
571,-508,31,874,-17,17,8
572,-281,-75,970,-17,-63,-12
573,213,-128,1079,-14,-98,-5
574,475,-104,1034,3,-43,3
575,366,3,1027,15,35,5
576,-53,65,988,5,80,21
577,-439,73,915,-9,60,22
578,-475,-13,887,-17,-19,-4
579,-107,-111,1018,-15,-86,-12
580,382,-130,1077,-8,-85,-1
581,489,-64,1022,10,-15,3
582,220,34,1033,12,61,10
583,-230,88,968,3,80,25
584,-523,52,865,-16,34,14
585,-362,-58,929,-21,-50,-10
586,119,-127,1062,-15,-95,-9
587,477,-117,1063,-3,-62,2
588,422,-20,1032,15,19,3
589,30,59,998,8,77,17
590,-387,88,922,-4,68,25
591,-505,4,871,-20,2,3
592,-189,-98,1003,-15,-78,-13
593,314,-121,1087,-12,-92,-3
594,497,-88,1033,5,-29,4
595,284,17,1019,12,49,8
596,-155,83,978,2,83,23
597,-480,64,887,-13,48,18
598,-415,-39,911,-18,-32,-7
599,18,-121,1049,-15,-93,-11
600,424,-124,1069,-8,-72,2
601,449,-48,1016,12,3,3
602,111,49,1005,12,71,14
603,-295,92,951,0,76,25
604,-505,29,873,-19,16,7
605,-284,-79,968,-18,-62,-14
606,210,-124,1080,-13,-96,-5
607,477,-109,1031,0,-45,4
608,365,-2,1025,16,36,5
609,-48,73,995,8,81,22
610,-438,74,914,-9,60,23
611,-477,-15,886,-19,-17,-3
612,-108,-104,1013,-16,-85,-13
613,382,-125,1083,-10,-86,0
614,490,-71,1023,8,-12,3
615,219,34,1031,14,60,10
616,-225,84,966,1,80,25
617,-518,46,866,-16,36,13
618,-366,-57,931,-19,-50,-10
619,117,-124,1061,-14,-96,-9
620,473,-115,1069,-2,-61,3
621,425,-23,1024,14,19,4
622,29,65,1005,8,79,17
623,-388,80,922,-5,70,25
624,-505,5,869,-22,2,2
625,-192,-92,1000,-16,-76,-14
626,318,-132,1088,-13,-93,-3
627,492,-87,1035,4,-30,3
628,285,22,1022,14,49,7
629,-155,78,973,3,82,23
630,-482,65,885,-12,47,19
631,-414,-35,914,-19,-32,-7
632,19,-120,1050,-17,-94,-10
633,423,-127,1069,-6,-72,2
634,449,-44,1022,11,3,2
635,112,46,1004,11,70,13
636,-299,89,952,-3,77,25
637,-505,30,869,-18,16,7
638,-282,-75,973,-17,-64,-12
639,213,-128,1082,-14,-97,-6
640,477,-107,1029,1,-44,2
641,365,1,1028,15,35,5
642,-50,68,991,6,81,22
643,-436,76,912,-10,60,22
644,-475,-9,891,-20,-17,-2
645,-104,-111,1015,-17,-85,-12
646,380,-123,1078,-9,-85,0
647,491,-68,1027,7,-13,3
648,218,29,1031,13,61,10
649,-232,88,965,2,79,26
650,-520,51,866,-17,33,14
651,-363,-61,931,-19,-50,-11
652,116,-128,1059,-15,-94,-9
653,475,-109,1071,-1,-61,3
654,424,-26,1026,12,17,4
655,27,62,1005,9,80,17
656,-394,85,921,-6,70,24
657,-504,5,872,-20,0,2
658,-194,-95,996,-17,-77,-12
659,321,-129,1084,-10,-92,-3
660,492,-85,1040,5,-29,4
661,284,13,1018,12,49,7
662,-156,80,974,6,82,23
663,-482,63,885,-14,47,18
664,-412,-40,913,-18,-32,-7
665,20,-113,1050,-15,-95,-11
666,428,-121,1069,-6,-72,2
667,450,-46,1019,11,4,3
668,109,52,1006,12,71,14
669,-297,84,949,-2,74,25
670,-505,25,873,-17,16,8
671,-281,-80,969,-19,-63,-12
672,214,-126,1081,-14,-96,-5
673,479,-107,1031,0,-43,3
674,364,-3,1027,15,35,4
675,-53,70,991,7,81,21
676,-440,75,915,-9,60,22
677,-475,-16,887,-18,-19,-3
678,-103,-100,1018,-15,-86,-12
679,381,-127,1080,-10,-84,0
680,490,-71,1026,8,-14,3
681,213,35,1028,13,62,10
682,-229,82,966,8,77,25
683,-521,43,866,-10,34,11
684,-362,-60,929,-15,-50,-12
685,122,-126,1064,-17,-96,-8
686,475,-118,1062,4,-60,3
687,423,-16,1026,10,20,4
688,26,64,1007,13,77,17
689,-392,81,918,-9,69,23
690,-504,9,871,-16,1,3
691,-187,-98,1000,-19,-78,-11
692,322,-128,1088,-10,-91,-2
693,490,-88,1033,5,-29,1
694,285,19,1025,13,49,8
695,-159,77,970,2,82,25
696,-482,62,886,-12,45,18
697,-409,-36,912,-18,-34,-8
698,26,-118,1053,-16,-94,-11
699,428,-119,1067,-4,-73,1
700,449,-41,1020,10,3,3
701,103,49,1005,11,72,14
702,-302,81,947,-4,76,25
703,-505,26,874,-16,16,8
704,-274,-81,969,-19,-63,-10
705,217,-129,1079,-13,-96,-5
706,477,-102,1033,0,-44,3
707,362,2,1029,14,34,5
708,-57,71,990,8,81,21
709,-437,78,914,-10,59,23
710,-470,-18,886,-20,-20,-3
711,-97,-109,1021,-17,-86,-12
712,380,-124,1076,-8,-84,-1
713,488,-68,1024,8,-13,3
714,211,34,1032,15,61,10
715,-236,86,964,3,78,25
716,-523,44,868,-15,32,12
717,-358,-59,932,-21,-52,-11
718,125,-126,1059,-14,-95,-8
719,478,-113,1067,-2,-59,3
720,422,-19,1027,15,21,4
721,20,63,1003,8,78,18
722,-392,85,918,-6,68,24
723,-505,4,873,-20,1,3
724,-188,-101,999,-17,-80,-14
725,326,-123,1089,-9,-92,-3
726,498,-90,1031,4,-30,2
727,286,19,1025,16,50,7
728,-165,85,975,3,84,23
729,-485,61,883,-14,46,19
730,-409,-34,917,-19,-34,-6
731,23,-112,1048,-16,-94,-11
732,431,-126,1071,-5,-72,2
733,448,-47,1022,10,5,4
734,108,45,1000,9,71,13
735,-300,85,951,-1,76,26
736,-505,23,876,-16,16,8
737,-280,-79,968,-15,-63,-13
738,219,-125,1082,-13,-97,-6
739,476,-104,1031,-1,-44,3
740,363,6,1025,15,36,5
741,-53,74,991,6,80,20
742,-437,74,914,-10,60,21
743,-475,-21,887,-20,-18,-5
744,-99,-107,1019,-17,-84,-13
745,379,-133,1076,-9,-84,0
746,491,-71,1025,7,-13,3
747,211,40,1031,15,62,11
748,-230,86,964,1,78,24
749,-520,48,868,-15,33,14
750,-361,-52,932,-19,-51,-10
751,123,-129,1062,-17,-95,-8
752,475,-116,1064,-3,-61,4
753,422,-21,1025,13,20,4
754,27,56,1004,9,79,17
755,-394,82,924,-5,68,25
756,-504,8,869,-19,1,2
757,-191,-95,1001,-19,-77,-12
758,320,-128,1086,-10,-93,-3
759,497,-87,1033,3,-29,2
760,286,20,1025,13,49,6
761,-160,75,969,2,82,22
762,-485,68,887,-11,46,17
763,-412,-38,915,-21,-34,-8
764,22,-118,1051,-16,-94,-10
765,429,-121,1069,-5,-72,1
766,448,-44,1021,10,3,3
767,112,47,1002,11,70,13
768,-298,86,950,0,75,25
769,-503,32,880,-16,15,7
770,-281,-79,970,-18,-62,-13
771,211,-127,1080,-12,-97,-4
772,478,-100,1035,0,-44,3
773,364,-3,1025,14,35,5
774,-51,71,994,6,81,20
775,-438,79,915,-10,60,22
776,-473,-20,885,-22,-18,-3
777,-107,-109,1016,-16,-85,-12
778,382,-124,1082,-8,-84,1
779,491,-69,1025,6,-14,4
780,215,34,1032,15,62,10
781,-227,91,966,1,79,25
782,-523,48,868,-17,34,13
783,-361,-61,928,-20,-49,-10
784,117,-127,1062,-15,-96,-8
785,476,-117,1065,-4,-61,3
786,428,-26,1027,14,20,4
787,24,64,1005,11,79,18
788,-386,82,918,-4,68,24
789,-505,6,869,-20,1,2
790,-194,-96,1001,-18,-76,-13
791,316,-126,1087,-11,-91,-3
792,497,-88,1036,4,-31,4
793,290,18,1017,15,49,7
794,-155,82,977,3,84,23
795,-482,58,887,-12,46,18
796,-415,-41,913,-18,-32,-6
797,14,-110,1049,-15,-93,-10
798,425,-127,1069,-8,-73,1
799,453,-47,1021,10,2,2
800,116,50,1008,13,70,13
801,-292,86,951,-2,76,26
802,-509,32,875,-15,17,8
803,-288,-79,965,-20,-63,-12
804,206,-130,1079,-13,-97,-5
805,475,-110,1032,-2,-45,1
806,373,0,1030,16,34,5
807,-45,70,989,7,82,22
808,-434,74,916,-7,61,23
809,-482,-10,887,-17,-17,-3
810,-112,-103,1015,-18,-85,-12
811,379,-126,1081,-10,-85,0
812,493,-70,1025,6,-14,3
813,228,33,1033,12,60,10
814,-230,84,966,1,80,25
815,-522,50,865,-15,36,13
816,-365,-60,929,-19,-49,-11
817,111,-130,1062,-15,-95,-10
818,472,-116,1068,-2,-62,2
819,427,-17,1029,15,18,5
820,35,60,1001,7,78,18
821,-384,85,920,-3,69,23
822,-506,13,876,-19,2,2
823,-197,-95,998,-19,-77,-12
824,308,-129,1084,-11,-93,-2
825,492,-92,1032,3,-31,3
826,293,13,1020,16,49,9
827,-149,78,976,4,83,23
828,-475,66,893,-11,47,18
829,-418,-31,911,-18,-31,-7
830,5,-120,1047,-16,-92,-11
831,420,-121,1069,-4,-73,2
832,454,-48,1021,9,2,3
833,126,45,1007,12,70,14
834,-285,89,949,-2,77,26
835,-510,29,876,-17,18,8
836,-295,-79,958,-18,-62,-12
837,196,-124,1076,-12,-97,-5
838,475,-108,1035,1,-47,3
839,381,-5,1030,13,33,6
840,-35,71,994,8,80,20
841,-434,81,915,-8,61,23
842,-484,-10,881,-18,-15,-2
843,-124,-103,1010,-16,-83,-12
844,375,-125,1086,-10,-85,-1
845,497,-74,1027,9,-16,2
846,231,29,1031,14,61,10
847,-219,86,965,3,80,25
848,-520,49,869,-15,38,15
849,-374,-60,921,-21,-47,-10
850,102,-120,1062,-12,-97,-8
851,471,-119,1073,-3,-63,3
852,431,-26,1024,15,16,4
853,41,63,1002,9,77,17
854,-371,82,926,-5,71,24
855,-505,13,872,-20,6,4
856,-211,-93,995,-16,-75,-13
857,296,-125,1087,-11,-94,-3
858,487,-97,1033,2,-32,2
859,305,12,1014,18,46,6
860,-131,79,980,4,84,24
861,-468,66,896,-11,50,19
862,-430,-30,907,-20,-29,-8
863,-12,-112,1047,-15,-92,-11
864,413,-128,1066,-6,-76,2
865,463,-49,1022,9,0,2
866,144,44,1011,11,69,13
867,-273,85,955,-3,78,26
868,-515,35,873,-15,22,9
869,-313,-73,955,-21,-60,-12
870,181,-130,1073,-14,-97,-5
871,479,-112,1039,-2,-50,3
872,395,-6,1031,16,30,4
873,-20,72,998,9,80,21
874,-427,79,914,-9,64,23
875,-495,-5,881,-18,-12,-2
876,-137,-105,1004,-19,-82,-13
877,369,-129,1087,-9,-87,-1
878,498,-73,1030,8,-19,4
879,247,26,1029,13,59,10
880,-210,80,969,1,81,24
881,-516,57,869,-15,40,16
882,-379,-51,922,-20,-45,-8
883,86,-123,1057,-14,-97,-10
884,460,-118,1068,-5,-64,3
885,433,-29,1028,11,12,3
886,51,56,998,9,77,17
887,-352,88,929,-5,71,25
888,-504,18,875,-18,7,5
889,-225,-91,993,-21,-72,-13
890,275,-128,1085,-10,-95,-3
891,484,-97,1032,1,-35,3
892,318,10,1021,14,43,6
893,-113,74,976,4,83,21
894,-456,71,908,-9,52,18
895,-439,-28,898,-19,-26,-6
896,-36,-113,1040,-17,-90,-12
897,401,-125,1070,-7,-78,-1
898,473,-55,1019,10,-3,3
899,161,37,1018,13,67,12
900,-263,90,958,1,79,24
901,-515,38,869,-17,25,11
902,-325,-70,948,-20,-58,-11
903,163,-120,1073,-13,-95,-8
904,482,-114,1046,-4,-53,3
905,400,-10,1030,15,28,3
906,-8,70,1002,9,79,19
907,-421,79,913,-6,66,24
908,-498,-7,877,-21,-7,0
909,-154,-103,1003,-17,-82,-13
910,357,-129,1089,-9,-89,-1
911,501,-81,1034,7,-24,3
912,255,31,1030,16,55,10
913,-198,86,970,1,82,24
914,-506,57,872,-14,42,16
915,-390,-50,921,-20,-42,-8
916,72,-119,1054,-14,-97,-10
917,452,-120,1074,-5,-67,3
918,438,-37,1026,12,10,3
919,66,57,997,10,76,16
920,-339,86,936,-5,73,26
921,-502,17,875,-19,11,6
922,-244,-81,990,-18,-69,-14
923,258,-130,1081,-12,-97,-5
924,482,-104,1031,2,-38,4
925,334,11,1021,15,40,8
926,-92,73,982,5,82,23
927,-452,72,912,-11,55,20
928,-456,-18,892,-18,-25,-5
929,-62,-110,1031,-18,-88,-11
930,393,-132,1075,-10,-81,0
931,481,-64,1019,9,-7,2
932,190,40,1029,14,64,14
933,-251,89,960,-1,80,26
934,-519,39,867,-15,29,12
935,-348,-60,942,-21,-54,-11
936,148,-131,1066,-14,-95,-9
937,479,-116,1054,-4,-57,2
938,417,-10,1030,17,25,4
939,11,62,1007,7,79,19
940,-411,80,915,-5,68,22
941,-505,1,874,-20,-2,0
942,-172,-99,1000,-18,-80,-11
943,339,-130,1086,-10,-90,-1
944,498,-77,1040,6,-26,2
945,272,20,1020,14,52,7
946,-175,83,977,1,83,24
947,-494,63,875,-12,44,16
948,-400,-45,917,-21,-38,-9
949,37,-120,1058,-13,-95,-11
950,435,-123,1065,-5,-70,1
951,447,-38,1027,14,6,3
952,97,50,1000,9,74,15
953,-314,87,941,-3,75,24
954,-506,27,879,-18,14,7
955,-266,-78,973,-19,-64,-12
956,228,-127,1078,-12,-97,-6
957,477,-102,1033,-1,-43,2
958,359,0,1025,16,38,5
959,-64,69,987,5,81,22
960,-440,79,917,-7,59,22
961,-472,-20,886,-22,-19,-3
962,-96,-107,1020,-16,-85,-11
963,385,-123,1079,-11,-83,0
964,489,-67,1024,9,-12,2
965,214,36,1029,14,62,10
966,-231,86,963,0,79,26
967,-525,45,867,-15,34,11
968,-359,-61,935,-20,-51,-11
969,121,-125,1061,-14,-96,-7
970,480,-118,1068,-4,-61,4
971,425,-26,1028,15,20,4
972,26,67,1001,9,78,18
973,-390,84,921,-5,67,25
974,-504,5,871,-20,3,2
975,-193,-95,1000,-17,-77,-13
976,318,-126,1088,-11,-93,-4
977,493,-94,1031,4,-29,3
978,291,18,1021,16,48,7
979,-151,80,976,4,82,24
980,-478,57,887,-11,48,19
981,-423,-34,911,-18,-32,-6
982,10,-115,1046,-14,-95,-10
983,422,-124,1071,-7,-72,2
984,450,-45,1021,11,2,2
985,127,41,1004,8,69,13
986,-287,88,954,-1,78,26
987,-511,29,872,-17,17,8
988,-296,-74,964,-17,-60,-13
989,196,-126,1078,-14,-96,-6
990,476,-112,1032,-1,-48,3
991,381,-2,1030,16,33,5
992,-33,68,994,8,80,20
993,-434,73,914,-6,61,23
994,-490,-8,883,-21,-13,-2
995,-125,-103,1008,-18,-84,-13
996,374,-129,1082,-11,-87,-1
997,496,-73,1035,9,-16,3
998,234,31,1030,15,59,9
999,-216,82,968,1,81,26
1000,-518,54,864,-15,39,14
1001,-375,-50,929,-20,-49,-10
1002,94,-126,1058,-16,-96,-10
1003,468,-119,1069,-4,-63,3
1004,434,-27,1027,14,13,3
1005,46,56,998,9,78,17
1006,-364,90,930,-3,71,24
1007,-506,15,872,-19,6,3
1008,-220,-90,993,-16,-71,-12
1009,288,-130,1089,-12,-96,-4
1010,485,-98,1028,1,-34,3
1011,314,10,1020,14,45,7
1012,-119,76,980,6,83,20
1013,-463,67,898,-9,51,19
1014,-440,-24,905,-18,-26,-5
1015,-32,-116,1039,-18,-91,-12
1016,404,-123,1066,-7,-78,0
1017,469,-52,1024,11,-2,1
1018,166,40,1016,12,66,13
1019,-265,92,958,6,81,26
1020,-516,39,871,-14,26,10
1021,-329,-72,948,-23,-57,-11
1022,162,-126,1068,-8,-96,-6
1023,481,-116,1047,-8,-54,3
1024,405,-14,1031,20,27,4
1025,-8,73,1003,2,80,20
1026,-421,79,913,-3,67,23
1027,-497,-2,878,-21,-9,-1
1028,-157,-98,1000,-14,-80,-13
1029,353,-125,1087,-14,-89,-1
1030,503,-80,1035,6,-25,3
1031,256,25,1026,17,57,9
1032,-194,83,973,0,82,23
1033,-506,55,872,-13,42,16
1034,-392,-47,921,-22,-39,-9
1035,66,-119,1053,-12,-96,-11
1036,450,-121,1072,-7,-68,3
1037,443,-37,1024,14,9,3
1038,75,57,1003,10,75,15
1039,-331,84,936,-2,74,26
1040,-506,19,874,-17,11,6
1041,-253,-82,983,-18,-68,-12
1042,253,-132,1079,-13,-97,-4
1043,481,-103,1031,1,-38,4
1044,343,4,1022,18,39,6
1045,-80,76,985,5,83,22
1046,-448,74,910,-9,56,22
1047,-458,-19,888,-18,-23,-5
1048,-74,-103,1033,-16,-85,-12
1049,392,-130,1071,-12,-82,0
1050,484,-64,1023,9,-9,2
1051,196,38,1031,13,64,12
1052,-239,77,957,-3,79,27
1053,-526,43,872,-14,32,10
1054,-351,-63,930,-19,-53,-12
1055,139,-122,1067,-13,-97,-7
1056,476,-111,1055,-3,-58,3
1057,425,-17,1033,14,22,3
1058,14,65,1008,7,80,19
1059,-402,80,914,-7,69,23
1060,-504,5,873,-19,-1,1
1061,-180,-103,998,-19,-79,-13
1062,331,-133,1086,-9,-90,-3
1063,495,-83,1035,6,-28,2
1064,283,20,1024,16,50,8
1065,-169,80,971,2,85,23
1066,-487,66,885,-14,46,17
1067,-407,-41,914,-20,-35,-8
1068,25,-116,1051,-16,-93,-10
1069,432,-123,1065,-6,-72,2
1070,448,-43,1025,12,5,4
1071,111,41,1003,10,71,14
1072,-302,87,950,1,77,25
1073,-508,29,872,-16,16,7
1074,-286,-79,968,-17,-63,-11
1075,212,-124,1083,-11,-97,-6
1076,478,-102,1032,-1,-45,2
1077,373,-3,1027,15,36,5
1078,-44,70,991,6,80,21
1079,-439,74,912,-7,61,23
1080,-477,-18,888,-20,-17,-3
1081,-118,-107,1013,-17,-84,-12
1082,377,-128,1077,-9,-85,-1
1083,496,-71,1027,8,-14,3
1084,227,32,1034,15,61,10
1085,-223,91,964,3,81,25
1086,-518,53,869,-15,37,14
1087,-372,-58,928,-21,-48,-10
1088,105,-123,1061,-14,-94,-9
1089,471,-117,1070,-6,-62,2
1090,430,-27,1028,16,17,3
1091,38,61,1004,9,79,17
1092,-372,82,923,-5,69,23
1093,-503,8,873,-17,4,2
1094,-214,-87,998,-17,-75,-12
1095,293,-125,1085,-10,-94,-2
1096,491,-95,1030,2,-33,2
1097,307,14,1022,14,45,7
1098,-127,75,977,3,83,23
1099,-466,66,899,-11,50,19
1100,-435,-29,904,-17,-29,-6
1101,-18,-110,1039,-17,-92,-11
1102,409,-126,1068,-6,-77,0
1103,465,-50,1024,9,-2,3
1104,151,44,1018,12,66,14
1105,-267,86,951,-3,78,26
1106,-515,31,874,-16,22,10
1107,-321,-70,950,-17,-58,-11
1108,175,-125,1072,-13,-94,-6
1109,476,-112,1041,-1,-52,3
1110,402,-5,1032,16,29,5
1111,-15,70,1001,5,80,20
1112,-425,77,915,-7,64,23
1113,-494,-6,875,-20,-9,0
1114,-149,-104,1005,-16,-83,-13
1115,362,-132,1086,-13,-88,-1
1116,497,-75,1033,7,-21,2
1117,256,29,1026,15,56,9
1118,-200,82,970,2,81,26
1119,-512,59,872,-14,41,15
1120,-386,-47,923,-19,-43,-10
1121,74,-120,1057,-15,-95,-8
1122,451,-117,1070,-5,-66,3
1123,441,-33,1027,12,9,2
1124,66,54,1003,10,76,16
1125,-336,85,936,-5,73,25
1126,-502,17,875,-19,10,5
1127,-243,-86,989,-19,-68,-12
1128,256,-132,1081,-10,-96,-5
1129,476,-97,1031,2,-37,2
1130,339,6,1020,15,40,5
1131,-87,71,982,5,83,21
1132,-452,74,913,-10,55,19
1133,-454,-22,894,-18,-23,-5
1134,-69,-107,1031,-17,-88,-11
1135,394,-128,1071,-6,-82,0
1136,482,-62,1021,9,-7,2
1137,190,31,1028,13,64,11
1138,-248,87,960,1,80,26
1139,-525,44,870,-14,31,11
1140,-349,-66,936,-20,-55,-10
1141,139,-119,1067,-12,-96,-8
1142,481,-113,1057,-3,-57,2
1143,420,-19,1031,15,22,4
1144,15,69,1002,9,81,18
1145,-405,83,917,-6,69,24
1146,-506,4,876,-21,-2,0
1147,-180,-100,999,-20,-80,-14
1148,332,-128,1085,-9,-91,-3
1149,499,-82,1037,3,-29,2
1150,280,18,1022,15,51,7
1151,-170,82,973,2,82,23
1152,-488,59,879,-11,45,17
1153,-409,-41,916,-18,-35,-8
1154,28,-115,1050,-13,-95,-11
1155,433,-122,1073,-5,-72,1
1156,447,-46,1021,12,6,3
1157,109,52,1002,14,71,14
1158,-298,85,949,-5,76,26
1159,-509,25,875,-16,17,8
1160,-285,-76,969,-18,-63,-12
1161,210,-129,1076,-12,-97,-5
1162,479,-109,1033,-1,-45,4
1163,370,0,1031,15,35,5
1164,-45,74,992,6,82,22
1165,-439,73,914,-10,60,22
1166,-485,-12,887,-18,-18,-3
1167,-111,-107,1013,-19,-84,-12
1168,381,-128,1083,-8,-85,-2
1169,495,-72,1025,8,-14,3
1170,228,36,1034,16,62,11
1171,-225,83,969,-1,80,25
1172,-525,48,863,-14,37,13
1173,-372,-54,928,-21,-48,-11
1174,108,-126,1061,-13,-95,-10
1175,472,-119,1069,-4,-63,1
1176,432,-21,1026,16,17,2
1177,39,60,1002,9,78,19
1178,-372,81,924,-7,70,25
1179,-506,15,874,-17,5,3
1180,-211,-93,994,-21,-76,-12
1181,292,-127,1084,-10,-94,-3
1182,487,-92,1029,2,-32,3
1183,308,14,1019,15,45,6
1184,-127,75,978,3,85,22
1185,-466,66,901,-11,52,19
1186,-435,-29,902,-20,-29,-6
1187,-27,-112,1042,-15,-90,-11
1188,406,-123,1071,-7,-78,0
1189,467,-53,1017,11,-2,3
1190,157,41,1019,11,68,12
1191,-268,86,952,-1,78,25
1192,-514,35,874,-16,22,10
1193,-322,-70,951,-19,-56,-12
1194,167,-126,1070,-12,-96,-7
1195,480,-109,1045,-3,-53,3
1196,402,-9,1033,16,30,4
1197,-8,69,1004,4,78,20
1198,-423,80,911,-6,66,23
1199,-494,-5,879,-21,-9,0
1200,-156,-109,1003,-17,-82,-13
1201,354,-127,1086,-8,-88,-2
1202,499,-77,1032,7,-23,2
1203,258,22,1025,15,55,8
1204,-195,89,973,3,81,25
1205,-507,57,867,-14,43,15
1206,-389,-50,925,-18,-41,-9
1207,65,-118,1055,-14,-95,-9
1208,451,-122,1068,-6,-67,1
1209,441,-38,1026,13,10,4
1210,74,52,999,8,76,16
1211,-329,85,937,-2,73,25
1212,-507,20,874,-19,12,6
1213,-253,-86,984,-16,-68,-14
1214,246,-122,1081,-11,-97,-4
1215,484,-100,1028,-1,-40,3
1216,347,4,1023,17,40,6
1217,-80,76,987,4,82,23
1218,-447,72,914,-10,57,21
1219,-466,-22,890,-21,-21,-4
1220,-84,-109,1023,-16,-88,-12
1221,390,-129,1078,-9,-84,0
1222,487,-66,1021,9,-9,2
1223,204,38,1031,13,63,11
1224,-237,85,963,2,80,26
1225,-524,44,866,-15,32,13
1226,-357,-60,936,-19,-53,-11
1227,131,-121,1064,-12,-94,-8
1228,479,-116,1059,-5,-59,3
1229,424,-16,1029,17,22,3
1230,21,61,1006,7,80,17
1231,-399,79,922,-4,68,24
1232,-506,1,871,-20,0,1
1233,-187,-98,998,-15,-79,-12
1234,321,-128,1088,-11,-92,-3
1235,494,-87,1033,6,-29,3
1236,284,23,1023,16,50,7
1237,-154,74,972,0,83,24
1238,-483,66,889,-10,47,18
1239,-416,-37,908,-21,-33,-8
1240,16,-113,1055,-13,-94,-11
1241,423,-126,1065,-9,-72,1
1242,454,-45,1024,11,2,2
1243,123,43,1009,12,70,13
1244,-286,85,951,-1,77,25
1245,-512,31,875,-15,18,8
1246,-295,-76,962,-18,-62,-11
1247,194,-130,1075,-12,-96,-6
1248,480,-109,1035,-3,-48,2
1249,385,0,1027,17,33,6
1250,-38,66,995,4,81,22
1251,-433,80,915,-7,62,22
1252,-490,-9,882,-21,-15,-1
1253,-131,-106,1010,-17,-83,-13
1254,372,-128,1084,-10,-86,-1
1255,499,-75,1026,9,-19,3
1256,241,31,1036,17,60,9
1257,-213,86,967,2,79,24
1258,-521,54,867,-13,40,13
1259,-378,-56,926,-23,-45,-9
1260,93,-122,1057,-13,-97,-10
1261,465,-116,1068,-5,-64,2
1262,436,-30,1028,12,14,3
1263,52,57,998,10,77,17
1264,-360,87,930,-5,71,26
1265,-507,10,869,-17,7,4
1266,-226,-87,995,-18,-73,-12
1267,278,-129,1083,-11,-95,-4
1268,488,-95,1031,3,-35,1
1269,321,9,1018,14,42,6
1270,-106,78,981,8,84,23
1271,-459,71,906,-12,53,19
1272,-446,-32,900,-18,-26,-5
1273,-48,-110,1036,-15,-87,-11
1274,403,-124,1071,-7,-80,1
1275,476,-58,1021,7,-4,3
1276,176,43,1024,12,66,12
1277,-255,86,956,1,79,27
1278,-520,39,873,-17,28,11
1279,-340,-63,942,-18,-57,-11
1280,151,-123,1067,-13,-96,-7
1281,484,-115,1054,-3,-55,2
1282,411,-12,1031,16,27,5
1283,3,66,1004,7,78,19
1284,-415,81,915,-5,67,23
1285,-507,-2,875,-17,-4,0
1286,-166,-101,1000,-16,-82,-13
1287,347,-125,1089,-8,-88,-2
1288,500,-84,1031,5,-26,3
1289,268,28,1026,15,53,9
1290,-184,86,973,0,81,24
1291,-501,54,875,-14,43,16
1292,-400,-42,920,-19,-38,-9
1293,49,-121,1052,-14,-96,-10
1294,440,-125,1069,-6,-69,2
1295,441,-33,1026,13,6,2
1296,89,51,997,10,74,16
1297,-316,86,945,-2,74,25
1298,-508,29,875,-15,14,7
1299,-265,-79,977,-19,-65,-13
1300,228,-129,1083,-14,-97,-5
1301,478,-107,1025,-1,-41,1
1302,358,1,1031,15,38,5
1303,-64,67,988,7,81,22
1304,-443,71,906,-10,59,22
1305,-477,-14,892,-16,-20,-3
1306,-92,-109,1019,-17,-86,-11
1307,384,-125,1076,-7,-84,-1
1308,492,-63,1024,7,-12,2
1309,219,34,1034,12,62,12
1310,-236,86,960,2,81,26
1311,-523,45,868,-16,34,11
1312,-363,-58,929,-19,-50,-10
1313,118,-130,1062,-14,-95,-8
1314,478,-118,1068,-2,-61,2
1315,426,-18,1026,14,19,3
1316,27,58,1005,8,79,17
1317,-388,84,921,-6,68,24
1318,-506,9,868,-19,4,1
1319,-196,-99,1004,-19,-76,-13
1320,311,-125,1083,-10,-92,-3
1321,496,-88,1033,4,-30,2
1322,290,14,1023,14,49,7
1323,-147,80,974,5,83,24
1324,-477,64,893,-12,48,18
1325,-422,-35,912,-17,-31,-6
1326,0,-111,1045,-16,-93,-10
1327,420,-122,1069,-5,-75,0
1328,459,-52,1022,10,1,2
1329,128,45,1009,14,69,14
1330,-279,84,951,-1,76,25
1331,-514,32,876,-16,20,9
1332,-305,-78,957,-20,-61,-13
1333,190,-120,1077,-12,-97,-6
1334,479,-103,1033,-3,-49,2
1335,391,-8,1027,13,33,4
1336,-29,72,1005,9,81,20
1337,-431,74,911,-12,63,22
1338,-490,-13,877,-17,-13,-2
1339,-137,-102,1008,-18,-83,-12
1340,368,-128,1085,-7,-86,-2
1341,495,-75,1028,6,-19,3
1342,244,38,1034,16,58,9
1343,-208,83,968,1,80,25
1344,-519,52,867,-14,39,15
1345,-383,-52,927,-19,-46,-10
1346,89,-120,1057,-13,-95,-8
1347,463,-119,1071,-5,-63,3
1348,438,-34,1024,13,14,4
1349,51,58,1002,12,76,16
1350,-356,82,931,-4,69,24
1351,-505,15,869,-13,5,3
1352,-228,-83,991,-19,-74,-13
1353,276,-127,1085,-11,-94,-3
1354,483,-96,1030,-1,-37,2
1355,321,14,1022,14,42,6
1356,-108,71,977,5,83,23
1357,-457,70,907,-13,53,20
1358,-446,-29,900,-16,-26,-7
1359,-44,-112,1035,-22,-91,-12
1360,402,-125,1068,-4,-80,0
1361,470,-54,1021,7,-4,1
1362,175,41,1022,15,63,11
1363,-256,81,953,-5,79,25
1364,-518,43,871,-12,26,10
1365,-332,-69,941,-21,-57,-11
1366,153,-126,1072,-11,-95,-7
1367,476,-112,1048,-4,-55,1
1368,411,-11,1029,17,27,5
1369,1,68,1005,6,79,20
1370,-414,78,914,-4,66,22
1371,-502,-3,878,-21,-7,0
1372,-165,-105,999,-16,-81,-12
1373,349,-126,1088,-8,-89,-2
1374,498,-77,1032,7,-25,2
1375,264,24,1025,15,55,9
1376,-186,83,973,1,82,25
1377,-501,60,875,-12,44,16
1378,-395,-46,922,-21,-38,-7
1379,51,-119,1054,-13,-96,-10
1380,437,-123,1066,-8,-67,2
1381,445,-39,1028,13,7,3
1382,86,45,995,9,73,15
1383,-319,86,940,0,73,25
1384,-507,28,881,-18,13,6
1385,-263,-85,978,-17,-66,-13
1386,230,-125,1080,-11,-96,-6
1387,480,-98,1029,2,-41,2
1388,356,0,1026,13,37,6
1389,-70,74,989,7,83,22
1390,-442,74,911,-9,57,21
1391,-472,-28,890,-17,-20,-3
1392,-89,-108,1020,-18,-86,-12
1393,386,-124,1078,-8,-84,-1
1394,490,-65,1023,9,-11,2
1395,212,40,1031,14,61,10
1396,-236,91,961,2,79,25
1397,-518,45,870,-17,34,13
1398,-365,-56,936,-18,-51,-11
1399,123,-130,1059,-17,-96,-8
1400,480,-118,1063,-2,-59,3
1401,423,-22,1026,13,20,2
1402,25,61,1005,11,78,17
1403,-393,87,922,-6,70,24
1404,-504,4,868,-18,2,1
1405,-195,-94,999,-17,-77,-12
1406,320,-123,1086,-9,-92,-4
1407,491,-90,1032,2,-29,2
1408,289,20,1023,15,49,6
1409,-147,78,970,2,83,24
1410,-482,60,891,-14,48,18
1411,-418,-36,911,-17,-32,-7
1412,6,-113,1049,-16,-93,-10
1413,420,-128,1065,-5,-75,1
1414,458,-45,1023,10,2,2
1415,127,46,1010,14,71,13
1416,-285,85,950,-4,76,25
1417,-514,32,875,-15,20,9
1418,-299,-74,958,-18,-61,-11
1419,193,-128,1080,-13,-97,-7
1420,475,-106,1034,-1,-47,2
1421,388,-1,1027,14,31,6
1422,-28,71,1000,8,80,21
1423,-432,75,909,-10,63,22
1424,-490,-11,883,-19,-13,-2
1425,-135,-107,1009,-19,-83,-12
1426,372,-131,1080,-8,-85,-1
1427,494,-70,1032,7,-18,2
1428,242,32,1031,13,58,10
1429,-211,84,966,0,80,25
1430,-519,55,868,-13,39,14
1431,-375,-53,923,-19,-46,-10
1432,88,-121,1060,-14,-96,-9
1433,464,-116,1072,-3,-64,2
1434,434,-29,1025,11,13,3
1435,49,56,999,9,77,17
1436,-354,86,932,-8,71,24
1437,-503,14,871,-15,8,3
1438,-226,-93,993,-20,-71,-13
1439,278,-127,1084,-8,-95,-3
1440,482,-91,1027,1,-35,3
1441,320,8,1023,14,42,6
1442,-109,79,981,7,84,22
1443,-458,72,906,-12,52,19
1444,-446,-29,898,-19,-27,-6
1445,-44,-114,1036,-17,-90,-11
1446,403,-127,1070,-6,-80,0
1447,477,-59,1023,7,-4,2
1448,175,38,1019,13,66,13
1449,-258,92,959,-1,79,27
1450,-524,42,868,-14,28,10
1451,-333,-70,942,-21,-58,-12
1452,150,-123,1071,-14,-96,-8
1453,485,-114,1049,-5,-57,1
1454,415,-15,1031,15,27,2
1455,0,70,1006,7,80,19
1456,-413,80,911,-7,67,24
1457,-508,1,876,-17,-5,1
1458,-168,-100,999,-19,-80,-12
1459,345,-125,1087,-9,-90,-1
1460,498,-83,1033,1,-25,4
1461,273,20,1026,17,53,8
1462,-178,83,972,2,83,24
1463,-499,54,878,-13,44,16
1464,-404,-40,920,-19,-37,-8
1465,41,-114,1054,-13,-95,-10
1466,440,-123,1068,-7,-70,2
1467,451,-38,1025,14,7,3
1468,92,52,1001,9,75,15
1469,-313,83,946,-3,76,26
1470,-508,25,870,-18,15,7
1471,-271,-74,976,-17,-65,-12
1472,227,-128,1080,-14,-97,-5
1473,477,-104,1030,1,-43,2
1474,360,2,1026,16,37,6
1475,-57,73,988,5,82,23
1476,-442,74,912,-9,59,22
1477,-476,-15,891,-20,-19,-5
1478,-100,-108,1019,-17,-86,-13
1479,380,-130,1077,-10,-84,0
1480,492,-64,1027,8,-13,4
1481,217,35,1030,12,61,12
1482,-231,84,964,1,80,26
1483,-521,45,868,-17,35,14
1484,-367,-55,929,-17,-49,-9
1485,120,-125,1063,-15,-96,-8
1486,474,-114,1067,0,-62,2
1487,425,-25,1027,12,18,3
1488,29,58,1004,10,79,18
1489,-385,87,924,-6,70,25
1490,-504,5,868,-19,3,2
1491,-201,-95,1002,-17,-77,-11
1492,303,-125,1086,-9,-94,-3
1493,491,-93,1030,2,-32,3
1494,299,18,1024,15,48,7
1495,-141,73,974,4,86,23
1496,-474,64,895,-13,51,18
1497,-427,-28,912,-17,-30,-6
1498,-5,-116,1043,-19,-92,-10
1499,413,-123,1069,-5,-76,0
1500,463,-50,1021,8,0,2
1501,141,41,1012,13,68,14
1502,-279,90,953,-2,79,25
1503,-514,39,873,-15,21,10
1504,-312,-76,956,-19,-59,-13
1505,182,-124,1074,-13,-96,-7
1506,478,-106,1034,-1,-51,1
1507,395,-9,1033,14,31,5
1508,-21,68,998,9,80,20
1509,-431,77,913,-7,63,23
1510,-496,-13,880,-22,-11,-2
1511,-141,-103,1003,-17,-83,-13
1512,365,-127,1086,-9,-87,-2
1513,505,-80,1031,6,-20,2
1514,247,34,1031,15,59,10
1515,-206,83,967,0,80,24
1516,-512,56,867,-11,42,16
1517,-389,-49,927,-22,-43,-9
1518,78,-120,1054,-12,-97,-9
1519,457,-116,1072,-5,-67,2
1520,440,-38,1022,13,12,2
1521,63,56,1002,10,76,16
1522,-348,85,937,-5,72,25
1523,-505,15,874,-18,9,6
1524,-238,-86,986,-18,-69,-12
1525,265,-126,1083,-10,-95,-5
1526,480,-101,1034,-1,-38,3
1527,331,13,1021,17,41,6
1528,-90,76,981,4,83,22
1529,-451,69,907,-11,54,21
1530,-457,-23,897,-20,-24,-5
1531,-63,-111,1033,-18,-89,-12
1532,397,-126,1073,-7,-82,0
1533,481,-57,1021,10,-7,2
1534,192,40,1026,16,64,12
1535,-250,86,962,0,80,25
1536,-525,40,868,-13,29,10
1537,-345,-64,935,-19,-56,-10
1538,141,-125,1067,-14,-96,-9
1539,483,-117,1054,-3,-58,1
1540,414,-16,1031,16,24,3
1541,12,68,1009,9,80,18
1542,-404,81,910,-6,67,24
1543,-509,2,871,-20,-2,0
1544,-176,-97,1007,-18,-81,-14
1545,336,-130,1085,-10,-91,-2
1546,499,-80,1032,2,-28,3
1547,282,22,1026,16,53,9
1548,-171,73,970,1,83,25
1549,-493,63,885,-9,45,17
1550,-405,-41,912,-19,-36,-8
1551,29,-115,1052,-14,-95,-9
1552,432,-120,1067,-3,-71,1
1553,451,-39,1022,11,6,2
1554,102,43,1005,10,72,15
1555,-302,86,946,-4,76,26
1556,-507,29,874,-17,15,7
1557,-282,-83,970,-20,-62,-12
1558,212,-126,1082,-12,-96,-5
1559,476,-100,1027,-1,-44,2
1560,369,0,1030,16,36,6
1561,-49,70,990,6,81,21
1562,-440,73,914,-7,60,22
1563,-478,-15,889,-20,-18,-2
1564,-108,-104,1013,-17,-84,-12
1565,378,-128,1079,-8,-85,0
1566,492,-69,1029,8,-14,2
1567,222,30,1026,15,61,11
1568,-226,90,970,2,79,26
1569,-521,49,866,-14,35,14
1570,-371,-60,930,-19,-48,-10
1571,107,-123,1059,-12,-96,-9
1572,475,-116,1068,-5,-63,2
1573,429,-27,1025,17,17,3
1574,38,61,1004,7,78,17
1575,-379,88,925,-3,70,25
1576,-504,6,868,-20,5,2
1577,-211,-91,999,-17,-75,-12
1578,302,-123,1088,-12,-94,-2
1579,490,-96,1031,3,-32,3
1580,301,13,1023,15,46,6
1581,-131,78,975,5,84,22
1582,-470,64,897,-14,49,19
1583,-435,-28,911,-18,-30,-7
1584,-12,-111,1042,-16,-92,-11
1585,409,-122,1070,-7,-77,1
1586,468,-54,1019,8,-1,2
1587,146,42,1015,12,69,13
1588,-269,86,958,0,78,26
1589,-516,31,870,-16,23,9
1590,-322,-72,951,-18,-59,-11
1591,177,-124,1075,-15,-97,-6
1592,479,-113,1040,-2,-51,4
1593,398,-4,1029,17,30,4
1594,-11,72,1002,6,79,20
1595,-425,75,911,-8,65,23
1596,-501,-3,881,-16,-9,-1
1597,-147,-100,1007,-18,-81,-12
1598,364,-134,1082,-9,-86,-1
1599,497,-74,1036,5,-22,2
1600,253,28,1025,14,56,9
1601,-202,81,971,1,82,25
1602,-510,55,870,-12,41,15
1603,-382,-50,923,-20,-43,-10
1604,75,-122,1058,-13,-96,-10
1605,456,-119,1071,-4,-66,2
1606,440,-33,1021,12,11,3
1607,65,55,1003,9,76,17
1608,-345,83,934,-5,72,25
1609,-505,11,868,-17,10,6
1610,-238,-83,995,-18,-69,-12
1611,259,-131,1081,-11,-96,-3
1612,481,-94,1025,1,-37,4
1613,331,11,1026,15,41,5
1614,-95,69,982,3,82,23
1615,-454,75,909,-8,56,20
1616,-453,-22,897,-20,-24,-5
1617,-60,-116,1032,-16,-89,-12
1618,393,-124,1070,-8,-80,0
1619,480,-59,1021,9,-5,2
1620,186,36,1026,12,65,13
1621,-252,88,958,1,80,26
1622,-521,44,869,-15,28,10
1623,-343,-68,942,-19,-56,-10
1624,148,-124,1064,-13,-96,-8
1625,483,-109,1058,-4,-57,3
1626,413,-20,1028,14,24,3
1627,6,66,1006,8,79,18
1628,-410,80,913,-5,67,24
1629,-504,0,875,-20,-4,1
1630,-174,-101,1002,-16,-80,-12
1631,342,-128,1086,-10,-91,-1
1632,500,-80,1037,8,-27,3
1633,275,21,1021,15,54,8
1634,-180,86,975,3,82,24
1635,-495,57,877,-14,45,18
1636,-401,-47,921,-18,-35,-7
1637,37,-116,1054,-15,-95,-10
1638,440,-122,1065,-7,-69,2
1639,448,-43,1024,12,6,3
1640,97,54,1003,10,74,15
1641,-311,88,942,-2,75,24
1642,-508,24,872,-16,14,6
1643,-274,-82,973,-17,-64,-12
1644,223,-121,1082,-12,-97,-6
1645,479,-107,1032,0,-42,2
1646,362,1,1028,14,36,6
1647,-57,75,988,7,81,21
1648,-441,70,912,-11,59,21
1649,-477,-19,886,-18,-17,-4
1650,-104,-104,1017,-18,-85,-14
1651,383,-128,1078,-8,-85,0
1652,492,-65,1028,8,-12,3
1653,220,35,1033,10,60,12
1654,-230,85,967,0,80,26
1655,-525,47,863,-15,36,13
1656,-366,-59,931,-20,-51,-10
1657,115,-126,1061,-17,-96,-8
1658,478,-117,1061,-2,-62,4
1659,425,-19,1030,14,18,3
1660,28,61,1004,10,79,17
1661,-384,81,922,-7,69,25
1662,-507,7,873,-19,2,2
1663,-194,-94,996,-20,-76,-14
1664,307,-128,1093,-11,-93,-3
1665,487,-89,1030,4,-31,1
1666,296,21,1023,15,47,6
1667,-146,76,974,3,84,23
1668,-473,65,892,-12,47,18
1669,-425,-33,914,-18,-30,-7
1670,-1,-119,1043,-19,-93,-10
1671,416,-122,1070,-4,-74,2
1672,457,-48,1016,8,1,2
1673,139,45,1014,13,68,13
1674,-284,88,952,-3,77,26
1675,-506,29,870,-16,19,8
1676,-306,-71,965,-19,-60,-12
1677,189,-128,1074,-12,-96,-6
1678,479,-106,1037,-1,-48,2
1679,389,-6,1031,14,32,4
1680,-23,69,996,8,80,20
1681,-432,75,912,-7,63,22
1682,-491,-10,885,-18,-13,-2
1683,-136,-106,1007,-19,-84,-13
1684,369,-126,1083,-8,-87,-1
1685,500,-69,1034,6,-20,3
1686,243,28,1026,15,59,11
1687,-213,85,973,-3,81,25
1688,-516,54,867,-12,40,13
1689,-379,-57,927,-21,-45,-9
1690,84,-119,1058,-17,-97,-10
1691,466,-119,1069,-1,-64,2
1692,436,-37,1023,10,14,3
1693,54,59,1003,11,77,17
1694,-355,89,927,-6,72,25
1695,-505,15,872,-18,8,6
1696,-227,-88,993,-18,-72,-12
1697,270,-123,1084,-13,-94,-4
1698,487,-98,1031,1,-36,2
1699,324,12,1019,13,43,7
1700,-104,73,978,3,85,24
1701,-459,69,906,-12,52,19
1702,-450,-27,902,-18,-26,-5
1703,-45,-106,1036,-17,-89,-11
1704,401,-126,1071,-8,-81,1
1705,479,-61,1015,7,-4,2
1706,174,44,1028,13,66,14
1707,-258,88,958,0,77,27
1708,-517,39,867,-16,27,11
1709,-341,-65,943,-19,-54,-11
1710,153,-128,1070,-14,-97,-6
1711,481,-116,1050,-4,-55,3
1712,413,-12,1032,15,27,4
1713,6,65,1004,8,78,20
1714,-416,77,913,-7,67,24
1715,-506,0,878,-20,-6,-1
1716,-167,-94,1000,-16,-81,-13
1717,348,-125,1085,-11,-89,0
1718,500,-82,1034,5,-25,2
1719,268,27,1025,14,54,9
1720,-186,78,974,0,83,26
1721,-500,56,874,-12,43,17
1722,-398,-45,918,-20,-38,-9
1723,48,-119,1057,-15,-95,-9
1724,446,-122,1067,-6,-70,1
1725,442,-34,1025,14,7,2
1726,93,50,1000,9,75,15
1727,-320,88,945,0,74,25
1728,-510,23,872,-18,13,6
1729,-261,-81,982,-18,-65,-11
1730,235,-126,1080,-13,-97,-4
1731,478,-103,1027,0,-41,2
1732,354,3,1027,16,38,6
1733,-65,67,984,5,81,23
1734,-446,76,914,-7,58,22
1735,-468,-16,892,-20,-22,-4
1736,-92,-109,1020,-15,-87,-11
1737,387,-123,1077,-10,-83,1
1738,490,-60,1025,9,-10,2
1739,211,33,1030,11,63,11
1740,-237,88,967,2,81,24
1741,-525,43,863,-17,34,12
1742,-363,-66,935,-19,-53,-10
1743,119,-125,1061,-12,-95,-8
1744,479,-114,1064,-3,-61,3
1745,424,-21,1032,14,20,4
1746,25,58,1003,9,79,17
1747,-390,84,917,-3,67,24
1748,-505,9,875,-20,2,2
1749,-193,-98,997,-16,-77,-13
1750,315,-123,1090,-12,-94,-4
1751,495,-93,1034,3,-29,2
1752,293,15,1023,13,48,8
1753,-152,79,973,5,83,25
1754,-478,63,889,-11,47,17
1755,-421,-38,910,-18,-32,-7
1756,3,-112,1049,-16,-94,-10
1757,422,-119,1071,-4,-74,2
1758,459,-50,1020,10,1,3
1759,132,47,1012,11,69,15
1760,-283,89,950,-2,77,27
1761,-514,28,874,-19,20,9
1762,-306,-77,958,-17,-60,-11
1763,191,-125,1076,-13,-97,-5
1764,477,-110,1040,1,-48,3
1765,388,-5,1030,13,33,5
1766,-28,75,1000,9,80,21
1767,-432,73,910,-10,63,23
1768,-490,-7,885,-17,-13,-2
1769,-137,-103,1004,-18,-84,-12
1770,372,-130,1082,-10,-87,0
1771,497,-72,1030,7,-18,3
1772,244,27,1030,15,59,9
1773,-212,85,972,3,81,25
1774,-519,50,862,-14,40,15
1775,-381,-48,928,-18,-46,-9
1776,87,-120,1059,-14,-96,-9
1777,465,-120,1070,-4,-64,2
1778,434,-25,1028,12,12,3
1779,53,55,999,10,78,17
1780,-357,86,932,-6,72,27
1781,-506,13,868,-18,7,3
1782,-229,-87,992,-19,-71,-13
1783,274,-128,1085,-10,-96,-4
1784,481,-100,1030,1,-36,2
1785,325,12,1022,15,43,6
1786,-103,72,977,4,83,23
1787,-458,72,912,-11,53,20
1788,-447,-24,900,-18,-24,-7
1789,-46,-114,1033,-19,-89,-11
1790,401,-125,1067,-6,-80,-1
1791,477,-56,1023,9,-4,2
1792,177,37,1026,13,65,13
1793,-255,89,959,0,78,26
1794,-521,40,869,-16,28,11
1795,-339,-69,941,-19,-57,-11
1796,154,-126,1068,-12,-96,-7
1797,479,-114,1052,-1,-54,2
1798,415,-11,1032,14,25,5
1799,5,66,1005,10,79,19
1800,-414,79,910,-7,68,23
1801,-504,4,879,-19,-5,0
1802,-170,-102,998,-20,-79,-12
1803,341,-126,1087,-9,-89,-2
1804,502,-79,1032,3,-27,2
1805,270,20,1025,15,55,8
1806,-181,79,972,2,83,23
1807,-495,61,878,-13,43,17
1808,-403,-45,916,-19,-36,-8
1809,46,-115,1058,-13,-95,-9
1810,436,-121,1065,-3,-70,1
1811,448,-40,1024,10,7,3
1812,93,52,1003,12,73,15
1813,-313,88,942,-5,74,25
1814,-508,22,877,-17,15,7
1815,-274,-84,972,-19,-64,-13
1816,225,-126,1080,-10,-96,-5
1817,479,-104,1032,-1,-41,4
1818,362,-2,1028,14,36,7
1819,-62,76,990,9,82,21
1820,-441,78,915,-10,60,21
1821,-478,-13,886,-18,-20,-3
1822,-101,-106,1017,-19,-86,-13
1823,385,-130,1078,-8,-84,-1
1824,496,-74,1025,4,-14,3
1825,219,33,1035,14,63,10
1826,-231,86,962,1,80,26
1827,-526,48,867,-15,34,14
1828,-369,-55,932,-19,-50,-10
1829,117,-122,1058,-15,-96,-9
1830,477,-118,1066,-1,-62,3
1831,431,-21,1027,13,19,3
1832,32,62,1003,8,80,18
1833,-385,80,921,-8,70,25
1834,-508,5,871,-17,5,1
1835,-205,-92,996,-18,-79,-13
1836,307,-127,1085,-10,-93,-3
1837,490,-94,1030,5,-31,2
1838,300,22,1021,15,45,6
1839,-134,77,976,4,83,25
1840,-473,65,895,-14,51,18
1841,-430,-32,910,-18,-30,-6
1842,-16,-113,1044,-17,-91,-11
1843,414,-128,1067,-6,-77,0
1844,464,-54,1021,9,-1,2
1845,149,43,1014,12,68,13
1846,-273,86,953,-1,77,26
1847,-516,36,875,-16,23,9
1848,-317,-69,953,-21,-59,-12
1849,177,-128,1073,-14,-96,-5
1850,480,-108,1042,-2,-51,2
1851,396,-6,1029,16,31,4
1852,-13,64,1002,6,78,21
1853,-431,79,908,-6,65,24
1854,-494,-7,881,-20,-10,-1
1855,-148,-105,1007,-16,-83,-12
1856,361,-131,1083,-9,-87,-3
1857,504,-72,1037,7,-21,3
1858,252,23,1027,14,56,9
1859,-203,83,968,2,82,25
1860,-514,62,873,-12,42,15
1861,-389,-53,919,-22,-43,-9
1862,71,-122,1058,-13,-96,-9
1863,454,-119,1072,-4,-68,2
1864,444,-36,1025,13,9,2
1865,70,51,999,10,77,16
1866,-338,83,936,-1,73,26
1867,-506,19,875,-18,10,6
1868,-248,-83,985,-17,-67,-13
1869,252,-126,1082,-12,-97,-4
1870,481,-98,1026,2,-38,4
1871,345,4,1025,14,40,6
1872,-83,70,982,4,83,21
1873,-450,76,912,-9,56,22
1874,-465,-27,889,-22,-22,-4
1875,-77,-109,1028,-16,-89,-12
1876,390,-126,1073,-9,-82,-1
1877,489,-67,1022,10,-8,3
1878,202,42,1033,13,62,13
1879,-241,94,961,2,81,26
1880,-525,44,864,-16,32,10
1881,-361,-61,939,-19,-53,-12
1882,134,-130,1059,-15,-96,-7
1883,480,-116,1063,-3,-60,2
1884,425,-26,1027,14,21,2
1885,22,64,1004,9,80,18
1886,-399,87,922,-5,68,25
1887,-508,4,869,-20,0,1
1888,-191,-93,1000,-15,-77,-13
1889,323,-124,1090,-12,-93,-1
1890,497,-91,1030,5,-29,4
1891,289,21,1025,16,49,6
1892,-154,76,973,3,83,24
1893,-483,59,891,-11,47,19
1894,-422,-37,907,-17,-32,-7
1895,12,-112,1052,-15,-95,-10
1896,426,-124,1066,-5,-74,1
1897,460,-46,1024,12,3,2
1898,126,50,1011,10,71,13
1899,-285,83,947,-2,78,26
1900,-513,34,878,-19,20,9
1901,-303,-73,957,-18,-61,-12
1902,194,-129,1078,-14,-97,-7
1903,475,-109,1032,1,-47,1
1904,388,-6,1030,15,32,6
1905,-31,73,998,8,81,20
1906,-431,77,910,-8,62,22
1907,-490,-9,886,-19,-13,-1
1908,-133,-103,1005,-18,-82,-13
1909,372,-129,1083,-10,-86,-1
1910,497,-73,1029,7,-19,3
1911,241,30,1033,14,59,10
1912,-213,81,968,2,80,24
1913,-521,53,868,-14,39,14
1914,-380,-49,923,-19,-44,-9
1915,92,-122,1060,-16,-97,-9
1916,462,-118,1070,-3,-65,1
1917,437,-30,1028,13,13,2
1918,55,55,999,10,78,17
1919,-361,89,931,-5,72,25
1920,-506,15,872,-18,8,4
1921,-229,-88,994,-18,-72,-12
1922,276,-128,1082,-12,-95,-4
1923,482,-93,1030,3,-35,2
1924,326,8,1022,12,41,6
1925,-106,76,981,6,84,22
1926,-459,71,902,-11,51,19
1927,-445,-26,901,-18,-26,-5
1928,-50,-109,1037,-16,-89,-12
1929,403,-124,1068,-8,-81,0
1930,475,-61,1024,8,-5,2
1931,177,36,1022,10,66,12
1932,-257,87,957,0,79,26
1933,-522,37,867,-16,28,11
1934,-340,-69,944,-16,-55,-10
1935,151,-123,1066,-15,-96,-8
1936,485,-111,1051,-2,-56,2
1937,416,-12,1034,14,27,3
1938,4,67,1001,7,79,19
1939,-415,83,916,-7,67,24
1940,-506,1,873,-20,-4,1
1941,-170,-106,1000,-17,-81,-12
1942,344,-125,1089,-10,-89,-1
1943,501,-90,1032,4,-25,4
1944,271,21,1026,15,54,9
1945,-181,86,973,4,83,24
1946,-498,55,875,-14,44,15
1947,-405,-35,920,-16,-36,-9
1948,45,-114,1054,-17,-95,-10
1949,441,-122,1071,-5,-70,3
1950,446,-39,1025,11,6,3
1951,94,51,1000,11,74,16
1952,-313,83,946,-3,74,26
1953,-509,19,873,-18,14,7
1954,-270,-84,973,-16,-65,-13
1955,226,-127,1082,-13,-98,-6
1956,477,-104,1030,2,-42,3
1957,363,9,1028,14,36,5
1958,-59,72,990,6,81,21
1959,-441,75,913,-10,59,22
1960,-474,-16,890,-19,-19,-3
1961,-100,-107,1017,-18,-85,-13
1962,383,-129,1076,-11,-84,0
1963,489,-69,1028,8,-12,3
1964,215,37,1032,13,63,10
1965,-231,79,961,1,79,26
1966,-523,48,868,-16,35,12
1967,-363,-54,928,-18,-50,-11
1968,119,-125,1063,-16,-95,-8
1969,474,-114,1064,-3,-61,2
1970,427,-18,1028,14,19,4
1971,31,55,1003,7,78,19
1972,-387,84,923,-5,69,24
1973,-506,9,871,-17,3,1
1974,-197,-103,994,-17,-77,-12
1975,308,-126,1087,-11,-93,-2
1976,494,-88,1035,6,-30,2
1977,293,17,1016,14,47,7
1978,-144,80,980,5,84,24
1979,-476,64,890,-14,48,18
1980,-426,-29,912,-17,-31,-6
1981,-1,-118,1047,-18,-92,-11
1982,418,-128,1067,-6,-75,2
1983,461,-44,1024,10,1,2
1984,140,37,1012,9,69,13
1985,-282,86,951,0,78,25
1986,-514,34,877,-18,20,7
1987,-308,-76,955,-17,-60,-12
1988,187,-118,1077,-14,-96,-5
1989,482,-105,1036,0,-50,2
1990,395,-9,1030,15,31,5
1991,-23,70,1001,7,81,21
1992,-429,78,908,-9,63,22
1993,-496,-8,885,-18,-11,-2
1994,-140,-106,1002,-18,-83,-11
1995,368,-127,1084,-10,-86,-1
1996,502,-77,1029,7,-20,4
1997,247,29,1032,13,58,10
1998,-209,86,970,3,80,23
1999,-515,53,870,-15,40,15
2000,-384,-49,923,-18,-44,-8
2001,84,-121,1055,-16,-96,-9
2002,461,-122,1073,-3,-64,3
2003,440,-33,1026,10,11,3
2004,57,57,998,11,77,16
2005,-352,87,931,-5,71,25
2006,-508,11,872,-14,9,4
2007,-236,-88,989,-17,-70,-12
2008,270,-124,1084,-11,-94,-3
2009,481,-97,1029,4,-36,3
2010,329,7,1020,15,41,6
2011,-101,75,983,6,83,23
2012,-456,69,905,-11,52,19
2013,-450,-30,898,-18,-24,-5
2014,-58,-106,1034,-17,-90,-12
2015,398,-128,1071,-8,-81,0
2016,476,-60,1020,9,-4,3
2017,182,42,1023,13,66,13
2018,-252,84,960,0,79,26
2019,-523,41,871,-16,28,10
2020,-340,-62,938,-19,-56,-12
2021,152,-126,1069,-15,-95,-6
2022,482,-115,1051,-1,-55,3
2023,414,-11,1031,14,25,3
2024,8,65,1007,10,80,20
2025,-412,80,911,-8,67,23
2026,-508,5,874,-17,-4,-1
2027,-172,-102,1003,-22,-82,-13
2028,346,-127,1089,-9,-92,-2
2029,498,-82,1033,4,-26,2
2030,274,23,1028,14,54,8
2031,-182,80,971,-1,82,24
2032,-502,58,874,-12,42,15
2033,-402,-39,919,-21,-36,-8
2034,42,-119,1052,-12,-94,-9
2035,438,-122,1068,-10,-70,2
2036,449,-38,1026,15,6,3
2037,99,44,999,9,75,15
2038,-313,87,945,0,75,25
2039,-508,27,871,-16,14,6
2040,-274,-80,976,-18,-64,-11
2041,223,-128,1081,-13,-98,-6
2042,478,-103,1028,-2,-43,2
2043,364,-1,1029,15,36,6
2044,-55,71,989,5,80,22
2045,-443,76,912,-9,60,21
2046,-474,-19,891,-18,-20,-4
2047,-101,-107,1017,-17,-85,-12
2048,381,-126,1077,-9,-85,0
2049,493,-66,1026,9,-12,2
2050,216,30,1032,13,62,11
2051,-231,89,966,2,79,26
2052,-522,47,867,-15,34,12
2053,-367,-59,928,-19,-51,-10
2054,118,-121,1063,-12,-95,-8
2055,474,-115,1067,-2,-61,2
2056,427,-25,1025,14,19,4
2057,28,62,1006,8,78,18
2058,-385,85,923,-5,68,23
2059,-504,6,870,-18,3,2
2060,-203,-98,1001,-17,-76,-14
2061,312,-122,1085,-9,-93,-3
2062,493,-92,1029,0,-31,5
2063,294,15,1025,16,48,8
2064,-144,80,974,3,84,23
2065,-476,64,892,-12,47,17
2066,-428,-32,913,-17,-31,-7
2067,1,-112,1044,-16,-93,-11
2068,421,-127,1069,-8,-76,1
2069,461,-51,1019,10,2,3
2070,140,41,1010,13,69,14
2071,-283,88,956,-1,77,26
2072,-512,31,872,-16,19,9
2073,-310,-70,957,-19,-60,-12
2074,187,-125,1077,-12,-98,-6
2075,482,-112,1037,-3,-49,2
2076,391,-5,1032,17,31,3
2077,-21,70,998,6,80,20
2078,-433,77,910,-8,66,23
2079,-498,-11,880,-20,-12,-3
2080,-139,-99,1007,-15,-84,-12
2081,367,-133,1085,-10,-87,-1
2082,502,-79,1030,7,-20,3
2083,247,33,1030,15,58,10
2084,-206,83,967,2,81,25
2085,-514,56,866,-12,41,15
2086,-386,-44,927,-20,-45,-9
2087,80,-125,1058,-13,-97,-9
2088,461,-119,1073,-6,-66,3
2089,436,-33,1024,14,12,2
2090,64,51,1001,9,77,17
2091,-350,86,932,-3,72,26
2092,-505,17,871,-16,9,5
2093,-233,-87,990,-17,-70,-13
2094,264,-125,1086,-10,-97,-4
2095,480,-93,1029,2,-36,3
2096,328,12,1021,16,42,6
2097,-100,69,980,3,83,23
2098,-453,70,904,-9,53,19
2099,-449,-22,900,-19,-24,-5
2100,-54,-114,1031,-18,-88,-11
2101,396,-124,1070,-8,-80,0
2102,479,-58,1028,10,-5,2
2103,182,34,1022,11,64,12
2104,-254,90,961,2,79,26
2105,-519,39,865,-18,27,11
2106,-339,-66,946,-17,-56,-11
2107,148,-123,1065,-13,-95,-8
2108,483,-113,1053,-4,-56,2
2109,413,-14,1032,14,25,3
2110,1,67,1003,7,79,18
2111,-411,83,914,-6,66,22
2112,-505,0,875,-21,-5,-1
2113,-172,-103,999,-16,-80,-13
2114,347,-128,1086,-11,-90,-1
2115,500,-84,1033,6,-27,4
2116,271,21,1028,14,54,8
2117,-182,83,968,2,82,24
2118,-496,60,877,-13,43,17
2119,-401,-44,917,-19,-36,-8
2120,43,-114,1054,-14,-96,-11
2121,438,-120,1066,-6,-71,2
2122,449,-41,1024,11,6,3
2123,92,48,999,10,73,15
2124,-310,87,947,-3,75,26
2125,-508,21,875,-18,15,7
2126,-275,-83,972,-18,-65,-12
2127,226,-126,1081,-14,-98,-6
2128,479,-105,1029,0,-42,2
2129,361,2,1024,15,37,4
2130,-58,75,991,5,81,21
2131,-441,75,911,-8,59,21
2132,-475,-18,888,-18,-20,-3
2133,-101,-105,1019,-15,-85,-12
2134,386,-128,1081,-11,-84,1
2135,491,-70,1024,11,-12,4
2136,218,37,1032,11,61,10
2137,-231,85,962,0,80,25
2138,-527,44,867,-15,34,12
2139,-364,-57,928,-19,-51,-11
2140,117,-123,1063,-15,-96,-8
2141,479,-119,1065,-4,-62,2
2142,426,-20,1026,16,18,4
2143,31,64,1006,6,78,17
2144,-385,81,916,-5,69,24
2145,-507,5,871,-20,3,1
2146,-199,-97,1001,-17,-77,-14
2147,310,-130,1082,-11,-94,-3
2148,494,-88,1034,5,-31,2
2149,296,22,1023,15,47,7
2150,-146,78,973,3,84,25
2151,-478,65,893,-12,48,19
2152,-423,-31,907,-20,-31,-6
2153,0,-117,1050,-16,-92,-11
2154,419,-127,1066,-7,-75,0
2155,455,-46,1024,12,1,2
2156,136,42,1010,9,68,14
2157,-283,84,952,-1,79,26
2158,-512,35,872,-16,20,9
2159,-303,-77,961,-19,-60,-11
2160,186,-126,1075,-13,-95,-5
2161,479,-102,1035,-2,-50,2
2162,390,-3,1035,16,32,5
2163,-26,67,996,5,80,21
2164,-433,82,913,-7,63,22
2165,-491,-11,880,-22,-13,-3
2166,-130,-110,1006,-17,-82,-12
2167,366,-127,1084,-10,-87,-3
2168,502,-73,1031,9,-19,2
2169,243,30,1030,15,59,10
2170,-212,87,967,3,81,23
2171,-517,52,868,-15,39,13
2172,-384,-56,923,-20,-44,-10
2173,91,-125,1061,-17,-96,-8
2174,464,-117,1066,-3,-65,4
2175,441,-29,1026,14,13,3
2176,51,57,1002,8,78,16
2177,-357,92,931,-3,72,24
2178,-506,13,874,-20,7,4
2179,-231,-95,992,-19,-72,-12
2180,279,-126,1083,-12,-96,-5
2181,484,-100,1034,2,-34,3
2182,321,9,1021,16,42,7
2183,-107,79,977,6,84,24
2184,-461,69,906,-13,53,19
2185,-443,-27,899,-16,-25,-5
2186,-47,-108,1040,-18,-89,-11
2187,401,-129,1065,-9,-79,1
2188,474,-55,1023,8,-4,3
2189,168,39,1018,14,66,12
2190,-256,86,960,1,78,26
2191,-521,39,872,-17,26,10
2192,-332,-70,942,-19,-57,-12
2193,159,-123,1072,-14,-95,-8
2194,480,-115,1048,-2,-55,3
2195,410,-10,1031,15,26,3
2196,-1,71,1003,9,79,20
2197,-416,78,910,-9,65,24
2198,-502,-3,877,-20,-5,-1
2199,-161,-101,1002,-19,-80,-12
2200,354,-129,1087,-10,-89,-1
2201,500,-77,1036,6,-25,3
2202,264,27,1024,15,55,9
2203,-190,82,974,1,82,24
2204,-503,53,873,-13,44,16
2205,-391,-40,922,-18,-39,-8
2206,57,-119,1057,-15,-96,-10
2207,447,-124,1067,-3,-68,2
2208,440,-36,1025,12,8,3
2209,82,50,1000,11,74,15
2210,-324,85,939,-5,73,25
2211,-507,23,876,-14,12,5
2212,-254,-85,981,-20,-67,-11
2213,242,-128,1084,-10,-96,-4
2214,478,-96,1027,0,-40,3
2215,346,6,1026,15,38,5
2216,-76,70,989,6,83,21
2217,-445,69,905,-11,56,21
2218,-465,-19,895,-18,-21,-5
2219,-81,-111,1022,-17,-87,-12
2220,387,-125,1077,-8,-83,1
2221,486,-62,1023,9,-9,2
2222,205,35,1030,14,63,12
2223,-241,88,963,-1,79,26
2224,-520,50,865,-13,31,12
2225,-354,-61,938,-22,-53,-10
2226,131,-127,1063,-13,-95,-7
2227,479,-115,1058,-6,-59,4
2228,423,-23,1030,14,22,4
2229,19,58,1004,8,79,19
2230,-400,83,917,-5,68,23
2231,-508,5,874,-20,0,1
2232,-182,-100,996,-18,-78,-12
2233,325,-118,1088,-8,-92,-3
2234,496,-84,1036,2,-29,3
2235,282,18,1020,15,50,8
2236,-166,83,974,2,84,24
2237,-484,56,883,-12,46,17
2238,-414,-42,918,-18,-33,-8
2239,24,-115,1049,-14,-94,-9
2240,427,-121,1068,-7,-73,2
2241,453,-42,1023,11,4,3
2242,111,46,1003,9,71,15
2243,-298,89,950,-1,76,26
2244,-508,26,876,-17,16,8
2245,-287,-72,967,-17,-63,-11
2246,208,-121,1081,-14,-98,-7
2247,481,-113,1029,-5,-44,3
2248,370,0,1030,15,35,6
2249,-42,70,994,7,80,21
2250,-439,73,912,-7,62,22
2251,-481,-13,888,-19,-17,-3
2252,-116,-105,1012,-15,-84,-12
2253,380,-123,1080,-8,-86,-1
2254,496,-68,1027,7,-15,2
2255,226,38,1033,15,61,10
2256,-222,86,966,-1,80,25
2257,-521,45,868,-17,37,15
2258,-373,-58,925,-21,-47,-8
2259,106,-129,1061,-14,-96,-8
2260,472,-124,1070,-3,-63,2
2261,431,-24,1027,15,17,2
2262,36,63,1002,10,78,17
2263,-373,87,925,-4,70,25
2264,-511,14,872,-18,7,3
2265,-206,-88,999,-20,-75,-12
2266,299,-131,1087,-13,-93,-2
2267,490,-96,1030,2,-32,3
2268,304,15,1022,15,45,8
2269,-134,71,975,4,83,24
2270,-469,64,900,-12,49,18
2271,-433,-32,901,-18,-29,-6
2272,-14,-113,1044,-16,-93,-11
2273,409,-124,1066,-8,-76,0
2274,464,-48,1022,9,-1,3
2275,149,45,1012,14,69,14
2276,-272,88,954,-2,79,26
2277,-517,35,872,-17,23,8
2278,-316,-74,950,-20,-59,-12
2279,175,-131,1072,-15,-96,-6
2280,481,-109,1040,-1,-51,2
2281,403,-9,1034,13,29,5
2282,-18,67,1000,9,80,20
2283,-426,82,914,-8,63,23
2284,-498,-6,881,-19,-10,-2
2285,-147,-100,1003,-17,-83,-12
2286,362,-127,1088,-9,-89,-1
2287,500,-75,1031,6,-21,2
2288,256,26,1031,14,58,9
2289,-209,82,969,1,82,24
2290,-511,56,870,-15,41,15
2291,-391,-51,924,-19,-42,-10
2292,76,-125,1055,-15,-96,-9
2293,453,-116,1073,-5,-66,1
2294,442,-34,1026,13,10,3
2295,65,56,999,10,76,16
2296,-345,89,936,-5,72,25
2297,-504,13,872,-18,9,4
2298,-243,-89,990,-17,-70,-11
2299,260,-124,1083,-12,-97,-4
2300,481,-99,1030,1,-37,3
2301,330,5,1024,17,41,6
2302,-92,74,981,5,84,22
2303,-454,72,910,-10,54,20
2304,-450,-24,895,-20,-24,-4
2305,-64,-103,1033,-16,-88,-11
2306,398,-129,1069,-11,-82,0
2307,478,-62,1024,9,-7,3
2308,183,35,1020,11,64,12
2309,-248,87,957,2,79,26
2310,-525,43,871,-17,29,10
2311,-345,-64,937,-17,-56,-12
2312,142,-121,1069,-14,-95,-7
2313,485,-116,1053,-3,-57,4
2314,416,-14,1032,15,24,4
2315,9,68,1005,7,79,19
2316,-408,84,918,-7,67,23
2317,-506,0,873,-21,-4,1
2318,-172,-101,999,-18,-79,-13
2319,340,-131,1091,-9,-90,-3
2320,499,-83,1034,4,-26,2
2321,272,26,1023,16,53,7
2322,-177,80,971,1,83,25
2323,-498,59,880,-12,44,18
2324,-405,-36,920,-17,-37,-8
2325,41,-119,1054,-16,-95,-11
2326,436,-125,1066,-5,-70,1
2327,446,-39,1023,14,6,2
2328,96,47,997,9,74,15
2329,-312,84,948,0,74,25
2330,-509,29,875,-15,15,6
2331,-271,-78,972,-19,-66,-12
2332,224,-125,1085,-12,-97,-5
2333,478,-103,1026,-2,-43,3
2334,364,3,1030,15,36,6
2335,-56,70,991,4,82,22
2336,-442,70,907,-7,60,21
2337,-478,-17,890,-21,-18,-4
2338,-100,-109,1020,-16,-86,-12
2339,380,-128,1074,-7,-85,0
2340,492,-64,1028,10,-13,2
2341,220,35,1031,12,62,10
2342,-231,85,964,0,79,25
2343,-525,49,869,-14,35,11
2344,-365,-57,930,-21,-50,-11
2345,118,-128,1061,-13,-96,-8
2346,477,-114,1065,-3,-61,2
2347,428,-24,1029,13,20,4
2348,27,61,1005,9,79,19
2349,-385,84,916,-5,70,25
2350,-508,8,873,-19,3,2
2351,-198,-98,997,-18,-79,-13
2352,313,-124,1088,-10,-92,-2
2353,493,-88,1032,2,-30,3
2354,298,11,1022,14,47,8
2355,-145,80,972,3,85,23
2356,-479,65,892,-11,48,18
2357,-424,-35,911,-18,-31,-6
2358,-2,-115,1042,-14,-93,-10
2359,417,-123,1070,-5,-75,1
2360,458,-50,1023,11,1,2
2361,135,43,1008,12,71,14
2362,-280,86,953,-1,77,25
2363,-514,35,874,-15,19,9
2364,-308,-78,957,-18,-59,-12
2365,189,-120,1079,-13,-96,-6
2366,480,-109,1035,-3,-49,3
2367,390,-10,1030,9,31,4
2368,-26,75,1001,6,77,19
2369,-431,77,911,-11,64,22
2370,-493,-10,881,-17,-11,0
2371,-138,-104,1009,-20,-84,-13
2372,370,-129,1083,-10,-87,-2
2373,496,-75,1028,7,-18,2
2374,242,36,1032,12,58,9
2375,-210,83,965,2,81,25
2376,-519,53,868,-17,40,15
2377,-381,-50,926,-15,-44,-11
2378,91,-125,1056,-16,-95,-10
2379,463,-118,1072,0,-65,3
2380,437,-29,1024,11,13,3
2381,51,61,1003,14,79,16
2382,-356,84,929,-8,71,24
2383,-506,12,874,-15,8,4
2384,-228,-90,991,-20,-71,-12
2385,280,-124,1086,-9,-96,-3
2386,481,-96,1030,0,-35,4
2387,321,10,1019,15,44,5
2388,-108,71,978,3,83,23
2389,-458,70,906,-10,52,20
2390,-447,-22,901,-20,-27,-6
2391,-43,-112,1037,-18,-90,-11
2392,400,-132,1067,-7,-79,1
2393,472,-52,1026,9,-5,3
2394,172,36,1018,13,65,13
2395,-260,85,957,-1,80,26
2396,-519,42,868,-14,25,11
2397,-332,-67,946,-19,-58,-11
2398,158,-122,1072,-14,-96,-7
2399,481,-112,1047,-5,-56,2
2400,409,-9,1032,16,27,4
2401,-4,64,1004,5,79,19
2402,-415,75,912,-5,66,22
2403,-505,2,877,-20,-6,-1
2404,-162,-104,1002,-17,-81,-12
2405,352,-129,1085,-8,-91,-3
2406,499,-76,1034,6,-24,1
2407,263,29,1029,14,55,9
2408,-192,80,969,1,82,24
2409,-504,61,877,-12,43,17
2410,-396,-48,917,-20,-40,-9
2411,59,-121,1056,-13,-94,-9
2412,442,-117,1069,-4,-68,3
2413,445,-41,1021,13,6,2
2414,79,52,1003,9,75,16
2415,-325,83,936,-5,74,25
2416,-503,23,874,-16,11,5
2417,-259,-83,984,-18,-66,-13
2418,242,-127,1079,-12,-97,-4
2419,479,-100,1031,-2,-40,4
2420,350,0,1027,14,39,6
2421,-76,74,984,7,82,22
2422,-446,75,913,-9,57,21
2423,-466,-27,889,-20,-20,-4
2424,-83,-108,1025,-15,-87,-12
2425,388,-126,1075,-9,-83,0
2426,491,-63,1023,10,-10,3
2427,204,38,1030,13,62,11
2428,-238,88,961,2,79,26
2429,-523,48,871,-18,33,13
2430,-355,-63,934,-19,-53,-12
2431,131,-125,1063,-14,-96,-7
2432,480,-116,1063,-5,-59,4
2433,421,-26,1027,13,20,3
2434,21,66,1004,9,79,18
2435,-398,82,919,-6,69,25
2436,-507,1,872,-19,0,0
2437,-185,-95,1000,-15,-78,-13
2438,329,-124,1088,-12,-92,-2
2439,494,-88,1031,3,-28,2
2440,280,21,1023,15,51,7
2441,-162,79,977,2,84,25
2442,-487,55,883,-14,45,18
2443,-413,-41,910,-17,-34,-8
2444,21,-114,1052,-16,-96,-10
2445,428,-128,1067,-4,-72,2
2446,452,-40,1025,12,4,2
2447,114,49,1004,12,70,14
2448,-296,85,951,-3,77,26
2449,-511,29,873,-16,17,8
2450,-287,-79,967,-18,-64,-11
2451,206,-127,1080,-14,-97,-6
2452,480,-107,1029,-1,-48,4
2453,373,-3,1031,12,34,5
2454,-43,69,994,8,81,20
2455,-436,74,911,-9,61,22
2456,-485,-9,888,-17,-16,-3
2457,-117,-103,1012,-18,-84,-13
2458,378,-131,1082,-8,-85,0
2459,495,-67,1026,8,-15,3
2460,230,34,1031,15,62,10
2461,-222,82,969,-1,79,25
2462,-522,53,867,-13,39,14
2463,-374,-57,927,-21,-48,-11
2464,105,-127,1061,-12,-97,-7
2465,470,-117,1067,-2,-63,3
2466,432,-25,1027,15,16,3
2467,38,60,1005,10,78,18
2468,-373,86,924,-5,71,24
2469,-505,12,868,-17,5,2
2470,-211,-96,1002,-19,-76,-12
2471,296,-123,1083,-8,-92,-3
2472,487,-90,1030,2,-33,3
2473,310,8,1020,15,45,8
2474,-131,78,975,3,85,24
2475,-466,68,900,-10,49,19
2476,-432,-32,907,-18,-30,-5
2477,-19,-112,1042,-16,-91,-10
2478,409,-123,1069,-7,-77,1
2479,467,-50,1023,10,-2,3
2480,152,38,1013,12,68,13
2481,-273,87,955,-2,77,25
2482,-517,35,870,-17,23,9
2483,-321,-75,951,-19,-59,-11
2484,172,-124,1071,-13,-98,-7
2485,484,-112,1042,-2,-52,3
2486,400,-12,1031,14,30,4
2487,-13,73,1002,8,79,19
2488,-425,80,912,-8,66,25
2489,-499,-7,880,-20,-9,-1
2490,-149,-102,1004,-18,-83,-13
2491,363,-126,1085,-10,-86,0
2492,500,-77,1035,6,-22,3
2493,257,25,1026,14,57,10
2494,-202,86,973,1,82,25
2495,-512,50,868,-17,39,16
2496,-387,-48,925,-18,-42,-9
2497,71,-115,1058,-15,-97,-10
2498,459,-122,1070,-6,-66,3
2499,437,-31,1026,12,11,3
2500,66,54,998,10,76,15
2501,-339,85,940,-5,71,25
2502,-506,18,872,-18,10,4
2503,-240,-85,985,-18,-69,-13
2504,258,-124,1087,-11,-96,-4
2505,481,-102,1030,1,-38,3
2506,331,13,1020,15,40,5
2507,-91,73,982,5,83,22
2508,-452,67,909,-11,55,20
2509,-455,-20,897,-18,-24,-6
2510,-60,-109,1030,-17,-88,-11
2511,394,-129,1070,-8,-80,1
2512,480,-58,1024,10,-6,3
2513,184,39,1028,11,65,11
2514,-248,81,960,0,80,26
2515,-522,45,869,-16,28,12
2516,-344,-65,941,-19,-54,-11
2517,147,-128,1064,-13,-95,-7
2518,479,-113,1054,-2,-58,2
2519,415,-14,1029,16,25,4
2520,8,66,1007,7,78,19
2521,-411,79,912,-5,66,25
2522,-506,4,876,-19,-3,1
2523,-174,-102,999,-18,-81,-12
2524,341,-128,1087,-11,-92,-1
2525,503,-83,1035,5,-25,3
2526,273,22,1022,14,53,8
2527,-178,78,974,3,83,24
2528,-497,61,878,-11,45,17
2529,-406,-41,919,-20,-38,-8
2530,39,-120,1051,-15,-95,-10
2531,435,-118,1068,-7,-70,2
2532,452,-43,1025,11,5,2
2533,98,44,1001,11,74,14
2534,-313,89,946,-2,76,26
2535,-509,28,871,-15,14,7
2536,-276,-83,974,-20,-65,-12
2537,224,-122,1082,-11,-96,-6
2538,480,-102,1031,-2,-44,2
2539,367,-1,1030,15,35,5
2540,-53,75,989,7,81,22
2541,-444,74,910,-9,59,21
2542,-480,-16,889,-19,-18,-5
2543,-106,-109,1015,-16,-85,-12
2544,382,-127,1079,-8,-84,0
2545,494,-71,1024,6,-13,3
2546,224,31,1032,16,61,11
2547,-229,91,966,1,80,26
2548,-524,48,867,-15,35,13
2549,-366,-60,928,-21,-50,-9
2550,114,-123,1062,-16,-95,-8
2551,477,-117,1065,-4,-61,3
2552,428,-27,1027,15,17,3
2553,31,65,1003,11,80,18
2554,-379,85,922,-7,69,25
2555,-507,5,872,-18,4,3
2556,-206,-88,1000,-17,-76,-12
2557,309,-124,1084,-12,-94,-4
2558,491,-96,1033,3,-32,4
2559,295,21,1021,16,47,7
2560,-137,75,975,4,84,24
2561,-477,67,898,-11,49,19
2562,-424,-32,903,-18,-30,-7
2563,-6,-111,1051,-15,-92,-11
2564,417,-126,1065,-8,-75,1
2565,462,-48,1022,8,1,2
2566,136,45,1010,11,68,14
2567,-275,85,957,-3,77,26
2568,-516,32,872,-17,21,8
2569,-308,-75,954,-19,-61,-12
2570,185,-128,1079,-14,-96,-6
2571,480,-111,1033,-1,-49,3
2572,391,-3,1035,16,31,4
2573,-21,67,1003,6,80,20
2574,-432,77,907,-6,65,23
2575,-496,-5,884,-20,-13,-1
2576,-136,-107,1005,-16,-82,-12
2577,368,-131,1085,-11,-87,-1
2578,499,-74,1030,8,-20,2
2579,248,27,1031,15,59,10
2580,-211,87,969,3,80,25
2581,-516,56,866,-15,40,14
2582,-382,-49,926,-21,-44,-9
2583,85,-127,1059,-15,-97,-9
2584,461,-120,1066,-4,-66,2
2585,436,-29,1026,14,13,3
2586,59,54,998,10,77,16
2587,-351,89,932,-4,72,24
2588,-505,18,874,-17,8,4
2589,-232,-91,992,-21,-72,-11
2590,266,-129,1084,-11,-96,-4
2591,485,-99,1031,1,-36,2
2592,328,13,1021,15,41,6
2593,-103,74,979,6,85,22
2594,-458,71,911,-10,53,20
2595,-452,-24,896,-18,-25,-5
2596,-52,-114,1032,-18,-89,-12
2597,397,-124,1073,-7,-81,1
2598,481,-60,1019,7,-6,2
2599,179,39,1027,13,65,12
2600,-254,87,957,1,78,24
2601,-519,40,868,-15,28,11
2602,-344,-67,943,-16,-56,-11
2603,151,-125,1067,-14,-97,-7
2604,484,-111,1056,-3,-57,3
2605,415,-18,1029,13,25,3
2606,5,63,1004,10,80,19
2607,-410,83,915,-8,67,24
2608,-507,-4,871,-22,-3,1
2609,-174,-99,1003,-15,-80,-13
2610,344,-122,1086,-10,-90,-2
2611,502,-88,1035,4,-26,2
2612,274,25,1023,14,54,8
2613,-180,79,972,1,84,25
2614,-500,54,880,-11,44,18
2615,-404,-42,919,-18,-38,-8
2616,39,-117,1051,-15,-96,-9
2617,440,-121,1073,-5,-70,3
2618,450,-42,1021,11,5,3
2619,95,52,999,12,74,15
2620,-312,90,946,-6,75,25
2621,-510,22,873,-16,13,6
2622,-272,-75,975,-18,-66,-13
2623,226,-130,1081,-11,-99,-5
2624,480,-108,1032,0,-44,2
2625,358,1,1026,17,38,6
2626,-56,73,990,6,81,22
2627,-442,70,913,-9,60,23
2628,-478,-12,889,-20,-19,-4
2629,-100,-106,1015,-18,-86,-13
2630,384,-129,1079,-8,-84,0
2631,491,-64,1028,9,-13,3
2632,221,33,1032,12,62,10
2633,-230,82,965,0,80,25
2634,-523,47,866,-16,34,12
2635,-364,-62,928,-19,-52,-11
2636,116,-125,1064,-14,-96,-9
2637,479,-117,1066,-2,-62,3
2638,426,-20,1029,13,19,4
2639,30,62,1008,9,79,18
2640,-385,81,918,-6,69,25
2641,-507,8,870,-18,3,2
2642,-199,-98,1002,-19,-78,-12
2643,308,-129,1085,-11,-94,-3
2644,492,-90,1030,4,-30,3
2645,296,18,1025,14,48,7
2646,-144,79,973,4,84,24
2647,-475,66,889,-11,48,18
2648,-420,-29,915,-17,-32,-6
2649,0,-118,1040,-16,-93,-10
2650,417,-123,1070,-5,-73,1
2651,457,-50,1020,9,1,3
2652,134,39,1012,10,69,14
2653,-283,89,954,0,80,26
2654,-511,30,871,-16,20,8
2655,-308,-75,960,-19,-61,-11
2656,189,-123,1075,-14,-96,-6
2657,478,-108,1038,-1,-50,3
2658,388,-6,1032,16,32,5
2659,-24,69,999,7,80,21
2660,-434,76,912,-8,64,22
2661,-492,-11,882,-20,-13,-1
2662,-137,-108,1003,-17,-84,-12
2663,368,-124,1085,-7,-88,0
2664,499,-76,1031,5,-19,2
2665,243,29,1031,15,58,9
2666,-211,88,967,0,81,24
2667,-513,52,870,-13,41,15
2668,-380,-53,925,-18,-46,-9
2669,90,-123,1058,-14,-95,-10
2670,460,-117,1073,-4,-65,3
2671,439,-35,1020,13,12,3
2672,52,61,1004,10,77,17
2673,-356,85,927,-6,71,24
2674,-504,9,875,-17,8,4
2675,-229,-83,993,-18,-72,-13
2676,277,-128,1079,-11,-96,-4
2677,484,-97,1034,2,-35,4
2678,319,13,1019,16,43,7
2679,-111,73,980,5,84,23
2680,-458,67,907,-11,52,20
2681,-449,-25,898,-17,-26,-4
2682,-42,-111,1037,-17,-89,-12
2683,407,-129,1069,-8,-81,1
2684,474,-55,1020,7,-4,3
2685,173,42,1022,11,66,11
2686,-259,85,960,0,79,27
2687,-523,40,871,-15,27,10
2688,-336,-66,944,-18,-58,-12
2689,161,-126,1068,-15,-97,-6
2690,484,-114,1049,-1,-53,2
2691,408,-14,1031,13,27,4
2692,2,69,1006,8,78,20
2693,-417,78,912,-7,67,22
2694,-504,-1,876,-20,-6,-1
2695,-162,-97,1003,-16,-81,-13
2696,353,-131,1086,-11,-87,-2
2697,499,-76,1035,7,-24,3
2698,263,27,1024,14,55,9
2699,-187,76,974,1,82,25
2700,-505,62,873,-12,43,16
2701,-393,-48,920,-19,-39,-10
2702,55,-120,1056,-14,-95,-9
2703,443,-121,1065,-6,-69,2
2704,444,-34,1026,16,6,2
2705,82,49,999,10,74,15
2706,-324,90,941,-5,74,25
2707,-507,20,875,-11,13,6
2708,-255,-84,982,-24,-67,-13
2709,239,-125,1085,-5,-96,-5
2710,478,-102,1028,-5,-40,2
2711,346,9,1024,19,38,5
2712,-77,71,985,2,82,21
2713,-446,72,912,-6,56,19
2714,-463,-20,896,-20,-21,-4
2715,-77,-117,1022,-17,-86,-12
2716,385,-123,1076,-6,-82,0
2717,486,-62,1019,8,-8,3
2718,200,37,1030,13,63,11
2719,-245,94,963,1,79,25
2720,-519,43,868,-17,31,12
2721,-355,-67,935,-20,-53,-11
2722,138,-127,1066,-14,-96,-8
2723,479,-117,1054,-3,-58,2
2724,420,-18,1032,16,23,4
2725,16,66,1006,8,80,18
2726,-406,89,914,-6,68,23
2727,-506,0,872,-21,-3,2
2728,-181,-97,1004,-16,-79,-12
2729,331,-126,1087,-10,-91,-3
2730,499,-89,1033,3,-28,2
2731,282,22,1026,15,50,9
2732,-167,78,970,1,83,23
2733,-491,61,882,-11,45,15
2734,-411,-37,917,-21,-35,-8
2735,26,-115,1051,-14,-95,-9
2736,434,-122,1071,-6,-72,2
2737,448,-46,1020,11,5,3
2738,107,50,1003,11,72,14
2739,-300,87,946,-5,76,26
2740,-510,23,872,-16,16,7
2741,-282,-75,972,-18,-62,-13
2742,215,-129,1076,-12,-97,-5
2743,478,-107,1034,0,-43,4
2744,369,1,1028,18,35,5
2745,-47,69,987,6,81,22
2746,-440,75,916,-10,60,23
2747,-477,-15,885,-19,-17,-3
2748,-110,-99,1015,-17,-85,-13
2749,379,-131,1077,-9,-84,0
2750,496,-66,1029,8,-14,3
2751,221,34,1028,13,62,11
2752,-227,80,966,-1,80,24
2753,-524,47,866,-13,36,13
2754,-367,-59,926,-19,-50,-10
2755,114,-123,1063,-13,-95,-9
2756,476,-115,1064,-3,-62,3
2757,429,-19,1027,14,17,4
2758,32,65,1006,9,79,18
2759,-386,85,918,-8,69,25
2760,-505,6,871,-19,3,2
2761,-199,-99,1002,-20,-76,-12
2762,306,-132,1082,-10,-93,-4
2763,492,-91,1033,4,-31,3
2764,295,20,1021,13,48,9
2765,-143,75,972,3,83,24
2766,-475,67,893,-11,49,18
2767,-422,-35,910,-17,-31,-8
2768,1,-112,1048,-17,-93,-11
2769,415,-119,1065,-7,-75,1
2770,461,-47,1021,11,-1,2
2771,132,41,1009,11,70,15
2772,-283,86,954,-1,78,26
2773,-510,32,873,-19,20,10
2774,-306,-76,962,-19,-60,-12
2775,193,-127,1074,-12,-95,-6
2776,481,-105,1035,-1,-48,1
2777,388,-6,1031,16,30,4
2778,-26,73,998,9,80,21
2779,-433,83,914,-7,64,23
2780,-488,-10,881,-21,-14,-2
2781,-135,-105,1008,-16,-84,-10
2782,368,-130,1083,-11,-87,-1
2783,499,-74,1030,7,-17,3
2784,238,27,1031,14,59,10
2785,-217,84,967,3,80,25
2786,-519,52,868,-13,40,15
2787,-377,-53,927,-19,-47,-9
2788,97,-122,1058,-13,-95,-9
2789,466,-114,1072,-4,-64,3
2790,435,-30,1027,13,13,4
2791,45,58,1001,9,78,18
2792,-364,87,930,-6,70,24
2793,-506,10,873,-17,7,4
2794,-217,-89,989,-18,-72,-12
2795,288,-123,1090,-11,-95,-3
2796,486,-99,1031,1,-33,4
2797,310,14,1019,15,44,6
2798,-121,77,979,6,84,24
2799,-464,63,901,-12,50,20
2800,-441,-27,906,-18,-27,-5
2801,-26,-112,1041,-18,-91,-11
2802,410,-127,1071,-8,-77,2
2803,466,-51,1019,9,-2,2
2804,158,41,1014,12,67,13
2805,-268,87,956,-1,79,26
2806,-516,33,869,-18,23,9
2807,-324,-70,952,-18,-58,-11
2808,172,-127,1070,-14,-97,-6
2809,483,-111,1043,0,-52,3
2810,398,-6,1030,17,29,4
2811,-9,72,1004,8,79,20
2812,-429,82,913,-7,65,23
2813,-499,-4,879,-20,-10,-2
2814,-145,-102,1005,-16,-83,-13
2815,362,-133,1082,-12,-88,-1
2816,501,-78,1032,6,-21,2
2817,250,30,1029,15,58,9
2818,-203,77,964,0,82,25
2819,-514,58,869,-13,41,15
2820,-385,-47,925,-19,-43,-10
2821,81,-123,1058,-13,-96,-10
2822,459,-113,1076,-4,-66,3
2823,441,-33,1020,12,11,3
2824,60,54,1002,9,77,17
2825,-351,84,931,-4,72,24
2826,-502,11,871,-16,10,4
2827,-235,-90,992,-20,-71,-12
2828,275,-128,1085,-9,-96,-3
2829,480,-90,1031,1,-35,3
2830,325,11,1020,15,42,6
2831,-105,72,979,4,84,23
2832,-458,72,904,-11,53,20
2833,-446,-28,900,-19,-25,-5
2834,-43,-116,1036,-16,-89,-11
2835,400,-123,1073,-7,-79,0
2836,472,-58,1022,8,-4,2
2837,168,41,1021,12,66,12
2838,-264,90,956,-1,78,24
2839,-516,39,871,-15,25,9
2840,-329,-71,946,-19,-57,-11
2841,160,-127,1070,-15,-96,-7
2842,482,-113,1046,-3,-54,2
2843,406,-13,1033,14,28,4
2844,-5,69,1003,11,79,19
2845,-421,78,911,-8,66,23
2846,-502,-7,877,-19,-8,-1
2847,-157,-99,1006,-18,-81,-12
2848,356,-127,1082,-9,-88,-2
2849,503,-74,1035,7,-22,3
2850,257,26,1028,14,57,8
2851,-195,82,970,2,81,23
2852,-510,57,874,-15,42,15
2853,-389,-51,915,-19,-41,-10
2854,70,-118,1057,-14,-96,-9
2855,454,-120,1074,-6,-67,2
2856,439,-36,1022,10,10,4
2857,65,60,1003,11,75,16
2858,-339,83,931,-4,73,26
2859,-505,11,875,-18,9,5
2860,-238,-85,987,-16,-69,-14
2861,265,-127,1082,-10,-95,-5
2862,481,-95,1029,2,-37,2
2863,328,13,1021,14,42,6
2864,-100,72,980,3,82,22
2865,-456,67,906,-10,52,21
2866,-447,-25,899,-19,-26,-5
2867,-45,-107,1033,-15,-90,-10
2868,402,-129,1073,-9,-79,0
2869,472,-55,1021,9,-4,2
2870,175,40,1019,12,65,12
2871,-258,85,959,-2,79,26
2872,-519,37,867,-16,27,10
2873,-334,-66,946,-19,-57,-10
2874,161,-125,1073,-15,-95,-6
2875,481,-115,1042,-1,-54,3
2876,405,-4,1034,15,27,4
2877,-4,66,1006,7,80,21
2878,-416,76,910,-9,65,23
2879,-499,-3,880,-19,-7,0
2880,-155,-104,1001,-19,-80,-11
2881,353,-126,1089,-9,-89,-2
2882,497,-79,1029,6,-23,2
2883,258,27,1031,14,57,10
2884,-198,83,968,2,80,25
2885,-508,54,872,-13,42,16
2886,-388,-48,921,-19,-40,-8
2887,69,-125,1058,-15,-97,-9
2888,451,-118,1070,-3,-65,3
2889,441,-33,1025,13,10,3
2890,64,50,997,9,75,15
2891,-340,87,936,-3,71,25
2892,-505,17,872,-17,9,4
2893,-241,-91,986,-18,-69,-11
2894,262,-123,1084,-11,-94,-3
2895,480,-97,1029,0,-37,3
2896,332,5,1019,14,41,7
2897,-94,76,983,4,82,21
2898,-456,68,905,-11,52,19
2899,-453,-24,901,-17,-26,-5
2900,-53,-108,1035,-15,-89,-10
2901,397,-127,1070,-7,-80,0
2902,476,-58,1024,9,-4,2
2903,180,37,1020,14,65,12
2904,-258,89,958,0,80,26
2905,-517,42,874,-13,27,11
2906,-338,-68,945,-19,-56,-11
2907,155,-126,1069,-13,-97,-6
2908,483,-112,1048,-3,-56,3
2909,412,-14,1031,15,26,4
2910,0,68,1004,8,80,18
2911,-418,84,913,-7,67,22
2912,-500,-9,876,-19,-6,0
2913,-162,-100,1001,-17,-81,-12
2914,352,-126,1086,-9,-88,-1
2915,503,-79,1035,5,-24,3
2916,261,28,1024,16,55,9
2917,-189,86,970,2,81,25
2918,-509,56,872,-14,42,16
2919,-392,-51,919,-19,-40,-9
2920,61,-117,1061,-13,-96,-9
2921,452,-126,1069,-5,-69,1
2922,444,-35,1023,14,9,2
2923,73,56,1001,10,75,15
2924,-335,84,936,-4,72,25
2925,-506,20,874,-16,12,5
2926,-245,-86,986,-16,-69,-12
2927,258,-123,1086,-11,-96,-5
2928,480,-101,1026,0,-37,2
2929,335,9,1026,15,40,6
2930,-91,75,978,4,83,22
2931,-449,63,906,-10,55,20
2932,-455,-23,901,-18,-24,-5
2933,-56,-108,1032,-16,-88,-11
2934,394,-128,1071,-9,-81,0
2935,476,-55,1025,11,-7,1
2936,182,42,1021,12,64,12
2937,-249,84,958,0,79,25
2938,-518,39,871,-15,28,10
2939,-335,-65,939,-19,-55,-10
2940,150,-123,1070,-15,-96,-7
2941,478,-112,1048,-3,-55,2
2942,409,-9,1032,17,26,3
2943,0,64,1005,6,79,19
2944,-413,78,913,-5,67,23
2945,-502,-1,874,-19,-6,0
2946,-158,-108,1001,-16,-82,-12
2947,346,-125,1085,-7,-88,-1
2948,498,-78,1031,4,-24,3
2949,261,24,1028,14,55,10
2950,-192,83,972,2,83,24
2951,-502,56,870,-12,41,15
2952,-391,-42,926,-20,-41,-9
2953,62,-122,1052,-15,-95,-9
2954,447,-121,1069,-4,-68,2
2955,442,-32,1027,12,9,3
2956,75,48,999,9,76,17
2957,-337,85,936,-3,72,26
2958,-499,18,877,-17,11,6
2959,-247,-87,986,-18,-67,-12
2960,255,-124,1083,-8,-97,-5
2961,478,-97,1029,0,-38,2
2962,336,6,1022,15,40,6
2963,-90,78,982,5,82,22
2964,-448,73,911,-10,54,21
2965,-455,-26,900,-19,-24,-4
2966,-62,-113,1029,-18,-88,-11
2967,395,-121,1073,-8,-81,0
2968,477,-64,1022,8,-6,3
2969,183,38,1022,15,63,12
2970,-253,89,959,0,79,25
2971,-518,37,869,-14,28,10
2972,-338,-65,943,-19,-56,-11
2973,150,-126,1068,-11,-96,-8
2974,478,-113,1050,-5,-55,2
2975,409,-12,1028,17,25,4
2976,3,68,1005,6,79,19
2977,-414,77,913,-5,66,24
2978,-501,-7,877,-20,-6,0
2979,-165,-102,999,-16,-81,-12
2980,349,-124,1090,-9,-90,-1
2981,498,-82,1031,6,-25,2
2982,261,31,1029,18,55,8
2983,-187,83,971,0,83,24
2984,-503,54,873,-14,42,16
2985,-395,-44,923,-20,-39,-10
2986,63,-120,1057,-15,-95,-9
2987,446,-119,1070,-7,-67,2
2988,442,-37,1025,13,9,2
2989,76,54,998,11,75,15
2990,-332,82,941,-5,72,25
2991,-505,16,872,-18,11,4
2992,-246,-81,984,-18,-67,-12
2993,252,-128,1085,-12,-96,-3
2994,482,-97,1029,1,-37,3
2995,333,12,1019,15,39,5
2996,-85,70,983,3,82,24
2997,-450,71,909,-9,56,20
2998,-459,-27,893,-20,-23,-5
2999,-59,-112,1034,-16,-89,-10
3000,392,-127,1069,-9,-81,0
3001,480,-58,1024,12,-6,1
3002,184,43,1024,11,63,12
3003,-247,85,958,2,79,27
3004,-523,44,873,-16,28,11
3005,-341,-63,941,-18,-57,-11
3006,151,-127,1068,-15,-95,-7
3007,480,-115,1051,-3,-57,3
3008,413,-14,1030,16,26,4
3009,4,61,1003,5,79,19
3010,-414,77,914,-5,66,23
3011,-504,3,876,-18,-6,-2
3012,-165,-104,1000,-16,-81,-13
3013,349,-121,1087,-8,-90,-2
3014,500,-78,1030,5,-25,1
3015,266,20,1027,15,55,8
3016,-187,83,971,1,81,24
3017,-502,55,872,-12,44,16
3018,-395,-48,924,-19,-39,-9
3019,56,-118,1053,-10,-96,-11
3020,446,-115,1072,-5,-68,2
3021,444,-36,1023,14,8,3
3022,76,52,999,8,75,16
3023,-331,87,938,-5,74,26
3024,-502,16,874,-18,10,5
3025,-249,-87,983,-17,-67,-12
3026,254,-123,1086,-11,-94,-4
3027,478,-99,1026,-1,-39,3
3028,336,8,1024,15,40,6
3029,-90,72,981,3,83,21
3030,-449,71,910,-8,55,21
3031,-455,-29,896,-20,-22,-4
3032,-61,-109,1033,-15,-87,-10
3033,393,-119,1072,-10,-81,0
3034,476,-59,1019,8,-5,2
3035,187,40,1028,13,65,12
3036,-251,91,960,0,78,26
3037,-519,34,870,-17,29,10
3038,-339,-67,941,-19,-57,-11
3039,150,-126,1064,-15,-97,-6
3040,482,-117,1056,-2,-55,3
3041,411,-10,1029,19,26,5
3042,1,66,1003,7,78,19
3043,-414,76,913,-8,66,23
3044,-502,1,878,-16,-6,0
3045,-163,-100,996,-22,-80,-13
3046,351,-125,1094,-4,-89,0
3047,499,-81,1030,-1,-25,2
3048,264,27,1028,19,55,8
3049,-191,82,972,-3,81,25
3050,-503,51,872,-11,42,16
3051,-398,-45,922,-21,-39,-9
3052,62,-118,1057,-10,-96,-11
3053,448,-117,1071,-4,-67,1
3054,442,-28,1024,13,9,3
3055,75,53,995,9,76,16
3056,-331,86,944,-4,73,26
3057,-507,19,871,-16,11,5
3058,-245,-84,983,-20,-68,-12
3059,253,-131,1083,-12,-96,-3
3060,480,-101,1028,1,-38,2
3061,337,13,1025,19,40,6
3062,-89,71,979,4,83,22
3063,-451,77,913,-7,55,21
3064,-454,-20,895,-20,-22,-5
3065,-62,-114,1034,-17,-88,-10
3066,394,-125,1071,-8,-81,0
3067,480,-61,1018,8,-6,3
3068,184,37,1027,12,65,11
3069,-248,86,958,2,78,26
3070,-522,43,867,-15,29,10
3071,-343,-63,943,-17,-56,-10
3072,149,-125,1067,-15,-96,-6
3073,478,-107,1054,-1,-56,2
3074,413,-16,1031,13,24,4
3075,4,64,1002,9,79,20
3076,-414,84,914,-8,67,24
3077,-501,-3,875,-22,-5,-1
3078,-168,-102,1003,-17,-80,-11
3079,345,-128,1086,-10,-88,-2
3080,503,-76,1036,7,-25,3
3081,266,22,1026,12,55,9
3082,-187,83,971,3,83,23
3083,-502,60,873,-14,42,16
3084,-395,-46,923,-19,-39,-8
3085,59,-119,1053,-14,-96,-11
3086,448,-117,1073,-4,-67,2
3087,439,-41,1024,11,9,2
3088,78,54,1000,13,75,15
3089,-331,89,937,-4,74,27
3090,-503,13,872,-19,12,7
3091,-250,-83,987,-17,-68,-12
3092,250,-125,1082,-11,-96,-4
3093,480,-97,1031,1,-39,4
3094,339,10,1021,13,39,6
3095,-83,75,983,7,83,22
3096,-452,72,910,-12,55,21
3097,-457,-25,897,-17,-23,-4
3098,-66,-112,1029,-18,-87,-11
3099,394,-125,1071,-5,-81,2
3100,481,-64,1020,8,-6,3
3101,184,41,1027,15,65,11
3102,-248,88,958,0,77,25
3103,-520,38,869,-16,31,12
3104,-344,-64,942,-19,-53,-12
3105,148,-124,1068,-14,-96,-8
3106,478,-116,1050,-5,-55,2
3107,414,-12,1030,15,25,4
3108,6,69,1005,8,79,20
3109,-415,76,914,-9,69,23
3110,-501,0,875,-17,-5,-1
3111,-168,-101,1003,-19,-81,-13
3112,346,-129,1089,-8,-88,-2
3113,496,-79,1031,4,-25,2
3114,265,29,1023,16,53,8
3115,-182,79,970,0,82,25
3116,-502,58,875,-12,42,16
3117,-395,-45,921,-19,-39,-10
3118,57,-124,1054,-16,-95,-10
3119,446,-123,1070,-3,-69,3
3120,444,-32,1023,11,8,3
3121,76,53,997,11,75,15
3122,-328,82,942,-5,72,26
3123,-507,21,877,-13,13,6
3124,-247,-84,981,-19,-68,-13
3125,250,-125,1085,-12,-96,-4
3126,480,-98,1028,0,-37,3
3127,341,9,1022,14,38,6
3128,-90,69,983,5,83,22
3129,-447,67,906,-12,55,21
3130,-456,-20,896,-16,-23,-5
3131,-65,-114,1032,-18,-88,-13
3132,391,-124,1072,-6,-80,0
3133,480,-55,1024,7,-7,4
3134,187,36,1025,13,65,13
3135,-248,88,958,-1,80,26
3136,-517,42,871,-17,28,11
3137,-341,-71,940,-20,-56,-11
3138,145,-123,1069,-13,-94,-7
3139,479,-111,1049,0,-57,2
3140,412,-15,1030,14,27,4
3141,5,66,1006,9,79,19
3142,-411,82,913,-7,65,25
3143,-502,1,877,-18,-5,1
3144,-162,-100,1002,-18,-81,-13
3145,344,-123,1087,-9,-88,-1
3146,498,-79,1034,3,-24,2
3147,265,22,1027,14,55,9
3148,-186,78,965,0,81,25
3149,-500,55,879,-11,42,16
3150,-396,-49,919,-18,-40,-9
3151,57,-118,1053,-14,-94,-9
3152,445,-115,1071,-3,-68,3
3153,443,-36,1023,11,8,4
3154,73,58,999,12,76,15
3155,-327,85,936,-7,72,25
3156,-505,17,877,-16,11,6
3157,-254,-86,985,-20,-67,-13
3158,251,-125,1085,-10,-98,-5
3159,478,-101,1028,-3,-38,5
3160,341,4,1020,17,40,7
3161,-86,76,986,6,81,22
3162,-452,70,909,-9,56,20
3163,-457,-22,893,-18,-23,-5
3164,-68,-102,1031,-16,-88,-11
3165,395,-130,1070,-9,-81,0
3166,479,-60,1023,9,-6,2
3167,185,40,1027,12,63,12
3168,-245,79,957,1,79,26
3169,-521,43,870,-13,28,11
3170,-342,-66,938,-19,-55,-12
3171,147,-123,1072,-12,-95,-7
3172,479,-112,1051,-5,-57,3
3173,414,-11,1029,16,26,5
3174,8,68,1005,7,79,20
3175,-409,76,911,-6,66,23
3176,-506,0,879,-19,-5,-1
3177,-167,-99,1000,-16,-80,-14
3178,347,-131,1084,-11,-90,-1
3179,495,-75,1040,6,-25,2
3180,266,23,1022,15,54,8
3181,-186,80,973,2,82,25
3182,-503,59,873,-10,43,16
3183,-390,-46,920,-22,-39,-8
3184,53,-117,1058,-14,-95,-9
3185,442,-124,1067,-5,-68,0
3186,442,-34,1023,13,8,3
3187,77,50,998,8,73,16
3188,-327,84,939,-2,75,25
3189,-507,24,873,-17,11,5
3190,-250,-86,983,-18,-67,-12
3191,246,-128,1085,-10,-96,-4
3192,478,-98,1029,1,-39,2
3193,342,6,1025,15,39,6
3194,-80,71,981,6,83,23
3195,-448,74,912,-7,55,20
3196,-459,-24,895,-19,-23,-5
3197,-71,-110,1030,-16,-86,-11
3198,389,-128,1072,-9,-81,-1
3199,482,-61,1022,11,-7,4
3200,193,36,1029,10,63,11
3201,-246,87,958,3,79,24
3202,-523,46,871,-17,30,11
3203,-348,-68,936,-19,-55,-11
3204,141,-124,1067,-14,-96,-8
3205,481,-109,1054,-2,-57,2
3206,418,-20,1033,13,24,3
3207,11,65,1005,9,80,19
3208,-410,84,915,-6,68,24
3209,-506,-5,873,-20,-4,1
3210,-175,-101,1004,-15,-79,-13
3211,340,-122,1087,-10,-91,-2
3212,501,-82,1034,7,-26,2
3213,272,27,1026,14,54,8
3214,-180,85,969,-1,81,23
3215,-499,53,879,-15,43,15
3216,-398,-47,918,-19,-38,-8
3217,47,-119,1053,-15,-96,-9
3218,441,-122,1071,-4,-68,2
3219,443,-40,1022,12,7,3
3220,87,52,999,9,73,14
3221,-318,89,942,-3,75,26
3222,-506,24,877,-19,13,7
3223,-259,-78,979,-16,-68,-13
3224,237,-126,1084,-14,-96,-5
3225,478,-104,1030,-1,-40,3
3226,349,2,1024,14,36,6
3227,-72,75,986,6,83,22
3228,-445,69,911,-11,56,20
3229,-470,-19,894,-18,-21,-5
3230,-82,-104,1024,-17,-86,-11
3231,389,-130,1073,-11,-84,0
3232,486,-58,1028,11,-10,3
3233,204,36,1026,10,64,11
3234,-241,84,963,2,80,25
3235,-525,38,866,-18,32,11
3236,-353,-62,935,-17,-54,-11
3237,133,-126,1066,-14,-98,-7
3238,483,-116,1057,-2,-59,2
3239,417,-14,1028,14,23,4
3240,16,65,1005,8,78,18
3241,-405,83,916,-6,69,24
3242,-505,6,871,-19,-2,0
3243,-180,-99,1003,-18,-79,-12
3244,333,-129,1089,-10,-90,-2
3245,499,-86,1032,4,-29,2
3246,279,20,1025,14,51,8
3247,-169,79,971,5,84,24
3248,-493,61,880,-12,45,17
3249,-408,-37,916,-17,-35,-6
3250,34,-117,1050,-17,-95,-9
3251,432,-123,1070,-3,-71,2
3252,451,-40,1020,10,6,1
3253,104,49,1001,11,72,15
3254,-307,87,947,-4,76,27
3255,-508,27,874,-15,16,7
3256,-280,-85,975,-20,-64,-13
3257,222,-128,1080,-13,-95,-4
3258,478,-99,1030,1,-43,3
3259,363,-1,1026,14,36,5
3260,-55,74,989,8,82,21
3261,-443,79,915,-9,60,21
3262,-475,-18,888,-17,-20,-4
3263,-100,-108,1018,-18,-84,-12
3264,379,-127,1077,-8,-83,0
3265,492,-71,1028,7,-15,3
3266,215,34,1030,16,64,11
3267,-233,85,958,-1,80,24
3268,-524,48,870,-13,34,14
3269,-358,-61,932,-20,-50,-10
3270,122,-126,1062,-13,-95,-7
3271,478,-110,1067,-3,-62,2
3272,425,-24,1026,12,21,4
3273,24,64,1003,8,78,17
3274,-389,83,918,-6,68,23
3275,-505,4,878,-19,1,2
3276,-195,-100,995,-17,-79,-13
3277,321,-124,1086,-8,-92,-2
3278,496,-88,1036,2,-29,3
3279,285,19,1019,18,49,7
3280,-157,82,974,2,83,24
3281,-484,59,884,-12,47,19
3282,-415,-36,914,-21,-33,-6
3283,15,-113,1050,-15,-94,-11
3284,428,-127,1071,-7,-73,1
3285,449,-43,1022,11,3,2
3286,116,47,1003,11,71,14
3287,-293,84,948,-3,76,27
3288,-512,28,876,-16,17,8
3289,-288,-77,967,-19,-62,-12
3290,207,-125,1077,-11,-97,-6
3291,477,-106,1031,-3,-46,2
3292,372,1,1028,18,35,5
3293,-46,73,994,4,80,21
3294,-437,72,913,-8,60,21
3295,-481,-15,887,-20,-16,-3
3296,-109,-109,1013,-16,-85,-12
3297,378,-128,1080,-10,-86,1
3298,492,-73,1024,6,-13,3
3299,225,44,1036,17,61,11
3300,-225,88,960,-1,80,26
3301,-524,48,870,-14,35,12
3302,-364,-52,928,-20,-49,-10
3303,113,-129,1060,-14,-96,-9
3304,471,-116,1064,-4,-63,2
3305,428,-19,1028,14,18,3
3306,31,58,1004,6,78,17
3307,-383,83,922,-4,69,25
3308,-507,9,872,-20,4,3
3309,-201,-95,998,-15,-77,-13
3310,308,-123,1085,-8,-92,-5
3311,490,-87,1031,6,-30,1
3312,297,19,1021,13,46,7
3313,-143,77,975,2,83,25
3314,-476,64,893,-12,48,18
3315,-421,-34,912,-18,-32,-7
3316,1,-119,1044,-17,-92,-10
3317,418,-124,1068,-6,-75,1
3318,459,-50,1022,10,0,4
3319,128,44,1008,10,69,14
3320,-288,89,950,0,76,25
3321,-510,34,874,-18,18,8
3322,-300,-76,963,-17,-60,-12
3323,195,-130,1080,-15,-96,-6
3324,480,-104,1035,1,-48,3
3325,382,-5,1029,12,32,5
3326,-35,70,996,9,80,19
3327,-433,81,912,-8,61,22
3328,-485,-17,883,-20,-13,-2
3329,-126,-101,1011,-15,-85,-12
3330,375,-126,1082,-10,-86,0
3331,497,-75,1028,6,-16,2
3332,236,34,1034,14,60,11
3333,-217,84,968,1,79,27
3334,-523,47,863,-16,37,14
3335,-376,-54,928,-19,-48,-11
3336,103,-124,1058,-16,-97,-9
3337,471,-115,1070,-1,-63,3
3338,430,-26,1024,12,15,3
3339,45,60,1001,9,78,17
3340,-374,89,926,-7,70,24
3341,-507,6,871,-19,6,2
3342,-212,-94,995,-18,-74,-12
3343,293,-123,1085,-11,-94,-3
3344,491,-99,1030,2,-33,2
3345,303,15,1022,16,46,6
3346,-132,78,977,6,83,23
3347,-469,63,898,-13,50,20
3348,-430,-28,909,-17,-29,-7
3349,-10,-113,1038,-17,-93,-11
3350,414,-125,1070,-6,-76,0
3351,463,-50,1022,8,0,2
3352,141,44,1015,13,68,13
3353,-278,84,950,-3,78,25
3354,-515,29,870,-16,21,9
3355,-311,-70,959,-18,-60,-12
3356,184,-127,1073,-12,-95,-8
3357,480,-109,1037,-1,-49,3
3358,391,0,1031,15,32,4
3359,-23,65,999,5,80,20
3360,-432,80,917,-6,64,25
3361,-492,-10,879,-20,-13,-2
3362,-134,-104,1007,-18,-82,-12
3363,366,-131,1082,-9,-86,-1
3364,499,-79,1031,6,-19,2
3365,240,33,1030,17,59,10
3366,-208,83,965,0,79,26
3367,-519,54,869,-13,39,15
3368,-382,-54,925,-21,-45,-10
3369,94,-121,1061,-13,-96,-8
3370,460,-115,1071,-7,-64,1
3371,437,-28,1024,14,14,4
3372,50,55,1002,7,77,17
3373,-364,80,928,-5,71,23
3374,-505,10,873,-17,6,3
3375,-223,-93,996,-20,-74,-12
3376,284,-127,1084,-18,-94,-4
3377,484,-92,1033,-1,-34,1
3378,313,15,1020,11,43,5
3379,-118,77,975,7,84,23
3380,-461,70,904,-18,51,19
3381,-438,-31,903,-13,-26,-7
3382,-30,-114,1041,-22,-90,-11
3383,406,-124,1065,-3,-78,2
3384,466,-56,1020,7,-2,3
3385,156,40,1017,15,67,12
3386,-269,89,956,1,78,25
3387,-514,36,872,-17,24,11
3388,-323,-70,950,-18,-58,-11
3389,172,-125,1072,-15,-95,-8
3390,482,-108,1041,0,-52,2
3391,400,-9,1031,14,28,4
3392,-12,70,1003,8,79,20
3393,-427,78,910,-9,65,23
3394,-495,-10,880,-19,-9,-1
3395,-150,-105,1005,-17,-82,-11
3396,364,-126,1085,-8,-89,-1
3397,502,-76,1032,6,-22,3
3398,249,32,1031,15,57,9
3399,-203,87,970,2,81,25
3400,-513,53,871,-16,39,15
3401,-385,-52,923,-18,-42,-8
3402,77,-117,1057,-15,-95,-8
3403,459,-124,1070,-5,-67,2
3404,438,-35,1026,11,12,3
3405,57,58,997,11,77,16
3406,-347,82,932,-8,70,25
3407,-506,16,873,-15,9,5
3408,-235,-83,993,-19,-71,-13
3409,270,-127,1086,-10,-95,-4
3410,482,-96,1029,1,-35,3
3411,327,10,1018,15,42,6
3412,-102,75,984,2,84,24
3413,-457,67,903,-12,54,19
3414,-451,-25,900,-18,-26,-6
3415,-47,-111,1032,-17,-89,-10
3416,403,-126,1073,-6,-80,2
3417,471,-58,1020,9,-5,2
3418,176,40,1022,15,65,12
3419,-254,85,957,-3,78,26
3420,-520,41,873,-14,27,10
3421,-335,-68,942,-20,-56,-11
3422,157,-127,1070,-13,-95,-7
3423,480,-115,1049,-4,-55,2
3424,411,-9,1031,15,26,4
3425,-1,67,1003,9,79,19
3426,-419,79,915,-7,66,24
3427,-503,2,877,-19,-6,0
3428,-158,-107,1001,-20,-82,-12
3429,353,-127,1087,-8,-89,-2
3430,499,-79,1038,5,-25,2
3431,262,20,1024,15,56,9
3432,-192,83,973,2,83,24
3433,-504,56,870,-13,42,15
3434,-393,-44,922,-19,-40,-9
3435,58,-117,1058,-14,-95,-11
3436,447,-123,1064,-6,-69,1
3437,442,-31,1027,11,10,2
3438,79,47,999,10,76,16
3439,-327,83,936,-5,73,24
3440,-509,23,875,-15,12,5
3441,-254,-90,982,-20,-67,-13
3442,246,-124,1085,-9,-98,-4
3443,480,-98,1026,1,-40,3
3444,348,3,1025,16,39,5
3445,-81,75,986,6,82,21
3446,-448,77,912,-10,57,21
3447,-464,-23,893,-17,-22,-4
3448,-79,-109,1026,-17,-87,-12
3449,391,-126,1074,-8,-82,0
3450,486,-70,1021,6,-8,1
3451,197,38,1030,14,63,11
3452,-242,93,960,1,79,25
3453,-522,43,868,-17,30,12
3454,-351,-65,936,-19,-54,-10
3455,134,-122,1065,-13,-96,-7
3456,482,-115,1060,-3,-60,2
3457,418,-20,1028,15,23,4
3458,17,63,1003,11,79,18
3459,-407,82,916,-6,67,24
3460,-505,0,875,-18,0,1
3461,-181,-99,1002,-18,-79,-12
3462,331,-124,1085,-10,-92,-3
3463,500,-85,1035,4,-27,3
3464,275,23,1021,15,51,8
3465,-167,82,975,3,83,23
3466,-489,58,882,-13,46,17
3467,-410,-37,915,-18,-36,-7
3468,30,-119,1053,-16,-94,-12
3469,432,-126,1071,-3,-71,3
3470,447,-45,1019,10,4,3
3471,108,46,1001,11,72,15
3472,-300,90,950,-3,77,25
3473,-512,25,873,-16,15,6
3474,-282,-76,970,-19,-63,-12
3475,218,-124,1082,-13,-97,-5
3476,479,-109,1027,0,-44,2
3477,368,5,1027,18,37,4
3478,-48,68,992,4,82,22
3479,-444,76,913,-10,59,22
3480,-480,-16,886,-18,-17,-4
3481,-112,-107,1016,-18,-86,-12
3482,382,-131,1080,-6,-86,-1
3483,496,-72,1026,8,-14,2
3484,223,39,1035,15,62,10
3485,-226,88,965,0,79,25
3486,-527,50,865,-13,36,13
3487,-369,-57,930,-20,-51,-10
3488,117,-130,1062,-14,-96,-9
3489,470,-117,1066,-4,-61,1
3490,432,-23,1029,15,17,3
3491,33,58,1001,9,80,18
3492,-383,81,922,-6,71,24
3493,-505,8,872,-17,3,2
3494,-204,-93,998,-18,-75,-13
3495,305,-126,1087,-10,-93,-4
3496,491,-88,1031,2,-30,3
3497,299,17,1021,14,47,8
3498,-137,73,974,2,84,22
3499,-476,70,900,-9,50,19
3500,-428,-37,905,-20,-30,-7
3501,-6,-117,1047,-14,-92,-10
3502,414,-126,1067,-6,-76,1
3503,464,-51,1021,11,0,2
3504,144,46,1014,13,69,14
3505,-282,94,951,-3,79,25
3506,-514,36,873,-19,21,8
3507,-314,-75,958,-21,-59,-11
3508,183,-127,1072,-12,-97,-7
3509,484,-112,1037,-4,-51,3
3510,394,-10,1031,16,31,4
3511,-22,66,1000,7,81,19
3512,-431,82,912,-4,64,23
3513,-496,-8,881,-22,-13,-2
3514,-140,-106,1007,-16,-84,-13
3515,366,-123,1086,-8,-88,-3
3516,504,-76,1033,5,-20,3
3517,248,28,1027,17,57,10
3518,-208,91,969,0,82,25
3519,-517,48,869,-13,40,15
3520,-386,-50,923,-19,-45,-8
3521,80,-118,1059,-12,-97,-10
3522,464,-122,1070,-5,-67,3
3523,440,-33,1025,14,12,3
3524,61,56,998,10,77,16
3525,-347,90,939,-4,71,24
3526,-508,13,871,-18,8,4
3527,-233,-85,990,-19,-70,-13
3528,267,-127,1086,-10,-95,-4
3529,482,-101,1030,-1,-37,3
3530,329,12,1020,17,41,6
3531,-99,74,979,2,83,23
3532,-456,67,909,-9,54,19
3533,-453,-27,899,-18,-25,-6
3534,-53,-109,1033,-16,-90,-11
3535,399,-126,1072,-8,-82,0
3536,477,-60,1018,10,-4,1
3537,183,46,1031,14,66,12
3538,-255,88,956,-2,78,26
3539,-522,39,866,-15,29,11
3540,-342,-62,940,-20,-57,-11
3541,150,-132,1067,-15,-97,-8
3542,481,-116,1053,-2,-55,3
3543,412,-12,1030,16,24,4
3544,7,64,1004,8,80,19
3545,-417,80,913,-5,68,23
3546,-506,5,877,-20,-4,0
3547,-172,-98,1002,-19,-81,-14
3548,349,-128,1089,-9,-90,-2
3549,497,-81,1030,4,-26,2
3550,274,17,1026,15,55,8
3551,-183,83,975,3,83,25
3552,-501,62,876,-13,43,17
3553,-403,-43,916,-18,-36,-8
3554,45,-116,1058,-16,-96,-9
3555,437,-125,1065,-5,-70,1
3556,447,-37,1026,11,6,1
3557,94,49,999,11,75,15
3558,-312,87,943,-3,76,26
3559,-510,30,877,-15,16,7
3560,-274,-83,974,-21,-67,-13
3561,225,-129,1078,-13,-97,-5
3562,478,-102,1030,0,-43,2
3563,365,-3,1025,14,35,5
3564,-59,71,990,8,83,21
3565,-444,78,912,-9,58,22
3566,-477,-18,888,-20,-19,-3
3567,-103,-107,1019,-17,-86,-12
3568,384,-124,1079,-8,-85,-1
3569,498,-66,1027,8,-13,3
3570,219,34,1032,12,63,11
3571,-231,88,960,0,79,25
3572,-527,49,866,-14,35,13
3573,-367,-59,932,-20,-51,-10
3574,117,-127,1059,-14,-97,-9
3575,479,-117,1066,-4,-61,3
3576,430,-25,1029,13,18,4
3577,27,62,1002,10,80,18
3578,-383,84,920,-6,71,24
3579,-506,8,874,-18,3,2
3580,-202,-97,995,-15,-77,-12
3581,309,-125,1088,-11,-93,-3
3582,494,-91,1030,4,-32,2
3583,298,15,1022,14,48,7
3584,-142,82,977,6,83,23
3585,-471,64,892,-14,48,19
3586,-428,-33,907,-18,-30,-7
3587,-3,-110,1046,-15,-93,-11
3588,417,-126,1068,-8,-75,2
3589,459,-54,1022,10,1,3
3590,139,46,1014,13,70,13
3591,-280,85,953,-1,77,26
3592,-515,33,871,-16,20,9
3593,-308,-68,958,-17,-61,-12
3594,183,-125,1073,-15,-98,-7
3595,484,-112,1037,-1,-50,2
3596,393,-5,1030,15,32,5
3597,-24,71,1003,7,81,20
3598,-429,76,912,-9,64,23
3599,-496,-6,882,-19,-12,-2
3600,-136,-105,1004,-18,-84,-12
3601,369,-131,1084,-10,-87,0
3602,500,-74,1029,7,-19,3
3603,248,34,1035,16,58,10
3604,-211,81,965,-1,80,25
3605,-519,53,868,-13,41,15
3606,-384,-48,927,-20,-44,-10
3607,84,-121,1055,-13,-96,-9
3608,458,-120,1068,-5,-65,2
3609,440,-28,1026,12,12,3
3610,57,53,996,9,76,17
3611,-351,86,935,-4,73,26
3612,-506,16,874,-16,8,3
3613,-233,-88,991,-17,-71,-12
3614,268,-126,1082,-12,-95,-3
3615,482,-98,1027,2,-36,2
3616,329,11,1022,15,41,6
3617,-99,70,980,5,83,22
3618,-460,77,912,-10,54,21
3619,-453,-24,891,-18,-25,-6
3620,-55,-110,1038,-19,-89,-12
3621,399,-125,1066,-6,-82,-1
3622,478,-60,1022,8,-6,2
3623,180,38,1024,14,65,11
3624,-253,84,956,0,79,25
3625,-525,40,869,-14,28,11
3626,-340,-66,940,-19,-56,-11
3627,150,-124,1069,-13,-95,-7
3628,481,-111,1054,-2,-57,3
3629,417,-14,1031,13,25,4
3630,5,65,1005,9,80,18
3631,-412,87,916,-8,67,23
3632,-503,0,873,-19,-4,0
3633,-175,-104,1000,-19,-80,-13
3634,346,-129,1088,-8,-90,-2
3635,501,-82,1039,4,-27,3
3636,270,19,1021,15,53,7
3637,-180,90,975,4,82,24
3638,-502,60,874,-15,45,17
3639,-401,-42,916,-19,-38,-8
3640,41,-110,1056,-15,-94,-9
3641,443,-128,1068,-7,-71,2
3642,450,-44,1026,9,6,2
3643,92,50,1001,13,75,15
3644,-316,84,941,-3,75,26
3645,-510,24,877,-15,14,7
3646,-271,-81,971,-20,-66,-13
3647,227,-126,1081,-10,-97,-6
3648,480,-105,1031,-3,-43,2
3649,362,1,1025,16,37,5
3650,-62,77,987,6,81,22
3651,-444,73,914,-9,58,21
3652,-472,-19,886,-18,-19,-4
3653,-99,-103,1017,-18,-85,-12
3654,387,-128,1080,-10,-85,0
3655,491,-70,1023,9,-11,3
3656,214,38,1035,15,63,10
3657,-230,81,963,-2,80,27
3658,-527,47,865,-13,35,15
3659,-363,-55,934,-21,-52,-10
3660,119,-127,1057,-12,-96,-9
3661,478,-116,1067,-4,-61,3
3662,427,-19,1026,15,18,3
3663,27,64,1007,8,78,19
3664,-388,77,918,-7,69,24
3665,-509,8,874,-18,2,1
3666,-197,-95,999,-18,-76,-12
3667,316,-129,1089,-10,-93,-3
3668,490,-88,1029,4,-31,3
3669,297,20,1022,16,49,8
3670,-149,77,975,2,83,23
3671,-477,64,889,-9,47,18
3672,-422,-31,915,-20,-31,-6
3673,5,-116,1046,-15,-93,-10
3674,421,-123,1068,-7,-75,1
3675,456,-49,1019,10,2,2
3676,132,42,1009,10,67,14
3677,-288,90,953,-1,78,25
3678,-513,32,871,-16,19,7
3679,-302,-71,964,-18,-62,-11
3680,190,-131,1075,-13,-97,-6
3681,481,-106,1037,-1,-49,3
3682,390,-3,1030,16,32,4
3683,-29,65,996,5,81,21
3684,-433,83,915,-9,63,22
3685,-489,-10,881,-20,-13,-2
3686,-132,-104,1010,-18,-83,-11
3687,372,-124,1083,-10,-88,0
3688,500,-72,1032,7,-18,4
3689,242,32,1032,13,62,11
3690,-214,84,963,1,79,25
3691,-518,49,864,-14,39,14
3692,-384,-53,924,-19,-45,-9
3693,92,-122,1057,-12,-98,-9
3694,466,-116,1073,-4,-65,3
3695,440,-30,1026,13,13,3
3696,53,58,997,10,78,17
3697,-362,86,931,-3,73,26
3698,-508,16,874,-19,7,5
3699,-231,-89,990,-19,-72,-12
3700,279,-127,1085,-13,-95,-3
3701,488,-98,1031,3,-34,4
3702,323,5,1018,13,43,6
3703,-113,77,980,6,85,23
3704,-461,72,905,-10,52,21
3705,-448,-27,896,-18,-25,-6
3706,-42,-107,1041,-15,-89,-12
3707,406,-124,1068,-9,-80,0
3708,476,-59,1021,10,-4,2
3709,173,41,1025,11,66,13
3710,-259,87,958,-1,79,27
3711,-522,33,869,-18,27,10
3712,-338,-67,943,-15,-58,-11
3713,157,-126,1068,-14,-97,-7
3714,485,-113,1051,-4,-55,3
3715,412,-7,1029,18,28,4
3716,4,69,1007,9,78,20
3717,-418,80,915,-9,67,24
3718,-504,0,875,-16,-6,-2
3719,-166,-102,1004,-20,-83,-13
3720,353,-132,1084,-6,-89,-1
3721,498,-81,1034,3,-25,3
3722,266,23,1022,20,55,7
3723,-186,82,973,-1,82,24
3724,-504,58,875,-10,43,16
3725,-398,-40,921,-21,-40,-10
3726,55,-115,1055,-12,-95,-11
3727,444,-124,1065,-7,-69,2
3728,445,-35,1024,12,7,2
3729,82,50,1003,8,76,15
3730,-324,76,937,-5,74,25
3731,-505,27,877,-13,12,7
3732,-255,-83,979,-19,-67,-12
3733,241,-126,1082,-10,-98,-3
3734,477,-93,1033,0,-41,2
3735,349,2,1021,14,38,5
3736,-75,71,985,5,81,23
3737,-447,76,911,-11,56,20
3738,-462,-21,893,-20,-22,-5
3739,-88,-115,1025,-19,-86,-12
3740,390,-125,1074,-6,-83,0
3741,484,-63,1024,7,-10,1
3742,204,36,1029,12,63,11
3743,-240,86,960,1,81,26
3744,-526,50,871,-14,32,13
3745,-353,-62,931,-21,-52,-11
3746,132,-126,1066,-15,-95,-8
3747,479,-115,1060,-3,-60,2
3748,424,-19,1030,14,22,4
3749,17,60,1007,8,80,19
3750,-397,83,914,-6,68,25
3751,-506,3,875,-19,0,2
3752,-188,-103,995,-17,-79,-13
3753,328,-121,1089,-9,-92,-2
3754,500,-85,1033,5,-27,3
3755,286,21,1024,15,50,7
3756,-166,86,975,3,83,23
3757,-485,60,883,-14,46,17
3758,-411,-44,914,-19,-34,-7
3759,21,-117,1052,-15,-94,-10
3760,431,-127,1068,-7,-72,1
3761,451,-49,1025,10,4,2
3762,112,47,1005,11,71,13
3763,-298,86,947,-2,76,26
3764,-512,31,875,-17,14,8
3765,-285,-75,965,-15,-63,-13
3766,208,-122,1082,-13,-97,-6
3767,479,-113,1027,-3,-46,3
3768,376,-2,1030,15,35,5
3769,-45,72,991,5,82,21
3770,-440,75,915,-6,60,22
3771,-484,-16,885,-20,-16,-3
3772,-115,-105,1012,-17,-84,-11
3773,377,-125,1082,-10,-86,-1
3774,499,-76,1023,8,-14,2
3775,226,36,1033,14,60,10
3776,-220,84,967,0,79,24
3777,-524,47,868,-15,38,13
3778,-375,-52,928,-19,-49,-10
3779,110,-125,1060,-12,-95,-9
3780,473,-121,1069,-4,-62,3
3781,430,-22,1028,15,16,3
3782,37,57,1001,7,81,17
3783,-380,83,923,-5,71,26
3784,-508,13,876,-18,3,3
3785,-205,-93,998,-19,-74,-11
3786,301,-124,1084,-10,-94,-1
3787,490,-93,1030,2,-32,4
3788,304,16,1019,15,47,7
3789,-137,75,975,2,83,23
3790,-471,67,897,-11,49,19
3791,-432,-33,906,-19,-29,-6
3792,-10,-117,1047,-17,-93,-11
3793,411,-123,1068,-7,-77,0
3794,463,-47,1021,11,0,1
3795,147,42,1014,12,68,14
3796,-273,86,952,-3,78,26
3797,-515,37,875,-15,21,8
3798,-316,-73,954,-20,-61,-12
3799,181,-130,1077,-12,-96,-5
3800,477,-107,1040,-2,-50,3
3801,395,-9,1034,15,30,3
3802,-20,64,999,8,81,21
3803,-430,84,912,-7,63,23
3804,-496,-9,880,-18,-11,-2
3805,-145,-102,1006,-19,-82,-13
3806,367,-124,1086,-8,-89,-2
3807,501,-73,1033,5,-21,2
3808,248,25,1026,14,59,10
3809,-207,82,966,0,80,25
3810,-516,55,871,-14,41,13
3811,-384,-54,923,-21,-43,-10
3812,81,-122,1057,-14,-98,-8
3813,460,-117,1071,-4,-66,2
3814,438,-33,1026,12,12,3
3815,58,56,1002,10,75,17
3816,-349,87,931,-5,72,25
3817,-506,18,874,-15,9,5
3818,-232,-90,989,-19,-71,-12
3819,269,-126,1083,-9,-95,-4
3820,484,-98,1029,0,-35,3
3821,329,5,1024,16,42,8
3822,-103,74,981,5,84,23
3823,-457,70,905,-9,52,19
3824,-455,-26,902,-20,-27,-5
3825,-49,-110,1030,-16,-89,-11
3826,402,-121,1073,-6,-81,0
3827,475,-60,1019,9,-4,2
3828,176,41,1027,13,66,14
3829,-259,88,957,-2,79,26
3830,-519,36,870,-17,27,10
3831,-341,-67,940,-19,-55,-11
3832,153,-126,1068,-15,-96,-7
3833,484,-114,1051,0,-56,3
3834,413,-8,1030,17,27,5
3835,5,65,1004,6,78,20
3836,-416,84,919,-5,67,23
3837,-503,-4,874,-22,-5,0
3838,-166,-97,1004,-16,-80,-13
3839,348,-129,1084,-11,-88,-2
3840,502,-85,1032,6,-26,2
3841,263,29,1029,17,55,9
3842,-185,80,967,0,82,25
3843,-501,57,876,-12,42,18
3844,-395,-38,925,-19,-39,-8
3845,56,-121,1052,-14,-96,-11
3846,442,-121,1072,-6,-69,2
3847,444,-35,1024,13,7,3
3848,86,52,1000,8,73,16
3849,-326,84,942,-3,74,25
3850,-507,22,872,-17,13,7
3851,-258,-79,982,-18,-67,-12
3852,242,-130,1082,-12,-97,-5
3853,477,-102,1029,2,-39,3
3854,349,5,1025,14,38,6
3855,-70,68,983,6,81,23
3856,-447,76,913,-8,57,21
3857,-465,-20,888,-20,-23,-5
3858,-80,-109,1027,-16,-86,-11
3859,389,-124,1074,-9,-81,0
3860,489,-64,1024,9,-11,3
3861,201,39,1030,12,64,12
3862,-239,83,960,0,81,26
3863,-526,43,866,-15,32,11
3864,-355,-64,935,-18,-51,-12
3865,134,-129,1063,-17,-97,-8
3866,479,-109,1061,-1,-60,4
3867,427,-19,1032,15,23,4
3868,17,57,1004,7,79,19
3869,-401,86,916,-4,69,24
3870,-506,7,874,-20,2,2
3871,-189,-100,998,-17,-80,-12
3872,327,-122,1088,-10,-92,-2
3873,499,-87,1031,4,-27,2
3874,286,14,1022,14,50,9
3875,-166,81,977,4,84,24
3876,-486,60,883,-13,47,18
3877,-417,-38,915,-16,-34,-7
3878,19,-115,1050,-17,-94,-10
3879,433,-123,1069,-7,-72,2
3880,453,-41,1024,9,3,2
3881,116,48,1003,11,72,14
3882,-296,87,948,-2,77,26
3883,-513,28,880,-18,16,7
3884,-289,-82,961,-17,-63,-10
3885,206,-122,1078,-11,-98,-5
3886,483,-109,1032,-1,-46,3
3887,376,1,1024,15,35,5
3888,-44,73,992,9,80,20
3889,-436,77,917,-11,61,22
3890,-485,-11,882,-19,-16,-2
3891,-118,-105,1017,-18,-85,-11
3892,378,-129,1078,-8,-86,1
3893,499,-75,1027,7,-17,3
3894,231,30,1026,16,61,10
3895,-221,87,970,3,80,25
3896,-525,45,867,-14,37,14
3897,-375,-47,928,-18,-49,-10
3898,107,-123,1058,-15,-96,-10
3899,480,-119,1071,-3,-64,2
3900,432,-20,1026,12,16,3
3901,43,57,1002,8,79,18
3902,-375,81,925,-5,70,25
3903,-508,10,867,-16,6,3
3904,-212,-94,999,-18,-75,-13
3905,297,-128,1084,-10,-94,-5
3906,487,-92,1029,2,-33,3
3907,304,18,1023,15,46,7
3908,-131,73,975,3,83,22
3909,-471,65,896,-12,50,20
3910,-432,-30,910,-18,-30,-6
3911,-12,-114,1042,-17,-92,-11
3912,412,-123,1069,-6,-75,2
3913,459,-49,1022,10,-1,3
3914,145,44,1016,11,67,13
3915,-277,85,952,-2,78,25
3916,-514,35,871,-15,20,9
3917,-314,-75,955,-20,-59,-12
3918,181,-130,1073,-13,-97,-6
3919,483,-104,1041,-1,-50,3
3920,397,-6,1033,15,31,5
3921,-19,66,1001,6,80,21
3922,-432,82,912,-8,64,23
3923,-496,-7,879,-20,-11,-1
3924,-143,-106,1004,-16,-83,-12
3925,366,-128,1080,-9,-88,-1
3926,501,-74,1035,7,-20,1
3927,251,26,1030,15,59,10
3928,-207,83,967,0,81,26
3929,-518,56,872,-12,41,14
3930,-382,-54,918,-20,-43,-9
3931,80,-117,1063,-12,-97,-10
3932,461,-120,1068,-6,-67,2
3933,439,-30,1025,15,12,3
3934,56,61,1003,9,75,15
3935,-349,83,929,-5,72,24
3936,-506,14,874,-18,8,4
3937,-236,-91,990,-19,-72,-13
3938,272,-130,1082,-10,-95,-3
3939,483,-93,1030,0,-37,3
3940,328,6,1019,15,42,5
3941,-104,82,985,6,84,24
3942,-457,76,907,-9,53,20
3943,-447,-34,898,-22,-26,-6
3944,-51,-108,1038,-14,-88,-11
3945,399,-125,1070,-11,-80,0
3946,478,-60,1020,11,-4,1
3947,175,41,1022,12,65,12
3948,-255,88,956,1,77,26
3949,-521,38,871,-17,28,10
3950,-337,-69,941,-19,-57,-12
3951,156,-122,1070,-13,-96,-6
3952,487,-116,1051,-4,-56,2
3953,410,-13,1030,17,26,3
3954,-1,69,1007,6,79,19
3955,-417,77,912,-7,66,24
3956,-506,0,874,-20,-7,-1
3957,-167,-106,1000,-16,-81,-13
3958,354,-129,1091,-9,-89,-1
3959,501,-82,1030,9,-24,2
3960,270,24,1025,15,55,9
3961,-187,86,975,2,84,25
3962,-506,54,872,-14,44,17
3963,-398,-39,924,-19,-39,-8
3964,55,-116,1055,-17,-96,-9
3965,444,-126,1069,-5,-69,1
3966,448,-36,1023,11,8,2
3967,82,50,1000,11,75,15
3968,-325,85,939,-4,73,25
3969,-507,23,873,-17,13,6
3970,-262,-80,979,-17,-68,-12
3971,242,-128,1084,-12,-98,-6
3972,479,-101,1028,1,-39,2
3973,350,6,1026,15,38,5
3974,-71,69,986,6,82,22
3975,-450,76,912,-8,58,21
3976,-470,-19,888,-18,-22,-4
3977,-83,-114,1026,-20,-87,-11
3978,388,-125,1073,-5,-83,-1
3979,489,-63,1022,8,-10,2
3980,205,37,1032,14,64,11
3981,-239,87,960,0,78,25
3982,-523,47,868,-16,32,13
3983,-357,-60,935,-18,-51,-11
3984,133,-129,1063,-16,-96,-8
3985,479,-114,1063,-2,-60,3
3986,428,-18,1027,13,21,3
3987,17,59,1004,9,80,19
3988,-401,85,920,-6,68,24
3989,-505,2,871,-18,1,2
3990,-187,-100,999,-18,-79,-12
3991,325,-123,1087,-8,-91,-3
3992,498,-82,1035,2,-27,3
3993,285,16,1022,14,50,6
3994,-163,84,977,2,83,23
3995,-487,62,885,-13,46,17
3996,-413,-42,916,-19,-34,-8
3997,20,-116,1047,-17,-93,-11
3998,433,-124,1069,-4,-73,2
3999,454,-48,1024,11,3,3
4000,114,46,1002,12,72,13
4001,-299,91,949,-3,75,26
4002,-511,31,873,-16,16,9
4003,-288,-77,965,-19,-63,-12
4004,204,-120,1086,-12,-97,-5
4005,482,-111,1024,-4,-47,3
4006,379,-2,1031,17,34,4
4007,-44,71,996,5,81,21
4008,-434,74,910,-7,63,22
4009,-489,-14,886,-19,-15,-3
4010,-120,-108,1008,-18,-86,-13
4011,380,-123,1083,-9,-87,-1
4012,497,-73,1026,6,-16,2
4013,233,35,1032,17,61,8
4014,-222,87,969,-1,81,26
4015,-523,44,864,-14,37,13
4016,-373,-55,927,-21,-49,-10
4017,103,-125,1062,-14,-94,-8
4018,474,-125,1066,-4,-64,2
4019,431,-22,1027,16,16,4
4020,38,61,1001,7,78,18
4021,-372,86,928,-6,70,26
4022,-507,11,872,-18,6,2
4023,-213,-94,997,-17,-74,-14
4024,296,-126,1085,-9,-95,-3
4025,490,-98,1027,2,-32,1
4026,309,16,1023,17,45,7
4027,-127,78,977,2,81,23
4028,-465,65,900,-10,50,19
4029,-436,-32,905,-19,-29,-6
4030,-22,-116,1041,-15,-92,-11
4031,410,-126,1069,-7,-76,2
4032,464,-49,1020,11,-1,2
4033,158,43,1017,11,66,14
4034,-271,85,955,-3,81,26
4035,-519,37,870,-15,22,8
4036,-318,-67,955,-19,-60,-12
4037,173,-127,1073,-12,-95,-7
4038,481,-109,1044,-3,-52,2
4039,402,-9,1033,16,29,4
4040,-14,62,1001,4,80,20
4041,-428,86,917,-4,64,23
4042,-500,-4,876,-21,-9,0
4043,-152,-106,1003,-17,-82,-12
4044,360,-128,1086,-8,-88,-2
4045,503,-81,1033,6,-22,2
4046,257,33,1030,16,57,9
4047,-201,82,964,0,81,25
4048,-513,58,874,-12,42,15
4049,-388,-50,923,-21,-42,-9
4050,70,-123,1055,-12,-96,-11
4051,453,-118,1072,-3,-66,1
4052,442,-38,1021,12,9,1
4053,67,55,999,10,76,15
4054,-336,87,936,-8,74,25
4055,-506,22,875,-10,9,5
4056,-250,-87,985,-24,-70,-14
4057,250,-125,1085,-5,-95,-5
4058,482,-100,1028,-5,-39,3
4059,344,3,1021,18,39,7
4060,-85,78,987,4,84,23
4061,-452,72,908,-10,55,20
4062,-464,-27,894,-20,-22,-5
4063,-76,-105,1029,-16,-87,-12
4064,395,-127,1070,-8,-84,0
4065,486,-64,1025,8,-8,2
4066,197,43,1030,16,64,11
4067,-242,90,960,-2,78,24
4068,-526,41,865,-14,32,11
4069,-354,-65,936,-22,-52,-11
4070,135,-128,1065,-12,-95,-9
4071,483,-118,1060,-5,-59,2
4072,419,-16,1028,17,24,4
4073,17,64,1005,8,79,19
4074,-401,84,919,-4,68,23
4075,-507,0,873,-20,-2,0
4076,-183,-94,999,-17,-80,-13
4077,332,-124,1087,-9,-91,-1
4078,498,-93,1030,2,-28,3
4079,280,23,1027,16,51,8
4080,-167,80,971,-1,84,25
4081,-488,60,885,-9,45,18
4082,-416,-34,915,-20,-35,-8
4083,29,-119,1049,-14,-95,-10
4084,428,-124,1074,-8,-72,1
4085,452,-45,1018,14,5,2
4086,115,45,1006,9,71,14
4087,-299,84,949,-1,76,26
4088,-510,26,871,-17,16,7
4089,-292,-73,968,-17,-63,-12
4090,209,-132,1077,-15,-97,-6
4091,482,-106,1031,2,-45,3
4092,376,-2,1028,15,34,4
4093,-38,67,997,5,81,22
4094,-441,83,912,-6,62,21
4095,-487,-14,882,-21,-17,-5
4096,-119,-108,1014,-16,-84,-12
4097,378,-130,1081,-12,-87,0
4098,500,-73,1025,9,-17,3
4099,239,34,1035,15,62,10
4100,-223,83,965,2,81,25
4101,-527,51,866,-15,38,13
4102,-373,-50,929,-19,-47,-9
4103,99,-126,1057,-15,-97,-10
4104,473,-119,1068,-4,-64,0
4105,432,-26,1031,13,16,3
4106,42,53,1002,9,79,17
4107,-367,86,924,-4,72,25
4108,-506,14,873,-18,5,4
4109,-222,-91,997,-16,-74,-13
4110,286,-123,1085,-11,-95,-3
4111,487,-93,1028,2,-34,1
4112,318,7,1026,14,44,7
4113,-119,76,979,4,84,22
4114,-465,65,899,-12,52,19
4115,-442,-31,901,-19,-27,-6
4116,-36,-109,1039,-15,-90,-12
4117,407,-128,1068,-7,-78,0
4118,472,-54,1024,10,-4,2
4119,168,40,1020,12,67,14
4120,-266,89,957,0,79,27
4121,-520,39,871,-15,26,9
4122,-330,-70,945,-20,-57,-12
4123,163,-124,1070,-14,-96,-7
4124,485,-113,1046,-5,-54,2
4125,410,-12,1035,16,28,5
4126,-4,69,998,6,79,19
4127,-418,82,915,-6,67,23
4128,-506,-4,874,-24,-7,-1
4129,-160,-103,999,-18,-82,-12
4130,353,-126,1092,-9,-89,-1
4131,503,-86,1029,4,-25,2
4132,262,26,1030,17,55,8
4133,-190,85,968,0,83,25
4134,-505,56,873,-12,43,16
4135,-399,-40,921,-20,-39,-9
4136,59,-117,1054,-15,-97,-10
4137,447,-124,1069,-8,-69,2
4138,447,-36,1025,13,8,3
4139,82,50,1002,11,76,16
4140,-323,81,940,-4,74,25
4141,-509,23,876,-17,14,6
4142,-267,-83,978,-19,-67,-13
4143,237,-126,1084,-10,-97,-5
4144,480,-101,1028,1,-42,3
4145,356,3,1027,15,37,6
4146,-66,70,989,5,83,22
4147,-447,74,912,-10,59,22
4148,-474,-16,888,-17,-21,-4
4149,-89,-104,1023,-18,-86,-11
4150,387,-133,1069,-8,-84,-1
4151,493,-65,1029,9,-11,1
4152,214,36,1030,14,63,11
4153,-234,84,961,0,80,26
4154,-529,47,871,-15,35,12
4155,-364,-58,929,-20,-52,-11
4156,120,-125,1063,-15,-97,-8
4157,482,-115,1064,-1,-61,1
4158,431,-23,1025,12,19,4
4159,26,59,1004,9,80,18
4160,-389,87,921,-6,70,23
4161,-508,6,868,-20,2,2
4162,-199,-96,1001,-18,-77,-11
4163,312,-127,1085,-11,-93,-2
4164,492,-93,1033,4,-31,2
4165,298,18,1025,14,48,7
4166,-145,79,971,5,85,24
4167,-478,68,896,-13,48,18
4168,-428,-32,911,-18,-32,-7
4169,-6,-114,1043,-18,-92,-10
4170,418,-124,1066,-5,-76,0
4171,463,-52,1021,8,0,2
4172,138,39,1011,13,69,14
4173,-282,87,953,-3,78,26
4174,-513,32,870,-15,21,9
4175,-312,-75,959,-18,-59,-12
4176,184,-125,1077,-12,-97,-8
4177,482,-108,1038,0,-51,2
4178,394,-5,1031,16,32,4
4179,-16,71,995,8,80,20
4180,-433,81,914,-8,64,22
4181,-499,-12,878,-19,-11,-2
4182,-142,-105,1005,-18,-83,-12
4183,366,-128,1086,-7,-88,-2
4184,505,-83,1032,6,-20,3
4185,244,31,1029,17,59,9
4186,-204,88,970,1,81,24
4187,-516,57,868,-14,42,15
4188,-388,-47,925,-20,-43,-10
4189,80,-124,1054,-16,-98,-10
4190,459,-116,1074,-3,-66,3
4191,440,-35,1020,12,10,3
4192,59,59,1003,12,78,17
4193,-347,85,931,-8,74,25
4194,-506,14,873,-16,10,4
4195,-245,-82,991,-20,-70,-14
4196,266,-128,1081,-10,-97,-4
4197,485,-104,1031,-1,-38,4
4198,337,8,1023,18,41,7
4199,-91,75,983,5,84,22
4200,-458,71,907,-11,55,20
4201,-459,-18,896,-19,-26,-4
4202,-69,-108,1029,-15,-88,-11
4203,399,-132,1072,-8,-82,0
4204,485,-61,1023,11,-7,3
4205,193,42,1030,13,65,12
4206,-246,80,957,-2,79,28
4207,-527,47,871,-13,30,12
4208,-348,-65,933,-20,-54,-12
4209,142,-126,1069,-14,-95,-7
4210,484,-112,1057,-4,-57,3
4211,420,-15,1029,14,24,3
4212,10,65,1005,4,79,20
4213,-405,79,915,-6,68,25
4214,-506,4,875,-20,-2,1
4215,-181,-98,1001,-16,-80,-13
4216,335,-131,1087,-12,-92,-2
4217,498,-86,1030,5,-27,3
4218,282,22,1027,16,52,8
4219,-172,80,971,3,83,24
4220,-492,68,883,-13,44,18
4221,-409,-39,917,-20,-36,-7
4222,27,-119,1054,-15,-94,-10
4223,430,-125,1067,-7,-73,1
4224,455,-42,1021,11,5,2
4225,109,46,1004,9,72,15
4226,-301,88,946,0,76,26
4227,-514,32,874,-16,17,7
4228,-286,-81,968,-19,-64,-11
4229,210,-126,1078,-12,-97,-4
4230,479,-105,1030,1,-45,3
4231,378,-3,1035,15,35,6
4232,-43,68,989,6,80,21
4233,-440,82,912,-6,61,21
4234,-487,-11,889,-22,-16,-4
4235,-121,-109,1007,-15,-84,-12
4236,377,-124,1083,-11,-86,-1
4237,502,-72,1031,8,-16,3
4238,237,31,1029,12,62,10
4239,-222,88,970,4,81,25
4240,-520,52,865,-15,38,15
4241,-379,-53,925,-20,-47,-10
4242,101,-124,1058,-15,-96,-9
4243,472,-119,1070,-5,-64,2
4244,435,-29,1030,15,15,3
4245,45,54,1000,8,78,16
4246,-365,91,929,-2,71,24
4247,-510,10,871,-20,6,3
4248,-220,-90,994,-17,-73,-13
4249,286,-122,1087,-13,-95,-3
4250,490,-102,1029,3,-34,2
4251,319,12,1022,16,43,6
4252,-118,75,973,5,85,23
4253,-463,69,910,-10,51,21
4254,-444,-24,899,-19,-27,-5
4255,-37,-109,1040,-14,-90,-11
4256,404,-129,1068,-9,-80,1
4257,476,-58,1021,10,-3,2
4258,169,40,1022,12,66,13
4259,-259,93,961,0,79,26
4260,-524,37,867,-16,27,9
4261,-335,-68,944,-20,-56,-12
4262,159,-122,1072,-14,-97,-8
4263,487,-119,1045,-3,-55,3
4264,410,-8,1035,17,27,4
4265,1,66,1003,8,79,19
4266,-417,78,910,-6,68,24
4267,-510,2,880,-19,-4,-1
4268,-164,-102,1000,-18,-82,-12
4269,349,-127,1090,-10,-89,-1
4270,502,-79,1034,6,-25,2
4271,268,23,1024,15,55,7
4272,-187,79,973,2,83,24
4273,-501,62,878,-13,44,17
4274,-405,-42,920,-20,-37,-9
4275,48,-123,1055,-14,-96,-10
4276,441,-125,1069,-7,-72,2
4277,444,-38,1022,14,7,2
4278,92,47,1000,9,74,15
4279,-319,89,948,-1,76,26
4280,-511,23,871,-18,13,6
4281,-271,-75,976,-18,-66,-12
4282,228,-130,1080,-13,-97,-5
4283,481,-104,1029,0,-42,3
4284,364,3,1032,14,37,5
4285,-59,67,990,5,83,21
4286,-445,77,911,-7,60,22
4287,-477,-14,888,-19,-19,-3
4288,-102,-110,1014,-18,-87,-13
4289,386,-127,1082,-9,-84,-1
4290,496,-66,1025,6,-13,2
4291,225,32,1030,13,62,10
4292,-232,89,967,0,79,25
4293,-525,51,863,-15,35,13
4294,-371,-57,931,-21,-49,-9
4295,114,-124,1059,-15,-98,-8
4296,480,-120,1069,-4,-63,3
4297,432,-30,1028,12,17,3
4298,34,62,1002,10,79,18
4299,-381,86,923,-6,70,24
4300,-508,12,872,-19,4,3
4301,-210,-90,998,-18,-77,-14
4302,301,-128,1086,-10,-94,-4
4303,494,-93,1029,1,-33,4
4304,307,13,1021,14,46,7
4305,-132,78,977,4,85,22
4306,-472,67,898,-12,49,19
4307,-437,-32,904,-18,-29,-5
4308,-21,-112,1042,-17,-92,-11
4309,413,-121,1069,-5,-78,1
4310,469,-60,1020,7,-1,3
4311,160,42,1020,13,68,14
4312,-274,88,957,0,79,25
4313,-521,29,870,-17,23,9
4314,-326,-67,951,-18,-60,-11
4315,171,-125,1068,-15,-98,-7
4316,489,-115,1044,-3,-53,2
4317,404,-3,1033,17,30,4
4318,-7,72,1001,7,80,19
4319,-424,81,914,-7,66,24
4320,-507,0,879,-21,-7,-1
4321,-160,-103,1001,-18,-82,-12
4322,360,-130,1088,-11,-89,0
4323,502,-87,1031,5,-23,3
4324,261,27,1031,16,58,9
4325,-198,82,973,1,81,25
4326,-508,54,869,-12,41,16
4327,-397,-40,925,-20,-39,-9
4328,63,-117,1057,-14,-98,-10
4329,449,-121,1072,-6,-68,2
4330,446,-37,1022,12,8,2
4331,81,53,1002,11,75,16
4332,-332,82,939,-4,75,24
4333,-510,20,871,-16,12,5
4334,-260,-80,982,-18,-68,-14
4335,243,-132,1081,-13,-96,-5
4336,482,-99,1028,1,-41,3
4337,352,10,1027,16,38,5
4338,-71,68,987,4,84,22
4339,-450,78,915,-6,57,21
4340,-473,-17,889,-19,-21,-5
4341,-91,-109,1021,-17,-86,-13
4342,389,-128,1078,-9,-85,-1
4343,493,-65,1024,6,-11,2
4344,214,33,1032,14,63,12
4345,-236,85,962,-1,80,25
4346,-527,47,865,-13,34,11
4347,-364,-58,933,-19,-51,-10
4348,123,-126,1063,-13,-97,-8
4349,481,-114,1064,-3,-61,2
4350,429,-20,1030,12,20,3
4351,29,60,1003,9,80,17
4352,-389,88,921,-5,70,25
4353,-506,7,872,-19,2,2
4354,-196,-96,1000,-17,-77,-12
4355,308,-126,1085,-10,-93,-3
4356,497,-92,1031,3,-32,3
4357,295,12,1023,14,48,8
4358,-145,81,975,3,85,24
4359,-473,71,895,-11,48,18
4360,-426,-38,907,-20,-32,-6
4361,-4,-113,1045,-14,-93,-11
4362,418,-119,1068,-8,-75,1
4363,462,-55,1020,11,1,2
4364,141,46,1014,13,69,13
4365,-281,86,953,-1,78,25
4366,-519,33,870,-17,21,9
4367,-313,-70,956,-16,-60,-12
4368,180,-121,1074,-14,-96,-7
4369,487,-108,1041,-1,-51,2
4370,397,-10,1029,14,33,3
4371,-18,69,1001,8,80,20
4372,-431,80,912,-9,65,22
4373,-497,-10,878,-20,-10,-2
4374,-150,-105,1002,-15,-83,-12
4375,368,-130,1089,-10,-89,-1
4376,502,-81,1029,6,-22,2
4377,254,33,1028,16,57,10
4378,-202,92,974,1,81,24
4379,-515,53,868,-16,42,15
4380,-391,-48,922,-20,-42,-11
4381,74,-119,1058,-14,-96,-10
4382,459,-130,1069,-7,-68,2
4383,439,-33,1028,14,10,2
4384,66,51,997,10,77,16
4385,-340,86,939,-2,74,27
4386,-507,22,875,-15,8,5
4387,-246,-81,983,-18,-70,-13
4388,251,-127,1086,-14,-99,-7
4389,480,-101,1027,2,-40,1
4390,341,12,1022,13,39,5
4391,-80,69,984,7,83,22
4392,-453,71,909,-13,57,20
4393,-468,-20,891,-17,-23,-6
4394,-75,-111,1027,-18,-88,-11
4395,394,-133,1073,-8,-82,0
4396,488,-65,1023,11,-9,3
4397,202,38,1032,12,63,12
4398,-242,86,959,2,80,26
4399,-526,52,867,-18,32,11
4400,-361,-59,936,-18,-53,-11
4401,132,-127,1063,-18,-97,-6
4402,481,-118,1064,0,-61,2
4403,430,-22,1027,13,22,4
4404,20,58,1001,10,81,19
4405,-402,83,919,-7,68,24
4406,-506,7,872,-16,1,1
4407,-193,-100,997,-18,-79,-13
4408,323,-128,1089,-9,-93,-2
4409,499,-83,1032,5,-30,3
4410,291,14,1023,12,49,8
4411,-151,80,978,6,84,24
4412,-482,69,891,-13,48,18
4413,-424,-40,911,-21,-33,-8
4414,4,-116,1048,-18,-94,-11
4415,419,-127,1067,-6,-75,1
4416,459,-46,1025,12,0,1
4417,137,41,1008,12,70,14
4418,-282,92,954,0,79,25
4419,-514,38,874,-15,19,8
4420,-307,-73,956,-19,-60,-10
4421,184,-122,1078,-14,-96,-6
4422,484,-110,1037,0,-50,2
4423,392,-8,1031,14,32,4
4424,-25,67,997,7,80,20
4425,-433,77,912,-5,64,23
4426,-496,-11,881,-21,-12,-2
4427,-140,-103,1002,-15,-83,-12
4428,371,-124,1087,-9,-88,1
4429,502,-80,1027,7,-20,2
4430,249,31,1033,14,59,9
4431,-208,89,971,0,81,25
4432,-516,51,866,-15,42,15
4433,-387,-48,924,-20,-43,-9
4434,77,-120,1059,-16,-98,-9
4435,458,-124,1073,-5,-66,3
4436,443,-35,1024,13,11,2
4437,62,53,999,9,76,16
4438,-343,86,940,-5,73,25
4439,-507,20,874,-17,10,4
4440,-246,-82,986,-18,-70,-12
4441,258,-125,1083,-10,-97,-4
4442,485,-101,1026,0,-39,3
4443,340,8,1026,16,41,5
4444,-82,76,983,5,84,23
4445,-453,72,909,-11,55,21
4446,-465,-23,892,-19,-22,-5
4447,-73,-106,1027,-18,-88,-12
4448,396,-130,1075,-7,-84,1
4449,486,-64,1022,10,-8,2
4450,203,37,1026,15,65,11
4451,-247,87,963,0,80,26
4452,-527,46,864,-16,32,10
4453,-355,-54,939,-19,-53,-12
4454,132,-129,1063,-17,-97,-8
4455,485,-119,1059,-3,-58,3
