sequence,AccelerometerX,AccelerometerY,AccelerometerZ,GyroscopeX,GyroscopeY,GyroscopeZ
0,-146,-26,985,-19,-3,-6
1,-28,-36,1003,-12,-24,-11
2,102,-21,1002,-13,-28,-12
3,164,-13,1011,-7,-8,-10
4,81,-6,1014,-19,15,-2
5,-44,-10,1000,-18,28,1
6,-159,-13,974,-24,21,2
7,-153,-29,988,-24,-8,-6
8,-55,-37,995,-11,-24,-11
9,94,-22,1005,-10,-28,-14
10,156,-17,1009,-13,-11,-12
11,103,-7,1002,-12,15,-3
12,-22,-9,1005,-17,29,0
13,-148,-10,979,-19,25,2
14,-161,-32,988,-15,1,-4
15,-75,-33,986,-17,-21,-9
16,77,-22,1015,-9,-29,-12
17,153,-18,1002,-10,-14,-12
18,117,-16,1006,-12,12,-4
19,1,-1,991,-15,28,0
20,-137,-11,991,-21,28,3
21,-166,-25,987,-19,6,-3
22,-102,-33,978,-15,-17,-8
23,60,-23,1011,-9,-28,-13
24,139,-24,1014,-11,-17,-11
25,138,-10,1010,-12,7,-6
26,21,-2,992,-15,26,-1
27,-119,-6,989,-19,29,4
28,-170,-26,983,-19,9,-2
29,-116,-27,987,-15,-14,-6
30,34,-27,1009,-14,-30,-11
31,130,-28,1013,-11,-20,-12
32,148,-11,1000,-10,1,-6
33,44,-2,1007,-15,25,-1
34,-99,-17,995,-18,30,2
35,-171,-22,971,-18,14,-1
36,-128,-26,980,-17,-13,-6
37,4,-33,1013,-13,-30,-12
38,123,-26,1011,-11,-24,-13
39,158,-13,1003,-11,-1,-9
40,61,-1,1010,-12,23,-2
41,-76,-14,1000,-18,29,1
42,-167,-16,966,-20,17,-1
43,-144,-28,986,-19,-7,-6
44,-20,-35,1002,-12,-26,-12
45,109,-28,1003,-10,-26,-14
46,164,-11,1009,-11,-9,-10
47,77,-5,1011,-13,18,-1
48,-53,-11,1000,-18,30,2
49,-162,-15,971,-20,22,2
50,-153,-27,991,-18,-3,-4
51,-47,-39,992,-16,-25,-9
52,97,-21,1005,-10,-27,-12
53,162,-18,1009,-11,-10,-11
54,96,-7,1010,-11,16,-3
55,-29,-8,1000,-16,29,0
56,-153,-12,978,-19,24,1
57,-162,-27,987,-18,0,-3
58,-72,-33,992,-15,-23,-10
59,84,-24,1015,-12,-28,-13
60,157,-20,998,-11,-13,-12
61,117,-11,1004,-12,11,-4
62,-7,-6,1002,-16,27,0
63,-142,-4,986,-19,27,3
64,-164,-28,987,-19,5,-2
65,-100,-35,987,-16,-20,-8
66,65,-24,1008,-11,-31,-13
67,147,-26,1015,-11,-17,-12
68,135,-13,1007,-11,7,-4
69,18,-5,995,-15,27,-2
70,-128,-7,984,-18,29,3
71,-173,-26,986,-18,8,-2
72,-111,-30,983,-16,-15,-9
73,42,-26,1011,-13,-30,-13
74,133,-29,1013,-11,-20,-13
75,145,-13,1004,-10,2,-6
76,39,-5,1000,-15,24,-1
77,-107,-11,994,-18,31,2
78,-171,-24,975,-19,13,-2
79,-123,-24,981,-18,-13,-7
80,17,-30,1010,-13,-31,-13
81,122,-27,1013,-11,-24,-12
82,158,-13,1006,-11,-2,-8
83,57,-2,1005,-14,24,-1
84,-85,-17,1002,-18,31,2
85,-167,-19,966,-18,16,-1
86,-137,-26,980,-18,-8,-6
87,-10,-29,1010,-11,-28,-11
88,112,-26,1007,-12,-26,-12
89,160,-14,1005,-10,-6,-9
90,73,-5,1009,-13,19,-3
91,-62,-13,1003,-16,30,0
92,-166,-18,967,-20,20,0
93,-148,-26,991,-17,-5,-5
94,-41,-38,993,-15,-26,-11
95,106,-23,1003,-10,-28,-13
96,161,-16,1006,-12,-10,-10
97,91,-3,1012,-13,17,-3
98,-38,-13,1004,-17,29,1
99,-158,-12,971,-18,23,2
100,-156,-26,991,-18,-2,-4
101,-61,-36,992,-14,-24,-10
102,87,-20,1006,-12,-28,-13
103,158,-18,1009,-12,-13,-11
104,104,-10,1001,-13,13,-4
105,-15,-9,1004,-16,28,0
106,-143,-12,982,-19,24,3
107,-161,-30,986,-19,2,-3
108,-84,-37,987,-14,-20,-10
109,71,-24,1010,-11,-30,-13
110,148,-20,1010,-11,-15,-12
111,125,-12,1006,-12,9,-5
112,10,-5,996,-16,28,-1
113,-129,-5,987,-18,29,2
114,-166,-32,989,-18,7,-4
115,-105,-31,980,-14,-17,-7
116,48,-29,1008,-12,-30,-12
117,137,-27,1018,-9,-18,-13
118,142,-12,1006,-11,5,-6
119,32,2,993,-15,25,-2
120,-110,-8,993,-19,28,2
121,-174,-29,979,-20,11,-1
122,-122,-29,981,-17,-13,-7
123,28,-32,1015,-12,-30,-12
124,123,-27,1004,-11,-22,-13
125,153,-11,1007,-10,0,-8
126,47,-2,1001,-15,24,-1
127,-91,-12,1006,-17,30,3
128,-172,-19,963,-18,15,0
129,-135,-27,981,-17,-9,-5
130,0,-35,1013,-13,-29,-11
131,109,-28,1005,-11,-24,-12
132,164,-9,1010,-11,-4,-9
133,64,-5,1008,-14,20,-2
134,-69,-5,997,-16,30,0
135,-164,-19,974,-21,17,0
136,-146,-26,986,-17,-6,-5
137,-28,-39,998,-16,-26,-11
138,107,-29,1007,-11,-26,-14
139,161,-14,1010,-12,-9,-10
140,85,-5,1007,-14,18,-3
141,-49,-9,1008,-16,30,1
142,-157,-10,970,-21,22,2
143,-153,-27,992,-19,-1,-4
144,-55,-40,992,-15,-24,-10
145,89,-26,1004,-9,-26,-13
146,161,-20,1004,-11,-11,-11
147,98,-9,1009,-14,15,-4
148,-19,-5,1005,-15,28,-1
149,-150,-5,976,-21,25,2
150,-162,-26,989,-18,2,-3
151,-78,-37,990,-14,-22,-9
152,76,-27,1010,-13,-29,-12
153,155,-21,1004,-10,-15,-11
154,118,-12,1004,-11,11,-5
155,-1,-4,998,-17,28,1
156,-140,-2,990,-20,28,4
157,-166,-29,987,-19,6,-3
158,-98,-32,984,-16,-17,-9
159,61,-27,1005,-13,-30,-13
160,143,-24,1017,-10,-17,-11
161,137,-16,1005,-13,7,-5
162,15,-3,996,-15,27,-1
163,-121,-6,985,-18,28,2
164,-171,-28,986,-18,9,-2
165,-113,-30,983,-16,-16,-8
166,40,-29,1012,-11,-30,-13
167,130,-28,1009,-10,-20,-13
168,148,-10,1008,-11,2,-7
169,39,0,1003,-15,24,0
170,-105,-15,994,-19,30,3
171,-174,-22,976,-19,14,0
172,-123,-31,978,-17,-14,-8
173,9,-31,1010,-13,-29,-11
174,125,-28,1008,-10,-23,-13
175,155,-9,1008,-10,0,-9
176,59,-1,1001,-15,23,-2
177,-88,-13,1006,-17,30,2
178,-166,-19,967,-20,14,0
179,-139,-28,980,-17,-9,-5
180,-11,-36,1008,-14,-28,-13
181,110,-28,1006,-11,-25,-14
182,164,-12,1007,-12,-6,-10
183,70,-4,1011,-14,19,-3
184,-59,-9,998,-18,30,1
185,-164,-13,971,-20,21,1
186,-151,-27,988,-18,-4,-3
187,-39,-37,996,-15,-27,-12
188,104,-30,1007,-11,-28,-14
189,159,-14,1006,-8,-11,-10
190,96,-8,1012,-13,17,-4
191,-40,-6,1005,-16,29,1
192,-156,-9,971,-19,22,2
193,-160,-28,987,-18,-2,-4
194,-65,-38,995,-16,-24,-10
195,91,-26,1006,-10,-28,-14
196,157,-19,1004,-10,-13,-10
197,112,-5,1004,-13,13,-3
198,-13,-8,1004,-18,28,-1
199,-148,-5,982,-21,25,3
200,-165,-28,985,-20,3,-4
201,-86,-38,989,-15,-22,-10
202,70,-27,1008,-12,-31,-14
203,156,-20,1009,-9,-17,-13
204,123,-11,1005,-12,9,-4
205,5,-1,996,-15,28,0
206,-134,-8,990,-19,28,3
207,-169,-29,987,-20,6,-2
208,-105,-37,980,-18,-18,-7
209,53,-27,1008,-12,-31,-12
210,140,-28,1015,-11,-19,-12
211,146,-11,1006,-11,4,-6
212,26,0,995,-14,26,0
213,-118,-5,988,-20,29,3
214,-173,-29,985,-20,10,-1
215,-119,-31,984,-18,-13,-6
216,31,-31,1011,-13,-29,-12
217,130,-28,1009,-11,-23,-13
218,152,-12,1004,-11,0,-7
219,47,0,1004,-16,24,-1
220,-104,-13,1000,-19,31,2
221,-173,-16,968,-18,14,-1
222,-132,-29,981,-18,-11,-6
223,4,-35,1010,-13,-30,-13
224,120,-33,1009,-11,-24,-13
225,161,-13,1003,-10,-3,-9
226,63,-5,1008,-13,23,-2
227,-76,-7,999,-17,30,1
228,-168,-16,966,-21,18,-1
229,-143,-24,984,-17,-7,-7
230,-26,-37,1004,-14,-27,-12
231,113,-31,1003,-12,-27,-13
232,163,-18,1010,-11,-7,-10
233,81,-2,1007,-13,20,-3
234,-56,-9,1005,-18,31,1
235,-160,-8,970,-20,21,1
236,-156,-27,992,-19,-2,-5
237,-45,-37,994,-14,-26,-11
238,97,-31,1001,-11,-30,-13
239,165,-16,1006,-10,-11,-11
240,96,-12,1012,-14,17,-2
241,-28,-2,1001,-15,30,-1
242,-154,-11,977,-19,24,2
243,-160,-24,986,-19,-1,-4
244,-72,-40,994,-17,-23,-9
245,86,-25,1010,-11,-29,-13
246,157,-23,1008,-11,-14,-11
247,118,-12,1003,-12,11,-5
248,-15,-13,1004,-15,27,0
249,-140,-2,977,-19,24,2
250,-163,-30,993,-19,3,-4
251,-81,-36,988,-17,-21,-10
252,74,-28,1007,-12,-30,-12
253,152,-28,1013,-10,-16,-12
254,122,-18,1004,-13,9,-4
255,13,-3,990,-14,28,0
256,-131,-8,987,-18,29,4
257,-168,-20,990,-19,7,-2
258,-105,-33,981,-17,-17,-7
259,42,-20,1010,-12,-30,-11
260,135,-28,1014,-12,-19,-12
261,138,-14,999,-10,4,-6
262,30,-9,995,-15,24,-1
263,-112,-12,993,-15,29,2
264,-170,-24,978,-17,10,-2
265,-122,-23,980,-16,-12,-6
266,21,-26,1016,-14,-28,-12
267,120,-26,1006,-12,-22,-12
268,149,-14,1002,-11,0,-7
269,48,-4,1006,-16,22,-1
270,-89,-15,1001,-18,29,3
271,-169,-19,968,-17,13,-1
272,-132,-24,980,-17,-10,-5
273,0,-31,1010,-12,-28,-11
274,114,-32,1009,-11,-23,-12
275,161,-10,1005,-12,-3,-7
276,66,-5,1007,-15,21,-2
277,-63,-14,1002,-16,30,1
278,-165,-18,969,-19,18,0
279,-140,-31,983,-18,-5,-4
280,-27,-37,1005,-13,-25,-12
281,108,-30,997,-9,-25,-14
282,160,-12,1015,-8,-7,-9
283,81,-3,1009,-12,17,-2
284,-46,-11,1003,-17,31,1
285,-160,-14,970,-20,20,1
286,-159,-26,988,-17,-3,-5
287,-49,-41,991,-15,-26,-11
288,89,-30,1002,-11,-27,-12
289,158,-13,1006,-9,-11,-11
290,103,-6,1012,-13,16,-4
291,-29,-3,999,-16,29,1
292,-151,-8,980,-20,24,1
293,-162,-32,987,-18,1,-3
294,-77,-38,988,-15,-22,-9
295,82,-28,1013,-13,-29,-14
296,153,-21,1005,-10,-13,-12
297,118,-9,999,-10,12,-4
298,-5,-4,1002,-14,28,-1
299,-137,-8,987,-18,27,2
300,-165,-31,986,-19,6,-4
301,-95,-38,984,-16,-19,-9
302,64,-28,1009,-11,-29,-12
303,148,-25,1013,-10,-16,-11
304,130,-14,1008,-11,7,-5
305,20,-2,993,-14,26,-2
306,-124,-8,986,-18,28,3
307,-171,-25,986,-18,7,-2
308,-109,-32,986,-17,-16,-8
309,44,-31,1010,-12,-29,-12
310,137,-31,1007,-10,-19,-13
311,147,-15,1010,-9,3,-7
312,39,0,994,-13,26,-1
313,-107,-6,998,-16,31,4
314,-173,-22,975,-20,13,0
315,-128,-27,981,-17,-13,-7
316,18,-34,1010,-13,-30,-11
317,119,-29,1010,-8,-23,-12
318,158,-11,1004,-10,-1,-9
319,51,-2,1005,-14,25,-1
320,-86,-9,1003,-16,31,2
321,-170,-20,967,-21,15,-1
322,-136,-25,979,-17,-9,-6
323,-9,-38,1010,-13,-29,-12
324,113,-30,1010,-11,-24,-13
325,166,-17,1009,-9,-4,-10
326,73,-3,1008,-13,20,-2
327,-63,-10,1000,-16,31,0
328,-166,-13,973,-18,20,0
329,-152,-23,986,-19,-4,-5
330,-35,-41,1000,-14,-26,-12
331,105,-30,1001,-10,-27,-12
332,166,-16,1007,-8,-9,-11
333,90,-4,1011,-12,18,-3
334,-39,-9,1005,-17,30,1
335,-160,-7,974,-18,23,1
336,-159,-26,984,-17,-2,-6
337,-57,-38,996,-16,-24,-10
338,87,-30,1000,-12,-28,-12
339,162,-19,1009,-11,-12,-10
340,110,-9,1004,-13,14,-3
341,-21,-6,1007,-15,29,1
342,-147,-5,975,-20,25,2
343,-169,-28,991,-17,3,-4
344,-80,-36,989,-19,-19,-9
345,72,-27,1013,-11,-29,-14
346,156,-21,1003,-9,-16,-11
347,119,-14,1005,-9,10,-5
348,6,0,997,-16,28,-1
349,-140,-8,990,-18,29,3
350,-165,-27,985,-19,5,-4
351,-105,-40,980,-15,-18,-8
352,58,-20,1009,-9,-32,-13
353,144,-28,1017,-13,-18,-12
354,143,-12,1007,-10,7,-5
355,20,-3,991,-15,27,1
356,-118,-8,989,-18,30,1
357,-169,-28,984,-19,10,-2
358,-115,-32,980,-17,-13,-7
359,36,-31,1014,-11,-29,-12
360,133,-30,1008,-10,-21,-13
361,147,-12,1005,-8,2,-7
362,45,-2,1001,-14,24,-1
363,-102,-12,1000,-17,30,2
364,-169,-22,969,-18,13,-1
365,-132,-28,984,-16,-11,-6
366,13,-34,1009,-13,-30,-12
367,117,-31,1008,-10,-23,-13
368,158,-12,1007,-11,-2,-8
369,58,0,1007,-15,23,-1
370,-79,-8,1000,-18,30,2
371,-171,-18,970,-20,15,1
372,-141,-30,980,-16,-7,-6
373,-12,-38,1006,-14,-27,-12
374,110,-30,1007,-11,-23,-11
375,163,-8,1006,-10,-6,-9
376,75,-4,1007,-13,20,-3
377,-64,-6,1003,-16,31,1
378,-164,-10,968,-20,20,-1
379,-152,-28,992,-19,-4,-6
380,-37,-40,997,-14,-25,-11
381,103,-32,1003,-11,-27,-15
382,162,-18,1007,-9,-8,-11
383,89,-4,1013,-12,16,-3
384,-35,-5,1003,-15,30,0
385,-159,-9,971,-19,24,1
386,-156,-22,990,-17,-1,-4
387,-62,-44,993,-17,-22,-10
388,86,-29,1007,-11,-27,-13
389,164,-22,1004,-10,-12,-11
390,106,-10,1003,-11,13,-3
391,-13,-7,1001,-16,29,-1
392,-147,-3,984,-18,26,2
393,-163,-24,982,-18,4,-3
394,-84,-35,990,-16,-20,-9
395,70,-28,1011,-13,-29,-13
396,147,-25,1007,-11,-18,-12
397,128,-19,1006,-11,8,-5
398,4,-5,995,-15,27,0
399,-128,-1,991,-17,28,2
400,-168,-28,988,-19,8,-3
401,-108,-30,981,-17,-17,-8
402,53,-31,1010,-10,-30,-12
403,136,-27,1014,-11,-18,-13
404,138,-17,1007,-12,6,-5
405,29,-1,993,-13,26,-2
406,-116,-9,990,-19,29,4
407,-166,-22,979,-18,10,-1
408,-120,-32,988,-17,-13,-7
409,31,-32,1008,-12,-29,-13
410,124,-28,1011,-9,-19,-13
411,155,-13,1004,-9,-1,-7
412,43,0,1003,-13,23,0
413,-97,-11,1000,-19,30,2
414,-170,-25,970,-20,13,-1
415,-132,-25,979,-15,-11,-6
416,8,-35,1009,-13,-29,-12
417,117,-31,1010,-11,-22,-13
418,159,-13,1005,-10,-3,-9
419,64,-3,1009,-14,22,-1
420,-73,-13,999,-17,31,2
421,-164,-17,969,-21,17,0
422,-142,-26,985,-17,-7,-5
423,-18,-38,1004,-14,-26,-12
424,107,-31,1004,-12,-26,-13
425,161,-13,1008,-9,-8,-10
426,80,-6,1012,-11,17,-4
427,-48,-6,1000,-15,30,0
428,-167,-9,975,-20,22,2
429,-149,-26,986,-18,-3,-6
430,-50,-40,995,-17,-25,-10
431,98,-28,998,-9,-28,-14
432,160,-21,1013,-9,-11,-12
433,99,-8,1006,-12,16,-3
434,-30,-5,1002,-14,29,1
435,-152,-9,974,-18,23,0
436,-162,-25,986,-18,-1,-4
437,-69,-37,992,-15,-24,-10
438,84,-27,1013,-12,-29,-14
439,159,-24,1001,-11,-13,-13
440,112,-12,1001,-11,11,-4
441,-9,-6,1004,-15,27,-1
442,-142,-6,984,-18,26,2
443,-164,-26,986,-19,3,-4
444,-90,-36,983,-16,-20,-9
445,65,-26,1012,-9,-30,-13
446,147,-26,1008,-11,-16,-11
447,132,-16,1010,-11,9,-5
448,11,-2,992,-15,28,0
449,-128,-2,987,-18,29,1
450,-170,-24,989,-20,8,-2
451,-110,-31,980,-17,-17,-7
452,44,-32,1010,-12,-30,-13
453,141,-31,1013,-10,-20,-13
454,145,-13,1007,-10,3,-7
455,33,1,994,-12,25,-1
456,-110,-6,994,-17,28,2
457,-169,-25,977,-21,12,-2
458,-125,-23,983,-17,-12,-7
459,26,-33,1011,-14,-31,-13
460,124,-34,1009,-10,-21,-12
461,154,-16,1003,-8,0,-9
462,49,-4,1008,-13,23,-1
463,-85,-9,999,-16,30,2
464,-172,-17,969,-18,15,-1
465,-135,-23,981,-15,-9,-7
466,-5,-34,1011,-12,-28,-11
467,114,-31,1009,-11,-25,-13
468,164,-16,1008,-10,-5,-11
469,69,-6,1008,-14,19,-3
470,-66,-10,1001,-14,31,1
471,-167,-19,973,-19,18,0
472,-149,-26,985,-18,-5,-5
473,-28,-36,999,-14,-25,-11
474,103,-27,1003,-11,-26,-13
475,162,-17,1007,-10,-8,-9
476,86,-7,1012,-11,17,-3
477,-47,-13,1001,-18,31,1
478,-156,-10,973,-18,22,1
479,-158,-27,991,-17,-2,-5
480,-54,-36,990,-16,-24,-10
481,92,-28,1008,-10,-28,-13
482,159,-18,1004,-10,-13,-10
483,101,-9,1005,-12,15,-2
484,-20,-8,1009,-15,28,-1
485,-153,-5,976,-20,25,2
486,-158,-28,988,-16,1,-5
487,-82,-38,989,-15,-20,-11
488,76,-26,1009,-11,-29,-13
489,156,-21,1007,-10,-16,-12
490,118,-12,1003,-12,11,-4
491,3,-1,999,-17,29,0
492,-138,-10,988,-18,29,1
493,-170,-28,986,-18,6,-3
494,-98,-36,980,-16,-17,-9
495,56,-23,1011,-10,-29,-12
496,148,-26,1014,-11,-19,-12
497,137,-16,1008,-12,8,-5
498,18,-2,992,-15,28,0
499,-118,-8,989,-18,27,2
500,-174,-26,981,-19,9,-2
501,-115,-31,984,-17,-14,-6
502,40,-32,1014,-11,-30,-13
503,126,-28,1006,-10,-20,-13
504,152,-10,1009,-9,2,-8
505,40,-2,1003,-14,24,-1
506,-101,-6,992,-18,30,2
507,-171,-25,977,-19,13,-2
508,-129,-26,978,-16,-12,-6
509,10,-32,1012,-13,-29,-10
510,121,-30,1012,-10,-23,-14
511,157,-12,1004,-11,-2,-8
512,58,-3,1004,-13,23,-4
513,-80,-11,1002,-17,30,2
514,-169,-14,968,-18,18,-1
515,-141,-25,983,-18,-9,-5
516,-15,-39,1007,-13,-27,-11
517,112,-30,1006,-11,-24,-14
518,161,-15,1007,-10,-6,-9
519,77,-4,1009,-12,19,-3
520,-57,-13,1002,-16,29,0
521,-166,-7,969,-19,21,0
522,-153,-24,990,-17,-3,-5
523,-38,-38,996,-15,-25,-10
524,99,-30,999,-12,-28,-12
525,161,-19,1008,-10,-9,-12
526,94,-10,1014,-12,17,-3
527,-35,-10,1000,-16,31,1
528,-157,-9,975,-19,24,1
529,-156,-22,991,-17,1,-3
530,-65,-37,990,-17,-21,-9
531,83,-23,1014,-10,-28,-13
532,160,-26,1001,-12,-13,-12
533,110,-10,1005,-11,13,-4
534,-14,-6,1004,-14,28,1
535,-145,-7,985,-18,25,3
536,-164,-29,983,-17,4,-3
537,-89,-33,990,-14,-20,-9
538,70,-20,1011,-12,-31,-13
539,150,-25,1008,-11,-16,-12
540,127,-15,1006,-12,10,-5
541,9,-7,994,-15,29,-1
542,-132,-10,988,-18,29,3
543,-168,-28,984,-19,6,-3
544,-108,-29,984,-15,-17,-8
545,51,-26,1010,-11,-30,-12
546,136,-25,1014,-10,-18,-12
547,140,-13,1007,-11,5,-6
548,27,-3,992,-14,24,0
549,-114,-13,989,-19,29,3
550,-169,-25,981,-19,12,-2
551,-123,-29,984,-16,-13,-7
552,29,-28,1009,-13,-30,-12
553,124,-31,1006,-11,-22,-13
554,154,-6,1008,-9,-1,-8
555,48,-4,1003,-15,25,-2
556,-93,-11,1001,-20,30,3
557,-170,-25,968,-21,14,-1
558,-136,-23,980,-17,-10,-7
559,6,-37,1014,-13,-30,-13
560,115,-28,1009,-8,-24,-13
561,160,-10,1009,-9,-4,-8
562,67,-5,1006,-13,22,-3
563,-74,-12,1001,-15,30,1
564,-165,-16,970,-20,16,-1
565,-144,-28,987,-17,-7,-6
566,-21,-36,1000,-13,-27,-11
567,104,-30,1005,-10,-27,-14
568,161,-13,1010,-10,-8,-9
569,79,-6,1008,-13,17,-4
570,-47,-10,1003,-16,31,0
571,-159,-14,972,-20,22,2
572,-154,-26,988,-18,-3,-4
573,-48,-42,992,-15,-25,-12
574,89,-26,1005,-10,-27,-13
575,160,-20,1004,-10,-11,-11
576,100,-9,1009,-12,14,-4
577,-26,-5,1002,-15,27,0
578,-150,-6,975,-18,23,2
579,-159,-27,985,-18,0,-3
580,-74,-37,994,-15,-20,-9
581,81,-30,1008,-11,-29,-13
582,152,-27,1006,-9,-15,-11
583,118,-12,1004,-11,10,-4
584,-4,-5,1000,-14,27,0
585,-137,-2,987,-18,26,2
586,-164,-27,991,-18,5,-3
587,-97,-36,981,-15,-18,-9
588,62,-29,1014,-10,-29,-13
589,142,-27,1011,-10,-18,-12
590,135,-16,1008,-10,7,-6
591,16,-2,993,-13,28,-2
592,-124,-8,986,-18,28,2
593,-172,-27,985,-18,8,-3
594,-110,-31,983,-17,-15,-8
595,39,-29,1009,-11,-29,-13
596,135,-26,1011,-10,-20,-13
597,147,-12,1006,-10,3,-7
598,35,0,996,-13,25,-1
599,-106,-11,995,-18,31,3
600,-171,-23,973,-18,15,-2
601,-129,-29,980,-17,-11,-7
602,19,-34,1013,-14,-28,-12
603,120,-29,1009,-10,-22,-12
604,158,-8,1006,-9,-1,-8
605,59,0,1007,-13,23,-2
606,-84,-10,999,-17,31,3
607,-167,-19,967,-19,16,0
608,-140,-29,983,-17,-9,-6
609,-11,-37,1003,-12,-29,-12
610,113,-27,1012,-10,-25,-13
611,162,-11,1006,-11,-5,-8
612,71,-2,1007,-13,20,-2
613,-57,-13,1000,-19,30,1
614,-161,-14,973,-20,19,1
615,-147,-27,988,-17,-3,-4
616,-36,-40,997,-15,-26,-10
617,99,-26,1005,-7,-27,-13
618,162,-15,1005,-10,-10,-11
619,94,-4,1015,-14,17,-3
620,-36,-9,1003,-16,30,0
621,-156,-8,974,-19,23,2
622,-158,-28,987,-17,-1,-4
623,-63,-39,996,-14,-24,-10
624,86,-28,1004,-10,-27,-12
625,158,-19,1006,-10,-12,-12
626,111,-10,1003,-11,13,-4
627,-16,-5,1003,-14,29,0
628,-143,-5,983,-19,26,2
629,-165,-28,986,-18,4,-4
630,-84,-38,987,-15,-20,-9
631,70,-27,1008,-12,-29,-12
632,150,-23,1009,-11,-17,-12
633,124,-14,1004,-12,9,-4
634,7,-3,995,-15,29,-2
635,-130,-9,989,-18,30,2
636,-167,-27,987,-18,8,-3
637,-105,-32,982,-15,-17,-8
638,54,-24,1011,-11,-30,-13
639,139,-33,1010,-11,-19,-11
640,140,-12,1012,-10,5,-5
641,28,-4,991,-14,24,0
642,-115,-7,990,-18,29,2
643,-165,-26,983,-19,11,-2
644,-124,-25,984,-17,-12,-8
645,30,-32,1010,-14,-29,-13
646,122,-31,1013,-10,-21,-13
647,153,-11,1000,-8,0,-7
648,51,-2,1004,-12,23,-1
649,-97,-13,1002,-18,31,1
650,-172,-21,964,-18,16,0
651,-131,-26,981,-18,-11,-6
652,-1,-36,1009,-14,-27,-11
653,115,-29,1011,-10,-23,-13
654,158,-12,1004,-9,-3,-9
655,66,-1,1007,-12,22,-2
656,-69,-9,1002,-16,32,1
657,-167,-17,971,-19,18,0
658,-144,-24,985,-17,-7,-6
659,-25,-44,1004,-13,-27,-11
660,105,-29,999,-10,-27,-13
661,164,-15,1009,-9,-9,-10
662,82,-4,1012,-13,18,-3
663,-48,-10,1002,-17,30,1
664,-158,-11,975,-21,22,0
665,-158,-30,988,-19,-4,-5
666,-47,-39,992,-15,-25,-11
667,93,-29,1006,-9,-28,-13
668,161,-19,1007,-8,-11,-10
669,99,-8,1010,-12,16,-2
670,-24,-7,1004,-15,29,0
671,-152,-2,979,-19,25,2
672,-161,-29,986,-20,1,-5
673,-76,-37,990,-14,-21,-9
674,83,-30,1007,-10,-28,-13
675,157,-23,1006,-9,-14,-13
676,117,-11,1004,-9,10,-5
677,-1,-6,998,-14,27,-1
678,-142,-2,991,-20,27,3
679,-165,-27,984,-18,5,-3
680,-100,-32,983,-16,-19,-8
681,62,-28,1009,-13,-31,-12
682,146,-26,1015,-9,-17,-13
683,136,-15,1007,-11,11,-4
684,18,-3,992,-15,27,0
685,-120,-8,985,-16,27,1
686,-175,-26,986,-17,8,-2
687,-115,-27,982,-18,-15,-8
688,40,-30,1014,-10,-30,-12
689,133,-26,1009,-11,-20,-12
690,147,-15,1008,-10,2,-7
691,42,-4,998,-13,24,-2
692,-106,-11,996,-18,30,4
693,-171,-22,972,-18,13,-1
694,-128,-27,982,-17,-12,-5
695,17,-31,1012,-12,-28,-13
696,120,-33,1008,-9,-22,-13
697,158,-9,1006,-11,-2,-10
698,55,-5,1007,-14,23,-2
699,-82,-11,1001,-16,29,1
700,-170,-17,967,-20,17,0
701,-138,-28,984,-16,-9,-6
702,-14,-37,1003,-13,-28,-12
703,113,-27,1011,-10,-25,-14
704,165,-12,1006,-11,-6,-9
705,70,-3,1007,-13,21,-2
706,-55,-9,1002,-16,30,1
707,-166,-14,969,-19,20,0
708,-150,-26,986,-17,-4,-5
709,-35,-40,998,-13,-26,-11
710,101,-26,1000,-9,-27,-13
711,162,-18,1007,-8,-11,-10
712,88,-8,1013,-12,17,-3
713,-33,-7,1004,-16,29,0
714,-155,-11,973,-18,22,1
715,-157,-24,989,-17,-1,-4
716,-60,-41,993,-15,-23,-9
717,84,-30,1010,-9,-27,-13
718,158,-21,1003,-10,-13,-12
719,109,-11,1004,-10,14,-4
720,-13,-4,1003,-15,28,0
721,-143,-3,986,-19,26,2
722,-161,-27,989,-18,4,-4
723,-87,-37,986,-14,-20,-9
724,67,-28,1010,-12,-29,-12
725,149,-27,1008,-11,-16,-11
726,127,-15,1004,-11,9,-5
727,7,-5,997,-15,28,-1
728,-129,-1,989,-19,28,2
729,-166,-26,989,-20,6,-2
730,-107,-29,981,-16,-17,-8
731,52,-30,1009,-11,-30,-14
732,137,-33,1012,-11,-19,-13
733,140,-13,1007,-10,5,-7
734,30,-6,995,-14,25,-1
735,-113,-8,991,-17,28,1
736,-171,-23,979,-18,10,-1
737,-122,-23,985,-17,-14,-7
738,29,-34,1014,-14,-29,-11
739,126,-30,1007,-10,-22,-14
740,151,-14,1005,-10,0,-7
741,46,-6,1003,-14,25,-2
742,-93,-13,999,-17,31,2
743,-174,-20,966,-19,15,1
744,-131,-24,980,-17,-11,-6
745,0,-35,1010,-11,-28,-12
746,117,-28,1007,-10,-23,-14
747,160,-14,1007,-11,-3,-7
748,66,-2,1007,-14,23,-1
749,-72,-13,1001,-18,30,3
750,-166,-15,969,-20,17,0
751,-147,-29,987,-17,-7,-5
752,-24,-34,998,-14,-26,-10
753,104,-28,1005,-11,-25,-13
754,162,-13,1007,-8,-8,-10
755,83,-8,1012,-13,19,-2
756,-47,-11,1004,-16,31,1
757,-158,-13,971,-19,22,2
758,-156,-26,990,-19,-3,-4
759,-50,-41,993,-16,-24,-10
760,94,-25,1006,-11,-28,-14
761,160,-18,1008,-9,-11,-12
762,101,-6,1006,-11,15,-5
763,-25,-8,1006,-16,30,0
764,-154,-8,976,-20,25,1
765,-158,-30,986,-18,1,-4
766,-78,-37,995,-14,-21,-11
767,81,-23,1008,-11,-28,-15
768,154,-23,1007,-10,-14,-12
769,119,-12,1000,-11,10,-4
770,-4,-2,1002,-16,28,1
771,-137,-4,988,-20,26,3
772,-167,-28,987,-20,4,-1
773,-96,-36,980,-16,-19,-8
774,58,-28,1011,-12,-29,-13
775,150,-27,1013,-11,-17,-12
776,129,-16,1008,-12,8,-5
777,22,-1,991,-14,25,-1
778,-125,-4,989,-17,30,5
779,-170,-23,983,-20,9,-2
780,-110,-34,985,-16,-15,-7
781,40,-27,1008,-12,-29,-11
782,135,-32,1011,-11,-20,-13
783,147,-14,1006,-10,2,-6
784,36,0,998,-14,25,0
785,-109,-10,993,-18,30,3
786,-169,-20,978,-18,13,-2
787,-129,-25,982,-17,-12,-6
788,17,-32,1009,-13,-30,-13
789,121,-35,1012,-9,-23,-13
790,157,-11,1004,-9,-1,-6
791,57,-3,1007,-14,24,-1
792,-86,-14,1003,-16,32,1
793,-173,-18,963,-19,15,-1
794,-137,-23,983,-16,-9,-7
795,-6,-33,1009,-13,-28,-11
796,114,-32,1007,-12,-23,-14
797,161,-12,1009,-9,-5,-9
798,72,-1,1008,-14,21,-2
799,-63,-11,1001,-17,30,2
800,-166,-17,969,-20,18,1
801,-148,-26,989,-18,-5,-5
802,-31,-41,996,-13,-26,-11
803,102,-28,1000,-11,-28,-14
804,162,-18,1009,-9,-9,-10
805,90,-3,1013,-11,18,-3
806,-40,-8,1001,-17,29,1
807,-158,-10,975,-18,22,0
808,-156,-28,984,-17,-2,-4
809,-59,-36,995,-16,-25,-9
810,93,-30,1004,-10,-28,-13
811,158,-23,1008,-10,-11,-11
812,110,-11,1001,-12,15,-4
813,-22,-5,1009,-14,30,1
814,-147,-7,978,-20,25,1
815,-162,-31,987,-18,4,-4
816,-81,-41,991,-15,-20,-10
817,74,-28,1012,-10,-28,-13
818,153,-22,1004,-9,-15,-13
819,119,-13,1004,-13,10,-5
820,1,-3,1001,-16,27,0
821,-136,-5,987,-19,28,2
822,-168,-27,990,-21,6,-3
823,-101,-33,980,-16,-18,-8
824,57,-27,1010,-12,-30,-13
825,142,-29,1012,-11,-18,-12
826,139,-12,1008,-11,8,-6
827,23,-3,991,-14,27,-1
828,-121,-4,991,-17,30,3
829,-171,-26,983,-19,9,-2
830,-120,-30,985,-17,-15,-8
831,37,-32,1009,-13,-31,-12
832,128,-31,1012,-10,-19,-13
833,148,-11,1003,-11,2,-8
834,44,-4,1003,-12,24,-2
835,-100,-7,993,-18,30,3
836,-173,-24,975,-20,15,0
837,-128,-25,981,-15,-11,-7
838,11,-35,1010,-14,-29,-12
839,122,-30,1008,-11,-22,-13
840,159,-15,1007,-11,-1,-7
841,59,0,1006,-14,23,-1
842,-81,-15,1007,-16,31,2
843,-166,-17,966,-19,15,0
844,-144,-24,985,-15,-8,-5
845,-9,-37,1003,-14,-27,-12
846,108,-31,1011,-11,-24,-13
847,165,-12,1005,-9,-8,-11
848,73,-7,1009,-13,20,-2
849,-60,-10,1002,-17,30,1
850,-164,-16,968,-20,20,0
851,-151,-26,992,-18,-5,-5
852,-35,-39,993,-15,-26,-10
853,102,-29,1005,-10,-27,-14
854,164,-15,1006,-10,-10,-10
855,92,-5,1011,-13,18,-3
856,-38,-12,1006,-16,30,1
857,-157,-12,969,-18,23,1
858,-156,-27,989,-17,0,-5
859,-59,-38,992,-14,-24,-10
860,89,-26,1007,-10,-30,-13
861,161,-20,1004,-11,-12,-11
862,105,-6,1006,-12,13,-4
863,-16,-5,1005,-15,28,0
864,-148,-8,979,-21,26,2
865,-161,-29,986,-19,4,-3
866,-87,-38,992,-16,-20,-8
867,77,-26,1008,-11,-28,-13
868,151,-25,1011,-10,-15,-12
869,124,-10,999,-11,10,-6
870,3,-3,1001,-16,28,-1
871,-134,-6,988,-18,28,3
872,-171,-27,988,-19,7,-3
873,-100,-33,980,-15,-19,-9
874,53,-26,1011,-12,-30,-13
875,144,-28,1012,-11,-18,-12
876,138,-14,1011,-12,6,-5
877,26,-1,993,-15,29,1
878,-120,-7,986,-17,30,3
879,-173,-29,986,-19,10,-2
880,-121,-32,982,-16,-14,-7
881,34,-30,1010,-12,-29,-13
882,131,-30,1014,-10,-20,-13
883,150,-7,1003,-9,1,-8
884,47,0,1000,-13,23,-2
885,-102,-8,998,-18,31,2
886,-173,-26,971,-18,15,-1
887,-129,-25,979,-17,-11,-6
888,9,-37,1009,-13,-29,-12
889,122,-30,1012,-8,-23,-12
890,160,-14,1006,-10,-3,-7
891,63,0,1004,-13,23,-2
892,-82,-13,1005,-18,30,3
893,-169,-15,967,-20,15,0
894,-143,-30,980,-18,-7,-6
895,-12,-38,1009,-13,-28,-11
896,108,-32,1006,-11,-25,-13
897,163,-10,1009,-11,-6,-9
898,79,-6,1009,-12,20,-1
899,-59,-9,1003,-16,30,1
900,-164,-13,970,-20,21,1
901,-152,-27,991,-17,-3,-5
902,-37,-42,993,-15,-26,-12
903,98,-27,1002,-10,-28,-13
904,168,-17,1012,-9,-10,-10
905,94,-5,1011,-13,18,-3
906,-37,-4,1003,-16,31,2
907,-156,-11,973,-19,24,2
908,-164,-26,987,-17,-1,-3
909,-64,-42,990,-16,-24,-10
910,86,-29,1009,-11,-28,-14
911,161,-22,1003,-8,-13,-12
912,112,-9,1006,-11,14,-3
913,-17,-3,1003,-16,28,0
914,-148,-4,982,-18,28,2
915,-167,-30,986,-19,3,-3
916,-90,-38,987,-15,-21,-9
917,76,-28,1013,-11,-30,-13
918,155,-23,1006,-8,-16,-12
919,127,-12,1006,-11,8,-5
920,5,0,996,-14,29,0
921,-136,-5,989,-20,28,3
922,-168,-28,988,-20,7,-2
923,-106,-34,979,-16,-18,-8
924,57,-29,1009,-12,-30,-12
925,143,-28,1017,-9,-18,-12
926,142,-16,1008,-11,7,-6
927,29,-1,996,-14,27,-1
928,-118,-7,985,-18,29,2
929,-174,-25,984,-19,10,-3
930,-120,-29,981,-18,-14,-7
931,34,-29,1015,-14,-29,-12
932,133,-32,1008,-11,-21,-13
933,150,-11,1006,-9,1,-7
934,49,-4,1000,-14,24,-2
935,-104,-10,998,-18,31,3
936,-173,-22,970,-19,14,-1
937,-128,-26,980,-17,-10,-8
938,9,-32,1014,-11,-29,-12
939,121,-29,1006,-9,-22,-13
940,160,-10,1010,-11,-1,-8
941,59,-3,1001,-14,24,-2
942,-78,-12,1006,-16,31,1
943,-169,-20,967,-19,16,0
944,-144,-28,977,-18,-8,-5
945,-17,-36,1012,-13,-27,-13
946,111,-31,1006,-11,-25,-14
947,164,-11,1008,-9,-6,-8
948,77,-3,1007,-14,18,-2
949,-57,-13,1005,-18,31,2
950,-166,-11,969,-20,21,1
951,-151,-32,990,-19,-5,-4
952,-37,-41,996,-14,-25,-12
953,100,-28,1000,-11,-26,-12
954,166,-15,1008,-9,-10,-10
955,92,-6,1015,-14,17,-3
956,-39,-6,999,-17,30,1
957,-160,-11,977,-18,24,1
958,-157,-29,985,-18,-1,-5
959,-63,-39,994,-14,-24,-10
960,88,-29,1005,-11,-27,-13
961,161,-21,1009,-10,-11,-11
962,111,-8,1002,-11,14,-4
963,-19,-3,1004,-15,29,1
964,-146,-8,981,-21,25,3
965,-166,-26,985,-18,3,-3
966,-84,-37,991,-15,-21,-9
967,71,-28,1011,-11,-30,-13
968,153,-26,1006,-10,-16,-12
969,123,-15,1002,-10,10,-6
970,8,-4,1004,-13,27,-1
971,-132,-4,984,-20,27,2
972,-169,-24,990,-18,8,-4
973,-105,-33,981,-15,-16,-8
974,51,-25,1009,-13,-30,-12
975,140,-32,1014,-11,-18,-11
976,139,-10,1010,-12,6,-5
977,30,-5,990,-14,26,-1
978,-118,-6,989,-17,30,2
979,-171,-25,983,-17,10,-3
980,-121,-27,985,-16,-13,-8
981,33,-28,1010,-13,-29,-12
982,128,-34,1009,-9,-21,-13
983,152,-10,1004,-8,1,-7
984,46,-2,1001,-14,24,-1
985,-96,-9,999,-18,30,2
986,-172,-22,969,-19,15,-1
987,-129,-24,980,-17,-12,-7
988,10,-38,1012,-12,-29,-13
989,118,-27,1008,-9,-23,-13
990,161,-12,1004,-12,-3,-8
991,62,-2,1009,-13,24,-2
992,-79,-12,1000,-17,30,3
993,-168,-16,969,-19,16,0
994,-143,-30,979,-18,-8,-5
995,-17,-35,1007,-15,-26,-11
996,109,-31,1006,-12,-26,-13
997,166,-11,1009,-8,-6,-10
998,78,-2,1009,-12,19,-1
999,-59,-10,1003,-16,30,3
1000,-162,-15,970,-19,20,1
1001,-152,-28,987,-18,-2,-5
1002,-41,-41,995,-14,-25,-10
1003,101,-28,1001,-9,-28,-14
1004,166,-20,1009,-10,-10,-12
1005,93,-4,1011,-13,17,-3
1006,-33,-6,1007,-16,31,1
1007,-155,-9,974,-19,23,1
1008,-164,-27,983,-17,0,-4
1009,-63,-40,1000,-16,-24,-11
1010,85,-28,1004,-10,-28,-12
1011,159,-22,1003,-10,-12,-11
1012,118,-9,1009,-10,13,-4
1013,-18,-6,1003,-15,29,1
1014,-145,-4,980,-20,27,2
1015,-165,-34,990,-19,4,-4
1016,-90,-36,984,-16,-19,-7
1017,69,-29,1010,-16,-28,-12
1018,156,-22,1011,-20,-20,-11
1019,126,-13,1001,-10,8,-4
1020,13,-4,996,-14,27,0
1021,-137,-7,991,-18,29,4
1022,-169,-26,982,-19,7,-3
1023,-108,-36,984,-17,-18,-8
1024,53,-25,1006,-11,-30,-12
1025,141,-29,1015,-9,-19,-12
1026,146,-17,1011,-10,5,-6
1027,28,-3,990,-14,27,0
1028,-116,-5,989,-16,30,1
1029,-177,-25,984,-19,11,-1
1030,-122,-24,982,-17,-14,-7
1031,31,-34,1012,-13,-29,-13
1032,127,-31,1012,-10,-21,-13
1033,156,-12,1003,-7,0,-7
1034,48,-2,1004,-13,24,-2
1035,-97,-9,1000,-18,30,3
1036,-175,-21,970,-19,15,0
1037,-133,-25,980,-18,-11,-5
1038,6,-33,1010,-14,-30,-12
1039,121,-32,1009,-11,-25,-14
1040,164,-11,1009,-10,-3,-9
1041,64,-6,1005,-13,23,-3
1042,-77,-11,1004,-17,32,2
1043,-165,-20,963,-21,18,0
1044,-146,-26,983,-16,-7,-5
1045,-15,-36,1004,-14,-27,-11
1046,106,-27,1006,-11,-25,-12
1047,167,-11,1009,-10,-8,-9
1048,78,-4,1009,-14,20,-1
1049,-56,-15,1002,-17,30,1
1050,-160,-13,971,-18,20,0
1051,-155,-30,988,-18,-3,-4
1052,-42,-35,992,-14,-26,-11
1053,101,-28,1005,-9,-27,-12
1054,160,-13,1003,-10,-9,-10
1055,95,-8,1014,-14,17,-3
1056,-30,-11,1002,-17,29,0
1057,-158,-11,973,-18,24,2
1058,-157,-28,990,-17,-1,-4
1059,-67,-42,994,-14,-24,-10
1060,85,-26,1006,-11,-27,-13
1061,154,-21,1006,-8,-13,-12
1062,110,-6,1007,-10,13,-4
1063,-14,-5,1003,-16,28,0
1064,-144,-4,983,-17,26,1
1065,-164,-29,985,-19,3,-3
1066,-89,-37,988,-15,-20,-10
1067,73,-27,1010,-11,-30,-13
1068,151,-24,1011,-10,-17,-11
1069,125,-13,999,-13,8,-5
1070,10,-5,1000,-14,28,0
1071,-134,-3,985,-18,28,3
1072,-166,-28,986,-19,7,-3
1073,-106,-33,981,-15,-18,-9
1074,53,-27,1009,-12,-29,-12
1075,142,-30,1015,-11,-18,-12
1076,138,-14,1010,-11,5,-6
1077,31,-1,995,-14,26,-1
1078,-118,-8,987,-18,29,3
1079,-173,-26,985,-19,9,-1
1080,-117,-29,983,-18,-13,-7
1081,27,-30,1012,-13,-29,-12
1082,133,-28,1009,-11,-22,-14
1083,153,-14,1006,-10,1,-8
1084,50,-3,999,-15,23,-1
1085,-103,-12,1002,-17,30,2
1086,-172,-20,969,-19,14,-1
1087,-132,-27,983,-17,-9,-6
1088,9,-29,1009,-13,-29,-11
1089,119,-33,1012,-11,-24,-12
1090,165,-8,1004,-9,-2,-8
1091,57,-4,1006,-15,22,-1
1092,-78,-7,1001,-17,31,3
1093,-171,-22,968,-20,17,0
1094,-145,-24,977,-18,-7,-6
1095,-16,-40,1009,-14,-27,-11
1096,111,-26,1005,-10,-25,-13
1097,166,-13,1007,-11,-8,-10
1098,78,-2,1010,-11,20,-3
1099,-59,-13,1004,-18,32,2
1100,-164,-14,971,-19,21,0
1101,-152,-28,989,-19,-3,-4
1102,-39,-39,995,-14,-26,-11
1103,103,-29,1004,-11,-27,-14
1104,161,-14,1004,-10,-9,-10
1105,91,-6,1011,-13,17,-2
1106,-35,-11,1004,-17,32,1
1107,-162,-11,970,-20,23,3
1108,-159,-31,985,-18,-1,-4
1109,-62,-40,994,-14,-23,-10
1110,89,-25,1005,-11,-29,-12
1111,163,-22,1007,-10,-12,-11
1112,107,-6,1001,-11,14,-2
1113,-15,-5,1004,-16,29,0
1114,-146,-5,981,-19,26,2
1115,-163,-29,988,-19,2,-4
1116,-82,-42,986,-17,-21,-9
1117,70,-26,1015,-11,-29,-11
1118,158,-22,1003,-10,-16,-11
1119,125,-9,1008,-10,11,-5
1120,7,1,997,-16,28,0
1121,-138,-4,992,-20,29,2
1122,-169,-28,985,-19,7,-2
1123,-108,-38,981,-16,-18,-8
1124,58,-30,1011,-11,-30,-13
1125,142,-31,1013,-11,-18,-11
1126,144,-10,1007,-11,6,-7
1127,29,-1,994,-14,27,0
1128,-122,0,989,-18,29,4
1129,-173,-26,981,-21,10,-1
1130,-119,-33,986,-18,-14,-7
1131,32,-36,1006,-13,-31,-13
1132,132,-32,1012,-10,-20,-14
1133,152,-13,1004,-8,2,-7
1134,44,0,1002,-13,25,-1
1135,-101,-7,996,-17,31,3
1136,-175,-17,971,-18,13,-1
1137,-132,-26,982,-18,-12,-7
1138,8,-38,1012,-14,-31,-12
1139,119,-31,1006,-10,-24,-13
1140,160,-15,1007,-10,-2,-8
1141,62,-2,1004,-13,22,-1
1142,-83,-10,1003,-18,31,3
1143,-166,-15,968,-20,17,0
1144,-144,-25,982,-18,-9,-5
1145,-12,-37,1004,-15,-28,-12
1146,112,-33,1011,-12,-25,-12
1147,161,-14,1004,-9,-7,-9
1148,78,-9,1011,-13,19,-2
1149,-60,-10,1002,-15,31,2
1150,-164,-13,968,-18,21,1
1151,-154,-25,991,-17,-4,-7
1152,-38,-37,995,-13,-25,-11
1153,100,-28,1003,-9,-27,-14
1154,164,-19,1007,-9,-10,-12
1155,93,-5,1014,-12,17,-3
1156,-33,-12,1003,-17,31,0
1157,-159,-7,975,-19,25,2
1158,-159,-24,989,-18,-1,-4
1159,-65,-39,991,-16,-23,-10
1160,89,-26,1007,-12,-29,-13
1161,159,-25,1003,-11,-13,-11
1162,110,-10,1009,-10,13,-3
1163,-13,-6,1002,-14,28,1
1164,-151,-8,979,-19,26,2
1165,-167,-28,987,-18,4,-2
1166,-83,-39,990,-16,-20,-9
1167,72,-26,1008,-12,-28,-12
1168,157,-22,1010,-10,-15,-12
1169,124,-11,1000,-10,10,-4
1170,5,-4,995,-15,28,0
1171,-134,-8,996,-20,29,2
1172,-170,-30,981,-21,7,-2
1173,-101,-33,981,-15,-17,-8
1174,57,-26,1013,-10,-31,-12
1175,144,-24,1011,-11,-18,-13
1176,142,-13,1010,-11,6,-6
1177,23,-2,993,-15,27,0
1178,-118,-6,988,-19,27,3
1179,-173,-29,984,-19,9,-1
1180,-116,-29,982,-16,-13,-6
1181,41,-29,1009,-11,-30,-12
1182,130,-26,1014,-10,-21,-12
1183,153,-10,1003,-10,2,-6
1184,44,-3,1002,-15,25,-1
1185,-105,-5,993,-18,30,3
1186,-172,-22,976,-19,13,-1
1187,-128,-31,979,-18,-11,-6
1188,12,-31,1010,-10,-29,-11
1189,122,-30,1010,-9,-22,-14
1190,159,-13,1002,-10,-2,-8
1191,58,-1,1005,-14,23,-2
1192,-81,-8,1003,-18,30,0
1193,-173,-17,964,-21,16,0
1194,-139,-27,980,-19,-8,-5
1195,-11,-43,1010,-14,-29,-12
1196,115,-29,1007,-11,-26,-12
1197,163,-14,1008,-11,-5,-8
1198,72,-1,1009,-11,19,-3
1199,-65,-10,1000,-17,30,2
1200,-165,-14,968,-19,20,1
1201,-151,-28,989,-18,-4,-4
1202,-34,-42,996,-15,-24,-11
1203,105,-29,1003,-11,-28,-14
1204,162,-17,1009,-10,-9,-10
1205,85,-4,1013,-13,17,-2
1206,-40,-10,1007,-16,31,0
1207,-159,-11,972,-19,23,1
1208,-159,-28,990,-18,-2,-5
1209,-58,-38,991,-15,-24,-10
1210,85,-26,1004,-9,-28,-14
1211,165,-18,1008,-11,-13,-11
1212,104,-12,1005,-13,14,-3
1213,-19,-4,1002,-16,30,0
1214,-150,-10,980,-18,25,2
1215,-165,-26,984,-18,3,-3
1216,-81,-40,990,-15,-21,-10
1217,78,-26,1011,-11,-30,-14
1218,156,-20,1005,-9,-15,-11
1219,123,-10,999,-12,9,-4
1220,0,-6,1004,-16,28,-1
1221,-137,-6,987,-20,27,3
1222,-167,-26,986,-19,5,-2
1223,-100,-37,983,-16,-21,-8
1224,61,-24,1009,-12,-31,-13
1225,148,-28,1015,-11,-17,-11
1226,139,-11,1007,-11,7,-5
1227,21,-1,993,-15,27,-1
1228,-125,-7,987,-18,29,3
1229,-172,-25,984,-19,9,-2
1230,-116,-33,983,-17,-16,-7
1231,43,-29,1010,-12,-32,-13
1232,136,-29,1012,-11,-20,-13
1233,149,-11,1008,-10,3,-5
1234,42,-4,996,-15,24,-1
1235,-107,-8,996,-18,32,3
1236,-174,-23,974,-19,15,-1
1237,-130,-22,986,-16,-13,-7
1238,18,-33,1009,-14,-30,-13
1239,124,-27,1012,-9,-24,-14
1240,160,-14,1001,-11,-2,-8
1241,55,-4,1006,-14,23,-2
1242,-86,-14,1004,-17,32,2
1243,-172,-20,969,-18,16,-1
1244,-139,-26,980,-17,-9,-5
1245,-5,-35,1009,-13,-28,-11
1246,112,-32,1007,-11,-24,-13
1247,164,-14,1006,-11,-5,-9
1248,72,-2,1009,-13,21,-1
1249,-65,-12,1004,-16,31,1
1250,-165,-11,969,-20,20,0
1251,-149,-28,987,-20,-5,-5
1252,-33,-39,1000,-14,-26,-12
1253,100,-33,1001,-12,-27,-12
1254,163,-15,1010,-9,-10,-11
1255,86,-5,1013,-13,18,-3
1256,-42,-7,1003,-16,30,0
1257,-157,-8,973,-19,21,1
1258,-159,-24,989,-19,-2,-4
1259,-55,-43,991,-16,-24,-11
1260,91,-30,1006,-11,-29,-14
1261,164,-20,1005,-10,-12,-12
1262,107,-10,1008,-11,15,-3
1263,-21,-4,1006,-16,31,1
1264,-152,-3,977,-20,25,2
1265,-166,-26,986,-19,3,-2
1266,-80,-42,991,-16,-21,-9
1267,78,-30,1009,-12,-30,-13
1268,158,-25,1005,-8,-15,-13
1269,120,-12,1001,-10,11,-5
1270,-2,-2,1002,-13,29,0
1271,-142,0,987,-20,28,4
1272,-169,-28,984,-22,7,-3
1273,-99,-38,983,-15,-18,-8
1274,61,-28,1009,-11,-30,-13
1275,151,-27,1013,-12,-19,-13
1276,135,-15,1009,-11,8,-6
1277,16,-1,989,-16,27,0
1278,-123,-3,994,-17,28,2
1279,-174,-25,985,-20,8,-2
1280,-113,-31,982,-16,-14,-8
1281,45,-32,1009,-11,-30,-13
1282,133,-30,1012,-10,-19,-11
1283,153,-12,1008,-10,3,-6
1284,36,-3,998,-14,26,-1
1285,-112,-9,990,-19,31,3
1286,-172,-23,978,-19,13,-2
1287,-129,-30,982,-17,-12,-7
1288,20,-27,1009,-13,-30,-11
1289,125,-35,1012,-10,-23,-13
1290,157,-11,1002,-9,-1,-8
1291,54,-1,1006,-14,24,-1
1292,-87,-12,1001,-18,31,3
1293,-174,-20,968,-19,15,0
1294,-137,-27,978,-18,-10,-5
1295,-1,-37,1010,-13,-29,-12
1296,115,-31,1011,-10,-25,-13
1297,163,-11,1006,-10,-4,-9
1298,67,-2,1006,-13,23,-1
1299,-68,-7,1000,-17,31,1
1300,-168,-16,973,-20,18,0
1301,-148,-28,982,-19,-6,-5
1302,-29,-43,1002,-14,-26,-12
1303,106,-29,1006,-10,-28,-13
1304,164,-11,1004,-8,-9,-9
1305,90,0,1013,-13,18,-2
1306,-49,-9,1003,-16,32,1
1307,-161,-10,971,-19,23,0
1308,-157,-33,989,-18,-1,-4
1309,-53,-40,993,-13,-24,-10
1310,95,-29,1004,-10,-28,-13
1311,163,-17,1005,-8,-10,-11
1312,104,-5,1011,-12,16,-2
1313,-26,-6,1002,-17,30,1
1314,-152,-6,977,-20,24,2
1315,-163,-27,985,-18,1,-3
1316,-79,-39,992,-15,-21,-10
1317,85,-29,1009,-12,-30,-12
1318,156,-19,1004,-10,-14,-11
1319,118,-8,1002,-10,12,-4
1320,-7,-6,1003,-15,28,-1
1321,-143,-3,986,-18,27,2
1322,-169,-32,983,-20,5,-3
1323,-92,-35,986,-15,-19,-9
1324,62,-29,1005,-12,-29,-12
1325,150,-22,1013,-10,-17,-13
1326,129,-15,1008,-12,7,-6
1327,15,0,991,-15,27,-1
1328,-125,-9,989,-18,29,4
1329,-175,-30,986,-19,6,-2
1330,-107,-34,981,-16,-17,-8
1331,44,-31,1012,-11,-29,-12
1332,134,-27,1014,-10,-19,-12
1333,148,-11,1008,-10,4,-7
1334,34,-1,994,-14,26,0
1335,-109,-7,991,-19,29,3
1336,-172,-29,978,-19,14,-2
1337,-125,-26,984,-17,-12,-6
1338,26,-32,1013,-13,-30,-12
1339,124,-28,1010,-9,-22,-13
1340,154,-12,1003,-10,-1,-7
1341,55,-2,1005,-16,23,-2
1342,-91,-13,1004,-17,33,3
1343,-171,-18,967,-19,16,-1
1344,-136,-28,978,-16,-10,-6
1345,-1,-33,1010,-11,-29,-11
1346,114,-31,1008,-11,-24,-14
1347,160,-11,1008,-10,-3,-10
1348,67,0,1006,-12,20,-2
1349,-67,-12,1002,-17,30,1
1350,-168,-15,969,-19,19,0
1351,-147,-30,982,-16,-4,-5
1352,-24,-37,1004,-11,-24,-11
1353,104,-30,1002,-11,-24,-12
1354,166,-13,1008,-10,-7,-11
1355,84,-6,1013,-14,17,-1
1356,-49,-7,1000,-15,30,2
1357,-160,-11,975,-20,23,2
1358,-154,-28,989,-17,-2,-4
1359,-50,-39,994,-15,-25,-12
1360,95,-29,1003,-10,-28,-14
1361,158,-19,1007,-9,-10,-11
1362,103,-7,1009,-13,15,-3
1363,-27,-6,1005,-15,29,0
1364,-151,-5,974,-19,24,1
1365,-161,-26,986,-18,0,-4
1366,-77,-39,993,-15,-22,-11
1367,82,-29,1011,-12,-28,-14
1368,156,-23,1005,-9,-14,-11
1369,118,-12,1000,-9,11,-3
1370,-4,-6,1004,-15,28,-1
1371,-140,-2,986,-19,28,3
1372,-170,-31,987,-19,6,-2
1373,-97,-36,985,-16,-20,-9
1374,64,-29,1010,-11,-30,-13
1375,150,-24,1014,-11,-17,-12
1376,134,-15,1006,-11,9,-6
1377,15,0,995,-13,28,0
1378,-125,-8,985,-18,30,4
1379,-176,-27,990,-20,10,-1
1380,-111,-31,979,-15,-16,-7
1381,44,-29,1013,-12,-30,-13
1382,136,-29,1012,-11,-19,-13
1383,143,-15,1007,-9,3,-7
1384,39,1,998,-14,24,-2
1385,-111,-9,992,-17,30,2
1386,-171,-24,977,-19,13,-2
1387,-123,-29,984,-18,-12,-7
1388,21,-32,1009,-13,-29,-13
1389,126,-31,1010,-11,-22,-13
1390,155,-12,1003,-9,-1,-7
1391,56,-3,1004,-14,24,-3
1392,-87,-11,1004,-18,33,1
1393,-172,-18,965,-20,15,0
1394,-133,-25,981,-18,-9,-6
1395,-7,-40,1010,-13,-28,-11
1396,112,-30,1006,-9,-25,-12
1397,162,-16,1010,-11,-4,-10
1398,70,-3,1005,-12,20,-3
1399,-61,-8,1002,-15,30,2
1400,-166,-13,968,-18,18,0
1401,-150,-26,986,-18,-5,-6
1402,-28,-37,999,-14,-27,-12
1403,99,-32,1003,-10,-26,-13
1404,169,-16,1008,-8,-9,-12
1405,85,-9,1015,-11,19,-3
1406,-44,-8,1002,-16,30,0
1407,-158,-8,974,-19,21,1
1408,-156,-22,987,-18,-2,-5
1409,-58,-40,993,-16,-24,-11
1410,94,-27,1004,-10,-28,-13
1411,158,-19,1007,-11,-11,-10
1412,107,-9,1007,-12,16,-4
1413,-23,-9,1006,-17,29,0
1414,-148,-6,972,-19,24,1
1415,-163,-30,991,-18,2,-4
1416,-79,-37,989,-14,-20,-9
1417,77,-28,1010,-11,-27,-12
1418,156,-22,1006,-12,-16,-12
1419,119,-12,1001,-12,10,-5
1420,-1,-5,1000,-16,28,-1
1421,-140,-7,988,-19,27,2
1422,-166,-28,987,-18,6,-3
1423,-97,-35,979,-15,-18,-9
1424,61,-25,1011,-11,-31,-12
1425,142,-27,1010,-10,-18,-11
1426,137,-11,1010,-12,7,-5
1427,20,-4,993,-17,27,1
1428,-125,-8,986,-19,28,4
1429,-167,-28,990,-18,9,-3
1430,-116,-32,981,-16,-13,-7
1431,42,-28,1010,-11,-29,-13
1432,134,-29,1016,-11,-20,-11
1433,144,-12,1003,-10,2,-7
1434,45,-2,998,-14,24,-1
1435,-108,-10,1001,-18,31,3
1436,-172,-21,969,-18,12,-2
1437,-129,-29,983,-17,-11,-7
1438,12,-33,1011,-14,-30,-11
1439,123,-33,1005,-9,-21,-14
1440,154,-16,1007,-10,0,-9
1441,61,-2,1007,-13,23,-2
1442,-85,-13,1001,-17,31,2
1443,-169,-11,967,-18,15,0
1444,-137,-31,982,-16,-9,-6
1445,-11,-38,1007,-13,-28,-11
1446,114,-30,1007,-11,-23,-12
1447,165,-12,1007,-10,-6,-10
1448,70,-3,1005,-11,20,-2
1449,-64,-8,1003,-15,30,0
1450,-164,-14,970,-20,20,0
1451,-147,-27,986,-17,-5,-4
1452,-37,-40,998,-15,-25,-11
1453,103,-29,1000,-9,-27,-14
1454,163,-16,1010,-7,-9,-10
1455,91,-6,1012,-13,16,-2
1456,-41,-8,1007,-16,31,1
1457,-157,-6,973,-19,22,2
1458,-160,-25,988,-18,0,-3
1459,-61,-40,994,-16,-24,-11
1460,89,-29,1005,-10,-27,-13
1461,161,-23,1005,-10,-12,-10
1462,108,-9,1005,-10,15,-4
1463,-20,-4,1007,-14,29,-1
1464,-147,-5,978,-19,25,2
1465,-163,-29,987,-19,2,-3
1466,-82,-39,989,-17,-22,-8
1467,75,-28,1012,-12,-28,-12
1468,157,-24,1007,-10,-15,-11
1469,121,-13,1003,-10,10,-3
1470,6,0,1002,-14,28,0
1471,-136,-7,989,-19,29,4
1472,-169,-26,985,-20,6,-1
1473,-106,-38,982,-18,-18,-8
1474,56,-31,1010,-10,-32,-13
1475,144,-28,1013,-8,-19,-12
1476,135,-15,1006,-11,6,-6
1477,26,0,993,-14,26,-2
1478,-120,-6,987,-18,28,3
1479,-172,-21,983,-19,10,-3
1480,-121,-30,986,-18,-15,-7
1481,37,-31,1013,-12,-30,-14
1482,132,-33,1006,-10,-20,-13
1483,154,-12,1010,-9,2,-7
1484,44,-4,1000,-14,25,0
1485,-107,-6,993,-16,32,3
1486,-170,-23,976,-21,13,-1
1487,-132,-26,979,-19,-10,-6
1488,11,-30,1012,-15,-29,-12
1489,120,-36,1010,-10,-23,-14
1490,163,-16,1007,-10,-2,-7
1491,59,-3,1004,-13,22,-2
1492,-82,-11,1007,-15,31,2
1493,-171,-14,967,-21,16,0
1494,-147,-26,981,-17,-8,-6
1495,-11,-35,1009,-13,-28,-13
1496,109,-34,1005,-11,-25,-13
1497,165,-12,1005,-10,-6,-9
1498,75,-5,1009,-13,21,-3
1499,-60,-8,1003,-15,31,0
1500,-164,-13,967,-20,20,2
1501,-150,-26,991,-17,-4,-5
1502,-38,-39,992,-13,-24,-11
1503,98,-27,1004,-11,-26,-13
1504,165,-18,1006,-11,-10,-11
1505,86,-6,1014,-11,17,-3
1506,-34,-9,1000,-17,31,-1
1507,-159,-9,976,-18,24,0
1508,-158,-25,985,-17,-1,-6
1509,-68,-38,997,-15,-22,-10
1510,89,-25,1006,-10,-29,-13
1511,159,-24,1001,-12,-11,-11
1512,113,-11,1009,-11,14,-2
1513,-15,-5,1002,-16,30,1
1514,-144,-5,981,-19,25,1
1515,-166,-27,988,-20,2,-3
1516,-89,-33,986,-15,-20,-10
1517,73,-27,1010,-12,-31,-14
1518,150,-23,1011,-10,-16,-12
1519,129,-18,1001,-12,9,-5
1520,7,-7,998,-14,28,-1
1521,-134,-10,986,-17,28,3
1522,-168,-23,988,-18,6,-2
1523,-104,-28,981,-16,-18,-8
1524,49,-23,1009,-12,-30,-12
1525,142,-25,1013,-10,-19,-13
1526,140,-17,1010,-12,5,-6
1527,29,-4,989,-15,27,-1
1528,-114,-12,989,-17,29,3
1529,-174,-25,983,-18,10,-1
1530,-120,-27,983,-16,-13,-7
1531,31,-31,1010,-12,-29,-12
1532,123,-27,1012,-10,-21,-13
1533,155,-8,1005,-9,0,-8
1534,47,-7,1005,-14,23,-2
1535,-100,-10,997,-18,29,2
1536,-171,-26,972,-18,14,-1
1537,-131,-26,978,-15,-11,-7
1538,4,-34,1013,-11,-29,-12
1539,119,-28,1009,-10,-24,-13
1540,158,-10,1005,-10,-3,-9
1541,65,2,1009,-12,22,-3
1542,-78,-13,1004,-18,31,2
1543,-167,-20,965,-20,16,-1
1544,-144,-33,983,-17,-6,-5
1545,-17,-41,1004,-13,-27,-11
1546,110,-26,1002,-10,-25,-12
1547,166,-7,1013,-10,-6,-9
1548,76,0,1008,-13,19,-2
1549,-54,-5,1004,-15,28,0
1550,-162,-16,972,-21,20,1
1551,-152,-29,989,-18,-4,-4
1552,-44,-43,991,-15,-26,-11
1553,99,-23,1003,-9,-27,-14
1554,162,-16,1009,-8,-10,-10
1555,96,-2,1010,-14,16,-3
1556,-31,-11,1005,-18,30,2
1557,-153,-7,974,-18,22,1
1558,-160,-30,990,-18,0,-4
1559,-71,-40,991,-13,-22,-10
1560,87,-29,1006,-10,-29,-13
1561,157,-23,1004,-10,-13,-11
1562,114,-8,999,-9,12,-3
1563,-8,-4,1008,-14,28,-1
1564,-143,-3,978,-19,26,2
1565,-165,-30,990,-18,3,-4
1566,-91,-38,986,-15,-21,-9
1567,68,-27,1007,-10,-30,-14
1568,153,-25,1012,-11,-17,-13
1569,125,-10,1002,-10,9,-6
1570,17,0,997,-15,27,-2
1571,-132,-9,988,-19,28,2
1572,-168,-23,983,-20,7,-3
1573,-111,-35,985,-17,-17,-8
1574,48,-29,1008,-11,-30,-12
1575,142,-28,1012,-11,-19,-13
1576,143,-14,1011,-11,4,-7
1577,32,0,993,-14,26,-1
1578,-113,-9,990,-19,29,2
1579,-175,-24,981,-18,12,-2
1580,-121,-28,985,-17,-13,-8
1581,27,-33,1010,-13,-29,-12
1582,127,-29,1009,-10,-23,-13
1583,155,-13,1002,-10,0,-9
1584,51,0,1004,-15,23,-1
1585,-95,-12,1003,-18,31,4
1586,-170,-19,966,-20,14,-1
1587,-135,-24,978,-18,-9,-5
1588,1,-35,1013,-13,-29,-11
1589,116,-32,1007,-10,-25,-13
1590,162,-12,1008,-10,-3,-9
1591,65,-4,1007,-13,22,-2
1592,-72,-9,1000,-16,30,1
1593,-167,-16,972,-20,17,1
1594,-146,-24,984,-18,-7,-6
1595,-23,-42,1003,-14,-27,-12
1596,111,-29,1005,-10,-26,-14
1597,162,-13,1008,-10,-7,-9
1598,82,-3,1014,-14,19,-3
1599,-51,-11,1002,-17,31,2
1600,-161,-12,971,-20,22,2
1601,-155,-31,994,-18,-2,-4
1602,-48,-37,993,-14,-23,-10
1603,96,-29,1003,-11,-28,-13
1604,160,-13,1008,-8,-10,-11
1605,100,-8,1009,-13,16,-3
1606,-26,-9,1003,-16,29,1
1607,-154,-8,975,-18,24,2
1608,-159,-29,987,-18,2,-4
1609,-75,-38,992,-14,-22,-9
1610,83,-27,1009,-11,-29,-13
1611,157,-24,1006,-9,-14,-11
1612,117,-13,1003,-10,11,-4
1613,-5,-4,999,-16,28,-1
1614,-140,-5,986,-19,27,2
1615,-165,-29,985,-19,5,-3
1616,-96,-37,981,-17,-18,-9
1617,65,-27,1010,-12,-29,-13
1618,146,-29,1013,-9,-16,-11
1619,130,-13,1003,-11,7,-5
1620,18,-2,994,-14,27,0
1621,-125,-1,987,-17,28,3
1622,-169,-27,987,-20,7,-2
1623,-110,-26,982,-16,-16,-7
1624,44,-31,1009,-12,-29,-13
1625,132,-28,1013,-11,-18,-13
1626,144,-13,1003,-10,3,-5
1627,38,-3,999,-15,25,0
1628,-110,-11,993,-17,29,2
1629,-173,-21,973,-18,13,-1
1630,-122,-27,986,-18,-13,-7
1631,17,-30,1011,-12,-29,-11
1632,121,-31,1007,-11,-22,-12
1633,156,-11,1007,-9,-1,-9
1634,54,-8,1006,-13,24,-1
1635,-88,-13,1000,-17,31,2
1636,-170,-20,970,-20,15,0
1637,-136,-25,977,-17,-10,-6
1638,-6,-36,1009,-13,-27,-13
1639,115,-30,1011,-10,-24,-13
1640,163,-13,1005,-10,-3,-8
1641,69,-3,1010,-12,21,-2
1642,-66,-12,1001,-17,30,0
1643,-166,-11,970,-18,19,0
1644,-145,-28,989,-17,-4,-3
1645,-34,-34,997,-14,-26,-10
1646,105,-26,1000,-12,-26,-13
1647,163,-14,1007,-10,-8,-11
1648,87,-8,1013,-13,17,-3
1649,-40,-11,1003,-16,30,0
1650,-157,-8,971,-19,22,1
1651,-158,-24,990,-15,-2,-4
1652,-56,-38,993,-15,-24,-10
1653,91,-25,1005,-11,-28,-13
1654,162,-20,1005,-10,-12,-12
1655,105,-11,1004,-13,14,-3
1656,-18,-8,1005,-15,29,1
1657,-146,-9,978,-18,26,3
1658,-165,-26,990,-18,3,-4
1659,-84,-35,985,-16,-21,-9
1660,75,-24,1013,-11,-29,-13
1661,152,-25,1005,-11,-15,-11
1662,123,-14,1003,-10,10,-5
1663,5,-6,999,-16,28,-1
1664,-134,-5,989,-19,29,2
1665,-172,-28,986,-19,7,-4
1666,-104,-34,983,-16,-18,-8
1667,57,-23,1006,-10,-30,-12
1668,138,-27,1015,-11,-17,-13
1669,140,-13,1009,-11,5,-7
1670,26,-4,994,-15,26,-1
1671,-116,-6,987,-18,29,2
1672,-171,-28,985,-18,10,-1
1673,-115,-28,983,-16,-14,-8
1674,30,-29,1009,-11,-29,-12
1675,129,-32,1010,-10,-21,-13
1676,153,-13,1005,-10,1,-7
1677,45,-4,999,-13,24,-2
1678,-96,-12,1001,-18,32,1
1679,-172,-22,969,-18,15,0
1680,-132,-26,977,-16,-10,-7
1681,7,-31,1017,-13,-29,-13
1682,117,-33,1006,-10,-23,-13
1683,160,-10,1006,-10,-2,-9
1684,62,-1,1010,-11,22,-1
1685,-79,-10,999,-16,31,2
1686,-164,-20,968,-20,18,1
1687,-147,-24,982,-18,-7,-4
1688,-19,-41,1006,-14,-26,-12
1689,112,-30,1003,-10,-26,-14
1690,161,-14,1009,-6,-8,-11
1691,81,-2,1008,-14,19,-3
1692,-55,-12,1002,-18,30,1
1693,-162,-9,968,-22,19,0
1694,-155,-29,993,-16,-4,-4
1695,-43,-40,991,-15,-26,-10
1696,97,-31,1004,-10,-27,-12
1697,163,-17,1006,-8,-10,-12
1698,93,-7,1011,-13,17,-3
1699,-28,-5,1002,-16,31,-1
1700,-158,-5,976,-17,24,2
1701,-158,-27,986,-17,0,-6
1702,-70,-40,995,-13,-22,-11
1703,84,-27,1007,-11,-28,-13
1704,152,-23,1005,-11,-13,-11
1705,116,-9,1002,-10,11,-3
1706,-8,-8,1001,-16,28,0
1707,-142,-2,985,-20,27,2
1708,-165,-27,987,-19,5,-3
1709,-93,-34,984,-16,-18,-8
1710,65,-27,1011,-12,-31,-12
1711,146,-28,1010,-10,-17,-10
1712,129,-16,1007,-11,8,-5
1713,14,-5,991,-14,28,0
1714,-129,-5,990,-16,29,4
1715,-169,-28,984,-19,7,-2
1716,-111,-31,982,-16,-16,-6
1717,48,-28,1011,-11,-29,-12
1718,135,-28,1011,-10,-20,-13
1719,144,-16,1007,-12,3,-6
1720,34,-5,997,-16,24,-2
1721,-110,-9,992,-19,31,2
1722,-173,-24,976,-18,11,-1
1723,-121,-26,982,-17,-13,-8
1724,21,-31,1013,-13,-30,-12
1725,123,-27,1006,-9,-23,-12
1726,153,-13,1006,-9,0,-8
1727,55,-2,1006,-15,24,-2
1728,-87,-12,999,-17,31,1
1729,-170,-17,968,-19,15,-1
1730,-133,-27,982,-17,-10,-6
1731,-7,-34,1010,-13,-28,-12
1732,115,-30,1009,-11,-24,-13
1733,160,-14,1007,-10,-5,-8
1734,67,-2,1005,-13,21,-2
1735,-66,-10,1004,-18,31,1
1736,-161,-17,971,-20,19,0
1737,-150,-27,987,-19,-4,-5
1738,-27,-41,999,-14,-26,-12
1739,103,-28,1001,-9,-25,-13
1740,163,-12,1008,-10,-9,-9
1741,86,-2,1010,-11,19,-4
1742,-42,-13,1007,-17,31,0
1743,-161,-12,968,-19,23,3
1744,-154,-31,989,-16,-2,-4
1745,-52,-41,993,-14,-24,-11
1746,91,-29,1007,-9,-27,-14
1747,159,-17,1001,-11,-11,-11
1748,103,-8,1011,-13,15,-5
1749,-20,0,996,-16,28,0
1750,-148,-8,981,-19,24,2
1751,-159,-29,988,-19,2,-4
1752,-79,-44,989,-15,-21,-9
1753,78,-23,1012,-12,-30,-13
1754,150,-25,1009,-8,-15,-11
1755,122,-10,1001,-9,11,-4
1756,-1,-3,997,-15,29,0
1757,-137,-2,989,-18,28,2
1758,-164,-31,986,-21,5,-4
1759,-101,-37,981,-15,-19,-9
1760,59,-28,1005,-10,-30,-13
1761,142,-30,1020,-11,-18,-12
1762,136,-9,1004,-10,7,-5
1763,20,-1,993,-14,27,-1
1764,-117,-6,988,-18,30,3
1765,-177,-25,983,-19,10,-3
1766,-111,-28,983,-18,-15,-9
1767,34,-33,1015,-13,-29,-12
1768,131,-29,1006,-10,-20,-13
1769,149,-14,1007,-11,3,-7
1770,43,0,1001,-13,24,-1
1771,-106,-10,999,-18,31,2
1772,-169,-23,972,-19,14,-1
1773,-130,-28,981,-17,-11,-6
1774,14,-33,1011,-12,-31,-13
1775,119,-33,1011,-11,-23,-12
1776,160,-9,1003,-10,-2,-8
1777,60,-3,1010,-14,23,-2
1778,-81,-8,1001,-16,31,2
1779,-167,-16,967,-19,16,-1
1780,-142,-26,982,-18,-8,-5
1781,-15,-36,1005,-13,-27,-12
1782,112,-32,1008,-12,-25,-13
1783,163,-13,1006,-10,-7,-10
1784,74,-6,1009,-12,20,-2
1785,-56,-10,1005,-16,30,1
1786,-163,-14,972,-19,21,1
1787,-148,-24,989,-18,-4,-6
1788,-43,-38,998,-14,-24,-11
1789,99,-29,998,-11,-26,-13
1790,162,-21,1009,-10,-10,-10
1791,91,-11,1009,-14,17,-4
1792,-30,-5,1006,-16,29,0
1793,-156,-8,974,-19,23,1
1794,-162,-23,985,-17,0,-4
1795,-62,-38,997,-15,-23,-11
1796,83,-27,1006,-12,-28,-12
1797,159,-25,1003,-11,-13,-12
1798,114,-15,1007,-10,12,-5
1799,-15,-8,999,-14,28,0
1800,-142,-5,983,-17,25,1
1801,-162,-26,995,-18,4,-2
1802,-91,-31,980,-16,-20,-8
1803,67,-27,1011,-13,-28,-14
1804,148,-26,1015,-10,-16,-11
1805,123,-18,1001,-12,8,-4
1806,17,-4,995,-14,27,-1
1807,-129,-6,989,-17,28,2
1808,-169,-22,987,-18,7,-3
1809,-107,-31,979,-17,-18,-8
1810,42,-27,1013,-12,-31,-13
1811,138,-29,1009,-13,-20,-13
1812,142,-16,1009,-11,4,-8
1813,34,0,993,-13,25,-1
1814,-111,-6,994,-17,29,2
1815,-170,-24,978,-18,12,-3
1816,-123,-28,985,-15,-12,-7
1817,25,-33,1012,-13,-30,-13
1818,123,-29,1006,-10,-22,-11
1819,159,-10,1006,-9,0,-7
1820,49,-1,1005,-14,25,0
1821,-89,-10,1002,-18,31,3
1822,-170,-24,965,-20,14,0
1823,-135,-24,979,-16,-10,-6
1824,-4,-42,1010,-14,-28,-11
1825,117,-26,1009,-11,-23,-13
1826,163,-14,1008,-12,-6,-7
1827,66,0,1007,-14,21,-2
1828,-68,-14,1002,-16,29,1
1829,-166,-15,968,-19,18,0
1830,-146,-29,990,-18,-6,-5
1831,-27,-40,996,-13,-27,-11
1832,105,-25,1004,-10,-26,-14
1833,165,-16,1007,-9,-7,-11
1834,80,-3,1009,-12,18,-2
1835,-42,-11,1001,-17,30,0
1836,-160,-11,975,-21,22,2
1837,-156,-28,986,-17,-2,-4
1838,-52,-40,990,-16,-25,-11
1839,91,-28,1010,-10,-28,-13
1840,159,-18,1002,-11,-11,-12
1841,101,-8,1009,-11,15,-4
1842,-23,-4,1003,-16,28,1
1843,-152,-8,980,-20,24,1
1844,-164,-28,986,-19,2,-3
1845,-79,-40,992,-16,-21,-8
1846,80,-26,1009,-12,-29,-13
1847,153,-24,1006,-11,-16,-11
1848,121,-11,1000,-9,10,-4
1849,0,-5,998,-16,28,0
1850,-140,-3,990,-19,27,3
1851,-167,-26,986,-20,4,-4
1852,-100,-35,984,-15,-21,-9
1853,60,-27,1008,-10,-30,-12
1854,141,-29,1016,-11,-17,-12
1855,137,-17,1006,-11,4,-6
1856,23,-2,992,-14,26,0
1857,-119,-4,990,-17,28,3
1858,-171,-25,983,-19,9,-2
1859,-112,-28,983,-16,-15,-8
1860,36,-28,1011,-13,-29,-12
1861,130,-30,1010,-9,-20,-13
1862,152,-15,1004,-10,2,-7
1863,43,-2,1000,-12,24,-2
1864,-101,-8,999,-19,31,3
1865,-172,-22,969,-20,14,0
1866,-132,-25,985,-15,-10,-6
1867,10,-32,1009,-13,-30,-13
1868,120,-31,1010,-10,-23,-13
1869,160,-10,1004,-10,-2,-8
1870,58,-5,1006,-14,23,-3
1871,-79,-14,1005,-17,31,1
1872,-167,-17,964,-19,16,-1
1873,-141,-27,985,-16,-7,-6
1874,-16,-36,1004,-12,-27,-11
1875,110,-28,1005,-10,-26,-13
1876,163,-11,1008,-10,-7,-9
1877,76,-4,1010,-14,20,-2
1878,-56,-14,999,-17,29,2
1879,-168,-16,971,-18,22,1
1880,-148,-27,993,-18,-3,-6
1881,-46,-39,994,-13,-25,-11
1882,106,-23,999,-10,-28,-14
1883,161,-17,1012,-11,-9,-11
1884,93,-3,1009,-14,16,-2
1885,-32,-12,1005,-17,29,0
1886,-157,-5,974,-19,23,1
1887,-159,-33,989,-19,1,-4
1888,-67,-38,991,-14,-23,-9
1889,88,-28,1008,-11,-30,-12
1890,161,-18,1005,-11,-14,-12
1891,110,-12,1003,-12,12,-3
1892,-8,-4,1004,-15,28,0
1893,-148,-8,984,-19,25,3
1894,-164,-26,985,-18,4,-3
1895,-88,-42,989,-15,-21,-9
1896,69,-23,1009,-9,-30,-13
1897,151,-23,1010,-10,-16,-12
1898,127,-13,1010,-11,8,-5
1899,7,-3,992,-14,28,1
1900,-130,-7,990,-17,29,2
1901,-172,-29,987,-19,8,-2
1902,-104,-32,978,-16,-17,-7
1903,49,-29,1012,-10,-30,-13
1904,137,-27,1014,-11,-18,-12
1905,143,-13,1005,-12,5,-6
1906,32,-1,998,-14,25,-1
1907,-114,-10,990,-19,29,1
1908,-172,-28,979,-18,12,-3
1909,-121,-30,983,-17,-12,-6
1910,26,-31,1012,-12,-28,-13
1911,130,-32,1009,-8,-21,-14
1912,154,-7,1004,-8,0,-8
1913,52,-1,1007,-14,23,-2
1914,-92,-14,1004,-18,31,1
1915,-170,-19,962,-20,14,-1
1916,-133,-27,982,-17,-9,-6
1917,0,-41,1008,-13,-29,-12
1918,116,-30,1010,-9,-23,-13
1919,163,-9,1004,-10,-4,-10
1920,65,-3,1011,-12,23,-2
1921,-68,-10,997,-15,30,2
1922,-169,-17,972,-19,19,0
1923,-144,-28,981,-18,-7,-6
1924,-29,-41,1004,-12,-26,-11
1925,111,-27,999,-10,-27,-13
1926,159,-17,1012,-11,-8,-9
1927,86,-3,1012,-11,18,-2
1928,-49,-11,1004,-17,31,1
1929,-160,-7,972,-17,22,0
1930,-157,-30,990,-17,-2,-5
1931,-54,-43,994,-16,-25,-10
1932,95,-30,1000,-11,-28,-12
1933,163,-20,1008,-10,-11,-11
1934,103,-6,1005,-12,14,-3
1935,-21,-6,1004,-16,30,-1
1936,-151,-5,978,-19,25,3
1937,-160,-30,986,-20,2,-4
1938,-75,-37,990,-14,-21,-9
1939,77,-28,1010,-12,-28,-13
1940,156,-23,1007,-9,-14,-12
1941,119,-14,1002,-11,10,-4
1942,0,-4,999,-15,27,-1
1943,-135,-5,992,-19,28,2
1944,-171,-24,986,-19,6,-2
1945,-99,-34,983,-17,-17,-8
1946,56,-31,1011,-10,-30,-14
1947,143,-26,1009,-12,-18,-13
1948,135,-18,1012,-11,6,-7
1949,23,0,992,-13,27,-2
1950,-121,-4,990,-21,30,3
1951,-170,-23,989,-17,9,-4
1952,-107,-22,1003,-14,-15,-9
1953,51,-18,1000,-11,-28,-13
1954,131,-16,998,-10,-16,-13
1955,133,-4,1020,-13,4,-6
1956,16,-14,1001,-17,25,-1
1957,-112,-29,988,-21,28,2
1958,-180,-37,969,-20,11,-1
1959,-108,-32,983,-14,-15,-8
1960,32,-39,1003,-11,-29,-12
1961,123,-26,1011,-9,-21,-12
1962,158,-9,1016,-10,0,-9
1963,45,-7,996,-15,24,-2
1964,-90,-12,996,-18,30,1
1965,-168,-25,978,-21,14,-1
1966,-127,-24,980,-15,-10,-6
1967,-4,-31,1005,-12,-26,-11
1968,118,-20,1014,-9,-22,-13
1969,159,-12,1004,-10,-3,-7
1970,63,-5,1004,-13,21,-1
1971,-65,-12,1005,-16,30,1
1972,-161,-17,973,-20,18,0
1973,-148,-28,990,-17,-5,-5
1974,-40,-37,996,-16,-26,-10
1975,102,-25,1006,-8,-26,-14
1976,157,-14,1003,-11,-8,-10
1977,91,-5,1013,-15,17,-3
1978,-31,-12,1003,-18,29,1
1979,-156,-11,972,-19,23,2
1980,-154,-28,987,-16,-1,-4
1981,-66,-40,993,-15,-22,-9
1982,85,-24,1007,-10,-27,-13
1983,153,-23,1005,-11,-11,-11
1984,105,-8,1003,-11,12,-4
1985,-13,-6,997,-17,28,-1
1986,-145,-8,986,-19,26,1
1987,-162,-29,986,-18,3,-4
1988,-86,-40,990,-15,-19,-10
1989,71,-23,1010,-10,-30,-13
1990,149,-24,1011,-10,-16,-13
1991,130,-11,1007,-10,9,-6
1992,10,-3,993,-16,28,0
1993,-125,-3,987,-19,29,2
1994,-168,-28,991,-20,7,-3
1995,-101,-30,979,-17,-16,-7
1996,48,-31,1012,-12,-29,-12
1997,140,-33,1015,-11,-19,-13
1998,141,-19,1001,-11,4,-6
1999,34,-1,996,-14,25,-2
2000,-113,-7,994,-19,29,3
2001,-171,-22,974,-18,12,-3
2002,-123,-22,986,-15,-12,-6
2003,23,-29,1014,-13,-29,-13
2004,121,-31,1004,-13,-23,-13
2005,156,-14,1006,-10,0,-8
2006,47,-8,1003,-15,23,-1
2007,-89,-11,1002,-17,31,2
2008,-169,-21,965,-19,16,0
2009,-137,-18,984,-16,-9,-6
2010,-2,-34,1007,-13,-28,-11
2011,112,-26,1011,-13,-22,-11
2012,163,-14,1004,-12,-5,-9
2013,66,-7,1012,-13,21,-2
2014,-66,-14,999,-16,29,1
2015,-163,-17,969,-18,18,-1
2016,-145,-28,988,-17,-5,-5
2017,-33,-35,1000,-14,-26,-12
2018,106,-26,1004,-13,-26,-13
2019,159,-17,1007,-10,-9,-10
2020,88,-4,1010,-12,17,-4
2021,-43,-17,1002,-16,30,0
2022,-158,-13,972,-18,21,1
2023,-153,-33,989,-17,-2,-4
2024,-55,-38,997,-12,-25,-11
2025,94,-26,1001,-12,-29,-14
2026,159,-17,1007,-10,-10,-11
2027,105,-9,1003,-12,15,-2
2028,-20,-7,1006,-15,30,0
2029,-148,-7,975,-19,25,3
2030,-158,-30,993,-17,3,-2
2031,-81,-38,983,-18,-18,-7
2032,71,-24,1011,-4,-26,-12
2033,151,-23,1007,-5,-12,-10
2034,118,-11,1004,-11,11,-3
2035,2,-4,997,-16,27,-1
2036,-136,-9,992,-19,28,2
2037,-166,-28,983,-19,6,-3
2038,-103,-36,985,-15,-17,-8
2039,57,-28,1009,-9,-28,-13
2040,141,-25,1016,-9,-18,-12
2041,140,-8,1003,-10,5,-6
2042,23,-1,995,-15,26,-1
2043,-117,-7,985,-18,29,3
2044,-171,-29,982,-19,8,-2
2045,-114,-32,984,-16,-14,-8
2046,32,-33,1009,-14,-29,-12
2047,128,-27,1010,-11,-21,-12
2048,150,-10,1005,-10,2,-7
2049,43,-4,1002,-15,25,-1
2050,-98,-12,1001,-18,31,2
2051,-171,-22,969,-18,14,-2
2052,-128,-25,981,-17,-12,-7
2053,9,-36,1013,-14,-29,-13
2054,118,-29,1005,-12,-23,-13
2055,160,-12,1005,-11,-3,-8
2056,56,-6,1006,-13,22,-2
2057,-76,-12,1000,-16,30,1
2058,-167,-19,967,-19,17,0
2059,-144,-24,985,-16,-6,-6
2060,-19,-38,1000,-13,-25,-11
2061,105,-27,1003,-9,-25,-13
2062,161,-13,1007,-12,-7,-10
2063,77,-2,1014,-13,19,-3
2064,-51,-14,999,-18,30,1
2065,-159,-8,970,-20,21,2
2066,-150,-31,991,-18,-3,-5
2067,-49,-37,995,-15,-25,-11
2068,95,-24,1003,-10,-27,-13
2069,163,-21,1009,-9,-10,-12
2070,93,-5,1009,-12,17,-3
2071,-23,-6,1003,-15,29,0
2072,-151,-10,979,-19,25,2
2073,-157,-28,987,-18,1,-3
2074,-70,-39,991,-16,-20,-9
2075,83,-27,1012,-12,-28,-14
2076,151,-23,1004,-10,-14,-12
2077,117,-14,1003,-10,11,-4
2078,-6,-3,999,-15,28,0
2079,-136,-4,989,-19,27,3
2080,-167,-30,987,-19,5,-3
2081,-92,-37,983,-16,-19,-9
2082,62,-27,1011,-11,-28,-13
2083,144,-26,1012,-12,-16,-11
2084,132,-13,1009,-12,8,-5
2085,17,-1,990,-14,28,-1
2086,-124,-9,987,-19,28,4
2087,-169,-26,985,-17,7,-3
2088,-111,-32,983,-16,-15,-8
2089,37,-30,1008,-12,-29,-14
2090,130,-29,1011,-11,-19,-14
2091,146,-13,1005,-10,3,-8
2092,39,-2,1001,-14,26,-2
2093,-104,-11,998,-18,29,3
2094,-168,-22,969,-19,13,-1
2095,-128,-24,983,-16,-12,-6
2096,14,-32,1012,-13,-29,-12
2097,118,-31,1007,-10,-21,-13
2098,160,-13,1005,-9,-1,-7
2099,57,-4,1008,-14,23,-1
2100,-82,-14,998,-17,29,2
2101,-166,-18,970,-19,16,-1
2102,-137,-24,982,-16,-8,-7
2103,-12,-40,1007,-13,-27,-11
2104,113,-28,1006,-11,-25,-13
2105,160,-13,1007,-10,-7,-10
2106,70,-3,1008,-11,18,-3
2107,-59,-11,1002,-18,29,1
2108,-162,-16,971,-18,22,1
2109,-150,-28,991,-19,-3,-3
2110,-37,-38,997,-14,-25,-10
2111,98,-27,999,-10,-27,-12
2112,156,-15,1007,-10,-10,-9
2113,92,-9,1011,-12,17,-3
2114,-33,-10,1004,-16,30,0
2115,-155,-5,970,-18,23,3
2116,-157,-29,989,-16,0,-3
2117,-66,-38,992,-14,-23,-10
2118,87,-27,1005,-12,-27,-13
2119,155,-21,1007,-10,-12,-11
2120,111,-15,1001,-13,12,-4
2121,-12,-7,1001,-15,28,0
2122,-144,-2,986,-19,26,3
2123,-163,-27,987,-19,5,-4
2124,-89,-33,984,-16,-19,-9
2125,66,-24,1008,-11,-31,-13
2126,147,-25,1012,-11,-16,-13
2127,129,-16,1005,-11,9,-6
2128,12,-4,995,-14,27,-1
2129,-125,-7,987,-18,28,3
2130,-167,-25,990,-18,7,-1
2131,-108,-29,982,-16,-16,-8
2132,45,-26,1011,-12,-29,-12
2133,134,-31,1015,-10,-19,-11
2134,144,-14,1002,-10,4,-6
2135,36,-4,997,-13,25,-2
2136,-110,-10,996,-16,30,2
2137,-169,-22,970,-18,11,-2
2138,-124,-25,989,-16,-12,-7
2139,21,-29,1012,-13,-28,-12
2140,120,-30,1005,-10,-21,-13
2141,155,-10,1006,-9,0,-7
2142,48,-5,1004,-14,23,-1
2143,-87,-11,999,-17,30,2
2144,-169,-19,968,-17,17,0
2145,-134,-24,980,-15,-8,-5
2146,-8,-35,1007,-12,-27,-11
2147,111,-28,1007,-11,-23,-13
2148,160,-18,1005,-11,-3,-10
2149,68,-5,1009,-12,20,-2
2150,-64,-16,999,-15,30,2
2151,-161,-8,971,-18,19,1
2152,-145,-26,991,-19,-4,-5
2153,-36,-35,994,-15,-25,-11
2154,103,-28,1005,-13,-27,-13
2155,158,-20,1009,-11,-9,-11
2156,87,-9,1011,-14,18,-3
2157,-35,-13,1002,-17,31,0
2158,-155,-9,974,-19,23,1
2159,-153,-26,987,-16,-1,-5
2160,-61,-40,998,-16,-23,-10
2161,88,-23,1005,-11,-28,-12
2162,158,-22,1005,-10,-12,-11
2163,106,-11,1009,-12,12,-4
2164,-14,-10,1000,-14,28,0
2165,-147,-5,984,-18,27,2
2166,-162,-29,986,-19,4,-4
2167,-85,-37,988,-16,-19,-10
2168,71,-26,1010,-11,-30,-12
2169,150,-23,1011,-9,-15,-11
2170,123,-12,1002,-10,9,-4
2171,3,-2,994,-15,27,0
2172,-133,-7,989,-18,28,2
2173,-166,-27,987,-19,5,-3
2174,-104,-31,978,-15,-18,-9
2175,53,-26,1013,-11,-30,-13
2176,139,-30,1011,-11,-18,-11
2177,139,-15,1005,-11,6,-6
2178,29,-2,995,-14,26,-2
2179,-116,-8,989,-19,29,3
2180,-166,-25,979,-20,10,-3
2181,-116,-28,988,-16,-13,-7
2182,27,-30,1010,-13,-29,-12
2183,126,-32,1009,-9,-20,-12
2184,153,-11,1005,-9,1,-8
2185,49,-5,1005,-14,24,-2
2186,-90,-13,1001,-16,30,2
2187,-170,-18,967,-19,14,-1
2188,-132,-25,981,-17,-9,-6
2189,0,-37,1010,-14,-29,-13
2190,114,-30,1006,-12,-24,-12
2191,165,-13,1008,-10,-4,-8
2192,61,-6,1010,-12,21,-1
2193,-70,-9,998,-16,29,1
2194,-164,-20,972,-19,18,0
2195,-144,-23,990,-17,-6,-5
2196,-25,-39,998,-13,-26,-10
2197,107,-28,1004,-12,-26,-13
2198,160,-15,1005,-10,-9,-10
2199,83,-7,1009,-13,17,-4
2200,-46,-15,1005,-17,30,0
2201,-160,-7,969,-18,21,0
2202,-152,-26,993,-18,-2,-6
2203,-57,-35,993,-14,-24,-12
2204,91,-25,1004,-11,-27,-12
2205,158,-21,1006,-10,-11,-11
2206,102,-12,1007,-11,14,-3
2207,-19,-8,1001,-16,29,0
2208,-148,-8,981,-18,24,2
2209,-162,-28,988,-17,3,-4
2210,-79,-34,990,-15,-19,-9
2211,73,-24,1012,-13,-28,-11
2212,154,-20,1007,-11,-15,-11
2213,119,-18,1001,-11,11,-4
2214,2,-4,998,-14,28,0
2215,-131,-6,990,-20,28,3
2216,-166,-29,987,-18,6,-4
2217,-100,-32,979,-16,-18,-9
2218,52,-25,1012,-12,-29,-12
2219,142,-26,1012,-11,-17,-11
2220,138,-17,1009,-11,7,-5
2221,26,-3,987,-15,27,0
2222,-116,-8,993,-16,30,2
2223,-172,-26,979,-18,9,-1
2224,-115,-29,987,-15,-12,-7
2225,34,-27,1012,-12,-28,-12
2226,125,-28,1008,-12,-20,-12
2227,152,-10,1005,-11,1,-7
2228,40,-5,1004,-15,25,-1
2229,-97,-12,996,-20,30,3
2230,-172,-27,969,-21,14,0
2231,-128,-22,979,-16,-11,-5
2232,6,-34,1013,-11,-28,-12
2233,119,-25,1009,-10,-23,-13
2234,158,-11,1009,-11,-3,-9
2235,57,-3,1005,-13,23,-3
2236,-75,-12,1005,-17,30,1
2237,-163,-16,966,-19,16,0
2238,-142,-30,987,-19,-6,-5
2239,-21,-39,1000,-14,-26,-10
2240,108,-27,1006,-9,-25,-14
2241,163,-15,1006,-9,-7,-10
2242,78,0,1012,-11,18,-3
2243,-45,-9,1004,-17,30,0
2244,-163,-11,972,-20,22,1
2245,-151,-27,989,-17,-3,-5
2246,-50,-41,994,-16,-24,-10
2247,101,-28,1001,-11,-27,-13
2248,157,-23,1008,-11,-9,-10
2249,97,-7,1006,-12,16,-3
2250,-26,-10,1003,-16,30,0
2251,-152,-4,975,-18,24,2
2252,-159,-24,988,-17,1,-3
2253,-68,-38,995,-16,-21,-9
2254,82,-32,1007,-12,-27,-12
2255,152,-24,1005,-10,-13,-12
2256,117,-17,1004,-11,12,-4
2257,-8,-3,997,-15,27,0
2258,-135,-2,985,-16,26,1
2259,-168,-24,994,-18,5,-3
2260,-93,-34,978,-18,-19,-7
2261,60,-24,1009,-11,-29,-12
2262,143,-30,1013,-10,-18,-13
2263,132,-16,1007,-11,8,-5
2264,19,-3,988,-13,28,0
2265,-126,-5,991,-17,29,4
2266,-165,-23,986,-19,7,-2
2267,-114,-31,983,-17,-15,-6
2268,42,-27,1010,-11,-29,-12
2269,133,-33,1016,-11,-19,-12
2270,144,-15,1000,-11,2,-6
2271,41,-1,1000,-14,25,0
2272,-101,-11,997,-17,30,2
2273,-172,-18,971,-19,13,-1
2274,-120,-26,984,-17,-11,-7
2275,12,-33,1014,-12,-28,-12
2276,121,-31,1004,-13,-22,-12
2277,156,-14,1008,-10,-1,-10
2278,58,-5,1007,-14,22,-2
2279,-83,-13,997,-17,30,2
2280,-166,-16,971,-19,15,0
2281,-140,-22,981,-18,-7,-5
2282,-13,-31,1007,-13,-28,-11
2283,112,-30,1006,-11,-25,-14
2284,160,-13,1011,-11,-5,-9
2285,73,-5,1004,-13,20,-2
2286,-60,-17,1008,-16,30,1
2287,-156,-13,968,-20,21,0
2288,-153,-26,992,-16,-3,-3
2289,-39,-31,995,-14,-26,-11
2290,97,-29,1005,-11,-27,-12
2291,160,-17,1004,-10,-10,-10
2292,91,-8,1015,-14,16,-2
2293,-31,-14,1002,-18,29,0
2294,-159,-11,974,-18,23,2
2295,-155,-24,985,-17,-1,-5
2296,-66,-39,1001,-15,-22,-11
2297,89,-23,1005,-11,-28,-13
2298,152,-20,1005,-11,-11,-11
2299,115,-12,1004,-12,12,-4
2300,-14,-10,998,-14,29,0
2301,-141,-4,985,-19,25,3
2302,-163,-34,989,-19,3,-2
2303,-90,-32,986,-13,-21,-9
2304,68,-26,1008,-10,-31,-12
2305,144,-22,1012,-8,-18,-11
2306,131,-13,1006,-12,8,-5
2307,12,-2,993,-15,27,0
2308,-129,-9,988,-19,28,3
2309,-165,-30,990,-18,7,-3
2310,-111,-28,979,-17,-18,-8
2311,48,-28,1007,-14,-28,-13
2312,134,-28,1020,-11,-18,-13
2313,141,-9,1000,-11,4,-6
2314,33,-3,996,-14,26,-2
2315,-108,-13,993,-19,28,2
2316,-168,-27,972,-19,11,-1
2317,-119,-27,986,-14,-12,-7
2318,21,-32,1016,-13,-29,-12
2319,120,-26,1002,-10,-21,-13
2320,152,-11,1006,-11,0,-7
2321,47,-1,1004,-14,23,-1
2322,-85,-14,997,-18,30,2
2323,-166,-18,969,-19,13,-1
2324,-134,-29,982,-17,-10,-5
2325,-4,-37,1009,-11,-27,-12
2326,114,-30,1008,-10,-24,-13
2327,161,-10,1010,-11,-4,-9
2328,64,-1,1006,-13,21,-2
2329,-67,-10,1003,-17,28,2
2330,-163,-10,970,-20,17,0
2331,-145,-31,989,-17,-5,-6
2332,-31,-38,1000,-13,-25,-11
2333,108,-28,998,-10,-26,-14
2334,160,-16,1010,-9,-7,-10
2335,85,-4,1012,-13,18,-2
2336,-41,-8,1002,-18,30,0
2337,-159,-8,974,-19,22,1
2338,-153,-26,989,-16,-4,-4
2339,-58,-38,991,-16,-24,-11
2340,91,-27,1009,-9,-28,-13
2341,159,-21,1003,-12,-12,-11
2342,104,-10,1005,-11,15,-4
2343,-18,-6,1003,-15,28,-1
2344,-148,-6,984,-19,24,2
2345,-160,-29,983,-19,2,-4
2346,-83,-38,993,-16,-20,-10
2347,76,-26,1006,-11,-29,-13
2348,154,-25,1010,-9,-15,-12
2349,123,-12,1005,-11,10,-5
2350,1,-3,994,-16,30,0
2351,-130,-4,989,-18,27,1
2352,-169,-29,988,-20,6,-2
2353,-99,-32,981,-15,-19,-9
2354,51,-27,1010,-11,-30,-12
2355,141,-25,1014,-12,-17,-11
2356,140,-16,1006,-11,7,-6
2357,26,0,996,-12,25,0
2358,-115,-9,990,-18,28,3
2359,-170,-26,980,-18,11,-2
2360,-117,-30,985,-17,-13,-6
2361,31,-35,1010,-13,-31,-13
2362,125,-27,1008,-11,-21,-12
2363,154,-10,1002,-11,0,-8
2364,43,-2,1010,-13,25,-2
2365,-91,-11,993,-19,30,0
2366,-172,-20,969,-15,16,-1
2367,-129,-27,980,-14,-12,-7
2368,0,-38,1011,-13,-27,-12
2369,115,-30,1008,-11,-23,-13
2370,161,-14,1007,-11,-4,-10
2371,62,-5,1005,-13,22,-3
2372,-70,-12,999,-18,30,1
2373,-165,-18,971,-19,17,-1
2374,-145,-25,987,-18,-5,-5
2375,-26,-36,1002,-16,-27,-10
2376,106,-26,1004,-11,-24,-13
2377,163,-18,1007,-10,-8,-11
2378,80,-6,1013,-13,18,-3
2379,-47,-10,1002,-16,30,1
2380,-158,-12,973,-20,22,2
2381,-151,-26,991,-18,-3,-4
2382,-49,-38,992,-15,-24,-10
2383,95,-28,1008,-10,-27,-14
2384,157,-21,1005,-11,-10,-10
2385,100,-5,1008,-12,15,-4
2386,-20,-9,1005,-15,29,0
2387,-150,-4,976,-19,24,3
2388,-158,-29,987,-19,2,-3
2389,-77,-39,995,-16,-22,-8
2390,80,-26,1011,-12,-30,-12
2391,155,-23,1008,-10,-16,-12
2392,119,-10,1004,-10,11,-4
2393,-1,-6,999,-15,29,-1
2394,-140,-5,984,-18,28,2
2395,-166,-30,991,-20,6,-3
2396,-94,-33,979,-16,-18,-9
2397,57,-23,1010,-11,-30,-13
2398,142,-27,1014,-11,-16,-12
2399,134,-12,1006,-12,6,-5
2400,19,-5,992,-13,26,0
2401,-117,-6,985,-17,28,4
2402,-171,-28,984,-19,10,-2
2403,-111,-26,984,-16,-14,-8
2404,34,-30,1014,-13,-29,-13
2405,129,-27,1007,-11,-19,-12
2406,147,-10,1006,-11,2,-6
2407,42,-2,1000,-14,24,-2
2408,-100,-12,997,-18,31,2
2409,-170,-24,971,-19,13,-3
2410,-127,-27,980,-16,-11,-7
2411,10,-32,1013,-13,-29,-13
2412,117,-28,1008,-10,-22,-13
2413,161,-12,1006,-11,-2,-10
2414,55,-5,1004,-14,23,-1
2415,-76,-10,1003,-16,29,2
2416,-167,-21,968,-19,17,-1
2417,-143,-23,984,-16,-7,-5
2418,-13,-37,1002,-13,-26,-13
2419,107,-29,1009,-11,-25,-13
2420,163,-12,1002,-10,-6,-8
2421,75,-6,1015,-13,19,-2
2422,-57,-15,999,-16,29,2
2423,-161,-9,973,-19,20,2
2424,-148,-28,989,-18,-3,-4
2425,-48,-35,996,-14,-26,-11
2426,104,-24,1003,-10,-29,-13
2427,155,-21,1005,-10,-9,-11
2428,98,-9,1013,-13,17,-4
2429,-30,-15,998,-16,30,-1
2430,-155,-7,977,-18,23,1
2431,-155,-29,989,-17,-2,-5
2432,-74,-32,993,-14,-21,-9
2433,88,-27,1008,-11,-29,-13
2434,153,-22,1007,-10,-14,-12
2435,116,-11,1000,-11,11,-4
2436,-8,-8,1004,-16,28,0
2437,-140,-8,987,-19,27,2
2438,-164,-27,987,-19,6,-3
2439,-91,-36,984,-15,-19,-9
2440,60,-23,1012,-11,-29,-12
2441,148,-25,1011,-10,-16,-11
2442,127,-15,1007,-10,8,-4
2443,17,-1,991,-14,26,-1
2444,-123,-12,986,-19,27,2
2445,-169,-26,984,-19,8,-3
2446,-110,-30,985,-17,-15,-9
2447,43,-27,1011,-11,-29,-13
2448,131,-27,1010,-10,-18,-13
2449,145,-11,1006,-10,4,-7
2450,38,-1,1000,-13,26,-1
2451,-106,-13,992,-18,30,3
2452,-173,-25,974,-17,12,-1
2453,-123,-28,984,-16,-12,-6
2454,13,-31,1007,-13,-30,-12
2455,121,-26,1011,-10,-22,-11
2456,158,-13,1005,-11,0,-7
2457,52,-1,1005,-15,23,0
2458,-84,-13,1003,-18,29,2
2459,-168,-21,969,-21,16,0
2460,-134,-29,981,-16,-8,-6
2461,-12,-32,1006,-13,-27,-11
2462,113,-28,1008,-11,-25,-14
2463,162,-9,1008,-10,-6,-9
2464,67,-3,1005,-14,20,-2
2465,-59,-12,1003,-18,30,0
2466,-159,-21,971,-19,19,1
2467,-149,-28,988,-18,-5,-5
2468,-37,-39,997,-14,-26,-12
2469,104,-24,1003,-10,-26,-15
2470,159,-16,1004,-9,-9,-11
2471,90,-5,1014,-13,17,-3
2472,-35,-11,1004,-16,30,1
2473,-158,-11,971,-19,23,3
2474,-156,-28,991,-18,-1,-5
2475,-64,-40,993,-13,-23,-11
2476,89,-26,1005,-11,-27,-12
2477,153,-23,1006,-11,-12,-11
2478,113,-7,1006,-11,12,-3
2479,-13,-4,998,-15,28,0
2480,-145,-4,984,-20,26,1
2481,-161,-33,989,-19,4,-4
2482,-89,-36,985,-17,-19,-7
2483,69,-30,1010,-12,-30,-12
2484,151,-25,1014,-10,-16,-13
2485,121,-14,999,-11,9,-6
2486,12,-1,994,-14,28,-1
2487,-129,-8,992,-19,28,2
2488,-171,-24,982,-20,7,-1
2489,-107,-32,984,-17,-16,-7
2490,48,-30,1010,-12,-29,-13
2491,135,-29,1009,-11,-18,-13
2492,143,-14,1007,-11,3,-6
2493,32,-2,997,-14,25,-1
2494,-111,-6,989,-17,30,2
2495,-168,-24,980,-19,12,-2
2496,-123,-24,986,-17,-12,-6
2497,25,-35,1009,-14,-28,-12
2498,120,-33,1010,-10,-22,-12
2499,156,-12,1003,-10,-1,-8
2500,48,-2,1006,-13,23,0
2501,-90,-9,1000,-17,30,2
2502,-170,-20,968,-18,15,0
2503,-130,-25,979,-17,-11,-6
2504,-6,-36,1008,-14,-29,-11
2505,113,-29,1010,-11,-24,-14
2506,165,-13,1006,-10,-3,-10
2507,67,-3,1009,-12,21,-4
2508,-65,-9,1001,-15,29,1
2509,-166,-15,971,-21,19,0
2510,-147,-26,989,-17,-7,-5
2511,-29,-40,999,-14,-28,-12
2512,106,-25,1002,-9,-27,-13
2513,163,-14,1007,-10,-10,-9
2514,85,-5,1013,-13,17,-3
2515,-45,-8,1004,-18,30,2
2516,-157,-12,972,-20,23,1
2517,-155,-27,990,-18,-2,-4
2518,-56,-39,993,-15,-24,-11
2519,91,-27,1007,-10,-26,-12
2520,157,-20,1004,-10,-10,-11
2521,101,-7,1006,-11,14,-3
2522,-16,-5,1001,-15,28,0
2523,-151,-7,981,-19,25,3
2524,-158,-26,986,-18,2,-4
2525,-81,-39,990,-15,-20,-10
2526,74,-25,1008,-11,-29,-14
2527,151,-25,1009,-9,-15,-12
2528,122,-12,1002,-10,9,-5
2529,2,-4,997,-15,28,-1
2530,-133,-5,989,-18,27,2
2531,-168,-27,987,-20,6,-2
2532,-101,-33,980,-16,-17,-9
2533,55,-27,1013,-11,-29,-12
2534,141,-28,1011,-10,-17,-13
2535,137,-14,1008,-10,6,-6
2536,27,-2,994,-15,26,-1
2537,-119,-8,988,-17,29,2
2538,-170,-21,982,-20,11,-2
2539,-115,-29,985,-18,-13,-7
2540,31,-27,1011,-13,-29,-13
2541,127,-33,1008,-12,-21,-12
2542,152,-11,1007,-8,0,-8
2543,45,-5,1001,-14,24,0
2544,-98,-6,1001,-17,30,1
2545,-169,-24,971,-19,14,-2
2546,-130,-25,977,-18,-10,-6
2547,8,-36,1012,-14,-30,-13
2548,116,-31,1009,-11,-23,-12
2549,163,-9,1005,-9,-2,-9
2550,63,-3,1009,-13,22,-1
2551,-79,-11,1002,-15,29,2
2552,-161,-16,968,-20,16,0
2553,-144,-28,988,-17,-6,-5
2554,-18,-38,1001,-14,-26,-12
2555,109,-29,1007,-9,-24,-13
2556,163,-15,1007,-8,-8,-9
2557,80,-4,1012,-12,18,-2
2558,-52,-12,1003,-17,30,0
2559,-160,-11,970,-19,21,2
2560,-152,-24,991,-18,-4,-5
2561,-50,-41,993,-14,-25,-10
2562,95,-27,1005,-9,-29,-13
2563,160,-22,1003,-10,-11,-10
2564,98,-6,1010,-13,15,-2
2565,-23,-7,1004,-16,29,0
2566,-152,-7,977,-21,24,2
2567,-158,-29,987,-19,1,-3
2568,-76,-40,990,-15,-20,-9
2569,83,-26,1008,-11,-29,-13
2570,155,-24,1009,-11,-13,-10
2571,117,-11,1000,-10,10,-4
2572,-4,-6,1000,-17,28,1
2573,-138,-5,986,-18,26,3
2574,-168,-31,988,-19,5,-3
2575,-95,-37,981,-16,-18,-9
2576,60,-24,1008,-10,-29,-13
2577,144,-23,1017,-9,-17,-13
2578,133,-11,1005,-12,7,-5
2579,15,0,994,-15,27,0
2580,-120,-6,985,-19,29,3
2581,-170,-31,985,-19,9,-2
2582,-110,-32,981,-17,-15,-7
2583,39,-33,1016,-11,-28,-13
2584,130,-30,1010,-10,-19,-13
2585,149,-11,1004,-10,2,-6
2586,43,0,1001,-14,24,-2
2587,-103,-10,995,-19,30,2
2588,-170,-25,971,-19,14,-2
2589,-126,-28,983,-17,-11,-5
2590,13,-36,1010,-13,-29,-13
2591,118,-30,1008,-9,-23,-13
2592,158,-9,1008,-11,-3,-8
2593,60,-1,1007,-13,23,-1
2594,-80,-10,999,-18,30,2
2595,-167,-16,970,-20,16,-1
2596,-145,-28,980,-18,-7,-6
2597,-14,-40,1008,-14,-27,-12
2598,109,-29,1004,-11,-24,-12
2599,162,-15,1006,-12,-5,-11
2600,77,-2,1012,-11,19,-3
2601,-59,-7,1002,-16,31,1
2602,-161,-13,971,-20,21,-1
2603,-153,-27,993,-17,-3,-4
2604,-41,-36,989,-17,-25,-12
2605,101,-31,1008,-11,-27,-14
2606,163,-19,1006,-9,-10,-11
2607,93,-6,1009,-15,18,-3
2608,-33,-8,1007,-15,30,1
2609,-154,-7,971,-19,23,2
2610,-155,-24,991,-18,0,-2
2611,-68,-38,996,-15,-23,-10
2612,86,-27,1009,-12,-27,-14
2613,157,-25,1002,-11,-12,-10
2614,111,-12,1005,-11,13,-3
2615,-6,-8,999,-15,28,0
2616,-144,-7,987,-18,26,3
2617,-161,-25,985,-19,3,-4
2618,-91,-36,989,-18,-19,-8
2619,67,-21,1006,-12,-30,-12
2620,143,-27,1015,-11,-17,-12
2621,128,-13,1007,-11,8,-6
2622,12,-5,991,-16,26,0
2623,-125,-4,987,-18,27,3
2624,-168,-28,989,-19,7,-2
2625,-108,-30,981,-16,-16,-8
2626,49,-29,1010,-12,-29,-11
2627,131,-27,1016,-10,-18,-13
2628,143,-14,1003,-12,4,-6
2629,32,-4,1000,-14,25,0
2630,-109,-8,991,-18,29,3
2631,-172,-23,977,-19,12,-1
2632,-118,-30,981,-16,-11,-8
2633,17,-35,1014,-10,-29,-12
2634,125,-24,1004,-9,-22,-13
2635,156,-13,1009,-10,0,-7
2636,54,-2,1004,-13,23,-2
2637,-88,-12,1002,-17,30,1
2638,-168,-20,970,-19,15,-1
2639,-138,-31,978,-17,-9,-6
2640,-4,-35,1009,-12,-29,-13
2641,111,-29,1011,-10,-24,-13
2642,167,-10,1005,-11,-4,-9
2643,65,-5,1006,-12,21,0
2644,-65,-9,1002,-16,30,0
2645,-164,-14,973,-20,20,0
2646,-151,-26,987,-19,-3,-5
2647,-31,-39,998,-15,-26,-12
2648,104,-29,1004,-10,-27,-12
2649,159,-15,1004,-9,-9,-10
2650,88,-4,1018,-12,18,-3
2651,-41,-12,1002,-17,31,0
2652,-157,-11,971,-19,23,1
2653,-152,-27,989,-17,0,-4
2654,-61,-41,992,-15,-22,-10
2655,93,-28,1008,-11,-27,-13
2656,156,-21,1005,-10,-11,-11
2657,109,-7,1002,-12,14,-3
2658,-17,-9,1006,-15,28,0
2659,-149,-2,979,-19,25,2
2660,-163,-30,987,-18,4,-4
2661,-81,-35,990,-16,-20,-10
2662,70,-28,1006,-13,-31,-12
2663,154,-25,1010,-9,-16,-12
2664,123,-15,1005,-11,9,-4
2665,5,-2,992,-14,28,0
2666,-130,-8,991,-17,28,1
2667,-172,-26,984,-20,7,-2
2668,-102,-34,982,-15,-18,-8
2669,53,-28,1011,-10,-29,-12
2670,138,-27,1016,-11,-18,-11
2671,140,-14,1006,-10,5,-5
2672,29,-3,995,-13,25,-2
2673,-114,-9,990,-17,29,3
2674,-172,-22,981,-19,10,-2
2675,-118,-27,984,-18,-13,-7
2676,28,-31,1011,-13,-29,-12
2677,126,-32,1008,-10,-21,-12
2678,152,-14,1004,-9,2,-8
2679,48,-3,1004,-15,25,-1
2680,-96,-11,1000,-17,31,2
2681,-168,-18,968,-18,14,-2
2682,-134,-24,980,-17,-11,-5
2683,0,-36,1009,-12,-30,-12
2684,117,-30,1011,-11,-23,-13
2685,160,-14,1006,-11,-3,-9
2686,64,-5,1004,-13,22,-2
2687,-71,-12,1006,-16,30,2
2688,-164,-15,965,-19,18,1
2689,-144,-24,990,-17,-6,-6
2690,-26,-37,998,-15,-27,-12
2691,106,-30,1005,-11,-26,-14
2692,163,-18,1006,-9,-10,-10
2693,80,-6,1016,-12,19,-2
2694,-43,-8,1002,-17,31,1
2695,-161,-8,970,-18,23,1
2696,-152,-26,989,-17,-1,-4
2697,-54,-41,993,-15,-25,-11
2698,93,-30,1007,-9,-27,-12
2699,163,-21,1002,-12,-11,-11
2700,100,-7,1012,-11,15,-3
2701,-19,-5,998,-15,28,0
2702,-151,-6,982,-18,25,1
2703,-158,-27,987,-17,2,-3
2704,-80,-39,991,-19,-16,-6
2705,77,-25,1009,-11,-28,-13
2706,154,-22,1009,-13,-16,-12
2707,119,-14,1004,-10,11,-6
2708,-1,-5,995,-15,28,-1
2709,-134,-5,993,-19,28,2
2710,-170,-30,985,-19,7,-2
2711,-100,-32,981,-17,-19,-8
2712,59,-29,1013,-12,-31,-14
2713,139,-28,1011,-10,-18,-13
2714,140,-12,1007,-12,7,-5
2715,21,-5,995,-13,27,-2
2716,-120,-10,983,-17,29,3
2717,-172,-26,986,-18,10,-2
2718,-118,-28,982,-16,-15,-7
2719,37,-32,1011,-13,-29,-14
2720,127,-28,1010,-11,-20,-12
2721,150,-9,1005,-9,2,-7
2722,43,-5,1003,-14,25,-1
2723,-102,-10,999,-18,30,3
2724,-171,-19,968,-19,13,-1
2725,-128,-27,981,-17,-9,-7
2726,7,-32,1012,-13,-29,-12
2727,119,-30,1009,-11,-24,-14
2728,159,-14,1008,-11,-1,-8
2729,59,-5,1003,-13,24,-1
2730,-76,-10,1001,-16,32,2
2731,-168,-18,972,-20,17,1
2732,-144,-24,981,-16,-8,-6
2733,-13,-36,1004,-14,-26,-13
2734,107,-34,1006,-11,-23,-14
2735,160,-12,1005,-10,-8,-10
2736,79,-8,1013,-13,20,-2
2737,-56,-8,1001,-16,32,1
2738,-158,-13,971,-19,22,2
2739,-150,-28,988,-18,-3,-5
2740,-49,-40,997,-15,-26,-11
2741,102,-26,1001,-9,-27,-14
2742,156,-16,1010,-10,-10,-9
2743,101,-6,1006,-12,16,-3
2744,-33,-5,1007,-16,29,1
2745,-151,-6,972,-19,22,3
2746,-158,-28,991,-20,0,-4
2747,-73,-39,988,-16,-23,-9
2748,84,-27,1012,-11,-29,-14
2749,157,-20,1004,-10,-13,-12
2750,111,-9,1003,-10,13,-3
2751,-4,-4,998,-16,29,-1
2752,-139,-6,989,-20,26,3
2753,-165,-27,985,-19,5,-3
2754,-94,-37,982,-16,-19,-10
2755,64,-27,1009,-10,-29,-13
2756,146,-23,1013,-8,-16,-12
2757,133,-15,1006,-11,8,-6
2758,16,-1,992,-13,28,0
2759,-123,-5,986,-18,29,4
2760,-173,-24,986,-20,8,-2
2761,-109,-30,986,-17,-15,-7
2762,41,-30,1006,-12,-28,-13
2763,132,-29,1013,-11,-19,-12
2764,146,-15,1004,-9,2,-6
2765,36,-1,1000,-14,26,0
2766,-104,-11,995,-19,29,3
2767,-174,-23,973,-18,13,-2
2768,-123,-26,981,-17,-12,-7
2769,13,-33,1011,-14,-29,-12
2770,121,-28,1012,-11,-22,-12
2771,158,-14,1004,-11,-1,-8
2772,54,-5,1005,-13,23,-1
2773,-81,-11,1002,-16,30,2
2774,-167,-17,966,-19,15,-1
2775,-138,-22,983,-17,-10,-5
2776,-14,-37,1008,-15,-26,-11
2777,108,-31,1005,-11,-23,-14
2778,159,-14,1006,-11,-5,-9
2779,78,-5,1010,-13,19,-2
2780,-56,-13,1002,-16,31,1
2781,-163,-11,971,-19,20,0
2782,-149,-25,991,-18,-3,-5
2783,-43,-38,994,-14,-25,-10
2784,97,-27,1003,-10,-29,-13
2785,163,-21,1007,-9,-11,-11
2786,94,-7,1012,-12,17,-2
2787,-30,-8,1003,-16,30,1
2788,-155,-10,974,-19,24,2
2789,-158,-27,989,-17,0,-4
2790,-66,-38,992,-15,-23,-10
2791,86,-28,1011,-11,-28,-13
2792,156,-17,1005,-11,-12,-11
2793,113,-12,1002,-12,13,-4
2794,-8,-6,1001,-15,28,0
2795,-143,-7,985,-20,26,2
2796,-164,-29,989,-19,4,-3
2797,-90,-41,983,-16,-20,-9
2798,68,-21,1009,-10,-30,-12
2799,147,-26,1014,-10,-18,-12
2800,129,-9,1005,-11,8,-5
2801,11,-7,992,-17,28,1
2802,-126,-7,988,-17,28,2
2803,-169,-30,985,-18,7,-2
2804,-114,-29,981,-15,-17,-9
2805,49,-30,1010,-11,-30,-13
2806,133,-28,1014,-11,-19,-11
2807,145,-11,1002,-11,3,-5
2808,36,-4,1003,-13,24,-2
2809,-112,-9,987,-19,29,2
2810,-173,-25,978,-18,11,-1
2811,-122,-30,981,-16,-13,-7
2812,19,-31,1015,-12,-29,-11
2813,124,-26,1002,-9,-21,-12
2814,153,-12,1007,-10,1,-8
2815,56,-5,1003,-16,23,-2
2816,-90,-15,1002,-18,31,2
2817,-167,-18,968,-18,15,0
2818,-133,-27,981,-16,-10,-5
2819,-2,-33,1007,-13,-27,-12
2820,111,-32,1011,-11,-22,-14
2821,165,-9,1003,-10,-5,-9
2822,67,-9,1009,-13,20,0
2823,-63,-7,1000,-17,29,0
2824,-165,-18,971,-20,20,0
2825,-145,-25,986,-17,-5,-6
2826,-34,-41,997,-14,-25,-12
2827,105,-26,1002,-10,-26,-14
2828,158,-17,1008,-10,-8,-9
2829,87,-5,1008,-13,17,-3
2830,-43,-11,1005,-17,31,0
2831,-156,-8,971,-18,22,1
2832,-156,-24,990,-18,-1,-3
2833,-58,-37,994,-15,-24,-10
2834,88,-28,1010,-12,-28,-13
2835,155,-21,1004,-12,-11,-11
2836,107,-11,1003,-13,14,-4
2837,-15,-3,1006,-14,28,1
2838,-146,-7,978,-19,25,2
2839,-160,-26,990,-18,3,-5
2840,-86,-40,985,-16,-21,-8
2841,71,-20,1011,-12,-30,-13
2842,152,-27,1009,-10,-16,-12
2843,124,-13,1006,-9,9,-4
2844,9,-6,992,-15,29,0
2845,-132,-6,992,-18,28,2
2846,-168,-29,984,-20,6,-3
2847,-108,-33,985,-16,-16,-8
2848,54,-27,1008,-10,-30,-13
2849,132,-29,1016,-10,-17,-11
2850,145,-13,1008,-11,5,-6
2851,27,-3,995,-14,26,-1
2852,-113,-9,990,-18,28,4
2853,-169,-25,978,-19,11,-2
2854,-120,-27,984,-16,-13,-8
2855,27,-31,1009,-12,-29,-12
2856,124,-27,1012,-10,-22,-11
2857,153,-12,1003,-9,-1,-7
2858,49,-2,1005,-15,23,-1
2859,-92,-13,1001,-17,31,1
2860,-170,-20,968,-18,16,-1
2861,-132,-25,978,-17,-9,-6
2862,-2,-33,1012,-13,-29,-12
2863,115,-28,1007,-11,-24,-12
2864,160,-13,1010,-11,-3,-9
2865,67,-4,1005,-11,20,-2
2866,-70,-15,1004,-14,30,3
2867,-166,-15,966,-19,17,0
2868,-147,-32,989,-17,-5,-6
2869,-23,-36,997,-13,-26,-10
2870,103,-27,1003,-11,-25,-13
2871,166,-14,1006,-10,-8,-11
2872,80,-6,1016,-13,18,-2
2873,-43,-5,1001,-16,29,1
2874,-158,-15,977,-20,22,1
2875,-154,-26,988,-17,-3,-4
2876,-52,-40,993,-15,-24,-10
2877,89,-29,1006,-10,-28,-13
2878,161,-20,1003,-11,-12,-11
2879,105,-8,1007,-12,15,-4
2880,-22,-7,1003,-14,29,0
2881,-149,-5,981,-18,24,3
2882,-162,-29,987,-18,2,-5
2883,-79,-37,991,-16,-21,-10
2884,81,-27,1010,-11,-28,-13
2885,150,-22,1008,-9,-14,-12
2886,121,-9,1001,-13,10,-3
2887,1,-4,1000,-15,28,-1
2888,-135,-3,986,-18,27,3
2889,-169,-30,988,-19,4,-2
2890,-100,-35,982,-15,-18,-9
2891,56,-28,1007,-10,-29,-12
2892,142,-25,1017,-9,-17,-12
2893,137,-11,1008,-12,7,-5
2894,25,0,995,-15,25,-2
2895,-118,-8,987,-19,29,2
2896,-172,-25,982,-22,9,-2
2897,-115,-31,985,-18,-15,-7
2898,34,-33,1010,-14,-29,-12
2899,129,-31,1010,-10,-20,-13
2900,152,-9,1004,-9,1,-7
2901,45,-1,1002,-15,24,-2
2902,-98,-10,999,-17,30,2
2903,-171,-18,967,-20,15,0
2904,-128,-27,981,-18,-11,-6
2905,8,-36,1010,-13,-30,-12
2906,117,-32,1006,-11,-24,-12
2907,162,-13,1007,-9,-2,-9
2908,61,-7,1007,-14,22,-1
2909,-78,-5,1001,-16,30,1
2910,-165,-16,970,-20,17,-1
2911,-147,-25,987,-18,-5,-6
2912,-17,-38,999,-13,-26,-12
2913,105,-31,1005,-10,-25,-14
2914,164,-15,1006,-10,-9,-9
2915,77,-7,1011,-13,18,-1
2916,-49,-10,1002,-17,30,1
2917,-160,-13,972,-19,22,1
2918,-153,-24,990,-16,-2,-4
2919,-45,-37,993,-14,-26,-10
2920,95,-26,1008,-11,-28,-12
2921,159,-22,1005,-11,-11,-10
2922,101,-7,1010,-12,15,-3
2923,-26,-12,1000,-16,30,0
2924,-150,-4,977,-18,24,2
2925,-160,-30,986,-19,0,-4
2926,-74,-36,993,-15,-20,-10
2927,79,-24,1010,-11,-29,-13
2928,150,-22,1005,-11,-14,-12
2929,118,-13,1002,-12,12,-5
2930,-5,-8,999,-17,28,-1
2931,-136,-6,987,-19,28,3
2932,-165,-29,987,-20,6,-3
2933,-95,-34,981,-16,-19,-9
2934,60,-25,1009,-9,-30,-13
2935,142,-23,1017,-11,-17,-12
2936,132,-14,1009,-12,7,-5
2937,17,-2,990,-14,28,-1
2938,-120,-12,985,-17,29,3
2939,-169,-27,987,-17,9,-3
2940,-113,-29,983,-17,-15,-7
2941,36,-26,1010,-12,-30,-12
2942,129,-28,1011,-10,-19,-13
2943,146,-10,1005,-10,3,-6
2944,42,-3,1002,-15,25,-2
2945,-102,-13,1000,-19,31,2
2946,-169,-19,968,-20,14,-1
2947,-126,-28,983,-16,-10,-6
2948,9,-32,1010,-12,-29,-11
2949,122,-32,1008,-11,-24,-12
2950,157,-12,1009,-11,-1,-9
2951,58,-3,1004,-13,23,0
2952,-80,-9,1005,-17,31,1
2953,-164,-21,966,-20,15,1
2954,-139,-22,984,-17,-9,-5
2955,-12,-41,1005,-13,-27,-12
2956,109,-25,1004,-12,-25,-12
2957,161,-15,1007,-9,-6,-9
2958,72,-5,1008,-13,19,-3
2959,-52,-10,1002,-16,30,1
2960,-161,-12,969,-19,21,1
2961,-150,-26,990,-18,-4,-5
2962,-41,-40,996,-14,-25,-11
2963,93,-29,1001,-12,-26,-13
2964,160,-17,1005,-11,-10,-10
2965,96,-9,1014,-13,17,-3
2966,-33,-7,998,-15,30,1
2967,-152,-6,977,-19,23,3
2968,-155,-28,991,-19,-1,-3
2969,-69,-36,990,-16,-23,-9
2970,86,-27,1010,-11,-28,-13
2971,150,-23,1008,-11,-13,-11
2972,114,-11,999,-11,11,-4
2973,-9,-9,999,-17,26,0
2974,-140,-4,990,-19,25,2
2975,-161,-26,984,-19,6,-3
2976,-95,-33,984,-15,-18,-9
2977,65,-25,1011,-10,-29,-11
2978,144,-28,1011,-10,-16,-12
2979,131,-12,1009,-12,8,-6
2980,16,-5,993,-15,26,-2
2981,-127,-5,988,-18,27,2
2982,-168,-28,983,-19,8,-2
2983,-114,-29,990,-17,-15,-8
2984,47,-31,1007,-13,-29,-13
2985,128,-29,1016,-11,-18,-12
2986,148,-10,1004,-9,2,-7
2987,37,-4,999,-15,24,-2
2988,-104,-11,998,-18,30,3
2989,-172,-22,975,-19,13,-2
2990,-121,-26,979,-16,-11,-7
2991,11,-33,1014,-12,-29,-11
2992,120,-27,1004,-10,-22,-13
2993,156,-17,1008,-11,-1,-8
2994,56,1,1008,-13,22,-1
2995,-81,-12,1001,-16,30,1
2996,-163,-14,969,-19,15,-2
2997,-141,-27,985,-18,-7,-6
2998,-12,-40,999,-13,-26,-13
2999,105,-31,1010,-11,-24,-14
3000,166,-11,1005,-8,-7,-10
3001,73,-6,1008,-13,19,-2
3002,-56,-6,1004,-16,30,0
3003,-164,-13,971,-19,20,0
3004,-145,-26,989,-18,-3,-4
3005,-43,-41,993,-14,-25,-9
3006,98,-29,1003,-10,-27,-13
3007,161,-20,1008,-9,-10,-9
3008,92,-5,1010,-10,17,-4
3009,-33,-6,1005,-16,30,1
3010,-155,-8,971,-19,23,2
3011,-154,-25,987,-18,-1,-4
3012,-69,-40,993,-15,-22,-9
3013,90,-31,1010,-12,-29,-13
3014,155,-26,1003,-10,-12,-11
3015,109,-11,1000,-11,13,-3
3016,-10,-4,1004,-16,28,0
3017,-144,-5,984,-20,27,3
3018,-161,-22,988,-18,4,-3
3019,-93,-37,986,-17,-19,-9
3020,69,-28,1006,-12,-30,-13
3021,144,-28,1012,-9,-18,-11
3022,129,-16,1009,-13,7,-6
3023,14,-6,993,-13,27,-2
3024,-128,0,986,-18,29,3
3025,-169,-25,991,-19,9,-1
3026,-108,-30,981,-16,-15,-8
3027,46,-24,1011,-12,-29,-13
3028,135,-29,1012,-12,-19,-13
3029,142,-14,1007,-11,3,-6
3030,36,-9,997,-14,24,-2
3031,-109,-9,993,-16,29,1
3032,-169,-23,976,-19,12,-1
3033,-120,-26,981,-15,-12,-7
3034,17,-28,1013,-14,-29,-13
3035,122,-28,1007,-10,-21,-11
3036,156,-15,1005,-11,0,-7
3037,53,-4,1005,-14,23,-1
3038,-86,-14,1000,-17,30,2
3039,-167,-18,973,-18,15,-1
3040,-134,-21,976,-6,-5,-4
3041,-9,-36,1011,-14,-26,-10
3042,114,-28,1006,-12,-25,-12
3043,159,-13,1009,-10,-4,-7
3044,71,-4,1004,-13,19,-2
3045,-61,-16,1004,-15,30,1
3046,-162,-12,966,-20,20,1
3047,-147,-27,990,-17,-5,-5
3048,-31,-36,998,-13,-25,-12
3049,100,-25,1000,-10,-27,-13
3050,164,-12,1008,-9,-10,-11
3051,85,-9,1012,-15,18,-3
3052,-38,-6,1000,-17,28,1
3053,-155,-13,975,-18,23,1
3054,-158,-29,989,-17,-2,-5
3055,-56,-38,993,-14,-24,-9
3056,91,-26,1009,-12,-28,-14
3057,153,-17,1008,-11,-12,-11
3058,106,-9,1001,-12,14,-3
3059,-16,-6,1004,-16,27,-1
3060,-145,-7,984,-19,25,3
3061,-162,-32,985,-18,4,-4
3062,-83,-38,991,-14,-20,-10
3063,68,-22,1006,-11,-29,-13
3064,148,-21,1013,-9,-16,-13
3065,126,-10,1009,-12,8,-6
3066,7,-4,992,-18,27,-1
3067,-128,-9,984,-19,27,3
3068,-169,-31,990,-19,7,-3
3069,-103,-32,978,-16,-16,-8
3070,47,-27,1013,-10,-29,-13
3071,135,-26,1016,-12,-19,-13
3072,145,-12,1004,-11,4,-7
3073,30,-2,998,-13,25,-1
3074,-112,-6,990,-18,29,2
3075,-167,-27,981,-20,11,-2
3076,-122,-29,979,-17,-13,-6
3077,25,-32,1016,-13,-30,-12
3078,126,-29,1006,-10,-22,-13
3079,150,-12,1004,-10,1,-6
3080,53,0,1003,-14,24,-2
3081,-94,-13,1005,-18,30,2
3082,-167,-17,966,-19,13,-1
3083,-136,-27,982,-18,-10,-5
3084,1,-33,1009,-12,-29,-12
3085,111,-32,1008,-12,-23,-12
3086,160,-10,1008,-10,-3,-8
3087,64,-6,1005,-11,20,-1
3088,-68,-8,1004,-15,30,1
3089,-162,-15,968,-19,17,0
3090,-145,-26,991,-18,-6,-4
3091,-28,-39,996,-14,-26,-10
3092,103,-26,1004,-10,-25,-13
3093,163,-16,1008,-10,-9,-9
3094,84,-5,1011,-11,18,-2
3095,-43,-13,1004,-17,31,0
3096,-160,-9,970,-18,22,1
3097,-158,-25,990,-18,-3,-5
3098,-56,-40,994,-15,-25,-11
3099,91,-28,1006,-10,-28,-13
3100,159,-21,1004,-10,-12,-11
3101,103,-9,1009,-11,15,-3
3102,-19,-8,1002,-16,27,-1
3103,-151,-7,982,-18,24,3
3104,-157,-25,987,-18,1,-4
3105,-84,-35,994,-15,-20,-9
3106,77,-26,1004,-10,-29,-14
3107,148,-23,1013,-10,-16,-12
3108,123,-17,1000,-12,9,-4
3109,0,-3,999,-15,28,0
3110,-128,-8,985,-19,29,3
3111,-168,-25,988,-19,7,-3
3112,-101,-27,981,-15,-17,-8
3113,51,-30,1009,-11,-29,-13
3114,142,-28,1016,-12,-19,-14
3115,137,-18,1004,-12,5,-6
3116,29,-1,998,-13,26,-3
3117,-114,-12,986,-17,29,3
3118,-174,-23,982,-18,10,-1
3119,-114,-29,988,-15,-14,-7
3120,27,-28,1010,-13,-27,-12
3121,126,-32,1008,-11,-20,-13
3122,151,-8,1005,-11,1,-7
3123,46,-4,1002,-14,23,0
3124,-98,-14,997,-17,30,2
3125,-174,-23,972,-19,15,0
3126,-130,-26,981,-16,-11,-6
3127,2,-32,1010,-14,-29,-12
3128,119,-27,1010,-11,-23,-13
3129,160,-11,1009,-12,-2,-9
3130,64,-5,1004,-15,22,-2
3131,-76,-11,1005,-15,31,2
3132,-164,-17,966,-20,18,0
3133,-145,-29,987,-18,-6,-4
3134,-24,-37,1000,-13,-25,-12
3135,109,-27,1004,-9,-25,-14
3136,164,-15,1010,-9,-7,-9
3137,77,-1,1007,-13,19,-1
3138,-47,-14,1006,-17,30,0
3139,-161,-10,968,-19,22,1
3140,-151,-30,989,-19,-3,-3
3141,-46,-37,991,-13,-24,-11
3142,95,-26,1006,-10,-28,-11
3143,160,-18,1003,-10,-10,-11
3144,96,-8,1012,-12,16,-4
3145,-19,-7,1002,-16,28,0
3146,-152,-8,978,-19,24,3
3147,-162,-29,986,-18,1,-3
3148,-76,-41,992,-14,-21,-10
3149,79,-26,1010,-11,-29,-12
3150,154,-20,1005,-12,-15,-11
3151,121,-13,1006,-12,11,-5
3152,-1,-3,995,-17,27,1
3153,-140,-7,989,-20,27,2
3154,-163,-29,989,-20,6,-4
3155,-99,-36,981,-16,-18,-8
3156,65,-26,1008,-11,-28,-13
3157,145,-28,1018,-10,-17,-13
3158,136,-13,1005,-11,8,-5
3159,15,-3,995,-14,28,-1
3160,-122,-6,987,-17,28,3
3161,-169,-26,985,-19,8,-2
3162,-112,-27,985,-16,-14,-7
3163,36,-32,1010,-12,-29,-12
3164,131,-30,1010,-10,-19,-12
3165,145,-12,1005,-10,2,-6
3166,42,-4,1000,-16,24,-2
3167,-103,-12,996,-17,30,1
3168,-171,-22,968,-18,13,-1
3169,-123,-24,984,-16,-11,-7
3170,12,-33,1009,-13,-29,-12
3171,115,-26,1010,-11,-22,-12
3172,158,-15,1007,-12,-1,-9
3173,53,-5,1005,-13,22,-1
3174,-79,-12,999,-15,30,2
3175,-168,-18,972,-18,16,0
3176,-136,-25,980,-18,-9,-6
3177,-12,-36,1005,-14,-26,-13
3178,111,-29,1009,-11,-25,-13
3179,161,-12,1006,-11,-6,-10
3180,75,-5,1007,-13,19,-2
3181,-56,-11,1004,-17,30,1
3182,-162,-11,970,-20,20,0
3183,-148,-30,991,-18,-3,-3
3184,-45,-36,998,-16,-25,-9
3185,101,-27,999,-11,-27,-13
3186,162,-19,1011,-9,-10,-11
3187,90,-9,1007,-12,17,-2
3188,-28,-3,1005,-16,30,-1
3189,-153,-12,976,-20,23,1
3190,-159,-26,983,-19,2,-4
3191,-61,-40,997,-16,-22,-10
3192,82,-26,1005,-12,-27,-13
3193,159,-20,1007,-10,-13,-10
3194,110,-16,1002,-10,12,-4
3195,-11,-6,1001,-16,28,1
3196,-139,-6,985,-20,27,3
3197,-165,-27,990,-18,5,-4
3198,-89,-34,981,-17,-20,-10
3199,66,-25,1009,-11,-29,-13
3200,148,-22,1012,-11,-16,-12
3201,127,-14,1007,-12,8,-4
3202,15,-6,994,-15,27,-1
3203,-125,-9,985,-17,29,3
3204,-169,-24,988,-17,7,-4
3205,-109,-32,982,-17,-16,-7
3206,43,-23,1010,-10,-29,-12
3207,135,-28,1014,-12,-19,-13
3208,145,-14,1007,-11,4,-7
3209,35,-9,994,-16,25,1
3210,-111,-11,995,-17,30,2
3211,-168,-26,975,-20,13,-2
3212,-123,-30,982,-15,-10,-7
3213,22,-28,1010,-12,-30,-13
3214,119,-29,1012,-10,-22,-12
3215,155,-11,1002,-11,-1,-7
3216,56,-4,1009,-15,24,-2
3217,-84,-13,1001,-17,30,3
3218,-166,-20,967,-20,15,0
3219,-139,-27,980,-18,-9,-5
3220,-9,-34,1007,-12,-26,-11
3221,114,-28,1007,-10,-24,-12
3222,158,-12,1007,-11,-5,-8
3223,70,-4,1009,-13,19,-3
3224,-63,-13,1001,-18,29,1
3225,-160,-11,971,-19,19,0
3226,-148,-27,988,-17,-4,-5
3227,-32,-36,997,-15,-24,-10
3228,98,-30,1000,-10,-26,-12
3229,159,-15,1005,-10,-9,-10
3230,89,-9,1014,-12,18,-3
3231,-37,-6,1002,-14,30,1
3232,-155,-9,975,-18,23,2
3233,-155,-28,986,-16,0,-5
3234,-61,-36,995,-14,-23,-10
3235,86,-27,1006,-12,-29,-12
3236,157,-20,1006,-11,-12,-11
3237,110,-13,1003,-11,13,-3
3238,-16,-5,1001,-15,28,0
3239,-143,-8,985,-19,26,1
3240,-163,-27,987,-17,4,-4
3241,-84,-33,989,-16,-20,-9
3242,73,-22,1012,-12,-29,-12
3243,145,-25,1011,-12,-15,-12
3244,124,-15,1002,-12,8,-5
3245,9,-8,994,-15,28,-2
3246,-130,-9,988,-17,28,2
3247,-168,-29,986,-19,7,-1
3248,-106,-28,982,-16,-17,-7
3249,52,-25,1011,-13,-30,-12
3250,138,-27,1014,-12,-17,-12
3251,143,-11,1007,-12,6,-5
3252,30,-7,996,-16,26,-1
3253,-116,-9,991,-17,30,2
3254,-170,-26,978,-19,12,-1
3255,-122,-25,987,-15,-13,-7
3256,29,-28,1010,-14,-30,-12
3257,124,-30,1010,-11,-21,-14
3258,154,-9,1004,-11,0,-7
3259,47,-4,1003,-16,26,-1
3260,-94,-16,1002,-18,30,1
3261,-171,-23,965,-19,14,-1
3262,-133,-25,984,-16,-10,-5
3263,3,-36,1007,-13,-29,-12
3264,114,-25,1012,-10,-22,-13
3265,160,-10,1002,-12,-3,-9
3266,62,-2,1011,-14,23,-1
3267,-69,-12,996,-17,31,2
3268,-163,-18,970,-21,18,0
3269,-146,-32,990,-17,-5,-6
3270,-29,-39,993,-13,-25,-11
3271,105,-27,1002,-10,-24,-13
3272,158,-12,1009,-9,-7,-11
3273,86,-4,1011,-12,18,-3
3274,-44,-7,1002,-18,30,1
3275,-158,-10,974,-19,22,1
3276,-156,-29,986,-18,-2,-5
3277,-56,-40,991,-16,-24,-10
3278,92,-29,1005,-11,-29,-12
3279,159,-19,1006,-11,-13,-11
3280,101,-9,1004,-12,14,-2
3281,-20,-4,1002,-14,29,1
3282,-145,-11,981,-21,23,2
3283,-163,-28,987,-18,1,-3
3284,-78,-38,990,-15,-20,-9
3285,76,-25,1012,-11,-29,-13
3286,149,-23,1003,-9,-15,-12
3287,123,-13,1006,-11,10,-5
3288,4,-5,994,-16,27,0
3289,-133,-7,988,-18,28,3
3290,-163,-29,988,-19,6,-2
3291,-103,-34,979,-15,-17,-8
3292,59,-25,1008,-11,-30,-12
3293,135,-28,1016,-10,-17,-11
3294,139,-12,1003,-12,6,-5
3295,26,-5,998,-15,26,-2
3296,-120,-8,986,-17,28,3
3297,-171,-25,983,-18,10,-2
3298,-116,-27,986,-16,-13,-7
3299,27,-30,1007,-14,-29,-12
3300,132,-29,1011,-10,-20,-14
3301,147,-11,1003,-10,1,-8
3302,49,-3,1003,-13,24,-2
3303,-98,-15,1000,-17,31,1
3304,-172,-21,968,-18,14,-2
3305,-130,-25,979,-17,-10,-7
3306,3,-34,1011,-12,-30,-12
3307,119,-28,1010,-10,-23,-12
3308,162,-12,1006,-13,-2,-8
3309,63,-3,1006,-13,23,-2
3310,-72,-13,1000,-17,30,2
3311,-167,-15,969,-20,18,1
3312,-141,-27,985,-17,-6,-4
3313,-20,-37,1003,-12,-26,-12
3314,107,-29,1002,-10,-26,-13
3315,163,-14,1008,-10,-8,-10
3316,81,-6,1011,-12,18,-3
3317,-48,-8,1003,-17,31,0
3318,-163,-11,968,-19,22,1
3319,-154,-27,989,-17,-4,-4
3320,-51,-38,995,-16,-25,-10
3321,97,-28,1002,-10,-28,-13
3322,162,-20,1008,-11,-11,-11
3323,101,-8,1006,-12,16,-3
3324,-26,-8,1006,-15,30,-1
3325,-152,-4,975,-19,24,1
3326,-163,-26,989,-17,1,-4
3327,-74,-40,992,-16,-21,-11
3328,78,-27,1008,-12,-30,-13
3329,156,-24,1006,-10,-14,-12
3330,118,-14,1003,-9,10,-4
3331,2,-4,1001,-14,28,-2
3332,-142,-3,987,-19,28,3
3333,-170,-26,989,-19,4,-3
3334,-97,-34,985,-16,-18,-9
3335,60,-25,1005,-11,-30,-12
3336,147,-26,1017,-10,-17,-13
3337,135,-19,1009,-13,9,-4
3338,19,-1,989,-15,28,0
3339,-119,-10,991,-18,29,3
3340,-175,-25,985,-18,9,-2
3341,-111,-30,980,-16,-16,-7
3342,37,-29,1015,-12,-31,-13
3343,132,-30,1010,-10,-21,-14
3344,150,-10,1008,-9,3,-7
3345,42,-4,999,-15,25,-1
3346,-104,-10,998,-19,30,2
3347,-172,-27,969,-19,13,-2
3348,-129,-28,980,-16,-11,-7
3349,12,-31,1012,-14,-30,-13
3350,119,-30,1011,-10,-22,-13
3351,163,-8,1007,-11,-2,-8
3352,54,-5,1006,-15,22,-2
3353,-78,-10,1001,-17,30,3
3354,-167,-17,967,-19,16,1
3355,-141,-26,985,-17,-8,-5
3356,-14,-38,1002,-12,-28,-11
3357,108,-28,1009,-11,-24,-13
3358,162,-11,1007,-11,-7,-10
3359,75,-2,1009,-12,20,-1
3360,-54,-12,1004,-16,29,1
3361,-164,-14,968,-19,20,1
3362,-148,-29,991,-17,-5,-4
3363,-46,-39,997,-14,-26,-11
3364,101,-30,1000,-10,-28,-13
3365,162,-18,1009,-10,-10,-11
3366,95,-7,1009,-13,17,-4
3367,-33,-7,1004,-17,30,0
3368,-153,-9,976,-20,22,2
3369,-160,-29,987,-18,-1,-4
3370,-63,-38,995,-14,-22,-10
3371,85,-28,1007,-12,-27,-13
3372,156,-18,1002,-10,-11,-11
3373,113,-13,1006,-12,11,-4
3374,-11,-3,997,-20,26,0
3375,-141,-8,988,-19,27,2
3376,-165,-26,985,-18,3,-4
3377,-93,-37,982,-16,-20,-7
3378,69,-25,1010,-12,-30,-12
3379,148,-26,1014,-9,-17,-11
3380,130,-14,1001,-11,7,-4
3381,8,-1,999,-14,28,0
3382,-129,-7,983,-19,29,3
3383,-171,-30,989,-19,8,-3
3384,-106,-32,980,-16,-17,-7
3385,47,-27,1010,-11,-30,-12
3386,140,-30,1014,-11,-19,-13
3387,144,-10,1009,-9,5,-7
3388,35,-4,994,-14,25,-2
3389,-114,-9,992,-17,29,3
3390,-168,-24,976,-18,11,-1
3391,-121,-28,984,-17,-13,-6
3392,28,-29,1012,-12,-31,-12
3393,123,-31,1008,-10,-23,-13
3394,154,-11,1003,-10,0,-7
3395,50,-3,1006,-14,24,0
3396,-88,-11,1000,-17,31,1
3397,-172,-20,968,-18,15,0
3398,-134,-26,976,-16,-11,-5
3399,0,-36,1014,-14,-30,-12
3400,116,-26,1005,-11,-23,-12
3401,162,-14,1008,-10,-2,-9
3402,67,-4,1009,-12,22,-1
3403,-70,-12,999,-16,31,2
3404,-164,-15,971,-18,20,1
3405,-145,-26,990,-18,-6,-5
3406,-30,-37,997,-14,-26,-12
3407,107,-32,1004,-10,-26,-12
3408,160,-12,1009,-9,-9,-10
3409,85,-6,1008,-12,18,-4
3410,-44,-10,1006,-17,29,1
3411,-161,-11,968,-18,22,0
3412,-154,-25,989,-16,-2,-6
3413,-52,-40,995,-14,-25,-10
3414,93,-27,1001,-12,-28,-12
3415,159,-19,1009,-11,-11,-12
3416,101,-9,1007,-12,14,-4
3417,-23,-6,1003,-15,29,1
3418,-147,-6,979,-20,24,1
3419,-164,-27,987,-19,2,-3
3420,-75,-38,987,-15,-21,-10
3421,76,-31,1012,-11,-29,-13
3422,151,-21,1006,-10,-15,-12
3423,121,-13,1002,-11,11,-4
3424,0,-2,996,-13,29,-1
3425,-136,-4,992,-20,28,2
3426,-166,-27,985,-20,5,-4
3427,-102,-37,981,-16,-19,-8
3428,57,-26,1010,-12,-31,-12
3429,144,-28,1013,-10,-16,-12
3430,137,-17,1010,-12,7,-6
3431,23,-3,992,-15,26,-1
3432,-118,-8,989,-18,29,2
3433,-173,-26,981,-20,10,-2
3434,-113,-26,985,-16,-14,-8
3435,36,-32,1008,-12,-28,-12
3436,136,-29,1012,-10,-21,-12
3437,148,-15,1004,-9,2,-5
3438,43,-3,1000,-13,25,-1
3439,-103,-11,1001,-17,30,3
3440,-174,-21,967,-18,14,-1
3441,-128,-26,982,-17,-10,-6
3442,12,-32,1015,-12,-29,-12
3443,121,-28,1006,-10,-23,-13
3444,158,-15,1009,-10,-1,-9
3445,57,-5,1002,-14,23,-2
3446,-83,-14,1003,-16,30,1
3447,-167,-15,967,-19,16,0
3448,-144,-29,984,-18,-8,-5
3449,-9,-39,1002,-13,-28,-12
3450,110,-29,1009,-11,-25,-12
3451,163,-11,1007,-10,-7,-9
3452,74,-4,1011,-13,19,-1
3453,-55,-10,1002,-17,29,1
3454,-162,-17,972,-20,20,1
3455,-150,-26,988,-18,-4,-6
3456,-39,-39,996,-14,-26,-11
3457,103,-28,1000,-10,-27,-14
3458,161,-18,1010,-9,-11,-10
3459,93,-5,1010,-13,16,-3
3460,-35,-9,1005,-17,30,0
3461,-159,-5,972,-18,23,1
3462,-157,-29,988,-18,-1,-5
3463,-63,-39,994,-15,-24,-11
3464,85,-27,1004,-10,-29,-13
3465,158,-21,1005,-9,-12,-12
3466,110,-9,1004,-11,13,-3
3467,-12,-5,1001,-17,29,0
3468,-145,-5,983,-19,26,1
3469,-162,-30,987,-18,3,-5
3470,-91,-37,985,-14,-19,-9
3471,71,-26,1012,-11,-31,-13
3472,153,-25,1011,-12,-17,-11
3473,125,-14,1002,-12,9,-5
3474,10,-4,995,-16,29,-1
3475,-130,-5,989,-18,28,3
3476,-168,-27,983,-20,8,-4
3477,-106,-31,983,-17,-17,-7
3478,51,-27,1009,-11,-32,-12
3479,136,-30,1015,-12,-18,-12
3480,139,-11,1006,-11,4,-6
3481,31,-4,1000,-14,25,-2
3482,-110,-9,990,-18,29,2
3483,-173,-24,978,-19,12,-1
3484,-120,-28,987,-17,-12,-8
3485,26,-33,1008,-13,-29,-12
3486,127,-28,1010,-11,-22,-13
3487,154,-12,1003,-10,0,-7
3488,50,-3,1005,-14,24,-1
3489,-90,-11,1001,-17,31,1
3490,-173,-20,965,-19,14,-1
3491,-130,-30,981,-19,-10,-6
3492,-1,-36,1009,-13,-28,-11
3493,114,-29,1007,-9,-23,-12
3494,161,-11,1009,-11,-4,-7
3495,63,-1,1006,-13,21,-2
3496,-68,-11,999,-17,29,1
3497,-165,-17,970,-20,18,0
3498,-142,-27,985,-18,-6,-5
3499,-25,-37,1001,-14,-26,-11
3500,106,-25,1004,-11,-26,-14
3501,163,-11,1008,-11,-8,-10
3502,80,-6,1010,-12,19,-3
3503,-46,-9,1004,-17,30,1
3504,-162,-15,973,-18,23,1
3505,-153,-26,989,-17,-3,-4
3506,-47,-39,995,-15,-26,-10
3507,92,-26,1003,-10,-28,-14
3508,165,-18,1005,-10,-11,-11
3509,97,-8,1013,-13,15,-3
3510,-26,-6,998,-17,30,0
3511,-152,-7,982,-17,24,2
3512,-157,-28,984,-18,1,-2
3513,-76,-38,994,-16,-20,-9
3514,82,-24,1008,-11,-28,-13
3515,153,-24,1003,-11,-12,-12
3516,116,-12,1006,-11,11,-4
3517,-2,-7,999,-15,28,0
3518,-139,-6,987,-19,27,3
3519,-165,-29,986,-18,5,-3
3520,-97,-32,986,-16,-19,-8
3521,64,-28,1010,-13,-30,-11
3522,146,-26,1013,-10,-16,-12
3523,134,-15,1008,-12,8,-6
3524,18,-5,990,-15,27,-2
3525,-124,-7,988,-17,29,3
3526,-169,-27,986,-18,7,-3
3527,-112,-31,985,-16,-15,-7
3528,41,-24,1008,-11,-29,-11
3529,132,-29,1013,-11,-20,-11
3530,149,-14,1005,-9,2,-6
3531,35,-4,997,-14,26,0
3532,-106,-10,995,-18,31,1
3533,-176,-25,977,-19,13,-1
3534,-125,-26,983,-17,-12,-6
3535,18,-34,1010,-14,-29,-11
3536,122,-26,1009,-8,-22,-12
3537,157,-12,1005,-11,-1,-7
3538,53,-1,1006,-15,25,-1
3539,-87,-12,1004,-19,31,3
3540,-172,-18,965,-19,16,0
3541,-135,-26,981,-17,-11,-6
3542,-7,-39,1008,-14,-27,-12
3543,113,-29,1005,-12,-25,-13
3544,162,-13,1009,-9,-4,-8
3545,67,0,1005,-12,21,-1
3546,-63,-13,1004,-16,30,2
3547,-164,-15,970,-20,19,0
3548,-149,-27,988,-18,-4,-5
3549,-31,-37,996,-13,-25,-10
3550,104,-28,1003,-11,-28,-12
3551,163,-13,1006,-9,-9,-11
3552,86,-3,1012,-13,19,-1
3553,-41,-11,1003,-17,30,1
3554,-159,-11,973,-18,22,2
3555,-156,-28,987,-17,-1,-5
3556,-58,-39,995,-15,-23,-11
3557,92,-26,1002,-10,-28,-13
3558,161,-22,1004,-9,-12,-11
3559,105,-10,1009,-12,14,-3
3560,-18,-8,1001,-17,29,0
3561,-151,-6,980,-18,24,2
3562,-162,-27,988,-19,2,-4
3563,-82,-33,990,-14,-20,-9
3564,78,-29,1012,-12,-29,-14
3565,149,-19,1004,-10,-15,-12
3566,124,-16,1001,-12,9,-4
3567,1,-5,1000,-15,28,-1
3568,-137,-6,986,-17,28,2
3569,-168,-30,989,-19,5,-3
3570,-100,-30,980,-14,-18,-7
3571,58,-25,1007,-10,-29,-12
3572,145,-26,1019,-10,-18,-13
3573,136,-17,1004,-13,8,-6
3574,23,0,995,-15,27,0
3575,-117,-15,987,-19,28,3
3576,-174,-25,982,-19,9,-2
3577,-113,-32,984,-16,-15,-8
3578,35,-29,1008,-10,-28,-13
3579,133,-25,1011,-10,-20,-13
3580,148,-10,1004,-10,3,-7
3581,44,-1,1003,-14,24,-1
3582,-102,-12,996,-17,30,2
3583,-173,-26,973,-19,14,-2
3584,-125,-27,981,-17,-12,-6
3585,11,-35,1011,-13,-29,-12
3586,123,-29,1010,-9,-23,-14
3587,157,-9,1005,-11,-1,-8
3588,61,-2,1006,-15,23,-2
3589,-83,-11,1001,-17,32,3
3590,-170,-17,967,-19,16,-1
3591,-137,-28,979,-16,-8,-7
3592,-12,-39,1009,-14,-27,-11
3593,110,-28,1003,-10,-25,-12
3594,162,-12,1014,-9,-5,-10
3595,72,-1,1004,-13,20,-2
3596,-59,-11,1005,-16,31,1
3597,-162,-16,969,-20,20,0
3598,-151,-23,989,-18,-3,-3
3599,-33,-39,995,-15,-26,-11
3600,97,-27,1001,-12,-26,-13
3601,162,-17,1007,-10,-10,-10
3602,92,-9,1012,-11,15,-3
3603,-37,-10,1002,-16,30,0
3604,-156,-10,974,-20,21,2
3605,-157,-26,989,-16,-1,-4
3606,-62,-38,991,-15,-23,-9
3607,89,-25,1009,-11,-29,-13
3608,158,-22,1004,-11,-12,-12
3609,108,-8,1007,-10,14,-4
3610,-15,-7,1004,-13,29,0
3611,-146,-6,981,-19,25,3
3612,-160,-31,986,-17,2,-5
3613,-89,-36,989,-15,-20,-8
3614,74,-25,1011,-12,-30,-12
3615,152,-21,1008,-9,-16,-12
3616,126,-10,1003,-10,9,-5
3617,7,-4,997,-16,29,0
3618,-135,-2,990,-17,28,2
3619,-166,-25,985,-18,6,-3
3620,-105,-35,982,-15,-17,-9
3621,54,-26,1004,-10,-29,-13
3622,143,-27,1017,-11,-18,-14
3623,141,-14,1009,-10,5,-7
3624,26,-2,989,-13,26,-1
3625,-118,-8,989,-17,30,3
3626,-172,-26,983,-19,11,-1
3627,-116,-30,984,-17,-13,-7
3628,34,-28,1010,-11,-30,-13
3629,130,-31,1012,-11,-21,-14
3630,154,-10,1004,-11,1,-7
3631,45,-4,1004,-14,24,-2
3632,-101,-11,997,-19,31,2
3633,-175,-24,972,-19,14,-1
3634,-130,-30,980,-17,-11,-6
3635,8,-32,1013,-13,-29,-13
3636,121,-27,1009,-10,-23,-13
3637,160,-10,1004,-9,-2,-7
3638,63,-3,1007,-13,22,-1
3639,-83,-17,1003,-17,32,3
3640,-169,-16,965,-21,16,-1
3641,-143,-30,980,-18,-8,-6
3642,-14,-36,1008,-12,-28,-13
3643,112,-27,1005,-11,-26,-14
3644,164,-13,1006,-10,-7,-10
3645,75,-7,1007,-13,20,-3
3646,-55,-12,1004,-16,30,0
3647,-165,-14,970,-19,20,1
3648,-151,-24,990,-17,-5,-5
3649,-39,-38,996,-15,-25,-12
3650,102,-26,999,-10,-27,-13
3651,163,-15,1011,-10,-10,-9
3652,92,-3,1013,-13,18,-2
3653,-35,-10,1002,-18,30,1
3654,-157,-10,973,-19,22,1
3655,-160,-28,988,-19,-1,-4
3656,-65,-37,993,-15,-24,-11
3657,87,-28,1006,-11,-27,-13
3658,161,-20,1007,-11,-12,-10
3659,110,-10,1003,-11,14,-3
3660,-17,-6,1004,-15,29,0
3661,-144,-7,981,-19,25,2
3662,-165,-27,988,-17,3,-4
3663,-83,-35,989,-15,-21,-10
3664,75,-27,1014,-11,-29,-14
3665,153,-24,1004,-10,-16,-11
3666,123,-13,1005,-11,9,-4
3667,8,-8,999,-14,28,-1
3668,-136,-4,987,-20,29,3
3669,-165,-28,987,-20,6,-3
3670,-105,-32,985,-16,-17,-9
3671,54,-27,1005,-10,-30,-13
3672,145,-25,1019,-10,-18,-13
3673,139,-14,1005,-13,7,-6
3674,27,-1,990,-12,27,-2
3675,-118,-11,992,-17,29,3
3676,-174,-28,980,-16,9,0
3677,-116,-28,984,-17,-14,-7
3678,33,-29,1008,-12,-28,-12
3679,130,-27,1009,-10,-21,-12
3680,155,-13,1007,-10,0,-7
3681,41,-5,1001,-16,23,-1
3682,-99,-10,995,-19,30,2
3683,-177,-27,975,-19,15,-1
3684,-128,-24,978,-16,-9,-6
3685,11,-34,1014,-13,-27,-12
3686,118,-26,1007,-11,-23,-12
3687,161,-15,1007,-12,-3,-8
3688,62,-5,1007,-14,23,-2
3689,-81,-11,1002,-17,31,2
3690,-164,-18,969,-19,17,0
3691,-146,-27,979,-16,-8,-4
3692,-11,-35,1007,-13,-28,-12
3693,109,-32,1009,-11,-24,-13
3694,165,-11,1004,-10,-6,-9
3695,78,-4,1010,-13,20,-2
3696,-63,-12,1003,-16,32,2
3697,-165,-18,968,-19,21,1
3698,-152,-30,990,-17,-3,-5
3699,-40,-39,994,-14,-24,-11
3700,102,-27,1003,-11,-27,-13
3701,163,-15,1011,-10,-9,-10
3702,91,-1,1009,-13,16,-2
3703,-35,-10,1005,-17,30,1
3704,-159,-14,971,-20,23,2
3705,-157,-30,989,-17,0,-3
3706,-62,-40,994,-15,-23,-12
3707,90,-26,1005,-11,-29,-13
3708,159,-19,1005,-11,-11,-11
3709,108,-7,1005,-13,14,-4
3710,-13,-8,1006,-15,28,0
3711,-148,-7,977,-21,26,2
3712,-163,-27,990,-20,0,-3
3713,-88,-38,988,-11,-21,-10
3714,72,-25,1009,-13,-31,-12
3715,154,-22,1010,-9,-18,-13
3716,122,-11,1000,-11,10,-4
3717,7,-5,999,-16,28,1
3718,-132,-7,988,-17,29,2
3719,-169,-25,987,-20,7,-1
3720,-105,-39,982,-16,-17,-10
3721,52,-29,1009,-10,-29,-13
3722,144,-25,1014,-10,-18,-12
3723,141,-13,1010,-10,5,-6
3724,26,-1,993,-15,26,0
3725,-119,-4,990,-18,28,3
3726,-173,-29,983,-20,7,-2
3727,-116,-31,984,-17,-15,-7
3728,37,-31,1010,-11,-30,-13
3729,130,-30,1012,-8,-21,-13
3730,154,-9,1004,-10,1,-7
3731,41,-1,999,-14,24,-2
3732,-104,-6,996,-17,31,3
3733,-173,-23,976,-19,14,0
3734,-132,-28,977,-18,-11,-6
3735,16,-34,1012,-14,-30,-14
3736,125,-31,1011,-11,-23,-13
3737,161,-10,1004,-10,-2,-9
3738,60,-3,1008,-14,24,-2
3739,-84,-8,1003,-17,31,1
3740,-170,-19,966,-19,15,0
3741,-143,-25,979,-18,-9,-6
3742,-11,-38,1010,-15,-28,-13
3743,117,-33,1010,-11,-26,-14
3744,162,-13,1006,-11,-6,-9
3745,77,-5,1006,-12,20,-2
3746,-61,-9,1002,-15,30,2
3747,-164,-12,969,-19,20,0
3748,-153,-24,991,-17,-5,-6
3749,-34,-37,994,-14,-26,-12
3750,100,-27,1000,-10,-28,-13
3751,167,-18,1012,-9,-10,-11
3752,88,-6,1009,-14,18,-3
3753,-40,-10,1006,-15,31,0
3754,-159,-8,972,-18,25,2
3755,-159,-20,989,-17,-2,-3
3756,-59,-40,992,-15,-24,-10
3757,91,-26,1008,-12,-28,-13
3758,163,-21,1002,-11,-11,-11
3759,109,-8,1009,-13,14,-3
3760,-17,-8,1004,-14,29,0
3761,-150,-5,977,-18,25,2
3762,-163,-26,987,-18,3,-4
3763,-84,-33,991,-15,-20,-9
3764,78,-25,1010,-13,-31,-14
3765,151,-23,1004,-9,-15,-11
3766,123,-13,1005,-10,10,-3
3767,5,-7,998,-14,28,0
3768,-138,-6,990,-19,28,1
3769,-165,-30,988,-20,6,-3
3770,-103,-33,981,-16,-17,-8
3771,55,-24,1007,-11,-31,-13
3772,143,-26,1018,-11,-17,-14
3773,139,-15,1006,-11,6,-5
3774,21,-4,992,-17,26,1
3775,-118,-11,989,-18,29,2
3776,-173,-29,983,-18,8,-1
3777,-118,-28,981,-16,-15,-7
3778,39,-30,1014,-11,-30,-14
3779,134,-24,1011,-10,-21,-14
3780,151,-14,1004,-10,2,-7
3781,44,0,1003,-13,24,-1
3782,-106,-11,994,-19,30,3
3783,-175,-24,973,-20,14,-1
3784,-132,-30,982,-18,-11,-6
3785,15,-33,1010,-13,-29,-14
3786,121,-31,1008,-10,-24,-12
3787,164,-8,1004,-10,-4,-9
3788,57,-1,1006,-14,24,-1
3789,-81,-9,1001,-17,31,3
3790,-170,-22,967,-20,17,1
3791,-141,-29,980,-18,-9,-5
3792,-10,-40,1008,-12,-28,-11
3793,114,-30,1010,-11,-25,-13
3794,161,-10,1006,-9,-5,-9
3795,74,-1,1006,-12,19,-3
3796,-64,-10,1004,-17,30,1
3797,-166,-10,966,-19,20,1
3798,-150,-31,991,-18,-4,-6
3799,-35,-39,993,-14,-26,-12
3800,101,-29,1002,-11,-27,-12
3801,165,-17,1008,-8,-10,-10
3802,89,-4,1014,-14,18,-2
3803,-38,-7,1004,-16,30,1
3804,-159,-11,971,-20,23,1
3805,-156,-25,989,-18,-1,-4
3806,-57,-42,992,-15,-24,-12
3807,89,-25,1007,-11,-27,-14
3808,163,-20,1005,-12,-12,-11
3809,105,-8,1009,-13,15,-4
3810,-19,-9,1003,-17,28,0
3811,-151,-7,979,-18,26,2
3812,-163,-29,983,-17,3,-3
3813,-82,-37,991,-16,-21,-9
3814,77,-26,1005,-11,-31,-13
3815,155,-22,1009,-10,-15,-12
3816,123,-11,999,-13,8,-4
3817,2,-9,1001,-15,27,1
3818,-132,-6,986,-18,27,2
3819,-169,-28,985,-20,6,-2
3820,-100,-30,983,-15,-17,-8
3821,57,-26,1006,-10,-29,-13
3822,147,-25,1016,-11,-19,-13
3823,137,-17,1005,-13,6,-5
3824,23,0,993,-15,28,-1
3825,-123,-8,988,-18,29,3
3826,-174,-25,985,-18,9,-2
3827,-114,-31,985,-18,-15,-7
3828,37,-30,1009,-11,-29,-12
3829,134,-28,1015,-9,-21,-12
3830,152,-10,1006,-9,1,-7
3831,39,-3,999,-13,24,-1
3832,-104,-8,993,-18,30,2
3833,-174,-24,976,-19,13,-2
3834,-124,-31,978,-16,-11,-7
3835,14,-33,1014,-11,-29,-12
3836,120,-30,1005,-11,-24,-13
3837,159,-12,1008,-9,-1,-9
3838,60,-2,1006,-14,24,-1
3839,-86,-13,1002,-17,30,2
3840,-165,-18,968,-19,16,0
3841,-141,-27,979,-17,-8,-5
3842,-7,-35,1003,-13,-27,-12
3843,110,-32,1013,-10,-24,-14
3844,161,-12,1000,-10,-5,-9
3845,73,-4,1009,-12,21,-2
3846,-62,-13,1000,-15,30,1
3847,-163,-12,970,-21,18,1
3848,-147,-28,985,-18,-5,-6
3849,-38,-39,1000,-14,-27,-11
3850,106,-30,998,-12,-28,-13
3851,160,-18,1011,-7,-9,-10
3852,93,-6,1010,-15,16,-3
3853,-40,-11,1007,-16,31,0
3854,-159,-11,971,-19,22,1
3855,-158,-26,991,-19,-1,-4
3856,-53,-38,994,-16,-23,-10
3857,87,-27,1004,-12,-27,-13
3858,166,-20,1005,-11,-12,-12
3859,105,-12,1009,-11,15,-3
3860,-15,-4,1000,-15,28,-1
3861,-153,-9,982,-17,24,3
3862,-162,-27,985,-18,1,-3
3863,-81,-41,991,-16,-22,-9
3864,78,-26,1008,-9,-29,-13
3865,154,-25,1009,-9,-15,-11
3866,124,-12,1000,-11,9,-5
3867,0,-2,1001,-16,29,0
3868,-136,-4,986,-19,29,2
3869,-171,-31,984,-19,7,-3
3870,-98,-38,981,-16,-19,-9
3871,57,-26,1011,-11,-31,-12
3872,146,-27,1011,-10,-19,-12
3873,138,-14,1010,-11,8,-5
3874,18,0,993,-16,28,0
3875,-122,-4,985,-18,29,2
3876,-172,-28,988,-20,9,-2
3877,-115,-31,980,-18,-16,-8
3878,38,-35,1011,-12,-29,-13
3879,132,-31,1014,-10,-20,-12
3880,150,-9,1003,-10,2,-6
3881,39,-2,1001,-14,24,-1
3882,-104,-7,995,-18,30,2
3883,-172,-25,973,-19,14,-2
3884,-131,-26,982,-17,-11,-5
3885,18,-35,1013,-14,-31,-13
3886,122,-28,1005,-9,-24,-14
3887,159,-10,1005,-9,-2,-9
3888,59,-2,1012,-15,23,-2
3889,-84,-11,998,-17,30,3
3890,-173,-19,969,-18,17,1
3891,-140,-28,979,-16,-8,-7
3892,-9,-37,1007,-13,-29,-12
3893,112,-28,1009,-11,-25,-13
3894,165,-13,1006,-10,-4,-10
3895,72,-2,1011,-12,21,-2
3896,-60,-11,998,-17,30,1
3897,-168,-13,974,-19,20,1
3898,-149,-27,986,-18,-5,-4
3899,-38,-39,994,-14,-27,-11
3900,108,-30,1004,-11,-28,-14
3901,165,-16,1007,-8,-9,-10
3902,91,-2,1011,-13,17,-3
3903,-39,-11,1006,-17,31,1
3904,-162,-8,971,-18,22,0
3905,-159,-26,987,-19,-1,-5
3906,-58,-39,998,-15,-25,-11
3907,91,-26,1002,-11,-29,-11
3908,163,-15,1005,-10,-11,-13
3909,104,-8,1010,-12,14,-3
3910,-20,-9,1001,-16,30,1
3911,-151,-12,982,-18,25,3
3912,-164,-26,986,-18,2,-3
3913,-82,-37,992,-15,-21,-9
3914,74,-24,1010,-12,-30,-14
3915,154,-23,1008,-10,-16,-13
3916,124,-15,1002,-10,10,-4
3917,0,-6,1001,-17,27,0
3918,-134,-7,986,-18,27,0
3919,-167,-29,988,-19,6,-3
3920,-102,-32,978,-16,-18,-9
3921,54,-25,1011,-10,-31,-13
3922,148,-26,1013,-11,-18,-12
3923,134,-13,1006,-11,8,-5
3924,23,-4,995,-14,26,-1
3925,-123,-12,983,-17,30,3
3926,-171,-27,985,-19,8,-4
3927,-117,-31,983,-16,-14,-7
3928,39,-23,1009,-10,-28,-12
3929,134,-31,1012,-11,-20,-12
3930,149,-11,1004,-11,2,-7
3931,42,-4,997,-16,24,-1
3932,-104,-13,997,-19,30,3
3933,-174,-27,969,-19,13,-1
3934,-128,-29,987,-16,-10,-8
3935,18,-33,1009,-11,-29,-12
3936,120,-28,1011,-10,-23,-13
3937,161,-11,1006,-10,-3,-8
3938,56,-3,1009,-14,23,-1
3939,-81,-12,999,-17,31,1
3940,-174,-18,973,-19,16,0
3941,-140,-27,977,-18,-10,-6
3942,-10,-38,1009,-12,-29,-11
3943,115,-31,1008,-11,-26,-12
3944,161,-11,1008,-13,-5,-9
3945,77,-2,1005,-12,20,-2
3946,-65,-13,1006,-16,31,2
3947,-165,-13,966,-20,19,0
3948,-150,-29,989,-18,-4,-5
3949,-34,-36,994,-13,-27,-12
3950,104,-29,1003,-11,-29,-14
3951,168,-17,1008,-10,-10,-11
3952,86,-7,1011,-12,18,-1
3953,-39,-8,1007,-17,30,2
3954,-162,-14,971,-19,23,2
3955,-160,-22,987,-18,-1,-4
3956,-56,-42,997,-15,-24,-11
3957,89,-27,1003,-10,-28,-12
3958,164,-19,1006,-10,-13,-10
3959,103,-8,1007,-12,15,-4
3960,-21,-8,1003,-16,29,0
3961,-150,-7,978,-20,25,2
3962,-166,-26,986,-18,2,-3
3963,-80,-38,991,-15,-22,-9
3964,77,-27,1011,-12,-30,-13
3965,156,-23,1004,-9,-15,-11
3966,123,-12,1004,-10,10,-4
3967,2,-5,998,-16,28,0
3968,-140,-6,989,-19,29,3
3969,-168,-28,983,-20,6,-3
3970,-103,-34,982,-16,-19,-10
3971,61,-25,1009,-11,-30,-14
3972,147,-27,1013,-11,-18,-13
3973,138,-17,1008,-10,7,-7
3974,18,0,993,-14,28,0
3975,-123,-5,986,-18,28,2
3976,-174,-24,987,-19,8,-2
3977,-117,-31,984,-18,-15,-8
3978,42,-30,1007,-13,-29,-12
3979,133,-31,1015,-12,-19,-12
3980,150,-11,1004,-10,3,-6
3981,42,-4,1000,-14,25,-1
3982,-103,-9,994,-17,30,1
3983,-175,-27,974,-19,14,-1
3984,-127,-25,984,-16,-12,-7
3985,15,-32,1010,-13,-30,-12
3986,123,-28,1006,-10,-23,-15
3987,155,-10,1006,-10,0,-9
3988,59,-4,1005,-13,24,-3
3989,-89,-15,1001,-18,32,3
3990,-167,-20,969,-18,16,-1
3991,-142,-27,980,-17,-9,-5
3992,-8,-36,1005,-13,-28,-12
3993,113,-29,1015,-10,-24,-13
3994,163,-10,1007,-11,-5,-10
3995,70,-5,1003,-14,21,-1
3996,-64,-10,1005,-16,31,2
3997,-167,-16,967,-19,19,1
3998,-148,-31,989,-18,-6,-6
3999,-32,-39,996,-13,-27,-11
4000,103,-24,1003,-10,-26,-14
4001,167,-15,1006,-9,-9,-11
4002,83,-4,1013,-11,19,-2
4003,-40,-6,1002,-17,30,1
4004,-163,-15,974,-19,23,2
4005,-156,-27,984,-18,-3,-3
4006,-56,-40,996,-15,-25,-11
4007,87,-25,1002,-9,-28,-14
4008,164,-15,1007,-10,-11,-11
4009,104,-7,1007,-12,14,-3
4010,-23,-6,1002,-16,30,2
4011,-151,-7,977,-20,24,0
4012,-161,-29,990,-18,1,-4
4013,-80,-36,987,-15,-21,-9
4014,79,-26,1016,-11,-29,-14
4015,156,-24,1004,-11,-15,-11
4016,119,-8,999,-11,11,-4
4017,0,-8,1003,-16,28,0
4018,-141,-4,985,-19,29,3
4019,-164,-27,986,-19,6,-4
4020,-102,-36,984,-16,-18,-8
4021,60,-26,1011,-11,-29,-13
4022,149,-27,1009,-11,-17,-12
4023,133,-13,1009,-12,7,-5
4024,23,-3,992,-15,27,-1
4025,-123,-10,987,-20,29,3
4026,-173,-27,986,-20,8,-2
4027,-119,-30,979,-17,-15,-8
4028,41,-28,1010,-12,-30,-13
4029,136,-29,1012,-10,-19,-11
4030,148,-7,1007,-9,3,-6
4031,40,-5,997,-15,23,0
4032,-108,-6,993,-17,31,3
4033,-173,-23,974,-19,13,-1
4034,-126,-27,983,-17,-11,-6
4035,19,-33,1009,-12,-29,-11
4036,120,-29,1008,-10,-21,-12
4037,161,-10,1011,-10,-1,-8
4038,57,-3,1004,-14,24,-1
4039,-84,-7,1003,-17,30,3
4040,-171,-21,968,-20,16,0
4041,-140,-25,977,-16,-8,-6
4042,-8,-36,1008,-13,-28,-12
4043,115,-25,1009,-10,-24,-13
4044,164,-10,1009,-10,-4,-10
4045,74,-5,1004,-14,21,-2
4046,-64,-12,1007,-16,30,1
4047,-167,-16,968,-20,19,0
4048,-146,-26,988,-17,-5,-6
4049,-34,-37,998,-13,-26,-11
4050,103,-22,1002,-9,-27,-13
4051,166,-16,1008,-9,-9,-11
4052,85,-2,1014,-13,19,-3
4053,-36,-10,1003,-19,31,0
4054,-163,-15,974,-17,19,-1
4055,-155,-30,985,-9,-10,-8
4056,-58,-41,996,-13,-24,-10
4057,90,-25,1004,-11,-27,-12
4058,161,-17,1005,-12,-11,-11
4059,106,-8,1007,-11,14,-5
4060,-21,-7,1004,-17,29,1
4061,-148,-6,981,-18,24,1
4062,-165,-28,988,-16,1,-3
4063,-81,-36,990,-15,-22,-9
4064,77,-28,1008,-11,-29,-13
4065,153,-21,1008,-9,-16,-11
4066,120,-13,1001,-11,10,-6
4067,1,-3,998,-15,30,0
4068,-137,-7,985,-19,27,3
4069,-169,-25,988,-17,5,-2
4070,-100,-37,981,-17,-19,-7
4071,55,-25,1010,-11,-30,-11
4072,145,-28,1014,-10,-19,-12
4073,137,-16,1011,-10,8,-6
4074,25,-1,991,-15,26,-1
4075,-121,-10,987,-18,29,2
4076,-171,-26,983,-19,9,-2
4077,-119,-30,984,-16,-13,-7
4078,39,-31,1008,-11,-29,-13
4079,132,-31,1014,-10,-20,-12
4080,149,-12,1003,-9,2,-7
4081,42,-3,1001,-13,26,-1
4082,-103,-7,995,-18,31,2
4083,-173,-25,969,-19,14,-2
4084,-128,-28,984,-16,-12,-7
4085,13,-34,1009,-12,-29,-11
4086,119,-28,1010,-9,-23,-13
4087,161,-13,1008,-9,-2,-8
4088,57,-4,1004,-13,23,-2
4089,-79,-13,1001,-17,31,2
4090,-170,-22,966,-19,17,0
4091,-141,-23,982,-16,-8,-5
4092,-13,-37,1005,-12,-27,-12
4093,110,-26,1009,-11,-23,-12
4094,166,-13,1006,-10,-6,-8
4095,73,-7,1008,-11,21,-1
4096,-57,-12,1002,-16,31,3
4097,-163,-11,971,-19,20,0
4098,-151,-28,988,-19,-3,-4
4099,-39,-37,996,-14,-25,-11
4100,101,-26,1005,-11,-28,-12
4101,163,-20,1005,-10,-11,-10
4102,90,-4,1013,-12,17,-2
4103,-40,-12,1005,-16,31,0
4104,-157,-8,972,-17,24,1
4105,-160,-29,989,-18,-2,-3
4106,-61,-34,993,-13,-25,-10
4107,86,-28,1009,-12,-28,-14
4108,159,-24,1001,-11,-14,-11
4109,109,-13,1004,-10,12,-4
4110,-11,-5,1000,-15,28,1
4111,-146,-4,983,-18,26,2
4112,-163,-23,985,-18,4,-4
4113,-93,-34,990,-16,-19,-8
4114,69,-25,1009,-12,-30,-13
4115,152,-30,1006,-12,-16,-12
4116,126,-15,1005,-10,9,-6
4117,8,-4,995,-15,27,0
4118,-134,-5,987,-18,28,3
4119,-169,-27,989,-17,7,-3
4120,-107,-31,979,-16,-18,-8
4121,52,-25,1011,-11,-31,-14
4122,142,-32,1014,-11,-18,-12
4123,138,-12,1004,-12,6,-5
4124,29,-6,993,-13,27,-1
4125,-117,-5,991,-18,30,3
4126,-171,-25,980,-19,10,-2
4127,-123,-27,988,-15,-14,-8
4128,32,-31,1006,-14,-29,-13
4129,127,-29,1009,-8,-21,-13
4130,152,-9,1006,-10,2,-7
4131,48,0,1000,-14,24,-1
4132,-97,-12,1001,-18,29,2
4133,-173,-23,969,-19,13,-1
4134,-129,-29,981,-18,-12,-7
4135,5,-31,1010,-14,-29,-10
4136,117,-27,1009,-11,-24,-13
4137,161,-13,1009,-10,-2,-7
4138,63,-3,1005,-13,22,-2
4139,-79,-11,1001,-17,31,2
4140,-164,-14,971,-21,16,-1
4141,-147,-29,980,-19,-7,-6
4142,-15,-37,1002,-13,-27,-12
4143,111,-35,1008,-12,-25,-14
4144,161,-12,1006,-10,-7,-9
4145,79,-5,1012,-12,18,-1
4146,-54,-8,1003,-17,30,1
4147,-162,-12,969,-19,21,2
4148,-152,-26,989,-19,-4,-5
4149,-43,-43,997,-17,-26,-11
4150,98,-27,1000,-8,-28,-12
4151,161,-22,1006,-10,-11,-10
4152,99,-4,1014,-12,16,-4
4153,-34,-8,1002,-17,30,0
4154,-157,-5,973,-19,23,2
4155,-158,-27,988,-18,0,-4
4156,-69,-36,995,-17,-23,-10
4157,85,-30,1006,-11,-29,-13
4158,160,-25,1006,-10,-14,-11
4159,114,-8,1002,-12,12,-4
4160,-11,-10,1003,-15,29,0
4161,-144,-5,985,-18,27,3
4162,-164,-25,990,-18,3,-4
4163,-91,-34,984,-15,-19,-10
4164,68,-24,1011,-11,-29,-13
4165,151,-24,1008,-11,-17,-13
4166,127,-15,1006,-12,9,-6
4167,15,-5,995,-14,27,-1
4168,-131,-6,986,-16,29,2
4169,-171,-28,985,-18,7,-2
4170,-106,-29,983,-16,-17,-7
4171,47,-26,1009,-11,-30,-14
4172,138,-27,1014,-11,-18,-13
4173,143,-13,1007,-11,4,-6
4174,33,-2,995,-15,25,0
4175,-110,-8,991,-19,29,2
4176,-173,-28,983,-18,13,-1
4177,-124,-29,977,-17,-14,-8
4178,23,-33,1014,-12,-29,-12
4179,126,-29,1006,-10,-22,-13
4180,156,-13,1005,-11,-1,-8
4181,52,-1,1002,-14,24,-1
4182,-92,-13,1004,-16,31,1
4183,-170,-19,968,-19,16,-1
4184,-140,-26,977,-17,-9,-6
4185,0,-36,1012,-13,-28,-13
4186,115,-31,1011,-11,-24,-12
4187,162,-12,1004,-10,-5,-10
4188,69,-5,1007,-12,22,-2
4189,-70,-8,1002,-16,31,2
4190,-164,-16,968,-19,19,2
4191,-152,-26,986,-19,-5,-4
4192,-25,-39,1001,-14,-27,-11
4193,103,-32,1003,-11,-26,-14
4194,167,-13,1010,-9,-8,-10
4195,82,-6,1011,-13,19,-2
4196,-47,-9,1005,-16,31,-1
4197,-162,-13,973,-18,22,3
4198,-153,-27,988,-19,-2,-4
4199,-53,-40,995,-16,-24,-10
4200,89,-24,1002,-9,-30,-13
4201,162,-21,1006,-10,-13,-11
4202,99,-7,1011,-11,16,-3
4203,-26,-9,1001,-16,30,0
4204,-153,-4,978,-19,24,1
4205,-162,-28,987,-19,2,-4
4206,-74,-37,991,-15,-21,-9
4207,78,-26,1012,-11,-28,-13
4208,156,-22,1003,-10,-14,-11
4209,116,-13,1004,-11,11,-5
4210,-3,-5,997,-15,28,-2
4211,-137,-5,990,-20,29,3
4212,-164,-27,987,-19,6,-2
4213,-99,-37,983,-15,-18,-9
4214,61,-29,1008,-10,-30,-13
4215,147,-26,1016,-9,-18,-12
4216,132,-13,1003,-12,8,-5
4217,19,-4,993,-16,27,-2
4218,-125,-11,988,-18,29,3
4219,-170,-25,984,-18,9,-2
4220,-116,-30,986,-17,-15,-8
4221,45,-28,1008,-12,-29,-13
4222,132,-30,1010,-12,-18,-14
4223,149,-9,1007,-10,2,-6
4224,41,-3,997,-14,26,0
4225,-107,-8,993,-18,29,3
4226,-175,-24,978,-20,12,-2
4227,-125,-29,980,-17,-12,-7
4228,18,-35,1007,-12,-29,-13
4229,123,-30,1012,-8,-24,-13
4230,160,-10,1005,-9,-1,-8
4231,55,-1,1005,-15,24,-1
4232,-85,-10,1003,-18,31,2
4233,-173,-21,969,-19,16,-1
4234,-139,-26,974,-18,-10,-5
4235,-6,-42,1010,-13,-27,-13
4236,114,-28,1007,-10,-25,-14
4237,166,-10,1008,-9,-6,-9
4238,70,-3,1007,-12,21,-1
4239,-62,-9,1000,-18,31,1
4240,-166,-17,969,-21,20,1
4241,-151,-26,987,-19,-3,-4
4242,-34,-43,997,-14,-26,-12
4243,103,-29,1001,-10,-27,-14
4244,165,-19,1007,-10,-11,-10
4245,93,-4,1012,-13,17,-3
4246,-43,-7,1003,-15,30,1
4247,-157,-6,973,-19,23,1
4248,-157,-28,990,-17,-1,-4
4249,-61,-36,991,-16,-25,-10
4250,93,-31,1007,-10,-27,-12
4251,161,-23,1004,-11,-11,-10
4252,105,-10,1006,-11,16,-2
4253,-17,-3,1008,-15,28,1
4254,-151,-4,979,-19,25,2
4255,-163,-25,987,-18,5,-3
4256,-85,-38,992,-16,-20,-9
4257,77,-26,1005,-13,-29,-12
4258,153,-27,1010,-9,-15,-10
4259,123,-14,1005,-11,10,-4
4260,4,-3,999,-15,28,0
4261,-133,-4,986,-18,30,3
4262,-170,-27,988,-19,7,-2
4263,-98,-34,978,-16,-18,-10
4264,52,-28,1008,-11,-29,-12
4265,144,-26,1011,-10,-18,-12
4266,139,-12,1009,-11,7,-6
4267,26,-4,991,-15,26,-1
4268,-121,-8,991,-17,29,3
4269,-172,-26,984,-19,9,-2
4270,-119,-29,982,-16,-14,-7
4271,38,-30,1013,-12,-29,-12
4272,128,-30,1008,-10,-22,-12
4273,150,-12,1006,-10,2,-8
4274,45,-4,1000,-15,24,-1
4275,-102,-10,997,-17,30,2
4276,-170,-22,968,-19,15,-1
4277,-128,-25,984,-17,-11,-8
4278,10,-36,1010,-13,-30,-13
4279,118,-28,1012,-11,-24,-13
4280,161,-14,1004,-12,-4,-8
4281,60,-2,1008,-14,23,-1
4282,-78,-15,998,-18,29,1
4283,-171,-21,971,-18,17,0
4284,-139,-22,982,-17,-7,-6
4285,-17,-36,1005,-14,-26,-10
4286,112,-26,1007,-11,-25,-12
4287,164,-15,1006,-12,-7,-10
4288,76,-2,1009,-12,19,-3
4289,-60,-8,1002,-18,31,1
4290,-159,-14,972,-20,20,0
4291,-151,-29,988,-17,-4,-4
4292,-41,-38,994,-16,-25,-11
4293,100,-29,1005,-11,-27,-13
4294,158,-16,1003,-10,-10,-10
4295,95,-6,1012,-13,17,-3
4296,-34,-9,1005,-18,30,1
4297,-153,-8,969,-19,23,0
4298,-157,-28,990,-16,0,-4
4299,-69,-37,993,-14,-22,-9
4300,86,-28,1006,-11,-28,-13
4301,156,-22,1007,-9,-12,-12
4302,112,-7,999,-13,12,-4
4303,-8,-8,1003,-16,28,-1
4304,-143,-4,982,-19,27,3
4305,-165,-29,988,-19,5,-3
4306,-90,-38,987,-16,-19,-10
4307,67,-28,1009,-12,-31,-13
4308,148,-26,1011,-10,-17,-12
4309,125,-15,1005,-11,9,-5
4310,14,-2,993,-14,26,-2
4311,-130,-6,989,-18,29,2
4312,-168,-27,988,-18,7,-3
4313,-111,-34,981,-16,-17,-8
4314,49,-28,1008,-12,-29,-13
4315,137,-29,1015,-11,-18,-13
4316,144,-12,1006,-10,4,-7
4317,31,-3,995,-14,26,0
4318,-111,-8,992,-17,29,2
4319,-173,-27,978,-19,12,-1
4320,-121,-26,981,-18,-12,-7
4321,24,-35,1012,-13,-29,-12
4322,125,-27,1006,-10,-23,-13
4323,156,-10,1007,-9,0,-7
4324,48,0,1003,-14,24,-2
4325,-92,-12,1002,-18,30,3
4326,-172,-21,968,-16,15,-1
4327,-132,-30,978,-17,-11,-6
4328,1,-33,1011,-12,-29,-13
4329,113,-29,1011,-11,-24,-14
4330,162,-10,1007,-12,-4,-9
4331,66,-1,1005,-13,22,-1
4332,-71,-12,1001,-16,31,1
4333,-164,-17,973,-20,18,1
4334,-148,-27,986,-16,-6,-5
4335,-26,-39,999,-14,-26,-12
4336,106,-32,1006,-10,-26,-13
4337,161,-15,1005,-8,-8,-9
4338,82,-5,1009,-13,18,-2
4339,-48,-6,1008,-17,30,0
4340,-159,-12,970,-20,22,1
4341,-154,-28,988,-17,-3,-5
4342,-54,-41,996,-15,-25,-10
4343,94,-28,1003,-12,-29,-14
4344,159,-20,1006,-9,-10,-11
4345,99,-6,1006,-11,16,-3
4346,-20,-6,1005,-16,30,0
4347,-152,-7,975,-19,26,2
4348,-163,-25,988,-18,2,-3
4349,-76,-40,993,-17,-21,-10
4350,79,-26,1010,-10,-29,-13
4351,156,-23,1004,-10,-14,-11
4352,118,-13,1004,-11,11,-5
4353,-2,-6,999,-15,29,-1
4354,-136,-6,988,-19,29,2
4355,-167,-29,987,-20,6,-4
4356,-100,-30,983,-14,-18,-9
4357,60,-24,1008,-11,-30,-13
4358,140,-27,1017,-11,-18,-13
4359,137,-16,1006,-11,7,-6
4360,18,-9,991,-14,27,0
4361,-119,-9,986,-16,29,2
4362,-169,-28,984,-18,8,-2
4363,-115,-25,987,-15,-15,-8
4364,39,-27,1007,-12,-30,-12
4365,130,-29,1015,-10,-20,-14
4366,149,-15,1001,-10,2,-7
4367,37,-5,1001,-14,24,-1
4368,-102,-13,995,-19,30,2
4369,-172,-26,976,-18,14,0
4370,-121,-24,978,-17,-11,-7
