sequence,AccelerometerX,AccelerometerY,AccelerometerZ,GyroscopeX,GyroscopeY,GyroscopeZ
0,-182,-11,967,-10,20,-1
1,-177,-20,987,-18,-6,-5
2,-56,-28,1001,-11,-26,-12
3,108,-19,1007,-9,-26,-15
4,185,-22,1011,-16,-10,-10
5,115,-19,1010,-27,11,-3
6,-30,-22,1004,-15,31,0
7,-169,-16,975,-15,23,0
8,-182,-20,983,-14,-2,-6
9,-81,-28,994,-16,-24,-11
10,94,-18,1015,-12,-30,-14
11,178,-21,1000,-14,-12,-11
12,134,-21,1003,-14,13,-3
13,-7,-20,1007,-15,30,0
14,-161,-14,987,-17,26,2
15,-184,-27,985,-14,3,-4
16,-102,-29,990,-15,-22,-9
17,78,-11,1010,-13,-31,-14
18,171,-24,1013,-12,-14,-13
19,147,-22,1002,-13,10,-3
20,11,-17,996,-15,29,0
21,-146,-15,991,-15,28,2
22,-188,-29,989,-15,5,-3
23,-118,-24,976,-13,-19,-10
24,56,-18,1014,-12,-32,-12
25,160,-26,1014,-14,-18,-13
26,161,-24,1004,-13,8,-5
27,32,-14,993,-13,28,-2
28,-130,-18,994,-14,28,2
29,-192,-23,986,-15,9,-1
30,-135,-23,983,-15,-16,-8
31,37,-24,1013,-12,-31,-14
32,146,-28,1012,-11,-19,-13
33,172,-18,1003,-11,5,-7
34,55,-16,1001,-12,27,-3
35,-116,-22,994,-15,31,1
36,-190,-17,976,-14,13,-2
37,-144,-20,982,-15,-13,-8
38,13,-20,1015,-12,-30,-13
39,136,-30,1010,-13,-21,-14
40,182,-19,1006,-13,-1,-10
41,69,-20,999,-13,25,-1
42,-89,-21,1004,-14,31,2
43,-191,-18,968,-14,15,0
44,-160,-15,984,-14,-11,-6
45,-7,-29,1013,-14,-30,-14
46,123,-25,1010,-13,-24,-16
47,188,-20,1008,-14,-3,-9
48,84,-18,1005,-15,23,0
49,-68,-20,1003,-15,32,2
50,-188,-20,964,-17,18,-1
51,-168,-16,989,-15,-7,-7
52,-32,-27,1002,-14,-28,-12
53,118,-21,1007,-12,-26,-15
54,187,-22,1008,-14,-8,-11
55,101,-16,1013,-13,19,-3
56,-43,-24,1003,-13,31,1
57,-181,-17,969,-14,21,1
58,-177,-23,989,-15,-5,-5
59,-60,-25,996,-14,-27,-11
60,105,-20,1010,-12,-29,-13
61,188,-24,1002,-13,-10,-12
62,115,-18,1012,-13,19,-1
63,-25,-21,1003,-14,32,2
64,-171,-18,977,-16,24,1
65,-184,-24,980,-13,-1,-5
66,-85,-30,996,-14,-24,-11
67,92,-17,1017,-14,-29,-14
68,178,-22,1000,-13,-13,-11
69,135,-20,1007,-13,13,-4
70,-8,-18,1003,-14,30,0
71,-157,-16,989,-17,28,1
72,-187,-28,985,-15,3,-3
73,-104,-29,982,-14,-20,-10
74,76,-17,1015,-11,-30,-14
75,169,-26,1013,-12,-16,-12
76,150,-18,1002,-14,10,-4
77,16,-15,1000,-14,30,0
78,-142,-12,990,-15,28,1
79,-196,-27,992,-16,4,-3
80,-120,-27,978,-15,-19,-10
81,54,-21,1012,-13,-31,-14
82,162,-25,1014,-13,-19,-14
83,164,-19,1008,-13,6,-6
84,37,-15,990,-15,28,0
85,-130,-18,991,-15,30,2
86,-194,-22,987,-15,7,-3
87,-136,-23,984,-16,-16,-8
88,39,-23,1012,-11,-31,-13
89,143,-28,1010,-15,-21,-14
90,176,-13,1006,-12,2,-8
91,56,-18,998,-15,26,-1
92,-110,-21,998,-16,30,2
93,-194,-24,973,-15,11,-1
94,-144,-19,986,-13,-13,-8
95,9,-24,1009,-14,-31,-12
96,135,-26,1012,-12,-23,-15
97,183,-16,1004,-12,0,-8
98,70,-12,1004,-13,24,0
99,-89,-25,1003,-14,31,1
100,-194,-20,964,-16,15,-2
101,-158,-18,981,-14,-10,-7
102,-13,-28,1013,-13,-29,-12
103,123,-24,1011,-14,-24,-13
104,185,-18,1006,-13,-5,-9
105,89,-17,1007,-13,23,-2
106,-67,-21,999,-14,31,2
107,-182,-18,969,-15,20,-1
108,-173,-17,989,-15,-6,-6
109,-35,-28,1004,-12,-29,-12
110,115,-23,1006,-12,-28,-14
111,186,-23,1008,-13,-8,-11
112,104,-18,1013,-14,20,-3
113,-45,-20,1005,-14,31,1
114,-178,-15,967,-16,21,2
115,-179,-19,988,-16,-4,-5
116,-61,-30,999,-14,-26,-11
117,103,-22,1007,-12,-28,-13
118,189,-24,1006,-13,-11,-11
119,117,-19,1008,-13,17,-2
120,-22,-13,1005,-13,31,1
121,-169,-15,978,-17,23,2
122,-184,-24,979,-14,-1,-4
123,-87,-30,994,-13,-25,-11
124,94,-19,1015,-13,-30,-15
125,179,-25,1003,-15,-13,-11
126,139,-16,1000,-13,13,-4
127,-8,-20,1004,-14,31,0
128,-156,-11,990,-15,26,2
129,-190,-29,988,-16,3,-4
130,-108,-27,980,-14,-21,-11
131,76,-18,1015,-14,-31,-15
132,173,-23,1012,-13,-17,-13
133,148,-22,1004,-13,11,-5
134,22,-16,996,-14,30,0
135,-146,-18,991,-15,29,2
136,-192,-24,988,-15,5,-4
137,-124,-28,982,-15,-19,-9
138,54,-14,1008,-12,-31,-13
139,162,-25,1015,-14,-18,-14
140,167,-22,1009,-11,6,-7
141,38,-15,990,-13,28,0
142,-130,-17,991,-14,30,2
143,-195,-24,984,-14,9,-2
144,-135,-18,986,-13,-15,-7
145,36,-21,1011,-11,-31,-12
146,145,-27,1013,-13,-21,-13
147,178,-17,1004,-12,2,-7
148,57,-15,998,-13,25,-1
149,-112,-20,1001,-15,30,3
150,-193,-21,972,-14,13,-2
151,-147,-20,982,-15,-14,-7
152,9,-27,1014,-14,-31,-12
153,136,-23,1013,-13,-23,-13
154,183,-19,1006,-14,-1,-8
155,73,-16,1002,-13,25,-1
156,-86,-23,1005,-15,31,2
157,-192,-20,964,-17,16,0
158,-159,-18,985,-13,-11,-7
159,-14,-29,1012,-12,-29,-13
160,126,-24,1006,-15,-24,-13
161,186,-17,1011,-13,-4,-9
162,85,-18,1008,-13,22,-2
163,-64,-22,998,-15,31,2
164,-181,-18,972,-17,18,1
165,-171,-22,986,-15,-7,-5
166,-39,-28,1001,-15,-28,-11
167,114,-22,1009,-14,-26,-13
168,185,-19,1007,-13,-8,-10
169,108,-18,1013,-14,20,-1
170,-41,-22,1005,-16,32,1
171,-175,-17,969,-15,21,1
172,-179,-20,986,-13,-3,-6
173,-68,-26,997,-16,-26,-11
174,105,-22,1009,-13,-29,-14
175,180,-24,1005,-12,-10,-12
176,121,-22,1006,-14,15,-3
177,-22,-20,1008,-14,30,0
178,-166,-14,979,-16,25,2
179,-185,-25,982,-15,0,-4
180,-93,-27,991,-15,-22,-10
181,87,-19,1012,-14,-29,-13
182,172,-20,1010,-14,-14,-12
183,140,-21,998,-15,12,-3
184,1,-18,1006,-13,31,0
185,-152,-11,989,-15,28,2
186,-189,-25,985,-14,5,-4
187,-111,-23,985,-15,-22,-10
188,68,-17,1012,-12,-31,-13
189,169,-24,1017,-14,-16,-14
190,156,-26,1007,-14,9,-5
191,21,-17,989,-13,29,0
192,-137,-17,993,-14,28,2
193,-196,-25,988,-16,7,-2
194,-124,-23,982,-16,-19,-11
195,50,-17,1013,-13,-32,-13
196,149,-23,1015,-13,-18,-14
197,174,-19,1004,-15,6,-6
198,40,-20,995,-15,28,1
199,-121,-19,996,-15,31,2
200,-197,-29,981,-15,9,-2
201,-141,-16,980,-15,-15,-6
202,26,-24,1017,-14,-30,-14
203,140,-24,1007,-12,-21,-13
204,178,-21,1004,-12,2,-7
205,63,-12,1001,-15,25,-1
206,-101,-23,1002,-16,31,2
207,-190,-17,966,-14,13,-3
208,-154,-22,983,-15,-12,-6
209,2,-23,1014,-13,-31,-13
210,129,-26,1011,-14,-23,-13
211,186,-14,1007,-14,-2,-9
212,76,-18,1006,-15,24,-1
213,-76,-23,1001,-15,31,1
214,-191,-22,966,-16,16,0
215,-165,-15,986,-16,-8,-6
216,-18,-28,1010,-13,-30,-13
217,120,-22,1005,-14,-27,-13
218,184,-18,1007,-13,-7,-9
219,94,-19,1010,-14,21,-2
220,-55,-23,1003,-16,32,0
221,-178,-15,970,-15,20,0
222,-171,-21,986,-15,-6,-6
223,-49,-27,1002,-14,-27,-11
224,108,-19,1006,-11,-26,-13
225,183,-23,1010,-13,-8,-11
226,109,-20,1011,-13,19,-2
227,-34,-20,1005,-15,31,0
228,-170,-18,974,-16,21,1
229,-179,-22,985,-14,-2,-5
230,-78,-30,995,-15,-25,-11
231,95,-22,1016,-14,-28,-13
232,180,-26,1000,-13,-11,-12
233,126,-21,1003,-13,14,-3
234,-7,-16,1012,-14,29,-1
235,-163,-12,984,-16,25,2
236,-182,-25,982,-15,2,-5
237,-101,-30,991,-15,-21,-10
238,80,-19,1009,-12,-30,-13
239,173,-27,1013,-12,-16,-13
240,147,-22,1000,-13,11,-4
241,10,-16,997,-15,30,1
242,-146,-11,992,-16,27,1
243,-192,-26,988,-16,4,-5
244,-116,-24,978,-14,-21,-10
245,59,-20,1012,-12,-31,-13
246,160,-26,1015,-12,-18,-13
247,163,-24,1007,-14,7,-7
248,27,-10,986,-14,27,-1
249,-130,-17,994,-15,29,2
250,-193,-24,985,-14,9,-4
251,-135,-26,984,-16,-15,-8
252,39,-19,1012,-13,-32,-15
253,142,-32,1013,-14,-19,-14
254,177,-14,1002,-12,4,-8
255,51,-19,1003,-15,27,-1
256,-110,-20,993,-15,30,2
257,-195,-23,975,-16,13,-1
258,-144,-18,984,-16,-13,-7
259,12,-29,1018,-14,-30,-12
260,139,-24,1007,-13,-22,-14
261,179,-20,1007,-13,1,-8
262,74,-14,1000,-14,25,0
263,-91,-23,1000,-15,31,2
264,-191,-21,968,-16,14,-1
265,-159,-21,983,-14,-11,-5
266,-10,-26,1011,-13,-29,-13
267,127,-28,1013,-13,-24,-14
268,184,-15,1006,-13,-3,-9
269,86,-16,1006,-13,22,-2
270,-68,-20,1005,-14,30,0
271,-184,-17,965,-15,19,1
272,-167,-20,990,-13,-6,-5
273,-37,-30,1005,-15,-27,-12
274,120,-21,1005,-12,-28,-14
275,183,-21,1008,-13,-7,-11
276,105,-16,1009,-14,20,-2
277,-45,-25,1009,-14,31,1
278,-181,-14,967,-15,21,1
279,-174,-22,988,-15,-5,-5
280,-63,-28,997,-14,-26,-11
281,104,-18,1008,-13,-27,-15
282,184,-22,1009,-13,-10,-12
283,117,-21,1006,-13,17,-2
284,-20,-18,1008,-15,31,0
285,-170,-16,981,-17,23,1
286,-180,-22,985,-14,-1,-4
287,-87,-33,991,-14,-23,-10
288,84,-15,1015,-12,-30,-13
289,177,-23,1006,-12,-14,-13
290,134,-21,1001,-13,12,-5
291,0,-22,1001,-14,29,0
292,-152,-9,990,-14,27,2
293,-189,-26,986,-16,3,-3
294,-109,-25,982,-14,-21,-10
295,67,-20,1012,-13,-30,-13
296,162,-28,1012,-14,-16,-13
297,154,-24,1008,-12,10,-5
298,21,-16,988,-13,28,-1
299,-137,-12,992,-13,28,2
300,-193,-26,990,-17,7,-2
301,-124,-19,981,-15,-18,-9
302,46,-23,1012,-14,-29,-13
303,147,-27,1014,-13,-17,-13
304,166,-22,1002,-13,6,-6
305,46,-17,995,-13,27,0
306,-116,-17,996,-15,31,2
307,-191,-23,979,-15,12,-3
308,-139,-21,985,-14,-14,-7
309,23,-24,1015,-14,-32,-13
310,137,-29,1010,-12,-20,-13
311,177,-16,1004,-11,2,-8
312,66,-13,1005,-13,25,-2
313,-95,-19,1000,-14,31,1
314,-188,-23,968,-17,13,-2
315,-152,-20,985,-13,-11,-7
316,-5,-26,1013,-14,-31,-12
317,129,-25,1012,-14,-23,-14
318,182,-17,1006,-12,-2,-9
319,81,-16,1003,-15,24,-2
320,-71,-23,1004,-15,32,1
321,-187,-21,965,-17,17,0
322,-163,-19,988,-15,-7,-6
323,-31,-28,1005,-12,-27,-11
324,124,-20,1007,-13,-26,-13
325,185,-20,1007,-11,-8,-10
326,97,-16,1010,-13,19,-3
327,-50,-23,1003,-15,32,0
328,-179,-15,968,-15,20,1
329,-175,-20,990,-14,-5,-5
330,-52,-30,998,-15,-25,-13
331,104,-22,1004,-12,-26,-14
332,184,-23,1009,-13,-9,-11
333,114,-22,1010,-14,19,-3
334,-29,-16,1003,-14,31,0
335,-169,-11,976,-16,22,1
336,-184,-19,982,-15,-2,-4
337,-78,-30,995,-16,-24,-11
338,93,-22,1013,-14,-29,-14
339,176,-25,1005,-13,-13,-12
340,134,-21,1001,-12,14,-5
341,-8,-19,1008,-13,29,-1
342,-154,-8,987,-15,25,2
343,-187,-25,983,-15,3,-4
344,-104,-28,988,-15,-22,-10
345,74,-18,1011,-16,-33,-13
346,170,-24,1011,-13,-16,-14
347,146,-27,1005,-12,10,-4
348,14,-15,995,-13,29,-1
349,-144,-13,990,-15,27,2
350,-191,-23,989,-16,6,-4
351,-120,-23,983,-16,-20,-8
352,57,-19,1008,-13,-31,-13
353,160,-27,1017,-13,-18,-13
354,163,-22,1007,-14,6,-5
355,35,-17,995,-12,28,-2
356,-126,-18,994,-16,29,2
357,-194,-23,983,-13,9,-3
358,-132,-17,988,-15,-15,-9
359,32,-20,1012,-14,-31,-14
360,143,-27,1010,-13,-21,-14
361,175,-22,1003,-12,3,-7
362,58,-16,1002,-14,26,-1
363,-105,-25,999,-15,32,3
364,-195,-19,974,-14,12,-3
365,-145,-14,983,-15,-13,-7
366,9,-20,1014,-13,-31,-12
367,131,-29,1011,-12,-23,-14
368,183,-18,1005,-14,-1,-8
369,71,-23,1003,-15,24,0
370,-83,-21,1001,-13,31,1
371,-189,-19,967,-14,16,-1
372,-161,-12,987,-14,-8,-7
373,-18,-30,1008,-13,-29,-14
374,122,-20,1009,-14,-26,-14
375,185,-23,1007,-14,-6,-9
376,90,-15,1006,-13,21,-1
377,-61,-28,1005,-14,31,2
378,-180,-15,965,-14,20,0
379,-173,-20,989,-14,-5,-4
380,-43,-23,1002,-13,-28,-13
381,111,-24,1008,-13,-26,-12
382,184,-20,1004,-14,-8,-12
383,108,-20,1017,-15,19,-3
384,-36,-20,1004,-14,31,1
385,-175,-18,972,-14,24,2
386,-173,-22,986,-14,-2,-6
387,-77,-31,998,-14,-25,-10
388,100,-15,1010,-14,-29,-14
389,175,-25,1007,-13,-11,-11
390,130,-18,1000,-13,15,-4
391,-15,-22,1006,-17,29,0
392,-161,-8,981,-15,25,1
393,-183,-25,987,-15,3,-4
394,-101,-27,985,-14,-23,-9
395,80,-15,1010,-12,-32,-13
396,173,-27,1014,-13,-15,-12
397,141,-20,998,-13,13,-3
398,11,-15,999,-16,29,-1
399,-148,-14,988,-17,27,1
400,-189,-25,991,-15,3,-4
401,-117,-26,978,-14,-20,-10
402,61,-19,1012,-12,-31,-14
403,158,-25,1015,-14,-17,-13
404,160,-23,1006,-12,8,-6
405,32,-13,994,-13,28,0
406,-131,-18,992,-15,29,2
407,-193,-26,986,-14,8,-4
408,-134,-21,985,-16,-16,-8
409,41,-22,1009,-13,-31,-13
410,145,-27,1015,-13,-20,-14
411,173,-17,1002,-11,4,-7
412,53,-19,999,-12,27,-1
413,-110,-20,1000,-15,32,2
414,-194,-21,973,-15,13,-2
415,-141,-21,982,-14,-14,-8
416,10,-28,1015,-13,-31,-13
417,136,-24,1011,-12,-22,-15
418,180,-16,1009,-14,0,-8
419,70,-12,999,-15,23,0
420,-85,-25,1005,-14,30,1
421,-189,-18,966,-16,13,-1
422,-157,-19,985,-17,-11,-7
423,-13,-29,1013,-13,-30,-13
424,124,-26,1008,-13,-26,-13
425,186,-17,1007,-13,-4,-10
426,84,-16,1006,-12,21,-1
427,-64,-21,1004,-14,30,1
428,-182,-21,965,-16,19,-1
429,-171,-19,993,-16,-6,-6
430,-37,-29,1000,-14,-28,-12
431,112,-25,1006,-13,-26,-13
432,183,-21,1008,-13,-8,-11
433,103,-16,1012,-14,20,-4
434,-41,-24,1006,-14,30,-2
435,-176,-14,969,-14,21,1
436,-176,-24,985,-15,-5,-6
437,-68,-28,999,-13,-25,-12
438,101,-21,1009,-13,-28,-14
439,177,-22,1003,-12,-9,-11
440,123,-18,1005,-14,16,-3
441,-18,-20,1007,-15,30,0
442,-163,-14,979,-16,24,1
443,-179,-27,987,-15,2,-5
444,-97,-26,987,-13,-21,-9
445,86,-16,1013,-14,-29,-14
446,170,-30,1013,-14,-13,-12
447,140,-20,994,-13,12,-3
448,4,-17,1000,-14,29,1
449,-150,-10,992,-16,27,2
450,-186,-24,989,-16,4,-4
451,-117,-26,980,-15,-20,-10
452,64,-20,1011,-12,-30,-13
453,159,-27,1018,-13,-16,-13
454,157,-25,1003,-14,8,-4
455,28,-15,993,-13,28,1
456,-131,-16,990,-14,28,2
457,-192,-22,988,-16,9,-2
458,-130,-21,986,-15,-16,-9
459,38,-22,1010,-14,-31,-13
460,147,-31,1013,-13,-20,-13
461,171,-23,1006,-12,3,-6
462,52,-14,998,-15,28,0
463,-113,-16,1000,-14,31,2
464,-195,-20,977,-15,12,-3
465,-141,-20,983,-15,-14,-9
466,13,-25,1014,-14,-31,-13
467,133,-29,1010,-13,-22,-13
468,181,-17,1004,-12,1,-8
469,68,-17,1003,-14,26,-1
470,-87,-21,998,-13,30,1
471,-192,-20,970,-16,15,-2
472,-156,-15,982,-14,-10,-7
473,-11,-27,1013,-13,-28,-12
474,126,-24,1007,-12,-23,-14
475,183,-19,1008,-12,-4,-9
476,87,-20,1006,-12,22,-2
477,-62,-22,1002,-16,30,1
478,-186,-15,967,-16,19,0
479,-166,-16,991,-14,-5,-7
480,-41,-29,1002,-14,-27,-12
481,118,-20,1005,-11,-26,-14
482,182,-24,1010,-13,-8,-11
483,101,-16,1009,-14,20,-2
484,-41,-23,1007,-15,32,0
485,-174,-15,971,-15,22,1
486,-177,-23,985,-17,-4,-4
487,-66,-30,995,-15,-26,-11
488,106,-21,1014,-13,-29,-14
489,175,-22,1003,-13,-10,-11
490,125,-20,1003,-12,15,-4
491,-21,-21,1009,-15,29,0
492,-161,-12,976,-16,24,2
493,-181,-28,988,-15,0,-5
494,-91,-27,988,-15,-22,-11
495,85,-19,1011,-12,-29,-13
496,174,-24,1013,-12,-14,-14
497,135,-26,999,-14,12,-3
498,3,-13,998,-12,30,0
499,-149,-14,993,-15,26,2
500,-190,-24,988,-15,5,-4
501,-111,-24,982,-15,-21,-9
502,65,-19,1009,-13,-30,-14
503,161,-29,1018,-13,-15,-14
504,155,-25,1002,-14,8,-5
505,24,-18,995,-13,28,-2
506,-132,-14,991,-14,28,3
507,-198,-21,987,-15,6,-2
508,-124,-19,987,-15,-17,-8
509,40,-24,1013,-13,-30,-13
510,146,-25,1010,-14,-20,-13
511,169,-26,1006,-13,4,-7
512,46,-16,998,-14,26,-1
513,-114,-20,997,-15,30,2
514,-193,-21,976,-16,12,-1
515,-142,-20,982,-15,-15,-8
516,13,-24,1013,-13,-32,-14
517,134,-25,1011,-13,-22,-14
518,176,-18,1007,-14,-1,-9
519,69,-19,1001,-15,24,-2
520,-90,-22,1006,-13,31,2
521,-185,-22,964,-16,14,-1
522,-157,-14,986,-14,-9,-7
523,-10,-29,1014,-15,-28,-14
524,121,-24,1009,-14,-23,-14
525,185,-23,1007,-12,-3,-10
526,82,-14,1007,-12,22,-2
527,-64,-23,1003,-15,30,2
528,-180,-21,967,-14,19,0
529,-167,-18,990,-15,-5,-6
530,-37,-28,999,-14,-28,-13
531,112,-20,1006,-12,-27,-13
532,181,-23,1005,-13,-9,-11
533,103,-16,1015,-13,19,-2
534,-41,-22,1003,-15,31,0
535,-172,-16,974,-15,21,0
536,-173,-23,981,-14,-5,-6
537,-66,-27,997,-15,-25,-11
538,103,-17,1014,-13,-27,-15
539,175,-22,1003,-15,-10,-12
540,123,-19,1007,-14,16,-3
541,-19,-20,1006,-14,30,1
542,-161,-10,981,-16,24,2
543,-180,-26,986,-14,2,-6
544,-94,-26,988,-16,-20,-10
545,85,-17,1012,-13,-30,-14
546,175,-27,1011,-12,-15,-12
547,137,-25,999,-13,12,-3
548,9,-16,996,-13,29,-1
549,-148,-16,994,-15,28,2
550,-184,-20,987,-16,3,-4
551,-115,-27,980,-15,-20,-9
552,60,-17,1012,-13,-31,-14
553,159,-27,1016,-14,-17,-13
554,152,-26,1003,-14,10,-5
555,28,-13,993,-13,28,0
556,-130,-18,989,-14,29,3
557,-193,-21,985,-14,7,-3
558,-126,-23,991,-14,-17,-9
559,37,-21,1006,-13,-29,-12
560,141,-28,1011,-14,-20,-14
561,169,-20,1007,-11,4,-7
562,50,-17,995,-14,27,-1
563,-109,-22,999,-15,30,2
564,-193,-23,976,-15,11,-1
565,-142,-18,979,-15,-14,-7
566,13,-25,1020,-13,-31,-14
567,131,-27,1008,-13,-22,-14
568,180,-19,1006,-12,1,-7
569,70,-15,1003,-14,26,-1
570,-91,-19,999,-16,31,1
571,-185,-22,967,-15,14,-2
572,-162,-16,988,-14,-10,-7
573,-11,-30,1009,-14,-29,-14
574,123,-27,1011,-13,-24,-13
575,182,-16,1005,-13,-3,-8
576,85,-12,1007,-14,22,-2
577,-63,-24,1004,-15,31,0
578,-180,-19,965,-16,18,0
579,-168,-23,991,-15,-6,-6
580,-42,-32,1001,-16,-27,-12
581,117,-20,1007,-12,-28,-14
582,182,-25,1005,-13,-8,-11
583,107,-13,1011,-12,20,-4
584,-40,-23,1006,-15,32,0
585,-170,-12,970,-15,23,0
586,-178,-22,988,-14,-2,-4
587,-69,-26,996,-14,-24,-11
588,101,-23,1013,-13,-28,-13
589,182,-22,1002,-12,-11,-10
590,122,-20,1001,-11,16,-3
591,-15,-18,1007,-12,30,-1
592,-163,-14,983,-15,25,3
593,-182,-19,985,-15,1,-4
594,-93,-30,991,-16,-23,-10
595,82,-15,1014,-13,-30,-14
596,174,-26,1006,-14,-15,-12
597,139,-26,1004,-13,12,-5
598,5,-17,999,-13,29,0
599,-149,-14,990,-15,27,2
600,-186,-23,992,-14,4,-4
601,-111,-24,977,-14,-20,-9
602,61,-13,1011,-13,-30,-14
603,159,-29,1020,-16,-17,-12
604,156,-25,1002,-14,7,-5
605,28,-21,993,-14,26,-1
606,-132,-16,990,-14,30,2
607,-191,-22,989,-15,7,-3
608,-126,-18,983,-16,-16,-9
609,36,-21,1013,-13,-30,-12
610,145,-27,1010,-14,-20,-13
611,168,-21,1004,-14,3,-5
612,52,-16,996,-15,26,-1
613,-114,-24,1000,-15,29,1
614,-193,-21,973,-15,10,-2
615,-143,-17,983,-14,-14,-8
616,12,-21,1018,-14,-30,-12
617,132,-30,1005,-14,-21,-13
618,180,-21,1008,-13,1,-9
619,65,-15,1001,-13,25,-1
620,-89,-24,1001,-14,29,2
621,-188,-19,969,-14,15,0
622,-157,-17,984,-13,-10,-7
623,-12,-26,1014,-14,-28,-14
624,127,-23,1011,-15,-25,-14
625,182,-22,1005,-14,-4,-9
626,85,-15,1006,-14,22,-1
627,-66,-27,1004,-15,31,0
628,-183,-17,964,-15,19,0
629,-169,-20,991,-14,-7,-6
630,-36,-28,1001,-14,-28,-12
631,116,-25,1006,-13,-27,-13
632,183,-19,1005,-13,-9,-12
633,99,-20,1015,-16,20,-3
634,-41,-23,1004,-16,32,0
635,-178,-17,970,-13,21,1
636,-172,-20,987,-14,-4,-6
637,-67,-31,997,-13,-25,-10
638,104,-19,1007,-13,-29,-13
639,180,-26,1010,-14,-11,-12
640,117,-17,1000,-12,16,-4
641,-19,-17,1010,-12,29,0
642,-161,-13,979,-16,25,1
643,-183,-23,983,-16,2,-5
644,-85,-30,990,-15,-23,-10
645,83,-19,1013,-14,-30,-13
646,171,-24,1006,-13,-13,-11
647,137,-24,1004,-13,12,-5
648,5,-16,998,-14,29,0
649,-149,-11,992,-15,26,2
650,-186,-24,990,-15,3,-4
651,-109,-25,979,-14,-20,-9
652,64,-17,1013,-12,-30,-13
653,160,-29,1014,-16,-16,-14
654,154,-24,1006,-13,9,-6
655,23,-16,989,-13,27,0
656,-132,-15,992,-15,28,2
657,-190,-21,987,-14,7,-2
658,-128,-20,983,-16,-17,-8
659,43,-19,1011,-13,-31,-15
660,144,-30,1016,-12,-20,-14
661,171,-21,999,-14,3,-6
662,48,-17,1004,-13,27,0
663,-113,-20,995,-15,31,3
664,-193,-20,972,-15,11,-2
665,-140,-20,987,-14,-13,-8
666,15,-25,1014,-14,-31,-13
667,139,-27,1007,-12,-21,-14
668,176,-18,1007,-13,2,-8
669,67,-17,1001,-14,25,0
670,-92,-24,999,-13,31,3
671,-190,-18,968,-15,13,-1
672,-153,-16,983,-15,-11,-7
673,-10,-27,1014,-12,-28,-13
674,125,-26,1011,-14,-23,-14
675,179,-16,1003,-13,-4,-10
676,85,-17,1006,-14,23,-2
677,-70,-23,1004,-13,30,2
678,-180,-20,964,-16,18,-1
679,-166,-20,993,-22,-9,-7
680,-36,-26,1000,-12,-29,-13
681,114,-22,1006,-15,-26,-14
682,181,-21,1008,-11,-8,-10
683,98,-17,1011,-13,20,-2
684,-43,-24,1004,-16,31,0
685,-174,-17,971,-14,21,0
686,-173,-21,986,-15,-4,-5
687,-68,-26,998,-14,-26,-11
688,102,-20,1012,-12,-30,-13
689,178,-24,1003,-14,-11,-11
690,118,-20,1004,-13,16,-3
691,-21,-18,1008,-13,29,1
692,-165,-12,979,-16,24,2
693,-180,-22,986,-14,0,-5
694,-90,-28,993,-15,-23,-12
695,84,-17,1009,-13,-30,-14
696,173,-28,1012,-14,-14,-14
697,135,-25,1001,-14,13,-5
698,1,-19,999,-14,29,0
699,-149,-15,993,-15,27,2
700,-189,-23,987,-14,4,-3
701,-109,-27,978,-15,-20,-9
702,64,-15,1017,-12,-31,-13
703,161,-28,1013,-14,-16,-12
704,156,-23,1006,-14,10,-5
705,27,-16,993,-14,28,0
706,-135,-15,991,-15,29,3
707,-193,-28,988,-14,6,-5
708,-130,-22,982,-14,-16,-8
709,47,-20,1013,-13,-30,-15
710,146,-27,1012,-13,-19,-14
711,173,-16,1003,-11,4,-7
712,49,-20,1000,-16,27,0
713,-116,-18,998,-16,30,2
714,-192,-25,975,-16,12,-3
715,-144,-21,983,-15,-14,-9
716,18,-25,1014,-13,-32,-13
717,134,-25,1011,-13,-22,-13
718,180,-20,1006,-13,2,-9
719,68,-12,1005,-15,26,-2
720,-92,-23,1001,-15,31,2
721,-190,-19,967,-15,13,0
722,-157,-19,985,-15,-11,-6
723,-11,-24,1010,-14,-30,-12
724,126,-27,1010,-12,-23,-14
725,180,-17,1005,-13,-3,-10
726,82,-14,1008,-12,21,-2
727,-66,-23,1004,-15,32,1
728,-184,-18,966,-17,19,-1
729,-164,-19,990,-14,-7,-7
730,-37,-28,1003,-14,-27,-13
731,116,-21,1002,-11,-28,-13
732,181,-19,1009,-14,-7,-10
733,99,-16,1011,-15,21,-1
734,-42,-19,1005,-16,31,1
735,-176,-17,966,-15,21,1
736,-177,-24,992,-15,-5,-4
737,-63,-29,994,-15,-25,-10
738,101,-21,1012,-14,-27,-13
739,180,-21,1005,-14,-9,-11
740,119,-19,1003,-14,16,-4
741,-20,-14,1008,-14,30,-1
742,-165,-13,986,-17,24,0
743,-182,-22,981,-16,0,-5
744,-91,-31,990,-14,-23,-10
745,88,-20,1015,-14,-29,-13
746,171,-27,1006,-14,-14,-12
747,137,-19,1004,-12,12,-4
748,4,-14,1003,-15,28,-2
749,-151,-11,989,-16,27,2
750,-186,-22,987,-16,4,-3
751,-111,-27,980,-15,-21,-9
752,66,-19,1013,-13,-30,-13
753,159,-32,1012,-14,-16,-14
754,156,-25,1008,-14,9,-5
755,28,-16,990,-12,29,0
756,-135,-10,990,-14,29,1
757,-190,-21,991,-15,6,-3
758,-129,-20,984,-15,-17,-7
759,47,-25,1012,-15,-32,-13
760,147,-32,1012,-15,-20,-14
761,172,-21,1000,-12,4,-6
762,47,-14,999,-14,27,-1
763,-113,-18,1000,-15,31,1
764,-193,-19,973,-16,11,-1
765,-138,-17,988,-15,-14,-8
766,17,-25,1017,-15,-32,-12
767,139,-28,1009,-13,-23,-13
768,178,-21,1004,-14,2,-8
769,65,-18,1004,-14,26,-1
770,-91,-22,1002,-13,31,2
771,-191,-18,964,-14,14,-1
772,-151,-14,987,-15,-11,-6
773,-9,-28,1014,-16,-29,-13
774,128,-28,1008,-17,-24,-13
775,181,-23,1008,-13,-4,-9
776,83,-17,1006,-14,22,-1
777,-72,-21,1000,-15,30,2
778,-185,-18,967,-15,17,-1
779,-171,-17,993,-16,-8,-6
780,-34,-27,999,-16,-29,-13
781,115,-22,1007,-13,-26,-14
782,179,-23,1005,-13,-9,-10
783,98,-18,1012,-14,18,-2
784,-44,-25,1005,-14,31,0
785,-176,-16,967,-15,22,1
786,-172,-19,991,-14,-5,-5
787,-66,-29,996,-17,-25,-12
788,100,-19,1009,-13,-28,-13
789,182,-26,1007,-13,-11,-11
790,118,-19,1004,-14,17,-3
791,-20,-18,1006,-16,30,0
792,-171,-12,982,-17,24,2
793,-177,-24,984,-16,0,-5
794,-90,-33,992,-15,-23,-12
795,86,-17,1012,-14,-31,-13
796,175,-30,1008,-13,-14,-11
797,135,-24,1001,-14,11,-3
798,0,-18,998,-14,28,-1
799,-148,-11,996,-15,26,1
800,-188,-23,983,-17,3,-4
801,-107,-26,985,-15,-21,-11
802,66,-22,1012,-14,-31,-14
803,162,-29,1011,-14,-15,-13
804,158,-26,1005,-13,11,-6
805,23,-14,993,-13,28,0
806,-130,-13,989,-14,27,2
807,-194,-23,990,-15,6,-3
808,-126,-21,982,-15,-17,-8
809,47,-26,1013,-14,-31,-13
810,150,-32,1009,-14,-21,-14
811,168,-23,1004,-12,4,-7
812,49,-12,998,-15,26,-1
813,-119,-20,999,-16,30,2
814,-189,-16,972,-16,10,-3
815,-140,-19,987,-16,-15,-8
816,19,-21,1011,-14,-31,-13
817,136,-33,1013,-15,-20,-13
818,178,-23,1002,-14,1,-8
819,63,-17,1001,-15,26,-1
820,-90,-21,1004,-13,30,0
821,-192,-19,964,-16,13,-2
822,-152,-13,989,-16,-11,-8
823,-8,-29,1013,-14,-29,-12
824,128,-26,1008,-13,-24,-15
825,181,-24,1009,-13,-3,-9
826,82,-14,1007,-12,21,-2
827,-67,-25,1003,-15,29,2
828,-179,-14,969,-15,17,0
829,-162,-16,991,-16,-8,-6
830,-30,-30,999,-14,-27,-11
831,122,-26,1006,-14,-27,-14
832,183,-22,1009,-11,-7,-9
833,102,-19,1009,-15,20,-1
834,-47,-20,1007,-14,32,1
835,-174,-13,966,-16,22,1
836,-173,-23,986,-15,-4,-6
837,-63,-32,996,-14,-26,-10
838,105,-24,1013,-13,-28,-13
839,179,-26,1002,-14,-8,-11
840,116,-18,1003,-14,17,-2
841,-23,-20,1009,-12,30,-1
842,-170,-11,975,-15,24,2
843,-180,-21,985,-15,-1,-5
844,-90,-34,992,-14,-23,-10
845,87,-19,1013,-14,-29,-14
846,170,-29,1006,-13,-13,-13
847,131,-23,1005,-12,13,-3
848,0,-14,997,-15,28,-1
849,-153,-8,995,-13,28,0
850,-187,-21,986,-15,3,-4
851,-107,-24,982,-14,-21,-10
852,66,-17,1013,-11,-31,-13
853,160,-29,1011,-14,-16,-13
854,154,-24,1005,-12,9,-6
855,18,-14,989,-13,27,0
856,-131,-11,991,-15,28,3
857,-187,-18,991,-14,6,-4
858,-122,-19,982,-14,-18,-8
859,49,-25,1012,-14,-30,-13
860,147,-35,1014,-15,-19,-12
861,165,-24,998,-12,4,-6
862,45,-18,1001,-12,27,-1
863,-114,-18,995,-15,30,2
864,-185,-18,977,-15,11,-3
865,-136,-16,988,-16,-14,-8
866,16,-27,1014,-16,-31,-12
867,138,-30,1009,-14,-22,-14
868,175,-26,1002,-14,1,-7
869,66,-15,1005,-13,26,-1
870,-91,-25,1002,-15,30,1
871,-188,-14,965,-13,13,-1
872,-148,-14,989,-16,-12,-6
873,-11,-27,1008,-13,-27,-13
874,124,-28,1010,-13,-24,-13
875,181,-25,1003,-12,-3,-9
876,79,-17,1006,-12,23,-2
877,-67,-24,1002,-14,31,1
878,-185,-9,967,-15,19,1
879,-162,-15,991,-14,-7,-5
880,-37,-28,1005,-15,-26,-12
881,117,-24,1002,-14,-27,-13
882,181,-26,1006,-13,-7,-11
883,98,-19,1014,-14,18,-2
884,-43,-23,1005,-16,30,2
885,-175,-13,968,-15,21,1
886,-175,-17,988,-13,-4,-5
887,-62,-27,998,-16,-25,-12
888,100,-23,1011,-14,-27,-13
889,178,-29,1003,-14,-10,-12
890,118,-25,1008,-13,17,-3
891,-23,-16,1002,-15,30,0
892,-163,-10,984,-16,24,2
893,-179,-20,981,-15,0,-4
894,-88,-27,990,-15,-23,-10
895,91,-20,1014,-15,-31,-14
896,171,-33,1008,-14,-14,-12
897,140,-23,1000,-12,13,-5
898,0,-18,1001,-14,30,0
899,-147,-8,990,-12,28,2
900,-188,-26,990,-17,3,-2
901,-109,-22,978,-14,-21,-9
902,63,-22,1015,-13,-30,-14
903,162,-26,1012,-14,-16,-12
904,155,-29,1003,-13,9,-4
905,27,-13,993,-12,29,0
906,-135,-15,990,-13,29,2
907,-187,-20,989,-14,7,-3
908,-128,-25,986,-16,-17,-7
909,46,-19,1010,-14,-31,-14
910,146,-33,1012,-15,-17,-13
911,165,-18,1004,-12,4,-7
912,47,-16,1001,-15,26,-2
913,-116,-17,994,-15,29,2
914,-193,-16,979,-15,9,-2
915,-136,-18,986,-15,-15,-8
916,15,-28,1014,-15,-31,-11
917,137,-26,1012,-13,-23,-13
918,176,-21,1001,-12,1,-7
919,64,-13,1003,-15,26,-1
920,-94,-19,1001,-14,30,3
921,-190,-15,967,-16,14,-1
922,-152,-19,984,-16,-11,-6
923,-11,-30,1012,-12,-28,-12
924,130,-30,1008,-13,-25,-14
925,179,-20,1006,-12,-3,-9
926,81,-17,1005,-13,22,-3
927,-65,-23,1006,-14,29,0
928,-182,-16,959,-16,17,-1
929,-163,-15,995,-14,-7,-6
930,-30,-32,1002,-15,-28,-12
931,111,-22,1003,-12,-26,-11
932,188,-28,1009,-12,-9,-11
933,96,-20,1015,-13,20,-2
934,-39,-21,999,-14,29,0
935,-174,-11,976,-15,21,-1
936,-170,-18,987,-15,-5,-5
937,-62,-27,996,-15,-25,-10
938,98,-22,1015,-12,-27,-13
939,181,-30,1003,-13,-11,-10
940,123,-23,1006,-11,16,-2
941,-25,-17,1007,-13,30,0
942,-159,-9,983,-14,24,1
943,-180,-23,984,-15,1,-4
944,-90,-27,991,-15,-23,-10
945,87,-22,1014,-13,-29,-14
946,168,-31,1003,-13,-14,-12
947,136,-25,1003,-11,12,-4
948,0,-16,1001,-14,29,0
949,-150,-10,992,-15,26,3
950,-184,-21,990,-15,4,-3
951,-117,-25,983,-16,-19,-9
952,66,-17,1008,-13,-31,-13
953,159,-32,1020,-16,-17,-12
954,157,-25,1003,-13,10,-5
955,22,-17,995,-13,28,0
956,-136,-14,988,-15,28,2
957,-190,-18,993,-15,6,-3
958,-122,-23,984,-16,-17,-9
959,41,-21,1013,-14,-31,-13
960,150,-29,1011,-14,-19,-13
961,164,-23,1004,-12,6,-7
962,47,-16,996,-14,26,0
963,-118,-21,1000,-15,30,1
964,-189,-17,973,-13,11,-2
965,-140,-16,987,-16,-15,-7
966,18,-23,1018,-14,-33,-13
967,133,-31,1010,-13,-21,-13
968,179,-19,1005,-14,1,-7
969,66,-20,1007,-13,26,-2
970,-91,-20,998,-14,30,2
971,-188,-18,967,-15,14,-2
972,-151,-19,991,-14,-10,-7
973,-14,-32,1009,-14,-28,-12
974,129,-29,1011,-14,-23,-15
975,182,-20,1008,-12,-3,-8
976,82,-14,1002,-13,22,-1
977,-68,-21,1004,-14,32,1
978,-180,-17,965,-16,19,-1
979,-162,-19,986,-16,-6,-6
980,-40,-30,1005,-14,-27,-12
981,116,-24,1002,-13,-25,-13
982,181,-23,1008,-12,-7,-10
983,98,-18,1008,-13,20,-2
984,-42,-20,1011,-14,30,1
985,-168,-16,967,-15,20,2
986,-181,-16,988,-13,-3,-4
987,-60,-27,1001,-14,-25,-12
988,100,-28,1013,-16,-27,-14
989,177,-25,1002,-14,-9,-13
990,118,-23,1007,-13,17,-4
991,-20,-13,1006,-13,30,-1
992,-162,-7,983,-16,24,3
993,-179,-20,988,-14,1,-5
994,-91,-28,985,-14,-22,-10
995,85,-18,1013,-14,-31,-13
996,172,-31,1010,-13,-13,-13
997,137,-26,1001,-13,12,-5
998,4,-18,995,-14,29,0
999,-148,-13,994,-14,27,1
1000,-185,-18,988,-15,4,-4
1001,-112,-24,979,-15,-22,-11
1002,65,-16,1012,-12,-31,-15
1003,158,-30,1015,-15,-16,-12
1004,156,-26,1002,-15,10,-5
1005,25,-16,996,-13,29,-1
1006,-132,-13,989,-14,28,1
1007,-187,-22,986,-16,9,-3
1008,-123,-21,987,-17,-16,-9
1009,41,-23,1009,-13,-30,-14
1010,145,-28,1009,-12,-19,-14
1011,167,-21,1006,-12,3,-6
1012,50,-14,997,-13,26,-1
1013,-111,-23,1002,-14,30,2
1014,-191,-19,970,-16,10,-3
1015,-135,-22,983,-15,-14,-9
1016,12,-28,1019,-14,-31,-14
1017,130,-29,1008,-20,-21,-13
1018,178,-20,1005,-16,13,-5
1019,64,-15,1005,-15,30,1
1020,-84,-15,1000,-13,29,2
1021,-189,-18,969,-15,15,0
1022,-155,-18,985,-15,-11,-8
1023,-13,-33,1012,-14,-29,-13
1024,121,-27,1008,-14,-24,-15
1025,179,-19,1008,-13,-5,-9
1026,80,-14,1008,-12,22,-2
1027,-63,-20,1005,-14,31,0
1028,-177,-13,967,-15,18,0
1029,-165,-16,990,-15,-7,-5
1030,-42,-31,1001,-17,-26,-12
1031,108,-27,1006,-14,-25,-13
1032,180,-27,1008,-11,-8,-11
1033,101,-20,1011,-12,19,-3
1034,-34,-15,1006,-14,30,1
1035,-170,-11,972,-16,21,2
1036,-174,-16,982,-15,-3,-6
1037,-73,-33,995,-16,-25,-11
1038,99,-18,1015,-14,-29,-14
1039,176,-30,1004,-13,-10,-11
1040,123,-22,1000,-12,14,-4
1041,-11,-19,1007,-14,30,-1
1042,-155,-11,985,-16,25,1
1043,-177,-23,988,-15,1,-4
1044,-99,-25,985,-14,-21,-11
1045,78,-20,1013,-13,-30,-14
1046,166,-30,1014,-13,-14,-13
1047,142,-29,1003,-13,12,-4
1048,12,-15,996,-14,28,-1
1049,-144,-13,984,-15,27,2
1050,-183,-21,992,-16,4,-4
1051,-117,-23,980,-14,-18,-9
1052,53,-18,1010,-13,-29,-12
1053,156,-30,1015,-14,-16,-14
1054,155,-23,1004,-14,8,-5
1055,38,-16,993,-13,28,0
1056,-124,-17,998,-12,28,3
1057,-190,-20,977,-16,8,-2
1058,-130,-16,990,-15,-15,-8
1059,28,-24,1011,-13,-31,-13
1060,138,-29,1011,-15,-20,-13
1061,171,-22,1005,-13,2,-7
1062,53,-20,999,-16,26,0
1063,-97,-21,1002,-13,28,2
1064,-193,-16,967,-16,11,-2
1065,-143,-17,983,-14,-14,-8
1066,0,-29,1015,-11,-28,-13
1067,127,-26,1010,-13,-24,-13
1068,180,-21,1007,-14,-2,-9
1069,72,-19,1005,-12,23,-2
1070,-73,-19,1000,-13,30,0
1071,-181,-15,966,-15,16,-1
1072,-161,-20,991,-15,-8,-6
1073,-27,-24,1002,-13,-28,-12
1074,116,-28,1006,-13,-26,-12
1075,183,-25,1006,-13,-6,-11
1076,91,-17,1014,-12,22,-2
1077,-48,-19,1003,-13,30,0
1078,-175,-14,973,-15,18,0
1079,-170,-16,986,-15,-6,-6
1080,-60,-31,998,-16,-26,-12
1081,104,-26,1013,-13,-26,-12
1082,175,-28,1001,-14,-8,-10
1083,116,-21,1007,-12,16,-2
1084,-23,-18,1006,-11,30,1
1085,-164,-7,980,-15,23,3
1086,-174,-18,985,-15,-2,-5
1087,-86,-30,996,-15,-23,-11
1088,86,-20,1007,-13,-29,-14
1089,170,-32,1005,-13,-14,-13
1090,133,-25,1005,-12,13,-4
1091,1,-15,994,-12,29,-1
1092,-149,-9,993,-14,27,1
1093,-183,-20,990,-14,2,-5
1094,-107,-24,982,-14,-21,-10
1095,67,-18,1008,-12,-31,-12
1096,155,-30,1017,-15,-15,-13
1097,156,-26,1003,-14,7,-6
1098,19,-17,992,-14,27,0
1099,-133,-13,992,-13,29,2
1100,-192,-23,987,-15,8,-2
1101,-121,-16,986,-15,-16,-9
1102,42,-21,1016,-15,-30,-12
1103,142,-33,1008,-15,-20,-13
1104,166,-24,1006,-12,4,-7
1105,46,-20,998,-14,27,-1
1106,-107,-21,996,-14,28,1
1107,-192,-18,972,-16,12,-2
1108,-133,-14,985,-15,-14,-8
1109,15,-23,1016,-15,-30,-13
1110,132,-31,1008,-14,-22,-12
1111,174,-21,1007,-13,0,-9
1112,63,-20,1002,-13,25,-1
1113,-88,-23,998,-13,30,1
1114,-182,-18,972,-15,14,-1
1115,-154,-16,983,-14,-9,-7
1116,-12,-29,1007,-15,-28,-14
1117,120,-26,1009,-13,-23,-13
1118,176,-19,1004,-12,-4,-9
1119,85,-21,1011,-13,22,-3
1120,-60,-24,1004,-12,31,1
1121,-175,-14,966,-14,18,1
1122,-160,-20,992,-16,-6,-5
1123,-49,-29,997,-14,-26,-12
1124,112,-24,1007,-13,-25,-15
1125,173,-25,1009,-13,-7,-9
1126,103,-17,1007,-12,18,-1
1127,-33,-20,1004,-15,29,1
1128,-169,-12,979,-13,22,1
1129,-167,-23,986,-15,-3,-5
1130,-77,-30,997,-14,-23,-11
1131,93,-20,1012,-13,-28,-13
1132,171,-29,1004,-12,-12,-13
1133,127,-23,999,-10,13,-3
1134,-11,-15,1001,-14,28,0
1135,-150,-6,991,-15,25,2
1136,-179,-19,988,-16,2,-3
1137,-100,-26,980,-17,-21,-8
1138,78,-21,1012,-11,-30,-13
1139,156,-33,1010,-14,-13,-11
1140,146,-28,1006,-13,11,-6
1141,15,-17,994,-11,29,0
1142,-135,-9,987,-15,25,3
1143,-186,-21,994,-14,6,-3
1144,-118,-22,984,-16,-16,-8
1145,47,-22,1013,-15,-28,-14
1146,144,-34,1012,-12,-18,-14
1147,159,-24,1004,-12,6,-5
1148,44,-16,996,-14,26,-1
1149,-118,-15,999,-14,29,1
1150,-184,-18,976,-15,9,-2
1151,-134,-16,987,-16,-15,-7
1152,19,-24,1014,-14,-30,-14
1153,135,-32,1012,-15,-21,-15
1154,174,-23,1002,-13,1,-8
1155,61,-17,1002,-14,23,-1
1156,-87,-22,1002,-13,30,1
1157,-188,-16,967,-16,13,0
1158,-148,-11,990,-15,-11,-7
1159,-9,-28,1009,-14,-27,-12
1160,120,-26,1007,-13,-23,-13
1161,178,-25,1007,-13,-3,-10
1162,77,-19,1010,-14,22,-1
1163,-61,-23,1002,-14,29,0
1164,-177,-15,970,-14,19,0
1165,-162,-18,989,-15,-7,-6
1166,-42,-30,1003,-13,-27,-12
1167,110,-23,1007,-13,-27,-12
1168,175,-26,1007,-13,-8,-10
1169,103,-24,1007,-13,19,-2
1170,-44,-20,1008,-14,29,2
1171,-165,-11,971,-15,20,0
1172,-169,-19,987,-15,-3,-5
1173,-71,-24,995,-14,-25,-11
1174,100,-23,1015,-15,-27,-14
1175,168,-30,1003,-15,-11,-11
1176,124,-22,1000,-11,14,-3
1177,-19,-19,1003,-12,29,-1
1178,-152,-8,986,-15,26,2
1179,-179,-23,989,-15,4,-5
1180,-93,-23,981,-14,-22,-11
1181,77,-17,1014,-11,-30,-13
1182,161,-31,1012,-15,-15,-13
1183,139,-28,1003,-13,12,-4
1184,15,-15,993,-12,28,-2
1185,-141,-16,989,-14,26,1
1186,-184,-18,986,-15,5,-4
1187,-115,-20,989,-15,-19,-10
1188,53,-20,1009,-15,-30,-13
1189,145,-29,1012,-13,-16,-12
1190,157,-21,1004,-14,7,-5
1191,37,-21,996,-14,27,-1
1192,-116,-23,997,-14,29,1
1193,-188,-18,978,-15,10,-3
1194,-125,-15,987,-14,-15,-9
1195,21,-25,1011,-15,-30,-12
1196,134,-28,1010,-14,-20,-13
1197,169,-25,1005,-14,2,-8
1198,58,-16,1001,-13,25,-3
1199,-92,-21,1001,-14,29,2
1200,-185,-15,966,-14,12,-2
1201,-144,-14,993,-14,-12,-7
1202,-10,-28,1009,-14,-26,-13
1203,126,-28,1006,-15,-23,-13
1204,176,-24,1008,-13,-3,-9
1205,77,-15,1008,-12,22,-2
1206,-63,-25,1002,-14,29,1
1207,-179,-12,966,-15,19,0
1208,-159,-21,989,-15,-6,-7
1209,-40,-32,1001,-14,-27,-12
1210,115,-21,1004,-12,-26,-14
1211,173,-24,1006,-13,-6,-12
1212,102,-19,1012,-15,20,-4
1213,-41,-24,1002,-13,30,0
1214,-168,-9,975,-14,21,1
1215,-167,-26,986,-14,-4,-5
1216,-66,-25,996,-13,-24,-11
1217,98,-22,1013,-15,-27,-13
1218,171,-28,1003,-13,-9,-13
1219,119,-22,1004,-12,14,-4
1220,-16,-16,998,-13,28,0
1221,-154,-9,995,-15,25,1
1222,-177,-25,987,-15,2,-4
1223,-93,-27,983,-13,-22,-9
1224,78,-22,1011,-12,-30,-13
1225,159,-31,1014,-13,-13,-13
1226,141,-26,1004,-14,11,-5
1227,8,-11,991,-13,29,1
1228,-138,-11,991,-14,25,3
1229,-185,-21,989,-18,4,-3
1230,-112,-22,986,-16,-18,-10
1231,55,-24,1013,-16,-29,-14
1232,143,-30,1010,-12,-17,-13
1233,158,-20,1001,-12,5,-7
1234,38,-16,998,-13,25,0
1235,-123,-18,994,-16,28,2
1236,-184,-15,980,-13,10,-3
1237,-132,-18,985,-16,-15,-8
1238,27,-25,1013,-14,-30,-13
1239,133,-32,1011,-14,-21,-14
1240,169,-21,1002,-12,3,-8
1241,60,-16,1004,-14,27,-2
1242,-95,-17,999,-13,30,1
1243,-187,-18,968,-17,12,0
1244,-142,-16,987,-14,-12,-8
1245,-10,-29,1013,-16,-28,-11
1246,127,-23,1006,-16,-23,-13
1247,172,-28,1009,-12,-2,-9
1248,76,-13,1004,-12,21,-2
1249,-64,-25,1006,-13,29,0
1250,-178,-13,964,-14,17,-1
1251,-158,-19,992,-15,-7,-6
1252,-35,-26,1004,-16,-28,-13
1253,113,-22,1003,-13,-25,-13
1254,178,-27,1007,-13,-5,-11
1255,94,-26,1012,-14,20,-2
1256,-42,-20,999,-13,30,0
1257,-167,-12,977,-15,21,0
1258,-169,-19,987,-15,-3,-4
1259,-64,-26,995,-15,-23,-11
1260,99,-22,1015,-15,-27,-13
1261,168,-28,1001,-14,-10,-11
1262,118,-27,1001,-12,14,-2
1263,-18,-20,1004,-12,28,-1
1264,-153,-8,988,-16,24,1
1265,-174,-19,988,-16,2,-6
1266,-91,-24,984,-14,-22,-9
1267,78,-16,1011,-13,-29,-13
1268,161,-35,1013,-15,-14,-12
1269,139,-29,1004,-12,11,-4
1270,10,-19,990,-14,27,0
1271,-139,-10,990,-13,26,1
1272,-182,-18,990,-16,4,-4
1273,-114,-19,985,-16,-19,-9
1274,57,-20,1010,-13,-30,-14
1275,145,-34,1014,-15,-17,-13
1276,157,-25,1001,-14,7,-5
1277,41,-18,999,-13,27,-2
1278,-120,-15,993,-14,30,2
1279,-185,-15,980,-13,10,-3
1280,-129,-13,990,-16,-15,-8
1281,22,-26,1013,-15,-29,-12
1282,132,-34,1008,-14,-19,-13
1283,169,-23,1008,-12,2,-8
1284,59,-18,998,-13,24,-1
1285,-92,-21,999,-13,30,1
1286,-187,-15,967,-15,13,-1
1287,-148,-14,988,-12,-11,-7
1288,-3,-27,1008,-14,-28,-13
1289,124,-29,1012,-14,-21,-13
1290,176,-20,1004,-14,-3,-9
1291,76,-20,1005,-15,21,-2
1292,-67,-21,1006,-15,29,1
1293,-177,-12,966,-17,18,1
1294,-159,-18,992,-16,-7,-7
1295,-38,-30,1002,-16,-27,-13
1296,117,-23,1004,-14,-27,-13
1297,173,-25,1007,-13,-7,-11
1298,97,-19,1009,-14,18,-2
1299,-42,-21,1006,-13,30,-1
1300,-172,-10,972,-14,20,0
1301,-170,-23,986,-15,-4,-5
1302,-60,-29,999,-14,-25,-10
1303,99,-19,1010,-14,-27,-13
1304,172,-27,1005,-16,-10,-11
1305,120,-24,999,-11,14,-4
1306,-22,-14,1005,-13,29,-1
1307,-154,-11,986,-16,24,2
1308,-176,-24,990,-14,2,-4
1309,-93,-28,984,-15,-23,-10
1310,78,-15,1014,-14,-30,-13
1311,164,-34,1015,-15,-14,-12
1312,140,-24,1002,-14,11,-4
1313,7,-17,992,-11,30,-2
1314,-140,-10,991,-13,27,0
1315,-184,-21,991,-15,4,-3
1316,-113,-16,984,-14,-19,-8
1317,59,-25,1012,-14,-29,-14
1318,145,-30,1012,-14,-15,-13
1319,159,-25,1004,-13,7,-6
1320,35,-19,998,-13,27,-2
1321,-119,-19,992,-14,27,1
1322,-186,-15,980,-15,9,-3
1323,-127,-17,990,-16,-15,-8
1324,29,-26,1013,-15,-29,-12
1325,134,-30,1010,-14,-20,-13
1326,172,-22,1002,-13,2,-8
1327,54,-19,1003,-13,27,-1
1328,-93,-19,998,-12,29,2
1329,-187,-17,969,-15,13,0
1330,-142,-14,987,-14,-13,-8
1331,0,-36,1010,-15,-29,-14
1332,124,-26,1011,-14,-22,-15
1333,174,-23,1005,-12,-2,-9
1334,74,-16,1006,-12,22,-2
1335,-71,-24,1003,-15,28,1
1336,-177,-9,965,-16,17,0
1337,-155,-21,992,-17,-7,-7
1338,-35,-31,1004,-14,-27,-12
1339,116,-26,1002,-14,-27,-13
1340,176,-26,1008,-13,-6,-10
1341,93,-19,1012,-14,21,-2
1342,-43,-17,1007,-13,31,1
1343,-172,-13,967,-15,20,1
1344,-168,-17,988,-15,-6,-5
1345,-63,-31,1000,-16,-25,-11
1346,101,-25,1008,-13,-27,-13
1347,174,-30,1007,-14,-10,-12
1348,117,-23,998,-12,15,-3
1349,-20,-17,1005,-14,29,0
1350,-157,-8,987,-14,24,3
1351,-175,-19,986,-11,2,-5
1352,-90,-27,984,-11,-17,-10
1353,81,-17,1016,-11,-29,-14
1354,168,-31,1011,-16,-14,-15
1355,137,-27,1005,-13,12,-6
1356,4,-16,991,-12,29,0
1357,-145,-14,989,-13,26,2
1358,-183,-20,989,-14,4,-3
1359,-113,-22,982,-14,-19,-9
1360,62,-22,1013,-15,-30,-14
1361,149,-32,1012,-13,-16,-13
1362,154,-21,1004,-14,8,-5
1363,32,-20,996,-12,25,-1
1364,-127,-14,991,-15,28,3
1365,-185,-20,983,-16,7,-4
1366,-124,-21,987,-14,-16,-9
1367,28,-20,1014,-15,-30,-12
1368,137,-30,1008,-13,-19,-14
1369,167,-27,1008,-11,3,-7
1370,56,-19,996,-14,25,-2
1371,-102,-20,1005,-14,30,1
1372,-186,-10,966,-14,13,-3
1373,-145,-15,989,-16,-12,-7
1374,4,-28,1012,-14,-29,-12
1375,125,-31,1010,-15,-22,-13
1376,175,-23,1004,-13,-2,-9
1377,70,-18,1007,-12,22,-2
1378,-70,-21,1001,-14,29,1
1379,-182,-12,966,-15,17,-1
1380,-153,-18,993,-15,-9,-7
1381,-31,-29,1003,-15,-27,-11
1382,120,-27,1003,-13,-25,-14
1383,173,-26,1010,-12,-6,-9
1384,93,-19,1008,-12,22,-1
1385,-48,-21,1006,-13,32,1
1386,-173,-14,968,-15,20,1
1387,-168,-18,985,-15,-6,-6
1388,-57,-31,1002,-15,-27,-12
1389,103,-21,1010,-12,-26,-13
1390,178,-27,1005,-14,-8,-13
1391,111,-18,1003,-12,17,-4
1392,-25,-15,1007,-14,28,0
1393,-160,-10,981,-16,24,2
1394,-176,-27,989,-16,0,-3
1395,-83,-26,989,-15,-21,-10
1396,84,-19,1013,-13,-28,-12
1397,167,-26,1008,-12,-13,-11
1398,135,-27,1004,-13,12,-4
1399,0,-12,994,-15,30,-1
1400,-147,-11,990,-16,27,1
1401,-183,-24,993,-16,1,-5
1402,-107,-23,980,-15,-20,-9
1403,64,-24,1012,-12,-31,-13
1404,153,-31,1016,-14,-16,-12
1405,152,-24,1004,-14,9,-5
1406,27,-12,992,-13,27,-1
1407,-130,-12,995,-14,27,3
1408,-187,-17,986,-16,9,-3
1409,-129,-23,983,-16,-14,-9
1410,35,-25,1013,-15,-31,-14
1411,141,-32,1009,-13,-19,-13
1412,172,-23,1000,-10,3,-7
1413,49,-19,1003,-13,26,-1
1414,-108,-19,998,-13,29,2
1415,-190,-15,970,-15,12,-2
1416,-139,-14,985,-14,-13,-8
1417,8,-26,1016,-13,-30,-12
1418,132,-32,1008,-15,-23,-15
1419,175,-21,1006,-14,-1,-8
1420,70,-20,1005,-14,24,-2
1421,-78,-20,999,-13,31,2
1422,-187,-14,969,-14,16,1
1423,-153,-15,992,-16,-11,-7
1424,-24,-30,1007,-15,-28,-12
1425,122,-24,1001,-15,-26,-13
1426,179,-28,1010,-12,-6,-10
1427,89,-19,1009,-11,22,-2
1428,-54,-23,1003,-15,30,0
1429,-177,-14,969,-14,20,-1
1430,-168,-17,987,-14,-6,-7
1431,-50,-25,1001,-16,-26,-10
1432,105,-24,1008,-15,-27,-12
1433,180,-27,1005,-14,-10,-12
1434,109,-27,1005,-13,17,-2
1435,-31,-15,1005,-11,30,0
1436,-164,-10,979,-14,23,0
1437,-176,-20,986,-14,0,-5
1438,-78,-30,992,-15,-21,-11
1439,92,-20,1013,-15,-28,-13
1440,169,-31,1007,-14,-11,-11
1441,128,-26,1000,-12,14,-3
1442,-3,-15,1000,-13,30,-1
1443,-151,-11,991,-13,27,1
1444,-178,-19,988,-15,3,-4
1445,-105,-28,980,-16,-21,-9
1446,68,-18,1013,-14,-30,-13
1447,159,-30,1014,-15,-14,-11
1448,151,-25,1005,-14,11,-5
1449,23,-18,992,-14,27,-1
1450,-135,-14,991,-14,27,3
1451,-187,-20,986,-15,6,-4
1452,-121,-22,987,-15,-17,-9
1453,47,-26,1012,-15,-29,-12
1454,141,-33,1010,-15,-19,-13
1455,164,-20,1000,-11,4,-7
1456,45,-15,1001,-12,26,0
1457,-112,-18,996,-15,29,1
1458,-190,-16,975,-14,11,-2
1459,-133,-18,986,-14,-14,-7
1460,14,-30,1016,-14,-30,-12
1461,137,-31,1007,-13,-22,-14
1462,172,-21,1009,-11,1,-9
1463,66,-16,1000,-13,25,-2
1464,-87,-20,1003,-13,29,1
1465,-188,-15,968,-16,14,0
1466,-150,-15,987,-13,-11,-7
1467,-12,-28,1008,-15,-27,-13
1468,123,-33,1006,-13,-24,-14
1469,177,-25,1006,-13,-5,-10
1470,84,-20,1008,-12,20,-1
1471,-60,-20,1001,-13,30,2
1472,-174,-13,969,-16,19,0
1473,-162,-17,990,-16,-6,-4
1474,-48,-31,999,-16,-28,-12
1475,110,-25,1008,-13,-26,-14
1476,177,-25,1006,-12,-8,-12
1477,105,-19,1009,-13,19,-3
1478,-36,-17,1006,-13,30,2
1479,-168,-7,975,-16,22,2
1480,-174,-21,987,-14,-4,-5
1481,-72,-28,997,-14,-24,-11
1482,93,-23,1010,-14,-27,-13
1483,176,-29,1006,-13,-11,-12
1484,126,-25,1001,-11,14,-3
1485,-13,-13,1002,-13,29,-1
1486,-155,-10,988,-17,25,1
1487,-180,-22,990,-15,2,-4
1488,-98,-26,980,-15,-22,-10
1489,75,-17,1016,-13,-31,-13
1490,162,-30,1012,-14,-15,-11
1491,142,-27,1003,-13,11,-5
1492,15,-17,993,-13,29,-2
1493,-139,-11,990,-13,27,2
1494,-189,-20,986,-16,4,-4
1495,-114,-21,987,-14,-18,-10
1496,48,-22,1012,-14,-29,-12
1497,149,-32,1008,-14,-16,-13
1498,162,-26,1007,-12,6,-5
1499,36,-14,993,-13,26,0
1500,-119,-15,998,-15,28,2
1501,-190,-18,979,-15,9,-2
1502,-134,-17,984,-16,-15,-8
1503,22,-26,1014,-15,-31,-14
1504,134,-33,1014,-15,-22,-12
1505,175,-24,1001,-13,2,-8
1506,60,-17,1002,-14,27,-1
1507,-96,-22,1001,-14,28,1
1508,-183,-12,967,-15,12,-2
1509,-149,-15,988,-14,-13,-8
1510,-3,-26,1011,-13,-28,-13
1511,126,-29,1012,-14,-22,-14
1512,174,-20,1002,-13,-3,-8
1513,76,-17,1009,-14,23,-1
1514,-66,-23,1000,-15,30,0
1515,-182,-16,968,-16,17,0
1516,-157,-16,996,-14,-7,-7
1517,-35,-29,1002,-15,-26,-10
1518,115,-21,1004,-13,-27,-13
1519,175,-26,1008,-12,-5,-11
1520,94,-15,1011,-14,19,-3
1521,-43,-21,1003,-15,29,0
1522,-170,-9,970,-15,21,0
1523,-171,-19,988,-14,-5,-5
1524,-62,-28,996,-13,-24,-12
1525,99,-25,1013,-14,-26,-14
1526,176,-24,1004,-13,-8,-12
1527,118,-20,999,-13,17,-3
1528,-20,-15,1006,-13,29,0
1529,-158,-12,986,-16,23,2
1530,-179,-22,985,-15,1,-5
1531,-91,-28,988,-14,-23,-9
1532,84,-16,1014,-12,-28,-12
1533,166,-31,1010,-13,-13,-12
1534,138,-23,1006,-12,13,-5
1535,7,-18,994,-14,30,-1
1536,-146,-10,990,-14,27,1
1537,-179,-23,989,-15,3,-4
1538,-115,-23,983,-14,-20,-10
1539,60,-19,1009,-13,-30,-13
1540,152,-31,1018,-13,-15,-13
1541,156,-26,1002,-14,7,-6
1542,31,-16,993,-13,27,-1
1543,-124,-16,992,-16,27,1
1544,-190,-20,981,-16,10,-2
1545,-124,-18,988,-16,-15,-9
1546,31,-23,1010,-15,-28,-13
1547,137,-32,1010,-13,-20,-12
1548,175,-22,1005,-10,3,-7
1549,54,-17,1003,-14,26,0
1550,-101,-19,996,-14,30,1
1551,-187,-18,973,-15,13,-1
1552,-145,-15,981,-14,-13,-7
1553,1,-29,1017,-13,-29,-13
1554,129,-29,1010,-15,-23,-13
1555,174,-19,1004,-14,-2,-9
1556,73,-16,1007,-12,23,-1
1557,-74,-21,1002,-14,30,1
1558,-182,-14,964,-15,16,-1
1559,-156,-19,993,-15,-8,-6
1560,-29,-31,1004,-15,-28,-11
1561,120,-28,1001,-13,-24,-13
1562,179,-23,1012,-11,-7,-10
1563,88,-15,1011,-11,20,-3
1564,-45,-15,1003,-14,31,1
1565,-175,-17,970,-15,20,0
1566,-166,-21,987,-14,-6,-6
1567,-55,-31,999,-15,-25,-11
1568,105,-21,1008,-15,-27,-13
1569,178,-27,1006,-14,-9,-10
1570,111,-20,1000,-13,16,-3
1571,-29,-18,1009,-13,28,1
1572,-161,-8,978,-15,23,2
1573,-178,-22,988,-15,0,-5
1574,-80,-30,989,-13,-23,-12
1575,84,-20,1014,-14,-29,-14
1576,172,-28,1005,-13,-14,-12
1577,133,-26,1005,-11,12,-4
1578,-4,-14,996,-14,29,0
1579,-150,-9,991,-15,25,2
1580,-184,-24,992,-16,3,-4
1581,-105,-24,978,-14,-21,-8
1582,66,-21,1012,-13,-30,-13
1583,156,-32,1014,-14,-14,-12
1584,153,-24,1003,-12,9,-5
1585,25,-16,992,-13,28,-1
1586,-133,-13,995,-13,28,3
1587,-184,-21,984,-17,7,-3
1588,-124,-22,989,-15,-16,-9
1589,41,-22,1012,-13,-29,-14
1590,142,-34,1005,-15,-18,-13
1591,167,-22,1005,-11,4,-6
1592,46,-17,997,-14,26,-1
1593,-110,-19,1000,-15,30,1
1594,-187,-15,971,-16,11,-3
1595,-140,-17,986,-16,-13,-8
1596,14,-26,1016,-14,-31,-13
1597,129,-33,1008,-14,-20,-13
1598,180,-25,1006,-14,0,-6
1599,64,-21,1005,-13,24,0
1600,-82,-19,998,-11,29,0
1601,-181,-14,970,-15,14,-1
1602,-151,-14,988,-16,-9,-7
1603,-19,-29,1009,-15,-26,-12
1604,126,-27,1008,-14,-23,-14
1605,173,-24,1005,-14,-5,-8
1606,88,-17,1008,-13,20,-2
1607,-60,-27,1005,-14,31,1
1608,-174,-10,965,-14,18,0
1609,-167,-19,993,-15,-7,-5
1610,-44,-25,1000,-15,-28,-13
1611,112,-22,1005,-12,-27,-14
1612,179,-20,1008,-12,-8,-11
1613,105,-23,1004,-13,18,-2
1614,-35,-17,1008,-14,29,0
1615,-168,-13,973,-16,20,1
1616,-174,-19,985,-15,-3,-6
1617,-71,-28,997,-16,-26,-11
1618,94,-19,1011,-14,-27,-15
1619,174,-27,1006,-14,-11,-13
1620,127,-21,1000,-12,14,-4
1621,-12,-16,1003,-14,29,-1
1622,-153,-13,988,-16,25,0
1623,-181,-25,991,-15,3,-5
1624,-97,-30,979,-14,-22,-10
1625,74,-16,1013,-12,-30,-14
1626,164,-29,1016,-13,-14,-12
1627,143,-25,1002,-14,11,-6
1628,15,-14,992,-14,27,-1
1629,-142,-14,992,-15,26,1
1630,-184,-22,987,-16,5,-5
1631,-119,-23,986,-15,-17,-9
1632,52,-23,1013,-14,-31,-13
1633,151,-33,1013,-14,-17,-12
1634,160,-20,1003,-13,5,-5
1635,37,-15,996,-14,27,-1
1636,-121,-17,995,-16,29,1
1637,-190,-20,975,-16,9,-2
1638,-131,-17,990,-15,-15,-8
1639,26,-26,1013,-16,-30,-12
1640,135,-27,1012,-13,-21,-13
1641,173,-23,1004,-15,1,-8
1642,58,-17,1002,-14,26,-2
1643,-96,-20,999,-14,30,1
1644,-187,-13,969,-14,13,-2
1645,-148,-17,985,-15,-11,-9
1646,0,-30,1014,-14,-30,-13
1647,123,-28,1006,-15,-23,-13
1648,180,-22,1009,-14,-1,-9
1649,77,-15,1005,-13,22,0
1650,-71,-24,1000,-15,29,2
1651,-182,-13,967,-16,15,0
1652,-161,-14,991,-14,-7,-6
1653,-32,-30,1003,-15,-26,-11
1654,116,-25,1004,-12,-26,-13
1655,178,-22,1009,-13,-6,-11
1656,97,-19,1010,-13,19,-3
1657,-46,-22,1007,-13,30,0
1658,-171,-12,966,-15,19,1
1659,-169,-21,990,-14,-4,-6
1660,-62,-31,998,-15,-27,-10
1661,100,-22,1007,-13,-27,-14
1662,179,-25,1007,-13,-9,-12
1663,115,-19,1002,-13,16,-3
1664,-19,-19,1006,-13,28,-1
1665,-162,-11,984,-16,24,2
1666,-176,-20,987,-15,1,-4
1667,-90,-28,991,-14,-22,-10
1668,83,-18,1012,-14,-29,-12
1669,169,-26,1007,-13,-13,-12
1670,137,-28,1003,-14,13,-4
1671,5,-16,995,-15,29,-1
1672,-145,-12,990,-14,27,1
1673,-185,-21,990,-16,3,-5
1674,-112,-23,980,-15,-19,-9
1675,64,-18,1013,-13,-30,-13
1676,156,-31,1016,-14,-16,-13
1677,156,-25,1003,-12,8,-5
1678,27,-15,994,-12,28,0
1679,-127,-13,988,-14,27,2
1680,-193,-20,988,-15,7,-3
1681,-125,-21,984,-16,-16,-8
1682,40,-24,1013,-14,-29,-14
1683,142,-29,1008,-13,-19,-13
1684,171,-20,1003,-12,3,-7
1685,49,-15,1004,-14,26,0
1686,-108,-20,998,-16,30,3
1687,-189,-16,973,-15,12,-2
1688,-144,-22,981,-16,-13,-8
1689,12,-25,1017,-13,-31,-13
1690,131,-31,1009,-13,-26,-14
1691,175,-16,1005,-9,0,-8
1692,76,-19,1006,-16,23,-1
1693,-86,-21,998,-13,30,2
1694,-181,-16,966,-16,13,-2
1695,-159,-17,993,-16,-8,-7
1696,-16,-30,1003,-13,-26,-13
1697,120,-29,1008,-14,-24,-14
1698,180,-22,1008,-12,-5,-9
1699,85,-18,1006,-13,21,-1
1700,-59,-22,1010,-14,32,1
1701,-178,-13,966,-14,20,1
1702,-171,-15,991,-16,-6,-6
1703,-48,-31,1000,-17,-28,-11
1704,110,-24,1008,-14,-27,-13
1705,181,-28,1004,-15,-8,-11
1706,110,-23,1008,-13,18,-2
1707,-32,-19,1007,-12,31,1
1708,-172,-8,971,-14,23,2
1709,-172,-21,987,-14,-3,-6
1710,-78,-27,995,-15,-23,-10
1711,96,-20,1008,-15,-28,-15
1712,178,-32,1008,-13,-13,-13
1713,126,-24,999,-12,14,-3
1714,-8,-16,1000,-10,31,0
1715,-157,-10,994,-15,26,2
1716,-182,-22,985,-15,2,-3
1717,-99,-24,982,-15,-21,-10
1718,75,-20,1014,-12,-30,-13
1719,166,-30,1013,-14,-16,-13
1720,149,-29,1002,-13,10,-5
1721,13,-17,997,-12,30,-1
1722,-139,-14,987,-14,27,2
1723,-189,-20,994,-13,4,-4
1724,-117,-22,982,-16,-18,-10
1725,54,-21,1013,-13,-30,-14
1726,150,-28,1011,-14,-17,-14
1727,162,-21,1004,-14,6,-6
1728,38,-16,996,-14,26,0
1729,-121,-15,991,-15,29,2
1730,-192,-21,985,-15,10,-2
1731,-130,-18,982,-14,-16,-10
1732,27,-25,1017,-14,-31,-13
1733,142,-28,1008,-13,-20,-13
1734,172,-20,1006,-12,2,-6
1735,56,-16,1006,-14,26,-1
1736,-100,-18,999,-13,30,3
1737,-187,-21,967,-16,12,-1
1738,-146,-18,985,-15,-12,-7
1739,2,-29,1013,-12,-30,-13
1740,127,-26,1010,-12,-23,-14
1741,180,-20,1006,-13,-2,-8
1742,71,-19,1006,-14,24,-1
1743,-73,-23,1001,-14,31,2
1744,-181,-16,966,-17,16,0
1745,-158,-19,990,-15,-8,-8
1746,-30,-31,1003,-13,-28,-12
1747,120,-25,1006,-12,-25,-14
1748,177,-23,1007,-12,-5,-8
1749,93,-16,1010,-14,21,-2
1750,-49,-22,1004,-15,30,0
1751,-181,-12,965,-15,20,1
1752,-167,-18,994,-16,-7,-6
1753,-54,-31,997,-15,-28,-12
1754,104,-24,1009,-14,-27,-14
1755,180,-28,1005,-14,-9,-12
1756,112,-18,1006,-12,18,-2
1757,-25,-18,1005,-12,30,0
1758,-169,-8,983,-14,23,1
1759,-175,-24,983,-15,-1,-5
1760,-82,-29,995,-14,-23,-12
1761,90,-20,1011,-14,-30,-14
1762,172,-27,1007,-13,-12,-12
1763,133,-26,1003,-13,13,-3
1764,-4,-18,997,-13,30,0
1765,-152,-11,992,-13,27,1
1766,-184,-22,992,-15,3,-4
1767,-106,-27,979,-13,-20,-11
1768,67,-19,1013,-14,-31,-14
1769,160,-31,1014,-14,-15,-12
1770,153,-22,1005,-13,10,-7
1771,18,-16,991,-13,29,0
1772,-133,-13,986,-14,28,2
1773,-188,-25,991,-16,6,-3
1774,-122,-22,984,-14,-17,-9
1775,46,-19,1014,-14,-30,-13
1776,143,-33,1008,-14,-19,-12
1777,165,-17,1008,-12,5,-6
1778,44,-18,995,-14,26,0
1779,-115,-18,997,-13,30,1
1780,-188,-19,974,-15,10,-2
1781,-140,-17,984,-16,-12,-7
1782,21,-25,1015,-14,-30,-13
1783,131,-32,1007,-13,-21,-13
1784,173,-21,1004,-12,2,-8
1785,66,-19,1004,-13,26,0
1786,-90,-19,1000,-11,30,2
1787,-182,-15,966,-15,12,-1
1788,-154,-12,993,-16,-11,-6
1789,-8,-27,1005,-17,-30,-12
1790,126,-30,1016,-15,-25,-14
1791,179,-22,1003,-13,-4,-9
1792,85,-18,1006,-14,21,-2
1793,-63,-22,1004,-13,30,1
1794,-185,-13,968,-15,18,-1
1795,-161,-19,991,-15,-7,-7
1796,-43,-29,1000,-13,-26,-11
1797,116,-22,1005,-15,-27,-14
1798,177,-27,1011,-15,-6,-10
1799,102,-19,1008,-14,19,-4
1800,-40,-19,1007,-13,31,0
1801,-171,-13,970,-15,21,1
1802,-173,-17,982,-15,-4,-6
1803,-62,-32,1003,-15,-26,-11
1804,98,-20,1006,-14,-28,-13
1805,180,-26,1005,-13,-11,-13
1806,117,-22,1004,-12,16,-2
1807,-18,-14,1005,-13,30,0
1808,-157,-12,983,-16,24,1
1809,-182,-20,988,-16,0,-5
1810,-90,-30,986,-15,-21,-11
1811,81,-18,1014,-13,-28,-13
1812,168,-31,1009,-13,-15,-11
1813,141,-24,999,-12,11,-5
1814,7,-15,998,-12,30,0
1815,-149,-8,992,-15,26,2
1816,-182,-23,989,-16,3,-4
1817,-114,-27,979,-15,-19,-10
1818,61,-18,1008,-13,-29,-14
1819,158,-34,1018,-13,-17,-14
1820,158,-25,1004,-14,8,-4
1821,30,-15,990,-14,27,0
1822,-128,-16,994,-15,27,2
1823,-193,-22,983,-16,8,-3
1824,-128,-21,986,-15,-16,-8
1825,36,-25,1015,-15,-30,-14
1826,140,-29,1007,-13,-20,-14
1827,173,-22,1005,-11,3,-8
1828,51,-14,1002,-13,26,-1
1829,-105,-19,997,-15,29,2
1830,-190,-19,972,-14,12,-2
1831,-149,-20,985,-16,-13,-6
1832,13,-28,1016,-13,-31,-13
1833,130,-31,1013,-13,-22,-12
1834,179,-15,1003,-12,0,-8
1835,71,-19,1006,-14,25,-2
1836,-86,-20,1000,-15,30,1
1837,-186,-18,969,-16,15,0
1838,-159,-17,989,-17,-8,-7
1839,-19,-33,1006,-15,-28,-12
1840,127,-28,1010,-13,-25,-15
1841,179,-23,1007,-12,-6,-10
1842,88,-16,1010,-12,22,-1
1843,-57,-22,1007,-14,32,2
1844,-181,-13,965,-16,20,1
1845,-166,-21,990,-16,-5,-5
1846,-52,-34,1001,-15,-27,-11
1847,111,-23,1001,-13,-28,-13
1848,183,-27,1008,-11,-9,-11
1849,108,-19,1008,-14,18,-3
1850,-32,-18,1005,-14,30,0
1851,-172,-11,975,-14,22,0
1852,-176,-19,985,-15,-2,-4
1853,-76,-32,1000,-16,-25,-11
1854,95,-21,1010,-13,-28,-12
1855,178,-30,1006,-12,-10,-12
1856,126,-26,1003,-11,15,-2
1857,-11,-14,999,-14,29,1
1858,-157,-8,990,-16,26,2
1859,-181,-24,986,-16,1,-3
1860,-101,-29,985,-15,-22,-9
1861,81,-22,1014,-13,-31,-13
1862,163,-31,1011,-13,-14,-12
1863,148,-24,1004,-14,10,-4
1864,11,-14,995,-13,29,-1
1865,-144,-10,990,-13,27,2
1866,-186,-20,990,-16,4,-4
1867,-116,-21,986,-17,-20,-9
1868,54,-22,1007,-14,-29,-13
1869,154,-33,1016,-15,-17,-13
1870,159,-23,1005,-14,6,-4
1871,39,-17,992,-12,27,-1
1872,-127,-16,998,-16,30,2
1873,-187,-14,980,-14,11,-3
1874,-133,-20,988,-16,-14,-9
1875,27,-25,1012,-15,-30,-11
1876,139,-33,1010,-14,-21,-13
1877,175,-27,1004,-13,2,-8
1878,56,-13,1002,-13,27,1
1879,-96,-18,1002,-15,30,1
1880,-195,-18,969,-16,13,0
1881,-148,-14,984,-15,-13,-7
1882,0,-30,1015,-13,-29,-14
1883,129,-32,1012,-13,-22,-13
1884,185,-20,1005,-13,-2,-8
1885,75,-19,1004,-13,24,-2
1886,-75,-16,1002,-14,31,2
1887,-184,-15,968,-16,17,0
1888,-161,-20,986,-15,-7,-6
1889,-25,-31,1006,-15,-29,-13
1890,123,-27,1003,-13,-24,-14
1891,180,-25,1006,-13,-5,-9
1892,95,-15,1012,-13,20,-2
1893,-52,-19,1003,-14,31,0
1894,-176,-13,965,-14,21,0
1895,-168,-19,992,-14,-5,-6
1896,-57,-28,998,-15,-27,-11
1897,105,-22,1010,-14,-29,-14
1898,181,-28,1006,-13,-8,-12
1899,111,-22,1006,-13,19,-3
1900,-27,-18,1004,-14,30,-1
1901,-169,-9,981,-16,22,1
1902,-177,-20,984,-15,-2,-5
1903,-80,-29,992,-14,-22,-11
1904,93,-19,1012,-14,-28,-13
1905,174,-28,1008,-13,-13,-12
1906,132,-28,1000,-12,13,-4
1907,-6,-14,1000,-12,30,0
1908,-154,-8,991,-14,26,1
1909,-185,-22,988,-16,1,-4
1910,-104,-24,983,-14,-22,-10
1911,72,-21,1011,-15,-31,-13
1912,162,-31,1015,-14,-15,-12
1913,152,-27,1007,-13,10,-5
1914,17,-13,990,-12,29,-1
1915,-136,-11,989,-14,26,1
1916,-190,-21,994,-15,6,-3
1917,-122,-22,978,-15,-17,-9
1918,45,-22,1015,-14,-29,-14
1919,150,-35,1012,-14,-18,-14
1920,165,-23,1002,-11,5,-5
1921,47,-18,996,-13,26,-1
1922,-121,-18,1001,-14,30,2
1923,-190,-17,971,-15,11,-2
1924,-141,-16,988,-17,-14,-8
1925,22,-24,1016,-14,-30,-12
1926,136,-32,1009,-15,-21,-14
1927,175,-22,1002,-14,2,-7
1928,67,-21,1006,-15,25,-2
1929,-95,-23,999,-13,30,2
1930,-190,-14,963,-15,14,-1
1931,-150,-15,989,-15,-12,-7
1932,-8,-26,1009,-14,-29,-12
1933,131,-29,1007,-13,-24,-14
1934,179,-21,1010,-11,-3,-9
1935,78,-22,1004,-14,22,-1
1936,-69,-22,1003,-13,30,1
1937,-180,-16,966,-15,18,0
1938,-162,-15,992,-15,-7,-7
1939,-32,-28,1003,-15,-29,-12
1940,115,-26,1003,-13,-28,-14
1941,181,-22,1008,-14,-7,-11
1942,96,-22,1008,-13,21,-3
1943,-42,-20,1005,-13,30,0
1944,-176,-15,969,-15,20,1
1945,-172,-18,986,-13,-3,-6
1946,-62,-28,997,-14,-25,-11
1947,99,-19,1011,-13,-27,-14
1948,175,-28,1003,-13,-11,-12
1949,119,-22,1005,-13,16,-2
1950,-17,-18,1004,-13,30,-1
1951,-164,-12,986,-15,24,1
1952,-177,-20,985,-15,1,-5
1953,-95,-31,989,-14,-21,-11
1954,84,-18,1014,-13,-28,-15
1955,173,-30,1011,-14,-14,-13
1956,137,-23,998,-12,13,-4
1957,6,-16,1002,-14,30,0
1958,-147,-11,991,-16,27,2
1959,-186,-19,986,-16,4,-3
1960,-113,-29,982,-16,-21,-10
1961,64,-18,1010,-12,-31,-14
1962,161,-29,1014,-14,-16,-12
1963,157,-24,1005,-14,8,-6
1964,27,-14,992,-15,27,0
1965,-131,-15,990,-17,28,3
1966,-188,-21,991,-15,7,-3
1967,-127,-22,982,-17,-15,-8
1968,41,-24,1014,-14,-30,-13
1969,143,-32,1013,-14,-19,-13
1970,167,-19,1000,-11,4,-7
1971,53,-16,1003,-13,25,-1
1972,-113,-15,996,-15,30,3
1973,-193,-19,972,-16,13,-2
1974,-142,-22,986,-15,-12,-8
1975,12,-26,1011,-13,-30,-12
1976,137,-29,1014,-13,-22,-14
1977,177,-21,1004,-14,0,-9
1978,69,-13,1002,-14,26,-1
1979,-88,-21,1000,-13,31,2
1980,-193,-17,969,-16,14,0
1981,-151,-20,983,-14,-11,-7
1982,-13,-34,1014,-15,-29,-12
1983,129,-26,1005,-14,-25,-13
1984,183,-20,1009,-12,-4,-9
1985,85,-14,1004,-13,22,0
1986,-63,-22,1005,-15,31,2
1987,-185,-15,965,-15,19,-1
1988,-165,-20,989,-15,-7,-6
1989,-37,-31,1005,-13,-28,-12
1990,112,-27,1003,-12,-27,-13
1991,184,-24,1009,-13,-9,-11
1992,103,-18,1014,-14,20,-1
1993,-45,-16,1003,-14,32,2
1994,-174,-13,974,-15,22,0
1995,-179,-19,985,-14,-5,-4
1996,-65,-33,997,-15,-26,-11
1997,101,-26,1012,-13,-28,-13
1998,180,-26,999,-13,-10,-11
1999,120,-24,1006,-12,17,-3
2000,-19,-14,1007,-12,31,-1
2001,-165,-6,982,-16,24,0
2002,-179,-23,984,-15,1,-4
2003,-93,-30,989,-15,-22,-10
2004,87,-19,1014,-14,-30,-14
2005,172,-31,1006,-14,-13,-13
2006,140,-23,1005,-13,11,-4
2007,3,-18,997,-13,29,-1
2008,-149,-7,993,-15,27,2
2009,-185,-24,987,-17,4,-3
2010,-115,-24,982,-16,-20,-9
2011,64,-16,1008,-14,-31,-13
2012,161,-31,1017,-15,-17,-12
2013,158,-30,1003,-14,7,-6
2014,26,-17,993,-13,28,-1
2015,-132,-15,991,-13,29,2
2016,-191,-22,987,-15,8,-2
2017,-126,-17,986,-14,-16,-8
2018,43,-20,1012,-15,-29,-12
2019,147,-27,1012,-13,-21,-15
2020,170,-24,1004,-14,4,-7
2021,48,-17,996,-13,26,-1
2022,-114,-23,996,-16,30,2
2023,-195,-21,976,-15,12,-2
2024,-144,-16,984,-14,-14,-7
2025,20,-24,1016,-14,-31,-14
2026,137,-27,1010,-13,-22,-13
2027,180,-23,1003,-13,0,-8
2028,67,-17,1003,-14,24,-2
2029,-91,-19,998,-15,30,2
2030,-189,-18,966,-15,13,-1
2031,-153,-17,988,-15,-13,-7
2032,-12,-26,1005,-15,-33,-14
2033,129,-29,1016,-14,-38,-19
2034,182,-22,1005,-13,-5,-10
2035,81,-18,1003,-14,23,-2
2036,-68,-22,1005,-13,30,0
2037,-187,-16,967,-17,18,0
2038,-163,-21,987,-17,-8,-5
2039,-37,-31,1004,-15,-28,-12
2040,115,-22,1004,-15,-27,-14
2041,187,-24,1010,-13,-7,-12
2042,97,-16,1014,-13,20,-2
2043,-46,-18,1003,-14,31,1
2044,-176,-19,970,-15,22,1
2045,-177,-18,987,-15,-4,-5
2046,-59,-28,997,-14,-27,-11
2047,109,-26,1008,-13,-27,-14
2048,181,-23,1003,-12,-10,-10
2049,116,-21,1008,-12,17,-3
2050,-23,-16,1009,-14,31,0
2051,-168,-13,978,-17,24,2
2052,-178,-24,981,-15,0,-5
2053,-86,-29,996,-15,-24,-11
2054,94,-18,1013,-15,-30,-13
2055,175,-26,1004,-13,-13,-11
2056,136,-23,1000,-11,13,-4
2057,-3,-17,1004,-13,30,0
2058,-155,-12,989,-17,26,2
2059,-187,-22,988,-17,3,-3
2060,-107,-29,981,-16,-22,-9
2061,70,-14,1010,-14,-31,-12
2062,172,-30,1017,-13,-16,-13
2063,149,-26,1002,-12,10,-4
2064,18,-15,992,-13,31,0
2065,-139,-11,994,-15,28,1
2066,-195,-21,987,-16,6,-2
2067,-124,-24,981,-16,-18,-9
2068,52,-22,1013,-12,-31,-14
2069,153,-28,1011,-14,-17,-13
2070,167,-24,1006,-14,6,-6
2071,41,-14,994,-12,27,1
2072,-124,-16,992,-14,29,3
2073,-194,-21,983,-15,10,-3
2074,-138,-19,987,-15,-14,-8
2075,27,-24,1010,-14,-31,-13
2076,141,-31,1014,-13,-20,-13
2077,179,-19,1000,-13,1,-8
2078,60,-15,1005,-14,26,-2
2079,-105,-21,998,-14,30,1
2080,-194,-17,969,-17,14,-1
2081,-149,-19,984,-17,-12,-7
2082,6,-28,1015,-15,-30,-12
2083,132,-30,1014,-14,-22,-13
2084,180,-21,1005,-12,-1,-9
2085,78,-14,1003,-13,24,-1
2086,-85,-22,1005,-14,30,2
2087,-186,-13,963,-16,14,-1
2088,-162,-17,991,-14,-8,-7
2089,-18,-27,1007,-13,-28,-13
2090,120,-25,1009,-13,-25,-14
2091,188,-23,1007,-12,-5,-10
2092,87,-19,1008,-14,21,-1
2093,-57,-20,1003,-15,31,0
2094,-183,-17,968,-15,19,1
2095,-172,-15,987,-16,-7,-6
2096,-45,-31,1002,-15,-28,-13
2097,111,-28,1003,-14,-27,-14
2098,183,-24,1006,-12,-8,-10
2099,104,-19,1013,-14,19,-3
2100,-36,-18,1006,-14,32,-1
2101,-172,-14,969,-15,21,2
2102,-178,-17,986,-14,-2,-5
2103,-70,-32,1000,-16,-25,-11
2104,100,-23,1009,-13,-29,-13
2105,178,-26,1005,-15,-11,-11
2106,127,-21,1005,-13,15,-5
2107,-19,-17,1011,-13,30,0
2108,-164,-10,975,-16,25,2
2109,-184,-24,990,-16,1,-5
2110,-96,-30,989,-16,-22,-10
2111,84,-19,1009,-14,-29,-13
2112,174,-27,1010,-13,-14,-13
2113,139,-25,1003,-11,13,-5
2114,8,-15,997,-12,29,-1
2115,-153,-12,995,-15,28,2
2116,-189,-18,987,-16,4,-2
2117,-113,-29,981,-15,-21,-10
2118,60,-20,1010,-13,-31,-13
2119,165,-31,1015,-15,-19,-14
2120,157,-26,1006,-13,8,-5
2121,26,-10,991,-12,28,1
2122,-134,-11,992,-14,28,2
2123,-196,-20,990,-15,7,-2
2124,-123,-21,980,-16,-15,-8
2125,44,-26,1013,-13,-29,-13
2126,152,-32,1010,-15,-19,-13
2127,171,-28,1007,-12,5,-7
2128,44,-17,995,-13,28,0
2129,-117,-14,995,-14,31,3
2130,-191,-18,981,-15,11,-2
2131,-144,-16,982,-16,-14,-6
2132,25,-23,1016,-14,-31,-13
2133,138,-31,1010,-14,-21,-13
2134,181,-23,998,-12,2,-8
2135,68,-19,1005,-14,25,-2
2136,-100,-23,998,-15,31,1
2137,-193,-16,969,-16,13,-1
2138,-154,-18,981,-14,-11,-8
2139,-2,-24,1014,-15,-29,-12
2140,130,-28,1013,-13,-23,-15
2141,181,-20,1004,-13,-2,-9
2142,81,-18,1004,-14,23,-1
2143,-81,-23,1001,-14,31,1
2144,-187,-19,964,-16,16,0
2145,-164,-17,988,-15,-9,-6
2146,-27,-28,1010,-13,-28,-13
2147,121,-25,1004,-14,-26,-15
2148,184,-19,1011,-12,-7,-10
2149,95,-16,1008,-15,21,-1
2150,-53,-22,1004,-15,33,1
2151,-182,-16,967,-15,21,1
2152,-173,-22,992,-14,-5,-6
2153,-49,-30,997,-15,-27,-13
2154,108,-21,1006,-13,-28,-12
2155,186,-22,1009,-14,-9,-11
2156,110,-18,1011,-14,19,-3
2157,-34,-19,1004,-14,31,1
2158,-175,-14,973,-15,23,0
2159,-183,-23,984,-14,-2,-5
2160,-71,-30,996,-15,-26,-11
2161,96,-22,1012,-14,-29,-14
2162,185,-24,1006,-13,-12,-12
2163,125,-22,1003,-11,16,-3
2164,-12,-15,1007,-13,30,1
2165,-164,-16,982,-15,25,2
2166,-185,-23,985,-14,1,-3
2167,-94,-31,989,-14,-23,-12
2168,84,-19,1017,-13,-32,-14
2169,176,-26,1005,-14,-15,-12
2170,144,-22,1005,-12,12,-3
2171,5,-17,1001,-14,30,1
2172,-150,-8,990,-15,28,2
2173,-191,-23,988,-17,4,-5
2174,-116,-27,978,-15,-21,-10
2175,65,-19,1012,-12,-31,-14
2176,164,-29,1014,-15,-17,-14
2177,160,-24,1005,-12,8,-5
2178,23,-13,993,-11,29,0
2179,-135,-8,992,-15,28,2
2180,-197,-25,991,-16,9,-2
2181,-128,-25,979,-16,-16,-9
2182,45,-25,1012,-14,-30,-13
2183,152,-28,1014,-12,-20,-14
2184,169,-21,1003,-12,5,-6
2185,48,-14,997,-13,26,0
2186,-120,-17,989,-14,30,3
2187,-193,-22,984,-15,10,-3
2188,-141,-20,985,-15,-14,-8
2189,24,-27,1014,-14,-32,-13
2190,140,-30,1008,-14,-23,-13
2191,178,-19,1006,-12,2,-8
2192,65,-16,1003,-14,27,-1
2193,-104,-22,998,-16,31,3
2194,-194,-17,968,-14,14,-1
2195,-155,-20,982,-15,-12,-7
2196,1,-28,1014,-14,-31,-13
2197,133,-27,1013,-12,-23,-12
2198,183,-19,1006,-13,-2,-9
2199,80,-16,1004,-13,22,-1
2200,-82,-23,1003,-12,31,1
2201,-188,-19,965,-17,18,-1
2202,-167,-18,986,-16,-8,-8
2203,-23,-30,1009,-14,-28,-14
2204,125,-26,1004,-14,-25,-15
2205,188,-22,1011,-13,-6,-10
2206,94,-16,1005,-13,21,-1
2207,-56,-23,1008,-13,32,0
2208,-183,-14,967,-15,20,1
2209,-176,-17,989,-16,-5,-6
2210,-43,-30,1000,-15,-27,-13
2211,108,-25,1007,-12,-27,-14
2212,189,-23,1007,-14,-9,-12
2213,107,-23,1014,-16,19,-1
2214,-34,-17,1005,-13,31,1
2215,-181,-14,974,-15,22,0
2216,-179,-15,984,-14,-4,-6
2217,-74,-31,996,-16,-25,-10
2218,101,-23,1010,-13,-29,-15
2219,186,-30,1006,-13,-12,-12
2220,126,-18,1006,-12,16,-3
2221,-16,-16,1006,-15,31,1
2222,-169,-10,982,-15,24,2
2223,-186,-22,981,-14,1,-4
2224,-96,-31,991,-14,-23,-9
2225,86,-18,1014,-13,-30,-12
2226,179,-27,1006,-12,-13,-12
2227,144,-23,1000,-12,13,-4
2228,2,-20,1005,-12,31,0
2229,-152,-12,989,-15,27,2
2230,-192,-23,986,-14,5,-4
2231,-111,-28,983,-14,-21,-9
2232,69,-15,1011,-12,-31,-12
2233,175,-31,1009,-14,-16,-14
2234,155,-22,1008,-12,10,-4
2235,21,-19,990,-13,29,0
2236,-137,-14,995,-15,29,0
2237,-196,-24,990,-15,5,-3
2238,-128,-21,978,-15,-19,-10
2239,55,-23,1015,-13,-32,-13
2240,154,-28,1013,-14,-19,-13
2241,173,-22,1005,-12,6,-6
2242,43,-20,995,-13,27,-2
2243,-125,-13,991,-14,30,2
2244,-196,-25,984,-15,10,-3
2245,-139,-22,984,-16,-14,-9
2246,29,-21,1012,-13,-31,-13
2247,143,-29,1012,-14,-22,-14
2248,178,-21,1003,-14,1,-7
2249,61,-16,1000,-15,25,0
2250,-106,-23,1001,-16,31,3
2251,-197,-19,967,-14,14,-1
2252,-151,-16,985,-15,-13,-8
2253,4,-25,1013,-13,-32,-13
2254,136,-25,1012,-14,-24,-14
2255,187,-18,1005,-14,-2,-9
2256,76,-15,1003,-15,25,-2
2257,-85,-24,1002,-14,31,2
2258,-193,-18,966,-16,15,-1
2259,-164,-19,983,-13,-10,-7
2260,-14,-30,1010,-14,-29,-11
2261,123,-25,1013,-13,-24,-13
2262,190,-20,1006,-14,-5,-11
2263,89,-12,1007,-12,22,-2
2264,-63,-22,1000,-15,31,1
2265,-187,-17,968,-16,20,0
2266,-171,-21,986,-17,-6,-5
2267,-40,-32,1005,-13,-27,-13
2268,118,-26,1005,-12,-27,-13
2269,189,-19,1007,-11,-8,-10
2270,106,-15,1013,-13,20,-2
2271,-45,-17,1005,-14,32,2
2272,-178,-13,968,-15,22,1
2273,-179,-24,982,-15,-4,-5
2274,-60,-31,1000,-16,-27,-12
2275,102,-23,1005,-12,-29,-15
2276,190,-26,1005,-13,-10,-12
2277,119,-17,1009,-13,18,-2
2278,-25,-14,1004,-15,31,0
2279,-167,-13,979,-16,23,0
2280,-187,-19,983,-15,-1,-4
2281,-82,-30,994,-15,-25,-11
2282,93,-23,1014,-13,-30,-14
2283,177,-24,1003,-14,-12,-12
2284,138,-20,1003,-11,13,-4
2285,-9,-17,1008,-14,30,0
2286,-156,-9,985,-15,25,1
2287,-189,-24,986,-15,4,-5
2288,-109,-29,985,-16,-21,-11
2289,78,-17,1011,-12,-31,-13
2290,169,-32,1012,-15,-15,-13
2291,154,-21,1003,-14,11,-4
2292,17,-17,999,-13,30,0
2293,-144,-9,990,-15,28,2
2294,-195,-24,990,-16,5,-3
2295,-124,-22,979,-15,-20,-9
2296,57,-23,1013,-13,-32,-14
2297,162,-26,1016,-12,-18,-14
2298,166,-25,1005,-13,8,-5
2299,36,-13,992,-13,29,-1
2300,-128,-18,992,-14,31,3
2301,-200,-21,984,-14,9,-2
2302,-135,-21,985,-16,-15,-9
2303,37,-21,1015,-14,-32,-12
2304,145,-26,1010,-14,-20,-13
2305,174,-23,1005,-11,3,-8
2306,57,-16,1000,-13,26,0
2307,-113,-18,996,-16,29,2
2308,-194,-22,977,-13,12,-3
2309,-147,-16,982,-15,-13,-8
2310,13,-27,1015,-13,-31,-14
2311,140,-26,1012,-12,-23,-14
2312,182,-18,1003,-13,-1,-8
2313,70,-15,1005,-13,25,-2
2314,-93,-24,1004,-15,32,2
2315,-194,-18,965,-13,15,-1
2316,-156,-20,984,-15,-10,-7
2317,-7,-27,1014,-14,-29,-12
2318,128,-26,1007,-12,-25,-14
2319,187,-20,1010,-12,-3,-10
2320,82,-16,1003,-12,23,-2
2321,-69,-23,1003,-14,31,2
2322,-188,-19,968,-17,17,1
2323,-171,-19,985,-16,-7,-5
2324,-32,-30,1006,-15,-29,-12
2325,119,-22,1009,-13,-27,-13
2326,190,-21,1006,-12,-7,-9
2327,99,-14,1008,-12,21,-1
2328,-47,-22,1005,-14,31,1
2329,-182,-15,967,-15,21,0
2330,-176,-21,990,-17,-5,-5
2331,-59,-30,1001,-14,-26,-11
2332,108,-25,1002,-12,-29,-14
2333,187,-26,1007,-12,-9,-11
2334,115,-17,1009,-12,19,-2
2335,-31,-14,1006,-14,31,0
2336,-172,-14,973,-16,23,2
2337,-186,-20,985,-14,-1,-4
2338,-76,-32,994,-15,-26,-11
2339,95,-23,1013,-14,-29,-13
2340,182,-27,1002,-12,-13,-12
2341,132,-20,1003,-13,15,-3
2342,-10,-14,1009,-13,30,-1
2343,-162,-9,983,-16,25,2
2344,-188,-22,986,-15,2,-4
2345,-102,-31,988,-16,-21,-11
2346,79,-20,1015,-13,-30,-14
2347,178,-30,1009,-13,-16,-14
2348,145,-24,1001,-11,11,-4
2349,12,-11,1000,-14,31,-1
2350,-151,-11,992,-15,28,2
2351,-193,-18,987,-15,4,-3
2352,-117,-28,978,-15,-21,-10
2353,59,-23,1013,-14,-31,-14
2354,168,-30,1015,-15,-18,-14
2355,162,-26,1005,-13,9,-5
2356,30,-14,992,-15,28,0
2357,-136,-11,993,-14,28,2
2358,-196,-23,986,-16,7,-2
2359,-133,-24,983,-15,-16,-8
2360,45,-20,1011,-12,-31,-14
2361,153,-32,1011,-15,-20,-13
2362,175,-22,1007,-11,4,-7
2363,51,-19,998,-13,28,-2
2364,-121,-17,992,-14,31,3
2365,-198,-22,982,-15,9,-2
2366,-145,-19,984,-10,-14,-9
2367,24,-20,1012,-9,-35,-14
2368,142,-29,1013,-13,-21,-13
2369,183,-21,1003,-12,2,-7
2370,65,-19,1003,-13,27,-1
2371,-104,-22,1003,-15,31,2
2372,-196,-20,969,-14,14,-2
2373,-155,-16,984,-15,-13,-8
2374,-2,-23,1014,-15,-31,-12
2375,131,-25,1012,-13,-24,-13
2376,189,-22,1004,-14,-2,-7
2377,76,-17,1006,-14,24,-1
2378,-82,-22,995,-15,31,2
2379,-189,-17,971,-16,15,0
2380,-164,-17,983,-13,-8,-6
2381,-21,-28,1012,-13,-30,-12
2382,123,-27,1009,-13,-27,-13
2383,186,-19,1006,-12,-6,-9
2384,93,-17,1008,-12,21,-2
2385,-61,-20,1007,-13,31,1
2386,-179,-19,965,-15,21,0
2387,-174,-18,992,-15,-5,-5
2388,-47,-31,1000,-14,-28,-12
2389,112,-25,1002,-13,-28,-13
2390,185,-21,1009,-13,-8,-11
2391,112,-17,1011,-15,20,-3
2392,-36,-22,1005,-15,31,1
2393,-175,-13,968,-15,21,1
2394,-180,-18,988,-15,-5,-5
2395,-72,-37,995,-16,-27,-11
2396,103,-22,1009,-13,-31,-13
2397,185,-26,1006,-13,-12,-12
2398,124,-16,1002,-12,16,-3
2399,-18,-15,1012,-13,31,-1
2400,-165,-10,979,-16,24,1
2401,-185,-22,984,-13,0,-5
2402,-92,-34,993,-15,-22,-12
2403,85,-22,1011,-15,-30,-14
2404,182,-27,1010,-11,-14,-14
2405,139,-23,1002,-11,13,-4
2406,0,-13,1001,-13,31,0
2407,-153,-12,993,-14,28,1
2408,-192,-20,984,-15,4,-3
2409,-110,-30,980,-14,-22,-11
2410,71,-24,1013,-11,-32,-13
2411,168,-28,1011,-13,-15,-13
2412,161,-22,1006,-13,9,-5
2413,19,-13,995,-13,29,1
2414,-141,-9,989,-14,27,2
2415,-193,-22,991,-15,5,-3
2416,-130,-24,978,-15,-19,-9
2417,51,-20,1014,-13,-31,-14
2418,157,-33,1017,-13,-19,-14
2419,168,-25,1001,-13,6,-6
2420,48,-16,996,-13,28,-2
2421,-128,-16,994,-15,30,4
2422,-196,-20,978,-14,9,-2
2423,-137,-21,987,-15,-16,-8
2424,26,-21,1011,-13,-31,-12
2425,143,-29,1011,-12,-21,-15
2426,180,-21,1003,-12,2,-8
2427,62,-16,1003,-13,27,-1
2428,-103,-22,998,-16,32,2
2429,-197,-19,974,-15,13,-2
2430,-150,-17,983,-15,-13,-7
2431,4,-27,1013,-14,-30,-14
2432,133,-27,1014,-13,-23,-14
2433,185,-19,1004,-13,0,-9
2434,77,-17,1002,-13,25,-1
2435,-84,-21,1005,-15,31,1
2436,-191,-19,964,-15,16,-1
2437,-164,-19,986,-15,-9,-7
2438,-18,-30,1013,-14,-30,-13
2439,125,-25,1009,-14,-25,-14
2440,190,-18,1006,-11,-4,-10
2441,89,-14,1009,-13,22,0
2442,-61,-19,1001,-15,31,1
2443,-188,-18,965,-16,19,0
2444,-171,-18,988,-15,-7,-5
2445,-42,-31,1000,-15,-28,-12
2446,114,-21,1007,-11,-29,-13
2447,191,-26,1007,-12,-7,-11
2448,104,-15,1006,-12,20,-1
2449,-39,-21,1012,-15,31,1
2450,-180,-11,968,-16,22,2
2451,-180,-17,984,-15,-5,-5
2452,-68,-35,1000,-15,-28,-13
2453,103,-23,1008,-13,-28,-13
2454,188,-26,1002,-13,-10,-13
2455,123,-19,1010,-11,18,-4
2456,-21,-14,1006,-13,32,0
2457,-168,-11,976,-15,24,1
2458,-185,-19,985,-14,-1,-5
2459,-91,-32,995,-15,-24,-11
2460,89,-24,1011,-15,-29,-15
2461,180,-30,1005,-12,-14,-11
2462,141,-22,1001,-11,12,-4
2463,0,-16,1003,-13,30,1
2464,-156,-6,989,-16,27,3
2465,-190,-21,986,-17,3,-4
2466,-112,-26,982,-15,-21,-10
2467,70,-22,1012,-13,-32,-14
2468,171,-31,1013,-12,-16,-13
2469,155,-26,1000,-13,10,-6
2470,22,-13,997,-11,29,0
2471,-141,-11,990,-14,29,3
2472,-197,-17,987,-14,7,-4
2473,-125,-24,985,-16,-19,-9
2474,52,-21,1009,-14,-31,-14
2475,156,-32,1015,-12,-18,-14
2476,169,-26,1005,-14,6,-5
2477,43,-16,993,-13,30,0
2478,-124,-18,993,-13,30,1
2479,-200,-18,983,-14,10,-2
2480,-138,-20,985,-15,-15,-9
2481,31,-18,1013,-15,-31,-13
2482,145,-29,1010,-13,-22,-14
2483,181,-23,1006,-12,3,-8
2484,59,-20,999,-16,27,0
2485,-105,-20,997,-16,32,1
2486,-196,-18,974,-15,13,-2
2487,-149,-14,978,-15,-13,-7
2488,5,-26,1014,-13,-31,-12
2489,135,-27,1014,-13,-25,-13
2490,184,-23,1004,-13,-1,-9
2491,77,-16,1002,-14,24,-1
2492,-82,-20,1006,-14,31,2
2493,-189,-14,962,-16,15,-1
2494,-166,-19,986,-15,-10,-7
2495,-19,-31,1013,-13,-29,-13
2496,124,-24,1004,-14,-26,-13
2497,193,-20,1010,-14,-5,-9
2498,88,-16,1007,-14,23,0
2499,-57,-21,1004,-14,32,2
2500,-188,-17,971,-16,19,1
2501,-174,-17,986,-15,-5,-6
2502,-45,-32,1004,-16,-28,-12
2503,115,-25,1001,-14,-28,-13
2504,191,-24,1010,-12,-9,-11
2505,109,-16,1009,-13,21,-2
2506,-43,-17,1005,-14,33,2
2507,-178,-15,972,-16,23,0
2508,-183,-21,985,-15,-4,-5
2509,-70,-29,993,-15,-27,-11
2510,104,-21,1015,-13,-29,-15
2511,187,-25,1005,-14,-11,-12
2512,127,-17,1004,-13,17,-2
2513,-21,-21,1011,-13,32,1
2514,-171,-13,976,-15,24,2
2515,-187,-25,980,-15,-1,-5
2516,-91,-32,996,-14,-23,-11
2517,91,-18,1013,-14,-29,-16
2518,176,-26,1002,-15,-14,-14
2519,139,-21,1005,-12,14,-4
2520,-1,-15,1002,-14,29,1
2521,-156,-12,988,-15,28,2
2522,-189,-23,987,-14,4,-4
2523,-112,-29,982,-14,-22,-10
2524,74,-21,1010,-10,-32,-13
2525,170,-28,1015,-12,-17,-12
2526,155,-25,1001,-12,10,-5
2527,20,-17,996,-14,30,-2
2528,-145,-9,990,-15,30,3
2529,-193,-23,987,-17,6,-3
2530,-125,-27,984,-15,-19,-10
2531,54,-21,1006,-12,-32,-13
2532,162,-29,1016,-13,-19,-14
2533,168,-23,1005,-13,6,-8
2534,41,-16,995,-14,28,0
2535,-128,-14,993,-14,31,3
2536,-199,-22,985,-15,9,-2
2537,-135,-20,986,-17,-16,-8
2538,27,-25,1012,-15,-31,-12
2539,146,-26,1010,-14,-22,-15
2540,180,-23,1002,-13,2,-8
2541,55,-14,1000,-14,24,-1
2542,-102,-20,999,-16,31,1
2543,-197,-21,974,-15,14,-1
2544,-151,-18,979,-16,-13,-7
2545,5,-29,1017,-13,-31,-14
2546,135,-27,1009,-12,-23,-14
2547,188,-18,1005,-13,-1,-9
2548,73,-15,1005,-13,25,-1
2549,-89,-23,1001,-14,31,2
2550,-189,-18,968,-15,16,-2
2551,-164,-18,983,-13,-9,-7
2552,-14,-28,1010,-13,-29,-14
2553,122,-26,1010,-14,-24,-14
2554,186,-21,1007,-13,-6,-11
2555,91,-20,1007,-13,22,-2
2556,-61,-22,1002,-13,31,2
2557,-182,-17,967,-16,21,0
2558,-173,-21,991,-15,-5,-6
2559,-43,-30,1000,-16,-27,-11
2560,116,-27,1005,-13,-27,-14
2561,186,-24,1008,-11,-7,-10
2562,107,-19,1010,-13,20,-2
2563,-41,-18,1006,-14,32,0
2564,-178,-11,969,-14,22,3
2565,-181,-19,983,-15,-4,-5
2566,-65,-32,1001,-15,-27,-11
2567,103,-23,1005,-12,-30,-13
2568,186,-28,1005,-12,-11,-12
2569,123,-19,1008,-12,17,-2
2570,-19,-14,1008,-13,31,1
2571,-165,-11,977,-15,24,1
2572,-188,-21,986,-16,-1,-3
2573,-91,-33,991,-17,-23,-11
2574,87,-22,1013,-12,-30,-15
2575,179,-30,1006,-13,-14,-12
2576,144,-25,999,-12,13,-4
2577,2,-11,1004,-14,31,0
2578,-154,-6,989,-15,28,3
2579,-193,-21,988,-16,4,-4
2580,-111,-30,980,-14,-22,-10
2581,69,-20,1012,-14,-31,-14
2582,170,-31,1015,-13,-17,-13
2583,156,-24,1001,-11,10,-6
2584,26,-13,998,-14,29,-1
2585,-141,-9,989,-14,29,3
2586,-192,-21,992,-15,7,-3
2587,-128,-25,982,-17,-18,-10
2588,45,-19,1011,-12,-31,-12
2589,159,-31,1014,-15,-19,-13
2590,166,-26,1005,-12,7,-7
2591,46,-15,990,-13,27,1
2592,-122,-18,996,-15,31,2
2593,-199,-21,982,-16,11,-2
2594,-139,-16,983,-15,-14,-9
2595,25,-23,1016,-14,-32,-14
2596,142,-28,1009,-12,-23,-13
2597,180,-21,1006,-13,1,-8
2598,62,-16,1000,-14,25,-1
2599,-104,-19,1001,-14,31,3
2600,-192,-21,971,-14,12,-1
2601,-153,-18,983,-14,-13,-7
2602,3,-26,1014,-14,-31,-13
2603,132,-29,1011,-13,-22,-14
2604,185,-15,1006,-12,0,-9
2605,78,-15,1006,-14,25,-2
2606,-79,-20,1001,-14,32,0
2607,-190,-18,969,-16,16,-1
2608,-162,-21,982,-14,-10,-7
2609,-22,-31,1009,-13,-28,-13
2610,124,-28,1011,-13,-26,-13
2611,186,-16,1004,-12,-7,-9
2612,95,-14,1010,-13,21,-1
2613,-60,-20,1002,-15,32,1
2614,-185,-15,967,-16,19,0
2615,-173,-17,989,-16,-6,-6
2616,-47,-32,1002,-14,-28,-12
2617,115,-22,1000,-14,-27,-14
2618,187,-25,1013,-11,-8,-11
2619,110,-14,1011,-14,18,-1
2620,-38,-20,1005,-13,31,1
2621,-178,-11,973,-14,22,1
2622,-183,-18,985,-16,-3,-4
2623,-68,-29,995,-16,-26,-11
2624,97,-24,1010,-15,-29,-13
2625,186,-27,1003,-16,-11,-12
2626,126,-25,1008,-9,18,-2
2627,-18,-12,1006,-12,31,1
2628,-164,-12,983,-15,25,1
2629,-190,-21,982,-15,2,-4
2630,-89,-34,991,-15,-23,-11
2631,84,-18,1013,-13,-29,-14
2632,176,-32,1006,-13,-14,-14
2633,145,-20,1000,-11,15,-5
2634,4,-17,1001,-13,30,0
2635,-155,-5,989,-17,27,2
2636,-190,-24,989,-15,4,-4
2637,-112,-30,977,-14,-21,-8
2638,66,-19,1013,-11,-32,-14
2639,171,-31,1017,-12,-16,-15
2640,157,-25,1001,-12,11,-6
2641,26,-11,996,-13,30,0
2642,-141,-15,990,-14,29,2
2643,-194,-22,988,-16,7,-4
2644,-128,-26,983,-17,-18,-9
2645,42,-19,1014,-12,-31,-14
2646,158,-33,1012,-15,-20,-15
2647,170,-23,1006,-11,4,-7
2648,48,-12,996,-12,27,-1
2649,-119,-17,996,-14,32,3
2650,-200,-19,980,-15,11,-2
2651,-141,-19,985,-16,-15,-9
2652,23,-23,1015,-13,-31,-14
2653,139,-32,1011,-14,-21,-13
2654,185,-20,1003,-13,1,-7
2655,63,-19,1002,-13,26,-1
2656,-98,-17,999,-14,31,3
2657,-196,-16,971,-15,14,-1
2658,-154,-15,978,-15,-11,-7
2659,-3,-28,1019,-14,-31,-13
2660,131,-29,1011,-15,-26,-14
2661,185,-20,1006,-13,-2,-9
2662,83,-17,1001,-13,24,-1
2663,-77,-21,1005,-14,32,2
2664,-188,-17,964,-17,17,0
2665,-168,-16,990,-16,-7,-5
2666,-25,-30,1007,-14,-27,-12
2667,122,-24,1008,-14,-26,-13
2668,188,-23,1009,-11,-7,-10
2669,95,-15,1006,-13,22,-2
2670,-53,-21,1007,-14,32,1
2671,-182,-15,966,-15,19,-1
2672,-174,-22,989,-16,-5,-6
2673,-51,-30,1000,-15,-28,-12
2674,108,-21,1003,-12,-27,-14
2675,185,-21,1009,-12,-10,-12
2676,109,-19,1011,-13,19,-2
2677,-29,-18,1006,-15,32,0
2678,-174,-14,970,-19,23,1
2679,-182,-19,986,-14,-3,-5
2680,-73,-31,996,-17,-25,-11
2681,94,-22,1012,-14,-29,-13
2682,182,-27,1004,-13,-12,-11
2683,130,-20,1005,-12,15,-3
2684,-12,-15,1008,-14,30,1
2685,-161,-9,985,-15,26,2
2686,-188,-21,983,-16,2,-3
2687,-103,-30,986,-16,-21,-10
2688,81,-18,1017,-13,-30,-14
2689,175,-28,1006,-14,-15,-12
2690,144,-24,1001,-13,12,-5
2691,10,-16,1001,-13,30,0
2692,-151,-6,992,-15,29,3
2693,-192,-25,985,-17,6,-4
2694,-122,-29,980,-14,-19,-10
2695,63,-17,1009,-14,-31,-14
2696,167,-30,1018,-13,-17,-13
2697,164,-26,1005,-12,9,-4
2698,31,-13,991,-13,28,0
2699,-134,-14,993,-14,29,2
2700,-197,-23,988,-13,8,-3
2701,-132,-23,982,-17,-23,-10
2702,39,-23,1012,-12,-35,-15
2703,152,-31,1013,-13,-21,-13
2704,173,-22,1004,-11,3,-6
2705,52,-15,997,-14,25,0
2706,-118,-17,995,-15,30,3
2707,-194,-18,978,-14,13,-2
2708,-146,-19,987,-16,-14,-6
2709,19,-25,1009,-14,-31,-12
2710,136,-32,1014,-14,-22,-14
2711,184,-20,1003,-13,0,-9
2712,68,-15,1003,-14,25,-1
2713,-94,-23,1002,-13,30,1
2714,-197,-16,965,-14,14,-1
2715,-154,-18,984,-14,-12,-8
2716,-10,-30,1015,-14,-29,-13
2717,132,-28,1008,-14,-24,-14
2718,189,-20,1007,-11,-3,-9
2719,81,-15,1005,-12,23,-1
2720,-70,-20,1003,-14,32,2
2721,-187,-17,967,-16,18,0
2722,-170,-16,984,-15,-6,-6
2723,-29,-32,1008,-15,-28,-13
2724,118,-26,1004,-13,-26,-14
2725,185,-17,1007,-11,-5,-9
2726,100,-16,1013,-13,21,-2
2727,-53,-22,1004,-15,32,1
2728,-177,-16,968,-16,21,0
2729,-175,-19,990,-15,-4,-5
2730,-57,-28,994,-14,-26,-11
2731,109,-24,1010,-12,-28,-14
2732,184,-26,1003,-13,-9,-11
2733,115,-20,1009,-14,19,-3
2734,-30,-19,1009,-14,31,1
2735,-172,-16,973,-15,22,0
2736,-180,-18,988,-15,-1,-5
2737,-83,-32,991,-15,-25,-11
2738,96,-19,1015,-12,-30,-15
2739,178,-28,1003,-13,-12,-11
2740,133,-19,1002,-12,14,-3
2741,-8,-20,1003,-13,30,1
2742,-159,-10,989,-15,25,2
2743,-182,-25,985,-14,2,-4
2744,-103,-24,985,-12,-21,-10
2745,76,-16,1015,-12,-30,-14
2746,170,-28,1009,-14,-15,-13
2747,145,-25,1005,-13,12,-5
2748,14,-17,993,-14,30,-1
2749,-143,-14,993,-14,29,2
2750,-191,-20,990,-15,5,-3
2751,-121,-23,981,-14,-18,-9
2752,57,-21,1010,-15,-30,-14
2753,156,-29,1014,-13,-17,-12
2754,164,-27,1005,-14,7,-5
2755,36,-17,993,-13,28,0
2756,-127,-16,990,-15,28,2
2757,-196,-18,986,-15,8,-2
2758,-134,-19,985,-14,-16,-8
2759,33,-22,1012,-15,-31,-14
2760,146,-35,1010,-13,-21,-13
2761,174,-19,1003,-12,2,-6
2762,57,-16,997,-14,26,-1
2763,-104,-20,1003,-14,31,3
2764,-196,-20,971,-15,12,0
2765,-146,-17,983,-15,-12,-8
2766,7,-29,1018,-15,-31,-13
2767,134,-27,1007,-13,-23,-14
2768,183,-20,1007,-13,-1,-9
2769,74,-14,1005,-14,24,-2
2770,-86,-21,1001,-14,31,2
2771,-191,-16,964,-16,15,-1
2772,-160,-19,988,-14,-10,-6
2773,-14,-28,1006,-13,-29,-12
2774,122,-27,1010,-13,-25,-14
2775,190,-20,1007,-12,-5,-10
2776,90,-20,1005,-14,23,-2
2777,-63,-17,1000,-14,31,2
2778,-182,-18,971,-15,19,-1
2779,-170,-17,986,-14,-5,-6
2780,-44,-28,1004,-14,-28,-12
2781,115,-23,1002,-12,-27,-14
2782,184,-26,1009,-12,-7,-10
2783,106,-19,1013,-13,20,-1
2784,-41,-23,1006,-14,31,1
2785,-174,-12,969,-14,20,2
2786,-179,-19,988,-16,-4,-4
2787,-68,-27,998,-15,-25,-12
2788,102,-24,1010,-13,-28,-15
2789,181,-25,1005,-14,-10,-11
2790,122,-21,1006,-13,16,-3
2791,-16,-17,1006,-13,30,1
2792,-165,-11,980,-15,24,1
2793,-179,-23,984,-13,1,-4
2794,-94,-31,991,-14,-23,-9
2795,89,-19,1011,-14,-30,-14
2796,173,-28,1010,-14,-14,-13
2797,139,-20,998,-13,12,-4
2798,4,-17,1003,-13,30,-1
2799,-151,-13,990,-15,27,4
2800,-190,-21,987,-16,5,-3
2801,-111,-28,981,-14,-21,-11
2802,65,-18,1013,-13,-30,-14
2803,165,-30,1013,-13,-17,-14
2804,155,-24,1003,-13,10,-5
2805,28,-15,994,-11,30,0
2806,-140,-13,988,-14,28,3
2807,-196,-21,991,-14,6,-4
2808,-126,-25,979,-16,-18,-9
2809,47,-23,1011,-11,-32,-13
2810,151,-30,1015,-14,-18,-13
2811,171,-19,1004,-12,5,-6
2812,47,-14,994,-14,27,-1
2813,-122,-20,996,-15,29,2
2814,-189,-21,979,-15,10,-2
2815,-142,-20,984,-16,-16,-8
2816,23,-24,1011,-14,-32,-13
2817,137,-32,1012,-13,-21,-14
2818,181,-16,1003,-12,2,-7
2819,64,-18,1003,-16,26,0
2820,-97,-21,997,-15,30,1
2821,-196,-19,972,-16,13,0
2822,-150,-18,982,-14,-12,-7
2823,-1,-27,1013,-14,-29,-14
2824,130,-28,1013,-12,-23,-15
2825,187,-19,1005,-13,-1,-9
2826,80,-15,1006,-13,22,-1
2827,-73,-21,1001,-15,31,2
2828,-187,-15,967,-16,18,0
2829,-168,-18,985,-14,-8,-7
2830,-26,-29,1011,-13,-28,-12
2831,119,-30,1005,-13,-26,-14
2832,186,-21,1007,-13,-6,-9
2833,96,-18,1009,-14,21,-2
2834,-53,-18,1005,-14,32,0
2835,-180,-13,968,-16,20,1
2836,-175,-19,988,-16,-5,-5
2837,-53,-31,1001,-16,-28,-10
2838,111,-21,1003,-15,-28,-13
2839,184,-30,1009,-12,-9,-11
2840,112,-20,1008,-13,18,-3
2841,-33,-17,1005,-14,30,1
2842,-169,-12,976,-15,23,2
2843,-184,-22,987,-16,-2,-3
2844,-79,-29,992,-15,-26,-11
2845,94,-17,1016,-15,-29,-13
2846,180,-29,1006,-14,-13,-12
2847,132,-24,1001,-12,13,-3
2848,-14,-16,1005,-14,29,-1
2849,-160,-12,990,-16,25,1
2850,-182,-23,986,-15,3,-4
2851,-101,-31,984,-14,-22,-10
2852,81,-15,1017,-10,-31,-14
2853,169,-30,1007,-14,-17,-13
2854,144,-23,1003,-13,12,-4
2855,14,-17,997,-14,29,-1
2856,-145,-11,990,-15,27,1
2857,-188,-26,988,-14,4,-4
2858,-120,-28,980,-15,-20,-9
2859,58,-20,1009,-14,-31,-13
2860,157,-28,1017,-15,-17,-11
2861,161,-24,1006,-13,7,-7
2862,37,-15,994,-13,28,-2
2863,-130,-15,990,-14,29,3
2864,-192,-24,987,-14,9,-3
2865,-133,-20,984,-14,-16,-8
2866,36,-25,1012,-13,-30,-14
2867,147,-27,1009,-12,-20,-15
2868,173,-18,1006,-12,2,-7
2869,58,-17,998,-14,27,-1
2870,-112,-20,998,-14,31,1
2871,-195,-17,972,-15,11,-2
2872,-147,-20,985,-16,-14,-8
2873,9,-25,1011,-15,-31,-14
2874,138,-29,1010,-13,-22,-15
2875,184,-22,1005,-12,0,-8
2876,69,-13,1001,-14,24,-1
2877,-84,-18,1004,-15,31,0
2878,-192,-19,965,-15,15,-1
2879,-158,-17,981,-16,-11,-7
2880,-11,-34,1015,-15,-30,-12
2881,125,-26,1006,-13,-24,-13
2882,187,-23,1007,-13,-4,-11
2883,86,-15,1008,-12,23,-2
2884,-62,-18,1000,-15,31,1
2885,-182,-17,969,-16,18,-1
2886,-170,-17,987,-15,-7,-6
2887,-35,-32,1002,-16,-27,-12
2888,115,-30,1004,-14,-27,-14
2889,184,-19,1010,-12,-8,-10
2890,105,-20,1010,-14,21,-3
2891,-48,-21,1009,-12,32,1
2892,-175,-9,969,-14,22,2
2893,-176,-19,989,-14,-3,-5
2894,-66,-30,995,-16,-26,-11
2895,101,-23,1011,-13,-27,-13
2896,182,-32,1005,-14,-10,-11
2897,117,-19,1006,-12,15,-2
2898,-17,-17,1007,-12,30,1
2899,-168,-11,980,-16,25,3
2900,-178,-17,981,-15,-1,-4
2901,-91,-30,994,-16,-24,-9
2902,86,-19,1010,-16,-29,-13
2903,175,-29,1006,-14,-13,-13
2904,135,-25,1001,-13,14,-4
2905,2,-21,1002,-14,29,0
2906,-152,-9,993,-14,26,2
2907,-186,-21,984,-15,4,-4
2908,-107,-26,983,-14,-22,-10
2909,70,-18,1010,-12,-31,-14
2910,166,-29,1018,-15,-16,-14
2911,154,-25,1003,-13,11,-6
2912,20,-17,995,-13,30,-1
2913,-135,-12,989,-15,28,3
2914,-196,-26,989,-14,7,-3
2915,-123,-20,982,-13,-19,-9
2916,48,-24,1010,-13,-30,-13
2917,153,-25,1012,-12,-18,-12
2918,167,-22,1007,-12,6,-6
2919,43,-12,992,-13,27,0
2920,-124,-18,992,-16,30,3
2921,-193,-24,985,-15,11,-4
2922,-138,-22,982,-16,-16,-8
2923,27,-24,1013,-14,-32,-14
2924,141,-31,1011,-12,-22,-13
2925,176,-22,1003,-12,1,-8
2926,61,-13,1003,-13,26,0
2927,-101,-17,1000,-14,31,1
2928,-191,-21,972,-16,13,-2
2929,-153,-19,979,-15,-13,-7
2930,3,-27,1017,-15,-32,-13
2931,133,-29,1010,-12,-24,-15
2932,180,-16,1007,-13,-1,-10
2933,79,-16,1003,-14,25,-1
2934,-84,-21,1004,-15,33,1
2935,-187,-19,962,-16,15,0
2936,-164,-22,988,-15,-8,-7
2937,-19,-34,1007,-15,-29,-12
2938,124,-25,1007,-13,-26,-13
2939,186,-19,1007,-13,-6,-11
2940,93,-12,1009,-12,21,-1
2941,-59,-22,1005,-16,31,2
2942,-184,-16,966,-16,19,1
2943,-166,-22,990,-16,-7,-7
2944,-47,-32,997,-15,-27,-12
2945,112,-23,1007,-13,-26,-14
2946,184,-25,1009,-12,-7,-11
2947,104,-16,1006,-14,20,-2
2948,-34,-18,1010,-13,31,0
2949,-173,-13,969,-16,22,1
2950,-181,-23,985,-16,-3,-5
2951,-69,-33,998,-15,-26,-11
2952,98,-21,1015,-14,-28,-13
2953,181,-28,999,-13,-11,-11
2954,125,-23,1006,-12,16,-3
2955,-14,-15,1006,-13,29,0
2956,-165,-10,982,-15,25,2
2957,-183,-23,988,-15,1,-4
2958,-97,-27,986,-15,-23,-10
2959,83,-23,1014,-14,-31,-13
2960,172,-31,1009,-14,-17,-12
2961,144,-25,998,-11,12,-4
2962,5,-16,1000,-14,31,0
2963,-146,-10,992,-14,26,2
2964,-189,-21,984,-15,4,-2
2965,-116,-25,981,-14,-21,-9
2966,60,-20,1014,-13,-31,-14
2967,165,-33,1012,-15,-16,-14
2968,161,-25,1007,-14,8,-6
2969,31,-15,990,-13,29,-1
2970,-130,-14,993,-15,28,2
2971,-196,-20,990,-16,8,-3
2972,-133,-20,982,-16,-17,-10
2973,42,-25,1013,-14,-31,-14
2974,148,-30,1008,-13,-20,-13
2975,173,-23,1006,-12,3,-6
2976,52,-17,998,-15,27,0
2977,-114,-18,996,-14,31,3
2978,-194,-20,973,-15,12,-3
2979,-144,-17,985,-14,-14,-7
2980,17,-26,1011,-14,-31,-13
2981,138,-32,1012,-14,-23,-15
2982,182,-17,1003,-13,-1,-8
2983,69,-15,1005,-13,26,-2
2984,-91,-20,999,-15,31,2
2985,-194,-20,970,-15,15,0
2986,-157,-16,980,-15,-11,-8
2987,-9,-29,1014,-13,-29,-13
2988,128,-27,1010,-14,-24,-14
2989,182,-17,1006,-12,-2,-10
2990,86,-13,1005,-12,23,-2
2991,-70,-20,1003,-14,31,1
2992,-187,-14,967,-15,19,0
2993,-167,-20,990,-15,-6,-6
2994,-36,-32,1000,-14,-28,-11
2995,116,-26,1004,-13,-27,-14
2996,187,-23,1011,-12,-7,-11
2997,100,-15,1008,-13,20,-2
2998,-45,-19,1006,-15,31,0
2999,-176,-12,971,-14,21,0
3000,-176,-19,985,-16,-5,-6
3001,-64,-33,997,-15,-26,-12
3002,101,-25,1006,-13,-27,-15
3003,182,-24,1008,-13,-10,-12
3004,120,-19,1005,-13,17,-4
3005,-25,-16,1010,-14,29,0
3006,-165,-11,975,-15,22,1
3007,-183,-23,985,-15,-1,-4
3008,-85,-32,992,-16,-24,-11
3009,89,-21,1014,-15,-30,-14
3010,179,-28,1004,-16,-15,-14
3011,133,-26,1001,-12,14,-4
3012,0,-12,1005,-12,29,0
3013,-156,-9,987,-16,27,2
3014,-188,-20,986,-15,4,-4
3015,-108,-27,983,-14,-21,-10
3016,71,-19,1011,-12,-31,-14
3017,170,-32,1014,-13,-16,-13
3018,152,-24,1005,-12,11,-5
3019,20,-15,995,-14,29,0
3020,-144,-11,989,-12,28,1
3021,-195,-18,990,-16,5,-3
3022,-125,-20,980,-16,-19,-10
3023,53,-24,1013,-12,-30,-14
3024,155,-29,1014,-14,-17,-14
3025,166,-26,1004,-13,8,-6
3026,46,-15,995,-13,27,0
3027,-128,-13,992,-16,30,3
3028,-193,-21,982,-14,11,-3
3029,-141,-20,986,-16,-15,-8
3030,28,-24,1008,-14,-32,-13
3031,146,-31,1014,-11,-22,-13
3032,178,-20,1001,-12,2,-6
3033,61,-15,1000,-14,26,0
3034,-103,-22,1003,-16,32,2
3035,-194,-18,968,-14,13,-1
3036,-149,-16,985,-15,-12,-8
3037,2,-30,1014,-13,-32,-13
3038,133,-27,1009,-14,-24,-13
3039,184,-22,1007,-13,1,-8
3040,78,-13,1004,3,23,-4
3041,-79,-23,1004,-3,33,1
3042,-190,-15,967,-15,17,-1
3043,-163,-20,985,-14,-7,-6
3044,-22,-32,1011,-14,-27,-12
3045,121,-24,1007,-13,-25,-15
3046,191,-25,1006,-11,-5,-10
3047,91,-18,1010,-11,21,-1
3048,-59,-20,1001,-12,32,0
3049,-183,-12,971,-15,20,-1
3050,-173,-22,988,-15,-6,-6
3051,-47,-27,999,-13,-28,-12
3052,110,-24,1007,-12,-27,-14
3053,187,-22,1008,-11,-8,-11
3054,109,-19,1008,-13,19,-2
3055,-31,-19,1008,-14,32,1
3056,-174,-15,971,-16,22,1
3057,-179,-19,982,-14,-3,-4
3058,-71,-31,999,-15,-26,-10
3059,97,-18,1010,-13,-29,-14
3060,183,-27,1007,-14,-11,-11
3061,127,-20,1004,-13,15,-3
3062,-11,-17,1005,-15,30,1
3063,-159,-16,983,-17,26,1
3064,-185,-24,988,-15,3,-4
3065,-99,-27,986,-14,-22,-11
3066,85,-19,1015,-12,-30,-14
3067,173,-26,1007,-14,-15,-12
3068,144,-24,1001,-14,12,-4
3069,9,-16,998,-15,29,-1
3070,-149,-13,990,-16,28,3
3071,-187,-26,988,-16,4,-4
3072,-120,-29,979,-15,-20,-9
3073,61,-14,1010,-12,-31,-13
3074,158,-30,1019,-13,-17,-14
3075,158,-18,1003,-13,8,-4
3076,30,-13,991,-15,28,-1
3077,-130,-16,991,-16,28,1
3078,-192,-26,986,-15,8,-3
3079,-131,-23,983,-14,-16,-9
3080,40,-25,1014,-13,-31,-14
3081,146,-28,1011,-13,-21,-15
3082,169,-19,1002,-12,5,-5
3083,54,-14,1002,-13,26,-1
3084,-113,-20,998,-15,30,0
3085,-194,-19,970,-15,11,-2
3086,-140,-20,987,-15,-13,-9
3087,14,-27,1015,-14,-30,-13
3088,133,-29,1007,-13,-21,-14
3089,179,-21,1009,-13,0,-8
3090,71,-14,1001,-14,25,0
3091,-90,-21,999,-14,30,1
3092,-191,-19,970,-17,15,-1
3093,-150,-16,985,-14,-11,-7
3094,-12,-32,1009,-13,-29,-12
3095,125,-28,1012,-15,-24,-14
3096,186,-22,1004,-13,-4,-10
3097,81,-16,1009,-11,23,-3
3098,-67,-19,998,-12,30,2
3099,-179,-15,972,-16,18,-1
3100,-168,-17,984,-15,-5,-5
3101,-38,-28,1006,-14,-28,-12
3102,116,-27,1004,-15,-26,-12
3103,182,-23,1008,-13,-7,-10
3104,102,-18,1012,-13,20,-2
3105,-46,-23,1007,-14,33,1
3106,-171,-10,968,-15,21,1
3107,-180,-19,990,-15,-4,-5
3108,-59,-30,997,-14,-27,-12
3109,103,-23,1010,-14,-27,-14
3110,183,-24,1005,-13,-9,-13
3111,116,-22,1005,-12,17,-4
3112,-20,-18,1009,-13,32,0
3113,-169,-12,978,-14,22,1
3114,-179,-21,982,-16,-2,-4
3115,-88,-31,992,-15,-22,-11
3116,92,-19,1012,-14,-29,-15
3117,175,-27,1005,-13,-13,-13
3118,134,-21,1002,-12,13,-4
3119,-2,-17,1005,-14,29,0
3120,-155,-12,988,-15,27,2
3121,-186,-25,988,-16,3,-4
3122,-107,-26,980,-15,-21,-9
3123,71,-18,1011,-12,-32,-13
3124,168,-28,1015,-13,-16,-14
3125,153,-23,1006,-14,10,-6
3126,19,-14,993,-13,28,0
3127,-142,-14,989,-15,30,1
3128,-191,-23,992,-15,7,-4
3129,-126,-26,975,-16,-18,-9
3130,52,-20,1014,-12,-31,-14
3131,155,-28,1016,-14,-19,-14
3132,166,-23,1004,-12,6,-5
3133,43,-16,993,-14,26,-1
3134,-126,-13,996,-15,30,4
3135,-192,-24,981,-15,10,-2
3136,-137,-23,986,-16,-15,-7
3137,29,-25,1013,-14,-30,-13
3138,141,-29,1009,-12,-20,-13
3139,178,-19,1006,-10,2,-7
3140,64,-13,1002,-13,27,-2
3141,-102,-18,999,-15,31,2
3142,-193,-21,971,-16,13,-2
3143,-152,-19,981,-14,-12,-7
3144,4,-30,1016,-13,-32,-13
3145,132,-28,1006,-13,-24,-14
3146,185,-21,1009,-13,-2,-10
3147,79,-11,1000,-14,25,-1
3148,-83,-20,1005,-15,30,1
3149,-187,-17,962,-15,15,-2
3150,-166,-20,987,-15,-9,-6
3151,-20,-30,1007,-14,-29,-14
3152,120,-28,1009,-14,-25,-13
3153,188,-22,1007,-11,-5,-10
3154,91,-16,1010,-14,21,0
3155,-58,-21,1002,-14,31,2
3156,-182,-17,966,-15,19,0
3157,-172,-16,991,-15,-5,-5
3158,-48,-32,999,-14,-27,-12
3159,116,-21,1005,-12,-29,-15
3160,183,-24,1009,-13,-8,-11
3161,106,-19,1010,-14,19,-4
3162,-35,-20,1005,-13,32,0
3163,-174,-11,971,-15,22,2
3164,-176,-18,984,-15,-3,-4
3165,-70,-32,997,-15,-24,-12
3166,100,-22,1012,-14,-28,-13
3167,179,-27,1002,-12,-10,-12
3168,124,-24,1006,-11,16,-4
3169,-15,-14,1007,-13,29,0
3170,-163,-12,983,-15,26,2
3171,-183,-20,983,-16,0,-4
3172,-93,-28,992,-15,-22,-11
3173,83,-22,1012,-13,-30,-13
3174,172,-27,1008,-14,-14,-12
3175,143,-30,1000,-13,13,-4
3176,6,-15,998,-14,31,1
3177,-149,-11,994,-16,27,2
3178,-190,-17,989,-16,3,-4
3179,-114,-25,978,-16,-22,-10
3180,64,-18,1012,-12,-31,-15
3181,163,-30,1017,-15,-17,-13
3182,160,-24,1002,-14,7,-6
3183,25,-17,992,-13,29,0
3184,-135,-10,991,-15,29,3
3185,-193,-23,991,-15,8,-4
3186,-130,-21,981,-15,-17,-9
3187,42,-24,1013,-13,-31,-13
3188,151,-29,1012,-13,-20,-14
3189,170,-21,1008,-12,5,-7
3190,49,-16,996,-14,27,0
3191,-116,-17,995,-14,31,2
3192,-194,-22,979,-15,11,-3
3193,-142,-19,983,-14,-14,-8
3194,19,-23,1015,-12,-32,-14
3195,139,-29,1009,-13,-22,-15
3196,182,-24,1003,-13,1,-9
3197,69,-16,1004,-13,25,-2
3198,-95,-20,1002,-15,30,2
3199,-190,-17,965,-16,13,-2
3200,-159,-17,986,-14,-11,-7
3201,-1,-32,1011,-15,-30,-13
3202,133,-25,1016,-12,-24,-14
3203,187,-19,1004,-13,-3,-8
3204,80,-15,1008,-13,23,-2
3205,-71,-20,1001,-14,31,1
3206,-192,-20,967,-15,18,0
3207,-164,-16,987,-15,-8,-7
3208,-29,-31,1007,-15,-27,-11
3209,124,-22,1003,-13,-26,-14
3210,183,-23,1006,-14,-6,-9
3211,96,-14,1009,-14,21,-2
3212,-50,-24,1006,-14,32,1
3213,-181,-12,967,-15,20,2
3214,-173,-22,989,-13,-7,-5
3215,-56,-28,998,-14,-28,-11
3216,106,-23,1005,-13,-29,-14
3217,187,-26,1007,-13,-9,-12
3218,112,-18,1008,-13,19,-1
3219,-28,-16,1005,-13,31,0
3220,-170,-12,978,-13,24,1
3221,-180,-20,983,-15,-3,-4
3222,-79,-35,996,-15,-25,-11
3223,96,-21,1013,-13,-28,-14
3224,176,-27,1002,-14,-12,-11
3225,133,-26,1004,-12,15,-4
3226,-9,-13,1003,-13,30,1
3227,-163,-10,987,-14,25,2
3228,-189,-21,987,-15,2,-5
3229,-100,-29,984,-15,-22,-11
3230,77,-21,1013,-12,-30,-14
3231,173,-30,1011,-14,-16,-12
3232,149,-26,1003,-13,11,-5
3233,10,-16,994,-13,30,-1
3234,-146,-11,995,-16,29,1
3235,-191,-22,987,-16,5,-4
3236,-117,-23,979,-15,-20,-9
3237,60,-20,1014,-13,-31,-12
3238,160,-32,1012,-14,-16,-12
3239,164,-26,1006,-12,8,-6
3240,31,-15,994,-12,30,-1
3241,-130,-14,990,-15,29,3
3242,-196,-22,987,-16,9,-1
3243,-136,-22,982,-16,-17,-7
3244,41,-25,1015,-13,-32,-13
3245,147,-30,1010,-14,-21,-12
3246,175,-22,1002,-13,4,-7
3247,53,-12,1000,-14,28,-1
3248,-113,-17,996,-15,30,3
3249,-195,-19,974,-14,11,-2
3250,-146,-17,985,-15,-15,-8
3251,12,-27,1014,-15,-30,-13
3252,139,-31,1011,-13,-21,-14
3253,183,-20,1004,-12,1,-8
3254,70,-16,1002,-13,25,-1
3255,-87,-22,1004,-15,31,2
3256,-194,-16,965,-14,15,0
3257,-157,-15,985,-14,-10,-7
3258,-9,-30,1014,-14,-29,-12
3259,125,-27,1010,-14,-24,-13
3260,184,-20,1006,-14,-4,-10
3261,86,-17,1006,-13,21,-3
3262,-67,-19,999,-13,30,2
3263,-183,-16,968,-15,18,0
3264,-169,-16,990,-14,-6,-6
3265,-35,-34,1002,-13,-28,-12
3266,113,-27,1005,-13,-27,-13
3267,184,-23,1009,-13,-8,-10
3268,102,-17,1009,-13,20,-2
3269,-42,-20,1005,-13,32,1
3270,-177,-10,968,-16,22,1
3271,-177,-18,990,-14,-5,-5
3272,-62,-32,994,-17,-27,-10
3273,100,-25,1012,-14,-28,-14
3274,183,-27,1003,-12,-11,-11
3275,121,-21,1008,-12,17,-2
3276,-24,-17,1010,-13,30,1
3277,-169,-8,974,-14,23,1
3278,-181,-17,984,-14,-2,-5
3279,-88,-30,996,-15,-22,-10
3280,91,-24,1011,-13,-30,-14
3281,180,-31,1006,-13,-14,-11
3282,136,-23,1003,-11,13,-3
3283,-4,-15,1005,-12,30,1
3284,-154,-8,987,-16,26,1
3285,-192,-24,988,-16,4,-5
3286,-106,-27,983,-16,-20,-10
3287,72,-23,1012,-12,-30,-13
3288,172,-28,1012,-13,-15,-12
3289,153,-28,1006,-14,10,-5
3290,19,-15,996,-15,29,1
3291,-143,-12,989,-16,29,3
3292,-194,-23,993,-16,6,-4
3293,-125,-23,976,-16,-19,-10
3294,54,-18,1014,-14,-30,-14
3295,158,-30,1014,-15,-18,-13
3296,167,-26,1006,-15,6,-6
3297,43,-18,990,-15,28,-1
3298,-128,-18,995,-15,29,2
3299,-194,-17,982,-15,9,-3
3300,-140,-20,988,-15,-15,-8
3301,33,-21,1009,-12,-32,-12
3302,143,-28,1011,-12,-21,-13
3303,176,-22,1002,-12,3,-8
3304,60,-17,1005,-14,26,-1
3305,-107,-24,997,-13,31,2
3306,-197,-16,973,-16,14,-1
3307,-150,-17,984,-16,-14,-7
3308,4,-27,1013,-14,-30,-12
3309,135,-29,1011,-12,-24,-14
3310,185,-20,1005,-14,0,-9
3311,76,-16,1004,-14,24,-2
3312,-85,-21,999,-14,31,2
3313,-192,-17,971,-16,14,-1
3314,-159,-19,981,-15,-10,-6
3315,-19,-28,1009,-14,-29,-13
3316,123,-24,1014,-13,-25,-15
3317,191,-20,1004,-13,-5,-9
3318,91,-16,1006,-12,22,-1
3319,-64,-24,1002,-15,31,3
3320,-184,-20,969,-16,18,-1
3321,-170,-21,987,-14,-7,-6
3322,-37,-29,1005,-13,-29,-12
3323,114,-24,1004,-12,-27,-14
3324,187,-18,1010,-13,-9,-10
3325,107,-16,1010,-15,20,-2
3326,-40,-20,1008,-16,32,0
3327,-177,-16,968,-15,22,2
3328,-182,-23,983,-14,-4,-5
3329,-64,-28,999,-15,-26,-12
3330,101,-22,1005,-13,-29,-14
3331,185,-25,1009,-13,-11,-11
3332,122,-18,1006,-12,16,-3
3333,-20,-18,1006,-14,31,0
3334,-168,-13,979,-17,24,2
3335,-185,-25,985,-14,-1,-5
3336,-86,-32,991,-14,-24,-11
3337,85,-21,1012,-14,-30,-12
3338,179,-22,1007,-13,-13,-14
3339,133,-22,1002,-13,15,-5
3340,0,-16,1004,-14,30,0
3341,-154,-13,991,-15,27,2
3342,-188,-26,983,-17,3,-3
3343,-111,-30,982,-14,-21,-11
3344,74,-18,1014,-12,-30,-14
3345,170,-29,1012,-12,-15,-13
3346,151,-20,1005,-13,11,-3
3347,19,-14,995,-13,30,1
3348,-142,-12,991,-14,30,2
3349,-192,-24,989,-14,5,-3
3350,-126,-29,979,-14,-21,-9
3351,54,-21,1010,-14,-32,-14
3352,158,-29,1017,-14,-19,-14
3353,166,-23,1005,-13,6,-7
3354,42,-13,993,-13,28,0
3355,-130,-15,993,-14,30,2
3356,-195,-21,983,-15,9,-3
3357,-139,-24,986,-14,-15,-8
3358,32,-23,1010,-14,-32,-13
3359,147,-34,1013,-13,-22,-13
3360,177,-19,1003,-12,1,-7
3361,60,-14,1001,-15,25,-1
3362,-107,-18,1000,-13,31,2
3363,-197,-19,970,-15,13,-1
3364,-150,-21,982,-14,-13,-8
3365,4,-25,1015,-14,-31,-13
3366,136,-30,1009,-14,-24,-13
3367,185,-20,1005,-13,-2,-8
3368,77,-15,1002,-13,24,-1
3369,-85,-19,1003,-13,31,1
3370,-191,-21,965,-16,15,0
3371,-162,-19,986,-15,-10,-7
3372,-14,-30,1011,-13,-29,-15
3373,125,-23,1007,-12,-24,-14
3374,191,-21,1012,-8,4,-9
3375,87,-15,1003,-10,23,-2
3376,-64,-22,1003,-14,32,1
3377,-184,-18,966,-16,19,1
3378,-173,-15,988,-15,-6,-5
3379,-36,-30,1000,-16,-29,-13
3380,114,-26,1010,-14,-27,-14
3381,186,-22,1003,-13,-8,-10
3382,101,-18,1013,-12,21,-1
3383,-43,-18,1006,-14,31,0
3384,-177,-15,970,-15,23,1
3385,-176,-17,985,-14,-4,-6
3386,-67,-31,999,-16,-26,-11
3387,107,-22,1006,-13,-29,-15
3388,184,-26,1008,-13,-9,-12
3389,124,-18,1006,-13,17,-3
3390,-23,-20,1009,-14,30,2
3391,-167,-8,976,-15,23,1
3392,-187,-23,985,-16,0,-4
3393,-86,-30,993,-14,-23,-12
3394,92,-23,1014,-15,-30,-14
3395,178,-25,1003,-14,-13,-13
3396,138,-22,1003,-12,12,-3
3397,-1,-15,1005,-14,31,0
3398,-160,-9,986,-16,28,2
3399,-190,-22,989,-16,3,-4
3400,-107,-33,980,-14,-21,-10
3401,73,-18,1014,-13,-31,-14
3402,176,-28,1013,-12,-17,-13
3403,152,-23,1001,-13,12,-7
3404,21,-13,997,-13,30,-1
3405,-147,-11,993,-16,28,2
3406,-193,-24,988,-17,5,-4
3407,-124,-30,981,-14,-18,-10
3408,48,-18,1009,-13,-29,-13
3409,164,-32,1017,-13,-19,-15
3410,167,-22,1003,-12,7,-6
3411,39,-13,994,-13,28,-1
3412,-125,-14,992,-15,29,2
3413,-196,-24,984,-16,10,-2
3414,-137,-19,986,-18,-16,-7
3415,36,-27,1014,-14,-31,-13
3416,145,-27,1006,-12,-20,-13
3417,175,-18,1007,-11,2,-6
3418,56,-13,998,-13,27,0
3419,-112,-19,998,-15,32,3
3420,-196,-25,972,-16,12,-2
3421,-148,-18,985,-14,-13,-7
3422,12,-26,1012,-13,-31,-12
3423,134,-29,1014,-12,-23,-15
3424,185,-20,1003,-12,0,-9
3425,72,-15,1001,-14,24,-1
3426,-90,-19,1005,-15,31,1
3427,-193,-16,965,-16,14,-1
3428,-159,-18,982,-13,-11,-8
3429,-14,-32,1017,-12,-30,-14
3430,130,-28,1011,-12,-24,-15
3431,185,-21,1006,-13,-3,-9
3432,87,-12,1006,-13,23,-2
3433,-70,-19,1002,-12,32,1
3434,-189,-15,965,-16,18,-1
3435,-169,-20,989,-15,-6,-8
3436,-38,-31,1002,-14,-29,-13
3437,114,-26,1004,-14,-28,-14
3438,188,-22,1010,-12,-8,-11
3439,100,-16,1008,-13,21,-1
3440,-43,-17,1007,-15,32,2
3441,-183,-16,970,-14,22,1
3442,-179,-18,983,-16,-5,-6
3443,-57,-31,1003,-16,-27,-12
3444,106,-21,1007,-13,-28,-14
3445,186,-26,1008,-14,-10,-12
3446,118,-19,1009,-13,18,-3
3447,-28,-18,1006,-14,32,1
3448,-168,-13,976,-17,23,0
3449,-185,-23,985,-14,-2,-4
3450,-82,-28,993,-15,-25,-11
3451,94,-25,1013,-14,-29,-13
3452,181,-26,1004,-13,-11,-12
3453,137,-23,1001,-12,14,-3
3454,-10,-16,1008,-14,31,0
3455,-162,-10,986,-14,26,2
3456,-190,-24,985,-16,2,-4
3457,-103,-28,983,-14,-22,-11
3458,76,-17,1016,-12,-30,-14
3459,176,-28,1010,-13,-16,-13
3460,149,-23,1001,-13,12,-4
3461,13,-13,998,-14,30,0
3462,-146,-12,990,-18,29,2
3463,-193,-22,989,-17,5,-3
3464,-120,-25,980,-15,-21,-10
3465,61,-21,1013,-14,-32,-14
3466,161,-31,1014,-13,-17,-13
3467,165,-23,1002,-13,8,-6
3468,32,-12,996,-13,28,0
3469,-130,-12,991,-14,30,2
3470,-200,-24,986,-14,9,-3
3471,-135,-23,983,-15,-16,-9
3472,39,-23,1013,-13,-31,-13
3473,152,-31,1011,-13,-20,-13
3474,175,-20,1004,-13,4,-5
3475,56,-14,999,-14,27,-1
3476,-115,-21,995,-14,31,2
3477,-196,-21,977,-15,13,-2
3478,-145,-20,985,-14,-13,-9
3479,12,-24,1013,-14,-32,-13
3480,142,-27,1008,-14,-23,-15
3481,181,-20,1005,-11,1,-7
3482,69,-13,1000,-14,25,-1
3483,-96,-25,1003,-15,33,1
3484,-193,-17,965,-15,16,0
3485,-161,-17,984,-15,-10,-6
3486,-4,-28,1012,-13,-29,-13
3487,128,-27,1011,-13,-24,-13
3488,186,-18,1004,-15,-3,-9
3489,82,-18,1006,-14,25,-2
3490,-72,-19,999,-14,32,2
3491,-191,-17,970,-16,18,1
3492,-170,-16,986,-15,-8,-7
3493,-29,-34,1006,-15,-28,-13
3494,118,-26,1007,-12,-28,-14
3495,186,-24,1006,-12,-7,-11
3496,103,-16,1014,-12,21,-3
3497,-50,-22,1003,-14,31,1
3498,-184,-12,969,-15,19,1
3499,-175,-20,989,-15,-6,-5
3500,-56,-28,997,-16,-27,-12
3501,112,-28,1004,-13,-27,-15
3502,184,-25,1008,-15,-9,-11
3503,113,-19,1007,-15,18,-2
3504,-27,-18,1010,-14,32,0
3505,-176,-12,972,-16,23,1
3506,-181,-20,983,-14,-2,-6
3507,-79,-32,998,-15,-25,-12
3508,95,-18,1009,-15,-29,-13
3509,187,-28,1009,-12,-12,-12
3510,130,-20,999,-13,15,-3
3511,-10,-18,1007,-13,29,0
3512,-160,-13,987,-16,25,1
3513,-192,-23,980,-15,2,-4
3514,-99,-27,988,-14,-23,-11
3515,77,-18,1016,-13,-30,-14
3516,174,-26,1004,-15,-14,-13
3517,150,-21,1003,-13,12,-4
3518,9,-21,1000,-13,30,0
3519,-146,-10,993,-14,29,1
3520,-192,-27,989,-14,5,-3
3521,-120,-27,975,-15,-21,-9
3522,62,-18,1014,-13,-31,-14
3523,165,-27,1014,-15,-16,-14
3524,163,-24,1008,-13,9,-5
3525,32,-9,993,-13,29,0
3526,-138,-11,992,-14,29,2
3527,-192,-24,989,-15,8,-2
3528,-137,-23,983,-16,-16,-7
3529,47,-22,1010,-14,-32,-15
3530,150,-31,1017,-14,-19,-12
3531,173,-16,998,-11,5,-6
3532,51,-17,1002,-14,27,0
3533,-121,-15,990,-16,31,3
3534,-199,-22,981,-15,12,-1
3535,-142,-22,982,-15,-13,-9
3536,18,-25,1014,-13,-31,-14
3537,144,-29,1006,-12,-22,-15
3538,179,-23,1004,-11,2,-8
3539,66,-13,999,-13,26,-1
3540,-98,-21,1003,-16,33,3
3541,-197,-20,969,-16,15,0
3542,-154,-18,981,-15,-14,-6
3543,0,-32,1014,-12,-31,-12
3544,131,-28,1014,-13,-25,-15
3545,189,-20,1006,-13,-3,-9
3546,81,-15,1003,-12,23,-1
3547,-79,-18,1003,-13,31,1
3548,-186,-18,965,-15,17,-1
3549,-167,-19,983,-16,-8,-7
3550,-24,-32,1009,-15,-28,-12
3551,124,-25,1009,-13,-25,-14
3552,190,-19,1007,-13,-5,-10
3553,94,-13,1009,-11,22,-1
3554,-56,-17,1003,-15,32,1
3555,-183,-18,968,-16,22,1
3556,-176,-19,988,-16,-6,-4
3557,-49,-32,998,-16,-28,-12
3558,110,-26,1009,-11,-27,-14
3559,190,-20,1004,-13,-8,-10
3560,113,-16,1013,-14,19,-3
3561,-35,-19,1010,-14,33,1
3562,-174,-15,967,-16,22,1
3563,-183,-21,986,-14,-4,-5
3564,-75,-28,996,-14,-26,-11
3565,101,-24,1008,-13,-29,-14
3566,183,-27,1006,-12,-9,-11
3567,128,-17,1003,-12,16,-3
3568,-13,-18,1007,-14,31,-1
3569,-164,-9,983,-16,26,1
3570,-185,-22,982,-15,1,-5
3571,-99,-30,993,-14,-22,-11
3572,84,-21,1011,-14,-31,-13
3573,177,-28,1009,-12,-15,-13
3574,146,-24,999,-9,12,-4
3575,3,-14,1002,-14,30,1
3576,-150,-7,992,-17,28,3
3577,-193,-23,984,-18,4,-3
3578,-116,-28,983,-15,-21,-10
3579,62,-25,1009,-12,-32,-14
3580,167,-28,1014,-12,-18,-14
3581,159,-24,1005,-11,9,-5
3582,27,-12,995,-13,29,0
3583,-134,-11,990,-15,29,2
3584,-200,-20,992,-15,8,-3
3585,-129,-27,978,-16,-17,-8
3586,43,-24,1013,-13,-30,-13
3587,154,-30,1014,-14,-20,-13
3588,172,-22,1005,-13,5,-6
3589,50,-16,995,-14,27,0
3590,-121,-13,992,-14,30,2
3591,-196,-21,983,-14,12,-2
3592,-141,-22,984,-15,-14,-8
3593,23,-21,1014,-14,-31,-13
3594,143,-32,1010,-14,-22,-13
3595,180,-23,1003,-12,1,-8
3596,63,-18,999,-12,26,-1
3597,-100,-20,1002,-13,31,2
3598,-194,-16,969,-16,13,-1
3599,-155,-15,981,-15,-13,-6
3600,6,-23,1017,-15,-32,-15
3601,132,-29,1010,-13,-24,-13
3602,188,-20,1003,-13,-1,-9
3603,78,-21,1010,-14,25,-2
3604,-84,-21,999,-14,33,2
3605,-191,-19,968,-16,16,0
3606,-166,-17,980,-14,-10,-6
3607,-22,-26,1010,-15,-30,-13
3608,124,-27,1009,-14,-26,-15
3609,191,-22,1006,-12,-6,-10
3610,94,-19,1005,-14,21,-1
3611,-60,-21,1003,-13,33,1
3612,-184,-17,970,-15,21,-1
3613,-177,-19,987,-15,-5,-5
3614,-45,-30,1002,-15,-28,-12
3615,117,-25,1007,-13,-29,-14
3616,190,-21,1005,-12,-10,-11
3617,110,-17,1012,-13,19,-3
3618,-41,-23,1006,-15,32,2
3619,-178,-13,967,-15,23,1
3620,-181,-21,987,-13,-4,-5
3621,-66,-27,995,-15,-26,-12
3622,101,-21,1008,-12,-28,-15
3623,188,-24,1009,-14,-9,-11
3624,127,-19,1008,-14,17,-3
3625,-18,-16,1008,-15,32,0
3626,-169,-11,977,-16,26,3
3627,-190,-22,981,-15,2,-4
3628,-91,-33,994,-14,-23,-11
3629,87,-21,1012,-14,-30,-14
3630,179,-25,1005,-11,-14,-13
3631,141,-22,1002,-12,14,-5
3632,0,-11,1006,-12,30,0
3633,-155,-10,989,-15,27,2
3634,-189,-23,986,-16,4,-4
3635,-114,-32,981,-16,-22,-8
3636,72,-20,1012,-12,-32,-14
3637,171,-30,1014,-14,-17,-12
3638,154,-25,997,-13,11,-4
3639,22,-16,1001,-12,31,-1
3640,-141,-11,989,-15,29,3
3641,-195,-21,987,-16,7,-3
3642,-127,-23,980,-15,-19,-10
3643,52,-20,1009,-13,-31,-13
3644,162,-31,1018,-14,-19,-14
3645,167,-29,1005,-15,9,-5
3646,39,-12,997,-13,28,0
3647,-128,-15,990,-13,29,3
3648,-198,-18,986,-15,9,-2
3649,-139,-22,985,-16,-16,-8
3650,33,-18,1011,-14,-31,-15
3651,150,-31,1015,-14,-21,-15
3652,178,-22,1005,-10,4,-8
3653,60,-18,998,-14,27,-1
3654,-113,-20,998,-14,31,1
3655,-195,-22,976,-15,13,-2
3656,-147,-20,982,-15,-13,-9
3657,8,-26,1018,-13,-31,-14
3658,140,-26,1005,-13,-23,-14
3659,185,-20,1005,-13,-1,-10
3660,75,-15,1004,-14,25,-1
3661,-92,-20,1002,-14,32,1
3662,-194,-20,963,-16,16,-1
3663,-162,-15,985,-13,-10,-7
3664,-6,-29,1010,-14,-30,-13
3665,130,-25,1011,-12,-25,-14
3666,191,-20,1008,-12,-4,-9
3667,85,-16,1004,-12,23,-1
3668,-72,-21,1000,-14,31,1
3669,-191,-21,968,-16,18,-1
3670,-172,-20,984,-15,-8,-7
3671,-27,-30,1006,-13,-31,-13
3672,120,-26,1007,-14,-27,-13
3673,191,-20,1008,-12,-6,-11
3674,98,-13,1008,-12,22,-1
3675,-55,-20,1004,-15,33,2
3676,-183,-17,970,-15,22,2
3677,-182,-19,986,-15,-5,-4
3678,-51,-30,997,-13,-28,-12
3679,111,-25,1007,-10,-29,-14
3680,188,-19,1007,-12,-8,-11
3681,117,-17,1013,-13,19,-2
3682,-36,-18,1005,-15,32,1
3683,-178,-13,970,-17,24,2
3684,-185,-24,983,-16,-2,-5
3685,-76,-34,995,-16,-25,-11
3686,100,-20,1010,-13,-29,-14
3687,186,-23,1006,-13,-12,-12
3688,131,-19,1004,-12,16,-4
3689,-15,-13,1009,-13,30,0
3690,-165,-12,980,-15,25,1
3691,-189,-21,985,-15,2,-5
3692,-95,-33,988,-15,-23,-10
3693,82,-22,1012,-13,-30,-14
3694,180,-26,1008,-14,-15,-13
3695,146,-24,998,-12,11,-4
3696,5,-15,1005,-13,30,0
3697,-155,-8,990,-15,27,3
3698,-193,-22,985,-16,4,-3
3699,-116,-28,982,-15,-20,-9
3700,66,-22,1012,-13,-32,-13
3701,175,-31,1011,-13,-17,-14
3702,157,-24,1006,-12,11,-5
3703,23,-14,994,-14,29,0
3704,-140,-10,992,-15,30,2
3705,-195,-26,988,-16,8,-4
3706,-130,-22,978,-16,-19,-9
3707,50,-24,1012,-13,-32,-14
3708,158,-30,1015,-13,-19,-14
3709,171,-23,1003,-12,5,-6
3710,45,-13,994,-12,28,-1
3711,-124,-15,995,-14,31,2
3712,-199,-22,984,-11,7,-5
3713,-141,-18,985,-8,-13,-9
3714,32,-27,1013,-14,-31,-13
3715,146,-26,1007,-13,-21,-14
3716,179,-24,1008,-12,2,-7
3717,65,-14,997,-14,26,-1
3718,-109,-19,998,-15,32,3
3719,-198,-20,972,-16,13,0
3720,-152,-21,986,-15,-14,-8
3721,8,-25,1010,-13,-32,-13
3722,134,-30,1012,-13,-24,-14
3723,189,-17,1005,-14,-1,-8
3724,74,-13,1005,-14,26,-1
3725,-87,-22,1000,-14,31,2
3726,-197,-21,970,-14,15,0
3727,-162,-19,976,-15,-11,-7
3728,-13,-27,1015,-14,-31,-13
3729,125,-28,1014,-14,-27,-13
3730,189,-20,1003,-13,-4,-10
3731,90,-18,1006,-12,24,-2
3732,-68,-22,1002,-14,32,2
3733,-191,-20,966,-15,19,-1
3734,-170,-15,984,-15,-7,-7
3735,-38,-31,1009,-14,-27,-12
3736,123,-25,1003,-13,-27,-15
3737,187,-21,1011,-12,-7,-10
3738,106,-16,1010,-13,20,-2
3739,-50,-23,1006,-15,35,2
3740,-181,-16,967,-15,22,1
3741,-182,-22,987,-14,-5,-6
3742,-54,-31,1000,-15,-29,-12
3743,104,-21,1005,-11,-30,-13
3744,192,-24,1008,-13,-10,-12
3745,114,-19,1013,-15,18,-2
3746,-28,-15,1004,-15,31,1
3747,-176,-17,974,-16,25,1
3748,-184,-20,988,-15,-3,-4
3749,-79,-33,990,-16,-25,-11
3750,94,-22,1016,-12,-29,-14
3751,185,-25,1004,-14,-12,-11
3752,132,-18,1006,-11,16,-4
3753,-10,-15,1007,-14,30,1
3754,-166,-10,983,-15,27,2
3755,-191,-25,980,-16,1,-5
3756,-98,-32,991,-14,-24,-11
3757,84,-23,1014,-13,-31,-13
3758,178,-25,1004,-12,-15,-13
3759,147,-24,1005,-11,12,-5
3760,7,-11,1002,-13,31,-1
3761,-157,-7,990,-16,29,3
3762,-193,-21,984,-15,4,-4
3763,-119,-32,983,-14,-21,-9
3764,70,-22,1009,-12,-32,-15
3765,172,-32,1015,-11,-17,-13
3766,161,-22,1005,-12,10,-3
3767,24,-13,994,-14,30,0
3768,-142,-9,990,-16,28,2
3769,-198,-20,991,-16,6,-3
3770,-130,-26,978,-15,-19,-9
3771,46,-22,1009,-13,-32,-13
3772,164,-33,1018,-14,-20,-14
3773,169,-24,1002,-11,6,-6
3774,45,-13,995,-13,27,0
3775,-128,-13,997,-14,31,4
3776,-197,-22,981,-16,11,-2
3777,-143,-21,983,-16,-15,-9
3778,28,-23,1016,-15,-32,-13
3779,150,-31,1009,-15,-21,-13
3780,178,-21,1007,-13,3,-7
3781,65,-17,996,-15,26,0
3782,-112,-22,999,-16,32,3
3783,-197,-17,973,-15,13,-1
3784,-157,-15,985,-17,-13,-9
3785,11,-25,1014,-16,-31,-14
3786,134,-32,1011,-12,-22,-14
3787,190,-22,1002,-12,-1,-10
3788,76,-19,1008,-13,25,0
3789,-90,-19,999,-14,32,3
3790,-195,-18,968,-15,15,-1
3791,-162,-14,981,-15,-11,-6
3792,-11,-28,1012,-13,-30,-13
3793,127,-27,1014,-14,-26,-15
3794,187,-21,1008,-13,-3,-9
3795,90,-19,1002,-13,23,-3
3796,-67,-23,1005,-14,33,1
3797,-187,-18,967,-15,19,0
3798,-172,-17,982,-15,-5,-6
3799,-35,-26,1009,-14,-28,-12
3800,117,-21,1006,-13,-27,-14
3801,191,-24,1006,-12,-7,-10
3802,100,-15,1008,-13,20,-1
3803,-47,-23,1004,-14,31,1
3804,-179,-19,968,-17,21,1
3805,-181,-18,987,-15,-4,-5
3806,-55,-27,996,-14,-28,-12
3807,106,-20,1007,-13,-29,-13
3808,189,-20,1008,-11,-10,-12
3809,119,-20,1012,-15,20,-2
3810,-32,-18,1006,-15,32,2
3811,-171,-16,971,-15,21,2
3812,-186,-21,985,-15,-1,-4
3813,-75,-30,996,-16,-26,-11
3814,99,-23,1009,-13,-28,-13
3815,180,-25,1003,-14,-11,-10
3816,136,-21,1007,-14,15,-4
3817,-14,-22,1012,-13,30,-1
3818,-166,-13,976,-15,25,3
3819,-186,-24,986,-14,0,-6
3820,-97,-29,991,-14,-22,-11
3821,84,-17,1012,-14,-30,-14
3822,180,-27,1009,-12,-15,-14
3823,144,-20,999,-11,12,-4
3824,6,-14,1006,-14,29,0
3825,-157,-13,990,-16,29,2
3826,-193,-26,983,-15,5,-4
3827,-115,-32,981,-14,-22,-10
3828,67,-16,1013,-11,-31,-13
3829,173,-25,1012,-13,-18,-13
3830,159,-22,1002,-13,9,-5
3831,23,-13,1000,-13,30,-1
3832,-141,-12,992,-16,29,3
3833,-196,-24,986,-17,6,-2
3834,-130,-26,979,-14,-20,-9
3835,52,-21,1009,-11,-33,-14
3836,164,-30,1014,-14,-19,-13
3837,173,-23,1004,-13,7,-7
3838,40,-14,995,-12,28,-1
3839,-128,-15,987,-14,28,3
3840,-199,-23,990,-15,8,-3
3841,-142,-22,981,-16,-17,-10
3842,33,-24,1012,-13,-33,-14
3843,150,-29,1014,-13,-21,-14
3844,179,-21,1004,-12,3,-7
3845,63,-12,999,-14,27,-1
3846,-113,-18,999,-15,32,2
3847,-196,-18,975,-14,13,-3
3848,-154,-21,985,-15,-13,-7
3849,10,-23,1011,-14,-32,-13
3850,139,-32,1013,-14,-24,-14
3851,187,-19,999,-12,0,-8
3852,75,-15,1007,-15,25,-1
3853,-90,-18,1001,-15,31,2
3854,-201,-17,966,-17,15,0
3855,-161,-18,979,-16,-12,-8
3856,-10,-31,1016,-13,-31,-13
3857,129,-26,1008,-12,-26,-14
3858,194,-18,1010,-11,-3,-11
3859,89,-15,1002,-12,23,-1
3860,-73,-19,1003,-13,32,2
3861,-195,-16,968,-15,19,0
3862,-174,-19,984,-16,-6,-7
3863,-30,-32,1004,-14,-30,-13
3864,119,-27,1009,-14,-27,-14
3865,195,-23,1009,-12,-7,-11
3866,101,-14,1009,-11,23,-2
3867,-52,-16,1002,-14,33,2
3868,-188,-15,971,-15,22,1
3869,-180,-17,984,-15,-6,-5
3870,-53,-32,1000,-15,-27,-12
3871,113,-22,1005,-14,-29,-14
3872,194,-25,1008,-13,-9,-12
3873,118,-16,1012,-14,20,-1
3874,-34,-21,1002,-15,33,2
3875,-183,-9,975,-16,24,1
3876,-186,-24,982,-15,-3,-4
3877,-74,-26,994,-13,-26,-13
3878,100,-21,1005,-13,-30,-15
3879,190,-26,1006,-13,-12,-13
3880,131,-19,1007,-12,18,-2
3881,-19,-19,1008,-15,32,2
3882,-166,-13,976,-14,26,1
3883,-193,-22,984,-14,1,-3
3884,-94,-27,993,-15,-24,-11
3885,86,-21,1012,-12,-30,-14
3886,183,-24,1004,-14,-15,-13
3887,142,-22,1000,-12,13,-3
3888,1,-15,1010,-13,32,0
3889,-158,-12,985,-16,28,2
3890,-193,-23,979,-16,3,-3
3891,-111,-30,991,-16,-22,-10
3892,71,-17,1011,-14,-32,-15
3893,175,-25,1010,-12,-16,-13
3894,153,-25,999,-13,10,-5
3895,24,-14,1002,-13,31,-1
3896,-147,-11,991,-15,30,4
3897,-196,-23,983,-16,7,-2
3898,-130,-31,983,-16,-20,-10
3899,58,-20,1007,-13,-33,-14
3900,168,-29,1020,-13,-19,-15
3901,171,-25,1004,-13,7,-6
3902,39,-11,993,-12,29,0
3903,-134,-12,993,-16,30,3
3904,-202,-18,989,-16,9,-2
3905,-138,-28,977,-15,-16,-10
3906,39,-23,1012,-13,-32,-13
3907,157,-30,1013,-14,-21,-13
3908,176,-19,1010,-13,4,-7
3909,55,-14,992,-14,26,0
3910,-121,-14,999,-15,32,4
3911,-199,-24,977,-16,12,-2
3912,-151,-21,984,-14,-14,-8
3913,22,-24,1012,-14,-31,-15
3914,141,-33,1012,-13,-24,-13
3915,188,-19,1002,-11,1,-8
3916,70,-16,1003,-16,26,-1
3917,-99,-19,1001,-14,33,2
3918,-200,-21,970,-16,16,0
3919,-159,-18,981,-15,-10,-7
3920,-1,-28,1011,-14,-29,-14
3921,131,-31,1011,-15,-24,-13
3922,190,-20,1006,-14,-3,-9
3923,85,-15,1005,-12,23,-1
3924,-80,-20,1004,-14,31,2
3925,-193,-17,964,-14,17,-1
3926,-171,-17,983,-16,-9,-6
3927,-21,-29,1009,-15,-29,-14
3928,123,-28,1012,-13,-26,-14
3929,195,-16,1006,-12,-5,-10
3930,99,-18,1007,-13,22,-1
3931,-64,-20,1001,-13,34,2
3932,-189,-17,971,-16,20,0
3933,-176,-18,982,-15,-6,-6
3934,-45,-31,1004,-14,-28,-12
3935,118,-23,1007,-13,-28,-14
3936,191,-21,1008,-13,-8,-11
3937,110,-15,1010,-13,21,-2
3938,-44,-21,1008,-14,33,1
3939,-182,-15,969,-15,22,0
3940,-185,-22,987,-14,-3,-5
3941,-61,-30,998,-14,-28,-11
3942,104,-22,1007,-12,-28,-13
3943,193,-23,1008,-12,-11,-12
3944,121,-20,1010,-13,17,-3
3945,-25,-18,1007,-14,32,1
3946,-175,-14,970,-16,24,1
3947,-193,-20,985,-14,-2,-6
3948,-81,-31,994,-15,-26,-12
3949,90,-21,1008,-13,-30,-13
3950,192,-24,1009,-12,-14,-10
3951,134,-21,1003,-13,14,-1
3952,-6,-16,1008,-13,31,-1
3953,-166,-13,988,-16,26,3
3954,-196,-21,979,-14,2,-4
3955,-100,-30,993,-15,-23,-9
3956,81,-19,1012,-15,-31,-13
3957,179,-25,1005,-15,-15,-13
3958,151,-27,1003,-14,11,-5
3959,4,-13,1003,-15,31,1
3960,-148,-14,991,-16,28,1
3961,-198,-24,986,-16,6,-3
3962,-120,-26,979,-15,-21,-9
3963,67,-18,1015,-12,-32,-14
3964,170,-27,1013,-14,-18,-11
3965,164,-26,1003,-13,9,-5
3966,28,-15,999,-13,30,0
3967,-140,-13,989,-15,31,3
3968,-196,-23,988,-16,9,-4
3969,-136,-26,979,-15,-18,-9
3970,45,-19,1010,-10,-32,-13
3971,161,-27,1018,-13,-18,-13
3972,174,-24,1004,-14,6,-6
3973,48,-11,996,-14,28,0
3974,-125,-18,991,-18,31,2
3975,-201,-26,988,-13,10,-3
3976,-150,-23,979,-15,-15,-8
3977,29,-23,1017,-12,-32,-14
3978,153,-28,1011,-12,-22,-14
3979,182,-17,1006,-13,1,-7
3980,67,-12,997,-14,26,0
3981,-112,-18,998,-14,32,4
3982,-197,-21,973,-16,14,-2
3983,-157,-24,986,-14,-12,-8
3984,7,-26,1007,-14,-32,-13
3985,142,-31,1014,-12,-24,-14
3986,190,-19,1002,-12,0,-8
3987,76,-14,1004,-14,26,0
3988,-90,-17,1004,-15,32,2
3989,-203,-17,966,-15,16,-1
3990,-161,-20,982,-14,-11,-8
3991,-15,-29,1012,-14,-30,-13
3992,133,-28,1014,-15,-25,-14
3993,192,-21,1005,-13,-3,-9
3994,91,-14,1006,-15,24,-1
3995,-74,-19,1002,-15,33,2
3996,-194,-19,967,-17,18,1
3997,-176,-21,983,-16,-8,-6
3998,-30,-29,1007,-15,-29,-12
3999,124,-29,1010,-13,-27,-14
4000,193,-19,1011,-14,-7,-10
4001,103,-15,1005,-13,21,-1
4002,-53,-21,1007,-14,33,2
4003,-186,-15,966,-16,21,0
4004,-182,-20,986,-14,-5,-6
4005,-51,-30,1001,-14,-30,-13
4006,111,-21,1007,-13,-28,-15
4007,192,-22,1010,-12,-10,-12
4008,118,-17,1011,-13,19,-3
4009,-39,-17,1007,-15,32,1
4010,-179,-17,972,-16,23,1
4011,-188,-21,985,-16,-3,-4
4012,-70,-30,996,-14,-26,-11
4013,101,-22,1009,-14,-29,-13
4014,190,-26,1003,-13,-12,-13
4015,129,-20,1011,-12,16,-4
4016,-16,-15,1010,-14,31,0
4017,-170,-10,975,-16,26,2
4018,-189,-21,984,-15,0,-3
4019,-96,-33,993,-16,-24,-10
4020,87,-28,1011,-14,-31,-15
4021,184,-29,1005,-13,-15,-13
4022,144,-22,1004,-10,13,-4
4023,1,-12,1004,-14,31,-1
4024,-159,-10,989,-15,28,2
4025,-197,-23,982,-16,5,-3
4026,-114,-30,986,-16,-21,-11
4027,73,-23,1013,-14,-32,-14
4028,176,-28,1011,-12,-18,-14
4029,162,-24,1002,-13,11,-5
4030,19,-15,1000,-14,31,0
4031,-149,-10,993,-16,30,2
4032,-200,-25,987,-16,5,-3
4033,-129,-27,978,-16,-21,-9
4034,57,-20,1013,-13,-33,-15
4035,170,-30,1015,-12,-18,-15
4036,168,-25,1008,-13,8,-5
4037,39,-16,991,-12,29,0
4038,-138,-9,993,-13,31,3
4039,-202,-23,989,-15,9,-1
4040,-138,-26,979,-15,-18,-10
4041,42,-21,1010,-12,-32,-15
4042,157,-32,1017,-13,-21,-13
4043,180,-27,1002,-12,5,-7
4044,51,-15,998,-14,29,-1
4045,-119,-14,992,-14,32,1
4046,-201,-23,985,-15,13,-2
4047,-154,-20,978,-17,-14,-8
4048,22,-25,1014,-14,-33,-14
4049,143,-32,1011,-13,-23,-13
4050,187,-17,1002,-11,2,-8
4051,72,-16,1000,-13,27,-1
4052,-105,-19,1002,-16,33,3
4053,-199,-21,968,-15,14,-1
4054,-158,-22,982,-16,-12,-7
4055,2,-27,1011,-29,-42,-14
4056,134,-29,1010,-12,-26,-15
4057,192,-19,1007,-15,-2,-9
4058,82,-14,1003,-14,24,-2
4059,-82,-19,1002,-14,33,1
4060,-200,-17,967,-17,16,0
4061,-168,-18,978,-16,-10,-6
4062,-19,-33,1012,-14,-29,-13
4063,125,-26,1008,-14,-27,-14
4064,195,-22,1008,-12,-5,-9
4065,96,-14,1007,-12,23,-1
4066,-67,-19,1002,-15,32,2
4067,-186,-13,969,-15,19,0
4068,-181,-21,986,-15,-6,-4
4069,-38,-28,1002,-14,-30,-12
4070,117,-30,1011,-14,-29,-14
4071,191,-20,1003,-14,-8,-11
4072,108,-19,1013,-13,20,-3
4073,-47,-22,1006,-13,32,1
4074,-182,-16,968,-15,22,0
4075,-183,-18,989,-16,-4,-6
4076,-61,-29,997,-15,-27,-11
4077,108,-21,1006,-12,-30,-14
4078,186,-26,1007,-13,-11,-12
4079,120,-18,1009,-15,19,-3
4080,-26,-21,1008,-14,33,1
4081,-178,-13,972,-15,25,2
4082,-186,-22,985,-15,-1,-5
4083,-80,-30,994,-14,-24,-11
4084,95,-20,1010,-12,-30,-14
4085,189,-25,1008,-13,-14,-12
4086,130,-23,1004,-13,15,-4
4087,-6,-16,1007,-13,30,-1
4088,-168,-15,983,-15,26,2
4089,-190,-19,981,-15,2,-4
4090,-101,-30,994,-13,-23,-11
4091,78,-19,1009,-13,-31,-15
4092,180,-26,1006,-12,-16,-13
4093,149,-24,1006,-13,12,-3
4094,7,-14,999,-14,31,2
4095,-149,-12,990,-14,28,2
4096,-197,-26,986,-15,5,-4
4097,-118,-30,976,-13,-21,-10
4098,65,-20,1015,-12,-33,-14
4099,173,-23,1014,-12,-18,-13
4100,160,-21,999,-13,10,-5
4101,26,-13,1000,-14,31,-1
4102,-138,-11,991,-15,30,2
4103,-197,-29,989,-16,6,-3
4104,-132,-25,978,-14,-19,-9
4105,50,-23,1013,-13,-33,-13
4106,158,-27,1011,-14,-20,-13
4107,174,-22,1010,-13,5,-7
4108,42,-11,993,-13,28,-1
4109,-126,-15,990,-15,30,2
4110,-200,-21,989,-16,11,-1
4111,-141,-27,979,-15,-16,-8
4112,32,-25,1010,-13,-32,-13
4113,147,-29,1014,-13,-21,-13
4114,180,-18,1004,-12,3,-7
4115,62,-14,1001,-14,26,0
4116,-111,-14,993,-16,32,2
4117,-197,-21,982,-16,13,-2
4118,-151,-24,977,-16,-13,-7
4119,10,-26,1014,-13,-31,-14
4120,142,-32,1013,-13,-25,-15
4121,187,-18,1003,-13,1,-7
4122,75,-11,1004,-14,27,-1
4123,-95,-19,1003,-14,33,3
4124,-200,-18,967,-16,15,-1
4125,-161,-18,980,-16,-11,-5
4126,-7,-31,1015,-14,-30,-14
4127,132,-29,1009,-12,-24,-14
4128,191,-21,1007,-13,-1,-10
4129,90,-14,1005,-13,24,-1
4130,-76,-18,1004,-14,33,1
4131,-193,-17,967,-15,18,0
4132,-172,-20,983,-14,-8,-7
4133,-27,-30,1008,-14,-28,-14
4134,120,-28,1008,-13,-27,-14
4135,195,-22,1007,-12,-6,-10
4136,99,-17,1009,-13,20,-2
4137,-56,-18,1003,-13,31,2
4138,-186,-16,970,-16,19,1
4139,-182,-19,987,-15,-5,-6
4140,-49,-29,999,-16,-29,-11
4141,111,-25,1005,-12,-28,-14
4142,192,-24,1011,-11,-9,-13
4143,112,-16,1010,-13,20,-3
4144,-37,-18,1005,-16,32,1
4145,-178,-13,971,-16,23,1
4146,-186,-20,986,-15,-2,-3
4147,-72,-29,994,-15,-26,-10
4148,101,-23,1011,-14,-30,-14
4149,187,-26,1007,-13,-11,-12
4150,129,-20,1006,-13,17,-4
4151,-22,-15,1010,-14,32,1
4152,-168,-17,975,-16,25,1
4153,-190,-19,985,-14,0,-5
4154,-91,-29,990,-15,-25,-12
4155,91,-18,1017,-13,-30,-15
4156,182,-27,999,-14,-12,-13
4157,142,-20,1004,-12,13,-4
4158,4,-20,1004,-15,31,1
4159,-161,-12,988,-15,27,2
4160,-190,-22,980,-15,3,-4
4161,-114,-29,991,-13,-22,-10
4162,72,-17,1007,-12,-32,-14
4163,172,-28,1014,-12,-16,-13
4164,155,-23,1002,-12,10,-5
4165,19,-13,996,-13,30,0
4166,-145,-12,993,-16,30,3
4167,-199,-25,991,-16,6,-2
4168,-126,-27,976,-14,-20,-9
4169,52,-19,1010,-11,-31,-14
4170,169,-26,1018,-14,-19,-14
4171,167,-23,1003,-14,8,-5
4172,41,-13,994,-11,30,0
4173,-132,-16,992,-16,31,3
4174,-201,-20,984,-17,10,-2
4175,-141,-25,983,-16,-15,-9
4176,35,-23,1013,-13,-33,-13
4177,152,-28,1013,-14,-22,-13
4178,181,-19,1004,-13,3,-7
4179,55,-14,998,-14,26,-1
4180,-115,-18,993,-15,31,1
4181,-201,-23,980,-16,12,-2
4182,-148,-19,981,-15,-13,-9
4183,17,-25,1013,-12,-31,-13
4184,141,-27,1010,-13,-22,-14
4185,184,-19,1004,-12,0,-7
4186,74,-14,1003,-13,26,0
4187,-98,-19,1001,-15,33,2
4188,-196,-21,970,-15,15,-2
4189,-162,-19,979,-15,-11,-6
4190,-5,-29,1017,-14,-31,-13
4191,134,-30,1011,-14,-25,-14
4192,190,-20,1003,-13,-2,-11
4193,84,-12,1005,-14,25,-1
4194,-74,-22,1005,-15,32,2
4195,-190,-17,965,-16,17,1
4196,-172,-19,982,-15,-8,-6
4197,-27,-33,1012,-14,-29,-12
4198,120,-28,1008,-12,-25,-14
4199,192,-18,1007,-13,-6,-10
4200,100,-13,1009,-12,21,-2
4201,-56,-20,1004,-13,33,0
4202,-182,-16,967,-15,21,1
4203,-177,-21,988,-15,-6,-4
4204,-53,-30,996,-15,-28,-11
4205,110,-24,1010,-12,-28,-15
4206,192,-23,1006,-14,-10,-12
4207,112,-18,1013,-14,19,-2
4208,-34,-19,1005,-15,32,1
4209,-178,-14,973,-15,23,1
4210,-185,-19,984,-15,-3,-5
4211,-74,-29,996,-15,-27,-11
4212,98,-23,1009,-13,-30,-14
4213,189,-24,1003,-13,-12,-11
4214,130,-14,1010,-14,16,-2
4215,-17,-18,1005,-16,31,1
4216,-167,-15,978,-17,26,2
4217,-190,-27,985,-14,0,-4
4218,-96,-28,990,-13,-24,-11
4219,87,-23,1013,-13,-31,-14
4220,182,-23,1010,-12,-15,-13
4221,145,-21,1001,-13,12,-5
4222,2,-17,1005,-13,31,0
4223,-153,-12,993,-15,28,2
4224,-193,-25,984,-14,5,-5
4225,-113,-30,984,-15,-21,-9
4226,67,-18,1012,-12,-30,-14
4227,174,-24,1013,-14,-17,-14
4228,158,-22,998,-13,9,-5
4229,24,-15,999,-14,30,0
4230,-138,-16,991,-15,28,2
4231,-200,-26,985,-16,6,-2
4232,-129,-25,979,-15,-18,-9
4233,51,-20,1014,-12,-31,-13
4234,160,-26,1013,-14,-19,-12
4235,169,-23,1007,-13,6,-6
4236,44,-14,994,-14,28,0
4237,-131,-14,988,-15,30,3
4238,-199,-26,987,-15,10,-2
4239,-141,-25,983,-15,-15,-8
4240,33,-22,1011,-15,-32,-13
4241,151,-29,1010,-11,-22,-14
4242,182,-20,1006,-11,2,-8
4243,60,-14,998,-12,26,-2
4244,-113,-18,998,-15,31,0
4245,-201,-23,977,-15,12,-2
4246,-153,-17,980,-15,-14,-7
4247,8,-27,1017,-13,-31,-14
4248,141,-28,1011,-14,-24,-15
4249,184,-19,1005,-12,-1,-8
4250,74,-14,1002,-16,25,-2
4251,-90,-20,1005,-15,32,2
4252,-198,-18,961,-14,16,0
4253,-163,-17,984,-13,-10,-7
4254,-12,-31,1013,-14,-30,-14
4255,125,-22,1011,-13,-24,-15
4256,195,-20,1004,-14,-4,-11
4257,86,-15,1007,-13,22,-1
4258,-69,-22,999,-15,31,3
4259,-189,-17,969,-15,18,0
4260,-174,-21,985,-16,-7,-5
4261,-36,-28,1003,-15,-29,-12
4262,122,-27,1009,-13,-26,-14
4263,192,-20,1005,-12,-7,-9
4264,104,-14,1012,-13,20,-1
4265,-52,-16,1006,-14,33,1
4266,-187,-16,969,-16,22,0
4267,-178,-24,984,-15,-5,-7
4268,-59,-37,999,-14,-27,-12
4269,113,-19,1006,-13,-29,-14
4270,190,-21,1010,-12,-9,-13
4271,118,-10,1011,-13,17,-3
4272,-33,-14,1008,-15,32,1
4273,-173,-15,970,-17,23,0
4274,-189,-24,984,-13,-2,-4
4275,-77,-32,993,-14,-24,-12
4276,99,-25,1010,-12,-29,-15
4277,183,-22,1005,-13,-13,-12
4278,134,-18,1002,-13,15,-3
4279,-14,-12,1009,-13,31,1
4280,-165,-9,982,-17,25,4
4281,-191,-27,982,-15,1,-4
4282,-100,-35,991,-15,-23,-10
4283,81,-22,1015,-13,-31,-14
4284,176,-25,1003,-15,-15,-13
4285,148,-23,1006,-12,11,-5
4286,6,-10,997,-13,30,1
4287,-153,-8,993,-15,28,1
4288,-193,-25,986,-15,5,-4
4289,-119,-27,976,-14,-21,-11
4290,63,-23,1016,-13,-31,-13
4291,169,-29,1010,-13,-19,-14
4292,161,-27,1006,-13,8,-6
4293,28,-14,994,-12,29,0
4294,-136,-9,992,-13,29,2
4295,-197,-22,982,-15,7,-3
4296,-133,-21,982,-15,-17,-9
4297,45,-23,1010,-14,-31,-13
4298,156,-31,1013,-14,-18,-14
4299,170,-25,1002,-13,6,-5
4300,47,-12,1000,-13,27,0
4301,-123,-18,990,-15,30,2
4302,-194,-20,986,-15,10,-2
4303,-141,-23,982,-16,-15,-8
4304,23,-23,1012,-12,-32,-13
4305,145,-32,1010,-14,-22,-15
4306,178,-22,1003,-10,3,-7
4307,69,-15,999,-13,25,-1
