sequence,AccelerometerX,AccelerometerY,AccelerometerZ,GyroscopeX,GyroscopeY,GyroscopeZ
0,163,39,1025,-13,-22,-10
1,202,30,1003,-16,1,-5
2,91,29,994,-15,25,1
3,-85,7,999,-9,32,3
4,-211,-5,983,-17,15,1
5,-179,8,971,-9,-9,-5
6,-12,24,1010,-23,-33,-9
7,137,38,1013,-2,-23,-11
8,215,38,1006,-28,-7,-6
9,116,31,1004,-16,22,1
10,-56,5,1005,-23,34,5
11,-187,-1,970,-32,22,4
12,-195,7,965,-5,-6,-3
13,-52,19,1009,-16,-29,-10
14,112,33,1020,-11,-26,-11
15,212,42,1001,-13,-9,-9
16,140,31,1004,-19,18,-1
17,-21,12,1009,-12,31,2
18,-175,0,973,-15,23,2
19,-201,4,974,-13,0,-2
20,-92,7,995,-8,-25,-7
21,94,34,1010,-15,-31,-11
22,206,41,1010,-12,-13,-10
23,162,34,1011,-16,14,-2
24,16,13,1011,-17,31,2
25,-157,7,972,-12,29,4
26,-207,0,977,-14,5,-1
27,-129,8,992,-10,-23,-7
28,67,31,1008,-12,-31,-11
29,196,40,1003,-14,-18,-10
30,181,31,1004,-15,9,-4
31,50,21,1013,-16,28,0
32,-136,11,993,-17,31,4
33,-208,-4,969,-12,10,-1
34,-156,4,979,-11,-17,-5
35,32,36,1014,-10,-33,-9
36,169,37,1018,-14,-22,-11
37,200,31,1004,-16,3,-5
38,81,23,991,-16,27,2
39,-102,7,1001,-14,33,4
40,-204,-6,988,-14,14,1
41,-179,8,966,-11,-10,-5
42,1,26,1008,-10,-31,-10
43,145,36,1016,-14,-24,-12
44,210,42,1007,-15,-2,-7
45,115,29,1002,-16,22,0
46,-73,6,1002,-15,33,3
47,-195,-4,968,-15,19,1
48,-188,4,975,-11,-7,-4
49,-45,19,1010,-11,-30,-8
50,123,32,1015,-11,-28,-11
51,218,41,1004,-13,-7,-8
52,137,35,1001,-16,20,-1
53,-31,10,1015,-15,32,3
54,-183,0,975,-14,22,2
55,-203,2,964,-13,-1,-1
56,-79,9,998,-11,-26,-8
57,101,32,1016,-12,-30,-11
58,211,45,1008,-12,-13,-9
59,160,29,1009,-16,16,-1
60,3,15,1007,-15,31,3
61,-162,3,976,-14,27,3
62,-209,0,980,-13,2,-1
63,-120,9,991,-11,-23,-8
64,77,33,1008,-12,-31,-12
65,195,42,1005,-14,-16,-10
66,178,31,1007,-16,11,-3
67,38,21,1013,-16,29,1
68,-138,6,985,-13,30,4
69,-207,-4,970,-13,9,-1
70,-151,6,982,-11,-18,-7
71,39,33,1019,-11,-32,-11
72,178,36,1010,-14,-22,-10
73,195,30,999,-15,5,-4
74,76,25,996,-16,27,1
75,-108,9,1006,-18,32,3
76,-210,-4,980,-14,12,0
77,-174,8,970,-10,-13,-5
78,10,30,1006,-10,-29,-10
79,146,38,1020,-12,-22,-11
80,210,37,1011,-15,-1,-7
81,107,28,995,-16,24,1
82,-77,5,996,-16,33,4
83,-199,-6,978,-14,18,2
84,-189,8,974,-12,-8,-4
85,-30,23,1008,-12,-31,-9
86,126,33,1017,-12,-27,-12
87,217,42,997,-14,-5,-7
88,131,32,1005,-18,21,-1
89,-40,6,1017,-18,33,3
90,-187,-2,965,-13,22,3
91,-196,7,967,-12,-3,-2
92,-73,9,1002,-10,-26,-8
93,102,36,1020,-12,-28,-10
94,215,42,1005,-14,-13,-10
95,148,34,1002,-17,17,-1
96,1,12,1007,-15,32,2
97,-173,2,977,-14,27,3
98,-204,1,977,-12,1,-2
99,-109,5,993,-11,-23,-8
100,80,34,1007,-13,-31,-10
101,204,43,1008,-12,-15,-11
102,173,31,1016,-16,13,-3
103,30,20,1011,-17,29,3
104,-146,10,981,-15,30,3
105,-206,-7,969,-14,8,0
106,-148,3,988,-12,-19,-7
107,55,31,1015,-12,-32,-10
108,187,37,1006,-16,-20,-10
109,196,31,999,-14,7,-4
110,61,24,1004,-14,30,3
111,-119,12,1001,-16,31,5
112,-207,-4,978,-11,12,0
113,-169,7,971,-12,-15,-5
114,21,29,1005,-11,-32,-10
115,162,33,1022,-13,-23,-12
116,203,33,1007,-16,0,-5
117,96,27,992,-14,25,1
118,-87,8,996,-14,32,4
119,-206,-3,981,-15,15,1
120,-183,8,974,-13,-9,-5
121,-15,23,1009,-13,-31,-9
122,134,37,1013,-13,-26,-11
123,214,37,1003,-14,-5,-8
124,122,31,1005,-15,22,0
125,-52,5,1007,-18,33,4
126,-187,-2,968,-12,21,1
127,-196,7,966,-11,-4,-2
128,-59,16,1007,-12,-27,-9
129,111,35,1018,-11,-27,-12
130,217,44,1007,-14,-10,-9
131,148,30,1001,-16,17,-1
132,-18,9,1009,-15,31,3
133,-174,0,973,-16,25,3
134,-206,5,976,-11,0,-3
135,-95,13,990,-14,-25,-8
136,89,30,1010,-14,-30,-11
137,207,46,1014,-14,-14,-11
138,165,33,1009,-18,14,-1
139,23,16,1011,-17,30,2
140,-152,4,977,-15,27,3
141,-210,-3,973,-11,6,-2
142,-132,6,993,-11,-20,-8
143,58,33,1011,-12,-31,-11
144,196,41,1006,-13,-18,-12
145,186,31,1002,-18,8,-3
146,55,23,1012,-15,29,3
147,-126,8,991,-18,31,4
148,-209,-7,975,-16,11,0
149,-163,2,972,-10,-16,-6
150,29,28,1014,-11,-32,-11
151,168,41,1020,-13,-20,-11
152,203,31,1001,-15,3,-6
153,91,32,994,-16,26,0
154,-99,6,998,-14,32,3
155,-205,-4,988,-14,14,0
156,-181,2,971,-15,-11,-4
157,-1,22,1007,-9,-31,-9
158,142,33,1015,-13,-25,-11
159,212,43,1010,-14,-4,-7
160,117,28,1005,-14,23,0
161,-64,9,999,-15,33,3
162,-193,-3,968,-14,20,1
163,-191,5,973,-13,-6,-3
164,-47,16,1010,-12,-29,-9
165,118,33,1016,-10,-28,-11
166,217,45,1004,-16,-7,-8
167,139,36,1001,-15,19,0
168,-30,8,1014,-15,32,4
169,-179,1,974,-16,23,3
170,-204,0,968,-12,-1,-3
171,-80,10,992,-11,-25,-8
172,92,32,1015,-12,-29,-10
173,211,44,1011,-12,-15,-10
174,160,33,1007,-16,13,-1
175,9,18,1008,-15,31,3
176,-162,5,974,-15,27,4
177,-210,-2,980,-14,2,-2
178,-124,4,992,-12,-24,-8
179,72,32,1002,-12,-30,-11
180,197,40,1007,-12,-17,-10
181,180,30,1008,-16,9,-3
182,42,24,1011,-15,29,2
183,-137,10,989,-15,30,3
184,-210,-3,966,-14,9,0
185,-154,2,981,-9,-18,-6
186,40,33,1018,-10,-32,-9
187,178,38,1016,-13,-21,-11
188,197,32,996,-13,6,-5
189,77,27,997,-16,27,1
190,-108,14,1004,-14,31,3
191,-208,-3,982,-14,13,0
192,-175,6,970,-12,-13,-4
193,9,28,1005,-10,-31,-10
194,151,34,1019,-13,-23,-12
195,212,36,1008,-14,-4,-6
196,109,27,1002,-16,23,1
197,-74,8,993,-16,32,4
198,-201,-7,975,-12,19,2
199,-189,6,973,-12,-9,-4
200,-36,20,1011,-12,-29,-10
201,130,36,1012,-12,-26,-11
202,218,41,1000,-16,-6,-8
203,134,31,1006,-15,20,0
204,-42,5,1013,-16,31,4
205,-185,-1,969,-12,21,2
206,-202,3,965,-12,-2,-2
207,-73,13,1000,-11,-27,-9
208,103,35,1022,-12,-30,-12
209,214,45,1007,-16,-14,-9
210,154,31,1004,-18,16,-1
211,0,10,1006,-15,33,3
212,-169,3,978,-15,28,3
213,-207,0,981,-12,2,-2
214,-115,10,987,-10,-24,-8
215,79,34,1005,-13,-32,-11
216,203,40,1011,-13,-15,-11
217,172,30,1009,-16,12,-3
218,36,18,1013,-15,30,1
219,-143,9,980,-14,29,3
220,-210,-3,970,-14,7,0
221,-147,5,984,-12,-19,-7
222,48,34,1021,-11,-33,-10
223,186,39,1003,-14,-20,-12
224,191,29,999,-15,7,-5
225,68,25,1004,-16,26,0
226,-118,9,1000,-15,31,3
227,-206,-4,983,-15,10,-2
228,-170,4,965,-12,-14,-6
229,12,30,1004,-11,-31,-10
230,160,37,1023,-14,-24,-11
231,209,33,1006,-16,-1,-6
232,101,28,994,-14,24,2
233,-81,8,998,-14,33,4
234,-204,-5,978,-11,18,1
235,-188,7,973,-13,-10,-3
236,-22,21,1014,-12,-33,-9
237,133,35,1012,-13,-27,-12
238,215,38,996,-15,-5,-8
239,127,34,1010,-15,21,-2
240,-52,6,1012,-18,32,4
241,-188,-2,964,-13,20,2
242,-201,4,967,-11,-3,-2
243,-62,15,1007,-11,-27,-9
244,112,35,1017,-12,-28,-11
245,214,45,1007,-15,-11,-10
246,149,34,1004,-18,17,-1
247,-10,8,1011,-14,33,2
248,-172,-1,971,-14,26,2
249,-203,0,982,-12,2,-2
250,-101,12,989,-10,-25,-8
251,85,35,1004,-13,-31,-10
252,204,41,1012,-16,-15,-11
253,169,30,1012,-17,14,-2
254,26,18,1008,-16,30,2
255,-149,7,977,-13,27,4
256,-206,-1,973,-12,6,-1
257,-138,6,990,-9,-20,-8
258,59,36,1014,-11,-33,-11
259,190,41,1004,-14,-20,-10
260,189,29,999,-15,6,-4
261,59,20,1009,-17,27,0
262,-127,7,999,-17,31,4
263,-208,-6,975,-13,11,0
264,-165,5,970,-9,-15,-7
265,24,35,1008,-9,-32,-10
266,164,37,1023,-13,-21,-11
267,208,33,1001,-15,2,-6
268,90,27,992,-16,25,2
269,-92,8,996,-15,31,5
270,-208,-8,987,-14,16,0
271,-180,6,971,-12,-11,-5
272,-10,26,1008,-9,-30,-10
273,139,36,1011,-12,-26,-12
274,212,41,1007,-15,-4,-8
275,119,31,1002,-15,22,0
276,-64,3,1006,-18,34,4
277,-193,-7,969,-13,19,2
278,-195,1,968,-13,-6,-3
279,-49,18,1012,-12,-29,-10
280,115,35,1017,-12,-28,-11
281,218,43,1002,-15,-9,-9
282,140,32,1004,-16,18,-1
283,-27,8,1012,-14,30,4
284,-177,-2,974,-14,23,2
285,-204,1,972,-14,-1,-2
286,-85,10,993,-12,-25,-9
287,94,36,1016,-11,-30,-11
288,211,43,1010,-15,-14,-9
289,163,34,1011,-17,15,-1
290,9,15,1006,-17,31,2
291,-154,4,975,-15,28,3
292,-210,0,980,-12,4,-1
293,-126,4,989,-13,-23,-6
294,69,35,1008,-11,-32,-11
295,196,40,1004,-13,-17,-11
296,183,33,1007,-16,9,-2
297,48,23,1014,-18,28,3
298,-136,8,988,-17,30,4
299,-204,-6,974,-14,9,-1
300,-156,4,980,-12,-17,-6
301,34,34,1014,-12,-33,-11
302,175,37,1018,-13,-23,-13
303,199,32,996,-15,3,-6
304,84,25,995,-16,28,0
305,-105,9,1002,-15,31,3
306,-209,-5,986,-14,11,2
307,-176,6,966,-13,-13,-5
308,2,26,1006,-11,-32,-11
309,150,37,1020,-14,-25,-11
310,213,35,1009,-16,-2,-7
311,111,31,1000,-16,23,2
312,-71,8,997,-16,32,4
313,-197,-2,977,-14,18,1
314,-192,10,974,-13,-7,-3
315,-39,18,1008,-11,-30,-9
316,125,35,1016,-11,-27,-11
317,217,42,998,-13,-7,-8
318,135,33,1006,-18,20,0
319,-37,6,1017,-17,31,2
320,-185,0,969,-14,22,1
321,-201,3,964,-15,-2,-2
322,-76,15,1004,-10,-25,-8
323,100,33,1018,-15,-30,-11
324,217,41,1009,-15,-13,-10
325,155,32,1005,-17,17,-1
326,1,13,1006,-15,31,2
327,-168,1,979,-14,26,2
328,-209,2,980,-11,2,-2
329,-114,6,986,-13,-24,-7
330,77,34,1007,-12,-31,-11
331,202,39,1008,-13,-17,-11
332,175,32,1013,-17,11,-3
333,33,20,1009,-17,29,2
334,-141,7,980,-17,30,4
335,-207,-2,971,-15,8,0
336,-148,5,982,-12,-18,-6
337,52,34,1020,-13,-32,-11
338,185,39,1009,-14,-21,-11
339,196,35,994,-15,6,-5
340,67,22,1005,-16,27,0
341,-118,9,1001,-17,31,4
342,-209,-7,979,-14,12,1
343,-168,2,968,-10,-15,-6
344,18,30,1005,-19,-30,-6
345,160,34,1022,-26,-19,-9
346,205,33,1008,-17,1,-5
347,98,29,991,-15,25,1
348,-84,9,996,-18,33,4
349,-206,-3,984,-12,16,0
350,-184,5,973,-13,-9,-3
351,-14,20,1008,-14,-31,-9
352,132,32,1016,-13,-25,-10
353,215,38,1001,-14,-5,-7
354,125,29,1008,-15,21,0
355,-52,8,1006,-16,32,4
356,-191,-2,969,-14,21,1
357,-193,7,965,-12,-5,-4
358,-62,15,1009,-14,-29,-9
359,109,34,1018,-12,-29,-12
360,218,37,1003,-16,-10,-9
361,148,32,1004,-14,18,0
362,-16,7,1010,-15,32,3
363,-176,1,979,-14,26,2
364,-205,0,972,-12,0,-3
365,-97,11,992,-12,-25,-8
366,89,37,1009,-12,-30,-11
367,209,42,1012,-15,-15,-11
368,164,32,1010,-17,12,-3
369,20,16,1006,-16,31,2
370,-155,0,976,-16,28,3
371,-211,-1,976,-12,5,-2
372,-130,2,990,-13,-22,-8
373,61,39,1009,-12,-30,-11
374,194,42,1004,-12,-17,-13
375,187,31,1005,-15,9,-4
376,47,23,1011,-14,28,2
377,-127,10,993,-16,30,4
378,-209,-11,973,-15,9,-1
379,-158,2,972,-9,-15,-7
380,29,31,1017,-13,-33,-10
381,172,38,1016,-13,-23,-11
382,202,33,999,-15,4,-6
383,85,33,997,-17,25,2
384,-100,7,1000,-17,32,5
385,-206,-7,985,-16,13,0
386,-183,4,966,-12,-11,-3
387,1,24,1009,-8,-30,-10
388,146,37,1016,-15,-24,-11
389,211,39,1009,-14,-2,-5
390,116,27,1002,-17,23,1
391,-71,7,1001,-17,34,4
392,-197,-3,970,-14,18,2
393,-192,6,974,-14,-6,-3
394,-39,17,1009,-13,-29,-10
395,121,31,1012,-12,-26,-11
396,220,43,1004,-15,-6,-8
397,136,31,1003,-15,20,-1
398,-33,6,1012,-17,32,3
399,-179,-2,973,-15,21,3
400,-198,2,967,-11,-1,-3
401,-73,10,998,-11,-25,-8
402,98,34,1019,-12,-29,-10
403,210,42,1009,-14,-12,-10
404,156,35,1004,-15,16,-2
405,0,17,1005,-15,31,3
406,-163,6,980,-16,27,2
407,-208,-2,981,-14,4,-1
408,-119,7,985,-13,-23,-7
409,74,31,1005,-13,-31,-10
410,198,42,1009,-15,-16,-10
411,176,30,1010,-17,10,-2
412,36,21,1012,-15,29,2
413,-141,11,983,-15,30,4
414,-208,-2,969,-12,8,-1
415,-152,7,986,-13,-19,-6
416,45,33,1015,-10,-33,-10
417,184,38,1013,-14,-21,-11
418,192,29,993,-16,6,-4
419,68,23,1005,-16,27,1
420,-116,13,1003,-17,30,4
421,-211,-5,978,-14,12,0
422,-169,9,968,-10,-14,-6
423,13,27,1009,-13,-32,-11
424,157,38,1021,-13,-22,-12
425,209,31,1011,-16,0,-7
426,101,29,991,-16,24,0
427,-82,6,998,-16,33,5
428,-203,-7,982,-13,17,0
429,-187,3,976,-12,-8,-5
430,-17,23,1008,-9,-31,-9
431,135,34,1013,-14,-27,-12
432,217,41,1000,-16,-5,-9
433,124,30,1006,-17,22,-1
434,-51,9,1007,-19,32,3
435,-190,-7,970,-13,21,1
436,-193,2,966,-9,-5,-2
437,-61,14,1007,-12,-29,-8
438,112,31,1019,-12,-28,-11
439,215,41,1006,-15,-9,-9
440,148,36,1002,-16,16,-2
441,-17,12,1007,-16,31,3
442,-176,0,979,-15,25,2
443,-203,1,971,-15,1,-2
444,-97,6,990,-11,-24,-8
445,91,34,1013,-10,-30,-11
446,204,41,1011,-14,-13,-10
447,166,35,1008,-15,15,-3
448,18,18,1010,-16,31,3
449,-153,8,976,-15,30,4
450,-210,-1,975,-12,6,-1
451,-131,4,991,-12,-21,-7
452,60,35,1009,-12,-31,-10
453,193,41,1003,-13,-18,-10
454,186,32,1005,-14,8,-4
455,50,22,1010,-15,28,2
456,-131,11,994,-13,30,2
457,-209,-7,973,-13,10,0
458,-161,6,973,-9,-15,-6
459,30,31,1015,-12,-33,-12
460,171,36,1015,-15,-22,-11
461,205,30,997,-13,4,-6
462,85,26,997,-16,26,2
463,-99,9,999,-15,31,3
464,-207,-7,985,-13,14,-1
465,-178,7,967,-14,-13,-4
466,-2,24,1004,-11,-31,-10
467,148,36,1019,-13,-26,-11
468,212,34,1008,-16,-3,-6
469,114,28,1000,-14,23,0
470,-68,4,1000,-16,33,4
471,-196,0,973,-13,18,1
472,-194,6,975,-12,-7,-2
473,-42,22,1009,-13,-30,-9
474,123,29,1013,-12,-29,-11
475,219,38,1000,-14,-6,-8
476,137,32,1007,-15,20,1
477,-33,6,1014,-17,32,3
478,-183,0,971,-13,23,1
479,-204,6,962,-14,-1,-2
480,-79,13,1000,-11,-26,-9
481,96,33,1020,-13,-30,-11
482,212,43,1007,-16,-13,-10
483,157,32,1006,-16,16,-1
484,4,12,1007,-15,31,3
485,-167,3,975,-12,26,4
486,-210,3,980,-12,2,-2
487,-116,7,988,-12,-22,-8
488,78,35,1001,-9,-30,-11
489,198,41,1011,-14,-17,-11
490,177,33,1013,-18,11,-3
491,37,13,1011,-16,30,2
492,-143,8,979,-15,30,4
493,-209,-4,970,-13,8,-1
494,-146,7,986,-10,-19,-8
495,46,31,1016,-12,-32,-9
496,185,41,1009,-13,-20,-11
497,195,28,998,-15,7,-5
498,68,24,1004,-17,28,1
499,-116,10,1000,-16,32,4
500,-209,-7,981,-14,11,0
501,-171,8,967,-11,-13,-5
502,18,27,1008,-12,-31,-9
503,160,39,1024,-13,-22,-11
504,208,33,1008,-14,1,-5
505,98,25,991,-15,25,1
506,-87,8,1000,-15,32,5
507,-202,-7,980,-13,17,0
508,-185,6,976,-13,-10,-3
509,-18,22,1006,-11,-31,-9
510,137,37,1014,-14,-25,-9
511,218,40,1005,-15,-4,-8
512,121,31,1004,-16,23,0
513,-53,3,1006,-17,33,3
514,-195,-4,969,-14,20,2
515,-197,8,965,-12,-5,-3
516,-56,15,1010,-13,-28,-10
517,108,36,1018,-11,-28,-12
518,214,41,1003,-15,-9,-9
519,147,35,1006,-15,19,0
520,-21,12,1006,-16,32,3
521,-177,-2,978,-16,24,2
522,-205,1,970,-12,1,-1
523,-97,10,990,-10,-25,-8
524,91,34,1013,-12,-31,-12
525,207,41,1012,-13,-15,-9
526,163,37,1008,-16,13,-2
527,17,15,1009,-17,30,3
528,-156,4,975,-13,27,2
529,-213,0,976,-14,5,-1
530,-128,6,992,-12,-21,-9
531,62,33,1007,-12,-31,-10
532,198,39,1004,-14,-18,-11
533,185,29,1008,-15,8,-3
534,48,21,1013,-16,29,2
535,-131,8,988,-15,32,3
536,-209,-5,971,-13,11,-1
537,-161,4,977,-10,-16,-6
538,36,34,1019,-10,-33,-11
539,176,37,1015,-15,-23,-10
540,201,32,996,-15,3,-5
541,80,23,998,-15,27,1
542,-108,10,1001,-16,31,4
543,-208,-8,986,-14,12,-1
544,-177,6,964,-13,-13,-6
545,4,27,1003,-10,-32,-10
546,153,36,1024,-15,-24,-11
547,212,38,1010,-15,-2,-7
548,114,27,997,-17,23,1
549,-75,7,997,-16,34,4
550,-203,-6,972,-14,19,1
551,-192,8,976,-12,-8,-3
552,-36,20,1009,-13,-31,-8
553,129,34,1012,-13,-27,-11
554,221,39,1001,-14,-6,-9
555,134,34,1005,-17,21,0
556,-42,9,1012,-16,33,5
557,-189,0,969,-15,21,2
558,-203,0,962,-12,-3,-2
559,-76,11,1003,-9,-26,-9
560,103,31,1020,-14,-29,-12
561,220,43,1006,-14,-12,-10
562,157,34,1004,-14,16,-1
563,-1,15,1004,-15,32,3
564,-172,4,979,-14,27,3
565,-213,0,977,-12,1,-2
566,-109,5,989,-12,-23,-8
567,85,33,1007,-12,-31,-11
568,205,40,1013,-11,-15,-10
569,176,33,1012,-16,13,-3
570,30,18,1009,-17,30,3
571,-147,6,981,-15,29,3
572,-217,0,971,-14,7,0
573,-143,3,989,-12,-20,-6
574,57,32,1013,-11,-33,-10
575,194,37,1009,-13,-21,-12
576,194,32,1000,-14,7,-4
577,59,24,1011,-15,28,2
578,-124,10,995,-16,31,4
579,-214,-8,976,-13,11,1
580,-163,4,969,-11,-17,-6
581,25,32,1015,-12,-32,-10
582,172,40,1021,-13,-23,-11
583,206,28,999,-15,3,-6
584,94,28,994,-18,25,2
585,-100,7,1000,-15,32,4
586,-206,-4,984,-14,14,0
587,-185,4,967,-12,-11,-4
588,-5,29,1003,-9,-31,-10
589,141,34,1021,-14,-25,-11
590,213,42,1006,-14,-4,-6
591,121,28,1001,-15,23,-1
592,-67,10,1002,-14,34,3
593,-198,-9,967,-13,18,2
594,-194,7,975,-11,-8,-4
595,-41,15,1010,-12,-30,-9
596,119,37,1013,-12,-28,-12
597,221,39,1000,-16,-9,-8
598,138,36,1006,-16,20,-1
599,-32,7,1015,-18,32,5
600,-182,-3,969,-13,22,2
601,-205,6,965,-12,-2,-1
602,-81,13,998,-11,-26,-9
603,97,34,1020,-11,-30,-13
604,214,41,1008,-15,-13,-10
605,158,32,1004,-14,16,-2
606,5,12,1006,-16,33,3
607,-167,4,980,-15,27,2
608,-210,0,979,-15,3,-1
609,-118,6,986,-13,-23,-8
610,78,34,1010,-14,-31,-11
611,200,40,1007,-14,-16,-10
612,179,33,1012,-17,11,-3
613,35,16,1010,-17,28,3
614,-140,6,981,-14,28,4
615,-211,-5,968,-13,8,0
616,-151,8,986,-11,-18,-6
617,50,31,1017,-14,-32,-11
618,184,38,1006,-15,-21,-11
619,197,30,997,-16,5,-4
620,64,25,1009,-16,29,1
621,-120,11,997,-15,33,4
622,-205,-4,979,-13,11,0
623,-171,5,967,-11,-12,-5
624,15,29,1007,-11,-31,-10
625,165,33,1025,-14,-23,-12
626,203,31,1005,-13,1,-6
627,103,28,993,-17,25,1
628,-88,6,998,-14,34,4
629,-208,0,983,-13,17,1
630,-183,4,973,-12,-9,-4
631,-17,26,1007,-12,-30,-8
632,135,38,1013,-15,-26,-10
633,220,37,1005,-14,-6,-9
634,120,28,1005,-16,22,1
635,-54,6,1006,-17,32,4
636,-192,-5,970,-14,20,1
637,-200,4,966,-12,-5,-2
638,-54,20,1006,-10,-29,-9
639,113,33,1022,-11,-29,-11
640,220,43,1001,-15,-9,-9
641,146,30,1002,-16,18,-1
642,-23,12,1012,-14,31,3
643,-179,-2,975,-15,25,2
644,-204,3,968,-13,0,-2
645,-90,10,994,-11,-24,-8
646,91,36,1013,-12,-31,-11
647,213,44,1011,-14,-14,-9
648,162,35,1006,-17,14,-3
649,13,14,1010,-16,31,2
650,-162,1,978,-17,26,1
651,-209,-4,978,-13,2,-3
652,-122,9,989,-11,-22,-7
653,67,37,1003,-12,-30,-10
654,201,42,1007,-14,-16,-13
655,178,28,1009,-16,9,-3
656,43,20,1011,-16,28,2
657,-130,5,986,-14,30,3
658,-209,-5,969,-14,10,-1
659,-152,6,982,-11,-17,-6
660,39,30,1018,-13,-31,-10
661,176,41,1011,-14,-21,-12
662,198,31,1000,-16,5,-6
663,75,26,998,-15,28,1
664,-108,9,1004,-17,31,4
665,-208,-9,982,-13,12,1
666,-175,4,964,-11,-12,-5
667,11,27,1006,-10,-31,-10
668,151,37,1023,-15,-23,-11
669,208,35,1011,-16,-1,-7
670,109,27,993,-15,22,1
671,-81,11,997,-15,32,4
672,-202,-5,978,-14,18,2
673,-189,4,976,-13,-7,-3
674,-25,20,1006,-14,-30,-9
675,130,35,1014,-14,-28,-12
676,216,40,1001,-14,-5,-8
677,129,31,1008,-14,23,0
678,-49,12,1008,-16,33,4
679,-189,0,968,-10,21,1
680,-199,7,964,-20,-3,-3
681,-67,11,1003,-8,-27,-9
682,107,30,1019,-12,-28,-12
683,220,40,1006,-16,-11,-9
684,151,35,998,-13,16,-1
685,-9,13,1012,-19,32,3
686,-176,2,976,-14,27,4
687,-208,4,973,-13,1,-2
688,-98,5,991,-13,-24,-9
689,86,37,1009,-10,-31,-10
690,211,40,1015,-15,-15,-10
691,168,32,1008,-17,13,-2
692,21,13,1013,-17,30,3
693,-152,5,975,-16,27,3
694,-211,-1,976,-12,5,-1
695,-133,6,989,-14,-21,-6
696,60,35,1009,-13,-32,-10
697,196,40,1003,-13,-19,-11
698,185,30,1007,-18,8,-2
699,54,21,1013,-16,28,2
700,-128,8,991,-17,30,3
701,-207,-9,971,-15,10,0
702,-163,4,976,-11,-16,-5
703,33,31,1017,-11,-33,-12
704,174,36,1016,-12,-22,-11
705,203,35,997,-14,4,-5
706,87,31,999,-16,27,1
707,-104,8,1005,-16,32,3
708,-207,-5,983,-14,12,1
709,-181,5,965,-11,-13,-5
710,1,26,1005,-10,-31,-9
711,147,35,1019,-12,-24,-12
712,212,35,1009,-14,-2,-7
713,115,26,998,-15,23,1
714,-73,9,992,-16,33,5
715,-200,-4,977,-13,19,1
716,-194,7,976,-13,-7,-3
717,-37,22,1008,-11,-29,-9
718,125,32,1013,-14,-27,-11
719,216,46,1001,-13,-7,-8
720,135,30,1003,-15,21,0
721,-39,8,1014,-16,32,4
722,-188,0,969,-14,21,3
723,-201,5,963,-11,-4,-3
724,-74,15,1002,-10,-28,-9
725,101,34,1021,-12,-29,-11
726,218,42,1009,-14,-12,-10
727,156,31,1002,-14,16,-2
728,-3,12,1008,-15,32,3
729,-169,2,977,-15,26,3
730,-208,2,977,-13,2,-2
731,-107,7,988,-9,-23,-8
732,79,34,1008,-14,-30,-10
733,203,39,1010,-13,-15,-11
734,172,30,1012,-16,12,-3
735,27,20,1009,-16,28,2
736,-145,7,979,-15,29,3
737,-209,-2,972,-13,7,-1
738,-141,5,988,-14,-19,-6
739,54,33,1014,-11,-32,-11
740,189,40,1005,-14,-20,-11
741,192,30,1000,-17,6,-3
742,60,22,1011,-16,28,3
743,-122,10,997,-16,31,3
744,-210,-9,977,-13,10,-1
745,-167,6,968,-11,-15,-4
746,20,31,1012,-13,-32,-10
747,169,37,1020,-13,-23,-11
748,203,32,999,-15,2,-4
749,95,29,994,-17,26,1
750,-95,9,1000,-14,34,5
751,-207,-7,985,-11,15,0
752,-185,6,967,-12,-11,-4
753,-10,27,1005,-9,-29,-9
754,142,37,1016,-14,-26,-11
755,211,36,1009,-14,-3,-6
756,120,29,999,-17,22,1
757,-59,6,1005,-16,34,4
758,-196,-4,969,-13,20,1
759,-196,8,971,-11,-6,-2
760,-47,18,1012,-13,-29,-9
761,113,36,1015,-12,-28,-10
762,222,43,1000,-14,-8,-8
763,142,31,1006,-18,20,-1
764,-28,11,1011,-17,32,3
765,-183,-2,971,-15,23,2
766,-203,3,967,-12,-1,-2
767,-84,13,993,-10,-25,-7
768,95,34,1017,-11,-30,-12
769,214,42,1011,-14,-13,-10
770,159,32,1005,-14,16,-1
771,8,12,1005,-15,31,1
772,-164,1,976,-14,28,3
773,-206,-1,983,-12,4,-1
774,-122,5,986,-11,-22,-6
775,72,34,1007,-11,-31,-11
776,200,40,1011,-16,-16,-11
777,177,32,1008,-15,11,-3
778,40,22,1013,-16,29,2
779,-140,12,985,-13,30,3
780,-215,-7,968,-13,9,0
781,-153,5,984,-13,-18,-6
782,46,33,1019,-12,-33,-10
783,186,38,1006,-14,-22,-12
784,199,29,995,-15,5,-5
785,71,28,1005,-13,28,2
786,-114,9,1000,-16,32,4
787,-207,-8,980,-13,13,0
788,-175,6,964,-10,-12,-4
789,11,27,1008,-11,-31,-11
790,159,34,1021,-12,-23,-12
791,210,34,1007,-15,1,-5
792,104,32,994,-16,24,1
793,-85,7,998,-15,33,4
794,-206,-5,982,-13,17,-1
795,-194,7,971,-12,-9,-3
796,-18,24,1008,-12,-31,-11
797,136,32,1017,-14,-26,-13
798,215,40,999,-15,-5,-8
799,128,27,1008,-17,21,-1
800,-51,7,1009,-14,34,4
801,-188,-3,967,-14,21,2
802,-195,4,969,-12,-4,-3
803,-61,15,1008,-10,-27,-8
804,112,30,1020,-12,-29,-11
805,218,45,1007,-12,-9,-8
806,147,34,1000,-16,17,-2
807,-11,9,1013,-16,33,2
808,-176,-1,974,-13,27,3
809,-207,1,969,-12,2,-2
810,-91,9,993,-12,-24,-8
811,85,35,1011,-12,-30,-9
812,211,45,1011,-15,-14,-10
813,166,34,1013,-17,13,-2
814,18,17,1008,-14,32,4
815,-153,5,973,-16,28,3
816,-211,-2,982,-13,3,-2
817,-130,1,987,-12,-21,-6
818,61,35,1007,-12,-30,-10
819,197,42,1010,-12,-19,-11
820,185,33,1009,-15,9,-3
821,46,24,1010,-15,28,2
822,-131,11,992,-15,29,3
823,-207,-9,975,-15,9,0
824,-157,7,973,-10,-16,-5
825,36,31,1020,-11,-32,-11
826,177,37,1014,-15,-21,-12
827,197,33,994,-15,4,-4
828,81,28,997,-16,27,2
829,-108,7,1001,-15,32,5
830,-205,-6,981,-14,13,0
831,-176,4,967,-11,-13,-4
832,5,28,1002,-11,-31,-10
833,154,38,1022,-12,-23,-12
834,212,35,1009,-15,-3,-6
835,110,29,996,-17,23,-1
836,-73,6,996,-18,33,3
837,-200,-8,977,-16,20,0
838,-190,6,974,-11,-7,-3
839,-30,19,1010,-12,-30,-9
840,129,31,1013,-12,-27,-11
841,218,40,1000,-11,-5,-7
842,131,36,1005,-16,22,1
843,-44,8,1014,-16,33,3
844,-187,0,967,-15,21,2
845,-202,4,963,-12,-4,-2
846,-70,12,1004,-10,-26,-8
847,103,33,1019,-12,-29,-10
848,217,42,1006,-12,-12,-9
849,153,33,1004,-15,17,-1
850,-6,13,1006,-16,32,2
851,-171,2,978,-14,26,3
852,-209,1,978,-12,3,-1
853,-109,4,991,-12,-23,-8
854,85,27,1005,-10,-30,-10
855,202,43,1014,-12,-15,-9
856,167,31,1008,-15,14,-2
857,33,21,1011,-16,30,0
858,-149,7,979,-15,29,4
859,-214,-1,969,-12,7,-2
860,-141,5,991,-13,-20,-9
861,52,34,1012,-8,-31,-11
862,188,40,1006,-14,-18,-11
863,195,30,1002,-16,6,-5
864,59,21,1006,-16,28,2
865,-121,13,999,-16,31,5
866,-209,-5,979,-12,12,0
867,-169,7,966,-11,-15,-6
868,25,33,1013,-10,-32,-10
869,165,36,1023,-15,-23,-10
870,206,32,1000,-16,1,-5
871,98,27,990,-16,25,1
872,-94,9,1000,-16,33,5
873,-205,-4,982,-12,16,0
874,-184,2,976,-10,-9,-4
875,-11,27,1003,-11,-30,-8
876,141,36,1018,-12,-25,-12
877,214,40,1006,-15,-5,-9
878,117,30,1001,-14,22,0
879,-56,8,1004,-18,33,3
880,-196,-5,971,-13,21,1
881,-194,6,968,-9,-7,-3
882,-50,17,1011,-12,-30,-9
883,114,35,1016,-12,-27,-11
884,219,45,1002,-14,-8,-9
885,140,34,1004,-17,20,-1
886,-26,10,1010,-14,32,3
887,-180,0,974,-15,24,2
888,-204,2,968,-11,-1,-2
889,-90,12,991,-9,-26,-8
890,96,35,1018,-15,-29,-12
891,210,43,1007,-13,-14,-11
892,162,34,1008,-15,15,-2
893,12,16,1005,-15,32,2
894,-162,3,977,-13,28,2
895,-211,-2,979,-14,3,-2
896,-126,4,990,-11,-23,-8
897,74,32,1005,-13,-31,-11
898,199,38,1007,-13,-16,-12
899,180,29,1005,-14,10,-4
900,45,22,1013,-16,28,3
901,-138,11,984,-14,30,5
902,-210,-3,973,-10,9,-1
903,-154,2,979,-11,-16,-6
904,40,30,1018,-12,-32,-10
905,182,36,1011,-15,-20,-11
906,198,30,997,-16,5,-4
907,77,26,1000,-15,28,1
908,-111,9,1004,-15,32,4
909,-207,-4,981,-14,13,0
910,-173,3,970,-12,-13,-5
911,5,29,1001,-11,-31,-10
912,153,35,1022,-13,-24,-12
913,211,30,1011,-16,-1,-6
914,109,31,991,-16,24,0
915,-75,9,999,-14,33,2
916,-203,-4,977,-12,18,1
917,-189,7,975,-11,-9,-3
918,-29,22,1010,-9,-30,-9
919,127,37,1010,-12,-27,-11
920,216,42,1003,-14,-5,-8
921,128,31,1004,-17,21,-1
922,-45,5,1011,-19,34,4
923,-188,-1,970,-15,21,2
924,-198,4,968,-12,-3,-1
925,-68,15,1004,-12,-27,-10
926,104,33,1020,-11,-28,-11
927,214,46,1007,-14,-10,-10
928,152,35,1003,-16,17,-2
929,-12,12,1005,-15,32,4
930,-172,2,979,-16,26,3
931,-205,1,979,-13,2,-2
932,-106,7,985,-13,-23,-7
933,86,33,1008,-12,-31,-11
934,205,44,1013,-13,-14,-9
935,169,33,1008,-16,13,-1
936,26,16,1011,-17,30,2
937,-149,6,978,-15,28,5
938,-208,-3,973,-14,5,-1
939,-139,3,989,-12,-20,-7
940,57,35,1013,-11,-32,-12
941,189,41,1006,-15,-19,-11
942,190,30,997,-18,6,-4
943,60,22,1011,-17,28,2
944,-120,8,994,-17,31,4
945,-213,-6,976,-14,11,1
946,-160,5,971,-12,-15,-5
947,22,35,1010,-11,-32,-9
948,166,38,1019,-13,-22,-11
949,205,32,1007,-16,3,-5
950,90,26,989,-16,25,2
951,-93,10,997,-15,32,5
952,-206,-10,987,-16,14,0
953,-183,7,971,-12,-12,-4
954,-6,24,1007,-11,-32,-9
955,138,39,1017,-12,-24,-11
956,214,41,1005,-14,-4,-7
957,119,29,1004,-17,22,0
958,-64,7,1003,-16,33,5
959,-195,-5,969,-13,21,2
960,-189,5,971,-12,-6,-4
961,-52,18,1009,-11,-28,-7
962,115,37,1015,-11,-28,-11
963,219,43,1006,-13,-9,-9
964,134,34,1004,-17,19,0
965,-26,11,1008,-18,31,3
966,-179,-2,979,-15,23,1
967,-204,2,963,-12,0,-1
968,-86,8,996,-10,-25,-9
969,94,35,1018,-13,-30,-11
970,206,46,1007,-16,-14,-10
971,159,34,1009,-17,14,-3
972,8,12,1007,-18,31,2
973,-159,5,975,-14,27,3
974,-207,-4,981,-12,4,-2
975,-124,4,990,-12,-23,-7
976,71,33,1004,-11,-31,-11
977,195,42,1007,-13,-18,-11
978,178,34,1007,-17,9,-4
979,44,22,1014,-17,28,2
980,-135,6,986,-16,29,5
981,-206,-6,973,-13,10,0
982,-153,4,979,-12,-17,-6
983,41,31,1020,-12,-33,-10
984,178,38,1013,-13,-21,-11
985,198,32,997,-14,6,-5
986,75,28,998,-16,26,1
987,-109,9,1003,-14,31,4
988,-208,-5,982,-15,12,2
989,-173,3,969,-11,-14,-4
990,9,24,1006,-9,-31,-11
991,152,39,1019,-12,-22,-12
992,210,37,1009,-14,-1,-7
993,107,27,998,-16,23,0
994,-78,7,990,-15,33,4
995,-196,-6,980,-12,18,0
996,-190,8,974,-13,-7,-4
997,-28,24,1009,-12,-31,-10
998,129,34,1012,-13,-28,-12
999,213,43,1001,-14,-5,-7
1000,131,31,1003,-16,20,1
1001,-44,8,1014,-16,32,4
1002,-186,0,968,-13,20,1
1003,-195,5,965,-11,-3,-2
1004,-71,16,1002,-11,-26,-9
1005,103,38,1020,-14,-28,-11
1006,214,43,1005,-15,-11,-9
1007,149,33,1001,-15,18,0
1008,-3,11,1008,-14,33,3
1009,-170,4,976,-14,26,3
1010,-204,3,978,-13,2,-2
1011,-108,7,990,-10,-25,-9
1012,83,36,1006,-12,-31,-10
1013,201,42,1009,-13,-15,-10
1014,170,30,1011,-17,13,-3
1015,26,14,1012,-17,29,2
1016,-141,3,978,-13,28,3
1017,-213,-2,969,-18,5,0
1018,-139,4,992,4,-21,-9
1019,54,36,1015,5,-31,-11
1020,188,41,1004,-15,-21,-11
1021,190,33,999,-12,8,-3
1022,55,23,1009,-17,29,2
1023,-118,7,996,-15,31,4
1024,-207,-7,977,-13,10,0
1025,-166,5,967,-10,-15,-6
1026,28,29,1012,-9,-32,-10
1027,161,38,1022,-14,-23,-10
1028,208,33,1004,-15,1,-5
1029,92,29,993,-15,26,0
1030,-94,7,995,-17,32,4
1031,-208,-6,986,-13,16,0
1032,-179,5,972,-13,-11,-3
1033,-13,23,1005,-12,-30,-9
1034,143,36,1017,-11,-25,-12
1035,211,38,1004,-13,-4,-7
1036,117,35,1005,-15,22,0
1037,-61,6,1004,-17,33,4
1038,-195,-3,968,-15,19,0
1039,-192,2,971,-12,-5,-2
1040,-50,16,1011,-11,-30,-8
1041,116,33,1016,-12,-29,-11
1042,215,42,1002,-13,-8,-8
1043,141,32,1002,-16,20,0
1044,-25,10,1011,-16,32,3
1045,-179,-1,973,-14,23,2
1046,-203,2,970,-14,0,-3
1047,-88,10,993,-13,-25,-8
1048,91,32,1013,-13,-30,-11
1049,210,46,1012,-16,-13,-11
1050,157,29,1007,-18,14,-2
1051,12,14,1005,-14,31,2
1052,-159,4,977,-16,27,3
1053,-210,0,981,-12,3,-2
1054,-122,4,991,-13,-22,-7
1055,66,35,1006,-11,-30,-9
1056,198,41,1005,-12,-17,-11
1057,182,32,1008,-17,10,-3
1058,40,24,1013,-17,28,3
1059,-129,9,987,-16,29,3
1060,-208,-6,972,-15,8,0
1061,-155,6,977,-10,-18,-5
1062,36,31,1020,-11,-32,-10
1063,177,38,1014,-13,-22,-10
1064,200,36,996,-15,5,-3
1065,77,29,1001,-17,28,2
1066,-107,10,1002,-17,32,5
1067,-209,-8,981,-16,12,1
1068,-178,7,967,-11,-13,-5
1069,8,26,1006,-12,-31,-10
1070,148,39,1017,-13,-24,-12
1071,209,37,1012,-16,-2,-6
1072,109,34,998,-16,24,0
1073,-75,8,997,-16,33,4
1074,-199,-7,974,-14,18,0
1075,-191,2,975,-12,-7,-3
1076,-32,19,1010,-12,-31,-9
1077,128,32,1012,-13,-26,-12
1078,217,41,1002,-12,-5,-7
1079,132,33,1005,-16,22,0
1080,-41,10,1014,-16,33,3
1081,-186,-1,967,-14,22,1
1082,-200,4,965,-13,-2,-2
1083,-70,8,1003,-10,-27,-10
1084,101,33,1018,-13,-29,-11
1085,214,41,1009,-14,-12,-9
1086,152,32,1004,-14,16,-2
1087,-3,12,1006,-16,32,3
1088,-167,3,975,-14,26,1
1089,-208,1,981,-13,1,-2
1090,-112,4,988,-13,-23,-7
1091,83,36,1007,-13,-30,-11
1092,200,41,1012,-14,-15,-12
1093,172,34,1013,-16,11,-3
1094,33,17,1011,-17,29,3
1095,-144,10,978,-13,30,4
1096,-206,-4,971,-14,7,0
1097,-146,5,987,-12,-19,-6
1098,50,32,1017,-10,-32,-10
1099,185,37,1009,-14,-20,-10
1100,196,31,997,-16,8,-4
1101,60,26,1007,-15,29,3
1102,-119,11,1000,-16,31,5
1103,-208,-10,978,-14,11,1
1104,-167,6,968,-11,-14,-5
1105,19,30,1008,-10,-31,-10
1106,160,37,1023,-12,-22,-12
1107,204,36,1005,-15,1,-5
1108,98,34,995,-15,25,1
1109,-87,9,995,-17,33,5
1110,-206,-7,985,-15,16,1
1111,-185,5,971,-14,-9,-4
1112,-19,20,1012,-11,-32,-10
1113,137,34,1013,-13,-26,-12
1114,212,42,1002,-13,-4,-7
1115,124,29,1008,-16,22,1
1116,-56,8,1009,-16,33,3
1117,-194,-2,967,-14,20,2
1118,-194,6,966,-10,-5,-3
1119,-56,13,1011,-11,-28,-9
1120,114,35,1016,-14,-29,-11
1121,218,41,1005,-16,-9,-9
1122,143,33,1001,-16,18,0
1123,-19,9,1008,-15,32,3
1124,-178,0,975,-15,25,1
1125,-206,1,978,-14,0,-3
1126,-94,10,990,-10,-25,-8
1127,93,37,1010,-14,-30,-11
1128,206,45,1011,-15,-14,-10
1129,164,33,1011,-15,15,-2
1130,19,16,1009,-17,30,1
1131,-155,5,975,-14,27,4
1132,-207,-1,975,-13,4,-1
1133,-132,2,993,-11,-21,-8
1134,62,36,1009,-10,-31,-11
1135,192,38,1004,-14,-18,-11
1136,182,32,1004,-15,8,-4
1137,51,22,1012,-15,28,2
1138,-128,9,992,-18,30,4
1139,-207,-5,973,-14,10,0
1140,-158,1,973,-10,-16,-6
1141,29,34,1013,-11,-32,-8
1142,168,39,1020,-14,-22,-11
1143,202,34,999,-17,3,-6
1144,86,28,995,-16,26,0
1145,-98,8,999,-16,31,4
1146,-208,-6,983,-15,14,1
1147,-177,6,969,-15,-11,-4
1148,-5,24,1007,-11,-32,-10
1149,142,36,1014,-13,-26,-12
1150,215,37,1010,-15,-2,-8
1151,113,31,1001,-16,23,1
1152,-64,9,1002,-17,33,3
1153,-195,-5,969,-14,19,1
1154,-192,7,973,-13,-7,-2
1155,-43,19,1013,-12,-29,-8
1156,117,33,1013,-11,-27,-11
1157,219,41,1002,-14,-8,-8
1158,137,33,1003,-14,19,0
1159,-31,10,1011,-16,32,4
1160,-180,-1,972,-15,23,2
1161,-203,3,968,-13,-1,-1
1162,-80,11,996,-12,-26,-8
1163,95,34,1018,-12,-30,-10
1164,208,45,1008,-13,-14,-9
1165,157,33,1009,-15,14,-2
1166,6,13,1004,-16,31,4
1167,-160,5,975,-15,28,3
1168,-207,-1,982,-12,3,-2
1169,-118,7,986,-12,-22,-7
1170,73,35,1004,-11,-30,-10
1171,199,43,1009,-15,-15,-11
1172,175,30,1011,-17,11,-2
1173,40,23,1007,-17,28,2
1174,-138,8,983,-15,29,3
1175,-205,-3,971,-13,7,-1
1176,-152,4,984,-11,-17,-5
1177,43,36,1016,-12,-32,-10
1178,181,34,1011,-12,-20,-12
1179,197,31,998,-16,6,-4
1180,72,22,1000,-15,28,2
1181,-114,8,1002,-16,31,4
1182,-203,-6,984,-14,11,1
1183,-168,6,963,-8,-13,-6
1184,10,32,1010,-10,-31,-10
1185,150,37,1022,-15,-25,-11
1186,208,33,1009,-16,-2,-7
1187,105,28,991,-16,23,1
1188,-85,9,998,-15,31,4
1189,-200,-4,979,-13,17,0
1190,-191,5,974,-11,-9,-4
1191,-25,25,1009,-11,-31,-11
1192,130,32,1016,-12,-26,-11
1193,219,44,995,-14,-6,-9
1194,124,33,1011,-17,20,0
1195,-44,9,1013,-17,31,3
1196,-189,-6,968,-14,20,2
1197,-194,4,962,-11,-3,-2
1198,-67,11,1010,-11,-26,-8
1199,108,34,1015,-10,-29,-11
1200,214,42,1009,-12,-11,-8
1201,152,35,1000,-16,16,-2
1202,-12,11,1011,-15,33,3
1203,-171,0,972,-13,25,1
1204,-208,-3,981,-12,1,-1
1205,-103,8,986,-11,-25,-7
1206,87,33,1008,-11,-31,-12
1207,208,41,1011,-13,-15,-10
1208,169,35,1010,-17,13,-2
1209,23,18,1011,-17,31,3
1210,-150,5,981,-15,30,3
1211,-211,-4,969,-14,6,0
1212,-138,4,990,-11,-21,-7
1213,58,36,1015,-10,-33,-11
1214,189,40,1005,-12,-19,-11
1215,191,32,998,-15,7,-4
1216,55,20,1012,-14,29,2
1217,-122,11,998,-16,31,4
1218,-211,-8,976,-13,10,0
1219,-165,9,969,-11,-16,-6
1220,25,29,1011,-12,-32,-10
1221,166,39,1022,-13,-22,-10
1222,204,32,1002,-16,2,-6
1223,95,29,992,-16,26,0
1224,-96,7,998,-14,32,5
1225,-207,-2,982,-13,14,1
1226,-182,4,971,-13,-10,-4
1227,-7,30,1006,-10,-30,-10
1228,144,35,1018,-14,-27,-11
1229,211,35,1001,-14,-4,-9
1230,119,29,1006,-16,22,0
1231,-61,6,1003,-16,34,4
1232,-197,0,968,-15,20,2
1233,-190,5,972,-13,-7,-3
1234,-52,19,1013,-13,-28,-9
1235,115,33,1012,-14,-28,-10
1236,219,39,1005,-14,-9,-10
1237,140,30,1003,-15,20,0
1238,-23,8,1012,-13,31,3
1239,-178,0,978,-14,23,1
1240,-205,4,965,-13,-1,-1
1241,-86,13,995,-11,-24,-7
1242,95,33,1014,-14,-31,-11
1243,207,42,1010,-14,-13,-10
1244,162,32,1005,-15,15,-2
1245,8,12,1010,-15,31,3
1246,-155,5,976,-14,26,2
1247,-208,-2,980,-13,3,-1
1248,-124,8,989,-12,-22,-9
1249,71,32,1005,-11,-29,-11
1250,196,45,1007,-12,-16,-10
1251,176,31,1007,-16,10,-3
1252,42,19,1012,-16,28,1
1253,-134,5,987,-15,31,5
1254,-209,-7,972,-10,10,0
1255,-154,5,981,-11,-17,-7
1256,41,30,1020,-12,-30,-10
1257,174,39,1013,-13,-21,-11
1258,196,34,996,-14,5,-5
1259,75,26,998,-15,27,1
1260,-106,10,1001,-16,30,4
1261,-203,-9,985,-14,12,-1
1262,-176,5,970,-11,-13,-5
1263,11,29,1002,-10,-31,-10
1264,145,33,1023,-14,-24,-11
1265,206,42,1009,-14,-2,-6
1266,106,26,996,-16,22,0
1267,-79,10,995,-15,32,3
1268,-197,-6,978,-14,18,1
1269,-184,6,974,-13,-7,-5
1270,-31,20,1012,-13,-28,-9
1271,127,32,1012,-13,-28,-11
1272,212,40,999,-15,-6,-10
1273,132,32,1008,-17,21,-1
1274,-43,9,1013,-17,32,4
1275,-183,0,967,-14,21,2
1276,-195,4,968,-13,-3,-4
1277,-72,13,1002,-11,-26,-7
1278,103,32,1017,-13,-29,-10
1279,212,43,1009,-16,-12,-10
1280,148,33,1004,-17,17,-2
1281,-6,14,1004,-14,33,2
1282,-171,2,976,-15,26,3
1283,-205,-1,982,-13,1,-1
1284,-102,5,988,-12,-24,-8
1285,80,34,1005,-11,-29,-10
1286,203,42,1015,-15,-15,-10
1287,172,30,1015,-16,13,-2
1288,24,20,1007,-16,29,2
1289,-147,9,981,-14,29,2
1290,-207,-2,973,-14,8,-1
1291,-144,5,985,-13,-18,-5
1292,58,34,1018,-12,-32,-11
1293,186,39,1009,-14,-20,-10
1294,188,30,994,-17,7,-3
1295,65,21,1007,-16,28,1
1296,-122,7,1002,-17,31,5
1297,-207,-5,973,-13,11,0
1298,-166,6,970,-9,-15,-5
1299,20,32,1009,-14,-30,-10
1300,161,34,1020,-14,-22,-11
1301,206,32,1007,-14,2,-6
1302,93,28,991,-16,26,1
1303,-88,6,996,-16,33,4
1304,-206,-5,985,-14,17,0
1305,-182,5,971,-11,-8,-5
1306,-15,25,1010,-10,-29,-9
1307,137,37,1013,-13,-25,-12
1308,212,39,1004,-14,-3,-8
1309,120,30,1005,-15,22,0
1310,-57,8,1007,-16,32,4
1311,-191,-4,970,-16,21,2
1312,-191,3,967,-12,-6,-3
1313,-56,15,1009,-13,-28,-9
1314,111,35,1019,-12,-28,-11
1315,213,45,1006,-14,-9,-8
1316,145,35,1004,-16,19,-1
1317,-24,10,1009,-15,32,3
1318,-177,0,975,-14,24,2
1319,-206,4,973,-11,-1,-2
1320,-90,9,989,-11,-26,-9
1321,89,32,1013,-11,-31,-11
1322,208,43,1012,-12,-14,-11
1323,164,32,1006,-16,14,-2
1324,10,16,1009,-16,32,2
1325,-158,4,974,-13,27,4
1326,-209,0,978,-14,4,0
1327,-126,4,989,-14,-23,-6
1328,65,34,1008,-9,-30,-10
1329,200,41,1007,-13,-17,-11
1330,181,32,1005,-16,9,-4
1331,47,20,1014,-16,28,1
1332,-134,8,987,-15,31,3
1333,-207,-4,973,-12,11,0
1334,-156,0,976,-10,-16,-6
1335,37,31,1020,-11,-33,-11
1336,175,39,1013,-13,-22,-12
1337,198,33,997,-14,5,-5
1338,84,28,998,-16,26,1
1339,-110,11,1003,-16,32,5
1340,-205,-9,983,-13,13,1
1341,-178,5,969,-11,-12,-4
1342,6,29,1005,-11,-31,-11
1343,148,34,1020,-14,-25,-12
1344,214,41,1011,-15,-4,-8
1345,108,26,998,-16,23,0
1346,-74,14,993,-16,33,4
1347,-200,-5,977,-15,18,1
1348,-192,6,974,-12,-8,-3
1349,-33,21,1012,-12,-30,-10
1350,125,31,1012,-11,-26,-11
1351,214,41,1002,-12,-6,-9
1352,136,31,1007,-26,18,-1
1353,-40,9,1014,-16,33,5
1354,-186,0,967,-16,23,2
1355,-201,5,967,-9,-2,-2
1356,-74,14,1002,-13,-28,-8
1357,99,34,1018,-12,-28,-11
1358,213,43,1011,-16,-12,-10
1359,152,31,1001,-18,16,-1
1360,0,11,1006,-13,33,2
1361,-167,1,978,-15,28,2
1362,-206,1,979,-12,1,-3
1363,-108,8,986,-11,-22,-9
1364,79,35,1006,-13,-29,-10
1365,197,43,1011,-12,-14,-11
1366,171,29,1011,-15,12,-2
1367,32,18,1007,-16,29,4
1368,-142,9,983,-14,29,3
1369,-207,-3,972,-12,7,-2
1370,-146,6,989,-11,-19,-7
1371,51,32,1014,-11,-32,-11
1372,182,42,1008,-14,-20,-10
1373,197,31,997,-15,7,-4
1374,63,23,1008,-14,28,1
1375,-116,10,998,-17,31,5
1376,-209,-6,980,-12,11,0
1377,-166,7,970,-11,-14,-5
1378,14,31,1007,-12,-31,-8
1379,165,36,1026,-13,-23,-10
1380,203,33,1005,-17,1,-5
1381,96,28,992,-15,25,0
1382,-88,8,999,-16,32,4
1383,-207,-6,981,-13,16,1
1384,-182,6,972,-11,-10,-4
1385,-16,22,1006,-10,-30,-10
1386,138,39,1017,-10,-26,-11
1387,215,37,1002,-14,-5,-8
1388,119,31,1007,-15,22,-1
1389,-55,5,1002,-17,32,5
1390,-192,-3,969,-15,21,2
1391,-197,7,967,-13,-5,-3
1392,-57,18,1013,-11,-28,-10
1393,114,37,1017,-14,-27,-12
1394,214,44,1002,-15,-9,-9
1395,144,34,1003,-17,18,-2
1396,-20,8,1011,-17,32,3
1397,-179,0,975,-13,25,3
1398,-204,1,970,-12,0,-3
1399,-89,10,992,-10,-24,-8
1400,90,37,1009,-11,-30,-11
1401,208,47,1014,-14,-14,-10
1402,162,33,1008,-18,15,-2
1403,13,15,1006,-16,31,3
1404,-155,5,975,-15,28,4
1405,-212,-3,981,-11,4,-1
1406,-127,3,985,-12,-21,-7
1407,67,32,1007,-10,-30,-10
1408,196,44,1005,-11,-18,-10
1409,180,33,1006,-17,8,-3
1410,48,25,1014,-16,28,2
1411,-135,7,987,-16,31,4
1412,-207,-6,968,-14,9,-1
1413,-156,0,980,-10,-17,-7
1414,35,32,1016,-11,-32,-10
1415,179,35,1016,-16,-22,-12
1416,198,33,997,-12,5,-6
1417,79,28,998,-16,28,1
1418,-104,11,1003,-15,32,3
1419,-210,-5,983,-15,14,0
1420,-175,10,967,-12,-11,-5
1421,7,23,1006,-12,-31,-11
1422,149,35,1019,-15,-24,-11
1423,212,31,1012,-15,-2,-7
1424,108,27,997,-13,24,0
1425,-80,10,992,-15,32,4
1426,-199,-3,977,-13,18,2
1427,-192,9,975,-14,-8,-3
1428,-31,21,1011,-13,-30,-10
1429,125,29,1015,-15,-27,-12
1430,219,37,999,-14,-7,-8
1431,133,30,1005,-13,20,-2
1432,-37,9,1017,-16,33,2
1433,-188,2,967,-13,22,2
1434,-200,6,964,-13,-4,-3
1435,-71,15,1005,-11,-27,-7
1436,98,31,1015,-14,-29,-11
1437,218,44,1011,-16,-12,-10
1438,153,28,1003,-14,17,-1
1439,-3,13,1002,-15,31,3
1440,-165,-1,979,-14,25,3
1441,-208,3,981,-12,1,-1
1442,-108,8,986,-13,-24,-7
1443,80,34,1010,-12,-31,-12
1444,202,43,1008,-12,-16,-10
1445,171,32,1012,-16,12,-3
1446,31,18,1012,-14,28,2
1447,-148,2,978,-15,28,4
1448,-210,-3,974,-12,7,-1
1449,-145,6,988,-10,-19,-8
1450,55,35,1017,-12,-33,-11
1451,189,44,1004,-16,-20,-11
1452,187,28,998,-16,8,-4
1453,64,25,1010,-16,29,1
1454,-123,6,997,-17,33,3
1455,-208,-4,975,-13,10,0
1456,-168,1,976,-12,-16,-6
1457,23,32,1005,-10,-32,-9
1458,163,35,1022,-14,-22,-10
1459,206,37,1005,-16,2,-7
1460,91,25,993,-18,25,3
1461,-88,6,995,-15,32,3
1462,-212,-7,988,-15,16,1
1463,-182,5,968,-12,-11,-4
1464,-10,24,1009,-12,-31,-9
1465,138,39,1016,-12,-26,-11
1466,214,40,1002,-14,-5,-8
1467,119,30,1005,-16,23,0
1468,-59,6,1003,-16,33,3
1469,-192,-4,971,-14,21,1
1470,-197,4,967,-12,-6,-3
1471,-50,19,1015,-11,-29,-10
1472,115,33,1012,-12,-28,-12
1473,214,42,1004,-14,-8,-10
1474,145,33,1003,-16,18,-1
1475,-27,8,1013,-15,32,3
1476,-173,0,971,-15,24,1
1477,-207,2,973,-13,0,-2
1478,-87,11,991,-9,-25,-9
1479,92,33,1014,-12,-30,-10
1480,211,41,1011,-13,-15,-10
1481,163,33,1007,-16,14,-1
1482,11,10,1007,-18,30,3
1483,-156,5,974,-12,28,2
1484,-210,-1,979,-14,3,-2
1485,-130,7,991,-11,-21,-8
1486,72,31,1006,-10,-30,-11
1487,197,40,1004,-12,-16,-10
1488,181,34,1008,-14,9,-4
1489,46,20,1014,-16,28,2
1490,-135,8,988,-16,31,3
1491,-206,-1,969,-12,9,0
1492,-156,2,983,-12,-18,-7
1493,37,32,1017,-11,-32,-9
1494,174,37,1010,-12,-22,-11
1495,200,31,1002,-16,4,-5
1496,75,28,996,-16,28,1
1497,-106,8,1002,-17,32,3
1498,-212,-6,985,-13,12,1
1499,-176,5,966,-11,-13,-5
1500,8,25,1004,-11,-31,-9
1501,150,36,1022,-14,-24,-11
1502,213,39,1010,-16,-2,-6
1503,107,27,995,-15,23,0
1504,-80,10,999,-14,32,3
1505,-198,-7,977,-13,17,1
1506,-191,6,974,-10,-7,-4
1507,-31,23,1008,-10,-31,-10
1508,126,34,1015,-13,-26,-11
1509,217,40,998,-14,-7,-9
1510,131,32,1005,-17,21,0
1511,-39,9,1017,-18,33,4
1512,-188,-5,968,-15,22,2
1513,-201,9,964,-12,-3,-4
1514,-69,11,1007,-11,-26,-9
1515,104,35,1020,-11,-29,-11
1516,216,40,1007,-16,-13,-10
1517,151,35,1005,-14,17,-1
1518,-7,11,1006,-15,32,2
1519,-171,-1,974,-15,26,3
1520,-205,-1,980,-13,2,-1
1521,-109,6,991,-10,-23,-9
1522,85,39,1004,-11,-31,-12
1523,199,41,1009,-15,-15,-11
1524,172,37,1014,-16,11,-3
1525,26,17,1011,-14,29,2
1526,-148,7,976,-17,27,2
1527,-209,-8,974,-14,6,0
1528,-140,4,989,-11,-19,-7
1529,55,31,1012,-13,-32,-12
1530,188,43,1005,-13,-19,-11
1531,189,34,998,-17,8,-3
1532,57,23,1008,-14,28,1
1533,-123,11,998,-15,31,5
1534,-206,-7,977,-14,11,1
1535,-167,6,971,-11,-14,-7
1536,21,29,1009,-13,-31,-10
1537,162,37,1022,-14,-24,-12
1538,205,34,1004,-15,2,-7
1539,95,28,992,-16,26,0
1540,-88,8,1000,-16,32,4
1541,-203,-6,982,-13,15,1
1542,-184,7,970,-13,-10,-4
1543,-8,22,1009,-11,-30,-9
1544,136,35,1015,-13,-24,-11
1545,215,38,1004,-13,-4,-8
1546,120,28,1005,-17,22,0
1547,-62,7,1005,-15,34,4
1548,-191,-2,967,-14,20,0
1549,-195,6,972,-13,-5,-3
1550,-52,15,1008,-10,-29,-9
1551,116,34,1019,-13,-28,-11
1552,217,45,999,-13,-9,-9
1553,141,34,1004,-16,18,-1
1554,-23,7,1013,-16,32,3
1555,-179,0,973,-14,23,3
1556,-203,0,968,-14,-1,-3
1557,-86,13,996,-10,-24,-9
1558,95,34,1010,-11,-30,-10
1559,209,41,1012,-12,-14,-11
1560,164,31,1010,-16,15,-2
1561,12,16,1004,-15,32,2
1562,-156,3,978,-15,28,3
1563,-210,0,979,-13,4,-1
1564,-123,6,988,-12,-23,-8
1565,69,34,1008,-10,-31,-11
1566,195,39,1005,-13,-17,-12
1567,182,31,1006,-16,10,-3
1568,45,23,1014,-17,30,2
1569,-134,6,987,-17,32,4
1570,-206,-5,972,-12,10,-1
1571,-156,3,981,-11,-16,-6
1572,37,35,1018,-13,-32,-10
1573,176,35,1011,-14,-22,-12
1574,197,37,997,-15,3,-5
1575,80,24,998,-16,27,2
1576,-107,9,1001,-16,32,5
1577,-207,-7,982,-14,12,0
1578,-173,7,970,-13,-13,-4
1579,4,28,1002,-10,-30,-11
1580,147,37,1020,-13,-24,-12
1581,210,38,1011,-16,-1,-7
1582,107,30,999,-15,23,1
1583,-73,9,995,-16,32,3
1584,-200,-4,976,-13,19,1
1585,-188,6,977,-11,-8,-5
1586,-34,21,1007,-11,-30,-11
1587,125,32,1013,-12,-26,-12
1588,215,40,1000,-15,-6,-7
1589,132,32,1005,-15,20,0
1590,-38,7,1013,-17,31,3
1591,-185,0,970,-15,22,1
1592,-198,6,961,-13,-2,-2
1593,-73,13,1004,-10,-26,-8
1594,100,35,1017,-12,-29,-11
1595,214,43,1009,-15,-13,-8
1596,154,32,1004,-16,16,-2
1597,-2,9,1004,-16,31,3
1598,-169,2,980,-14,25,3
1599,-204,0,978,-13,2,-1
1600,-108,9,988,-13,-23,-8
1601,79,38,1007,-12,-31,-11
1602,198,43,1006,-14,-15,-11
1603,171,33,1012,-18,11,-2
1604,32,15,1011,-17,29,2
1605,-141,6,979,-13,30,2
1606,-208,-10,974,-13,6,-2
1607,-147,6,984,-11,-19,-5
1608,50,34,1019,-12,-32,-10
1609,184,42,1005,-15,-21,-11
1610,192,33,998,-15,6,-4
1611,63,25,1006,-17,28,1
1612,-119,10,1002,-17,31,3
1613,-210,-10,978,-11,12,0
1614,-163,9,968,-11,-15,-5
1615,17,30,1008,-12,-31,-10
1616,164,37,1022,-13,-24,-12
1617,206,32,1008,-16,2,-5
1618,95,27,989,-15,25,1
1619,-88,8,1001,-15,31,2
1620,-207,-6,981,-13,16,0
1621,-186,7,972,-13,-10,-3
1622,-13,23,1009,-12,-32,-9
1623,133,37,1011,-13,-25,-11
1624,214,40,1000,-15,-4,-7
1625,120,28,1010,-17,22,1
1626,-56,8,1005,-16,33,3
1627,-193,-3,964,-15,20,2
1628,-195,8,969,-8,-6,-3
1629,-57,19,1010,-11,-28,-9
1630,111,33,1014,-13,-28,-12
1631,216,44,1006,-15,-9,-8
1632,145,30,1004,-16,18,-1
1633,-20,9,1006,-15,32,2
1634,-176,-2,978,-13,22,2
1635,-206,3,973,-14,0,-2
1636,-90,7,986,-11,-25,-8
1637,87,34,1015,-12,-30,-11
1638,209,46,1010,-14,-14,-10
1639,162,32,1010,-17,15,-2
1640,16,15,1006,-17,30,2
1641,-157,4,977,-16,28,4
1642,-205,-1,979,-13,5,-1
1643,-130,6,987,-14,-21,-7
1644,63,32,1009,-10,-31,-11
1645,195,41,1005,-12,-17,-10
1646,180,32,1001,-15,9,-3
1647,51,25,1012,-15,28,0
1648,-132,8,991,-18,31,4
1649,-203,-5,967,-12,10,-1
1650,-158,2,978,-10,-16,-7
1651,32,34,1016,-9,-33,-11
1652,175,39,1012,-13,-21,-12
1653,199,32,1001,-15,5,-6
1654,84,29,996,-16,26,3
1655,-104,8,1002,-15,31,4
1656,-206,-9,984,-13,12,1
1657,-178,3,969,-11,-14,-4
1658,5,29,1006,-10,-30,-10
1659,143,36,1019,-12,-24,-10
1660,211,44,1009,-14,-1,-6
1661,109,25,999,-17,22,0
1662,-72,7,996,-15,33,5
1663,-200,-8,972,-16,19,2
1664,-192,2,977,-13,-7,-4
1665,-38,18,1009,-11,-30,-8
1666,125,34,1015,-13,-28,-12
1667,220,45,1001,-13,-6,-8
1668,131,34,1004,-17,21,1
1669,-38,7,1013,-17,33,4
1670,-183,-2,971,-15,23,3
1671,-198,2,965,-13,-2,-2
1672,-75,9,999,-11,-26,-9
1673,104,34,1022,-12,-29,-12
1674,211,44,1006,-16,-12,-9
1675,152,32,1005,-15,15,-1
1676,-4,14,1004,-16,32,3
1677,-166,4,976,-16,28,4
1678,-203,-3,979,-13,1,-2
1679,-108,7,991,-10,-25,-9
1680,77,33,1005,-11,-31,-10
1681,202,44,1008,-13,-15,-10
1682,171,34,1014,-15,12,-1
1683,33,19,1010,-15,29,2
1684,-147,11,979,-15,29,4
1685,-208,-3,974,-14,8,-1
1686,-144,1,985,-10,-18,-6
1687,52,31,1018,-11,-32,-11
1688,184,40,1007,-15,-20,-11
1689,189,34,998,-15,6,-3
1690,65,25,1006,-18,25,-1
1691,-123,10,1002,-24,33,5
1692,-208,-7,976,-9,12,0
1693,-169,3,970,-16,-14,-5
1694,17,31,1006,-7,-32,-10
1695,165,37,1024,-15,-23,-12
1696,208,33,1009,-16,2,-6
1697,94,32,988,-12,26,2
1698,-88,9,1001,-16,31,3
1699,-213,-7,981,-13,15,1
1700,-182,3,970,-13,-10,-5
1701,-15,21,1009,-12,-32,-10
1702,137,34,1016,-9,-26,-11
1703,218,42,1001,-15,-6,-8
1704,119,32,1007,-16,23,0
1705,-58,11,1005,-16,33,4
1706,-194,-6,967,-15,20,1
1707,-197,6,968,-11,-5,-2
1708,-53,14,1010,-12,-28,-8
1709,115,34,1020,-12,-27,-11
1710,219,44,1003,-15,-11,-8
1711,143,35,1001,-18,19,-1
1712,-22,10,1012,-16,33,2
1713,-178,-1,972,-16,24,2
1714,-210,2,972,-12,0,-2
1715,-88,9,991,-10,-26,-8
1716,92,33,1014,-14,-31,-10
1717,212,46,1009,-13,-14,-9
1718,161,35,1012,-16,15,0
1719,10,17,1007,-17,32,3
1720,-158,4,975,-16,27,3
1721,-210,-6,977,-12,5,-2
1722,-130,3,989,-12,-21,-7
1723,72,34,1009,-11,-32,-11
1724,196,43,1008,-13,-17,-10
1725,183,36,1002,-14,9,-3
1726,46,24,1017,-16,29,2
1727,-136,6,985,-18,30,3
1728,-207,-7,973,-14,9,-1
1729,-155,2,978,-11,-17,-6
1730,31,34,1015,-10,-33,-10
1731,181,37,1014,-14,-23,-13
1732,195,30,998,-16,5,-5
1733,80,30,996,-16,27,2
1734,-105,8,1003,-15,32,4
1735,-210,-5,983,-14,13,-1
1736,-177,5,968,-9,-13,-4
1737,6,26,1005,-10,-30,-10
1738,147,32,1021,-13,-24,-11
1739,211,38,1008,-16,-2,-7
1740,110,26,998,-16,23,-1
1741,-77,9,996,-15,33,3
1742,-201,-8,973,-12,17,0
1743,-191,6,978,-10,-7,-3
1744,-33,21,1006,-11,-31,-9
1745,125,35,1015,-13,-28,-12
1746,216,43,997,-14,-5,-8
1747,128,32,1007,-17,22,-1
1748,-40,7,1015,-17,32,3
1749,-190,-4,967,-14,23,1
1750,-195,3,966,-11,-4,-3
1751,-75,11,1003,-11,-27,-8
1752,103,35,1021,-12,-28,-11
1753,215,43,1006,-15,-12,-9
1754,149,36,1002,-18,17,-1
1755,-4,10,1005,-15,32,2
1756,-173,0,976,-15,26,3
1757,-205,-2,977,-13,2,-2
1758,-104,6,990,-10,-26,-7
1759,82,32,1005,-12,-31,-10
1760,204,42,1012,-14,-15,-11
1761,169,32,1012,-17,12,-3
1762,26,19,1011,-17,30,1
1763,-144,6,975,-15,28,3
1764,-209,-2,971,-12,5,0
1765,-140,11,986,-12,-20,-8
1766,53,30,1018,-12,-32,-11
1767,189,37,1002,-15,-20,-10
1768,188,28,998,-16,6,-4
1769,57,24,1009,-15,27,1
1770,-122,10,1000,-14,30,3
1771,-207,-5,975,-13,11,-1
1772,-166,7,970,-10,-15,-6
1773,24,33,1014,-13,-33,-10
1774,161,36,1021,-15,-23,-12
1775,204,29,1000,-16,2,-5
1776,94,25,997,-17,25,1
1777,-92,11,994,-14,32,5
1778,-206,-4,987,-13,15,1
1779,-183,7,974,-13,-11,-4
1780,-11,26,1004,-11,-30,-10
1781,140,33,1014,-13,-25,-12
1782,210,36,1007,-14,-3,-8
1783,121,29,1003,-17,22,1
1784,-61,4,1002,-17,33,5
1785,-195,-1,967,-13,21,3
1786,-193,4,972,-11,-5,-3
1787,-51,21,1012,-10,-29,-10
1788,115,34,1015,-12,-28,-11
1789,219,41,1004,-13,-8,-8
1790,140,29,1004,-15,19,0
1791,-25,9,1008,-15,31,3
1792,-179,-3,978,-17,22,3
1793,-204,5,965,-12,-1,-2
1794,-85,11,995,-9,-24,-8
1795,93,33,1016,-13,-30,-10
1796,211,42,1010,-15,-14,-9
1797,163,34,1006,-15,15,-2
1798,13,13,1008,-15,31,3
1799,-159,3,978,-14,28,3
1800,-211,-3,981,-13,3,-1
1801,-125,6,988,-12,-22,-8
1802,72,33,1006,-9,-31,-11
1803,198,44,1004,-12,-17,-10
1804,181,36,1010,-17,9,-3
1805,41,17,1014,-16,28,2
1806,-135,7,982,-15,30,2
1807,-207,-7,973,-12,10,-2
1808,-156,8,983,-9,-17,-7
1809,39,29,1018,-10,-31,-10
1810,179,43,1010,-13,-22,-12
1811,196,34,995,-15,4,-4
1812,77,27,1002,-15,27,0
1813,-113,9,1003,-16,32,3
1814,-209,-6,981,-14,11,1
1815,-175,3,969,-11,-14,-4
1816,10,28,1005,-9,-31,-9
1817,156,37,1022,-14,-25,-11
1818,213,37,1012,-16,-2,-6
1819,104,31,993,-14,23,0
1820,-77,9,995,-16,33,3
1821,-204,-6,982,-14,17,1
1822,-190,6,972,-12,-8,-4
1823,-22,21,1009,-11,-29,-10
1824,130,32,1015,-12,-26,-11
1825,217,40,999,-13,-4,-8
1826,131,30,1008,-16,23,1
1827,-51,8,1011,-16,33,4
1828,-191,0,965,-14,20,2
1829,-201,5,968,-11,-4,-2
1830,-65,17,1004,-11,-29,-8
1831,109,33,1020,-14,-29,-12
1832,220,43,1008,-15,-11,-9
1833,153,33,1002,-16,18,-2
1834,-10,7,1008,-17,32,3
1835,-175,0,978,-15,26,2
1836,-205,3,972,-13,1,-2
1837,-102,8,991,-11,-25,-9
1838,86,36,1009,-11,-33,-11
1839,205,43,1013,-14,-15,-11
1840,168,33,1011,-15,14,-3
1841,24,16,1008,-15,30,3
1842,-150,7,976,-15,28,4
1843,-211,-5,973,-12,6,-2
1844,-137,2,990,-12,-21,-8
1845,59,33,1011,-13,-31,-10
1846,195,42,1005,-12,-19,-12
1847,189,34,1002,-14,7,-4
1848,53,23,1014,-15,29,1
1849,-132,10,991,-15,31,5
1850,-208,-9,973,-13,9,0
1851,-163,3,974,-11,-16,-5
1852,28,30,1014,-14,-32,-9
1853,172,40,1019,-12,-24,-12
1854,202,32,1001,-15,2,-4
1855,90,28,992,-16,26,2
1856,-96,6,1003,-16,31,3
1857,-209,-7,985,-13,14,1
1858,-179,5,969,-11,-12,-4
1859,-2,24,1007,-11,-30,-10
1860,143,35,1017,-14,-25,-11
1861,212,36,1008,-16,-3,-7
1862,113,31,999,-16,23,0
1863,-67,10,1001,-17,33,5
1864,-198,0,970,-12,19,3
1865,-192,5,975,-11,-7,-4
1866,-45,23,1009,-12,-30,-8
1867,122,33,1015,-14,-28,-13
1868,217,40,999,-13,-7,-9
1869,138,32,1008,-16,20,0
1870,-33,7,1012,-16,32,4
1871,-185,-4,974,-14,22,2
1872,-200,5,963,-13,-2,-2
1873,-80,10,999,-10,-26,-9
1874,98,33,1019,-14,-30,-11
1875,214,43,1012,-14,-12,-9
1876,158,32,1001,-16,16,-2
1877,0,13,1005,-16,32,3
1878,-165,4,979,-16,26,1
1879,-209,0,982,-13,2,-2
1880,-113,8,984,-11,-24,-7
1881,76,37,1007,-13,-32,-11
1882,199,43,1013,-14,-17,-11
1883,174,30,1009,-16,12,-3
1884,33,18,1011,-17,29,3
1885,-143,4,983,-15,28,5
1886,-205,-3,970,-13,7,0
1887,-143,0,987,-13,-18,-7
1888,51,35,1017,-9,-32,-11
1889,184,40,1003,-13,-19,-11
1890,191,33,1000,-14,6,-5
1891,60,24,1006,-16,27,1
1892,-118,9,999,-15,31,5
1893,-207,-11,977,-16,12,0
1894,-169,5,969,-11,-14,-5
1895,23,27,1009,-9,-31,-10
1896,162,37,1020,-13,-22,-10
1897,204,36,1003,-14,3,-6
1898,98,29,994,-14,26,-1
1899,-94,10,997,-14,33,4
1900,-203,-5,982,-15,15,1
1901,-185,4,976,-13,-10,-4
1902,-13,24,1005,-11,-30,-9
1903,139,35,1016,-12,-26,-12
1904,213,39,1007,-15,-6,-7
1905,120,32,1001,-16,21,1
1906,-56,7,1005,-16,33,4
1907,-196,-5,970,-15,21,1
1908,-196,6,970,-13,-5,-2
1909,-51,16,1009,-12,-29,-10
1910,113,33,1016,-15,-28,-10
1911,217,42,1000,-13,-8,-8
1912,145,33,1008,-17,20,-1
1913,-28,8,1011,-15,32,4
1914,-182,-2,971,-14,23,2
1915,-205,1,973,-11,-2,-3
1916,-90,10,990,-10,-25,-10
1917,96,35,1018,-13,-30,-12
1918,213,42,1008,-15,-15,-11
1919,160,34,1005,-14,15,-1
1920,13,14,1005,-17,31,3
1921,-164,2,975,-15,27,3
1922,-207,0,980,-12,3,-2
1923,-127,3,989,-13,-21,-8
1924,73,33,1002,-10,-31,-13
1925,202,39,1010,-14,-17,-10
1926,179,32,1008,-16,9,-4
1927,42,20,1015,-16,28,1
1928,-140,8,985,-16,30,4
1929,-207,-1,967,-13,9,-1
1930,-155,2,982,-12,-19,-7
1931,43,34,1018,-13,-33,-10
1932,180,35,1010,-13,-22,-10
1933,198,32,994,-14,5,-5
1934,74,22,1003,-16,27,2
1935,-113,12,1002,-16,31,5
1936,-204,-7,982,-15,12,-1
1937,-175,9,968,-11,-12,-4
1938,10,28,1002,-12,-32,-9
1939,157,35,1024,-15,-24,-12
1940,209,33,1007,-15,-1,-6
1941,103,25,992,-16,24,1
1942,-77,8,996,-14,33,4
1943,-205,-7,982,-13,17,0
1944,-187,10,971,-12,-8,-4
1945,-24,20,1011,-9,-30,-10
1946,131,41,1013,-12,-27,-12
1947,214,39,1000,-15,-6,-9
1948,129,33,1006,-16,21,-1
1949,-52,6,1008,-17,33,5
1950,-187,-4,971,-12,20,1
1951,-198,2,964,-12,-4,-3
1952,-64,16,1008,-10,-28,-9
1953,112,33,1018,-13,-28,-11
1954,216,44,1004,-15,-9,-9
1955,150,35,1002,-17,17,0
1956,-18,15,1012,-15,32,3
1957,-176,0,976,-14,24,2
1958,-209,0,974,-12,0,-3
1959,-98,10,988,-11,-25,-8
1960,87,31,1014,-11,-30,-10
1961,212,43,1012,-13,-14,-10
1962,170,34,1007,-17,14,-2
1963,19,17,1008,-16,32,1
1964,-158,4,977,-14,28,3
1965,-214,-1,975,-11,6,-1
1966,-134,-1,991,-12,-21,-8
1967,64,34,1009,-8,-31,-12
1968,196,41,1005,-12,-18,-12
1969,185,35,1005,-15,8,-3
1970,48,24,1013,-15,28,0
1971,-134,11,990,-16,30,3
1972,-209,-6,968,-12,10,2
1973,-160,3,976,-10,-16,-6
1974,36,29,1020,-13,-33,-10
1975,178,37,1012,-15,-22,-13
1976,199,32,997,-14,4,-5
1977,84,29,1000,-17,27,2
1978,-107,8,1002,-15,33,5
1979,-207,-6,984,-11,13,1
1980,-181,6,970,-13,-13,-5
1981,5,24,1003,-10,-32,-10
1982,151,34,1021,-15,-24,-11
1983,214,37,1010,-15,-2,-6
1984,109,32,1000,-15,23,1
1985,-74,10,997,-16,33,4
1986,-202,-3,979,-14,19,2
1987,-191,3,973,-14,-8,-3
1988,-32,19,1013,-13,-30,-9
1989,130,34,1010,-13,-27,-11
1990,219,41,998,-14,-5,-7
1991,133,34,1009,-15,21,0
1992,-46,7,1011,-18,33,4
1993,-191,-3,969,-14,21,2
1994,-202,1,963,-12,-3,-1
1995,-71,15,1005,-11,-28,-8
1996,108,32,1019,-12,-29,-11
1997,215,46,1009,-16,-11,-9
1998,156,35,1001,-16,17,-2
1999,-13,8,1009,-15,33,3
2000,-174,1,977,-15,24,4
2001,-209,0,976,-13,1,-2
2002,-103,8,989,-13,-26,-8
2003,89,34,1010,-13,-32,-11
2004,204,42,1014,-12,-15,-12
2005,170,34,1010,-15,12,-3
2006,26,17,1009,-15,30,2
2007,-153,9,974,-13,29,4
2008,-210,-6,978,-12,5,-2
2009,-134,7,987,-11,-21,-7
2010,56,30,1010,-12,-31,-11
2011,193,42,1006,-13,-19,-11
2012,188,30,1002,-15,9,-3
2013,53,27,1010,-16,29,2
2014,-124,9,992,-16,29,4
2015,-208,-5,974,-14,10,1
2016,-164,4,971,-12,-16,-6
2017,29,30,1017,-12,-32,-10
2018,170,36,1015,-13,-22,-12
2019,204,35,998,-14,4,-6
2020,86,29,996,-17,26,2
2021,-100,11,1003,-16,33,5
2022,-206,-6,983,-15,13,0
2023,-179,3,967,-13,-11,-4
2024,-1,23,1004,-11,-30,-10
2025,149,34,1020,-13,-26,-11
2026,212,38,1010,-17,-3,-6
2027,116,29,996,-16,22,0
2028,-73,7,1001,-14,33,4
2029,-195,-3,973,-16,17,1
2030,-197,6,976,-11,-6,-3
2031,-36,22,1006,-12,-29,-9
2032,123,33,1019,-13,-26,-11
2033,218,43,995,-13,-3,-6
2034,133,29,1007,-28,17,0
2035,-37,8,1014,-17,32,3
2036,-187,-3,970,-14,22,3
2037,-199,6,962,-11,-3,-3
2038,-79,13,1004,-10,-26,-9
2039,104,35,1017,-13,-30,-11
2040,212,42,1009,-15,-12,-9
2041,158,32,1003,-15,16,-1
2042,-1,9,1007,-15,33,3
2043,-169,4,977,-15,26,2
2044,-209,0,979,-12,1,-2
2045,-111,12,989,-12,-24,-8
2046,82,34,1006,-11,-31,-11
2047,204,46,1012,-13,-16,-11
2048,172,31,1009,-16,12,-3
2049,34,19,1012,-15,28,2
2050,-145,2,977,-16,30,2
2051,-210,-2,973,-14,8,0
2052,-138,1,984,-10,-19,-7
2053,52,32,1017,-10,-32,-10
2054,189,43,1002,-13,-20,-11
2055,191,30,1002,-15,6,-4
2056,63,24,1009,-16,28,2
2057,-126,9,999,-16,33,4
2058,-206,-3,974,-14,10,-2
2059,-169,0,974,-10,-16,-5
2060,25,33,1011,-10,-31,-10
2061,167,36,1019,-14,-22,-12
2062,208,31,1001,-15,1,-6
2063,92,31,992,-16,25,2
2064,-95,12,1001,-14,32,3
2065,-208,-7,984,-14,15,0
2066,-183,9,969,-11,-10,-4
2067,-8,24,1006,-12,-31,-9
2068,144,33,1017,-13,-26,-11
2069,215,39,1009,-16,-4,-6
2070,119,29,1002,-16,23,0
2071,-64,10,999,-14,33,5
2072,-197,-9,976,-16,20,2
2073,-198,8,969,-12,-6,-1
2074,-46,14,1012,-12,-30,-9
2075,122,36,1015,-12,-29,-12
2076,218,42,1002,-14,-8,-9
2077,141,37,1005,-15,20,-2
2078,-36,6,1013,-16,32,4
2079,-182,0,967,-13,22,2
2080,-208,-2,967,-15,-2,-3
2081,-80,14,997,-10,-26,-8
2082,96,29,1020,-14,-30,-11
2083,214,47,1010,-14,-14,-10
2084,159,32,1003,-17,15,-2
2085,6,15,1006,-17,32,1
2086,-168,0,979,-15,28,4
2087,-210,0,978,-13,3,-1
2088,-119,0,989,-11,-23,-7
2089,78,36,1006,-9,-32,-11
2090,203,39,1012,-13,-16,-11
2091,178,34,1007,-14,12,-4
2092,37,18,1013,-18,30,3
2093,-142,9,981,-14,29,4
2094,-212,-6,973,-11,8,0
2095,-146,5,983,-11,-19,-8
2096,43,33,1018,-12,-32,-9
2097,189,39,1004,-15,-22,-11
2098,194,33,1001,-16,5,-5
2099,65,25,1007,-17,27,2
2100,-118,8,1002,-17,32,4
2101,-206,-7,979,-13,11,0
2102,-169,2,965,-11,-15,-5
2103,22,33,1012,-12,-32,-11
2104,163,36,1024,-13,-21,-12
2105,204,34,998,-15,2,-6
2106,92,27,991,-17,25,2
2107,-91,9,1002,-15,33,3
2108,-208,-9,983,-16,17,1
2109,-181,5,969,-11,-11,-6
2110,-8,24,1010,-12,-31,-9
2111,142,36,1012,-12,-26,-11
2112,214,38,1008,-15,-4,-8
2113,124,31,1002,-16,22,0
2114,-64,5,1001,-16,34,4
2115,-197,-2,970,-14,21,1
2116,-200,6,972,-13,-6,-4
2117,-47,18,1010,-12,-30,-10
2118,121,32,1016,-13,-29,-11
2119,222,44,1004,-14,-9,-9
2120,142,33,1003,-18,19,-1
2121,-27,8,1015,-18,32,3
2122,-184,-1,974,-16,22,3
2123,-204,1,963,-13,-1,-3
2124,-86,9,999,-10,-24,-9
2125,96,33,1016,-11,-29,-11
2126,213,42,1012,-13,-13,-10
2127,159,34,1004,-15,15,-1
2128,5,14,1006,-15,32,3
2129,-165,6,977,-16,28,2
2130,-214,-1,979,-12,3,-1
2131,-121,6,986,-12,-24,-8
2132,78,31,1005,-11,-32,-10
2133,200,41,1012,-12,-16,-10
2134,178,30,1008,-14,11,-3
2135,40,19,1015,-17,30,2
2136,-144,12,979,-15,30,4
2137,-214,-5,973,-12,8,-1
2138,-146,3,985,-11,-19,-7
2139,45,33,1014,-11,-32,-10
2140,192,41,1010,-15,-22,-12
2141,193,31,997,-15,7,-2
2142,68,23,1002,-15,29,2
2143,-116,9,1005,-17,32,5
2144,-213,-6,978,-13,12,2
2145,-166,3,966,-11,-16,-4
2146,16,30,1012,-10,-31,-10
2147,164,39,1022,-14,-23,-11
2148,210,33,1002,-16,1,-5
2149,97,28,991,-14,25,1
2150,-92,6,1003,-16,34,5
2151,-207,-7,986,-16,16,0
2152,-191,4,964,-12,-9,-3
2153,-10,25,1008,-10,-31,-11
2154,141,35,1018,-12,-26,-11
2155,216,42,1002,-13,-3,-7
2156,126,31,1005,-16,23,-1
2157,-66,10,1003,-16,34,4
2158,-197,-5,967,-14,18,2
2159,-197,0,975,-12,-7,-4
2160,-51,16,1007,-10,-30,-8
2161,123,32,1016,-11,-29,-12
2162,221,43,1002,-15,-10,-8
2163,142,36,1003,-17,19,1
2164,-31,9,1014,-15,33,4
2165,-185,-1,974,-13,24,2
2166,-205,5,961,-12,0,-1
2167,-84,9,1001,-12,-27,-9
2168,100,33,1017,-13,-31,-11
2169,214,39,1009,-17,-14,-9
2170,160,35,1005,-15,15,-1
2171,4,11,1007,-16,33,2
2172,-167,5,977,-15,27,2
2173,-210,-2,980,-12,2,-1
2174,-116,9,988,-12,-23,-9
2175,75,33,1003,-11,-31,-12
2176,203,43,1009,-12,-16,-10
2177,179,30,1015,-17,11,-2
2178,34,21,1012,-17,29,2
2179,-142,8,980,-16,29,4
2180,-211,-6,972,-12,8,0
2181,-148,4,986,-12,-18,-6
2182,51,33,1017,-10,-31,-11
2183,187,41,1009,-14,-21,-13
2184,196,33,995,-15,7,-4
2185,65,25,1008,-15,29,1
2186,-122,11,1002,-14,32,3
2187,-210,-6,974,-13,11,0
2188,-169,2,970,-11,-15,-6
2189,17,30,1008,-11,-32,-10
2190,167,38,1023,-14,-25,-11
2191,206,35,1002,-15,1,-4
2192,97,28,992,-15,25,1
2193,-90,10,1003,-17,32,3
2194,-212,-8,983,-16,16,1
2195,-181,6,970,-11,-11,-5
2196,-11,23,1009,-12,-31,-8
2197,139,36,1014,-12,-26,-11
2198,218,38,1007,-15,-4,-7
2199,119,32,1002,-16,23,-1
2200,-61,9,998,-18,33,4
2201,-196,-6,977,-12,21,2
2202,-200,4,968,-12,-6,-2
2203,-45,21,1011,-12,-31,-10
2204,118,33,1018,-14,-28,-11
2205,217,43,999,-15,-10,-7
2206,145,33,1005,-16,18,-2
2207,-31,10,1016,-16,33,4
2208,-180,2,970,-15,24,2
2209,-204,-1,966,-14,-1,-2
2210,-85,13,996,-12,-25,-7
2211,98,30,1020,-11,-30,-11
2212,215,43,1007,-13,-14,-10
2213,157,32,1007,-17,14,0
2214,6,16,1005,-14,31,3
2215,-166,4,980,-15,27,4
2216,-210,2,979,-14,3,0
2217,-117,5,987,-11,-24,-8
2218,77,33,1005,-12,-31,-11
2219,204,40,1009,-11,-17,-10
2220,180,32,1010,-17,10,-3
2221,33,19,1010,-16,30,2
2222,-144,8,980,-13,30,4
2223,-217,-2,971,-13,8,0
2224,-145,7,985,-11,-20,-7
2225,51,32,1013,-12,-32,-11
2226,189,39,1006,-13,-21,-11
2227,195,30,998,-14,7,-3
2228,62,26,1008,-13,27,1
2229,-119,9,999,-16,32,5
2230,-212,-2,978,-15,11,1
2231,-167,6,971,-13,-16,-4
2232,22,29,1013,-11,-33,-11
2233,168,36,1019,-15,-23,-11
2234,206,29,1004,-16,2,-6
2235,99,27,993,-13,25,1
2236,-96,9,1000,-16,32,5
2237,-207,-6,986,-15,15,1
2238,-187,4,972,-13,-11,-3
2239,-9,25,1002,-11,-31,-11
2240,145,37,1023,-13,-26,-13
2241,214,36,1005,-16,-4,-6
2242,120,29,1002,-15,23,1
2243,-64,7,1001,-17,34,5
2244,-201,-4,970,-12,20,0
2245,-191,4,972,-13,-7,-3
2246,-45,21,1009,-12,-29,-8
2247,124,35,1015,-12,-28,-12
2248,223,42,1000,-13,-9,-8
2249,137,34,1005,-16,21,0
2250,-34,8,1016,-16,34,4
2251,-185,-3,971,-14,23,2
2252,-206,4,961,-11,-2,-2
2253,-80,15,1004,-12,-29,-9
2254,100,34,1019,-12,-31,-11
2255,217,42,1007,-14,-12,-9
2256,161,36,1006,-16,16,0
2257,0,14,1009,-14,33,3
2258,-168,2,976,-15,27,2
2259,-213,-3,978,-11,3,-1
2260,-115,9,988,-10,-24,-7
2261,76,30,1006,-12,-31,-11
2262,208,44,1011,-13,-18,-11
2263,178,32,1011,-18,11,-1
2264,36,19,1010,-16,30,2
2265,-142,2,982,-16,31,3
2266,-213,-4,970,-10,7,0
2267,-147,3,986,-12,-19,-6
2268,52,34,1014,-11,-31,-12
2269,188,42,1004,-16,-20,-10
2270,196,33,998,-16,5,-4
2271,62,24,1012,-17,27,2
2272,-117,10,996,-16,32,4
2273,-212,-9,975,-12,12,1
2274,-167,4,972,-11,-15,-6
2275,20,29,1015,-12,-33,-10
2276,172,35,1016,-11,-23,-12
2277,206,34,1002,-14,2,-4
2278,97,29,994,-16,26,1
2279,-97,10,1003,-16,33,4
2280,-208,-5,988,-13,15,0
2281,-187,2,967,-12,-10,-5
2282,-7,25,1002,-8,-31,-10
2283,144,38,1024,-14,-27,-11
2284,218,39,1007,-17,-5,-7
2285,120,30,999,-17,23,1
2286,-64,10,999,-17,34,4
2287,-199,-6,974,-15,20,2
2288,-198,3,971,-12,-7,-3
2289,-47,16,1010,-9,-30,-9
2290,119,35,1015,-12,-27,-12
2291,221,44,1000,-14,-7,-8
2292,140,32,1003,-17,19,0
2293,-34,8,1019,-17,33,3
2294,-187,-5,969,-13,22,2
2295,-204,3,960,-11,-1,-2
2296,-79,14,1005,-11,-26,-8
2297,100,34,1017,-12,-29,-11
2298,219,44,1009,-16,-12,-11
2299,158,35,1001,-16,16,-1
2300,-1,16,1005,-13,31,3
2301,-169,1,980,-16,26,3
2302,-214,-2,976,-12,1,-1
2303,-110,6,988,-12,-24,-8
2304,82,30,1011,-11,-30,-11
2305,206,43,1008,-12,-17,-11
2306,176,33,1011,-15,11,-4
2307,30,19,1009,-15,29,3
2308,-148,6,982,-15,29,4
2309,-211,-4,971,-13,7,-1
2310,-146,-1,987,-13,-19,-7
2311,56,35,1013,-13,-32,-11
2312,190,41,1007,-14,-20,-12
2313,191,30,1001,-15,6,-3
2314,61,26,1013,-15,28,1
2315,-124,10,994,-15,32,4
2316,-211,-6,975,-15,11,1
2317,-170,2,973,-11,-15,-6
2318,25,30,1014,-13,-32,-11
2319,169,35,1018,-13,-22,-11
2320,205,35,999,-15,3,-5
2321,93,27,997,-15,26,1
2322,-100,14,1002,-14,33,4
2323,-211,-8,982,-15,15,1
2324,-183,5,967,-12,-11,-5
2325,-6,25,1003,-11,-30,-10
2326,146,38,1018,-13,-25,-12
2327,214,36,1012,-15,-2,-6
2328,117,33,996,-16,22,1
2329,-66,4,997,-16,34,4
2330,-199,-2,974,-15,20,1
2331,-196,5,975,-13,-7,-4
2332,-40,22,1008,-13,-30,-10
2333,119,32,1017,-13,-27,-12
2334,219,41,995,-12,-8,-8
2335,139,33,1010,-16,20,-1
2336,-36,10,1013,-15,33,5
2337,-184,-2,972,-14,23,1
2338,-201,0,959,-12,-2,-2
2339,-82,13,1004,-11,-26,-8
2340,102,31,1019,-12,-29,-12
2341,215,46,1009,-15,-12,-9
2342,158,41,1000,-15,16,0
2343,-1,12,1011,-17,32,2
2344,-172,3,974,-14,27,3
2345,-210,-1,979,-13,2,-2
2346,-110,8,988,-12,-24,-9
2347,80,32,1007,-12,-31,-11
2348,207,42,1008,-14,-16,-11
2349,172,32,1012,-15,12,-2
2350,33,16,1012,-16,29,3
2351,-149,7,978,-14,30,3
2352,-210,-3,971,-13,6,-2
2353,-142,4,989,-12,-20,-7
2354,52,34,1012,-13,-32,-10
2355,191,39,1002,-14,-21,-11
2356,195,27,1002,-14,6,-4
2357,55,21,1009,-16,28,2
2358,-123,10,996,-16,31,4
2359,-210,-7,976,-15,10,-1
2360,-167,0,969,-11,-15,-6
2361,25,31,1013,-10,-32,-11
2362,170,38,1020,-14,-22,-11
2363,200,33,1000,-15,2,-4
2364,91,30,997,-16,26,1
2365,-100,10,1001,-16,33,3
2366,-207,-5,983,-16,14,0
2367,-182,3,971,-17,-8,-3
2368,-3,28,1003,-11,-31,-9
2369,146,36,1022,-13,-25,-11
2370,214,38,1008,-17,-4,-6
2371,117,31,999,-18,23,1
2372,-69,9,998,-13,33,4
2373,-197,-5,975,-14,19,2
2374,-194,2,973,-10,-6,-3
2375,-43,19,1008,-12,-30,-10
2376,123,33,1013,-12,-29,-12
2377,220,42,1004,-11,-6,-10
2378,137,30,999,-14,19,0
2379,-35,12,1016,-14,33,3
2380,-186,0,970,-13,23,1
2381,-206,6,966,-11,-1,-2
2382,-77,8,1002,-8,-27,-10
2383,98,33,1021,-13,-31,-12
2384,222,43,1008,-15,-14,-10
2385,157,35,1003,-16,17,-1
2386,0,12,1007,-19,32,3
2387,-170,1,977,-14,27,2
2388,-213,4,977,-13,2,-2
2389,-107,10,988,-13,-24,-8
2390,77,35,1008,-11,-30,-10
2391,204,42,1009,-14,-16,-11
2392,175,29,1014,-18,13,-2
2393,30,18,1010,-16,30,3
2394,-146,4,978,-21,27,4
2395,-213,-6,974,-11,6,-1
2396,-143,3,985,-11,-19,-7
2397,56,34,1014,-10,-31,-11
2398,188,41,1006,-11,-19,-11
2399,192,34,999,-17,7,-4
2400,62,23,1013,-17,29,1
2401,-125,9,995,-16,32,5
2402,-209,-6,974,-13,12,0
2403,-168,1,975,-10,-15,-6
2404,24,33,1013,-10,-32,-10
2405,171,36,1016,-14,-24,-13
2406,206,35,1002,-13,2,-5
2407,95,31,995,-18,26,2
2408,-93,9,999,-15,34,4
2409,-209,-6,984,-14,15,1
2410,-188,-1,965,-8,-11,-4
2411,-5,25,1005,-5,-31,-10
2412,147,35,1020,-13,-24,-11
2413,213,38,1008,-15,-3,-6
2414,122,33,1000,-16,23,1
2415,-66,8,1002,-17,35,4
2416,-202,-2,971,-14,20,1
2417,-196,3,973,-11,-6,-3
2418,-44,16,1011,-11,-30,-8
2419,123,31,1013,-11,-29,-10
2420,221,44,1000,-14,-7,-9
2421,140,34,1006,-17,20,-1
2422,-33,9,1012,-15,33,3
2423,-185,-2,972,-15,22,2
2424,-203,1,964,-14,-1,-1
2425,-79,12,999,-11,-26,-8
2426,98,33,1023,-12,-30,-10
2427,215,43,1008,-14,-12,-9
2428,158,37,1001,-16,16,-1
2429,0,13,1007,-15,31,3
2430,-169,0,979,-15,27,3
2431,-208,-1,976,-14,1,-1
2432,-113,5,987,-13,-24,-8
2433,82,35,1008,-12,-32,-11
2434,205,41,1010,-13,-16,-11
2435,174,38,1011,-14,12,-3
2436,30,16,1008,-18,30,2
2437,-149,7,981,-16,29,3
2438,-215,-5,971,-11,7,-1
2439,-144,5,989,-11,-19,-6
2440,53,32,1014,-15,-32,-10
2441,192,40,1002,-14,-21,-11
2442,192,32,1002,-17,7,-4
2443,62,21,1012,-16,29,2
2444,-123,9,995,-17,31,4
2445,-211,-5,975,-11,12,0
2446,-166,2,969,-11,-15,-6
2447,24,31,1013,-11,-32,-10
2448,170,36,1017,-14,-22,-11
2449,203,30,1001,-14,2,-5
2450,95,25,995,-15,26,1
2451,-94,8,1000,-15,33,4
2452,-210,-8,987,-14,15,0
2453,-186,5,966,-12,-13,-5
2454,-9,25,1003,-10,-31,-10
2455,145,38,1020,-15,-26,-12
2456,216,37,1010,-15,-3,-7
2457,119,29,995,-15,23,0
2458,-66,10,1003,-16,33,5
2459,-200,-4,971,-14,19,1
2460,-200,5,973,-14,-7,-3
2461,-41,17,1008,-13,-32,-9
2462,119,34,1017,-12,-29,-12
2463,225,47,999,-14,-9,-8
2464,141,34,1004,-17,20,0
2465,-36,11,1016,-17,33,5
2466,-187,-2,971,-14,23,2
2467,-205,4,963,-14,-2,-2
2468,-79,10,1002,-10,-27,-8
2469,100,31,1018,-13,-29,-10
2470,218,40,1012,-15,-13,-9
2471,162,33,1001,-14,17,-1
2472,0,13,1008,-16,32,3
2473,-171,2,976,-14,29,4
2474,-211,0,979,-13,3,-1
2475,-115,5,985,-12,-24,-8
2476,78,34,1004,-10,-32,-10
2477,209,41,1011,-13,-17,-11
2478,181,30,1010,-17,13,-3
2479,34,19,1010,-15,30,2
2480,-147,10,982,-14,30,4
2481,-216,-2,970,-12,6,0
2482,-146,4,989,-11,-20,-6
2483,52,33,1011,-12,-32,-9
2484,190,38,1008,-14,-20,-11
2485,201,32,1001,-16,5,-4
2486,62,26,1012,-15,29,2
2487,-122,11,995,-15,32,3
2488,-214,-7,976,-14,12,0
2489,-167,6,972,-11,-16,-5
2490,22,28,1011,-11,-32,-11
2491,173,42,1017,-11,-23,-13
2492,207,33,1000,-16,2,-6
2493,95,32,993,-15,26,0
2494,-97,8,1000,-16,32,3
2495,-211,-7,986,-15,14,0
2496,-187,4,967,-13,-11,-2
2497,-4,23,1006,-11,-32,-10
2498,146,36,1021,-13,-26,-11
2499,217,40,1006,-14,-4,-7
2500,120,31,1003,-15,22,0
2501,-72,7,1001,-14,34,5
2502,-199,-5,970,-14,19,1
2503,-201,1,975,-13,-6,-3
2504,-41,21,1008,-13,-30,-10
2505,121,29,1016,-13,-28,-11
2506,222,45,997,-13,-8,-8
2507,141,30,1007,-19,19,-1
2508,-36,7,1013,-16,32,3
2509,-185,-2,971,-15,22,3
2510,-206,2,964,-14,-3,-1
2511,-76,14,1003,-10,-27,-9
2512,101,34,1016,-11,-31,-11
2513,218,42,1010,-13,-14,-10
2514,157,32,1005,-16,16,0
2515,3,15,1007,-14,32,2
2516,-172,3,979,-16,26,4
2517,-209,2,979,-13,2,-1
2518,-113,7,986,-14,-23,-7
2519,79,36,1007,-12,-32,-12
2520,206,40,1012,-14,-16,-11
2521,174,34,1011,-17,13,-2
2522,32,14,1007,-17,31,3
2523,-149,7,981,-14,29,3
2524,-215,-3,971,-13,8,-1
2525,-144,3,985,-11,-21,-7
2526,52,34,1015,-13,-32,-10
2527,193,42,1003,-13,-21,-11
2528,194,31,1002,-17,6,-5
2529,63,21,1011,-17,28,1
2530,-121,9,997,-15,31,5
2531,-209,-9,974,-13,11,1
2532,-168,2,971,-11,-15,-6
2533,21,32,1019,-12,-33,-9
2534,168,39,1016,-12,-24,-11
2535,205,34,998,-14,1,-6
2536,94,30,996,-16,26,2
2537,-94,7,1002,-15,33,4
2538,-207,-6,986,-15,14,1
2539,-188,2,966,-14,-11,-4
2540,-2,24,1004,-10,-30,-10
2541,145,36,1020,-13,-26,-12
2542,212,40,1008,-15,-4,-7
2543,122,27,1001,-15,23,0
2544,-73,9,998,-16,35,6
2545,-199,-3,972,-14,19,1
2546,-197,2,979,-13,-6,-3
2547,-42,21,1005,-11,-30,-9
2548,125,30,1015,-13,-28,-11
2549,220,41,1000,-16,-7,-8
2550,137,31,1005,-15,21,0
2551,-32,11,1016,-15,33,1
2552,-190,-3,971,-16,23,2
2553,-204,2,961,-13,-1,-3
2554,-77,10,1005,-13,-27,-8
2555,100,36,1018,-11,-29,-12
2556,218,44,1009,-12,-13,-10
2557,159,36,1003,-17,17,-2
2558,-1,13,1005,-16,32,4
2559,-171,1,980,-15,27,1
2560,-212,0,975,-14,2,-1
2561,-112,8,987,-13,-24,-8
2562,84,34,1009,-12,-31,-10
2563,206,43,1013,-14,-15,-10
2564,175,34,1008,-16,12,-3
2565,27,16,1012,-17,29,2
2566,-145,7,978,-14,28,4
2567,-213,-2,974,-12,7,-2
2568,-138,4,990,-10,-21,-7
2569,54,30,1014,-11,-30,-11
2570,193,40,1002,-12,-19,-11
2571,192,29,1002,-15,6,-4
2572,60,28,1013,-14,29,2
2573,-129,11,997,-16,32,4
2574,-207,-3,971,-14,10,0
2575,-167,3,975,-11,-16,-6
2576,27,30,1015,-13,-32,-11
2577,169,36,1016,-14,-23,-10
2578,207,30,998,-16,3,-5
2579,90,24,998,-16,27,0
2580,-101,11,1001,-15,34,2
2581,-210,-5,985,-14,13,1
2582,-184,4,967,-11,-11,-5
2583,-1,25,1003,-9,-30,-10
2584,146,35,1020,-14,-25,-11
2585,215,38,1010,-15,-3,-6
2586,117,27,1000,-18,23,0
2587,-70,9,996,-16,34,3
2588,-204,-8,978,-14,18,1
2589,-194,6,974,-12,-7,-4
2590,-39,18,1009,-11,-30,-9
2591,126,37,1012,-13,-26,-12
2592,221,39,1002,-16,-6,-7
2593,138,35,1002,-15,19,0
2594,-37,5,1015,-18,33,4
2595,-188,-2,969,-14,23,2
2596,-204,2,964,-11,-3,-1
2597,-72,15,1002,-11,-27,-9
2598,98,33,1021,-13,-28,-10
2599,224,44,1006,-12,-12,-11
2600,156,36,1005,-16,17,-2
2601,-1,12,1008,-16,32,2
2602,-176,-1,980,-16,26,3
2603,-213,0,974,-13,2,-2
2604,-109,7,987,-11,-25,-7
2605,82,35,1011,-12,-32,-11
2606,208,44,1012,-15,-16,-9
2607,174,36,1009,-18,13,-3
2608,30,15,1011,-15,31,2
2609,-151,5,977,-13,30,4
2610,-212,-3,973,-12,5,-1
2611,-139,6,990,-12,-21,-7
2612,57,36,1009,-12,-32,-10
2613,197,40,1005,-15,-20,-11
2614,192,31,1002,-15,8,-4
2615,53,22,1010,-16,28,3
2616,-128,8,993,-16,31,4
2617,-214,-9,971,-14,11,0
2618,-165,6,975,-10,-16,-5
2619,30,31,1020,-10,-32,-10
2620,174,38,1016,-15,-22,-11
2621,205,31,998,-15,4,-5
2622,87,25,998,-14,27,0
2623,-103,9,1001,-15,33,5
2624,-208,-6,985,-13,14,0
2625,-184,3,966,-11,-12,-4
2626,2,29,1006,-11,-31,-9
2627,149,32,1019,-13,-24,-11
2628,213,36,1010,-16,-2,-7
2629,115,30,995,-16,23,1
2630,-71,8,1000,-14,35,4
2631,-202,-6,975,-15,19,2
2632,-196,4,975,-12,-7,-3
2633,-36,20,1011,-13,-31,-8
2634,124,35,1015,-13,-28,-12
2635,218,39,1000,-14,-6,-8
2636,133,34,1006,-16,21,0
2637,-39,6,1013,-16,33,4
2638,-189,-2,969,-14,23,2
2639,-200,6,963,-12,-3,-2
2640,-72,15,1007,-11,-27,-9
2641,102,37,1018,-12,-29,-10
2642,219,42,1006,-15,-11,-9
2643,155,34,1004,-16,17,-1
2644,-8,9,1006,-15,32,4
2645,-172,0,980,-16,26,3
2646,-210,0,974,-13,2,-1
2647,-107,7,986,-11,-25,-8
2648,85,32,1012,-10,-32,-12
2649,203,45,1009,-13,-14,-10
2650,174,34,1010,-17,14,-3
2651,26,19,1014,-17,30,2
2652,-153,5,976,-15,29,3
2653,-211,-7,973,-12,5,-1
2654,-138,1,994,-9,-21,-7
2655,59,34,1004,-12,-33,-11
2656,195,38,1007,-15,-18,-12
2657,191,34,1004,-16,8,-3
2658,55,25,1012,-16,29,2
2659,-129,9,993,-17,32,4
2660,-211,-7,972,-15,10,0
2661,-163,1,977,-11,-16,-6
2662,27,29,1015,-11,-32,-10
2663,175,38,1015,-13,-22,-14
2664,205,33,999,-13,4,-6
2665,88,31,997,-16,28,2
2666,-102,8,1004,-17,32,5
2667,-212,-4,980,-13,15,1
2668,-185,1,970,-11,-12,-4
2669,0,26,1001,-10,-32,-10
2670,148,34,1022,-12,-25,-11
2671,219,35,1007,-15,-3,-8
2672,113,33,1000,-15,25,2
2673,-70,10,992,-16,34,5
2674,-202,-6,981,-14,20,2
2675,-196,3,972,-11,-7,-3
2676,-36,21,1007,-12,-30,-9
2677,127,35,1015,-12,-28,-12
2678,221,44,1000,-13,-7,-8
2679,135,36,1006,-17,21,1
2680,-42,9,1012,-16,32,3
2681,-189,-2,970,-16,21,1
2682,-204,3,961,-13,-4,-3
2683,-70,13,1008,-12,-28,-9
2684,108,32,1019,-14,-30,-12
2685,216,41,1006,-13,-11,-8
2686,159,34,1001,-16,17,-2
2687,-10,11,1008,-16,33,3
2688,-173,1,975,-15,27,2
2689,-213,0,974,-13,2,-2
2690,-104,6,986,-10,-24,-8
2691,83,32,1010,-10,-31,-12
2692,213,45,1014,-12,-16,-11
2693,170,33,1009,-14,14,-2
2694,25,18,1008,-16,32,2
2695,-154,6,981,-13,30,4
2696,-216,-2,975,-14,6,-2
2697,-137,3,987,-14,-22,-7
2698,58,32,1011,-11,-31,-10
2699,199,41,1007,-15,-19,-10
2700,192,32,1004,-16,8,-3
2701,53,26,1013,0,28,0
2702,-130,9,993,-18,29,5
2703,-212,-4,969,-8,10,0
2704,-163,2,974,-12,-16,-7
2705,36,36,1022,-14,-33,-11
2706,177,36,1011,-10,-22,-11
2707,204,30,998,-18,4,-5
2708,86,25,1000,-15,27,0
2709,-110,11,1002,-14,33,3
2710,-211,-6,984,-16,13,1
2711,-181,5,966,-9,-13,-5
2712,2,26,1004,-10,-32,-10
2713,153,36,1021,-13,-25,-11
2714,214,36,1011,-15,-2,-6
2715,111,27,996,-18,24,1
2716,-76,8,997,-16,34,5
2717,-203,-7,979,-14,18,0
2718,-196,7,975,-13,-8,-3
2719,-30,20,1008,-11,-31,-9
2720,132,35,1015,-14,-28,-12
2721,223,40,999,-15,-7,-7
2722,136,28,1006,-17,21,-1
2723,-43,10,1011,-16,32,4
2724,-191,-1,969,-13,21,1
2725,-205,5,964,-12,-2,-4
2726,-70,14,1006,-10,-27,-9
2727,106,36,1017,-12,-29,-11
2728,220,44,1007,-15,-12,-9
2729,156,35,1002,-17,17,-1
2730,-11,10,1010,-17,33,4
2731,-172,0,980,-16,25,1
2732,-215,-4,969,-12,2,-1
2733,-101,9,988,-9,-25,-9
2734,87,32,1015,-13,-32,-12
2735,211,45,1009,-12,-16,-11
2736,170,34,1010,-14,14,-3
2737,25,19,1007,-16,30,3
2738,-156,3,977,-13,29,3
2739,-211,-1,976,-11,5,-1
2740,-137,0,990,-12,-21,-6
2741,62,34,1006,-10,-31,-11
2742,197,38,1006,-11,-18,-10
2743,188,35,1005,-16,9,-3
2744,50,23,1014,-16,29,1
2745,-130,11,988,-15,31,3
2746,-213,-4,970,-13,11,1
2747,-162,1,979,-13,-17,-6
2748,34,28,1020,-13,-32,-11
2749,177,35,1011,-12,-23,-13
2750,205,31,1000,-15,3,-5
2751,82,29,997,-15,27,2
2752,-108,12,1005,-16,32,4
2753,-208,-6,983,-16,13,0
2754,-180,4,964,-13,-12,-5
2755,7,25,1005,-12,-32,-11
2756,152,34,1026,-14,-25,-13
2757,215,34,1006,-16,-2,-7
2758,111,28,993,-16,23,1
2759,-77,12,997,-16,34,5
2760,-204,-4,983,-14,19,0
2761,-196,5,970,-13,-9,-3
2762,-29,19,1006,-10,-30,-10
2763,133,33,1018,-15,-28,-12
2764,220,41,1000,-13,-6,-6
2765,131,31,1005,-16,22,0
2766,-48,5,1012,-18,33,4
2767,-195,-1,967,-14,22,2
2768,-202,4,965,-12,-4,-2
2769,-66,15,1010,-12,-29,-9
2770,109,36,1016,-13,-29,-10
2771,224,43,1004,-16,-11,-11
2772,151,35,1003,-15,17,-2
2773,-12,11,1009,-13,32,4
2774,-176,-2,979,-17,24,3
2775,-214,3,966,-12,2,-2
2776,-98,8,993,-10,-25,-8
2777,88,34,1016,-12,-31,-12
2778,212,40,1011,-13,-14,-10
2779,170,32,1011,-16,13,-2
2780,16,17,1006,-16,33,3
2781,-156,4,975,-16,28,2
2782,-216,-2,984,-14,4,0
2783,-129,5,983,-12,-22,-8
2784,69,31,1007,-12,-32,-11
2785,200,44,1011,-13,-18,-10
2786,185,33,1002,-15,10,-2
2787,48,21,1018,-16,28,2
2788,-136,10,985,-16,31,5
2789,-213,-7,971,-12,9,1
2790,-151,4,981,-11,-18,-7
2791,35,29,1017,-12,-33,-11
2792,184,43,1010,-14,-23,-12
2793,202,27,997,-16,4,-5
2794,76,29,1004,-13,27,2
2795,-113,8,1002,-16,31,4
2796,-208,-7,981,-14,13,0
2797,-178,2,962,-10,-12,-5
2798,10,27,1015,-9,-30,-10
2799,160,36,1019,-14,-24,-12
2800,214,34,1007,-13,0,-6
2801,108,31,993,-15,25,1
2802,-87,11,998,-15,33,4
2803,-204,-6,985,-16,18,1
2804,-195,3,970,-13,-8,-3
2805,-22,23,1006,-11,-30,-11
2806,139,30,1018,-13,-27,-12
2807,217,42,1006,-14,-5,-6
2808,130,32,1002,-16,22,0
2809,-57,10,1007,-18,34,4
2810,-196,-2,968,-13,21,1
2811,-201,5,968,-12,-5,-4
2812,-56,16,1007,-14,-29,-9
2813,114,33,1016,-12,-28,-11
2814,221,42,1004,-15,-9,-9
2815,145,35,1001,-16,19,0
2816,-20,11,1018,-17,33,3
2817,-179,-4,972,-16,24,2
2818,-208,8,967,-12,0,-1
2819,-86,11,994,-13,-26,-8
2820,93,34,1019,-12,-30,-11
2821,216,44,1008,-15,-14,-9
2822,163,35,1005,-15,15,-2
2823,11,11,1009,-15,32,3
2824,-165,2,977,-15,28,3
2825,-213,0,979,-13,4,-1
2826,-122,5,989,-13,-22,-6
2827,73,33,1006,-12,-30,-11
2828,201,41,1008,-12,-16,-12
2829,178,33,1013,-15,11,-3
2830,41,20,1015,-17,29,2
2831,-141,8,978,-16,29,3
2832,-213,-4,971,-12,10,-2
2833,-151,1,986,-13,-19,-6
2834,45,31,1012,-11,-33,-11
2835,191,39,1008,-13,-20,-10
2836,199,32,999,-16,6,-4
2837,72,27,1006,-15,28,1
2838,-119,10,1001,-16,31,4
2839,-213,-5,974,-13,12,0
2840,-172,2,967,-11,-14,-6
2841,19,29,1013,-10,-34,-10
2842,168,36,1018,-14,-25,-12
2843,213,30,1000,-17,2,-7
2844,97,29,992,-17,26,1
2845,-91,11,1004,-15,34,5
2846,-207,-7,983,-15,17,1
2847,-191,4,966,-13,-10,-2
2848,-9,22,1004,-10,-32,-11
2849,144,36,1019,-13,-26,-12
2850,218,39,1010,-16,-3,-7
2851,123,31,1002,-15,24,0
2852,-65,7,998,-16,34,4
2853,-198,-4,977,-14,20,2
2854,-204,5,970,-12,-5,-3
2855,-42,22,1009,-13,-30,-9
2856,120,31,1015,-15,-28,-11
2857,221,44,1000,-12,-7,-9
2858,143,31,1005,-14,20,-1
2859,-34,7,1016,-18,32,3
2860,-185,-3,971,-14,22,3
2861,-207,2,964,-11,-2,-1
2862,-80,13,1005,-11,-26,-9
2863,102,34,1018,-12,-30,-12
2864,218,44,1009,-16,-12,-9
2865,161,36,1001,-17,16,-1
2866,-4,12,1008,-14,32,3
2867,-171,1,979,-15,26,3
2868,-211,0,974,-12,2,-1
2869,-109,6,988,-12,-25,-8
2870,84,35,1010,-11,-34,-11
2871,207,42,1010,-15,-16,-10
2872,174,37,1010,-16,13,-3
2873,28,15,1012,-16,31,3
2874,-150,6,979,-13,29,4
2875,-216,-4,974,-14,6,0
2876,-137,3,991,-12,-21,-7
2877,55,34,1004,-12,-32,-10
2878,199,42,1007,-15,-19,-12
2879,191,31,1007,-15,8,-5
2880,53,23,1011,-16,29,3
2881,-129,9,988,-17,31,5
2882,-211,-9,971,-14,11,0
2883,-165,3,977,-12,-16,-5
2884,32,31,1019,-11,-33,-11
2885,179,41,1013,-13,-22,-11
2886,205,31,994,-16,4,-6
2887,85,28,1003,-16,27,2
2888,-106,11,1003,-15,34,6
2889,-208,-7,979,-15,14,1
2890,-182,3,969,-11,-12,-6
2891,2,25,1003,-11,-31,-10
2892,154,37,1024,-12,-26,-12
2893,217,36,1007,-14,-2,-6
2894,112,31,995,-17,24,1
2895,-78,12,996,-17,32,4
2896,-206,-7,983,-14,18,1
2897,-196,1,970,-12,-8,-5
2898,-29,21,1008,-11,-31,-9
2899,137,34,1012,-11,-29,-12
2900,219,39,1007,-14,-6,-8
2901,135,33,1004,-14,21,-2
2902,-54,9,1005,-17,35,3
2903,-191,0,972,-12,22,2
2904,-208,4,965,-15,-4,-3
2905,-60,19,1007,-11,-30,-9
2906,113,29,1017,-14,-29,-12
2907,221,43,1002,-15,-11,-9
2908,153,34,1002,-16,18,0
2909,-21,11,1018,-17,32,4
2910,-180,1,974,-13,24,2
2911,-214,-1,963,-13,-1,-2
2912,-91,9,995,-11,-26,-8
2913,90,30,1019,-12,-30,-10
2914,217,46,1008,-13,-13,-11
2915,167,36,1007,-17,15,-1
2916,14,13,1008,-18,31,4
2917,-169,3,977,-14,28,4
2918,-215,-1,983,-14,3,-1
2919,-122,3,985,-13,-22,-7
2920,69,34,1005,-13,-31,-11
2921,208,41,1012,-15,-18,-11
2922,182,37,1012,-17,11,-2
2923,43,22,1010,-17,30,3
2924,-142,5,984,-15,30,3
2925,-216,-2,970,-12,8,0
2926,-151,-1,986,-12,-19,-6
2927,46,33,1015,-11,-33,-11
2928,193,39,1003,-13,-21,-11
2929,201,31,1000,-14,6,-5
2930,70,25,1012,-15,28,3
2931,-120,12,1000,-15,33,5
2932,-214,-7,971,-14,13,0
2933,-174,0,967,-11,-14,-6
2934,20,29,1018,-10,-31,-10
2935,170,37,1014,-13,-23,-12
2936,211,34,1000,-15,2,-6
2937,100,30,996,-14,26,1
2938,-96,13,1003,-17,32,5
2939,-206,-8,982,-15,16,0
2940,-193,4,966,-12,-10,-4
2941,-8,21,1004,-11,-31,-10
2942,146,32,1023,-14,-24,-12
2943,217,42,1009,-15,-4,-7
2944,121,33,998,-15,23,0
2945,-65,12,1002,-17,33,4
2946,-201,-7,972,-15,20,3
2947,-203,3,972,-11,-6,-3
2948,-41,16,1011,-13,-31,-10
2949,121,33,1010,-11,-29,-12
2950,223,42,999,-15,-9,-9
2951,144,31,1008,-16,19,0
2952,-38,12,1012,-15,34,4
2953,-187,-2,970,-16,23,2
2954,-210,5,963,-11,-2,-3
2955,-77,12,1005,-12,-27,-9
2956,101,32,1018,-13,-30,-11
2957,219,43,1008,-16,-13,-10
2958,160,32,1001,-16,16,-1
2959,-8,14,1010,-14,33,3
2960,-173,0,978,-14,26,3
2961,-213,0,975,-13,3,-1
2962,-104,6,985,-12,-24,-9
2963,84,33,1013,-14,-31,-12
2964,211,44,1014,-13,-16,-11
2965,173,31,1008,-15,13,-2
2966,29,16,1007,-15,30,2
2967,-154,6,981,-16,29,3
2968,-214,-1,975,-13,6,0
2969,-137,0,986,-12,-20,-7
2970,58,32,1005,-12,-32,-11
2971,199,44,1009,-12,-20,-12
2972,190,33,1007,-17,7,-4
2973,55,24,1015,-15,28,3
2974,-131,7,989,-16,31,4
2975,-216,-9,970,-14,12,0
2976,-161,2,980,-11,-17,-7
2977,33,31,1019,-13,-33,-11
2978,181,41,1011,-13,-23,-12
2979,204,32,998,-14,4,-6
2980,81,24,1000,-17,27,0
2981,-107,9,1009,-15,33,4
2982,-208,-8,979,-16,12,0
2983,-180,4,967,-12,-14,-6
2984,7,26,1007,-12,-33,-11
2985,156,39,1023,-14,-24,-13
2986,214,33,1006,-17,0,-7
2987,110,30,994,-16,24,0
2988,-81,7,997,-17,32,4
2989,-207,-8,982,-15,17,2
2990,-194,7,972,-13,-8,-4
2991,-23,21,1006,-13,-31,-10
2992,134,36,1014,-13,-25,-13
2993,219,38,1006,-15,-5,-8
2994,130,35,1004,-16,21,0
2995,-52,5,1005,-16,34,4
2996,-196,-2,968,-14,21,2
2997,-201,1,969,-13,-6,-4
2998,-59,13,1009,-11,-29,-11
2999,112,34,1014,-13,-29,-11
3000,227,43,1003,-13,-10,-9
3001,144,36,1003,-16,18,1
3002,-19,8,1014,-17,32,5
3003,-183,0,975,-16,25,3
3004,-212,2,961,-12,0,-2
3005,-89,7,999,-10,-27,-9
3006,93,33,1016,-10,-30,-12
3007,215,44,1011,-14,-14,-9
3008,168,36,1006,-16,13,-1
3009,6,14,1004,-15,32,4
3010,-165,5,978,-14,28,3
3011,-218,-5,983,-13,3,-1
3012,-120,4,981,-11,-23,-8
3013,72,31,1006,-13,-32,-12
3014,205,44,1013,-13,-17,-11
3015,182,33,1010,-15,12,-2
3016,40,20,1011,-16,30,2
3017,-145,7,982,-14,30,3
3018,-214,-2,970,-13,8,0
3019,-150,1,986,-13,-20,-6
3020,48,32,1015,-12,-34,-10
3021,191,40,1006,-14,-20,-11
3022,197,32,1000,-16,7,-4
3023,67,24,1011,-14,29,2
3024,-122,11,998,-15,32,4
3025,-211,-6,972,-14,11,-1
3026,-174,5,972,-13,-16,-5
3027,20,29,1012,-12,-32,-10
3028,169,36,1018,-14,-24,-11
3029,209,33,1001,-16,2,-6
3030,95,29,993,-15,26,1
3031,-95,13,1004,-15,32,4
3032,-210,-7,985,-16,15,1
3033,-190,5,964,-13,-9,-4
3034,-5,24,1005,-10,-31,-11
3035,146,31,1019,-14,-25,-12
3036,219,37,1011,-14,-3,-8
3037,122,28,995,-15,23,-1
3038,-69,6,999,-16,34,4
3039,-198,-3,975,-18,19,2
3040,-201,5,972,-7,-4,-2
3041,-38,23,1008,-25,-28,-6
3042,120,29,1016,-14,-28,-11
3043,224,44,997,-11,-8,-8
3044,140,29,1008,-17,22,0
3045,-41,10,1015,-17,32,5
3046,-185,-2,968,-14,22,2
3047,-206,4,966,-13,-3,-3
3048,-78,14,1003,-10,-26,-8
3049,105,33,1020,-9,-28,-12
3050,217,45,1007,-15,-11,-10
3051,160,31,1001,-16,17,-3
3052,-5,10,1010,-14,33,2
3053,-173,-1,978,-14,26,2
3054,-213,1,972,-12,2,-3
3055,-103,8,990,-12,-26,-8
3056,85,35,1010,-12,-31,-11
3057,209,47,1014,-14,-16,-11
3058,176,32,1008,-17,13,-1
3059,20,16,1011,-18,31,3
3060,-149,4,975,-15,29,2
3061,-219,-5,981,-13,6,-1
3062,-137,2,983,-9,-21,-7
3063,60,31,1007,-11,-32,-11
3064,202,43,1006,-11,-18,-12
3065,188,35,1009,-15,9,-3
3066,57,26,1013,-16,29,1
3067,-135,6,987,-16,32,3
3068,-214,-5,970,-14,10,0
3069,-162,-2,981,-11,-17,-6
3070,33,29,1019,-12,-34,-9
3071,182,39,1009,-15,-23,-11
3072,207,34,998,-14,5,-6
3073,84,29,1004,-15,28,1
3074,-114,13,1002,-15,33,4
3075,-209,-7,982,-15,13,0
3076,-184,3,964,-13,-12,-4
3077,5,29,1007,-10,-33,-10
3078,158,32,1024,-15,-25,-12
3079,217,33,1009,-14,-1,-7
3080,113,30,993,-14,25,1
3081,-81,10,1000,-16,34,5
3082,-206,-5,982,-13,18,1
3083,-196,7,969,-12,-8,-3
3084,-26,21,1006,-12,-32,-10
3085,133,34,1015,-12,-27,-11
3086,222,39,1005,-15,-6,-8
3087,134,30,1005,-17,21,0
3088,-52,10,1007,-15,34,4
3089,-195,-2,970,-14,22,2
3090,-206,4,967,-13,-2,-3
3091,-59,14,1009,-13,-29,-10
3092,114,36,1017,-10,-30,-12
3093,221,41,1002,-13,-11,-10
3094,154,34,1007,-15,19,-2
3095,-24,11,1013,-16,32,3
3096,-178,-1,972,-15,23,2
3097,-208,1,966,-11,0,-2
3098,-91,11,994,-10,-27,-9
3099,90,32,1016,-12,-30,-11
3100,217,45,1013,-15,-15,-10
3101,167,35,1004,-16,15,-2
3102,12,15,1005,-15,33,4
3103,-165,3,978,-15,29,4
3104,-215,-2,980,-13,3,-1
3105,-121,2,989,-14,-23,-7
3106,72,32,1003,-12,-32,-12
3107,204,43,1010,-13,-17,-11
3108,183,37,1017,-15,10,-3
3109,43,20,1009,-17,30,3
3110,-147,8,984,-14,31,3
3111,-214,-7,970,-14,8,0
3112,-156,1,983,-12,-19,-6
3113,47,29,1014,-12,-32,-10
3114,188,39,1009,-15,-21,-11
3115,199,33,997,-13,6,-4
3116,67,27,1011,-16,29,1
3117,-120,13,1002,-15,33,4
3118,-212,-8,974,-14,11,1
3119,-172,3,968,-11,-15,-5
3120,18,28,1016,-12,-33,-10
3121,169,35,1018,-12,-24,-11
3122,212,31,1000,-14,3,-5
3123,99,30,994,-14,27,1
3124,-94,10,1002,-16,35,4
3125,-211,-4,985,-15,16,1
3126,-189,5,966,-12,-10,-5
3127,-10,26,1004,-10,-32,-11
3128,144,33,1019,-11,-26,-13
3129,217,36,1009,-14,-5,-8
3130,121,28,998,-17,23,0
3131,-66,10,1000,-15,35,3
3132,-199,-4,975,-14,19,1
3133,-204,6,971,-11,-6,-3
3134,-43,20,1012,-10,-30,-9
3135,117,33,1013,-14,-28,-11
3136,224,43,997,-14,-9,-8
3137,142,31,1009,-17,20,0
3138,-34,10,1009,-17,33,4
3139,-184,-6,973,-14,23,2
3140,-205,6,966,-12,-2,-2
3141,-79,14,998,-10,-26,-9
3142,100,34,1019,-11,-30,-12
3143,219,44,1012,-15,-12,-10
3144,157,34,1000,-16,17,-1
3145,0,9,1008,-17,32,3
3146,-172,-4,980,-14,25,3
3147,-216,1,973,-11,2,-2
3148,-106,4,988,-10,-24,-9
3149,79,33,1011,-9,-31,-11
3150,210,42,1010,-13,-17,-11
3151,174,34,1009,-15,12,-2
3152,27,16,1011,-16,30,3
3153,-150,6,978,-15,29,3
3154,-215,-3,975,-13,6,-2
3155,-141,5,984,-11,-20,-7
3156,59,29,1009,-11,-32,-11
3157,196,42,1006,-14,-20,-11
3158,192,30,1004,-17,9,-5
3159,57,26,1015,-16,29,2
3160,-132,8,992,-17,32,4
3161,-212,-5,968,-14,10,0
3162,-169,-1,977,-12,-15,-5
3163,33,31,1021,-10,-33,-10
3164,176,40,1010,-14,-22,-11
3165,206,36,996,-13,4,-6
3166,89,29,1003,-16,28,2
3167,-108,12,1002,-16,33,3
3168,-206,-8,981,-14,13,-1
3169,-188,5,966,-11,-12,-5
3170,3,25,1003,-11,-32,-10
3171,152,34,1021,-14,-26,-12
3172,216,36,1009,-14,-2,-8
3173,117,27,995,-17,23,1
3174,-77,10,999,-16,33,5
3175,-205,-4,980,-12,19,1
3176,-196,9,972,-11,-8,-4
3177,-27,20,1009,-11,-31,-10
3178,131,36,1010,-12,-28,-11
3179,219,37,1002,-16,-6,-8
3180,135,33,1009,-15,20,-1
3181,-49,9,1006,-16,34,3
3182,-189,-2,968,-13,22,0
3183,-203,7,969,-10,-3,-2
3184,-64,14,1008,-11,-27,-8
3185,108,31,1017,-12,-29,-11
3186,221,43,1006,-14,-11,-8
3187,153,34,1004,-15,18,-1
3188,-14,13,1012,-14,32,3
3189,-181,-3,976,-15,24,2
3190,-209,4,968,-11,1,-2
3191,-94,9,992,-12,-25,-8
3192,92,34,1016,-12,-30,-11
3193,211,43,1011,-16,-16,-10
3194,169,37,1007,-16,14,-2
3195,16,13,1006,-16,32,3
3196,-165,3,980,-14,27,3
3197,-213,-1,978,-13,2,0
3198,-124,4,985,-13,-23,-7
3199,70,35,1009,-11,-32,-11
3200,202,42,1008,-15,-18,-11
3201,183,34,1012,-17,10,-3
3202,45,17,1011,-16,29,3
3203,-140,10,984,-13,30,3
3204,-211,-8,970,-12,9,-2
3205,-154,4,985,-12,-18,-7
3206,44,30,1017,-9,-32,-12
3207,186,41,1006,-13,-21,-11
3208,202,32,999,-16,7,-5
3209,69,26,1007,-14,29,1
3210,-118,13,1001,-16,33,2
3211,-212,-8,976,-14,11,-1
3212,-175,4,967,-11,-15,-5
3213,17,26,1012,-13,-33,-11
3214,164,40,1021,-13,-23,-11
3215,211,30,1000,-15,0,-6
3216,101,32,994,-15,25,3
3217,-90,9,999,-14,32,5
3218,-210,-7,986,-14,15,0
3219,-189,2,967,-12,-10,-5
3220,-12,26,1003,-10,-31,-10
3221,146,39,1021,-15,-27,-11
3222,218,37,1009,-14,-4,-8
3223,125,32,998,-18,24,1
3224,-63,8,999,-17,34,5
3225,-201,-4,973,-14,20,1
3226,-197,5,974,-12,-7,-4
3227,-46,18,1008,-12,-31,-9
3228,122,33,1014,-12,-29,-12
3229,221,41,1001,-14,-9,-8
3230,142,34,1003,-17,18,0
3231,-34,10,1015,-15,33,4
3232,-187,-3,974,-14,22,2
3233,-209,4,963,-11,-2,-2
3234,-77,12,1000,-11,-28,-8
3235,101,33,1023,-14,-30,-11
3236,219,45,1003,-14,-13,-9
3237,157,33,1003,-16,16,-1
3238,0,15,1006,-15,34,3
3239,-174,1,980,-15,28,4
3240,-209,2,972,-13,2,-2
3241,-112,3,991,-13,-24,-8
3242,80,35,1006,-12,-32,-11
3243,207,40,1015,-13,-16,-11
3244,175,31,1007,-16,13,-3
3245,30,17,1014,-15,30,3
3246,-146,10,977,-16,30,4
3247,-219,-1,976,-11,7,-1
3248,-140,3,987,-12,-20,-7
3249,50,30,1011,-12,-31,-10
3250,199,42,1003,-13,-21,-10
3251,196,28,1006,-15,7,-3
3252,60,24,1012,-15,29,2
3253,-129,9,992,-16,33,5
3254,-214,-5,972,-14,12,0
3255,-169,4,975,-11,-15,-5
3256,29,32,1017,-11,-32,-10
3257,175,36,1014,-13,-23,-12
3258,207,30,999,-13,3,-5
3259,91,29,995,-16,27,1
3260,-103,11,1005,-15,34,4
3261,-210,-5,984,-15,14,0
3262,-189,2,964,-14,-12,-5
3263,-1,27,1002,-11,-32,-10
3264,151,35,1024,-12,-26,-12
3265,218,36,1010,-15,-2,-8
3266,120,29,996,-15,23,0
3267,-72,10,998,-15,35,4
3268,-204,-6,979,-15,19,0
3269,-199,4,972,-12,-7,-4
3270,-34,18,1009,-12,-31,-9
3271,124,33,1014,-14,-28,-11
3272,223,42,999,-13,-8,-9
3273,137,33,1010,-14,20,-1
3274,-41,8,1009,-18,33,4
3275,-190,-3,972,-14,24,2
3276,-206,6,960,-12,-3,-2
3277,-73,15,1005,-12,-28,-9
3278,104,31,1020,-12,-30,-11
3279,221,40,1007,-15,-11,-10
3280,158,33,1000,-14,18,-1
3281,-13,11,1012,-15,34,4
3282,-172,1,977,-18,26,3
3283,-212,0,971,-12,2,-1
3284,-105,9,986,-12,-25,-8
3285,83,35,1015,-13,-32,-11
3286,208,45,1011,-15,-15,-11
3287,171,34,1008,-15,14,-2
3288,25,13,1010,-17,32,2
3289,-154,9,974,-16,30,4
3290,-214,-5,977,-14,5,-1
3291,-135,1,987,-12,-19,-7
3292,57,33,1006,-11,-32,-11
3293,198,44,1006,-13,-20,-11
3294,188,35,1007,-17,8,-4
3295,53,24,1010,-17,28,2
3296,-132,9,993,-16,31,4
3297,-210,-6,967,-13,11,0
3298,-166,1,979,-8,-15,-5
3299,37,28,1016,-12,-33,-10
3300,176,40,1014,-12,-22,-10
3301,204,33,993,-14,4,-5
3302,83,27,1004,-15,27,1
3303,-110,10,1001,-16,32,4
3304,-213,-4,983,-15,13,2
3305,-177,7,967,-11,-12,-6
3306,0,31,1004,-10,-32,-11
3307,157,36,1022,-16,-25,-12
3308,210,33,1010,-16,-1,-6
3309,111,29,994,-17,23,1
3310,-77,6,995,-15,33,4
3311,-200,-7,982,-13,19,1
3312,-195,4,973,-12,-7,-3
3313,-29,24,1009,-11,-30,-9
3314,129,35,1014,-12,-27,-11
3315,218,41,998,-13,-6,-8
3316,133,30,1008,-17,21,0
3317,-46,9,1009,-18,33,4
3318,-191,-5,969,-14,22,3
3319,-200,3,964,-11,-3,-3
3320,-67,14,1008,-12,-26,-9
3321,108,36,1018,-12,-29,-13
3322,218,43,1007,-14,-11,-8
3323,151,34,1001,-17,17,-1
3324,-13,10,1011,-16,32,3
3325,-174,0,978,-14,25,3
3326,-211,1,970,-14,3,-1
3327,-96,8,991,-11,-24,-8
3328,85,34,1012,-13,-31,-12
3329,211,45,1011,-15,-15,-11
3330,171,33,1010,-16,15,-3
3331,21,16,1007,-16,31,3
3332,-155,4,979,-16,28,3
3333,-212,-2,977,-11,5,-1
3334,-133,2,985,-14,-22,-7
3335,64,33,1010,-13,-32,-11
3336,197,41,1006,-12,-18,-10
3337,185,32,1005,-15,9,-3
3338,53,23,1014,-16,29,3
3339,-134,9,991,-17,30,5
3340,-212,-7,969,-13,11,0
3341,-159,2,979,-11,-16,-6
3342,34,32,1019,-9,-33,-11
3343,179,42,1013,-12,-24,-12
3344,200,33,996,-16,2,-5
3345,83,27,1000,-13,27,1
3346,-107,11,1003,-16,33,5
3347,-208,-6,983,-15,13,0
3348,-179,2,967,-14,-13,-4
3349,5,28,1003,-12,-31,-10
3350,155,34,1020,-13,-24,-11
3351,213,33,1009,-16,-2,-7
3352,111,29,996,-16,24,1
3353,-75,8,996,-16,33,4
3354,-205,-2,979,-14,18,1
3355,-196,7,976,-13,-9,-3
3356,-28,23,1005,-11,-31,-10
3357,132,34,1014,-13,-27,-12
3358,216,41,1000,-14,-5,-8
3359,132,32,1006,-17,21,-1
3360,-45,7,1010,-17,32,6
3361,-192,-1,968,-14,21,2
3362,-202,3,968,-13,-5,-3
3363,-68,15,1006,-10,-28,-8
3364,108,34,1019,-12,-30,-11
3365,219,45,1006,-15,-11,-9
3366,151,33,1005,-16,18,-1
3367,-13,13,1008,-16,34,3
3368,-176,-2,980,-16,25,3
3369,-209,0,972,-15,1,-2
3370,-100,8,985,-11,-25,-8
3371,90,30,1014,-11,-33,-12
3372,208,40,1011,-14,-15,-10
3373,170,35,1006,-15,15,-2
3374,23,17,1017,-35,31,3
3375,-154,8,976,-20,28,3
3376,-215,0,973,-16,6,-1
3377,-134,2,992,-10,-20,-8
3378,58,33,1008,-12,-30,-11
3379,200,38,1001,-16,-19,-12
3380,185,29,1008,-14,9,-3
3381,55,23,1012,-17,29,2
3382,-132,11,990,-16,31,5
3383,-210,-2,970,-13,10,1
3384,-162,5,977,-12,-17,-5
3385,31,31,1018,-10,-32,-10
3386,175,36,1014,-15,-23,-11
3387,209,30,999,-16,4,-5
3388,82,28,998,-16,28,1
3389,-104,12,1001,-15,32,3
3390,-210,-8,985,-12,14,-1
3391,-181,9,967,-11,-12,-5
3392,3,28,1005,-10,-32,-10
3393,148,34,1020,-12,-25,-12
3394,212,39,1010,-16,-2,-6
3395,114,24,997,-17,24,0
3396,-74,9,995,-15,34,3
3397,-201,-7,976,-14,19,1
3398,-196,12,974,-12,-7,-3
3399,-35,20,1007,-12,-31,-10
3400,126,35,1016,-12,-26,-12
3401,218,41,997,-14,-5,-8
3402,141,33,1007,-17,21,0
3403,-39,6,1015,-18,33,4
3404,-189,0,966,-14,21,3
3405,-200,1,964,-12,-4,-2
3406,-77,14,1006,-10,-27,-9
3407,104,36,1016,-12,-30,-12
3408,217,42,1011,-15,-13,-9
3409,154,35,999,-17,17,-1
3410,-5,10,1009,-16,32,3
3411,-168,0,976,-16,27,2
3412,-213,2,979,-10,1,0
3413,-107,10,985,-11,-26,-7
3414,78,33,1009,-12,-31,-10
3415,205,43,1012,-15,-15,-10
3416,172,30,1013,-17,14,-3
3417,31,20,1013,-18,29,3
3418,-148,4,978,-16,29,5
3419,-210,-4,972,-10,7,0
3420,-140,2,988,-11,-19,-6
3421,54,36,1013,-12,-32,-11
3422,193,43,1007,-14,-20,-11
3423,189,29,998,-18,6,-3
3424,62,25,1010,-13,29,1
3425,-123,6,995,-15,32,4
3426,-208,-7,978,-13,11,1
3427,-163,4,967,-11,-15,-5
3428,22,31,1010,-12,-32,-10
3429,164,36,1022,-14,-24,-11
3430,205,33,1001,-17,1,-6
3431,95,31,994,-16,26,1
3432,-96,8,997,-16,32,4
3433,-204,-6,986,-15,15,0
3434,-182,2,969,-13,-11,-3
3435,-8,25,1009,-10,-31,-10
3436,144,35,1019,-14,-25,-13
3437,212,36,1005,-14,-5,-6
3438,122,30,1000,-16,21,0
3439,-63,5,1005,-16,33,4
3440,-193,-2,968,-12,19,2
3441,-195,7,972,-11,-7,-2
3442,-46,18,1011,-12,-30,-9
3443,117,34,1015,-13,-27,-12
3444,220,43,1000,-16,-8,-9
3445,139,31,1008,-17,19,-1
3446,-27,8,1012,-17,32,2
3447,-181,0,974,-14,23,3
3448,-207,3,965,-10,1,-1
3449,-86,13,997,-10,-26,-8
3450,96,34,1017,-15,-30,-11
3451,215,43,1011,-14,-14,-10
3452,163,34,1008,-17,15,-1
3453,6,11,1006,-15,33,3
3454,-162,3,975,-15,27,4
3455,-213,-1,984,-12,2,-1
3456,-120,8,986,-12,-24,-7
3457,70,33,1004,-10,-31,-11
3458,203,43,1010,-13,-17,-11
3459,180,31,1009,-17,10,-3
3460,42,22,1015,-16,29,2
3461,-138,8,980,-14,30,3
3462,-212,-5,972,-14,8,-1
3463,-155,7,981,-13,-18,-6
3464,45,30,1019,-13,-32,-10
3465,182,41,1011,-14,-21,-11
3466,197,30,996,-15,6,-4
3467,73,24,1003,-16,27,1
3468,-117,6,1002,-17,31,4
3469,-208,-5,982,-12,11,0
3470,-172,5,969,-12,-15,-5
3471,13,30,1001,-8,-31,-10
3472,159,37,1028,-14,-23,-10
3473,207,34,1003,-16,-1,-5
3474,101,29,996,-15,24,1
3475,-84,8,996,-17,32,5
3476,-205,-8,980,-12,16,0
3477,-186,8,975,-13,-10,-5
3478,-20,22,1011,-12,-32,-9
3479,136,37,1012,-11,-27,-11
3480,218,39,1002,-14,-5,-7
3481,125,35,1010,-15,23,0
3482,-52,5,1009,-17,34,4
3483,-194,-2,968,-15,20,2
3484,-200,4,965,-12,-4,-1
3485,-56,16,1010,-12,-29,-10
3486,106,32,1016,-13,-28,-10
3487,220,44,1006,-14,-12,-9
3488,148,32,1004,-18,17,-1
3489,-21,11,1004,-16,33,4
3490,-175,-1,981,-15,24,2
3491,-206,1,971,-14,0,-3
3492,-100,9,988,-12,-23,-7
3493,90,34,1011,-12,-30,-12
3494,205,41,1011,-13,-14,-10
3495,168,32,1007,-16,13,-3
3496,16,16,1013,-16,31,3
3497,-154,6,974,-12,27,2
3498,-211,-3,978,-14,5,-1
3499,-132,6,990,-11,-22,-7
3500,64,33,1008,-11,-30,-11
3501,196,41,1002,-13,-17,-11
3502,186,30,1008,-14,8,-3
3503,51,22,1014,-14,28,1
3504,-134,9,989,-17,30,4
3505,-208,-5,973,-12,10,0
3506,-161,3,975,-10,-16,-5
3507,33,32,1016,-11,-33,-10
3508,175,37,1017,-14,-21,-11
3509,200,31,996,-16,4,-5
3510,86,27,997,-16,26,1
3511,-102,9,1001,-16,33,4
3512,-209,-7,984,-14,15,0
3513,-176,4,968,-11,-11,-5
3514,-1,25,1003,-11,-31,-9
3515,152,38,1019,-15,-25,-12
3516,212,37,1013,-16,-3,-7
3517,110,30,995,-16,23,0
3518,-71,8,998,-16,33,4
3519,-200,-4,975,-13,19,1
3520,-194,3,973,-12,-7,-3
3521,-33,19,1012,-11,-29,-8
3522,124,34,1011,-13,-27,-11
3523,220,41,1001,-14,-7,-9
3524,134,33,1005,-18,20,0
3525,-43,8,1013,-16,32,3
3526,-187,0,970,-14,22,1
3527,-199,2,964,-13,-2,-2
3528,-74,11,1001,-13,-25,-8
3529,102,31,1020,-13,-29,-11
3530,217,43,1008,-15,-14,-10
3531,156,32,999,-16,15,-1
3532,-3,12,1008,-17,31,3
3533,-168,1,979,-15,26,3
3534,-212,1,976,-11,2,-2
3535,-108,9,986,-10,-22,-8
3536,80,32,1006,-13,-31,-10
3537,205,46,1010,-14,-18,-10
3538,174,30,1013,-16,12,-2
3539,32,20,1010,-16,30,1
3540,-147,3,978,-14,28,4
3541,-211,-1,973,-13,6,0
3542,-144,1,988,-14,-20,-6
3543,52,31,1012,-11,-32,-11
3544,188,36,1008,-14,-20,-10
3545,196,32,1000,-13,7,-4
3546,59,23,1009,-13,28,1
3547,-124,14,997,-16,31,4
3548,-208,-4,976,-13,11,1
3549,-167,1,970,-13,-16,-5
3550,24,28,1014,-10,-33,-9
3551,168,37,1019,-11,-23,-11
3552,202,34,1000,-15,2,-5
3553,96,30,997,-16,27,1
3554,-98,9,1000,-17,32,5
3555,-206,-3,985,-15,15,-1
3556,-185,2,970,-14,-9,-4
3557,-11,27,1004,-13,-31,-8
3558,147,33,1017,-12,-26,-12
3559,212,35,1009,-14,-3,-8
3560,120,29,1001,-16,22,0
3561,-65,8,1003,-14,35,4
3562,-200,-4,970,-14,20,1
3563,-195,7,973,-11,-7,-4
3564,-43,21,1008,-11,-31,-8
3565,119,33,1013,-13,-28,-11
3566,221,38,1002,-15,-9,-9
3567,138,31,1003,-18,19,-1
3568,-28,9,1014,-15,32,4
3569,-186,-1,973,-14,22,2
3570,-204,5,963,-13,-2,-2
3571,-79,13,995,-10,-25,-8
3572,97,33,1021,-14,-30,-10
3573,217,45,1006,-14,-13,-9
3574,158,32,1005,-15,15,-2
3575,6,12,1005,-15,31,2
3576,-167,0,977,-15,27,2
3577,-209,0,978,-14,3,-2
3578,-118,8,987,-11,-24,-8
3579,79,37,1002,-11,-31,-10
3580,202,40,1012,-14,-16,-10
3581,179,34,1011,-17,11,-2
3582,32,16,1015,-16,29,2
3583,-143,8,978,-14,29,3
3584,-215,-4,970,-13,7,-1
3585,-144,4,987,-12,-19,-6
3586,52,33,1017,-12,-32,-10
3587,192,41,1001,-14,-20,-11
3588,193,28,1002,-15,6,-4
3589,65,24,1004,-17,27,2
3590,-122,10,1000,-16,32,4
3591,-206,-6,976,-14,11,0
3592,-172,3,972,-13,-15,-5
3593,21,29,1005,-10,-32,-10
3594,163,33,1026,-13,-24,-11
3595,208,32,999,-15,1,-6
3596,97,28,996,-16,26,1
3597,-90,11,997,-14,34,3
3598,-210,-4,985,-16,15,1
3599,-187,6,971,-12,-10,-4
3600,-13,21,1006,-10,-30,-10
3601,145,39,1017,-11,-27,-12
3602,215,34,1005,-17,-5,-7
3603,120,32,1003,-15,22,1
3604,-60,6,1004,-17,33,4
3605,-199,-2,969,-14,19,2
3606,-194,4,972,-11,-6,-3
3607,-50,19,1009,-12,-30,-9
3608,118,34,1015,-15,-28,-10
3609,218,44,1003,-13,-7,-8
3610,141,32,1004,-18,18,-1
3611,-27,6,1013,-16,31,3
3612,-185,-2,976,-15,23,1
3613,-203,3,963,-14,-2,-3
3614,-84,11,999,-10,-25,-8
3615,93,37,1016,-10,-30,-11
3616,215,44,1008,-15,-14,-11
3617,158,30,1008,-16,16,-2
3618,8,14,1005,-16,31,2
3619,-164,2,978,-16,26,3
3620,-210,0,979,-12,4,-2
3621,-121,7,988,-12,-22,-7
3622,75,35,1005,-12,-31,-11
3623,203,40,1009,-13,-17,-10
3624,178,33,1011,-17,10,-3
3625,35,16,1011,-16,30,3
3626,-138,8,984,-14,31,4
3627,-213,-5,968,-12,10,0
3628,-152,7,982,-10,-18,-6
3629,47,31,1022,-11,-33,-11
3630,182,41,1004,-14,-22,-11
3631,199,31,996,-15,6,-4
3632,68,27,1010,-14,27,2
3633,-118,7,998,-16,32,4
3634,-206,-11,976,-13,12,0
3635,-174,3,969,-10,-14,-5
3636,17,29,1008,-11,-31,-11
3637,161,37,1023,-11,-23,-12
3638,210,35,1003,-16,1,-6
3639,101,31,996,-15,25,1
3640,-87,10,996,-16,33,5
3641,-207,-5,982,-14,16,1
3642,-186,2,974,-11,-10,-5
3643,-18,19,1006,-13,-31,-9
3644,134,34,1012,-13,-26,-11
3645,219,40,1008,-13,-4,-9
3646,119,33,1001,-15,22,1
3647,-53,11,1005,-15,32,3
3648,-195,-3,969,-15,21,2
3649,-200,2,965,-11,-4,-2
3650,-55,15,1013,-13,-28,-9
3651,115,32,1015,-12,-28,-12
3652,221,44,1004,-13,-9,-10
3653,146,34,1001,-15,20,0
3654,-28,10,1011,-16,34,3
3655,-178,0,976,-15,24,1
3656,-210,0,965,-12,0,-1
3657,-89,11,993,-11,-26,-8
3658,93,33,1017,-14,-31,-11
3659,211,43,1010,-15,-14,-9
3660,165,32,1006,-16,15,-2
3661,10,13,1009,-16,32,3
3662,-161,6,971,-14,28,3
3663,-212,-2,984,-12,5,-1
3664,-128,7,986,-11,-21,-7
3665,71,36,1007,-11,-31,-11
3666,203,41,1007,-15,-18,-11
3667,181,32,1010,-17,10,-3
3668,46,21,1012,-18,28,2
3669,-140,4,984,-15,30,3
3670,-210,-5,969,-12,9,0
3671,-156,3,982,-11,-17,-6
3672,41,35,1022,-11,-32,-10
3673,182,38,1008,-14,-21,-11
3674,200,32,996,-15,6,-5
3675,73,28,1004,-16,27,2
3676,-114,10,1003,-16,33,4
3677,-210,-11,980,-14,13,0
3678,-175,5,966,-11,-13,-5
3679,12,27,1008,-10,-31,-10
3680,157,38,1022,-14,-24,-11
3681,210,38,1010,-14,1,-6
3682,104,31,997,-14,25,0
3683,-85,7,994,-18,33,5
3684,-204,-6,983,-14,16,1
3685,-189,3,971,-13,-9,-4
3686,-20,22,1008,-11,-30,-10
3687,136,30,1016,-13,-27,-12
3688,213,36,1000,-14,-5,-8
3689,129,33,1008,-13,21,0
3690,-50,9,1009,-18,32,4
3691,-196,-1,968,-15,20,2
3692,-198,6,967,-13,-5,-3
3693,-64,15,1012,-12,-29,-9
3694,113,31,1016,-12,-28,-11
3695,217,39,1007,-13,-9,-9
3696,148,35,998,-16,18,-2
3697,-19,12,1013,-15,32,3
3698,-179,2,972,-17,24,2
3699,-208,4,972,-14,0,-3
3700,-90,8,990,-11,-26,-9
3701,86,34,1012,-11,-30,-11
3702,213,45,1012,-12,-13,-10
3703,164,30,1009,-16,16,-2
3704,17,17,1008,-16,31,3
3705,-158,2,976,-13,29,3
3706,-210,1,980,-13,5,-2
3707,-129,5,989,-12,-22,-7
3708,63,36,1008,-9,-32,-10
3709,199,41,1003,-18,-15,-8
3710,183,32,1012,-23,9,-2
3711,46,21,1010,-16,30,2
3712,-136,8,987,-17,30,4
3713,-209,-4,971,-11,9,0
3714,-158,3,977,-11,-16,-6
3715,37,34,1020,-12,-31,-11
3716,180,38,1012,-16,-21,-11
3717,202,34,996,-15,6,-5
3718,81,26,1002,-15,27,1
3719,-110,9,1003,-17,33,4
3720,-210,-9,980,-14,13,1
3721,-176,3,969,-10,-13,-5
3722,8,29,1007,-10,-31,-9
3723,155,38,1019,-15,-23,-11
3724,213,34,1012,-14,-1,-6
3725,106,31,996,-18,24,2
3726,-78,8,993,-15,33,4
3727,-205,-6,981,-13,18,0
3728,-195,5,974,-15,-9,-4
3729,-26,22,1005,-11,-30,-9
3730,132,36,1018,-15,-28,-11
3731,220,46,998,-13,-6,-9
3732,131,34,1009,-18,22,0
3733,-48,7,1010,-17,34,4
3734,-195,-4,970,-14,21,3
3735,-199,3,961,-10,-4,-4
3736,-67,12,1011,-12,-29,-9
3737,114,34,1016,-12,-28,-11
3738,215,44,1007,-15,-10,-8
3739,154,36,1001,-16,16,-3
3740,-16,9,1009,-15,34,4
3741,-177,2,977,-16,25,2
3742,-211,0,975,-12,1,-1
3743,-95,7,990,-11,-25,-8
3744,87,31,1010,-12,-31,-11
3745,210,45,1015,-15,-15,-11
3746,167,33,1009,-17,14,-1
3747,19,20,1008,-17,31,2
3748,-155,6,979,-15,27,3
3749,-215,0,974,-11,5,-1
3750,-131,3,991,-13,-22,-7
3751,64,32,1009,-11,-32,-10
3752,200,43,1004,-11,-17,-11
3753,184,28,1007,-16,10,-4
3754,52,23,1012,-14,28,2
3755,-131,9,993,-16,31,4
3756,-210,-4,968,-15,9,0
3757,-163,3,976,-11,-16,-5
3758,36,33,1018,-13,-33,-11
3759,174,36,1013,-15,-22,-11
3760,206,29,998,-15,3,-6
3761,84,27,998,-18,27,2
3762,-105,10,1001,-15,34,5
3763,-210,-10,983,-14,14,1
3764,-181,7,969,-10,-12,-5
3765,0,26,1003,-11,-30,-10
3766,152,40,1021,-14,-24,-11
3767,216,33,1009,-16,-1,-7
3768,112,34,997,-16,22,-1
3769,-71,6,997,-16,33,4
3770,-203,-7,975,-12,19,1
3771,-198,7,973,-12,-7,-4
3772,-34,21,1009,-12,-31,-9
3773,126,36,1014,-13,-28,-11
3774,222,40,1000,-13,-7,-8
3775,136,33,1005,-17,21,1
3776,-43,7,1016,-17,33,5
3777,-185,-1,969,-12,22,2
3778,-204,3,963,-12,-1,-1
3779,-71,13,1002,-9,-27,-8
3780,104,31,1026,-12,-29,-12
3781,218,44,1003,-17,-12,-9
3782,158,32,1004,-15,17,-2
3783,-3,12,1006,-14,33,3
3784,-173,1,977,-15,27,3
3785,-207,2,978,-12,3,-1
3786,-112,8,986,-12,-23,-7
3787,86,32,1007,-12,-31,-11
3788,205,43,1015,-13,-16,-10
3789,172,33,1007,-15,12,-2
3790,31,17,1014,-14,30,1
3791,-151,8,977,-16,28,3
3792,-215,-1,971,-11,8,-1
3793,-138,0,991,-13,-20,-7
3794,54,31,1010,-14,-33,-10
3795,196,41,1004,-14,-20,-12
3796,190,32,1001,-16,7,-4
3797,58,25,1011,-16,28,1
3798,-126,10,998,-15,31,4
3799,-213,-8,973,-14,12,1
3800,-162,4,972,-11,-15,-5
3801,28,28,1016,-12,-32,-10
3802,168,39,1016,-13,-23,-10
3803,205,32,1000,-14,3,-4
3804,93,29,995,-15,26,1
3805,-99,12,998,-15,33,6
3806,-207,-6,985,-13,14,1
3807,-184,6,972,-13,-12,-5
3808,-8,24,1002,-10,-30,-9
3809,147,34,1019,-12,-25,-13
3810,213,37,1008,-15,-4,-7
3811,120,29,997,-16,22,0
3812,-67,8,1001,-16,34,5
3813,-196,-3,970,-13,20,2
3814,-197,9,972,-13,-6,-3
3815,-41,20,1010,-12,-31,-10
3816,120,34,1012,-14,-28,-11
3817,223,40,1000,-14,-8,-10
3818,141,28,1006,-17,20,-1
3819,-34,9,1013,-17,32,4
3820,-183,-2,972,-13,22,1
3821,-205,5,964,-11,-1,-3
3822,-80,13,996,-10,-26,-8
3823,99,35,1023,-12,-30,-11
3824,218,41,1006,-16,-14,-10
3825,159,34,1004,-16,15,-1
3826,4,8,1003,-16,31,3
3827,-168,1,978,-14,27,3
3828,-213,0,976,-13,2,-2
3829,-116,5,991,-10,-23,-8
3830,83,38,1005,-10,-31,-11
3831,201,42,1009,-14,-17,-9
3832,177,35,1012,-18,12,-2
3833,33,13,1013,-17,31,2
3834,-143,5,974,-14,28,2
3835,-214,-6,973,-13,7,-1
3836,-141,5,986,-11,-20,-7
3837,49,33,1013,-12,-32,-10
3838,193,43,1008,-14,-22,-10
3839,193,31,996,-17,7,-3
3840,61,26,1009,-15,29,2
3841,-121,6,997,-17,31,4
3842,-212,-9,979,-13,10,0
3843,-165,4,966,-9,-14,-5
3844,23,32,1013,-11,-32,-10
3845,167,39,1019,-13,-23,-11
3846,207,33,1002,-14,2,-6
3847,93,27,993,-16,26,1
3848,-94,8,999,-14,33,4
3849,-207,-7,986,-15,16,0
3850,-184,3,966,-13,-11,-4
3851,-11,23,1009,-9,-31,-9
3852,142,35,1014,-14,-25,-11
3853,215,40,1008,-14,-4,-7
3854,119,33,1003,-17,21,0
3855,-65,10,1001,-19,33,4
3856,-190,-8,971,-12,20,2
3857,-201,3,969,-12,-7,-3
3858,-48,18,1009,-13,-30,-10
3859,117,31,1018,-13,-28,-11
3860,219,45,998,-13,-8,-8
3861,143,36,1004,-16,19,-1
3862,-26,8,1017,-16,32,4
3863,-184,-3,971,-15,23,4
3864,-204,5,965,-13,-1,-1
3865,-87,12,997,-12,-24,-7
3866,100,34,1018,-12,-30,-11
3867,215,42,1011,-15,-14,-10
3868,160,36,1003,-16,15,-2
3869,5,12,1008,-16,33,2
3870,-163,2,974,-14,28,2
3871,-214,-2,979,-14,4,-1
3872,-116,6,988,-11,-23,-7
3873,75,33,1005,-11,-31,-10
3874,202,45,1008,-13,-16,-11
3875,180,35,1012,-16,10,-2
3876,41,20,1013,-16,28,2
3877,-143,6,980,-16,29,4
3878,-210,-5,972,-12,8,-2
3879,-151,1,983,-11,-18,-8
3880,50,33,1016,-11,-32,-11
3881,189,37,1007,-14,-21,-11
3882,192,30,997,-16,7,-3
3883,74,23,1005,-14,27,1
3884,-120,12,1003,-16,32,4
3885,-209,-6,978,-12,11,0
3886,-169,3,967,-11,-14,-7
3887,15,31,1010,-13,-32,-11
3888,161,38,1019,-14,-24,-12
3889,209,31,1009,-13,1,-7
3890,99,28,989,-14,24,1
3891,-89,8,995,-13,33,3
3892,-205,-6,988,-14,17,2
3893,-191,6,972,-12,-9,-3
3894,-13,23,1006,-11,-31,-9
3895,137,33,1018,-11,-26,-11
3896,215,43,1003,-14,-5,-7
3897,126,28,1003,-14,22,0
3898,-56,8,1008,-14,35,5
3899,-193,-6,970,-14,21,2
3900,-199,3,967,-13,-5,-4
3901,-54,15,1013,-11,-27,-8
3902,112,34,1015,-12,-28,-11
3903,219,42,1004,-15,-9,-10
3904,146,35,1004,-16,19,-1
3905,-24,13,1010,-15,33,4
3906,-177,0,977,-15,23,2
3907,-210,1,968,-13,0,-1
3908,-89,10,991,-11,-25,-8
3909,92,28,1018,-12,-30,-11
3910,212,46,1011,-13,-13,-11
3911,169,34,1006,-15,15,-2
3912,14,14,1007,-15,32,3
3913,-160,2,978,-17,28,4
3914,-210,-5,977,-12,5,-2
3915,-125,7,991,-14,-21,-8
3916,72,33,1000,-13,-32,-11
3917,197,44,1009,-12,-16,-12
3918,183,32,1010,-17,9,-4
3919,39,24,1011,-16,27,2
3920,-133,4,985,-16,29,2
3921,-212,-8,972,-14,9,-1
3922,-151,4,977,-12,-18,-6
3923,43,29,1022,-11,-31,-10
3924,179,42,1008,-12,-22,-11
3925,196,30,995,-15,5,-4
3926,75,26,1004,-17,27,1
3927,-115,12,999,-18,31,5
3928,-208,-6,979,-15,11,-1
3929,-176,4,969,-12,-13,-5
3930,14,29,1005,-9,-32,-10
3931,161,34,1024,-15,-24,-12
3932,207,34,1006,-15,0,-5
3933,101,31,993,-13,25,1
3934,-81,11,998,-16,32,4
3935,-210,-7,983,-15,17,3
3936,-187,7,968,-14,-9,-3
3937,-19,18,1016,-12,-30,-9
3938,133,35,1008,-11,-26,-11
3939,218,37,1004,-15,-5,-7
3940,128,31,1005,-16,22,0
3941,-56,9,1010,-16,34,4
3942,-186,-2,966,-13,21,1
3943,-203,5,967,-14,-4,-1
3944,-59,15,1008,-13,-28,-8
3945,109,29,1021,-13,-28,-11
3946,217,42,1004,-15,-10,-9
3947,151,32,1001,-18,16,-1
3948,-16,13,1010,-16,32,4
3949,-175,0,976,-14,24,2
3950,-209,3,973,-13,1,-3
3951,-97,9,992,-11,-25,-8
3952,90,33,1011,-12,-30,-12
3953,212,41,1014,-14,-15,-10
3954,167,33,1007,-17,13,-1
3955,20,17,1010,-17,30,2
3956,-156,5,976,-15,27,3
3957,-214,0,977,-14,4,0
3958,-135,4,990,-10,-22,-7
3959,64,32,1004,-11,-32,-11
3960,197,40,1008,-14,-18,-10
3961,187,31,1006,-14,8,-4
3962,50,21,1015,-15,29,3
3963,-134,9,986,-16,31,5
3964,-212,-8,973,-12,10,0
3965,-157,4,978,-10,-18,-7
3966,34,30,1018,-12,-32,-9
3967,182,39,1014,-14,-22,-11
3968,202,31,996,-15,5,-4
3969,84,25,993,-14,27,1
3970,-107,8,1005,-15,33,4
3971,-211,-7,981,-11,13,-1
3972,-179,7,965,-11,-12,-5
3973,4,31,1006,-8,-30,-10
3974,149,38,1018,-12,-24,-12
3975,211,33,1010,-17,-2,-7
3976,112,30,997,-15,25,1
3977,-74,8,997,-16,34,4
3978,-201,-5,976,-13,18,0
3979,-193,4,973,-10,-7,-5
3980,-29,22,1010,-11,-31,-10
3981,125,34,1014,-13,-28,-12
3982,220,45,1001,-13,-8,-9
3983,132,30,1005,-17,21,1
3984,-45,6,1012,-15,33,3
3985,-187,-6,970,-13,21,1
3986,-201,2,964,-11,-3,-2
3987,-70,14,1001,-9,-26,-9
3988,104,35,1021,-12,-28,-11
3989,220,45,1006,-15,-12,-10
3990,152,35,1004,-16,17,-1
3991,-7,13,1003,-16,33,1
3992,-171,-1,980,-16,27,2
3993,-207,0,976,-12,2,-1
3994,-108,5,988,-13,-24,-7
3995,88,34,1009,-11,-31,-12
3996,201,43,1010,-13,-15,-10
3997,171,33,1011,-14,12,-3
3998,29,17,1012,-18,30,2
3999,-152,8,980,-15,29,3
4000,-208,-4,968,-13,5,-1
4001,-143,-1,995,-13,-20,-8
4002,59,35,1010,-10,-32,-11
4003,191,40,1005,-14,-19,-11
4004,193,34,1002,-16,7,-3
4005,56,22,1011,-15,29,3
4006,-121,9,994,-16,32,3
4007,-212,-7,980,-13,12,-1
4008,-164,8,966,-10,-16,-6
4009,22,29,1011,-12,-31,-11
4010,167,35,1023,-12,-22,-11
4011,206,35,1002,-15,3,-5
4012,95,26,992,-14,25,0
4013,-97,11,1000,-15,33,4
4014,-206,-5,985,-14,15,-1
4015,-185,8,970,-11,-9,-5
4016,-8,21,1008,-12,-32,-9
4017,143,36,1017,-12,-25,-11
4018,211,38,1003,-15,-3,-7
4019,122,28,1006,-16,22,0
4020,-60,9,1004,-18,34,5
4021,-196,0,966,-13,19,2
4022,-197,7,973,-12,-7,-4
4023,-52,17,1009,-13,-29,-10
4024,114,31,1014,-13,-27,-12
4025,223,43,1003,-14,-9,-8
4026,139,29,1000,-15,19,-1
4027,-24,8,1014,-16,31,3
4028,-179,-2,975,-13,24,3
4029,-206,3,966,-12,-1,-3
4030,-86,11,993,-11,-25,-8
4031,89,37,1015,-11,-30,-12
4032,211,43,1011,-16,-15,-11
4033,161,28,1007,-15,14,-2
4034,9,9,1010,-16,31,4
4035,-156,3,976,-14,27,1
4036,-209,0,981,-13,3,-1
4037,-122,10,986,-12,-23,-8
4038,68,34,1010,-12,-30,-12
4039,194,41,1007,-13,-17,-10
4040,178,27,1005,-18,10,-4
4041,45,16,1015,-18,28,0
4042,-135,5,984,-14,30,4
4043,-204,-1,972,-13,10,-1
4044,-152,6,982,-12,-16,-7
4045,36,35,1020,-13,-32,-10
4046,175,39,1008,-15,-22,-12
4047,195,29,999,-15,4,-4
4048,79,28,1001,-16,26,2
4049,-105,7,1003,-16,32,4
4050,-206,-5,984,-14,13,1
4051,-173,2,967,-11,-12,-6
4052,7,27,1007,-9,-29,-10
4053,148,37,1019,-13,-23,-10
4054,206,36,1012,-10,-1,-8
4055,108,29,998,6,22,-2
4056,-76,8,994,-13,35,5
4057,-199,-7,975,-15,17,-1
4058,-191,7,978,-11,-8,-3
4059,-29,22,1007,-11,-31,-9
4060,127,33,1014,-12,-27,-13
4061,217,41,1002,-14,-7,-8
4062,128,29,1005,-17,20,1
4063,-38,5,1014,-16,31,2
4064,-186,-1,971,-14,22,1
4065,-197,8,964,-12,-3,-3
4066,-69,12,1002,-11,-25,-9
4067,100,34,1018,-12,-28,-12
4068,217,44,1010,-13,-12,-10
4069,151,29,1003,-16,16,-1
4070,-4,10,1005,-13,32,2
4071,-169,4,977,-15,26,2
4072,-207,2,982,-12,2,-2
4073,-108,8,986,-11,-23,-8
4074,79,34,1007,-14,-32,-10
4075,200,40,1006,-13,-16,-11
4076,172,30,1014,-17,11,-3
4077,32,16,1010,-15,29,1
4078,-145,6,980,-15,29,3
4079,-207,-2,969,-11,7,0
4080,-144,5,990,-11,-17,-7
4081,52,37,1015,-11,-32,-11
4082,185,40,1008,-15,-20,-11
4083,191,30,997,-15,6,-3
4084,62,20,1005,-14,27,0
4085,-118,8,1003,-13,31,4
4086,-207,-6,975,-14,10,0
4087,-165,8,970,-11,-15,-5
4088,20,33,1007,-11,-31,-9
4089,162,38,1022,-16,-23,-11
4090,204,30,1006,-18,2,-4
4091,95,30,996,-16,25,1
4092,-86,8,996,-15,33,5
4093,-208,-9,982,-15,17,1
4094,-181,9,974,-12,-10,-5
4095,-17,21,1007,-11,-30,-11
4096,138,36,1013,-11,-26,-12
4097,214,42,1000,-14,-4,-7
4098,121,32,1005,-16,22,-1
4099,-53,5,1010,-15,33,4
4100,-192,-5,964,-13,20,3
4101,-193,1,968,-12,-5,-3
4102,-58,12,1010,-11,-28,-8
4103,109,37,1016,-13,-28,-10
4104,219,44,1008,-14,-12,-9
4105,142,35,1003,-16,17,0
4106,-19,10,1006,-17,32,3
4107,-177,-1,978,-14,24,3
4108,-204,0,972,-13,0,-2
4109,-94,6,992,-11,-25,-8
4110,91,35,1009,-12,-30,-11
4111,204,41,1013,-12,-14,-11
4112,165,35,1011,-15,13,-3
4113,16,16,1010,-15,29,2
4114,-153,8,977,-14,27,3
4115,-205,-6,974,-12,3,-2
4116,-133,5,991,-12,-20,-7
4117,63,35,1012,-10,-31,-12
4118,193,39,1002,-15,-18,-12
4119,183,32,1003,-14,8,-4
4120,51,25,1009,-16,28,2
4121,-127,10,996,-15,31,5
4122,-206,-7,976,-13,10,-1
4123,-160,6,972,-12,-15,-6
4124,31,30,1010,-11,-31,-11
4125,167,36,1022,-13,-22,-10
4126,200,31,1001,-14,3,-6
4127,85,25,994,-15,25,1
4128,-95,9,999,-14,32,4
4129,-209,-6,984,-15,15,1
4130,-175,10,971,-11,-12,-4
4131,-7,25,1009,-11,-30,-9
4132,144,38,1012,-14,-24,-10
4133,211,36,1006,-13,-2,-6
4134,114,28,1002,-15,22,0
4135,-67,5,1006,-16,33,5
4136,-194,0,967,-12,20,2
4137,-190,6,970,-11,-6,-3
4138,-47,19,1010,-11,-29,-10
4139,118,34,1016,-11,-27,-10
4140,216,44,1005,-15,-8,-10
4141,137,30,1003,-16,18,-1
4142,-27,7,1009,-16,33,3
4143,-178,-2,977,-13,24,3
4144,-204,3,971,-12,0,-2
4145,-82,13,991,-10,-25,-8
4146,94,32,1014,-13,-29,-11
4147,208,46,1013,-12,-14,-9
4148,160,32,1008,-18,14,-1
4149,11,15,1007,-17,30,2
4150,-156,3,977,-15,27,3
4151,-206,-1,977,-14,4,-2
4152,-125,5,988,-12,-21,-7
4153,69,36,1010,-12,-31,-11
4154,196,39,1003,-14,-17,-10
4155,179,32,1005,-16,9,-3
4156,47,21,1014,-17,28,2
4157,-134,10,988,-16,31,3
4158,-208,-9,973,-15,8,-2
4159,-154,6,975,-12,-17,-5
4160,34,30,1016,-11,-32,-8
4161,177,41,1018,-13,-21,-11
4162,198,31,1000,-14,4,-5
4163,81,32,994,-15,27,1
4164,-104,8,1003,-18,31,4
4165,-209,-8,980,-14,13,0
4166,-175,5,974,-12,-13,-4
4167,5,24,1004,-9,-31,-10
4168,147,35,1018,-12,-23,-10
4169,212,36,1008,-16,-2,-7
4170,110,32,1003,-14,23,0
4171,-70,13,998,-17,32,4
4172,-198,-6,968,-15,18,0
4173,-191,9,976,-11,-8,-3
4174,-37,13,1008,-13,-30,-9
4175,123,34,1018,-12,-27,-11
4176,219,40,1001,-15,-7,-8
4177,132,35,1005,-17,20,-1
4178,-36,7,1012,-17,32,3
4179,-182,0,972,-14,22,2
4180,-198,5,967,-10,-1,-3
4181,-82,13,996,-12,-26,-9
4182,102,35,1018,-14,-30,-12
4183,209,38,1010,-15,-13,-10
4184,155,32,1003,-17,14,-1
4185,2,10,1008,-15,31,3
4186,-161,4,977,-14,27,3
4187,-206,0,978,-11,3,-1
4188,-119,10,991,-12,-22,-7
4189,75,31,1008,-12,-30,-12
4190,197,45,1004,-13,-16,-11
4191,177,30,1013,-17,11,-3
4192,38,17,1009,-17,30,1
4193,-139,6,986,-14,30,3
4194,-204,-7,969,-14,9,-1
4195,-153,6,982,-11,-17,-5
4196,48,33,1015,-13,-33,-9
4197,174,37,1018,-14,-21,-10
4198,195,30,995,-16,5,-5
4199,74,21,999,-16,28,0
4200,-108,8,1002,-16,32,4
4201,-207,-6,983,-13,13,1
4202,-165,8,965,-13,-13,-6
4203,5,28,1006,-11,-30,-10
4204,154,37,1020,-12,-25,-11
4205,203,32,1010,-14,-1,-5
4206,108,31,997,-16,23,0
4207,-76,4,1000,-18,32,4
4208,-197,-5,972,-14,18,1
4209,-187,5,977,-14,-8,-2
4210,-31,23,1009,-11,-31,-10
4211,124,35,1015,-13,-25,-11
4212,220,46,1002,-16,-6,-9
4213,126,31,1004,-15,21,0
4214,-40,8,1014,-16,31,2
4215,-183,-5,972,-14,21,1
4216,-198,2,963,-11,-1,-2
4217,-72,15,1000,-11,-26,-8
4218,102,36,1019,-11,-29,-11
4219,212,43,1007,-15,-11,-9
4220,151,35,1004,-17,16,-2
4221,-2,11,1007,-13,31,4
4222,-164,3,978,-14,27,4
4223,-210,-2,979,-14,3,-1
4224,-109,8,994,-12,-23,-8
4225,79,35,1004,-12,-31,-11
4226,195,40,1005,-14,-15,-9
4227,174,32,1014,-15,11,-3
4228,30,15,1010,-16,29,2
4229,-139,11,983,-14,28,2
4230,-205,-3,969,-13,9,0
4231,-147,9,982,-14,-17,-4
4232,48,32,1022,-12,-31,-11
4233,177,38,1009,-16,-20,-11
4234,195,26,994,-15,6,-4
4235,67,20,1002,-14,28,1
4236,-114,9,1001,-15,31,4
4237,-206,-4,983,-13,11,1
4238,-167,9,968,-12,-13,-6
4239,14,32,1007,-11,-30,-10
4240,155,36,1019,-13,-22,-12
4241,209,32,1010,-17,-2,-6
4242,101,27,991,-15,22,1
4243,-78,3,994,-14,32,4
4244,-202,-6,979,-13,17,2
4245,-185,10,973,-10,-7,-3
4246,-20,23,1009,-11,-31,-9
4247,125,33,1010,-14,-26,-11
4248,217,40,1000,-13,-5,-8
4249,126,29,1011,-18,22,-1
4250,-48,9,1007,-16,31,3
4251,-186,-2,972,-14,20,1
4252,-195,4,964,-13,-4,-3
4253,-67,16,1004,-9,-26,-10
4254,108,31,1020,-13,-29,-11
4255,212,44,1007,-15,-12,-9
4256,152,29,1004,-17,17,-1
4257,-10,12,1007,-16,32,3
4258,-165,2,975,-15,25,3
4259,-206,0,980,-12,2,-2
4260,-106,10,986,-13,-25,-8
4261,87,34,1007,-12,-30,-11
4262,200,42,1010,-14,-15,-10
4263,169,32,1009,-16,12,-2
4264,24,16,1012,-17,29,1
4265,-146,7,980,-15,27,2
4266,-204,-6,970,-12,7,-1
4267,-141,6,984,-12,-18,-7
4268,52,36,1020,-10,-31,-10
4269,186,40,1006,-14,-21,-10
4270,186,32,994,-16,6,-4
4271,65,25,1006,-16,28,1
4272,-122,8,1002,-15,32,4
4273,-205,-9,977,-12,11,-1
4274,-165,5,970,-11,-15,-6
4275,22,32,1007,-10,-31,-10
4276,156,35,1018,-13,-22,-11
4277,205,34,1012,-16,0,-6
4278,99,27,995,-15,25,1
4279,-87,10,995,-15,33,4
4280,-203,-6,978,-14,16,1
4281,-184,7,975,-12,-9,-3
4282,-17,23,1011,-12,-31,-8
4283,131,34,1011,-13,-27,-11
4284,217,40,1000,-15,-5,-9
4285,123,30,1008,-17,23,0
4286,-53,7,1009,-16,33,2
4287,-188,-2,969,-14,19,1
4288,-197,8,963,-11,-4,-3
4289,-60,17,1006,-10,-28,-8
4290,110,33,1020,-14,-28,-11
4291,212,41,1005,-14,-10,-9
4292,146,27,1000,-16,16,-2
4293,-14,11,1010,-14,32,2
4294,-172,5,975,-15,24,3
4295,-203,3,978,-13,1,-2
4296,-103,11,990,-13,-24,-7
4297,89,34,1004,-12,-30,-12
4298,202,37,1012,-14,-14,-11
4299,166,29,1011,-16,13,-3
4300,24,17,1012,-16,29,3
4301,-146,8,977,-13,28,3
4302,-208,-2,971,-13,6,-1
4303,-140,7,989,-11,-20,-8
4304,59,36,1017,-11,-33,-11
4305,185,38,1005,-14,-19,-11
4306,193,29,996,-16,7,-4
4307,55,23,1007,-17,28,1
4308,-121,10,996,-16,31,4
4309,-210,-7,983,-13,11,1
4310,-158,7,968,-11,-15,-5
4311,22,27,1006,-11,-32,-11
4312,164,35,1025,-13,-23,-12
4313,200,29,1006,-16,2,-6
4314,93,28,992,-14,24,0
4315,-90,8,999,-16,32,3
4316,-205,-6,980,-13,15,0
4317,-181,8,973,-13,-9,-4
4318,-14,23,1013,-12,-30,-9
4319,135,36,1008,-12,-26,-12
4320,216,37,1003,-13,-5,-8
4321,121,29,1006,-16,23,0
4322,-53,6,1012,-16,33,4
4323,-190,-2,964,-13,20,1
4324,-194,6,969,-10,-5,-2
4325,-57,16,1007,-13,-28,-10
4326,108,34,1020,-12,-27,-12
4327,215,45,1003,-15,-10,-8
4328,143,29,1005,-16,19,0
4329,-16,10,1003,-14,32,3
4330,-175,-1,979,-15,24,3
4331,-202,0,976,-13,0,-3
4332,-101,11,991,-13,-24,-8
4333,93,37,1007,-13,-30,-11
4334,203,43,1013,-14,-14,-9
4335,166,33,1009,-17,14,-2
4336,20,13,1012,-16,30,3
4337,-154,7,975,-13,28,2
4338,-207,-3,974,-13,5,-2
4339,-134,6,991,-12,-20,-7
4340,60,33,1013,-12,-32,-9
4341,190,40,1004,-15,-19,-10
4342,185,30,1000,-16,8,-3
4343,52,22,1006,-15,28,2
4344,-124,8,998,-16,31,5
4345,-208,-6,978,-14,9,1
4346,-159,6,969,-13,-16,-4
4347,27,30,1012,-10,-32,-9
4348,162,39,1020,-14,-23,-10
4349,204,32,1004,-14,1,-6
4350,88,27,994,-15,26,1
4351,-96,9,995,-16,32,3
4352,-202,-6,982,-15,15,0
4353,-181,8,974,-12,-10,-4
4354,-9,25,1006,-11,-30,-11
4355,138,35,1017,-13,-23,-12
4356,212,35,1000,-13,-4,-7
4357,116,33,1005,-16,22,2
4358,-60,3,1009,-15,33,4
4359,-192,-1,965,-15,20,1
4360,-189,6,968,-14,-7,-3
4361,-54,15,1006,-10,-28,-10
4362,114,34,1020,-11,-28,-11
4363,217,41,1003,-13,-9,-9
4364,139,33,1006,-15,19,0
4365,-21,12,1007,-17,32,2
4366,-178,1,977,-15,24,2
4367,-206,5,971,-13,0,-2
4368,-88,8,992,-10,-25,-9
4369,97,35,1012,-10,-31,-10
4370,205,40,1009,-17,-15,-9
4371,165,33,1011,-16,13,-2
4372,12,15,1010,-17,30,3
4373,-152,5,973,-15,27,3
4374,-209,0,979,-12,4,-1
4375,-130,7,989,-12,-21,-7
4376,66,36,1011,-12,-31,-12
4377,192,40,1005,-15,-18,-11
4378,182,29,1001,-17,8,-3
4379,50,17,1010,-16,27,1
4380,-131,9,991,-16,29,5
4381,-204,-4,976,-11,9,-1
4382,-157,7,975,-10,-16,-6
4383,29,36,1009,-11,-31,-10
4384,170,35,1024,-14,-22,-12
4385,200,30,999,-17,1,-5
4386,83,27,992,-16,25,1
4387,-95,5,1001,-15,31,3
4388,-208,-5,982,-13,14,0
4389,-176,6,970,-12,-13,-6
4390,-5,26,1010,-7,-30,-11
4391,143,39,1014,-16,-25,-11
4392,213,38,1006,-12,-3,-7
4393,115,29,1002,-16,22,0
4394,-68,7,1004,-17,33,4
4395,-192,-3,966,-11,19,0
4396,-193,7,971,-13,-6,-2
4397,-44,19,1008,-9,-30,-9
4398,119,33,1018,-12,-28,-11
4399,217,43,1002,-16,-8,-8
4400,138,33,1004,-15,20,0
4401,-30,8,1010,-16,33,3
4402,-179,0,973,-14,23,2
4403,-201,0,970,-11,-1,-3
4404,-86,9,995,-12,-26,-8
4405,99,34,1013,-11,-29,-12
4406,206,43,1014,-14,-13,-9
4407,161,32,1005,-15,14,-2
4408,10,14,1013,-14,31,1
4409,-159,6,972,-15,27,3
4410,-211,-1,977,-13,3,-2
4411,-122,4,994,-12,-21,-7
4412,67,34,1003,-12,-31,-11
4413,202,42,1006,-14,-18,-12
4414,178,27,1007,-17,10,-3
4415,42,24,1012,-16,29,2
4416,-138,8,988,-15,31,4
4417,-209,-1,976,-11,9,0
4418,-148,3,972,-11,-18,-6
4419,39,33,1016,-11,-32,-10
4420,176,40,1018,-13,-23,-11
4421,198,30,999,-16,3,-5
4422,78,28,994,-16,25,1
4423,-105,7,1001,-16,31,3
4424,-210,-8,985,-15,12,1
4425,-177,6,963,-13,-12,-5
4426,6,26,1012,-10,-31,-10
4427,148,38,1014,-15,-24,-11
4428,209,36,1009,-15,-2,-7
4429,110,28,1000,-17,23,1
4430,-79,6,1002,-15,34,4
4431,-196,-4,968,-15,19,1
4432,-189,4,979,-12,-6,-4
4433,-33,20,1007,-12,-30,-8
4434,121,33,1015,-14,-28,-10
4435,219,41,1000,-15,-7,-9
4436,129,29,1004,-16,21,0
4437,-37,11,1012,-16,31,3
4438,-184,-1,974,-13,22,2
4439,-197,6,963,-11,-3,-2
4440,-78,11,997,-11,-26,-8
4441,101,34,1017,-12,-30,-12
4442,210,41,1011,-15,-13,-9
4443,154,34,1003,-16,16,-1
4444,1,12,1009,-17,32,2
4445,-162,1,972,-16,27,2
4446,-209,-2,982,-12,3,0
4447,-110,7,991,-12,-24,-8
4448,74,34,1006,-9,-30,-10
4449,201,43,1005,-13,-16,-11
4450,174,29,1012,-17,11,-3
4451,39,25,1011,-15,29,3
4452,-140,5,984,-17,30,4
4453,-209,-5,971,-12,8,-1
4454,-150,5,979,-12,-18,-5
4455,43,33,1021,-13,-31,-10
4456,179,40,1012,-12,-22,-12
4457,197,27,994,-14,5,-5
4458,74,30,1001,-14,28,2
4459,-109,7,1001,-17,31,5
4460,-208,-3,985,-16,12,-1
4461,-172,5,967,-14,-13,-5
4462,11,28,1005,-12,-32,-9
4463,153,34,1021,-12,-24,-12
4464,208,36,1009,-15,-1,-5
4465,109,31,1000,-16,23,0
4466,-79,4,996,-15,33,3
4467,-204,-1,975,-13,17,2
4468,-186,5,976,-13,-8,-4
4469,-34,21,1009,-12,-30,-9
4470,128,32,1013,-13,-28,-12
4471,220,43,1003,-15,-5,-9
4472,128,31,1004,-16,22,0
4473,-41,6,1017,-16,32,4
4474,-187,0,970,-13,21,1
4475,-200,7,962,-12,-3,-2
4476,-70,13,1004,-12,-27,-8
4477,101,35,1020,-13,-29,-11
4478,217,42,1005,-14,-13,-10
4479,153,27,1006,-17,16,-1
4480,-5,12,1004,-14,31,4
4481,-169,1,976,-15,26,3
4482,-207,2,983,-11,1,-2
4483,-114,9,989,-11,-24,-7
4484,83,35,1006,-13,-31,-12
4485,199,40,1011,-13,-15,-10
4486,171,31,1007,-16,11,-3
4487,34,14,1013,-17,29,1
4488,-142,7,983,-14,29,3
4489,-208,-1,965,-13,7,0
4490,-141,4,988,-10,-18,-8
4491,46,35,1020,-10,-31,-10
4492,183,39,1009,-15,-20,-10
4493,194,26,996,-14,7,-4
4494,61,26,1002,-17,27,2
4495,-111,7,999,-17,30,4
4496,-211,-5,983,-12,11,0
4497,-166,6,965,-12,-15,-5
4498,17,29,1008,-10,-30,-10
4499,156,33,1023,-14,-22,-12
4500,208,32,1007,-15,0,-6
4501,100,32,996,-16,24,-1
4502,-84,5,996,-16,33,3
4503,-200,-4,978,-14,17,-1
4504,-186,5,973,-13,-9,-4
4505,-22,24,1013,-12,-31,-10
4506,131,32,1013,-14,-26,-11
4507,213,43,996,-14,-4,-7
4508,127,31,1009,-17,21,0
4509,-52,8,1011,-15,33,4
4510,-186,0,965,-14,21,1
4511,-196,4,966,-12,-3,-3
4512,-63,13,1005,-12,-27,-9
4513,109,36,1021,-13,-29,-10
4514,213,46,1004,-14,-12,-9
4515,148,33,1004,-16,16,-3
4516,-11,10,1004,-15,31,4
4517,-175,3,975,-14,25,4
4518,-202,0,984,-14,0,-3
4519,-104,11,988,-11,-24,-8
4520,86,33,1005,-12,-31,-11
4521,203,41,1012,-12,-15,-11
4522,168,29,1011,-17,14,-2
4523,28,20,1012,-14,29,2
4524,-148,6,978,-16,27,4
4525,-212,0,970,-12,5,0
4526,-137,4,989,-13,-21,-7
4527,55,37,1016,-11,-32,-11
4528,191,36,1006,-15,-19,-11
4529,188,28,998,-14,8,-4
4530,56,18,1007,-15,28,2
4531,-122,8,1000,-16,32,4
4532,-205,-5,979,-13,10,0
4533,-160,6,969,-12,-16,-5
4534,25,32,1011,-11,-31,-9
4535,165,39,1021,-13,-21,-11
4536,206,31,1006,-16,2,-6
4537,90,27,992,-16,25,1
4538,-91,6,997,-16,32,4
4539,-204,-10,982,-13,15,0
4540,-179,8,974,-11,-11,-4
4541,-11,25,1009,-8,-30,-10
4542,137,39,1014,-12,-24,-12
4543,214,39,1002,-15,-3,-7
4544,116,30,1006,-15,22,1
4545,-62,7,1007,-17,32,4
4546,-191,-4,968,-13,19,1
