sequence,AccelerometerX,AccelerometerY,AccelerometerZ,GyroscopeX,GyroscopeY,GyroscopeZ
0,-147,13,977,-7,4,-1
1,-55,23,993,-5,-14,-7
2,50,41,1006,-17,-20,-7
3,144,43,1012,-3,-11,-8
4,122,38,1005,-22,4,-3
5,4,16,1001,-45,16,4
6,-99,-3,986,-27,20,3
7,-145,-9,978,-14,5,0
8,-74,-3,995,-4,-13,-6
9,42,18,1006,-9,-20,-10
10,146,48,1005,-11,-12,-8
11,128,55,1001,-15,5,-3
12,24,40,1016,-21,20,2
13,-100,17,987,-21,21,4
14,-152,-2,979,-19,7,2
15,-99,-22,985,-15,-11,-4
16,25,-2,1006,-10,-21,-9
17,143,26,1005,-10,-17,-8
18,139,43,1004,-13,4,-4
19,54,42,1007,-15,20,1
20,-88,34,989,-16,24,4
21,-155,11,997,-16,10,1
22,-132,-10,986,-15,-9,-4
23,6,1,993,-13,-22,-9
24,129,19,1004,-11,-19,-9
25,153,29,1011,-16,-2,-7
26,83,36,1011,-16,16,-1
27,-63,38,988,-15,25,3
28,-150,8,984,-15,16,2
29,-153,-1,986,-13,-5,-1
30,-17,8,1009,-13,-23,-6
31,110,18,1000,-16,-24,-9
32,160,27,1003,-13,-6,-7
33,107,38,1002,-16,13,-1
34,-39,33,999,-17,24,4
35,-139,5,996,-15,16,2
36,-158,1,973,-13,-1,0
37,-39,5,991,-11,-20,-8
38,82,16,1017,-12,-23,-9
39,162,31,1015,-15,-10,-6
40,127,39,994,-17,9,-2
41,-11,26,997,-17,23,4
42,-134,8,998,-14,19,3
43,-164,0,978,-15,3,0
44,-62,0,993,-12,-18,-5
45,55,10,1008,-12,-22,-8
46,166,35,1009,-11,-13,-8
47,130,42,1007,-15,9,-3
48,8,94,806,-14,22,7
49,-134,665,193,-181,13,15
50,-231,-23,729,-173,-23,2
51,-379,52,444,-174,-71,40
52,334,-246,415,-146,-106,-5
53,-141,-573,816,-166,2,9
54,349,-312,1064,79,-8,-138
55,107,-673,977,62,35,-129
56,10,-198,725,137,22,-12
57,321,114,1383,194,21,-5
58,-117,592,1128,119,73,-14
59,-264,634,780,47,33,8
60,-116,545,1097,-40,-6,-13
61,-180,23,1082,-149,-16,4
62,90,-224,909,-108,-44,-1
63,99,-364,1015,-84,-30,7
64,67,-265,954,-18,-15,3
65,137,-231,968,38,6,-23
66,56,-61,1007,70,37,-15
67,-7,202,1053,81,30,-1
68,-31,290,1005,40,25,-4
69,-128,264,983,-8,17,0
70,-106,140,988,-42,-6,7
71,-30,-59,1032,-65,-16,-6
72,-14,-171,966,-47,-20,-1
73,93,-146,991,-12,-19,-4
74,124,-93,1013,13,1,-12
75,65,24,985,38,21,-5
76,11,143,1004,31,28,-3
77,-104,168,1006,8,29,0
78,-171,139,976,-13,8,0
79,-117,76,986,-35,-16,-7
80,0,-19,1009,-46,-27,-7
81,106,-75,1007,-38,-28,-8
82,172,-81,1002,-25,-11,-6
83,111,-52,984,-4,14,-4
84,-12,11,998,8,28,2
85,-131,58,1003,11,24,1
86,-161,98,981,0,8,-2
87,-71,87,995,-14,-15,-7
88,48,58,1013,-28,-24,-9
89,147,13,1008,-34,-17,-7
90,137,-23,998,-31,1,-3
91,28,-47,1005,-23,18,2
92,-88,-37,983,-10,21,3
93,-138,-5,977,2,11,0
94,-87,36,997,4,-8,-5
95,22,70,1011,-4,-19,-8
96,134,82,1009,-16,-15,-8
97,123,59,1001,-27,2,-3
98,34,13,1010,-29,16,2
99,-87,-18,988,-25,18,4
100,-141,-40,981,-16,7,0
101,-99,-31,984,-4,-10,-5
102,23,11,1003,0,-20,-8
103,133,57,1009,-3,-15,-9
104,128,75,1013,-13,3,-4
105,48,67,1002,-22,18,1
106,-85,29,994,-24,22,3
107,-151,-12,977,-23,9,0
108,-130,-32,1001,-17,-10,-5
109,14,-23,1002,-10,-22,-9
110,132,13,969,-5,-17,-11
111,152,40,1033,-5,0,-4
112,75,66,1016,-12,16,1
113,-58,54,968,-17,25,3
114,-158,15,999,-18,15,4
115,-155,5,980,-17,-6,-4
116,-11,-21,1010,-17,-23,-10
117,104,5,996,-15,-24,-7
118,174,15,1007,-14,-7,-7
119,124,28,1000,-11,13,-3
120,-42,44,996,-13,27,7
121,-134,23,1005,-15,18,2
122,-165,8,970,-15,2,-2
123,-49,12,985,-13,-17,-5
124,79,9,1028,-17,-22,-9
125,165,21,1015,-16,-10,-8
126,130,32,980,-15,9,-1
127,-3,26,1000,-17,26,3
128,-131,7,1007,-14,22,3
129,-169,8,966,-11,6,-1
130,-73,7,990,-11,-15,-6
131,49,22,1011,-11,-24,-9
132,155,36,1008,-15,-14,-7
133,135,40,1000,-18,6,-3
134,9,28,1016,-19,24,3
135,-107,8,985,-17,20,1
136,-159,0,973,-12,6,0
137,-88,-4,992,-12,-13,-5
138,35,9,1015,-10,-21,-9
139,154,37,1003,-14,-16,-9
140,138,46,1003,-17,4,-3
141,36,38,1015,-19,20,1
142,-100,13,993,-20,23,4
143,-160,2,977,-14,11,1
144,-109,-17,983,-12,-10,-5
145,21,2,1006,-10,-23,-9
146,147,32,1007,-11,-19,-8
147,149,46,1007,-13,1,-5
148,61,42,1006,-18,20,2
149,-78,30,988,-17,24,4
150,-157,2,998,-16,11,2
151,-132,-11,981,-15,-9,-3
152,7,-2,1000,-11,-22,-8
153,131,21,1003,-10,-20,-10
154,156,37,1009,-13,-2,-5
155,88,41,1010,-15,16,-1
156,-65,36,991,-16,27,3
157,-152,8,983,-15,16,2
158,-156,-4,985,-13,-5,-2
159,-44,27,899,-9,-20,-8
160,70,883,479,-148,-44,-6
161,187,10,1485,-132,-2,-7
162,-281,188,814,-101,-13,42
163,277,-300,743,-225,-65,29
164,-215,-576,601,-128,17,51
165,-34,-473,1000,53,-6,-46
166,75,-705,979,106,-2,-129
167,-109,-335,843,195,25,-44
168,425,143,1272,213,-7,-63
169,192,622,1299,175,49,-26
170,-86,802,768,74,56,31
171,-301,657,906,-40,40,-3
172,-305,245,1151,-136,-17,-15
173,-131,-169,1010,-169,-50,15
174,41,-462,980,-118,-63,-9
175,193,-331,927,-53,-58,9
176,334,-295,984,9,-9,-29
177,245,-203,943,68,49,-25
178,-8,76,1104,97,64,4
179,-181,308,1051,74,48,6
180,-320,319,914,28,27,-1
181,-200,264,969,-29,-22,0
182,75,72,1078,-67,-44,-8
183,197,-95,985,-74,-30,-9
184,191,-202,973,-51,-8,4
185,64,-161,1022,-5,20,-1
186,-99,-79,987,24,29,-2
187,-149,66,964,46,18,-2
188,-86,160,1016,31,1,-8
189,44,180,1007,1,-11,-10
190,104,117,1003,-28,-6,-3
191,83,22,1006,-43,5,-1
192,-25,-64,994,-43,12,2
193,-95,-104,992,-24,8,2
194,-101,-83,986,-4,-3,-3
195,0,-4,989,11,-10,-8
196,95,78,1007,14,-8,-7
197,110,126,1015,2,6,-4
198,78,190,1010,-24,17,-2
199,-49,116,986,-47,25,3
200,-134,23,1009,-57,15,5
201,-133,-101,983,-56,-4,-1
202,-29,-125,983,-35,-19,-8
203,95,-89,994,-12,-22,-9
204,150,-13,1002,3,-5,-10
205,107,65,996,7,15,-3
206,-29,112,1006,0,27,5
207,-130,90,1007,-16,19,3
208,-163,38,967,-26,0,-1
209,-57,0,998,-28,-20,-6
210,70,-34,1016,-26,-25,-8
211,152,-33,997,-19,-12,-7
212,136,-5,985,-10,8,-4
213,2,24,1007,-4,26,2
214,-111,39,1005,-5,23,1
215,-164,47,977,-10,8,1
216,-77,45,990,-13,-15,-7
217,38,25,1010,-21,-22,-9
218,144,20,1013,-22,-16,-8
219,135,12,999,-23,3,-2
220,25,3,1002,-18,20,2
221,-100,-9,990,-11,20,3
222,-154,6,976,-6,9,-1
223,-86,15,1000,-5,-10,-7
224,28,34,1000,-8,-19,-9
225,138,56,1003,-14,-13,-8
226,131,47,1009,-21,4,-4
227,31,24,1014,-22,19,2
228,-90,-2,984,-22,19,3
229,-148,-14,979,-15,9,1
230,-96,-17,989,-10,-12,-4
231,24,2,1004,-6,-20,-8
232,142,43,1009,-8,-15,-9
233,140,59,1007,-13,2,-5
234,51,50,1004,-19,20,2
235,-90,29,994,-22,23,5
236,-154,-2,996,-21,10,2
237,-121,-21,980,-16,-10,-4
238,12,-8,989,-11,-22,-9
239,136,18,1014,-10,-19,-9
240,151,40,1010,-11,0,-4
241,76,49,1007,-14,16,0
242,-72,41,986,-16,26,5
243,-159,11,994,-18,13,3
244,-144,-7,986,-16,-7,-3
245,-14,0,997,-14,-22,-8
246,125,13,1004,-12,-22,-10
247,160,25,1005,-15,-5,-4
248,97,40,1004,-14,15,-1
249,-47,38,996,-17,25,5
250,-149,10,994,-15,18,3
251,-156,1,972,-13,-3,-1
252,-33,7,1005,-13,-21,-7
253,94,14,1012,-14,-23,-10
254,161,26,1002,-15,-8,-8
255,117,37,993,-14,11,-3
256,-27,33,1004,-16,24,3
257,-132,5,999,-15,18,2
258,-167,0,970,-13,2,0
259,-51,5,987,-10,-19,-7
260,74,14,1020,-13,-22,-11
261,161,32,1012,-13,-13,-7
262,129,45,996,-14,8,-3
263,-1,31,1002,-17,25,3
264,-128,7,990,-17,21,3
265,-164,1,976,-15,5,0
266,-74,-1,999,-9,-17,-6
267,51,6,1004,-12,-22,-9
268,161,34,1006,-12,-14,-7
269,137,42,1009,-16,6,-3
270,22,36,1012,-17,22,3
271,-58,59,682,-34,3,1
272,-72,288,-79,-272,-70,10
273,-132,177,81,-128,-57,11
274,-242,-167,183,-25,-54,2
275,249,-223,260,-141,-73,-5
276,76,-272,555,-5,21,26
277,435,-99,745,38,-7,-66
278,97,-322,781,-18,38,8
279,-67,286,1031,141,63,23
280,-221,186,1235,-9,47,-6
281,-264,317,778,10,17,-5
282,-96,196,973,-30,-33,5
283,104,61,1154,-96,-36,-16
284,166,-141,989,-63,-11,-7
285,115,-181,877,-45,2,10
286,-9,-124,1074,-20,13,14
287,-70,-108,1020,34,18,-12
288,-116,9,909,29,15,-2
289,7,158,1029,38,0,-6
290,52,156,1052,10,3,-10
291,77,107,972,-23,-1,-1
292,0,25,996,-24,9,6
293,-69,-66,1022,-31,10,0
294,-77,-111,968,-13,2,-1
295,-18,-63,985,16,-7,-6
296,68,-2,1013,18,-7,-10
297,108,63,1011,30,7,-7
298,57,129,993,13,18,-1
299,-62,126,1007,-8,21,3
300,-171,54,993,-17,8,0
301,-180,6,965,-28,-15,0
302,-28,-33,995,-22,-31,-9
303,132,-30,1021,-19,-34,-13
304,207,2,1003,-14,-14,-10
305,155,25,989,-6,13,-6
306,-4,39,1007,-7,31,6
307,-148,40,992,-6,29,5
308,-199,30,971,-13,8,1
309,-95,22,996,-17,-19,-7
310,50,15,1008,-17,-28,-10
311,172,22,1006,-19,-19,-8
312,160,22,1007,-19,3,-5
313,38,7,1010,-16,23,3
314,-105,3,984,-12,25,5
315,-168,2,977,-7,10,1
316,-112,7,991,-5,-12,-5
317,21,28,1007,-10,-24,-10
318,150,48,1010,-13,-18,-10
319,149,50,1004,-20,0,-4
320,51,28,1009,-23,19,3
321,-87,5,992,-20,23,3
322,-155,-12,982,-15,12,2
323,-114,-19,982,-10,-8,-4
324,8,3,999,-7,-20,-9
325,137,39,1012,-7,-19,-10
326,146,55,1006,-12,1,-5
327,65,49,1007,-17,17,2
328,-73,33,991,-19,23,4
329,-157,-2,992,-19,12,3
330,-135,-20,981,-16,-8,-3
331,-1,-11,998,-10,-21,-8
332,125,18,1002,-9,-19,-10
333,155,37,1007,-9,-2,-6
334,89,52,1009,-14,15,1
335,-58,45,990,-17,24,4
336,-150,12,985,-18,16,1
337,-159,-8,983,-16,-4,-2
338,-20,-5,1009,-13,-22,-8
339,104,7,1003,-13,-22,-10
340,162,25,996,-12,-6,-7
341,114,40,1004,-14,14,-2
342,-34,41,1005,-14,26,4
343,-141,16,991,-16,18,4
344,-164,2,973,-16,-1,-2
345,-44,8,996,0,-19,-8
346,76,8,1012,-14,-22,-9
347,162,29,1015,-15,-10,-8
348,129,36,998,-15,11,-2
349,-7,31,993,-17,25,4
350,-127,7,996,-14,20,2
351,-167,7,981,-13,4,0
352,-68,3,991,-12,-15,-6
353,53,14,1004,-11,-22,-8
354,158,35,1009,-14,-14,-8
355,137,40,1007,-15,8,-4
356,17,28,1008,-18,23,2
357,-113,12,985,-18,21,3
358,-159,4,977,-14,7,1
359,-92,-5,992,-14,-15,-6
360,32,9,1008,-12,-23,-9
361,155,37,1010,-12,-15,-9
362,142,45,1003,-16,5,-4
363,38,37,1010,-16,21,2
364,-101,20,992,-17,24,4
365,-160,5,986,-17,10,0
366,-115,-12,979,-11,-12,-4
367,22,5,1000,-11,-23,-8
368,143,26,1016,-11,-19,-10
369,147,42,1004,-14,1,-4
370,68,38,1006,-18,19,0
371,-81,30,989,-17,25,3
372,-160,9,996,-14,13,2
373,-133,-8,984,-16,-8,-3
374,-1,2,994,-12,-21,-7
375,131,22,1008,-12,-21,-10
376,159,34,1008,-13,-3,-6
377,88,39,1008,-15,16,0
378,-56,34,989,-16,26,4
379,-155,4,989,-16,17,3
380,-154,-3,978,-13,-3,-3
381,-53,61,570,-18,-15,6
382,-79,508,-265,-76,24,45
383,98,-51,380,-259,-45,1
384,-187,67,129,-51,-40,8
385,268,-266,118,-198,-54,13
386,-196,-706,431,-181,35,43
387,19,-419,807,125,-17,-58
388,128,-609,908,53,-29,-97
389,-54,-198,800,169,17,-31
390,469,255,1237,205,27,-58
391,114,605,1191,103,73,-19
392,-230,764,742,56,49,42
393,-272,487,1070,-79,9,-15
394,-322,35,1124,-151,-8,-5
395,-121,-305,899,-124,-53,17
396,171,-331,1033,-92,-84,3
397,202,-265,936,-24,-38,-9
398,325,-238,945,27,8,-40
399,231,-148,997,63,59,-6
400,-57,146,1105,100,72,8
401,-243,254,1007,50,43,5
402,-325,306,930,23,17,1
403,-181,208,988,-31,-26,-4
404,103,46,1066,-67,-48,-10
405,228,-104,1000,-61,-31,-9
406,190,-182,950,-42,-3,3
407,75,-159,1011,-1,28,0
408,-102,-66,1026,35,40,1
409,-164,74,954,41,22,-1
410,-94,195,994,30,3,-8
411,10,232,1024,-7,-9,-6
412,94,165,1004,-50,-12,-5
413,92,22,1002,-67,-2,-3
414,-17,-103,988,-64,6,5
415,-75,-174,991,-36,5,1
416,-97,-154,975,-5,-2,-4
417,-14,-35,987,22,-10,-8
418,89,85,1014,28,-10,-12
419,107,166,1010,12,4,-7
420,59,179,1001,-13,16,1
421,-56,109,1005,-39,19,4
422,-134,-8,993,-49,9,2
423,-129,-94,968,-42,-10,-1
424,-10,-109,1001,-22,-21,-6
425,104,-68,1006,-3,-20,-11
426,158,10,996,9,-3,-8
427,113,91,1000,10,17,-3
428,-34,122,1016,-4,28,5
429,-140,89,1000,-18,18,4
430,-174,33,970,-30,0,0
431,-59,-14,991,-30,-20,-6
432,66,-47,1012,-27,-26,-9
433,164,-32,1004,-16,-15,-7
434,148,0,996,-7,7,-4
435,15,31,1002,-1,26,2
436,-113,43,993,-4,25,3
437,-170,57,984,-9,10,0
438,-98,39,999,-13,-14,-4
439,29,26,1002,-21,-24,-7
440,146,15,1004,-25,-17,-7
441,146,4,1005,-21,1,-4
442,41,-5,1016,-20,18,3
443,-84,-6,986,-9,22,3
444,-152,11,976,-5,13,2
445,-108,19,990,-6,-7,-3
446,10,36,1012,-8,-18,-8
447,129,58,1009,-16,-18,-8
448,136,42,1001,-22,-1,-3
449,55,21,1005,-23,17,1
450,-75,-1,989,-23,22,4
451,-147,-18,995,-14,11,2
452,-116,-20,978,-7,-7,-5
453,9,7,997,-5,-20,-9
454,128,47,1014,-6,-17,-10
455,140,55,1010,-14,0,-5
456,76,51,1009,-18,15,0
457,-72,30,990,-22,24,4
458,-147,-4,987,-18,12,0
459,-138,-28,986,-15,-6,-3
460,-7,-5,1004,-9,-21,-8
461,115,15,999,-11,-21,-10
462,155,33,1004,-10,-4,-8
463,94,51,1003,-12,14,0
464,-49,44,1002,-18,25,4
465,-141,12,994,-20,16,2
466,-162,-2,971,-17,-2,-2
467,-35,0,1001,-14,-21,-8
468,91,5,1018,-14,-23,-10
469,163,25,1005,-13,-8,-7
470,121,41,989,-15,11,-2
471,-18,38,1004,-15,26,5
472,-134,11,998,-16,20,2
473,-165,6,969,-16,2,0
474,-60,0,995,-11,-17,-7
475,62,12,1014,-12,-23,-10
476,162,29,1006,-13,-13,-8
477,131,41,1002,-17,8,-3
478,9,32,1009,-18,24,2
479,-120,11,984,-13,21,4
480,-164,7,972,-12,6,0
481,-88,-3,1000,-12,-15,-5
482,43,11,1007,-12,-24,-8
483,160,31,1001,-12,-15,-8
484,142,45,1005,-16,4,-4
485,32,30,1018,-19,21,2
486,-100,20,987,-17,23,2
487,-164,6,975,-15,9,3
488,-108,-5,990,-13,-12,-6
489,23,3,1004,-12,-22,-8
490,140,30,1006,-13,-17,-8
491,178,222,378,-19,-3,9
492,254,56,110,28,116,-13
493,-346,217,115,-209,41,51
494,45,-167,155,-149,-116,39
495,22,-477,155,-236,-57,40
496,-217,-583,591,-47,23,-1
497,431,-449,624,135,-10,-202
498,-225,-562,731,26,38,-81
499,284,-251,748,237,-35,-67
500,406,246,1490,208,46,-8
501,-99,686,847,115,84,-6
502,-210,726,898,74,41,6
503,-274,622,1145,-81,7,-20
504,-330,48,996,-160,-28,19
505,151,-294,939,-129,-61,-16
506,74,-376,1057,-115,-40,19
507,181,-296,861,-18,-36,-6
508,246,-343,990,21,10,-23
509,58,-123,965,89,58,-10
510,-20,122,1116,108,48,-4
511,-110,340,1023,62,35,-8
512,-216,380,948,19,19,6
513,-78,276,999,-48,-17,-2
514,4,15,1071,-91,-19,-4
515,48,-187,943,-71,-22,0
516,59,-233,977,-41,-16,5
517,75,-181,1015,6,0,-9
518,32,-73,971,43,17,-10
519,36,109,995,49,20,-7
520,-20,216,1036,33,23,-3
521,-70,209,1001,-3,16,1
522,-99,115,980,-38,3,4
523,-79,-12,998,-48,-11,-1
524,-4,-116,1004,-48,-24,-3
525,74,-123,988,-21,-21,-7
526,132,-67,987,2,-7,-8
527,95,19,1005,14,13,-5
528,5,94,1018,17,26,0
529,-102,128,992,2,23,3
530,-140,103,991,-14,9,0
531,-89,41,995,-26,-13,-4
532,29,-8,1006,-34,-23,-8
533,134,-35,1003,-29,-19,-9
534,127,-38,995,-23,1,-5
535,66,-16,1005,-11,18,1
536,-68,18,987,-3,25,2
537,-137,47,997,-3,14,2
538,-122,52,995,-10,-4,-3
539,0,50,1000,-15,-17,-7
540,109,32,996,-24,-17,-8
541,137,-6,1007,-25,-3,-5
542,82,-25,1006,-19,14,0
543,-50,-17,978,-10,25,4
544,-133,0,990,1,17,0
545,-146,34,989,0,0,-3
546,-22,64,1008,-4,-17,-7
547,90,64,1010,-14,-19,-8
548,143,41,1004,-25,-6,-5
549,100,24,993,-26,12,-1
550,-34,-8,999,-27,21,4
551,-129,-27,995,-14,15,2
552,-143,-19,972,-8,1,0
553,-35,16,996,-2,-15,-7
554,73,40,1015,-4,-17,-10
555,151,65,1016,-11,-6,-7
556,108,61,1002,-20,11,-1
557,-17,33,996,-26,23,3
558,-125,-8,989,-23,18,3
559,-155,-21,982,-18,1,-1
560,-60,-22,997,-12,-18,-6
561,60,0,1004,-6,-22,-10
562,161,39,1001,-7,-10,-8
563,130,62,1012,-12,10,-2
564,13,50,1017,-18,24,2
565,-114,25,981,-21,22,3
566,-160,1,972,-19,6,2
567,-97,-16,997,-15,-13,-4
568,37,-9,1003,-12,-23,-8
569,155,22,1004,-10,-17,-10
570,147,39,1005,-13,3,-4
571,46,39,1006,-13,22,1
572,-94,33,988,-17,25,5
573,-169,5,988,-15,12,2
574,-132,-17,974,-12,-11,-3
575,11,47,996,-19,-27,-9
576,146,23,1068,-14,-20,-11
577,137,28,969,-18,-1,-3
578,97,-10,986,-17,14,-1
579,-86,13,1011,-11,25,5
580,-131,3,998,-6,14,0
581,-131,12,966,-7,-2,-5
582,-24,47,1010,-8,-18,-7
583,115,57,1015,-15,-20,-10
584,146,34,993,-22,-3,-7
585,84,26,996,-24,14,1
586,-36,3,1011,-20,24,2
587,-133,-27,983,-14,16,2
588,-151,-14,964,-7,-1,-1
589,-23,16,1014,-4,-19,-9
590,80,37,1014,-7,-18,-9
591,151,55,996,-13,-7,-7
592,111,58,1003,-18,11,-3
593,-27,30,998,-21,22,3
594,-128,-9,994,-21,16,3
595,-152,-21,977,-15,2,-1
596,-46,-11,994,-9,-18,-6
597,76,11,1006,-8,-23,-10
598,154,41,1015,-8,-10,-7
599,126,59,1003,-14,9,-3
600,-5,45,1003,-17,24,3
601,-124,16,983,-17,21,4
602,-164,-1,980,-17,4,2
603,-74,-14,997,-15,-16,-5
604,46,-4,1004,-11,-24,-9
605,162,27,1004,-10,-13,-9
606,139,46,1004,-13,7,-5
607,25,41,1015,-16,23,2
608,-107,26,991,-17,22,2
609,-166,12,978,-14,10,1
610,-106,-5,980,-14,-12,-4
611,26,1,1013,-13,-23,-10
612,148,24,1007,-13,-19,-10
613,-645,-25,808,5,3,-15
614,-878,24,619,19,-39,-103
615,230,70,1084,-24,-120,-155
616,310,196,836,-49,-25,-107
617,11,-34,709,-106,45,-95
618,-58,-232,977,8,33,-153
619,119,85,1218,54,-19,-150
620,257,36,1063,-18,-24,-120
621,-17,6,751,-12,35,-122
622,-10,-87,915,-14,43,-126
623,192,-30,1319,40,-21,-140
624,301,191,1012,-2,-41,-32
625,162,53,745,-58,17,-8
626,86,-42,1020,-3,42,-52
627,204,75,1159,4,0,-33
628,328,-1,989,-21,-7,12
629,103,81,818,-2,48,27
630,-136,35,1169,-24,55,18
631,-209,-33,1027,-16,29,-6
632,-191,-19,837,-5,5,7
633,-87,18,1008,-10,-19,0
634,65,42,1134,-9,-20,-13
635,173,48,909,-17,-13,-12
636,93,56,972,-22,10,9
637,-8,38,1094,-22,18,2
638,-105,-30,969,-25,18,2
639,-113,-23,919,-8,4,2
640,-50,-11,1043,-9,-10,-5
641,93,16,1023,-5,-16,-13
642,105,43,956,-5,0,-3
643,53,77,1021,-14,13,3
644,-45,39,1034,-20,18,0
645,-119,14,948,-19,10,2
646,-103,-9,984,-19,-5,0
647,-7,-19,1022,-13,-16,-10
648,106,1,995,-9,-12,-7
649,118,32,979,-8,2,-3
650,44,47,1031,-9,16,0
651,-61,42,1001,-14,19,0
652,-139,32,976,-14,11,2
653,-106,7,986,-16,-7,-4
654,1,0,1008,-15,-19,-8
655,113,15,1000,-15,-18,-8
656,133,21,1000,-14,0,-5
657,69,27,1010,-13,15,0
658,-62,28,989,-13,21,2
659,-137,17,1001,-13,13,1
660,-125,4,988,-13,-6,-3
661,-5,15,994,-13,-20,-7
662,114,25,1002,-14,-19,-9
663,145,26,1010,-17,-4,-4
664,87,26,1002,-21,10,0
665,-46,18,994,-18,23,3
666,-133,3,992,-13,16,2
667,-142,-4,976,-12,-3,-3
668,-19,12,1011,-10,-19,-6
669,95,29,1009,-13,-20,-7
670,149,35,995,-16,-4,-6
671,103,43,997,-18,13,-1
672,-35,29,1007,-20,24,5
673,-130,-1,995,-19,16,2
674,7,252,224,-33,-22,-8
675,361,277,703,-29,-90,-10
676,-165,64,169,-27,15,-17
677,450,-74,248,-64,-27,-41
678,89,-3,764,16,16,42
679,-41,36,1004,-10,11,-5
680,87,-230,676,-47,27,-21
681,-364,90,1094,66,59,41
682,-53,151,1050,-34,-27,-19
683,39,34,998,10,-18,-30
684,38,164,894,-20,-18,25
685,166,64,1148,-64,1,-10
686,99,-102,1014,-28,28,-19
687,-151,-78,865,-30,13,33
688,-93,-18,1062,-6,-1,-10
689,-86,-80,1042,9,5,-14
690,5,89,886,2,-9,4
691,150,99,1073,2,-9,-11
692,111,93,1051,-16,6,-10
693,21,42,937,-28,17,9
694,-93,0,1007,-21,25,1
695,-142,-57,1019,-27,8,0
696,-75,-58,952,-5,-13,-5
697,-4,-27,1003,8,-19,-6
698,137,61,1013,-1,-16,-10
699,148,60,1008,3,6,-8
700,53,85,1004,-11,18,4
701,-63,51,998,-19,22,3
702,-160,6,981,-19,16,1
703,-141,-16,984,-19,-7,-1
704,5,-10,995,-14,-21,-10
705,121,-2,994,-12,-20,-9
706,158,28,1003,-11,-4,-4
707,86,41,1015,-10,17,-3
708,-57,40,986,-13,28,2
709,-147,22,991,-13,16,3
710,-160,5,982,-15,-3,-3
711,-29,5,1003,-16,-22,-7
712,100,10,1007,-15,-24,-10
713,154,20,1004,-17,-7,-7
714,117,30,995,-14,11,-2
715,-28,27,996,-14,24,4
716,-135,14,997,-12,19,3
717,-162,6,979,-12,2,-1
718,-52,10,989,-11,-17,-6
719,72,18,1009,-14,-23,-9
720,156,33,1019,-17,-11,-8
721,129,36,1000,-17,9,-3
722,-118,21,1034,-15,23,2
723,-1269,-43,416,4,9,-56
724,-162,9,708,6,-120,-156
725,489,193,987,-58,-121,-118
726,188,61,650,-85,11,-111
727,-15,-216,790,-63,75,-172
728,-33,-160,1068,54,38,-222
729,288,73,1312,53,-38,-146
730,137,125,845,-33,-19,-97
731,-134,-33,753,-34,40,-106
732,-102,-31,1141,17,19,-143
733,147,155,1305,11,-57,-101
734,111,207,734,-54,-24,-45
735,-63,-71,834,-72,32,-105
736,46,-86,1135,10,13,-153
737,222,73,1176,-2,-29,-87
738,178,30,867,-39,-20,-39
739,72,-18,852,-19,19,-38
740,192,-21,1139,4,25,-38
741,134,0,1074,3,19,-1
742,112,56,842,1,18,27
743,29,76,1065,-6,44,12
744,-207,45,1058,-17,43,9
745,-168,9,911,-17,7,3
746,-111,-5,993,-18,-8,2
747,-23,8,1045,-16,-19,-1
748,175,10,1002,-12,-22,-14
749,131,4,965,-11,10,-2
750,35,56,1010,-10,21,5
751,-32,29,1032,-11,25,-1
752,-168,5,958,-10,21,4
753,-158,31,962,-12,-4,2
754,-8,12,1045,-14,-19,-11
755,70,11,988,-16,-19,-7
756,152,26,986,-17,-10,-2
757,117,27,1029,-19,13,-5
758,-26,13,989,-16,25,5
759,-126,7,973,-14,18,4
760,-161,8,1004,-11,6,0
761,-66,18,994,-8,-16,-5
762,58,26,990,-11,-21,-9
763,146,47,1017,-14,-11,-7
764,130,45,1013,-19,6,-4
765,19,21,1005,-20,21,0
766,-113,4,977,-19,20,4
767,-151,-5,989,-13,4,1
768,-84,-10,994,-10,-14,-5
769,30,13,1001,-9,-22,-8
770,155,46,1011,-12,-16,-9
771,138,49,1005,-17,4,-4
772,39,40,1010,-21,19,2
773,-94,17,992,-19,22,4
774,-172,-60,699,-11,-4,0
775,-167,226,0,97,-10,-26
776,-9,290,499,-73,-56,2
777,-2,-76,155,-8,-28,-36
778,486,81,416,-4,-19,-11
779,-263,6,971,-82,65,52
780,304,-28,698,28,-7,-55
781,-250,-251,956,-41,36,31
782,-154,232,1083,35,-7,12
783,11,-56,1054,-7,6,-35
784,48,153,861,-13,-3,-1
785,7,117,1059,-20,-13,25
786,212,39,1105,-40,-1,-40
787,-96,-119,887,-47,29,23
788,-94,20,962,4,11,10
789,-112,-128,1115,-28,1,-18
790,-81,-22,907,29,-19,1
791,66,74,972,10,-22,-2
792,179,108,1113,-4,-2,-21
793,122,113,966,-7,14,6
794,-3,88,965,-29,24,4
795,-169,-21,1059,-33,21,1
796,-155,-70,948,-16,-2,-2
797,-50,-71,968,-13,-17,-6
798,77,-11,1031,5,-24,-10
799,192,48,1021,3,-10,-10
800,114,94,987,-5,15,0
801,-33,106,1012,-12,26,6
802,-124,38,998,-26,20,-1
803,-177,-2,961,-25,2,3
804,-65,-30,998,-23,-22,-5
805,82,-38,1020,-17,-25,-11
806,163,7,980,-8,-13,-6
807,138,53,997,-11,6,-3
808,17,54,1037,-15,25,0
809,-118,43,970,-16,22,4
810,-165,26,974,-18,7,3
811,-98,-11,1004,-19,-14,-5
812,31,-16,998,-18,-25,-7
813,156,9,1002,-18,-20,-8
814,141,23,1016,-13,3,-2
815,57,31,999,-13,21,1
816,-89,31,984,-12,25,6
817,-166,26,1002,-11,12,2
818,-131,8,987,-15,-9,-5
819,10,12,987,-15,-22,-9
820,128,25,1009,-16,-20,-7
821,156,23,1015,-18,-1,-6
822,77,22,1003,-15,17,0
823,-66,18,980,-14,26,4
824,-154,3,997,-12,16,2
825,-148,-3,981,-12,-3,-2
826,-17,18,1003,-10,-21,-6
827,112,33,1010,-11,-22,-10
828,158,34,1002,-17,-6,-7
829,-2,27,988,-16,14,-2
830,-1236,-40,352,13,23,-37
831,-27,-61,460,-21,-109,-134
832,590,224,629,-20,-139,-97
833,392,179,483,-57,0,-31
834,136,-232,868,-108,67,-82
835,-8,-40,876,54,56,-142
836,307,-52,1292,29,-25,-114
837,288,97,835,-20,-25,-62
838,-6,-63,759,-11,51,-14
839,7,-12,1109,11,38,-54
840,132,62,1301,13,-32,-15
841,220,163,708,-2,-20,38
842,79,56,968,-32,39,0
843,6,82,1151,-14,29,-4
844,31,-64,1023,-34,11,13
845,-46,-9,841,-12,21,4
846,-205,-35,1045,-11,13,21
847,20,31,1081,-4,-11,-19
848,-6,-27,927,-9,3,-7
849,71,100,951,3,-8,6
850,131,70,1134,-23,4,-7
851,5,26,944,-16,23,-1
852,-102,29,927,-24,14,15
853,-86,3,1087,-24,4,0
854,-113,-49,982,-15,-4,-4
855,17,-15,913,-9,-20,-3
856,111,27,1065,-7,-11,-8
857,110,43,1018,-8,4,-7
858,65,49,967,-13,15,1
859,-76,61,994,-13,24,5
860,-146,19,1019,-20,10,0
861,-108,-6,975,-17,-8,-4
862,-18,-8,992,-12,-17,-5
863,110,13,1008,-13,-19,-9
864,146,12,1009,-11,-1,-7
865,69,39,990,-10,14,1
866,-50,44,1002,-13,22,4
867,-134,19,1001,-12,15,1
868,-149,12,964,-14,-2,-1
869,-18,15,1008,-14,-20,-8
870,91,14,1025,-16,-19,-10
871,149,22,994,-15,-5,-6
872,113,29,996,-14,12,-2
873,-26,24,1005,-19,23,3
874,-126,10,997,-13,16,3
875,-152,6,980,-12,1,0
876,-46,12,994,-11,-17,-6
877,71,19,1007,-14,-21,-9
878,155,32,1014,-18,-12,-8
879,124,35,1002,-18,8,-2
880,1,19,1001,-19,23,4
881,-117,5,984,-16,20,4
882,-156,-3,984,-12,4,-1
883,-73,1,993,-11,-15,-5
884,41,18,1006,-12,-22,-10
885,157,39,1005,-13,-14,-9
886,132,44,1004,-16,7,-2
887,26,29,1010,-18,20,2
888,-101,9,992,-18,22,3
889,-155,0,954,-15,7,1
890,30,5,-45,-82,-82,1
891,176,194,404,-53,-82,-10
892,-64,-21,426,-24,17,-16
893,398,25,634,-62,-21,-28
894,-222,3,1030,-6,29,48
895,152,38,805,-19,-20,-37
896,-136,-208,882,-23,45,8
897,-172,161,1090,32,12,20
898,63,-5,1077,-35,-21,-29
899,74,81,884,18,-7,-11
900,-3,106,990,-31,-2,26
901,146,55,1131,-33,14,-28
902,-87,-87,924,-27,24,8
903,-111,10,916,-15,-5,15
904,-63,-67,1110,-11,-3,-17
905,-1,-13,959,5,-6,-4
906,89,67,953,-3,-11,1
907,123,69,1076,0,3,-13
908,46,62,988,-16,13,1
909,-53,48,950,-19,20,7
910,-134,-6,1045,-22,15,-1
911,-103,-29,972,-19,-7,-4
912,-3,-23,974,-6,-19,-5
913,48,2,1021,-6,-18,-7
914,139,33,1023,-6,-7,-8
915,92,52,985,-4,12,-4
916,-28,67,1000,-14,20,5
917,-96,26,1007,-15,15,-2
918,-139,4,975,-18,5,1
919,-53,0,994,-18,-18,-5
920,50,2,1010,-16,-21,-10
921,129,22,983,-14,-11,-6
922,106,46,1012,-18,5,-3
923,9,35,1017,-17,20,2
924,-96,11,971,-17,17,2
925,-132,6,980,-16,4,1
926,-79,-10,1005,-13,-12,-4
927,36,0,999,-12,-19,-8
928,138,31,1004,-13,-14,-8
929,124,43,1007,-14,4,-4
930,34,35,999,-15,19,2
931,-93,28,986,-17,23,4
932,-146,10,1004,-15,9,1
933,-106,-7,980,-15,-12,-5
934,25,5,993,-13,-21,-9
935,133,22,1012,-14,-16,-10
936,142,33,1012,-15,3,-5
937,63,35,1002,-18,18,0
938,-76,29,985,-17,23,4
939,-150,9,995,-14,13,1
940,-138,-2,984,-13,-6,-3
941,0,8,1003,-13,-21,-8
942,122,20,1007,-12,-21,-10
943,76,24,989,-15,-2,-6
944,-1284,-2,416,-16,28,-35
945,-77,5,404,-40,-97,-110
946,475,173,761,-23,-109,-91
947,345,148,521,-70,20,-40
948,6,-272,946,-78,62,-88
949,29,17,972,70,13,-122
950,300,-38,1235,-3,-28,-64
951,199,83,798,-9,-3,-43
952,-35,-41,818,-8,56,-15
953,-16,4,1186,5,18,-55
954,124,50,1178,7,-38,-3
955,195,145,726,-15,-9,36
956,-4,30,1049,-29,37,6
957,16,79,1089,-16,7,-6
958,104,-79,1006,-37,0,-4
959,23,-9,876,-7,21,4
960,-115,-31,1056,-13,18,18
961,7,32,1052,-4,4,-16
962,-97,-11,932,-1,11,0
963,-5,105,965,0,-9,2
964,109,52,1114,-20,-3,-12
965,71,43,930,-15,9,-5
966,33,24,973,-30,11,12
967,-19,-4,1066,-24,17,0
968,-118,-42,978,-19,15,4
969,-86,-17,932,-7,-4,4
970,-28,12,1044,-2,-7,-5
971,74,36,1004,-4,-12,-10
972,109,57,982,-9,0,-2
973,55,70,1013,-16,14,0
974,-54,39,1003,-23,19,2
975,-106,0,984,-21,10,2
976,-123,-26,990,-18,-3,1
977,-3,-12,997,-11,-16,-8
978,99,-1,999,-7,-14,-9
979,114,37,992,-9,-1,-5
980,77,54,1018,-12,11,-2
981,-49,51,996,-15,21,2
982,-132,27,983,-18,13,3
983,-132,3,987,-18,-4,-3
984,-27,0,1011,-16,-18,-6
985,89,5,1002,-14,-20,-9
986,144,18,1004,-13,-6,-7
987,103,34,996,-13,12,-2
988,-26,32,1001,-13,24,4
989,-122,17,1002,-14,16,1
990,-151,13,978,-12,2,-2
991,-41,9,990,-11,-17,-7
992,66,13,1010,-14,-20,-8
993,151,30,1012,-15,-12,-7
994,124,29,1002,-17,7,-3
995,-1,19,1000,-17,22,2
996,-111,10,985,-16,21,2
997,-153,4,983,-11,6,0
998,-74,5,995,-12,-15,-5
999,45,15,1008,-13,-21,-7
1000,153,38,1003,-16,-13,-7
1001,129,37,1002,-18,6,-1
1002,22,26,1018,-18,21,3
1003,-104,8,986,-17,21,3
1004,-156,5,976,-14,8,1
1005,-96,-4,989,-9,-10,-5
1006,23,16,1005,-12,-20,-8
1007,144,38,1008,-13,-17,-9
1008,136,43,1006,-16,4,-5
1009,48,37,1001,-17,20,0
1010,-91,16,989,-17,24,3
1011,-158,3,994,-15,11,1
1012,-125,-12,988,-13,-10,-4
1013,12,11,992,-10,-20,-8
1014,129,29,1007,-11,-16,-9
1015,153,38,1008,-14,0,-5
1016,74,37,1009,-17,16,0
1017,-67,28,987,-14,24,2
1018,-148,1,988,-15,14,2
1019,-147,-6,982,-14,1,0
1020,-13,3,1009,-11,-22,-8
1021,112,23,1006,-10,-21,-9
1022,158,33,1000,-16,-5,-7
1023,104,40,999,-17,15,-1
1024,54,-17,284,34,34,17
1025,117,262,335,76,79,14
1026,-325,154,225,-60,-18,7
1027,59,-132,288,28,-45,-42
1028,163,-12,694,-38,-21,14
1029,6,-6,988,-31,13,7
1030,403,-118,635,25,-14,-49
1031,-219,0,1094,-5,41,46
1032,-62,241,1102,16,3,-9
1033,-121,0,979,-18,29,-19
1034,-151,163,848,-28,-12,18
1035,21,21,1125,-32,-38,-4
1036,224,-58,1037,-44,-20,-35
1037,49,-95,882,-29,11,25
1038,69,25,1050,-1,17,-5
1039,-93,-74,1065,-16,19,-8
1040,-162,83,869,21,2,11
1041,-73,68,1045,-6,-8,-4
1042,40,57,1053,-17,-11,-16
1043,128,36,943,-17,-16,1
1044,117,26,1013,-28,0,-4
1045,12,-24,1042,-22,18,0
1046,-78,-16,946,-13,19,3
1047,-144,1,1000,-9,10,3
1048,-76,22,1011,-2,-13,-9
1049,49,35,986,-7,-17,-9
1050,118,57,1002,-10,-8,-6
1051,108,48,1024,-18,8,-3
1052,34,12,990,-21,18,-1
1053,-102,4,977,-15,19,6
1054,-130,-7,1005,-13,8,0
1055,-91,-15,990,-10,-8,-6
1056,34,25,998,-7,-18,-6
1057,126,43,1018,-10,-13,-9
1058,130,38,999,-14,5,-5
1059,43,40,989,-14,20,3
1060,-78,27,1001,-18,23,4
1061,-140,-7,999,-16,11,1
1062,-103,1,966,-15,-8,-2
1063,23,20,1010,-14,-17,-8
1064,108,30,1024,-14,-12,-10
1065,132,31,999,-16,3,-4
1066,55,32,989,-18,19,0
1067,-71,16,999,-18,24,5
1068,-130,-3,988,-16,13,0
1069,-131,0,976,-14,-2,-2
1070,-10,14,1007,-10,-19,-8
1071,92,18,1007,-12,-17,-11
1072,143,38,987,-12,-4,-6
1073,89,45,1010,-13,14,-1
1074,-33,22,1015,-15,25,2
1075,-134,6,967,-15,17,2
1076,-140,5,979,-14,-2,-1
1077,-54,0,1008,-12,-19,-8
1078,68,15,1005,-11,-21,-9
1079,158,39,1004,-13,-12,-9
1080,120,44,1005,-14,9,-2
1081,12,27,1004,-16,22,4
1082,-117,15,980,-19,22,3
1083,-163,0,998,-14,6,0
1084,-92,-7,988,-13,-15,-7
1085,43,12,995,-10,-23,-8
1086,154,39,1013,-11,-16,-9
1087,142,40,1013,-17,5,-3
1088,48,33,1001,-19,20,2
1089,-92,19,980,-18,26,3
1090,-163,-1,994,-15,11,1
1091,-129,-7,986,-12,-9,-4
1092,14,9,1006,-10,-23,-8
1093,135,33,1004,-12,-19,-9
1094,160,38,1003,-14,-1,-5
1095,79,40,1005,-17,17,0
1096,-68,29,999,-19,25,4
1097,-152,0,990,-17,15,3
1098,-150,-8,971,-13,-4,-2
1099,-14,7,1001,-11,-21,-6
1100,104,21,1019,-11,-21,-10
1101,164,37,1005,-13,-7,-8
1102,107,47,994,-16,14,-2
1103,-37,32,1004,-17,25,4
1104,-146,2,993,-18,18,3
1105,-160,-3,973,-15,1,0
1106,-47,3,1001,-11,-19,-6
1107,77,13,1008,-14,-22,-9
1108,166,35,1006,-13,-10,-7
1109,127,42,1010,-16,9,-2
1110,-7,34,1010,-19,24,3
1111,-124,10,978,-16,20,2
1112,-165,6,975,-14,4,1
1113,-80,-8,1001,-13,-16,-6
1114,53,11,1008,-12,-22,-8
1115,161,32,1000,-14,-14,-8
1116,139,45,1006,-14,7,-3
1117,26,29,1010,-16,21,1
1118,-111,17,985,-17,23,3
1119,-165,6,986,-14,9,0
1120,-111,-7,988,-14,-13,-5
1121,29,13,998,-11,-24,-9
1122,148,30,1013,-13,-17,-8
1123,-230,-43,881,-12,0,-7
1124,-1037,125,160,4,-11,-10
1125,127,39,406,-69,-146,-15
1126,493,201,464,-45,-54,-4
1127,191,53,339,-91,61,20
1128,10,-249,856,-24,44,-52
1129,156,125,985,28,-35,-73
1130,350,-52,1061,-47,-41,-32
1131,82,0,773,-6,24,-47
1132,-15,-65,885,-13,55,-26
1133,94,-81,1250,25,8,-68
1134,134,51,1063,7,-27,-6
1135,144,89,751,-18,-5,39
1136,90,66,1088,8,36,2
1137,9,107,1072,-14,26,3
1138,116,-32,1007,-26,4,-2
1139,-7,32,874,-9,27,13
1140,-148,-14,1076,-22,21,18
1141,-49,6,1037,-6,3,-14
1142,-90,-32,926,-8,3,0
1143,17,68,970,-4,-16,-2
1144,126,30,1108,-14,-4,-11
1145,93,49,946,-15,10,-6
1146,19,28,968,-21,18,11
1147,-44,17,1057,-20,19,-1
1148,-125,-32,978,-19,12,4
1149,-81,-9,945,-5,-4,1
1150,-20,12,1042,-8,-10,-4
1151,89,33,1000,-6,-11,-11
1152,105,47,975,-11,1,-4
1153,41,59,1023,-14,14,0
1154,-69,26,1008,-20,18,2
1155,-112,3,976,-18,10,0
1156,-110,-15,981,-13,-5,-1
1157,0,-3,1005,-10,-17,-9
1158,106,14,1006,-12,-14,-9
1159,111,42,994,-11,1,-2
1160,60,45,1011,-14,15,0
1161,-65,41,992,-16,20,2
1162,-138,17,990,-16,11,2
1163,-117,-2,990,-19,-7,-4
1164,-2,2,1004,-15,-17,-7
1165,107,16,995,-12,-18,-7
1166,138,24,1003,-13,-5,-6
1167,81,33,1012,-14,13,-2
1168,-47,33,993,-16,22,4
1169,-131,11,992,-14,14,1
1170,-137,5,982,-12,-3,-3
1171,-19,14,1005,-16,-20,-7
1172,95,21,1010,-15,-20,-7
1173,149,26,1005,-15,-6,-6
1174,111,33,993,-19,13,0
1175,-30,20,1000,-19,24,5
1176,-128,0,998,-15,16,1
1177,-149,0,978,-13,1,-1
1178,-41,11,992,-11,-17,-7
1179,69,22,1012,-12,-19,-8
1180,151,37,1010,-15,-11,-6
1181,120,38,1003,-16,8,-2
1182,-4,25,1002,-19,23,4
1183,-124,5,982,-16,20,4
1184,-150,0,981,-13,3,0
1185,-79,-2,999,-12,-15,-6
1186,48,18,1001,-9,-21,-9
1187,155,37,1010,-11,-13,-9
1188,127,47,1000,-14,7,-3
1189,19,27,1007,-17,22,3
1190,-105,18,989,-17,21,3
1191,-161,3,982,-15,7,0
1192,-100,-8,986,-9,-12,-7
1193,28,10,1006,-10,-22,-9
1194,142,38,1011,-12,-17,-7
1195,143,40,1003,-15,4,-5
1196,50,32,1006,-18,20,1
1197,-88,24,985,-19,24,4
1198,-158,-1,995,-15,10,1
1199,-124,-10,986,-15,-10,-3
1200,11,8,999,-10,-21,-9
1201,132,29,1001,-11,-19,-10
1202,153,35,1006,-15,-2,-4
1203,82,41,1007,-16,16,-1
1204,-64,28,992,-19,25,4
1205,-148,4,984,-15,14,2
1206,-148,-5,981,-12,-5,-2
1207,-12,5,1009,-12,-22,-7
1208,109,24,1012,-11,-22,-8
1209,162,32,1004,-14,-5,-6
1210,107,45,995,-14,14,-1
1211,-39,29,1003,-17,26,5
1212,-141,3,994,-17,17,3
1213,-159,-2,971,-14,-1,-2
1214,-43,5,993,-12,-20,-8
1215,78,17,1013,-13,-23,-8
1216,161,38,1011,-14,-10,-8
1217,120,44,1004,-17,11,-2
1218,-11,26,1001,-19,24,3
1219,-130,5,983,-16,19,2
1220,-140,118,397,-63,-11,11
1221,232,290,245,-86,-42,2
1222,-155,90,335,-194,-56,-4
1223,57,-65,369,-28,-48,-12
1224,293,-382,605,-156,-49,40
1225,1,-431,1166,3,32,30
1226,356,-306,867,69,-9,-64
1227,-61,-381,832,52,66,20
1228,-45,467,1124,179,63,-13
1229,-187,327,1259,32,28,-8
1230,-184,613,689,9,0,0
1231,-97,210,1089,-83,-20,8
1232,74,-8,1130,-120,-23,-14
1233,53,-314,930,-101,-21,7
1234,86,-278,882,-34,-26,12
1235,43,-233,1065,1,4,2
1236,75,-97,1000,60,24,-31
1237,-17,97,970,60,28,2
1238,7,329,1032,43,18,-6
1239,-85,250,1029,-8,17,-2
1240,-73,179,968,-49,-1,3
1241,-57,-53,1017,-68,-8,4
1242,-28,-166,985,-49,-18,-4
1243,68,-186,994,-27,-22,-2
1244,111,-93,986,16,-5,-12
1245,97,14,1001,27,16,-7
1246,40,142,1012,32,25,-4
1247,-86,181,1004,9,27,5
1248,-143,121,991,-19,12,2
1249,-116,34,994,-36,-7,0
1250,-2,-47,1004,-39,-21,-4
1251,91,-85,993,-29,-22,-9
1252,151,-61,1004,-11,-6,-7
1253,92,-5,1002,3,15,-3
1254,-25,45,996,10,27,1
1255,-122,73,989,7,22,0
1256,-154,83,987,-5,4,0
1257,-67,53,1006,-17,-16,-5
1258,48,14,999,-26,-22,-8
1259,139,-3,993,-24,-14,-8
1260,126,-16,1002,-19,2,-4
1261,23,-28,1014,-11,18,1
1262,-89,-3,976,0,19,3
1263,-139,31,988,3,9,1
1264,-87,58,997,-2,-9,-5
1265,26,64,1006,-12,-20,-8
1266,129,63,1008,-20,-16,-8
1267,117,28,1006,-28,1,-3
1268,46,-7,1000,-25,16,0
1269,-84,-21,977,-18,21,4
1270,-137,-22,1000,-10,9,1
1271,-103,-10,993,-5,-9,-5
1272,18,32,991,-1,-18,-8
1273,122,64,1007,-7,-14,-9
1274,134,60,1017,-17,2,-4
1275,54,45,1002,-21,16,2
1276,-70,16,987,-25,21,6
1277,-141,-20,993,-20,12,2
1278,-132,-28,978,-14,-8,-3
1279,4,0,1007,-9,-22,-8
1280,112,27,1015,-6,-18,-11
1281,152,46,1002,-11,-1,-5
1282,93,59,992,-14,16,-1
1283,-54,43,1004,-18,24,5
1284,-146,4,993,-21,14,2
1285,-153,-10,973,-16,-3,-2
1286,-29,-7,997,-12,-21,-8
1287,85,8,1012,-11,-21,-9
1288,166,30,1010,-11,-9,-7
1289,117,47,1003,-14,12,-2
1290,-16,39,1004,-15,27,3
1291,-135,16,980,-17,21,2
1292,-165,9,980,-12,2,0
1293,-67,0,1002,-13,-19,-7
1294,61,7,1005,-11,-23,-9
1295,162,34,1002,-14,-14,-8
1296,137,38,1008,-15,8,-4
1297,17,28,1007,-16,23,2
1298,-113,13,984,-16,23,4
1299,-164,4,987,-13,9,1
1300,-100,-2,987,-10,-13,-5
1301,35,11,1001,-10,-24,-9
1302,150,36,1013,-13,-17,-9
1303,147,41,1006,-18,3,-5
1304,53,28,1006,-19,20,1
1305,-93,17,981,-17,24,4
1306,-155,2,996,-14,11,1
1307,-130,-6,989,-11,-8,-5
1308,16,14,995,-10,-21,-9
1309,134,32,1005,-12,-18,-9
1310,155,34,1005,-13,-2,-5
1311,79,35,1007,-16,17,0
1312,-68,25,988,-17,26,4
1313,-152,-3,993,-15,14,1
1314,-144,-6,977,-13,-4,-3
1315,-17,9,1002,-9,-21,-8
1316,110,24,1014,-11,-21,-10
1317,158,33,1010,-14,-4,-8
1318,107,43,987,-16,14,-1
1319,-36,27,1000,-18,25,5
1320,-147,4,997,-17,16,3
1321,-761,-100,926,0,4,-5
1322,-866,75,573,-40,-99,-33
1323,442,48,952,-22,-156,-63
1324,440,239,704,-54,-31,-24
1325,158,48,617,-99,48,-19
1326,-14,-256,1038,-21,64,-95
1327,90,33,1287,31,-12,-129
1328,365,-3,1113,-1,-45,-82
1329,-31,7,661,-26,21,-47
1330,-116,-102,854,-22,58,-32
1331,26,-36,1371,59,-1,-99
1332,252,209,1076,-2,-47,-24
1333,119,88,650,-57,14,10
1334,-54,-95,1022,-17,44,-53
1335,92,105,1199,10,-17,-52
1336,278,12,1077,-21,-38,-7
1337,124,88,742,-22,10,9
1338,69,-8,1002,-22,40,8
1339,97,-35,1213,-2,29,-25
1340,-53,-60,879,-11,22,23
1341,-26,57,887,13,17,8
1342,-164,57,1166,-5,23,1
1343,-124,67,946,-7,-9,-6
1344,31,60,953,-17,-19,-5
1345,61,49,1039,-29,-12,-2
1346,143,6,1031,-30,-6,-6
1347,119,-42,947,-24,15,-3
1348,-55,-16,988,-12,29,13
1349,-74,-17,1048,-6,15,-1
1350,-126,-5,963,0,12,-2
1351,-70,62,951,3,-4,-1
1352,46,68,1061,-17,-12,-7
1353,102,57,1011,-17,-3,-8
1354,77,43,949,-24,7,1
1355,-4,10,1019,-28,18,2
1356,-101,-39,1016,-19,14,2
1357,-112,-28,949,-13,1,2
1358,-47,-9,1001,-5,-11,-4
1359,36,25,1017,-3,-15,-9
1360,116,60,993,-7,-9,-7
1361,98,79,1002,-13,8,-2
1362,-2,47,1026,-24,19,2
1363,-90,14,978,-25,14,1
1364,-129,-15,977,-20,3,0
1365,-68,-27,1001,-16,-14,-5
1366,39,-12,1009,-9,-19,-9
1367,139,29,999,-8,-13,-9
1368,122,51,1001,-8,6,-3
1369,36,52,1010,-13,20,1
1370,-99,38,992,-18,22,4
1371,-139,17,992,-18,8,1
1372,-101,-10,987,-20,-11,-3
1373,22,-4,992,-15,-23,-8
1374,136,11,1012,-12,-17,-10
1375,141,23,1005,-15,2,-4
1376,63,30,1005,-14,18,0
1377,-65,33,990,-14,24,3
1378,-148,13,988,-13,14,2
1379,-137,9,986,-13,-4,-3
1380,-9,17,1013,-13,-19,-7
1381,109,28,1000,-17,-21,-10
1382,152,25,998,-16,-4,-5
1383,90,30,1003,-17,16,-1
1384,-47,20,1002,-17,24,5
1385,-138,-3,992,-14,14,2
1386,-155,2,971,-10,-1,0
1387,-35,17,998,-8,-18,-7
1388,82,30,1017,-12,-20,-10
1389,151,36,1011,-16,-9,-6
1390,112,47,995,-19,9,-1
1391,-17,20,999,-19,24,4
1392,-130,-2,988,-16,19,1
1393,-156,-4,981,-14,3,-1
1394,-58,0,999,-9,-16,-7
1395,61,19,1002,-12,-22,-8
1396,157,47,1001,-12,-11,-8
1397,125,49,1009,-18,9,-4
1398,9,28,1017,-21,23,3
1399,-113,5,979,-17,21,2
1400,-157,-1,976,-15,5,-1
1401,-90,-9,996,-12,-14,-6
1402,40,8,1009,-8,-21,-9
1403,153,41,1006,-12,-15,-9
1404,143,44,1001,-14,5,-3
1405,43,30,1006,-16,22,2
1406,-95,20,991,-16,24,4
1407,-155,2,993,-14,10,1
1408,-118,-9,982,-12,-11,-5
1409,17,10,997,-8,-23,-10
1410,139,34,1008,-11,-18,-9
1411,151,37,1006,-17,1,-5
1412,71,34,1010,-18,18,1
1413,-71,24,987,-17,23,4
1414,-152,0,983,-15,13,1
1415,-104,118,348,-194,-103,-17
1416,33,700,450,-106,-113,-31
1417,-187,-95,620,-154,3,-18
1418,372,-88,491,-54,-94,4
1419,52,-607,976,-99,-21,75
1420,291,-228,927,2,23,-43
1421,146,-599,870,58,62,-22
1422,-121,214,958,152,65,11
1423,-199,438,1255,74,25,-5
1424,-235,558,881,44,24,-10
1425,-177,388,955,-87,-9,14
1426,107,40,1130,-104,-37,-12
1427,133,-289,1005,-114,-24,-6
1428,105,-383,850,-54,-14,14
1429,49,-235,1041,24,19,13
1430,0,-107,1045,48,25,-21
1431,-102,127,933,76,21,-2
1432,-6,347,1027,48,7,-2
1433,-41,279,1042,-21,12,-6
1434,0,135,985,-46,-1,1
1435,-17,-72,1002,-70,-6,4
1436,-37,-195,986,-46,-11,-1
1437,12,-212,978,-8,-13,-3
1438,46,-89,996,24,-1,-8
1439,90,64,1007,42,5,-9
1440,62,174,1006,29,17,-5
1441,-26,195,1005,0,24,2
1442,-107,127,988,-24,17,2
1443,-117,5,1008,-40,-1,-1
1444,-71,-88,986,-38,-19,-2
1445,55,-102,989,-22,-24,-8
1446,141,-63,997,-3,-12,-11
1447,118,19,1007,9,7,-5
1448,43,87,1007,9,21,-2
1449,-91,111,987,-1,26,2
1450,-148,87,983,-13,12,1
1451,-130,42,997,-28,-8,-3
1452,0,-2,1016,-33,-26,-9
1453,108,-25,990,-30,-26,-9
1454,153,-37,992,-23,-7,-6
1455,97,-15,1003,-9,15,-3
1456,-33,12,998,-3,25,4
1457,-131,32,995,1,17,1
1458,-155,50,982,-4,2,-2
1459,-42,58,994,-12,-17,-6
1460,68,43,1012,-22,-21,-9
1461,144,27,1018,-27,-12,-6
1462,113,2,993,-27,5,-2
1463,-4,-19,990,-21,21,2
1464,-111,-20,991,-11,18,2
1465,-145,0,986,-3,4,-1
1466,-56,24,992,-2,-14,-7
1467,47,47,1005,-5,-18,-8
1468,145,66,1007,-14,-10,-9
1469,113,49,1008,-21,6,-5
1470,8,15,1009,-25,19,3
1471,-109,-13,985,-20,18,4
1472,-143,-23,980,-14,5,1
1473,-80,-18,990,-8,-12,-6
1474,37,18,1005,-5,-19,-9
1475,150,54,1013,-7,-13,-9
1476,132,61,1005,-14,6,-3
1477,33,47,1000,-18,21,3
1478,-99,22,987,-23,23,4
1479,-154,-9,998,-19,7,0
1480,-115,-20,981,-14,-11,-4
1481,26,-2,1000,-10,-22,-8
1482,138,27,1002,-8,-17,-9
1483,148,41,1006,-13,2,-5
1484,68,42,1010,-15,18,0
1485,-79,35,988,-18,25,5
1486,-149,4,983,-16,14,1
1487,-149,-8,984,-13,-6,-2
1488,-3,11,1009,-11,-23,-7
1489,115,18,1008,-14,-22,-10
1490,159,33,1000,-14,-3,-6
1491,99,38,997,-16,14,-1
1492,-43,29,998,-18,25,3
1493,-149,1,995,-17,16,3
1494,-155,2,976,-13,-2,-2
1495,-36,8,993,-12,-18,-8
1496,-634,-33,734,18,-19,-11
1497,-687,100,95,-29,-80,-7
1498,274,62,561,-21,-102,-52
1499,400,216,391,-67,-18,-38
1500,66,-60,597,-86,47,-40
1501,66,-154,950,16,-1,-115
1502,255,131,967,-17,-40,-68
1503,242,-64,947,-18,-8,-47
1504,-65,-13,754,-12,40,-52
1505,-27,-55,1019,-6,38,-48
1506,121,-23,1273,42,-15,-90
1507,180,134,911,-25,-25,-11
1508,85,16,817,-30,16,-2
1509,37,-12,1112,7,19,-36
1510,106,84,1058,-13,-9,-12
1511,199,6,1002,-13,-13,-6
1512,127,73,858,-19,11,7
1513,151,-25,1064,-23,28,6
1514,38,-48,1075,-7,39,-2
1515,-152,-41,913,-6,32,24
1516,-124,40,1000,14,13,0
1517,-142,46,1047,1,6,-6
1518,13,97,942,-4,-19,-10
1519,129,79,1020,-21,-12,-5
1520,109,52,1028,-30,3,-3
1521,61,0,987,-35,16,5
1522,-42,-57,982,-23,24,4
1523,-162,-52,992,-12,15,7
1524,-72,-19,1003,1,-3,-7
1525,-12,15,990,4,-6,-8
1526,81,82,987,0,-9,-5
1527,116,96,1024,-13,2,-6
1528,13,68,995,-22,15,1
1529,-76,14,996,-26,14,4
1530,-121,-28,988,-24,6,-1
1531,-71,-49,985,-15,-9,-4
1532,31,-21,990,-5,-17,-9
1533,113,18,1023,-5,-9,-8
1534,110,65,1000,-5,4,-5
1535,15,68,996,-10,19,1
1536,-94,50,995,-17,18,1
1537,-142,21,989,-20,5,0
1538,-80,-8,989,-19,-13,-6
1539,26,-18,999,-19,-21,-8
1540,133,4,1002,-15,-16,-8
1541,132,21,1003,-12,3,-6
1542,38,29,1014,-9,19,1
1543,-84,33,992,-9,21,3
1544,-142,27,988,-11,11,1
1545,-108,12,984,-14,-8,-3
1546,17,15,1006,-16,-23,-7
1547,129,26,1009,-18,-19,-9
1548,137,20,999,-20,-1,-5
1549,71,13,1005,-15,17,1
1550,-71,11,990,-14,24,4
1551,-143,5,994,-12,10,1
1552,-129,3,988,-8,-7,-4
1553,-5,27,1000,-8,-19,-7
1554,115,41,1001,-14,-18,-10
1555,146,36,1008,-18,-3,-5
1556,84,32,1003,-20,13,0
1557,-53,19,995,-19,23,4
1558,-137,-9,988,-14,14,2
1559,-147,-10,977,-11,-3,0
1560,-23,11,1006,-8,-21,-7
1561,89,32,1012,-9,-20,-10
1562,152,45,1005,-14,-5,-7
1563,104,46,991,-17,13,-3
1564,-33,31,1002,-17,24,4
1565,-135,-3,995,-17,17,3
1566,-158,-5,975,-14,1,-1
1567,-43,0,996,-11,-19,-7
1568,67,14,1012,-10,-20,-9
1569,159,42,1007,-12,-11,-8
1570,122,47,1007,-15,9,-2
1571,-5,33,1006,-17,24,5
1572,-118,7,981,-18,21,4
1573,-160,-1,975,-13,5,1
1574,-197,-218,475,41,20,-21
1575,55,-75,833,68,51,-41
1576,-50,212,376,-62,-22,5
1577,199,-44,623,8,-11,-38
1578,98,19,1145,-65,12,25
1579,-302,18,1243,-18,38,19
1580,200,-195,609,-9,-22,-51
1581,-267,-75,1100,1,10,41
1582,141,207,1092,27,-32,-17
1583,194,-3,1006,-19,17,-35
1584,-33,206,861,-9,18,28
1585,-41,105,1128,-33,2,7
1586,-35,-54,1018,-51,12,-30
1587,-206,-118,861,-26,1,31
1588,4,-14,1049,-8,-22,-14
1589,91,-109,1083,-11,-15,-23
1590,113,74,878,25,-12,5
1591,104,107,1053,-6,11,-2
1592,6,90,1059,-11,25,-10
1593,-124,58,912,-19,17,14
1594,-133,15,1007,-28,0,-2
1595,-96,-55,1033,-21,-14,-7
1596,60,-37,960,-12,-24,-7
1597,123,-15,1013,-6,-12,-6
1598,136,27,1028,4,5,-8
1599,57,47,977,-3,21,-2
1600,-95,69,986,-3,28,7
1601,-150,37,1012,-11,12,-1
1602,-108,9,976,-15,-7,-5
1603,-5,2,995,-14,-21,-2
1604,109,4,1020,-15,-19,-10
1605,148,3,1002,-13,-4,-8
1606,83,49,989,-11,15,1
1607,-26,77,1013,-21,27,2
1608,-126,48,1000,-20,20,0
1609,-147,28,967,-27,2,3
1610,-55,-25,1003,-25,-15,-6
1611,59,-32,1018,-19,-18,-8
1612,163,-20,990,-14,-11,-7
1613,121,19,993,-7,11,-4
1614,8,41,1024,-8,24,2
1615,-107,59,985,-9,22,2
1616,-164,53,979,-15,8,0
1617,-97,33,998,-22,-13,-4
1618,31,10,1004,-27,-23,-7
1619,140,-2,995,-27,-18,-7
1620,140,-9,1007,-23,2,-3
1621,58,-14,1012,-15,18,-1
1622,-82,4,972,-6,24,4
1623,-152,25,997,-5,13,2
1624,-129,32,999,-6,-6,-3
1625,5,45,996,-11,-20,-8
1626,122,47,998,-19,-20,-8
1627,145,27,1011,-24,-4,-4
1628,82,9,1002,-25,14,-2
1629,-61,-4,988,-20,24,5
1630,-138,-17,992,-12,13,1
1631,-142,-3,978,-8,-3,-3
1632,-16,30,999,-6,-20,-7
1633,94,45,1018,-9,-19,-8
1634,153,54,1011,-17,-4,-7
1635,99,43,991,-21,12,0
1636,-37,17,993,-22,23,3
1637,-137,-17,1004,-20,16,2
1638,-152,-15,975,-14,0,-2
1639,-41,-2,994,-8,-19,-8
1640,79,24,1014,-7,-21,-10
1641,160,50,1012,-10,-10,-7
1642,119,57,1003,-15,10,-2
1643,-8,32,1009,-20,24,4
1644,-126,6,979,-19,20,4
1645,-156,-7,975,-15,3,0
1646,-78,-13,998,-15,-17,-5
1647,56,7,1009,-11,-24,-9
1648,164,33,1000,-10,-14,-9
1649,133,48,1005,-14,8,-3
1650,26,38,1012,-17,22,2
1651,-112,17,988,-17,23,4
1652,-165,3,978,-14,9,1
1653,-108,-10,990,-12,-12,-5
1654,32,7,1005,-12,-24,-9
1655,147,30,1006,-12,-18,-10
1656,153,39,1008,-15,2,-5
1657,59,33,1007,-15,20,1
1658,-86,25,979,-14,26,4
1659,-161,2,990,-14,11,2
1660,-139,-4,992,-13,-8,-3
1661,5,14,1001,-10,-22,-8
1662,127,29,998,-13,-20,-9
1663,126,30,1004,-14,-4,-6
1664,-1186,-33,525,-22,21,-22
1665,-218,33,319,-69,-98,-90
1666,476,139,721,3,-95,-96
1667,327,168,452,-83,19,-44
1668,-47,-234,846,-90,57,-81
1669,-17,-42,941,71,4,-131
1670,245,45,1196,-11,-38,-77
1671,154,50,843,-11,0,-70
1672,-115,-39,774,-15,52,-54
1673,-35,-45,1142,0,14,-86
1674,145,60,1278,27,-42,-63
1675,160,159,759,-40,-15,21
1676,-82,-54,886,-43,42,-11
1677,-34,34,1101,20,12,-49
1678,188,87,1142,-21,-34,-30
1679,236,46,905,-28,-18,-18
1680,63,7,838,-31,28,-5
1681,121,-52,1146,-15,20,-23
1682,73,-53,1077,-6,6,0
1683,51,3,832,-1,7,16
1684,55,39,1032,5,29,-1
1685,-92,38,1078,1,33,-2
1686,-56,60,948,-8,7,-1
1687,-75,68,963,-25,4,4
1688,-113,62,1052,-25,-5,3
1689,29,11,996,-29,-16,-9
1690,61,-29,966,-23,-6,-3
1691,90,0,1002,-17,-2,2
1692,105,-30,1035,-10,13,-7
1693,-6,-19,965,-2,27,1
1694,-105,47,967,0,19,7
1695,-119,53,1047,-1,9,-3
1696,-120,49,980,-9,-4,-3
1697,3,57,974,-18,-19,-4
1698,111,35,1034,-24,-18,-9
1699,114,-1,997,-26,-3,-3
1700,75,-9,977,-19,11,0
1701,-55,-12,1011,-14,23,3
1702,-123,-10,994,-5,15,0
1703,-124,12,971,-1,-1,-2
1704,-27,51,1004,-5,-16,-7
1705,79,59,1024,-13,-19,-9
1706,138,49,1000,-19,-6,-7
1707,89,34,987,-25,10,-1
1708,-19,2,1004,-25,18,2
1709,-119,-31,998,-17,14,0
1710,-135,-21,970,-10,0,-1
1711,-37,2,1001,-4,-15,-6
1712,64,33,1007,-6,-18,-8
1713,147,62,1010,-11,-8,-7
1714,112,64,1008,-18,10,-2
1715,-5,31,1004,-22,23,3
1716,-114,0,982,-22,19,3
1717,-149,-17,980,-17,3,1
1718,-71,-24,995,-15,-15,-7
1719,49,0,1009,-8,-20,-9
1720,151,39,1004,-8,-12,-7
1721,131,55,1002,-13,5,-3
1722,27,39,1011,-17,21,3
1723,-105,27,991,-21,22,4
1724,-157,1,988,-18,8,0
1725,-112,-13,985,-13,-12,-4
1726,23,7,999,-12,-24,-9
1727,137,29,1011,-12,-17,-9
1728,145,38,1004,-15,3,-5
1729,64,32,1004,-16,20,1
1730,-80,26,987,-15,25,3
1731,-158,3,991,-14,13,1
1732,-140,-4,986,-11,-6,-4
1733,-4,15,1005,-12,-21,-8
1734,120,30,1000,-13,-20,-10
1735,158,31,1001,-14,-4,-7
1736,91,32,1008,-17,15,1
1737,-47,22,997,-17,24,4
1738,-140,-5,995,-14,17,1
1739,-155,-1,970,-12,-1,-1
1740,36,41,755,-9,-20,-3
1741,105,-325,-35,-152,-3,26
1742,43,152,346,-172,-13,5
1743,-199,-117,279,-81,-28,41
1744,238,-358,95,-144,-34,23
1745,-331,-620,432,-12,50,63
1746,296,-239,792,149,-30,-61
1747,-10,-371,770,6,10,-40
1748,74,398,885,210,31,-25
1749,104,581,1317,42,25,-4
1750,-103,582,813,-22,37,3
1751,-207,239,909,-72,5,12
1752,-104,-118,1182,-150,-23,1
1753,-111,-360,960,-83,-23,3
1754,108,-294,863,-26,-52,11
1755,182,-188,1037,0,-18,-7
1756,206,-64,1036,70,23,-45
1757,76,86,996,48,35,-3
1758,-80,336,1013,46,42,14
1759,-240,251,1008,-5,28,-3
1760,-199,146,979,-55,-12,3
1761,-60,-36,1002,-61,-34,-1
1762,105,-144,999,-56,-37,-10
1763,204,-148,1011,-34,-23,-6
1764,175,-101,970,8,9,-5
1765,44,-12,999,19,33,-2
1766,-108,86,1019,30,36,3
1767,-192,140,994,18,21,2
1768,-159,123,973,-11,-6,-4
1769,-5,83,1021,-25,-26,-7
1770,127,6,1011,-42,-27,-8
1771,158,-50,988,-37,-11,-4
1772,105,-69,982,-19,9,-2
1773,-28,-44,1006,-6,25,3
1774,-122,-3,985,10,20,2
1775,-133,51,980,12,6,-3
1776,-39,101,1006,2,-11,-5
1777,63,97,1016,-13,-16,-9
1778,120,66,1008,-29,-7,-7
1779,90,22,993,-34,6,-1
1780,-18,-32,996,-32,16,4
1781,-104,-61,996,-19,12,1
1782,-124,-38,973,-4,1,-1
1783,-35,10,1001,3,-13,-6
1784,58,49,1013,1,-15,-9
1785,133,86,1005,-8,-6,-7
1786,97,78,1006,-20,9,-2
1787,-11,38,1016,-26,20,3
1788,-118,-11,978,-25,14,2
1789,-137,-33,973,-20,-1,-1
1790,-66,-33,1001,-12,-16,-6
1791,53,-1,1009,-7,-21,-10
1792,152,39,1002,-6,-12,-9
1793,123,63,1003,-10,9,-2
1794,26,54,1011,-14,21,2
1795,-109,29,987,-19,22,2
1796,-159,6,989,-20,7,2
1797,-106,-15,990,-18,-14,-4
1798,29,-2,998,-13,-24,-8
1799,142,21,1001,-12,-19,-8
1800,151,30,1013,-12,2,-5
1801,67,32,1008,-12,19,0
1802,-78,31,980,-13,26,4
1803,-156,11,992,-12,13,1
1804,-145,5,991,-13,-6,-3
1805,-9,16,1002,-13,-22,-8
1806,120,28,1004,-16,-22,-10
1807,162,29,1000,-16,-4,-6
1808,102,28,1005,-17,15,-2
1809,-43,16,1001,-18,26,4
1810,-142,-6,993,-13,19,2
1811,-159,1,970,-8,-2,-2
1812,-35,18,999,-7,-19,-7
1813,89,33,1018,-12,-21,-10
1814,158,42,1013,-16,-8,-8
1815,123,42,991,-19,12,-2
1816,-17,16,997,-19,24,5
1817,-132,-9,993,-14,18,3
1818,-158,-6,977,-11,4,-1
1819,-61,3,992,-7,-16,-6
1820,59,24,1008,-10,-22,-9
1821,157,50,1007,-12,-13,-9
1822,127,49,1004,-17,8,-2
1823,8,30,1012,-21,22,4
1824,-116,1,986,-17,21,4
1825,-160,-6,969,-13,6,0
1826,-89,-11,997,-11,-15,-6
1827,36,19,1010,-9,-22,-8
1828,152,44,1006,-12,-16,-9
1829,140,47,998,-16,4,-3
1830,38,32,1008,-19,21,3
1831,-103,16,991,-19,22,2
1832,-157,-4,990,-15,9,0
1833,-119,-13,979,-11,-12,-5
1834,19,15,1003,-8,-23,-8
1835,-820,-38,714,11,-18,-15
1836,-765,85,242,-23,-53,-92
1837,315,32,929,-28,-82,-171
1838,387,212,754,-56,-7,-123
1839,64,-140,821,-104,40,-119
1840,140,-143,1110,49,-13,-165
1841,275,184,1056,4,-29,-89
1842,218,-48,977,-29,10,-73
1843,-70,3,803,12,46,-77
1844,67,-3,1073,-9,18,-68
1845,235,43,1214,16,-30,-74
1846,234,149,874,-38,-22,12
1847,120,17,867,-46,16,5
1848,139,31,1153,-5,14,-18
1849,137,0,1013,-41,-1,9
1850,158,-85,942,-13,17,8
1851,-11,-34,892,2,49,21
1852,-62,-62,1138,4,40,3
1853,-122,-9,992,27,28,-11
1854,-193,86,905,19,15,4
1855,-108,166,1029,3,-11,-5
1856,15,116,1071,-20,-20,-10
1857,126,88,923,-40,-19,-4
1858,140,-7,1029,-45,-1,0
1859,57,-70,1045,-38,14,0
1860,-65,-110,950,-20,21,5
1861,-124,-55,952,6,13,2
1862,-106,6,1043,11,-2,-5
1863,5,73,990,10,-13,-12
1864,95,128,987,-3,-11,-5
1865,107,121,1020,-23,0,-4
1866,40,46,1018,-32,14,0
1867,-79,-17,967,-34,17,5
1868,-133,-63,1000,-25,8,3
1869,-96,-75,992,-10,-10,-6
1870,10,-23,978,0,-18,-9
1871,116,52,1007,5,-15,-10
1872,127,87,1024,-4,3,-6
1873,59,89,1002,-15,17,-1
1874,-75,65,981,-22,22,5
1875,-145,1,998,-26,10,2
1876,-132,-36,991,-24,-10,-1
1877,-4,-29,998,-18,-22,-7
1878,122,0,1003,-13,-21,-10
1879,163,18,1004,-9,-5,-6
1880,102,51,1002,-10,15,0
1881,-37,50,1005,-12,27,4
1882,-143,23,997,-13,17,3
1883,-160,11,969,-16,-2,0
1884,-43,10,1000,-16,-20,-7
1885,79,12,1018,-17,-22,-10
1886,164,17,1008,-17,-12,-8
1887,132,24,987,-16,9,-3
1888,-1,14,1003,-14,24,4
1889,-121,0,996,-12,20,3
1890,-169,7,979,-8,6,1
1891,-76,20,994,-10,-15,-6
1892,45,30,1007,-11,-22,-10
1893,151,52,1003,-16,-14,-8
1894,133,39,1008,-22,5,-2
1895,25,13,1012,-20,21,3
1896,-105,-11,982,-18,22,4
1897,-156,-8,975,-11,8,0
1898,-101,-4,999,-7,-11,-5
1899,23,29,1005,-6,-20,-9
1900,142,57,1008,-12,-16,-9
1901,138,56,1004,-18,2,-4
1902,48,30,1005,-21,20,2
1903,-87,3,987,-20,24,3
1904,-151,-14,995,-17,11,1
1905,-117,-16,978,-11,-9,-5
1906,12,9,994,-7,-20,-9
1907,131,43,1013,-8,-17,-9
1908,146,50,1009,-14,2,-4
1909,73,42,1003,-19,17,0
1910,-69,22,989,-19,23,5
1911,-152,-7,991,-17,14,3
1912,-140,-17,984,-14,-5,-2
1913,-4,7,1003,-9,-21,-8
1914,113,30,1007,-11,-20,-9
1915,159,41,997,-14,-5,-7
1916,99,42,1005,-15,15,-1
1917,-45,27,1000,-19,24,4
1918,-142,-6,994,-19,15,2
1919,-157,-7,971,-12,-2,-2
1920,-39,9,999,-9,-19,-8
1921,89,28,1016,-12,-22,-9
1922,155,35,1012,-15,-8,-7
1923,121,47,990,-16,10,-1
1924,-14,22,999,-18,24,5
1925,-130,0,1000,-16,18,2
1926,-166,-3,975,-13,4,0
1927,-65,3,996,-10,-16,-6
1928,55,20,1008,-11,-23,-9
1929,155,47,1007,-12,-13,-8
1930,134,45,1007,-19,7,-2
1931,11,23,1010,-20,22,4
1932,-111,0,982,-18,22,3
1933,-165,-3,977,-12,8,0
1934,-95,-5,998,-9,-13,-6
1935,34,16,1007,-8,-22,-9
1936,151,48,1006,-13,-16,-9
1937,144,48,1003,-17,3,-4
1938,44,28,1007,-17,19,2
1939,-94,10,990,-17,24,4
1940,-156,-4,990,-15,9,1
1941,-121,-12,981,-10,-8,-4
1942,14,13,999,-9,-21,-9
1943,135,43,1013,-10,-18,-9
1944,209,21,1013,-17,0,-4
1945,913,-109,695,-28,12,61
1946,139,258,984,17,76,148
1947,-409,59,892,-61,116,46
1948,-477,-177,830,-14,-7,45
1949,107,203,695,54,-92,54
1950,353,224,1482,-44,-16,32
1951,-239,-46,949,-66,104,11
1952,-211,-120,682,-27,13,16
1953,168,97,644,33,-89,18
1954,505,240,1704,-7,-21,30
1955,-243,-98,973,-96,120,48
1956,-176,-218,674,-19,28,50
1957,36,85,423,74,-70,45
1958,453,376,1675,32,-56,19
1959,-128,67,1154,-97,106,7
1960,-214,-184,784,-59,76,5
1961,-34,5,330,37,-19,-22
1962,-190,247,1161,73,-64,-57
1963,167,273,1630,-58,-51,-69
1964,-311,-257,997,-127,58,-20
1965,-112,-45,472,-17,-2,-35
1966,-217,12,762,44,-48,-100
1967,284,224,1656,-2,-55,-108
1968,-315,-285,1106,-125,57,-18
1969,-288,-115,577,-36,7,-19
1970,-231,-178,664,36,-61,-86
1971,277,76,1580,22,-56,-45
1972,-118,-222,989,-58,7,3
1973,68,27,681,27,-16,-41
1974,104,-36,1048,7,3,-27
1975,-1,54,1265,20,7,15
1976,2,61,808,0,-4,12
1977,-100,37,974,8,16,-7
1978,-79,134,1094,-6,-16,0
1979,150,78,1007,-20,-20,-9
1980,70,17,916,-30,6,-7
1981,33,13,1046,-30,4,11
1982,36,-41,1044,-24,9,-11
1983,-131,-70,916,-11,17,8
1984,-114,3,983,0,-7,2
1985,18,22,1088,2,-12,-13
1986,59,53,936,-5,-10,-8
1987,115,89,979,-13,-4,0
1988,82,62,1073,-21,13,-7
1989,-51,27,970,-26,19,6
1990,-101,-16,966,-21,9,4
1991,-132,-35,1014,-18,-1,-2
1992,-21,-17,991,-10,-17,-8
1993,87,7,997,-6,-17,-9
1994,127,50,1016,-8,-4,-6
1995,103,68,999,-12,10,-3
1996,-22,49,994,-17,23,4
1997,-139,23,993,-20,16,5
1998,-143,-2,988,-20,0,-2
1999,-54,-17,995,-16,-17,-5
2000,58,-1,996,-14,-22,-8
2001,155,25,1012,-11,-12,-10
2002,125,37,1006,-12,7,-4
2003,3,36,1008,-14,24,4
2004,-108,23,986,-12,20,3
2005,-158,16,980,-14,6,0
2006,-92,6,995,-14,-15,-4
2007,34,8,1012,-14,-22,-9
2008,148,27,1003,-17,-15,-9
2009,141,30,997,-16,3,-4
2010,47,17,1010,-17,20,1
2011,-90,13,995,-11,23,3
2012,-152,6,986,-10,11,1
2013,-117,3,985,-8,-8,-4
2014,9,23,998,-8,-21,-8
2015,130,42,1007,-11,-20,-9
2016,146,40,1011,-16,0,-4
2017,72,24,1005,-20,16,1
2018,-67,13,985,-18,23,4
2019,-145,-9,991,-13,12,2
2020,-140,-10,990,-11,-6,-4
2021,-6,15,1001,-9,-21,-8
2022,112,39,1001,-12,-20,-9
2023,154,43,1003,-15,-3,-6
2024,91,39,1005,-17,14,-2
2025,-47,23,997,-21,24,4
2026,-138,-11,991,-17,15,3
2027,-152,-13,976,-12,-3,-2
2028,-34,5,999,-10,-20,-7
2029,90,24,1017,-10,-21,-10
2030,156,39,1005,-13,-6,-8
2031,113,52,991,-15,11,-2
2032,-22,30,1003,-19,21,3
2033,-134,-1,997,-12,14,0
2034,-161,-4,971,-11,-4,-3
2035,-790,-69,547,2,-24,-3
2036,-656,51,673,-8,-57,-62
2037,300,6,986,-12,-132,-166
2038,483,312,775,-65,-61,-86
2039,166,-43,798,-89,34,-97
2040,11,-191,927,-27,46,-166
2041,145,44,1256,40,-5,-164
2042,353,13,1133,12,-35,-123
2043,-87,30,641,-42,38,-57
2044,-121,-107,894,-3,54,-60
2045,109,12,1388,51,-29,-125
2046,358,254,1014,-22,-47,-28
2047,73,7,696,-66,24,-14
2048,-36,-90,1014,-16,27,-59
2049,185,82,1208,10,-23,-56
2050,327,-13,1076,-27,-33,-18
2051,127,90,689,-29,13,16
2052,143,-59,1026,-12,43,-1
2053,140,-64,1221,2,35,-18
2054,-30,-50,872,-1,30,32
2055,-25,46,923,27,28,7
2056,-263,87,1136,3,34,7
2057,-126,96,955,-1,-10,-12
2058,39,89,946,-18,-17,-7
2059,56,60,1019,-34,-12,3
2060,164,20,1060,-36,-8,-6
2061,83,-70,956,-32,18,-2
2062,-89,-59,960,-12,25,14
2063,-101,-39,1042,1,11,-2
2064,-94,-10,990,8,4,-9
2065,-32,75,942,10,-10,-4
2066,96,110,1058,-4,-10,-10
2067,93,103,1010,-20,4,-6
2068,14,54,951,-31,12,5
2069,-65,-8,1028,-31,13,0
2070,-131,-59,1006,-26,4,1
2071,-53,-54,951,-12,-13,-5
2072,26,-19,1001,-3,-14,-9
2073,113,45,1026,2,-9,-10
2074,114,79,1001,-4,7,-5
2075,10,80,994,-12,20,2
2076,-99,50,1000,-19,18,2
2077,-132,11,987,-22,4,0
2078,-88,-25,987,-23,-13,-4
2079,27,-23,1002,-18,-22,-9
2080,140,2,1009,-13,-16,-9
2081,130,24,993,-9,3,-5
2082,47,35,1012,-9,18,2
2083,-79,36,1003,-11,22,3
2084,-148,28,984,-12,12,2
2085,-111,9,981,-15,-8,-3
2086,8,18,1002,-17,-22,-7
2087,125,24,1010,-19,-21,-8
2088,143,20,1003,-18,-3,-4
2089,76,9,1002,-18,16,0
2090,-58,12,989,-14,24,4
2091,-140,-1,1000,-9,14,1
2092,-134,4,982,-7,-5,-3
2093,-15,32,997,-7,-19,-7
2094,107,47,1005,-14,-20,-9
2095,145,43,1007,-19,-4,-5
2096,91,26,1004,-21,12,0
2097,-39,13,992,-21,23,4
2098,-131,-18,992,-17,16,2
2099,-149,-9,975,-6,0,-2
2100,-34,14,1002,-7,-17,-7
2101,83,39,1013,-8,-19,-10
2102,151,50,1005,-12,-6,-6
2103,109,51,995,-17,12,-2
2104,16,12,1039,-22,24,4
2105,1053,-192,492,-10,21,31
2106,85,63,761,-15,60,104
2107,-481,93,660,18,105,71
2108,-555,-122,839,-1,5,57
2109,-131,258,642,8,-68,53
2110,66,121,1415,-26,-37,3
2111,-305,58,965,-48,59,-16
2112,-366,-88,733,-46,10,2
2113,-38,-18,805,-9,-64,7
2114,-6,17,1431,-32,-38,22
2115,164,-33,854,-16,-25,-30
2116,169,-96,904,-5,4,-11
2117,98,97,1060,0,11,13
2118,-16,8,1133,-4,25,-2
2119,-74,33,832,-2,21,-8
2120,-247,65,1004,-9,12,15
2121,-75,61,1043,-15,-26,-10
2122,11,6,1004,-26,-25,-9
2123,104,39,919,-24,-27,1
2124,144,10,1091,-27,-13,-7
2125,121,2,997,-21,11,-8
2126,-65,-16,939,-14,24,9
2127,-110,18,1028,-5,12,-2
2128,-144,-13,1019,-8,-1,-3
2129,-20,43,936,-4,-19,-8
2130,79,43,1019,-15,-20,-8
2131,130,59,1033,-18,-9,-8
2132,99,21,994,-26,5,-2
2133,-11,14,975,-21,19,2
2134,-110,-27,1017,-18,17,3
2135,-126,-22,974,-10,1,-3
2136,-41,0,995,-5,-13,-6
2137,70,41,1011,-5,-17,-10
2138,131,55,1007,-9,-5,-7
2139,103,60,986,-16,9,-4
2140,-20,39,1008,-23,21,4
2141,-107,-3,1002,-22,15,2
2142,-141,-20,970,-16,2,0
2143,-43,-11,985,-12,-15,-6
2144,63,7,1017,-10,-17,-9
2145,142,35,1012,-10,-8,-6
2146,115,57,994,-11,8,-2
2147,-4,47,1003,-16,22,3
2148,-112,18,989,-18,19,2
2149,-153,5,983,-17,4,1
2150,-71,-7,997,-14,-15,-5
2151,42,4,1000,-11,-21,-10
2152,146,26,1004,-11,-13,-9
2153,134,40,1004,-15,7,-3
2154,30,28,1018,-16,22,1
2155,-100,19,984,-15,21,3
2156,-154,11,980,-13,8,1
2157,-103,1,990,-10,-10,-5
2158,20,16,1010,-11,-21,-7
2159,140,35,1010,-15,-18,-8
2160,142,37,1001,-18,2,-5
2161,57,24,1005,-19,20,1
2162,-81,15,992,-14,24,3
2163,-150,-2,997,-13,12,1
2164,-126,-7,983,-9,-7,-4
2165,3,19,992,-9,-21,-8
2166,125,41,1008,-11,-17,-9
2167,143,42,1009,-19,-2,-6
2168,78,33,1002,-22,13,0
2169,-58,17,993,-18,23,3
2170,-143,-8,986,-17,14,2
2171,-145,-7,983,-10,-4,-3
2172,-12,14,1012,-9,-20,-8
2173,104,34,1006,-11,-21,-10
2174,155,45,997,-15,-6,-7
2175,99,44,1005,-17,14,-2
2176,-38,25,1000,-20,23,4
2177,-133,-8,991,-17,16,2
2178,-154,-13,972,-14,-2,-1
2179,-41,6,993,-8,-17,-6
2180,80,18,1015,-11,-21,-11
2181,157,42,1013,-14,-9,-8
2182,119,50,993,-17,9,-3
2183,-8,31,999,-17,24,3
2184,-127,1,992,-17,20,2
2185,-162,-3,982,-14,3,0
2186,-65,-3,997,-12,-17,-6
2187,-208,-34,1049,-9,-20,-12
2188,-1106,83,468,-16,-28,-34
2189,181,60,841,-39,-105,-82
2190,594,223,863,-55,-74,-65
2191,438,112,618,-110,12,-30
2192,272,-254,1028,-42,41,-97
2193,203,-6,1032,9,15,-75
2194,304,-226,1152,-20,-3,1
2195,100,22,767,46,38,23
2196,-59,27,961,17,62,32
2197,12,48,1266,33,43,-39
2198,-222,45,910,11,39,18
2199,-161,197,809,8,4,-4
2200,-146,119,1213,-24,-11,-13
2201,-8,83,945,-41,-31,-2
2202,147,-11,944,-44,-26,-10
2203,160,-74,1024,-39,-2,-3
2204,94,-92,1074,-22,15,3
2205,14,-71,898,2,25,-2
2206,-171,-9,1007,13,28,8
2207,-135,82,1031,14,0,-7
2208,-58,87,993,2,-9,-7
2209,55,131,952,-17,-22,-6
2210,134,68,1060,-35,-14,-5
2211,112,9,1000,-39,5,-6
2212,-22,-56,964,-36,18,9
2213,-93,-67,1003,-15,15,1
2214,-139,-61,999,-3,5,-3
2215,-43,13,961,9,-11,-7
2216,52,67,1022,5,-12,-9
2217,125,105,1025,-7,-5,-8
2218,99,98,985,-20,8,-1
2219,-17,50,990,-31,19,4
2220,-120,-24,1011,-31,15,2
2221,-137,-51,974,-23,0,-1
2222,-50,-48,984,-10,-16,-5
2223,59,-7,1008,-3,-20,-10
2224,146,46,1013,-1,-10,-9
2225,123,79,1004,-7,9,-4
2226,3,74,1016,-15,23,3
2227,-109,37,983,-20,20,2
2228,-158,5,979,-22,4,2
2229,-83,-23,994,-21,-17,-4
2230,39,-22,1008,-16,-24,-9
2231,157,11,999,-11,-16,-9
2232,148,29,1004,-12,4,-5
2233,575,-75,800,-1,21,5
2234,641,80,382,4,25,13
2235,-236,201,360,29,173,13
2236,-547,-127,264,-34,55,-8
2237,-193,180,309,72,-76,-10
2238,161,263,862,-38,-84,-39
2239,105,-30,1243,-91,52,-40
2240,-450,-131,747,-35,102,13
2241,-119,-104,545,-24,-24,21
2242,-191,68,801,47,-80,-4
2243,255,163,1635,-27,-39,9
2244,-406,-164,907,-73,89,-2
2245,-235,-105,642,15,5,6
2246,-239,91,693,22,-60,-27
2247,162,132,1635,-23,-58,-16
2248,-278,-29,780,-59,17,6
2249,-87,-58,830,-32,-43,-7
2250,178,7,1090,-22,-61,-2
2251,110,6,1215,-16,-8,-5
2252,200,10,754,-17,-11,-21
2253,70,-4,1052,1,31,11
2254,-7,87,1072,-6,22,-8
2255,-113,-17,965,-11,22,6
2256,-165,62,899,-1,8,-3
2257,-154,25,1085,-23,-12,5
2258,69,40,985,-13,-29,-20
2259,97,-15,973,-24,-16,-1
2260,166,39,1015,-18,-6,-5
2261,115,-13,1062,-18,19,-4
2262,-34,-7,925,-10,28,3
2263,-151,7,990,-6,19,9
2264,-143,27,1025,-5,0,-6
2265,-67,26,985,-11,-18,-4
2266,76,54,977,-12,-26,-10
2267,162,47,1040,-22,-12,-8
2268,134,29,999,-24,6,-5
2269,15,0,1000,-23,21,4
2270,-109,-14,988,-16,22,1
2271,-157,-16,981,-7,7,1
2272,-86,-1,981,-4,-13,-5
2273,26,29,1012,-7,-21,-7
2274,151,66,1013,-12,-17,-10
2275,135,54,1002,-20,4,-4
2276,42,37,995,-22,19,2
2277,-97,1,993,-22,22,4
2278,-153,-15,996,-18,9,0
2279,-124,-24,977,-11,-9,-2
2280,17,8,990,-7,-23,-9
2281,129,37,1016,-7,-17,-10
2282,141,55,1006,-15,-1,-5
2283,67,46,1009,-19,15,0
2284,-76,32,982,-21,24,4
2285,-158,-3,990,-18,13,3
2286,-141,-17,989,-13,-7,-4
2287,-14,-4,999,-11,-22,-9
2288,122,25,998,-11,-23,-9
2289,159,35,1006,-13,-5,-7
2290,97,48,1003,-12,14,-2
2291,-45,35,998,-17,26,3
2292,-143,7,996,-15,17,1
2293,-161,-7,971,-15,-2,-3
2294,-35,4,996,-10,-20,-7
2295,91,17,1025,-12,-22,-9
2296,162,34,1004,-13,-8,-7
2297,128,41,993,-15,10,-4
2298,-11,32,1003,-16,24,4
2299,-134,10,1000,-16,18,3
2300,-162,0,971,-14,3,-1
2301,-65,2,994,-11,-17,-6
2302,62,18,1007,-12,-24,-10
2303,160,36,1017,-14,-13,-8
2304,137,41,1001,-16,7,-3
2305,9,25,1005,-17,23,3
2306,-113,6,985,-15,19,3
2307,427,-111,654,-7,2,4
2308,444,106,139,23,-3,-10
2309,-114,204,292,-43,124,-14
2310,-471,-165,151,-9,44,-34
2311,-107,257,228,99,-62,-31
2312,225,228,810,-83,-68,-65
2313,51,-99,1149,-66,71,-38
2314,-516,-127,799,-38,93,42
2315,-135,-128,542,-39,-28,62
2316,-283,-8,750,52,-68,44
2317,261,207,1608,-18,-65,42
2318,-337,-64,1015,-60,76,-12
2319,-233,-94,680,6,21,-4
2320,-342,74,655,0,-39,-21
2321,20,123,1569,-10,-64,-4
2322,-221,7,871,-55,-12,0
2323,-12,-78,846,-37,-49,-8
2324,312,9,1029,-14,-59,-9
2325,225,-13,1221,-18,7,-4
2326,206,-5,783,-9,14,-14
2327,-65,10,1054,3,49,21
2328,-191,79,1047,-4,26,-7
2329,-226,-12,963,-7,5,2
2330,-79,77,908,-6,-22,-8
2331,57,42,1108,-25,-31,-3
2332,232,42,990,-22,-23,-20
2333,151,-14,965,-29,7,4
2334,22,21,1005,-19,24,4
2335,-107,-46,1061,-15,27,1
2336,-171,-20,904,-3,9,-3
2337,-98,22,987,0,-12,1
2338,63,50,1059,-4,-23,-13
2339,139,65,1002,-15,-13,-5
2340,148,70,962,-20,1,-2
2341,21,32,1037,-29,19,5
2342,-100,-19,995,-25,18,3
2343,-154,-34,960,-17,6,4
2344,-81,-28,994,-8,-12,-5
2345,37,4,1010,-3,-20,-8
2346,144,51,999,-4,-12,-7
2347,126,72,1009,-12,7,-2
2348,24,62,1018,-17,19,2
2349,-107,22,984,-23,21,4
2350,-161,-4,968,-21,6,2
2351,-97,-25,998,-17,-13,-5
2352,24,-13,1002,-14,-22,-9
2353,140,24,1002,-9,-17,-8
2354,142,46,1004,-10,3,-5
2355,38,49,1015,-14,21,2
2356,-96,35,993,-14,24,4
2357,-164,17,983,-18,11,3
2358,-120,-3,978,-14,-11,-5
2359,5,-2,1003,-12,-24,-8
2360,139,23,1009,-13,-20,-10
2361,148,26,1006,-12,0,-7
2362,70,31,999,-14,17,0
2363,-73,24,993,-16,25,3
2364,-150,8,998,-14,13,1
2365,-139,0,980,-13,-6,-3
2366,-3,14,996,-13,-20,-8
2367,121,30,1008,-20,-21,-10
2368,157,30,1006,-15,-4,-6
2369,93,27,1008,-20,14,-1
2370,-45,20,992,-16,24,4
2371,-141,-2,987,-14,16,2
2372,-150,-6,981,-12,-2,-2
2373,-22,12,1009,-7,-19,-7
2374,100,31,1008,-14,-20,-9
2375,159,38,996,-17,-6,-6
2376,109,44,1006,-18,12,-1
2377,-32,24,1003,-21,24,4
2378,-133,-6,993,-15,16,3
2379,-158,-7,973,-14,1,-1
2380,-45,4,993,-7,-18,-7
2381,90,19,1027,-10,-22,-11
2382,730,59,777,8,-4,-6
2383,444,74,275,-33,49,-24
2384,-371,91,250,12,182,-17
2385,-620,-113,386,21,42,-30
2386,-174,212,242,17,-86,-14
2387,169,143,1082,-14,-86,-28
2388,-145,-7,1017,-102,65,-3
2389,-453,-188,729,-50,58,14
2390,-113,-77,455,12,-56,4
2391,95,66,1370,-3,-79,-1
2392,84,84,1107,-24,10,0
2393,-310,-178,751,-28,37,-28
2394,-3,97,839,2,-43,13
2395,-94,-12,1355,-11,-17,2
2396,154,85,840,-13,-34,-29
2397,85,-31,901,-20,-1,6
2398,105,127,1135,-8,3,-1
2399,-11,-31,1045,-38,9,0
2400,-55,16,843,-2,10,1
2401,-172,-23,1065,-23,2,6
2402,16,23,1026,-2,-17,-17
2403,79,-17,961,-9,-10,-8
2404,110,74,968,-9,-4,2
2405,81,44,1094,-15,10,-6
2406,-10,36,950,-16,19,-3
2407,-147,11,971,-20,13,9
2408,-101,4,1018,-15,-7,-6
2409,-24,-26,1010,-17,-14,-8
2410,98,20,952,-6,-18,-6
2411,137,22,1034,-14,-3,-6
2412,101,42,1015,-13,12,-4
2413,-34,37,977,-14,22,6
2414,-119,25,992,-16,15,1
2415,-148,0,999,-16,-1,-1
2416,-25,8,990,-13,-19,-5
2417,84,11,1007,-14,-19,-7
2418,148,22,1006,-14,-7,-7
2419,105,34,996,-18,10,-1
2420,-24,30,999,-14,22,4
2421,-126,5,1001,-15,18,3
2422,-152,5,967,-14,0,-1
2423,-54,15,995,-10,-15,-6
2424,66,20,1014,-14,-21,-11
2425,147,32,1009,-15,-12,-7
2426,118,37,997,-16,8,-3
2427,-9,23,1002,-17,22,3
2428,-118,4,988,-15,20,3
2429,-159,2,977,-11,5,-1
2430,-72,3,999,-11,-16,-6
2431,48,14,1007,-8,-22,-9
2432,146,40,998,-13,-11,-8
2433,127,46,1009,-16,7,-3
2434,16,27,1017,-18,21,1
2435,-107,4,978,-18,20,3
2436,-153,-1,976,-13,5,1
2437,-90,-6,1002,-10,-13,-6
2438,30,14,1005,-11,-22,-9
2439,150,37,1006,-11,-15,-9
2440,138,50,1007,-15,3,-4
2441,41,28,1005,-16,20,1
2442,-93,18,987,-17,21,4
2443,-158,0,990,-14,9,2
2444,-107,-10,985,-13,-11,-5
2445,20,5,996,-11,-23,-10
2446,142,33,1010,-11,-19,-10
2447,150,39,1013,-14,0,-5
2448,66,35,1002,-16,20,1
2449,-79,26,986,-17,24,4
2450,-152,2,997,-16,12,3
2451,-137,-9,985,-13,-7,-3
2452,36,-6,995,-11,-21,-8
2453,983,-18,456,-4,-24,-8
2454,26,145,392,-7,90,8
2455,-432,-31,337,-38,122,-21
2456,-360,31,444,-7,-39,-16
2457,125,282,591,50,-92,-32
2458,237,15,1315,-84,-2,-32
2459,-391,-59,792,-57,95,2
2460,-275,-121,664,0,-9,0
2461,43,112,834,6,-88,-27
2462,249,72,1560,-28,-12,-12
2463,-269,-103,742,-54,64,-17
2464,-228,-66,773,2,-11,-24
2465,-97,70,1100,-3,-40,-5
2466,-147,-98,1217,-38,-29,3
2467,67,41,734,-3,-42,-20
2468,195,-15,1070,-15,-20,-2
2469,207,114,1123,-9,-7,-9
2470,113,26,941,-12,16,6
2471,-82,38,927,-17,30,3
2472,-239,21,1086,-21,17,10
2473,-90,-14,952,-11,-13,-15
2474,-27,-28,959,-16,-18,-3
2475,139,47,1020,-5,-24,-7
2476,196,28,1065,-15,0,-12
2477,72,25,955,-17,19,2
2478,-90,45,990,-12,22,11
2479,-137,10,1025,-17,12,-6
2480,-142,-16,960,-13,-5,-1
2481,3,13,976,-8,-22,-6
2482,142,21,1045,-17,-18,-11
2483,153,34,997,-12,-2,-5
2484,76,35,989,-16,16,2
2485,-68,25,1009,-16,25,2
2486,-149,6,997,-14,13,2
2487,-123,-6,969,-13,-7,-4
2488,-9,9,1002,-10,-20,-7
2489,124,29,1012,-12,-20,-9
2490,142,34,1006,-17,-1,-4
2491,75,34,1005,-16,15,0
2492,-58,26,989,-17,23,2
2493,-143,1,996,-16,14,2
2494,-144,-6,987,-14,-5,-2
2495,-14,4,993,-11,-19,-9
2496,107,27,999,-10,-19,-10
2497,141,37,1006,-14,-4,-6
2498,87,43,1009,-16,13,-2
2499,-49,29,988,-17,24,3
2500,-142,4,991,-17,15,2
2501,-156,-7,979,-13,-2,-3
2502,-26,4,1003,-12,-19,-9
2503,91,18,1007,-13,-22,-9
2504,153,36,1004,-14,-8,-7
2505,114,40,996,-17,11,-3
2506,-28,34,999,-17,24,4
2507,-134,5,998,-15,17,2
2508,-157,0,975,-13,0,-2
2509,-46,4,986,-10,-19,-7
2510,76,15,1015,-10,-23,-10
2511,157,33,1017,-11,-10,-8
2512,128,41,996,-14,9,-3
2513,-3,32,1000,-17,25,4
2514,-124,9,995,-16,20,3
2515,-158,0,980,-15,3,0
2516,-68,0,995,-13,-16,-6
2517,55,8,1006,-12,-23,-9
2518,161,35,1004,-12,-14,-7
2519,137,40,1004,-16,7,-3
2520,17,28,1016,-17,22,3
2521,-109,10,988,-14,22,4
2522,439,31,706,10,16,-1
2523,348,10,196,-42,-11,-52
2524,-196,143,187,15,123,-40
2525,-426,-89,336,-8,34,-65
2526,18,305,379,26,-83,-74
2527,267,148,1067,-50,-53,-101
2528,-55,-126,1026,-99,74,-39
2529,-418,-65,746,-14,57,9
2530,-116,-23,549,10,-60,-23
2531,112,160,1379,-6,-81,-53
2532,21,-16,1222,-64,41,-12
2533,-450,-248,776,-51,64,-6
2534,-215,29,531,35,-38,-38
2535,-61,102,1343,15,-69,-48
2536,-37,12,1217,-63,-22,6
2537,-296,-85,707,-32,-6,0
2538,204,-28,943,-13,-69,-11
2539,160,5,1278,-14,-17,-3
2540,217,43,870,7,-3,-15
2541,112,-15,920,-13,24,2
2542,-86,141,1119,4,39,9
2543,-162,-5,997,-19,18,-3
2544,-159,29,874,-10,0,-1
2545,-95,11,1052,-19,-21,0
2546,137,17,1057,-16,-31,-16
2547,168,-17,963,-21,-7,-9
2548,126,38,951,-12,9,4
2549,16,18,1083,-18,23,-1
2550,-112,-5,975,-11,24,2
2551,-185,12,933,-6,9,5
2552,-51,27,1019,-8,-16,-9
2553,34,20,1029,-10,-20,-10
2554,155,49,974,-16,-17,-5
2555,140,38,1024,-22,4,-3
2556,22,22,1006,-21,22,2
2557,-102,-12,978,-20,20,5
2558,-152,-5,982,-11,6,1
2559,-91,-12,1005,-7,-12,-6
2560,42,17,993,-6,-20,-11
2561,135,47,1006,-11,-12,-7
2562,136,62,1005,-17,5,-3
2563,27,37,1021,-21,19,2
2564,-105,17,982,-21,20,4
2565,-154,-7,976,-19,8,2
2566,-99,-17,987,-11,-11,-6
2567,14,-1,1008,-9,-21,-9
2568,140,35,1009,-9,-17,-10
2569,135,44,1001,-10,3,-6
2570,45,46,1001,-15,19,1
2571,-95,36,998,-17,23,2
2572,-154,5,994,-16,10,0
2573,-126,-10,974,-18,-11,-4
2574,10,0,998,-13,-23,-9
2575,129,20,1011,-10,-18,-10
2576,150,34,1002,-14,0,-4
2577,75,38,1011,-14,18,1
2578,-68,35,988,-16,24,3
2579,-150,9,989,-16,13,1
2580,-144,-1,986,-12,-6,-3
2581,-12,8,1008,-13,-21,-8
2582,118,23,1000,-11,-21,-10
2583,159,26,1000,-15,-4,-6
2584,99,34,1007,-14,13,0
2585,-38,23,1001,-17,25,4
2586,-137,4,989,-14,17,1
2587,-157,1,972,-12,-1,-1
2588,-27,9,1006,-11,-20,-6
2589,89,21,1012,-13,-22,-9
2590,162,34,1004,-16,-9,-7
2591,119,36,995,-16,12,-3
2592,-18,26,999,-16,24,4
2593,-130,1,1000,-17,19,3
2594,-162,0,974,-13,2,1
2595,-56,3,992,-11,-17,-7
2596,88,8,1011,-11,-21,-9
2597,965,-14,559,-10,-13,-4
2598,61,154,450,15,137,10
2599,-495,32,374,-25,148,-9
2600,-467,-49,482,5,-6,-12
2601,-119,162,329,54,-78,-7
2602,171,135,1356,-57,-74,-7
2603,-247,41,993,-64,63,-3
2604,-327,-196,684,-45,16,-14
2605,-22,25,679,2,-70,-29
2606,81,-1,1536,-13,-33,5
2607,7,-45,798,-34,-1,-12
2608,-61,-89,862,-4,1,-6
2609,27,67,1071,7,-27,8
2610,-5,39,1180,-11,-9,-5
2611,151,56,771,-3,-11,-14
2612,-11,60,1066,-17,14,16
2613,62,86,1078,-22,1,-9
2614,-52,-38,957,-27,13,0
2615,-90,24,916,-18,2,6
2616,-86,-35,1105,-23,-8,-3
2617,45,-2,959,-6,-14,-17
2618,67,-2,957,-11,-10,2
2619,119,71,1035,-2,1,-7
2620,61,22,1049,-15,17,-5
2621,-50,57,919,-13,19,4
2622,-129,18,1016,-19,11,5
2623,-110,0,1013,-18,-7,-6
2624,-10,-11,989,-17,-18,-4
2625,109,9,983,-12,-17,-8
2626,139,11,1031,-15,-2,-4
2627,98,31,987,-8,13,-2
2628,-45,37,996,-13,25,6
2629,-123,23,1000,-16,14,0
2630,-148,11,977,-13,0,-1
2631,-29,19,988,-11,-19,-5
2632,75,13,1021,-17,-20,-8
2633,151,23,1008,-16,-9,-7
2634,109,25,991,-17,10,-2
2635,-14,24,1001,-13,24,3
2636,-125,3,993,-15,21,2
2637,-156,12,974,-11,4,-1
2638,-65,12,1004,-10,-16,-6
2639,51,24,1008,-12,-21,-9
2640,147,39,998,-15,-12,-7
2641,122,41,1012,-18,7,-3
2642,10,23,1010,-21,22,1
2643,-111,2,975,-16,20,1
2644,-156,1,979,-11,6,0
2645,-83,-4,1003,-10,-14,-6
2646,37,14,1000,-10,-21,-11
2647,147,41,1009,-12,-14,-8
2648,133,51,1009,-16,5,-3
2649,36,33,1005,-18,19,0
2650,-97,15,988,-18,22,2
2651,-155,0,990,-18,8,1
2652,-105,-14,984,-12,-12,-5
2653,23,4,997,-9,-22,-8
2654,144,35,1010,-10,-17,-9
2655,147,41,1013,-15,3,-5
2656,63,39,1001,-18,18,1
2657,-81,27,984,-18,24,5
2658,-151,4,998,-17,11,2
2659,-131,-13,984,-13,-9,-4
2660,5,3,994,-9,-22,-9
2661,132,21,1005,-10,-19,-10
2662,156,36,1005,-12,-2,-6
2663,87,43,1004,-14,17,0
2664,-59,32,994,-18,27,4
2665,-146,8,987,-15,16,2
2666,-146,-8,986,-13,-3,-2
2667,725,-36,653,-5,-24,-9
2668,313,73,214,40,84,-5
2669,-330,64,359,-30,111,-12
2670,-447,-61,577,57,3,-24
2671,13,256,459,-1,-69,-21
2672,225,59,1202,-59,-39,-25
2673,-278,-15,958,-42,67,11
2674,-359,-153,740,-67,7,31
2675,-39,-26,723,17,-65,29
2676,141,61,1518,-10,-29,18
2677,2,17,846,-28,26,-30
2678,-111,-81,841,9,14,-16
2679,-58,148,1030,-14,-19,21
2680,-162,7,1192,-21,-5,-2
2681,28,37,784,-12,-30,-20
2682,18,-19,1031,-33,-23,4
2683,132,47,1084,-10,-22,-10
2684,125,-40,992,-28,0,-9
2685,51,24,905,-11,12,2
2686,-92,12,1100,-8,17,5
2687,-81,37,971,-12,3,-8
2688,-103,3,953,-8,-4,3
2689,25,54,1013,-9,-18,-7
2690,114,24,1056,-21,-12,-10
2691,121,28,947,-15,0,-5
2692,33,10,1012,-23,16,5
2693,-50,19,1010,-17,19,-2
2694,-125,-16,992,-14,12,1
2695,-95,7,967,-8,-8,-2
2696,11,15,1020,-9,-16,-8
2697,118,35,1000,-11,-14,-10
2698,120,42,1003,-16,1,-3
2699,67,37,1010,-19,14,-1
2700,-60,17,993,-20,19,4
2701,-128,2,979,-17,11,4
2702,-124,-10,996,-2,1,-2
2703,-1,3,1000,-10,-17,-8
2704,104,21,1003,-9,-17,-8
2705,141,40,1004,-13,-2,-5
2706,83,43,1000,-13,16,-1
2707,-48,37,996,-17,23,5
2708,-141,4,998,-19,16,3
2709,-148,-4,972,-12,-2,-2
2710,-32,3,990,-12,-19,-7
2711,81,14,1015,-12,-18,-9
2712,151,33,1014,-14,-6,-7
2713,106,47,983,-12,12,-2
2714,-25,38,1002,-15,23,4
2715,-136,12,999,-16,17,2
2716,-162,2,971,-14,2,-2
2717,-55,-1,994,-13,-18,-8
2718,59,12,1012,-12,-22,-10
2719,158,31,1009,-14,-11,-10
2720,129,38,1005,-13,7,-4
2721,7,33,1008,-15,23,4
2722,-110,12,987,-17,21,3
2723,-156,8,974,-13,6,1
2724,-83,0,997,-13,-15,-5
2725,45,9,1013,-11,-23,-9
2726,154,34,1005,-13,-14,-7
2727,143,40,1001,-16,5,-4
2728,36,28,1013,-18,21,2
2729,-94,18,988,-18,23,3
2730,-153,3,983,-14,10,2
2731,-107,-7,983,-12,-10,-3
2732,25,10,1004,-12,-22,-7
2733,139,31,1007,-12,-18,-9
2734,144,39,1006,-16,2,-4
2735,64,30,1005,-17,18,2
2736,-83,23,982,-17,25,5
2737,-153,0,997,-16,13,2
2738,-136,-9,990,-14,-6,-2
2739,-5,7,991,-13,-20,-8
2740,122,26,1004,-11,-19,-8
2741,149,37,1009,-15,-2,-6
2742,85,42,1005,-17,15,0
2743,-62,31,993,-16,25,3
2744,-149,4,985,-16,14,2
2745,-154,-3,979,-13,-2,-3
2746,-27,12,1004,-10,-21,-8
2747,99,23,1014,-13,-23,-9
2748,156,33,1001,-12,-5,-7
2749,109,42,990,-17,13,-2
2750,-32,30,1005,-16,24,3
2751,-140,2,999,-15,17,2
2752,-155,-1,967,-15,0,-2
2753,-47,3,992,-11,-18,-6
2754,72,15,1016,-11,-23,-10
2755,164,33,1015,-13,-11,-8
2756,131,42,1000,-15,9,-2
2757,740,-41,660,-8,26,6
2758,120,71,229,17,122,9
2759,-491,121,399,-14,102,-1
2760,-573,-122,599,9,-12,-1
2761,-185,131,454,4,-80,21
2762,92,97,1138,-30,-66,14
2763,-189,61,980,-41,34,-7
2764,-306,-152,701,-59,-4,-18
2765,130,-12,961,-4,-63,9
2766,1,-2,1330,-21,-2,8
2767,150,-23,768,-11,-18,-27
2768,86,-41,958,8,9,2
2769,-12,135,1140,-3,12,7
2770,-36,15,973,-14,15,-9
2771,-52,42,886,-6,10,-4
2772,-188,63,1042,-28,-3,15
2773,13,32,1058,-23,-26,-18
2774,3,-42,952,-28,-16,-4
2775,70,20,964,-17,-19,4
2776,133,-18,1080,-17,-7,-12
2777,71,-6,964,-8,10,-5
2778,-8,36,965,-2,17,7
2779,-62,56,1036,-6,17,-3
2780,-128,33,987,-13,9,-1
2781,-92,41,957,-15,-11,-2
2782,19,25,1049,-23,-20,-7
2783,105,9,1000,-22,-17,-8
2784,127,-6,972,-17,-1,-3
2785,74,5,1006,-14,15,0
2786,-43,8,1014,-11,22,3
2787,-115,6,978,-7,13,1
2788,-133,28,980,-7,-2,-2
2789,-21,42,1006,-11,-18,-7
2790,79,36,1014,-16,-19,-9
2791,137,34,1007,-21,-8,-4
2792,104,24,996,-23,8,-2
2793,-11,1,994,-19,20,3
2794,-117,-13,990,-12,16,2
2795,-139,-2,985,-10,2,0
2796,-50,8,995,-6,-15,-6
2797,58,33,1002,-8,-19,-8
2798,141,53,1008,-13,-9,-6
2799,112,51,1008,-18,8,-3
2800,3,29,1009,-24,20,4
2801,-112,0,982,-22,18,4
2802,-145,-8,977,-16,4,0
2803,-82,-14,995,-11,-14,-5
2804,39,8,1008,-7,-21,-9
2805,144,41,1008,-9,-14,-8
2806,130,55,999,-13,5,-4
2807,28,45,1010,-17,21,1
2808,-101,29,989,-20,22,2
2809,-158,1,988,-18,8,1
2810,-112,-17,984,-14,-12,-4
2811,20,-2,998,-11,-24,-8
2812,138,27,1009,-10,-19,-10
2813,145,37,1009,-14,0,-5
2814,64,42,1006,-15,17,-1
2815,-75,35,982,-15,24,2
2816,-156,10,991,-18,13,2
2817,-142,-6,987,-15,-8,-3
2818,-3,3,1003,-13,-23,-8
2819,123,18,999,-12,-21,-9
2820,160,28,1001,-14,-5,-6
2821,96,39,1010,-15,14,-1
2822,-47,32,997,-17,25,5
2823,-142,5,985,-15,17,2
2824,-154,1,978,-11,-2,-2
2825,-27,11,1003,-12,-20,-8
2826,91,17,1014,-13,-21,-9
2827,162,31,1009,-14,-9,-6
2828,122,39,996,-17,12,-2
2829,-21,26,995,-16,25,5
2830,-134,5,997,-16,18,2
2831,-163,1,979,-14,3,-1
2832,-57,5,990,-10,-17,-6
2833,65,16,1008,-10,-22,-10
2834,155,42,1011,-13,-12,-7
2835,135,43,1011,-16,7,-2
2836,592,-34,814,-4,30,10
2837,254,22,266,7,70,7
2838,-397,140,263,36,173,21
2839,-490,-178,346,-41,9,26
2840,-86,118,440,53,-96,56
2841,216,72,1209,-41,-63,50
2842,-215,60,1004,-54,74,14
2843,-342,-158,651,-13,36,7
2844,-93,9,747,-19,-64,49
2845,-2,105,1455,-1,-41,35
2846,3,84,896,-11,4,-29
2847,0,-77,829,-29,-1,-20
2848,63,135,1068,-1,-22,18
2849,14,-4,1135,-35,-2,-9
2850,53,-25,838,-16,4,-16
2851,-126,15,1001,-11,12,16
2852,-28,36,1094,-20,-14,-13
2853,-38,-28,966,-13,-12,-8
2854,20,49,925,-11,-15,2
2855,87,29,1088,-19,-10,-7
2856,127,19,994,-11,0,-13
2857,33,12,944,-20,13,7
2858,-34,36,1025,-14,15,2
2859,-112,-7,1031,-14,12,-2
2860,-114,5,929,-12,-5,-1
2861,-12,22,1020,-11,-17,-4
2862,91,30,1035,-13,-19,-10
2863,125,26,985,-15,-3,-5
2864,94,42,981,-14,12,-1
2865,-32,18,1023,-19,22,4
2866,-106,-1,989,-17,12,2
2867,-141,-3,973,-14,0,0
2868,-32,13,1001,-10,-16,-7
2869,66,11,1013,-12,-18,-9
2870,142,44,1001,-13,-9,-6
2871,110,44,1009,-17,8,-2
2872,-2,30,1005,-17,21,1
2873,-113,7,981,-18,19,4
2874,-147,3,981,-15,4,0
2875,-68,-7,1000,-12,-15,-6
2876,45,7,1002,-10,-20,-8
2877,145,39,1003,-10,-11,-7
2878,127,46,1005,-14,7,-3
2879,20,33,1009,-19,20,3
2880,-104,18,989,-17,21,3
2881,-155,4,985,-17,9,1
2882,-98,-11,980,-12,-10,-5
2883,23,5,1003,-9,-22,-7
2884,141,34,1013,-13,-18,-8
2885,137,41,1006,-12,3,-5
2886,51,38,1002,-17,20,2
2887,-87,25,985,-17,23,3
2888,-151,3,998,-16,10,1
2889,-129,-11,985,-13,-10,-4
2890,7,9,996,-10,-21,-9
2891,127,26,1009,-11,-18,-9
2892,152,35,1004,-16,-2,-5
2893,81,39,1007,-16,16,0
2894,-62,32,992,-17,25,4
2895,-144,2,985,-15,15,2
2896,-147,-5,982,-13,-5,-2
2897,-16,8,1008,-12,-23,-7
2898,107,18,1011,-13,-22,-10
2899,160,30,998,-13,-6,-7
2900,108,44,998,-15,14,0
2901,-30,32,1004,-18,25,3
2902,-138,2,996,-18,16,2
2903,-155,0,969,-14,-1,0
2904,-43,1,995,-12,-18,-6
2905,639,-111,839,-14,-26,-5
2906,593,151,336,40,69,3
2907,-225,195,284,-28,148,-20
2908,-473,-96,211,21,28,-39
2909,-38,198,242,31,-71,-32
2910,301,137,945,-54,-67,-28
2911,48,-91,1183,-62,62,29
2912,-424,-180,779,-69,78,83
2913,-18,-161,428,-6,-31,92
2914,41,75,949,54,-77,81
2915,399,225,1605,-27,-12,62
2916,-338,-95,894,-40,111,24
2917,-89,-32,550,-5,9,48
2918,-207,48,721,16,-58,45
2919,258,227,1672,-2,-54,44
2920,-293,-47,954,-70,64,21
2921,-158,-127,687,-21,14,41
2922,-185,36,729,15,-50,32
2923,120,100,1583,-18,-30,36
2924,-361,-23,858,-31,52,-2
2925,-276,-98,775,-11,-16,5
2926,-69,60,959,-4,-57,-1
2927,83,55,1328,-4,-38,-8
2928,216,39,761,-23,-31,-16
2929,191,42,1028,-15,4,4
2930,68,75,1090,-22,11,-1
2931,-56,-16,1002,-25,24,2
2932,-157,-32,864,-13,15,-3
2933,-151,-3,1089,-11,-7,7
2934,72,2,1004,-8,-28,-23
2935,104,6,955,-9,-10,-3
2936,136,91,994,-11,-3,-2
2937,60,52,1089,-20,16,-2
2938,-70,14,940,-23,18,0
2939,-159,3,966,-19,7,9
2940,-64,-8,1035,-14,-11,-11
2941,11,-26,992,-14,-17,-7
2942,129,24,976,-8,-16,-8
2943,132,46,1037,-11,4,-5
2944,35,49,1003,-14,18,2
2945,-84,31,974,-15,20,6
2946,-149,22,995,-18,8,0
2947,-90,-7,1003,-19,-11,-3
2948,17,-8,982,-13,-20,-7
2949,124,19,1003,-13,-14,-6
2950,133,30,1014,-13,2,-6
2951,40,30,1010,-13,18,1
2952,-90,29,984,-15,21,4
2953,-145,19,983,-14,10,1
2954,-110,5,990,-11,-9,-4
2955,1,10,997,-13,-19,-8
2956,128,27,1012,-11,-16,-10
2957,137,28,1002,-15,1,-6
2958,55,24,997,-15,18,0
2959,-70,26,992,-14,22,3
2960,-144,5,1000,-16,12,2
2961,-128,1,978,-12,-7,-3
2962,0,11,994,-11,-20,-8
2963,113,31,1005,-12,-19,-9
2964,145,35,1007,-16,-4,-5
2965,80,34,1009,-17,13,0
2966,-54,29,988,-17,22,4
2967,-132,2,988,-15,14,1
2968,-145,-3,982,-13,-3,-2
2969,-14,6,1010,-11,-21,-10
2970,105,21,1010,-11,-21,-9
2971,151,34,995,-12,-5,-6
2972,106,43,999,-16,13,-1
2973,-34,27,1007,-17,24,5
2974,-131,3,992,-16,15,1
2975,-154,-5,970,-15,0,-2
2976,-39,2,992,-11,-18,-7
2977,77,15,1012,-11,-20,-10
2978,158,36,1015,-15,-10,-7
2979,121,44,1001,-16,10,-3
2980,-10,30,995,-17,24,4
2981,-126,9,987,-15,20,2
2982,-131,-9,982,-15,3,1
2983,644,68,762,6,-18,-22
2984,172,33,111,7,90,-69
2985,-252,83,252,25,111,-44
2986,-389,31,388,38,23,-76
2987,74,257,361,-6,-57,-97
2988,253,66,1104,-35,-35,-94
2989,-186,-150,940,-91,66,6
2990,-357,-152,801,-51,28,55
2991,-101,-75,554,27,-53,28
2992,213,80,1442,-10,-67,7
2993,8,81,1105,-25,50,-12
2994,-302,-175,807,-12,51,-27
2995,-143,180,614,20,-32,-33
2996,-7,98,1424,-7,-47,-42
2997,-72,56,1036,-60,-5,1
2998,-305,-96,808,-45,1,-3
2999,90,-49,915,-17,-59,-11
3000,48,-71,1261,-25,-20,2
3001,195,17,860,4,-21,-17
3002,92,-1,953,-6,8,5
3003,2,145,1110,4,16,0
3004,-125,28,1000,-18,13,1
3005,-67,62,898,-18,-3,-5
3006,-63,-5,1054,-26,-14,4
3007,112,6,1013,-17,-20,-12
3008,115,-41,975,-24,-2,-5
3009,45,31,975,-8,11,5
3010,-28,-1,1070,-12,14,-4
3011,-101,21,947,-3,11,-3
3012,-83,40,966,-5,-3,2
3013,25,38,1040,-12,-12,-11
3014,82,31,1015,-15,-6,-6
3015,103,36,961,-20,0,-3
3016,19,13,1024,-22,14,1
3017,-68,-4,998,-17,13,0
3018,-114,-7,973,-14,4,1
3019,-56,6,995,-10,-10,-4
3020,28,11,1012,-10,-15,-7
3021,121,44,990,-10,-9,-7
3022,95,49,1008,-15,6,-3
3023,18,40,1019,-17,17,1
3024,-88,13,982,-19,17,3
3025,-133,4,979,-16,6,1
3026,-79,-14,995,-14,-11,-4
3027,28,0,1001,-12,-18,-8
3028,124,31,1005,-12,-15,-8
3029,120,44,1007,-11,4,-4
3030,35,41,998,-14,21,1
3031,-90,36,985,-17,21,3
3032,-145,9,1004,-16,8,2
3033,-115,-7,985,-16,-10,-3
3034,16,2,986,-12,-21,-8
3035,126,19,1010,-10,-16,-9
3036,140,29,1009,-13,0,-5
3037,68,37,1000,-14,16,1
3038,-65,35,994,-15,24,5
3039,-141,13,986,-12,15,3
3040,-142,-2,985,-14,-4,-2
3041,-8,9,1008,-38,-25,-6
3042,109,15,1011,-13,-21,-10
3043,156,29,995,-13,-6,-7
3044,101,33,997,-13,13,-3
3045,-38,30,1007,-16,25,3
3046,-135,2,992,-15,17,2
3047,-151,4,970,-11,0,-1
3048,-34,8,995,-10,-19,-7
3049,79,17,1013,-13,-21,-9
3050,158,32,1015,-16,-10,-8
3051,116,43,993,-15,10,-2
3052,-6,25,1000,-17,23,3
3053,-124,5,989,-17,19,3
3054,-160,1,982,-13,4,1
3055,-63,-2,1000,-12,-17,-8
3056,51,15,1005,-12,-22,-9
3057,154,39,998,-11,-12,-7
3058,495,-10,992,-12,7,-6
3059,633,133,221,-8,50,-59
3060,-310,106,290,5,145,-36
3061,-529,-59,350,-5,46,-53
3062,-141,161,338,-5,-75,-62
3063,164,173,925,12,-79,-74
3064,12,-101,1138,-103,35,-20
3065,-408,-138,737,-56,73,32
3066,-152,-120,573,12,-21,22
3067,-55,49,1094,1,-76,1
3068,135,120,1428,-10,-12,7
3069,-340,-128,758,-36,57,-23
3070,-137,15,711,-3,-26,-1
3071,-65,77,1206,2,-38,0
3072,67,51,1151,-25,-33,-11
3073,88,2,764,-27,-16,-3
3074,93,17,1050,-17,-7,10
3075,2,28,1147,-26,-1,2
3076,-5,-26,893,-6,3,-6
3077,-69,13,943,-10,2,0
3078,-26,59,1100,-11,-8,-5
3079,65,8,972,-10,-6,-15
3080,47,41,933,-17,1,3
3081,20,46,1057,-22,1,3
3082,0,-1,1039,-22,3,-6
3083,-82,-19,916,-21,3,2
3084,-35,15,1008,-8,-6,0
3085,27,-6,1050,-10,-7,-13
3086,77,24,965,-9,-5,-6
3087,75,55,986,-9,4,-2
3088,10,48,1040,-17,15,-2
3089,-70,21,975,-19,13,0
3090,-106,11,970,-19,2,2
3091,-48,-4,1021,-18,-13,-5
3092,40,-12,999,-14,-16,-9
3093,116,21,985,-11,-7,-5
3094,98,33,1012,-11,7,-2
3095,17,34,1019,-14,17,1
3096,-85,31,979,-15,16,3
3097,-129,24,988,-14,5,1
3098,-81,6,992,-16,-11,-6
3099,23,3,1000,-15,-19,-8
3100,121,21,1006,-16,-14,-6
3101,119,22,1004,-16,3,-4
3102,44,23,1000,-15,18,1
3103,-82,28,985,-12,22,2
3104,-139,13,1003,-12,10,1
3105,-116,9,986,-13,-8,-3
3106,6,18,990,-13,-20,-6
3107,117,29,1007,-14,-17,-9
3108,134,27,1006,-17,-2,-6
3109,67,29,1003,-16,15,-1
3110,-58,22,991,-15,22,3
3111,-136,1,988,-12,13,2
3112,-137,2,980,-9,-3,-1
3113,-9,18,1015,-11,-20,-6
3114,99,28,1010,-11,-20,-9
3115,145,34,995,-15,-5,-4
3116,98,42,997,-18,13,-2
3117,-39,25,1008,-20,23,4
3118,-131,0,988,-16,14,2
3119,-148,-4,975,-12,0,0
3120,-35,5,996,-11,-18,-7
3121,73,14,1011,-10,-20,-9
3122,159,37,1010,-14,-11,-8
3123,116,45,1006,-15,10,-2
3124,-7,31,997,-19,24,3
3125,-124,6,980,-17,19,3
3126,-154,3,984,-15,3,-1
3127,-71,-5,999,-13,-17,-5
3128,53,9,1002,-13,-22,-9
3129,156,30,1003,-12,-13,-7
3130,132,45,1008,-14,7,-4
3131,21,33,1015,-15,22,3
3132,-109,23,984,-16,21,5
3133,-158,7,981,-14,8,2
3134,-100,-6,989,-13,-13,-5
3135,28,6,1002,-13,-23,-7
3136,145,33,1010,-11,-17,-9
3137,142,37,1008,-16,3,-4
3138,54,34,1000,-17,21,0
3139,-89,25,984,-15,24,4
3140,-156,4,998,-15,10,1
3141,-129,-8,987,-14,-8,-3
3142,527,3,805,9,-17,-9
3143,380,9,350,-18,21,-32
3144,-370,94,225,34,162,-7
3145,-557,-80,372,-8,29,-15
3146,-156,248,392,28,-75,-8
3147,59,3,1079,-58,-55,-12
3148,-181,57,933,-59,18,5
3149,-193,-139,765,-30,-12,-13
3150,215,-45,977,-23,-54,-10
3151,73,-41,1240,-12,0,3
3152,243,24,835,12,1,-20
3153,-25,16,996,-9,40,10
3154,-168,139,1059,9,19,5
3155,-191,32,973,-23,-1,-4
3156,-97,38,916,-18,-19,-7
3157,-21,16,1058,-25,-31,1
3158,227,6,1041,-29,-31,-19
3159,151,-45,965,-22,0,-2
3160,65,20,976,-10,15,7
3161,-50,-15,1069,-12,24,-3
3162,-155,25,937,5,18,1
3163,-122,38,970,-7,-6,0
3164,6,52,1037,-8,-18,-12
3165,103,49,1005,-17,-14,-8
3166,143,44,971,-24,-4,-5
3167,52,4,1041,-24,13,3
3168,-54,-4,980,-21,16,3
3169,-125,-25,979,-16,11,2
3170,-109,-4,988,-6,-3,-3
3171,2,15,1006,-9,-17,-7
3172,119,49,998,-5,-14,-9
3173,119,58,1013,-16,1,-3
3174,67,50,1008,-20,14,-1
3175,-61,26,986,-22,20,3
3176,-137,-5,988,-22,10,2
3177,-124,-21,998,-16,-7,-3
3178,1,-6,995,-8,-18,-8
3179,106,19,998,-7,-17,-8
3180,147,39,1008,-11,-3,-5
3181,80,48,1007,-13,15,0
3182,-50,50,991,-17,24,4
3183,-139,12,998,-18,17,3
3184,-149,-3,974,-17,-2,-2
3185,-29,-5,995,-14,-20,-6
3186,85,10,1017,-12,-21,-9
3187,151,20,1008,-12,-6,-7
3188,113,42,985,-13,12,-2
3189,-16,35,1002,-14,24,3
3190,-129,17,999,-13,18,2
3191,-162,9,976,-14,2,-2
3192,-56,7,995,-13,-18,-5
3193,52,8,1005,-14,-23,-9
3194,154,29,1006,-14,-14,-9
3195,130,32,1009,-17,8,-3
3196,9,26,1007,-16,22,2
3197,-112,11,981,-15,20,3
3198,-157,10,979,-12,6,0
3199,-91,2,994,-13,-13,-7
3200,32,14,1010,-12,-22,-10
3201,147,37,1005,-12,-16,-10
3202,141,39,1001,-17,2,-5
3203,43,29,1009,-17,20,0
3204,-91,17,989,-17,22,2
3205,-152,0,991,-16,10,1
3206,-114,-8,982,-10,-10,-5
3207,18,9,995,-10,-23,-10
3208,136,35,1013,-11,-19,-9
3209,147,40,1012,-16,0,-6
3210,72,36,1004,-17,17,0
3211,-72,26,985,-18,24,4
3212,-148,1,988,-17,12,1
3213,-140,-12,989,-14,-6,-3
3214,-3,4,999,-9,-21,-7
3215,115,26,1005,-10,-20,-10
3216,158,34,1004,-14,-3,-6
3217,96,47,1000,-15,14,-1
3218,-44,33,1005,-19,24,4
3219,-141,3,994,-17,14,2
3220,-154,-2,968,-15,-2,-1
3221,-36,5,991,-10,-19,-8
3222,84,13,1022,-10,-22,-10
3223,349,-57,1059,-8,-5,-7
3224,711,264,168,-3,2,-76
3225,-99,42,101,33,190,-120
3226,-504,-20,164,-41,81,-90
3227,-380,101,270,94,-38,-83
3228,-16,232,298,-59,-93,-77
3229,191,-111,1070,-96,-9,-32
3230,-444,-140,745,-46,80,52
3231,-235,-196,733,-76,-13,84
3232,-131,-58,593,33,-73,53
3233,268,118,1578,8,-44,48
3234,-240,45,885,-32,77,-21
3235,-288,-114,787,30,23,-7
3236,-149,232,697,8,-49,-8
3237,118,76,1543,-28,-41,-15
3238,-31,108,781,-35,5,-8
3239,-71,-91,927,-54,-9,0
3240,79,0,1007,-19,-26,2
3241,-81,-98,1192,-25,6,4
3242,60,-41,747,0,-16,-14
3243,-13,3,1108,10,2,8
3244,97,119,1032,1,-11,-18
3245,43,47,979,-11,6,-2
3246,18,107,928,-19,5,0
3247,-90,39,1097,-35,6,7
3248,-19,-9,952,-26,-5,-12
3249,-90,-76,965,-28,-6,7
3250,45,4,1016,-8,-18,-8
3251,90,-35,1054,-8,-6,-11
3252,98,44,936,2,5,-5
3253,40,69,1013,-5,17,4
3254,-34,75,1025,-13,19,-3
3255,-124,27,984,-20,11,6
3256,-105,24,964,-21,-5,-2
3257,-16,-19,1033,-26,-18,-7
3258,78,-15,987,-17,-20,-9
3259,134,0,1002,-15,-8,-3
3260,100,29,1014,-9,10,-4
3261,-13,30,1007,-9,23,3
3262,-108,40,964,-9,19,3
3263,-144,37,993,-13,5,1
3264,-65,21,1004,-17,-16,-7
3265,35,8,1002,-19,-20,-7
3266,142,22,1000,-19,-14,-7
3267,121,12,1004,-19,5,-3
3268,27,12,1003,-15,18,1
3269,-98,11,992,-13,21,3
3270,-146,18,988,-9,9,-1
3271,-102,10,981,-10,-10,-5
3272,21,29,1000,-13,-21,-9
3273,126,38,1015,-13,-16,-9
3274,134,31,1003,-21,1,-5
3275,55,21,1001,-18,17,0
3276,-74,18,984,-15,21,3
3277,-148,-5,991,-13,11,1
3278,-130,-1,988,-10,-5,-4
3279,2,17,1007,-9,-20,-9
3280,114,33,999,-10,-19,-10
3281,147,37,1003,-14,-2,-5
3282,86,40,1005,-19,15,-1
3283,-51,27,1000,-18,24,3
3284,-133,-2,988,-16,13,2
3285,-147,-2,971,-14,-2,-3
3286,-19,1,999,-12,-20,-9
3287,88,17,1013,-12,-21,-8
3288,157,37,1012,-13,-7,-8
3289,115,45,1000,-14,12,-3
3290,-18,35,995,-17,24,3
3291,-129,8,990,-17,19,2
3292,-154,3,986,-15,1,-1
3293,-58,-6,995,-12,-17,-7
3294,64,6,1005,-13,-22,-9
3295,158,33,1002,-10,-13,-8
3296,128,43,1010,-14,8,-4
3297,15,32,1013,-19,23,3
3298,-117,18,980,-18,20,5
3299,-155,6,978,-16,6,0
3300,-95,-6,993,-11,-13,-5
3301,33,10,1005,-12,-23,-8
3302,152,30,1009,-13,-18,-9
3303,140,39,1004,-13,4,-5
3304,47,34,1002,-18,20,1
3305,-94,25,988,-17,25,3
3306,-162,6,995,-15,12,2
3307,-127,-7,986,-14,-10,-4
3308,526,-35,850,3,-25,-14
3309,418,160,184,21,31,-104
3310,-209,66,209,-88,108,-53
3311,-537,-52,200,38,14,-58
3312,-139,268,274,36,-50,-57
3313,90,64,853,-105,-59,-58
3314,-135,-129,998,-39,38,13
3315,-520,-125,696,-71,20,53
3316,-43,-176,707,-20,-73,48
3317,78,44,1320,31,-31,27
3318,90,93,1047,-21,8,-29
3319,32,-31,789,14,8,-21
3320,-46,202,1068,-3,-2,25
3321,-148,76,1111,-45,5,-2
3322,-40,1,901,-12,-7,-16
3323,-59,-41,938,-44,-20,7
3324,97,-14,1106,-14,-27,-7
3325,147,-56,994,-13,-7,-15
3326,53,21,925,-9,14,5
3327,-39,61,1048,0,15,-3
3328,-91,54,1018,-11,5,-6
3329,-106,31,923,-17,-7,1
3330,-1,29,1018,-15,-14,-5
3331,111,9,1049,-28,-15,-12
3332,117,-5,955,-17,-2,-4
3333,57,3,996,-16,11,1
3334,-48,12,1032,-14,18,1
3335,-110,12,984,-6,13,0
3336,-102,17,965,-8,-3,-1
3337,-1,34,1013,-9,-16,-8
3338,104,39,1011,-14,-15,-8
3339,114,33,999,-21,0,-4
3340,66,25,1008,-21,11,1
3341,-48,7,988,-20,19,3
3342,-122,-7,987,-16,10,2
3343,-124,-9,994,-10,-5,-3
3344,-5,12,1002,-9,-17,-8
3345,96,34,999,-8,-16,-8
3346,132,42,1000,-14,-4,-4
3347,80,50,1004,-16,13,-3
3348,-46,29,1000,-21,24,4
3349,-134,-1,994,-19,14,2
3350,-139,-7,972,-14,-3,-1
3351,-29,-2,993,-10,-17,-7
3352,72,15,1016,-10,-18,-7
3353,147,34,1015,-12,-7,-6
3354,110,51,991,-15,10,-1
3355,-17,38,998,-17,22,3
3356,-124,12,993,-17,18,1
3357,-155,2,980,-15,3,-1
3358,-65,-1,995,-12,-18,-8
3359,51,7,1006,-12,-22,-10
3360,156,35,1004,-12,-12,-10
3361,124,41,1003,-15,8,-3
3362,19,35,1015,-15,21,3
3363,-108,18,988,-15,21,2
3364,-153,7,972,-14,8,1
3365,-98,-5,990,-11,-13,-4
3366,27,8,1007,-12,-23,-9
3367,146,28,1008,-14,-19,-8
3368,145,34,1004,-13,2,-5
3369,54,31,1007,-16,18,2
3370,-83,26,983,-16,24,3
3371,-151,6,998,-13,11,1
3372,-127,-3,985,-12,-10,-4
3373,10,10,999,-10,-22,-9
3374,129,26,1003,-17,-20,-9
3375,148,29,1003,-23,-5,-4
3376,86,36,1009,-15,15,-1
3377,-59,26,993,-19,24,4
3378,-145,1,986,-14,13,2
3379,-146,-4,976,-15,-4,-2
3380,-28,11,1002,-11,-20,-7
3381,100,20,1015,-12,-22,-10
3382,156,32,1009,-15,-6,-6
3383,108,41,988,-17,12,-1
3384,-23,29,1003,-18,24,3
3385,-139,4,996,-15,18,3
3386,-157,1,972,-14,2,0
3387,-50,1,997,-11,-16,-7
3388,64,12,1014,-12,-23,-8
3389,602,92,771,16,-5,-16
3390,357,-7,190,-46,51,-76
3391,-282,54,141,43,194,-31
3392,-553,-34,209,-16,33,-37
3393,-109,228,276,54,-90,-41
3394,180,65,1015,-37,-61,-38
3395,-178,-93,961,-97,65,15
3396,-418,-153,701,-13,45,44
3397,-85,-64,576,-14,-70,33
3398,188,66,1468,4,-63,13
3399,-4,106,1045,-8,44,-15
3400,-270,-125,764,-25,38,-26
3401,-106,188,847,21,-31,12
3402,-138,5,1312,-38,-24,-1
3403,53,64,876,-25,-34,-21
3404,80,-57,903,-29,-15,2
3405,146,26,1113,-26,-17,-2
3406,41,-31,1045,-20,2,0
3407,23,-12,857,1,7,-3
3408,-153,14,1065,-11,13,7
3409,-31,58,1042,1,-7,-11
3410,17,12,947,-16,-11,-7
3411,70,68,970,-12,-10,2
3412,91,44,1076,-21,0,-6
3413,44,17,973,-27,12,-5
3414,-94,-15,964,-20,14,8
3415,-92,6,1010,-15,-1,-4
3416,-47,-26,1010,-11,-6,-7
3417,33,18,959,-2,-12,-5
3418,113,42,1035,-11,-7,-6
3419,106,54,1017,-11,6,-7
3420,1,42,981,-19,17,5
3421,-83,27,988,-20,15,2
3422,-127,0,1005,-20,4,1
3423,-63,-11,981,-18,-14,-3
3424,34,-6,1000,-14,-19,-8
3425,131,23,1013,-10,-11,-7
3426,118,37,1002,-12,7,-4
3427,27,41,1003,-14,20,1
3428,-93,35,992,-18,20,3
3429,-139,18,991,-16,8,1
3430,-104,0,981,-16,-10,-4
3431,19,1,999,-16,-21,-8
3432,125,17,1011,-14,-18,-7
3433,129,27,1002,-16,2,-5
3434,59,25,1012,-15,17,-2
3435,-74,31,979,-13,23,4
3436,-144,15,988,-14,11,2
3437,-133,8,993,-14,-7,-4
3438,-4,13,1008,-13,-19,-8
3439,110,24,996,-12,-19,-10
3440,144,25,1005,-15,-3,-6
3441,86,35,1004,-17,14,0
3442,-48,26,997,-16,24,3
3443,-135,4,991,-16,17,1
3444,-148,2,976,-12,0,-2
3445,-26,13,993,-12,-18,-8
3446,81,17,1016,-12,-20,-8
3447,157,37,1019,-13,-8,-7
3448,109,40,994,-16,10,-3
3449,-16,30,994,-15,22,2
3450,-126,5,993,-16,18,2
3451,-156,1,981,-12,3,0
3452,-57,1,996,-12,-18,-6
3453,57,11,1006,-13,-21,-9
3454,161,40,1005,-11,-12,-9
3455,125,41,1009,-17,8,-2
3456,13,32,1015,-17,22,3
3457,-109,12,980,-16,20,3
3458,-153,6,977,-14,7,0
3459,-96,-5,990,-13,-14,-5
3460,36,9,1005,-12,-23,-10
3461,148,33,1010,-14,-17,-8
3462,139,37,1003,-14,2,-3
3463,52,34,1006,-16,19,2
3464,-87,22,984,-18,24,3
3465,-159,4,995,-15,11,1
3466,-123,-8,987,-12,-11,-4
3467,9,11,997,-12,-23,-7
3468,130,29,1001,-11,-19,-9
3469,153,36,1011,-14,-1,-5
3470,79,43,1010,-17,16,1
3471,-61,29,985,-18,24,5
3472,-146,2,991,-14,15,2
3473,-153,0,978,-16,-3,-1
3474,-18,10,1000,-10,-21,-7
3475,100,17,1015,-13,-20,-8
3476,168,27,1014,-13,-5,-7
3477,615,168,800,10,19,-20
3478,211,-23,46,-77,59,-110
3479,-378,31,201,57,150,-44
3480,-636,-22,318,-24,22,-42
3481,-180,199,274,15,-84,-34
3482,48,10,1002,-38,-66,-24
3483,-220,-16,805,-98,32,8
3484,-327,-175,715,-25,5,-5
3485,167,-50,929,-15,-66,-11
3486,-5,-2,1337,-18,-12,10
3487,184,40,796,18,-18,-23
3488,48,7,962,-21,19,2
3489,-55,140,1104,5,16,7
3490,-42,29,999,-24,4,-7
3491,-25,20,879,-25,1,-9
3492,-112,2,1035,-17,-2,14
3493,34,12,1043,-26,-16,-14
3494,-23,-58,974,-21,-6,-3
3495,1,28,949,-2,-18,3
3496,85,5,1083,-16,-10,-11
3497,65,25,969,3,6,-5
3498,12,44,960,-12,9,7
3499,10,52,1043,-15,8,-6
3500,-82,32,993,-12,8,2
3501,-64,21,955,-20,-4,-1
3502,-52,2,1030,-19,-9,-5
3503,34,1,1006,-17,-15,-6
3504,91,-1,983,-17,-10,-6
3505,91,15,1005,-9,5,-4
3506,44,30,1000,-11,16,-1
3507,-41,36,989,-11,19,1
3508,-119,24,1000,-12,10,2
3509,-105,28,984,-17,-6,-3
3510,-5,12,1000,-17,-17,-6
3511,69,13,1003,-19,-15,-7
3512,131,20,1009,-19,-7,-6
3513,94,18,1003,-16,11,-4
3514,-20,21,1001,-13,21,4
3515,-106,15,983,-11,17,1
3516,-132,19,984,-9,3,0
3517,-64,15,995,-13,-15,-4
3518,50,22,1012,-13,-19,-8
3519,135,31,1001,-17,-10,-7
3520,109,30,996,-18,6,-2
3521,19,15,1009,-17,18,0
3522,-101,9,985,-17,19,3
3523,-142,6,992,-12,6,1
3524,-98,0,980,-10,-10,-4
3525,27,21,1002,-10,-22,-8
3526,130,36,1007,-13,-16,-8
3527,126,37,1008,-15,3,-4
3528,58,33,1003,-18,17,1
3529,-81,20,984,-17,22,3
3530,-142,0,982,-14,10,1
3531,-128,-8,993,-12,-6,-3
3532,0,13,1007,-10,-19,-7
3533,113,24,1005,-14,-19,-10
3534,146,38,1002,-13,-3,-6
3535,88,45,999,-17,14,-2
3536,-47,31,1002,-18,23,3
3537,-136,0,994,-18,14,2
3538,-147,-1,971,-12,-3,-1
3539,-28,0,993,-12,-19,-7
3540,80,12,1016,-11,-20,-8
3541,159,35,1010,-15,-10,-7
3542,115,43,1004,-13,11,-3
3543,-11,35,997,-16,23,3
3544,-127,14,987,-18,18,2
3545,-151,7,980,-14,3,-1
3546,-69,-5,998,-13,-17,-6
3547,51,6,1007,-12,-23,-9
3548,158,31,1005,-11,-14,-8
3549,132,41,1000,-17,7,-3
3550,24,33,1012,-16,22,2
3551,-105,24,988,-18,22,3
3552,-158,4,985,-15,7,1
3553,-107,-5,982,-13,-12,-6
3554,26,9,1003,-11,-23,-8
3555,140,31,1010,-11,-17,-9
3556,246,-14,1049,-14,2,-5
3557,753,136,437,40,42,-48
3558,-98,53,99,-69,104,-51
3559,-423,-36,239,58,67,-41
3560,-238,102,419,36,-29,-43
3561,181,175,753,-44,-67,-47
3562,113,-129,1223,-43,22,-12
3563,-351,-103,690,-49,68,37
3564,-156,-117,616,-4,-22,44
3565,151,104,1057,26,-72,29
3566,170,67,1491,-44,17,22
3567,-307,-82,757,-9,80,11
3568,-212,-32,643,5,-13,36
3569,-19,121,1039,-5,-65,34
3570,136,86,1465,-13,-10,13
3571,-215,8,784,-29,53,-10
3572,-174,-31,765,-13,-5,19
3573,-162,93,1090,-14,-35,30
3574,-75,73,1193,-32,-28,4
3575,-13,3,804,-27,-26,-22
3576,98,-4,1018,-27,-36,0
3577,203,47,1115,-22,-21,-5
3578,161,-21,962,-19,12,-10
3579,11,-16,925,-16,24,5
3580,-125,26,1085,-7,20,7
3581,-129,0,979,-10,4,-9
3582,-111,7,924,-7,-10,0
3583,29,60,1034,-8,-25,-8
3584,151,47,1058,-20,-18,-14
3585,135,23,954,-21,2,-4
3586,55,29,996,-21,18,5
3587,-64,3,1030,-20,23,-1
3588,-138,-22,967,-13,12,3
3589,-131,-4,969,-10,-8,-2
3590,3,18,1033,-8,-19,-8
3591,111,40,1001,-9,-18,-9
3592,147,54,982,-13,-4,-4
3593,84,49,1018,-19,14,-2
3594,-42,25,1006,-23,22,3
3595,-130,-10,979,-21,14,2
3596,-147,-14,974,-14,-1,-1
3597,-30,-7,1002,-10,-18,-8
3598,76,12,1009,-8,-19,-9
3599,147,42,1009,-12,-8,-6
3600,110,58,1004,-16,10,-2
3601,-15,41,995,-18,25,3
3602,-127,13,986,-21,18,3
3603,-157,0,980,-17,2,0
3604,-70,-16,997,-13,-18,-6
3605,49,-1,1001,-11,-23,-9
3606,151,35,1007,-10,-13,-8
3607,131,47,1003,-15,6,-4
3608,19,42,1014,-16,21,3
3609,-105,26,988,-15,21,3
3610,-157,12,983,-15,8,2
3611,-105,-4,983,-16,-12,-4
3612,22,4,1002,-13,-21,-7
3613,140,24,1012,-13,-18,-10
3614,141,31,1008,-14,1,-5
3615,61,34,1003,-14,17,-1
3616,-74,29,987,-16,24,4
3617,-150,13,991,-15,12,2
3618,-132,1,987,-14,-8,-4
3619,-2,10,1003,-10,-20,-9
3620,118,21,1000,-14,-21,-9
3621,155,24,1001,-14,-5,-6
3622,95,30,1005,-17,14,-2
3623,-44,28,1001,-18,24,4
3624,-134,3,991,-13,16,2
3625,-150,1,972,-12,-2,-2
3626,-33,11,995,-11,-20,-6
3627,78,16,1020,-12,-21,-10
3628,156,34,1014,-13,-10,-8
3629,116,39,995,-16,9,-2
3630,-10,25,998,-18,22,4
3631,-129,4,991,-16,19,3
3632,-155,3,978,-14,2,1
3633,-70,0,998,-12,-17,-6
3634,54,17,1004,-10,-23,-8
3635,155,38,1002,-14,-13,-9
3636,132,44,1006,-17,6,-4
3637,16,29,1014,-17,21,3
3638,-105,21,983,-17,22,2
3639,-156,0,982,-16,8,1
3640,-105,-7,984,-12,-13,-5
3641,27,10,1002,-12,-23,-8
3642,142,33,1011,-12,-17,-9
3643,141,38,1001,-16,1,-4
3644,56,31,1005,-17,18,1
3645,-75,25,990,-18,24,4
3646,313,-1,833,-7,8,0
3647,262,-4,349,0,60,-45
3648,-462,112,333,-53,105,27
3649,-543,-202,370,3,-5,8
3650,-160,196,486,13,-63,22
3651,84,7,1116,-41,-54,-11
3652,128,128,924,-2,-27,-13
3653,154,-47,831,-61,-20,2
3654,186,21,1049,-16,2,-4
3655,-58,-48,1118,-22,35,9
3656,-10,-38,860,-11,17,-15
3657,-153,-25,999,11,23,2
3658,-90,84,1027,0,-10,0
3659,-24,55,999,-13,-12,-8
3660,-6,75,951,-13,-15,-1
3661,21,64,1053,-37,-23,3
3662,105,-3,1028,-26,-15,-11
3663,10,-59,946,-26,3,2
3664,45,-6,989,-12,2,-1
3665,20,-25,1047,-4,12,-7
3666,-32,33,958,1,10,0
3667,-60,68,987,-5,6,1
3668,-61,77,1036,-9,0,-4
3669,-42,43,978,-22,-9,-2
3670,41,20,981,-23,-14,-7
3671,82,-8,1029,-26,-8,-6
3672,80,-20,990,-21,3,-4
3673,28,-15,994,-10,15,-1
3674,-66,18,988,-5,17,2
3675,-100,26,1002,-4,8,-2
3676,-86,41,992,-6,-5,-4
3677,6,57,1008,-15,-15,-7
3678,100,40,1006,-20,-14,-9
3679,106,14,992,-23,-1,-4
3680,59,11,997,-20,11,-1
3681,-42,-3,1004,-18,19,2
3682,-112,-15,986,-10,11,1
3683,-115,6,976,-6,-2,-2
3684,-11,26,1003,-6,-15,-6
3685,73,40,1013,-12,-16,-8
3686,128,53,1013,-16,-6,-5
3687,86,41,1001,-22,10,-2
3688,-24,16,992,-21,20,3
3689,-117,-7,982,-18,15,1
3690,-132,-9,987,-13,2,0
3691,-48,-7,1002,-9,-16,-6
3692,58,16,997,-8,-19,-8
3693,145,46,1009,-11,-9,-7
3694,110,53,1006,-15,8,-3
3695,5,38,1006,-19,20,2
3696,-107,18,983,-20,19,3
3697,-150,-1,989,-18,5,0
3698,-88,-15,980,-15,-12,-5
3699,34,4,1001,-9,-21,-8
3700,140,29,1012,-11,-17,-9
3701,137,40,1009,-14,4,-6
3702,50,41,998,-15,19,0
3703,-86,36,987,-15,23,4
3704,-153,10,989,-15,10,2
3705,-132,-3,985,-15,-8,-4
3706,5,2,1009,-12,-21,-8
3707,121,15,1006,-10,-19,-8
3708,158,29,1000,-15,-4,-6
3709,94,39,1000,-23,11,-1
3710,-49,33,1006,-30,22,5
3711,-143,7,990,-17,15,3
3712,-153,4,969,-11,-2,-1
3713,-29,8,998,-13,-20,-7
3714,81,14,1016,-13,-21,-9
3715,162,29,1014,-14,-11,-8
3716,120,38,998,-19,10,-1
3717,-13,26,1000,-14,24,3
3718,-123,9,984,-14,21,2
3719,-158,7,983,-15,5,2
3720,-71,1,996,-10,-16,-6
3721,48,12,1007,-13,-22,-9
3722,156,37,1002,-13,-14,-9
3723,130,40,1007,-18,6,-4
3724,29,28,1008,-17,21,2
3725,-107,17,985,-15,22,4
3726,-159,4,987,-16,8,1
3727,363,-30,808,-5,-18,-10
3728,429,55,270,31,49,-73
3729,-219,95,282,-44,118,-19
3730,-531,-91,220,39,17,-27
3731,-113,239,324,19,-59,-21
3732,92,66,917,-80,-49,-27
3733,-99,-21,1031,-28,36,11
3734,-457,-105,694,-70,21,28
3735,19,-125,795,-13,-67,26
3736,19,62,1307,15,-16,18
3737,103,12,978,-27,-3,-28
3738,113,-25,814,15,6,-16
3739,-10,152,1115,-5,8,22
3740,-110,56,1066,-31,9,-2
3741,-96,17,898,-8,4,-10
3742,-119,2,956,-35,-15,8
3743,32,0,1093,-16,-30,-9
3744,129,-38,985,-18,-18,-13
3745,98,28,940,-14,0,5
3746,63,42,1059,-6,7,-4
3747,-33,37,1014,-13,13,-2
3748,-134,33,916,-14,7,6
3749,-81,22,1026,-13,-8,-3
3750,5,0,1033,-19,-15,-9
3751,110,14,958,-13,-15,-5
3752,121,22,1002,-17,-3,-4
3753,52,19,1040,-16,12,-1
3754,-51,21,972,-12,19,2
3755,-122,20,990,-14,13,2
3756,-108,9,997,-12,-6,-5
3757,4,12,993,-12,-18,-8
3758,101,30,1002,-12,-15,-8
3759,123,31,1014,-16,-1,-5
3760,76,28,1004,-18,12,-2
3761,-50,22,981,-17,20,5
3762,-120,7,992,-15,11,1
3763,-126,-1,991,-13,-3,-4
3764,-16,16,997,-9,-16,-7
3765,90,21,1005,-13,-17,-8
3766,137,32,1009,-15,-4,-6
3767,90,40,992,-15,12,-2
3768,-31,30,1002,-18,22,3
3769,-125,4,997,-17,15,2
3770,-145,0,971,-15,0,0
3771,-42,0,994,-11,-16,-6
3772,57,16,1010,-11,-20,-8
3773,148,37,1004,-12,-10,-8
3774,114,44,1006,-14,9,-4
3775,-6,34,1012,-18,21,2
3776,-110,16,979,-16,18,1
3777,-150,3,977,-16,4,1
3778,-85,-4,998,-12,-14,-5
3779,41,6,1010,-12,-21,-10
3780,144,31,1003,-13,-14,-9
3781,131,41,1001,-15,4,-4
3782,41,31,1011,-16,19,2
3783,-94,25,983,-17,22,3
3784,-152,9,995,-14,9,1
3785,-114,-4,987,-14,-10,-5
3786,12,7,993,-13,-22,-7
3787,133,24,1004,-12,-18,-9
3788,145,32,1013,-17,-1,-4
3789,76,41,1004,-16,16,0
3790,-62,26,988,-17,25,4
3791,-144,1,991,-17,14,1
3792,-146,-3,980,-12,-3,-3
3793,-17,9,1005,-11,-21,-6
3794,99,17,1014,-11,-22,-9
3795,152,31,1006,-13,-6,-6
3796,104,41,992,-18,13,-2
3797,-29,28,1000,-16,23,3
3798,-135,6,993,-15,17,3
3799,-153,1,976,-15,0,-1
3800,-51,0,997,-12,-18,-6
3801,65,13,1005,-13,-21,-9
3802,158,37,1006,-12,-11,-8
3803,126,45,1008,-15,9,-2
3804,8,29,1011,-17,23,3
3805,-112,19,985,-15,22,2
3806,-155,5,972,-16,5,1
3807,-95,-5,993,-12,-14,-7
3808,35,9,1007,-12,-22,-10
3809,146,32,1002,-13,-16,-9
3810,140,41,1006,-14,2,-5
3811,50,31,1004,-18,20,1
3812,-72,21,993,-18,23,4
3813,651,32,566,-6,1,-27
3814,-23,99,112,68,106,-84
3815,-274,46,261,-67,60,-42
3816,-389,-30,364,57,-29,-44
3817,50,229,322,2,-51,-33
3818,154,-54,1081,-101,-8,-23
3819,-271,-77,834,-11,66,32
3820,-371,-165,761,-70,-7,74
3821,-52,-54,799,1,-74,74
3822,74,75,1445,18,-21,46
3823,-64,84,840,-24,35,-46
3824,-121,-65,853,21,6,-25
3825,-3,241,999,-7,-27,23
3826,-79,50,1217,-42,-3,-5
3827,-3,35,806,-20,-13,-13
3828,-43,-53,1005,-55,-18,13
3829,57,-14,1090,-15,-25,-9
3830,44,-96,982,-19,-8,-6
3831,112,22,895,1,-1,-8
3832,24,52,1099,3,13,-1
3833,14,84,1004,-12,7,-8
3834,-104,53,948,-14,10,6
3835,-102,64,992,-17,-4,0
3836,-38,-16,1044,-34,-17,-7
3837,61,-22,957,-19,-19,-7
3838,105,-20,1004,-20,-10,-2
3839,117,5,1029,-11,6,-8
3840,32,5,995,-5,20,-2
3841,-74,56,956,-6,20,2
3842,-128,40,1033,-7,10,-1
3843,-102,37,986,-14,-9,-5
3844,4,28,990,-22,-17,-5
3845,109,18,1007,-21,-17,-8
3846,130,2,1011,-23,-4,-5
3847,80,4,983,-17,10,-2
3848,-44,9,1003,-12,22,3
3849,-117,4,995,-9,13,0
3850,-132,19,971,-5,0,-1
3851,-21,35,995,-9,-17,-6
3852,68,36,1023,-14,-17,-9
3853,131,41,1007,-19,-8,-6
3854,99,29,998,-24,7,-1
3855,-13,12,1002,-19,21,3
3856,-115,-8,981,-17,17,2
3857,-135,0,979,-9,2,-1
3858,-65,0,1003,-8,-15,-5
3859,47,23,1001,-7,-19,-8
3860,140,50,1008,-10,-10,-8
3861,114,51,1002,-20,7,-3
3862,18,31,1008,-19,20,1
3863,-101,11,984,-20,20,2
3864,-144,-3,993,-16,6,1
3865,-97,-14,981,-13,-13,-5
3866,26,7,998,-10,-22,-7
3867,136,32,1015,-10,-16,-9
3868,137,43,1013,-13,3,-4
3869,55,44,996,-17,19,0
3870,-78,33,989,-17,23,4
3871,-145,1,987,-17,12,1
3872,-136,-10,987,-15,-6,-2
3873,0,5,1007,-12,-20,-8
3874,111,15,1008,-12,-20,-9
3875,153,32,998,-10,-4,-6
3876,96,42,996,-16,13,-2
3877,-42,33,1007,-16,24,3
3878,-135,9,993,-16,14,2
3879,-151,3,967,-15,-1,-1
3880,-39,2,1001,-11,-19,-7
3881,76,13,1011,-13,-21,-9
3882,155,33,1003,-13,-10,-7
3883,123,44,1005,-16,9,-3
3884,-2,27,1010,-19,23,3
3885,-122,14,976,-15,20,3
3886,-154,6,976,-14,6,1
3887,-84,-3,1001,-11,-16,-6
3888,41,12,1004,-11,-22,-10
3889,152,37,1004,-15,-15,-9
3890,134,39,1004,-15,4,-3
3891,40,31,1005,-17,20,1
3892,-92,22,986,-19,23,3
3893,-156,2,995,-14,10,1
3894,-120,-7,983,-13,-9,-5
3895,16,11,995,-9,-21,-8
3896,124,31,1007,-12,-18,-9
3897,149,36,1009,-16,-1,-6
3898,78,36,1006,-17,17,0
3899,-65,33,987,-18,24,5
3900,-143,0,991,-17,14,1
3901,-146,-2,976,-12,-3,-3
3902,-15,8,1001,-10,-22,-7
3903,96,18,1019,-12,-21,-10
3904,426,0,988,-12,-5,-7
3905,660,60,241,-12,42,-30
3906,-512,111,389,-7,162,35
3907,-618,-189,499,-27,39,11
3908,-337,121,515,7,-57,47
3909,-86,21,995,1,-81,21
3910,63,137,1073,-31,-49,-12
3911,136,-35,792,-50,-25,-24
3912,315,-4,993,-12,-18,-3
3913,105,23,1180,-38,22,14
3914,32,-50,917,-2,29,-8
3915,-192,-34,909,-2,38,7
3916,-253,52,1043,-1,7,8
3917,-95,23,1011,2,-23,-18
3918,64,60,945,-15,-33,-7
3919,136,87,1022,-20,-23,-2
3920,207,40,1066,-28,-2,-11
3921,34,-10,960,-36,20,6
3922,-96,-8,977,-16,17,10
3923,-149,-54,1033,-17,7,-8
3924,-90,-17,959,-4,-6,-5
3925,35,28,972,3,-17,-7
3926,135,69,1046,-7,-12,-9
3927,115,79,1007,-13,4,-5
3928,22,64,978,-23,17,5
3929,-98,9,1021,-29,18,2
3930,-145,-23,973,-23,4,0
3931,-59,-35,972,-17,-12,-5
3932,35,-16,1009,-7,-17,-8
3933,137,24,1020,-4,-12,-7
3934,131,58,994,-6,7,-4
3935,9,65,1003,-11,21,3
3936,-96,45,996,-18,19,2
3937,-150,16,983,-22,7,0
3938,-94,-8,988,-20,-13,-4
3939,24,-14,1004,-20,-22,-8
3940,140,8,1003,-13,-16,-9
3941,133,22,1000,-12,4,-4
3942,49,34,1014,-11,18,2
3943,-87,31,992,-10,23,3
3944,-145,28,985,-14,12,1
3945,-124,10,984,-12,-6,-3
3946,5,17,995,-14,-21,-6
3947,116,23,1011,-15,-18,-8
3948,142,21,1007,-16,-2,-5
3949,76,19,1006,-17,15,1
3950,-57,22,981,-13,25,3
3951,-140,3,995,-11,15,2
3952,-145,8,983,-10,-2,-3
3953,-22,22,1002,-8,-19,-6
3954,96,31,1008,-12,-19,-9
3955,144,32,1006,-15,-6,-5
3956,105,36,993,-17,11,-1
3957,-29,21,1004,-20,23,3
3958,-128,-3,997,-16,17,2
3959,-145,0,971,-12,1,-1
3960,-49,6,996,-9,-16,-7
3961,63,25,1009,-10,-21,-9
3962,152,39,1009,-12,-11,-7
3963,119,47,1006,-16,7,-3
3964,2,25,1008,-19,22,3
3965,-111,7,978,-17,19,2
3966,-150,-2,978,-14,5,0
3967,-83,-10,999,-11,-14,-5
3968,44,13,1009,-10,-21,-9
3969,153,36,1003,-10,-15,-9
3970,131,45,1003,-13,4,-4
3971,44,34,1007,-17,20,2
3972,-94,21,987,-19,24,4
3973,-151,2,995,-17,10,2
3974,-124,-12,986,-14,-10,-5
3975,13,8,995,-9,-22,-9
3976,444,-52,962,-5,-14,-8
3977,855,91,159,0,32,-27
3978,-185,136,354,47,174,-17
3979,-433,-63,375,-4,86,-28
3980,-59,76,346,12,-55,-15
3981,233,150,712,22,-95,7
3982,265,-70,1362,-101,21,53
3983,-358,-191,822,-66,117,120
3984,10,-224,585,-4,20,172
3985,-118,-56,519,11,-59,183
3986,300,168,1608,30,-98,197
3987,-20,122,1209,-39,50,127
3988,-178,-178,798,-47,71,145
3989,-220,-39,441,16,-14,187
3990,-30,64,1424,-5,-75,218
3991,-20,174,1171,-14,7,155
3992,-249,-91,982,-29,63,127
3993,-226,13,555,-7,3,142
3994,-202,40,1266,-3,-44,163
3995,-108,196,1094,-14,-11,114
3996,-368,-19,1026,-24,32,61
3997,-198,99,666,1,-13,34
3998,-166,98,1229,-10,-43,12
3999,204,218,989,-15,-55,-19
4000,143,10,1016,-51,-10,-10
4001,197,60,928,-42,-8,-5
4002,-28,-115,1147,-46,21,11
4003,-65,-81,879,-16,11,-9
4004,-151,-114,988,-6,8,5
4005,-1,52,1002,20,-13,-17
4006,39,33,1036,0,-9,-9
4007,118,150,937,-1,-9,-7
4008,23,98,1065,-30,6,5
4009,-11,59,996,-32,6,-5
4010,-117,-49,968,-37,5,6
4011,-40,-45,970,-22,-11,-4
4012,11,-77,1041,-14,-11,-7
4013,116,1,972,3,-9,-11
4014,96,43,1003,-2,5,-2
4015,33,90,1011,-3,16,-1
4016,-81,65,999,-15,19,3
4017,-122,57,968,-19,7,0
4018,-91,-5,1016,-27,-10,-2
4019,23,-22,994,-22,-20,-9
4020,113,-17,996,-18,-13,-5
4021,123,7,998,-13,1,-5
4022,44,16,1018,-7,17,-1
4023,-63,39,983,-6,21,2
4024,-137,41,999,-10,12,2
4025,-111,30,982,-11,-6,-4
4026,-1,25,996,-15,-18,-8
4027,105,30,1007,-17,-18,-7
4028,128,11,1009,-22,-1,-6
4029,77,3,1001,-18,13,-2
4030,-50,5,983,-12,22,4
4031,-119,1,992,-7,14,0
4032,-135,9,989,-6,0,-3
4033,-20,39,1002,-5,-17,-7
4034,89,40,1009,-12,-18,-9
4035,133,41,1002,-16,-4,-5
4036,94,35,991,-21,10,-1
4037,-24,10,1004,-20,22,3
4038,-120,-15,993,-15,15,1
4039,-133,-6,972,-12,0,-2
4040,-41,6,1000,-7,-14,-6
4041,63,26,1011,-10,-20,-9
4042,146,51,1003,-10,-10,-9
4043,113,51,1010,-16,9,-3
4044,1,26,1007,-21,22,4
4045,-109,6,978,-19,18,4
4046,-145,-6,978,-15,2,0
4047,-80,-11,997,-10,-15,-5
4048,42,8,1004,-9,-20,-8
4049,146,39,1006,-10,-13,-8
4050,130,48,1001,-15,5,-3
4051,36,37,1006,-15,21,2
4052,-92,23,984,-14,17,-1
4053,-152,1,997,-18,9,2
4054,-118,-8,983,-14,-10,-4
4055,12,8,996,-11,-23,-8
4056,129,29,1003,-12,-19,-9
4057,145,35,1009,-15,0,-5
4058,73,40,1002,-16,16,0
4059,-61,29,994,-17,23,3
4060,-146,1,990,-15,14,1
4061,-150,-2,975,-11,-2,-3
4062,-23,10,1004,-10,-21,-9
4063,94,21,1014,-9,-21,-10
4064,158,36,1005,-15,-7,-7
4065,111,39,998,-15,13,-2
4066,-24,26,996,-18,24,3
4067,-134,0,990,-14,18,2
4068,-152,3,982,-11,1,0
4069,-62,4,998,-11,-18,-6
4070,58,19,1004,-9,-23,-10
4071,-438,2,819,0,-9,-11
4072,-481,176,470,-35,-45,4
4073,464,74,1017,-29,-103,-35
4074,636,187,860,-64,-54,8
4075,483,-6,851,-80,33,12
4076,199,-214,1028,-30,90,-1
4077,-125,-324,1088,-24,81,35
4078,-102,-231,1004,65,53,14
4079,-369,7,828,85,54,-1
4080,-283,267,1052,54,1,-8
4081,-57,315,1111,25,-34,-15
4082,8,334,893,-45,-30,18
4083,92,98,1011,-86,-38,1
4084,222,-33,1178,-77,-20,-16
4085,23,-176,883,-76,6,-3
4086,57,-240,894,-23,5,-1
4087,39,-176,1026,17,24,4
4088,-49,-56,1050,42,27,-8
4089,-71,88,947,49,14,-7
4090,-104,240,1022,27,5,-2
4091,-62,252,1005,-13,-10,-4
4092,30,139,1003,-48,-17,-7
4093,88,8,1015,-68,-14,-3
4094,64,-107,992,-57,-2,1
4095,30,-164,976,-31,7,-3
4096,-57,-132,968,0,14,1
4097,-81,-16,993,25,8,-4
4098,-34,79,1024,24,-1,-9
4099,4,153,991,13,-4,-7
4100,78,168,1002,-14,-6,-5
4101,67,102,1020,-40,3,-4
4102,-7,-2,997,-47,9,3
4103,-67,-75,977,-40,5,1
4104,-90,-107,999,-20,0,-1
4105,-52,-76,978,1,-10,-6
4106,50,5,994,12,-13,-10
4107,112,83,1017,11,-6,-9
4108,100,121,1012,-5,9,-4
4109,26,108,1000,-20,18,0
4110,-88,53,984,-31,19,4
4111,-128,-22,991,-35,4,2
4112,-109,-65,988,-26,-11,-2
4113,24,-55,1005,-14,-22,-8
4114,121,-16,1004,-6,-18,-10
4115,151,32,998,1,1,-6
4116,87,75,1002,-3,18,-1
4117,-49,78,1008,-11,27,5
4118,-148,43,994,-18,17,3
4119,-157,18,974,-23,-3,-1
4120,-38,-11,1002,-22,-22,-6
4121,80,-14,1006,-18,-25,-9
4122,164,2,1005,-15,-12,-8
4123,131,20,1004,-11,8,-3
4124,12,21,1012,-9,26,3
4125,-119,28,979,-6,24,4
4126,-162,29,981,-10,8,0
4127,-99,20,995,-14,-13,-6
4128,26,25,1009,-16,-22,-7
4129,146,36,1004,-19,-18,-8
4130,140,23,1001,-20,0,-3
4131,54,9,999,-19,18,2
4132,-83,4,993,-16,24,5
4133,-147,0,995,-9,12,1
4134,-129,1,981,-6,-7,-4
4135,3,31,996,-6,-21,-8
4136,118,48,1010,-11,-19,-9
4137,147,43,1009,-19,-3,-5
4138,80,29,1001,-20,13,0
4139,-51,13,993,-21,22,5
4140,-134,-19,988,-18,14,2
4141,-146,-13,975,-11,-2,-1
4142,-18,9,1001,-8,-19,-7
4143,85,29,1013,-7,-19,-10
4144,117,41,1010,-11,-7,-7
4145,-963,-74,475,-3,-7,12
4146,0,133,79,45,-102,81
4147,408,202,575,-73,-137,40
4148,391,264,174,-115,-41,112
4149,203,-117,489,-51,42,76
4150,-8,22,604,-48,38,15
4151,123,-49,1081,-3,-12,-1
4152,282,-26,907,-24,-51,-27
4153,72,-84,722,-61,6,42
4154,205,-56,953,25,44,24
4155,30,-78,1341,3,31,-23
4156,158,9,871,-11,-21,4
4157,250,-66,944,9,-3,-3
4158,111,61,929,8,49,12
4159,72,-65,1129,16,51,1
4160,40,-12,1029,25,55,-8
4161,-260,42,881,20,52,19
4162,-242,184,1039,30,11,0
4163,-202,110,1059,-15,-5,-14
4164,-25,113,899,-18,-27,-3
4165,164,40,1044,-42,-32,-9
4166,216,-28,1066,-45,-10,-12
4167,122,-84,943,-29,12,1
4168,-6,-66,965,-15,29,9
4169,-162,-55,1048,3,29,2
4170,-171,18,954,19,8,-4
4171,-74,84,971,10,-12,-5
4172,40,125,1037,-4,-21,-7
4173,152,107,1032,-27,-15,-10
4174,125,45,973,-39,2,-3
4175,-5,-15,999,-34,18,7
4176,-97,-69,1002,-27,16,1
4177,-146,-72,964,-9,7,-1
4178,-81,-21,981,7,-10,-5
4179,35,39,1028,7,-17,-12
4180,134,92,1003,2,-11,-10
4181,112,104,993,-14,4,-3
4182,27,72,1021,-24,18,0
4183,-100,8,992,-29,18,4
4184,-143,-33,974,-26,4,1
4185,-99,-60,984,-16,-12,-4
4186,27,-25,1000,-5,-21,-8
4187,138,22,1009,-2,-16,-10
4188,141,62,1010,-5,4,-6
4189,65,73,1004,-13,18,-1
4190,-71,59,985,-19,25,5
4191,-149,17,987,-21,12,2
4192,-143,-18,989,-23,-8,-3
4193,-1,-14,1007,-16,-23,-8
4194,111,-6,996,-13,-21,-9
4195,164,13,1001,-9,-5,-8
4196,112,39,1000,-8,14,-2
4197,-36,43,1004,-11,27,4
4198,-135,25,995,-12,18,1
4199,-164,14,973,-13,0,-1
4200,-55,11,994,-14,-19,-5
4201,70,7,1012,-15,-24,-9
4202,157,26,1009,-17,-13,-8
4203,131,26,999,-18,7,-4
4204,15,18,1010,-17,22,4
4205,-109,6,984,-13,21,4
4206,-158,11,975,-11,6,1
4207,-91,6,1001,-10,-13,-6
4208,31,23,1007,-11,-22,-8
4209,146,45,1004,-15,-16,-8
4210,135,40,1002,-19,3,-5
4211,41,19,1006,-19,18,2
4212,-88,9,988,-17,21,4
4213,-150,-4,996,-12,11,2
4214,-117,-3,981,-9,-10,-3
4215,13,14,993,-11,-20,-8
4216,124,41,1008,-11,-17,-10
4217,139,41,1007,-16,0,-5
4218,75,35,1006,-18,15,-1
4219,-63,23,986,-17,24,4
4220,-141,-8,987,-16,14,1
4221,-143,-11,981,-11,-4,-2
4222,-13,4,1005,-9,-19,-9
4223,97,27,1010,-10,-20,-10
4224,118,33,1008,-11,-5,-7
4225,-740,-34,648,-22,1,-2
4226,77,178,270,45,-49,37
4227,539,152,609,-95,-136,-1
4228,487,235,296,-66,-34,39
4229,363,-97,559,-62,68,-12
4230,70,-124,664,-61,96,-34
4231,49,-327,1090,34,47,-13
4232,59,-168,783,3,9,24
4233,-189,-44,777,48,44,45
4234,-18,165,1228,88,31,-33
4235,-142,105,1116,-9,18,-6
4236,-88,274,692,34,-2,12
4237,-70,178,1134,-40,-14,-13
4238,103,84,1136,-64,-25,-5
4239,109,-43,881,-42,-2,-5
4240,75,-159,924,-57,9,-3
4241,-48,-139,1106,-9,16,6
4242,-21,-84,985,18,9,-7
4243,-137,3,905,18,13,0
4244,-14,163,1058,33,-7,-9
4245,70,148,1049,-10,-9,-11
4246,66,134,930,-27,-1,0
4247,50,52,1033,-44,5,1
4248,-26,-34,1029,-51,13,-1
4249,-98,-119,943,-29,7,2
4250,-93,-80,961,-6,-5,0
4251,-2,-28,1048,7,-12,-10
4252,77,44,984,14,-10,-11
4253,114,104,997,2,1,-5
4254,66,131,1019,-10,14,-3
4255,-39,75,1000,-26,20,2
4256,-123,6,975,-33,11,2
4257,-137,-42,990,-30,-4,2
4258,-27,-61,1002,-19,-20,-7
4259,68,-41,996,-8,-20,-10
4260,152,24,994,1,-9,-9
4261,120,61,1018,-2,10,-5
4262,5,71,1010,-7,24,2
4263,-119,62,985,-16,21,4
4264,-155,29,985,-22,5,0
4265,-99,-12,985,-22,-14,-6
4266,34,-15,1006,-20,-24,-9
4267,149,-5,1011,-17,-17,-8
4268,147,7,999,-13,1,-5
4269,67,21,1002,-10,19,-1
4270,-78,37,989,-10,27,4
4271,-152,27,995,-8,15,1
4272,-137,20,983,-12,-7,-3
4273,-6,31,1005,-14,-21,-7
4274,111,26,1000,-19,-22,-8
4275,152,18,1000,-22,-7,-6
4276,98,12,1003,-18,13,-2
4277,-37,8,1000,-18,24,4
4278,-129,-8,988,-11,16,2
4279,-151,7,974,-5,0,-1
4280,-35,27,998,-7,-18,-7
4281,73,38,1018,-11,-20,-10
4282,149,45,1011,-16,-10,-7
4283,117,42,1000,-21,7,-2
4284,-7,15,998,-22,22,4
4285,-115,-12,987,-18,18,2
4286,-148,-6,984,-11,3,0
4287,-69,0,995,-9,-14,-6
4288,47,21,1004,-7,-20,-8
4289,147,50,1006,-10,-10,-8
4290,127,53,1006,-17,8,-3
4291,23,31,1008,-18,21,2
4292,-101,11,987,-19,21,4
4293,-151,-5,988,-16,9,2
4294,-108,-16,980,-12,-10,-4
4295,27,7,1000,-11,-21,-9
4296,137,34,1013,-10,-17,-9
4297,140,44,1003,-14,2,-5
4298,63,40,1003,-17,18,1
4299,-77,30,987,-18,24,5
4300,-151,-1,989,-15,13,3
4301,-162,-13,985,-14,-6,-4
4302,-1123,-80,439,8,-36,-24
4303,-79,150,231,12,-130,-39
4304,463,186,679,-64,-106,-69
4305,337,204,403,-91,-15,-54
4306,307,-125,676,-74,33,-124
4307,168,-145,867,-27,48,-192
4308,231,-128,1209,23,9,-146
4309,299,-20,952,16,-23,-86
4310,26,-37,754,-25,20,-13
4311,243,0,1013,38,41,-37
4312,201,-30,1281,22,35,-47
4313,197,111,809,10,13,32
4314,124,121,1028,15,43,15
4315,-285,154,1095,-18,66,7
4316,-299,23,927,-22,13,5
4317,-100,44,946,-20,-12,-11
4318,-106,-31,1017,-39,-19,2
4319,191,3,1034,-15,-38,-14
4320,213,-52,1014,-25,0,-9
4321,26,15,925,-6,24,11
4322,-15,20,1087,-6,21,-1
4323,-153,0,988,-6,21,-2
4324,-143,45,908,0,-3,3
4325,33,54,1042,-13,-19,-11
4326,71,38,1039,-23,-9,-6
4327,115,35,942,-23,-6,-1
4328,42,18,1024,-26,12,0
4329,-74,-18,1015,-19,16,4
4330,-117,-26,953,-9,6,0
4331,-58,-1,1003,-4,-6,-6
4332,15,24,1018,-2,-14,-7
4333,113,55,989,-7,-8,-10
4334,88,61,990,-13,8,-4
4335,-2,55,1009,-21,15,3
4336,-82,1,1014,-23,13,-1
4337,-131,-13,962,-18,2,0
4338,-49,-20,990,-13,-13,-5
4339,44,-6,1013,-9,-17,-10
4340,120,27,1003,-9,-10,-7
4341,116,55,1002,-9,5,-4
4342,14,47,1014,-14,20,2
4343,-95,32,978,-16,19,2
4344,-136,14,985,-16,6,1
4345,-80,-5,1003,-15,-13,-6
4346,33,-7,999,-14,-20,-8
4347,140,15,1000,-14,-15,-7
4348,133,27,1006,-13,3,-5
4349,44,27,1007,-12,19,0
4350,-81,31,985,-14,23,3
4351,-144,18,1001,-13,10,2
4352,-114,7,983,-14,-9,-4
4353,12,14,994,-14,-22,-7
4354,125,23,1005,-15,-19,-9
4355,145,24,1010,-19,-1,-5
4356,79,26,998,-18,16,0
4357,-58,18,991,-16,25,4
4358,-135,0,994,-13,13,1
4359,-142,2,975,-9,-2,-2
4360,-15,18,1008,-10,-20,-7
4361,101,29,1016,-12,-20,-10
4362,150,36,1000,-17,-6,-5
4363,105,38,992,-18,13,-2
4364,-33,22,1004,-18,25,5
4365,-132,-4,995,-16,17,3
4366,-151,0,972,-12,2,-1
4367,-47,5,1000,-9,-16,-8
4368,60,18,1005,-11,-20,-9
4369,152,43,1006,-13,-11,-8
4370,117,43,1009,-17,8,-2
4371,2,27,1007,-17,23,3
4372,-115,5,979,-15,21,2
4373,-157,0,975,-12,5,0
4374,-86,-7,998,-12,-14,-6
4375,37,11,1006,-13,-22,-9
4376,150,39,1004,-11,-16,-8
4377,136,41,1001,-13,5,-5
4378,39,33,1005,-17,20,1
4379,-370,-38,885,-12,19,2
4380,-812,156,322,57,-10,6
4381,337,19,543,-92,-222,-45
4382,555,212,378,1,-105,-39
4383,277,100,323,-115,-1,-26
4384,316,-131,804,-95,28,-91
4385,116,-54,905,34,89,-112
4386,183,-233,1281,-14,12,-138
4387,153,1,820,34,-13,-61
4388,74,-62,748,3,18,28
4389,195,40,1143,15,26,-25
4390,111,63,1215,45,26,-10
4391,152,80,811,-14,9,11
4392,62,128,1003,-1,52,12
4393,-223,110,1076,-7,52,10
4394,-158,-6,992,-45,4,2
4395,-115,0,899,-10,1,-3
4396,-124,-33,1033,-25,-12,5
4397,123,-10,1041,-20,-29,-17
4398,155,-16,969,0,-3,-7
4399,103,62,963,-10,7,4
4400,53,44,1103,-8,25,-2
4401,-123,31,948,-8,30,2
4402,-182,33,929,-20,6,9
4403,-89,9,1052,-14,-16,-9
4404,0,-4,1008,-19,-23,-8
4405,147,18,950,-19,-22,-7
4406,156,20,1043,-13,2,-6
4407,62,17,1011,-17,19,1
4408,-71,23,959,-10,25,5
4409,-160,18,1005,-10,18,1
4410,-159,12,995,-11,-4,-2
4411,-10,23,984,-7,-22,-8
4412,103,35,1004,-15,-21,-8
4413,149,34,1014,-19,-6,-5
4414,100,19,1010,-20,14,-2
4415,-47,16,985,-20,24,4
4416,-135,-4,995,-13,16,2
4417,-151,-2,978,-10,-1,-3
4418,-40,17,997,-6,-19,-7
4419,82,35,1017,-10,-22,-10
4420,157,44,1013,-14,-10,-9
4421,119,44,989,-19,9,-2
4422,-8,25,1001,-20,22,3
4423,-122,-7,999,-18,17,0
4424,-150,-8,975,-13,1,-1
4425,-60,-7,999,-9,-16,-7
4426,55,13,1002,-10,-21,-10
4427,159,40,1002,-11,-12,-8
4428,134,54,1010,-15,7,-2
4429,26,34,1018,-22,22,3
4430,-96,16,978,-18,21,2
4431,-153,-1,975,-16,7,3
4432,-96,-12,993,-13,-13,-5
4433,29,0,1006,-12,-21,-9
4434,147,31,1001,-12,-17,-9
4435,146,36,1009,-13,1,-4
4436,61,36,1004,-15,18,1
4437,-82,27,983,-17,24,5
4438,-151,9,1002,-15,11,3
4439,-132,-9,984,-13,-9,-2
4440,1,9,994,-12,-21,-7
4441,121,21,1003,-14,-19,-6
4442,152,31,1010,-15,-2,-5
4443,87,36,1005,-15,15,1
4444,-55,30,996,-14,25,5
4445,-147,1,994,-15,17,2
4446,-159,1,972,-11,-1,-2
4447,-32,12,998,-11,-19,-7
4448,88,22,1018,-13,-22,-9
4449,153,33,1005,-15,-8,-6
4450,115,42,989,-17,12,-2
4451,-19,26,1003,-17,24,4
4452,-134,4,991,-15,17,4
4453,-161,0,975,-13,2,-2
4454,-66,0,995,-10,-17,-8
4455,54,14,1008,-11,-22,-10
4456,161,42,998,-12,-14,-8
4457,131,44,1012,-17,7,-3
4458,19,29,1012,-17,23,2
4459,-109,11,983,-17,21,2
4460,-156,0,977,-13,6,1
4461,-107,-9,996,-10,-14,-5
4462,-881,-47,565,-2,-24,-23
4463,-158,128,625,-15,-83,-38
4464,539,126,1039,-58,-126,-62
4465,438,219,653,-50,-13,-47
4466,294,-95,837,-101,53,-82
4467,178,-212,1078,-4,51,-126
4468,193,-118,1197,22,4,-45
4469,262,-100,917,2,-15,15
4470,-34,94,768,45,46,48
4471,26,129,1185,24,56,-12
4472,-104,14,1165,-11,35,-15
4473,-136,156,709,9,11,29
4474,-72,98,1082,-30,-2,-13
4475,-90,27,1121,-36,-4,-2
4476,37,-14,886,-30,-19,-6
4477,96,-61,974,-30,-9,-6
4478,47,-45,1083,-9,6,2
4479,123,-7,976,1,11,-9
4480,-53,5,935,5,33,4
4481,-139,100,1036,7,15,4
4482,-98,67,1030,-15,-2,-8
4483,-67,57,939,-16,-13,-3
4484,35,33,1001,-29,-23,-3
4485,155,0,1058,-29,-12,-12
4486,91,-34,967,-22,7,-1
4487,20,-13,982,-12,16,4
4488,-85,-11,1035,-4,21,-3
4489,-139,20,961,2,10,0
4490,-86,46,975,-3,-8,-3
4491,16,61,1034,-9,-16,-9
4492,116,65,1006,-20,-15,-6
4493,123,32,984,-26,0,-4
4494,34,3,1011,-24,16,2
4495,-69,-17,990,-19,17,1
4496,-127,-29,993,-12,9,1
4497,-105,-11,981,-4,-8,-3
4498,16,27,999,-3,-19,-9
4499,112,59,1005,-7,-15,-10
4500,124,65,1006,-14,-1,-6
4501,73,52,1011,-22,13,-1
4502,-58,23,990,-27,21,4
4503,-133,-14,987,-22,11,2
4504,-126,-28,983,-15,-4,-4
4505,-10,-12,1002,-9,-20,-7
4506,97,18,1009,-6,-19,-9
4507,151,42,1010,-9,-4,-7
4508,99,63,991,-13,13,-3
4509,-31,47,1000,-19,23,4
4510,-132,11,1001,-19,15,2
4511,-152,-5,973,-17,-1,0
4512,-45,-16,990,-15,-19,-6
4513,68,-1,1013,-12,-21,-9
4514,155,28,1001,-11,-11,-7
4515,128,43,1004,-12,9,-3
4516,5,36,1015,-15,24,3
4517,-123,25,979,-15,21,3
4518,-155,11,975,-14,5,0
4519,-96,-3,998,-14,-14,-4
4520,38,5,1006,-13,-23,-9
4521,153,24,1007,-14,-17,-10
4522,138,33,997,-14,4,-4
4523,48,27,1007,-15,21,2
4524,-91,25,993,-14,25,3
4525,-158,9,992,-13,13,2
4526,-126,2,984,-12,-8,-3
4527,9,13,998,-10,-23,-8
4528,130,28,1007,-13,-20,-9
4529,152,32,1010,-16,-1,-5
4530,80,35,1005,-18,16,0
4531,-62,25,987,-16,23,4
4532,-144,2,989,-12,14,1
4533,-154,-2,980,-13,-3,-2
4534,-17,12,1007,-10,-20,-7
4535,101,23,1011,-10,-22,-9
4536,153,37,996,-12,-7,-7
4537,112,44,997,-16,13,-2
4538,-31,29,1005,-18,25,4
4539,-137,1,989,-16,17,2
4540,-157,-4,974,-14,1,-1
4541,-99,0,995,-11,-17,-7
4542,-1130,-28,399,21,-30,-32
4543,109,78,650,-55,-137,-77
4544,467,193,909,-25,-80,-87
4545,333,165,564,-87,24,-67
4546,113,-264,1004,-90,49,-128
4547,162,-17,1098,67,4,-156
4548,318,-56,1194,-24,-33,-62
4549,179,9,828,-3,0,-42
4550,14,-3,808,11,50,-6
4551,121,-5,1143,4,34,-42
4552,96,36,1183,23,1,-17
4553,162,144,752,-9,-10,31
4554,88,88,1101,-20,38,3
4555,-202,70,1042,-19,41,9
4556,-74,-56,973,-35,-5,4
4557,15,-7,928,-10,4,-1
4558,-37,-54,1025,-15,9,9
4559,150,14,1033,-4,0,-19
4560,-28,-4,979,3,28,2
4561,-112,101,945,2,10,9
4562,-76,51,1078,-16,0,-5
4563,-52,51,974,-13,-4,-5
4564,21,25,954,-29,-17,0
4565,130,3,1054,-21,-10,-12
4566,64,-23,995,-22,8,0
4567,9,0,948,-13,14,4
4568,-84,-4,1047,-8,18,0
4569,-126,22,982,-5,4,-1
4570,-38,41,966,-3,-11,-5
4571,28,48,1017,-10,-11,-8
4572,105,52,1026,-19,-9,-6
4573,103,33,987,-19,5,-4
4574,-8,3,993,-22,19,4
4575,-86,-10,993,-17,14,1
4576,-122,-13,984,-11,4,-3
