sequence,AccelerometerX,AccelerometerY,AccelerometerZ,GyroscopeX,GyroscopeY,GyroscopeZ
0,143,-46,1004,-9,-3,-10
1,75,-18,997,-7,18,-3
2,-40,12,998,-9,26,-1
3,-146,27,984,-17,19,0
4,-143,-1,975,-18,-4,-5
5,57,79,816,-24,-19,-4
6,357,117,1302,-35,9,-9
7,41,-6,1124,-71,29,3
8,-150,-188,782,-61,45,4
9,-374,-294,888,-19,31,-11
10,-259,-166,1005,16,-31,5
11,199,-54,1026,51,-51,-38
12,110,144,1009,38,-24,-1
13,272,298,1080,7,-12,-4
14,45,105,1066,-43,38,-12
15,-162,23,892,-67,42,24
16,-130,-146,1027,-61,16,-9
17,-116,-235,962,-32,-7,-15
18,-25,-147,924,2,-24,-1
19,61,-18,1073,24,-25,-20
20,74,57,1017,10,-6,-7
21,41,115,978,-2,11,-2
22,-9,62,1047,-22,14,-6
23,-34,-16,973,-35,10,-6
24,-82,-87,974,-29,-3,-4
25,-64,-98,994,-17,-16,-10
26,-10,-75,994,-5,-14,-10
27,24,-26,990,5,-6,-8
28,47,28,1029,0,-1,-6
29,60,48,1004,-6,3,-9
30,-16,26,991,-16,6,-4
31,-58,0,1007,-25,3,-4
32,-73,-57,986,-26,-1,-8
33,-55,-66,984,-15,-5,-6
34,3,-66,1005,-9,-14,-11
35,64,-32,998,0,-10,-11
36,66,10,995,0,-2,-7
37,15,40,1011,-5,9,-6
38,-33,25,1005,-18,12,-6
39,-94,0,974,-25,7,-2
40,-71,-41,1002,-23,-5,-6
41,-20,-77,997,-17,-14,-11
42,58,-49,991,-8,-13,-11
43,86,-23,1006,-1,-4,-9
44,49,14,1000,-5,10,-6
45,-20,30,993,-14,19,-2
46,-96,30,996,-19,16,-1
47,-94,-19,999,-25,2,-6
48,-36,-68,981,-23,-10,-9
49,41,-66,1000,-10,-15,-8
50,87,-48,1007,-5,-7,-10
51,52,0,1002,-2,10,-5
52,-10,42,991,-9,18,-2
53,-93,41,999,-21,15,0
54,-108,-3,996,-29,2,-3
55,-69,-47,983,-26,-13,-8
56,46,-72,1007,-25,-20,-11
57,90,-68,1002,-13,-6,-8
58,91,-19,1006,-4,7,-6
59,8,22,998,-5,19,-3
60,-101,40,992,-13,20,0
61,-130,11,989,-22,5,-4
62,-88,-23,989,-25,-13,-7
63,34,-63,1003,-23,-23,-11
64,97,-72,1004,-12,-14,-10
65,117,-35,1003,-5,3,-9
66,22,6,1002,-5,22,-3
67,-91,34,1004,-12,24,1
68,-144,19,974,-19,8,-2
69,-101,-4,991,-23,-12,-7
70,12,-56,1004,-22,-23,-12
71,106,-65,1006,-15,-17,-13
72,131,-42,1001,-11,0,-8
73,35,-2,1002,-6,20,-4
74,-81,21,1002,-9,25,0
75,-150,25,975,-17,11,-2
76,-117,0,997,-21,-8,-6
77,-4,-48,1000,-21,-26,-11
78,104,-58,996,-15,-20,-12
79,139,-48,1006,-9,-2,-9
80,53,-12,1008,-6,21,-3
81,-64,13,1002,-10,28,0
82,-154,26,977,-16,15,0
83,-128,-1,998,-20,-9,-6
84,-26,-41,996,-21,-25,-11
85,98,-49,1007,-15,-23,-12
86,143,-49,1002,-12,-6,-10
87,71,-20,1001,-8,17,-4
88,-49,9,1002,-8,27,-1
89,-148,26,987,-14,18,0
90,-138,-3,992,-20,-4,-6
91,-50,-37,993,-20,-23,-11
92,90,-41,1009,-16,-25,-12
93,140,-54,1006,-11,-8,-11
94,87,-23,1003,-8,16,-3
95,-26,7,992,-12,29,-1
96,-140,24,983,-14,22,2
97,-146,0,996,-20,-2,-5
98,-66,-27,986,-20,-21,-13
99,75,-44,1008,-16,-27,-12
100,133,-54,1012,-13,-11,-11
101,104,-26,1007,-8,12,-5
102,-5,5,988,-8,25,-1
103,-129,18,992,-14,22,2
104,-151,1,984,-20,2,-3
105,-86,-21,992,-22,-17,-10
106,55,-45,1008,-19,-26,-13
107,126,-55,1009,-11,-14,-13
108,123,-22,1002,-7,8,-6
109,11,4,1001,-8,26,-2
110,-114,13,999,-15,25,1
111,-157,4,970,-19,7,-4
112,-89,24,836,-24,-19,-5
113,445,201,992,-12,-9,3
114,163,27,1587,-68,43,-8
115,-186,-17,692,-90,41,26
116,-291,-367,761,-53,55,-26
117,-562,-259,1003,9,-11,10
118,186,-200,1050,40,-81,-21
119,195,10,996,72,-34,-41
120,206,274,1016,41,-26,21
121,277,310,1182,1,17,-26
122,-158,65,889,-65,60,13
123,-202,13,947,-70,30,24
124,-124,-274,1100,-53,-3,-31
125,-95,-237,825,-18,-21,-1
126,83,-101,1045,24,-37,-10
127,86,9,1089,27,-15,-20
128,73,139,933,12,15,4
129,-11,146,1040,-13,22,-2
130,-65,30,1023,-39,15,-5
131,-52,-79,938,-40,0,-5
132,-89,-130,990,-23,-15,-8
133,-9,-117,1020,-6,-18,-11
134,21,-75,973,7,-9,-12
135,31,44,1011,11,0,-2
136,65,70,1035,-1,4,-11
137,0,53,980,-16,8,-6
138,-44,24,986,-26,3,-3
139,-67,-42,1012,-30,-3,-9
140,-57,-99,985,-24,-7,-6
141,-29,-76,983,-13,-10,-7
142,53,-37,1018,0,-10,-12
143,62,4,1000,0,-4,-9
144,36,54,1001,-4,5,-4
145,-13,48,1003,-19,9,-6
146,-72,7,985,-29,9,-3
147,-87,-51,995,-31,0,-5
148,-39,-74,994,-23,-9,-10
149,36,-73,999,-11,-12,-10
150,63,-35,997,-2,-6,-10
151,69,23,1011,-2,3,-9
152,13,44,997,-12,16,-5
153,-66,36,993,-21,20,0
154,-95,-7,992,-29,9,-5
155,-103,-47,973,-29,-6,-6
156,-8,-84,999,-20,-19,-10
157,71,-75,1007,-8,-16,-13
158,121,-27,1001,-1,-1,-8
159,53,23,1005,-3,16,-5
160,-66,50,1008,-11,22,1
161,-128,26,976,-23,12,-2
162,-121,-15,992,-27,-6,-4
163,-19,-72,994,-25,-22,-11
164,92,-81,1002,-13,-19,-14
165,125,-47,997,-4,-5,-8
166,60,3,1012,-3,17,-4
167,-54,32,1010,-8,26,-1
168,-141,41,975,-18,17,0
169,-126,1,999,-25,-6,-6
170,-30,-60,995,-23,-23,-11
171,90,-68,994,-15,-22,-12
172,139,-56,1008,-7,-6,-10
173,67,-14,1005,-6,17,-4
174,-41,24,1001,-8,27,-1
175,-145,37,981,-15,20,1
176,-134,9,997,-21,-3,-5
177,-45,-42,991,-23,-22,-11
178,85,-55,1008,-18,-24,-12
179,140,-64,1004,-11,-9,-11
180,84,-25,995,-6,15,-4
181,-33,11,1002,-8,27,0
182,-140,33,989,-15,21,1
183,-143,5,994,-19,-1,-4
184,-67,-24,985,-23,-20,-9
185,78,-45,1009,-17,-27,-13
186,137,-61,1009,-13,-10,-11
187,97,-31,1003,-8,14,-4
188,-8,1,990,-7,28,-3
189,-135,26,989,-12,24,1
190,-156,6,985,-17,2,-4
191,-79,-14,996,-21,-19,-9
192,62,-42,1010,-18,-26,-13
193,127,-58,1003,-16,-14,-13
194,118,-34,1008,-8,9,-6
195,6,0,995,-8,25,-2
196,-121,15,990,-12,26,1
197,-155,2,985,-18,7,-4
198,-96,-10,981,-19,-17,-8
199,44,-45,1013,-19,-29,-13
200,119,-54,1010,-15,-15,-11
201,135,-28,1003,-10,6,-6
202,22,-3,1003,-10,26,-2
203,-105,15,998,-13,27,1
204,-156,5,971,-19,9,-2
205,-111,-12,991,-20,-12,-6
206,16,-47,1007,-17,-26,-12
207,116,-55,1002,-14,-18,-13
208,139,-28,1005,-9,1,-8
209,38,0,1006,-9,23,-2
210,-87,11,1001,-12,28,2
211,-161,25,934,-16,12,-1
212,135,252,742,-17,-1,4
213,182,25,1611,-65,28,-19
214,-162,12,876,-78,2,16
215,-63,-333,674,-85,30,-12
216,-407,-330,966,5,13,-22
217,48,-188,1149,28,-59,13
218,283,-30,902,67,-22,-52
219,-50,231,1023,48,-1,25
220,212,348,1158,5,-10,-12
221,-110,48,981,-54,41,-16
222,-146,16,837,-64,14,30
223,2,-205,1177,-51,-8,-32
224,-3,-255,855,-22,-8,-11
225,7,-59,956,13,-10,10
226,12,12,1143,19,-5,-21
227,-47,70,931,4,11,-1
228,-22,122,982,-10,5,0
229,2,-1,1087,-27,-4,-15
230,58,-68,936,-30,-5,-8
231,-6,-95,974,-16,-3,-6
232,-44,-58,1030,-5,1,-6
233,-44,-51,985,-1,6,-7
234,-88,19,968,2,1,-1
235,21,39,1054,-4,-11,-11
236,61,-8,993,-11,-11,-16
237,46,3,981,-12,-4,-3
238,23,-22,1022,-16,4,-8
239,-58,-46,985,-16,13,-4
240,-102,-30,971,-13,8,0
241,-69,-21,1013,-10,-7,-9
242,18,-24,1001,-7,-18,-11
243,57,-8,994,-5,-15,-10
244,80,9,1018,-9,-5,-10
245,29,3,1000,-14,12,-5
246,-61,-2,989,-18,18,1
247,-106,-18,990,-21,9,-4
248,-75,-26,983,-18,-8,-7
249,0,-42,995,-15,-16,-11
250,76,-21,1014,-10,-14,-12
251,107,20,1006,-12,0,-8
252,23,18,992,-19,19,-3
253,-67,2,1011,-25,22,-1
254,-119,-46,976,-28,11,-3
255,-103,-56,980,-20,-8,-7
256,-15,-71,1004,-11,-21,-12
257,85,-30,999,-2,-18,-11
258,121,3,1001,-3,-2,-8
259,49,34,1018,-11,18,-4
260,-47,28,1005,-19,24,-2
261,-137,0,973,-26,14,0
262,-123,-42,993,-25,-6,-6
263,-34,-80,997,-20,-22,-12
264,83,-66,993,-9,-21,-13
265,133,-30,1005,-2,-4,-11
266,75,16,1009,-2,17,-4
267,-33,40,1000,-11,24,-1
268,-138,35,986,-23,19,0
269,-131,-20,999,-28,-2,-6
270,-57,-68,984,-23,-20,-11
271,75,-69,1006,-14,-24,-12
272,136,-58,1013,-6,-10,-11
273,87,-7,1001,-3,14,-3
274,-16,36,995,-8,26,0
275,-128,43,996,-16,20,0
276,-144,4,992,-24,0,-4
277,-72,-42,987,-25,-19,-9
278,68,-70,1006,-18,-26,-12
279,122,-68,1006,-11,-11,-11
280,104,-23,1006,-5,10,-4
281,3,17,998,-5,24,-3
282,-122,37,988,-13,23,2
283,-150,13,982,-21,5,-3
284,-88,-16,995,-25,-16,-9
285,48,-56,1004,-22,-26,-12
286,117,-69,1005,-13,-15,-12
287,121,-35,1002,-6,6,-6
288,16,1,1004,-6,24,-2
289,-107,24,996,-12,26,2
290,-151,20,978,-19,8,-3
291,-102,-4,988,-22,-13,-8
292,22,-51,1003,-22,-26,-13
293,112,-63,1007,-15,-18,-12
294,134,-41,1001,-8,2,-7
295,29,-6,1006,-8,23,-2
296,-86,15,1001,-11,26,0
297,-154,21,972,-18,12,-1
298,-116,-1,998,-21,-11,-8
299,-2,-48,1002,-23,-25,-13
300,110,-53,997,-15,-21,-13
301,141,-43,1010,-8,-3,-9
302,50,-13,1007,-8,21,-3
303,-71,13,1000,-10,27,-1
304,-153,22,979,-16,15,-1
305,-127,-2,994,-19,-9,-6
306,-23,-41,1001,-20,-25,-12
307,99,-48,1006,-15,-21,-12
308,145,-49,1001,-11,-4,-9
309,64,-18,1002,-9,19,-3
310,-47,9,999,-10,26,0
311,-147,21,984,-16,18,2
312,-134,-2,994,-20,-3,-5
313,-48,-39,994,-21,-23,-10
314,87,-31,951,-24,-26,-9
315,563,298,606,-47,-21,6
316,151,-9,1722,-59,90,-15
317,-303,196,605,-121,42,50
318,-250,-339,674,-101,77,-9
319,-826,-327,822,-16,5,-30
320,7,-396,1155,28,-120,-22
321,361,-247,992,102,-79,-62
322,193,232,967,78,-32,10
323,667,426,1247,57,-8,-23
324,-133,314,1009,-36,98,10
325,-318,177,773,-100,60,54
326,-310,-199,1245,-82,8,-24
327,-240,-346,759,-68,-30,-19
328,107,-300,932,4,-64,-11
329,288,-105,1204,50,-44,-33
330,202,69,917,34,20,-2
331,38,263,1009,22,48,8
332,-232,169,1107,-29,44,8
333,-196,33,879,-56,8,-2
334,-139,-152,993,-47,-30,-10
335,55,-192,1023,-24,-50,-18
336,203,-185,987,6,-22,-22
337,123,-14,993,26,11,-2
338,9,112,1048,16,32,1
339,-109,119,994,-6,32,-3
340,-195,79,957,-29,7,5
341,-86,-16,1021,-37,-23,-12
342,34,-146,997,-31,-36,-18
343,114,-122,964,-14,-22,-8
344,132,-75,1028,2,2,-11
345,28,5,1005,12,29,-3
346,-87,77,983,0,27,3
347,-147,87,997,-15,7,-4
348,-92,23,1003,-29,-15,-7
349,0,-50,986,-30,-25,-11
350,107,-84,1013,-25,-18,-11
351,130,-87,991,-14,3,-10
352,42,-28,987,-4,23,-1
353,-60,53,1006,-7,26,0
354,-139,57,990,-20,14,-1
355,-125,11,990,-27,-7,-5
356,-42,-56,997,-29,-23,-11
357,95,-83,1006,-20,-23,-13
358,129,-83,996,-10,-6,-9
359,74,-25,1004,-1,16,-3
360,-25,22,999,-4,26,-2
361,-140,54,982,-11,22,1
362,-142,23,999,-22,-2,-5
363,-60,-23,994,-26,-22,-11
364,73,-59,1003,-22,-25,-11
365,123,-78,1008,-15,-11,-12
366,101,-44,1011,-7,11,-6
367,0,-1,984,-5,25,-1
368,-129,31,989,-9,23,1
369,-146,21,994,-18,3,-5
370,-85,-7,989,-22,-16,-9
371,52,-46,1007,-22,-26,-12
372,116,-67,1005,-14,-15,-11
373,118,-42,1002,-9,7,-6
374,17,-11,1001,-7,25,-1
375,-109,17,1000,-11,25,2
376,-154,15,973,-17,9,-1
377,-100,-1,987,-20,-15,-6
378,22,-38,1012,-19,-26,-12
379,112,-54,1005,-16,-16,-12
380,134,-36,1007,-11,3,-7
381,29,-13,1004,-9,22,-2
382,-87,8,998,-12,26,1
383,-154,11,974,-17,12,-1
384,-120,-2,1001,-18,-10,-6
385,0,-38,998,-19,-26,-12
386,106,-48,999,-15,-20,-12
387,137,-39,1007,-10,-2,-8
388,51,-11,1006,-10,21,-1
389,-64,7,1004,-13,27,1
390,-151,17,975,-17,15,0
391,-130,-5,993,-21,-8,-6
392,-31,-40,997,-19,-25,-12
393,98,-48,1006,-14,-24,-14
394,143,-43,1004,-11,-5,-9
395,71,-15,1002,-8,18,-2
396,-39,13,998,-11,26,0
397,-149,22,984,-19,19,1
398,-139,-1,994,-21,-1,-4
399,-53,-44,992,-20,-21,-11
400,84,-47,1001,-16,-26,-12
401,145,-51,1009,-10,-11,-13
402,89,-17,1000,-6,14,-3
403,-17,12,992,-10,27,-1
404,-138,24,988,-14,21,1
405,-154,0,993,-21,0,-4
406,-71,-30,984,-21,-20,-9
407,71,-50,1010,-15,-27,-13
408,135,-56,1009,-12,-12,-13
409,111,-28,1007,-7,11,-4
410,-1,11,989,-7,26,0
411,-128,23,993,-14,24,2
412,-157,6,985,-19,5,-2
413,-91,-20,990,-22,-15,-7
414,49,-49,1009,-18,-28,-13
415,121,-63,1006,-13,-16,-12
416,129,-26,1003,-8,5,-7
417,18,2,1003,-9,25,-2
418,-109,19,1000,-14,26,1
419,-159,10,972,-19,7,-2
420,-105,-10,985,-21,-15,-7
421,27,-48,1008,-19,-28,-13
422,115,-57,1007,-15,-17,-13
423,415,269,271,-12,1,3
424,323,162,1672,-19,99,-17
425,-354,282,777,-149,50,47
426,-298,-346,546,-159,75,22
427,-792,-502,609,-11,8,-65
428,-264,-426,1336,51,-127,-56
429,585,-388,975,100,-117,-76
430,154,253,904,121,-24,0
431,789,567,1245,59,-22,-14
432,-96,398,1184,-25,112,-3
433,-391,220,599,-125,75,64
434,-413,-232,1305,-101,6,-3
435,-239,-450,808,-69,-47,-43
436,110,-394,840,2,-72,-9
437,409,-48,1224,69,-56,-34
438,240,116,986,39,22,-7
439,19,339,948,17,61,16
440,-333,203,1125,-45,50,15
441,-244,-8,897,-75,4,-7
442,-117,-261,962,-54,-40,-12
443,119,-224,1022,-14,-61,-17
444,290,-193,1014,19,-26,-26
445,121,22,975,39,23,1
446,-51,176,1044,18,46,8
447,-168,152,1003,-14,37,-5
448,-226,48,955,-36,0,4
449,-56,-52,1004,-39,-36,-13
450,124,-175,1028,-26,-40,-23
451,156,-132,963,-5,-14,-7
452,108,-45,1029,11,18,-6
453,-23,39,1003,9,35,-2
454,-157,95,964,-2,28,7
455,-162,65,1009,-18,-2,-6
456,-55,-8,1000,-29,-27,-13
457,76,-74,993,-26,-31,-12
458,126,-100,1012,-14,-12,-11
459,114,-66,1002,-4,12,-7
460,-6,-11,984,0,31,0
461,-122,45,1007,-2,26,1
462,-135,49,986,-13,4,-7
463,-78,26,980,-21,-17,-8
464,39,-30,1016,-27,-25,-11
465,120,-69,1012,-22,-10,-14
466,117,-24,991,-19,11,-6
467,7,-5,999,-16,28,-3
468,-105,6,1006,-17,24,0
469,-157,-18,967,-23,8,-2
470,-107,-27,990,-19,-13,-8
471,11,-58,1013,-17,-27,-12
472,118,-38,994,-8,-18,-12
473,134,-18,1006,-6,1,-7
474,43,13,1014,-9,23,-3
475,-72,16,998,-15,28,0
476,-152,9,966,-22,15,-2
477,-126,-24,999,-23,-9,-6
478,-19,-60,996,-19,-25,-12
479,98,-58,1005,-13,-21,-12
480,143,-35,998,-7,-5,-10
481,69,-3,1004,-4,18,-3
482,-47,27,1002,-11,24,-1
483,-148,28,985,-19,18,2
484,-136,-7,992,-23,-4,-5
485,-56,-50,991,-24,-21,-11
486,87,-55,1005,-15,-24,-12
487,139,-57,1009,-8,-10,-12
488,88,-13,1001,-5,14,-3
489,-15,20,994,-9,27,-1
490,-137,33,989,-16,23,1
491,-149,3,990,-22,1,-4
492,-78,-33,989,-22,-18,-9
493,64,-56,1007,-18,-26,-13
494,128,-64,1008,-12,-13,-12
495,112,-27,1010,-5,9,-4
496,10,11,994,-7,25,-3
497,-124,29,992,-14,26,2
498,-153,11,984,-20,6,-3
499,-95,-21,991,-22,-15,-8
500,43,-52,1004,-20,-28,-13
501,115,-62,1008,-11,-17,-12
502,131,-30,1003,-7,4,-7
503,24,1,1003,-9,25,-1
504,-99,19,998,-13,28,2
505,-159,14,973,-19,10,-2
506,-109,-5,988,-20,-14,-7
507,14,-53,1006,-18,-27,-13
508,112,-58,1008,-14,-19,-12
509,139,-38,1002,-10,0,-8
510,38,-6,1008,-6,22,-3
511,-81,13,999,-11,26,0
512,-156,21,976,-18,13,-3
513,-121,-4,996,-23,-8,-6
514,-11,-45,998,-21,-25,-13
515,107,-55,995,-14,-23,-13
516,143,-43,1009,-8,-3,-10
517,55,-11,1007,-8,21,-2
518,-63,12,1003,-10,27,1
519,-153,22,977,-17,16,-1
520,-134,-5,991,-21,-7,-6
521,-35,-41,996,-20,-25,-11
522,99,-51,1006,-16,-24,-13
523,146,-46,1003,-11,-6,-10
524,73,-16,1003,-7,15,-3
525,-40,12,1000,-10,26,-1
526,-146,22,984,-16,21,0
527,-139,0,993,-20,-2,-5
528,-59,-38,996,-21,-22,-10
529,83,-41,1000,-15,-26,-12
530,432,216,378,53,7,-4
531,437,135,1614,-33,101,-11
532,-304,280,829,-117,46,42
533,-282,-244,494,-167,89,28
534,-791,-460,550,-11,20,-94
535,-439,-293,1405,72,-108,-68
536,550,-502,1004,43,-129,-80
537,-10,130,830,127,-24,-9
538,841,390,1229,61,-53,-24
539,160,381,1261,11,83,-13
540,-248,295,551,-86,93,63
541,-414,-73,1342,-98,35,9
542,-346,-309,844,-77,-23,-33
543,-60,-398,773,-31,-61,-6
544,301,-157,1222,43,-75,-33
545,305,-22,1010,42,-7,-18
546,169,232,909,30,46,6
547,-216,240,1165,-12,57,18
548,-241,98,912,-53,25,-3
549,-208,-128,938,-58,-17,-3
550,-11,-181,1030,-29,-54,-13
551,236,-221,1017,-4,-42,-30
552,194,-73,957,25,0,-8
553,32,102,1053,23,32,6
554,-85,131,1029,-2,40,-6
555,-231,97,932,-24,20,7
556,-141,31,1010,-38,-19,-6
557,31,-135,1031,-37,-42,-25
558,127,-133,942,-18,-32,-9
559,162,-89,1018,-2,-4,-10
560,52,-24,1030,6,26,-6
561,-83,57,970,2,34,5
562,-172,91,991,-10,16,0
563,-122,39,1011,-24,-14,-9
564,-10,-36,985,-31,-30,-11
565,103,-76,1010,-26,-25,-12
566,144,-91,1008,-15,-3,-11
567,64,-57,982,-5,22,-3
568,-58,12,999,-1,28,0
569,-130,52,999,-10,18,-3
570,-87,54,993,-20,-2,-5
571,-15,13,999,-30,-13,-7
572,76,-35,1019,-31,-15,-8
573,73,-97,985,-26,2,-8
574,15,-85,983,-13,17,-2
575,-30,-36,996,-3,17,-4
576,-96,13,985,-2,13,-4
577,-99,36,997,-8,-4,-4
578,-41,33,1010,-15,-16,-10
579,56,-12,1005,-23,-17,-10
580,85,-52,996,-24,-5,-9
581,75,-56,1009,-15,9,-6
582,-2,-44,985,-11,19,-3
583,-100,-9,981,-9,16,-1
584,-129,3,995,-10,3,-5
585,-75,10,995,-15,-14,-9
586,35,-12,1008,-18,-22,-11
587,97,-32,1004,-16,-13,-12
588,109,-33,1004,-15,3,-7
589,20,-23,994,-12,21,-3
590,-93,-12,1005,-11,23,1
591,-139,-8,971,-16,7,-4
592,-103,-4,984,-15,-11,-7
593,13,-28,1010,-14,-23,-11
594,100,-32,1010,-12,-17,-13
595,127,-20,1002,-13,1,-8
596,40,-8,1010,-11,17,-3
597,-72,-2,1000,-15,24,1
598,-144,-3,970,-19,13,-1
599,-116,-14,999,-19,-8,-6
600,-19,-44,1003,-17,-24,-11
601,98,-37,992,-11,-23,-12
602,137,-27,1013,-8,-5,-11
603,61,0,1010,-10,19,-4
604,-49,7,998,-15,27,-1
605,-147,10,978,-19,16,0
606,-132,-14,995,-19,-6,-6
607,-36,-50,992,-19,-22,-13
608,82,-44,1002,-12,-22,-12
609,140,-34,1009,-10,-8,-11
610,76,-13,1002,-9,15,-5
611,-30,15,994,-12,25,-1
612,-137,19,987,-19,20,0
613,-145,-8,994,-20,0,-4
614,-69,-43,986,-21,-20,-10
615,74,-45,1009,-14,-26,-12
616,140,-51,1008,-12,-13,-12
617,95,-17,1003,-7,12,-5
618,-4,12,995,-10,26,-1
619,-126,23,988,-16,23,0
620,-156,0,994,-21,2,-4
621,-84,-26,984,-21,-19,-10
622,59,-49,1010,-16,-27,-13
623,126,-55,1011,-12,-14,-13
624,120,-25,1011,-8,8,-7
625,16,2,994,-9,25,-3
626,-118,23,992,-13,25,2
627,-159,4,984,-18,7,-2
628,-105,-17,991,-20,-15,-9
629,37,-47,1004,-18,-28,-12
630,119,-58,1011,-12,-20,-14
631,133,-29,1001,-9,3,-6
632,35,1,1005,-9,25,-1
633,-100,14,1001,-14,28,2
634,-159,13,972,-19,11,-1
635,-116,-10,985,-21,-12,-6
636,10,-48,1009,-19,-26,-13
637,114,-51,1003,-15,-20,-13
638,143,-34,1007,-10,0,-9
639,47,-4,1003,-9,21,-3
640,-76,10,1000,-12,29,2
641,-159,13,975,-18,15,0
642,-129,-6,995,-20,-9,-6
643,-16,-44,997,-19,-26,-11
644,102,-45,999,-14,-23,-12
645,149,-39,1007,-11,-5,-10
646,71,-7,1003,-10,20,-3
647,359,342,255,72,46,7
648,41,68,1703,-59,94,-12
649,-350,319,651,-133,21,53
650,-234,-396,535,-153,59,2
651,-699,-453,645,9,-10,-75
652,-45,-345,1465,51,-113,-52
653,518,-437,862,70,-75,-71
654,21,289,895,117,3,8
655,641,474,1294,50,-22,-11
656,-168,396,1136,-23,94,-2
657,-302,185,593,-118,53,56
658,-265,-199,1358,-93,-6,-12
659,-95,-376,810,-70,-33,-43
660,77,-389,810,-9,-42,-8
661,268,-69,1227,57,-40,-21
662,87,68,972,33,24,-5
663,-51,266,925,19,39,9
664,-242,196,1144,-30,19,8
665,-82,36,921,-59,-10,-17
666,7,-199,966,-53,-32,-12
667,111,-164,1034,-19,-34,-10
668,175,-179,989,1,-3,-20
669,-30,-11,955,24,27,5
670,-139,106,1050,9,26,6
671,-122,105,995,-12,9,-13
672,-71,45,968,-26,-18,-3
673,63,-23,1027,-32,-32,-16
674,150,-117,1027,-28,-19,-21
675,74,-91,949,-15,9,-1
676,-43,-46,1020,-4,25,0
677,-120,-4,998,-2,20,-4
678,-133,43,956,-5,1,-1
679,-40,37,1019,-12,-28,-13
680,75,-5,1024,-23,-36,-18
681,126,-22,981,-21,-12,-10
682,68,-46,1009,-20,9,-5
683,-28,-49,1010,-16,23,-2
684,-123,-35,958,-15,20,-1
685,-125,-4,1000,-8,-1,-4
686,-34,-14,1006,-8,-20,-13
687,100,-25,987,-8,-20,-13
688,147,-23,1012,-5,-2,-10
689,73,-12,1016,-10,22,-4
690,-60,4,987,-11,32,1
691,-170,18,972,-14,20,1
692,-151,2,1001,-18,-5,-5
693,-50,-34,988,-19,-25,-12
694,93,-38,1006,-16,-26,-13
695,161,-40,1015,-10,-10,-13
696,97,-26,993,-9,17,-4
697,-29,2,998,-10,29,0
698,-147,14,992,-16,23,2
699,-156,-6,985,-20,1,-4
700,-78,-29,984,-19,-22,-10
701,71,-33,1014,-14,-29,-13
702,149,-44,1008,-13,-15,-13
703,113,-25,1008,-10,11,-5
704,2,1,984,-13,27,-1
705,-132,11,990,-15,26,3
706,-164,-6,994,-19,4,-3
707,-99,-21,984,-19,-18,-9
708,54,-39,1008,-14,-28,-12
709,131,-49,1011,-12,-15,-12
710,129,-19,1005,-8,5,-6
711,24,2,997,-12,24,-3
712,-115,10,991,-16,26,2
713,-162,0,982,-19,9,-3
714,-113,-18,984,-20,-13,-8
715,26,-43,1009,-16,-26,-14
716,119,-53,1010,-12,-18,-14
717,137,-21,1001,-8,2,-8
718,44,1,1001,-11,24,-3
719,-93,10,1005,-15,27,2
720,-161,3,970,-19,10,-2
721,-121,-13,984,-19,-11,-7
722,0,-48,1006,-18,-26,-12
723,106,-53,1005,-13,-20,-13
724,147,-32,1006,-8,-2,-9
725,55,-4,1006,-9,20,-4
726,-68,11,1003,-12,27,-1
727,-153,11,976,-17,15,-2
728,-131,-6,991,-20,-5,-6
729,-33,-42,997,-19,-25,-11
730,94,-46,1001,-15,-25,-13
731,150,-39,1005,-11,-7,-11
732,75,-9,1007,-10,18,-4
733,-39,10,1005,-12,28,-1
734,-141,14,981,-17,19,-2
735,-141,-4,988,-21,-3,-4
736,-59,-40,997,-20,-21,-10
737,77,-44,1005,-16,-25,-13
738,146,-44,1001,-13,-11,-11
739,96,-20,1004,-8,12,-4
740,-17,9,1002,-11,26,0
741,-136,17,986,-18,22,1
742,-149,-3,991,-21,1,-4
743,-83,-33,989,-21,-19,-10
744,62,-42,1005,-16,-27,-13
745,135,-50,1009,-11,-15,-13
746,115,-24,1004,-8,10,-6
747,3,6,995,-11,27,-1
748,-121,23,983,-15,25,0
749,-161,-2,997,-20,5,-4
750,-99,-19,982,-21,-18,-9
751,45,-46,1008,-18,-27,-12
752,127,-54,1011,-14,-17,-13
753,127,-27,1001,-10,6,-6
754,29,4,997,-9,24,-2
755,-114,15,995,-14,27,3
756,-160,8,981,-19,9,-3
757,-113,-19,987,-21,-13,-7
758,21,-45,1008,-18,-27,-11
759,121,-56,1009,-13,-20,-13
760,140,-32,1002,-9,2,-8
761,45,1,1007,-10,24,-2
762,-91,9,1003,-13,29,1
763,-164,9,968,-17,13,-2
764,-126,-7,986,-19,-10,-6
765,-4,-44,1009,-19,-27,-13
766,108,-51,1005,-13,-20,-13
767,150,-30,1005,-9,-1,-9
768,60,-9,1009,-8,21,-2
769,-62,12,998,-11,28,1
770,391,229,225,-10,27,22
771,60,17,1698,-42,98,-13
772,-269,259,613,-131,0,55
773,-219,-329,499,-120,68,-3
774,-832,-320,638,38,4,-113
775,16,-178,1568,43,-118,-72
776,421,-458,828,33,-81,-60
777,71,266,859,96,-18,12
778,573,292,1329,30,-26,-18
779,-125,275,1108,-8,80,-16
780,-249,166,542,-91,49,55
781,-205,-87,1430,-64,1,-22
782,-78,-312,766,-67,-25,-30
783,76,-291,868,-5,-34,-2
784,154,-90,1201,39,-30,-18
785,58,0,973,32,19,-7
786,-65,181,914,21,32,8
787,-168,173,1139,-11,13,2
788,-2,47,935,-41,-10,-18
789,2,-100,974,-39,-21,-6
790,57,-85,1023,-27,-26,-9
791,72,-142,1001,-14,-3,-18
792,-74,-48,951,2,14,6
793,-100,44,1039,1,9,-2
794,-2,39,1015,-9,-4,-18
795,-2,33,962,-15,-13,-3
796,74,34,1030,-21,-17,-11
797,71,-56,1020,-27,-4,-15
798,-38,-46,946,-25,13,4
799,-85,-61,1013,-20,13,-6
800,-89,-45,998,-13,4,-7
801,-16,-12,973,-7,-13,-6
802,38,18,1020,-6,-20,-14
803,102,24,1020,-14,-11,-15
804,58,20,980,-23,8,-8
805,-35,-4,1013,-28,20,-1
806,-98,-33,990,-30,14,-2
807,-106,-49,962,-25,1,-3
808,-12,-52,1001,-16,-15,-9
809,63,-51,1015,-10,-14,-13
810,96,-12,986,-7,-4,-7
811,24,12,1006,-9,15,-3
812,-50,15,1017,-16,21,-2
813,-110,3,964,-22,14,-1
814,-108,-21,998,-22,-3,-4
815,-28,-56,1003,-18,-22,-11
816,71,-55,990,-11,-19,-12
817,114,-32,1000,-6,-6,-9
818,63,2,1018,-7,15,-5
819,-25,17,1001,-14,23,-2
820,-131,20,974,-20,17,0
821,-127,-4,1001,-22,-4,-3
822,-52,-55,996,-21,-20,-12
823,64,-52,993,-15,-22,-11
824,133,-52,1009,-10,-9,-10
825,86,-13,1004,-6,12,-5
826,-13,20,996,-6,24,0
827,-131,34,988,-17,21,0
828,-142,-4,999,-21,2,-4
829,-79,-40,981,-21,-19,-9
830,60,-48,1009,-16,-25,-13
831,139,-58,1006,-11,-12,-12
832,105,-24,1001,-7,10,-5
833,5,14,995,-8,25,-1
834,-126,27,995,-14,24,0
835,-155,2,985,-22,3,-3
836,-97,-28,990,-22,-18,-9
837,50,-49,1006,-17,-28,-13
838,125,-58,1006,-12,-15,-12
839,121,-29,1012,-6,8,-6
840,26,3,997,-8,23,-2
841,-114,23,985,-13,27,1
842,-164,6,988,-19,9,-2
843,-105,-12,992,-21,-14,-10
844,33,-50,1005,-18,-28,-14
845,116,-55,1006,-11,-19,-13
846,137,-34,1010,-8,3,-8
847,37,-1,1000,-9,24,-2
848,-100,15,1002,-11,28,3
849,-162,12,974,-18,11,-1
850,-123,-6,983,-20,-11,-7
851,7,-46,1004,-18,-27,-13
852,113,-55,1009,-13,-21,-14
853,147,-32,1004,-11,-1,-9
854,53,-7,1002,-8,21,-3
855,-73,9,1007,-12,29,1
856,-163,12,972,-18,16,0
857,-135,-3,993,-20,-8,-6
858,-19,-46,997,-19,-26,-12
859,102,-47,1001,-12,-25,-14
860,152,-39,1010,-10,-6,-11
861,68,-10,1008,-8,19,-3
862,-52,6,1002,-10,29,1
863,-157,16,975,-16,18,0
864,-142,-3,995,-20,-6,-4
865,-47,-41,993,-19,-25,-12
866,87,-45,1005,-16,-25,-12
867,155,-45,1002,-10,-9,-11
868,87,-16,1004,-8,16,-4
869,-31,10,999,-10,28,0
870,-148,19,986,-16,21,1
871,-153,-3,986,-21,-1,-4
872,-76,-38,993,-19,-21,-11
873,80,-42,1008,-17,-28,-13
874,147,-51,1007,-12,-13,-11
875,110,-20,1005,-7,12,-4
876,-6,8,995,-10,28,0
877,-134,25,987,-16,25,1
878,-160,-5,993,-20,3,-2
879,-90,-26,983,-21,-19,-9
880,64,-55,998,-15,-28,-13
881,627,114,300,55,21,5
882,443,37,1633,4,123,-12
883,-279,242,814,-111,48,52
884,-212,-140,580,-112,108,9
885,-932,-164,539,16,70,-121
886,-682,-58,1080,5,-113,-104
887,498,-394,1371,21,-183,-94
888,40,-59,802,30,-52,-5
889,869,34,1044,32,-58,-54
890,291,114,1342,42,65,-1
891,-230,270,611,-36,101,56
892,-341,59,1216,-42,58,-7
893,-457,-70,932,-52,-2,-8
894,-97,-218,809,-47,-64,-12
895,258,-205,1171,13,-68,-39
896,280,-102,1009,17,-26,-9
897,202,70,934,28,24,-5
898,-170,135,1122,8,52,12
899,-253,135,916,-26,24,4
900,-205,-6,974,-40,-11,-10
901,-40,-70,1018,-36,-50,-11
902,205,-133,1000,-23,-51,-25
903,210,-109,989,-2,-16,-14
904,66,-5,1026,3,20,4
905,-60,36,1014,-2,40,-6
906,-205,56,955,-11,25,4
907,-154,59,997,-21,-10,-5
908,-4,-41,1024,-27,-36,-21
909,106,-61,981,-24,-34,-12
910,161,-66,1005,-19,-11,-12
911,72,-53,1014,-12,19,-6
912,-47,-4,981,-10,30,2
913,-147,34,985,-14,19,-1
914,-128,19,1006,-18,-6,-9
915,-46,-9,986,-24,-24,-12
916,84,-22,1009,-22,-26,-12
917,141,-49,1009,-21,-9,-11
918,93,-43,987,-16,17,-3
919,3,-11,992,-16,32,0
920,-130,1,994,-17,29,-1
921,-167,-12,983,-16,5,-4
922,-121,-20,979,-15,-18,-9
923,44,-27,1014,-13,-28,-14
924,142,-38,1011,-12,-18,-15
925,141,-19,1004,-12,6,-7
926,26,5,998,-13,25,0
927,-116,13,990,-16,28,1
928,-176,-13,985,-20,10,-2
929,-125,-24,984,-20,-14,-8
930,34,-49,1008,-15,-29,-15
931,125,-49,1008,-10,-20,-13
932,146,-18,1004,-6,3,-7
933,47,10,1007,-9,23,-3
934,-104,17,995,-17,29,3
935,-172,3,975,-19,13,-1
936,-128,-22,988,-21,-11,-6
937,12,-56,1005,-17,-29,-14
938,116,-57,1007,-12,-23,-14
939,151,-25,1006,-6,-1,-9
940,59,9,1010,-9,24,-3
941,-83,17,1004,-13,30,3
942,-160,13,971,-20,15,0
943,-140,-13,985,-22,-7,-7
944,-13,-53,1001,-19,-27,-13
945,103,-61,1002,-14,-24,-14
946,158,-36,1009,-7,-6,-10
947,74,-5,1007,-6,19,-3
948,-57,18,1004,-11,31,1
949,-160,22,977,-20,21,2
950,-148,-4,990,-22,-5,-5
951,-43,-48,995,-22,-26,-12
952,97,-57,996,-14,-26,-14
953,155,-48,1006,-9,-7,-11
954,89,-10,1009,-7,18,-4
955,-32,14,1007,-9,29,1
956,-152,30,975,-17,21,2
957,-152,0,994,-19,-1,-4
958,-67,-45,994,-21,-23,-13
959,80,-52,1003,-15,-27,-14
960,152,-51,1005,-9,-13,-12
961,103,-22,1004,-6,12,-5
962,-12,14,998,-9,27,-1
963,-141,27,989,-16,25,1
964,-159,0,991,-21,3,-3
965,-86,-33,985,-21,-20,-9
966,63,-45,1005,-16,-30,-12
967,144,-55,1014,-12,-17,-12
968,121,-30,1006,-9,11,-6
969,6,9,990,-9,28,0
970,-124,24,989,-13,27,2
971,-168,5,990,-18,6,-2
972,-105,-14,983,-22,-18,-9
973,49,-46,1011,-18,-29,-13
974,128,-57,1011,-13,-18,-12
975,138,-31,1002,-8,4,-7
976,28,0,1000,-8,26,-2
977,-112,16,995,-13,27,1
978,-170,4,978,-18,10,-2
979,-118,-10,985,-19,-14,-7
980,24,-43,1005,-20,-29,-12
981,119,-53,1011,-13,-20,-14
982,145,-33,1002,-10,3,-8
983,45,-1,1005,-9,24,-3
984,-91,10,1001,-13,29,2
985,-165,12,972,-19,14,-1
986,-119,18,777,-13,-6,1
987,619,281,831,-20,11,1
988,-30,-98,1616,-64,44,-25
989,-185,75,333,-99,36,63
990,-312,-453,592,-60,59,-66
991,-780,-90,1188,68,-29,-46
992,469,-195,1189,-2,-115,-46
993,-12,-103,783,55,-20,-33
994,321,313,1038,40,-55,22
995,364,148,1363,-5,10,-43
996,-122,113,666,-48,67,25
997,-214,28,1039,-61,35,35
998,-139,-169,1188,-48,1,-44
999,-152,-260,689,-31,-15,9
1000,70,-57,1099,21,-44,-12
1001,101,-74,1130,14,-26,-25
1002,124,87,861,16,11,-2
1003,-32,128,1071,-6,23,6
1004,-52,73,1050,-26,16,-13
1005,-69,-48,900,-41,5,-1
1006,-117,-54,1005,-27,-15,-2
1007,12,-113,1049,-18,-25,-16
1008,45,-99,943,-3,-13,-12
1009,29,9,1007,3,-4,1
1010,80,32,1063,-2,6,-15
1011,3,22,960,-14,16,-2
1012,-64,57,970,-18,8,3
1013,-68,-15,1040,-28,-3,-11
1014,-55,-70,975,-26,-8,-6
1015,-33,-63,970,-19,-9,-3
1016,61,-57,1042,-12,-9,-13
1017,68,-35,983,-4,2,-7
1018,30,35,992,-6,9,-2
1019,-11,40,1017,-16,12,-6
1020,-76,25,983,-22,10,-2
1021,-91,-15,981,-32,1,-2
1022,-47,-52,1011,-28,-9,-8
1023,38,-75,990,-22,-13,-10
1024,54,-52,991,-11,-6,-8
1025,79,-3,1015,-4,3,-9
1026,25,13,997,-12,18,-6
1027,-32,-17,991,-12,22,0
1028,-77,-43,999,-14,14,-5
1029,-95,-49,981,-10,2,-5
1030,-56,-25,985,-2,-9,-9
1031,18,-12,1014,-4,-13,-11
1032,96,30,1003,-5,-7,-10
1033,69,30,1003,-13,8,-6
1034,-13,18,1009,-20,16,-1
1035,-97,-19,987,-27,13,-1
1036,-120,-52,981,-25,0,-3
1037,-59,-75,988,-17,-14,-9
1038,55,-56,999,-6,-19,-12
1039,121,-17,1003,-1,-11,-11
1040,79,27,1008,-4,10,-5
1041,-18,34,1018,-14,23,-2
1042,-121,22,976,-24,20,1
1043,-131,-21,992,-26,1,-3
1044,-67,-71,988,-24,-17,-10
1045,56,-72,997,-14,-23,-12
1046,133,-48,1005,-6,-12,-13
1047,90,0,1004,-2,10,-5
1048,-6,38,1003,-8,24,-2
1049,-128,40,995,-21,21,2
1050,-145,0,989,-24,3,-4
1051,-80,-51,988,-25,-17,-10
1052,52,-63,1003,-17,-27,-12
1053,133,-64,1005,-8,-15,-13
1054,111,-25,1000,-4,10,-6
1055,6,21,997,-7,27,1
1056,-124,38,996,-15,27,0
1057,-154,10,990,-22,6,-4
1058,-98,-22,981,-24,-16,-8
1059,45,-54,1008,-19,-27,-12
1060,125,-68,1011,-12,-17,-12
1061,126,-34,1003,-5,6,-6
1062,25,0,999,-6,25,-3
1063,-111,27,989,-12,28,1
1064,-157,10,985,-18,8,-3
1065,-113,-9,985,-22,-12,-9
1066,27,-46,1010,-19,-28,-12
1067,121,-62,1004,-14,-20,-13
1068,138,-33,1001,-7,2,-7
1069,43,-3,1004,-10,24,-2
1070,-95,12,1001,-12,30,3
1071,-163,12,969,-18,11,-2
1072,-121,-5,986,-20,-13,-6
1073,4,-45,1008,-18,-28,-12
1074,110,-55,1006,-14,-21,-14
1075,148,-34,1006,-10,-1,-9
1076,57,-9,1007,-8,21,-3
1077,-76,11,1002,-12,29,2
1078,-160,13,974,-17,15,-1
1079,-136,-7,990,-20,-8,-7
1080,-15,-44,1000,-19,-25,-11
1081,101,-51,999,-14,-24,-13
1082,154,-40,1012,-9,-6,-10
1083,67,-9,1007,-9,19,-2
1084,-56,12,1006,-12,30,1
1085,-157,16,974,-17,18,1
1086,-147,-3,990,-19,-4,-4
1087,-44,-41,997,-19,-26,-11
1088,92,-48,999,-14,-26,-13
1089,154,-43,1002,-10,-9,-11
1090,88,-15,1006,-10,16,-4
1091,-34,13,1008,-10,28,0
1092,-150,21,974,-17,22,1
1093,-156,-2,995,-18,-1,-5
1094,-63,-40,992,-20,-23,-12
1095,79,-44,1010,-15,-28,-13
1096,154,-48,1004,-11,-14,-12
1097,103,-22,1004,-7,14,-4
1098,-8,11,994,-9,27,-2
1099,-142,23,991,-16,27,2
1100,-158,0,992,-19,3,-3
1101,-89,-31,984,-20,-21,-10
1102,63,-45,1006,-15,-29,-13
1103,142,-54,1013,-12,-16,-14
1104,122,-27,1006,-10,9,-5
1105,9,7,996,-9,26,-1
1106,-122,20,977,-16,26,3
1107,277,335,378,-51,17,10
1108,114,-191,1743,-39,83,-47
1109,-255,145,609,-57,3,49
1110,-252,-439,569,-83,48,-13
1111,-801,-220,756,70,-17,-88
1112,154,53,1551,29,-124,-19
1113,433,-164,739,18,-63,-81
1114,190,269,965,35,-13,9
1115,445,223,1288,-20,-10,-2
1116,-198,73,990,-48,77,-9
1117,-304,-68,633,-82,37,50
1118,-152,-130,1396,-34,-7,-26
1119,-34,-315,723,-31,-25,-26
1120,99,-56,977,29,-34,3
1121,135,42,1188,24,-26,-20
1122,13,96,922,7,18,-7
1123,-85,142,960,-19,19,15
1124,-133,42,1117,-38,5,-12
1125,46,-86,898,-45,-15,-14
1126,20,-114,994,-23,-19,-4
1127,50,-76,1044,-12,-15,-9
1128,41,-73,979,-4,4,-14
1129,-103,30,962,-2,14,10
1130,-62,46,1058,-10,3,-7
1131,10,5,984,-18,-7,-13
1132,33,0,960,-18,-14,-1
1133,69,-17,1042,-22,-11,-12
1134,38,-68,1011,-18,5,-9
1135,-68,-24,942,-15,17,6
1136,-81,-28,1038,-13,10,-5
1137,-59,-36,996,-12,-1,-9
1138,38,3,972,-8,-11,-7
1139,144,12,1024,-9,-6,-15
1140,100,-15,1016,-16,16,-8
1141,-14,-1,980,-16,30,3
1142,-149,-30,992,-22,33,0
1143,-160,-57,983,-16,13,-3
1144,-97,-64,974,-4,-11,-8
1145,43,-36,1005,3,-26,-13
1146,130,-8,1024,4,-19,-15
1147,113,37,998,-3,6,-7
1148,9,53,1000,-15,25,0
1149,-109,32,1001,-25,26,1
1150,-153,-38,980,-31,8,-2
1151,-107,-72,975,-23,-14,-7
1152,33,-82,1015,-11,-27,-13
1153,111,-58,1001,-2,-19,-13
1154,130,2,1009,2,4,-7
1155,37,45,1011,-6,23,-2
1156,-94,45,988,-19,29,1
1157,-159,4,983,-26,12,-1
1158,-122,-35,988,-27,-13,-6
1159,17,-79,1002,-20,-28,-15
1160,107,-77,997,-8,-21,-14
1161,143,-26,1009,-2,2,-7
1162,53,16,1009,-4,23,-4
1163,-82,43,1002,-11,29,2
1164,-159,30,974,-22,12,-2
1165,-134,-8,984,-25,-10,-6
1166,-5,-59,1005,-23,-29,-13
1167,104,-74,1006,-16,-22,-15
1168,154,-45,1000,-8,-3,-9
1169,66,-7,1010,-5,20,-3
1170,-66,25,1001,-8,28,2
1171,-157,29,978,-17,16,0
1172,-140,4,989,-22,-6,-6
1173,-32,-45,998,-23,-24,-11
1174,99,-61,999,-18,-25,-13
1175,153,-56,1006,-11,-7,-11
1176,76,-23,1009,-8,18,-3
1177,-44,7,1008,-8,29,2
1178,-154,24,972,-13,21,1
1179,-150,10,997,-18,-4,-4
1180,-47,-34,999,-22,-25,-11
1181,85,-48,999,-16,-26,-12
1182,157,-53,1005,-14,-10,-11
1183,89,-29,1008,-8,16,-5
1184,-22,2,998,-9,29,0
1185,-147,21,984,-14,24,2
1186,-158,4,992,-17,0,-4
1187,-74,-27,994,-18,-22,-12
1188,76,-39,1003,-16,-27,-14
1189,149,-50,1010,-11,-14,-13
1190,112,-28,1000,-9,12,-6
1191,-6,0,996,-11,28,0
1192,-137,21,989,-15,27,1
1193,-163,-1,993,-19,4,-4
1194,-98,-24,981,-17,-20,-10
1195,61,-40,1008,-14,-31,-14
1196,142,-47,1010,-11,-19,-12
1197,125,-27,1009,-9,9,-5
1198,17,4,990,-11,28,-2
1199,-124,16,990,-14,28,2
1200,-170,0,987,-18,8,-3
1201,-110,-21,987,-21,-15,-9
1202,40,-40,1007,-16,-28,-12
1203,129,-51,1009,-12,-19,-12
1204,140,-24,1006,-9,4,-7
1205,33,0,1002,-10,25,-1
1206,-107,14,997,-14,28,2
1207,-169,2,976,-19,12,-2
1208,-122,-18,982,-20,-13,-8
1209,16,-47,1012,-18,-30,-12
1210,119,-52,1003,-12,-21,-13
1211,151,-27,1006,-7,-2,-9
1212,57,19,965,7,22,-5
1213,397,436,632,-16,45,-4
1214,-138,-214,1721,-61,87,-41
1215,-307,198,550,-65,13,58
1216,-241,-560,724,-78,30,-44
1217,-743,-211,887,67,-30,-62
1218,369,-144,1335,29,-121,-40
1219,294,-57,793,58,-22,-48
1220,263,398,1073,37,1,27
1221,324,286,1238,-29,34,-22
1222,-279,82,897,-71,91,10
1223,-335,-89,794,-92,22,44
1224,-171,-286,1249,-41,-23,-40
1225,-27,-326,719,-11,-33,-23
1226,202,-82,1062,43,-40,-9
1227,205,99,1157,42,-8,-15
1228,10,183,913,10,35,5
1229,-165,198,1011,-26,31,16
1230,-217,11,1073,-52,2,-8
1231,-20,-132,888,-52,-27,-15
1232,78,-193,1015,-21,-40,-12
1233,161,-121,1021,3,-25,-14
1234,113,-44,989,14,11,-10
1235,-104,102,984,9,30,12
1236,-147,101,1047,-10,17,-1
1237,-112,19,966,-26,-6,-9
1238,-10,-31,981,-26,-28,-4
1239,136,-90,1031,-19,-30,-18
1240,129,-104,1002,-7,-3,-10
1241,22,-15,959,0,20,3
1242,-89,24,1025,-2,28,-3
1243,-141,28,992,-10,14,-2
1244,-104,29,965,-17,-11,-4
1245,28,-6,1028,-18,-28,-15
1246,110,-56,1011,-20,-21,-13
1247,103,-41,985,-15,1,-5
1248,24,-30,1007,-13,20,-3
1249,-90,-6,980,-13,24,3
1250,-134,-3,987,-17,9,-2
1251,-99,4,998,-18,-12,-7
1252,35,-23,1010,-18,-26,-13
1253,99,-36,999,-15,-17,-11
1254,115,-20,1009,-14,2,-6
1255,40,-18,1000,-18,21,-4
1256,-81,-11,990,-17,28,1
1257,-142,-15,981,-18,12,-2
1258,-106,-15,987,-17,-11,-9
1259,-2,-43,998,-13,-23,-12
1260,98,-65,1009,-7,-17,-13
1261,130,-41,1008,-2,2,-8
1262,43,3,997,1,22,-3
1263,-80,36,1007,-7,25,0
1264,-147,38,979,-17,12,-1
1265,-121,5,986,-23,-9,-5
1266,-10,-51,999,-23,-24,-10
1267,96,-68,1006,-17,-22,-12
1268,142,-58,1000,-9,-5,-9
1269,59,-18,1005,-3,19,-2
1270,-52,14,1005,-8,27,0
1271,-151,28,979,-15,18,0
1272,-136,12,993,-20,-6,-5
1273,-36,-36,997,-22,-24,-11
1274,91,-50,994,-16,-25,-13
1275,146,-53,1005,-10,-8,-9
1276,82,-27,1009,-7,18,-4
1277,-40,3,1000,-8,29,1
1278,-146,22,981,-14,20,0
1279,-145,6,995,-16,-3,-6
1280,-59,-28,988,-18,-21,-10
1281,80,-40,1011,-16,-24,-13
1282,142,-49,1003,-13,-10,-11
1283,97,-29,997,-9,13,-4
1284,-19,3,1001,-11,27,0
1285,-141,17,989,-15,23,0
1286,-150,0,990,-17,2,-4
1287,-83,-28,986,-19,-20,-10
1288,67,-34,1011,-14,-28,-13
1289,143,-51,1011,-13,-15,-12
1290,111,-26,1004,-10,9,-6
1291,4,0,993,-10,27,-2
1292,-133,17,990,-16,26,1
1293,-161,-1,989,-20,4,-3
1294,-97,-22,986,-20,-18,-10
1295,50,-39,1005,-15,-28,-12
1296,131,-53,1013,-12,-16,-13
1297,132,-24,1008,-8,7,-7
1298,22,2,995,-9,26,-2
1299,-116,15,989,-12,27,1
1300,-170,-3,985,-19,8,-4
1301,-113,-15,983,-20,-15,-8
1302,35,-47,1010,-17,-29,-13
1303,123,-51,1008,-11,-21,-13
1304,146,-22,1004,-8,4,-7
1305,38,5,1007,-9,26,0
1306,-101,14,996,-16,29,3
1307,-168,3,977,-19,11,-2
1308,-127,-18,978,-21,-14,-7
1309,12,-49,1010,-16,-29,-14
1310,117,-54,1006,-11,-22,-13
1311,153,-29,1008,-9,-1,-9
1312,60,2,1006,-7,22,-2
1313,-87,18,1002,-11,26,1
1314,-165,13,974,-20,11,-2
1315,-145,-13,984,-20,-14,-7
1316,-17,-54,995,-18,-35,-12
1317,111,-59,1012,-12,-31,-14
1318,157,-39,1002,-4,-13,-10
1319,77,-3,1007,-5,11,-3
1320,-67,14,1011,-8,18,0
1321,-168,23,968,-16,4,0
1322,-145,-10,997,-19,-21,-6
1323,-38,-54,996,-18,-39,-13
1324,106,-55,998,-10,-38,-14
1325,159,-47,1006,-6,-20,-12
1326,75,-5,1005,-3,-2,-5
1327,-48,20,1004,-7,5,-3
1328,-164,26,980,-15,-1,-1
1329,-143,-6,964,-22,-23,-5
1330,235,107,700,-23,-32,-13
1331,249,-126,1590,-27,18,-35
1332,-61,66,792,-29,0,26
1333,-185,-304,843,-27,30,-14
1334,-447,-89,1011,22,3,-4
1335,-58,-34,1064,8,-43,-9
1336,291,20,909,28,-16,-48
1337,51,185,1105,0,14,34
1338,322,169,1064,-29,22,-25
1339,-98,-94,980,-51,71,8
1340,-207,2,885,-44,42,28
1341,-102,-206,1110,-34,30,-30
1342,-96,-124,865,-2,15,0
1343,5,8,1027,7,-1,-2
1344,74,55,1087,4,5,-28
1345,36,83,956,-10,12,0
1346,-4,69,1002,-29,19,-6
1347,-22,-50,1065,-38,17,-13
1348,-13,-79,913,-32,11,-5
1349,-69,-98,994,-20,10,-4
1350,-22,-60,1032,-6,-1,-10
1351,-9,-29,970,-2,1,-7
1352,5,29,1001,-8,2,-2
1353,52,14,1049,-9,-1,-11
1354,49,0,972,-14,6,-8
1355,-7,-7,989,-18,10,0
1356,-45,-33,1026,-18,7,-5
1357,-71,-58,971,-15,1,-4
1358,-67,-27,974,-11,-8,-1
1359,16,-26,1030,-6,-19,-12
1360,57,-20,995,-6,-12,-10
1361,73,19,991,-8,0,-4
1362,32,22,1019,-15,10,-5
1363,-47,14,993,-21,17,-1
1364,-153,14,963,-27,10,-1
1365,-121,-19,994,-28,-13,-5
1366,0,-70,998,-24,-23,-14
1367,111,-87,996,-13,-19,-14
1368,161,-44,1012,-3,-3,-11
1369,63,-5,1005,-1,21,-5
1370,-73,38,992,-7,29,2
1371,-162,32,994,-18,19,-2
1372,-143,1,986,-23,-2,-5
1373,-26,-54,993,-24,-25,-12
1374,101,-69,1003,-16,-26,-14
1375,151,-57,1004,-7,-10,-11
1376,72,-16,1008,-6,16,-3
1377,-48,20,1013,-7,28,1
1378,-151,30,976,-18,20,2
1379,-144,6,991,-21,-3,-4
1380,-47,-38,996,-22,-24,-10
1381,83,-52,1003,-17,-26,-13
1382,151,-52,1000,-12,-10,-11
1383,86,-23,1005,-7,15,-4
1384,-24,8,1003,-9,28,0
1385,-140,22,983,-14,24,1
1386,-153,2,992,-19,1,-4
1387,-67,-30,992,-21,-20,-12
1388,71,-47,1008,-16,-26,-13
1389,143,-45,1006,-11,-13,-12
1390,107,-27,1002,-8,12,-4
1391,-10,3,998,-10,28,-1
1392,-134,23,990,-16,27,2
1393,-160,-4,994,-20,4,-4
1394,-90,-28,981,-21,-19,-10
1395,59,-43,1012,-15,-29,-14
1396,143,-51,1010,-12,-17,-12
1397,122,-26,1005,-9,9,-4
1398,11,2,993,-9,27,-2
1399,-127,17,989,-16,26,3
1400,-166,-3,988,-20,6,-2
1401,-106,-21,985,-20,-17,-9
1402,48,-44,1011,-15,-29,-12
1403,133,-50,1008,-12,-18,-14
1404,135,-23,1010,-8,5,-6
1405,27,2,996,-12,24,-1
1406,-115,17,995,-15,28,3
1407,-166,-1,976,-19,12,-3
1408,-117,-18,987,-20,-13,-9
1409,31,-46,1009,-18,-30,-13
1410,117,-55,1009,-11,-20,-13
1411,149,-28,1002,-8,1,-8
1412,37,0,1009,-9,23,-1
1413,-83,53,965,-21,25,4
1414,261,368,664,-82,15,5
1415,-84,-163,1705,-68,61,-34
1416,-200,126,642,-75,0,48
1417,-170,-490,789,-71,34,-41
1418,-565,-200,873,40,-15,-44
1419,306,-156,1274,24,-89,-23
1420,222,-14,843,56,-15,-35
1421,109,337,1042,24,-7,28
1422,234,264,1198,-24,8,-20
1423,-248,55,915,-70,54,8
1424,-172,-69,842,-85,6,26
1425,-32,-276,1208,-43,-15,-39
1426,17,-280,783,-16,-14,-10
1427,92,-87,1027,35,-18,-1
1428,41,75,1127,35,-2,-14
1429,-66,144,931,7,20,2
1430,-105,164,1002,-18,7,3
1431,-57,11,1071,-44,-12,-11
1432,80,-107,918,-43,-20,-13
1433,52,-151,1008,-21,-14,-5
1434,40,-96,1028,-3,-4,-7
1435,-28,-49,965,5,14,-6
1436,-125,56,991,8,12,5
1437,-65,60,1037,-6,-5,-8
1438,30,18,989,-16,-15,-13
1439,71,-14,980,-21,-18,-4
1440,81,-46,1025,-19,-6,-10
1441,17,-69,994,-14,10,-6
1442,-91,-20,964,-11,21,4
1443,-101,-18,1025,-8,8,-6
1444,-68,-6,986,-9,-9,-9
1445,28,14,994,-12,-19,-9
1446,96,-4,1021,-11,-17,-13
1447,87,-17,1001,-16,2,-7
1448,19,-21,982,-18,19,-1
1449,-82,-26,1002,-18,24,2
1450,-82,-76,989,-13,12,-4
1451,-84,-80,969,0,-3,-9
1452,5,-36,1006,10,-17,-11
1453,59,12,1015,10,-10,-15
1454,69,60,995,-1,3,-6
1455,31,77,1012,-14,15,-2
1456,-64,27,1001,-31,19,0
1457,-111,-50,981,-33,7,-2
1458,-99,-88,987,-27,-9,-6
1459,3,-102,1001,-11,-21,-13
1460,80,-62,998,0,-15,-12
1461,114,9,1014,3,0,-7
1462,48,62,1007,-5,19,-2
1463,-69,62,999,-17,24,1
1464,-145,9,987,-29,13,-1
1465,-117,-44,981,-29,-8,-6
1466,0,-95,1002,-23,-23,-12
1467,89,-89,992,-8,-20,-13
1468,139,-32,1010,2,-3,-9
1469,58,25,1008,0,20,-4
1470,-74,55,1005,-9,27,3
1471,-149,34,979,-23,13,-1
1472,-136,-10,980,-30,-7,-5
1473,-10,-69,1002,-25,-25,-12
1474,98,-87,1007,-15,-22,-14
1475,148,-51,999,-5,-4,-10
1476,65,0,1012,-2,19,-4
1477,-65,32,1008,-7,29,2
1478,-154,35,975,-18,19,-1
1479,-142,7,988,-25,-5,-6
1480,-25,-51,1001,-25,-25,-11
1481,96,-68,996,-17,-23,-13
1482,152,-58,1005,-9,-7,-10
1483,77,-20,1011,-4,18,-3
1484,-50,10,1004,-8,30,1
1485,-157,33,974,-16,21,1
1486,-148,9,1000,-20,-4,-4
1487,-45,-34,990,-22,-24,-11
1488,91,-55,1000,-17,-27,-14
1489,152,-53,1004,-10,-11,-10
1490,90,-25,1007,-8,17,-4
1491,-34,5,1003,-9,31,1
1492,-151,26,978,-14,23,2
1493,-156,3,993,-19,0,-4
1494,-63,-29,996,-20,-23,-11
1495,80,-44,1002,-15,-29,-14
1496,157,-50,1006,-13,-13,-12
1497,100,-23,1001,-9,14,-3
1498,-15,6,1003,-11,29,-1
1499,-148,15,985,-16,26,1
1500,-161,0,987,-17,2,-3
1501,-84,-32,989,-21,-21,-10
1502,70,-38,1008,-15,-30,-14
1503,151,-48,1006,-11,-17,-12
1504,116,-25,1003,-8,10,-5
1505,1,3,996,-11,28,0
1506,-135,18,990,-15,29,1
1507,-168,-4,987,-19,5,-4
1508,-100,-28,983,-21,-20,-11
1509,53,-41,1005,-14,-30,-14
1510,142,-50,1015,-11,-18,-13
1511,133,-23,1009,-9,8,-6
1512,19,5,993,-11,25,-1
1513,-121,17,989,-16,27,2
1514,-177,-4,985,-20,8,-1
1515,-109,-21,983,-19,-16,-8
1516,41,-48,1012,-15,-30,-13
1517,133,-49,1006,-9,-20,-14
1518,148,-25,1010,-8,2,-6
1519,34,5,1001,-9,25,-2
1520,-112,16,990,-14,30,3
1521,-174,2,981,-20,11,-2
1522,-127,-15,982,-21,-14,-7
1523,22,-53,1005,-17,-29,-13
1524,123,-55,1013,-11,-22,-15
1525,153,-26,1001,-7,0,-9
1526,55,5,1012,-9,25,-2
1527,-94,16,998,-14,29,3
1528,-168,9,974,-19,14,-1
1529,-135,-12,981,-21,-11,-6
1530,-2,-48,1005,-18,-28,-12
1531,117,-54,1007,-13,-22,-13
1532,156,-32,1009,-7,-3,-8
1533,64,0,1004,-7,22,-4
1534,-77,13,1006,-12,31,1
1535,-167,18,969,-19,17,2
1536,-145,-6,990,-21,-8,-5
1537,-14,-30,965,-17,-31,-13
1538,701,431,499,-38,-7,-19
1539,159,-296,1750,-60,89,-53
1540,-138,284,553,-69,44,82
1541,-285,-516,712,-99,91,-24
1542,-1041,-112,698,65,12,-83
1543,1,-156,1347,26,-125,-72
1544,168,-249,916,37,-88,-51
1545,304,297,953,49,-51,7
1546,790,152,1264,-3,-14,-44
1547,-76,192,996,-30,106,18
1548,-224,75,737,-83,68,50
1549,-400,-131,1309,-53,32,-22
1550,-327,-246,688,-46,-17,-18
1551,5,-254,980,7,-62,-19
1552,256,-76,1191,45,-62,-28
1553,258,26,913,33,-5,-12
1554,124,204,1018,23,31,6
1555,-169,171,1104,-19,42,8
1556,-194,56,887,-52,22,-3
1557,-194,-121,1006,-45,-18,-2
1558,-26,-155,995,-27,-49,-12
1559,192,-184,996,-1,-39,-26
1560,146,-51,993,25,-9,-3
1561,85,70,1042,19,20,-1
1562,-43,100,998,0,35,-6
1563,-175,96,962,-20,21,6
1564,-131,17,1016,-32,-10,-8
1565,-43,-91,1002,-32,-28,-16
1566,82,-89,963,-19,-28,-8
1567,139,-88,1036,-7,-8,-12
1568,93,-26,1006,-2,18,-4
1569,-7,49,971,-4,30,1
1570,-117,70,1002,-15,23,-2
1571,-147,20,993,-27,4,-5
1572,-101,-38,974,-29,-16,-7
1573,27,-85,1012,-22,-29,-13
1574,118,-99,1001,-13,-15,-14
1575,133,-46,998,1,7,-7
1576,30,17,1007,0,24,-1
1577,-98,51,1003,-8,25,1
1578,-164,35,972,-20,9,-2
1579,-122,4,992,-27,-14,-6
1580,14,-63,1011,-27,-29,-13
1581,115,-85,997,-17,-19,-14
1582,144,-58,1003,-6,1,-7
1583,48,-12,1011,-2,23,-3
1584,-81,22,999,-6,29,1
1585,-170,36,973,-15,14,-1
1586,-128,15,991,-20,-10,-8
1587,-4,-42,1003,-23,-27,-13
1588,108,-61,1001,-18,-23,-13
1589,152,-57,1013,-11,-2,-9
1590,62,-22,1000,-5,20,-3
1591,-72,4,998,-8,30,1
1592,-159,22,982,-14,18,-1
1593,-142,7,994,-20,-6,-4
1594,-24,-29,992,-20,-26,-13
1595,98,-48,1003,-17,-27,-14
1596,159,-43,1004,-12,-9,-11
1597,74,-22,1011,-9,20,-3
1598,-47,1,1002,-12,31,3
1599,-157,11,978,-14,22,1
1600,-149,2,986,-17,-4,-5
1601,-54,-35,997,-18,-25,-12
1602,94,-39,999,-15,-28,-15
1603,156,-45,1007,-11,-10,-10
1604,99,-14,1003,-10,16,-5
1605,-32,5,1007,-11,30,1
1606,-151,13,976,-16,23,1
1607,-165,-5,993,-20,-1,-3
1608,-68,-40,990,-17,-23,-11
1609,78,-45,1009,-15,-28,-14
1610,157,-38,1005,-9,-14,-12
1611,111,-16,1006,-7,12,-4
1612,-11,13,998,-11,28,0
1613,-147,20,990,-17,26,2
1614,-163,-8,987,-21,4,-4
1615,-93,-38,986,-20,-21,-10
1616,65,-44,1006,-14,-32,-13
1617,153,-49,1013,-10,-17,-13
1618,123,-17,999,-9,10,-4
1619,11,10,1000,-10,27,0
1620,-136,23,988,-16,27,3
1621,-168,-1,988,-21,5,-3
1622,-105,-31,983,-22,-18,-9
1623,48,-50,1004,-16,-31,-15
1624,141,-56,1016,-10,-18,-13
1625,135,-23,1008,-7,7,-5
1626,29,14,994,-8,27,-1
1627,-120,25,991,-13,29,4
1628,-177,6,986,-19,9,-1
1629,-117,-22,986,-22,-15,-10
1630,29,-52,1007,-18,-30,-13
1631,131,-58,1008,-11,-21,-15
1632,149,-28,1008,-5,2,-8
1633,41,3,1002,-7,27,-1
1634,-106,20,998,-13,31,3
1635,-164,31,940,-28,11,1
1636,389,397,584,-57,12,-7
1637,13,-223,1723,-67,43,-44
1638,-140,134,516,-79,7,60
1639,-214,-559,770,-62,46,-51
1640,-707,-145,911,61,-18,-51
1641,322,-142,1282,24,-91,-36
1642,118,-31,801,50,-19,-31
1643,212,388,1075,29,-26,30
1644,311,190,1220,-28,8,-30
1645,-190,71,857,-68,59,17
1646,-174,-61,888,-77,19,27
1647,-104,-254,1209,-44,-1,-42
1648,-66,-289,735,-16,-16,2
1649,69,-53,1069,39,-30,-8
1650,60,38,1115,28,-14,-17
1651,27,143,916,16,10,-1
1652,-53,157,1023,-16,11,3
1653,-23,33,1069,-36,0,-13
1654,16,-98,909,-45,-3,-6
1655,-36,-123,1017,-23,-10,-2
1656,-5,-109,1013,-9,-13,-10
1657,-11,-56,978,8,-1,-8
1658,-53,35,986,4,0,3
1659,35,64,1047,-2,-5,-13
1660,56,23,975,-16,-3,-8
1661,5,21,985,-19,0,-1
1662,4,-38,1035,-24,-1,-10
1663,-59,-66,968,-22,7,-4
1664,-83,-48,977,-12,4,1
1665,-29,-47,1027,-7,-5,-11
1666,37,-12,992,-5,-8,-7
1667,66,25,989,-5,-7,-9
1668,48,23,1023,-14,2,-9
1669,0,9,992,-21,12,-4
1670,-84,-10,978,-27,16,0
1671,-86,-54,1019,-24,5,-5
1672,-53,-70,975,-18,-6,-7
1673,39,-41,994,-8,-14,-10
1674,86,-16,1022,-4,-9,-12
1675,76,11,999,-7,9,-8
1676,3,23,983,-14,22,-4
1677,-81,-7,1003,-19,22,0
1678,-113,-65,992,-17,8,-5
1679,-101,-70,967,-10,-8,-6
1680,7,-29,1006,1,-20,-11
1681,87,-3,1019,0,-16,-13
1682,103,37,1005,-6,2,-7
1683,46,41,1002,-16,18,-5
1684,-70,9,998,-25,23,0
1685,-138,-38,981,-29,10,0
1686,-124,-65,980,-23,-7,-6
1687,0,-75,1003,-22,-21,-10
1688,95,-54,1004,-5,-18,-12
1689,131,1,1005,1,-2,-9
1690,60,38,1012,-8,19,-4
1691,-74,42,1004,-18,26,1
1692,-148,5,978,-26,13,-2
1693,-128,-39,981,-27,-8,-6
1694,-6,-74,1002,-20,-24,-12
1695,94,-77,1004,-10,-20,-12
1696,142,-29,1008,-2,-3,-9
1697,62,18,1003,-3,19,-3
1698,-69,41,1006,-10,28,2
1699,-154,29,980,-20,16,0
1700,-133,-10,978,-27,-8,-7
1701,-22,-64,1003,-23,-25,-12
1702,99,-76,1002,-15,-23,-13
1703,150,-49,1006,-8,-5,-10
1704,71,-4,1006,-2,19,-3
1705,-59,24,1009,-9,30,1
1706,-153,32,976,-17,18,0
1707,-144,4,991,-23,-4,-6
1708,-33,-46,994,-23,-26,-12
1709,92,-66,1002,-17,-27,-14
1710,158,-56,1002,-10,-9,-11
1711,80,-21,1012,-6,19,-3
1712,-42,16,1004,-9,29,0
1713,-153,25,978,-16,23,0
1714,-151,7,992,-21,-2,-5
1715,-54,-36,996,-20,-25,-13
1716,88,-52,998,-16,-27,-14
1717,153,-52,1004,-10,-10,-12
1718,95,-23,1006,-9,16,-4
1719,-26,7,1005,-10,29,1
1720,-110,-93,892,-14,25,1
1721,17,-789,587,65,36,-19
1722,72,366,1766,172,-33,57
1723,-172,255,829,-8,15,0
1724,-217,193,531,16,37,-131
1725,111,508,1114,-21,-52,-55
1726,121,80,1223,-133,6,-8
1727,-50,-128,914,-100,1,-8
1728,43,-454,904,-78,-17,14
1729,-115,-452,1116,1,13,-29
1730,-32,-236,863,51,1,0
1731,41,114,1024,86,7,-16
1732,52,269,1120,43,5,-2
1733,59,310,917,1,6,4
1734,-44,216,997,-49,12,-12
1735,-127,11,1055,-84,-2,-4
1736,-80,-224,983,-78,-10,-10
1737,-24,-326,926,-38,-11,-7
1738,79,-224,1026,11,-13,-11
1739,142,-37,1027,40,-2,-12
1740,38,154,973,34,19,3
1741,-81,246,1020,-2,22,3
1742,-127,139,1004,-42,10,-5
1743,-141,12,963,-65,-6,1
1744,-6,-159,1020,-58,-27,-11
1745,106,-232,998,-29,-24,-14
1746,136,-152,969,3,-4,-6
1747,49,0,1023,18,17,-4
1748,-70,99,1015,8,27,1
1749,-154,139,968,-15,17,1
1750,-130,83,992,-38,-9,-5
1751,-2,-34,1022,-49,-30,-11
1752,96,-126,991,-40,-25,-11
1753,139,-126,1000,-22,-6,-10
1754,58,-75,1008,-8,18,-6
1755,-67,9,996,-2,29,1
1756,-150,67,977,-10,15,-1
1757,-120,65,995,-22,-8,-6
1758,-14,8,1005,-31,-28,-11
1759,93,-47,1006,-35,-26,-13
1760,141,-76,1007,-27,-8,-10
1761,62,-65,995,-18,17,-3
1762,-60,-29,997,-14,28,1
1763,-143,7,982,-14,18,0
1764,-128,23,986,-17,-5,-4
1765,-28,1,1000,-19,-25,-10
1766,93,-12,1008,-21,-26,-11
1767,142,-49,1000,-22,-8,-8
1768,70,-52,997,-18,18,-3
1769,-38,-40,1008,-15,28,0
1770,-146,-12,967,-13,20,-1
1771,-146,-2,991,-11,-2,-5
1772,-51,-7,1000,-13,-23,-12
1773,80,-11,1004,-12,-26,-13
1774,151,-16,1001,-14,-11,-11
1775,92,-18,1013,-16,14,-4
1776,-24,-13,1003,-16,27,0
1777,-144,-8,976,-19,23,2
1778,-158,-23,985,-17,1,-4
1779,-73,-37,993,-14,-22,-11
1780,70,-28,1011,-10,-27,-12
1781,155,-22,1006,-10,-14,-13
1782,112,-5,1005,-9,11,-5
1783,-6,7,998,-16,27,-1
1784,-137,9,994,-20,26,2
1785,-162,-26,984,-22,5,-5
1786,-92,-45,985,-18,-19,-10
1787,63,-49,1008,-12,-30,-13
1788,147,-39,1008,-7,-15,-12
1789,125,-8,1006,-7,11,-4
1790,11,19,1001,-12,28,0
1791,-128,28,985,-20,28,3
1792,-165,-11,991,-23,7,-2
1793,-112,-40,980,-22,-17,-9
1794,49,-57,1006,-15,-29,-13
1795,139,-55,1009,-9,-20,-14
1796,135,-19,1011,-6,5,-7
1797,29,18,995,-8,26,-2
1798,-119,32,988,-16,28,2
1799,-171,4,987,-22,8,-2
1800,-124,-24,985,-24,-13,-7
1801,30,-56,1002,-19,-31,-12
1802,124,-68,1009,-11,-21,-13
1803,146,-31,1002,-5,2,-7
1804,44,8,1004,-7,24,-1
1805,-104,30,997,-14,30,1
1806,-172,15,980,-20,12,-1
1807,-129,-15,980,-24,-12,-7
1808,8,-54,1007,-20,-29,-13
1809,122,-63,1006,-13,-24,-15
1810,154,-40,1010,-8,-2,-8
1811,60,-1,1005,-6,22,-2
1812,-86,17,1007,-11,30,2
1813,-170,18,972,-18,15,0
1814,-138,-1,983,-20,-9,-6
1815,-6,-45,1004,-19,-28,-13
1816,109,-56,1006,-15,-23,-13
1817,160,-42,1008,-10,-4,-9
1818,68,-10,1007,-7,21,-2
1819,-65,13,1004,-9,30,2
1820,-167,15,974,-18,18,0
1821,-148,0,988,-20,-6,-6
1822,-28,-47,999,-20,-26,-11
1823,101,-51,999,-14,-26,-13
1824,161,-46,1009,-8,-8,-10
1825,82,-11,1012,-8,18,-4
1826,-49,9,1002,-12,31,3
1827,-159,18,979,-16,22,1
1828,-156,-2,988,-21,-4,-4
1829,-48,-43,994,-20,-26,-12
1830,93,-53,1001,-15,-29,-13
1831,163,-43,1006,-9,-12,-12
1832,107,-41,993,-8,17,-5
1833,237,-948,349,33,57,-14
1834,43,238,1596,266,35,81
1835,-232,637,1159,-7,19,69
1836,-503,-88,227,-47,110,-133
1837,-414,399,738,75,-47,-127
1838,293,685,1499,-109,-125,-26
1839,143,-278,964,-182,-16,-16
1840,237,-205,961,-94,-38,42
1841,282,-580,1013,-78,6,14
1842,-205,-512,1028,27,72,-28
1843,-176,-117,789,80,32,14
1844,-172,204,1220,96,9,-15
1845,-32,281,921,42,-22,9
1846,101,343,963,-7,-22,6
1847,116,249,1045,-61,-17,-13
1848,62,17,1068,-97,6,-4
1849,-6,-272,965,-88,17,-8
1850,-174,-364,940,-42,19,-1
1851,-70,-263,980,14,-6,-8
1852,12,-66,1021,49,-17,-14
1853,80,174,979,44,-13,0
1854,109,270,1058,7,2,-6
1855,4,202,985,-40,19,1
1856,-127,45,995,-73,19,6
1857,-135,-146,1008,-74,-2,-6
1858,-60,-256,959,-45,-20,-7
1859,54,-204,976,-4,-25,-10
1860,126,-43,1038,22,-13,-11
1861,97,110,1006,16,10,-3
1862,-38,180,1006,-12,27,3
1863,-137,123,999,-45,17,1
1864,-136,-3,990,-62,-4,-4
1865,-41,-134,980,-56,-27,-9
1866,66,-177,997,-31,-28,-14
1867,144,-119,1003,-8,-11,-13
1868,53,-12,1003,2,17,-14
1869,-61,35,988,0,27,-11
1870,-103,96,997,-12,10,2
1871,-111,52,985,-29,-4,-6
1872,-6,-42,1003,-35,-23,-11
1873,83,-94,1006,-26,-22,-12
1874,110,-98,988,-16,-4,-11
1875,60,-54,1005,-5,15,-5
1876,-50,3,1010,0,27,0
1877,-136,45,967,-8,18,-1
1878,-121,50,1009,-15,-4,-5
1879,-33,-4,999,-24,-22,-9
1880,82,-42,993,-24,-23,-12
1881,138,-64,1011,-18,-9,-10
1882,73,-50,1003,-14,16,-4
1883,-35,-20,999,-9,28,0
1884,-146,13,982,-10,19,1
1885,-139,21,993,-14,-3,-5
1886,-52,-8,992,-18,-22,-11
1887,79,-19,1004,-15,-26,-13
1888,148,-42,1009,-16,-12,-12
1889,90,-36,1002,-14,15,-6
1890,-24,-15,1001,-11,27,-1
1891,-142,5,979,-16,22,0
1892,-155,-2,996,-14,1,-5
1893,-75,-27,995,-17,-20,-11
1894,74,-28,1007,-15,-29,-13
1895,149,-36,1003,-12,-14,-12
1896,107,-21,1004,-11,11,-5
1897,-6,-3,999,-13,27,0
1898,-138,7,990,-15,26,2
1899,-160,-12,992,-18,4,-4
1900,-93,-33,982,-18,-19,-10
1901,59,-39,1006,-13,-30,-13
1902,144,-42,1016,-10,-16,-12
1903,123,-20,1005,-9,9,-4
1904,15,7,992,-11,27,-1
1905,-125,15,991,-17,27,2
1906,-168,-5,988,-20,7,-3
1907,-109,-33,983,-20,-16,-10
1908,44,-46,1003,-14,-30,-13
1909,132,-49,1014,-9,-18,-13
1910,138,-19,1009,-6,5,-6
1911,29,8,995,-9,25,0
1912,-115,21,993,-15,28,3
1913,-168,-2,984,-21,11,-3
1914,-123,-24,981,-23,-13,-7
1915,28,-53,1007,-17,-30,-13
1916,120,-58,1008,-10,-22,-14
1917,147,-26,1004,-4,1,-8
1918,47,7,1007,-7,24,-1
1919,-94,22,999,-12,30,2
1920,-168,9,975,-19,13,0
1921,-133,-14,979,-22,-10,-6
1922,5,-51,1008,-19,-29,-12
1923,112,-59,1008,-13,-22,-13
1924,156,-31,1006,-7,-3,-8
1925,64,-2,1010,-8,21,-3
1926,-79,20,1003,-11,30,3
1927,-161,16,975,-19,15,0
1928,-143,-7,986,-22,-8,-6
1929,-14,-52,998,-19,-28,-13
1930,106,-59,1004,-15,-24,-14
1931,158,-39,1006,-10,-6,-9
1932,70,-7,1010,-6,20,-2
1933,-56,15,1006,-10,30,2
1934,-164,20,973,-19,20,0
1935,-147,-3,994,-21,-4,-6
1936,-42,-47,990,-22,-28,-11
1937,96,-52,999,-15,-27,-13
1938,157,-48,1006,-8,-8,-11
1939,89,-12,1010,-8,18,-3
1940,-39,13,999,-12,30,2
1941,-157,22,981,-15,23,2
1942,38,-535,562,-19,8,-13
1943,318,-815,654,310,33,39
1944,144,1400,1617,143,-56,212
1945,-261,-440,95,-215,165,-59
1946,-488,-121,64,35,132,-98
1947,-684,902,1128,83,-110,-21
1948,530,477,1483,-133,-178,-89
1949,-19,-202,902,-184,1,-54
1950,339,-373,849,-108,-65,87
1951,244,-499,1290,-49,5,5
1952,13,-602,679,4,59,-37
1953,-81,-119,1101,107,50,15
1954,-187,213,1068,98,31,-2
1955,-135,335,931,48,7,-1
1956,-10,321,967,3,-24,-10
1957,-103,352,1025,-66,-27,3
1958,90,10,1055,-112,-30,-6
1959,110,-260,1031,-97,-10,-10
1960,114,-438,904,-58,11,1
1961,23,-307,1020,19,21,-6
1962,-108,-74,958,53,20,-1
1963,-127,181,1010,52,8,-1
1964,-93,262,1010,12,-7,-3
1965,-14,234,1006,-36,-18,-1
1966,84,51,1025,-70,-19,-9
1967,98,-126,1017,-72,-6,-8
1968,54,-225,961,-49,8,-4
1969,-78,-197,984,-12,18,-2
1970,-129,-71,989,10,11,-2
1971,-104,70,991,13,-4,-4
1972,0,133,1010,-5,-21,-8
1973,83,112,1026,-30,-21,-9
1974,129,30,1010,-48,-6,-8
1975,34,-65,992,-54,13,-2
1976,-64,-119,1002,-42,18,-1
1977,-137,-126,968,-27,10,-1
1978,-116,-62,965,-8,-7,-5
1979,-8,-5,1016,-3,-23,-12
1980,89,41,1013,-7,-23,-13
1981,127,65,1015,-18,-6,-11
1982,43,10,1003,-30,18,-17
1983,-53,-45,998,-33,22,-2
1984,-114,-64,971,-28,14,-1
1985,-121,-86,989,-18,-3,-8
1986,-21,-60,990,-5,-22,-11
1987,73,-12,1006,1,-19,-13
1988,124,30,1007,-2,-6,-11
1989,73,48,1021,-13,14,-4
1990,-37,25,1001,-24,25,0
1991,-130,-9,977,-30,17,0
1992,-129,-60,997,-26,-4,-6
1993,-61,-87,978,-16,-22,-12
1994,72,-58,1002,-4,-22,-13
1995,138,-21,1009,0,-8,-12
1996,89,30,1000,-4,14,-5
1997,-17,53,1013,-13,25,0
1998,-132,34,989,-24,20,1
1999,-145,-19,982,-29,-1,-3
2000,-76,-78,986,-25,-21,-11
2001,62,-79,1006,-13,-27,-13
2002,140,-57,1004,-5,-14,-13
2003,106,-3,1004,1,10,-5
2004,0,41,1004,-7,25,-1
2005,-127,48,995,-20,24,3
2006,-155,6,993,-27,5,-2
2007,-92,-48,981,-29,-19,-9
2008,52,-74,1002,-18,-27,-13
2009,140,-73,1009,-9,-16,-13
2010,119,-28,1005,-3,9,-5
2011,15,21,994,-5,27,-2
2012,-124,48,995,-13,27,2
2013,-163,12,989,-23,7,-3
2014,-106,-23,982,-24,-15,-9
2015,47,-56,1009,-19,-29,-14
2016,128,-73,1009,-12,-17,-13
2017,136,-39,1006,-5,4,-8
2018,28,5,997,-5,25,-2
2019,-111,30,995,-13,28,3
2020,-169,18,981,-19,9,-1
2021,-118,-5,988,-23,-14,-7
2022,25,-47,1007,-20,-30,-13
2023,120,-65,1006,-14,-21,-13
2024,148,-37,1004,-7,0,-8
2025,45,-5,1006,-8,24,-2
2026,-95,19,1000,-12,29,2
2027,-171,16,975,-18,13,-1
2028,-131,-3,979,-22,-12,-6
2029,0,-43,1009,-19,-29,-13
2030,114,-57,1010,-14,-22,-14
2031,154,-40,1007,-10,-1,-9
2032,59,-6,1008,-12,23,-1
2033,-80,11,999,-16,34,4
2034,-166,18,972,-17,20,0
2035,-143,-4,991,-21,-7,-6
2036,-18,-44,1000,-19,-28,-13
2037,105,-56,1002,-14,-26,-14
2038,156,-39,1007,-8,-8,-11
2039,75,-9,1009,-7,20,-4
2040,-55,10,1006,-10,29,2
2041,-161,17,976,-17,21,1
2042,-147,-1,994,-19,-4,-6
2043,-38,-47,992,-19,-26,-11
2044,91,-48,999,-14,-26,-13
2045,159,-43,1007,-9,-9,-11
2046,87,-16,1007,-7,18,-3
2047,-38,14,1002,-11,29,2
2048,-153,18,982,-15,22,2
2049,-158,-3,984,-21,0,-4
2050,-59,-39,997,-20,-23,-11
2051,81,-51,1009,-14,-28,-13
2052,154,-48,1000,-10,-12,-12
2053,240,-358,777,-7,18,-8
2054,398,-1072,483,212,86,31
2055,2,1436,1765,220,-2,193
2056,-426,-92,366,-167,157,-50
2057,-475,-95,149,1,134,-130
2058,-892,642,766,88,-68,-56
2059,351,638,1647,-120,-233,-87
2060,272,-246,1124,-205,-59,-76
2061,365,-403,756,-113,-39,63
2062,434,-495,1214,-59,-7,30
2063,-110,-581,828,9,87,-24
2064,-176,-171,1003,97,56,8
2065,-267,187,1081,106,29,6
2066,-201,331,916,54,-5,14
2067,97,341,1008,2,-50,-8
2068,126,371,1004,-55,-35,-12
2069,140,56,1061,-115,-7,2
2070,36,-213,1061,-104,14,-6
2071,-118,-439,865,-71,29,2
2072,-113,-370,1007,6,8,-6
2073,-66,-142,980,54,-12,-9
2074,74,154,997,63,-17,-8
2075,109,304,1053,24,-8,-5
2076,30,291,1008,-29,13,2
2077,-65,111,999,-78,17,0
2078,-149,-119,1003,-89,7,1
2079,-74,-282,960,-63,-15,-5
2080,6,-291,970,-16,-23,-12
2081,110,-106,1010,25,-18,-11
2082,107,84,1024,28,4,-9
2083,1,197,1012,5,22,1
2084,-107,184,997,-36,19,4
2085,-128,47,1000,-62,1,-3
2086,-75,-120,978,-64,-20,-5
2087,45,-199,988,-41,-28,-14
2088,128,-174,999,-10,-16,-15
2089,71,-57,997,11,12,-12
2090,-23,36,1000,11,25,-8
2091,-95,116,1006,-1,16,3
2092,-121,95,993,-25,1,-5
2093,-44,-9,999,-37,-20,-11
2094,57,-74,997,-33,-24,-11
2095,121,-120,995,-21,-10,-13
2096,74,-89,1005,-9,11,-5
2097,-16,-23,1005,0,26,-1
2098,-124,45,981,-2,21,0
2099,-131,61,1005,-11,0,-3
2100,-61,22,999,-25,-19,-10
2101,59,-25,998,-28,-26,-12
2102,139,-66,1006,-21,-14,-12
2103,93,-70,1001,-17,12,-6
2104,-13,-37,996,-9,26,-1
2105,-132,4,985,-8,23,1
2106,-151,19,992,-10,4,-4
2107,-79,5,993,-16,-18,-10
2108,62,-7,1013,-19,-27,-13
2109,141,-36,1004,-19,-15,-13
2110,113,-38,1003,-15,10,-6
2111,-2,-25,991,-15,27,0
2112,-132,-5,992,-16,26,2
2113,-157,-14,992,-16,5,-2
2114,-95,-17,983,-16,-18,-9
2115,55,-20,1011,-13,-28,-14
2116,142,-32,1012,-12,-17,-13
2117,122,-21,1005,-11,8,-5
2118,19,-3,995,-15,26,-1
2119,-125,1,990,-17,28,2
2120,-163,-15,982,-19,7,-2
2121,-115,-30,984,-18,-15,-8
2122,43,-39,1005,-13,-29,-14
2123,126,-41,1014,-11,-19,-13
2124,139,-14,1005,-9,5,-6
2125,32,6,997,-11,26,-1
2126,-108,14,988,-17,29,2
2127,-169,-10,984,-19,10,-2
2128,-121,-27,984,-20,-13,-8
2129,23,-51,1005,-17,-28,-12
2130,119,-49,1009,-8,-22,-14
2131,147,-21,1006,-6,1,-7
2132,47,11,1005,-8,25,-2
2133,-98,21,1000,-16,29,3
2134,-165,4,978,-21,14,-3
2135,-131,-21,979,-22,-12,-6
2136,7,-57,1004,-17,-30,-14
2137,112,-57,1009,-12,-22,-13
2138,155,-27,1007,-6,-2,-8
2139,58,5,1005,-9,23,-3
2140,-80,25,1005,-14,30,3
2141,-165,11,973,-22,15,-1
2142,-142,-11,980,-22,-8,-6
2143,-11,-56,1007,-20,-27,-13
2144,104,-62,1001,-13,-24,-13
2145,162,-36,1008,-5,-4,-9
2146,71,-3,1008,-5,20,-2
2147,-60,20,1008,-11,29,3
2148,-160,19,974,-19,19,1
2149,-150,-3,991,-23,-7,-4
2150,-29,-49,992,-21,-28,-12
2151,96,-58,999,-13,-26,-13
2152,159,-45,1005,-9,-8,-10
2153,82,-16,1014,-7,19,-3
2154,-45,11,1001,-11,30,1
2155,-68,-213,842,-17,25,-2
2156,285,-1189,309,188,56,13
2157,121,1460,1774,275,-54,199
2158,-329,-224,278,-218,129,-22
2159,-404,-155,71,3,139,-119
2160,-757,662,878,106,-79,-43
2161,546,709,1641,-117,-202,-81
2162,125,-221,927,-202,-3,-77
2163,262,-337,839,-116,-44,75
2164,250,-462,1258,-75,-7,23
2165,-107,-654,758,-4,64,-46
2166,-66,-170,986,94,35,9
2167,-152,198,1140,105,22,-2
2168,-89,323,907,51,2,2
2169,54,371,988,0,-21,-7
2170,-55,356,1034,-62,-18,-2
2171,18,4,1052,-119,-17,-4
2172,38,-267,1012,-101,-7,-9
2173,31,-454,901,-58,5,-2
2174,42,-318,1023,14,6,-8
2175,-12,-69,976,56,9,-6
2176,-68,219,991,48,9,2
2177,-75,292,1048,4,0,-3
2178,-80,242,989,-47,-8,-1
2179,20,29,1015,-84,-17,-6
2180,48,-182,1016,-79,-14,-9
2181,87,-271,964,-48,-5,-8
2182,21,-204,970,-8,8,-5
2183,-74,-37,1006,17,15,0
2184,-93,100,998,11,9,-2
2185,-87,158,996,-10,-4,-3
2186,12,106,1019,-37,-19,-8
2187,82,-22,1018,-51,-18,-15
2188,70,-144,966,-46,-1,-16
2189,44,-158,991,-22,9,-4
2190,-46,-95,1002,-3,19,0
2191,-114,-17,970,7,14,-5
2192,-91,70,1000,5,-4,-3
2193,-18,77,1021,-9,-17,-10
2194,69,37,1002,-24,-17,-12
2195,126,-18,1018,-30,-7,-9
2196,54,-62,992,-31,15,-4
2197,-48,-82,996,-22,23,0
2198,-133,-60,982,-12,16,-2
2199,-129,-19,971,-5,-3,-4
2200,-21,3,1010,-3,-22,-13
2201,79,15,1016,-8,-20,-12
2202,142,21,1004,-16,-7,-9
2203,73,0,1009,-21,15,-3
2204,-44,-19,1002,-23,26,2
2205,-141,-43,971,-24,18,0
2206,-144,-51,981,-18,-2,-5
2207,-50,-53,994,-9,-23,-11
2208,82,-21,999,-3,-26,-14
2209,143,7,1010,-4,-11,-10
2210,88,29,1016,-12,14,-5
2211,-31,17,1010,-21,28,0
2212,-139,0,971,-25,21,1
2213,-152,-45,986,-25,-2,-4
2214,-62,-72,987,-17,-23,-12
2215,71,-59,1005,-8,-26,-13
2216,151,-24,1006,-2,-12,-13
2217,101,14,1010,-5,15,-4
2218,-13,34,1008,-13,28,-1
2219,-140,25,983,-22,23,3
2220,-153,-19,987,-25,2,-4
2221,-82,-68,992,-24,-20,-10
2222,69,-69,1004,-15,-28,-14
2223,146,-52,1002,-5,-15,-13
2224,113,-7,1004,-3,11,-5
2225,-4,32,1004,-9,27,1
2226,-130,41,991,-19,28,2
2227,-161,3,991,-25,4,-3
2228,-97,-45,985,-25,-18,-12
2229,59,-65,1007,-18,-30,-13
2230,142,-65,1004,-9,-17,-13
2231,123,-28,1011,-6,10,-6
2232,14,19,998,-6,27,0
2233,-126,42,989,-16,28,3
2234,-165,14,991,-23,6,-2
2235,-111,-22,988,-25,-18,-8
2236,44,-58,999,-21,-30,-13
2237,130,-73,1012,-13,-18,-13
2238,137,-36,1005,-5,5,-5
2239,30,7,994,-6,26,-3
2240,-114,32,992,-11,28,2
2241,-171,19,983,-19,10,-2
2242,-121,-9,984,-24,-14,-8
2243,25,-49,1010,-20,-30,-14
2244,124,-64,1006,-14,-21,-14
2245,144,-40,1004,-6,2,-8
2246,49,-2,1003,-7,24,-2
2247,-99,20,1001,-13,30,3
2248,-168,15,974,-18,13,-2
2249,-127,-3,987,-21,-12,-8
2250,9,-41,1008,-18,-30,-13
2251,116,-59,1007,-16,-23,-14
2252,157,-39,1011,-9,-2,-9
2253,54,-9,1001,-10,23,-2
2254,-79,15,1004,-12,31,1
2255,-166,10,975,-17,15,-1
2256,-141,-2,982,-20,-8,-6
2257,-9,-45,1004,-20,-28,-14
2258,102,-51,1006,-15,-23,-13
2259,164,-37,1004,-12,-4,-9
2260,69,-9,1009,-8,22,-3
2261,-65,11,1002,-12,31,2
2262,-164,13,975,-18,18,1
2263,-151,-7,992,-20,-5,-5
2264,-32,-45,992,-18,-26,-12
2265,98,-48,1001,-13,-27,-13
2266,161,-40,1004,-9,-8,-10
2267,82,-7,1013,-9,19,-2
2268,-29,-14,1000,-12,31,1
2269,261,-1176,141,39,54,-7
2270,149,525,1624,350,6,145
2271,-269,743,1056,-72,40,99
2272,-339,-181,186,-122,163,-130
2273,-721,77,275,45,25,-82
2274,-145,935,1535,-15,-193,-32
2275,538,-114,1348,-189,-119,-81
2276,86,-328,716,-123,-4,8
2277,535,-405,1076,-72,-47,43
2278,-105,-589,1104,-9,68,-26
2279,-60,-246,719,66,51,-10
2280,-191,133,1208,104,37,4
2281,-184,291,937,52,9,6
2282,32,357,952,3,-28,-7
2283,75,294,1029,-46,-29,-18
2284,14,75,1092,-102,-12,3
2285,64,-233,988,-95,-2,-17
2286,-74,-392,921,-54,16,-2
2287,-5,-303,994,6,5,-9
2288,10,-113,1018,47,2,-13
2289,4,160,949,50,0,-3
2290,-4,288,1056,12,-1,-6
2291,-38,209,1011,-36,2,-7
2292,-90,63,980,-72,1,4
2293,-11,-154,1022,-71,-10,-10
2294,29,-272,978,-43,-11,-12
2295,69,-202,959,-2,-7,-8
2296,33,-42,1025,23,5,-10
2297,-30,108,1002,18,14,-2
2298,-92,163,994,-8,13,0
2299,-98,123,1008,-37,-2,-4
2300,0,-12,1015,-53,-17,-9
2301,52,-131,979,-48,-18,-12
2302,97,-148,998,-25,-10,-10
2303,57,-102,999,-8,9,-8
2304,-53,-7,995,3,22,0
2305,-114,69,987,-3,14,-1
2306,-100,76,996,-16,-5,-3
2307,-1,33,1002,-28,-22,-2
2308,72,-37,1015,-35,-19,-7
2309,113,-77,999,-31,-6,-7
2310,46,-78,989,-20,14,0
2311,-57,-39,1002,-12,22,2
2312,-131,-15,976,-10,14,0
2313,-116,11,980,-9,-4,-4
2314,-26,-1,1009,-14,-21,-9
2315,82,-7,1008,-15,-21,-12
2316,132,-21,1005,-17,-5,-9
2317,65,-21,1003,-16,17,-2
2318,-43,-26,1005,-18,27,1
2319,-144,-17,970,-17,19,-1
2320,-140,-18,991,-15,-3,-4
2321,-43,-29,998,-13,-23,-12
2322,76,-24,995,-12,-25,-13
2323,149,-14,1007,-9,-10,-12
2324,86,-3,1018,-13,15,-5
2325,-26,3,1001,-15,28,-1
2326,-143,-2,974,-20,22,1
2327,-151,-23,989,-21,0,-4
2328,-65,-52,997,-20,-22,-10
2329,75,-40,1004,-10,-27,-13
2330,151,-32,1008,-8,-13,-12
2331,103,0,1006,-8,14,-5
2332,-13,18,1006,-13,27,-1
2333,-135,19,987,-21,24,1
2334,-157,-14,986,-24,2,-3
2335,-84,-52,994,-21,-20,-10
2336,63,-55,1002,-14,-29,-13
2337,144,-47,1005,-8,-15,-13
2338,115,-10,1007,-5,10,-5
2339,0,25,998,-10,28,-1
2340,-128,35,987,-18,28,2
2341,-165,-1,996,-24,5,-1
2342,-99,-38,977,-23,-19,-9
2343,56,-63,1005,-17,-30,-14
2344,136,-59,1008,-8,-17,-14
2345,128,-23,1008,-4,8,-7
2346,16,16,996,-7,26,-1
2347,-117,38,983,-15,27,3
2348,-166,10,996,-22,8,-1
2349,-114,-22,986,-24,-16,-8
2350,39,-58,1000,-19,-29,-14
2351,126,-67,1012,-11,-20,-15
2352,138,-32,1006,-5,3,-6
2353,35,8,998,-7,25,-2
2354,-106,28,993,-14,29,2
2355,-168,13,984,-20,11,-2
2356,-120,-13,984,-23,-13,-8
2357,19,-52,1004,-20,-30,-14
2358,119,-66,1010,-14,-22,-13
2359,150,-38,1004,-7,0,-7
2360,51,-2,1003,-6,24,0
2361,-91,20,1008,-12,28,3
2362,-167,15,970,-19,13,-1
2363,-132,-8,982,-22,-12,-6
2364,4,-50,1009,-18,-30,-13
2365,110,-57,1006,-14,-24,-14
2366,156,-34,1006,-9,-3,-9
2367,59,-6,1006,-11,22,-2
2368,-74,17,1002,-13,29,1
2369,-165,13,972,-19,16,1
2370,-144,-3,986,-23,-7,-5
2371,-15,-48,996,-19,-28,-12
2372,99,-53,1001,-13,-25,-13
2373,159,-36,1009,-9,-8,-9
2374,72,-9,1012,-6,18,-2
2375,-55,15,1000,-12,31,1
2376,-160,20,978,-17,20,1
2377,-148,-2,990,-22,-5,-5
2378,-41,-45,994,-20,-26,-12
2379,92,-51,999,-14,-27,-13
2380,157,-46,1007,-8,-9,-12
2381,89,-11,1009,-9,17,-4
2382,-36,16,1005,-11,31,2
2383,-93,-114,880,-19,25,1
2384,382,-1367,221,154,50,14
2385,155,1377,1828,335,-42,229
2386,-317,46,485,-219,115,28
2387,-263,-242,48,-75,168,-105
2388,-933,313,528,71,-9,-8
2389,128,805,1642,-29,-241,-19
2390,375,-67,1257,-174,-78,-91
2391,126,-400,681,-124,-21,34
2392,489,-340,1201,-47,-46,41
2393,-41,-565,950,-20,64,-26
2394,3,-231,864,74,52,-4
2395,-203,127,1144,94,47,12
2396,-195,274,920,49,14,11
2397,4,335,977,13,-23,-8
2398,-49,313,1013,-49,-27,-4
2399,-7,62,1059,-102,-27,4
2400,117,-204,1034,-91,-15,-16
2401,39,-405,911,-63,10,1
2402,60,-281,1021,7,13,-5
2403,-26,-110,993,41,16,-8
2404,-96,167,954,43,12,5
2405,-96,260,1044,8,-4,-2
2406,-64,216,1005,-41,-11,-4
2407,21,49,1005,-74,-18,-2
2408,70,-148,1020,-73,-15,-9
2409,83,-238,979,-47,-3,-5
2410,18,-187,959,-12,9,-3
2411,-83,-47,1015,12,14,-2
2412,-111,85,996,6,8,-5
2413,-119,160,1008,-16,-4,-14
2414,-44,63,995,-45,-19,-31
2415,99,-49,1006,-46,-29,-21
2416,168,-89,1002,-38,-14,-8
2417,87,-141,987,-25,15,-12
2418,-26,-90,1008,-5,26,2
2419,-169,-8,969,1,25,-1
2420,-164,40,971,-1,2,-6
2421,-26,49,1028,-9,-25,-11
2422,81,21,1007,-20,-26,-14
2423,175,-13,1009,-26,-13,-12
2424,95,-49,1017,-22,14,-5
2425,-51,-54,987,-20,29,3
2426,-153,-44,978,-17,24,0
2427,-165,-20,984,-10,1,-4
2428,-52,-14,987,-8,-24,-12
2429,90,2,1016,-7,-29,-16
2430,160,6,1012,-11,-13,-11
2431,103,7,1007,-18,15,-4
2432,-34,-13,1009,-23,32,1
2433,-150,-20,971,-22,25,2
2434,-166,-44,982,-19,1,-4
2435,-72,-49,987,-13,-25,-12
2436,80,-33,1005,-7,-29,-15
2437,161,-11,1006,-4,-13,-14
2438,107,12,1016,-10,15,-4
2439,-14,22,1006,-16,31,1
2440,-146,7,980,-24,25,3
2441,-163,-29,979,-22,2,-2
2442,-86,-69,991,-20,-22,-11
2443,68,-59,1008,-10,-30,-15
2444,152,-37,1005,-7,-16,-13
2445,118,3,1006,-5,11,-5
2446,2,33,1006,-10,28,0
2447,-136,34,990,-22,28,3
2448,-168,-12,990,-27,6,-3
2449,-103,-57,981,-23,-19,-10
2450,62,-64,1004,-14,-31,-14
2451,148,-57,1009,-6,-17,-12
2452,129,-15,1002,-4,11,-6
2453,16,28,1001,-7,28,0
2454,-127,42,990,-16,27,3
2455,-171,2,989,-23,7,-3
2456,-109,-34,984,-24,-16,-10
2457,44,-61,1004,-18,-31,-13
2458,141,-65,1014,-11,-18,-15
2459,135,-31,1009,-6,5,-7
2460,29,17,994,-7,26,0
2461,-118,34,992,-14,29,5
2462,-171,15,984,-21,9,-2
2463,-121,-17,988,-23,-15,-9
2464,31,-54,1005,-19,-31,-14
2465,125,-70,1003,-12,-21,-13
2466,149,-35,1007,-6,1,-8
2467,40,0,999,-8,24,-2
2468,-102,25,998,-11,31,3
2469,-171,18,979,-19,12,0
2470,-129,-3,981,-23,-14,-7
2471,13,-47,1007,-21,-31,-13
2472,118,-66,1010,-14,-25,-15
2473,155,-39,1004,-7,-2,-9
2474,56,-10,1006,-8,24,-3
2475,-88,19,1002,-11,30,3
2476,-168,14,973,-18,14,0
2477,-137,-5,984,-21,-10,-7
2478,-6,-48,1004,-19,-29,-12
2479,110,-55,1008,-13,-25,-14
2480,160,-38,1006,-9,-5,-10
2481,68,-10,1004,-7,21,-3
2482,-70,14,1005,-11,32,1
2483,-163,16,975,-19,18,-1
2484,-149,-7,992,-22,-6,-6
2485,-29,-45,992,-20,-27,-13
2486,103,-55,1004,-13,-26,-15
2487,163,-41,1004,-9,-8,-11
2488,79,-10,1013,-9,20,-3
2489,-49,15,1007,-11,31,1
2490,-162,20,975,-18,21,2
2491,-154,-3,993,-20,-3,-6
2492,-51,-41,996,-22,-26,-12
2493,90,-52,997,-15,-28,-14
2494,161,-48,1011,-10,-9,-12
2495,95,-15,1003,-6,18,-3
2496,-31,14,1007,-10,29,1
2497,-152,24,981,-17,21,0
2498,-163,1,987,-20,0,-5
2499,-67,-37,989,-21,-23,-12
2500,81,-49,1007,-16,-28,-14
2501,499,-808,396,0,2,-22
2502,480,-347,1167,346,69,103
2503,-96,1265,1455,86,34,210
2504,-328,-190,225,-200,223,-107
2505,-598,-87,166,28,152,-140
2506,-1025,676,832,42,-95,-43
2507,208,524,1486,-91,-283,-107
2508,365,-165,1370,-188,-94,-83
2509,349,-533,664,-138,-44,60
2510,578,-465,1180,-25,-20,30
2511,16,-481,853,6,90,-16
2512,-125,-164,1106,91,76,-4
2513,-337,150,952,102,51,14
2514,-339,350,940,51,4,13
2515,3,310,991,1,-62,-14
2516,143,303,1043,-51,-46,-16
2517,206,45,1015,-108,-22,10
2518,180,-217,1101,-87,8,-13
2519,-76,-416,847,-62,41,1
2520,-184,-319,1031,13,26,-4
2521,-156,-111,963,54,-4,-7
2522,-20,120,996,55,-19,-9
2523,122,272,1039,26,-24,-5
2524,125,246,1023,-25,-3,-7
2525,37,121,999,-65,17,-5
2526,-122,-100,1005,-79,20,-2
2527,-150,-235,959,-57,4,-7
2528,-88,-275,966,-20,-15,-9
2529,39,-129,1005,23,-26,-13
2530,150,52,1029,31,-16,-12
2531,107,172,1011,12,9,-4
2532,-17,187,1019,-24,24,3
2533,-131,79,989,-55,19,-2
2534,-166,-65,976,-61,-2,-4
2535,-69,-185,982,-48,-26,-12
2536,72,-186,1002,-18,-29,-17
2537,156,-78,996,7,-13,-13
2538,94,49,1016,11,13,-8
2539,-30,124,1018,-5,27,0
2540,-144,112,981,-31,19,1
2541,-154,30,990,-50,-4,-4
2542,-52,-87,993,-50,-28,-11
2543,82,-134,993,-35,-31,-14
2544,151,-114,995,-15,-15,-11
2545,103,-43,1000,-2,13,-3
2546,-13,56,1016,-1,27,9
2547,-136,79,986,-19,24,5
2548,-166,20,988,-30,3,-3
2549,-73,-52,994,-31,-24,-9
2550,59,-93,989,-22,-30,-14
2551,158,-93,1000,-9,-16,-13
2552,112,-38,1012,-1,12,-5
2553,-11,25,1000,-1,30,0
2554,-140,59,988,-11,27,2
2555,-168,36,994,-22,3,-3
2556,-83,-21,991,-27,-20,-10
2557,66,-59,1012,-23,-31,-14
2558,158,-75,997,-15,-18,-13
2559,123,-52,997,-9,11,-6
2560,-2,-2,1007,-5,28,0
2561,-139,30,992,-11,28,3
2562,-167,19,986,-17,6,-3
2563,-99,-13,991,-22,-19,-9
2564,63,-41,1007,-20,-32,-13
2565,149,-63,1004,-15,-18,-12
2566,126,-43,1003,-11,8,-5
2567,12,-7,996,-10,30,-1
2568,-130,14,988,-14,29,4
2569,-170,7,989,-16,8,-2
2570,-111,-11,987,-19,-17,-9
2571,47,-33,1004,-16,-31,-13
2572,140,-50,1014,-13,-19,-14
2573,135,-30,1006,-11,5,-7
2574,26,-1,994,-11,27,-1
2575,-117,11,988,-15,29,2
2576,-174,0,991,-18,10,-1
2577,-121,-14,982,-18,-15,-8
2578,35,-40,1008,-16,-29,-14
2579,129,-48,1009,-13,-22,-14
2580,146,-22,1011,-10,0,-8
2581,46,0,996,-12,24,-2
2582,-109,14,995,-15,32,2
2583,-167,0,977,-20,14,-2
2584,-134,-15,988,-20,-12,-7
2585,19,-44,1005,-18,-29,-13
2586,117,-52,1011,-12,-23,-14
2587,151,-22,1003,-9,-2,-8
2588,56,1,1007,-11,22,-2
2589,-92,15,1004,-15,30,3
2590,-168,5,968,-20,14,-1
2591,-141,-16,984,-21,-9,-7
2592,-4,-52,1003,-18,-29,-14
2593,111,-54,1006,-11,-24,-14
2594,159,-27,1010,-7,-4,-9
2595,67,0,1007,-8,24,-2
2596,-69,17,1004,-12,31,2
2597,-168,13,973,-18,18,0
2598,-144,-11,985,-20,-6,-6
2599,-25,-56,1002,-20,-27,-12
2600,100,-53,1001,-13,-25,-14
2601,164,-42,1011,-7,-7,-11
2602,74,-1,1006,-7,20,-2
2603,-53,19,1004,-12,30,2
2604,-163,14,977,-19,19,1
2605,-153,-8,990,-22,-5,-4
2606,-42,-47,994,-20,-25,-12
2607,95,-54,999,-14,-27,-14
2608,162,-45,1006,-8,-10,-10
2609,92,-7,1012,-7,19,-2
2610,-42,16,1006,-11,32,1
2611,-155,25,977,-17,22,0
2612,-157,-5,990,-21,-2,-3
2613,-58,-39,993,-20,-24,-11
2614,86,-56,1006,-16,-27,-14
2615,158,-46,1002,-9,-10,-12
2616,103,-14,1007,-7,15,-3
2617,-22,13,1005,-10,30,0
2618,260,-947,246,14,45,-8
2619,137,159,1291,370,39,121
2620,-160,950,1172,-22,0,145
2621,-280,-343,113,-179,191,-114
2622,-729,-47,154,60,86,-84
2623,-484,972,1282,50,-188,-8
2624,748,182,1587,-178,-187,-105
2625,-5,-304,815,-149,19,-24
2626,498,-349,891,-87,-63,78
2627,40,-577,1246,-39,43,-12
2628,-107,-431,663,43,60,-22
2629,-94,1,1184,103,33,8
2630,-206,231,986,78,21,7
2631,-18,366,929,31,-12,9
2632,86,327,1012,-19,-30,-20
2633,-62,228,1032,-82,-11,5
2634,58,-127,1059,-107,-12,-10
2635,-25,-363,956,-79,6,-9
2636,20,-408,927,-21,6,-5
2637,37,-215,1060,41,3,-13
2638,5,48,942,62,6,-3
2639,-26,274,1026,40,10,-1
2640,-76,260,1021,-12,6,-3
2641,-93,173,975,-56,1,1
2642,-25,-58,1020,-79,-13,-8
2643,32,-233,1004,-61,-18,-11
2644,104,-265,952,-23,-10,-10
2645,48,-143,1003,14,7,-7
2646,-31,33,1022,24,16,-1
2647,-94,144,985,9,16,-4
2648,-119,167,990,-20,2,-1
2649,-24,79,1022,-46,-20,-7
2650,50,-60,1001,-55,-22,-11
2651,108,-132,991,-42,-12,-9
2652,69,-146,1001,-23,7,-8
2653,-40,-78,995,-6,20,-2
2654,-117,17,975,-2,16,-1
2655,-121,79,997,-8,-1,-5
2656,-32,65,1009,-23,-21,-9
2657,70,21,1011,-35,-24,-13
2658,128,-36,1007,-41,-13,-11
2659,63,-71,1000,-35,8,-6
2660,-42,-75,995,-26,21,-1
2661,-128,-45,972,-19,16,-1
2662,-120,-16,986,-13,-1,-4
2663,-47,-1,999,-11,-20,-12
2664,55,-19,995,-13,-22,-20
2665,138,-13,1010,-10,-14,-9
2666,94,-2,1011,-17,10,-3
2667,-15,-15,1007,-21,26,-2
2668,-130,-13,976,-19,22,2
2669,-155,-23,987,-19,3,-3
2670,-73,-43,988,-14,-21,-12
2671,64,-29,1007,-10,-27,-14
2672,148,-20,1000,-10,-12,-13
2673,104,4,1015,-9,12,-5
2674,-3,16,1012,-15,25,0
2675,-136,9,976,-22,25,1
2676,-158,-22,988,-22,4,-2
2677,-90,-60,993,-22,-19,-10
2678,65,-52,1006,-13,-28,-13
2679,148,-38,1003,-7,-15,-12
2680,120,-3,1010,-4,10,-7
2681,3,24,1005,-11,27,0
2682,-135,28,988,-20,28,2
2683,-163,-14,990,-25,5,-2
2684,-99,-51,984,-23,-18,-10
2685,52,-60,1001,-14,-30,-13
2686,149,-56,1010,-8,-19,-14
2687,121,-17,1006,-6,7,-6
2688,17,23,997,-9,26,-2
2689,-126,35,992,-17,29,3
2690,-165,3,989,-23,7,-2
2691,-110,-33,986,-23,-17,-9
2692,47,-60,999,-18,-30,-14
2693,134,-66,1014,-10,-19,-14
2694,138,-26,1009,-5,6,-7
2695,26,14,996,-8,26,0
2696,-112,34,990,-14,28,2
2697,-174,9,988,-21,10,-1
2698,-118,-16,987,-23,-15,-9
2699,28,-56,1006,-20,-30,-13
2700,123,-64,1005,-12,-20,-14
2701,147,-36,1007,-7,1,-7
2702,43,4,1001,6,20,-4
2703,-101,25,1000,-14,30,3
2704,-171,13,977,-20,13,-2
2705,-132,-8,982,-22,-12,-7
2706,14,-49,1008,-20,-31,-13
2707,114,-62,1011,-14,-23,-14
2708,154,-37,1005,-8,-1,-9
2709,55,-6,1004,-8,23,-2
2710,-88,17,1003,-13,29,2
2711,-167,16,972,-19,14,0
2712,-136,-3,986,-21,-11,-7
2713,-8,-47,1002,-20,-30,-14
2714,112,-55,1009,-14,-23,-14
2715,157,-38,1004,-10,-5,-10
2716,63,-6,1009,-6,22,-3
2717,-69,13,999,-12,30,2
2718,-167,14,976,-17,19,-1
2719,-144,-6,989,-21,-7,-7
2720,-27,-46,994,-20,-28,-12
2721,102,-56,998,-13,-26,-14
2722,159,-41,1009,-8,-6,-11
2723,78,-11,1008,-8,20,-4
2724,-50,12,1006,-12,31,0
2725,-160,18,975,-19,21,2
2726,-154,-3,991,-21,-4,-4
2727,-46,-44,994,-22,-26,-12
2728,93,-54,1003,-15,-27,-14
2729,158,-43,1002,-9,-8,-12
2730,93,-14,1011,-7,17,-4
2731,-31,11,1002,-10,30,1
2732,-152,25,980,-17,23,2
2733,-160,-1,992,-20,0,-3
2734,-49,-85,976,-19,-23,-12
2735,666,-1378,61,94,18,-11
2736,355,1075,1783,419,-8,233
2737,-280,290,686,-166,120,75
2738,-215,-258,32,-118,237,-150
2739,-949,197,378,117,81,-81
2740,-509,860,1228,13,-222,-29
2741,465,392,1598,-167,-205,-142
2742,74,-472,865,-193,-20,-15
2743,516,-388,957,-96,-82,78
2744,349,-563,1056,-36,21,17
2745,68,-466,892,39,84,-33
2746,-128,-44,1084,99,71,16
2747,-400,215,969,104,48,14
2748,-255,367,922,33,-11,2
2749,-27,338,1029,-8,-56,-19
2750,86,241,980,-73,-43,3
2751,228,-21,1133,-109,-29,1
2752,220,-295,967,-86,10,-14
2753,-24,-419,918,-41,43,1
2754,-168,-240,1030,28,29,-9
2755,-219,-42,951,53,10,-9
2756,-61,176,997,44,-19,-7
2757,37,242,1046,7,-27,-1
2758,159,192,999,-33,-17,-7
2759,128,54,1031,-65,7,-11
2760,-24,-126,985,-68,25,-3
2761,-143,-214,976,-45,19,-8
2762,-152,-204,956,-12,0,-9
2763,-73,-88,1008,15,-19,-8
2764,82,50,1012,21,-26,-15
2765,148,135,1019,4,-10,-9
2766,103,148,1016,-23,11,-5
2767,-35,61,1012,-49,25,-3
2768,-153,-59,968,-56,17,-1
2769,-154,-139,975,-44,-4,-5
2770,-45,-165,987,-20,-24,-11
2771,81,-83,999,2,-26,-14
2772,158,27,1019,8,-12,-13
2773,81,103,1020,-3,14,-5
2774,-35,105,1009,-27,26,1
2775,-151,41,981,-45,18,1
2776,-149,-52,988,-48,-4,-3
2777,-48,-130,987,-38,-26,-10
2778,82,-117,992,-18,-29,-13
2779,153,-48,1006,-3,-14,-9
2780,90,32,1018,-4,12,-4
2781,-26,76,1006,-15,27,3
2782,-139,57,984,-28,20,6
2783,-137,13,996,-35,-4,4
2784,-65,-86,987,-38,-22,-8
2785,59,-123,982,-23,-26,-14
2786,138,-100,1002,-5,-13,-10
2787,93,-26,1004,5,12,-7
2788,-12,39,1008,1,26,-1
2789,-126,82,991,-10,22,2
2790,-152,42,998,-24,3,-3
2791,-80,-23,993,-31,-19,-11
2792,63,-77,1002,-27,-28,-13
2793,138,-94,995,-16,-13,-12
2794,115,-59,1005,-4,10,-6
2795,3,-2,1002,-2,27,-2
2796,-128,46,989,-9,26,1
2797,-157,33,1001,-19,5,-3
2798,-101,-6,986,-25,-18,-8
2799,54,-42,1004,-22,-29,-12
2800,143,-74,1013,-16,-18,-13
2801,123,-55,1001,-10,8,-4
2802,17,-15,992,-7,26,-1
2803,-124,17,991,-9,28,4
2804,-167,19,994,-14,8,-2
2805,-113,-1,983,-20,-16,-7
2806,43,-26,1006,-17,-29,-12
2807,134,-52,1017,-16,-19,-13
2808,138,-40,1003,-12,4,-7
2809,32,-13,996,-10,25,-1
2810,-112,7,989,-12,28,2
2811,-170,2,986,-15,11,-2
2812,-120,-6,985,-18,-13,-8
2813,21,-29,1007,-17,-29,-13
2814,127,-43,1010,-12,-21,-14
2815,145,-24,1010,-11,1,-6
2816,49,-6,996,-13,24,-2
2817,-99,2,1005,-16,30,2
2818,-170,0,969,-19,13,0
2819,-132,-14,982,-19,-11,-8
2820,3,-42,1007,-16,-30,-12
2821,117,-42,1009,-13,-23,-14
2822,158,-26,1008,-10,-2,-9
2823,59,2,1006,-8,22,-3
2824,-79,13,1003,-15,30,2
2825,-169,4,972,-20,16,-1
2826,-140,-16,980,-21,-8,-6
2827,-13,-57,1007,-18,-28,-14
2828,105,-52,1002,-13,-25,-13
2829,164,-31,1011,-8,-6,-10
2830,75,1,1006,-7,21,-3
2831,-59,17,1009,-13,32,0
2832,-163,11,974,-20,19,1
2833,-152,-12,992,-23,-5,-4
2834,-33,-55,995,-20,-27,-12
2835,98,-57,995,-12,-27,-13
2836,160,-41,1011,-6,-8,-11
2837,85,-8,1012,-7,18,-3
2838,-45,20,1004,-10,32,2
2839,-158,24,978,-19,23,1
2840,-161,-4,990,-22,-2,-4
2841,-56,-50,992,-21,-26,-11
2842,88,-55,1002,-14,-27,-14
2843,160,-49,1005,-9,-11,-11
2844,102,-17,1006,-6,16,-3
2845,-26,16,1004,-9,30,0
2846,-146,30,984,-18,24,2
2847,-160,0,991,-19,1,-4
2848,-42,-125,918,-23,-22,-12
2849,571,-1353,215,118,20,-9
2850,301,1209,1816,302,-24,202
2851,-317,170,572,-143,127,24
2852,-346,-93,121,-44,177,-171
2853,-883,399,545,87,-12,-108
2854,184,922,1656,-55,-208,-82
2855,191,-202,1165,-233,-65,-83
2856,114,-414,767,-122,-43,46
2857,504,-499,1159,-69,-50,36
2858,49,-677,917,-5,63,-41
2859,20,-199,883,100,63,-1
2860,-202,179,1184,110,53,11
2861,-299,354,894,64,22,13
2862,-98,365,938,1,-27,-1
2863,-17,336,1060,-58,-50,-10
2864,136,22,1065,-109,-40,-2
2865,255,-272,1033,-97,-10,-17
2866,61,-433,897,-54,29,3
2867,-81,-295,1007,17,35,-1
2868,-179,-85,997,52,20,-8
2869,-171,181,945,51,-2,2
2870,-13,277,1056,11,-28,-8
2871,91,212,1023,-36,-28,-10
2872,164,58,1002,-67,-10,-5
2873,73,-135,1022,-73,13,-6
2874,-65,-240,973,-48,25,-3
2875,-160,-203,942,-12,17,-3
2876,-153,-71,997,13,-5,-5
2877,-15,66,1013,18,-24,-9
2878,101,136,1012,-1,-23,-11
2879,150,139,1027,-28,-9,-6
2880,86,42,1016,-50,13,-4
2881,-69,-68,991,-55,25,2
2882,-160,-132,965,-46,13,1
2883,-140,-139,980,-23,-8,-5
2884,-33,-84,985,-4,-26,-10
2885,95,13,1008,4,-26,-12
2886,159,73,1023,-3,-10,-9
2887,61,80,1013,-24,19,-8
2888,-54,-16,990,-35,29,-8
2889,-124,-29,987,-33,14,6
2890,-135,-92,976,-28,-2,-6
2891,-46,-107,986,-10,-23,-14
2892,82,-47,1007,4,-23,-12
2893,128,11,998,4,-8,-11
2894,93,59,1020,-5,14,-4
2895,-21,64,1018,-18,26,0
2896,-136,20,967,-31,21,3
2897,-138,-44,1000,-31,-2,-5
2898,-72,-98,985,-25,-21,-10
2899,65,-88,992,-10,-25,-13
2900,141,-47,1010,1,-12,-12
2901,100,16,1005,3,12,-5
2902,0,58,998,-8,26,-1
2903,-133,58,998,-22,24,2
2904,-145,-1,997,-29,3,-3
2905,-92,-66,978,-31,-18,-9
2906,55,-85,994,-18,-27,-12
2907,137,-83,1013,-6,-14,-12
2908,116,-26,1006,-2,9,-6
2909,13,32,997,-3,27,-1
2910,-118,54,995,-13,26,2
2911,-162,18,992,-26,6,-1
2912,-103,-23,981,-27,-17,-8
2913,44,-71,1006,-21,-28,-14
2914,127,-79,1008,-14,-18,-13
2915,134,-46,1006,-5,6,-6
2916,25,11,992,-3,24,-2
2917,-112,39,992,-11,28,3
2918,-162,26,992,-18,9,-2
2919,-119,-4,985,-26,-13,-7
2920,34,-47,1005,-22,-29,-13
2921,117,-70,1010,-16,-21,-13
2922,149,-44,1000,-9,0,-8
2923,45,-10,1005,-6,24,-2
2924,-101,23,999,-10,29,3
2925,-165,20,977,-17,12,-1
2926,-127,4,979,-21,-12,-7
2927,5,-37,1010,-20,-29,-13
2928,114,-55,1011,-16,-23,-14
2929,151,-44,1005,-11,-2,-9
2930,57,-14,1002,-9,23,-3
2931,-82,7,1005,-11,30,1
2932,-164,15,971,-17,16,0
2933,-140,0,990,-17,-8,-6
2934,-15,-41,1002,-19,-27,-12
2935,105,-50,1003,-16,-24,-13
2936,156,-37,1007,-10,-7,-10
2937,67,-12,1010,-9,20,-2
2938,-59,6,1003,-10,31,2
2939,-165,13,975,-18,19,0
2940,-148,-2,991,-19,-5,-5
2941,-38,-40,996,-18,-25,-14
2942,97,-47,1001,-16,-27,-15
2943,163,-40,1006,-9,-9,-10
2944,83,-13,1008,-10,20,-3
2945,-39,8,1004,-12,31,1
2946,-157,18,980,-16,22,2
2947,-153,-4,991,-20,-2,-4
2948,-58,-40,996,-21,-24,-12
2949,84,-45,1008,-15,-28,-12
2950,157,-48,1002,-12,-12,-11
2951,101,-16,1005,-7,15,-3
2952,-19,10,1001,-9,28,0
2953,-148,23,986,-18,25,3
2954,-159,-4,988,-20,2,-3
2955,-80,-36,991,-20,-22,-11
2956,67,-46,1006,-15,-29,-13
2957,149,-52,1010,-11,-14,-12
2958,115,-21,1007,-8,11,-5
2959,2,10,995,-9,29,-1
2960,-135,27,990,-16,27,3
2961,-166,-2,991,-21,4,-2
2962,-91,-45,980,-22,-19,-9
2963,469,-1225,139,40,-1,-13
2964,341,709,1659,349,-3,149
2965,-218,487,825,-111,71,82
2966,-304,-126,158,-58,168,-134
2967,-739,301,461,93,3,-103
2968,102,1070,1658,-63,-161,-68
2969,155,-288,1037,-236,-50,-72
2970,43,-297,878,-120,-48,41
2971,450,-522,1038,-88,-55,44
2972,54,-698,1045,4,54,-47
2973,29,-231,751,79,55,4
2974,-184,166,1263,122,51,10
2975,-247,367,896,64,22,8
2976,-103,396,936,-4,-18,4
2977,-30,316,1035,-54,-49,-7
2978,104,32,1102,-112,-37,-5
2979,254,-294,974,-98,-13,-15
2980,50,-430,942,-49,26,4
2981,-55,-281,993,15,32,1
2982,-160,-76,1004,53,21,-7
2983,-176,197,941,49,-1,3
2984,-43,276,1057,7,-26,-8
2985,93,201,1022,-39,-30,-14
2986,155,39,1004,-72,-13,-5
2987,85,-150,1022,-71,10,-8
2988,-46,-244,978,-44,23,-3
2989,-156,-184,934,-9,20,0
2990,-155,-55,1008,15,-2,-4
2991,-35,75,1006,16,-23,-9
2992,92,143,1007,-4,-25,-12
2993,150,123,1025,-29,-12,-8
2994,90,25,1019,-51,11,-4
2995,-39,-76,987,-55,26,1
2996,-157,-124,974,-43,17,1
2997,-178,-116,992,-26,-1,-16
2998,-109,-158,933,-5,-21,-31
2999,122,21,1036,17,-41,-8
3000,190,57,1025,4,-16,-16
3001,144,76,997,-10,13,-11
3002,4,73,1027,-26,29,6
3003,-176,1,979,-41,31,1
3004,-182,-86,968,-36,5,-6
3005,-115,-121,995,-21,-21,-10
3006,60,-86,990,-5,-34,-16
3007,177,-31,1021,8,-21,-16
3008,134,45,1011,4,9,-4
3009,19,86,1005,-10,30,-1
3010,-128,57,1003,-28,30,1
3011,-185,-13,980,-34,8,-1
3012,-112,-80,977,-30,-19,-10
3013,41,-107,1000,-16,-33,-15
3014,139,-81,1002,-4,-20,-14
3015,148,-15,1017,5,6,-8
3016,29,55,992,-3,27,0
3017,-114,68,993,-15,29,2
3018,-174,23,994,-26,10,-2
3019,-127,-33,980,-31,-16,-7
3020,28,-84,999,-23,-31,-14
3021,125,-96,1004,-11,-20,-14
3022,152,-46,1010,-2,1,-8
3023,46,11,1003,-3,25,-1
3024,-103,45,997,-9,32,3
3025,-169,36,982,-19,15,-2
3026,-135,-2,982,-27,-12,-7
3027,8,-56,1004,-24,-31,-13
3028,119,-80,1007,-15,-23,-14
3029,153,-51,1002,-7,-1,-8
3030,60,-10,1006,-5,23,-3
3031,-85,25,1006,-8,30,1
3032,-171,31,970,-17,16,1
3033,-139,9,988,-22,-9,-6
3034,-9,-43,999,-21,-28,-13
3035,108,-60,1004,-17,-26,-14
3036,167,-51,1009,-10,-6,-10
3037,69,-20,1006,-8,20,-2
3038,-63,14,998,-9,31,2
3039,-166,18,984,-17,18,-1
3040,-152,6,985,-22,-9,-5
3041,-32,-38,995,-31,-25,-10
3042,101,-49,1003,-16,-27,-14
3043,158,-45,1007,-11,-8,-9
3044,85,-21,1008,-9,19,-4
3045,-50,1,1008,-10,32,2
3046,-159,20,973,-16,22,2
3047,-156,0,991,-19,-3,-4
3048,-56,-33,993,-20,-26,-12
3049,91,-41,1001,-16,-29,-15
3050,161,-46,1006,-11,-10,-12
3051,95,-18,1004,-11,17,-4
3052,-27,5,1006,-10,31,-2
3053,-155,17,979,-16,25,2
3054,-159,-1,991,-20,1,-3
3055,-74,-38,991,-20,-22,-11
3056,75,-43,1010,-15,-30,-13
3057,159,-47,1006,-11,-15,-13
3058,112,-18,1004,-7,12,-5
3059,-5,8,997,-9,29,0
3060,-142,23,992,-16,27,2
3061,-164,-2,988,-21,5,-3
3062,-93,-33,983,-20,-20,-11
3063,61,-46,1009,-15,-31,-14
3064,147,-53,1011,-11,-16,-12
3065,126,-22,1007,-7,10,-6
3066,13,8,994,-9,27,0
3067,-130,23,987,-14,28,4
3068,-168,0,989,-21,6,-3
3069,-112,-23,985,-22,-18,-9
3070,49,-50,1009,-17,-31,-14
3071,131,-56,1012,-11,-20,-14
3072,141,-27,1010,-8,3,-7
3073,29,8,998,-8,26,-2
3074,-112,20,991,-13,30,3
3075,-169,8,983,-21,11,-2
3076,-119,-17,986,-22,-13,-9
3077,26,-51,1007,-19,-30,-12
3078,124,-56,1009,-13,-20,-13
3079,147,-32,1004,-8,3,-8
3080,66,-49,989,-9,25,-2
3081,406,-1260,133,105,79,0
3082,66,1227,1799,370,-3,180
3083,-332,131,509,-197,105,26
3084,-330,-247,42,-80,206,-138
3085,-1074,265,376,121,16,-64
3086,-40,955,1514,-27,-273,-46
3087,692,30,1490,-206,-141,-148
3088,101,-451,681,-149,12,23
3089,579,-310,1102,-68,-59,79
3090,-67,-608,1025,-35,76,-16
3091,-107,-388,805,61,63,-17
3092,-193,65,1165,107,37,12
3093,-238,239,910,80,14,10
3094,43,362,995,34,-33,-5
3095,126,341,1031,-20,-34,-29
3096,37,198,979,-90,-5,7
3097,37,-91,1130,-102,-2,-6
3098,-90,-361,896,-86,17,-4
3099,-41,-426,948,-22,8,-6
3100,-1,-218,1029,43,-8,-11
3101,33,47,967,63,-4,-6
3102,62,264,1056,43,2,-9
3103,-41,289,1004,-12,12,3
3104,-77,180,984,-58,10,-3
3105,-105,-45,1024,-81,-4,-7
3106,-20,-228,978,-66,-17,-8
3107,83,-283,965,-26,-19,-14
3108,90,-169,1001,16,-6,-10
3109,49,33,1025,31,12,-4
3110,-54,156,995,14,24,0
3111,-133,181,1001,-17,16,2
3112,-108,85,997,-46,-8,-7
3113,-7,-47,1008,-55,-26,-10
3114,93,-149,989,-46,-27,-11
3115,119,-162,1008,-22,-6,-10
3116,43,-79,984,-4,16,-4
3117,-81,30,990,2,26,2
3118,-133,77,1011,-8,11,-2
3119,-120,78,984,-26,-9,-4
3120,20,30,1010,-35,-27,-11
3121,102,-51,1015,-41,-24,-11
3122,123,-82,1000,-34,-5,-6
3123,33,-74,992,-25,17,-2
3124,-89,-32,988,-17,24,2
3125,-140,-4,984,-16,10,1
3126,-114,19,989,-18,-11,-5
3127,23,-1,1008,-22,-27,-10
3128,103,-28,1010,-21,-21,-12
3129,113,-36,997,-19,0,-9
3130,48,-57,999,-18,19,-3
3131,-80,-23,992,-12,26,4
3132,-149,-22,975,-13,13,-1
3133,-115,1,986,-11,-9,-7
3134,-1,-9,1009,-12,-25,-12
3135,95,-13,1007,-13,-21,-14
3136,143,-11,1017,-16,-3,-9
3137,63,-7,1004,-15,19,-3
3138,-68,-13,996,-19,28,2
3139,-153,-18,979,-20,15,-1
3140,-134,-26,982,-17,-7,-6
3141,-15,-43,1004,-13,-25,-13
3142,97,-35,1004,-11,-23,-13
3143,151,-12,1010,-9,-6,-9
3144,75,5,1005,-12,17,-4
3145,-58,8,1008,-15,28,2
3146,-151,0,971,-22,19,1
3147,-148,-27,993,-21,-3,-5
3148,-38,-54,987,-16,-23,-11
3149,88,-52,1002,-11,-24,-13
3150,151,-28,1007,-4,-10,-11
3151,80,4,1013,-8,16,-4
3152,-38,21,1003,-14,28,0
3153,-150,17,979,-20,21,1
3154,-151,-11,991,-23,-2,-4
3155,-53,-57,993,-21,-24,-12
3156,82,-55,1000,-14,-27,-13
3157,151,-48,1005,-8,-11,-12
3158,96,-4,1009,-5,14,-3
3159,-21,27,1000,-10,29,0
3160,-143,33,986,-20,23,1
3161,-157,-2,992,-24,1,-3
3162,-78,-46,984,-24,-21,-10
3163,74,-57,1011,-15,-29,-15
3164,145,-55,1001,-8,-14,-12
3165,111,-18,999,-5,12,-5
3166,-4,20,1004,-7,28,-1
3167,-134,30,988,-16,27,2
3168,-159,2,991,-22,5,-4
3169,-97,-34,984,-22,-20,-11
3170,60,-54,1006,-17,-29,-14
3171,146,-61,1012,-11,-16,-12
3172,123,-30,1004,-7,7,-5
3173,16,8,995,-8,27,-1
3174,-128,27,990,-12,27,3
3175,-164,5,990,-20,6,-2
3176,-105,-20,988,-22,-17,-10
3177,42,-47,1001,-16,-29,-13
3178,131,-61,1017,-12,-19,-13
3179,136,-34,1006,-8,6,-6
3180,30,1,995,-9,26,1
3181,-112,22,995,-12,29,2
3182,-171,8,984,-19,11,-2
3183,-120,-12,981,-22,-14,-8
3184,26,-51,1008,-19,-30,-14
3185,120,-59,1009,-14,-22,-13
3186,148,-33,1002,-6,1,-9
3187,44,0,1006,-8,25,-1
3188,-95,19,1000,-13,30,3
3189,-167,10,975,-17,13,-3
3190,-128,-8,981,-20,-11,-6
3191,2,-43,1009,-20,-29,-13
3192,114,-57,1010,-14,-22,-13
3193,156,-35,1006,-10,-2,-7
3194,59,0,1008,-7,23,-3
3195,-77,17,1006,-11,30,2
3196,-161,16,970,-19,16,1
3197,-144,-5,991,-22,-9,-5
3198,-13,-47,996,-21,-28,-13
3199,106,-59,1006,-15,-25,-15
3200,159,-34,1002,-8,-6,-10
3201,70,-10,1010,-8,21,-3
3202,268,-930,258,14,49,-6
3203,119,143,1374,314,44,100
3204,-197,938,1213,10,16,112
3205,-433,-178,182,-119,163,-128
3206,-733,96,230,60,23,-120
3207,-64,1042,1572,-11,-188,-65
3208,579,-266,1254,-229,-106,-79
3209,80,-284,798,-110,0,15
3210,512,-482,988,-77,-38,51
3211,-167,-598,1180,5,77,-33
3212,-145,-243,645,73,48,4
3213,-216,162,1248,108,29,1
3214,-139,321,942,53,-7,1
3215,68,360,938,2,-31,0
3216,146,273,1039,-53,-31,-20
3217,62,80,1095,-98,-5,1
3218,75,-258,970,-95,12,-11
3219,-186,-406,933,-53,29,2
3220,-80,-292,972,11,2,-6
3221,4,-112,1026,53,-11,-16
3222,42,175,958,56,-12,-1
3223,99,304,1067,14,-5,-9
3224,14,234,1009,-37,13,-5
3225,-111,73,984,-76,16,10
3226,-117,-158,1014,-79,-1,-9
3227,-47,-285,960,-49,-14,-9
3228,56,-230,960,-1,-21,-11
3229,107,-59,1042,27,-11,-13
3230,77,118,1001,23,8,-6
3231,-43,201,993,-7,23,2
3232,-131,146,1019,-42,14,2
3233,-115,2,993,-62,-4,-3
3234,-19,-140,975,-56,-23,-8
3235,67,-194,999,-33,-26,-11
3236,132,-134,1000,-5,-9,-12
3237,58,-16,991,8,14,-4
3238,-57,94,1007,2,25,3
3239,-131,104,1001,-19,15,0
3240,-120,55,975,-37,-5,-2
3241,-9,-47,1012,-40,-25,-8
3242,80,-116,998,-29,-23,-11
3243,122,-121,990,-17,-6,-9
3244,62,-69,999,-1,16,-4
3245,-58,13,1014,4,26,1
3246,-133,59,972,-6,16,-1
3247,-132,68,996,-16,-4,-4
3248,-20,6,1009,-27,-23,-12
3249,83,-54,1002,-28,-23,-13
3250,141,-71,999,-21,-8,-9
3251,73,-67,1006,-13,16,-4
3252,-52,-29,991,-8,28,1
3253,-148,9,979,-8,18,1
3254,-137,27,993,-10,-3,-5
3255,-36,0,998,-15,-22,-11
3256,86,-15,1000,-18,-26,-13
3257,153,-39,1011,-18,-10,-10
3258,85,-38,1009,-16,16,-4
3259,-36,-25,998,-14,29,1
3260,-151,-10,974,-15,22,0
3261,-150,-7,994,-13,-2,-3
3262,-56,-21,995,-13,-23,-10
3263,85,-23,1004,-12,-27,-12
3264,154,-29,1008,-12,-12,-11
3265,95,-13,1009,-12,15,-4
3266,-25,-6,1004,-16,28,0
3267,-148,1,979,-18,23,1
3268,-158,-16,990,-19,1,-4
3269,-74,-37,990,-17,-21,-12
3270,72,-36,1011,-13,-27,-13
3271,150,-31,1005,-10,-13,-11
3272,109,-5,1004,-8,12,-4
3273,-3,11,998,-13,28,0
3274,-141,17,991,-19,26,3
3275,-157,-12,989,-21,4,-2
3276,-97,-39,985,-21,-20,-10
3277,62,-47,1007,-15,-30,-13
3278,142,-47,1013,-9,-16,-12
3279,122,-16,1005,-8,11,-6
3280,13,15,997,-10,28,-1
3281,-128,24,988,-17,28,2
3282,-166,-4,992,-22,6,-4
3283,-108,-34,978,-22,-19,-9
3284,43,-53,1002,-16,-29,-12
3285,135,-57,1013,-11,-18,-14
3286,132,-26,1010,-6,5,-7
3287,29,11,991,-9,25,-1
3288,-114,24,997,-14,28,4
3289,-168,6,978,-20,12,-2
3290,-119,-22,985,-23,-13,-9
3291,29,-54,1010,-19,-30,-13
3292,121,-64,1009,-13,-21,-14
3293,144,-29,1001,-7,3,-7
3294,44,3,1006,-8,25,0
3295,-97,22,1003,-14,30,3
3296,-165,9,973,-20,13,0
3297,-128,-9,982,-22,-12,-6
3298,7,-51,1005,-21,-30,-12
3299,115,-63,1008,-14,-22,-14
3300,150,-35,1006,-9,-1,-8
3301,58,-2,1007,-8,23,-3
3302,-80,16,1006,-11,31,4
3303,-161,16,970,-18,15,0
3304,-140,-7,989,-20,-8,-7
3305,-14,-46,999,-21,-27,-12
3306,104,-55,1005,-15,-23,-13
3307,158,-36,1008,-8,-7,-10
3308,67,-7,1005,-7,21,-3
3309,-58,18,1005,-10,30,1
3310,-160,15,976,-19,18,0
3311,-146,-2,990,-22,-6,-6
3312,-36,-49,997,-22,-26,-11
3313,98,-52,998,-13,-26,-13
3314,160,-43,1006,-7,-8,-10
3315,410,-818,360,3,33,-10
3316,278,-120,1226,332,68,102
3317,-163,1118,1306,42,24,156
3318,-383,-239,180,-152,196,-116
3319,-734,8,183,77,91,-128
3320,-619,983,1228,48,-161,-70
3321,620,199,1493,-196,-202,-121
3322,83,-374,965,-169,-12,-27
3323,529,-396,822,-99,-59,82
3324,205,-637,1243,-30,37,-11
3325,-139,-452,698,46,80,-16
3326,-197,-10,1178,114,45,13
3327,-271,254,975,94,24,4
3328,-104,370,920,32,-21,15
3329,141,332,1013,-14,-51,-17
3330,102,292,1030,-80,-21,-2
3331,163,-71,1068,-116,-5,-4
3332,-46,-328,1000,-89,25,-3
3333,-136,-443,869,-39,22,1
3334,-106,-277,1052,37,0,-11
3335,-25,-18,957,64,-14,-7
3336,95,247,1046,52,-14,-8
3337,97,311,1023,3,-3,-5
3338,5,247,999,-52,16,0
3339,-97,12,1011,-88,17,-3
3340,-148,-201,990,-83,0,-4
3341,-42,-309,945,-43,-18,-8
3342,38,-244,996,7,-23,-13
3343,131,-21,1023,34,-14,-10
3344,98,146,1014,25,12,-6
3345,-42,221,1003,-8,26,5
3346,-131,145,1006,-48,19,0
3347,-138,-13,982,-67,-3,-4
3348,-50,-162,982,-58,-26,-8
3349,76,-210,1000,-31,-29,-15
3350,146,-137,995,-2,-12,-13
3351,83,5,999,12,15,-4
3352,-44,108,1020,2,28,0
3353,-142,126,987,-22,17,1
3354,-139,69,988,-43,-6,-2
3355,-33,-49,1002,-48,-28,-10
3356,87,-130,1000,-39,-28,-13
3357,147,-133,991,-18,-10,-10
3358,71,-71,1002,-3,16,-6
3359,-64,3,1001,2,30,-5
3360,-143,50,977,-7,17,-1
3361,-122,67,1006,-17,-7,-3
3362,-28,-5,1003,-27,-24,-13
3363,88,-46,995,-26,-26,-12
3364,144,-73,1006,-20,-9,-10
3365,65,-67,1001,-13,17,-5
3366,-45,-23,1002,-9,28,0
3367,-145,16,979,-9,20,-1
3368,-141,23,995,-12,-3,-6
3369,-45,3,998,-19,-24,-13
3370,80,-22,1002,-20,-25,-12
3371,153,-47,1008,-19,-10,-12
3372,87,-42,1000,-15,15,-3
3373,-28,-21,994,-12,28,0
3374,-141,0,989,-13,23,1
3375,-150,-1,990,-15,-3,-5
3376,-70,-16,992,-16,-21,-11
3377,76,-24,1012,-15,-28,-14
3378,140,-35,1005,-14,-14,-13
3379,108,-23,1000,-11,11,-5
3380,-11,-7,1000,-14,27,-2
3381,-133,4,985,-15,25,1
3382,-154,-12,991,-18,4,-4
3383,-94,-30,982,-17,-19,-10
3384,62,-29,1008,-13,-29,-13
3385,138,-38,1014,-12,-17,-13
3386,122,-13,1007,-9,7,-7
3387,11,4,995,-14,27,-2
3388,-124,12,986,-17,27,1
3389,-162,-11,991,-19,6,-3
3390,-104,-30,984,-20,-16,-9
3391,42,-45,1003,-16,-28,-13
3392,128,-48,1016,-9,-17,-13
3393,136,-18,1003,-8,5,-7
3394,28,13,1000,-10,24,-2
3395,-108,20,997,-16,27,1
3396,-163,-3,980,-22,12,-2
3397,-121,-22,980,-20,-12,-7
3398,22,-53,1010,-17,-28,-14
3399,117,-59,1007,-10,-21,-13
3400,146,-23,1000,-5,0,-8
3401,45,7,1009,-9,23,-3
3402,-93,20,1002,-14,29,2
3403,-164,9,970,-21,14,-1
3404,-125,-14,986,-23,-11,-7
3405,1,-53,1004,-20,-26,-13
3406,111,-63,1007,-15,-23,-13
3407,151,-37,1005,-8,-3,-9
3408,57,-2,1009,-5,22,-3
3409,-74,19,1002,-10,29,1
3410,-162,22,977,-19,16,0
3411,-137,-5,984,-24,-7,-7
3412,-18,-52,999,-22,-26,-13
3413,100,-56,1000,-15,-24,-13
3414,155,-43,1006,-9,-7,-11
3415,70,-9,1010,-7,19,-5
3416,-57,16,1002,-10,31,1
3417,-159,21,977,-16,19,0
3418,-143,-1,994,-22,-5,-5
3419,-43,-42,991,-20,-27,-12
3420,94,-50,1001,-14,-27,-13
3421,154,-47,1007,-11,-8,-11
3422,86,-15,1006,-7,19,-3
3423,-42,14,1005,-10,30,1
3424,-150,24,982,-15,21,1
3425,-155,-2,987,-21,-1,-5
3426,-59,-38,997,-21,-24,-12
3427,87,-47,1008,-15,-27,-14
3428,152,-52,1001,-10,-10,-11
3429,101,-18,1004,-7,13,-4
3430,-19,12,1002,-11,28,0
3431,-144,25,987,-18,26,2
3432,-158,2,994,-20,2,-2
3433,127,-556,553,-23,-14,-16
3434,463,-666,785,290,27,54
3435,86,1288,1507,101,-30,197
3436,-348,-329,152,-135,175,-82
3437,-601,-3,137,81,94,-145
3438,-334,1075,1429,78,-131,-90
3439,484,235,1208,-203,-113,-95
3440,-237,-232,956,-187,4,-1
3441,390,-362,920,-110,-90,89
3442,191,-684,1215,-49,18,-34
3443,49,-543,645,34,54,-31
3444,-76,-26,1206,123,48,20
3445,-137,252,1037,100,31,-14
3446,-164,347,892,46,17,8
3447,-69,363,954,-11,-24,3
3448,-91,313,1084,-79,-37,-6
3449,136,-60,1017,-117,-34,-10
3450,151,-334,1040,-93,-8,-8
3451,108,-436,889,-42,15,-1
3452,-35,-287,1048,32,30,-5
3453,-157,-13,953,61,17,-1
3454,-140,227,1003,49,3,-1
3455,-43,273,1012,3,-17,-5
3456,26,220,1014,-46,-22,-3
3457,148,39,1021,-73,-16,-11
3458,77,-168,1016,-75,4,-6
3459,-14,-250,958,-42,15,-3
3460,-127,-207,977,-6,17,-5
3461,-142,-55,985,18,3,-4
3462,-39,81,1004,20,-15,-7
3463,63,149,1010,-1,-21,-9
3464,137,137,1025,-28,-13,-8
3465,85,34,1011,-50,7,-7
3466,-47,-78,994,-55,21,0
3467,-136,-143,969,-42,15,-3
3468,-139,-145,984,-20,-2,-5
3469,-52,-70,980,-1,-21,-9
3470,77,27,1014,6,-24,-13
3471,140,88,1016,-4,-12,-12
3472,79,96,1016,-26,11,-4
3473,-20,36,1010,-44,22,-1
3474,-133,-45,977,-51,19,2
3475,-133,-110,979,-39,-2,-1
3476,-71,-129,983,-22,-21,-10
3477,68,-74,993,-4,-26,-12
3478,125,1,1010,6,-10,-11
3479,96,47,1006,-2,10,-7
3480,2,64,1011,-16,23,1
3481,-119,32,987,-30,23,1
3482,-144,-41,992,-34,3,-3
3483,-88,-88,979,-25,-17,-10
3484,45,-89,998,-10,-26,-13
3485,129,-51,1005,0,-16,-14
3486,112,4,1010,1,7,-7
3487,17,61,993,-6,25,-1
3488,-115,56,1004,-20,25,2
3489,-149,1,995,-29,5,-3
3490,-107,-56,975,-30,-16,-8
3491,44,-83,998,-19,-27,-12
3492,123,-82,1016,-8,-17,-13
3493,131,-29,1009,-1,6,-8
3494,29,26,998,-4,25,-2
3495,-107,55,990,-13,28,2
3496,-159,23,993,-24,9,-2
3497,-116,-20,985,-28,-13,-6
3498,29,-67,1007,-24,-29,-13
3499,121,-82,1005,-14,-19,-13
3500,137,-43,1002,-5,2,-7
3501,39,4,998,-5,25,-3
3502,-105,35,1003,-10,29,1
3503,-166,25,979,-20,12,-2
3504,-126,-3,982,-24,-12,-8
3505,13,-51,1004,-22,-29,-12
3506,111,-71,1009,-15,-22,-13
3507,151,-47,1000,-8,-1,-10
3508,49,-12,1009,-7,24,-3
3509,-84,22,1002,-8,30,2
3510,-165,19,977,-16,15,0
3511,-136,8,979,-19,-9,-7
3512,-6,-42,1009,-21,-27,-12
3513,107,-53,1008,-17,-23,-13
3514,155,-48,1002,-11,-4,-10
3515,61,-11,1007,-7,20,-4
3516,-70,10,1005,-10,31,2
3517,-160,22,975,-16,18,0
3518,-144,1,993,-20,-6,-5
3519,-29,-35,992,-19,-27,-12
3520,102,-50,1002,-16,-26,-14
3521,155,-42,1005,-10,-8,-10
3522,79,-16,1012,-9,19,-3
3523,-45,6,1006,-12,30,1
3524,-156,16,976,-15,20,1
3525,-150,-2,990,-19,-5,-5
3526,-48,-44,997,-20,-24,-12
3527,91,-42,1002,-14,-28,-13
3528,158,-46,1006,-10,-9,-11
3529,92,-12,1006,-9,16,-3
3530,-25,11,1004,-11,28,0
3531,-151,20,981,-18,24,2
3532,-156,-3,991,-20,2,-4
3533,-73,-40,992,-22,-21,-11
3534,79,-45,1005,-15,-28,-14
3535,150,-49,1006,-9,-13,-13
3536,109,-19,999,-7,14,-6
3537,-5,8,998,-9,28,0
3538,-144,26,990,-16,26,3
3539,-87,-176,867,-23,4,-5
3540,360,-1169,301,171,38,1
3541,175,1405,1739,268,-55,178
3542,-315,-290,239,-190,134,-34
3543,-455,-124,87,59,139,-142
3544,-648,786,1030,118,-97,-72
3545,579,612,1462,-127,-172,-92
3546,12,-119,854,-198,15,-57
3547,202,-293,956,-134,-58,92
3548,278,-440,1273,-69,-14,0
3549,-10,-753,648,-17,66,-54
3550,-108,-164,1084,102,43,19
3551,-94,155,1120,108,22,-16
3552,-82,262,913,69,12,-18
3553,5,341,951,21,-9,-4
3554,-109,372,1051,-42,-14,-3
3555,-8,125,981,-104,-23,-11
3556,49,-165,1082,-105,-16,-12
3557,114,-412,935,-75,-3,-5
3558,71,-381,974,-4,12,-7
3559,-32,-167,998,52,16,-5
3560,-120,104,1014,58,11,1
3561,-75,234,986,33,4,-4
3562,-77,256,998,-14,-6,2
3563,24,144,1005,-56,-17,-6
3564,84,-13,1042,-70,-15,-13
3565,78,-197,967,-67,-2,-7
3566,-3,-230,1003,-30,11,-5
3567,-90,-163,969,-2,13,-3
3568,-112,-9,995,17,6,-2
3569,-49,96,1000,13,-10,-6
3570,37,141,1011,-11,-18,-6
3571,113,104,1012,-34,-14,-10
3572,59,10,1008,-50,5,-6
3573,-20,-85,1002,-52,14,-3
3574,-109,-136,974,-37,14,0
3575,-119,-116,979,-18,1,-2
3576,-51,-56,989,-3,-17,-8
3577,59,31,1009,1,-23,-10
3578,121,83,1012,-12,-12,-9
3579,77,81,1015,-29,8,-5
3580,-12,26,1008,-43,19,0
3581,-111,-42,981,-50,17,5
3582,-126,-102,986,-37,-1,1
3583,-69,-119,973,-24,-17,-6
3584,48,-48,1006,-4,-24,-8
3585,119,-3,1009,-2,-14,-9
3586,93,27,999,-8,8,-5
3587,6,34,1008,-20,21,0
3588,-109,14,987,-28,23,2
3589,-135,-40,995,-29,4,-3
3590,-96,-72,977,-21,-16,-7
3591,36,-63,1004,-10,-25,-13
3592,123,-40,1008,-3,-16,-12
3593,111,12,1005,-2,6,-4
3594,25,41,1003,-10,22,-1
3595,-110,41,1000,-19,26,1
3596,-146,-8,989,-28,6,-2
3597,-104,-54,979,-26,-13,-9
3598,36,-75,1002,-16,-26,-11
3599,119,-71,1014,-9,-18,-13
3600,128,-21,1007,-4,4,-7
3601,34,29,996,-5,24,-2
3602,-100,44,996,-15,26,2
3603,-157,10,985,-24,10,-1
3604,-114,-28,985,-26,-11,-8
3605,21,-71,1004,-20,-27,-11
3606,112,-77,1003,-11,-20,-12
3607,138,-40,1001,-3,1,-8
3608,42,10,1003,-4,22,-2
3609,-92,38,1003,-11,29,2
3610,-163,23,978,-20,13,-2
3611,-124,-5,977,-24,-11,-7
3612,1,-55,1008,-21,-28,-13
3613,109,-70,1005,-15,-23,-13
3614,146,-44,1003,-8,-3,-8
3615,55,-3,1006,-6,22,-2
3616,-78,27,1007,-9,28,1
3617,-159,23,972,-17,16,-1
3618,-140,4,985,-20,-7,-6
3619,-12,-45,1009,-20,-28,-12
3620,104,-58,1002,-16,-25,-13
3621,151,-44,1003,-9,-5,-8
3622,69,-13,1006,-7,20,-2
3623,-58,9,1007,-10,29,2
3624,-160,24,972,-16,19,0
3625,-143,3,998,-20,-5,-5
3626,-32,-40,993,-22,-26,-12
3627,92,-51,999,-15,-25,-13
3628,160,-44,1007,-11,-10,-10
3629,75,-20,1014,-8,18,-3
3630,-38,9,1000,-12,31,1
3631,-154,17,981,-18,21,2
3632,-150,0,988,-18,-3,-4
3633,-55,-42,998,-21,-24,-12
3634,84,-47,1005,-16,-27,-13
3635,155,-46,1007,-11,-10,-11
3636,99,-16,1003,-7,15,-4
3637,-26,6,1003,-9,28,0
3638,-146,25,983,-18,23,1
3639,-159,-3,992,-21,2,-3
3640,-79,-35,988,-20,-22,-10
3641,72,-49,1009,-17,-29,-13
3642,154,-48,1006,-11,-15,-12
3643,109,-22,1001,-9,13,-4
3644,-1,13,1000,-10,27,-1
3645,-142,23,993,-18,26,2
3646,-163,3,985,-21,4,-4
3647,-95,-34,989,-22,-18,-10
3648,58,-45,1006,-15,-30,-13
3649,144,-55,1011,-11,-17,-12
3650,127,-23,1010,-7,9,-6
3651,10,11,991,-10,28,0
3652,-122,27,989,-15,26,3
3653,-169,1,992,-22,6,-1
3654,-107,-19,984,-24,-17,-8
3655,44,-51,1007,-16,-28,-13
3656,130,-60,1009,-12,-19,-14
3657,140,-24,1006,-5,4,-6
3658,29,6,999,-9,25,-1
3659,-65,-92,903,-19,30,3
3660,344,-1228,230,152,61,15
3661,99,1403,1797,302,-39,195
3662,-351,-135,329,-184,120,-4
3663,-397,-183,42,-5,161,-128
3664,-950,565,665,108,-55,-58
3665,496,867,1693,-88,-240,-90
3666,305,-239,1055,-231,-30,-118
3667,204,-369,762,-124,-29,68
3668,372,-411,1260,-63,-25,44
3669,-161,-708,791,-21,75,-49
3670,-98,-251,930,96,44,8
3671,-150,186,1183,113,26,-1
3672,-106,297,888,60,5,-1
3673,91,367,1004,21,-25,-7
3674,-4,380,1022,-48,-19,-11
3675,-1,90,1024,-111,-10,1
3676,2,-213,1070,-102,-5,-12
3677,-24,-454,873,-74,5,-2
3678,59,-372,1003,11,2,-10
3679,9,-135,1012,56,3,-9
3680,-3,171,991,62,7,-2
3681,-43,297,1032,23,10,-6
3682,-100,277,995,-34,6,1
3683,-55,92,995,-75,-7,-6
3684,1,-132,1022,-80,-17,-9
3685,92,-266,961,-53,-17,-9
3686,79,-253,984,-9,1,-10
3687,2,-84,1012,23,14,-4
3688,-70,92,998,24,19,0
3689,-108,169,995,3,11,-1
3690,-90,148,1005,-31,-9,-1
3691,34,36,1012,-51,-23,-10
3692,84,-95,991,-53,-19,-9
3693,90,-149,994,-36,-3,-6
3694,8,-132,992,-17,16,-4
3695,-93,-31,985,-5,20,1
3696,-121,39,998,-4,7,0
3697,-88,76,997,-12,-13,-6
3698,35,64,1013,-28,-26,-9
3699,109,-2,1014,-37,-19,-10
3700,98,-55,1000,-38,1,-4
3701,17,-76,987,-31,18,0
3702,-95,-63,984,-22,22,4
3703,-130,-45,988,-16,7,1
3704,-96,-11,981,-9,-12,-5
3705,23,13,1016,-8,-24,-11
3706,99,1,1009,-15,-16,-13
3707,119,-18,1011,-20,0,-8
3708,42,-13,995,-21,19,-3
3709,-84,-32,988,-17,26,1
3710,-149,-40,978,-8,7,-4
3711,-123,-31,990,-15,-9,-6
3712,10,-26,1002,-9,-25,-13
3713,102,-20,1011,-9,-20,-13
3714,139,9,1011,-9,-1,-8
3715,59,13,1008,-17,20,-3
3716,-81,0,999,-23,28,2
3717,-154,-23,975,-24,14,-2
3718,-129,-38,981,-21,-8,-6
3719,-7,-58,1006,-15,-26,-11
3720,104,-47,1009,-8,-22,-14
3721,148,-10,1005,-4,-2,-9
3722,64,18,1008,-9,21,-2
3723,-68,22,1007,-17,29,1
3724,-160,2,973,-24,16,0
3725,-137,-27,978,-24,-7,-6
3726,-22,-68,1001,-18,-25,-11
3727,97,-62,1000,-9,-24,-13
3728,151,-28,1009,-4,-5,-10
3729,69,11,1012,-5,19,-3
3730,-54,33,1002,-13,29,2
3731,-156,24,977,-22,19,0
3732,-144,-10,992,-25,-5,-5
3733,-39,-62,991,-22,-26,-13
3734,94,-63,997,-13,-26,-14
3735,155,-48,1008,-6,-8,-11
3736,84,-1,1013,-5,17,-3
3737,-42,25,1008,-10,30,1
3738,-151,33,977,-18,21,2
3739,-150,3,996,-25,-3,-5
3740,-59,-50,992,-24,-25,-12
3741,86,-64,999,-16,-28,-13
3742,151,-60,1001,-10,-11,-11
3743,93,-17,1004,-4,15,-5
3744,-24,18,1005,-7,29,0
3745,-147,36,981,-16,23,2
3746,-155,9,991,-20,1,-4
3747,-75,-36,995,-23,-22,-13
3748,76,-52,1006,-17,-29,-14
3749,151,-62,1003,-12,-15,-11
3750,108,-31,1004,-8,11,-4
3751,-5,5,994,-8,29,-1
3752,-137,30,994,-14,26,2
3753,-158,4,991,-19,4,-3
3754,-91,-23,986,-20,-21,-10
3755,62,-47,1003,-17,-30,-12
3756,142,-59,1014,-13,-14,-12
3757,122,-33,1002,-9,9,-6
3758,10,4,995,-8,27,-1
3759,-128,25,984,-14,26,3
3760,-165,3,991,-19,6,-3
3761,-112,-21,983,-22,-16,-7
3762,47,-45,1007,-16,-30,-12
3763,132,-60,1011,-12,-18,-13
3764,133,-29,1008,-8,5,-7
3765,31,3,995,-8,25,-1
3766,-117,23,994,-13,29,2
3767,-168,8,982,-19,11,-2
3768,-120,-12,987,-21,-13,-8
3769,29,-44,1007,-19,-30,-13
3770,122,-55,1011,-12,-21,-13
3771,146,-27,1003,-8,2,-7
3772,47,3,1006,-10,25,-2
3773,-96,19,1002,-15,30,2
3774,-166,11,971,-20,15,0
3775,-128,-9,983,-23,-11,-6
3776,1,-50,1004,-18,-29,-12
3777,112,-56,1006,-12,-22,-13
3778,170,-62,1011,-10,-2,-9
3779,578,-1303,58,93,64,1
3780,133,1175,1784,420,17,192
3781,-343,111,512,-190,120,39
3782,-319,-253,24,-39,223,-135
3783,-1172,314,384,159,27,-85
3784,-168,973,1501,-4,-274,-86
3785,635,221,1330,-211,-166,-171
3786,79,-426,880,-214,17,49
3787,550,-274,1104,-97,-78,111
3788,213,-632,984,-66,52,-3
3789,-67,-612,810,31,89,-23
3790,-307,-30,1184,110,50,24
3791,-260,176,873,108,11,-18
3792,-46,357,1037,58,-26,-20
3793,100,340,988,7,-46,-6
3794,161,332,989,-55,-9,1
3795,30,143,1039,-119,9,8
3796,-29,-234,1100,-115,13,-7
3797,-90,-463,863,-75,12,-10
3798,-76,-417,983,4,-4,-10
3799,-22,-138,991,58,-18,-8
3800,121,130,1043,67,-10,-16
3801,45,311,991,30,10,8
3802,-27,318,1018,-31,20,6
3803,-78,149,1024,-74,12,-12
3804,-129,-98,966,-93,-2,-1
3805,-37,-273,1000,-67,-24,-9
3806,65,-311,972,-21,-24,-16
3807,108,-145,990,22,-7,-7
3808,75,74,1024,30,15,-4
3809,-50,201,1003,7,26,4
3810,-127,199,1002,-30,14,2
3811,-144,79,993,-61,-8,-3
3812,-9,-78,1001,-65,-29,-9
3813,82,-196,996,-50,-27,-11
3814,139,-182,997,-19,-8,-8
3815,59,-75,986,0,16,-3
3816,-66,52,996,5,25,5
3817,-142,105,1003,-11,13,3
3818,-120,92,993,-29,-7,-3
3819,-8,1,1000,-41,-23,-9
3820,69,-82,1008,-37,-22,-17
3821,129,-138,994,-27,-9,-10
3822,86,-101,986,-8,15,-3
3823,-57,-39,1005,1,29,1
3824,-139,32,985,1,19,-1
3825,-139,66,989,-8,-2,-5
3826,-26,39,1007,-20,-24,-12
3827,86,-12,1014,-26,-24,-13
3828,154,-57,1003,-26,-8,-10
3829,72,-65,998,-20,17,-2
3830,-53,-51,1000,-11,28,1
3831,-153,-22,974,-10,18,-1
3832,-145,11,980,-7,-4,-4
3833,-32,5,1011,-10,-23,-12
3834,92,-7,1013,-16,-24,-14
3835,160,-12,1008,-16,-9,-9
3836,83,-21,1004,-18,16,-4
3837,-47,-27,1001,-19,28,2
3838,-155,-25,977,-18,19,1
3839,-152,-24,986,-17,-1,-5
3840,-45,-35,992,-12,-24,-13
3841,92,-21,1001,-8,-27,-14
3842,152,-9,1014,-10,-10,-10
3843,90,5,1011,-14,16,-3
3844,-35,1,1005,-18,29,1
3845,-149,-3,974,-22,22,2
3846,-159,-26,990,-20,-1,-5
3847,-62,-55,985,-16,-23,-12
3848,74,-41,1006,-9,-28,-13
3849,157,-26,1006,-7,-13,-14
3850,99,5,1007,-7,15,-5
3851,-15,25,1004,-15,28,0
3852,-142,21,986,-20,25,1
3853,-157,-17,986,-23,2,-4
3854,-81,-57,989,-22,-21,-10
3855,69,-57,1007,-16,-29,-14
3856,148,-48,1008,-7,-15,-12
3857,114,-4,1001,-5,11,-4
3858,0,25,1008,-10,28,-1
3859,-136,35,991,-19,28,2
3860,-163,-3,987,-25,6,-3
3861,-97,-42,986,-22,-18,-10
3862,53,-61,1002,-17,-31,-12
3863,143,-65,1010,-11,-17,-12
3864,123,-25,1007,-5,8,-6
3865,16,21,996,-8,28,-1
3866,-122,34,990,-14,27,2
3867,-169,8,992,-21,9,-2
3868,-109,-27,981,-25,-16,-9
3869,40,-61,1008,-21,-29,-13
3870,133,-72,1006,-12,-18,-13
3871,139,-36,1012,-4,5,-7
3872,32,8,994,-6,25,-2
3873,-112,27,997,-13,29,2
3874,-164,12,985,-18,11,-2
3875,-123,-9,984,-22,-13,-8
3876,25,-50,1004,-21,-30,-13
3877,120,-68,1012,-13,-21,-14
3878,152,-39,1000,-9,1,-9
3879,45,-5,1002,-8,25,-2
3880,-96,20,1004,-10,29,3
3881,-166,15,971,-17,14,0
3882,-132,-5,983,-20,-13,-6
3883,3,-43,1008,-21,-30,-13
3884,111,-58,1008,-14,-22,-14
3885,151,-36,1003,-10,-2,-8
3886,59,-5,1011,-7,22,-3
3887,-76,16,1004,-10,30,1
3888,-161,18,972,-18,17,0
3889,-144,-1,992,-22,-7,-6
3890,-17,-42,999,-20,-26,-13
3891,107,-51,1002,-14,-25,-14
3892,155,-37,1009,-9,-6,-11
3893,73,-7,1007,-8,20,-2
3894,-56,14,1006,-12,29,1
3895,-159,19,976,-17,19,0
3896,-118,-89,941,-23,-5,-6
3897,460,-1278,181,147,21,1
3898,261,1390,1797,333,-39,203
3899,-301,-233,281,-180,124,0
3900,-376,-193,-18,24,169,-145
3901,-852,621,827,172,-58,-98
3902,523,869,1599,-67,-203,-109
3903,137,-35,749,-238,4,-84
3904,-98,-174,962,-158,-24,132
3905,371,-287,1378,-115,-71,41
3906,151,-892,652,-82,56,-71
3907,3,-483,941,88,53,6
3908,-151,59,1193,120,29,8
3909,-107,217,922,105,20,-36
3910,-41,344,1006,60,0,-12
3911,-108,412,968,-13,-14,18
3912,-31,266,998,-74,-17,-2
3913,6,54,1042,-122,-27,-6
3914,170,-343,1060,-110,-14,-10
3915,85,-461,910,-48,12,-9
3916,-39,-328,949,19,15,-2
3917,-129,-46,1069,65,11,-6
3918,-100,166,974,53,4,-3
3919,-47,304,977,12,-6,3
3920,49,231,1053,-38,-16,-6
3921,109,101,1021,-72,-11,-11
3922,60,-123,961,-82,3,-6
3923,-45,-240,1013,-53,10,-6
3924,-109,-251,960,-19,9,-5
3925,-120,-112,971,15,3,-5
3926,-10,56,1024,24,-15,-8
3927,72,147,1017,7,-16,-9
3928,120,168,1006,-19,-7,-7
3929,44,94,1016,-51,10,-2
3930,-56,-51,1006,-63,18,-3
3931,-138,-155,965,-55,11,0
3932,-112,-172,967,-29,-6,-3
3933,-10,-116,998,-1,-22,-11
3934,85,-4,1008,12,-21,-11
3935,123,105,1021,2,-6,-6
3936,59,126,1019,-21,14,-3
3937,-55,72,1003,-44,22,3
3938,-133,-36,982,-54,12,2
3939,-115,-118,978,-45,-8,-2
3940,-25,-156,980,-26,-22,-9
3941,75,-101,995,-3,-21,-12
3942,122,-4,1016,7,-5,-9
3943,43,65,1006,-2,18,-11
3944,-47,56,1002,-15,21,-2
3945,-104,55,995,-28,11,2
3946,-109,-44,990,-36,-3,-7
3947,-36,-101,978,-27,-20,-10
3948,61,-102,1002,-11,-20,-12
3949,117,-59,991,2,-7,-12
3950,69,13,1014,4,14,-4
3951,-23,64,1011,-6,23,-2
3952,-126,59,986,-21,18,1
3953,-127,12,996,-29,-3,-4
3954,-62,-66,989,-33,-19,-10
3955,68,-86,997,-22,-23,-13
3956,137,-84,1008,-8,-10,-11
3957,92,-24,998,0,12,-4
3958,-14,29,1004,-3,25,0
3959,-132,58,992,-14,23,1
3960,-145,22,996,-24,2,-3
3961,-77,-30,988,-28,-20,-9
3962,59,-64,1003,-21,-27,-12
3963,139,-78,1003,-13,-15,-12
3964,104,-43,997,-5,11,-5
3965,0,7,996,-4,27,-1
3966,-129,41,997,-11,25,1
3967,-157,23,992,-20,6,-2
3968,-93,-10,983,-23,-17,-9
3969,52,-45,1008,-19,-28,-13
3970,135,-67,1010,-14,-17,-14
3971,120,-47,1007,-8,8,-5
3972,16,-2,993,-7,27,0
3973,-118,25,992,-11,26,3
3974,-161,15,987,-16,6,-2
3975,-111,-5,989,-20,-15,-8
3976,42,-35,1011,-20,-29,-13
3977,122,-62,1006,-15,-19,-14
3978,141,-36,1002,-9,3,-8
3979,32,-12,1003,-10,25,0
3980,-107,15,993,-13,28,2
3981,-165,4,978,-18,11,-2
3982,-121,-1,986,-19,-12,-7
3983,21,-42,1008,-19,-28,-12
3984,119,-54,1011,-13,-21,-14
3985,147,-35,1002,-9,0,-7
3986,50,-7,1009,-9,24,-3
3987,-88,7,1000,-13,30,2
3988,-166,8,969,-16,13,-1
3989,-129,-10,990,-21,-11,-7
3990,-4,-48,1002,-17,-28,-13
3991,111,-53,1006,-13,-23,-14
3992,154,-34,1008,-6,-3,-9
3993,58,-1,1007,-6,21,-1
3994,-69,13,1005,-13,30,1
3995,-161,16,976,-17,18,0
3996,-141,-7,989,-21,-5,-5
3997,-27,-49,995,-20,-26,-12
3998,98,-56,999,-14,-26,-13
3999,158,-40,1004,-8,-8,-11
4000,75,-5,1012,-7,19,-2
4001,-47,18,1007,-12,30,1
4002,-156,22,977,-19,20,0
4003,-148,-4,992,-19,-4,-5
4004,-49,-46,994,-21,-25,-11
4005,90,-53,1005,-14,-27,-13
4006,157,-47,1002,-10,-8,-10
4007,92,-13,1004,-7,16,-3
4008,-31,16,1007,-9,30,1
4009,-148,27,981,-17,24,1
4010,-153,1,990,-21,0,-3
4011,-74,-38,991,-21,-21,-10
4012,78,-51,1008,-16,-28,-14
4013,150,-56,1004,-11,-14,-13
4014,288,-481,644,-9,15,-7
4015,412,-693,693,295,82,64
4016,-53,1392,1524,150,3,191
4017,-362,-397,131,-192,190,-84
4018,-581,-87,60,51,135,-117
4019,-963,889,991,116,-117,-50
4020,514,548,1568,-137,-252,-122
4021,192,-201,1092,-219,-27,-86
4022,392,-418,744,-116,-52,100
4023,424,-446,1325,-59,-11,38
4024,-33,-665,667,-20,87,-30
4025,-220,-227,1130,107,65,15
4026,-268,160,1002,105,27,5
4027,-202,322,947,73,-5,-2
4028,103,327,991,19,-50,-9
4029,134,396,1037,-42,-32,-6
4030,137,135,989,-107,0,7
4031,-3,-167,1140,-113,15,-6
4032,-93,-421,832,-84,23,-1
4033,-121,-445,1014,-4,8,-10
4034,-73,-172,965,51,-17,-8
4035,87,104,1027,68,-18,-13
4036,116,295,1032,34,-4,-6
4037,18,318,1014,-24,16,8
4038,-45,164,1000,-70,17,-8
4039,-155,-77,999,-94,8,1
4040,-85,-267,957,-71,-16,-5
4041,8,-319,986,-24,-24,-14
4042,117,-150,983,22,-19,-10
4043,116,54,1040,36,5,-8
4044,9,192,1008,12,23,1
4045,-112,204,996,-27,24,5
4046,-140,85,1000,-56,4,-3
4047,-96,-84,987,-66,-19,-5
4048,45,-188,980,-46,-30,-12
4049,139,-189,1004,-16,-20,-12
4050,104,-75,995,7,8,-5
4051,-3,47,1017,9,24,-1
4052,-125,120,990,-19,26,5
4053,-148,100,1002,-26,3,1
4054,-75,7,996,-44,-22,-9
4055,50,-80,995,-40,-30,-11
4056,141,-124,998,-29,-17,-11
4057,86,-94,1005,-14,10,-9
4058,-20,-37,986,-5,27,-7
4059,-114,24,991,-6,21,2
4060,-127,49,997,-10,4,-3
4061,-65,11,998,-20,-16,-11
4062,64,-13,1009,-21,-25,-12
4063,123,-56,998,-22,-12,-12
4064,94,-57,998,-15,10,-6
4065,-8,-40,997,-11,25,-2
4066,-122,4,984,-11,24,0
4067,-143,0,996,-13,5,-5
4068,-90,5,988,-14,-16,-8
4069,54,-13,1012,-16,-27,-13
4070,134,-32,1013,-15,-16,-13
4071,116,-35,1003,-15,8,-4
4072,13,-18,987,-14,25,-2
4073,-119,-5,991,-16,26,2
4074,-158,-13,991,-17,7,-3
4075,-104,-18,986,-16,-15,-9
4076,42,-27,1006,-14,-28,-13
4077,129,-37,1020,-13,-17,-13
4078,131,-20,1005,-12,5,-6
4079,26,0,994,-12,24,-1
4080,-109,6,991,-16,27,3
4081,-165,-11,982,-20,11,-1
4082,-117,-19,984,-18,-13,-6
4083,25,-42,1009,-14,-27,-13
4084,114,-43,1008,-10,-20,-13
4085,141,-17,1001,-6,1,-8
4086,43,10,1009,-11,24,-2
4087,-91,16,997,-18,29,2
4088,-165,1,978,-21,13,-2
4089,-122,-19,978,-22,-12,-7
4090,4,-51,1006,-16,-27,-13
4091,113,-56,1009,-10,-23,-14
4092,146,-23,1007,-7,-2,-8
4093,58,8,1006,-8,22,-3
4094,-81,20,1010,-14,28,2
4095,-157,14,969,-21,14,-2
4096,-136,-17,986,-23,-8,-6
4097,-14,-56,999,-18,-27,-12
4098,104,-59,1005,-13,-25,-13
4099,152,-38,1005,-8,-6,-10
4100,68,0,1008,-5,19,-3
4101,-60,22,1004,-12,29,1
4102,-159,20,976,-20,19,1
4103,-140,-7,992,-21,-6,-6
4104,-39,-57,995,-20,-26,-13
4105,97,-60,992,-14,-26,-14
4106,157,-51,1011,-6,-7,-11
4107,80,-4,1007,-6,18,-3
4108,-43,13,1008,-11,29,1
4109,-154,29,978,-16,21,2
4110,-151,-3,993,-22,-3,-5
4111,-55,-41,992,-22,-24,-12
4112,88,-58,1006,-18,-27,-14
4113,157,-51,1002,-9,-10,-13
4114,91,-19,1005,-7,16,-4
4115,-26,17,1003,-7,30,0
4116,-150,27,986,-18,22,2
4117,-154,2,988,-22,1,-4
4118,-73,-39,992,-21,-22,-12
4119,79,-50,1005,-16,-28,-13
4120,149,-59,1006,-12,-14,-13
4121,110,-22,998,-8,13,-5
4122,-10,13,1001,-8,29,0
4123,-138,30,983,-17,26,1
4124,-160,2,997,-20,2,-4
4125,-92,-26,980,-22,-21,-9
4126,66,-48,1009,-17,-29,-14
4127,146,-58,1013,-11,-16,-13
4128,122,-25,1003,-8,9,-5
4129,10,10,994,-10,28,0
4130,-129,26,989,-15,26,3
4131,-167,5,986,-19,6,-3
4132,-108,-19,985,-21,-17,-10
4133,43,-49,1009,-16,-29,-12
4134,136,-69,1008,-12,-18,-14
4135,511,-1154,178,37,31,-16
4136,187,662,1601,345,38,124
4137,-283,513,862,-99,66,76
4138,-335,-137,185,-46,166,-131
4139,-834,282,431,97,11,-103
4140,-36,1056,1624,-51,-185,-73
4141,288,-262,1070,-229,-90,-90
4142,166,-318,901,-125,-40,26
4143,556,-453,1019,-81,-48,52
4144,72,-687,1079,-3,74,-42
4145,-115,-267,732,79,70,8
4146,-285,149,1248,120,47,9
4147,-285,293,881,63,7,0
4148,-42,343,953,11,-37,-4
4149,135,317,1032,-37,-56,-15
4150,192,123,1089,-95,-23,-1
4151,214,-175,1006,-96,8,-8
4152,-91,-388,951,-69,41,5
4153,-184,-328,945,-5,29,-2
4154,-172,-178,1012,46,0,-13
4155,-53,94,947,56,-25,-7
4156,133,251,1076,32,-29,-14
4157,162,246,1009,-12,-8,-13
4158,70,148,1017,-57,20,0
4159,-94,-45,1005,-76,29,-2
4160,-174,-216,978,-62,12,-5
4161,-132,-264,932,-26,-12,-7
4162,1,-156,1014,15,-28,-13
4163,156,19,1007,30,-25,-14
4164,134,144,1023,18,4,-6
4165,27,196,1012,-15,24,2
4166,-105,107,1006,-49,28,1
4167,-172,-36,980,-62,8,1
4168,-130,-161,981,-53,-18,-4
4169,43,-183,995,-23,-33,-15
4170,138,-110,997,1,-22,-11
4171,132,22,1006,11,3,-5
4172,22,107,1022,-3,24,-1
4173,-117,128,989,-26,27,6
4174,-163,41,999,-46,6,2
4175,-109,-65,983,-50,-20,-7
4176,43,-130,997,-36,-33,-10
4177,141,-128,1000,-16,-22,-12
4178,129,-62,1001,-1,4,-4
4179,31,50,998,3,25,6
4180,-113,82,1006,-15,28,6
4181,-171,36,989,-32,10,0
4182,-111,-33,981,-37,-17,-6
4183,25,-92,997,-27,-30,-12
4184,129,-109,1007,-15,-21,-13
4185,142,-65,1008,-2,3,-8
4186,37,5,988,0,27,-2
4187,-100,53,1000,-7,29,4
4188,-168,43,990,-18,11,-2
4189,-130,10,979,-27,-12,-7
4190,24,-45,1015,-26,-29,-13
4191,124,-84,1008,-19,-21,-14
4192,151,-63,994,-10,1,-7
4193,51,-20,1000,-5,23,-2
4194,-98,20,1005,-8,30,3
4195,-167,27,977,-15,15,0
4196,-130,13,987,-20,-11,-6
4197,8,-32,1011,-21,-28,-12
4198,113,-58,1005,-17,-22,-14
4199,154,-51,1004,-12,-2,-8
4200,61,-21,1006,-10,21,-2
4201,-80,2,1002,-11,30,3
4202,-167,14,970,-15,16,-1
4203,-142,6,983,-18,-8,-6
4204,-13,-30,1005,-19,-27,-12
4205,108,-45,1005,-17,-24,-14
4206,160,-36,1005,-12,-6,-9
4207,67,-13,1008,-11,20,-2
4208,-62,2,1003,-12,30,0
4209,-165,8,976,-18,20,0
4210,-148,-3,990,-18,-5,-5
4211,-34,-36,997,-19,-27,-12
4212,101,-44,997,-14,-25,-14
4213,157,-32,1008,-9,-7,-9
4214,81,-6,1013,-11,19,-2
4215,-45,5,1006,-15,31,1
4216,-157,12,973,-19,24,2
4217,-153,-8,992,-20,-3,-4
4218,-52,-45,993,-19,-24,-12
4219,85,-48,1004,-14,-28,-13
4220,160,-40,1004,-10,-12,-12
4221,96,-9,1008,-9,16,-5
4222,-23,16,1005,-13,28,1
4223,-155,20,980,-18,24,2
4224,-157,-5,990,-20,0,-4
4225,-76,-48,992,-20,-21,-11
4226,82,-52,1002,-14,-28,-14
4227,156,-50,1008,-10,-13,-11
4228,113,-14,1005,-6,12,-4
4229,-6,13,1000,-11,29,1
4230,-143,26,989,-17,27,2
4231,-162,-1,995,-22,2,-2
4232,-90,-37,986,-21,-20,-11
4233,58,-48,1005,-15,-28,-14
4234,148,-56,1015,-10,-14,-13
4235,122,-24,1006,-8,11,-5
4236,8,14,992,-9,27,-2
4237,-128,29,993,-15,27,2
4238,-166,3,985,-22,6,-2
4239,-105,-26,984,-21,-17,-9
4240,50,-50,1009,-17,-29,-14
4241,135,-59,1008,-13,-18,-13
4242,134,-28,1011,-8,6,-6
4243,27,8,998,-9,26,-2
4244,-118,22,992,-13,29,1
4245,-169,6,983,-21,10,-3
4246,-116,-12,990,-20,-15,-8
4247,30,-49,1005,-19,-29,-13
4248,122,-55,1009,-12,-21,-14
4249,145,-30,1004,-9,1,-8
4250,41,4,1007,-9,25,-2
4251,-96,17,998,-13,30,3
4252,-170,10,974,-19,13,-2
4253,-129,-12,983,-21,-12,-6
4254,7,-47,1008,-18,-29,-14
4255,114,-58,1008,-14,-22,-13
4256,156,-39,1007,-8,-2,-9
4257,57,-4,1007,-6,23,-2
4258,-81,17,998,-11,29,2
4259,-165,14,976,-19,15,-2
4260,-138,-6,985,-21,-9,-6
4261,-12,-48,1001,-19,-28,-13
4262,109,-55,1003,-14,-25,-15
4263,155,-35,1005,-8,-5,-9
4264,69,-8,1007,-7,22,-3
4265,-64,12,1005,-11,30,3
4266,-161,19,970,-16,19,1
4267,-142,-5,998,-23,-6,-4
4268,-39,-47,992,-21,-28,-13
4269,97,-52,1001,-14,-26,-14
4270,159,-45,1007,-9,-9,-9
4271,81,-11,1008,-8,20,-3
4272,-39,10,1004,-11,30,0
4273,-158,20,979,-16,22,1
4274,-155,1,987,-19,-2,-4
4275,-54,-44,1000,-20,-25,-13
4276,84,-49,999,-15,-27,-14
4277,158,-51,1006,-9,-11,-12
4278,97,-15,1004,-6,15,-3
4279,-25,14,1002,-11,29,2
4280,-147,27,984,-17,24,2
4281,-158,-1,993,-22,2,-4
4282,-76,-36,989,-21,-21,-11
4283,74,-49,1008,-17,-30,-13
4284,151,-50,1007,-10,-15,-13
4285,110,-25,1005,-7,12,-5
4286,-7,13,994,-10,28,0
4287,-136,24,992,-17,26,2
4288,-166,0,992,-21,4,-3
4289,-94,-28,982,-21,-19,-10
4290,63,-48,1007,-15,-29,-13
4291,142,-58,1010,-11,-16,-13
4292,129,-23,1011,-8,9,-5
4293,12,6,991,-9,27,0
4294,-124,23,988,-16,27,3
4295,-164,2,989,-21,7,-3
4296,-111,-21,984,-22,-17,-9
4297,438,170,308,-23,-8,13
4298,516,57,1225,117,136,16
4299,-206,269,654,-197,13,31
4300,-81,-57,403,-189,112,14
4301,-577,-144,529,2,113,-156
4302,-660,12,1393,-34,-31,-108
4303,497,-528,1143,-41,-97,-92
4304,-368,-160,795,44,29,-44
4305,188,-363,631,3,-75,-41
4306,334,-68,1678,144,-57,9
4307,-57,291,594,20,46,32
4308,-40,135,1040,0,18,21
4309,-2,399,1287,21,-19,0
4310,-291,50,735,-108,8,0
4311,73,-83,1019,-52,-53,-33
4312,-7,-234,1174,-52,-37,-7
4313,135,-229,747,-34,-10,-22
4314,82,-159,1119,28,-1,-13
4315,-52,48,1009,23,4,10
4316,-88,118,936,7,10,-10
4317,-129,125,1048,-2,-18,-5
4318,-56,54,1015,-34,-35,-9
4319,97,-90,953,-33,-30,-26
4320,74,-131,1035,-16,-21,-10
4321,88,-101,979,-5,-1,-10
4322,-10,-64,999,13,13,-10
4323,-117,51,975,12,5,1
4324,-85,70,1035,0,-9,-13
4325,-38,33,990,-12,-23,-14
4326,113,21,998,-21,-27,-10
4327,263,-5,1022,-27,1,-14
4328,107,-62,1009,-26,37,-2
4329,-65,-26,990,-22,43,9
4330,-247,-46,977,-19,36,0
4331,-255,-27,943,-15,2,-2
4332,-97,-29,1020,-7,-32,-13
4333,106,-9,1009,-7,-40,-18
4334,221,-8,1004,-9,-21,-14
4335,174,7,1021,-12,13,-5
4336,-7,5,997,-21,37,4
4337,-164,2,978,-24,35,4
4338,-220,-41,985,-23,8,-3
4339,-125,-49,976,-16,-23,-10
4340,63,-50,1009,-8,-37,-16
4341,172,-31,1014,-5,-24,-16
4342,162,3,1018,-7,6,-6
4343,35,31,996,-14,31,0
4344,-134,24,991,-22,34,5
4345,-192,-12,982,-25,9,-1
4346,-137,-50,980,-24,-18,-9
4347,33,-63,1000,-13,-34,-16
4348,141,-58,1017,-9,-25,-15
4349,163,-14,1010,-3,2,-7
4350,54,26,1000,-7,28,-1
4351,-106,34,996,-18,33,4
4352,-188,4,984,-23,15,0
4353,-141,-23,980,-27,-13,-7
4354,8,-66,1003,-19,-32,-15
4355,124,-66,1005,-10,-26,-16
4356,167,-31,1011,-7,-2,-9
4357,68,8,1008,-5,25,-3
4358,-84,30,1002,-14,33,3
4359,-179,15,970,-23,17,0
4360,-150,-4,980,-23,-9,-4
4361,-10,-56,1005,-20,-30,-13
4362,109,-63,1006,-13,-26,-15
4363,173,-40,1008,-8,-4,-10
4364,77,-5,1009,-8,22,-3
4365,-70,19,1001,-10,33,4
4366,-167,18,980,-17,20,-1
4367,-160,-3,985,-22,-5,-5
4368,-33,-49,996,-20,-26,-13
4369,99,-57,1004,-15,-26,-14
4370,163,-40,1007,-9,-9,-11
4371,93,-10,1010,-7,18,-3
4372,-46,14,1005,-11,31,1
4373,-163,20,975,-17,23,1
4374,-158,0,993,-22,-2,-5
4375,-58,-40,989,-21,-26,-12
4376,90,-48,1003,-15,-28,-13
4377,167,-45,1008,-11,-11,-12
4378,101,-17,1008,-9,15,-3
4379,-25,10,1003,-10,30,1
4380,-153,20,982,-16,24,1
4381,-165,0,989,-19,1,-4
4382,-77,-38,992,-21,-24,-11
4383,73,-42,1004,-16,-30,-13
4384,159,-50,1005,-10,-15,-13
4385,114,-22,1001,-9,13,-6
4386,-4,10,1001,-10,29,0
4387,-145,21,989,-17,27,3
4388,-168,0,989,-20,6,-3
4389,-96,-32,986,-20,-24,-13
4390,62,-39,1006,-18,-32,-14
4391,150,-52,1009,-13,-18,-14
4392,128,-24,1009,-10,8,-6
4393,17,7,992,-9,29,-1
4394,-130,23,992,-15,30,4
4395,-170,-1,988,-21,6,-2
4396,-117,-24,983,-21,-18,-10
4397,45,-41,1005,-17,-32,-13
4398,135,-55,1014,-12,-20,-14
4399,141,-25,1008,-9,5,-6
4400,35,5,994,-11,26,0
4401,-114,19,992,-14,30,4
4402,-174,-2,983,-21,11,-1
4403,-126,-14,983,-20,-12,-8
4404,23,-49,1007,-18,-30,-14
4405,123,-52,1010,-13,-23,-14
4406,154,-24,1005,-8,0,-8
4407,96,5,867,-21,26,2
4408,769,397,353,101,124,38
4409,-433,58,1484,-139,101,1
4410,-150,275,355,-189,28,80
4411,-217,-431,531,-89,123,-74
4412,-1201,-149,707,20,47,-155
4413,-10,-373,1007,33,-159,-169
4414,278,-371,1346,121,-135,-141
4415,263,72,864,28,-60,15
4416,704,-26,1231,79,-23,-50
4417,-25,368,1006,36,80,29
4418,-303,193,811,-60,75,60
4419,-208,109,1245,-28,20,-36
4420,-275,-114,761,-83,-17,-7
4421,126,-181,1004,-34,-59,-18
4422,184,-203,1159,-7,-42,-27
4423,102,-99,848,2,5,-1
4424,-30,50,1071,23,28,3
4425,-185,81,1046,-1,20,-1
4426,-103,83,892,-17,1,-5
