sequence,AccelerometerX,AccelerometerY,AccelerometerZ,GyroscopeX,GyroscopeY,GyroscopeZ
0,-93,9,1005,-11,27,1
1,-164,13,970,-21,10,-1
2,-124,-8,994,-24,-11,-7
3,3,-43,999,-18,-28,-14
4,118,-50,1005,-14,-19,-12
5,150,-37,1001,-8,-4,-10
6,50,-8,1011,-9,22,-1
7,-72,9,998,-8,30,0
8,-166,15,977,-14,19,0
9,-134,-2,990,-19,-8,-6
10,-23,-41,1005,-21,-27,-12
11,106,-48,1003,-12,-24,-12
12,150,-45,1002,-11,-5,-9
13,74,-12,1006,-9,20,-2
14,-52,7,997,-9,29,0
15,-154,23,977,-17,20,1
16,-140,-6,1000,-19,-5,-5
17,-52,-34,991,-21,-24,-11
18,93,-42,1011,-16,-27,-14
19,147,-52,1007,-12,-10,-12
20,90,-22,999,-9,15,-2
21,-26,5,994,-10,29,-1
22,-147,23,988,-16,21,1
23,-154,0,987,-20,-1,-5
24,-74,-29,990,-21,-22,-10
25,82,-45,1008,-14,-28,-12
26,140,-51,1013,-12,-10,-11
27,108,-24,1007,-10,13,-4
28,-1,3,994,-10,26,-1
29,-134,17,982,-14,23,2
30,-162,1,987,-20,3,-3
31,-85,-20,994,-21,-18,-10
32,53,-44,1006,-16,-28,-13
33,134,-49,1012,-12,-17,-12
34,125,-25,1006,-9,8,-5
35,15,0,995,-10,28,0
36,-118,15,1001,-13,27,1
37,-171,5,974,-18,8,-3
38,-100,-14,983,-20,-16,-8
39,33,-47,1015,-18,-28,-12
40,125,-51,1005,-13,-17,-12
41,142,-31,1004,-9,5,-7
42,26,-1,1007,-9,26,-2
43,-100,14,998,-13,28,1
44,-162,10,973,-19,8,-2
45,-121,-9,992,-23,-13,-6
46,11,-49,1004,-17,-27,-13
47,116,-53,1003,-14,-20,-13
48,145,-33,1008,-9,0,-7
49,47,-6,1005,-10,22,-2
50,-81,11,1004,-13,28,1
51,-163,14,970,-17,15,-1
52,-130,-3,996,-21,-11,-7
53,-14,-43,998,-20,-27,-11
54,108,-46,1002,-14,-22,-12
55,151,-45,1006,-12,-3,-9
56,65,-12,1006,-9,20,-3
57,-61,8,998,-11,27,-1
58,-157,19,976,-16,17,-2
59,-140,-6,996,-20,-6,-5
60,-40,-36,995,-21,-25,-12
61,97,-42,1011,-18,-25,-13
62,150,-50,1004,-12,-7,-10
63,84,-18,997,-8,16,-2
64,-37,6,999,-12,28,0
65,-150,21,982,-18,21,1
66,-150,-4,996,-19,-1,-7
67,-66,-30,984,-19,-23,-12
68,89,-41,1012,-16,-28,-12
69,146,-51,1011,-14,-12,-11
70,103,-20,1006,-10,15,-4
71,-15,4,991,-11,28,-1
72,-141,20,983,-14,22,1
73,-159,-1,990,-19,1,-4
74,-82,-20,991,-21,-19,-9
75,68,-43,1009,-18,-27,-13
76,133,-57,1009,-14,-15,-12
77,118,-26,1003,-7,8,-4
78,11,-1,998,-9,28,-2
79,-127,19,994,-14,26,3
80,-159,5,976,-18,6,-3
81,-95,-11,988,-20,-16,-8
82,46,-47,1008,-20,-29,-13
83,123,-56,1009,-14,-18,-12
84,138,-31,1002,-11,4,-8
85,26,-2,1008,-10,27,-3
86,-108,16,995,-13,26,2
87,-163,12,978,-18,8,-2
88,-112,-11,983,-21,-14,-7
89,18,-49,1008,-19,-27,-12
90,119,-53,1004,-14,-19,-13
91,141,-40,1007,-9,1,-8
92,43,-6,1002,-9,22,-1
93,-87,10,1007,-11,28,1
94,-158,16,970,-17,14,-1
95,-129,-6,998,-20,-10,-7
96,-9,-39,998,-22,-27,-13
97,112,-51,1003,-15,-22,-13
98,150,-41,1003,-10,-4,-9
99,56,-12,1011,-10,21,-2
100,-64,9,1001,-9,28,0
101,-159,19,975,-15,17,0
102,-137,-2,995,-19,-7,-6
103,-34,-38,999,-21,-25,-12
104,102,-45,1007,-17,-24,-13
105,150,-49,1003,-12,-7,-10
106,76,-18,1003,-7,16,-2
107,-42,8,999,-10,27,0
108,-152,22,981,-17,19,1
109,-147,-3,998,-20,-3,-6
110,-57,-32,990,-21,-24,-11
111,85,-42,1009,-15,-27,-12
112,150,-53,1010,-12,-11,-11
113,93,-22,1006,-8,15,-5
114,-17,8,986,-11,28,0
115,-144,21,987,-15,21,1
116,-157,0,992,-19,0,-4
117,-77,-26,988,-22,-21,-9
118,73,-44,1010,-16,-28,-13
119,135,-56,1015,-11,-12,-11
120,116,-25,1003,-8,10,-5
121,3,1,998,-11,27,-2
122,-130,20,987,-14,26,2
123,-164,0,985,-19,4,-3
124,-91,-12,987,-20,-17,-9
125,47,-46,1012,-18,-28,-13
126,129,-55,1007,-13,-17,-12
127,133,-28,1001,-8,7,-5
128,18,1,1006,-10,27,-2
129,-110,13,1000,-14,26,2
130,-165,9,972,-21,8,-2
131,-105,-9,985,-21,-15,-8
132,24,-48,1013,-18,-28,-14
133,122,-55,1006,-15,-19,-13
134,144,-33,1005,-8,2,-6
135,31,-2,1005,-8,24,-2
136,-91,14,1001,-12,29,1
137,-162,15,974,-17,13,-2
138,-125,-5,994,-21,-11,-8
139,3,-49,1002,-19,-27,-14
140,115,-48,998,-13,-22,-12
141,147,-40,1005,-8,-2,-8
142,53,-8,1012,-9,22,-2
143,-72,9,998,-13,28,1
144,-159,19,976,-16,16,-1
145,-134,-3,993,-20,-9,-7
146,-25,-39,999,-21,-26,-12
147,103,-49,1005,-15,-23,-12
148,149,-46,1003,-10,-5,-9
149,74,-17,1001,-6,19,-2
150,-51,9,1002,-12,27,1
151,-151,26,978,-19,18,1
152,-144,-5,997,-20,-2,-6
153,-52,-32,993,-19,-23,-11
154,92,-45,1008,-15,-26,-13
155,146,-53,1008,-10,-9,-11
156,91,-22,1001,-8,15,-4
157,-24,6,991,-9,29,-3
158,-144,20,987,-15,23,2
159,-151,1,994,-20,-1,-5
160,-74,-23,986,-20,-21,-10
161,78,-42,1011,-17,-27,-13
162,137,-55,1011,-13,-11,-11
163,109,-26,1004,-9,11,-4
164,0,1,993,-9,26,-2
165,-135,17,986,-15,24,2
166,-158,2,984,-20,3,-3
167,-89,-16,994,-20,-17,-9
168,54,-41,1007,-18,-27,-12
169,131,-55,1009,-11,-17,-12
170,127,-26,1004,-8,7,-5
171,16,0,1002,-9,26,-1
172,-116,12,998,-13,27,1
173,-164,8,973,-17,8,-3
174,-105,-12,985,-21,-16,-8
175,29,-44,1016,-16,-29,-13
176,123,-51,1004,-15,-19,-12
177,141,-30,1008,-10,4,-8
178,31,-4,1005,-9,24,-2
179,-98,9,1000,-12,26,1
180,-164,8,973,-18,11,-2
181,-118,-6,995,-21,-11,-8
182,6,-45,1001,-19,-26,-11
183,115,-46,1000,-14,-20,-12
184,148,-36,1006,-9,-3,-8
185,47,-6,1007,-10,22,-3
186,-73,9,1003,-12,29,0
187,-161,16,973,-16,15,0
188,-132,-4,993,-19,-9,-6
189,-22,-43,1000,-19,-27,-12
190,105,-45,1007,-15,-24,-13
191,154,-47,999,-12,-5,-10
192,70,-12,1008,-8,20,-1
193,-53,6,995,-10,28,0
194,-156,21,980,-17,19,0
195,-144,-6,994,-20,-4,-6
196,-45,-34,995,-19,-24,-11
197,96,-45,1011,-15,-26,-13
198,144,-48,1004,-12,-9,-10
199,87,-20,1005,-7,16,-4
200,-32,2,993,-10,29,-1
201,-147,23,984,-14,21,0
202,-149,-5,994,-20,-1,-6
203,-67,-23,988,-19,-22,-10
204,83,-41,1009,-16,-27,-14
205,138,-53,1012,-13,-10,-12
206,107,-26,1008,-10,12,-4
207,-9,2,990,-9,27,-2
208,-135,19,987,-13,22,1
209,-153,3,988,-18,2,-4
210,-86,-21,991,-21,-18,-9
211,62,-44,1010,-18,-27,-12
212,128,-59,1006,-14,-14,-12
213,120,-26,1005,-7,9,-6
214,14,2,1000,-10,26,-1
215,-120,11,1000,-14,27,2
216,-158,9,971,-19,5,-4
217,-100,-12,988,-20,-15,-7
218,34,-43,1008,-19,-29,-12
219,121,-55,1009,-14,-16,-13
220,135,-33,1007,-10,5,-7
221,28,-2,999,-9,26,-1
222,-97,13,1002,-10,26,1
223,-163,13,971,-18,10,-2
224,-115,-8,992,-22,-12,-7
225,8,-46,1005,-20,-26,-14
226,115,-48,1004,-16,-20,-13
227,149,-37,1006,-8,-1,-9
228,41,-9,1009,-7,24,-3
229,-78,12,1003,-12,29,0
230,-159,15,973,-17,16,-1
231,-129,1,997,-22,-9,-6
232,-15,-41,997,-21,-27,-12
233,105,-47,1007,-13,-23,-13
234,151,-43,1000,-12,-4,-7
235,63,-14,1009,-7,21,-3
236,-54,6,999,-10,28,1
237,-155,22,979,-16,20,0
238,-137,-2,992,-18,-6,-5
239,-47,-35,998,-20,-24,-11
240,96,-45,1008,-15,-25,-12
241,147,-51,1002,-11,-8,-11
242,85,-19,1001,-7,15,-3
243,-33,6,997,-9,29,-1
244,-147,21,982,-16,21,0
245,-147,-3,998,-18,-2,-5
246,-66,-27,986,-21,-23,-11
247,77,-41,1006,-16,-27,-13
248,143,-55,1016,-13,-12,-11
249,101,-26,1002,-9,13,-4
250,-7,4,990,-10,28,-3
251,-135,22,986,-14,24,1
252,-159,3,991,-20,3,-3
253,-84,-20,987,-22,-18,-9
254,59,-43,1013,-18,-27,-13
255,128,-57,1008,-12,-15,-11
256,126,-28,1000,-7,8,-5
257,9,1,1005,-9,26,1
258,-119,17,991,-15,27,2
259,-162,6,979,-17,7,-4
260,-99,-11,983,-22,-17,-9
261,35,-47,1010,-19,-29,-14
262,122,-54,1007,-14,-17,-12
263,139,-28,1006,-9,5,-7
264,28,-3,1001,-10,26,-2
265,-103,13,1000,-13,27,2
266,-161,12,973,-19,9,-1
267,-117,-8,991,-21,-13,-8
268,14,-44,1005,-19,-27,-13
269,117,-53,1001,-14,-19,-13
270,143,-33,1006,-8,0,-8
271,42,-7,1006,-9,22,-1
272,-81,11,1000,-12,30,0
273,-161,17,973,-17,14,-2
274,-125,-3,996,-21,-10,-7
275,-13,-45,997,-20,-27,-12
276,106,-47,1003,-14,-23,-12
277,152,-45,1001,-10,-3,-11
278,61,-11,1007,-8,21,-2
279,-58,14,1000,-10,29,1
280,-156,20,979,-17,18,-1
281,-139,-5,996,-20,-6,-5
282,-40,-39,996,-20,-24,-11
283,96,-46,1011,-15,-26,-14
284,149,-50,1004,-11,-7,-9
285,83,-19,998,-6,16,-2
286,-35,7,996,-11,27,0
287,-149,24,984,-16,21,1
288,-146,-2,993,-19,-2,-5
289,-67,-28,988,-21,-23,-12
290,85,-46,1008,-15,-28,-13
291,139,-54,1014,-13,-11,-10
292,104,-24,1003,-8,14,-2
293,-12,5,994,-10,27,-1
294,-136,22,981,-14,22,2
295,-159,3,989,-20,2,-4
296,-85,-21,991,-21,-20,-10
297,62,-48,1010,-18,-28,-13
298,133,-59,1010,-11,-15,-12
299,121,-25,1002,-7,9,-4
300,13,0,1001,-10,26,-3
301,-121,17,996,-14,26,2
302,-166,8,971,-22,7,-2
303,-96,-14,991,-21,-17,-9
304,38,-49,1008,-17,-28,-13
305,123,-54,1006,-14,-17,-12
306,136,-30,1009,-10,5,-7
307,26,-5,1000,-9,26,-2
308,-101,18,999,-12,28,2
309,-164,12,974,-19,10,-2
310,-113,-9,990,-20,-13,-9
311,10,-49,1003,-19,-26,-11
312,117,-52,1004,-15,-21,-13
313,146,-34,1005,-8,-2,-8
314,44,-6,1006,-9,23,-1
315,-78,11,1002,-11,28,1
316,-159,20,974,-16,15,0
317,-127,-3,992,-23,-10,-6
318,-16,-44,998,-19,-26,-12
319,107,-48,1004,-16,-22,-11
320,149,-47,999,-10,-3,-9
321,63,-13,1007,-8,22,-3
322,-57,8,1001,-10,28,-1
323,-155,25,977,-15,16,0
324,-136,-5,993,-20,-6,-4
325,-43,-35,996,-20,-23,-11
326,98,-47,1009,-16,-24,-12
327,148,-54,1005,-11,-7,-11
328,86,-21,1003,-8,17,-3
329,-34,10,991,-9,30,-1
330,-151,22,988,-16,22,2
331,-147,0,991,-20,-2,-5
332,-68,-29,989,-21,-22,-10
333,83,-43,1008,-18,-28,-13
334,141,-57,1016,-12,-9,-11
335,107,-25,1005,-9,14,-3
336,-12,4,994,-9,28,-1
337,-136,22,985,-12,24,2
338,-159,3,986,-19,2,-3
339,-85,-19,992,-21,-19,-10
340,62,-44,1010,-20,-28,-13
341,128,-60,1008,-14,-14,-13
342,123,-23,1003,-8,9,-7
343,8,-1,1004,-10,26,-3
344,-120,13,993,-15,22,-1
345,-162,8,979,-20,5,-3
346,-98,-10,983,-21,-17,-9
347,34,-46,1012,-19,-29,-13
348,123,-55,1006,-13,-17,-13
349,138,-33,1004,-9,4,-7
350,26,-4,1004,-8,26,0
351,-101,14,999,-10,27,1
352,-161,11,971,-20,10,-1
353,-116,-8,993,-21,-13,-5
354,9,-48,1002,-21,-28,-12
355,120,-53,999,-14,-20,-13
356,145,-36,1010,-7,0,-8
357,47,-6,1001,-7,22,-2
358,-79,11,1006,-11,28,0
359,-164,19,971,-17,14,0
360,-132,-2,996,-20,-9,-7
361,-13,-44,1001,-18,-27,-13
362,104,-49,1000,-15,-23,-13
363,152,-43,1002,-11,-5,-10
364,65,-17,1008,-9,21,-3
365,-57,10,996,-11,28,1
366,-187,23,813,-9,13,2
367,214,30,904,21,-10,4
368,115,18,1383,-12,13,-8
369,-209,2,767,-55,29,4
370,-234,-115,788,-51,21,-21
371,-314,-65,1066,-4,-19,11
372,259,-39,1007,-18,-51,-27
373,269,-75,991,-2,-15,-24
374,68,84,1021,10,2,24
375,6,26,1078,-22,24,-20
376,-229,-51,921,-20,35,6
377,-172,21,947,-23,4,11
378,58,-82,1094,-21,-21,-34
379,84,-26,921,-7,-20,-2
380,99,42,1008,-13,-11,-4
381,-21,-16,1076,-20,9,-12
382,-107,-3,932,-24,20,8
383,-99,-46,993,-26,8,-6
384,-16,-75,1027,-12,-13,-14
385,89,-36,968,-5,-18,-10
386,58,0,1004,-4,-10,-9
387,5,35,1036,-8,6,-4
388,-68,2,972,-22,18,-3
389,-119,-7,972,-23,7,0
390,-24,-49,1024,-21,-14,-11
391,33,-70,986,-13,-19,-14
392,88,-16,994,-4,-15,-8
393,63,8,1032,-8,4,-10
394,-25,16,992,-16,18,0
395,-99,14,978,-22,17,0
396,-99,-18,1006,-26,2,-5
397,-28,-56,987,-20,-16,-11
398,50,-51,991,-12,-21,-13
399,106,-31,1015,-8,-10,-13
400,62,-4,1002,-9,10,-7
401,-27,18,1003,-14,24,-1
402,-109,2,987,-18,19,-2
403,-124,-59,982,-16,-1,-4
404,-61,-89,981,-4,-21,-10
405,62,-45,1006,5,-25,-14
406,138,13,1007,5,-10,-12
407,93,68,1008,-5,15,-4
408,-12,65,1016,-20,27,-1
409,-130,15,980,-33,20,0
410,-152,-54,985,-31,0,-3
411,-78,-106,986,-23,-21,-11
412,66,-88,1005,-8,-26,-12
413,145,-45,1002,1,-12,-11
414,108,25,1008,3,11,-5
415,-4,65,1005,-7,27,-1
416,-135,54,989,-22,25,1
417,-161,-6,993,-31,2,-4
418,-90,-68,982,-28,-21,-10
419,68,-89,999,-17,-29,-15
420,139,-78,1010,-4,-14,-12
421,123,-13,1014,0,10,-5
422,4,39,995,-4,27,-3
423,-131,60,987,-16,25,2
424,-164,15,993,-26,4,-3
425,-102,-31,984,-28,-18,-8
426,54,-72,1008,-22,-29,-14
427,130,-85,1007,-12,-18,-14
428,132,-33,999,-1,7,-6
429,20,16,1005,-3,27,-2
430,-117,38,998,-11,29,2
431,-166,31,977,-20,9,-3
432,-110,-5,984,-24,-16,-8
433,33,-54,1011,-23,-30,-13
434,124,-75,1002,-17,-19,-11
435,140,-47,1003,-9,4,-8
436,33,-8,1009,-5,26,-2
437,-102,21,995,-8,28,2
438,-162,27,973,-15,11,-3
439,-122,6,996,-21,-13,-8
440,8,-41,1000,-22,-28,-14
441,117,-61,1001,-18,-21,-14
442,147,-50,1008,-11,-1,-9
443,48,-20,1000,-8,23,-3
444,-80,7,1006,-9,29,1
445,-162,27,972,-14,14,0
446,-134,8,1000,-19,-9,-7
447,-14,-32,997,-22,-28,-12
448,107,-46,1003,-17,-22,-12
449,150,-50,1004,-13,-4,-9
450,64,-23,1007,-8,21,-2
451,-58,4,998,-9,29,0
452,-158,21,977,-14,17,2
453,-142,2,995,-19,-5,-5
454,-40,-31,1000,-19,-25,-12
455,97,-39,1009,-17,-25,-12
456,151,-49,1005,-12,-7,-13
457,83,-23,1001,-10,16,-2
458,-35,0,993,-12,28,0
459,-149,19,989,-16,21,0
460,-148,-1,994,-18,-2,-5
461,-66,-26,986,-19,-23,-10
462,82,-37,1011,-15,-27,-13
463,141,-50,1010,-13,-11,-12
464,103,-26,1003,-10,14,-4
465,-25,-20,890,-9,32,2
466,317,16,372,67,35,16
467,181,70,1745,6,68,-3
468,-566,138,687,-104,46,35
469,-381,-75,429,-55,28,-43
470,-448,-11,1090,12,-49,-90
471,344,-75,1331,-50,-95,-2
472,497,-324,809,-11,-31,-59
473,100,-51,919,25,15,23
474,42,-20,1279,28,30,1
475,-264,38,857,12,61,-10
476,-385,124,812,-6,18,38
477,22,143,1279,-11,-51,-32
478,181,-54,895,-43,-41,-27
479,203,1,939,-28,-20,5
480,87,-82,1180,-33,10,-12
481,-93,-130,898,-26,42,-1
482,-251,-48,913,-11,28,15
483,-139,-17,1090,-1,-14,-17
484,63,-9,963,-4,-33,-19
485,134,58,978,-1,-31,-9
486,127,51,1088,-18,-9,-12
487,41,-19,986,-30,25,-6
488,-157,-39,936,-33,31,8
489,-153,-47,1039,-24,7,-7
490,-54,-89,980,-19,-19,-18
491,46,-8,957,-5,-31,-9
492,146,32,1058,-9,-22,-16
493,119,28,1012,-20,10,-11
494,-12,31,973,-30,32,6
495,-116,3,1007,-38,27,1
496,-125,-64,992,-35,8,-5
497,-85,-88,942,-21,-14,-7
498,-9,-94,1008,-5,-27,-15
499,117,-42,1018,1,-22,-15
500,107,16,986,3,5,-5
501,50,80,1017,-6,21,0
502,-82,56,1018,-22,27,1
503,-156,0,968,-32,10,-1
504,-126,-66,988,-31,-16,-8
505,18,-88,1005,-18,-28,-14
506,124,-87,989,-8,-19,-13
507,140,-22,1019,2,2,-7
508,43,28,1006,-4,23,-3
509,-102,62,980,-14,26,3
510,-171,22,1002,-23,9,-2
511,-128,-19,985,-28,-13,-7
512,31,-73,997,-24,-29,-13
513,124,-84,1008,-14,-21,-12
514,147,-46,1011,-6,2,-8
515,47,3,993,-3,25,-3
516,-113,39,995,-8,31,3
517,-170,29,984,-18,13,-4
518,-128,-5,982,-24,-13,-9
519,19,-42,1002,-23,-31,-12
520,125,-72,1011,-17,-22,-15
521,152,-48,1002,-7,-1,-8
522,53,-12,1003,-8,24,-2
523,-97,17,1001,-10,30,2
524,-168,21,975,-16,14,0
525,-134,4,980,-20,-11,-5
526,0,-36,1011,-19,-30,-13
527,117,-54,1006,-16,-23,-15
528,155,-40,1002,-11,-1,-9
529,62,-17,1011,-9,22,-3
530,-74,4,1000,-10,31,2
531,-167,13,969,-16,17,0
532,-138,3,997,-19,-7,-6
533,-24,-33,993,-20,-27,-12
534,108,-42,1001,-15,-25,-14
535,155,-41,1010,-12,-5,-9
536,72,-19,1007,-12,21,-3
537,-54,0,1002,-11,30,0
538,-164,13,974,-14,20,2
539,-147,-1,992,-19,-6,-5
540,-44,-31,997,-19,-26,-12
541,95,-42,1007,-17,-26,-11
542,161,-43,1006,-13,-8,-11
543,85,-19,1004,-10,17,-3
544,-37,7,1000,-13,28,1
545,-157,16,984,-16,22,2
546,-152,-3,988,-19,-1,-4
547,-66,-38,991,-19,-23,-11
548,85,-39,1010,-16,-30,-12
549,153,-47,1009,-12,-13,-12
550,105,-20,1003,-8,13,-4
551,-16,5,992,-12,29,1
552,-145,20,987,-16,25,2
553,-162,-4,991,-20,1,-4
554,-86,-25,985,-19,-21,-10
555,66,-42,1007,-17,-28,-13
556,142,-51,1018,-13,-14,-12
557,123,-24,1006,-8,10,-6
558,31,30,709,-18,32,7
559,459,189,1107,25,58,6
560,-240,54,1592,-70,73,-2
561,-352,116,541,-106,38,40
562,-376,-243,593,-59,26,-65
563,-557,-110,1123,7,-50,-72
564,541,-291,1234,-19,-117,-46
565,218,-206,805,39,-17,-29
566,328,123,1019,40,-5,8
567,92,86,1299,28,45,-10
568,-312,177,739,-17,71,23
569,-324,56,950,-44,6,28
570,-56,-13,1214,-26,-44,-38
571,92,-159,795,-47,-34,-16
572,236,-54,1046,-3,-27,-13
573,120,-67,1140,-9,13,-7
574,-56,-14,865,-7,41,2
575,-238,25,1010,-10,27,14
576,-156,21,1041,-15,-4,-12
577,11,-42,933,-19,-23,-19
578,123,-12,1012,-9,-29,-9
579,155,-25,1062,-13,-7,-12
580,56,-44,970,-13,22,-6
581,-152,4,977,-12,28,9
582,-151,0,1024,-15,8,-8
583,-87,-37,971,-14,-12,-11
584,37,-2,980,-12,-29,-7
585,157,-16,1047,-14,-21,-18
586,118,-19,997,-16,6,-7
587,-15,8,982,-19,24,5
588,-114,0,1010,-22,23,-3
589,-137,-28,983,-23,7,-2
590,-80,-34,968,-21,-15,-8
591,55,-31,1030,-15,-25,-14
592,113,-46,992,-13,-15,-13
593,7,-58,969,-7,3,-4
594,-6,-2,1012,-4,10,-4
595,-65,18,994,-10,12,-6
596,-53,37,990,-14,-2,-2
597,-46,9,1019,-19,-11,-9
598,24,-19,989,-23,-17,-10
599,66,-60,998,-19,-7,-10
600,60,-53,1016,-13,7,-6
601,17,-28,976,-10,17,-4
602,-77,5,986,-9,17,-1
603,-117,7,1007,-13,2,-4
604,-80,10,990,-17,-11,-9
605,24,-21,1000,-20,-19,-11
606,89,-41,1013,-17,-12,-11
607,107,-38,1005,-13,3,-7
608,27,-23,987,-11,18,-3
609,-88,0,1002,-12,21,0
610,-138,-2,982,-15,7,-4
611,-105,-5,982,-18,-10,-6
612,18,-27,1013,-17,-24,-10
613,98,-42,1008,-14,-17,-12
614,128,-22,1004,-11,1,-8
615,42,-10,1005,-11,19,-3
616,-82,0,1000,-16,25,0
617,-147,-1,975,-19,11,-2
618,-123,-14,985,-18,-9,-6
619,0,-42,1003,-17,-25,-12
620,100,-42,1004,-13,-19,-11
621,142,-22,1006,-11,-3,-7
622,55,-1,1009,-9,20,-3
623,-66,4,1000,-15,28,1
624,-154,8,976,-19,16,-1
625,-130,-12,993,-20,-6,-6
626,-30,-48,993,-18,-26,-12
627,100,-45,1000,-11,-24,-12
628,148,-34,1013,-9,-8,-10
629,72,-3,1004,-10,18,-3
630,-50,11,1008,-12,28,0
631,-153,16,973,-17,18,0
632,-144,-7,990,-19,-5,-4
633,-47,-45,996,-19,-24,-11
634,91,-48,1007,-15,-26,-13
635,151,-44,1001,-10,-9,-11
636,87,-14,1003,-8,16,-3
637,-27,11,1003,-11,29,0
638,-149,21,985,-18,22,0
639,-150,-3,987,-20,-1,-4
640,-68,-37,996,-19,-21,-11
641,79,-45,1003,-15,-27,-12
642,151,-52,1011,-13,-12,-12
643,104,-24,1005,-8,13,-5
644,-8,6,989,-11,28,-1
645,-136,22,988,-14,24,1
646,-159,-3,991,-18,2,-5
647,-87,-21,984,-21,-19,-10
648,61,-43,1010,-17,-27,-12
649,134,-53,1010,-13,-14,-11
650,126,-28,1006,-7,10,-5
651,9,2,996,-8,27,-1
652,-123,20,989,-15,26,1
653,-163,0,983,-20,5,-3
654,-105,-14,986,-21,-15,-8
655,42,-43,1013,-19,-28,-12
656,123,-55,1008,-12,-18,-14
657,135,-25,1006,-8,4,-7
658,30,-2,1005,-10,25,-2
659,-108,9,999,-13,28,2
660,-77,11,447,47,29,-4
661,559,166,1113,71,49,-16
662,-155,82,1408,-79,48,0
663,-255,87,443,-117,56,52
664,-392,-332,551,-55,44,-73
665,-568,-82,1263,26,-44,-52
666,581,-383,1147,-9,-100,-51
667,-57,-173,783,63,-5,-15
668,363,196,1056,58,-43,11
669,121,124,1346,36,32,-30
670,-183,202,646,-21,63,32
671,-216,102,1068,-45,21,22
672,-35,-48,1173,-42,-21,-40
673,-32,-189,738,-49,-20,4
674,102,-79,1092,-1,-33,-13
675,46,-113,1114,-5,-5,-12
676,10,-8,846,7,24,0
677,-104,42,1067,4,16,6
678,0,63,1035,-5,1,-15
679,8,-13,923,-19,-2,-8
680,-26,18,1023,-13,-16,-2
681,10,-49,1044,-23,-7,-14
682,-27,-80,943,-17,7,-5
683,-83,-38,1005,-16,2,5
684,35,-13,1045,-7,-4,-18
685,35,-14,961,-7,-6,-9
686,21,57,990,-4,-6,-1
687,17,20,1049,-22,0,-11
688,-47,0,963,-27,10,-1
689,-90,-38,992,-31,6,1
690,-50,-66,1015,-25,-7,-10
691,18,-60,981,-14,-13,-9
692,50,-17,995,-10,-13,-9
693,60,15,1032,-10,-3,-10
694,23,30,979,-18,9,-4
695,-74,21,983,-26,13,2
696,-87,-25,1012,-28,4,-4
697,-72,-61,976,-26,-9,-8
698,15,-56,992,-16,-19,-9
699,73,-43,1022,-9,-14,-12
700,92,-1,989,-7,2,-8
701,-30,33,985,-9,15,-3
702,-77,34,1017,-21,11,-2
703,-98,-26,980,-28,1,-6
704,-42,-49,969,-26,-15,-6
705,35,-72,1029,-16,-20,-11
706,76,-63,995,-6,-10,-12
707,80,-12,994,-3,6,-6
708,12,22,1015,-7,19,-3
709,-72,32,1003,-15,20,-1
710,-116,13,971,-23,7,-2
711,-96,-21,996,-25,-11,-6
712,8,-67,1006,-22,-21,-12
713,83,-74,991,-14,-14,-13
714,116,-35,1005,-5,1,-7
715,48,2,1015,-5,18,-4
716,-63,27,999,-10,22,0
717,-135,33,978,-19,12,-3
718,-115,-6,998,-26,-6,-7
719,-27,-55,995,-23,-22,-11
720,89,-62,997,-18,-21,-12
721,135,-51,1005,-9,-5,-10
722,64,-12,1006,-6,18,-2
723,-47,22,1005,-9,26,0
724,-142,31,982,-16,18,-1
725,-133,5,991,-20,-4,-4
726,-44,-40,1000,-22,-21,-11
727,83,-53,1004,-18,-24,-12
728,140,-57,995,-12,-8,-10
729,82,-26,1006,-7,14,-5
730,-33,6,1000,-9,25,-1
731,-139,27,979,-15,22,1
732,-144,4,996,-19,-1,-4
733,-67,-24,992,-21,-20,-10
734,77,-44,1005,-19,-27,-13
735,141,-54,1012,-13,-13,-11
736,100,-31,1000,-10,12,-3
737,-9,-1,995,-10,28,-1
738,-129,22,982,-13,23,2
739,-156,4,997,-19,3,-5
740,-89,-16,987,-20,-19,-9
741,57,-37,1010,-18,-29,-13
742,133,-54,1009,-14,-16,-13
743,123,-29,1007,-9,7,-5
744,13,-3,994,-10,26,-2
745,-118,13,987,-14,25,1
746,-163,0,984,-17,6,-3
747,-103,-12,986,-20,-16,-8
748,38,-39,1012,-18,-29,-12
749,120,-49,1005,-12,-17,-12
750,137,-28,1008,-10,3,-7
751,30,-4,1005,-10,25,-2
752,-102,12,999,-14,28,2
753,-161,4,973,-18,10,-2
754,-121,-9,982,-20,-14,-7
755,14,-42,1006,-17,-29,-12
756,114,-50,1008,-13,-21,-12
757,150,-28,1006,-9,2,-7
758,51,-6,1007,-11,23,-3
759,-86,9,998,-13,27,1
760,-164,10,973,-18,13,-2
761,-133,-9,992,-21,-10,-7
762,-11,-44,998,-19,-26,-11
763,110,-48,1004,-14,-23,-12
764,265,-11,366,-36,-21,4
765,855,161,1060,41,52,0
766,-378,250,1195,-145,98,28
767,-230,117,407,-147,115,70
768,-660,-249,371,-65,109,-94
769,-1192,-11,945,-21,-59,-91
770,634,-525,1412,13,-226,-103
771,7,-269,986,35,-67,-41
772,778,-59,739,51,-73,-48
773,595,104,1577,93,33,-26
774,-295,364,654,-9,118,65
775,-378,215,980,-44,63,30
776,-417,36,1237,-52,-4,-26
777,-208,-155,678,-85,-53,-6
778,341,-213,1100,-14,-88,-43
779,271,-195,1132,-7,-34,-18
780,238,-46,838,13,27,-2
781,-170,57,1097,17,62,12
782,-294,127,1005,-7,33,9
783,-195,35,910,-22,-4,-11
784,-26,-5,1039,-20,-54,-13
785,201,-66,1032,-25,-55,-21
786,229,-117,985,-11,-9,-20
787,11,-35,995,-4,23,10
788,-94,16,1013,-4,37,-2
789,-205,-3,974,-12,21,-3
790,-143,64,966,-15,-19,-1
791,64,3,1057,-21,-39,-23
792,139,-34,994,-23,-30,-15
793,132,-22,993,-22,-3,-3
794,37,-45,1020,-23,24,-6
795,-113,-33,979,-21,32,7
796,-155,-15,965,-17,11,-2
797,-107,-8,1007,-16,-16,-11
798,37,-11,1002,-15,-33,-14
799,109,-25,1008,-16,-22,-14
800,141,-17,1015,-17,1,-10
801,61,-26,992,-17,29,-3
802,-59,-25,990,-14,33,1
803,-104,-57,985,-8,19,-3
804,-111,-53,972,1,2,-8
805,-65,-21,991,3,-14,-8
806,22,34,1020,2,-16,-13
807,103,48,1003,-12,-6,-11
808,87,34,1004,-21,11,-7
809,-1,-4,1017,-28,20,-1
810,-113,-39,980,-28,16,-1
811,-139,-68,983,-22,0,-4
812,-76,-80,988,-12,-16,-11
813,54,-42,997,-3,-20,-12
814,138,0,1002,0,-11,-11
815,99,38,1019,-5,10,-5
816,-4,42,1011,-15,24,-1
817,-133,12,979,-25,21,0
818,-152,-36,983,-29,3,-2
819,-81,-84,997,-23,-18,-10
820,62,-76,993,-10,-25,-13
821,144,-41,1005,-1,-14,-11
822,111,11,1003,-1,9,-6
823,-4,42,1011,-8,25,-1
824,-130,50,988,-23,25,1
825,-158,-10,991,-27,6,-3
826,-95,-59,982,-24,-18,-9
827,54,-72,1007,-15,-28,-13
828,141,-62,1005,-7,-17,-14
829,123,-23,1007,-3,7,-7
830,13,32,998,-5,27,-1
831,-120,43,995,-16,27,3
832,-165,15,986,-24,6,-3
833,-110,-29,987,-25,-16,-9
834,41,-59,1004,-19,-30,-13
835,131,-74,1010,-13,-18,-14
836,135,-33,1005,-4,4,-7
837,34,8,1001,-6,25,-2
838,-107,32,990,-12,29,2
839,-169,15,989,-19,11,-2
840,-122,-8,985,-23,-14,-8
841,24,-48,1007,-19,-29,-12
842,122,-62,1007,-15,-23,-13
843,149,-38,1007,-8,0,-7
844,49,-4,1007,-8,24,-1
845,-95,13,997,-12,31,2
846,-168,14,973,-16,13,-1
847,-136,0,984,-20,-13,-6
848,3,-41,1002,-21,-29,-13
849,114,-55,1012,-15,-23,-14
850,154,-38,1003,-11,-3,-9
851,65,-15,1007,-9,22,-2
852,-78,9,1003,-11,29,3
853,-163,13,971,-18,16,-1
854,-142,-3,993,-20,-7,-6
855,-21,-36,993,-18,-26,-10
856,105,-46,1004,-15,-25,-13
857,160,-38,1011,-10,-8,-9
858,73,-14,1006,-11,20,-3
859,-52,1,1006,-12,31,0
860,-163,12,974,-17,20,1
861,-151,0,992,-18,-5,-5
862,-44,-39,996,-20,-27,-13
863,346,109,490,-46,-46,1
864,607,61,1441,-26,66,-25
865,-213,205,1015,-90,53,33
866,-228,-41,541,-122,92,38
867,-706,-246,623,-39,49,-87
868,-521,-130,1286,7,-73,-58
869,416,-494,1043,0,-118,-72
870,-53,-75,840,69,-40,-14
871,727,105,1126,57,-65,-28
872,223,169,1277,45,58,-19
873,-177,289,613,-28,82,52
874,-307,112,1242,-49,40,7
875,-314,-65,977,-62,-6,-25
876,-148,-224,772,-51,-47,-1
877,223,-143,1163,1,-74,-31
878,257,-162,1044,2,-21,-20
879,194,31,881,23,30,3
880,-99,107,1121,8,46,9
881,-194,120,954,-16,33,-1
882,-218,-4,944,-30,-2,-2
883,-101,-30,1023,-26,-44,-10
884,147,-126,1026,-22,-44,-24
885,170,-114,963,-4,-14,-13
886,92,-9,1035,5,14,2
887,7,32,1017,0,33,-7
888,-170,48,955,-9,27,6
889,-169,63,988,-19,-6,-2
890,-57,-22,1026,-29,-30,-18
891,66,-64,975,-25,-33,-12
892,130,-73,1007,-17,-16,-10
893,129,-58,1022,-11,9,-11
894,17,-11,975,-6,27,0
895,-85,42,1000,-8,26,-2
896,-133,35,997,-18,10,-8
897,-70,14,977,-22,-9,-8
898,6,-47,1001,-25,-15,-10
899,67,-70,1009,-19,-9,-10
900,81,-61,991,-12,5,-6
901,5,-22,992,-5,18,-2
902,-55,18,1014,-5,17,-3
903,-108,32,980,-13,8,-5
904,-94,17,994,-20,-7,-4
905,-10,-28,1013,-24,-19,-10
906,68,-57,988,-20,-16,-10
907,111,-58,991,-12,-2,-8
908,53,-30,1018,-8,16,-5
909,-41,0,996,-8,22,-1
910,-124,25,976,-11,14,-2
911,-123,13,1007,-18,-5,-4
912,-35,-24,991,-21,-19,-10
913,72,-45,1001,-19,-20,-11
914,127,-51,1002,-15,-8,-9
915,78,-32,1004,-9,13,-4
916,-24,-5,990,-9,23,0
917,-134,21,988,-14,19,-1
918,-133,1,999,-18,1,-6
919,-71,-23,988,-18,-18,-10
920,66,-37,1004,-17,-26,-13
921,134,-49,1011,-13,-13,-12
922,99,-28,1003,-9,11,-5
923,0,2,994,-11,26,-1
924,-125,16,989,-15,24,1
925,-150,-5,991,-19,4,-4
926,-97,-22,984,-19,-17,-8
927,53,-34,1007,-16,-28,-14
928,128,-48,1013,-13,-15,-13
929,122,-22,1007,-11,7,-6
930,20,4,995,-10,24,-1
931,-112,14,986,-16,25,2
932,-163,-5,988,-18,8,-3
933,-110,-20,986,-20,-13,-9
934,33,-44,1004,-17,-28,-13
935,119,-47,1010,-11,-20,-13
936,139,-22,1006,-7,2,-7
937,43,4,1004,-10,25,-3
938,-99,13,1002,-14,29,2
939,-167,5,970,-19,13,-2
940,-126,-16,983,-21,-13,-7
941,5,-49,1003,-19,-29,-13
942,114,-54,1011,-12,-21,-14
943,154,-30,1009,-9,-2,-8
944,56,-3,1001,-9,22,-2
945,-82,16,1004,-12,29,1
946,-165,12,977,-19,16,-1
947,-137,-6,987,-22,-6,-6
948,-15,-48,998,-20,-26,-13
949,104,-54,1004,-15,-24,-14
950,155,-38,1005,-9,-6,-9
951,71,-10,1009,-8,19,-3
952,-55,14,1005,-11,29,0
953,-156,17,979,-19,19,0
954,-145,-5,986,-21,-5,-4
955,423,266,317,-19,-32,-4
956,360,-33,1601,-54,76,-39
957,-143,331,716,-110,25,57
958,-134,-184,591,-156,100,15
959,-726,-239,658,-27,56,-98
960,-271,-181,1332,-11,-68,-71
961,273,-555,916,19,-75,-95
962,-295,-31,828,79,-29,-23
963,703,-23,1233,61,-92,-31
964,190,249,1211,70,42,-15
965,-39,280,616,-29,64,50
966,-149,172,1349,-33,35,1
967,-260,-25,904,-71,15,-14
968,-181,-213,754,-64,-22,5
969,57,-195,1210,-5,-61,-26
970,154,-193,972,0,-24,-17
971,163,-13,893,28,12,-4
972,18,108,1171,26,24,5
973,-60,138,942,-8,32,-4
974,-163,46,932,-26,12,2
975,-161,-4,1053,-25,-24,-4
976,12,-125,984,-30,-30,-24
977,80,-132,956,-5,-22,-12
978,96,-49,1054,7,-9,-4
979,100,9,1017,6,15,-13
980,-50,68,959,-1,23,3
981,-128,103,1016,-16,8,2
982,-93,8,1015,-31,-9,-14
983,-56,-37,951,-34,-20,-5
984,52,-75,1015,-28,-25,-9
985,100,-96,1027,-18,-10,-13
986,79,-37,969,-9,8,-3
987,4,22,1003,-6,16,-4
988,-65,35,1023,-11,14,-7
989,-98,13,951,-22,3,-5
990,-129,-64,982,-19,-11,-6
991,-27,-89,1000,-9,-27,-10
992,76,-76,996,0,-20,-15
993,149,16,1003,7,-8,-11
994,106,63,1029,-2,13,-7
995,-26,61,1000,-16,28,-7
996,-147,30,981,-29,22,2
997,-161,-26,1005,-32,-1,-4
998,-79,-105,966,-30,-21,-12
999,77,-93,993,-10,-28,-13
1000,161,-55,1020,-1,-14,-13
1001,112,9,1002,1,14,-5
1002,-15,55,1010,-4,29,1
1003,-147,59,994,-19,26,1
1004,-158,6,986,-27,3,-3
1005,-83,-58,985,-30,-21,-10
1006,63,-83,1010,-20,-29,-13
1007,156,-79,996,-9,-16,-14
1008,113,-33,1000,-2,11,-4
1009,-1,27,1004,-4,26,-1
1010,-133,47,998,-13,28,2
1011,-162,25,989,-21,6,-2
1012,-105,-24,983,-26,-19,-9
1013,59,-54,1005,-20,-30,-14
1014,138,-76,1011,-15,-18,-12
1015,133,-43,1001,-7,9,-7
1016,18,-6,997,-6,29,-2
1017,-119,33,982,-1,31,2
1018,-171,18,994,-14,9,-2
1019,-114,0,984,-21,-16,-9
1020,37,-36,1008,-22,-29,-13
1021,129,-59,1008,-17,-19,-13
1022,139,-45,1007,-10,4,-7
1023,39,-11,993,-8,24,-1
1024,-110,6,1001,-12,30,3
1025,-168,9,978,-17,12,-1
1026,-129,-1,979,-21,-12,-7
1027,15,-28,1012,-18,-29,-13
1028,117,-47,1014,-14,-23,-13
1029,154,-34,997,-12,-1,-8
1030,54,-13,1007,-11,23,-2
1031,-87,6,1006,-13,29,2
1032,-165,2,969,-18,14,0
1033,-141,-2,981,-18,-10,-5
1034,-8,-38,1010,-17,-28,-13
1035,107,-41,1007,-13,-25,-13
1036,158,-30,1003,-12,-5,-9
1037,69,-9,1011,-9,21,-3
1038,-65,3,1004,-14,30,1
1039,-162,8,973,-19,18,-1
1040,-147,-9,992,-20,-7,-5
1041,-35,-41,995,-19,-27,-12
1042,98,-44,1004,-13,-28,-13
1043,161,-38,1000,-9,-9,-10
1044,87,-10,1016,-9,19,-2
1045,-46,12,1001,-12,31,1
1046,-155,15,976,-18,22,1
1047,-153,-9,988,-21,-4,-4
1048,-60,-44,998,-19,-25,-11
1049,508,311,254,55,-4,-5
1050,410,-5,1621,-63,92,-44
1051,-194,420,633,-117,39,68
1052,-226,-278,537,-175,101,29
1053,-821,-378,580,-33,40,-93
1054,-431,-356,1398,29,-87,-73
1055,364,-617,894,55,-115,-97
1056,-100,84,899,124,-53,-3
1057,915,302,1248,89,-82,-39
1058,231,349,1222,33,76,-26
1059,-164,366,580,-64,88,71
1060,-367,52,1379,-80,47,2
1061,-378,-261,809,-93,-7,-28
1062,-155,-348,790,-38,-58,4
1063,265,-199,1223,25,-80,-39
1064,289,-120,986,30,-14,-22
1065,219,171,915,45,32,8
1066,-124,217,1169,3,51,8
1067,-208,128,915,-36,38,-1
1068,-244,-64,944,-47,-3,2
1069,-95,-117,1024,-31,-49,-13
1070,184,-212,1009,-9,-48,-29
1071,168,-108,958,19,-13,-8
1072,103,46,1054,24,18,1
1073,-2,92,1021,8,40,-9
1074,-187,93,956,-11,29,9
1075,-161,65,997,-27,-8,-4
1076,-40,-69,1025,-34,-30,-18
1077,64,-111,959,-21,-33,-8
1078,136,-93,1021,-10,-13,-10
1079,121,-53,1022,-1,13,-10
1080,1,27,967,3,29,-1
1081,-83,73,1013,-6,24,-7
1082,-133,57,995,-20,9,-7
1083,-89,29,980,-30,-11,-3
1084,0,-34,1006,-36,-21,-9
1085,107,-44,1000,-29,-10,-10
1086,108,-77,985,-24,9,-5
1087,5,-48,999,-14,24,1
1088,-75,-40,1008,-11,22,-3
1089,-139,1,956,-7,10,-5
1090,-110,15,1005,-9,-10,-4
1091,-9,3,1017,-16,-22,-12
1092,91,-20,1000,-19,-16,-11
1093,125,-30,993,-18,-4,-8
1094,59,-34,1013,-16,16,-3
1095,-41,-21,985,-14,23,-1
1096,-138,-1,978,-16,16,0
1097,-131,-9,1007,-15,-2,-5
1098,-53,-25,988,-15,-19,-9
1099,70,-21,1001,-14,-24,-11
1100,132,-35,1022,-11,-11,-10
1101,90,-14,1002,-13,11,-4
1102,-13,-3,988,-14,25,-2
1103,-126,5,989,-17,21,0
1104,-145,-18,995,-19,2,-4
1105,-83,-30,983,-19,-17,-8
1106,54,-39,1010,-15,-26,-12
1107,121,-43,1013,-12,-14,-12
1108,114,-15,1007,-10,7,-5
1109,17,8,999,-12,23,-2
1110,-108,13,994,-17,24,1
1111,-156,-4,979,-20,9,-1
1112,-105,-23,988,-22,-13,-8
1113,26,-51,1007,-18,-26,-11
1114,113,-53,1004,-11,-18,-13
1115,136,-17,1010,-7,3,-7
1116,41,4,1004,-9,24,-2
1117,-91,17,1001,-15,27,2
1118,-161,7,979,-20,11,-1
1119,-126,-12,982,-20,-11,-6
1120,0,-55,999,-18,-28,-13
1121,107,-54,1007,-14,-21,-13
1122,148,-32,1007,-9,-3,-9
1123,58,1,1005,-7,20,-3
1124,-68,17,1004,-12,28,1
1125,-161,21,978,-19,16,1
1126,-135,-7,993,-23,-7,-5
1127,-33,-48,996,-19,-25,-12
1128,100,-52,999,-15,-27,-14
1129,154,-43,1010,-7,-7,-10
1130,75,-11,1003,-8,20,-3
1131,-42,15,1009,-12,29,0
1132,-155,22,978,-18,19,1
1133,-148,1,991,-22,-4,-5
1134,-55,-42,996,-23,-24,-11
1135,82,-50,1007,-16,-25,-13
1136,152,-55,999,-12,-10,-12
1137,96,-22,1005,-6,15,-5
1138,-23,11,996,-9,28,0
1139,-146,25,990,-16,23,0
1140,-157,4,990,-21,1,-3
1141,-78,-33,988,-21,-21,-10
1142,71,-45,1006,-16,-28,-14
1143,140,-60,954,-18,-17,-12
1144,641,340,543,-10,18,1
1145,28,4,1818,-57,110,-26
1146,-324,370,475,-123,50,75
1147,-251,-360,607,-140,70,-14
1148,-902,-299,850,2,7,-68
1149,43,-430,1272,6,-117,-73
1150,228,-473,841,75,-77,-67
1151,214,198,981,113,-45,2
1152,711,315,1298,64,-21,-32
1153,-58,342,995,7,96,3
1154,-322,264,753,-79,62,63
1155,-335,-76,1308,-73,7,-21
1156,-221,-298,736,-72,-32,-24
1157,93,-305,945,-13,-64,-10
1158,330,-125,1194,35,-47,-33
1159,214,-4,924,29,23,-5
1160,-26,211,995,23,52,16
1161,-269,151,1101,-16,37,5
1162,-208,42,886,-41,4,-7
1163,-97,-125,991,-34,-37,-11
1164,120,-132,1041,-16,-52,-20
1165,255,-144,990,2,-19,-21
1166,76,-4,981,18,20,4
1167,-58,89,1059,7,37,3
1168,-168,74,970,-12,31,-4
1169,-193,50,963,-24,-4,3
1170,-26,-24,1027,-29,-38,-17
1171,124,-101,1009,-22,-37,-20
1172,153,-75,964,-12,-14,-7
1173,97,-30,1035,-6,18,-7
1174,-34,3,1004,-10,34,-2
1175,-132,52,952,-13,23,-1
1176,-139,45,1011,-18,0,-8
1177,-62,7,999,-30,-21,-10
1178,27,6,982,-34,-26,-10
1179,120,-59,1017,-32,-15,-12
1180,104,-94,997,-23,9,-6
1181,26,-87,972,-12,23,-3
1182,-113,-19,1003,-6,22,1
1183,-148,10,997,-2,6,-5
1184,-108,30,975,-9,-15,-9
1185,35,24,1022,-16,-26,-11
1186,130,-13,1017,-20,-17,-12
1187,133,-44,993,-22,5,-7
1188,24,-37,991,-18,23,-1
1189,-108,-28,993,-15,24,0
1190,-161,-28,979,-14,8,-4
1191,-123,-9,983,-9,-12,-6
1192,34,-12,1017,-11,-26,-12
1193,125,-21,1010,-11,-18,-14
1194,137,-5,1002,-11,2,-6
1195,43,-3,1007,-17,22,-3
1196,-101,-9,995,-20,29,2
1197,-169,-23,967,-21,13,-2
1198,-127,-30,989,-17,-11,-8
1199,12,-45,1008,-11,-28,-13
1200,110,-34,1004,-9,-23,-13
1201,152,-5,1007,-8,-3,-8
1202,57,10,1011,-11,24,-3
1203,-83,15,1002,-17,30,2
1204,-165,-4,972,-22,15,0
1205,-138,-25,982,-22,-9,-6
1206,-18,-63,998,-18,-27,-13
1207,104,-52,1008,-9,-24,-14
1208,159,-23,1007,-6,-7,-9
1209,72,10,1006,-7,20,-2
1210,-55,22,1011,-13,30,1
1211,-161,16,972,-20,19,2
1212,-147,-13,990,-22,-5,-4
1213,-44,-59,998,-21,-26,-12
1214,93,-58,999,-11,-26,-13
1215,157,-43,1002,-8,-9,-10
1216,89,0,1014,-7,18,-4
1217,-34,26,1005,-11,30,0
1218,-154,29,977,-19,22,2
1219,-155,-3,992,-23,-2,-3
1220,-64,-45,994,-22,-22,-11
1221,82,-59,1002,-17,-27,-13
1222,151,-55,1003,-9,-13,-13
1223,104,-18,1005,-5,13,-4
1224,-10,14,999,-8,28,-1
1225,-144,36,985,-17,27,2
1226,-162,5,995,-20,4,-4
1227,-92,-30,988,-23,-20,-9
1228,65,-50,1002,-19,-30,-13
1229,145,-59,1012,-12,-16,-14
1230,125,-34,1008,-9,9,-6
1231,9,6,989,-9,29,0
1232,-128,24,992,-12,27,3
1233,-172,9,989,-19,7,-1
1234,-110,-15,987,-22,-18,-9
1235,48,-41,1007,-19,-30,-13
1236,130,-61,1011,-14,-19,-14
1237,140,-31,1004,-7,4,-6
1238,30,-3,1000,-7,26,-1
1239,38,131,392,-42,6,8
1240,426,264,1253,-30,59,-14
1241,-396,236,1076,-117,32,18
1242,-167,26,292,-182,46,52
1243,-347,-514,449,-63,36,-108
1244,-637,-281,1512,37,-54,-57
1245,777,-533,1037,16,-116,-83
1246,-306,-177,694,114,27,-9
1247,492,383,1161,91,-63,2
1248,133,273,1409,47,39,-32
1249,-196,334,507,-40,63,37
1250,-203,83,1212,-79,8,26
1251,-22,-158,1150,-61,-24,-56
1252,-61,-324,613,-58,-14,7
1253,138,-142,1182,21,-37,-13
1254,53,-102,1109,13,1,-16
1255,7,80,796,22,29,4
1256,-155,150,1138,8,12,7
1257,-27,98,1031,-21,-5,-19
1258,28,-51,886,-34,-11,-10
1259,6,-50,1051,-18,-23,-3
1260,80,-114,1046,-17,-7,-18
1261,-22,-89,909,-3,17,-3
1262,-137,25,1029,4,10,10
1263,-30,27,1048,-6,-5,-20
1264,-9,20,949,-13,-10,-7
1265,50,49,1000,-17,-19,-6
1266,100,-32,1066,-24,-9,-18
1267,20,-53,944,-25,10,-1
1268,-82,-26,980,-23,17,4
1269,-88,-49,1043,-19,6,-9
1270,-81,-29,953,-14,-8,-5
1271,9,16,995,-9,-23,-9
1272,90,-1,1048,-14,-19,-16
1273,100,-5,979,-19,1,-7
1274,35,-3,975,-21,17,-2
1275,-44,-22,1012,-22,24,-2
1276,-112,-84,965,-14,15,-3
1277,-126,-48,971,-7,-6,-4
1278,-21,-22,1024,-1,-21,-12
1279,73,7,1000,-1,-19,-15
1280,122,35,1005,-8,-6,-7
1281,77,35,1022,-17,15,-8
1282,-48,-3,993,-26,24,1
1283,-148,-35,967,-25,15,0
1284,-142,-61,995,-23,-5,-6
1285,-23,-71,994,-13,-24,-12
1286,83,-47,997,-5,-22,-12
1287,151,4,1021,-2,-6,-9
1288,84,34,1010,-7,17,-5
1289,-54,37,998,-19,28,1
1290,-154,5,985,-28,18,0
1291,-144,-35,980,-27,-5,-5
1292,-34,-81,986,-21,-24,-11
1293,84,-72,1004,-10,-24,-13
1294,157,-31,1014,-2,-8,-11
1295,80,13,1003,-4,16,-3
1296,-44,41,1007,-11,28,0
1297,-149,30,981,-22,21,-1
1298,-150,-9,992,-25,-3,-5
1299,-50,-62,993,-23,-24,-11
1300,83,-75,997,-13,-26,-14
1301,153,-51,1002,-6,-10,-10
1302,94,-7,1014,-3,16,-4
1303,-26,25,1008,-8,30,0
1304,-146,38,977,-16,23,0
1305,-155,7,995,-21,0,-3
1306,-71,-41,993,-25,-23,-11
1307,75,-62,1001,-18,-28,-14
1308,150,-59,1003,-11,-13,-11
1309,103,-28,1003,-6,13,-5
1310,-10,8,997,-8,29,-1
1311,-140,34,989,-14,25,2
1312,-161,10,995,-20,3,-4
1313,-89,-27,986,-22,-20,-11
1314,62,-43,1002,-18,-29,-13
1315,145,-59,1014,-15,-15,-12
1316,121,-37,1002,-9,12,-5
1317,9,1,989,-8,30,-1
1318,-132,20,992,-13,27,2
1319,-169,8,991,-17,5,-3
1320,-105,-18,979,-20,-19,-10
1321,47,-36,1008,-18,-30,-14
1322,136,-50,1017,-14,-18,-14
1323,136,-32,1004,-10,7,-7
1324,30,-7,993,-9,28,-1
1325,-117,13,997,-13,28,2
1326,-166,1,978,-18,9,-3
1327,-119,-10,988,-20,-14,-8
1328,27,-36,1009,-18,-30,-12
1329,119,-52,1008,-14,-21,-13
1330,150,-29,1005,-10,1,-7
1331,43,-4,1007,-11,24,-2
1332,-29,63,605,-39,21,12
1333,483,342,864,-18,52,0
1334,-317,139,1365,-105,40,2
1335,-231,112,292,-161,40,71
1336,-295,-575,509,-92,35,-90
1337,-750,-295,1275,47,-45,-63
1338,697,-509,1152,28,-128,-80
1339,-148,-203,743,111,0,-9
1340,455,467,1107,104,-51,10
1341,211,318,1396,31,37,-38
1342,-226,333,617,-46,65,35
1343,-254,72,1097,-89,13,30
1344,-63,-242,1169,-70,-26,-58
1345,-31,-377,651,-49,-27,8
1346,180,-139,1145,31,-39,-16
1347,86,-69,1107,28,1,-17
1348,12,147,850,28,33,6
1349,-195,175,1095,-3,22,9
1350,-65,92,1039,-29,-6,-17
1351,26,-96,897,-44,-19,-9
1352,26,-100,1022,-21,-35,-7
1353,108,-130,1049,-11,-15,-17
1354,-6,-68,929,11,19,-5
1355,-140,51,1017,7,17,9
1356,-66,57,1051,-4,2,-17
1357,-21,23,959,-13,-14,-8
1358,50,26,990,-20,-26,-7
1359,114,-51,1061,-23,-15,-20
1360,51,-67,947,-19,8,-6
1361,-52,-23,981,-14,20,1
1362,-97,-26,1043,-11,16,-8
1363,-94,-4,953,-12,-1,-6
1364,9,32,989,-10,-20,-10
1365,89,19,1046,-18,-16,-16
1366,170,79,1001,-34,4,-11
1367,36,10,975,-43,31,-2
1368,-113,-45,1016,-44,31,6
1369,-191,-144,958,-37,15,-1
1370,-167,-122,942,-12,-10,-7
1371,6,-71,1031,6,-35,-14
1372,125,2,1014,13,-26,-18
1373,166,70,996,7,-1,-7
1374,82,101,1036,-13,23,-3
1375,-82,40,1007,-34,36,3
1376,-177,-32,951,-40,18,2
1377,-158,-94,985,-31,-10,-6
1378,-23,-123,993,-13,-31,-15
1379,105,-82,995,-1,-26,-15
1380,164,3,1021,7,-5,-10
1381,89,61,1015,2,21,-4
1382,-51,72,1005,-15,32,2
1383,-171,35,980,-29,19,2
1384,-158,-32,986,-35,-6,-6
1385,-42,-104,985,-28,-27,-13
1386,89,-98,994,-11,-27,-14
1387,166,-53,1013,0,-10,-12
1388,95,8,1011,3,18,-4
1389,-38,53,1006,-7,32,1
1390,-159,55,984,-20,23,0
1391,-160,10,992,-28,-2,-3
1392,-61,-54,991,-28,-25,-11
1393,86,-83,999,-18,-28,-14
1394,166,-74,998,-8,-11,-12
1395,106,-25,1010,-2,16,-4
1396,-21,21,1007,-4,31,-1
1397,-151,48,980,-11,24,1
1398,-165,22,990,-21,1,-4
1399,-81,-25,996,-26,-23,-10
1400,77,-57,1004,-21,-30,-14
1401,155,-68,1002,-13,-15,-11
1402,116,-40,1001,-6,12,-4
1403,-3,0,997,-7,30,-1
1404,-141,26,987,-11,28,1
1405,-167,20,992,-17,4,-4
1406,-99,-15,987,-20,-21,-10
1407,61,-30,1003,-18,-32,-13
1408,141,-56,1013,-15,-17,-14
1409,134,-42,1006,-11,7,-8
1410,13,-10,988,-10,28,0
1411,-126,16,987,-12,28,2
1412,-173,2,992,-17,6,-2
1413,-115,-9,979,-19,-17,-8
1414,41,-32,1008,-18,-29,-14
1415,131,-44,1016,-14,-19,-14
1416,144,-30,1001,-11,5,-6
1417,34,-5,999,-12,25,0
1418,-110,7,995,-15,29,2
1419,-167,-3,978,-16,11,-3
1420,-126,-8,982,-20,-14,-7
1421,18,-37,1011,-16,-30,-13
1422,123,-47,1009,-12,-22,-14
1423,146,-28,996,-11,1,-8
1424,469,302,267,-31,12,12
1425,32,14,1699,-61,113,-20
1426,-347,416,520,-130,23,61
1427,-221,-286,554,-164,67,0
1428,-785,-386,737,-8,0,-85
1429,-116,-359,1434,11,-115,-58
1430,487,-544,788,52,-89,-85
1431,-2,146,922,123,-13,4
1432,747,333,1300,64,-39,-23
1433,-80,338,1100,22,95,-9
1434,-300,297,632,-74,62,65
1435,-322,-48,1374,-77,0,-9
1436,-157,-282,785,-75,-35,-37
1437,78,-320,850,-25,-56,0
1438,306,-118,1220,33,-45,-30
1439,168,-51,962,24,22,-9
1440,-39,199,911,26,48,15
1441,-274,159,1153,-10,31,7
1442,-164,53,907,-39,-4,-13
1443,-41,-107,968,-36,-35,-9
1444,130,-108,1045,-17,-48,-17
1445,225,-160,1003,-6,-11,-20
1446,42,-33,956,16,23,5
1447,-120,74,1043,6,33,7
1448,-148,57,1009,-8,20,-10
1449,-157,43,941,-17,-12,0
1450,32,18,1036,-24,-39,-15
1451,158,-90,1032,-24,-31,-22
1452,124,-70,947,-13,-2,-2
1453,52,-33,1014,-10,22,-4
1454,-88,-10,1008,-10,35,-4
1455,-149,24,963,-11,16,0
1456,-112,38,995,-15,-10,-8
1457,75,47,1030,-24,-25,-14
1458,130,-11,991,-35,-9,-11
1459,92,-45,1010,-30,12,-2
1460,-26,-85,995,-28,30,1
1461,-143,-79,952,-16,26,-1
1462,-160,-44,986,-4,3,-3
1463,-82,6,1007,0,-20,-11
1464,55,21,998,-7,-29,-13
1465,128,27,1021,-11,-16,-12
1466,128,7,1018,-19,6,-7
1467,26,-17,981,-23,27,-1
1468,-109,-41,999,-23,27,2
1469,-166,-51,980,-20,8,-4
1470,-112,-42,968,-12,-14,-9
1471,11,-32,1010,-7,-28,-14
1472,114,-5,1020,-6,-20,-13
1473,153,6,1006,-8,1,-9
1474,47,23,1001,-15,24,0
1475,-80,5,1008,-21,27,1
1476,-156,-24,968,-26,13,-3
1477,-141,-51,978,-20,-9,-6
1478,-15,-63,999,-14,-26,-13
1479,105,-50,1015,-7,-22,-15
1480,158,-10,997,-2,-5,-9
1481,69,21,1014,-6,20,-3
1482,-55,29,1007,-15,29,1
1483,-159,11,976,-25,19,-1
1484,-144,-24,992,-25,-6,-5
1485,-43,-71,992,-20,-25,-11
1486,92,-62,994,-12,-25,-13
1487,154,-40,1007,-5,-8,-10
1488,89,4,1010,-3,18,-5
1489,-34,32,1004,-10,29,0
1490,-149,34,980,-19,22,1
1491,-156,-6,990,-24,-2,-4
1492,-66,-56,988,-24,-23,-12
1493,75,-64,1014,-15,-27,-13
1494,153,-54,998,-8,-13,-12
1495,110,-19,1000,-3,14,-5
1496,-7,21,1004,-7,28,0
1497,-146,35,992,-16,25,3
1498,-157,6,987,-22,3,-3
1499,-98,-33,986,-23,-19,-9
1500,64,-51,1008,-17,-28,-13
1501,146,-65,1010,-12,-16,-13
1502,123,-30,1000,-7,9,-6
1503,15,8,1003,-7,28,-1
1504,-129,28,990,-14,26,3
1505,-166,10,985,-20,6,-3
1506,-111,-19,987,-22,-18,-9
1507,43,-41,1010,-17,-29,-14
1508,135,-62,1007,-14,-18,-14
1509,137,-32,1008,-7,4,-6
1510,32,0,996,-9,24,-2
1511,-114,13,996,-14,28,2
1512,-170,8,980,-17,10,-1
1513,-124,-8,983,-20,-13,-7
1514,24,-40,1009,-19,-30,-13
1515,112,-58,932,-14,-20,-12
1516,662,342,419,56,28,-1
1517,58,-25,1803,-76,105,-26
1518,-302,387,355,-114,56,76
1519,-259,-395,572,-138,76,-14
1520,-923,-300,872,-1,-6,-57
1521,83,-400,1355,25,-118,-59
1522,216,-483,747,63,-72,-71
1523,196,264,994,119,-46,0
1524,735,310,1343,58,-25,-33
1525,-52,346,967,-5,101,1
1526,-305,242,743,-83,65,67
1527,-349,-85,1358,-77,10,-23
1528,-238,-335,691,-78,-31,-24
1529,78,-293,942,-4,-66,-6
1530,338,-124,1204,33,-51,-34
1531,239,-5,919,33,24,-9
1532,-4,226,990,26,54,18
1533,-267,169,1119,-18,44,5
1534,-218,37,883,-44,10,-4
1535,-139,-127,985,-39,-36,-6
1536,108,-132,1044,-17,-57,-20
1537,268,-169,984,1,-24,-24
1538,98,-13,974,21,18,4
1539,-28,88,1066,11,37,2
1540,-162,86,971,-11,36,-4
1541,-215,61,952,-22,1,5
1542,-67,-16,1038,-32,-34,-14
1543,112,-103,1011,-26,-39,-20
1544,155,-89,960,-13,-18,-6
1545,119,-53,1033,-4,13,-8
1546,-12,0,999,-3,35,-3
1547,-136,58,957,-8,28,2
1548,-152,50,1015,-16,1,-10
1549,-82,8,995,-26,-22,-12
1550,62,-14,986,-27,-28,-9
1551,139,-54,1023,-27,-12,-12
1552,116,-61,1004,-23,13,-5
1553,-4,-41,972,-15,30,0
1554,-139,-16,991,-11,26,1
1555,-163,-7,989,-10,3,-6
1556,-102,1,978,-12,-18,-8
1557,47,-3,1018,-15,-30,-12
1558,133,-25,1020,-15,-18,-13
1559,140,-23,990,-15,6,-5
1560,26,-11,1006,-16,25,0
1561,-107,-14,1004,-18,27,1
1562,-169,-22,962,-18,11,-3
1563,-122,-14,983,-15,-14,-8
1564,17,-32,1019,-15,-28,-13
1565,120,-38,1003,-13,-21,-14
1566,148,-11,1005,-12,1,-7
1567,51,2,1012,-12,24,-2
1568,-83,2,1000,-17,28,2
1569,-168,-4,965,-21,14,0
1570,-134,-20,995,-20,-9,-6
1571,-10,-55,1001,-17,-27,-12
1572,107,-46,999,-12,-22,-13
1573,157,-22,1005,-7,-5,-9
1574,69,5,1015,-9,20,-3
1575,-60,16,1004,-15,30,2
1576,-165,13,978,-21,20,0
1577,-144,-18,988,-22,-6,-5
1578,-41,-53,995,-20,-26,-11
1579,96,-52,999,-12,-26,-13
1580,160,-37,1008,-8,-8,-10
1581,91,0,1008,-9,18,-3
1582,-34,20,1007,-11,29,0
1583,-154,25,977,-19,22,0
1584,-156,-7,989,-22,-2,-4
1585,-70,-47,999,-22,-23,-10
1586,86,-56,1004,-15,-28,-15
1587,154,-48,1001,-10,-13,-12
1588,106,-15,1005,-5,14,-4
1589,-14,17,1002,-10,29,-1
1590,-142,30,984,-16,25,0
1591,-165,0,991,-23,3,-4
1592,-90,-34,986,-22,-20,-10
1593,66,-48,1005,-16,-29,-13
1594,149,-54,1012,-11,-16,-12
1595,126,-27,1009,-8,8,-6
1596,8,7,992,-9,29,-2
1597,-127,24,983,-13,29,2
1598,-170,3,992,-19,6,-3
1599,-107,-20,983,-23,-18,-8
1600,45,-46,1007,-18,-30,-12
1601,134,-56,1006,-14,-19,-12
1602,142,-32,1011,-8,5,-8
1603,32,0,994,-10,26,-1
1604,-114,17,996,-15,29,3
1605,-167,0,980,-19,11,-2
1606,-128,-13,983,-20,-15,-7
1607,27,-39,1004,-18,-31,-13
1608,218,47,613,-46,-35,-6
1609,755,304,1083,-42,46,-11
1610,-219,119,1303,-100,71,8
1611,-227,148,389,-156,82,77
1612,-467,-476,548,-94,65,-71
1613,-905,-258,1185,20,-41,-47
1614,440,-567,1083,25,-142,-99
1615,-189,-233,841,108,-40,-41
1616,644,305,1065,95,-85,-17
1617,556,309,1393,57,21,-43
1618,-78,381,671,-33,96,43
1619,-322,181,1120,-85,59,43
1620,-371,-154,1126,-83,8,-37
1621,-272,-361,649,-70,-34,1
1622,185,-254,1114,14,-80,-25
1623,299,-158,1120,29,-38,-31
1624,263,67,857,41,26,-1
1625,-51,225,1131,24,53,14
1626,-238,172,1011,-25,43,2
1627,-236,2,895,-45,7,-1
1628,-146,-115,1020,-33,-42,-10
1629,139,-173,1026,-19,-52,-25
1630,241,-153,959,9,-20,-21
1631,95,3,1015,22,15,6
1632,4,86,1046,12,37,-4
1633,-181,81,959,-10,34,2
1634,-192,70,972,-22,-3,1
1635,-58,-37,1043,-30,-31,-19
1636,82,-84,974,-22,-37,-14
1637,164,-72,987,-13,-19,-8
1638,150,-43,1042,-5,15,-10
1639,18,55,978,-9,37,0
1640,-125,100,972,-24,34,1
1641,-206,38,1025,-34,9,-3
1642,-145,-57,962,-42,-22,-6
1643,22,-119,984,-28,-35,-15
1644,146,-126,1025,-11,-23,-14
1645,177,-64,1001,3,5,-9
1646,56,24,990,6,29,-1
1647,-116,81,1015,-3,34,4
1648,-185,65,979,-21,14,-2
1649,-159,14,975,-31,-11,-6
1650,9,-50,1014,-31,-33,-13
1651,133,-105,1004,-22,-27,-15
1652,172,-82,986,-7,-2,-7
1653,69,-26,1014,-2,25,-3
1654,-81,24,1010,-3,34,1
1655,-183,41,964,-12,18,2
1656,-156,39,987,-19,-10,-6
1657,-12,-26,1013,-26,-31,-14
1658,113,-58,1000,-23,-26,-15
1659,169,-64,1004,-17,-5,-9
1660,80,-37,1009,-9,21,-3
1661,-61,-10,995,-6,31,2
1662,-174,15,976,-13,20,1
1663,-157,17,997,-17,-4,-4
1664,-39,-22,998,-17,-27,-12
1665,100,-30,995,-17,-27,-14
1666,168,-42,1013,-16,-9,-11
1667,97,-27,1010,-13,18,-3
1668,-40,-15,1001,-13,33,1
1669,-160,5,977,-14,24,0
1670,-165,-3,991,-15,-2,-4
1671,-63,-23,992,-18,-26,-10
1672,87,-29,1012,-15,-29,-13
1673,162,-31,1001,-14,-12,-12
1674,109,-21,1002,-12,14,-3
1675,-18,0,1005,-14,29,1
1676,-148,4,979,-17,25,2
1677,-172,-12,988,-18,3,-3
1678,-90,-38,994,-17,-22,-11
1679,69,-29,1004,-13,-30,-14
1680,153,-35,1009,-12,-16,-13
1681,127,-13,1005,-9,9,-5
1682,9,4,998,-13,28,0
1683,-136,15,986,-17,29,3
1684,-174,-8,993,-20,6,-3
1685,-108,-33,979,-20,-18,-9
1686,46,-40,1007,-15,-30,-13
1687,141,-47,1017,-12,-18,-12
1688,140,-19,1013,-8,6,-6
1689,31,10,992,-7,25,-2
1690,-117,21,994,-9,26,0
1691,-174,-4,982,-10,7,-4
1692,-120,-22,982,-17,-13,-9
1693,28,-49,1010,-20,-30,-13
1694,128,-55,1007,-8,-22,-13
1695,154,-28,1007,-7,1,-8
1696,46,6,1003,-10,25,-1
1697,-96,16,1005,-15,30,2
1698,-170,8,973,-22,14,-2
1699,-136,-13,978,-21,-12,-4
1700,1,-50,1007,-17,-29,-13
1701,113,-58,1011,-15,-23,-14
1702,162,-30,1003,-9,-1,-8
1703,63,-2,1007,-10,24,-2
1704,-72,12,1004,-11,30,2
1705,-163,32,878,-26,13,1
1706,405,481,458,-4,-16,6
1707,-48,-102,1754,-139,43,-28
1708,-218,265,211,-139,17,69
1709,-1,-517,516,-128,47,-48
1710,-689,-403,929,35,2,-29
1711,362,-300,1506,51,-94,-38
1712,-39,-437,613,62,0,-46
1713,-12,414,986,127,-29,20
1714,407,358,1430,44,-29,-26
1715,-82,327,840,-28,56,-10
1716,-64,159,810,-88,25,51
1717,-100,-152,1381,-75,5,-41
1718,-85,-355,669,-74,-4,-8
1719,-54,-238,938,6,-22,6
1720,14,-96,1209,26,-26,-20
1721,57,18,893,28,6,-12
1722,22,212,990,18,9,6
1723,-4,149,1137,-20,1,-8
1724,34,13,916,-42,6,-12
1725,-78,-105,960,-41,-3,3
1726,-72,-115,1041,-27,-9,-6
1727,-4,-176,977,-5,-4,-17
1728,-67,-32,941,14,-5,4
1729,50,64,1076,16,-10,-11
1730,71,48,1012,-2,-3,-16
1731,12,77,959,-13,1,4
1732,2,28,1037,-28,1,-9
1733,-52,-74,990,-33,7,-6
1734,-87,-86,943,-22,3,2
1735,-52,-74,1022,-11,-8,-9
1736,31,-47,1007,-1,-14,-12
1737,50,7,979,3,-10,-8
1738,75,59,1017,-1,-4,-9
1739,47,45,1012,-16,12,-7
1740,-37,11,979,-26,18,1
1741,-33,-15,1009,-30,15,-2
1742,-64,-63,981,-29,10,-6
1743,-55,-74,978,-17,-2,-4
1744,-28,-57,1001,-7,-6,-10
1745,44,-20,1004,-4,-4,-11
1746,61,21,986,-5,4,-6
1747,8,36,1027,-13,11,-4
1748,-59,20,990,-24,10,-3
1749,-94,-16,984,-26,3,-4
1750,-65,-66,992,-24,-8,-7
1751,17,-69,1000,-15,-14,-10
1752,103,-50,994,-7,-10,-10
1753,69,-1,1005,-2,7,-5
1754,1,30,1017,-10,18,-3
1755,-98,26,986,-18,19,-2
1756,-128,6,990,-23,4,-1
1757,-65,-48,995,-25,-15,-9
1758,46,-66,992,-17,-21,-12
1759,122,-55,994,-7,-11,-11
1760,90,-20,1014,-6,10,-7
1761,-4,13,1008,-7,23,-2
1762,-114,32,979,-14,21,1
1763,-143,8,994,-22,4,-2
1764,-78,-34,993,-24,-16,-9
1765,51,-51,1004,-17,-24,-12
1766,132,-58,1000,-12,-14,-11
1767,107,-28,999,-7,9,-6
1768,6,2,1001,-8,25,-1
1769,-119,26,991,-14,26,3
1770,-147,6,995,-19,7,-2
1771,-102,-21,978,-21,-16,-8
1772,45,-36,1011,-18,-29,-12
1773,129,-57,1009,-14,-18,-13
1774,123,-30,1004,-10,6,-7
1775,26,-5,995,-11,25,-1
1776,-114,17,991,-14,27,3
1777,-162,2,980,-17,8,-3
1778,-117,-10,992,-18,-13,-8
1779,33,-35,1008,-17,-27,-13
1780,122,-49,1005,-12,-18,-14
1781,142,-27,1007,-10,2,-7
1782,43,-7,1002,-12,24,-2
1783,-103,6,993,-14,30,2
1784,-169,0,980,-17,12,-2
1785,-127,-9,985,-18,-12,-8
1786,6,-40,1003,-18,-29,-14
1787,114,-46,1011,-12,-22,-14
1788,155,-28,1007,-9,0,-8
1789,57,-4,1005,-10,23,-3
1790,-84,6,1002,-13,28,3
1791,-167,2,973,-17,15,0
1792,-139,-9,982,-19,-9,-5
1793,-15,-44,1002,-17,-26,-12
1794,108,-48,1007,-14,-23,-13
1795,159,-26,1005,-8,-5,-8
1796,73,-4,1007,-8,20,-2
1797,-59,8,1007,-13,30,1
1798,-161,6,972,-18,20,1
1799,-152,-9,991,-19,-4,-4
1800,-39,-47,996,-19,-28,-12
1801,95,-44,997,-14,-26,-13
1802,158,-37,1006,-10,-9,-11
1803,90,-9,1012,-9,18,-3
1804,-33,7,1004,-12,31,1
1805,-161,32,914,-6,24,1
1806,357,358,175,63,8,7
1807,-15,-12,1558,-122,44,-20
1808,-225,216,304,-138,10,58
1809,-97,-515,537,-123,47,-35
1810,-708,-364,951,44,-10,-55
1811,312,-276,1425,48,-97,-43
1812,123,-328,649,63,-21,-47
1813,53,426,1050,113,-27,26
1814,392,335,1335,23,-18,-29
1815,-117,259,879,-37,64,-6
1816,-174,94,816,-84,26,51
1817,-104,-183,1337,-71,-5,-45
1818,-38,-375,690,-56,-18,-9
1819,6,-156,972,22,-26,4
1820,79,-52,1191,23,-20,-25
1821,38,79,896,26,14,-4
1822,-48,201,984,4,16,10
1823,-56,96,1130,-30,2,-15
1824,32,-45,911,-43,-4,-11
1825,-32,-114,965,-32,-12,-1
1826,-11,-115,1054,-15,-13,-11
1827,13,-122,967,-1,2,-15
1828,-90,13,950,8,6,6
1829,9,66,1082,3,-7,-15
1830,29,29,986,-12,-5,-14
1831,27,50,958,-19,-9,0
1832,37,-3,1054,-27,-5,-13
1833,-13,-73,993,-28,7,-7
1834,-78,-59,939,-20,8,3
1835,-63,-47,1028,-10,-1,-10
1836,-11,-43,999,-6,-11,-12
1837,37,9,970,0,-13,-8
1838,101,44,1028,-6,-8,-12
1839,130,44,1011,-19,13,-11
1840,48,34,990,-30,35,1
1841,-107,3,1016,-37,38,4
1842,-202,-66,980,-37,21,0
1843,-183,-118,931,-25,-8,-7
1844,-19,-87,1007,-4,-32,-13
1845,153,-37,1017,5,-29,-18
1846,173,27,995,3,0,-9
1847,67,76,1035,-7,23,0
1848,-98,57,1003,-25,32,2
1849,-186,-8,965,-33,16,1
1850,-155,-73,982,-30,-12,-6
1851,13,-95,1008,-19,-31,-15
1852,144,-83,987,-5,-25,-16
1853,148,-15,1004,5,-1,-8
1854,58,39,1024,-2,24,-2
1855,-102,57,989,-16,34,3
1856,-180,21,988,-26,16,2
1857,-141,-30,988,-28,-13,-9
1858,16,-71,993,-20,-31,-14
1859,133,-78,999,-11,-25,-13
1860,152,-46,1018,-5,0,-8
1861,60,6,995,-3,26,-3
1862,-101,37,991,-11,33,4
1863,-175,23,990,-19,16,0
1864,-141,-5,981,-25,-12,-7
1865,11,-42,1005,-21,-30,-14
1866,121,-66,1012,-17,-24,-14
1867,162,-47,1004,-10,-2,-9
1868,63,-9,998,-7,23,-2
1869,-91,18,1002,-11,32,2
1870,-173,13,982,-16,16,-1
1871,-145,4,974,-21,-10,-6
1872,-2,-35,1012,-20,-30,-13
1873,114,-54,1001,-15,-25,-15
1874,163,-40,1006,-11,-2,-9
1875,70,-14,1009,-10,23,-2
1876,-75,3,1005,-14,32,2
1877,-166,9,968,-16,18,-1
1878,-155,0,984,-18,-7,-6
1879,-19,-31,1005,-18,-30,-14
1880,104,-44,1004,-16,-27,-15
1881,163,-32,1006,-11,-5,-9
1882,82,-15,1010,-10,20,-3
1883,-56,0,999,-13,30,2
1884,-161,6,977,-16,21,0
1885,-156,-4,996,-17,-4,-5
1886,-49,-33,990,-18,-27,-12
1887,95,-36,1002,-13,-28,-14
1888,159,-33,1008,-11,-10,-11
1889,97,-12,1009,-12,18,-3
1890,-31,0,1005,-13,31,0
1891,-158,9,976,-17,23,2
1892,-159,-7,991,-19,-1,-4
1893,-74,-41,996,-19,-24,-11
1894,83,-36,1005,-13,-30,-13
1895,157,-38,1007,-10,-13,-13
1896,111,-10,999,-8,12,-3
1897,-4,5,1000,-12,28,1
1898,-146,12,987,-18,27,3
1899,-167,-9,988,-19,4,-2
1900,-95,-39,988,-18,-21,-11
1901,62,-37,1002,-13,-30,-14
1902,147,-42,1018,-10,-18,-13
1903,131,-21,1005,-10,8,-6
1904,335,191,180,10,16,11
1905,180,157,1395,7,98,-3
1906,-392,308,655,-149,32,45
1907,-229,-196,425,-151,67,16
1908,-619,-441,663,-23,-5,-77
1909,-238,-265,1546,40,-98,-37
1910,537,-546,829,28,-91,-82
1911,-73,116,829,121,3,-6
1912,610,368,1288,66,-37,-7
1913,-3,325,1183,8,73,-20
1914,-261,253,565,-75,60,53
1915,-278,-34,1350,-77,1,1
1916,-104,-290,887,-73,-30,-44
1917,39,-333,779,-20,-38,0
1918,247,-98,1206,33,-40,-21
1919,131,-42,1027,28,19,-13
1920,-39,179,861,25,43,13
1921,-242,174,1135,-11,24,9
1922,-111,56,960,-38,-7,-18
1923,-27,-117,931,-40,-29,-8
1924,106,-100,1048,-19,-42,-12
1925,186,-154,1024,-8,-9,-22
1926,15,-44,937,12,24,4
1927,-133,68,1037,8,27,7
1928,-124,67,1024,-8,12,-13
1929,-109,28,944,-21,-13,-5
1930,40,18,1012,-25,-35,-13
1931,155,-77,1047,-26,-25,-23
1932,101,-66,949,-18,5,-3
1933,-3,-36,1017,-11,22,-1
1934,-100,-12,1006,-10,23,-5
1935,-141,9,966,-11,7,-1
1936,-77,31,993,-13,-18,-9
1937,60,10,1035,-20,-28,-16
1938,137,-8,975,-25,-14,-11
1939,98,-12,998,-26,10,-4
1940,-3,-33,1012,-26,27,-2
1941,-123,-40,971,-24,27,1
1942,-164,-53,982,-17,7,-2
1943,-100,-43,997,-10,-18,-11
1944,51,-13,998,-5,-29,-13
1945,137,1,1013,-7,-17,-11
1946,128,17,1022,-12,8,-5
1947,28,12,990,-18,27,0
1948,-121,2,977,-25,28,4
1949,-170,-36,1003,-23,7,-3
1950,-113,-54,972,-20,-16,-10
1951,28,-51,999,-11,-28,-13
1952,131,-33,1025,-5,-18,-14
1953,150,-3,1010,-6,5,-8
1954,41,30,991,-10,26,0
1955,-105,24,1006,-19,27,3
1956,-171,-9,979,-24,11,-3
1957,-130,-38,968,-24,-12,-8
1958,11,-65,1009,-15,-30,-13
1959,114,-62,1011,-10,-22,-13
1960,159,-20,1002,-4,0,-7
1961,54,18,1005,-7,25,-2
1962,-84,31,1010,-12,30,1
1963,-165,13,975,-21,15,0
1964,-146,-15,980,-25,-10,-5
1965,-11,-60,1003,-21,-27,-12
1966,105,-64,1006,-15,-24,-12
1967,162,-37,1001,-7,-5,-9
1968,73,-1,1011,-6,21,-2
1969,-60,22,1001,-10,32,2
1970,-164,26,982,-19,20,0
1971,-147,1,990,-22,-5,-6
1972,-43,-50,992,-22,-27,-11
1973,96,-59,1000,-14,-26,-13
1974,156,-50,1004,-10,-8,-9
1975,92,-14,1006,-8,18,-5
1976,-38,13,1010,-10,32,0
1977,-158,32,976,-16,22,0
1978,-156,3,992,-21,-2,-5
1979,-68,-34,994,-21,-24,-12
1980,81,-47,1008,-17,-28,-12
1981,159,-50,1002,-13,-12,-12
1982,104,-24,996,-8,12,-4
1983,-15,1,1005,-8,28,-1
1984,-145,23,988,-15,25,2
1985,-161,0,988,-19,3,-3
1986,-88,-25,989,-20,-19,-11
1987,65,-38,1014,-17,-29,-14
1988,151,-50,1005,-12,-17,-13
1989,119,-29,1009,-10,10,-5
1990,10,-1,990,-11,29,-1
1991,-131,14,992,-14,29,2
1992,-169,0,984,-17,6,-2
1993,-109,-18,986,-19,-19,-10
1994,48,-39,1008,-17,-31,-14
1995,132,-50,1014,-15,-17,-13
1996,139,-26,1005,-10,5,-5
1997,33,-4,998,-12,25,-2
1998,-112,8,992,-15,29,2
1999,-175,-1,979,-18,11,-2
2000,-124,-10,985,-20,-14,-7
2001,19,-39,1011,-15,-31,-12
2002,123,-47,1006,-13,-21,-14
2003,151,-27,1008,-10,0,-8
2004,53,-3,1002,-11,25,-3
2005,-94,7,1004,-14,30,3
2006,-170,3,972,-17,13,0
2007,-134,-7,977,-20,-10,-6
2008,546,411,46,12,-54,-1
2009,118,-111,1458,-124,51,-27
2010,-110,419,239,-133,14,73
2011,-72,-399,479,-198,94,13
2012,-662,-497,696,32,15,-26
2013,-114,-296,1617,36,-85,-3
2014,134,-601,652,55,-44,-88
2015,-280,317,846,164,-23,6
2016,722,424,1457,50,-83,-25
2017,94,409,1044,10,57,-30
2018,4,251,598,-98,49,64
2019,-210,-61,1512,-93,33,-16
2020,-250,-366,695,-86,7,-23
2021,-184,-356,793,-26,-31,12
2022,30,-189,1253,39,-61,-28
2023,178,-41,951,45,-19,-24
2024,198,209,912,36,8,0
2025,-4,264,1191,4,22,5
2026,-34,118,944,-49,25,-10
2027,-204,-79,925,-58,7,5
2028,-166,-153,1038,-37,-26,-4
2029,46,-253,991,-19,-33,-29
2030,82,-115,934,21,-21,-6
2031,133,52,1073,30,-9,-7
2032,94,97,1033,8,11,-19
2033,-76,128,936,-8,24,7
2034,-141,90,1021,-32,8,-1
2035,-100,-81,1028,-42,-11,-16
2036,-45,-126,923,-29,-23,-4
2037,83,-117,1024,-9,-23,-13
2038,119,-88,1031,5,-6,-18
2039,97,9,965,13,12,-6
2040,110,143,1016,4,24,-6
2041,-51,107,1034,-25,40,-5
2042,-168,58,964,-42,24,6
2043,-211,-55,976,-53,2,0
2044,-92,-148,980,-36,-23,-14
2045,71,-167,993,-13,-28,-15
2046,177,-75,997,12,-14,-13
2047,130,27,1022,16,14,-5
2048,-11,98,1020,4,29,2
2049,-164,93,984,-19,27,4
2050,-182,40,983,-33,3,-1
2051,-71,-72,993,-37,-24,-13
2052,68,-116,989,-26,-30,-14
2053,171,-99,1009,-10,-15,-13
2054,117,-44,1003,1,12,-7
2055,-21,21,1011,2,31,2
2056,-151,65,991,-10,27,3
2057,-170,46,988,-21,4,-2
2058,-79,-17,990,-26,-22,-9
2059,67,-56,1000,-23,-32,-14
2060,167,-75,1005,-15,-18,-14
2061,119,-59,998,-10,13,-5
2062,-8,-16,1013,-7,30,1
2063,-140,16,984,-9,28,1
2064,-173,22,989,-13,5,-2
2065,-94,0,988,-18,-22,-11
2066,64,-22,1016,-18,-31,-14
2067,163,-44,1002,-18,-18,-12
2068,123,-41,1002,-14,10,-4
2069,12,-23,1000,-11,29,0
2070,-136,-1,986,-14,29,2
2071,-175,0,988,-14,8,-3
2072,-114,-13,987,-15,-18,-9
2073,50,-14,1008,-15,-32,-13
2074,151,-31,1014,-14,-20,-13
2075,140,-22,1005,-13,7,-6
2076,28,-12,995,-15,28,-1
2077,-124,-2,989,-15,29,2
2078,-178,-16,987,-17,8,-1
2079,-126,-21,977,-15,-17,-9
2080,31,-26,1008,-12,-31,-14
2081,139,-29,1017,-11,-21,-15
2082,152,-16,1005,-11,3,-7
2083,48,5,998,-12,25,-1
2084,-108,3,996,-19,30,2
2085,-176,-15,979,-21,14,-2
2086,-138,-25,980,-19,-12,-8
2087,11,-44,1009,-15,-31,-14
2088,120,-43,1008,-10,-24,-14
2089,162,-18,1007,-8,-3,-9
2090,62,11,1005,-12,23,-2
2091,-83,9,1013,-18,32,2
2092,-171,-3,966,-22,15,1
2093,-148,-17,979,-21,-10,-5
2094,-13,-55,1004,-18,-28,-12
2095,104,-53,1005,-11,-24,-13
2096,168,-23,1004,-7,-5,-10
2097,77,2,1012,-8,21,-3
2098,-61,16,1003,-13,31,2
2099,-163,9,976,-20,19,1
2100,-157,-11,989,-22,-3,-4
2101,-42,-53,997,-20,-27,-11
2102,94,-52,998,-13,-28,-13
2103,166,-38,1004,-9,-11,-11
2104,209,91,467,-21,8,5
2105,484,273,1059,-12,81,3
2106,-371,181,1189,-104,56,19
2107,-226,12,372,-161,55,56
2108,-373,-473,521,-53,24,-61
2109,-658,-283,1394,33,-57,-20
2110,564,-482,1047,26,-114,-76
2111,-131,-138,741,116,3,-30
2112,520,421,1143,84,-51,3
2113,246,329,1378,32,43,-31
2114,-177,304,587,-54,80,36
2115,-320,44,1163,-88,24,34
2116,-173,-203,1106,-66,-20,-46
2117,-96,-381,685,-53,-30,-9
2118,209,-175,1112,28,-52,-16
2119,193,-67,1132,32,-6,-19
2120,86,132,836,28,37,4
2121,-192,207,1114,6,33,18
2122,-190,119,1018,-34,8,-9
2123,-81,-66,906,-48,-18,-10
2124,24,-128,1024,-28,-43,-11
2125,186,-155,1048,-15,-28,-21
2126,139,-103,937,8,8,-10
2127,-83,50,1016,15,27,12
2128,-118,81,1035,-1,22,-9
2129,-163,47,953,-16,3,-4
2130,-46,32,987,-24,-32,-6
2131,99,-71,1062,-27,-35,-23
2132,154,-85,965,-17,-15,-11
2133,74,-45,987,-9,13,0
2134,-34,-21,1044,-5,28,-4
2135,-135,10,959,-9,21,-1
2136,-129,48,966,-11,-3,-4
2137,-23,14,1035,-18,-23,-14
2138,89,-11,995,-25,-22,-14
2139,142,31,997,-29,-6,-7
2140,69,-15,1017,-33,20,-5
2141,-55,-50,997,-32,31,3
2142,-157,-81,954,-24,20,2
2143,-154,-68,995,-10,-4,-7
2144,-44,-51,991,-6,-26,-12
2145,83,2,999,2,-27,-14
2146,160,32,1021,-4,-10,-12
2147,99,39,1015,-16,18,-4
2148,-29,14,992,-25,29,2
2149,-151,-18,988,-29,21,2
2150,-158,-61,983,-25,-2,-5
2151,-79,-84,981,-16,-23,-11
2152,76,-54,1011,-6,-29,-13
2153,157,-18,1009,-2,-12,-12
2154,116,22,1002,-4,13,-3
2155,-8,48,1010,-13,27,-1
2156,-140,27,989,-23,25,1
2157,-168,-27,984,-27,3,-3
2158,-102,-70,980,-24,-18,-8
2159,57,-71,1009,-14,-30,-14
2160,151,-58,1006,-5,-17,-14
2161,129,-7,1005,-1,9,-5
2162,18,31,996,-7,29,-1
2163,-122,40,994,-18,28,2
2164,-171,7,986,-24,7,-2
2165,-117,-33,982,-26,-15,-9
2166,42,-67,1001,-20,-30,-13
2167,132,-71,1011,-11,-19,-14
2168,142,-30,1006,-3,4,-7
2169,43,10,1002,-6,25,-2
2170,-106,34,996,-13,31,3
2171,-168,19,981,-20,12,-2
2172,-130,-9,985,-23,-12,-8
2173,11,-51,1004,-21,-30,-12
2174,115,-63,1006,-15,-24,-14
2175,154,-43,1006,-8,-1,-8
2176,62,-7,1001,-6,23,-3
2177,-86,16,1009,-11,32,2
2178,-168,21,973,-17,14,-1
2179,-141,2,983,-22,-9,-6
2180,-15,-39,1002,-21,-27,-12
2181,108,-50,1010,-15,-24,-13
2182,162,-44,999,-11,-4,-9
2183,71,-18,1007,-9,20,-2
2184,-57,6,1006,-11,29,1
2185,-163,10,975,-14,20,1
2186,-150,5,989,-18,-5,-5
2187,-42,-34,1000,-20,-26,-12
2188,95,-38,999,-15,-26,-14
2189,160,-43,1006,-12,-9,-10
2190,93,-21,1007,-10,18,-5
2191,-36,-4,1005,-13,30,0
2192,-154,14,974,-13,23,1
2193,-159,-2,992,-18,-2,-5
2194,-70,-31,994,-17,-24,-12
2195,80,-39,1007,-14,-29,-15
2196,159,-43,1001,-14,-13,-12
2197,111,-22,1003,-10,13,-4
2198,-11,1,997,-10,29,0
2199,236,308,285,49,51,9
2200,10,16,1615,-44,95,-23
2201,-296,318,633,-118,-4,45
2202,-119,-303,543,-146,44,5
2203,-525,-429,735,-6,-3,-73
2204,-56,-270,1505,32,-82,-30
2205,474,-458,757,45,-54,-68
2206,-173,206,894,109,14,17
2207,504,361,1300,53,-39,-12
2208,-131,291,1090,-3,64,-17
2209,-188,206,628,-80,33,50
2210,-157,-93,1368,-69,-7,-21
2211,-1,-300,838,-66,-25,-34
2212,30,-273,820,-14,-24,11
2213,129,-70,1216,35,-22,-19
2214,23,-19,966,19,19,-9
2215,-80,193,887,18,25,11
2216,-132,124,1157,-14,-1,-4
2217,3,19,945,-36,-13,-18
2218,32,-109,949,-34,-20,-4
2219,53,-93,1047,-16,-20,-10
2220,64,-136,1013,-5,6,-14
2221,-83,-22,921,10,18,6
2222,-120,65,1051,6,7,0
2223,-25,36,1014,-5,-9,-17
2224,-6,23,952,-15,-20,-3
2225,93,13,1031,-18,-23,-12
2226,90,-68,1031,-24,-2,-15
2227,-4,-53,949,-18,15,3
2228,-85,-30,1007,-11,16,-2
2229,-95,-25,1014,-8,5,-7
2230,-59,-6,962,-5,-14,-6
2231,48,32,1008,-7,-22,-12
2232,120,10,1021,-17,-12,-15
2233,164,45,991,-24,12,-5
2234,40,16,1013,-35,37,-2
2235,-138,-22,992,-36,38,4
2236,-227,-89,961,-30,16,2
2237,-188,-108,965,-17,-14,-10
2238,22,-71,1016,-1,-37,-16
2239,173,-18,1005,7,-29,-18
2240,182,40,1007,2,0,-7
2241,75,76,1029,-12,28,-3
2242,-119,44,988,-29,38,4
2243,-203,-21,974,-35,16,3
2244,-167,-79,985,-29,-15,-8
2245,10,-97,990,-15,-34,-16
2246,147,-76,1006,-2,-28,-15
2247,175,-8,1027,3,0,-9
2248,79,43,998,-3,27,-1
2249,-99,61,991,-15,37,5
2250,-190,19,992,-27,16,1
2251,-156,-31,979,-30,-11,-7
2252,-5,-82,991,-23,-32,-12
2253,119,-84,1012,-12,-28,-15
2254,176,-41,1008,-3,-4,-10
2255,80,6,1004,-4,25,-2
2256,-77,40,1005,-11,35,4
2257,-180,26,980,-19,19,-1
2258,-158,2,978,-24,-8,-6
2259,-24,-49,1005,-22,-30,-13
2260,110,-68,1004,-18,-27,-16
2261,175,-55,1006,-10,-6,-10
2262,83,-17,1005,-5,22,-2
2263,-58,14,1005,-8,31,3
2264,-168,25,977,-15,20,1
2265,-163,12,986,-21,-5,-3
2266,-40,-35,997,-21,-28,-13
2267,96,-51,1002,-17,-28,-13
2268,169,-46,1005,-12,-10,-10
2269,96,-25,1012,-10,17,-4
2270,-36,0,1002,-11,31,1
2271,-159,16,980,-14,24,2
2272,-165,7,992,-17,-1,-4
2273,-67,-28,993,-20,-25,-12
2274,80,-35,1006,-16,-28,-14
2275,163,-44,1005,-14,-12,-11
2276,112,-27,1002,-10,15,-4
2277,-16,-4,1000,-11,30,1
2278,-146,13,987,-15,25,1
2279,-169,-3,990,-17,2,-4
2280,-94,-23,986,-17,-21,-11
2281,64,-30,1011,-16,-30,-13
2282,154,-42,1011,-14,-17,-12
2283,129,-26,1002,-10,9,-6
2284,8,-1,996,-13,30,1
2285,-127,11,987,-16,29,3
2286,-170,-5,988,-19,6,-3
2287,-113,-21,981,-19,-18,-8
2288,44,-33,908,-6,-30,-13
2289,649,273,690,22,1,-3
2290,133,-3,1768,-69,76,-19
2291,-247,230,468,-108,53,64
2292,-238,-356,658,-106,67,-9
2293,-823,-239,970,10,1,-37
2294,105,-316,1225,0,-106,-48
2295,107,-325,811,63,-59,-52
2296,207,250,1008,85,-50,2
2297,594,230,1293,35,-17,-36
2298,-35,268,907,-14,81,11
2299,-249,162,865,-73,57,52
2300,-294,-100,1239,-65,12,-28
2301,-222,-287,735,-60,-26,-6
2302,46,-204,987,2,-57,-10
2303,248,-123,1166,25,-44,-34
2304,233,15,914,28,11,-5
2305,17,177,1009,16,39,10
2306,-167,130,1103,-16,36,-1
2307,-192,22,891,-39,13,-2
2308,-159,-79,992,-32,-26,-4
2309,37,-135,1039,-20,-49,-21
2310,187,-141,974,0,-27,-19
2311,122,-26,980,14,2,0
2312,41,63,1063,9,27,-5
2313,-89,63,983,-7,33,-4
2314,-183,71,950,-18,7,3
2315,-94,0,1039,-28,-21,-13
2316,7,-92,994,-27,-30,-15
2317,101,-74,977,-15,-23,-6
2318,136,-58,1031,-6,-1,-13
2319,64,-12,992,-2,21,-7
2320,-27,52,971,-6,26,-4
2321,-106,68,1014,-17,19,-6
2322,-103,86,1007,-35,2,-5
2323,-81,7,963,-48,-10,-6
2324,20,-73,1016,-41,-17,-9
2325,77,-163,997,-33,-8,-9
2326,84,-132,972,-8,6,-9
2327,23,-46,1000,9,16,-4
2328,-75,54,1002,9,18,-2
2329,-124,83,988,-6,7,-3
2330,-101,73,1003,-22,-9,-6
2331,15,-5,1014,-35,-19,-11
2332,89,-83,992,-33,-16,-12
2333,118,-95,998,-20,-1,-7
2334,41,-71,998,-9,18,-4
2335,-75,-23,995,-3,25,0
2336,-142,27,987,-3,12,-2
2337,-112,48,989,-12,-7,-6
2338,4,15,1009,-19,-22,-11
2339,86,-28,1007,-25,-19,-11
2340,135,-47,1003,-22,-3,-9
2341,56,-54,997,-18,18,-3
2342,-63,-34,995,-10,26,2
2343,-144,-13,982,-10,15,-1
2344,-130,4,991,-9,-6,-5
2345,-24,-5,998,-14,-23,-11
2346,88,-11,1001,-16,-22,-13
2347,144,-16,1010,-14,-8,-10
2348,72,-23,1003,-18,17,-3
2349,-44,-23,1002,-18,28,0
2350,-147,-15,979,-17,19,0
2351,-143,-19,987,-15,-2,-4
2352,-56,-32,994,-14,-23,-11
2353,79,-19,1006,-12,-27,-13
2354,149,-19,1006,-13,-10,-12
2355,97,-4,1004,-14,14,-3
2356,-21,-3,1002,-17,28,0
2357,-141,1,978,-20,23,2
2358,-160,-23,990,-19,0,-3
2359,-85,-40,991,-18,-22,-11
2360,71,-36,1005,-13,-27,-13
2361,145,-33,1011,-8,-15,-14
2362,118,-6,1004,-9,10,-6
2363,6,12,996,-14,28,-1
2364,-132,16,987,-18,27,3
2365,-164,-13,991,-22,5,-2
2366,-106,-37,980,-25,-18,-8
2367,47,-46,1004,-19,-26,-11
2368,137,-49,1018,-10,-16,-13
2369,134,-16,1005,-7,6,-6
2370,30,12,995,-11,26,-1
2371,-117,21,995,-14,28,3
2372,-169,0,981,-22,9,-1
2373,-120,-25,985,-23,-13,-7
2374,24,-51,1006,-17,-29,-13
2375,120,-57,1006,-14,-21,-14
2376,151,-25,1003,-6,0,-8
2377,44,1,1009,-9,26,-1
2378,-90,18,1001,-15,31,4
2379,-170,7,975,-18,15,-1
2380,-132,-4,980,-22,-11,-6
2381,-1,-50,1008,-19,-29,-12
2382,112,-53,1006,-14,-22,-13
2383,156,-34,1005,-9,-3,-9
2384,64,-5,1005,-9,23,-3
2385,-69,9,1006,-12,31,2
2386,-161,12,966,-20,17,-1
2387,294,131,38,21,-16,17
2388,178,117,1247,9,45,-10
2389,-200,243,227,-229,-16,45
2390,-153,-267,406,-132,78,3
2391,-658,-420,731,22,2,-87
2392,-22,-117,1630,36,-91,-26
2393,360,-536,653,25,-54,-74
2394,-156,256,906,113,-10,19
2395,518,278,1343,38,-50,-12
2396,4,245,1080,5,62,-33
2397,-130,170,586,-75,39,59
2398,-158,0,1432,-55,12,-21
2399,-71,-294,795,-74,-12,-29
2400,-88,-194,826,-15,-22,17
2401,71,-94,1223,14,-39,-26
2402,72,-52,968,13,-1,-17
2403,41,140,886,14,16,10
2404,-49,125,1172,-12,11,-7
2405,25,38,947,-37,6,-14
2406,-69,-58,920,-38,-3,1
2407,-76,-57,1047,-30,-18,-7
2408,27,-155,1016,-22,-11,-21
2409,-44,-61,910,-3,-2,0
2410,23,26,1071,2,-7,-7
2411,69,17,1029,-5,0,-21
2412,11,51,940,-13,3,1
2413,0,63,1025,-23,-1,-6
2414,-25,-42,1038,-33,5,-12
2415,-62,-60,921,-31,5,1
2416,-34,-65,1013,-19,1,-6
2417,64,-71,1027,-10,-3,-12
2418,49,-30,953,-1,4,-4
2419,19,39,1010,0,8,-4
2420,-39,42,1027,-13,15,-6
2421,-85,23,969,-23,13,-1
2422,-83,-6,991,-27,1,-4
2423,-43,-49,1011,-26,-11,-8
2424,26,-86,974,-16,-15,-10
2425,52,-59,1005,-8,-9,-9
2426,86,-13,1013,-3,1,-8
2427,20,19,987,-4,16,-4
2428,-58,41,1003,-13,18,0
2429,-101,22,1003,-22,9,-3
2430,-88,-25,983,-26,-7,-6
2431,-30,-63,988,-23,-18,-8
2432,70,-69,1011,-14,-17,-11
2433,113,-50,990,-7,-3,-9
2434,55,-4,1000,-5,15,-3
2435,-33,31,1019,-9,22,-3
2436,-116,32,976,-18,16,-2
2437,-123,5,989,-23,-2,-4
2438,-56,-45,1002,-26,-19,-8
2439,68,-62,1001,-18,-21,-12
2440,123,-64,991,-12,-9,-10
2441,88,-22,1005,-4,9,-5
2442,-6,10,1004,-7,22,-2
2443,-120,34,983,-14,22,1
2444,-141,8,996,-20,4,-4
2445,-84,-24,989,-22,-16,-11
2446,56,-45,1005,-20,-25,-12
2447,126,-58,1008,-13,-13,-12
2448,110,-34,1008,-10,8,-5
2449,15,0,990,-7,25,-3
2450,-114,24,991,-11,25,3
2451,-154,6,991,-19,6,-3
2452,-100,-7,986,-20,-15,-8
2453,36,-35,1010,-19,-26,-12
2454,117,-54,1007,-16,-17,-13
2455,128,-35,1001,-11,4,-6
2456,35,-5,1003,-10,23,-2
2457,-102,10,998,-12,27,2
2458,-158,5,973,-17,11,-1
2459,-123,-4,986,-18,-11,-7
2460,10,-36,1011,-18,-28,-12
2461,109,-50,1003,-15,-20,-13
2462,145,-29,1004,-11,-1,-8
2463,54,-8,1005,-11,22,-2
2464,-76,3,1002,-12,28,0
2465,-161,2,970,-16,15,-2
2466,-138,-3,992,-19,-8,-6
2467,-15,-40,1003,-20,-26,-12
2468,104,-42,997,-14,-23,-13
2469,154,-34,1009,-10,-5,-9
2470,74,-10,1008,-10,20,-3
2471,-60,0,1003,-15,31,3
2472,-158,10,975,-15,20,0
2473,-147,-6,994,-19,-5,-5
2474,-44,-40,995,-19,-25,-12
2475,92,-44,1001,-14,-27,-13
2476,160,-35,1008,-12,-9,-12
2477,89,-14,1005,-9,17,-3
2478,-30,8,1004,-10,29,0
2479,-152,10,979,-17,22,2
2480,-158,-6,992,-18,0,-5
2481,-74,-39,994,-20,-22,-10
2482,90,-34,859,-9,-32,-15
2483,828,305,284,157,7,-6
2484,-48,87,1238,-152,83,-2
2485,-227,304,37,-198,72,84
2486,-293,-474,371,-104,81,-23
2487,-957,-307,1108,47,-40,-21
2488,281,-393,1416,-7,-131,-45
2489,-106,-490,566,96,-29,-80
2490,258,416,995,119,-67,-3
2491,687,296,1568,46,-25,-39
2492,39,395,695,-13,92,7
2493,-214,169,890,-106,64,65
2494,-358,-101,1379,-71,20,-34
2495,-292,-398,583,-85,-18,-14
2496,-3,-273,984,5,-65,-7
2497,222,-154,1242,41,-57,-33
2498,323,29,861,36,3,-19
2499,49,242,1024,28,41,19
2500,-153,229,1147,-18,41,0
2501,-205,11,869,-59,21,-6
2502,-228,-101,954,-42,-24,3
2503,28,-185,1068,-31,-55,-22
2504,213,-215,967,3,-32,-30
2505,135,-26,967,25,0,5
2506,73,104,1093,17,25,-9
2507,-96,88,989,-4,36,-3
2508,-219,104,928,-23,11,9
2509,-124,3,1058,-38,-23,-15
2510,30,-126,993,-33,-37,-20
2511,115,-113,946,-17,-27,-8
2512,165,-72,1045,-1,-5,-15
2513,60,-24,1007,4,24,-6
2514,-55,66,969,-1,29,1
2515,-137,89,1007,-12,15,-6
2516,-103,62,1010,-28,-5,-8
2517,4,40,980,-41,-17,-5
2518,84,-41,1015,-44,-10,-11
2519,89,-114,992,-38,6,-5
2520,3,-130,964,-20,21,-2
2521,-79,-74,992,-2,20,-4
2522,-104,3,991,5,9,-4
2523,-98,49,995,2,-5,-7
2524,-27,63,1009,-12,-19,-9
2525,83,26,1027,-24,-17,-12
2526,105,-40,982,-29,-3,-8
2527,63,-67,1001,-24,12,-2
2528,-16,-69,992,-17,21,-4
2529,-118,-38,967,-9,18,0
2530,-129,-7,999,-6,-1,-4
2531,-75,14,1003,-8,-15,-9
2532,61,12,1001,-13,-22,-11
2533,109,-9,1012,-17,-10,-9
2534,105,-20,1015,-20,7,-7
2535,15,-30,987,-19,21,-3
2536,-108,-31,981,-17,22,1
2537,-146,-31,991,-15,5,-4
2538,-96,-20,991,-12,-13,-9
2539,27,-20,1001,-12,-24,-11
2540,107,-18,1011,-10,-17,-12
2541,132,-3,1011,-10,1,-7
2542,36,2,999,-17,22,-1
2543,-85,-4,1005,-18,27,0
2544,-149,-23,971,-21,12,-1
2545,-120,-27,977,-16,-9,-6
2546,-4,-47,1008,-14,-26,-11
2547,100,-36,1006,-10,-19,-13
2548,144,-11,1004,-8,-2,-9
2549,60,8,1010,-10,18,-3
2550,-60,11,1001,-16,27,1
2551,-152,1,975,-22,18,0
2552,-143,-22,993,-22,-6,-4
2553,-34,-55,991,-19,-25,-11
2554,90,-48,995,-11,-24,-13
2555,151,-27,1009,-7,-7,-12
2556,84,0,1014,-9,17,-5
2557,-33,19,997,-13,30,0
2558,-151,20,982,-18,20,1
2559,-151,-10,992,-21,-2,-3
2560,-65,-51,989,-21,-22,-11
2561,77,-53,1008,-13,-25,-14
2562,146,-45,1006,-8,-12,-12
2563,105,-13,999,-6,13,-5
2564,-10,15,1002,-9,28,-1
2565,-135,27,989,-16,25,1
2566,-159,-2,992,-22,2,-3
2567,-93,-33,984,-22,-21,-10
2568,60,-49,1003,-17,-30,-13
2569,141,-59,1016,-12,-16,-13
2570,120,-30,1005,-10,8,-6
2571,15,4,994,-8,28,-3
2572,-121,22,987,-14,27,2
2573,-167,6,989,-18,6,-2
2574,-109,-19,984,-21,-16,-8
2575,37,-40,1007,-18,-28,-13
2576,127,-59,1012,-16,-19,-13
2577,142,-30,1003,-8,4,-8
2578,38,0,999,-11,25,-1
2579,-105,13,1002,-14,28,3
2580,-166,8,977,-19,12,0
2581,-125,-9,982,-21,-12,-6
2582,9,-38,1002,-17,-30,-13
2583,452,84,92,47,7,-7
2584,479,92,1265,53,79,-14
2585,-234,303,559,-188,52,49
2586,-176,-144,431,-121,106,26
2587,-674,-288,597,-24,27,-68
2588,-398,-151,1608,12,-79,-16
2589,287,-553,826,14,-88,-77
2590,-196,4,764,91,-31,-29
2591,725,209,1275,67,-79,-27
2592,246,231,1250,38,54,-22
2593,-65,280,532,-56,76,51
2594,-280,68,1384,-50,42,8
2595,-313,-123,905,-74,2,-28
2596,-200,-281,741,-51,-34,-2
2597,130,-170,1175,12,-70,-27
2598,261,-131,1057,11,-27,-24
2599,219,63,847,31,24,-1
2600,-63,173,1163,11,40,12
2601,-162,142,975,-29,34,-5
2602,-230,-18,912,-41,5,0
2603,-148,-68,1019,-37,-39,-6
2604,140,-162,1043,-23,-45,-28
2605,187,-133,937,2,-19,-14
2606,117,-6,1036,12,10,2
2607,30,53,1038,6,34,-11
2608,-170,73,942,-10,32,7
2609,-194,74,995,-23,-1,2
2610,-80,-28,1035,-32,-27,-19
2611,65,-76,961,-27,-34,-11
2612,148,-87,1013,-17,-19,-11
2613,147,-61,1036,-7,9,-10
2614,29,-3,966,-5,30,1
2615,-116,56,981,-7,30,3
2616,-189,63,1005,-22,8,-6
2617,-133,22,974,-31,-18,-8
2618,11,-44,1003,-32,-34,-12
2619,134,-103,1017,-26,-25,-16
2620,174,-93,995,-11,1,-9
2621,61,-39,989,-2,26,0
2622,-92,19,1022,-3,33,1
2623,-176,41,970,-9,16,-2
2624,-157,42,974,-17,-8,-4
2625,-7,-10,1023,-24,-30,-12
2626,110,-55,1007,-24,-26,-14
2627,167,-62,988,-18,-7,-9
2628,78,-48,1018,-11,20,-2
2629,-62,-18,1001,-9,30,0
2630,-166,9,966,-10,20,0
2631,-161,20,1001,-12,-5,-5
2632,-33,-8,999,-19,-27,-12
2633,94,-25,996,-16,-28,-13
2634,164,-33,1007,-16,-10,-10
2635,92,-37,1014,-14,18,-5
2636,-34,-20,993,-12,32,0
2637,-162,-2,977,-16,23,2
2638,-157,-4,993,-14,-2,-5
2639,-66,-23,993,-17,-24,-11
2640,78,-17,1004,-13,-28,-14
2641,162,-27,1007,-13,-12,-12
2642,111,-21,1004,-14,14,-3
2643,-14,-4,999,-14,28,0
2644,-144,0,985,-17,24,2
2645,-167,-17,985,-17,4,-3
2646,-93,-31,986,-14,-20,-10
2647,61,-30,1009,-13,-31,-13
2648,151,-31,1009,-11,-18,-13
2649,127,-14,1007,-10,10,-5
2650,13,4,995,-13,29,-1
2651,-130,10,985,-18,28,2
2652,-176,-15,988,-20,6,-1
2653,-117,-29,981,-18,-18,-8
2654,43,-42,1007,-14,-30,-13
2655,135,-39,1011,-11,-20,-14
2656,148,-13,1012,-8,4,-7
2657,37,7,1000,-12,25,-1
2658,-108,14,994,-18,29,3
2659,-174,-5,977,-19,12,-2
2660,-128,-21,985,-21,-13,-6
2661,11,-47,1005,-18,-31,-12
2662,122,-51,1011,-11,-22,-14
2663,154,-23,1009,-6,1,-8
2664,60,5,1006,-10,25,-2
2665,-84,14,1008,-14,31,2
2666,-168,7,973,-19,14,0
2667,-143,-13,981,-21,-9,-5
2668,-16,-50,1002,-18,-28,-12
2669,103,-52,1007,-14,-25,-13
2670,164,-33,1001,-11,-4,-10
2671,73,-6,1008,-7,21,-4
2672,-57,12,1008,-11,30,1
2673,-164,17,975,-18,21,0
2674,-152,-4,989,-20,-3,-4
2675,-45,-44,996,-21,-26,-11
2676,95,-51,999,-13,-28,-13
2677,164,-44,1006,-9,-9,-11
2678,94,-13,1010,-9,17,-4
2679,-32,9,1002,-10,32,-1
2680,-155,20,978,-16,25,2
2681,40,79,218,52,21,0
2682,439,131,1216,50,37,-15
2683,-200,218,824,-137,16,24
2684,-160,-108,356,-149,72,29
2685,-457,-446,638,-10,21,-84
2686,-316,-87,1576,40,-63,-27
2687,492,-501,802,-1,-69,-66
2688,-236,66,851,108,3,6
2689,445,287,1209,44,-61,4
2690,68,217,1226,21,45,-44
2691,-124,185,575,-54,41,48
2692,-155,49,1328,-58,13,-2
2693,-32,-229,947,-62,-10,-41
2694,-104,-235,751,-27,-16,21
2695,72,-101,1181,19,-37,-22
2696,55,-87,1035,17,-4,-19
2697,57,109,855,20,17,6
2698,-67,117,1147,2,15,-3
2699,33,68,999,-21,5,-16
2700,-42,-47,908,-33,3,1
2701,-81,-38,1047,-17,-9,-3
2702,13,-128,1022,-8,-11,-20
2703,-34,-67,911,1,0,-2
2704,-9,11,1047,2,-7,-2
2705,67,16,1047,-2,-1,-21
2706,22,29,940,-13,4,-3
2707,-6,64,1011,-16,1,-5
2708,-16,-26,1053,-28,3,-15
2709,-71,-49,927,-29,4,-2
2710,-64,-46,1000,-21,-2,-4
2711,2,-67,1033,-15,-8,-15
2712,44,-25,960,-7,-7,-6
2713,69,55,1001,-8,-3,-7
2714,18,100,1036,-27,8,-10
2715,-35,36,980,-40,16,-3
2716,-99,-39,982,-47,11,1
2717,-76,-132,1008,-38,-3,-7
2718,-33,-152,962,-16,-15,-10
2719,43,-81,991,7,-16,-8
2720,99,13,1025,12,-6,-13
2721,62,76,998,2,13,-6
2722,-19,98,1006,-16,20,0
2723,-102,51,1008,-34,15,-1
2724,-116,-44,985,-40,-1,-4
2725,-72,-111,976,-29,-16,-7
2726,46,-114,1012,-13,-21,-13
2727,119,-76,996,1,-10,-13
2728,89,7,994,7,10,-4
2729,9,69,1014,-1,22,-2
2730,-105,74,1000,-19,22,0
2731,-141,16,984,-30,6,-2
2732,-100,-49,991,-34,-15,-8
2733,41,-93,1004,-23,-24,-13
2734,113,-96,994,-11,-15,-12
2735,119,-44,1011,0,6,-7
2736,28,19,1002,2,24,-3
2737,-99,56,988,-9,26,1
2738,-158,36,988,-21,8,-3
2739,-111,-5,994,-28,-12,-8
2740,23,-57,1002,-25,-26,-12
2741,111,-86,1004,-16,-19,-13
2742,140,-56,1003,-6,1,-7
2743,47,-10,997,-4,22,-3
2744,-91,27,1007,-8,29,2
2745,-158,30,978,-16,13,-3
2746,-131,14,981,-21,-10,-7
2747,-1,-37,1007,-22,-28,-11
2748,104,-60,1009,-18,-22,-14
2749,154,-51,997,-14,-2,-8
2750,57,-25,1008,-10,20,-2
2751,-70,5,1004,-8,27,2
2752,-157,16,971,-14,17,-1
2753,-142,13,990,-16,-6,-6
2754,-24,-27,1003,-21,-26,-12
2755,98,-44,1000,-17,-25,-13
2756,153,-40,1003,-13,-8,-9
2757,85,-24,1010,-11,18,-4
2758,-44,-6,1006,-12,31,1
2759,-156,10,969,-17,21,1
2760,-149,2,1001,-17,-2,-5
2761,-59,-30,996,-17,-24,-11
2762,88,-32,996,-14,-27,-13
2763,160,-38,1010,-12,-11,-12
2764,99,-21,1004,-11,17,-4
2765,-22,-8,1000,-11,29,-1
2766,-150,10,980,-18,23,2
2767,-164,-8,990,-19,1,-3
2768,-76,-33,991,-17,-22,-11
2769,69,-35,1009,-15,-28,-12
2770,157,-39,1009,-11,-16,-14
2771,105,-23,952,-7,11,-3
2772,396,148,462,29,33,15
2773,110,123,1650,-16,91,1
2774,-414,199,703,-130,45,42
2775,-254,-194,516,-100,49,-11
2776,-672,-276,868,10,-10,-72
2777,30,-205,1412,-5,-103,-38
2778,404,-417,793,31,-64,-60
2779,108,168,930,79,-12,3
2780,434,205,1272,31,-11,-7
2781,-120,234,1018,5,74,-7
2782,-323,140,715,-69,43,50
2783,-197,-23,1281,-49,-14,-20
2784,-16,-264,858,-59,-38,-31
2785,133,-187,887,-8,-40,-1
2786,230,-71,1184,20,-20,-21
2787,65,-17,967,13,30,-7
2788,-145,129,912,8,41,16
2789,-233,105,1101,-15,12,-2
2790,-73,7,950,-35,-19,-17
2791,24,-80,963,-28,-37,-10
2792,152,-57,1060,-18,-34,-16
2793,162,-93,1001,-15,2,-17
2794,-34,-9,958,-5,29,7
2795,-136,43,1031,-12,24,1
2796,-129,20,998,-20,7,-10
2797,-71,-3,951,-22,-20,-7
2798,74,-11,1033,-23,-32,-17
2799,159,-59,1021,-23,-16,-18
2800,93,-37,962,-19,14,-2
2801,0,-16,1023,-16,31,0
2802,-112,-15,989,-15,31,0
2803,-187,-32,945,-12,6,1
2804,-118,-21,1002,-7,-26,-10
2805,39,-17,1020,-7,-34,-17
2806,164,1,986,-8,-20,-13
2807,148,12,1022,-13,8,-5
2808,31,7,1010,-20,29,-1
2809,-125,-14,972,-23,31,3
2810,-189,-32,987,-21,11,-2
2811,-132,-57,991,-16,-15,-10
2812,40,-42,990,-9,-31,-14
2813,145,-22,1018,-4,-22,-14
2814,156,4,1014,-7,4,-8
2815,43,17,992,-15,29,-1
2816,-120,24,988,-18,31,4
2817,-180,-17,999,-24,10,-2
2818,-135,-47,966,-23,-15,-9
2819,23,-55,998,-13,-30,-14
2820,142,-48,1027,-8,-22,-14
2821,155,-19,1005,-5,3,-7
2822,51,20,992,-8,25,-1
2823,-107,27,1004,-16,30,3
2824,-179,-2,977,-23,12,-1
2825,-142,-26,977,-23,-12,-7
2826,13,-56,1014,-17,-30,-13
2827,123,-57,1005,-10,-25,-15
2828,165,-26,1004,-6,0,-7
2829,63,8,1005,-8,23,-2
2830,-88,21,1005,-14,33,2
2831,-175,13,972,-20,16,0
2832,-149,-7,981,-22,-9,-6
2833,-12,-52,998,-19,-31,-13
2834,107,-61,1010,-13,-26,-15
2835,166,-32,1006,-9,-4,-10
2836,80,-3,1008,-6,22,-3
2837,-66,17,1003,-11,32,1
2838,-167,15,978,-17,19,2
2839,-155,-2,986,-20,-6,-4
2840,-36,-45,994,-20,-26,-12
2841,100,-48,1003,-15,-27,-14
2842,168,-44,1006,-10,-9,-11
2843,90,-12,1001,-8,19,-3
2844,-43,5,1009,-11,32,0
2845,-158,20,978,-16,23,0
2846,-161,-1,986,-20,-1,-5
2847,-61,-32,996,-20,-25,-12
2848,87,-45,1002,-15,-28,-13
2849,166,-45,1002,-10,-10,-11
2850,103,-21,1009,-9,16,-4
2851,-17,3,1003,-10,29,1
2852,-149,22,982,-14,23,2
2853,-166,-4,987,-20,1,-2
2854,-88,-26,993,-21,-22,-10
2855,72,-41,1007,-18,-30,-13
2856,157,-45,1008,-10,-15,-14
2857,118,-27,1000,-9,11,-5
2858,6,1,995,-12,27,-2
2859,-138,19,992,-16,28,3
2860,-166,-4,980,-18,6,-2
2861,210,31,290,39,-17,-2
2862,438,35,1318,50,41,-13
2863,-164,163,788,-118,26,28
2864,-196,-118,488,-94,82,11
2865,-603,-230,753,7,17,-73
2866,-196,37,1497,13,-70,-16
2867,340,-430,769,-15,-63,-66
2868,-81,99,925,65,-25,7
2869,463,90,1188,16,-50,-6
2870,65,109,1140,14,50,-33
2871,-122,117,637,-39,48,50
2872,-164,80,1308,-31,23,-13
2873,-101,-164,911,-51,-4,-23
2874,-106,-122,834,-18,-23,12
2875,74,-94,1146,1,-41,-24
2876,103,-106,1015,9,-10,-17
2877,51,46,889,12,14,6
2878,-36,86,1121,3,17,-7
2879,-18,66,976,-16,13,-10
2880,-107,11,941,-26,0,1
2881,-83,-2,1039,-28,-22,-9
2882,28,-93,1017,-30,-21,-18
2883,20,-85,932,-20,-9,-5
2884,54,-34,1040,-9,-4,-7
2885,80,-8,1018,-8,4,-15
2886,-26,31,954,-12,10,-1
2887,-63,69,1028,-20,3,-5
2888,-64,-1,1013,-34,-1,-13
2889,-63,-27,960,-33,-8,-2
2890,-7,-63,1016,-31,-14,-9
2891,67,-71,1017,-22,-8,-14
2892,84,-42,962,-15,0,-7
2893,35,12,1002,-9,12,-4
2894,-5,25,1023,-14,16,-6
2895,-76,2,958,-23,18,1
2896,-115,-24,1005,-25,5,-2
2897,-81,-59,1001,-21,-9,-8
2898,19,-50,981,-13,-16,-10
2899,93,-34,1006,-6,-12,-9
2900,97,1,1020,-4,4,-7
2901,30,21,980,-13,20,-3
2902,-93,30,998,-18,22,2
2903,-131,-9,1008,-25,7,-2
2904,-101,-49,966,-24,-11,-6
2905,19,-58,999,-16,-24,-11
2906,106,-59,1022,-11,-17,-14
2907,123,-24,996,-5,1,-7
2908,37,20,995,-5,20,-1
2909,-88,31,1009,-15,24,1
2910,-145,2,982,-21,10,-2
2911,-117,-17,976,-23,-10,-6
2912,9,-56,1012,-21,-26,-14
2913,100,-67,1001,-13,-21,-14
2914,138,-32,996,-6,-1,-7
2915,53,1,1015,-6,21,-4
2916,-75,21,1002,-10,28,1
2917,-153,15,972,-19,13,-2
2918,-131,-4,984,-21,-9,-5
2919,-12,-46,1003,-21,-26,-13
2920,95,-57,1007,-17,-22,-13
2921,150,-39,1005,-10,-4,-9
2922,69,-9,1008,-8,20,-3
2923,-62,8,998,-11,28,3
2924,-153,22,979,-14,18,0
2925,-143,1,992,-20,-5,-5
2926,-40,-36,994,-21,-26,-11
2927,95,-46,1000,-15,-27,-13
2928,153,-43,1004,-11,-8,-11
2929,88,-21,1006,-10,18,-3
2930,-38,3,1008,-11,30,1
2931,-151,18,974,-15,20,0
2932,-153,1,990,-18,-2,-4
2933,-68,-31,998,-19,-25,-11
2934,85,-37,1007,-15,-27,-13
2935,159,-43,1002,-13,-11,-12
2936,103,-20,1005,-8,14,-3
2937,-12,3,999,-11,28,0
2938,-143,12,987,-17,26,3
2939,-165,-1,988,-18,2,-3
2940,-90,-32,990,-19,-21,-11
2941,68,-33,1009,-14,-30,-13
2942,147,-45,1012,-11,-15,-11
2943,123,-19,1010,-10,10,-6
2944,11,0,993,-12,29,-2
2945,-129,15,983,-16,27,2
2946,-171,-8,988,-20,5,-2
2947,-107,-23,985,-17,-18,-8
2948,44,-40,1007,-15,-29,-12
2949,135,-48,1013,-12,-17,-12
2950,141,-19,1006,-8,5,-6
2951,33,4,999,-12,25,-1
2952,-108,12,997,-15,29,2
2953,-170,-1,975,-19,12,-2
2954,-122,-16,982,-21,-13,-8
2955,17,-46,1012,-18,-29,-12
2956,117,-52,1001,-11,-21,-12
2957,152,-25,1013,-8,1,-9
2958,55,1,1003,-10,25,-2
2959,-86,13,1003,-15,29,3
2960,-161,8,972,-20,14,-1
2961,-142,-8,990,-21,-9,-5
2962,-10,-43,892,-14,-22,-13
2963,744,291,284,163,60,-15
2964,109,-35,1576,-55,86,-17
2965,-227,260,238,-145,73,76
2966,-279,-364,495,-99,95,-50
2967,-1004,-136,984,39,-11,-72
2968,277,-272,1417,-13,-134,-57
2969,-72,-453,719,39,-48,-56
2970,254,263,910,85,-71,-11
2971,706,91,1463,33,-33,-44
2972,2,306,807,3,87,15
2973,-178,174,836,-71,65,54
2974,-322,5,1357,-52,26,-29
2975,-296,-239,668,-78,-14,-2
2976,-24,-218,963,-15,-63,-12
2977,208,-170,1215,12,-60,-31
2978,283,-68,874,22,-4,-15
2979,89,120,1011,27,35,10
2980,-111,160,1115,1,41,2
2981,-187,74,890,-33,31,-1
2982,-221,-35,983,-32,-14,-1
2983,-47,-87,1039,-30,-46,-15
2984,183,-166,981,-13,-36,-26
2985,118,-77,981,6,-7,0
2986,108,27,1065,9,17,-4
2987,-28,37,985,0,35,-6
2988,-191,93,945,-10,19,12
2989,-139,27,1038,-28,-12,-11
2990,-38,-59,995,-29,-28,-16
2991,74,-83,965,-23,-31,-6
2992,139,-92,1039,-10,-12,-16
2993,107,-54,1003,-2,12,-8
2994,-6,19,967,2,28,1
2995,-92,52,1028,-4,20,-6
2996,-114,37,978,-16,3,-8
2997,-67,20,976,-23,-11,-7
2998,30,-18,1021,-25,-17,-11
2999,119,-30,1006,-30,-4,-10
3000,86,-50,980,-24,15,-5
3001,-21,-41,1008,-16,24,-1
3002,-101,-41,992,-14,20,-4
3003,-139,-12,959,-10,4,-4
3004,-83,6,1018,-10,-14,-6
3005,17,-10,1006,-16,-24,-12
3006,102,-11,986,-16,-15,-10
3007,119,-17,1013,-17,0,-7
3008,33,-22,1010,-17,20,-3
3009,-62,-21,980,-15,25,-1
3010,-140,-6,982,-15,11,-1
3011,-116,-20,1002,-14,-8,-6
3012,-26,-30,992,-13,-20,-10
3013,84,-20,1009,-13,-20,-10
3014,128,-22,1010,-13,-7,-9
3015,74,-12,993,-10,15,-4
3016,-32,-1,990,-16,25,-1
3017,-130,6,995,-18,18,1
3018,-133,-20,995,-19,-1,-5
3019,-68,-34,978,-19,-19,-9
3020,68,-41,1009,-12,-24,-12
3021,120,-39,1014,-11,-11,-12
3022,102,-12,1008,-8,10,-6
3023,6,5,991,-11,26,-2
3024,-120,14,984,-15,23,1
3025,-147,-10,990,-20,4,-3
3026,-97,-28,987,-20,-14,-8
3027,43,-41,1006,-16,-27,-12
3028,117,-51,1010,-11,-17,-13
3029,128,-17,1004,-7,4,-6
3030,29,6,1001,-11,23,-2
3031,-102,16,1002,-15,27,1
3032,-160,2,977,-21,10,-3
3033,-113,-15,978,-22,-14,-6
3034,7,-51,1007,-18,-28,-11
3035,112,-52,1007,-13,-20,-13
3036,146,-29,1007,-8,0,-8
3037,52,2,1002,-7,22,-2
3038,-78,16,1003,-11,28,1
3039,-154,13,973,-25,16,0
3040,-133,-10,987,-25,-6,-6
3041,-18,-46,998,-20,-26,-13
3042,101,-53,1002,-13,-23,-14
3043,148,-36,1004,-8,-6,-10
3044,74,-11,1005,-8,20,-3
3045,-54,11,1010,-11,30,1
3046,-148,15,972,-18,20,2
3047,-147,-4,995,-18,-3,-5
3048,-50,-40,993,-21,-26,-11
3049,86,-45,1008,-14,-26,-14
3050,151,-41,1004,-11,-9,-11
3051,91,-18,1002,-7,16,-3
3052,-25,6,1004,-9,28,0
3053,-144,16,981,-17,22,2
3054,-154,-4,994,-19,1,-4
3055,-68,-1,900,-25,-24,-8
3056,655,303,492,-9,-30,-4
3057,118,-74,1748,-70,70,-21
3058,-187,206,360,-128,52,66
3059,-165,-374,570,-92,86,-34
3060,-819,-191,989,33,9,-55
3061,179,-256,1336,7,-97,-49
3062,-70,-384,728,53,-35,-46
3063,124,257,969,83,-61,7
3064,583,152,1366,39,-32,-42
3065,34,239,886,0,72,-1
3066,-122,182,813,-62,51,50
3067,-228,-40,1343,-47,26,-31
3068,-258,-220,707,-67,-2,-6
3069,-81,-192,932,-13,-44,-5
3070,135,-141,1202,16,-53,-30
3071,200,-46,905,19,-6,-11
3072,128,126,988,22,22,5
3073,-47,140,1131,-4,34,-1
3074,-120,62,913,-32,29,-2
3075,-202,-40,956,-34,-4,1
3076,-94,-79,1042,-29,-33,-11
3077,93,-163,977,-14,-31,-23
3078,100,-74,967,4,-13,-6
3079,132,20,1064,10,5,-7
3080,21,51,999,-1,27,-9
3081,-113,79,963,-13,21,5
3082,-128,48,1016,-27,2,-9
3083,-83,-41,1005,-34,-15,-12
3084,-16,-66,954,-28,-25,-5
3085,67,-50,1024,-20,-20,-14
3086,87,-25,1007,-19,-5,-10
3087,58,0,964,-16,11,-4
3088,1,1,1019,-17,14,-5
3089,-76,-3,1001,-19,11,-4
3090,-106,-31,973,-20,2,-4
3091,-80,-45,998,-17,-11,-7
3092,39,-37,1012,-12,-19,-12
3093,103,-36,993,-8,-9,-12
3094,85,1,1006,-7,6,-6
3095,20,19,1004,-14,16,-4
3096,-98,17,984,-18,21,0
3097,-140,-12,997,-24,4,-2
3098,-89,-43,990,-23,-12,-9
3099,33,-60,997,-15,-21,-12
3100,106,-50,1008,-9,-14,-11
3101,117,-15,1018,-6,4,-8
3102,32,15,988,-8,21,-4
3103,-98,29,998,-15,24,1
3104,-145,-1,992,-22,10,-4
3105,-108,-29,980,-22,-10,-7
3106,15,-55,1002,-18,-26,-12
3107,105,-60,1016,-12,-20,-13
3108,138,-30,995,-6,0,-8
3109,46,6,1005,-8,21,-3
3110,-81,20,1012,-14,28,1
3111,-148,10,975,-19,13,-1
3112,-129,-6,978,-22,-8,-4
3113,-15,-51,1006,-21,-27,-12
3114,99,-55,1004,-15,-21,-13
3115,146,-37,1003,-11,-4,-8
3116,67,-6,1010,-8,19,-3
3117,-54,10,1002,-10,28,-1
3118,-154,19,974,-19,18,-1
3119,-142,-1,999,-21,-5,-5
3120,-43,-39,992,-21,-25,-11
3121,89,-47,1000,-14,-25,-13
3122,151,-47,1006,-11,-9,-11
3123,84,-18,1005,-10,17,-4
3124,-29,3,1002,-9,28,-1
3125,-148,19,981,-15,22,1
3126,-152,-1,991,-20,0,-4
3127,-68,-32,989,-20,-21,-10
3128,73,-35,1012,-19,-27,-11
3129,151,-47,1005,-13,-13,-12
3130,105,-29,998,-10,12,-3
3131,-5,-1,996,-11,27,0
3132,-132,18,992,-13,25,2
3133,-161,0,987,-18,3,-4
3134,-91,-18,985,-19,-19,-10
3135,53,-37,1011,-16,-28,-12
3136,134,-48,1011,-13,-16,-13
3137,128,-27,1006,-12,7,-4
3138,22,-1,993,-10,26,-1
3139,-117,12,992,-14,27,2
3140,-163,-3,981,-19,8,-3
3141,-114,-10,987,-21,-14,-8
3142,33,-36,1009,-18,-29,-13
3143,116,-49,1005,-13,-19,-13
3144,146,-29,1006,-9,2,-7
3145,43,-4,1005,-10,24,-1
3146,-93,8,999,-14,29,2
3147,-162,4,973,-19,13,-1
3148,-78,78,636,-14,-20,-2
3149,543,208,979,12,-13,-11
3150,-21,45,1449,-104,41,-6
3151,-173,14,386,-120,57,43
3152,-295,-421,662,-56,52,-62
3153,-645,-173,1230,42,-28,-36
3154,417,-311,1060,11,-92,-50
3155,-113,-116,839,74,-17,-18
3156,346,328,1077,59,-61,10
3157,282,186,1293,13,16,-41
3158,-92,202,707,-45,57,29
3159,-191,52,1072,-66,32,24
3160,-123,-182,1131,-57,-1,-41
3161,-142,-262,720,-41,-19,13
3162,59,-99,1099,18,-44,-17
3163,90,-95,1101,12,-23,-22
3164,119,98,890,21,11,0
3165,-14,123,1068,0,20,2
3166,-35,83,1045,-22,17,-10
3167,-63,-39,907,-39,8,-2
3168,-120,-56,1005,-25,-12,-4
3169,-3,-121,1045,-21,-22,-13
3170,22,-99,936,-1,-9,-10
3171,26,-4,1015,7,-3,1
3172,75,30,1060,2,5,-16
3173,12,31,967,-8,12,-5
3174,-43,66,980,-17,5,-1
3175,-50,-10,1039,-29,1,-11
3176,-54,-69,958,-27,-1,-6
3177,-37,-58,982,-18,-5,-2
3178,54,-59,1032,-10,-6,-13
3179,62,-30,981,-2,0,-8
3180,87,81,984,-4,8,-6
3181,10,75,1038,-23,21,-9
3182,-95,32,990,-38,22,1
3183,-153,-55,961,-41,9,1
3184,-108,-109,990,-28,-9,-9
3185,10,-131,997,-13,-23,-12
3186,100,-64,990,4,-17,-13
3187,129,19,1021,7,-2,-9
3188,52,76,1012,-2,19,-5
3189,-68,69,999,-20,27,2
3190,-145,29,982,-33,16,1
3191,-122,-50,999,-35,-6,-6
3192,-32,-111,974,-26,-24,-11
3193,86,-93,998,-8,-24,-12
3194,143,-47,1010,2,-8,-12
3195,69,16,1002,3,19,-4
3196,-34,65,1010,-6,28,0
3197,-139,57,990,-22,19,-1
3198,-141,2,984,-30,-2,-4
3199,-63,-64,994,-28,-22,-11
3200,73,-83,1005,-21,-26,-13
3201,138,-78,995,-8,-11,-12
3202,97,-28,1000,-1,12,-4
3203,-7,23,1006,-4,27,-2
3204,-128,43,987,-14,23,1
3205,-154,12,992,-22,2,-3
3206,-93,-25,984,-26,-19,-8
3207,60,-62,1009,-21,-30,-12
3208,134,-73,1007,-15,-15,-11
3209,125,-42,1009,-8,8,-6
3210,26,-1,992,-5,26,-2
3211,-121,28,992,-9,28,4
3212,-163,19,986,-20,8,-2
3213,-109,-3,993,-23,-15,-6
3214,33,-39,1002,-22,-29,-11
3215,119,-62,1012,-17,-20,-14
3216,141,-37,999,-10,2,-7
3217,41,-14,1001,-8,26,-3
3218,-98,9,1005,-11,30,2
3219,-158,16,968,-15,12,-1
3220,-127,4,987,-20,-12,-7
3221,2,-31,1010,-19,-29,-12
3222,106,-47,1004,-16,-21,-14
3223,154,-36,1004,-12,-2,-10
3224,53,-15,1008,-9,21,-2
3225,-64,3,1001,-11,28,0
3226,-164,13,974,-17,18,0
3227,-137,4,998,-17,-4,-6
3228,-32,-33,998,-19,-25,-11
3229,97,-34,996,-15,-25,-13
3230,153,-36,1011,-11,-6,-10
3231,78,-18,1005,-12,19,-3
3232,-41,-1,998,-11,29,0
3233,-152,10,978,-15,19,1
3234,-152,-3,994,-18,-3,-4
3235,-56,-33,992,-19,-22,-11
3236,81,-35,1008,-15,-25,-13
3237,146,-38,1004,-11,-11,-12
3238,102,-25,1008,-9,14,-5
3239,-9,0,991,-12,28,0
3240,-136,6,989,-18,25,3
3241,-157,-8,989,-19,2,-3
3242,-91,-29,986,-19,-20,-10
3243,126,56,568,-24,-39,-9
3244,658,139,842,50,-4,-13
3245,-15,129,1212,-112,61,9
3246,-239,-2,321,-123,90,47
3247,-409,-345,581,-52,57,-62
3248,-715,-98,1334,46,-41,-44
3249,392,-372,1033,-19,-106,-58
3250,-135,-161,802,69,-31,-28
3251,475,253,1081,62,-70,-1
3252,379,150,1354,17,21,-43
3253,-70,241,648,-29,75,33
3254,-259,103,1134,-61,44,31
3255,-247,-102,1101,-62,2,-38
3256,-219,-254,717,-51,-27,7
3257,112,-144,1089,2,-64,-22
3258,212,-149,1123,10,-31,-29
3259,232,45,860,27,15,-3
3260,-32,136,1088,7,40,11
3261,-128,125,1052,-17,35,-4
3262,-199,6,890,-41,14,2
3263,-154,-35,1010,-34,-28,-6
3264,45,-138,1048,-27,-42,-22
3265,161,-120,946,-7,-23,-16
3266,118,-34,1009,5,3,-1
3267,69,39,1056,3,27,-8
3268,-75,47,963,-11,32,1
3269,-167,82,960,-20,13,5
3270,-103,0,1052,-32,-14,-11
3271,-15,-69,957,-31,-23,-11
3272,54,-85,974,-21,-20,-7
3273,105,-88,1037,-7,-8,-12
3274,66,-43,987,0,14,-5
3275,-6,36,966,1,20,-2
3276,-87,68,1029,-8,14,-2
3277,-118,34,998,-23,1,-6
3278,-86,-12,964,-30,-13,-5
3279,35,-60,1027,-25,-22,-10
3280,99,-100,1000,-20,-10,-11
3281,103,-61,983,-6,7,-6
3282,22,-4,1015,0,19,-3
3283,-88,31,998,-7,22,-1
3284,-141,30,969,-15,9,-4
3285,-106,19,1005,-20,-11,-6
3286,21,-36,1007,-25,-24,-12
3287,98,-67,987,-18,-16,-12
3288,127,-47,1014,-11,-1,-8
3289,45,-29,1004,-9,20,-4
3290,-79,3,990,-9,27,1
3291,-149,19,984,-13,11,-1
3292,-118,9,998,-19,-9,-7
3293,-9,-28,993,-20,-24,-11
3294,96,-36,1004,-17,-22,-12
3295,140,-41,1009,-14,-5,-9
3296,65,-28,1001,-12,18,-2
3297,-58,-6,997,-13,27,1
3298,-146,10,982,-14,20,-2
3299,-131,1,993,-15,-4,-5
3300,-46,-28,988,-17,-25,-11
3301,88,-28,1009,-13,-26,-12
3302,144,-38,1006,-15,-9,-10
3303,81,-22,999,-11,17,-4
3304,-26,-6,1001,-13,26,-1
3305,-141,6,983,-16,20,2
3306,-149,-8,995,-16,0,-3
3307,-75,-26,991,-17,-20,-10
3308,73,-31,1007,-15,-28,-12
3309,137,-39,1014,-13,-14,-11
3310,108,-20,1004,-11,11,-5
3311,1,-2,988,-13,27,-1
3312,-130,6,987,-14,24,2
3313,-160,-12,991,-19,3,-3
3314,-96,-24,979,-19,-18,-8
3315,50,-35,1013,-14,-28,-13
3316,127,-43,1012,-14,-16,-13
3317,131,-17,1004,-9,5,-5
3318,30,2,1001,-12,25,-1
3319,-111,9,1001,-15,27,2
3320,-161,-2,973,-18,10,-2
3321,-117,-17,984,-19,-14,-7
3322,20,-45,1012,-15,-29,-12
3323,116,-45,1010,-11,-19,-13
3324,147,-23,1002,-10,0,-7
3325,45,0,1008,-10,25,-2
3326,-85,10,1000,-14,28,2
3327,-162,6,976,-18,14,-1
3328,-129,-15,988,-21,-9,-6
3329,-13,-48,1002,-18,-26,-11
3330,109,-46,1000,-13,-24,-13
3331,149,-33,1008,-9,-6,-9
3332,61,7,960,-22,20,-2
3333,400,288,327,22,37,8
3334,99,-9,1766,-47,99,-17
3335,-361,247,581,-114,44,56
3336,-174,-319,487,-113,70,-16
3337,-777,-283,737,19,5,-91
3338,34,-174,1534,33,-115,-53
3339,300,-452,777,24,-65,-56
3340,56,196,886,92,-22,3
3341,540,246,1306,37,-28,-15
3342,-64,243,1092,-4,72,-17
3343,-261,175,598,-76,47,55
3344,-208,-40,1390,-58,-4,-19
3345,-95,-235,816,-68,-25,-30
3346,61,-256,862,-18,-37,-2
3347,210,-86,1183,20,-34,-21
3348,86,-31,977,13,20,-5
3349,-62,135,908,12,36,12
3350,-223,122,1127,-15,17,3
3351,-67,51,944,-36,-9,-16
3352,-21,-94,964,-37,-30,-11
3353,102,-52,1041,-22,-37,-10
3354,158,-122,1013,-18,-5,-19
3355,-21,-34,943,-7,21,5
3356,-110,30,1038,-7,19,4
3357,-107,32,994,-15,7,-11
3358,-75,13,958,-19,-18,-3
3359,48,12,1029,-21,-31,-15
3360,138,-54,1032,-26,-18,-19
3361,78,-38,951,-22,8,-4
3362,-1,-40,1022,-17,21,-2
3363,-83,-29,1002,-14,22,-3
3364,-114,-18,952,-10,8,-1
3365,-56,-67,995,0,-12,-9
3366,31,-30,1015,3,-20,-11
3367,89,9,982,5,-11,-11
3368,69,54,1018,-5,7,-7
3369,8,43,1022,-18,21,-3
3370,-93,6,972,-27,21,-1
3371,-132,-36,990,-27,4,-3
3372,-84,-80,1001,-22,-17,-12
3373,36,-78,982,-13,-22,-13
3374,113,-38,1003,-6,-14,-11
3375,109,2,1015,-5,7,-7
3376,16,39,997,-8,22,-3
3377,-103,45,989,-20,22,1
3378,-150,-2,1008,-26,5,-3
3379,-106,-51,974,-25,-15,-8
3380,31,-70,996,-19,-27,-12
3381,122,-69,1018,-10,-17,-13
3382,130,-30,1003,-5,5,-7
3383,29,19,989,-5,22,-2
3384,-103,39,1001,-12,24,2
3385,-157,12,991,-22,8,-3
3386,-118,-20,977,-24,-11,-6
3387,20,-54,1012,-20,-26,-12
3388,115,-70,1009,-15,-20,-14
3389,141,-36,996,-8,1,-7
3390,47,-1,1005,-8,22,-1
3391,-88,20,1005,-13,29,2
3392,-158,10,974,-18,13,-2
3393,-130,1,985,-20,-10,-6
3394,-3,-41,1007,-18,-27,-12
3395,105,-55,1002,-16,-21,-14
3396,148,-40,1008,-11,-2,-8
3397,63,-14,1006,-8,20,-3
3398,-66,0,996,-11,28,1
3399,-155,16,984,-15,16,0
3400,-139,1,990,-18,-5,-5
3401,-31,-36,996,-18,-25,-12
3402,100,-39,1003,-15,-27,-12
3403,147,-41,1002,-14,-8,-10
3404,83,-20,1005,-11,17,-5
3405,-41,1,1006,-11,30,1
3406,-148,17,973,-15,21,1
3407,-147,-4,998,-17,-3,-5
3408,-66,-28,993,-20,-23,-11
3409,81,-37,1009,-16,-26,-13
3410,149,-44,1009,-11,-11,-12
3411,100,-25,995,-9,13,-2
3412,-12,1,1001,-9,28,-2
3413,-142,16,991,-15,24,2
3414,-157,0,987,-20,2,-3
3415,-91,-27,990,-18,-21,-9
3416,61,-35,1004,-16,-29,-13
3417,133,-50,1017,-12,-15,-12
3418,122,-26,1002,-11,9,-5
3419,15,-1,999,-10,27,-1
3420,-114,13,984,-14,26,3
3421,-169,-6,988,-20,8,-1
3422,-107,-13,984,-21,-15,-7
3423,33,-42,1014,-19,-28,-13
3424,121,-45,1000,-14,-21,-14
3425,140,-26,1011,-9,3,-7
3426,41,-4,1001,-12,25,-3
3427,-100,7,998,-15,29,3
3428,-161,3,973,-19,11,-1
3429,-125,-12,987,-19,-11,-6
3430,216,226,271,-31,-57,-10
3431,485,-78,1234,-30,20,-33
3432,-102,289,732,-89,47,36
3433,-130,-252,490,-142,101,15
3434,-561,-313,682,14,37,-84
3435,-377,-78,1564,29,-64,-29
3436,355,-439,703,-3,-71,-68
3437,-271,90,964,93,-23,2
3438,659,248,1168,28,-80,-15
3439,142,150,1221,9,57,-40
3440,-69,212,569,-56,54,60
3441,-224,23,1373,-59,33,-1
3442,-193,-178,863,-63,2,-32
3443,-209,-238,786,-35,-25,17
3444,122,-115,1195,13,-60,-32
3445,158,-117,1015,11,-17,-19
3446,180,109,870,24,12,3
3447,-38,127,1171,3,28,2
3448,-61,107,947,-28,26,-8
3449,-190,-30,919,-43,9,6
3450,-133,-59,1050,-32,-27,-7
3451,40,-166,999,-26,-32,-21
3452,98,-92,937,1,-19,-8
3453,84,-13,1070,5,-1,-3
3454,84,47,1024,2,19,-12
3455,-71,59,944,-10,23,3
3456,-133,81,1013,-22,5,1
3457,-77,-51,1026,-36,-11,-13
3458,-34,-74,936,-28,-18,-4
3459,62,-86,1027,-16,-19,-10
3460,98,-74,1024,-5,-4,-15
3461,64,-15,965,0,14,-2
3462,-12,50,1008,-4,19,-3
3463,-80,36,1031,-14,15,-4
3464,-91,16,955,-22,2,-2
3465,-58,-27,1005,-26,-9,-4
3466,34,-70,1014,-21,-13,-12
3467,85,-76,971,-13,-3,-9
3468,123,-60,992,0,10,-8
3469,21,-16,1020,5,26,-3
3470,-85,32,989,0,26,0
3471,-170,63,979,-10,13,-3
3472,-128,38,1006,-21,-8,-6
3473,-19,-29,998,-28,-25,-11
3474,101,-59,994,-24,-23,-11
3475,142,-77,1011,-16,-5,-9
3476,73,-53,997,-8,17,-4
3477,-49,-8,990,-4,27,0
3478,-142,34,991,-9,18,-1
3479,-138,16,1004,-15,-1,-6
3480,-64,-5,979,-20,-20,-9
3481,70,-25,1016,-20,-26,-11
3482,135,-55,1014,-16,-14,-12
3483,95,-47,993,-14,11,-4
3484,-1,-19,989,-11,26,-2
3485,-125,6,995,-11,25,2
3486,-149,3,984,-14,3,-4
3487,-93,-4,989,-18,-16,-8
3488,50,-21,1015,-17,-25,-13
3489,116,-45,1011,-16,-14,-12
3490,118,-28,1000,-11,4,-5
3491,27,-18,1004,-13,22,-3
3492,-103,-6,993,-13,28,2
3493,-156,-6,979,-14,10,-2
3494,-108,-7,984,-15,-14,-8
3495,17,-32,1010,-14,-28,-13
3496,110,-32,1006,-12,-21,-12
3497,142,-25,1011,-14,1,-9
3498,42,-7,997,-11,23,-2
3499,-80,-1,1001,-14,27,1
3500,-153,-1,977,-17,14,-1
3501,-131,-14,990,-18,-7,-7
3502,-18,-41,997,-16,-25,-10
3503,100,-35,1006,-13,-23,-11
3504,148,-27,1000,-10,-6,-10
3505,71,-11,1009,-11,19,-3
3506,-48,4,1005,-13,29,0
3507,-153,8,976,-18,19,1
3508,-143,-14,989,-20,-5,-4
3509,-52,-44,1000,-18,-24,-10
3510,88,-36,1009,-13,-25,-13
3511,144,-37,1001,-11,-8,-10
3512,94,-14,1002,-9,14,-3
3513,-18,7,1000,-11,27,-1
3514,-139,17,987,-17,23,1
3515,-154,-10,991,-20,1,-4
3516,-86,-32,987,-21,-20,-9
3517,66,-42,1004,-15,-29,-13
3518,136,-48,1014,-11,-13,-12
3519,121,-19,1007,-9,11,-5
3520,8,6,991,-10,27,-1
3521,-122,18,989,-15,25,3
3522,-165,-4,985,-20,6,-2
3523,-100,-17,989,-21,-16,-9
3524,40,-45,1008,-19,-28,-12
3525,121,-51,1006,-13,-18,-13
3526,140,-24,1004,-8,3,-7
3527,33,0,1004,-11,25,-2
3528,-98,12,1000,-12,29,1
3529,-160,2,976,-18,13,-1
3530,-125,-9,984,-19,-12,-7
3531,124,148,476,-31,-45,-7
3532,720,83,641,15,-23,-29
3533,-48,244,836,-125,74,21
3534,-245,-58,237,-166,113,66
3535,-358,-486,397,-43,43,-62
3536,-757,-150,1500,64,-47,-7
3537,447,-488,991,8,-96,-76
3538,-398,-199,702,105,-15,-34
3539,616,434,1130,97,-107,4
3540,351,256,1468,33,23,-61
3541,10,323,473,-51,68,38
3542,-215,119,1286,-76,48,33
3543,-275,-167,1049,-86,13,-42
3544,-255,-382,660,-62,-20,12
3545,55,-199,1136,22,-67,-23
3546,172,-166,1109,25,-36,-28
3547,282,99,846,49,6,-9
3548,-47,214,1138,19,35,16
3549,-62,190,1021,-25,29,-10
3550,-201,-24,904,-50,19,4
3551,-186,-80,1009,-40,-28,1
3552,38,-205,1033,-28,-41,-24
3553,145,-158,939,9,-26,-16
3554,79,-10,1023,20,-2,3
3555,101,85,1074,13,20,-17
3556,-72,79,944,-7,29,4
3557,-159,113,968,-22,9,7
3558,-95,-41,1064,-39,-15,-16
3559,-21,-92,939,-31,-24,-7
3560,69,-104,998,-18,-21,-6
3561,114,-84,1046,-2,-4,-15
3562,80,-23,972,3,14,-4
3563,11,79,981,1,23,-3
3564,-49,90,1049,-16,21,-10
3565,-18,135,981,-40,13,-7
3566,-86,29,981,-57,10,-1
3567,-66,-88,1008,-59,-3,-4
3568,-34,-206,969,-39,-4,-9
3569,40,-168,951,-7,-8,-9
3570,62,-76,1029,16,-1,-9
3571,38,51,1013,20,9,-8
3572,-63,123,983,2,16,-1
3573,-95,124,1032,-21,7,-3
3574,-83,1,995,-42,-6,-7
3575,13,-78,967,-38,-17,-9
3576,89,-135,1009,-25,-14,-11
3577,90,-108,993,-6,1,-8
3578,19,-42,989,5,16,-5
3579,-91,51,1003,4,21,1
3580,-124,66,1013,-8,9,-3
3581,-92,39,977,-21,-9,-7
3582,24,-6,1012,-29,-23,-9
3583,110,-63,1014,-25,-19,-13
3584,105,-84,988,-17,2,-6
3585,27,-54,985,-9,21,-3
3586,-92,-9,1002,-6,25,1
3587,-142,7,993,-8,10,-3
3588,-107,23,981,-12,-11,-7
3589,22,8,1015,-16,-24,-11
3590,108,-29,1015,-20,-17,-13
3591,125,-37,1001,-18,3,-6
3592,42,-37,998,-17,21,-2
3593,-85,-28,993,-14,26,0
3594,-152,-16,977,-12,13,-2
3595,-124,-3,984,-14,-9,-6
3596,7,-13,1011,-13,-28,-13
3597,101,-17,1007,-12,-22,-13
3598,148,-14,1009,-15,-2,-9
3599,57,-14,1001,-16,21,-2
3600,-75,-15,999,-17,29,3
3601,-157,-17,979,-18,15,-2
3602,-136,-16,985,-15,-7,-7
3603,-24,-36,997,-14,-24,-12
3604,101,-25,1011,-11,-24,-13
3605,154,-12,1005,-11,-8,-9
3606,74,0,1005,-14,17,-4
3607,-50,0,1009,-17,29,2
3608,-153,-3,974,-18,20,0
3609,-147,-22,987,-18,-4,-5
3610,-55,-46,999,-16,-25,-11
3611,88,-35,1007,-10,-27,-12
3612,154,-27,1005,-10,-10,-11
3613,96,-2,1002,-10,16,-4
3614,-20,9,1004,-12,28,0
3615,-144,10,981,-20,23,1
3616,-161,-17,989,-21,1,-3
3617,-11,78,653,-18,-21,-9
3618,588,150,963,9,-17,-25
3619,40,77,1461,-80,54,1
3620,-202,18,409,-119,74,43
3621,-240,-336,709,-49,54,-57
3622,-606,-112,1249,26,-10,-44
3623,351,-356,982,-9,-69,-53
3624,-251,-186,835,64,-14,-10
3625,353,247,1092,59,-72,2
3626,266,105,1263,26,17,-45
3627,-32,250,748,-22,51,31
3628,-144,118,1084,-55,33,22
3629,-125,-105,1137,-54,8,-37
3630,-191,-239,713,-54,-9,18
3631,20,-137,1095,5,-41,-20
3632,102,-151,1097,10,-29,-22
3633,121,31,874,27,7,-3
3634,14,126,1087,13,19,2
3635,-30,120,1057,-12,21,-8
3636,-108,15,906,-33,13,2
3637,-141,-34,1008,-30,-16,-3
3638,-12,-111,1037,-28,-27,-15
3639,51,-134,938,-9,-16,-13
3640,54,-36,1010,3,-9,-2
3641,101,20,1053,6,5,-14
3642,-12,41,963,-6,19,-2
3643,-86,72,992,-14,9,3
3644,-82,10,1028,-27,-4,-11
3645,-50,-56,968,-29,-13,-7
3646,0,-73,988,-19,-16,-5
3647,86,-67,1029,-9,-8,-13
3648,93,-32,973,-4,6,-9
3649,46,34,982,-3,15,-4
3650,-68,73,1020,-15,17,-6
3651,-113,43,987,-29,9,-3
3652,-120,-21,983,-35,-5,-4
3653,-31,-89,999,-30,-20,-11
3654,80,-100,1004,-16,-20,-12
3655,105,-77,988,-1,-6,-10
3656,74,-7,1017,2,13,-6
3657,-9,46,996,-3,23,-4
3658,-115,64,980,-14,20,0
3659,-128,21,1009,-25,1,-4
3660,-77,-31,989,-30,-15,-9
3661,46,-75,997,-24,-23,-11
3662,100,-89,1006,-13,-13,-11
3663,111,-43,1004,-3,5,-7
3664,26,2,995,-2,20,-2
3665,-102,40,1002,-9,24,2
3666,-136,32,987,-18,8,-3
3667,-106,1,981,-23,-10,-6
3668,11,-46,1004,-23,-25,-10
3669,105,-74,1014,-18,-18,-13
3670,128,-51,994,-12,1,-7
3671,47,-20,999,-6,22,-4
3672,-73,11,1010,-6,26,0
3673,-146,21,971,-15,11,0
3674,-127,11,993,-18,-8,-6
3675,-18,-33,1003,-22,-26,-11
3676,95,-47,995,-17,-22,-13
3677,142,-49,1005,-13,-6,-9
3678,66,-27,1008,-10,17,-3
3679,-45,-2,998,-11,28,1
3680,-149,16,980,-13,20,0
3681,-142,7,997,-17,-4,-5
3682,-50,-26,996,-20,-23,-11
3683,84,-33,1006,-17,-24,-12
3684,144,-42,1006,-15,-9,-11
3685,93,-28,999,-8,14,-5
3686,-23,-7,999,-10,26,-1
3687,-141,13,987,-14,22,1
3688,-150,-4,993,-16,1,-5
3689,-82,-25,984,-17,-22,-9
3690,64,-26,1012,-15,-28,-11
3691,140,-41,1012,-13,-15,-13
3692,112,-25,1001,-11,10,-5
3693,7,-1,993,-13,27,-2
3694,-125,3,989,-14,25,0
3695,-164,-6,984,-18,4,-2
3696,-100,-19,988,-19,-16,-8
3697,42,-35,1012,-15,-27,-12
3698,122,-45,1005,-13,-18,-13
3699,135,-21,1004,-7,5,-7
3700,31,-3,1005,-11,26,-2
3701,-104,5,1000,-16,28,3
3702,-164,-8,970,-18,10,-1
3703,-121,-11,983,-19,-12,-7
3704,13,-44,1013,-16,-28,-12
3705,111,-41,1004,-13,-20,-13
3706,150,-24,1010,-11,1,-8
3707,51,-4,1004,-9,21,-2
3708,-82,4,1000,-13,28,1
3709,-156,4,973,-17,14,-2
3710,-139,-13,998,-19,-8,-7
3711,-19,-40,992,-18,-27,-11
3712,106,-44,1001,-10,-24,-13
3713,245,183,511,-42,-39,-3
3714,758,205,787,-39,-23,-16
3715,-235,327,936,-145,120,30
3716,-447,14,115,-212,108,70
3717,-378,-579,258,-70,-3,-44
3718,-808,-384,1428,57,-88,34
3719,563,-524,1025,32,-120,-81
3720,-359,-346,550,119,-1,-66
3721,701,619,1206,137,-98,-4
3722,310,446,1535,29,35,-42
3723,-43,465,414,-82,78,29
3724,-364,51,1311,-119,42,55
3725,-293,-281,1061,-111,-15,-54
3726,-166,-584,593,-72,-39,2
3727,202,-225,1170,52,-71,-20
3728,250,-120,1124,38,-19,-31
3729,246,219,837,59,29,-9
3730,-220,345,1132,7,47,34
3731,-188,216,1042,-53,20,-15
3732,-196,-124,885,-78,-8,-3
3733,-50,-166,1007,-44,-55,-4
3734,190,-277,1053,-23,-48,-33
3735,205,-156,924,21,-4,-18
3736,18,54,1012,25,24,14
3737,-44,150,1093,10,35,-10
3738,-201,94,930,-18,23,6
3739,-155,97,969,-31,-17,3
3740,18,-92,1091,-41,-41,-23
3741,103,-130,958,-29,-30,-13
3742,103,-93,952,-13,-4,-10
3743,93,-100,1040,1,18,-21
3744,14,-24,993,10,29,5
3745,-91,76,965,10,26,4
3746,-131,69,1042,-6,8,-7
3747,-67,39,994,-20,-13,-7
3748,42,-15,978,-26,-17,-10
3749,146,-62,1009,-24,-5,-12
3750,230,-102,995,-13,26,-6
3751,63,-86,990,0,54,1
3752,-161,1,1006,10,51,10
3753,-277,33,974,3,27,1
3754,-248,50,944,-7,-8,-6
3755,-13,55,1044,-17,-40,-13
3756,190,-10,1021,-26,-36,-21
3757,220,-52,977,-23,-6,-10
3758,108,-57,1015,-20,24,0
3759,-105,-54,1003,-14,42,4
3760,-217,-40,961,-10,27,2
3761,-204,-6,976,-6,-8,-6
3762,-11,13,1017,-6,-33,-16
3763,141,5,1010,-12,-32,-16
3764,187,10,1009,-16,-8,-9
3765,101,-6,1014,-21,22,-2
3766,-84,-27,989,-25,37,5
3767,-198,-52,966,-21,24,2
3768,-175,-44,985,-15,-4,-7
3769,-21,-36,1005,-9,-31,-15
3770,112,-14,1000,-3,-31,-15
3771,183,14,1017,-8,-9,-10
3772,103,22,1014,-15,23,-2
3773,-66,6,1005,-22,35,3
3774,-174,-24,972,-25,23,-1
3775,-172,-46,973,-21,-5,-5
3776,-47,-64,999,-14,-28,-12
3777,97,-42,1003,-8,-30,-15
3778,179,-9,1013,-3,-8,-12
3779,103,19,1010,-9,18,-2
3780,-30,22,1014,-16,33,2
3781,-162,5,973,-24,26,2
3782,-172,-26,990,-24,0,-3
3783,-73,-62,989,-21,-27,-12
3784,79,-54,1000,-11,-30,-13
3785,169,-30,1002,-6,-13,-12
3786,114,-4,1016,-6,17,-5
3787,-6,25,999,-12,31,1
3788,-146,19,986,-21,26,3
3789,-174,-7,990,-21,4,-2
3790,-98,-46,985,-20,-19,-9
3791,62,-50,1001,-14,-31,-13
3792,152,-46,1014,-9,-18,-12
3793,130,-18,1006,-8,9,-4
3794,17,10,995,-9,28,-1
3795,-130,23,989,-15,29,3
3796,-173,0,988,-19,6,-3
3797,-115,-23,982,-21,-16,-8
3798,39,-44,1009,-18,-30,-13
3799,130,-51,1012,-13,-18,-13
3800,147,-31,1004,-9,3,-6
3801,38,-1,1000,-9,24,0
3802,-103,12,998,-14,29,1
3803,-173,1,978,-18,13,-2
3804,-128,-7,980,-19,-11,-7
3805,8,-39,1011,-17,-29,-13
3806,114,-49,1004,-16,-23,-13
3807,159,-30,1010,-11,-3,-9
3808,57,-14,1002,-12,24,-1
3809,-71,8,1004,-12,28,1
3810,-147,-4,969,-17,15,-1
3811,394,-107,659,-4,26,-15
3812,86,493,1376,-19,139,51
3813,-292,80,1330,-111,-41,94
3814,6,-211,572,-96,33,-70
3815,-535,-663,534,21,93,-219
3816,-541,169,1041,134,-64,-145
3817,589,-72,1404,5,-145,-56
3818,17,122,876,8,-5,32
3819,385,144,922,-39,-19,36
3820,199,-27,1377,-16,41,-32
3821,-132,-37,662,-57,78,27
3822,-179,-164,1022,-24,31,4
3823,-225,-44,1094,6,-8,-18
3824,-119,-68,818,-11,-20,-3
3825,55,57,1091,15,-42,-18
3826,74,31,1074,-14,-21,-5
3827,161,19,938,-18,6,-14
3828,-6,-54,1040,-21,13,2
3829,-42,-31,999,-16,14,-4
3830,-68,-81,950,-13,7,-13
3831,-121,-4,976,1,-11,-1
3832,-24,0,1036,-7,-20,-13
3833,25,3,984,-9,-15,-13
3834,41,10,1005,-15,-10,-3
3835,63,-20,1032,-16,-4,-15
3836,24,-39,982,-14,3,-7
3837,-29,-7,969,-12,4,-3
3838,-65,-18,1038,-13,3,-6
3839,-70,-14,966,-15,-3,-5
3840,-46,0,979,-15,-12,-5
3841,25,-19,1027,-17,-19,-10
3842,55,-30,1001,-16,-10,-9
3843,68,-4,984,-16,-2,-6
3844,6,-2,1018,-16,9,-5
3845,-49,6,993,-19,10,-1
3846,-137,35,976,-27,2,3
3847,-81,2,1012,-32,-15,-4
3848,13,-86,989,-33,-23,-13
3849,110,-98,991,-18,-18,-11
3850,116,-61,1010,-6,-1,-8
3851,38,-23,996,-2,19,-5
3852,-59,35,1002,-4,26,0
3853,-134,53,988,-14,16,-1
3854,-117,25,998,-23,-5,-6
3855,-42,-32,995,-27,-22,-11
3856,76,-59,1009,-23,-22,-12
3857,128,-75,1001,-15,-8,-11
3858,74,-46,994,-6,13,-4
3859,-12,0,996,-6,25,-2
3860,-124,32,995,-10,22,1
3861,-138,19,989,-18,1,-3
3862,-84,-6,991,-22,-17,-8
3863,55,-33,1006,-21,-26,-11
3864,122,-63,1010,-19,-14,-12
3865,114,-46,998,-11,8,-6
3866,15,-18,998,-8,25,-2
3867,-102,12,992,-10,23,1
3868,-153,3,981,-15,7,-2
3869,-101,2,990,-18,-13,-8
3870,24,-29,1014,-20,-26,-11
3871,109,-46,1004,-17,-18,-13
3872,135,-37,1002,-13,0,-7
3873,39,-18,1000,-11,23,-2
3874,-89,-2,1003,-13,29,2
3875,-157,3,973,-17,12,-2
3876,-126,-3,984,-18,-10,-5
3877,-2,-32,1010,-17,-27,-13
3878,104,-39,1006,-15,-22,-13
3879,148,-30,1000,-13,-3,-8
3880,59,-13,1008,-11,19,-1
3881,-63,-3,1005,-13,28,2
3882,-150,2,968,-19,18,0
3883,-143,-7,997,-20,-4,-5
3884,-34,-33,998,-18,-26,-11
3885,93,-38,1000,-13,-26,-14
3886,151,-28,1006,-10,-8,-9
3887,84,-14,1006,-13,18,-4
3888,-32,3,1000,-13,28,-1
3889,-145,10,980,-19,19,1
3890,-151,-10,992,-19,0,-4
3891,-73,-38,995,-18,-21,-10
3892,81,-36,1004,-15,-27,-13
3893,141,-42,1010,-9,-12,-11
3894,112,-14,1001,-8,12,-5
3895,-5,1,996,-12,29,-1
3896,-133,16,986,-18,26,2
3897,-161,-7,991,-19,3,-4
3898,-95,-26,981,-19,-20,-10
3899,56,-42,1010,-17,-29,-13
3900,131,-49,1013,-11,-16,-13
3901,129,-19,1002,-9,7,-5
3902,23,0,1000,-10,25,-1
3903,-130,11,984,-14,27,4
3904,-203,-7,978,-11,9,-3
3905,-39,-79,892,-22,-24,-9
3906,903,357,819,-7,63,3
3907,-347,228,1733,-108,80,100
3908,-10,32,685,-126,-28,28
3909,-277,-640,502,-78,112,-131
3910,-924,-256,751,89,34,-144
3911,145,-46,1355,57,-153,-66
3912,208,-121,1102,38,-73,-7
3913,185,294,769,11,-21,36
3914,576,15,1312,-6,-15,-26
3915,32,166,1013,-13,76,5
3916,-141,-90,710,-71,68,30
3917,-307,-62,1264,-4,25,-15
3918,-261,-140,820,-32,-12,-4
3919,-63,-95,917,9,-41,-17
3920,122,-21,1173,19,-53,-20
3921,229,16,967,2,-8,-15
3922,145,35,969,2,22,-6
3923,-59,44,1078,-7,30,3
3924,-105,-9,954,-20,26,-12
3925,-189,-55,938,-11,1,-6
3926,-112,-33,1024,-7,-27,-9
3927,56,-66,1012,-4,-30,-24
3928,104,-21,975,2,-17,-8
3929,118,15,1044,0,0,-10
3930,53,1,1024,-5,19,-14
3931,-69,13,937,-10,22,0
3932,-124,19,997,-13,7,-8
3933,-97,-27,1017,-15,-14,-17
3934,-35,-25,963,-16,-21,-13
3935,54,-28,1018,-15,-20,-11
3936,66,10,1032,-13,-10,-9
3937,35,94,974,-25,1,6
3938,-9,97,1016,-39,7,2
3939,-74,-24,1011,-57,5,1
3940,-79,-101,962,-51,-8,2
3941,-67,-137,977,-33,-18,-3
3942,17,-141,993,-11,-22,-9
3943,90,-75,1006,10,-11,-12
3944,99,27,1000,10,3,-7
3945,37,94,1021,1,17,-4
3946,-61,83,1006,-17,20,-1
3947,-136,36,974,-34,10,1
3948,-107,-45,1003,-38,-8,-6
3949,-22,-119,987,-30,-21,-12
3950,84,-113,980,-12,-20,-11
3951,127,-55,1013,4,-5,-12
3952,65,14,1010,3,16,-5
3953,-37,62,1000,-5,26,0
3954,-135,69,991,-19,17,0
3955,-132,14,994,-30,-3,-3
3956,-56,-60,987,-30,-22,-10
3957,72,-87,1006,-22,-25,-11
3958,137,-87,1003,-9,-10,-11
3959,95,-39,989,-1,12,-5
3960,-9,16,1003,0,25,-1
3961,-128,55,997,-11,24,2
3962,-144,28,995,-20,3,-3
3963,-89,-17,981,-27,-18,-7
3964,57,-49,1006,-22,-28,-13
3965,127,-74,1015,-17,-16,-12
3966,115,-55,1000,-10,8,-6
3967,20,-11,991,-5,25,-2
3968,-109,18,993,-8,26,2
3969,-159,20,985,-14,9,-2
3970,-104,9,991,-20,-13,-9
3971,27,-28,1008,-22,-27,-12
3972,114,-53,1006,-16,-20,-12
3973,136,-45,1002,-11,1,-6
3974,38,-21,1000,-11,23,-1
3975,-88,2,1002,-11,27,2
3976,-159,8,973,-14,11,-1
3977,-123,9,982,-18,-12,-8
3978,-2,-28,1013,-18,-28,-13
3979,100,-32,1004,-17,-21,-12
3980,154,-32,1005,-14,-3,-9
3981,59,-19,1003,-12,20,-2
3982,-63,-6,1004,-11,27,1
3983,-153,3,974,-16,18,-1
3984,-141,-2,995,-15,-6,-5
3985,-38,-30,998,-18,-25,-11
3986,93,-30,1002,-13,-26,-13
3987,149,-34,1001,-14,-8,-10
3988,84,-20,1007,-12,17,-3
3989,-29,-5,1000,-13,28,0
3990,-147,9,978,-16,21,1
3991,-149,-12,995,-17,-2,-6
3992,-73,-35,992,-18,-21,-10
3993,77,-32,1007,-16,-27,-13
3994,143,-38,1013,-11,-13,-12
3995,108,-18,1004,-9,10,-3
3996,0,0,991,-14,27,-2
3997,-132,7,987,-16,25,3
3998,-159,-7,988,-17,3,-3
3999,-92,-25,986,-20,-20,-9
4000,46,-39,1007,-16,-28,-12
4001,133,-42,1016,-13,-15,-13
4002,128,-22,1001,-9,7,-5
4003,26,2,998,-11,25,-1
4004,-109,3,998,-16,27,2
4005,-164,-2,972,-17,11,-2
4006,-111,-10,986,-18,-13,-7
4007,303,-218,820,-13,-18,-19
4008,554,421,850,28,124,4
4009,-413,253,1717,-103,39,135
4010,15,-23,545,-106,-18,-18
4011,-385,-738,422,-36,114,-218
4012,-952,-33,935,148,-24,-178
4013,465,119,1454,18,-180,-52
4014,166,-125,926,5,-38,-17
4015,348,296,835,-11,-18,58
4016,441,-57,1405,-28,15,-24
4017,-87,8,782,-35,92,2
4018,-259,-179,858,-40,55,28
4019,-342,-24,1212,15,-2,-26
4020,-219,-130,775,-13,-34,-3
4021,111,74,1060,22,-62,-22
4022,215,14,1133,-5,-37,-18
4023,278,39,931,-11,12,-16
4024,0,-33,1016,-19,37,6
4025,-148,-8,1017,-14,31,-4
4026,-182,-80,938,-18,13,-10
4027,-173,-35,981,-1,-22,-6
4028,12,-7,1035,-4,-42,-17
4029,177,-12,1007,0,-29,-24
4030,112,8,998,-7,-2,0
4031,78,25,1048,-13,18,-10
4032,-63,-25,974,-19,26,-7
4033,-146,3,941,-17,11,2
4034,-122,-27,1029,-20,-12,-10
4035,-35,-29,987,-18,-26,-10
4036,67,-21,992,-16,-24,-7
4037,114,-18,1030,-14,-11,-11
4038,91,-3,1001,-19,8,-5
4039,18,36,980,-20,21,-4
4040,-82,135,1023,-37,17,15
4041,-124,69,988,-56,4,11
4042,-112,-101,973,-64,-7,-6
4043,-15,-214,987,-41,-21,-7
4044,72,-186,988,-9,-18,-11
4045,117,-97,980,16,-2,-11
4046,60,55,1031,25,14,-3
4047,-33,130,1019,7,22,0
4048,-135,137,975,-20,19,0
4049,-129,50,1018,-38,-4,-4
4050,-58,-79,988,-47,-22,-9
4051,73,-144,975,-30,-25,-12
4052,131,-135,1002,-9,-10,-11
4053,89,-62,998,7,15,-5
4054,-5,27,998,3,29,0
4055,-132,95,1000,-5,23,2
4056,-141,74,996,-21,2,-2
4057,-84,5,992,-32,-16,-10
4058,49,-54,1000,-33,-28,-10
4059,129,-108,1008,-23,-16,-12
4060,111,-93,995,-12,8,-5
4061,14,-35,985,-3,26,-1
4062,-110,26,999,-1,25,1
4063,-154,40,995,-11,6,-2
4064,-101,34,984,-18,-15,-7
4065,36,-13,1012,-24,-28,-13
4066,116,-56,1012,-26,-17,-12
4067,133,-64,997,-17,2,-7
4068,33,-44,1000,-11,22,-2
4069,-90,-15,993,-9,26,2
4070,-162,3,979,-10,13,-2
4071,-117,20,983,-14,-10,-6
4072,5,-11,1018,-16,-27,-12
4073,107,-25,1003,-18,-22,-12
4074,144,-32,1011,-17,-2,-8
4075,53,-27,999,-15,21,-2
4076,-74,-21,1000,-14,28,3
4077,-157,-6,972,-15,14,0
4078,-135,-4,995,-14,-8,-6
4079,-23,-18,995,-16,-25,-11
4080,98,-20,1006,-14,-24,-11
4081,153,-18,1007,-14,-7,-10
4082,71,-13,1007,-15,18,-2
4083,-46,-7,1002,-17,30,1
4084,-152,-6,975,-19,20,1
4085,-144,-12,990,-16,-3,-6
4086,-58,-35,996,-17,-24,-11
4087,83,-22,1011,-13,-26,-13
4088,146,-29,1005,-12,-9,-11
4089,98,-12,999,-11,14,-4
4090,-17,-1,998,-14,26,-1
4091,-136,5,987,-18,24,1
4092,-155,-17,989,-21,3,-4
4093,-84,-33,985,-17,-21,-11
4094,62,-40,1009,-12,-29,-12
4095,134,-38,1011,-12,-14,-11
4096,123,-17,1008,-10,10,-6
4097,11,4,994,-11,26,0
4098,-122,9,987,-17,25,2
4099,-158,-9,984,-19,6,-5
4100,-109,-24,990,-18,-15,-9
4101,36,-42,1004,-16,-27,-13
4102,122,-53,1014,-11,-17,-12
4103,135,-21,1001,-8,3,-6
4104,40,1,1005,-12,24,-2
4105,-97,9,1005,-14,28,2
4106,-132,-24,945,-19,11,0
4107,808,48,407,5,56,-11
4108,-662,536,1725,-64,146,124
4109,50,6,759,-144,-134,70
4110,-28,-517,337,-91,83,-92
4111,-890,-437,679,91,56,-209
4112,112,182,1620,78,-138,-74
4113,393,-314,885,-5,-62,-23
4114,16,405,822,34,10,50
4115,413,6,1280,-42,-21,18
4116,58,123,1161,-9,67,-37
4117,-201,-165,467,-82,61,45
4118,-219,-72,1401,5,2,-9
4119,-127,-144,873,-21,-20,-24
4120,-58,-54,803,13,-25,-2
4121,121,95,1249,19,-44,-16
4122,118,10,999,-12,3,-20
4123,59,28,867,-15,19,3
4124,-73,-16,1151,-14,8,-3
4125,-27,-67,943,-21,7,-16
4126,-68,-95,910,-4,-2,-7
4127,-72,20,1054,5,-18,-7
4128,50,-26,1024,-3,-14,-22
4129,-19,14,931,-4,-4,-2
4130,15,38,1062,-9,-7,-6
4131,45,-29,1024,-19,-1,-20
4132,-5,-30,929,-13,-1,-4
4133,-4,6,1021,-13,-5,-8
4134,-19,-38,1038,-17,1,-12
4135,-61,-8,930,-15,2,0
4136,-50,4,1011,-17,-6,-4
4137,4,-18,1035,-18,-12,-9
4138,31,-11,955,-19,-10,-4
4139,50,69,1012,-24,-6,3
4140,36,23,1035,-37,5,-2
4141,-22,-67,961,-42,14,-2
4142,-79,-112,982,-29,7,0
4143,-84,-96,1004,-13,-2,-6
4144,-41,-82,969,-2,-10,-9
4145,31,15,1001,8,-15,-8
4146,94,54,1028,1,-8,-11
4147,65,67,998,-15,9,-6
4148,-15,35,1009,-27,18,1
4149,-102,-17,994,-34,15,-2
4150,-117,-82,978,-31,0,-4
4151,-72,-103,979,-17,-14,-7
4152,47,-66,1014,-3,-18,-13
4153,116,-17,1000,3,-10,-11
4154,89,39,999,0,8,-5
4155,6,65,1013,-12,20,-2
4156,-105,42,992,-26,22,1
4157,-138,-25,984,-33,5,-2
4158,-95,-75,988,-28,-14,-8
4159,40,-90,1000,-15,-26,-11
4160,116,-70,1000,-4,-14,-12
4161,112,-7,1012,1,6,-5
4162,31,41,1003,-6,22,-2
4163,-95,50,993,-15,24,2
4164,-149,16,982,-26,9,-1
4165,-107,-30,991,-28,-10,-6
4166,15,-80,1007,-23,-26,-12
4167,100,-81,998,-12,-20,-13
4168,137,-40,1007,-4,0,-9
4169,50,7,1006,-4,22,-3
4170,-78,36,1004,-10,28,3
4171,-152,28,979,-20,12,-1
4172,-126,0,982,-24,-9,-5
4173,-14,-54,1008,-22,-26,-11
4174,96,-66,996,-17,-21,-12
4175,142,-53,1004,-9,-3,-10
4176,63,-14,1010,-5,19,-3
4177,-53,14,1006,-10,27,2
4178,-142,29,973,-15,18,0
4179,-143,11,1001,-20,-4,-4
4180,-43,-31,996,-22,-26,-10
4181,85,-52,1001,-17,-26,-11
4182,142,-49,1001,-14,-8,-11
4183,85,-28,1006,-10,18,-4
4184,-27,0,998,-9,27,-1
4185,-143,23,980,-15,21,2
4186,-150,6,999,-18,-1,-3
4187,-76,-21,993,-21,-20,-10
4188,70,-29,1001,-17,-27,-12
4189,141,-52,1014,-13,-14,-11
4190,108,-35,1010,-10,9,-5
4191,0,-9,985,-12,27,0
4192,-125,8,993,-13,26,2
4193,-160,0,990,-16,5,-2
4194,-96,-12,983,-19,-18,-9
4195,46,-29,1013,-17,-29,-12
4196,123,-46,1012,-15,-16,-12
4197,128,-30,999,-9,4,-7
4198,28,-8,1000,-12,23,-1
4199,-104,0,997,-14,27,2
4200,-158,-6,975,-15,10,-2
4201,-115,-9,982,-17,-14,-8
4202,437,-174,637,-8,-10,-19
4203,226,696,1210,-7,162,62
4204,-245,37,1329,-147,-61,112
4205,109,-201,390,-120,39,-17
4206,-581,-653,441,4,109,-172
4207,-708,49,1328,111,-63,-105
4208,508,-230,1203,-5,-142,-38
4209,-49,90,852,50,-8,10
4210,416,293,923,-13,-37,59
4211,412,103,1538,-14,22,-37
4212,-45,14,501,-80,91,29
4213,-282,-199,1120,-47,50,28
4214,-284,-89,1120,-12,-4,-22
4215,-269,-246,697,-16,-17,-7
4216,78,47,1104,41,-67,-20
4217,226,20,1183,12,-36,-21
4218,268,100,836,1,13,-17
4219,21,50,1101,-13,29,10
4220,-123,30,1022,-27,31,-7
4221,-190,-130,888,-33,17,-6
4222,-200,-81,990,-3,-22,-5
4223,10,-86,1049,1,-40,-21
4224,165,-22,960,14,-28,-21
4225,119,48,1036,8,-7,-2
4226,100,81,1060,-6,17,-13
4227,-61,10,956,-20,28,-5
4228,-167,19,949,-23,10,4
4229,-123,-67,1044,-27,-13,-14
4230,-39,-68,958,-17,-26,-10
4231,67,-43,992,-10,-26,-6
4232,127,-15,1048,-6,-14,-14
4233,94,9,988,-10,8,-4
4234,-7,44,971,-15,22,1
4235,-144,52,1031,-27,16,3
4236,-135,-4,963,-38,-3,0
4237,-74,-73,976,-34,-20,-8
4238,52,-116,1014,-21,-27,-12
4239,118,-94,1001,-7,-12,-12
4240,112,-30,986,3,8,-6
4241,8,44,1026,5,22,-1
4242,-79,64,1001,-10,22,-3
4243,-148,49,970,-25,11,-1
4244,-105,-4,1010,-31,-10,-5
4245,-9,-78,998,-30,-24,-12
4246,94,-91,980,-18,-20,-10
4247,130,-64,1014,-6,-4,-9
4248,63,-22,1005,-2,18,-4
4249,-41,30,994,-3,27,0
4250,-141,54,989,-13,16,1
4251,-132,22,1001,-23,-3,-6
4252,-53,-29,986,-26,-20,-11
4253,73,-58,1010,-22,-22,-11
4254,133,-74,1008,-14,-11,-12
4255,96,-47,994,-7,11,-5
4256,-12,0,992,-6,25,0
4257,-126,29,998,-10,23,2
4258,-141,19,996,-17,2,-5
4259,-87,-2,982,-22,-18,-8
4260,53,-32,1013,-19,-25,-13
4261,123,-62,1013,-17,-14,-13
4262,114,-45,999,-11,8,-5
4263,23,-18,996,-8,23,-2
4264,-108,3,995,-10,25,1
4265,-153,11,977,-16,9,-2
4266,-105,2,993,-18,-12,-7
4267,21,-26,1006,-19,-27,-12
4268,111,-46,1007,-15,-19,-11
4269,138,-36,1002,-12,1,-7
4270,38,-21,1003,-13,23,-2
4271,-84,-3,998,-13,27,2
4272,-155,4,978,-16,13,-1
4273,-121,1,985,-16,-9,-7
4274,-12,-32,1003,-16,-24,-12
4275,103,-31,1004,-15,-22,-13
4276,146,-30,1009,-11,-5,-9
4277,63,-14,999,-11,19,-2
4278,-55,-3,1008,-14,28,0
4279,-149,4,973,-16,19,0
4280,-142,-7,991,-17,-4,-5
4281,-45,-32,1000,-17,-25,-11
4282,87,-33,1006,-14,-26,-13
4283,149,-30,1000,-13,-8,-11
4284,91,-16,1004,-11,15,-3
4285,-26,5,1000,-13,27,0
4286,-143,7,984,-17,22,1
4287,-155,-11,989,-19,1,-5
4288,-74,-34,989,-20,-20,-11
4289,71,-35,1006,-14,-27,-12
4290,142,-39,1011,-11,-15,-12
4291,109,-18,1005,-9,10,-4
4292,4,1,996,-10,28,-1
4293,-130,13,985,-15,25,2
4294,-162,-9,986,-20,4,-3
4295,-98,-22,986,-20,-18,-9
4296,48,-40,1010,-15,-27,-13
4297,126,-51,1008,-14,-15,-14
4298,134,-22,1005,-8,5,-7
4299,29,0,999,-11,25,-2
4300,-111,10,1002,-15,28,3
4301,-115,-52,908,-22,10,-4
4302,946,298,506,14,106,7
4303,-988,306,1763,-102,84,136
4304,153,-82,387,-138,-116,56
4305,-188,-657,332,-41,92,-115
4306,-868,-180,1053,132,17,-193
4307,525,9,1497,34,-151,-49
4308,214,-181,771,36,-11,-16
4309,94,465,857,17,8,75
4310,299,-23,1477,-35,2,-7
4311,-48,106,807,-23,76,-26
4312,-290,-190,656,-69,42,40
4313,-111,-63,1434,9,-26,-28
4314,-99,-205,751,-20,-15,-17
4315,19,17,881,27,-29,-2
4316,120,83,1301,14,-29,-15
4317,95,32,886,-11,18,-18
4318,-26,26,928,-18,20,10
4319,-64,-9,1149,-16,-1,-13
4320,-18,-110,893,-23,2,-17
4321,-62,-71,944,2,-11,-6
4322,-34,7,1089,3,-16,-12
4323,51,-25,984,-3,-4,-21
4324,-58,21,945,-3,-1,3
4325,16,49,1074,-8,-10,-11
4326,43,-36,1002,-15,-5,-20
4327,-2,-18,932,-15,-5,0
4328,4,-3,1045,-16,-4,-11
4329,-16,-36,1001,-15,2,-10
4330,-75,-15,944,-16,1,2
4331,-53,1,1028,-18,-8,-7
4332,4,-6,1023,-18,-13,-9
4333,26,65,959,-25,-15,3
4334,69,104,1035,-37,-12,6
4335,35,15,1024,-55,5,-3
4336,-39,-96,958,-58,11,5
4337,-92,-146,982,-38,5,-1
4338,-91,-165,973,-16,-6,-6
4339,-15,-103,982,10,-17,-10
4340,50,12,1017,17,-15,-10
4341,106,102,1022,8,-3,-9
4342,60,112,1001,-13,13,-4
4343,-39,62,1013,-33,18,1
4344,-116,-26,986,-45,12,-1
4345,-112,-114,978,-37,-3,-5
4346,-56,-143,978,-18,-18,-8
4347,65,-88,1000,2,-21,-13
4348,123,-12,1004,11,-7,-11
4349,78,70,1013,5,13,-4
4350,-14,92,1023,-13,24,-1
4351,-122,53,979,-30,20,1
4352,-137,-26,988,-37,-1,-2
4353,-75,-105,995,-32,-20,-10
4354,60,-111,994,-16,-23,-12
4355,133,-77,992,-2,-12,-11
4356,101,-5,1010,4,8,-6
4357,9,58,1007,-1,24,-2
4358,-117,69,990,-17,24,2
4359,-151,20,993,-28,6,-3
4360,-98,-43,987,-32,-17,-9
4361,46,-79,1002,-23,-28,-13
4362,119,-91,1005,-11,-16,-11
4363,125,-47,1004,-4,8,-6
4364,28,10,994,-1,24,-1
4365,-107,47,993,-9,26,3
4366,-156,29,988,-20,8,-3
4367,-116,1,988,-24,-11,-7
4368,20,-47,1005,-24,-28,-12
4369,112,-73,1001,-17,-19,-13
4370,138,-54,999,-11,1,-7
4371,44,-12,1007,-7,22,-2
4372,-82,13,1003,-9,29,1
4373,-157,23,971,-15,13,-1
4374,-127,14,988,-19,-11,-6
4375,-7,-32,1008,-21,-28,-12
4376,100,-51,1002,-18,-22,-13
4377,147,-39,1005,-14,-4,-9
4378,63,-25,1009,-9,18,-4
4379,-59,-4,999,-11,27,2
4380,-154,15,973,-16,18,0
4381,-138,3,1004,-16,-4,-5
4382,-37,-28,990,-18,-25,-11
4383,91,-35,997,-17,-26,-12
4384,151,-37,1011,-13,-8,-11
4385,82,-25,1009,-12,17,-4
4386,-30,-6,997,-12,29,1
4387,-153,8,981,-15,20,1
4388,-149,-5,993,-19,-1,-4
4389,-69,-28,995,-26,-23,-9
4390,79,-32,1006,-17,-24,-12
4391,146,-38,1012,-16,-13,-11
4392,104,-22,996,-10,12,-3
4393,-5,-5,993,-13,26,-1
4394,-136,8,993,-17,26,3
4395,-161,-10,988,-18,4,-3
4396,-93,-27,984,-18,-20,-9
4397,54,-29,1007,-14,-29,-13
4398,134,-43,1016,-13,-15,-13
4399,129,-22,1007,-11,7,-6
4400,21,0,995,-10,25,-1
4401,260,-93,745,-9,38,-1
4402,396,852,1028,-20,196,73
4403,-738,83,1525,-198,-30,170
4404,147,-199,465,-172,-69,80
4405,-173,-591,320,-69,62,-66
4406,-834,-529,849,100,49,-120
4407,249,-251,1512,133,-131,-168
4408,155,-42,1084,88,-51,27
4409,133,442,593,31,-5,109
4410,395,359,1636,9,-17,6
4411,60,253,763,-65,66,-14
4412,-172,-167,830,-102,62,26
4413,-199,-147,1222,-39,-9,-12
4414,-155,-344,857,-37,-6,-26
4415,-51,-196,800,26,-26,-12
4416,49,13,1248,49,-37,-2
4417,145,142,967,25,4,-24
4418,26,131,962,3,14,-2
4419,-22,151,1074,-20,0,2
4420,-24,-67,1000,-47,6,-21
4421,-57,-147,897,-29,-4,-6
4422,-51,-140,1046,-5,-12,-9
4423,22,-89,982,7,-7,-20
4424,-30,-2,987,20,-4,0
4425,-20,104,1028,10,-8,-7
4426,30,60,1035,-11,-6,-17
4427,14,32,948,-22,-10,-6
4428,18,-24,1025,-27,-8,-9
4429,20,-71,1004,-24,-2,-12
4430,-48,-68,952,-17,7,0
4431,-64,-37,1012,-8,0,-5
4432,-54,-11,1009,-6,-8,-9
4433,0,58,975,-7,-15,-5
4434,20,83,1022,-24,-16,1
4435,81,35,1028,-39,-7,-8
4436,60,-78,968,-44,7,-5
