sequence,AccelerometerX,AccelerometerY,AccelerometerZ,GyroscopeX,GyroscopeY,GyroscopeZ
0,-447,22,853,-9,44,14
1,-369,-63,915,-25,-18,2
2,104,-136,1091,3,-73,-1
3,454,-84,1110,26,-54,4
4,359,28,1025,18,7,0
5,-41,73,944,8,56,12
6,-423,49,863,-26,49,16
7,-417,-44,897,-22,-8,2
8,41,-127,1107,-9,-71,1
9,423,-88,1120,8,-62,8
10,396,8,1027,22,-3,1
11,18,61,951,-3,51,6
12,-386,51,863,-12,55,17
13,-445,-39,870,-30,4,6
14,-49,-132,1071,-9,-64,-1
15,394,-101,1143,14,-70,5
16,436,-1,1058,21,-13,2
17,71,68,959,4,48,6
18,-331,68,862,-14,57,18
19,-464,-13,841,-32,14,8
20,-130,-126,1042,-16,-56,-2
21,347,-112,1150,6,-73,4
22,462,-36,1074,16,-25,2
23,137,59,992,13,42,4
24,-268,69,870,-15,59,17
25,-476,2,818,-23,25,11
26,-203,-105,1004,-20,-45,-3
27,298,-112,1153,6,-76,3
28,460,-35,1097,18,-33,4
29,208,51,1006,9,30,1
30,-223,74,897,-9,59,14
31,-469,5,823,-28,31,13
32,-264,-89,958,-23,-35,0
33,234,-123,1138,2,-76,2
34,459,-56,1095,14,-40,4
35,267,43,1031,19,22,2
36,-169,78,928,-7,59,14
37,-462,16,821,-29,38,15
38,-318,-75,934,-21,-27,1
39,171,-121,1112,-6,-76,0
40,457,-74,1097,13,-50,6
41,314,36,1027,18,14,-1
42,-107,73,932,-6,56,12
43,-441,20,844,-26,45,17
44,-372,-68,917,-28,-18,-1
45,107,-132,1095,-5,-74,-2
46,445,-82,1111,15,-56,5
47,358,31,1027,19,5,0
48,-48,86,941,1,55,9
49,-416,38,854,-26,48,16
50,-409,-43,909,-24,-9,1
51,39,-139,1098,-13,-69,-4
52,423,-98,1120,11,-62,6
53,388,15,1030,22,-3,0
54,18,73,947,0,50,6
55,-385,64,861,-20,54,18
56,-436,-44,878,-29,0,4
57,-40,-130,1078,-13,-64,-3
58,392,-118,1136,11,-68,2
59,422,7,1053,20,-12,1
60,65,86,948,2,45,6
61,-337,74,855,-18,56,16
62,-448,-5,865,-34,10,7
63,-111,-135,1040,-21,-56,-4
64,362,-128,1141,3,-72,3
65,439,-23,1072,18,-20,4
66,112,68,983,6,41,4
67,-291,77,863,-19,55,16
68,-462,1,836,-29,18,9
69,-152,-120,1017,-23,-50,-4
70,322,-144,1129,1,-71,1
71,445,-28,1100,22,-27,2
72,164,61,1006,6,34,4
73,-254,83,890,-13,57,18
74,-471,22,831,-31,24,11
75,-205,-119,974,-26,-43,-3
76,273,-146,1118,2,-75,0
77,447,-46,1094,18,-32,1
78,231,44,1025,14,26,3
79,-210,95,916,-7,58,17
80,-471,26,837,-30,31,13
81,-266,-102,948,-28,-34,-2
82,207,-148,1096,-2,-73,-1
83,460,-61,1091,22,-42,2
84,282,45,1033,16,20,1
85,-148,87,920,-8,56,16
86,-456,46,855,-23,39,16
87,-313,-98,931,-33,-23,-1
88,145,-149,1084,-3,-70,-2
89,448,-81,1098,14,-48,2
90,323,30,1027,20,11,0
91,-92,103,934,2,55,11
92,-427,46,856,-28,43,17
93,-363,-75,921,-26,-14,1
94,82,-144,1088,-6,-67,-2
95,433,-105,1116,11,-56,3
96,349,28,1030,25,3,-1
97,-27,100,949,1,51,10
98,-403,59,855,-22,49,19
99,-400,-49,894,-30,-4,5
100,2,-153,1069,-13,-63,-4
101,412,-123,1136,15,-63,2
102,395,2,1054,21,-3,1
103,27,82,949,8,48,7
104,-362,85,856,-12,54,18
105,-432,-24,857,-31,5,7
106,-72,-137,1038,-12,-57,-2
107,382,-126,1150,9,-69,0
108,428,-34,1076,24,-16,0
109,91,80,1003,18,44,6
110,-312,101,843,-14,56,20
111,-461,-7,828,-27,16,8
112,-146,-105,1019,-16,-51,-3
113,350,-137,1130,4,-74,2
114,449,-38,1097,24,-24,0
115,173,61,1003,11,37,3
116,-261,82,894,-10,60,21
117,-486,7,832,-29,28,12
118,-219,-107,969,-21,-40,-1
119,264,-152,1125,5,-75,2
120,465,-62,1103,22,-34,4
121,247,47,1011,23,30,5
122,-198,89,921,-4,60,17
123,-470,25,825,-25,36,14
124,-294,-76,943,-21,-28,0
125,194,-142,1116,-3,-74,0
126,464,-70,1095,18,-44,5
127,302,38,1037,20,19,2
128,-128,69,923,-3,60,15
129,-454,35,844,-18,45,17
130,-366,-64,914,-26,-19,2
131,110,-143,1096,-4,-75,-1
132,454,-67,1121,19,-56,5
133,365,29,1028,19,8,0
134,-39,84,937,1,57,10
135,-413,55,854,-24,52,16
136,-420,-53,894,-28,-5,3
137,19,-128,1106,-11,-69,-3
138,412,-94,1125,12,-65,4
139,394,5,1032,21,-5,-1
140,47,70,949,3,49,7
141,-356,62,853,-16,56,20
142,-440,-28,875,-27,9,8
143,-66,-133,1066,-19,-60,-2
144,368,-92,1154,16,-70,5
145,415,-7,1058,14,-14,2
146,87,57,944,5,44,6
147,-306,70,859,-13,58,19
148,-445,-26,847,-33,17,10
149,-142,-128,1035,-15,-50,-2
150,334,-111,1156,6,-70,4
151,438,-29,1076,17,-23,4
152,139,65,986,11,39,4
153,-256,74,871,-18,57,17
154,-461,0,812,-27,25,11
155,-201,-102,1004,-21,-43,-3
156,290,-120,1155,1,-74,1
157,448,-39,1103,18,-32,4
158,202,53,1005,8,32,3
159,-214,78,901,-8,58,15
160,-460,3,812,-32,31,13
161,-259,-83,960,-21,-34,1
162,230,-131,1134,-2,-76,1
163,450,-56,1102,13,-39,3
164,252,65,1028,18,24,1
165,-160,80,924,-14,56,15
166,-458,28,824,-30,37,14
167,-298,-86,933,-28,-27,-1
168,174,-146,1109,-9,-72,1
169,447,-76,1097,16,-43,5
170,289,43,1028,17,17,-2
171,-121,72,929,-8,54,11
172,-438,28,846,-23,40,16
173,-330,-65,929,-28,-21,-1
174,123,-144,1091,-7,-71,0
175,443,-86,1103,15,-51,5
176,322,44,1035,20,8,-1
177,-75,79,933,-3,53,9
178,-427,44,853,-25,44,17
179,-373,-64,912,-27,-13,1
180,71,-155,1093,-10,-69,-4
181,437,-104,1125,15,-57,4
182,358,31,1037,25,3,-1
183,-15,80,940,-2,52,7
184,-399,74,855,-17,50,19
185,-410,-44,883,-33,-4,4
186,-4,-154,1075,-13,-64,-3
187,408,-113,1143,16,-64,4
188,407,-5,1057,21,-5,2
189,40,77,948,10,50,6
190,-355,83,857,-14,55,18
191,-440,-19,852,-32,8,7
192,-86,-133,1046,-13,-58,-2
193,375,-118,1152,10,-70,3
194,443,-26,1069,21,-17,2
195,109,72,988,12,44,4
196,-301,89,866,-14,59,17
197,-469,-5,822,-30,20,12
198,-172,-109,1013,-18,-49,-2
199,327,-131,1141,4,-74,2
200,464,-50,1095,19,-27,3
201,177,66,1017,12,35,2
202,-245,79,894,-8,60,16
203,-482,13,824,-30,29,13
204,-239,-101,960,-20,-39,-1
205,257,-137,1129,3,-77,1
206,469,-55,1098,17,-36,4
207,248,43,1028,16,27,3
208,-190,86,923,-6,61,14
209,-470,14,820,-28,38,17
210,-307,-85,931,-21,-28,1
211,188,-123,1115,-1,-76,0
212,463,-82,1095,15,-45,4
213,310,41,1029,22,18,1
214,-120,82,932,-7,60,15
215,-448,31,838,-23,47,17
216,-365,-59,918,-27,-17,2
217,109,-140,1098,-5,-72,1
218,451,-77,1114,16,-54,5
219,353,26,1028,19,8,0
220,-47,79,942,2,57,11
221,-417,39,854,-25,50,17
222,-408,-57,893,-23,-7,5
223,33,-131,1103,-8,-69,-1
224,421,-103,1124,14,-62,3
225,389,18,1042,28,-2,0
226,24,81,951,2,51,8
227,-372,57,851,-15,54,18
228,-442,-27,863,-28,6,3
229,-51,-123,1081,-15,-62,-2
230,381,-114,1147,12,-69,3
231,434,-10,1059,19,-13,-1
232,78,65,962,9,47,4
233,-317,51,846,-14,59,18
234,-461,-9,838,-27,17,8
235,-139,-121,1043,-15,-54,-2
236,346,-116,1156,9,-73,3
237,453,-16,1076,23,-23,2
238,151,58,996,10,39,4
239,-263,74,870,-13,60,17
240,-471,-4,808,-24,25,11
241,-212,-105,999,-22,-44,-2
242,290,-122,1154,6,-76,2
243,457,-36,1103,21,-33,2
244,215,48,1011,12,30,1
245,-197,70,897,-8,59,16
246,-475,17,817,-24,35,12
247,-277,-86,956,-20,-34,-3
248,221,-121,1140,2,-77,2
249,449,-37,1103,14,-41,4
250,277,33,1021,16,21,-2
251,-146,63,930,-8,58,13
252,-455,18,818,-25,41,15
253,-324,-80,925,-24,-24,0
254,146,-128,1116,-2,-73,1
255,448,-54,1105,19,-49,5
256,328,26,1025,13,12,-1
257,-85,68,930,-3,56,11
258,-422,24,843,-21,47,15
259,-379,-64,907,-28,-13,-1
260,75,-121,1104,-6,-71,-1
261,431,-74,1120,13,-56,4
262,363,19,1024,18,3,-1
263,-17,65,941,-1,54,7
264,-395,39,855,-23,52,16
265,-418,-48,888,-25,-3,3
266,13,-123,1109,-10,-66,-1
267,400,-96,1131,9,-63,5
268,395,4,1035,22,-5,1
269,43,81,952,2,49,7
270,-357,53,850,-18,55,17
271,-442,-28,866,-28,10,5
272,-70,-121,1080,-18,-61,-2
273,369,-110,1147,8,-69,5
274,431,-16,1056,15,-16,2
275,92,64,961,8,44,3
276,-302,62,855,-14,57,18
277,-456,-14,837,-30,18,10
278,-157,-101,1037,-14,-52,-3
279,329,-114,1157,3,-75,1
280,449,-27,1083,19,-25,1
281,164,67,995,10,37,4
282,-237,61,866,-19,59,17
283,-465,-4,809,-23,29,11
284,-232,-100,994,-22,-41,-4
285,267,-128,1156,5,-76,1
286,444,-48,1104,17,-35,3
287,232,55,1016,14,25,3
288,-176,65,892,-10,58,17
289,-458,22,819,-26,37,14
290,-288,-77,948,-23,-29,-3
291,192,-130,1142,-2,-74,0
292,437,-49,1103,14,-42,5
293,291,29,1022,15,17,3
294,-128,65,922,-6,57,13
295,-440,20,829,-24,42,14
296,-334,-74,926,-23,-18,1
297,125,-123,1109,-4,-71,-3
298,432,-64,1100,18,-49,3
299,330,35,1026,15,10,0
300,-64,67,934,-5,53,13
301,-412,28,852,-23,47,16
302,-375,-56,907,-27,-10,2
303,64,-136,1092,-9,-68,-1
304,414,-79,1114,13,-55,5
305,365,23,1030,17,1,1
306,-6,72,941,2,52,11
307,-382,49,852,-21,51,18
308,-413,-50,900,-25,-2,3
309,-2,-132,1096,-12,-63,-3
310,390,-92,1131,10,-63,5
311,390,9,1036,20,-7,2
312,49,67,939,1,47,6
313,-343,63,858,-15,54,18
314,-440,-39,876,-29,8,6
315,-73,-129,1067,-14,-57,-3
316,356,-100,1155,13,-68,3
317,418,-23,1052,12,-15,1
318,101,73,958,11,42,6
319,-298,63,852,-17,56,18
320,-450,-20,838,-28,16,7
321,-149,-110,1051,-13,-50,-3
322,328,-119,1152,3,-72,2
323,444,-23,1080,18,-26,4
324,154,62,987,13,37,4
325,-247,69,862,-16,59,17
326,-467,1,823,-25,26,11
327,-212,-111,996,-23,-44,-6
328,284,-116,1156,8,-73,2
329,452,-45,1099,17,-32,5
330,218,56,1012,13,29,4
331,-198,77,899,-8,60,17
332,-470,8,816,-29,34,13
333,-273,-85,953,-20,-34,-3
334,219,-124,1136,0,-76,-1
335,443,-62,1099,15,-41,3
336,282,41,1030,20,20,0
337,-142,69,925,-8,58,15
338,-454,20,818,-25,42,16
339,-321,-64,931,-20,-24,-2
340,139,-135,1117,-8,-73,-1
341,440,-66,1100,15,-49,4
342,327,36,1029,14,12,3
343,-85,64,922,-7,55,13
344,-416,30,846,-20,45,17
345,-373,-67,922,-29,-12,3
346,77,-130,1090,-7,-67,0
347,429,-73,1117,12,-56,5
348,359,23,1028,16,4,2
349,-13,77,941,7,52,9
350,-394,40,853,-31,50,17
351,-415,-51,895,-19,-2,3
352,13,-132,1103,-16,-66,-3
353,397,-90,1130,15,-61,6
354,397,7,1033,16,-6,3
355,39,71,943,5,49,6
356,-353,59,859,-19,55,18
357,-438,-26,875,-26,8,6
358,-71,-131,1068,-18,-59,-2
359,366,-104,1155,12,-69,3
360,424,-6,1057,16,-13,1
361,90,57,943,3,44,7
362,-310,75,860,-11,56,17
363,-449,-23,842,-33,16,8
364,-140,-120,1044,-12,-50,-1
365,331,-110,1162,4,-72,4
366,444,-33,1071,17,-23,3
367,144,66,985,12,38,5
368,-263,68,863,-16,57,16
369,-459,-2,815,-26,23,10
370,-203,-103,1010,-18,-44,-4
371,296,-126,1148,4,-74,2
372,454,-32,1107,20,-31,5
373,192,48,1004,9,31,1
374,-205,69,895,-7,57,16
375,-474,16,821,-27,32,15
376,-256,-97,955,-23,-36,-3
377,238,-130,1134,5,-76,1
378,451,-52,1106,15,-39,4
379,267,45,1025,17,23,0
380,-157,73,917,-8,58,14
381,-462,25,824,-26,39,16
382,-315,-76,931,-23,-25,-2
383,165,-132,1120,-6,-74,-1
384,445,-66,1097,18,-48,4
385,319,33,1025,15,13,-1
386,-95,69,930,-5,57,14
387,-435,34,842,-21,45,17
388,-360,-64,922,-28,-17,-1
389,99,-133,1096,-6,-71,-1
390,433,-79,1111,15,-54,6
391,356,29,1032,20,5,2
392,-40,83,933,1,55,11
393,-405,38,849,-27,48,17
394,-403,-49,907,-25,-7,3
395,35,-141,1106,-10,-67,-3
396,414,-101,1119,10,-60,5
397,385,10,1038,22,-3,3
398,15,85,940,3,51,7
399,-374,55,852,-18,52,17
400,-438,-33,882,-28,2,5
401,-34,-125,1082,-15,-65,-2
402,393,-119,1145,9,-66,6
403,422,0,1053,21,-10,1
404,67,68,952,4,46,8
405,-340,68,852,-15,57,18
406,-455,-14,845,-31,11,6
407,-117,-123,1048,-17,-57,-3
408,362,-119,1160,7,-72,4
409,456,-30,1074,16,-20,3
410,129,63,983,12,43,6
411,-280,77,862,-17,60,19
412,-477,1,814,-28,23,11
413,-195,-112,1007,-21,-47,-3
414,308,-122,1155,5,-76,3
415,459,-31,1098,21,-31,4
416,209,51,1010,9,34,4
417,-219,80,891,-9,60,19
418,-473,13,811,-31,34,13
419,-260,-104,963,-27,-35,-1
420,225,-133,1131,3,-75,2
421,456,-45,1116,15,-42,4
422,266,40,1020,16,23,3
423,-153,79,918,-9,58,16
424,-454,26,826,-29,42,16
425,-310,-89,924,-25,-24,0
426,155,-124,1122,-4,-71,1
427,443,-71,1094,14,-47,5
428,310,37,1033,17,13,2
429,-103,79,929,-7,56,13
430,-423,17,843,-25,43,17
431,-364,-68,915,-25,-14,1
432,98,-137,1099,-6,-70,0
433,437,-78,1115,17,-52,6
434,338,29,1018,20,6,1
435,-43,79,941,2,52,12
436,-404,47,855,-24,47,17
437,-396,-59,898,-27,-7,2
438,45,-132,1106,-6,-68,-1
439,418,-95,1122,9,-59,6
440,375,18,1038,23,0,-1
441,9,85,940,2,52,6
442,-381,46,850,-21,52,18
443,-440,-40,866,-24,2,3
444,-24,-133,1095,-15,-66,-3
445,393,-109,1149,14,-66,5
446,419,7,1056,21,-9,1
447,62,76,945,4,48,5
448,-339,69,848,-16,56,18
449,-459,-19,852,-31,11,6
450,-113,-129,1052,-15,-58,-3
451,370,-125,1155,6,-74,5
452,446,-23,1071,21,-19,2
453,125,65,979,13,42,5
454,-288,68,860,-15,59,20
455,-476,7,818,-26,23,10
456,-174,-118,1018,-22,-50,-3
457,320,-118,1153,6,-75,4
458,459,-34,1096,19,-28,3
459,184,51,1007,10,36,2
460,-235,73,884,-9,59,17
461,-478,13,818,-28,29,12
462,-243,-103,965,-24,-39,-2
463,263,-134,1141,4,-76,3
464,458,-45,1109,17,-35,4
465,250,40,1018,15,27,2
466,-190,76,917,-6,60,16
467,-468,22,817,-27,37,15
468,-302,-81,935,-21,-29,0
469,190,-123,1126,-4,-75,1
470,458,-61,1095,15,-45,6
471,308,36,1035,18,18,2
472,-122,66,928,-8,59,14
473,-442,18,832,-23,44,17
474,-365,-67,915,-24,-17,2
475,110,-133,1101,-4,-73,0
476,440,-72,1115,19,-55,5
477,350,33,1025,17,7,-1
478,-39,74,938,0,55,11
479,-407,47,853,-23,52,18
480,-398,-65,895,-30,-6,4
481,21,-131,1105,-6,-67,-1
482,412,-87,1125,11,-61,4
483,378,13,1029,20,-2,1
484,26,79,949,1,49,7
485,-361,53,854,-21,52,18
486,-428,-51,875,-28,4,6
487,-45,-116,1091,-14,-60,-2
488,371,-109,1145,8,-67,4
489,408,-5,1048,19,-12,3
490,74,81,949,3,44,8
491,-320,58,853,-18,55,18
492,-439,-26,854,-30,14,8
493,-116,-124,1048,-14,-54,-1
494,340,-112,1165,9,-70,3
495,431,-17,1068,17,-19,2
496,127,75,974,13,39,7
497,-277,77,858,-18,58,17
498,-451,-22,815,-29,21,10
499,-177,-107,1029,-17,-48,-3
500,303,-131,1155,3,-72,1
501,447,-34,1089,23,-28,3
502,173,68,1003,11,34,4
503,-226,72,876,-13,57,18
504,-464,10,819,-25,28,12
505,-240,-93,973,-23,-39,-3
506,265,-132,1148,3,-76,3
507,444,-47,1107,16,-35,3
508,244,49,1020,15,26,3
509,-183,68,910,-7,59,16
510,-467,18,817,-29,36,13
511,-294,-87,934,-20,-30,-2
512,184,-133,1127,-3,-75,0
513,453,-57,1103,18,-44,4
514,304,47,1032,17,17,2
515,-117,68,929,-9,58,13
516,-434,33,832,-21,44,17
517,-357,-66,915,-29,-18,1
518,101,-141,1098,-8,-72,-4
519,439,-82,1113,17,-54,4
520,350,31,1033,16,7,2
521,-40,70,932,-1,54,12
522,-399,44,852,-23,50,18
523,-402,-53,898,-28,-6,2
524,31,-132,1100,-6,-67,-3
525,405,-84,1125,9,-59,4
526,379,22,1031,20,-3,3
527,30,79,946,-1,49,9
528,-366,50,852,-23,54,18
529,-427,-57,881,-28,4,3
530,-46,-131,1089,-11,-61,-4
531,371,-104,1146,11,-65,4
532,402,4,1043,19,-11,3
533,85,79,949,3,43,10
534,-316,72,858,-16,56,20
535,-443,-28,853,-32,14,7
536,-121,-136,1059,-17,-53,-4
537,324,-111,1151,8,-69,2
538,436,-28,1069,13,-22,5
539,128,69,974,11,39,7
540,-261,83,857,-16,57,19
541,-446,-18,821,-30,23,12
542,-192,-113,1026,-16,-44,-5
543,296,-118,1159,3,-71,1
544,438,-33,1095,16,-29,5
545,187,61,989,8,32,4
546,-210,87,881,-14,57,18
547,-455,0,815,-32,31,13
548,-242,-109,978,-25,-37,-4
549,245,-133,1145,3,-72,0
550,437,-53,1107,14,-36,5
551,237,57,1018,15,25,4
552,-170,91,911,-9,57,17
553,-454,16,817,-36,35,16
554,-287,-89,946,-21,-28,-3
555,188,-132,1129,-6,-72,-3
556,438,-71,1094,13,-42,5
557,287,44,1026,18,17,3
558,-126,88,929,-10,56,14
559,-444,21,828,-30,40,17
560,-325,-72,931,-26,-21,0
561,128,-143,1100,-9,-71,-3
562,441,-78,1100,15,-50,4
563,327,39,1028,13,11,1
564,-76,88,927,-2,53,13
565,-416,54,860,-28,44,17
566,-376,-67,910,-33,-13,-1
567,75,-150,1097,-9,-70,-4
568,426,-103,1114,7,-55,3
569,360,23,1029,20,3,3
570,-19,86,946,-1,53,11
571,-394,60,846,-25,50,20
572,-412,-47,894,-28,-4,4
573,9,-153,1096,-12,-64,-7
574,402,-116,1138,10,-63,4
575,393,9,1038,24,-5,4
576,35,95,942,2,49,10
577,-358,73,858,-19,53,19
578,-429,-27,878,-32,4,7
579,-72,-148,1055,-18,-57,-5
580,371,-135,1151,9,-67,0
581,421,-13,1065,19,-13,1
582,92,76,965,10,44,9
583,-303,92,860,-17,57,22
584,-450,-4,835,-31,15,9
585,-142,-137,1030,-19,-50,-6
586,331,-132,1147,5,-70,0
587,443,-32,1087,20,-24,3
588,144,70,993,10,38,5
589,-253,92,877,-16,56,19
590,-458,10,827,-28,23,14
591,-203,-120,984,-24,-41,-5
592,278,-142,1141,4,-72,-2
593,445,-61,1098,18,-31,2
594,201,62,1015,17,29,4
595,-209,97,901,-7,57,18
596,-456,16,828,-32,30,15
597,-249,-103,957,-19,-34,-3
598,221,-144,1129,2,-72,-3
599,439,-70,1094,17,-37,2
600,257,46,1017,21,22,1
601,-162,92,920,-5,55,16
602,-445,32,835,-26,35,19
603,-296,-83,948,-22,-26,-1
604,166,-141,1102,-4,-71,-4
605,443,-87,1096,17,-45,3
606,307,39,1024,20,15,1
607,-106,90,916,-2,56,16
608,-430,48,856,-23,42,19
609,-352,-76,920,-28,-15,0
610,105,-136,1108,-3,-70,-3
611,438,-100,1108,13,-52,3
612,348,26,1032,26,7,3
613,-45,101,941,3,56,13
614,-411,56,851,-28,50,20
615,-401,-48,896,-26,-6,4
616,32,-144,1094,-11,-67,-6
617,415,-122,1135,10,-59,2
618,384,6,1043,25,-1,2
619,23,88,950,3,50,10
620,-370,79,849,-16,54,22
621,-438,-25,862,-31,5,7
622,-50,-142,1070,-14,-62,-4
623,377,-127,1152,12,-67,1
624,417,-7,1064,21,-12,2
625,76,78,964,11,45,8
626,-317,74,850,-16,55,20
627,-445,-22,837,-31,14,10
628,-133,-124,1035,-11,-52,-7
629,342,-132,1147,7,-71,0
630,432,-25,1081,25,-22,1
631,140,72,997,14,38,5
632,-265,85,869,-15,57,20
633,-460,5,820,-25,22,11
634,-185,-115,1004,-20,-45,-6
635,298,-130,1139,5,-71,0
636,448,-44,1100,19,-31,1
637,195,57,1008,13,32,3
638,-218,81,897,-6,57,18
639,-469,14,828,-29,29,13
640,-248,-104,963,-21,-38,-5
641,235,-135,1131,5,-74,-3
642,448,-52,1098,19,-37,2
643,262,51,1021,18,23,1
644,-170,89,920,-8,57,16
645,-457,29,828,-29,36,16
646,-301,-91,945,-25,-27,-2
647,168,-134,1114,-5,-72,-3
648,448,-78,1096,17,-45,3
649,305,32,1022,20,17,2
650,-115,87,920,-4,55,14
651,-433,37,846,-22,42,17
652,-351,-71,928,-28,-18,0
653,105,-133,1102,-5,-71,-4
654,446,-88,1112,14,-53,4
655,341,37,1024,19,10,2
656,-47,83,927,1,54,12
657,-409,54,861,-25,48,19
658,-398,-63,901,-28,-8,1
659,41,-137,1109,-9,-68,-6
660,411,-101,1123,9,-58,3
661,385,7,1031,20,-3,3
662,13,90,943,3,50,10
663,-378,65,854,-21,53,20
664,-434,-44,875,-28,3,5
665,-36,-134,1082,-15,-63,-5
666,387,-117,1147,12,-66,0
667,411,-3,1053,20,-11,1
668,77,79,953,7,44,11
669,-329,77,853,-17,56,21
670,-448,-25,847,-33,11,6
671,-117,-127,1047,-14,-55,-4
672,344,-123,1152,8,-70,0
673,440,-25,1074,17,-20,2
674,131,76,983,14,38,7
675,-271,74,860,-17,58,21
676,-452,-1,828,-27,23,13
677,-189,-113,1013,-19,-44,-5
678,300,-129,1145,3,-73,-2
679,442,-34,1093,22,-29,4
680,191,61,1001,10,31,6
681,-216,74,884,-12,58,20
682,-467,13,829,-30,31,14
683,-235,-100,976,-25,-39,-7
684,247,-132,1135,1,-73,0
685,439,-50,1098,18,-35,3
686,244,57,1017,10,23,4
687,-180,77,910,-3,56,18
688,-456,19,831,-35,35,15
689,-282,-90,953,-17,-28,-3
690,186,-146,1115,-7,-73,-3
691,447,-60,1096,17,-42,4
692,286,50,1023,17,19,2
693,-124,76,916,-9,55,16
694,-446,41,841,-21,40,19
695,-326,-80,937,-32,-20,-2
696,131,-146,1102,-4,-70,-4
697,442,-72,1112,15,-48,4
698,326,25,1021,16,11,2
699,-85,93,920,-2,54,15
700,-421,47,854,-26,44,18
701,-369,-70,915,-31,-14,2
702,85,-148,1099,-7,-69,-4
703,424,-94,1121,10,-54,5
704,359,17,1029,23,5,2
705,-26,91,940,0,53,12
706,-403,67,846,-25,48,20
707,-403,-49,899,-28,-6,3
708,20,-138,1094,-14,-64,-5
709,405,-107,1140,10,-61,3
710,395,-11,1044,18,-3,1
711,25,93,947,6,52,11
712,-371,64,850,-20,53,21
713,-432,-42,868,-31,4,6
714,-58,-135,1055,-14,-60,-5
715,378,-124,1148,11,-67,2
716,429,-21,1067,18,-12,3
717,75,89,967,14,45,9
718,-324,90,861,-19,55,20
719,-451,-22,836,-33,12,8
720,-129,-122,1034,-15,-52,-5
721,345,-131,1140,4,-70,0
722,446,-44,1083,19,-22,2
723,134,73,993,14,40,6
724,-266,81,877,-17,57,20
725,-465,-3,829,-26,22,12
726,-185,-107,999,-19,-44,-5
727,301,-134,1133,4,-71,0
728,449,-44,1095,20,-29,1
729,189,69,1007,13,33,5
730,-222,81,895,-13,57,19
731,-471,23,841,-30,30,13
732,-241,-109,960,-25,-36,-4
733,252,-151,1126,0,-73,-1
734,443,-57,1094,17,-34,1
735,255,46,1012,20,26,2
736,-182,93,923,-6,58,19
737,-465,36,831,-29,35,17
738,-283,-88,954,-24,-30,-1
739,178,-147,1110,-5,-72,-4
740,452,-76,1092,18,-43,3
741,295,46,1025,20,18,3
742,-129,92,912,-7,56,15
743,-436,41,847,-26,40,18
744,-337,-74,933,-31,-20,0
745,126,-156,1094,-6,-71,-5
746,441,-96,1114,17,-51,2
747,330,38,1030,21,9,2
748,-64,92,925,0,55,14
749,-424,63,844,-26,46,18
750,-374,-59,918,-29,-13,2
751,64,-154,1098,-11,-66,-3
752,422,-107,1130,10,-56,2
753,361,10,1032,22,3,1
754,-11,95,941,1,51,12
755,-396,79,849,-23,50,21
756,-404,-44,890,-34,-2,5
757,5,-151,1075,-15,-62,-6
758,397,-115,1145,13,-60,1
759,394,-5,1059,20,-4,0
760,23,88,955,6,49,8
761,-360,79,847,-19,53,21
762,-419,-27,861,-34,4,10
763,-74,-135,1042,-14,-56,-5
764,376,-137,1140,8,-66,0
765,424,-26,1075,20,-13,4
766,83,76,978,13,44,8
767,-310,95,867,-16,55,20
768,-449,-7,833,-30,14,13
769,-141,-139,1012,-19,-51,-3
770,336,-133,1139,8,-69,-2
771,439,-47,1084,21,-23,1
772,147,70,1009,18,38,5
773,-254,92,888,-12,57,19
774,-460,3,827,-29,23,14
775,-212,-110,977,-21,-42,-5
776,283,-138,1139,8,-73,-4
777,446,-50,1095,19,-30,2
778,213,62,1009,16,30,5
779,-200,88,910,-6,57,18
780,-468,17,829,-31,31,16
781,-267,-100,964,-18,-33,-4
782,213,-142,1128,1,-74,-5
783,444,-71,1087,18,-39,1
784,283,48,1013,22,21,3
785,-147,101,924,-6,58,17
786,-455,29,836,-27,40,16
787,-320,-80,941,-24,-23,-3
788,139,-137,1113,-5,-72,-4
789,445,-92,1096,16,-48,2
790,327,43,1023,21,12,1
791,-84,83,916,-3,55,16
792,-419,45,853,-22,45,19
793,-372,-62,923,-28,-12,-1
794,77,-147,1101,-4,-68,-6
795,422,-92,1120,13,-55,2
796,358,29,1029,21,2,3
797,-19,85,932,1,52,12
798,-396,57,843,-23,49,21
799,-403,-47,905,-26,-4,3
800,14,-149,1098,-11,-64,-9
801,401,-108,1141,10,-62,2
802,381,5,1037,25,-4,3
803,35,85,941,2,48,9
804,-367,76,849,-17,53,20
805,-421,-26,877,-31,4,6
806,-57,-142,1065,-15,-57,-8
807,373,-119,1150,12,-66,-1
808,418,-6,1067,17,-12,2
809,75,68,950,8,45,9
810,-324,85,860,-13,56,20
811,-446,-18,843,-36,12,9
812,-113,-132,1040,-12,-52,-5
813,340,-125,1145,6,-69,-2
814,440,-30,1075,20,-19,3
815,132,72,991,13,39,7
816,-273,91,868,-16,56,20
817,-463,-2,832,-28,20,12
818,-183,-119,1009,-20,-46,-7
819,301,-128,1134,5,-71,-3
820,456,-48,1092,19,-29,3
821,191,70,1005,14,33,5
822,-229,81,886,-12,60,18
823,-468,1,841,-32,29,15
824,-243,-101,974,-20,-37,-4
825,244,-128,1125,4,-74,-4
826,457,-58,1092,14,-36,3
827,254,60,1014,20,25,4
828,-174,89,914,-10,59,16
829,-465,17,836,-32,37,17
830,-300,-91,953,-23,-27,-2
831,177,-137,1119,-6,-73,-4
832,450,-75,1090,16,-44,1
833,309,44,1014,20,16,5
834,-118,89,919,-6,56,16
835,-438,34,845,-26,43,19
836,-339,-75,936,-28,-18,1
837,107,-134,1110,-6,-69,-2
838,439,-91,1104,11,-51,1
839,339,38,1018,18,10,6
840,-64,93,919,-3,55,15
841,-408,40,850,-32,45,19
842,-380,-59,922,-28,-10,2
843,64,-145,1106,-10,-67,-4
844,418,-111,1116,7,-56,3
845,361,25,1026,21,2,4
846,-12,104,945,1,50,12
847,-396,67,842,-26,51,19
848,-400,-45,898,-31,-4,5
849,8,-140,1092,-18,-63,-4
850,397,-128,1135,7,-61,1
851,390,1,1053,19,-4,4
852,24,93,951,0,48,12
853,-363,70,843,-22,52,20
854,-420,-32,869,-32,3,7
855,-53,-146,1054,-17,-59,-4
856,379,-132,1141,10,-65,-1
857,411,-4,1077,20,-11,1
858,66,76,966,7,43,9
859,-321,98,862,-18,53,20
860,-432,-12,846,-37,10,11
861,-108,-143,1024,-20,-52,-5
862,350,-137,1133,4,-67,-3
863,426,-34,1080,23,-17,3
864,114,61,997,11,41,9
865,-282,101,885,-12,55,22
866,-447,9,836,-32,16,13
867,-157,-125,994,-23,-46,-4
868,306,-132,1128,5,-68,-3
869,440,-53,1091,16,-25,3
870,165,59,1002,12,35,6
871,-245,105,907,-9,55,19
872,-450,12,839,-35,24,17
873,-213,-111,970,-24,-39,0
874,251,-145,1119,3,-70,-4
875,446,-70,1087,15,-33,3
876,224,49,1007,20,28,7
877,-195,108,927,-6,56,17
878,-452,22,832,-33,31,19
879,-276,-97,947,-21,-30,0
880,191,-145,1122,-3,-72,-5
881,442,-88,1093,19,-41,3
882,279,46,1013,24,19,3
883,-132,103,923,-5,54,16
884,-431,40,834,-27,38,20
885,-323,-75,935,-27,-20,2
886,123,-154,1104,-4,-69,-6
887,430,-94,1113,15,-50,1
888,317,29,1022,23,11,2
889,-72,103,929,3,53,15
890,-404,57,847,-28,44,20
891,-354,-60,913,-26,-13,4
892,72,-148,1100,-7,-65,-7
893,410,-117,1119,12,-52,0
894,342,23,1044,26,3,1
895,-25,97,951,2,51,11
896,-379,77,849,-21,45,20
897,-389,-38,880,-32,-3,6
898,17,-153,1068,-14,-62,-6
899,389,-129,1145,12,-57,-1
900,373,-5,1062,22,-2,2
901,21,88,958,4,47,10
902,-354,84,850,-14,50,21
903,-411,-26,857,-34,2,9
904,-55,-143,1042,-10,-57,-6
905,367,-135,1135,11,-63,-2
906,410,-25,1075,21,-11,2
907,69,89,988,14,44,8
908,-312,89,863,-18,52,21
909,-431,-7,835,-28,11,13
910,-121,-125,1020,-18,-50,-5
911,337,-143,1133,5,-67,-4
912,428,-41,1082,26,-18,2
913,129,74,1006,13,38,6
914,-266,84,883,-13,54,20
915,-454,13,842,-25,20,14
916,-183,-117,984,-24,-45,-3
917,294,-146,1126,8,-71,-3
918,436,-40,1090,21,-27,0
919,194,54,1005,16,31,3
920,-222,99,913,-8,56,19
921,-459,26,837,-34,26,16
922,-234,-116,961,-23,-38,-3
923,229,-137,1124,2,-73,-4
924,444,-64,1086,16,-36,1
925,255,46,1017,19,23,4
926,-177,104,915,-4,57,18
927,-447,33,834,-29,34,18
928,-288,-88,949,-26,-28,-1
929,168,-150,1103,-5,-71,-7
930,448,-88,1108,19,-45,1
931,296,34,1022,20,16,2
932,-114,96,918,-3,55,14
933,-428,53,842,-26,41,19
934,-334,-68,929,-29,-18,2
935,108,-147,1102,-5,-68,-6
936,429,-103,1121,11,-51,0
937,331,17,1024,22,7,0
938,-53,94,933,5,53,13
939,-413,69,844,-25,45,19
940,-369,-62,909,-29,-11,3
941,47,-142,1091,-6,-64,-6
942,413,-111,1133,11,-57,0
943,364,-4,1046,23,0,1
944,0,101,952,4,48,10
945,-384,81,854,-19,50,21
946,-398,-45,876,-34,-1,6
947,-25,-138,1056,-16,-60,-5
948,391,-137,1141,11,-63,-1
949,397,-12,1068,21,-7,-1
950,44,93,961,11,46,9
951,-337,76,866,-22,51,22
952,-429,-13,853,-30,7,9
953,-88,-128,1032,-18,-54,-5
954,359,-136,1133,7,-68,-3
955,424,-19,1071,21,-17,1
956,101,71,999,10,41,5
957,-284,81,871,-16,52,21
958,-449,5,843,-27,15,13
959,-158,-123,1007,-21,-47,-5
960,323,-137,1130,5,-70,-2
961,432,-37,1086,21,-24,0
962,178,72,993,13,34,6
963,-242,95,905,-11,56,21
964,-458,12,841,-33,26,15
965,-213,-106,986,-25,-39,-3
966,246,-151,1120,1,-70,-5
967,446,-57,1082,16,-33,1
968,229,58,1010,17,27,6
969,-188,88,912,-7,56,16
970,-451,34,840,-30,32,18
971,-269,-106,956,-26,-29,0
972,186,-146,1119,-3,-70,-6
973,431,-77,1085,17,-41,1
974,281,46,1013,20,19,3
975,-131,96,922,-4,56,16
976,-426,34,843,-26,37,20
977,-312,-82,941,-28,-21,2
978,127,-156,1098,-5,-67,-6
979,423,-88,1110,15,-48,1
980,310,31,1020,20,11,2
981,-74,97,922,1,51,15
982,-412,58,849,-24,42,20
983,-345,-70,918,-29,-15,3
984,75,-140,1108,-3,-65,-5
985,407,-109,1117,10,-52,-1
986,348,14,1041,24,4,3
987,-28,104,937,3,50,14
988,-389,78,852,-22,45,22
989,-380,-55,895,-28,-6,5
990,15,-146,1076,-15,-62,-5
991,389,-113,1140,12,-57,-1
992,381,-7,1052,19,-4,3
993,16,91,946,7,47,11
994,-353,91,861,-18,49,20
995,-403,-30,868,-37,4,9
996,-59,-138,1041,-14,-55,-6
997,369,-130,1142,9,-64,-2
998,404,-24,1068,14,-11,3
999,66,83,980,11,43,8
1000,-306,84,865,-20,50,20
1001,-422,-13,842,-29,11,14
1002,-118,-130,1017,-18,-49,-5
1003,333,-139,1133,3,-66,-3
1004,414,-36,1078,22,-19,2
1005,124,78,999,13,37,7
1006,-264,85,887,-16,52,21
1007,-441,0,842,-30,19,14
1008,-166,-119,995,-23,-45,-3
1009,288,-147,1119,7,-68,-4
1010,421,-53,1082,22,-24,-1
1011,181,62,1006,17,31,4
1012,-227,94,912,-6,53,19
1013,-445,23,844,-31,25,15
1014,-219,-104,969,-19,-36,-3
1015,234,-144,1121,0,-69,-5
1016,430,-71,1083,17,-33,-1
1017,237,55,1010,23,25,3
1018,-173,90,916,-6,54,18
1019,-448,38,839,-28,34,19
1020,-269,-93,957,-27,-29,-1
1021,171,-157,1105,-3,-67,-5
1022,439,-77,1094,22,-43,2
1023,287,43,1013,13,17,4
1024,-122,93,917,2,54,15
1025,-420,50,848,-27,37,19
1026,-328,-67,937,-24,-19,2
1027,116,-151,1094,-9,-68,-7
1028,431,-90,1119,18,-49,1
1029,323,30,1027,17,10,3
1030,-60,94,935,3,54,14
1031,-407,59,848,-26,44,21
1032,-370,-59,900,-27,-9,5
1033,56,-142,1099,-11,-64,-6
1034,405,-112,1127,13,-54,-1
1035,361,1,1047,22,1,3
1036,-4,100,950,5,51,11
1037,-380,72,849,-22,48,19
1038,-398,-45,872,-30,-1,8
1039,-25,-136,1067,-11,-59,-6
1040,378,-130,1136,13,-61,-2
1041,398,-10,1070,22,-8,3
1042,48,88,963,8,46,10
1043,-335,92,857,-16,51,19
1044,-424,-26,852,-34,7,11
1045,-94,-139,1034,-11,-54,-4
1046,349,-122,1136,7,-66,-3
1047,421,-36,1069,18,-17,2
1048,103,80,990,12,41,6
1049,-287,91,880,-18,53,19
1050,-436,-12,836,-28,16,13
1051,-152,-116,1011,-21,-46,-3
1052,316,-135,1125,4,-69,-2
1053,430,-47,1084,18,-23,1
1054,155,67,1004,15,35,5
1055,-240,93,898,-12,54,20
1056,-455,16,844,-32,23,15
1057,-202,-111,974,-23,-41,-3
1058,268,-139,1126,4,-70,-3
1059,431,-62,1089,14,-29,2
1060,219,55,1011,19,26,5
1061,-208,104,913,-7,56,18
1062,-448,21,833,-35,29,17
1063,-252,-95,960,-24,-33,1
1064,200,-142,1115,-3,-69,-6
1065,444,-87,1093,15,-39,2
1066,264,50,1017,18,20,5
1067,-147,99,913,-7,55,18
1068,-432,38,845,-26,36,20
1069,-305,-79,935,-29,-22,2
1070,140,-148,1106,-6,-69,-5
1071,428,-93,1110,16,-47,0
1072,307,33,1018,18,13,3
1073,-85,99,928,-1,51,16
1074,-410,60,850,-27,40,21
1075,-342,-70,914,-28,-14,5
1076,80,-153,1099,-11,-65,-6
1077,411,-110,1119,10,-52,-1
1078,333,13,1033,24,4,2
1079,-27,98,947,0,50,13
1080,-384,74,853,-24,45,21
1081,-377,-41,893,-30,-6,6
1082,17,-153,1075,-14,-60,-6
1083,386,-124,1137,11,-57,0
1084,361,0,1054,20,-4,1
1085,16,82,951,5,45,10
1086,-352,87,860,-17,46,21
1087,-396,-26,870,-35,0,9
1088,-45,-149,1040,-14,-55,-5
1089,353,-126,1130,11,-62,-3
1090,397,-22,1072,16,-11,1
1091,65,84,976,12,42,9
1092,-308,94,873,-17,49,20
1093,-413,-19,847,-31,9,10
1094,-108,-136,1022,-16,-50,-5
1095,321,-129,1122,8,-64,-5
1096,416,-41,1078,20,-19,1
1097,124,79,1004,13,36,7
1098,-257,96,883,-16,52,21
1099,-434,-2,853,-30,19,15
1100,-170,-129,990,-22,-42,-4
1101,276,-135,1111,9,-67,-4
1102,412,-51,1094,18,-27,-2
1103,189,60,995,16,28,6
1104,-204,96,907,-7,51,23
1105,-441,21,857,-29,26,15
1106,-210,-116,971,-22,-36,-2
1107,207,-130,1114,2,-66,-6
1108,421,-61,1086,17,-35,0
1109,237,43,1002,18,24,4
1110,-169,106,921,-8,52,18
1111,-419,16,848,-27,30,18
1112,-263,-94,959,-23,-26,-2
1113,160,-147,1095,-3,-65,-6
1114,422,-94,1098,20,-40,0
1115,274,58,1020,21,17,3
1116,-118,109,907,-3,52,16
1117,-401,43,861,-27,36,20
1118,-313,-65,935,-28,-19,1
1119,116,-162,1090,-7,-64,-6
1120,413,-93,1125,11,-46,0
1121,309,23,1013,19,10,3
1122,-59,85,932,2,50,15
1123,-398,66,855,-24,41,23
1124,-351,-69,911,-26,-13,4
1125,55,-151,1091,-6,-62,-6
1126,396,-105,1125,14,-52,-1
1127,345,13,1047,24,2,3
1128,-9,103,946,3,48,13
1129,-372,76,856,-17,46,22
1130,-390,-47,889,-31,-3,7
1131,-8,-146,1053,-10,-59,-4
1132,376,-136,1133,12,-59,-1
1133,389,-12,1062,23,-5,0
1134,44,92,968,13,45,12
1135,-337,81,863,-18,51,23
1136,-415,-10,858,-29,6,8
1137,-90,-143,1026,-16,-53,-5
1138,351,-146,1124,9,-65,-3
1139,421,-17,1081,26,-15,1
1140,103,76,990,12,40,9
1141,-288,91,878,-14,53,20
1142,-448,5,850,-26,16,13
1143,-147,-133,1004,-19,-47,-5
1144,312,-139,1123,7,-68,-4
1145,435,-41,1085,24,-24,-1
1146,174,63,1001,14,34,8
1147,-246,109,905,-5,56,20
1148,-458,11,847,-32,23,16
1149,-217,-107,976,-21,-38,-3
1150,247,-141,1120,4,-71,-5
1151,453,-68,1088,16,-33,2
1152,233,67,1009,23,28,6
1153,-195,88,909,-10,56,17
1154,-458,25,843,-29,34,16
1155,-274,-89,966,-24,-30,-2
1156,196,-150,1107,-5,-71,-5
1157,449,-76,1089,19,-41,2
1158,288,44,1017,20,20,4
1159,-147,107,912,-2,57,17
1160,-441,41,853,-28,38,18
1161,-321,-80,941,-30,-22,2
1162,128,-144,1087,-6,-70,-5
1163,452,-96,1119,13,-49,1
1164,326,31,1024,20,13,5
1165,-85,102,921,0,56,14
1166,-426,56,854,-30,44,19
1167,-367,-62,913,-28,-14,4
1168,71,-145,1101,-9,-66,-6
1169,424,-117,1120,10,-54,-1
1170,359,6,1037,24,3,2
1171,-20,102,947,2,52,12
1172,-399,69,849,-24,49,19
1173,-400,-52,892,-29,-5,5
1174,5,-145,1069,-12,-63,-6
1175,399,-126,1132,14,-61,-2
1176,394,-5,1064,21,-4,1
1177,32,100,947,8,47,12
1178,-355,84,862,-19,50,20
1179,-420,-26,865,-34,5,7
1180,-66,-139,1035,-15,-56,-5
1181,360,-135,1133,10,-66,-5
1182,427,-24,1069,20,-14,1
1183,92,76,989,13,43,11
1184,-303,97,868,-18,54,21
1185,-447,-10,845,-29,14,10
1186,-140,-118,1021,-18,-49,-5
1187,326,-136,1123,4,-70,-3
1188,436,-43,1081,24,-22,-1
1189,155,80,1002,14,36,7
1190,-253,89,885,-14,56,22
1191,-462,12,857,-29,22,13
1192,-191,-116,981,-24,-42,-3
1193,275,-141,1125,4,-71,-2
1194,443,-50,1083,16,-29,1
1195,214,55,999,15,29,6
1196,-222,94,919,-8,57,19
1197,-455,20,843,-31,29,16
1198,-249,-99,964,-24,-33,-1
1199,218,-148,1113,-3,-71,-5
1200,451,-64,1085,18,-37,3
1201,266,49,1012,18,24,5
1202,-166,94,913,-8,56,16
1203,-451,37,853,-26,35,17
1204,-297,-95,944,-30,-26,3
1205,156,-149,1092,-4,-68,-4
1206,444,-84,1105,20,-45,-1
1207,312,31,1017,18,15,3
1208,-110,108,927,3,57,17
1209,-427,57,853,-28,41,18
1210,-348,-76,921,-29,-17,3
1211,95,-157,1100,-6,-67,-5
1212,430,-106,1113,12,-53,0
1213,342,12,1036,23,6,2
1214,-42,100,933,5,52,13
1215,-414,75,856,-23,46,20
1216,-382,-59,900,-29,-8,3
1217,37,-146,1080,-10,-64,-5
1218,404,-114,1134,14,-58,-1
1219,384,-6,1047,22,-1,1
1220,7,101,955,8,49,13
1221,-375,87,854,-17,50,21
1222,-415,-35,878,-33,1,7
1223,-49,-145,1038,-14,-58,-6
1224,387,-132,1139,12,-65,-2
1225,417,-22,1071,20,-10,1
1226,73,87,975,14,44,10
1227,-328,94,865,-16,54,21
1228,-447,-14,850,-30,11,8
1229,-117,-128,1025,-18,-53,-5
1230,348,-134,1129,6,-70,-1
1231,446,-39,1071,23,-18,1
1232,138,78,1000,13,41,8
1233,-278,87,885,-14,57,20
1234,-464,7,847,-28,20,12
1235,-189,-107,990,-23,-45,-2
1236,305,-143,1121,3,-73,-2
1237,455,-47,1093,18,-27,3
1238,202,61,1002,15,34,5
1239,-230,87,906,-11,59,21
1240,-480,20,845,-32,29,15
1241,-245,-100,964,-20,-37,-2
1242,230,-144,1118,0,-73,-3
1243,461,-71,1083,17,-37,2
1244,265,57,1022,22,26,5
1245,-171,88,912,-12,59,17
1246,-463,40,840,-27,38,18
1247,-307,-90,945,-26,-25,1
1248,161,-156,1105,-4,-71,-4
1249,457,-82,1101,18,-47,3
1250,310,41,1021,19,15,5
1251,-106,89,915,-3,58,15
1252,-440,54,857,-24,42,19
1253,-357,-71,925,-28,-16,3
1254,104,-149,1094,-5,-70,-4
1255,431,-97,1114,13,-52,-1
1256,357,14,1032,23,6,3
1257,-47,99,942,5,54,13
1258,-420,68,842,-25,48,18
1259,-394,-57,900,-28,-8,3
1260,36,-145,1092,-9,-67,-4
1261,420,-112,1134,12,-59,1
1262,389,0,1052,23,-2,1
1263,8,83,944,4,51,11
1264,-386,84,852,-16,52,20
1265,-431,-31,877,-33,1,6
1266,-44,-144,1049,-13,-62,-6
1267,392,-117,1148,15,-68,-2
1268,433,-16,1070,19,-10,1
1269,73,74,962,10,46,9
1270,-342,98,860,-14,57,19
1271,-454,-23,852,-33,10,10
1272,-119,-124,1030,-15,-54,-3
1273,356,-122,1132,5,-71,-2
1274,458,-43,1076,22,-20,1
1275,133,79,1003,14,41,7
1276,-277,82,875,-19,57,21
1277,-478,4,838,-27,20,12
1278,-185,-114,998,-24,-46,-4
1279,306,-140,1125,2,-73,-1
1280,464,-50,1091,20,-29,3
1281,199,65,1006,16,32,6
1282,-239,89,901,-7,60,18
1283,-473,20,846,-31,28,16
1284,-250,-95,967,-24,-36,0
1285,245,-141,1118,-1,-74,-3
1286,462,-62,1092,13,-36,3
1287,266,51,1014,20,25,7
1288,-182,89,919,-11,60,18
1289,-469,18,832,-30,38,15
1290,-300,-84,952,-23,-28,1
1291,171,-142,1105,-4,-72,-3
1292,465,-79,1099,19,-46,3
1293,310,55,1021,19,19,4
1294,-115,94,914,-7,58,15
1295,-445,43,858,-29,43,19
1296,-352,-71,926,-33,-17,4
1297,104,-153,1093,-7,-70,-2
1298,444,-103,1118,13,-53,2
1299,348,18,1021,21,8,2
1300,-49,94,942,2,54,14
1301,-420,66,850,-25,48,19
1302,-395,-49,900,-28,-9,4
1303,43,-148,1098,-12,-68,-5
1304,415,-113,1127,11,-59,1
1305,373,11,1045,23,0,2
1306,9,80,945,1,49,11
1307,-390,76,853,-16,51,18
1308,-424,-41,879,-32,-1,3
1309,-19,-149,1060,-14,-62,-4
1310,383,-116,1142,13,-64,0
1311,416,-12,1069,20,-9,-1
1312,57,79,959,10,46,10
1313,-351,96,860,-16,53,20
1314,-441,-20,849,-35,7,6
1315,-99,-135,1035,-15,-56,-6
1316,367,-130,1142,6,-69,-1
1317,443,-32,1075,20,-18,1
1318,113,69,991,13,41,5
1319,-288,88,867,-15,56,21
1320,-474,12,842,-26,19,10
1321,-161,-125,1007,-23,-49,-7
1322,314,-131,1126,4,-72,-1
1323,460,-40,1094,18,-28,1
1324,181,63,999,11,35,5
1325,-248,101,899,-9,59,19
1326,-475,3,843,-36,26,13
1327,-228,-112,978,-23,-40,-3
1328,258,-142,1121,4,-72,-3
1329,459,-62,1087,15,-35,3
1330,244,56,1005,20,27,4
1331,-199,102,919,-8,59,17
1332,-467,20,843,-32,33,17
1333,-282,-87,958,-24,-29,-1
1334,196,-141,1105,-6,-73,-5
1335,460,-79,1097,19,-42,3
1336,292,40,1017,17,21,3
1337,-137,91,912,-5,58,15
1338,-448,42,849,-24,39,18
1339,-334,-80,929,-29,-21,0
1340,130,-152,1103,-2,-71,-5
1341,449,-89,1116,16,-50,1
1342,339,27,1020,20,10,3
1343,-73,107,928,3,56,14
1344,-428,54,852,-28,45,18
1345,-376,-63,908,-28,-12,4
1346,63,-145,1100,-9,-68,-4
1347,423,-116,1123,12,-56,-1
1348,370,14,1041,26,2,1
1349,-11,90,939,2,51,11
1350,-397,75,852,-19,50,19
1351,-418,-37,894,-28,-2,3
1352,-5,-147,1069,-16,-63,-7
1353,399,-118,1138,16,-62,0
1354,408,-8,1057,21,-5,1
1355,35,91,955,0,48,10
1356,-351,78,861,-19,51,21
1357,-436,-23,863,-36,6,8
1358,-81,-136,1035,-7,-56,-7
1359,368,-137,1134,5,-67,-3
1360,439,-26,1078,24,-17,2
1361,99,78,982,13,43,9
1362,-310,90,869,-17,56,19
1363,-460,-2,839,-28,15,10
1364,-147,-123,1018,-23,-50,-5
1365,336,-133,1128,7,-71,-3
1366,449,-36,1083,21,-24,1
1367,163,63,997,12,37,7
1368,-260,91,894,-10,57,19
1369,-474,9,843,-28,25,12
1370,-205,-120,984,-24,-42,-4
1371,275,-140,1124,6,-72,-3
1372,456,-47,1089,18,-32,3
1373,226,58,1002,18,29,6
1374,-214,95,912,-8,58,17
1375,-470,27,848,-30,30,15
1376,-264,-100,963,-21,-34,-1
1377,215,-136,1116,-4,-73,-3
1378,456,-72,1083,16,-39,1
1379,284,40,1015,18,21,3
1380,-160,92,914,-6,59,16
1381,-458,43,850,-26,38,17
1382,-323,-87,944,-28,-25,-1
1383,153,-145,1101,-3,-72,-4
1384,459,-85,1111,19,-48,3
1385,327,30,1017,16,14,2
1386,-98,95,918,3,58,14
1387,-440,56,859,-28,44,21
1388,-371,-63,920,-28,-15,4
1389,85,-143,1098,-7,-70,-5
1390,441,-113,1119,12,-55,0
1391,366,13,1036,24,5,4
1392,-31,94,941,5,56,13
1393,-413,62,845,-23,50,20
1394,-408,-41,896,-25,-5,5
1395,14,-133,1084,-15,-66,-5
1396,416,-119,1135,11,-62,0
1397,399,-4,1048,20,-3,2
1398,24,93,953,6,50,10
1399,-374,72,853,-19,53,20
1400,-436,-30,870,-31,4,6
1401,-57,-131,1048,-13,-59,-5
1402,383,-134,1135,8,-67,-1
1403,433,-24,1070,21,-13,1
1404,80,90,978,15,45,9
1405,-330,83,860,-19,56,19
1406,-453,-14,846,-31,13,9
1407,-129,-120,1023,-15,-51,-5
1408,353,-136,1130,4,-72,-1
1409,452,-30,1083,25,-22,0
1410,144,71,996,8,39,6
1411,-278,83,883,-15,57,21
1412,-474,14,842,-28,22,11
1413,-193,-118,989,-25,-45,-4
1414,301,-136,1129,5,-73,-3
1415,458,-53,1089,20,-28,2
1416,205,54,1002,17,33,6
1417,-233,88,905,-7,59,18
1418,-478,27,844,-30,29,14
1419,-250,-101,971,-23,-36,-3
1420,242,-142,1121,3,-75,-3
1421,463,-61,1082,16,-37,2
1422,265,47,1012,19,24,3
1423,-180,85,913,-9,58,17
1424,-472,36,845,-25,36,16
1425,-296,-94,944,-28,-28,-1
1426,176,-140,1106,-4,-73,-3
1427,460,-81,1099,20,-46,1
1428,319,42,1025,18,17,4
1429,-120,97,912,-4,58,17
1430,-447,50,847,-26,42,16
1431,-354,-72,930,-32,-19,1
1432,104,-153,1098,-6,-70,-4
1433,452,-93,1123,12,-54,2
1434,355,14,1023,18,8,3
1435,-52,97,929,3,55,13
1436,-424,64,854,-28,49,20
1437,-400,-56,908,-27,-9,4
1438,36,-146,1093,-9,-66,-6
1439,424,-106,1132,11,-60,1
1440,389,4,1041,20,-1,3
1441,12,93,949,3,52,10
1442,-388,79,852,-21,54,21
1443,-430,-46,875,-32,2,6
1444,-37,-135,1053,-14,-60,-5
1445,390,-131,1144,11,-66,0
1446,423,-23,1068,19,-10,2
1447,63,96,961,12,46,9
1448,-342,85,862,-20,55,20
1449,-438,-16,852,-34,9,9
1450,-109,-128,1034,-16,-53,-4
1451,359,-138,1132,3,-69,-2
1452,439,-30,1072,23,-19,2
1453,114,76,992,11,40,7
1454,-289,84,872,-17,55,21
1455,-464,-3,846,-28,18,12
1456,-165,-117,1002,-22,-48,-5
1457,322,-139,1124,4,-71,-2
1458,448,-43,1090,23,-26,1
1459,180,70,997,11,34,5
1460,-251,92,904,-9,56,19
1461,-471,7,845,-33,25,14
1462,-224,-107,971,-20,-39,-4
1463,264,-146,1124,1,-74,-4
1464,458,-70,1088,17,-33,1
1465,241,60,1013,23,28,3
1466,-203,101,913,-8,59,17
1467,-476,22,835,-31,33,16
1468,-272,-84,962,-21,-30,-3
1469,204,-145,1111,-5,-73,-4
1470,460,-84,1088,20,-42,0
1471,293,45,1021,17,20,3
1472,-147,87,910,-6,59,16
1473,-453,48,852,-21,40,17
1474,-325,-74,936,-29,-22,1
1475,133,-151,1094,-5,-71,-3
1476,456,-92,1113,16,-50,-1
1477,336,27,1027,20,12,3
1478,-80,96,923,2,57,14
1479,-435,60,850,-27,45,17
1480,-375,-60,911,-28,-13,3
1481,71,-149,1106,-9,-70,-5
1482,437,-111,1120,13,-57,-1
1483,371,11,1039,24,3,4
1484,-15,88,939,2,53,13
1485,-406,76,852,-20,49,20
1486,-418,-36,889,-28,-3,5
1487,-1,-144,1076,-16,-65,-4
1488,406,-114,1137,13,-63,0
1489,414,-10,1061,17,-7,2
1490,42,75,946,7,49,11
1491,-367,88,867,-14,55,20
1492,-439,-34,854,-35,7,9
1493,-86,-131,1041,-11,-57,-4
1494,378,-126,1136,10,-69,-1
1495,441,-26,1076,20,-15,3
1496,97,85,985,15,45,7
1497,-311,88,865,-18,56,20
1498,-464,-4,841,-29,15,12
1499,-149,-116,1011,-19,-50,-6
1500,339,-139,1133,2,-71,-2
1501,454,-47,1086,22,-24,1
1502,163,67,996,12,38,7
1503,-263,91,892,-11,58,19
1504,-475,11,836,-31,24,13
1505,-210,-110,988,-24,-43,-4
1506,285,-137,1127,3,-75,-3
1507,464,-55,1087,17,-32,2
1508,220,67,1012,16,29,5
1509,-211,90,902,-10,58,18
1510,-480,19,847,-33,32,15
1511,-258,-103,964,-22,-34,-4
1512,215,-147,1115,-2,-75,-4
1513,461,-73,1089,19,-39,2
1514,282,54,1009,22,23,4
1515,-166,94,918,-9,60,17
1516,-459,33,840,-27,38,18
1517,-313,-72,951,-27,-25,1
1518,154,-159,1095,-8,-72,-4
1519,466,-86,1110,17,-48,2
1520,315,38,1014,16,16,3
1521,-97,86,922,0,55,16
1522,-442,59,853,-24,44,19
1523,-360,-68,922,-31,-17,1
1524,99,-149,1098,-6,-69,-4
1525,439,-94,1123,13,-54,2
1526,359,18,1026,20,5,4
1527,-36,96,943,0,54,13
1528,-415,69,848,-27,50,18
1529,-400,-55,900,-29,-5,5
1530,28,-153,1089,-13,-65,-4
1531,409,-117,1131,10,-60,0
1532,392,3,1050,21,-4,1
1533,21,89,945,6,50,12
1534,-375,82,857,-19,53,21
1535,-426,-36,871,-35,3,8
1536,-54,-145,1051,-16,-59,-4
1537,382,-127,1140,12,-66,-2
1538,426,-14,1070,20,-11,2
1539,73,78,965,9,45,9
1540,-329,95,866,-16,55,20
1541,-442,-14,847,-33,11,10
1542,-120,-141,1023,-18,-51,-4
1543,345,-138,1132,5,-68,-3
1544,443,-35,1072,23,-20,2
1545,129,68,996,13,40,7
1546,-279,99,886,-13,56,18
1547,-458,-1,835,-30,19,11
1548,-181,-121,1000,-21,-44,-4
1549,302,-134,1125,6,-71,-3
1550,451,-54,1095,18,-28,2
1551,186,69,998,15,32,5
1552,-236,95,903,-8,56,17
1553,-470,17,837,-31,28,14
1554,-230,-117,976,-23,-38,-4
1555,242,-141,1122,4,-72,-4
1556,459,-66,1085,18,-34,2
1557,242,48,1012,19,27,3
1558,-184,104,910,-4,57,18
1559,-465,29,842,-29,33,18
1560,-286,-93,956,-22,-30,-1
1561,193,-147,1110,-5,-73,-3
1562,454,-74,1096,22,-43,3
1563,299,38,1014,18,18,2
1564,-128,98,915,-2,57,17
1565,-453,53,853,-26,40,19
1566,-331,-81,937,-29,-21,1
1567,122,-137,1093,-2,-71,-4
1568,454,-103,1111,12,-51,2
1569,342,18,1029,23,11,4
1570,-70,106,933,5,57,14
1571,-428,56,850,-28,47,19
1572,-385,-54,908,-25,-10,5
1573,64,-137,1096,-10,-67,-4
1574,429,-120,1129,8,-58,1
1575,382,7,1043,25,3,4
1576,-11,98,944,1,55,13
1577,-395,63,847,-24,51,21
1578,-425,-39,881,-28,0,7
1579,-19,-141,1067,-15,-62,-3
1580,400,-134,1142,14,-64,0
1581,416,-4,1065,22,-7,5
1582,54,79,957,8,48,12
1583,-352,89,858,-17,56,22
1584,-446,-18,857,-33,9,9
1585,-100,-136,1030,-15,-54,-3
1586,368,-126,1140,5,-70,-1
1587,437,-29,1072,21,-18,2
1588,114,71,993,12,43,8
1589,-298,82,867,-18,57,21
1590,-464,0,834,-28,18,10
1591,-159,-127,1009,-20,-49,-4
1592,319,-129,1136,6,-71,-2
1593,449,-42,1082,22,-26,1
1594,168,68,1006,13,35,7
1595,-252,94,894,-9,57,20
1596,-470,16,840,-30,25,11
1597,-213,-116,978,-24,-41,-2
1598,272,-136,1124,5,-72,-1
1599,452,-59,1091,17,-33,-1
1600,234,48,1014,19,28,5
1601,-213,102,910,-6,59,18
1602,-471,25,837,-33,31,15
1603,-263,-108,960,-23,-34,-3
1604,213,-134,1125,1,-73,-3
1605,462,-71,1088,16,-40,1
1606,278,42,1010,19,22,2
1607,-154,98,914,-5,58,18
1608,-460,38,842,-25,38,17
1609,-317,-86,950,-27,-25,-1
1610,154,-150,1099,-4,-71,-3
1611,460,-85,1114,18,-49,0
1612,324,38,1013,20,14,1
1613,-95,95,920,2,57,14
1614,-437,52,849,-27,44,18
1615,-366,-61,928,-29,-17,1
1616,91,-145,1097,-7,-70,-4
1617,442,-106,1118,12,-55,0
1618,358,13,1033,22,6,2
1619,-35,87,940,4,54,12
1620,-416,73,854,-21,50,21
1621,-406,-49,887,-27,-5,4
1622,28,-143,1087,-12,-66,-5
1623,415,-112,1139,12,-59,1
1624,401,-3,1055,18,-3,2
1625,16,102,945,6,50,11
1626,-381,80,855,-21,53,20
1627,-436,-36,873,-33,4,6
1628,-49,-138,1046,-15,-62,-3
1629,386,-137,1141,9,-68,0
1630,435,-18,1066,19,-12,1
1631,68,81,974,10,46,9
1632,-330,80,862,-20,55,21
1633,-451,3,847,-29,12,9
1634,-127,-122,1020,-19,-51,-4
1635,355,-135,1134,1,-71,-1
1636,450,-31,1086,21,-21,2
1637,138,69,996,8,40,8
1638,-281,79,880,-17,57,21
1639,-473,5,837,-28,21,12
1640,-193,-120,990,-23,-45,-4
1641,303,-148,1130,6,-72,-3
1642,453,-41,1088,22,-28,2
1643,195,62,1007,14,33,6
1644,-227,94,909,-8,58,19
1645,-477,29,840,-31,29,14
1646,-230,-112,962,-25,-38,-3
1647,238,-145,1118,1,-72,-3
1648,447,-68,1087,16,-35,0
1649,257,40,1017,21,24,5
1650,-194,94,914,-6,58,15
1651,-459,26,832,-25,32,14
1652,-284,-92,956,-23,-30,0
1653,183,-146,1108,-2,-74,-4
1654,451,-79,1092,23,-44,1
1655,297,46,1027,21,18,2
1656,-127,99,910,-2,55,15
1657,-446,49,850,-23,39,17
1658,-335,-75,934,-30,-22,1
1659,125,-159,1097,-4,-70,-5
1660,446,-98,1121,16,-49,0
1661,343,17,1026,20,10,1
1662,-68,105,925,6,56,14
1663,-429,69,852,-25,45,19
1664,-378,-59,914,-27,-11,3
1665,62,-132,1096,-10,-68,-5
1666,427,-115,1122,9,-57,0
1667,374,7,1047,22,2,1
1668,-14,89,939,3,51,11
1669,-398,74,856,-21,51,21
1670,-418,-39,885,-29,-2,6
1671,-8,-144,1061,-15,-63,-5
1672,406,-119,1143,12,-62,1
1673,411,-18,1061,19,-7,3
1674,37,91,962,10,49,9
1675,-358,91,855,-18,54,19
1676,-440,-26,857,-36,7,10
1677,-84,-132,1029,-13,-55,-4
1678,373,-131,1140,6,-68,-2
1679,436,-39,1073,20,-15,2
1680,102,68,986,12,43,8
1681,-311,99,874,-15,55,19
1682,-455,1,838,-30,15,11
1683,-154,-123,1006,-21,-49,-3
1684,335,-132,1132,4,-71,-3
1685,448,-50,1087,20,-24,0
1686,160,74,1002,14,36,5
1687,-257,88,889,-10,55,18
1688,-474,7,847,-29,22,12
1689,-205,-113,976,-18,-42,-3
1690,277,-150,1127,2,-73,-3
1691,453,-61,1082,20,-31,0
1692,221,71,1015,23,28,5
1693,-217,92,907,-13,58,19
1694,-470,34,846,-27,30,14
1695,-258,-97,962,-28,-35,-4
1696,220,-146,1112,0,-73,-3
1697,454,-79,1087,17,-39,0
1698,281,38,1013,23,21,3
1699,-166,90,916,-9,58,15
1700,-456,40,846,-22,37,15
1701,-311,-73,949,-28,-26,0
1702,154,-146,1090,-3,-71,-4
1703,455,-84,1111,17,-48,0
1704,319,33,1026,17,14,1
1705,-95,91,917,2,57,15
1706,-441,56,853,-25,45,17
1707,-358,-68,922,-29,-16,2
1708,90,-153,1096,-7,-69,-4
1709,439,-98,1122,13,-55,0
1710,356,21,1031,25,7,2
1711,-37,89,941,1,55,14
1712,-416,81,851,-21,50,19
1713,-398,-52,898,-31,-6,5
1714,28,-142,1077,-13,-64,-4
1715,410,-116,1138,12,-61,0
1716,397,-12,1054,21,-3,2
1717,14,93,946,6,52,12
1718,-380,80,853,-19,53,20
1719,-427,-24,874,-33,3,8
1720,-55,-139,1042,-17,-59,-4
1721,393,-123,1139,11,-67,0
1722,431,-30,1070,17,-12,3
1723,69,82,975,14,46,9
1724,-332,92,864,-19,55,20
1725,-448,-15,843,-33,13,11
1726,-124,-121,1021,-19,-53,-4
1727,351,-133,1133,3,-69,-1
1728,450,-47,1080,20,-20,1
1729,129,77,1002,13,40,7
1730,-279,83,880,-16,57,20
1731,-467,8,844,-31,21,13
1732,-185,-108,988,-25,-45,-3
1733,305,-144,1126,4,-72,-2
1734,450,-53,1091,20,-27,1
1735,190,63,1007,17,32,4
1736,-238,85,911,-10,57,18
1737,-469,14,836,-31,27,15
1738,-236,-95,969,-20,-37,-1
1739,246,-146,1119,-2,-74,-3
1740,458,-70,1083,18,-36,0
1741,251,50,1020,22,25,2
1742,-189,94,913,-6,58,15
1743,-467,32,845,-28,32,17
1744,-287,-80,950,-24,-31,0
1745,188,-153,1099,-7,-73,-4
1746,462,-90,1096,20,-44,0
1747,299,43,1024,22,19,1
1748,-129,90,914,-2,58,16
1749,-450,56,854,-23,41,18
1750,-344,-66,927,-30,-21,1
1751,127,-155,1095,-8,-71,-3
1752,449,-92,1117,16,-51,0
1753,342,18,1032,20,9,1
1754,-61,88,930,4,56,14
1755,-433,72,850,-23,46,19
1756,-383,-51,906,-28,-12,4
1757,53,-148,1091,-12,-66,-4
1758,427,-105,1128,12,-59,0
1759,379,4,1047,22,1,2
1760,-7,89,942,2,52,11
1761,-393,80,855,-17,51,20
1762,-420,-29,889,-31,1,6
1763,-16,-151,1052,-17,-62,-4
1764,396,-121,1140,13,-64,0
1765,417,-10,1065,19,-7,1
1766,49,79,957,9,48,11
1767,-353,98,867,-17,56,19
1768,-431,-24,851,-39,8,8
1769,-93,-135,1029,-15,-55,-3
1770,364,-126,1132,4,-68,-1
1771,444,-35,1070,20,-16,3
1772,104,71,995,12,43,8
1773,-302,95,883,-16,57,19
1774,-458,-1,841,-32,18,13
1775,-162,-120,1000,-23,-48,-3
1776,330,-130,1125,5,-72,-2
1777,449,-53,1090,19,-24,3
1778,170,65,1004,13,37,6
1779,-259,103,902,-10,58,19
1780,-473,9,841,-34,25,14
1781,-215,-111,966,-23,-40,-2
1782,263,-141,1127,3,-73,-3
1783,459,-77,1082,14,-34,1
1784,229,59,1016,25,29,5
1785,-206,91,914,-9,58,16
1786,-466,31,833,-29,32,18
1787,-275,-88,958,-23,-32,-1
1788,205,-151,1109,-5,-74,-4
1789,454,-75,1099,21,-42,2
1790,288,40,1015,16,20,1
1791,-147,101,916,-1,58,15
1792,-449,35,849,-25,39,17
1793,-319,-80,936,-26,-23,0
1794,137,-144,1097,-4,-71,-4
1795,452,-102,1110,17,-49,-1
1796,321,31,1028,23,13,1
1797,-83,92,929,3,54,14
1798,-431,61,850,-25,43,19
1799,-369,-55,912,-25,-14,2
1800,87,-142,1092,-9,-69,-4
1801,428,-110,1128,11,-56,1
1802,363,2,1041,24,3,2
1803,-28,97,948,6,53,13
1804,-410,71,847,-21,50,19
1805,-411,-38,888,-26,-5,4
1806,7,-154,1064,-15,-65,-4
1807,409,-123,1143,17,-61,0
1808,407,-6,1061,21,-4,-1
1809,30,91,956,10,49,10
1810,-370,85,855,-17,54,20
1811,-440,-22,860,-34,6,8
1812,-74,-134,1043,-15,-58,-5
1813,381,-135,1131,8,-68,-1
1814,446,-25,1081,22,-15,0
1815,90,83,982,13,46,7
1816,-316,80,862,-19,57,19
1817,-470,2,849,-25,16,10
1818,-148,-130,1010,-19,-52,-5
1819,343,-137,1133,7,-72,0
1820,459,-34,1084,25,-24,0
1821,164,62,996,12,39,4
1822,-266,105,899,-8,59,20
1823,-477,20,842,-31,25,14
1824,-211,-113,979,-25,-42,-2
1825,275,-140,1120,5,-74,-3
1826,466,-59,1096,17,-32,2
1827,230,41,1007,18,31,5
1828,-215,98,912,-4,61,18
1829,-482,21,838,-31,32,15
1830,-270,-91,959,-21,-33,1
1831,214,-134,1114,-2,-73,-2
1832,467,-68,1090,16,-40,1
1833,296,42,1023,17,23,5
1834,-163,95,911,-7,61,16
1835,-468,37,843,-27,39,17
1836,-325,-94,936,-30,-25,1
1837,141,-143,1104,-2,-72,-4
1838,470,-87,1112,17,-50,2
1839,337,30,1020,19,14,5
1840,-92,104,923,1,59,14
1841,-442,54,854,-27,45,17
1842,-383,-59,916,-30,-13,4
1843,87,-143,1101,-7,-71,-3
1844,440,-105,1115,10,-56,1
1845,373,7,1039,20,3,1
1846,-27,83,941,2,55,11
1847,-419,72,851,-23,52,19
1848,-416,-50,884,-27,-5,6
1849,12,-128,1081,-13,-66,-4
1850,417,-115,1137,12,-63,0
1851,409,-1,1059,22,-4,2
1852,24,93,952,3,50,9
1853,-371,63,849,-19,53,20
1854,-440,-23,869,-31,6,7
1855,-62,-141,1041,-16,-59,-5
1856,391,-135,1140,11,-68,0
1857,432,-10,1073,23,-11,1
1858,85,81,978,10,45,9
1859,-336,87,861,-19,56,19
1860,-459,-2,848,-28,12,8
1861,-127,-123,1017,-20,-53,-3
1862,360,-138,1132,2,-71,1
1863,454,-37,1080,24,-20,0
1864,146,71,1005,11,40,6
1865,-284,84,882,-14,58,19
1866,-477,16,841,-29,20,12
1867,-192,-122,987,-24,-46,-3
1868,304,-141,1127,8,-74,-1
1869,461,-46,1093,19,-29,2
1870,205,52,1004,16,32,3
1871,-238,96,908,-7,59,17
1872,-480,24,843,-32,29,15
1873,-253,-101,963,-24,-37,-2
1874,242,-143,1119,0,-76,-2
1875,464,-66,1088,16,-38,3
1876,270,47,1015,19,25,2
1877,-182,89,921,-9,59,16
1878,-470,33,835,-25,35,16
1879,-301,-82,950,-26,-29,0
1880,168,-152,1095,-6,-74,-3
1881,466,-76,1105,21,-47,1
1882,316,33,1027,17,16,3
1883,-118,101,917,0,58,14
1884,-442,48,848,-30,42,18
1885,-356,-70,931,-29,-18,2
1886,112,-146,1096,-8,-71,-3
1887,448,-99,1118,13,-53,1
1888,353,11,1030,21,9,1
1889,-52,82,932,5,56,12
1890,-432,76,854,-21,50,18
1891,-390,-58,900,-27,-10,6
1892,39,-128,1091,-8,-67,-3
1893,426,-108,1126,13,-60,0
1894,395,-8,1050,21,-1,2
1895,-4,97,947,4,54,10
1896,-392,66,856,-20,52,19
1897,-427,-35,878,-29,0,7
1898,-38,-133,1051,-14,-61,-3
1899,408,-135,1138,10,-66,0
1900,423,-10,1072,22,-8,2
1901,60,75,968,13,48,9
1902,-348,94,864,-16,57,20
1903,-453,-15,842,-32,10,9
1904,-112,-121,1031,-16,-55,-3
1905,368,-130,1134,4,-70,-1
1906,456,-44,1078,22,-19,2
1907,124,76,1001,12,43,7
1908,-298,79,875,-14,59,19
1909,-476,-2,838,-28,20,12
1910,-180,-102,994,-20,-47,-3
1911,314,-144,1129,4,-75,-3
1912,462,-49,1097,22,-28,2
1913,199,69,1004,15,34,4
1914,-243,86,904,-9,59,18
1915,-482,14,832,-33,30,13
1916,-241,-88,970,-21,-39,-2
1917,245,-151,1119,-3,-76,-3
1918,467,-66,1089,20,-38,1
1919,258,47,1015,21,26,3
1920,-184,77,910,-8,60,16
1921,-475,36,844,-24,36,16
1922,-297,-78,948,-25,-29,-1
1923,183,-141,1107,-4,-74,-3
1924,461,-78,1096,18,-45,0
1925,310,44,1028,20,18,1
1926,-125,77,912,-5,58,15
1927,-451,45,850,-23,43,18
1928,-352,-56,932,-28,-19,-1
1929,119,-166,1090,-8,-71,-3
1930,450,-87,1123,18,-53,3
1931,350,25,1027,21,8,0
1932,-57,89,935,4,56,13
1933,-432,65,851,-24,48,19
1934,-389,-46,904,-30,-11,4
1935,49,-142,1090,-12,-68,-3
1936,427,-105,1128,10,-59,1
1937,388,3,1051,21,-1,1
1938,-1,82,941,1,51,9
1939,-393,69,852,-18,52,20
1940,-433,-35,880,-31,2,5
1941,-25,-144,1056,-17,-62,-4
1942,399,-111,1141,14,-66,0
1943,429,-16,1064,17,-9,-1
1944,58,84,961,12,48,7
1945,-351,90,857,-18,56,20
1946,-448,-22,854,-34,10,9
1947,-104,-123,1038,-16,-55,-3
1948,369,-127,1131,3,-71,0
1949,451,-37,1077,19,-18,1
1950,116,69,988,11,43,5
1951,-297,86,874,-17,58,20
1952,-476,6,841,-30,20,11
1953,-166,-117,994,-24,-47,-3
1954,327,-131,1134,4,-73,0
1955,460,-50,1090,20,-25,1
1956,182,59,1006,12,35,4
1957,-257,95,899,-10,60,19
1958,-479,15,834,-33,27,13
1959,-227,-101,972,-24,-40,-1
1960,260,-142,1120,-1,-75,-2
1961,468,-67,1093,15,-35,2
1962,240,52,1014,20,28,3
1963,-202,96,914,-9,59,16
1964,-477,22,835,-30,33,15
1965,-285,-91,946,-24,-32,-1
1966,200,-145,1117,-3,-74,-2
1967,462,-82,1089,18,-43,1
1968,300,43,1025,20,19,2
1969,-148,93,913,-5,59,15
1970,-456,42,849,-25,39,14
1971,-336,-64,941,-30,-23,0
1972,133,-155,1091,-9,-74,-4
1973,460,-90,1108,15,-51,0
1974,337,26,1032,19,12,2
1975,-76,84,924,1,57,13
1976,-435,63,860,-24,45,19
1977,-385,-60,908,-28,-12,2
1978,72,-146,1095,-9,-70,-5
1979,430,-106,1121,13,-58,1
1980,383,14,1043,26,1,1
1981,-21,93,938,2,54,10
1982,-402,77,856,-20,50,18
1983,-418,-36,892,-32,-2,6
1984,-5,-143,1061,-16,-64,-4
1985,407,-132,1136,13,-65,-1
1986,413,-14,1060,21,-6,1
1987,42,83,954,10,48,11
1988,-362,78,857,-17,56,20
1989,-442,-3,862,-29,8,8
1990,-84,-135,1038,-18,-57,-4
1991,380,-123,1138,8,-70,-1
1992,443,-23,1068,19,-16,1
1993,102,63,980,9,44,7
1994,-314,95,873,-17,57,20
1995,-461,-4,846,-29,17,11
1996,-155,-128,1010,-23,-49,-4
1997,336,-135,1131,5,-73,-1
1998,460,-48,1089,21,-25,2
1999,164,73,1001,14,37,6
2000,-266,94,891,-10,60,19
2001,-476,15,847,-33,24,14
2002,-214,-102,980,-24,-41,-2
2003,277,-144,1121,-1,-73,-2
2004,463,-64,1087,15,-33,2
2005,227,50,1012,19,31,4
2006,-220,86,915,-8,60,16
2007,-479,25,838,-29,32,15
2008,-272,-98,949,-24,-33,0
2009,215,-138,1112,-3,-75,-2
2010,467,-74,1093,17,-41,2
2011,286,39,1025,20,23,1
2012,-159,93,914,-4,60,16
2013,-464,44,847,-25,38,17
2014,-325,-73,933,-29,-25,1
2015,149,-146,1095,-6,-74,-3
2016,465,-96,1112,17,-51,0
2017,330,26,1026,20,13,2
2018,-93,94,924,3,57,14
2019,-437,57,850,-27,44,19
2020,-381,-54,920,-27,-14,2
2021,83,-139,1096,-8,-71,-5
2022,445,-107,1121,9,-57,1
2023,367,6,1029,24,5,0
2024,-22,97,945,2,53,10
2025,-414,64,852,-23,52,20
2026,-413,-36,897,-29,-6,5
2027,4,-139,1071,-15,-65,-5
2028,412,-124,1134,11,-63,1
2029,412,-2,1061,20,-6,1
2030,31,87,952,8,48,9
2031,-369,76,861,-13,54,20
2032,-440,-23,864,-31,7,7
2033,-72,-136,1038,-18,-58,-4
2034,381,-135,1135,14,-69,0
2035,442,-19,1075,15,-15,2
2036,94,80,981,18,46,8
2037,-321,89,861,-25,58,20
2038,-456,1,843,-24,16,11
2039,-145,-122,1019,-27,-51,-3
2040,346,-141,1129,5,-71,-1
2041,454,-36,1085,21,-23,3
2042,156,59,1000,12,37,6
2043,-272,94,891,-12,58,18
2044,-474,12,843,-32,24,14
2045,-200,-116,979,-24,-43,-2
2046,280,-138,1121,6,-73,-3
2047,460,-62,1091,19,-32,1
2048,218,55,1015,16,30,5
2049,-225,97,913,-8,60,17
2050,-472,25,839,-32,31,15
2051,-257,-99,957,-22,-34,1
2052,221,-143,1114,-4,-74,-2
2053,462,-78,1089,18,-39,0
2054,273,42,1016,22,23,2
2055,-166,94,917,-5,58,15
2056,-461,43,847,-25,38,17
2057,-311,-77,940,-30,-26,1
2058,150,-147,1089,-4,-72,-3
2059,467,-90,1110,17,-48,1
2060,324,32,1030,20,15,2
2061,-101,91,920,-1,57,13
2062,-443,62,860,-25,45,18
2063,-369,-65,914,-30,-15,3
2064,95,-135,1096,-6,-70,-4
2065,444,-104,1120,10,-56,1
2066,366,9,1034,24,6,1
2067,-31,93,946,2,55,13
2068,-419,73,856,-24,50,21
2069,-409,-51,886,-29,-6,5
2070,9,-133,1077,-14,-66,-4
2071,417,-125,1133,11,-62,1
2072,405,-1,1057,21,-4,3
2073,23,83,945,7,50,10
2074,-372,83,861,-18,54,19
2075,-437,-18,873,-35,5,7
2076,-67,-142,1038,-17,-58,-5
2077,388,-131,1139,7,-68,0
2078,434,-25,1062,20,-13,2
2079,83,76,982,13,46,8
2080,-321,85,873,-17,56,19
2081,-457,-2,847,-29,14,11
2082,-133,-126,1015,-21,-52,-2
2083,344,-135,1125,5,-72,-2
2084,451,-51,1083,22,-23,1
2085,148,66,1004,14,38,5
2086,-275,91,891,-10,57,18
2087,-468,16,843,-30,22,12
2088,-194,-101,981,-23,-44,-2
2089,289,-152,1121,1,-73,-2
2090,457,-55,1098,19,-30,1
2091,210,60,1016,17,30,4
2092,-228,86,905,-9,58,17
2093,-477,26,841,-30,28,15
2094,-251,-97,959,-21,-36,-1
2095,228,-155,1110,-1,-74,-4
2096,462,-69,1088,23,-39,2
2097,269,46,1024,21,23,3
2098,-173,95,912,-5,58,15
2099,-463,56,851,-22,36,18
2100,-309,-78,939,-34,-26,2
2101,164,-151,1090,-4,-73,-4
2102,457,-86,1112,15,-47,1
2103,325,14,1026,17,15,3
2104,-104,98,919,2,59,15
2105,-445,51,856,-27,45,17
2106,-365,-62,921,-25,-16,3
2107,93,-141,1095,-5,-72,-4
2108,443,-98,1118,13,-55,0
2109,369,17,1036,21,4,0
2110,-36,94,947,2,56,11
2111,-416,74,852,-25,50,20
2112,-407,-43,898,-32,-5,6
2113,11,-148,1064,-16,-65,-5
2114,418,-125,1136,14,-63,-1
2115,405,-14,1056,20,-3,1
2116,18,87,948,9,51,9
2117,-369,91,859,-16,54,19
2118,-435,-19,869,-34,5,8
2119,-69,-135,1038,-17,-57,-4
2120,390,-124,1142,8,-68,1
2121,432,-33,1065,16,-12,1
2122,83,83,983,13,43,6
2123,-323,90,867,-21,56,19
2124,-453,-14,842,-31,13,11
2125,-137,-127,1018,-18,-51,-3
2126,343,-139,1123,5,-71,-3
2127,447,-44,1084,26,-22,0
2128,143,71,999,14,38,6
2129,-274,100,893,-9,57,18
2130,-469,10,848,-34,21,12
2131,-193,-109,980,-23,-44,-1
2132,291,-143,1114,4,-73,-2
2133,461,-68,1094,17,-31,0
2134,207,64,1017,22,32,4
2135,-229,84,910,-12,57,16
2136,-477,29,839,-29,29,16
2137,-248,-96,956,-24,-37,0
2138,225,-146,1108,-2,-73,-4
2139,471,-78,1094,20,-40,1
2140,268,46,1020,20,24,1
2141,-166,98,915,-6,59,15
2142,-461,40,848,-25,40,18
2143,-312,-68,943,-29,-26,1
2144,166,-155,1089,-9,-73,-3
2145,456,-93,1110,20,-47,2
2146,327,27,1026,20,14,1
2147,-102,93,928,2,58,15
2148,-444,60,851,-26,44,18
2149,-365,-55,918,-28,-16,3
2150,85,-148,1091,-9,-69,-4
2151,443,-111,1121,12,-56,1
2152,361,12,1037,25,6,1
2153,-27,81,943,2,54,12
2154,-413,77,858,-20,50,20
2155,-413,-33,887,-29,-4,4
2156,13,-152,1065,-17,-65,-4
2157,410,-115,1134,15,-63,2
2158,410,-5,1062,20,-6,0
2159,28,80,955,7,50,10
2160,-373,86,858,-16,55,21
2161,-435,-24,862,-35,6,7
2162,-76,-139,1038,-15,-59,-3
2163,384,-132,1131,8,-69,0
2164,447,-29,1076,24,-14,2
2165,88,74,985,14,45,7
2166,-318,99,868,-12,57,20
2167,-460,2,841,-29,15,12
2168,-147,-125,1009,-22,-50,-2
2169,348,-128,1133,5,-73,-1
2170,455,-51,1089,20,-24,1
2171,160,69,1002,15,39,5
2172,-275,94,891,-13,60,18
2173,-478,4,845,-34,24,12
2174,-206,-105,979,-21,-43,-3
2175,282,-141,1115,0,-74,-1
2176,466,-67,1094,18,-33,0
2177,223,49,1017,22,30,2
2178,-219,97,910,-8,59,16
2179,-479,34,842,-30,31,16
2180,-267,-90,948,-27,-33,-1
2181,215,-137,1111,-2,-75,-4
2182,471,-86,1091,16,-41,1
2183,286,31,1030,16,23,2
2184,-161,92,913,-4,61,15
2185,-461,43,850,-24,40,18
2186,-335,-72,934,-27,-24,1
2187,147,-140,1088,-3,-73,-4
2188,465,-95,1114,15,-50,2
2189,333,25,1030,22,13,1
2190,-85,94,936,1,57,12
2191,-439,57,852,-26,47,20
2192,-383,-54,903,-27,-13,4
2193,77,-149,1089,-11,-69,-2
2194,440,-115,1129,13,-57,2
2195,370,7,1042,24,4,0
2196,-16,89,947,3,52,9
2197,-410,78,850,-18,52,18
2198,-414,-31,888,-31,-2,5
2199,-11,-137,1065,-17,-64,-3
2200,411,-124,1135,12,-65,0
2201,416,-15,1060,19,-6,0
2202,36,80,957,9,49,9
2203,-361,79,859,-18,54,18
2204,-442,-14,857,-32,8,8
2205,-87,-127,1039,-16,-57,-3
2206,383,-130,1129,4,-69,0
2207,441,-20,1074,23,-16,1
2208,103,69,993,9,42,5
2209,-312,92,878,-16,57,19
2210,-465,5,843,-32,16,11
2211,-151,-125,1001,-25,-50,-2
2212,332,-134,1128,4,-72,-1
2213,457,-57,1088,18,-25,1
2214,168,56,1006,13,36,6
2215,-263,94,898,-7,58,19
2216,-475,28,846,-33,25,14
2217,-213,-103,969,-24,-40,-1
2218,267,-143,1117,0,-73,-2
2219,459,-63,1095,15,-33,1
2220,238,44,1017,17,29,4
2221,-210,100,915,-9,60,16
2222,-471,27,837,-31,32,16
2223,-277,-102,947,-25,-31,1
2224,198,-146,1110,-3,-73,-2
2225,462,-80,1096,19,-44,2
2226,295,37,1021,20,20,2
2227,-140,101,918,-1,59,13
2228,-449,52,851,-26,40,17
2229,-332,-72,930,-32,-21,2
2230,124,-149,1090,-7,-72,-3
2231,453,-96,1116,13,-52,0
2232,342,8,1027,21,11,3
2233,-69,98,941,3,56,12
2234,-428,64,849,-23,48,18
2235,-387,-57,900,-27,-9,5
2236,51,-134,1097,-9,-68,-4
2237,432,-113,1126,11,-60,0
2238,380,7,1053,25,-1,2
2239,-3,84,945,1,52,11
2240,-393,75,856,-19,52,20
2241,-421,-36,880,-29,1,4
2242,-28,-135,1053,-13,-62,-4
2243,400,-129,1138,14,-66,0
2244,422,-22,1063,22,-9,-1
2245,54,85,968,15,47,9
2246,-346,87,863,-17,55,20
2247,-444,-9,850,-31,10,9
2248,-107,-118,1029,-15,-54,-4
2249,367,-134,1132,5,-70,-1
2250,446,-40,1074,20,-19,2
2251,122,71,999,12,43,6
2252,-290,79,880,-14,59,20
2253,-473,11,836,-27,21,12
2254,-177,-112,998,-25,-47,-2
2255,314,-144,1124,6,-73,0
2256,458,-43,1097,21,-27,1
2257,194,53,1004,13,35,6
2258,-239,90,904,-7,59,18
2259,-483,27,838,-30,30,14
2260,-241,-97,968,-23,-38,1
2261,241,-141,1116,0,-74,-1
2262,468,-67,1088,17,-38,1
2263,262,46,1023,22,27,4
2264,-182,84,915,-11,60,17
2265,-468,36,839,-25,37,18
2266,-310,-75,941,-27,-26,0
2267,176,-150,1097,-5,-74,-3
2268,461,-71,1108,22,-46,3
2269,320,24,1027,17,16,1
2270,-115,91,924,1,59,13
2271,-445,51,844,-26,45,18
2272,-358,-69,918,-29,-17,3
2273,102,-139,1099,-4,-71,-4
2274,443,-96,1117,11,-54,1
2275,360,8,1034,20,6,2
2276,-43,92,944,2,55,12
2277,-418,64,847,-24,49,17
2278,-404,-55,892,-27,-6,6
2279,26,-137,1088,-12,-67,-3
2280,420,-111,1135,14,-62,1
2281,398,-12,1050,22,-2,1
2282,16,94,956,8,52,10
2283,-382,76,852,-18,53,19
2284,-435,-24,870,-32,3,5
2285,-54,-125,1052,-15,-61,-5
2286,387,-135,1134,8,-68,0
2287,435,-30,1069,20,-12,1
2288,76,78,976,12,46,8
2289,-330,83,861,-18,57,18
2290,-459,-3,838,-30,13,7
2291,-130,-129,1025,-19,-54,-5
2292,351,-119,1140,5,-73,-2
2293,459,-43,1081,19,-24,2
2294,140,64,1001,13,41,4
2295,-275,94,882,-13,58,18
2296,-474,0,833,-31,23,13
2297,-207,-97,987,-22,-46,-4
2298,299,-139,1128,4,-76,-2
2299,462,-60,1099,16,-31,2
2300,220,63,1009,19,31,4
2301,-228,84,904,-11,61,17
2302,-481,23,832,-29,32,13
2303,-258,-86,960,-23,-36,-1
2304,222,-146,1118,-3,-75,-1
2305,472,-70,1085,17,-40,1
2306,274,45,1022,20,24,2
2307,-163,83,913,-10,60,16
2308,-466,45,851,-24,38,17
2309,-320,-81,936,-29,-24,0
2310,159,-144,1095,-6,-74,-2
2311,462,-85,1109,15,-49,2
2312,330,27,1017,16,13,0
2313,-100,89,929,0,58,13
2314,-438,52,855,-24,45,18
2315,-370,-48,916,-30,-14,3
2316,87,-152,1091,-11,-70,-5
2317,440,-107,1117,13,-56,0
2318,366,17,1043,23,3,1
2319,-30,90,943,0,54,10
2320,-412,62,847,-22,50,20
2321,-414,-38,894,-29,-4,6
2322,14,-146,1074,-17,-65,-5
2323,414,-113,1139,14,-63,2
2324,404,-4,1054,20,-4,1
2325,26,85,953,4,51,8
2326,-369,76,855,-19,54,20
2327,-437,-21,863,-33,6,7
2328,-71,-144,1043,-15,-58,-4
2329,382,-126,1138,10,-67,-1
2330,437,-21,1073,20,-14,1
2331,91,77,980,14,46,7
2332,-317,89,865,-18,58,19
2333,-461,-1,847,-28,16,11
2334,-147,-119,1015,-21,-51,-4
2335,341,-135,1130,5,-73,-2
2336,453,-45,1085,20,-24,1
2337,159,59,1002,12,37,5
2338,-268,87,886,-10,58,17
2339,-476,10,838,-31,23,11
2340,-205,-115,980,-23,-43,-3
2341,274,-129,1131,7,-74,-3
2342,468,-65,1092,17,-34,1
2343,223,57,1014,22,30,4
2344,-214,94,911,-7,60,17
2345,-474,30,839,-31,31,17
2346,-275,-84,951,-25,-32,-2
2347,215,-149,1112,-5,-75,-2
2348,462,-79,1093,17,-43,1
2349,287,34,1024,20,20,3
2350,-153,88,913,-3,58,17
2351,-458,46,846,-21,40,18
2352,-329,-74,937,-28,-23,-2
2353,143,-138,1096,-3,-72,-5
2354,463,-85,1114,18,-51,1
2355,336,27,1023,17,14,1
2356,-80,90,926,2,57,13
2357,-437,51,854,-30,47,18
2358,-382,-61,911,-26,-12,2
2359,69,-143,1101,-7,-70,-5
2360,434,-111,1123,12,-58,0
2361,373,13,1032,27,2,1
2362,-9,91,945,2,53,12
2363,-403,70,850,-19,53,20
2364,-420,-35,896,-30,-2,6
2365,-8,-131,1068,-15,-64,-4
2366,409,-125,1137,11,-65,2
2367,411,-8,1057,27,-8,-1
2368,42,71,956,8,49,8
2369,-363,70,859,-12,58,20
2370,-449,-20,855,-35,7,7
2371,-86,-130,1044,-12,-57,-3
2372,372,-122,1136,9,-70,-1
2373,447,-22,1076,21,-19,1
2374,108,70,987,14,43,7
2375,-312,90,869,-19,59,19
2376,-462,-5,831,-27,18,10
2377,-164,-116,1013,-23,-50,-4
2378,329,-141,1131,9,-74,-2
2379,457,-43,1089,19,-26,0
2380,174,58,1006,14,36,4
2381,-253,89,891,-10,59,18
2382,-479,27,840,-28,27,14
2383,-224,-108,975,-27,-41,-2
2384,268,-131,1128,6,-75,-1
2385,461,-53,1095,15,-35,1
2386,243,35,1007,18,28,4
2387,-205,89,915,-4,62,17
2388,-479,25,835,-32,34,15
2389,-282,-97,947,-21,-31,0
2390,197,-127,1115,-3,-75,-4
2391,463,-76,1091,19,-45,0
2392,306,33,1022,17,19,4
2393,-140,90,916,-4,60,16
2394,-456,42,846,-23,41,16
2395,-345,-68,932,-29,-21,-1
2396,127,-143,1095,-4,-73,-2
2397,463,-83,1117,14,-53,1
2398,343,14,1025,19,11,-1
2399,-62,89,929,4,56,12
2400,-433,67,856,-25,48,20
2401,-397,-66,903,-28,-10,2
2402,59,-139,1094,-9,-69,-5
2403,428,-103,1129,13,-61,1
2404,385,0,1039,23,0,2
2405,0,90,948,6,53,12
2406,-398,65,849,-20,52,22
2407,-432,-30,883,-27,0,6
2408,-28,-129,1070,-16,-64,-4
2409,405,-126,1144,10,-67,2
2410,425,-6,1059,19,-9,2
2411,57,79,952,7,48,8
2412,-353,67,855,-19,57,19
2413,-449,-17,861,-31,9,8
2414,-105,-125,1041,-16,-56,-3
2415,367,-130,1136,5,-71,0
2416,457,-31,1074,22,-20,2
2417,118,81,990,12,42,7
2418,-300,77,868,-21,58,17
2419,-467,3,838,-28,19,12
2420,-175,-102,1009,-23,-49,-2
2421,327,-141,1131,0,-75,0
2422,463,-42,1090,22,-27,1
2423,182,53,1005,9,35,4
2424,-249,69,892,-9,60,17
2425,-485,23,839,-28,28,13
2426,-231,-105,969,-23,-41,-1
2427,261,-129,1129,5,-75,-2
2428,469,-57,1093,15,-35,0
2429,252,50,1015,20,28,3
2430,-199,92,918,-11,61,16
2431,-479,20,828,-31,36,16
2432,-297,-88,952,-23,-30,0
2433,197,-152,1107,-6,-74,-2
2434,457,-74,1098,20,-45,3
2435,309,39,1020,18,16,3
2436,-131,89,916,-3,58,16
2437,-456,49,846,-25,42,17
2438,-344,-73,934,-30,-21,0
2439,114,-130,1097,-4,-71,-4
2440,457,-97,1107,10,-55,1
2441,349,20,1025,22,8,3
2442,-61,90,931,0,57,13
2443,-424,48,857,-26,47,19
2444,-395,-45,908,-26,-10,2
2445,52,-146,1092,-10,-68,-4
2446,424,-107,1124,11,-59,1
2447,388,11,1042,25,-2,2
2448,1,82,944,1,53,11
2449,-393,80,853,-20,52,19
2450,-425,-38,887,-33,1,4
2451,-29,-141,1065,-17,-62,-5
2452,396,-110,1145,13,-65,0
2453,424,-23,1055,14,-10,2
2454,52,80,955,10,48,9
2455,-352,77,858,-18,57,19
2456,-444,-26,856,-34,9,9
2457,-101,-132,1035,-15,-55,-4
2458,366,-122,1138,7,-72,0
2459,451,-33,1072,22,-19,2
2460,115,79,986,13,43,7
2461,-299,94,875,-18,58,18
2462,-464,0,839,-30,17,11
2463,-172,-119,1003,-25,-47,-3
2464,318,-140,1130,1,-72,0
2465,460,-49,1092,20,-28,1
2466,181,54,997,14,36,5
2467,-245,90,901,-6,59,19
2468,-478,23,844,-32,28,14
2469,-231,-106,971,-24,-40,-3
2470,260,-133,1124,2,-74,-2
2471,459,-64,1089,14,-35,1
2472,250,42,1011,21,25,2
2473,-189,99,922,-5,59,18
2474,-472,21,832,-32,36,17
2475,-295,-84,951,-22,-29,-3
2476,192,-142,1111,-5,-75,-4
2477,458,-82,1095,19,-44,2
2478,311,40,1019,19,17,2
2479,-131,83,915,-5,57,15
2480,-452,46,855,-22,42,16
2481,-346,-64,932,-28,-20,-1
2482,120,-147,1093,-7,-72,-2
2483,451,-87,1117,13,-53,1
2484,353,25,1023,21,8,1
2485,-60,90,931,1,57,14
2486,-427,58,849,-23,49,18
2487,-398,-55,914,-28,-9,1
2488,50,-147,1094,-9,-67,-4
2489,422,-100,1130,11,-60,2
2490,388,3,1035,23,-1,1
2491,8,80,945,4,52,11
2492,-398,80,852,-19,55,19
2493,-431,-35,886,-31,0,6
2494,-32,-140,1066,-15,-63,-5
2495,396,-114,1143,14,-68,1
2496,429,-10,1060,17,-10,2
2497,62,75,952,10,48,8
2498,-349,82,859,-15,57,18
2499,-452,-13,856,-33,11,7
2500,-106,-133,1032,-17,-55,-4
2501,361,-121,1138,6,-71,0
2502,453,-36,1081,22,-20,0
2503,126,67,987,14,42,6
2504,-294,96,870,-13,57,20
2505,-469,-2,832,-30,21,10
2506,-183,-114,1007,-19,-48,-4
2507,319,-130,1134,5,-75,-1
2508,463,-47,1100,19,-29,2
2509,189,55,996,13,35,4
2510,-239,89,894,-7,60,19
2511,-485,19,837,-32,29,13
2512,-240,-108,970,-21,-39,-3
2513,253,-133,1128,3,-76,-2
2514,469,-58,1092,15,-39,2
2515,259,40,1014,17,26,4
2516,-187,98,917,-5,61,18
2517,-481,20,834,-29,37,14
2518,-300,-95,947,-27,-29,-2
2519,179,-129,1108,-2,-74,-2
2520,467,-82,1095,17,-47,2
2521,317,36,1021,20,17,3
2522,-123,97,921,-4,59,16
2523,-452,35,847,-27,45,17
2524,-361,-64,932,-30,-19,-1
2525,110,-145,1092,-6,-72,-3
2526,459,-96,1112,13,-54,2
2527,349,34,1031,20,8,0
2528,-47,76,921,-1,55,12
2529,-425,64,864,-24,50,20
2530,-408,-51,902,-29,-7,2
2531,46,-141,1099,-11,-68,-4
2532,420,-106,1130,13,-60,2
2533,396,4,1037,23,-4,2
2534,8,85,938,1,52,10
2535,-387,66,852,-20,52,19
2536,-431,-32,886,-29,2,6
2537,-38,-135,1069,-15,-63,-5
2538,399,-122,1140,12,-68,2
2539,420,-3,1061,19,-11,1
2540,68,78,953,9,45,8
2541,-343,78,855,-17,56,20
2542,-456,-14,856,-33,11,6
2543,-108,-136,1035,-15,-56,-4
2544,362,-134,1143,6,-71,1
2545,449,-24,1072,23,-21,2
2546,126,68,989,10,41,6
2547,-295,85,866,-15,58,20
2548,-468,11,843,-27,19,11
2549,-172,-120,1000,-25,-46,-4
2550,315,-127,1134,6,-74,-1
2551,454,-40,1093,20,-28,2
2552,194,43,1004,11,33,5
2553,-243,89,894,-7,60,18
2554,-479,16,839,-34,28,13
2555,-233,-107,970,-22,-38,-3
2556,250,-130,1127,2,-75,-2
2557,466,-63,1090,15,-36,2
2558,250,52,1017,18,26,4
2559,-191,86,912,-8,61,16
2560,-470,32,840,-29,35,17
2561,-292,-88,953,-26,-31,-1
2562,189,-148,1105,-3,-73,-4
2563,462,-70,1097,20,-46,2
2564,305,32,1013,16,17,3
2565,-128,90,922,-4,59,16
2566,-454,50,849,-22,44,16
2567,-345,-86,933,-32,-21,2
2568,116,-138,1099,-2,-72,-3
2569,455,-91,1111,12,-55,1
2570,350,24,1020,21,9,4
2571,-63,98,925,3,57,12
2572,-428,50,858,-27,49,16
2573,-393,-57,920,-29,-10,3
2574,46,-137,1090,-9,-67,-4
2575,428,-106,1121,10,-61,1
2576,386,2,1034,22,-1,2
2577,3,88,944,4,53,10
2578,-394,62,852,-21,53,18
2579,-427,-39,887,-29,1,6
2580,-23,-131,1076,-13,-63,-4
2581,393,-122,1139,13,-66,0
2582,421,-6,1062,21,-10,1
2583,58,85,946,8,47,10
2584,-344,76,858,-19,56,19
2585,-443,-17,858,-32,12,7
2586,-103,-133,1041,-16,-54,-4
2587,361,-137,1142,6,-69,-1
2588,444,-24,1076,22,-19,2
2589,118,73,980,17,42,8
2590,-294,84,863,-18,58,21
2591,-463,3,837,-26,20,11
2592,-168,-117,1019,-21,-48,-4
2593,317,-133,1129,6,-71,-1
2594,455,-39,1095,22,-28,4
2595,179,61,995,12,34,6
2596,-240,78,892,-8,59,18
2597,-479,17,842,-30,30,13
2598,-235,-105,970,-21,-39,-3
2599,259,-139,1130,4,-75,-2
2600,460,-53,1091,18,-36,2
2601,252,51,1019,19,26,4
2602,-194,86,911,-8,61,17
2603,-475,29,833,-26,36,15
2604,-293,-89,953,-25,-28,-1
2605,182,-137,1113,-3,-73,-2
2606,464,-72,1096,17,-46,2
2607,309,39,1021,20,18,3
2608,-129,80,909,-4,60,14
2609,-452,29,847,-22,43,18
2610,-347,-61,940,-26,-19,1
2611,115,-148,1095,-5,-73,-5
2612,458,-77,1112,19,-53,1
2613,354,35,1020,18,8,2
2614,-61,81,919,-1,58,12
2615,-429,55,862,-23,48,17
2616,-391,-67,911,-29,-10,3
2617,49,-137,1099,-9,-67,-3
2618,431,-99,1122,11,-60,2
2619,380,6,1033,22,0,3
2620,0,86,944,4,53,10
2621,-398,70,859,-21,52,19
2622,-428,-46,887,-30,-1,4
2623,-18,-133,1080,-12,-64,-4
2624,398,-114,1133,12,-65,3
2625,419,-8,1063,19,-10,1
2626,47,79,940,6,49,8
2627,-351,75,863,-16,55,20
2628,-449,-19,862,-31,11,7
2629,-94,-137,1037,-16,-57,-4
2630,367,-120,1146,12,-71,0
2631,449,-25,1071,19,-18,3
2632,110,74,982,13,43,7
2633,-301,84,862,-17,58,19
2634,-465,-9,837,-29,17,10
2635,-167,-111,1017,-19,-49,-3
2636,326,-129,1142,4,-74,-1
2637,463,-47,1087,20,-28,1
2638,178,68,997,13,34,6
2639,-252,88,888,-11,60,17
2640,-477,2,831,-31,27,13
2641,-229,-96,982,-21,-41,-4
2642,269,-137,1134,2,-77,-3
2643,464,-63,1091,17,-34,2
2644,240,62,1021,20,27,4
2645,-198,82,902,-8,60,17
2646,-482,15,831,-29,35,14
2647,-283,-83,962,-20,-32,-3
2648,206,-141,1118,-5,-74,-2
2649,457,-70,1092,18,-42,2
2650,302,47,1016,20,18,4
2651,-147,79,918,-8,59,15
2652,-455,28,843,-22,43,14
2653,-333,-75,937,-30,-23,1
2654,127,-143,1099,-4,-72,-3
2655,461,-83,1105,18,-53,1
2656,343,37,1029,18,9,3
2657,-74,85,917,0,57,15
2658,-431,50,854,-26,47,17
2659,-389,-55,923,-29,-11,1
2660,69,-145,1100,-10,-70,-3
2661,425,-102,1121,13,-58,2
2662,381,15,1027,22,1,2
2663,-9,82,937,0,54,11
2664,-407,61,853,-22,52,19
2665,-414,-42,899,-27,-2,5
2666,-14,-137,1087,-15,-65,-4
2667,405,-113,1133,13,-66,1
2668,412,3,1053,22,-8,3
2669,47,73,944,4,47,10
2670,-356,79,857,-15,56,20
2671,-449,-28,871,-32,8,5
2672,-84,-139,1046,-14,-57,-3
2673,368,-120,1145,13,-70,2
2674,440,-26,1068,17,-18,2
2675,105,73,973,16,43,7
2676,-311,87,862,-15,58,19
2677,-456,-9,839,-28,17,10
2678,-151,-122,1028,-18,-49,-3
2679,328,-127,1133,5,-72,-1
2680,462,-34,1091,22,-27,2
2681,160,59,994,11,39,6
2682,-254,91,879,-11,58,18
2683,-473,-2,837,-29,25,12
2684,-214,-113,983,-23,-41,-3
2685,281,-128,1135,6,-74,-1
2686,457,-57,1096,17,-32,3
2687,231,60,1010,18,30,5
2688,-212,94,911,-10,60,17
2689,-481,22,831,-30,34,14
2690,-265,-91,960,-21,-34,-1
2691,210,-135,1118,-2,-74,-3
2692,465,-77,1092,13,-42,3
2693,287,37,1018,20,22,5
2694,-152,89,919,-6,60,17
2695,-464,29,838,-26,41,16
2696,-332,-72,942,-26,-24,-1
2697,144,-138,1102,-6,-74,-3
2698,460,-78,1106,18,-51,3
2699,335,33,1020,16,12,3
2700,-79,83,919,-2,57,15
2701,-435,45,858,-25,48,18
2702,-384,-63,918,-28,-12,0
2703,71,-149,1099,-3,-73,-3
2704,426,-95,1116,19,-57,2
2705,375,18,1031,23,2,3
2706,-12,85,938,2,53,11
2707,-406,64,851,-21,53,19
2708,-414,-41,898,-24,-2,5
2709,0,-138,1088,-18,-64,-3
2710,404,-111,1142,16,-64,2
2711,400,9,1049,18,-7,2
2712,47,74,937,6,48,10
2713,-368,71,853,-20,56,19
2714,-439,-29,874,-26,6,6
2715,-75,-139,1056,-20,-58,-4
2716,367,-118,1144,13,-68,0
2717,443,-16,1067,17,-16,2
2718,95,77,964,13,44,8
2719,-314,87,860,-17,58,18
2720,-453,-14,842,-33,15,9
2721,-150,-121,1027,-18,-50,-2
2722,333,-119,1146,4,-73,0
2723,457,-43,1086,21,-25,2
2724,158,68,991,12,37,6
2725,-264,77,876,-15,60,18
2726,-473,-2,838,-27,24,12
2727,-214,-105,990,-21,-42,-2
2728,286,-125,1133,3,-75,-2
2729,461,-50,1097,18,-34,3
2730,221,54,1008,15,29,4
2731,-207,86,906,-8,60,19
2732,-477,19,831,-33,33,15
2733,-269,-98,962,-21,-33,-3
2734,215,-138,1124,0,-73,-3
2735,456,-66,1094,14,-41,4
2736,286,40,1018,21,20,3
2737,-155,90,914,-5,60,15
2738,-461,25,835,-26,40,17
2739,-317,-80,949,-25,-25,0
2740,147,-128,1105,-4,-72,-4
2741,456,-76,1106,16,-49,2
2742,330,25,1015,15,14,2
2743,-95,89,920,0,57,13
2744,-430,32,848,-24,46,18
2745,-374,-60,930,-26,-14,0
2746,82,-137,1093,-5,-70,-5
2747,444,-90,1124,15,-57,3
2748,362,22,1025,22,5,2
2749,-21,86,937,3,53,11
2750,-412,58,853,-26,52,18
2751,-413,-48,899,-26,-4,3
2752,15,-139,1093,-14,-65,-5
2753,406,-105,1135,15,-62,3
2754,402,-7,1042,19,-6,2
2755,35,87,944,4,50,11
2756,-374,69,853,-17,55,20
2757,-436,-29,878,-30,7,6
2758,-63,-122,1061,-15,-58,-3
2759,378,-125,1142,7,-68,1
2760,431,-15,1069,18,-14,2
2761,89,72,959,10,45,10
2762,-325,70,852,-18,57,19
2763,-458,-16,847,-29,15,8
2764,-131,-121,1040,-14,-53,-4
2765,343,-126,1136,5,-71,2
2766,453,-23,1080,22,-23,4
2767,147,77,993,10,40,7
2768,-275,78,873,-15,59,18
2769,-473,9,837,-28,24,10
2770,-195,-127,993,-27,-45,-4
2771,298,-135,1134,7,-74,0
2772,457,-47,1099,21,-30,2
2773,206,48,1002,12,32,6
2774,-229,95,902,-3,60,18
2775,-479,19,835,-33,32,13
2776,-252,-95,967,-21,-36,-2
2777,236,-127,1126,0,-75,-1
2778,467,-59,1091,13,-38,3
2779,267,46,1018,17,24,4
2780,-177,74,917,-10,59,15
2781,-471,24,834,-27,40,16
2782,-314,-91,943,-25,-27,-1
2783,173,-151,1104,-5,-74,-3
2784,459,-65,1104,23,-47,3
2785,321,37,1019,17,15,2
2786,-113,88,915,-1,58,14
2787,-452,51,858,-22,46,15
2788,-351,-75,926,-33,-17,2
2789,99,-132,1100,-3,-71,-3
2790,450,-96,1109,12,-56,2
2791,356,13,1028,20,7,2
2792,-46,84,930,1,55,12
2793,-419,53,848,-24,49,19
2794,-404,-54,912,-28,-7,4
2795,35,-131,1091,-9,-68,-4
2796,422,-96,1136,12,-61,3
2797,389,7,1034,21,-3,1
2798,13,91,947,1,50,9
2799,-387,63,854,-20,54,19
2800,-431,-47,876,-30,2,4
2801,-39,-134,1074,-13,-61,-4
2802,393,-122,1137,12,-67,2
2803,429,-15,1060,22,-11,2
2804,60,88,956,10,47,9
2805,-339,81,853,-19,55,20
2806,-450,-14,861,-29,11,8
2807,-108,-124,1037,-18,-55,-3
2808,358,-126,1141,3,-72,1
2809,448,-34,1083,19,-20,2
2810,124,63,983,11,41,6
2811,-293,82,869,-16,58,20
2812,-471,-2,836,-29,20,11
2813,-179,-114,1003,-20,-49,-4
2814,320,-133,1139,4,-74,0
2815,459,-41,1093,22,-27,1
2816,192,71,1004,13,35,4
2817,-247,83,888,-14,60,18
2818,-481,10,840,-31,28,12
2819,-236,-98,976,-22,-40,-2
2820,254,-144,1126,0,-76,-1
2821,463,-65,1089,16,-35,3
2822,253,52,1021,19,26,4
2823,-195,80,907,-8,61,17
2824,-473,23,838,-26,35,15
2825,-296,-81,949,-20,-29,-3
2826,195,-139,1118,-3,-76,-1
2827,460,-68,1094,18,-44,3
2828,304,47,1018,18,18,2
2829,-130,74,915,-9,59,15
2830,-456,41,850,-24,42,17
2831,-339,-70,936,-30,-22,-1
2832,121,-154,1091,-5,-72,-2
2833,450,-77,1112,19,-52,2
2834,346,22,1027,16,9,3
2835,-64,86,923,4,57,14
2836,-427,67,857,-24,49,18
2837,-388,-64,911,-30,-11,2
2838,58,-141,1098,-8,-69,-3
2839,427,-91,1128,11,-58,3
2840,380,4,1035,19,0,2
2841,-1,84,939,2,52,11
2842,-397,67,853,-22,53,20
2843,-426,-45,890,-29,0,4
2844,-12,-141,1079,-16,-64,-4
2845,398,-109,1142,15,-64,2
2846,420,-7,1053,19,-8,2
2847,47,87,947,6,49,9
2848,-358,78,856,-18,56,19
2849,-442,-27,865,-34,8,8
2850,-98,-130,1043,-14,-56,-4
2851,374,-123,1139,9,-71,0
2852,448,-31,1076,16,-18,4
2853,107,71,976,15,44,8
2854,-305,85,862,-20,58,19
2855,-467,-9,836,-31,18,11
2856,-162,-109,1017,-18,-49,-3
2857,332,-127,1139,2,-73,-1
2858,462,-38,1089,21,-27,2
2859,172,63,1001,9,37,6
2860,-254,84,888,-13,61,19
2861,-479,7,830,-32,26,12
2862,-227,-104,973,-23,-40,-2
2863,272,-146,1128,3,-75,-1
2864,463,-54,1099,19,-35,2
2865,237,53,1016,16,28,6
2866,-205,89,909,-9,61,18
2867,-484,28,832,-31,34,14
2868,-272,-91,958,-24,-32,-1
2869,201,-137,1121,-3,-73,-2
2870,467,-75,1087,14,-43,1
2871,290,40,1020,22,22,3
2872,-152,89,918,-8,60,15
2873,-462,29,843,-22,39,17
2874,-331,-68,936,-27,-23,1
2875,149,-145,1098,-5,-73,-3
2876,461,-82,1108,17,-50,1
2877,338,37,1023,20,12,2
2878,-94,86,925,-1,57,14
2879,-443,48,853,-25,46,16
2880,-377,-62,917,-29,-15,2
2881,78,-146,1094,-8,-71,-4
2882,451,-102,1121,13,-57,3
2883,368,23,1036,25,4,2
2884,-23,87,939,1,54,12
2885,-418,66,849,-22,53,18
2886,-424,-39,890,-29,-5,2
2887,19,-147,1090,-15,-67,-4
2888,412,-110,1135,15,-63,3
2889,410,-5,1054,19,-5,2
2890,26,76,946,4,51,10
2891,-379,83,854,-14,55,19
2892,-441,-25,869,-32,5,5
2893,-67,-137,1047,-15,-60,-1
2894,391,-121,1140,9,-70,2
2895,443,-15,1073,20,-13,1
2896,89,69,973,10,47,9
2897,-330,92,862,-16,60,19
2898,-469,-13,834,-30,15,9
2899,-137,-123,1023,-17,-52,-4
2900,352,-129,1142,2,-73,1
2901,469,-47,1080,23,-24,2
2902,150,78,1001,15,40,5
2903,-275,81,879,-16,61,19
2904,-488,5,836,-29,26,11
2905,-211,-102,988,-23,-44,-5
2906,299,-142,1127,3,-76,0
2907,474,-44,1098,21,-32,3
2908,221,48,1006,15,33,4
2909,-225,89,908,-9,61,19
2910,-490,23,837,-31,33,16
2911,-268,-100,959,-24,-36,-2
2912,228,-135,1121,2,-75,-2
2913,479,-67,1093,14,-41,3
2914,278,49,1018,19,24,5
2915,-172,87,922,-9,62,16
2916,-475,28,837,-27,39,16
2917,-320,-77,939,-27,-25,-1
2918,166,-151,1098,-6,-74,-2
2919,464,-77,1105,19,-49,2
2920,329,30,1021,16,16,3
2921,-110,96,919,1,59,15
2922,-446,51,849,-26,46,18
2923,-371,-66,925,-29,-16,2
2924,102,-143,1101,-6,-72,-3
2925,455,-108,1119,13,-56,3
2926,362,32,1028,25,7,2
2927,-41,79,940,-3,56,12
2928,-429,60,844,-23,51,18
2929,-415,-46,901,-26,-8,3
2930,29,-156,1086,-16,-67,-3
2931,425,-108,1136,16,-63,3
2932,401,7,1047,23,-4,1
2933,16,83,947,5,52,10
2934,-385,81,853,-16,55,19
2935,-446,-31,870,-34,4,5
2936,-49,-140,1050,-15,-61,-4
2937,391,-123,1148,11,-68,2
2938,433,-15,1068,20,-12,1
2939,83,76,966,12,46,10
2940,-343,81,858,-17,60,18
2941,-458,-9,839,-28,13,8
2942,-124,-125,1032,-16,-53,-2
2943,354,-127,1138,7,-71,0
2944,458,-29,1084,21,-23,0
2945,138,61,997,12,41,7
2946,-283,91,877,-13,61,18
2947,-480,-1,831,-32,23,11
2948,-189,-119,992,-22,-47,-2
2949,307,-122,1141,7,-73,0
2950,467,-49,1090,18,-29,1
2951,206,61,1009,15,33,5
2952,-239,86,900,-10,61,18
2953,-485,21,837,-31,30,12
2954,-246,-100,965,-23,-38,-2
2955,242,-135,1125,0,-74,0
2956,477,-66,1092,14,-38,2
2957,263,39,1014,18,26,4
2958,-187,89,916,-7,62,17
2959,-477,36,837,-28,38,16
2960,-306,-82,940,-25,-30,0
2961,180,-135,1112,-6,-74,-1
2962,477,-80,1102,18,-46,3
2963,319,36,1017,17,19,4
2964,-123,94,920,-4,60,17
2965,-461,41,842,-27,44,18
2966,-358,-67,930,-30,-19,1
2967,111,-144,1100,-5,-72,-3
2968,467,-99,1117,13,-55,4
2969,356,22,1029,22,9,3
2970,-59,93,932,3,58,12
2971,-432,62,854,-26,50,19
2972,-407,-54,898,-29,-8,4
2973,43,-144,1089,-11,-68,-5
2974,439,-118,1134,11,-61,3
2975,385,4,1043,22,0,2
2976,9,93,951,2,52,10
2977,-399,76,858,-20,54,19
2978,-439,-36,863,-31,2,4
2979,-29,-143,1062,-15,-64,-4
2980,397,-127,1142,14,-68,2
2981,427,-10,1066,21,-11,0
2982,56,82,965,11,48,8
2983,-340,83,860,-19,56,18
2984,-452,-10,844,-31,10,8
2985,-106,-131,1030,-15,-57,-5
2986,372,-130,1145,10,-71,1
2987,441,-28,1075,22,-18,1
2988,117,67,992,14,41,4
2989,-298,88,877,-15,56,19
2990,-466,1,827,-27,18,11
2991,-163,-118,1008,-21,-50,-5
2992,329,-140,1128,7,-73,-1
2993,457,-34,1091,24,-27,2
2994,170,60,1008,11,36,3
2995,-256,91,893,-6,59,17
2996,-480,23,839,-31,25,12
2997,-219,-107,969,-24,-42,-1
2998,272,-146,1121,2,-75,-2
2999,467,-58,1101,20,-35,1
3000,244,46,1015,20,29,4
3001,-209,95,915,-8,60,15
3002,-481,35,831,-31,34,13
3003,-286,-94,950,-24,-32,-1
3004,208,-143,1116,-3,-75,-1
3005,475,-68,1093,19,-43,3
3006,304,37,1023,18,21,2
3007,-148,93,913,-3,61,14
3008,-464,46,850,-25,42,18
3009,-344,-85,928,-32,-20,1
3010,128,-146,1095,-4,-73,-2
3011,471,-91,1115,16,-52,2
3012,348,26,1029,19,13,3
3013,-71,94,931,5,59,12
3014,-433,60,847,-25,49,19
3015,-407,-53,902,-29,-8,4
3016,62,-142,1095,-11,-70,-3
3017,438,-102,1137,10,-60,4
3018,388,-6,1034,21,2,1
3019,-1,89,956,5,54,10
3020,-406,66,844,-21,55,20
3021,-435,-39,876,-28,0,5
3022,-24,-127,1074,-13,-64,-3
3023,408,-111,1144,10,-68,4
3024,419,-8,1063,20,-9,1
3025,52,82,956,7,49,9
3026,-348,76,858,-17,57,21
3027,-452,-24,846,-34,10,9
3028,-101,-135,1036,-13,-58,-5
3029,372,-134,1141,7,-71,2
3030,443,-30,1077,22,-18,3
3031,105,83,988,17,42,4
3032,-301,83,867,-18,56,17
3033,-465,-2,827,-28,18,11
3034,-155,-114,1015,-18,-51,-4
3035,333,-135,1131,5,-72,1
3036,456,-44,1093,22,-25,2
3037,161,63,1010,15,37,3
3038,-255,75,883,-12,58,18
3039,-481,13,833,-19,28,13
3040,-218,-101,972,-26,-43,-3
3041,286,-133,1135,6,-76,-1
3042,464,-60,1098,18,-31,2
3043,237,63,1012,19,31,2
3044,-217,86,911,-11,60,16
3045,-486,16,828,-31,34,14
3046,-275,-85,959,-22,-32,0
3047,214,-145,1117,-2,-76,-2
3048,478,-69,1091,17,-43,3
3049,295,48,1027,23,23,3
3050,-151,78,912,-10,60,15
3051,-469,43,846,-19,42,17
3052,-343,-72,929,-31,-24,0
3053,149,-142,1104,-4,-75,-2
3054,468,-79,1111,16,-52,3
3055,346,33,1023,17,13,2
3056,-85,75,923,-2,60,14
3057,-442,57,853,-24,49,18
3058,-393,-63,905,-30,-12,3
3059,75,-142,1103,-7,-71,-3
3060,438,-87,1126,13,-58,2
3061,389,5,1034,20,2,3
3062,-16,94,949,4,55,11
3063,-414,71,847,-24,55,19
3064,-425,-47,883,-30,-1,6
3065,-2,-136,1082,-15,-65,-2
3066,415,-116,1140,11,-65,2
3067,416,-6,1061,20,-5,1
3068,38,75,951,5,51,10
3069,-374,79,854,-17,56,20
3070,-447,-27,854,-33,7,8
3071,-84,-128,1043,-13,-59,-3
3072,386,-118,1148,8,-70,3
3073,448,-30,1072,16,-16,5
3074,91,77,984,13,45,6
3075,-319,87,864,-18,57,19
3076,-462,-16,828,-31,16,11
3077,-151,-121,1014,-18,-52,-4
3078,346,-125,1145,7,-74,1
3079,460,-47,1082,21,-24,3
3080,153,71,1004,14,39,4
3081,-266,86,890,-12,59,18
3082,-480,3,826,-29,25,12
3083,-209,-102,982,-24,-45,-1
3084,295,-131,1135,4,-77,1
3085,461,-58,1097,16,-32,0
3086,217,58,1012,18,31,2
3087,-222,80,908,-11,59,16
3088,-483,11,826,-30,31,13
3089,-263,-88,958,-18,-37,-2
3090,228,-136,1128,-3,-76,0
3091,468,-67,1093,17,-40,1
3092,275,52,1019,20,23,0
3093,-168,86,917,-8,59,15
3094,-471,33,830,-27,39,16
3095,-316,-78,937,-28,-27,-2
3096,165,-144,1106,-3,-76,-2
3097,468,-83,1110,19,-48,4
3098,326,41,1031,19,16,2
3099,-108,84,911,-5,60,14
3100,-451,50,842,-24,46,18
3101,-369,-60,918,-29,-17,2
3102,104,-146,1105,-7,-72,-2
3103,452,-95,1119,11,-55,2
3104,363,22,1037,22,6,1
3105,-48,83,938,0,57,10
3106,-420,69,850,-24,51,19
3107,-413,-46,891,-31,-7,5
3108,36,-145,1087,-15,-68,-2
3109,429,-115,1136,10,-61,3
3110,396,7,1056,21,-3,1
3111,7,81,945,1,53,10
3112,-388,78,856,-17,54,20
3113,-440,-26,861,-35,4,6
3114,-42,-133,1053,-17,-64,-2
3115,401,-124,1146,9,-68,2
3116,438,-18,1068,17,-12,1
3117,61,76,974,10,49,8
3118,-348,77,858,-19,56,19
3119,-456,-7,835,-33,11,9
3120,-122,-128,1026,-19,-55,-2
3121,369,-136,1139,4,-73,1
3122,454,-27,1086,24,-21,2
3123,123,58,995,9,42,4
3124,-291,91,886,-12,56,19
3125,-478,10,826,-28,21,10
3126,-179,-118,989,-24,-49,-3
3127,320,-130,1140,6,-75,1
3128,459,-52,1088,20,-28,-1
3129,192,53,1012,16,35,2
3130,-253,94,905,-9,60,18
3131,-481,12,834,-33,28,13
3132,-241,-95,965,-21,-38,-2
3133,257,-148,1121,-1,-77,0
3134,474,-68,1092,19,-38,2
3135,251,50,1019,20,28,2
3136,-191,91,917,-7,60,17
3137,-482,36,831,-27,36,16
3138,-299,-89,947,-25,-31,0
3139,192,-137,1114,-5,-76,-1
3140,476,-81,1098,20,-46,2
3141,311,31,1021,18,20,0
3142,-135,92,919,1,60,14
3143,-456,43,847,-26,42,18
3144,-353,-64,926,-29,-22,2
3145,126,-146,1097,-4,-74,-3
3146,460,-91,1120,13,-52,2
3147,354,13,1028,21,9,0
3148,-67,100,940,3,59,12
3149,-436,50,840,-28,49,18
3150,-398,-45,900,-25,-10,3
3151,59,-137,1101,-11,-70,-2
3152,437,-120,1130,9,-60,2
3153,387,8,1046,25,2,0
3154,-2,84,943,2,54,11
3155,-405,73,847,-15,54,18
3156,-435,-23,878,-30,0,3
3157,-20,-142,1061,-16,-64,-2
3158,409,-121,1146,13,-67,2
3159,434,-12,1067,21,-8,0
3160,56,75,966,10,51,10
3161,-358,81,853,-16,58,19
3162,-459,-13,842,-31,9,7
3163,-112,-125,1034,-16,-57,-3
3164,384,-137,1140,8,-73,1
3165,457,-15,1082,24,-19,1
3166,127,59,994,10,43,4
3167,-303,85,875,-14,61,19
3168,-487,5,824,-27,21,10
3169,-178,-119,1000,-22,-49,-3
3170,325,-123,1137,8,-75,1
3171,475,-45,1095,21,-29,1
3172,196,60,1012,13,36,5
3173,-255,84,894,-9,62,19
3174,-491,9,822,-31,31,13
3175,-246,-98,977,-22,-40,-2
3176,263,-139,1131,1,-78,0
3177,483,-55,1094,18,-38,3
3178,255,50,1015,19,28,2
3179,-197,86,914,-8,61,16
3180,-488,38,832,-30,38,16
3181,-300,-93,947,-26,-30,0
3182,193,-140,1114,-6,-77,-1
3183,474,-75,1096,19,-46,3
3184,314,32,1023,17,19,2
3185,-134,96,920,-4,60,14
3186,-467,42,841,-25,44,17
3187,-355,-69,927,-30,-21,1
3188,127,-139,1098,-5,-74,-1
3189,467,-88,1120,14,-54,3
3190,357,23,1028,20,11,0
3191,-71,86,931,-1,58,13
3192,-439,57,843,-27,49,18
3193,-403,-64,898,-28,-10,4
3194,64,-138,1105,-7,-70,-1
3195,445,-94,1133,11,-60,4
3196,391,7,1036,21,2,1
3197,-9,97,955,2,54,10
3198,-405,62,847,-23,53,20
3199,-439,-34,879,-31,0,6
3200,-10,-141,1067,-18,-67,-4
3201,419,-121,1142,11,-66,4
3202,420,-15,1058,19,-6,2
3203,44,80,960,9,50,9
3204,-366,84,858,-17,56,20
3205,-454,-16,849,-33,7,7
3206,-84,-130,1039,-16,-59,-3
3207,381,-131,1143,4,-71,2
3208,446,-26,1073,23,-16,1
3209,100,73,990,11,44,6
3210,-319,78,863,-18,57,18
3211,-465,0,832,-29,15,10
3212,-156,-117,1012,-20,-50,-1
3213,343,-146,1133,2,-74,1
3214,460,-36,1093,26,-26,1
3215,160,72,1002,12,38,3
3216,-262,83,882,-11,58,18
3217,-479,19,840,-29,24,12
3218,-216,-103,978,-23,-44,-5
3219,294,-142,1129,4,-77,-2
3220,462,-57,1095,15,-32,2
3221,228,50,1012,18,30,2
3222,-217,87,914,-7,61,18
3223,-486,30,832,-31,33,15
3224,-265,-93,953,-24,-34,-3
3225,220,-140,1121,-2,-75,-2
3226,474,-63,1092,18,-41,3
3227,281,48,1024,17,24,2
3228,-168,79,908,-10,60,14
3229,-465,41,848,-24,38,18
3230,-323,-82,933,-32,-25,0
3231,163,-151,1100,-5,-74,-2
3232,469,-84,1107,19,-48,3
3233,327,34,1030,19,15,3
3234,-102,95,924,-1,59,14
3235,-445,62,848,-27,46,20
3236,-377,-67,909,-34,-14,3
3237,92,-147,1103,-8,-72,-4
3238,453,-103,1128,12,-57,3
3239,369,5,1035,22,6,3
3240,-34,88,944,2,57,12
3241,-421,72,847,-22,52,19
3242,-417,-50,882,-29,-4,6
3243,9,-130,1084,-13,-66,-4
3244,421,-117,1137,12,-64,1
3245,404,-8,1059,21,-5,2
3246,28,89,955,6,50,8
3247,-373,72,848,-17,56,21
3248,-441,-24,853,-33,5,8
3249,-69,-132,1048,-13,-59,-4
3250,383,-132,1151,11,-68,0
3251,440,-30,1066,23,-14,2
3252,74,80,985,14,45,6
3253,-321,77,857,-17,56,17
3254,-460,-8,836,-27,13,10
3255,-135,-115,1024,-16,-52,-4
3256,358,-130,1135,6,-73,0
3257,451,-34,1085,23,-22,0
3258,146,73,1012,14,40,4
3259,-277,82,882,-15,58,20
3260,-482,6,826,-28,21,12
3261,-199,-109,986,-22,-46,-4
3262,303,-143,1133,5,-75,0
3263,470,-54,1100,20,-30,2
3264,211,65,1011,21,32,3
3265,-230,88,909,-10,60,17
3266,-486,20,831,-32,32,15
3267,-259,-92,957,-23,-37,-2
3268,236,-140,1122,0,-77,-2
3269,477,-74,1090,16,-39,3
3270,276,47,1027,20,25,2
3271,-173,82,915,-8,61,16
3272,-475,28,828,-25,39,17
3273,-320,-72,943,-24,-26,0
3274,168,-144,1103,-7,-75,-3
3275,476,-80,1107,22,-49,3
3276,325,37,1024,16,17,2
3277,-108,80,919,-1,60,13
3278,-452,55,853,-24,46,18
3279,-375,-71,906,-29,-17,3
3280,94,-146,1102,-4,-72,-2
3281,455,-94,1123,14,-56,2
3282,373,14,1036,22,5,2
3283,-37,81,938,5,57,11
3284,-419,69,844,-20,52,18
3285,-420,-45,892,-28,-7,5
3286,22,-135,1090,-12,-69,-3
3287,423,-100,1137,12,-63,3
3288,406,-1,1056,20,-5,1
3289,22,76,947,2,52,9
3290,-386,64,852,-19,55,19
3291,-447,-27,861,-30,4,5
3292,-52,-133,1058,-13,-62,-4
3293,393,-119,1146,11,-70,2
3294,446,-15,1074,20,-12,0
3295,70,80,968,11,48,6
3296,-338,85,855,-18,57,19
3297,-465,-12,841,-32,13,9
3298,-128,-120,1031,-18,-57,-4
3299,372,-124,1142,3,-74,3
3300,458,-37,1089,19,-21,2
3301,140,59,992,10,41,4
3302,-293,91,882,-15,61,20
3303,-486,0,823,-32,23,12
3304,-192,-107,993,-23,-48,-4
3305,314,-133,1141,3,-77,1
3306,481,-50,1091,18,-32,4
3307,200,66,1016,14,36,4
3308,-240,92,900,-14,62,16
3309,-485,9,825,-36,32,16
3310,-263,-101,959,-24,-37,-1
3311,247,-139,1127,2,-76,0
3312,473,-75,1095,13,-39,4
3313,267,56,1024,21,26,3
3314,-178,94,914,-10,60,15
3315,-476,26,828,-30,38,17
3316,-317,-74,936,-27,-27,-1
3317,175,-153,1113,-8,-76,-1
3318,460,-85,1098,17,-47,3
3319,317,40,1029,19,17,0
3320,-112,78,919,-6,58,13
3321,-443,47,849,-23,42,17
3322,-360,-68,914,-28,-18,0
3323,109,-141,1106,-5,-72,-2
3324,441,-95,1117,12,-54,2
3325,353,27,1034,20,7,0
3326,-49,92,934,3,54,11
3327,-422,54,843,-28,48,19
3328,-396,-50,903,-28,-9,3
3329,50,-154,1096,-13,-69,-4
3330,420,-114,1133,14,-59,2
3331,378,14,1041,25,0,-1
3332,5,88,947,1,50,10
3333,-391,87,856,-17,51,20
3334,-425,-32,873,-33,0,5
3335,-27,-144,1062,-17,-62,-3
3336,401,-124,1142,11,-67,2
3337,417,-10,1071,18,-10,0
3338,50,72,957,8,48,7
3339,-348,88,859,-17,55,19
3340,-437,-18,848,-33,8,8
3341,-101,-137,1028,-15,-55,-4
3342,367,-129,1146,7,-69,-1
3343,444,-28,1075,20,-18,3
3344,108,79,995,12,43,6
3345,-299,86,865,-17,58,18
3346,-461,1,833,-29,18,12
3347,-166,-119,1008,-24,-48,-3
3348,327,-138,1129,4,-72,0
3349,458,-48,1093,20,-26,2
3350,172,57,1001,11,37,4
3351,-253,90,902,-8,59,18
3352,-477,15,835,-33,28,15
3353,-223,-113,964,-21,-41,0
3354,270,-132,1129,5,-74,-1
3355,462,-64,1092,16,-33,1
3356,239,47,1016,20,29,4
3357,-206,108,926,-8,60,17
3358,-470,23,823,-34,34,15
3359,-289,-91,947,-25,-31,-1
3360,200,-148,1112,-3,-75,-3
3361,465,-88,1099,17,-44,3
3362,290,43,1024,25,21,1
3363,-136,90,920,-3,58,15
3364,-453,42,841,-24,41,19
3365,-339,-64,931,-26,-22,1
3366,135,-138,1099,-2,-72,-5
3367,456,-93,1116,16,-51,3
3368,337,32,1030,21,10,1
3369,-73,90,929,0,56,15
3370,-432,58,849,-25,48,19
3371,-390,-63,902,-29,-12,2
3372,68,-147,1098,-9,-70,-5
3373,438,-108,1131,13,-59,3
3374,378,8,1039,23,3,1
3375,-2,97,948,5,54,12
3376,-404,79,851,-20,51,20
3377,-428,-36,878,-25,1,4
3378,-11,-138,1074,-24,-65,-6
3379,410,-127,1140,17,-65,3
3380,420,-10,1064,12,-6,1
3381,45,83,953,9,50,9
3382,-355,84,860,-19,57,23
3383,-451,-24,846,-37,11,9
3384,-92,-135,1035,-16,-57,-3
3385,370,-129,1146,6,-69,1
3386,449,-34,1070,20,-16,2
3387,104,87,997,12,44,7
3388,-299,89,866,-20,58,20
3389,-464,5,825,-33,19,12
3390,-165,-120,1007,-20,-47,-5
3391,324,-150,1136,-1,-74,-1
3392,451,-44,1094,25,-25,2
3393,171,56,1005,10,36,5
3394,-250,94,898,-9,59,21
3395,-475,11,827,-33,27,14
3396,-216,-110,976,-23,-41,-5
3397,264,-132,1130,4,-72,-2
3398,452,-67,1089,14,-34,3
3399,224,64,1022,22,27,4
3400,-203,102,914,-12,57,19
3401,-464,24,829,-33,32,17
3402,-264,-96,953,-26,-32,-2
3403,210,-154,1122,-5,-74,-4
3404,452,-79,1087,15,-41,0
3405,278,42,1021,19,20,1
3406,-154,101,917,-6,57,16
3407,-452,51,839,-26,37,19
3408,-312,-86,938,-34,-25,1
3409,150,-141,1101,-5,-72,-4
3410,452,-90,1108,13,-48,0
3411,321,22,1026,16,15,2
3412,-98,104,929,-1,56,16
3413,-426,59,848,-29,43,19
3414,-354,-74,915,-30,-16,2
3415,91,-144,1091,-9,-68,-5
3416,435,-103,1126,9,-53,1
3417,344,8,1037,20,6,0
3418,-37,107,949,4,54,11
3419,-403,71,847,-29,48,21
3420,-398,-49,880,-29,-6,4
3421,24,-149,1079,-14,-65,-7
3422,411,-129,1137,10,-60,1
3423,385,-7,1062,20,-2,2
3424,14,91,952,5,50,10
3425,-367,89,856,-17,51,22
3426,-422,-32,859,-35,3,7
3427,-61,-146,1042,-14,-58,-8
3428,380,-139,1139,9,-68,-1
3429,417,-21,1075,20,-13,2
3430,70,89,985,14,44,8
3431,-312,83,862,-20,52,22
3432,-444,-6,834,-29,13,11
3433,-125,-129,1021,-18,-52,-7
3434,341,-154,1130,4,-70,-2
3435,432,-33,1083,30,-22,4
3436,140,77,1005,12,37,9
3437,-263,98,888,-12,55,22
3438,-460,21,841,-29,22,15
3439,-188,-124,981,-25,-44,-5
3440,288,-154,1125,4,-72,-2
3441,441,-60,1090,23,-30,0
3442,203,62,1011,21,30,6
3443,-220,98,911,-8,57,22
3444,-461,25,845,-31,28,15
3445,-244,-98,959,-20,-34,-4
3446,225,-147,1122,-1,-73,-5
3447,452,-70,1084,16,-39,3
3448,258,57,1020,21,25,4
3449,-163,98,918,-9,56,19
3450,-453,43,840,-27,35,19
3451,-301,-95,950,-27,-25,-3
3452,159,-157,1102,-4,-70,-5
3453,447,-90,1098,16,-47,4
3454,313,38,1020,21,14,2
3455,-105,100,917,0,55,15
3456,-434,59,856,-25,42,20
3457,-348,-73,924,-32,-19,2
3458,95,-151,1101,-3,-68,-6
3459,430,-96,1116,13,-52,-1
3460,350,20,1033,20,5,4
3461,-45,102,936,2,54,14
3462,-405,73,843,-27,47,21
3463,-392,-65,900,-30,-7,3
3464,35,-154,1094,-13,-65,-7
3465,403,-115,1136,12,-61,1
3466,379,-2,1047,23,-2,2
3467,19,100,945,4,48,14
3468,-378,96,857,-19,52,23
3469,-412,-44,874,-36,2,6
3470,-45,-141,1050,-14,-58,-5
3471,373,-128,1141,11,-65,-1
3472,422,-20,1071,19,-12,3
3473,60,95,972,12,46,12
3474,-324,86,857,-20,52,23
3475,-434,-18,852,-35,12,10
3476,-114,-131,1026,-15,-51,-6
3477,344,-137,1127,-1,-68,0
3478,432,-38,1083,21,-20,4
3479,123,79,993,12,41,8
3480,-274,91,884,-16,55,23
3481,-448,-5,842,-31,20,14
3482,-179,-122,989,-20,-43,-6
3483,299,-146,1126,6,-70,-2
3484,441,-48,1089,22,-28,4
3485,182,73,1000,14,32,7
3486,-226,95,917,-9,57,21
3487,-459,9,837,-33,29,16
3488,-239,-107,968,-18,-35,-6
3489,241,-157,1116,0,-72,-5
3490,446,-65,1087,19,-35,3
3491,253,59,1016,24,26,4
3492,-171,95,918,-7,58,20
3493,-457,43,845,-25,37,19
3494,-295,-94,942,-26,-27,-3
3495,169,-153,1115,-4,-71,-6
3496,444,-77,1093,19,-45,3
3497,314,40,1015,18,16,5
3498,-112,104,928,-2,57,17
3499,-426,46,839,-27,44,21
3500,-352,-74,936,-28,-16,1
3501,93,-156,1096,-5,-68,-8
3502,429,-97,1118,14,-54,2
3503,344,34,1028,21,6,4
3504,-39,103,922,-1,52,15
3505,-403,56,853,-30,48,21
3506,-386,-54,909,-26,-7,3
3507,37,-159,1098,-12,-65,-8
3508,396,-113,1127,12,-57,0
3509,378,12,1040,23,-2,4
3510,10,96,949,4,49,13
3511,-371,85,843,-20,50,22
3512,-410,-43,886,-31,2,5
3513,-29,-144,1067,-15,-59,-8
3514,378,-122,1144,11,-63,1
3515,397,-17,1060,20,-9,2
3516,65,86,955,7,44,11
3517,-340,91,862,-18,53,22
3518,-429,-24,852,-34,8,8
3519,-100,-138,1037,-15,-53,-7
3520,349,-130,1140,6,-68,-2
3521,431,-27,1074,18,-18,3
3522,109,84,988,12,40,10
3523,-283,90,870,-20,55,22
3524,-447,-12,837,-33,17,12
3525,-160,-132,1004,-18,-46,-6
3526,311,-134,1129,5,-70,-3
3527,439,-51,1087,21,-26,1
3528,167,76,1011,14,35,6
3529,-239,97,894,-12,55,22
3530,-453,9,837,-31,24,16
3531,-221,-112,974,-22,-39,-6
3532,262,-141,1122,3,-72,-5
3533,442,-55,1094,17,-32,4
3534,224,67,1008,18,27,6
3535,-195,94,916,-10,56,19
3536,-454,12,842,-34,32,18
3537,-258,-107,958,-22,-31,-3
3538,194,-150,1110,-1,-70,-6
3539,445,-83,1081,17,-39,3
3540,267,67,1025,24,20,3
3541,-143,100,913,-9,55,16
3542,-433,33,849,-25,38,20
3543,-312,-78,944,-27,-23,-2
3544,152,-161,1102,-6,-69,-7
3545,432,-90,1104,17,-45,1
3546,313,35,1011,22,14,5
3547,-95,99,923,-2,55,18
3548,-420,59,857,-23,42,19
3549,-349,-74,920,-29,-15,1
3550,89,-151,1104,-3,-67,-6
3551,425,-110,1109,10,-53,1
3552,347,33,1039,26,5,4
3553,-39,99,940,-2,53,15
3554,-400,75,846,-25,45,20
3555,-388,-49,900,-29,-8,4
3556,30,-165,1080,-13,-63,-7
3557,407,-120,1142,15,-59,0
3558,378,2,1050,25,-2,3
3559,16,91,946,5,50,14
3560,-375,88,855,-18,52,23
3561,-420,-25,865,-34,2,6
3562,-46,-144,1057,-13,-58,-7
3563,374,-130,1148,10,-64,-2
3564,426,-14,1067,18,-12,3
3565,71,75,967,10,45,12
3566,-327,91,863,-17,56,21
3567,-438,-17,847,-32,11,10
3568,-125,-145,1018,-15,-52,-6
3569,337,-135,1133,9,-71,-4
3570,440,-31,1074,23,-22,2
3571,135,76,1002,15,37,9
3572,-272,104,883,-12,57,20
3573,-453,4,838,-29,20,12
3574,-186,-126,993,-24,-43,-4
3575,296,-135,1129,9,-70,-4
3576,446,-55,1085,19,-28,2
3577,190,54,1012,15,32,7
3578,-229,103,907,-5,57,20
3579,-460,16,844,-32,26,15
3580,-236,-110,964,-20,-37,-4
3581,239,-134,1124,4,-72,-7
3582,451,-74,1089,14,-36,0
3583,247,53,1011,24,24,5
3584,-178,105,917,-4,57,18
3585,-462,26,835,-29,34,16
3586,-286,-100,953,-23,-29,-5
3587,175,-142,1114,-1,-72,-6
3588,452,-88,1091,19,-45,1
3589,306,47,1019,22,17,3
3590,-118,112,916,0,57,16
3591,-440,40,843,-25,43,18
3592,-351,-74,934,-28,-18,-2
3593,107,-142,1104,-6,-70,-6
3594,446,-104,1113,12,-54,1
3595,357,35,1026,23,8,4
3596,-47,96,925,1,54,15
3597,-418,48,847,-27,49,18
3598,-404,-62,908,-25,-8,2
3599,35,-145,1094,-7,-69,-7
3600,413,-107,1130,15,-60,-1
3601,393,13,1043,27,-3,1
3602,23,101,945,4,51,13
3603,-384,74,852,-24,53,21
3604,-426,-45,876,-30,1,4
3605,-44,-141,1073,-14,-61,-9
3606,380,-130,1140,12,-67,-1
3607,419,-7,1058,21,-11,3
3608,73,90,957,11,46,11
3609,-337,75,855,-14,56,20
3610,-444,-23,856,-29,11,7
3611,-113,-124,1041,-12,-54,-6
3612,347,-131,1139,7,-70,-3
3613,443,-18,1077,22,-19,2
3614,128,82,983,11,40,11
3615,-284,80,867,-20,57,20
3616,-461,-5,835,-26,20,8
3617,-174,-132,1009,-21,-47,-5
3618,299,-131,1135,5,-72,-2
3619,452,-35,1083,22,-28,2
3620,190,67,1004,12,32,8
3621,-234,96,889,-13,59,20
3622,-466,6,842,-28,27,11
3623,-236,-111,980,-23,-39,-5
3624,253,-134,1124,5,-72,-4
3625,453,-54,1096,16,-36,0
3626,246,50,1003,18,26,6
3627,-189,98,917,-6,59,19
3628,-464,9,837,-33,33,16
3629,-286,-99,958,-21,-30,-3
3630,191,-139,1121,1,-73,-7
3631,450,-66,1091,16,-43,2
3632,294,45,1015,22,19,5
3633,-132,97,914,-6,57,17
3634,-453,37,841,-28,41,18
3635,-335,-89,943,-27,-21,-3
3636,132,-145,1105,-5,-71,-5
3637,444,-85,1110,17,-51,3
3638,341,24,1014,16,10,3
3639,-76,94,910,1,55,17
3640,-425,49,851,-25,46,19
3641,-381,-63,926,-28,-13,0
3642,67,-140,1102,-4,-68,-7
3643,428,-94,1124,11,-57,2
3644,375,17,1024,19,2,3
3645,-13,95,931,2,54,13
3646,-397,55,848,-29,50,21
3647,-416,-58,905,-25,-2,4
3648,4,-137,1091,-11,-64,-7
3649,400,-117,1133,10,-64,1
3650,398,4,1048,24,-7,3
3651,44,96,940,4,48,12
3652,-369,78,857,-21,54,21
3653,-430,-33,873,-33,5,5
3654,-69,-128,1062,-14,-56,-6
3655,370,-131,1141,7,-68,-1
3656,427,-17,1063,18,-13,3
3657,84,84,962,10,44,10
3658,-314,72,858,-19,55,22
3659,-452,-16,853,-31,13,8
3660,-132,-125,1028,-15,-52,-8
3661,338,-133,1140,4,-70,-1
3662,440,-20,1080,20,-21,2
3663,147,82,986,11,38,10
3664,-273,90,877,-19,57,21
3665,-461,0,835,-30,21,10
3666,-189,-135,1006,-26,-44,-4
3667,293,-140,1133,4,-72,0
3668,456,-47,1084,20,-31,2
3669,193,64,1003,12,33,8
3670,-220,90,892,-9,58,20
3671,-473,9,850,-30,29,15
3672,-242,-107,978,-22,-37,-4
3673,245,-137,1121,3,-72,-2
3674,447,-52,1092,16,-35,2
3675,255,59,1006,16,24,5
3676,-184,86,914,-10,59,19
3677,-460,25,839,-32,35,17
3678,-284,-108,957,-24,-29,-2
3679,175,-150,1117,0,-72,-5
3680,450,-64,1094,20,-44,2
3681,294,42,1014,18,17,3
3682,-125,101,914,-3,56,17
3683,-443,46,846,-29,40,19
3684,-331,-89,940,-30,-21,0
3685,121,-149,1097,-6,-70,-6
3686,439,-92,1115,18,-50,1
3687,338,28,1018,18,9,4
3688,-72,99,918,1,55,16
3689,-419,57,855,-25,45,18
3690,-369,-75,915,-30,-12,2
3691,62,-141,1100,-5,-66,-6
3692,422,-99,1126,10,-57,1
3693,362,7,1032,22,3,4
3694,-10,103,940,3,51,14
3695,-392,71,850,-26,50,22
3696,-410,-61,892,-30,-2,3
3697,2,-147,1084,-12,-64,-7
3698,387,-118,1141,12,-61,0
3699,398,-10,1047,23,-7,2
3700,40,105,949,7,48,12
3701,-357,82,861,-19,53,20
3702,-420,-30,867,-32,7,7
3703,-78,-133,1050,-15,-56,-7
3704,359,-139,1139,8,-68,-3
3705,428,-18,1073,22,-15,3
3706,85,84,968,12,43,10
3707,-306,81,864,-17,54,20
3708,-445,-16,846,-31,15,10
3709,-135,-121,1028,-15,-50,-4
3710,327,-131,1130,3,-68,-2
3711,438,-35,1077,21,-22,2
3712,145,82,999,19,37,7
3713,-260,94,880,-15,54,19
3714,-455,-2,834,-32,21,12
3715,-192,-113,1002,-19,-42,-5
3716,286,-153,1123,0,-73,-3
3717,445,-56,1091,23,-29,2
3718,192,80,1003,18,33,6
3719,-219,83,898,-12,56,20
3720,-461,27,849,-28,29,15
3721,-231,-92,974,-24,-35,-4
3722,229,-148,1122,1,-71,-4
3723,446,-65,1090,14,-35,1
3724,247,54,1006,21,25,6
3725,-180,81,910,-11,56,18
3726,-455,27,841,-27,34,17
3727,-284,-96,960,-23,-28,-1
3728,181,-150,1111,-2,-70,-4
3729,444,-66,1093,20,-42,3
3730,296,41,1015,19,18,5
3731,-127,101,920,-2,57,16
3732,-439,50,846,-26,39,18
3733,-326,-85,933,-30,-20,1
3734,116,-151,1099,-3,-69,-5
3735,442,-98,1111,15,-52,0
3736,330,24,1029,22,11,3
3737,-69,94,922,4,55,16
3738,-419,66,847,-25,45,19
3739,-375,-64,913,-27,-13,2
3740,66,-142,1102,-6,-67,-6
3741,416,-107,1127,11,-55,-1
3742,364,11,1037,23,2,2
3743,-11,98,942,3,51,14
3744,-392,70,846,-21,50,20
3745,-408,-50,887,-29,-3,4
3746,2,-147,1084,-13,-64,-6
3747,395,-117,1136,15,-61,0
3748,397,-5,1056,22,-5,1
3749,36,90,946,6,49,12
3750,-360,93,852,-16,54,21
3751,-432,-34,873,-35,6,6
3752,-68,-130,1043,-13,-57,-6
3753,370,-130,1139,8,-66,-1
3754,430,-30,1070,23,-14,0
3755,89,83,975,13,44,10
3756,-314,94,870,-17,56,21
3757,-450,-15,835,-32,14,8
3758,-135,-123,1026,-13,-51,-4
3759,334,-136,1125,2,-70,-2
3760,449,-42,1086,22,-24,2
3761,134,72,1001,13,38,6
3762,-264,94,880,-10,56,20
3763,-464,6,841,-31,22,13
3764,-193,-110,989,-23,-44,-5
3765,300,-142,1126,3,-73,-2
3766,443,-54,1102,20,-28,1
3767,201,66,1005,16,31,6
3768,-226,94,896,-11,57,19
3769,-468,11,839,-34,28,12
3770,-236,-107,971,-22,-37,-4
3771,234,-140,1124,2,-73,-4
3772,455,-66,1084,17,-36,1
3773,251,54,1009,22,26,4
3774,-176,97,919,-9,58,18
3775,-463,34,842,-29,35,17
3776,-294,-85,953,-27,-27,-3
3777,183,-157,1105,-7,-73,-4
3778,449,-77,1096,17,-44,2
3779,305,40,1018,18,18,1
3780,-124,83,916,-3,57,16
3781,-444,56,852,-21,41,17
3782,-339,-73,933,-32,-20,-1
3783,119,-152,1090,-7,-70,-4
3784,448,-85,1116,16,-52,1
3785,336,23,1024,19,11,1
3786,-65,92,933,1,54,14
3787,-425,62,850,-27,45,20
3788,-382,-59,911,-27,-12,3
3789,66,-150,1093,-9,-67,-5
3790,420,-110,1131,11,-57,1
3791,375,5,1039,23,1,3
3792,-15,97,942,2,53,13
3793,-400,75,847,-23,50,21
3794,-411,-43,886,-32,-4,4
3795,0,-146,1081,-15,-64,-6
3796,399,-123,1138,12,-62,1
3797,405,-13,1057,20,-6,2
3798,34,82,946,8,48,9
3799,-362,95,861,-14,53,20
3800,-433,-28,863,-36,6,7
3801,-75,-135,1043,-14,-57,-7
3802,372,-124,1140,9,-67,-2
3803,437,-30,1067,18,-13,2
3804,92,83,977,14,44,9
3805,-316,87,871,-18,55,20
3806,-456,-17,843,-28,14,9
3807,-138,-123,1017,-14,-51,-5
3808,331,-137,1130,4,-70,-3
3809,454,-42,1082,24,-23,1
3810,152,78,1008,16,37,7
3811,-265,98,882,-12,58,21
3812,-467,9,844,-31,23,12
3813,-204,-114,981,-23,-41,-5
3814,293,-142,1129,5,-73,-2
3815,451,-61,1090,19,-30,2
3816,208,63,1005,18,30,4
3817,-218,91,908,-6,57,19
3818,-476,18,841,-33,30,15
3819,-247,-100,966,-20,-35,-4
3820,226,-140,1123,3,-73,-3
3821,456,-66,1083,19,-37,2
3822,267,58,1021,23,24,3
3823,-172,97,915,-11,59,17
3824,-462,42,842,-26,37,17
3825,-306,-95,947,-29,-27,-4
3826,165,-159,1102,-4,-71,-6
3827,450,-89,1099,21,-46,1
3828,320,36,1022,21,15,3
3829,-109,99,918,-1,57,17
3830,-447,57,849,-23,44,17
3831,-351,-64,932,-29,-18,0
3832,103,-143,1094,-6,-70,-5
3833,442,-95,1115,13,-53,0
3834,353,27,1032,22,7,3
3835,-50,86,924,0,54,15
3836,-422,54,855,-27,48,19
3837,-390,-58,909,-26,-10,3
3838,48,-149,1092,-11,-66,-4
3839,418,-109,1127,15,-58,-1
3840,384,14,1044,25,0,1
3841,3,91,942,4,52,13
3842,-390,83,856,-18,52,21
3843,-426,-30,884,-31,1,5
3844,-22,-145,1059,-18,-62,-5
3845,391,-124,1141,14,-63,0
3846,420,-11,1067,18,-8,0
3847,52,75,955,8,48,11
3848,-351,82,854,-16,55,21
3849,-448,-21,857,-33,10,8
3850,-90,-136,1040,-14,-55,-4
3851,363,-120,1138,7,-69,-1
3852,450,-33,1069,20,-17,1
3853,108,87,991,14,43,9
3854,-308,98,870,-19,58,19
3855,-462,-6,843,-34,17,11
3856,-155,-121,1007,-22,-49,-3
3857,324,-139,1123,3,-72,-2
3858,458,-55,1087,20,-25,2
3859,166,60,1004,13,36,8
3860,-253,101,899,-6,57,20
3861,-479,16,837,-31,26,13
3862,-213,-114,973,-23,-43,-4
3863,267,-122,1129,5,-74,-2
3864,468,-69,1093,13,-33,3
3865,229,59,1010,20,30,5
3866,-210,94,909,-10,59,16
3867,-468,12,837,-34,33,16
3868,-272,-93,959,-23,-33,0
3869,205,-145,1116,-1,-74,-4
3870,460,-82,1091,15,-42,2
3871,287,51,1014,24,21,5
3872,-153,101,917,-8,58,16
3873,-449,36,841,-27,39,17
3874,-320,-75,946,-29,-24,-2
3875,141,-152,1099,-7,-70,-6
3876,455,-98,1107,18,-50,1
3877,320,40,1018,17,12,4
3878,-88,91,918,0,56,14
3879,-429,58,853,-26,45,18
3880,-366,-70,919,-30,-15,2
3881,85,-146,1104,-6,-69,-6
3882,432,-111,1117,12,-54,-1
3883,356,23,1030,25,5,3
3884,-38,97,942,2,53,12
3885,-406,70,851,-22,48,18
3886,-400,-41,898,-27,-7,4
3887,31,-153,1086,-14,-66,-6
3888,410,-125,1129,14,-60,0
3889,388,3,1048,24,-3,3
3890,13,91,951,4,50,11
3891,-378,75,853,-18,52,20
3892,-428,-27,873,-28,2,6
3893,-38,-148,1048,-16,-61,-4
3894,382,-123,1139,14,-65,0
3895,426,-20,1074,19,-12,0
3896,69,88,969,15,46,11
3897,-338,91,856,-18,56,22
3898,-445,-18,848,-33,10,9
3899,-116,-128,1030,-14,-53,-5
3900,351,-134,1133,2,-70,-3
3901,447,-36,1075,23,-21,0
3902,130,72,995,13,40,7
3903,-283,88,873,-13,57,21
3904,-465,12,845,-28,21,11
3905,-178,-123,1002,-24,-46,-6
3906,302,-130,1124,7,-71,-4
3907,459,-45,1091,19,-29,0
3908,193,50,999,13,33,8
3909,-238,100,900,-5,59,20
3910,-472,12,846,-34,28,14
3911,-233,-106,970,-24,-38,-2
3912,243,-135,1123,3,-73,-4
3913,460,-67,1090,15,-35,1
3914,250,51,1011,22,26,6
3915,-186,102,923,-8,59,18
3916,-466,27,834,-32,35,17
3917,-285,-94,949,-24,-29,-1
3918,182,-137,1111,-3,-72,-5
3919,459,-88,1097,16,-44,2
3920,300,46,1019,22,20,4
3921,-132,99,914,-5,58,16
3922,-450,39,843,-25,41,17
3923,-333,-72,935,-30,-20,2
3924,119,-147,1100,-7,-70,-5
3925,450,-94,1115,14,-50,0
3926,337,25,1025,20,10,3
3927,-69,90,918,1,56,16
3928,-426,63,856,-27,46,20
3929,-379,-66,914,-30,-13,3
3930,64,-139,1103,-8,-67,-4
3931,425,-105,1121,10,-55,1
3932,369,4,1032,22,3,3
3933,-17,96,944,5,53,12
3934,-398,64,857,-24,49,21
3935,-414,-42,888,-28,-3,6
3936,7,-140,1073,-16,-63,-5
3937,402,-129,1137,11,-62,1
3938,399,-2,1057,23,-5,4
3939,26,89,953,3,49,11
3940,-371,81,853,-18,53,20
3941,-430,-21,866,-34,3,6
3942,-68,-140,1043,-15,-57,-6
3943,387,-133,1145,10,-68,1
3944,424,-23,1067,19,-12,3
3945,83,78,975,15,45,10
3946,-329,88,865,-19,56,20
3947,-454,-8,840,-30,12,9
3948,-127,-121,1029,-15,-53,-5
3949,347,-143,1128,3,-69,-2
3950,453,-36,1085,23,-21,2
3951,138,68,1000,11,39,7
3952,-279,97,886,-11,57,20
3953,-469,14,835,-32,22,13
3954,-191,-119,988,-25,-46,-5
3955,304,-139,1127,6,-73,-4
3956,458,-58,1091,19,-29,2
3957,198,61,1012,16,32,5
3958,-230,89,903,-9,58,19
3959,-479,25,839,-31,29,16
3960,-242,-94,968,-22,-37,-5
3961,244,-155,1117,-2,-76,-4
3962,456,-57,1087,18,-37,1
3963,265,44,1018,17,24,4
3964,-187,90,911,-9,60,17
3965,-463,48,848,-26,34,17
3966,-297,-99,947,-32,-28,0
3967,179,-145,1098,-3,-72,-5
3968,461,-76,1098,16,-45,1
3969,309,32,1025,18,18,2
3970,-127,96,917,-2,59,15
3971,-448,54,856,-26,42,18
3972,-343,-75,930,-32,-20,-1
3973,116,-145,1095,-3,-70,-4
3974,453,-93,1119,12,-51,2
3975,342,13,1026,18,11,2
3976,-67,106,932,4,54,13
3977,-425,61,850,-28,47,19
3978,-388,-58,903,-29,-10,4
3979,59,-144,1098,-13,-67,-5
3980,425,-121,1127,11,-57,-1
3981,377,10,1044,23,1,3
3982,-10,94,947,1,51,12
3983,-393,70,846,-21,49,20
3984,-416,-32,887,-29,-1,6
3985,-14,-148,1060,-18,-63,-5
3986,404,-134,1140,12,-64,0
3987,405,-14,1059,22,-5,1
3988,41,87,955,9,48,10
3989,-355,88,864,-16,54,21
3990,-439,-18,864,-33,5,5
3991,-78,-143,1026,-14,-56,-5
3992,374,-122,1136,7,-68,0
3993,432,-34,1069,19,-16,0
3994,96,83,996,16,43,7
3995,-313,90,867,-18,56,20
3996,-455,-1,842,-29,14,11
3997,-147,-128,1007,-22,-50,-5
3998,338,-145,1133,4,-71,-2
3999,449,-51,1088,24,-23,2
4000,152,82,999,16,37,6
4001,-262,92,887,-13,57,20
4002,-473,25,849,-29,23,12
4003,-198,-114,984,-25,-44,-3
4004,280,-156,1122,3,-71,-2
4005,453,-53,1094,18,-30,1
4006,218,51,1002,20,29,5
4007,-221,92,914,-5,58,18
4008,-470,29,834,-30,31,16
4009,-257,-93,968,-23,-35,-2
4010,217,-151,1116,-1,-73,-4
4011,460,-72,1080,19,-39,1
4012,278,50,1025,21,22,4
4013,-160,89,913,-7,59,17
4014,-460,44,846,-23,39,18
4015,-318,-84,938,-32,-24,0
4016,149,-153,1096,-4,-72,-5
4017,456,-89,1110,19,-48,1
4018,332,35,1028,21,14,4
4019,-96,97,917,0,57,16
4020,-435,63,858,-24,45,18
4021,-372,-63,917,-29,-13,2
4022,79,-151,1097,-9,-70,-4
4023,435,-102,1123,13,-56,0
4024,368,8,1027,23,4,3
4025,-23,91,945,2,54,13
4026,-399,71,851,-23,50,21
4027,-412,-42,894,-26,-2,6
4028,4,-148,1078,-15,-63,-5
4029,402,-111,1142,14,-63,0
4030,396,-8,1047,20,-5,3
4031,36,98,947,7,48,10
4032,-368,77,858,-21,54,19
4033,-424,-37,870,-29,6,6
4034,-69,-132,1051,-17,-56,-5
4035,375,-135,1136,11,-68,-1
4036,423,-15,1067,21,-12,1
4037,76,80,969,13,45,9
4038,-320,84,867,-17,55,21
4039,-450,-13,845,-32,12,8
4040,-120,-133,1026,-15,-53,-5
4041,342,-129,1132,4,-69,-1
4042,450,-38,1076,21,-22,2
4043,135,74,995,13,39,7
4044,-281,89,876,-13,57,18
4045,-461,4,849,-29,19,11
4046,-187,-110,997,-24,-45,-3
4047,306,-146,1123,4,-73,-1
4048,448,-52,1094,21,-27,-1
4049,194,59,999,17,33,5
4050,-236,93,911,-7,57,19
4051,-480,22,836,-30,27,13
4052,-231,-102,969,-24,-39,-2
4053,246,-139,1127,-1,-73,-2
4054,457,-64,1090,15,-35,1
4055,254,46,1009,23,27,5
4056,-188,98,916,-9,59,18
4057,-467,27,837,-28,34,15
4058,-288,-87,952,-25,-29,-1
4059,182,-150,1108,-4,-73,-3
4060,458,-80,1097,18,-45,1
4061,305,45,1024,18,17,3
4062,-127,92,910,-3,57,17
4063,-448,48,850,-28,41,17
4064,-344,-73,936,-29,-20,0
4065,122,-147,1096,-8,-71,-2
4066,447,-89,1117,14,-52,1
4067,341,15,1018,14,10,1
4068,-64,94,935,3,56,14
4069,-430,59,851,-26,47,18
4070,-379,-60,911,-28,-11,3
4071,63,-141,1098,-10,-67,-4
4072,429,-104,1120,12,-57,2
4073,371,10,1042,21,2,2
4074,-11,87,941,-2,53,12
4075,-400,87,861,-19,52,21
4076,-418,-48,885,-34,-1,6
4077,-1,-152,1067,-16,-63,-4
4078,396,-115,1146,13,-63,0
4079,410,-27,1055,19,-7,2
4080,38,87,954,11,49,11
4081,-366,98,860,-16,55,21
4082,-431,-24,861,-38,5,8
4083,-79,-132,1044,-12,-56,-4
4084,372,-131,1137,5,-68,-2
4085,439,-34,1067,20,-15,2
4086,89,82,984,14,45,11
4087,-313,85,866,-19,55,20
4088,-451,-5,840,-30,14,10
4089,-140,-123,1017,-21,-51,-5
4090,337,-136,1131,6,-70,-3
4091,455,-48,1089,20,-23,2
4092,150,73,1000,11,39,7
4093,-270,97,888,-13,57,19
4094,-467,5,837,-32,23,12
4095,-206,-112,982,-26,-43,-4
4096,295,-148,1125,4,-74,-3
4097,452,-62,1093,18,-30,1
4098,211,60,1005,20,31,4
4099,-220,92,913,-7,58,20
4100,-473,29,841,-30,31,16
4101,-251,-89,962,-22,-35,-3
4102,222,-148,1113,-4,-72,-4
4103,465,-74,1091,16,-40,3
4104,267,47,1016,19,23,2
4105,-172,88,921,-8,58,15
4106,-457,32,839,-25,37,18
4107,-307,-81,941,-26,-27,-1
4108,160,-149,1100,-5,-71,-5
4109,463,-89,1107,21,-48,4
4110,308,48,1024,19,17,3
4111,-109,99,917,-2,56,15
4112,-436,55,857,-28,42,19
4113,-358,-68,924,-33,-18,1
4114,104,-169,1095,-8,-70,-5
4115,437,-103,1116,16,-53,2
4116,353,16,1029,24,7,2
4117,-48,95,936,3,54,12
4118,-411,75,853,-25,47,21
4119,-400,-41,899,-26,-8,2
4120,36,-143,1087,-14,-66,-6
4121,412,-122,1130,10,-60,1
4122,388,0,1051,20,-3,4
4123,11,82,946,1,50,11
4124,-380,72,856,-17,53,22
4125,-424,-27,873,-31,3,6
4126,-39,-147,1053,-15,-61,-6
4127,388,-129,1137,14,-65,-1
4128,422,-7,1069,20,-10,2
4129,57,76,967,9,46,9
4130,-335,102,862,-14,55,20
4131,-442,-9,849,-34,9,9
4132,-104,-139,1026,-17,-54,-5
4133,355,-134,1135,7,-68,-3
4134,443,-46,1077,20,-18,3
4135,120,73,995,15,41,8
4136,-292,97,880,-15,57,19
4137,-458,0,836,-30,18,12
4138,-171,-112,1009,-22,-48,-3
4139,314,-147,1116,4,-72,-3
4140,457,-46,1092,25,-26,2
4141,179,65,1005,15,36,6
4142,-242,89,902,-8,58,19
4143,-472,20,849,-29,28,15
4144,-233,-108,962,-24,-38,-3
4145,255,-141,1120,3,-74,-3
4146,456,-66,1087,17,-35,1
4147,250,47,1014,20,27,5
4148,-192,93,922,-7,58,18
4149,-462,30,833,-27,35,17
4150,-289,-90,954,-24,-30,-2
4151,184,-148,1101,-5,-74,-4
4152,466,-79,1102,19,-44,2
4153,292,39,1020,18,20,2
4154,-125,90,907,-2,57,15
4155,-451,52,866,-25,41,16
4156,-336,-84,921,-30,-22,-2
4157,128,-141,1101,-2,-71,-2
4158,445,-89,1113,15,-50,1
4159,341,20,1023,21,10,0
4160,-67,96,933,3,54,14
4161,-424,61,852,-27,47,19
4162,-384,-50,911,-27,-10,2
4163,58,-142,1098,-10,-69,-4
4164,428,-118,1128,11,-60,0
4165,378,11,1040,26,1,2
4166,-8,91,942,3,52,12
4167,-398,69,853,-19,51,20
4168,-421,-38,887,-30,-2,6
4169,-15,-137,1069,-14,-62,-5
4170,401,-120,1140,11,-64,-1
4171,416,-11,1057,18,-7,2
4172,49,82,959,8,49,12
4173,-358,75,856,-18,57,19
4174,-443,-19,858,-32,8,7
4175,-92,-128,1036,-16,-55,-4
4176,367,-130,1136,6,-68,0
4177,446,-24,1074,19,-16,3
4178,104,70,987,12,43,7
4179,-303,90,871,-17,57,19
4180,-461,3,839,-30,17,12
4181,-155,-128,1009,-23,-49,-2
4182,321,-137,1132,5,-72,-2
4183,455,-48,1087,21,-25,0
4184,166,58,1004,12,35,7
4185,-254,97,889,-8,58,19
4186,-470,16,840,-30,25,13
4187,-214,-107,983,-25,-42,-1
4188,272,-136,1128,5,-73,-4
4189,455,-52,1093,15,-33,0
4190,227,43,1008,15,28,6
4191,-211,101,912,-6,57,17
4192,-473,16,838,-35,31,14
4193,-262,-104,959,-21,-34,0
4194,210,-128,1117,-3,-73,-3
4195,457,-80,1083,15,-41,2
4196,285,44,1024,20,21,3
4197,-164,100,919,-7,58,15
4198,-456,35,842,-26,38,16
4199,-319,-77,940,-27,-25,1
4200,147,-146,1094,-5,-72,-4
4201,462,-91,1109,17,-49,2
4202,322,30,1030,17,13,2
4203,-94,95,924,1,56,15
4204,-435,52,850,-27,45,18
4205,-368,-67,910,-29,-15,1
4206,88,-147,1097,-8,-71,-5
4207,433,-101,1123,12,-56,-1
4208,370,9,1034,23,4,2
4209,-32,104,946,5,54,13
4210,-410,63,849,-26,49,18
4211,-407,-45,900,-25,-4,4
4212,12,-140,1079,-16,-64,-5
4213,413,-119,1137,13,-62,1
4214,391,-3,1052,22,-2,2
4215,25,80,945,5,50,12
4216,-371,84,857,-17,54,21
4217,-434,-25,871,-32,4,5
4218,-53,-135,1050,-14,-59,-5
4219,381,-124,1137,7,-67,0
4220,437,-27,1064,20,-13,0
4221,75,87,974,13,46,9
4222,-327,78,861,-21,57,20
4223,-451,0,850,-27,13,10
4224,-128,-125,1024,-19,-52,-5
4225,354,-137,1130,4,-71,-1
4226,451,-32,1079,22,-22,1
4227,141,70,1000,11,40,7
4228,-277,80,881,-15,59,21
4229,-472,21,843,-29,23,13
4230,-193,-125,988,-27,-46,-3
4231,301,-140,1126,6,-74,0
4232,459,-49,1094,20,-28,2
4233,206,51,1008,14,33,6
4234,-231,97,907,-3,59,18
4235,-473,25,837,-35,30,16
4236,-249,-89,963,-22,-36,-2
4237,233,-157,1118,-3,-73,-3
4238,455,-69,1093,19,-37,0
4239,264,45,1018,19,26,3
4240,-174,84,910,-11,58,18
4241,-460,42,836,-24,36,16
4242,-302,-85,949,-25,-27,-1
4243,162,-148,1102,-5,-71,-4
4244,456,-81,1105,19,-47,2
4245,311,38,1020,17,16,2
4246,-107,96,915,-1,56,15
4247,-439,48,852,-27,42,18
4248,-349,-71,925,-32,-18,1
4249,98,-148,1093,-6,-69,-4
4250,441,-98,1123,14,-53,1
4251,350,20,1026,21,7,2
4252,-51,91,937,2,54,12
4253,-413,65,852,-26,47,19
4254,-395,-54,902,-27,-8,4
4255,43,-151,1090,-13,-67,-4
4256,415,-108,1132,15,-59,-1
4257,375,-4,1046,23,0,0
4258,9,92,948,5,49,12
4259,-388,95,854,-17,51,20
4260,-417,-48,872,-36,-1,4
4261,-34,-139,1061,-12,-61,-6
4262,391,-126,1140,10,-65,0
4263,420,-27,1063,17,-9,2
4264,51,92,961,15,48,10
4265,-340,78,858,-20,54,21
4266,-442,-17,854,-31,8,9
4267,-101,-120,1031,-12,-55,-5
4268,362,-134,1133,5,-69,-2
4269,444,-33,1076,21,-18,0
4270,115,81,996,12,42,6
4271,-297,87,874,-16,57,19
4272,-461,4,837,-27,18,12
4273,-168,-122,1003,-23,-49,-4
4274,323,-136,1129,6,-72,-3
4275,456,-49,1090,20,-26,2
4276,176,74,1003,16,35,6
4277,-248,85,896,-11,58,19
4278,-474,24,843,-29,28,15
4279,-224,-96,974,-24,-40,-3
4280,265,-151,1120,-1,-75,-3
4281,461,-59,1094,17,-35,3
4282,234,53,1010,17,29,5
4283,-201,81,913,-10,59,20
4284,-475,41,841,-26,34,17
4285,-279,-94,950,-25,-31,-1
4286,207,-154,1111,-4,-74,-1
4287,459,-74,1091,21,-43,4
4288,291,42,1024,19,21,3
4289,-146,97,917,-5,59,16
4290,-452,49,849,-27,40,19
4291,-327,-82,933,-34,-24,2
4292,133,-153,1095,-6,-72,-4
4293,451,-95,1113,15,-50,1
4294,339,20,1023,18,12,4
4295,-81,106,934,3,56,15
4296,-434,55,847,-29,46,17
4297,-374,-55,915,-27,-13,4
4298,70,-144,1100,-11,-69,-4
4299,430,-110,1119,10,-56,0
4300,371,11,1043,23,2,3
4301,-23,93,943,2,54,13
4302,-402,74,854,-24,51,20
4303,-412,-46,888,-30,-4,5
4304,0,-149,1067,-15,-64,-5
4305,406,-126,1138,14,-64,0
4306,406,-10,1064,21,-5,1
4307,34,86,953,9,49,9
4308,-365,96,861,-14,54,19
4309,-430,-18,860,-36,5,8
4310,-80,-138,1036,-15,-56,-5
4311,379,-129,1141,8,-67,0
4312,434,-34,1066,18,-14,2
4313,94,74,983,13,45,7
4314,-314,96,868,-16,56,19
4315,-457,-8,844,-30,15,12
4316,-141,-126,1009,-19,-49,-4
4317,338,-139,1131,4,-71,-3
4318,447,-48,1086,23,-23,0
4319,159,69,999,14,37,6
4320,-265,102,892,-11,56,21
4321,-468,8,838,-32,23,11
4322,-199,-111,989,-21,-43,-3
4323,285,-147,1120,2,-74,-1
4324,453,-61,1090,18,-30,2
4325,209,58,1014,22,31,4
4326,-220,89,909,-8,57,18
4327,-471,30,846,-29,30,15
4328,-250,-94,958,-24,-36,-3
4329,223,-144,1115,1,-73,-3
4330,461,-77,1087,17,-38,2
4331,269,51,1024,21,23,3
4332,-173,90,909,-8,59,16
4333,-463,32,842,-25,36,18
4334,-306,-76,945,-25,-29,0
4335,165,-152,1098,-5,-74,-4
4336,461,-90,1110,20,-47,1
4337,316,39,1022,19,16,2
4338,-104,95,922,0,56,15
4339,-442,55,848,-25,43,19
4340,-362,-64,921,-29,-17,2
4341,103,-155,1098,-9,-71,-4
4342,440,-102,1123,14,-54,0
4343,361,18,1033,22,7,2
4344,-39,87,937,2,54,12
4345,-417,74,849,-22,49,19
4346,-401,-41,900,-27,-6,4
4347,23,-149,1080,-14,-66,-5
4348,416,-112,1131,14,-61,1
4349,396,-4,1052,22,-3,0
4350,17,83,945,7,52,11
4351,-386,84,859,-16,55,19
4352,-424,-33,874,-33,1,8
4353,-57,-133,1044,-12,-59,-4
4354,389,-128,1138,11,-67,-1
4355,433,-22,1070,20,-12,1
4356,72,82,974,12,46,9
4357,-338,78,860,-18,56,19
4358,-450,-5,849,-29,12,10
4359,-122,-121,1026,-18,-53,-4
4360,354,-139,1127,3,-70,-3
4361,454,-34,1085,24,-21,1
4362,130,61,994,11,40,8
4363,-287,99,885,-11,57,19
4364,-473,6,834,-33,21,12
4365,-178,-118,997,-21,-49,-3
4366,307,-133,1128,6,-72,-1
4367,461,-54,1098,19,-28,2
4368,192,64,1004,15,34,5
4369,-241,94,901,-8,59,19
4370,-480,22,843,-32,30,13
4371,-236,-112,967,-25,-37,-2
4372,248,-140,1120,3,-74,-1
4373,463,-67,1087,17,-37,2
4374,256,51,1013,23,28,2
4375,-192,98,917,-10,59,18
4376,-472,32,841,-27,35,17
4377,-292,-85,951,-26,-30,-1
4378,180,-150,1096,-5,-73,-3
4379,468,-86,1103,18,-45,3
4380,307,33,1024,19,20,4
4381,-131,93,914,-3,59,15
4382,-451,41,850,-25,41,17
4383,-347,-64,928,-30,-21,2
4384,120,-139,1096,-4,-71,-4
4385,452,-104,1108,11,-51,1
4386,346,29,1039,23,10,2
4387,-68,97,933,1,56,12
4388,-427,59,850,-19,47,17
4389,-387,-51,905,-26,-10,4
4390,56,-159,1090,-11,-68,-5
4391,436,-118,1135,9,-59,0
4392,378,4,1042,30,1,3
4393,-12,98,943,0,51,10
4394,-399,75,851,-15,51,19
4395,-426,-29,887,-35,-1,5
4396,-11,-144,1065,-14,-65,-4
4397,409,-125,1133,12,-64,1
4398,417,-3,1067,19,-7,0
4399,47,71,954,8,48,10
4400,-356,83,865,-18,56,20
4401,-451,-9,857,-31,8,8
4402,-92,-148,1027,-18,-57,-4
4403,373,-122,1139,11,-70,0
4404,445,-37,1066,20,-17,1
4405,112,79,1001,15,43,8
4406,-309,97,871,-16,58,19
4407,-467,1,836,-28,17,11
4408,-159,-116,1008,-25,-50,-3
4409,330,-141,1123,3,-74,-3
4410,463,-46,1092,22,-25,0
4411,171,52,1002,11,37,6
4412,-262,88,897,-7,59,19
4413,-485,16,838,-32,27,11
4414,-218,-110,975,-22,-42,-3
4415,271,-132,1123,3,-75,-1
4416,467,-62,1091,17,-34,0
4417,240,49,1016,21,31,4
4418,-211,98,911,-7,60,19
4419,-483,31,836,-33,34,15
4420,-276,-101,950,-24,-33,-2
4421,205,-139,1117,-4,-77,-3
4422,468,-83,1091,20,-44,0
4423,299,39,1025,20,20,2
4424,-152,104,910,-3,59,16
4425,-456,38,849,-27,39,17
4426,-339,-67,941,-30,-22,1
4427,144,-145,1089,-7,-74,-3
4428,459,-94,1113,17,-50,2
4429,337,22,1027,18,13,1
4430,-82,100,929,3,57,14
4431,-438,55,853,-27,46,20
4432,-377,-55,913,-27,-13,3
4433,69,-145,1091,-9,-67,-4
4434,441,-116,1128,12,-58,2
4435,370,19,1041,26,3,2
4436,-23,89,938,0,53,11
4437,-410,74,854,-21,51,19
4438,-412,-41,898,-32,-5,6
4439,6,-138,1065,-16,-64,-4
4440,414,-124,1134,11,-63,2
4441,402,-21,1055,19,-4,0
4442,29,92,957,9,49,10
4443,-371,77,853,-17,54,19
4444,-436,-20,868,-31,4,6
4445,-64,-136,1037,-15,-57,-4
4446,385,-125,1141,7,-68,2
4447,437,-28,1071,19,-12,1
4448,86,80,981,12,46,7
4449,-329,86,866,-19,57,18
4450,-460,-2,845,-30,13,9
4451,-140,-131,1014,-20,-52,-3
4452,348,-142,1126,5,-72,-2
4453,456,-45,1091,25,-22,1
4454,156,72,1004,14,39,7
4455,-276,103,890,-10,60,19
4456,-486,14,840,-32,24,11
4457,-198,-114,986,-24,-45,-3
4458,287,-141,1121,4,-74,-2
4459,468,-62,1091,17,-32,1
4460,222,54,1011,18,31,5
4461,-228,88,909,-7,60,17
4462,-481,26,839,-30,31,14
4463,-261,-94,963,-23,-35,0
4464,222,-146,1109,-3,-74,-4
4465,469,-73,1091,20,-40,1
4466,277,41,1020,20,24,3
4467,-167,96,913,-5,59,15
4468,-468,47,849,-24,38,18
4469,-313,-80,939,-29,-26,0
4470,162,-151,1094,-5,-74,-3
4471,466,-86,1107,20,-48,0
4472,321,26,1028,18,16,2
4473,-102,90,919,3,58,13
4474,-446,65,855,-25,44,18
4475,-365,-72,917,-30,-15,2
4476,98,-144,1100,-6,-71,-3
4477,448,-98,1118,14,-56,0
4478,363,7,1034,22,7,1
4479,-39,93,941,1,56,13
4480,-424,76,853,-23,49,19
4481,-410,-52,893,-29,-6,4
4482,29,-140,1082,-14,-66,-3
4483,416,-114,1128,13,-62,0
4484,405,-12,1058,19,-4,1
4485,15,87,950,6,53,13
4486,-388,90,857,-17,55,20
4487,-435,-30,869,-35,4,6
4488,-53,-139,1043,-14,-61,-4
4489,395,-126,1139,10,-68,0
4490,437,-34,1069,19,-12,1
4491,71,83,976,14,48,9
4492,-339,92,862,-19,58,20
4493,-460,-13,841,-30,13,9
4494,-124,-118,1023,-16,-53,-3
4495,359,-137,1132,5,-72,0
4496,458,-38,1090,22,-22,1
4497,141,71,997,11,42,5
4498,-286,91,885,-13,60,19
4499,-476,6,836,-30,22,13
