sequence,AccelerometerX,AccelerometerY,AccelerometerZ,GyroscopeX,GyroscopeY,GyroscopeZ
0,54,-67,999,-9,-14,-8
1,81,-39,999,-7,-1,-7
2,50,-16,1002,-5,9,-8
3,-28,13,997,-5,17,-6
4,-84,12,1002,-11,8,-10
5,-61,-29,995,-12,-7,-14
6,1,-53,987,-10,-12,-11
7,53,-55,1000,-7,-9,-6
8,66,-29,998,-2,-1,-6
9,24,-5,1001,-3,10,-6
10,-25,8,998,-7,12,-7
11,-83,-4,1000,-11,8,-7
12,-59,-19,998,-14,-3,-5
13,0,-38,993,-12,-13,-6
14,63,-26,984,-12,-9,-6
15,73,-3,995,-15,1,-4
16,16,33,1007,-17,12,-2
17,-51,48,1001,-30,14,-1
18,-70,26,1000,-41,3,-6
19,-34,-15,979,-46,-6,-8
20,48,-51,1018,-47,-9,-5
21,70,-81,995,-40,0,-3
22,62,-73,1004,-29,13,-1
23,-31,-65,998,-21,19,-3
24,-103,-58,1007,-15,14,-4
25,-94,-57,986,-8,-4,-7
26,-31,-48,988,-3,-16,-10
27,55,-49,1007,4,-20,-11
28,91,-30,998,9,-10,-10
29,58,6,998,6,7,-7
30,-14,33,1004,-2,16,-4
31,-79,12,997,-9,12,-9
32,-70,-27,989,-12,-3,-11
33,-23,-43,985,-11,-13,-9
34,43,-50,1007,-11,-11,-6
35,62,-24,997,-7,-2,-6
36,42,-4,1001,-5,7,-3
37,-14,3,1003,-9,12,-5
38,-67,-4,993,-11,9,-6
39,-63,-24,999,-14,-3,-5
40,-2,-44,1001,-12,-12,-7
41,47,-45,975,-11,-10,-5
42,73,-16,1009,-9,-2,-5
43,14,5,998,-10,9,-4
44,-35,15,1005,-13,12,-4
45,-67,-12,998,-21,4,-8
46,-39,-37,993,-19,-5,-6
47,11,-45,983,-18,-11,-5
48,51,-38,1004,-15,-6,-7
49,61,-15,992,-13,2,-7
50,16,1,1010,-15,12,-8
51,-49,-2,1006,-19,12,-7
52,-66,-25,995,-19,4,-7
53,-44,-50,986,-17,-6,-8
54,17,-59,990,-13,-11,-8
55,58,-38,1001,-10,-7,-6
56,51,-22,1008,-7,3,-6
57,3,0,1003,-10,10,-5
58,-57,-12,998,-10,11,-6
59,-59,-35,991,-10,0,-7
60,-30,-52,994,-5,-9,-7
61,37,-64,998,-2,-12,-9
62,66,-45,1003,5,-5,-8
63,43,-25,1001,9,7,-8
64,-17,-18,1009,9,12,-8
65,-69,-15,990,9,9,-5
66,-66,-33,1003,10,-2,-7
67,-10,-61,997,12,-11,-8
68,42,-63,992,22,-10,-9
69,71,-33,998,25,-3,-7
70,23,-8,1006,26,7,-6
71,-31,2,1000,23,11,-5
72,-74,-2,1003,19,4,-4
73,-47,-32,999,18,-7,-7
74,11,-42,986,20,-14,-8
75,62,-33,996,24,-11,-10
76,60,-12,995,24,1,-7
77,12,22,999,21,11,-5
78,-50,21,1015,14,12,-5
79,-73,5,981,8,4,-4
80,-43,-20,991,4,-7,-8
81,28,-31,992,5,-15,-9
82,57,-18,994,5,-7,-7
83,58,-4,1008,5,2,-8
84,-5,19,999,-1,12,-5
85,-54,11,991,-5,11,-5
86,-74,-12,999,-12,2,-7
87,-34,-30,982,-14,-9,-6
88,33,-46,997,-9,-15,-8
89,73,-24,997,-9,-6,-6
90,44,-3,1000,-8,6,-4
91,-6,17,1000,-11,11,-3
92,-72,6,1003,-19,9,-3
93,-57,-20,983,-19,-1,-6
94,-18,-43,999,-20,-11,-8
95,52,-53,993,-17,-10,-8
96,72,-29,1003,-12,-3,-7
97,35,-8,1001,-11,9,-5
98,-26,-5,1002,-14,14,-5
99,-76,-13,1002,-15,8,-7
100,-63,-42,1001,-15,-3,-8
101,0,-60,990,-10,-11,-8
102,49,-53,991,-4,-11,-7
103,68,-30,999,-1,-1,-6
104,15,-2,1006,0,10,-5
105,-37,2,1006,-3,13,-3
106,-72,-9,1004,-6,6,-6
107,-41,-34,985,-6,-5,-8
108,13,-40,990,-4,-10,-6
109,62,-28,998,-2,-7,-8
110,51,3,996,-2,4,-4
111,11,26,1005,-8,12,-2
112,-56,20,995,-16,12,-5
113,-63,5,992,-19,2,-6
114,-36,-22,986,-26,-8,-7
115,29,-23,993,-24,-11,-8
116,58,-4,990,-25,-4,-4
117,52,18,1014,-29,6,-4
118,-8,41,987,-37,13,-3
119,-55,30,1000,-48,12,-2
120,-67,11,983,-55,1,-4
121,-24,-2,992,-61,-8,-5
122,46,-15,1001,-65,-11,-7
123,72,9,987,-68,-2,-4
124,39,31,991,-75,11,-2
125,-21,40,1007,-85,17,-4
126,-75,36,985,-93,11,-4
127,-58,4,1004,-103,0,-6
128,-3,-17,983,-109,-8,-6
129,54,-16,986,-108,-8,-4
130,70,6,1002,-111,1,-5
131,41,1,1024,-119,13,-2
132,-29,-170,1089,-110,23,-1
133,-99,-304,984,-73,9,4
134,-43,-321,917,-22,-2,1
135,-20,-174,1010,23,-5,-6
136,49,3,1024,37,-10,-7
137,57,127,989,30,-2,-8
138,-16,174,1003,-1,9,4
139,-65,133,999,-36,7,3
140,-28,11,1028,-53,-5,-5
141,7,-114,963,-52,-9,-1
142,66,-155,1000,-34,-6,-2
143,58,-150,994,-14,3,-6
144,3,-68,998,6,13,-3
145,-67,26,1000,9,12,-2
146,-102,54,996,-2,4,-5
147,-34,34,995,-15,-13,-8
148,35,-2,998,-22,-15,-8
149,112,-36,1006,-24,-7,-9
150,91,-47,1002,-21,7,-5
151,-15,-33,986,-17,21,0
152,-100,-33,1003,-16,16,-3
153,-136,-36,978,-14,1,-5
154,-44,-41,997,-10,-17,-8
155,76,-36,1009,-9,-21,-12
156,134,-18,997,-7,-8,-9
157,101,12,1001,-8,12,-6
158,-35,25,1006,-19,25,-1
159,-124,3,991,-24,18,-2
160,-137,-50,992,-26,-2,-6
161,-35,-64,989,-21,-19,-8
162,94,-74,1003,-12,-22,-10
163,140,-33,998,-4,-6,-8
164,82,10,1001,-7,14,-2
165,-41,38,1005,-11,24,-1
166,-141,15,1007,-23,16,0
167,-127,-36,972,-29,-6,-5
168,-17,-70,995,-23,-22,-8
169,106,-73,1005,-15,-22,-6
170,142,-34,991,-8,-4,-6
171,69,9,1021,-9,19,-3
172,-69,23,996,-17,27,0
173,-146,8,991,-21,14,-4
174,-115,-44,975,-27,-10,-7
175,-2,-60,1000,-19,-22,-8
176,129,-63,1002,-14,-21,-11
177,142,-25,1001,-8,2,-6
178,43,14,1011,-11,21,-1
179,-87,20,998,-18,25,-1
180,-162,-2,979,-25,9,-3
181,-92,-45,983,-24,-14,-8
182,31,-74,1010,-21,-24,-10
183,139,-61,995,-12,-17,-9
184,132,-24,1014,-5,6,-6
185,5,20,993,-10,23,-1
186,-117,13,1003,-18,23,-1
187,-152,-18,979,-23,4,-5
188,-66,-49,1005,-22,-17,-8
189,79,-67,992,-15,-25,-13
190,146,-51,1007,-10,-8,-9
191,97,-11,997,-7,11,-5
192,-41,22,1008,-12,26,0
193,-137,12,1003,-19,16,-2
194,-135,-25,979,-24,-5,-4
195,-8,-54,991,-20,-22,-10
196,102,-65,1007,-14,-21,-9
197,135,-30,997,-9,-3,-7
198,71,-3,1008,-9,18,-4
199,-75,24,1007,-13,26,-1
200,-139,1,989,-21,11,-3
201,-106,-37,974,-21,-9,-7
202,1,-60,1005,-20,-22,-8
203,126,-58,994,-12,-18,-10
204,124,-32,1007,-9,3,-6
205,36,14,1007,-10,19,-2
206,-89,19,1003,-17,24,-1
207,-144,-3,978,-23,8,-4
208,-77,-41,993,-24,-14,-7
209,39,-62,996,-18,-22,-10
210,132,-60,1017,-14,-12,-8
211,118,-21,989,-9,6,-4
212,-15,11,1003,-10,23,1
213,-98,18,999,-19,16,-2
214,-148,-18,987,-24,1,-5
215,-42,-43,991,-21,-20,-9
216,82,-73,1017,-17,-22,-10
217,127,-50,979,-9,-6,-7
218,91,-3,1015,-7,13,-3
219,-40,20,998,-14,24,-1
220,-134,12,998,-18,15,-1
221,-112,-23,987,-24,-6,-8
222,-21,-68,1000,-22,-19,-9
223,108,-72,988,-14,-21,-11
224,128,-43,1009,-7,-1,-8
225,60,-2,996,-6,16,-3
226,-74,26,1009,-10,22,0
227,-137,6,990,-19,10,-5
228,-99,-24,988,-22,-9,-7
229,9,-64,992,-18,-23,-11
230,117,-55,1005,-12,-18,-10
231,124,-35,1000,-6,2,-5
232,37,5,1010,-8,19,-2
233,-86,20,998,-16,21,-1
234,-142,1,987,-21,7,-2
235,-86,-32,983,-23,-13,-8
236,27,-66,998,-21,-23,-9
237,128,-58,1013,-11,-16,-9
238,102,-39,991,-9,5,-4
239,-32,3,992,-8,19,1
240,-105,19,1014,-14,12,-2
241,-105,5,978,-20,-4,-5
242,-9,-23,1007,-22,-19,-8
243,92,-52,1009,-20,-18,-7
244,128,-41,991,-13,0,-3
245,71,-8,1008,-13,16,-2
246,-59,1,988,-20,26,-2
247,-123,-11,999,-22,14,-4
248,-125,-35,992,-22,-4,-4
249,-21,-59,990,-20,-19,-9
250,109,-60,1008,-10,-20,-10
251,124,-33,994,-7,-1,-6
252,52,18,995,-8,14,-2
253,-71,20,1011,-16,22,0
254,-137,-7,993,-22,10,-3
255,-100,-41,985,-23,-10,-5
256,31,-63,1000,-18,-22,-11
257,117,-52,1005,-10,-16,-8
258,131,-10,989,-7,2,-6
259,24,19,1027,-11,22,-2
260,-84,28,986,-20,22,-1
261,-147,-9,993,-26,8,-4
262,-83,-52,981,-27,-13,-8
263,39,-84,1000,-19,-22,-10
264,130,-63,1000,-9,-13,-8
265,119,-18,1007,-7,7,-6
266,6,16,1001,-7,24,-1
267,-110,32,998,-15,22,-1
268,-150,0,981,-25,3,-4
269,-67,-50,993,-25,-17,-8
270,63,-72,995,-19,-23,-12
271,140,-70,1011,-10,-11,-10
272,103,-15,998,-5,9,-4
273,-26,17,1000,-9,24,0
274,-120,24,997,-15,18,-3
275,-141,-8,986,-23,-1,-3
276,-31,-43,1003,-24,-20,-10
277,93,-72,993,-18,-21,-10
278,137,-50,1006,-10,-5,-7
279,82,-19,992,-9,13,-2
280,-56,25,1012,-12,24,-1
281,-133,7,996,-20,12,-2
282,-119,-17,985,-23,-5,-7
283,-1,-63,990,-20,-21,-11
284,103,-63,1010,-12,-18,-10
285,138,-38,994,-9,-2,-8
286,47,-1,1011,-8,20,-2
287,-81,19,1006,-15,23,-1
288,-140,-5,979,-19,10,-4
289,-104,-30,987,-20,-12,-7
290,30,-60,992,-20,-25,-9
291,128,-55,1014,-11,-15,-11
292,139,-33,996,-8,4,-5
293,11,5,1011,-8,25,-2
294,-105,9,993,-14,22,-1
295,-164,0,988,-20,6,-4
296,-74,-44,974,-23,-18,-8
297,64,-57,1016,-16,-26,-11
298,151,-56,1007,-9,-13,-10
299,124,-14,998,-8,10,-6
300,-21,14,1000,-11,27,1
301,-133,16,1001,-16,19,-1
302,-157,-11,976,-23,0,-4
303,-54,-52,1004,-23,-21,-8
304,101,-65,999,-15,-26,-12
305,153,-51,996,-11,-8,-7
306,107,-9,1007,-9,14,-4
307,-50,15,1004,-12,27,1
308,-152,10,997,-18,18,-1
309,-138,-18,978,-25,-6,-5
310,-19,-57,1002,-19,-23,-10
311,124,-65,993,-14,-24,-12
312,149,-36,1008,-10,-2,-8
313,71,-6,1003,-8,20,-3
314,-82,23,1006,-14,27,0
315,-152,1,984,-21,13,-3
316,-119,-30,981,-21,-11,-7
317,17,-65,999,-19,-25,-11
318,133,-64,1002,-10,-18,-10
319,142,-30,1003,-6,2,-7
320,36,8,1011,-7,24,-2
321,-104,18,994,-13,26,0
322,-160,0,987,-20,6,-4
323,-90,-42,977,-22,-15,-9
324,42,-59,1007,-17,-26,-10
325,152,-62,1006,-11,-17,-11
326,130,-21,999,-7,7,-6
327,0,16,999,-8,25,0
328,-120,19,1000,-15,23,-1
329,-162,-6,980,-22,3,-4
330,-66,-40,998,-21,-19,-9
331,78,-63,1000,-18,-26,-12
332,159,-65,1002,-11,-10,-9
333,105,-15,1002,-5,12,-2
334,-30,23,998,-11,26,-1
335,-143,17,1010,-17,19,-1
336,-141,-15,973,-25,-4,-4
337,-35,-54,1000,-22,-22,-10
338,103,-68,996,-16,-24,-10
339,155,-48,1004,-9,-7,-7
340,79,3,997,-9,17,-3
341,-60,16,1014,-14,26,0
342,-152,14,986,-20,15,0
343,-129,-35,981,-32,-5,-3
344,-1,-62,993,-24,-23,-11
345,130,-67,1003,-12,-21,-10
346,146,-32,998,-9,-1,-6
347,48,7,1019,-9,22,-2
348,-84,11,995,-15,25,-1
349,-168,5,980,-22,11,0
350,-96,-40,987,-24,-14,-8
351,35,-66,997,-19,-26,-10
352,140,-49,1012,-11,-18,-9
353,150,-23,1001,-10,4,-7
354,8,6,1003,-10,25,0
355,-112,24,995,-18,22,0
356,-169,-16,985,-25,5,-3
357,-72,-42,990,-22,-18,-8
358,67,-70,1003,-17,-26,-9
359,153,-45,998,-10,-12,-10
360,118,-18,1007,-8,12,-4
361,-24,22,996,-12,27,-1
362,-136,15,1009,-18,20,-1
363,-145,-16,976,-24,-2,-5
364,-45,-57,1003,-25,-21,-9
365,102,-70,991,-16,-25,-11
366,151,-52,1006,-8,-5,-8
367,86,-7,1001,-8,18,-3
368,-56,24,1003,-11,27,0
369,-153,14,1003,-20,15,-2
370,-123,-30,973,-23,-7,-5
371,-10,-57,998,-21,-23,-10
372,128,-69,1006,-14,-22,-12
373,144,-38,995,-7,-1,-8
374,54,0,1013,-7,20,-2
375,-83,24,1006,-13,25,-1
376,-162,-2,975,-20,9,-2
377,-104,-32,985,-22,-14,-8
378,30,-62,997,-18,-26,-12
379,145,-54,1017,-10,-17,-8
380,140,-24,992,-8,4,-6
381,15,15,1011,-7,23,0
382,-113,11,998,-18,23,0
383,-169,-1,972,-22,6,-4
384,-81,-36,993,-22,-18,-9
385,70,-59,1007,-20,-28,-11
386,158,-63,1007,-12,-11,-10
387,118,-28,990,-8,11,-5
388,-19,20,1010,-11,25,-1
389,-139,19,996,-17,20,0
390,-156,-5,985,-23,-1,-4
391,-47,-42,995,-25,-22,-9
392,108,-65,1008,-19,-26,-12
393,160,-49,992,-11,-8,-7
394,91,-14,1010,-10,16,-1
395,-59,13,1007,-14,26,1
396,-159,11,995,-21,15,-1
397,-127,-28,976,-25,-9,-6
398,-15,-51,1001,-21,-24,-9
399,141,-65,996,-15,-24,-12
400,145,-30,1005,-8,0,-7
401,53,-5,1009,-12,22,-1
402,-85,10,1001,-16,26,-1
403,-171,-6,972,-20,11,2
404,-96,-26,986,-21,-16,-8
405,35,-66,1001,-20,-26,-11
406,146,-50,1008,-12,-17,-8
407,139,-23,1001,-11,6,-4
408,8,10,1000,-11,26,0
409,-117,8,1005,-16,21,0
410,-163,-9,976,-23,4,-4
411,-76,-36,991,-21,-18,-8
412,84,-69,1009,-19,-27,-11
413,152,-56,995,-11,-11,-8
414,115,-20,999,-5,12,-4
415,-31,9,1009,-13,27,-1
416,-145,7,985,-16,19,2
417,-147,-11,990,-20,-2,-5
418,-34,-52,1002,-23,-24,-11
419,111,-55,995,-13,-25,-11
420,154,-42,1005,-10,-6,-6
421,77,2,1004,-8,17,-2
422,-69,18,1002,-15,27,1
423,-151,3,996,-23,14,-2
424,-128,-33,982,-23,-8,-5
425,6,-65,990,-20,-24,-11
426,130,-63,1011,-12,-20,-10
427,142,-28,994,-8,2,-5
428,43,7,1020,-9,22,-2
429,-92,27,996,-16,25,-1
430,-162,-5,988,-24,10,-2
431,-88,-33,978,-24,-14,-9
432,36,-81,1006,-19,-23,-10
433,151,-53,1000,-9,-16,-9
434,124,-26,1007,-9,9,-4
435,6,22,999,-8,26,-3
436,-120,13,1001,-18,21,1
437,-163,4,974,-22,2,-3
438,-61,-43,1003,-24,-19,-9
439,89,-75,998,-19,-25,-12
440,147,-60,1005,-10,-7,-8
441,112,-19,1001,-6,13,-5
442,-42,12,1004,-9,27,0
443,-146,25,991,-16,18,-1
444,-142,-17,990,-22,-3,-5
445,-24,-44,1001,-22,-22,-10
446,114,-72,999,-16,-23,-11
447,146,-43,996,-9,-4,-7
448,75,-16,1010,-8,16,-3
449,-70,28,999,-11,25,0
450,-156,8,996,-20,13,-2
451,-116,-26,989,-21,-10,-7
452,8,-60,985,-21,-25,-11
453,126,-57,1009,-12,-20,-10
454,139,-37,993,-9,0,-7
455,41,5,1018,-8,21,-2
456,-88,19,997,-16,23,0
457,-160,3,977,-21,9,-4
458,-87,-42,993,-24,-14,-10
459,31,-59,994,-19,-23,-9
460,141,-53,1009,-12,-16,-9
461,128,-30,1004,-10,5,-6
462,0,18,993,-10,24,1
463,-104,9,1010,-19,20,-2
464,-163,-18,971,-25,4,-3
465,-58,-42,998,-20,-18,-7
466,72,-71,1006,-17,-24,-12
467,146,-55,996,-9,-10,-7
468,103,-8,1003,-4,11,-3
469,-33,21,1001,-13,26,0
470,-126,13,997,-18,16,-1
471,-139,-21,984,-25,-3,-6
472,-29,-50,1003,-20,-22,-10
473,102,-72,994,-14,-25,-10
474,138,-49,1001,-8,-5,-7
475,74,0,1000,-5,17,-1
476,-63,23,1012,-11,23,0
477,-146,15,989,-19,12,-2
478,-115,-24,989,-23,-8,-5
479,5,-63,992,-21,-24,-11
480,112,-71,995,-13,-21,-8
481,123,-29,999,-6,-1,0
482,31,11,1012,-11,18,1
483,-79,16,997,-17,20,-4
484,-137,-5,991,-23,6,-2
485,-73,-37,983,-23,-14,-8
486,36,-66,995,-18,-22,-11
487,140,-56,1014,-11,-13,-7
488,123,-16,997,-8,8,-4
489,-1,8,997,-10,23,-2
490,-113,5,1002,-18,20,-1
491,-178,-17,985,-22,2,-1
492,-69,-41,983,-19,-22,-9
493,88,-72,1018,-15,-27,-13
494,160,-57,994,-6,-12,-4
495,109,20,1001,-6,11,5
496,-24,26,1003,-17,25,-1
497,-141,9,1001,-23,19,-1
498,-144,-33,980,-26,-5,-3
499,-47,-61,989,-22,-22,-10
500,111,-81,1007,-12,-26,-10
501,151,-43,994,-3,-5,0
502,66,20,1002,-6,16,7
503,-60,31,1009,-14,24,-1
504,-145,1,998,-24,13,-1
505,-109,-31,981,-24,-10,-5
506,4,-80,995,-21,-23,-10
507,127,-69,1001,-11,-18,-6
508,127,-23,1001,-5,1,4
509,36,14,999,-9,18,-2
510,-73,15,1015,-15,23,-3
511,-145,-3,978,-19,8,-1
512,-90,-32,990,-22,-13,-7
513,37,-74,991,-18,-23,-12
514,129,-60,1021,-7,-14,-9
515,113,-19,987,-6,5,-6
516,4,24,996,-10,23,-2
517,-97,9,1017,-19,19,-3
518,-147,-4,978,-22,2,-3
519,-54,-49,991,-21,-16,-9
520,72,-77,1016,-16,-22,-12
521,133,-57,984,-7,-11,-8
522,97,-1,1003,-4,10,-3
523,-27,35,1004,-13,24,0
524,-122,22,1005,-21,18,-3
525,-124,-17,984,-26,-1,-6
526,-33,-65,996,-23,-17,-9
527,94,-80,991,-16,-20,-11
528,125,-60,1004,-7,-3,-8
529,65,6,992,-5,15,-3
530,-54,26,1020,-12,23,-1
531,-131,15,989,-19,13,-3
532,-108,-22,986,-23,-7,-6
533,1,-65,990,-20,-21,-12
534,103,-73,1006,-12,-17,-9
535,121,-36,986,-4,0,-7
536,42,8,1028,-7,20,-5
537,-75,24,991,-14,22,-3
538,-137,2,995,-21,9,-3
539,-82,-37,977,-22,-12,-9
540,21,-66,1006,-19,-20,-9
541,118,-56,1001,-12,-16,-8
542,112,-24,1000,-9,4,-4
543,12,14,996,-8,19,-2
544,-89,17,1011,-18,19,2
545,-134,-4,979,-22,5,-2
546,-59,-41,1006,-23,-14,-6
547,59,-73,993,-19,-21,-10
548,120,-60,993,-9,-9,-7
549,98,-6,1005,-7,8,-4
550,-28,19,999,-12,23,-1
551,-108,18,1000,-19,16,-2
552,-114,-15,995,-24,0,-5
553,-29,-61,985,-22,-17,-10
554,87,-67,1001,-15,-19,-9
555,114,-45,995,-10,-4,-7
556,66,-3,1008,-8,15,-3
557,-48,28,1004,-13,21,1
558,-127,17,994,-22,12,-1
559,-94,-30,989,-26,-6,-5
560,-5,-62,988,-23,-18,-9
561,110,-66,1009,-18,-16,-8
562,113,-34,995,-11,2,-4
563,30,5,1006,-12,18,0
564,-73,16,1009,-17,20,0
565,-142,0,975,-24,8,-1
566,-69,-45,989,-24,-12,-8
567,38,-64,1004,-20,-21,-8
568,121,-59,1002,-11,-12,-5
569,113,-8,999,-7,7,-2
570,-16,12,999,-13,21,2
571,-107,12,998,-20,17,-1
572,-132,-25,995,-23,-1,-3
573,-49,-58,993,-21,-15,-12
574,88,-70,1002,-12,-22,-11
575,128,-47,996,-6,-6,-5
576,75,16,1000,-8,11,0
577,-37,18,1004,-16,22,-2
578,-135,10,1002,-21,15,-2
579,-114,-38,985,-28,-7,-4
580,0,-72,991,-19,-20,-12
581,101,-71,1002,-12,-17,-8
582,122,-27,995,-6,-2,-7
583,47,15,1009,-7,18,-3
584,-79,25,1005,-17,22,-1
585,-127,10,986,-22,9,-4
586,-84,-46,987,-27,-10,-8
587,20,-69,989,-19,-20,-10
588,126,-63,1009,-12,-14,-10
589,111,-20,998,-7,5,-5
590,7,14,1002,-11,21,0
591,-97,14,1007,-18,20,-3
592,-150,-5,981,-24,3,-4
593,-52,-51,988,-21,-17,-9
594,64,-73,1007,-17,-21,-12
595,127,-56,1000,-8,-9,-7
596,100,-8,994,-4,10,-5
597,-34,22,1010,-12,23,0
598,-121,16,990,-18,15,-1
599,-125,-17,996,-23,-4,-6
600,-26,-59,995,-23,-20,-10
601,99,-68,998,-13,-19,-10
602,132,-48,993,-8,-4,-6
603,62,2,1003,-7,16,-3
604,-61,29,1004,-14,22,-1
605,-140,14,1002,-20,12,-2
606,-99,-40,982,-27,-9,-7
607,4,-64,996,-21,-20,-10
608,116,-65,994,-14,-18,-11
609,124,-36,1003,-7,3,-6
610,31,6,1004,-7,20,-2
611,-85,25,1006,-14,21,-1
612,-141,1,979,-22,7,-4
613,-77,-41,994,-25,-12,-8
614,40,-69,988,-19,-22,-13
615,127,-53,1018,-10,-13,-10
616,114,-23,988,-8,6,-5
617,-3,17,1007,-11,23,-1
618,-102,12,1005,-18,17,-2
619,-150,-4,973,-24,2,-4
620,-48,-47,1004,-21,-17,-10
621,73,-66,1004,-17,-22,-11
622,135,-54,993,-11,-8,-8
623,95,-6,1005,-7,12,-5
624,-46,19,1001,-12,23,0
625,-135,16,993,-18,16,-1
626,-136,-18,990,-25,-4,-6
627,-6,-57,1002,-22,-23,-11
628,119,-78,995,-14,-20,-11
629,138,-40,996,-7,0,-7
630,80,-10,1012,-9,19,-6
631,-86,20,995,-10,28,1
632,-154,14,994,-20,13,-1
633,-118,-28,991,-22,-9,-8
634,0,-54,989,-21,-24,-9
635,145,-61,1002,-15,-21,-12
636,137,-31,1006,-9,3,-6
637,42,0,1005,-11,21,-2
638,-89,17,1003,-16,26,-2
639,-174,-6,980,-22,8,0
640,-90,-28,981,-22,-17,-8
641,44,-69,1005,-18,-26,-12
642,138,-52,1000,-11,-15,-8
643,134,-25,1006,-8,7,-6
644,-2,6,1000,-8,26,0
645,-118,11,992,-18,22,0
646,-162,-16,989,-21,3,-5
647,-55,-44,992,-19,-20,-10
648,83,-64,1004,-15,-24,-13
649,161,-48,994,-8,-9,-11
650,104,-15,1010,-5,14,-4
651,-44,18,990,-10,28,-2
652,-162,10,1009,-15,19,-1
653,-147,-30,977,-20,-5,-6
654,-21,-52,996,-18,-24,-11
655,126,-67,1002,-11,-25,-14
656,164,-39,1000,-6,-4,-11
657,79,7,1005,-4,20,-4
658,-84,24,1005,-13,29,2
659,-174,12,987,-21,12,0
660,-126,-36,979,-23,-14,-6
661,12,-68,998,-20,-28,-13
662,151,-58,1004,-13,-21,-11
663,159,-30,1006,-6,2,-6
664,45,13,1001,-11,24,-1
665,-114,13,1012,-15,26,0
666,-181,-2,965,-23,7,-2
667,-103,-43,993,-24,-19,-7
668,57,-64,1005,-18,-29,-13
669,166,-68,1010,-10,-17,-10
670,137,-18,992,-5,9,-7
671,-1,21,1007,-10,28,-2
672,-134,14,997,-17,23,-2
673,-176,-8,979,-21,1,-3
674,-47,-53,1004,-22,-23,-12
675,88,-77,1000,-14,-26,-14
676,160,-53,995,-5,-9,-10
677,105,-9,1009,-2,14,-5
678,-37,31,995,-8,25,-1
679,-146,19,1008,-17,18,-2
680,-137,-16,980,-24,-4,-8
681,-15,-76,998,-26,-20,-10
682,111,-65,993,-18,-19,-9
683,133,-44,999,-6,-2,-7
684,66,6,1005,-6,16,-3
685,-66,29,1006,-12,24,1
686,-130,12,988,-21,12,-4
687,-97,-33,993,-24,-7,-8
688,12,-73,989,-21,-20,-12
689,115,-59,1003,-12,-14,-9
690,123,-24,1001,-8,5,-5
691,21,18,1001,-10,22,-2
692,-79,16,1002,-17,22,-4
693,-144,-6,989,-23,9,-4
694,-68,-36,982,-25,-13,-8
695,51,-71,1005,-20,-19,-13
696,119,-52,1002,-12,-9,-9
697,102,-13,999,-10,7,-6
698,-22,12,999,-13,22,-2
699,-113,13,1001,-19,17,-1
700,-132,-28,986,-23,-1,-4
701,-34,-48,999,-20,-17,-10
702,90,-70,1001,-16,-21,-10
703,133,-30,993,-7,-4,-9
704,74,-16,1007,-10,15,-2
705,-66,30,1000,-12,24,0
706,-140,-3,1000,-22,12,-1
707,-97,-36,980,-23,-9,-9
708,3,-67,998,-19,-21,-10
709,123,-55,996,-10,-19,-11
710,121,-33,1009,-9,4,-7
711,36,12,997,-8,19,-2
712,-97,14,1009,-18,23,-1
713,-146,-5,977,-20,7,-6
714,-77,-41,993,-23,-15,-7
715,43,-70,989,-17,-23,-13
716,129,-50,1015,-8,-12,-10
717,117,-24,997,-7,6,-6
718,-17,16,996,-9,23,1
719,-107,16,1009,-14,17,-3
720,-139,-5,976,-22,0,-3
721,-50,-42,991,-22,-19,-8
722,82,-66,1009,-19,-23,-12
723,135,-59,1002,-11,-8,-7
724,86,-16,994,-6,11,-3
725,-41,22,998,-12,23,-1
726,-130,13,1003,-19,14,-1
727,-115,-11,984,-22,-6,-5
728,-14,-51,1002,-22,-21,-9
729,106,-62,1002,-15,-21,-10
730,129,-46,993,-10,-2,-6
731,73,6,1006,-10,17,-3
732,-61,19,1003,-18,25,-1
733,-147,1,1002,-23,12,-1
734,-117,-41,977,-24,-9,-5
735,2,-64,993,-19,-23,-11
736,130,-64,1003,-13,-18,-11
737,135,-18,1000,-6,2,-7
738,42,16,1012,-11,20,-2
739,-90,17,1006,-19,24,0
740,-160,-3,980,-24,8,-1
741,-93,-54,984,-25,-15,-7
742,38,-71,996,-18,-25,-11
743,148,-62,1013,-9,-15,-9
744,122,-6,999,-7,6,-4
745,10,28,1000,-10,24,-1
746,-115,15,1009,-20,23,-2
747,-166,-21,967,-26,3,-3
748,-64,-59,1000,-23,-19,-10
749,76,-75,997,-18,-25,-12
750,148,-47,1011,-6,-11,-8
751,116,-8,993,-6,11,-6
752,-40,19,1007,-14,28,-1
753,-140,19,995,-18,17,-1
754,-145,-27,990,-25,-2,-5
755,-28,-56,983,-22,-21,-11
756,114,-62,1018,-12,-24,-11
757,146,-39,987,-9,-3,-9
758,76,-5,1013,-8,19,-3
759,-72,19,1000,-14,26,-1
760,-159,4,1000,-19,13,-1
761,-105,-32,973,-22,-10,-9
762,4,-54,1005,-21,-21,-10
763,134,-60,998,-14,-20,-11
764,140,-33,1007,-9,4,-7
765,28,5,997,-10,23,-2
766,-98,13,1013,-15,24,-1
767,-156,-9,972,-21,8,-4
768,-91,-36,982,-22,-15,-8
769,61,-64,1011,-18,-27,-13
770,146,-42,1010,-12,-12,-8
771,129,-19,991,-11,9,-6
772,-13,12,1005,-11,27,-1
773,-129,0,998,-19,21,-1
774,-162,-19,970,-22,2,-4
775,-48,-51,1006,-22,-20,-10
776,96,-65,1007,-13,-25,-13
777,159,-29,986,-7,-8,-9
778,97,-6,1020,-10,15,-4
779,-50,19,990,-15,27,0
780,-152,1,1002,-19,17,-2
781,-136,-33,978,-25,-6,-6
782,-13,-68,998,-17,-24,-11
783,122,-57,998,-10,-22,-11
784,137,-30,999,-7,0,-8
785,65,7,1014,-8,19,-4
786,-85,23,999,-15,26,2
787,-155,2,981,-21,11,-3
788,-101,-47,990,-21,-12,-8
789,18,-68,988,-18,-24,-12
790,137,-60,1008,-10,-17,-10
791,134,-20,1006,-5,4,-7
792,22,19,1002,-9,21,0
793,-102,20,1002,-16,23,-1
794,-157,-9,981,-24,6,-3
795,-76,-48,980,-22,-16,-9
796,61,-68,1013,-17,-24,-13
797,144,-57,1004,-9,-12,-10
798,114,-9,997,-6,9,-6
799,-17,20,1005,-13,25,1
800,-122,19,995,-21,20,-1
801,-143,-15,984,-24,-1,-5
802,-33,-51,1002,-23,-18,-11
803,101,-69,1002,-15,-22,-13
804,138,-48,992,-10,-5,-7
805,73,-3,1008,-8,16,-3
806,-68,24,1000,-14,26,1
807,-141,7,996,-21,13,-1
808,-108,-23,989,-25,-8,-7
809,9,-64,996,-22,-23,-10
810,126,-63,997,-15,-19,-12
811,128,-34,1003,-9,3,-6
812,38,8,1007,-11,21,-1
813,-100,10,1001,-17,23,1
814,-152,2,978,-21,7,-1
815,-91,-42,991,-23,-14,-8
816,50,-58,995,-18,-26,-14
817,143,-56,1006,-13,-14,-8
818,130,-19,1002,-9,8,-4
819,-2,7,1004,-13,25,0
820,-123,2,1001,-18,22,0
821,-168,-6,971,-22,3,-3
822,-69,-46,1000,-22,-19,-10
823,77,-66,1001,-17,-26,-11
824,160,-56,1001,-10,-11,-9
825,126,-11,1008,-5,11,-6
826,-25,15,997,-11,27,0
827,-144,18,997,-16,19,-1
828,-157,-16,985,-24,-3,-5
829,-37,-54,1000,-22,-21,-12
830,102,-72,992,-15,-24,-12
831,147,-43,1004,-6,-7,-9
832,95,-10,1003,-6,14,-5
833,-58,19,1005,-11,27,-1
834,-155,3,992,-18,16,-3
835,-127,-21,989,-22,-7,-8
836,5,-53,987,-19,-24,-13
837,129,-50,1006,-13,-20,-11
838,146,-37,1004,-9,0,-7
839,42,9,1004,-10,23,-2
840,-90,18,1003,-18,26,-1
841,-162,-5,982,-21,10,-4
842,-95,-50,979,-25,-15,-9
843,36,-66,995,-17,-25,-12
844,155,-61,1021,-9,-16,-13
845,136,-19,990,-5,8,-5
846,9,21,1004,-8,25,-1
847,-121,16,1006,-17,23,-1
848,-183,-7,970,-24,4,-1
849,-66,-45,999,-22,-21,-11
850,87,-67,1007,-18,-27,-14
851,161,-57,999,-10,-10,-8
852,127,-15,1000,-6,12,-5
853,-38,11,1010,-11,31,1
854,-156,34,987,-18,20,0
855,-159,-19,988,-27,-3,-5
856,-38,-54,997,-23,-24,-12
857,119,-73,994,-17,-27,-11
858,168,-53,1004,-9,-5,-10
859,96,-12,1007,-6,20,-3
860,-74,23,1004,-11,29,2
861,-168,20,988,-20,17,-2
862,-141,-26,985,-24,-9,-6
863,3,-52,987,-22,-28,-12
864,145,-63,1009,-14,-23,-12
865,161,-42,1004,-9,0,-7
866,49,-5,1005,-10,25,0
867,-103,16,1007,-11,27,-1
868,-181,5,972,-21,10,-2
869,-103,-29,987,-24,-16,-9
870,47,-67,998,-20,-27,-13
871,162,-53,1016,-13,-17,-10
872,143,-31,993,-11,8,-5
873,2,12,1003,-9,28,1
874,-132,4,1003,-18,24,1
875,-179,-7,970,-21,3,-4
876,-58,-43,1001,-22,-20,-11
877,88,-58,1006,-17,-25,-12
878,170,-48,993,-11,-10,-8
879,117,-23,1005,-8,14,-5
880,-48,9,1006,-10,29,2
881,-153,15,993,-16,18,-1
882,-158,-11,982,-22,-3,-6
883,-20,-52,1000,-21,-26,-12
884,123,-67,1000,-16,-24,-12
885,167,-35,998,-8,-3,-9
886,81,-6,1013,-8,20,-2
887,-82,18,998,-14,29,1
888,-175,2,992,-20,15,-1
889,-126,-20,979,-22,-11,-8
890,7,-63,1002,-20,-27,-12
891,158,-56,998,-12,-22,-13
892,153,-42,1013,-9,5,-7
893,43,8,998,-8,25,-1
894,-101,31,1013,-15,28,-1
895,-169,3,973,-25,9,-5
896,-101,-43,986,-25,-14,-8
897,42,-80,997,-20,-25,-14
898,142,-68,1015,-11,-15,-10
899,132,-29,991,-6,6,-4
900,-7,26,1009,-5,25,1
901,-117,29,992,-16,20,-1
902,-159,2,989,-23,2,-5
903,-38,-52,997,-27,-20,-10
904,93,-68,1004,-19,-22,-13
905,154,-78,990,-11,-5,-10
906,80,-12,1013,-6,17,-3
907,-63,15,993,-11,26,0
908,-152,34,1004,-14,17,-3
909,-124,-18,983,-25,-8,-7
910,6,-47,992,-20,-24,-13
911,133,-72,1008,-18,-21,-12
912,142,-44,990,-11,2,-8
913,43,-11,1017,-8,23,-1
914,-97,12,992,-13,25,1
915,-168,12,989,-17,9,-4
916,-92,-26,984,-24,-17,-9
917,30,-50,1002,-21,-25,-11
918,145,-55,1000,-15,-16,-9
919,143,-39,1008,-12,7,-7
920,8,-2,1002,-12,26,2
921,-122,16,992,-14,23,3
922,-168,2,993,-21,2,-4
923,-68,-43,974,-23,-20,-8
924,79,-59,1021,-19,-25,-11
925,160,-53,1002,-13,-11,-8
926,111,-14,1000,-8,13,-1
927,-32,20,1000,-15,25,1
928,-155,5,993,-22,19,3
929,-148,-18,981,-24,-6,-6
930,-22,-61,1009,-23,-24,-10
931,114,-65,998,-13,-25,-11
932,159,-41,997,-9,-4,-7
933,71,-13,1010,-7,19,-2
934,-81,23,994,-11,26,3
935,-151,10,997,-20,12,-3
936,-128,-27,988,-24,-9,-6
937,22,-72,986,-20,-27,-11
938,133,-68,1015,-10,-21,-11
939,145,-35,987,-6,0,-7
940,47,8,1019,-5,22,-3
941,-94,22,999,-15,26,-1
942,-176,11,982,-20,9,-2
943,-95,-32,988,-24,-17,-10
944,33,-72,999,-20,-26,-12
945,158,-63,999,-10,-18,-11
946,138,-34,1007,-5,7,-5
947,16,15,998,-8,26,-2
948,-118,19,1006,-15,24,-1
949,-181,2,971,-22,4,-3
950,-72,-39,992,-23,-20,-10
951,70,-70,1009,-19,-27,-12
952,170,-59,999,-12,-13,-9
953,127,-26,1006,-6,13,-4
954,-19,25,991,-11,29,-1
955,-150,21,1009,-17,23,0
956,-165,-14,970,-24,-1,-4
957,-57,-50,1009,-22,-23,-10
958,120,-67,989,-17,-28,-13
959,163,-58,1013,-10,-7,-7
960,116,-8,992,-7,15,-5
961,-69,10,1011,-12,31,2
962,-167,22,994,-18,19,-3
963,-154,-14,977,-23,-6,-5
964,-9,-58,996,-22,-27,-13
965,137,-68,1008,-15,-24,-11
966,175,-39,990,-8,-1,-8
967,66,-11,1017,-6,24,-1
968,-97,32,999,-14,29,1
969,-182,4,979,-22,12,-1
970,-124,-22,987,-25,-14,-9
971,27,-63,994,-23,-28,-11
972,159,-66,1011,-13,-21,-11
973,162,-39,998,-8,5,-6
974,25,11,1010,-8,27,0
975,-119,20,997,-15,27,1
976,-187,-2,978,-22,6,-2
977,-94,-28,985,-23,-19,-9
978,72,-69,1012,-21,-29,-12
979,175,-56,1000,-11,-15,-9
980,129,-27,998,-9,10,-2
981,-4,27,1009,-11,29,-1
982,-145,7,995,-21,24,1
983,-174,-3,981,-22,2,-5
984,-54,-69,998,-25,-21,-11
985,103,-68,995,-14,-26,-12
986,164,-53,995,-11,-8,-7
987,87,-7,1014,-6,16,-2
988,-52,23,996,-11,26,1
989,-160,16,1002,-19,17,-2
990,-128,-24,978,-26,-8,-7
991,-3,-61,1003,-21,-23,-12
992,133,-73,989,-15,-20,-13
993,138,-49,1010,-6,2,-8
994,52,4,1003,-5,20,-3
995,-100,15,1006,-13,26,0
996,-156,18,975,-18,8,-4
997,-100,-31,999,-23,-14,-7
998,47,-51,985,-19,-26,-15
999,149,-72,1020,-12,-13,-11
1000,135,-27,994,-9,8,-6
1001,-12,-5,1003,-9,27,1
1002,-120,20,1000,-13,20,-2
1003,-168,-7,975,-21,2,-3
1004,-57,-23,994,-19,-21,-13
1005,88,-62,1008,-19,-26,-12
1006,161,-56,1007,-9,-9,-9
1007,104,-28,991,-7,13,-3
1008,-53,26,1010,-10,27,2
1009,-150,10,981,-18,16,0
1010,-141,-11,994,-21,-7,-6
1011,-18,-59,998,-23,-24,-10
1012,127,-58,1002,-13,-23,-13
1013,157,-55,995,-7,-3,-7
1014,65,1,1002,-6,17,-2
1015,-82,19,1006,-11,26,0
1016,-160,18,995,-25,13,0
1017,-110,-33,986,-26,-12,-7
1018,32,-67,997,-18,-24,-14
1019,134,-77,1003,-12,-18,-12
1020,138,-27,994,-5,5,-7
1021,19,10,1013,-7,24,0
1022,-104,41,998,-14,23,0
1023,-154,5,984,-23,6,-3
1024,-74,-35,984,-27,-16,-10
1025,56,-81,1004,-22,-23,-13
1026,147,-73,1002,-12,-11,-11
1027,118,-41,1003,-7,11,-5
1028,-14,23,1001,-6,26,-1
1029,-127,32,1000,-14,19,-2
1030,-149,8,974,-24,1,-5
1031,-50,-40,1001,-26,-19,-10
1032,90,-64,1000,-23,-23,-12
1033,137,-66,1002,-14,-5,-8
1034,91,-27,998,-7,13,-2
1035,-48,10,1002,-11,25,1
1036,-130,15,992,-15,16,-3
1037,-141,-13,988,-23,-5,-4
1038,-11,-52,1005,-21,-21,-12
1039,107,-68,997,-16,-20,-11
1040,142,-49,996,-10,-2,-7
1041,69,-6,1008,-8,18,-3
1042,-81,17,998,-13,25,2
1043,-151,16,995,-19,10,-3
1044,-112,-39,988,-24,-11,-9
1045,15,-60,991,-18,-23,-13
1046,130,-64,1003,-11,-19,-11
1047,133,-32,1001,-7,2,-8
1048,41,7,1016,-7,22,-2
1049,-100,19,998,-16,26,0
1050,-157,0,980,-20,8,-4
1051,-84,-39,988,-23,-13,-10
1052,27,-72,997,-17,-23,-12
1053,150,-59,1005,-8,-16,-12
1054,128,-20,1006,-6,8,-6
1055,13,21,1001,-8,23,-3
1056,-115,16,1008,-16,21,-1
1057,-166,-16,967,-22,5,-3
1058,-77,-38,990,-20,-19,-11
1059,74,-69,1013,-17,-27,-14
1060,157,-53,996,-10,-12,-8
1061,127,-17,1011,-5,12,-6
1062,-24,20,999,-9,28,0
1063,-140,18,998,-17,21,-2
1064,-162,-21,974,-22,0,-5
1065,-54,-49,1002,-20,-21,-10
1066,104,-65,996,-15,-27,-13
1067,168,-45,1003,-8,-8,-10
1068,105,-1,1007,-8,16,-3
1069,-58,16,997,-15,29,1
1070,-160,11,1000,-20,19,-3
1071,-149,-30,977,-25,-7,-6
1072,-15,-54,992,-20,-25,-12
1073,129,-71,1004,-15,-24,-11
1074,157,-33,1003,-8,0,-7
1075,71,3,1007,-8,21,-2
1076,-83,23,1012,-14,28,1
1077,-167,3,975,-23,14,-1
1078,-122,-38,986,-23,-11,-8
1079,11,-68,994,-19,-27,-12
1080,148,-59,1007,-11,-21,-10
1081,151,-27,1003,-8,3,-4
1082,36,12,1003,-11,24,0
1083,-109,28,1007,-15,25,0
1084,-175,-7,970,-25,6,-2
1085,-83,-43,987,-24,-18,-9
1086,55,-77,1011,-19,-27,-11
1087,157,-59,995,-10,-14,-10
1088,123,-20,1008,-6,10,-3
1089,-17,18,999,-12,24,1
1090,-137,28,999,-18,20,1
1091,-158,-11,980,-26,-2,-4
1092,-34,-54,1007,-23,-23,-11
1093,108,-76,995,-16,-25,-13
1094,145,-53,995,-7,-6,-7
1095,80,-11,1008,-6,15,-3
1096,-75,22,1000,-10,25,2
1097,-154,24,995,-20,12,0
1098,-116,-11,993,-25,-12,-7
1099,16,-67,992,-22,-26,-12
1100,130,-74,1001,-15,-19,-10
1101,143,-45,997,-8,3,-6
1102,48,-6,1015,-6,24,-2
1103,-90,20,991,-12,25,-1
1104,-169,15,987,-19,12,-3
1105,-101,-21,984,-22,-14,-10
1106,19,-65,1005,-20,-26,-11
1107,150,-61,992,-11,-18,-12
1108,144,-38,1011,-8,6,-6
1109,26,7,999,-8,24,-1
1110,-109,19,1002,-13,24,0
1111,-175,-2,976,-22,7,-3
1112,-80,-31,981,-24,-16,-9
1113,69,-59,1015,-19,-25,-13
1114,155,-56,1005,-14,-12,-9
1115,129,-35,998,-7,11,-6
1116,-32,13,999,-9,27,2
1117,-139,14,996,-18,18,-1
1118,-149,-9,986,-21,-3,-6
1119,-37,-43,993,-22,-23,-9
1120,120,-65,1016,-16,-24,-12
1121,152,-57,986,-10,-3,-8
1122,80,-7,1009,-9,17,-2
1123,-68,16,998,-11,27,1
1124,-160,19,1000,-21,16,0
1125,-117,-23,983,-24,-9,-8
1126,11,-64,996,-22,-24,-12
1127,134,-77,1004,-15,-18,-12
1128,141,-44,991,-5,2,-8
1129,36,9,1017,-5,23,-1
1130,-101,26,993,-14,24,-1
1131,-158,13,989,-21,9,-4
1132,-86,-32,985,-24,-14,-9
1133,47,-69,1001,-20,-24,-13
1134,149,-76,993,-13,-13,-11
1135,123,-42,1008,-5,10,-6
1136,2,17,1005,-6,25,-2
1137,-122,23,996,-13,21,-1
1138,-158,13,981,-21,1,-4
1139,-57,-37,986,-25,-20,-10
1140,72,-70,1010,-19,-24,-13
1141,152,-74,1002,-13,-9,-9
1142,102,-19,1000,-7,14,-4
1143,-32,12,1002,-9,26,-1
1144,-145,29,995,-16,19,-1
1145,-148,-4,977,-23,-4,-5
1146,-25,-45,1015,-22,-23,-11
1147,107,-72,994,-20,-23,-12
1148,159,-55,1000,-10,-4,-8
1149,77,-21,1005,-7,18,-2
1150,-81,28,1000,-10,26,1
1151,-155,20,992,-18,12,-2
1152,-126,-8,992,-24,-10,-7
1153,12,-57,995,-22,-26,-11
1154,140,-73,1002,-16,-20,-10
1155,141,-49,998,-10,3,-5
1156,38,0,1010,-6,22,-1
1157,-102,16,996,-14,25,1
1158,-172,12,989,-18,7,-1
1159,-87,-27,981,-22,-17,-10
1160,42,-64,1010,-20,-25,-10
1161,153,-67,993,-14,-15,-8
1162,124,-39,1011,-6,8,-5
1163,7,5,1004,-8,24,-1
1164,-127,25,995,-11,22,0
1165,-163,6,975,-21,1,-4
1166,-61,-38,996,-24,-21,-10
1167,81,-65,997,-18,-26,-13
1168,152,-71,1012,-13,-9,-10
1169,116,-33,993,-7,13,-6
1170,-39,15,1002,-6,28,1
1171,-139,26,994,-14,16,-2
1172,-150,-4,987,-20,-3,-7
1173,-21,-45,994,-22,-20,-14
1174,111,-68,1012,-14,-21,-15
1175,155,-63,992,-9,-3,-11
1176,80,-15,1002,-3,20,-5
1177,-73,22,996,-8,28,-2
1178,-149,23,995,-15,15,-4
1179,-127,-12,987,-22,-7,-7
1180,-1,-53,997,-21,-23,-13
1181,121,-75,1005,-15,-20,-13
1182,131,-46,997,-7,1,-7
1183,61,-1,1004,-8,19,-6
1184,-79,9,1006,-11,26,-6
1185,-146,18,988,-18,11,-4
1186,-119,-13,987,-21,-10,-7
1187,9,-55,992,-22,-24,-11
1188,133,-59,1010,-15,-20,-10
1189,149,-26,989,-12,2,-7
1190,45,0,1025,-11,23,0
1191,-100,20,993,-17,25,1
1192,-170,-5,978,-22,9,-1
1193,-103,-40,985,-25,-14,-9
1194,36,-51,999,-20,-27,-10
1195,161,-64,1010,-13,-17,-10
1196,143,-18,999,-9,8,-5
1197,10,13,1006,-13,27,2
1198,-129,20,1003,-19,23,1
1199,-174,-12,967,-28,3,-3
1200,-72,-55,998,-24,-20,-9
1201,76,-70,1002,-19,-27,-10
1202,163,-63,1001,-8,-12,-8
1203,110,-16,1003,-6,11,-2
1204,-50,23,1006,-13,25,3
1205,-144,18,989,-20,16,0
1206,-144,-15,991,-25,-6,-3
1207,-15,-54,999,-25,-25,-9
1208,130,-86,1002,-15,-24,-12
1209,142,-53,998,-7,-1,-3
1210,68,-14,1002,-5,18,-1
1211,-82,22,1007,-8,26,0
1212,-172,15,986,-18,12,0
1213,-107,-15,994,-21,-12,-9
1214,18,-64,997,-20,-25,-12
1215,140,-68,999,-14,-21,-9
1216,150,-41,999,-6,2,-8
1217,40,2,1014,-6,25,-3
1218,-98,18,998,-12,25,-2
1219,-171,4,982,-18,8,-5
1220,-93,-37,981,-22,-15,-11
1221,38,-67,1000,-16,-25,-14
1222,153,-66,1006,-8,-16,-13
1223,135,-24,998,-4,8,-9
1224,8,14,1001,-6,27,-1
1225,-114,33,1006,-14,23,-1
1226,-159,7,976,-24,3,-5
1227,-61,-34,992,-25,-18,-12
1228,80,-75,1009,-21,-24,-14
1229,148,-74,1004,-10,-7,-9
1230,101,-32,991,-6,15,-6
1231,-38,23,1006,-8,26,-4
1232,-129,21,993,-16,18,-5
1233,-137,6,992,-22,-3,-6
1234,-33,-38,996,-25,-19,-10
1235,102,-57,1008,-20,-21,-13
1236,146,-66,986,-14,-4,-8
1237,75,-14,1014,-8,17,-3
1238,-67,12,991,-14,25,0
1239,-149,19,1003,-19,14,-2
1240,-114,-22,985,-25,-9,-5
1241,-9,-55,993,-22,-22,-10
1242,124,-61,1003,-16,-21,-11
1243,141,-40,1005,-11,1,-7
1244,48,-2,1002,-10,21,0
1245,-85,17,1003,-15,25,1
1246,-155,1,983,-22,9,-2
1247,-101,-23,986,-24,-13,-6
1248,31,-64,996,-22,-24,-12
1249,133,-60,1007,-13,-15,-8
1250,136,-28,1001,-9,5,-4
1251,4,6,1007,-10,24,1
1252,-111,21,995,-15,21,1
1253,-158,-13,982,-23,3,-3
1254,-65,-33,983,-21,-18,-10
1255,76,-70,1016,-19,-26,-10
1256,145,-54,996,-10,-11,-8
1257,105,-23,1007,-6,11,-4
1258,-27,19,995,-10,24,-1
1259,-146,20,1001,-18,19,1
1260,-139,0,974,-24,-3,-6
1261,-27,-57,1019,-24,-21,-9
1262,111,-74,985,-15,-23,-12
1263,144,-62,1001,-8,-4,-7
1264,83,-10,1009,-7,15,-3
1265,-72,20,992,-11,26,2
1266,-149,23,1000,-15,12,-2
1267,-117,-18,992,-24,-9,-6
1268,9,-54,991,-20,-24,-12
1269,126,-74,1003,-16,-20,-10
1270,142,-51,1002,-8,1,-8
1271,47,-4,1000,-7,22,-2
1272,-95,23,1002,-12,27,0
1273,-154,12,997,-20,9,-5
1274,-89,-23,977,-22,-13,-11
1275,30,-69,1006,-19,-23,-13
1276,143,-77,995,-11,-16,-14
1277,120,-26,1005,-2,8,-7
1278,14,12,1004,-6,23,-3
1279,-112,25,1007,-12,22,-4
1280,-145,-2,975,-22,4,-6
1281,-75,-36,993,-21,-17,-11
1282,65,-72,1002,-17,-24,-15
1283,141,-57,1016,-10,-10,-11
1284,111,-19,986,-8,10,-9
1285,-10,0,1007,-8,25,-10
1286,-117,12,996,-15,20,-5
1287,-151,-2,986,-20,2,-5
1288,-47,-36,996,-21,-18,-11
1289,82,-52,1007,-17,-22,-13
1290,139,-49,998,-13,-7,-10
1291,94,-17,998,-10,13,-7
1292,-38,2,1000,-13,25,-5
1293,-132,8,1002,-16,16,-3
1294,-126,-17,984,-21,-5,-7
1295,-27,-49,995,-20,-20,-11
1296,98,-48,1005,-14,-22,-12
1297,135,-31,999,-12,-3,-8
1298,71,-9,1005,-13,17,-2
1299,-67,16,1002,-16,24,0
1300,-136,-3,997,-24,12,-3
1301,-111,-41,979,-22,-7,-5
1302,-4,-58,996,-18,-22,-8
1303,124,-54,1002,-13,-19,-9
1304,128,-26,1005,-8,1,-3
1305,47,27,1003,-10,18,0
1306,-87,18,1011,-21,23,1
1307,-143,-5,975,-25,8,-1
1308,-95,-46,985,-28,-13,-4
1309,38,-71,1003,-19,-25,-11
1310,134,-65,1004,-12,-14,-7
1311,124,-16,1001,-7,6,-3
1312,5,12,1001,-10,23,2
1313,-118,30,1001,-17,19,0
1314,-148,-8,976,-27,1,-2
1315,-56,-46,1005,-25,-18,-8
1316,82,-70,995,-23,-24,-10
1317,147,-59,1010,-11,-8,-9
1318,89,-24,989,-7,13,-2
1319,-52,10,1003,-11,26,1
1320,-139,20,994,-16,14,0
1321,-139,-18,990,-22,-6,-4
1322,-5,-51,999,-20,-24,-12
1323,112,-73,1005,-14,-21,-11
1324,144,-48,990,-7,-3,-7
1325,65,-7,1005,-7,18,-1
1326,-78,31,1003,-10,25,1
1327,-150,19,998,-19,10,-2
1328,-106,-27,984,-25,-11,-9
1329,17,-64,998,-21,-23,-11
1330,133,-77,1003,-13,-18,-11
1331,124,-42,996,-5,3,-5
1332,33,9,1008,-6,22,-1
1333,-101,37,1007,-15,23,0
1334,-151,5,979,-21,5,-5
1335,-85,-36,989,-25,-15,-9
1336,43,-77,996,-21,-25,-13
1337,146,-75,1005,-10,-14,-10
1338,111,-33,997,-4,8,-5
1339,4,25,1007,-6,24,0
1340,-119,35,1002,-15,21,1
1341,-149,11,972,-26,-1,-3
1342,-51,-41,999,-25,-20,-10
1343,85,-75,1005,-22,-24,-12
1344,149,-70,1004,-12,-9,-7
1345,98,-25,992,-6,15,-3
1346,-41,14,1008,-9,27,2
1347,-144,28,991,-15,17,0
1348,-146,2,986,-22,-4,-4
1349,-15,-45,1010,-26,-23,-11
1350,117,-73,994,-19,-22,-12
1351,148,-65,995,-10,-2,-6
1352,72,-11,1002,-10,19,-1
1353,-74,18,1006,-10,28,0
1354,-157,25,995,-21,18,2
1355,-124,-20,982,-30,-8,-5
1356,11,-57,1005,-20,-25,-12
1357,131,-75,991,-14,-19,-9
1358,140,-42,1001,-10,3,-5
1359,36,-8,1011,-6,22,0
1360,-98,23,997,-13,23,0
1361,-158,16,982,-21,8,-2
1362,-90,-27,1000,-23,-17,-8
1363,42,-73,989,-24,-27,-13
1364,142,-75,1004,-11,-15,-10
1365,120,-36,1003,-5,7,-6
1366,3,13,1006,-5,26,-2
1367,-117,21,997,-12,21,-1
1368,-155,8,980,-20,2,-3
1369,-53,-30,993,-22,-20,-11
1370,73,-63,1008,-19,-24,-11
1371,149,-74,1004,-11,-9,-9
1372,107,-35,999,-5,13,-6
1373,-36,13,997,-7,26,0
1374,-133,24,992,-13,16,-2
1375,-145,0,988,-20,-4,-6
1376,-31,-41,999,-22,-21,-11
1377,114,-62,1009,-17,-23,-14
1378,150,-65,990,-11,-3,-9
1379,82,-16,1001,-6,18,-5
1380,-59,9,1001,-11,27,-1
1381,-154,21,995,-15,16,-3
1382,-124,-11,989,-22,-8,-8
1383,-1,-54,993,-20,-22,-13
1384,121,-68,1008,-14,-20,-11
1385,148,-50,992,-9,0,-8
1386,54,-1,1007,-5,21,-3
1387,-85,28,1000,-12,25,-3
1388,-156,13,997,-20,11,-4
1389,-103,-20,978,-23,-12,-8
1390,9,-64,1002,-22,-22,-10
1391,133,-67,999,-12,-18,-11
1392,136,-38,1000,-8,3,-5
1393,28,6,1014,-8,22,-1
1394,-100,27,996,-16,24,0
1395,-150,8,983,-24,7,-3
1396,-88,-25,985,-27,-15,-7
1397,40,-66,1002,-23,-24,-11
1398,150,-72,1015,-14,-15,-9
1399,123,-32,991,-8,9,-2
1400,2,7,1001,-9,25,0
1401,-123,27,1003,-17,20,2
1402,-161,2,973,-24,1,-2
1403,-57,-29,999,-25,-19,-9
1404,81,-72,1011,-22,-25,-8
1405,156,-60,987,-14,-10,-6
1406,113,-27,1010,-10,14,-3
1407,-43,14,994,-13,27,2
1408,-141,18,998,-20,17,2
1409,-148,-14,986,-24,-5,-4
1410,-29,-45,998,-25,-24,-8
1411,118,-70,1000,-17,-24,-11
1412,148,-46,996,-10,-2,-5
1413,79,-11,1003,-9,18,-2
1414,-69,21,1008,-13,27,0
1415,-166,10,990,-22,14,1
1416,-122,-21,986,-25,-10,-7
1417,9,-68,994,-21,-25,-11
1418,137,-61,1004,-13,-21,-10
1419,154,-37,996,-10,3,-7
1420,33,3,1022,-9,24,-1
1421,-97,14,988,-16,23,1
1422,-176,0,986,-21,9,-2
1423,-93,-34,985,-24,-17,-8
1424,42,-60,1002,-20,-27,-10
1425,166,-58,1005,-12,-18,-10
1426,136,-26,1008,-8,9,-4
1427,11,9,994,-10,28,-1
1428,-132,9,1009,-15,25,0
1429,-190,0,966,-22,4,-2
1430,-66,-47,994,-22,-22,-11
1431,88,-72,1013,-18,-28,-13
1432,166,-59,997,-10,-11,-8
1433,139,-13,1005,-4,13,-7
1434,-40,20,1005,-10,30,2
1435,-155,34,990,-17,21,0
1436,-168,-23,988,-26,-2,-6
1437,-41,-58,995,-24,-24,-11
1438,123,-73,1006,-15,-27,-12
1439,164,-55,997,-8,-5,-8
1440,97,2,1007,-6,19,-2
1441,-66,21,1001,-14,29,0
1442,-176,25,1003,-19,17,0
1443,-139,-23,978,-27,-10,-5
1444,0,-65,1001,-21,-27,-13
1445,134,-71,999,-15,-23,-10
1446,161,-40,1001,-8,0,-6
1447,56,-1,1011,-8,23,0
1448,-93,32,1003,-13,26,1
1449,-170,5,980,-23,9,-4
1450,-113,-22,988,-26,-15,-7
1451,30,-73,995,-22,-28,-12
1452,154,-69,1000,-12,-19,-12
1453,147,-35,1008,-7,6,-5
1454,26,14,1004,-9,27,0
1455,-118,25,1005,-16,25,0
1456,-180,4,973,-24,4,-2
1457,-82,-40,987,-24,-18,-10
1458,67,-71,1007,-20,-26,-12
1459,182,-35,989,-12,-12,-9
1460,140,-22,1022,-11,16,-6
1461,-29,17,1007,-13,30,5
1462,-143,16,980,-22,22,1
1463,-193,-31,988,-27,3,-5
1464,-44,-57,1004,-22,-25,-9
1465,114,-75,993,-14,-27,-15
1466,161,-45,998,-9,-7,-7
1467,107,3,1018,-10,16,-2
1468,-67,17,992,-16,31,-1
1469,-176,14,995,-21,16,3
1470,-139,-15,986,-26,-9,-8
1471,-6,-72,995,-23,-26,-12
1472,146,-64,993,-13,-25,-12
1473,164,-53,1014,-9,0,-7
1474,59,11,998,-7,22,0
1475,-95,27,1013,-16,28,4
1476,-179,16,979,-24,12,-2
1477,-117,-36,990,-26,-14,-6
1478,33,-79,989,-22,-27,-14
1479,152,-83,1009,-13,-17,-13
1480,159,-38,1001,-2,5,-8
1481,11,6,1012,-4,28,1
1482,-128,31,1000,-12,26,1
1483,-181,4,975,-23,5,-3
1484,-87,-30,989,-23,-21,-11
1485,71,-74,1002,-20,-30,-14
1486,172,-77,1011,-9,-15,-11
1487,137,-31,996,-4,11,-6
1488,-13,14,999,-4,30,1
1489,-148,34,1002,-13,22,-1
1490,-177,5,972,-23,0,-5
1491,-49,-38,1003,-25,-22,-11
1492,110,-68,1010,-21,-27,-13
1493,172,-53,986,-12,-7,-8
1494,111,-30,1016,-10,17,-2
1495,-66,8,993,-12,29,3
1496,-173,19,991,-16,19,0
1497,-154,-21,994,-21,-8,-7
1498,-11,-46,991,-21,-27,-10
1499,145,-63,1002,-13,-26,-12
1500,172,-34,1003,-10,0,-8
1501,65,-4,1006,-10,23,0
1502,-93,20,996,-15,29,2
1503,-188,3,1004,-20,13,-1
1504,-122,-39,966,-23,-16,-7
1505,29,-68,1005,-19,-30,-14
1506,155,-60,1004,-12,-21,-11
1507,162,-27,996,-7,5,-5
1508,28,10,1019,-8,26,1
1509,-120,24,994,-15,25,1
1510,-183,1,974,-21,5,-2
1511,-82,-39,988,-24,-19,-11
1512,55,-75,1006,-17,-29,-12
1513,178,-67,993,-10,-16,-11
1514,136,-26,1016,-5,11,-5
1515,-16,24,985,-7,29,2
1516,-133,27,1014,-15,22,-1
1517,-173,-6,962,-24,0,-4
1518,-51,-41,1006,-21,-22,-10
1519,112,-76,1004,-18,-26,-16
1520,159,-56,1003,-10,-6,-8
1521,108,-24,994,-4,16,-4
1522,-58,22,1014,-10,30,0
1523,-163,18,983,-18,16,-2
1524,-151,-11,987,-23,-7,-7
1525,-6,-58,1012,-24,-26,-13
1526,125,-68,985,-14,-23,-13
1527,166,-52,1004,-7,-2,-9
1528,73,0,1011,-4,21,-1
1529,-95,21,992,-11,29,1
1530,-168,12,998,-17,13,-3
1531,-128,-32,988,-22,-12,-7
1532,19,-66,984,-16,-27,-12
1533,146,-70,1012,-9,-20,-14
1534,156,-40,995,-3,3,-9
1535,36,16,1010,-3,25,-1
1536,-112,23,999,-13,26,-1
1537,-171,12,984,-17,8,-4
1538,-93,-41,979,-22,-16,-10
1539,49,-65,1001,-15,-27,-14
1540,160,-66,1010,-10,-16,-11
1541,137,-22,997,-6,8,-5
1542,8,16,1006,-7,28,-1
1543,-128,21,1004,-15,24,-2
1544,-172,-4,971,-22,3,-4
1545,-68,-41,989,-20,-20,-10
1546,81,-66,1012,-17,-27,-12
1547,164,-54,996,-9,-12,-9
1548,114,-18,1002,-7,12,-4
1549,-27,14,1000,-11,27,1
1550,-149,12,992,-18,19,0
1551,-158,-19,983,-23,-3,-4
1552,-31,-49,1007,-19,-23,-10
1553,105,-62,994,-12,-24,-11
1554,164,-49,1001,-7,-7,-9
1555,84,-9,1009,-7,17,-2
1556,-63,25,993,-13,27,2
1557,-159,11,1005,-21,15,-2
1558,-137,-36,976,-24,-8,-6
1559,0,-63,994,-18,-25,-11
1560,131,-62,1005,-11,-23,-12
1561,150,-29,997,-6,0,-6
1562,56,5,1010,-7,20,-1
1563,-89,16,1003,-14,26,1
1564,-161,8,986,-20,10,-2
1565,-103,-29,978,-23,-14,-8
1566,27,-64,1006,-19,-26,-13
1567,139,-67,996,-12,-17,-9
1568,141,-41,1011,-8,6,-6
1569,24,0,996,-9,23,-2
1570,-115,21,1011,-11,23,0
1571,-151,8,972,-19,3,-4
1572,-83,-27,987,-22,-16,-9
1573,65,-56,1013,-18,-25,-12
1574,150,-67,1006,-15,-13,-9
1575,117,-31,990,-9,10,-5
1576,-14,4,1009,-11,25,1
1577,-128,14,993,-17,21,-1
1578,-152,-10,985,-22,-1,-4
1579,-44,-35,1001,-22,-20,-10
1580,95,-68,1009,-18,-23,-12
1581,149,-52,987,-9,-7,-8
1582,98,-13,1008,-8,14,-5
1583,-53,21,1001,-13,27,0
1584,-145,15,993,-19,17,-1
1585,-131,-18,990,-26,-6,-7
1586,-14,-67,996,-21,-22,-10
1587,118,-73,997,-13,-22,-11
1588,142,-45,997,-7,-2,-8
1589,65,-4,1013,-4,19,-3
1590,-72,29,996,-13,25,0
1591,-154,16,996,-20,12,-3
1592,-110,-18,979,-23,-11,-7
1593,13,-67,998,-23,-22,-10
1594,131,-67,997,-14,-18,-12
1595,130,-42,1001,-9,4,-6
1596,28,5,1013,-7,21,-3
1597,-107,14,991,-14,22,0
1598,-157,-2,985,-19,6,-5
1599,-90,-39,978,-23,-17,-7
1600,56,-51,1009,-16,-26,-12
1601,151,-65,1007,-12,-15,-10
1602,126,-17,999,-6,8,-6
1603,0,20,990,-9,26,-1
1604,-125,13,1011,-19,23,-2
1605,-162,-15,973,-23,1,-4
1606,-65,-51,995,-21,-18,-9
1607,89,-68,1008,-16,-25,-14
1608,147,-58,999,-7,-9,-8
1609,110,-12,994,-6,11,-5
1610,-35,29,1010,-13,28,-1
1611,-144,18,992,-19,17,-2
1612,-138,-16,991,-25,-3,-5
1613,-26,-62,988,-22,-21,-12
1614,96,-65,1007,-15,-22,-9
1615,152,-46,994,-9,-5,-8
1616,75,0,1010,-7,16,-3
1617,-62,24,998,-15,24,0
1618,-146,11,999,-23,13,-3
1619,-116,-43,980,-23,-8,-7
1620,0,-64,990,-18,-24,-9
1621,125,-60,1008,-11,-19,-10
1622,141,-19,996,-7,1,-6
1623,41,20,1013,-11,22,0
1624,-87,30,1000,-20,23,-1
1625,-149,-19,981,-28,10,-3
1626,-94,-56,985,-25,-13,-6
1627,28,-82,994,-16,-22,-11
1628,135,-60,1013,-6,-15,-12
1629,118,-19,997,-4,6,-5
1630,5,29,1001,-8,23,-2
1631,-106,24,1007,-17,21,-2
1632,-150,-2,971,-24,4,-3
1633,-62,-38,999,-24,-16,-9
1634,67,-76,1006,-20,-23,-11
1635,136,-68,1002,-11,-9,-8
1636,105,-42,989,-6,10,-6
1637,-32,14,1008,-6,25,-2
1638,-120,10,990,-13,16,-3
1639,-143,0,988,-17,-1,-5
1640,-31,-28,1002,-20,-21,-11
1641,91,-49,1004,-16,-22,-11
1642,134,-35,990,-13,-7,-6
1643,91,-24,1008,-12,13,-4
1644,-52,1,998,-12,24,-1
1645,-140,-5,998,-18,13,-1
1646,-120,-22,989,-19,-8,-7
1647,-12,-54,988,-17,-23,-11
1648,114,-53,1006,-11,-21,-10
1649,129,-28,1000,-9,-3,-6
1650,62,10,1000,-7,16,-3
1651,-66,29,1009,-17,24,-2
1652,-147,6,985,-25,11,-2
1653,-101,-45,984,-25,-11,-8
1654,11,-76,995,-19,-22,-11
1655,131,-77,1005,-10,-17,-8
1656,133,-18,1001,-4,4,-6
1657,24,31,1008,-8,23,-1
1658,-96,30,1004,-16,22,0
1659,-149,0,978,-26,5,-4
1660,-75,-50,984,-27,-15,-8
1661,55,-73,1011,-19,-23,-11
1662,136,-70,1002,-11,-12,-8
1663,114,-25,988,-5,9,-6
1664,-12,18,1008,-8,25,-2
1665,-117,30,992,-17,20,-1
1666,-149,-6,988,-23,2,-4
1667,-41,-49,1002,-25,-19,-9
1668,88,-76,1000,-18,-22,-11
1669,142,-53,992,-7,-7,-9
1670,94,-20,1008,-9,16,-5
1671,-52,19,999,-10,26,-1
1672,-132,30,991,-17,16,-1
1673,-136,-9,1000,-27,-3,-4
1674,-19,-48,986,-24,-22,-11
1675,118,-95,1003,-17,-20,-14
1676,145,-59,992,-7,-1,-6
1677,46,5,1014,-4,18,1
1678,-99,6,1003,-13,24,-6
1679,-172,-27,979,-17,11,-12
1680,-73,-20,986,-11,-19,-5
1681,39,-28,1012,-14,-26,-12
1682,133,-33,1000,-13,-17,-15
1683,150,-28,1008,-11,5,-15
1684,27,-8,994,-14,25,-7
1685,-106,13,1006,-16,25,0
1686,-170,-4,981,-22,8,-4
1687,-100,-48,975,-24,-15,-7
1688,40,-43,1013,-15,-27,-11
1689,158,-66,1009,-4,-17,-12
1690,138,-17,993,-1,3,-8
1691,18,13,1001,-7,25,0
1692,-116,24,1010,-20,25,-2
1693,-165,1,972,-24,5,-3
1694,-72,-46,995,-26,-16,-8
1695,66,-72,1005,-23,-24,-12
1696,149,-67,994,-11,-10,-8
1697,117,-29,1007,-8,11,-6
1698,-32,12,996,-9,25,0
1699,-133,13,1006,-13,19,-3
1700,-142,-10,985,-21,-3,-5
1701,-35,-38,995,-19,-22,-10
1702,104,-61,994,-15,-24,-11
1703,142,-40,1006,-12,-4,-7
1704,84,-7,998,-10,16,-4
1705,-62,12,1004,-16,25,0
1706,-142,4,1002,-20,14,-3
1707,-128,-31,980,-22,-7,-5
1708,2,-59,990,-19,-23,-10
1709,113,-55,1007,-13,-18,-11
1710,142,-32,995,-9,0,-7
1711,51,6,1017,-10,20,-2
1712,-88,22,996,-18,25,1
1713,-146,-4,986,-23,9,-2
1714,-96,-44,983,-25,-11,-6
1715,30,-59,999,-17,-23,-9
1716,134,-45,1009,-13,-15,-7
1717,128,-19,1002,-11,5,-3
1718,11,7,994,-15,24,1
1719,-116,6,1011,-19,21,1
1720,-154,-20,974,-24,2,-2
1721,-71,-53,988,-22,-18,-7
1722,73,-64,1011,-16,-24,-10
1723,142,-49,1001,-10,-11,-8
1724,106,-8,997,-7,11,-3
1725,-27,18,1002,-13,25,-2
1726,-131,9,993,-19,17,-2
1727,-149,-25,990,-22,-3,-4
1728,-36,-53,994,-19,-22,-10
1729,106,-72,1004,-10,-22,-11
1730,142,-38,990,-7,-6,-7
1731,83,6,1008,-7,14,-3
1732,-54,22,1005,-15,24,0
1733,-150,9,994,-23,16,1
1734,-123,-35,984,-26,-8,-5
1735,0,-72,996,-19,-23,-10
1736,114,-71,999,-11,-20,-8
1737,139,-19,991,-5,-2,-2
1738,46,19,1027,-7,18,1
1739,-73,35,987,-19,23,0
1740,-139,-1,997,-26,10,0
1741,-93,-36,985,-27,-12,-5
1742,23,-79,992,-22,-21,-8
1743,133,-72,1006,-10,-15,-6
1744,111,-27,999,-6,6,0
1745,22,20,1001,-8,21,-1
1746,-97,18,1005,-16,21,0
1747,-153,7,979,-21,4,-1
1748,-61,-38,989,-25,-16,-10
1749,57,-70,1008,-21,-21,-11
1750,134,-67,997,-12,-10,-5
1751,115,-21,1001,-8,9,-3
1752,-28,18,998,-11,25,1
1753,-121,20,995,-19,17,-2
1754,-139,-18,995,-22,-2,-6
1755,-35,-58,994,-20,-18,-10
1756,100,-72,1001,-12,-21,-14
1757,141,-49,997,-4,-4,-9
1758,79,-1,998,-4,17,-3
1759,-56,38,1000,-13,25,-1
1760,-136,14,1008,-20,14,-4
1761,-127,-24,985,-25,-8,-7
1762,0,-60,994,-23,-22,-12
1763,113,-83,1007,-13,-17,-12
1764,140,-40,989,-7,1,-8
1765,47,0,1014,-5,20,-3
1766,-79,33,999,-13,24,-1
1767,-155,13,996,-21,10,-1
1768,-96,-29,982,-24,-12,-7
1769,27,-66,1000,-24,-23,-11
1770,132,-64,995,-13,-16,-11
1771,131,-33,1006,-8,5,-5
1772,24,14,1007,-11,24,-1
1773,-107,25,1002,-17,24,-1
1774,-156,-5,975,-25,6,-3
1775,-81,-46,996,-23,-16,-6
1776,60,-73,991,-18,-25,-12
1777,144,-56,1013,-10,-12,-8
1778,122,-19,999,-7,10,-3
1779,-16,21,1002,-9,26,1
1780,-126,21,996,-18,18,0
1781,-152,-6,987,-24,-1,-3
1782,-45,-54,989,-25,-20,-10
1783,88,-69,1011,-17,-24,-10
1784,144,-55,996,-10,-8,-6
1785,94,-11,996,-8,15,-3
1786,-52,23,1006,-14,26,1
1787,-146,16,994,-20,15,0
1788,-132,-25,991,-26,-7,-4
1789,-8,-65,995,-23,-22,-8
1790,119,-65,1006,-14,-23,-10
1791,146,-39,995,-11,-2,-6
1792,54,12,1006,-9,20,-1
1793,-93,28,1001,-17,25,2
1794,-155,1,995,-27,9,-1
1795,-101,-54,986,-28,-14,-7
1796,27,-78,993,-18,-26,-9
1797,143,-68,1005,-10,-18,-9
1798,130,-24,995,-4,5,-6
1799,20,21,1013,-7,23,-1
1800,-104,23,1005,-16,22,-1
1801,-165,-4,972,-22,6,-3
1802,-75,-47,988,-23,-17,-10
1803,44,-70,1007,-15,-25,-12
1804,150,-67,999,-8,-15,-9
1805,129,-19,1005,-2,9,-5
1806,-3,23,999,-8,26,1
1807,-128,25,1001,-16,21,-1
1808,-164,-12,980,-24,2,-5
1809,-63,-62,985,-21,-20,-10
1810,84,-76,1012,-15,-26,-13
1811,164,-54,1005,-5,-11,-10
1812,112,0,993,-3,13,-4
1813,-33,38,1007,-11,28,0
1814,-146,25,999,-20,20,-2
1815,-148,-27,978,-26,-3,-6
1816,-25,-71,1009,-23,-21,-11
1817,110,-82,996,-13,-22,-12
1818,157,-48,991,-5,-6,-8
1819,80,8,1012,-3,17,-4
1820,-72,35,998,-12,26,0
1821,-150,45,989,-23,15,-3
1822,-147,-42,996,-33,-6,-6
1823,0,-70,996,-24,-25,-11
1824,156,-97,999,-14,-23,-13
1825,148,-36,994,-5,2,-6
1826,55,11,1022,-6,22,-2
1827,-98,28,994,-13,28,-1
1828,-190,25,982,-20,12,0
1829,-88,-27,988,-26,-16,-11
1830,36,-73,1005,-23,-24,-11
1831,151,-59,988,-14,-17,-9
1832,139,-30,1019,-8,7,-7
1833,13,-3,1000,-12,26,0
1834,-132,19,991,-16,24,2
1835,-153,-5,983,-21,3,-6
1836,-62,-45,992,-22,-18,-9
1837,75,-51,998,-16,-25,-12
1838,161,-52,1016,-10,-9,-9
1839,106,-8,996,-10,14,-2
1840,-31,16,999,-14,26,2
1841,-140,-3,996,-22,18,-1
1842,-156,-24,976,-24,-3,-3
1843,-23,-64,1002,-19,-21,-11
1844,108,-65,1005,-12,-21,-13
1845,151,-41,997,-6,-4,-8
1846,81,8,1003,-5,17,-3
1847,-75,32,1001,-15,27,0
1848,-162,12,993,-21,13,-2
1849,-118,-36,988,-26,-11,-8
1850,-1,-73,998,-20,-24,-11
1851,135,-73,998,-9,-21,-11
1852,145,-40,1002,-4,1,-8
1853,48,11,1000,-6,20,-2
1854,-94,31,1003,-15,25,0
1855,-164,16,992,-22,10,-4
1856,-97,-39,984,-24,-13,-8
1857,33,-72,993,-19,-24,-12
1858,136,-73,1004,-13,-16,-10
1859,133,-27,997,-6,6,-7
1860,6,22,1011,-7,24,1
1861,-106,29,999,-17,21,-1
1862,-154,1,983,-23,3,-3
1863,-72,-42,986,-26,-18,-7
1864,67,-70,1002,-20,-25,-13
1865,146,-69,1007,-12,-10,-8
1866,110,-16,991,-8,10,-1
1867,-17,12,1014,-10,25,1
1868,-130,25,987,-17,19,1
1869,-151,-14,985,-24,-2,-3
1870,-27,-44,993,-22,-23,-12
1871,82,-78,1012,-19,-22,-8
1872,163,-50,994,-10,-6,-10
1873,81,-15,1009,-8,18,-1
1874,-51,27,993,-12,25,1
1875,-149,15,994,-21,16,0
1876,-137,-23,990,-24,-7,-6
1877,-2,-60,1001,-24,-25,-10
1878,125,-80,1003,-16,-21,-11
1879,140,-38,990,-6,-1,-6
1880,56,6,1013,-9,19,-1
1881,-90,28,997,-15,24,2
1882,-158,10,993,-23,9,0
1883,-91,-40,989,-27,-14,-8
1884,30,-77,998,-20,-24,-10
1885,139,-70,996,-12,-17,-9
1886,127,-28,1000,-6,4,-5
1887,15,10,1011,-8,21,0
1888,-111,19,993,-16,21,0
1889,-151,-5,989,-21,4,-3
1890,-70,-44,990,-21,-18,-8
1891,55,-72,998,-17,-25,-11
1892,153,-53,998,-6,-13,-9
1893,107,-8,1009,-5,10,-4
1894,-15,26,1005,-11,23,1
1895,-121,19,995,-18,18,-2
1896,-152,-25,983,-25,0,-4
1897,-36,-60,987,-23,-22,-11
1898,85,-84,1006,-14,-23,-12
1899,145,-41,1005,-6,-7,-7
1900,92,0,1000,-6,15,-4
1901,-43,40,1000,-11,26,-1
1902,-137,18,998,-23,15,0
1903,-136,-26,978,-26,-6,-7
1904,-16,-78,1006,-22,-23,-10
1905,119,-75,1000,-14,-22,-12
1906,138,-51,995,-6,0,-7
1907,67,17,1003,-2,18,-3
1908,-74,35,1001,-14,26,0
1909,-150,28,995,-23,13,-2
1910,-109,-40,992,-28,-9,-7
1911,21,-77,997,-21,-22,-13
1912,128,-76,998,-12,-16,-10
1913,127,-35,997,-7,5,-5
1914,30,12,1007,-6,23,-2
1915,-103,25,999,-14,23,1
1916,-144,11,988,-23,7,-3
1917,-81,-33,996,-23,-14,-8
1918,46,-67,994,-21,-24,-12
1919,141,-68,995,-13,-13,-9
1920,115,-25,1007,-7,10,-5
1921,-5,12,1006,-9,24,2
1922,-125,22,993,-19,20,2
1923,-144,-5,985,-23,0,-4
1924,-50,-48,996,-24,-19,-10
1925,76,-65,996,-18,-22,-12
1926,144,-51,1010,-10,-7,-9
1927,92,-16,998,-9,14,-2
1928,-47,16,994,-11,25,3
1929,-134,12,1001,-18,15,-1
1930,-139,-23,976,-25,-5,-5
1931,-15,-55,998,-20,-22,-10
1932,110,-67,1010,-13,-22,-11
1933,141,-33,1004,-8,-3,-6
1934,64,-1,998,-9,17,0
1935,-76,23,995,-17,25,2
1936,-150,4,995,-23,10,-1
1937,-116,-44,984,-25,-11,-5
1938,17,-74,1010,-21,-25,-11
1939,134,-67,993,-10,-19,-10
1940,126,-23,998,-4,3,-5
1941,36,20,1006,-9,18,-1
1942,-100,31,995,-15,23,0
1943,-148,-5,995,-25,6,-3
1944,-87,-55,992,-23,-16,-8
1945,49,-89,992,-16,-25,-13
1946,138,-68,1005,-5,-14,-11
1947,118,-3,995,-2,7,-5
1948,1,29,1014,-8,24,-1
1949,-113,37,999,-19,19,-1
1950,-145,-12,981,-27,2,-4
1951,-51,-64,993,-24,-18,-10
1952,71,-96,998,-15,-22,-12
1953,142,-49,994,-4,-9,-9
1954,97,-1,1010,-4,13,-4
1955,-25,55,1006,-10,25,0
1956,-129,15,992,-22,16,-1
1957,-131,-10,980,-27,-4,-8
1958,-25,-83,999,-27,-20,-10
1959,95,-74,995,-13,-20,-11
1960,139,-51,1011,-8,-3,-6
1961,80,12,999,-5,15,-4
1962,-63,34,995,-14,24,1
1963,-139,18,995,-24,13,-2
1964,-128,-37,988,-25,-8,-7
1965,11,-72,1004,-22,-23,-11
1966,119,-80,998,-13,-18,-10
1967,142,-36,994,-5,2,-6
1968,36,9,1010,-6,20,0
1969,-89,30,984,-14,24,0
1970,-151,-1,1007,-21,9,-3
1971,-90,-42,978,-24,-13,-9
1972,36,-86,1008,-18,-24,-12
1973,137,-54,993,-7,-15,-12
1974,108,-17,1001,-7,8,-5
1975,24,34,1008,-7,21,-4
1976,-117,15,999,-18,23,1
1977,-142,-6,982,-25,4,-5
1978,-63,-70,998,-23,-14,-10
1979,56,-74,990,-13,-21,-15
1980,142,-57,1000,-6,-10,-10
1981,104,-1,1004,-1,11,-6
1982,-19,33,1011,-9,23,1
1983,-119,22,986,-17,19,-3
1984,-147,-23,988,-25,1,-5
1985,-42,-58,986,-21,-20,-12
1986,80,-74,1006,-14,-23,-14
1987,141,-53,1002,-6,-7,-9
1988,85,2,1004,-3,13,-4
1989,-38,26,997,-11,24,-1
1990,-142,16,997,-19,16,-1
1991,-131,-22,976,-24,-6,-7
1992,-16,-62,1009,-20,-22,-11
1993,110,-71,996,-16,-22,-11
1994,141,-48,1005,-6,-2,-6
1995,70,0,995,-4,16,-2
1996,-72,30,1002,-12,27,2
1997,-147,18,987,-19,13,-1
1998,-115,-18,1003,-25,-10,-7
1999,19,-71,996,-23,-23,-13
2000,120,-72,1004,-13,-16,-9
2001,134,-44,988,-9,1,-5
2002,33,-2,1010,-6,20,0
2003,-92,36,988,-11,23,1
2004,-154,15,1009,-21,8,-3
2005,-83,-26,980,-24,-16,-10
2006,44,-84,1001,-22,-23,-11
2007,141,-86,999,-12,-16,-9
2008,116,-33,993,-2,8,-4
2009,5,24,1015,-4,22,-1
2010,-114,30,999,-14,21,0
2011,-149,6,976,-21,3,-4
2012,-54,-48,1001,-24,-18,-11
2013,65,-84,994,-16,-23,-12
2014,142,-70,998,-7,-11,-8
2015,99,-18,1009,-2,10,-4
2016,-25,33,993,-7,23,-1
2017,-123,28,1005,-15,16,0
2018,-136,-2,974,-25,-2,-5
2019,-35,-58,1001,-22,-20,-12
2020,94,-80,999,-17,-23,-12
2021,134,-64,1009,-6,-5,-8
2022,81,-9,988,0,14,-3
2023,-47,33,1007,-8,25,1
2024,-127,30,991,-16,14,-2
2025,-128,-11,992,-24,-6,-6
2026,-7,-66,1001,-25,-22,-12
2027,101,-79,1002,-14,-19,-9
2028,140,-55,987,-6,-3,-7
2029,62,-2,1012,-4,16,-1
2030,-70,31,989,-8,23,0
2031,-147,27,1009,-12,11,-2
2032,-102,-28,985,-27,-10,-8
2033,4,-68,999,-22,-21,-10
2034,118,-74,999,-13,-19,-10
2035,125,-45,993,-8,1,-7
2036,39,7,1006,-6,20,-1
2037,-90,27,1007,-13,21,0
2038,-146,14,989,-21,8,-3
2039,-83,-35,991,-23,-12,-9
2040,28,-78,997,-20,-22,-12
2041,128,-77,998,-10,-15,-10
2042,121,-27,1001,-3,5,-7
2043,19,9,1007,-6,21,-1
2044,-101,39,1000,-13,21,-2
2045,-141,2,988,-23,4,-5
2046,-68,-46,987,-24,-16,-10
2047,48,-73,1001,-17,-22,-12
2048,132,-64,1006,-9,-12,-11
2049,110,-25,1001,-4,8,-7
2050,-5,17,987,-5,23,-1
2051,-109,25,1015,-15,19,-3
2052,-148,-6,971,-22,2,-6
2053,-47,-45,1002,-21,-17,-11
2054,67,-69,1007,-16,-24,-12
2055,133,-60,995,-8,-10,-9
2056,105,-16,1002,-4,9,-7
2057,-27,10,998,-11,24,-2
2058,-120,27,1003,-12,17,-3
2059,-136,-8,996,-22,-2,-5
2060,-43,-49,990,-20,-19,-10
2061,79,-72,1000,-15,-23,-11
2062,122,-62,1004,-10,-8,-10
2063,84,-32,988,-3,9,-7
2064,-27,29,1002,-4,23,-2
2065,-115,34,1013,-15,17,-4
2066,-113,-3,994,-20,-3,-5
2067,-35,-49,976,-24,-18,-7
2068,75,-81,1008,-17,-21,-8
2069,105,-59,994,-8,-9,-7
2070,80,-23,995,-4,8,-5
2071,-24,30,1005,-5,21,-5
2072,-103,32,1000,-17,15,-5
2073,-96,-6,991,-24,-4,-6
2074,-23,-58,986,-24,-16,-7
2075,62,-78,1006,-17,-15,-8
2076,108,-59,996,-8,-4,-8
2077,60,-21,998,-6,11,-7
2078,-32,24,1002,-8,19,-5
2079,-109,15,1002,-16,12,-6
2080,-90,-17,984,-20,-5,-7
2081,-11,-43,1003,-19,-18,-8
2082,78,-63,997,-14,-16,-9
2083,106,-38,994,-7,-4,-8
2084,48,1,995,-8,13,-5
2085,-45,35,1005,-15,19,-3
2086,-107,12,1001,-21,11,-3
2087,-75,-30,999,-27,-7,-5
2088,12,-62,983,-24,-17,-5
2089,79,-66,1005,-15,-12,-7
2090,94,-45,985,-11,0,-5
2091,20,9,1003,-8,17,-4
2092,-69,22,1012,-17,19,-3
2093,-106,-2,1004,-24,6,-2
2094,-52,-39,979,-20,-11,-3
2095,36,-68,1002,-18,-17,-5
2096,79,-57,985,-11,-10,-6
2097,81,-24,1011,-6,3,-4
2098,1,17,996,-11,16,-4
2099,-78,23,1005,-17,16,-1
2100,-94,-3,993,-23,0,-4
2101,-36,-52,993,-26,-13,-6
2102,48,-72,988,-15,-15,-7
2103,92,-53,1003,-10,-6,-6
2104,60,-23,998,-8,8,-7
2105,-27,13,1004,-9,17,-4
2106,-98,18,1000,-16,10,-4
2107,-83,-19,992,-20,-5,-7
2108,-15,-59,991,-19,-15,-8
2109,70,-67,1008,-13,-16,-8
2110,96,-46,991,-7,-4,-8
2111,35,3,992,-4,12,-7
2112,-36,33,1007,-13,16,-4
2113,-101,13,1004,-18,7,-5
2114,-70,-24,986,-24,-8,-5
2115,12,-63,1010,-19,-17,-7
2116,77,-78,983,-11,-13,-9
2117,77,-47,994,-5,1,-4
2118,13,13,996,-6,13,-4
2119,-64,25,1011,-12,15,-3
2120,-101,10,998,-19,3,-2
2121,-45,-37,1000,-23,-12,-4
2122,30,-75,989,-19,-18,-5
2123,82,-58,989,-9,-10,-2
2124,71,-20,1001,-5,5,-1
2125,-3,17,1001,-11,17,3
2126,-75,30,1009,-18,13,4
2127,-86,-4,996,-25,0,2
2128,-32,-49,994,-22,-11,-3
2129,46,-66,989,-17,-17,-3
2130,88,-48,996,-11,-6,-6
2131,61,-19,1006,-8,8,-4
2132,-10,16,998,-13,17,-1
2133,-86,9,1006,-19,13,-3
2134,-85,-19,988,-23,-1,-4
2135,-26,-57,995,-20,-14,-7
2136,59,-81,996,-14,-15,-9
2137,82,-51,990,-4,-5,-5
2138,52,-7,1004,-3,10,-6
2139,-34,19,1004,-7,17,-5
2140,-93,17,992,-16,9,-3
2141,-71,-21,1002,-18,-6,-7
2142,-2,-49,997,-18,-16,-7
2143,74,-62,992,-11,-15,-8
2144,89,-37,1003,-5,-2,-9
2145,30,6,984,-7,13,-6
2146,-47,28,1017,-13,18,-5
2147,-96,6,991,-19,7,-5
2148,-62,-36,1012,-22,-8,-6
2149,12,-53,976,-16,-17,-8
2150,86,-63,1009,-13,-11,-8
2151,80,-29,983,-9,2,-6
2152,13,8,1007,-11,15,-3
2153,-56,21,1005,-16,16,-5
2154,-91,2,1004,-22,6,-4
2155,-55,-30,981,-21,-7,-6
2156,33,-54,1002,-21,-15,-9
2157,81,-55,983,-16,-8,-7
2158,75,-26,1012,-10,7,-6
2159,-2,4,996,-12,17,-4
2160,-76,15,1005,-17,17,-3
2161,-89,-6,995,-22,2,-3
2162,-38,-40,995,-23,-11,-6
2163,42,-65,986,-18,-15,-7
2164,92,-52,1003,-15,-4,-6
2165,53,-31,1002,-11,8,-5
2166,-18,13,1000,-10,17,-1
2167,-95,13,1002,-18,13,-3
2168,-80,-11,987,-21,-3,-8
2169,-18,-51,996,-21,-15,-8
2170,66,-67,1007,-13,-15,-8
2171,87,-52,984,-7,-3,-6
2172,43,-8,999,-6,12,-5
2173,-40,25,1007,-9,16,-3
2174,-102,10,994,-17,8,-3
2175,-69,-21,1001,-20,-8,-8
2176,13,-65,999,-19,-16,-6
2177,67,-67,983,-11,-11,-7
2178,86,-32,1002,-5,0,-5
2179,18,7,996,-7,13,-4
2180,-54,29,1005,-14,16,-2
2181,-95,13,1008,-22,4,-3
2182,-59,-27,988,-25,-9,-5
2183,29,-61,991,-21,-18,-6
2184,82,-64,996,-14,-10,-6
2185,75,-28,992,-10,5,-4
2186,2,2,1008,-13,15,-1
2187,-74,18,1005,-16,15,-1
2188,-90,-2,996,-22,1,-3
2189,-37,-49,992,-22,-13,-8
2190,43,-76,990,-17,-17,-6
2191,90,-57,999,-7,-7,-6
2192,56,-19,1004,-6,9,-3
2193,-15,26,1000,-10,18,0
2194,-84,19,1000,-18,12,-2
2195,-80,5,992,-23,-2,-6
2196,-17,-49,989,-27,-14,-8
2197,67,-70,1007,-19,-12,-8
2198,85,-52,984,-14,-2,-4
2199,45,-8,1004,-9,13,-4
2200,-39,18,1004,-15,17,-2
2201,-102,12,999,-23,10,-3
2202,-72,-28,994,-23,-6,-6
2203,1,-75,1007,-22,-15,-8
2204,78,-87,986,-11,-12,-9
2205,86,-48,1008,-1,0,-7
2206,13,1,982,-3,12,-5
2207,-54,38,1019,-8,15,-5
2208,-104,16,992,-19,5,-5
2209,-46,-23,1005,-22,-11,-7
2210,33,-59,986,-18,-17,-9
2211,91,-63,997,-11,-9,-8
2212,75,-33,993,-8,5,-7
2213,0,10,997,-10,18,-3
2214,-76,24,1016,-17,17,-4
2215,-99,1,990,-23,2,-5
2216,-41,-42,988,-22,-11,-10
2217,53,-84,1004,-18,-16,-10
2218,81,-66,980,-9,-6,-7
2219,70,-17,1016,-3,8,-7
2220,-12,13,999,-7,17,-7
2221,-91,23,998,-13,13,-5
2222,-86,2,993,-20,-2,-9
2223,-25,-45,993,-23,-13,-10
2224,58,-70,991,-15,-16,-9
2225,93,-51,1004,-7,-4,-7
2226,51,-18,998,-6,11,-5
2227,-32,25,1001,-8,17,-4
2228,-97,18,995,-18,10,-5
2229,-74,-13,988,-23,-4,-7
2230,-8,-45,1002,-21,-15,-7
2231,74,-64,999,-18,-13,-8
2232,86,-37,990,-12,0,-5
2233,40,-4,1000,-12,13,-4
2234,-48,27,1003,-19,17,-1
2235,-92,14,995,-25,8,-4
2236,-63,-31,1004,-28,-6,-8
2237,17,-67,987,-25,-13,-6
2238,78,-70,996,-15,-9,-8
2239,76,-45,988,-12,4,-5
2240,6,9,1004,-8,16,-5
2241,-64,26,1010,-18,15,-3
2242,-95,6,1002,-24,4,-5
2243,-38,-49,989,-26,-11,-8
2244,41,-86,995,-19,-14,-9
2245,77,-59,990,-8,-6,-8
2246,63,-25,999,-6,6,-7
2247,-17,17,1007,-7,18,-6
2248,-89,25,998,-15,13,-2
2249,-81,3,999,-18,-2,-7
2250,-26,-51,988,-25,-13,-7
2251,63,-73,990,-17,-14,-8
2252,90,-57,999,-10,-4,-7
2253,48,-12,998,-6,12,-5
2254,-36,33,1002,-9,17,-3
2255,-92,21,997,-20,10,-5
2256,-80,-23,994,-25,-4,-6
2257,-2,-54,993,-21,-15,-7
2258,77,-76,1009,-16,-14,-9
2259,90,-53,983,-5,0,-5
2260,32,-5,998,-5,12,-3
2261,-57,41,1007,-11,19,-3
2262,-105,22,993,-21,7,-5
2263,-60,-20,1000,-25,-9,-6
2264,17,-64,995,-25,-15,-6
2265,93,-84,997,-16,-10,-8
2266,84,-42,993,-6,4,-6
2267,6,9,998,-7,17,-3
2268,-74,34,1012,-15,17,-3
2269,-108,9,996,-24,4,-4
2270,-40,-47,1002,-25,-12,-8
2271,40,-80,987,-17,-18,-8
2272,97,-79,995,-9,-10,-7
2273,69,-30,998,-4,6,-5
2274,-16,19,995,-7,17,-3
2275,-84,34,1018,-11,14,-6
2276,-94,9,985,-22,-1,-4
2277,-21,-46,994,-22,-15,-8
2278,64,-75,995,-19,-16,-7
2279,90,-59,994,-12,-3,-6
2280,65,-16,1008,-7,10,-6
2281,-28,26,995,-13,19,-4
2282,-98,29,1001,-19,12,-3
2283,-83,-13,992,-25,-4,-6
2284,-16,-55,990,-24,-14,-8
2285,71,-75,1001,-16,-15,-8
2286,100,-53,998,-10,-2,-6
2287,43,-2,991,-7,13,-4
2288,-47,31,1006,-15,20,-2
2289,-107,27,998,-21,10,-4
2290,-67,-25,990,-26,-6,-6
2291,8,-55,1002,-23,-16,-7
2292,85,-83,997,-17,-13,-5
2293,88,-50,991,-7,1,-5
2294,17,9,995,-8,16,-2
2295,-65,40,1002,-15,18,-3
2296,-106,18,1007,-26,6,-3
2297,-46,-48,1002,-29,-10,-5
2298,31,-73,990,-22,-15,-7
2299,93,-78,990,-12,-10,-7
2300,74,-39,998,-6,5,-4
2301,-14,26,995,-8,17,-3
2302,-86,25,1017,-17,15,-4
2303,-96,10,994,-25,1,-5
2304,-26,-53,991,-25,-13,-7
2305,62,-80,996,-18,-14,-7
2306,84,-68,996,-11,-3,-4
2307,58,-21,997,-4,11,-5
2308,-35,23,1011,-9,18,-4
2309,-103,24,993,-17,12,-6
2310,-79,-21,998,-22,-6,-8
2311,-8,-62,991,-19,-16,-10
2312,73,-80,991,-12,-16,-11
2313,96,-56,1001,-2,-2,-9
2314,38,-1,999,-2,13,-7
2315,-46,42,1002,-7,17,-4
2316,-100,27,997,-18,8,-8
2317,-66,-19,991,-25,-8,-8
2318,6,-54,994,-21,-16,-10
2319,86,-76,1010,-16,-12,-8
2320,93,-48,987,-9,1,-7
2321,21,6,996,-6,15,-3
2322,-58,43,1005,-16,18,-4
2323,-108,17,997,-25,8,-8
2324,-54,-30,998,-30,-8,-6
2325,26,-75,1002,-26,-16,-6
2326,88,-73,982,-16,-11,-8
2327,81,-39,1004,-10,6,-6
2328,-3,11,994,-12,17,-4
2329,-74,25,1009,-17,14,-2
2330,-104,6,1001,-24,2,-5
2331,-35,-49,984,-28,-12,-8
2332,57,-78,1005,-16,-15,-8
2333,89,-59,985,-11,-6,-5
2334,68,-14,1005,-8,10,-5
2335,-26,18,1002,-10,18,-4
2336,-104,24,1008,-20,13,-3
2337,-88,-22,990,-23,-4,-7
2338,-14,-67,990,-23,-14,-9
2339,77,-69,997,-13,-15,-7
2340,90,-49,1000,-7,-2,-7
2341,46,8,998,-6,12,-6
2342,-45,25,1004,-12,18,-4
2343,-108,24,997,-19,10,-5
2344,-76,-24,990,-27,-8,-7
2345,10,-68,995,-22,-16,-10
2346,89,-77,1001,-14,-14,-6
2347,89,-45,996,-6,1,-5
2348,20,2,992,-4,15,-3
2349,-68,29,1011,-12,16,-2
2350,-119,17,991,-20,5,-4
2351,-52,-35,994,-24,-12,-8
2352,39,-68,999,-20,-18,-9
2353,96,-71,1006,-10,-10,-4
2354,86,-33,985,-5,5,-6
2355,-7,23,1000,-9,18,-2
2356,-80,35,1001,-16,15,-3
2357,-113,8,1009,-25,1,-5
2358,-30,-46,986,-29,-15,-9
2359,62,-89,1005,-18,-16,-8
2360,92,-62,983,-8,-6,-5
2361,71,-19,1007,-6,8,-3
2362,-31,26,990,-10,19,-3
2363,-97,30,1019,-18,13,-4
2364,-95,0,990,-27,-4,-7
2365,-12,-69,987,-21,-17,-10
2366,79,-80,998,-14,-17,-7
2367,95,-50,998,-10,-1,-5
2368,41,2,1002,-8,13,-5
2369,-50,32,1002,-13,19,-1
2370,-110,14,1004,-26,10,-3
2371,-80,-30,983,-26,-8,-6
2372,17,-72,995,-23,-17,-9
2373,93,-82,1001,-14,-12,-7
2374,88,-34,993,-5,3,-2
2375,19,19,1002,-8,16,-3
2376,-79,35,1005,-17,17,0
2377,-110,13,992,-24,2,-2
2378,-52,-42,988,-28,-13,-8
2379,43,-88,1002,-21,-16,-7
2380,109,-72,1005,-12,-9,-3
2381,75,-22,991,-5,7,-2
2382,-16,23,995,-8,18,0
2383,-91,39,1007,-19,13,-1
2384,-110,0,992,-26,-2,-4
2385,-26,-61,1002,-25,-15,-7
2386,77,-85,994,-19,-18,-6
2387,102,-55,999,-9,-3,-2
2388,61,-6,986,-7,10,0
2389,-41,30,1005,-12,19,-2
2390,-104,26,1005,-21,10,-2
2391,-96,-17,995,-27,-6,-5
2392,1,-69,989,-24,-18,-10
2393,89,-92,1002,-14,-15,-6
2394,91,-40,991,-4,0,-1
2395,37,15,996,-6,13,-1
2396,-60,38,1007,-13,19,-2
2397,-110,14,1002,-23,7,-2
2398,-65,-33,989,-25,-8,-5
2399,15,-73,994,-24,-17,-9
2400,99,-80,996,-14,-12,-6
2401,90,-28,993,-6,4,-2
2402,14,11,1011,-8,17,-1
2403,-78,34,998,-15,18,-1
2404,-111,10,997,-22,3,-4
2405,-51,-44,983,-27,-12,-8
2406,36,-73,998,-20,-17,-7
2407,112,-69,1003,-12,-10,-8
2408,84,-22,995,-7,8,-3
2409,-9,17,996,-9,20,-1
2410,-96,30,1013,-17,16,-2
2411,-123,-6,981,-25,-1,-3
2412,-33,-44,997,-23,-17,-9
2413,72,-89,1008,-19,-18,-9
2414,117,-60,992,-8,-5,-2
2415,60,-4,999,-6,13,3
2416,-41,27,1002,-12,21,0
2417,-107,23,997,-21,11,0
2418,-96,-15,1000,-26,-6,-7
2419,-3,-74,995,-26,-17,-9
2420,92,-80,997,-13,-16,-6
2421,101,-49,993,-7,1,0
2422,32,11,995,-6,15,0
2423,-66,32,1000,-13,19,-1
2424,-108,17,1013,-21,7,-4
2425,-80,-38,979,-27,-8,-6
2426,32,-77,1002,-19,-20,-10
2427,96,-83,1000,-11,-12,-7
2428,88,-23,985,-3,5,0
2429,10,17,1014,-7,18,0
2430,-81,31,998,-16,18,-2
2431,-114,-1,991,-21,3,-3
2432,-50,-33,994,-23,-13,-10
2433,38,-84,997,-20,-17,-9
2434,110,-69,999,-7,-9,-6
2435,75,-24,997,-6,9,0
2436,-11,26,998,-7,18,-1
2437,-84,30,1002,-17,14,-3
2438,-109,-3,992,-26,-1,-4
2439,-29,-52,986,-23,-16,-10
2440,65,-80,1010,-17,-17,-10
2441,103,-68,997,-9,-4,-4
2442,60,-12,993,-4,10,-1
2443,-30,36,995,-10,17,-1
2444,-99,36,1005,-20,12,-1
2445,-100,-13,992,-26,-5,-7
2446,-7,-71,1002,-26,-16,-10
2447,88,-84,998,-15,-16,-11
2448,100,-60,990,-5,-1,-6
2449,46,10,997,-2,14,-3
2450,-59,32,1008,-10,20,-1
2451,-113,34,995,-19,9,-4
2452,-80,-24,1002,-27,-8,-7
2453,14,-76,993,-23,-18,-10
2454,99,-93,992,-12,-14,-9
2455,102,-38,997,-4,1,-7
2456,20,13,1002,-5,17,-3
2457,-78,50,1004,-12,18,-2
2458,-118,2,1002,-25,7,-4
2459,-65,-33,986,-24,-11,-9
2460,43,-85,999,-21,-18,-10
2461,109,-73,995,-8,-10,-9
2462,89,-31,992,-4,7,-4
2463,0,29,1014,-8,20,-3
2464,-91,36,997,-16,17,-3
2465,-121,5,986,-25,1,-6
2466,-35,-57,992,-28,-15,-10
2467,54,-84,1002,-16,-18,-13
2468,118,-73,999,-7,-9,-8
2469,69,-18,999,-2,11,-5
2470,-25,41,990,-5,21,-3
2471,-95,35,1014,-19,13,-5
2472,-113,-7,977,-26,-2,-7
2473,-27,-60,1005,-24,-17,-9
2474,81,-89,1003,-17,-18,-13
2475,109,-69,993,-5,-3,-7
2476,61,-4,992,-2,13,-5
2477,-45,32,1014,-9,20,-5
2478,-109,31,984,-17,10,-4
2479,-99,-8,1007,-27,-5,-7
2480,2,-69,994,-26,-17,-11
2481,92,-86,996,-16,-13,-9
2482,100,-54,990,-7,0,-7
2483,40,5,1002,-5,16,-4
2484,-67,37,1004,-12,19,-4
2485,-113,18,1002,-20,8,-5
2486,-77,-24,989,-25,-9,-8
2487,24,-77,998,-21,-18,-12
2488,100,-85,994,-12,-12,-10
2489,97,-30,992,-4,3,-5
2490,19,15,1010,-6,17,-4
2491,-80,36,998,-15,20,-3
2492,-121,16,993,-22,5,-3
2493,-59,-42,990,-26,-13,-9
2494,39,-80,997,-20,-18,-11
2495,111,-78,1000,-10,-10,-9
2496,83,-29,996,-4,7,-6
2497,0,22,1002,-8,20,-1
2498,-94,40,1003,-16,16,-2
2499,-120,0,984,-25,0,-5
2500,-42,-53,993,-26,-15,-10
2501,55,-80,1001,-20,-17,-11
2502,116,-72,1004,-9,-7,-8
2503,80,-17,986,-4,10,-5
2504,-31,27,1007,-9,21,-3
2505,-106,36,992,-19,14,-3
2506,-116,-9,998,-24,-4,-6
2507,-16,-59,1000,-25,-19,-10
2508,85,-88,999,-15,-18,-9
2509,106,-55,991,-5,-4,-5
2510,60,1,1004,-5,12,-3
2511,-47,37,996,-12,19,-2
2512,-112,31,1010,-21,11,-3
2513,-95,-19,993,-28,-8,-6
2514,9,-77,993,-23,-20,-11
2515,92,-97,1000,-13,-17,-9
2516,93,-42,988,-3,1,-6
2517,37,13,1008,-3,14,-4
2518,-60,37,1004,-12,18,-4
2519,-115,30,997,-22,8,-4
2520,-71,-30,993,-29,-10,-8
2521,25,-79,995,-25,-17,-11
2522,101,-88,993,-13,-11,-8
2523,93,-34,998,-3,5,-5
2524,7,9,1009,-7,18,-2
2525,-78,47,994,-11,18,-3
2526,-119,4,998,-23,5,-5
2527,-46,-42,980,-27,-13,-10
2528,45,-79,1011,-20,-17,-11
2529,112,-69,996,-11,-8,-9
2530,79,-19,994,-6,9,-5
2531,-15,26,1000,-10,19,-2
2532,-99,35,1003,-19,15,-2
2533,-116,-1,990,-27,-1,-5
2534,-24,-57,998,-27,-16,-9
2535,70,-97,1004,-20,-16,-9
2536,114,-67,985,-8,-5,-6
2537,62,-1,1005,-2,13,-3
2538,-43,37,996,-11,21,-2
2539,-114,27,1002,-22,12,-1
2540,-97,-14,993,-27,-6,-7
2541,3,-72,1002,-24,-18,-11
2542,95,-87,990,-14,-15,-10
2543,108,-54,997,-6,2,-6
2544,39,6,999,-4,18,-3
2545,-74,30,1001,-10,21,-1
2546,-124,24,1003,-21,9,-6
2547,-75,-38,986,-27,-10,-10
2548,27,-82,996,-21,-18,-13
2549,107,-78,999,-10,-12,-11
2550,95,-30,997,-3,6,-6
2551,14,16,1007,-4,19,-6
2552,-83,33,1000,-14,20,-6
2553,-119,2,987,-22,4,-6
2554,-60,-36,991,-23,-12,-10
2555,32,-77,997,-18,-18,-12
2556,112,-70,1003,-10,-10,-9
2557,81,-25,1000,-4,8,-5
2558,0,17,1004,-6,18,-4
2559,-86,29,1001,-14,17,-4
2560,-123,3,988,-24,1,-5
2561,-42,-41,987,-24,-16,-10
2562,57,-70,1016,-19,-19,-10
2563,121,-63,993,-12,-9,-8
2564,91,-16,995,-5,10,-5
2565,-15,16,999,-12,21,-3
2566,-113,26,1001,-18,18,-4
2567,-118,-17,991,-24,-1,-6
2568,-33,-61,996,-22,-16,-10
2569,82,-75,997,-13,-19,-12
2570,119,-50,994,-6,-4,-9
2571,68,2,1001,-6,13,-7
2572,-40,24,994,-12,22,-6
2573,-114,14,1012,-18,13,-6
2574,-101,-21,985,-26,-4,-7
2575,-15,-59,990,-20,-16,-11
2576,85,-68,1002,-14,-17,-10
2577,108,-34,995,-10,0,-7
2578,49,3,1005,-10,16,-7
2579,-50,17,1002,-15,20,-3
2580,-114,-1,1000,-21,10,-6
2581,-86,-30,980,-21,-7,-9
2582,6,-61,997,-20,-19,-12
2583,93,-57,999,-12,-14,-10
2584,102,-23,995,-7,3,-5
2585,38,9,1011,-11,17,-4
2586,-79,13,993,-17,20,-2
2587,-118,0,990,-21,5,-6
2588,-67,-47,992,-25,-12,-9
2589,22,-55,990,-17,-17,-7
2590,117,-56,1019,-11,-13,-9
2591,96,-29,983,-10,6,-6
2592,-6,11,1004,-9,19,1
2593,-95,22,999,-19,17,-1
2594,-136,-11,991,-23,2,-4
2595,-38,-40,990,-22,-17,-9
2596,70,-63,1009,-20,-20,-9
2597,118,-53,994,-11,-7,-5
2598,83,-19,996,-9,10,-2
2599,-49,20,999,-15,23,2
2600,-121,21,996,-20,13,0
2601,-118,-19,996,-25,-6,-6
2602,-6,-62,993,-23,-21,-10
2603,108,-80,1009,-14,-20,-7
2604,111,-38,986,-7,-3,2
2605,41,15,1008,-9,14,3
2606,-60,28,995,-17,20,-1
2607,-131,3,1011,-23,9,0
2608,-74,-39,973,-25,-12,-7
2609,19,-89,1008,-20,-19,-9
2610,110,-82,992,-9,-15,-5
2611,95,-22,996,-2,5,0
2612,16,27,1011,-6,18,-1
2613,-74,36,999,-15,18,-1
2614,-114,1,991,-22,4,-3
2615,-56,-54,987,-24,-13,-8
2616,35,-81,999,-17,-18,-10
2617,115,-73,999,-6,-10,-8
2618,79,-20,998,-1,8,-4
2619,0,30,993,-6,17,-3
2620,-89,32,1013,-14,17,-3
2621,-120,-2,981,-24,0,-5
2622,-35,-47,993,-21,-15,-9
2623,68,-73,1012,-18,-16,-11
2624,112,-67,994,-10,-4,-7
2625,73,-13,992,-4,11,-5
2626,-32,27,1006,-11,20,-2
2627,-101,31,994,-19,14,-2
2628,-109,-13,995,-27,-2,-4
2629,-9,-59,1004,-25,-16,-11
2630,83,-81,994,-16,-15,-9
2631,113,-44,997,-8,-1,-7
2632,56,-9,1000,-8,14,-3
2633,-60,42,1003,-10,21,-1
2634,-119,9,999,-22,10,-2
2635,-95,-12,993,-26,-7,-6
2636,17,-73,996,-23,-19,-11
2637,106,-75,996,-14,-15,-10
2638,103,-44,996,-10,3,-5
2639,29,10,1006,-8,20,-2
2640,-90,23,1001,-16,20,1
2641,-124,13,986,-23,6,-4
2642,-72,-43,999,-25,-12,-8
2643,40,-73,989,-20,-19,-12
2644,122,-68,1004,-10,-11,-9
2645,100,-22,996,-4,8,-5
2646,-11,20,1012,-9,22,0
2647,-100,36,991,-16,19,-2
2648,-129,-15,992,-27,1,-4
2649,-43,-46,984,-24,-17,-10
2650,65,-89,1009,-17,-20,-11
2651,128,-53,1002,-8,-8,-7
2652,79,-16,1000,-7,12,-2
2653,-32,29,996,-8,22,-1
2654,-121,33,1008,-21,13,0
2655,-117,-19,976,-26,-4,-6
2656,-21,-56,1011,-21,-20,-10
2657,94,-86,995,-16,-21,-11
2658,122,-47,999,-5,-2,-6
2659,59,0,994,-5,14,-2
2660,-60,40,1002,-14,22,-1
2661,-130,13,996,-21,11,-2
2662,-101,-22,993,-25,-9,-9
2663,16,-77,1001,-21,-21,-12
2664,106,-87,998,-11,-15,-9
2665,116,-47,990,-4,0,-5
2666,38,7,1011,-2,17,-3
2667,-84,38,993,-13,21,2
2668,-133,13,1004,-23,7,-1
2669,-77,-29,984,-24,-11,-9
2670,36,-83,999,-20,-21,-11
2671,116,-75,1001,-9,-13,-9
2672,86,-36,993,-5,7,-4
2673,15,18,1013,-5,19,-1
2674,-85,32,999,-14,18,2
2675,-121,5,982,-20,3,-1
2676,-55,-33,997,-24,-15,-8
2677,48,-70,993,-19,-18,-11
2678,111,-59,1006,-11,-8,-8
2679,88,-28,994,-8,8,-5
2680,-2,22,1005,-8,21,-2
2681,-97,23,1002,-19,17,2
2682,-123,-8,983,-25,0,-2
2683,-40,-46,993,-21,-15,-11
2684,70,-63,1011,-19,-18,-9
2685,123,-55,992,-9,-7,-6
2686,77,-12,1001,-7,11,-4
2687,-36,23,997,-13,21,1
2688,-116,27,996,-20,13,2
2689,-112,-19,991,-27,-4,-6
2690,-10,-70,1002,-25,-18,-11
2691,94,-88,998,-14,-16,-11
2692,115,-40,988,-5,-2,-7
2693,52,8,1012,-5,16,-2
2694,-67,39,990,-13,21,0
2695,-126,14,1010,-23,8,-1
2696,-82,-30,980,-27,-10,-7
2697,13,-71,998,-22,-19,-11
2698,120,-86,999,-15,-15,-10
2699,98,-36,995,-5,5,-4
2700,20,8,1003,-5,19,-1
2701,-90,39,1005,-13,18,-1
2702,-129,0,989,-25,4,-3
2703,-63,-41,989,-21,-14,-8
2704,40,-74,998,-15,-24,-14
2705,126,-69,1000,-9,-11,-9
2706,89,-20,999,-7,7,-3
2707,-5,24,1005,-11,20,3
2708,-106,29,1002,-18,18,4
2709,-127,-9,979,-28,-1,-1
2710,-39,-50,992,-22,-17,-9
2711,72,-82,1012,-17,-19,-10
2712,123,-62,999,-7,-6,-6
2713,68,-13,996,-5,12,1
2714,-34,28,996,-10,19,4
2715,-113,21,1001,-20,13,4
2716,-115,-21,979,-25,-6,-1
2717,-9,-51,1010,-21,-19,-8
2718,90,-82,1002,-14,-17,-7
2719,104,-43,992,-8,0,3
2720,48,-7,997,-9,13,5
2721,-47,20,1003,-12,18,4
2722,-112,16,996,-20,8,6
2723,-87,-26,995,-23,-9,-2
2724,12,-62,1000,-18,-18,-7
2725,84,-66,996,-12,-13,-1
2726,86,-38,994,-9,2,3
2727,33,-1,998,-9,14,5
2728,-51,25,1007,-12,15,6
2729,-105,8,1002,-22,7,6
2730,-68,-27,982,-24,-9,0
2731,22,-63,1005,-18,-16,-3
2732,90,-61,991,-14,-10,0
2733,75,-35,997,-8,3,3
2734,21,10,1005,-10,14,6
2735,-63,23,1007,-17,15,6
2736,-102,-5,978,-23,3,4
2737,-50,-44,999,-24,-10,-2
2738,40,-58,993,-15,-15,-5
2739,89,-51,1007,-10,-5,1
2740,72,-16,989,-10,7,2
2741,-3,12,1006,-11,16,4
2742,-71,13,998,-19,12,4
2743,-114,-11,988,-23,1,0
2744,-24,-47,996,-20,-14,-8
2745,60,-67,1004,-15,-15,-9
2746,104,-46,992,-10,-4,-5
2747,58,-18,999,-7,10,-1
2748,-38,25,998,-13,17,3
2749,-106,9,1000,-21,10,4
2750,-95,-25,992,-23,-5,-4
2751,-4,-61,1003,-22,-17,-9
2752,92,-64,997,-11,-15,-8
2753,101,-34,995,-8,0,-2
2754,37,6,995,-11,14,1
2755,-67,26,1007,-16,18,4
2756,-116,0,993,-25,6,2
2757,-84,-32,993,-25,-11,-4
2758,27,-75,994,-19,-19,-10
2759,104,-68,1006,-10,-12,-6
2760,82,-21,986,-8,4,1
2761,5,16,1018,-11,15,4
2762,-75,20,985,-20,14,5
2763,-111,-11,1000,-23,2,1
2764,-53,-48,984,-23,-14,-4
2765,45,-72,1004,-17,-17,-4
2766,91,-55,994,-10,-6,4
2767,67,-20,997,-10,7,9
2768,-2,9,999,-12,14,7
2769,-73,23,1004,-16,10,8
2770,-104,-14,981,-23,-2,3
2771,-26,-49,997,-20,-15,-1
2772,46,-65,1002,-15,-13,4
2773,82,-59,1003,-10,-4,7
2774,61,-17,989,-8,7,7
2775,-14,19,1000,-9,13,9
2776,-74,16,1002,-19,8,9
2777,-88,-13,994,-22,-3,5
2778,-20,-53,998,-20,-12,3
2779,60,-66,1008,-16,-13,2
2780,81,-49,980,-9,-3,5
2781,54,-10,1007,-8,9,6
2782,-31,16,994,-11,13,10
2783,-86,18,1002,-19,8,10
2784,-74,-25,997,-25,-5,3
2785,1,-53,998,-18,-11,0
2786,63,-66,993,-12,-10,2
2787,78,-22,994,-9,0,3
2788,34,-7,998,-10,12,4
2789,-42,19,1009,-15,14,8
2790,-93,0,992,-21,7,7
2791,-61,-33,994,-21,-6,0
2792,14,-62,998,-17,-13,-5
2793,81,-51,995,-11,-9,-1
2794,68,-24,994,-10,4,2
2795,17,9,1013,-10,13,3
2796,-62,12,997,-17,13,6
2797,-95,-12,991,-20,3,3
2798,-51,-41,988,-21,-11,-4
2799,44,-55,1007,-15,-14,-6
2800,84,-47,1001,-11,-5,-3
2801,63,-19,992,-10,7,1
2802,-6,0,996,-12,14,4
2803,-79,14,1010,-17,12,5
2804,-104,-21,977,-23,-1,2
2805,-22,-48,1005,-19,-13,-5
2806,59,-56,1007,-14,-14,-6
2807,86,-40,986,-11,-2,-2
2808,48,-21,1000,-9,11,0
2809,-27,18,998,-13,15,5
2810,-84,12,998,-18,8,6
2811,-93,-20,993,-22,-4,2
2812,-1,-55,1007,-18,-16,-4
2813,66,-54,996,-12,-11,-7
2814,72,-45,988,-12,1,-4
2815,41,-17,999,-10,11,-1
2816,-39,6,1006,-13,14,5
2817,-91,5,998,-18,6,8
2818,-65,-19,996,-21,-7,1
2819,4,-38,998,-17,-12,-7
2820,62,-54,994,-18,-7,-9
2821,66,-49,988,-14,2,-11
2822,29,-20,1008,-10,12,-6
2823,-44,-2,1004,-15,13,3
2824,-86,0,986,-16,4,7
2825,-54,-11,1004,-19,-8,2
2826,11,-42,997,-19,-11,-8
2827,60,-53,996,-16,-6,-14
2828,67,-35,994,-15,3,-16
2829,11,-24,1001,-13,12,-10
2830,-37,-9,998,-13,9,2
2831,-87,-5,997,-14,2,10
2832,-36,-7,989,-16,-8,3
2833,14,-23,1012,-21,-10,-8
2834,64,-56,988,-18,-4,-12
2835,66,-41,1000,-14,4,-12
2836,2,-18,987,-12,11,-4
2837,-51,-10,1012,-13,8,7
2838,-86,9,987,-13,-1,8
2839,-35,-26,1013,-19,-8,4
2840,25,-36,988,-20,-9,-3
2841,64,-52,994,-18,-3,-5
2842,55,-39,988,-16,4,-5
2843,-9,-8,1001,-11,10,2
2844,-55,0,1012,-13,7,10
2845,-75,-3,994,-17,-2,11
2846,-22,-44,990,-18,-9,4
2847,39,-43,1004,-16,-11,0
2848,60,-33,982,-17,-1,-1
2849,37,-25,1008,-15,7,4
2850,-20,0,1005,-14,9,9
2851,-65,-10,998,-16,4,11
2852,-55,-19,996,-17,-4,9
2853,-9,-41,996,-16,-8,6
2854,45,-43,990,-15,-5,1
2855,58,-28,997,-14,2,0
2856,29,-24,1000,-14,9,3
2857,-29,-5,1002,-13,9,11
2858,-63,-16,996,-14,3,12
2859,-46,-23,994,-19,-2,10
2860,2,-40,997,-17,-6,4
2861,53,-42,999,-13,-3,-2
2862,56,-30,987,-15,6,-1
2863,16,-18,996,-11,12,1
2864,-43,-8,1009,-14,10,9
2865,-72,-4,987,-14,3,11
2866,-35,-26,1008,-17,-6,7
2867,22,-31,993,-17,-8,-4
2868,59,-51,996,-16,-2,-8
2869,55,-29,990,-12,4,-9
2870,-6,-21,1002,-12,11,-2
2871,-51,-6,1000,-11,7,8
2872,-72,0,1005,-14,-1,8
2873,-24,-28,996,-17,-9,-1
2874,34,-38,997,-15,-9,-11
2875,63,-37,987,-15,-1,-16
2876,48,-34,1000,-16,8,-15
2877,-17,-17,1000,-13,10,-6
2878,-64,-9,1011,-11,6,1
2879,-58,2,990,-13,-3,2
2880,-17,-29,999,-15,-8,-8
2881,52,-32,990,-18,-10,-20
2882,59,-33,1000,-16,2,-24
2883,37,-35,996,-15,10,-20
2884,-29,-22,1009,-13,12,-6
2885,-72,-11,984,-11,4,4
2886,-59,0,1004,-13,-5,2
2887,-4,-19,990,-18,-11,-10
2888,58,-37,1001,-17,-7,-18
2889,69,-26,996,-18,3,-20
2890,18,-32,997,-17,11,-14
2891,-44,-8,1001,-14,9,-4
2892,-81,-15,995,-14,2,1
2893,-44,-12,991,-12,-8,-3
2894,24,-22,1006,-17,-12,-12
2895,64,-44,999,-16,-5,-21
2896,59,-32,988,-17,4,-20
2897,0,-33,1000,-13,11,-11
2898,-58,-7,993,-11,8,1
2899,-82,-6,1007,-13,-2,3
2900,-32,-19,995,-17,-9,-6
2901,39,-43,999,-18,-10,-14
2902,66,-37,986,-15,-4,-22
2903,52,-39,1004,-16,7,-19
2904,-21,-20,991,-13,12,-10
2905,-67,-17,1009,-12,6,0
2906,-72,-7,996,-14,-4,-1
2907,-18,-29,997,-14,-10,-7
2908,43,-31,992,-16,-9,-17
2909,59,-42,995,-16,0,-23
2910,33,-32,997,-16,7,-20
2911,-18,-19,1009,-13,10,-10
2912,-69,-13,996,-13,5,2
2913,-57,-5,997,-14,-4,4
2914,-5,-24,995,-17,-11,-6
2915,45,-33,994,-16,-6,-13
2916,62,-29,996,-18,2,-15
2917,27,-23,1006,-16,9,-11
2918,-31,-15,999,-12,9,1
2919,-73,-10,996,-14,2,9
2920,-49,-13,994,-15,-7,6
2921,1,-25,1000,-17,-9,-3
2922,54,-38,997,-17,-6,-10
2923,63,-30,994,-14,1,-15
2924,16,-24,993,-14,10,-6
2925,-41,-13,1003,-13,8,5
2926,-75,0,996,-13,2,9
2927,-39,-14,1006,-17,-7,3
2928,28,-38,991,-19,-10,-6
2929,57,-40,996,-16,-3,-12
2930,56,-34,995,-15,4,-12
2931,-9,-27,1001,-14,11,-5
2932,-55,-3,996,-12,7,6
2933,-72,-10,1013,-15,-2,8
2934,-21,-21,991,-15,-10,-2
2935,35,-40,996,-16,-10,-10
2936,64,-35,991,-15,-1,-16
2937,47,-26,1000,-15,7,-14
2938,-15,-20,1000,-13,11,-6
2939,-69,-8,1009,-14,7,3
2940,-59,-8,990,-15,-3,1
2941,-12,-26,998,-14,-9,-9
2942,47,-29,990,-18,-7,-18
2943,70,-37,998,-17,2,-23
2944,36,-30,1001,-15,11,-18
2945,-32,-16,1000,-15,12,-7
2946,-68,-13,995,-11,6,1
2947,-52,-4,996,-15,-3,0
2948,-1,-25,989,-18,-7,-10
2949,57,-32,1008,-16,-5,-20
2950,66,-26,991,-19,4,-24
2951,16,-33,1001,-17,11,-19
2952,-38,-14,998,-14,11,-6
2953,-84,-22,1000,-14,5,0
2954,-40,-2,984,-11,-7,-6
2955,19,-19,1014,-19,-11,-17
2956,66,-40,992,-19,-5,-24
2957,59,-32,992,-17,5,-23
2958,1,-29,996,-14,11,-15
2959,-64,-13,999,-12,9,-3
2960,-82,-11,998,-12,-1,2
2961,-35,-19,1011,-15,-9,-5
2962,36,-28,984,-17,-11,-17
2963,73,-40,1002,-18,-3,-24
2964,53,-40,996,-16,7,-23
2965,-21,-22,992,-13,12,-11
2966,-65,-14,1009,-12,7,-1
2967,-79,-5,999,-14,-2,1
2968,-14,-26,988,-15,-11,-7
2969,45,-34,1002,-17,-11,-17
2970,65,-36,987,-18,-1,-20
2971,40,-31,1004,-15,8,-18
2972,-20,-11,999,-13,11,-7
2973,-74,-22,1000,-14,6,3
2974,-57,-2,992,-13,-5,5
2975,-8,-24,1003,-18,-11,-6
2976,53,-31,987,-17,-7,-15
2977,65,-38,1000,-17,1,-19
2978,32,-29,998,-16,10,-13
2979,-34,-10,1007,-13,10,-2
2980,-74,-9,987,-13,2,4
2981,-53,-8,993,-14,-6,0
2982,13,-26,1003,-16,-11,-12
2983,61,-35,999,-17,-4,-18
2984,68,-29,993,-18,4,-18
2985,9,-26,996,-12,11,-13
2986,-45,-5,1005,-12,10,-3
2987,-82,-9,991,-13,1,2
2988,-41,-11,1001,-15,-8,-3
2989,33,-25,1004,-20,-11,-16
2990,62,-41,984,-18,-2,-24
2991,63,-33,1001,-17,6,-20
2992,-13,-27,995,-15,13,-12
2993,-67,-14,1000,-11,10,1
2994,-82,-7,1006,-14,-3,2
2995,-25,-18,994,-14,-11,-8
2996,50,-34,992,-17,-11,-17
2997,78,-39,996,-17,-2,-24
2998,41,-31,994,-17,9,-20
2999,-25,-19,1008,-14,12,-9
3000,-80,-20,1003,-11,7,1
3001,-70,-5,990,-12,-5,2
3002,-2,-28,997,-15,-13,-11
3003,57,-33,995,-17,-9,-22
3004,71,-33,986,-18,1,-26
3005,32,-31,1014,-15,12,-21
3006,-35,-17,995,-15,13,-9
3007,-76,-24,995,-12,5,0
3008,-64,-11,988,-13,-6,-2
3009,0,-17,1003,-16,-11,-14
3010,63,-31,995,-18,-8,-26
3011,70,-37,999,-17,4,-29
3012,20,-29,988,-17,12,-23
3013,-43,-28,1015,-12,12,-11
3014,-83,-10,983,-12,2,-2
3015,-50,-5,1002,-12,-7,-5
3016,17,-15,1000,-16,-12,-17
3017,71,-29,998,-19,-5,-27
3018,62,-32,987,-17,6,-28
3019,8,-32,1003,-17,11,-19
3020,-55,-19,993,-15,10,-5
3021,-84,-10,1007,-11,0,3
3022,-32,-8,1001,-14,-9,-6
3023,37,-26,995,-17,-9,-19
3024,75,-36,987,-18,-1,-27
3025,54,-39,1003,-18,8,-25
3026,-16,-18,989,-13,13,-14
3027,-67,-22,1018,-12,8,-5
3028,-79,-3,987,-12,-4,-3
3029,-16,-22,999,-12,-11,-12
3030,46,-23,999,-16,-10,-23
3031,67,-31,986,-19,1,-29
3032,45,-37,1005,-18,8,-26
3033,-30,-34,997,-15,13,-14
3034,-76,-28,996,-11,7,-4
3035,-65,-10,1001,-10,-4,-6
3036,-11,-16,993,-15,-10,-17
3037,54,-33,994,-18,-9,-29
3038,74,-32,999,-20,-2,-35
3039,26,-42,995,-19,11,-31
3040,-37,-25,1002,-13,11,-19
3041,-79,-12,996,-9,5,-9
3042,-50,-6,991,-11,-8,-10
3043,4,-13,1000,-16,-12,-20
3044,68,-26,1009,-18,-6,-31
3045,65,-25,983,-20,5,-34
3046,14,-40,998,-18,12,-28
3047,-45,-18,1005,-14,10,-15
3048,-77,-17,994,-13,1,-5
3049,-41,-14,1003,-13,-8,-9
3050,27,-6,996,-17,-10,-21
3051,67,-36,996,-20,-5,-31
3052,62,-28,990,-18,4,-31
3053,-10,-28,996,-18,14,-21
3054,-53,-15,1010,-13,8,-11
3055,-75,-10,1000,-13,0,-5
3056,-24,-17,990,-15,-8,-10
3057,43,-20,1002,-14,-9,-22
3058,63,-24,993,-20,-1,-28
3059,53,-35,990,-21,8,-26
3060,-25,-29,1006,-15,14,-17
3061,-77,-14,997,-14,7,-5
3062,-60,-16,1003,-12,-5,-5
3063,-17,-18,988,-15,-10,-15
3064,57,-26,999,-17,-9,-26
3065,72,-33,995,-18,0,-33
3066,29,-34,1004,-18,12,-24
3067,-33,-24,999,-15,12,-12
3068,-91,-23,998,-11,5,-5
3069,-55,-7,984,-15,-6,-6
3070,4,-21,1009,-14,-12,-17
3071,67,-31,994,-17,-7,-26
3072,68,-28,994,-18,6,-27
3073,18,-33,996,-16,13,-18
3074,-51,-12,1006,-14,12,-7
3075,-83,-12,986,-13,3,-1
3076,-50,-11,1004,-13,-9,-4
3077,25,-17,998,-17,-12,-15
3078,71,-36,1001,-19,-3,-24
3079,70,-26,987,-16,6,-22
3080,-3,-33,1007,-17,13,-10
3081,-59,-9,989,-13,10,0
3082,-91,-5,1011,-13,-1,4
3083,-26,-8,996,-15,-11,-6
3084,47,-32,998,-19,-11,-15
3085,75,-37,985,-18,-3,-20
3086,53,-32,1005,-17,8,-15
3087,-19,-19,994,-13,14,-4
3088,-77,-13,1014,-13,8,6
3089,-69,-6,985,-14,-4,3
3090,-8,-20,1003,-16,-12,-6
3091,64,-33,990,-19,-10,-16
3092,72,-42,994,-17,1,-21
3093,36,-25,1005,-14,10,-13
3094,-35,-11,1003,-14,13,-1
3095,-86,-15,992,-12,6,4
3096,-64,-9,992,-14,-6,1
3097,13,-20,1006,-15,-13,-11
3098,68,-41,989,-19,-7,-22
3099,77,-38,1000,-15,5,-24
3100,20,-33,1006,-13,14,-15
3101,-53,-10,997,-10,14,-3
3102,-96,-14,987,-15,4,0
3103,-51,-12,998,-13,-9,-6
3104,24,-7,999,-16,-13,-19
3105,90,-42,1007,-21,-6,-32
3106,71,-43,987,-19,7,-31
3107,7,-43,1000,-16,16,-18
3108,-66,-15,997,-13,12,-8
3109,-100,-5,994,-12,3,-5
3110,-35,-8,1003,-13,-11,-15
3111,46,-6,1003,-17,-13,-27
3112,83,-41,984,-22,-2,-32
3113,68,-39,1003,-21,9,-29
3114,-21,-28,997,-16,16,-18
3115,-77,-8,998,-11,10,-8
3116,-93,-10,998,-15,-3,-5
3117,-25,-10,992,-11,-11,-14
3118,54,-13,999,-17,-12,-24
3119,90,-31,992,-20,-2,-30
3120,46,-46,1004,-19,10,-22
3121,-33,-25,998,-13,14,-6
3122,-95,-11,1002,-13,8,-1
3123,-72,-7,986,-13,-5,-5
3124,-11,-19,999,-15,-15,-11
3125,81,-15,998,-16,-13,-22
3126,80,-40,998,-19,2,-26
3127,27,-37,1004,-17,13,-13
3128,-54,-17,1002,-15,14,1
3129,-106,-10,984,-15,5,2
3130,-62,-15,988,-15,-11,-3
3131,28,-17,1003,-13,-16,-13
3132,90,-22,1009,-17,-9,-18
3133,82,-38,989,-20,7,-21
3134,5,-37,1001,-15,17,-12
3135,-74,-15,1003,-12,14,1
3136,-109,-14,976,-15,2,0
3137,-39,-24,1007,-13,-12,-8
3138,47,-19,1011,-13,-17,-17
3139,106,-45,991,-18,-5,-32
3140,67,-45,997,-15,11,-33
3141,-14,-37,1002,-13,18,-22
3142,-81,-22,993,-11,11,-15
3143,-94,-15,997,-8,-1,-17
3144,-31,-17,1007,-12,-12,-26
3145,46,-17,995,-15,-12,-39
3146,82,-41,991,-21,-2,-48
3147,64,-44,1001,-21,9,-51
3148,-15,-44,994,-15,15,-43
3149,-62,-28,1012,-8,9,-32
3150,-83,6,987,-8,-1,-27
3151,-30,-8,998,-13,-9,-34
3152,48,-4,1000,-19,-10,-45
3153,67,-29,989,-22,1,-53
3154,50,-39,1005,-22,9,-51
3155,-13,-35,1003,-18,11,-39
3156,-71,-25,988,-10,8,-27
3157,-66,-2,997,-11,-2,-23
3158,-22,-2,994,-15,-9,-30
3159,51,-10,999,-18,-7,-42
3160,74,-30,999,-25,2,-49
3161,33,-56,1001,-23,13,-48
3162,-26,-40,995,-13,12,-36
3163,-75,-27,1001,-9,7,-26
3164,-64,2,984,-9,-3,-26
3165,-2,6,1005,-13,-10,-31
3166,67,-13,1004,-19,-7,-41
3167,68,-30,991,-24,4,-44
3168,18,-41,996,-19,10,-38
3169,-41,-32,1004,-14,11,-26
3170,-92,-11,988,-11,5,-14
3171,-44,-5,1007,-12,-8,-16
3172,14,2,998,-17,-11,-24
3173,77,-16,986,-20,-7,-31
3174,70,-33,1008,-25,7,-33
3175,-7,-37,994,-20,14,-21
3176,-67,-32,1004,-13,9,-7
3177,-90,-4,998,-10,0,-4
3178,-36,-13,991,-12,-10,-8
3179,48,2,999,-16,-15,-18
3180,86,-26,998,-23,-4,-25
3181,58,-37,1001,-20,10,-20
3182,-28,-36,1005,-16,14,-4
3183,-89,-21,992,-16,9,3
3184,-96,-16,989,-15,-3,-1
3185,-2,-22,992,-13,-16,-9
3186,80,-18,1009,-13,-15,-13
3187,86,-13,993,-18,1,-14
3188,34,-35,1016,-20,14,-12
3189,-59,-14,989,-14,16,0
3190,-118,-13,990,-17,5,4
3191,-65,-39,983,-18,-10,-5
3192,27,-33,1008,-13,-17,-10
3193,111,-32,1006,-12,-11,-9
3194,83,-1,995,-13,6,-9
3195,5,-12,997,-16,16,-6
3196,-85,-1,1006,-18,14,1
3197,-127,-27,973,-24,1,-1
3198,-41,-50,1000,-17,-15,-8
3199,68,-56,1006,-14,-20,-11
3200,109,-36,995,-7,-5,-9
3201,74,-12,997,-9,11,-11
3202,-40,-6,999,-15,18,-5
3203,-101,6,994,-17,10,4
3204,-106,-21,999,-20,-5,0
3205,-9,-39,995,-18,-18,-8
3206,92,-46,1008,-10,-17,-14
3207,100,-34,987,-13,1,-18
3208,49,-37,997,-12,16,-18
3209,-40,-10,1010,-10,19,-8
3210,-117,-2,995,-15,10,1
3211,-82,-4,986,-15,-7,-3
3212,0,-23,1002,-16,-17,-12
3213,94,-27,1002,-16,-14,-19
3214,92,-40,986,-20,3,-26
3215,43,-29,1009,-17,17,-20
3216,-56,-18,1008,-15,18,-5
3217,-108,-13,977,-15,7,2
3218,-82,-10,993,-16,-9,-1
3219,21,-15,996,-16,-17,-10
3220,100,-17,1007,-18,-10,-13
3221,102,-30,996,-20,6,-15
3222,12,-29,1005,-19,21,-8
3223,-83,-8,1000,-16,19,1
3224,-136,-22,980,-20,4,-1
3225,-59,-34,982,-16,-14,-8
3226,55,-51,1022,-14,-19,-10
3227,117,-29,990,-9,-7,-9
3228,88,-9,1006,-9,9,-7
3229,-15,10,1002,-14,20,-3
3230,-121,4,988,-22,17,1
3231,-117,-29,990,-24,-3,-5
3232,-39,-56,1008,-20,-15,-9
3233,89,-70,984,-13,-20,-11
3234,129,-39,1009,-5,-5,-7
3235,64,-5,995,-7,14,-3
3236,-60,29,1001,-12,23,-2
3237,-126,5,999,-21,12,-3
3238,-110,-21,990,-24,-7,-5
3239,7,-65,990,-22,-21,-11
3240,110,-67,1005,-11,-17,-12
3241,102,-29,990,-9,1,-4
3242,33,2,1015,-7,17,-3
3243,-71,12,998,-14,20,-1
3244,-130,-1,988,-20,7,-3
3245,-75,-29,988,-20,-13,-7
3246,28,-57,999,-19,-21,-10
3247,118,-54,998,-12,-15,-10
3248,109,-29,1005,-9,5,-6
3249,14,6,1006,-10,19,-4
3250,-87,8,999,-16,19,-2
3251,-138,-8,984,-20,5,-4
3252,-72,-42,982,-22,-14,-9
3253,50,-60,1011,-17,-22,-12
3254,128,-53,1008,-11,-11,-8
3255,102,-16,991,-8,7,-8
3256,3,0,1007,-10,22,-7
3257,-101,5,1000,-16,19,-4
3258,-134,-13,983,-18,2,-3
3259,-56,-34,995,-18,-15,-9
3260,70,-52,1009,-17,-21,-13
3261,124,-38,999,-12,-7,-17
3262,88,-43,990,-14,13,-24
3263,-13,-18,1006,-13,23,-20
3264,-96,-16,1004,-11,15,-10
3265,-121,3,986,-16,2,-9
3266,-45,-13,999,-15,-13,-18
3267,59,-24,1008,-19,-17,-26
3268,108,-31,985,-21,-4,-31
3269,82,-40,1006,-18,11,-29
3270,-15,-28,1002,-16,18,-18
3271,-89,-13,998,-14,12,-12
3272,-94,-4,990,-14,0,-14
3273,-41,-21,991,-15,-12,-15
3274,56,-9,996,-17,-14,-17
3275,100,-26,1002,-20,-3,-22
3276,54,-31,1007,-19,13,-19
3277,-29,-22,992,-17,16,-12
3278,-89,-29,999,-14,10,-9
3279,-96,-25,982,-16,-2,-8
3280,-13,-26,996,-13,-14,-10
3281,61,-12,1007,-14,-14,-13
3282,103,-29,999,-18,-3,-21
3283,43,-35,997,-16,13,-20
3284,-49,-27,1005,-15,15,-11
3285,-102,-9,987,-14,4,-9
3286,-75,-31,989,-14,-6,-12
3287,15,-22,1005,-15,-14,-17
3288,82,-27,1000,-15,-10,-24
3289,87,-27,992,-19,4,-29
3290,15,-33,1002,-17,14,-23
3291,-61,-21,1000,-14,13,-17
3292,-96,-22,993,-13,4,-15
3293,-60,-25,1005,-12,-8,-15
3294,31,-5,985,-12,-15,-20
3295,85,-26,1006,-19,-7,-28
3296,75,-29,991,-19,7,-30
3297,-1,-37,1007,-18,15,-23
3298,-69,-18,1003,-14,12,-17
3299,-91,-25,991,-12,2,-10
3300,-44,-9,988,-11,-9,-13
3301,40,-6,1003,-16,-13,-20
3302,88,-16,995,-19,-6,-30
3303,67,-43,1002,-22,8,-25
3304,-21,-33,1006,-16,14,-13
3305,-80,-25,995,-12,10,-8
3306,-84,-19,988,-11,-2,-9
3307,-31,-14,988,-13,-13,-11
3308,69,-14,1012,-15,-15,-22
3309,88,-32,991,-20,-1,-26
3310,40,-33,995,-19,12,-21
3311,-33,-30,1011,-16,13,-11
3312,-99,-23,989,-12,7,-5
3313,-76,-11,978,-12,-7,-6
3314,6,-6,1019,-13,-15,-12
3315,82,-19,997,-18,-11,-19
3316,92,-33,992,-20,4,-24
3317,30,-40,997,-18,15,-19
3318,-64,-28,1009,-14,15,-5
3319,-111,-14,976,-11,4,-2
3320,-63,-16,1010,-14,-9,-6
3321,35,-2,995,-14,-18,-12
3322,105,-22,996,-18,-10,-17
3323,84,-36,1002,-19,8,-20
3324,-11,-27,998,-17,19,-8
3325,-96,-8,1009,-14,13,1
3326,-112,-18,982,-18,-1,-1
3327,-34,-38,991,-15,-13,-8
3328,78,-27,1006,-12,-18,-11
3329,108,-20,998,-13,-3,-10
3330,61,-10,1005,-16,13,-8
3331,-45,-10,1003,-18,21,-4
3332,-116,-9,1003,-18,11,0
3333,-102,-31,971,-19,-8,-4
3334,6,-52,998,-17,-21,-11
3335,102,-46,1007,-12,-16,-11
3336,108,-24,989,-10,1,-8
3337,36,6,1019,-11,17,-5
3338,-76,8,998,-17,21,0
3339,-135,-6,979,-20,6,-1
3340,-71,-40,987,-23,-14,-7
3341,37,-59,999,-17,-21,-11
3342,117,-56,1015,-11,-12,-9
3343,109,-23,990,-8,6,-8
3344,-6,11,1008,-8,23,-3
3345,-99,10,994,-16,18,1
3346,-129,-4,986,-20,2,-3
3347,-56,-41,992,-20,-16,-9
3348,72,-54,1008,-18,-21,-10
3349,133,-62,998,-10,-9,-10
3350,84,-15,997,-8,11,-4
3351,-35,12,1001,-11,21,-2
3352,-119,7,1001,-17,15,-4
3353,-117,-14,988,-23,-3,-5
3354,-30,-47,999,-20,-18,-10
3355,105,-58,999,-15,-20,-12
3356,120,-43,1005,-10,-2,-8
3357,61,-7,993,-9,15,-6
3358,-55,-3,1011,-15,23,-5
3359,-133,8,993,-17,11,-5
3360,-97,-26,988,-22,-7,-6
3361,-4,-43,996,-18,-20,-11
3362,108,-52,1001,-13,-18,-11
3363,119,-25,1000,-11,2,-11
3364,44,-13,1002,-15,19,-12
3365,-69,-1,1006,-14,21,-8
3366,-128,-7,983,-16,7,-2
3367,-86,-21,983,-18,-9,-7
3368,7,-40,997,-16,-19,-11
3369,115,-40,1010,-13,-15,-12
3370,112,-27,1002,-15,5,-14
3371,24,-26,989,-15,20,-14
3372,-76,-6,1016,-11,18,-8
3373,-132,-7,978,-21,7,-2
3374,-77,-22,982,-17,-11,-9
3375,30,-32,1016,-14,-20,-12
3376,111,-29,997,-18,-13,-14
3377,95,-37,996,-15,6,-18
3378,14,-28,994,-15,18,-11
3379,-86,1,1018,-13,17,-2
3380,-121,-10,976,-16,2,-3
3381,-61,-23,999,-18,-13,-9
3382,58,-37,1006,-15,-20,-11
3383,110,-27,989,-13,-7,-9
3384,91,-22,1003,-17,8,-7
3385,-20,-13,1007,-15,21,-4
3386,-113,2,995,-20,15,0
3387,-114,-29,994,-21,-2,-3
3388,-30,-37,979,-17,-17,-9
3389,95,-53,1010,-15,-19,-10
3390,119,-30,998,-11,-3,-8
3391,53,-2,1000,-11,16,-3
3392,-57,8,1013,-17,20,0
3393,-129,-10,982,-21,10,-1
3394,-95,-35,982,-22,-8,-4
3395,13,-54,1004,-18,-21,-10
3396,114,-53,999,-13,-15,-10
3397,116,-29,1003,-9,3,-7
3398,22,9,1007,-11,20,-2
3399,-87,10,1002,-15,20,-1
3400,-142,-6,980,-22,4,-2
3401,-69,-37,983,-22,-15,-8
3402,58,-68,1014,-17,-22,-13
3403,126,-62,999,-10,-11,-10
3404,106,-21,999,-6,8,-6
3405,-8,21,1002,-8,23,-2
3406,-115,8,999,-16,19,0
3407,-141,-2,981,-20,-1,-4
3408,-45,-47,1004,-20,-19,-10
3409,89,-61,998,-17,-22,-12
3410,137,-58,1001,-8,-7,-7
3411,91,-15,996,-7,12,-6
3412,-49,14,1007,-12,25,-2
3413,-124,18,996,-15,15,-3
3414,-133,-12,991,-22,-3,-5
3415,-16,-50,986,-21,-20,-10
3416,103,-64,1017,-15,-22,-11
3417,135,-42,982,-11,-2,-9
3418,64,-20,1014,-8,19,-3
3419,-67,14,1001,-11,26,-2
3420,-142,10,994,-20,14,-2
3421,-110,-18,979,-22,-7,-6
3422,8,-58,1002,-21,-22,-10
3423,117,-54,999,-12,-18,-11
3424,129,-41,996,-11,2,-7
3425,40,0,1016,-9,20,-3
3426,-85,9,996,-14,23,-1
3427,-149,4,982,-21,9,-3
3428,-86,-23,981,-23,-13,-8
3429,32,-60,1012,-20,-24,-11
3430,129,-52,1002,-14,-16,-9
3431,119,-39,997,-11,6,-6
3432,8,3,1004,-7,22,-2
3433,-106,6,997,-15,21,1
3434,-146,-6,984,-18,3,-4
3435,-71,-30,999,-21,-16,-8
3436,73,-55,1005,-17,-23,-12
3437,141,-57,1002,-12,-9,-8
3438,104,-14,1001,-8,11,-3
3439,-24,14,1000,-12,24,0
3440,-130,13,998,-19,18,0
3441,-143,-15,989,-23,-4,-4
3442,-33,-51,990,-21,-20,-11
3443,92,-62,1011,-15,-23,-10
3444,147,-54,989,-10,-7,-8
3445,78,-9,1005,-7,15,-3
3446,-54,24,1005,-10,24,-1
3447,-142,18,1001,-20,14,0
3448,-120,-17,973,-24,-8,-4
3449,-3,-49,1002,-22,-23,-10
3450,116,-77,1001,-18,-22,-9
3451,137,-43,990,-8,-2,-7
3452,54,-13,1015,-8,19,-3
3453,-79,21,1001,-12,24,0
3454,-154,4,980,-18,9,-1
3455,-96,-19,991,-22,-12,-8
3456,30,-61,997,-21,-24,-10
3457,126,-56,1008,-13,-15,-9
3458,131,-36,996,-11,5,-6
3459,19,0,1007,-10,24,-1
3460,-105,18,1000,-15,23,1
3461,-158,0,980,-22,7,-4
3462,-68,-34,992,-21,-17,-10
3463,63,-59,1003,-20,-24,-11
3464,140,-58,1007,-12,-10,-9
3465,116,-29,995,-9,9,-5
3466,-25,10,1002,-12,24,2
3467,-128,23,995,-15,17,-2
3468,-146,-9,990,-24,-2,-5
3469,-35,-44,994,-24,-20,-9
3470,94,-69,1004,-18,-23,-11
3471,150,-56,992,-11,-5,-10
3472,82,-22,1004,-7,16,-2
3473,-62,21,1000,-9,26,0
3474,-145,17,1004,-18,14,-2
3475,-118,-8,975,-22,-7,-6
3476,-3,-59,998,-21,-22,-9
3477,121,-73,1005,-13,-22,-13
3478,135,-47,990,-9,0,-7
3479,53,0,1013,-4,20,-3
3480,-82,19,1003,-12,25,0
3481,-149,8,985,-19,11,-2
3482,-97,-19,985,-22,-13,-8
3483,21,-55,1002,-21,-24,-11
3484,134,-67,1002,-12,-18,-11
3485,126,-38,997,-8,5,-6
3486,21,-1,1010,-8,23,-2
3487,-91,21,999,-13,22,-1
3488,-155,3,985,-19,6,-3
3489,-77,-25,977,-23,-16,-8
3490,58,-59,1019,-20,-23,-11
3491,134,-63,996,-14,-13,-9
3492,119,-30,997,-8,8,-6
3493,-9,1,1003,-8,24,0
3494,-121,24,995,-16,20,0
3495,-141,-5,986,-20,1,-7
3496,-57,-39,995,-22,-18,-9
3497,86,-59,1004,-19,-24,-13
3498,144,-57,998,-11,-7,-8
3499,95,-13,996,-10,13,-4
3500,-37,18,1007,-12,25,-2
3501,-136,10,1001,-17,18,-1
3502,-137,-16,979,-23,-4,-4
3503,-17,-53,994,-20,-23,-11
3504,103,-71,1006,-14,-22,-10
3505,141,-49,991,-8,-4,-8
3506,61,-1,1015,-5,17,-2
3507,-65,21,998,-13,24,0
3508,-148,14,998,-20,14,-2
3509,-106,-30,980,-24,-9,-7
3510,12,-59,996,-20,-23,-12
3511,113,-63,1003,-13,-17,-9
3512,131,-35,998,-8,2,-8
3513,37,-15,1012,-8,21,-2
3514,-97,26,997,-11,22,1
3515,-142,2,987,-21,5,-4
3516,-83,-25,978,-22,-13,-9
3517,33,-52,1010,-22,-23,-9
3518,142,-63,1007,-14,-14,-11
3519,111,-38,993,-11,8,-4
3520,5,4,996,-9,22,0
3521,-110,6,1014,-14,20,0
3522,-153,0,962,-21,1,-4
3523,-54,-33,1008,-23,-18,-9
3524,78,-59,1004,-17,-22,-13
3525,134,-55,993,-13,-8,-7
3526,101,-12,1000,-8,11,-4
3527,-35,11,1004,-14,26,0
3528,-126,16,990,-19,16,-3
3529,-133,-21,997,-24,-3,-5
3530,-21,-60,992,-21,-20,-11
3531,95,-60,1003,-13,-22,-10
3532,139,-46,998,-10,-4,-8
3533,60,-2,1001,-8,17,-3
3534,-54,21,1001,-12,23,-2
3535,-134,2,1006,-20,14,-3
3536,-111,-15,977,-21,-7,-5
3537,10,-55,1004,-21,-22,-11
3538,116,-69,995,-15,-17,-12
3539,118,-38,998,-9,1,-6
3540,43,-4,1009,-7,19,-2
3541,-86,8,1001,-14,24,0
3542,-135,5,979,-18,7,-4
3543,-86,-29,992,-22,-11,-9
3544,34,-49,998,-17,-22,-11
3545,125,-58,1007,-13,-13,-10
3546,121,-29,994,-10,6,-7
3547,5,2,1010,-10,23,-1
3548,-106,19,994,-16,20,-1
3549,-144,-13,990,-22,3,-6
3550,-64,-42,981,-21,-15,-9
3551,68,-62,1017,-17,-21,-12
3552,140,-51,997,-10,-9,-9
3553,95,-12,998,-6,12,-4
3554,-24,21,999,-12,24,-2
3555,-130,17,998,-20,18,-1
3556,-135,-18,983,-25,-2,-4
3557,-27,-59,1004,-23,-21,-11
3558,98,-75,999,-15,-22,-11
3559,137,-46,993,-8,-5,-7
3560,75,-3,1005,-6,16,-3
3561,-67,26,1007,-11,25,0
3562,-134,11,988,-18,12,-2
3563,-120,-14,994,-22,-8,-5
3564,5,-59,989,-21,-23,-11
3565,123,-71,1008,-15,-20,-11
3566,124,-49,983,-11,0,-5
3567,47,-2,1020,-6,19,-2
3568,-82,10,995,-13,24,0
3569,-151,14,984,-18,9,-1
3570,-90,-31,992,-22,-14,-8
3571,29,-63,994,-20,-23,-11
3572,132,-59,1004,-10,-16,-10
3573,124,-31,1002,-9,6,-6
3574,12,5,1009,-10,23,0
3575,-98,14,996,-13,20,0
3576,-155,0,983,-21,4,-3
3577,-62,-36,986,-21,-18,-10
3578,58,-59,1013,-18,-23,-12
3579,139,-59,999,-12,-10,-9
3580,114,-30,1002,-7,10,-5
3581,-26,12,996,-10,25,1
3582,-121,17,999,-15,18,-2
3583,-139,-4,987,-19,-2,-7
3584,-35,-42,998,-23,-20,-12
3585,93,-65,1006,-15,-21,-14
3586,140,-53,989,-11,-5,-7
3587,81,-11,1008,-8,15,-2
3588,-50,26,996,-12,24,-1
3589,-137,10,1005,-20,16,-2
3590,-118,-14,981,-23,-5,-5
3591,-5,-60,997,-23,-21,-9
3592,111,-72,1000,-16,-19,-10
3593,133,-43,1000,-10,-2,-6
3594,51,-3,1003,-10,18,-1
3595,-81,22,1003,-14,24,0
3596,-146,9,993,-21,8,-3
3597,-101,-33,981,-22,-12,-7
3598,28,-58,1000,-18,-23,-11
3599,128,-61,1009,-13,-16,-9
3600,122,-34,992,-9,5,-6
3601,22,2,1016,-8,22,-1
3602,-107,14,994,-16,22,0
3603,-144,-2,985,-23,4,-4
3604,-70,-40,983,-24,-17,-10
3605,52,-62,1010,-18,-23,-11
3606,146,-62,1003,-11,-12,-9
3607,99,-20,997,-7,10,-4
3608,-10,10,1000,-9,21,-3
3609,-123,21,1005,-17,19,-1
3610,-144,-3,973,-22,-1,-5
3611,-39,-37,1011,-23,-18,-10
3612,89,-69,998,-19,-22,-11
3613,140,-56,995,-10,-6,-7
3614,88,-26,1003,-7,14,-3
3615,-55,17,1003,-10,27,0
3616,-138,13,994,-16,15,-1
3617,-128,-5,989,-20,-6,-7
3618,-6,-54,999,-23,-21,-10
3619,117,-62,995,-15,-20,-11
3620,134,-50,1002,-10,-1,-6
3621,53,-7,995,-8,18,-2
3622,-76,19,1007,-12,24,1
3623,-144,10,992,-19,10,-2
3624,-104,-20,987,-25,-12,-6
3625,29,-60,998,-21,-24,-13
3626,123,-72,997,-16,-15,-8
3627,124,-36,1001,-9,3,-5
3628,29,3,1009,-9,21,-2
3629,-109,24,1000,-14,22,1
3630,-135,3,979,-21,4,-4
3631,-74,-43,998,-24,-14,-8
3632,46,-68,986,-17,-22,-11
3633,140,-62,1017,-9,-12,-10
3634,108,-22,992,-8,10,-5
3635,-12,18,1003,-10,24,0
3636,-115,27,1003,-16,18,-3
3637,-148,-9,978,-24,1,-5
3638,-43,-46,991,-24,-20,-11
3639,86,-81,1011,-17,-22,-12
3640,137,-65,996,-8,-7,-7
3641,91,-9,998,-5,13,-3
3642,-51,28,1004,-10,25,1
3643,-134,32,990,-18,14,-1
3644,-129,-9,995,-25,-6,-7
3645,-10,-59,1003,-24,-21,-12
3646,112,-79,991,-16,-20,-11
3647,140,-59,1007,-7,-1,-8
3648,55,-6,994,-6,18,-1
3649,-80,27,1007,-10,24,0
3650,-140,21,997,-17,10,-3
3651,-112,-26,989,-23,-12,-7
3652,29,-57,993,-19,-25,-14
3653,122,-76,1005,-14,-17,-9
3654,130,-40,991,-7,4,-6
3655,25,8,1010,-5,22,1
3656,-100,27,1003,-15,23,-1
3657,-148,4,978,-21,6,-4
3658,-76,-35,996,-25,-15,-9
3659,46,-71,994,-21,-24,-12
3660,141,-68,998,-11,-14,-10
3661,123,-36,1009,-6,8,-6
3662,-6,22,996,-7,26,1
3663,-109,31,1006,-13,21,-2
3664,-147,0,976,-25,3,-5
3665,-54,-45,990,-24,-17,-10
3666,72,-66,1009,-18,-23,-12
3667,150,-69,1005,-13,-8,-9
3668,97,-22,998,-6,13,-4
3669,-36,15,1002,-8,26,1
3670,-129,29,996,-16,18,-3
3671,-144,-5,982,-24,-3,-5
3672,-25,-50,1005,-24,-21,-13
3673,102,-73,1000,-17,-20,-12
3674,141,-53,995,-10,-4,-8
3675,80,-17,1006,-6,17,-3
3676,-72,22,998,-10,26,1
3677,-148,21,997,-18,12,-2
3678,-116,-17,986,-25,-9,-9
3679,6,-56,999,-21,-23,-12
3680,124,-78,999,-15,-19,-11
3681,131,-39,1003,-7,0,-5
3682,43,-5,1003,-8,21,-1
3683,-91,20,1004,-13,24,0
3684,-153,9,987,-20,9,-2
3685,-93,-27,986,-22,-13,-8
3686,32,-61,998,-21,-24,-12
3687,137,-65,1000,-12,-16,-11
3688,126,-35,1007,-7,5,-6
3689,4,14,1006,-8,23,1
3690,-115,22,999,-16,21,0
3691,-145,0,983,-23,2,-4
3692,-69,-48,982,-23,-19,-8
3693,68,-66,1008,-18,-26,-12
3694,150,-70,1013,-11,-10,-8
3695,101,-13,986,-5,12,-2
3696,-17,21,1005,-9,25,1
3697,-129,21,1004,-15,19,-2
3698,-136,-5,970,-24,-1,-6
3699,-32,-53,1005,-21,-18,-13
3700,97,-69,1008,-16,-20,-12
3701,150,-68,988,-8,-3,-9
3702,77,-16,1005,-2,17,-4
3703,-54,25,1002,-10,26,-3
3704,-136,17,997,-16,15,-8
3705,-117,-5,982,-20,-5,-9
3706,-13,-42,1006,-20,-20,-11
3707,109,-60,1001,-16,-19,-13
3708,128,-56,993,-13,-1,-11
3709,69,-13,1008,-7,17,-9
3710,-71,5,998,-11,24,-5
3711,-130,18,993,-14,10,-11
3712,-81,-24,988,-16,-13,-19
3713,-9,-51,997,-16,-15,-12
3714,82,-40,1001,-15,-15,-10
3715,112,-26,994,-14,1,-15
3716,48,-34,1016,-16,18,-16
3717,-62,-4,989,-12,18,-14
3718,-97,-4,994,-15,5,-21
3719,-71,-31,992,-21,-6,-22
3720,-11,-39,987,-17,-12,-18
3721,76,-32,1016,-15,-11,-19
3722,83,-21,989,-17,2,-25
3723,29,-26,998,-17,13,-33
3724,-32,-12,1007,-17,12,-33
3725,-83,-23,986,-19,6,-29
3726,-61,-32,994,-14,-4,-22
3727,-8,-23,1003,-15,-9,-19
3728,63,-19,996,-14,-8,-23
3729,73,-17,998,-16,1,-28
3730,17,-25,993,-19,10,-28
3731,-39,-16,1013,-15,10,-25
3732,-85,-24,990,-16,5,-18
3733,-58,-31,998,-17,-5,-12
3734,19,-21,994,-13,-13,-13
3735,70,-18,999,-15,-7,-19
3736,74,-27,995,-16,5,-22
3737,-19,-24,1002,-17,12,-15
3738,-63,-10,1006,-16,9,-11
3739,-82,-15,995,-17,0,-11
3740,-25,-36,981,-15,-11,-9
3741,64,-32,1009,-13,-15,-11
3742,88,-16,990,-14,-2,-16
3743,46,-31,1010,-17,10,-19
3744,-35,-14,994,-14,15,-13
3745,-89,-10,1003,-14,8,-11
3746,-75,-12,982,-17,-3,-11
3747,-18,-26,998,-16,-13,-9
3748,80,-25,1002,-15,-15,-9
3749,98,-33,1004,-16,0,-11
3750,29,-28,998,-16,15,-8
3751,-64,-7,1002,-16,17,-3
3752,-121,-14,995,-16,6,-4
3753,-67,-27,970,-20,-10,-7
3754,34,-47,1021,-16,-19,-11
3755,111,-35,998,-13,-11,-9
3756,90,-25,998,-12,6,-5
3757,-1,5,998,-13,19,-3
3758,-112,-10,1003,-21,17,0
3759,-123,-15,978,-21,-1,-5
3760,-42,-53,1007,-20,-17,-9
3761,84,-57,993,-13,-22,-12
3762,125,-47,1003,-8,-7,-7
3763,81,-9,996,-6,12,-4
3764,-53,24,1006,-12,22,-1
3765,-126,13,996,-18,13,-3
3766,-120,-22,994,-25,-6,-6
3767,-8,-55,980,-20,-22,-11
3768,112,-67,1011,-14,-19,-10
3769,130,-47,997,-7,-1,-7
3770,55,-10,1002,-6,17,-3
3771,-73,12,1011,-11,23,-2
3772,-140,8,986,-18,11,-5
3773,-102,-17,986,-20,-10,-9
3774,21,-46,997,-19,-23,-11
3775,129,-57,1004,-14,-17,-11
3776,131,-37,997,-9,3,-8
3777,37,-5,1012,-11,22,-3
3778,-97,11,999,-14,24,-1
3779,-147,-3,977,-18,6,-4
3780,-76,-26,987,-21,-14,-7
3781,32,-49,1005,-17,-22,-11
3782,129,-54,1005,-13,-13,-9
3783,126,-36,1002,-10,8,-6
3784,1,2,997,-10,25,-2
3785,-108,7,997,-17,20,-2
3786,-139,1,987,-20,2,-7
3787,-67,-29,994,-22,-16,-8
3788,55,-59,997,-21,-23,-10
3789,129,-58,1007,-12,-11,-7
3790,103,-27,998,-8,8,-5
3791,-14,11,1000,-12,22,-2
3792,-118,12,1001,-16,18,-1
3793,-129,-10,987,-23,0,-5
3794,-43,-45,993,-24,-17,-10
3795,84,-60,997,-16,-21,-11
3796,134,-43,1000,-11,-6,-7
3797,86,-16,1002,-11,13,-3
3798,-49,12,1003,-12,23,0
3799,-136,5,997,-20,15,-2
3800,-118,-19,979,-23,-6,-6
3801,-15,-55,994,-22,-21,-10
3802,106,-63,1004,-14,-20,-11
3803,132,-38,995,-8,-3,-8
3804,59,2,1012,-8,17,-3
3805,-63,9,1007,-15,22,-1
3806,-146,-1,980,-18,11,-2
3807,-98,-28,979,-23,-11,-6
3808,18,-54,1006,-19,-22,-12
3809,120,-54,1002,-14,-16,-8
3810,124,-31,999,-11,3,-6
3811,22,-8,1008,-10,21,-1
3812,-90,15,996,-16,21,0
3813,-152,-1,981,-22,5,-3
3814,-68,-33,986,-22,-16,-8
3815,52,-58,1012,-18,-23,-10
3816,142,-48,996,-11,-12,-10
3817,114,-27,1007,-9,9,-3
3818,-14,10,996,-11,23,-1
3819,-118,6,1003,-17,19,-2
3820,-150,-4,980,-20,1,-4
3821,-47,-43,1003,-22,-19,-9
3822,92,-65,998,-16,-23,-14
3823,136,-48,1002,-12,-7,-6
3824,89,-19,1005,-8,13,-4
3825,-45,10,1002,-11,25,-1
3826,-138,3,1000,-18,16,-2
3827,-131,-11,981,-21,-4,-5
3828,-11,-48,994,-20,-22,-12
3829,108,-56,999,-17,-20,-10
3830,138,-41,1002,-10,-3,-6
3831,56,-5,1007,-10,18,-1
3832,-66,11,1001,-15,24,0
3833,-150,-4,988,-20,13,-1
3834,-99,-29,978,-22,-10,-6
3835,14,-53,1005,-20,-23,-11
3836,121,-55,992,-13,-17,-10
3837,131,-28,1019,-8,3,-6
3838,32,3,988,-10,23,-1
3839,-99,17,1012,-14,25,1
3840,-149,-2,977,-22,5,-4
3841,-81,-38,990,-24,-14,-6
3842,57,-55,999,-20,-24,-11
3843,137,-62,1013,-14,-10,-8
3844,116,-24,993,-10,10,-4
3845,-20,0,1005,-12,25,0
3846,-122,17,989,-17,18,-2
3847,-150,-9,992,-22,0,-5
3848,-32,-33,997,-20,-20,-11
3849,86,-60,1000,-18,-23,-10
3850,157,-49,999,-10,-7,-10
3851,83,-23,1009,-11,16,-3
3852,-58,15,987,-13,25,0
3853,-144,4,1013,-18,14,-2
3854,-125,-24,976,-22,-7,-7
3855,-1,-49,997,-19,-22,-11
3856,121,-54,1009,-13,-22,-11
3857,143,-34,996,-11,0,-5
3858,49,-3,1005,-9,21,0
3859,-88,16,1005,-14,24,0
3860,-150,-5,980,-22,10,-2
3861,-104,-34,986,-22,-12,-7
3862,33,-50,996,-19,-25,-10
3863,141,-55,1010,-12,-17,-11
3864,126,-23,995,-8,5,-6
3865,18,0,1014,-13,22,-1
3866,-113,10,996,-17,23,1
3867,-155,-5,975,-21,4,-2
3868,-63,-37,992,-22,-18,-10
3869,55,-53,1005,-18,-23,-10
3870,157,-53,1010,-12,-13,-10
3871,108,-31,995,-10,13,-4
3872,-25,8,1003,-10,25,2
3873,-127,11,993,-18,17,0
3874,-154,-4,981,-20,-2,-6
3875,-35,-42,1003,-22,-22,-9
3876,103,-55,1006,-17,-24,-12
3877,147,-58,993,-12,-6,-7
3878,93,-13,1003,-8,15,-3
3879,-71,12,1006,-15,27,3
3880,-144,9,986,-18,13,-1
3881,-133,-15,993,-23,-9,-6
3882,5,-58,995,-21,-25,-10
3883,124,-61,1004,-13,-21,-11
3884,138,-37,993,-11,1,-6
3885,59,-3,1012,-7,20,-2
3886,-93,17,1001,-14,25,1
3887,-158,2,985,-22,9,-1
3888,-100,-26,993,-22,-15,-8
3889,32,-72,993,-21,-25,-11
3890,145,-55,1003,-10,-17,-9
3891,135,-37,998,-8,7,-5
3892,15,13,1016,-8,24,0
3893,-113,17,996,-14,22,0
3894,-165,-5,978,-21,5,-3
3895,-70,-33,989,-22,-19,-9
3896,60,-61,1005,-17,-25,-12
3897,161,-61,1004,-12,-12,-10
3898,115,-26,1000,-7,12,-4
3899,-16,13,1000,-10,26,1
3900,-136,8,1002,-16,19,1
3901,-158,0,965,-20,-1,-5
3902,-43,-36,1011,-21,-22,-11
3903,101,-58,1001,-19,-26,-12
3904,153,-58,998,-14,-7,-6
3905,102,-17,998,-8,14,-3
3906,-59,18,1009,-12,28,1
3907,-150,11,983,-19,16,-1
3908,-138,-20,991,-20,-6,-7
3909,-15,-52,1003,-20,-24,-11
3910,130,-64,993,-13,-22,-12
3911,141,-43,1003,-8,0,-7
3912,68,-1,1001,-8,19,-1
3913,-82,18,1007,-14,26,0
3914,-159,-1,985,-22,13,-3
3915,-115,-27,993,-22,-10,-7
3916,27,-57,994,-19,-25,-13
3917,131,-59,1001,-14,-17,-8
3918,147,-28,1005,-9,2,-6
3919,29,-4,1002,-10,23,-1
3920,-100,7,1003,-15,23,0
3921,-159,-1,979,-19,7,-2
3922,-90,-23,991,-20,-15,-9
3923,59,-59,994,-18,-26,-13
3924,144,-54,1011,-12,-13,-10
3925,128,-29,994,-10,8,-5
3926,-9,5,1008,-9,27,1
3927,-121,14,995,-16,20,-2
3928,-163,-3,975,-23,3,-4
3929,-50,-35,997,-21,-20,-10
3930,88,-65,1008,-17,-24,-11
3931,157,-58,1003,-11,-7,-8
3932,101,-18,999,-8,14,-3
3933,-45,18,1003,-11,27,1
3934,-142,14,987,-20,17,0
3935,-145,-15,990,-24,-4,-5
3936,-19,-51,1001,-24,-23,-11
3937,120,-68,1004,-16,-23,-13
3938,152,-48,992,-9,-2,-8
3939,69,-5,1014,-8,18,-2
3940,-77,11,993,-13,27,0
3941,-161,19,997,-17,13,-2
3942,-115,-25,988,-25,-12,-8
3943,15,-50,995,-21,-24,-11
3944,141,-75,1007,-16,-20,-11
3945,143,-32,990,-8,3,-6
3946,31,-9,1017,-8,24,-1
3947,-109,24,991,-12,24,1
3948,-167,5,988,-19,7,-3
3949,-83,-30,988,-20,-18,-11
3950,41,-61,999,-19,-26,-11
3951,161,-65,1004,-12,-15,-12
3952,121,-34,1005,-8,9,-5
3953,2,5,1003,-7,25,0
3954,-128,13,998,-12,22,-1
3955,-165,-3,979,-20,2,-4
3956,-55,-34,984,-20,-21,-10
3957,78,-57,1017,-15,-25,-13
3958,160,-56,999,-10,-11,-10
3959,114,-30,1002,-8,13,-5
3960,-41,15,998,-8,26,1
3961,-140,11,991,-17,18,-1
3962,-160,-6,984,-22,-2,-5
3963,-26,-42,997,-21,-23,-10
3964,113,-59,1011,-16,-24,-12
3965,160,-46,989,-11,-5,-7
3966,81,-12,1008,-9,18,-2
3967,-65,19,999,-14,27,0
3968,-158,-6,998,-20,15,0
3969,-131,-11,980,-21,-9,-6
3970,5,-60,1007,-20,-26,-11
3971,138,-53,995,-12,-21,-12
3972,142,-42,1004,-12,2,-4
3973,55,7,1000,-9,21,-3
3974,-101,10,1011,-15,26,2
3975,-156,7,974,-21,9,-3
3976,-105,-31,997,-22,-14,-6
3977,41,-54,993,-18,-26,-13
3978,141,-60,1003,-12,-16,-8
3979,139,-33,1002,-9,7,-8
3980,11,-9,1013,-11,27,0
3981,-120,17,987,-13,23,1
3982,-162,1,988,-19,3,-4
3983,-68,-25,983,-25,-18,-10
3984,68,-54,1005,-20,-25,-11
3985,161,-55,1012,-12,-11,-11
3986,116,-41,998,-13,11,-4
3987,-24,10,994,-8,25,-1
3988,-139,6,1005,-17,19,-1
3989,-156,-1,969,-20,-3,-4
3990,-35,-33,1005,-20,-23,-9
3991,109,-64,1009,-19,-24,-12
3992,157,-47,993,-11,-5,-7
3993,86,-21,1003,-9,17,-2
3994,-66,17,1001,-15,27,1
3995,-152,8,983,-20,16,-1
3996,-135,-12,998,-23,-7,-6
3997,0,-62,994,-23,-25,-10
3998,135,-71,1002,-12,-21,-12
3999,143,-48,1000,-8,0,-6
4000,56,9,1005,-7,21,-1
4001,-95,21,1003,-12,26,0
4002,-167,13,985,-20,9,-2
4003,-105,-27,991,-23,-15,-7
4004,32,-64,995,-20,-26,-11
4005,145,-70,1004,-14,-18,-11
4006,133,-38,998,-5,5,-6
4007,14,1,1017,-8,25,-1
4008,-113,29,987,-15,23,-1
4009,-161,6,988,-20,5,-4
4010,-66,-35,986,-25,-20,-9
4011,60,-61,1000,-20,-24,-12
4012,158,-64,1008,-12,-13,-12
4013,116,-28,998,-9,12,-5
4014,-19,-4,1000,-9,26,1
4015,-134,30,997,-12,19,-1
4016,-156,0,984,-22,-2,-5
4017,-30,-36,988,-21,-21,-11
4018,88,-65,1019,-18,-23,-10
4019,157,-66,991,-12,-7,-10
4020,93,-23,1002,-7,17,-2
4021,-54,15,1000,-11,26,1
4022,-149,24,991,-16,16,-2
4023,-143,-13,988,-23,-7,-5
4024,-3,-43,1002,-23,-23,-12
4025,122,-77,1003,-17,-19,-13
4026,147,-44,995,-9,0,-7
4027,69,-11,1012,-9,20,-4
4028,-92,20,993,-12,27,0
4029,-164,12,998,-20,10,-2
4030,-108,-18,984,-25,-12,-8
4031,24,-61,995,-22,-25,-11
4032,147,-62,1005,-15,-18,-11
4033,139,-40,1000,-10,6,-5
4034,19,-2,1011,-7,25,0
4035,-105,12,998,-15,25,0
4036,-166,0,984,-20,6,-2
4037,-81,-19,985,-21,-18,-8
4038,55,-50,1003,-20,-25,-12
4039,155,-60,1007,-14,-14,-11
4040,122,-42,998,-10,11,-2
4041,-18,5,1006,-7,26,1
4042,-126,9,996,-16,20,0
4043,-160,-2,976,-20,0,-4
4044,-48,-31,990,-21,-21,-9
4045,93,-61,1018,-17,-25,-13
4046,158,-56,998,-13,-8,-9
4047,98,-20,997,-10,14,-2
4048,-49,5,1008,-10,26,0
4049,-147,11,979,-18,16,0
4050,-145,-8,991,-21,-6,-6
4051,-8,-51,1005,-22,-24,-12
4052,119,-66,996,-16,-23,-12
4053,153,-52,998,-14,-2,-6
4054,69,-5,1004,-8,20,-2
4055,-83,22,1000,-14,26,0
4056,-167,12,994,-18,13,-1
4057,-109,-30,983,-27,-11,-9
4058,17,-67,999,-19,-24,-12
4059,143,-55,1001,-12,-20,-11
4060,140,-36,1003,-9,4,-7
4061,30,3,1002,-6,25,-1
4062,-108,20,1003,-13,25,1
4063,-162,14,981,-23,9,-3
4064,-93,-36,988,-24,-16,-8
4065,59,-59,1003,-21,-26,-15
4066,143,-70,1001,-14,-12,-8
4067,135,-27,1003,-6,8,-6
4068,0,6,1016,-11,26,1
4069,-134,24,985,-15,23,1
4070,-155,-3,982,-24,1,-4
4071,-61,-35,991,-23,-20,-9
4072,78,-62,1002,-18,-25,-11
4073,165,-52,1013,-11,-9,-9
4074,106,-30,999,-10,14,-4
4075,-34,15,993,-11,27,1
4076,-149,8,997,-16,19,-1
4077,-158,-7,974,-22,-4,-4
4078,-22,-45,1007,-20,-24,-10
4079,112,-62,1004,-16,-25,-12
4080,158,-46,996,-10,-4,-6
4081,81,-9,1010,-9,19,-1
4082,-78,18,990,-15,27,2
4083,-162,3,998,-19,13,-3
4084,-128,-30,982,-23,-11,-4
4085,6,-51,1000,-18,-25,-10
4086,146,-63,1000,-13,-22,-12
4087,146,-36,1006,-9,2,-7
4088,37,0,999,-11,22,1
4089,-100,13,1008,-15,26,2
4090,-166,10,981,-21,9,-1
4091,-97,-29,989,-22,-15,-7
4092,45,-58,1000,-20,-27,-13
4093,152,-69,1002,-13,-16,-10
4094,131,-29,1004,-7,7,-5
4095,5,4,1007,-9,25,0
4096,-124,19,1000,-15,22,1
4097,-159,-1,971,-20,2,-3
4098,-67,-36,994,-23,-20,-9
4099,78,-64,1003,-17,-26,-12
4100,164,-52,1009,-10,-11,-8
4101,111,-24,1000,-10,14,-3
4102,-31,16,1000,-10,28,2
4103,-143,13,996,-17,19,-1
4104,-157,-17,973,-24,-2,-5
4105,-26,-42,1006,-20,-22,-11
4106,114,-71,1007,-17,-24,-13
4107,156,-43,994,-9,-4,-6
4108,88,-14,1008,-7,17,-3
4109,-70,25,993,-12,28,1
4110,-160,4,999,-19,15,0
4111,-128,-11,980,-23,-8,-7
4112,-1,-55,1006,-21,-24,-13
4113,144,-73,1003,-13,-21,-13
4114,146,-47,987,-9,3,-5
4115,49,-4,1011,-7,22,-1
4116,-96,23,1001,-12,26,1
4117,-175,13,987,-20,9,-2
4118,-93,-25,982,-24,-16,-7
4119,36,-65,1004,-20,-26,-12
4120,147,-63,998,-14,-17,-10
4121,139,-38,1002,-8,6,-6
4122,7,2,1012,-8,26,1
4123,-113,15,992,-13,24,1
4124,-174,2,981,-19,5,-4
4125,-72,-33,986,-22,-18,-9
4126,70,-59,1009,-18,-26,-13
4127,158,-56,1004,-12,-12,-10
4128,116,-29,997,-11,12,-4
4129,-16,2,1011,-10,26,0
4130,-144,11,987,-16,21,1
4131,-158,3,978,-21,-2,-5
4132,-38,-37,1006,-20,-23,-11
4133,94,-58,1000,-16,-25,-12
4134,172,-57,1004,-12,-7,-10
4135,88,-23,1004,-8,18,-3
4136,-56,16,994,-13,28,3
4137,-159,12,994,-18,16,-1
4138,-138,-16,981,-21,-8,-7
4139,-2,-52,1010,-21,-25,-10
4140,135,-61,993,-14,-22,-12
4141,153,-37,1000,-8,0,-8
4142,61,-5,1008,-9,20,-2
4143,-92,13,995,-14,29,1
4144,-170,-2,990,-18,12,-2
4145,-110,-31,989,-21,-12,-9
4146,24,-57,995,-17,-25,-12
4147,149,-51,1005,-11,-18,-12
4148,142,-21,999,-10,6,-6
4149,24,5,1011,-10,25,0
4150,-109,2,994,-17,26,0
4151,-174,-22,981,-18,8,-3
4152,-84,-36,978,-19,-18,-10
4153,53,-55,1009,-16,-25,-13
4154,159,-41,1008,-10,-15,-11
4155,128,-14,997,-11,10,-5
4156,3,8,1012,-13,25,-3
4157,-137,0,991,-17,23,1
4158,-164,-12,970,-21,1,-5
4159,-59,-44,1003,-19,-21,-10
4160,81,-50,998,-15,-26,-12
4161,172,-49,1011,-9,-10,-10
4162,103,-11,1003,-7,15,-3
4163,-41,13,994,-13,26,1
4164,-150,0,993,-18,18,-2
4165,-159,-16,982,-21,-4,-5
4166,-30,-44,998,-19,-25,-11
4167,110,-56,1008,-15,-25,-12
4168,155,-39,993,-11,-7,-6
4169,81,-5,1010,-10,17,-3
4170,-59,6,1000,-16,27,1
4171,-155,4,994,-18,15,-1
4172,-127,-33,981,-24,-8,-7
4173,-2,-50,998,-18,-25,-11
4174,127,-54,1001,-13,-21,-11
4175,145,-31,1006,-8,1,-7
4176,53,3,1006,-9,20,-3
4177,-86,8,1004,-16,25,-1
4178,-159,-1,979,-20,10,-3
4179,-105,-43,992,-21,-13,-7
4180,35,-49,988,-17,-25,-11
4181,133,-52,1015,-11,-16,-10
4182,137,-13,997,-10,4,-6
4183,15,-3,1014,-13,22,0
4184,-96,0,991,-15,21,-2
4185,-171,-22,984,-19,5,-2
4186,-68,-39,978,-17,-18,-11
4187,58,-44,1015,-15,-24,-10
4188,142,-35,1005,-11,-13,-10
4189,126,-15,997,-10,9,-6
4190,-15,4,1001,-13,25,0
4191,-129,0,994,-19,20,-1
4192,-153,-27,984,-21,0,-6
4193,-39,-48,998,-17,-20,-9
4194,90,-52,1008,-13,-23,-11
4195,149,-30,992,-10,-7,-10
4196,94,-3,1013,-10,15,-3
4197,-62,9,997,-15,26,1
4198,-149,2,991,-19,16,0
4199,-131,-36,992,-24,-7,-6
4200,-4,-54,983,-18,-23,-9
4201,120,-57,1015,-13,-21,-11
4202,147,-37,996,-7,-3,-8
4203,53,6,1009,-8,20,1
4204,-86,24,1003,-16,26,1
4205,-161,0,988,-22,11,-1
4206,-107,-35,982,-23,-13,-7
4207,28,-72,994,-19,-26,-11
4208,146,-65,1009,-11,-18,-11
4209,134,-21,996,-6,5,-7
4210,17,13,1012,-11,23,-1
4211,-111,15,1001,-16,22,0
4212,-165,0,969,-23,6,-2
4213,-71,-50,994,-24,-18,-10
4214,60,-60,1002,-16,-26,-11
4215,155,-54,1011,-9,-13,-10
4216,120,-14,995,-8,11,-5
4217,-22,9,1009,-10,27,1
4218,-125,11,987,-17,19,-1
4219,-162,-19,987,-22,1,-3
4220,-37,-38,989,-21,-21,-9
4221,100,-56,1019,-18,-23,-11
4222,159,-46,988,-11,-6,-8
4223,86,-15,1006,-10,17,-3
4224,-51,13,1006,-13,27,-1
4225,-156,-4,991,-19,16,0
4226,-138,-18,981,-23,-8,-6
4227,7,-56,1009,-20,-25,-12
4228,119,-48,998,-12,-20,-11
4229,148,-36,996,-11,-2,-7
4230,60,2,1014,-7,22,-3
4231,-92,12,997,-15,27,1
4232,-164,1,984,-21,11,-3
4233,-107,-36,989,-23,-13,-8
4234,27,-65,992,-18,-24,-12
4235,149,-53,1004,-11,-18,-11
4236,133,-23,1009,-7,6,-7
4237,16,15,1004,-12,24,0
4238,-108,12,1005,-16,23,0
4239,-168,-9,971,-22,5,-2
4240,-72,-38,994,-23,-19,-10
4241,64,-64,997,-20,-26,-12
4242,147,-60,1015,-11,-12,-8
4243,120,-17,991,-9,9,-5
4244,-20,7,1009,-10,27,0
4245,-135,20,990,-15,19,0
4246,-151,-14,976,-24,-2,-6
4247,-43,-40,1003,-21,-21,-10
4248,99,-68,1002,-18,-25,-12
4249,161,-48,1000,-10,-7,-10
4250,90,-23,1005,-8,16,-3
4251,-58,18,998,-12,26,0
4252,-157,12,991,-18,16,-1
4253,-140,-15,992,-22,-8,-7
4254,1,-54,997,-22,-24,-12
4255,130,-57,1004,-14,-21,-12
4256,151,-41,998,-10,0,-7
4257,61,-3,1005,-8,21,-2
4258,-93,10,1003,-14,25,1
4259,-163,10,990,-20,10,-2
4260,-105,-34,983,-23,-13,-8
4261,31,-54,1002,-17,-26,-12
4262,145,-58,999,-14,-17,-10
4263,141,-36,1005,-9,7,-7
4264,12,4,1012,-10,24,1
4265,-107,14,990,-16,23,-1
4266,-162,0,992,-21,5,-3
4267,-79,-41,972,-22,-18,-7
4268,62,-59,1011,-17,-25,-14
4269,159,-52,1010,-12,-13,-9
4270,119,-19,1000,-9,12,-5
4271,-19,2,997,-10,27,0
4272,-130,18,1007,-16,20,-1
4273,-169,-15,964,-23,-1,-2
4274,-42,-33,999,-21,-23,-11
4275,103,-65,1017,-20,-26,-11
4276,151,-59,987,-12,-6,-6
4277,105,-22,1009,-6,16,-5
4278,-64,9,1004,-11,29,1
4279,-156,23,981,-17,16,-1
4280,-138,-17,993,-22,-9,-6
4281,-11,-46,1007,-20,-26,-10
4282,125,-58,989,-16,-23,-11
4283,162,-51,1009,-12,-1,-7
4284,60,-17,998,-9,20,0
4285,-96,20,998,-11,26,1
4286,-157,-11,999,-17,10,-3
4287,-121,-8,979,-18,-12,-6
4288,33,-61,1000,-18,-27,-13
4289,146,-52,1007,-12,-18,-11
4290,140,-33,993,-10,5,-5
4291,24,11,1015,-10,25,-2
4292,-113,1,996,-17,26,1
4293,-161,-9,973,-19,6,-3
4294,-86,-38,989,-21,-17,-9
4295,63,-52,1005,-15,-27,-13
4296,157,-55,1002,-10,-14,-10
4297,123,-19,1002,-8,9,-5
4298,-11,9,1006,-10,27,-1
4299,-130,10,994,-16,22,-1
4300,-162,-12,971,-23,2,-4
4301,-54,-32,999,-20,-21,-11
4302,95,-61,1011,-20,-25,-13
4303,161,-50,999,-11,-8,-9
4304,99,-21,1001,-9,15,-3
4305,-52,9,1000,-12,27,0
4306,-146,2,991,-16,16,-2
4307,-153,-11,983,-19,-5,-4
4308,-8,-38,1007,-19,-25,-12
4309,124,-55,1004,-15,-22,-12
4310,154,-29,991,-12,-1,-6
4311,73,-12,1011,-13,21,-3
4312,-85,4,1000,-15,27,2
4313,-165,-2,987,-19,12,-1
4314,-124,-34,992,-21,-11,-8
4315,27,-51,992,-17,-27,-12
4316,135,-45,1005,-10,-19,-11
4317,147,-24,1003,-9,3,-8
4318,25,-3,1011,-11,24,1
4319,-106,19,996,-15,24,1
4320,-169,-6,982,-23,7,-3
4321,-87,-35,983,-23,-17,-9
4322,54,-69,1001,-18,-26,-11
4323,151,-51,1006,-10,-15,-10
4324,133,-25,1007,-10,10,-5
4325,-10,11,999,-10,28,0
4326,-126,11,1001,-16,21,0
4327,-162,-5,973,-20,1,-4
4328,-56,-41,990,-21,-20,-10
4329,88,-59,1016,-16,-26,-13
4330,163,-54,1001,-10,-10,-9
4331,105,-16,1001,-8,13,-3
4332,-49,11,998,-12,28,1
4333,-148,10,996,-17,18,-1
4334,-153,-18,981,-21,-5,-4
4335,-17,-45,1003,-21,-24,-11
4336,118,-62,1011,-15,-24,-13
4337,166,-34,989,-9,-3,-8
4338,66,-8,1014,-10,20,-1
4339,-79,18,993,-14,27,0
4340,-165,-4,999,-20,14,-1
4341,-125,-25,982,-21,-11,-7
4342,18,-63,997,-18,-26,-11
4343,140,-46,1007,-10,-21,-12
4344,145,-31,996,-10,2,-6
4345,39,3,1014,-9,23,-2
4346,-105,12,998,-15,25,2
4347,-165,5,977,-20,8,-2
4348,-93,-41,991,-22,-17,-9
4349,44,-56,998,-19,-26,-12
4350,153,-57,1005,-12,-16,-11
4351,139,-27,1004,-8,8,-7
4352,-7,3,1009,-12,27,-1
4353,-116,8,988,-15,22,-1
4354,-171,-4,987,-20,2,-2
4355,-57,-33,975,-22,-20,-10
4356,77,-63,1029,-17,-25,-12
4357,164,-44,992,-13,-10,-10
4358,106,-26,1006,-10,15,-3
4359,-32,14,996,-10,26,0
4360,-151,8,997,-19,19,0
4361,-147,-18,972,-21,-4,-7
4362,-29,-45,1018,-21,-23,-9
4363,116,-64,990,-15,-25,-12
4364,156,-42,1000,-8,-4,-7
4365,82,-9,1009,-9,18,-2
4366,-80,17,995,-13,28,2
4367,-160,4,995,-19,13,-2
4368,-125,-25,987,-22,-10,-6
4369,9,-56,997,-18,-25,-11
4370,142,-62,1003,-14,-21,-12
4371,147,-45,997,-8,3,-6
4372,38,8,1007,-7,22,0
4373,-102,18,1002,-14,26,0
4374,-167,12,988,-19,9,-3
4375,-91,-32,980,-24,-17,-9
4376,38,-63,1005,-20,-26,-12
4377,156,-69,998,-13,-16,-10
4378,135,-40,1009,-6,8,-6
4379,-6,10,1000,-7,26,2
4380,-113,22,1008,-13,22,-2
4381,-172,7,975,-20,3,-4
4382,-64,-27,983,-23,-21,-9
4383,83,-61,1019,-20,-26,-13
4384,155,-72,1000,-15,-10,-9
4385,117,-32,997,-7,12,-5
4386,-35,5,1005,-9,27,0
4387,-145,17,989,-15,19,1
4388,-161,-5,983,-21,-1,-3
4389,-25,-33,1004,-20,-23,-12
4390,112,-59,1007,-19,-25,-11
4391,168,-50,989,-10,-4,-10
4392,77,-20,1014,-11,20,-2
4393,-74,10,989,-11,27,0
4394,-164,6,997,-16,14,-2
4395,-126,-21,984,-23,-11,-6
4396,3,-44,1005,-16,-25,-11
4397,139,-59,992,-15,-21,-13
4398,146,-41,1010,-10,1,-6
4399,48,-7,998,-7,21,-1
4400,-100,11,1004,-14,26,1
4401,-162,5,994,-19,8,-3
4402,-95,-28,974,-22,-15,-7
4403,37,-55,1014,-18,-26,-13
4404,147,-52,996,-13,-16,-10
4405,132,-32,1005,-10,8,-6
4406,11,-9,1004,-11,25,-1
4407,-128,9,1003,-13,23,1
4408,-154,-2,969,-19,2,-5
4409,-71,-29,996,-20,-18,-10
4410,70,-54,1005,-17,-26,-13
4411,157,-47,1007,-13,-11,-9
4412,121,-25,1000,-10,11,-4
4413,-32,4,998,-9,27,1
4414,-136,4,997,-17,19,-1
4415,-165,-12,971,-18,-2,-3
4416,-34,-40,1005,-20,-24,-12
4417,107,-61,1009,-17,-24,-13
4418,161,-45,988,-10,-5,-8
4419,90,-7,1017,-7,19,-4
4420,-64,7,988,-14,27,0
4421,-158,10,999,-16,15,0
4422,-134,-26,980,-24,-7,-6
4423,-1,-49,1001,-19,-24,-12
4424,133,-54,1000,-12,-23,-11
4425,146,-37,1001,-9,1,-8
4426,61,-1,1008,-11,22,-2
4427,-98,11,1004,-15,27,2
4428,-158,-3,980,-20,10,-4
4429,-111,-35,993,-20,-13,-7
4430,38,-51,993,-18,-26,-12
4431,143,-59,1008,-12,-17,-12
4432,135,-21,999,-9,6,-6
4433,18,0,1014,-10,25,-1
4434,-117,16,997,-15,24,-1
4435,-161,-10,975,-21,4,-2
4436,-75,-39,990,-22,-18,-10
4437,68,-62,1003,-17,-26,-13
4438,151,-53,1007,-10,-12,-8
4439,126,-22,1003,-8,11,-6
4440,-20,15,996,-9,28,1
4441,-136,19,1003,-18,20,1
4442,-155,-7,971,-21,-1,-4
4443,-45,-47,1004,-21,-23,-11
4444,97,-71,1003,-17,-25,-11
4445,162,-54,1000,-9,-7,-9
4446,90,-17,999,-6,15,-2
4447,-60,28,1006,-11,27,-2
4448,-145,0,992,-19,16,-2
4449,-141,-11,986,-23,-6,-4
4450,-5,-47,1001,-23,-25,-10
4451,130,-64,1002,-18,-22,-11
4452,140,-45,995,-11,0,-6
4453,66,-7,1006,-9,20,-2
4454,-93,9,1010,-12,26,1
4455,-163,19,983,-19,10,-1
4456,-103,-26,987,-23,-13,-8
4457,23,-52,1000,-20,-25,-12
4458,142,-71,999,-15,-18,-11
4459,133,-40,996,-7,5,-7
4460,23,2,1019,-7,25,0
4461,-111,24,991,-14,23,0
4462,-167,9,982,-20,6,-2
4463,-71,-37,988,-23,-18,-10
4464,55,-72,1003,-19,-24,-12
4465,159,-59,1002,-11,-13,-11
4466,118,-30,1010,-8,11,-4
4467,-13,14,992,-7,26,0
4468,-134,23,998,-16,19,0
4469,-157,-8,976,-22,-1,-6
4470,-47,-47,1006,-22,-21,-8
4471,97,-58,998,-16,-25,-13
4472,155,-58,1013,-11,-6,-9
4473,100,-12,993,-7,16,-4
4474,-58,12,1007,-12,28,1
4475,-144,20,983,-17,16,-3
4476,-147,-22,1002,-23,-6,-5
4477,-3,-49,986,-21,-24,-12
4478,125,-66,1013,-15,-22,-12
4479,148,-39,990,-9,-3,-7
4480,59,-7,1011,-10,20,-1
4481,-83,17,1002,-14,26,-1
4482,-169,2,985,-19,11,0
4483,-107,-27,987,-22,-13,-9
4484,26,-61,1000,-20,-25,-11
4485,139,-50,992,-13,-18,-10
4486,140,-31,1010,-9,4,-6
4487,27,4,1009,-10,23,-1
4488,-118,10,995,-17,24,2
4489,-155,-6,978,-19,5,-4
4490,-85,-42,991,-23,-16,-7
4491,57,-48,997,-17,-27,-13
4492,155,-58,1013,-14,-14,-11
4493,119,-25,999,-9,10,-5
4494,-11,5,997,-11,27,2
4495,-133,19,999,-17,21,1
