sequence,AccelerometerX,AccelerometerY,AccelerometerZ,GyroscopeX,GyroscopeY,GyroscopeZ
0,189,2,1035,70,3,5
1,-150,83,1008,4,54,1
2,-390,68,920,-68,54,2
3,-251,0,932,-76,-6,4
4,132,-102,1012,-21,-66,1
5,355,-129,1017,49,-61,8
6,241,-20,1045,88,-11,8
7,-80,74,1004,14,46,0
8,-358,82,935,-53,62,2
9,-316,28,918,-85,9,6
10,37,-70,1014,-29,-57,2
11,332,-131,1043,33,-68,6
12,290,-55,1033,74,-25,11
13,-7,52,1006,40,37,2
14,-294,80,950,-48,63,0
15,-357,37,892,-81,27,6
16,-58,-42,995,-41,-45,2
17,294,-121,1038,18,-71,4
18,321,-79,1035,73,-39,11
19,70,40,1034,52,23,4
20,-239,81,971,-29,60,-2
21,-379,45,880,-81,40,3
22,-127,-16,966,-54,-31,4
23,237,-116,1037,3,-68,3
24,335,-104,1025,57,-47,9
25,137,28,1052,74,12,5
26,-198,80,999,-19,57,-2
27,-386,38,896,-87,47,4
28,-192,-13,944,-58,-18,5
29,181,-110,1023,-16,-66,3
30,346,-121,1012,64,-54,8
31,194,11,1046,79,0,8
32,-138,81,1001,2,54,1
33,-373,63,923,-76,55,4
34,-260,8,932,-70,-4,5
35,122,-94,1027,-28,-63,3
36,340,-137,1011,41,-61,8
37,250,-22,1037,89,-13,10
38,-67,74,1016,21,46,1
39,-355,77,925,-60,61,1
40,-324,28,916,-75,12,3
41,28,-72,1016,-41,-55,1
42,332,-137,1034,36,-67,6
43,299,-50,1045,83,-27,9
44,1,53,1016,41,36,2
45,-297,83,935,-47,64,-1
46,-359,51,895,-77,27,5
47,-68,-41,997,-51,-43,2
48,294,-130,1025,11,-72,2
49,334,-72,1048,79,-40,9
50,71,33,1036,45,23,3
51,-240,71,966,-28,62,0
52,-387,54,891,-78,42,4
53,-146,-18,960,-56,-30,1
54,235,-120,1024,-2,-70,1
55,340,-93,1038,71,-50,9
56,150,18,1044,63,9,5
57,-183,79,1002,-16,56,-2
58,-386,56,902,-78,51,4
59,-207,-8,930,-70,-15,3
60,173,-106,1022,-15,-65,1
61,349,-114,1020,59,-56,9
62,207,0,1045,72,-3,6
63,-126,77,1001,7,52,3
64,-377,72,926,-72,56,4
65,-273,3,932,-80,-3,2
66,109,-97,1013,-28,-61,-1
67,349,-130,1025,47,-63,6
68,253,-24,1033,79,-14,9
69,-72,69,1016,24,46,3
70,-357,87,933,-60,61,6
71,-322,22,908,-87,11,3
72,30,-90,1002,-42,-56,0
73,343,-143,1039,35,-69,6
74,298,-55,1045,81,-25,9
75,-16,59,1027,51,37,4
76,-310,97,939,-47,62,6
77,-367,50,882,-84,26,7
78,-51,-58,991,-58,-45,-1
79,316,-145,1030,16,-73,2
80,335,-82,1048,83,-37,10
81,65,37,1042,59,27,4
82,-265,91,980,-25,61,3
83,-401,57,876,-87,38,5
84,-137,-30,953,-58,-33,-1
85,256,-125,1034,6,-74,1
86,356,-100,1025,65,-48,10
87,153,21,1056,78,12,4
88,-197,92,1004,-16,58,2
89,-403,70,894,-77,52,6
90,-210,-11,942,-76,-16,2
91,175,-121,1010,-17,-68,1
92,365,-124,1034,61,-57,9
93,209,-8,1033,73,-2,6
94,-133,75,1017,14,52,3
95,-385,80,905,-76,57,6
96,-270,17,946,-70,-2,2
97,106,-106,1012,-41,-63,-2
98,356,-134,1026,53,-65,5
99,255,-20,1045,84,-14,5
100,-69,66,1011,23,45,2
101,-347,90,924,-61,62,7
102,-322,31,916,-84,14,3
103,21,-93,1002,-47,-53,0
104,335,-142,1035,38,-69,5
105,299,-52,1049,85,-27,9
106,-6,49,1035,45,36,5
107,-304,94,929,-46,62,6
108,-364,55,893,-77,26,5
109,-54,-58,980,-63,-42,0
110,311,-132,1030,23,-72,5
111,330,-70,1055,80,-37,8
112,64,29,1043,49,25,4
113,-264,88,972,-24,61,6
114,-393,70,889,-83,38,8
115,-129,-38,952,-68,-31,2
116,250,-133,1015,-1,-72,2
117,352,-97,1043,77,-47,8
118,140,7,1048,63,13,4
119,-203,91,994,-7,59,6
120,-394,83,909,-70,50,8
121,-203,-20,934,-86,-17,2
122,179,-122,1007,-10,-69,1
123,370,-115,1041,62,-58,7
124,201,-10,1040,76,0,6
125,-134,86,1007,15,54,4
126,-379,92,912,-74,58,7
127,-286,5,926,-79,-1,4
128,100,-104,1015,-31,-63,-1
129,359,-135,1038,48,-66,6
130,262,-37,1038,79,-14,6
131,-63,72,1018,33,45,4
132,-344,105,932,-54,62,7
133,-335,33,903,-92,16,3
134,5,-82,997,-45,-53,0
135,340,-143,1039,29,-71,4
136,314,-69,1041,79,-27,7
137,11,49,1047,49,36,6
138,-296,104,944,-40,63,10
139,-377,58,878,-83,31,6
140,-84,-56,968,-61,-40,-2
141,301,-141,1043,15,-74,2
142,342,-88,1035,72,-40,8
143,97,41,1054,69,22,6
144,-247,96,991,-30,62,7
145,-403,59,873,-89,44,6
146,-159,-31,952,-61,-28,-1
147,228,-132,1026,-8,-73,0
148,361,-125,1023,68,-52,7
149,169,8,1045,79,9,5
150,-183,93,1016,1,56,6
151,-393,80,891,-75,52,7
152,-232,-1,938,-74,-13,2
153,160,-110,1016,-16,-67,0
154,369,-123,1031,52,-60,6
155,221,-13,1037,82,-5,5
156,-103,83,1020,18,52,4
157,-374,95,909,-68,60,10
158,-302,16,924,-80,4,2
159,72,-100,1010,-41,-61,0
160,355,-133,1048,51,-68,6
161,276,-44,1037,74,-19,6
162,-43,56,1021,41,43,3
163,-335,102,928,-55,63,8
164,-341,43,900,-86,17,3
165,-12,-77,990,-51,-50,-1
166,332,-137,1041,29,-72,2
167,314,-72,1046,81,-30,5
168,17,41,1049,47,33,2
169,-287,100,945,-36,61,7
170,-379,58,885,-84,30,5
171,-91,-64,957,-67,-39,-3
172,290,-137,1038,22,-74,2
173,339,-87,1048,72,-43,6
174,102,25,1043,66,20,2
175,-235,106,992,-17,60,8
176,-400,73,891,-84,43,8
177,-164,-43,940,-75,-25,-2
178,225,-125,1022,-2,-72,1
179,362,-109,1033,68,-53,7
180,173,-8,1037,69,9,3
181,-171,90,1003,6,57,7
182,-394,94,915,-71,54,7
183,-239,0,927,-82,-10,2
184,149,-108,1017,-20,-67,1
185,363,-127,1037,49,-61,7
186,227,-27,1037,79,-6,4
187,-100,76,1017,19,50,5
188,-367,95,918,-67,59,10
189,-311,11,907,-88,7,3
190,65,-97,1016,-31,-60,-1
191,353,-135,1047,43,-69,5
192,281,-44,1040,77,-19,6
193,-36,66,1030,44,42,5
194,-328,104,929,-56,62,8
195,-347,35,886,-88,21,3
196,-17,-69,995,-48,-48,0
197,331,-137,1035,26,-71,3
198,318,-77,1044,79,-31,6
199,25,45,1049,54,32,5
200,-286,99,964,-36,62,10
201,-382,59,870,-89,34,5
202,-90,-48,962,-60,-38,-2
203,285,-138,1033,7,-73,2
204,348,-101,1033,70,-42,7
205,106,28,1059,73,21,6
206,-241,100,994,-23,60,9
207,-398,69,878,-79,44,6
208,-167,-32,950,-70,-25,0
209,219,-134,1012,-14,-71,3
210,374,-114,1030,75,-52,6
211,173,6,1054,72,8,3
212,-180,89,1003,6,57,6
213,-397,90,902,-78,54,7
214,-245,-5,929,-76,-11,0
215,152,-121,1030,-24,-69,1
216,374,-139,1023,52,-62,5
217,231,-24,1045,92,-4,3
218,-106,81,1017,20,51,7
219,-375,112,914,-60,60,11
220,-311,26,911,-89,7,1
221,55,-99,1006,-38,-61,-1
222,363,-136,1042,43,-70,4
223,295,-55,1056,76,-20,6
224,-32,54,1023,39,44,4
225,-330,118,931,-46,63,8
226,-360,49,890,-85,22,2
227,-37,-80,974,-65,-48,-2
228,329,-136,1039,29,-74,3
229,332,-78,1056,77,-35,4
230,42,32,1039,54,31,2
231,-282,110,968,-25,62,9
232,-395,73,885,-90,35,4
233,-105,-52,949,-67,-35,-2
234,272,-128,1031,8,-76,2
235,356,-96,1040,69,-44,4
236,120,9,1048,63,20,2
237,-233,97,993,-14,60,9
238,-398,76,903,-79,45,8
239,-187,-42,928,-85,-22,-2
240,212,-130,1015,-1,-71,2
241,377,-115,1049,65,-57,6
242,182,-11,1031,73,6,1
243,-160,93,1008,16,56,6
244,-390,102,915,-77,54,10
245,-264,-9,918,-81,-6,-2
246,135,-111,1025,-21,-66,-1
247,375,-123,1045,53,-65,6
248,240,-40,1034,78,-7,2
249,-95,72,1015,30,50,5
250,-362,109,930,-60,60,11
251,-321,23,892,-91,10,2
252,41,-90,1010,-34,-58,0
253,356,-138,1043,35,-72,5
254,298,-61,1045,83,-23,4
255,-22,63,1049,51,40,4
256,-314,107,931,-53,63,10
257,-366,52,872,-85,26,5
258,-41,-61,986,-58,-47,-1
259,319,-141,1031,19,-74,4
260,334,-88,1052,74,-36,5
261,60,32,1040,61,29,3
262,-276,109,988,-27,63,9
263,-403,68,872,-92,38,5
264,-119,-44,957,-63,-34,-2
265,263,-131,1027,0,-74,2
266,365,-108,1032,73,-47,6
267,134,9,1051,66,17,3
268,-223,92,1000,-9,59,7
269,-402,77,895,-80,47,7
270,-203,-22,937,-71,-20,-1
271,198,-133,1014,-14,-72,2
272,375,-127,1031,65,-58,4
273,201,0,1048,85,2,3
274,-150,97,1012,10,54,5
275,-390,105,903,-74,56,9
276,-275,0,931,-83,-3,0
277,112,-122,1011,-33,-64,-2
278,370,-137,1045,55,-65,5
279,260,-47,1040,75,-11,4
280,-86,67,1014,36,48,6
281,-354,120,926,-50,60,10
282,-330,36,903,-90,13,2
283,15,-95,991,-42,-55,-1
284,357,-137,1045,36,-73,4
285,312,-66,1048,82,-26,4
286,2,53,1038,49,38,4
287,-301,121,949,-40,62,11
288,-377,62,879,-89,30,5
289,-70,-62,962,-63,-42,-3
290,301,-136,1037,20,-74,3
291,347,-92,1047,70,-40,7
292,84,21,1042,61,25,3
293,-259,109,993,-18,62,8
294,-398,71,884,-90,41,7
295,-148,-46,943,-71,-28,-2
296,243,-125,1023,-1,-74,0
297,372,-111,1039,70,-51,5
298,149,-4,1029,66,13,1
299,-195,101,1008,11,57,7
300,-397,90,910,-83,51,8
301,-223,-22,923,-80,-15,-1
302,179,-116,1027,-11,-70,0
303,368,-129,1033,53,-59,4
304,207,-31,1038,82,-1,1
305,-125,87,1014,22,53,7
306,-380,105,913,-69,57,12
307,-290,3,912,-85,1,0
308,86,-110,1010,-30,-63,0
309,364,-142,1056,48,-68,6
310,272,-53,1033,76,-15,5
311,-59,73,1032,52,46,5
312,-335,113,927,-61,61,12
313,-345,36,884,-85,18,4
314,-8,-74,998,-42,-51,-3
315,340,-140,1039,26,-72,5
316,319,-84,1041,78,-29,7
317,31,37,1047,56,34,3
318,-289,107,960,-27,62,10
319,-388,72,881,-82,33,8
320,-100,-38,965,-59,-38,-1
321,273,-128,1031,10,-75,2
322,349,-99,1040,64,-44,7
323,122,17,1050,70,20,2
324,-226,100,993,-16,61,5
325,-397,80,895,-78,47,7
326,-181,-16,945,-71,-23,-2
327,203,-119,1022,-12,-71,1
328,363,-116,1020,64,-54,5
329,188,0,1053,70,5,3
330,-160,85,1000,2,57,6
331,-389,91,910,-76,53,5
332,-249,0,941,-76,-9,0
333,133,-116,1011,-30,-66,-1
334,363,-130,1035,54,-63,6
335,236,-36,1045,75,-7,5
336,-103,67,1007,19,50,5
337,-363,110,926,-55,58,9
338,-311,25,913,-89,6,1
339,55,-105,997,-43,-58,-2
340,358,-136,1044,42,-69,4
341,294,-57,1055,76,-21,4
342,-31,45,1024,39,42,6
343,-328,113,935,-44,62,11
344,-354,54,884,-83,21,3
345,-30,-72,987,-60,-51,-2
346,327,-139,1030,26,-73,2
347,341,-78,1061,75,-32,6
348,38,30,1032,52,33,4
349,-284,115,981,-23,62,10
350,-394,68,887,-92,36,6
351,-114,-60,937,-71,-36,0
352,274,-133,1034,15,-74,2
353,357,-99,1044,70,-45,5
354,125,12,1043,71,18,3
355,-228,117,997,-8,60,10
356,-403,89,906,-79,47,8
357,-189,-44,922,-93,-21,-2
358,207,-130,1021,0,-71,0
359,375,-121,1041,63,-56,5
360,188,-19,1037,74,7,4
361,-165,101,1014,22,57,9
362,-400,111,913,-78,54,9
363,-261,-10,916,-85,-7,-1
364,137,-117,1018,-27,-67,1
365,375,-133,1044,57,-64,5
366,248,-43,1047,79,-8,2
367,-104,73,1009,31,48,6
368,-367,113,927,-57,58,10
369,-322,22,891,-91,10,-1
370,42,-95,1010,-35,-58,-2
371,363,-148,1039,34,-73,4
372,304,-61,1045,88,-21,4
373,-22,63,1049,51,42,4
374,-325,109,936,-54,62,9
375,-371,54,872,-81,26,3
376,-39,-62,984,-60,-49,-2
377,321,-148,1027,22,-73,4
378,339,-90,1049,77,-35,3
379,67,39,1057,68,28,3
380,-275,108,978,-31,64,9
381,-404,69,881,-87,39,7
382,-127,-39,956,-61,-33,-2
383,247,-139,1016,-5,-73,2
384,373,-110,1037,76,-49,7
385,151,15,1044,71,15,2
386,-208,101,1001,-6,61,6
387,-398,95,905,-77,50,8
388,-215,0,941,-79,-17,0
389,179,-118,1010,-20,-68,-1
390,381,-122,1034,55,-59,5
391,213,-12,1050,77,1,5
392,-135,82,1004,7,57,5
393,-386,110,916,-68,58,11
394,-292,11,917,-90,0,1
395,91,-116,1005,-46,-64,-2
396,371,-133,1049,57,-68,4
397,278,-45,1053,67,-13,6
398,-70,60,1014,36,49,9
399,-352,126,927,-56,63,12
400,-336,35,897,-100,17,1
401,-2,-105,984,-57,-50,-4
402,352,-144,1041,34,-74,1
403,323,-79,1059,78,-28,6
404,3,38,1031,44,38,8
405,-310,121,965,-28,64,13
406,-385,51,875,-99,31,2
407,-79,-77,946,-60,-41,-4
408,303,-143,1050,21,-76,1
409,354,-103,1041,74,-39,4
410,86,20,1049,70,25,6
411,-260,125,999,-9,62,13
412,-403,82,881,-90,44,8
413,-154,-58,932,-77,-28,-4
414,240,-139,1024,3,-74,1
415,380,-115,1045,76,-51,5
416,162,-2,1038,73,13,5
417,-191,116,1011,15,60,13
418,-395,110,904,-81,55,12
419,-249,-18,918,-89,-11,-2
420,163,-126,1028,-13,-70,-2
421,381,-129,1041,56,-63,5
422,237,-37,1038,83,-2,5
423,-116,93,1022,30,54,12
424,-383,126,919,-61,62,14
425,-321,14,890,-100,7,0
426,59,-107,1012,-35,-62,-3
427,369,-145,1053,44,-72,3
428,305,-74,1045,76,-19,4
429,-33,60,1038,54,45,9
430,-329,127,930,-48,63,14
431,-363,55,868,-88,24,5
432,-50,-72,986,-57,-48,-5
433,327,-141,1050,28,-76,1
434,347,-90,1048,77,-35,5
435,55,29,1046,57,32,6
436,-272,115,975,-17,66,14
437,-402,75,872,-94,41,8
438,-135,-48,939,-67,-34,-3
439,259,-128,1043,12,-76,-2
440,365,-106,1040,66,-47,5
441,139,0,1048,69,17,5
442,-208,104,1005,-6,61,12
443,-401,97,890,-76,51,10
444,-220,-25,923,-86,-17,-1
445,183,-124,1022,-8,-72,-3
446,376,-114,1042,67,-59,4
447,211,-26,1044,66,1,5
448,-128,80,1012,19,56,11
449,-384,110,908,-70,58,12
450,-296,0,909,-82,0,-3
451,102,-109,1025,-29,-66,-4
452,362,-118,1048,57,-69,4
453,272,-53,1040,70,-14,4
454,-53,63,1015,38,48,10
455,-344,129,935,-47,64,14
456,-344,30,885,-102,18,0
457,-9,-94,992,-44,-53,-5
458,344,-128,1060,40,-74,1
459,326,-79,1044,70,-28,5
460,17,37,1045,53,37,7
461,-289,117,949,-34,65,15
462,-386,54,861,-91,33,7
463,-104,-67,958,-64,-39,-4
464,294,-126,1063,29,-77,0
465,353,-101,1039,66,-42,5
466,107,11,1051,67,23,7
467,-234,110,996,-8,63,14
468,-404,78,867,-92,47,8
469,-192,-42,932,-70,-24,-4
470,206,-119,1036,4,-75,-2
471,372,-112,1044,67,-57,4
472,189,-13,1028,68,7,4
473,-147,101,1023,15,57,12
474,-383,91,908,-77,57,12
475,-269,-13,899,-85,-6,-1
476,127,-95,1039,-6,-69,-5
477,358,-122,1039,41,-65,4
478,250,-40,1020,76,-9,5
479,-77,80,1039,34,50,9
480,-356,106,913,-68,61,13
481,-324,9,895,-91,11,1
482,34,-87,1014,-33,-59,-4
483,341,-122,1065,46,-71,3
484,295,-65,1029,64,-22,5
485,-13,51,1032,50,40,9
486,-304,116,933,-50,63,14
487,-358,44,881,-90,25,2
488,-59,-72,988,-54,-45,-4
489,311,-130,1053,25,-74,1
490,330,-86,1037,68,-35,6
491,59,26,1052,54,29,6
492,-257,104,964,-26,63,13
493,-390,61,864,-90,41,6
494,-139,-58,941,-69,-32,-5
495,255,-123,1057,16,-76,-1
496,349,-99,1040,66,-48,2
497,141,3,1047,72,14,6
498,-202,100,1009,-5,60,13
499,-397,84,875,-79,50,10
500,-204,-31,927,-80,-18,-4
501,181,-114,1034,-6,-72,-2
502,361,-117,1036,64,-57,1
503,202,-22,1039,70,1,3
504,-133,86,1015,20,54,12
505,-375,100,903,-73,56,11
506,-284,-8,908,-82,-1,-1
507,103,-100,1030,-16,-66,-3
508,348,-108,1044,53,-66,3
509,258,-50,1040,71,-13,3
510,-52,54,1014,25,47,9
511,-346,116,933,-43,62,13
512,-337,21,894,-97,16,0
513,-2,-94,988,-39,-55,-4
514,336,-110,1074,50,-75,1
515,312,-72,1036,60,-29,1
516,15,29,1032,53,37,6
517,-284,115,943,-35,62,14
518,-375,54,869,-87,32,3
519,-89,-65,971,-60,-41,-5
520,290,-111,1061,31,-76,1
521,334,-90,1040,65,-41,2
522,92,0,1039,53,23,4
523,-232,99,985,-10,61,14
524,-399,70,874,-87,43,5
525,-169,-52,939,-65,-29,-5
526,221,-102,1037,15,-76,1
527,356,-94,1052,67,-53,4
528,176,-18,1026,61,10,3
529,-165,95,1020,7,57,13
530,-394,89,897,-73,54,7
531,-245,-16,916,-79,-12,-3
532,138,-91,1024,-5,-70,-1
533,356,-119,1051,48,-63,4
534,241,-52,1016,63,-7,3
535,-76,70,1019,33,51,10
536,-363,97,916,-63,62,11
537,-324,16,908,-76,6,1
538,39,-76,1027,-28,-60,-4
539,331,-111,1054,43,-71,3
540,297,-59,1026,66,-25,5
541,9,41,1015,37,40,7
542,-301,93,939,-44,67,10
543,-362,44,896,-81,26,1
544,-69,-49,996,-41,-45,-3
545,290,-117,1049,18,-75,2
546,328,-85,1034,67,-39,6
547,79,20,1037,51,26,5
548,-235,74,959,-33,64,7
549,-377,56,879,-74,39,5
550,-143,-21,963,-54,-31,-3
551,237,-98,1045,12,-71,1
552,334,-84,1042,59,-48,7
553,147,12,1041,56,12,6
554,-184,74,994,-14,60,6
555,-384,55,887,-81,51,8
556,-202,-22,946,-63,-16,1
557,169,-104,1022,-13,-67,0
558,341,-100,1029,66,-56,7
559,200,-4,1046,63,1,6
560,-131,65,1006,2,53,6
561,-368,70,907,-69,56,7
562,-258,0,933,-75,-4,1
563,110,-99,1009,-24,-63,0
564,347,-111,1035,51,-63,5
565,234,-26,1039,76,-10,5
566,-76,59,1020,18,48,5
567,-352,90,916,-59,61,9
568,-320,13,916,-83,8,1
569,33,-96,1001,-39,-57,-4
570,333,-120,1058,51,-70,5
571,289,-58,1037,67,-25,5
572,-1,37,1012,46,38,3
573,-290,104,945,-37,63,11
574,-370,47,887,-84,28,5
575,-79,-62,990,-47,-46,-5
576,294,-124,1045,24,-77,1
577,335,-89,1034,72,-41,7
578,106,17,1032,54,23,6
579,-217,95,977,-14,64,9
580,-397,75,884,-80,45,5
581,-182,-13,956,-62,-26,-3
582,200,-102,1037,4,-73,-1
583,342,-104,1040,51,-54,7
584,192,-15,1033,63,5,6
585,-137,69,1002,-3,58,4
586,-382,65,895,-67,57,6
587,-252,10,937,-64,-9,0
588,116,-73,1029,-15,-67,-3
589,339,-112,1028,48,-62,5
590,247,-21,1024,63,-10,9
591,-62,62,1013,17,49,7
592,-343,60,925,-73,62,6
593,-310,13,921,-67,8,2
594,48,-69,1025,-28,-56,-2
595,313,-115,1027,32,-64,5
596,270,-40,1029,74,-21,9
597,-12,50,1019,23,38,6
598,-308,72,936,-49,63,8
599,-338,30,902,-82,20,4
600,-19,-65,1008,-39,-47,-2
601,302,-125,1040,23,-68,3
602,298,-64,1038,72,-30,8
603,26,41,1034,50,31,5
604,-267,83,938,-49,60,7
605,-368,41,869,-80,31,3
606,-94,-49,996,-54,-38,-4
607,275,-125,1038,12,-72,2
608,327,-84,1035,73,-42,7
609,104,26,1044,59,20,4
610,-217,84,981,-18,60,7
611,-402,67,876,-80,44,5
612,-173,-14,956,-54,-26,-4
613,203,-107,1037,-10,-73,-1
614,347,-109,1020,59,-55,7
615,200,0,1047,72,5,6
616,-140,79,1008,-5,56,8
617,-387,72,905,-73,57,9
618,-264,3,924,-75,-9,-3
619,111,-86,1024,-18,-68,-4
620,351,-114,1031,46,-65,5
621,254,-32,1037,64,-13,10
622,-55,62,1005,20,49,7
623,-351,89,928,-66,61,8
624,-323,16,924,-80,9,-1
625,37,-87,1007,-41,-57,-5
626,323,-116,1048,40,-69,4
627,282,-57,1031,65,-24,7
628,-4,39,1014,30,38,8
629,-310,94,946,-42,62,11
630,-347,29,897,-93,23,1
631,-46,-76,986,-42,-46,-5
632,302,-116,1051,25,-74,2
633,320,-78,1039,71,-35,6
634,55,30,1039,52,29,8
635,-254,102,951,-33,62,14
636,-380,55,887,-85,36,4
637,-126,-59,960,-66,-33,-8
638,253,-121,1041,18,-74,-1
639,346,-93,1042,65,-46,6
640,131,7,1036,64,17,8
641,-206,96,993,-9,60,14
642,-395,75,896,-81,48,8
643,-195,-32,930,-73,-20,-5
644,189,-105,1035,-3,-70,-2
645,355,-110,1032,58,-55,6
646,188,-12,1029,68,4,5
647,-145,90,1011,11,55,12
648,-375,81,920,-76,55,11
649,-251,-18,914,-81,-6,-2
650,138,-99,1025,-13,-63,-2
651,353,-116,1036,47,-60,6
652,223,-28,1029,75,-5,5
653,-101,76,1022,23,49,9
654,-370,92,912,-70,57,12
655,-296,0,908,-82,5,-1
656,81,-105,1028,-31,-60,-3
657,355,-134,1046,46,-66,6
658,272,-51,1037,81,-16,5
659,-56,61,1027,45,43,7
660,-344,106,922,-54,62,13
661,-349,32,886,-87,19,0
662,-5,-88,1003,-43,-53,-4
663,346,-138,1042,31,-75,4
664,326,-75,1038,87,-30,3
665,28,43,1056,61,34,5
666,-290,114,946,-31,64,13
667,-395,77,875,-80,34,3
668,-103,-48,970,-63,-41,-5
669,284,-130,1037,17,-77,3
670,356,-94,1046,72,-45,6
671,133,10,1047,65,19,5
672,-224,94,990,-14,63,10
673,-418,84,888,-76,49,7
674,-207,-15,939,-67,-22,-5
675,192,-107,1026,-8,-75,-1
676,368,-109,1036,63,-60,7
677,215,-15,1033,67,1,3
678,-117,79,1005,8,58,6
679,-387,98,920,-67,60,9
680,-290,16,929,-80,-3,-1
681,90,-94,1012,-24,-67,-4
682,347,-116,1033,49,-69,4
683,259,-39,1043,65,-15,6
684,-41,49,1002,24,46,5
685,-341,95,932,-61,62,11
686,-331,25,915,-80,13,0
687,14,-74,1000,-49,-55,-4
688,329,-107,1057,43,-70,5
689,297,-53,1044,58,-26,7
690,-11,36,1015,39,38,5
691,-295,88,943,-52,61,9
692,-358,30,885,-93,24,4
693,-48,-81,981,-51,-43,-6
694,314,-122,1047,25,-73,2
695,317,-76,1040,76,-35,5
696,48,35,1041,49,28,5
697,-265,106,976,-23,60,12
698,-387,56,874,-96,36,4
699,-110,-63,958,-65,-35,-6
700,267,-129,1030,13,-74,1
701,351,-97,1051,69,-44,6
702,126,4,1036,68,18,5
703,-221,110,1002,-6,61,14
704,-404,77,893,-87,47,9
705,-194,-42,926,-76,-21,-6
706,199,-122,1034,-3,-72,-1
707,369,-117,1031,65,-57,5
708,195,-13,1035,72,3,3
709,-148,96,1008,19,56,11
710,-381,103,914,-76,57,11
711,-281,-7,916,-81,-2,-4
712,123,-113,1032,-21,-67,-4
713,355,-129,1035,49,-67,5
714,256,-45,1036,82,-12,4
715,-64,67,1011,31,48,9
716,-356,109,926,-52,63,14
717,-333,28,907,-86,12,-1
718,18,-87,1003,-36,-56,-5
719,337,-128,1047,40,-72,5
720,308,-64,1049,75,-27,5
721,2,43,1024,50,38,7
722,-287,112,947,-44,61,14
723,-370,54,875,-85,31,5
724,-68,-59,985,-57,-41,-5
725,294,-126,1047,25,-73,3
726,332,-84,1038,68,-39,7
727,83,24,1046,53,24,7
728,-247,99,972,-20,63,12
729,-394,71,891,-87,41,7
730,-145,-50,947,-67,-29,-4
731,234,-124,1026,4,-73,0
732,363,-97,1044,70,-49,7
733,155,2,1040,65,14,8
734,-193,97,1002,-2,61,11
735,-399,89,903,-76,52,11
736,-228,-22,923,-85,-15,-3
737,165,-116,1023,-9,-70,-2
738,376,-115,1042,59,-60,7
739,222,-17,1034,66,-2,9
740,-117,89,1009,20,54,10
741,-389,104,913,-75,61,12
742,-304,-2,920,-87,2,1
743,87,-116,1014,-34,-63,-5
744,365,-128,1047,53,-69,6
745,275,-47,1040,75,-18,7
746,-56,66,1011,37,45,9
747,-346,121,938,-47,62,12
748,-341,26,895,-100,17,2
749,-3,-93,989,-47,-51,-4
750,345,-125,1064,38,-74,2
751,320,-79,1035,66,-28,7
752,8,46,1039,58,38,8
753,-296,125,960,-37,63,14
754,-382,44,858,-100,32,3
755,-81,-77,966,-61,-40,-5
756,304,-124,1052,27,-75,2
757,341,-92,1047,67,-40,4
758,79,20,1039,62,24,6
759,-249,115,997,-14,61,14
760,-404,68,871,-100,42,5
761,-150,-59,937,-68,-29,-6
762,243,-125,1038,5,-75,1
763,360,-111,1038,70,-51,5
764,156,-9,1036,69,12,4
765,-190,114,1012,9,59,13
766,-402,94,902,-83,51,9
767,-228,-41,913,-89,-14,-7
768,173,-110,1025,3,-69,-3
769,370,-109,1042,59,-61,4
770,224,-25,1034,71,-3,4
771,-118,94,1014,26,53,10
772,-382,119,907,-71,59,12
773,-301,3,919,-88,2,-5
774,84,-112,1014,-37,-63,-5
775,363,-123,1054,51,-70,5
776,277,-50,1033,74,-16,3
777,-48,68,1020,38,46,9
778,-344,121,936,-56,63,13
779,-345,33,886,-101,19,-3
780,-16,-99,991,-48,-51,-8
781,340,-137,1047,31,-75,3
782,325,-73,1048,78,-30,6
783,21,44,1039,50,35,8
784,-290,124,958,-36,62,15
785,-380,58,866,-96,33,2
786,-90,-80,965,-72,-39,-8
787,291,-138,1038,22,-74,0
788,349,-88,1055,72,-42,4
789,90,13,1041,62,23,6
790,-244,113,997,-11,60,15
791,-403,71,877,-95,45,6
792,-157,-67,930,-75,-26,-7
793,228,-126,1031,8,-72,0
794,367,-91,1051,78,-52,4
795,158,3,1030,62,12,2
796,-178,110,1011,8,57,15
797,-385,100,909,-81,52,12
798,-239,-50,909,-90,-11,-7
799,158,-131,1023,-7,-67,-2
800,365,-114,1061,58,-60,6
801,216,-26,1011,70,-2,1
802,-102,106,1029,34,50,12
803,-376,121,911,-69,56,13
804,-302,-9,903,-92,2,-5
805,69,-121,1020,-28,-62,-5
806,355,-125,1061,46,-68,6
807,276,-52,1034,67,-15,1
808,-42,72,1017,45,42,8
809,-327,132,936,-44,59,15
810,-346,21,882,-94,17,-2
811,-28,-108,987,-45,-50,-6
812,324,-134,1062,31,-73,4
813,321,-68,1041,68,-30,3
814,32,50,1035,53,34,3
815,-274,130,960,-22,58,15
816,-387,51,882,-93,29,3
817,-104,-91,946,-62,-40,-9
818,279,-136,1055,20,-73,2
819,341,-96,1036,59,-41,5
820,119,30,1037,68,21,4
821,-232,126,1006,-7,57,12
822,-399,72,885,-83,38,5
823,-172,-58,939,-68,-27,-8
824,206,-129,1029,-4,-71,-1
825,362,-115,1039,57,-50,5
826,180,2,1026,67,10,2
827,-161,117,1006,18,54,10
828,-381,98,914,-74,48,10
829,-251,-36,925,-80,-12,-3
830,136,-136,1023,-18,-67,-3
831,357,-131,1045,46,-59,5
832,236,-18,1019,78,-3,3
833,-88,105,1019,30,48,10
834,-359,117,921,-56,56,12
835,-307,4,916,-82,4,-1
836,38,-120,1008,-40,-57,-3
837,337,-140,1049,40,-65,4
838,298,-47,1042,69,-16,4
839,-15,64,1020,44,41,8
840,-307,116,932,-42,59,14
841,-361,52,892,-71,19,3
842,-66,-94,990,-58,-48,-8
843,299,-153,1034,17,-72,0
844,348,-75,1051,77,-34,6
845,83,39,1034,48,30,7
846,-247,112,966,-12,60,15
847,-399,86,896,-73,36,7
848,-162,-62,950,-74,-32,-8
849,223,-148,1025,2,-74,-3
850,361,-88,1042,69,-49,3
851,172,7,1041,59,14,4
852,-172,95,995,-2,58,12
853,-387,95,915,-60,49,9
854,-240,-30,935,-80,-16,-7
855,142,-132,1009,-17,-69,-4
856,359,-107,1040,59,-58,4
857,234,-12,1027,63,-1,3
858,-96,93,1000,22,52,12
859,-364,115,942,-59,55,12
860,-302,-7,918,-84,1,-4
861,69,-116,1012,-32,-61,-6
862,333,-113,1049,42,-64,3
863,274,-39,1024,62,-14,3
864,-24,75,1003,30,44,11
865,-326,118,945,-46,59,14
866,-344,20,906,-90,15,-2
867,-17,-103,1003,-43,-50,-6
868,309,-131,1047,18,-65,3
869,305,-63,1037,57,-25,3
870,14,51,1021,43,34,6
871,-269,109,948,-32,58,14
872,-356,34,887,-81,25,4
873,-81,-94,972,-57,-42,-7
874,272,-132,1049,21,-68,-1
875,315,-72,1037,62,-34,2
876,103,39,1031,50,23,6
877,-218,110,976,-9,58,15
878,-384,55,903,-71,35,6
879,-164,-77,943,-63,-30,-6
880,200,-131,1035,4,-70,-2
881,347,-93,1033,54,-46,4
882,186,22,1030,59,14,6
883,-157,117,1006,8,57,14
884,-377,85,912,-61,47,10
885,-250,-36,937,-75,-15,-4
886,123,-133,1016,-22,-65,-5
887,350,-107,1043,43,-53,3
888,251,-7,1023,51,0,3
889,-66,94,997,20,53,11
890,-360,107,930,-54,56,14
891,-322,-4,925,-70,-2,-2
892,33,-115,1027,-42,-59,-7
893,321,-119,1047,23,-59,1
894,304,-23,1029,49,-10,3
895,8,72,1000,23,45,9
896,-304,99,932,-35,60,16
897,-359,16,914,-73,13,2
898,-73,-114,996,-50,-48,-7
899,287,-134,1056,2,-62,0
900,342,-45,1040,41,-20,4
901,74,59,1015,35,36,5
902,-239,105,948,-14,54,14
903,-384,42,888,-55,23,8
904,-152,-87,978,-63,-40,-7
905,231,-137,1053,-7,-63,-3
906,351,-57,1041,31,-28,1
907,158,49,1017,42,27,4
908,-180,115,982,3,53,13
909,-391,55,903,-54,31,11
910,-219,-83,952,-62,-30,-4
911,165,-144,1036,-26,-62,-2
912,361,-78,1043,29,-34,4
913,208,27,1004,36,19,1
914,-139,114,991,23,48,9
915,-368,78,926,-39,33,14
916,-264,-74,930,-67,-21,1
917,114,-164,1032,-27,-62,-1
918,360,-103,1053,28,-42,6
919,234,9,1005,51,9,2
920,-90,106,987,44,42,9
921,-365,95,932,-20,36,17
922,-330,-60,915,-55,-15,3
923,53,-170,1032,-27,-67,-3
924,351,-118,1066,42,-55,6
925,293,-6,1021,58,-5,2
926,-28,105,995,62,39,6
927,-317,139,943,-6,47,20
928,-360,16,902,-67,2,7
929,-39,-143,995,-39,-59,-7
930,317,-146,1060,28,-66,4
931,326,-47,1033,64,-22,3
932,61,67,1019,54,32,5
933,-258,139,956,0,56,19
934,-392,70,905,-64,21,7
935,-124,-89,958,-63,-43,-9
936,253,-135,1045,14,-70,3
937,342,-82,1046,48,-39,3
938,151,25,1026,58,20,3
939,-206,116,994,0,58,15
940,-396,85,908,-62,37,10
941,-196,-48,945,-67,-26,-4
942,179,-127,1024,-12,-67,0
943,359,-96,1040,48,-48,6
944,199,17,1025,50,9,2
945,-142,97,1000,10,53,9
946,-370,81,917,-66,46,12
947,-251,-35,941,-74,-12,0
948,120,-143,1014,-25,-62,-2
949,343,-110,1040,44,-54,5
950,233,1,1038,61,-1,4
951,-95,84,992,13,48,5
952,-354,100,920,-45,50,14
953,-294,-7,930,-77,-1,2
954,51,-148,997,-41,-58,-3
955,342,-134,1060,43,-59,6
956,274,-23,1045,62,-9,3
957,-44,84,1006,42,40,5
958,-311,122,934,-32,52,13
959,-344,27,891,-74,11,5
960,-22,-128,999,-52,-52,-4
961,312,-153,1037,26,-65,5
962,315,-51,1054,75,-24,3
963,47,56,1021,43,33,5
964,-263,128,961,-8,56,14
965,-385,73,903,-69,25,5
966,-119,-83,962,-64,-41,-5
967,244,-152,1023,7,-68,2
968,350,-80,1054,61,-39,6
969,149,22,1025,51,20,4
970,-192,123,981,3,55,13
971,-393,102,926,-55,38,10
972,-217,-51,940,-80,-23,-5
973,161,-153,1011,-21,-66,-1
974,361,-106,1050,59,-51,6
975,216,-2,1018,52,6,3
976,-104,96,993,18,52,11
977,-367,103,929,-57,49,12
978,-286,-15,934,-71,-7,-2
979,87,-126,1014,-28,-61,-2
980,334,-121,1047,38,-58,7
981,254,-34,1027,57,-6,3
982,-52,77,995,32,43,4
983,-331,108,941,-40,53,12
984,-318,7,911,-80,5,2
985,7,-119,999,-40,-53,-3
986,309,-132,1049,34,-62,4
987,300,-44,1047,62,-19,2
988,9,70,1009,47,37,6
989,-274,118,949,-32,54,14
990,-356,33,894,-77,19,4
991,-83,-90,980,-49,-43,-7
992,275,-135,1046,16,-65,2
993,325,-78,1036,54,-30,4
994,102,45,1026,53,27,4
995,-226,125,982,-2,57,11
996,-388,70,904,-78,32,6
997,-160,-59,949,-61,-32,-5
998,211,-135,1039,-9,-67,0
999,339,-105,1027,41,-39,3
1000,177,14,1029,59,16,2
1001,-161,113,993,2,55,11
1002,-383,82,913,-57,43,9
1003,-235,-42,940,-75,-19,-4
1004,134,-137,1028,-17,-62,-2
1005,347,-114,1036,35,-47,4
1006,242,0,1018,57,6,4
1007,-83,103,993,20,50,8
1008,-356,99,923,-48,49,11
1009,-312,-13,937,-66,-3,0
1010,41,-134,1021,-36,-60,-3
1011,332,-133,1043,35,-59,7
1012,293,-29,1027,55,-8,6
1013,-6,82,995,39,44,6
1014,-308,118,944,-27,53,11
1015,-363,29,910,-67,10,2
1016,-62,-104,1001,-47,-52,-4
1017,293,-141,1046,11,-67,2
1018,333,-61,1040,45,-22,7
1019,86,52,1014,46,32,7
1020,-238,111,946,-22,56,12
1021,-387,63,899,-49,26,7
1022,-152,-65,982,-69,-39,-5
1023,221,-135,1030,2,-65,0
1024,349,-70,1053,43,-37,8
1025,159,32,1008,39,20,7
1026,-173,97,984,0,55,11
1027,-387,71,910,-55,37,9
1028,-218,-54,946,-63,-25,-2
1029,152,-139,1027,-22,-64,-2
1030,349,-90,1037,50,-44,7
1031,215,13,1017,42,8,5
1032,-113,89,985,18,51,8
1033,-365,82,936,-42,43,11
1034,-279,-42,937,-70,-15,-1
1035,93,-139,1016,-18,-62,-3
1036,339,-112,1051,40,-52,7
1037,253,-11,1007,55,-6,5
1038,-45,97,996,39,42,7
1039,-337,110,942,-30,50,13
1040,-328,-1,927,-70,-2,2
1041,18,-129,1018,-37,-58,-3
1042,317,-133,1050,35,-61,4
1043,298,-36,1031,57,-16,6
1044,12,69,992,44,37,7
1045,-299,115,944,-20,57,13
1046,-372,43,912,-71,15,5
1047,-73,-84,992,-43,-48,-6
1048,291,-140,1046,9,-69,2
1049,338,-73,1032,61,-31,7
1050,92,49,1026,54,28,6
1051,-238,104,962,-15,60,11
1052,-398,67,901,-65,33,8
1053,-158,-47,961,-62,-35,-4
1054,234,-134,1043,1,-69,-3
1055,348,-93,1032,48,-41,6
1056,171,29,1034,60,16,6
1057,-180,94,995,-11,61,11
1058,-403,68,900,-67,47,10
1059,-227,-33,947,-64,-22,-4
1060,157,-123,1028,-22,-69,-4
1061,352,-106,1025,49,-54,4
1062,232,3,1034,55,1,5
1063,-104,80,993,8,56,11
1064,-373,85,924,-53,55,11
1065,-297,-7,943,-70,-6,-2
1066,77,-117,1012,-30,-63,-5
1067,338,-111,1037,36,-62,3
1068,270,-12,1027,60,-10,5
1069,-30,65,1000,16,50,9
1070,-336,93,926,-38,60,14
1071,-336,5,929,-73,8,1
1072,-11,-120,997,-43,-56,-9
1073,311,-118,1058,37,-67,2
1074,307,-26,1040,54,-21,5
1075,27,55,995,35,38,8
1076,-280,107,939,-21,60,16
1077,-366,39,915,-73,19,5
1078,-88,-106,986,-54,-47,-7
1079,280,-133,1041,18,-68,1
1080,339,-51,1051,63,-31,8
1081,92,34,1019,36,27,6
1082,-230,93,954,-1,59,14
1083,-388,70,920,-54,29,9
1084,-152,-77,949,-67,-38,-5
1085,220,-146,1031,11,-68,1
1086,345,-80,1048,61,-42,8
1087,159,32,1022,58,15,8
1088,-179,101,994,3,56,10
1089,-394,75,909,-58,42,10
1090,-219,-40,948,-68,-23,-2
1091,160,-132,1018,-12,-68,-2
1092,356,-110,1041,59,-53,8
1093,212,-3,1012,59,2,7
1094,-108,100,1002,29,51,9
1095,-375,96,930,-59,53,8
1096,-283,-9,930,-77,-7,0
1097,93,-110,1019,-23,-62,-3
1098,337,-126,1038,40,-60,6
1099,261,-34,1022,69,-11,8
1100,-38,81,1005,32,44,9
1101,-342,104,939,-49,59,10
1102,-335,12,917,-80,10,0
1103,5,-91,999,-39,-54,-5
1104,318,-128,1058,34,-68,1
1105,308,-60,1027,57,-26,6
1106,25,57,1016,49,38,8
1107,-283,102,949,-40,63,10
1108,-368,42,893,-76,26,3
1109,-80,-67,998,-54,-41,-5
1110,280,-141,1026,8,-68,0
1111,329,-75,1040,73,-36,7
1112,90,43,1035,48,25,7
1113,-231,91,962,-22,60,9
1114,-391,65,900,-72,36,6
1115,-152,-41,964,-57,-31,-5
1116,222,-142,1031,-8,-69,-3
1117,345,-97,1028,59,-45,8
1118,172,35,1047,66,12,6
1119,-173,91,984,-9,59,8
1120,-397,71,910,-62,47,8
1121,-232,-32,945,-70,-18,-3
1122,144,-134,1016,-20,-68,-3
1123,354,-118,1028,55,-56,8
1124,234,9,1034,68,-2,8
1125,-93,84,994,12,52,8
1126,-369,90,921,-53,54,9
1127,-298,4,943,-70,-3,-1
1128,68,-109,1010,-36,-61,-6
1129,334,-125,1031,38,-63,4
1130,280,-19,1045,67,-13,10
1131,-24,63,999,19,45,8
1132,-333,96,929,-38,62,11
1133,-345,26,933,-76,11,3
1134,-25,-108,979,-52,-53,-6
1135,309,-140,1048,33,-69,0
1136,323,-46,1046,67,-27,8
1137,40,57,1020,43,35,10
1138,-272,96,932,-35,61,9
1139,-373,48,912,-66,27,4
1140,-103,-76,978,-59,-41,-8
1141,273,-139,1026,12,-69,-2
1142,347,-73,1052,66,-37,7
1143,108,34,1018,46,26,7
1144,-223,94,982,-4,62,11
1145,-400,59,907,-69,39,8
1146,-174,-48,951,-59,-29,-4
1147,210,-129,1037,-1,-70,-2
1148,354,-103,1031,54,-47,6
1149,188,20,1027,65,12,7
1150,-152,102,998,3,59,10
1151,-393,77,916,-61,49,11
1152,-253,-23,934,-70,-15,-1
1153,129,-114,1022,-14,-68,-4
1154,358,-117,1040,42,-56,6
1155,240,-5,1015,59,-2,8
1156,-74,88,1002,23,51,8
1157,-367,83,923,-59,57,12
1158,-315,9,932,-67,-1,2
1159,63,-92,1027,-35,-61,-3
1160,327,-129,1029,26,-63,5
1161,268,-28,1032,69,-16,8
1162,-18,72,1011,27,39,7
1163,-326,84,934,-45,57,11
1164,-335,20,910,-74,10,4
1165,-16,-92,1004,-40,-53,-1
1166,304,-143,1038,23,-67,4
1167,296,-49,1045,70,-26,6
1168,34,60,1025,45,31,7
1169,-269,88,941,-40,58,13
1170,-361,36,893,-71,25,5
1171,-79,-71,1000,-52,-42,-4
1172,270,-146,1018,10,-69,1
1173,316,-75,1038,73,-35,7
1174,98,44,1044,54,24,6
1175,-234,90,965,-18,59,9
1176,-382,48,900,-72,36,5
1177,-152,-42,961,-49,-30,-2
1178,209,-130,1023,-2,-68,-2
1179,338,-103,1034,61,-46,5
1180,176,20,1039,68,11,5
1181,-159,103,987,0,57,6
1182,-382,82,921,-59,49,7
1183,-240,-16,939,-76,-15,0
1184,127,-119,1016,-15,-66,-4
1185,348,-123,1034,51,-56,5
1186,235,-10,1034,63,-2,10
1187,-78,80,992,17,49,5
1188,-354,89,926,-57,55,5
1189,-308,18,940,-65,0,2
1190,52,-89,1021,-34,-60,-3
1191,317,-122,1034,34,-59,5
1192,279,-33,1030,63,-15,11
1193,-4,65,1002,22,42,6
1194,-309,89,936,-40,60,5
1195,-344,31,919,-78,14,3
1196,-37,-81,1004,-45,-49,-1
1197,299,-128,1029,15,-64,2
1198,305,-44,1052,60,-26,7
1199,47,45,1020,29,34,5
1200,-254,90,944,-36,61,9
1201,-355,38,896,-73,28,6
1202,-88,-75,977,-62,-35,-1
1203,269,-128,1037,8,-62,2
1204,325,-59,1049,57,-28,5
1205,71,37,1030,34,31,6
1206,-252,85,968,-21,58,11
1207,-383,33,890,-78,31,7
1208,-131,-82,953,-62,-34,-3
1209,241,-132,1040,2,-67,-1
1210,347,-76,1039,52,-36,2
1211,132,34,1027,55,22,1
1212,-209,114,988,3,57,10
1213,-397,70,902,-61,36,10
1214,-201,-72,936,-76,-28,-4
1215,188,-149,1032,-6,-68,-1
1216,368,-106,1047,48,-44,4
1217,201,16,1014,63,11,0
1218,-132,124,1005,29,51,7
1219,-387,103,902,-56,45,11
1220,-284,-17,939,-64,-16,-2
1221,109,-140,1031,-32,-67,-3
1222,353,-123,1040,36,-54,6
1223,269,-18,1037,56,-1,0
1224,-36,80,987,26,47,7
1225,-348,122,934,-22,54,14
1226,-350,31,915,-70,1,0
1227,-11,-113,1009,-45,-59,-4
1228,326,-137,1044,12,-66,4
1229,333,-49,1048,50,-18,3
1230,35,49,1015,38,41,6
1231,-277,107,934,-22,58,17
1232,-383,42,896,-62,21,6
1233,-102,-95,983,-64,-45,-5
1234,281,-131,1043,11,-67,2
1235,351,-49,1053,52,-27,2
1236,101,47,1019,41,33,3
1237,-244,94,977,-14,60,14
1238,-403,51,884,-68,31,8
1239,-148,-75,967,-55,-35,-3
1240,233,-138,1033,-15,-65,2
1241,364,-76,1040,50,-31,3
1242,161,35,1036,49,27,2
1243,-206,111,988,5,58,12
1244,-406,76,898,-54,38,11
1245,-228,-71,942,-78,-26,-2
1246,172,-167,1019,-19,-65,1
1247,388,-107,1052,47,-42,5
1248,216,12,1021,59,15,1
1249,-134,118,985,35,49,7
1250,-397,116,918,-39,38,11
1251,-308,-36,924,-70,-17,1
1252,110,-151,1039,-33,-68,-1
1253,385,-135,1053,32,-53,7
1254,289,-25,1017,61,4,0
1255,-59,100,1002,48,48,4
1256,-362,141,930,-17,45,14
1257,-372,20,909,-71,-1,5
1258,-18,-126,1005,-45,-60,-1
1259,353,-143,1058,19,-65,4
1260,341,-55,1034,54,-13,3
1261,27,64,1016,52,38,2
1262,-297,124,943,-11,51,12
1263,-409,53,889,-58,15,8
1264,-104,-88,993,-59,-50,-3
1265,300,-150,1042,7,-70,3
1266,364,-70,1038,54,-30,4
1267,103,51,1024,55,26,0
1268,-232,118,980,-2,53,10
1269,-414,66,894,-71,30,9
1270,-168,-64,961,-60,-36,-4
1271,229,-141,1035,-9,-69,0
1272,363,-95,1034,47,-39,4
1273,167,17,1027,52,18,-1
1274,-183,105,992,8,56,9
1275,-400,86,906,-55,41,10
1276,-225,-40,950,-72,-25,-3
1277,163,-144,1020,-22,-66,0
1278,370,-106,1046,43,-46,5
1279,223,9,1024,54,10,2
1280,-120,99,1001,19,54,9
1281,-380,87,906,-58,47,12
1282,-294,-27,938,-66,-10,-1
1283,99,-143,1025,-32,-63,-1
1284,354,-123,1041,36,-53,5
1285,266,-7,1039,65,-1,1
1286,-61,84,995,27,46,4
1287,-350,105,923,-33,52,13
1288,-339,18,930,-67,1,4
1289,9,-133,989,-48,-58,-2
1290,340,-139,1053,32,-62,5
1291,321,-32,1050,59,-13,3
1292,13,73,1021,42,40,2
1293,-300,121,932,-22,55,13
1294,-389,51,896,-62,17,6
1295,-85,-101,988,-67,-48,-5
1296,296,-151,1036,11,-69,2
1297,357,-59,1050,60,-28,2
1298,99,46,1024,43,32,2
1299,-247,112,966,-6,57,13
1300,-418,81,903,-61,29,6
1301,-165,-58,962,-67,-39,-5
1302,229,-143,1028,-16,-70,0
1303,363,-89,1039,49,-39,2
1304,184,10,1032,45,18,-1
1305,-180,96,978,5,57,12
1306,-401,87,917,-49,41,10
1307,-240,-44,941,-77,-24,-7
1308,150,-135,1022,-18,-68,-3
1309,367,-98,1047,39,-48,3
1310,235,-1,1026,46,9,1
1311,-97,78,979,16,56,11
1312,-369,96,930,-45,48,13
1313,-297,-20,935,-70,-10,-3
1314,70,-126,1017,-33,-60,-5
1315,350,-101,1061,30,-53,2
1316,270,-22,1022,45,1,2
1317,-43,65,986,27,50,8
1318,-336,109,937,-22,53,18
1319,-334,1,918,-74,0,3
1320,-8,-126,996,-39,-52,-4
1321,331,-120,1064,23,-57,4
1322,318,-34,1038,45,-8,2
1323,3,71,1006,46,42,5
1324,-300,125,945,-16,48,12
1325,-372,21,897,-67,9,6
1326,-73,-114,982,-54,-47,-1
1327,318,-143,1055,12,-59,5
1328,356,-66,1037,45,-14,7
1329,75,59,1014,54,38,4
1330,-280,133,978,5,52,11
1331,-416,61,891,-63,19,8
1332,-149,-82,965,-58,-42,-1
1333,267,-154,1047,-13,-67,5
1334,395,-93,1030,40,-27,7
1335,164,43,1027,62,29,2
1336,-226,132,994,12,53,9
1337,-436,76,892,-54,32,11
1338,-245,-54,943,-65,-31,-1
1339,188,-152,1043,-25,-70,0
1340,410,-132,1030,30,-43,6
1341,242,14,1017,66,14,3
1342,-134,128,1011,37,53,9
1343,-421,100,904,-55,45,14
1344,-313,-13,930,-64,-16,2
1345,105,-139,1041,-39,-67,-2
1346,391,-135,1036,24,-54,4
1347,301,-8,1039,64,3,5
1348,-66,95,1005,29,52,10
1349,-384,113,912,-30,54,17
1350,-364,8,918,-75,0,5
1351,0,-144,994,-51,-59,-3
1352,369,-146,1058,27,-63,4
1353,349,-36,1051,62,-11,5
1354,2,72,1014,44,44,5
1355,-324,126,941,-25,53,13
1356,-393,41,880,-63,13,5
1357,-85,-114,994,-69,-48,-5
1358,321,-163,1041,17,-65,4
1359,373,-69,1052,53,-19,8
1360,86,57,1022,56,38,5
1361,-270,134,971,1,55,12
1362,-421,75,891,-57,24,7
1363,-165,-77,954,-69,-40,-1
1364,251,-152,1046,-5,-68,4
1365,388,-98,1034,40,-30,8
1366,168,23,1023,60,26,4
1367,-208,127,1001,18,53,11
1368,-427,83,892,-53,32,10
1369,-240,-59,934,-66,-29,-2
1370,174,-143,1042,-16,-71,0
1371,399,-110,1046,45,-46,7
1372,228,5,1014,51,14,2
1373,-133,125,1000,36,50,8
1374,-409,113,912,-51,38,9
1375,-310,-33,929,-70,-18,-4
1376,116,-138,1028,-28,-69,-1
1377,387,-118,1060,36,-55,6
1378,279,-26,1017,56,2,1
1379,-74,98,1008,35,47,7
1380,-385,133,929,-32,49,13
1381,-348,8,909,-85,-2,-1
1382,27,-123,1003,-44,-64,-3
1383,375,-135,1071,23,-65,2
1384,327,-55,1032,50,-9,2
1385,-13,67,1023,45,45,9
1386,-337,123,937,-31,57,16
1387,-384,29,880,-80,14,2
1388,-58,-103,993,-55,-51,-6
1389,341,-140,1058,13,-71,1
1390,357,-71,1034,51,-22,2
1391,60,53,1035,48,37,5
1392,-280,119,967,-18,60,16
1393,-414,48,880,-75,28,6
1394,-130,-96,948,-63,-42,-5
1395,276,-150,1058,10,-70,1
1396,375,-88,1034,49,-30,3
1397,142,47,1040,65,30,3
1398,-231,133,991,-4,58,13
1399,-417,73,883,-61,35,10
1400,-209,-70,940,-68,-29,-2
1401,203,-163,1034,-17,-69,2
1402,396,-113,1037,54,-40,7
1403,214,26,1030,63,19,4
1404,-157,126,999,27,54,11
1405,-408,118,904,-52,41,12
1406,-294,-18,931,-69,-17,-1
1407,124,-147,1031,-37,-68,0
1408,394,-143,1041,31,-54,7
1409,272,-18,1028,66,4,2
1410,-79,104,1018,35,48,7
1411,-389,120,908,-39,47,15
1412,-357,5,911,-72,-4,2
1413,35,-126,1015,-47,-65,0
1414,370,-149,1052,32,-66,3
1415,328,-42,1045,66,-12,2
1416,-14,87,1024,47,43,8
1417,-337,132,927,-32,54,14
1418,-375,30,893,-78,13,4
1419,-51,-121,988,-58,-53,-2
1420,333,-155,1043,23,-71,3
1421,348,-76,1043,67,-25,4
1422,46,57,1038,57,33,7
1423,-287,134,963,-10,54,12
1424,-395,57,886,-78,25,6
1425,-112,-89,949,-70,-42,-2
1426,291,-150,1045,18,-72,1
1427,361,-96,1042,59,-33,5
1428,112,31,1041,66,26,5
1429,-243,132,990,-1,56,11
1430,-410,85,894,-71,35,8
1431,-177,-65,935,-75,-31,-3
1432,228,-143,1032,-1,-72,0
1433,384,-117,1047,60,-42,5
1434,179,6,1017,60,19,3
1435,-178,138,1017,23,55,11
1436,-406,111,902,-72,46,9
1437,-259,-37,922,-81,-16,-2
1438,159,-132,1032,-19,-70,-3
1439,385,-131,1044,42,-54,4
1440,241,-20,1027,64,5,3
1441,-109,116,1019,34,51,7
1442,-391,123,909,-60,53,10
1443,-319,0,904,-81,-3,-1
1444,70,-120,1021,-40,-64,-5
1445,376,-139,1057,34,-64,2
1446,297,-44,1038,62,-9,1
1447,-43,95,1016,43,47,8
1448,-345,136,939,-47,58,13
1449,-359,19,877,-94,13,0
1450,-24,-112,989,-51,-53,-4
1451,349,-147,1068,17,-68,2
1452,331,-74,1021,55,-20,3
1453,23,64,1053,51,40,5
1454,-294,126,949,-29,61,17
1455,-395,47,864,-86,26,5
1456,-94,-99,969,-66,-43,-4
1457,295,-161,1052,8,-70,4
1458,348,-90,1036,61,-30,3
1459,98,50,1051,63,28,3
1460,-248,128,980,-13,56,13
1461,-401,70,877,-72,33,8
1462,-164,-92,946,-71,-33,-5
1463,227,-175,1033,-7,-69,4
1464,364,-112,1042,67,-39,7
1465,155,20,1028,70,20,2
1466,-185,137,996,22,51,12
1467,-388,106,912,-59,37,12
1468,-239,-59,916,-79,-23,-3
1469,175,-149,1037,-2,-73,-2
1470,374,-125,1053,53,-51,7
1471,217,-4,1016,77,7,2
1472,-118,130,1014,39,50,10
1473,-386,138,910,-57,45,14
1474,-300,-15,912,-82,-9,-3
1475,88,-131,1019,-34,-68,-4
1476,371,-129,1069,49,-64,5
1477,276,-44,1028,58,-6,1
1478,-58,96,1017,49,45,8
1479,-349,143,931,-47,53,13
1480,-345,15,884,-93,8,-2
1481,-3,-109,999,-39,-55,-3
1482,343,-134,1062,26,-69,4
1483,320,-71,1035,60,-19,1
1484,9,68,1039,50,38,5
1485,-299,141,951,-30,57,14
1486,-370,54,879,-88,21,4
1487,-66,-89,967,-67,-43,-3
1488,304,-143,1041,13,-68,3
1489,339,-83,1057,58,-29,3
1490,61,40,1033,49,31,3
1491,-259,118,984,-19,59,13
1492,-383,57,877,-91,32,8
1493,-128,-88,948,-66,-34,-3
1494,255,-158,1037,1,-67,4
1495,351,-104,1042,61,-35,9
1496,121,26,1033,69,23,3
1497,-216,139,1003,2,55,13
1498,-381,80,898,-80,38,12
1499,-196,-79,906,-80,-21,-1
1500,197,-158,1049,1,-68,3
1501,372,-130,1042,52,-46,10
1502,175,7,1021,80,13,5
1503,-154,140,1028,35,53,11
1504,-379,117,892,-73,45,14
1505,-272,-29,900,-77,-11,0
1506,120,-143,1044,-22,-69,-5
1507,366,-143,1052,51,-58,5
1508,235,-35,1025,73,-1,3
1509,-96,111,1028,48,46,7
1510,-355,139,918,-56,50,14
1511,-320,11,886,-87,2,0
1512,44,-117,1010,-35,-62,-6
1513,361,-134,1060,36,-68,4
1514,286,-51,1040,68,-14,0
1515,-36,83,1042,48,41,4
1516,-325,131,929,-51,54,13
1517,-358,34,865,-86,13,1
1518,-23,-105,1001,-55,-52,-6
1519,331,-152,1038,25,-70,3
1520,325,-72,1052,73,-27,1
1521,36,58,1041,54,34,3
1522,-285,134,967,-24,58,12
1523,-390,62,885,-93,28,3
1524,-99,-89,951,-68,-42,-6
1525,274,-158,1039,8,-74,2
1526,355,-101,1042,68,-38,4
1527,119,30,1037,65,24,3
1528,-227,136,995,-3,59,14
1529,-390,87,896,-79,39,8
1530,-185,-61,926,-77,-27,-5
1531,209,-145,1032,-6,-71,2
1532,365,-118,1043,58,-48,6
1533,175,1,1035,66,13,3
1534,-160,123,1004,18,55,12
1535,-373,116,908,-72,48,13
1536,-241,-43,917,-88,-11,-2
1537,138,-141,1027,-16,-64,1
1538,364,-116,1062,53,-55,8
1539,211,-13,1023,65,4,3
1540,-113,112,1018,27,48,9
1541,-352,126,921,-65,50,15
1542,-282,-17,896,-96,1,0
1543,72,-145,997,-36,-57,-1
1544,356,-139,1071,49,-59,8
1545,256,-44,1041,59,-5,4
1546,-69,97,1031,47,44,6
1547,-315,149,939,-48,54,14
1548,-329,11,860,-100,13,4
1549,-10,-139,987,-54,-50,-3
1550,325,-165,1066,32,-64,4
1551,293,-83,1031,69,-19,3
1552,8,75,1044,64,33,4
1553,-282,158,967,-18,53,14
1554,-366,46,869,-99,22,4
1555,-84,-116,949,-60,-42,-6
1556,295,-149,1058,25,-69,4
1557,331,-88,1040,60,-30,6
1558,78,42,1033,68,27,1
1559,-243,155,1005,-3,53,11
1560,-382,77,882,-86,32,6
1561,-143,-84,918,-78,-30,-5
1562,237,-143,1059,9,-70,2
1563,353,-108,1037,56,-41,3
1564,137,26,1025,68,20,0
1565,-186,153,1021,15,52,10
1566,-380,98,886,-91,41,10
1567,-212,-60,912,-80,-18,-4
1568,178,-148,1056,-12,-68,1
1569,356,-131,1040,48,-47,5
1570,194,-8,1026,68,8,0
1571,-135,131,1021,28,50,8
1572,-370,129,905,-68,47,9
1573,-271,-27,904,-90,-7,-3
1574,104,-154,1011,-36,-64,0
1575,360,-140,1077,51,-57,6
1576,248,-39,1026,57,-2,-1
1577,-83,107,1036,51,44,5
1578,-336,145,914,-55,50,13
1579,-317,7,878,-90,6,1
1580,20,-147,1001,-51,-53,-1
1581,346,-157,1057,36,-63,6
1582,293,-61,1040,70,-12,2
1583,-15,78,1038,51,40,3
1584,-301,154,955,-24,53,12
1585,-356,50,875,-83,17,2
1586,-53,-119,959,-64,-45,-5
1587,312,-163,1060,22,-65,7
1588,326,-79,1042,62,-23,4
1589,54,55,1043,62,34,1
1590,-261,158,984,-10,53,13
1591,-385,73,881,-85,28,7
1592,-137,-113,922,-77,-35,-4
1593,253,-157,1061,8,-70,5
1594,358,-101,1039,61,-35,5
1595,129,21,1027,60,24,-1
1596,-203,160,1004,19,54,13
1597,-378,112,904,-80,37,11
1598,-213,-72,911,-84,-21,-5
1599,190,-160,1049,-9,-67,3
1600,366,-130,1052,44,-44,7
1601,191,-15,1014,64,13,0
1602,-141,139,1019,38,50,8
1603,-372,139,907,-61,43,11
1604,-286,-36,889,-92,-10,-2
1605,106,-146,1034,-25,-64,-1
1606,367,-140,1078,39,-54,6
1607,257,-49,1015,55,2,0
1608,-75,118,1027,58,46,5
1609,-338,159,929,-43,49,13
1610,-338,-3,867,-97,5,0
1611,0,-144,999,-43,-56,-2
1612,354,-149,1077,30,-63,7
1613,311,-72,1025,55,-11,2
1614,0,81,1039,60,40,2
1615,-296,154,959,-24,51,13
1616,-384,29,854,-86,17,3
1617,-74,-114,966,-56,-45,-2
1618,316,-144,1078,23,-68,6
1619,345,-96,1027,42,-21,5
1620,79,58,1043,72,36,3
1621,-248,156,998,-5,55,13
1622,-402,69,861,-81,31,11
1623,-166,-75,938,-63,-35,-4
1624,242,-145,1072,-6,-69,2
1625,369,-122,1027,37,-30,8
1626,167,18,1014,62,27,2
1627,-173,144,1028,18,57,14
1628,-398,92,868,-72,42,14
1629,-263,-51,922,-70,-24,-3
1630,149,-144,1061,-19,-67,1
1631,373,-124,1041,31,-42,8
1632,241,-19,1010,48,14,1
1633,-88,114,1020,42,52,8
1634,-368,125,902,-43,43,14
1635,-339,-18,893,-67,-11,-1
1636,46,-137,1044,-37,-66,-3
1637,354,-128,1067,29,-55,7
1638,292,-32,1016,51,-2,0
1639,-17,95,1018,48,42,3
1640,-320,142,931,-22,44,13
1641,-362,9,876,-79,2,1
1642,-46,-135,1013,-45,-56,-5
1643,328,-140,1069,17,-62,5
1644,330,-61,1024,43,-13,0
1645,33,75,1030,56,36,1
1646,-277,150,954,-10,43,11
1647,-381,39,876,-72,11,2
1648,-97,-114,971,-65,-47,-4
1649,296,-138,1068,12,-63,5
1650,350,-81,1042,35,-20,1
1651,87,39,1015,50,33,0
1652,-246,148,993,13,50,11
1653,-398,59,875,-79,23,6
1654,-164,-109,937,-63,-36,-3
1655,241,-147,1069,-2,-64,5
1656,372,-99,1037,38,-27,6
1657,161,25,1009,55,28,0
1658,-185,159,1010,30,51,11
1659,-394,95,899,-61,31,11
1660,-241,-86,912,-79,-26,-1
1661,172,-150,1058,-8,-63,4
1662,379,-123,1054,25,-37,7
1663,218,-15,991,50,18,1
1664,-121,145,1020,57,50,9
1665,-384,126,913,-50,37,13
1666,-316,-46,883,-79,-15,3
1667,82,-134,1063,-21,-65,0
1668,367,-128,1067,22,-50,6
1669,284,-46,1003,42,6,1
1670,-30,114,1013,59,45,8
1671,-338,159,941,-23,44,15
1672,-381,0,878,-84,2,1
1673,-35,-130,1016,-45,-56,-4
1674,339,-135,1081,10,-59,3
1675,360,-70,1018,29,-9,2
1676,56,75,1023,59,42,6
1677,-282,150,962,-9,51,14
1678,-415,39,856,-70,16,2
1679,-150,-99,979,-62,-45,-6
1680,286,-145,1077,-7,-64,3
1681,385,-98,1017,25,-19,3
1682,144,41,1034,58,32,2
1683,-209,143,991,17,52,14
1684,-421,70,880,-63,26,9
1685,-233,-87,933,-63,-33,-4
1686,196,-154,1065,-17,-65,3
1687,384,-108,1034,28,-33,6
1688,221,18,1014,59,21,2
1689,-138,136,1020,28,48,11
1690,-396,100,896,-38,33,13
1691,-303,-64,916,-71,-21,-3
1692,104,-154,1041,-22,-64,-1
1693,377,-119,1057,26,-46,7
1694,269,-13,993,55,8,2
1695,-59,120,1023,51,44,10
1696,-362,122,920,-31,39,17
1697,-353,-25,904,-71,-9,0
1698,20,-142,1034,-36,-63,-5
1699,350,-135,1064,24,-56,5
1700,307,-47,1004,54,-3,5
1701,-3,89,1009,58,39,6
1702,-318,134,939,-11,44,16
1703,-375,19,897,-72,-1,2
1704,-48,-124,1001,-48,-59,-6
1705,324,-125,1077,30,-62,6
1706,338,-58,1035,45,-13,4
1707,42,50,1007,55,36,6
1708,-275,132,952,-8,47,15
1709,-387,48,874,-64,12,4
1710,-120,-96,988,-57,-49,-7
1711,287,-128,1060,15,-68,3
1712,358,-70,1045,48,-22,5
1713,112,32,1023,42,33,5
1714,-226,128,981,10,52,14
1715,-415,66,886,-71,27,5
1716,-195,-74,939,-61,-38,-7
1717,222,-134,1063,-1,-70,1
1718,373,-101,1027,32,-32,5
1719,202,22,1031,59,21,3
1720,-170,134,1003,14,53,10
1721,-402,86,898,-56,35,9
1722,-260,-50,928,-73,-26,-3
1723,143,-130,1041,-14,-68,-1
1724,375,-125,1041,29,-45,3
1725,246,-10,1008,51,10,3
1726,-110,124,1009,40,48,8
1727,-381,104,917,-50,41,8
1728,-298,-30,926,-71,-14,1
1729,82,-133,1031,-28,-65,-1
1730,361,-135,1046,26,-53,4
1731,265,-17,1011,64,2,4
1732,-63,110,1019,36,43,7
1733,-355,121,921,-41,44,11
1734,-317,0,905,-75,-4,1
1735,34,-130,1024,-42,-60,2
1736,345,-149,1054,23,-57,5
1737,293,-41,1037,59,-5,4
1738,-32,87,1020,45,43,7
1739,-316,123,926,-38,49,12
1740,-344,24,883,-72,8,4
1741,-39,-120,1008,-54,-50,0
1742,322,-172,1041,9,-61,3
1743,330,-72,1039,64,-12,4
1744,30,70,1034,52,39,6
1745,-278,135,963,-9,51,14
1746,-385,49,871,-72,20,6
1747,-111,-92,964,-57,-45,-1
1748,276,-161,1055,7,-66,2
1749,358,-92,1030,51,-22,5
1750,125,58,1046,67,32,6
1751,-222,143,988,-2,54,14
1752,-398,87,878,-63,29,9
1753,-198,-59,954,-68,-35,-2
1754,196,-152,1043,-16,-69,1
1755,378,-118,1035,44,-37,7
1756,202,12,1025,54,20,7
1757,-152,119,998,20,52,11
1758,-391,109,899,-51,38,10
1759,-276,-25,931,-72,-22,0
1760,111,-145,1034,-29,-70,-2
1761,368,-130,1050,37,-51,4
1762,249,-22,1024,51,5,2
1763,-77,102,1004,34,46,6
1764,-362,137,915,-34,45,11
1765,-313,-11,909,-82,-6,2
1766,51,-151,1016,-45,-61,0
1767,344,-129,1070,46,-57,4
1768,277,-34,1046,54,-4,1
1769,-46,83,994,41,41,6
1770,-317,145,939,-27,47,12
1771,-330,7,885,-87,6,1
1772,-9,-144,997,-50,-53,-1
1773,332,-145,1055,29,-62,5
1774,303,-50,1045,65,-13,2
1775,-2,79,1032,48,38,3
1776,-287,145,958,-20,48,12
1777,-358,34,876,-86,15,4
1778,-66,-108,957,-55,-44,-2
1779,304,-148,1069,20,-65,5
1780,325,-87,1033,48,-20,3
1781,63,61,1039,66,33,2
1782,-260,151,993,-10,50,13
1783,-383,59,871,-83,25,10
1784,-135,-96,944,-66,-36,-2
1785,245,-154,1055,4,-68,2
1786,354,-112,1034,49,-33,5
1787,133,33,1018,67,24,1
1788,-197,156,1012,16,49,11
1789,-388,92,890,-75,33,9
1790,-208,-72,926,-77,-27,-2
1791,184,-152,1049,-5,-70,2
1792,363,-127,1043,44,-45,4
1793,194,5,1020,69,12,0
1794,-142,137,1018,30,49,7
1795,-378,117,889,-66,42,13
1796,-268,-29,923,-73,-14,-1
1797,113,-143,1029,-29,-66,0
1798,360,-145,1062,42,-55,4
1799,242,-30,1027,63,2,0
1800,-91,116,1020,39,44,7
1801,-353,136,909,-52,48,13
1802,-308,9,900,-85,0,1
1803,31,-136,997,-44,-57,-1
1804,352,-150,1066,32,-62,4
1805,289,-56,1041,64,-10,1
1806,-31,79,1038,47,42,4
1807,-306,133,930,-37,53,14
1808,-351,37,882,-75,13,2
1809,-32,-117,973,-63,-50,-3
1810,317,-157,1050,22,-66,6
1811,319,-74,1051,63,-20,3
1812,35,60,1036,57,35,1
1813,-274,141,975,-13,53,13
1814,-375,62,876,-83,23,9
1815,-105,-91,951,-58,-39,-4
1816,264,-163,1050,1,-69,2
1817,344,-104,1030,67,-29,5
1818,112,38,1040,64,26,2
1819,-220,137,987,2,52,11
1820,-386,89,892,-68,33,10
1821,-187,-61,941,-72,-30,-3
1822,203,-151,1032,-5,-71,0
1823,379,-114,1055,56,-42,5
1824,185,6,1025,60,18,1
1825,-161,125,995,24,56,8
1826,-392,128,907,-62,44,10
1827,-270,-28,918,-81,-16,-1
1828,123,-142,1030,-26,-69,-1
1829,374,-128,1062,44,-55,6
1830,249,-22,1035,60,4,-1
1831,-91,108,1009,31,50,5
1832,-356,136,921,-52,52,13
1833,-323,2,896,-88,0,-1
1834,22,-138,994,-42,-59,-3
1835,357,-148,1073,31,-64,3
1836,303,-65,1032,54,-9,0
1837,-23,82,1035,54,43,3
1838,-307,139,944,-35,52,13
1839,-360,34,864,-81,14,4
1840,-50,-111,985,-59,-49,-3
1841,312,-163,1056,15,-67,4
1842,328,-88,1033,60,-21,2
1843,49,64,1048,61,34,4
1844,-265,142,975,-11,53,13
1845,-383,57,871,-85,26,7
1846,-121,-89,952,-58,-37,-1
1847,254,-146,1051,8,-68,3
1848,359,-104,1033,51,-31,3
1849,126,32,1034,66,28,4
1850,-210,140,1011,3,55,13
1851,-392,81,878,-71,39,11
1852,-214,-51,929,-70,-26,-2
1853,175,-147,1043,-14,-70,-1
1854,374,-139,1037,46,-45,4
1855,207,5,1022,71,14,6
1856,-121,133,1026,30,51,12
1857,-378,109,886,-66,47,14
1858,-294,-12,914,-67,-11,1
1859,87,-123,1048,-28,-67,-4
1860,355,-144,1040,33,-55,3
1861,265,-36,1026,63,2,6
1862,-47,96,1026,36,45,10
1863,-345,123,910,-42,51,13
1864,-332,16,903,-77,4,2
1865,-5,-117,1010,-43,-59,-3
1866,332,-142,1054,29,-65,3
1867,302,-48,1042,64,-13,3
1868,-2,73,1034,47,37,6
1869,-288,123,929,-36,52,13
1870,-361,32,878,-73,16,4
1871,-68,-102,984,-57,-48,-3
1872,301,-145,1051,19,-68,2
1873,323,-77,1039,63,-25,2
1874,58,60,1043,53,30,4
1875,-256,130,970,-13,52,11
1876,-379,59,877,-79,24,4
1877,-112,-91,955,-65,-40,-2
1878,261,-148,1047,10,-69,3
1879,337,-89,1036,58,-30,4
1880,106,39,1037,61,25,2
1881,-227,137,997,-6,52,11
1882,-387,74,887,-75,31,7
1883,-164,-82,935,-77,-31,-3
1884,226,-151,1040,3,-69,5
1885,361,-105,1046,54,-41,6
1886,150,14,1021,61,18,0
1887,-178,142,1006,21,49,11
1888,-388,108,904,-75,38,11
1889,-230,-68,916,-85,-21,-3
1890,173,-157,1042,-10,-69,1
1891,371,-131,1051,52,-49,6
1892,208,-14,1026,71,8,3
1893,-129,125,1014,34,50,8
1894,-373,134,908,-57,46,14
1895,-289,-7,899,-88,-7,0
1896,87,-139,1015,-31,-65,-2
1897,372,-149,1064,43,-61,6
1898,267,-39,1040,70,-4,3
1899,-69,105,1034,49,46,6
1900,-339,139,922,-54,54,13
1901,-338,17,869,-87,10,3
1902,6,-115,1000,-47,-56,-2
1903,347,-152,1058,28,-67,4
1904,302,-74,1039,70,-16,3
1905,-6,71,1046,54,39,5
1906,-304,135,952,-33,55,13
1907,-372,45,870,-86,20,3
1908,-60,-98,963,-59,-48,-3
1909,303,-158,1051,17,-71,3
1910,328,-95,1039,64,-27,3
1911,66,54,1047,69,30,3
1912,-256,140,990,-17,54,14
1913,-388,66,870,-84,30,9
1914,-130,-75,952,-62,-36,-4
1915,249,-152,1036,-2,-70,4
1916,356,-109,1043,63,-38,6
1917,134,20,1032,63,22,0
1918,-200,129,995,6,55,12
1919,-381,98,896,-73,39,12
1920,-208,-49,942,-76,-22,-2
1921,184,-150,1025,-12,-69,2
1922,365,-122,1053,54,-49,8
1923,185,-14,1031,69,11,1
1924,-144,111,1002,21,52,10
1925,-370,124,911,-56,46,14
1926,-269,-18,908,-80,-9,-2
1927,107,-145,1018,-28,-66,0
1928,358,-135,1068,56,-58,7
1929,250,-34,1043,66,-1,2
1930,-88,89,1008,40,48,7
1931,-341,141,918,-42,52,14
1932,-317,20,886,-87,3,2
1933,23,-118,1005,-38,-59,-1
1934,346,-136,1044,38,-66,5
1935,298,-57,1060,67,-14,2
1936,-15,65,1031,41,42,3
1937,-303,139,945,-28,55,13
1938,-365,47,882,-87,17,3
1939,-59,-94,956,-59,-48,-3
1940,306,-136,1049,27,-72,2
1941,327,-83,1053,57,-29,1
1942,67,36,1029,52,32,3
1943,-259,139,988,-10,57,13
1944,-388,78,887,-86,30,6
1945,-127,-78,945,-69,-37,-5
1946,243,-147,1034,2,-72,1
1947,350,-111,1042,61,-40,2
1948,137,12,1028,58,19,0
1949,-198,130,996,6,56,14
1950,-384,92,911,-77,40,9
1951,-206,-58,927,-81,-23,-4
1952,183,-139,1026,-4,-69,1
1953,356,-123,1049,49,-51,3
1954,192,-20,1020,68,6,0
1955,-133,120,1016,25,51,12
1956,-370,117,917,-67,49,13
1957,-263,-28,907,-87,-8,-1
1958,108,-131,1023,-22,-65,-1
1959,355,-138,1061,46,-61,4
1960,236,-36,1031,73,-3,2
1961,-89,98,1019,40,47,10
1962,-338,123,922,-59,53,16
1963,-297,12,892,-87,5,2
1964,38,-107,1005,-36,-55,-3
1965,343,-143,1051,32,-65,5
1966,278,-54,1040,75,-14,4
1967,-46,82,1050,45,42,6
1968,-315,118,930,-51,56,13
1969,-339,38,873,-85,17,5
1970,-14,-95,980,-53,-49,-2
1971,322,-154,1037,24,-68,5
1972,314,-69,1052,75,-22,4
1973,22,66,1050,56,36,4
1974,-290,126,967,-31,58,12
1975,-370,62,881,-89,28,10
1976,-89,-79,957,-61,-39,-1
1977,270,-157,1030,5,-71,3
1978,339,-100,1041,73,-36,5
1979,98,35,1040,61,24,3
1980,-233,129,992,-10,57,11
1981,-379,85,897,-79,37,8
1982,-164,-62,939,-80,-28,-2
1983,211,-158,1025,-4,-69,3
1984,362,-116,1047,64,-46,5
1985,154,0,1040,66,14,1
1986,-171,110,995,9,53,9
1987,-383,117,898,-63,46,10
1988,-233,-22,933,-80,-16,-3
1989,148,-147,1019,-28,-68,0
1990,359,-128,1056,62,-55,5
1991,220,-19,1053,71,2,1
1992,-116,93,993,21,51,10
1993,-348,133,920,-49,52,15
1994,-293,4,902,-95,0,2
1995,50,-137,995,-37,-61,-1
1996,358,-143,1063,45,-65,6
1997,275,-53,1051,70,-11,3
1998,-38,73,1031,41,44,7
1999,-318,130,935,-42,55,15
2000,-343,36,876,-82,16,4
2001,-27,-98,974,-52,-51,-3
2002,327,-140,1054,33,-71,7
2003,319,-74,1051,65,-24,4
2004,27,49,1039,54,36,4
2005,-283,131,978,-21,59,13
2006,-375,46,876,-97,29,8
2007,-97,-87,933,-59,-38,-1
2008,271,-136,1057,28,-73,0
2009,342,-102,1029,64,-37,5
2010,97,37,1049,73,23,4
2011,-232,148,995,-10,57,12
2012,-385,83,897,-87,40,8
2013,-167,-61,926,-82,-26,-3
2014,218,-141,1031,3,-71,1
2015,362,-119,1046,57,-47,4
2016,156,0,1033,68,13,2
2017,-176,119,1007,11,54,11
2018,-385,104,899,-81,46,10
2019,-238,-26,915,-81,-14,-2
2020,153,-128,1035,-18,-69,-1
2021,361,-133,1050,48,-57,5
2022,212,-20,1041,73,0,1
2023,-122,103,1009,23,50,7
2024,-357,123,913,-65,52,13
2025,-289,-11,898,-98,0,-1
2026,67,-138,998,-35,-62,-1
2027,353,-142,1066,50,-65,5
2028,264,-50,1044,69,-11,1
2029,-54,82,1034,52,44,4
2030,-317,136,925,-39,54,12
2031,-332,30,874,-83,14,1
2032,-7,-117,987,-55,-54,-5
2033,329,-149,1044,35,-69,5
2034,307,-61,1056,79,-22,3
2035,19,62,1048,46,36,4
2036,-284,127,955,-25,58,14
2037,-366,56,888,-90,25,6
2038,-85,-89,952,-57,-42,-4
2039,273,-146,1040,16,-72,1
2040,340,-89,1045,67,-34,5
2041,90,39,1037,61,26,2
2042,-233,137,993,-10,56,12
2043,-382,82,899,-78,35,8
2044,-157,-72,935,-81,-29,-3
2045,219,-146,1021,2,-70,3
2046,363,-99,1052,68,-46,6
2047,153,9,1037,61,16,2
2048,-181,120,996,11,55,12
2049,-382,111,906,-79,45,11
2050,-227,-38,919,-84,-15,-3
2051,165,-147,1026,-20,-69,1
2052,355,-125,1054,60,-54,6
2053,203,-23,1047,68,3,3
2054,-127,101,1000,25,51,10
2055,-362,128,920,-57,52,13
2056,-282,-19,895,-100,-2,0
2057,78,-139,999,-27,-63,-2
2058,356,-131,1070,55,-65,4
2059,264,-47,1045,68,-11,2
2060,-75,82,1028,48,44,7
2061,-327,140,931,-49,54,13
2062,-325,23,877,-96,10,2
2063,5,-112,975,-49,-54,-5
2064,345,-135,1061,45,-70,4
2065,295,-73,1048,70,-23,1
2066,0,60,1040,53,38,4
2067,-299,145,972,-29,57,14
2068,-364,55,873,-99,25,3
2069,-67,-86,946,-60,-42,-4
2070,299,-137,1055,23,-74,3
2071,334,-91,1034,61,-34,3
2072,78,43,1050,67,28,2
2073,-255,140,998,-20,59,13
2074,-388,68,878,-94,38,7
2075,-139,-71,943,-76,-31,-4
2076,238,-147,1026,2,-71,2
2077,361,-112,1047,65,-46,5
2078,136,17,1042,68,17,1
2079,-195,124,1000,1,57,12
2080,-376,96,896,-88,44,10
2081,-215,-46,921,-79,-17,-3
2082,182,-150,1035,-14,-69,0
2083,357,-133,1047,57,-54,7
2084,191,-14,1038,78,6,1
2085,-135,108,1019,20,52,10
2086,-363,113,895,-68,52,13
2087,-269,-11,908,-82,-3,-1
2088,93,-136,1011,-27,-63,-1
2089,352,-138,1057,53,-62,7
2090,251,-37,1055,76,-6,3
2091,-82,90,1027,43,46,8
2092,-327,131,919,-52,54,15
2093,-312,18,875,-90,10,4
2094,11,-121,990,-45,-53,-2
2095,339,-141,1051,46,-69,4
2096,292,-56,1057,79,-21,3
2097,-9,68,1041,50,38,6
2098,-293,137,960,-31,56,15
2099,-364,49,877,-96,24,4
2100,-58,-100,948,-60,-46,-4
2101,290,-144,1042,31,-72,3
2102,324,-84,1053,75,-34,3
2103,74,35,1042,59,27,4
2104,-264,142,985,-11,58,12
2105,-376,80,897,-89,35,6
2106,-126,-74,929,-82,-31,-2
2107,241,-139,1027,13,-73,0
2108,355,-96,1055,73,-47,2
2109,128,8,1031,58,17,3
2110,-200,124,998,4,56,13
2111,-381,97,905,-87,46,8
2112,-202,-57,918,-92,-17,-2
2113,188,-142,1023,-5,-70,2
2114,354,-116,1053,68,-57,4
2115,186,-18,1042,75,5,1
2116,-154,105,1003,18,52,10
2117,-363,123,918,-67,51,11
2118,-259,-21,908,-101,-3,-4
2119,113,-139,996,-24,-63,-2
2120,355,-132,1072,62,-63,4
2121,236,-43,1046,69,-8,1
2122,-90,94,1027,45,46,7
2123,-334,139,928,-59,54,11
2124,-299,16,872,-97,9,2
2125,36,-110,992,-43,-54,-1
2126,345,-141,1054,37,-68,4
2127,283,-63,1050,77,-18,2
2128,-24,71,1043,46,40,6
2129,-306,133,959,-37,58,14
2130,-350,31,866,-105,22,5
2131,-48,-103,951,-51,-46,-3
2132,301,-140,1050,34,-73,3
2133,318,-77,1043,69,-32,5
2134,56,49,1052,67,29,4
2135,-264,137,984,-26,58,13
2136,-361,71,888,-89,34,8
2137,-118,-77,936,-77,-32,-3
2138,243,-151,1029,10,-71,2
2139,340,-107,1046,73,-42,5
2140,115,14,1036,63,17,3
2141,-210,127,997,4,55,12
2142,-368,101,904,-85,43,10
2143,-189,-50,925,-83,-20,-2
2144,192,-146,1029,-7,-67,1
2145,351,-127,1039,60,-52,4
2146,178,-4,1047,81,7,3
2147,-158,106,1012,14,53,8
2148,-371,113,900,-68,51,10
2149,-250,-17,912,-91,-5,-1
2150,111,-141,1003,-26,-63,-2
2151,355,-134,1062,61,-63,3
2152,235,-30,1057,77,-6,1
2153,-100,84,1022,33,48,7
2154,-331,136,913,-54,54,13
2155,-300,25,893,-91,10,1
2156,30,-126,981,-50,-53,-3
2157,347,-141,1046,44,-68,5
2158,284,-47,1063,84,-17,3
2159,-25,61,1041,37,40,4
2160,-301,128,943,-32,59,14
2161,-350,51,890,-95,22,4
2162,-38,-97,948,-61,-46,-4
2163,307,-146,1045,31,-71,3
2164,319,-81,1048,71,-30,4
2165,52,38,1049,57,31,2
2166,-266,139,979,-18,58,12
2167,-372,76,888,-89,33,7
2168,-119,-85,929,-79,-33,-3
2169,247,-152,1038,13,-72,2
2170,348,-102,1050,74,-44,5
2171,120,15,1035,64,19,2
2172,-208,137,986,10,56,13
2173,-373,106,916,-84,43,10
2174,-196,-67,916,-94,-20,-3
2175,190,-148,1026,2,-70,0
2176,356,-120,1057,63,-53,5
2177,179,-14,1024,72,8,4
2178,-155,120,1015,21,52,9
2179,-370,118,912,-73,50,10
2180,-254,-26,901,-95,-6,-1
2181,118,-132,1012,-20,-64,-1
2182,357,-129,1065,56,-63,3
2183,233,-38,1047,72,-6,0
2184,-96,92,1024,37,46,8
2185,-338,125,920,-63,54,13
2186,-297,3,878,-98,9,1
2187,35,-111,992,-35,-55,-3
2188,341,-141,1057,42,-69,3
2189,276,-60,1039,76,-19,2
2190,-30,75,1056,51,39,6
2191,-303,129,943,-44,56,14
2192,-343,32,874,-97,22,4
2193,-31,-101,958,-57,-45,-3
2194,309,-148,1040,31,-72,3
2195,306,-81,1051,77,-31,3
2196,44,45,1051,64,29,3
2197,-277,128,981,-22,57,12
2198,-370,69,875,-88,32,5
2199,-95,-68,949,-67,-36,-1
2200,257,-147,1027,10,-71,3
2201,346,-97,1042,80,-41,3
2202,115,31,1050,65,21,3
2203,-219,119,988,-11,58,14
2204,-378,84,899,-85,44,10
2205,-185,-50,932,-79,-21,0
2206,200,-147,1022,-3,-69,1
2207,352,-121,1039,68,-52,5
2208,176,0,1046,80,7,3
2209,-160,109,1008,9,56,10
2210,-373,115,905,-69,52,11
2211,-249,-9,912,-86,-6,0
2212,121,-134,1010,-27,-65,0
2213,354,-132,1055,61,-61,4
2214,233,-32,1062,78,-6,0
2215,-102,87,1009,32,48,10
2216,-344,131,925,-59,56,13
2217,-302,21,881,-98,9,0
2218,40,-105,1002,-40,-56,-3
2219,350,-136,1044,39,-69,3
2220,289,-54,1059,77,-19,4
2221,-28,68,1042,39,42,6
2222,-313,124,939,-45,59,12
2223,-352,35,882,-98,22,4
2224,-37,-95,953,-59,-47,-2
2225,312,-147,1042,31,-73,3
2226,319,-83,1056,69,-32,2
2227,42,47,1038,63,31,2
2228,-272,135,997,-23,58,12
2229,-372,57,875,-99,34,7
2230,-106,-85,931,-70,-35,-2
2231,261,-141,1046,18,-74,1
2232,341,-105,1040,71,-41,3
2233,107,19,1035,67,20,1
2234,-222,131,993,3,56,11
2235,-371,90,906,-88,42,9
2236,-182,-66,919,-83,-21,-3
2237,205,-139,1031,4,-70,1
2238,353,-116,1051,65,-52,5
2239,164,-8,1032,76,9,2
2240,-166,123,1017,20,54,12
2241,-372,111,905,-77,49,10
2242,-240,-26,907,-89,-8,-2
2243,131,-130,1015,-15,-64,0
2244,358,-133,1065,56,-62,3
2245,226,-39,1040,77,-3,2
2246,-108,93,1023,40,49,10
2247,-347,127,914,-62,56,13
2248,-298,16,886,-90,6,1
2249,48,-106,999,-34,-58,-2
2250,357,-134,1046,43,-69,5
2251,286,-55,1056,79,-17,2
2252,-39,70,1046,45,44,6
2253,-312,122,943,-48,60,14
2254,-347,45,868,-92,23,4
2255,-33,-80,970,-55,-47,-3
2256,314,-148,1041,24,-71,2
2257,318,-84,1048,74,-31,2
2258,46,51,1058,61,32,4
2259,-282,128,975,-32,61,12
2260,-377,67,879,-94,34,6
2261,-113,-72,943,-72,-36,-5
2262,265,-147,1036,9,-74,0
2263,355,-103,1042,71,-42,3
2264,118,22,1041,66,21,2
2265,-219,126,992,-5,59,11
2266,-387,94,894,-87,43,8
2267,-183,-48,930,-84,-23,-2
2268,205,-142,1029,-6,-70,1
2269,366,-120,1045,58,-52,3
2270,176,-10,1043,73,10,1
2271,-165,108,1006,13,56,10
2272,-377,126,900,-65,51,10
2273,-260,-27,911,-95,-8,-3
2274,126,-149,1004,-26,-67,-2
2275,367,-135,1073,64,-62,5
2276,239,-45,1042,66,-4,0
2277,-103,83,1011,40,49,7
2278,-350,141,922,-52,54,12
2279,-309,11,891,-93,6,0
2280,39,-124,983,-43,-58,-2
2281,362,-135,1066,47,-70,5
2282,291,-65,1044,72,-15,2
2283,-34,60,1038,47,44,5
2284,-314,142,949,-29,58,14
2285,-356,52,876,-92,18,4
2286,-43,-95,956,-57,-49,-2
2287,325,-142,1057,32,-72,4
2288,325,-88,1045,63,-27,3
2289,53,42,1050,66,33,3
2290,-273,136,979,-23,61,13
2291,-392,69,878,-89,33,7
2292,-121,-75,939,-70,-36,-2
2293,258,-140,1046,11,-74,2
2294,359,-104,1036,68,-43,3
2295,134,22,1044,65,21,3
2296,-212,127,994,1,60,12
2297,-392,97,898,-83,45,8
2298,-210,-46,924,-85,-22,-3
2299,194,-131,1029,-4,-74,1
2300,369,-131,1056,51,-53,4
2301,189,-23,1023,70,9,2
2302,-139,109,1024,19,55,9
2303,-391,116,892,-72,53,11
2304,-271,-6,909,-81,-8,-2
2305,107,-128,1022,-31,-66,-1
2306,366,-143,1057,51,-62,4
2307,253,-38,1046,72,-6,0
2308,-83,84,1024,39,49,7
2309,-348,119,911,-60,56,13
2310,-325,17,883,-83,7,0
2311,24,-110,1000,-40,-58,-2
2312,351,-143,1056,38,-70,4
2313,300,-64,1039,76,-18,3
2314,-12,68,1054,48,41,4
2315,-308,127,935,-40,59,13
2316,-361,53,879,-85,20,3
2317,-51,-95,964,-64,-48,-3
2318,312,-147,1048,30,-72,4
2319,328,-83,1047,67,-30,3
2320,61,43,1052,63,31,4
2321,-267,126,973,-22,60,12
2322,-393,72,876,-81,33,7
2323,-123,-69,945,-68,-37,-4
2324,247,-144,1039,9,-73,1
2325,355,-104,1038,67,-43,4
2326,138,19,1042,65,19,2
2327,-210,119,992,2,59,10
2328,-391,96,893,-79,43,8
2329,-203,-35,935,-77,-24,-2
2330,189,-138,1027,-7,-72,-1
2331,374,-121,1044,57,-54,4
2332,191,-11,1045,72,8,2
2333,-148,101,1005,16,56,7
2334,-381,117,908,-66,52,11
2335,-271,-13,911,-85,-8,-2
2336,115,-126,1013,-24,-66,-1
2337,368,-123,1066,56,-62,5
2338,253,-39,1052,61,-5,1
2339,-87,84,1001,32,50,8
2340,-348,143,936,-51,58,12
2341,-321,8,872,-102,10,0
2342,27,-120,1000,-39,-56,-2
2343,357,-135,1059,39,-69,4
2344,295,-71,1049,66,-17,2
2345,-23,51,1033,40,42,5
2346,-305,141,952,-28,58,14
2347,-364,47,868,-97,23,3
2348,-51,-104,956,-61,-46,-4
2349,313,-144,1059,30,-73,5
2350,327,-89,1049,64,-27,3
2351,55,37,1044,62,32,2
2352,-262,131,982,-20,58,14
2353,-388,71,873,-83,33,8
2354,-128,-75,939,-66,-36,-3
2355,248,-143,1052,8,-73,1
2356,353,-109,1034,67,-40,4
2357,136,29,1037,66,21,1
2358,-205,132,1007,4,56,11
2359,-390,91,884,-82,41,9
2360,-206,-49,933,-75,-23,-3
2361,190,-142,1034,-9,-72,2
2362,365,-130,1045,49,-51,5
2363,189,-9,1031,76,9,0
2364,-143,117,1020,21,52,9
2365,-386,115,896,-69,48,10
2366,-268,-18,907,-79,-9,-3
2367,116,-133,1030,-21,-68,0
2368,367,-138,1057,47,-63,3
2369,246,-33,1041,81,-3,1
2370,-86,91,1021,30,48,6
2371,-347,124,913,-47,54,13
2372,-314,19,888,-88,6,-1
2373,27,-107,1008,-37,-59,-2
2374,352,-139,1050,34,-69,4
2375,303,-58,1052,72,-16,3
2376,-22,62,1039,42,43,4
2377,-313,124,939,-39,57,12
2378,-364,55,876,-82,20,5
2379,-49,-89,970,-61,-49,-2
2380,315,-155,1040,21,-71,3
2381,336,-76,1051,72,-29,3
2382,57,51,1054,60,33,1
2383,-273,125,972,-27,61,13
2384,-387,74,881,-83,32,8
2385,-126,-73,950,-69,-35,-4
2386,257,-151,1033,3,-73,2
2387,359,-103,1046,68,-40,5
2388,127,13,1039,56,23,1
2389,-220,115,983,0,59,11
2390,-388,103,906,-72,42,8
2391,-200,-52,930,-85,-23,-4
2392,198,-151,1021,-3,-71,1
2393,373,-114,1055,59,-50,7
2394,176,-8,1034,67,10,0
2395,-151,111,1002,16,53,9
2396,-378,125,914,-64,49,13
2397,-265,-27,903,-91,-10,-1
2398,124,-139,1026,-21,-67,0
2399,369,-133,1067,54,-60,6
2400,237,-47,1034,64,-2,1
2401,-101,95,1013,46,48,8
2402,-352,143,925,-49,52,12
2403,-313,6,878,-95,3,0
2404,42,-116,1002,-28,-61,-2
2405,357,-138,1063,40,-69,5
2406,291,-67,1039,69,-15,2
2407,-30,75,1040,52,43,5
2408,-318,138,945,-37,55,12
2409,-362,50,876,-87,17,3
2410,-36,-95,972,-60,-52,-3
2411,320,-149,1043,26,-74,5
2412,331,-87,1048,67,-30,2
2413,47,45,1041,61,34,4
2414,-280,132,987,-19,59,13
2415,-391,68,870,-91,31,6
2416,-106,-65,957,-61,-39,-3
2417,264,-147,1032,4,-75,3
2418,363,-109,1043,70,-41,4
2419,118,16,1043,61,23,2
2420,-226,126,990,-3,58,12
2421,-385,89,900,-84,42,8
2422,-188,-50,925,-80,-23,-2
2423,205,-140,1032,0,-71,2
2424,365,-128,1039,53,-51,4
2425,181,-4,1042,77,11,2
2426,-162,115,1012,11,55,10
2427,-384,110,898,-73,51,11
2428,-250,-12,911,-81,-9,0
2429,127,-128,1018,-23,-67,-2
2430,367,-136,1057,55,-61,5
2431,235,-33,1045,71,-2,1
2432,-105,91,1018,32,50,8
2433,-353,130,915,-60,56,13
2434,-302,15,888,-95,6,3
2435,42,-123,997,-41,-58,-1
2436,354,-139,1049,42,-67,3
2437,290,-49,1059,80,-16,2
2438,-35,59,1034,33,45,5
2439,-318,125,942,-39,59,14
2440,-354,51,876,-87,19,3
2441,-38,-97,967,-62,-49,-4
2442,318,-150,1045,28,-73,4
2443,323,-78,1045,72,-30,2
2444,46,43,1057,59,32,3
2445,-280,120,967,-28,59,12
2446,-377,73,885,-82,32,7
2447,-104,-72,944,-71,-38,-3
2448,261,-143,1035,11,-74,0
2449,350,-98,1050,72,-41,2
2450,110,17,1039,60,22,0
2451,-224,124,988,-3,58,11
2452,-385,94,907,-81,42,8
2453,-184,-59,924,-88,-24,-3
2454,208,-145,1021,3,-72,2
2455,371,-114,1058,65,-53,4
2456,165,-15,1036,69,10,2
2457,-167,106,1006,17,55,10
2458,-380,119,908,-72,49,12
2459,-246,-20,910,-88,-10,-1
2460,140,-139,1014,-25,-68,-1
2461,367,-133,1060,64,-62,5
2462,229,-31,1053,76,-2,1
2463,-114,94,1011,34,50,8
2464,-349,130,920,-62,54,13
2465,-300,16,887,-95,5,1
2466,53,-113,997,-32,-60,-4
2467,358,-134,1056,43,-69,5
2468,284,-57,1049,75,-16,3
2469,-48,76,1034,45,44,4
2470,-322,130,955,-46,57,13
2471,-348,35,856,-100,20,4
2472,-17,-80,980,-46,-50,-4
2473,324,-135,1045,28,-73,4
2474,314,-82,1044,65,-30,1
2475,29,50,1048,61,33,4
2476,-287,132,981,-32,60,13
2477,-373,56,871,-100,31,5
2478,-84,-78,949,-68,-38,-2
2479,265,-151,1032,9,-73,1
2480,344,-109,1044,75,-41,4
2481,98,26,1046,64,23,4
2482,-234,125,985,-12,58,13
2483,-376,83,898,-86,41,8
2484,-165,-57,936,-80,-25,-2
2485,213,-158,1018,-2,-71,0
2486,362,-119,1044,73,-51,5
2487,160,9,1050,82,9,4
2488,-179,115,998,9,56,11
2489,-373,115,908,-74,50,12
2490,-232,-14,917,-86,-9,-1
2491,144,-140,1012,-24,-65,-1
2492,365,-133,1062,62,-60,6
2493,220,-26,1050,79,-2,2
2494,-120,95,1013,31,51,9
2495,-354,133,911,-58,57,13
2496,-289,22,892,-96,7,2
2497,52,-115,997,-41,-56,-1
2498,357,-142,1052,40,-67,4
2499,282,-59,1055,78,-16,2
2500,-44,68,1043,40,44,7
2501,-320,136,940,-46,60,15
2502,-349,43,871,-99,22,3
2503,-31,-99,960,-63,-47,-3
2504,320,-146,1049,34,-72,3
2505,318,-82,1052,67,-31,2
2506,37,40,1047,58,32,5
2507,-270,141,982,-20,59,15
2508,-380,71,877,-98,35,7
2509,-102,-81,941,-75,-36,-2
2510,254,-144,1033,12,-72,1
2511,348,-105,1051,72,-41,3
2512,110,5,1033,56,21,4
2513,-217,126,997,4,57,15
2514,-376,91,905,-89,43,9
2515,-187,-65,910,-85,-21,-3
2516,200,-147,1034,2,-71,2
2517,358,-122,1048,66,-52,5
2518,169,-10,1033,74,9,3
2519,-152,121,1014,26,53,12
2520,-367,117,905,-80,50,13
2521,-251,-25,896,-86,-7,-1
2522,130,-128,1038,-18,-67,-1
2523,355,-135,1050,55,-61,5
2524,233,-36,1048,77,-3,2
2525,-100,103,1019,40,49,10
2526,-343,132,926,-60,56,13
2527,-301,15,871,-99,9,3
2528,39,-99,1012,-32,-56,-3
2529,343,-145,1048,30,-67,2
2530,288,-68,1045,74,-17,4
2531,-25,76,1056,49,41,8
2532,-302,132,943,-44,60,13
2533,-349,42,860,-99,24,6
2534,-55,-94,965,-62,-45,-4
2535,301,-155,1057,25,-71,0
2536,315,-90,1044,67,-31,3
2537,57,52,1047,67,30,5
2538,-254,142,992,-21,59,13
2539,-377,65,860,-99,35,7
2540,-130,-77,935,-73,-33,-4
2541,236,-149,1056,6,-72,-2
2542,338,-115,1023,65,-43,4
2543,133,15,1052,64,17,3
2544,-196,134,993,7,55,11
2545,-363,101,907,-81,43,9
2546,-202,-60,904,-93,-20,-2
2547,182,-139,1039,0,-69,0
2548,344,-111,1047,57,-51,2
2549,178,-12,1040,66,5,0
2550,-139,106,1009,19,51,10
2551,-358,124,900,-65,49,11
2552,-257,-29,907,-95,-7,-1
2553,118,-153,1020,-31,-65,-1
2554,346,-126,1057,63,-58,5
2555,228,-28,1056,68,-5,-1
2556,-88,93,1010,35,46,9
2557,-329,142,928,-50,53,15
2558,-301,-3,882,-106,8,1
2559,29,-142,986,-36,-54,-2
2560,336,-142,1071,47,-66,4
2561,276,-72,1034,70,-15,2
2562,-29,72,1043,55,39,7
2563,-297,148,953,-31,54,16
2564,-344,39,859,-94,20,6
2565,-39,-104,959,-58,-46,-4
2566,312,-128,1066,44,-71,2
2567,313,-83,1051,60,-27,2
2568,46,42,1035,61,31,5
2569,-261,151,993,-8,57,14
2570,-374,67,866,-98,33,9
2571,-122,-84,938,-68,-34,-4
2572,252,-129,1048,21,-73,0
2573,345,-99,1051,62,-40,5
2574,115,8,1023,56,21,4
2575,-202,142,1007,10,55,13
2576,-373,98,902,-87,42,10
2577,-202,-64,902,-91,-22,-3
2578,189,-140,1041,3,-71,-1
2579,354,-119,1056,55,-52,4
2580,175,-15,1023,67,7,1
2581,-138,121,1029,25,52,9
2582,-367,119,890,-76,49,11
2583,-265,-27,903,-87,-7,-3
2584,117,-132,1026,-24,-65,-2
2585,351,-133,1070,52,-61,3
2586,229,-47,1029,68,-5,-2
2587,-87,99,1030,45,46,8
2588,-336,128,919,-64,54,13
2589,-303,0,877,-93,6,-1
2590,38,-115,1007,-31,-57,-3
2591,345,-139,1062,39,-66,4
2592,273,-63,1030,68,-15,1
2593,-29,86,1056,56,41,4
2594,-301,134,943,-50,56,13
2595,-341,30,858,-89,20,4
2596,-31,-101,970,-56,-46,-2
2597,312,-150,1058,28,-69,3
2598,306,-85,1039,65,-25,2
2599,40,57,1061,66,31,4
2600,-264,136,973,-26,56,13
2601,-370,67,871,-88,31,7
2602,-108,-87,947,-67,-37,-5
2603,256,-152,1041,7,-72,3
2604,337,-100,1041,69,-38,5
2605,110,25,1036,62,22,1
2606,-212,132,993,1,56,12
2607,-375,98,897,-79,38,8
2608,-186,-61,920,-83,-25,-6
2609,196,-147,1038,0,-71,0
2610,355,-116,1040,60,-50,5
2611,172,-5,1048,70,10,1
2612,-156,111,997,14,52,9
2613,-370,133,904,-61,47,12
2614,-253,-26,917,-90,-11,-5
2615,127,-146,1012,-28,-68,-2
2616,357,-128,1068,59,-59,3
2617,228,-37,1043,63,-2,-2
2618,-104,88,1010,35,48,7
2619,-346,134,914,-55,52,13
2620,-298,8,893,-92,3,-1
2621,39,-131,990,-39,-58,-4
2622,359,-138,1064,45,-65,4
2623,272,-61,1048,70,-13,1
2624,-35,74,1039,46,41,5
2625,-308,143,942,-39,56,15
2626,-344,34,870,-90,18,2
2627,-29,-107,966,-56,-49,-5
2628,321,-145,1059,35,-70,4
2629,312,-80,1049,63,-23,4
2630,30,50,1041,61,35,5
2631,-268,141,983,-21,57,15
2632,-378,56,874,-93,30,6
2633,-104,-90,940,-61,-39,-3
2634,268,-137,1048,16,-73,6
2635,340,-107,1040,65,-36,4
2636,104,20,1029,64,25,2
2637,-224,136,1009,1,55,12
2638,-375,90,885,-83,39,9
2639,-182,-59,923,-77,-25,-2
2640,201,-141,1039,4,-73,2
2641,356,-122,1048,54,-50,4
2642,164,-3,1029,74,11,-1
2643,-153,132,1018,23,52,9
2644,-374,116,892,-77,47,12
2645,-248,-33,917,-86,-11,-1
2646,134,-132,1022,-19,-66,-2
2647,362,-124,1066,57,-59,4
2648,225,-34,1038,63,-1,1
2649,-108,96,1016,35,50,9
2650,-349,131,919,-61,53,12
2651,-292,8,880,-91,2,0
2652,50,-119,1011,-38,-58,-1
2653,349,-148,1045,32,-65,5
2654,277,-58,1050,76,-14,2
2655,-42,78,1053,44,43,5
2656,-310,129,928,-44,56,13
2657,-337,32,871,-92,16,3
2658,-28,-105,970,-51,-49,-2
2659,320,-147,1057,30,-69,4
2660,314,-78,1038,66,-25,4
2661,37,58,1055,62,33,5
2662,-275,136,971,-27,57,13
2663,-370,62,881,-89,30,6
2664,-99,-89,949,-67,-39,-3
2665,260,-153,1031,12,-70,3
2666,341,-93,1041,76,-36,4
2667,108,20,1045,59,22,0
2668,-224,127,981,-2,56,12
2669,-366,108,908,-73,37,9
2670,-179,-57,917,-87,-25,-2
2671,200,-152,1039,2,-70,2
2672,352,-114,1040,59,-47,5
2673,168,4,1050,72,10,1
2674,-158,113,1002,8,54,10
2675,-373,120,899,-65,48,11
2676,-254,-30,915,-91,-10,-2
2677,124,-143,1015,-22,-67,-1
2678,360,-120,1062,62,-60,5
2679,230,-28,1056,62,-2,1
2680,-106,90,999,28,49,9
2681,-339,152,934,-45,53,14
2682,-300,2,883,-109,5,0
2683,37,-139,983,-41,-58,-1
2684,354,-137,1069,48,-68,3
2685,274,-62,1042,67,-14,2
2686,-35,67,1039,47,43,5
2687,-307,140,951,-38,56,14
2688,-346,34,864,-95,19,2
2689,-31,-105,965,-55,-48,-4
2690,317,-147,1056,32,-72,5
2691,308,-84,1043,67,-26,3
2692,35,48,1048,62,33,2
2693,-271,136,977,-22,57,13
2694,-377,61,877,-91,30,6
2695,-106,-84,939,-59,-39,-6
2696,267,-147,1046,14,-74,2
2697,341,-103,1041,71,-40,3
2698,109,30,1028,68,22,-1
2699,-218,145,1013,5,56,11
2700,-380,82,884,-93,40,9
2701,-180,-57,923,-75,-26,-4
2702,208,-133,1049,-2,-70,1
2703,355,-122,1033,58,-49,4
2704,172,-2,1041,73,10,2
2705,-164,121,1007,17,53,9
2706,-378,113,904,-75,47,9
2707,-242,-20,909,-80,-13,-4
2708,133,-138,1025,-26,-68,-2
2709,363,-140,1053,57,-59,5
2710,229,-27,1055,73,-2,0
2711,-112,100,1007,34,49,8
2712,-345,133,920,-63,53,14
2713,-297,8,889,-90,4,-1
2714,51,-129,1002,-39,-58,-2
2715,357,-144,1045,40,-67,5
2716,279,-50,1053,83,-14,2
2717,-40,72,1042,40,44,6
2718,-319,131,934,-39,57,15
2719,-343,46,886,-85,17,2
2720,-21,-105,966,-60,-50,-3
2721,325,-150,1040,31,-69,6
2722,314,-76,1057,72,-26,2
2723,30,45,1047,56,34,4
2724,-284,130,971,-25,59,14
2725,-373,70,884,-85,31,8
2726,-96,-78,947,-70,-38,-3
2727,270,-147,1034,11,-72,3
2728,346,-100,1048,70,-38,5
2729,103,20,1036,58,25,2
2730,-226,128,990,-1,58,12
2731,-384,94,899,-82,41,8
2732,-179,-60,927,-84,-26,-2
2733,205,-143,1028,6,-72,2
2734,361,-117,1051,60,-51,3
2735,168,-1,1035,70,11,2
2736,-164,121,1013,15,54,9
2737,-378,119,897,-73,49,10
2738,-248,-28,918,-89,-10,-2
2739,130,-139,1004,-25,-67,-1
2740,363,-126,1083,62,-61,4
2741,229,-42,1035,61,-2,0
2742,-111,96,1011,42,50,8
2743,-351,133,923,-61,52,10
2744,-294,-1,883,-96,4,-2
2745,49,-122,993,-32,-58,-2
2746,360,-138,1059,41,-68,4
2747,281,-64,1049,69,-16,2
2748,-48,72,1037,48,44,4
2749,-315,138,955,-38,55,13
2750,-343,31,866,-100,18,3
2751,-18,-103,961,-50,-50,-3
2752,321,-147,1051,33,-72,3
2753,314,-75,1046,73,-26,2
2754,32,59,1051,61,35,3
2755,-279,142,976,-28,58,14
2756,-370,66,887,-93,29,8
2757,-96,-80,935,-66,-36,-3
2758,271,-145,1044,13,-71,4
2759,342,-108,1032,64,-37,5
2760,103,34,1045,67,25,3
2761,-231,134,997,-10,58,11
2762,-378,91,894,-86,41,8
2763,-177,-55,928,-82,-24,-3
2764,208,-150,1028,-6,-70,1
2765,357,-127,1049,57,-47,5
2766,165,0,1034,72,12,1
2767,-161,121,1018,10,53,10
2768,-378,113,890,-75,49,11
2769,-238,-21,917,-82,-11,-1
2770,123,-145,1014,-30,-65,-1
2771,358,-144,1062,53,-58,4
2772,224,-27,1045,72,-2,2
2773,-106,105,1019,35,48,8
2774,-338,129,914,-59,52,13
2775,-296,4,880,-92,4,0
2776,49,-126,1002,-38,-57,-3
2777,344,-146,1060,35,-64,5
2778,273,-63,1042,71,-13,2
2779,-40,72,1050,43,42,6
2780,-305,136,928,-37,55,15
2781,-343,41,888,-85,15,3
2782,-26,-117,958,-61,-50,-1
2783,317,-150,1051,36,-69,5
2784,306,-76,1054,72,-23,4
2785,41,47,1043,56,33,5
2786,-272,140,972,-16,57,13
2787,-373,69,884,-86,29,8
2788,-107,-94,937,-71,-39,-3
2789,253,-156,1044,15,-72,2
2790,343,-99,1042,76,-38,4
2791,113,22,1040,63,22,2
2792,-218,130,986,-1,56,14
2793,-370,103,901,-75,38,11
2794,-186,-48,927,-81,-25,-3
2795,201,-138,1032,-1,-70,2
2796,362,-111,1051,56,-48,6
2797,173,0,1037,68,12,2
2798,-155,115,1002,12,54,8
2799,-368,128,906,-65,48,14
2800,-254,-18,910,-90,-8,-1
2801,117,-133,1010,-27,-65,0
2802,359,-126,1079,52,-58,5
2803,237,-40,1037,54,-1,2
2804,-89,94,1015,36,50,9
2805,-340,137,922,-54,55,13
2806,-311,7,874,-99,7,2
2807,17,-132,997,-41,-56,-3
2808,343,-140,1062,41,-68,3
2809,290,-62,1045,65,-16,3
2810,-15,67,1038,45,41,4
2811,-287,140,959,-33,56,14
2812,-350,39,859,-95,22,5
2813,-66,-109,954,-59,-44,-3
2814,296,-150,1070,29,-70,4
2815,317,-91,1035,58,-28,4
2816,65,51,1049,68,29,3
2817,-242,145,994,-15,57,14
2818,-369,72,866,-92,34,11
2819,-141,-86,936,-70,-32,-5
2820,229,-159,1051,7,-69,2
2821,337,-122,1028,60,-38,7
2822,134,14,1033,68,18,4
2823,-181,138,1009,15,52,13
2824,-366,101,891,-76,41,13
2825,-212,-53,910,-82,-20,0
2826,171,-141,1049,-3,-68,0
2827,342,-125,1037,54,-50,5
2828,191,-11,1039,73,6,3
2829,-128,109,1017,24,49,9
2830,-361,115,890,-61,47,13
2831,-271,-14,905,-81,-8,-1
2832,96,-138,1023,-26,-66,-2
2833,341,-130,1059,60,-61,3
2834,235,-33,1053,72,-9,0
2835,-78,88,1010,42,43,7
2836,-325,138,923,-45,50,13
2837,-303,19,883,-91,5,-1
2838,35,-111,1003,-39,-57,-3
2839,336,-127,1046,38,-68,3
2840,286,-56,1054,73,-17,-1
2841,-27,69,1039,42,40,6
2842,-305,136,950,-35,55,13
2843,-346,41,873,-96,19,2
2844,-37,-99,960,-59,-47,-3
2845,312,-138,1053,28,-72,3
2846,318,-86,1052,60,-27,0
2847,45,37,1037,56,32,1
2848,-268,138,986,-20,58,13
2849,-377,66,874,-92,31,5
2850,-117,-84,944,-70,-37,-5
2851,260,-143,1038,8,-71,2
2852,351,-107,1049,64,-38,5
2853,111,16,1027,59,23,3
2854,-200,137,1002,3,56,13
2855,-379,92,898,-86,42,10
2856,-198,-61,914,-81,-21,-4
2857,197,-145,1040,-2,-72,3
2858,360,-123,1053,56,-49,7
2859,179,-15,1029,71,11,3
2860,-144,116,1012,22,52,11
2861,-365,125,903,-66,49,14
2862,-267,-21,895,-89,-6,1
2863,104,-136,1024,-22,-65,0
2864,353,-138,1069,54,-60,6
2865,238,-45,1039,65,-5,1
2866,-84,93,1023,49,47,7
2867,-328,139,917,-53,54,15
2868,-317,10,876,-90,6,1
2869,21,-117,998,-36,-58,-3
2870,336,-139,1062,42,-68,4
2871,287,-60,1040,74,-17,2
2872,-10,75,1050,50,39,4
2873,-296,134,945,-36,57,13
2874,-353,46,865,-90,20,4
2875,-52,-85,969,-52,-46,-3
2876,298,-143,1048,23,-70,2
2877,318,-90,1043,63,-30,1
2878,60,44,1049,63,30,2
2879,-258,134,989,-21,57,11
2880,-380,66,872,-88,34,7
2881,-123,-69,943,-69,-34,-4
2882,247,-138,1038,5,-72,0
2883,349,-102,1043,64,-42,3
2884,133,19,1044,58,19,3
2885,-202,125,995,1,57,12
2886,-373,99,898,-85,44,9
2887,-196,-45,922,-84,-19,-3
2888,182,-145,1032,-15,-70,2
2889,358,-125,1039,57,-52,5
2890,186,-9,1045,71,8,1
2891,-144,106,1015,14,54,10
2892,-364,123,896,-65,51,12
2893,-269,-10,911,-91,-6,0
2894,102,-151,1008,-35,-64,-1
2895,355,-150,1063,55,-60,6
2896,242,-48,1051,71,-5,1
2897,-77,87,1018,43,47,8
2898,-324,146,920,-48,55,16
2899,-311,22,884,-91,9,2
2900,0,-131,983,-47,-55,-2
2901,334,-145,1060,47,-68,4
2902,296,-65,1046,75,-20,4
2903,0,63,1048,51,37,8
2904,-286,141,948,-27,56,16
2905,-356,54,877,-89,24,6
2906,-74,-92,948,-64,-43,-3
2907,284,-139,1050,30,-73,2
2908,328,-85,1051,64,-34,2
2909,75,31,1039,61,27,4
2910,-237,136,996,-9,56,12
2911,-380,74,883,-91,37,8
2912,-135,-67,928,-74,-32,-3
2913,232,-127,1045,11,-72,1
2914,345,-110,1036,65,-45,2
2915,139,6,1036,61,16,4
2916,-196,124,1007,9,54,12
2917,-372,91,898,-87,46,9
2918,-205,-50,912,-85,-17,-1
2919,180,-130,1042,-3,-69,0
2920,350,-122,1039,55,-54,2
2921,185,-19,1043,71,4,2
2922,-136,110,1012,24,52,10
2923,-356,121,911,-69,50,12
2924,-265,-17,894,-94,-3,0
2925,101,-136,1020,-29,-63,0
2926,348,-140,1058,56,-63,4
2927,243,-48,1050,74,-6,3
2928,-80,90,1023,44,45,9
2929,-322,136,926,-54,55,15
2930,-309,18,865,-98,12,4
2931,9,-106,995,-41,-54,-2
2932,334,-139,1064,41,-70,2
2933,289,-77,1036,68,-21,2
2934,-2,58,1052,53,38,6
2935,-290,133,957,-33,58,15
2936,-356,57,865,-91,26,5
2937,-67,-86,959,-62,-43,-3
2938,282,-145,1043,27,-72,2
2939,320,-87,1046,71,-34,2
2940,77,44,1054,66,26,5
2941,-243,136,992,-20,57,13
2942,-374,77,873,-90,38,8
2943,-143,-68,939,-75,-30,-4
2944,225,-148,1034,4,-73,0
2945,346,-109,1037,72,-45,3
2946,144,10,1037,63,15,2
2947,-184,119,1001,8,55,12
2948,-369,106,904,-78,46,9
2949,-215,-39,916,-87,-16,-2
2950,163,-137,1037,-12,-68,0
2951,354,-126,1037,54,-56,2
2952,196,-24,1049,75,3,1
2953,-119,94,1007,19,51,9
2954,-355,131,909,-56,53,14
2955,-276,-1,907,-90,-1,0
2956,76,-134,1005,-36,-63,-2
2957,350,-130,1068,57,-64,3
2958,254,-48,1044,63,-9,2
2959,-60,73,1017,42,45,7
2960,-317,137,928,-47,55,13
2961,-326,20,876,-92,13,1
2962,-11,-118,988,-46,-53,-3
2963,323,-138,1061,40,-69,2
2964,299,-77,1041,71,-24,2
2965,9,56,1040,53,35,6
2966,-284,140,965,-19,57,14
2967,-356,50,877,-95,24,4
2968,-76,-85,940,-61,-43,-2
2969,284,-127,1057,34,-72,2
2970,327,-92,1047,59,-33,2
2971,69,27,1037,63,28,4
2972,-242,134,999,-12,55,12
2973,-372,76,876,-87,36,8
2974,-136,-66,937,-76,-31,-2
2975,232,-134,1037,8,-72,1
2976,346,-110,1047,67,-44,2
2977,132,9,1029,59,18,2
2978,-192,122,1010,11,54,13
2979,-370,90,884,-87,45,11
2980,-206,-40,925,-75,-17,-2
2981,178,-132,1040,-9,-69,1
2982,353,-131,1037,50,-53,4
2983,185,-22,1042,77,6,1
2984,-138,106,1012,23,52,9
2985,-363,116,910,-66,50,12
2986,-260,-12,897,-85,-4,0
2987,101,-124,1012,-25,-63,0
2988,352,-137,1063,54,-62,4
2989,250,-51,1048,69,-5,3
2990,-76,84,1027,46,48,10
2991,-325,132,926,-51,55,15
2992,-326,21,865,-90,12,3
2993,2,-97,1001,-39,-55,-2
2994,332,-138,1061,37,-72,2
2995,309,-71,1031,73,-23,2
2996,12,61,1056,52,38,8
2997,-286,130,960,-31,60,15
2998,-368,61,861,-90,29,5
2999,-87,-69,961,-60,-42,-3
3000,283,-140,1041,19,-75,1
3001,335,-92,1043,67,-37,1
3002,99,26,1053,62,24,3
3003,-238,123,990,-16,60,12
3004,-388,88,881,-84,41,7
3005,-156,-51,937,-83,-28,-2
3006,216,-136,1028,-1,-74,0
3007,358,-104,1048,69,-49,1
3008,155,-1,1041,58,13,2
3009,-185,103,991,3,55,10
3010,-380,98,900,-81,48,8
3011,-224,-37,921,-84,-15,-2
3012,166,-139,1025,-17,-70,0
3013,358,-123,1047,63,-57,4
3014,199,-24,1048,74,1,1
3015,-130,94,1008,18,51,9
3016,-357,121,910,-60,54,12
3017,-269,-7,903,-94,0,-2
3018,86,-139,998,-35,-61,0
3019,355,-137,1073,62,-66,5
3020,247,-54,1052,72,-11,1
3021,-77,73,1015,45,45,8
3022,-326,139,931,-47,55,14
3023,-319,19,874,-95,13,2
3024,12,-106,985,-42,-52,-1
3025,336,-124,1060,50,-72,5
3026,300,-66,1045,73,-23,3
3027,-2,55,1047,52,39,7
3028,-294,127,960,-32,58,15
3029,-360,52,872,-97,27,7
3030,-66,-78,950,-60,-43,-2
3031,286,-130,1038,26,-74,1
3032,332,-88,1059,67,-37,3
3033,73,22,1032,57,25,4
3034,-242,131,1003,-10,59,13
3035,-377,74,877,-94,39,10
3036,-146,-59,935,-73,-30,-2
3037,226,-136,1031,9,-72,0
3038,354,-115,1044,70,-50,2
3039,144,0,1036,68,14,3
3040,-185,121,998,10,57,11
3041,-378,106,912,-83,47,10
3042,-222,-38,910,-94,-14,-2
3043,170,-130,1036,-5,-69,1
3044,355,-126,1048,53,-60,3
3045,206,-24,1036,82,1,1
3046,-130,97,1024,16,52,8
3047,-364,115,904,-67,55,11
3048,-282,6,898,-92,0,-2
3049,85,-118,1016,-31,-61,-2
3050,359,-142,1051,46,-66,2
3051,269,-45,1053,77,-10,2
3052,-67,73,1042,37,47,8
3053,-334,120,909,-58,60,13
3054,-332,34,876,-88,15,3
3055,-1,-101,991,-55,-54,-3
3056,332,-152,1037,34,-72,3
3057,315,-65,1055,83,-27,3
3058,14,60,1061,52,36,5
3059,-291,121,951,-38,62,13
3060,-370,62,875,-92,29,5
3061,-77,-79,953,-64,-42,-3
3062,286,-153,1037,20,-74,1
3063,334,-97,1036,75,-37,5
3064,87,29,1059,67,25,5
3065,-248,125,983,-18,59,13
3066,-381,88,891,-80,39,9
3067,-150,-58,932,-83,-28,-2
3068,219,-146,1023,7,-72,0
3069,361,-114,1051,72,-50,4
3070,150,-1,1038,68,13,3
3071,-182,118,993,13,56,12
3072,-381,112,911,-78,50,11
3073,-225,-32,914,-88,-13,-2
3074,164,-129,1030,-11,-70,-1
3075,360,-126,1055,62,-59,3
3076,209,-30,1038,75,-1,4
3077,-129,92,1011,21,51,10
3078,-364,126,918,-61,54,13
3079,-284,0,892,-98,1,0
3080,77,-119,1002,-26,-63,-2
3081,363,-131,1068,52,-68,3
3082,267,-55,1049,71,-15,2
3083,-66,71,1033,45,44,8
3084,-327,136,930,-54,57,13
3085,-334,28,878,-97,16,0
3086,0,-98,976,-50,-51,-4
3087,344,-127,1055,42,-73,3
3088,310,-82,1056,71,-28,0
3089,7,43,1030,55,36,6
3090,-293,138,981,-24,61,14
3091,-374,57,868,-107,30,4
3092,-75,-74,943,-60,-40,-3
3093,295,-134,1052,19,-74,3
3094,337,-106,1034,64,-37,3
3095,87,25,1054,69,25,1
3096,-251,131,1002,-18,59,12
3097,-392,75,877,-93,43,8
3098,-155,-58,929,-78,-27,-3
3099,230,-141,1040,3,-74,1
3100,361,-125,1037,64,-51,3
3101,155,0,1036,74,11,3
3102,-186,122,1016,13,57,11
3103,-391,96,890,-90,51,9
3104,-228,-25,917,-78,-13,-3
3105,168,-123,1037,-14,-71,-1
3106,366,-136,1042,53,-61,5
3107,206,-37,1038,82,-1,-1
3108,-125,97,1023,30,50,8
3109,-369,123,908,-69,56,12
3110,-284,1,900,-95,1,-2
3111,83,-114,1002,-29,-63,-3
3112,365,-133,1064,53,-69,3
3113,272,-53,1049,79,-14,0
3114,-63,73,1036,44,45,7
3115,-334,128,920,-62,59,14
3116,-334,35,881,-89,16,0
3117,3,-99,980,-55,-53,-4
3118,340,-146,1049,38,-73,4
3119,314,-76,1046,77,-28,2
3120,2,46,1056,53,36,4
3121,-296,122,954,-33,60,14
3122,-371,65,890,-92,30,6
3123,-75,-78,943,-65,-41,-3
3124,294,-143,1039,19,-76,3
3125,340,-101,1044,75,-39,4
3126,85,17,1047,69,25,4
3127,-251,127,993,-16,60,14
3128,-386,88,894,-83,41,8
3129,-153,-56,928,-84,-27,-3
3130,233,-132,1026,10,-73,0
3131,370,-103,1050,72,-50,4
3132,153,-4,1044,66,13,2
3133,-195,111,989,6,59,11
3134,-386,116,909,-76,50,9
3135,-229,-26,923,-92,-14,-3
3136,167,-130,1015,-14,-69,0
3137,368,-126,1062,62,-61,4
3138,209,-40,1038,72,-1,2
3139,-135,90,1007,26,52,8
3140,-367,131,921,-62,55,11
3141,-286,0,894,-105,1,-1
3142,80,-126,997,-30,-63,-1
3143,370,-134,1064,55,-69,5
3144,271,-59,1049,75,-13,1
3145,-67,73,1032,49,45,7
3146,-332,139,938,-53,59,14
3147,-334,26,871,-101,17,3
3148,0,-99,978,-50,-52,-1
3149,343,-129,1053,45,-74,5
3150,307,-82,1049,72,-27,2
3151,6,45,1042,55,36,7
3152,-299,129,975,-30,60,14
3153,-370,51,875,-101,29,5
3154,-69,-78,946,-59,-41,-3
3155,293,-135,1042,23,-74,3
3156,338,-102,1037,72,-38,2
3157,84,31,1045,74,25,3
3158,-253,135,1002,-16,60,14
3159,-383,78,877,-94,42,9
3160,-148,-54,943,-79,-27,-2
3161,228,-130,1017,9,-72,-1
3162,367,-105,1054,68,-50,4
3163,142,-3,1039,69,14,3
3164,-190,111,1001,6,57,11
3165,-388,105,901,-89,51,10
3166,-223,-22,919,-80,-14,-1
3167,171,-132,1024,-22,-68,0
3168,363,-125,1052,65,-60,4
3169,212,-22,1051,75,-3,3
3170,-132,93,1013,18,51,10
3171,-370,125,909,-67,57,11
3172,-279,5,901,-100,3,0
3173,76,-130,997,-39,-61,0
3174,365,-143,1048,50,-67,4
3175,270,-51,1060,80,-14,2
3176,-71,71,1042,41,46,7
3177,-334,124,925,-59,58,13
3178,-336,30,867,-95,17,3
3179,2,-104,983,-54,-51,-2
3180,338,-146,1041,39,-72,4
3181,310,-81,1061,81,-28,3
3182,5,39,1044,53,35,6
3183,-299,132,966,-22,60,13
3184,-371,67,883,-95,29,6
3185,-70,-87,943,-69,-40,-1
3186,284,-143,1036,24,-73,3
3187,345,-93,1054,78,-41,3
3188,82,14,1039,63,25,3
3189,-249,128,992,-6,59,14
3190,-388,88,889,-87,41,10
3191,-151,-61,931,-85,-27,-2
3192,231,-143,1024,7,-73,1
3193,367,-110,1056,74,-52,4
3194,146,-4,1036,70,12,3
3195,-190,116,1007,14,57,11
3196,-388,108,898,-86,50,11
3197,-232,-27,907,-84,-14,-2
3198,167,-120,1033,-8,-70,-1
3199,366,-122,1054,58,-62,4
3200,212,-33,1040,77,-4,0
3201,-134,98,1014,29,51,7
3202,-363,131,922,-65,56,10
3203,-283,9,895,-101,2,-1
3204,72,-109,994,-26,-61,-3
3205,369,-134,1065,42,-70,3
3206,267,-66,1042,73,-15,1
3207,-67,78,1039,49,45,5
3208,-333,137,940,-55,59,11
3209,-339,28,870,-97,17,1
3210,3,-93,970,-55,-52,-4
3211,340,-134,1056,38,-72,2
3212,313,-88,1045,63,-27,1
3213,7,49,1043,61,36,5
3214,-296,132,980,-34,61,12
3215,-378,45,874,-106,30,3
3216,-69,-88,942,-62,-39,-2
3217,288,-136,1044,21,-74,3
3218,344,-104,1037,72,-39,2
3219,84,21,1044,66,26,5
3220,-249,131,999,-11,61,13
3221,-386,76,882,-95,42,8
3222,-151,-58,937,-77,-26,-3
3223,230,-145,1022,4,-73,2
3224,368,-116,1044,73,-51,4
3225,148,5,1046,80,13,4
3226,-184,116,1010,7,56,13
3227,-387,109,886,-85,51,13
3228,-230,-16,921,-80,-11,0
3229,157,-131,1022,-21,-68,1
3230,367,-129,1056,64,-60,6
3231,211,-31,1043,77,-2,3
3232,-130,91,1019,30,51,10
3233,-362,125,908,-66,56,15
3234,-288,10,895,-97,5,2
3235,68,-112,997,-30,-61,0
3236,365,-127,1056,48,-69,4
3237,278,-55,1054,77,-14,2
3238,-58,65,1037,44,45,7
3239,-329,129,932,-52,62,15
3240,-345,34,879,-97,19,3
3241,-17,-101,960,-59,-50,-3
3242,336,-136,1058,42,-75,3
3243,317,-73,1053,76,-30,1
3244,18,38,1047,52,35,5
3245,-292,130,968,-31,62,13
3246,-375,66,890,-95,32,4
3247,-89,-83,930,-73,-37,-3
3248,281,-143,1043,18,-75,2
3249,347,-103,1042,75,-43,3
3250,95,18,1051,68,21,2
3251,-239,127,993,-9,60,11
3252,-382,90,891,-87,44,9
3253,-169,-57,923,-87,-25,-3
3254,224,-140,1030,5,-73,2
3255,364,-117,1047,65,-52,5
3256,160,-11,1041,79,10,1
3257,-173,115,1011,13,56,12
3258,-387,112,901,-80,51,12
3259,-241,-24,910,-91,-10,-2
3260,149,-127,1021,-16,-68,-2
3261,371,-131,1055,59,-62,4
3262,222,-46,1045,77,-4,2
3263,-120,88,1012,34,50,9
3264,-366,133,924,-58,55,12
3265,-297,7,878,-101,6,1
3266,62,-103,1004,-27,-60,0
3267,357,-137,1053,43,-70,1
3268,282,-71,1048,79,-18,1
3269,-54,66,1044,52,43,7
3270,-324,130,937,-48,58,12
3271,-346,38,871,-93,19,2
3272,-13,-79,975,-51,-51,-3
3273,332,-127,1047,37,-74,1
3274,321,-83,1051,72,-31,0
3275,22,42,1047,59,33,3
3276,-296,128,977,-31,61,11
3277,-381,62,880,-100,31,5
3278,-87,-66,944,-62,-38,-3
3279,283,-133,1036,13,-76,1
3280,349,-105,1040,68,-42,2
3281,101,18,1042,67,22,1
3282,-240,125,1003,-12,60,11
3283,-388,86,888,-91,44,7
3284,-167,-50,933,-85,-25,-3
3285,223,-140,1022,-2,-74,1
3286,365,-114,1042,68,-52,3
3287,164,-4,1050,74,10,3
3288,-178,104,1006,6,57,12
3289,-384,105,895,-83,53,12
3290,-240,-27,919,-84,-9,-3
3291,143,-139,1010,-25,-67,-1
3292,370,-133,1056,66,-62,5
3293,226,-35,1048,78,-4,2
3294,-122,94,1020,36,51,9
3295,-357,132,927,-64,56,11
3296,-290,8,885,-101,7,1
3297,61,-123,994,-38,-58,0
3298,360,-144,1045,46,-69,5
3299,281,-56,1062,86,-19,3
3300,-56,71,1039,46,43,6
3301,-323,134,943,-42,58,13
3302,-346,36,872,-100,21,5
3303,-20,-95,961,-56,-48,-3
3304,333,-133,1050,43,-73,3
3305,321,-76,1058,74,-31,2
3306,30,35,1037,58,33,4
3307,-290,137,982,-22,60,12
3308,-383,67,883,-99,34,5
3309,-101,-76,933,-72,-37,-3
3310,274,-130,1040,22,-75,1
3311,355,-96,1042,72,-45,2
3312,108,14,1045,65,20,2
3313,-233,129,999,-4,59,12
3314,-391,92,897,-92,46,6
3315,-177,-45,922,-88,-23,-4
3316,216,-125,1026,2,-73,0
3317,368,-122,1049,56,-55,2
3318,171,-16,1038,72,7,1
3319,-171,111,1014,10,56,10
3320,-387,111,904,-81,52,9
3321,-250,-28,907,-94,-7,-3
3322,137,-131,1014,-21,-66,-1
3323,368,-138,1061,59,-63,2
3324,233,-40,1040,75,-6,2
3325,-116,97,1031,41,48,8
3326,-354,122,919,-72,56,12
3327,-299,1,877,-99,9,0
3328,55,-114,1007,-33,-57,-1
3329,363,-144,1042,41,-70,4
3330,278,-67,1049,86,-19,2
3331,-44,77,1044,52,42,7
3332,-321,134,956,-48,59,15
3333,-348,33,862,-101,22,4
3334,-18,-92,965,-55,-47,-2
3335,323,-140,1047,35,-73,5
3336,321,-80,1045,77,-31,3
3337,33,44,1056,65,33,5
3338,-285,127,977,-28,61,13
3339,-378,69,878,-94,34,7
3340,-94,-69,947,-67,-36,-3
3341,269,-146,1029,11,-73,3
3342,349,-105,1041,80,-43,5
3343,109,22,1047,69,20,3
3344,-229,129,998,-5,58,13
3345,-390,89,894,-91,45,8
3346,-181,-51,930,-85,-22,-2
3347,207,-137,1019,1,-71,0
3348,370,-117,1049,67,-55,4
3349,173,-15,1038,76,8,2
3350,-167,117,1015,20,54,10
3351,-384,125,911,-77,53,10
3352,-254,-17,903,-96,-4,-1
3353,135,-129,1014,-27,-67,1
3354,368,-122,1058,65,-62,3
3355,240,-41,1059,67,-5,1
3356,-113,78,1010,30,51,10
3357,-352,133,928,-59,59,12
3358,-311,7,876,-104,10,0
3359,41,-115,993,-38,-57,-1
3360,359,-136,1054,43,-70,4
3361,291,-72,1048,77,-21,2
3362,-28,62,1047,48,41,6
3363,-310,137,954,-38,60,14
3364,-359,39,862,-104,24,4
3365,-39,-97,955,-61,-45,-1
3366,314,-144,1048,39,-74,3
3367,326,-90,1047,76,-36,3
3368,54,38,1052,70,30,6
3369,-271,140,985,-21,61,14
3370,-384,70,874,-97,38,8
3371,-120,-70,938,-74,-32,-2
3372,254,-135,1037,15,-75,0
3373,350,-108,1042,75,-46,2
3374,125,6,1040,65,15,3
3375,-218,117,1001,-6,59,14
3376,-386,94,895,-86,45,10
3377,-197,-44,925,-84,-19,-2
3378,200,-124,1027,2,-73,0
3379,364,-114,1056,62,-58,3
3380,187,-16,1035,79,4,0
3381,-152,112,1020,17,53,9
3382,-380,107,902,-80,54,9
3383,-260,-15,900,-94,-4,-2
3384,119,-109,1016,-16,-66,-1
3385,367,-121,1068,49,-66,4
3386,243,-45,1039,72,-8,0
3387,-98,87,1037,39,46,7
3388,-354,121,917,-66,59,10
3389,-313,11,878,-103,10,0
3390,41,-103,998,-36,-57,-3
3391,355,-141,1042,36,-71,3
3392,290,-69,1046,83,-22,-1
3393,-27,67,1055,51,40,4
3394,-314,127,950,-47,60,13
3395,-352,47,875,-95,25,3
3396,-36,-89,959,-66,-45,-2
3397,317,-149,1040,31,-72,3
3398,328,-89,1051,76,-34,2
3399,52,35,1046,65,31,5
3400,-273,124,989,-28,62,15
3401,-385,68,871,-90,38,8
3402,-116,-67,947,-71,-33,-2
3403,258,-143,1024,10,-72,3
3404,357,-106,1050,77,-47,6
3405,123,10,1043,72,19,2
3406,-216,115,1000,-1,59,12
3407,-390,98,893,-86,48,12
3408,-198,-35,923,-81,-20,-1
3409,191,-134,1023,-6,-70,1
3410,363,-120,1047,66,-56,5
3411,189,-15,1047,81,4,2
3412,-154,101,1014,15,54,9
3413,-377,119,905,-68,54,11
3414,-265,-7,905,-96,-3,0
3415,106,-120,1006,-22,-66,-1
3416,369,-126,1067,59,-67,3
3417,250,-51,1052,70,-10,0
3418,-91,80,1018,43,47,7
3419,-340,141,935,-54,59,12
3420,-321,21,871,-104,13,0
3421,29,-98,985,-45,-55,-2
3422,350,-128,1058,40,-72,3
3423,298,-72,1046,71,-24,1
3424,-19,53,1047,45,39,5
3425,-311,130,962,-36,60,11
3426,-364,40,868,-106,26,2
3427,-47,-92,947,-60,-45,-2
3428,311,-137,1052,32,-74,2
3429,328,-101,1044,69,-36,0
3430,61,27,1046,69,27,4
3431,-266,140,994,-14,60,13
3432,-384,67,882,-101,37,7
3433,-127,-78,929,-76,-30,-4
3434,261,-130,1041,18,-74,2
3435,355,-109,1042,72,-47,2
3436,130,-1,1036,67,17,2
3437,-217,122,1006,10,58,13
3438,-386,94,896,-89,48,8
3439,-201,-43,919,-80,-17,-2
3440,200,-129,1030,-5,-71,3
3441,372,-121,1045,62,-58,5
3442,185,-17,1047,83,4,2
3443,-154,111,1019,19,56,12
3444,-377,113,909,-78,55,14
3445,-269,-13,888,-96,0,2
3446,109,-120,1014,-19,-64,0
3447,366,-140,1061,52,-67,4
3448,250,-50,1040,79,-10,2
3449,-90,88,1045,48,46,8
3450,-342,128,913,-64,57,13
3451,-319,25,875,-92,14,1
3452,22,-90,995,-41,-54,-2
3453,352,-134,1044,35,-73,3
3454,296,-73,1048,79,-25,1
3455,-11,55,1052,52,38,4
3456,-310,125,959,-37,62,12
3457,-368,43,868,-101,28,4
3458,-52,-83,955,-58,-45,-2
3459,304,-135,1044,30,-75,2
3460,336,-88,1046,74,-38,2
3461,66,33,1051,66,26,3
3462,-266,128,990,-23,60,11
3463,-385,75,880,-92,40,6
3464,-130,-64,937,-79,-31,-4
3465,249,-143,1022,7,-73,1
3466,364,-111,1055,76,-49,3
3467,138,-3,1043,63,14,2
3468,-208,120,995,10,58,10
3469,-386,103,902,-88,48,9
3470,-213,-38,916,-86,-17,-2
3471,184,-126,1026,-6,-71,-1
3472,366,-120,1049,60,-60,4
3473,196,-32,1049,75,2,0
3474,-149,94,1001,22,53,8
3475,-373,126,924,-66,54,11
3476,-273,-8,895,-102,-1,-1
3477,100,-116,997,-21,-64,-2
3478,368,-125,1072,57,-67,3
3479,260,-61,1048,68,-11,1
3480,-89,76,1023,47,47,8
3481,-342,142,937,-54,57,11
3482,-325,20,867,-100,15,1
3483,18,-100,980,-47,-54,-2
3484,352,-133,1060,41,-73,2
3485,300,-86,1038,73,-24,1
3486,-7,52,1049,58,38,6
3487,-312,134,966,-35,61,12
3488,-372,44,874,-104,26,3
3489,-54,-82,948,-55,-43,-3
3490,306,-129,1047,30,-75,3
3491,337,-98,1039,69,-37,1
3492,76,22,1049,69,28,3
3493,-269,130,990,-19,61,12
3494,-388,75,886,-87,39,6
3495,-132,-57,932,-78,-30,-2
3496,247,-130,1034,11,-75,2
3497,368,-119,1038,66,-49,3
3498,139,2,1047,76,15,1
3499,-201,122,1001,4,58,11
3500,-388,99,899,-91,48,9
3501,-218,-37,912,-85,-15,-1
3502,179,-125,1034,-5,-70,-1
3503,368,-122,1046,59,-60,3
3504,207,-34,1044,74,2,2
3505,-143,94,1015,27,55,9
3506,-379,121,912,-65,56,10
3507,-285,-2,902,-96,0,-1
3508,91,-113,997,-26,-64,1
3509,372,-127,1060,55,-69,4
3510,270,-54,1049,74,-13,1
3511,-74,73,1036,40,46,7
3512,-342,134,925,-54,61,13
3513,-337,30,880,-96,16,2
3514,8,-100,977,-51,-53,0
3515,345,-136,1047,43,-73,5
3516,313,-72,1052,77,-27,1
3517,5,45,1054,49,36,5
3518,-307,124,948,-35,64,13
3519,-378,58,887,-94,31,4
3520,-67,-78,952,-65,-43,0
3521,294,-133,1033,25,-76,3
3522,348,-93,1048,76,-40,3
3523,84,17,1044,65,25,3
3524,-263,118,995,-16,63,12
3525,-391,75,890,-85,43,8
3526,-149,-59,931,-81,-27,1
3527,235,-132,1020,12,-73,4
3528,373,-107,1061,73,-52,3
3529,150,-11,1034,66,15,2
3530,-196,103,1005,13,60,12
3531,-389,101,899,-81,52,12
3532,-232,-28,912,-83,-11,1
3533,161,-119,1027,-6,-68,1
3534,370,-117,1058,66,-62,5
3535,220,-36,1038,73,-1,2
3536,-120,88,1019,30,53,12
3537,-371,120,915,-64,60,14
3538,-303,5,893,-94,6,2
3539,55,-98,993,-24,-61,-1
3540,363,-121,1067,53,-73,3
3541,294,-64,1045,71,-17,3
3542,-38,58,1036,49,44,8
3543,-321,126,940,-52,64,13
3544,-359,43,862,-89,23,3
3545,-45,-66,977,-50,-48,-3
3546,323,-120,1057,35,-78,1
3547,341,-87,1044,63,-35,2
3548,57,27,1042,55,32,4
3549,-268,111,984,-26,64,12
3550,-403,63,876,-97,39,5
3551,-131,-50,941,-60,-36,-3
3552,265,-110,1049,12,-78,0
3553,361,-95,1030,65,-47,1
3554,147,9,1052,65,17,2
3555,-222,99,1003,-18,64,12
3556,-402,78,887,-82,49,7
3557,-202,-30,928,-83,-21,-2
3558,194,-126,1032,-5,-74,0
3559,372,-127,1027,59,-57,1
3560,191,-8,1050,83,5,1
3561,-155,92,1012,3,56,9
3562,-394,92,892,-79,54,9
3563,-253,-7,921,-81,-8,-1
3564,134,-120,1025,-26,-67,-2
3565,368,-136,1036,55,-64,1
3566,238,-31,1054,85,-9,1
3567,-110,72,1018,23,48,6
3568,-371,102,909,-62,59,10
3569,-306,12,901,-91,7,-1
3570,56,-107,997,-32,-62,-3
3571,367,-126,1051,51,-73,3
3572,295,-52,1051,84,-20,2
3573,-47,54,1042,44,43,5
3574,-333,118,923,-47,63,12
3575,-354,52,888,-85,21,2
3576,-24,-79,966,-62,-50,-3
3577,339,-132,1050,36,-77,2
3578,333,-78,1048,80,-33,1
3579,35,35,1049,56,34,5
3580,-290,118,967,-28,65,13
3581,-392,72,885,-94,36,7
3582,-107,-59,945,-67,-36,-3
3583,277,-130,1035,14,-77,2
3584,362,-95,1041,77,-46,2
3585,116,5,1049,63,22,3
3586,-236,111,985,-13,63,11
3587,-404,90,905,-80,47,7
3588,-182,-43,928,-89,-23,-2
3589,206,-124,1014,1,-74,1
3590,383,-112,1052,70,-58,4
3591,184,-21,1048,66,8,4
3592,-175,89,993,11,58,8
3593,-395,111,918,-74,53,8
3594,-258,-11,908,-89,-7,0
3595,141,-116,1020,-20,-69,0
3596,376,-126,1052,60,-65,3
3597,243,-41,1051,74,-6,1
3598,-111,72,1003,25,53,7
3599,-366,121,927,-61,60,12
3600,-317,16,889,-98,9,1
3601,57,-95,998,-28,-60,-1
3602,372,-127,1063,41,-73,5
3603,298,-66,1038,74,-19,2
3604,-42,53,1040,46,45,5
3605,-331,115,948,-50,63,12
3606,-360,37,860,-93,22,2
3607,-29,-70,980,-48,-50,-3
3608,337,-132,1048,28,-77,4
3609,329,-91,1044,73,-33,2
3610,37,44,1046,64,34,3
3611,-289,122,986,-31,63,11
3612,-395,61,869,-101,36,6
3613,-100,-52,949,-59,-37,-3
3614,274,-132,1043,9,-75,1
3615,356,-111,1030,68,-44,2
3616,115,11,1051,69,21,2
3617,-242,108,995,-10,60,9
3618,-401,79,894,-83,45,6
3619,-181,-33,926,-75,-23,-2
3620,220,-127,1036,-2,-73,2
3621,375,-124,1035,64,-54,3
3622,182,-3,1045,79,7,2
3623,-172,103,1013,10,58,10
3624,-398,98,888,-83,55,11
3625,-252,-6,928,-79,-9,0
3626,148,-126,1022,-29,-69,-1
3627,376,-138,1039,56,-64,5
3628,236,-31,1057,85,-6,1
3629,-112,79,1012,24,50,7
3630,-371,116,916,-63,60,11
3631,-308,27,897,-90,7,0
3632,58,-106,1004,-42,-61,-1
3633,367,-140,1045,43,-72,4
3634,299,-59,1057,82,-20,0
3635,-45,57,1033,46,45,5
3636,-331,116,938,-50,62,12
3637,-362,44,872,-90,22,2
3638,-25,-77,977,-54,-52,-3
3639,337,-131,1045,36,-76,4
3640,330,-82,1052,78,-33,1
3641,36,32,1037,54,34,4
3642,-288,122,984,-24,62,13
3643,-396,64,871,-99,35,5
3644,-97,-62,950,-61,-38,-2
3645,276,-122,1032,18,-77,3
3646,362,-93,1049,72,-45,5
3647,112,4,1042,60,22,3
3648,-240,114,990,-9,62,12
3649,-399,87,903,-82,46,8
3650,-183,-53,917,-91,-23,-1
3651,215,-123,1021,7,-74,2
3652,377,-107,1060,70,-57,4
3653,171,-17,1030,65,9,3
3654,-172,100,1005,15,57,9
3655,-392,109,916,-80,54,9
3656,-248,-15,905,-89,-8,-2
3657,148,-122,1031,-21,-68,-1
3658,368,-134,1049,61,-65,4
3659,225,-43,1048,80,-6,1
3660,-116,79,1008,32,51,8
3661,-366,123,920,-60,57,12
3662,-303,14,900,-94,5,0
3663,60,-108,993,-33,-60,-4
3664,367,-126,1057,47,-73,3
3665,291,-55,1048,78,-19,1
3666,-41,64,1039,46,43,5
3667,-332,117,932,-59,62,11
3668,-355,47,879,-86,20,0
3669,-26,-79,980,-59,-49,-4
3670,332,-143,1037,28,-75,3
3671,323,-87,1045,77,-33,0
3672,40,41,1050,60,32,2
3673,-285,116,970,-34,62,11
3674,-385,73,886,-89,33,5
3675,-101,-53,953,-68,-36,-3
3676,272,-137,1031,4,-75,2
3677,355,-101,1039,71,-45,3
3678,114,15,1043,69,19,2
3679,-233,108,992,-17,60,10
3680,-393,82,906,-80,44,9
3681,-177,-42,932,-84,-24,-3
3682,212,-133,1014,-3,-71,1
3683,372,-112,1042,68,-55,4
3684,172,-4,1042,76,6,2
3685,-177,98,1004,4,57,8
3686,-389,103,905,-77,52,9
3687,-242,-17,926,-86,-9,-2
3688,152,-129,1016,-22,-67,0
3689,365,-131,1043,60,-62,3
3690,224,-25,1048,85,-6,0
3691,-116,85,1009,21,49,6
3692,-366,120,917,-59,56,12
3693,-287,12,914,-97,5,0
3694,65,-114,984,-37,-58,-1
3695,364,-122,1062,54,-68,3
3696,280,-50,1051,73,-18,2
3697,-60,62,1037,42,46,6
3698,-334,116,930,-52,61,11
3699,-338,39,882,-91,18,3
3700,-14,-95,975,-58,-48,-2
3701,339,-143,1038,35,-72,2
3702,313,-76,1056,79,-29,2
3703,11,37,1039,51,34,4
3704,-298,124,975,-27,61,11
3705,-381,64,886,-96,31,5
3706,-77,-72,947,-68,-40,-2
3707,287,-134,1029,21,-74,1
3708,351,-94,1043,74,-42,4
3709,92,23,1045,68,24,3
3710,-254,122,995,-15,58,10
3711,-393,76,896,-88,41,8
3712,-158,-53,934,-86,-25,-2
3713,230,-131,1020,8,-72,2
3714,372,-115,1047,68,-52,2
3715,155,-7,1035,72,11,1
3716,-189,112,1011,13,57,10
3717,-395,98,899,-89,50,10
3718,-232,-23,927,-81,-12,0
3719,171,-126,1021,-21,-70,-1
3720,368,-135,1045,62,-60,4
3721,219,-28,1044,80,-1,3
3722,-133,98,1016,28,53,8
3723,-378,118,912,-73,57,9
3724,-281,8,907,-92,2,1
3725,85,-114,1001,-34,-61,0
3726,368,-137,1046,49,-68,4
3727,278,-50,1057,79,-15,2
3728,-71,67,1030,39,46,6
3729,-342,116,928,-54,60,10
3730,-342,33,874,-90,17,1
3731,3,-86,990,-50,-53,-1
3732,347,-142,1035,29,-74,4
3733,320,-72,1056,87,-29,2
3734,10,54,1043,51,36,3
3735,-305,120,966,-32,63,11
3736,-379,55,881,-99,31,6
3737,-72,-67,952,-60,-40,0
3738,289,-146,1033,12,-75,3
3739,348,-102,1039,79,-42,3
3740,86,30,1051,74,24,3
3741,-262,119,991,-19,60,10
3742,-392,73,888,-88,42,8
3743,-150,-45,941,-74,-29,-2
3744,233,-133,1019,5,-73,0
3745,371,-107,1041,75,-51,4
3746,155,9,1045,73,11,2
3747,-195,108,994,3,58,9
3748,-395,101,907,-81,50,8
3749,-225,-21,929,-84,-13,-1
3750,170,-132,1014,-20,-68,1
3751,373,-123,1049,66,-62,4
3752,210,-26,1053,78,-2,1
3753,-139,85,997,18,53,7
3754,-377,125,922,-62,56,9
3755,-286,8,909,-100,1,0
3756,84,-123,988,-39,-63,0
3757,370,-132,1054,58,-69,4
3758,276,-49,1062,77,-15,1
3759,-78,62,1021,36,46,5
3760,-340,126,936,-50,58,10
3761,-337,32,886,-96,16,2
3762,8,-98,971,-53,-52,-2
3763,349,-135,1041,37,-73,5
3764,320,-68,1062,81,-29,3
3765,0,45,1034,49,36,3
3766,-308,126,968,-30,61,11
3767,-376,58,890,-102,30,5
3768,-65,-83,945,-67,-41,-1
3769,294,-144,1028,21,-74,3
3770,343,-94,1050,80,-39,4
3771,83,18,1040,63,26,3
3772,-265,120,991,-16,60,9
3773,-390,80,896,-84,41,7
3774,-142,-53,943,-77,-29,-2
3775,243,-133,1013,7,-73,2
3776,370,-111,1051,69,-50,5
3777,144,1,1035,73,13,3
3778,-201,117,1006,5,57,10
3779,-394,97,903,-87,50,7
3780,-220,-32,924,-83,-15,-1
3781,176,-130,1019,-14,-68,0
3782,376,-130,1054,60,-60,5
3783,204,-22,1031,83,1,2
3784,-139,105,1020,30,53,8
3785,-378,118,912,-75,56,10
3786,-282,5,908,-92,2,0
3787,95,-116,1004,-30,-62,-1
3788,370,-137,1050,48,-68,5
3789,276,-53,1045,79,-13,4
3790,-79,66,1037,40,45,14
3791,-359,119,927,-62,58,20
3792,-337,38,877,-82,14,-4
3793,20,-82,991,-42,-53,-10
3794,345,-143,1046,22,-73,7
3795,324,-70,1039,83,-28,4
3796,0,65,1057,58,39,4
3797,-313,115,951,-49,62,11
3798,-369,59,891,-95,30,5
3799,-68,-71,956,-63,-39,-4
3800,299,-154,1029,14,-74,1
3801,349,-93,1032,79,-37,7
3802,77,45,1064,70,27,7
3803,-273,114,979,-32,61,10
3804,-390,70,897,-86,39,8
3805,-140,-53,942,-79,-28,-1
3806,248,-142,1012,2,-73,2
3807,366,-112,1048,72,-49,4
3808,142,6,1041,73,14,3
3809,-211,112,999,2,59,11
3810,-396,99,903,-84,50,9
3811,-208,-30,928,-87,-15,-2
3812,185,-139,1015,-15,-68,-2
3813,373,-129,1049,68,-59,2
3814,201,-25,1043,80,2,3
3815,-154,99,1011,20,54,9
3816,-382,122,917,-68,55,9
3817,-273,0,911,-95,-2,-2
3818,104,-123,991,-29,-63,-1
3819,380,-137,1059,57,-68,2
3820,262,-49,1051,79,-12,3
3821,-87,79,1035,43,47,8
3822,-354,130,924,-59,59,11
3823,-328,31,884,-95,13,4
3824,22,-99,984,-49,-53,-1
3825,353,-141,1035,40,-72,3
3826,313,-74,1060,82,-27,3
3827,-12,56,1031,53,39,6
3828,-317,137,974,-31,61,11
3829,-375,51,883,-105,27,4
3830,-54,-75,949,-57,-44,-2
3831,309,-135,1035,21,-75,3
3832,343,-96,1042,73,-38,2
3833,71,33,1043,65,27,3
3834,-275,128,995,-17,62,10
3835,-394,71,888,-96,38,5
3836,-136,-59,940,-76,-32,-3
3837,253,-136,1021,3,-73,2
3838,370,-102,1047,74,-49,4
3839,138,4,1042,66,14,1
3840,-208,115,999,2,57,11
3841,-399,99,908,-89,49,7
3842,-208,-33,921,-86,-15,-4
3843,190,-133,1026,-16,-71,-1
3844,375,-126,1042,59,-59,4
3845,198,-17,1048,82,3,2
3846,-155,94,1010,11,54,9
3847,-384,114,914,-68,55,8
3848,-265,-6,907,-101,-2,-2
3849,111,-118,999,-26,-63,0
3850,370,-138,1048,49,-66,3
3851,257,-48,1055,83,-10,1
3852,-100,75,1032,33,49,8
3853,-355,124,919,-61,59,10
3854,-313,25,891,-92,12,0
3855,29,-113,976,-50,-54,-2
3856,358,-151,1045,41,-70,5
3857,298,-65,1051,90,-23,3
3858,-23,61,1051,49,39,7
3859,-319,126,953,-37,61,14
3860,-364,53,888,-97,25,4
3861,-44,-87,954,-60,-44,-2
3862,313,-148,1029,26,-72,3
3863,337,-83,1047,80,-35,4
3864,57,37,1052,66,29,4
3865,-279,126,976,-25,61,11
3866,-392,80,900,-83,37,7
3867,-123,-66,938,-84,-33,-2
3868,259,-148,1015,6,-74,3
3869,367,-104,1049,83,-48,3
3870,128,11,1046,69,16,3
3871,-227,117,989,3,58,9
3872,-394,106,909,-85,46,7
3873,-199,-35,926,-87,-19,-3
3874,196,-133,1020,-9,-71,0
3875,375,-120,1055,67,-59,3
3876,192,-18,1038,80,4,1
3877,-163,100,1004,14,54,7
3878,-381,125,924,-67,52,9
3879,-264,-3,903,-95,-3,-2
3880,113,-121,999,-28,-64,-1
3881,381,-129,1061,56,-67,3
3882,257,-50,1043,70,-9,2
3883,-100,77,1032,39,49,6
3884,-353,121,930,-65,57,10
3885,-317,22,884,-93,11,2
3886,35,-100,979,-45,-55,-2
3887,359,-144,1046,40,-70,5
3888,302,-74,1050,79,-22,3
3889,-22,62,1041,50,40,6
3890,-320,122,968,-40,62,11
3891,-361,32,876,-104,26,6
3892,-45,-89,952,-51,-43,0
3893,308,-151,1041,28,-73,4
3894,337,-97,1037,79,-36,5
3895,55,39,1045,77,29,5
3896,-277,132,995,-17,61,11
3897,-385,72,886,-89,38,7
3898,-112,-46,940,-68,-32,-1
3899,257,-135,1031,7,-72,4
3900,365,-117,1034,69,-45,4
3901,134,9,1052,75,18,3
3902,-224,111,993,0,60,11
3903,-398,92,901,-83,47,10
3904,-206,-24,929,-74,-18,1
3905,195,-125,1030,-11,-71,2
3906,371,-133,1034,59,-58,4
3907,201,-18,1049,85,3,3
3908,-151,96,1011,16,55,9
3909,-388,110,906,-68,55,10
3910,-272,7,909,-86,-2,2
3911,100,-112,1007,-28,-65,2
3912,369,-133,1044,53,-68,4
3913,274,-40,1064,83,-12,3
3914,-85,69,1026,33,48,7
3915,-351,117,919,-56,61,11
3916,-327,49,893,-82,14,3
3917,16,-82,986,-55,-55,0
3918,350,-138,1033,34,-73,4
3919,319,-64,1061,78,-26,3
3920,-8,41,1042,40,39,3
3921,-313,108,952,-37,62,11
3922,-372,59,895,-94,28,6
3923,-64,-78,942,-65,-44,-2
3924,301,-141,1042,25,-75,3
3925,342,-92,1044,77,-40,3
3926,78,24,1041,63,25,3
3927,-265,118,986,-20,61,10
3928,-394,82,892,-84,39,6
3929,-137,-46,944,-76,-32,-4
3930,243,-133,1017,5,-73,0
3931,372,-100,1055,73,-51,4
3932,141,0,1036,60,13,0
3933,-213,105,988,3,59,7
3934,-390,104,916,-82,47,7
3935,-216,-27,924,-84,-17,-2
3936,191,-126,1017,-15,-72,0
3937,376,-113,1051,62,-61,4
3938,203,-20,1047,72,1,-1
3939,-151,92,1004,14,53,6
3940,-381,120,924,-69,54,10
3941,-272,-2,909,-104,-1,-1
3942,104,-128,988,-34,-64,-3
3943,373,-128,1062,59,-67,2
3944,261,-51,1055,70,-11,0
3945,-93,75,1021,40,49,8
3946,-352,128,938,-64,58,10
3947,-322,20,879,-100,12,0
3948,35,-101,985,-49,-56,-2
3949,360,-144,1039,35,-71,4
3950,307,-69,1054,81,-24,2
3951,-26,63,1042,47,41,7
3952,-325,125,967,-41,61,12
3953,-372,39,878,-106,26,3
3954,-30,-86,952,-55,-44,-2
3955,313,-150,1044,21,-74,1
3956,333,-101,1031,78,-33,3
3957,55,48,1063,73,29,8
3958,-292,128,984,-31,61,12
3959,-384,56,880,-95,37,6
3960,-108,-68,948,-70,-33,-2
3961,262,-148,1019,7,-72,2
3962,366,-115,1038,77,-46,3
3963,120,22,1047,82,17,5
3964,-233,122,997,-2,59,13
3965,-396,92,903,-86,46,8
3966,-184,-37,934,-81,-20,0
3967,203,-141,1014,-9,-69,0
3968,380,-122,1045,71,-55,5
3969,180,-5,1054,85,6,3
3970,-174,108,1005,14,56,9
3971,-386,118,920,-71,53,11
3972,-253,-6,907,-97,-6,0
3973,125,-132,998,-28,-64,0
3974,371,-139,1045,59,-65,2
3975,250,-38,1065,82,-8,3
3976,-110,76,1018,30,48,8
3977,-358,125,917,-58,56,11
3978,-311,27,900,-86,8,1
3979,43,-108,980,-51,-57,-2
3980,365,-139,1036,46,-71,4
3981,306,-53,1064,86,-23,2
3982,-32,58,1035,40,41,4
3983,-329,124,957,-39,60,10
3984,-360,55,895,-96,24,3
3985,-29,-95,945,-66,-45,-2
3986,324,-146,1035,30,-73,4
3987,332,-89,1053,78,-34,2
3988,48,32,1040,63,30,3
3989,-288,138,989,-18,61,11
3990,-383,82,896,-87,35,6
3991,-107,-73,938,-85,-32,-2
3992,262,-150,1017,13,-73,3
3993,370,-107,1055,77,-45,4
3994,118,2,1034,65,20,5
3995,-227,124,999,5,59,11
3996,-394,101,907,-87,45,8
3997,-196,-44,923,-85,-20,-1
3998,200,-141,1018,-8,-70,3
3999,381,-122,1050,67,-56,5
4000,183,-15,1046,80,5,3
4001,-166,107,1009,18,53,9
4002,-386,115,921,-70,53,12
4003,-261,-17,896,-98,-3,2
4004,116,-120,1002,-19,-64,1
4005,379,-136,1060,56,-67,4
4006,251,-51,1043,78,-10,3
4007,-106,90,1033,52,49,7
4008,-352,131,930,-65,58,12
4009,-322,17,870,-94,10,4
4010,36,-96,994,-39,-58,-1
4011,357,-141,1039,43,-72,2
4012,302,-65,1051,87,-22,2
4013,-14,67,1041,51,40,7
4014,-326,127,966,-39,59,10
4015,-373,49,875,-97,25,2
4016,-41,-69,967,-52,-46,-2
4017,311,-132,1029,20,-74,3
4018,343,-92,1043,73,-35,2
4019,64,29,1046,60,30,4
4020,-280,125,990,-24,62,11
4021,-397,72,890,-89,38,5
4022,-122,-56,943,-78,-33,-1
4023,252,-143,1014,3,-74,2
4024,366,-112,1047,75,-48,1
4025,138,13,1049,72,15,3
4026,-219,115,990,-8,61,9
4027,-393,101,904,-85,48,6
4028,-201,-25,933,-84,-17,-2
4029,189,-136,1018,-18,-70,-1
4030,378,-121,1043,67,-57,3
4031,196,-7,1052,79,4,3
4032,-164,97,1003,5,55,8
4033,-384,112,916,-74,55,9
4034,-266,1,908,-98,-4,-1
4035,116,-126,999,-35,-64,-1
4036,378,-144,1046,48,-65,5
4037,255,-47,1062,79,-9,2
4038,-102,74,1025,34,50,8
4039,-354,125,932,-61,57,12
4040,-320,15,877,-97,11,1
4041,33,-121,979,-53,-54,-1
4042,358,-148,1042,47,-71,3
4043,296,-74,1060,84,-23,2
4044,-25,51,1030,51,40,6
4045,-325,135,966,-26,60,12
4046,-362,53,890,-101,22,3
4047,-35,-94,949,-59,-45,-2
4048,313,-136,1028,35,-73,2
4049,340,-81,1058,83,-34,2
4050,47,30,1040,61,30,4
4051,-285,136,981,-15,60,12
4052,-383,77,903,-89,34,6
4053,-114,-64,927,-78,-33,-2
4054,265,-135,1023,18,-70,3
4055,368,-114,1053,61,-46,4
4056,121,9,1033,71,18,2
4057,-227,133,1002,5,60,10
4058,-394,103,908,-90,46,9
4059,-194,-43,926,-94,-20,-1
4060,204,-133,1013,-2,-71,-1
4061,375,-127,1054,59,-57,4
4062,188,-28,1038,78,6,4
4063,-172,106,1008,19,54,11
4064,-392,123,916,-64,53,8
4065,-256,-7,910,-95,-5,0
4066,119,-126,994,-28,-65,2
4067,381,-141,1054,56,-65,4
4068,254,-44,1053,81,-8,2
4069,-106,86,1033,43,48,6
4070,-359,123,924,-64,58,9
4071,-321,27,886,-87,10,1
4072,43,-93,991,-45,-57,0
4073,365,-143,1035,36,-71,4
4074,305,-67,1050,83,-22,2
4075,-27,61,1044,48,40,4
4076,-329,130,962,-39,60,11
4077,-368,62,886,-97,24,3
4078,-36,-70,962,-58,-47,-1
4079,316,-146,1028,13,-75,4
4080,349,-87,1044,79,-35,3
4081,59,38,1055,61,30,2
4082,-286,119,973,-31,64,10
4083,-392,69,902,-91,37,7
4084,-122,-58,939,-78,-33,-2
4085,259,-152,1015,1,-74,0
4086,373,-113,1045,76,-47,3
4087,132,12,1050,70,18,3
4088,-229,109,993,-5,61,9
4089,-392,93,895,-87,47,8
4090,-199,-30,938,-81,-19,0
4091,196,-147,1007,-17,-70,0
4092,378,-129,1057,73,-58,4
4093,189,-17,1046,83,5,2
4094,-170,103,1006,20,55,10
4095,-386,120,919,-66,55,11
4096,-258,-5,904,-101,-3,0
4097,109,-129,994,-23,-63,0
4098,377,-130,1055,61,-66,3
4099,257,-45,1059,79,-8,3
4100,-104,73,1018,36,48,8
4101,-351,139,943,-52,57,12
4102,-320,23,880,-100,11,2
4103,32,-109,977,-49,-56,-2
4104,361,-138,1047,47,-72,5
4105,298,-74,1050,80,-23,2
4106,-24,52,1042,49,39,6
4107,-321,136,959,-31,59,12
4108,-367,52,893,-98,25,4
4109,-37,-89,941,-62,-45,0
4110,310,-135,1043,32,-75,4
4111,337,-92,1036,71,-35,3
4112,58,27,1047,68,29,3
4113,-285,128,984,-19,61,9
4114,-382,78,898,-89,37,8
4115,-125,-65,936,-79,-32,0
4116,259,-140,1018,12,-74,2
4117,368,-107,1054,75,-48,2
4118,132,4,1037,71,17,3
4119,-217,120,998,6,59,11
4120,-390,102,905,-88,46,10
4121,-200,-25,925,-77,-18,0
4122,192,-124,1024,-12,-69,0
4123,375,-128,1044,57,-57,5
4124,196,-22,1046,77,5,2
4125,-163,96,1007,18,55,8
4126,-378,112,917,-71,54,11
4127,-271,1,904,-91,-2,2
4128,102,-114,1001,-25,-63,0
4129,373,-141,1046,46,-67,4
4130,263,-42,1048,84,-10,2
4131,-86,87,1044,40,48,7
4132,-355,121,925,-67,58,9
4133,-323,38,879,-87,12,2
4134,28,-92,987,-54,-53,1
4135,353,-149,1025,33,-71,5
4136,313,-69,1063,81,-23,2
4137,-16,55,1038,47,40,3
4138,-324,123,970,-38,60,10
4139,-377,59,878,-97,25,4
4140,-48,-76,967,-64,-44,-2
4141,305,-155,1013,12,-75,2
4142,346,-89,1050,87,-38,3
4143,70,35,1052,62,27,2
4144,-274,119,976,-26,60,10
4145,-390,78,902,-85,38,5
4146,-127,-60,941,-81,-33,-3
4147,253,-145,1014,6,-73,3
4148,373,-107,1051,74,-49,2
4149,131,1,1050,70,15,1
4150,-222,109,986,-1,58,9
4151,-394,105,913,-80,45,7
4152,-200,-31,928,-86,-18,-2
4153,194,-144,1009,-17,-71,0
4154,376,-127,1052,71,-58,4
4155,198,-21,1053,76,3,2
4156,-165,89,998,17,54,8
4157,-378,119,926,-60,53,10
4158,-260,1,907,-95,-4,1
4159,107,-121,996,-23,-62,-1
4160,379,-135,1052,52,-66,5
4161,261,-46,1051,81,-9,4
4162,-98,76,1031,38,50,8
4163,-356,124,936,-56,58,12
4164,-322,22,882,-96,12,3
4165,30,-106,978,-45,-53,0
4166,356,-150,1040,44,-71,6
4167,304,-75,1053,86,-21,5
4168,-21,56,1039,55,39,5
4169,-320,129,968,-31,61,12
4170,-368,47,883,-98,26,7
4171,-46,-73,950,-50,-44,1
4172,307,-133,1043,25,-74,3
4173,342,-94,1038,77,-37,4
4174,72,35,1042,69,28,5
4175,-276,124,989,-19,62,11
4176,-395,73,894,-87,40,8
4177,-139,-44,940,-74,-32,0
4178,245,-123,1022,14,-74,2
4179,379,-112,1048,63,-49,3
4180,147,-5,1036,72,15,2
4181,-202,114,1005,3,59,9
4182,-406,105,895,-82,50,7
4183,-218,-9,935,-79,-17,0
4184,175,-127,1013,-24,-71,0
4185,374,-136,1053,60,-62,2
4186,214,-25,1045,80,-1,1
4187,-139,88,1014,13,52,6
4188,-386,113,902,-66,57,9
4189,-279,22,917,-88,-1,0
4190,90,-118,999,-40,-64,-1
4191,375,-150,1037,45,-68,4
4192,285,-48,1057,85,-15,2
4193,-73,74,1041,37,48,6
4194,-355,118,929,-58,61,10
4195,-338,38,887,-90,16,3
4196,16,-92,981,-57,-53,0
4197,353,-149,1026,33,-71,4
4198,318,-75,1058,84,-25,4
4199,0,46,1042,47,39,4
4200,-323,115,972,-33,62,9
4201,-378,58,880,-93,28,4
4202,-54,-72,961,-61,-44,1
4203,302,-145,1017,16,-74,3
4204,354,-90,1048,86,-39,3
4205,74,23,1051,58,28,4
4206,-274,120,976,-18,61,10
4207,-387,96,906,-80,39,6
4208,-139,-52,948,-89,-29,-1
4209,244,-155,1002,-1,-72,4
4210,374,-106,1055,76,-49,4
4211,144,2,1044,68,16,3
4212,-210,106,990,0,60,10
4213,-400,109,914,-75,49,9
4214,-213,-21,921,-90,-14,0
4215,176,-136,1013,-22,-69,0
4216,376,-125,1058,68,-61,3
4217,211,-27,1055,72,1,2
4218,-155,81,993,17,55,9
4219,-377,111,930,-61,56,11
4220,-286,-3,894,-101,1,1
4221,94,-130,996,-25,-64,-1
4222,375,-136,1048,56,-69,5
4223,268,-47,1055,87,-13,1
4224,-78,84,1034,45,47,6
4225,-345,138,941,-55,59,12
4226,-334,28,879,-102,15,2
4227,15,-93,964,-46,-53,-3
4228,352,-136,1054,43,-72,3
4229,309,-82,1055,73,-25,5
4230,-3,40,1030,53,38,7
4231,-315,128,983,-25,61,10
4232,-381,61,871,-98,28,3
4233,-61,-64,956,-58,-43,-3
4234,298,-125,1038,19,-75,2
4235,352,-91,1038,73,-40,2
4236,89,34,1048,60,25,4
4237,-270,127,990,-21,62,9
4238,-394,75,896,-93,41,5
4239,-146,-53,941,-81,-30,-1
4240,244,-147,1016,-1,-73,3
4241,371,-125,1039,65,-51,2
4242,145,8,1048,83,12,-1
4243,-204,121,999,1,58,7
4244,-399,104,910,-85,49,6
4245,-212,-22,919,-88,-16,-2
4246,179,-141,1015,-28,-69,-1
4247,372,-137,1041,64,-58,2
4248,205,-22,1062,82,0,-1
4249,-154,85,1003,16,53,8
4250,-371,112,920,-64,54,10
4251,-274,9,898,-91,0,-1
4252,102,-107,1006,-27,-63,-2
4253,368,-139,1037,41,-68,2
4254,270,-46,1055,88,-13,1
4255,-79,77,1044,37,47,7
4256,-349,117,924,-56,60,11
4257,-328,32,890,-90,15,2
4258,12,-103,973,-56,-53,-1
4259,351,-151,1032,37,-71,4
4260,307,-69,1059,84,-26,2
4261,0,57,1042,54,36,5
4262,-315,126,968,-38,61,12
4263,-370,59,893,-94,29,4
4264,-52,-83,949,-66,-41,-1
4265,295,-156,1022,17,-72,5
4266,343,-103,1045,83,-38,4
4267,69,29,1042,69,25,3
4268,-267,131,990,-11,58,10
4269,-385,85,903,-88,38,7
4270,-133,-54,936,-77,-29,-1
4271,244,-141,1017,5,-72,2
4272,370,-113,1053,73,-49,2
4273,144,2,1033,76,14,2
4274,-203,116,1001,9,57,10
4275,-392,106,907,-82,48,9
4276,-216,-23,923,-81,-14,-1
4277,169,-136,1017,-23,-68,0
4278,376,-129,1051,66,-60,6
4279,213,-27,1050,74,1,5
4280,-145,88,1005,27,52,7
4281,-372,121,923,-65,55,11
4282,-277,6,901,-93,1,1
4283,89,-113,995,-30,-60,0
4284,367,-141,1044,45,-67,4
4285,277,-52,1049,84,-12,4
4286,-72,75,1043,41,47,7
4287,-345,114,931,-55,59,11
4288,-336,28,890,-90,16,7
4289,2,-88,962,-48,-51,2
4290,345,-136,1046,42,-72,6
4291,313,-80,1048,74,-26,4
4292,16,50,1046,62,35,6
4293,-315,129,974,-27,61,11
4294,-382,58,886,-98,29,6
4295,-69,-68,945,-62,-41,2
4296,288,-141,1037,17,-74,3
4297,348,-109,1030,76,-39,2
4298,96,32,1054,73,23,4
4299,-257,123,986,-17,61,9
4300,-396,79,894,-86,43,6
4301,-163,-39,939,-75,-28,-1
4302,228,-123,1021,3,-74,2
4303,373,-116,1042,61,-54,3
4304,163,-3,1040,77,10,2
4305,-187,109,1003,6,58,7
4306,-402,103,906,-82,51,5
4307,-228,-10,923,-83,-12,-4
4308,161,-120,1018,-23,-69,0
4309,373,-132,1048,59,-61,3
4310,226,-30,1053,74,-2,-1
4311,-134,92,1015,26,50,6
4312,-370,122,913,-70,56,8
4313,-284,13,906,-95,3,-1
4314,76,-113,994,-43,-61,0
4315,370,-145,1041,44,-70,1
4316,282,-58,1061,82,-16,2
4317,-63,63,1034,33,45,7
4318,-339,124,941,-48,60,10
4319,-336,40,890,-93,17,3
4320,1,-100,961,-66,-50,0
4321,337,-150,1035,36,-70,5
4322,317,-79,1058,79,-27,3
4323,10,36,1042,54,36,6
4324,-308,122,967,-30,61,12
4325,-375,56,892,-94,31,7
4326,-73,-81,947,-63,-40,-1
4327,288,-149,1022,19,-73,4
4328,355,-100,1052,86,-40,6
4329,89,19,1040,64,25,6
4330,-262,119,984,-7,62,11
4331,-387,85,908,-81,42,9
4332,-154,-50,930,-80,-26,1
4333,230,-137,1014,13,-71,3
4334,376,-112,1055,68,-52,6
4335,155,-2,1039,80,12,4
4336,-187,120,1008,14,56,9
4337,-393,118,905,-75,51,10
4338,-234,-7,920,-89,-11,2
4339,150,-116,1013,-18,-68,0
4340,373,-124,1060,57,-63,3
4341,232,-35,1047,71,-3,2
4342,-125,91,1009,30,52,8
4343,-370,125,927,-68,57,9
4344,-300,12,893,-100,6,1
4345,66,-100,993,-37,-61,1
4346,367,-140,1052,36,-71,3
4347,288,-67,1044,78,-17,2
4348,-52,75,1041,44,45,5
4349,-336,127,952,-52,59,9
4350,-352,32,874,-107,20,4
4351,-16,-91,961,-53,-50,-2
4352,339,-143,1050,32,-74,3
4353,321,-82,1041,76,-31,2
4354,34,47,1051,62,34,4
4355,-302,123,979,-37,62,11
4356,-385,60,883,-93,32,5
4357,-92,-75,944,-69,-37,-2
4358,287,-151,1028,11,-74,3
4359,358,-109,1035,80,-43,3
4360,101,27,1052,75,22,3
4361,-244,125,992,-9,59,11
4362,-393,86,900,-87,44,8
4363,-165,-38,930,-80,-24,-1
4364,225,-137,1027,-3,-71,1
4365,371,-126,1030,61,-53,3
4366,168,-2,1054,87,10,3
4367,-189,109,1010,6,56,9
4368,-393,110,901,-75,51,9
4369,-235,-9,920,-88,-11,0
4370,146,-131,1009,-26,-69,1
4371,378,-143,1047,60,-62,5
4372,233,-32,1058,82,-4,3
4373,-124,95,1012,32,51,8
4374,-369,127,922,-64,57,10
4375,-298,12,897,-99,5,2
4376,62,-116,991,-37,-58,-1
4377,369,-140,1040,47,-70,3
4378,290,-58,1059,85,-18,3
4379,-55,61,1030,38,44,5
4380,-335,133,952,-36,58,10
4381,-349,51,885,-98,19,4
4382,-13,-89,960,-60,-50,-1
4383,335,-133,1030,35,-72,3
4384,330,-74,1068,75,-31,2
4385,29,32,1040,50,35,3
4386,-306,126,971,-25,63,10
4387,-381,77,892,-92,33,5
4388,-94,-68,944,-72,-38,-3
4389,278,-148,1024,6,-74,1
4390,363,-103,1048,84,-42,4
4391,104,19,1041,63,24,3
4392,-243,125,1000,-6,60,9
4393,-392,84,897,-102,44,6
4394,-175,-47,926,-74,-24,-3
4395,223,-139,1026,-9,-72,-1
4396,373,-128,1042,64,-52,4
4397,170,-15,1041,75,8,3
4398,-181,118,1007,17,58,9
4399,-396,118,917,-77,52,9
4400,-244,-28,908,-101,-9,0
4401,143,-136,997,-23,-67,0
4402,381,-135,1068,65,-65,3
4403,233,-43,1048,74,-4,4
4404,-127,83,1015,34,51,8
4405,-369,127,925,-62,56,10
4406,-302,10,880,-95,5,0
4407,62,-113,999,-35,-58,-1
4408,365,-150,1046,47,-70,3
4409,293,-66,1048,88,-20,2
4410,-47,76,1047,51,42,7
4411,-335,128,946,-43,59,11
4412,-355,44,877,-93,22,3
4413,-15,-76,970,-49,-49,0
4414,332,-142,1037,29,-73,4
4415,327,-83,1039,76,-31,2
4416,37,54,1064,70,31,4
4417,-300,122,976,-37,61,10
4418,-392,54,880,-94,34,6
4419,-90,-60,948,-64,-38,0
4420,274,-141,1029,6,-75,1
4421,359,-112,1033,77,-45,2
4422,116,26,1058,72,19,4
4423,-241,125,982,-8,61,11
4424,-392,96,907,-86,44,5
4425,-182,-36,932,-85,-23,-1
4426,216,-141,1026,-8,-72,0
4427,373,-132,1031,64,-56,2
4428,179,-8,1051,83,6,1
4429,-178,104,1003,11,55,7
4430,-391,116,910,-70,52,10
4431,-246,-2,913,-89,-7,0
4432,139,-127,1009,-28,-66,1
4433,380,-135,1047,58,-63,4
4434,244,-38,1064,78,-6,1
4435,-117,79,1013,32,51,6
4436,-360,129,918,-59,58,11
4437,-311,17,889,-96,8,2
4438,46,-118,986,-47,-58,-1
4439,365,-142,1041,49,-72,3
4440,297,-59,1059,85,-22,3
4441,-35,58,1038,41,44,6
4442,-329,125,956,-37,61,12
4443,-364,46,886,-100,23,4
4444,-30,-85,952,-55,-48,-1
4445,320,-138,1032,32,-75,2
4446,336,-84,1057,78,-33,3
4447,44,34,1041,61,31,4
4448,-287,139,984,-19,61,9
4449,-386,77,898,-92,36,5
4450,-107,-70,931,-80,-34,-2
4451,272,-142,1026,11,-73,2
4452,362,-105,1048,75,-46,3
4453,122,7,1039,65,20,1
4454,-233,120,993,0,60,10
4455,-394,99,910,-89,45,6
4456,-191,-31,920,-82,-20,-1
4457,208,-128,1031,-9,-72,2
4458,375,-128,1036,60,-55,3
4459,188,-22,1048,75,8,3
4460,-169,99,1005,11,56,10
4461,-386,111,926,-73,54,10
4462,-261,-13,893,-96,-5,1
4463,126,-121,1012,-18,-64,3
4464,373,-144,1055,49,-64,6
4465,250,-44,1043,81,-7,4
4466,-103,88,1041,42,49,8
4467,-354,116,913,-67,59,13
4468,-320,14,882,-89,12,4
4469,35,-104,991,-42,-56,0
4470,359,-145,1043,42,-71,5
4471,304,-64,1045,84,-22,4
4472,-22,65,1051,52,41,6
4473,-327,122,953,-40,61,12
4474,-365,55,881,-95,26,7
4475,-40,-67,963,-54,-45,2
