sequence,AccelerometerX,AccelerometerY,AccelerometerZ,GyroscopeX,GyroscopeY,GyroscopeZ
0,-31,92,990,16,58,0
1,-382,53,923,-34,47,0
2,-415,-9,897,-28,-18,2
3,-62,-63,1039,-18,-73,-4
4,349,-137,1081,-2,-61,1
5,402,-87,985,13,-7,11
6,156,83,1005,57,46,11
7,-208,128,1009,-9,59,2
8,-457,-20,835,-74,23,1
9,-267,-23,980,20,-52,0
10,175,-58,1118,-18,-80,-4
11,417,-150,999,-15,-31,9
12,306,-2,1014,47,24,14
13,-40,106,995,16,60,3
14,-381,17,899,-52,45,0
15,-406,-10,890,-8,-20,2
16,-47,-29,1077,-3,-74,-3
17,351,-136,1047,-20,-61,2
18,391,-52,1016,35,-2,14
19,135,91,1008,34,46,7
20,-207,73,947,-31,60,-3
21,-450,3,880,-38,20,1
22,-254,-13,998,-3,-52,1
23,179,-107,1074,-27,-76,-3
24,405,-123,1017,13,-30,9
25,294,22,1015,42,24,17
26,-52,87,986,4,59,2
27,-377,29,904,-38,44,-3
28,-386,5,913,-14,-21,2
29,-24,-49,1059,-18,-73,-3
30,350,-129,1047,-10,-56,1
31,382,-40,1023,32,3,16
32,111,80,1003,22,49,10
33,-229,59,942,-33,57,-3
34,-442,4,879,-31,14,0
35,-231,-29,1003,-13,-54,-1
36,209,-123,1061,-23,-74,-2
37,417,-103,1032,21,-27,7
38,283,29,1015,35,29,14
39,-77,87,979,-1,64,3
40,-401,38,902,-35,42,-1
41,-389,0,916,-20,-25,2
42,-7,-76,1051,-23,-76,-4
43,371,-135,1049,-2,-57,1
44,396,-38,1035,33,2,14
45,106,70,995,22,52,10
46,-256,70,941,-24,61,-1
47,-465,21,886,-30,11,0
48,-238,-36,996,-18,-58,-3
49,217,-119,1063,-15,-77,-4
50,433,-94,1041,21,-29,9
51,289,26,1007,27,30,16
52,-78,94,980,6,65,2
53,-411,48,909,-36,42,0
54,-392,-9,906,-27,-23,2
55,-12,-69,1053,-15,-77,-4
56,376,-128,1054,-2,-57,1
57,397,-48,1021,27,2,16
58,103,78,999,30,53,11
59,-253,73,949,-27,60,2
60,-459,3,882,-33,12,2
61,-235,-41,997,-14,-58,-2
62,227,-112,1063,-10,-77,-4
63,430,-98,1033,16,-27,9
64,282,28,1003,36,31,15
65,-80,99,988,5,64,3
66,-410,40,906,-41,42,1
67,-387,-14,917,-23,-25,0
68,2,-73,1053,-14,-78,-4
69,378,-127,1051,-1,-55,2
70,392,-43,1014,27,3,16
71,96,83,1002,30,54,10
72,-262,69,950,-29,59,0
73,-457,2,881,-32,11,3
74,-229,-28,1007,-10,-60,-2
75,238,-117,1064,-20,-77,-3
76,430,-102,1027,16,-25,10
77,271,38,1000,38,32,13
78,-90,94,988,-2,63,1
79,-419,33,895,-38,41,0
80,-381,-9,925,-20,-27,1
81,14,-74,1062,-17,-78,-5
82,385,-134,1044,-4,-54,2
83,387,-37,1016,33,5,15
84,91,86,1004,25,55,8
85,-275,68,940,-30,58,-1
86,-460,10,887,-29,9,1
87,-215,-35,1014,-16,-60,-1
88,246,-124,1060,-20,-76,-3
89,431,-96,1029,21,-24,9
90,270,41,1008,36,32,15
91,-103,90,980,-5,64,3
92,-421,35,887,-39,40,0
93,-375,-5,933,-18,-29,2
94,26,-81,1055,-22,-79,-3
95,393,-134,1047,0,-55,3
96,388,-27,1021,33,6,15
97,84,80,996,21,56,9
98,-283,65,938,-25,58,-2
99,-455,14,890,-28,8,2
100,-206,-43,1013,-20,-61,-1
101,255,-125,1057,-13,-76,-3
102,431,-89,1035,24,-23,9
103,263,37,1003,31,35,14
104,-115,90,980,-3,64,1
105,-428,40,889,-35,39,0
106,-369,-12,933,-21,-31,0
107,32,-89,1053,-19,-78,-3
108,394,-126,1057,4,-52,3
109,383,-25,1020,30,7,17
110,75,77,992,21,56,8
111,-295,74,938,-23,58,-1
112,-455,9,889,-33,6,3
113,-198,-51,1013,-19,-63,-2
114,263,-121,1058,-10,-74,-3
115,436,-87,1039,21,-22,11
116,251,36,1002,31,36,15
117,-119,92,977,-2,64,1
118,-434,39,896,-35,38,1
119,-361,-19,928,-25,-32,1
120,44,-89,1056,-14,-78,-4
121,402,-124,1065,5,-52,2
122,381,-31,1009,27,9,15
123,66,86,1000,25,56,6
124,-300,72,933,-26,57,-1
125,-455,3,884,-34,4,3
126,-192,-49,1010,-15,-64,-2
127,271,-113,1071,-10,-75,-4
128,436,-94,1032,16,-22,10
129,248,38,997,36,38,14
130,-126,98,984,-1,64,2
131,-440,31,880,-41,38,0
132,-356,-19,932,-18,-34,-1
133,55,-82,1064,-10,-80,-4
134,405,-127,1059,-2,-49,3
135,374,-30,1008,30,10,15
136,61,93,1008,27,56,7
137,-311,67,923,-33,58,-1
138,-458,3,886,-30,4,0
139,-184,-43,1010,-13,-66,-3
140,283,-124,1075,-14,-73,-3
141,434,-97,1023,20,-20,11
142,241,51,1011,42,37,13
143,-135,94,978,-10,63,1
144,-447,27,872,-36,37,1
145,-353,-6,945,-17,-37,1
146,63,-86,1062,-18,-80,-4
147,410,-131,1054,0,-50,4
148,374,-16,1014,36,11,17
149,59,90,1006,18,57,6
150,-321,57,919,-34,58,-2
151,-456,7,892,-23,1,2
152,-173,-43,1017,-15,-66,-2
153,291,-134,1063,-16,-72,-3
154,434,-85,1029,26,-18,11
155,222,18,1078,33,38,14
156,-145,0,796,-25,65,8
157,-412,115,973,61,37,-5
158,-325,77,965,-45,-38,1
159,73,-106,1074,-36,-78,2
160,387,-146,955,4,-41,-3
161,362,40,1116,41,1,14
162,67,2,919,-31,57,13
163,-323,56,934,1,60,-6
164,-444,1,946,-31,-3,-3
165,-161,-74,966,-17,-63,4
166,267,-98,1057,8,-69,1
167,434,-63,1058,26,-23,11
168,218,33,980,17,37,13
169,-132,102,993,15,61,-7
170,-410,45,901,-45,33,-2
171,-334,-19,912,-28,-33,6
172,60,-47,1114,-3,-74,-5
173,395,-122,999,-24,-44,2
174,348,-41,1023,26,12,18
175,36,55,995,18,57,6
176,-320,38,920,-25,55,-1
177,-441,8,893,-21,-2,1
178,-141,-15,1037,-6,-68,-3
179,300,-104,1056,-17,-68,0
180,415,-81,1057,16,-15,12
181,206,-75,932,-6,46,9
182,-156,125,1017,81,57,-2
183,-447,137,881,-47,33,5
184,-320,9,976,-37,-42,0
185,84,-99,1020,-36,-74,-5
186,416,-80,1103,15,-45,7
187,362,-61,998,-17,14,19
188,27,39,968,26,63,6
189,-358,40,943,-28,54,2
190,-459,-37,864,-33,-7,2
191,-147,-55,1019,6,-72,-4
192,325,-100,1075,5,-74,-2
193,438,-59,1039,25,-16,13
194,213,78,1004,38,41,11
195,-142,138,985,-6,61,-3
196,-451,33,874,-60,35,1
197,-329,-21,939,-24,-39,3
198,91,-109,1071,-27,-77,-4
199,413,-165,1036,-5,-43,4
200,356,-38,1010,39,16,17
201,18,83,1006,25,57,8
202,-358,51,910,-28,52,2
203,-444,11,897,-18,-11,0
204,-126,-26,1030,-6,-72,-4
205,334,-113,1065,-16,-71,-1
206,435,-64,1028,24,-12,12
207,208,73,1022,28,45,12
208,-168,80,966,-26,64,0
209,-470,14,866,-39,31,1
210,-328,-23,955,-16,-44,0
211,106,-122,1059,-23,-79,-5
212,425,-138,1042,16,-44,4
213,358,1,1026,42,17,16
214,22,98,999,16,58,6
215,-356,70,915,-28,54,-2
216,-446,29,902,-25,-8,1
217,-128,-44,1023,-25,-70,-1
218,323,-136,1055,-16,-68,-1
219,431,-73,1032,27,-11,12
220,200,45,1017,22,44,14
221,-177,72,956,-14,63,1
222,-468,25,880,-33,28,0
223,-316,-29,953,-18,-47,0
224,115,-106,1057,-13,-79,-5
225,429,-111,1050,16,-43,6
226,355,8,1020,33,18,16
227,20,97,996,9,60,4
228,-359,65,925,-30,54,-3
229,-442,5,897,-35,-9,2
230,-123,-65,1021,-20,-68,-3
231,326,-138,1054,-9,-68,-3
232,435,-78,1031,25,-11,13
233,188,47,1013,30,44,12
234,-184,85,960,-10,61,-1
235,-461,29,887,-33,25,2
236,-309,-22,950,-19,-47,0
237,129,-90,1068,-13,-79,-5
238,430,-110,1049,9,-41,6
239,347,-5,1006,29,21,16
240,7,97,1000,15,60,3
241,-369,57,925,-38,53,0
242,-443,-14,889,-35,-11,2
243,-114,-62,1026,-9,-70,-4
244,334,-123,1062,-5,-68,-2
245,432,-79,1024,22,-8,13
246,183,58,1012,36,46,12
247,-188,99,971,-12,62,-1
248,-464,23,878,-42,25,1
249,-308,-18,956,-13,-48,0
250,136,-93,1073,-16,-79,-4
251,425,-127,1037,2,-39,6
252,340,-9,1011,34,22,15
253,-4,92,1004,13,60,5
254,-377,41,913,-39,51,1
255,-441,-1,891,-21,-13,1
256,-99,-51,1036,-11,-72,-4
257,342,-130,1051,-11,-67,0
258,424,-94,1096,30,-7,13
259,180,-3,880,23,46,6
260,-199,134,1003,38,66,0
261,-489,22,932,-70,25,1
262,-245,67,946,40,-57,4
263,73,-71,1070,-65,-74,-10
264,463,-159,954,10,-44,-1
265,343,-2,1003,31,19,34
266,-38,179,1046,46,66,2
267,-321,-47,892,-124,42,-9
268,-447,-78,880,23,-2,2
269,-90,9,1060,1,-75,7
270,338,-156,1044,-25,-64,-5
271,391,-67,1027,45,-3,8
272,152,71,1017,34,39,12
273,-190,85,975,-14,58,-4
274,-430,17,838,-37,20,-2
275,-257,1,1012,-4,-48,2
276,153,-120,1066,-32,-73,-4
277,400,-123,1030,21,-33,4
278,305,-1,1018,34,23,15
279,-29,58,958,7,60,3
280,-386,42,923,-16,46,-6
281,-403,5,917,-15,-19,-1
282,-51,-52,1044,-4,-72,0
283,330,-122,1053,2,-62,1
284,371,-86,1033,28,-7,16
285,119,19,965,42,36,3
286,-176,98,954,20,50,-22
287,-379,62,904,-23,18,-15
288,-229,65,959,7,-45,9
289,79,232,1156,41,-75,28
290,332,-347,685,-161,12,32
291,300,-202,661,226,49,-9
292,58,338,779,65,38,9
293,-238,-283,310,-227,105,60
294,-114,173,892,286,-25,-27
295,89,-32,483,-196,-26,-181
296,102,53,28,216,-23,22
297,123,-34,226,-183,-8,53
298,-170,346,803,177,34,15
299,-109,29,530,-218,-32,39
300,-207,-242,677,-133,3,-4
301,51,-230,770,17,-64,-5
302,264,-86,549,1,-29,19
303,291,121,910,-133,-40,-3
304,227,-322,698,-308,45,10
305,-110,340,444,515,26,22
306,-381,846,926,69,-9,-34
307,-122,-109,284,-422,-64,-103
308,103,-388,873,10,-65,28
309,372,263,616,163,-17,73
310,302,413,1563,2,-41,62
311,137,-223,248,-319,107,-36
312,-171,-105,1170,77,56,-13
313,-537,-121,927,-94,13,54
314,-261,-415,652,-127,-44,-15
315,111,-248,528,158,-74,-53
316,391,-57,679,124,-60,-1
317,185,106,456,86,26,87
318,-120,621,1053,240,6,1
319,-183,118,659,-294,23,-76
320,-100,0,858,51,-10,-6
321,27,194,1031,-83,-38,54
322,246,-66,1158,-108,-14,40
323,320,-287,795,-121,28,-14
324,-41,-78,1119,52,53,3
325,-295,-236,815,-107,47,36
326,-449,-179,867,58,-10,10
327,-226,-73,1047,75,-72,-19
328,301,-87,1046,46,-83,0
329,372,48,1067,105,-35,17
330,268,216,1023,69,8,12
331,-13,179,894,-38,42,-22
332,-256,131,796,-41,49,-32
333,-283,185,950,-40,0,12
334,-100,-69,1075,-151,-63,14
335,378,-412,495,-50,-14,-44
336,109,100,1001,118,3,39
337,115,76,948,-21,25,53
338,-239,-120,713,-100,56,-2
339,-482,28,1063,87,-2,-28
340,-45,-116,876,-72,-68,7
341,194,-111,1048,45,-62,21
342,409,21,1069,64,-20,0
343,257,60,1012,-8,34,11
344,-140,144,996,30,67,-8
345,-364,100,904,-62,28,-2
346,-378,-328,876,-140,-53,11
347,-23,-164,151,-26,-139,-61
348,256,464,1236,209,-174,-54
349,483,43,971,-103,-22,17
350,176,67,599,-10,39,19
351,-158,454,1217,129,57,-45
352,-175,58,765,-281,42,-3
353,-293,-208,980,-93,-1,22
354,27,-36,1095,8,-50,-17
355,308,-263,1041,-114,-9,-2
356,157,-311,810,-14,22,30
357,-93,15,1046,120,36,12
358,-392,-49,957,-28,25,-3
359,-307,-53,857,50,-44,-15
360,92,110,1103,89,-83,3
361,307,-372,867,-66,-35,9
362,289,-207,218,188,11,-4
363,19,763,1334,315,18,-16
364,-117,188,856,-222,53,-22
365,-198,145,610,-40,5,-7
366,-199,337,1201,-8,-10,-6
367,252,-226,871,-302,-39,20
368,327,-314,866,-20,0,30
369,22,-199,1146,-5,63,-5
370,-119,-545,349,-94,74,22
371,-469,30,1031,299,30,30
372,-360,205,1006,30,-56,-2
373,91,-259,920,-55,-95,-16
374,278,54,1020,213,-65,-6
375,425,305,1236,79,-34,14
376,178,-15,811,-69,51,13
377,-143,315,907,119,58,-21
378,-235,182,912,-148,44,-19
379,-163,41,1141,-64,-11,1
380,79,-126,834,-182,-41,13
381,270,-120,1169,30,-5,11
382,136,-239,957,-128,30,13
383,-135,-195,833,31,43,7
384,-386,-16,979,40,18,4
385,-283,-62,898,10,-42,-8
386,27,-294,727,38,-38,22
387,337,-98,867,198,-33,21
388,315,375,1205,217,-8,-14
389,66,56,517,-205,8,-6
390,-169,188,790,78,47,-23
391,-215,160,797,-100,8,-13
392,104,24,633,-118,-11,-50
393,73,-102,757,-16,-6,-73
394,296,15,218,-76,-14,48
395,-175,71,1189,-30,47,-2
396,-155,-20,384,-87,-2,43
397,-277,-25,716,-29,12,59
398,-281,-162,251,-290,-89,-90
399,357,-124,472,352,-83,52
400,141,593,725,163,-11,27
401,240,40,276,-247,-30,-44
402,139,-212,226,-96,42,-51
403,-268,480,474,148,35,-42
404,-384,447,1108,-16,-23,9
405,-58,-397,341,-408,-17,7
406,118,-32,1024,230,-63,4
407,380,175,479,-283,-37,-24
408,320,-255,379,-292,50,-17
409,13,313,-70,490,39,17
410,-384,806,914,93,-19,36
411,-197,-525,14,-510,-11,-11
412,46,113,756,311,-99,24
413,324,329,595,-8,-45,-37
414,549,-366,441,-246,1,19
415,-22,43,561,149,94,32
416,-312,246,1016,-9,50,-6
417,-483,-348,655,-240,8,15
418,-318,-357,773,122,-59,-7
419,314,-45,401,222,-57,-2
420,418,46,844,52,-20,0
421,318,8,510,77,15,20
422,-121,412,754,126,98,-18
423,-312,363,1186,-7,55,-36
424,-189,-116,376,-288,-52,47
425,-199,91,1057,115,-16,-15
426,429,-325,773,-226,-61,-18
427,307,-251,1012,61,12,22
428,10,-86,950,8,60,15
429,-223,-51,945,34,40,15
430,-502,-343,769,-96,-24,-20
431,171,-186,114,170,-35,-111
432,74,386,1055,351,-64,-3
433,328,439,958,-12,-41,46
434,280,220,567,-141,15,-8
435,-111,541,1262,114,53,-71
436,-30,-153,584,-440,38,20
437,-336,-345,869,-39,4,49
438,-103,-248,1086,-32,-30,-38
439,310,-523,959,-61,-31,-10
440,145,-188,920,145,10,23
441,45,-179,842,74,29,20
442,-289,13,494,153,52,14
443,-396,643,1075,248,-33,4
444,1,434,1194,-65,-83,10
445,346,64,813,-166,-42,-8
446,374,161,1275,28,11,-2
447,298,-58,937,-211,40,27
448,-205,-234,928,-90,98,19
449,-468,-182,875,-41,39,12
450,-405,-377,768,-72,-34,16
451,-49,-352,1020,80,-81,1
452,354,-361,781,6,-116,5
453,295,181,970,243,-23,4
454,183,641,1040,147,29,-28
455,-184,240,881,-84,59,-4
456,-281,198,760,-39,41,15
457,-160,-10,1044,-100,-25,18
458,188,-114,922,-8,-43,10
459,285,-129,1117,-66,3,-9
460,193,-295,884,-48,33,16
461,-167,-64,1010,58,45,29
462,-454,-62,839,0,26,10
463,-262,-110,960,24,-52,-1
464,85,-12,997,83,-80,5
465,419,113,1186,76,-47,3
466,359,91,990,-10,15,17
467,26,211,1029,26,58,13
468,-105,234,877,-72,61,-22
469,-430,-96,772,-119,24,-16
470,-253,-211,521,-107,-49,45
471,104,-147,1112,63,-61,-24
472,460,-246,851,-15,-36,-6
473,232,-29,1056,77,30,24
474,-134,111,962,62,61,-1
475,-317,163,933,11,15,-11
476,-301,22,875,-49,-21,-1
477,60,-41,1044,-13,-62,2
478,343,69,1057,31,-46,1
479,341,34,1135,-34,21,-8
480,-3,-66,853,-70,64,29
481,-272,80,964,29,35,8
482,-397,-96,965,-95,5,-4
483,-149,-241,868,-44,-55,10
484,260,-76,1123,96,-74,-11
485,420,-5,1090,35,-8,-4
486,202,28,979,-3,50,23
487,-199,130,949,38,51,7
488,-434,59,987,-48,18,1
489,-339,-137,855,-68,-43,26
490,-2,160,983,112,-98,34
491,423,-4,860,-136,-90,-16
492,228,-247,449,-142,37,-53
493,190,378,410,353,15,52
494,-488,660,1138,-10,62,57
495,-166,-72,155,-400,51,-9
496,0,-228,605,312,-54,63
497,172,678,1011,261,-65,5
498,469,-108,857,-342,-24,-15
499,295,-339,388,-31,68,19
500,-81,494,993,235,62,11
501,-221,-194,303,52,415,168
502,-149,-484,-229,143,-34,81
503,-137,737,733,725,-11,-17
504,36,-258,533,-567,46,-44
505,786,-243,177,381,-55,94
506,-526,1008,1210,304,138,-23
507,33,-154,616,-426,3,-46
508,-148,-315,396,-91,-21,91
509,-555,308,1410,173,-10,1
510,591,-663,825,-375,-110,-13
511,75,-163,967,278,34,11
512,245,198,1142,64,6,-17
513,0,-47,948,-46,41,54
514,-554,158,789,53,49,36
515,-255,62,1034,-30,-57,-14
516,36,-253,955,-53,-74,-1
517,234,-215,260,134,-41,-26
518,268,277,786,242,51,-49
519,-262,149,865,-223,83,52
520,-224,-182,115,-99,55,28
521,-556,340,1224,142,-21,0
522,-126,-309,485,-267,-51,-4
523,336,-322,883,55,-82,29
524,316,106,1089,131,-19,-14
525,406,-62,964,-78,36,5
526,-259,92,916,50,78,21
527,-390,246,969,32,23,21
528,-361,-110,898,-160,-36,8
529,8,-168,986,32,-73,-18
530,360,-230,858,-31,-71,-10
531,401,-37,468,152,71,21
532,84,395,1067,165,30,21
533,-315,367,945,-41,78,19
534,-492,26,818,-165,-3,-8
535,-225,-53,984,-20,-69,-8
536,375,-119,1115,-50,-77,2
537,453,-332,937,-90,-17,7
538,268,-143,1043,89,54,2
539,-179,43,973,22,77,20
540,-497,58,874,14,30,22
541,-400,12,864,-14,-41,4
542,28,-2,1126,36,-88,-11
543,454,-19,1074,8,-70,-9
544,470,48,1038,20,13,1
545,151,-364,604,-157,45,9
546,-317,252,720,278,69,20
547,-565,303,903,-147,0,5
548,-151,-94,771,-65,-68,9
549,160,20,1010,-11,-73,-18
550,530,-108,965,-33,-35,-11
551,401,-180,924,-75,37,31
552,-282,-292,743,24,113,36
553,-293,7,779,147,28,21
554,-286,147,821,68,-30,-26
555,-96,23,756,-36,-71,-23
556,522,-61,587,48,-99,11
557,382,196,782,78,31,12
558,24,192,1084,-68,53,-14
559,-155,-125,618,-129,49,42
560,-622,120,1066,78,29,-8
561,-178,-233,922,-157,-75,-16
562,271,-284,989,44,-83,14
563,420,106,1091,136,-25,13
564,381,204,1061,18,29,12
565,-142,-486,226,-338,81,-8
566,-476,274,798,387,-5,10
567,-320,285,642,-114,-33,49
568,-261,-255,315,-266,-76,57
569,615,-136,847,334,-34,9
570,210,90,492,36,-33,49
571,146,202,796,-117,-11,-15
572,25,53,380,-455,8,-65
573,-208,201,395,363,24,31
574,-426,665,911,-134,-22,68
575,-113,43,672,-444,-94,-59
576,463,75,386,270,135,107
577,98,726,311,519,63,57
578,-5,368,807,-204,45,-11
579,-182,-410,42,-298,31,5
580,-386,204,994,270,-23,44
581,59,68,857,-194,-36,-37
582,482,-534,274,-360,-70,1
583,-86,-35,22,534,76,30
584,182,980,664,383,1,68
585,-366,133,620,-464,26,-37
586,-185,-289,41,-134,15,8
587,-161,423,854,223,-70,15
588,267,-195,587,-332,-65,-12
589,485,-261,781,-70,21,10
590,-16,-431,876,-54,52,29
591,89,-186,182,149,37,-2
592,-829,315,1266,136,80,-3
593,-199,-457,527,-254,-102,48
594,196,-19,760,323,-86,11
595,11,434,1235,96,-22,-64
596,720,-198,697,-138,-66,26
597,107,216,732,147,74,38
598,-299,607,1320,73,80,-14
599,-243,-255,744,-418,6,19
600,-428,-45,952,122,-17,-17
601,193,-11,1195,-74,-86,-31
602,488,-460,868,-157,-22,37
603,226,-159,911,114,39,22
604,-119,59,1140,70,61,-16
605,-462,-64,853,-42,38,5
606,-388,97,824,95,-42,8
607,80,176,1201,35,-92,3
608,436,-60,1002,-76,-53,4
609,413,41,1060,43,16,-11
610,161,-109,782,-95,63,-18
611,-55,-145,201,108,100,-24
612,-630,514,810,162,44,30
613,-285,270,1111,-83,-107,41
614,159,-260,748,-238,-71,-37
615,460,97,1189,226,-51,-13
616,612,-92,906,-232,10,62
617,-125,-208,891,12,104,22
618,-442,-24,977,7,62,-17
619,-491,-133,860,-20,-18,-1
620,-146,-107,963,26,-83,11
621,440,-15,1085,88,-80,6
622,441,96,1145,41,-9,0
623,146,-112,747,-32,66,16
624,-222,220,995,135,65,14
625,-393,330,883,-31,14,-8
626,-317,-358,1189,-169,-49,4
627,175,-459,14,164,54,23
628,294,619,1340,507,-35,-8
629,268,185,607,-270,2,34
630,33,94,773,-19,78,19
631,-599,212,1010,-25,57,-37
632,-137,-471,599,-280,-63,1
633,-147,-309,643,59,-40,30
634,388,60,1038,120,-79,-26
635,378,-446,797,-127,11,16
636,-28,106,549,248,75,7
637,-175,534,1293,107,22,5
638,-469,59,487,-184,17,28
639,-255,32,972,27,-61,-18
640,314,7,1014,-24,-80,-10
641,536,-76,1083,-47,-20,17
642,252,-216,771,-72,60,21
643,-109,36,1186,87,70,-1
644,-569,-142,762,-105,50,4
645,-467,-13,909,97,-41,-13
646,47,26,1057,37,-104,8
647,418,-163,679,23,3,58
648,433,-36,789,284,47,28
649,187,208,809,96,112,11
650,-206,136,979,-22,71,-2
651,-464,20,812,-55,21,20
652,-319,27,995,-14,-45,2
653,161,-126,1084,-52,-82,-7
654,462,-90,787,9,-44,0
655,347,21,749,-53,23,-9
656,-160,140,521,77,51,15
657,-364,440,841,-34,52,8
658,-496,135,510,-135,57,-15
659,99,-153,592,11,-46,7
660,386,447,132,362,-136,73
661,122,674,1146,67,42,-7
662,303,-289,335,-422,63,-30
663,-1,31,872,198,18,53
664,-484,125,867,-159,41,-29
665,-207,-185,-104,-152,3,48
666,267,231,202,266,21,61
667,324,-330,281,-137,22,50
668,427,287,73,390,-9,18
669,-524,685,747,92,86,-22
670,59,-342,108,-438,31,38
671,-266,69,122,213,26,19
672,-212,-287,291,23,61,-67
673,715,-432,-149,-84,-91,32
674,-63,1052,1147,808,22,16
675,268,-248,193,-837,50,-35
676,-157,-236,1182,261,45,65
677,-654,242,355,15,3,-47
678,52,-45,827,-25,-65,-65
679,55,-328,581,-155,-47,43
680,545,-132,941,173,-52,37
681,186,-82,585,-15,83,-37
682,-193,65,493,64,69,-8
683,-274,501,728,139,5,68
684,-473,108,728,-218,-12,-6
685,-15,-229,950,-41,-84,-29
686,493,-40,1077,22,-59,-1
687,447,-91,999,-25,0,17
688,170,-143,919,-49,81,18
689,-371,28,970,57,80,12
690,-614,-2,866,-39,3,-10
691,-298,-333,644,-60,-72,-41
692,77,-275,172,239,-54,-64
693,72,396,859,297,2,87
694,327,416,564,-73,7,63
695,-32,257,563,-105,39,-45
696,-378,231,1047,-51,57,-53
697,-36,-261,536,-285,-24,59
698,-255,-325,946,-4,-30,6
699,308,-493,789,-68,-36,-33
700,362,-265,991,125,2,21
701,-21,65,936,103,46,21
702,-204,175,957,78,40,11
703,-523,222,949,8,2,2
704,-143,155,930,6,-79,-10
705,310,85,1156,-42,-75,-6
706,532,-34,1013,-48,-19,9
707,323,-73,1058,-60,57,9
708,-166,-319,1079,-41,101,14
709,-358,-340,9,103,135,30
710,-566,394,1228,365,-20,-16
711,-46,81,825,-172,-120,23
712,492,57,1096,74,-76,2
713,419,140,1028,-7,6,-30
714,457,101,1145,-46,34,24
715,-309,-154,661,-189,107,41
716,-640,-191,961,48,29,-26
717,-327,-403,130,-222,-88,-23
718,7,221,1312,327,-87,8
719,561,-118,901,-179,-94,26
720,453,54,740,119,28,13
721,-59,343,1253,63,80,-17
722,-207,75,623,-96,54,15
723,-509,43,1026,-37,9,15
724,-200,-155,815,-88,-61,-16
725,401,-187,1156,21,-82,2
726,307,-202,835,-33,11,14
727,223,-4,1142,85,22,12
728,-173,-5,800,-22,65,31
729,-517,136,982,70,24,-9
730,-220,-53,950,-51,-61,-26
731,153,44,1102,70,-75,5
732,434,31,1048,-24,-41,12
733,394,38,1010,9,31,4
734,-123,-18,769,-125,52,25
735,-474,-25,923,15,27,-3
736,-383,-88,760,-49,-27,-6
737,-72,-83,1065,42,-68,4
738,447,-197,1043,-19,-81,8
739,462,13,1034,113,5,7
740,131,181,1076,28,66,5
741,-205,118,905,-30,59,4
742,-519,136,747,-18,25,0
743,-306,-16,762,-143,-72,-22
744,145,96,913,31,-110,-11
745,535,33,398,-129,-38,14
746,298,59,452,-6,45,-5
747,-16,-49,392,-106,86,10
748,-225,114,488,44,-2,-1
749,-168,389,285,10,-71,-20
750,-101,0,666,-145,14,-35
751,545,-139,277,52,-132,65
752,208,624,1011,229,-21,17
753,230,-138,738,-351,86,-63
754,201,-123,51,-278,14,33
755,-165,-286,427,-227,-51,23
756,27,117,-195,207,-55,-13
757,-367,690,1231,303,-57,-71
758,782,-714,-226,-621,-60,1
759,169,44,642,340,-36,63
760,-165,792,527,206,77,-78
761,130,10,786,-315,14,7
762,-651,-174,448,-99,22,7
763,-36,122,860,99,-75,-17
764,287,-354,890,-210,-40,-7
765,362,-352,508,47,-20,-2
766,186,6,803,102,45,31
767,-240,307,1020,91,62,16
768,-504,-99,590,-167,13,-14
769,-337,-134,1119,167,-37,3
770,252,-124,-50,427,158,78
771,314,289,575,251,-23,14
772,523,499,778,66,-12,13
773,27,44,745,-306,112,10
774,-622,129,968,95,65,-35
775,-172,-98,602,-232,-41,26
776,-337,-363,851,-52,-29,6
777,385,-459,880,-18,-86,-34
778,477,-183,1132,144,-10,20
779,89,101,986,87,62,14
780,-85,204,913,57,42,24
781,-592,301,1000,19,36,9
782,-310,60,878,-88,-59,-23
783,204,4,1168,0,-96,-5
784,515,-52,1028,-65,-41,11
785,465,-165,998,-46,40,4
786,-89,-78,1017,-6,91,6
787,-493,-36,875,-8,62,11
788,-538,-73,847,-11,-20,-1
789,-138,-81,984,32,-95,-4
790,431,-85,1121,32,-89,-5
791,551,19,1073,60,-12,-5
792,269,184,1059,40,60,10
793,-215,204,961,-38,84,24
794,-598,-138,998,-95,40,5
795,-215,-531,166,-166,-53,-25
796,73,283,1161,456,-89,-23
797,499,80,563,-235,-73,30
798,571,111,930,110,10,19
799,-120,164,751,-97,100,-23
800,-205,24,779,-55,46,11
801,-621,-129,735,-131,14,25
802,-231,-410,961,-6,-63,-28
803,346,-537,450,-80,-96,13
804,451,256,1240,405,-24,-2
805,284,128,681,-117,36,6
806,-135,211,876,131,79,14
807,-554,225,829,-47,36,20
808,-258,116,873,-8,-37,-5
809,53,-68,1024,-104,-81,-11
810,480,-207,993,-23,-46,-6
811,428,-107,1048,3,29,14
812,-64,108,970,46,72,11
813,-379,135,934,-51,53,11
814,-499,-93,892,-60,-8,-7
815,-2,-696,387,-209,-67,76
816,421,302,840,625,-113,-64
817,606,82,209,-348,-75,-92
818,227,502,647,426,56,25
819,25,393,596,-263,44,37
820,-538,-319,23,-166,72,-94
821,-127,377,262,416,-5,41
822,-240,-28,309,-252,-1,60
823,161,-299,342,-61,-53,-23
824,690,-291,629,198,34,59
825,-346,248,835,181,26,-8
826,12,-85,76,-418,20,-28
827,-223,-57,462,68,-79,-43
828,-61,706,596,150,-42,15
829,339,150,214,-441,-77,25
830,431,-3,293,107,110,33
831,256,545,84,333,51,34
832,-409,628,954,33,49,-8
833,-79,-688,151,-661,25,-8
834,-422,139,690,425,-19,32
835,-255,-123,231,-159,-47,-71
836,341,-554,285,-68,-159,-106
837,104,650,141,664,59,54
838,-125,869,847,238,2,-29
839,-80,-439,93,-853,55,-27
840,-339,364,524,522,11,12
841,-297,708,611,-254,-49,-22
842,363,-1182,618,-536,-88,46
843,515,-84,213,469,24,11
844,-314,380,1038,-5,84,-44
845,234,-1019,27,-422,2,54
846,-461,207,915,515,55,61
847,-516,193,906,23,-22,-80
848,493,-246,627,-50,-137,27
849,157,582,1077,451,3,26
850,563,257,1047,-247,-5,-26
851,151,80,1029,-8,58,-10
852,-338,261,880,-78,95,-2
853,-448,-44,1007,-132,-4,-3
854,-261,-441,799,-214,-40,-11
855,189,-410,984,88,-73,-5
856,450,-209,1195,43,-38,-7
857,299,-117,841,90,40,27
858,-199,278,1094,135,68,9
859,-429,255,894,-7,22,1
860,-342,-122,935,-107,-101,-56
861,-192,-12,34,234,-133,-345
862,203,502,807,438,8,-318
863,97,1078,806,-62,110,3
864,-174,-824,-184,-911,99,170
865,-400,44,437,607,-48,-124
866,-161,-21,474,-270,77,-231
867,69,-477,537,-284,-77,-149
868,200,-159,820,171,-57,-28
869,-18,-400,723,-248,23,45
870,107,-76,695,263,-1,-2
871,93,71,629,-40,-15,35
872,-243,26,565,72,53,23
873,-356,8,545,-54,-69,-16
874,106,319,1112,200,-59,-32
875,476,215,952,-125,-41,47
876,395,58,988,-74,13,30
877,-58,-60,1071,-89,96,-20
878,-458,-308,1009,-90,62,-13
879,-158,-387,304,-356,-148,-7
880,-250,279,968,589,-79,12
881,438,314,652,-68,-91,-11
882,560,202,944,53,3,2
883,-31,377,816,-24,58,-43
884,219,336,917,-39,53,26
885,-470,-95,697,-288,61,81
886,-563,-408,954,-105,-17,-57
887,58,-546,1002,-27,-70,-44
888,270,-201,1030,138,-70,7
889,559,-325,1054,31,0,36
890,28,-311,75,206,168,30
891,-378,655,877,572,43,-28
892,-402,634,541,-133,7,29
893,-142,360,763,-57,-70,2
894,245,174,822,-167,-86,37
895,555,-179,756,-177,-17,4
896,191,-801,579,-374,18,19
897,-218,-53,688,258,56,4
898,-240,12,813,-17,30,12
899,-687,-273,610,-49,6,53
900,7,-58,990,205,-109,-52
901,505,346,900,173,-71,-19
902,437,371,1155,-11,-1,17
903,242,56,749,-137,59,27
904,-335,489,1148,124,86,2
905,-508,-152,858,-371,-10,-30
906,-314,-688,268,-332,-107,-28
907,305,178,977,373,-76,45
908,385,-17,927,-162,-35,9
909,118,-527,114,-251,14,23
910,-60,212,964,574,53,17
911,-300,364,469,83,135,53
912,-145,-106,738,-415,-44,-51
913,65,204,457,337,-98,19
914,193,938,978,13,-42,43
915,272,-34,974,-371,-16,-56
916,358,-46,333,-748,-132,-2
917,-196,301,347,519,50,51
918,-182,382,340,-74,-61,-39
919,-411,-190,1084,-141,42,-60
920,294,-104,359,47,-118,48
921,428,274,1251,130,-46,23
922,204,122,284,-207,100,-49
923,65,108,-395,18,-23,-45
924,-29,51,229,523,209,-33
925,-320,-260,-201,113,145,68
926,-302,508,576,564,-48,-11
927,252,120,535,-213,-83,-80
928,669,-311,-141,-295,-30,67
929,-458,351,752,341,162,23
930,129,-380,-51,-434,-13,-14
931,-335,75,483,321,49,-29
932,-593,-117,446,-245,-13,-19
933,640,-677,411,43,-161,43
934,-7,-30,386,169,47,-40
935,365,301,689,125,-23,-18
936,139,424,881,50,28,83
937,-561,360,620,-104,96,-16
938,-220,-5,813,-108,-63,-39
939,27,-152,891,-106,-60,19
940,300,-249,950,-38,-31,1
941,491,-321,1096,-28,0,-1
942,-8,-111,913,64,80,28
943,-427,29,917,39,58,-2
944,-455,63,901,39,-20,-4
945,-186,110,942,31,-74,16
946,342,37,1127,1,-88,-4
947,591,33,1112,8,-24,-5
948,285,102,1041,-18,64,3
949,-210,-292,818,-55,122,31
950,-385,51,424,101,34,15
951,-420,323,907,110,-36,-20
952,123,-28,1005,-104,-107,1
953,449,-146,944,-54,-44,-10
954,476,91,1044,108,10,-2
955,209,25,981,-116,72,39
956,-449,-90,781,-36,101,10
957,-575,0,986,12,-2,-22
958,-289,-161,886,-49,-70,-10
959,271,-144,1103,42,-102,5
960,606,-62,1057,50,-40,10
961,344,92,1102,54,54,1
962,-131,156,935,-4,84,12
963,-523,-135,730,-121,34,8
964,-478,34,650,43,-60,-5
965,-4,217,1120,3,-108,-9
966,484,-36,1118,-52,-78,-2
967,523,-276,646,-180,-17,-13
968,167,96,1117,176,73,15
969,-329,87,847,-140,77,34
970,-616,-141,840,12,31,-9
971,-331,-48,938,18,-70,-11
972,279,-52,1131,42,-107,-1
973,570,-75,1057,-6,-39,7
974,412,141,1005,83,44,7
975,-124,301,1136,-7,85,15
976,-569,-348,512,-340,12,28
977,-375,-57,712,85,-67,-8
978,83,73,984,34,-111,-39
979,314,-156,776,12,-13,20
980,624,-155,855,35,-19,-5
981,78,303,1075,204,89,12
982,-335,178,929,-152,72,13
983,-531,-159,655,-83,7,14
984,-95,227,903,108,-64,-40
985,145,-126,800,-160,-56,-51
986,559,-91,285,49,-12,63
987,49,-21,783,23,58,-7
988,16,-174,339,-66,66,-18
989,-502,23,759,55,26,27
990,-448,40,860,13,-30,-26
991,115,-118,963,-15,-99,-1
992,222,76,1089,94,-57,17
993,504,209,1021,35,-25,25
994,237,156,590,-56,78,-9
995,-292,-60,297,-75,96,-47
996,-263,505,620,262,-2,56
997,-563,393,1172,-114,-29,4
998,211,18,175,-619,-229,-119
999,286,377,557,559,-89,25
1000,128,899,878,3,19,18
1001,93,-150,572,-395,92,-56
1002,-370,90,324,127,39,29
1003,-585,633,1021,127,-11,-17
1004,160,-249,-71,-673,-116,-131
1005,242,-57,236,156,-153,-13
1006,216,807,641,585,3,31
1007,-52,78,959,-571,42,-99
1008,243,-434,-61,128,-15,73
1009,-631,1219,561,539,75,31
1010,-90,-580,201,-824,-39,-124
1011,535,-195,118,317,-125,110
1012,-201,1223,1388,411,47,-15
1013,746,-860,290,-844,-40,-39
1014,-148,-248,875,358,119,86
1015,-658,520,1193,165,89,-43
1016,-13,-607,578,-341,-79,-16
1017,-299,-159,893,222,-21,29
1018,437,151,1311,119,-93,-14
1019,507,-128,1029,-56,-10,11
1020,59,245,898,130,83,8
1021,-168,348,1094,4,47,1
1022,-532,15,837,-169,17,1
1023,-329,-106,837,-24,-43,-10
1024,219,-111,1229,-24,-102,-8
1025,509,-265,954,-43,-39,10
1026,357,-138,1004,46,48,4
1027,-104,75,1060,68,73,11
1028,-470,59,836,-23,46,21
1029,-491,119,862,36,-21,-1
1030,-11,111,1076,-14,-99,-12
1031,473,22,1124,-37,-76,-4
1032,516,26,1083,-31,12,1
1033,115,-62,1059,-60,71,12
1034,-89,-247,801,-152,70,-33
1035,-614,33,494,228,56,-9
1036,-305,346,470,32,-71,22
1037,225,-127,788,-133,-110,-2
1038,414,-73,753,28,-58,-16
1039,652,218,1051,97,14,4
1040,46,-118,690,-211,88,35
1041,-503,-24,842,71,83,-11
1042,-532,-71,914,-78,-6,-6
1043,-233,-167,990,16,-79,-3
1044,395,-177,955,-2,-96,2
1045,542,26,1157,123,-8,-5
1046,235,98,1000,-13,51,8
1047,-232,156,986,21,78,22
1048,-537,149,892,-47,26,8
1049,-334,-42,901,-70,-57,-13
1050,65,-320,1135,-40,-84,-12
1051,390,-720,252,-179,-73,-22
1052,65,502,1091,644,46,12
1053,-47,472,580,-290,43,63
1054,-284,306,626,61,48,13
1055,-777,274,601,-171,-5,-52
1056,311,-261,497,-151,-124,-10
1057,369,-318,865,-74,-35,46
1058,418,-301,1018,5,13,-28
1059,215,-348,950,-24,66,22
1060,-520,107,840,159,92,15
1061,-476,138,828,16,-16,-1
1062,-362,-271,792,-97,-79,8
1063,251,68,756,140,-118,-12
1064,640,346,1403,86,-68,-6
1065,416,77,730,-114,74,0
1066,-7,155,971,53,93,25
1067,-576,171,868,-67,78,20
1068,-481,33,1004,-95,-21,-10
1069,-172,-320,805,-157,-90,-18
1070,533,-261,1167,67,-85,-11
1071,564,-419,281,-158,30,-15
1072,172,440,581,723,2,5
1073,-179,413,193,-209,75,51
1074,-755,136,400,-28,32,-60
1075,92,458,295,165,-120,52
1076,-123,2,226,-120,14,20
1077,422,-50,451,125,-63,-33
1078,561,-194,254,-313,44,115
1079,-20,236,674,289,76,-45
1080,256,-179,250,-389,90,-179
1081,-39,-1,76,247,17,44
1082,-374,-173,-77,-177,-9,48
1083,-119,-22,396,217,-48,10
1084,575,356,461,217,-145,54
1085,57,-31,252,-40,201,-84
1086,246,297,670,365,1,18
1087,-242,484,438,-202,-50,26
1088,249,-1,208,-816,-172,-150
1089,456,121,167,139,-217,61
1090,-239,881,1278,309,6,-14
1091,225,-611,117,-760,44,-52
1092,48,73,384,370,-4,75
1093,-301,318,412,-128,39,-56
1094,95,-454,205,-517,-101,32
1095,-125,296,610,806,-34,29
1096,209,203,594,-311,-104,-61
1097,507,-205,1,-106,-11,34
1098,112,134,385,-40,80,-12
1099,-1,90,34,33,14,49
1100,-741,343,1036,0,58,-20
1101,-184,-596,-96,-345,-52,-22
1102,294,-510,747,223,-129,42
1103,127,-52,748,-19,-53,-77
1104,590,-140,1115,59,-2,5
1105,-17,252,472,473,201,85
1106,-596,423,925,110,115,-24
1107,-292,-5,810,-185,-114,-11
1108,-223,137,990,-11,-64,10
1109,359,67,1206,-56,-102,-28
1110,729,-212,926,-114,-12,14
1111,102,33,1081,33,96,5
1112,-135,-297,839,-152,51,-17
1113,-399,-130,484,106,79,13
1114,-473,322,867,149,-60,20
1115,227,-58,991,-118,-133,-10
1116,445,-109,878,18,-41,-12
1117,540,236,1201,117,8,1
1118,106,44,1000,-149,74,32
1119,-456,12,780,-15,89,6
1120,-542,-34,962,-59,-4,-14
1121,-234,-257,957,-51,-80,-16
1122,350,-208,1034,41,-89,6
1123,551,-28,1100,84,-22,4
1124,273,65,1027,21,55,10
1125,-253,150,948,26,80,15
1126,-536,31,749,-59,23,0
1127,-362,66,943,39,-54,-2
1128,168,34,1056,-45,-97,2
1129,557,-115,1104,-25,-44,-7
1130,382,-77,994,-19,42,-1
1131,-22,58,1034,24,79,18
1132,-471,0,860,-66,61,24
1133,-553,-78,840,-15,-16,-11
1134,-131,-132,1016,2,-93,-17
1135,444,-95,1106,47,-90,1
1136,580,5,1042,38,-10,6
1137,239,135,1072,38,69,12
1138,-286,175,951,-32,82,16
1139,-597,68,861,-64,31,-1
1140,-371,-90,892,-60,-61,-12
1141,189,-189,1066,-19,-102,-4
1142,566,-202,1083,9,-51,1
1143,443,-66,1028,52,37,3
1144,-49,136,1039,47,85,14
1145,-485,148,881,-23,62,20
1146,-567,43,842,-39,-20,-2
1147,-130,-60,1025,-20,-97,-16
1148,467,-125,1108,-9,-89,-5
1149,581,-95,1033,9,-7,3
1150,251,35,1065,32,73,11
1151,-300,94,941,-19,87,22
1152,-627,23,849,-33,32,3
1153,-394,-386,618,-126,-52,-18
1154,165,20,1097,294,-103,9
1155,586,183,973,-58,-66,18
1156,472,63,959,27,31,-20
1157,38,-166,744,-220,57,3
1158,-503,271,815,107,32,13
1159,-549,298,800,-120,-13,17
1160,-205,-145,967,-116,-86,-29
1161,438,-359,1046,-102,-82,-21
1162,490,-272,115,309,69,-2
1163,422,748,573,433,32,39
1164,-339,493,453,-192,102,32
1165,-414,-213,269,-246,37,-77
1166,-375,-112,184,165,16,-29
1167,-115,263,570,197,-82,47
1168,190,-70,504,-276,-40,-6
1169,192,-47,595,128,25,12
1170,31,303,714,-10,-13,62
1171,-201,-356,350,-279,43,-50
1172,-128,-151,483,116,-40,26
1173,-179,484,1355,122,-48,20
1174,347,-177,473,-275,18,22
1175,219,217,473,873,410,193
1176,272,866,422,680,-20,1
1177,-346,749,702,-186,82,-17
1178,-266,-195,326,-502,3,-57
1179,-165,68,605,108,-145,79
1180,104,353,705,46,-2,-39
1181,511,-93,1169,-165,-85,-22
1182,391,-437,516,-155,76,26
1183,29,271,661,250,94,-32
1184,36,129,219,-304,106,-11
1185,-241,-75,-144,390,-21,62
1186,-405,765,731,287,-56,-21
1187,557,-621,-96,-595,-146,-15
1188,544,258,1017,431,-15,58
1189,119,512,794,-22,95,-50
1190,87,-281,637,-313,22,12
1191,-725,-6,607,78,99,50
1192,-430,-171,1157,-93,-69,-45
1193,173,-610,273,-258,-177,-14
1194,244,105,932,427,31,8
1195,622,246,834,132,-22,11
1196,35,59,536,-80,69,34
1197,-510,421,837,105,75,-30
1198,-223,280,877,-139,-58,18
1199,-342,-58,843,-156,-50,-8
1200,475,-258,922,-67,-48,-26
1201,484,-284,945,-32,-35,27
1202,28,-299,1000,-11,69,-12
1203,69,-162,365,61,95,-40
1204,-504,419,609,317,52,54
1205,-302,426,424,2,-95,42
1206,192,-32,838,-193,-72,-34
1207,427,238,1135,175,-82,-15
1208,731,44,850,-220,10,26
1209,-31,-221,822,-84,125,15
1210,-435,-76,858,-26,70,-4
1211,-602,-230,863,-62,10,-8
1212,-312,-236,886,39,-75,-10
1213,206,-421,899,39,-89,12
1214,566,-104,229,297,29,-18
1215,328,733,1344,357,9,17
1216,-74,634,1056,-45,103,28
1217,-435,259,786,-238,24,-2
1218,-494,83,957,-67,5,-8
1219,172,-248,1114,-209,-110,-11
1220,330,-555,895,-106,-24,4
1221,417,-378,1009,62,24,-2
1222,35,-127,1009,88,57,30
1223,-467,35,855,64,66,21
1224,-483,141,881,82,-26,-4
1225,-147,230,1107,61,-90,-4
1226,419,137,1066,-27,-87,4
1227,585,112,1105,-16,-9,-1
1228,251,-234,853,-133,71,-5
1229,-202,-103,497,73,118,2
1230,-690,317,1075,31,22,42
1231,-390,-94,717,-122,-65,-5
1232,88,-352,1066,-17,-77,-27
1233,511,-228,881,90,-71,0
1234,615,122,1038,84,-15,23
1235,-92,107,793,-109,78,5
1236,-346,128,852,-45,34,13
1237,-650,95,814,10,8,20
1238,-199,0,1061,-20,-87,-28
1239,455,-221,951,-69,-102,6
1240,526,-10,1166,92,-15,-2
1241,341,-31,976,-36,62,6
1242,-287,66,955,17,95,16
1243,-557,197,908,44,31,10
1244,-430,-314,508,-239,-34,-20
1245,69,56,877,292,-109,3
1246,612,354,537,-64,-69,-22
1247,-106,-69,530,-254,100,-137
1248,101,-22,-202,-112,55,208
1249,-600,383,341,402,54,111
1250,-259,-443,-196,-489,-74,29
1251,80,-61,498,260,-94,39
1252,-18,427,1169,168,-47,-71
1253,960,7,732,-130,-103,-1
1254,141,236,850,62,123,-4
1255,-107,209,830,-71,83,-39
1256,-407,-33,963,-116,20,-22
1257,-504,-186,889,-78,16,-64
1258,48,-306,946,-19,-82,-25
1259,319,-96,987,68,-59,21
1260,237,-130,703,-6,8,20
1261,14,20,760,60,23,2
1262,-455,493,1057,132,3,54
1263,-131,-37,485,-314,-55,-6
1264,-58,-235,377,50,-55,-8
1265,444,607,341,225,-82,95
1266,142,474,1235,-132,0,-39
1267,363,-220,270,-661,39,-36
1268,-129,579,662,832,59,64
1269,-393,724,377,-219,112,27
1270,-104,-282,534,-333,-69,-105
1271,193,-19,416,293,-132,37
1272,395,1049,1297,338,24,8
1273,355,-353,703,-613,-49,-21
1274,124,-349,279,43,95,26
1275,-410,381,561,142,86,-7
1276,-266,-331,512,-341,-40,48
1277,-201,-4,-45,222,-17,37
1278,-43,518,1348,228,-97,-55
1279,874,-634,132,-468,-83,7
1280,430,-110,461,353,86,16
1281,-271,433,836,96,113,-97
1282,-247,-204,593,-261,17,-17
1283,-405,153,626,217,8,-35
1284,-142,152,997,-104,-78,-110
1285,392,-38,1279,33,-61,-38
1286,112,-127,667,-183,49,12
1287,23,-12,1236,121,7,-13
1288,-82,-106,820,-135,20,-4
1289,-340,-136,811,76,18,-68
1290,-45,1,1122,52,-66,-99
1291,232,-24,1128,20,-33,-40
1292,184,-25,971,-30,12,10
1293,105,119,1046,51,18,9
1294,-104,73,972,-48,31,-34
1295,-229,-63,708,-28,4,-97
1296,-205,160,1058,100,-33,-109
1297,23,-133,1220,-158,-65,26
1298,128,-257,56,-319,-96,99
1299,437,-159,790,174,18,-26
1300,21,141,1091,154,105,50
1301,-158,-52,753,-126,61,75
1302,-363,-139,846,18,3,104
1303,-223,12,820,37,-40,115
1304,-19,61,1115,7,-96,90
1305,276,31,1121,41,-40,47
1306,153,172,1053,42,23,13
1307,44,167,992,16,31,-4
1308,-35,-19,785,-109,22,23
1309,-292,-44,907,-31,8,58
1310,-160,-150,1054,-94,-58,46
1311,170,-76,1129,79,-45,10
1312,168,97,967,31,1,-1
1313,109,14,1007,-34,8,8
1314,-104,-19,942,-19,26,17
1315,-316,3,912,-9,7,-6
1316,-125,-78,959,-23,-52,-9
1317,210,-25,1086,24,-56,17
1318,258,41,1047,10,-13,15
1319,160,16,1023,-23,21,-6
1320,-99,45,979,-4,39,6
1321,-315,8,875,-43,19,9
1322,-275,-109,888,-43,-33,-3
1323,53,-132,1049,6,-66,-2
1324,313,-40,1087,44,-42,2
1325,329,51,1048,26,7,2
1326,54,116,997,5,53,14
1327,-300,98,927,-39,49,12
1328,-436,-15,871,-57,-5,-10
1329,-141,-100,991,-28,-66,-12
1330,302,-124,1076,-4,-73,6
1331,447,-91,1042,11,-15,13
1332,224,19,1041,30,51,6
1333,-195,96,967,-2,68,11
1334,-484,68,874,-31,27,7
1335,-369,-20,879,-37,-46,-6
1336,107,-94,1077,-15,-92,-8
1337,491,-110,1076,1,-54,1
1338,457,-16,1058,22,23,2
1339,35,87,1012,10,76,12
1340,-397,108,904,-35,69,13
1341,-556,-3,875,-53,-1,-11
1342,-96,-44,434,-38,-77,-24
1343,183,-264,530,-128,-76,-6
1344,566,61,193,182,-37,47
1345,-32,265,909,-4,53,-20
1346,30,-121,340,-107,50,1
1347,-515,206,996,76,23,40
1348,-430,4,877,-90,-35,-37
1349,285,-306,917,-79,-104,1
1350,329,-22,1170,120,-32,0
1351,559,-48,1037,-40,16,6
1352,-111,33,971,29,88,30
1353,-455,194,909,14,55,0
1354,-482,22,907,-64,-20,-9
1355,-185,-99,967,-39,-85,-7
1356,449,-175,1076,2,-94,-6
1357,561,-102,1125,37,-5,3
1358,275,8,982,20,65,15
1359,-266,131,989,25,93,19
1360,-621,109,860,-32,36,7
1361,-464,-40,860,-44,-58,-10
1362,99,-125,1080,-6,-109,-11
1363,597,-134,1083,17,-72,2
1364,547,-57,1060,33,26,6
1365,67,89,1031,34,93,15
1366,-434,137,909,-18,82,23
1367,-639,57,828,-44,5,1
1368,-296,-90,935,-40,-86,-15
1369,341,-151,1133,5,-115,-4
1370,558,-234,1232,7,-37,8
1371,483,-59,370,106,75,5
1372,-184,427,917,129,86,4
1373,-403,64,659,-138,48,28
1374,-552,-25,754,-19,-9,-11
1375,88,-111,562,-47,-129,-77
1376,448,57,1018,58,-56,61
1377,339,-23,761,-116,-3,19
1378,280,-47,929,40,55,-33
1379,-356,17,921,-53,88,30
1380,-484,-38,850,-28,11,7
1381,-308,-167,909,-29,-66,-6
1382,178,-97,1156,56,-80,-13
1383,534,-111,1012,15,-47,8
1384,330,132,1101,94,39,2
1385,-36,212,953,-12,76,22
1386,-505,118,918,-67,50,15
1387,-488,-43,847,-64,-29,-15
1388,-18,-144,1056,-27,-88,-16
1389,463,-188,1061,-4,-73,5
1390,541,-123,1028,32,8,9
1391,103,48,1062,50,79,10
1392,-358,113,915,-2,71,15
1393,-583,92,846,-16,9,4
1394,-289,11,942,-23,-74,-8
1395,292,-108,1098,-26,-102,-5
1396,576,-106,1065,14,-33,-1
1397,401,6,1062,23,49,3
1398,-109,95,993,-2,88,22
1399,-540,65,865,-44,60,16
1400,-558,-52,840,-41,-30,-12
1401,-58,-132,1035,-8,-105,-15
1402,506,-134,1084,22,-85,3
1403,581,-43,1043,36,1,5
1404,190,105,1080,41,76,11
1405,-341,144,936,-27,85,18
1406,-623,76,840,-41,20,1
1407,-350,-53,915,-48,-72,-12
1408,238,-171,1088,-23,-105,-5
1409,589,-164,1050,15,-46,3
1410,442,-21,1065,47,43,3
1411,-67,104,1007,18,87,19
1412,-529,117,871,-20,62,18
1413,-569,32,867,-38,-24,-8
1414,-94,-94,1011,-29,-99,-15
1415,484,-122,1098,11,-88,0
1416,595,-110,1087,16,-2,3
1417,199,-203,773,-51,82,12
1418,-303,243,1024,215,77,20
1419,-624,310,797,-96,20,15
1420,-385,6,1021,-44,-64,-26
1421,284,-416,761,-81,-83,3
1422,490,-216,775,124,-36,-7
1423,537,213,1208,167,32,12
1424,-181,78,662,-138,109,20
1425,-441,277,943,126,36,2
1426,-548,151,663,-166,-10,16
1427,-124,-41,1203,-22,-100,-40
1428,578,-419,620,-214,-71,17
1429,386,-320,265,310,128,19
1430,506,462,234,434,41,41
1431,-468,461,892,-255,49,3
1432,-285,-59,505,-162,-27,-26
1433,-255,-123,12,4,-1,33
1434,58,589,1237,539,-110,-52
1435,744,143,521,-418,-44,28
1436,148,-405,781,32,99,42
1437,167,-184,510,-58,5,42
1438,-350,108,677,314,144,0
1439,-608,2,306,-200,25,4
1440,-45,-124,250,-91,-138,-40
1441,313,603,905,509,11,71
1442,393,640,995,-202,-65,4
1443,306,-211,489,-320,71,-23
1444,79,163,707,-44,99,28
1445,-304,421,356,361,-79,6
1446,-566,483,921,-61,3,-42
1447,127,-456,310,-357,-51,-32
1448,577,-7,1093,269,-86,63
1449,132,254,1214,-49,39,-26
1450,304,-279,434,-197,60,3
1451,-348,170,382,-149,55,61
1452,-71,-188,-367,60,-48,-15
1453,-299,433,658,359,-43,-21
1454,-133,-161,559,-564,-179,-94
1455,1113,-373,-107,106,-102,80
1456,-452,898,1252,271,104,-38
1457,51,-276,458,-508,19,-67
1458,-242,-193,519,34,38,115
1459,-783,375,1016,130,-7,-31
1460,568,-698,817,-381,-140,-40
1461,137,-249,1029,240,18,14
1462,478,136,1048,91,-13,-11
1463,80,13,1121,-16,64,48
1464,-521,214,742,38,81,29
1465,-431,121,1007,-20,-38,-24
1466,-155,-12,1051,-50,-80,-19
1467,430,-93,903,-31,-76,7
1468,542,-259,1102,-63,-26,19
1469,226,-284,507,-14,71,22
1470,-282,357,858,240,101,-10
1471,-581,205,811,-110,-4,11
1472,-359,-58,604,-63,-41,18
1473,189,-146,683,1,-95,-83
1474,190,71,732,122,-39,42
1475,303,112,685,-141,33,57
1476,236,-156,647,1,60,-46
1477,-515,154,805,34,67,20
1478,-416,113,684,-38,-4,29
1479,-92,-241,689,-120,-96,-8
1480,247,-129,941,92,-67,-35
1481,659,-116,1085,-28,-22,16
1482,171,21,1014,72,66,23
1483,-200,169,951,8,74,6
1484,-555,93,907,-42,41,15
1485,-448,-18,849,-45,-58,-13
1486,152,-120,1065,-13,-106,-14
1487,534,-108,1121,14,-52,7
1488,510,-74,991,-1,18,10
1489,15,77,1067,48,94,10
1490,-438,106,898,-39,72,15
1491,-591,10,832,-30,-8,0
1492,-231,-80,981,-28,-85,-12
1493,393,-137,1096,11,-102,-3
1494,587,-98,1050,18,-24,0
1495,345,44,1060,48,65,6
1496,-195,138,981,-6,91,25
1497,-588,92,861,-40,47,13
1498,-493,-38,868,-51,-43,-14
1499,43,-134,1053,-13,-108,-14
1500,541,-143,1081,17,-74,2
1501,550,-65,1042,24,17,7
1502,93,84,1038,40,82,16
1503,-400,130,921,-19,78,21
1504,-616,53,846,-38,7,0
1505,-282,-65,948,-36,-82,-13
1506,326,-127,1109,0,-104,-4
1507,594,-118,1047,9,-32,3
1508,387,0,1050,37,54,6
1509,-149,115,993,5,90,21
1510,-560,84,872,-37,52,15
1511,-525,-23,857,-42,-36,-9
1512,-1,-110,1047,-10,-103,-12
1513,516,-127,1092,12,-80,0
1514,561,-62,1038,24,10,4
1515,147,-121,933,-16,80,14
1516,-399,-145,338,-47,76,19
1517,-361,266,579,269,5,18
1518,-555,108,718,-229,-64,-9
1519,388,39,847,196,-122,-23
1520,687,79,865,-107,-35,43
1521,178,-329,65,-316,69,-39
1522,158,114,417,454,89,53
1523,-717,801,636,-40,51,50
1524,-534,-53,895,-211,-17,-65
1525,99,-508,-34,-323,-123,-33
1526,268,435,403,844,-155,-16
1527,684,488,9,-428,-34,44
1528,-179,286,738,104,81,-25
1529,-94,-411,450,-490,9,51
1530,-399,203,476,710,62,72
1531,-208,90,761,-300,-126,-135
1532,-8,-243,193,-114,-99,20
1533,454,285,322,106,-54,-16
1534,334,108,312,91,66,16
1535,-72,649,215,86,120,22
1536,-702,286,518,-293,1,-6
1537,-27,-114,122,-553,-104,-66
1538,198,-65,440,201,-83,54
1539,329,345,353,198,-81,-55
1540,465,-33,699,-159,-15,14
1541,31,108,524,73,97,22
1542,-8,274,-27,-498,-99,2
1543,-97,-161,175,10,34,15
1544,-282,840,399,567,-26,-7
1545,48,-15,456,-474,-153,-67
1546,925,-352,342,-148,-29,82
1547,192,375,202,238,81,-18
1548,64,-473,-131,-858,-142,-69
1549,-484,441,293,570,113,47
1550,-521,234,314,-248,-2,-45
1551,431,-934,315,-119,-93,77
1552,-65,520,1005,450,-8,10
1553,482,49,1011,-116,-77,-102
1554,571,-260,429,-138,51,69
1555,-520,644,705,339,104,34
1556,-274,2,645,-332,-13,-26
1557,-428,-525,910,-104,-20,-2
1558,142,-228,-35,-64,-157,-20
1559,433,146,956,110,-44,-15
1560,457,76,670,35,23,51
1561,-1,146,928,-54,86,5
1562,-568,185,1004,56,60,-40
1563,-181,-27,578,-182,-44,34
1564,-309,-160,1000,-2,-44,7
1565,480,-316,1041,-57,-88,-26
1566,432,-190,1032,81,5,16
1567,121,133,1024,91,60,-5
1568,-86,163,926,2,53,34
1569,-664,141,921,-32,40,18
1570,-325,-61,883,-55,-66,-26
1571,180,-36,1162,27,-100,-9
1572,557,-66,999,-35,-48,7
1573,511,-93,1037,-2,37,9
1574,-104,37,1043,10,96,13
1575,-497,27,887,-25,62,9
1576,-544,2,846,-20,-18,-4
1577,-143,-70,962,-10,-93,-6
1578,444,-175,1123,-10,-93,-4
1579,557,-72,1056,62,-10,1
1580,274,134,1078,53,64,8
1581,-218,174,955,-24,87,25
1582,-587,86,823,-61,41,10
1583,-473,-77,915,-59,-51,-22
1584,119,-181,1069,-15,-108,-14
1585,558,-145,1058,21,-65,9
1586,532,-55,1045,33,23,3
1587,31,70,1032,30,91,13
1588,-469,131,908,-6,74,17
1589,-584,84,861,-25,-7,0
1590,-209,-42,957,-42,-86,-7
1591,380,-138,1107,-15,-99,-7
1592,588,-118,1057,15,-23,-3
1593,324,19,1057,34,61,8
1594,-193,103,957,-5,87,26
1595,-573,78,862,-33,44,15
1596,-509,-51,870,-43,-44,-17
1597,53,-134,1065,0,-108,-15
1598,538,-101,1086,26,-73,6
1599,551,-25,1047,22,15,7
1600,90,78,1042,22,85,12
1601,-420,-125,831,-89,82,18
1602,-605,93,827,124,9,3
1603,-247,145,1041,-31,-87,-2
1604,295,-233,940,-92,-94,-5
1605,605,-44,1105,111,-44,-2
1606,379,60,935,-19,59,9
1607,-136,94,1068,2,87,16
1608,-564,-33,687,-70,52,19
1609,-523,23,1043,45,-34,-17
1610,0,-174,923,-76,-103,-6
1611,502,73,1155,122,-82,0
1612,573,168,1099,-24,5,9
1613,148,52,1036,-61,83,11
1614,-266,-33,765,-103,84,12
1615,-533,-146,160,-37,124,65
1616,-53,228,378,508,-106,28
1617,91,44,299,-275,-47,-26
1618,306,-280,322,225,-70,-46
1619,537,263,648,7,34,109
1620,-499,656,1090,201,119,-50
1621,-84,-5,413,-338,-4,11
1622,-525,361,1041,170,6,3
1623,-235,-309,393,-527,-111,-43
1624,286,-327,92,224,-84,36
1625,228,-25,619,-111,17,48
1626,-191,-121,360,135,124,24
1627,28,57,630,137,-11,-145
1628,-418,148,490,155,91,-13
1629,142,381,-29,-106,-125,127
1630,-261,185,292,-360,-129,12
1631,289,-161,12,45,-147,-37
1632,533,298,662,51,-37,138
1633,-221,42,487,-415,89,-102
1634,286,-421,68,-84,-55,36
1635,-623,762,634,503,127,60
1636,-198,-282,493,-503,-86,-74
1637,413,-588,-81,-74,-79,24
1638,-5,183,236,113,126,59
1639,343,57,93,-20,-14,29
1640,-221,954,598,581,-11,20
1641,-335,-50,110,-619,52,-51
1642,66,-232,515,56,-100,48
1643,-172,679,508,128,3,-36
1644,381,-181,667,-373,-65,1
1645,473,-911,-224,-273,35,69
1646,-310,402,885,578,159,-37
1647,-565,-399,574,-432,13,-69
1648,-116,-398,250,213,-45,96
1649,-554,509,1136,262,-63,5
1650,580,-208,833,-171,-133,-79
1651,662,-86,707,139,-15,38
1652,126,659,922,243,89,14
1653,-32,75,756,-309,43,33
1654,-552,-126,671,-14,80,7
1655,-577,173,1008,43,-44,-66
1656,290,-247,967,-168,-120,0
1657,472,-240,932,19,-29,54
1658,438,-76,1139,44,17,-26
1659,31,-147,942,-27,81,3
1660,-494,98,835,66,79,21
1661,-468,178,882,33,-33,7
1662,-183,-53,1000,-78,-78,3
1663,345,-92,1070,32,-82,-10
1664,555,47,1139,37,-30,-12
1665,313,80,1011,-19,63,15
1666,-193,56,907,-47,87,31
1667,-612,7,923,-42,40,3
1668,-454,-173,875,-60,-46,-23
1669,101,-165,1043,31,-105,-11
1670,566,-90,1076,45,-69,10
1671,501,-34,1047,27,29,10
1672,-6,124,1047,52,88,10
1673,-428,201,935,-10,64,14
1674,-545,88,843,-61,-3,3
1675,-197,-100,953,-65,-83,-11
1676,368,-192,1118,-7,-91,-7
1677,547,-152,1053,14,-17,2
1678,316,-4,1019,46,58,10
1679,-196,124,969,16,86,24
1680,-583,74,856,-36,43,11
1681,-478,-31,890,-27,-49,-14
1682,89,-58,1071,9,-108,-10
1683,562,-79,1079,2,-70,4
1684,543,-43,1034,10,21,1
1685,50,78,1048,23,89,11
1686,-425,99,909,-33,75,20
1687,-590,29,832,-38,1,1
1688,-269,-100,947,-42,-80,-14
1689,338,-180,1102,2,-105,-8
1690,580,-119,1063,33,-30,1
1691,350,-259,795,-39,53,7
1692,-150,273,1041,242,78,20
1693,-534,294,751,-102,46,26
1694,-555,-41,606,-81,-45,-34
1695,89,-31,1011,3,-114,-1
1696,440,48,1023,29,-76,10
1697,599,-26,938,-87,7,-7
1698,116,23,994,7,82,18
1699,-411,107,1060,-44,84,7
1700,-546,-176,653,-123,10,4
1701,-313,-486,199,-207,-107,-52
1702,254,-47,451,356,-162,10
1703,667,411,265,-9,-72,10
1704,88,-13,336,-68,56,-42
1705,389,115,322,75,40,71
1706,-770,654,838,124,90,34
1707,-349,155,428,-293,-64,-60
1708,60,-441,592,-157,-43,21
1709,51,-197,449,160,1,-22
1710,768,79,783,122,-45,60
1711,-132,55,1255,15,129,23
1712,-289,-448,197,-304,72,18
1713,40,259,871,705,-27,5
1714,-114,99,408,-281,72,-158
1715,324,-131,215,47,-154,70
1716,-26,311,794,166,26,91
1717,265,410,392,-75,-22,-49
1718,100,-95,104,-242,112,-15
1719,-226,317,523,319,41,57
1720,-405,395,447,-151,-57,26
1721,118,101,273,-427,49,-50
1722,430,137,686,685,49,130
1723,13,959,959,277,31,24
1724,157,-215,492,-479,7,-50
1725,7,-60,186,82,102,50
1726,-284,-121,55,-105,-70,-186
1727,317,-716,37,-662,-246,81
1728,-101,703,558,765,-11,21
1729,82,56,534,-432,-101,-140
1730,1073,-775,311,-278,-30,116
1731,-353,835,944,612,179,36
1732,99,-146,85,-911,-149,-107
1733,100,-300,-455,24,-57,77
1734,-639,946,614,654,47,0
1735,462,-996,17,-878,-120,-95
1736,501,-77,735,569,31,135
1737,-328,938,1009,208,99,-64
1738,222,-572,538,-507,-3,-50
1739,-395,61,303,251,65,127
1740,-550,543,1379,122,-39,-47
1741,404,-656,707,-436,-113,-20
1742,215,-55,963,294,2,15
1743,479,221,1259,17,-6,-15
1744,64,-109,929,-106,76,48
1745,-569,50,716,23,77,11
1746,-429,123,1150,51,-33,-32
1747,-129,-148,859,-134,-87,3
1748,393,-103,1033,75,-78,6
1749,591,-31,1175,7,-16,0
1750,192,0,995,7,74,14
1751,-277,116,940,10,82,12
1752,-528,151,927,-17,23,10
1753,-423,-99,809,-102,-51,-2
1754,125,-199,1096,3,-100,-16
1755,550,-116,1097,45,-62,0
1756,484,-17,1030,23,26,6
1757,50,113,1027,40,86,19
1758,-453,147,921,-33,73,23
1759,-623,15,854,-51,-3,-8
1760,-197,-91,968,-28,-91,-15
1761,388,-123,1101,4,-101,1
1762,602,-152,1033,-4,-21,4
1763,327,2,1063,57,63,8
1764,-223,144,989,11,90,18
1765,-565,98,857,-37,43,14
1766,-485,-6,850,-40,-45,-4
1767,37,-124,1073,-24,-106,-15
1768,541,-159,1079,12,-73,0
1769,547,-34,1043,38,15,6
1770,116,93,1049,27,82,14
1771,-388,108,903,-32,82,23
1772,-631,53,859,-29,9,-3
1773,-291,-76,948,-41,-79,-17
1774,316,-147,1087,-2,-106,-2
1775,599,-115,1049,20,-35,3
1776,399,-2,1072,37,53,4
1777,-144,110,987,7,91,20
1778,-552,119,883,-21,52,17
1779,-529,6,859,-50,-34,-7
1780,-33,-130,1026,-28,-101,-14
1781,499,-142,1097,14,-81,-3
1782,566,-65,1051,26,6,4
1783,163,-180,1106,-6,73,15
1784,-360,-200,210,-119,59,15
1785,-614,535,1079,334,3,12
1786,-348,238,572,-230,-73,10
1787,285,-187,1021,-27,-105,-25
1788,570,-135,590,-27,-37,-4
1789,508,199,1343,98,25,20
1790,-97,-374,444,-251,112,19
1791,-587,21,861,156,52,-12
1792,-554,-12,600,-70,-35,11
1793,-120,-44,1115,81,-97,-11
1794,445,35,861,4,-98,4
1795,655,360,1293,138,-14,8
1796,217,173,985,-176,76,4
1797,-151,-39,771,-75,98,14
1798,-436,-216,258,-315,-70,-75
1799,-9,428,299,459,-132,25
1800,-47,12,104,-526,-77,-35
1801,338,-166,268,302,-100,-40
1802,646,266,247,-11,13,138
1803,-514,875,1018,356,120,-35
1804,62,14,396,-471,21,2
1805,-516,-112,149,256,112,-9
1806,-98,761,682,326,-78,15
1807,260,-437,34,-703,-68,81
1808,251,-220,494,260,-81,-71
1809,557,96,210,123,68,-81
1810,-218,9,497,154,234,-49
1811,275,241,-163,-5,-26,207
1812,-554,164,224,-419,-80,33
1813,111,-376,16,-47,-223,100
1814,365,493,636,348,-113,107
1815,-199,-26,727,-333,123,-142
1816,757,-397,466,46,-13,40
1817,-233,1175,529,591,134,106
1818,-513,170,534,-503,24,-65
1819,81,-671,172,-263,-8,4
1820,-38,91,-88,240,-55,-63
1821,435,270,18,-109,-137,-42
1822,134,82,356,-203,-3,38
1823,-57,-303,-40,-137,50,34
1824,-392,1017,607,953,39,-3
1825,-163,-395,-152,-950,-36,-55
1826,370,-72,219,381,-77,89
1827,-11,524,648,-22,-28,-48
1828,736,-387,386,-289,8,-11
1829,-225,-258,559,5,94,52
1830,-171,183,461,171,39,-39
1831,-545,-240,882,-188,17,12
1832,-198,-541,385,58,-38,8
1833,286,155,785,391,-77,-3
1834,402,433,863,85,-21,-20
1835,569,149,872,-83,35,41
1836,-298,277,881,-3,82,11
1837,-334,196,841,-68,51,-24
1838,-441,-280,734,-242,-29,9
1839,-45,-294,1016,36,-73,-25
1840,497,-337,982,-23,-64,17
1841,325,-155,1068,88,20,1
1842,136,9,881,80,57,5
1843,-369,296,1094,94,66,28
1844,-505,180,796,-56,-7,7
1845,-191,55,1025,-23,-76,-10
1846,294,3,1121,-25,-82,-11
1847,576,-113,1027,-58,-29,-1
1848,306,-78,1035,-5,64,8
1849,-163,-1,970,-16,88,23
1850,-570,-45,863,-33,44,13
1851,-505,-89,840,-7,-39,-15
1852,12,-110,1046,26,-107,-11
1853,521,-68,1102,47,-80,6
1854,562,37,1057,44,12,7
1855,133,176,1075,36,79,9
1856,-340,191,932,-46,78,19
1857,-607,56,848,-76,20,2
1858,-331,-145,906,-74,-71,-16
1859,255,-235,1087,-9,-102,-8
1860,573,-189,1052,28,-42,2
1861,423,-43,1029,59,45,5
1862,-87,149,1029,47,87,19
1863,-539,153,880,-22,58,18
1864,-536,58,864,-33,-33,-4
1865,-61,-34,1027,-24,-99,-14
1866,501,-119,1101,-19,-83,-3
1867,577,-114,1030,0,3,2
1868,186,23,1065,32,80,11
1869,-329,80,932,-23,83,24
1870,-620,25,823,-31,23,7
1871,-409,-217,867,-52,-70,-12
1872,169,-296,644,-60,-123,-10
1873,676,163,1158,250,-66,12
1874,386,176,978,-75,40,8
1875,-8,68,820,-11,86,3
1876,-405,155,781,-13,63,29
1877,-682,134,962,-17,-7,-14
1878,-35,-343,681,-180,-95,-9
1879,393,-134,1209,134,-80,5
1880,563,8,1026,1,-11,-7
1881,285,-49,1010,-3,63,19
1882,-343,-168,718,-130,65,8
1883,-557,174,805,108,-4,5
1884,-350,237,754,-53,-72,5
1885,55,117,896,12,-101,-16
1886,659,-285,814,-230,-103,12
1887,244,-301,59,-25,56,42
1888,220,415,977,374,40,-39
1889,-308,72,462,-203,155,45
1890,-378,-91,622,41,25,-63
1891,17,154,-2,150,-27,20
1892,-63,360,983,15,-97,-9
1893,552,-609,53,-417,-35,-2
1894,196,182,1041,380,40,60
1895,-283,440,857,-106,20,4
1896,48,-257,258,-445,8,-66
1897,-334,15,509,276,-49,42
1898,167,683,775,169,-114,38
1899,78,41,1139,-244,-14,-36
1900,540,92,124,-389,-129,-85
1901,27,843,813,440,-32,29
1902,-456,685,1088,-167,65,13
1903,-235,-540,179,-488,25,-22
1904,-298,0,1083,297,-70,7
1905,398,-77,319,-283,-77,-71
1906,258,-701,-90,-44,34,13
1907,195,735,374,733,13,121
1908,-504,796,1174,-64,69,-35
1909,-217,-619,-408,-554,-3,-11
1910,-248,499,1213,420,-74,37
1911,32,107,1062,-252,-61,-63
1912,847,-524,203,-245,-61,25
1913,-38,161,1061,151,85,28
1914,432,-547,70,-216,11,-12
1915,-472,103,872,262,137,-2
1916,-866,0,806,-101,1,-28
1917,242,-336,441,22,-153,65
1918,-174,318,1277,246,-49,-29
1919,756,-23,1029,-118,-73,-57
1920,486,64,911,64,46,55
1921,-189,456,1245,73,84,7
1922,-225,-194,428,-370,10,1
1923,-818,-74,829,39,26,1
1924,6,-119,720,-65,-152,-25
1925,459,-179,1149,-65,-81,4
1926,483,-57,946,74,-5,4
1927,323,53,1080,-2,52,29
1928,-487,151,993,30,101,-1
1929,-439,80,756,-54,2,-2
1930,-361,-6,990,-29,-59,8
1931,202,-136,1057,-36,-94,-8
1932,560,-184,1045,-3,-41,-4
1933,350,27,1107,73,40,-3
1934,0,78,931,-25,74,28
1935,-531,99,938,-4,64,22
1936,-530,-25,824,-58,-29,-13
1937,-85,-106,1050,7,-90,-17
1938,467,-93,1074,10,-86,2
1939,588,-50,1043,24,-2,8
1940,181,58,1072,20,78,11
1941,-329,102,941,-17,79,18
1942,-602,59,852,-37,23,3
1943,-348,-54,889,-40,-67,-11
1944,220,-171,1081,-16,-104,-5
1945,572,-149,1079,27,-45,2
1946,438,-3,1054,50,39,3
1947,-38,130,1025,20,84,19
1948,-492,130,866,-30,64,22
1949,-582,21,861,-51,-17,-7
1950,-126,-117,1005,-32,-96,-18
1951,462,-140,1088,7,-91,-1
1952,600,-82,1050,22,-9,4
1953,255,32,1055,30,72,11
1954,-307,112,946,-6,89,22
1955,-608,88,857,-25,31,6
1956,-413,-31,877,-45,-61,-11
1957,165,-132,1074,-12,-106,-10
1958,579,-131,1092,16,-59,2
1959,483,-22,1052,35,32,3
1960,4,104,1028,20,87,17
1961,-469,129,888,-26,70,22
1962,-599,23,849,-48,-7,-4
1963,-200,-122,980,-36,-90,-17
1964,396,-342,996,-19,-95,-2
1965,493,-314,427,31,5,-2
1966,370,409,992,326,56,25
1967,-293,453,1007,-108,79,24
1968,-535,104,829,-107,44,-8
1969,-433,-162,786,-96,-50,2
1970,17,-481,236,-269,-130,40
1971,571,111,590,422,-26,-65
1972,256,222,-36,-40,55,-29
1973,-140,-100,585,-92,107,95
1974,-493,-7,261,-41,49,28
1975,-461,122,241,108,-35,-22
1976,-226,-81,873,-136,-84,12
1977,438,-357,596,0,-107,-34
1978,722,109,1165,205,-17,6
1979,269,90,1018,-72,106,1
1980,-118,-52,825,-30,72,21
1981,-704,194,850,65,65,14
1982,-549,18,970,-94,-48,-34
1983,72,-172,846,-31,-133,13
1984,451,-79,1181,32,-71,3
1985,511,-29,900,20,1,19
1986,266,301,881,63,31,22
1987,-240,-188,219,-365,75,-80
1988,-133,279,315,378,-19,77
1989,-728,832,968,-41,-59,61
1990,78,-321,481,-499,-68,-87
1991,666,28,568,343,-125,8
1992,68,931,562,177,44,16
1993,73,21,1217,-277,69,-1
1994,-365,-217,202,-156,81,23
1995,-642,422,1033,225,-39,-24
1996,330,-188,532,-654,-11,41
1997,189,-368,14,183,-79,55
1998,60,1037,1010,747,-9,31
1999,36,-97,574,-615,100,-56
2000,267,-375,247,16,-21,90
2001,-846,846,719,299,91,-32
2002,-59,-155,247,-663,-133,-74
2003,171,-492,-233,-124,-126,78
2004,67,790,1281,586,2,-24
2005,462,-626,659,-688,9,-32
2006,29,-284,319,168,14,95
2007,-638,699,722,329,94,-36
2008,-222,89,895,-211,-62,-35
2009,-133,-313,342,-171,-74,50
2010,348,264,1275,294,-50,-21
2011,572,-250,482,-275,-18,-3
2012,4,11,814,183,136,28
2013,-272,78,931,-47,61,25
2014,-373,35,612,67,25,8
2015,-640,-113,831,-223,-79,-44
2016,423,-187,983,90,-132,-2
2017,423,48,1123,9,-53,31
2018,403,0,993,30,42,-29
2019,137,43,1029,-14,72,35
2020,-601,292,946,67,75,16
2021,-443,37,808,-151,-20,-15
2022,-156,-120,1038,-28,-78,-7
2023,363,-154,1056,-25,-86,-3
2024,567,-225,1049,-12,-10,-2
2025,251,-12,1039,66,65,14
2026,-252,92,921,4,79,23
2027,-598,77,904,-4,38,5
2028,-401,-8,852,-26,-59,-8
2029,132,-27,1116,19,-106,-9
2030,585,-69,1069,-15,-59,4
2031,501,-12,1057,8,30,5
2032,-6,76,1024,-1,90,11
2033,-433,80,904,-35,70,19
2034,-595,-15,831,-59,-3,-1
2035,-214,-161,960,-28,-87,-17
2036,383,-184,1107,17,-100,-4
2037,581,-98,1054,48,-24,3
2038,337,68,1049,52,59,9
2039,-197,193,994,13,90,22
2040,-574,122,863,-55,43,12
2041,-485,-20,885,-55,-44,-13
2042,70,-130,1048,-27,-105,-13
2043,535,-169,1083,-1,-70,1
2044,533,-101,1026,23,19,3
2045,73,64,1045,45,84,13
2046,-410,123,917,-9,76,19
2047,-601,63,841,-31,4,4
2048,-283,-40,954,-27,-81,-13
2049,331,-115,1111,-5,-106,-6
2050,593,-97,1050,13,-32,2
2051,383,20,1060,34,54,5
2052,-137,113,989,-4,91,22
2053,-569,82,871,-41,55,16
2054,-534,-33,853,-45,-35,-13
2055,-23,-133,1033,-15,-104,-14
2056,568,-328,895,-41,-88,-11
2057,471,-240,394,-47,19,-35
2058,142,599,903,434,56,74
2059,-463,675,1119,-129,66,29
2060,-519,-28,564,-233,18,-37
2061,-247,-18,663,-4,-65,38
2062,298,230,586,344,210,138
2063,441,-52,327,500,64,56
2064,97,865,1136,381,75,4
2065,-143,-149,211,-573,138,3
2066,-87,-29,371,375,54,87
2067,-678,634,1083,204,14,-47
2068,147,-493,534,-581,-145,-30
2069,598,-202,26,210,-13,13
2070,369,-128,16,-318,-54,-165
2071,191,-69,-3,260,-10,114
2072,-527,919,883,324,125,-3
2073,-99,-536,-233,-831,-105,-93
2074,129,375,266,468,-86,111
2075,17,692,465,270,-70,-118
2076,504,-798,-27,-1250,-173,-26
2077,181,946,-19,1246,54,153
2078,-319,660,673,-420,167,-52
2079,127,-652,106,-543,-32,-9
2080,-458,418,382,419,21,100
2081,-93,-70,-255,-306,-51,-129
2082,289,136,1026,188,-89,31
2083,203,-266,534,-356,28,52
2084,640,-218,309,266,6,1
2085,-610,24,676,-135,132,-31
2086,-179,-219,281,-118,-52,171
2087,101,-194,101,137,-38,78
2088,-13,944,869,626,-100,-117
2089,470,-504,168,-778,-29,23
2090,430,570,680,702,51,36
2091,-224,751,1223,-179,33,2
2092,-111,-401,255,-405,85,26
2093,-654,-84,925,83,7,-15
2094,-103,-42,1037,11,-108,-47
2095,430,-587,836,-224,-52,-8
2096,417,-125,1036,274,-3,18
2097,303,98,1172,10,31,23
2098,-341,51,892,30,107,3
2099,-408,266,855,69,5,-2
2100,-344,210,951,-29,-49,-8
2101,71,-25,1070,-88,-75,0
2102,459,-140,1041,-37,-64,-2
2103,436,-36,1147,19,20,-11
2104,90,-71,908,-61,82,16
2105,-343,-12,924,7,66,22
2106,-584,-71,822,-35,11,-14
2107,-279,-109,955,33,-72,-34
2108,263,-17,1170,47,-107,1
2109,544,-50,992,-6,-36,15
2110,385,69,1070,60,45,2
2111,-119,184,1053,-7,79,16
2112,-488,49,846,-80,52,16
2113,-494,-16,841,-37,-28,-5
2114,-38,-114,1026,-42,-98,-13
2115,470,-173,1094,-3,-69,0
2116,500,-35,1074,43,6,6
2117,161,97,1057,20,64,12
2118,-314,72,883,-47,81,23
2119,-589,33,864,-29,13,0
2120,-308,-93,942,-39,-71,-15
2121,247,-158,1081,2,-97,-6
2122,572,-90,1045,38,-41,3
2123,412,33,1061,38,44,8
2124,-114,126,998,1,88,18
2125,-522,114,885,-30,50,14
2126,-508,16,862,-47,-33,-5
2127,-38,-126,1008,-39,-96,-13
2128,493,-173,1087,3,-81,-4
2129,545,-86,1055,33,5,0
2130,165,57,1059,38,74,12
2131,-326,137,926,-10,80,24
2132,-604,69,851,-43,23,4
2133,-356,-75,913,-40,-71,-16
2134,240,-139,1104,2,-106,-7
2135,584,-122,1058,18,-46,5
2136,448,-7,1058,37,43,4
2137,-75,113,1022,12,93,18
2138,-534,112,886,-30,64,16
2139,-570,10,847,-44,-24,-6
2140,-118,-112,995,-26,-96,-12
2141,474,-158,1098,5,-89,-2
2142,591,-89,1045,32,-7,1
2143,232,68,1072,46,73,8
2144,-287,146,942,-9,86,24
2145,-615,95,846,-40,33,10
2146,-412,-52,892,-52,-62,-14
2147,178,-151,1076,-12,-107,-10
2148,583,-130,1083,19,-58,3
2149,496,-34,1047,31,33,4
2150,-10,96,1021,23,91,18
2151,-488,130,896,-22,68,18
2152,-585,24,853,-47,-10,-5
2153,-178,-108,972,-35,-91,-14
2154,432,-141,1112,9,-96,-4
2155,596,-103,1049,15,-15,2
2156,284,32,1053,40,67,8
2157,-250,140,969,2,88,23
2158,-600,91,856,-42,40,10
2159,-448,-58,874,-49,-51,-13
2160,115,-137,1063,-1,-109,-11
2161,561,-121,1105,18,-66,1
2162,525,-46,974,25,24,1
2163,336,-267,530,-230,48,-42
2164,-66,-214,548,248,178,98
2165,-238,583,234,193,-80,52
2166,-453,252,1051,-29,-31,-14
2167,639,-350,205,-290,-121,-28
2168,618,410,1220,365,-52,35
2169,228,70,385,-426,77,-40
2170,74,-327,570,-22,93,30
2171,-809,505,1112,205,53,38
2172,-438,-289,580,-349,-40,-71
2173,59,-202,191,-2,-67,-7
2174,361,71,485,238,-129,12
2175,291,335,225,144,41,-8
2176,66,-167,-102,-376,100,30
2177,-22,756,131,859,92,64
2178,-569,321,469,-520,20,-72
2179,377,-757,-173,-269,-95,86
2180,-101,630,768,372,-88,2
2181,48,-585,330,-582,-52,-102
2182,581,-672,208,30,-50,111
2183,-411,958,1009,665,152,-31
2184,-189,-110,1028,-503,-20,8
2185,-476,-294,62,31,23,38
2186,-389,667,1294,297,-103,-52
2187,776,-266,550,-378,-103,0
2188,380,-32,1048,111,38,42
2189,47,-121,801,-70,47,-19
2190,-231,3,403,118,113,20
2191,-745,-66,807,-37,74,12
2192,-12,-6,426,131,-83,24
2193,7,-12,1006,-140,-135,-49
2194,528,-119,918,9,-76,-25
2195,495,153,1050,73,33,31
2196,-153,266,1046,6,68,-10
2197,-265,-39,773,-134,57,23
2198,-625,1,969,11,-1,-8
2199,-127,-128,940,-55,-99,-29
2200,427,-234,1019,-17,-76,10
2201,490,-41,1079,65,-12,14
2202,256,8,1001,12,51,5
2203,-283,182,1013,36,88,8
2204,-499,225,828,-30,11,9
2205,-323,79,1018,-78,-54,-4
2206,162,-180,997,-90,-79,-6
2207,497,-215,1089,-14,-47,-7
2208,393,-122,1051,18,36,4
2209,-35,-22,953,1,80,25
2210,-502,46,876,15,54,15
2211,-536,4,888,-12,-23,-10
2212,-117,-59,994,11,-94,-10
2213,467,-14,1113,35,-95,2
2214,602,12,1075,6,-7,5
2215,229,74,1053,2,76,7
2216,-296,113,956,-31,84,14
2217,-590,39,861,-56,32,4
2218,-396,-134,844,-68,-57,-10
2219,152,-222,1067,2,-104,-10
2220,561,-167,1098,41,-55,2
2221,463,-17,1025,61,31,5
2222,-5,181,1043,57,84,19
2223,-459,205,899,-30,66,25
2224,-590,65,857,-60,-10,-5
2225,-169,-80,994,-42,-92,-19
2226,425,-139,1101,-13,-93,-1
2227,588,-153,1028,-8,-14,5
2228,283,-28,1040,40,67,8
2229,-269,103,981,10,91,19
2230,-594,68,845,-29,37,8
2231,-454,-18,867,-24,-54,-8
2232,113,-85,1087,-2,-112,-10
2233,565,-117,1087,7,-68,-1
2234,519,-18,1047,33,26,1
2235,53,123,1045,23,88,16
2236,-424,113,896,-47,75,23
2237,-615,9,839,-48,1,-2
2238,-252,-130,962,-38,-86,-18
2239,361,-173,1105,11,-103,-4
2240,604,-115,1038,26,-26,4
2241,364,34,1060,50,57,6
2242,-181,148,990,8,91,20
2243,-573,117,874,-35,48,14
2244,-501,0,867,-46,-42,-9
2245,36,-121,1048,-28,-105,-12
2246,524,-165,1082,3,-73,-1
2247,546,-82,1043,28,14,2
2248,108,68,1048,38,83,14
2249,-381,132,908,-18,79,23
2250,-504,-87,437,-184,-9,-1
2251,-189,-26,477,169,-85,-2
2252,289,164,241,49,-70,-8
2253,413,-24,846,44,-40,-31
2254,567,18,675,-57,32,45
2255,-324,385,1042,110,119,11
2256,-462,-25,789,-222,31,-12
2257,-525,-524,558,-147,-24,78
2258,-112,81,1025,247,-133,-40
2259,687,-261,505,-213,-100,-12
2260,432,74,1128,229,39,27
2261,174,163,823,-63,73,5
2262,-419,334,1060,110,78,18
2263,-670,59,763,-205,15,18
2264,-224,-162,986,-5,-97,-2
2265,302,-143,1087,-18,-102,-18
2266,671,-240,1016,-3,-23,-7
2267,393,-81,1048,51,60,24
2268,-235,139,947,58,95,27
2269,-651,122,914,-16,51,2
2270,-515,5,823,-34,-59,-1
2271,70,-1,1089,28,-116,-3
2272,643,-98,1090,-24,-76,-9
2273,618,-50,1070,25,24,2
2274,77,101,1027,13,102,13
2275,-530,163,909,-27,83,20
2276,-694,37,820,-74,-5,1
2277,-248,-131,947,-43,-96,-26
2278,421,-207,1081,-4,-111,-15
2279,698,-137,1132,43,-30,5
2280,381,12,995,31,71,21
2281,-238,184,1019,35,103,22
2282,-696,150,846,-50,48,12
2283,-551,25,905,-47,-54,-15
2284,50,-109,1027,-37,-121,-15
2285,656,-166,1100,-5,-87,-3
2286,650,-129,1049,11,23,4
2287,122,52,1047,38,103,16
2288,-483,137,925,-11,95,21
2289,-729,85,827,-34,13,-1
2290,-356,-44,924,-41,-93,-18
2291,329,-152,1093,-16,-121,-13
2292,708,-145,1073,12,-47,3
2293,494,4,1069,37,54,10
2294,-106,127,1016,9,108,20
2295,-611,119,870,-39,71,14
2296,-620,15,858,-45,-26,-15
2297,-89,-140,989,-42,-105,-23
2298,504,-186,1084,7,-97,-2
2299,624,-112,1064,29,-7,8
2300,246,57,1046,44,77,15
2301,-312,160,970,3,90,19
2302,-611,112,849,-39,29,3
2303,-403,-27,894,-49,-58,-19
2304,166,-156,1066,-29,-107,-13
2305,584,-169,1066,10,-57,2
2306,461,-27,1051,43,32,7
2307,3,109,1045,18,83,20
2308,-437,101,878,-31,71,13
2309,-598,37,859,-33,-4,-8
2310,-212,-109,953,-43,-91,-12
2311,377,-153,1111,16,-103,-4
2312,592,-103,1052,22,-23,4
2313,336,19,1066,40,60,9
2314,-207,125,968,4,89,23
2315,-585,127,874,-21,44,13
2316,-504,-21,860,-59,-46,-7
2317,41,-142,1034,-14,-109,-11
2318,551,-133,1109,19,-78,-1
2319,573,-58,1038,26,16,3
2320,116,86,1050,36,86,16
2321,-401,150,923,-17,83,24
2322,-635,66,844,-48,10,1
2323,-329,-87,919,-47,-81,-17
2324,309,-154,1106,-1,-111,-8
2325,624,-132,1048,16,-41,5
2326,429,-16,1058,40,52,5
2327,-110,123,1000,18,92,23
2328,-566,140,890,-24,59,17
2329,-563,7,842,-56,-31,-9
2330,-69,-120,1012,-23,-104,-15
2331,515,-141,1107,9,-90,-1
2332,607,-92,1042,17,1,1
2333,205,52,1061,38,81,10
2334,-336,132,937,-12,86,23
2335,-639,63,846,-41,26,6
2336,-395,-70,892,-42,-72,-14
2337,226,-137,1096,2,-112,-10
2338,614,-128,1078,14,-53,2
2339,475,-21,1042,36,42,3
2340,-48,133,1037,25,92,18
2341,-523,134,886,-36,67,20
2342,-592,3,837,-55,-18,-6
2343,-144,-120,991,-26,-97,-16
2344,467,-154,1117,8,-95,-2
2345,601,-110,1033,20,-12,3
2346,261,56,1068,52,74,9
2347,-286,150,963,-6,87,24
2348,-625,82,836,-44,33,8
2349,-429,-35,892,-38,-61,-15
2350,167,-126,1083,-12,-109,-10
2351,587,-150,1082,3,-59,2
2352,543,-289,1035,-17,33,3
2353,-97,20,730,120,110,15
2354,-402,439,1029,141,62,34
2355,-703,237,690,-134,-6,0
2356,-147,-16,1039,-50,-100,-34
2357,482,-153,1016,-69,-105,15
2358,601,-144,1175,-2,-10,-11
2359,471,-307,906,-57,78,8
2360,-268,-192,258,-103,130,31
2361,-488,301,313,393,18,26
2362,-595,562,565,-36,-46,17
2363,-3,43,921,-95,-108,-49
2364,850,-97,520,-69,-124,53
2365,344,226,874,71,51,-24
2366,274,-312,716,-248,92,-27
2367,-278,-351,627,7,77,54
2368,-738,-238,79,-248,-50,-40
2369,95,282,264,437,-137,22
2370,-82,650,640,-56,-98,-10
2371,553,63,734,-101,-78,-57
2372,613,105,552,-55,42,72
2373,-313,448,846,36,113,-5
2374,-253,-485,465,-429,51,-6
2375,-571,-626,189,-61,-1,32
2376,-322,-295,367,519,33,-48
2377,564,404,457,338,-153,38
2378,127,697,1026,70,36,24
2379,406,19,424,-220,18,-39
2380,-89,465,820,123,41,22
2381,-562,150,728,-254,68,-8
2382,-80,-641,726,-275,-68,9
2383,-20,-331,1018,129,-40,1
2384,420,-289,998,-12,-35,-26
2385,295,-246,949,70,29,10
2386,-137,239,975,185,53,29
2387,-398,302,1072,4,32,18
2388,-381,116,816,-44,-42,1
2389,60,145,1052,16,-88,-19
2390,501,-10,1169,-73,-53,-11
2391,465,-191,887,-85,20,18
2392,6,-112,482,13,95,15
2393,-320,-52,556,5,70,17
2394,-605,112,910,31,9,-5
2395,-310,-261,679,-122,-79,-26
2396,347,-104,1156,146,-111,14
2397,544,49,1069,33,-37,6
2398,479,36,1063,18,41,-4
2399,-109,231,982,24,95,20
2400,-546,208,942,-55,59,6
2401,-548,-104,796,-137,-25,-4
2402,-98,-184,995,-6,-95,-11
2403,503,-216,1109,-5,-91,-6
2404,584,-197,1023,24,1,-1
2405,201,46,1052,86,77,13
2406,-333,197,984,25,82,30
2407,-619,132,832,-42,26,11
2408,-383,25,898,-31,-67,-18
2409,210,-84,1109,-25,-110,-17
2410,609,-151,1070,-17,-53,5
2411,478,-56,1046,24,40,8
2412,-30,73,1033,15,93,18
2413,-513,61,867,-38,71,16
2414,-617,-10,840,-28,-12,-10
2415,-178,-110,986,-13,-101,-11
2416,446,-122,1109,24,-101,4
2417,622,-57,1049,31,-17,2
2418,302,86,1067,44,70,4
2419,-257,164,974,-14,91,22
2420,-606,104,851,-47,41,13
2421,-463,-55,872,-64,-51,-10
2422,108,-186,1053,-23,-109,-14
2423,560,-175,1090,22,-66,-1
2424,521,-63,1031,41,23,4
2425,48,105,1042,47,87,20
2426,-437,153,907,-16,74,25
2427,-608,70,850,-38,0,-2
2428,-239,-58,976,-37,-87,-19
2429,378,-129,1103,-5,-102,-4
2430,602,-117,1039,7,-25,5
2431,349,-1,1059,33,60,9
2432,-198,89,966,-2,92,20
2433,-583,85,877,-22,46,11
2434,-500,-25,858,-44,-44,-9
2435,35,-127,1051,-9,-106,-10
2436,536,-126,1089,21,-77,-1
2437,553,-31,1054,35,15,1
2438,112,100,1044,26,85,12
2439,-386,135,916,-24,82,23
2440,-617,50,854,-47,8,3
2441,-308,-106,931,-48,-80,-18
2442,302,-171,1098,3,-106,-8
2443,601,-127,1050,24,-38,4
2444,407,2,1061,45,53,7
2445,-126,133,992,14,92,20
2446,-558,137,892,-27,56,15
2447,-539,7,852,-55,-33,-9
2448,-38,-121,1023,-27,-102,-13
2449,507,-147,1095,9,-84,-1
2450,551,-299,1005,-26,5,3
2451,152,-125,768,72,87,11
2452,-244,328,1133,203,77,30
2453,-738,124,738,-147,20,7
2454,-223,56,951,44,-76,-19
2455,192,103,1047,4,-101,14
2456,583,183,1279,11,-54,-20
2457,608,-345,991,-194,54,16
2458,-240,-693,150,-292,70,-5
2459,-436,506,917,566,26,22
2460,-654,409,485,-280,-3,46
2461,-175,40,1157,33,-112,-60
2462,519,-269,369,-285,-72,-32
2463,295,879,583,992,-91,-46
2464,420,540,125,-467,63,61
2465,-362,330,629,22,109,-42
2466,-270,243,475,-207,41,26
2467,-408,-63,666,-313,-94,-30
2468,23,-203,304,-321,-211,-135
2469,815,579,118,404,-150,140
2470,-26,550,234,-203,49,26
2471,105,284,482,-1,53,-65
2472,4,-92,524,-212,53,35
2473,-901,-319,107,-464,-64,15
2474,218,158,575,497,-200,28
2475,595,266,-22,-333,-44,-78
2476,4,23,427,9,40,-50
2477,344,398,36,-47,-74,205
2478,-908,946,1029,238,144,-43
2479,-156,-77,204,-1093,-192,-115
2480,34,295,895,328,-266,19
2481,252,509,301,-166,-70,-95
2482,472,-383,882,-230,-102,-26
2483,309,-114,403,103,109,76
2484,41,681,1083,250,20,16
2485,-598,37,484,-414,86,-43
2486,-104,-261,289,-253,-64,-61
2487,31,475,227,488,-172,72
2488,178,568,790,77,-44,-35
2489,325,-684,21,-594,-21,-36
2490,375,253,361,550,71,2
2491,-376,55,412,-179,143,6
2492,-197,25,351,48,9,23
2493,-646,357,1122,43,-28,-5
2494,272,-605,396,-377,-112,-37
2495,429,-122,575,288,-60,14
2496,347,-4,514,-57,11,-19
2497,387,-112,834,21,62,43
2498,-569,215,784,62,96,31
2499,-509,182,871,-7,-15,-33
2500,-275,-127,860,-111,-65,1
2501,266,16,1064,77,-107,1
2502,670,-91,1055,-50,-38,2
2503,352,-65,1050,0,67,6
2504,-128,39,930,6,82,14
2505,-547,102,984,-14,55,10
2506,-513,-60,743,-66,-29,-2
2507,-44,-152,1042,-1,-104,-14
2508,524,-242,877,13,-79,-12
2509,468,16,790,103,17,13
2510,196,258,943,64,65,13
2511,-298,188,942,-62,88,22
2512,-675,54,848,-77,22,2
2513,-286,-102,925,-52,-80,-19
2514,234,-209,1087,-36,-94,-2
2515,564,-215,1019,19,-45,0
2516,432,-79,1063,46,45,9
2517,-133,133,1021,63,95,18
2518,-505,151,871,-24,47,16
2519,-551,81,868,-19,-25,0
2520,-85,-56,1001,-39,-99,-12
2521,495,-122,1123,6,-90,-2
2522,578,-69,1043,5,2,3
2523,232,41,1051,26,76,11
2524,-319,102,942,-23,85,24
2525,-633,36,828,-41,33,5
2526,-420,-90,888,-37,-66,-16
2527,191,-135,1078,11,-112,-7
2528,604,-110,1083,23,-58,5
2529,489,-8,1044,38,35,3
2530,-9,147,1048,29,88,18
2531,-491,147,897,-42,69,20
2532,-577,23,839,-56,-12,-3
2533,-172,-121,978,-42,-91,-16
2534,429,-186,1111,-1,-94,-4
2535,589,-140,1028,21,-17,3
2536,284,42,1065,59,66,8
2537,-248,142,968,-4,88,23
2538,-608,84,847,-35,39,9
2539,-447,-26,884,-34,-56,-13
2540,130,-109,1079,-11,-110,-9
2541,563,-132,1081,3,-64,1
2542,517,-38,1044,29,26,2
2543,21,96,1043,23,91,14
2544,-448,112,893,-30,73,20
2545,-601,31,844,-37,-4,0
2546,-236,-101,972,-35,-87,-15
2547,384,-159,1100,8,-102,-5
2548,593,-95,1053,29,-23,2
2549,278,-285,775,-70,78,2
2550,-130,9,410,256,97,5
2551,-362,574,609,156,32,53
2552,-831,202,493,-215,-40,-33
2553,312,-4,771,8,-151,-8
2554,438,183,910,-7,-49,30
2555,487,-133,784,-135,16,-43
2556,297,-447,604,-156,80,40
2557,-478,-337,329,138,220,35
2558,-434,208,427,582,-21,1
2559,-75,663,141,93,-50,30
2560,-117,419,788,-15,-106,-59
2561,895,-79,533,-223,-74,29
2562,251,359,636,140,77,52
2563,59,-182,-318,-637,88,-113
2564,-167,-338,107,144,162,-76
2565,-508,665,185,499,51,159
2566,-538,-6,271,-240,3,-29
2567,108,-352,203,37,-173,8
2568,516,813,371,519,-98,76
2569,245,-60,237,-792,6,-153
2570,176,42,472,270,-58,45
2571,-234,969,248,231,113,167
2572,-419,138,331,-468,39,-76
2573,226,-663,216,-58,-137,-12
2574,-75,965,758,542,14,26
2575,418,-134,502,-541,-63,-11
2576,329,-76,25,-27,98,45
2577,-95,452,-130,397,137,-63
2578,-68,261,398,105,-29,-28
2579,194,-79,433,-113,55,13
2580,308,133,9,346,-148,18
2581,156,909,454,288,-5,-28
2582,198,-295,86,-613,64,-12
2583,-44,225,1066,240,14,27
2584,-596,14,605,-192,52,14
2585,178,-475,301,-99,-66,-40
2586,-403,-414,903,-35,-33,-23
2587,723,-359,152,90,-106,9
2588,150,102,1115,193,75,10
2589,-122,316,691,152,63,19
2590,-199,190,721,-154,2,47
2591,-538,375,1031,168,2,-27
2592,146,88,889,-246,-94,-13
2593,278,-90,1179,19,-37,10
2594,548,-252,859,-179,-5,9
2595,152,-157,1126,79,81,8
2596,-347,-110,862,-94,73,5
2597,-537,-139,800,57,22,-1
2598,-414,-38,1007,32,-67,-6
2599,234,-52,1017,55,-112,7
2600,560,50,1134,58,-50,-3
2601,489,178,1061,44,28,-7
2602,-19,210,1068,-28,93,19
2603,-475,124,884,-86,71,21
2604,-552,-36,847,-82,-9,-2
2605,-203,-267,963,-90,-83,-24
2606,398,-323,1062,26,-93,-12
2607,552,-169,1050,58,-19,10
2608,294,50,1057,96,63,18
2609,-227,200,963,28,83,26
2610,-584,215,888,-1,37,6
2611,-423,71,908,-63,-50,-15
2612,116,-72,1061,-35,-105,-5
2613,553,-134,1080,-23,-63,5
2614,508,-107,1043,-2,27,2
2615,28,-7,1002,8,91,12
2616,-440,58,898,-9,73,17
2617,-606,18,841,-18,-1,2
2618,-257,-96,947,-21,-89,-10
2619,364,-103,1122,35,-109,-5
2620,613,-34,1056,27,-29,-2
2621,377,72,1065,31,59,5
2622,-156,149,977,-13,92,24
2623,-571,110,890,-47,53,15
2624,-522,-66,841,-74,-37,-15
2625,5,-191,1028,-25,-104,-16
2626,510,-176,1092,23,-77,2
2627,552,-98,1034,34,11,7
2628,121,77,1051,57,81,13
2629,-368,171,934,-2,77,22
2630,-609,104,858,-40,10,3
2631,-313,-37,933,-44,-77,-15
2632,287,-118,1106,-10,-105,-6
2633,589,-122,1060,1,-38,2
2634,408,-36,1031,25,47,3
2635,-110,102,1012,15,90,18
2636,-544,84,877,-34,59,18
2637,-549,-29,835,-42,-31,-4
2638,-60,-102,1035,-2,-104,-12
2639,505,-117,1094,16,-88,0
2640,584,-52,1045,27,5,2
2641,193,90,1066,35,78,11
2642,-331,148,940,-20,85,24
2643,-617,57,847,-56,22,4
2644,-370,-91,895,-49,-69,-15
2645,228,-171,1092,-4,-107,-9
2646,602,-241,1019,-25,-51,-3
2647,198,-128,176,74,137,39
2648,138,743,485,817,72,65
2649,-528,753,181,-294,114,49
2650,-535,184,692,-79,-30,-61
2651,66,49,454,-169,-95,71
2652,151,-32,663,46,10,21
2653,127,-155,251,-25,64,22
2654,365,130,484,434,38,-135
2655,-217,204,331,-31,292,-27
2656,127,105,128,4,5,128
2657,-929,156,603,77,-81,146
2658,321,80,106,-136,-93,35
2659,330,121,305,55,-60,15
2660,338,-11,261,360,47,-55
2661,509,469,1036,-18,6,54
2662,-165,-115,87,-376,103,-46
2663,56,-60,241,187,-4,42
2664,-581,1000,1328,305,-54,11
2665,168,-562,533,-674,-63,-60
2666,390,-227,107,239,19,21
2667,456,479,215,-38,-33,-45
2668,185,-210,-199,-186,75,21
2669,-444,476,550,474,3,-24
2670,-222,180,868,-288,-92,-46
2671,232,-174,-49,-146,-78,16
2672,274,-24,195,92,-37,-18
2673,421,-390,-99,-54,49,15
2674,-132,692,1238,322,72,27
2675,-467,-258,289,-464,54,-18
2676,-160,-157,3,152,-31,42
2677,-412,-31,441,-51,-55,-37
2678,483,-526,466,-77,-116,-28
2679,453,121,620,202,10,40
2680,275,505,1152,178,35,-5
2681,-104,-51,687,-311,70,27
2682,-652,187,1019,170,64,-2
2683,-315,38,885,-179,-79,-17
2684,114,-286,952,-42,-84,-7
2685,519,-226,954,-16,-45,7
2686,472,-99,1143,86,16,4
2687,-38,-16,950,-16,87,13
2688,-394,165,904,81,67,22
2689,-554,171,927,-36,-15,2
2690,-206,-84,908,-63,-80,-11
2691,338,-98,1164,18,-95,-12
2692,591,-53,1057,7,-31,4
2693,358,-1,1027,-1,64,10
2694,-180,77,966,-11,96,19
2695,-595,41,899,-34,49,9
2696,-542,-92,838,-54,-38,-15
2697,17,-124,1041,24,-110,-9
2698,538,-115,1091,14,-83,5
2699,567,-61,1039,39,15,0
2700,125,123,1074,51,81,9
2701,-358,191,945,-16,80,25
2702,-603,79,825,-61,14,7
2703,-336,-78,922,-46,-74,-18
2704,264,-188,1107,-18,-105,-14
2705,579,-162,1046,20,-39,4
2706,433,-21,1039,48,44,9
2707,-77,123,1013,23,89,22
2708,-553,106,872,-28,62,15
2709,-552,17,869,-34,-33,-13
2710,-63,-63,1019,-9,-101,-12
2711,506,-116,1097,-10,-87,1
2712,595,-91,1036,15,3,3
2713,187,45,1073,29,80,9
2714,-326,100,931,-19,85,23
2715,-615,56,842,-36,24,8
2716,-384,-69,893,-40,-65,-13
2717,209,-163,1091,-1,-108,-12
2718,584,-114,1079,32,-52,2
2719,466,12,1051,42,39,4
2720,-36,135,1026,17,90,21
2721,-514,128,884,-35,67,21
2722,-584,10,852,-52,-19,-8
2723,-140,-116,989,-27,-96,-16
2724,458,-155,1099,4,-92,0
2725,592,-104,1038,22,-9,5
2726,244,45,1068,46,71,10
2727,-290,132,951,-3,85,23
2728,-603,96,845,-31,31,10
2729,-412,-29,890,-44,-60,-11
2730,165,-133,1079,-15,-106,-10
2731,575,-128,1084,15,-58,1
2732,487,-25,1048,32,32,5
2733,1,98,1022,19,87,20
2734,-565,-134,599,-176,106,12
2735,-430,97,426,509,47,5
2736,21,710,380,197,-105,29
2737,158,362,754,-123,-65,-33
2738,830,-85,610,-208,-50,-19
2739,299,198,832,70,85,57
2740,-272,97,757,-285,106,-17
2741,-342,-414,357,-280,22,-139
2742,310,407,57,438,-47,43
2743,-315,49,667,-263,-80,-39
2744,429,-384,263,-29,-96,-54
2745,596,391,825,341,-46,109
2746,-56,332,833,-102,49,-60
2747,122,-375,403,-242,42,6
2748,-395,328,974,247,34,29
2749,-182,-75,847,-219,-45,-61
2750,223,-445,701,-55,-36,20
2751,25,44,960,145,-8,10
2752,161,229,831,81,-18,33
2753,-89,380,650,-19,29,40
2754,-168,-88,-13,-180,54,-25
2755,145,0,440,260,-52,17
2756,-60,378,863,42,-49,8
2757,244,-222,432,-451,-20,-68
2758,183,95,394,322,-10,54
2759,-220,958,810,289,63,20
2760,-268,-1,630,-430,41,-43
2761,-392,-221,391,-47,-45,13
2762,-70,183,970,103,-65,-9
2763,499,-238,536,-295,-80,-9
2764,181,-164,386,-130,37,11
2765,207,257,250,317,49,43
2766,-494,816,1139,240,89,15
2767,-500,-357,281,-432,54,5
2768,-163,16,655,377,-33,82
2769,-87,549,1248,74,-97,-88
2770,809,-414,1008,-299,-97,-20
2771,502,-162,644,81,80,64
2772,-43,392,1266,151,70,-16
2773,-362,-285,712,-308,82,22
2774,-734,-102,753,93,32,6
2775,-310,74,1059,67,-122,-35
2776,410,-242,1089,-87,-107,-6
2777,587,-114,960,87,-25,17
2778,412,124,1276,81,29,-14
2779,265,-49,241,-25,83,-59
2780,-604,298,846,111,160,12
2781,-535,2,442,-186,-51,2
2782,-368,46,500,29,-69,-32
2783,90,146,1191,0,-135,-11
2784,846,-322,804,-202,-65,14
2785,334,-170,1148,89,48,-6
2786,64,17,1008,4,75,3
2787,-501,-197,791,-90,72,39
2788,-623,30,922,119,-12,-19
2789,54,5,999,3,-105,0
2790,318,43,1145,42,-58,4
2791,544,60,954,-1,-14,-1
2792,95,177,1168,26,63,6
2793,-321,54,847,-106,65,14
2794,-442,-76,892,-49,4,6
2795,-230,-161,969,-41,-60,-10
2796,317,-252,1016,0,-75,-6
2797,440,-94,1071,69,-18,5
2798,244,96,1039,65,47,14
2799,-211,151,970,-11,68,17
2800,-504,117,862,-15,24,3
2801,-318,11,953,-44,-55,-11
2802,163,-122,1053,-34,-86,-5
2803,524,-142,1059,-2,-45,5
2804,405,-42,1062,25,36,5
2805,-59,42,988,4,82,12
2806,-468,78,887,-10,56,15
2807,-533,13,863,-31,-18,-3
2808,-123,-118,989,-26,-93,-10
2809,437,-124,1102,28,-90,-4
2810,570,-39,1070,33,-8,0
2811,251,79,1051,29,71,9
2812,-272,155,957,-14,85,24
2813,-602,88,857,-48,35,7
2814,-430,-86,878,-65,-55,-16
2815,141,-179,1060,-7,-107,-12
2816,566,-156,1089,23,-62,2
2817,508,-55,1037,40,28,5
2818,14,119,1034,47,90,18
2819,-454,166,915,-18,71,21
2820,-597,62,846,-47,-5,-2
2821,-229,-82,962,-40,-90,-15
2822,392,-139,1117,3,-103,-5
2823,608,-125,1047,6,-22,3
2824,336,-1,1040,37,65,6
2825,-202,126,986,11,91,24
2826,-589,91,864,-36,46,14
2827,-505,-35,846,-43,-45,-11
2828,55,-118,1067,-4,-109,-12
2829,446,-344,636,-271,-93,-13
2830,594,79,317,661,84,68
2831,333,889,108,211,45,76
2832,-479,592,403,-126,125,-11
2833,-248,138,618,-233,-20,-14
2834,-242,122,744,-56,-65,51
2835,26,-714,338,-574,-91,-35
2836,388,213,879,805,-50,51
2837,678,461,-87,-279,62,-53
2838,-56,80,708,89,155,2
2839,30,335,-189,45,48,174
2840,-718,28,297,-110,16,-14
2841,402,-74,168,-31,-174,20
2842,419,445,799,155,-74,64
2843,313,72,298,-548,-9,-131
2844,773,-276,392,307,33,74
2845,-646,1302,1234,537,114,58
2846,-306,-320,402,-811,-1,-68
2847,-108,-449,-14,1,13,29
2848,-232,288,491,18,-82,-63
2849,409,-200,194,68,-95,95
2850,387,902,706,639,71,63
2851,-161,36,478,-530,-30,-96
2852,193,-344,17,-91,36,56
2853,-451,691,301,153,62,-21
2854,5,-80,749,-416,-176,-8
2855,564,-1179,-152,-306,1,75
2856,37,480,530,704,59,-79
2857,-96,-304,788,-469,19,-74
2858,85,-288,254,212,60,217
2859,-726,306,578,194,24,46
2860,249,386,846,288,-119,-164
2861,219,66,552,-204,-16,48
2862,312,298,774,187,-6,34
2863,501,260,1253,-118,-9,13
2864,-276,-29,730,-136,143,1
2865,-374,-109,900,-72,8,-25
2866,-356,-178,909,-28,-23,-28
2867,-161,-304,900,-31,-44,-23
2868,342,-383,1045,13,-95,-1
2869,500,-20,1151,194,-17,17
2870,187,209,990,58,67,3
2871,-177,257,983,42,52,12
2872,-477,202,865,-54,32,19
2873,-414,87,902,-42,-40,-11
2874,129,-63,1108,-67,-110,-10
2875,523,-116,1040,-4,-42,9
2876,455,-78,1034,-28,32,-7
2877,12,0,1056,-1,80,6
2878,-434,42,895,-36,73,27
2879,-565,-73,839,-54,-5,-8
2880,-207,-174,943,-7,-89,-17
2881,366,-146,1123,34,-91,0
2882,537,-61,1065,48,-24,4
2883,295,117,1040,58,54,10
2884,-205,227,1001,2,83,22
2885,-553,114,850,-73,34,7
2886,-431,-63,892,-63,-47,-17
2887,110,-166,1069,-25,-100,-10
2888,546,-188,1069,1,-63,8
2889,491,-99,1023,33,27,4
2890,20,71,1033,48,87,13
2891,-444,124,900,-9,69,21
2892,-577,67,850,-23,-7,3
2893,-201,-29,983,-23,-87,-11
2894,394,-102,1101,-6,-98,-7
2895,584,-94,1051,7,-19,-2
2896,320,32,1049,31,60,8
2897,-205,118,974,-13,90,25
2898,-577,53,859,-51,48,12
2899,-492,-79,849,-44,-45,-15
2900,54,-146,1070,1,-108,-15
2901,539,-141,1075,21,-75,3
2902,545,-26,1048,44,16,8
2903,85,124,1063,35,85,11
2904,-402,142,914,-30,79,19
2905,-614,65,847,-45,5,1
2906,-278,-78,951,-47,-82,-13
2907,321,-178,1097,-13,-103,-6
2908,586,-148,1047,19,-31,0
2909,380,0,1058,48,53,4
2910,-147,127,991,14,91,22
2911,-558,111,871,-29,51,18
2912,-529,4,866,-38,-37,-8
2913,-8,-110,1046,-25,-103,-14
2914,519,-131,1082,11,-80,-1
2915,571,-59,1043,22,9,5
2916,149,61,1055,28,82,15
2917,-366,112,918,-20,83,23
2918,-619,56,860,-33,15,0
2919,-331,-83,913,-44,-75,-15
2920,267,-153,1093,2,-106,-8
2921,602,-118,1063,27,-42,3
2922,428,-10,1063,36,48,5
2923,-47,-36,688,-6,108,21
2924,-542,229,838,141,71,22
2925,-566,158,613,-115,-29,1
2926,-78,-448,223,-255,-139,-76
2927,425,147,438,407,-186,-1
2928,674,699,331,-42,-22,27
2929,50,268,731,-71,81,-43
2930,-40,-340,290,-306,98,40
2931,-584,222,492,312,70,23
2932,-372,67,467,-208,-62,-12
2933,103,-624,-8,-372,-117,-29
2934,255,-205,281,278,-86,-57
2935,325,480,244,199,8,69
2936,-468,420,789,23,110,30
2937,-165,143,51,-224,12,38
2938,-626,449,531,59,-18,-9
2939,-112,34,127,-122,139,96
2940,379,-6,433,544,-32,122
2941,270,739,38,166,67,-11
2942,-69,180,1194,-191,46,-48
2943,109,-359,-89,-274,77,85
2944,-752,602,1172,398,67,3
2945,-450,140,364,-634,-136,-69
2946,610,-232,-52,-94,-41,97
2947,128,433,584,669,-5,-9
2948,368,317,804,-194,-82,-51
2949,288,-274,123,-620,107,-13
2950,-215,589,-207,700,32,15
2951,-386,750,367,-162,-6,-31
2952,-28,-463,172,-745,-69,10
2953,372,-652,806,167,-151,56
2954,538,171,453,363,58,-110
2955,25,-427,929,-379,70,-25
2956,145,-371,-134,178,29,149
2957,-709,624,1036,266,79,-8
2958,-599,-88,800,-165,-41,-88
2959,235,-175,886,13,-137,53
2960,389,293,786,265,-45,10
2961,717,65,926,-131,8,-29
2962,-42,-86,740,-77,91,29
2963,-423,256,989,50,70,-5
2964,-480,117,1013,-94,0,-15
2965,-114,-237,709,-147,-68,23
2966,170,-370,1061,-12,-68,-15
2967,552,-163,1166,114,-43,-23
2968,293,-27,895,11,53,32
2969,-175,221,1008,111,77,14
2970,-425,161,850,-61,26,23
2971,-538,71,985,-16,-23,-15
2972,118,-67,992,-48,-108,-25
2973,529,-24,1148,25,-64,11
2974,515,-87,984,-63,25,9
2975,38,-74,1034,6,87,8
2976,-469,37,930,-3,74,10
2977,-540,7,829,-19,-5,0
2978,-251,-103,934,-27,-84,-4
2979,362,-143,1111,28,-103,-2
2980,562,-52,1098,47,-24,-3
2981,336,102,1053,47,54,2
2982,-125,196,986,-8,86,27
2983,-563,120,877,-63,51,19
2984,-509,-95,857,-83,-38,-16
2985,8,-205,1039,-16,-103,-18
2986,523,-151,1081,31,-78,4
2987,571,-88,1024,22,13,7
2988,96,68,1043,53,87,13
2989,-399,168,945,5,77,20
2990,-603,115,859,-32,4,3
2991,-283,-22,916,-46,-77,-10
2992,317,-126,1110,-18,-104,-7
2993,586,-141,1059,2,-32,-2
2994,389,-27,1047,33,54,4
2995,-118,117,990,14,89,24
2996,-551,98,874,-39,57,20
2997,-551,-48,843,-49,-32,-12
2998,-50,-128,1033,-3,-103,-17
2999,514,-104,1109,26,-87,2
3000,592,-54,1030,17,3,6
3001,172,89,1070,40,82,11
3002,-356,146,952,-29,87,18
3003,-622,45,843,-53,18,3
3004,-351,-80,890,-42,-72,-10
3005,244,-163,1106,-5,-110,-7
3006,596,-166,1058,14,-46,1
3007,432,-16,1052,53,47,2
3008,-68,146,1031,28,88,21
3009,-517,136,872,-38,61,24
3010,-569,15,847,-48,-24,-7
3011,-97,-109,1015,-26,-99,-18
3012,485,-141,1105,9,-89,-1
3013,593,-95,1025,18,-4,3
3014,228,55,1073,42,77,9
3015,-295,80,929,-15,87,22
3016,-677,-311,252,-299,-4,-17
3017,-324,82,432,368,-93,9
3018,264,562,763,1,-108,4
3019,472,52,1177,-109,-42,-38
3020,713,-324,381,-152,26,30
3021,-262,48,457,66,109,1
3022,-339,151,714,-20,45,10
3023,-653,-32,618,-149,-10,20
3024,-265,-259,1136,47,-72,-39
3025,363,-371,384,46,90,16
3026,200,88,446,692,36,30
3027,-7,673,710,38,28,96
3028,-387,275,834,-159,107,-57
3029,-257,51,97,-139,-54,36
3030,-155,134,475,-349,-160,-82
3031,114,-305,559,-275,-171,-5
3032,480,375,575,320,-56,23
3033,32,427,1147,24,51,-17
3034,229,-503,134,-429,86,36
3035,-751,372,1090,394,69,7
3036,-568,161,846,-216,-61,-35
3037,274,53,255,-154,7,-9
3038,403,-276,71,293,-34,45
3039,0,299,-229,642,102,25
3040,-58,980,265,194,27,-72
3041,12,-216,146,-764,103,87
3042,-178,-280,608,152,-18,100
3043,-448,417,293,181,0,-179
3044,123,-778,387,-398,-61,-167
3045,661,-327,559,208,-59,155
3046,81,58,567,85,5,22
3047,59,-218,467,26,89,-106
3048,-271,246,686,142,43,59
3049,-501,500,873,58,-41,60
3050,-64,-71,829,-209,-55,-8
3051,195,-118,978,56,-62,-39
3052,538,91,1166,17,-45,-3
3053,324,-45,944,-85,73,30
3054,-179,-11,904,-24,78,26
3055,-595,-100,923,-39,40,-10
3056,-465,-188,887,-23,-38,-25
3057,83,-65,964,90,-112,0
3058,571,7,1125,30,-74,11
3059,530,-7,1044,24,31,10
3060,-14,182,1082,47,82,-3
3061,-373,237,953,-20,68,11
3062,-505,86,813,-98,1,19
3063,-259,-164,911,-87,-78,-9
3064,313,-309,1126,-22,-91,-20
3065,516,-196,1051,48,-24,-1
3066,367,10,1019,71,44,11
3067,-111,169,1001,31,89,32
3068,-594,113,877,-41,52,14
3069,-516,-3,908,-30,-45,-23
3070,34,-19,1057,7,-105,-11
3071,553,-85,1065,-30,-79,7
3072,582,-125,1039,-7,19,5
3073,71,20,1060,27,92,9
3074,-408,76,933,-18,79,17
3075,-581,38,823,-28,9,9
3076,-335,-78,889,-32,-76,-9
3077,281,-179,1138,7,-110,-14
3078,596,-94,1051,47,-41,0
3079,422,86,1065,55,48,4
3080,-50,179,1015,0,88,25
3081,-555,123,863,-56,67,19
3082,-580,-30,866,-63,-26,-18
3083,-64,-153,998,-24,-105,-16
3084,493,-150,1085,14,-88,5
3085,606,-113,1034,19,2,2
3086,182,44,1075,50,79,8
3087,-349,150,941,2,84,19
3088,-602,116,850,-29,20,8
3089,-369,-22,890,-53,-68,-6
3090,221,-153,1099,-18,-107,-11
3091,580,-140,1084,14,-49,-2
3092,454,-22,1045,34,40,4
3093,-39,103,1015,14,89,24
3094,-525,104,879,-33,67,21
3095,-594,-11,854,-45,-19,-10
3096,-137,-121,996,-15,-98,-18
3097,476,-119,1103,20,-95,1
3098,607,-72,1042,17,-10,6
3099,245,54,1076,39,72,9
3100,-301,146,959,-9,89,19
3101,-611,87,851,-41,31,7
3102,-407,-59,864,-51,-62,-9
3103,175,-163,1081,-12,-110,-9
3104,581,-149,1086,20,-58,0
3105,488,-26,1050,38,34,2
3106,1,120,1029,30,89,18
3107,-461,-52,865,-41,80,24
3108,-587,-106,317,29,10,-6
3109,-132,-178,710,83,-65,-6
3110,344,146,723,239,-96,3
3111,665,402,644,-24,-32,7
3112,240,206,909,-38,72,-9
3113,-78,-162,851,-242,78,38
3114,-715,-280,86,-196,-21,35
3115,-145,81,827,354,-34,-21
3116,217,-270,255,-339,-126,-41
3117,160,-280,690,71,-83,-50
3118,514,540,388,265,30,107
3119,-355,988,1249,121,97,-8
3120,-217,-168,192,-545,13,-5
3121,-218,-15,438,225,174,94
3122,-68,-107,428,165,-109,-12
3123,661,509,499,143,-123,-16
3124,24,93,1086,-78,68,-18
3125,576,-383,165,-206,42,62
3126,-511,558,1135,372,93,-4
3127,-563,160,614,-452,10,-26
3128,-169,-173,509,-402,-199,-132
3129,-224,109,272,342,-308,-18
3130,567,901,657,259,-6,-5
3131,67,-204,485,-603,-24,-103
3132,563,-189,162,100,7,106
3133,-556,1004,672,216,148,7
3134,-636,-130,777,-592,-42,-22
3135,254,-1095,82,-183,-124,29
3136,51,429,920,565,-5,-98
3137,416,-672,803,-537,-54,-79
3138,677,-380,391,323,28,143
3139,-583,812,1211,326,116,-15
3140,-410,89,829,-208,-5,-62
3141,-253,42,361,-24,-46,61
3142,-117,522,1232,170,-76,-19
3143,767,-448,1121,-363,-90,-8
3144,303,-368,572,76,86,20
3145,11,246,908,158,67,-28
3146,-240,23,858,-140,41,49
3147,-655,-135,430,-85,30,31
3148,-393,-17,1071,97,-81,-51
3149,455,-37,1063,28,-124,1
3150,485,-34,893,-25,-25,25
3151,476,84,1165,84,48,-16
3152,-82,145,1010,-53,85,35
3153,-672,82,844,-50,73,0
3154,-443,-43,841,-54,-43,-14
3155,-67,-122,1025,-25,-101,4
3156,484,-269,1049,-34,-80,-10
3157,575,-142,1069,77,4,-4
3158,139,141,1096,76,75,15
3159,-286,161,905,-28,79,30
3160,-625,111,856,-28,22,12
3161,-377,-37,934,-52,-73,-24
3162,248,-160,1093,-20,-106,-13
3163,601,-109,1053,20,-48,8
3164,481,-37,1061,17,44,9
3165,-93,49,1007,7,98,17
3166,-555,85,884,-12,63,12
3167,-572,20,859,-30,-25,-6
3168,-102,-99,971,-22,-99,-8
3169,495,-138,1114,11,-92,-1
3170,594,-69,1066,31,-3,-2
3171,231,78,1061,37,76,9
3172,-289,161,948,-11,84,27
3173,-618,84,844,-53,32,11
3174,-429,-102,873,-61,-60,-19
3175,171,-174,1076,7,-112,-15
3176,600,-114,1088,27,-61,5
3177,507,-30,1027,29,35,6
3178,-13,119,1043,34,93,17
3179,-504,148,902,-27,70,17
3180,-591,36,847,-49,-12,-6
3181,-175,-96,960,-35,-95,-12
3182,442,-143,1119,2,-97,-2
3183,598,-129,1053,7,-13,1
3184,275,22,1046,47,70,6
3185,-254,149,978,5,88,25
3186,-599,88,844,-47,38,13
3187,-466,-57,870,-47,-52,-14
3188,118,-128,1086,2,-110,-15
3189,567,-123,1095,15,-67,2
3190,527,-44,1026,26,25,5
3191,41,112,1043,34,89,19
3192,-461,122,908,-33,74,21
3193,-603,21,835,-42,-2,-3
3194,-231,-82,968,-28,-88,-15
3195,394,-147,1111,-2,-102,-3
3196,604,-124,1033,17,-23,2
3197,313,-228,906,-18,62,10
3198,-223,5,602,88,100,23
3199,-471,402,1030,147,25,22
3200,-610,33,579,-196,-31,-12
3201,167,122,1131,129,-124,-20
3202,508,128,980,-93,-70,23
3203,549,-37,1172,-63,22,-23
3204,187,-251,666,-147,88,26
3205,-357,-322,374,-16,177,58
3206,-389,-77,302,369,31,31
3207,-190,451,107,110,-55,4
3208,-21,40,853,7,-117,-65
3209,966,223,349,57,-90,71
3210,0,533,751,26,85,9
3211,149,-128,439,-330,34,-41
3212,-262,-193,192,34,174,146
3213,-643,211,657,586,90,15
3214,332,-290,289,-406,-127,-28
3215,105,-87,929,290,-60,0
3216,445,57,117,-8,-37,-18
3217,168,834,686,236,61,38
3218,-544,425,656,-279,116,-19
3219,56,123,249,-686,-162,-39
3220,-204,116,448,316,-85,18
3221,114,267,398,-130,-129,-30
3222,394,-522,748,-222,0,-37
3223,275,-20,263,69,-1,42
3224,151,301,278,-382,-50,10
3225,-275,94,154,-45,-19,-7
3226,-323,491,361,352,11,-25
3227,-75,-406,11,-555,-45,18
3228,553,963,137,912,-104,6
3229,67,208,1189,-696,32,-22
3230,941,-826,-289,-270,4,66
3231,-718,767,907,378,174,-7
3232,-420,-583,159,-521,29,-49
3233,-45,-890,452,-33,-94,119
3234,-610,248,922,512,-45,-82
3235,1051,-314,925,-163,-134,-64
3236,161,163,628,261,62,72
3237,104,837,1231,229,28,-6
3238,-156,168,872,-289,56,23
3239,-737,174,788,-12,25,-19
3240,39,-44,985,-129,-98,-27
3241,371,-302,1120,-109,-54,22
3242,411,-473,727,-85,3,3
3243,183,-204,1261,138,62,-6
3244,-302,36,833,40,65,31
3245,-498,141,819,68,16,14
3246,-333,124,954,12,-64,-2
3247,188,90,1114,28,-101,-4
3248,514,58,1106,-17,-51,-9
3249,501,100,1064,-5,30,3
3250,12,85,991,-74,88,26
3251,-495,-49,891,-90,75,6
3252,-587,-196,814,-64,-8,-17
3253,-202,-218,969,11,-92,-17
3254,424,-195,1086,37,-102,4
3255,597,-86,1045,68,-18,7
3256,266,148,1100,91,65,2
3257,-230,260,1010,6,83,22
3258,-549,198,852,-53,35,20
3259,-436,8,886,-87,-50,-11
3260,109,-212,1067,-63,-99,-20
3261,511,-245,1069,-3,-58,-1
3262,490,-127,1034,38,22,6
3263,59,41,1027,45,83,24
3264,-445,101,888,-4,75,22
3265,-615,58,866,-8,-4,-8
3266,-223,0,982,-6,-90,-14
3267,382,-47,1105,1,-104,0
3268,630,-65,1051,-2,-24,3
3269,346,22,1063,16,64,5
3270,-205,87,972,-17,94,19
3271,-559,66,864,-37,46,16
3272,-518,-52,821,-50,-39,-8
3273,13,-188,1050,-20,-107,-17
3274,529,-149,1095,43,-79,-1
3275,555,-11,1044,49,11,5
3276,148,128,1056,41,80,17
3277,-365,175,919,-27,81,28
3278,-634,71,863,-56,14,-1
3279,-310,-96,930,-54,-76,-18
3280,290,-165,1086,-9,-104,-4
3281,601,-158,1055,10,-39,3
3282,413,-59,1049,36,52,6
3283,-139,101,1007,29,92,19
3284,-552,123,888,-19,54,18
3285,-544,27,846,-41,-33,-5
3286,-57,-93,1021,-21,-101,-16
3287,513,-121,1111,12,-87,-4
3288,584,-61,1048,18,4,2
3289,194,61,1056,28,78,12
3290,-333,123,930,-19,85,26
3291,-633,49,844,-45,24,5
3292,-381,-262,1012,-53,-68,-17
3293,190,-457,322,-35,-97,-5
3294,579,299,1191,358,-68,4
3295,496,49,664,-175,47,11
3296,-30,180,1012,129,76,1
3297,-563,208,570,-124,78,26
3298,-477,116,1049,21,-30,-12
3299,-167,-50,821,-139,-91,1
3300,472,-109,1166,15,-86,-18
3301,604,-252,1055,-96,-2,1
3302,235,-121,890,43,74,20
3303,-129,-120,257,-1,163,16
3304,-356,109,321,337,-64,-7
3305,-227,218,188,-90,-51,8
3306,-186,-183,898,60,-101,-51
3307,885,14,317,-81,-81,87
3308,82,701,1248,298,60,-12
3309,254,127,728,-330,67,-28
3310,-236,-448,353,-214,119,58
3311,-515,134,371,386,19,-29
3312,-11,-408,551,-280,-89,26
3313,-38,-225,589,196,-114,-18
3314,709,-112,277,108,-28,4
3315,124,271,423,352,166,25
3316,-13,366,-140,175,120,5
3317,-304,442,173,-108,6,-12
3318,-360,105,410,-229,108,15
3319,143,-489,379,-209,-87,75
3320,163,447,237,495,-67,26
3321,179,-80,91,-498,-16,-60
3322,409,-698,-28,-179,50,32
3323,-266,189,420,156,34,35
3324,81,134,-450,-679,-175,-5
3325,59,-220,-36,715,125,-51
3326,-118,79,-241,504,208,69
3327,100,466,147,639,-182,-3
3328,39,483,920,-339,263,-31
3329,120,28,499,-214,-43,90
3330,-527,-284,614,-107,50,21
3331,-298,-108,137,144,139,-130
3332,-222,-504,597,-222,-164,-150
3333,532,-482,586,138,-64,106
3334,362,-214,753,11,48,31
3335,-193,38,921,226,2,-92
3336,99,297,782,46,38,58
3337,-587,465,870,20,40,55
3338,-157,15,988,-93,-113,-24
3339,288,-290,442,-171,-53,-23
3340,288,168,708,186,-21,-9
3341,487,184,866,-115,-9,30
3342,-156,-105,829,-119,130,27
3343,-597,-141,741,-29,30,-28
3344,-349,-98,885,29,-39,-19
3345,-90,-196,880,-42,-85,19
3346,548,-157,1052,75,-83,-1
3347,508,45,1118,92,11,1
3348,46,198,1036,27,83,-1
3349,-288,235,924,-3,60,21
3350,-531,216,893,-62,10,25
3351,-306,-144,870,-135,-59,-18
3352,239,-312,1111,-29,-99,-28
3353,539,-173,1074,55,-34,6
3354,420,-71,1033,17,42,18
3355,-76,80,973,53,87,29
3356,-572,141,912,-8,61,10
3357,-560,20,878,-30,-31,-19
3358,-56,-12,999,3,-104,-5
3359,523,-56,1118,-10,-88,8
3360,611,-118,1052,-17,4,1
3361,176,17,1064,30,85,4
3362,-339,111,956,-10,86,17
3363,-593,46,816,-51,25,17
3364,-429,-96,849,-45,-63,-8
3365,180,-186,1109,6,-111,-19
3366,587,-110,1098,48,-59,-1
3367,503,33,1034,44,30,5
3368,30,165,1049,29,91,24
3369,-494,156,890,-47,74,24
3370,-618,16,854,-58,-7,-13
3371,-182,-113,967,-38,-94,-17
3372,425,-154,1095,2,-101,2
3373,618,-153,1041,5,-16,4
3374,295,-5,1061,52,70,7
3375,-256,140,971,15,90,22
3376,-580,121,860,-31,39,17
3377,-473,-4,855,-46,-50,-6
3378,87,-118,1085,-15,-109,-15
3379,551,-139,1097,9,-68,-3
3380,531,-49,1037,29,20,4
3381,4,-261,744,-71,96,21
3382,-418,19,582,164,74,26
3383,-510,447,875,110,-7,8
3384,-409,-50,687,-214,-82,-24
3385,453,15,666,106,-126,-2
3386,611,303,904,8,-21,20
3387,356,-215,1270,-140,78,-7
3388,-143,-548,107,-172,117,105
3389,-348,618,1202,610,49,-22
3390,-435,-122,399,-533,-53,-9
3391,-154,-246,879,120,-147,-2
3392,557,130,650,111,-30,30
3393,485,377,1325,89,-33,-23
3394,279,-148,488,-272,79,6
3395,-101,63,853,32,59,-37
3396,-571,252,434,30,33,19
3397,-347,244,705,-132,-60,14
3398,-60,-247,504,-377,-85,-53
3399,686,109,516,499,-76,36
3400,329,794,822,96,39,25
3401,26,61,698,-565,-9,-87
3402,-120,78,348,203,8,81
3403,-329,1298,796,443,-34,-3
3404,-275,-42,911,-618,-60,-54
3405,499,-633,207,-115,-69,26
3406,265,205,730,394,-3,11
3407,-356,-421,512,-65,310,122
3408,725,-222,-285,188,0,67
3409,-978,724,414,575,234,16
3410,-137,-918,-417,-877,-95,21
3411,455,515,1045,851,-158,185
3412,-341,606,497,-162,53,-159
3413,1057,-436,496,-159,-83,-29
3414,-141,78,403,127,111,63
3415,-173,838,589,308,95,-40
3416,-418,-2,1153,-426,-21,5
3417,-439,-558,303,-182,-30,-4
3418,341,120,533,254,-80,2
3419,249,-217,415,-389,-38,-40
3420,432,-535,-252,-17,-22,48
3421,-353,870,1198,497,113,23
3422,-396,-297,265,-487,8,-26
3423,-43,-33,236,255,-53,51
3424,-321,579,939,120,-33,-58
3425,795,-391,629,-297,-112,3
3426,252,-58,1091,98,61,57
3427,-7,283,1018,85,66,-40
3428,-215,-160,904,-231,44,29
3429,-726,-125,718,33,23,3
3430,-85,-77,1048,26,-101,-23
3431,311,-173,1125,-4,-84,10
3432,524,-70,987,56,-26,10
3433,382,66,890,136,77,-1
3434,-298,338,871,35,89,7
3435,-521,-75,462,-171,35,40
3436,-397,132,903,138,-27,-2
3437,10,-113,943,-177,-115,-36
3438,654,-281,1041,22,-60,2
3439,410,-14,1050,34,26,13
3440,96,71,1097,39,79,7
3441,-418,-38,829,-100,81,37
3442,-640,108,902,85,-1,-13
3443,-230,-79,942,-90,-92,-19
3444,325,-146,1105,32,-99,2
3445,625,-51,1017,28,-34,9
3446,367,70,1131,44,60,2
3447,-150,108,934,-33,93,19
3448,-571,110,901,-20,51,13
3449,-529,-24,856,-65,-37,-9
3450,-5,-190,1005,-33,-102,-10
3451,514,-164,1103,33,-81,-1
3452,580,-66,1037,36,9,0
3453,149,93,1062,49,83,12
3454,-358,169,921,-11,83,26
3455,-627,94,859,-41,17,7
3456,-345,-60,914,-52,-75,-16
3457,274,-150,1097,-10,-107,-12
3458,605,-141,1060,9,-43,3
3459,446,-38,1054,32,49,8
3460,-95,96,1010,18,92,21
3461,-548,114,886,-21,62,16
3462,-570,10,841,-43,-26,-8
3463,-100,-108,1006,-22,-100,-16
3464,503,-130,1110,17,-92,1
3465,601,-70,1049,23,-5,5
3466,228,58,1069,33,77,11
3467,-319,134,941,-14,87,23
3468,-632,76,849,-42,29,8
3469,-411,-74,878,-49,-65,-14
3470,194,-150,1082,1,-110,-12
3471,601,-128,1085,20,-57,0
3472,453,-190,1159,30,41,5
3473,56,-280,299,-79,101,35
3474,-463,557,1076,374,57,7
3475,-546,330,536,-240,-20,13
3476,-78,84,995,11,-94,-14
3477,305,-47,821,-128,-81,-23
3478,739,-457,1091,-41,-22,16
3479,-36,-427,-39,-264,26,73
3480,-119,338,1001,501,60,-81
3481,-655,-3,366,-333,27,38
3482,-505,-17,508,108,-52,-11
3483,292,70,563,28,-143,-13
3484,468,398,945,104,-55,-7
3485,525,-215,805,-305,36,-8
3486,119,-23,868,126,78,34
3487,-560,467,1108,49,93,2
3488,-366,-378,587,-253,38,-5
3489,-143,-487,436,300,64,29
3490,408,535,740,494,-103,14
3491,290,-267,420,-616,-149,14
3492,331,-175,444,84,-54,-20
3493,143,193,510,152,84,46
3494,-695,497,990,105,31,-5
3495,-196,-241,267,-348,-7,30
3496,-202,135,485,241,-65,-7
3497,404,136,245,-204,-85,-31
3498,382,-205,745,-73,37,17
3499,169,33,473,-399,-103,-121
3500,-362,-142,287,-346,-188,-20
3501,-67,423,-153,343,141,74
3502,-1032,334,968,-165,-136,-103
3503,797,-701,626,-308,-126,-45
3504,398,490,1349,419,-62,128
3505,33,-113,266,-1115,-276,-199
3506,437,-505,6,-484,-208,28
3507,-323,914,205,772,60,123
3508,-908,418,668,-479,128,-75
3509,666,-767,-260,-312,-249,62
3510,-222,691,959,325,-5,13
3511,218,-196,87,-371,-26,-166
3512,527,-823,103,-119,33,104
3513,-234,903,739,795,139,75
3514,-664,30,713,-529,9,-91
3515,-91,-697,-206,-59,-36,20
3516,-214,695,960,361,-87,11
3517,524,-208,584,-278,-59,-47
3518,643,-252,593,-8,3,59
3519,-199,491,1080,253,88,-6
3520,-269,-29,966,-283,49,-26
3521,-533,-241,588,-30,2,37
3522,-202,97,1157,96,-78,-17
3523,473,-289,1032,-120,-84,-6
3524,433,-139,995,78,-2,8
3525,234,188,1100,111,52,-3
3526,-227,167,1026,-54,70,27
3527,-555,46,705,-56,27,20
3528,-337,26,1033,0,-59,-25
3529,181,-160,1032,-68,-91,-14
3530,536,-165,1050,20,-48,5
3531,450,-13,1079,39,37,10
3532,-61,58,1006,1,89,23
3533,-503,62,871,-25,59,11
3534,-540,48,885,1,-18,-10
3535,-148,-93,972,-48,-93,-10
3536,454,-150,1098,16,-92,1
3537,589,-56,1073,31,-10,3
3538,244,58,1063,26,73,5
3539,-260,123,949,-14,88,24
3540,-602,101,868,-32,37,13
3541,-458,-78,855,-68,-54,-15
3542,126,-172,1065,-2,-112,-14
3543,570,-123,1093,33,-66,1
3544,534,-45,1044,26,25,4
3545,35,112,1027,42,91,19
3546,-449,165,916,-23,77,25
3547,-616,51,842,-51,-2,-3
3548,-246,-79,949,-40,-88,-17
3549,374,-144,1121,-1,-105,-8
3550,619,-140,1044,6,-26,3
3551,357,2,1046,48,61,8
3552,-186,135,992,9,93,22
3553,-581,93,871,-42,49,17
3554,-530,-22,845,-43,-41,-9
3555,18,-113,1062,-11,-109,-15
3556,550,-138,1094,8,-80,1
3557,575,-66,1034,26,14,4
3558,129,85,1063,39,85,14
3559,-387,126,928,-27,83,24
3560,-638,48,838,-43,14,2
3561,-337,-77,919,-39,-78,-16
3562,290,-153,1112,-2,-110,-9
3563,622,-153,1053,20,-41,2
3564,317,-466,541,-92,55,54
3565,-178,322,912,389,111,17
3566,-443,402,725,-45,60,-19
3567,-708,32,657,-182,-38,43
3568,-78,-64,975,18,-115,-13
3569,546,-23,924,1,-77,-4
3570,597,-77,1211,-51,-12,2
3571,233,-249,758,-74,93,20
3572,-395,178,1205,151,82,13
3573,-624,-60,699,-134,18,8
3574,-351,-79,718,15,-76,-13
3575,211,1,990,-15,-136,-30
3576,693,71,682,-6,-55,-4
3577,330,22,1005,0,49,2
3578,44,51,826,-19,84,16
3579,-548,198,869,3,62,27
3580,-598,115,945,-51,-18,-27
3581,-116,-730,348,-267,-40,66
3582,427,119,782,610,-46,31
3583,666,-19,292,111,156,51
3584,-25,9,989,397,193,41
3585,-51,139,396,-143,39,23
3586,-638,516,944,220,55,-4
3587,-442,161,573,-308,-34,22
3588,254,-177,335,74,-106,-1
3589,210,160,241,-11,-60,-21
3590,409,-7,452,-341,-15,-12
3591,136,100,87,-104,26,-19
3592,-5,359,344,64,-41,38
3593,-501,88,499,-88,73,-18
3594,-54,-422,125,-235,-87,-5
3595,-36,9,109,402,1,53
3596,312,-420,240,-113,111,123
3597,272,266,-193,720,94,70
3598,-570,921,1186,293,70,-55
3599,203,-809,-750,-943,57,9
3600,-118,238,372,500,-85,66
3601,107,-103,238,-770,-195,-94
3602,478,-359,-229,-61,-117,47
3603,-307,807,995,633,99,15
3604,393,-635,-119,-706,27,-47
3605,-165,-22,707,324,101,97
3606,-1012,576,852,56,4,-32
3607,392,-672,195,-360,-142,-25
3608,-93,-4,805,257,-9,12
3609,586,47,847,-11,-71,-47
3610,552,-235,806,-70,51,72
3611,-488,334,790,167,123,-2
3612,-315,197,1008,-62,1,-23
3613,-499,-55,823,-118,-25,32
3614,-58,-77,929,17,-92,-23
3615,602,-214,1213,-27,-88,-16
3616,474,-90,942,29,27,23
3617,159,57,998,43,73,12
3618,-374,166,1061,4,79,13
3619,-613,-12,715,-78,14,5
3620,-348,-36,1024,14,-80,-16
3621,333,-70,1072,3,-112,-2
3622,624,-113,1033,-10,-36,4
3623,420,-5,1074,44,54,-4
3624,-112,116,1035,-1,91,23
3625,-585,87,863,-40,65,18
3626,-537,-4,829,-41,-32,-10
3627,-93,-138,1016,-31,-98,-16
3628,496,-198,1105,8,-88,-5
3629,595,-83,1043,48,-4,4
3630,211,109,1085,54,76,14
3631,-304,141,922,-26,85,26
3632,-650,90,860,-33,30,4
3633,-407,-48,901,-51,-67,-20
3634,209,-154,1086,-13,-110,-8
3635,610,-137,1068,14,-56,6
3636,490,-36,1052,34,40,3
3637,-49,84,1028,19,93,15
3638,-510,123,874,-16,65,21
3639,-594,49,853,-38,-14,-3
3640,-157,-100,978,-36,-96,-15
3641,455,-141,1104,9,-96,-6
3642,601,-72,1059,28,-12,-2
3643,290,47,1056,31,70,11
3644,-269,128,950,-9,89,28
3645,-613,83,857,-39,37,9
3646,-451,-68,871,-54,-55,-16
3647,132,-142,1069,-1,-110,-12
3648,582,-123,1089,22,-65,4
3649,523,-40,1050,27,28,6
3650,14,100,1034,32,91,15
3651,-462,140,911,-22,73,20
3652,-607,33,839,-50,-4,-3
3653,-260,-409,1002,-89,-92,1
3654,179,-336,226,-17,-95,39
3655,702,268,1133,355,-33,-46
3656,278,131,789,-119,87,26
3657,-169,165,992,34,48,29
3658,-467,166,552,-71,64,13
3659,-529,174,1074,19,-61,-25
3660,89,-365,783,-250,-100,9
3661,519,-176,1121,163,-53,0
3662,496,-48,1080,-18,1,-8
3663,104,-118,960,13,91,28
3664,-447,121,917,59,76,30
3665,-562,152,708,4,-13,-12
3666,-256,52,1036,-28,-55,-27
3667,428,48,921,34,-99,0
3668,473,28,1148,-45,-27,10
3669,397,-177,762,-70,63,-4
3670,-178,25,1024,28,87,28
3671,-638,-20,888,-47,45,1
3672,-405,-222,788,-43,-44,-11
3673,-18,-90,1082,83,-97,-6
3674,582,-68,1148,42,-81,-1
3675,523,41,995,51,21,11
3676,90,457,1147,171,79,9
3677,-302,-257,289,-27,258,112
3678,-565,-23,759,534,79,3
3679,-195,9,526,-171,-72,-21
3680,314,-66,1265,172,-79,-28
3681,647,-243,658,-146,-48,23
3682,329,383,1127,290,40,-10
3683,-8,153,847,-287,80,-6
3684,-522,124,282,86,34,-15
3685,-421,534,318,-27,9,5
3686,-207,-164,378,-47,57,-16
3687,440,62,617,319,-159,23
3688,175,763,960,237,56,-12
3689,191,-503,456,-535,53,-44
3690,16,-113,507,245,84,96
3691,-970,680,956,139,72,-41
3692,-175,-226,72,-801,-222,-104
3693,272,-238,491,-175,-380,6
3694,456,643,-152,353,-13,21
3695,-63,615,1220,-92,-21,-55
3696,416,-499,162,-724,25,49
3697,-272,338,846,524,96,97
3698,-736,799,356,-38,-37,-100
3699,97,-546,449,-452,-38,-52
3700,136,-266,509,100,-65,62
3701,599,118,1165,97,-80,-2
3702,227,-527,818,-261,123,-8
3703,-178,-94,380,77,20,9
3704,-539,-46,385,-12,9,43
3705,-225,358,565,214,-28,-10
3706,-113,166,1142,-123,-103,-16
3707,659,-160,725,-46,-76,-11
3708,478,319,1104,128,41,14
3709,-21,-81,728,-188,65,-3
3710,-304,-294,382,-127,70,36
3711,-687,150,789,160,19,-11
3712,-180,-84,1053,-120,-107,-33
3713,322,-393,778,-54,-77,7
3714,573,136,1140,225,-43,8
3715,384,108,1003,-55,58,12
3716,-240,84,931,-4,92,12
3717,-529,189,891,5,38,10
3718,-453,24,980,-83,-45,-10
3719,49,-258,899,-92,-98,-7
3720,533,-155,1157,74,-62,-3
3721,504,-76,1063,-2,15,3
3722,55,9,972,37,88,17
3723,-412,159,950,19,71,21
3724,-590,75,859,-36,0,2
3725,-268,-83,937,-46,-81,-15
3726,361,-83,1130,32,-105,-7
3727,608,-84,1063,-10,-27,5
3728,356,-14,1026,23,63,8
3729,-175,119,1005,7,92,23
3730,-583,76,872,-45,50,15
3731,-523,-59,825,-48,-39,-11
3732,9,-131,1049,0,-107,-15
3733,541,-143,1095,17,-81,0
3734,572,-56,1033,38,13,5
3735,140,131,1073,54,82,14
3736,-367,164,923,-35,82,25
3737,-637,61,841,-50,17,1
3738,-332,-76,915,-47,-76,-18
3739,282,-158,1109,-4,-109,-9
3740,615,-151,1038,8,-42,4
3741,432,-19,1059,46,50,5
3742,-110,121,1019,18,93,20
3743,-559,112,871,-29,59,18
3744,-564,22,852,-36,-30,-6
3745,-74,-98,1016,-29,-103,-15
3746,513,-149,1099,5,-88,-4
3747,591,-77,1052,28,1,2
3748,205,60,1070,32,78,12
3749,-326,78,952,-21,86,27
3750,-677,-150,691,-110,30,8
3751,-349,-9,1003,149,-82,-12
3752,197,-19,878,-71,-104,-3
3753,603,-50,1129,87,-62,-9
3754,532,31,907,-6,43,13
3755,-100,226,1194,56,93,14
3756,-501,-14,773,-133,64,17
3757,-578,-5,894,12,-16,-5
3758,-157,53,986,-3,-98,-13
3759,552,-374,1128,-142,-116,-1
3760,462,-523,169,-147,-10,-10
3761,325,591,1102,530,55,30
3762,-438,599,644,-233,94,33
3763,-566,160,820,-64,7,-27
3764,-55,-67,155,-296,-28,-28
3765,138,222,688,465,-234,-74
3766,609,172,70,-292,-99,49
3767,118,-1,963,108,95,-60
3768,418,394,111,100,16,51
3769,-356,-40,418,-103,156,73
3770,-560,4,320,308,63,-85
3771,223,421,139,-50,-149,100
3772,-404,-188,637,-177,-54,-7
3773,722,-525,279,-252,-156,28
3774,132,256,318,549,232,74
3775,-330,112,677,-156,77,-83
3776,-319,-174,-7,-130,81,66
3777,-485,1053,976,495,-33,39
3778,-429,173,773,-630,-43,-53
3779,625,-122,429,338,45,67
3780,379,462,-5,643,108,111
3781,111,-13,453,-273,117,-48
3782,5,-508,138,-265,40,33
3783,-241,265,162,531,161,55
3784,-140,-417,185,-382,-6,5
3785,312,115,193,755,-105,71
3786,-395,848,824,301,18,-73
3787,847,-821,-74,-889,-22,2
3788,254,404,788,594,75,115
3789,-284,233,288,-556,8,-143
3790,414,-756,-118,-252,-91,46
3791,-636,839,1316,780,57,1
3792,344,-712,69,-817,-139,-76
3793,825,-363,134,361,51,93
3794,-548,398,357,175,153,-36
3795,379,135,-36,55,-27,-42
3796,-680,182,513,-109,64,57
3797,-207,-40,245,16,-74,-6
3798,404,59,1455,37,-100,-6
3799,179,-97,724,-92,17,-24
3800,652,-109,1015,6,-4,22
3801,-292,116,1126,24,105,26
3802,-347,-251,523,-128,51,2
3803,-646,-150,795,85,-27,-3
3804,11,219,1048,147,-108,-16
3805,540,-54,969,-120,-76,21
3806,451,46,1099,87,1,-13
3807,292,198,1065,-7,67,9
3808,-405,77,982,-100,92,25
3809,-513,-26,753,-58,10,-2
3810,-376,-208,986,-65,-55,-11
3811,217,-579,596,29,-63,-17
3812,416,-54,687,183,-82,0
3813,462,553,1095,214,31,8
3814,75,220,913,-180,88,27
3815,-649,139,783,-27,75,6
3816,-417,197,883,-19,-38,-18
3817,-123,-260,893,-212,-75,5
3818,291,-569,937,-74,-110,-41
3819,319,-259,373,174,62,-37
3820,-296,415,1057,278,80,118
3821,-90,352,469,-73,18,34
3822,-478,-17,598,-134,27,-54
3823,-347,183,745,113,-83,-23
3824,404,167,908,-98,-122,42
3825,428,-113,787,-107,-11,0
3826,473,-216,733,-61,45,-29
3827,-70,-101,1080,-1,102,31
3828,-562,-58,804,-28,72,33
3829,-458,-666,397,-349,-98,-12
3830,-116,263,512,714,79,72
3831,447,613,1152,96,-156,-24
3832,733,385,962,31,-43,48
3833,176,373,950,-152,143,-23
3834,-108,230,1002,-54,39,-12
3835,-433,-110,705,-286,66,77
3836,-683,-448,840,-138,23,-47
3837,37,-626,877,-4,-136,-61
3838,376,-304,1205,135,-52,9
3839,514,-120,962,98,-7,26
3840,165,166,1036,144,44,8
3841,-217,-253,588,-50,106,-7
3842,-253,296,368,436,77,-8
3843,-429,985,1262,118,-75,41
3844,292,218,887,-348,-113,67
3845,407,-229,767,-165,-29,-32
3846,363,-108,605,-41,15,-63
3847,172,-230,1014,-189,44,64
3848,-496,-421,406,-111,73,34
3849,-497,-244,978,118,-4,-41
3850,-214,-343,757,-26,-81,-8
3851,364,137,1240,276,-98,15
3852,483,219,920,3,-28,1
3853,236,387,1155,104,52,-5
3854,-214,390,889,-90,65,24
3855,-489,283,1061,-93,18,-12
3856,-202,-202,829,-232,-46,-9
3857,93,-820,458,-237,-69,35
3858,352,-244,914,389,-48,-33
3859,357,133,771,58,45,-24
3860,-256,98,556,-69,43,10
3861,91,264,384,158,-7,-16
3862,-332,-31,867,-110,59,-82
3863,98,49,399,-66,-114,89
3864,113,9,635,-45,-45,17
3865,432,69,247,26,-38,-31
3866,476,-140,575,-265,-2,37
3867,-213,-157,412,-29,81,-46
3868,-148,196,337,157,-58,54
3869,-591,309,912,-27,12,-3
3870,161,-293,-161,-277,-41,-2
3871,289,400,1040,682,-42,44
3872,152,1046,1186,106,46,-13
3873,168,-229,702,-494,18,-7
3874,-434,120,742,131,89,44
3875,-366,299,1095,-99,-42,-31
3876,373,-194,100,-531,-123,-2
3877,324,-380,239,63,-102,11
3878,105,796,578,701,-40,33
3879,-40,398,634,-393,101,-38
3880,-60,-815,-74,-329,-57,68
3881,15,670,670,576,49,-58
3882,-512,-169,884,-445,1,-114
3883,716,-879,91,-174,-147,129
3884,120,256,943,410,45,33
3885,153,36,697,-54,44,-138
3886,4,-212,700,-88,33,69
3887,-524,611,836,303,50,75
3888,-226,146,964,-222,-53,-28
3889,-99,-392,915,-126,-63,-32
3890,399,-14,1115,135,-61,-10
3891,545,20,1141,-24,-9,8
3892,187,-53,862,-53,76,41
3893,-378,12,910,11,94,17
3894,-623,-142,831,-129,-42,-33
3895,-364,-111,538,56,-49,-1
3896,310,269,1226,172,-130,4
3897,676,-25,1009,-139,-49,28
3898,313,-95,898,6,75,-18
3899,-42,285,1073,88,62,-9
3900,-434,108,841,-149,74,46
3901,-594,-128,754,-92,-10,4
3902,-178,-283,996,-29,-98,-32
3903,367,-225,1190,58,-87,-18
3904,613,-116,946,37,-33,9
3905,357,153,1097,115,58,19
3906,-230,245,995,-17,99,28
3907,-638,89,858,-63,41,2
3908,-451,36,913,-23,-57,-20
3909,139,-76,1057,-43,-104,-5
3910,494,-400,622,-131,-73,-20
3911,310,-32,625,221,52,13
3912,-39,465,1011,109,60,34
3913,-341,149,886,-134,78,11
3914,-696,77,721,-42,-1,1
3915,-108,-19,956,-41,-109,-24
3916,390,-287,1052,-90,-79,4
3917,533,-205,969,37,-17,-10
3918,401,-32,1127,56,54,16
3919,-268,97,960,13,106,32
3920,-595,65,807,-14,35,8
3921,-417,-364,382,-383,-188,-26
3922,94,211,780,377,-52,35
3923,680,397,1093,20,-106,-14
3924,703,209,1034,-56,36,30
3925,-75,128,912,-129,138,-10
3926,-255,121,1020,-25,42,5
3927,-605,-167,762,-219,54,44
3928,-489,-456,785,-71,-66,-48
3929,284,-414,1152,78,-129,-38
3930,493,-162,1097,104,-28,19
3931,477,11,960,96,14,13
3932,-15,350,1122,132,77,22
3933,-532,356,910,-48,73,15
3934,-505,101,861,-90,-38,-11
3935,-98,-75,1108,-39,-89,-10
3936,494,-609,295,-157,-39,-7
3937,412,97,1233,369,12,2
3938,119,242,813,-110,60,29
3939,-248,140,977,30,80,9
3940,-711,-36,804,-137,9,0
3941,-134,-175,746,-4,-79,-12
3942,204,-79,1214,32,-90,8
3943,553,-193,940,-13,-32,-16
3944,416,-30,1162,100,50,14
3945,-164,200,894,25,91,26
3946,-453,192,957,-9,40,11
3947,-562,74,811,-75,-20,0
3948,-51,2,1073,-11,-101,-22
3949,513,-164,1093,-70,-83,-1
3950,513,-449,839,-124,-19,16
3951,63,-214,434,45,76,34
3952,-192,378,1150,305,51,-38
3953,-727,175,605,-229,41,26
3954,-146,-50,367,95,-83,-56
3955,76,61,599,-53,-42,-47
3956,433,240,410,78,-70,85
3957,179,-52,528,-255,29,-22
3958,31,257,372,206,53,12
3959,-358,8,639,-304,15,26
3960,-189,-303,365,-41,-21,-51
3961,82,268,424,259,-108,42
3962,-13,149,938,-48,-21,-43
3963,692,-366,497,-347,-103,-28
3964,88,879,900,651,80,50
3965,-437,778,1251,-195,67,-26
3966,-114,-443,-41,-484,5,-2
3967,-111,1,61,-241,-62,-37
3968,230,-297,55,-128,-128,51
3969,243,665,767,668,-17,6
3970,60,-130,424,-399,24,-79
3971,499,-203,9,-200,15,49
3972,77,133,-1,69,96,77
3973,-25,505,318,184,-51,-52
3974,-191,471,719,-173,-32,-62
3975,40,-384,706,-477,-129,53
3976,793,-517,12,130,-74,34
3977,-193,296,944,215,142,-99
3978,23,-525,175,-356,44,29
3979,-303,-105,722,215,26,153
3980,-934,293,916,122,5,-81
3981,266,-316,839,-85,-136,-82
3982,343,202,1110,207,-62,61
3983,552,205,858,53,2,28
3984,214,0,938,-135,65,-1
3985,-460,153,708,40,114,-20
3986,-387,31,844,-78,-11,-2
3987,-412,-143,980,-47,-39,0
3988,265,-281,884,-41,-93,9
3989,444,-231,1208,78,-37,-5
3990,275,-28,1003,66,29,-13
3991,1,155,963,77,64,32
3992,-429,287,913,9,46,36
3993,-421,147,795,-74,-28,4
3994,-56,100,1205,-19,-81,-27
3995,463,11,1046,-58,-72,-4
3996,500,-170,1001,-109,13,11
3997,150,-153,1006,-13,75,15
3998,-357,-123,895,-38,76,19
3999,-631,-137,851,3,18,-15
4000,-274,-90,896,50,-80,-8
4001,223,-324,939,-31,-135,-14
4002,261,-268,398,33,-83,-49
4003,96,554,698,255,47,49
4004,60,509,750,-77,53,23
4005,-505,111,753,-261,65,-9
4006,-512,24,821,-11,-25,-17
4007,166,-416,803,-259,-98,7
4008,299,-540,939,25,-39,-11
4009,542,-320,1045,65,11,-6
4010,60,-36,1057,122,71,38
4011,-430,108,883,71,69,19
4012,-444,-74,462,-81,-23,-15
4013,-366,396,1059,273,-85,-3
4014,336,455,978,-84,-114,13
4015,681,72,1124,-93,-26,-13
4016,365,-61,848,-136,57,-4
4017,-56,14,1141,-14,101,19
4018,-525,-225,798,-184,74,24
4019,-645,-417,836,18,-8,-25
4020,-75,-707,236,-170,-112,-59
4021,252,326,1239,602,-106,-6
4022,542,403,689,-129,-49,46
4023,403,409,1059,140,57,-8
4024,-311,259,845,-157,92,-4
4025,-330,-4,465,-66,55,21
4026,-440,-72,1039,-88,-40,3
4027,35,-568,592,-237,-110,-42
4028,484,-322,1147,164,-51,8
4029,308,-28,873,55,22,24
4030,105,186,1126,116,50,7
4031,-454,119,783,-52,69,19
4032,-494,189,906,24,-34,-5
4033,-99,43,955,-56,-84,5
4034,424,-30,1113,12,-74,-4
4035,559,-125,1038,-66,-5,-2
4036,202,-58,1082,18,73,7
4037,-316,8,899,-29,84,18
4038,-567,174,844,48,22,6
4039,-383,138,942,-64,-64,-6
4040,0,-641,540,-295,-90,37
4041,334,166,683,487,-72,23
4042,559,234,427,56,75,-10
4043,-194,105,783,54,86,25
4044,66,76,351,-64,104,14
4045,-620,222,840,72,26,-93
4046,-157,174,570,-72,-32,23
4047,-111,134,1082,-35,-88,50
4048,475,-135,652,-133,-56,-39
4049,335,-265,563,-108,41,-32
4050,-84,470,473,354,55,95
4051,-424,375,992,-113,34,-11
4052,-120,114,-36,-882,-273,-156
4053,72,263,416,592,-240,39
4054,272,1099,985,93,-26,-11
4055,272,-74,881,-603,-6,-76
4056,274,40,410,190,20,75
4057,-388,1258,1319,300,103,29
4058,-389,-286,373,-740,-16,-60
4059,88,-287,176,-90,-71,-52
4060,183,15,331,452,-16,100
4061,235,333,497,79,-69,15
4062,193,-309,0,-256,40,-47
4063,215,48,-326,84,74,9
4064,-423,107,170,-143,-46,53
4065,-257,738,374,356,-23,19
4066,-214,-124,622,-464,-38,-68
4067,708,-409,534,17,-141,53
4068,331,128,1219,65,52,-1
4069,49,-266,859,-117,81,-49
4070,-62,-184,655,-25,26,87
4071,-779,46,1042,107,48,9
4072,-166,-315,267,-11,-21,-43
4073,-19,42,904,248,-96,-5
4074,656,385,914,257,-23,26
4075,466,160,937,-177,46,8
4076,-155,387,1138,144,73,-15
4077,-308,77,685,-297,68,24
4078,-670,-203,941,-67,-4,-15
4079,-27,-361,745,-94,-98,-14
4080,399,-361,1198,40,-62,3
4081,468,-250,962,63,-10,-4
4082,200,63,1046,135,56,12
4083,-373,250,1168,87,79,19
4084,-253,-27,125,-159,-4,-21
4085,-436,261,417,269,-6,27
4086,242,490,824,-25,-127,20
4087,575,-137,934,-244,-38,-14
4088,309,-89,871,17,48,-12
4089,154,-28,923,-80,69,31
4090,-518,-303,786,-137,82,33
4091,-585,-211,768,51,5,-32
4092,-255,-310,986,40,-91,-28
4093,271,-304,230,-50,-123,-12
4094,459,359,1013,417,-61,-16
4095,339,789,906,62,38,3
4096,-18,440,904,-151,87,23
4097,-693,168,722,-188,70,-4
4098,-279,37,1003,-85,-65,-20
4099,53,-511,957,-272,-54,9
4100,412,-632,959,6,-59,-13
4101,454,-297,1088,119,24,5
4102,-76,-5,993,108,78,22
4103,-364,126,848,74,40,24
4104,-524,-233,793,15,23,7
4105,-138,374,811,365,-70,-16
4106,435,645,1151,-5,-104,11
4107,617,255,1072,-122,-18,5
4108,251,0,895,-205,89,-6
4109,-206,-83,1021,-75,83,11
4110,-502,-304,823,-187,56,24
4111,-542,-752,769,-78,-16,-21
4112,-199,-539,45,-29,-133,18
4113,581,180,1206,500,-97,-30
4114,414,149,665,-104,-11,32
4115,95,407,1086,239,62,18
4116,-112,436,657,-68,32,27
4117,-483,435,948,-10,46,19
4118,-247,-106,909,-304,-73,12
4119,322,-312,745,-30,-56,-15
4120,433,-137,1164,103,37,-17
4121,314,-297,718,-96,59,30
4122,-300,-142,1018,74,82,24
4123,-556,-7,758,35,21,-5
4124,-346,-38,970,39,-63,-5
4125,116,-26,1011,47,-99,-3
4126,591,107,1155,93,-60,-2
4127,434,149,1092,-7,32,3
4128,29,415,992,62,79,15
4129,-411,-192,586,-167,117,4
4130,-645,-74,572,211,24,4
4131,-78,433,568,15,-93,16
4132,-13,-481,606,-120,40,50
4133,505,-218,136,505,48,4
4134,404,392,258,215,80,51
4135,-171,165,848,292,272,-106
4136,-377,-31,363,-128,83,17
4137,-363,735,107,551,49,61
4138,-406,-61,442,-616,-10,-49
4139,826,-203,176,77,-215,146
4140,151,674,1555,436,62,49
4141,282,-41,-335,-786,19,-149
4142,297,204,459,603,53,107
4143,-776,1229,750,260,103,65
4144,-243,-365,653,-541,-73,-104
4145,154,-281,446,109,-40,50
4146,143,415,490,12,-55,-62
4147,262,-317,187,-434,67,17
4148,-99,632,392,765,38,105
4149,-778,389,605,-266,84,-59
4150,93,-895,-25,-460,-47,-17
4151,-145,331,886,455,-68,28
4152,377,-398,93,-293,5,-68
4153,695,-538,80,-13,2,73
4154,-350,978,808,627,75,15
4155,-136,-182,188,-597,46,-45
4156,-453,-160,584,180,4,66
4157,-405,339,757,25,-75,-35
4158,515,-358,898,-144,-92,-31
4159,410,-238,860,7,-10,31
4160,359,202,1150,180,38,-3
4161,-114,6,968,-147,93,29
4162,-585,48,709,37,54,13
4163,-485,92,1003,-1,-49,-24
4164,-82,-236,1133,-93,-102,-14
4165,477,-291,384,31,-66,-21
4166,325,330,642,273,8,30
4167,250,400,642,-46,63,20
4168,-331,78,749,-146,87,6
4169,-696,155,855,13,23,-6
4170,-160,-147,835,-149,-73,-2
4171,132,-414,928,-73,-93,-6
4172,607,-289,1023,74,-40,-16
4173,405,-69,1092,71,48,16
4174,-152,124,940,63,85,24
4175,-462,229,891,27,51,27
4176,-585,179,932,-27,-21,-4
4177,-86,-50,961,-63,-106,-24
4178,498,-76,1175,5,-87,-5
4179,618,-88,1037,-28,-4,9
4180,250,-54,1030,-7,79,13
4181,-336,41,935,-7,98,18
4182,-639,16,830,-25,31,2
4183,-449,-84,852,-21,-64,-13
4184,166,-111,1096,22,-116,-6
4185,611,-86,1103,33,-68,3
4186,527,27,1058,45,30,-1
4187,18,174,1050,24,93,16
4188,-441,-134,1014,-89,70,28
4189,-367,-341,55,-79,7,-3
4190,-344,441,1318,356,-86,-27
4191,401,-137,856,-262,-125,17
4192,693,-93,546,65,-18,-1
4193,172,324,1282,117,74,-23
4194,59,47,688,-177,59,52
4195,-663,-9,815,-65,81,24
4196,-581,-62,829,-18,-33,-56
4197,-48,-631,704,-209,-127,29
4198,309,-190,427,180,-104,50
4199,686,160,907,270,-14,-74
4200,-77,214,714,-67,103,71
4201,-209,332,811,28,47,8
4202,-602,397,762,-65,3,-6
4203,-249,217,872,-71,-45,-10
4204,284,-424,952,-248,-90,16
4205,477,-259,1011,95,-18,-12
4206,420,-226,964,-37,48,3
4207,-231,-108,993,46,87,34
4208,-514,1,759,33,34,13
4209,-499,103,1046,77,-37,-19
4210,80,37,975,-4,-107,-8
4211,567,68,1132,42,-70,6
4212,524,97,1102,-8,26,4
4213,73,34,990,-60,84,12
4214,-450,2,911,-44,79,9
4215,-597,-97,838,-54,2,-3
4216,-259,-243,936,-29,-86,-5
4217,318,-59,1056,94,-108,-4
4218,672,-56,939,92,-8,6
4219,194,-88,408,127,139,-6
4220,33,757,750,361,56,44
4221,-760,292,743,-164,137,44
4222,-347,-215,-88,-143,82,33
4223,333,293,918,516,-116,-27
4224,-29,317,795,-131,35,-99
4225,-7,37,86,205,90,85
4226,-184,848,117,189,35,157
4227,-449,340,638,-208,65,-130
4228,-6,-272,546,-398,67,88
4229,-228,191,680,504,-158,-4
4230,642,270,335,-65,-104,-26
4231,404,-132,656,-82,2,8
4232,327,67,279,-4,56,10
4233,16,496,740,124,86,32
4234,-290,234,34,-512,36,17
4235,-141,-199,85,175,-6,26
4236,-78,708,757,401,-126,7
4237,407,-13,292,-566,-72,-31
4238,466,-592,450,105,-30,13
4239,-137,615,492,395,108,43
4240,-286,539,290,-102,50,-6
4241,-503,-245,211,-414,49,15
4242,-174,-212,537,163,-98,10
4243,216,-143,612,-42,-85,-65
4244,491,-651,641,-127,-42,-31
4245,691,-57,728,249,26,81
4246,-265,419,1003,124,96,9
4247,-527,6,657,-125,67,-34
4248,-499,219,881,85,-27,28
4249,-176,317,1132,2,-111,-3
4250,657,-290,968,-219,-94,-10
4251,517,-193,1097,62,23,-6
4252,218,-14,1040,-1,64,1
4253,-290,-5,931,-22,97,31
4254,-590,44,753,-15,36,21
4255,-507,-104,895,-22,-63,-25
4256,112,-160,1148,23,-114,-23
4257,598,3,1063,79,-76,9
4258,501,12,1142,11,16,0
4259,271,-126,458,-88,78,-18
4260,-419,241,594,213,127,47
4261,-641,520,646,-38,-45,25
4262,-148,-136,797,-227,-82,-30
4263,262,-119,931,31,-90,-17
4264,804,-182,924,-84,-55,6
4265,307,-298,926,-32,88,15
4266,-228,18,922,79,103,9
4267,-455,-432,791,-175,-3,21
4268,-410,-55,267,42,-108,-16
4269,94,750,1349,390,-189,-38
4270,688,555,1173,-47,-67,21
4271,560,143,885,-240,27,-4
4272,70,182,1090,25,85,-20
4273,-178,62,1038,-217,102,57
4274,-709,-487,645,-242,40,-4
4275,-428,-452,808,51,-49,-72
4276,117,-445,1080,52,-102,-43
4277,476,-538,411,-93,-140,-1
4278,432,220,867,355,-17,9
4279,-14,730,1071,105,50,0
4280,-336,388,479,-143,50,-8
4281,-435,388,679,-11,-17,13
4282,-42,249,1122,-140,-85,-2
4283,430,-397,1008,-272,-52,-6
4284,369,-782,902,-111,21,13
4285,-173,-485,-84,-78,17,54
4286,-150,267,792,420,56,-33
4287,-779,118,550,-139,29,38
