sequence,AccelerometerX,AccelerometerY,AccelerometerZ,GyroscopeX,GyroscopeY,GyroscopeZ
0,-169,1,968,-11,-15,-6
1,20,26,1013,-8,-33,-11
2,167,40,1016,-15,-25,-10
3,203,34,997,-3,5,-7
4,94,28,998,-18,24,0
5,-97,10,999,-5,30,2
6,-203,-7,984,-11,12,-1
7,-187,3,967,-18,-11,-4
8,-2,26,1003,-6,-31,-11
9,146,37,1019,-15,-26,-11
10,213,38,1009,-16,-4,-7
11,115,30,997,-11,24,1
12,-71,12,996,-18,33,5
13,-199,-3,983,-9,19,2
14,-195,6,971,-13,-8,-3
15,-29,20,1011,-15,-33,-10
16,127,33,1013,-13,-28,-11
17,217,42,1002,-16,-6,-8
18,136,31,1002,-15,23,0
19,-48,12,1008,-17,34,4
20,-188,-2,969,-16,22,3
21,-199,2,967,-11,-3,-3
22,-61,13,1009,-12,-28,-10
23,112,32,1016,-14,-29,-12
24,216,43,1003,-12,-10,-8
25,149,35,1001,-16,19,0
26,-20,10,1012,-16,33,4
27,-180,0,973,-13,25,2
28,-203,4,969,-13,-1,-3
29,-86,10,998,-11,-25,-9
30,92,33,1016,-14,-32,-11
31,214,44,1011,-17,-15,-9
32,159,32,1005,-14,16,-3
33,7,10,1000,-17,32,4
34,-166,0,976,-13,28,4
35,-207,3,980,-12,4,-1
36,-116,9,992,-11,-23,-8
37,77,33,1003,-13,-32,-12
38,203,39,1015,-13,-17,-10
39,175,34,1007,-15,10,-4
40,33,16,1012,-17,31,3
41,-145,4,978,-11,30,5
42,-210,-3,971,-12,7,0
43,-136,4,987,-10,-19,-7
44,53,33,1010,-11,-33,-10
45,195,42,1005,-16,-20,-11
46,187,32,1006,-14,7,-3
47,55,22,1009,-17,29,1
48,-129,9,991,-16,31,2
49,-205,-6,970,-14,11,0
50,-161,1,977,-12,-16,-6
51,33,31,1020,-12,-33,-10
52,175,41,1011,-13,-22,-11
53,199,36,995,-14,4,-5
54,82,27,1004,-15,28,1
55,-107,14,1002,-17,32,3
56,-205,-12,984,-13,13,0
57,-174,3,969,-12,-13,-6
58,5,28,1006,-12,-32,-10
59,158,37,1019,-13,-24,-12
60,208,38,1006,-16,-1,-7
61,103,32,991,-14,25,1
62,-82,13,1000,-15,33,4
63,-203,-6,987,-14,18,2
64,-187,3,966,-13,-9,-5
65,-15,19,1007,-12,-30,-11
66,135,34,1017,-12,-26,-10
67,213,39,1005,-13,-4,-7
68,124,30,1000,-16,23,-1
69,-61,10,999,-17,33,5
70,-192,-2,973,-13,20,1
71,-197,2,974,-11,-6,-5
72,-43,17,1008,-13,-29,-8
73,120,29,1013,-14,-30,-12
74,220,44,1000,-12,-8,-9
75,141,31,1001,-17,20,-1
76,-35,10,1012,-14,32,4
77,-184,-3,972,-14,22,3
78,-201,8,962,-11,-2,-2
79,-73,11,1008,-12,-25,-9
80,100,35,1017,-12,-30,-11
81,213,45,1009,-16,-12,-9
82,155,33,999,-17,16,-2
83,-4,9,1006,-15,33,3
84,-170,0,973,-13,26,3
85,-208,1,975,-13,2,-2
86,-99,11,993,-12,-24,-7
87,83,33,1007,-12,-31,-9
88,208,43,1014,-13,-15,-10
89,168,33,1008,-18,13,-3
90,24,16,1010,-16,31,2
91,-154,0,973,-16,29,3
92,-210,-3,977,-13,5,-2
93,-130,2,993,-10,-20,-8
94,65,33,1004,-12,-30,-11
95,196,46,1011,-13,-17,-11
96,184,34,1005,-16,9,-4
97,45,23,1015,-18,28,2
98,-134,7,981,-15,30,3
99,-208,-6,970,-14,10,1
100,-152,0,982,-10,-18,-6
101,39,30,1019,-12,-33,-9
102,183,44,1005,-15,-22,-11
103,195,33,998,-15,5,-4
104,71,28,1009,-15,27,1
105,-118,11,996,-15,31,5
106,-206,-10,976,-13,12,1
107,-172,1,971,-12,-14,-6
108,18,27,1010,-12,-33,-11
109,168,36,1021,-15,-24,-11
110,205,34,998,-15,1,-6
111,96,30,994,-15,26,1
112,-92,11,1001,-15,32,3
113,-207,-4,987,-11,17,0
114,-183,4,968,-13,-10,-5
115,-10,22,1001,-11,-32,-10
116,149,41,1022,-14,-27,-12
117,213,33,1008,-17,-2,-8
118,115,33,994,-13,24,0
119,-70,8,998,-16,33,3
120,-199,-5,979,-13,19,0
121,-194,6,973,-12,-7,-3
122,-35,22,1011,-15,-31,-9
123,128,34,1014,-14,-28,-11
124,217,42,1001,-14,-6,-7
125,135,29,1002,-15,22,-1
126,-45,9,1010,-16,33,4
127,-189,-3,970,-13,23,1
128,-196,1,967,-11,-3,-4
129,-63,15,1010,-12,-28,-9
130,106,33,1015,-12,-29,-10
131,219,45,1007,-14,-9,-9
132,148,33,1000,-14,19,-2
133,-18,11,1009,-15,33,3
134,-176,-4,974,-15,26,3
135,-208,3,966,-12,1,-2
136,-88,11,999,-11,-25,-9
137,92,31,1009,-14,-31,-10
138,209,47,1015,-14,-14,-10
139,166,33,1004,-14,15,-2
140,10,17,1006,-16,31,3
141,-159,4,970,-14,27,2
142,-209,-1,982,-12,4,-1
143,-119,8,989,-11,-23,-7
144,73,30,1002,-15,-33,-10
145,200,41,1014,-14,-17,-11
146,177,36,1007,-15,11,-3
147,38,19,1013,-17,30,2
148,-143,5,976,-14,29,4
149,-212,0,969,-12,7,0
150,-140,0,985,-15,-19,-7
151,51,35,1016,-11,-31,-10
152,193,42,1003,-15,-20,-12
153,189,35,1005,-16,7,-4
154,62,25,1011,-15,27,1
155,-128,8,989,-15,31,3
156,-206,-8,976,-13,9,-1
157,-167,0,972,-11,-15,-6
158,31,33,1015,-12,-33,-11
159,175,38,1018,-13,-23,-11
160,201,37,992,-13,4,-6
161,87,27,1002,-14,28,1
162,-104,9,1002,-17,33,4
163,-207,-10,984,-15,14,0
164,-178,0,967,-14,-12,-6
165,4,26,1006,-10,-29,-10
166,156,39,1018,-12,-24,-11
167,207,38,1008,-15,-1,-6
168,108,29,997,-14,24,0
169,-79,9,993,-16,33,4
170,-201,-7,982,-13,19,0
171,-187,5,973,-13,-10,-5
172,-23,19,1010,-12,-32,-10
173,133,34,1012,-13,-27,-11
174,213,41,1004,-14,-4,-8
175,130,31,1006,-14,22,0
176,-56,14,1000,-16,34,5
177,-193,-1,973,-16,21,2
178,-198,6,971,-12,-5,-3
179,-51,12,1007,-15,-30,-9
180,116,32,1017,-13,-30,-10
181,217,46,1002,-12,-8,-8
182,148,34,1001,-17,19,-1
183,-30,9,1014,-17,32,4
184,-179,0,970,-12,24,0
185,-203,3,968,-13,-1,-3
186,-81,13,1000,-11,-27,-8
187,96,30,1017,-13,-30,-10
188,217,43,1012,-14,-14,-10
189,161,34,1003,-14,16,-2
190,1,15,1003,-16,31,3
191,-167,-1,977,-14,27,3
192,-209,1,978,-12,3,-3
193,-109,9,989,-12,-23,-8
194,78,31,1004,-13,-32,-11
195,205,45,1016,-12,-15,-11
196,172,33,1007,-16,13,-3
197,26,17,1011,-15,31,3
198,-148,4,974,-14,29,4
199,-212,-4,975,-14,7,-2
200,-136,1,988,-12,-22,-7
201,58,31,1007,-11,-33,-11
202,196,43,1007,-14,-19,-11
203,185,34,1004,-16,8,-3
204,52,24,1014,-15,29,1
205,-130,10,989,-16,30,4
206,-212,-7,968,-12,11,0
207,-158,3,977,-10,-16,-6
208,35,32,1018,-13,-32,-10
209,178,43,1013,-13,-23,-12
210,201,32,992,-15,3,-6
211,79,29,1009,-12,28,0
212,-110,9,1001,-15,33,4
213,-206,-7,980,-14,13,1
214,-174,1,968,-12,-13,-5
215,11,30,1007,-12,-32,-10
216,161,36,1022,-14,-24,-11
217,210,35,1005,-14,1,-7
218,102,29,994,-16,24,0
219,-88,12,999,-15,33,4
220,-206,-10,988,-13,17,1
221,-186,4,969,-12,-10,-4
222,-12,22,1006,-9,-31,-10
223,138,37,1015,-13,-26,-11
224,212,41,1008,-14,-4,-7
225,125,29,996,-16,23,0
226,-66,10,999,-17,33,4
227,-194,-5,973,-14,20,2
228,-198,3,975,-12,-6,-3
229,-40,19,1009,-12,-30,-9
230,120,34,1015,-13,-28,-11
231,220,45,997,-16,-8,-10
232,138,34,1005,-15,21,0
233,-41,12,1007,-16,33,3
234,-185,-7,972,-15,22,1
235,-197,5,967,-13,-3,-3
236,-75,10,1005,-12,-26,-8
237,105,35,1019,-13,-30,-12
238,216,47,1011,-16,-12,-9
239,154,37,996,-17,17,0
240,-9,10,1013,-16,32,4
241,-174,-4,972,-15,26,3
242,-207,3,971,-12,1,-2
243,-98,2,996,-10,-24,-9
244,85,33,1009,-13,-31,-12
245,213,47,1012,-13,-14,-10
246,163,38,1008,-15,14,-2
247,20,20,1008,-16,32,3
248,-161,2,971,-14,29,4
249,-212,-2,979,-15,4,-1
250,-125,1,990,-12,-22,-7
251,70,30,1002,-13,-32,-11
252,201,43,1012,-12,-17,-9
253,182,38,1009,-14,11,-4
254,41,22,1014,-15,30,3
255,-141,11,979,-13,30,4
256,-210,-6,972,-13,9,0
257,-151,3,982,-13,-19,-6
258,47,29,1017,-13,-34,-10
259,190,43,1007,-15,-22,-11
260,194,30,999,-16,6,-5
261,68,28,1009,-15,29,2
262,-121,8,996,-17,31,4
263,-211,-6,976,-12,13,0
264,-167,1,971,-12,-15,-7
265,20,28,1011,-13,-32,-10
266,170,40,1021,-12,-24,-11
267,205,32,994,-17,1,-6
268,93,29,1000,-13,27,1
269,-96,11,998,-16,33,4
270,-209,-5,985,-15,17,1
271,-177,3,967,-13,-10,-4
272,-7,26,1004,-12,-30,-8
273,150,37,1018,-13,-26,-12
274,213,36,1015,-15,-1,-8
275,110,33,991,-15,23,0
276,-71,10,996,-17,33,4
277,-198,-10,986,-13,20,1
278,-194,2,967,-13,-7,-3
279,-25,20,1011,-13,-29,-10
280,126,35,1016,-12,-27,-11
281,216,46,999,-13,-6,-8
282,132,30,1003,-16,22,-1
283,-51,11,1006,-16,33,4
284,-185,-4,970,-13,21,2
285,-195,5,968,-13,-4,-3
286,-60,12,1007,-13,-29,-9
287,112,31,1021,-13,-29,-12
288,218,43,1002,-14,-8,-8
289,146,37,1001,-14,20,-2
290,-20,11,1015,-17,33,3
291,-180,-1,973,-15,23,2
292,-206,2,963,-12,1,-3
293,-85,5,1005,-12,-24,-10
294,94,32,1012,-12,-31,-11
295,212,41,1011,-13,-13,-9
296,160,34,1006,-15,16,-2
297,8,14,1002,-16,33,3
298,-165,3,976,-15,28,3
299,-212,2,976,-13,4,-2
300,-111,6,992,-11,-22,-9
301,76,30,1002,-14,-32,-10
302,202,42,1015,-13,-16,-11
303,176,31,1011,-17,12,-3
304,30,19,1010,-18,30,3
305,-144,10,979,-15,28,3
306,-213,-2,976,-12,7,-1
307,-140,8,985,-11,-19,-7
308,55,31,1012,-13,-32,-11
309,193,41,1006,-14,-19,-11
310,187,30,1002,-14,8,-4
311,55,21,1013,-14,29,3
312,-130,11,991,-16,30,5
313,-204,-7,969,-12,10,0
314,-162,7,976,-10,-16,-7
315,33,33,1018,-13,-32,-11
316,177,40,1015,-14,-22,-11
317,200,33,993,-15,4,-5
318,82,24,1002,-16,27,1
319,-105,11,1004,-14,32,4
320,-206,-11,979,-14,12,0
321,-173,6,971,-12,-12,-5
322,6,28,1002,-11,-31,-9
323,157,40,1023,-11,-24,-12
324,211,34,1007,-16,0,-7
325,102,31,992,-16,26,0
326,-77,9,997,-16,33,3
327,-204,-6,989,-13,20,-1
328,-187,4,967,-11,-9,-4
329,-19,21,1007,-12,-32,-9
330,135,39,1017,-12,-27,-11
331,213,39,1005,-16,-6,-7
332,127,31,1000,-15,22,-2
333,-58,8,1000,-17,33,4
334,-193,-5,975,-12,22,1
335,-195,5,969,-12,-4,-3
336,-50,17,1009,-12,-28,-8
337,116,36,1012,-14,-28,-11
338,215,41,1003,-14,-8,-9
339,146,37,1001,-15,19,-1
340,-35,10,1012,-17,33,5
341,-182,-3,970,-16,24,1
342,-204,5,965,-11,-1,-3
343,-76,11,1003,-10,-26,-9
344,101,31,1016,-13,-29,-11
345,212,46,1009,4,-11,-11
346,160,36,1000,-10,15,-3
347,-3,10,1009,-14,33,2
348,-172,2,974,-17,27,1
349,-205,2,978,-12,3,-2
350,-101,8,993,-12,-24,-10
351,83,32,1005,-14,-30,-11
352,209,47,1016,-12,-16,-10
353,169,37,1006,-17,13,-3
354,24,16,1009,-15,30,3
355,-154,1,975,-14,30,4
356,-209,-2,976,-13,5,-2
357,-129,3,991,-12,-21,-7
358,60,30,1006,-13,-31,-11
359,197,45,1008,-13,-16,-11
360,183,34,1008,-15,9,-5
361,45,26,1014,-15,29,2
362,-136,10,983,-15,31,4
363,-207,-4,967,-13,9,0
364,-158,0,983,-12,-18,-7
365,40,30,1017,-12,-34,-11
366,182,40,1010,-12,-21,-11
367,197,34,996,-14,5,-5
368,70,27,1007,-15,27,2
369,-117,14,998,-16,33,5
370,-208,-9,981,-14,13,0
371,-171,2,967,-13,-14,-5
372,16,26,1010,-12,-32,-9
373,170,36,1022,-15,-24,-12
374,204,32,1001,-15,1,-6
375,98,28,993,-13,26,1
376,-90,8,1000,-15,32,4
377,-204,-3,987,-11,16,0
378,-182,5,968,-13,-9,-5
379,-5,24,1010,-12,-31,-11
380,144,37,1018,-10,-24,-11
381,213,35,1007,-15,-3,-7
382,119,25,998,-14,23,0
383,-67,12,996,-16,35,4
384,-198,-4,977,-13,20,1
385,-195,5,977,-11,-7,-4
386,-35,16,1008,-13,-31,-10
387,124,35,1013,-13,-29,-10
388,220,42,1002,-13,-8,-9
389,137,30,1003,-15,20,-2
390,-45,10,1009,-16,33,4
391,-184,-3,974,-14,22,3
392,-199,3,968,-14,-2,-3
393,-64,15,1001,-11,-27,-10
394,109,33,1020,-14,-31,-11
395,218,46,1009,-15,-11,-9
396,152,36,998,-17,17,-1
397,-15,7,1012,-16,31,3
398,-178,-1,972,-15,23,3
399,-204,0,970,-13,1,-4
400,-91,8,997,-11,-23,-10
401,89,35,1010,-12,-30,-11
402,210,46,1013,-13,-14,-10
403,159,37,1007,-16,14,-3
404,15,19,1006,-16,31,3
405,-160,-2,974,-15,29,3
406,-210,-1,981,-13,4,-1
407,-120,1,989,-14,-22,-7
408,72,31,1005,-10,-32,-11
409,198,46,1009,-13,-17,-11
410,178,35,1011,-16,11,-3
411,37,23,1014,-15,29,3
412,-142,6,977,-16,29,3
413,-209,-4,971,-13,8,0
414,-148,0,986,-13,-19,-6
415,52,32,1013,-14,-33,-11
416,192,38,1008,-14,-21,-12
417,191,35,995,-16,7,-4
418,64,27,1016,-15,28,1
419,-124,10,995,-17,31,3
420,-208,-6,973,-14,10,0
421,-167,1,973,-13,-14,-5
422,27,28,1014,-14,-33,-10
423,175,37,1015,-14,-23,-11
424,203,33,998,-15,2,-6
425,92,28,995,-13,27,0
426,-101,10,1004,-16,32,4
427,-210,-3,984,-14,14,1
428,-181,2,965,-13,-13,-6
429,3,26,1004,-12,-32,-9
430,150,37,1018,-15,-25,-10
431,213,36,1011,-15,-2,-8
432,115,28,995,-17,24,-1
433,-76,11,997,-16,34,3
434,-205,-5,983,-15,19,1
435,-191,4,970,-11,-7,-4
436,-27,17,1009,-14,-31,-9
437,134,35,1016,-13,-27,-11
438,215,37,1001,-14,-7,-8
439,133,32,1004,-16,22,-1
440,-53,8,1008,-16,33,4
441,-189,-3,968,-14,21,1
442,-196,4,969,-12,-4,-4
443,-60,16,1010,-13,-29,-8
444,110,34,1014,-13,-30,-11
445,221,44,1008,-14,-10,-10
446,149,37,998,-15,18,-1
447,-22,9,1015,-15,32,3
448,-179,-4,972,-13,25,2
449,-206,2,965,-11,0,-3
450,-82,8,1000,-9,-26,-9
451,92,34,1016,-11,-31,-10
452,219,51,1010,-15,-14,-10
453,156,36,1006,-15,16,-2
454,4,20,1003,-13,32,3
455,-166,-2,975,-14,27,2
456,-206,-1,978,-10,3,-3
457,-111,4,991,-12,-23,-7
458,79,31,1005,-11,-31,-12
459,201,42,1008,-13,-16,-10
460,171,38,1012,-16,12,-2
461,32,19,1013,-16,30,3
462,-146,7,975,-14,30,3
463,-210,0,975,-13,8,0
464,-138,2,989,-13,-20,-7
465,57,30,1011,-14,-32,-10
466,192,41,1007,-14,-20,-10
467,186,32,1000,-15,8,-5
468,58,22,1015,-13,29,1
469,-128,11,989,-15,29,3
470,-208,-2,973,-13,10,-1
471,-161,5,979,-9,-16,-6
472,29,33,1017,-14,-33,-10
473,175,36,1013,-15,-22,-11
474,195,32,997,-16,3,-7
475,88,24,999,-16,27,-1
476,-110,9,999,-15,33,4
477,-202,-1,982,-13,13,-1
478,-175,4,972,-11,-13,-6
479,4,28,1000,-11,-32,-10
480,157,38,1023,-13,-25,-12
481,208,35,1009,-16,-1,-6
482,107,26,991,-13,23,0
483,-78,9,999,-16,32,4
484,-204,-7,982,-11,18,1
485,-183,6,971,-12,-9,-5
486,-21,23,1012,-12,-30,-10
487,130,36,1010,-12,-26,-11
488,216,42,1004,-17,-5,-8
489,125,32,1003,-15,22,0
490,-57,10,1000,-16,32,5
491,-189,-8,975,-12,20,0
492,-197,3,968,-11,-4,-3
493,-45,14,1011,-13,-29,-9
494,111,34,1014,-13,-26,-10
495,214,47,1004,-13,-7,-9
496,143,33,1004,-15,19,-1
497,-33,12,1004,-14,32,3
498,-179,-1,973,-14,23,2
499,-197,4,971,-14,-1,-3
500,-82,8,997,-12,-26,-9
501,98,34,1016,-13,-31,-11
502,213,41,1013,-16,-13,-9
503,153,37,1001,-15,16,-1
504,1,14,1007,-17,32,2
505,-165,0,974,-14,26,2
506,-206,0,979,-13,2,-1
507,-107,10,990,-12,-23,-8
508,81,30,1007,-13,-32,-10
509,202,43,1010,-12,-15,-10
510,169,32,1009,-16,12,-4
511,25,15,1013,-15,30,1
512,-147,6,977,-12,29,4
513,-209,0,973,-12,7,-1
514,-136,5,990,-11,-19,-7
515,61,33,1009,-11,-32,-11
516,192,44,1005,-13,-19,-11
517,186,32,1005,-17,8,-4
518,55,23,1012,-15,29,2
519,-130,8,988,-13,30,4
520,-203,-4,974,-12,10,-1
521,-158,1,978,-12,-16,-7
522,32,34,1014,-14,-31,-10
523,175,39,1016,-14,-20,-12
524,195,33,994,-16,5,-5
525,84,25,1001,-14,27,1
526,-106,9,1004,-17,33,4
527,-205,-8,983,-15,14,0
528,-168,3,968,-14,-13,-5
529,5,28,1004,-11,-30,-10
530,154,40,1019,-15,-23,-11
531,207,33,1010,-18,0,-5
532,103,32,991,-14,25,0
533,-79,8,994,-15,32,2
534,-198,-5,989,-12,18,-1
535,-191,5,970,-10,-9,-4
536,-14,20,1007,-12,-31,-12
537,127,36,1014,-12,-26,-11
538,212,42,1003,-14,-5,-8
539,126,28,1000,-17,22,0
540,-60,9,1005,-15,33,4
541,-189,-6,970,-14,20,1
542,-195,5,973,-12,-5,-3
543,-48,19,1007,-11,-31,-9
544,113,32,1016,-12,-29,-12
545,219,45,1003,-13,-9,-9
546,139,33,1001,-17,19,-1
547,-31,11,1012,-17,33,2
548,-179,-3,976,-14,22,0
549,-199,8,964,-11,-2,-4
550,-78,6,1002,-12,-26,-9
551,97,36,1020,-13,-30,-10
552,212,45,1012,-15,-12,-10
553,151,38,1000,-15,17,-1
554,-3,11,1007,-15,32,4
555,-167,0,975,-13,25,2
556,-207,-1,979,-11,1,-2
557,-100,8,989,-10,-24,-10
558,81,35,1006,-11,-31,-11
559,203,48,1011,-14,-16,-10
560,165,34,1009,-16,12,-3
561,26,14,1012,-17,31,3
562,-149,3,974,-14,28,5
563,-206,-3,975,-12,6,-2
564,-131,4,989,-13,-20,-7
565,60,32,1007,-13,-33,-10
566,193,45,1007,-15,-19,-11
567,180,31,1001,-17,9,-4
568,51,25,1015,-16,29,2
569,-131,7,990,-16,31,3
570,-206,-5,971,-12,9,-1
571,-152,2,979,-12,-18,-7
572,36,30,1017,-12,-33,-10
573,175,41,1011,-12,-21,-11
574,197,32,995,-16,3,-6
575,72,28,1003,-14,27,1
576,-107,13,999,-16,31,3
577,-204,-8,983,-13,13,-1
578,-169,3,964,-10,-12,-5
579,11,24,1006,-10,-30,-10
580,156,39,1024,-13,-23,-12
581,207,35,1003,-16,0,-6
582,105,30,994,-15,25,1
583,-86,9,996,-15,33,5
584,-198,-6,983,-12,18,1
585,-184,9,975,-12,-9,-4
586,-17,20,1005,-12,-31,-9
587,132,35,1017,-13,-26,-11
588,214,41,1003,-15,-5,-7
589,121,26,1002,-14,23,1
590,-56,11,1002,-16,32,5
591,-193,-7,971,-13,21,2
592,-193,7,971,-11,-4,-3
593,-46,15,1012,-13,-29,-9
594,118,36,1011,-14,-29,-12
595,216,41,1004,-16,-8,-9
596,141,31,1003,-14,21,-2
597,-32,9,1008,-15,34,4
598,-179,-4,974,-14,23,1
599,-199,4,967,-11,-2,-3
600,-78,12,1000,-12,-26,-8
601,100,36,1016,-13,-29,-11
602,210,45,1013,-15,-12,-9
603,158,34,1000,-18,15,-2
604,-1,13,1005,-15,32,3
605,-168,0,972,-13,27,3
606,-206,1,980,-12,2,-2
607,-102,8,989,-12,-24,-7
608,80,35,1007,-14,-32,-10
609,206,46,1014,-14,-16,-10
610,167,35,1009,-16,13,-3
611,25,19,1011,-18,31,2
612,-148,0,973,-13,29,3
613,-211,0,976,-11,7,0
614,-134,3,988,-14,-20,-7
615,61,31,1007,-13,-32,-11
616,198,42,1008,-13,-18,-10
617,180,38,1001,-15,10,-3
618,51,24,1018,-16,30,1
619,-132,5,988,-15,31,4
620,-208,-4,967,-14,10,-1
621,-156,0,980,-12,-16,-7
622,36,33,1022,-13,-32,-10
623,179,41,1010,-15,-22,-12
624,198,35,992,-14,5,-5
625,78,25,1009,-13,28,1
626,-111,12,1000,-15,33,5
627,-209,-7,980,-14,13,0
628,-171,5,969,-10,-13,-7
629,3,67,1008,-11,-30,-10
630,167,16,857,-11,-24,-8
631,209,3,914,-8,5,9
632,100,25,946,-38,35,-1
633,-100,-23,886,-6,44,3
634,-88,51,962,110,4,55
635,-283,14,724,129,-193,126
636,-71,-86,953,88,-170,53
637,109,145,646,76,-113,41
638,133,8,870,-253,-5,11
639,53,-31,823,76,103,34
640,3,30,686,-129,5,29
641,-92,-19,683,20,42,23
642,-277,-72,357,-103,117,27
643,-148,-105,566,-167,57,-53
644,72,82,558,-123,126,-16
645,122,50,231,405,-141,-19
646,122,-76,487,-472,-71,-24
647,-44,122,595,332,143,-14
648,-160,-87,246,-119,254,32
649,-211,-17,356,-171,-131,-24
650,-249,-153,218,339,-221,10
651,19,104,723,-232,104,29
652,181,-80,434,96,-228,-31
653,349,126,566,47,-239,13
654,94,-17,608,-19,-816,20
655,28,66,811,99,-127,-16
656,-225,-45,-18,-534,291,-77
657,-397,-84,-68,-157,29,-209
658,-114,-119,443,-226,-322,-108
659,138,65,212,59,195,-16
660,176,-43,155,-31,179,-87
661,256,6,479,-108,-116,-28
662,113,-79,178,324,-212,125
663,-222,-24,-174,-149,320,-32
664,-382,-189,189,-276,-24,-53
665,-94,43,261,156,-726,-253
666,-29,144,272,-461,193,-223
667,76,-44,-84,-366,-241,-261
668,-11,-88,122,102,85,-112
669,-86,113,263,-337,232,-18
670,-41,9,266,-3,916,-40
671,193,199,386,101,-551,-51
672,-197,-163,180,-309,-320,-107
673,-42,-70,492,288,-218,-33
674,294,134,423,-172,150,-3
675,86,89,0,-218,-90,9
676,-319,-14,253,54,-231,-84
677,-106,162,569,4,314,16
678,-59,209,137,-406,25,22
679,134,-45,154,419,-273,-29
680,121,76,108,-376,-104,2
681,117,127,120,-45,227,-11
682,70,51,222,181,-19,-14
683,-68,2,299,-274,-328,14
684,-189,-49,440,247,-56,-16
685,-169,-63,511,-139,266,-5
686,-19,1,655,-47,66,-7
687,112,28,734,151,-218,-14
688,201,66,858,-166,-102,-3
689,113,86,767,69,184,-4
690,-46,31,641,-50,98,0
691,-179,2,646,-60,-92,5
692,-199,-9,679,76,-72,-4
693,-46,-18,643,-94,35,-11
694,113,5,705,3,56,-12
695,205,38,860,8,-36,-7
696,148,49,918,-39,-54,-2
697,-36,34,1014,27,49,5
698,-182,21,971,-39,74,3
699,-194,11,972,-19,-2,-4
700,-79,4,997,8,-64,-8
701,97,11,1006,-36,-41,-9
702,215,27,1021,-5,17,-11
703,154,24,972,-15,28,-4
704,-3,16,971,-18,12,2
705,-172,15,958,2,13,1
706,-208,16,951,-22,15,-2
707,-97,19,973,-14,-7,-8
708,80,29,1010,-12,-36,-9
709,211,38,1016,-21,-29,-9
710,163,21,1007,-12,16,-4
711,21,4,1010,-16,38,1
712,-153,6,973,-13,28,3
713,-205,5,973,-6,-1,-1
714,-127,15,988,-15,-23,-8
715,65,43,1014,-13,-25,-10
716,193,42,1011,-14,-14,-10
717,176,31,1013,-18,5,-4
718,45,14,1016,-15,26,0
719,-137,1,975,-15,33,3
720,-204,-4,966,-9,13,-1
721,-148,3,985,-9,-18,-7
722,46,37,1017,-13,-36,-12
723,185,45,1009,-14,-20,-13
724,189,32,1002,-15,7,-6
725,68,25,1008,-17,27,1
726,-120,6,992,-14,31,3
727,-202,-11,976,-14,12,-1
728,-164,2,973,-12,-12,-5
729,18,32,1010,-11,-30,-10
730,167,36,1026,-15,-24,-11
731,197,35,1000,-15,1,-6
732,91,27,992,-14,26,0
733,-95,10,999,-13,33,3
734,-205,-4,985,-12,15,0
735,-174,3,970,-12,-11,-5
736,-2,26,1008,-12,-31,-9
737,143,34,1019,-12,-26,-11
738,210,36,1011,-17,-4,-7
739,111,30,995,-14,23,0
740,-70,12,990,-15,33,4
741,-195,-5,980,-14,20,1
742,-189,6,973,-13,-6,-3
743,-31,19,1012,-13,-30,-10
744,125,32,1012,-12,-28,-12
745,212,44,1003,-13,-5,-7
746,130,30,995,-15,21,0
747,-46,8,1008,-17,33,3
748,-184,1,970,-14,22,1
749,-196,4,964,-12,-3,-4
750,-57,15,1011,-12,-27,-10
751,102,30,1017,-14,-28,-10
752,212,44,1006,-14,-11,-9
753,148,30,1001,-14,17,-1
754,-20,12,1005,-12,34,3
755,-172,1,976,-13,25,2
756,-199,5,976,-13,0,-2
757,-90,12,997,-13,-25,-6
758,93,34,1010,-12,-30,-11
759,204,42,1016,-14,-14,-10
760,158,30,1001,-16,15,-1
761,11,14,1006,-13,32,4
762,-157,4,972,-15,29,3
763,-205,1,979,-12,5,-2
764,-115,5,996,-12,-22,-9
765,72,34,1003,-13,-32,-10
766,202,40,1010,-13,-17,-10
767,171,28,1005,-14,12,-2
768,40,24,1010,-14,30,2
769,-140,3,981,-15,30,3
770,-208,4,969,-13,8,-2
771,-140,3,988,-12,-19,-7
772,46,35,1017,-11,-32,-10
773,186,39,1003,-13,-20,-10
774,191,31,998,-13,8,-5
775,64,25,1009,-15,29,3
776,-110,25,997,-16,31,4
777,-134,54,827,-30,-3,2
778,-271,-74,658,3,-27,37
779,-17,3,921,-23,-49,0
780,209,36,809,-24,-31,-10
781,213,57,767,-38,-5,-1
782,111,49,828,-72,46,-10
783,-115,-27,923,-61,76,-2
784,-210,4,979,-1,11,3
785,-129,51,675,46,-44,10
786,10,88,573,-225,-56,-16
787,-18,-48,451,-116,31,-61
788,-31,105,391,-15,-7,-4
789,114,-10,579,-106,-9,-20
790,-51,4,607,164,37,13
791,-110,-51,731,-132,15,2
792,-220,55,977,58,10,1
793,8,31,978,-39,-37,-14
794,146,48,996,-44,-19,-11
795,127,69,956,47,8,-3
796,122,17,924,-110,20,-7
797,-54,3,937,28,34,1
798,-208,-2,886,-11,15,2
799,-176,-59,975,-64,-3,-12
800,-82,-107,957,59,-20,-11
801,154,73,955,-40,-34,-14
802,256,64,942,-2,-31,-25
803,-57,324,-93,-400,111,-41
804,-158,-59,112,-501,285,-49
805,-182,-48,220,192,103,-12
806,-108,97,256,-193,-110,1
807,83,-6,312,-186,27,-18
808,190,52,295,192,193,-41
809,242,34,579,-302,-97,3
810,70,115,578,183,-162,19
811,-43,16,669,-32,115,5
812,-214,-3,701,-196,262,1
813,-205,-166,765,154,-26,-19
814,29,112,385,-97,-241,37
815,125,147,316,-13,34,-47
816,151,-63,118,54,233,-68
817,0,-78,318,-13,47,-25
818,355,7,410,198,-11,98
819,-30,-119,150,-186,18,-90
820,-61,-68,284,-94,243,2
821,-19,-39,-64,12,89,-20
822,154,-39,214,-35,-124,-72
823,179,17,79,-9,-41,-10
824,-209,266,342,-19,63,-79
825,32,27,230,44,28,-68
826,92,-98,434,6,-1,32
827,5,-45,126,132,-59,1
828,7,-43,220,-67,-16,-13
829,44,116,329,-126,17,8
830,140,106,465,251,-65,-25
831,233,69,347,-325,-56,2
832,123,21,388,179,25,7
833,-95,35,535,-25,67,0
834,-193,-49,704,-223,39,10
835,-179,-38,911,253,-34,-8
836,-6,-4,839,-225,-70,-9
837,136,29,803,87,0,-16
838,197,68,790,46,30,-8
839,131,67,795,-158,-4,-2
840,-59,26,800,136,20,1
841,-204,-3,878,-124,14,4
842,-201,-9,873,-8,13,-7
843,-45,-7,820,43,-20,-9
844,127,18,846,-85,-57,-11
845,220,35,915,65,-5,-13
846,139,41,956,-44,37,0
847,-38,32,1016,-27,38,3
848,-188,7,982,27,14,1
849,-205,10,963,-57,-19,-2
850,-69,11,1002,8,-15,-10
851,94,19,1012,-19,-17,-9
852,217,37,996,-31,-18,-8
853,160,24,1002,11,12,-4
854,-10,14,1005,-30,30,4
855,-167,4,981,-9,32,2
856,-207,9,957,-6,2,-1
857,-100,19,997,-24,-33,-7
858,79,32,1002,-4,-31,-11
859,209,43,1009,-19,-9,-10
860,169,30,1002,-19,17,-2
861,20,7,1014,-5,30,1
862,-152,-1,983,-19,24,3
863,-211,2,977,-7,6,-2
864,-122,6,988,-12,-19,-8
865,63,35,995,-15,-32,-10
866,200,50,1015,-9,-17,-10
867,179,37,1010,-20,11,-4
868,38,15,1024,-16,31,1
869,-134,2,984,-14,28,2
870,-209,-9,977,-13,6,-1
871,-142,4,981,-10,-18,-6
872,43,29,1002,-11,-29,-10
873,187,43,1006,-14,-18,-11
874,188,37,1011,-13,5,-5
875,63,28,1019,-17,27,0
876,-119,9,995,-16,30,3
877,-204,-5,971,-13,11,0
878,-165,-2,969,-11,-15,-6
879,27,27,1010,-10,-31,-9
880,173,40,1013,-12,-21,-11
881,197,36,999,-14,4,-6
882,88,28,1013,-16,25,1
883,-100,14,1005,-17,29,4
884,-205,-5,981,-14,13,0
885,-176,3,960,-11,-11,-6
886,0,25,1001,-14,-28,-10
887,154,35,1022,-12,-24,-12
888,204,35,1013,-15,-1,-7
889,112,34,998,-16,23,0
890,-78,11,999,-14,31,5
891,-200,0,982,-13,19,0
892,-187,3,968,-11,-7,-4
893,-22,20,999,-10,-28,-10
894,130,34,1020,-13,-25,-12
895,211,39,1009,-15,-6,-8
896,128,28,1006,-17,19,0
897,-54,7,1002,-15,33,4
898,-190,-3,971,-13,22,2
899,-193,8,969,-11,-3,-3
900,-53,18,1008,-12,-27,-9
901,115,38,1017,-14,-26,-10
902,215,43,1005,-13,-8,-8
903,140,32,1005,-16,19,-2
904,-24,8,1011,-16,32,3
905,-181,-4,971,-13,24,1
906,-195,6,963,-11,1,-4
907,-76,12,1001,-10,-24,-8
908,94,36,1019,-14,-29,-10
909,211,46,1014,-16,-14,-8
910,154,35,1002,-17,14,-3
911,-1,11,1003,-17,31,3
912,-166,0,972,-14,26,1
913,-201,3,973,-13,3,-3
914,-105,6,991,-11,-21,-7
915,81,34,1010,-12,-30,-11
916,200,44,1013,-14,-16,-10
917,169,41,1011,-16,11,-3
918,24,16,1007,-15,30,3
919,-149,1,970,-14,29,2
920,-206,-9,976,-10,7,-1
921,-128,3,989,-12,-19,-7
922,62,28,1011,-12,-32,-11
923,193,44,1009,-12,-19,-10
924,178,39,1006,-17,8,-3
925,75,85,943,-26,13,-3
926,-101,-20,556,78,9,35
927,-128,8,862,-23,-59,8
928,-183,-42,514,-48,-47,13
929,32,47,834,182,-51,4
930,154,41,705,-126,-52,12
931,203,27,904,63,-8,0
932,68,47,872,-2,21,3
933,-117,11,986,-105,40,10
934,-217,6,836,79,40,-5
935,-177,-14,936,-68,-29,-4
936,23,22,1018,-9,-53,-6
937,143,29,917,40,-16,-7
938,174,6,952,-89,12,-12
939,63,-50,932,31,31,7
940,18,225,876,22,50,17
941,-55,50,218,26,85,169
942,-111,-82,421,-175,122,73
943,-202,83,279,-253,145,-122
944,64,-156,584,-466,52,-55
945,140,35,317,8,166,-68
946,-103,-92,399,-256,46,-140
947,-46,174,584,-471,51,-132
948,56,54,372,238,55,-25
949,-58,-10,296,-95,29,11
950,118,-217,422,-17,-93,-42
951,-248,-88,252,209,-10,-46
952,317,-60,138,-580,124,-34
953,-99,108,139,268,55,-5
954,-73,-69,103,-79,-7,-13
955,83,86,365,-298,-15,-47
956,9,49,552,335,113,-45
957,-198,-38,749,-286,39,-34
958,-31,-25,819,141,-81,-59
959,232,4,187,184,-132,-31
960,126,-350,225,-441,41,-92
961,-315,-36,-139,387,140,-235
962,-155,-409,188,-89,-49,-79
963,-467,-130,83,269,-87,33
964,-312,-217,524,173,-93,-21
965,335,-28,314,-381,-159,39
966,90,171,430,128,199,-8
967,219,-82,275,-361,50,-26
968,-2,-107,-157,100,-42,91
969,-246,53,195,47,-72,32
970,-160,1,639,-29,271,19
971,-189,130,155,80,-37,-22
972,-192,-172,-46,151,-789,-141
973,42,-46,458,-74,114,-44
974,8,102,606,143,531,-10
975,256,60,242,8,-16,51
976,-96,34,227,8,-506,-59
977,-269,-160,416,122,237,-12
978,-174,47,349,-106,210,14
979,-31,-40,245,6,84,-29
980,193,28,234,43,-193,-22
981,346,103,511,-21,-119,15
982,37,141,660,62,205,6
983,-172,-125,423,-128,231,-21
984,-230,-12,718,27,-60,14
985,-149,-4,511,14,-154,-5
986,90,-38,375,-45,-42,-22
987,200,93,381,47,70,-12
988,185,48,414,-34,33,-3
989,107,69,617,27,-28,-2
990,-114,30,740,21,-2,10
991,-223,-23,629,-44,51,-4
992,-184,-27,772,-22,34,-7
993,-19,14,892,-4,-51,-8
994,160,28,980,-12,-79,-14
995,231,44,989,1,6,-8
996,112,54,985,-22,70,2
997,-56,25,968,-17,47,2
998,-213,-5,941,-5,-12,3
999,-199,0,903,-22,-27,-3
1000,-37,0,926,-15,-11,-14
1001,112,28,889,-10,-14,-11
1002,221,45,910,-15,-20,-7
1003,151,32,893,-10,6,-2
1004,-41,18,928,-22,42,7
1005,-181,0,949,-15,38,0
1006,-208,5,957,-10,-7,-3
1007,-75,14,987,-15,-45,-8
1008,96,28,997,-12,-32,-11
1009,214,43,982,-13,0,-9
1010,156,35,989,-14,21,-2
1011,-5,12,994,-12,27,4
1012,-171,-2,973,-16,21,2
1013,-202,5,962,-11,4,-3
1014,-102,8,983,-12,-22,-9
1015,77,32,1004,-13,-36,-12
1016,207,46,981,-14,-18,-10
1017,167,38,978,-16,16,-3
1018,16,17,1005,-14,37,4
1019,-150,-1,976,-13,22,-1
1020,-206,-5,985,-3,1,-2
1021,-122,4,986,-13,-24,-8
1022,62,26,985,-16,-31,-11
1023,194,49,1001,-11,-15,-9
1024,174,39,987,-16,11,-4
1025,44,23,1002,-17,29,1
1026,-137,7,984,-16,30,3
1027,-207,-5,965,-14,8,-2
1028,-142,-4,982,-13,-23,-7
1029,42,26,986,-10,-34,-10
1030,187,43,999,-12,-17,-10
1031,183,36,1006,-15,11,-5
1032,66,29,1019,-15,30,0
1033,-121,12,999,-15,29,3
1034,-201,-5,981,-13,9,0
1035,-161,-1,976,-13,-17,-5
1036,23,26,1007,-10,-31,-10
1037,167,39,1000,-14,-23,-11
1038,196,32,996,-13,6,-6
1039,87,31,1010,-14,28,1
1040,-97,13,1013,-14,32,2
1041,-204,-8,987,-13,11,0
1042,-178,0,965,-12,-13,-5
1043,0,25,999,-8,-29,-10
1044,148,39,1015,-12,-21,-11
1045,203,34,1007,-15,-1,-7
1046,110,35,1000,-16,23,0
1047,-78,15,1009,-18,31,4
1048,-195,-5,988,-14,16,0
1049,-187,1,968,-13,-8,-5
1050,-22,22,995,-11,-29,-10
1051,131,31,1016,-14,-24,-11
1052,216,38,1011,-14,-3,-8
1053,122,29,1005,-14,22,-2
1054,-51,14,1007,-15,30,3
1055,-191,-7,980,-11,19,1
1056,-195,8,966,-11,-5,-3
1057,-50,15,1005,-14,-29,-9
1058,114,31,1011,-13,-27,-11
1059,214,43,1002,-14,-7,-9
1060,145,32,1010,-15,18,-2
1061,-32,12,1021,-14,32,3
1062,-177,-2,968,-11,21,1
1063,-200,1,963,-11,1,-3
1064,-75,12,1000,-13,-24,-9
1065,96,33,1016,-13,-28,-10
1066,215,48,1014,-13,-13,-8
1067,196,69,1016,-12,15,-3
1068,-26,15,710,-25,44,0
1069,-193,-67,928,-26,31,-8
1070,-199,50,940,21,1,-11
1071,-111,-15,681,-32,-21,-2
1072,112,39,987,59,-38,-14
1073,217,90,891,-18,-46,-9
1074,159,13,956,-78,23,-1
1075,15,22,915,70,39,5
1076,-184,-29,934,-40,5,3
1077,-228,-61,942,-44,9,1
1078,13,156,932,128,0,-5
1079,124,202,606,88,31,158
1080,-35,-4,499,-68,15,43
1081,99,-33,606,105,-97,-6
1082,198,-46,713,-26,-27,94
1083,-44,128,620,183,49,-1
1084,-151,-21,372,33,15,46
1085,-131,-83,384,-188,-77,7
1086,40,221,592,189,-74,-90
1087,119,-6,318,83,-21,-147
1088,129,-70,117,-30,26,-95
1089,-9,-63,333,92,-33,-19
1090,-6,-64,600,65,-56,-4
1091,-19,-7,748,7,-40,19
1092,-78,99,536,140,-103,6
1093,-81,25,109,-147,5,-3
1094,104,-148,197,-54,67,-84
1095,103,58,502,-362,132,-89
1096,18,-8,608,-169,193,-56
1097,-86,-71,539,68,133,-36
1098,-232,-66,616,-374,25,-20
1099,-143,-60,852,281,81,-32
1100,164,-170,458,-150,-64,11
1101,72,226,-309,218,-53,48
1102,191,-95,-96,655,-67,-59
1103,103,18,-106,51,-236,63
1104,-135,50,12,60,-196,114
1105,-176,-219,518,141,-96,66
1106,-25,-17,803,99,-97,69
1107,28,40,210,143,-136,144
1108,59,96,-391,-118,-103,-30
1109,-69,-130,404,145,45,32
1110,63,-65,430,-74,-51,24
1111,56,104,177,138,-114,195
1112,-86,77,524,272,-71,116
1113,-221,-198,338,-240,-15,116
1114,-92,-31,-58,228,34,37
1115,-2,-18,350,-79,-103,20
1116,-40,246,311,233,-108,-59
1117,15,21,220,75,183,-177
1118,-240,-211,318,-358,176,-40
1119,-97,149,447,179,-136,16
1120,99,24,176,-95,-282,2
1121,-28,-27,153,154,125,-41
1122,-15,-88,467,-338,-42,-22
1123,132,-101,670,471,-268,7
1124,33,16,138,-304,-790,3
1125,130,-63,75,255,-392,-34
1126,-68,71,253,-77,8,7
1127,-186,31,482,-235,86,5
1128,-116,-6,627,353,-397,-7
1129,-5,-25,631,-339,-187,2
1130,98,6,716,151,186,-22
1131,159,-11,822,-24,120,-4
1132,105,28,974,-124,-112,0
1133,-54,15,936,202,-54,-5
1134,-177,41,966,-188,64,5
1135,-182,34,925,57,87,-8
1136,-12,36,931,6,-34,-9
1137,149,17,951,-101,-107,-7
1138,184,9,952,81,0,-7
1139,93,-2,946,-84,70,1
1140,-83,12,927,11,49,4
1141,-179,8,878,24,-23,-1
1142,-164,13,907,-48,-37,-5
1143,-9,48,979,26,7,-8
1144,137,45,1016,-38,2,-10
1145,183,26,1005,-25,-18,-5
1146,105,19,999,3,-2,-1
1147,-79,1,1003,-39,34,3
1148,-180,-8,986,0,38,-2
1149,-178,3,960,-8,-5,-6
1150,-12,28,998,-18,-44,-9
1151,135,42,1030,2,-28,-11
1152,196,41,1006,-27,6,-7
1153,112,33,981,-16,26,-1
1154,-65,16,994,-14,23,3
1155,-187,-11,981,-20,10,0
1156,-185,1,963,-6,3,-4
1157,-25,13,1003,-14,-20,-9
1158,121,29,1022,-15,-27,-10
1159,202,43,1015,-10,-13,-7
1160,122,37,1007,-19,18,-1
1161,-50,19,994,-15,35,4
1162,-183,0,971,-14,23,1
1163,-190,3,971,-15,-7,-4
1164,-47,12,1014,-11,-28,-9
1165,108,27,1016,-15,-27,-11
1166,207,38,1006,-15,-8,-9
1167,138,32,1004,-14,16,-2
1168,-29,13,1008,-16,29,4
1169,-178,2,967,-10,26,2
1170,-194,8,965,-12,3,-2
1171,-73,8,1009,-12,-24,-8
1172,96,31,1022,-13,-30,-11
1173,206,38,1018,-15,-13,-10
1174,153,32,1000,-14,16,-4
1175,-6,13,998,-14,30,2
1176,-166,5,976,-12,27,3
1177,-200,5,974,-13,4,-1
1178,-96,11,1000,-11,-20,-8
1179,82,29,1010,-14,-32,-11
1180,200,42,1023,-14,-16,-11
1181,164,29,1001,-16,12,-3
1182,15,15,1000,-13,31,2
1183,-147,5,973,-14,30,3
1184,-206,1,980,-11,7,-1
1185,-125,10,992,-12,-21,-8
1186,65,31,1014,-15,-34,-11
1187,192,42,1010,-13,-20,-10
1188,175,31,1002,-17,9,-3
1189,45,18,1013,-14,30,1
1190,-133,8,975,-14,32,4
1191,-203,-1,974,-13,10,-3
1192,-148,3,994,-11,-17,-7
1193,41,33,1016,-13,-34,-11
1194,183,40,1007,-14,-21,-12
1195,190,34,997,-14,6,-6
1196,65,25,1003,-15,28,1
1197,-115,10,994,-15,32,4
1198,-199,-4,980,-15,13,-1
1199,-167,3,976,-14,-15,-6
1200,19,29,1017,-11,-33,-11
1201,161,35,1018,-16,-25,-10
1202,199,36,994,-14,2,-6
1203,96,27,995,-12,27,0
1204,-96,15,999,-15,33,3
1205,-202,-7,986,-13,16,-1
1206,-180,2,973,-12,-10,-5
1207,-7,24,1003,-12,-32,-9
1208,146,34,1023,-13,-26,-13
1209,206,38,1004,-15,-3,-6
1210,115,31,991,-14,23,-1
1211,-66,11,1000,-16,34,4
1212,-197,-4,986,-16,18,1
1213,-188,3,974,-13,-7,-4
1214,-31,15,1012,-12,-31,-10
1215,123,37,1009,-11,-29,-11
1216,214,41,1000,-14,-6,-8
1217,133,31,1000,-17,21,-1
1218,-48,11,1006,-14,34,5
1219,-182,0,976,-14,22,1
1220,-199,5,972,-13,-3,-2
1221,-58,15,1004,-13,-28,-9
1222,103,27,1016,-13,-30,-11
1223,280,133,940,-5,-14,-15
1224,183,3,553,-154,-10,-40
1225,-22,37,647,99,14,9
1226,-132,-13,448,-23,-83,2
1227,-57,-4,584,47,-82,7
1228,-88,26,730,96,-12,11
1229,90,36,670,-20,-30,2
1230,237,52,742,-67,-24,-14
1231,138,50,715,7,27,-2
1232,-30,-22,767,-44,34,-12
1233,-209,-71,597,-24,33,7
1234,-57,212,734,37,-10,-4
1235,-215,-100,513,-272,-38,-114
1236,-31,144,743,84,18,0
1237,26,113,542,49,-65,-19
1238,138,-68,322,-229,6,-13
1239,14,18,455,283,108,6
1240,-155,35,470,132,-96,45
1241,-34,-277,288,12,-46,-49
1242,-157,-132,310,-7,-66,-14
1243,112,-406,307,-193,-30,-38
1244,-67,-21,321,70,62,-58
1245,170,-306,-84,-164,38,-20
1246,-59,-165,595,1,-111,-25
1247,-57,57,341,124,-58,45
1248,-75,210,-23,-165,233,41
1249,-74,-183,-93,407,-237,11
1250,-30,-251,238,-216,-87,-42
1251,-103,82,437,66,121,-30
1252,88,-35,197,165,-518,-173
1253,79,1,369,29,-210,-131
1254,44,129,191,139,-506,-12
1255,-221,-42,-536,415,856,-85
1256,-348,21,494,-227,197,-77
1257,-377,12,70,555,-283,-73
1258,-91,-70,301,135,-231,-4
1259,229,-35,589,-265,379,13
1260,215,-168,576,257,13,49
1261,-15,90,-122,-174,-350,49
1262,-75,-238,278,64,-267,-13
1263,-245,69,168,-65,315,14
1264,-78,-212,430,-7,20,2
1265,-67,145,221,-346,-31,-80
1266,176,-101,136,-85,31,-168
1267,115,-11,234,-291,137,-24
1268,-12,18,155,121,53,-65
1269,-91,-65,415,-143,18,-30
1270,15,104,472,-164,-42,21
1271,-69,-73,451,37,110,-42
1272,-202,-178,618,-342,45,-59
1273,53,57,544,311,-4,8
1274,81,59,309,-235,-38,-19
1275,126,-26,447,21,15,-28
1276,7,169,245,7,80,34
1277,-25,149,186,-201,71,6
1278,-297,-55,456,-62,-16,-27
1279,-119,-2,597,86,-87,13
1280,76,2,222,-159,34,-18
1281,121,11,352,176,56,-19
1282,132,108,521,-69,-43,4
1283,-6,25,661,-94,-17,2
1284,-174,20,867,179,64,-5
1285,-216,-3,840,-225,39,4
1286,-65,-18,686,118,-33,-22
1287,135,8,719,-30,-72,-6
1288,197,36,831,-100,-14,-7
1289,127,20,968,130,68,-10
1290,-67,42,1002,-134,33,8
1291,-175,30,995,45,-7,-3
1292,-167,-8,949,6,-16,-8
1293,-36,14,942,-86,-14,-6
1294,137,25,998,64,-1,-13
1295,182,28,1001,-69,-17,-6
1296,103,26,989,-2,5,1
1297,-68,26,998,16,37,3
1298,-183,5,996,-58,24,2
1299,-171,3,973,23,-6,-5
1300,-11,17,997,-26,-41,-8
1301,148,34,1011,-21,-29,-9
1302,185,32,1001,6,12,-6
1303,96,25,1015,-35,25,-1
1304,-84,18,998,-3,24,3
1305,-180,0,975,-11,9,0
1306,-172,-6,975,-21,-7,-4
1307,-5,23,1004,1,-21,-9
1308,144,35,1005,-21,-26,-12
1309,190,36,998,-13,-4,-7
1310,96,33,1010,-11,23,0
1311,-77,20,1007,-23,33,2
1312,-188,-7,984,-10,18,1
1313,-179,1,962,-12,-13,-5
1314,-10,17,1004,-13,-30,-9
1315,139,35,1019,-11,-22,-11
1316,201,36,1003,-18,0,-8
1317,112,32,1002,-13,21,-2
1318,-68,17,1003,-16,29,4
1319,-188,-2,989,-15,17,0
1320,-187,2,968,-11,-5,-3
1321,-27,19,996,-15,-27,-10
1322,127,28,1015,-14,-26,-11
1323,206,36,1012,-13,-6,-8
1324,126,32,999,-17,21,-2
1325,-54,15,998,-12,33,3
1326,-183,1,982,-13,20,0
1327,-194,3,973,-12,-4,-3
1328,-49,17,1002,-12,-28,-9
1329,113,29,1015,-15,-28,-12
1330,208,40,1004,-13,-8,-8
1331,141,33,1006,-15,17,-2
1332,-33,10,1010,-15,32,3
1333,-182,-1,969,-13,23,2
1334,-196,6,966,-14,-2,-3
1335,-69,13,1008,-12,-25,-9
1336,95,31,1017,-11,-28,-11
1337,212,44,1010,-16,-12,-9
1338,149,34,1003,-16,15,-2
1339,-10,13,1008,-16,31,4
1340,-169,-3,975,-14,25,3
1341,-202,1,967,-11,2,-1
1342,-92,9,997,-12,-24,-8
1343,80,31,1016,-12,-30,-11
1344,205,47,1015,-15,-16,-10
1345,160,37,1005,-17,13,-3
1346,16,16,1006,-14,31,2
1347,-158,3,975,-14,28,4
1348,-206,-2,977,-14,5,-2
1349,-115,3,991,-13,-21,-8
1350,66,31,1006,-12,-30,-10
1351,200,45,1014,-13,-18,-9
1352,171,35,1015,-15,9,-4
1353,38,21,1008,-17,25,2
1354,-142,7,975,-13,31,3
1355,-207,-4,973,-15,8,-1
1356,-140,1,987,-11,-18,-7
1357,51,29,1010,-13,-33,-11
1358,190,40,1010,-14,-20,-10
1359,186,36,1001,-15,6,-5
1360,58,23,1012,-15,27,1
1361,-125,10,992,-15,31,3
1362,-204,-10,968,-14,12,-1
1363,-162,3,979,-11,-14,-7
1364,31,27,1019,-14,-32,-11
1365,172,38,1011,-13,-24,-12
1366,200,35,995,-14,3,-5
1367,80,30,1003,-16,27,0
1368,-106,14,1001,-15,32,5
1369,-201,-4,981,-14,13,0
1370,-97,66,961,-118,-28,-58
1371,-49,-60,422,-127,39,-28
1372,77,-58,776,-74,-37,-42
1373,230,8,466,-1,-80,-18
1374,98,-20,740,34,24,-2
1375,-145,0,693,-17,96,15
1376,-186,-24,771,76,0,6
1377,14,217,895,4,-91,16
1378,20,103,472,-4,-43,51
1379,-18,-59,518,84,76,14
1380,185,72,551,-116,-50,9
1381,-35,-121,471,86,-4,24
1382,106,83,559,65,45,21
1383,-73,-197,349,-246,36,129
1384,-243,-42,705,-124,-66,56
1385,-212,-119,439,128,-74,50
1386,106,48,584,-176,-33,0
1387,85,-23,140,-54,-2,-30
1388,-36,-126,210,-81,-20,-31
1389,67,-129,549,187,-125,10
1390,-2,65,437,-136,190,15
1391,154,-39,315,258,239,89
1392,-24,-167,327,-22,-76,-40
1393,-11,37,215,-149,-708,15
1394,-23,51,403,211,38,-11
1395,94,9,232,-137,92,45
1396,-137,-63,-309,-364,-94,-67
1397,-203,-47,336,303,-438,-35
1398,-251,207,288,-780,198,-156
1399,-111,33,268,-242,371,-188
1400,-59,-267,254,50,132,-163
1401,153,-37,343,-175,111,-88
1402,82,-69,8,211,-465,-15
1403,40,-5,156,-135,-445,-106
1404,-200,-93,743,-203,-96,-50
1405,-155,124,324,26,-11,-3
1406,-161,-96,-81,242,-377,40
1407,-16,67,-77,-37,-369,-27
1408,-367,23,90,312,-325,0
1409,-162,145,153,-43,280,40
1410,-86,11,413,167,-201,98
1411,-3,-124,270,122,-13,-57
1412,-275,-164,-9,-141,214,27
1413,19,154,252,146,39,24
1414,154,-63,-77,-64,-161,79
1415,36,162,46,7,-5,-104
1416,-49,194,116,150,-68,9
1417,-86,208,38,-195,102,-36
1418,-124,36,187,235,159,-12
1419,30,115,86,-37,-176,14
1420,-30,9,125,-90,-245,-1
1421,80,1,343,123,90,-16
1422,39,-48,683,-210,159,4
1423,92,-55,652,114,-89,-18
1424,95,-47,615,-47,-168,4
1425,-22,-17,691,-39,55,0
1426,-80,-22,801,81,156,-7
1427,-127,25,850,-93,-24,2
1428,-30,80,780,60,-120,-7
1429,74,59,685,-22,-26,-11
1430,121,57,583,-64,70,-3
1431,85,20,530,42,29,-5
1432,-34,-13,605,-38,-41,1
1433,-133,-27,760,-6,-9,3
1434,-136,-4,876,-10,39,-5
1435,-18,10,979,-23,2,-9
1436,87,47,1002,17,-44,-9
1437,159,57,1013,-19,-30,-8
1438,98,53,994,-16,31,-2
1439,-46,27,991,-19,51,3
1440,-152,-11,987,-26,11,-1
1441,-154,-14,985,-8,-24,-3
1442,-30,-6,1009,-15,-29,-10
1443,95,10,979,-15,-11,-11
1444,185,41,973,-6,-2,-8
1445,113,49,994,-15,7,-3
1446,-36,36,1006,-13,25,2
1447,-166,16,980,-17,27,2
1448,-176,4,971,-21,2,-3
1449,-60,0,1010,-14,-30,-9
1450,91,11,1019,-14,-33,-10
1451,195,28,1001,-12,-9,-10
1452,139,31,991,-12,23,-3
1453,-16,22,1005,-11,34,4
1454,-160,18,985,-12,22,2
1455,-193,15,980,-16,-2,-2
1456,-84,14,1001,-18,-24,-8
1457,79,20,1012,-16,-30,-10
1458,195,33,1006,-15,-17,-10
1459,154,20,1004,-16,12,-4
1460,13,13,999,-12,33,2
1461,-150,7,977,-12,29,4
1462,-195,11,988,-12,4,-2
1463,-119,13,997,-13,-21,-9
1464,64,37,1005,-13,-32,-10
1465,189,41,1003,-15,-16,-10
1466,173,26,1009,-18,11,-4
1467,40,12,1007,-17,30,2
1468,-133,6,985,-15,29,2
1469,-201,-5,979,-11,8,0
1470,-142,9,989,-9,-19,-8
1471,45,34,1014,-14,-31,-11
1472,180,46,1003,-14,-19,-10
1473,184,34,994,-15,7,-4
1474,62,18,1012,-14,29,3
1475,-120,9,993,-16,30,3
1476,-198,-12,982,-12,10,-3
1477,-164,1,975,-10,-16,-5
1478,24,30,1017,-10,-33,-11
1479,168,40,1012,-13,-22,-11
1480,192,38,993,-16,4,-4
1481,90,30,998,-15,26,1
1482,-101,9,1005,-17,31,6
1483,-199,-6,989,-14,12,0
1484,-177,0,970,-13,-13,-5
1485,0,26,1003,-12,-31,-9
1486,147,31,1016,-12,-24,-11
1487,204,35,1004,-14,0,-7
1488,109,33,991,-15,24,1
1489,-75,17,1006,-14,34,3
1490,-196,-5,985,-14,17,1
1491,-192,6,973,-12,-9,-5
1492,-23,14,1005,-12,-30,-9
1493,127,31,1013,-11,-26,-11
1494,213,40,1004,-13,-4,-7
1495,129,30,1001,-14,22,-1
1496,-50,10,1006,-15,32,4
1497,-188,0,977,-13,21,1
1498,-194,7,971,-13,-4,-3
1499,-53,15,1007,-13,-29,-8
1500,110,35,1011,-13,-28,-10
1501,215,39,1001,-14,-8,-9
1502,143,35,1002,-16,19,-1
1503,-27,11,1014,-15,31,4
1504,-176,-2,977,-14,22,0
1505,-204,2,963,-13,-1,-2
1506,-78,13,1005,-10,-25,-9
1507,92,30,1012,-13,-30,-11
1508,209,50,1010,-13,-12,-9
1509,157,32,1007,-18,16,-3
1510,1,13,1008,-14,32,3
1511,-167,0,977,-13,27,3
1512,-204,0,977,-12,2,-4
1513,-108,5,989,-12,-23,-9
1514,139,99,981,-10,-3,-24
1515,92,18,424,-19,67,-6
1516,98,-34,792,-164,32,-21
1517,111,27,803,2,42,-54
1518,-119,-41,658,-68,70,-17
1519,-204,47,827,121,-30,26
1520,-76,-4,723,-45,-79,-4
1521,59,57,836,-3,-18,-13
1522,194,46,943,-24,13,-10
1523,152,35,857,-30,16,-5
1524,24,11,953,-6,-19,-8
1525,-165,-40,825,-3,9,7
1526,-212,-83,716,4,6,15
1527,36,188,727,159,-84,56
1528,-65,86,383,161,-249,169
1529,-78,-54,410,283,-201,205
1530,-94,36,468,238,-150,128
1531,-14,96,217,-217,-27,83
1532,19,54,494,85,-9,35
1533,-83,-67,340,55,11,-27
1534,-155,80,59,141,27,49
1535,-53,57,529,193,-37,31
1536,94,-45,156,-105,-32,5
1537,94,-245,95,-253,-76,-38
1538,-298,158,199,210,36,19
1539,-9,-88,153,-167,95,-11
1540,-145,-90,67,-65,40,2
1541,-87,-113,408,404,-308,-54
1542,-186,322,123,-77,69,-25
1543,-159,111,365,90,14,-100
1544,100,37,145,187,-2,12
1545,485,-30,225,-273,-119,6
1546,-44,-239,61,123,19,-3
1547,-172,-97,-41,-344,2,-86
1548,-227,-14,693,253,-70,19
1549,-34,-260,458,-125,-18,-101
1550,-6,-30,480,-122,-71,-88
1551,132,-37,545,105,10,-56
1552,175,-121,557,27,-14,-67
1553,-70,119,-46,48,-74,-15
1554,16,-13,-294,-31,146,-5
1555,-155,93,222,32,-68,-79
1556,-240,44,221,-111,28,-14
1557,127,-173,475,231,-13,28
1558,69,-52,26,-61,14,57
1559,-12,14,-1,-76,-26,-66
1560,-166,-189,82,-199,4,-65
1561,-162,39,423,-69,78,5
1562,-66,-44,-60,16,43,-36
1563,18,137,407,-269,38,-124
1564,-64,-153,103,83,11,-18
1565,132,25,245,70,-46,-43
1566,285,-20,276,-161,-69,-67
1567,54,74,211,45,141,-36
1568,74,80,22,22,-12,-132
1569,-284,-21,-70,-363,-114,-2
1570,-62,-17,294,504,123,-9
1571,239,-107,-38,-329,-41,-3
1572,-17,89,204,248,-184,-17
1573,91,-121,52,89,-14,-16
1574,174,-38,175,-169,146,-17
1575,72,52,182,188,34,8
1576,-110,53,229,-126,-231,6
1577,-189,21,268,70,-67,-6
1578,-81,-24,612,-87,228,-6
1579,52,-7,635,-40,31,-14
1580,134,-13,593,45,-183,-7
1581,119,36,563,-36,-75,-2
1582,4,51,527,-5,142,-2
1583,-102,30,509,-71,94,0
1584,-164,10,567,-3,-85,-4
1585,-73,22,659,-8,-89,-6
1586,72,11,693,-43,26,-11
1587,161,16,765,-7,63,-7
1588,126,20,862,-35,-14,-2
1589,-21,20,994,0,-35,3
1590,-142,7,1001,-11,27,1
1591,-165,13,970,-21,43,-4
1592,-46,27,989,-2,-20,-9
1593,86,34,1015,-20,-60,-9
1594,169,35,1004,-10,-14,-7
1595,120,27,984,-19,43,-2
1596,-27,13,997,-21,39,3
1597,-151,-11,997,-8,3,-1
1598,-175,2,956,-14,-15,-4
1599,-48,16,976,-12,-16,-10
1600,91,35,982,-14,-14,-11
1601,184,40,1000,-15,-13,-7
1602,129,39,995,-10,8,-1
1603,-29,15,1001,-19,32,3
1604,-156,-2,990,-16,28,0
1605,-180,0,978,-14,-2,-2
1606,-58,11,1006,-15,-33,-8
1607,90,26,1008,-12,-27,-11
1608,188,42,991,-11,-2,-8
1609,142,37,997,-14,18,-2
1610,-19,16,1017,-16,29,4
1611,-159,5,982,-15,20,3
1612,-187,1,975,-16,1,-2
1613,-82,7,1008,-11,-24,-8
1614,80,23,1007,-14,-31,-10
1615,195,41,1005,-11,-13,-9
1616,156,35,997,-14,17,-2
1617,4,16,1009,-16,33,2
1618,-155,6,986,-14,25,3
1619,-195,5,985,-16,0,-3
1620,-101,8,988,-14,-24,-9
1621,68,29,1000,-15,-30,-10
1622,198,42,1009,-15,-15,-11
1623,158,33,1008,-16,12,-3
1624,28,20,1007,-17,29,1
1625,-146,4,988,-16,27,2
1626,-199,3,986,-14,4,-2
1627,-129,2,988,-13,-20,-7
1628,56,30,998,-13,-31,-10
1629,187,42,1007,-11,-16,-10
1630,173,36,1008,-17,10,-5
1631,48,19,1019,-16,28,2
1632,-127,8,988,-15,29,3
1633,-201,-3,974,-14,8,-1
1634,-147,0,986,-11,-17,-6
1635,34,28,1005,-12,-30,-10
1636,182,41,1002,-14,-18,-10
1637,189,37,1001,-17,7,-4
1638,68,28,1015,-15,27,1
1639,-112,9,1002,-17,29,4
1640,-203,-8,976,-11,11,0
1641,-164,0,971,-12,-14,-6
1642,16,26,1005,-10,-29,-9
1643,161,37,1012,-13,-20,-11
1644,199,33,999,-14,3,-7
1645,90,32,1002,-12,26,0
1646,-91,13,1007,-17,31,3
1647,-200,-6,987,-13,14,0
1648,-178,5,960,-12,-11,-4
1649,-5,22,1001,-12,-29,-10
1650,145,34,1017,-15,-25,-11
1651,208,35,1009,-18,-2,-6
1652,116,31,1001,-14,24,-1
1653,-70,14,997,-16,33,4
1654,-194,-3,988,-12,17,1
1655,-191,3,970,-9,-6,-4
1656,-31,20,1000,-12,-28,-10
1657,125,32,1015,-14,-27,-10
1658,210,39,1010,-15,-6,-8
1659,132,30,1003,-17,20,0
1660,-47,10,1007,-16,33,4
1661,-184,-1,977,-13,21,2
1662,-196,2,963,-13,-4,-2
1663,-52,17,1007,-11,-28,-10
1664,100,31,1012,-16,-28,-10
1665,215,50,1007,-13,-10,-10
1666,143,29,1007,-17,17,-2
1667,-22,11,1009,-17,31,4
1668,-150,28,993,-16,22,1
1669,-118,74,691,-189,-13,-98
1670,-118,-8,550,-154,27,-70
1671,67,49,666,104,-51,-51
1672,200,70,427,29,-93,26
1673,168,57,609,124,-51,31
1674,1,35,362,-74,5,26
1675,-195,-59,412,36,36,23
1676,-196,-18,515,-7,22,17
1677,57,112,283,-3,25,-12
1678,35,-30,725,-276,112,-8
1679,-130,1,634,-201,184,17
1680,71,102,683,321,28,87
1681,336,-1,471,-81,-104,85
1682,142,-50,146,-141,-17,51
1683,85,130,587,47,233,17
1684,-13,83,346,-94,203,106
1685,-195,7,639,-510,58,95
1686,38,132,410,212,-2,-192
1687,104,-187,500,-671,122,-93
1688,-35,-97,135,297,147,-72
1689,78,138,217,-80,-65,14
1690,-62,-118,231,-343,9,-37
1691,-384,228,96,368,32,7
1692,115,-64,38,-10,-26,80
1693,132,-137,509,-40,-12,10
1694,-164,-8,585,287,-45,2
1695,-42,-152,287,-329,-187,17
1696,-77,33,564,127,146,5
1697,-64,32,627,32,122,-10
1698,-57,-192,347,-213,-64,-2
1699,-32,-41,538,239,-94,-23
1700,226,261,447,-81,12,-5
1701,25,-239,169,163,-34,29
1702,51,16,-184,-21,70,-47
1703,-46,110,368,-289,-53,24
1704,-300,123,242,290,-58,-40
1705,-147,144,506,-632,114,21
1706,-27,53,317,408,-41,-5
1707,183,85,452,55,-144,-46
1708,136,39,412,-285,27,-18
1709,45,125,766,518,30,-2
1710,0,31,641,-413,-40,18
1711,-180,-49,665,202,9,5
1712,-198,-10,959,129,-37,7
1713,54,55,656,-350,-14,27
1714,-55,-18,299,319,43,-6
1715,184,-10,408,-164,-8,-31
1716,24,-75,589,-131,28,7
1717,53,105,547,273,56,-18
1718,-124,-73,657,-293,3,-4
1719,-120,116,744,109,12,-6
1720,-31,-36,829,33,-22,-18
1721,-15,54,869,-178,-14,-1
1722,147,33,978,163,13,-13
1723,148,-11,923,-118,-12,-12
1724,-18,6,949,-10,15,10
1725,-103,27,1024,82,31,-8
1726,-173,-4,958,-129,-5,-5
1727,-101,19,839,81,-18,-9
1728,74,35,996,-28,-36,-15
1729,185,51,996,-52,-15,-9
1730,144,49,957,50,28,-4
1731,16,15,1025,-76,23,0
1732,-144,0,998,9,16,2
1733,-176,-8,953,-1,2,-4
1734,-115,-4,992,-45,-13,-7
1735,59,31,1021,23,-22,-11
1736,186,44,1002,-33,-21,-9
1737,154,39,1004,-13,7,-4
1738,35,32,1024,0,31,1
1739,-124,7,978,-37,29,2
1740,-199,-3,970,0,8,0
1741,-130,-1,993,-14,-22,-7
1742,46,20,1004,-19,-30,-10
1743,178,39,994,0,-15,-11
1744,173,38,1011,-22,7,-5
1745,53,27,1020,-11,26,1
1746,-117,16,983,-12,27,4
1747,-195,1,973,-18,11,-1
1748,-155,-1,984,-7,-13,-6
1749,30,26,1011,-16,-31,-10
1750,168,33,1009,-13,-21,-11
1751,189,33,1002,-10,4,-5
1752,83,26,1007,-19,25,1
1753,-106,18,998,-11,32,4
1754,-196,-3,984,-14,12,-1
1755,-170,2,969,-13,-12,-6
1756,3,27,1002,-9,-29,-10
1757,155,34,1019,-17,-23,-12
1758,199,31,1005,-14,0,-8
1759,103,30,990,-14,23,-1
1760,-80,14,1002,-16,31,3
1761,-200,-7,990,-10,18,-1
1762,-179,7,966,-12,-9,-4
1763,-14,25,1002,-11,-29,-9
1764,136,37,1021,-12,-24,-10
1765,208,39,1008,-16,-5,-7
1766,118,29,996,-14,22,0
1767,-61,12,1000,-15,32,3
1768,-188,-7,983,-14,20,1
1769,-191,4,967,-10,-4,-3
1770,-41,20,1010,-13,-28,-8
1771,120,36,1017,-13,-28,-11
1772,211,44,1000,-14,-7,-8
1773,136,33,1001,-15,20,-1
1774,-39,10,1010,-16,32,4
1775,-181,-4,971,-13,21,2
1776,-197,5,966,-11,-3,-3
1777,-65,14,1011,-12,-27,-9
1778,98,31,1012,-15,-30,-11
1779,214,45,1005,-12,-10,-9
1780,151,34,1004,-18,18,-1
1781,-12,14,1011,-17,31,5
1782,-174,-6,972,-13,24,3
1783,-205,6,967,-13,1,-3
1784,-89,9,999,-12,-24,-10
1785,83,31,1015,-14,-30,-10
1786,209,49,1013,-15,-13,-10
1787,165,35,1005,-17,14,-2
1788,13,15,1004,-17,32,3
1789,-157,3,978,-13,28,1
1790,-207,-2,982,-13,4,-1
1791,-114,7,985,-10,-23,-7
1792,70,29,1005,-13,-31,-11
1793,199,47,1014,-13,-16,-11
1794,171,37,1008,-17,11,-4
1795,38,23,1008,-17,29,2
1796,-142,6,981,-18,28,4
1797,-208,-1,975,-13,6,-1
1798,-137,0,990,-13,-20,-7
1799,49,26,1001,-13,-32,-10
1800,192,41,1010,-13,-20,-10
1801,183,33,1007,-15,7,-4
1802,59,26,1015,-15,27,1
1803,-125,11,984,-16,32,3
1804,-221,12,977,-11,11,-2
1805,-199,-7,991,-17,-14,-20
1806,76,17,1002,-9,-45,4
1807,196,78,950,-19,-19,-17
1808,193,-35,974,-19,6,-9
1809,66,94,983,-1,31,0
1810,-123,-48,969,-36,30,5
1811,-201,52,947,3,13,0
1812,-151,-44,993,-17,-15,-5
1813,5,61,952,-9,-28,-8
1814,169,24,1047,-21,-24,-8
1815,197,32,992,-11,2,-8
1816,76,40,996,-18,23,3
1817,-69,4,1014,-11,32,2
1818,-221,-15,988,-17,18,3
1819,-147,-11,944,-14,-15,-5
1820,9,-16,1017,-10,-29,-3
1821,137,59,1016,-5,-21,-14
1822,187,33,1010,-8,4,-6
1823,88,82,992,-10,24,1
1824,-80,30,1000,-22,28,4
1825,-183,2,989,-15,15,0
1826,-179,-12,969,-20,-7,-2
1827,-9,-2,1001,-14,-29,-11
1828,127,66,1028,-15,-25,-11
1829,190,16,821,-12,-8,-3
1830,142,10,946,-15,14,2
1831,-67,7,1002,-11,24,7
1832,-170,-11,909,-3,20,2
1833,-193,27,969,-13,2,-2
1834,-80,221,1097,-28,-26,-12
1835,97,-22,470,-154,20,-19
1836,238,-74,510,7,-13,-35
1837,125,-69,613,-238,34,6
1838,49,-92,485,187,90,-29
1839,-185,68,504,-147,14,-14
1840,-235,43,482,-161,80,-15
1841,41,103,727,116,96,3
1842,-54,4,813,-326,25,-54
1843,246,-32,438,7,15,-63
1844,129,38,747,-13,59,-22
1845,-7,-223,278,-90,70,13
1846,-128,-204,21,61,27,15
1847,-320,45,481,32,-17,6
1848,-40,-122,742,-9,-72,-10
1849,73,23,930,62,-33,-2
1850,68,324,635,16,-68,-13
1851,199,-62,616,-102,-25,5
1852,96,-96,535,248,-63,30
1853,-150,-97,547,-173,34,33
1854,-156,286,913,52,58,-15
1855,-327,-319,57,132,25,-35
1856,63,83,349,-262,-73,14
1857,139,-103,440,399,50,-24
1858,130,-79,361,-225,39,-31
1859,135,265,306,73,29,29
1860,-184,38,390,-22,17,32
1861,-32,-90,383,-253,37,21
1862,-214,-140,261,24,80,-21
1863,21,18,399,-34,-26,-35
1864,134,113,869,-75,-22,-4
1865,67,162,244,89,18,-7
1866,93,16,426,-131,12,0
1867,-95,58,686,19,42,6
1868,-176,-60,751,-1,8,-2
1869,-141,-43,718,-54,-4,-7
1870,-52,20,770,41,-14,-5
1871,163,40,878,-46,-38,-14
1872,186,49,896,0,0,-7
1873,89,73,868,7,32,1
1874,-62,42,778,-57,30,0
1875,-184,-14,696,-2,13,-1
1876,-192,-10,615,-33,-16,-2
1877,-6,-18,763,-16,-27,-13
1878,117,16,904,7,-12,-9
1879,210,43,960,-22,-3,-8
1880,121,43,1014,3,21,-2
1881,-63,44,1006,-16,27,5
1882,-184,11,988,-20,20,2
1883,-197,4,971,-7,-3,-4
1884,-39,12,997,-22,-32,-9
1885,121,13,1006,-13,-27,-12
1886,204,25,997,-11,-2,-9
1887,142,32,994,-18,19,-1
1888,-32,13,999,-11,31,3
1889,-186,9,957,-15,18,1
1890,-197,15,955,-13,-4,-3
1891,-66,18,990,-9,-24,-9
1892,103,30,1005,-17,-25,-11
1893,215,40,1005,-15,-8,-8
1894,149,28,1009,-17,16,-2
1895,-14,5,1018,-18,29,4
1896,-174,-4,977,-10,21,1
1897,-203,5,960,-12,-1,-3
1898,-85,16,996,-10,-23,-9
1899,83,34,1013,-12,-27,-10
1900,207,51,1014,-16,-13,-9
1901,165,34,1013,-17,15,-2
1902,3,11,1012,-17,29,4
1903,-161,-6,976,-15,26,2
1904,-206,-4,969,-12,4,-1
1905,-109,9,986,-9,-22,-5
1906,78,31,1010,-11,-29,-11
1907,205,52,1015,-15,-16,-9
1908,170,40,1013,-16,11,-5
1909,24,20,1010,-15,28,2
1910,-152,2,974,-16,26,4
1911,-209,-5,972,-10,6,0
1912,-127,0,983,-13,-17,-7
1913,62,26,1006,-10,-29,-10
1914,195,44,1014,-11,-19,-11
1915,181,40,1017,-16,7,-5
1916,45,24,1016,-16,28,2
1917,-133,6,977,-15,30,2
1918,-206,-1,965,-11,10,0
1919,-149,0,987,-11,-16,-6
1920,45,27,1010,-14,-32,-10
1921,181,39,1013,-14,-21,-9
1922,192,37,1005,-13,5,-5
1923,68,25,1013,-13,29,1
1924,-117,12,986,-13,32,4
1925,-204,-5,974,-16,14,0
1926,-168,1,972,-12,-12,-6
1927,20,27,1013,-15,-31,-11
1928,168,41,1018,-16,-24,-10
1929,196,32,1000,-16,2,-5
1930,95,31,998,-14,23,0
1931,-99,14,997,-16,33,5
1932,-197,-4,982,-13,15,0
1933,-180,1,970,-14,-9,-4
1934,-2,25,1001,-13,-30,-10
1935,152,33,1028,-14,-26,-11
1936,203,39,1006,-16,-3,-6
1937,112,31,990,-15,23,0
1938,-73,13,995,-15,32,3
1939,-196,-5,990,-13,19,0
1940,-185,3,967,-13,-7,-5
1941,-28,21,1006,-13,-30,-9
1942,130,36,1021,-13,-28,-12
1943,208,37,1006,-15,-6,-8
1944,127,30,997,-15,21,-1
1945,-53,14,999,-14,34,3
1946,-187,-3,976,-13,22,1
1947,-197,5,969,-13,-4,-3
1948,-51,15,1010,-13,-29,-11
1949,111,31,1017,-12,-29,-11
1950,215,42,996,-14,-9,-8
1951,139,33,1000,-15,19,-1
1952,-28,17,1011,-15,31,3
1953,-181,0,972,-14,24,3
1954,-197,4,966,-14,-1,-2
1955,-78,9,1003,-13,-26,-7
1956,94,29,1022,-15,-29,-10
1957,213,44,1008,-13,-12,-9
1958,155,33,999,-15,16,-3
1959,-4,17,1007,-16,32,3
1960,-168,0,977,-16,26,2
1961,-204,2,972,-11,2,-3
1962,-98,4,997,-12,-23,-8
1963,77,28,1010,-12,-30,-11
1964,208,43,1014,-12,-14,-10
1965,164,37,1004,-14,14,-2
1966,22,18,1005,-13,31,3
1967,-162,59,881,-3,27,3
1968,-215,0,803,-26,18,-4
1969,-109,-77,768,-30,-18,-11
1970,47,-5,831,1,-25,-13
1971,173,228,966,-35,-9,-22
1972,161,-84,283,-153,73,5
1973,113,-63,457,-58,58,-6
1974,-150,0,335,-111,77,1
1975,-139,-102,178,-32,40,1
1976,-161,106,669,-64,5,-20
1977,-51,-115,182,111,-72,0
1978,231,-22,97,191,-92,-41
1979,162,-60,298,-16,-39,16
1980,186,-88,453,-81,-52,46
1981,22,201,182,134,35,28
1982,-337,-208,432,-225,-37,70
1983,-104,80,586,135,-61,5
1984,-140,65,-22,72,-187,-61
1985,129,-70,168,-135,-26,9
1986,197,-94,381,441,-26,-2
1987,151,209,541,-305,-85,-5
1988,-112,-181,193,353,-25,-11
1989,-133,161,324,-182,29,47
1990,-164,-215,199,-124,53,-17
1991,-8,-106,542,306,-4,-7
1992,-198,210,732,-439,-85,62
1993,-21,-249,469,707,-295,-7
1994,229,169,500,-167,-47,91
1995,-186,-182,487,176,-69,14
1996,38,-224,114,248,-4,26
1997,-122,165,369,-506,-137,-21
1998,85,-133,253,496,-128,-46
1999,110,222,498,-132,-133,-5
2000,-99,-62,433,-93,-2,-51
2001,154,65,345,327,-34,-55
2002,-142,157,596,-505,-33,6
2003,-101,-127,69,342,-112,-11
2004,-20,3,409,-304,5,148
2005,-237,123,451,399,-190,51
2006,-99,-209,-34,-170,-190,14
2007,2,99,206,50,38,14
2008,-130,52,106,312,127,52
2009,209,50,-14,-382,-88,11
2010,9,24,40,404,-96,15
2011,-191,115,312,-160,71,28
2012,33,37,268,-116,112,-14
2013,-107,100,99,184,-23,-6
2014,72,3,207,-281,-135,9
2015,212,-69,453,164,19,-23
2016,63,-72,769,-76,109,11
2017,6,-11,932,-98,41,-1
2018,-145,-5,899,155,-28,-8
2019,-173,72,625,-124,-61,5
2020,-25,83,510,51,35,-15
2021,97,84,586,-13,34,-8
2022,143,68,545,-77,-33,1
2023,106,-17,621,66,-7,-7
2024,-85,-34,626,-75,26,7
2025,-123,-42,700,-7,38,-4
2026,-139,-32,764,26,-1,-7
2027,-21,47,830,-35,-51,-4
2028,137,75,949,25,-17,-11
2029,149,75,954,-34,24,-3
2030,75,60,933,-43,33,4
2031,-75,12,917,-1,13,-1
2032,-175,-34,800,-43,-7,1
2033,-152,-36,775,-5,-4,-5
2034,13,-8,789,-4,-16,-11
2035,148,39,797,-12,-20,-9
2036,177,58,843,2,-4,-7
2037,76,61,884,-21,20,-1
2038,-90,44,910,-21,28,3
2039,-183,1,904,-17,11,0
2040,-172,-18,899,-23,-16,-4
2041,4,2,950,-8,-30,-10
2042,151,11,923,-18,-15,-11
2043,191,27,927,-17,5,-6
2044,104,41,931,-5,20,-1
2045,-80,33,896,-15,26,4
2046,-196,14,893,-10,17,2
2047,-188,11,857,-12,-7,-5
2048,-12,21,911,-20,-28,-11
2049,138,24,934,-15,-24,-11
2050,204,27,946,-16,-3,-7
2051,118,20,962,-16,21,-1
2052,-59,9,957,-11,29,4
2053,-195,-1,954,-10,16,1
2054,-194,16,943,-9,-5,-4
2055,-33,30,960,-13,-26,-9
2056,119,39,1010,-19,-25,-13
2057,210,39,999,-17,-7,-8
2058,133,25,1005,-19,17,-1
2059,-42,2,984,-17,29,3
2060,-186,-12,972,-10,22,1
2061,-197,8,959,-9,-1,-3
2062,-57,20,1001,-10,-23,-10
2063,105,43,1013,-14,-26,-11
2064,210,50,1013,-17,-11,-9
2065,146,35,1000,-16,15,-3
2066,-24,5,1012,-19,29,4
2067,-173,-8,959,-13,23,1
2068,-200,-4,958,-10,4,-2
2069,-82,12,1003,-9,-21,-8
2070,90,36,1023,-11,-28,-11
2071,210,50,1018,-15,-14,-10
2072,158,42,1008,-16,11,-2
2073,-2,15,1008,-18,31,3
2074,-166,-2,970,-14,27,3
2075,-207,-4,967,-14,4,-1
2076,-100,4,992,-12,-21,-8
2077,76,28,1017,-14,-29,-10
2078,203,46,1021,-13,-17,-10
2079,169,38,1009,-14,10,-3
2080,22,20,1004,-15,29,3
2081,-151,5,969,-14,30,2
2082,-205,-3,977,-15,9,0
2083,-127,2,991,-14,-19,-8
2084,61,33,1008,-9,-31,-10
2085,192,41,1019,-14,-19,-10
2086,179,35,1011,-15,8,-5
2087,46,19,1010,-15,26,2
2088,-132,11,975,-14,30,4
2089,-208,-3,971,-13,11,-1
2090,-148,3,988,-13,-16,-7
2091,38,28,1014,-13,-33,-9
2092,187,42,1011,-11,-22,-13
2093,190,29,1001,-14,4,-5
2094,69,28,1008,-15,27,2
2095,-115,11,992,-15,32,3
2096,-204,-5,972,-15,14,0
2097,-177,47,1004,-26,-10,-6
2098,17,8,933,-24,-55,-12
2099,202,-9,1023,0,-35,-12
2100,190,32,1003,-8,-2,-7
2101,117,4,958,5,17,2
2102,-161,185,665,63,26,-6
2103,-187,-89,384,-24,11,44
2104,-162,-33,572,115,-22,8
2105,-28,-25,576,-89,-13,-7
2106,174,305,932,20,-38,-10
2107,69,19,88,77,70,-60
2108,200,-140,377,-188,109,-71
2109,-85,-109,181,-18,123,-8
2110,-129,-145,139,75,25,-16
2111,-161,-50,469,-82,-16,-4
2112,-99,118,195,-47,48,-104
2113,-18,-100,190,-204,64,-40
2114,153,-2,470,-69,2,-31
2115,43,192,431,-94,46,-36
2116,97,-128,24,231,-62,44
2117,-161,-125,190,-50,51,45
2118,-72,-356,256,-785,221,-50
2119,6,60,172,211,-11,-49
2120,-109,-173,289,-437,-495,-13
2121,67,52,127,12,236,-78
2122,74,103,200,-95,-18,-116
2123,-38,141,86,-409,-145,-101
2124,77,-123,242,351,335,-80
2125,-234,14,780,-146,55,-59
2126,33,208,453,-82,-138,-117
2127,-78,-217,502,303,-113,-44
2128,183,30,733,-396,-227,-16
2129,80,215,895,517,-8,-56
2130,-139,-140,96,-242,-54,-31
2131,-123,48,439,423,211,68
2132,-170,3,301,70,-158,-20
2133,-157,-186,496,-80,-231,13
2134,-72,293,534,256,31,-19
2135,72,-90,75,-244,267,24
2136,151,-11,404,123,-147,-4
2137,70,-40,553,88,-201,49
2138,-131,-4,428,-128,53,5
2139,-64,-3,370,170,197,26
2140,-211,64,75,-166,-73,17
2141,-45,97,386,77,-176,-27
2142,99,110,218,-24,62,-2
2143,209,55,201,-212,159,16
2144,99,-37,485,209,22,-31
2145,-52,-45,577,-227,-122,7
2146,-184,-2,369,99,44,8
2147,-179,50,358,44,108,-20
2148,-2,35,571,-130,-20,-6
2149,97,101,794,141,-93,-11
2150,197,25,878,-94,-38,-11
2151,102,16,751,-29,85,1
2152,-68,-18,623,45,67,0
2153,-171,-40,557,-82,-39,0
2154,-174,-20,650,65,-36,-4
2155,-17,32,779,-15,12,-9
2156,146,65,954,-48,10,-12
2157,183,69,1011,35,-12,-5
2158,97,55,995,-57,-15,0
2159,-77,13,1003,-4,35,4
2160,-182,-24,988,-12,39,1
2161,-166,-29,953,-41,-9,-5
2162,-15,5,1008,21,-40,-11
2163,137,35,1018,-25,-31,-10
2164,193,48,988,-13,9,-7
2165,114,53,985,-3,29,-1
2166,-71,33,999,-33,20,5
2167,-189,-2,987,-8,11,1
2168,-188,-11,960,-17,-1,-4
2169,-25,2,995,-19,-19,-9
2170,130,19,1019,-5,-26,-12
2171,206,37,1014,-20,-11,-7
2172,127,40,996,-11,20,-2
2173,-55,27,999,-11,35,4
2174,-187,9,980,-19,21,2
2175,-195,7,970,-8,-6,-3
2176,-48,12,1002,-17,-27,-8
2177,113,24,1021,-16,-25,-11
2178,211,32,1007,-13,-8,-9
2179,142,29,1006,-15,15,-1
2180,-28,10,1007,-11,31,4
2181,-179,1,968,-11,25,1
2182,-202,13,968,-12,1,-3
2183,-69,18,1009,-12,-26,-8
2184,97,33,1017,-16,-30,-10
2185,214,40,1005,-17,-12,-8
2186,154,28,1003,-15,16,-3
2187,-8,6,1010,-17,32,3
2188,-168,-2,972,-12,26,3
2189,-203,1,963,-12,3,-2
2190,-97,13,999,-11,-21,-8
2191,82,36,1018,-13,-30,-11
2192,206,49,1019,-16,-16,-10
2193,164,35,1003,-17,12,-3
2194,12,13,995,-16,33,3
2195,-157,-3,977,-16,30,3
2196,-208,-2,980,-12,6,-2
2197,-115,4,988,-11,-22,-9
2198,68,27,1007,-12,-33,-11
2199,197,50,1018,-12,-18,-10
2200,176,38,1009,-16,11,-5
2201,34,21,1004,-17,30,2
2202,-140,6,975,-16,29,3
2203,-208,-6,982,-14,8,0
2204,-138,1,987,-14,-18,-7
2205,50,27,1005,-13,-33,-11
2206,186,48,1015,-12,-21,-11
2207,186,40,1004,-16,7,-5
2208,59,24,1013,-16,28,2
2209,-126,10,982,-14,32,4
2210,-203,-5,974,-16,10,-1
2211,-160,-3,984,-13,-16,-7
2212,29,27,1012,-11,-32,-11
2213,179,39,1011,-14,-22,-11
2214,192,35,995,-13,4,-6
2215,81,27,1008,-15,27,0
2216,-108,11,999,-16,32,4
2217,-204,-6,977,-14,13,0
2218,-171,-2,973,-13,-12,-6
2219,8,26,1012,-12,-30,-10
2220,164,39,1017,-14,-25,-12
2221,204,37,994,-13,1,-6
2222,103,30,998,-15,25,0
2223,-90,13,1002,-15,33,4
2224,-200,-12,986,-13,16,0
2225,-186,3,968,-10,-9,-6
2226,-16,24,1000,-12,-30,-10
2227,144,39,1021,-14,-26,-11
2228,209,35,1007,-16,-4,-7
2229,117,32,991,-14,23,0
2230,-66,12,1000,-16,33,4
2231,-193,-7,989,-15,19,1
2232,-196,0,969,-12,-7,-3
2233,-32,22,1005,-12,-30,-9
2234,123,31,1017,-12,-27,-11
2235,211,40,1004,-14,-6,-8
2236,137,35,999,-16,20,1
2237,-43,13,1008,-15,34,3
2238,-185,-3,976,-14,21,3
2239,-200,0,972,-12,-5,-3
2240,-55,15,1004,-12,-27,-9
2241,105,30,1013,-14,-29,-11
2242,218,45,1002,-14,-9,-9
2243,143,34,1001,-18,20,-1
2244,-16,16,1011,-16,32,2
2245,-161,54,771,-24,25,4
2246,-230,7,715,-14,17,-1
2247,-154,-49,534,-43,-34,-15
2248,74,84,522,30,-57,-7
2249,301,-82,132,-64,-3,-9
2250,197,-76,433,-6,36,-6
2251,-29,435,737,-8,47,-34
2252,-165,-171,382,102,-6,-35
2253,-84,-85,587,-102,-52,-79
2254,-72,-2,283,133,-119,-141
2255,-155,-37,444,-199,-13,-157
2256,-3,69,542,148,17,-114
2257,142,55,451,129,-47,-77
2258,132,42,574,-197,-105,-31
2259,-125,0,812,392,3,2
2260,-167,28,978,-201,13,6
2261,-159,-71,930,33,-34,0
2262,-92,-27,893,183,-78,-10
2263,144,-109,954,-211,-80,13
2264,96,273,994,214,38,-24
2265,76,-34,505,-188,60,-29
2266,201,158,836,-89,16,5
2267,-42,202,426,60,16,15
2268,-32,-62,477,-133,-4,-26
2269,-97,-108,566,-30,76,12
2270,27,24,755,22,-19,-31
2271,156,-22,425,-98,-39,-37
2272,110,59,557,15,38,-11
2273,108,52,868,15,68,3
2274,-36,-44,874,-99,20,4
2275,-184,3,864,81,-24,2
2276,-115,-34,957,-47,-19,-5
2277,-10,-62,1061,-12,14,-5
2278,123,-54,890,80,-6,-1
2279,135,234,1030,-17,2,-10
2280,-22,-25,249,-122,196,-209
2281,-42,242,507,-88,202,-195
2282,-164,-67,607,-510,130,-112
2283,-64,19,309,411,44,-96
2284,108,-61,323,-184,-163,-43
2285,45,71,376,-37,-54,-24
2286,145,50,443,276,83,-26
2287,-25,36,749,-234,19,12
2288,-137,36,698,185,-30,5
2289,-176,15,856,-1,-54,4
2290,-71,33,855,-133,-12,2
2291,61,13,977,158,20,-3
2292,205,35,837,-130,-43,-4
2293,93,11,591,40,-9,4
2294,2,46,461,34,40,1
2295,-125,40,442,-111,36,6
2296,-174,236,470,57,-7,-6
2297,-151,143,661,-92,-42,-21
2298,11,-10,728,-69,-27,-10
2299,199,-102,963,-24,-5,-2
2300,169,-180,950,-89,0,-12
2301,114,-183,938,31,10,-3
2302,-76,-52,1021,24,23,7
2303,-175,78,1018,13,25,-4
2304,-140,158,957,42,9,-8
2305,-58,210,975,-30,-29,-4
2306,130,136,1014,-33,-33,-10
2307,165,15,966,-44,5,-7
2308,56,-93,934,-58,25,4
2309,-61,-132,981,-7,20,-1
2310,-140,-106,965,-6,2,-2
2311,-115,2,958,18,-8,-6
2312,19,95,1020,19,-13,-12
2313,134,154,1025,-13,-12,-6
2314,134,131,986,-18,3,-2
2315,29,42,1021,-36,18,1
2316,-111,-34,993,-40,18,4
2317,-159,-84,961,-20,6,-1
2318,-99,-81,978,-13,-15,-8
2319,49,-10,1004,3,-25,-10
2320,171,66,1007,6,-11,-11
2321,142,104,1014,-6,12,-4
2322,28,99,1021,-13,26,1
2323,-129,46,981,-26,23,2
2324,-195,-9,978,-28,3,-1
2325,-118,-46,989,-22,-18,-8
2326,52,-37,993,-16,-28,-12
2327,186,6,1002,-5,-17,-12
2328,170,34,1018,-5,9,-4
2329,50,56,1018,-7,25,1
2330,-125,52,985,-10,28,3
2331,-202,35,972,-15,8,-1
2332,-153,6,985,-22,-18,-5
2333,32,14,1003,-18,-31,-11
2334,181,9,1009,-18,-21,-10
2335,191,4,1003,-15,4,-7
2336,77,7,1015,-10,26,-1
2337,-107,16,996,-9,31,4
2338,-203,16,975,-9,14,1
2339,-170,24,974,-11,-12,-5
2340,8,47,1011,-16,-31,-8
2341,163,42,1015,-19,-25,-12
2342,196,18,1003,-21,1,-7
2343,92,9,1000,-15,25,1
2344,-88,0,1004,-14,31,3
2345,-194,-14,985,-11,14,-1
2346,-181,9,963,-6,-9,-6
2347,-6,42,1004,-10,-27,-10
2348,146,53,1026,-13,-24,-10
2349,201,44,1004,-18,-3,-7
2350,110,25,996,-19,23,-1
2351,-74,2,1000,-18,31,4
2352,-194,-19,985,-14,17,0
2353,-185,-6,967,-11,-8,-6
2354,-18,24,1000,-9,-29,-8
2355,131,45,1017,-12,-27,-10
2356,210,49,1016,-15,-6,-8
2357,125,39,997,-18,21,0
2358,-59,11,995,-17,34,4
2359,-189,-10,984,-16,21,0
2360,-194,-8,970,-13,-5,-4
2361,-39,11,1001,-13,-30,-8
2362,117,27,1018,-12,-28,-11
2363,212,50,1003,-12,-7,-9
2364,140,39,1001,-15,20,-3
2365,-40,20,1009,-16,33,3
2366,-180,0,973,-15,23,0
2367,-201,3,966,-17,-1,-2
2368,-67,8,1007,-4,-26,-10
2369,101,27,1018,-15,-30,-11
2370,213,45,1004,-12,-11,-8
2371,153,39,1001,-13,16,-1
2372,-17,16,1012,-17,32,2
2373,-172,1,976,-15,25,2
2374,-205,2,965,-13,2,-1
2375,-94,9,1001,-12,-24,-8
2376,86,26,1012,-14,-31,-10
2377,207,44,1012,-15,-15,-10
2378,167,30,1000,-16,15,-3
2379,11,15,1006,-15,31,3
2380,-157,1,978,-13,27,4
2381,-212,0,974,-12,5,-2
2382,-110,7,992,-12,-23,-8
2383,67,31,1006,-12,-32,-11
2384,205,48,1016,-14,-17,-12
2385,173,30,1010,-16,12,-3
2386,37,23,1005,-17,30,2
2387,-143,0,979,-14,30,4
2388,-211,-2,978,-11,7,-1
2389,-136,3,983,-11,-20,-7
2390,51,30,1007,-12,-32,-10
2391,188,45,1010,-14,-20,-10
2392,187,36,1006,-16,7,-5
2393,55,23,1014,-16,28,1
2394,-126,8,985,-16,30,2
2395,-207,-7,972,-14,10,-1
2396,-153,1,980,-12,-17,-6
2397,32,26,1011,-13,-33,-10
2398,209,39,986,-10,-23,-8
2399,203,75,989,-19,3,3
2400,47,-6,1022,-17,27,-2
2401,-105,35,949,-11,38,9
2402,-227,-28,964,-24,17,1
2403,-174,3,987,-7,-13,-8
2404,21,38,1001,-19,-32,-10
2405,168,43,989,-10,-27,-13
2406,226,38,1012,-24,0,-6
2407,50,17,1000,-17,30,-4
2408,-143,-75,962,-14,30,-1
2409,-172,-14,992,2,4,-1
2410,-123,44,992,1,-19,-3
2411,24,109,857,7,-35,-12
2412,133,34,877,-36,-29,-16
2413,200,58,892,-3,-4,-1
2414,57,24,1003,-37,22,1
2415,-77,-51,969,-25,27,-3
2416,-200,-32,941,-7,21,3
2417,-163,7,954,-10,-14,-9
2418,28,17,1013,-6,-33,-14
2419,153,108,1005,12,-21,-4
2420,209,78,912,-32,-3,-7
2421,80,34,1014,-29,38,-4
2422,-93,5,925,-19,27,9
2423,-195,-33,939,-4,-5,0
2424,-190,-31,988,-51,-8,-2
2425,-27,16,1009,20,-22,-8
2426,120,40,979,-28,-35,-13
2427,213,64,980,-11,-18,-7
2428,140,39,990,-11,18,1
2429,-28,33,1048,-34,40,5
2430,-180,-32,947,-15,20,5
2431,-213,-34,934,-16,-11,1
2432,-104,-120,1035,-8,-29,-15
2433,146,-97,1027,-11,-24,-26
2434,81,-21,493,80,-70,54
2435,-92,-166,153,7,39,56
2436,82,-10,359,-89,55,-1
2437,-88,25,322,-10,-119,42
2438,-303,12,753,-215,20,-18
2439,-198,-22,842,107,163,-31
2440,-7,21,395,-125,-27,-39
2441,13,29,487,-27,-161,-22
2442,151,51,788,130,-59,-38
2443,130,58,961,-213,100,-47
2444,-35,-52,786,110,110,-47
2445,-45,-38,770,-45,-94,-2
2446,-32,11,913,-55,-108,18
2447,-4,58,976,70,53,-2
2448,99,3,989,-108,57,-13
2449,169,-258,919,31,-19,-3
2450,214,-69,971,60,-15,-1
2451,-82,-466,446,45,79,34
2452,-98,6,48,222,85,123
2453,-150,-166,342,158,87,36
2454,-24,77,-112,-33,28,-41
2455,-41,301,323,-28,36,-58
2456,88,-200,405,-219,63,-45
2457,129,304,613,30,81,-32
2458,80,-281,295,-361,-17,-62
2459,131,77,171,102,33,54
2460,-104,1,86,0,88,17
2461,115,-336,72,15,128,-14
2462,17,-129,150,33,-223,-12
2463,75,288,208,70,-206,23
2464,91,42,340,-173,291,-3
2465,112,133,149,-45,103,4
2466,-12,-277,28,-167,-299,-15
2467,24,-70,51,222,-125,-18
2468,-135,46,261,-229,249,-10
2469,9,121,315,24,102,-27
2470,108,-31,403,99,-191,-13
2471,97,141,481,-105,-101,0
2472,130,123,544,72,190,-12
2473,-103,33,280,-145,123,-1
2474,-188,-71,265,-35,-120,8
2475,-22,-104,219,51,-108,-16
2476,22,-52,295,-105,71,-7
2477,171,71,697,80,114,-12
2478,136,77,1035,-31,-25,-8
2479,-26,95,879,4,-73,7
2480,-118,55,736,33,37,-2
2481,-166,2,742,-98,84,-4
2482,-107,-1,861,2,-4,-1
2483,77,-35,979,-16,-91,-14
2484,168,-13,1010,-24,-38,-6
2485,168,29,951,20,57,-4
2486,14,30,867,-37,58,0
2487,-163,48,757,3,-3,4
2488,-194,35,772,5,-25,0
2489,-95,17,892,-28,1,-8
2490,59,20,970,-14,5,-9
2491,197,25,1012,-28,-21,-11
2492,149,7,1002,-18,-16,-4
2493,17,0,985,0,22,2
2494,-132,-3,952,-19,43,1
2495,-191,20,931,-5,17,-1
2496,-113,31,973,-7,-27,-7
2497,48,43,982,-21,-39,-11
2498,181,49,996,-16,-12,-10
2499,171,26,987,-21,16,-6
2500,39,0,994,-20,21,2
2501,-133,-9,973,-10,21,3
2502,-192,-8,974,-12,11,0
2503,-122,10,987,-8,-10,-6
2504,45,41,1014,-10,-27,-9
2505,181,59,1022,-14,-23,-11
2506,159,47,1010,-13,5,-4
2507,49,24,995,-20,29,2
2508,-121,-3,964,-18,32,3
2509,-188,-10,973,-12,11,-1
2510,-142,-7,988,-14,-15,-7
2511,34,25,1018,-8,-30,-11
2512,173,44,1014,-11,-22,-11
2513,181,44,1005,-13,3,-6
2514,66,35,1007,-15,26,1
2515,-110,15,980,-17,33,3
2516,-191,-7,973,-14,15,-1
2517,-159,-6,989,-13,-13,-5
2518,20,17,1018,-14,-32,-10
2519,162,33,1013,-11,-25,-11
2520,190,37,998,-12,2,-6
2521,86,35,1001,-13,26,1
2522,-96,19,995,-14,34,4
2523,-190,-1,984,-15,15,0
2524,-178,0,979,-15,-11,-5
2525,-1,23,1014,-12,-33,-10
2526,143,31,1017,-13,-27,-11
2527,199,34,999,-14,-2,-8
2528,109,29,992,-12,25,0
2529,-72,18,996,-15,34,5
2530,-191,-4,994,-14,19,1
2531,-185,6,974,-13,-10,-3
2532,-26,23,1004,-12,-32,-10
2533,127,35,1016,-11,-27,-13
2534,200,36,1008,-14,-6,-8
2535,128,31,988,-14,19,-1
2536,-48,9,998,-14,35,5
2537,-184,-3,988,-12,22,3
2538,-190,2,978,-13,-5,-3
2539,-52,20,1009,-12,-27,-8
2540,104,34,1008,-14,-29,-11
2541,209,44,999,-16,-8,-9
2542,138,32,1000,-17,20,-2
2543,-29,13,1004,-17,33,4
2544,-172,-10,980,-16,23,2
2545,-196,0,972,-13,-4,-3
2546,-71,12,1009,-11,-26,-9
2547,89,31,1010,-11,-28,-9
2548,204,51,1006,-14,-11,-9
2549,155,39,999,-14,15,-3
2550,-6,11,1011,-17,32,3
2551,-158,-1,979,-13,25,2
2552,-199,-2,973,-12,2,-2
2553,-96,8,995,-11,-24,-8
2554,76,25,1007,-11,-31,-11
2555,201,49,1012,-12,-14,-10
2556,166,39,1001,-13,15,-2
2557,19,22,1006,-15,31,3
2558,-149,1,985,-17,26,2
2559,-206,-3,979,-14,4,-2
2560,-121,3,987,-13,-22,-8
2561,58,25,1000,-12,-32,-11
2562,193,48,1016,-10,-17,-10
2563,174,37,1007,-16,10,-4
2564,46,24,1011,-15,28,2
2565,-131,6,983,-14,29,4
2566,-210,8,947,1,7,3
2567,-142,41,1001,-21,-14,-4
2568,31,-56,974,-23,-13,-22
2569,183,67,1000,-21,-14,-17
2570,168,123,1047,-75,10,-14
2571,98,27,353,-60,26,-45
2572,-36,-91,553,-89,53,6
2573,-222,82,324,119,9,10
2574,-120,-103,411,-200,-20,-9
2575,17,104,721,93,-19,-12
2576,166,-92,831,0,-33,-4
2577,221,301,846,-25,-17,3
2578,120,-134,218,231,-26,25
2579,54,-86,296,-238,36,-23
2580,-217,-185,463,171,-12,-8
2581,-64,-155,501,-88,-71,-28
2582,-29,-172,541,9,-5,-6
2583,157,99,508,97,-35,-45
2584,21,5,213,115,-23,-86
2585,88,196,361,-78,-175,-9
2586,-57,-62,327,68,-85,-23
2587,-109,86,421,44,91,-34
2588,-154,-87,254,-431,-132,-11
2589,59,91,66,182,-349,-50
2590,31,-138,283,-174,-584,-66
2591,174,216,699,-234,104,-82
2592,8,-402,-45,-131,575,-59
2593,-163,60,284,-183,-245,-32
2594,-160,141,152,-4,-118,-12
2595,-141,-174,-116,73,420,-21
2596,-189,30,317,-200,44,-21
2597,-73,-67,745,202,-428,-20
2598,126,232,500,73,-262,1
2599,109,-245,-55,-301,-227,-53
2600,53,183,102,126,299,-48
2601,-70,-18,461,-168,113,8
2602,-57,-130,292,-68,-95,-10
2603,-300,398,515,356,-144,-16
2604,-165,35,318,-168,15,21
2605,64,307,461,102,83,-8
2606,-46,-177,217,-99,51,-5
2607,81,-167,277,-189,-122,-11
2608,-6,-92,102,-7,26,40
2609,-28,51,407,-44,44,-4
2610,-161,185,258,88,81,17
2611,40,45,-1,-92,-49,81
2612,125,-3,327,-52,-42,49
2613,58,1,467,-149,100,-35
2614,105,-7,306,-46,39,-11
2615,14,-50,307,68,18,19
2616,-104,-2,511,-118,2,-4
2617,-97,-43,600,138,50,-23
2618,-82,102,840,-128,14,5
2619,55,95,803,66,-43,-17
2620,134,68,487,-7,-11,-13
2621,60,38,579,-93,31,4
2622,-32,24,763,98,49,-4
2623,-89,-69,843,-109,-6,-1
2624,-154,-35,901,43,-19,-4
2625,-12,-10,1017,8,-10,-11
2626,119,29,1031,-57,-5,-9
2627,132,81,966,56,7,-5
2628,86,74,1003,-58,5,-3
2629,-74,42,1023,-10,19,3
2630,-154,3,903,-6,20,1
2631,-147,-28,926,-53,-11,-6
2632,2,-16,952,15,-29,-9
2633,126,9,942,-26,-20,-9
2634,171,26,991,-11,8,-6
2635,89,57,1028,5,24,-1
2636,-69,50,1001,-31,21,2
2637,-177,17,976,-8,11,0
2638,-171,10,976,-17,-6,-4
2639,-5,12,991,-25,-26,-9
2640,126,8,1003,-7,-20,-11
2641,191,19,1002,-22,-6,-7
2642,108,17,995,-10,20,-2
2643,-62,22,984,-6,30,3
2644,-183,9,985,-16,14,1
2645,-179,21,958,-5,-7,-6
2646,-32,31,991,-15,-24,-8
2647,114,35,1022,-15,-23,-11
2648,201,27,1024,-16,-8,-8
2649,131,18,994,-19,15,-2
2650,-47,-1,998,-14,29,4
2651,-176,-7,989,-11,21,1
2652,-192,8,961,-10,-1,-2
2653,-51,28,1001,-9,-23,-9
2654,103,44,1023,-14,-26,-10
2655,203,46,1011,-15,-8,-9
2656,139,31,1001,-18,16,-2
2657,-29,0,1009,-19,29,3
2658,-168,-10,973,-13,20,2
2659,-193,0,959,-11,2,-3
2660,-73,18,1006,-11,-23,-9
2661,89,38,1024,-12,-27,-11
2662,206,53,1009,-13,-13,-9
2663,149,37,1003,-15,14,-2
2664,-3,14,1009,-17,30,4
2665,-162,-7,971,-14,25,3
2666,-195,0,967,-14,4,-2
2667,-96,6,997,-14,-22,-8
2668,77,30,1019,-10,-29,-12
2669,199,51,1017,-13,-15,-10
2670,161,39,1004,-15,10,-4
2671,19,18,1004,-15,29,1
2672,-150,1,973,-15,29,3
2673,-200,-2,981,-14,5,-1
2674,-115,2,989,-13,-20,-7
2675,58,28,1004,-12,-31,-11
2676,191,42,1019,-12,-19,-11
2677,173,33,1012,-15,9,-3
2678,42,22,1003,-15,29,2
2679,-136,5,977,-15,30,4
2680,-204,0,978,-14,10,-1
2681,-142,0,987,-11,-17,-6
2682,41,31,1010,-12,-32,-11
2683,184,42,1012,-14,-21,-11
2684,187,33,999,-14,5,-6
2685,62,22,1007,-15,27,1
2686,-114,12,990,-15,30,3
2687,-199,-7,973,-12,12,0
2688,-162,3,977,-9,-14,-6
2689,19,32,1023,-13,-32,-11
2690,165,41,1014,-15,-24,-12
2691,197,33,993,-13,2,-7
2692,79,55,1006,-19,28,1
2693,-89,33,985,-39,34,0
2694,-187,-73,863,-23,26,2
2695,-180,4,873,-37,3,-6
2696,-60,154,398,-82,-15,-44
2697,164,-61,282,-108,14,18
2698,176,72,419,-5,15,15
2699,114,-26,551,-96,133,-20
2700,64,-47,580,-101,-43,18
2701,-135,-98,868,173,-70,29
2702,-148,-9,290,-251,88,-12
2703,48,305,370,269,105,-31
2704,-77,12,9,-93,-28,-5
2705,161,-40,290,158,-243,35
2706,187,187,690,-21,94,89
2707,11,-109,374,-177,180,-30
2708,-64,-93,400,-134,131,-13
2709,-153,5,329,-165,-83,3
2710,70,-125,374,-4,-5,-33
2711,-155,112,774,46,194,-39
2712,-100,42,195,-70,-10,-16
2713,-9,-44,312,29,-151,-25
2714,147,215,376,-82,10,-19
2715,-54,-32,558,60,131,-5
2716,-105,31,537,-82,45,-3
2717,-135,-41,618,15,-85,-4
2718,-131,-84,613,5,-45,-12
2719,90,-172,714,-26,3,-2
2720,174,237,722,41,21,-15
2721,155,-39,293,-142,-91,-58
2722,219,154,700,144,3,34
2723,-72,-115,464,-122,55,-6
2724,-41,79,619,123,-40,5
2725,-84,70,688,89,-15,33
2726,-6,50,644,-151,-72,8
2727,137,-50,758,182,0,15
2728,66,9,843,-137,-2,22
2729,49,-9,805,31,-2,9
2730,-37,-33,842,2,26,7
2731,-154,-20,857,-50,13,12
2732,-40,47,996,70,2,-8
2733,32,43,969,-64,-9,-8
2734,83,134,911,26,-1,-3
2735,101,80,996,-34,8,-6
2736,-38,-14,1012,-58,13,0
2737,-120,-34,894,14,19,-2
2738,-104,-62,962,-39,-1,-9
2739,-13,-15,1004,9,-23,-8
2740,117,40,993,9,-18,-11
2741,130,68,1001,-22,4,-9
2742,62,89,1026,8,20,0
2743,-54,55,986,-36,18,0
2744,-159,-4,976,-20,11,0
2745,-144,-24,990,-16,-7,-5
2746,6,-26,1013,-26,-25,-10
2747,119,-2,991,-1,-19,-9
2748,172,27,993,-10,-2,-7
2749,87,52,1013,-7,25,-2
2750,-71,59,1000,-7,31,4
2751,-171,31,994,-19,13,0
2752,-167,10,975,-17,-11,-4
2753,-21,4,996,-18,-28,-7
2754,124,6,1022,-18,-24,-11
2755,187,6,1005,-12,-3,-7
2756,122,20,986,-13,19,-2
2757,-52,18,1002,-7,31,3
2758,-176,16,997,-7,19,1
2759,-180,26,969,-12,-5,-4
2760,-46,29,998,-12,-27,-9
2761,108,31,1016,-17,-28,-11
2762,197,27,1006,-19,-6,-9
2763,132,14,994,-16,20,-3
2764,-29,2,1001,-16,31,5
2765,-170,-4,982,-9,21,1
2766,-188,10,973,-7,-1,-2
2767,-65,29,1004,-12,-24,-9
2768,90,42,1012,-13,-28,-11
2769,202,48,1000,-16,-11,-10
2770,142,30,1004,-19,17,-3
2771,-9,6,1013,-15,30,2
2772,-165,-14,976,-15,24,3
2773,-191,-2,962,-10,0,-2
2774,-85,8,1004,-8,-22,-9
2775,78,39,1013,-11,-27,-11
2776,199,55,1009,-14,-12,-9
2777,158,45,1003,-16,14,-4
2778,7,15,1005,-19,30,3
2779,-151,-3,982,-16,25,3
2780,-200,-7,973,-14,4,-1
2781,-105,0,987,-11,-22,-8
2782,67,26,1008,-10,-30,-13
2783,193,48,1015,-11,-16,-9
2784,167,41,1009,-15,11,-5
2785,32,26,1008,-17,28,1
2786,-140,10,978,-13,26,3
2787,-203,-2,984,-13,6,-1
2788,-132,-1,988,-13,-19,-7
2789,52,24,996,-13,-31,-10
2790,187,40,1015,-12,-20,-11
2791,180,37,1009,-14,7,-4
2792,54,27,1012,-13,28,2
2793,-124,12,983,-14,31,4
2794,-204,-2,976,-13,11,1
2795,-155,5,979,-11,-16,-5
2796,30,26,1013,-14,-31,-10
2797,175,44,1010,-15,-21,-11
2798,189,31,1000,-14,5,-5
2799,81,24,1006,-16,26,-1
2800,-100,42,972,-14,29,4
2801,-211,78,535,24,2,-5
2802,-178,-36,608,-53,-12,-12
2803,3,13,812,-91,19,-16
2804,185,-51,672,68,11,-23
2805,151,157,820,-139,1,-30
2806,243,136,233,240,99,-29
2807,-52,-65,403,-59,2,-29
2808,-219,211,350,141,-63,-5
2809,-132,-169,232,67,-96,-24
2810,-117,175,482,29,-32,6
2811,241,-86,367,-56,-27,20
2812,255,198,746,-57,-175,-70
2813,-150,-2,227,152,-241,-108
2814,114,-330,487,-63,-105,-16
2815,42,-143,73,237,-23,67
2816,60,21,456,124,-179,-56
2817,14,46,166,-112,-94,-26
2818,103,26,387,102,85,-81
2819,-68,-38,148,-275,-58,-94
2820,66,265,-3,78,-41,-30
2821,82,-134,356,77,33,-60
2822,-80,-20,481,-85,-31,-33
2823,-185,6,117,86,8,-78
2824,-9,-40,546,-122,-17,-78
2825,-4,168,321,86,-33,-67
2826,34,-17,314,-116,-28,-85
2827,126,19,326,-3,-17,-94
2828,114,32,845,-30,34,-83
2829,189,-343,908,-70,12,-59
2830,-187,135,804,-6,-18,-26
2831,165,-265,106,179,9,-26
2832,-19,24,70,-124,30,24
2833,-103,350,455,22,109,16
2834,137,38,556,233,-26,-43
2835,-101,142,589,-503,115,40
2836,40,146,453,534,113,-69
2837,126,-21,585,-324,45,31
2838,-169,0,233,146,59,-31
2839,-36,-78,542,113,31,-37
2840,63,-18,546,-507,-43,-3
2841,40,38,534,541,99,-32
2842,48,-45,608,-360,-20,-10
2843,-67,23,617,40,-3,-4
2844,-91,-15,644,320,10,-6
2845,-56,42,690,-384,-30,-1
2846,47,114,665,319,24,-16
2847,88,139,707,-130,-20,-5
2848,92,14,728,-116,-6,-5
2849,26,0,983,183,50,1
2850,-80,-42,961,-251,5,1
2851,-111,-69,955,124,14,-8
2852,-101,1,983,-4,-14,-3
2853,21,44,994,-92,-32,-8
2854,132,72,940,119,9,-12
2855,120,84,948,-111,-1,2
2856,49,52,984,4,19,1
2857,-91,4,980,4,25,3
2858,-154,-27,960,-82,2,2
2859,-124,-40,985,40,-4,-6
2860,30,3,1018,-33,-32,-9
2861,131,31,996,-16,-20,-8
2862,164,52,997,22,9,-7
2863,69,59,1008,-45,23,-1
2864,-86,44,994,-1,29,2
2865,-171,0,994,-21,11,-3
2866,-158,-7,980,-33,-13,-4
2867,0,-1,990,2,-25,-10
2868,134,10,1013,-25,-25,-11
2869,186,26,1007,-10,-2,-7
2870,108,33,992,-5,24,-1
2871,-67,31,996,-23,33,4
2872,-184,18,997,-4,18,1
2873,-176,18,975,-17,-9,-4
2874,-36,20,1001,-17,-29,-7
2875,118,25,1014,-11,-24,-11
2876,198,25,1004,-23,-5,-8
2877,133,22,997,-15,20,-2
2878,-37,5,1003,-13,32,3
2879,-171,-1,985,-15,21,1
2880,-193,13,971,-7,-2,-2
2881,-60,29,1006,-12,-27,-9
2882,95,38,1014,-15,-29,-10
2883,203,47,996,-12,-9,-9
2884,148,29,1002,-21,16,-2
2885,-16,1,1015,-15,31,3
2886,-162,-11,977,-14,22,1
2887,-196,-1,966,-11,-1,-4
2888,-87,18,998,-6,-24,-8
2889,78,36,1014,-14,-29,-10
2890,198,55,1006,-15,-14,-10
2891,159,40,1004,-17,14,-3
2892,7,12,1009,-18,30,2
2893,-153,-6,981,-15,24,2
2894,-198,-7,970,-12,4,-2
2895,-107,3,993,-11,-20,-7
2896,63,31,1005,-11,-30,-11
2897,195,52,1013,-14,-16,-11
2898,168,46,1009,-16,11,-3
2899,32,22,1006,-17,31,2
2900,-142,3,982,-16,28,3
2901,-204,-6,979,-14,6,-1
2902,-130,-4,982,-11,-20,-8
2903,46,23,1002,-12,-30,-11
2904,186,47,1012,-13,-19,-11
2905,179,41,1009,-16,8,-5
2906,55,25,1014,-16,28,2
2907,-125,8,982,-16,28,3
2908,-205,-6,976,-14,10,-1
2909,-154,-4,981,-13,-15,-6
2910,28,31,1005,-10,-31,-10
2911,179,39,1011,-14,-21,-11
2912,189,41,1004,-13,4,-5
2913,74,25,1012,-15,26,1
2914,-106,10,995,-14,32,3
2915,-200,-7,972,-13,14,0
2916,-169,0,972,-12,-12,-6
2917,-28,95,984,-13,-25,-7
2918,164,-1,830,39,-40,-21
2919,222,75,741,-41,-6,-7
2920,83,-11,672,-37,34,-9
2921,-18,-77,766,-3,45,3
2922,-178,-77,905,-37,12,5
2923,-238,81,451,-21,-3,-70
2924,-29,-7,462,34,18,-63
2925,129,-1,205,-223,-70,-32
2926,191,-5,45,333,1,-11
2927,87,35,602,-185,-28,-37
2928,-86,-368,32,101,-17,-27
2929,39,-87,122,207,-95,-138
2930,-116,-21,-19,93,-80,-56
2931,-14,-203,654,-96,-126,-38
2932,-3,352,663,362,32,-37
2933,51,-262,90,-205,-29,-24
2934,47,-47,86,113,-147,25
2935,94,86,421,99,-75,42
2936,-35,-141,651,-127,119,-8
2937,-226,37,844,105,82,16
2938,-171,19,585,-76,-188,7
2939,-4,4,311,67,-134,-13
2940,148,68,466,-34,145,-15
2941,162,55,804,-73,103,-10
2942,14,17,805,48,-97,-4
2943,-75,-61,767,-57,-97,5
2944,-178,-34,820,4,82,-1
2945,-71,86,843,17,68,-16
2946,25,64,734,-30,-85,-15
2947,153,27,655,23,-87,8
2948,151,40,1007,-50,4,2
2949,25,-26,934,2,79,-3
2950,-93,-6,859,-31,29,11
2951,-208,24,975,18,-37,0
2952,-109,13,979,-20,-40,-9
2953,42,55,996,-5,4,-7
2954,160,64,941,-8,12,-9
2955,175,28,971,-38,-10,-7
2956,32,3,977,4,4,2
2957,-131,-8,978,-29,31,4
2958,-171,-18,1007,-13,22,-3
2959,-122,-5,955,-2,-17,-6
2960,35,35,983,-18,-41,-10
2961,175,56,1042,-1,-16,-11
2962,161,54,1008,-23,16,-3
2963,58,28,996,-19,25,0
2964,-121,1,991,-12,19,0
2965,-192,-13,978,-21,6,0
2966,-136,-13,974,-10,-9,-7
2967,25,22,1002,-12,-24,-9
2968,177,45,1007,-14,-24,-11
2969,177,41,1010,-12,4,-6
2970,61,41,1021,-19,26,2
2971,-107,14,989,-15,31,3
2972,-193,-7,963,-13,11,-1
2973,-162,-2,973,-14,-14,-6
2974,21,22,1023,-12,-28,-11
2975,159,35,1007,-15,-20,-10
2976,191,39,998,-14,2,-6
2977,87,31,1019,-14,22,-2
2978,-100,18,996,-16,30,4
2979,-190,-5,974,-13,16,-2
2980,-174,1,969,-11,-9,-5
2981,-2,26,1007,-13,-31,-11
2982,148,33,1017,-12,-24,-12
2983,196,34,1006,-16,-1,-8
2984,107,29,996,-16,22,-2
2985,-70,8,999,-14,31,3
2986,-192,-6,988,-11,17,0
2987,-182,5,967,-11,-6,-5
2988,-22,21,1001,-12,-26,-9
2989,126,40,1021,-13,-27,-10
2990,204,41,1017,-15,-6,-8
2991,124,28,994,-15,20,-1
2992,-50,11,991,-15,34,3
2993,-182,-8,986,-11,21,0
2994,-190,2,971,-11,-3,-3
2995,-47,14,1004,-10,-28,-8
2996,112,35,1016,-13,-27,-10
2997,204,45,1007,-16,-8,-8
2998,142,37,999,-16,19,-1
2999,-34,12,1001,-17,33,4
3000,-174,-5,979,-14,23,1
3001,-196,-1,966,-13,0,-2
3002,-70,9,1009,-11,-25,-8
3003,94,29,1018,-12,-29,-10
3004,208,48,1002,-14,-12,-10
3005,152,38,1000,-15,16,-1
3006,-10,14,1012,-16,32,4
3007,-166,0,977,-15,25,3
3008,-197,0,964,-14,2,0
3009,-91,5,1004,-12,-24,-8
3010,78,28,1017,-12,-30,-10
3011,203,45,1007,-15,-16,-9
3012,165,38,1006,-16,11,-3
3013,11,20,1003,-15,31,4
3014,-153,1,981,-15,28,2
3015,-204,2,975,-12,5,-1
3016,-117,4,992,-11,-21,-6
3017,66,28,1011,-11,-32,-11
3018,195,45,1012,-14,-17,-10
3019,175,39,1006,-16,9,-4
3020,40,16,1009,-16,31,2
3021,-137,4,976,-15,29,4
3022,-226,29,986,-9,0,-4
3023,-140,4,924,2,-10,-17
3024,37,39,896,51,-65,-31
3025,179,57,897,-37,-59,-13
3026,189,21,902,42,-11,-12
3027,38,15,814,-12,43,-7
3028,-90,-18,940,-86,36,-5
3029,-160,-20,949,31,21,-5
3030,-154,-18,935,-29,-6,-9
3031,25,-51,991,-29,-8,-28
3032,24,149,925,64,-9,29
3033,233,151,276,-314,-160,156
3034,-7,-228,344,101,-206,107
3035,-47,-148,583,-173,-58,171
3036,25,-253,436,172,-94,76
3037,-131,0,250,36,-38,92
3038,-64,-57,327,272,-109,58
3039,112,-177,427,-44,-62,44
3040,107,-127,463,-102,4,-1
3041,59,13,193,105,66,-103
3042,58,-139,281,-348,145,-160
3043,-157,-28,170,127,-20,-42
3044,-80,-168,250,-352,-44,-17
3045,-42,-157,379,178,274,-183
3046,-71,142,166,-808,-99,-238
3047,248,11,38,129,-180,-147
3048,89,473,590,-527,-231,-151
3049,-5,52,-68,-477,327,-111
3050,62,-201,395,399,393,-44
3051,-118,3,299,-367,-206,-10
3052,-10,-38,-126,123,-171,-78
3053,-143,65,253,80,270,-64
3054,34,103,647,-306,-98,-7
3055,81,58,410,298,-311,-46
3056,13,-22,249,-139,63,-10
3057,-127,-117,328,-25,279,0
3058,-75,-131,576,199,-73,-13
3059,-72,189,574,-152,-268,-17
3060,29,-99,505,-36,35,-9
3061,108,262,1020,-11,179,11
3062,14,-109,559,-192,-44,-26
3063,127,-9,524,262,-130,19
3064,-139,-29,774,-149,-5,22
3065,-163,-21,489,88,123,-17
3066,-121,126,711,4,7,-11
3067,-39,50,891,-68,-120,8
3068,271,13,857,35,-76,-6
3069,145,-56,552,-29,71,-10
3070,14,28,577,-26,69,10
3071,-117,1,563,65,-26,3
3072,-205,45,509,-58,-44,-1
3073,-120,38,545,7,16,-3
3074,29,73,813,-8,18,-13
3075,170,42,885,-71,-39,-7
3076,176,12,928,20,-33,-7
3077,47,-23,1006,-41,21,0
3078,-114,-16,1011,-19,56,2
3079,-178,-10,959,10,19,-4
3080,-148,25,976,-24,-35,-5
3081,34,59,1026,8,-37,-9
3082,171,62,998,-21,-2,-11
3083,157,48,973,-33,14,-3
3084,66,10,967,-12,11,0
3085,-113,-15,889,-30,14,4
3086,-183,-21,927,-7,19,1
3087,-142,-9,961,-7,4,-7
3088,24,33,1007,-14,-31,-10
3089,160,57,1011,0,-31,-10
3090,176,51,1021,-19,0,-6
3091,69,38,1015,-17,28,1
3092,-98,13,978,-15,34,4
3093,-195,-17,974,-20,12,0
3094,-157,-12,985,-7,-14,-5
3095,14,12,1012,-13,-28,-10
3096,157,37,1013,-12,-22,-11
3097,191,41,1005,-9,0,-6
3098,90,41,1003,-16,21,0
3099,-94,24,995,-12,32,4
3100,-189,-1,978,-14,17,-1
3101,-177,-2,970,-16,-9,-6
3102,-1,17,1009,-12,-30,-10
3103,144,28,1026,-16,-27,-10
3104,202,34,999,-15,-4,-7
3105,109,29,992,-10,25,0
3106,-73,19,994,-14,34,3
3107,-188,0,989,-13,19,0
3108,-185,6,971,-12,-6,-4
3109,-25,23,1000,-15,-28,-9
3110,127,32,1030,-11,-26,-12
3111,203,37,1008,-16,-5,-7
3112,129,25,989,-16,20,-2
3113,-47,11,994,-14,34,4
3114,-184,-5,986,-14,21,2
3115,-191,4,974,-9,-4,-4
3116,-49,21,1008,-12,-28,-9
3117,111,38,1015,-12,-28,-11
3118,207,41,1007,-15,-9,-8
3119,141,33,998,-14,19,-2
3120,-28,7,1000,-15,32,4
3121,-176,-7,978,-15,24,3
3122,-195,0,975,-12,-2,-2
3123,-71,14,1005,-8,-27,-8
3124,91,32,1016,-12,-31,-11
3125,207,47,1001,-12,-11,-8
3126,154,39,996,-15,17,-2
3127,-7,13,1009,-17,33,3
3128,-167,0,980,-15,26,2
3129,-201,-1,967,-13,3,-2
3130,-95,7,999,-11,-23,-8
3131,74,28,1016,-12,-30,-10
3132,203,48,1012,-13,-15,-10
3133,168,40,997,-15,14,-4
3134,14,20,1003,-16,32,3
3135,-147,0,985,-14,29,2
3136,-207,5,977,-14,6,-1
3137,-143,85,767,-12,-20,-11
3138,78,-12,746,-72,-44,4
3139,175,88,836,33,-29,-4
3140,183,-16,940,-43,-1,-3
3141,85,-50,814,-28,17,10
3142,-131,-103,867,38,35,7
3143,-245,153,827,-76,23,7
3144,-64,34,276,-197,125,54
3145,86,52,152,-12,53,34
3146,143,-160,484,-479,-92,-8
3147,82,290,400,272,160,-16
3148,87,-156,248,35,65,-11
3149,115,233,591,-586,-52,27
3150,-109,-274,158,173,23,79
3151,-83,-131,423,-174,-174,68
3152,117,9,173,18,-73,19
3153,-85,-206,-100,435,252,45
3154,-2,277,216,-195,-194,103
3155,-16,133,221,193,-310,96
3156,-158,104,296,109,14,60
3157,-185,-78,420,-339,367,44
3158,-153,-98,308,312,-65,1
3159,-82,-173,380,-130,-396,26
3160,55,302,831,43,692,-7
3161,159,-27,383,-12,372,-15
3162,267,252,508,-213,47,47
3163,-88,-64,492,229,-38,18
3164,39,-104,486,-110,-36,13
3165,-238,182,718,-15,274,27
3166,-175,-13,366,56,77,-27
3167,181,-161,283,262,-281,119
3168,153,-75,240,-45,-113,73
3169,208,-82,258,27,88,-27
3170,129,270,105,-91,126,23
3171,-125,42,165,-60,-39,16
3172,-10,-12,253,-45,-24,-31
3173,-249,-117,21,-196,149,-3
3174,-74,1,156,220,56,-35
3175,119,48,292,-233,-81,-11
3176,68,176,265,65,-40,-13
3177,79,56,307,58,37,-6
3178,-137,79,428,-221,81,2
3179,-201,-23,431,146,17,0
3180,-63,-44,507,-115,-74,-11
3181,9,-50,582,-26,-34,-7
3182,182,12,720,101,21,-10
3183,185,18,918,-133,9,-5
3184,4,64,966,97,21,4
3185,-116,64,974,-39,10,1
3186,-189,27,803,-52,14,-2
3187,-138,24,706,44,-3,-3
3188,53,-6,711,-78,-45,-12
3189,179,2,731,30,-19,-8
3190,175,20,809,-2,19,-3
3191,43,8,908,-36,38,0
3192,-128,21,983,23,24,1
3193,-194,27,962,-35,-4,0
3194,-126,23,996,-7,-18,-8
3195,29,35,1011,-6,-21,-10
3196,185,40,1000,-37,-19,-11
3197,173,17,1001,-2,9,-5
3198,54,8,1023,-24,24,2
3199,-115,-13,970,-17,28,1
3200,-200,0,943,2,11,-1
3201,-135,11,915,-16,-20,-6
3202,34,38,951,-3,-30,-11
3203,175,57,976,-14,-17,-10
3204,179,44,993,-22,9,-6
3205,57,16,1019,-12,27,2
3206,-119,-1,986,-22,25,3
3207,-196,-12,987,-14,8,-1
3208,-149,-8,974,-7,-15,-6
3209,31,24,990,-11,-26,-10
3210,177,51,1012,-7,-19,-10
3211,180,47,1018,-16,6,-4
3212,76,35,1015,-18,25,1
3213,-113,8,989,-16,29,3
3214,-197,-8,970,-16,13,-2
3215,-159,-11,976,-10,-13,-6
3216,16,17,999,-10,-28,-11
3217,170,39,1008,-12,-18,-10
3218,196,44,1007,-11,4,-5
3219,84,36,1019,-18,24,1
3220,-101,19,1005,-18,29,3
3221,-197,-9,972,-13,13,0
3222,-176,-3,965,-13,-11,-5
3223,5,19,1010,-10,-28,-9
3224,158,38,1014,-12,-24,-10
3225,201,35,1003,-17,-1,-5
3226,103,35,1011,-15,22,1
3227,-84,15,1010,-17,29,3
3228,-190,-10,978,-14,16,0
3229,-191,2,964,-12,-7,-4
3230,-12,20,1000,-15,-28,-11
3231,139,34,1023,-11,-23,-12
3232,207,37,1006,-17,-4,-7
3233,120,29,1003,-15,21,-1
3234,-63,15,1000,-16,30,4
3235,-194,-11,983,-14,20,2
3236,-197,3,966,-10,-4,-4
3237,-37,20,1002,-11,-26,-9
3238,122,41,1016,-12,-27,-11
3239,210,44,1017,-16,-7,-8
3240,136,36,1002,-17,18,0
3241,-46,11,996,-18,32,5
3242,-180,-10,981,-13,22,2
3243,-201,0,970,-13,-1,-1
3244,-58,18,1001,-11,-26,-10
3245,107,36,1018,-12,-29,-12
3246,209,50,1007,-14,-11,-8
3247,150,36,1006,-16,16,-2
3248,-18,12,1007,-16,31,4
3249,-173,-7,971,-15,24,3
3250,-201,0,965,-12,1,-2
3251,-79,8,1005,-12,-24,-8
3252,85,33,1017,-14,-29,-10
3253,211,47,1008,-12,-12,-9
3254,160,38,1007,-18,15,-2
3255,-1,16,1005,-16,32,4
3256,-162,-1,977,-14,27,3
3257,-205,0,966,-13,5,-2
3258,-102,7,998,-9,-22,-7
3259,73,27,1016,-15,-31,-10
3260,201,49,1018,-13,-17,-9
3261,172,40,1002,-17,11,-4
3262,21,16,1003,-16,31,1
3263,-150,4,978,-13,28,2
3264,-204,-1,977,-13,7,-1
3265,-125,4,989,-10,-20,-6
3266,56,28,1009,-13,-32,-11
3267,196,43,1019,-12,-19,-11
3268,176,39,1004,-15,9,-3
3269,46,20,1009,-17,29,2
3270,-128,59,963,-15,30,3
3271,-205,-18,860,-16,12,1
3272,-168,-57,930,-19,-13,-9
3273,28,37,985,-11,-38,-9
3274,196,10,922,-7,-25,-12
3275,174,113,613,48,12,13
3276,-64,-48,292,-19,44,-35
3277,-135,-144,487,67,36,-8
3278,-118,55,204,-12,-32,82
3279,-158,-86,423,8,5,-4
3280,-101,-64,680,46,-89,-7
3281,121,-69,607,-198,-3,-24
3282,219,-1,277,360,47,65
3283,128,217,199,-126,67,103
3284,-164,-29,328,132,-15,-25
3285,-131,122,318,107,25,18
3286,-175,-17,-112,-441,95,-36
3287,-86,-154,391,240,34,-67
3288,255,115,622,-207,-89,-33
3289,98,-1,687,42,-9,-6
3290,108,53,806,167,19,-20
3291,-71,-62,794,-197,32,-7
3292,-10,20,532,198,23,26
3293,11,275,161,93,-167,110
3294,27,125,144,88,-5,-52
3295,-163,45,417,-377,108,45
3296,92,82,317,325,-157,-8
3297,-10,-116,44,-105,-480,8
3298,-139,-23,290,-128,-176,-6
3299,-124,-9,181,270,300,-13
3300,-82,27,249,-454,-122,14
3301,-28,31,378,440,-416,-9
3302,6,29,370,-151,133,-12
3303,142,16,378,-184,205,-17
3304,110,30,598,323,-148,-18
3305,-25,36,520,-294,-300,12
3306,-73,31,757,192,-91,-8
3307,-143,28,958,-35,161,-3
3308,-57,17,954,-164,64,-6
3309,41,1,1012,188,-77,-15
3310,130,29,1017,-161,-118,0
3311,134,30,1003,38,40,-6
3312,14,3,1003,23,109,-1
3313,-135,14,983,-108,8,5
3314,-157,16,982,94,-49,-5
3315,-84,17,1000,-64,-41,-6
3316,61,27,978,-21,18,-10
3317,172,35,1004,25,23,-11
3318,130,24,1007,-70,-18,-2
3319,8,13,1010,27,-1,1
3320,-128,-1,987,-20,34,1
3321,-175,7,969,-33,26,-1
3322,-93,14,991,21,-17,-8
3323,55,28,1012,-36,-47,-10
3324,177,48,1012,-6,-15,-9
3325,153,36,1003,-12,27,-5
3326,22,15,1013,-32,31,1
3327,-128,0,982,2,15,2
3328,-186,-3,981,-17,-2,-2
3329,-114,6,982,-13,-12,-7
3330,54,28,999,-4,-20,-11
3331,175,49,1013,-24,-18,-10
3332,165,39,1016,-9,3,-5
3333,40,20,1010,-16,26,2
3334,-123,10,978,-18,30,3
3335,-192,-6,979,-7,10,0
3336,-136,2,985,-15,-19,-7
3337,43,24,997,-11,-30,-10
3338,175,43,1011,-11,-14,-9
3339,177,37,1009,-21,6,-4
3340,61,22,1019,-13,24,1
3341,-113,10,986,-18,27,4
3342,-198,-5,969,-15,12,0
3343,-158,0,982,-10,-13,-7
3344,22,27,1010,-13,-30,-11
3345,168,43,1012,-12,-23,-11
3346,189,34,998,-16,4,-4
3347,85,32,1011,-15,25,2
3348,-99,9,998,-16,31,4
3349,-198,-4,978,-13,12,1
3350,-173,-2,967,-12,-12,-5
3351,3,26,1009,-10,-30,-10
3352,152,37,1018,-15,-24,-10
3353,198,35,999,-15,-1,-6
3354,105,32,1002,-15,23,-1
3355,-82,13,997,-16,33,4
3356,-193,-6,988,-14,16,-1
3357,-184,2,965,-12,-8,-5
3358,-22,24,996,-12,-29,-10
3359,139,32,1019,-15,-26,-12
3360,204,38,1012,-15,-4,-7
3361,125,30,991,-15,21,-2
3362,-59,10,996,-16,33,3
3363,-191,-4,983,-12,20,1
3364,-192,5,975,-14,-5,-4
3365,-40,20,1004,-12,-27,-10
3366,115,32,1013,-14,-27,-10
3367,213,45,1011,-15,-9,-9
3368,138,30,997,-16,18,0
3369,-38,16,1004,-14,32,4
3370,-177,-5,975,-13,23,2
3371,-200,3,970,-12,0,-3
3372,-61,13,1004,-12,-25,-10
3373,177,141,990,-85,-55,-63
3374,102,10,399,-151,7,-116
3375,112,-88,587,-2,-107,-78
3376,-167,-5,359,66,14,7
3377,-137,-66,243,113,47,-20
3378,-238,-23,234,-160,-68,6
3379,92,78,392,90,-77,11
3380,41,70,22,228,-150,86
3381,60,-41,539,-299,-64,4
3382,-164,-61,128,228,113,-66
3383,72,-24,323,155,-132,-7
3384,-70,-4,352,-491,81,36
3385,-153,-72,161,412,150,-124
3386,-371,-259,323,-258,-54,19
3387,-43,-290,275,-4,11,-5
3388,87,-218,654,271,-11,-76
3389,74,-280,452,-490,-25,-3
3390,-139,-203,775,430,22,-38
3391,-70,-364,538,-195,96,40
3392,116,-125,7,-182,-55,-37
3393,-136,-44,514,364,206,-94
3394,132,-83,57,-660,-54,-93
3395,242,109,476,529,103,2
3396,-41,75,-221,-311,155,54
3397,242,-45,-515,-261,64,-65
3398,100,244,5,34,53,-57
3399,-36,-132,-45,27,-8,-20
3400,-230,54,-5,123,-37,-16
3401,70,-170,194,82,-110,-40
3402,86,-97,85,-229,48,-27
3403,236,196,128,58,-45,18
3404,-198,-11,266,-35,18,22
3405,44,-137,-103,-105,-33,9
3406,81,193,76,-262,54,12
3407,-93,-67,198,-49,-32,-24
3408,-520,-5,248,200,56,-59
3409,131,-29,566,-48,40,-37
3410,241,-228,366,-35,30,-43
3411,-17,-25,329,16,22,-80
3412,-88,-232,287,71,21,-89
3413,-79,38,715,-8,6,-63
3414,-164,-112,183,-62,49,-33
3415,-237,-115,249,-90,67,-201
3416,110,-83,-107,-196,129,-56
3417,-114,36,465,36,85,-90
3418,-152,102,252,-156,-53,-33
3419,41,-62,310,213,80,-38
3420,57,-37,367,-214,5,-13
3421,-24,-131,242,78,-20,-23
3422,1,-68,403,-38,7,-14
3423,41,-75,289,-28,-20,-14
3424,78,-16,416,61,10,-22
3425,80,-6,536,-63,4,-13
3426,1,13,708,64,14,-8
3427,-85,36,827,-44,14,-2
3428,-114,48,864,-7,2,-8
3429,-52,31,972,12,-9,-9
3430,51,25,957,-61,-19,-9
3431,139,10,935,19,-9,-9
3432,97,3,943,-35,7,-5
3433,-13,2,945,-14,22,-1
3434,-117,6,967,9,20,-1
3435,-145,27,971,-32,-7,-2
3436,-53,34,993,3,-18,-11
3437,58,36,994,-22,-18,-12
3438,154,41,1004,-25,-10,-8
3439,117,22,1009,-10,10,-5
3440,0,2,1012,-30,20,0
3441,-125,-2,976,-8,22,-1
3442,-160,6,973,-10,7,-4
3443,-81,13,1005,-14,-18,-8
3444,63,35,1009,-4,-26,-11
3445,171,45,1011,-18,-13,-10
3446,134,35,1000,-17,14,-5
3447,10,14,1003,-15,26,0
3448,-132,0,980,-16,22,2
3449,-178,0,976,-10,4,-2
3450,-95,5,985,-10,-16,-9
3451,57,31,1006,-15,-24,-10
3452,170,49,1017,-11,-16,-9
3453,148,38,1009,-16,7,-6
3454,29,18,1000,-15,26,1
3455,-126,8,981,-16,27,3
3456,-184,-2,983,-13,7,-1
3457,-123,1,989,-10,-16,-6
3458,47,29,1001,-13,-29,-10
3459,169,44,1015,-12,-17,-11
3460,167,36,1011,-17,8,-6
3461,50,19,1011,-16,25,-1
3462,-112,14,980,-12,29,2
3463,-189,-4,976,-13,10,-1
3464,-143,3,983,-12,-13,-7
3465,24,28,1013,-13,-28,-10
3466,165,41,1010,-14,-21,-11
3467,179,34,1002,-15,2,-6
3468,72,27,1008,-15,25,0
3469,-95,10,992,-15,29,2
3470,-186,-8,976,-12,13,0
3471,-167,2,975,-10,-12,-4
3472,9,27,1015,-12,-30,-9
3473,148,39,1014,-13,-23,-10
3474,189,38,998,-14,0,-7
3475,95,26,1000,-14,23,-2
3476,-81,14,1002,-16,30,3
3477,-183,-7,985,-15,16,-1
3478,-177,0,967,-12,-6,-6
3479,-14,23,1004,-10,-28,-10
3480,134,37,1022,-14,-25,-11
3481,193,41,1002,-15,-4,-9
3482,119,31,993,-15,20,-2
3483,-61,12,997,-16,33,4
3484,-182,-8,984,-13,19,1
3485,-186,-1,977,-12,-5,-4
3486,-35,19,1005,-12,-28,-9
3487,118,32,1015,-13,-27,-12
3488,201,43,1011,-14,-8,-10
3489,130,36,996,-14,18,-2
3490,47,67,966,-16,33,2
3491,-215,-15,732,-48,43,5
3492,-260,-102,873,4,-3,-12
3493,-112,79,848,-26,-42,-18
3494,-58,-61,767,-44,-28,2
3495,202,63,952,38,-9,-18
3496,278,117,656,38,-5,5
3497,-202,-65,492,53,33,30
3498,-103,12,612,1,29,-38
3499,-187,32,343,-80,-25,-35
3500,-149,-130,437,156,1,-5
3501,264,-20,117,-174,-49,-32
3502,-51,-107,386,19,22,-8
3503,102,220,512,107,-29,-31
3504,68,-19,546,-218,23,23
3505,128,168,259,157,-56,-43
3506,-121,70,688,-29,66,-32
3507,-96,-251,250,141,-140,-48
3508,-51,75,-42,-45,-98,8
3509,210,-27,297,42,46,-52
3510,237,-11,359,151,-112,87
3511,-125,-68,-42,292,-50,99
3512,1,-66,373,46,26,64
3513,-271,288,-17,26,-29,174
3514,-74,-57,-8,-170,-28,39
3515,-100,-241,305,83,-18,2
3516,194,-108,126,83,3,138
3517,174,94,-190,42,-202,49
3518,116,-12,36,235,115,49
3519,-58,-57,405,-62,-134,-14
3520,94,-13,8,-106,20,19
3521,-28,172,20,-364,-8,-93
3522,-177,-71,427,256,-60,-71
3523,-339,-98,420,-172,59,-76
3524,102,-3,88,-111,222,-83
3525,-34,69,52,78,90,-190
3526,-90,-49,390,-423,-3,-67
3527,-72,-35,452,274,137,-88
3528,-10,-10,287,-192,141,-32
3529,73,160,-6,-259,-104,20
3530,52,26,181,177,43,-75
3531,7,-108,87,-629,9,2
3532,-88,202,471,384,123,34
3533,-68,-38,9,-198,-18,13
3534,43,-164,126,11,-100,-10
3535,31,-1,290,51,44,-8
3536,130,69,96,-173,20,-8
3537,59,48,349,92,-12,-9
3538,72,77,198,-54,-33,-4
3539,55,48,226,-19,13,-6
3540,-51,-34,216,13,59,-5
3541,-120,-2,460,-38,0,-2
3542,-111,-67,628,-9,-31,-7
3543,-37,34,514,19,-4,-7
3544,47,39,460,-20,24,-8
3545,131,75,671,8,-3,-10
3546,74,67,802,1,-9,-1
3547,-42,35,941,-31,23,3
3548,-116,-12,1004,8,31,-3
3549,-132,-11,977,-39,4,-1
3550,-22,-15,1000,-10,-30,-9
3551,85,-1,1004,1,-24,-12
3552,144,34,944,-26,-2,-5
3553,112,53,922,9,17,-5
3554,-36,44,879,-19,22,2
3555,-145,31,917,-17,15,0
3556,-167,11,962,-11,5,-4
3557,-50,1,1017,-31,-24,-8
3558,87,0,1011,-7,-29,-11
3559,181,17,999,-13,-12,-10
3560,127,22,997,-14,17,-4
3561,-15,26,1013,-5,32,1
3562,-150,21,974,-15,20,2
3563,-179,27,975,-13,0,-3
3564,-78,18,1007,-14,-20,-8
3565,73,20,1018,-20,-28,-11
3566,188,30,1009,-13,-14,-9
3567,150,15,994,-16,12,-5
3568,13,2,998,-13,29,1
3569,-146,9,984,-9,30,3
3570,-191,15,982,-12,5,-2
3571,-108,19,993,-12,-22,-8
3572,60,37,1003,-12,-30,-10
3573,187,43,1017,-18,-16,-10
3574,163,29,1005,-17,12,-4
3575,32,9,1001,-18,29,1
3576,-132,-4,981,-13,27,2
3577,-194,-3,985,-10,7,-2
3578,-125,8,990,-11,-17,-7
3579,48,35,1003,-10,-30,-9
3580,177,49,1010,-12,-19,-11
3581,174,37,1006,-16,8,-4
3582,51,20,1011,-17,28,2
3583,-120,4,984,-15,30,4
3584,-193,-10,974,-12,9,-1
3585,-152,0,986,-10,-16,-7
3586,28,27,1008,-11,-32,-10
3587,173,47,1008,-11,-21,-11
3588,182,39,995,-14,4,-5
3589,77,30,1013,-15,25,1
3590,-107,14,1001,-18,30,4
3591,-195,-9,974,-15,14,0
3592,-165,-6,977,-11,-12,-6
3593,10,22,1012,-11,-31,-10
3594,158,39,1012,-11,-24,-10
3595,198,36,997,-14,1,-7
3596,93,36,1001,-14,26,0
3597,-83,16,1004,-17,31,4
3598,-196,-7,988,-15,15,1
3599,-178,0,968,-12,-12,-5
3600,-10,19,1000,-13,-30,-9
3601,140,37,1020,-11,-25,-11
3602,204,36,1005,-15,-3,-8
3603,147,98,964,11,29,9
3604,-56,-24,474,-33,50,-18
3605,-223,13,533,-76,62,-42
3606,-52,-55,556,-66,-10,13
3607,-62,-12,400,95,25,-26
3608,173,71,529,-61,-61,-53
3609,215,44,486,-24,-33,-12
3610,72,33,833,71,14,-19
3611,-102,-99,794,-69,51,12
3612,-31,127,745,43,-54,-20
3613,64,56,352,379,-187,68
3614,0,48,285,48,-176,64
3615,-216,7,438,169,-61,12
3616,-28,-5,307,46,53,81
3617,58,169,471,-22,-159,123
3618,66,117,328,39,-211,58
3619,82,-145,0,-299,90,26
3620,-45,-42,396,110,112,-6
3621,-106,79,398,38,-94,13
3622,58,30,299,-122,-146,-1
3623,85,-28,159,88,113,-71
3624,-135,258,533,-553,229,-122
3625,71,51,498,122,46,-3
3626,-60,-89,567,-71,-140,-47
3627,-285,-43,-137,-163,90,-53
3628,-56,34,230,206,89,17
3629,286,397,-391,-179,182,-3
3630,23,-225,-105,223,78,16
3631,253,-75,38,261,-34,344
3632,-93,-143,202,192,78,254
3633,-14,114,27,211,187,127
3634,56,105,91,-327,-220,124
3635,-83,-134,461,270,124,-111
3636,-141,33,-303,-220,-136,-91
3637,93,-96,-225,-453,-31,-52
3638,-28,366,143,159,-7,11
3639,20,-87,189,-298,-104,-55
3640,-168,-255,206,-102,234,-35
3641,80,17,153,199,-20,-57
3642,256,-378,-82,-394,235,-34
3643,2,-213,105,458,-335,-54
3644,-107,2,176,-22,-203,-43
3645,-254,2,351,-167,-423,-6
3646,-72,1,380,252,-8,-54
3647,-23,-3,355,-135,193,93
3648,31,142,98,30,-860,-168
3649,-153,44,-6,254,312,-479
3650,-135,-6,-89,-171,-75,-66
3651,-145,55,-33,-101,17,-29
3652,96,193,131,364,-93,16
3653,121,205,110,-556,195,198
3654,-5,63,199,249,-265,6
3655,-76,13,290,71,341,-2
3656,-222,-86,336,-345,115,-7
3657,-148,-10,303,220,-725,-15
3658,52,-3,471,-38,-403,-13
3659,115,45,575,-99,114,-20
3660,108,39,805,80,51,-15
3661,-8,62,1013,-31,38,4
3662,-261,203,871,4,-80,0
3663,-181,92,374,-86,282,-83
3664,-104,-236,362,-175,161,-19
3665,72,-125,623,102,-105,-72
3666,-4,-271,349,-174,-76,-93
3667,19,19,293,124,131,-50
3668,20,110,306,41,148,-35
3669,-55,196,288,-92,22,-27
3670,-39,127,248,131,-76,-21
3671,-19,85,534,-89,-89,-35
3672,-130,-38,722,-41,49,-88
3673,-206,-40,746,75,78,-178
3674,-231,13,924,-52,-57,-230
3675,-119,200,955,83,-85,-250
3676,-239,280,999,-46,10,-300
3677,-517,-71,787,-138,67,-480
3678,-662,-172,752,28,-5,-690
3679,-490,84,823,15,-81,-861
3680,-373,253,802,4,-20,-997
3681,-193,-116,677,-58,28,-1104
3682,-59,-434,165,-65,10,-1242
3683,-13,119,32,33,6,-1205
3684,-89,169,180,-116,-111,-1269
3685,-560,-56,559,32,29,-1318
3686,-202,117,929,-85,-28,-1358
3687,-66,154,915,-5,2,-1402
3688,-465,-33,814,-65,-4,-1484
3689,-369,54,1012,-8,-59,-1540
3690,110,302,1144,6,-88,-1540
3691,-69,-8,815,-123,-1,-1542
3692,-376,-222,955,-9,-13,-1575
3693,39,309,1157,81,-107,-1538
3694,152,281,987,-74,-41,-1465
3695,-374,-88,832,-57,32,-1468
3696,-89,144,1093,9,-84,-1464
3697,386,308,1106,-43,-105,-1419
3698,-7,-16,843,-76,16,-1382
3699,-144,139,842,-9,-20,-1288
3700,465,537,1049,-13,-110,-1128
3701,327,347,802,-104,-2,-974
3702,-157,123,849,-52,34,-905
3703,553,396,1194,27,-90,-791
3704,783,349,1013,-67,-21,-526
3705,-3,180,837,-70,69,-343
3706,118,310,1063,-22,-44,-280
3707,552,272,1076,-60,-52,-192
3708,-15,178,846,-31,63,-153
3709,-314,341,917,41,37,-222
3710,109,260,1162,-1,-51,-286
3711,47,96,970,-40,-7,-297
3712,-445,81,901,-13,38,-398
3713,-389,80,1097,27,-30,-583
3714,-416,26,1064,-12,-44,-761
3715,-732,-173,914,-13,-14,-1107
3716,-718,-198,737,51,-21,-1519
3717,-480,44,967,63,-56,-1788
3718,-242,-14,830,-26,-76,-1896
3719,-449,-401,800,-88,-42,-2018
3720,-496,-366,495,23,-45,-2183
3721,-39,-98,765,25,-98,-2275
3722,-54,-270,436,-60,-57,-2309
3723,-220,-489,673,-27,-56,-2376
3724,166,-183,796,21,-101,-2409
3725,470,-55,1082,-42,-103,-2368
3726,275,-378,883,-134,-69,-2315
3727,376,-463,764,69,-108,-2225
3728,466,-142,397,58,-172,-1896
3729,792,12,665,-49,-95,-1614
3730,995,-272,461,-162,-84,-1140
3731,1002,-294,345,-335,-81,-289
3732,1711,-349,441,-24,-131,361
3733,1952,-380,412,-169,-119,1782
3734,1854,-499,627,-434,-44,3273
3735,1894,-333,660,-316,146,4388
3736,1734,-714,611,-568,182,5055
3737,1470,-721,805,-284,211,5146
3738,884,-159,262,-87,248,5154
3739,34,-473,597,-9,278,5141
3740,-558,-196,661,322,236,4807
3741,-204,-264,482,374,46,4619
3742,182,-324,155,503,-37,4476
3743,510,-451,710,888,46,4381
3744,321,1759,1864,955,389,4078
3745,-1211,1654,1570,-8,743,3162
3746,-160,-330,377,-514,693,2902
3747,-149,-43,181,-635,709,3195
3748,-238,-544,152,-242,548,3392
3749,-524,-384,453,-325,412,3471
3750,-356,-418,304,-200,213,3523
3751,-85,-329,85,155,147,3562
3752,-48,-102,274,-50,117,3611
3753,-559,-599,682,228,63,3526
3754,-747,-590,924,355,-31,3406
3755,-583,57,842,335,-181,3243
3756,-878,957,1285,416,-222,2961
3757,-749,1329,1007,23,-270,2584
3758,-466,534,812,-210,-276,2233
3759,-498,-103,707,-210,-287,2054
3760,-704,-426,1039,-140,-335,2084
3761,-593,13,910,131,-376,2082
3762,223,921,1522,127,-349,1913
3763,446,1093,1656,41,68,1415
3764,-720,425,1068,23,379,1020
3765,-539,506,611,-6,277,943
3766,-600,354,655,-68,179,857
3767,-613,176,701,-87,58,762
3768,-841,107,821,-4,-73,708
3769,-539,521,649,45,-182,631
3770,-701,370,913,-21,-254,483
3771,333,847,1740,-32,-248,318
3772,51,582,1313,-48,23,-28
3773,-108,221,507,45,92,-163
3774,-126,535,684,-9,-20,-111
3775,128,194,1519,-166,-55,-62
3776,-246,80,991,-109,15,-9
3777,-110,-231,806,-102,-20,-1
3778,66,-369,946,-57,-32,-30
3779,73,-289,1184,10,0,-47
3780,154,-137,822,46,11,-100
3781,110,-43,992,74,38,-44
3782,62,249,1134,55,12,16
3783,-99,283,1014,3,20,14
3784,-176,212,853,-23,16,-28
3785,-114,121,1133,-64,-19,-4
3786,4,-72,968,-76,-35,-8
3787,106,-174,975,-53,-24,-11
3788,163,-172,964,-24,-8,-3
3789,87,-116,1043,10,15,-3
3790,-29,2,956,28,22,-2
3791,-150,130,1018,31,18,5
3792,-110,195,1002,10,0,-8
3793,-39,144,992,-22,-12,-7
3794,69,89,1005,-38,-21,-8
3795,143,-22,1018,-50,-6,-2
3796,53,-106,984,-35,13,-6
3797,-47,-112,977,-10,19,5
3798,-105,-42,994,6,13,-5
3799,-110,24,992,14,-3,-7
3800,-3,109,994,12,-16,-10
3801,104,135,1021,-9,-11,-9
3802,106,100,999,-25,3,-6
3803,38,25,1011,-34,15,0
3804,-84,-45,983,-33,17,0
3805,-136,-72,978,-21,5,-1
3806,-85,-65,986,-7,-13,-8
3807,20,-10,1001,3,-20,-11
3808,150,62,1013,5,-15,-10
3809,131,94,1008,-5,7,-5
3810,38,91,1001,-13,22,1
3811,-104,51,989,-25,23,2
3812,-170,-3,988,-28,6,0
3813,-115,-47,983,-23,-16,-6
3814,33,-44,991,-14,-25,-10
3815,153,-6,1007,-3,-16,-10
3816,166,35,1012,-2,6,-7
3817,57,59,1014,-3,26,0
3818,-105,72,982,-10,28,4
3819,-186,44,986,-16,12,-1
3820,-152,7,983,-20,-12,-7
3821,14,-1,997,-22,-28,-11
3822,155,-10,1008,-18,-22,-12
3823,175,-1,1002,-14,2,-6
3824,84,12,1010,-8,22,-1
3825,-91,37,994,-5,30,4
3826,-182,36,978,-9,15,1
3827,-173,41,984,-11,-9,-5
3828,-8,36,1011,-18,-28,-10
3829,140,21,1006,-20,-25,-13
3830,190,6,995,-20,-2,-8
3831,103,-2,1002,-16,21,-1
3832,-64,6,999,-9,31,3
3833,-175,2,994,-8,17,1
3834,-178,24,969,-6,-4,-4
3835,-23,38,1002,-9,-26,-10
3836,127,38,1020,-17,-25,-10
3837,188,26,1007,-20,-6,-6
3838,122,18,991,-16,19,-1
3839,-50,5,1003,-15,31,3
3840,-174,-7,990,-12,19,1
3841,-186,2,971,-8,-2,-2
3842,-38,23,995,-7,-25,-9
3843,103,34,1016,-12,-26,-10
3844,193,39,1011,-18,-10,-8
3845,129,37,992,-17,17,-2
3846,-35,21,995,-16,31,4
3847,-172,0,994,-14,22,2
3848,-189,7,972,-10,-1,-2
3849,-56,8,1000,-10,-25,-10
3850,91,24,1013,-13,-27,-12
3851,198,39,1009,-12,-11,-8
3852,142,33,998,-15,17,-3
3853,-21,27,1004,-14,30,4
3854,-165,10,982,-13,23,2
3855,-190,9,973,-14,1,-3
3856,-77,4,1001,-12,-24,-9
3857,79,15,1013,-12,-29,-12
3858,200,31,1000,-13,-14,-9
3859,156,32,1001,-13,13,-2
3860,4,23,1018,-14,30,4
3861,-153,13,980,-13,25,3
3862,-196,14,967,-12,5,-1
3863,-99,5,998,-15,-21,-8
3864,62,15,1014,-15,-30,-12
3865,196,31,1009,-13,-18,-9
3866,163,27,1001,-15,11,-1
3867,25,22,1003,-14,31,2
3868,-139,15,986,-13,29,2
3869,-199,15,976,-10,9,0
3870,-122,10,986,-11,-17,-8
3871,47,21,1007,-14,-30,-10
3872,181,32,1015,-16,-19,-9
3873,174,30,1004,-17,7,-5
3874,43,20,1009,-14,27,2
3875,-125,18,977,-11,29,3
3876,-200,9,983,-10,10,-2
3877,-139,10,987,-12,-16,-9
3878,33,20,1000,-13,-29,-11
3879,176,31,1010,-16,-21,-10
3880,182,28,1009,-17,4,-3
3881,66,21,1011,-15,26,1
3882,-111,12,984,-13,31,3
3883,-199,4,979,-11,14,0
3884,-153,3,983,-12,-13,-7
3885,14,19,1010,-14,-29,-11
3886,166,30,1003,-16,-23,-10
3887,189,28,1003,-16,3,-5
3888,174,135,945,7,21,0
3889,12,35,571,-100,37,5
3890,-94,-139,316,-92,18,3
3891,-106,-107,473,-234,-8,-44
3892,-32,-26,482,-66,15,-65
3893,44,15,102,7,2,-21
3894,127,36,398,-97,-95,-7
3895,120,-27,517,69,-7,-5
3896,-79,53,583,-95,97,3
3897,-295,-35,701,16,61,-63
3898,-116,132,446,22,-83,-90
3899,-318,-96,379,243,-21,-166
3900,-137,-136,-80,101,73,-125
3901,11,-1,303,-279,241,-114
3902,-69,80,78,111,40,-82
3903,-150,-165,124,-432,-139,-278
3904,67,123,498,312,178,10
3905,-106,-8,241,-5,134,-24
3906,80,253,91,261,-65,-75
3907,-69,-39,555,-9,22,-4
3908,-335,173,189,-220,-80,-34
3909,-160,156,4,9,-48,-79
3910,-111,-136,241,-192,159,-82
3911,93,170,442,107,65,36
3912,-101,-189,213,536,-262,227
3913,-164,-217,-12,164,-67,35
3914,49,-14,527,-179,-132,22
3915,148,12,10,319,64,25
3916,-53,-114,201,-361,123,13
3917,-172,11,318,370,-161,1
3918,-28,-51,569,-299,-141,-29
3919,99,74,408,170,254,108
3920,30,-89,-113,267,139,-35
3921,77,-118,580,-397,-175,-26
3922,164,104,435,495,-204,73
3923,149,-13,160,-162,177,-30
3924,-113,-223,629,-91,202,-77
3925,-67,130,313,357,-103,20
3926,171,152,578,-301,-254,24
3927,14,-24,258,230,87,37
3928,16,38,501,-141,118,-20
3929,29,-48,534,-56,-80,17
3930,71,45,243,187,-111,11
3931,37,-48,415,-181,-24,2
3932,-30,90,399,92,107,1
3933,-86,43,567,-52,24,2
3934,-89,67,746,-33,-73,-7
3935,-7,9,771,15,-20,-3
3936,83,17,904,-72,25,-12
3937,105,-21,995,3,26,-8
3938,65,-18,985,-14,-9,0
3939,-74,2,964,-12,-2,2
3940,-120,27,1016,8,23,-6
3941,-110,32,989,-18,10,-6
3942,4,52,954,-12,-24,-9
3943,112,43,960,-15,-30,-10
3944,129,22,946,-28,-1,-5
3945,57,8,940,-24,32,1
3946,-75,2,975,-11,26,0
3947,-149,-5,988,-16,-1,-2
3948,-130,5,973,-4,-16,-6
3949,5,35,1005,-8,-17,-9
3950,132,43,1010,-18,-12,-9
3951,156,36,990,-11,0,-5
3952,66,32,1003,-17,18,0
3953,-82,18,1016,-19,28,2
3954,-163,-6,987,-12,14,-1
3955,-149,-6,969,-15,-11,-5
3956,3,13,1007,-10,-29,-10
3957,130,23,998,-12,-19,-11
3958,176,29,980,-14,2,-8
3959,85,39,999,-13,23,0
3960,-75,29,1011,-18,25,3
3961,-173,3,994,-16,14,0
3962,-171,3,976,-13,-7,-6
3963,-9,12,999,-13,-26,-11
3964,126,17,1011,-14,-24,-11
3965,188,25,1000,-15,-4,-5
3966,111,36,998,-13,22,0
3967,-58,26,1006,-13,31,2
3968,-180,15,995,-14,16,0
3969,-182,9,974,-12,-6,-4
3970,-31,15,994,-12,-26,-9
3971,111,18,1007,-13,-23,-12
3972,197,26,1010,-15,-6,-7
3973,126,25,1000,-15,18,-2
3974,-35,19,1003,-12,31,2
3975,-178,9,988,-10,20,1
3976,-192,17,973,-13,-3,-4
3977,-55,20,1000,-11,-24,-10
3978,94,21,1005,-15,-26,-11
3979,201,30,1005,-13,-10,-8
3980,144,27,1003,-14,16,-1
3981,-21,14,1012,-15,30,4
3982,-166,7,985,-10,22,2
3983,-194,12,966,-11,0,-3
3984,-77,14,994,-12,-22,-8
3985,80,21,1016,-13,-27,-11
3986,200,42,1005,-12,-12,-8
3987,156,29,1005,-15,13,-2
3988,0,18,1015,-15,28,3
3989,-157,8,981,-12,25,2
3990,-195,9,964,-10,4,-3
3991,-102,6,993,-10,-19,-8
3992,69,19,1012,-14,-28,-10
3993,193,32,1011,-16,-17,-10
3994,163,34,1006,-15,9,-4
3995,26,21,1012,-13,28,2
3996,-145,17,981,-11,28,3
3997,-201,10,973,-13,9,0
3998,-121,4,986,-11,-17,-9
3999,53,19,1006,-14,-30,-11
4000,189,33,1012,-17,-20,-10
4001,171,29,1010,-14,7,-4
4002,48,22,1011,-14,27,3
4003,-129,15,980,-11,29,3
4004,-199,10,978,-9,10,-1
4005,-144,5,987,-13,-15,-8
4006,37,23,1001,-13,-29,-11
4007,177,27,1011,-18,-22,-10
4008,179,28,1011,-17,3,-4
4009,85,112,1020,-7,20,-3
4010,-45,-24,737,-228,43,-30
4011,-40,123,574,-47,-42,12
4012,-157,136,387,-116,19,-47
4013,66,-4,460,88,18,43
4014,122,-57,481,-34,-112,-24
4015,184,25,609,-18,-6,3
4016,74,-119,717,6,74,3
4017,211,349,711,-105,101,-62
4018,-238,2,325,-223,120,-64
4019,-140,-145,349,-221,15,-37
4020,-127,343,474,227,66,-23
4021,-88,-144,117,-190,58,0
4022,-15,359,508,59,27,-14
4023,-42,289,537,-141,78,-43
4024,77,109,163,28,19,26
4025,68,77,508,-490,77,-23
4026,-127,-171,263,289,-38,-37
4027,-141,-226,47,-273,45,-36
4028,-240,-133,537,96,1,-78
4029,134,64,526,255,-78,-68
4030,274,57,705,-373,-7,-2
4031,74,-123,474,494,39,-63
4032,-78,21,476,-933,-36,-37
4033,-154,-113,384,-237,127,11
4034,-245,-188,540,319,-70,-57
4035,131,189,42,-408,-229,49
4036,27,-27,-50,419,254,-68
4037,47,-134,230,-291,-27,-33
4038,-19,345,144,-476,-106,-118
4039,-222,46,26,179,11,-154
4040,-58,-92,61,68,44,15
4041,-81,-186,220,-227,52,43
4042,35,17,-62,489,-342,195
4043,-14,256,126,0,-352,14
4044,-171,97,30,263,-45,33
4045,-175,38,88,-18,226,65
4046,-92,134,141,76,-130,33
4047,-148,185,-35,108,-23,22
4048,-90,36,116,-42,176,11
4049,-111,-135,231,-108,200,-23
4050,42,-131,264,-19,-11,3
4051,112,-61,532,10,-516,2
4052,83,-44,426,18,-258,-6
4053,3,11,538,-50,213,1
4054,-114,81,563,8,100,2
4055,-118,93,455,24,-154,-7
4056,-20,74,359,-37,-113,-8
4057,65,40,341,-3,76,-9
4058,110,4,376,-58,100,-7
4059,67,-48,526,-19,-25,-4
4060,-52,-30,681,-18,-89,1
4061,-113,-13,868,-38,-9,-2
4062,-112,23,970,14,66,-7
4063,-4,68,986,-15,6,-9
4064,112,81,1005,-8,-64,-9
4065,123,52,1015,-6,-26,-5
4066,58,14,1008,-41,46,-1
4067,-76,-18,952,-15,53,0
4068,-147,-32,936,-14,-9,-1
4069,-118,-20,902,-7,-39,-6
4070,14,16,878,-3,-11,-11
4071,128,53,904,-12,12,-8
4072,143,66,953,-10,6,-4
4073,60,50,973,-16,-1,0
4074,-94,34,990,-22,21,4
4075,-163,-5,991,-19,25,-2
4076,-139,-26,990,-18,-6,-8
4077,17,-5,997,-9,-36,-10
4078,144,12,998,-7,-24,-9
4079,165,35,998,-10,9,-5
4080,75,50,1014,-9,31,0
4081,-91,50,1004,-14,24,3
4082,-174,21,990,-15,4,-1
4083,-161,0,979,-14,-11,-6
4084,4,2,1004,-18,-22,-10
4085,142,5,1000,-14,-22,-11
4086,186,12,991,-10,-3,-7
4087,98,28,1003,-9,23,0
4088,-78,33,1011,-10,33,3
4089,-182,25,1000,-12,15,0
4090,-178,20,971,-12,-10,-4
4091,-18,22,995,-16,-28,-10
4092,130,13,1012,-19,-23,-11
4093,198,13,1002,-15,-1,-8
4094,119,21,995,-13,21,-1
4095,-56,16,1010,-12,29,4
4096,-182,9,999,-11,18,1
4097,-191,19,973,-10,-5,-4
4098,-36,26,995,-12,-27,-11
4099,113,29,1013,-15,-26,-11
4100,201,28,1009,-15,-7,-7
4101,130,24,999,-16,18,-1
4102,-39,11,1002,-17,31,5
4103,-178,4,993,-11,21,1
4104,-194,10,969,-10,-3,-3
4105,-56,19,998,-11,-25,-10
4106,96,26,1005,-14,-27,-12
4107,206,35,1007,-15,-10,-10
4108,149,32,1008,-15,17,-2
4109,-22,17,1009,-15,31,4
4110,-169,4,984,-13,22,1
4111,-199,3,970,-12,1,-3
4112,-77,11,997,-12,-23,-8
4113,85,18,1009,-15,-27,-11
4114,204,43,1006,-13,-12,-8
4115,155,33,1007,-18,15,-2
4116,-4,24,1016,-12,30,2
4117,-160,10,981,-15,23,1
4118,-197,12,968,-13,3,-3
4119,-98,5,992,-13,-21,-9
4120,70,18,1008,-15,-29,-9
4121,201,29,1016,-15,-16,-9
4122,163,34,1003,-12,11,-2
4123,20,23,1010,-13,30,3
4124,-149,16,980,-13,26,2
4125,-91,64,861,-243,-3,-26
4126,2,-59,457,-95,-76,18
4127,34,42,382,-9,-30,-19
4128,-152,-23,230,-209,82,8
4129,-60,-12,503,140,-33,11
4130,240,271,501,-120,1,-117
4131,55,-174,391,-120,279,-55
4132,-60,127,376,61,222,-76
4133,-109,-67,537,-492,-89,-12
4134,121,132,233,440,-70,-53
4135,96,167,17,216,35,119
4136,136,0,625,-348,267,35
4137,133,-101,330,302,-170,9
4138,-60,37,169,-60,-16,34
4139,139,-79,63,-386,533,0
4140,-184,-49,83,482,525,215
4141,-139,189,-368,-344,191,259
4142,198,-35,212,520,-239,124
4143,128,-77,548,171,3,69
4144,274,-87,253,182,337,186
4145,-358,-98,-214,769,-113,202
4146,-317,-23,291,-165,-228,192
4147,-85,66,-60,563,-87,78
4148,48,-263,19,-319,18,-22
4149,126,-100,-173,-12,189,-54
4150,26,69,387,331,-20,4
4151,13,29,17,-562,-281,182
4152,210,-148,-456,298,-41,35
4153,163,229,186,147,71,207
4154,-84,123,249,-523,-163,140
4155,-108,-269,122,655,-30,-62
4156,358,-235,269,-534,-47,74
4157,78,55,204,174,-16,-36
4158,0,-127,25,-20,61,-96
4159,248,-154,36,-178,-27,6
4160,96,-105,92,127,21,26
4161,-22,-165,152,-163,11,-29
4162,17,-54,107,54,77,5
4163,-45,9,224,32,36,0
4164,123,-26,572,-127,-113,-25
4165,82,-12,619,62,-13,4
4166,4,-11,683,-69,71,-4
4167,-44,-46,860,-7,30,-15
4168,-143,48,891,40,-31,4
4169,-63,56,717,-47,-30,-6
4170,36,43,686,19,26,-16
4171,116,55,650,-25,7,-2
4172,125,18,588,-43,-27,-5
4173,-3,-17,638,11,4,-1
4174,-128,2,722,-30,36,4
4175,-130,-2,844,8,30,-8
4176,-70,14,917,-9,-22,-4
4177,52,43,999,-18,-41,-8
4178,164,39,1013,-2,-10,-12
4179,119,44,992,-24,20,-1
4180,4,26,1010,-16,24,2
4181,-135,6,988,-12,13,-1
4182,-174,7,963,-22,0,-1
4183,-83,-5,995,-8,-13,-9
4184,60,6,1020,-12,-23,-11
4185,180,30,1014,-13,-20,-8
4186,145,37,1007,-9,8,-3
4187,10,40,991,-17,31,2
4188,-139,29,973,-14,27,2
4189,-192,16,973,-13,4,-2
4190,-102,0,982,-19,-20,-8
4191,60,-1,1005,-13,-27,-11
4192,184,16,1016,-14,-14,-9
4193,160,22,1017,-14,8,-4
4194,31,31,1011,-9,25,1
4195,-133,32,976,-11,27,3
4196,-195,24,981,-11,11,-2
4197,-132,10,982,-14,-16,-8
4198,49,17,998,-16,-29,-11
4199,180,16,1017,-14,-18,-11
4200,173,18,1014,-15,6,-4
4201,53,19,1016,-13,25,1
4202,-123,24,971,-9,28,2
4203,-196,17,971,-9,10,-2
4204,-146,15,983,-10,-10,-6
4205,26,29,1005,-16,-27,-10
4206,171,26,1015,-18,-24,-11
4207,183,18,1009,-17,0,-6
4208,70,22,1008,-13,23,-1
4209,-107,15,986,-12,31,3
4210,-195,6,971,-11,16,-1
4211,-163,12,972,-11,-9,-7
4212,11,27,1014,-12,-28,-12
4213,155,32,1025,-17,-26,-12
4214,194,25,1006,-15,-3,-5
4215,95,22,995,-15,21,0
4216,-89,17,997,-14,31,5
4217,-189,4,980,-10,16,-1
4218,-178,8,968,-12,-6,-5
4219,-9,25,1009,-11,-26,-10
4220,138,25,1030,-16,-27,-10
4221,193,28,1010,-19,-8,-7
4222,113,29,989,-12,20,-2
4223,-66,20,993,-13,35,3
4224,-187,4,984,-13,22,1
4225,-182,11,973,-10,-1,-4
4226,-27,13,1010,-18,-26,-9
4227,119,25,1021,-14,-29,-10
4228,199,29,1012,-18,-10,-7
4229,127,28,989,-15,17,-2
4230,-49,20,992,-12,32,4
4231,-178,9,981,-11,23,1
4232,-192,13,978,-14,-1,-3
4233,-51,11,1014,-16,-27,-8
4234,105,21,1018,-13,-29,-11
4235,203,29,1003,-13,-11,-8
4236,139,29,994,-14,15,-3
4237,-28,20,1004,-11,32,3
4238,-166,11,973,-10,27,2
4239,-196,15,975,-11,4,-2
4240,-73,9,1011,-12,-25,-9
4241,85,17,1018,-16,-31,-11
4242,202,32,1001,-14,-16,-8
4243,150,31,998,-16,14,-2
4244,-3,18,1004,-14,32,2
4245,-158,12,973,-12,27,1
4246,-198,14,972,-14,4,-2
4247,-97,8,1004,-14,-23,-8
4248,72,18,1016,-14,-32,-11
4249,195,31,1005,-17,-18,-9
4250,231,96,1002,-14,2,-6
4251,-58,15,672,12,18,37
4252,-172,-32,636,-50,0,6
4253,-222,-54,557,-2,-16,23
4254,44,59,544,83,-48,60
4255,-306,-38,698,107,8,179
4256,-201,87,664,-296,16,88
4257,-142,-21,258,164,60,66
4258,70,110,534,-56,-38,29
4259,-58,-60,591,-119,-41,-31
4260,-236,-138,546,-78,235,16
4261,-111,31,417,226,5,-26
4262,51,-76,400,-278,-301,19
4263,50,63,323,-14,-2,60
4264,-9,22,295,245,162,-27
4265,72,6,233,-423,-125,72
4266,-159,13,179,260,-242,155
4267,-190,-150,277,-119,-369,83
4268,-54,-161,-70,162,107,158
4269,-348,-90,-147,694,403,225
4270,3,-51,569,-390,-391,146
4271,22,107,328,494,-553,68
4272,-130,121,648,-27,-420,68
4273,186,62,-89,-233,-75,36
4274,35,-100,-213,515,-447,-44
4275,-353,86,-85,-534,-290,16
4276,-259,58,-7,29,225,-150
4277,-141,-143,457,-158,101,-95
4278,-222,157,261,-283,-220,-71
4279,-65,-121,211,141,-79,-131
4280,27,33,425,-169,282,-44
4281,52,182,152,43,25,73
4282,142,-278,167,-113,-1,-103
4283,-90,-158,372,129,-146,-44
4284,-29,71,483,-86,-321,42
4285,-167,96,214,86,-34,-47
4286,-70,16,364,-137,-441,-26
4287,-4,101,435,15,-656,33
4288,-57,27,543,91,-203,-1
4289,-133,-72,651,-226,154,1
4290,-135,-21,521,89,221,-1
4291,51,-64,536,-42,-228,-17
4292,167,-17,759,-11,-184,-7
4293,156,83,966,73,162,-2
4294,71,63,955,-119,165,-3
4295,-137,56,972,70,-69,1
4296,-223,59,885,-26,-117,3
4297,-118,-7,934,-66,29,-13
4298,34,-19,1010,27,79,-12
4299,204,-1,1004,-62,-40,-11
4300,186,-11,996,22,-62,-9
4301,13,27,962,2,27,6
4302,-135,45,891,-38,72,-1
4303,-198,35,827,22,23,-4
4304,-119,40,932,-28,-57,-6
4305,48,20,1008,-16,-41,-14
4306,184,18,1018,-16,10,-10
4307,167,9,996,-35,21,-3
4308,39,-5,1007,5,11,1
4309,-133,1,983,-11,11,4
4310,-193,23,963,-11,20,0
4311,-126,28,998,-1,2,-7
4312,46,40,1016,-20,-33,-10
4313,186,40,1013,-13,-33,-9
4314,168,27,1007,-18,8,-4
4315,38,5,1015,-22,36,2
4316,-128,-3,981,-7,29,3
4317,-195,3,973,-13,-1,-1
4318,-126,7,983,-8,-18,-9
4319,42,27,1008,-11,-20,-10
4320,180,42,1015,-17,-17,-10
4321,171,37,1014,-14,0,-5
4322,48,22,1008,-14,21,1
4323,-122,14,975,-14,31,3
4324,-193,-1,980,-11,17,-1
4325,-144,0,986,-14,-15,-6
4326,37,20,1005,-12,-32,-12
4327,174,32,1016,-11,-22,-10
4328,176,36,1007,-15,6,-4
4329,65,34,1013,-13,25,1
4330,-113,26,984,-15,30,3
4331,-193,8,971,-15,14,-1
4332,-158,-1,981,-13,-10,-7
4333,21,15,1011,-15,-29,-10
4334,164,19,1012,-14,-24,-11
4335,189,24,999,-13,-1,-6
4336,79,32,1006,-11,24,1
4337,-95,30,995,-12,32,3
4338,-196,15,980,-15,15,0
4339,-169,10,973,-12,-9,-6
4340,0,13,1015,-14,-28,-12
4341,147,16,1019,-16,-26,-11
4342,199,17,1000,-16,-1,-6
4343,105,27,991,-12,22,-1
4344,-76,28,999,-9,33,3
4345,-193,13,987,-12,19,-1
4346,-184,17,972,-12,-7,-4
4347,-16,22,1002,-14,-28,-10
4348,129,19,1020,-18,-28,-11
4349,207,23,1013,-16,-7,-7
4350,120,24,986,-14,21,-1
4351,-55,22,997,-11,33,3
4352,-189,9,986,-12,22,1
4353,-191,17,974,-10,-3,-4
4354,-39,19,1007,-15,-29,-10
4355,110,25,1014,-16,-30,-10
4356,209,26,1004,-15,-10,-8
4357,133,23,996,-14,18,-1
4358,-38,21,1000,-12,33,4
4359,-176,5,979,-11,24,0
4360,-195,16,977,-9,-1,-3
4361,-62,17,1006,-13,-24,-10
4362,96,27,1017,-13,-30,-10
4363,206,30,1001,-15,-12,-8
4364,145,28,998,-15,16,-1
4365,-12,13,1011,-15,32,4
4366,-169,8,977,-12,25,2
4367,-196,13,967,-10,1,-3
4368,-86,11,1008,-11,-23,-10
4369,77,21,1014,-15,-30,-10
4370,204,32,1007,-16,-15,-8
4371,158,30,999,-15,14,-2
4372,5,21,1003,-14,32,3
4373,-155,11,983,-12,26,1
4374,-201,13,976,-11,5,-3
4375,-106,9,994,-11,-21,-8
4376,68,19,1006,-14,-31,-11
4377,194,32,1014,-14,-17,-9
4378,192,131,982,-8,2,-2
4379,53,-50,640,52,-57,18
4380,-310,-6,766,100,-11,35
4381,-375,-49,648,-32,-57,20
4382,-164,-58,617,-94,-23,-73
4383,52,-60,570,-93,150,-252
4384,-3,19,803,-8,217,-164
4385,-13,97,767,-279,132,-72
4386,13,-67,463,188,-15,-62
4387,-3,-77,371,-117,-49,-9
4388,7,18,-9,-150,193,-13
4389,47,10,369,86,88,4
4390,178,-197,366,100,-143,3
4391,123,43,91,146,-219,-31
4392,150,-134,275,426,154,-7
4393,-19,-352,389,-160,62,3
4394,44,-21,501,-87,-489,-12
4395,-34,73,449,300,26,-12
4396,140,-235,-83,-298,-23,126
4397,-301,22,-357,579,-197,132
4398,-341,167,644,300,-396,72
4399,49,-44,321,-20,-390,71
4400,381,-163,13,188,28,149
4401,-17,50,164,-133,76,139
4402,-152,-365,277,189,42,48
4403,-163,-77,370,-65,-412,96
4404,-35,100,323,-124,-342,102
4405,-213,-82,90,161,626,-34
4406,10,-45,268,-348,158,64
4407,-35,197,47,35,-239,48
4408,79,-16,139,-4,-277,-4
4409,-169,-243,650,-96,-21,-8
4410,-5,60,336,174,110,-2
4411,-24,174,-107,-248,-289,1
4412,-221,-91,26,250,5,-47
4413,164,73,28,89,-525,36
4414,115,50,67,-227,-484,-35
4415,61,-113,170,78,-41,-20
4416,-59,54,245,31,-43,24
4417,-56,48,163,-89,-152,-15
4418,-52,34,16,219,-69,-17
4419,-67,69,294,-282,118,6
4420,84,32,347,76,80,-23
4421,172,-12,387,-7,-129,-6
4422,23,43,356,-148,-91,10
4423,-71,-10,504,154,99,-7
4424,-141,24,651,-166,113,1
4425,-109,23,584,17,-51,-4
4426,27,8,513,70,-113,-12
4427,125,37,524,-108,-20,-3
4428,128,49,520,86,92,-7
4429,48,9,613,-77,38,0
4430,-111,17,720,-12,-29,5
4431,-162,7,786,40,-17,-1
4432,-102,-7,875,-76,19,-9
4433,30,15,958,32,10,-10
4434,169,29,990,-20,-39,-10
4435,152,32,1005,-24,-20,-5
4436,24,34,1006,16,42,2
4437,-123,26,993,-44,43,-1
4438,-183,9,966,-4,0,-3
4439,-111,5,936,-9,-34,-7
4440,44,4,948,-30,-22,-11
4441,174,26,942,2,3,-10
4442,163,28,931,-24,11,-3
4443,40,28,995,-12,12,0
4444,-132,27,969,-1,21,2
4445,-190,18,982,-23,12,-2
4446,-132,6,981,-10,-8,-5
4447,48,18,997,-17,-33,-8
4448,178,19,1007,-17,-22,-9
4449,173,22,1014,-12,10,-4
4450,53,23,1021,-17,29,1
4451,-123,25,985,-9,26,1
4452,-195,11,966,-9,8,0
4453,-146,13,974,-13,-14,-6
4454,29,27,996,-17,-26,-10
4455,176,26,1007,-20,-19,-11
4456,180,21,1008,-18,1,-5
4457,69,22,1019,-11,22,0
4458,-111,19,995,-11,31,3
4459,-197,10,973,-10,13,-2
4460,-163,12,972,-9,-11,-7
4461,19,24,1012,-14,-30,-10
4462,163,26,1011,-17,-23,-11
4463,193,24,1003,-16,0,-6
4464,83,21,1007,-16,21,0
4465,-96,21,1002,-12,29,3
4466,-196,1,979,-13,14,-1
4467,-172,13,966,-9,-9,-5
4468,0,25,1004,-13,-25,-10
