sequence,AccelerometerX,AccelerometerY,AccelerometerZ,GyroscopeX,GyroscopeY,GyroscopeZ
0,-224,504,1338,296,312,-92
1,-55,498,1091,125,269,39
2,0,358,883,45,306,54
3,-25,437,876,-8,343,22
4,-17,328,890,-112,330,21
5,-224,133,953,-161,284,59
6,-215,-51,974,-141,199,42
7,-14,-180,998,-61,173,-47
8,26,-208,977,0,211,-91
9,36,-243,1004,-4,226,-64
10,90,-150,995,41,210,-26
11,46,-10,1006,49,217,0
12,-17,77,1032,36,232,11
13,-58,149,1056,26,231,16
14,-16,178,1009,2,237,12
15,22,117,997,-26,249,3
16,67,66,1008,-37,252,5
17,74,17,1006,-43,256,10
18,83,-17,1029,-30,269,-1
19,37,-15,1067,-18,293,-13
20,35,-33,1069,-13,312,-12
21,53,-45,1023,-6,330,-4
22,70,-35,1010,0,346,-1
23,88,-4,1031,8,360,-3
24,78,35,1053,11,375,-5
25,55,74,1039,6,393,-7
26,4,89,1027,-5,413,-7
27,-50,56,1014,-17,420,-3
28,-75,34,989,-21,419,-4
29,-54,0,972,-21,414,-10
30,-36,-7,971,-14,409,-11
31,-29,-8,968,-12,403,-9
32,-44,8,974,-8,397,-6
33,-89,37,974,-6,390,-4
34,-129,36,982,-9,381,-1
35,-150,26,971,-11,366,1
36,-123,16,954,-12,353,1
37,-89,7,938,-12,336,1
38,-92,13,945,-12,322,5
39,-107,28,946,-12,308,6
40,-162,38,951,-14,290,9
41,-195,32,947,-15,269,9
42,-232,21,941,-18,246,7
43,-202,7,931,-21,214,8
44,-173,3,912,-16,186,9
45,-154,4,914,-13,161,10
46,-168,26,916,-15,137,13
47,-215,38,929,-18,111,18
48,-263,30,925,-22,81,21
49,-293,15,914,-25,47,22
50,-256,-12,898,-22,7,22
51,-226,-11,892,-14,-32,30
52,-203,2,889,-12,-68,44
53,-233,40,901,-17,-101,56
54,-273,25,893,-25,-138,61
55,-306,19,901,-27,-180,66
56,-331,0,884,-28,-225,66
57,-304,-11,887,-22,-270,71
58,-296,-18,887,-19,-315,81
59,-278,-5,875,-16,-358,90
60,-269,18,850,-17,-404,94
61,-308,17,866,-20,-452,98
62,-347,23,874,-23,-505,100
63,-355,8,873,-26,-560,102
64,-320,14,879,-22,-612,109
65,-283,24,897,-23,-658,116
66,-224,26,901,-31,-697,122
67,-186,52,902,-33,-733,131
68,-153,21,913,-45,-753,132
69,-120,21,976,-43,-773,129
70,-65,27,1015,-36,-795,112
71,56,42,1040,-30,-791,102
72,139,78,1093,-31,-768,96
73,252,102,1109,-46,-729,88
74,331,116,1129,-54,-675,70
75,383,98,1161,-58,-614,41
76,409,89,1202,-55,-542,7
77,437,58,1244,-48,-452,-26
78,463,66,1285,-29,-346,-54
79,477,73,1293,-29,-230,-74
80,481,62,1253,-42,-122,-77
81,433,56,1180,-55,-31,-66
82,338,16,1103,-67,33,-61
83,234,-24,1030,-70,68,-63
84,144,-64,988,-63,82,-69
85,93,-107,975,-44,84,-73
86,34,-129,961,-21,90,-70
87,1,-145,941,8,98,-72
88,-37,-154,924,40,95,-73
89,-77,-152,903,71,85,-65
90,-138,-133,903,99,65,-52
91,-258,18,1006,118,29,-36
92,-243,154,1001,96,-27,-5
93,-155,268,933,62,-65,11
94,-83,324,921,20,-81,-7
95,-38,306,951,-43,-88,-18
96,-71,171,1008,-97,-96,-13
97,-138,19,1016,-116,-116,-4
98,-110,-101,974,-98,-146,3
99,-76,-58,979,-66,-176,4
100,2,-11,951,-62,-185,-4
101,68,29,977,-65,-187,-9
102,75,47,1002,-64,-180,-16
103,58,51,1032,-72,-168,-22
104,30,39,1054,-79,-160,-28
105,-11,40,1068,-81,-152,-29
106,-5,65,1043,-87,-147,-28
107,1,78,1026,-95,-144,-23
108,33,127,1005,-113,-141,-19
109,44,123,995,-140,-135,-18
110,32,94,990,-162,-132,-15
111,-22,58,1003,-178,-132,-6
112,-74,10,1046,-183,-136,5
113,-112,4,1044,-186,-144,6
114,-60,4,1006,-189,-155,6
115,-1,33,970,-191,-160,14
116,29,47,954,-198,-160,22
117,33,44,951,-213,-156,27
118,-10,1,989,-218,-149,28
119,-78,-44,1049,-210,-147,26
120,-91,-49,1062,-190,-150,16
121,-32,-20,1008,-176,-151,7
122,37,33,969,-171,-149,8
123,162,-14,1058,-177,-139,10
124,320,-123,1217,-163,-89,9
125,181,-46,1059,-137,-12,-9
126,64,-30,900,-133,17,-24
127,27,-16,887,-131,13,-17
128,56,-75,1014,-131,19,-20
129,-5,-124,1054,-104,33,-38
130,-57,-78,968,-67,31,-52
131,-23,-2,888,-43,22,-71
132,-43,-9,924,-42,24,-76
133,-92,-98,1015,-38,19,-77
134,-116,-117,1051,-18,4,-76
135,-32,-41,973,3,-8,-78
136,21,17,918,6,-7,-82
137,71,4,969,3,1,-84
138,100,-29,1045,6,7,-81
139,91,-13,1042,9,17,-82
140,36,0,994,13,32,-90
141,-33,18,984,24,40,-103
142,-37,8,1014,29,40,-121
143,3,9,1026,39,38,-136
144,54,14,1011,40,49,-143
145,81,9,998,39,63,-144
146,48,-17,997,39,74,-145
147,23,-55,1011,51,78,-150
148,7,-72,1016,69,84,-156
149,39,-62,1017,85,95,-164
150,78,-66,997,102,111,-175
151,119,-71,981,123,132,-186
152,129,-79,979,144,151,-197
153,115,-116,1008,166,172,-204
154,85,-156,1035,191,191,-207
155,62,-162,1036,221,216,-207
156,96,-150,1019,248,237,-208
157,123,-134,999,275,260,-208
158,162,-123,975,305,286,-207
159,163,-122,984,332,311,-213
160,138,-136,1014,364,336,-229
161,114,-182,1038,399,369,-249
162,-256,256,1350,424,376,-250
163,-30,837,1381,269,270,-101
164,310,787,1091,-22,304,74
165,4,402,951,-189,438,147
166,-310,97,966,-196,402,117
167,141,-107,881,-97,310,-48
168,194,-129,959,1,361,-176
169,7,-74,1107,31,392,-191
170,161,-52,1103,25,365,-127
171,182,1,1043,-8,405,-62
172,112,-48,1043,-26,453,-42
173,128,-41,1059,3,467,-47
174,164,64,1057,21,486,-60
175,97,86,1015,5,519,-63
176,27,56,1081,-12,536,-48
177,22,82,1075,-16,545,-36
178,86,49,1044,-31,569,-38
179,124,-2,1028,-43,600,-49
180,107,-44,1061,-32,626,-53
181,124,-23,1048,-14,647,-54
182,84,-8,1045,-9,672,-55
183,31,15,1039,-7,695,-48
184,6,20,1052,-12,709,-44
185,27,26,1023,-17,724,-49
186,50,23,1010,-22,743,-61
187,2,6,1003,-17,761,-64
188,-23,25,988,-11,755,-56
189,-50,61,957,-11,754,-52
190,-142,36,978,-21,752,-46
191,-174,42,967,-23,732,-41
192,-158,31,943,-21,713,-51
193,-126,36,925,-25,700,-62
194,-157,18,914,-26,684,-63
195,-182,18,913,-20,654,-48
196,-229,57,905,-22,619,-36
197,-267,31,919,-31,588,-27
198,-316,9,913,-35,552,-18
199,-293,5,897,-33,509,-16
200,-243,9,871,-29,471,-17
201,-243,13,874,-31,437,-14
202,-270,9,870,-30,396,-9
203,-313,6,891,-33,349,1
204,-349,-2,909,-32,305,11
205,-366,-9,895,-34,260,19
206,-343,-7,863,-31,212,21
207,-297,16,847,-25,164,24
208,-282,17,838,-27,118,23
209,-305,14,849,-25,72,26
210,-370,2,861,-22,23,25
211,-428,-14,885,-14,-32,25
212,-448,-16,862,-7,-86,24
213,-405,-9,818,-3,-146,25
214,-364,12,802,2,-210,28
215,-367,15,822,0,-265,33
216,-398,11,866,-2,-322,36
217,-415,24,880,-6,-381,43
218,-406,12,892,-13,-437,56
219,-391,-2,881,-22,-492,72
220,-327,-18,859,-28,-547,88
221,-252,-26,858,-26,-598,96
222,-205,-28,870,-21,-642,98
223,-178,-20,904,-17,-675,100
224,-190,-11,945,-12,-700,102
225,-193,-4,977,-9,-719,107
226,-168,0,987,-9,-732,115
227,-95,19,977,-14,-741,122
228,-34,30,955,-18,-746,130
229,0,26,962,-25,-751,138
230,28,24,965,-30,-755,140
231,3,-6,993,-32,-755,147
232,-31,-22,1021,-30,-757,156
233,-51,-25,1035,-20,-751,156
234,-1,-1,1012,-14,-743,160
235,29,-6,980,-20,-732,167
236,54,-2,968,-14,-722,174
237,30,24,984,-5,-720,157
238,-22,39,1018,4,-712,135
239,-87,72,1032,18,-708,113
240,-119,113,1024,9,-706,91
241,-99,138,979,-4,-709,79
242,-86,125,949,-22,-717,69
243,-74,92,925,-34,-737,60
244,-77,68,932,-41,-757,59
245,-119,20,961,-50,-774,62
246,-179,-5,990,-51,-789,65
247,-202,0,981,-49,-806,66
248,-157,39,953,-54,-825,71
249,-112,64,936,-65,-848,75
250,-69,86,919,-76,-872,80
251,-44,88,933,-91,-896,86
252,-56,74,965,-109,-919,98
253,1123,-861,1723,-96,-873,96
254,1402,-153,1768,174,-335,4
255,230,308,727,232,112,-120
256,235,384,326,123,196,-24
257,-3,619,586,-68,279,173
258,108,405,526,-313,329,251
259,-1681,-1128,1232,-349,71,237
260,665,-609,1495,127,-563,60
261,668,-87,1334,176,-355,135
262,-9,256,644,176,-201,47
263,179,369,677,37,-176,127
264,771,9,1434,15,-129,65
265,285,380,1105,66,-25,63
266,270,372,696,-100,-2,90
267,288,-195,962,-126,15,5
268,194,97,905,-42,72,-4
269,384,-114,1109,-63,113,-73
270,168,-202,976,-21,160,-74
271,22,25,788,-6,161,-24
272,366,-179,1074,-2,158,-59
273,35,-61,954,31,231,-37
274,-407,-329,1084,66,208,-46
275,-508,-113,1194,144,84,-2
276,-501,241,899,110,-1,49
277,-219,467,903,59,-41,32
278,87,527,1202,-16,-53,15
279,133,363,1066,-98,-44,7
280,109,132,992,-149,-43,14
281,58,-172,996,-154,-20,14
282,-54,-321,1000,-116,-6,21
283,-6,-311,927,-58,-25,18
284,31,-234,883,0,-20,15
285,104,-135,916,50,-2,-2
286,163,-28,1033,69,20,-13
287,120,58,1048,68,49,-22
288,0,156,1013,59,59,-17
289,-114,168,1016,31,54,-15
290,-212,145,1037,12,35,-13
291,-182,138,1003,-13,3,-10
292,-68,129,1005,-35,-23,-9
293,27,89,995,-53,-28,-14
294,86,0,1011,-66,-21,-19
295,70,-58,984,-55,-7,-24
296,23,-128,988,-32,14,-27
297,-12,-130,966,-6,18,-39
298,-7,-97,968,15,12,-38
299,56,-13,1000,28,7,-29
300,93,50,1016,25,16,-25
301,84,79,1003,17,28,-31
302,-18,71,1013,8,37,-27
303,-111,84,1034,-1,27,-18
304,-125,76,988,-11,11,-14
305,-48,63,976,-24,-3,-15
306,44,33,1014,-30,-5,-25
307,91,-5,1021,-28,9,-40
308,79,-44,992,-21,28,-46
309,21,-54,982,-10,33,-36
310,-6,-27,1030,1,28,-18
311,12,3,1046,6,30,-11
312,59,41,1049,3,45,-18
313,137,62,1043,-4,60,-28
314,186,59,1059,-13,86,-39
315,212,33,1076,-17,117,-48
316,190,26,1089,-14,153,-46
317,175,24,1097,-10,188,-43
318,142,14,1092,-14,224,-47
319,168,6,1089,-10,258,-60
320,187,6,1073,-7,294,-80
321,212,1,1071,-2,330,-97
322,217,5,1088,0,370,-99
323,194,15,1093,-1,406,-82
324,160,17,1086,-3,442,-63
325,121,7,1087,-5,477,-57
326,148,11,1083,-4,508,-65
327,177,-6,1078,-3,544,-81
328,201,-10,1061,1,580,-92
329,199,4,1062,2,614,-90
330,166,32,1064,7,643,-79
331,116,37,1069,2,671,-68
332,80,42,1059,-2,697,-63
333,80,46,1056,-9,717,-65
334,108,29,1048,-13,738,-77
335,125,-1,1039,-17,765,-90
336,121,11,1022,-9,786,-91
337,80,16,1027,-4,805,-84
338,33,30,1032,-2,819,-80
339,-21,33,1013,-7,832,-75
340,-12,30,1009,-9,836,-80
341,-11,20,997,-12,844,-92
342,19,4,990,-12,849,-102
343,7,26,979,-5,854,-107
344,-68,42,987,-2,851,-104
345,-94,67,953,-3,840,-108
346,-142,34,944,-16,832,-114
347,-178,27,949,-10,813,-111
348,-189,23,941,-16,787,-112
349,-156,20,902,-15,762,-119
350,-151,20,889,-16,737,-128
351,-191,6,899,-17,708,-124
352,-266,22,913,-10,677,-111
353,-314,30,920,-13,638,-100
354,-321,18,903,-13,596,-96
355,-302,4,871,-15,554,-97
356,-256,5,853,-17,509,-96
357,-254,7,858,-19,468,-92
358,-286,4,871,-21,423,-79
359,-334,8,886,-22,378,-64
360,-388,3,902,-19,334,-50
361,-401,1,890,-16,284,-40
362,-373,-10,860,-15,234,-36
363,-315,2,832,-14,184,-32
364,-294,-1,824,-20,133,-23
365,-310,-8,835,-22,81,-10
366,-369,0,871,-20,33,7
367,-429,-8,920,-15,-14,22
368,-439,-1,908,-10,-63,32
369,-377,-14,863,-8,-109,35
370,-293,-5,829,-6,-159,47
371,-265,14,842,-11,-205,62
372,-282,9,878,-18,-247,72
373,-337,21,926,-16,-286,82
374,-359,22,950,-17,-325,84
375,-336,5,918,-16,-362,80
376,-264,-3,881,-11,-395,78
377,-207,7,876,-10,-430,82
378,-189,11,899,-10,-462,87
379,-185,27,920,-10,-493,89
380,-210,38,943,-15,-520,88
381,-234,33,964,-14,-545,86
382,-231,23,954,-16,-570,86
383,-176,8,938,-18,-593,88
384,-127,12,925,-15,-611,90
385,-106,6,939,-21,-626,93
386,-100,16,951,-18,-639,96
387,-121,23,968,-19,-653,98
388,-148,9,970,-19,-664,97
389,-159,-2,977,-17,-679,97
390,-111,-3,951,-16,-694,98
391,-70,-6,927,-14,-705,103
392,-64,-10,943,-13,-722,114
393,-77,11,959,-12,-733,116
394,-111,23,983,-12,-740,117
395,-145,31,979,-7,-750,117
396,-153,8,958,-16,-758,121
397,-112,13,947,-16,-775,130
398,-76,9,944,-15,-796,128
399,-63,14,936,-15,-812,133
400,-82,38,954,-19,-828,136
401,-113,48,945,-22,-846,136
402,-140,31,942,-31,-865,140
403,-156,23,930,-30,-888,143
404,-136,4,934,-32,-915,149
405,-94,-14,906,-30,-941,156
406,-66,-20,913,-30,-964,166
407,-58,-12,925,-25,-980,174
408,-101,-12,964,-23,-994,183
409,-124,-21,965,-22,-1010,187
410,-136,-4,945,-16,-1027,196
411,459,145,1252,-23,-1036,199
412,1771,224,1881,-20,-624,89
413,-5,269,638,30,-87,80
414,-184,-199,102,76,-179,65
415,-366,225,352,79,-266,15
416,597,371,1023,-122,-274,100
417,610,-196,1604,-204,-173,53
418,221,191,1110,-60,-62,55
419,-106,-117,710,-97,-92,18
420,30,-286,1003,-49,-143,3
421,156,-81,915,5,-148,38
422,382,-243,1258,21,-128,-7
423,-62,39,730,55,-110,23
424,186,72,1025,31,-107,45
425,238,119,1026,30,-52,-10
426,-15,103,960,-5,-15,55
427,89,178,876,-16,-14,40
428,145,47,1140,-33,2,9
429,64,89,875,-31,8,11
430,133,-43,1081,-48,14,8
431,10,-65,911,-26,43,5
432,-73,-82,1012,-21,43,13
433,14,-69,1018,-1,32,-10
434,-80,-64,1034,10,23,7
435,-37,63,958,28,2,0
436,-34,56,1053,9,-6,4
437,-60,122,955,6,-5,1
438,-79,102,1040,-15,-11,3
439,-94,63,1025,-22,-23,-2
440,-154,15,1044,-31,-49,7
441,-103,-9,1017,-24,-83,5
442,-144,-37,1010,-17,-108,13
443,-103,-13,989,-6,-131,15
444,-107,2,1025,-4,-147,19
445,-116,22,1024,-1,-164,24
446,-140,43,1047,-2,-192,28
447,-139,29,1035,-4,-224,33
448,-151,55,1024,-5,-258,37
449,-122,48,1011,-12,-288,42
450,-94,53,1003,-14,-308,45
451,-83,47,1000,-22,-321,52
452,-75,31,1032,-24,-335,53
453,-86,-4,1036,-28,-349,64
454,-94,-27,1006,-26,-365,78
455,-97,-34,1001,-15,-383,88
456,-71,1,995,-10,-401,94
457,-17,26,1005,-8,-415,99
458,0,51,987,-11,-418,102
459,0,56,1007,-16,-416,109
460,-20,44,1006,-26,-417,111
461,-8,30,1010,-30,-426,110
462,12,26,1002,-25,-441,104
463,39,15,992,-26,-450,101
464,77,35,976,-25,-453,93
465,111,36,976,-31,-444,87
466,125,18,973,-37,-422,87
467,110,-4,987,-36,-397,88
468,117,-21,988,-34,-379,90
469,138,-28,983,-26,-367,86
470,177,-30,966,-19,-352,80
471,225,-16,954,-9,-329,76
472,247,3,944,-10,-294,74
473,264,11,958,-18,-248,71
474,249,-8,955,-30,-203,74
475,252,-20,970,-32,-159,77
476,239,-40,963,-31,-122,70
477,263,-36,953,-22,-88,57
478,298,-8,934,-13,-48,39
479,311,9,943,-9,0,23
480,307,24,939,-14,50,12
481,280,22,950,-21,107,3
482,276,17,953,-20,159,-7
483,255,-1,970,-21,205,-19
484,272,1,949,-20,240,-29
485,289,10,935,-19,281,-41
486,307,12,936,-18,328,-54
487,296,22,949,-18,381,-67
488,271,15,954,-17,434,-78
489,244,0,968,-21,481,-84
490,223,-23,957,-22,521,-89
491,239,-33,942,-19,560,-95
492,260,-21,935,-14,600,-104
493,284,-6,941,-8,647,-112
494,286,5,929,-9,700,-120
495,279,3,938,-6,763,-127
496,249,-5,953,-5,817,-136
497,231,0,942,-6,867,-147
498,255,8,929,-5,914,-158
499,272,19,924,-4,966,-171
500,294,30,926,-5,1021,-184
501,293,37,922,-8,1085,-200
502,277,25,928,-10,1154,-217
503,-1449,-1054,1701,66,1060,-227
504,-994,470,1516,411,203,-93
505,289,-228,765,264,150,-207
506,351,58,349,368,267,-180
507,371,388,610,239,440,-17
508,598,170,629,90,557,-74
509,-424,655,1272,-18,649,91
510,-332,970,1322,-281,504,309
511,-225,246,1378,-398,446,332
512,79,378,708,-335,520,275
513,-413,-143,1086,-382,578,102
514,-37,-640,1025,-192,403,-99
515,217,-159,839,-35,386,-152
516,449,-424,822,-21,452,-160
517,-121,-441,979,70,514,-109
518,-8,-157,1092,116,474,-85
519,86,-216,1169,135,456,-67
520,81,358,1047,139,504,5
521,10,293,998,31,541,-5
522,10,265,1110,-7,534,28
523,-55,338,983,-42,543,25
524,5,104,993,-91,554,-12
525,-58,8,984,-78,548,-45
526,29,-24,998,-60,535,-58
527,97,-144,953,-42,543,-91
528,17,-76,1031,-3,560,-83
529,-13,-48,975,2,565,-78
530,-44,-46,1048,8,567,-58
531,-102,41,963,13,569,-45
532,-94,25,1003,-4,567,-38
533,-62,28,961,-4,554,-37
534,-51,57,990,-6,551,-34
535,-18,62,946,-16,547,-44
536,-97,44,1000,-20,541,-38
537,-120,61,955,-22,528,-36
538,-166,14,979,-32,518,-38
539,-167,5,942,-27,500,-40
540,-174,-15,949,-25,480,-41
541,-109,-10,913,-18,455,-44
542,-129,1,932,-13,441,-43
543,-150,20,934,-13,421,-36
544,-211,23,949,-18,399,-29
545,-231,26,937,-20,371,-26
546,-242,1,942,-23,343,-23
547,-217,-8,917,-21,317,-17
548,-185,4,903,-21,287,-11
549,-174,5,895,-19,258,-7
550,-219,12,909,-21,229,-1
551,-266,19,912,-22,198,2
552,-313,8,921,-19,163,3
553,-334,2,911,-14,122,3
554,-307,-5,877,-14,82,2
555,-268,9,864,-11,39,6
556,-264,15,847,-14,-3,11
557,-295,11,857,-14,-46,17
558,-365,16,870,-12,-96,20
559,-407,4,881,-11,-151,21
560,-411,-5,860,-7,-211,20
561,-389,-5,839,-1,-267,18
562,-363,0,827,4,-321,17
563,-363,11,834,4,-378,25
564,-367,26,829,-2,-439,35
565,-410,36,842,-8,-499,47
566,-449,18,851,-14,-566,57
567,-456,13,844,-18,-635,63
568,-411,0,822,-18,-705,65
569,-362,8,804,-17,-774,72
570,-311,11,794,-21,-841,82
571,-306,23,827,-28,-903,96
572,-344,21,863,-33,-959,104
573,-360,2,885,-31,-1015,112
574,-347,-22,878,-41,-1061,123
575,-262,-34,864,-38,-1106,144
576,-203,-30,833,-45,-1166,163
577,-156,-35,832,-47,-1226,187
578,-157,-25,870,-49,-1271,214
579,-195,-11,913,-47,-1309,221
580,-223,7,938,-42,-1336,217
581,-234,45,944,-37,-1358,210
582,-175,103,939,-41,-1383,199
583,-122,143,928,-58,-1411,196
584,242,3,1141,-88,-1426,203
585,1806,-360,1917,-10,-1015,130
586,-371,288,670,187,-323,11
587,-365,-258,204,285,-488,-79
588,-791,295,245,338,-636,-113
589,35,363,832,105,-706,52
590,154,334,1155,-107,-732,126
591,178,549,1433,-242,-669,314
592,-24,483,723,-317,-624,289
593,49,-172,1298,-349,-641,255
594,-31,-155,754,-225,-668,197
595,266,-560,1395,-118,-700,85
596,66,-418,697,28,-728,42
597,-91,-371,928,31,-767,194
598,309,-163,920,99,-804,131
599,187,-82,1212,102,-749,136
600,251,212,747,107,-695,165
601,119,205,1097,61,-637,173
602,139,334,821,19,-591,190
603,93,272,1069,-49,-572,189
604,214,138,959,-86,-571,169
605,75,81,1024,-101,-569,162
606,295,-44,967,-88,-577,116
607,176,-158,1015,-68,-561,91
608,217,-127,866,-34,-537,92
609,193,-160,977,-16,-498,69
610,191,-106,945,12,-457,73
611,169,3,991,31,-430,60
612,272,16,1009,22,-406,68
613,143,111,911,21,-365,69
614,214,131,952,-5,-337,65
615,178,135,939,-27,-303,49
616,206,100,1010,-49,-276,52
617,155,47,994,-52,-255,35
618,135,-47,1025,-54,-246,29
619,131,-48,944,-39,-245,21
620,168,-104,986,-30,-230,21
621,162,-49,922,-6,-203,15
622,177,-26,978,-2,-175,18
623,192,15,975,6,-150,6
624,160,26,1012,2,-129,13
625,160,44,970,0,-116,4
626,160,40,989,-9,-102,5
627,181,55,939,-13,-84,-2
628,204,35,966,-24,-58,-3
629,219,38,940,-28,-25,-9
630,209,4,996,-32,10,-12
631,197,-21,978,-27,36,-20
632,179,-48,989,-20,59,-23
633,188,-36,963,-8,74,-30
634,187,-30,967,-6,94,-34
635,219,8,947,-1,120,-39
636,211,38,953,-5,154,-42
637,216,46,971,-11,188,-47
638,175,41,993,-16,217,-53
639,177,28,987,-19,238,-58
640,166,16,975,-21,255,-64
641,180,0,957,-20,271,-69
642,200,7,954,-19,296,-75
643,209,5,949,-17,326,-79
644,206,8,971,-15,363,-83
645,183,-4,982,-13,398,-85
646,171,-5,988,-7,421,-87
647,155,0,972,-5,438,-91
648,171,15,958,-3,448,-106
649,219,35,968,-4,461,-121
650,226,39,959,-11,486,-133
651,216,30,963,-17,522,-139
652,183,18,948,-24,562,-139
653,178,-3,968,-24,598,-138
654,161,-12,976,-17,631,-138
655,163,-17,950,-25,664,-142
656,187,-40,910,-21,702,-151
657,213,-28,934,-6,744,-156
658,207,1,961,1,786,-161
659,185,10,968,5,826,-174
660,175,29,971,4,855,-186
661,157,23,962,2,883,-197
662,179,30,950,1,909,-205
663,199,29,946,-5,939,-207
664,209,19,941,-7,981,-214
665,202,6,936,-10,1026,-224
666,185,-10,939,-5,1070,-238
667,172,-24,964,0,1108,-249
668,61,-101,998,6,1142,-262
669,-1717,-1088,1853,124,918,-237
670,-846,671,1262,434,101,-112
671,134,-372,591,257,83,-279
672,136,216,228,372,94,-174
673,306,382,640,204,186,-17
674,354,142,634,32,247,-62
675,-151,548,1014,-63,335,106
676,-296,986,1489,-247,312,191
677,-494,567,1616,-379,266,211
678,20,512,774,-380,297,188
679,-267,-355,1064,-419,348,28
680,-93,-521,985,-236,220,-63
681,122,-247,960,-154,186,-29
682,308,-431,889,-156,223,-6
683,-121,-348,935,-76,290,51
684,130,-367,953,-22,284,18
685,131,-430,1028,79,299,-5
686,180,-60,886,167,354,-6
687,69,-317,949,173,403,-69
688,-162,24,1225,273,391,-77
689,-84,449,1179,224,345,-47
690,70,498,1058,94,347,37
691,-50,495,955,9,388,51
692,-9,469,947,-97,410,56
693,-145,109,990,-170,386,41
694,-113,-20,1003,-138,329,20
695,25,-210,931,-108,317,-48
696,34,-276,1029,-37,338,-76
697,48,-181,957,6,351,-70
698,107,-198,1015,22,357,-37
699,70,-43,998,51,366,-1
700,5,61,1047,37,385,17
701,-31,89,1052,29,396,17
702,-77,179,1065,20,404,18
703,15,155,971,-9,405,5
704,12,109,1010,-27,409,3
705,41,74,983,-39,409,-7
706,35,20,1014,-45,417,-15
707,8,-10,1013,-35,424,-27
708,-57,-26,1024,-25,434,-35
709,-60,-45,982,-15,434,-36
710,-79,-29,988,-6,431,-30
711,-56,-14,960,0,424,-29
712,-60,0,968,3,417,-27
713,-74,57,957,5,407,-27
714,-134,69,962,-4,401,-29
715,-193,70,962,-11,383,-30
716,-264,56,930,-22,359,-28
717,-251,31,894,-24,321,-29
718,-269,-4,874,-27,280,-31
719,-252,1,861,-18,236,-33
720,-270,6,856,-14,189,-36
721,-316,12,869,-9,142,-35
722,-372,21,852,-6,90,-37
723,-395,12,857,-6,30,-35
724,-398,13,844,-7,-32,-31
725,-376,-1,836,-8,-94,-23
726,-336,4,828,-10,-153,-12
727,-326,9,853,-14,-210,1
728,-349,-8,855,-20,-268,20
729,-388,-4,866,-23,-329,44
730,-410,-21,853,-27,-389,59
731,-401,-23,860,-24,-451,69
732,-367,-27,837,-23,-511,76
733,-308,0,837,-20,-571,89
734,-281,14,832,-24,-629,101
735,-289,19,855,-31,-683,117
736,-314,24,856,-39,-741,131
737,-333,4,876,-45,-796,145
738,-324,-6,866,-44,-853,157
739,-277,-10,858,-43,-907,166
740,-213,18,861,-44,-956,176
741,-194,38,890,-51,-997,183
742,-187,46,908,-58,-1032,185
743,-201,29,934,-68,-1055,192
744,-211,42,964,-75,-1082,200
745,-198,64,957,-80,-1117,193
746,-136,101,939,-90,-1147,191
747,-89,136,944,-109,-1172,195
748,76,28,1060,-131,-1193,197
749,1727,-1194,1897,-20,-988,152
750,204,265,1218,331,-353,34
751,-373,-162,396,344,-395,-131
752,-358,333,344,414,-557,-142
753,166,634,1189,184,-581,70
754,162,394,920,-79,-584,143
755,-25,448,1246,-143,-548,192
756,113,542,733,-192,-531,161
757,-34,219,1126,-289,-536,153
758,50,213,718,-322,-569,201
759,382,-485,1554,-301,-548,133
760,216,-359,986,-92,-488,32
761,-97,-308,872,-86,-502,87
762,157,-329,736,-74,-581,121
763,36,-485,950,-26,-581,171
764,184,-289,862,95,-566,139
765,97,-114,1105,134,-505,106
766,106,146,941,147,-457,95
767,176,311,1138,111,-434,82
768,208,339,1008,56,-398,119
769,-16,344,907,4,-362,127
770,104,326,875,-61,-362,108
771,127,175,984,-120,-357,82
772,282,9,1077,-131,-332,63
773,158,-156,1030,-116,-299,52
774,107,-270,964,-82,-296,52
775,69,-255,913,-37,-296,39
776,144,-265,954,6,-282,40
777,130,-93,922,49,-259,32
778,187,23,992,60,-232,29
779,182,132,987,55,-201,13
780,144,193,1007,25,-172,21
781,137,217,985,0,-152,10
782,106,136,1013,-39,-134,13
783,98,98,950,-55,-123,6
784,147,5,995,-68,-112,1
785,167,-58,959,-63,-91,-5
786,140,-120,992,-51,-68,-4
787,116,-120,957,-24,-50,-10
788,99,-115,996,-5,-42,-10
789,111,-64,979,19,-34,-18
790,130,-1,998,28,-26,-18
791,165,80,962,28,-10,-22
792,179,105,968,11,17,-26
793,199,126,951,-7,53,-33
794,190,94,978,-30,89,-40
795,202,37,992,-39,118,-48
796,184,-25,988,-44,143,-55
797,212,-53,952,-34,165,-62
798,216,-61,944,-26,193,-68
799,244,-54,936,-16,231,-76
800,251,-31,937,-7,277,-87
801,257,-10,952,0,326,-97
802,236,9,968,2,372,-110
803,241,16,965,3,415,-125
804,250,43,942,1,455,-137
805,274,59,934,-5,498,-147
806,298,58,939,-11,549,-158
807,295,45,938,-20,606,-168
808,278,15,943,-20,670,-187
809,247,-22,942,-20,726,-207
810,232,-41,935,-11,772,-224
811,253,-43,952,-3,810,-233
812,262,-34,942,4,847,-234
813,273,-19,935,6,887,-233
814,264,0,930,6,936,-240
815,232,5,950,5,988,-252
816,183,15,939,8,1041,-268
817,180,14,950,7,1082,-284
818,167,15,949,6,1118,-293
819,-1489,-1096,1744,74,997,-276
820,-1071,571,1512,456,185,-122
821,137,-244,683,290,124,-290
822,175,37,335,403,198,-311
823,244,233,640,277,305,-119
824,430,140,691,129,383,-111
825,-323,402,1115,23,456,31
826,-198,805,1276,-162,382,219
827,-305,310,1465,-270,335,251
828,51,419,777,-227,377,247
829,99,359,897,-311,467,131
830,28,-11,926,-368,487,95
831,-689,-356,1083,-343,379,158
832,175,-482,1097,-179,175,34
833,392,-421,939,-42,266,-105
834,296,-252,840,10,426,-97
835,9,-596,1079,90,473,-156
836,95,-98,1193,218,414,-107
837,178,232,1023,157,420,-26
838,81,226,1115,70,472,16
839,-102,364,1080,30,509,45
840,44,276,1100,-25,513,44
841,80,219,939,-49,528,21
842,39,151,935,-81,545,14
843,-10,-52,970,-96,524,-13
844,-47,-96,1034,-50,503,-20
845,22,-102,964,-23,509,-53
846,-9,-146,1041,5,525,-72
847,11,-29,976,26,525,-57
848,26,1,1013,15,528,-35
849,-11,64,980,15,535,-18
850,-90,109,1021,1,540,-9
851,-82,90,993,-17,533,-13
852,-110,65,1006,-22,530,-11
853,-54,31,937,-31,521,-19
854,-45,-3,964,-30,514,-22
855,-52,15,956,-23,500,-23
856,-99,4,981,-16,494,-30
857,-153,24,956,-12,482,-36
858,-219,30,958,-12,464,-39
859,-216,21,912,-12,436,-43
860,-240,1,901,-11,405,-50
861,-201,30,869,-5,364,-60
862,-224,23,871,-1,324,-77
863,-253,48,871,6,282,-88
864,-330,69,873,4,237,-96
865,-373,59,876,-2,183,-99
866,-414,41,853,-5,127,-97
867,-397,9,835,-11,70,-90
868,-371,-3,821,-11,9,-80
869,-363,-14,824,-13,-48,-61
870,-389,-17,825,-19,-109,-41
871,-432,-21,846,-23,-172,-13
872,-464,-39,845,-28,-242,15
873,-468,-50,847,-27,-314,37
874,-431,-54,825,-21,-381,46
875,-390,-39,832,-15,-443,53
876,-344,-18,821,-11,-506,64
877,-330,23,835,-9,-567,84
878,-349,63,843,-22,-628,103
879,-368,48,870,-38,-684,119
880,-371,22,877,-46,-742,127
881,-317,-3,872,-49,-797,133
882,-236,-16,841,-46,-850,140
883,-196,-31,843,-46,-896,151
884,-180,-29,864,-45,-939,165
885,-217,-30,903,-40,-979,176
886,-238,-32,924,-29,-1014,181
887,-260,-13,932,-23,-1039,179
888,-173,-17,923,-19,-1062,181
889,-118,32,903,-18,-1086,180
890,-66,46,907,-19,-1122,173
891,-65,71,923,-26,-1141,176
892,-90,77,957,-38,-1163,176
893,-137,83,972,-48,-1183,173
894,-166,100,997,-57,-1201,171
895,1275,-70,1705,-75,-1111,144
896,833,261,1452,52,-450,31
897,-559,-90,437,113,-335,5
898,-351,145,257,251,-505,-127
899,-348,189,764,123,-544,-34
900,88,211,505,-60,-613,52
901,-32,184,1361,-196,-624,205
902,424,567,1145,-273,-562,284
903,195,-198,1580,-269,-481,165
904,-12,-53,740,-109,-502,120
905,-112,-186,853,-130,-560,145
906,253,-469,902,-78,-614,115
907,64,-319,997,6,-619,119
908,372,-304,1028,57,-605,103
909,70,-157,981,95,-566,104
910,181,108,910,113,-530,143
911,184,188,996,85,-468,119
912,224,243,996,44,-407,154
913,98,310,852,-1,-369,159
914,239,223,1013,-55,-352,139
915,142,201,916,-87,-332,118
916,262,28,1098,-109,-318,97
917,204,-89,990,-90,-306,50
918,159,-186,982,-69,-297,62
919,198,-166,873,-34,-279,35
920,204,-214,975,-10,-233,37
921,200,-54,872,30,-186,25
922,238,-24,1042,31,-146,20
923,208,90,962,39,-116,8
924,175,103,1025,17,-91,10
925,199,143,933,3,-68,-6
926,150,113,961,-24,-36,-7
927,211,104,937,-38,-8,-22
928,193,24,1000,-60,32,-24
929,188,-17,967,-53,66,-32
930,131,-89,1009,-47,88,-35
931,121,-113,969,-28,98,-41
932,109,-87,983,-9,105,-43
933,135,-45,952,10,119,-44
934,139,17,964,14,138,-47
935,161,77,966,11,165,-51
936,146,95,998,-5,193,-57
937,134,82,993,-16,217,-60
938,129,48,987,-27,236,-67
939,141,10,979,-35,251,-72
940,149,-17,952,-33,275,-79
941,192,-48,939,-30,307,-86
942,209,-54,932,-17,349,-98
943,225,-44,971,-3,392,-108
944,205,-23,971,6,435,-122
945,214,-7,966,13,470,-131
946,223,26,950,17,501,-139
947,236,38,954,8,531,-142
948,258,65,944,-1,570,-148
949,256,58,938,-14,621,-158
950,242,34,941,-19,678,-172
951,200,4,953,-20,733,-188
952,204,-18,969,-17,777,-204
953,192,-35,954,-9,815,-215
954,205,-45,935,-4,849,-219
955,224,-26,938,1,883,-221
956,225,-8,944,5,924,-225
957,-613,-578,1372,10,950,-233
958,-1652,-307,1912,283,450,-117
959,-289,364,840,290,54,-74
960,235,-279,537,266,133,-223
961,27,257,485,261,238,-84
962,491,222,733,110,311,-22
963,-294,295,1061,3,374,25
964,-369,817,1241,-148,290,275
965,-226,321,1190,-278,223,313
966,-85,286,977,-241,262,265
967,-96,353,786,-286,326,186
968,-296,-530,1189,-305,255,64
969,-13,-238,881,-105,131,-35
970,431,-355,957,-59,164,-103
971,226,-452,913,22,254,-118
972,-57,-209,1059,99,289,-46
973,157,-175,1106,104,240,-31
974,133,71,1209,115,268,49
975,101,286,997,50,346,98
976,10,162,1186,-22,380,111
977,97,198,1015,-23,382,133
978,75,188,1031,-66,424,129
979,37,-1,1016,-73,442,72
980,11,-42,1075,-38,445,41
981,184,-22,1033,-18,468,1
982,114,-95,1097,1,513,-24
983,161,22,1012,13,537,0
984,121,-3,1053,-5,556,24
985,114,31,1006,-1,564,50
986,33,84,1029,-14,584,66
987,42,4,1051,-18,588,52
988,33,52,1034,-4,601,37
989,103,60,1031,-10,626,17
990,47,19,1030,-10,648,0
991,78,72,992,-10,652,10
992,38,47,975,-23,657,13
993,-22,36,1003,-21,652,16
994,-67,52,979,-21,644,10
995,-66,11,1002,-15,635,-8
996,-52,52,959,-5,628,-26
997,-45,46,956,-12,629,-35
998,-91,33,944,-14,619,-35
999,-140,61,936,-21,597,-17
1000,-183,36,919,-26,572,-11
1001,-249,17,939,-25,546,-11
1002,-246,12,911,-25,512,-18
1003,-233,-9,902,-17,476,-27
1004,-228,1,861,-12,439,-29
1005,-251,19,866,-14,401,-27
1006,-305,23,862,-14,359,-22
1007,-382,16,880,-17,309,-13
1008,-433,26,864,-13,250,-9
1009,-430,12,852,-12,189,-10
1010,-404,6,814,-11,126,-15
1011,-382,0,798,-9,60,-16
1012,-370,18,782,-9,-6,-12
1013,-419,20,811,-13,-73,0
1014,-475,21,836,-15,-142,13
1015,-518,8,839,-17,-214,22
1016,-476,3,826,-14,-288,31
1017,-450,-16,818,-18,-355,37
1018,-405,-22,812,-23,-425,47
1019,-387,-7,796,-45,-500,64
1020,-396,-5,817,-29,-569,84
1021,-442,8,836,-28,-635,99
1022,-466,9,845,-29,-701,103
1023,-443,2,835,-27,-772,103
1024,-396,21,823,-24,-841,112
1025,-322,41,799,-29,-906,122
1026,-308,44,810,-47,-964,136
1027,-331,10,827,-58,-1027,151
1028,-346,-12,846,-63,-1097,169
1029,-330,-65,842,-72,-1159,196
1030,-312,-44,872,-67,-1222,231
1031,-287,-7,890,-69,-1283,236
1032,-222,37,889,-74,-1321,236
1033,-184,92,898,-78,-1351,234
1034,-165,110,910,-96,-1383,230
1035,-173,129,929,-119,-1414,239
1036,-177,102,964,-143,-1448,256
1037,-163,155,1003,-170,-1483,268
1038,1156,-1089,1673,-168,-1428,242
1039,1169,-431,1796,349,-739,43
1040,-620,6,558,486,-458,-132
1041,-149,85,233,537,-674,-168
1042,-510,410,728,403,-746,78
1043,218,545,665,144,-808,189
1044,-50,298,1379,-53,-790,280
1045,254,725,949,-128,-730,398
1046,-88,367,1124,-241,-689,327
1047,-20,241,780,-258,-715,344
1048,-208,445,711,-333,-750,354
1049,352,55,1095,-414,-785,311
1050,287,-326,1356,-324,-738,222
1051,398,-322,1283,-128,-707,68
1052,35,-420,779,-60,-731,-5
1053,-106,-267,722,-51,-796,146
1054,149,-451,829,-21,-847,162
1055,355,-411,1278,95,-809,106
1056,67,102,800,156,-738,71
1057,275,49,1065,104,-706,95
1058,192,263,941,90,-644,136
1059,124,298,1034,37,-577,158
1060,158,261,875,-10,-549,136
1061,96,212,975,-69,-545,160
1062,210,176,874,-116,-545,151
1063,264,-35,1095,-120,-522,102
1064,261,-39,962,-65,-494,51
1065,168,-122,1033,-53,-483,34
1066,159,-144,914,-28,-479,30
1067,112,-132,967,-6,-458,30
1068,206,-75,937,17,-433,15
1069,153,-14,976,23,-407,26
1070,225,86,964,22,-387,25
1071,195,91,1013,2,-358,22
1072,146,92,949,-11,-321,35
1073,104,90,973,-26,-301,34
1074,139,49,995,-37,-295,32
1075,127,27,986,-46,-290,35
1076,184,4,969,-47,-284,33
1077,164,-25,964,-37,-268,22
1078,178,-25,975,-23,-247,17
1079,153,-31,973,-18,-223,12
1080,160,-34,1003,-10,-204,16
1081,156,-20,978,-5,-188,23
1082,172,-29,983,-5,-171,28
1083,197,11,935,-7,-153,38
1084,229,7,957,-15,-127,43
1085,239,14,956,-14,-91,34
1086,232,20,984,-10,-51,29
1087,223,18,979,-13,-18,24
1088,197,-2,977,-16,7,22
1089,221,6,939,-17,27,18
1090,252,1,962,-18,51,5
1091,276,17,952,-11,83,-8
1092,283,39,951,-10,121,-19
1093,282,34,957,-17,164,-27
1094,255,19,979,-23,206,-31
1095,253,-7,965,-28,244,-34
1096,264,-10,958,-26,277,-37
1097,282,-10,933,-24,315,-40
1098,303,-23,938,-21,358,-44
1099,312,-12,943,-18,410,-48
1100,295,-23,957,-13,464,-50
1101,264,-32,964,-9,515,-52
1102,243,-39,959,-9,560,-54
1103,244,-28,950,-7,597,-53
1104,244,-23,937,-9,638,-51
1105,264,-1,930,-12,681,-49
1106,260,13,934,-15,727,-51
1107,252,-2,960,-19,779,-59
1108,216,-2,962,-14,832,-68
1109,201,-14,948,-11,881,-77
1110,192,-9,936,-10,922,-84
1111,198,-10,920,-13,962,-88
1112,236,-16,930,-9,1006,-96
1113,243,-1,932,-5,1052,-108
1114,230,1,937,-4,1103,-124
1115,199,6,953,1,1155,-136
1116,206,29,980,-1,1204,-143
1117,192,67,972,-19,1251,-140
1118,210,90,965,-44,1299,-134
1119,229,124,957,-76,1348,-125
1120,234,129,977,-112,1401,-121
1121,234,130,987,-143,1459,-124
1122,-50,-53,1097,-178,1525,-127
1123,-1828,-1760,1845,96,1198,-197
1124,-358,204,1642,952,248,-309
1125,549,-146,1078,714,348,-354
1126,157,306,481,671,488,-169
1127,433,522,717,472,624,76
1128,266,337,914,294,737,47
1129,-429,865,1372,136,781,281
1130,-47,764,1069,-109,688,432
1131,12,291,1310,-208,707,399
1132,173,591,686,-233,815,342
1133,325,290,1007,-382,947,221
1134,13,280,923,-380,970,259
1135,-296,582,986,-469,900,419
1136,-54,157,934,-582,803,380
1137,-760,-680,1213,-454,719,195
1138,11,-189,1007,-161,556,-39
1139,459,-216,1028,-93,613,-228
1140,335,-191,769,-80,768,-215
1141,7,-405,823,-72,841,-119
1142,3,-676,1050,64,759,-84
1143,95,-154,908,199,712,-36
1144,244,-188,871,160,764,-31
1145,-290,-297,1117,190,810,-39
1146,-375,333,1205,236,726,36
1147,-96,268,1063,127,682,16
1148,-79,158,886,76,711,40
1149,-195,323,846,39,729,120
1150,-215,258,988,-46,701,155
1151,-296,244,884,-107,663,189
1152,-202,206,873,-171,640,200
1153,-278,24,920,-200,610,158
1154,-348,-84,924,-163,547,136
1155,-190,-76,911,-110,472,83
1156,-135,-118,895,-64,445,24
1157,-147,-78,810,-38,436,29
1158,-208,-148,905,-20,408,63
1159,-261,-70,933,18,357,92
1160,-208,17,926,17,320,92
1161,-145,-36,906,12,296,80
1162,-202,47,910,17,281,100
1163,-243,90,915,7,257,110
1164,-325,64,961,-3,218,111
1165,-341,134,928,-5,176,110
1166,-278,107,917,-31,137,96
1167,-243,82,890,-49,100,99
1168,-239,85,862,-70,64,113
1169,-236,46,868,-86,23,116
1170,-310,20,874,-83,-22,117
1171,-337,6,889,-68,-74,110
1172,-359,-12,890,-57,-129,94
1173,-328,5,874,-45,-177,86
1174,-291,-9,860,-50,-226,86
1175,-243,-13,848,-48,-273,98
1176,-247,-5,828,-47,-314,113
1177,-283,-64,857,-45,-353,123
1178,-349,-89,876,-18,-397,127
1179,-367,-84,892,10,-446,128
1180,-352,-49,887,32,-493,118
1181,-307,-32,865,41,-532,114
1182,-244,6,847,46,-571,122
1183,-235,34,871,44,-609,138
1184,-287,67,922,39,-650,153
1185,-339,119,964,28,-690,160
1186,-337,150,955,6,-732,160
1187,-300,166,920,-21,-769,161
1188,-268,144,890,-58,-809,172
1189,-228,131,871,-96,-860,194
1190,-235,119,899,-130,-921,223
1191,-264,129,925,-159,-982,246
1192,-299,147,927,-185,-1033,254
1193,-325,158,927,-216,-1081,254
1194,-333,169,944,-248,-1122,258
1195,-282,145,948,-283,-1159,267
1196,-215,201,939,-321,-1204,276
1197,-179,198,936,-360,-1239,284
1198,-185,173,932,-410,-1267,305
1199,-233,159,942,-446,-1308,325
1200,-254,145,961,-478,-1352,331
1201,-232,140,984,-511,-1393,335
1202,-174,109,971,-539,-1425,350
1203,-29,62,1062,-573,-1438,366
1204,1647,-1660,1879,-410,-1282,247
1205,536,-598,1665,526,-691,-160
1206,-310,-116,751,603,-637,-336
1207,-309,96,384,519,-839,-195
1208,-299,248,693,333,-952,222
1209,-177,211,558,93,-1062,325
1210,-480,77,804,-29,-1144,462
1211,-48,207,694,-111,-1209,527
1212,493,-1014,1773,39,-1173,307
1213,101,72,1102,533,-1052,18
1214,-4,149,926,418,-1070,51
1215,-146,105,636,317,-1155,208
1216,-220,175,783,201,-1206,392
1217,413,-341,1152,177,-1235,293
1218,118,-261,1257,375,-1156,171
1219,423,504,1131,371,-1125,180
1220,432,342,1292,197,-1054,209
1221,209,402,921,136,-943,309
1222,16,455,858,33,-918,318
1223,108,245,902,-58,-928,296
1224,-17,331,788,-131,-933,336
1225,251,243,946,-214,-939,343
1226,288,-1,1102,-221,-907,271
1227,374,-11,1108,-123,-857,156
1228,339,-82,969,-70,-828,63
1229,161,-139,861,-79,-824,107
1230,213,-98,822,-75,-820,118
1231,435,-246,1058,-50,-774,87
1232,290,-103,866,9,-680,59
1233,341,-15,869,22,-626,49
1234,416,9,886,24,-575,25
1235,403,76,972,10,-509,33
1236,456,106,954,5,-441,7
1237,388,79,1001,-14,-374,-2
1238,350,102,898,-29,-322,-10
1239,395,24,966,-44,-274,-26
1240,403,30,888,-51,-216,-36
1241,395,-7,913,-52,-147,-44
1242,431,-44,916,-46,-80,-64
1243,384,-66,946,-33,-6,-76
1244,397,-59,934,-13,55,-91
1245,359,-65,944,-3,109,-97
1246,389,-24,918,5,152,-94
1247,412,0,942,4,199,-98
1248,436,9,933,-2,254,-100
1249,411,30,912,-2,319,-107
1250,415,30,927,-5,390,-119
1251,382,26,945,-8,460,-135
1252,383,9,946,-10,523,-146
1253,395,12,929,-10,578,-156
1254,400,2,911,-12,640,-156
1255,399,2,891,-16,700,-160
1256,419,-9,912,-17,765,-174
1257,414,-17,932,-12,833,-188
1258,393,-17,945,-5,899,-203
1259,363,-21,929,0,961,-217
1260,357,-1,919,2,1012,-226
1261,347,7,899,-3,1067,-234
1262,362,14,905,-6,1120,-243
1263,367,25,912,-7,1180,-257
1264,349,3,947,-7,1247,-271
1265,291,1,924,-3,1310,-288
1266,266,-3,921,1,1363,-306
1267,258,-2,910,2,1406,-315
1268,256,-9,916,-1,1447,-319
1269,266,-2,910,-2,1489,-326
1270,251,0,918,-2,1533,-331
1271,233,-9,929,0,1581,-342
1272,181,-13,952,4,1627,-353
1273,157,20,952,6,1661,-364
1274,135,36,954,1,1689,-369
1275,142,54,939,-10,1713,-371
1276,-622,-606,1248,-34,1722,-376
1277,-1780,-750,1899,510,923,-320
1278,-225,586,806,624,155,-344
1279,213,-627,497,603,290,-482
1280,-228,600,232,663,328,-185
1281,495,390,776,384,403,-133
1282,-9,-8,644,244,480,-169
1283,374,618,606,88,553,126
1284,394,205,633,-75,655,119
1285,-561,818,1550,-145,728,215
1286,-931,1288,1355,-370,576,342
1287,-254,242,1422,-498,446,296
1288,-60,285,479,-385,505,149
1289,75,318,794,-420,607,60
1290,1,109,807,-519,594,-23
1291,-1024,-739,1318,-518,423,111
1292,-61,-394,999,-268,121,77
1293,192,-549,1112,-185,184,-63
1294,124,-132,624,-98,337,-58
1295,-169,-557,1001,-95,403,-110
1296,97,-631,940,90,333,-157
1297,156,-161,878,213,347,-115
1298,355,-290,805,205,393,-125
1299,-351,-104,1208,261,419,-87
1300,-193,390,1202,227,309,-6
1301,-125,346,1093,124,296,54
1302,-175,458,940,68,343,74
1303,-166,439,885,-34,356,71
1304,-26,257,913,-129,324,111
1305,-257,197,893,-180,292,142
1306,-182,-117,942,-190,217,93
1307,-112,-242,961,-87,169,2
1308,-24,-127,943,0,175,-61
1309,5,-184,926,20,188,-85
1310,-15,-49,1020,45,174,-30
1311,7,4,959,24,161,14
1312,-19,36,1032,5,169,43
1313,-116,84,1023,5,179,37
1314,-123,96,1039,-8,173,30
1315,-80,72,966,-19,165,22
1316,-74,59,970,-28,157,33
1317,-47,29,943,-38,149,42
1318,-81,-4,998,-38,142,46
1319,-54,-11,941,-33,128,40
1320,-91,-18,963,-27,124,41
1321,-139,-35,956,-18,113,42
1322,-199,-14,965,-11,94,51
1323,-143,-19,942,-6,70,58
1324,-156,8,942,-2,54,78
1325,-153,54,922,-8,37,96
1326,-174,59,931,-22,12,107
1327,-196,49,906,-35,-19,119
1328,-244,27,917,-41,-56,130
1329,-271,-1,904,-41,-96,136
1330,-250,-16,901,-37,-141,148
1331,-226,-13,902,-28,-179,166
1332,-223,11,898,-21,-215,178
1333,-205,38,878,-29,-255,187
1334,-235,24,895,-35,-296,192
1335,-266,6,896,-40,-344,200
1336,-283,-8,888,-41,-396,213
1337,-248,-13,888,-36,-446,231
1338,-243,9,895,-28,-482,245
1339,-207,37,897,-27,-516,243
1340,-195,55,893,-32,-547,233
1341,-208,50,896,-38,-581,229
1342,-240,51,909,-44,-622,231
1343,-265,52,918,-50,-666,237
1344,-255,76,918,-55,-708,245
1345,-244,96,914,-61,-744,247
1346,-204,137,903,-72,-777,244
1347,-193,156,912,-95,-810,241
1348,-215,140,919,-125,-851,237
1349,-239,125,924,-153,-900,244
1350,-249,108,933,-178,-954,262
1351,-239,113,943,-203,-1007,285
1352,-211,135,930,-223,-1047,304
1353,-58,61,1026,-245,-1071,316
1354,1579,-1579,1880,-147,-948,279
1355,536,-555,1647,474,-458,71
1356,-257,33,715,556,-378,-130
1357,-146,227,453,480,-520,-65
1358,13,486,961,315,-576,233
1359,398,744,1295,72,-566,288
1360,78,500,1273,-66,-463,284
1361,54,557,770,-102,-436,292
1362,-171,332,970,-196,-479,267
1363,-95,327,703,-261,-545,277
1364,349,-176,1448,-310,-559,214
1365,201,-368,1174,-172,-504,127
1366,-92,-285,952,-94,-509,154
1367,89,-275,863,-97,-576,199
1368,-79,-365,910,-73,-616,249
1369,104,-254,869,1,-632,230
1370,17,-291,954,57,-600,214
1371,0,-91,918,113,-580,229
1372,119,116,1120,117,-559,191
1373,171,204,1070,98,-517,168
1374,70,348,966,68,-495,178
1375,108,397,935,9,-472,188
1376,89,308,949,-68,-449,177
1377,177,186,994,-117,-433,161
1378,207,-60,1056,-130,-413,130
1379,124,-188,1023,-102,-401,129
1380,57,-206,949,-69,-407,125
1381,81,-256,967,-43,-415,130
1382,54,-195,917,-4,-410,135
1383,104,-117,959,29,-399,132
1384,116,-1,957,49,-375,119
1385,123,90,991,45,-346,117
1386,126,160,1002,34,-320,104
1387,135,175,1034,7,-297,101
1388,105,190,973,-11,-270,98
1389,110,129,973,-47,-263,95
1390,159,81,969,-65,-259,82
1391,187,-11,1006,-76,-244,76
1392,171,-78,980,-69,-224,68
1393,117,-113,965,-54,-203,66
1394,135,-123,966,-34,-193,63
1395,123,-119,983,-14,-181,61
1396,164,-63,958,6,-168,59
1397,202,-4,956,16,-147,51
1398,223,54,945,19,-112,45
1399,225,90,965,7,-69,37
1400,230,81,972,-16,-25,30
1401,235,65,994,-24,13,18
1402,227,30,990,-30,46,1
1403,242,12,962,-28,80,-22
1404,265,20,921,-29,121,-37
1405,285,0,912,-31,172,-51
1406,310,-24,928,-30,229,-66
1407,308,-39,945,-24,292,-82
1408,306,-48,955,-11,358,-97
1409,267,-28,924,3,427,-111
1410,279,11,902,11,491,-121
1411,295,37,902,6,555,-128
1412,329,38,926,-6,620,-129
1413,341,22,939,-19,689,-137
1414,330,-7,958,-18,759,-150
1415,296,-10,956,-8,833,-164
1416,264,-13,945,0,901,-175
1417,268,36,925,-2,965,-178
1418,267,63,913,-20,1028,-175
1419,275,64,919,-40,1089,-176
1420,276,64,938,-60,1149,-182
1421,280,28,985,-64,1212,-194
1422,234,44,985,-69,1262,-205
1423,193,76,965,-84,1312,-211
1424,170,118,951,-107,1357,-208
1425,171,134,949,-134,1401,-206
1426,-116,-96,1081,-169,1446,-211
1427,-1842,-1792,1821,105,1090,-331
1428,-317,-106,1556,968,204,-515
1429,528,-134,1066,823,287,-504
1430,102,322,525,753,440,-311
1431,47,689,918,543,546,-110
1432,-96,482,1164,287,496,-68
1433,-194,681,1102,136,454,194
1434,112,597,761,-22,469,218
1435,24,371,1150,-87,543,136
1436,-95,661,781,-156,591,165
1437,35,428,1113,-324,585,162
1438,-1,299,859,-364,575,158
1439,-86,460,931,-422,598,171
1440,162,305,875,-506,592,93
1441,-504,-112,1181,-533,579,91
1442,-491,-512,1165,-398,375,17
1443,87,-491,1214,-173,282,-180
1444,448,-151,820,-68,405,-239
1445,226,-267,834,-86,555,-206
1446,94,-515,997,-33,584,-177
1447,9,-439,1046,82,524,-177
1448,390,-252,880,141,512,-148
1449,142,-293,922,171,593,-123
1450,-221,-7,1124,215,615,-117
1451,-211,168,1196,190,542,-93
1452,-15,332,1099,139,516,-18
1453,-116,411,922,70,565,-2
1454,-13,383,931,-27,582,8
1455,-105,288,917,-107,583,37
1456,-241,167,982,-169,551,77
1457,-233,-95,946,-169,486,30
1458,-114,-182,980,-86,448,-42
1459,-10,-152,902,-14,461,-114
1460,0,-140,987,30,475,-127
1461,-34,-27,956,39,465,-89
1462,-54,4,972,9,440,-32
1463,-73,6,923,-9,423,2
1464,-190,30,1006,-10,418,9
1465,-175,29,990,-4,401,-9
1466,-143,40,993,1,387,-18
1467,-45,77,921,0,376,-16
1468,-80,97,953,-19,376,-2
1469,-126,74,958,-39,361,1
1470,-180,47,962,-48,341,1
1471,-186,17,954,-41,318,-9
1472,-223,-1,949,-29,299,-23
1473,-190,-5,915,-22,272,-30
1474,-166,2,914,-15,247,-30
1475,-166,28,903,-10,225,-25
1476,-209,30,909,-18,200,-21
1477,-269,28,922,-24,169,-17
1478,-329,8,924,-28,130,-12
1479,-344,-16,905,-27,86,-6
1480,-321,-26,863,-21,42,-1
1481,-282,-15,849,-12,-4,6
1482,-283,1,850,-8,-47,8
1483,-299,11,862,-9,-93,7
1484,-342,-1,864,-15,-140,15
1485,-390,-20,891,-15,-194,30
1486,-395,-31,871,-14,-253,41
1487,-359,-37,860,-11,-308,50
1488,-324,-24,843,-1,-357,55
1489,-303,-8,845,0,-409,60
1490,-292,16,857,-5,-460,71
1491,-333,30,872,-9,-513,86
1492,-365,24,883,-21,-568,99
1493,-382,9,881,-31,-626,110
1494,-337,9,864,-30,-682,118
1495,-278,12,847,-31,-735,125
1496,-240,6,832,-31,-785,135
1497,-237,15,866,-39,-826,148
1498,-241,-2,881,-43,-867,169
1499,-267,-8,899,-47,-920,180
1500,-294,-2,912,-42,-970,187
1501,-256,23,920,-46,-1013,194
1502,-215,72,906,-46,-1054,193
1503,-153,121,891,-57,-1083,190
1504,-121,157,901,-79,-1110,189
1505,-151,140,936,-106,-1134,191
1506,-206,112,977,-131,-1166,197
1507,-221,110,1001,-152,-1201,208
1508,-169,150,986,-174,-1233,217
1509,-104,194,972,-207,-1256,227
1510,-55,219,967,-247,-1271,234
1511,-44,224,978,-293,-1286,241
1512,895,-794,1558,-331,-1264,236
1513,1456,-1464,1935,226,-786,68
1514,-465,202,961,677,-397,-196
1515,-88,-56,511,610,-568,-302
1516,-350,340,647,507,-675,2
1517,172,580,877,276,-753,217
1518,223,540,1478,60,-752,240
1519,345,806,1150,-64,-640,287
1520,16,411,966,-154,-589,256
1521,-149,333,834,-205,-625,289
1522,-250,456,630,-303,-687,297
1523,292,-154,1281,-388,-733,248
1524,316,-378,1321,-217,-678,142
1525,226,-283,1136,-99,-642,117
1526,85,-239,783,-77,-694,92
1527,-75,-223,776,-93,-737,207
1528,204,-336,856,-70,-748,200
1529,101,-447,1108,29,-684,160
1530,-54,-88,765,121,-640,141
1531,200,-53,1101,110,-644,128
1532,250,166,1018,118,-610,127
1533,212,341,1046,83,-564,129
1534,287,351,931,29,-526,104
1535,112,310,940,-33,-469,118
1536,194,257,905,-89,-436,105
1537,194,6,1071,-125,-406,75
1538,234,-63,973,-115,-390,63
1539,231,-192,1016,-96,-379,48
1540,217,-224,920,-61,-363,52
1541,139,-190,903,-38,-340,61
1542,197,-188,938,-3,-309,48
1543,121,-105,965,34,-265,33
1544,165,6,973,51,-242,28
1545,197,94,1020,46,-229,24
1546,219,173,984,30,-208,25
1547,224,196,960,-1,-175,11
1548,219,160,950,-38,-135,7
1549,201,108,963,-60,-93,0
1550,212,5,1006,-71,-59,-8
1551,186,-60,984,-66,-35,-16
1552,197,-96,982,-55,-21,-18
1553,210,-118,937,-39,-3,-29
1554,227,-111,924,-21,27,-31
1555,239,-60,911,-1,66,-39
1556,257,-40,972,11,112,-48
1557,251,10,972,16,152,-60
1558,266,36,989,15,190,-71
1559,279,74,964,8,223,-82
1560,284,82,956,-10,264,-90
1561,310,85,918,-29,314,-103
1562,312,59,915,-40,377,-118
1563,321,23,932,-45,445,-140
1564,301,-14,960,-37,514,-167
1565,302,-30,942,-27,572,-189
1566,332,-36,952,-23,628,-193
1567,323,-31,925,-30,695,-174
1568,323,-6,915,-37,765,-176
1569,337,9,904,-37,841,-188
1570,333,8,923,-40,922,-198
1571,300,18,937,-43,1004,-205
1572,289,37,956,-49,1085,-211
1573,273,48,956,-64,1160,-214
1574,264,75,929,-83,1233,-208
1575,274,107,919,-108,1299,-205
1576,260,96,932,-135,1361,-209
1577,253,82,954,-152,1422,-220
1578,225,71,975,-160,1479,-241
1579,203,87,982,-170,1530,-255
1580,-1344,-1272,1610,-121,1448,-287
1581,-1224,-1013,1808,805,525,-440
1582,458,375,1238,978,282,-527
1583,381,1,556,779,438,-526
1584,181,403,614,633,578,-189
1585,442,444,745,443,648,-90
1586,-569,634,1378,291,701,30
1587,-370,1092,1148,63,573,235
1588,-111,313,1264,-93,514,199
1589,126,437,778,-61,576,145
1590,166,532,796,-165,694,60
1591,216,156,917,-249,726,22
1592,-378,602,921,-296,703,154
1593,-3,437,903,-447,591,193
1594,-30,125,887,-495,573,80
1595,-147,111,961,-476,602,49
1596,-591,-754,1321,-392,494,-28
1597,-42,-303,1266,-95,342,-116
1598,298,-39,738,-70,448,-230
1599,255,-369,813,-108,546,-262
1600,-61,-493,864,-14,578,-171
1601,-124,-477,1098,95,523,-129
1602,142,-273,877,172,487,-135
1603,-28,-87,946,199,536,-106
1604,-263,196,1063,175,519,-92
1605,-362,314,1046,120,433,-68
1606,-155,305,845,81,373,-74
1607,-237,314,891,58,372,-104
1608,-238,317,885,12,358,-128
1609,-234,257,915,-49,321,-122
1610,-171,197,856,-101,279,-90
1611,-253,72,891,-151,250,-69
1612,-362,-127,955,-154,203,-41
1613,-419,-241,959,-112,142,-20
1614,-289,-285,860,-65,97,-26
1615,-271,-302,796,-16,70,-24
1616,-257,-242,833,25,25,1
1617,-272,-145,872,55,-30,29
1618,-265,-6,893,67,-82,58
1619,-319,132,882,57,-125,65
1620,-313,158,907,29,-181,64
1621,-304,199,883,3,-233,71
1622,-266,182,902,-26,-276,74
1623,-241,149,881,-48,-315,68
1624,-213,78,906,-70,-350,66
1625,-200,17,888,-75,-386,67
1626,-241,-49,905,-74,-423,78
1627,-270,-104,887,-59,-468,87
1628,-304,-130,897,-43,-516,99
1629,-261,-104,847,-21,-566,106
1630,-243,-85,848,-8,-612,112
1631,-199,-53,829,3,-661,124
1632,-207,17,857,7,-715,131
1633,-231,63,865,4,-771,128
1634,-274,80,886,-7,-823,133
1635,-289,100,886,-20,-879,141
1636,-252,97,869,-39,-936,145
1637,-193,98,854,-54,-994,153
1638,-168,105,874,-72,-1049,156
1639,-155,130,898,-98,-1103,154
1640,-164,130,924,-125,-1151,152
1641,-166,136,948,-152,-1197,157
1642,-176,168,960,-183,-1239,165
1643,1127,-953,1673,-188,-1198,166
1644,990,-522,1655,193,-517,96
1645,-727,143,562,377,-260,-154
1646,-19,132,374,413,-512,-287
1647,-176,460,845,271,-609,-24
1648,379,589,941,36,-641,94
1649,-79,420,1190,-155,-597,114
1650,211,572,826,-225,-539,160
1651,-91,336,1070,-298,-509,110
1652,162,55,1025,-320,-523,130
1653,251,-264,1243,-275,-492,84
1654,288,-431,1156,-155,-417,54
1655,-169,-136,726,-131,-402,81
1656,111,-354,858,-145,-456,105
1657,51,-423,847,-45,-450,68
1658,12,-328,919,55,-418,96
1659,0,-244,815,117,-417,52
1660,90,-298,988,142,-423,82
1661,288,55,1088,200,-401,68
1662,290,270,1229,173,-321,50
1663,127,505,903,113,-291,33
1664,147,419,1022,20,-301,49
1665,138,436,907,-51,-293,38
1666,137,244,1031,-135,-276,39
1667,200,38,951,-168,-248,39
1668,151,-213,1068,-154,-198,41
1669,69,-258,878,-90,-165,27
1670,14,-315,967,-47,-155,24
1671,38,-252,920,17,-149,7
1672,21,-168,1008,61,-140,3
1673,110,33,982,92,-140,-1
1674,79,171,1030,75,-140,4
1675,159,270,1006,44,-146,-13
1676,134,261,1011,-5,-134,-20
1677,108,222,960,-43,-108,-13
1678,45,103,1005,-85,-89,3
1679,43,-44,1008,-92,-79,9
1680,6,-111,1003,-73,-69,1
1681,11,-157,959,-44,-73,2
1682,15,-146,959,-16,-84,7
1683,38,-94,983,11,-87,10
1684,22,-18,1008,34,-79,3
1685,0,52,1014,37,-78,6
1686,-2,116,1021,27,-87,8
1687,16,147,1034,17,-101,10
1688,-2,156,990,-20,-112,9
1689,53,119,1002,-35,-124,2
1690,62,55,988,-54,-118,8
1691,33,-20,1008,-65,-109,24
1692,-6,-77,1004,-48,-107,25
1693,-3,-94,1006,-33,-114,19
1694,8,-84,986,-11,-126,17
1695,25,-46,987,6,-137,26
1696,64,32,982,8,-142,28
1697,79,71,986,5,-132,24
1698,76,99,991,-4,-116,23
1699,52,93,1008,-17,-103,21
1700,64,71,1009,-28,-99,17
1701,74,37,1005,-38,-102,17
1702,92,4,978,-38,-99,13
1703,119,-12,968,-37,-91,13
1704,130,-28,954,-34,-73,14
1705,145,-46,981,-25,-53,9
1706,123,-38,979,-12,-28,-3
1707,128,-31,984,-3,-7,-8
1708,156,-9,978,4,5,-11
1709,194,15,971,4,22,-16
1710,221,54,950,3,48,-21
1711,230,67,943,-10,87,-26
1712,249,51,964,-20,130,-35
1713,224,30,970,-25,176,-41
1714,227,16,984,-26,210,-49
1715,222,-15,984,-29,238,-58
1716,233,-24,949,-24,268,-66
1717,260,-7,923,-19,307,-77
1718,270,0,927,-17,361,-87
1719,277,9,938,-12,420,-105
1720,268,2,946,-9,480,-124
1721,279,8,945,-4,534,-145
1722,285,0,957,2,589,-162
1723,319,7,938,3,639,-169
1724,343,24,915,0,693,-175
1725,357,16,914,-9,755,-184
1726,346,16,921,-12,826,-200
1727,334,2,936,-13,902,-219
1728,320,6,946,-12,984,-231
1729,292,34,942,-9,1071,-237
1730,300,89,932,-20,1155,-241
1731,312,137,922,-51,1238,-235
1732,323,148,927,-91,1320,-218
1733,215,100,976,-135,1403,-201
1734,-1708,-1619,1721,3,1215,-257
1735,-469,103,1569,733,239,-343
1736,655,-373,1015,596,273,-376
1737,344,208,615,671,454,-321
1738,503,385,879,536,634,-143
1739,633,253,929,352,777,-212
1740,261,286,1004,239,947,-100
1741,160,787,1038,64,1016,54
1742,-272,402,1634,-126,938,180
1743,3,455,841,-132,881,340
1744,177,396,1021,-185,946,202
1745,273,169,901,-175,1067,-57
1746,-73,376,922,-207,1163,-121
1747,117,277,990,-302,1096,-76
1748,-124,51,949,-335,1012,21
1749,123,275,802,-350,979,97
1750,5,62,952,-401,1003,-4
1751,-205,-91,1079,-387,1005,-54
1752,-459,-498,1183,-296,905,-82
1753,33,-494,1175,-93,813,-165
1754,132,-222,774,4,916,-289
1755,95,-415,834,27,1030,-332
1756,-242,-464,970,100,1023,-288
1757,-213,-188,1042,152,901,-137
1758,-37,-37,806,125,825,-48
1759,-133,-29,908,119,825,-72
1760,-232,150,899,143,822,-105
1761,-341,142,1096,123,792,-129
1762,-338,122,953,131,733,-125
1763,-309,82,919,124,696,-115
1764,-202,13,848,116,666,-132
1765,-235,-13,839,107,638,-118
1766,-163,11,809,96,602,-93
1767,-249,12,885,87,568,-80
1768,-290,101,862,83,529,-62
1769,-368,114,929,63,490,-68
1770,-388,86,927,55,442,-68
1771,-383,89,906,45,394,-59
1772,-293,31,887,38,347,-55
1773,-287,9,835,39,304,-47
1774,-223,40,818,28,261,-29
1775,-275,44,815,18,220,-13
1776,-329,91,838,-1,173,7
1777,-405,117,848,-21,126,5
1778,-421,97,908,-36,73,2
1779,-430,117,879,-40,18,2
1780,-365,72,873,-52,-42,1
1781,-323,73,799,-58,-99,5
1782,-315,80,793,-76,-154,25
1783,-331,80,777,-105,-208,38
1784,-385,90,819,-131,-255,50
1785,-400,103,846,-153,-306,59
1786,-425,108,920,-175,-364,74
1787,-375,109,884,-193,-420,78
1788,-308,99,858,-212,-469,86
1789,-263,103,820,-231,-516,98
1790,-285,108,844,-264,-556,115
1791,-466,-113,986,-284,-603,129
1792,-574,-328,1089,-217,-699,135
1793,-342,-306,973,-119,-788,127
1794,-131,-124,812,-67,-832,118
1795,-5,-43,715,-63,-837,108
1796,8,-71,774,-63,-830,112
1797,-174,-196,938,-43,-822,126
1798,-345,-222,1051,16,-839,124
1799,-298,-175,1060,72,-864,88
1800,-173,-62,917,121,-872,56
1801,-55,112,868,140,-873,54
1802,-83,263,940,106,-881,58
1803,-184,313,1023,39,-904,69
1804,-214,299,1014,-33,-932,88
1805,-237,213,998,-79,-949,97
1806,-228,134,935,-111,-972,99
1807,-228,53,932,-128,-1010,109
1808,-173,57,937,-136,-1055,123
1809,-138,82,924,-160,-1085,138
1810,-132,93,924,-176,-1117,133
1811,-190,68,930,-194,-1135,131
1812,-243,38,946,-212,-1168,141
1813,-242,37,962,-213,-1213,148
1814,-172,67,919,-224,-1252,164
1815,-104,124,900,-236,-1275,180
1816,-91,152,917,-259,-1292,184
1817,-119,130,924,-298,-1315,181
1818,-31,-23,1047,-325,-1347,183
1819,1691,-1710,1892,-177,-1180,154
1820,389,-686,1587,635,-557,-31
1821,-450,-18,723,755,-524,-272
1822,-217,129,423,686,-697,-296
1823,-67,189,719,534,-775,86
1824,21,391,754,359,-841,227
1825,384,820,1738,173,-836,306
1826,610,831,1305,22,-657,247
1827,45,347,1254,-39,-569,230
1828,-281,335,508,-51,-624,277
1829,-228,251,761,-169,-702,228
1830,110,59,711,-221,-770,200
1831,113,311,1074,-249,-762,253
1832,558,247,1245,-305,-715,201
1833,317,-346,1324,-252,-633,122
1834,164,-270,906,-164,-637,156
1835,85,-486,942,-133,-693,123
1836,99,-482,850,-66,-691,157
1837,42,-356,834,-2,-682,162
1838,219,-330,989,83,-656,127
1839,91,58,926,138,-600,114
1840,256,193,1047,120,-556,102
1841,214,314,1043,87,-514,85
1842,182,350,1003,29,-481,110
1843,127,318,902,-21,-454,83
1844,133,225,948,-80,-440,73
1845,208,128,917,-120,-422,54
1846,288,-92,1065,-134,-378,38
1847,168,-169,948,-102,-337,32
1848,128,-266,991,-69,-323,27
1849,145,-257,944,-18,-317,11
1850,122,-195,977,22,-308,21
1851,160,-66,935,51,-295,14
1852,188,39,992,53,-271,15
1853,212,167,951,45,-237,10
1854,200,190,1015,16,-203,9
1855,173,193,971,-13,-174,3
1856,163,126,999,-44,-153,-2
1857,195,56,969,-58,-138,-10
1858,185,-35,975,-65,-116,-11
1859,230,-69,941,-53,-91,-18
1860,216,-110,946,-39,-55,-19
1861,229,-108,948,-19,-21,-23
1862,199,-88,985,-1,8,-23
1863,212,-42,988,15,31,-29
1864,204,12,975,22,50,-33
1865,230,54,952,22,73,-38
1866,250,100,944,11,108,-43
1867,266,113,937,-5,152,-46
1868,269,97,958,-24,199,-51
1869,248,56,981,-37,243,-56
1870,241,9,987,-43,276,-66
1871,233,-36,973,-42,302,-70
1872,229,-61,937,-33,329,-76
1873,252,-50,932,-22,361,-82
1874,249,-35,936,-12,404,-85
1875,236,-16,962,-3,447,-89
1876,213,17,974,5,492,-101
1877,197,38,983,8,529,-113
1878,180,51,962,2,558,-124
1879,195,46,957,-6,582,-125
1880,227,64,947,-14,609,-130
1881,230,31,964,-28,643,-135
1882,207,10,954,-28,684,-145
1883,163,-13,950,-30,728,-157
1884,162,-30,958,-20,762,-172
1885,146,-39,972,-9,786,-181
1886,167,-29,966,-6,802,-184
1887,188,-4,954,-2,820,-182
1888,188,0,949,-6,846,-180
1889,167,13,956,-3,880,-188
1890,135,18,957,-2,919,-202
1891,128,26,969,-2,951,-217
1892,121,36,978,-2,976,-227
1893,153,62,983,-12,994,-230
1894,189,87,985,-27,1015,-227
1895,199,94,982,-45,1044,-224
1896,192,108,980,-64,1081,-229
1897,-144,-147,1141,-85,1121,-240
1898,-1825,-1530,1803,155,866,-246
1899,-635,458,1433,590,225,-253
1900,281,-306,864,437,252,-383
1901,176,286,515,469,288,-220
1902,371,406,824,303,370,-55
1903,326,165,784,160,429,-88
1904,196,411,785,59,514,62
1905,243,449,833,-58,596,79
1906,-456,608,1597,-153,623,75
1907,-464,812,1187,-241,541,141
1908,-22,255,1122,-314,510,39
1909,149,132,715,-269,561,-56
1910,70,262,753,-316,620,-36
1911,-257,-344,1090,-405,587,-15
1912,-655,-670,1272,-247,418,62
1913,48,-156,998,-124,318,14
1914,186,-314,857,-128,378,-91
1915,174,-221,729,-83,455,-47
1916,16,-387,939,-42,489,-17
1917,-73,-478,1076,95,459,-25
1918,-11,-78,883,180,466,-38
1919,25,-226,1009,183,507,-88
1920,-305,119,1149,228,501,-63
1921,-195,425,1077,156,429,5
1922,6,171,932,85,387,-6
1923,-21,348,930,92,415,-2
1924,-20,399,945,16,440,-37
1925,-56,240,1014,-69,436,-27
1926,-122,331,931,-123,427,31
1927,-171,70,1015,-192,417,27
1928,-208,-119,1004,-158,376,4
1929,-106,-174,956,-103,342,-36
1930,43,-281,877,-53,337,-79
1931,-127,-210,898,2,352,-61
1932,-204,-189,939,20,324,-36
1933,-270,-149,977,48,284,-7
1934,-251,15,910,70,255,11
1935,-215,61,907,59,230,8
1936,-212,154,906,49,192,23
1937,-222,203,891,17,151,30
1938,-236,203,879,-18,113,24
1939,-321,164,906,-43,77,13
1940,-359,100,906,-68,28,7
1941,-335,-1,887,-71,-28,-1
1942,-281,-59,843,-62,-76,4
1943,-257,-109,822,-48,-123,9
1944,-287,-123,849,-29,-172,21
1945,-367,-96,861,-9,-224,31
1946,-414,-74,874,7,-284,39
1947,-444,-27,861,18,-344,47
1948,-413,19,839,19,-406,57
1949,-376,53,805,12,-474,69
1950,-350,90,805,3,-543,81
1951,-336,122,804,-17,-609,87
1952,-383,102,831,-41,-674,93
1953,-427,59,841,-60,-747,105
1954,-442,4,839,-66,-824,114
1955,-379,-33,816,-61,-902,129
1956,-330,-43,794,-60,-976,151
1957,-290,-28,799,-58,-1047,170
1958,-284,4,832,-59,-1109,177
1959,-298,9,863,-64,-1157,185
1960,-302,-12,891,-68,-1199,202
1961,-318,41,911,-69,-1254,209
1962,-272,85,912,-79,-1310,207
1963,-221,119,911,-99,-1350,217
1964,715,-501,1414,-122,-1355,225
1965,1463,-318,1824,136,-789,113
1966,-704,160,591,275,-426,10
1967,-282,-84,226,373,-662,-94
1968,-750,294,608,333,-754,-18
1969,163,472,814,131,-837,99
1970,-126,231,1344,-77,-851,163
1971,197,560,1066,-122,-807,275
1972,-72,358,1005,-181,-788,223
1973,-1,149,937,-219,-829,249
1974,-235,418,655,-264,-885,267
1975,389,-165,1294,-341,-911,224
1976,256,-345,1167,-207,-837,144
1977,146,-379,1109,-120,-815,165
1978,87,-460,759,-70,-880,117
1979,-16,-465,889,-34,-906,217
1980,220,-219,857,46,-916,176
1981,179,-205,1189,95,-827,130
1982,41,229,768,140,-765,116
1983,204,221,1159,80,-745,137
1984,178,285,935,51,-700,150
1985,53,259,1012,5,-665,164
1986,163,244,816,-34,-661,132
1987,97,185,970,-85,-656,119
1988,276,150,925,-111,-642,94
1989,248,-32,1139,-127,-603,64
1990,202,-94,944,-105,-577,61
1991,108,-204,998,-93,-573,54
1992,178,-221,921,-53,-567,39
1993,108,-169,935,-21,-546,39
1994,205,-96,940,9,-526,34
1995,140,-6,989,24,-496,29
1996,167,77,987,27,-474,26
1997,113,125,1019,15,-458,17
1998,111,122,1000,-6,-454,21
1999,94,145,973,-23,-451,12
2000,136,96,976,-48,-445,15
2001,120,72,949,-61,-430,11
2002,148,11,989,-71,-410,16
2003,112,-29,988,-67,-395,14
2004,99,-76,1026,-57,-394,19
2005,74,-83,1000,-39,-401,14
2006,82,-85,999,-25,-412,19
2007,86,-33,955,-7,-416,19
2008,102,-20,982,-6,-416,29
2009,110,34,969,-2,-414,35
2010,112,48,1020,-5,-401,30
2011,95,63,1000,-5,-390,24
2012,62,52,1009,-16,-388,27
2013,141,75,987,-23,-397,27
2014,147,59,990,-37,-395,34
2015,175,49,959,-46,-393,38
2016,170,38,963,-58,-381,37
2017,185,10,962,-62,-359,29
2018,158,-26,991,-55,-334,23
2019,169,-45,981,-45,-314,16
2020,175,-38,976,-33,-299,13
2021,210,-24,949,-23,-289,16
2022,222,-20,944,-20,-272,17
2023,253,0,940,-15,-249,17
2024,257,1,967,-13,-215,11
2025,259,-4,985,-7,-173,6
2026,239,1,978,1,-135,-1
2027,261,18,966,-2,-111,0
2028,270,26,940,-3,-89,-3
2029,296,31,930,-3,-62,-9
2030,300,50,926,1,-31,-21
2031,308,39,950,-8,17,-22
2032,290,28,960,-25,65,-23
2033,277,2,969,-24,106,-27
2034,281,-1,964,-23,135,-30
2035,289,-10,951,-20,160,-32
2036,305,-20,927,-19,191,-37
2037,308,-14,926,-14,231,-42
2038,303,-23,960,-9,275,-44
2039,275,-23,970,-4,320,-44
2040,260,-23,972,7,355,-49
2041,259,-10,973,12,380,-52
2042,259,12,951,13,402,-54
2043,280,51,946,19,430,-66
2044,302,78,948,11,461,-80
2045,294,68,972,-6,500,-81
2046,253,51,967,-16,545,-82
2047,236,21,961,-23,582,-82
2048,233,5,959,-26,610,-85
2049,234,-13,951,-25,635,-90
2050,266,-11,942,-19,662,-97
2051,264,-8,936,-13,698,-99
2052,257,-14,949,-9,740,-102
2053,222,-14,966,1,784,-109
2054,211,2,966,9,828,-122
2055,199,25,943,12,861,-132
2056,221,28,938,8,884,-136
2057,256,50,949,-2,907,-134
2058,266,43,957,-13,940,-131
2059,242,23,951,-21,983,-137
2060,192,3,948,-17,1031,-151
2061,178,-6,946,-12,1071,-168
2062,181,-16,946,-8,1102,-177
2063,207,-18,937,-2,1124,-177
2064,237,-4,946,-2,1148,-176
2065,239,-8,947,-4,1180,-175
2066,220,-11,943,-4,1221,-182
2067,181,-3,937,1,1265,-196
2068,177,18,956,5,1303,-210
2069,169,46,969,3,1333,-221
2070,192,76,965,-8,1361,-227
2071,213,121,962,-26,1389,-229
2072,213,125,971,-55,1423,-228
2073,194,128,987,-80,1461,-238
2074,153,134,986,-100,1505,-253
2075,-1149,-1063,1483,-85,1475,-278
2076,-1613,-585,1856,672,639,-359
2077,101,173,899,730,248,-540
2078,332,-197,493,749,317,-507
2079,54,555,538,705,365,-176
2080,488,523,748,419,403,-172
2081,13,106,733,261,469,-147
2082,362,690,596,117,530,69
2083,-305,655,1386,-58,603,38
2084,-734,983,1513,-161,559,110
2085,-314,771,977,-312,528,86
2086,151,96,913,-343,564,0
2087,-123,500,554,-354,629,37
2088,43,344,803,-553,619,91
2089,-197,91,848,-656,573,156
2090,-1162,-492,1390,-667,477,255
2091,-592,-927,1228,-393,165,86
2092,173,-354,988,-167,90,13
2093,300,-41,413,-172,203,21
2094,88,-330,746,-224,293,49
2095,-347,-720,949,-130,273,65
2096,-359,-546,1161,49,171,82
2097,146,-253,802,138,152,28
2098,39,-269,785,176,242,34
2099,-36,-167,758,231,277,30
2100,-249,-308,1079,297,239,-16
2101,-326,289,1184,346,152,-11
2102,-361,536,1125,244,94,52
2103,-261,620,1007,145,59,82
2104,-223,520,903,39,69,52
2105,3,444,839,-73,74,55
2106,-97,380,838,-182,70,101
2107,-338,164,935,-282,27,152
2108,-490,-304,1017,-252,-87,106
2109,-192,-313,898,-106,-179,31
2110,-47,-170,786,-35,-192,4
2111,-103,-239,816,-41,-177,25
2112,-244,-334,873,-8,-197,46
2113,-226,-279,964,66,-254,56
2114,-167,-82,904,107,-288,58
2115,-250,108,953,101,-304,76
2116,-331,238,961,61,-343,97
2117,-315,278,950,14,-392,114
2118,-236,252,880,-20,-428,113
2119,-241,256,910,-60,-457,96
2120,-202,103,858,-99,-504,69
2121,-199,-2,874,-103,-561,65
2122,-201,-39,860,-96,-626,77
2123,-263,-32,912,-96,-686,105
2124,-315,-46,910,-105,-728,115
2125,-342,-21,928,-92,-764,111
2126,-274,54,900,-84,-801,93
2127,-237,95,887,-95,-838,81
2128,-209,143,851,-108,-882,87
2129,-28,-73,1104,-143,-926,101
2130,1652,-1258,1922,1,-769,68
2131,34,37,1370,334,-343,-46
2132,-470,-47,555,341,-409,-189
2133,-424,281,559,357,-560,-132
2134,-69,655,1187,148,-615,100
2135,-167,504,1053,-60,-660,134
2136,-269,544,1179,-133,-682,135
2137,-230,530,849,-207,-717,122
2138,-328,168,1147,-299,-772,144
2139,-136,-72,1009,-288,-834,155
2140,30,-481,1405,-191,-865,85
2141,-94,-364,870,-68,-921,45
2142,-204,-370,833,-66,-998,151
2143,16,-436,826,-18,-1077,205
2144,4,-346,1135,77,-1082,197
2145,75,3,994,145,-1055,154
2146,70,48,1088,118,-1013,176
2147,30,170,888,100,-959,257
2148,-17,220,1000,70,-930,281
2149,64,236,938,22,-932,283
2150,1,238,932,-38,-941,294
2151,94,209,928,-94,-957,305
2152,44,131,1015,-139,-958,299
2153,153,-3,1077,-134,-956,261
2154,109,-79,1049,-86,-955,196
2155,122,-112,968,-47,-979,168
2156,111,-80,898,-30,-996,157
2157,203,-91,937,-27,-989,149
2158,224,-64,941,-11,-948,147
2159,238,-46,987,-1,-892,157
2160,206,-9,948,9,-839,168
2161,212,14,955,8,-800,189
2162,234,44,915,-3,-769,200
2163,281,51,948,-21,-742,205
2164,300,56,924,-34,-705,202
2165,317,18,972,-40,-662,195
2166,313,24,974,-29,-616,177
2167,322,8,1006,-30,-574,164
2168,305,-8,926,-35,-533,164
2169,307,-44,902,-41,-495,168
2170,374,-23,884,-35,-450,162
2171,419,-35,944,-29,-393,151
2172,468,-16,935,-20,-324,146
2173,414,-28,934,-16,-246,141
2174,422,-19,924,-9,-181,131
2175,397,-26,929,-3,-117,118
2176,434,-29,904,3,-57,108
2177,441,1,898,15,6,99
2178,466,35,910,17,69,76
2179,467,45,933,11,134,49
2180,445,48,931,8,200,31
2181,413,52,935,1,261,12
2182,390,30,940,-2,311,-10
2183,393,34,933,-2,352,-31
2184,415,54,923,-7,392,-52
2185,416,44,923,-9,433,-72
2186,417,41,952,-13,480,-85
2187,385,25,956,-22,536,-94
2188,350,3,956,-21,597,-105
2189,304,-7,928,-16,655,-122
2190,320,-23,927,-12,708,-134
2191,336,2,908,-8,754,-139
2192,351,10,933,-12,799,-141
2193,349,17,943,-11,851,-150
2194,306,8,961,-12,904,-159
2195,256,11,948,-9,950,-174
2196,210,8,944,-9,989,-185
2197,221,20,935,-9,1017,-194
2198,217,23,950,-14,1043,-196
2199,213,22,947,-19,1072,-198
2200,184,12,956,-24,1105,-202
2201,134,1,952,-22,1134,-211
2202,86,-11,977,-15,1157,-224
2203,54,-23,972,-7,1166,-230
2204,54,-4,975,-3,1163,-230
2205,60,4,975,-1,1157,-226
2206,56,2,980,-5,1155,-221
2207,39,17,969,-7,1161,-219
2208,7,12,983,-8,1170,-223
2209,-22,20,1002,-5,1171,-232
2210,-36,40,1017,-6,1162,-234
2211,-11,80,1021,-16,1147,-230
2212,4,104,1017,-33,1131,-221
2213,27,120,1018,-56,1121,-212
2214,23,139,1015,-79,1124,-208
2215,-10,143,1033,-104,1131,-211
2216,19,135,1004,-124,1140,-218
2217,-282,-12,1115,-141,1137,-218
2218,-1796,-1722,1784,16,893,-205
2219,-873,-165,1578,653,292,-207
2220,27,200,1023,557,214,-329
2221,-20,408,608,429,233,-342
2222,273,297,752,230,260,-150
2223,240,250,831,119,300,-22
2224,-53,477,868,31,355,124
2225,220,525,827,-112,410,109
2226,156,268,1048,-193,492,37
2227,-124,681,1030,-227,566,83
2228,-736,449,1660,-366,515,82
2229,-483,-63,1269,-292,344,53
2230,-92,142,938,-231,337,-50
2231,192,-97,866,-274,381,-128
2232,-128,-262,961,-266,413,-47
2233,-4,-175,981,-246,357,6
2234,53,-320,994,-218,319,32
2235,93,-65,861,-176,339,90
2236,-70,-192,930,-173,371,58
2237,-116,-299,971,-98,366,21
2238,-110,-132,929,-17,361,-25
2239,41,-177,891,31,366,-73
2240,-19,-159,842,73,386,-87
2241,-12,-166,891,108,378,-78
2242,-82,-250,902,146,357,-72
2243,-112,-155,936,189,335,-42
2244,-148,-180,918,213,323,-43
2245,-143,-145,965,246,316,-35
2246,-113,-58,913,272,304,-44
2247,-202,116,1084,279,281,-38
2248,-256,457,1147,217,209,12
2249,-231,503,1063,103,158,84
2250,-171,425,915,25,148,69
2251,-142,386,892,-40,163,38
2252,-103,313,867,-120,160,40
2253,-246,176,935,-189,128,76
2254,-303,-77,938,-200,43,68
2255,-183,-181,960,-133,-32,18
2256,-93,-117,884,-74,-53,-11
2257,-144,-131,863,-72,-57,7
2258,-233,-178,873,-51,-72,23
2259,-298,-189,932,-12,-108,25
2260,-224,-109,904,30,-150,12
2261,-168,-79,870,48,-174,0
2262,-158,-12,829,65,-197,6
2263,-266,31,901,67,-232,13
2264,-344,95,962,59,-291,20
2265,-388,185,929,38,-351,27
2266,-293,191,859,9,-407,15
2267,-247,195,856,-19,-453,15
2268,-228,161,881,-56,-494,25
2269,-270,92,894,-88,-544,42
2270,-310,46,920,-107,-608,69
2271,-349,55,941,-124,-673,89
2272,-352,81,919,-146,-734,106
2273,-306,125,906,-174,-790,123
2274,-263,150,926,-209,-838,144
2275,-225,181,929,-248,-881,163
2276,-191,201,929,-288,-923,178
2277,-182,164,947,-325,-955,194
2278,-183,150,982,-370,-988,221
2279,205,-285,1325,-407,-1031,229
2280,1572,-1712,1936,-111,-814,98
2281,-159,-113,1342,440,-436,-102
2282,-245,-79,798,382,-525,-189
2283,-395,138,576,297,-669,-24
2284,-212,248,682,158,-780,236
2285,-446,127,692,28,-892,262
2286,-403,275,822,-40,-985,329
2287,275,-582,1473,-1,-1010,227
2288,76,-230,1562,317,-898,48
2289,-154,319,913,342,-893,67
2290,36,314,1115,169,-967,187
2291,-24,421,922,70,-978,261
2292,52,354,1030,-4,-958,235
2293,-21,264,926,-48,-942,208
2294,-154,252,937,-89,-949,236
2295,-30,211,943,-150,-985,228
2296,25,-64,1135,-183,-1013,213
2297,100,-100,1041,-133,-1035,182
2298,92,-211,1061,-92,-1050,156
2299,0,-232,870,-62,-1076,185
2300,0,-220,935,-41,-1107,219
2301,112,-221,1021,12,-1108,186
2302,9,-79,974,56,-1074,170
2303,142,48,965,64,-1058,172
2304,157,84,979,37,-1023,206
2305,173,146,934,14,-980,242
2306,161,147,922,-16,-943,249
2307,186,122,955,-43,-908,248
2308,176,88,968,-55,-880,239
2309,210,3,999,-60,-858,224
2310,202,-11,954,-52,-848,205
2311,240,-39,952,-45,-838,188
2312,270,-54,932,-34,-823,169
2313,292,-49,949,-24,-794,161
2314,316,-26,958,-12,-750,151
2315,332,-5,1014,-6,-698,148
2316,303,-11,947,-10,-643,164
2317,295,2,920,-23,-599,189
2318,303,22,890,-38,-556,197
2319,382,-6,906,-55,-508,200
2320,408,-6,903,-55,-443,195
2321,405,-20,957,-38,-373,180
2322,408,-9,965,-19,-309,156
2323,380,-27,958,-12,-253,136
2324,385,-10,910,-2,-205,127
2325,381,10,891,-3,-156,116
2326,422,4,893,-4,-107,102
2327,439,19,905,-2,-52,84
2328,468,22,953,3,9,60
2329,442,21,964,9,69,34
2330,417,20,946,7,126,11
2331,404,28,916,8,169,-11
2332,404,44,906,7,209,-29
2333,430,57,903,-3,251,-48
2334,451,65,940,-14,299,-61
2335,437,38,966,-26,361,-69
2336,370,-2,950,-29,426,-76
2337,335,-27,928,-18,487,-93
2338,321,-39,922,-11,538,-105
2339,325,-42,915,-1,579,-110
2340,359,-26,938,4,618,-110
2341,365,-7,951,7,667,-112
2342,334,3,974,9,716,-119
2343,273,13,951,11,763,-130
2344,239,29,942,9,801,-143
2345,229,47,944,8,832,-152
2346,230,53,956,-4,855,-159
2347,237,65,955,-13,879,-164
2348,220,58,951,-21,911,-172
2349,198,29,963,-30,943,-180
2350,141,7,974,-26,979,-190
2351,122,-13,966,-23,1007,-201
2352,112,-26,962,-15,1024,-206
2353,113,-26,950,-12,1024,-206
2354,143,-14,961,-13,1028,-205
2355,147,-24,970,-13,1040,-201
2356,120,-25,975,-8,1057,-205
2357,71,-15,969,-2,1075,-216
2358,63,-5,978,3,1086,-227
2359,57,8,971,9,1091,-230
2360,80,26,968,8,1089,-231
2361,97,53,968,3,1092,-231
2362,98,52,975,-7,1103,-229
2363,84,38,985,-15,1121,-231
2364,45,44,989,-17,1139,-237
2365,39,55,1009,-22,1149,-245
2366,31,73,1017,-30,1151,-250
2367,48,94,1010,-57,1147,-243
2368,76,124,996,-79,1143,-235
2369,76,125,1009,-96,1149,-229
2370,85,127,1007,-122,1166,-231
2371,-38,111,1008,-139,1188,-237
2372,-115,18,1102,-152,1171,-231
2373,-1763,-1712,1749,2,974,-228
2374,-923,-230,1588,733,305,-254
2375,31,222,1040,655,207,-400
2376,0,416,597,508,207,-436
2377,229,335,717,301,224,-251
2378,277,219,770,167,243,-137
2379,-73,449,841,91,281,48
2380,144,552,782,-40,319,53
2381,94,285,1047,-135,387,-42
2382,-60,603,940,-157,457,-13
2383,-487,853,1553,-289,454,-28
2384,-407,444,1269,-381,381,-33
2385,-424,24,1058,-396,368,-26
2386,-183,-340,1096,-340,304,-80
2387,-150,-327,1058,-275,269,-45
2388,71,-135,877,-290,272,28
2389,14,-344,932,-305,285,63
2390,-22,-250,908,-246,286,113
2391,-42,-230,929,-201,274,91
2392,15,-267,925,-124,274,58
2393,-45,-119,884,-55,302,21
2394,10,-218,927,-8,318,-38
2395,-1,-222,908,66,325,-75
2396,54,-154,910,117,329,-84
2397,46,-231,901,150,333,-95
2398,-26,-195,940,193,338,-67
2399,-79,-204,953,228,333,-58
2400,-84,-194,1001,265,327,-52
2401,-57,-84,950,297,330,-54
2402,-121,68,1086,308,330,-55
2403,-234,456,1223,262,271,-6
2404,-168,519,1116,150,208,85
2405,-79,489,962,71,203,70
2406,-15,404,915,-1,245,11
2407,-4,356,890,-88,271,13
2408,-77,319,921,-179,258,68
2409,-246,78,972,-247,216,96
2410,-278,-212,1055,-204,137,51
2411,-52,-191,966,-96,92,-20
2412,17,-127,888,-56,108,-42
2413,-53,-149,872,-53,124,-23
2414,-195,-259,929,-33,116,-4
2415,-195,-244,960,24,76,4
2416,-123,-135,915,67,50,3
2417,-104,-58,883,86,42,-5
2418,-192,76,929,94,22,-5
2419,-275,213,965,80,-23,6
2420,-293,266,932,42,-79,5
2421,-278,281,892,5,-121,-11
2422,-257,239,885,-38,-151,-26
2423,-269,148,902,-74,-189,-25
2424,-287,38,891,-94,-236,-15
2425,-284,-62,878,-100,-290,3
2426,-315,-100,838,-87,-351,26
2427,-359,-79,840,-75,-423,46
2428,-391,-49,831,-69,-497,47
2429,-374,-6,840,-61,-568,38
2430,-349,58,823,-58,-637,20
2431,-314,87,819,-67,-701,4
2432,-282,119,819,-85,-767,5
2433,-321,130,844,-111,-830,27
2434,-382,112,885,-139,-896,49
2435,-428,111,921,-161,-963,65
2436,-390,144,938,-188,-1031,76
2437,-331,178,927,-226,-1086,83
2438,-257,186,923,-273,-1128,100
2439,32,-69,1118,-329,-1152,145
2440,1696,-1754,1917,-145,-975,121
2441,47,-395,1505,550,-494,-51
2442,-505,35,740,565,-533,-196
2443,-587,263,494,451,-713,-171
2444,-338,153,719,271,-831,110
2445,-242,363,900,147,-952,238
2446,175,836,1772,15,-949,290
2447,166,747,1244,-88,-830,206
2448,-203,310,1169,-146,-832,227
2449,-490,303,537,-187,-924,310
2450,-215,-12,1058,-292,-1010,314
2451,90,-517,1162,-198,-1050,188
2452,4,-355,1195,-45,-1064,146
2453,147,-265,809,-6,-1128,180
2454,-163,-362,841,1,-1179,277
2455,90,-59,832,36,-1238,313
2456,230,-147,1250,70,-1202,207
2457,225,93,1001,113,-1126,194
2458,23,163,893,55,-1065,297
2459,110,133,917,17,-1040,328
2460,37,246,888,-26,-1017,342
2461,257,160,963,-82,-1004,332
2462,214,58,1013,-90,-968,299
2463,252,42,998,-72,-934,283
2464,223,-51,977,-62,-913,234
2465,203,-112,949,-42,-901,215
2466,226,-59,869,-27,-889,204
2467,334,-101,981,-12,-860,174
2468,319,-14,898,12,-813,161
2469,374,19,958,8,-759,162
2470,339,31,925,4,-699,153
2471,309,53,955,-7,-642,163
2472,323,43,928,-21,-592,154
2473,324,6,954,-26,-544,149
2474,348,32,900,-25,-496,150
2475,382,-1,973,-28,-448,135
2476,403,39,928,-23,-391,118
2477,387,13,946,-34,-329,113
2478,364,-7,929,-33,-273,102
2479,324,-22,939,-29,-221,98
2480,380,-10,924,-25,-175,86
2481,378,-24,943,-19,-129,72
2482,408,0,911,-12,-83,66
2483,402,6,931,-14,-35,50
2484,408,7,938,-9,15,34
2485,366,14,956,-7,63,20
2486,372,4,959,-2,104,-1
2487,347,25,944,3,138,-18
2488,377,37,931,-3,170,-34
2489,394,37,929,-10,212,-46
2490,382,45,925,-19,271,-53
2491,353,23,935,-26,334,-64
2492,327,-11,954,-29,389,-68
2493,314,-21,962,-22,435,-79
2494,314,-26,966,-14,480,-95
2495,293,-22,922,-5,527,-109
2496,307,-3,916,0,568,-111
2497,316,16,925,-2,610,-116
2498,299,16,976,-3,657,-123
2499,261,19,969,-1,705,-139
2500,229,15,969,-3,745,-152
2501,211,29,942,-2,772,-164
2502,213,29,956,-10,793,-170
2503,236,31,946,-17,817,-171
2504,228,17,960,-22,853,-172
2505,197,0,955,-22,886,-180
2506,139,-10,959,-19,918,-194
2507,140,-18,970,-9,943,-204
2508,127,-18,968,-4,955,-207
2509,141,-6,959,-2,960,-207
2510,163,9,966,-4,968,-205
2511,153,12,964,-7,981,-202
2512,123,11,967,-10,1006,-205
2513,82,7,965,-5,1030,-215
2514,63,4,977,-3,1045,-224
2515,60,2,985,-2,1051,-229
2516,70,5,980,1,1050,-229
2517,98,23,969,-2,1050,-222
2518,87,20,976,-9,1058,-217
2519,69,20,985,-12,1072,-218
2520,32,18,981,-11,1090,-226
2521,23,34,993,-9,1100,-238
2522,10,52,1002,-16,1101,-245
2523,51,67,1007,-26,1096,-246
2524,63,105,998,-42,1094,-241
2525,108,83,964,-62,1107,-236
2526,-11,103,1012,-72,1119,-236
2527,-675,-605,1336,-95,1105,-230
2528,-1816,-1291,1884,378,657,-263
2529,-514,564,1205,688,115,-403
2530,128,-58,745,551,74,-553
2531,24,371,544,504,48,-405
2532,388,415,768,326,52,-259
2533,51,173,756,202,69,-226
2534,133,578,703,83,94,-92
2535,190,317,822,-56,138,-112
2536,97,289,939,-107,207,-112
2537,-171,765,1036,-170,275,-88
2538,-473,677,1687,-307,262,-133
2539,-398,614,1187,-364,222,-125
2540,23,267,894,-438,241,-118
2541,157,38,786,-479,284,-125
2542,-658,-753,1318,-484,281,-17
2543,-479,-621,1380,-275,87,39
2544,31,-160,1076,-216,39,20
2545,229,58,639,-247,109,-22
2546,269,-50,789,-325,198,-17
2547,-28,-597,1022,-274,248,33
2548,-302,-269,1177,-79,210,98
2549,164,-64,998,-35,191,1
2550,123,-216,918,-24,281,-50
2551,59,-74,889,26,344,-40
2552,39,-267,1014,61,336,-95
2553,165,-168,952,141,319,-91
2554,150,-49,920,156,342,-75
2555,83,-176,1010,162,368,-76
2556,-62,-129,1038,205,385,-72
2557,37,-99,1067,232,389,-88
2558,99,-35,1010,259,413,-105
2559,50,117,1044,262,449,-98
2560,-124,333,1220,215,424,-84
2561,-94,477,1156,121,367,7
2562,-45,408,983,28,365,28
2563,-14,320,941,-26,403,-15
2564,-1,310,925,-82,433,-33
2565,-84,179,991,-149,422,-16
2566,-143,-14,980,-164,367,-1
2567,-68,-93,1005,-122,324,-32
2568,-29,-116,950,-78,333,-86
2569,-111,-140,957,-47,354,-111
2570,-147,-188,943,-20,351,-111
2571,-179,-169,953,19,333,-101
2572,-147,-95,890,42,306,-96
2573,-142,-81,877,51,279,-87
2574,-196,32,873,58,242,-61
2575,-284,109,880,41,182,-57
2576,-293,117,863,29,115,-73
2577,-338,145,858,20,62,-91
2578,-328,149,879,7,8,-106
2579,-329,126,885,-11,-45,-112
2580,-269,96,861,-32,-97,-104
2581,-247,60,830,-53,-146,-85
2582,-293,-19,854,-74,-198,-48
2583,-379,-90,878,-79,-262,-5
2584,-434,-115,884,-62,-333,27
2585,-418,-52,859,-49,-407,36
2586,-372,2,848,-49,-474,23
2587,-286,42,827,-58,-535,8
2588,-244,56,831,-74,-587,16
2589,-260,46,854,-85,-636,46
2590,-320,34,910,-93,-682,84
2591,-361,53,947,-102,-730,110
2592,-341,90,968,-115,-775,118
2593,-276,117,953,-142,-810,119
2594,-188,140,943,-171,-839,129
2595,-140,149,945,-206,-860,153
2596,-158,128,959,-241,-885,182
2597,-181,133,972,-263,-917,205
2598,-196,138,998,-293,-954,215
2599,-168,158,1009,-325,-982,220
2600,-123,108,1034,-363,-988,226
2601,999,-1020,1682,-358,-940,208
2602,1047,-1162,1851,201,-603,-29
2603,-175,119,1055,462,-404,-167
2604,-142,55,644,344,-500,-146
2605,-335,145,691,202,-567,86
2606,-117,290,657,58,-644,257
2607,-453,36,852,-43,-693,318
2608,-147,303,821,-87,-738,376
2609,243,-598,1561,-3,-724,194
2610,197,-66,1283,322,-682,-18
2611,-40,239,849,276,-688,62
2612,-112,85,803,154,-745,180
2613,-160,91,818,96,-780,279
2614,334,-210,1330,100,-797,209
2615,337,104,1386,171,-763,119
2616,94,246,913,92,-730,236
2617,-7,243,851,43,-728,229
2618,-14,327,905,6,-714,206
2619,95,351,928,-76,-701,203
2620,145,95,1133,-128,-684,200
2621,64,94,997,-108,-670,194
2622,130,-55,1052,-106,-683,161
2623,89,-150,931,-76,-707,127
2624,117,-152,913,-53,-728,135
2625,245,-180,956,-20,-717,110
2626,141,-145,971,10,-670,116
2627,161,-30,922,37,-638,105
2628,245,-24,1041,36,-606,95
2629,195,66,940,34,-556,123
2630,167,112,932,19,-513,131
2631,220,132,934,-2,-480,123
2632,219,144,955,-30,-449,121
2633,270,94,993,-46,-420,105
2634,208,35,1012,-51,-396,86
2635,205,0,973,-51,-383,74
2636,213,-55,977,-46,-373,56
2637,224,-75,948,-35,-356,47
2638,248,-55,936,-22,-326,41
2639,273,-47,938,-13,-285,35
2640,262,-15,944,-4,-240,35
2641,282,-9,982,-2,-193,35
2642,261,-5,976,-3,-145,41
2643,238,16,949,2,-107,43
2644,262,24,933,-4,-77,34
2645,306,44,947,-7,-45,18
2646,329,53,941,-12,-5,4
2647,341,36,959,-19,42,-11
2648,310,21,949,-22,94,-25
2649,314,2,966,-23,140,-38
2650,308,-17,957,-22,185,-51
2651,315,-27,931,-19,229,-62
2652,338,-6,903,-15,278,-73
2653,347,-5,926,-14,334,-80
2654,342,13,940,-12,392,-91
2655,316,8,958,-12,454,-104
2656,296,14,951,-5,506,-119
2657,270,11,965,-2,556,-132
2658,286,19,946,-3,597,-144
2659,292,26,928,-7,638,-145
2660,297,21,926,-14,682,-148
2661,281,13,954,-18,732,-157
2662,257,-3,956,-15,781,-169
2663,227,-14,967,-11,824,-178
2664,191,-23,949,-5,860,-185
2665,185,-3,936,1,890,-185
2666,197,13,944,0,917,-189
2667,207,13,951,-3,944,-191
2668,203,15,963,-4,971,-193
2669,170,5,969,-7,999,-197
2670,128,6,985,-4,1022,-203
2671,87,4,974,-4,1039,-209
2672,96,23,965,-9,1049,-215
2673,112,36,966,-12,1060,-218
2674,133,35,977,-21,1078,-218
2675,131,61,979,-28,1102,-217
2676,107,70,992,-35,1129,-219
2677,77,90,1002,-42,1150,-226
2678,59,112,1012,-58,1165,-232
2679,-88,14,1085,-84,1173,-238
2680,-1782,-1574,1778,84,964,-236
2681,-964,350,1567,635,277,-248
2682,140,-197,893,480,201,-377
2683,77,317,543,503,227,-297
2684,221,350,793,344,299,-111
2685,286,232,846,198,354,-125
2686,13,348,845,104,425,-24
2687,377,348,741,-16,486,26
2688,148,235,1028,-87,572,-8
2689,-189,648,983,-117,633,51
2690,-570,784,1526,-274,560,77
2691,-309,335,1139,-334,454,84
2692,-125,290,785,-319,478,37
2693,209,166,815,-366,524,-77
2694,-329,-338,1014,-409,548,-83
2695,-429,-633,1233,-305,378,-5
2696,0,-409,1155,-153,247,-19
2697,180,-139,801,-125,313,-11
2698,41,-144,735,-159,404,-14
2699,-86,-536,1007,-112,426,-14
2700,-181,-319,1007,47,384,-24
2701,134,-150,915,115,367,-63
2702,161,-201,820,144,418,-99
2703,-12,-159,884,183,465,-69
2704,-228,-158,1032,225,440,-90
2705,-326,159,1235,238,351,-57
2706,-226,391,1028,171,295,-1
2707,-125,169,989,85,296,0
2708,-95,266,906,70,312,25
2709,-70,250,965,7,308,54
2710,-61,218,870,-63,285,79
2711,-100,205,895,-113,276,112
2712,-155,203,903,-158,266,113
2713,-357,49,1013,-184,231,103
2714,-297,-105,974,-142,145,65
2715,-71,-128,942,-77,93,-5
2716,22,-98,842,-44,107,-50
2717,-78,-212,881,-31,124,-44
2718,-195,-185,963,16,95,-4
2719,-254,-92,994,45,50,26
2720,-176,-9,940,48,22,28
2721,-229,45,937,45,15,17
2722,-191,125,925,32,-17,5
2723,-169,130,918,9,-54,2
2724,-171,134,898,-7,-85,19
2725,-239,172,896,-29,-113,33
2726,-282,112,932,-55,-149,38
2727,-306,51,935,-64,-190,39
2728,-252,-2,915,-65,-232,37
2729,-187,-40,880,-62,-270,32
2730,-159,-47,886,-60,-304,45
2731,-165,-78,892,-58,-342,71
2732,-216,-64,919,-49,-379,103
2733,-251,-34,930,-42,-416,118
2734,-254,-12,951,-35,-448,116
2735,-222,36,936,-33,-475,103
2736,-171,100,949,-47,-502,86
2737,-119,92,933,-72,-529,75
2738,-110,73,934,-96,-553,95
2739,-146,89,945,-106,-583,128
2740,-196,116,985,-121,-617,150
2741,-203,162,994,-143,-650,147
2742,-180,177,1010,-182,-678,131
2743,-125,196,1003,-225,-698,118
2744,-97,173,1000,-269,-712,119
2745,-85,161,989,-303,-725,138
2746,-124,160,985,-335,-743,165
2747,-156,155,1015,-366,-765,183
2748,-184,141,1021,-396,-790,186
2749,-148,128,1026,-427,-807,185
2750,-70,82,1044,-455,-808,196
2751,908,-1126,1805,-408,-757,154
2752,628,-762,1758,113,-494,-100
2753,-109,4,1027,241,-389,-173
2754,-169,-9,728,148,-481,-98
2755,-264,40,779,32,-543,126
2756,-129,152,744,-71,-611,225
2757,-352,-34,893,-127,-658,266
2758,-160,250,719,-145,-696,298
2759,12,-199,1204,-152,-705,239
2760,195,-341,1222,42,-688,114
2761,111,41,1161,161,-667,35
2762,67,-105,919,130,-688,72
2763,-197,85,807,90,-714,182
2764,86,25,877,36,-753,213
2765,86,-282,1068,60,-750,138
2766,175,-24,979,159,-735,101
2767,179,-80,977,166,-722,77
2768,122,-62,948,165,-720,108
2769,62,28,886,164,-719,129
2770,232,-124,1086,169,-705,98
2771,75,28,948,207,-662,88
2772,127,47,926,200,-640,95
2773,185,37,931,187,-627,74
2774,169,43,945,177,-599,96
2775,231,16,953,178,-569,72
2776,203,-21,1031,183,-523,58
2777,186,57,956,192,-487,46
2778,320,134,1165,169,-457,39
2779,362,266,1123,126,-404,38
2780,283,303,1010,69,-335,52
2781,215,291,902,26,-287,43
2782,132,264,893,-27,-258,38
2783,146,247,854,-95,-241,36
2784,187,98,987,-147,-218,32
2785,272,-26,1080,-134,-182,8
2786,282,-89,1097,-92,-143,-38
2787,246,-97,938,-63,-120,-54
2788,187,-85,863,-61,-107,-26
2789,229,-133,888,-61,-90,-5
2790,219,-177,949,-26,-51,-20
2791,226,-130,970,24,-2,-40
2792,191,-83,958,52,37,-54
2793,236,-7,959,61,58,-41
2794,275,73,969,51,88,-29
2795,304,121,990,35,128,-33
2796,291,167,950,15,181,-43
2797,288,147,961,-14,234,-52
2798,257,120,958,-31,292,-67
2799,240,78,956,-40,349,-79
2800,267,47,930,-44,405,-101
2801,281,11,931,-43,460,-114
2802,301,-11,914,-42,512,-121
2803,311,-41,927,-37,569,-127
2804,314,-61,933,-23,628,-134
2805,288,-74,957,-7,688,-145
2806,258,-57,933,15,745,-161
2807,245,-10,913,28,800,-171
2808,253,26,897,31,852,-180
2809,262,41,908,25,904,-186
2810,282,57,941,10,954,-189
2811,272,31,989,-2,1004,-196
2812,232,19,984,0,1052,-204
2813,179,35,958,6,1090,-218
2814,151,74,952,4,1119,-235
2815,152,90,949,-15,1145,-247
2816,176,83,967,-35,1165,-254
2817,179,72,984,-53,1185,-257
2818,172,47,1032,-67,1203,-261
2819,119,51,1030,-74,1220,-264
2820,-817,-737,1374,-85,1208,-271
2821,-1716,-1056,1906,417,633,-320
2822,-38,272,1058,600,142,-377
2823,164,-143,781,564,216,-394
2824,-18,385,606,532,251,-210
2825,359,454,823,340,301,-121
2826,-23,110,867,206,361,-124
2827,223,483,714,80,420,36
2828,129,253,912,-40,492,47
2829,-327,527,1346,-100,517,93
2830,-390,809,1113,-230,445,180
2831,-12,200,1184,-315,404,136
2832,-66,382,749,-273,456,73
2833,64,330,895,-360,500,48
2834,91,157,897,-450,495,15
2835,-516,-217,1196,-489,458,102
2836,-343,-591,1262,-353,262,58
2837,142,-279,1240,-173,202,-55
2838,367,-32,714,-141,323,-82
2839,187,-118,872,-169,447,-85
2840,-68,-409,968,-126,475,-99
2841,-143,-403,1100,-12,416,-102
2842,247,-179,932,66,384,-109
2843,165,-191,875,86,450,-99
2844,95,-109,842,115,506,-93
2845,-116,-316,1013,159,513,-138
2846,-81,-203,994,253,485,-155
2847,-259,138,1091,277,470,-160
2848,-231,269,1092,204,402,-94
2849,-233,375,993,126,346,1
2850,-103,341,950,64,333,3
2851,-95,294,872,5,347,-46
2852,-65,283,878,-55,346,-45
2853,-147,262,858,-126,322,-12
2854,-260,187,936,-184,282,30
2855,-430,-49,998,-194,220,25
2856,-327,-194,1005,-132,147,-25
2857,-119,-184,856,-64,121,-75
2858,-78,-153,847,-20,122,-73
2859,-127,-148,821,-7,110,-56
2860,-236,-199,904,2,73,-33
2861,-307,-181,930,28,17,-4
2862,-323,-89,950,50,-29,15
2863,-298,-11,878,67,-65,6
2864,-256,109,880,68,-103,-3
2865,-225,186,879,51,-149,-8
2866,-246,208,903,17,-193,-3
2867,-261,225,881,-24,-235,6
2868,-321,154,922,-65,-271,14
2869,-352,81,914,-83,-318,23
2870,-341,-21,900,-93,-373,27
2871,-249,-66,858,-81,-434,35
2872,-229,-38,851,-74,-492,63
2873,-221,-8,858,-86,-547,91
2874,-293,-16,872,-97,-595,107
2875,-334,-8,909,-96,-646,120
2876,-361,25,924,-91,-696,121
2877,-315,69,902,-95,-741,114
2878,-229,99,905,-107,-779,114
2879,-167,112,904,-137,-810,135
2880,-176,135,910,-165,-855,158
2881,-212,111,927,-201,-891,185
2882,-253,106,966,-223,-937,209
2883,-261,126,983,-248,-986,220
2884,-211,157,973,-278,-1026,221
2885,-163,183,990,-319,-1054,219
2886,-41,97,1061,-366,-1071,222
2887,1527,-1556,1878,-258,-956,161
2888,461,-583,1667,421,-528,-50
2889,-293,63,930,486,-483,-137
2890,-358,280,679,358,-625,-112
2891,-215,168,817,179,-703,125
2892,-130,223,724,39,-790,245
2893,-411,121,902,-26,-845,351
2894,-170,408,663,-75,-901,393
2895,-23,-125,1296,-120,-932,312
2896,243,-362,1301,104,-911,160
2897,92,28,1282,240,-878,70
2898,27,-86,873,218,-912,116
2899,-288,143,791,167,-963,236
2900,257,243,1008,83,-1024,259
2901,258,117,1348,37,-961,167
2902,212,325,922,19,-872,171
2903,76,149,902,-31,-834,196
2904,22,172,928,-59,-828,227
2905,4,197,920,-119,-837,244
2906,231,-138,1154,-133,-841,183
2907,75,-51,963,-55,-826,141
2908,200,-92,945,-45,-837,155
2909,157,-137,916,-35,-837,145
2910,147,-104,934,-22,-827,174
2911,232,-68,976,3,-795,126
2912,195,-44,1027,21,-738,109
2913,177,46,892,26,-697,121
2914,248,15,992,9,-659,137
2915,222,104,892,9,-614,142
2916,257,110,944,-18,-575,149
2917,300,86,949,-33,-536,127
2918,255,49,993,-40,-496,125
2919,291,38,956,-45,-466,112
2920,248,-43,1010,-43,-444,93
2921,264,-17,917,-32,-425,83
2922,313,-40,955,-30,-397,67
2923,345,-41,911,-18,-354,55
2924,327,-21,932,-15,-300,56
2925,364,-26,949,-9,-243,47
2926,320,-27,965,-4,-182,51
2927,322,-7,935,3,-131,52
2928,331,4,940,4,-88,37
2929,375,38,927,6,-47,28
2930,392,56,936,0,1,9
2931,404,58,935,-13,57,-6
2932,376,56,932,-24,116,-18
2933,365,15,969,-33,173,-30
2934,320,-11,944,-31,223,-41
2935,338,-21,946,-28,267,-50
2936,339,-26,928,-23,312,-61
2937,342,-29,931,-21,363,-65
2938,339,-10,916,-15,418,-73
2939,319,-20,951,-9,478,-79
2940,285,-5,947,-1,529,-89
2941,266,-5,979,1,572,-100
2942,267,18,949,7,607,-114
2943,268,22,944,2,642,-122
2944,279,29,925,-4,679,-126
2945,271,35,950,-10,722,-129
2946,260,24,969,-11,767,-138
2947,202,14,966,-12,812,-150
2948,190,6,950,-10,846,-166
2949,187,5,959,-10,871,-180
2950,203,-5,943,-12,893,-186
2951,221,-10,949,-12,919,-190
2952,216,-12,937,-7,956,-191
2953,181,-9,954,-3,992,-199
2954,139,-8,960,-1,1025,-213
2955,116,1,963,4,1049,-230
2956,119,13,963,5,1066,-245
2957,123,7,963,0,1079,-252
2958,138,20,958,-3,1092,-253
2959,127,21,951,-6,1116,-249
2960,108,11,964,-4,1141,-252
2961,52,15,975,-3,1166,-260
2962,47,29,1001,-2,1179,-274
2963,34,47,996,-7,1183,-286
2964,50,51,989,-18,1184,-286
2965,54,79,981,-30,1184,-277
2966,-114,-122,1097,-49,1194,-267
2967,-1818,-1412,1736,173,922,-254
2968,-938,702,1315,618,119,-284
2969,32,-272,768,458,44,-468
2970,-104,329,448,524,15,-366
2971,209,356,784,330,38,-178
2972,139,216,758,198,51,-188
2973,-13,376,743,55,83,-34
2974,274,355,636,-87,104,36
2975,40,186,976,-165,169,41
2976,83,418,592,-211,240,109
2977,123,280,969,-292,316,63
2978,-343,555,1257,-300,376,8
2979,-1037,772,1788,-444,274,103
2980,-390,-87,1356,-450,73,117
2981,-136,-92,966,-329,66,8
2982,140,12,839,-350,118,-38
2983,-101,-527,1097,-386,137,-40
2984,5,-278,1024,-285,93,56
2985,148,-138,937,-279,93,87
2986,265,-256,957,-276,130,103
2987,34,-162,920,-217,183,119
2988,111,-239,1014,-157,196,74
2989,56,-236,966,-70,214,10
2990,113,-129,960,5,255,-20
2991,80,-229,945,41,300,-90
2992,75,-229,995,110,324,-114
2993,118,-180,919,164,341,-132
2994,123,-231,993,199,359,-124
2995,60,-148,913,236,373,-107
2996,5,-189,1018,256,378,-90
2997,-13,-143,979,293,375,-90
2998,-24,-70,1008,321,386,-86
2999,2,21,997,335,398,-107
3000,-280,379,1297,311,373,-87
3001,-187,548,1211,183,284,7
3002,-82,345,1006,76,272,72
3003,-64,381,883,42,316,66
3004,-78,358,905,-43,344,39
3005,-34,263,896,-135,335,60
3006,-83,243,916,-201,315,111
3007,-258,44,992,-238,274,114
3008,-258,-136,1041,-177,179,39
3009,-24,-50,967,-99,136,-53
3010,16,-69,902,-66,167,-98
3011,-92,-70,892,-55,188,-83
3012,-160,-142,946,-49,169,-75
3013,-138,-177,963,-18,123,-56
3014,-110,-68,895,6,94,-26
3015,-111,-39,871,3,76,-17
3016,-202,-55,853,9,56,-17
3017,-285,-74,888,27,22,-15
3018,-351,-51,897,56,-27,-24
3019,-349,18,895,72,-78,-37
3020,-316,68,860,65,-134,-60
3021,-273,81,862,46,-194,-67
3022,-238,141,833,20,-258,-45
3023,-259,128,859,-15,-318,-16
3024,-303,106,871,-44,-376,14
3025,-359,64,899,-66,-435,42
3026,-363,70,923,-71,-501,58
3027,-361,119,937,-84,-564,54
3028,-283,169,903,-115,-625,36
3029,-228,194,875,-157,-683,24
3030,-212,176,860,-206,-734,40
3031,-253,138,889,-245,-786,79
3032,-317,91,936,-269,-835,124
3033,-321,95,982,-291,-880,160
3034,-290,155,981,-308,-942,156
3035,-223,188,963,-352,-990,132
3036,-145,167,949,-404,-1018,127
3037,593,-600,1425,-448,-1025,147
3038,1419,-1575,1936,-22,-708,63
3039,-373,152,1169,435,-373,-67
3040,-285,68,832,339,-510,-172
3041,-459,264,739,161,-633,-64
3042,-5,207,779,11,-725,124
3043,-360,7,834,-81,-799,208
3044,-242,363,760,-117,-876,320
3045,-159,72,950,-177,-931,271
3046,284,-495,1553,-44,-919,134
3047,-43,102,1082,180,-835,33
3048,-38,-93,1054,147,-855,35
3049,-283,136,712,124,-931,83
3050,36,38,900,49,-1014,169
3051,220,-224,1055,35,-1019,149
3052,-4,-168,1033,97,-954,188
3053,59,8,882,149,-935,123
3054,24,-126,1088,133,-921,82
3055,-27,-22,801,143,-931,106
3056,167,-113,1099,142,-952,94
3057,282,98,1122,177,-925,86
3058,223,304,1121,141,-861,98
3059,302,315,981,80,-809,75
3060,135,173,958,34,-759,97
3061,165,235,840,5,-734,134
3062,124,158,961,-38,-711,140
3063,180,187,907,-77,-695,146
3064,200,180,945,-131,-675,140
3065,332,4,988,-159,-650,118
3066,308,-41,997,-131,-607,83
3067,384,-126,1011,-86,-566,46
3068,249,-158,949,-58,-532,47
3069,240,-140,893,-39,-508,62
3070,273,-132,929,-12,-476,31
3071,299,-104,940,8,-431,25
3072,308,-19,906,26,-384,14
3073,375,6,968,27,-334,10
3074,353,69,949,25,-279,15
3075,336,72,976,11,-218,36
3076,283,99,947,4,-161,38
3077,262,91,954,-10,-119,36
3078,287,89,917,-24,-90,24
3079,324,61,964,-38,-61,10
3080,347,45,939,-45,-24,-4
3081,351,-10,982,-48,25,-12
3082,294,-40,931,-41,77,-15
3083,273,-65,960,-32,119,-17
3084,279,-62,962,-16,153,-29
3085,278,-63,964,-8,185,-34
3086,306,-20,916,5,221,-44
3087,309,-8,933,4,264,-52
3088,309,23,926,6,314,-58
3089,293,32,960,4,367,-63
3090,297,38,971,0,417,-73
3091,259,36,966,-1,461,-89
3092,285,45,946,-2,501,-107
3093,295,44,929,-9,545,-118
3094,309,28,918,-13,591,-124
3095,304,23,934,-18,643,-130
3096,290,6,960,-15,699,-141
3097,251,-3,966,-13,747,-159
3098,224,-15,958,-9,784,-175
3099,226,0,938,-4,814,-186
3100,241,1,938,-7,842,-192
3101,247,0,948,-8,874,-194
3102,237,6,949,-8,912,-192
3103,200,6,953,-5,951,-199
3104,152,6,966,0,986,-212
3105,120,5,960,3,1011,-228
3106,123,20,962,7,1028,-243
3107,121,42,949,6,1046,-248
3108,141,36,960,-4,1063,-245
3109,132,32,964,-14,1084,-237
3110,114,-2,998,-21,1102,-231
3111,63,-16,986,-15,1120,-236
3112,44,-8,979,-8,1130,-248
3113,45,20,981,-3,1135,-259
3114,55,41,973,-7,1144,-261
3115,78,69,962,-18,1152,-258
3116,83,67,969,-34,1165,-247
3117,112,53,998,-45,1180,-240
3118,-863,-763,1310,-46,1177,-235
3119,-1758,-804,1890,422,587,-233
3120,-304,374,1003,535,107,-303
3121,181,-220,700,518,146,-362
3122,-9,358,558,505,194,-162
3123,423,414,828,328,249,-72
3124,11,100,787,183,322,-66
3125,217,493,684,50,390,93
3126,93,279,981,-82,466,103
3127,-515,646,1496,-163,472,183
3128,-427,776,1158,-295,376,290
3129,33,146,1108,-343,361,207
3130,3,365,685,-293,437,115
3131,136,331,896,-391,484,101
3132,-245,-87,1039,-499,458,103
3133,-716,-595,1312,-400,272,156
3134,134,-253,1116,-227,107,36
3135,419,-228,1004,-179,214,-40
3136,277,-47,700,-155,373,5
3137,-12,-370,1046,-154,436,-19
3138,-5,-520,1066,-15,374,-83
3139,192,-146,937,76,366,-50
3140,298,-242,892,73,415,-59
3141,-18,-289,942,134,478,-44
3142,34,-197,942,200,481,-77
3143,54,-298,1057,269,485,-132
3144,-177,254,1136,314,489,-110
3145,-222,410,1171,195,432,-44
3146,-186,345,1045,108,394,52
3147,-223,405,944,62,407,66
3148,-94,297,888,-21,417,19
3149,-60,178,856,-88,409,21
3150,-53,238,848,-133,383,86
3151,-231,136,926,-194,349,105
3152,-357,-101,977,-181,268,79
3153,-224,-138,939,-103,197,13
3154,-96,-210,921,-37,193,-66
3155,-151,-169,871,8,205,-88
3156,-128,-157,933,19,180,-64
3157,-114,-126,933,38,138,-20
3158,-132,16,921,38,112,33
3159,-196,44,941,20,97,40
3160,-298,89,1000,20,74,38
3161,-303,152,938,10,37,21
3162,-230,117,901,-4,1,0
3163,-186,134,860,-17,-34,-4
3164,-166,102,885,-42,-66,3
3165,-176,57,899,-59,-103,13
3166,-248,30,935,-62,-132,23
3167,-271,-40,942,-58,-170,19
3168,-283,-68,944,-47,-204,19
3169,-229,-53,905,-35,-237,19
3170,-191,-63,895,-28,-270,22
3171,-151,-37,881,-17,-304,36
3172,-148,0,896,-18,-336,54
3173,-179,21,908,-25,-373,73
3174,-234,33,923,-29,-415,96
3175,-283,65,931,-40,-455,107
3176,-283,90,947,-50,-496,100
3177,-252,121,941,-62,-533,91
3178,-210,137,932,-85,-566,87
3179,-173,168,920,-111,-599,98
3180,-187,165,933,-154,-635,121
3181,-216,144,954,-192,-679,151
3182,-250,149,970,-226,-727,179
3183,-217,168,998,-261,-773,197
3184,-192,193,1024,-303,-807,201
3185,-141,196,1013,-355,-826,199
3186,-80,154,1012,-400,-828,208
3187,-56,116,994,-444,-830,237
3188,-99,119,1009,-464,-843,266
3189,-139,88,1027,-491,-852,280
3190,11,-76,1227,-507,-867,283
3191,1180,-1552,1923,-314,-749,149
3192,225,-317,1574,238,-470,-101
3193,-72,-65,993,238,-464,-137
3194,-227,117,757,139,-554,-54
3195,-87,67,779,3,-611,149
3196,-168,30,743,-83,-671,221
3197,-306,63,844,-113,-706,295
3198,-193,134,724,-128,-735,295
3199,-156,10,990,-132,-756,228
3200,-90,-4,792,-93,-775,211
3201,277,-423,1331,-28,-777,163
3202,281,-331,1189,180,-736,39
3203,64,-169,943,220,-725,78
3204,37,-64,755,211,-751,123
3205,-79,-166,854,194,-768,156
3206,158,-69,891,199,-786,143
3207,198,-302,1125,236,-757,79
3208,214,-131,933,305,-725,69
3209,156,-66,956,309,-708,85
3210,167,-107,903,319,-701,102
3211,83,1,923,335,-682,115
3212,199,-50,980,354,-660,94
3213,183,53,1057,372,-624,81
3214,542,455,1384,334,-563,84
3215,471,480,1291,215,-432,68
3216,240,319,938,149,-350,89
3217,75,281,818,131,-342,98
3218,64,267,873,80,-349,81
3219,41,279,852,14,-348,50
3220,147,222,941,-57,-348,30
3221,194,231,955,-103,-339,13
3222,261,212,996,-136,-324,9
3223,263,223,941,-167,-301,2
3224,243,175,960,-206,-270,0
3225,307,31,1008,-238,-225,-3
3226,365,-233,1135,-224,-155,1
3227,238,-307,1009,-143,-89,-7
3228,156,-276,906,-79,-52,-39
3229,165,-250,817,-48,-44,-51
3230,197,-287,857,-20,-34,-35
3231,273,-281,941,40,-9,-29
3232,272,-163,1030,97,34,-30
3233,270,16,1019,117,73,-38
3234,260,99,1018,104,104,-46
3235,264,185,962,87,141,-49
3236,265,243,953,53,178,-48
3237,255,251,926,11,213,-53
3238,231,243,919,-35,249,-67
3239,246,200,930,-77,287,-82
3240,287,96,998,-106,334,-88
3241,286,-27,1011,-108,399,-96
3242,249,-92,949,-81,465,-121
3243,238,-113,883,-57,515,-147
3244,266,-148,876,-38,558,-162
3245,308,-168,904,-10,607,-165
3246,313,-158,951,21,657,-164
3247,293,-99,980,51,708,-164
3248,246,-22,958,69,760,-172
3249,238,68,934,70,805,-183
3250,236,137,922,54,850,-193
3251,259,172,945,20,892,-200
3252,250,177,947,-15,939,-204
3253,240,126,976,-43,984,-216
3254,194,61,982,-50,1024,-238
3255,155,-2,970,-44,1058,-259
3256,146,-13,956,-39,1082,-273
3257,155,-21,963,-35,1103,-277
3258,170,-13,958,-39,1121,-270
3259,172,-6,977,-48,1137,-260
3260,142,-8,997,-48,1153,-254
3261,97,11,1001,-51,1168,-250
3262,-791,-764,1367,-49,1156,-257
3263,-1714,-856,1890,443,617,-262
3264,-315,416,1027,564,150,-361
3265,187,-266,700,552,154,-457
3266,44,292,517,562,177,-248
3267,377,364,801,401,210,-135
3268,3,77,791,290,249,-135
3269,182,465,701,158,290,7
3270,234,158,836,44,337,-15
3271,-144,420,1188,10,395,1
3272,-489,953,1313,-98,382,33
3273,-279,380,1441,-212,325,-21
3274,-97,369,798,-186,342,-48
3275,141,241,847,-240,400,-42
3276,164,161,845,-326,432,-52
3277,-33,182,950,-419,449,56
3278,66,181,936,-497,431,130
3279,-396,-136,1291,-519,428,121
3280,-596,-595,1199,-370,303,55
3281,-43,-451,1156,-173,185,-80
3282,253,-266,721,-90,236,-119
3283,69,-171,709,-73,335,-82
3284,-43,-396,900,-55,358,-93
3285,-254,-591,1070,60,316,-106
3286,66,-196,893,164,277,-83
3287,37,-296,885,175,311,-99
3288,-276,57,1004,214,322,-56
3289,-387,254,1138,154,237,-5
3290,-223,221,1038,102,162,62
3291,-227,321,924,90,158,59
3292,-24,280,928,26,169,19
3293,11,155,899,-42,173,17
3294,32,217,914,-90,169,99
3295,-38,233,920,-159,163,143
3296,-273,42,1069,-195,145,143
3297,-255,-98,1024,-145,79,85
3298,31,-176,1031,-72,52,-14
3299,140,-114,910,-13,92,-78
3300,94,-124,978,4,138,-74
3301,35,-117,1006,20,140,-57
3302,-19,-48,1046,27,118,-7
3303,-1,30,982,21,114,22
3304,-138,35,1037,16,130,12
3305,-152,112,978,19,124,-12
3306,-111,99,999,8,108,-36
3307,-53,112,936,5,93,-37
3308,-91,141,919,-19,89,-26
3309,-113,98,905,-50,71,-18
3310,-223,37,954,-60,43,-6
3311,-245,11,962,-55,3,-1
3312,-221,-42,958,-48,-28,-20
3313,-168,-17,921,-32,-49,-34
3314,-153,-32,925,-31,-65,-46
3315,-139,-40,914,-26,-82,-43
3316,-173,-21,902,-19,-111,-21
3317,-194,-30,908,-23,-154,9
3318,-253,-13,901,-22,-196,37
3319,-247,11,921,-26,-240,51
3320,-242,25,922,-28,-279,48
3321,-212,50,920,-30,-312,44
3322,-188,76,896,-45,-340,41
3323,-197,46,900,-61,-369,53
3324,-238,43,910,-72,-408,80
3325,-277,44,939,-82,-457,106
3326,-257,70,949,-90,-512,116
3327,-223,94,965,-111,-554,120
3328,-178,114,951,-135,-584,122
3329,-148,134,933,-161,-609,126
3330,-139,132,916,-190,-633,138
3331,-167,122,919,-217,-656,155
3332,-197,78,949,-242,-678,181
3333,-224,73,993,-252,-734,190
3334,-196,97,1000,-260,-783,183
3335,-138,98,993,-286,-807,180
3336,-107,99,993,-306,-825,184
3337,-62,73,1015,-331,-839,197
3338,1031,-1251,1831,-278,-787,168
3339,544,-755,1734,245,-491,-13
3340,-254,51,1032,365,-416,-94
3341,-275,100,755,273,-536,-98
3342,-235,81,813,153,-622,62
3343,-94,152,741,61,-710,154
3344,-334,16,855,25,-768,220
3345,-179,298,685,3,-823,265
3346,-24,-159,1213,-31,-851,209
3347,230,-424,1306,140,-806,124
3348,-15,-25,1163,267,-740,90
3349,-28,-76,894,255,-777,82
3350,-200,93,759,226,-821,141
3351,144,9,835,169,-867,188
3352,301,-48,1317,175,-846,168
3353,405,434,1318,170,-739,154
3354,173,248,1063,74,-644,132
3355,35,93,869,56,-624,160
3356,-14,242,834,54,-635,204
3357,143,154,994,4,-646,184
3358,57,199,914,-25,-633,155
3359,198,200,928,-68,-617,150
3360,188,123,967,-100,-591,123
3361,169,106,988,-121,-565,140
3362,262,28,1037,-127,-541,126
3363,248,-124,1084,-108,-517,100
3364,184,-137,889,-83,-506,105
3365,266,-207,961,-62,-492,84
3366,223,-180,877,-28,-450,65
3367,236,-141,931,-1,-404,56
3368,289,-87,980,26,-353,30
3369,264,-49,1004,35,-305,46
3370,262,43,947,48,-264,61
3371,242,76,973,44,-226,66
3372,252,173,897,24,-193,68
3373,271,169,957,-6,-158,50
3374,289,139,954,-30,-120,31
3375,251,101,973,-38,-82,26
3376,277,30,991,-61,-50,14
3377,210,-43,991,-65,-22,9
3378,236,-84,951,-53,0,4
3379,239,-113,941,-35,32,-9
3380,245,-109,918,-17,72,-13
3381,247,-78,952,2,113,-23
3382,249,-46,981,15,151,-29
3383,214,13,984,23,179,-31
3384,209,37,992,21,203,-38
3385,198,81,955,13,225,-46
3386,207,98,954,-1,251,-55
3387,215,98,952,-13,279,-70
3388,233,78,969,-31,312,-71
3389,208,26,960,-41,350,-68
3390,160,-14,990,-36,387,-63
3391,129,-38,971,-27,408,-65
3392,147,-51,984,-17,421,-75
3393,147,-35,946,-4,442,-94
3394,175,-31,950,-1,469,-110
3395,200,-13,953,3,499,-115
3396,197,-4,990,4,529,-109
3397,163,21,979,8,556,-111
3398,142,41,978,7,580,-117
3399,148,57,969,4,597,-124
3400,157,49,965,-6,617,-131
3401,181,49,946,-14,641,-139
3402,186,33,944,-18,678,-144
3403,173,9,964,-18,716,-149
3404,137,-6,975,-16,749,-155
3405,137,-13,977,-8,774,-168
3406,135,-22,965,-7,789,-176
3407,149,-27,953,-7,805,-180
3408,188,-16,964,-3,824,-176
3409,181,-4,952,0,853,-171
3410,164,6,957,3,885,-171
3411,131,16,962,8,919,-178
3412,121,25,978,9,948,-188
3413,119,24,979,7,969,-200
3414,131,20,964,3,987,-205
3415,186,30,934,-3,1005,-202
3416,-372,-360,1215,-11,1032,-194
3417,-1786,-660,1933,241,629,-162
3418,-487,502,1030,382,50,-189
3419,250,-373,715,369,65,-349
3420,31,232,511,436,93,-223
3421,452,225,861,292,147,-124
3422,191,48,794,189,195,-160
3423,281,312,743,98,263,-32
3424,429,145,740,-10,326,-25
3425,-69,359,1261,-50,419,-2
3426,-606,972,1475,-140,409,59
3427,-373,412,1585,-272,341,19
3428,30,175,825,-213,371,-50
3429,230,153,833,-222,464,-66
3430,302,114,831,-299,514,-76
3431,-57,78,951,-391,531,35
3432,-475,-475,1221,-434,452,142
3433,-431,-677,1323,-203,299,76
3434,191,-206,879,-42,298,-47
3435,258,-211,768,-34,421,-147
3436,113,-400,824,24,513,-166
3437,-180,-401,1011,129,510,-186
3438,-62,-159,1139,204,410,-167
3439,-29,144,968,176,377,-69
3440,-133,260,979,106,388,-9
3441,-233,257,981,59,383,-11
3442,-170,264,1016,25,363,-10
3443,-98,190,906,-5,342,-21
3444,-11,158,883,-41,332,-14
3445,-20,182,847,-87,326,-1
3446,-147,84,975,-133,315,32
3447,-310,-43,1030,-137,267,51
3448,-192,-161,1035,-89,215,13
3449,8,-181,890,-29,215,-56
3450,-4,-178,929,4,236,-71
3451,-14,-129,959,22,220,-31
3452,-75,-45,1016,28,197,24
3453,-97,41,982,26,194,41
3454,-177,69,1020,21,202,28
3455,-132,105,989,15,186,17
3456,-68,72,968,5,171,14
3457,-28,108,935,-3,165,25
3458,-61,124,934,-26,158,22
3459,-85,75,946,-45,141,17
3460,-158,52,991,-45,124,11
3461,-185,23,979,-39,104,-8
3462,-163,-17,947,-31,87,-27
3463,-139,-45,931,-22,68,-33
3464,-118,-42,917,-12,46,-27
3465,-120,-11,921,-8,23,-16
3466,-178,3,936,-6,1,-10
3467,-234,32,940,-4,-25,-11
3468,-266,40,928,-6,-57,-15
3469,-265,30,913,-8,-93,-15
3470,-243,28,879,-11,-130,-14
3471,-202,27,878,-13,-169,-12
3472,-208,39,888,-17,-206,-5
3473,-236,35,909,-25,-245,2
3474,-275,31,900,-29,-283,8
3475,-311,19,910,-30,-322,16
3476,-317,-9,899,-32,-366,21
3477,-284,-32,883,-32,-414,27
3478,-223,-27,867,-29,-461,36
3479,-201,-20,870,-26,-503,47
3480,-204,-2,882,-25,-547,59
3481,-241,12,898,-28,-590,73
3482,-263,12,915,-32,-633,85
3483,-263,16,910,-37,-673,96
3484,-210,9,886,-41,-718,109
3485,-156,39,901,-51,-763,132
3486,-136,69,923,-63,-799,148
3487,-132,82,948,-83,-824,158
3488,-155,98,973,-100,-844,169
3489,-169,94,1026,-115,-862,178
3490,-147,137,1043,-142,-878,186
3491,-83,170,1062,-172,-899,179
3492,-7,188,1070,-213,-895,184
3493,982,-943,1746,-218,-829,168
3494,947,-884,1841,263,-520,-23
3495,-90,219,1123,447,-349,-118
3496,-84,180,791,331,-425,-121
3497,-227,212,841,194,-469,48
3498,-32,323,805,74,-527,172
3499,-359,94,935,-11,-570,218
3500,-172,425,778,-41,-617,261
3501,-86,320,1148,-103,-646,192
3502,91,351,1157,-125,-648,152
3503,-24,464,1100,-169,-649,169
3504,26,73,1078,-212,-674,175
3505,-144,12,1038,-203,-704,181
3506,55,-201,1125,-170,-756,144
3507,-49,-315,1052,-128,-774,89
3508,-93,-202,894,-94,-811,136
3509,-49,-277,895,-77,-855,141
3510,-37,-323,982,-31,-872,157
3511,-112,-215,869,44,-881,165
3512,13,-173,1084,85,-893,155
3513,-22,69,1023,116,-881,134
3514,97,119,1078,96,-865,125
3515,113,200,958,74,-836,133
3516,89,189,964,38,-809,186
3517,100,235,894,7,-790,216
3518,98,205,994,-33,-771,215
3519,102,185,931,-70,-754,211
3520,131,92,1026,-100,-743,198
3521,190,12,984,-102,-741,173
3522,195,-59,1007,-96,-742,154
3523,245,-112,955,-78,-739,129
3524,216,-162,947,-61,-719,112
3525,248,-144,914,-30,-686,97
3526,231,-149,980,-5,-644,86
3527,252,-107,948,19,-597,91
3528,253,-40,952,34,-553,104
3529,293,19,935,43,-508,115
3530,296,86,933,36,-463,123
3531,333,119,937,21,-414,120
3532,309,119,955,4,-365,112
3533,326,118,967,-17,-319,109
3534,315,82,974,-34,-276,93
3535,325,47,953,-44,-234,78
3536,322,0,913,-50,-191,62
3537,367,-36,916,-52,-147,43
3538,397,-40,913,-45,-94,25
3539,423,-83,960,-37,-33,13
3540,393,-86,949,-17,30,3
3541,379,-84,944,-1,87,-2
3542,367,-54,915,12,137,-14
3543,372,-25,920,20,189,-24
3544,398,26,912,21,242,-40
3545,406,52,925,14,301,-53
3546,408,73,936,9,358,-63
3547,377,73,967,-3,419,-72
3548,367,65,971,-9,475,-85
3549,320,39,943,-19,526,-99
3550,325,10,907,-21,578,-115
3551,336,3,906,-24,631,-127
3552,347,-15,923,-26,684,-133
3553,340,-26,952,-24,742,-142
3554,296,-35,948,-13,798,-150
3555,268,-20,949,1,846,-165
3556,242,-26,957,4,881,-176
3557,250,-11,945,7,911,-182
3558,275,10,933,4,943,-186
3559,270,13,929,3,986,-188
3560,253,30,934,3,1029,-189
3561,224,35,950,-1,1076,-199
3562,186,29,962,-6,1115,-210
3563,151,19,951,-8,1145,-226
3564,164,14,947,-10,1167,-241
3565,164,13,946,-8,1191,-251
3566,178,-10,957,-10,1216,-253
3567,155,-11,942,-7,1245,-250
3568,111,-16,950,-3,1275,-248
3569,60,-11,965,4,1297,-259
3570,31,-11,976,5,1311,-271
3571,38,18,974,8,1313,-285
3572,45,16,974,4,1316,-290
3573,-41,-45,1000,1,1321,-288
3574,-1742,-1212,1844,142,1055,-269
3575,-1089,815,1226,537,119,-221
3576,-40,-477,758,417,16,-459
3577,-17,187,364,580,-41,-398
3578,223,227,822,436,-1,-202
3579,223,126,750,293,2,-243
3580,50,201,776,173,44,-105
3581,418,290,596,59,74,-20
3582,112,38,1010,-22,151,-22
3583,185,315,540,-13,236,58
3584,170,241,975,-79,335,4
3585,226,104,791,-58,436,-91
3586,-253,615,1128,-74,547,-94
3587,-862,1079,1863,-261,421,-78
3588,-567,353,1366,-422,226,24
3589,301,151,732,-379,252,19
3590,268,-100,772,-371,370,-70
3591,310,100,840,-421,472,-15
3592,-571,-471,1325,-532,498,32
3593,-511,-973,1504,-290,248,81
3594,215,-60,964,-98,193,-8
3595,482,-238,779,-119,336,-129
3596,148,-320,703,-89,481,-140
3597,-76,-629,1064,19,512,-114
3598,-51,-554,1082,214,447,-160
3599,207,-68,980,287,465,-154
3600,4,54,1064,241,506,-142
3601,-185,326,1245,180,464,-7
3602,-94,351,999,102,422,64
3603,-35,170,1025,75,453,22
3604,-55,318,898,59,493,-20
3605,-15,182,1002,-25,490,-5
3606,25,108,914,-68,471,33
3607,3,164,965,-90,477,69
3608,60,144,937,-119,480,53
3609,-52,126,1023,-138,487,33
3610,-108,10,991,-141,460,29
3611,-133,-143,1079,-100,422,-4
3612,29,-131,961,-42,414,-55
3613,22,-198,985,-14,451,-93
3614,35,-148,1003,20,465,-87
3615,-7,-95,1026,36,460,-47
3616,41,-15,978,37,455,-13
3617,-62,60,990,36,468,-11
3618,-112,103,1020,32,471,-20
3619,-169,116,1013,22,460,-36
3620,-121,72,973,18,440,-44
3621,-85,53,927,17,425,-54
3622,-47,35,926,11,415,-62
3623,-70,41,904,5,406,-65
3624,-124,80,935,-6,394,-55
3625,-209,83,956,-21,376,-48
3626,-267,78,976,-32,351,-43
3627,-251,51,945,-38,321,-47
3628,-215,2,924,-40,293,-51
3629,-178,-8,876,-36,263,-51
3630,-176,-19,884,-36,233,-43
3631,-228,-6,884,-36,201,-29
3632,-313,-13,932,-34,166,-13
3633,-362,-24,940,-25,123,-10
3634,-334,-30,922,-13,81,-17
3635,-272,-40,867,0,40,-23
3636,-242,-30,850,8,0,-19
3637,-234,19,852,9,-41,-6
3638,-280,45,875,-2,-83,7
3639,-334,65,898,-13,-127,20
3640,-374,64,902,-23,-174,27
3641,-324,46,900,-29,-228,32
3642,-293,21,892,-38,-270,34
3643,-248,3,880,-40,-307,37
3644,-234,7,871,-43,-342,45
3645,-261,-10,891,-47,-383,62
3646,-299,-21,901,-46,-430,77
3647,-320,-28,905,-40,-478,86
3648,-276,-30,893,-33,-524,86
3649,-242,-33,897,-22,-562,85
3650,-188,-1,889,-18,-597,89
3651,-175,32,896,-20,-624,98
3652,-199,48,907,-25,-654,105
3653,-251,47,921,-33,-690,110
3654,-265,39,907,-40,-731,113
3655,-255,29,902,-39,-772,114
3656,-236,12,877,-43,-813,114
3657,-197,25,874,-43,-854,122
3658,-190,47,888,-48,-896,128
3659,-236,51,905,-59,-934,134
3660,-280,63,909,-66,-974,138
3661,-333,73,935,-79,-1015,141
3662,-338,116,933,-92,-1065,142
3663,-311,133,930,-119,-1105,144
3664,-211,125,928,-150,-1143,167
3665,-175,175,948,-178,-1179,207
3666,-169,214,971,-220,-1210,236
3667,-196,208,983,-287,-1225,259
3668,577,-633,1484,-335,-1228,268
3669,1512,-1613,1950,206,-881,52
3670,-318,130,1271,735,-543,-150
3671,-142,19,815,623,-662,-198
3672,-429,276,742,466,-755,1
3673,57,366,731,275,-836,259
3674,-216,200,1075,133,-891,339
3675,15,704,1122,59,-891,424
3676,-44,440,1134,-28,-863,352
3677,-67,215,1099,-56,-875,321
3678,-272,362,723,-67,-920,370
3679,-1,113,1020,-135,-985,355
3680,-150,246,815,-158,-1029,329
3681,68,232,991,-220,-1063,355
3682,152,186,1018,-261,-1071,299
3683,69,91,1090,-287,-1057,299
3684,121,137,941,-294,-1081,283
3685,208,-281,1283,-291,-1082,212
3686,143,-319,967,-181,-1092,162
3687,164,-386,1061,-137,-1115,163
3688,70,-374,819,-76,-1128,166
3689,-18,-311,870,-35,-1137,209
3690,132,-227,936,32,-1126,162
3691,37,-136,1030,86,-1072,123
3692,133,106,923,111,-1037,96
3693,189,86,1065,82,-1018,81
3694,261,148,956,65,-990,115
3695,218,156,979,46,-950,134
3696,223,114,928,34,-914,141
3697,95,145,908,8,-884,158
3698,191,94,951,-17,-867,155
3699,190,74,1013,-31,-842,143
3700,263,80,993,-50,-815,142
3701,242,46,955,-62,-791,123
3702,258,27,935,-77,-768,127
3703,216,20,877,-90,-741,133
3704,230,-12,921,-99,-713,139
3705,221,16,915,-103,-684,148
3706,264,-6,993,-109,-652,155
3707,285,1,966,-103,-619,149
3708,335,-9,985,-98,-586,146
3709,350,-19,950,-80,-551,130
3710,348,-38,987,-56,-511,117
3711,345,-28,942,-57,-471,107
3712,351,-43,984,-47,-429,96
3713,337,-28,946,-31,-384,86
3714,351,-30,965,-31,-344,79
3715,384,-9,913,-24,-302,67
3716,369,-23,908,-22,-261,59
3717,389,-6,877,-16,-219,53
3718,352,-16,907,-12,-170,43
3719,374,-11,914,-9,-122,32
3720,366,-29,939,0,-67,15
3721,420,-29,932,9,-14,1
3722,419,-11,921,16,39,-13
3723,434,-18,909,20,94,-25
3724,409,6,865,22,148,-36
3725,401,5,877,19,205,-43
3726,370,12,896,18,261,-54
3727,371,11,934,16,314,-63
3728,421,30,972,16,369,-81
3729,455,27,1012,11,425,-93
3730,450,31,981,9,481,-97
3731,392,21,936,4,534,-100
3732,336,12,903,4,585,-109
3733,308,2,941,6,631,-120
3734,307,-9,964,7,676,-132
3735,288,-2,969,8,719,-146
3736,270,8,931,14,752,-156
3737,275,12,916,10,775,-162
3738,294,30,941,1,795,-158
3739,286,18,989,-3,829,-154
3740,246,0,978,-4,865,-153
3741,195,-5,950,4,897,-162
3742,196,15,950,15,916,-180
3743,225,24,963,5,932,-192
3744,263,28,957,-4,953,-196
3745,261,24,940,-7,982,-197
3746,256,15,956,-11,1018,-197
3747,219,1,966,-9,1056,-199
3748,202,7,963,-2,1091,-209
3749,185,20,937,3,1122,-230
3750,206,11,922,-1,1148,-246
3751,238,22,927,-8,1172,-252
3752,263,0,948,-15,1206,-246
3753,237,-14,948,-13,1249,-241
3754,172,-5,940,-7,1295,-245
3755,147,4,941,0,1332,-262
3756,130,7,948,-1,1362,-281
3757,146,2,934,-3,1386,-294
3758,171,11,938,-4,1411,-301
3759,167,9,944,-9,1439,-297
3760,140,11,969,-13,1471,-291
3761,88,43,965,-14,1506,-291
3762,53,69,989,-23,1528,-298
3763,11,93,993,-33,1539,-313
3764,36,97,1010,-54,1540,-323
3765,-671,-556,1259,-84,1532,-323
3766,-1810,-998,1850,467,847,-320
3767,-449,611,914,698,120,-425
3768,142,-346,678,654,104,-604
3769,-182,392,419,645,80,-388
3770,407,376,862,472,89,-256
3771,-88,29,784,319,100,-270
3772,155,547,710,198,125,-72
3773,226,198,768,68,162,-87
3774,81,165,924,14,231,-54
3775,83,551,508,-8,315,9
3776,193,70,1040,-99,394,-64
3777,29,334,646,-67,493,-95
3778,157,291,888,-141,591,-68
3779,-653,910,1667,-223,601,-116
3780,-1024,849,1771,-455,397,55
3781,39,295,884,-545,286,120
3782,163,-111,819,-516,380,14
3783,317,103,602,-521,484,64
3784,-418,-510,1240,-650,563,81
3785,-874,-1289,1590,-376,306,87
3786,83,-51,1084,-125,131,69
3787,553,-219,763,-183,245,-50
3788,214,-122,590,-167,399,-42
3789,164,-352,816,-170,501,27
3790,-414,-926,1249,24,454,-20
3791,32,-82,981,244,362,-31
3792,386,-200,799,212,428,-122
3793,167,-323,884,258,538,-100
3794,-354,128,1076,316,556,-73
3795,-260,177,1453,257,405,-53
3796,-177,384,1069,215,354,47
3797,-87,349,981,152,401,44
3798,16,299,936,79,445,-12
3799,1,230,969,4,461,45
3800,85,224,874,-76,442,138
3801,72,211,964,-134,447,170
3802,5,264,909,-168,471,166
3803,-119,230,1058,-220,483,147
3804,-307,-67,1108,-217,436,112
3805,-99,-157,1044,-135,362,40
3806,236,-215,921,-62,375,-66
3807,158,-266,947,-8,445,-99
3808,89,-179,1004,23,464,-65
3809,18,-185,1101,43,453,-18
3810,0,-5,1037,67,465,22
3811,-84,74,1045,58,502,6
3812,-99,102,1050,51,514,-8
3813,-85,160,1007,41,505,-5
3814,11,119,947,19,494,-11
3815,-9,141,926,4,500,-12
3816,-54,161,947,-22,504,-14
3817,-139,89,981,-52,492,-15
3818,-211,59,998,-57,474,-8
3819,-200,-2,975,-52,452,-21
3820,-149,-71,944,-42,436,-36
3821,-101,-86,909,-24,422,-35
3822,-102,-86,922,-15,404,-16
3823,-147,-59,940,-3,385,4
3824,-212,-29,976,4,369,16
3825,-245,-4,968,8,350,19
3826,-229,18,958,12,327,21
3827,-186,19,927,11,305,22
3828,-137,28,918,11,283,28
3829,-137,80,920,3,265,39
3830,-183,98,941,-11,245,35
3831,-228,96,931,-22,223,26
3832,-277,84,944,-30,195,22
3833,-280,51,928,-36,161,13
3834,-266,2,897,-36,128,5
3835,-220,-1,877,-30,93,4
3836,-232,-4,885,-25,63,1
3837,-263,0,899,-23,26,2
3838,-328,3,897,-21,-13,6
3839,-368,4,901,-18,-57,12
3840,-370,-7,879,-17,-108,16
3841,-315,-21,859,-13,-162,22
3842,-270,4,850,-9,-209,30
3843,-268,35,876,-7,-249,31
3844,-287,39,897,-14,-288,32
3845,-324,54,913,-24,-327,40
3846,-334,38,918,-33,-369,50
3847,-336,11,901,-37,-410,55
3848,-283,-15,878,-37,-451,56
3849,-228,-19,881,-29,-493,55
3850,-194,-5,887,-23,-530,55
3851,-200,11,909,-24,-562,54
3852,-238,37,929,-20,-590,56
3853,-273,35,952,-27,-621,58
3854,-274,30,931,-29,-653,60
3855,-233,20,907,-33,-681,57
3856,-178,15,899,-31,-711,52
3857,-154,16,899,-30,-735,53
3858,-160,22,914,-29,-761,55
3859,-206,19,923,-33,-786,60
3860,-238,4,939,-34,-819,68
3861,-242,0,919,-32,-851,72
3862,-209,-3,910,-32,-880,72
3863,-164,0,895,-28,-912,78
3864,-136,5,899,-27,-941,90
3865,-129,45,906,-30,-972,103
3866,-169,54,917,-41,-997,110
3867,-206,45,946,-53,-1028,111
3868,-247,54,979,-61,-1062,112
3869,-204,94,974,-72,-1092,108
3870,-147,124,962,-93,-1113,107
3871,-90,130,954,-111,-1123,126
3872,-101,179,973,-134,-1127,153
3873,-149,177,989,-176,-1140,170
3874,-191,146,1000,-214,-1166,183
3875,-93,61,1122,-245,-1190,207
3876,1547,-1552,1880,-159,-1078,176
3877,700,-521,1780,536,-601,-46
3878,-215,41,955,588,-507,-150
3879,-209,289,682,491,-605,-138
3880,-160,213,849,318,-634,111
3881,-70,333,710,148,-691,246
3882,-433,198,963,49,-730,353
3883,-66,578,885,-21,-771,396
3884,-9,421,1427,-105,-768,307
3885,-23,296,955,-111,-777,297
3886,-116,379,998,-149,-813,309
3887,-33,138,872,-172,-866,271
3888,-217,252,879,-208,-909,282
3889,93,210,950,-273,-960,288
3890,12,3,1168,-319,-978,254
3891,230,-145,1263,-272,-1003,206
3892,134,-390,1205,-180,-1021,100
3893,28,-338,928,-103,-1069,96
3894,-93,-219,767,-86,-1125,153
3895,58,-376,927,-67,-1161,189
3896,-56,-266,911,13,-1144,179
3897,35,-172,1017,84,-1119,157
3898,27,30,1015,116,-1093,111
3899,118,94,1057,91,-1078,123
3900,194,167,971,74,-1056,138
3901,199,124,1023,53,-1017,171
3902,128,145,877,44,-983,198
3903,104,120,959,18,-962,212
3904,93,112,905,-3,-950,204
3905,93,74,986,-33,-942,202
3906,164,89,946,-47,-939,189
3907,165,27,997,-67,-930,189
3908,209,57,917,-78,-920,197
3909,239,50,1013,-90,-895,187
3910,266,47,972,-108,-861,188
3911,226,10,1001,-123,-823,198
3912,219,-46,958,-123,-791,198
3913,206,-41,961,-108,-763,189
3914,272,-44,959,-95,-743,174
3915,258,-55,956,-82,-717,157
3916,292,-25,930,-69,-691,156
3917,265,-38,948,-60,-660,151
3918,274,-32,969,-47,-630,142
3919,282,-25,975,-33,-592,130
3920,325,-26,988,-21,-554,115
3921,332,-11,963,-11,-519,99
3922,360,-19,958,-3,-480,88
3923,342,-11,920,3,-442,77
3924,330,-16,923,9,-405,72
3925,305,-16,932,17,-371,56
3926,306,-41,962,26,-338,37
3927,326,-23,952,43,-308,18
3928,349,-27,954,50,-280,2
3929,357,-16,921,57,-251,-9
3930,347,4,911,55,-219,-12
3931,331,0,914,52,-180,-19
3932,304,3,929,50,-139,-26
3933,306,6,939,51,-98,-36
3934,313,12,960,53,-60,-47
3935,322,28,940,54,-24,-52
3936,324,42,919,47,6,-54
3937,308,61,901,35,36,-51
3938,276,69,911,16,68,-49
3939,257,65,920,0,97,-52
3940,258,59,936,-10,125,-58
3941,279,67,958,-19,151,-64
3942,289,65,962,-27,176,-70
3943,303,76,946,-42,200,-73
3944,292,89,918,-58,224,-75
3945,277,73,934,-78,251,-77
3946,250,68,937,-92,281,-81
3947,257,49,963,-102,314,-89
3948,265,49,969,-107,342,-97
3949,280,40,981,-113,370,-102
3950,296,56,972,-121,397,-104
3951,327,10,1013,-132,432,-106
3952,364,-110,1064,-119,482,-107
3953,263,-176,1046,-79,545,-103
3954,155,-168,962,-33,581,-103
3955,91,-155,889,-5,585,-112
3956,113,-148,877,26,574,-125
3957,187,-119,939,50,576,-131
3958,259,-57,1009,71,591,-129
3959,255,19,1029,77,618,-125
3960,179,95,989,72,639,-128
3961,155,154,984,57,642,-136
3962,165,168,994,27,638,-148
3963,177,159,975,-1,642,-165
3964,194,139,948,-26,654,-173
3965,204,88,945,-51,677,-171
3966,215,15,976,-61,708,-159
3967,191,-42,982,-60,754,-139
3968,150,-86,982,-45,791,-122
3969,108,-86,969,-15,817,-133
3970,126,-51,938,3,838,-159
3971,171,-44,921,4,852,-170
3972,219,-45,946,3,866,-165
3973,246,-28,989,13,887,-159
3974,208,4,992,25,915,-153
3975,165,53,972,26,938,-151
3976,143,62,968,20,956,-157
3977,157,68,955,6,973,-165
3978,180,69,949,-5,994,-168
3979,196,47,952,-16,1022,-171
3980,191,30,954,-24,1053,-171
3981,168,11,963,-25,1083,-175
3982,142,-2,978,-18,1111,-184
3983,126,-7,967,-14,1130,-194
3984,155,12,971,-18,1144,-198
3985,183,36,980,-27,1158,-193
3986,194,53,983,-38,1178,-188
3987,183,91,972,-50,1208,-185
3988,152,114,985,-65,1240,-189
3989,119,141,1011,-87,1270,-195
3990,101,156,1027,-118,1294,-201
3991,111,181,1025,-158,1311,-199
3992,114,196,1017,-201,1325,-192
3993,114,190,1010,-246,1340,-185
3994,88,190,1009,-281,1360,-183
3995,-1548,-1450,1685,-213,1249,-192
3996,-1199,-691,1766,674,511,-175
3997,49,170,1276,719,357,-300
3998,85,251,723,633,406,-421
3999,218,259,806,458,475,-278
4000,535,216,864,331,532,-243
4001,123,112,882,260,638,-100
4002,405,472,719,172,716,57
4003,145,168,1079,85,814,23
4004,147,293,761,81,918,47
4005,167,431,906,13,1016,14
4006,112,168,1027,-13,1107,-77
4007,-975,1127,1567,-106,1056,-8
4008,-356,486,1307,-388,757,135
4009,-41,-4,832,-339,708,131
4010,98,263,735,-277,826,48
4011,-26,69,922,-369,912,-60
4012,-582,-714,1297,-371,820,-35
4013,-205,-446,1062,-178,610,37
4014,351,-359,990,-111,608,1
4015,175,-181,688,-71,736,-4
4016,13,-322,851,-63,818,23
4017,-165,-640,1026,35,794,-29
4018,-86,-352,1020,200,748,-9
4019,132,-115,899,240,758,-37
4020,-100,42,1137,235,792,-30
4021,-205,342,1082,200,768,46
4022,-172,303,1173,125,744,93
4023,-134,248,981,98,749,83
4024,-88,239,947,50,782,70
4025,26,128,915,-8,790,67
4026,-40,99,943,-43,793,115
4027,18,158,911,-78,785,153
4028,-29,110,982,-108,786,136
4029,-48,169,948,-114,789,125
4030,-106,162,1016,-135,792,97
4031,-188,55,1030,-136,777,66
4032,-208,-8,1006,-112,743,32
4033,-33,-127,974,-75,717,-25
4034,5,-158,938,-22,730,-66
4035,13,-90,936,7,747,-72
4036,-85,-106,996,18,748,-63
4037,-161,-35,1023,30,737,-32
4038,-211,0,998,30,732,-23
4039,-201,-10,998,36,726,-30
4040,-206,2,966,47,712,-30
4041,-145,-27,962,51,692,-28
4042,-136,-34,919,63,676,-31
4043,-151,-12,921,76,668,-28
4044,-213,3,928,76,654,-30
4045,-274,1,948,75,633,-24
4046,-292,-7,942,77,600,-16
4047,-285,-47,961,87,570,-16
4048,-240,-56,927,110,539,-17
4049,-218,-56,928,132,518,-18
4050,-269,-55,922,152,492,-19
4051,-314,-52,917,165,458,-10
4052,-331,-76,905,163,409,-3
4053,-358,-97,929,196,365,4
4054,-346,-109,929,235,325,8
4055,-312,-92,947,273,277,0
4056,-265,-57,928,300,236,-15
4057,-220,-61,904,316,202,-30
4058,-195,-23,868,329,181,-33
4059,-218,-11,854,333,168,-32
4060,-244,14,879,336,152,-35
4061,-265,26,899,337,129,-45
4062,-240,54,907,339,103,-58
4063,-223,85,903,340,74,-71
4064,-217,99,886,334,47,-78
4065,-238,144,867,318,21,-79
4066,-291,183,897,292,-7,-79
4067,-352,219,934,257,-38,-88
4068,-353,211,953,219,-72,-98
4069,-303,209,944,185,-105,-99
4070,-262,196,914,156,-131,-85
4071,-229,189,864,120,-157,-60
4072,-238,209,844,74,-181,-30
4073,-274,211,854,23,-204,-6
4074,-319,210,878,-29,-229,6
4075,-334,195,909,-73,-255,12
4076,-316,193,927,-104,-281,15
4077,-282,182,911,-133,-310,20
4078,-235,169,877,-163,-340,31
4079,-219,177,856,-198,-368,47
4080,-244,165,885,-241,-394,63
4081,-278,163,901,-278,-414,79
4082,-269,150,925,-309,-446,86
4083,-228,137,946,-331,-475,84
4084,-184,114,923,-344,-495,74
4085,-157,107,905,-358,-506,65
4086,-179,121,898,-375,-516,63
4087,-227,122,932,-394,-533,67
4088,-277,110,947,-415,-554,71
4089,-274,86,955,-428,-576,71
4090,-236,58,934,-431,-600,67
4091,-198,28,907,-433,-622,60
4092,-171,29,879,-433,-642,55
4093,-201,45,878,-440,-661,57
4094,-253,53,903,-452,-687,66
4095,-316,46,934,-463,-720,76
4096,-334,16,963,-469,-757,79
4097,-576,-370,1118,-443,-815,77
4098,-587,-563,1132,-286,-943,63
4099,-241,-334,972,-167,-1048,44
4100,-104,-127,711,-145,-1070,38
4101,-64,-88,678,-158,-1075,45
4102,-85,-151,754,-169,-1076,75
4103,-241,-301,937,-124,-1081,124
4104,-347,-189,1014,-38,-1105,153
4105,-288,-95,1029,12,-1136,106
4106,-162,32,880,26,-1151,54
4107,-72,76,839,14,-1160,42
4108,-60,57,851,-7,-1164,74
4109,-207,45,935,-18,-1176,118
4110,-238,56,1013,-24,-1210,130
4111,-214,61,1040,-30,-1246,112
4112,-112,146,979,-43,-1264,105
4113,-62,193,950,-76,-1268,95
4114,-41,196,947,-121,-1271,105
4115,-113,171,966,-159,-1278,126
4116,-178,130,1021,-190,-1304,137
4117,-168,154,1031,-208,-1338,135
4118,-92,180,1018,-238,-1362,130
4119,-66,197,979,-280,-1369,126
4120,-38,183,956,-331,-1369,137
4121,-86,123,948,-372,-1372,161
4122,23,-137,1111,-388,-1385,192
4123,1748,-1793,1911,-165,-1187,143
4124,187,-578,1512,699,-602,-77
4125,-409,-92,758,792,-615,-299
4126,-424,206,450,688,-788,-324
4127,-51,67,677,505,-870,-14
4128,-113,140,571,353,-954,176
