sequence,AccelerometerX,AccelerometerY,AccelerometerZ,GyroscopeX,GyroscopeY,GyroscopeZ
0,-1512,-143,399,238,-204,-390
1,-626,-124,983,275,-583,-506
2,1600,-366,1916,134,-583,-192
3,-215,-488,512,-11,-91,157
4,-304,-410,-137,285,-139,73
5,94,861,1838,495,-242,39
6,490,-312,562,-345,-288,168
7,500,-107,1004,262,-251,177
8,212,776,1620,318,-161,19
9,-72,183,1003,-229,-173,21
10,-376,-313,86,-126,-249,53
11,-73,23,705,97,-275,6
12,371,360,1710,77,-179,-40
13,120,101,1192,-203,-118,-48
14,91,-269,659,-137,-193,-60
15,-12,174,1247,87,-210,-75
16,-229,-188,783,-206,-198,-30
17,-234,-369,645,-5,-224,18
18,33,-183,1173,101,-230,47
19,118,-99,1151,90,-238,92
20,73,61,1123,97,-272,88
21,-11,47,936,44,-288,45
22,-280,177,964,80,-292,7
23,-312,9,838,-49,-319,-13
24,-128,-83,960,19,-342,-18
25,19,-14,1169,45,-345,-1
26,97,-66,1072,1,-369,23
27,85,46,1116,63,-400,32
28,-140,26,934,-9,-408,33
29,-304,-32,851,12,-456,41
30,-161,-143,954,12,-516,66
31,2,-208,998,68,-508,103
32,33,-5,1080,152,-485,130
33,61,64,1081,80,-510,127
34,25,67,1059,69,-539,104
35,-171,55,962,36,-566,83
36,-218,-37,881,19,-623,74
37,-25,-129,949,43,-659,82
38,147,-160,978,86,-623,107
39,196,-43,1016,140,-572,133
40,170,90,1086,118,-557,138
41,27,92,1008,64,-565,121
42,-82,32,901,33,-605,101
43,-18,-69,897,31,-635,92
44,180,-137,948,63,-607,96
45,305,-82,983,119,-532,116
46,318,28,1010,118,-467,129
47,256,111,1044,91,-437,117
48,90,124,979,44,-424,88
49,1,20,838,-7,-433,68
50,136,-91,846,6,-425,57
51,373,-130,970,50,-362,58
52,461,-38,1024,101,-262,66
53,413,105,1046,87,-198,62
54,274,131,990,27,-160,32
55,147,89,883,-13,-130,-3
56,100,-17,772,-39,-103,-19
57,301,-114,861,-14,-56,-22
58,530,-49,1086,51,27,-13
59,549,43,1092,34,107,5
60,433,83,990,-3,156,0
61,222,122,931,-16,203,-29
62,71,44,768,-66,246,-51
63,116,-70,713,-61,287,-50
64,400,-44,1049,-10,336,-35
65,556,26,1229,-15,406,-10
66,432,57,1029,-51,459,0
67,183,118,922,-52,483,-18
68,41,77,842,-100,499,-45
69,4,-79,712,-116,532,-50
70,179,-75,933,-48,575,-29
71,408,11,1222,-42,627,-1
72,375,27,1098,-81,671,21
73,187,76,935,-82,682,17
74,1,88,906,-102,684,-10
75,-74,-27,800,-133,694,-26
76,23,-86,848,-100,720,-18
77,238,-35,1102,-68,760,8
78,326,-3,1126,-86,801,35
79,236,36,990,-96,820,48
80,54,73,933,-104,827,38
81,-49,9,857,-138,834,21
82,-50,-67,830,-122,852,13
83,106,-56,1000,-91,885,26
84,263,-19,1102,-92,918,44
85,270,17,1036,-100,944,55
86,158,56,976,-110,958,53
87,-21,21,906,-139,973,42
88,-149,-19,843,-142,988,46
89,-1649,925,1750,-75,862,56
90,-1232,-385,616,-629,100,181
91,-610,-239,302,-57,42,143
92,-1018,383,1285,-53,81,-109
93,56,-952,-176,-378,-59,-196
94,-1059,-389,376,185,-141,-191
95,-662,-648,1290,182,-336,-416
96,1246,-402,1921,276,-398,-144
97,-366,-860,-211,-37,-160,126
98,229,176,874,616,-239,-4
99,417,602,1763,232,-257,-6
100,76,-301,413,-99,-209,36
101,-47,-5,847,338,-197,-1
102,-92,469,1407,331,-193,-76
103,32,-4,754,-37,-220,-21
104,120,-39,742,133,-252,31
105,254,414,1461,228,-211,-30
106,-31,218,1187,-31,-183,-70
107,-345,-35,652,-26,-247,-93
108,-307,25,774,64,-323,-127
109,-175,220,1050,46,-334,-145
110,-14,216,1148,-87,-330,-135
111,33,136,1067,-147,-347,-135
112,-36,264,1216,-80,-383,-189
113,-237,138,989,-201,-439,-237
114,-391,34,771,-176,-500,-263
115,-171,-21,1028,-183,-549,-254
116,159,-462,1145,-254,-495,-170
117,24,-551,888,-54,-448,-33
118,60,-301,1045,94,-537,70
119,38,-182,1096,100,-591,160
120,-257,-193,803,90,-625,225
121,-281,-165,800,177,-714,253
122,57,-88,1078,226,-728,246
123,63,162,1133,264,-652,223
124,29,229,967,137,-623,172
125,94,245,1092,98,-650,89
126,-11,279,1148,37,-655,7
127,-182,1,780,-101,-687,-38
128,-12,-109,879,0,-739,-48
129,297,-210,1049,7,-701,-12
130,347,-220,929,75,-609,59
131,290,-30,991,138,-569,109
132,207,14,1001,85,-571,125
133,93,45,965,92,-587,118
134,34,-42,835,46,-600,106
135,204,-111,873,89,-579,90
136,401,-16,1047,136,-498,82
137,431,38,993,95,-394,82
138,335,127,980,86,-335,60
139,202,185,1011,31,-315,14
140,105,74,895,-42,-305,-27
141,166,-74,811,-49,-283,-52
142,366,-154,899,-1,-209,-55
143,537,-82,1024,61,-96,-35
144,474,22,1022,52,-5,-4
145,335,75,970,25,38,-5
146,180,136,944,15,67,-35
147,64,60,816,-48,94,-64
148,206,-67,801,-47,128,-79
149,442,-51,1052,7,198,-74
150,517,17,1120,9,277,-49
151,404,77,1023,-15,324,-33
152,191,127,948,-31,351,-45
153,6,82,826,-71,374,-68
154,25,-37,746,-87,394,-81
155,256,-50,978,-40,437,-70
156,461,0,1194,-45,497,-40
157,390,17,1070,-64,541,-20
158,186,98,974,-56,555,-30
159,3,76,873,-101,562,-51
160,-69,-62,732,-124,583,-55
161,88,-88,883,-68,609,-39
162,313,-38,1155,-51,653,-11
163,366,0,1128,-62,690,14
164,219,77,995,-67,706,14
165,31,96,925,-101,709,-9
166,-76,-3,810,-130,716,-32
167,-8,-73,824,-108,740,-32
168,185,-48,1032,-73,784,-13
169,355,-9,1127,-85,827,13
170,303,24,1019,-98,859,26
171,153,79,955,-104,879,18
172,1,32,865,-142,894,-1
173,-36,-55,783,-141,922,-12
174,121,-52,943,-105,960,-5
175,292,-29,1083,-107,1006,8
176,362,9,1053,-108,1042,16
177,263,69,986,-122,1076,9
178,-1074,794,1589,-112,1062,-22
179,-1630,130,1345,-545,414,131
180,-456,-645,-135,-287,197,210
181,-1482,455,1172,35,347,-83
182,-155,-905,-239,-365,123,-311
183,-801,-500,308,202,-5,-310
184,-1607,-72,733,203,-299,-466
185,-347,-90,756,214,-644,-428
186,1065,17,1793,189,-636,-189
187,994,-775,796,-151,-136,55
188,385,-515,228,324,16,58
189,295,1041,1784,499,-7,-41
190,873,-288,596,-431,-39,74
191,111,-59,535,203,69,112
192,-393,794,1502,159,126,-20
193,-141,200,1129,-274,-44,17
194,-70,-158,422,-106,-46,10
195,196,278,1227,106,-2,2
196,260,45,1322,-235,1,34
197,139,-369,694,-143,40,-14
198,-124,105,1165,86,47,-53
199,-272,-208,771,-199,34,-33
200,-197,-422,773,-35,0,-16
201,-130,-157,1245,88,-36,-29
202,83,-172,1117,51,-89,-17
203,-40,19,992,106,-93,-38
204,-264,145,1026,81,-110,-93
205,-318,-112,757,-52,-160,-106
206,-274,-28,1032,116,-181,-116
207,-226,127,1191,72,-212,-106
208,-71,12,1075,-17,-282,-74
209,-16,30,1067,46,-335,-59
210,-185,130,1049,40,-359,-54
211,-381,127,980,-5,-415,-63
212,-385,-6,912,-42,-479,-74
213,-247,-149,949,-18,-511,-59
214,-107,-177,1041,27,-525,-6
215,11,-125,1159,68,-567,46
216,4,-56,1069,78,-615,75
217,-208,19,975,90,-646,82
218,-347,14,908,60,-709,93
219,-228,-137,919,41,-784,113
220,-28,-183,988,119,-790,128
221,36,0,1062,187,-762,139
222,53,111,1096,134,-772,132
223,47,80,1050,74,-800,105
224,-130,58,956,63,-826,77
225,-163,-28,892,35,-877,65
226,21,-163,916,47,-902,70
227,201,-195,957,112,-862,96
228,265,-97,980,162,-798,125
229,257,62,1069,173,-766,135
230,111,112,1015,112,-757,125
231,-3,55,898,62,-779,108
232,25,-38,865,45,-801,94
233,222,-142,926,63,-773,89
234,393,-119,978,133,-690,92
235,400,30,1008,164,-602,99
236,305,145,1019,123,-558,93
237,159,152,981,56,-547,74
238,88,46,862,-8,-552,58
239,184,-94,822,-8,-540,49
240,422,-163,935,50,-472,44
241,537,-64,1012,130,-356,44
242,464,104,1020,133,-266,52
243,295,171,971,65,-224,49
244,189,148,931,0,-209,34
245,149,12,813,-57,-191,22
246,310,-115,834,-30,-138,11
247,527,-80,1010,54,-44,-4
248,562,72,1074,89,58,0
249,445,147,1017,22,117,13
250,272,134,931,-29,160,-1
251,117,109,854,-50,203,-22
252,119,-29,708,-100,239,-25
253,376,-87,930,-40,288,-22
254,603,15,1222,7,362,-12
255,515,57,1098,-45,433,9
256,250,90,914,-62,468,9
257,75,105,870,-84,488,-14
258,3,-49,706,-127,517,-22
259,153,-119,819,-71,556,-12
260,429,-9,1217,-17,605,5
261,455,35,1190,-64,663,28
262,237,49,942,-89,687,31
263,11,100,890,-90,685,9
264,-85,-5,803,-134,687,-14
265,-11,-111,775,-108,706,-16
266,217,-39,1094,-45,744,0
267,349,19,1197,-72,786,25
268,235,33,1019,-98,807,43
269,26,82,930,-99,803,33
270,-84,37,861,-136,794,11
271,-91,-68,806,-132,802,-1
272,59,-60,965,-87,830,5
273,240,-18,1139,-89,861,23
274,267,8,1072,-105,886,37
275,143,48,976,-112,893,33
276,-40,44,912,-133,897,17
277,-141,-40,842,-149,899,4
278,-79,-88,877,-127,907,7
279,72,-53,1080,-93,921,19
280,164,-14,1115,-97,926,32
281,82,33,1055,-104,916,32
282,-119,50,987,-125,895,13
283,-592,219,1108,-142,876,-10
284,-1878,669,1864,-191,566,20
285,-998,-781,0,-559,15,189
286,-1039,206,897,129,55,89
287,-775,20,913,-249,-40,-145
288,-175,-832,-56,-177,-192,-186
289,-422,-757,1092,140,-269,-201
290,530,-535,1815,338,-223,-221
291,-336,-126,1188,116,-197,-46
292,-610,-449,-6,138,-314,-106
293,194,188,1414,400,-446,-154
294,54,170,1364,133,-428,-137
295,-48,74,986,161,-444,-152
296,-357,229,1174,182,-515,-197
297,-484,117,910,121,-589,-255
298,-406,-127,538,58,-695,-215
299,-152,227,1099,238,-746,-199
300,103,418,1528,64,-722,-196
301,-195,103,1036,-112,-743,-185
302,-339,84,873,25,-853,-210
303,-408,154,942,-2,-951,-226
304,-331,98,905,-41,-1005,-218
305,53,-171,1092,-115,-1004,-158
306,129,-353,1009,-27,-939,-67
307,114,-145,1051,136,-957,20
308,76,-71,1075,87,-1025,107
309,-28,-140,858,81,-1062,178
310,-126,-141,810,131,-1107,245
311,112,-231,825,159,-1131,282
312,360,-75,1059,285,-1073,308
313,372,142,1056,268,-982,314
314,321,194,956,175,-939,282
315,234,292,1087,157,-927,221
316,128,166,916,11,-915,179
317,152,-49,740,-8,-910,167
318,415,-118,905,55,-863,170
319,664,-130,1032,95,-739,190
320,571,21,988,146,-609,220
321,392,100,922,89,-549,229
322,272,107,922,62,-539,219
323,238,31,897,10,-524,216
324,328,-170,766,-7,-478,217
325,522,-146,932,111,-386,217
326,605,6,1084,142,-262,222
327,473,119,987,98,-164,221
328,253,185,946,50,-125,190
329,147,150,918,-19,-123,149
330,172,-13,860,-77,-106,123
331,309,-153,846,-40,-44,103
332,501,-113,991,44,56,89
333,475,58,1086,77,157,84
334,306,136,1015,4,209,72
335,117,97,910,-50,223,38
336,26,51,856,-65,229,8
337,117,-107,809,-95,247,-2
338,332,-167,934,-20,299,-2
339,451,-19,1166,51,365,8
340,373,64,1094,-9,407,20
341,148,101,976,-36,425,4
342,-35,100,867,-60,434,-35
343,-89,-18,735,-96,440,-57
344,99,-100,875,-63,450,-57
345,401,-51,1201,-20,486,-45
346,385,33,1198,-23,529,-26
347,164,88,982,-65,539,-33
348,-58,120,918,-71,525,-63
349,-139,-2,763,-136,518,-82
350,-31,-139,760,-101,528,-79
351,249,-73,1120,-27,559,-60
352,364,5,1251,-39,600,-32
353,222,44,1023,-69,608,-24
354,6,106,929,-74,596,-44
355,-109,42,848,-119,584,-70
356,-82,-95,769,-122,593,-74
357,99,-93,978,-58,622,-57
358,333,-19,1187,-46,657,-38
359,310,36,1103,-64,688,-24
360,144,73,946,-93,696,-29
361,-21,64,886,-112,694,-52
362,-55,-30,800,-132,703,-70
363,81,-101,860,-104,737,-71
364,297,-51,1087,-66,786,-54
365,396,-5,1111,-83,837,-35
366,310,48,973,-95,870,-28
367,128,89,919,-109,896,-41
368,29,18,823,-149,921,-58
369,52,-57,829,-134,958,-65
370,223,-49,1002,-105,1007,-57
371,373,-7,1081,-104,1056,-37
372,359,44,1021,-113,1097,-22
373,223,84,957,-135,1127,-22
374,33,46,875,-165,1154,-31
375,-1130,679,1475,-131,1141,-42
376,-1579,-27,1221,-524,363,145
377,-352,-527,-208,-190,97,205
378,-1407,617,1284,46,268,-106
379,98,-822,8,-421,73,-306
380,-703,-566,230,141,13,-279
381,-1736,-101,654,197,-229,-514
382,-284,-131,808,271,-665,-550
383,1469,-122,1862,192,-593,-211
384,587,-726,471,-137,-87,96
385,364,-235,458,377,-74,27
386,245,1122,1816,401,-86,-116
387,413,-564,-26,-526,-113,-49
388,-100,45,829,276,-67,-42
389,366,218,1228,22,53,-189
390,279,297,1400,54,74,-154
391,52,73,696,-179,45,-140
392,397,-159,864,-47,43,-155
393,-68,381,1385,105,98,-153
394,-225,-109,672,-268,90,-130
395,-287,-85,949,-1,34,-100
396,-190,-55,1103,-60,9,-89
397,-67,-228,992,-52,-31,-29
398,-111,43,1223,76,-83,-3
399,-170,-29,1021,-45,-147,5
400,-464,60,986,30,-206,19
401,-538,-7,922,-37,-279,15
402,-434,-160,918,-14,-361,27
403,-277,-82,1146,69,-409,50
404,-160,-95,1135,28,-473,75
405,-163,0,1134,79,-549,77
406,-319,29,1033,40,-614,79
407,-462,-40,953,18,-726,117
408,-343,-193,955,24,-852,169
409,-178,-294,936,104,-892,219
410,-126,-32,1050,257,-886,251
411,-48,99,1074,167,-904,268
412,-59,98,1063,129,-938,241
413,-186,151,1065,113,-985,183
414,-260,20,957,34,-1066,134
415,-90,-121,926,62,-1128,114
416,151,-235,942,90,-1118,128
417,237,-137,928,186,-1052,158
418,279,24,1036,186,-1014,176
419,183,52,992,133,-1010,168
420,134,56,950,113,-1024,137
421,113,-30,864,78,-1026,105
422,271,-112,838,103,-985,85
423,482,-108,931,141,-890,84
424,585,-26,963,163,-766,93
425,502,126,1005,151,-660,83
426,334,178,953,78,-602,50
427,252,104,877,17,-576,7
428,325,-41,812,-13,-531,-18
429,519,-147,851,31,-423,-27
430,697,-65,977,103,-273,-13
431,637,85,992,98,-129,3
432,469,160,951,41,-41,-2
433,322,174,906,-1,5,-36
434,266,85,843,-56,56,-70
435,376,-63,798,-63,129,-89
436,565,-64,957,2,234,-82
437,652,25,1079,12,334,-50
438,562,78,1020,-22,411,-26
439,340,125,929,-39,470,-33
440,126,129,823,-66,515,-56
441,137,11,759,-108,550,-72
442,343,-61,918,-76,607,-66
443,555,-7,1147,-54,688,-43
444,488,51,1086,-73,752,-31
445,273,127,974,-92,784,-46
446,72,93,851,-143,808,-68
447,-9,-46,726,-164,839,-74
448,123,-109,844,-119,879,-63
449,345,-65,1126,-78,929,-42
450,401,7,1138,-84,970,-30
451,257,84,993,-108,994,-39
452,61,106,915,-140,1004,-68
453,-58,2,797,-181,1021,-91
454,-10,-106,796,-162,1049,-97
455,182,-87,1021,-106,1090,-88
456,352,-32,1131,-109,1132,-71
457,295,7,1006,-128,1161,-60
458,133,75,947,-129,1180,-70
459,-22,36,861,-172,1196,-88
460,-66,-66,800,-173,1222,-94
461,67,-75,940,-132,1254,-83
462,-412,392,1356,-97,1286,-66
463,-1795,539,1869,-316,709,61
464,-25,-687,-195,-429,113,227
465,-1046,650,1251,155,403,11
466,-437,-162,718,-427,399,-245
467,-433,-1110,-440,-159,319,-243
468,-1862,-178,208,241,77,-445
469,-684,-83,604,345,-492,-670
470,-289,271,737,233,-749,-427
471,-42,2,655,48,-728,-286
472,1648,-441,1860,-29,-446,-87
473,-475,-472,91,-66,54,72
474,-285,14,17,354,18,-166
475,-68,677,1474,283,-28,-214
476,251,-615,-225,-388,-91,-39
477,943,62,1652,268,-99,60
478,232,656,1662,114,-8,-81
479,-204,228,839,-238,-119,-114
480,-310,-172,257,-213,-206,-76
481,-424,-343,45,-179,-232,-21
482,756,-602,1408,34,-193,-57
483,298,92,1440,222,1,-64
484,-286,-123,495,-66,-104,10
485,-140,107,982,164,-210,-32
486,-241,240,1258,51,-181,-68
487,-414,-243,389,-94,-200,-45
488,84,135,1346,204,-256,-33
489,112,194,1419,-7,-249,-12
490,-113,83,890,-39,-293,-4
491,-161,80,955,-13,-365,-11
492,-318,69,929,-30,-378,-19
493,-284,-118,917,-71,-400,3
494,-129,-253,961,-19,-428,45
495,20,-118,1168,94,-446,76
496,47,-72,1079,41,-486,99
497,-34,-25,1022,72,-518,93
498,-243,1,957,53,-561,96
499,-261,-117,882,31,-644,119
500,-63,-176,957,101,-678,137
501,0,-59,1000,163,-642,147
502,60,90,1063,160,-618,143
503,98,127,1085,84,-624,115
504,-56,131,1030,62,-636,59
505,-155,79,942,16,-686,7
506,-94,-90,913,-7,-739,-13
507,150,-213,946,37,-731,3
508,248,-179,946,102,-667,46
509,282,-37,1010,145,-614,82
510,240,63,1039,110,-598,93
511,78,68,950,75,-605,77
512,32,19,907,57,-628,49
513,144,-70,906,47,-621,33
514,315,-91,936,86,-553,34
515,403,-18,980,108,-460,44
516,378,88,1024,97,-390,42
517,228,156,1028,53,-360,22
518,102,99,928,-15,-363,-8
519,92,-26,861,-34,-370,-30
520,248,-145,891,-15,-333,-27
521,414,-147,960,52,-244,-3
522,432,-5,1013,93,-147,28
523,317,106,1003,63,-94,37
524,154,153,982,19,-84,20
525,61,75,917,-41,-91,-8
526,115,-65,837,-56,-75,-23
527,300,-117,929,2,-12,-28
528,432,-46,1018,49,83,-10
529,367,84,1036,52,156,10
530,210,154,1001,2,180,6
531,65,147,943,-40,184,-20
532,-2,40,850,-85,189,-41
533,153,-94,862,-75,214,-47
534,339,-76,1038,-10,275,-34
535,389,19,1093,-3,330,-4
536,313,59,1031,-37,354,7
537,122,95,966,-47,375,-8
538,-74,61,833,-81,394,-31
539,-31,-55,781,-94,399,-43
540,205,-96,1009,-52,425,-33
541,386,-53,1163,-36,469,-12
542,329,6,1072,-38,493,-3
543,143,86,995,-51,500,-16
544,-36,52,853,-95,512,-35
545,-123,-57,742,-102,528,-42
546,56,-93,917,-55,545,-33
547,285,-41,1180,-34,574,-7
548,330,13,1128,-47,596,10
549,190,91,990,-56,600,-5
550,17,110,932,-92,602,-30
551,-106,-12,797,-130,621,-39
552,-52,-95,821,-101,642,-28
553,150,-56,1083,-53,666,-2
554,314,-12,1145,-64,687,18
555,251,34,1021,-74,701,23
556,91,94,967,-85,709,7
557,-53,39,862,-126,721,-12
558,-84,-63,811,-125,739,-13
559,73,-86,969,-88,765,0
560,230,-53,1102,-75,798,18
561,276,-10,1049,-79,819,29
562,183,50,982,-84,836,23
563,9,54,924,-113,850,4
564,-830,435,1294,-99,856,-20
565,-1837,387,1634,-306,414,51
566,-651,-649,-92,-349,21,140
567,-1163,438,1180,112,105,-38
568,-382,-432,277,-350,-47,-220
569,-379,-643,99,42,-185,-214
570,-673,-519,1395,151,-303,-307
571,1054,-468,1915,218,-307,-167
572,-252,-634,287,-40,-118,66
573,-164,51,466,480,-160,-63
574,627,294,1633,178,-216,-58
575,315,-17,900,51,-156,-9
576,232,302,1103,226,-113,-77
577,-141,437,1336,83,-103,-141
578,-250,-37,528,-113,-145,-150
579,-126,-143,458,28,-194,-106
580,210,483,1471,183,-170,-116
581,235,369,1549,-172,-116,-115
582,-198,-53,728,-227,-144,-119
583,-317,144,978,-4,-246,-163
584,-272,-77,993,-187,-289,-157
585,-263,-398,794,-130,-273,-82
586,-107,-404,1014,8,-309,-1
587,8,-196,1230,118,-361,51
588,-82,-49,1118,90,-420,82
589,-306,-55,877,67,-474,71
590,-441,67,952,128,-524,44
591,-393,-41,924,37,-586,34
592,-176,-85,1024,109,-623,31
593,-37,54,1177,129,-639,35
594,-24,86,1110,76,-676,30
595,-77,104,1063,56,-720,17
596,-289,50,931,13,-773,6
597,-267,-77,888,17,-857,14
598,-31,-228,957,39,-897,51
599,76,-185,1000,144,-864,101
600,146,-31,1041,171,-839,143
601,136,38,1036,130,-848,156
602,27,77,1012,118,-875,134
603,-60,55,950,83,-916,102
604,-13,-63,875,62,-948,77
605,200,-126,946,100,-934,67
606,370,-107,968,132,-858,77
607,389,5,996,153,-775,85
608,296,110,1011,124,-733,75
609,159,100,944,61,-730,45
610,133,13,881,30,-738,16
611,249,-121,832,21,-710,-1
612,458,-160,916,86,-624,3
613,560,-64,992,136,-501,23
614,496,76,997,128,-400,35
615,320,155,956,84,-349,22
616,232,138,924,23,-331,-5
617,231,17,843,-25,-305,-27
618,381,-94,850,-9,-230,-40
619,567,-65,970,58,-112,-38
620,581,67,1027,81,18,-26
621,447,157,985,37,100,-23
622,268,187,932,-9,141,-42
623,172,126,871,-66,165,-68
624,222,-17,794,-99,210,-82
625,427,-80,925,-45,288,-84
626,560,-7,1084,-2,379,-58
627,508,62,1074,-32,444,-26
628,301,88,952,-58,485,-21
629,99,108,870,-70,517,-39
630,11,4,751,-111,543,-54
631,171,-80,859,-87,574,-49
632,412,-34,1158,-49,625,-31
633,429,9,1143,-68,681,-13
634,243,79,989,-74,702,-20
635,24,104,913,-106,705,-44
636,-90,-21,782,-148,712,-58
637,-22,-111,792,-114,732,-50
638,189,-71,1069,-64,765,-25
639,332,-4,1190,-63,796,-2
640,239,47,1046,-87,810,9
641,36,94,941,-100,809,-4
642,-73,43,859,-137,803,-24
643,-90,-65,786,-138,816,-29
644,82,-75,955,-92,847,-16
645,274,-24,1145,-82,883,10
646,298,6,1065,-98,913,30
647,176,57,955,-103,929,33
648,0,69,905,-129,938,18
649,-78,-26,822,-154,951,2
650,3,-70,885,-125,977,-1
651,173,-44,1061,-105,1010,5
652,282,-11,1083,-111,1034,14
653,224,34,1020,-117,1048,10
654,-96,170,1041,-133,1066,-9
655,-1778,860,1856,-168,855,0
656,-962,-731,244,-620,156,197
657,-959,106,627,72,258,111
658,-1123,182,1008,-183,225,-213
659,26,-1101,-423,-214,27,-305
660,-1473,-126,591,272,-126,-329
661,-1112,-117,640,198,-487,-503
662,721,-151,1413,202,-731,-348
663,755,-200,1520,94,-337,-8
664,-72,-1057,-636,-92,-117,82
665,163,793,1640,700,-236,-43
666,371,409,1215,-171,-291,-49
667,197,-659,89,-140,-327,35
668,-150,428,1312,357,-264,-99
669,12,269,1230,-4,-230,-147
670,-345,115,847,-75,-299,-53
671,1,-244,629,-114,-367,-53
672,312,84,1439,168,-341,-74
673,-152,323,1254,32,-308,-64
674,-221,-161,639,-194,-405,-40
675,-307,45,1097,93,-459,-66
676,-249,-160,869,-81,-459,-69
677,-158,-244,918,48,-486,-7
678,83,-46,1279,105,-523,33
679,103,-137,1026,30,-556,62
680,-124,96,1041,158,-582,68
681,-270,54,868,19,-615,56
682,-314,-14,882,75,-667,51
683,-92,-57,1000,61,-694,60
684,40,-96,1052,82,-679,83
685,89,102,1180,144,-686,92
686,67,46,1040,17,-721,87
687,-110,33,964,65,-760,82
688,-185,-14,938,21,-827,93
689,-85,-185,875,40,-881,120
690,108,-163,988,133,-871,156
691,224,-84,1013,152,-824,195
692,210,45,1032,164,-798,211
693,117,124,1071,120,-808,198
694,-23,84,955,68,-849,166
695,-43,10,904,51,-897,135
696,117,-120,890,48,-912,117
697,331,-164,946,104,-859,125
698,398,-70,1016,149,-774,149
699,321,46,997,139,-718,160
700,167,112,997,102,-713,149
701,81,58,922,36,-740,127
702,139,-89,859,14,-746,110
703,297,-187,874,55,-701,108
704,479,-158,962,125,-596,116
705,461,-3,1005,166,-483,125
706,305,130,992,125,-419,117
707,143,152,956,58,-411,85
708,109,74,897,0,-416,50
709,223,-90,842,-23,-384,24
710,422,-163,902,40,-295,11
711,511,-41,1026,123,-168,9
712,426,119,1020,112,-69,15
713,218,190,959,51,-30,9
714,123,172,922,-11,-33,-14
715,132,39,860,-67,-23,-34
716,292,-84,878,-44,32,-46
717,479,-66,995,26,128,-43
718,470,71,1070,58,219,-17
719,354,141,1036,1,260,8
720,151,134,937,-43,282,3
721,15,112,847,-57,296,-20
722,45,-10,766,-98,309,-29
723,301,-74,967,-56,341,-21
724,480,-10,1212,-20,400,2
725,391,23,1086,-57,445,22
726,143,83,959,-53,459,17
727,-18,76,868,-86,460,-7
728,-79,-79,705,-115,472,-10
729,81,-127,850,-52,491,6
730,389,-50,1218,-14,523,32
731,423,1,1206,-37,568,59
732,210,52,965,-48,584,63
733,-20,110,893,-61,579,43
734,-104,15,780,-105,576,24
735,-18,-94,751,-87,593,26
736,250,-24,1110,-20,628,46
737,397,37,1249,-51,678,71
738,262,44,1016,-85,705,89
739,37,100,906,-79,704,78
740,-72,54,847,-126,697,59
741,-65,-64,786,-125,708,48
742,115,-57,983,-77,741,49
743,316,-12,1164,-76,782,58
744,336,17,1078,-95,817,67
745,189,50,938,-111,836,58
746,11,48,879,-127,848,33
747,-53,-42,819,-151,860,8
748,41,-99,863,-124,893,-6
749,233,-63,1067,-88,935,-8
750,346,-21,1101,-97,973,-2
751,283,22,1004,-110,1002,-4
752,88,56,928,-127,1022,-25
753,-37,-1,841,-158,1039,-52
754,-66,-75,817,-150,1064,-63
755,47,-58,994,-117,1094,-58
756,180,-17,1123,-118,1107,-47
757,-415,442,1386,-99,1107,-44
758,-1826,684,1856,-290,636,39
759,-387,-667,51,-504,137,191
760,-1074,428,1229,82,347,14
761,-735,-298,489,-386,323,-262
762,-615,-932,-242,-47,202,-343
763,-1781,-210,187,234,-97,-499
764,-702,28,649,352,-590,-642
765,-254,148,1014,176,-850,-462
766,1574,-326,1858,77,-620,-248
767,-43,-769,508,-192,-113,70
768,-822,33,311,397,-226,-117
769,184,825,1654,238,-401,-250
770,189,-895,122,-456,-495,-81
771,225,-155,1130,364,-443,-111
772,226,384,1589,212,-356,-153
773,-583,556,1429,47,-430,-117
774,-386,-583,-268,-322,-601,-91
775,-55,-58,1229,218,-681,-70
776,349,-62,1395,77,-506,-133
777,-123,196,1119,166,-491,-71
778,-245,66,839,-17,-644,-57
779,11,27,995,91,-693,-94
780,-371,191,1065,96,-670,-101
781,-219,-113,638,-50,-685,-103
782,166,-50,1250,110,-726,-52
783,179,-24,1154,41,-694,-3
784,136,-89,915,56,-707,42
785,-74,162,1070,143,-743,56
786,-151,-1,874,-17,-783,65
787,-99,-176,793,46,-839,101
788,231,-129,1062,134,-819,127
789,284,-48,1043,144,-733,168
790,180,130,1023,151,-707,183
791,187,60,993,53,-732,171
792,22,63,971,84,-755,152
793,-6,28,947,54,-778,140
794,92,-125,844,37,-789,149
795,284,-75,1011,125,-753,170
796,375,-60,1024,94,-690,201
797,277,55,1024,130,-643,216
798,91,140,1026,84,-650,207
799,-16,35,895,9,-706,189
800,55,-79,913,27,-749,178
801,217,-215,904,36,-726,184
802,363,-155,984,141,-646,200
803,331,5,1031,155,-566,218
804,195,73,977,107,-541,219
805,59,119,997,77,-565,190
806,27,12,927,4,-594,161
807,110,-135,844,11,-587,142
808,292,-180,909,71,-531,136
809,408,-114,1001,134,-432,137
810,356,65,1051,156,-344,134
811,133,155,973,93,-312,117
812,44,140,928,31,-336,84
813,81,20,906,-25,-354,56
814,246,-141,876,-14,-311,37
815,431,-122,962,77,-209,30
816,443,48,1045,126,-96,32
817,313,169,1015,79,-36,33
818,129,182,943,14,-28,20
819,70,113,896,-42,-43,-4
820,156,-22,848,-67,-28,-21
821,363,-102,928,-18,44,-28
822,478,-33,1032,43,148,-17
823,419,98,1069,36,216,9
824,257,135,1000,-19,245,13
825,107,109,902,-50,264,-10
826,0,47,787,-71,278,-33
827,146,-61,820,-73,300,-36
828,418,-57,1091,-27,343,-19
829,513,-3,1188,-27,406,6
830,355,37,1019,-44,445,16
831,114,111,937,-44,460,1
832,-30,30,788,-104,473,-13
833,-15,-104,680,-92,492,-9
834,245,-85,995,-20,523,11
835,499,-6,1278,-15,570,41
836,402,35,1123,-49,618,67
837,122,95,920,-58,630,64
838,-52,101,850,-86,622,44
839,-99,-40,716,-121,627,34
840,75,-83,870,-64,652,46
841,334,15,1237,-31,697,66
842,367,45,1173,-79,743,90
843,170,70,948,-91,759,95
844,-38,104,898,-109,753,79
845,-137,-2,807,-150,747,59
846,-62,-84,819,-122,759,48
847,151,-57,1076,-78,788,45
848,324,-8,1183,-83,820,48
849,248,12,1033,-109,842,48
850,53,42,925,-119,845,29
851,-86,12,854,-139,846,-1
852,-115,-98,791,-147,860,-24
853,49,-120,937,-99,883,-33
854,241,-51,1157,-71,909,-32
855,295,-20,1084,-95,928,-25
856,159,28,981,-96,940,-26
857,-33,47,922,-120,945,-37
858,-168,-41,820,-146,951,-42
859,-149,-60,858,-113,956,-28
860,-16,-2,1107,-92,957,-6
861,103,23,1173,-107,932,7
862,16,63,1089,-113,895,5
863,-196,88,1020,-138,852,-18
864,-735,250,1129,-160,808,-47
865,-1888,511,1807,-235,485,-1
866,-1067,-768,-28,-473,-23,159
867,-1088,305,958,135,-20,39
868,-761,-30,886,-274,-126,-198
869,208,-943,612,-140,-240,-247
870,-206,-757,1183,129,-190,-217
871,-161,-340,1441,310,-151,-283
872,-587,103,1282,205,-289,-260
873,-604,-369,352,0,-474,-250
874,216,-335,1203,246,-605,-230
875,0,238,1608,332,-571,-202
876,-231,190,1006,101,-647,-179
877,-434,91,888,120,-790,-202
878,-387,144,933,199,-841,-280
879,-323,17,730,98,-876,-285
880,-170,356,1172,224,-891,-255
881,110,231,1328,-80,-916,-195
882,22,-84,964,-58,-931,-163
883,-148,135,997,123,-968,-151
884,-236,66,922,-16,-1028,-115
885,-129,-106,868,2,-1057,-63
886,58,-290,880,2,-1048,9
887,247,-259,986,147,-1012,64
888,343,9,1191,211,-992,107
889,211,-14,949,89,-989,125
890,92,1,863,147,-1001,117
891,52,3,880,114,-1010,125
892,219,-138,798,114,-986,138
893,436,-35,987,205,-910,155
894,507,90,1036,181,-796,161
895,487,190,1026,141,-720,139
896,337,207,981,75,-675,92
897,235,117,855,10,-645,53
898,231,1,819,-4,-616,41
899,423,-123,876,8,-553,46
900,611,-118,992,70,-438,72
901,588,6,1022,95,-322,99
902,473,88,983,59,-256,101
903,289,106,934,28,-218,79
904,168,34,827,-16,-196,66
905,232,-88,788,-17,-165,61
906,454,-119,954,38,-86,60
907,542,-8,1067,81,27,66
908,453,109,1036,48,101,64
909,292,144,986,1,136,33
910,127,123,905,-42,166,-8
911,28,9,781,-83,183,-26
912,196,-123,838,-69,211,-26
913,411,-87,1096,9,273,-16
914,450,8,1138,12,332,10
915,316,48,1013,-27,353,23
916,101,111,961,-26,370,1
917,-75,55,829,-78,387,-25
918,-78,-80,713,-89,391,-28
919,174,-87,1011,-25,410,-20
920,391,-10,1261,-10,444,2
921,287,25,1103,-40,462,17
922,72,88,969,-43,450,2
923,-95,93,898,-71,444,-29
924,-191,-62,722,-114,447,-36
925,-45,-121,840,-55,451,-25
926,236,-25,1251,-7,465,0
927,285,4,1214,-47,476,28
928,116,39,983,-51,461,27
929,-67,103,951,-50,440,4
930,-193,2,818,-101,434,-14
931,-157,-100,757,-79,435,-9
932,84,-53,1073,-25,446,11
933,321,1,1259,-38,462,37
934,229,13,1055,-63,471,49
935,46,77,944,-53,458,34
936,-75,61,892,-91,450,7
937,-110,-82,760,-114,462,-8
938,71,-101,911,-51,485,-4
939,298,-32,1172,-34,527,12
940,368,-19,1093,-66,565,31
941,251,39,956,-61,588,29
942,92,71,912,-78,605,4
943,1,-14,817,-109,631,-17
944,73,-68,842,-86,670,-25
945,257,-45,1013,-63,726,-17
946,431,0,1099,-72,782,-1
947,396,44,1005,-86,833,8
948,254,83,939,-101,875,-2
949,102,42,855,-137,915,-20
950,54,-40,778,-142,967,-25
951,181,-39,907,-110,1022,-16
952,349,-2,1076,-112,1081,2
953,353,80,1094,-122,1128,15
954,-1571,1068,1835,-104,996,23
955,-1014,-359,721,-691,243,214
956,-566,-143,471,-105,300,204
957,-1234,241,1072,-165,396,-98
958,-222,-1217,-412,-291,244,-278
959,-1460,-381,353,242,54,-359
960,-1262,-131,457,303,-398,-568
961,-231,176,858,269,-723,-414
962,504,103,1391,119,-737,-210
963,1517,-778,1473,-159,-278,27
964,-186,-509,83,213,15,95
965,59,703,1140,480,-45,-62
966,645,273,1409,-170,-81,37
967,247,-572,48,-168,-55,152
968,574,241,1344,313,33,15
969,125,708,1701,142,94,-60
970,-254,-95,467,-336,63,-33
971,-180,-393,24,-27,22,-3
972,-44,370,1404,77,32,-18
973,241,128,1761,-127,-3,-14
974,-6,-261,495,-134,-49,3
975,-406,422,1205,223,-57,-74
976,-382,30,863,-276,-143,-56
977,-227,-536,641,-134,-197,-6
978,-29,-210,1209,96,-164,0
979,-103,15,1332,92,-194,47
980,-206,32,1108,-18,-310,75
981,-298,-171,781,-15,-387,53
982,-496,82,983,147,-425,45
983,-476,-34,963,-21,-475,55
984,-342,-114,1047,59,-536,72
985,-187,-23,1156,90,-605,76
986,-88,-35,1110,67,-669,81
987,-193,99,1136,94,-720,76
988,-391,-10,941,0,-797,76
989,-405,-149,895,35,-926,124
990,-163,-278,987,73,-1003,186
991,-102,-200,972,201,-983,236
992,-102,77,1057,252,-986,267
993,18,47,1052,132,-1034,272
994,-67,94,1073,167,-1069,242
995,-228,113,999,110,-1119,202
996,-163,-40,897,65,-1199,178
997,26,-120,941,110,-1227,182
998,245,-211,922,121,-1188,209
999,354,-60,1024,225,-1118,236
1000,256,97,1034,184,-1074,250
1001,119,71,901,113,-1088,242
1002,111,30,925,103,-1119,224
1003,219,-116,862,68,-1105,207
1004,378,-159,858,146,-1022,201
1005,543,-51,958,191,-914,201
1006,565,44,978,176,-802,200
1007,433,162,1002,147,-722,178
1008,281,150,909,62,-685,137
1009,252,44,820,17,-657,97
1010,406,-79,832,16,-596,70
1011,622,-142,904,66,-471,58
1012,698,-8,1009,136,-320,57
1013,578,149,998,107,-198,54
1014,387,186,926,35,-136,35
1015,264,153,882,-16,-105,8
1016,295,5,808,-75,-57,-16
1017,457,-111,850,-27,32,-35
1018,636,-51,1006,43,152,-33
1019,608,73,1060,44,249,-13
1020,472,129,1022,-13,311,2
1021,245,126,899,-43,359,-19
1022,82,98,783,-67,403,-43
1023,158,-35,744,-98,431,-55
1024,431,-68,1021,-50,479,-49
1025,569,8,1230,-27,553,-31
1026,416,54,1044,-69,606,-23
1027,149,121,936,-71,624,-42
1028,-13,73,829,-129,632,-68
1029,-45,-95,702,-146,650,-74
1030,152,-133,915,-77,680,-67
1031,412,-50,1230,-40,726,-45
1032,348,21,1148,-62,760,-25
1033,136,70,960,-86,761,-33
1034,-76,93,892,-105,746,-65
1035,-146,-21,772,-142,745,-87
1036,-30,-117,802,-110,759,-84
1037,208,-37,1134,-51,788,-64
1038,323,18,1215,-77,819,-46
1039,190,60,1018,-96,826,-42
1040,-9,90,924,-116,815,-61
1041,-102,20,840,-148,805,-85
1042,-77,-92,793,-143,820,-94
1043,109,-97,976,-94,852,-82
1044,320,-19,1175,-80,888,-60
1045,296,6,1059,-109,917,-42
1046,153,48,937,-109,932,-46
1047,-22,53,892,-133,940,-67
1048,-68,-51,794,-154,956,-82
1049,40,-83,887,-118,984,-76
1050,224,-30,1095,-95,1021,-57
1051,299,9,1106,-106,1049,-34
1052,209,53,1005,-119,1063,-20
1053,20,57,935,-138,1078,-18
1054,-107,-32,839,-165,1093,-10
1055,-509,221,997,-124,1118,8
1056,-1875,948,1867,-190,710,84
1057,-599,-896,-313,-639,-56,253
1058,-957,381,1102,129,111,109
1059,-679,71,1044,-289,60,-179
1060,-30,-1068,-366,-251,-41,-214
1061,-1598,-396,318,185,-112,-302
1062,-253,-495,1284,348,-462,-585
1063,1206,-252,1722,217,-446,-125
1064,-366,-989,-513,-87,-153,136
1065,367,379,1213,660,-245,-42
1066,206,663,1600,141,-258,-53
1067,94,-555,-50,-187,-263,29
1068,-67,189,1085,390,-250,2
1069,79,529,1524,226,-195,-80
1070,159,32,838,-109,-222,4
1071,74,-33,701,64,-251,48
1072,213,394,1338,173,-230,-27
1073,-80,279,1237,-62,-220,-59
1074,-342,-98,516,-134,-259,-75
1075,-234,57,786,41,-324,-91
1076,-47,347,1220,-10,-330,-94
1077,196,137,1229,-225,-315,-70
1078,186,-164,1032,-192,-300,-77
1079,-29,5,1047,-11,-302,-83
1080,-185,-88,967,-149,-340,-17
1081,-229,-412,685,-125,-370,45
1082,-108,-387,883,58,-384,88
1083,74,-271,1082,131,-397,125
1084,179,-21,1278,170,-418,152
1085,17,-21,957,63,-435,126
1086,-170,109,937,148,-453,61
1087,-278,110,940,54,-471,26
1088,-217,-72,821,19,-484,18
1089,-24,0,1072,113,-485,21
1090,140,40,1163,66,-492,32
1091,161,74,1124,64,-511,40
1092,14,84,1014,21,-528,27
1093,-184,43,885,15,-543,15
1094,-229,-71,835,-11,-586,34
1095,2,-223,921,27,-611,71
1096,152,-134,1082,130,-572,110
1097,146,16,1098,128,-556,134
1098,138,59,1043,89,-576,125
1099,-7,62,997,62,-600,100
1100,-153,-4,868,40,-633,89
1101,-59,-91,888,44,-665,96
1102,155,-157,959,88,-645,108
1103,292,-45,1029,146,-578,125
1104,265,76,1052,123,-530,126
1105,189,126,1032,82,-519,100
1106,30,111,960,34,-528,63
1107,-23,-5,831,-5,-548,38
1108,168,-119,883,19,-542,29
1109,374,-135,990,68,-467,42
1110,429,-39,1030,102,-373,67
1111,353,69,1012,84,-323,76
1112,208,120,983,51,-300,55
1113,82,80,894,5,-298,28
1114,109,-46,810,-20,-290,10
1115,317,-108,924,22,-239,5
1116,488,-54,1035,66,-141,17
1117,460,51,1032,63,-57,32
1118,365,120,1005,31,-16,22
1119,191,146,951,-2,21,-9
1120,55,69,803,-54,47,-32
1121,163,-61,784,-61,72,-40
1122,422,-77,1024,-7,132,-32
1123,519,-9,1137,10,212,-7
1124,441,54,1039,-17,259,10
1125,238,116,964,-26,290,-4
1126,69,86,846,-69,324,-30
1127,0,-45,710,-93,355,-41
1128,197,-83,912,-43,387,-33
1129,459,-34,1201,-27,434,-10
1130,441,10,1126,-41,484,7
1131,256,76,960,-47,503,-4
1132,48,109,911,-76,514,-32
1133,-42,-24,760,-123,536,-48
1134,24,-123,771,-86,568,-39
1135,267,-48,1116,-21,603,-17
1136,388,13,1212,-51,642,7
1137,264,51,1009,-69,658,9
1138,61,118,936,-72,658,-12
1139,-41,41,855,-128,664,-37
1140,-56,-74,772,-121,686,-39
1141,106,-68,974,-72,719,-24
1142,313,-9,1161,-65,756,0
1143,304,25,1073,-89,787,19
1144,170,64,949,-100,798,16
1145,-2,67,905,-121,808,-4
1146,-69,-31,817,-145,821,-20
1147,29,-87,867,-116,848,-19
1148,207,-49,1073,-85,889,-6
1149,311,-11,1083,-94,923,8
1150,261,35,1007,-104,944,13
1151,91,63,936,-124,965,-1
1152,-23,-4,841,-153,986,-21
1153,-39,-72,822,-138,1015,-26
1154,-256,207,1147,-101,1062,-19
1155,-1835,767,1849,-194,704,37
1156,-501,-698,-134,-512,22,178
1157,-841,456,1233,120,194,45
1158,-604,-69,847,-348,178,-184
1159,-183,-1014,-325,-171,102,-215
1160,-1774,-310,339,187,-32,-366
1161,-985,-165,505,310,-537,-600
1162,1478,-252,1637,238,-704,-338
1163,662,-215,1002,51,-119,117
1164,147,-741,-425,82,3,57
1165,158,1210,1831,660,-52,-79
1166,318,-396,195,-521,-49,-7
1167,288,-237,511,214,-23,97
1168,248,623,1608,172,62,-41
1169,507,432,1443,-46,18,-31
1170,270,-166,351,-271,27,1
1171,-22,169,835,151,110,-110
1172,-321,381,1168,-102,107,-100
1173,-307,-46,1062,-256,28,-10
1174,-188,-145,906,-96,-2,22
1175,54,89,1234,7,-44,23
1176,306,-367,809,-219,-29,32
1177,133,-289,943,27,30,22
1178,-171,-85,998,24,50,-15
1179,-256,-190,965,-27,-1,-21
1180,-221,-204,933,53,-49,-17
1181,-14,-127,985,103,-85,4
1182,116,37,1168,122,-92,20
1183,-35,140,1056,67,-76,-12
1184,-265,207,1054,44,-115,-57
1185,-415,94,916,-40,-168,-85
1186,-410,12,930,-19,-227,-98
1187,-257,-9,1105,-4,-275,-78
1188,-93,-106,1133,-38,-323,-25
1189,-129,-60,1113,35,-381,17
1190,-285,41,1061,38,-445,42
1191,-490,7,956,1,-529,56
1192,-504,-107,931,-1,-639,71
1193,-276,-265,990,29,-720,105
1194,-177,-165,1056,151,-729,140
1195,-172,16,1109,152,-768,162
1196,-125,-7,1048,90,-839,160
1197,-240,23,1062,113,-908,145
1198,-364,-3,968,83,-1003,129
1199,-241,-118,940,86,-1095,129
1200,-56,-166,963,136,-1121,146
1201,99,-118,976,181,-1096,170
1202,120,28,1048,210,-1073,184
1203,92,109,1074,159,-1076,172
1204,-71,78,937,107,-1114,145
1205,-40,-7,892,93,-1166,118
1206,154,-117,901,99,-1169,107
1207,357,-139,915,151,-1098,121
1208,447,-24,976,191,-996,143
1209,432,87,998,165,-921,149
1210,301,136,968,122,-878,132
1211,224,97,893,67,-862,96
1212,266,-24,824,42,-836,65
1213,457,-105,877,71,-757,49
1214,648,-82,934,110,-619,54
1215,664,38,977,132,-469,64
1216,544,143,960,92,-363,55
1217,373,161,913,36,-303,22
1218,323,83,843,-16,-262,-12
1219,400,-51,793,-31,-187,-36
1220,605,-82,907,24,-69,-43
1221,703,2,1012,54,75,-26
1222,638,96,1016,27,181,-7
1223,471,129,947,-13,251,-15
1224,290,144,879,-33,311,-46
1225,188,64,762,-78,365,-72
1226,342,-43,826,-77,422,-74
1227,577,-22,1091,-40,501,-53
1228,611,15,1120,-56,591,-24
1229,424,81,982,-58,645,-18
1230,187,135,908,-85,678,-34
1231,47,26,766,-139,708,-48
1232,89,-77,738,-116,744,-48
1233,328,-59,1034,-67,796,-28
1234,470,3,1198,-70,857,4
1235,354,53,1051,-93,891,13
1236,109,118,923,-105,898,-7
1237,-25,74,851,-149,901,-36
1238,-61,-71,754,-166,921,-43
1239,93,-88,927,-109,957,-30
1240,305,-23,1172,-90,996,-11
1241,316,9,1090,-119,1026,5
1242,156,58,955,-122,1034,-1
1243,-22,65,897,-148,1033,-28
1244,-105,-34,816,-171,1039,-52
1245,-18,-102,847,-146,1063,-57
1246,166,-67,1066,-109,1099,-45
1247,278,-27,1102,-120,1128,-30
1248,216,10,1005,-126,1143,-25
1249,46,51,935,-135,1151,-41
1250,-76,0,854,-161,1159,-63
1251,-101,-56,837,-157,1183,-71
1252,-1103,627,1524,-101,1164,-67
1253,-1536,1,1218,-488,345,130
1254,-139,-402,-126,-156,61,183
1255,-1184,704,1398,50,288,-98
1256,53,-760,58,-499,176,-247
1257,-832,-675,75,64,121,-215
1258,-1801,-198,396,206,-131,-490
1259,-459,-61,679,323,-666,-597
1260,934,-160,1554,182,-772,-332
1261,1279,-370,1493,38,-209,54
1262,-231,-839,-220,9,-51,119
1263,-216,1154,1643,683,-185,-99
1264,176,-247,601,-462,-255,-43
1265,-275,-384,60,128,-263,78
1266,530,162,1600,123,-189,-47
1267,404,497,1736,215,-121,-102
1268,-150,198,829,-197,-191,-78
1269,-180,-419,150,-60,-283,-97
1270,-246,467,1344,191,-298,-162
1271,-66,-75,988,-206,-228,-179
1272,-112,-146,929,-20,-234,-119
1273,94,-40,1207,28,-284,-99
1274,131,2,1119,13,-313,-39
1275,-166,-2,945,-23,-347,3
1276,-253,-79,758,8,-378,-2
1277,-277,39,1040,71,-392,-1
1278,-185,-100,965,-14,-407,18
1279,-19,-137,1029,40,-447,44
1280,127,8,1226,105,-480,43
1281,41,34,1025,25,-492,44
1282,-196,49,931,38,-509,30
1283,-289,-2,867,14,-551,16
1284,-167,-151,920,14,-598,30
1285,9,-157,1007,90,-586,58
1286,104,-23,1112,118,-571,81
1287,124,38,1091,90,-589,75
1288,47,44,1018,58,-605,50
1289,-169,36,928,49,-634,29
1290,-164,-51,877,31,-691,17
1291,40,-162,951,60,-709,25
1292,165,-124,986,122,-660,48
1293,245,-5,1052,142,-616,68
1294,188,92,1048,109,-600,66
1295,48,105,994,65,-618,36
1296,-49,43,908,37,-657,5
1297,41,-76,896,25,-678,-11
1298,223,-140,943,69,-642,0
1299,370,-85,986,109,-565,29
1300,367,23,1008,117,-498,53
1301,265,117,1021,93,-467,54
1302,107,116,956,39,-471,37
1303,79,16,864,1,-482,19
1304,217,-98,865,9,-460,13
1305,415,-116,957,64,-374,26
1306,474,-13,1017,96,-264,53
1307,395,104,1001,79,-189,66
1308,230,155,975,33,-158,50
1309,127,108,908,-18,-153,22
1310,147,-29,834,-49,-133,-1
1311,324,-110,901,-8,-72,-10
1312,497,-59,1012,40,34,1
1313,455,55,1025,42,128,20
1314,356,114,1003,5,172,17
1315,171,125,943,-27,204,-13
1316,42,67,831,-63,225,-41
1317,144,-62,808,-77,247,-52
1318,375,-81,1020,-24,304,-40
1319,459,-18,1118,-16,374,-10
1320,384,43,1038,-27,410,6
1321,181,113,982,-36,434,-5
1322,-7,75,840,-84,454,-24
1323,-53,-35,755,-93,468,-38
1324,145,-69,953,-56,492,-31
1325,355,-39,1164,-49,534,-2
1326,344,0,1112,-53,563,17
1327,190,76,996,-54,566,11
1328,-19,94,913,-86,571,-9
1329,-116,-23,762,-120,584,-22
1330,-21,-102,817,-87,604,-14
1331,224,-55,1119,-46,630,13
1332,340,-16,1180,-60,654,38
1333,241,45,1026,-63,660,41
1334,42,101,941,-79,663,20
1335,-68,27,833,-122,671,-7
1336,-70,-84,777,-117,694,-13
1337,118,-67,1009,-70,724,0
1338,325,-21,1169,-71,759,20
1339,296,4,1033,-88,789,32
1340,176,68,946,-86,801,22
1341,19,56,898,-122,816,-3
1342,-36,-46,800,-138,841,-21
1343,75,-72,898,-102,879,-20
1344,246,-37,1069,-89,923,-5
1345,333,-1,1066,-99,963,9
1346,291,45,999,-109,991,9
1347,-691,615,1404,-89,1010,-21
1348,-1787,527,1713,-376,532,63
1349,-498,-775,-111,-449,159,197
1350,-1354,409,1140,68,326,-11
1351,-530,-602,45,-351,145,-263
1352,-440,-688,-37,92,-25,-280
1353,-1652,-49,726,208,-261,-394
1354,-521,-138,878,192,-608,-433
1355,1271,-199,1780,152,-608,-181
1356,458,-525,795,-26,-137,72
1357,274,-598,22,247,-66,64
1358,430,953,1813,518,-101,-8
1359,737,-218,594,-372,-98,60
1360,278,-98,649,189,-35,79
1361,252,499,1286,190,84,-86
1362,161,161,1031,-95,139,-72
1363,-210,62,631,-84,122,-13
1364,-93,157,963,-67,49,-7
1365,3,454,1668,-3,6,-15
1366,-50,-58,678,-271,24,-34
1367,-123,26,854,-10,-5,-21
1368,-86,-31,1111,-176,8,-19
1369,-64,-603,719,-184,23,-9
1370,-81,-201,1169,74,4,-28
1371,106,-283,1085,-20,-39,-22
1372,47,-167,967,72,-54,-13
1373,-146,-49,936,89,-63,-36
1374,-263,-32,881,69,-79,-45
1375,-336,63,1040,100,-103,-57
1376,-287,73,1055,55,-156,-60
1377,-122,75,1126,44,-224,-48
1378,-51,115,1152,39,-271,-41
1379,-228,177,1074,16,-310,-50
1380,-427,144,997,-33,-387,-85
1381,-469,12,948,-60,-476,-128
1382,-355,-160,997,-62,-530,-118
1383,-262,-300,979,-28,-543,-49
1384,-142,-242,1071,74,-590,24
1385,-89,-144,1104,110,-659,76
1386,-224,-58,1030,125,-727,107
1387,-395,7,986,121,-825,117
1388,-354,-61,971,99,-934,119
1389,-171,-133,965,129,-984,121
1390,-69,-51,997,188,-975,121
1391,21,80,1084,183,-969,117
1392,-12,116,1076,122,-989,97
1393,-139,74,991,81,-1045,68
1394,-186,-4,947,68,-1122,44
1395,-19,-133,934,73,-1161,44
1396,123,-192,883,120,-1140,73
1397,312,-126,951,183,-1092,114
1398,377,0,1052,198,-1030,144
1399,235,89,1004,165,-990,153
1400,93,104,913,120,-1002,132
1401,104,18,869,81,-1019,108
1402,285,-99,867,84,-989,94
1403,485,-117,919,136,-886,97
1404,566,1,995,176,-759,111
1405,490,135,1003,150,-658,115
1406,320,160,933,83,-610,103
1407,224,106,866,32,-591,81
1408,289,-16,836,4,-556,61
1409,472,-110,868,35,-465,52
1410,659,-58,968,103,-327,55
1411,631,85,1005,115,-197,64
1412,487,187,986,71,-111,60
1413,307,186,915,2,-66,38
1414,240,84,811,-53,-31,17
1415,355,-43,804,-57,28,3
1416,565,-66,951,-1,133,0
1417,645,30,1074,28,247,16
1418,568,112,1039,-11,324,33
1419,369,130,958,-52,381,21
1420,172,102,836,-74,435,-9
1421,108,-12,712,-106,480,-23
1422,284,-79,860,-76,521,-17
1423,573,-34,1182,-48,585,3
1424,546,5,1143,-64,658,17
1425,302,73,956,-68,696,7
1426,65,103,884,-98,709,-23
1427,-24,-29,729,-144,732,-42
1428,59,-132,747,-106,767,-40
1429,319,-52,1121,-41,810,-19
1430,420,21,1251,-68,856,8
1431,255,49,1008,-95,874,14
1432,3,108,912,-98,869,-8
1433,-117,44,830,-140,859,-38
1434,-95,-76,769,-137,870,-47
1435,89,-43,1000,-83,898,-33
1436,303,7,1194,-103,934,-8
1437,257,23,1075,-123,958,10
1438,91,64,948,-126,960,5
1439,-80,36,877,-153,950,-15
1440,-119,-55,797,-156,956,-30
1441,0,-93,879,-129,979,-27
1442,202,-51,1107,-101,1011,-9
1443,285,-13,1120,-112,1037,6
1444,193,33,997,-118,1050,10
1445,2,50,936,-135,1058,-6
1446,-114,-33,819,-163,1065,-21
1447,-117,-77,826,-141,1089,-20
1448,1,-20,1033,-120,1109,-7
1449,-1496,880,1794,-86,981,-3
1450,-1144,-269,673,-591,184,161
1451,-391,-55,514,-53,149,132
1452,-1035,415,1288,-130,276,-118
1453,-100,-1003,-268,-419,214,-242
1454,-1368,-583,210,139,119,-302
1455,-1569,-212,378,314,-300,-603
1456,-242,39,725,329,-778,-576
1457,1611,-142,1874,204,-681,-254
1458,367,-598,571,-143,-67,102
1459,-481,-180,222,332,-99,-1
1460,-80,1059,1610,367,-204,-152
1461,202,-847,-247,-517,-286,3
1462,171,-15,1252,337,-273,46
1463,681,277,1568,143,-161,-101
1464,60,668,1640,149,-186,-82
1465,-281,-413,51,-392,-258,-73
1466,-346,-40,596,170,-309,-83
1467,-142,139,1176,-51,-305,-119
1468,255,-134,1308,-22,-225,-142
1469,12,14,1029,64,-243,-100
1470,57,62,1002,23,-314,-86
1471,-35,197,1248,47,-338,-66
1472,-356,-79,641,-123,-356,-47
1473,-221,-153,750,59,-402,-48
1474,7,53,1274,92,-382,-17
1475,1,-59,1099,-23,-375,41
1476,119,-101,960,35,-443,72
1477,79,111,1145,117,-460,71
1478,-186,96,924,0,-448,79
1479,-305,-32,799,-13,-481,82
1480,-157,-72,947,37,-509,88
1481,17,-114,1051,42,-511,109
1482,134,-16,1161,94,-519,123
1483,125,17,1086,40,-537,116
1484,-47,29,990,48,-557,91
1485,-187,-22,886,13,-600,91
1486,-164,-198,835,14,-650,130
1487,24,-204,970,119,-646,177
1488,71,-49,1057,169,-608,206
1489,115,80,1071,154,-603,205
1490,122,120,1092,96,-627,170
1491,-56,111,1009,67,-639,124
1492,-174,20,882,22,-676,106
1493,-80,-102,863,26,-719,118
1494,175,-175,964,74,-696,142
1495,295,-83,1034,139,-626,172
1496,230,68,1050,141,-585,184
1497,137,107,1035,84,-592,167
1498,22,54,938,44,-612,151
1499,-28,-40,839,28,-630,146
1500,152,-138,876,55,-620,152
1501,351,-111,1009,116,-550,166
1502,407,13,1039,137,-464,181
1503,315,115,1019,105,-419,169
1504,183,144,994,58,-408,133
1505,69,63,886,3,-406,110
1506,121,-70,805,-12,-397,104
1507,341,-141,903,40,-341,105
1508,529,-45,1055,101,-239,109
1509,484,88,1052,87,-152,112
1510,336,128,984,27,-109,87
1511,189,113,915,-2,-85,45
1512,109,13,805,-45,-59,26
1513,246,-118,792,-39,-15,28
1514,466,-92,1008,35,67,31
1515,553,32,1136,55,149,41
1516,446,92,1032,1,204,43
1517,248,118,940,-25,243,10
1518,61,92,841,-54,282,-30
1519,40,-42,720,-94,310,-39
1520,265,-103,904,-44,347,-32
1521,535,-19,1221,-2,406,-18
1522,473,33,1117,-36,462,-2
1523,260,85,957,-52,486,-9
1524,51,108,887,-73,501,-42
1525,-37,-28,724,-119,530,-58
1526,80,-111,780,-76,562,-51
1527,350,-32,1169,-27,605,-28
1528,437,12,1220,-61,649,-7
1529,257,57,980,-73,668,-8
1530,49,110,923,-82,667,-38
1531,-71,22,816,-132,677,-67
1532,-32,-99,770,-122,701,-70
1533,171,-73,1004,-66,739,-54
1534,379,5,1202,-67,785,-32
1535,311,31,1057,-99,811,-24
1536,144,70,935,-104,820,-39
1537,-16,47,870,-132,827,-69
1538,-51,-64,779,-145,851,-89
1539,91,-95,887,-105,886,-84
1540,291,-35,1107,-82,935,-65
1541,369,-4,1102,-102,976,-43
1542,262,52,972,-107,1003,-38
1543,95,62,916,-129,1028,-49
1544,-15,-27,808,-157,1056,-56
1545,11,-79,804,-132,1096,-40
1546,163,-17,1004,-102,1141,-7
1547,112,211,1248,-110,1186,18
1548,-1766,1124,1914,-164,924,49
1549,-691,-578,319,-712,165,239
1550,-697,100,854,-31,327,176
1551,-985,155,1066,-254,399,-115
1552,-212,-1240,-484,-302,272,-243
1553,-1609,-495,140,229,104,-356
1554,-1249,-71,601,386,-378,-641
1555,-171,119,762,262,-762,-481
1556,140,56,1154,153,-772,-270
1557,1657,-447,1833,-27,-373,-28
1558,-396,-644,-65,-16,2,114
1559,-195,427,726,504,-73,-44
1560,353,456,1492,-4,-134,22
1561,223,-554,68,-267,-170,193
1562,720,37,1428,267,-97,94
1563,161,779,1733,276,-17,-60
1564,-285,146,812,-288,-76,-56
1565,-258,-478,-165,-118,-138,-10
1566,-201,98,799,2,-166,15
1567,709,-77,1844,-25,-79,-49
1568,116,114,1119,30,-15,-52
1569,-325,11,675,-57,-121,-49
1570,-157,186,1118,41,-196,-64
1571,-375,-108,869,-152,-205,-36
1572,-176,-399,580,-1,-221,2
1573,124,89,1555,162,-225,51
1574,-85,72,1196,-19,-247,90
1575,-172,-37,869,-24,-354,92
1576,-341,50,958,69,-403,66
1577,-449,27,902,3,-425,69
1578,-367,-126,952,-18,-477,102
1579,-173,-107,1115,66,-525,116
1580,-65,-44,1175,74,-577,126
1581,-108,17,1103,64,-638,129
1582,-269,15,1021,39,-698,118
1583,-383,-95,924,22,-803,150
1584,-274,-258,891,45,-905,222
1585,-116,-248,987,161,-922,283
1586,-115,9,1043,252,-904,317
1587,-39,100,1067,172,-931,321
1588,-24,107,1081,140,-972,287
1589,-183,143,1066,119,-1010,237
1590,-245,25,930,46,-1087,208
1591,-121,-97,885,64,-1150,208
1592,153,-224,942,91,-1149,232
1593,300,-154,996,185,-1080,268
1594,258,38,1046,203,-1026,296
1595,114,72,955,134,-1033,296
1596,75,55,939,116,-1070,280
1597,93,-60,878,75,-1087,265
1598,245,-160,848,116,-1048,255
1599,426,-110,946,182,-963,254
1600,527,-2,997,193,-857,260
1601,447,115,1001,169,-769,249
1602,277,173,965,108,-727,212
1603,191,98,886,38,-714,166
1604,257,-41,808,5,-688,134
1605,477,-161,853,45,-607,112
1606,683,-103,990,126,-469,98
1607,626,80,1029,146,-328,93
1608,429,163,945,71,-248,78
1609,293,164,896,15,-220,42
1610,264,59,844,-43,-190,7
1611,406,-113,793,-49,-121,-14
1612,603,-120,943,39,-1,-27
1613,663,19,1045,78,127,-17
1614,555,126,1025,36,212,-3
1615,368,145,939,-18,266,-16
1616,176,138,855,-44,315,-54
1617,156,33,760,-92,353,-83
1618,352,-82,857,-73,405,-91
1619,606,-28,1145,-17,484,-74
1620,562,41,1131,-41,564,-51
1621,327,92,971,-65,604,-53
1622,92,123,870,-88,624,-79
1623,-12,10,732,-140,645,-102
1624,128,-117,776,-117,673,-112
1625,400,-90,1118,-55,731,-102
1626,471,-3,1207,-58,793,-79
1627,291,63,1011,-82,820,-81
1628,68,111,920,-105,819,-111
1629,-82,37,808,-149,827,-139
1630,-55,-97,735,-155,842,-146
1631,163,-96,990,-86,877,-138
1632,381,-9,1220,-73,919,-118
1633,293,53,1081,-99,945,-111
1634,97,105,959,-118,941,-132
1635,-55,72,876,-158,932,-161
1636,-87,-59,760,-175,947,-174
1637,54,-112,856,-132,980,-165
1638,272,-40,1128,-89,1022,-146
1639,354,13,1143,-113,1053,-123
1640,221,41,969,-136,1071,-117
1641,34,74,910,-142,1078,-135
1642,-85,-16,811,-179,1091,-148
1643,-27,-105,811,-159,1114,-143
1644,146,-60,1035,-108,1151,-120
1645,296,-3,1138,-117,1181,-92
1646,226,38,1037,-129,1196,-68
1647,56,62,974,-145,1200,-60
1648,-215,77,925,-173,1207,-52
1649,-1728,945,1820,-152,1007,-8
1650,-1088,-698,158,-671,123,271
1651,-790,102,475,49,182,209
1652,-1149,428,1283,-156,215,-154
1653,218,-1115,-295,-385,52,-264
1654,-1301,-383,402,185,-46,-247
1655,-1528,-188,595,291,-326,-555
1656,-32,4,1172,298,-763,-537
1657,1369,-382,1877,104,-566,-166
1658,261,-897,307,-60,-177,131
1659,-27,246,953,541,-288,16
1660,129,975,1680,233,-370,-78
1661,16,-813,-294,-433,-417,56
1662,-397,199,929,361,-398,45
1663,294,187,1448,42,-325,-85
1664,-59,481,1532,165,-326,-56
1665,-40,-282,323,-256,-424,-7
1666,154,158,1217,237,-466,-14
1667,-152,482,1473,23,-416,-56
1668,-335,-292,391,-248,-468,-23
1669,-274,59,1081,139,-548,-11
1670,-4,-146,1078,-95,-529,2
1671,10,-162,1074,58,-548,67
1672,82,-89,1047,40,-597,86
1673,41,-71,1032,77,-615,93
1674,-259,124,1029,98,-618,90
1675,-309,-155,688,-38,-658,88
1676,-160,-113,932,137,-699,95
1677,83,-63,1157,101,-698,107
1678,151,-45,1102,112,-699,121
1679,103,116,1112,121,-721,102
1680,-43,52,952,38,-738,71
1681,-170,15,879,56,-776,70
1682,-93,-158,836,22,-815,106
1683,153,-207,955,121,-798,148
1684,223,24,1101,203,-730,182
1685,228,69,1008,110,-709,191
1686,220,126,1056,121,-717,161
1687,67,120,1000,57,-716,127
1688,-22,-17,824,14,-733,121
1689,97,-87,855,54,-741,132
1690,341,-157,953,76,-693,157
1691,443,-47,1039,152,-600,187
1692,356,96,1032,125,-533,197
1693,207,113,963,70,-519,173
1694,118,99,939,46,-526,152
1695,94,-52,819,-10,-523,142
1696,264,-149,861,52,-484,141
1697,456,-80,1036,107,-395,151
1698,453,32,1034,109,-293,168
1699,326,116,996,76,-246,155
1700,172,130,959,33,-231,116
1701,83,59,892,-15,-225,89
1702,131,-78,803,-37,-206,79
1703,341,-129,914,26,-143,68
1704,493,-17,1088,78,-52,64
1705,443,74,1079,39,18,60
1706,267,100,967,-8,54,27
1707,112,92,897,-25,78,-19
1708,28,-11,779,-67,95,-39
1709,201,-147,816,-50,125,-37
1710,445,-110,1083,28,187,-25
1711,500,20,1166,40,253,-6
1712,357,69,1017,-10,288,-4
1713,142,123,931,-19,310,-36
1714,-21,76,818,-64,333,-70
1715,4,-59,718,-88,352,-86
1716,273,-63,1014,-22,386,-83
1717,475,0,1237,-24,438,-59
1718,376,38,1080,-48,477,-44
1719,155,111,958,-50,481,-63
1720,-14,86,857,-98,488,-90
1721,-78,-55,720,-123,502,-102
1722,108,-104,888,-68,528,-97
1723,341,-41,1200,-39,575,-68
1724,359,4,1134,-63,615,-41
1725,203,70,984,-62,618,-51
1726,19,105,926,-92,613,-79
1727,-85,-16,804,-137,626,-97
1728,-15,-100,800,-104,650,-93
1729,197,-63,1044,-59,687,-73
1730,368,-1,1166,-63,724,-55
1731,310,50,1049,-82,747,-52
1732,121,94,947,-103,755,-74
1733,-9,42,852,-138,766,-107
1734,-33,-69,775,-142,791,-123
1735,137,-94,920,-99,832,-118
1736,336,-42,1127,-82,881,-100
1737,379,2,1066,-97,925,-82
1738,266,57,963,-108,953,-84
1739,86,61,891,-132,977,-101
1740,-11,-20,809,-153,1006,-119
1741,66,-69,855,-135,1045,-116
1742,218,-44,1035,-108,1094,-98
1743,349,0,1081,-112,1129,-72
1744,283,67,1023,-120,1159,-54
1745,-1327,914,1733,-105,1090,-56
1746,-1363,-130,1027,-618,344,186
1747,-475,-293,114,-164,298,245
1748,-1427,428,1180,-96,423,-72
1749,-173,-1048,-359,-370,231,-287
1750,-1082,-478,305,188,76,-311
1751,-1504,-100,531,281,-290,-529
1752,-276,82,902,243,-663,-469
1753,-455,155,885,137,-733,-254
1754,1649,-698,1861,-71,-526,-100
1755,465,-572,978,99,-71,141
1756,-227,62,176,321,-70,40
1757,491,802,1669,340,-162,26
1758,115,-379,271,-436,-172,183
1759,91,-242,596,208,-119,171
1760,253,553,1751,234,-37,22
1761,-171,490,1388,8,-33,9
1762,-131,-518,-176,-321,-136,99
1763,103,273,1285,226,-183,89
1764,290,281,1517,-84,-102,7
1765,-196,-16,831,-145,-108,3
1766,-387,38,871,-24,-193,-35
1767,-172,-111,992,-112,-239,-43
1768,-193,-292,936,-61,-243,18
1769,70,-336,920,18,-270,54
1770,102,-25,1369,147,-296,75
1771,-192,44,1005,19,-321,70
1772,-325,-71,817,17,-387,49
1773,-404,-20,883,85,-422,34
1774,-261,-84,954,45,-442,39
1775,-99,-27,1161,103,-480,58
1776,29,34,1205,73,-534,57
1777,-41,49,1060,57,-575,46
1778,-262,130,996,56,-606,25
1779,-383,-24,863,-23,-667,25
1780,-276,-178,875,19,-735,58
1781,-50,-206,1063,93,-746,101
1782,5,-60,1096,157,-738,137
1783,-8,70,1115,133,-780,145
1784,-36,12,1023,68,-833,131
1785,-223,19,982,93,-887,124
1786,-262,-72,892,60,-962,141
1787,-93,-192,887,96,-1014,170
1788,162,-134,1048,185,-993,202
1789,170,-20,1002,190,-943,230
1790,139,114,1050,185,-934,232
1791,52,139,1035,117,-958,208
1792,-28,45,909,63,-998,184
1793,37,-59,875,67,-1024,168
1794,241,-155,906,87,-1001,169
1795,443,-125,980,158,-917,189
1796,457,-3,994,174,-820,210
1797,343,102,974,153,-763,212
1798,205,134,957,98,-754,191
1799,174,26,860,37,-751,171
1800,289,-103,815,42,-715,155
1801,503,-130,925,101,-621,146
1802,609,-24,1004,154,-485,144
1803,534,127,1006,137,-374,139
1804,344,179,937,70,-315,114
1805,258,155,908,9,-293,74
1806,259,12,834,-46,-259,43
1807,416,-119,832,-23,-178,24
1808,602,-76,974,58,-56,16
1809,610,67,1038,79,66,20
1810,495,149,1005,24,141,22
1811,309,148,916,-29,194,-2
1812,167,114,849,-54,236,-33
1813,197,-23,752,-102,276,-45
1814,435,-97,925,-47,335,-44
1815,599,3,1167,3,419,-28
1816,519,54,1076,-44,487,-7
1817,271,99,940,-56,525,-14
1818,94,107,861,-88,554,-42
1819,10,-36,707,-128,580,-54
1820,170,-101,843,-80,614,-47
1821,445,-37,1193,-40,666,-27
1822,455,20,1173,-62,721,-10
1823,252,73,971,-80,740,-15
1824,25,108,898,-100,743,-43
1825,-73,-2,785,-145,752,-65
1826,-16,-113,748,-127,775,-58
1827,215,-60,1076,-57,811,-38
1828,366,22,1229,-69,851,-14
1829,251,50,1044,-104,867,-5
1830,34,101,932,-110,860,-24
1831,-78,44,851,-156,852,-54
1832,-93,-83,770,-157,862,-67
1833,77,-95,941,-102,894,-59
1834,283,-32,1166,-87,929,-41
1835,295,10,1098,-108,957,-24
1836,149,45,953,-122,967,-29
1837,-35,54,897,-137,966,-52
1838,-111,-44,819,-162,971,-69
1839,-36,-104,853,-136,991,-71
1840,146,-52,1091,-96,1017,-59
1841,244,-9,1115,-108,1037,-45
1842,170,34,1023,-119,1042,-39
1843,-20,66,957,-134,1037,-55
1844,-149,-11,861,-168,1034,-73
1845,-196,-83,831,-151,1037,-76
1846,-963,494,1437,-85,1018,-72
1847,-1729,240,1387,-382,385,87
1848,-274,-470,-47,-248,-8,192
1849,-1098,626,1424,43,167,-6
1850,-245,-517,273,-483,96,-176
1851,-666,-669,60,-51,-6,-158
1852,-1780,-491,88,138,-169,-367
1853,-31,-379,1579,368,-560,-594
1854,1184,-253,1736,216,-466,-111
1855,-240,-998,-352,-102,-172,144
1856,103,587,1325,718,-303,-66
1857,-111,754,1506,35,-369,-139
1858,-106,-807,-419,-249,-418,-50
1859,-101,319,1228,395,-412,-81
1860,241,482,1606,128,-330,-190
1861,91,291,1175,-71,-366,-120
1862,-177,-165,504,-136,-460,-106
1863,-113,279,1143,188,-496,-194
1864,-347,313,1262,-59,-496,-231
1865,-352,-252,556,-208,-537,-203
1866,-52,-234,1118,23,-574,-143
1867,48,-178,1202,23,-563,-76
1868,4,-157,1027,51,-621,9
1869,-127,-81,975,87,-679,47
1870,-270,3,925,113,-709,44
1871,-367,10,922,92,-755,43
1872,-178,-121,891,68,-795,46
1873,40,-75,1098,147,-804,57
1874,116,76,1171,151,-809,64
1875,79,96,1059,84,-830,61
1876,-89,100,967,70,-868,51
1877,-194,23,899,30,-928,62
1878,-18,-180,881,21,-985,98
1879,205,-204,964,130,-951,144
1880,280,-53,1003,188,-882,192
1881,272,69,1013,167,-855,227
1882,229,120,1050,123,-862,230
1883,85,102,962,83,-876,208
1884,49,17,875,54,-893,189
1885,195,-97,868,56,-895,183
1886,425,-142,941,100,-829,191
1887,514,-67,995,145,-726,206
1888,420,86,1001,149,-646,208
1889,249,146,978,86,-619,188
1890,165,70,898,16,-627,160
1891,233,-93,844,-10,-616,140
1892,393,-204,858,42,-545,130
1893,558,-130,960,130,-422,130
1894,536,28,994,146,-301,134
1895,388,141,973,99,-227,120
1896,232,165,954,37,-200,85
1897,183,73,882,-30,-179,46
1898,273,-70,821,-40,-126,17
1899,466,-124,895,16,-27,0
1900,563,-8,1031,82,99,-4
1901,478,147,1042,64,196,0
1902,272,187,952,-9,245,-11
1903,148,172,902,-47,266,-44
1904,120,52,831,-102,292,-69
1905,273,-89,856,-86,339,-78
1906,492,-52,1061,-17,411,-60
1907,502,33,1125,-26,476,-28
1908,352,69,1006,-58,515,-16
1909,96,95,907,-71,538,-34
1910,-37,29,771,-101,554,-54
1911,39,-86,777,-102,572,-61
1912,297,-94,1054,-52,609,-49
1913,419,-28,1207,-43,660,-33
1914,293,51,1065,-58,684,-36
1915,47,108,949,-80,684,-61
1916,-89,34,825,-131,679,-90
1917,-99,-96,756,-128,690,-95
1918,79,-108,954,-71,716,-83
1919,303,-28,1186,-45,749,-62
1920,288,47,1128,-64,768,-47
1921,141,93,974,-96,767,-57
1922,-30,88,907,-124,763,-86
1923,-98,-25,786,-152,772,-104
1924,12,-110,818,-122,797,-102
1925,250,-54,1098,-73,834,-86
1926,355,-2,1153,-92,876,-64
1927,270,34,995,-110,898,-58
1928,80,78,924,-119,912,-74
1929,-29,8,830,-159,925,-96
1930,-17,-90,804,-149,952,-103
1931,137,-88,996,-106,990,-95
1932,296,-27,1127,-92,1025,-77
1933,274,28,1046,-107,1047,-56
1934,132,66,964,-124,1057,-53
1935,-57,43,896,-150,1064,-62
1936,-147,-41,825,-161,1070,-64
1937,-649,349,1211,-109,1086,-60
1938,-1838,580,1741,-276,583,48
1939,-351,-702,-245,-432,-9,221
1940,-1046,554,1306,108,171,67
1941,-488,-187,705,-414,107,-154
1942,-262,-877,-227,-177,13,-149
1943,-1697,-452,146,122,-128,-286
1944,-799,-323,1180,359,-481,-584
1945,1509,-334,1861,240,-574,-253
1946,-98,-730,295,-56,-181,158
1947,63,-32,661,499,-269,0
1948,-95,1081,1817,353,-354,-132
1949,-153,-676,-229,-430,-431,-65
1950,-323,119,868,352,-456,-50
1951,89,394,1564,105,-385,-193
1952,61,354,1365,41,-401,-184
1953,-205,-49,647,-179,-505,-150
1954,-84,54,968,98,-555,-208
1955,-303,334,1401,29,-557,-219
1956,-482,-270,538,-230,-591,-179
1957,-195,-252,982,57,-669,-129
1958,-51,-234,1167,28,-674,-90
1959,-2,-124,1089,138,-708,-35
1960,-80,-32,1060,89,-788,-4
1961,-200,-36,909,110,-821,-8
1962,-346,95,1002,134,-854,-3
1963,-315,-88,798,39,-907,3
1964,-42,-127,978,147,-936,12
1965,142,38,1216,185,-938,29
1966,133,84,1110,123,-951,46
1967,2,119,1014,95,-981,40
1968,-118,128,947,76,-1001,30
1969,-182,3,831,4,-1048,59
1970,44,-233,831,16,-1080,95
1971,310,-229,1031,155,-1032,121
1972,331,18,1086,233,-965,152
1973,242,107,1002,141,-952,168
1974,167,90,974,101,-971,157
1975,77,90,979,79,-983,150
1976,102,-81,803,16,-991,162
1977,286,-201,807,83,-969,176
1978,550,-151,1012,169,-887,189
1979,547,5,1028,209,-771,204
1980,341,162,973,170,-706,207
1981,196,182,915,89,-707,185
1982,214,83,916,22,-711,165
1983,341,-122,812,-8,-671,154
1984,533,-194,848,83,-572,145
1985,646,-26,1035,180,-442,138
1986,577,147,1031,146,-324,140
1987,347,189,921,63,-261,129
1988,242,167,879,8,-241,100
1989,298,21,866,-56,-211,76
1990,458,-138,834,-27,-123,63
1991,630,-90,947,68,7,57
1992,613,97,1047,102,127,60
1993,480,194,1041,21,202,63
1994,268,154,903,-47,251,36
1995,146,105,803,-63,286,11
1996,223,-29,798,-95,323,3
1997,451,-111,932,-48,387,11
1998,580,0,1167,12,465,34
1999,494,69,1086,-37,525,54
2000,232,125,960,-55,562,46
2001,33,120,839,-95,583,17
2002,-25,-43,690,-133,603,9
2003,148,-105,864,-70,625,18
2004,452,-52,1212,-31,665,40
2005,442,6,1197,-51,710,65
2006,214,72,971,-70,727,64
2007,-28,125,890,-92,724,42
2008,-113,6,740,-140,727,27
2009,-3,-132,748,-111,745,31
2010,270,-70,1112,-34,775,53
2011,414,5,1275,-52,815,84
2012,259,41,1014,-90,835,105
2013,14,113,899,-83,833,92
2014,-89,64,826,-131,824,73
2015,-54,-68,784,-136,836,72
2016,151,-68,994,-76,872,84
2017,346,11,1170,-69,920,101
2018,311,45,1060,-104,955,115
2019,171,74,935,-122,969,111
2020,-8,67,874,-141,980,93
2021,-58,-30,803,-162,997,77
2022,44,-81,893,-128,1028,78
2023,227,-45,1078,-101,1063,89
2024,297,-9,1095,-111,1092,102
2025,206,52,1009,-121,1106,102
2026,-2,76,930,-144,1117,91
2027,-145,11,847,-176,1119,77
2028,-163,-66,851,-165,1124,68
2029,-32,-64,1027,-129,1131,69
2030,94,-29,1130,-128,1129,77
2031,-1268,752,1695,-95,1035,66
2032,-1235,-123,1191,-525,291,134
2033,-387,-369,212,-144,240,112
2034,-1248,593,1313,18,398,-169
2035,-269,-941,-246,-431,314,-393
2036,-1251,-399,212,212,173,-428
2037,-1630,-38,283,273,-222,-671
2038,-272,189,790,309,-734,-647
2039,-42,47,926,66,-858,-414
2040,1723,-453,1907,11,-475,-138
2041,-309,-866,21,-208,-3,154
2042,-561,338,416,500,-93,-97
2043,306,710,1692,96,-200,-150
2044,207,-799,52,-404,-275,43
2045,667,-220,1353,270,-228,19
2046,197,541,1631,241,-136,-45
2047,-383,520,1200,-109,-198,-39
2048,-187,-537,-252,-348,-259,42
2049,-283,-259,716,35,-295,106
2050,657,-314,1582,158,-208,4
2051,128,372,1416,219,-160,54
2052,-346,-151,419,-160,-273,83
2053,-93,214,1100,217,-328,20
2054,-373,166,1070,-47,-301,10
2055,-256,-239,520,-33,-328,30
2056,137,137,1559,147,-379,52
2057,35,64,1182,-35,-375,54
2058,-82,14,908,-16,-442,64
2059,-223,13,931,2,-485,54
2060,-317,-47,867,-5,-484,60
2061,-300,-160,894,-3,-518,94
2062,-69,-197,1039,70,-557,106
2063,127,-78,1237,117,-587,120
2064,51,-36,1049,65,-607,117
2065,-91,28,982,87,-635,85
2066,-231,7,922,58,-677,69
2067,-216,-162,804,44,-723,100
2068,-31,-158,949,139,-724,140
2069,50,17,1098,184,-693,159
2070,153,95,1108,129,-698,151
2071,137,106,1058,85,-711,105
2072,-14,127,1011,71,-715,45
2073,-153,20,876,8,-736,29
2074,-26,-152,823,12,-765,53
2075,174,-201,916,91,-732,94
2076,345,-78,1061,158,-672,127
2077,341,78,1098,145,-636,136
2078,229,96,1001,75,-624,109
2079,96,78,919,63,-619,75
2080,40,-5,819,26,-608,74
2081,194,-135,799,40,-583,88
2082,441,-92,997,120,-508,100
2083,532,48,1099,130,-416,110
2084,448,144,1029,79,-353,95
2085,305,156,957,27,-314,49
2086,175,88,850,-16,-278,17
2087,204,-55,760,-42,-238,16
2088,418,-145,857,6,-168,30
2089,637,-41,1082,75,-64,45
2090,619,71,1085,46,26,57
2091,483,109,970,-2,91,39
2092,270,141,889,-19,155,-3
2093,140,53,732,-72,218,-26
2094,260,-87,741,-69,268,-26
2095,554,-77,1065,-6,339,-16
2096,657,18,1193,-1,426,2
2097,512,91,1000,-43,490,1
2098,283,136,910,-64,535,-28
2099,115,82,783,-111,588,-52
2100,104,-79,696,-130,644,-53
2101,307,-87,961,-56,698,-37
2102,533,6,1225,-45,758,-15
2103,447,50,1064,-86,805,-8
2104,254,122,945,-90,830,-33
2105,73,99,866,-145,858,-56
2106,-4,-46,735,-171,901,-57
2107,98,-107,837,-122,943,-41
2108,311,-33,1130,-78,981,-22
2109,373,31,1155,-100,1014,-11
2110,246,62,972,-134,1033,-20
2111,50,87,910,-145,1049,-47
2112,-72,7,817,-182,1065,-66
2113,-44,-115,810,-172,1091,-64
2114,128,-104,1025,-115,1122,-52
2115,282,-43,1122,-107,1151,-36
2116,236,0,1014,-123,1168,-25
2117,94,55,958,-126,1179,-31
2118,-382,259,1069,-146,1191,-41
2119,-1863,657,1897,-229,835,15
2120,-558,-851,-155,-501,114,219
2121,-1123,424,875,160,334,58
2122,-784,179,976,-245,248,-262
2123,121,-1156,-533,-242,68,-259
2124,-1633,-16,588,272,-57,-299
2125,-1061,-157,773,165,-439,-536
2126,-338,115,861,228,-725,-368
2127,1230,-463,1682,4,-601,-174
2128,1115,-792,1179,-7,-167,123
2129,-350,-116,529,293,-145,113
2130,96,903,1472,449,-279,-52
2131,33,-110,690,-401,-358,23
2132,-392,-405,111,74,-327,30
2133,257,107,1489,170,-247,-93
2134,-199,538,1699,203,-221,-99
2135,-215,-99,513,-282,-361,-63
2136,127,-264,955,84,-456,-57
2137,-282,334,1330,137,-376,-82
2138,-480,-92,818,-139,-424,-22
2139,-513,-53,935,53,-573,16
2140,-248,-190,1065,9,-626,19
2141,-226,-115,1063,131,-675,74
2142,-189,78,1237,106,-756,102
2143,-196,-87,1001,25,-830,101
2144,-454,101,1041,144,-893,96
2145,-510,-89,877,1,-1010,129
2146,-318,-248,891,82,-1122,185
2147,-78,-135,1144,202,-1134,230
2148,-94,-58,951,188,-1135,272
2149,-47,137,1136,235,-1189,282
2150,-50,69,1060,105,-1253,278
2151,-142,24,965,137,-1302,284
2152,-168,-11,881,116,-1369,312
2153,41,-175,832,117,-1410,349
2154,341,-108,1046,228,-1368,388
2155,392,-20,988,211,-1277,424
2156,286,121,973,233,-1234,425
2157,209,178,997,151,-1244,407
2158,163,32,889,76,-1259,390
2159,265,-97,802,89,-1245,383
2160,450,-188,836,130,-1170,383
2161,661,-108,961,217,-1045,387
2162,648,31,988,214,-907,402
2163,460,93,904,165,-821,396
2164,364,148,928,137,-783,362
2165,319,47,856,55,-735,328
2166,419,-107,742,56,-664,298
2167,645,-120,890,127,-548,269
2168,780,14,1050,178,-388,241
2169,659,178,1039,135,-244,210
2170,424,178,875,37,-164,156
2171,324,147,857,10,-116,91
2172,353,20,805,-53,-53,55
2173,517,-126,784,-34,49,37
2174,741,-54,1023,49,172,26
2175,749,75,1144,38,284,25
2176,572,91,992,-39,369,22
2177,304,96,841,-48,433,-9
2178,162,50,723,-70,494,-39
2179,232,-75,694,-80,542,-41
2180,525,-74,1021,-22,599,-22
2181,707,13,1272,-14,682,-2
2182,505,99,1075,-43,759,1
2183,190,164,892,-77,791,-21
2184,6,104,774,-138,806,-46
2185,22,-70,674,-162,830,-56
2186,233,-87,917,-82,876,-52
2187,502,29,1268,-51,936,-36
2188,418,73,1154,-107,987,-18
2189,151,104,934,-133,1002,-22
2190,-71,105,849,-163,991,-49
2191,-138,-39,728,-201,991,-66
2192,-1,-123,823,-151,1002,-70
2193,250,-56,1178,-92,1034,-64
2194,311,-1,1206,-118,1062,-47
2195,142,34,994,-142,1066,-45
2196,-75,58,908,-152,1047,-66
2197,-196,-28,811,-185,1024,-86
2198,-152,-127,807,-161,1020,-95
2199,31,-100,1040,-101,1034,-93
2200,215,-40,1185,-100,1045,-77
2201,151,0,1069,-116,1042,-65
2202,-16,51,981,-122,1024,-74
2203,-206,27,898,-151,995,-96
2204,-269,-74,802,-157,977,-108
2205,-148,-93,935,-116,965,-103
2206,32,-41,1168,-94,953,-83
2207,80,-18,1149,-109,932,-62
2208,-56,32,1034,-104,894,-54
2209,-269,50,987,-119,847,-57
2210,-428,-39,882,-146,795,-53
2211,-462,-104,885,-117,744,-26
2212,-368,-59,1112,-72,684,13
2213,-265,-8,1239,-76,606,45
2214,-1002,446,1542,-46,469,49
2215,-1141,391,1401,-246,153,14
2216,-834,-310,514,-338,-1,-41
2217,-967,209,1166,-13,-58,-84
2218,-713,-557,574,-379,-171,-109
2219,-533,-613,1107,22,-300,-124
2220,-311,-690,1146,73,-390,-151
2221,-338,-254,1408,246,-499,-105
2222,-674,-100,1098,126,-664,-39
2223,-691,-306,753,73,-851,-7
2224,-727,-218,998,232,-990,-5
2225,-552,-349,808,252,-1090,0
2226,-169,-73,1277,427,-1155,48
2227,-219,234,1261,367,-1169,66
2228,-326,306,1151,261,-1246,7
2229,-463,348,1167,210,-1361,-90
2230,-522,80,762,69,-1489,-177
2231,-436,50,637,153,-1623,-213
2232,161,191,1314,153,-1670,-232
2233,405,-71,1227,10,-1532,-188
2234,25,-97,728,95,-1440,-108
2235,3,78,917,170,-1524,-57
2236,175,-39,1007,66,-1599,11
2237,179,-222,826,107,-1591,93
2238,290,-241,737,198,-1544,154
2239,499,-47,1004,305,-1477,189
2240,644,90,1061,256,-1379,224
2241,518,49,833,178,-1297,237
2242,400,193,919,229,-1251,197
2243,379,185,981,115,-1216,154
2244,388,-19,727,51,-1159,134
2245,608,-116,774,100,-1066,128
2246,855,-78,1008,160,-915,125
2247,820,110,1083,195,-729,127
2248,519,153,873,93,-616,129
2249,349,142,774,59,-588,107
2250,383,79,899,8,-567,89
2251,551,-152,830,-31,-478,80
2252,708,-148,897,96,-326,69
2253,700,47,1003,152,-176,54
2254,624,184,1039,101,-76,39
2255,390,194,957,1,-8,27
2256,165,100,789,-67,21,-1
2257,218,0,808,-79,35,-31
2258,410,-158,890,-79,97,-57
2259,598,-156,1003,32,205,-74
2260,543,26,1086,88,288,-62
2261,352,147,1073,24,334,-38
2262,125,122,921,-48,345,-39
2263,-17,63,769,-68,340,-55
2264,99,-52,754,-90,344,-66
2265,373,-82,1043,-28,394,-75
2266,510,17,1218,18,468,-63
2267,339,91,1064,-20,504,-36
2268,125,150,985,-42,503,-32
2269,-54,130,898,-96,497,-46
2270,-123,-23,674,-145,488,-48
2271,87,-88,827,-93,488,-45
2272,451,-22,1276,-39,532,-45
2273,410,37,1225,-49,587,-28
2274,145,70,952,-81,587,-15
2275,-41,121,919,-84,565,-34
2276,-120,9,782,-145,559,-47
2277,-27,-159,669,-130,565,-36
2278,302,-81,1099,-27,592,-18
2279,482,51,1365,-32,642,1
2280,291,58,1026,-98,671,9
2281,25,102,867,-92,661,-13
2282,-70,70,835,-129,650,-54
2283,-12,-103,737,-157,666,-66
2284,197,-131,920,-79,708,-54
2285,471,-12,1236,-47,763,-39
2286,416,50,1131,-90,812,-25
2287,207,70,906,-120,831,-35
2288,27,63,830,-136,836,-66
2289,5,-26,775,-155,861,-90
2290,150,-114,835,-133,908,-93
2291,381,-51,1099,-81,969,-81
2292,482,20,1153,-101,1027,-68
2293,341,59,956,-133,1074,-63
2294,153,84,872,-147,1103,-84
2295,40,20,789,-184,1135,-107
2296,81,-69,793,-172,1182,-118
2297,260,-54,995,-135,1237,-115
2298,430,3,1117,-137,1296,-101
2299,385,39,1016,-158,1339,-87
2300,203,84,936,-170,1370,-88
2301,3,47,854,-208,1393,-97
2302,-85,-51,782,-215,1418,-96
2303,-18,-52,922,-179,1439,-80
2304,95,-7,1121,-169,1447,-62
2305,-1199,772,1697,-145,1353,-48
2306,-1225,-238,989,-579,382,180
2307,-116,-210,166,-108,284,221
2308,-1245,747,1430,-48,550,-111
2309,-89,-818,117,-552,515,-323
2310,-1267,-736,-55,17,378,-290
2311,-1792,-420,-31,304,55,-630
2312,-487,227,1079,472,-523,-808
2313,-489,18,622,165,-776,-553
2314,-288,-552,-214,134,-731,-461
2315,-223,582,1021,480,-770,-447
2316,1310,819,1822,45,-539,-242
2317,-317,-1087,-963,-712,-263,-33
2318,-538,991,1432,639,-442,-215
2319,355,27,1302,-424,-520,-268
2320,131,-852,268,-143,-590,-62
2321,-266,-691,519,99,-533,-87
2322,92,385,1640,548,-504,-106
2323,-504,312,1141,-101,-641,0
2324,12,-800,-131,-5,-779,15
2325,404,238,1579,379,-716,4
2326,-193,435,1165,206,-578,-18
2327,-299,248,935,-45,-705,-4
2328,-327,-51,674,1,-832,-60
2329,28,153,1135,141,-831,-135
2330,-38,28,1051,-13,-751,-105
2331,69,-28,948,26,-763,-48
2332,301,-123,1126,9,-815,0
2333,82,-16,992,110,-783,38
2334,-125,55,913,62,-801,76
2335,-167,-117,802,20,-874,120
2336,132,-203,968,98,-891,164
2337,247,-182,1006,154,-838,207
2338,202,113,1076,241,-789,222
2339,193,159,1091,107,-799,210
2340,37,83,938,66,-827,188
2341,-45,47,944,66,-864,172
2342,35,-111,850,31,-889,173
2343,225,-102,968,130,-859,186
2344,376,-61,1004,123,-789,217
2345,345,19,985,142,-726,236
2346,219,143,1055,123,-712,228
2347,74,90,936,41,-733,203
2348,53,-20,860,32,-760,184
2349,197,-148,855,40,-755,181
2350,413,-167,963,114,-678,191
2351,473,-27,1042,160,-574,213
2352,347,78,980,123,-505,218
2353,188,133,959,88,-496,192
2354,112,93,944,30,-509,154
2355,161,-79,839,-10,-498,129
2356,315,-158,861,53,-438,118
2357,514,-86,1015,114,-330,123
2358,489,51,1039,122,-217,130
2359,312,150,980,71,-154,121
2360,144,155,922,16,-151,82
2361,132,69,892,-34,-151,44
2362,245,-93,831,-47,-110,22
2363,443,-126,925,25,-20,17
2364,529,-1,1069,73,93,29
2365,435,112,1039,38,175,42
2366,236,129,942,-9,212,29
2367,97,127,886,-37,221,-8
2368,90,8,830,-77,234,-30
2369,261,-106,873,-57,272,-34
2370,464,-49,1081,3,345,-16
2371,467,25,1111,-13,407,7
2372,323,78,1018,-36,439,10
2373,90,108,914,-51,456,-17
2374,-36,36,777,-91,471,-43
2375,37,-64,775,-81,486,-50
2376,309,-82,1037,-53,515,-35
2377,464,-26,1222,-34,567,-8
2378,343,40,1071,-49,597,3
2379,104,103,939,-60,602,-12
2380,-36,65,839,-104,603,-34
2381,-70,-70,727,-117,621,-40
2382,99,-81,914,-58,647,-25
2383,361,-6,1221,-42,680,2
2384,362,26,1156,-74,713,20
2385,160,92,964,-79,719,7
2386,-38,103,897,-111,709,-26
2387,-96,-17,787,-148,709,-47
2388,-6,-103,803,-121,735,-46
2389,225,-63,1087,-73,773,-32
2390,350,-8,1190,-80,812,-16
2391,249,15,1022,-107,830,-9
2392,39,53,912,-109,832,-22
2393,-81,8,851,-136,830,-42
2394,-97,-89,801,-134,840,-49
2395,55,-84,982,-87,863,-42
2396,218,-23,1156,-79,889,-26
2397,211,18,1087,-97,903,-12
2398,60,58,989,-107,894,-16
2399,-150,39,922,-134,878,-33
2400,-267,-48,847,-145,855,-43
2401,-233,-71,912,-113,836,-37
2402,-102,-39,1131,-90,814,-18
2403,-31,-16,1170,-97,775,0
2404,-136,23,1092,-96,718,5
2405,-361,45,1022,-109,647,-11
2406,-525,-19,932,-132,571,-33
2407,-592,-111,884,-119,493,-45
2408,-478,-133,1074,-78,420,-48
2409,-346,-131,1211,-59,336,-44
2410,-331,-107,1156,-40,234,-42
2411,-461,-46,1097,-21,121,-55
2412,-650,-41,1029,-32,9,-69
2413,-782,-125,931,-38,-107,-73
2414,-742,-186,941,5,-220,-66
2415,-567,-157,1164,60,-333,-52
2416,-420,-103,1227,77,-457,-34
2417,-422,-55,1158,86,-585,-30
2418,-568,18,1089,95,-703,-38
2419,-739,31,983,70,-821,-52
2420,-746,-87,879,59,-956,-72
2421,-480,-150,1023,110,-1058,-69
2422,-305,-117,1159,142,-1105,-29
2423,-236,-88,1104,144,-1183,11
2424,-180,-22,1087,171,-1279,27
2425,-308,41,1021,164,-1349,31
2426,-424,-19,864,142,-1436,32
2427,-258,-112,865,153,-1531,49
2428,49,-153,996,204,-1548,81
2429,222,-39,1051,254,-1498,121
2430,232,75,997,236,-1458,146
2431,203,118,981,191,-1467,135
2432,126,112,918,162,-1481,114
2433,149,8,815,128,-1482,101
2434,362,-78,815,153,-1447,101
2435,608,-34,953,200,-1342,118
2436,739,17,985,178,-1204,147
2437,686,94,925,160,-1084,153
2438,553,151,909,130,-996,128
2439,460,111,827,76,-932,95
2440,490,-17,744,45,-860,72
2441,700,-95,824,77,-746,66
2442,924,-40,994,120,-575,76
2443,892,71,994,110,-396,87
2444,738,141,908,66,-269,70
2445,566,155,870,31,-178,31
2446,467,76,764,-19,-88,9
2447,518,-39,713,-23,18,8
2448,711,-29,917,28,134,17
2449,867,50,1132,29,260,33
2450,797,99,1058,-17,373,39
2451,509,149,913,-37,465,16
2452,293,146,802,-78,538,-20
2453,199,1,669,-123,600,-34
2454,344,-78,806,-87,662,-22
2455,629,-16,1181,-44,737,-1
2456,624,48,1196,-69,821,20
2457,366,91,949,-95,870,19
2458,96,121,860,-118,887,2
2459,-14,0,739,-165,899,-14
2460,55,-112,728,-130,928,-9
2461,292,-37,1087,-63,972,15
2462,423,37,1252,-87,1024,47
2463,277,51,1037,-125,1048,66
2464,31,91,905,-129,1041,57
2465,-112,45,832,-161,1025,41
2466,-128,-69,758,-162,1023,36
2467,48,-54,964,-105,1042,50
2468,263,10,1199,-107,1072,72
2469,265,23,1103,-138,1096,89
2470,105,54,958,-145,1095,83
2471,-79,48,887,-164,1085,60
2472,-154,-41,810,-176,1076,38
2473,-57,-97,849,-153,1088,27
2474,147,-54,1085,-116,1116,24
2475,266,-19,1133,-130,1140,24
2476,197,0,1001,-148,1152,15
2477,18,39,934,-145,1154,-14
2478,-100,-18,848,-180,1157,-46
2479,-127,-103,822,-169,1170,-65
2480,5,-101,992,-134,1190,-70
2481,127,-60,1120,-124,1200,-66
2482,-203,240,1266,-115,1199,-70
2483,-1845,794,1921,-203,825,-17
2484,-531,-701,111,-552,165,204
2485,-891,391,1028,101,389,65
2486,-917,16,865,-343,426,-240
2487,-416,-1121,-387,-197,293,-324
2488,-1740,-397,94,207,24,-429
2489,-952,-20,583,388,-462,-627
2490,-397,207,990,230,-803,-478
2491,-143,-131,802,80,-825,-381
2492,1586,-407,1879,88,-477,-255
2493,-612,-372,465,-78,-66,-91
2494,-340,1,113,299,-223,-288
2495,139,752,1770,172,-365,-297
2496,88,-881,-128,-420,-431,-189
2497,491,-167,1418,320,-379,-219
2498,-174,570,1575,282,-272,-265
2499,-360,310,989,-136,-389,-237
2500,-201,-504,-46,-179,-525,-180
2501,389,-84,1380,142,-497,-214
2502,418,35,1343,157,-312,-234
2503,-184,349,1087,75,-355,-168
2504,-136,-15,756,-96,-466,-189
2505,-70,25,882,61,-487,-212
2506,-72,3,946,32,-436,-216
2507,188,-100,942,9,-405,-161
2508,242,93,1336,83,-400,-101
2509,209,-41,896,-41,-400,-78
2510,-28,87,957,77,-414,-60
2511,-154,109,938,7,-417,-77
2512,-109,-105,815,-42,-425,-78
2513,-6,-65,1040,67,-416,-55
2514,201,-112,1097,6,-413,-16
2515,154,-8,1145,87,-427,15
2516,-8,88,1029,42,-441,18
2517,-257,46,888,10,-475,-2
2518,-309,40,907,29,-524,-32
2519,-147,-166,924,-34,-556,-32
2520,9,-179,1048,77,-548,-8
2521,49,-41,1148,100,-548,22
2522,11,-20,1046,67,-588,39
2523,-143,65,1031,86,-637,34
2524,-284,21,951,26,-724,31
2525,-198,-146,898,20,-815,45
2526,-2,-248,974,84,-843,73
2527,154,-150,1015,185,-806,104
2528,122,46,1039,205,-779,136
2529,63,111,1023,137,-803,144
2530,-17,129,1037,104,-851,123
2531,-60,24,935,40,-899,101
2532,51,-105,861,56,-917,94
2533,270,-138,939,107,-885,106
2534,413,-82,985,154,-802,131
2535,390,61,1026,168,-727,153
2536,218,137,965,115,-703,154
2537,160,119,940,64,-718,140
2538,182,-20,877,13,-718,130
2539,334,-158,843,41,-663,130
2540,512,-126,927,124,-556,140
2541,572,31,1009,168,-429,151
2542,465,161,991,126,-336,153
2543,298,191,927,55,-293,132
2544,231,132,900,1,-271,99
2545,302,-6,829,-38,-219,74
2546,474,-85,861,12,-115,57
2547,631,6,991,74,18,51
2548,595,142,1046,57,135,53
2549,436,181,986,-15,204,38
2550,277,142,880,-58,255,2
2551,172,66,798,-84,301,-26
2552,296,-64,799,-96,354,-29
2553,530,-85,1015,-45,425,-13
2554,637,-11,1147,-28,503,11
2555,501,38,1017,-56,570,19
2556,247,102,911,-63,609,3
2557,73,40,786,-110,649,-19
2558,75,-91,707,-113,689,-17
2559,275,-85,954,-48,735,-1
2560,530,-15,1216,-41,787,25
2561,442,56,1116,-56,839,40
2562,194,125,943,-86,861,27
2563,-10,107,839,-128,866,2
2564,-56,-15,744,-151,882,-14
2565,89,-73,854,-111,917,-6
2566,321,0,1167,-74,967,18
2567,386,26,1150,-115,1009,48
2568,223,63,963,-131,1032,57
2569,37,86,897,-148,1038,43
2570,-85,-2,798,-180,1048,29
2571,-26,-81,818,-156,1071,24
2572,146,-67,1024,-117,1107,30
2573,311,-16,1142,-116,1140,41
2574,255,19,1032,-138,1159,47
2575,78,61,958,-145,1169,36
2576,-104,23,864,-179,1170,17
2577,-176,-62,805,-180,1176,3
2578,-51,-79,951,-146,1185,-3
2579,89,-53,1116,-133,1191,-1
2580,133,-19,1102,-134,1180,3
2581,-590,464,1361,-112,1163,-12
2582,-1795,569,1836,-328,652,65
2583,-342,-847,-142,-473,179,231
2584,-1271,479,1141,92,414,34
2585,-732,-363,482,-364,347,-277
2586,-444,-923,-288,-23,181,-307
2587,-1780,-187,203,239,-79,-426
2588,-712,57,837,354,-562,-583
2589,-456,108,923,135,-822,-381
2590,623,-376,1329,83,-765,-270
2591,1065,-382,1710,64,-307,-2
2592,-814,-550,-174,20,-187,45
2593,-16,729,1254,540,-399,-98
2594,86,179,1235,-257,-512,-5
2595,-157,-686,-74,-34,-529,51
2596,216,166,1494,280,-470,-53
2597,-431,634,1632,246,-433,-92
2598,-392,-195,397,-306,-593,-20
2599,-19,-296,634,107,-731,34
2600,319,148,1495,132,-633,-25
2601,-65,116,1118,76,-562,-2
2602,-370,144,857,2,-687,13
2603,-118,-101,895,-7,-765,-24
2604,-149,-50,911,84,-740,-5
2605,-57,-103,922,50,-722,28
2606,258,-93,1168,96,-749,68
2607,202,58,1206,106,-752,75
2608,41,-19,865,46,-756,67
2609,-129,79,892,98,-773,64
2610,-120,-45,882,18,-785,78
2611,59,-239,800,46,-785,113
2612,258,-42,1164,200,-748,131
2613,296,74,1117,122,-711,140
2614,174,126,1039,94,-711,122
2615,46,79,935,38,-732,89
2616,-37,-35,858,25,-749,91
2617,54,-125,869,48,-755,123
2618,223,-175,921,96,-712,159
2619,339,-4,1073,178,-643,187
2620,304,84,1043,111,-602,187
2621,187,113,1026,90,-596,155
2622,46,114,967,42,-605,127
2623,-38,-33,830,-12,-630,113
2624,141,-154,857,30,-634,112
2625,361,-180,1000,85,-571,124
2626,413,-50,1042,147,-478,144
2627,279,93,1015,116,-426,144
2628,119,110,960,62,-432,119
2629,44,52,927,19,-457,89
2630,102,-107,858,-10,-457,72
2631,271,-177,882,57,-405,64
2632,456,-79,1032,127,-321,72
2633,428,58,1035,126,-236,83
2634,286,151,1008,79,-195,73
2635,130,152,937,19,-194,41
2636,103,58,863,-33,-191,14
2637,238,-84,839,-38,-160,-2
2638,457,-119,951,28,-71,-3
2639,529,8,1056,82,35,9
2640,440,142,1039,51,105,22
2641,277,157,962,-11,140,12
2642,120,137,883,-43,163,-14
2643,106,9,797,-93,189,-29
2644,291,-106,870,-64,234,-30
2645,508,-38,1097,6,307,-17
2646,496,47,1104,-11,372,8
2647,341,93,1007,-43,408,17
2648,110,113,915,-65,433,-6
2649,-18,25,758,-96,458,-26
2650,54,-83,762,-90,478,-23
2651,331,-73,1071,-39,512,-3
2652,466,-6,1237,-35,561,23
2653,330,46,1045,-58,586,33
2654,82,108,924,-67,592,18
2655,-43,61,842,-105,596,-8
2656,-67,-95,722,-124,619,-9
2657,105,-95,935,-52,646,13
2658,366,3,1245,-36,677,40
2659,346,24,1129,-80,706,64
2660,160,71,942,-80,711,59
2661,-18,88,897,-103,710,35
2662,-80,-35,771,-138,722,20
2663,27,-103,813,-98,747,25
2664,264,-28,1118,-55,788,43
2665,377,12,1169,-80,832,63
2666,277,37,986,-102,856,70
2667,89,77,912,-104,872,53
2668,-10,16,829,-146,886,28
2669,-7,-76,793,-136,916,17
2670,168,-57,985,-96,961,18
2671,344,-5,1132,-97,1007,25
2672,344,26,1039,-118,1046,31
2673,213,62,942,-131,1070,20
2674,34,46,887,-159,1097,-4
2675,-46,-65,797,-179,1125,-17
2676,14,-86,880,-142,1158,-12
2677,165,-28,1080,-116,1188,-1
2678,-1229,829,1718,-91,1121,-1
2679,-1285,-62,1127,-567,315,174
2680,-260,-285,256,-175,215,222
2681,-1168,513,1294,-78,401,-31
2682,-195,-934,-174,-481,311,-218
2683,-1146,-704,21,77,192,-240
2684,-1777,-320,286,320,-128,-541
2685,-370,74,825,372,-668,-618
2686,-385,71,689,201,-830,-367
2687,1553,-296,1806,108,-621,-203
2688,202,-287,999,-37,-58,73
2689,-660,-251,-237,175,-72,-70
2690,42,741,1439,379,-171,-162
2691,135,-366,248,-401,-256,-8
2692,656,-282,1238,160,-245,27
2693,552,431,1669,258,-135,-117
2694,-291,668,1523,62,-166,-132
2695,-255,-473,-138,-386,-283,-80
2696,-430,-38,458,79,-356,15
2697,434,-316,1306,-115,-326,-2
2698,438,76,1549,221,-130,-66
2699,-311,164,765,4,-199,-10
2700,-98,34,840,-12,-325,-11
2701,-188,225,1332,70,-324,-32
2702,-484,-202,421,-135,-321,-39
2703,-44,-42,1085,148,-377,-14
2704,120,140,1491,22,-373,29
2705,-42,-83,946,-66,-401,48
2706,-107,-4,965,53,-484,49
2707,-300,69,1020,22,-507,42
2708,-387,-137,827,-42,-565,81
2709,-188,-261,936,31,-636,132
2710,5,-159,1118,147,-627,169
2711,-74,55,1114,146,-639,190
2712,-66,61,1074,81,-698,168
2713,-168,-10,993,51,-760,146
2714,-326,-7,977,82,-830,140
2715,-219,-148,895,52,-908,155
2716,-54,-161,983,142,-928,180
2717,91,-67,1030,172,-900,205
2718,94,18,1035,162,-883,212
2719,3,128,1082,153,-901,190
2720,-130,69,965,67,-957,151
2721,-110,-29,905,75,-1016,119
2722,56,-133,903,71,-1038,106
2723,254,-175,933,131,-991,112
2724,356,-55,1022,183,-915,132
2725,327,36,1003,152,-860,141
2726,186,95,959,129,-843,120
2727,123,76,928,83,-855,83
2728,167,-60,836,51,-850,54
2729,347,-121,878,94,-792,42
2730,541,-78,972,136,-681,44
2731,567,41,999,146,-553,51
2732,452,142,977,109,-469,41
2733,300,150,913,49,-432,10
2734,263,79,878,4,-410,-20
2735,349,-46,813,-17,-350,-40
2736,551,-95,891,37,-241,-43
2737,674,-1,1004,79,-98,-28
2738,621,109,1013,58,18,-9
2739,444,161,943,14,89,-12
2740,305,168,887,-21,140,-43
2741,228,69,793,-71,193,-68
2742,368,-38,824,-67,258,-74
2743,596,-26,1048,-26,345,-57
2744,650,38,1109,-29,438,-26
2745,507,85,996,-55,505,-16
2746,266,122,906,-72,551,-31
2747,104,56,783,-114,593,-47
2748,126,-62,728,-120,633,-48
2749,352,-69,988,-67,689,-33
2750,536,-12,1195,-62,757,-10
2751,433,45,1066,-79,808,-2
2752,195,112,939,-96,828,-19
2753,26,66,836,-144,841,-46
2754,-23,-63,734,-152,868,-56
2755,119,-98,880,-106,908,-42
2756,343,-24,1164,-73,955,-19
2757,386,25,1130,-102,994,5
2758,237,61,962,-124,1015,7
2759,48,80,899,-137,1025,-10
2760,-62,-18,784,-176,1042,-23
2761,10,-89,799,-145,1071,-17
2762,208,-43,1051,-105,1118,0
2763,368,0,1138,-115,1161,21
2764,292,42,1014,-131,1191,40
2765,111,74,936,-151,1207,39
2766,-47,19,841,-182,1223,32
2767,-111,-67,775,-179,1246,39
2768,3,-49,952,-136,1267,57
2769,147,15,1157,-130,1278,72
2770,161,63,1098,-149,1270,81
2771,-1468,1046,1775,-120,1141,62
2772,-1157,-270,916,-696,324,219
2773,-483,-409,109,-185,341,244
2774,-1365,532,1264,-58,481,-80
2775,-236,-1083,-188,-457,352,-318
2776,-1143,-513,143,173,171,-308
2777,-1678,-312,283,307,-123,-582
2778,-415,239,1197,424,-635,-635
2779,-528,-137,531,58,-792,-392
2780,-8,-341,287,196,-733,-320
2781,1463,317,1885,318,-486,-164
2782,-359,-529,-46,-330,-152,6
2783,-182,78,339,365,-318,-64
2784,-127,950,1720,126,-420,-100
2785,185,-984,-231,-480,-508,-19
2786,34,-80,1418,313,-470,-27
2787,-181,347,1280,218,-375,-122
2788,-254,378,1335,-25,-523,-45
2789,-21,-616,176,-208,-642,-7
2790,402,-41,1259,278,-588,-20
2791,-42,308,1300,161,-475,10
2792,-308,196,936,-51,-539,25
2793,-177,-145,773,-41,-654,-1
2794,-39,-43,868,116,-634,-24
2795,78,25,1129,77,-585,13
2796,185,-20,1099,14,-600,49
2797,261,-25,1104,51,-622,46
2798,40,20,886,58,-602,44
2799,-118,73,903,53,-591,46
2800,-110,-91,819,-11,-595,60
2801,64,-158,920,63,-591,76
2802,301,-72,1152,119,-574,91
2803,281,57,1148,98,-550,98
2804,142,100,1026,54,-546,73
2805,-55,32,861,11,-563,47
2806,-112,-63,852,20,-595,62
2807,54,-208,860,27,-601,102
2808,200,-113,1044,150,-548,134
2809,200,73,1084,147,-497,151
2810,214,94,1042,75,-496,136
2811,101,127,1045,68,-502,94
2812,-64,72,919,8,-516,69
2813,-83,-53,848,1,-555,67
2814,125,-157,933,32,-562,85
2815,299,-150,1026,94,-502,117
2816,282,16,1049,133,-433,147
2817,168,93,1023,81,-422,151
2818,29,90,970,49,-448,132
2819,-38,23,930,16,-489,117
2820,46,-114,858,10,-499,112
2821,225,-130,956,81,-455,119
2822,353,-37,1037,112,-379,137
2823,314,65,1028,98,-319,148
2824,154,135,1008,59,-303,130
2825,47,113,946,10,-321,92
2826,29,-15,866,-28,-333,66
2827,188,-137,867,-2,-305,55
2828,385,-121,988,61,-227,59
2829,441,6,1052,91,-138,72
2830,350,92,1016,48,-86,65
2831,194,109,949,14,-64,35
2832,71,75,891,-19,-58,3
2833,134,-60,814,-51,-39,-11
2834,328,-126,903,6,25,-10
2835,497,-25,1069,55,109,6
2836,484,64,1077,26,173,20
2837,342,115,1016,-6,211,5
2838,132,131,888,-33,250,-31
2839,7,47,759,-73,280,-58
2840,161,-65,814,-70,304,-62
2841,430,-69,1097,-30,358,-43
2842,520,-7,1170,-24,419,-17
2843,376,64,1023,-40,458,-14
2844,157,114,927,-62,476,-33
2845,-8,33,784,-106,500,-52
2846,15,-93,736,-100,530,-52
2847,228,-78,1000,-39,571,-37
2848,443,-3,1212,-42,617,-10
2849,368,34,1076,-64,648,-3
2850,175,114,962,-67,658,-28
2851,-3,91,875,-115,665,-59
2852,-47,-59,746,-142,692,-67
2853,79,-95,857,-88,726,-50
2854,294,-22,1138,-57,770,-29
2855,383,20,1148,-84,801,-14
2856,252,72,993,-100,820,-23
2857,64,86,909,-127,832,-54
2858,-55,1,810,-155,848,-82
2859,-2,-98,808,-146,877,-89
2860,182,-91,1005,-98,921,-79
2861,362,-36,1135,-95,963,-64
2862,314,8,1026,-109,996,-57
2863,156,62,946,-115,1017,-66
2864,-16,22,865,-152,1032,-83
2865,-82,-57,808,-149,1055,-89
2866,19,-65,940,-118,1078,-78
2867,152,-26,1096,-107,1100,-55
2868,185,22,1104,-116,1104,-34
2869,-1211,812,1674,-86,1038,-39
2870,-1460,88,1316,-533,371,138
2871,-394,-401,123,-241,235,218
2872,-1292,457,1237,-57,404,-35
2873,-434,-872,-183,-412,270,-267
2874,-944,-622,82,119,85,-304
2875,-1637,-215,384,289,-221,-524
2876,-428,132,977,329,-663,-556
2877,-189,-11,988,116,-821,-352
2878,1610,-483,1898,72,-504,-158
2879,-166,-563,548,-46,-93,82
2880,-510,116,328,386,-240,-82
2881,371,775,1710,205,-375,-131
2882,113,-751,28,-395,-422,-15
2883,167,35,1131,377,-345,-95
2884,34,513,1574,161,-271,-150
2885,-491,363,1182,-85,-351,-119
2886,-289,-578,-112,-240,-489,-75
2887,205,25,1474,204,-511,-90
2888,173,86,1308,70,-372,-101
2889,-230,116,988,0,-440,-26
2890,-277,-3,921,6,-564,-41
2891,-256,4,941,48,-606,-52
2892,-404,-25,894,49,-615,-26
2893,-109,-98,955,41,-652,15
2894,37,-15,1328,88,-688,66
2895,-27,-13,1026,51,-719,81
2896,-172,34,1004,80,-784,90
2897,-328,55,969,53,-847,104
2898,-291,-177,839,-7,-941,154
2899,-46,-276,952,114,-991,217
2900,100,-99,1081,212,-951,261
2901,31,100,1075,207,-932,288
2902,26,111,1011,119,-982,276
2903,-43,46,1002,101,-1034,255
2904,-80,25,978,105,-1071,237
2905,-42,-77,864,85,-1098,235
2906,158,-129,896,132,-1088,245
2907,396,-61,1047,171,-1027,261
2908,362,11,1019,155,-947,274
2909,186,112,983,145,-921,258
2910,105,85,930,79,-952,228
2911,116,-51,848,53,-973,205
2912,290,-162,848,88,-936,197
2913,477,-149,928,155,-837,202
2914,559,5,1034,194,-715,216
2915,454,97,970,132,-621,220
2916,278,132,921,98,-584,193
2917,204,103,913,53,-569,149
2918,258,-40,830,10,-536,115
2919,429,-112,858,62,-454,94
2920,640,-56,1000,102,-329,90
2921,611,78,1048,109,-200,89
2922,430,154,974,45,-117,70
2923,246,135,870,-6,-86,27
2924,208,63,836,-39,-67,-14
2925,352,-99,822,-56,-11,-36
2926,552,-121,950,15,98,-35
2927,607,-10,1069,44,208,-12
2928,520,76,1031,11,278,3
2929,336,111,967,-17,325,-12
2930,124,100,832,-43,367,-43
2931,79,14,750,-69,398,-66
2932,271,-51,881,-53,433,-68
2933,540,-16,1164,-25,496,-47
2934,510,30,1126,-43,564,-26
2935,294,110,998,-45,598,-32
2936,63,132,903,-88,607,-54
2937,-51,2,722,-137,619,-69
2938,54,-86,763,-97,640,-72
2939,337,-38,1121,-54,683,-54
2940,434,7,1231,-73,736,-24
2941,281,49,1020,-90,756,-22
2942,51,108,927,-94,752,-50
2943,-65,44,831,-141,749,-79
2944,-52,-108,743,-151,767,-81
2945,130,-98,957,-82,801,-67
2946,360,-12,1202,-67,843,-47
2947,330,28,1099,-97,872,-37
2948,174,69,959,-111,877,-54
2949,-3,62,885,-136,880,-87
2950,-57,-46,766,-159,898,-109
2951,67,-116,823,-130,931,-108
2952,308,-51,1100,-84,978,-94
2953,401,-1,1144,-105,1028,-77
2954,301,39,982,-120,1060,-74
2955,113,67,905,-137,1082,-93
2956,8,-8,806,-169,1105,-112
2957,20,-92,781,-153,1143,-112
2958,179,-43,1003,-111,1190,-90
2959,339,19,1139,-122,1231,-61
2960,305,43,1031,-142,1259,-39
2961,174,64,982,-149,1276,-33
2962,-44,2,884,-186,1301,-29
2963,-1506,951,1677,-113,1202,-31
2964,-1408,-247,722,-684,266,262
2965,-514,-288,11,-112,200,273
2966,-1378,624,1287,-42,299,-111
2967,269,-1058,-181,-467,127,-305
2968,-973,-547,323,156,65,-263
2969,-1667,-217,552,276,-230,-559
2970,-392,46,912,323,-687,-584
2971,191,-146,948,152,-785,-354
2972,1691,-363,1898,116,-388,-96
2973,3,-767,75,-75,-63,73
2974,-179,760,1102,589,-187,-127
2975,314,397,1408,-156,-281,-127
2976,-326,-681,-322,-209,-280,-7
2977,133,-13,1024,179,-228,-72
2978,463,309,1848,210,-128,-173
2979,-82,480,1217,32,-158,-147
2980,96,-538,-31,-228,-277,-94
2981,11,558,1626,297,-270,-154
2982,-46,0,924,-233,-193,-200
2983,-309,-100,656,12,-237,-149
2984,-64,130,1248,32,-280,-136
2985,175,-201,995,-119,-269,-78
2986,38,2,1102,83,-278,-23
2987,85,-69,876,-31,-304,-1
2988,-108,102,1122,88,-306,21
2989,-291,-5,858,-51,-320,21
2990,-201,-163,800,8,-359,29
2991,-22,10,1181,105,-372,46
2992,122,-84,1079,-14,-385,68
2993,90,20,1106,91,-406,67
2994,-58,83,1016,21,-423,42
2995,-266,8,875,2,-441,29
2996,-308,-46,864,10,-474,24
2997,-137,-170,959,18,-500,39
2998,7,-94,1124,97,-505,63
2999,75,-31,1150,71,-532,75
3000,19,8,1053,77,-565,65
3001,-189,57,992,61,-600,50
3002,-352,-60,855,22,-670,57
3003,-183,-170,922,58,-753,84
3004,4,-176,1043,132,-744,116
3005,23,-8,1035,184,-708,144
3006,20,95,1078,142,-731,154
3007,-30,85,1048,92,-777,138
3008,-183,76,998,80,-833,109
3009,-202,-27,901,50,-901,91
3010,-14,-120,929,78,-938,95
3011,194,-143,983,114,-908,120
3012,277,-73,1012,154,-857,150
3013,233,61,1048,158,-826,165
3014,95,84,980,104,-833,156
3015,18,34,893,76,-867,138
3016,101,-78,859,61,-886,124
3017,312,-146,914,103,-840,122
3018,493,-68,994,158,-733,136
3019,480,54,1003,157,-626,146
3020,366,138,975,115,-565,132
3021,222,144,930,62,-549,100
3022,210,43,851,13,-536,69
3023,331,-71,829,18,-483,50
3024,538,-82,932,70,-373,50
3025,620,12,1006,96,-238,63
3026,552,126,1003,76,-131,67
3027,378,163,938,25,-69,47
3028,265,137,884,-15,-36,18
3029,254,13,803,-58,7,0
3030,407,-66,859,-28,81,-3
3031,597,-21,1021,17,185,11
3032,622,57,1073,5,282,31
3033,508,105,1010,-26,345,30
3034,278,115,907,-58,401,4
3035,127,56,779,-83,449,-20
3036,153,-51,721,-98,493,-16
3037,408,-59,1002,-50,542,3
3038,592,-7,1213,-47,613,22
3039,474,35,1058,-69,671,29
3040,206,114,932,-73,697,12
3041,51,62,825,-121,712,-14
3042,-5,-79,708,-137,744,-23
3043,143,-91,891,-69,786,-8
3044,367,-5,1209,-58,827,21
3045,382,27,1152,-88,863,43
3046,183,67,961,-99,868,36
3047,-23,95,899,-111,865,9
3048,-105,-20,794,-152,867,-10
3049,-36,-83,800,-120,888,-5
3050,180,-28,1082,-83,923,16
3051,315,14,1179,-108,957,40
3052,227,30,1027,-122,974,46
3053,37,62,928,-129,974,32
3054,-91,11,851,-157,973,11
3055,-116,-81,781,-156,985,0
3056,39,-74,960,-113,1011,2
3057,229,-23,1160,-108,1040,7
3058,255,1,1074,-126,1059,7
3059,121,40,970,-129,1064,-9
3060,-60,30,911,-159,1070,-38
3061,-157,-80,808,-178,1081,-59
3062,-113,-109,858,-141,1098,-61
3063,31,-50,1095,-114,1113,-59
3064,-1339,751,1773,-83,1005,-58
3065,-1279,-153,917,-528,243,143
3066,-367,-64,480,-66,166,157
3067,-1058,467,1293,-128,317,-80
3068,-243,-908,-196,-450,263,-221
3069,-1311,-667,160,78,148,-275
3070,-1635,-288,280,312,-241,-566
3071,-408,41,716,342,-737,-600
3072,839,-115,1411,224,-845,-385
3073,986,-185,1659,26,-280,-61
3074,-842,-817,-361,-67,-162,-33
3075,-499,999,1476,609,-351,-278
3076,59,-320,658,-415,-488,-209
3077,-27,-446,533,137,-541,-85
3078,547,-12,1519,181,-460,-190
3079,-119,714,1731,357,-456,-173
3080,-472,-5,674,-296,-604,-153
3081,-442,-358,149,48,-752,-109
3082,-412,97,984,12,-837,-84
3083,434,-306,1517,67,-712,-156
3084,-140,125,989,216,-637,-108
3085,-271,29,740,71,-770,-63
3086,132,271,1386,193,-854,-56
3087,-378,175,1070,-26,-838,-64
3088,-415,-191,341,12,-893,-96
3089,76,103,1211,193,-972,-87
3090,307,70,1373,32,-888,-23
3091,149,-206,747,-46,-850,53
3092,74,52,1022,199,-906,61
3093,72,123,1071,70,-923,79
3094,-90,-158,742,-2,-946,144
3095,157,-172,841,142,-970,182
3096,400,-99,1084,168,-904,225
3097,366,94,1060,204,-810,257
3098,337,114,962,99,-786,252
3099,225,91,937,102,-783,215
3100,179,141,999,90,-772,182
3101,146,-72,778,3,-757,171
3102,322,-72,872,116,-718,168
3103,571,-34,1069,96,-624,185
3104,535,14,997,97,-501,202
3105,364,116,972,81,-434,196
3106,192,77,878,21,-432,162
3107,193,19,894,27,-437,129
3108,285,-123,830,4,-393,115
3109,462,-127,921,85,-297,118
3110,539,16,1077,104,-171,133
3111,441,62,989,34,-79,137
3112,252,96,934,24,-43,102
3113,142,83,907,-7,-37,48
3114,137,-20,854,-31,-17,5
3115,277,-96,889,-12,40,-12
3116,445,-76,1008,18,133,-3
3117,456,13,1073,21,221,14
3118,346,61,1015,-10,262,7
3119,151,90,938,-20,285,-25
3120,-2,64,844,-51,295,-60
3121,53,-42,795,-71,306,-77
3122,292,-73,1002,-32,346,-70
3123,427,-34,1141,-26,408,-39
3124,364,20,1071,-28,445,-22
3125,162,102,1005,-27,452,-30
3126,-18,73,862,-79,458,-53
3127,-106,-33,735,-86,463,-81
3128,72,-49,906,-44,477,-88
3129,307,-26,1182,-54,513,-61
3130,339,-23,1142,-67,547,-36
3131,192,42,1008,-48,546,-43
3132,-1,90,951,-64,536,-64
3133,-140,-19,793,-111,532,-79
3134,-83,-91,773,-74,535,-84
3135,161,-31,1084,-31,561,-63
3136,322,-17,1191,-71,595,-26
3137,250,11,1047,-59,607,-14
3138,78,96,991,-55,596,-32
3139,-59,35,864,-105,593,-55
3140,-107,-74,745,-103,604,-63
3141,58,-53,917,-58,630,-49
3142,286,4,1174,-65,668,-23
3143,354,4,1105,-87,702,-9
3144,233,66,988,-74,718,-23
3145,64,76,925,-108,727,-53
3146,-33,-47,784,-142,747,-79
3147,32,-89,789,-104,780,-84
3148,253,-30,1055,-78,834,-71
3149,429,-1,1139,-104,890,-56
3150,364,15,998,-110,929,-56
3151,218,59,956,-111,961,-74
3152,84,-35,843,-159,1000,-93
3153,11,-135,708,-133,1047,-95
3154,152,-19,900,-63,1097,-74
3155,325,80,1157,-112,1156,-32
3156,-1207,987,1780,-112,1111,-19
3157,-1446,199,1173,-607,356,179
3158,-284,-332,295,-275,211,210
3159,-1175,386,1248,-110,406,-51
3160,-276,-964,-273,-426,312,-256
3161,-1163,-752,65,108,186,-354
3162,-1642,-218,424,325,-218,-628
3163,-357,26,682,314,-677,-609
3164,-259,166,979,225,-830,-397
3165,1697,-401,1903,26,-529,-208
3166,-51,-617,430,-112,-3,67
3167,-578,64,205,355,-71,-136
3168,337,668,1632,213,-176,-204
3169,253,-689,181,-386,-248,-40
3170,595,-110,1249,312,-185,-87
3171,367,559,1626,234,-75,-165
3172,-316,430,1308,-60,-114,-160
3173,-208,-665,-295,-241,-201,-117
3174,-329,23,679,146,-235,-68
3175,477,164,1520,62,-165,-125
3176,329,256,1517,23,-78,-125
3177,-247,-139,597,-115,-145,-111
3178,-165,192,1028,152,-244,-156
3179,-313,165,1112,-55,-289,-155
3180,-322,-263,377,-112,-293,-138
3181,90,78,1292,109,-301,-107
3182,118,93,1431,-52,-252,-71
3183,-49,-127,884,-91,-300,-19
3184,-164,-19,972,53,-392,7
3185,-260,26,971,14,-406,20
3186,-358,-150,789,-31,-421,54
3187,-156,-146,989,66,-456,81
3188,65,-91,1213,76,-478,106
3189,12,18,1133,93,-501,116
3190,-65,53,1040,54,-550,94
3191,-272,27,923,41,-589,65
3192,-329,-65,864,29,-644,68
3193,-138,-214,900,46,-692,101
3194,18,-91,1098,161,-671,135
3195,29,23,1094,124,-660,156
3196,36,58,1049,104,-699,145
3197,-64,89,1060,93,-736,113
3198,-207,-5,898,41,-781,98
3199,-188,-83,883,71,-840,109
3200,21,-145,968,91,-855,136
3201,175,-101,1026,148,-813,171
3202,212,26,1067,162,-776,192
3203,119,107,1021,125,-772,184
3204,21,81,969,80,-799,161
3205,-40,-7,881,58,-837,148
3206,98,-105,861,71,-845,144
3207,318,-109,966,124,-786,157
3208,436,-18,1006,144,-689,179
3209,406,64,995,120,-616,183
3210,301,116,985,98,-586,156
3211,204,85,922,48,-572,125
3212,169,-30,809,21,-553,109
3213,344,-81,858,57,-499,100
3214,547,-52,992,86,-393,107
3215,602,37,1011,90,-270,115
3216,510,121,995,60,-188,95
3217,359,137,940,17,-135,53
3218,228,62,837,-26,-89,23
3219,260,-44,761,-38,-40,16
3220,470,-72,911,7,46,21
3221,652,-4,1083,28,150,35
3222,615,64,1052,9,239,43
3223,449,116,981,-18,299,26
3224,237,116,871,-50,354,-9
3225,123,9,717,-87,410,-32
3226,237,-61,776,-64,460,-26
3227,507,-17,1124,-33,524,-2
3228,601,3,1172,-59,594,22
3229,421,69,993,-54,644,22
3230,185,121,916,-79,666,-2
3231,34,20,784,-128,699,-27
3232,37,-84,724,-112,742,-25
3233,222,-54,977,-64,788,-2
3234,446,18,1239,-69,833,32
3235,366,24,1078,-102,862,48
3236,163,73,945,-94,868,38
3237,-14,64,881,-120,873,14
3238,-88,-68,731,-144,895,6
3239,24,-69,825,-88,923,26
3240,265,37,1189,-82,958,59
3241,341,21,1169,-132,992,82
3242,188,43,964,-120,1005,82
3243,22,52,956,-130,1004,65
3244,-114,-87,791,-163,1015,51
3245,-111,-125,735,-106,1028,59
3246,77,39,1020,-59,1053,91
3247,267,96,1245,-141,1089,131
3248,195,-8,1034,-176,1105,135
3249,27,31,1017,-114,1098,114
3250,-203,-38,889,-158,1082,81
3251,-1255,784,1421,-66,1025,37
3252,-1854,592,1518,-479,396,136
3253,-679,-949,-225,-536,21,236
3254,-1211,471,1310,100,128,2
3255,-270,-513,339,-386,-2,-260
3256,-434,-687,45,-15,-106,-264
3257,-1549,-561,235,148,-226,-407
3258,413,-471,1694,400,-508,-540
3259,521,-256,1462,125,-385,-21
3260,-439,-1050,-521,8,-284,74
3261,302,659,1705,714,-423,-127
3262,30,364,1302,-22,-445,-143
3263,-150,-616,44,-14,-492,-109
3264,-249,283,1269,453,-496,-233
3265,-87,335,1363,214,-456,-316
3266,-234,-34,743,-19,-534,-211
3267,-4,-80,777,140,-632,-183
3268,187,441,1539,266,-613,-254
3269,-220,208,1183,-21,-585,-297
3270,-392,-203,423,-15,-681,-297
3271,-326,181,991,191,-773,-297
3272,-94,180,1027,-11,-772,-286
3273,51,152,1040,-31,-752,-244
3274,97,207,1118,-54,-748,-224
3275,98,232,1144,-65,-769,-241
3276,-77,214,1079,-99,-807,-249
3277,-114,-74,784,-186,-836,-227
3278,49,-280,895,-107,-829,-140
3279,202,-437,922,-57,-779,-5
3280,276,-381,973,91,-748,120
3281,296,-174,1042,171,-762,197
3282,187,-65,1019,165,-777,237
3283,22,-19,908,155,-788,259
3284,-20,-54,810,138,-813,260
3285,181,-47,920,187,-802,245
3286,377,65,1062,206,-714,220
3287,360,199,1056,172,-606,188
3288,249,256,1005,89,-567,135
3289,134,215,989,14,-576,74
3290,84,58,884,-50,-597,30
3291,207,-113,862,-39,-586,16
3292,401,-183,933,25,-507,39
3293,497,-118,980,78,-401,89
3294,447,-21,974,88,-326,135
3295,297,55,974,75,-302,150
3296,169,69,948,46,-303,138
3297,124,-22,849,7,-301,125
3298,253,-96,871,39,-264,116
3299,439,-66,982,77,-174,114
3300,481,48,1037,97,-63,113
3301,360,159,1009,57,12,97
3302,186,166,953,-6,31,62
3303,87,96,896,-49,32,23
3304,151,-42,840,-79,53,2
3305,335,-120,915,-28,128,0
3306,475,-37,1032,23,228,21
3307,421,61,1052,10,294,44
3308,301,93,1013,-28,321,42
3309,108,98,919,-42,348,14
3310,-24,26,787,-74,370,-5
3311,104,-73,817,-71,382,-4
3312,354,-55,1089,-27,425,15
3313,437,-4,1154,-27,479,34
3314,304,60,1032,-36,506,37
3315,92,108,960,-55,513,17
3316,-70,26,816,-97,525,-8
3317,-69,-87,737,-92,541,-8
3318,125,-60,985,-34,563,16
3319,373,-7,1238,-46,591,49
3320,311,6,1100,-60,610,66
3321,114,83,982,-52,601,59
3322,-62,72,898,-88,595,38
3323,-146,-54,743,-112,610,27
3324,-29,-81,816,-67,626,40
3325,231,6,1188,-43,647,70
3326,333,1,1207,-86,670,95
3327,186,21,984,-80,672,97
3328,-11,85,948,-74,662,72
3329,-116,-18,820,-125,665,46
3330,-98,-107,752,-96,680,45
3331,109,-30,1030,-51,704,62
3332,341,8,1223,-84,739,79
3333,276,3,1040,-100,761,79
3334,129,55,951,-87,768,59
3335,-14,19,899,-120,777,30
3336,-72,-109,744,-134,805,19
3337,49,-69,853,-70,837,29
3338,276,42,1179,-73,879,47
3339,350,-4,1095,-131,919,52
3340,243,37,978,-100,941,39
3341,79,27,959,-130,967,18
3342,-292,57,912,-143,996,1
3343,-1836,1080,1859,-81,757,19
3344,-1211,-674,197,-737,68,245
3345,-900,64,739,29,84,194
3346,-890,116,1032,-224,35,-93
3347,65,-997,-276,-226,-110,-190
3348,-1251,-558,558,150,-202,-239
3349,278,-645,1760,307,-401,-371
3350,836,-462,1511,111,-277,13
3351,-379,-586,-217,201,-117,61
3352,516,432,1309,558,-184,-56
3353,586,201,1409,32,-152,2
3354,250,-109,745,147,-63,-2
3355,87,182,1131,291,-41,-85
3356,-166,285,1116,236,-52,-138
3357,-33,-236,381,-10,-96,-88
3358,161,112,996,290,-97,-63
3359,331,475,1590,168,-16,-113
3360,53,57,1039,-83,10,-118
3361,-286,-5,718,74,-58,-146
3362,-264,63,886,80,-127,-186
3363,-229,75,896,54,-135,-186
3364,-72,119,1006,12,-138,-153
3365,69,184,1192,-19,-149,-122
3366,43,273,1285,-39,-170,-131
3367,-194,76,949,-133,-221,-152
3368,-355,82,830,-47,-286,-182
3369,-371,106,878,-97,-332,-185
3370,-266,79,874,-150,-355,-156
3371,-61,245,1177,-149,-370,-127
3372,21,225,1213,-266,-387,-125
3373,-28,145,1181,-255,-428,-160
3374,-74,-125,1121,-290,-454,-173
3375,-229,-420,859,-245,-459,-89
3376,-236,-451,949,-130,-512,58
3377,-152,-630,764,-42,-575,178
3378,-25,-473,985,144,-649,253
3379,42,-378,1054,210,-707,338
3380,-99,-222,1041,259,-758,422
3381,-314,-1,1021,297,-809,421
3382,-366,119,983,258,-869,347
3383,-276,161,1002,214,-903,243
3384,-86,167,1031,166,-897,129
3385,14,218,1124,133,-866,31
3386,-59,224,1090,59,-868,-47
3387,-160,94,972,-28,-939,-91
3388,-95,-76,984,-31,-1026,-91
3389,30,-277,891,-18,-1049,-41
3390,151,-347,845,100,-1023,41
3391,309,-185,964,208,-986,126
3392,361,-64,1014,212,-951,191
3393,223,75,1018,208,-939,212
3394,112,135,971,153,-952,196
3395,82,59,887,90,-965,166
3396,240,-40,861,90,-944,139
3397,476,-105,909,108,-857,126
3398,587,21,1018,181,-724,116
3399,474,181,1016,146,-611,100
3400,298,176,890,53,-568,77
3401,250,108,884,9,-559,55
3402,360,-65,854,-32,-508,40
3403,506,-154,839,36,-388,39
3404,649,-51,947,113,-245,47
3405,633,95,994,119,-116,60
3406,494,200,1001,72,-28,56
3407,309,183,902,-4,22,32
3408,232,106,818,-42,66,6
3409,342,-2,822,-54,125,-9
3410,538,-54,940,-17,224,-10
3411,627,47,1084,26,325,11
3412,540,131,1068,-19,398,33
3413,320,125,949,-66,448,31
3414,110,93,826,-81,488,12
3415,58,-20,717,-106,522,13
3416,234,-71,880,-68,554,33
3417,516,-21,1202,-45,606,64
3418,488,6,1147,-64,665,85
3419,242,80,974,-65,692,87
3420,9,94,872,-101,696,70
3421,-73,-36,721,-130,710,61
3422,38,-110,775,-87,736,72
3423,311,-39,1141,-40,776,103
3424,417,16,1249,-65,819,135
3425,255,35,996,-91,833,150
3426,30,78,909,-85,829,141
3427,-79,22,818,-114,831,128
3428,-62,-84,749,-110,851,137
3429,125,-16,995,-51,885,166
3430,351,61,1224,-77,922,188
3431,312,57,1077,-113,951,193
3432,156,76,947,-117,964,183
3433,-17,35,860,-147,977,165
3434,-82,-59,739,-151,1004,163
3435,22,-53,830,-119,1037,175
3436,271,35,1163,-103,1071,178
3437,373,36,1159,-142,1107,165
3438,258,43,964,-152,1132,141
3439,70,61,910,-166,1161,108
3440,-45,-58,764,-215,1197,89
3441,-39,-143,745,-182,1244,89
3442,-110,133,1160,-124,1291,83
3443,-1812,1006,1896,-181,931,92
3444,-425,-920,-211,-658,53,213
3445,-857,365,1103,127,304,84
3446,-752,195,1115,-256,326,-205
3447,30,-1279,-526,-343,262,-237
3448,-1741,-399,340,222,154,-345
3449,-1088,-219,328,352,-416,-662
3450,-178,88,641,318,-820,-486
3451,785,-5,1335,188,-779,-248
3452,1365,-495,1268,-109,-207,51
3453,-611,-424,-61,160,5,19
3454,-199,799,1352,479,-62,-175
3455,78,-258,552,-335,-93,-99
3456,-134,-375,32,53,-126,49
3457,1000,175,1730,130,-110,-22
3458,284,661,1836,244,-61,-149
3459,-252,19,598,-275,-174,-140
3460,-359,-253,290,-15,-238,-115
3461,-650,59,476,-99,-270,-82
3462,20,-392,705,-105,-317,-76
3463,489,8,1773,144,-241,-147
3464,-203,-61,658,66,-233,-142
3465,-343,314,1138,152,-405,-115
3466,-377,229,1260,-57,-487,-169
3467,-564,-310,377,-121,-558,-181
3468,-302,-115,874,131,-626,-185
3469,131,73,1611,114,-574,-159
3470,-264,29,1107,-22,-575,-77
3471,-261,-183,741,6,-739,-53
3472,-226,87,1175,167,-823,-53
3473,-452,44,998,27,-840,-45
3474,-432,-133,765,28,-917,-23
3475,-132,-143,1109,104,-985,2
3476,54,-149,1107,119,-982,32
3477,-59,39,1095,184,-1003,59
3478,-195,82,1008,107,-1082,60
3479,-213,2,994,69,-1196,63
3480,-189,-143,939,55,-1292,85
3481,54,-313,874,107,-1315,115
3482,167,-164,989,248,-1284,152
3483,243,-3,1000,245,-1257,183
3484,222,60,993,209,-1255,196
3485,126,127,1011,178,-1277,179
3486,81,58,958,107,-1304,151
3487,142,-66,840,90,-1311,138
3488,361,-168,849,118,-1264,143
3489,587,-159,914,186,-1158,158
3490,573,47,1021,255,-1028,168
3491,401,162,959,179,-954,168
3492,271,146,870,104,-941,156
3493,308,39,883,46,-924,142
3494,459,-152,815,36,-842,132
3495,611,-146,874,144,-698,125
3496,678,9,953,202,-542,120
3497,616,166,989,184,-414,111
3498,436,250,961,111,-333,95
3499,304,193,858,17,-281,69
3500,336,73,798,-28,-226,44
3501,525,-39,852,-13,-122,15
3502,739,-32,963,60,30,-11
3503,696,154,1043,115,166,-12
3504,550,251,1036,20,244,7
3505,365,191,909,-62,301,9
3506,210,118,776,-83,365,-2
3507,242,-9,674,-102,415,-2
3508,520,-6,992,-41,469,15
3509,722,57,1272,-44,554,44
3510,558,53,1046,-89,638,66
3511,240,122,901,-76,680,62
3512,56,83,798,-131,701,49
3513,40,-96,652,-154,727,57
3514,240,-120,875,-72,772,78
3515,541,-28,1262,-44,837,102
3516,472,30,1179,-74,900,125
3517,204,55,919,-105,926,133
3518,-16,69,836,-118,927,123
3519,-86,-36,731,-149,943,117
3520,30,-117,765,-115,971,126
3521,299,-9,1158,-42,1011,130
3522,419,68,1264,-80,1047,138
3523,252,76,1008,-133,1070,143
3524,21,84,879,-144,1080,126
3525,-110,9,781,-176,1091,110
3526,-100,-102,704,-178,1117,115
3527,112,-60,996,-112,1140,111
3528,398,31,1285,-100,1162,92
3529,334,49,1085,-145,1182,82
3530,125,72,916,-160,1199,60
3531,-35,22,836,-197,1217,36
3532,-124,-118,668,-219,1253,35
3533,11,-113,842,-151,1285,35
3534,277,1,1260,-112,1304,19
3535,312,23,1167,-151,1309,5
3536,161,20,930,-174,1310,-4
3537,-29,46,941,-169,1325,-18
3538,-187,-104,742,-234,1354,-19
3539,-1366,726,1457,-121,1302,-15
3540,-1416,-216,818,-599,228,248
3541,-184,-400,-143,-86,31,279
3542,-1422,836,1438,69,232,-91
3543,281,-897,10,-532,95,-268
3544,-922,-680,156,70,83,-207
3545,-1784,-299,358,269,-224,-537
3546,-207,-11,944,412,-779,-655
3547,1492,-128,1898,225,-684,-278
3548,223,-641,353,-122,-207,64
3549,100,21,508,446,-279,-67
3550,-8,1197,1778,346,-339,-227
3551,143,-940,-470,-530,-422,-107
3552,-454,121,725,349,-387,-42
3553,308,10,1280,0,-311,-171
3554,350,493,1766,286,-319,-174
3555,-18,-262,444,-219,-372,-112
3556,89,40,801,273,-416,-116
3557,-88,561,1604,121,-411,-156
3558,-244,-394,312,-215,-395,-136
3559,-230,53,800,219,-455,-94
3560,77,291,1284,43,-458,-88
3561,227,214,1341,-40,-422,-47
3562,42,-60,859,-135,-446,-34
3563,-55,48,927,70,-476,-67
3564,-138,209,1173,-6,-487,-64
3565,-215,-272,643,-181,-503,-25
3566,-4,-260,934,52,-513,12
3567,186,-163,1181,58,-497,50
3568,199,-93,1103,83,-506,94
3569,85,-41,995,66,-530,94
3570,-102,0,888,98,-523,60
3571,-224,31,886,82,-530,43
3572,-148,-91,819,43,-537,41
3573,81,-32,1095,120,-538,43
3574,206,44,1209,95,-535,43
3575,159,67,1081,63,-544,33
3576,-25,115,1001,54,-562,7
3577,-196,37,855,1,-590,-12
3578,-197,-103,801,6,-644,-6
3579,79,-166,1009,66,-658,25
3580,241,-97,1132,116,-597,71
3581,126,37,1030,115,-562,106
3582,109,57,997,76,-601,102
3583,-6,72,1004,67,-641,90
3584,-108,-22,876,25,-679,83
3585,8,-111,878,62,-704,86
3586,204,-94,1012,109,-671,103
3587,320,-51,1012,116,-602,133
3588,278,46,1024,120,-554,151
3589,144,124,1024,93,-550,138
3590,39,78,934,35,-573,116
3591,16,-26,844,20,-595,101
3592,212,-121,895,45,-574,99
3593,404,-101,1008,101,-488,113
3594,435,19,1037,121,-391,139
3595,335,83,987,78,-339,144
3596,184,120,961,59,-329,128
3597,83,66,897,12,-333,108
3598,155,-56,816,-3,-320,100
3599,354,-79,942,52,-251,98
3600,514,-2,1046,74,-149,108
3601,468,95,1042,64,-64,109
3602,322,144,994,19,-23,91
3603,170,107,898,-26,0,63
3604,96,14,794,-51,24,51
3605,232,-81,824,-37,64,59
3606,446,-54,1037,17,136,67
3607,544,29,1132,16,209,80
3608,442,72,1036,-24,261,77
3609,219,105,936,-40,298,46
3610,40,48,801,-77,334,10
3611,55,-77,718,-88,363,1
3612,282,-106,951,-38,401,13
3613,550,-53,1213,-18,458,39
3614,488,-1,1101,-30,515,58
3615,255,70,946,-38,542,59
3616,62,78,843,-66,559,41
3617,-10,-34,717,-89,592,31
3618,138,-69,825,-41,631,42
3619,393,27,1185,-16,683,72
3620,470,51,1184,-67,733,104
3621,302,87,978,-78,762,111
3622,91,120,904,-92,775,96
3623,-45,24,784,-135,792,79
3624,0,-51,765,-115,818,83
3625,200,10,1034,-76,864,98
3626,401,46,1197,-106,910,108
3627,331,39,1044,-132,944,103
3628,147,74,941,-138,963,79
3629,-25,29,847,-170,974,45
3630,-78,-90,748,-180,998,22
3631,73,-115,892,-132,1030,12
3632,283,-57,1145,-105,1071,8
3633,338,-29,1103,-126,1103,9
3634,208,11,956,-132,1123,-2
3635,29,30,909,-143,1141,-28
3636,-88,-74,798,-175,1166,-45
3637,-62,-114,802,-139,1200,-35
3638,69,-18,1056,-102,1232,-14
3639,-1195,888,1738,-88,1158,-13
3640,-1347,-17,1037,-590,308,179
3641,-249,-277,268,-162,184,199
3642,-1205,554,1334,-62,380,-80
3643,-76,-961,-196,-478,309,-259
3644,-1192,-712,143,99,255,-307
3645,-1661,-236,240,312,-182,-609
3646,-309,-22,579,344,-722,-640
3647,-162,105,869,257,-879,-402
3648,1724,-208,1897,99,-550,-160
3649,-151,-751,157,-200,-41,81
3650,-677,227,464,449,-118,-120
3651,104,523,1515,131,-211,-178
3652,-80,-717,-141,-293,-302,0
3653,510,31,1366,275,-301,16
3654,563,402,1824,167,-215,-117
3655,-354,507,1391,72,-268,-151
3656,-283,-647,-190,-260,-379,-118
3657,-605,-16,570,186,-438,-75
3658,-135,-206,525,5,-480,-80
3659,663,542,1881,289,-428,-67
3660,-22,-172,826,-239,-346,-46
3661,-234,-13,695,220,-444,-60
3662,-268,464,1509,121,-553,-79
3663,-340,-333,330,-197,-602,-48
3664,-212,-62,683,165,-630,-10
3665,249,280,1466,106,-580,-22
3666,186,254,1499,-40,-516,1
3667,-122,-203,625,-176,-586,26
3668,-86,35,980,130,-672,0
3669,-113,64,1099,-21,-661,21
3670,-185,-313,597,-91,-639,82
3671,110,-216,1026,117,-660,121
3672,305,-104,1232,113,-647,139
3673,201,31,1124,124,-631,148
3674,-27,-14,860,41,-652,122
3675,-101,-14,886,105,-692,93
3676,-44,-99,893,60,-715,113
3677,99,-197,884,107,-684,145
3678,211,42,1113,214,-630,163
3679,240,141,1119,122,-595,163
3680,132,134,1001,83,-602,140
3681,-39,129,972,53,-634,106
3682,-125,31,912,19,-685,94
3683,-29,-83,893,23,-728,109
3684,161,-133,1018,72,-712,145
3685,242,-71,1053,111,-659,190
3686,127,43,1063,115,-644,224
3687,-34,69,1003,75,-695,233
3688,-118,15,967,43,-788,231
3689,-112,-98,927,42,-863,226
3690,31,-189,931,81,-881,235
3691,168,-149,995,152,-851,253
3692,226,-38,1028,173,-809,272
3693,144,63,1045,154,-801,270
3694,0,110,1007,108,-836,244
3695,-70,28,934,49,-893,212
3696,26,-107,860,36,-928,190
3697,242,-211,893,78,-892,186
3698,438,-158,990,163,-797,192
3699,408,20,1041,201,-693,196
3700,226,128,968,142,-650,183
3701,119,142,920,81,-667,150
3702,144,32,882,15,-680,122
3703,325,-138,835,11,-629,102
3704,525,-148,926,106,-508,89
3705,606,9,1009,169,-363,86
3706,493,168,995,143,-250,83
3707,309,229,937,65,-203,63
3708,219,168,880,-9,-184,34
3709,284,40,831,-49,-142,10
3710,466,-73,863,-23,-44,-11
3711,649,-25,983,44,88,-19
3712,615,133,1074,63,198,-5
3713,484,156,1020,-33,259,6
3714,289,115,892,-58,308,-14
3715,147,65,771,-77,363,-45
3716,213,-47,713,-78,404,-46
3717,500,-62,1008,-45,451,-23
3718,693,-16,1241,-35,531,6
3719,517,37,1055,-52,614,12
3720,205,121,908,-54,648,0
3721,26,62,782,-118,661,-13
3722,31,-89,688,-125,683,-10
3723,233,-108,902,-58,725,6
3724,512,1,1242,-17,789,30
3725,444,80,1183,-57,849,59
3726,189,96,942,-104,870,74
3727,-23,98,846,-116,871,64
3728,-106,-11,721,-154,888,65
3729,0,-90,751,-118,915,82
3730,286,11,1166,-55,944,89
3731,435,76,1279,-84,976,100
3732,279,86,1014,-130,998,106
3733,32,122,907,-139,1012,92
3734,-115,29,766,-197,1030,73
3735,-111,-115,670,-196,1054,68
3736,135,-96,990,-118,1076,54
3737,434,-1,1317,-94,1103,37
3738,363,8,1098,-142,1130,29
3739,123,38,886,-154,1148,10
3740,-72,38,837,-174,1163,-22
3741,-141,-130,683,-215,1188,-36
3742,-20,-154,867,-134,1210,-39
3743,202,-20,1276,-84,1218,-38
3744,212,7,1201,-136,1205,-26
3745,9,23,973,-146,1177,-25
3746,-208,18,961,-153,1151,-35
3747,-398,-121,790,-187,1132,-29
3748,-463,-149,769,-115,1108,-12
3749,-359,34,1114,-66,1056,21
3750,-178,77,1363,-142,964,59
3751,-745,317,1429,-136,848,47
3752,-1796,902,1883,-152,450,36
3753,-892,-593,371,-664,88,96
3754,-1004,120,1091,29,123,27
3755,-893,-125,721,-326,113,-161
3756,-879,-709,11,-116,-9,-254
3757,-1260,-247,339,103,-231,-375
3758,110,-674,1252,235,-472,-537
3759,629,-192,1945,274,-448,-267
3760,-690,-1011,-34,-143,-455,-35
3761,-558,162,1083,542,-646,-191
3762,-467,262,1384,146,-793,-235
3763,57,-575,319,19,-898,-97
3764,187,-121,1261,404,-885,-58
3765,-47,686,1630,536,-790,-126
3766,-322,210,1193,-47,-906,-72
3767,-550,-329,231,138,-1082,-60
3768,-243,109,745,313,-1160,-104
3769,62,355,1305,287,-1107,-136
3770,139,465,1320,81,-1031,-106
3771,-14,-121,644,-181,-1045,-86
3772,36,358,1141,232,-1101,-176
3773,25,320,1189,-82,-1121,-239
3774,-99,-81,502,-116,-1111,-254
3775,268,1,1080,9,-1097,-228
3776,567,-351,1103,-137,-994,-139
3777,447,-302,902,64,-900,-28
3778,431,-218,905,102,-915,46
3779,356,-84,933,164,-880,99
3780,141,-56,841,123,-836,134
3781,175,-191,617,130,-820,135
3782,515,-23,1060,266,-756,122
3783,604,151,1163,201,-622,112
3784,475,193,974,124,-526,77
3785,320,239,957,90,-494,7
3786,211,219,932,16,-475,-59
3787,166,34,770,-51,-456,-90
3788,368,-68,865,-12,-406,-91
3789,578,-48,1094,28,-292,-57
3790,531,-12,995,17,-176,-1
3791,410,49,953,27,-129,31
3792,260,96,949,10,-114,32
3793,116,42,879,-24,-101,27
3794,170,-86,787,-38,-81,35
3795,359,-103,942,27,-16,49
3796,512,-1,1080,55,80,67
3797,445,77,1036,29,151,78
3798,300,134,1000,2,183,55
3799,133,116,906,-41,209,21
3800,27,7,775,-75,229,8
3801,181,-82,820,-55,253,14
3802,411,-47,1091,-6,315,33
3803,484,17,1149,-14,379,56
3804,355,63,1025,-39,411,59
3805,144,112,954,-51,430,33
3806,-29,34,811,-96,454,4
3807,-33,-91,714,-98,475,0
3808,184,-80,976,-38,502,18
3809,439,-22,1253,-35,537,42
3810,366,0,1100,-54,568,57
3811,152,75,961,-49,571,45
3812,-26,79,876,-79,572,16
3813,-96,-53,725,-108,592,4
3814,37,-87,829,-55,614,16
3815,303,11,1199,-26,646,48
3816,388,30,1202,-75,674,79
3817,238,46,974,-78,683,89
3818,51,104,920,-72,683,76
3819,-66,20,805,-117,697,63
3820,-30,-71,752,-104,723,76
3821,172,1,1030,-54,759,107
3822,402,39,1217,-90,797,136
3823,338,33,1039,-108,829,148
3824,162,93,945,-98,846,137
3825,13,42,854,-148,862,119
3826,-42,-70,736,-149,896,116
3827,123,-65,885,-106,934,127
3828,343,2,1159,-96,985,140
3829,402,16,1094,-125,1028,146
3830,291,44,939,-131,1060,138
3831,125,54,905,-146,1097,116
3832,24,-59,771,-183,1141,104
3833,62,-99,789,-142,1197,111
3834,-452,542,1322,-77,1256,115
3835,-1821,844,1768,-356,676,147
3836,-87,-1000,-329,-587,73,183
3837,-1217,520,1319,140,343,-36
3838,-290,-351,525,-363,278,-310
3839,-326,-1037,-296,-40,264,-344
3840,-1877,-140,427,234,-4,-561
3841,-574,-230,306,310,-565,-687
3842,-247,412,784,303,-784,-398
3843,1688,-105,1822,12,-575,-149
3844,967,-1266,36,-285,30,166
3845,-368,545,829,609,156,-47
3846,226,809,1561,41,34,-105
3847,396,-935,-226,-473,-52,166
3848,-93,531,1525,386,65,88
3849,207,611,1652,-89,-28,-90
3850,283,-329,437,-272,-18,-84
3851,29,161,605,166,108,-53
3852,-448,196,1080,-208,106,30
3853,-482,-518,1170,-195,-29,33
3854,188,-124,1116,90,-96,-64
3855,197,-25,968,39,-45,-39
3856,387,-278,700,-84,5,2
3857,76,-180,988,91,61,11
3858,-415,274,1243,118,37,-45
3859,-235,3,1028,-65,-52,-66
3860,-52,-86,704,42,-74,-30
3861,223,58,1010,73,-53,13
3862,344,-36,1179,-46,-15,30
3863,90,90,1078,61,26,-44
3864,-27,154,974,4,19,-80
3865,-128,-18,746,-84,23,-38
3866,-176,-46,878,-35,20,7
3867,-56,57,1267,-6,-21,0
3868,184,-53,1102,-52,-33,-36
3869,245,-72,887,-16,0,-44
3870,70,-8,923,-14,48,-28
3871,-176,-92,884,-67,58,-15
3872,-361,-3,1078,22,17,-31
3873,-194,-37,1049,-18,-48,-40
3874,136,-147,935,-9,-68,-30
3875,294,-123,986,34,-31,-23
3876,173,-39,1021,43,13,-39
3877,-95,46,1012,37,30,-68
3878,-244,41,933,11,5,-74
3879,-220,0,880,3,-27,-54
3880,-4,-16,1042,10,-55,-32
3881,217,-21,1108,14,-51,-41
3882,258,25,1038,23,-14,-74
3883,92,47,941,-6,27,-98
3884,-101,-10,879,-44,45,-99
3885,-273,-20,945,-25,26,-82
3886,-202,-8,1074,-14,-26,-64
3887,72,-61,1058,-15,-61,-57
3888,258,-57,992,8,-38,-61
3889,229,-36,972,0,1,-64
3890,27,-36,957,-10,24,-44
3891,-139,19,944,14,14,-8
3892,-188,122,976,22,-7,10
3893,-10,80,1008,-31,-35,22
3894,275,10,1031,-38,-28,26
3895,275,97,1074,-9,18,15
3896,103,91,980,-73,57,0
3897,-80,29,910,-99,73,4
3898,-344,-3,985,-93,59,19
3899,-318,-210,974,-120,-10,13
3900,48,-320,968,-21,-55,-10
3901,226,-194,1052,44,-28,-2
3902,239,-135,955,33,7,21
3903,-37,15,959,66,33,22
3904,-316,139,1004,60,22,-6
3905,-258,49,930,-17,-36,-7
3906,-26,-9,1002,21,-66,7
3907,272,-10,1084,11,-58,21
3908,328,-23,1023,1,-13,15
3909,140,48,994,13,35,-9
3910,-94,51,915,-28,50,-12
3911,-281,29,922,-30,31,8
3912,-242,-20,1013,-40,-18,20
3913,68,-112,1037,-21,-54,9
3914,269,-114,1035,9,-31,10
3915,219,-60,978,15,9,18
3916,3,-5,942,14,38,10
3917,-282,52,958,16,35,-7
3918,-302,2,975,-18,-17,-8
3919,-77,-97,980,-4,-61,5
3920,220,-66,1072,43,-62,6
3921,300,-83,1017,12,-26,0
3922,130,-13,980,45,20,-21
3923,-139,59,952,20,33,-37
3924,-320,57,932,3,6,-33
3925,-222,22,997,-10,-45,-27
3926,62,-98,1008,-12,-72,-23
3927,320,-94,1061,43,-55,3
3928,303,-40,984,35,-8,40
3929,62,107,955,61,31,53
3930,-194,209,975,11,40,31
3931,-244,100,924,-71,10,9
3932,-50,46,1036,-44,-27,14
3933,237,10,1096,-55,-31,30
3934,297,-39,999,-66,9,36
3935,138,-6,980,-51,54,30
3936,-128,-8,943,-74,69,23
3937,-346,-74,934,-81,48,23
3938,-308,-176,967,-56,-19,17
3939,15,-240,989,-1,-62,17
3940,195,-194,1063,41,-50,39
3941,177,-109,988,64,-27,54
3942,-6,4,949,84,-8,48
3943,-227,109,952,69,-4,37
3944,-234,57,960,9,-35,34
3945,-63,-29,995,14,-66,42
3946,196,-24,1106,39,-70,55
3947,240,-37,1051,31,-47,83
3948,82,6,971,52,-27,139
3949,-104,63,946,46,-28,205
3950,-211,-18,864,8,-20,263
3951,-209,-17,887,47,-17,326
3952,-81,94,1135,61,-48,390
3953,39,114,1220,26,-94,422
3954,-53,133,1118,15,-128,413
3955,-335,100,1029,-16,-159,381
3956,-534,-14,826,-42,-229,348
3957,-559,-22,828,-17,-323,346
3958,-317,-37,1168,-46,-392,343
3959,-145,-157,1259,-39,-424,288
3960,-264,-73,1101,42,-502,238
3961,-355,-66,1098,-14,-607,208
3962,-523,-196,1001,-20,-718,198
3963,-573,-341,925,7,-876,264
3964,-398,-572,816,96,-978,338
3965,-337,-188,1138,325,-1007,369
3966,-342,64,1108,298,-1046,358
3967,-314,83,1063,189,-1132,317
3968,-411,138,1153,181,-1204,226
3969,-527,108,1066,103,-1298,139
3970,-555,-73,877,45,-1435,107
3971,-230,-286,938,60,-1548,112
3972,57,-331,1035,181,-1547,114
3973,36,-32,1053,330,-1498,119
3974,-83,97,957,216,-1549,128
3975,-68,36,954,157,-1648,124
3976,40,-48,1031,123,-1712,116
3977,124,-216,794,123,-1706,116
3978,297,-146,832,250,-1669,121
3979,537,-70,932,253,-1604,135
3980,648,20,964,270,-1506,146
3981,497,191,955,255,-1418,137
3982,411,196,859,151,-1375,110
3983,465,93,824,91,-1337,92
3984,675,-84,784,59,-1238,90
3985,907,-159,811,135,-1064,87
3986,993,57,968,253,-849,82
3987,921,233,971,196,-664,79
3988,739,274,842,103,-531,75
3989,738,239,860,20,-421,60
3990,862,106,801,-41,-262,27
3991,898,39,704,-8,-48,-8
3992,952,50,746,25,139,-27
3993,957,130,944,41,297,-11
3994,739,153,1032,-29,429,35
3995,517,68,899,-74,522,60
3996,380,68,836,-32,609,61
3997,325,72,800,-42,684,71
3998,517,33,915,-63,737,95
3999,679,72,1167,-58,812,116
4000,531,109,1092,-88,908,107
4001,185,144,919,-117,958,90
4002,-40,73,777,-169,963,77
4003,-19,-92,686,-186,963,78
4004,193,-129,943,-111,986,89
4005,449,-50,1243,-73,1031,104
4006,337,23,1168,-98,1072,122
4007,47,59,947,-128,1071,115
4008,-146,23,823,-156,1043,94
4009,-214,-94,715,-158,1025,77
4010,-33,-131,861,-101,1025,74
4011,222,-22,1226,-51,1047,83
4012,278,34,1209,-95,1069,96
4013,107,30,975,-129,1066,95
4014,-88,66,912,-120,1043,72
4015,-188,-38,793,-162,1027,54
4016,-130,-98,755,-125,1028,54
4017,102,-5,1078,-77,1048,59
4018,321,37,1225,-109,1073,60
4019,255,38,1047,-134,1093,54
4020,74,52,937,-143,1094,30
4021,-45,-14,852,-168,1101,4
4022,-102,-132,703,-170,1124,2
4023,44,-77,871,-107,1152,16
4024,297,32,1238,-106,1184,24
4025,352,8,1117,-149,1212,19
4026,220,5,977,-139,1229,12
4027,10,-44,915,-164,1252,8
4028,-153,-178,731,-153,1266,11
4029,-128,-148,774,-83,1276,37
4030,-1085,918,1514,2,1250,64
4031,-1724,762,1365,-544,448,259
4032,-160,-849,-226,-570,26,354
4033,-1253,593,1426,66,275,91
4034,-108,-696,196,-516,203,-167
4035,-711,-946,-117,-77,160,-173
4036,-1862,-587,126,252,-60,-438
4037,-684,-159,631,397,-612,-668
4038,603,-73,1391,367,-872,-419
4039,1437,-91,1685,153,-358,-36
4040,-193,-853,-266,-89,-54,52
4041,-253,973,1529,687,-187,-151
4042,218,-91,775,-323,-243,-130
4043,-99,-492,-121,68,-258,-6
4044,486,315,1390,182,-171,-102
4045,693,597,1902,188,-72,-206
4046,-53,217,968,-189,-105,-197
4047,-204,-540,-98,-71,-162,-214
4048,-304,322,1096,153,-184,-233
4049,-36,-138,866,-161,-154,-230
4050,196,110,1219,79,-142,-173
4051,162,144,1351,-53,-137,-164
4052,81,134,1067,0,-158,-184
4053,-243,133,1050,-60,-233,-172
4054,-370,-254,474,-127,-294,-177
4055,-268,7,991,71,-316,-178
4056,-52,-59,1256,-47,-292,-156
4057,-1,-216,1024,-46,-301,-97
4058,-15,-74,1108,88,-365,-66
4059,-104,37,1086,50,-411,-50
4060,-362,-32,906,10,-456,-35
4061,-415,-113,772,34,-508,-52
4062,-211,-91,1019,101,-546,-63
4063,-85,-34,1152,96,-558,-40
4064,7,-48,1113,70,-597,-16
4065,10,14,1089,109,-647,-17
4066,-210,109,1033,98,-675,-35
4067,-365,13,843,33,-730,-66
4068,-277,-40,868,71,-792,-99
4069,-28,-93,1066,63,-799,-93
4070,92,-129,1057,75,-765,-56
4071,98,-36,1079,127,-779,-23
4072,60,29,1046,117,-817,-6
4073,-122,48,953,102,-845,-4
4074,-209,-10,828,76,-894,-6
4075,-22,-91,897,80,-930,1
4076,266,-126,1067,123,-891,24
4077,272,-30,1022,163,-818,53
4078,218,96,1020,160,-807,68
4079,113,140,1028,107,-821,68
4080,8,46,898,43,-851,63
4081,27,-59,835,47,-879,63
4082,243,-120,962,79,-858,73
4083,417,-97,1019,129,-772,94
