sequence,AccelerometerX,AccelerometerY,AccelerometerZ,GyroscopeX,GyroscopeY,GyroscopeZ
0,13,-266,925,-184,-2,-17
1,46,-264,931,-164,4,-20
2,44,-296,935,-135,12,-14
3,2,-303,932,-108,15,-8
4,-40,-304,945,-79,10,-3
5,-65,-288,946,-49,3,-6
6,-57,-275,931,-26,-6,-14
7,0,-258,921,3,-10,-24
8,34,-258,929,24,-2,-26
9,35,-286,945,39,10,-20
10,2,-292,943,68,11,-16
11,-34,-286,948,99,9,-10
12,-51,-266,952,120,0,-13
13,-41,-249,944,144,-6,-18
14,9,-229,935,162,-6,-26
15,37,-233,944,181,2,-29
16,36,-254,953,201,8,-23
17,-3,-264,947,219,10,-15
18,-42,-262,955,242,8,-10
19,-60,-247,956,266,-1,-13
20,-42,-239,947,283,-6,-20
21,8,-223,935,303,-6,-30
22,42,-228,938,321,2,-34
23,42,-255,953,342,9,-31
24,1,-255,949,363,13,-23
25,-43,-257,959,383,11,-17
26,-60,-237,961,406,4,-18
27,-48,-216,951,423,-3,-25
28,9,-192,938,438,-3,-35
29,36,-198,945,455,4,-39
30,38,-212,960,470,10,-36
31,-1,-216,967,485,14,-30
32,-41,-208,971,499,11,-20
33,-61,-187,975,513,3,-20
34,-46,-165,964,522,-2,-26
35,5,-143,953,531,-2,-37
36,36,-147,962,540,5,-45
37,36,-164,967,551,13,-45
38,0,-168,969,561,16,-37
39,-51,-172,966,572,11,-33
40,-54,-158,970,593,2,-48
41,-33,-137,953,608,2,-74
42,1,-136,943,621,11,-99
43,17,-161,941,640,18,-120
44,15,-188,948,664,23,-129
45,-14,-195,943,686,24,-129
46,-50,-216,960,705,22,-131
47,-71,-212,956,727,17,-136
48,-51,-209,942,747,12,-143
49,6,-189,924,767,8,-150
50,42,-211,929,790,12,-152
51,43,-233,931,816,20,-151
52,13,-241,934,844,24,-151
53,-23,-247,936,876,25,-146
54,-60,-238,931,907,22,-146
55,-49,-220,915,934,17,-153
56,2,-204,913,966,13,-167
57,35,-209,907,997,18,-181
58,30,-228,905,1033,28,-192
59,-10,-231,910,1073,37,-199
60,-66,-231,922,1111,35,-203
61,-97,-210,910,1147,25,-214
62,-69,-196,903,1181,17,-230
63,-8,-167,904,1213,9,-250
64,31,-172,912,1244,15,-270
65,36,-180,918,1276,27,-280
66,-8,-172,912,1309,33,-284
67,-53,-165,925,1343,27,-287
68,-82,-144,913,1372,17,-294
69,-46,-124,909,1399,4,-308
70,0,-103,913,1428,1,-329
71,134,1123,1496,1388,-9,-319
72,141,1462,1479,500,-110,-149
73,-215,463,-65,115,-67,-247
74,-1,-183,-183,164,-213,-364
75,382,239,708,216,-257,-306
76,1306,245,1509,194,3,-345
77,340,66,958,93,436,-397
78,-675,363,1053,86,419,-165
79,-898,338,1524,1,22,167
80,-159,109,493,-39,-114,298
81,-54,-211,571,-18,-78,288
82,79,597,1472,11,5,187
83,-450,245,1193,-87,58,52
84,-19,-228,761,-66,-47,63
85,157,119,934,29,-59,42
86,219,64,1145,-50,26,12
87,-41,-131,869,-82,38,6
88,-17,-1,1142,-11,4,22
89,-121,-59,975,-24,0,-7
90,-75,-190,986,-22,9,-17
91,-53,-160,936,20,-16,-2
92,43,-115,1135,37,-16,-3
93,19,-176,911,60,-11,-14
94,47,-104,1082,93,-3,-10
95,-17,-110,970,101,3,-14
96,-79,-157,1073,127,12,-12
97,-59,-154,945,154,-10,-10
98,-1,-168,1080,185,-13,-20
99,37,-194,938,213,-13,-29
100,56,-164,1076,245,-6,-28
101,21,-144,963,272,2,-26
102,-50,-137,1070,298,12,-23
103,-93,-159,964,321,1,-22
104,-70,-167,1058,355,-12,-26
105,3,-169,965,383,-22,-32
106,51,-183,1048,416,-21,-37
107,83,-146,974,444,-12,-40
108,37,-133,1049,467,5,-38
109,-11,-125,992,491,13,-33
110,-101,-132,1042,519,9,-29
111,-70,-148,979,544,-6,-35
112,-47,-158,1020,578,-16,-47
113,47,-160,987,608,-22,-57
114,66,-146,1023,638,-13,-63
115,59,-109,1000,666,-1,-60
116,-22,-96,1029,689,6,-62
117,-74,-96,1002,715,3,-70
118,-91,-110,1009,746,-12,-92
119,-30,-123,998,782,-24,-119
120,22,-133,1000,818,-32,-146
121,85,-105,995,844,-25,-156
122,57,-80,998,864,-11,-153
123,11,-56,1011,878,-1,-136
124,-77,-48,989,892,-3,-124
125,-82,-44,1003,908,-12,-124
126,-63,-50,985,927,-26,-136
127,6,-56,993,947,-34,-152
128,52,-25,967,966,-31,-164
129,63,-1,1001,979,-19,-169
130,16,15,997,985,-10,-163
131,-52,22,998,990,-5,-156
132,-70,22,974,1001,-15,-161
133,-65,16,987,1016,-24,-180
134,-11,17,966,1028,-35,-207
135,38,42,977,1039,-36,-226
136,51,66,978,1040,-29,-226
137,14,81,994,1032,-19,-209
138,-45,93,976,1025,-13,-189
139,-73,105,980,1020,-17,-177
140,-65,92,974,1015,-29,-180
141,-17,90,963,1016,-37,-194
142,36,118,957,1014,-38,-206
143,45,134,980,1004,-31,-205
144,18,158,984,986,-22,-188
145,-33,167,979,967,-16,-166
146,-56,175,969,951,-19,-150
147,-60,171,970,935,-24,-149
148,-10,162,957,926,-32,-160
149,30,190,955,914,-34,-170
150,50,203,970,896,-29,-168
151,20,215,985,870,-19,-151
152,-29,224,974,841,-13,-123
153,-52,218,967,818,-13,-104
154,-57,208,966,794,-19,-100
155,-7,200,956,777,-27,-107
156,43,212,962,762,-28,-115
157,53,224,965,743,-19,-110
158,28,244,981,715,-8,-92
159,-24,255,975,685,-3,-71
160,-52,252,973,658,-5,-54
161,-57,236,962,631,-12,-50
162,-5,231,953,612,-19,-54
163,43,253,956,591,-18,-61
164,58,269,977,567,-12,-58
165,31,291,971,534,-1,-40
166,-15,301,978,497,7,-20
167,-49,300,967,466,8,-5
168,-59,285,964,438,3,-6
169,-4,279,955,413,-7,-17
170,44,288,954,388,-9,-21
171,55,290,968,358,1,-17
172,13,317,967,329,13,-5
173,-41,330,984,296,17,5
174,-65,320,969,264,8,7
175,-60,285,962,235,-2,1
176,5,274,939,209,-11,-9
177,51,282,966,186,-10,-12
178,58,297,972,157,0,-5
179,10,323,980,129,11,5
180,-38,334,971,96,16,12
181,-70,316,974,62,8,13
182,-56,293,949,34,-4,5
183,1,283,955,9,-13,-5
184,55,303,952,-17,-12,-9
185,59,320,981,-46,-1,-6
186,26,362,968,-83,11,4
187,-27,370,973,-121,16,13
188,-59,359,966,-162,13,17
189,-61,332,953,-199,3,12
190,2,323,944,-233,-6,5
191,41,327,955,-265,-4,2
192,60,336,969,-300,5,6
193,23,357,967,-338,16,16
194,-24,361,972,-378,21,27
195,-63,340,967,-416,16,33
196,-57,305,953,-448,6,28
197,-6,289,944,-476,-3,18
198,43,289,954,-503,-3,11
199,56,289,970,-533,4,11
200,29,310,973,-566,15,23
201,-20,313,980,-600,22,38
202,-59,290,972,-633,18,48
203,-59,258,948,-660,8,47
204,-8,240,948,-681,0,38
205,29,236,958,-700,0,27
206,53,239,971,-723,7,26
207,38,253,979,-748,18,35
208,-11,256,1010,-776,29,53
209,-38,228,963,-815,32,78
210,-12,174,950,-837,15,110
211,45,173,954,-865,30,146
212,58,196,961,-887,36,163
213,40,209,971,-917,46,176
214,18,220,979,-944,52,195
215,-23,203,990,-978,57,225
216,-56,195,972,-1003,57,259
217,-58,162,953,-1033,50,289
218,-11,155,944,-1057,41,307
219,22,148,952,-1071,38,315
220,54,156,969,-1091,42,320
221,36,179,984,-1110,54,330
222,-3,170,996,-1134,63,347
223,-50,149,969,-1161,63,372
224,-38,118,947,-1179,55,398
225,-6,115,938,-1197,48,415
226,19,121,955,-1211,47,421
227,27,145,962,-1225,53,418
228,8,159,977,-1246,61,422
229,-29,148,985,-1269,64,436
230,-54,127,973,-1295,61,460
231,-46,91,949,-1315,57,485
232,-16,84,936,-1330,51,500
233,8,78,948,-1343,50,504
234,23,88,961,-1352,52,504
235,0,109,975,-1367,57,503
236,-20,92,999,-1382,58,511
237,-36,72,1001,-1399,60,521
238,-1,53,994,-1406,65,522
239,35,43,990,-1405,75,507
240,58,35,996,-1398,87,481
241,72,45,995,-1390,97,451
242,54,55,1011,-1384,109,425
243,29,41,1027,-1384,123,409
244,9,20,1033,-1380,135,396
245,17,-10,1011,-1374,147,380
246,38,-23,987,-1358,157,354
247,41,-34,977,-1341,164,321
248,38,-27,979,-1326,169,290
249,-368,-320,1135,-1315,169,269
250,-1823,-1753,1711,-1035,-131,181
251,-332,-319,918,-522,-709,97
252,328,-196,657,-479,-676,26
253,323,-149,670,-461,-553,19
254,1628,-765,1685,-417,-268,134
255,695,-329,1131,-301,187,184
256,179,284,494,-286,339,119
257,-415,-519,1049,-338,309,-37
258,-713,-570,1475,-176,81,-199
259,-147,133,561,-142,-43,-264
260,67,-23,714,-175,-33,-301
261,-70,-228,830,-173,0,-246
262,-133,-427,1354,-140,15,-156
263,-162,-98,1065,-109,-19,-163
264,-3,123,784,-148,-24,-134
265,178,-130,1008,-183,-22,-111
266,24,-59,1221,-149,5,-65
267,48,126,1011,-186,0,-81
268,135,23,1038,-221,8,-88
269,28,96,935,-228,23,-59
270,3,69,1071,-248,18,-40
271,-68,57,1064,-266,9,-40
272,-136,117,1060,-293,4,-33
273,-65,122,1030,-335,-10,-40
274,-31,92,1092,-362,-15,-35
275,18,155,1025,-400,-15,-27
276,58,82,1091,-440,-9,-16
277,24,130,1045,-469,0,6
278,-29,103,1074,-507,2,20
279,-55,122,1041,-533,-3,17
280,-64,124,1066,-566,-5,11
281,-18,136,1043,-595,-11,-4
282,6,107,1050,-628,-8,-5
283,37,111,1023,-658,-7,-4
284,14,72,1053,-684,-3,8
285,-13,65,1044,-708,-6,17
286,-55,48,1039,-733,-7,20
287,-31,58,1022,-750,-12,12
288,-11,39,1029,-770,-9,7
289,27,21,1009,-789,-8,2
290,43,0,1002,-801,-4,6
291,17,-21,1003,-813,-1,19
292,-26,-55,1014,-822,-2,27
293,-68,-53,996,-824,-5,28
294,-51,-52,990,-829,-11,19
295,-29,-55,993,-833,-14,10
296,16,-66,978,-835,-13,2
297,39,-77,972,-838,-7,3
298,22,-104,975,-836,-1,8
299,-20,-131,988,-834,-1,16
300,-55,-126,977,-827,-6,20
301,-47,-117,973,-817,-15,15
302,-28,-116,970,-814,-20,4
303,19,-125,964,-807,-21,-3
304,44,-135,954,-803,-13,-4
305,31,-158,964,-793,-8,1
306,-9,-173,974,-783,-4,7
307,-58,-162,973,-773,-7,10
308,-51,-149,972,-762,-15,4
309,-37,-142,971,-754,-16,-6
310,10,-136,964,-748,-17,-14
311,44,-138,959,-744,-12,-16
312,37,-158,966,-736,-3,-9
313,-1,-182,982,-727,1,-1
314,-38,-175,979,-717,-1,3
315,-41,-160,979,-712,-7,1
316,-30,-154,969,-704,-10,-7
317,13,-155,962,-698,-8,-13
318,47,-162,956,-693,-2,-13
319,35,-194,957,-685,6,-5
320,2,-221,962,-671,8,4
321,-40,-230,967,-654,6,9
322,-50,-225,960,-641,-1,7
323,-42,-225,947,-623,-5,-2
324,4,-227,927,-604,-8,-7
325,34,-239,924,-589,-4,-9
326,31,-280,930,-567,5,-4
327,1,-307,941,-540,12,2
328,-41,-312,941,-511,10,5
329,-53,-300,939,-483,2,3
330,-42,-293,923,-456,-3,-7
331,0,-280,909,-428,-6,-14
332,34,-286,913,-402,-2,-18
333,30,-315,929,-375,6,-14
334,-1,-324,930,-342,10,-10
335,-41,-326,939,-311,8,-6
336,-54,-309,939,-282,-1,-8
337,-41,-301,932,-256,-6,-13
338,11,-285,913,-230,-7,-20
339,43,-293,915,-206,-2,-20
340,46,-323,923,-176,5,-13
341,10,-343,927,-145,10,-4
342,-28,-351,936,-112,8,0
343,-54,-336,938,-80,2,0
344,-48,-327,917,-46,-4,-8
345,5,-310,902,-9,-10,-18
346,32,-316,906,12,-1,-18
347,36,-349,921,45,7,-16
348,-6,-360,924,80,12,-11
349,-42,-359,927,117,8,-9
350,-62,-339,931,152,1,-11
351,-48,-321,918,183,-5,-18
352,5,-302,907,210,-5,-27
353,37,-299,913,243,-2,-31
354,37,-326,930,273,4,-28
355,0,-327,928,306,10,-21
356,-40,-328,938,335,10,-15
357,-61,-306,942,366,1,-19
358,-48,-283,934,393,-5,-27
359,6,-253,918,416,-5,-36
360,38,-255,925,438,0,-41
361,40,-278,938,465,9,-44
362,-1,-280,935,492,14,-43
363,-40,-284,938,527,13,-56
364,-54,-247,938,564,10,-76
365,-47,-231,928,591,12,-103
366,-14,-224,924,618,18,-131
367,8,-224,928,643,26,-151
368,6,-248,940,667,31,-159
369,-31,-241,937,693,34,-158
370,-59,-241,956,713,29,-156
371,-67,-223,967,731,19,-156
372,-46,-201,959,744,15,-157
373,15,-178,944,755,14,-160
374,54,-179,943,767,19,-161
375,54,-198,952,779,27,-156
376,9,-205,956,796,34,-147
377,-37,-209,968,812,33,-143
378,-66,-190,961,831,23,-146
379,-49,-168,943,847,18,-157
380,0,-155,932,860,18,-172
381,26,-165,939,877,24,-181
382,23,-185,944,896,30,-185
383,-2,-190,944,919,31,-191
384,-29,-195,946,942,28,-194
385,-51,-180,945,967,24,-201
386,-37,-169,931,989,20,-214
387,17,-150,928,1010,16,-228
388,50,-151,930,1030,23,-240
389,45,-181,941,1049,35,-243
390,-1,-184,946,1068,43,-239
391,-64,-197,953,1091,42,-234
392,-87,-174,934,1114,29,-234
393,-57,-162,921,1134,17,-239
394,12,-138,924,1156,12,-247
395,54,-147,934,1173,18,-253
396,47,-171,951,1192,31,-254
397,-11,-168,938,1214,39,-252
398,-64,-175,938,1235,35,-249
399,-91,-159,916,1262,24,-252
400,-59,-140,914,1286,10,-259
401,2,-125,919,1311,5,-272
402,33,-131,929,1333,10,-286
403,30,-151,928,1357,21,-294
404,-15,-146,915,1385,26,-298
405,-50,-149,916,1417,20,-302
406,-119,667,1244,1445,6,-306
407,199,1685,1838,802,-94,-162
408,-175,288,131,168,-74,-138
409,105,-146,15,288,-159,-241
410,65,-39,255,332,-242,-198
411,828,-313,778,383,-172,-123
412,984,453,1696,439,134,-161
413,136,223,957,296,512,-121
414,-1234,502,1492,213,319,66
415,-446,141,914,129,-71,323
416,-49,-324,327,143,-89,337
417,54,88,958,252,-56,259
418,-241,571,1467,192,32,114
419,-338,27,1152,83,35,-2
420,-81,-298,614,178,-60,49
421,154,135,1096,245,-49,66
422,136,82,1091,164,7,5
423,25,-240,971,165,10,-3
424,125,25,979,236,-17,3
425,53,-38,1141,230,12,-27
426,-104,-139,846,213,42,-17
427,-183,-71,1066,252,12,3
428,-138,-103,1006,266,-23,-7
429,-71,-114,990,280,-31,-16
430,76,-135,967,308,-40,-20
431,94,-81,1072,325,-25,-15
432,94,-41,965,333,0,-9
433,-1,-90,1064,353,11,-17
434,-54,-52,981,366,7,-11
435,-79,-109,1024,382,2,-18
436,-31,-129,967,403,-9,-29
437,-8,-104,1010,427,-16,-26
438,63,-100,999,444,-13,-30
439,7,-74,1016,462,-1,-28
440,2,-52,999,478,2,-17
441,-67,-76,1041,490,0,-19
442,-36,-96,987,510,-9,-21
443,-10,-122,993,535,-17,-30
444,60,-127,1009,560,-16,-38
445,53,-112,1005,583,-9,-39
446,43,-99,1008,603,3,-32
447,-41,-93,1014,627,7,-26
448,-89,-94,1019,646,4,-19
449,-87,-127,1000,672,-11,-28
450,-32,-142,997,705,-22,-36
451,25,-137,990,737,-28,-45
452,75,-122,1017,763,-21,-47
453,44,-94,994,790,-8,-40
454,-2,-72,1025,811,2,-29
455,-76,-66,1002,832,0,-25
456,-78,-74,1007,854,-10,-28
457,-48,-84,975,880,-22,-41
458,5,-85,991,910,-27,-58
459,45,-44,984,936,-26,-75
460,41,-19,1010,952,-16,-79
461,9,-4,993,964,-9,-71
462,-51,7,1006,975,-7,-60
463,-58,13,982,987,-12,-59
464,-47,8,979,1002,-21,-74
465,3,8,966,1020,-28,-95
466,48,35,987,1033,-30,-115
467,51,52,982,1040,-20,-119
468,11,64,990,1040,-9,-110
469,-48,76,980,1044,-9,-98
470,-61,77,989,1045,-17,-96
471,-48,63,965,1049,-26,-108
472,-3,52,966,1060,-32,-129
473,43,82,964,1069,-34,-146
474,50,101,988,1070,-26,-148
475,19,113,982,1065,-16,-137
476,-43,127,979,1057,-11,-119
477,-51,132,976,1051,-16,-108
478,-55,125,970,1049,-24,-115
479,-5,121,949,1048,-32,-134
480,34,157,959,1046,-33,-152
481,46,178,971,1038,-27,-153
482,16,196,977,1021,-19,-140
483,-37,211,971,1004,-13,-122
484,-54,221,966,986,-18,-109
485,-47,213,962,969,-26,-113
486,-6,206,943,956,-33,-128
487,41,237,946,941,-35,-142
488,55,256,962,921,-28,-139
489,25,270,980,892,-18,-122
490,-29,286,964,859,-10,-97
491,-49,289,964,830,-12,-78
492,-55,284,952,801,-18,-76
493,-3,273,945,775,-23,-86
494,43,296,941,751,-25,-95
495,48,319,959,721,-19,-90
496,19,336,974,682,-12,-71
497,-36,347,966,643,-4,-47
498,-49,351,955,605,-5,-30
499,-44,338,957,566,-9,-25
500,4,331,942,533,-15,-31
501,52,349,938,500,-12,-34
502,62,365,960,461,-4,-28
503,19,384,971,418,9,-9
504,-44,396,962,378,16,5
505,-71,398,960,336,10,8
506,-62,370,947,297,-4,-1
507,8,354,941,262,-15,-12
508,57,371,940,225,-11,-14
509,62,392,952,187,2,-5
510,17,416,974,142,14,6
511,-42,427,964,97,16,14
512,-56,412,954,53,7,13
513,-46,374,943,13,-4,2
514,19,359,938,-25,-13,-9
515,64,376,943,-61,-11,-10
516,64,387,961,-101,4,-4
517,18,412,967,-144,15,7
518,-40,418,967,-188,18,14
519,-65,403,955,-231,10,12
520,-54,366,946,-272,-1,6
521,3,344,939,-306,-11,-2
522,54,352,946,-342,-8,-1
523,55,357,960,-380,5,6
524,16,374,970,-417,16,18
525,-36,373,971,-457,20,26
526,-60,346,964,-494,13,27
527,-50,307,945,-523,2,21
528,5,282,946,-547,-4,12
529,51,282,958,-573,-1,9
530,57,277,969,-596,8,13
531,18,284,972,-620,20,21
532,-37,283,977,-644,24,31
533,-65,254,970,-667,17,32
534,-63,209,958,-678,5,24
535,-7,190,953,-687,-5,13
536,47,184,964,-696,-6,7
537,46,179,981,-705,6,8
538,12,184,977,-714,13,18
539,-27,187,993,-720,18,29
540,-65,164,985,-730,15,30
541,-65,120,964,-730,2,25
542,0,102,967,-722,-7,14
543,44,111,980,-717,-5,9
544,54,109,986,-716,6,11
545,27,123,990,-716,17,18
546,-28,130,985,-714,23,28
547,-67,107,1005,-723,25,33
548,-61,45,982,-703,6,29
549,0,45,977,-695,9,24
550,37,63,983,-677,5,12
551,43,65,988,-668,7,3
552,20,93,985,-665,12,2
553,-17,111,1006,-655,17,9
554,-50,110,1002,-658,16,14
555,-56,90,974,-656,10,10
556,0,90,963,-649,0,1
557,46,105,979,-649,-2,-5
558,58,120,991,-651,5,-2
559,19,146,986,-657,15,7
560,-29,162,990,-665,19,17
561,-64,152,991,-676,15,21
562,-57,122,974,-684,5,16
563,5,112,957,-688,-4,9
564,54,118,976,-692,-2,7
565,63,129,987,-700,12,13
566,25,152,988,-710,23,21
567,-30,158,990,-722,28,30
568,-64,137,987,-734,21,35
569,-61,99,973,-741,11,32
570,-3,87,967,-744,3,24
571,42,97,975,-745,6,16
572,64,94,993,-749,13,11
573,36,112,984,-754,22,13
574,-10,111,998,-760,25,17
575,-46,95,997,-766,22,17
576,-51,60,981,-768,14,10
577,2,47,966,-766,6,0
578,41,50,981,-762,9,-8
579,54,62,990,-763,16,-6
580,8,89,996,-766,25,0
581,-43,99,996,-773,27,5
582,-78,88,987,-778,20,5
583,-61,67,975,-783,9,-2
584,-1,60,967,-787,-1,-7
585,47,81,973,-792,3,-9
586,56,93,991,-799,13,-7
587,16,132,982,-814,23,2
588,-41,140,992,-830,27,10
589,-77,128,979,-848,20,11
590,-72,103,957,-865,10,9
591,-21,131,953,-880,0,5
592,28,139,980,-899,1,4
593,57,124,973,-923,8,15
594,33,143,976,-946,19,34
595,-2,147,988,-975,23,55
596,-24,115,977,-1013,23,84
597,-19,77,940,-1047,22,126
598,-9,97,945,-1077,25,164
599,-16,133,964,-1109,27,189
600,-22,145,960,-1146,25,212
601,-41,162,956,-1187,26,244
602,-65,163,961,-1231,24,284
603,-80,140,949,-1276,20,323
604,-59,111,934,-1321,13,358
605,-13,107,944,-1356,10,381
606,23,113,959,-1386,12,395
607,-303,-297,1144,-1411,14,398
608,-488,-1732,1917,-914,-159,200
609,602,-156,885,-355,-270,147
610,40,3,57,-454,-132,223
611,151,-196,346,-495,-181,266
612,1282,-583,1114,-356,-18,352
613,502,-510,1075,-198,266,241
614,-554,47,807,-181,314,252
615,-529,-752,1404,-227,73,48
616,-393,-143,935,-143,-7,26
617,-416,135,303,-171,-34,15
618,77,-505,1168,-152,-56,14
619,-295,-204,1173,-57,2,-11
620,-97,-53,987,-69,-14,-85
621,125,-203,767,-93,-29,-107
622,31,-171,967,-7,4,-40
623,109,-74,974,8,-13,-41
624,88,-142,1164,9,0,-24
625,14,8,897,8,14,-22
626,9,-11,997,1,12,-12
627,6,33,981,8,10,-14
628,-48,39,1074,-3,16,-6
629,-46,75,974,-26,2,-24
630,-91,43,1070,-36,2,-17
631,-87,95,1022,-57,-10,-24
632,-36,88,1076,-82,-15,-26
633,57,129,1021,-107,-15,-36
634,69,106,1071,-137,-2,-25
635,102,123,1045,-165,0,-16
636,46,111,1076,-197,11,9
637,-6,138,1055,-228,12,22
638,-68,130,1078,-260,10,25
639,-55,165,1046,-292,4,9
640,-45,158,1056,-328,2,1
641,1,156,1050,-358,-3,-6
642,21,137,1073,-396,-2,3
643,22,148,1050,-433,-3,12
644,1,128,1079,-466,-1,23
645,-22,132,1069,-497,1,21
646,-12,139,1063,-531,3,17
647,14,144,1048,-565,1,12
648,26,118,1047,-597,3,16
649,37,107,1044,-629,4,24
650,6,95,1038,-658,6,37
651,-32,75,1047,-683,4,43
652,-66,73,1045,-708,0,44
653,-36,85,1040,-732,-6,34
654,-2,91,1029,-755,-5,23
655,28,65,1021,-780,0,19
656,40,49,1024,-802,4,23
657,13,33,1021,-823,5,37
658,-16,6,1022,-841,2,47
659,-55,-2,1019,-854,-3,53
660,-26,7,1003,-867,-9,47
661,1,-6,1000,-878,-8,37
662,36,-24,988,-884,-4,31
663,41,-44,994,-893,0,34
664,27,-58,988,-899,0,43
665,-1,-91,991,-903,-5,58
666,-31,-85,988,-899,-10,71
667,-11,-84,983,-900,-16,76
668,27,-78,978,-896,-18,74
669,60,-86,972,-898,-14,77
670,64,-95,979,-899,-4,81
671,8,-120,985,-899,6,87
672,-44,-150,980,-897,3,92
673,-90,-155,962,-887,-8,98
674,-68,-139,954,-876,-24,100
675,-25,-135,955,-866,-31,96
676,22,-146,959,-856,-29,93
677,41,-144,964,-849,-20,89
678,10,-161,980,-844,-9,87
679,-42,-187,976,-841,-5,81
680,-90,-196,954,-829,-12,78
681,-71,-177,947,-807,-20,76
682,-36,-178,946,-800,-28,69
683,20,-180,947,-785,-28,69
684,39,-178,955,-774,-17,69
685,15,-198,967,-770,-6,66
686,-36,-228,972,-755,-4,60
687,-86,-233,952,-740,-5,52
688,-71,-220,936,-723,-14,44
689,-43,-222,942,-705,-16,41
690,-7,-222,938,-690,-15,35
691,22,-222,941,-675,-8,28
692,7,-251,952,-660,-3,20
693,-39,-272,958,-644,3,15
694,-82,-267,940,-621,0,10
695,-71,-258,938,-600,-7,1
696,-45,-255,938,-578,-13,-11
697,9,-267,933,-557,-12,-20
698,47,-275,921,-534,-6,-22
699,39,-307,930,-510,1,-13
700,1,-337,938,-485,2,-4
701,-40,-340,932,-452,1,0
702,-38,-331,924,-420,-3,-2
703,-37,-334,912,-390,-8,-13
704,1,-349,897,-355,-6,-23
705,21,-363,886,-318,-2,-25
706,7,-398,895,-279,1,-19
707,-26,-431,910,-236,0,-11
708,-58,-427,899,-191,-5,-6
709,-46,-420,890,-143,-12,-13
710,-25,-415,885,-96,-14,-22
711,19,-420,879,-49,-10,-33
712,51,-422,874,-1,-5,-35
713,36,-453,886,50,3,-26
714,4,-460,894,99,4,-15
715,-38,-446,895,155,-2,-9
716,-36,-421,892,204,-8,-12
717,-31,-404,895,253,-8,-25
718,15,-386,880,296,-4,-35
719,40,-384,886,337,1,-37
720,26,-398,893,381,8,-30
721,-7,-402,909,423,8,-21
722,-43,-383,908,466,3,-16
723,-47,-352,914,506,-4,-19
724,-33,-339,910,541,-6,-30
725,15,-320,902,577,-3,-40
726,41,-310,905,608,5,-43
727,24,-325,918,638,12,-38
728,-16,-327,926,672,12,-30
729,-51,-304,931,705,6,-23
730,-59,-266,939,730,-3,-24
731,-44,-236,936,753,-6,-34
732,5,-212,933,770,-3,-48
733,31,-205,938,785,6,-57
734,18,-222,951,801,10,-55
735,-15,-221,952,818,8,-43
736,-48,-210,962,835,3,-31
737,-51,-179,965,848,-7,-29
738,-35,-163,965,857,-8,-40
739,19,-146,947,864,-6,-53
740,39,-146,961,867,5,-60
741,26,-171,964,875,13,-58
742,-12,-183,965,887,13,-46
743,-40,-170,965,900,7,-33
744,-46,-147,977,908,-1,-27
745,-20,-126,972,912,-3,-35
746,35,-106,964,914,2,-46
747,52,-103,969,913,15,-56
748,38,-135,980,914,27,-59
749,-7,-151,966,921,31,-53
750,-50,-144,963,932,22,-41
751,-60,-122,968,942,10,-30
752,-36,-95,974,947,0,-32
753,25,-67,971,946,-1,-45
754,60,-77,987,941,12,-64
755,44,-114,986,938,26,-76
756,-10,-144,958,948,33,-72
757,-57,-143,939,965,24,-50
758,-69,-121,954,983,5,-27
759,-37,-95,966,993,-8,-20
760,29,-72,971,996,-7,-31
761,55,-81,975,1002,7,-46
762,41,-108,976,1006,20,-50
763,-6,-129,957,1014,21,-42
764,-47,-134,952,1030,17,-25
765,-64,-107,952,1047,8,-18
766,-36,-99,951,1060,1,-33
767,10,-90,940,1075,8,-50
768,11,-108,934,1094,15,-72
769,2,-130,934,1116,19,-88
770,-35,-141,917,1144,21,-98
771,-87,-144,916,1175,17,-107
772,-109,-124,922,1208,9,-124
773,-82,-127,933,1233,4,-150
774,88,460,1204,1270,6,-176
775,19,1844,1891,795,-40,-135
776,-267,671,358,137,-84,-222
777,-50,55,-14,67,-163,-389
778,62,54,393,46,-267,-379
779,1020,168,1366,41,-102,-387
780,467,250,1081,-7,227,-505
781,256,-123,705,-51,358,-401
782,-578,292,1427,-56,261,-181
783,-547,139,1297,-72,-5,152
784,-167,-139,400,-83,-94,322
785,78,17,972,-45,-52,306
786,-210,280,1246,-37,43,226
787,-305,130,1229,-66,15,218
788,-78,-126,721,-4,-72,225
789,120,104,1032,51,-37,160
790,138,107,1071,28,7,61
791,50,-98,1053,23,-4,69
792,93,39,897,49,-12,94
793,-44,-54,1117,43,20,66
794,-124,-68,885,34,14,61
795,-37,-99,1057,48,-14,67
796,-1,-116,970,76,-16,47
797,-16,-36,1037,93,-9,41
798,54,-84,980,102,-12,32
799,-22,-76,1069,121,-1,27
800,-32,-74,951,134,-1,34
801,-37,-139,1062,156,-7,22
802,6,-123,963,180,-13,14
803,40,-135,1038,206,-10,9
804,62,-140,989,227,-4,5
805,-17,-105,1008,248,7,11
806,-43,-118,1019,261,6,9
807,-110,-151,1034,284,-5,4
808,-44,-189,984,316,-17,9
809,11,-195,1038,352,-22,12
810,39,-201,1005,386,-15,26
811,29,-188,1011,423,-6,37
812,1,-163,1020,453,0,40
813,-64,-180,1023,482,0,41
814,-78,-216,1022,516,-7,40
815,-62,-252,1020,563,-19,43
816,5,-257,1016,614,-24,59
817,35,-248,1021,665,-20,74
818,41,-216,1013,709,-13,86
819,-3,-176,998,745,-3,89
820,-34,-176,1036,776,-3,79
821,-80,-204,1013,808,-10,68
822,-38,-231,1014,854,-21,61
823,15,-228,1006,902,-29,59
824,54,-211,1012,948,-24,63
825,64,-175,989,986,-14,64
826,30,-135,1005,1017,-3,56
827,-16,-131,1004,1043,3,42
828,-66,-155,1020,1070,-3,22
829,-47,-180,998,1106,-17,2
830,5,-186,1003,1151,-27,-11
831,58,-180,988,1192,-28,-22
832,72,-159,985,1228,-18,-30
833,50,-117,977,1259,-4,-40
834,1,-103,1017,1290,4,-49
835,-60,-100,1008,1321,1,-50
836,-63,-96,989,1353,-12,-54
837,-28,-81,963,1384,-23,-63
838,12,-62,959,1410,-27,-72
839,48,-17,963,1427,-23,-78
840,36,33,968,1441,-12,-75
841,-2,69,981,1449,-5,-65
842,-65,91,981,1453,-6,-57
843,-66,102,967,1451,-14,-55
844,-37,112,942,1452,-23,-59
845,9,113,935,1449,-27,-68
846,44,153,938,1440,-23,-74
847,43,190,950,1424,-12,-69
848,-1,212,959,1403,-5,-58
849,-55,206,967,1384,-5,-46
850,-53,203,955,1371,-10,-35
851,-30,218,940,1357,-19,-36
852,11,220,928,1342,-21,-47
853,53,251,934,1316,-14,-57
854,55,275,948,1289,-6,-53
855,13,276,956,1259,0,-43
856,-50,274,953,1234,0,-35
857,-52,276,963,1218,-7,-33
858,-32,273,944,1193,-15,-35
859,12,250,926,1172,-19,-42
860,47,272,921,1150,-14,-46
861,36,312,951,1120,-5,-44
862,7,309,961,1086,0,-42
863,-49,297,964,1063,0,-40
864,-42,299,957,1044,-6,-37
865,-25,298,951,1022,-13,-38
866,13,291,926,998,-20,-45
867,39,311,927,969,-17,-56
868,39,334,944,937,-8,-65
869,2,334,971,909,-4,-70
870,-43,336,964,883,-4,-62
871,-49,329,959,862,-9,-54
872,-32,331,941,837,-17,-54
873,-3,324,928,808,-21,-61
874,34,357,924,778,-20,-68
875,28,380,953,740,-15,-76
876,0,386,961,703,-10,-77
877,-57,397,956,672,-9,-69
878,-50,407,956,640,-18,-60
879,-46,461,986,606,-26,-54
880,-19,638,1075,539,-37,-59
881,-45,631,919,440,-43,-93
882,-37,575,812,355,-48,-160
883,-34,616,897,272,-56,-218
884,-46,630,967,177,-59,-248
885,-76,531,905,84,-63,-261
886,-56,452,873,26,-79,-266
887,4,454,900,-17,-92,-271
888,74,483,940,-67,-92,-276
889,100,468,928,-115,-77,-282
890,96,437,930,-158,-56,-280
891,48,412,919,-191,-40,-258
892,43,379,953,-212,-34,-217
893,33,345,963,-217,-33,-174
894,65,337,954,-211,-31,-135
895,109,370,937,-221,-16,-94
896,79,365,935,-252,17,-51
897,-14,391,948,-287,37,-4
898,-119,399,963,-322,35,27
899,-129,452,1029,-351,8,28
900,-94,414,998,-396,-11,3
901,-13,313,897,-432,-17,-25
902,73,313,881,-453,-17,-24
903,111,360,967,-477,-3,-2
904,56,386,1008,-518,21,17
905,-36,378,972,-552,34,26
906,-61,344,950,-575,21,21
907,-46,299,945,-595,6,7
908,14,262,942,-618,0,-2
909,46,255,937,-635,4,-2
910,39,264,964,-646,11,4
911,2,280,986,-661,17,12
912,-45,269,982,-680,18,14
913,-53,241,960,-690,10,10
914,-41,204,957,-698,-2,2
915,14,184,955,-702,-7,-8
916,64,197,962,-705,-2,-14
917,60,196,974,-711,10,-9
918,16,205,988,-717,23,3
919,-50,208,983,-725,27,11
920,-81,185,978,-730,21,12
921,-80,138,968,-729,5,4
922,14,102,972,-720,-5,6
923,40,123,968,-711,7,17
924,24,123,979,-709,13,26
925,16,123,992,-701,16,18
926,-16,116,1007,-693,18,8
927,-30,100,983,-684,14,6
928,-28,80,978,-668,6,-3
929,14,92,970,-653,0,-14
930,54,123,976,-648,6,-22
931,51,136,985,-642,14,-18
932,-3,167,992,-641,23,-4
933,-63,190,992,-645,27,9
934,-93,179,979,-654,17,9
935,-75,145,962,-658,0,0
936,1,132,957,-656,-12,-11
937,69,143,973,-658,-10,-14
938,79,152,982,-664,4,-7
939,36,184,990,-669,18,5
940,-27,193,990,-680,25,11
941,-62,180,983,-687,18,11
942,-64,144,969,-694,7,2
943,5,123,969,-698,2,-9
944,33,158,964,-701,3,-13
945,58,125,979,-708,12,-5
946,14,153,988,-711,25,16
947,-48,177,999,-724,34,26
948,-90,141,987,-726,23,20
949,-69,105,964,-731,7,7
950,11,90,971,-725,-5,-5
951,70,97,972,-724,-1,-6
952,68,106,995,-728,12,1
953,13,136,987,-729,26,10
954,-45,147,997,-736,28,16
955,-78,125,987,-742,17,15
956,-72,94,968,-741,4,5
957,-3,87,960,-743,-7,-4
958,47,100,978,-744,-5,-6
959,62,119,994,-746,6,0
960,20,150,993,-755,17,7
961,-29,153,990,-765,23,16
962,-62,134,991,-777,17,18
963,-52,96,969,-785,7,10
964,11,88,958,-785,-2,3
965,53,96,975,-786,2,-1
966,60,117,989,-792,13,3
967,17,145,992,-802,23,9
968,-37,156,982,-817,27,15
969,-79,162,983,-829,21,17
970,-67,131,961,-846,7,13
971,7,106,958,-857,-1,6
972,67,99,969,-866,2,4
973,74,105,990,-873,15,9
974,27,138,983,-884,27,17
975,-38,137,991,-900,31,22
976,-77,116,982,-913,23,21
977,-74,83,966,-921,10,15
978,-10,72,958,-929,1,8
979,34,75,972,-935,3,7
980,47,74,990,-943,12,13
981,9,101,988,-955,20,22
982,-40,94,988,-964,23,26
983,-70,66,980,-975,17,27
984,-54,32,969,-977,6,21
985,11,26,969,-976,-2,13
986,54,34,983,-979,2,9
987,58,43,990,-981,13,9
988,12,70,993,-990,23,15
989,-44,58,989,-997,25,19
990,-79,28,982,-1003,17,20
991,-60,9,965,-1005,5,14
992,9,3,977,-1003,-2,4
993,57,14,985,-1004,4,1
994,61,23,994,-1008,14,4
995,12,54,981,-1015,25,12
996,-58,65,984,-1028,27,17
997,-81,43,973,-1039,17,17
998,-57,25,965,-1048,7,15
999,23,28,967,-1053,0,8
1000,63,36,984,-1062,6,4
1001,-36,-148,1074,-1071,16,5
1002,-395,-1737,1889,-821,-43,-12
1003,-77,-522,973,-334,-162,13
1004,25,-200,206,-254,-137,-38
1005,55,-171,223,-198,-172,-85
1006,1050,-491,1157,-118,-59,8
1007,542,-454,985,-26,214,37
1008,-665,-157,1018,27,294,-18
1009,-587,-359,977,54,73,-288
1010,-314,-223,955,131,-25,-418
1011,-163,122,421,156,-48,-442
1012,117,-367,1294,158,-22,-433
1013,-186,-206,1130,197,23,-426
1014,-175,-9,956,191,10,-433
1015,247,94,938,160,-25,-449
1016,325,241,1609,67,13,-306
1017,41,108,901,-100,21,-98
1018,-61,3,1029,-102,1,-44
1019,-72,92,937,-100,-4,-74
1020,-14,21,1174,-112,13,-126
1021,-60,117,944,-122,19,-180
1022,-83,84,990,-135,14,-199
1023,-27,84,969,-145,0,-204
1024,-101,17,1142,-154,-1,-187
1025,-59,154,1008,-185,-11,-183
1026,-19,36,1110,-228,-12,-171
1027,57,150,997,-254,-17,-151
1028,109,100,1109,-294,-9,-130
1029,133,118,1047,-326,-2,-108
1030,54,121,1098,-363,11,-76
1031,26,150,1053,-401,9,-48
1032,-56,156,1113,-442,6,-24
1033,-24,225,1056,-489,-3,-16
1034,-2,194,1101,-538,-4,-14
1035,37,248,1067,-583,-2,-17
1036,38,197,1100,-636,2,-11
1037,24,208,1065,-679,3,-1
1038,-27,185,1095,-723,4,17
1039,-41,203,1071,-765,-2,18
1040,-32,187,1076,-812,-3,15
1041,20,203,1058,-852,-5,4
1042,33,168,1067,-899,1,6
1043,39,154,1050,-936,1,15
1044,2,128,1057,-975,5,28
1045,-31,115,1057,-1009,2,37
1046,-66,102,1050,-1041,-3,35
1047,-40,103,1026,-1071,-6,25
1048,-7,99,1022,-1099,-7,13
1049,22,75,1021,-1128,-4,10
1050,33,48,1018,-1153,-3,17
1051,8,37,1006,-1176,-4,29
1052,-37,9,1023,-1193,-8,36
1053,-69,12,1015,-1210,-14,35
1054,-49,11,1005,-1226,-17,22
1055,-8,20,990,-1242,-19,10
1056,16,-5,992,-1259,-16,4
1057,30,-22,988,-1273,-12,5
1058,4,-39,988,-1286,-10,16
1059,-29,-54,997,-1295,-13,24
1060,-59,-59,1003,-1306,-15,25
1061,-33,-49,985,-1314,-18,18
1062,5,-44,980,-1323,-17,7
1063,27,-52,969,-1336,-12,1
1064,39,-75,971,-1345,-7,4
1065,9,-86,970,-1350,-3,15
1066,-34,-103,993,-1357,-4,25
1067,-65,-97,994,-1362,-12,27
1068,-43,-81,983,-1373,-17,20
1069,-8,-69,963,-1380,-17,8
1070,24,-91,965,-1389,-12,3
1071,42,-104,965,-1399,-7,2
1072,12,-126,963,-1405,0,13
1073,-18,-154,977,-1407,-2,23
1074,-55,-156,978,-1408,-8,27
1075,-32,-151,958,-1409,-16,23
1076,8,-146,947,-1412,-17,15
1077,38,-169,936,-1412,-9,9
1078,57,-197,936,-1411,0,8
1079,31,-223,932,-1403,8,15
1080,-18,-262,942,-1393,9,25
1081,-63,-274,946,-1378,3,28
1082,-49,-268,926,-1365,-5,24
1083,-16,-270,906,-1348,-8,15
1084,14,-293,890,-1332,-2,5
1085,39,-320,890,-1311,5,-1
1086,18,-350,898,-1285,13,3
1087,-25,-382,907,-1256,14,8
1088,-67,-392,910,-1225,7,12
1089,-49,-379,898,-1194,-2,9
1090,-12,-373,880,-1164,-6,0
1091,23,-384,865,-1132,-1,-8
1092,50,-396,867,-1099,8,-12
1093,30,-423,885,-1065,17,-7
1094,-13,-444,898,-1028,19,1
1095,-59,-437,898,-991,15,6
1096,-41,-414,894,-958,5,5
1097,-10,-397,880,-926,0,-2
1098,25,-404,871,-896,3,-6
1099,55,-414,871,-865,13,-8
1100,35,-437,888,-831,20,-1
1101,-11,-467,905,-795,22,7
1102,-69,-467,900,-758,16,12
1103,-53,-449,889,-723,7,13
1104,-28,-447,873,-685,2,5
1105,8,-452,853,-650,2,-3
1106,33,-479,851,-610,11,-5
1107,12,-510,863,-567,16,-2
1108,-31,-541,879,-522,16,2
1109,-72,-546,874,-470,10,4
1110,-56,-536,862,-420,1,-2
1111,-30,-536,849,-371,-4,-12
1112,13,-543,827,-319,-1,-19
1113,45,-581,838,-267,5,-21
1114,36,-669,885,-200,12,-16
1115,-10,-631,833,-128,17,-16
1116,-43,-604,755,-65,18,-24
1117,-48,-610,779,4,17,-35
1118,-49,-623,831,73,14,-47
1119,-33,-595,829,142,7,-62
1120,-1,-565,811,200,3,-65
1121,-5,-601,862,254,4,-55
1122,-55,-590,884,313,2,-43
1123,-71,-558,865,367,-7,-44
1124,-32,-522,853,420,-14,-53
1125,-3,-482,856,469,-12,-64
1126,43,-481,868,511,-4,-75
1127,73,-476,873,552,6,-79
1128,49,-488,884,598,19,-77
1129,-8,-480,884,646,26,-78
1130,-56,-465,875,693,25,-88
1131,-65,-431,884,740,21,-107
1132,-58,-412,889,777,22,-132
1133,-15,-405,880,810,24,-151
1134,17,-392,873,845,29,-159
1135,7,-409,893,875,35,-158
1136,-29,-411,916,908,35,-150
1137,-66,-387,917,936,30,-144
1138,-49,-348,915,958,19,-144
1139,-30,-326,916,977,16,-150
1140,18,-300,902,993,20,-156
1141,52,-304,909,1009,28,-162
1142,31,-322,926,1027,35,-156
1143,-19,-324,931,1049,36,-148
1144,-56,-312,935,1065,29,-142
1145,-66,-286,933,1080,19,-141
1146,-50,-272,929,1092,15,-147
1147,2,-265,919,1098,14,-153
1148,40,-264,925,1109,19,-150
1149,36,-287,937,1119,27,-139
1150,0,-302,942,1133,28,-123
1151,-36,-288,941,1146,24,-107
1152,-40,-271,941,1157,15,-99
1153,-35,-255,932,1165,10,-96
1154,22,-238,912,1174,10,-94
1155,48,-247,928,1181,15,-90
1156,37,-268,931,1194,22,-79
1157,0,-279,938,1207,24,-62
1158,-39,-270,933,1223,16,-45
1159,-52,-253,946,1234,4,-35
1160,-34,-238,930,1244,-4,-32
1161,22,-220,917,1258,-7,-35
1162,62,-212,914,1267,3,-42
1163,52,-247,936,1283,15,-44
1164,4,-267,914,1303,24,-39
1165,-46,-270,923,1330,20,-30
1166,-70,-238,930,1353,6,-24
1167,-60,-225,921,1367,-3,-27
1168,8,-201,909,1386,-4,-39
1169,36,-203,915,1401,5,-50
1170,35,-226,918,1420,18,-60
1171,-6,-251,909,1447,26,-63
1172,-45,-254,909,1477,25,-58
1173,-76,-227,916,1510,16,-62
1174,-55,-204,909,1533,12,-74
1175,0,-193,902,1554,12,-91
1176,19,-203,894,1580,20,-106
1177,15,-223,893,1609,28,-113
1178,-17,-235,888,1641,31,-114
1179,-56,-235,895,1676,26,-113
1180,-64,-221,915,1706,17,-117
1181,-45,-205,893,1732,13,-127
1182,11,-181,876,1759,14,-138
1183,36,-196,881,1787,21,-145
1184,19,-211,890,1818,28,-145
1185,-15,-204,878,1856,29,-142
1186,-45,-196,892,1888,24,-138
1187,-61,-171,899,1917,18,-141
1188,-53,-157,894,1943,14,-150
1189,-3,-128,880,1968,10,-163
1190,13,-130,881,1996,14,-172
1191,41,424,1108,2054,19,-175
1192,-58,1855,1904,1331,-66,-108
1193,-540,657,-140,376,-130,-89
1194,-66,-129,-227,282,-283,-149
1195,-188,-75,-36,308,-455,-72
1196,742,-586,543,362,-409,82
1197,923,402,1584,416,-165,38
1198,766,273,1058,394,314,-63
1199,302,188,489,305,504,-141
1200,158,77,1239,329,519,-104
1201,-1166,723,1735,311,356,146
1202,-709,92,1220,200,-51,480
1203,-345,-580,18,266,-186,606
1204,270,8,845,339,-165,643
1205,267,332,1595,407,66,390
1206,-643,204,1325,378,129,241
1207,-50,-124,532,386,-76,319
1208,87,-214,1155,512,-61,239
1209,-124,165,971,547,19,139
1210,-10,-153,1086,500,-33,123
1211,171,-257,991,574,-67,93
1212,76,-120,997,649,-12,97
1213,120,-99,1005,663,15,95
1214,-108,-135,1075,683,6,87
1215,-64,-177,902,708,-10,92
1216,-56,-186,1112,756,-19,61
1217,-46,-224,968,800,-29,53
1218,36,-206,997,847,-37,60
1219,124,-194,1053,898,-30,50
1220,11,-175,958,931,-9,66
1221,41,-129,1003,963,-1,71
1222,-84,-155,1061,995,-3,49
1223,-60,-154,968,1022,-15,46
1224,-6,-174,1013,1066,-27,24
1225,38,-188,1008,1107,-29,14
1226,48,-126,945,1135,-21,20
1227,52,-118,1022,1163,-8,3
1228,-44,-87,986,1183,-3,-12
1229,-57,-112,1015,1206,-9,-27
1230,-57,-143,1004,1245,-23,-48
1231,-12,-115,989,1282,-36,-46
1232,43,-127,962,1315,-37,-52
1233,62,-92,991,1345,-26,-59
1234,42,-35,945,1366,-12,-53
1235,5,-28,1013,1388,-4,-51
1236,-72,10,985,1408,-5,-43
1237,-71,18,985,1425,-18,-41
1238,-36,27,953,1440,-32,-54
1239,9,34,953,1449,-35,-63
1240,70,74,934,1450,-28,-68
1241,56,102,970,1452,-15,-68
1242,25,136,953,1452,-6,-57
1243,-35,157,993,1450,-3,-46
1244,-45,171,961,1445,-9,-42
1245,-39,166,945,1437,-14,-43
1246,14,156,921,1429,-22,-54
1247,42,184,946,1419,-17,-58
1248,48,217,940,1400,-5,-51
1249,1,216,968,1388,5,-40
1250,-51,240,956,1371,5,-26
1251,-61,238,969,1355,-5,-24
1252,-38,214,934,1338,-16,-35
1253,4,190,924,1328,-20,-46
1254,62,212,927,1318,-17,-51
1255,49,241,956,1302,-3,-43
1256,15,258,965,1281,7,-29
1257,-64,264,962,1266,10,-20
1258,-58,266,951,1250,0,-21
1259,-40,237,941,1234,-14,-33
1260,22,215,927,1223,-21,-45
1261,64,237,928,1215,-16,-48
1262,66,256,959,1201,-3,-43
1263,17,275,961,1185,9,-32
1264,-41,278,961,1170,12,-23
1265,-58,280,950,1155,4,-25
1266,-43,252,943,1140,-8,-35
1267,-2,235,912,1135,-16,-51
1268,35,309,956,1129,-17,-63
1269,17,728,1300,1087,-16,-62
1270,-124,760,1096,955,-29,-72
1271,-238,508,804,865,-70,-139
1272,-214,487,887,846,-140,-211
1273,-134,465,1031,807,-193,-245
1274,-113,352,935,759,-220,-248
1275,-66,284,822,735,-237,-232
1276,68,425,949,715,-243,-217
1277,187,523,1069,649,-211,-199
1278,162,379,870,580,-158,-174
1279,202,330,848,565,-120,-158
1280,246,427,955,553,-76,-146
1281,243,438,952,514,-24,-128
1282,176,408,854,475,21,-121
1283,123,442,869,442,53,-108
1284,72,531,936,392,75,-89
1285,-29,518,914,319,83,-54
1286,-103,503,872,249,67,-5
1287,-122,498,895,185,35,33
1288,-98,510,899,122,-1,54
1289,-48,546,887,57,-30,68
1290,4,538,886,-11,-42,59
1291,27,525,876,-75,-35,50
1292,33,524,873,-132,-17,48
1293,43,530,906,-183,2,41
1294,22,509,891,-232,19,38
1295,32,499,886,-273,24,36
1296,44,541,887,-315,25,28
1297,37,537,881,-370,29,25
1298,5,530,877,-432,31,37
1299,-20,531,879,-496,32,63
1300,-35,536,905,-563,29,93
1301,-58,500,889,-625,22,119
1302,-34,480,868,-681,8,137
1303,27,524,901,-730,-2,139
1304,44,500,887,-790,6,132
1305,47,480,863,-845,23,126
1306,94,491,954,-894,45,125
1307,144,438,1021,-918,90,98
1308,166,354,1006,-893,147,43
1309,276,369,1041,-878,183,11
1310,305,212,902,-889,240,-4
1311,108,346,1077,-889,284,20
1312,-421,464,1246,-941,240,61
1313,-661,367,1122,-973,114,40
1314,-592,139,801,-959,14,-40
1315,-399,45,738,-936,-56,-65
1316,-116,157,898,-945,-95,-25
1317,91,262,1083,-975,-89,14
1318,174,307,1055,-989,-59,27
1319,247,324,987,-997,-36,28
1320,257,288,950,-1008,-5,24
1321,181,246,927,-1029,38,28
1322,22,223,922,-1049,66,30
1323,-56,236,969,-1056,57,24
1324,-100,259,964,-1068,44,8
1325,-122,223,952,-1085,29,-6
1326,-115,223,919,-1095,15,0
1327,-94,244,950,-1109,2,19
1328,-70,251,980,-1127,-7,34
1329,-29,236,975,-1146,-13,35
1330,79,210,951,-1157,-16,29
1331,139,193,947,-1163,-4,26
1332,148,204,944,-1172,19,35
1333,85,233,949,-1189,45,43
1334,-9,256,972,-1211,58,44
1335,-80,218,1011,-1233,55,41
1336,-135,209,940,-1249,33,26
1337,-53,121,921,-1254,12,15
1338,19,114,933,-1249,5,22
1339,55,151,971,-1258,17,32
1340,30,167,969,-1261,34,37
1341,-8,165,979,-1279,33,42
1342,-33,134,983,-1279,28,42
1343,-19,84,964,-1276,24,40
1344,27,72,952,-1269,21,44
1345,49,81,966,-1257,24,54
1346,49,101,963,-1261,33,62
1347,9,119,964,-1268,44,62
1348,-46,125,986,-1277,44,54
1349,-90,102,979,-1288,34,44
1350,-71,64,957,-1287,18,30
1351,-14,60,952,-1282,5,18
1352,38,76,964,-1284,5,14
1353,62,97,960,-1287,15,13
1354,25,121,957,-1299,27,11
1355,-23,130,982,-1308,33,14
1356,-76,123,987,-1322,29,19
1357,-72,97,948,-1331,17,19
1358,-15,84,944,-1339,6,12
1359,24,80,949,-1348,7,9
1360,52,102,962,-1355,15,12
1361,25,119,965,-1371,26,20
1362,-24,127,982,-1388,31,29
1363,-60,115,963,-1411,26,41
1364,-44,78,947,-1430,19,50
1365,-6,80,938,-1440,14,52
1366,25,82,963,-1454,17,50
1367,43,90,959,-1469,23,48
1368,17,110,958,-1485,31,53
1369,-28,104,963,-1508,34,66
1370,-75,85,958,-1531,30,78
1371,-61,62,936,-1550,20,85
1372,-8,54,946,-1566,13,84
1373,25,55,959,-1575,12,78
1374,53,70,956,-1594,17,78
1375,-488,-1528,1761,-1391,11,53
1376,-279,-639,1222,-641,-226,39
1377,-257,-58,182,-596,-233,26
1378,-175,21,76,-651,-388,-61
1379,1094,-683,1396,-601,-286,123
1380,718,-313,950,-487,51,178
1381,-261,156,696,-490,181,147
1382,553,73,598,-551,136,41
1383,658,-468,1686,-561,294,-38
1384,-891,-197,828,-510,382,-77
1385,-836,-352,1135,-448,91,-192
1386,-360,212,640,-381,-77,-209
1387,-224,100,924,-448,-75,-205
1388,243,-114,1184,-507,-19,-157
1389,-245,-321,1337,-482,14,-149
1390,-1,384,701,-488,-42,-134
1391,246,-137,1142,-585,-33,-116
1392,125,-33,1067,-544,28,-82
1393,-28,121,994,-573,18,-51
1394,243,-13,1066,-597,-12,-37
1395,-7,101,1029,-618,20,18
1396,25,104,980,-654,17,25
1397,-36,-62,1103,-673,10,21
1398,-162,105,991,-675,10,38
1399,-83,-11,1021,-715,-17,16
1400,-15,21,1006,-714,-19,12
1401,4,2,985,-725,-15,0
1402,93,-38,997,-740,-12,0
1403,56,-68,1005,-740,-3,10
1404,25,-59,996,-740,2,29
1405,-17,-67,1002,-748,-1,31
1406,-21,-44,1002,-749,1,32
1407,-19,-24,990,-755,-1,18
1408,10,-26,994,-763,3,14
1409,9,-29,985,-770,5,11
1410,-1,-26,1012,-779,8,21
1411,-38,-49,1018,-789,2,24
1412,-71,-33,1018,-798,-2,28
1413,-45,-16,1006,-810,-11,20
1414,-3,-14,1015,-822,-10,15
1415,32,-17,995,-836,-7,7
1416,60,-25,997,-849,1,10
1417,29,-43,1002,-860,7,18
1418,-18,-64,1016,-870,7,31
1419,-68,-60,1005,-879,0,35
1420,-55,-38,1006,-888,-7,32
1421,-25,-37,997,-899,-11,22
1422,9,-46,990,-909,-11,15
1423,36,-47,975,-918,-8,11
1424,23,-80,997,-928,-3,17
1425,-19,-100,1001,-935,-1,27
1426,-60,-97,996,-939,-8,35
1427,-36,-85,990,-944,-19,32
1428,-12,-75,993,-951,-23,27
1429,26,-78,977,-959,-18,20
1430,57,-81,977,-967,-6,17
1431,32,-108,988,-974,3,24
1432,-16,-129,1001,-979,4,32
1433,-66,-114,986,-984,-2,38
1434,-53,-106,986,-988,-12,37
1435,-37,-97,986,-994,-16,33
1436,12,-97,972,-1002,-17,27
1437,54,-104,963,-1011,-9,22
1438,35,-138,978,-1015,2,28
1439,-7,-169,987,-1016,5,33
1440,-55,-172,980,-1018,0,39
1441,-54,-162,964,-1016,-11,40
1442,-40,-169,962,-1015,-18,37
1443,11,-185,938,-1009,-18,37
1444,41,-185,933,-998,-14,46
1445,33,-204,945,-990,-12,59
1446,-9,-232,977,-986,-9,70
1447,-53,-243,966,-979,-11,73
1448,-55,-231,945,-965,-19,74
1449,-41,-227,936,-954,-28,75
1450,5,-228,934,-943,-33,81
1451,44,-230,936,-933,-31,86
1452,35,-265,951,-923,-21,94
1453,-3,-278,951,-910,-16,100
1454,-46,-298,948,-895,-17,103
1455,-57,-290,933,-876,-24,103
1456,-51,-299,924,-856,-34,104
1457,-2,-292,908,-834,-39,109
1458,37,-301,909,-817,-38,119
1459,36,-329,920,-795,-33,130
1460,0,-356,933,-772,-27,135
1461,-42,-366,926,-749,-26,133
1462,-54,-370,921,-722,-32,129
1463,-51,-370,904,-693,-38,125
1464,-8,-366,888,-661,-43,126
1465,33,-366,888,-633,-40,129
1466,31,-397,906,-606,-35,133
1467,-1,-420,910,-574,-28,131
1468,-37,-432,916,-541,-24,124
1469,-55,-431,904,-504,-28,115
1470,-62,-436,887,-466,-34,104
1471,-11,-434,867,-428,-39,97
1472,22,-440,870,-388,-36,99
1473,31,-476,877,-350,-30,101
1474,6,-500,884,-304,-22,101
1475,-29,-522,884,-256,-20,96
1476,-50,-521,879,-204,-23,87
1477,-53,-523,858,-149,-28,81
1478,-4,-514,839,-98,-35,78
1479,38,-517,839,-46,-34,79
1480,48,-550,852,8,-27,81
1481,19,-565,846,65,-15,78
1482,-24,-580,860,128,-8,68
1483,-57,-570,869,184,-10,51
1484,-59,-567,856,239,-16,31
1485,-9,-552,833,295,-21,13
1486,30,-537,819,351,-15,1
1487,48,-568,833,409,-3,-10
1488,19,-586,838,472,12,-20
1489,-35,-590,849,541,18,-27
1490,-70,-565,858,609,13,-32
1491,-77,-530,852,668,2,-34
1492,-17,-488,837,723,-8,-38
1493,30,-468,850,774,-3,-42
1494,34,-475,868,822,7,-46
1495,4,-474,872,874,16,-49
1496,-38,-465,887,924,18,-49
1497,-67,-426,895,968,10,-49
1498,-58,-397,891,1007,2,-56
1499,-4,-359,874,1037,0,-63
1500,40,-345,881,1068,5,-68
1501,47,-361,899,1099,15,-69
1502,10,-366,900,1133,22,-65
1503,-27,-363,910,1169,21,-59
1504,-51,-336,924,1198,13,-52
1505,-46,-303,909,1224,6,-52
1506,10,-268,900,1245,1,-59
1507,48,-255,901,1260,11,-66
1508,41,-283,913,1280,25,-70
1509,5,-308,907,1303,34,-70
1510,-48,-320,900,1343,34,-68
1511,-71,-268,904,1385,27,-77
1512,-64,-242,901,1415,26,-103
1513,-19,-230,892,1437,30,-133
1514,4,-249,895,1461,36,-155
1515,2,-273,893,1495,41,-165
1516,-18,-272,888,1526,42,-165
1517,-38,-277,906,1555,39,-165
1518,-55,-263,924,1583,31,-167
1519,-41,-242,909,1606,26,-176
1520,13,-213,887,1628,25,-189
1521,40,-212,882,1653,35,-196
1522,20,-233,895,1681,44,-201
1523,-28,-235,899,1710,50,-204
1524,-70,-231,906,1742,47,-211
1525,-99,-207,903,1774,37,-224
1526,-89,-190,886,1799,31,-244
1527,-38,-174,872,1827,28,-266
1528,-3,-182,873,1855,34,-284
1529,-7,-202,886,1887,40,-293
1530,-41,-209,880,1918,41,-299
1531,-67,-207,886,1953,38,-306
1532,-82,-182,888,1988,31,-317
1533,-64,-158,873,2016,28,-334
1534,-17,-148,865,2044,28,-352
1535,-4,-154,863,2076,30,-366
1536,-12,-165,864,2113,32,-375
1537,-41,-164,862,2151,31,-383
1538,-89,-46,891,2192,27,-393
1539,23,1746,1810,1831,-82,-279
1540,-216,729,491,508,-232,-45
1541,-158,111,-201,503,-229,-151
1542,-230,-426,-338,616,-490,-173
1543,506,-550,492,759,-523,-9
1544,1087,77,1311,887,-346,8
1545,839,52,1423,889,186,-50
1546,263,233,106,845,486,-77
1547,366,-361,1112,864,480,-1
1548,60,950,1338,895,489,150
1549,-1073,715,1796,642,300,196
1550,-543,-407,310,544,3,226
1551,-434,-445,230,669,-52,339
1552,-291,-50,932,770,-70,331
1553,-568,530,1773,730,-28,180
1554,-256,-117,829,640,-78,78
1555,172,-341,861,775,-147,43
1556,502,113,1020,879,-116,44
1557,450,2,1133,819,-10,68
1558,196,-41,906,822,49,65
1559,-50,38,1012,853,50,64
1560,-82,28,1047,839,35,16
1561,-275,-150,979,850,17,-33
1562,-156,-124,857,882,-27,-28
1563,-71,-63,1054,912,-59,-43
1564,17,-22,998,926,-57,-36
1565,48,33,975,929,-47,-24
1566,106,38,1038,942,-34,-28
1567,26,57,988,941,-19,-13
1568,69,36,989,942,-10,-11
1569,14,8,971,957,-6,-25
1570,42,55,962,959,-2,-18
1571,18,47,973,956,0,-28
1572,-10,57,987,953,7,-32
1573,-60,83,968,947,3,-25
1574,-67,43,1031,954,-7,-27
1575,-73,50,961,957,-21,-25
1576,17,36,984,961,-30,-28
1577,54,19,963,969,-27,-41
1578,85,36,982,974,-13,-36
1579,64,50,969,979,2,-30
1580,-5,63,1028,985,13,-21
1581,-79,70,982,988,7,-13
1582,-89,27,997,997,-6,-23
1583,-45,32,948,1010,-21,-34
1584,10,19,972,1019,-27,-41
1585,49,42,962,1028,-20,-42
1586,30,79,989,1033,-8,-32
1587,3,104,995,1035,-1,-23
1588,-57,104,1011,1039,-2,-20
1589,-48,87,961,1043,-12,-21
1590,-6,74,969,1048,-19,-30
1591,34,75,953,1056,-20,-38
1592,48,90,965,1060,-11,-38
1593,41,128,968,1061,2,-32
1594,-18,153,1005,1060,8,-24
1595,-62,169,984,1055,5,-20
1596,-69,149,967,1052,-6,-29
1597,-8,152,946,1050,-17,-41
1598,28,161,949,1049,-19,-50
1599,69,190,957,1041,-12,-53
1600,40,234,959,1028,1,-46
1601,7,261,983,1010,10,-34
1602,-62,271,975,991,10,-27
1603,-63,260,955,973,0,-30
1604,-35,256,937,955,-12,-45
1605,10,243,939,943,-17,-62
1606,33,255,931,932,-14,-73
1607,20,283,959,916,-4,-76
1608,-19,303,982,898,0,-74
1609,-60,286,984,871,-8,-70
1610,-55,254,938,854,-18,-72
1611,-14,249,937,848,-28,-90
1612,15,244,945,838,-31,-112
1613,52,260,958,824,-28,-122
1614,52,277,957,806,-20,-114
1615,19,287,983,783,-9,-93
1616,-35,305,972,758,-6,-67
1617,-44,286,957,732,-9,-57
1618,-24,284,942,713,-15,-63
1619,8,272,945,700,-20,-76
1620,37,287,946,686,-19,-87
1621,32,320,956,668,-13,-81
1622,3,332,980,640,-5,-65
1623,-47,336,976,607,-3,-46
1624,-45,324,948,582,-7,-38
1625,-12,328,945,558,-14,-43
1626,18,437,1037,535,-21,-52
1627,45,531,1054,479,-21,-55
1628,15,483,894,422,-9,-54
1629,-23,516,875,383,-6,-64
1630,-40,521,942,321,-15,-75
1631,-23,516,954,259,-24,-71
1632,-15,464,918,201,-28,-67
1633,0,441,886,155,-32,-64
1634,32,452,894,111,-28,-59
1635,39,476,912,60,-19,-45
1636,35,485,926,1,-7,-16
1637,11,464,929,-57,8,17
1638,11,446,912,-105,19,43
1639,26,451,908,-145,28,53
1640,37,455,930,-189,36,50
1641,31,471,932,-236,41,39
1642,0,448,932,-284,42,28
1643,-56,411,950,-326,37,21
1644,-119,352,948,-358,26,22
1645,-110,285,943,-378,2,24
1646,-53,263,965,-380,-23,15
1647,30,264,989,-384,-31,0
1648,95,326,1043,-404,-19,-13
1649,84,321,1001,-437,1,-11
1650,38,301,953,-452,16,-1
1651,-20,321,964,-463,20,9
1652,-41,333,966,-489,16,11
1653,-39,316,942,-515,10,-2
1654,-12,294,936,-534,2,-15
1655,27,329,938,-555,0,-14
1656,30,362,951,-584,8,-5
1657,-17,379,966,-617,19,9
1658,-69,386,970,-654,17,20
1659,-54,368,958,-688,5,18
1660,-5,343,943,-715,-5,7
1661,50,314,927,-742,-5,1
1662,82,317,940,-773,5,2
1663,59,343,948,-801,21,12
1664,-5,351,976,-832,31,24
1665,-77,346,976,-866,30,27
1666,-104,303,951,-893,15,20
1667,-39,264,929,-912,-5,8
1668,21,242,935,-926,-9,1
1669,54,258,945,-947,-2,6
1670,49,272,958,-971,10,15
1671,7,276,984,-988,21,23
1672,-54,271,982,-1008,22,29
1673,-52,233,962,-1029,12,26
1674,-24,200,941,-1040,3,14
1675,16,180,938,-1047,-1,5
1676,57,190,947,-1059,3,3
1677,49,217,965,-1070,14,7
1678,-2,235,960,-1085,26,17
1679,-73,237,989,-1112,34,23
1680,-57,186,963,-1117,8,24
1681,-25,185,949,-1132,9,24
1682,15,180,950,-1138,6,11
1683,40,196,943,-1153,9,2
1684,38,220,951,-1171,14,3
1685,-4,245,980,-1186,22,13
1686,-63,255,973,-1213,21,26
1687,-65,246,956,-1238,14,30
1688,-39,230,937,-1254,1,21
1689,6,219,929,-1287,-2,12
1690,56,239,938,-1314,-1,6
1691,53,255,948,-1342,9,11
1692,15,261,961,-1374,19,26
1693,-43,265,965,-1409,22,43
1694,-39,252,954,-1445,16,56
1695,-19,220,928,-1483,13,64
1696,13,190,915,-1512,12,67
1697,39,216,921,-1539,17,70
1698,33,231,949,-1572,26,81
1699,-6,227,956,-1608,30,96
1700,-55,211,947,-1647,30,117
1701,-51,182,926,-1679,24,133
1702,-32,148,931,-1703,19,138
1703,3,134,925,-1725,19,133
1704,41,141,934,-1743,24,124
1705,38,142,942,-1764,30,124
1706,6,131,950,-1790,34,134
1707,-47,115,946,-1811,36,147
1708,-50,91,936,-1833,31,159
1709,-38,57,934,-1849,26,160
1710,-6,32,943,-1856,25,153
1711,26,50,936,-1860,25,142
1712,24,37,955,-1868,29,136
1713,-13,23,956,-1879,31,143
1714,-62,-11,952,-1892,29,159
1715,-664,-1609,1778,-1638,-19,113
1716,-298,-433,1154,-733,-264,0
1717,-546,19,112,-789,-263,-62
1718,-566,124,-108,-842,-537,-241
1719,1153,-887,1460,-809,-489,-41
1720,695,-549,970,-681,-98,78
1721,-631,117,564,-632,55,111
1722,345,-75,461,-690,-79,2
1723,672,-738,1711,-638,26,-93
1724,-207,144,407,-558,179,-83
1725,171,-71,999,-640,120,-203
1726,393,-274,1026,-616,156,-281
1727,-95,-167,937,-626,264,-225
1728,240,-126,867,-612,258,-319
1729,-6,-389,1147,-586,293,-353
1730,-389,-496,821,-537,290,-312
1731,-673,-672,962,-358,112,-226
1732,-414,91,626,-228,-57,-76
1733,-174,8,926,-295,-95,-52
1734,70,-246,1157,-300,-52,-103
1735,-26,-132,1151,-264,-21,-192
1736,55,57,944,-281,-9,-241
1737,23,-29,994,-331,8,-303
1738,136,-117,1007,-345,29,-325
1739,97,-190,1006,-338,35,-329
1740,109,-136,952,-317,26,-282
1741,36,-196,928,-314,13,-228
1742,52,-215,950,-278,8,-179
1743,-4,-148,931,-239,6,-149
1744,15,-134,962,-217,4,-126
1745,26,-98,968,-206,2,-121
1746,69,-120,985,-195,12,-112
1747,30,-107,955,-184,17,-105
1748,10,-151,973,-169,18,-76
1749,-41,-131,956,-146,8,-48
1750,-21,-93,995,-128,-7,-17
1751,0,-47,992,-125,-16,-6
1752,68,-23,1020,-132,-11,-5
1753,88,-4,1004,-143,2,-18
1754,67,-47,1020,-153,20,-16
1755,-10,-60,989,-157,25,-3
1756,-71,-56,1012,-156,16,20
1757,-70,-20,1022,-161,-3,26
1758,-54,-15,1024,-173,-10,19
1759,15,-3,988,-182,-10,0
1760,50,-23,1002,-189,2,-3
1761,34,-50,1003,-194,10,2
1762,-2,-74,1025,-198,10,17
1763,-30,-67,1006,-203,5,27
1764,-40,-53,1004,-208,-1,30
1765,-31,-51,985,-210,-3,18
1766,17,-59,991,-211,0,10
1767,31,-67,985,-214,6,7
1768,14,-103,995,-215,9,14
1769,-20,-119,985,-208,7,23
1770,-53,-118,989,-201,2,29
1771,-50,-102,988,-194,-4,24
1772,-39,-101,982,-186,-6,13
1773,13,-90,967,-183,-5,0
1774,42,-104,985,-179,2,-1
1775,25,-127,990,-172,8,3
1776,-16,-138,978,-166,9,14
1777,-49,-145,974,-153,5,19
1778,-59,-136,979,-143,-1,17
1779,-44,-145,968,-131,-7,8
1780,10,-135,950,-117,-10,-1
1781,41,-155,957,-104,-3,-3
1782,33,-190,965,-88,4,1
1783,-1,-210,956,-68,8,6
1784,-43,-220,952,-44,6,12
1785,-56,-207,953,-18,0,10
1786,-42,-214,944,6,-5,1
1787,9,-197,929,31,-6,-8
1788,43,-204,944,57,0,-11
1789,42,-235,954,81,7,-6
1790,1,-241,941,105,14,3
1791,-32,-243,941,138,11,8
1792,-56,-231,945,168,4,5
1793,-40,-214,936,195,-1,-2
1794,7,-201,934,222,-2,-11
1795,40,-199,938,246,3,-14
1796,38,-227,950,270,9,-9
1797,10,-224,941,296,12,2
1798,-22,-221,954,324,13,9
1799,-38,-202,957,352,9,8
1800,-29,-183,946,373,6,0
1801,21,-164,938,395,7,-8
1802,40,-168,950,415,13,-10
1803,37,-179,966,435,18,-3
1804,2,-181,959,452,18,8
1805,-25,-180,964,471,14,18
1806,-41,-168,961,494,11,19
1807,-18,-164,945,514,10,14
1808,38,-146,936,536,11,14
1809,63,-154,952,557,15,23
1810,63,-173,964,575,20,37
1811,33,-179,966,591,22,54
1812,11,-187,962,616,23,67
1813,-7,-172,958,638,23,74
1814,22,-162,948,663,22,75
1815,89,-128,966,684,27,76
1816,144,-138,1012,701,42,77
1817,190,-154,1042,721,67,73
1818,219,-158,1048,743,105,66
1819,224,-162,1068,775,151,54
1820,233,-150,1069,812,202,34
1821,281,-145,1074,847,260,2
1822,336,-109,1069,888,329,-39
1823,343,-109,1086,922,405,-79
1824,330,-122,1090,957,480,-117
1825,280,-112,1090,990,550,-143
1826,-727,997,1640,974,557,-147
1827,-572,1303,1856,549,246,-55
1828,738,202,912,276,211,66
1829,850,-43,555,315,412,137
1830,730,314,817,345,601,235
1831,48,922,1654,240,737,246
1832,26,601,1581,-56,751,238
1833,431,216,920,-178,831,320
1834,336,107,911,-165,941,381
1835,117,428,1018,-202,1006,426
1836,107,302,1201,-323,1017,428
1837,183,79,1076,-380,1049,429
1838,148,138,971,-390,1112,464
1839,-41,43,1052,-413,1145,456
1840,-609,-503,1114,-374,1065,386
1841,-154,-645,757,-192,872,286
1842,314,-567,706,-1,831,284
1843,204,-405,638,141,951,361
1844,-431,187,1133,204,1045,384
1845,-678,311,1433,49,935,214
1846,-85,-175,884,-52,864,114
1847,48,-196,708,14,920,147
1848,-232,13,892,71,931,193
1849,-315,166,1012,27,865,220
1850,-131,-50,1043,-26,805,216
1851,-55,-76,870,-1,806,226
1852,-51,22,902,23,814,228
1853,-113,45,959,18,802,203
1854,-170,60,1007,2,787,196
1855,-150,12,987,-15,770,194
1856,-151,-59,977,-11,757,195
1857,-104,-34,922,8,744,201
1858,-102,-80,958,23,733,186
1859,-132,-43,949,41,722,164
1860,-155,-38,953,53,706,147
1861,-176,-76,963,69,687,129
1862,-261,-62,958,90,670,119
1863,-237,-88,954,111,642,104
1864,-236,-125,930,144,610,78
1865,-205,-139,895,190,576,56
1866,-200,-118,891,231,546,25
1867,-228,-82,919,268,514,-7
1868,-283,-57,927,289,485,-34
1869,-311,-60,947,302,452,-60
1870,-305,-77,921,318,414,-79
1871,-265,-89,909,343,376,-90
1872,-241,-100,884,372,336,-104
1873,-213,-55,885,400,300,-115
1874,-217,-13,903,414,270,-130
1875,-256,15,946,408,246,-139
1876,-294,47,936,398,222,-144
1877,-264,36,950,383,194,-144
1878,-235,20,923,374,166,-143
1879,-187,17,908,375,139,-139
1880,-150,49,899,374,120,-139
1881,-163,87,942,362,107,-136
1882,-192,118,969,333,99,-130
1883,-236,119,989,295,93,-121
1884,-203,104,970,261,85,-107
1885,-174,60,965,237,74,-93
1886,-127,44,937,225,63,-79
1887,-104,70,933,217,59,-68
1888,-118,92,964,197,60,-60
1889,-177,111,995,166,63,-56
1890,-218,110,993,132,65,-47
1891,-212,79,981,101,59,-38
1892,-190,39,961,83,48,-27
1893,-156,12,934,79,37,-20
1894,-134,41,923,76,30,-16
1895,-166,58,951,64,26,-12
1896,-215,83,983,43,20,-7
1897,-256,79,980,14,16,1
1898,-241,62,968,-6,3,11
1899,-228,33,950,-16,-13,15
1900,-182,18,925,-15,-28,10
1901,-163,48,921,-12,-39,0
1902,-183,63,946,-17,-46,-12
1903,-233,81,975,-32,-53,-18
1904,-270,83,977,-52,-65,-14
1905,-257,60,964,-70,-81,-5
1906,-235,26,949,-77,-97,3
1907,-186,13,922,-75,-112,4
1908,-157,31,921,-75,-124,-2
1909,-176,46,944,-76,-131,-9
1910,-228,63,970,-89,-141,-9
1911,-258,63,972,-107,-152,-3
1912,-259,42,959,-119,-170,5
1913,-244,15,943,-125,-191,8
1914,-201,7,920,-121,-208,3
1915,-176,33,924,-117,-221,-9
1916,-199,49,940,-122,-229,-18
1917,-241,66,960,-134,-240,-19
1918,-277,67,965,-154,-255,-8
1919,-269,59,950,-171,-277,7
1920,-253,23,933,-180,-298,17
1921,-199,22,914,-182,-319,18
1922,-169,37,920,-186,-331,12
1923,-187,47,949,-195,-340,11
1924,-226,65,955,-211,-352,20
1925,-251,55,969,-232,-368,39
1926,-245,40,954,-245,-391,59
1927,-224,6,941,-251,-409,68
1928,-175,2,923,-251,-422,61
1929,-157,13,938,-246,-433,50
1930,-159,7,952,-249,-443,45
1931,-189,15,969,-254,-456,53
1932,-203,9,968,-265,-469,70
1933,-207,-6,978,-274,-483,89
1934,-190,-32,954,-274,-497,98
1935,-142,-46,937,-272,-510,96
1936,-112,-34,937,-263,-520,88
1937,-132,-32,958,-257,-529,79
1938,-155,-4,968,-257,-536,79
1939,-207,8,999,-260,-549,84
1940,-206,-18,949,-266,-558,93
1941,-197,-56,941,-256,-589,100
1942,-142,-43,927,-253,-593,96
1943,-130,-16,930,-233,-615,73
1944,-134,-20,947,-238,-628,55
1945,-167,-10,950,-232,-643,50
1946,-192,0,965,-230,-660,59
1947,-196,-2,966,-237,-683,71
1948,-176,-22,951,-232,-700,71
1949,-123,-19,918,-230,-714,54
1950,-94,-6,932,-224,-725,31
1951,-102,-2,948,-220,-739,16
1952,-129,21,962,-227,-754,16
1953,-150,23,969,-232,-769,26
1954,-159,16,974,-240,-785,34
1955,-143,0,949,-247,-798,34
1956,-139,-58,949,-244,-813,22
1957,-274,-259,1013,-214,-850,-1
1958,-193,-348,966,-126,-905,-48
1959,-96,-323,888,-40,-902,-119
1960,-158,-276,892,24,-883,-165
1961,-174,-167,952,60,-910,-156
1962,-90,-66,940,62,-961,-130
1963,45,10,911,53,-987,-118
1964,54,86,981,37,-973,-114
1965,-36,118,1076,10,-962,-102
1966,-36,150,1026,-28,-962,-74
1967,-23,77,997,-60,-952,-58
1968,-90,1,983,-68,-942,-47
1969,-101,-29,971,-62,-955,-44
1970,-5,-73,946,-50,-968,-68
1971,-18,-65,962,-29,-959,-92
1972,-39,-57,982,-20,-963,-101
1973,-44,-40,977,-19,-976,-95
1974,1025,213,1510,3,-921,-90
1975,1246,663,1566,-146,-344,-166
1976,-421,58,281,-298,-103,-410
1977,206,-381,372,-286,-267,-564
1978,324,-881,1141,-187,-195,-396
1979,110,-505,602,8,-88,-344
1980,-259,-509,850,81,-115,-350
1981,27,-386,729,159,-151,-320
1982,188,-185,1637,213,-131,-344
1983,-130,359,1007,150,-115,-319
1984,-290,316,1036,37,-168,-348
1985,-132,232,1014,-28,-214,-399
1986,-220,89,1041,-72,-221,-385
1987,-90,-20,944,-71,-237,-367
1988,-225,-138,1049,-46,-270,-342
1989,-120,-38,1005,-8,-310,-274
1990,-168,-86,1127,-3,-358,-220
1991,-178,36,1009,8,-410,-148
1992,-175,58,1034,-6,-469,-85
1993,-94,70,1070,-11,-509,-52
1994,-172,109,977,-27,-541,-7
1995,-74,45,1036,-40,-571,25
1996,-149,18,1022,-37,-597,46
1997,-89,11,1030,-30,-628,77
1998,-80,0,1032,-29,-667,88
1999,-62,0,1023,-20,-698,95
2000,-26,0,968,-26,-723,105
2001,26,-20,1017,-24,-729,103
2002,1,-19,958,-23,-728,116
2003,44,-42,1010,-23,-724,133
2004,36,-46,985,-13,-723,140
2005,77,-17,1001,-8,-723,150
2006,93,-9,977,-8,-722,145
2007,117,-9,977,-8,-713,138
2008,131,16,931,-14,-694,134
2009,145,-16,993,-21,-670,129
2010,114,-12,954,-26,-646,131
2011,129,-26,991,-27,-628,134
2012,128,-16,979,-25,-617,128
2013,128,-12,986,-27,-606,122
2014,142,-14,951,-29,-594,111
2015,136,-12,962,-32,-574,101
2016,136,-14,965,-36,-550,99
2017,105,-38,1001,-37,-528,101
2018,95,-28,983,-33,-517,102
2019,87,-22,1006,-31,-516,99
2020,86,-10,987,-28,-518,84
2021,87,-8,978,-34,-518,70
2022,97,-6,959,-38,-512,56
2023,82,-31,990,-38,-498,50
2024,68,-37,996,-37,-489,53
2025,63,-42,1013,-34,-486,56
2026,61,-17,1003,-28,-491,57
2027,55,-13,996,-28,-501,53
2028,72,0,978,-31,-508,42
2029,75,4,970,-35,-505,36
2030,84,-17,992,-38,-496,37
2031,56,-32,1002,-38,-487,43
2032,61,-41,1006,-35,-490,48
2033,60,-28,1002,-26,-495,54
2034,70,-22,998,-24,-503,56
2035,82,-2,977,-26,-510,53
2036,89,-1,970,-32,-508,52
2037,93,-8,977,-30,-502,55
2038,76,-22,1008,-34,-494,60
2039,79,-20,1004,-34,-490,65
2040,82,-12,1001,-30,-493,66
2041,90,-23,982,-32,-499,61
2042,117,-19,974,-35,-504,55
2043,130,-28,965,-35,-496,53
2044,132,-47,975,-36,-482,52
2045,119,-55,989,-29,-466,58
2046,128,-52,992,-23,-453,61
2047,131,-40,985,-14,-445,60
2048,150,-35,976,-11,-442,58
2049,172,-27,967,-15,-436,53
2050,189,-23,957,-15,-420,51
2051,187,-47,963,-16,-394,50
2052,170,-55,976,-13,-364,52
2053,180,-50,988,-8,-339,53
2054,184,-33,984,-3,-320,48
2055,191,-35,971,-2,-308,38
2056,217,-17,956,-5,-293,28
2057,227,-24,957,-10,-271,22
2058,230,-37,961,-10,-240,19
2059,209,-44,970,-10,-204,23
2060,223,-32,981,-5,-174,30
2061,219,-15,981,-2,-150,32
2062,239,-12,971,-3,-131,31
2063,257,7,948,-6,-112,30
2064,273,4,949,-13,-85,34
2065,274,-13,950,-16,-51,46
2066,257,-26,961,-15,-13,62
2067,262,-19,971,-11,23,76
2068,257,-16,982,-4,52,87
2069,269,-13,962,0,74,97
2070,292,2,949,1,96,104
2071,296,-5,940,0,126,118
2072,298,-19,951,0,159,140
2073,276,-27,957,5,197,166
2074,274,-23,972,11,233,188
2075,261,-19,977,16,263,203
2076,271,-23,963,22,286,216
2077,290,-4,939,24,311,227
2078,300,-16,940,24,341,243
2079,297,-32,949,23,377,264
2080,281,-38,954,28,417,286
2081,278,-37,968,36,455,305
2082,258,-27,974,44,488,318
2083,265,-26,956,48,513,324
2084,284,6,937,49,537,328
2085,296,-1,941,47,569,334
2086,285,-5,952,44,605,345
2087,258,-10,951,42,643,356
2088,247,-9,968,45,678,362
2089,220,-6,975,48,707,363
2090,221,-1,966,47,727,354
2091,236,16,948,42,742,341
2092,241,-2,948,35,763,331
2093,234,-27,955,26,787,326
2094,213,-48,958,27,814,322
2095,204,-57,969,34,840,318
2096,173,-61,979,44,859,310
2097,184,-48,964,48,870,301
2098,198,-20,957,47,881,293
2099,209,-18,953,41,896,290
2100,204,-18,957,32,915,288
2101,198,-26,964,26,940,286
2102,175,-26,973,25,961,281
2103,153,-33,976,31,978,274
2104,158,-16,966,32,989,260
2105,167,0,948,28,1004,242
2106,174,-14,943,19,1025,222
2107,179,-10,941,13,1056,203
2108,114,-29,950,6,1092,184
2109,123,-63,992,7,1099,176
2110,111,-73,1000,22,1106,173
2111,94,-43,963,28,1117,170
2112,88,-18,948,31,1124,161
2113,112,-15,958,28,1140,147
2114,111,-11,943,21,1167,142
2115,101,-21,946,19,1194,146
2116,91,-24,975,21,1210,161
2117,69,-20,988,26,1222,177
2118,69,6,968,31,1227,190
2119,69,23,958,28,1238,198
2120,46,29,943,22,1258,204
2121,-1649,163,1718,-22,996,168
2122,-988,122,708,-89,-74,133
2123,-88,-592,599,-65,-235,78
2124,-434,-344,254,139,-316,119
2125,265,-323,668,241,-298,244
2126,158,-427,610,335,-208,186
2127,81,-211,688,462,-88,250
2128,428,18,402,488,13,255
2129,800,156,1521,524,139,188
2130,586,1568,1718,278,446,335
2131,-1047,1008,1822,-319,462,295
2132,147,-155,575,-464,164,205
2133,415,-390,497,-311,163,272
2134,610,-357,684,-146,188,319
2135,-272,595,1523,-87,285,323
2136,-189,715,1522,-359,328,193
2137,0,-170,1065,-522,377,89
2138,155,-340,700,-431,416,163
2139,-516,-803,1183,-280,368,213
2140,-23,-549,900,-57,214,204
2141,296,-215,596,68,203,206
2142,279,-110,780,130,286,203
2143,-585,368,1624,115,349,106
2144,-261,113,1335,-41,325,-51
2145,165,-94,733,-63,368,-104
2146,150,-12,829,7,401,-89
2147,-137,121,1189,-2,402,-89
2148,-9,-12,1184,-38,373,-102
2149,119,-43,871,-44,398,-82
2150,89,-45,1023,-37,438,-43
2151,-64,-101,1146,-38,451,-24
2152,38,-88,1092,-36,461,-10
2153,163,-83,959,-25,488,-11
2154,132,-33,1067,-6,527,-18
2155,95,0,1094,-9,559,-37
2156,98,-28,1134,-16,593,-44
2157,93,0,1056,-20,631,-43
2158,65,-22,1075,-25,666,-37
2159,88,-48,1033,-24,686,-42
2160,111,-33,1046,-13,710,-41
2161,122,-20,1011,-10,738,-48
2162,72,-8,1056,-10,762,-51
2163,30,10,1029,-16,779,-45
2164,-30,-15,1049,-29,795,-31
2165,-66,-18,993,-36,799,-19
2166,-81,-46,971,-36,797,-13
2167,-46,-36,934,-31,790,-16
2168,-65,-50,953,-23,785,-18
2169,-78,-25,940,-16,777,-15
2170,-148,-25,968,-17,766,-7
2171,-178,-21,960,-22,745,6
2172,-215,-31,947,-29,720,19
2173,-181,-36,908,-27,694,29
2174,-152,-20,908,-24,668,34
2175,-127,-18,916,-22,647,35
2176,-149,-14,933,-22,628,39
2177,-186,-3,949,-25,607,48
2178,-221,-27,971,-34,582,56
2179,-229,-30,950,-39,557,69
2180,-187,-40,920,-36,532,77
2181,-129,-29,923,-30,508,82
2182,-101,-20,934,-23,496,81
2183,-98,-22,960,-20,491,75
2184,-143,-11,985,-21,486,73
2185,-176,-24,1010,-27,477,73
2186,-181,-36,995,-30,465,77
2187,-144,-31,957,-28,452,82
2188,-86,-14,937,-20,437,84
2189,-55,-2,943,-15,433,86
2190,-77,4,961,-16,433,84
2191,-139,3,989,-22,430,85
2192,-199,-13,1007,-27,418,86
2193,-227,-20,980,-32,401,94
2194,-199,-13,939,-36,376,100
2195,-151,5,920,-33,353,103
2196,-130,8,914,-35,335,104
2197,-132,2,929,-39,320,103
2198,-191,-22,942,-43,306,105
2199,-258,-43,968,-46,286,113
2200,-304,-53,963,-43,253,117
2201,-261,-24,934,-39,218,116
2202,-202,5,904,-37,187,109
2203,-161,0,897,-38,163,99
2204,-158,-16,898,-40,151,89
2205,-209,-53,919,-38,139,88
2206,-290,-93,939,-30,117,93
2207,-348,-91,944,-16,81,97
2208,-315,-64,911,-8,41,92
2209,-255,-31,889,-1,4,77
2210,-208,-39,870,0,-23,56
2211,-190,-55,881,-1,-43,41
2212,-230,-87,898,4,-57,42
2213,-313,-108,941,21,-80,48
2214,-377,-62,964,32,-116,49
2215,-342,-11,949,32,-158,33
2216,-255,40,906,27,-196,1
2217,-186,25,900,17,-221,-31
2218,-161,26,921,8,-233,-57
2219,-212,3,970,1,-239,-60
2220,-284,-2,998,-2,-256,-50
2221,-320,15,982,-9,-279,-40
2222,-259,14,930,-18,-309,-43
2223,-197,11,899,-20,-334,-56
2224,-166,-15,904,-18,-349,-70
2225,-186,-25,933,-14,-359,-79
2226,-249,-14,964,-9,-370,-78
2227,-307,-11,971,-9,-388,-70
2228,-336,0,944,-13,-416,-67
2229,-281,1,908,-19,-450,-70
2230,-232,0,892,-16,-478,-76
2231,-210,-9,899,-16,-500,-86
2232,-211,-2,923,-16,-522,-93
2233,-246,-2,944,-17,-540,-91
2234,-286,-15,952,-20,-565,-80
2235,-302,-9,936,-23,-592,-72
2236,-261,-14,923,-27,-623,-71
2237,-217,-12,907,-23,-649,-81
2238,-180,-22,905,-17,-668,-93
2239,-150,-36,925,-12,-681,-105
2240,-215,-4,937,-7,-685,-111
2241,-226,-55,968,-4,-712,-111
2242,-250,-42,955,-2,-731,-105
2243,-188,-17,952,1,-739,-103
2244,-147,-14,938,0,-766,-113
2245,-114,-15,945,0,-774,-123
2246,-100,-13,951,9,-778,-134
2247,-134,-8,980,4,-777,-137
2248,-169,-3,982,6,-785,-136
2249,-193,-4,987,2,-799,-136
2250,-157,7,958,-7,-809,-146
2251,-137,-12,952,-1,-815,-170
2252,-108,-21,925,6,-824,-195
2253,-101,-6,934,16,-834,-213
2254,-127,17,950,20,-851,-213
2255,-164,27,969,4,-872,-197
2256,-184,22,956,-11,-896,-182
2257,-160,6,946,-25,-913,-177
2258,-146,-22,924,-26,-930,-193
2259,-121,-49,914,-8,-945,-221
2260,-105,-22,912,6,-962,-244
2261,-120,3,935,14,-980,-248
2262,-138,15,949,6,-1007,-233
2263,-161,15,944,-10,-1033,-210
2264,-130,-1,925,-22,-1055,-199
2265,-115,-25,928,-26,-1074,-207
2266,-87,-39,920,-16,-1092,-225
2267,129,-45,1052,0,-1106,-239
2268,1783,387,1894,-22,-820,-187
2269,2,409,695,-282,-198,-205
2270,-173,301,239,-323,-298,-463
2271,248,-476,841,-381,-404,-449
2272,322,-552,1134,-226,-238,-301
2273,-248,-168,674,-108,-198,-390
2274,-154,-264,883,-118,-250,-350
2275,-121,-318,840,-88,-266,-376
2276,-120,-547,1170,15,-244,-430
2277,-400,-139,641,77,-253,-457
2278,-250,-430,1074,112,-293,-489
2279,-338,-287,817,189,-333,-546
2280,-234,-344,1058,240,-369,-551
2281,26,-16,1186,295,-418,-583
2282,82,439,1558,189,-443,-490
2283,-191,512,957,33,-501,-427
2284,-292,244,1066,-56,-573,-411
2285,-252,234,911,-83,-617,-369
2286,-195,5,1155,-92,-640,-334
2287,-242,65,939,-72,-680,-319
2288,-193,-29,1050,-71,-734,-289
2289,-93,-26,1010,-58,-788,-266
2290,-133,-64,1088,-47,-829,-223
2291,-108,-23,963,-36,-870,-169
2292,-123,-23,1071,-30,-906,-124
2293,-82,43,983,-23,-943,-75
2294,-51,29,1038,-35,-976,-39
2295,13,73,976,-39,-1002,-18
2296,20,50,991,-51,-1017,2
2297,91,20,987,-58,-1026,14
2298,30,-16,984,-54,-1023,30
2299,86,-4,969,-48,-1022,45
2300,73,-34,997,-45,-1018,45
2301,121,-13,959,-41,-1017,48
2302,148,-1,946,-41,-1008,45
2303,198,-15,962,-42,-995,39
2304,185,-10,945,-44,-972,39
2305,198,-40,965,-43,-941,37
2306,178,-28,958,-36,-914,34
2307,197,-24,976,-35,-891,26
2308,200,-33,950,-35,-871,11
2309,237,-16,948,-37,-848,-2
2310,244,-32,929,-42,-822,-15
2311,253,-55,962,-42,-786,-23
2312,219,-47,937,-39,-745,-24
2313,224,-42,967,-32,-712,-27
2314,207,-12,963,-28,-685,-33
2315,219,-8,969,-35,-664,-37
2316,243,8,955,-43,-645,-46
2317,237,-11,965,-51,-621,-49
2318,226,-40,952,-54,-590,-46
2319,187,-73,965,-51,-557,-39
2320,181,-69,968,-37,-527,-28
2321,169,-69,986,-25,-505,-17
2322,180,-58,965,-18,-489,-6
2323,201,-35,959,-11,-478,6
2324,218,-29,963,-13,-461,24
2325,204,-32,974,-13,-439,48
2326,178,-33,969,-11,-413,75
2327,173,-21,984,-8,-391,99
2328,161,-13,994,-5,-372,117
2329,166,-7,971,-6,-361,125
2330,196,4,962,-9,-348,132
2331,208,-9,962,-14,-329,141
2332,201,-36,971,-18,-303,154
2333,183,-44,962,-10,-273,170
2334,185,-41,985,-1,-248,180
2335,175,-27,985,6,-230,185
2336,194,-23,981,8,-218,186
2337,225,-7,961,8,-206,184
2338,238,-17,958,4,-186,188
2339,242,-35,965,3,-163,197
2340,219,-40,962,7,-134,206
2341,228,-30,974,16,-106,212
2342,220,-18,988,22,-86,208
2343,238,-5,972,24,-69,202
2344,265,20,951,23,-54,194
2345,276,21,949,17,-33,192
2346,280,11,955,10,-5,194
2347,263,1,961,6,27,199
2348,259,0,972,10,56,202
2349,247,-3,983,15,80,199
2350,258,0,965,17,98,191
2351,274,14,939,18,115,184
2352,293,4,948,16,136,182
2353,291,-18,958,11,163,190
2354,275,-29,958,10,194,205
2355,266,-38,976,16,221,216
2356,247,-34,984,25,242,222
2357,256,-27,972,30,255,222
2358,278,-9,950,30,268,222
2359,278,-21,944,25,287,229
2360,283,-35,958,17,310,244
2361,261,-56,961,17,337,262
2362,259,-52,979,23,361,274
2363,235,-50,982,30,380,275
2364,245,-44,971,34,393,271
2365,257,-13,942,29,405,265
2366,273,-37,952,21,425,260
2367,272,-53,955,12,449,258
2368,256,-79,965,15,477,258
2369,246,-91,972,24,502,254
2370,216,-83,974,39,523,246
2371,234,-64,962,44,539,235
2372,249,-40,948,39,557,225
2373,269,-44,945,37,579,216
2374,272,-56,954,35,614,203
2375,263,-57,947,39,654,196
2376,258,-55,962,45,691,199
2377,246,-43,974,52,719,204
2378,255,-19,963,57,743,204
2379,278,10,946,54,769,202
2380,271,12,928,47,807,198
2381,275,8,924,41,854,198
2382,268,0,935,34,899,203
2383,265,3,964,34,940,216
2384,237,0,972,36,971,230
2385,238,6,963,36,995,239
2386,235,28,937,35,1020,241
2387,228,19,936,27,1054,245
2388,210,18,925,19,1093,248
2389,199,4,941,13,1134,257
2390,181,-14,965,13,1167,269
2391,153,-34,980,16,1190,281
2392,140,-25,960,24,1202,285
2393,137,-8,955,26,1209,283
2394,123,-12,946,25,1227,279
2395,129,-10,941,19,1255,273
2396,36,-25,957,16,1282,259
2397,41,-49,994,16,1281,252
2398,24,-42,987,28,1280,248
2399,0,-13,966,32,1274,240
2400,11,5,965,24,1262,229
2401,38,-14,992,16,1258,218
2402,28,-28,966,10,1264,208
2403,8,-52,969,14,1271,200
2404,-8,-48,982,17,1273,196
2405,-296,-67,1060,28,1270,193
2406,-1834,-95,1867,35,736,116
2407,-588,296,518,-51,-165,35
2408,-80,-270,662,-5,-209,-62
2409,-339,38,382,35,-260,-3
2410,448,-126,720,6,-210,96
2411,23,-266,723,84,-95,71
2412,237,55,654,96,2,204
2413,392,8,597,84,91,202
2414,335,-163,939,127,186,174
2415,437,207,488,119,288,232
2416,-293,807,1481,86,376,198
2417,-1203,1199,1884,-295,164,107
2418,158,-211,1053,-558,19,153
2419,516,-455,687,-405,29,186
2420,390,-182,792,-286,75,280
2421,557,-344,926,-231,167,332
2422,-57,-650,1435,-113,241,280
2423,159,-22,872,-9,280,286
2424,194,-220,1077,-10,353,207
2425,107,-190,1038,51,411,131
2426,-42,-92,1000,80,472,108
2427,124,-232,1101,112,490,19
2428,-20,-95,967,167,522,-21
2429,175,-16,929,171,558,-22
2430,-104,-165,1141,179,588,-50
2431,-269,342,1310,166,571,-34
2432,-53,273,1119,25,558,-44
2433,158,111,1011,-38,580,-3
2434,68,150,937,-75,619,82
2435,42,-57,1156,-111,622,123
2436,47,-108,1050,-103,609,158
2437,87,-18,1051,-108,630,214
2438,17,-101,1087,-134,652,214
2439,5,-47,1136,-131,668,228
2440,82,-5,1050,-149,690,220
2441,152,-32,1071,-149,723,216
2442,165,41,981,-145,759,219
2443,141,-46,1056,-143,788,210
2444,85,-33,1003,-126,809,201
2445,23,-24,1049,-115,833,202
2446,-21,-34,1020,-113,846,180
2447,-92,-22,1011,-93,838,163
2448,-19,13,947,-108,868,149
2449,4,-37,988,-111,894,149
2450,-8,-32,943,-105,895,162
2451,-72,-72,978,-102,883,173
2452,-108,-49,962,-100,862,185
2453,-167,-38,986,-100,838,198
2454,-161,-27,952,-107,817,202
2455,-138,-13,934,-114,806,208
2456,-96,0,914,-119,799,214
2457,-132,-39,931,-120,790,222
2458,-176,-30,913,-118,768,236
2459,-241,-53,945,-117,739,242
2460,-259,-37,949,-114,705,247
2461,-250,-25,937,-120,678,243
2462,-185,-11,919,-121,657,235
2463,-169,-11,910,-120,644,229
2464,-176,-30,921,-118,629,226
2465,-242,-42,924,-108,608,221
2466,-256,-30,941,-100,579,221
2467,-275,-20,950,-97,554,211
2468,-246,-14,944,-99,531,197
2469,-183,0,922,-103,514,183
2470,-151,-10,934,-99,500,174
2471,-152,-24,926,-98,491,173
2472,-202,-36,954,-96,482,176
2473,-248,-44,964,-90,462,175
2474,-251,-32,981,-89,440,170
2475,-216,-29,958,-92,423,156
2476,-155,-14,942,-92,410,144
2477,-128,-16,924,-89,405,132
2478,-138,-43,928,-82,400,126
2479,-192,-42,924,-73,392,124
2480,-254,-60,951,-64,377,120
2481,-295,-44,954,-53,351,107
2482,-288,-30,938,-47,320,83
2483,-228,-5,908,-45,290,52
2484,-191,-1,901,-40,267,22
2485,-174,-24,897,-40,250,5
2486,-215,-54,907,-36,236,4
2487,-275,-72,924,-23,216,19
2488,-339,-54,944,-9,188,31
2489,-344,-15,932,-5,152,22
2490,-287,16,914,-9,113,-6
2491,-232,24,900,-18,77,-36
2492,-208,1,888,-22,47,-57
2493,-225,-30,887,-28,24,-56
2494,-278,-75,911,-22,3,-36
2495,-341,-72,931,-8,-28,-10
2496,-352,-43,927,0,-67,-2
2497,-300,0,906,0,-111,-18
2498,-238,9,889,-5,-146,-44
2499,-205,-20,883,-10,-177,-64
2500,-222,-58,886,-10,-196,-63
2501,-282,-100,909,1,-216,-46
2502,-343,-101,929,21,-243,-27
2503,-353,-74,917,36,-279,-29
2504,-286,-30,890,43,-316,-52
2505,-232,-28,867,47,-349,-85
2506,-197,-64,870,52,-373,-108
2507,-228,-111,876,62,-390,-111
2508,-293,-147,909,90,-408,-96
2509,-346,-124,918,120,-432,-86
2510,-334,-96,907,141,-464,-99
2511,-259,-44,874,158,-497,-131
2512,-194,-50,864,170,-521,-165
2513,-170,-94,870,187,-536,-186
2514,-212,-135,893,213,-543,-186
2515,-286,-149,918,248,-556,-174
2516,-323,-115,933,281,-581,-174
2517,-288,-82,905,300,-607,-191
2518,-202,-39,881,317,-633,-219
2519,-147,-41,876,331,-647,-245
2520,-150,-70,898,346,-651,-254
2521,-230,-52,939,368,-656,-254
2522,-545,267,1223,357,-698,-254
2523,-499,501,1244,230,-825,-255
2524,-130,325,991,92,-905,-255
2525,71,168,816,32,-897,-248
2526,120,147,821,7,-851,-224
2527,17,197,927,-31,-805,-190
2528,-229,204,1121,-93,-793,-133
2529,-371,82,1163,-141,-838,-46
2530,-272,-9,1015,-157,-894,7
2531,-115,-141,842,-155,-900,4
2532,-128,-155,794,-123,-907,-16
2533,-108,-259,888,-69,-913,-46
2534,-136,-248,927,-5,-916,-66
2535,-105,-166,904,31,-919,-91
2536,-171,-129,950,84,-924,-126
2537,-213,-24,986,82,-940,-151
2538,-170,12,992,72,-973,-161
2539,-28,68,928,56,-1001,-155
2540,22,103,943,26,-1000,-148
2541,-27,94,1013,7,-986,-136
2542,-144,106,1034,-25,-989,-104
2543,-140,69,999,-54,-1006,-71
2544,-139,-9,955,-65,-1014,-61
2545,-131,-74,921,-64,-1020,-81
2546,-99,-111,928,-34,-1026,-124
2547,-79,-91,946,8,-1030,-170
2548,-83,-34,954,24,-1039,-192
2549,-79,14,960,23,-1056,-182
2550,-63,25,951,1,-1081,-151
2551,-33,6,964,-24,-1097,-116
2552,197,-5,1108,-24,-1097,-100
2553,1784,398,1905,-58,-788,-89
2554,-142,368,607,-256,-200,-178
2555,-170,-8,226,-272,-383,-341
2556,148,-685,773,-234,-522,-249
2557,247,-711,997,-50,-377,-20
2558,-418,-338,615,112,-335,-40
2559,-296,-320,861,178,-408,16
2560,218,187,1432,184,-434,8
2561,-96,189,1389,68,-383,20
2562,-505,352,586,-17,-438,-6
2563,-87,84,1253,-45,-515,-73
2564,-240,101,1016,-58,-525,-93
2565,-263,-56,1077,-81,-552,-61
2566,-334,-119,901,-51,-603,-80
2567,-293,-131,1109,-30,-643,-60
2568,-213,-42,944,-22,-683,-45
2569,-197,-124,1172,-14,-723,-38
2570,-233,25,879,-14,-762,-8
2571,-141,-66,1124,-21,-801,13
2572,-165,25,992,-11,-833,25
2573,-177,-8,1057,-25,-868,53
2574,-89,21,970,-25,-911,45
2575,-91,-4,1056,-32,-941,43
2576,11,11,965,-38,-966,40
2577,0,-55,1041,-43,-977,25
2578,18,-38,920,-35,-978,25
2579,34,-77,1016,-34,-975,18
2580,59,-74,977,-20,-971,7
2581,75,-56,981,-12,-964,-1
2582,160,-40,965,-8,-960,-21
2583,146,-64,980,-7,-945,-40
2584,205,-42,940,-4,-927,-51
2585,188,-75,977,2,-901,-67
2586,199,-65,973,16,-876,-83
2587,169,-69,974,28,-851,-112
2588,209,-73,976,46,-833,-151
2589,198,-42,948,59,-814,-187
2590,236,-61,963,65,-796,-218
2591,206,-50,936,71,-774,-236
2592,216,-46,952,74,-747,-237
2593,186,-41,963,75,-720,-232
2594,171,-33,994,82,-699,-227
2595,180,-11,968,81,-688,-224
2596,197,-7,985,81,-679,-223
2597,188,-5,947,77,-667,-218
2598,190,-7,954,69,-651,-200
2599,174,-3,944,64,-631,-175
2600,159,4,984,60,-608,-142
2601,149,14,987,57,-591,-117
2602,155,26,995,57,-581,-103
2603,168,43,966,50,-571,-91
2604,168,24,970,43,-562,-82
2605,162,30,941,37,-544,-66
2606,150,25,954,29,-523,-45
2607,153,32,979,22,-502,-24
2608,136,31,1001,17,-484,-7
2609,167,35,990,11,-473,0
2610,177,22,981,5,-464,0
2611,186,-2,965,6,-451,0
2612,178,-9,948,6,-433,5
2613,177,-18,959,8,-409,15
2614,167,-5,980,11,-387,23
2615,166,-6,1003,14,-368,26
2616,187,6,994,19,-358,18
2617,207,4,989,19,-349,5
2618,213,-18,965,20,-336,-3
2619,203,-30,949,27,-317,-5
2620,199,-36,945,34,-295,0
2621,195,-20,980,43,-274,10
2622,195,-7,992,48,-256,15
2623,224,11,1001,50,-248,13
2624,241,21,977,50,-240,7
2625,245,-5,969,49,-231,1
2626,236,-7,931,49,-214,3
2627,229,-15,943,53,-193,16
2628,232,3,960,53,-173,30
2629,230,17,990,51,-157,40
2630,261,35,982,46,-147,45
2631,277,40,978,37,-137,44
2632,285,15,948,32,-122,44
2633,278,10,929,28,-99,49
2634,276,8,929,21,-71,65
2635,269,12,958,18,-44,82
2636,266,23,973,9,-20,97
2637,292,32,973,3,-1,101
2638,314,37,965,-6,18,98
2639,312,15,945,-17,40,97
2640,310,5,921,-30,69,102
2641,298,-7,924,-38,105,114
2642,299,-10,953,-45,137,131
2643,291,-6,972,-51,167,145
2644,309,5,973,-56,191,148
2645,319,6,964,-63,214,146
2646,317,-11,945,-73,240,142
2647,304,-20,917,-81,270,144
2648,292,-30,925,-84,304,153
2649,283,-29,953,-84,340,164
2650,279,-28,975,-83,367,174
2651,303,-7,979,-84,390,175
2652,309,-4,966,-83,413,171
2653,312,-24,948,-85,437,169
2654,304,-31,921,-81,466,174
2655,297,-39,929,-77,505,181
2656,291,-20,957,-69,544,195
2657,279,-10,973,-65,578,208
2658,293,22,974,-62,602,214
2659,293,36,964,-68,625,212
2660,286,28,947,-76,653,204
2661,261,33,911,-90,691,198
2662,246,21,914,-102,730,197
2663,231,35,949,-114,766,198
2664,219,45,967,-127,794,196
2665,240,54,982,-138,811,188
2666,232,63,970,-152,827,176
2667,224,35,949,-164,846,161
2668,199,27,916,-179,872,151
2669,188,18,920,-189,903,152
2670,178,8,955,-199,934,160
2671,229,-89,1052,-198,959,169
2672,288,-243,1114,-158,979,162
2673,220,-321,1032,-98,986,169
2674,132,-366,919,-43,974,191
2675,63,-331,853,14,979,200
2676,70,-265,889,69,1003,185
2677,89,-136,976,107,1045,150
2678,89,-19,991,101,1080,122
2679,112,38,990,76,1090,101
2680,130,57,997,58,1088,74
2681,144,47,991,43,1090,49
2682,131,28,953,30,1104,41
2683,108,1,937,25,1127,49
2684,88,-20,948,27,1150,72
2685,83,-28,982,34,1164,101
2686,93,23,968,40,1172,130
2687,29,46,977,36,1179,145
2688,31,47,993,23,1164,151
2689,59,49,965,15,1172,154
2690,10,15,946,1,1189,158
2691,-16,-18,982,1,1194,174
2692,-4,-21,1004,2,1187,184
2693,-14,-18,1007,4,1178,180
2694,-34,-8,969,3,1163,168
2695,-7,-33,988,-2,1153,139
2696,-8,-49,960,-7,1161,109
2697,-676,-118,1215,5,1151,81
2698,-1762,36,1710,17,432,80
2699,-435,44,335,-106,-249,116
2700,-284,-279,404,-66,-337,42
2701,-234,36,461,-64,-368,114
2702,438,-182,657,-93,-303,95
2703,-64,-207,686,-44,-182,35
2704,590,8,636,-56,-58,97
2705,1283,-697,1659,47,203,-15
2706,316,306,735,219,586,-80
2707,-1450,289,1667,113,457,-70
2708,-267,440,1143,26,-43,9
2709,507,-93,686,-45,-37,-56
2710,668,-4,646,-54,83,-56
2711,599,-206,1028,-51,278,-44
2712,-558,-208,1816,9,399,15
2713,-194,387,1446,18,320,114
2714,630,-17,791,-77,405,-11
2715,480,-119,821,-58,542,-81
2716,162,-207,1305,17,591,-29
2717,76,166,1418,69,569,-9
2718,336,199,1018,3,654,-49
2719,229,-49,991,-49,773,-68
2720,33,-58,1208,-10,786,-15
2721,118,149,1022,-19,787,12
2722,156,-62,1030,-63,844,-18
2723,-64,-103,965,-39,865,-9
2724,-69,3,993,-32,843,12
2725,-69,-125,949,-39,837,-2
2726,-215,-58,976,-19,843,15
2727,-172,-61,890,-24,810,4
2728,-113,-95,933,-7,781,0
2729,-126,17,889,5,768,6
2730,-157,-19,974,-11,750,11
2731,-165,-3,930,-15,719,26
2732,-175,16,973,-21,699,48
2733,-169,-13,943,-33,685,53
2734,-176,-25,979,-33,669,54
2735,-91,-6,936,-32,652,48
2736,-88,-38,977,-20,640,34
2737,-61,-6,961,-15,656,22
2738,-63,-33,1017,-22,678,12
2739,-38,-38,1031,-12,662,7
2740,-21,-45,1041,-5,659,13
2741,33,-33,1033,-6,681,21
2742,35,-13,1047,-7,709,21
2743,57,-6,1038,-9,730,23
2744,42,-16,1028,-14,748,22
2745,30,-13,1011,-15,762,30
2746,-17,-26,1023,-21,777,44
2747,-41,-38,1021,-24,785,57
2748,-45,-44,995,-23,794,64
2749,-26,-23,984,-17,799,61
2750,-57,-18,960,-15,803,51
2751,-83,-15,953,-13,798,43
2752,-134,-13,941,-12,783,37
2753,-201,-18,958,-15,761,40
2754,-214,-28,931,-16,731,41
2755,-212,-31,917,-10,712,37
2756,-212,-7,899,-6,693,25
2757,-221,-9,908,-2,670,12
2758,-235,-12,900,1,639,5
2759,-251,10,910,1,607,9
2760,-305,13,929,-4,579,13
2761,-337,4,933,-13,544,12
2762,-302,-22,902,-16,505,7
2763,-237,-21,890,-10,472,-4
2764,-211,-17,885,-3,446,-17
2765,-216,-23,908,1,425,-24
2766,-262,-8,929,1,397,-27
2767,-301,-17,956,-2,363,-24
2768,-305,-19,930,-3,323,-27
2769,-257,-50,899,2,282,-39
2770,-186,-46,881,15,246,-57
2771,-160,-43,905,30,224,-78
2772,-167,-18,926,39,208,-98
2773,-210,13,964,34,197,-110
2774,-261,19,980,25,176,-114
2775,-283,10,972,17,149,-112
2776,-255,-17,928,14,117,-116
2777,-203,-33,912,21,85,-127
2778,-171,-27,899,36,60,-142
2779,-164,-15,915,45,40,-163
2780,-203,28,925,46,29,-175
2781,-258,49,958,31,16,-180
2782,-304,55,957,11,-7,-178
2783,-302,34,932,-6,-39,-170
2784,-251,25,897,-20,-77,-164
2785,-216,11,882,-24,-106,-161
2786,-199,17,878,-32,-128,-158
2787,-240,50,911,-48,-143,-149
2788,-328,30,973,-66,-157,-132
2789,-412,-20,1004,-78,-188,-101
2790,-398,-67,947,-76,-234,-75
2791,-294,-84,862,-59,-279,-69
2792,-209,-93,828,-36,-310,-75
2793,-203,-91,878,-9,-326,-85
2794,-291,-44,956,5,-333,-92
2795,-379,-26,1010,3,-346,-97
2796,-377,-21,975,-1,-375,-102
2797,-291,-33,892,-2,-408,-107
2798,-183,-31,866,5,-433,-114
2799,-170,-21,903,10,-443,-120
2800,-211,-17,977,7,-453,-115
2801,-266,4,998,-3,-467,-98
2802,-280,-14,988,-17,-485,-75
2803,-263,-24,940,-25,-503,-54
2804,-233,-59,924,-27,-520,-47
2805,-181,-55,915,-22,-535,-48
2806,-178,-60,946,-12,-548,-52
2807,-169,-51,955,-9,-564,-48
2808,-196,-34,961,-11,-576,-38
2809,-211,-30,958,-13,-592,-27
2810,-223,-20,963,-14,-610,-22
2811,-177,-17,940,-13,-628,-30
2812,-122,-5,932,-8,-642,-45
2813,-99,18,944,-5,-647,-55
2814,-126,20,974,-11,-654,-57
2815,-153,40,976,-19,-665,-51
2816,-187,25,977,-31,-680,-42
2817,-184,9,963,-39,-696,-42
2818,-179,-15,941,-37,-709,-56
2819,-134,-19,923,-26,-719,-85
2820,-132,-12,933,-9,-726,-117
2821,-150,-9,951,4,-737,-134
2822,-155,1,968,0,-753,-133
2823,-224,33,935,-13,-771,-120
2824,-175,-49,931,-21,-805,-106
2825,-152,-67,918,-22,-824,-95
2826,-97,-56,928,-8,-825,-100
2827,-90,-42,944,5,-844,-114
2828,-97,-37,954,7,-864,-123
2829,-118,-21,945,20,-883,-123
2830,-116,-8,944,11,-898,-116
2831,-126,-9,963,3,-912,-112
2832,-128,-14,949,4,-925,-114
2833,-87,4,932,1,-942,-126
2834,-75,13,939,6,-953,-144
2835,-100,20,948,4,-967,-155
2836,-133,22,951,-5,-986,-157
2837,-152,6,948,-9,-1007,-150
2838,-149,6,948,-16,-1025,-142
2839,-133,-26,936,-18,-1041,-146
2840,-88,-25,936,-9,-1055,-160
2841,-67,2,946,-2,-1066,-177
2842,-62,1,960,-2,-1081,-191
2843,-59,12,953,-6,-1095,-190
2844,-67,3,963,-14,-1106,-178
2845,1063,357,1537,-25,-1056,-155
2846,1125,452,1466,-237,-415,-119
2847,-655,-109,73,-305,-195,-229
2848,1,-475,169,-205,-477,-332
2849,351,-994,1294,-31,-468,-122
2850,139,-437,721,144,-330,40
2851,-280,-63,1253,182,-346,70
2852,-11,398,956,98,-400,107
2853,-221,138,1425,2,-402,8
2854,-408,275,733,-34,-450,-41
2855,-300,50,1131,-82,-537,-63
2856,-154,26,1080,-70,-563,-116
2857,-426,-81,1007,-87,-605,-103
2858,-196,-121,998,-67,-669,-110
2859,-373,-170,1122,-43,-714,-118
2860,-320,-84,965,-27,-772,-99
2861,-300,-73,1103,-23,-845,-115
2862,-239,-10,1040,-19,-907,-113
2863,-260,10,1014,-34,-971,-109
2864,-136,-4,1074,-33,-1022,-115
2865,-242,15,988,-40,-1065,-104
2866,-127,6,1031,-45,-1110,-90
2867,-176,-4,1017,-44,-1153,-92
2868,-77,18,1025,-51,-1194,-83
2869,-34,13,981,-61,-1227,-88
2870,20,-20,994,-58,-1242,-88
2871,34,-11,933,-59,-1250,-78
2872,90,-48,1001,-53,-1243,-66
2873,74,-5,953,-45,-1239,-56
2874,116,-25,1006,-49,-1240,-42
2875,136,-11,948,-48,-1235,-42
2876,180,-12,945,-52,-1222,-44
2877,220,-10,913,-52,-1198,-50
2878,237,-38,951,-53,-1162,-47
2879,229,-17,919,-50,-1124,-49
2880,261,-22,989,-49,-1090,-51
2881,239,-12,956,-54,-1058,-53
2882,248,-34,947,-59,-1030,-60
2883,279,-15,902,-58,-1001,-79
2884,294,-29,924,-58,-959,-90
2885,295,-22,917,-59,-911,-101
2886,274,-27,955,-57,-863,-113
2887,272,-8,959,-57,-824,-128
2888,245,-19,987,-63,-790,-145
2889,248,-24,951,-65,-764,-165
2890,253,-27,931,-72,-734,-180
2891,260,-48,911,-69,-696,-191
2892,244,-65,945,-66,-659,-195
2893,234,-47,958,-56,-625,-200
2894,220,-36,1009,-50,-600,-203
2895,187,-22,996,-54,-581,-201
2896,170,-35,970,-58,-573,-199
2897,185,-18,939,-56,-564,-202
2898,198,-28,952,-58,-549,-199
2899,208,-34,977,-57,-529,-190
2900,180,-34,978,-55,-505,-179
2901,182,-27,987,-50,-485,-163
2902,159,-29,997,-47,-471,-152
2903,182,-31,977,-48,-465,-143
2904,205,-18,960,-46,-458,-135
2905,220,-30,952,-46,-442,-122
2906,223,-46,964,-46,-417,-104
2907,215,-57,965,-38,-390,-84
2908,219,-49,981,-29,-366,-65
2909,222,-41,992,-22,-348,-53
2910,243,-40,972,-20,-336,-43
2911,274,-19,941,-22,-317,-36
2912,288,-42,939,-22,-293,-28
2913,303,-45,948,-23,-261,-19
2914,296,-54,957,-19,-222,-7
2915,305,-43,969,-12,-186,-2
2916,290,-29,976,-10,-156,-1
2917,304,-31,954,-8,-133,-7
2918,324,-4,933,-10,-107,-15
2919,332,-10,931,-19,-75,-21
2920,325,-20,942,-26,-38,-24
2921,312,-21,955,-25,3,-28
2922,306,-15,975,-22,39,-30
2923,287,-6,981,-17,67,-37
2924,288,-15,959,-20,87,-46
2925,301,8,936,-21,102,-54
2926,308,0,939,-27,122,-58
2927,303,-20,962,-30,146,-59
2928,279,-22,960,-27,175,-57
2929,276,-29,976,-22,200,-56
2930,260,-27,983,-21,216,-54
2931,270,-34,965,-17,226,-53
2932,291,-22,942,-16,238,-53
2933,300,-33,941,-16,255,-46
2934,304,-47,951,-14,281,-34
2935,285,-48,965,-7,314,-21
2936,280,-38,968,0,341,-7
2937,270,-36,981,5,363,5
2938,276,-33,959,5,378,12
2939,299,-13,939,9,393,20
2940,312,-19,939,8,417,29
2941,302,-39,958,6,450,41
2942,278,-34,947,11,486,57
2943,270,-34,972,18,516,70
2944,250,-18,974,22,537,85
2945,256,-16,967,22,552,92
2946,276,4,938,23,568,92
2947,278,-7,947,20,591,94
2948,276,-16,949,17,621,101
2949,243,-24,959,18,651,112
2950,239,-16,968,24,675,123
2951,215,-14,987,25,695,134
2952,223,0,969,26,707,136
2953,231,26,944,23,721,132
2954,243,21,944,12,746,123
2955,236,-3,950,4,774,116
2956,230,-28,958,2,805,115
2957,221,-42,978,5,829,118
2958,200,-48,985,9,843,123
2959,197,-51,963,14,855,119
2960,217,-31,934,18,871,111
2961,222,-42,934,18,899,100
2962,225,-54,941,18,934,91
2963,214,-60,948,23,970,87
2964,217,-53,964,30,999,93
2965,190,-37,976,37,1021,100
2966,205,-9,962,37,1037,101
2967,219,29,938,34,1056,94
2968,225,18,935,23,1087,88
2969,214,-9,937,15,1124,87
2970,197,-34,943,16,1163,96
2971,180,-38,958,24,1193,114
2972,149,-28,971,31,1211,130
2973,148,-6,966,33,1219,140
2974,146,23,945,29,1235,139
2975,135,14,938,22,1253,133
2976,127,-14,957,14,1281,126
2977,89,-44,960,12,1305,125
2978,86,-69,972,20,1317,126
2979,-27,-82,985,23,1317,120
2980,4,-72,1007,38,1289,114
2981,14,-25,961,38,1280,97
2982,-14,-29,938,34,1284,76
2983,-1,-43,963,32,1289,60
2984,9,-52,992,33,1298,50
2985,-22,-46,982,38,1296,55
2986,-41,-22,994,43,1281,59
2987,-19,9,994,43,1271,57
2988,-326,53,1043,42,1269,52
2989,-1854,-97,1858,63,761,62
2990,-771,306,284,-46,-245,173
2991,-225,-492,437,-34,-375,142
2992,-419,-26,265,40,-454,270
2993,367,-225,716,66,-412,364
2994,-54,-227,644,110,-296,296
2995,808,642,1327,154,-130,326
2996,1067,749,1374,-20,257,67
2997,331,72,675,-171,574,-108
2998,-183,179,527,-161,561,-12
2999,-1447,-363,1761,-130,218,59
3000,101,-87,293,-103,-131,168
3001,632,-370,562,-53,-136,267
3002,581,-118,490,0,-65,351
3003,798,-170,905,55,137,420
3004,-998,288,1752,24,304,330
3005,-498,-52,1489,-139,196,133
3006,526,-248,482,-110,238,62
3007,545,-246,669,5,319,49
3008,120,-10,1166,86,418,64
3009,-147,4,1773,77,410,-29
3010,372,232,892,27,465,-84
3011,463,52,953,-12,595,-73
3012,41,47,1322,-15,658,-22
3013,50,162,1271,-46,675,32
3014,264,-109,941,-97,726,27
3015,69,-162,1008,-63,772,45
3016,69,-113,986,-36,773,41
3017,47,-220,1099,-24,790,38
3018,-27,-72,980,-3,816,61
3019,-99,-92,999,-12,833,66
3020,-59,-110,957,-2,819,58
3021,-83,-15,971,22,815,60
3022,-30,19,953,18,812,46
3023,-66,32,994,13,805,45
3024,-58,83,967,3,797,60
3025,-125,48,990,-23,795,78
3026,-174,41,963,-39,782,99
3027,-186,4,949,-51,760,112
3028,-157,-42,926,-53,737,111
3029,-137,-49,907,-44,718,104
3030,-120,-49,906,-36,698,94
3031,-168,-70,929,-28,675,81
3032,-176,-61,922,-18,647,72
3033,-201,-67,931,-10,624,71
3034,-180,-50,939,-1,600,71
3035,-163,-36,946,3,584,76
3036,-109,-15,956,5,568,78
3037,-92,10,959,-2,559,79
3038,-93,-3,972,-9,550,83
3039,-125,-11,972,-15,537,88
3040,-142,-16,975,-14,523,98
3041,-128,-26,968,-22,506,100
3042,-119,-38,972,-14,501,98
3043,-93,-26,960,-13,496,92
3044,-89,-14,967,-12,494,87
3045,-127,-23,970,-11,487,82
3046,-165,-22,968,-13,475,87
3047,-204,-27,960,-14,459,91
3048,-206,-33,953,-14,440,92
3049,-180,-43,944,-8,424,86
3050,-150,-21,946,-2,415,87
3051,-156,14,950,-4,408,82
3052,-184,9,960,-13,394,81
3053,-211,1,949,-19,373,83
3054,-239,0,951,-25,351,95
3055,-229,-10,937,-29,327,99
3056,-228,-27,937,-29,307,96
3057,-204,-18,919,-26,286,87
3058,-183,-22,921,-23,266,75
3059,-206,-29,927,-18,244,67
3060,-248,-25,937,-16,220,69
3061,-273,-25,942,-17,190,72
3062,-255,-25,935,-16,162,72
3063,-226,-23,933,-15,141,72
3064,-186,-18,932,-14,126,64
3065,-172,3,938,-14,111,54
3066,-187,-5,950,-13,92,50
3067,-224,8,959,-14,72,51
3068,-239,10,955,-20,50,51
3069,-223,-7,954,-26,30,48
3070,-204,-17,940,-23,13,42
3071,-166,-13,936,-20,-1,29
3072,-156,-4,939,-15,-13,17
3073,-191,4,952,-14,-29,9
3074,-226,15,961,-15,-49,8
3075,-260,17,955,-21,-71,8
3076,-243,10,933,-28,-96,5
3077,-226,-14,926,-27,-119,-5
3078,-186,-16,919,-23,-141,-15
3079,-171,-7,925,-20,-160,-23
3080,-208,-10,946,-20,-178,-21
3081,-254,-10,951,-25,-198,-14
3082,-279,-25,946,-31,-226,-6
3083,-256,-42,920,-28,-255,-8
3084,-230,-57,913,-18,-281,-21
3085,-183,-46,911,-7,-304,-33
3086,-172,-12,926,-1,-322,-39
3087,-198,0,957,-5,-339,-33
3088,-245,12,961,-17,-360,-17
3089,-268,14,946,-31,-386,-3
3090,-252,-12,920,-37,-415,-1
3091,-220,-27,912,-32,-442,-14
3092,-183,-34,912,-22,-464,-31
3093,-171,-12,925,-13,-483,-43
3094,-198,-5,943,-12,-501,-46
3095,-236,-5,956,-17,-522,-38
3096,-256,-9,935,-25,-549,-30
3097,-227,-24,925,-28,-579,-32
3098,-199,-37,916,-22,-603,-42
3099,-149,-28,923,-14,-623,-56
3100,-133,-2,927,-6,-638,-69
3101,-159,11,958,-4,-654,-73
3102,-196,14,963,-14,-674,-68
3103,-216,19,949,-23,-695,-60
3104,-197,8,933,-29,-717,-63
3105,-182,-10,931,-30,-734,-76
3106,-150,-12,922,-20,-750,-97
3107,-143,5,922,-12,-765,-120
3108,-165,9,933,-5,-783,-138
3109,-203,16,921,-4,-804,-145
3110,-234,17,953,-25,-823,-151
3111,-185,-27,926,-10,-868,-155
3112,-159,-24,930,-19,-865,-162
3113,-132,-15,934,0,-885,-185
3114,-131,16,921,6,-908,-205
3115,-134,16,935,-2,-930,-217
3116,-146,4,940,1,-953,-219
3117,-159,4,943,-9,-970,-208
3118,-146,4,950,-11,-987,-206
3119,-130,11,954,-11,-1002,-214
3120,-93,2,935,-14,-1014,-234
3121,-79,9,933,-5,-1026,-254
3122,-83,13,945,-4,-1044,-258
3123,-93,0,967,-12,-1061,-251
3124,-98,-4,961,-14,-1074,-240
3125,-75,-7,980,-21,-1081,-239
3126,837,5,1437,-9,-1049,-242
3127,1395,496,1682,-152,-524,-143
3128,-431,23,337,-301,-288,-279
3129,203,-134,318,-252,-500,-408
3130,278,-728,1179,-210,-459,-200
3131,-6,-326,576,-41,-311,-62
3132,-476,-259,853,9,-339,-73
3133,-116,-294,823,69,-416,-77
3134,-152,-428,1278,123,-421,-147
3135,-134,35,1061,166,-425,-193
3136,-207,235,1232,76,-474,-234
3137,-130,189,1137,-11,-526,-292
3138,-392,55,993,-58,-574,-319
3139,-262,30,949,-52,-610,-322
3140,-355,-22,1070,-46,-656,-339
3141,-273,8,1035,-48,-716,-324
3142,-207,-12,1123,-53,-793,-339
3143,-255,-65,999,-57,-842,-308
3144,-269,-32,979,-46,-903,-287
3145,-189,-59,1074,-31,-950,-251
3146,-240,24,1044,-22,-1007,-220
3147,-176,42,1069,-28,-1075,-182
3148,-157,30,1027,-38,-1138,-156
3149,-116,47,987,-43,-1179,-115
3150,-64,50,977,-45,-1213,-89
3151,-27,23,1011,-48,-1230,-55
3152,-41,36,984,-49,-1250,-29
3153,14,13,1039,-51,-1272,-4
3154,-1,28,982,-53,-1290,11
3155,36,-13,967,-60,-1300,22
3156,83,-9,938,-63,-1299,17
3157,115,-51,948,-65,-1286,17
3158,143,-66,949,-57,-1272,12
3159,130,-81,980,-49,-1256,12
3160,125,-55,964,-40,-1247,7
3161,129,-32,975,-38,-1238,-1
3162,142,-20,934,-41,-1225,-16
3163,169,-10,935,-46,-1206,-28
3164,196,-4,926,-52,-1181,-41
3165,209,-29,971,-56,-1152,-48
3166,182,-29,970,-55,-1126,-46
3167,187,-41,993,-54,-1109,-39
3168,181,-28,963,-55,-1091,-29
3169,177,-38,936,-61,-1068,-22
3170,209,-32,918,-67,-1035,-25
3171,237,-49,929,-74,-992,-33
3172,266,-76,946,-73,-943,-42
3173,262,-89,972,-66,-894,-52
3174,273,-88,959,-58,-849,-62
3175,279,-65,946,-49,-809,-78
3176,298,-67,924,-47,-768,-91
3177,336,-56,921,-49,-723,-103
3178,362,-57,919,-48,-668,-110
3179,369,-72,936,-49,-607,-113
3180,356,-74,951,-43,-544,-111
3181,359,-77,951,-38,-487,-110
3182,361,-54,944,-33,-438,-109
3183,363,-50,930,-28,-393,-107
3184,382,-44,917,-29,-348,-103
3185,381,-36,911,-31,-300,-95
3186,383,-48,938,-26,-251,-82
3187,356,-44,963,-20,-201,-70
3188,345,-31,968,-15,-160,-61
3189,332,-14,960,-12,-127,-57
3190,324,-13,947,-15,-100,-56
3191,335,-4,927,-17,-73,-54
3192,328,-6,920,-22,-39,-51
3193,324,-28,946,-21,-5,-45
3194,300,-37,974,-16,30,-40
3195,300,-40,987,-8,57,-39
3196,282,-25,972,-1,75,-38
3197,282,-22,956,0,87,-36
3198,286,-21,937,-4,101,-31
3199,290,-22,927,-7,123,-18
3200,295,-36,958,-4,145,-4
3201,273,-40,980,1,170,9
3202,274,-30,987,9,190,19
3203,273,-15,981,13,203,26
3204,270,-9,954,15,214,33
3205,284,0,939,11,228,39
3206,297,4,931,7,250,51
3207,300,-4,957,7,278,65
3208,280,-7,971,6,308,78
3209,282,-6,978,10,333,87
3210,286,8,974,15,349,93
3211,282,5,958,15,364,102
3212,302,17,934,11,383,113
3213,301,11,927,7,409,127
3214,309,1,943,7,441,144
3215,292,-14,982,7,476,164
3216,290,-12,982,12,506,181
3217,276,-7,968,17,528,194
3218,276,-16,945,18,545,204
3219,289,-8,935,21,566,214
3220,308,-9,929,22,594,227
3221,299,-26,954,26,630,239
3222,279,-28,960,31,665,255
3223,273,-28,972,37,692,267
3224,266,-3,955,43,713,278
3225,267,0,948,44,733,283
3226,294,12,944,42,749,282
3227,292,12,946,39,774,286
3228,289,-14,956,39,807,293
3229,241,-34,964,42,839,302
3230,225,-31,960,48,863,312
3231,219,-19,965,53,880,315
3232,222,-16,958,55,891,313
3233,230,-3,942,51,912,305
3234,236,-6,931,46,940,292
3235,224,-29,941,44,973,284
3236,204,-44,962,44,1004,283
3237,208,-46,976,50,1023,282
3238,193,-28,969,57,1034,278
3239,191,-13,950,55,1051,271
3240,213,1,943,49,1075,256
3241,211,-1,920,41,1107,244
3242,219,-34,941,34,1145,239
3243,189,-49,950,39,1178,244
3244,190,-44,970,45,1205,254
3245,177,-24,959,52,1223,263
3246,166,-6,943,52,1242,270
3247,177,23,925,49,1265,271
3248,178,30,941,40,1298,266
3249,164,17,947,32,1331,266
3250,124,-2,974,30,1357,269
3251,114,-2,967,28,1370,273
3252,38,2,979,25,1381,263
3253,6,-41,978,21,1367,243
3254,51,-46,967,20,1360,223
3255,16,-56,922,26,1374,206
3256,4,-72,961,25,1384,192
3257,-9,-72,979,34,1393,179
3258,-25,-62,998,40,1390,172
3259,-45,-27,983,43,1378,164
3260,-637,43,1187,55,1348,145
3261,-1805,150,1725,-49,512,134
3262,-489,28,92,-101,-271,182
3263,-324,-413,258,-54,-326,164
3264,-373,-6,289,3,-355,304
3265,412,-215,591,26,-276,331
3266,-190,-223,640,81,-151,258
3267,813,557,1046,133,-31,294
3268,1439,625,1812,-5,324,55
3269,-859,229,1178,-184,598,-48
3270,-951,-171,1003,-159,97,101
3271,187,-411,800,-80,-142,119
3272,381,-211,478,62,-100,142
3273,325,187,1542,65,67,222
3274,-428,-29,1578,-59,175,49
3275,-7,-244,858,-53,173,-13
3276,493,-123,530,-6,204,-3
3277,44,-191,1367,72,233,-23
3278,117,253,1219,57,257,-29
3279,225,-28,1306,-26,321,-76
3280,409,0,954,4,387,-84
3281,276,88,1175,-8,478,-61
3282,320,-16,1240,-24,520,-60
3283,187,-1,1161,-25,581,-43
3284,303,0,1008,-44,641,-17
3285,6,-172,1178,-38,689,-1
3286,79,10,1014,-25,706,28
3287,28,-133,1017,-36,738,21
3288,36,-71,995,-7,748,17
3289,-71,-1,981,-5,764,13
3290,-44,-32,1012,-13,763,7
3291,-196,8,976,-13,766,11
3292,-196,19,939,-26,749,15
3293,-202,-60,914,-28,722,1
3294,-187,16,915,-12,695,-4
3295,-163,-24,896,-18,669,-23
3296,-154,-2,940,-14,644,-22
3297,-204,25,922,-21,619,-12
3298,-202,-10,951,-35,592,-3
3299,-225,-53,921,-36,564,0
3300,-164,-50,951,-26,538,-2
3301,-101,-74,944,-16,520,-22
3302,-39,-67,981,4,515,-29
3303,4,-26,978,9,516,-36
3304,6,-14,1029,8,521,-26
3305,-8,0,1017,0,525,-6
3306,-27,-9,1039,-12,530,13
3307,1,-24,1005,-17,535,16
3308,0,-34,1011,-13,544,10
3309,18,-34,980,-2,550,-5
3310,-4,-17,997,5,561,-11
3311,-64,12,992,1,567,-8
3312,-136,-3,1002,-10,564,4
3313,-172,-13,965,-15,553,11
3314,-168,-30,958,-18,538,11
3315,-149,-41,929,-13,521,0
3316,-145,-51,929,-3,507,-10
3317,-147,-23,929,3,490,-14
3318,-200,-2,950,0,476,-7
3319,-248,-2,945,-8,452,3
3320,-295,-17,935,-18,424,14
3321,-261,-21,904,-23,389,15
3322,-241,-42,902,-16,359,5
3323,-210,-36,900,-5,332,-8
3324,-205,-10,922,-1,309,-13
3325,-224,12,944,-4,285,-9
3326,-257,17,953,-15,260,1
3327,-264,9,937,-25,232,5
3328,-228,-12,929,-29,205,0
3329,-188,-10,928,-23,180,-13
3330,-149,-19,933,-17,162,-27
3331,-138,4,952,-15,149,-32
3332,-174,25,974,-23,138,-20
3333,-204,4,978,-37,120,-7
3334,-227,-14,958,-45,101,1
3335,-193,-30,943,-43,80,-5
3336,-156,-39,937,-31,64,-25
3337,-128,-38,940,-19,52,-42
3338,-125,0,956,-13,42,-49
3339,-165,22,972,-23,31,-41
3340,-212,13,973,-33,12,-27
3341,-249,5,950,-45,-10,-17
3342,-229,-9,932,-49,-35,-21
3343,-204,-16,919,-43,-60,-35
3344,-181,-23,919,-36,-80,-50
3345,-182,-6,930,-30,-97,-62
3346,-219,-3,942,-32,-117,-62
3347,-263,-12,947,-36,-142,-57
3348,-292,-15,934,-38,-173,-52
3349,-265,-20,915,-37,-205,-56
3350,-232,-9,909,-30,-233,-69
3351,-202,-16,902,-23,-258,-88
3352,-191,-13,913,-18,-280,-103
3353,-224,-13,929,-16,-300,-106
3354,-264,-19,945,-17,-327,-100
3355,-294,-20,946,-20,-359,-95
3356,-246,-8,928,-24,-392,-93
3357,-199,-2,916,-26,-419,-101
3358,-167,-14,915,-25,-437,-109
3359,-152,-17,924,-21,-454,-117
3360,-179,-22,946,-18,-471,-117
3361,-217,-31,961,-17,-492,-115
3362,-240,-22,966,-16,-513,-116
3363,-198,-5,947,-18,-537,-126
3364,-151,12,932,-19,-559,-141
3365,-116,6,924,-17,-570,-152
3366,-109,5,936,-18,-580,-158
3367,-157,-2,954,-18,-591,-157
3368,-216,-8,975,-18,-610,-152
3369,-248,8,974,-24,-636,-153
3370,-208,25,957,-33,-663,-158
3371,-155,44,933,-46,-686,-164
3372,-122,31,936,-54,-702,-167
3373,-122,24,944,-63,-716,-164
3374,-151,27,961,-66,-734,-158
3375,-188,19,984,-72,-757,-153
3376,-201,34,982,-90,-774,-149
3377,-163,50,976,-108,-797,-152
3378,-107,36,955,-126,-817,-155
3379,-66,34,953,-133,-826,-146
3380,-49,35,969,-148,-829,-138
3381,-88,29,982,-163,-850,-131
3382,-133,18,1012,-169,-865,-120
3383,-142,37,1005,-189,-879,-114
3384,-107,54,983,-209,-890,-112
3385,-53,59,967,-223,-904,-115
3386,-33,41,977,-237,-913,-117
3387,-16,53,972,-244,-919,-118
3388,-52,29,992,-255,-920,-117
3389,-77,23,1011,-263,-929,-116
3390,-89,21,1009,-275,-937,-119
3391,-30,-1,1002,-289,-943,-126
3392,1413,-1174,1797,-205,-857,-136
3393,1433,-563,1670,94,-378,-169
3394,395,322,774,96,-174,-245
3395,477,192,660,-73,-254,-248
3396,715,-234,1207,-162,-173,-71
3397,283,-92,880,-98,-23,-45
3398,-38,59,854,-88,13,-76
3399,140,-35,892,-127,8,-97
3400,72,-261,1138,-105,62,-149
3401,-70,-26,795,-81,100,-196
3402,-25,-255,980,-84,97,-234
3403,-62,-281,914,-38,110,-270
3404,-169,-329,938,3,109,-275
3405,-135,-345,907,75,72,-303
3406,-228,-347,950,125,35,-301
3407,-168,-330,902,175,-19,-302
3408,-163,-377,988,223,-63,-304
3409,-180,-317,883,273,-100,-289
3410,-182,-380,954,327,-142,-287
3411,-206,-338,907,396,-176,-289
3412,-236,-327,912,454,-216,-287
3413,-166,-286,917,511,-260,-291
3414,-160,-280,937,556,-291,-293
3415,107,-35,1162,604,-315,-294
3416,519,1162,1867,510,-263,-306
3417,-126,1290,1240,172,-219,-430
3418,-220,851,861,-62,-314,-529
3419,-81,323,1024,-173,-376,-497
3420,-41,-70,881,-184,-344,-365
3421,-67,-270,891,-104,-335,-205
3422,62,-157,1000,4,-357,-62
3423,103,80,1133,42,-371,55
3424,15,182,1036,28,-370,117
3425,-77,181,962,-2,-377,137
3426,-14,126,992,-29,-377,141
3427,-5,18,1025,-49,-381,142
3428,29,-73,994,-55,-396,148
3429,65,-144,989,-41,-402,150
3430,72,-146,943,-23,-387,148
3431,89,-134,966,-8,-363,141
3432,99,-120,987,6,-331,123
3433,100,-96,962,13,-305,109
3434,143,-60,980,23,-286,98
3435,169,-24,970,27,-264,93
3436,202,2,963,23,-232,96
3437,213,13,938,19,-194,108
3438,219,6,972,17,-147,130
3439,186,9,968,21,-106,163
3440,181,4,987,24,-76,196
3441,168,25,971,27,-53,225
3442,164,22,974,27,-28,251
3443,173,20,951,24,2,270
3444,167,13,950,18,37,292
3445,160,-5,970,18,71,316
3446,137,-23,997,19,100,342
3447,128,-40,998,28,119,366
3448,118,-55,1008,40,129,382
3449,110,-77,985,53,141,391
3450,116,-91,971,65,159,392
3451,107,-90,950,73,181,394
3452,106,-99,982,83,209,396
3453,81,-106,1001,96,232,400
3454,81,-124,1016,114,242,403
3455,82,-129,1017,137,244,405
3456,77,-157,1009,162,250,403
3457,81,-167,978,191,257,399
3458,80,-164,968,214,276,397
3459,70,-161,990,240,296,394
3460,41,-153,1013,260,312,392
3461,37,-151,1029,288,316,381
3462,30,-141,1037,316,309,365
3463,17,-151,1017,339,301,341
3464,9,-160,987,362,300,312
3465,-3,-155,968,380,305,286
3466,-8,-161,1003,397,312,261
3467,-31,-159,1032,418,314,238
3468,-35,-178,1049,441,301,214
3469,-37,-197,1053,473,281,184
3470,-50,-217,1030,510,258,154
3471,-49,-225,1009,546,239,125
3472,-62,-215,987,581,232,93
3473,-66,-214,1019,613,226,65
3474,-84,-210,1041,643,217,38
3475,-86,-225,1051,677,196,9
3476,-81,-228,1053,720,168,-25
3477,-79,-253,1045,763,142,-57
3478,-72,-261,1005,804,121,-94
3479,-72,-261,995,845,112,-128
3480,-58,-263,1014,887,108,-159
3481,-71,-268,1035,932,103,-183
3482,-56,-283,1047,985,89,-201
3483,-48,-276,1050,1042,69,-214
3484,-43,-279,1029,1102,52,-225
3485,-36,-268,996,1158,40,-236
3486,-36,-232,971,1208,40,-243
3487,-33,-203,990,1253,44,-249
3488,-39,-170,1010,1288,48,-253
3489,-28,-152,1012,1328,45,-252
3490,-11,-127,1015,1367,35,-249
3491,-1,-124,996,1404,25,-245
3492,17,-114,966,1440,23,-238
3493,22,-95,937,1471,35,-226
3494,34,-92,953,1501,52,-208
3495,30,-79,967,1530,71,-183
3496,24,-64,997,1564,83,-158
3497,-54,-26,1056,1599,74,-124
3498,-138,-5,1046,1636,36,-84
3499,-161,-2,957,1668,5,-66
3500,-158,3,883,1685,-10,-61
3501,-125,7,918,1690,-16,-51
3502,-100,28,979,1695,-23,-40
3503,-44,37,1002,1711,-37,-32
3504,45,29,979,1732,-51,-36
3505,115,-2,949,1753,-44,-46
3506,148,-1,907,1771,-21,-53
3507,115,11,916,1785,11,-56
3508,41,32,956,1803,35,-56
3509,-76,67,999,1825,35,-47
3510,-127,76,975,1847,18,-41
3511,-101,57,928,1866,1,-54
3512,-36,25,888,1885,-13,-70
3513,21,42,901,1908,-23,-71
3514,38,98,931,1919,-15,-60
3515,14,121,972,1926,-3,-51
3516,-30,132,954,1938,-2,-48
3517,-26,137,930,1952,-10,-52
3518,7,136,900,1961,-16,-67
3519,16,142,891,1971,-20,-90
3520,12,229,892,1980,-24,-122
3521,-85,1068,1531,1947,-41,-151
3522,-401,1251,1399,1699,-92,-205
3523,-485,623,931,1512,-220,-311
3524,-388,93,569,1479,-371,-376
3525,-132,139,835,1556,-453,-407
3526,224,634,1279,1545,-422,-444
3527,168,370,908,1417,-319,-445
3528,190,191,625,1392,-264,-453
3529,372,434,977,1399,-228,-471
3530,389,495,1002,1334,-145,-471
3531,215,278,795,1275,-64,-459
3532,202,338,798,1268,-27,-446
3533,211,516,1005,1247,5,-449
3534,97,463,917,1190,38,-437
3535,-70,385,793,1147,37,-397
3536,-84,463,899,1123,12,-353
3537,-165,524,974,1079,-9,-305
3538,-214,474,881,1030,-40,-256
3539,-216,446,847,1004,-90,-225
3540,-122,505,896,979,-132,-225
3541,-57,517,869,950,-142,-251
3542,-8,523,858,929,-135,-281
3543,14,549,862,905,-120,-292
3544,25,548,884,870,-103,-279
3545,29,525,867,832,-89,-249
3546,55,532,855,798,-75,-217
3547,73,540,862,758,-57,-190
3548,89,580,863,714,-37,-166
3549,81,606,850,663,-12,-143
3550,55,591,874,607,9,-118
3551,9,585,864,552,26,-78
3552,-7,567,878,500,35,-39
3553,-14,573,867,449,36,-11
3554,-8,560,864,400,36,4
3555,20,573,872,354,35,7
3556,18,584,870,302,38,17
3557,21,567,884,248,44,39
3558,-6,544,891,191,47,70
3559,-2,524,883,144,48,100
3560,20,521,888,99,43,120
3561,41,509,883,56,41,125
3562,71,521,880,15,44,121
3563,78,535,888,-26,54,114
3564,49,521,894,-70,70,115
3565,9,515,896,-115,79,128
3566,-11,510,899,-157,78,139
3567,-13,512,888,-200,72,141
3568,-10,495,873,-243,59,134
3569,19,519,893,-283,47,121
3570,21,538,885,-327,45,108
3571,11,516,900,-373,49,100
3572,-23,492,891,-413,53,101
3573,-23,473,902,-450,50,107
3574,-11,458,899,-482,41,104
3575,6,440,900,-503,35,92
3576,33,430,886,-526,27,77
3577,46,449,908,-546,26,66
3578,34,433,917,-574,32,58
3579,0,405,915,-593,37,59
3580,-8,388,912,-603,33,57
3581,2,399,926,-611,25,41
3582,10,375,902,-620,17,15
3583,20,369,896,-625,5,-7
3584,29,405,906,-633,-6,-18
3585,16,414,948,-657,-9,-25
3586,-14,403,931,-679,-8,-26
3587,-25,364,899,-696,-11,-26
3588,-10,361,893,-707,-23,-30
3589,7,382,910,-714,-35,-35
3590,40,425,928,-737,-42,-46
3591,35,436,912,-767,-35,-58
3592,22,412,901,-800,-23,-61
3593,-7,417,904,-827,-14,-56
3594,-11,417,918,-854,-9,-49
3595,-5,415,911,-883,-10,-43
3596,8,388,897,-908,-17,-35
3597,30,401,895,-932,-22,-29
3598,46,424,909,-963,-18,-15
3599,38,418,922,-1000,-3,5
3600,3,389,901,-1034,15,32
3601,-4,367,896,-1063,26,60
3602,5,391,920,-1086,28,82
3603,14,382,916,-1114,32,93
3604,29,366,896,-1148,34,107
3605,33,369,891,-1178,35,133
3606,38,372,931,-1214,41,165
3607,6,354,922,-1248,57,192
3608,-16,319,900,-1276,68,211
3609,-8,334,911,-1296,68,215
3610,9,340,930,-1322,69,207
3611,177,429,1120,-1343,82,176
3612,351,406,1158,-1355,185,59
3613,234,261,1051,-1345,314,-44
3614,-312,310,1258,-1343,296,-15
3615,-608,334,1326,-1348,139,36
3616,-475,76,912,-1337,22,-2
3617,-316,-220,576,-1300,-50,-5
3618,-27,-54,746,-1221,-101,24
3619,122,286,1195,-1210,-54,9
3620,-50,322,1184,-1282,35,-18
3621,-170,166,907,-1300,33,1
3622,-12,147,901,-1250,-25,3
3623,111,222,960,-1242,-28,-6
3624,118,177,927,-1282,11,-6
3625,35,164,918,-1294,37,-1
3626,-29,265,980,-1289,38,13
3627,-67,283,1010,-1309,34,16
3628,-145,219,949,-1331,25,12
3629,-101,177,883,-1336,-1,14
3630,-16,192,937,-1342,-13,12
3631,23,202,952,-1360,-11,11
3632,69,202,955,-1375,-2,15
3633,64,223,951,-1385,12,19
3634,17,233,976,-1401,24,29
3635,-32,221,954,-1420,24,36
3636,-40,177,947,-1434,19,30
3637,-16,170,881,-1447,15,21
3638,17,164,974,-1458,21,13
3639,47,122,935,-1464,7,13
3640,21,172,953,-1478,30,33
3641,-15,208,982,-1483,42,39
3642,-77,173,974,-1514,34,34
3643,-52,133,925,-1511,13,24
3644,14,125,949,-1515,4,13
3645,75,120,938,-1530,10,12
3646,77,113,945,-1535,25,15
3647,42,140,954,-1549,37,25
3648,-28,138,995,-1562,43,36
3649,-76,103,970,-1572,36,40
3650,-81,46,938,-1579,22,39
3651,-12,33,936,-1569,10,29
3652,36,23,961,-1564,9,19
3653,72,31,962,-1565,18,18
3654,44,46,963,-1564,31,25
3655,0,60,984,-1568,36,34
3656,-54,50,971,-1574,33,42
3657,-39,9,947,-1577,25,42
3658,-2,10,938,-1577,17,38
3659,28,34,955,-1571,20,33
3660,31,52,967,-1576,26,26
3661,0,83,960,-1585,33,28
3662,-48,82,961,-1598,33,34
3663,-76,78,955,-1613,27,41
3664,-63,54,935,-1624,18,35
3665,-1,62,950,-1632,9,22
3666,50,70,954,-1644,12,9
3667,71,77,963,-1659,23,8
3668,-372,-881,1400,-1638,28,11
3669,-468,-1347,1723,-901,-180,26
3670,-217,129,282,-629,-275,43
3671,-283,233,-146,-669,-423,-123
3672,751,-617,1138,-665,-469,-58
3673,1363,-264,1219,-585,-104,123
3674,-252,-28,698,-560,189,127
3675,303,435,362,-641,157,92
3676,973,-550,1546,-698,251,5
3677,-91,-205,1003,-615,505,34
3678,-1412,-424,1121,-595,318,-116
3679,-581,-232,900,-461,-36,-243
3680,-455,209,509,-450,-112,-292
3681,285,-84,986,-503,-79,-233
3682,-129,-507,1428,-512,50,-164
3683,-397,-76,1057,-488,10,-179
3684,57,-95,713,-544,-65,-168
3685,246,-288,1073,-520,-31,-73
3686,-1,-87,913,-487,-4,-22
3687,290,-199,1095,-492,-22,-38
3688,196,-203,982,-479,7,-23
3689,-50,-130,832,-460,44,33
3690,-7,-222,924,-435,18,16
3691,-146,-265,1044,-386,20,34
3692,-173,-163,886,-370,-2,9
3693,-27,-259,927,-353,-23,-6
3694,20,-247,866,-298,-22,-15
3695,61,-251,929,-261,-10,-6
3696,99,-320,932,-226,-7,-9
3697,40,-317,951,-179,9,10
3698,14,-261,891,-139,7,13
3699,7,-300,924,-101,9,22
3700,24,-228,900,-55,11,13
3701,20,-246,936,-22,17,10
3702,0,-245,918,13,18,6
3703,-45,-238,938,47,17,19
3704,-67,-220,939,78,8,21
3705,-77,-200,965,106,-1,21
3706,-35,-166,945,130,-7,8
3707,26,-141,957,151,-6,-2
3708,50,-117,957,168,3,-6
3709,45,-128,989,183,10,0
3710,0,-102,985,179,17,17
3711,-45,-79,1004,194,6,22
3712,-64,-48,998,196,2,23
3713,-49,-27,1001,192,-2,13
3714,2,2,999,189,-2,1
3715,17,-4,1009,178,2,-3
3716,20,-26,1018,171,5,3
3717,-11,-30,1014,163,5,15
3718,-38,-28,1012,156,1,24
3719,-45,-36,1012,151,-3,23
3720,-25,-31,1002,149,-5,13
3721,18,-22,982,145,-5,4
3722,44,-47,992,142,-2,6
3723,36,-77,996,143,3,19
3724,-11,-91,992,146,5,30
3725,-50,-103,986,152,3,34
3726,-71,-112,972,162,-5,32
3727,-48,-116,961,177,-11,22
3728,13,-103,961,191,-11,12
3729,32,-122,965,203,-4,8
3730,21,-151,972,217,3,8
3731,-26,-167,957,234,7,10
3732,-65,-177,958,257,4,12
3733,-84,-173,945,283,-3,6
3734,-57,-179,939,309,-10,-8
3735,6,-165,933,334,-12,-22
3736,34,-182,941,358,-6,-26
3737,35,-217,945,386,0,-26
3738,-9,-224,931,416,4,-17
3739,-48,-227,927,450,2,-14
3740,-77,-234,928,487,-2,-20
3741,-55,-228,914,526,-9,-34
3742,1,-223,905,562,-9,-47
3743,25,-240,905,602,-4,-50
3744,30,-264,920,645,-1,-43
3745,4,-267,914,687,0,-33
3746,-28,-271,910,728,0,-28
3747,-47,-273,903,774,-4,-32
3748,-1,-252,910,823,-3,-40
3749,426,1255,1794,812,34,-52
3750,-269,1293,1483,322,31,-60
3751,-295,310,240,138,-55,-120
3752,20,-3,479,144,-155,-180
3753,476,247,1177,131,-56,-167
3754,337,-80,935,87,167,-163
3755,-382,15,1219,104,176,-2
3756,-236,170,1092,104,-19,239
3757,-114,-150,969,105,-30,251
3758,-184,-54,744,141,4,198
3759,-114,68,1124,126,-18,178
3760,5,-122,1099,98,-44,135
3761,12,-239,985,159,-39,151
3762,143,-223,1010,224,-22,164
3763,40,-197,1128,280,-2,158
3764,15,-249,922,325,-4,170
3765,30,-212,1072,379,-8,159
3766,-57,-213,1000,422,-1,138
3767,-119,-195,1008,451,-7,128
3768,-71,-244,1044,489,-26,106
3769,-73,-304,1020,545,-33,100
3770,60,-248,1009,604,-39,117
3771,69,-254,1059,661,-33,134
3772,61,-200,982,704,-18,160
3773,14,-145,1017,739,-4,162
3774,-52,-148,1017,763,1,147
3775,-115,-145,991,785,-8,131
3776,-57,-189,1033,819,-26,108
3777,-21,-191,1003,856,-38,98
3778,56,-186,986,895,-38,106
3779,85,-172,1008,933,-28,110
3780,59,-115,988,960,-9,121
3781,2,-93,996,982,6,115
3782,-59,-84,1034,1000,4,95
3783,-81,-102,987,1018,-14,70
3784,-17,-115,1000,1045,-32,41
3785,17,-101,971,1070,-38,20
3786,57,-77,976,1089,-33,13
3787,59,-33,974,1100,-17,0
3788,19,-10,996,1105,-3,-13
3789,-18,-4,995,1113,-3,-26
3790,-31,-19,1016,1125,-17,-45
3791,5,-10,973,1139,-29,-60
3792,36,-5,967,1153,-33,-75
3793,54,17,953,1159,-23,-86
3794,44,51,954,1154,-8,-99
3795,16,69,975,1151,4,-110
3796,-32,84,1013,1154,1,-113
3797,-42,94,1003,1155,-14,-114
3798,-17,99,970,1156,-28,-124
3799,17,105,937,1151,-33,-143
3800,43,112,937,1137,-25,-165
3801,48,122,949,1119,-10,-183
3802,5,129,979,1109,0,-188
3803,-30,139,1015,1110,-5,-175
3804,-51,148,999,1109,-19,-165
3805,-17,156,960,1105,-30,-166
3806,11,159,932,1094,-32,-179
3807,39,171,938,1075,-24,-195
3808,24,193,955,1053,-10,-200
3809,-16,206,986,1034,-3,-194
3810,-65,225,996,1022,-11,-181
3811,-63,229,975,1010,-27,-178
3812,-22,255,942,991,-40,-190
3813,25,269,921,963,-42,-215
3814,53,295,942,925,-36,-245
3815,40,321,948,881,-23,-261
3816,-8,327,969,838,-15,-261
3817,-59,328,977,806,-17,-253
3818,-68,335,963,779,-32,-244
3819,-25,355,943,746,-49,-246
3820,11,369,923,709,-56,-261
3821,51,374,931,666,-50,-279
3822,43,389,945,616,-37,-286
3823,14,403,968,571,-27,-270
3824,-29,403,971,530,-28,-243
3825,-48,406,953,492,-36,-224
3826,-7,429,926,455,-49,-220
3827,36,451,930,408,-52,-228
3828,63,469,936,347,-44,-233
3829,57,494,939,277,-27,-226
3830,4,497,952,208,-12,-207
3831,-56,505,958,145,-10,-174
3832,-75,509,953,88,-20,-146
3833,-40,525,932,28,-32,-136
3834,9,539,918,-40,-35,-136
3835,50,535,927,-114,-29,-138
3836,47,544,927,-194,-12,-128
3837,6,536,948,-270,4,-103
3838,-48,534,963,-335,9,-69
3839,-68,524,950,-397,3,-40
3840,-24,529,919,-458,-9,-25
3841,15,517,914,-526,-10,-23
3842,45,504,918,-600,0,-22
3843,27,503,938,-672,17,-12
3844,-27,489,959,-737,29,7
3845,-88,479,964,-796,26,31
3846,-95,447,940,-854,12,39
3847,-31,413,916,-909,-4,29
3848,29,384,913,-958,-6,18
3849,62,370,934,-1008,3,18
3850,46,390,950,-1058,18,26
3851,-22,385,967,-1105,26,34
3852,-45,360,960,-1148,18,36
3853,-44,326,931,-1188,10,29
3854,0,305,921,-1224,2,20
3855,48,290,922,-1261,3,17
3856,60,301,953,-1295,20,23
3857,16,315,930,-1349,42,34
3858,-36,259,938,-1376,27,50
3859,-59,246,971,-1399,45,71
3860,-57,208,952,-1428,28,69
3861,-5,161,922,-1434,12,66
3862,46,137,934,-1440,11,71
3863,78,138,960,-1456,24,91
3864,42,148,964,-1464,43,113
3865,-38,126,973,-1481,50,131
3866,-89,72,971,-1485,44,145
3867,-71,1,970,-1474,31,154
3868,-14,-41,959,-1453,21,175
3869,34,-58,965,-1423,23,207
3870,36,-42,982,-1402,31,236
3871,-10,-14,981,-1391,43,256
3872,-78,-31,995,-1383,46,257
3873,-108,-86,989,-1365,33,251
3874,-77,-145,977,-1334,15,246
3875,2,-155,987,-1293,6,252
3876,39,-143,989,-1261,10,267
3877,38,-123,995,-1233,23,277
3878,-15,-83,992,-1216,35,270
3879,-78,-99,995,-1204,36,252
3880,-100,-140,997,-1181,22,227
3881,-65,-194,990,-1149,6,208
3882,18,-196,996,-1106,0,206
3883,52,-177,1004,-1072,6,216
3884,42,-153,1004,-1040,19,222
3885,-7,-118,998,-1020,28,215
3886,-66,-131,1002,-1002,25,198
3887,-84,-169,1000,-978,13,183
3888,-44,-201,1005,-942,2,173
3889,28,-197,1005,-904,-2,179
3890,55,-169,1004,-868,5,196
3891,41,-128,1007,-841,14,206
3892,-12,-103,1003,-829,22,200
3893,-260,-1401,1730,-737,8,148
3894,-223,-1435,1189,-301,-123,75
3895,-155,-843,244,-8,-146,153
3896,-251,-619,141,217,-219,145
3897,985,182,1638,330,-175,258
3898,602,382,1284,47,98,381
3899,-221,26,505,-102,204,346
3900,350,30,907,-57,168,249
3901,-454,-92,1747,-69,156,98
3902,-499,-436,369,-107,15,-40
3903,-29,-315,667,44,-28,-92
3904,-48,103,1381,93,-7,-78
3905,-93,-11,1037,-50,-25,-4
3906,296,-57,877,-11,-35,-39
3907,-67,-19,1018,-9,39,2
3908,-1,49,1057,-26,12,7
3909,32,-68,1040,-18,11,-21
3910,-92,-8,851,-18,11,4
3911,0,33,1074,-17,-7,1
3912,53,-65,1055,-21,-4,-25
3913,-60,-8,888,-23,8,13
3914,-6,10,1041,-21,1,-1
3915,-32,-66,1059,-26,4,-14
3916,-5,-17,915,-22,-4,3
3917,60,-2,1021,-18,-6,-5
3918,31,-15,1026,-24,5,-12
3919,-5,-16,971,-26,10,3
3920,-51,-3,1003,-27,9,3
3921,-89,-27,1013,-30,7,0
3922,-43,-37,975,-26,-7,-2
3923,15,-33,1005,-23,-13,-1
3924,79,-13,1000,-23,-9,-5
3925,57,-25,990,-24,6,-2
3926,4,-22,998,-23,13,8
3927,-62,-18,1007,-25,13,11
3928,-90,-18,990,-22,5,5
3929,-62,-22,994,-19,-8,1
3930,-1,-19,1003,-20,-13,-4
3931,63,-7,1004,-23,-10,-8
3932,66,-14,989,-25,1,-3
3933,31,-23,1004,-23,11,5
3934,-38,-22,994,-25,13,9
3935,-62,-12,996,-21,2,7
3936,-33,9,995,-16,-13,5
3937,17,49,1017,-21,-19,6
3938,56,58,1007,-37,-11,5
3939,43,14,1005,-46,-3,4
3940,31,-19,984,-46,-2,10
3941,13,-23,995,-40,-3,21
3942,-13,-22,1004,-35,-5,31
3943,-42,-14,1006,-34,-9,35
3944,-29,-19,1002,-38,-12,32
3945,7,-4,994,-40,-12,28
3946,33,-8,1000,-43,-6,25
3947,25,-39,1015,-48,3,25
3948,-29,-35,1010,-49,8,29
3949,-68,-39,1006,-50,5,31
3950,-86,-31,995,-49,-2,30
3951,-61,-32,990,-51,-8,24
3952,0,-23,996,-49,-10,16
3953,23,-35,998,-51,-5,10
3954,25,-70,993,-51,3,11
3955,-19,-89,978,-44,8,16
3956,-56,-110,975,-33,7,20
3957,-68,-125,963,-12,-2,21
3958,-40,-128,945,6,-8,19
3959,21,-123,950,29,-11,13
3960,42,-144,960,48,-5,11
3961,32,-175,957,68,4,11
3962,-3,-191,951,94,10,13
3963,32,-80,1069,122,14,10
3964,5,104,1089,115,32,-16
3965,-56,205,1050,80,31,-27
3966,-40,333,1028,36,7,5
3967,-75,251,1001,-20,7,8
3968,-68,17,994,-59,1,0
3969,-46,-152,1005,-53,-13,7
3970,-15,-218,965,-27,-18,6
3971,16,-207,965,7,-13,1
3972,73,-139,1007,36,-3,-7
3973,78,-8,1010,47,8,-3
3974,20,94,1003,39,16,4
3975,-49,114,1014,18,17,4
3976,-107,69,991,-6,9,7
3977,-94,-9,997,-15,-5,10
3978,-42,-70,1001,-9,-16,15
3979,27,-102,1002,0,-17,22
3980,60,-104,999,13,-10,25
3981,49,-99,1001,21,3,30
3982,9,-94,1009,29,11,36
3983,-57,-108,1011,41,12,42
3984,-85,-144,1026,61,1,42
3985,-73,-207,1019,93,-13,41
3986,-32,-256,1019,139,-19,47
3987,15,-254,1033,195,-18,57
3988,41,-261,1035,245,-15,70
3989,51,-259,1017,295,-6,83
3990,2,-240,1018,339,3,92
3991,-59,-240,1037,376,4,91
3992,-106,-283,1029,417,-6,80
3993,-64,-329,1018,473,-21,72
3994,6,-335,1028,540,-30,76
3995,49,-321,1023,603,-25,87
3996,46,-269,1019,655,-16,93
3997,1,-226,1012,697,-6,85
3998,-45,-224,1022,731,-6,58
3999,-69,-241,1026,769,-10,31
4000,-35,-277,1010,816,-20,11
4001,25,-269,1015,870,-27,3
4002,63,-254,1012,919,-21,4
4003,71,-220,1003,964,-10,0
4004,32,-183,996,1000,4,-6
4005,-17,-178,1020,1031,5,-20
4006,-64,-186,1015,1066,-1,-35
4007,-50,-199,1001,1109,-14,-44
4008,1,-191,991,1152,-26,-50
4009,46,-176,988,1192,-24,-55
4010,65,-146,983,1225,-15,-55
4011,32,-100,988,1251,-2,-51
4012,-17,-79,1013,1278,4,-47
4013,-74,-76,1006,1303,-4,-44
4014,-67,-83,978,1331,-16,-52
4015,-15,-85,969,1359,-28,-69
4016,33,-78,965,1385,-30,-86
4017,62,-46,970,1407,-23,-98
4018,44,-7,972,1422,-12,-105
4019,-12,21,989,1437,-2,-106
4020,-78,33,983,1454,-5,-117
4021,-100,40,967,1479,-17,-138
4022,-73,67,947,1506,-34,-176
4023,-34,81,943,1527,-45,-225
4024,17,118,941,1539,-53,-266
4025,30,161,941,1538,-48,-281
4026,27,183,967,1522,-41,-272
4027,-20,205,954,1499,-36,-250
4028,-23,222,945,1478,-37,-231
4029,-13,249,932,1455,-41,-227
4030,13,259,930,1431,-44,-238
4031,40,288,924,1402,-41,-247
4032,27,319,936,1368,-34,-245
4033,-2,341,948,1327,-28,-229
4034,-49,345,959,1282,-28,-209
4035,-55,348,937,1245,-34,-199
4036,-30,356,929,1208,-43,-208
4037,13,349,922,1173,-49,-227
4038,47,365,929,1136,-46,-241
4039,50,401,933,1089,-40,-240
4040,21,409,963,1037,-30,-223
4041,-31,414,952,980,-25,-201
4042,-47,413,941,930,-27,-187
4043,-30,425,929,883,-36,-189
4044,-2,429,928,832,-43,-199
4045,43,450,926,775,-45,-207
4046,48,477,937,710,-40,-203
4047,39,487,954,635,-29,-182
4048,-5,486,960,562,-20,-153
4049,-17,496,941,499,-20,-130
4050,-12,501,929,435,-20,-120
4051,8,508,925,371,-26,-124
4052,34,531,925,309,-22,-130
4053,32,548,930,235,-17,-125
4054,1,552,945,166,-8,-107
4055,-49,554,959,87,-4,-81
4056,-56,548,941,17,-5,-60
4057,-36,547,926,-48,-11,-51
4058,0,544,913,-116,-20,-54
4059,38,555,921,-190,-19,-56
4060,45,566,928,-269,-7,-51
4061,5,559,953,-347,9,-32
4062,-55,549,949,-417,18,-10
4063,-71,544,944,-481,13,8
4064,-50,542,921,-544,4,17
4065,-10,516,909,-613,-4,14
4066,33,511,908,-682,-2,12
4067,34,520,926,-746,7,21
4068,-2,517,954,-814,15,34
4069,-52,494,958,-879,17,43
4070,-47,456,932,-937,10,39
4071,-9,421,916,-988,-2,28
4072,37,391,919,-1035,-5,20
4073,72,387,928,-1084,1,15
4074,55,393,934,-1130,16,23
4075,0,392,956,-1175,26,33
4076,-65,375,956,-1220,27,39
4077,-70,345,940,-1260,14,36
4078,-31,316,918,-1296,3,25
4079,19,288,922,-1329,-3,17
4080,63,300,925,-1365,3,17
4081,52,299,916,-1405,28,27
4082,-8,335,954,-1435,37,34
4083,-76,243,949,-1481,24,50
4084,-34,212,949,-1491,26,63
4085,-5,206,948,-1507,29,56
4086,13,152,924,-1529,19,47
4087,56,147,924,-1529,20,45
4088,44,162,959,-1551,31,44
4089,-9,153,964,-1562,43,49
4090,-72,109,968,-1574,37,54
4091,-64,72,957,-1580,24,55
4092,-17,45,952,-1567,16,53
4093,35,11,951,-1561,15,59
4094,60,29,941,-1553,24,76
4095,32,58,964,-1547,35,91
4096,-38,68,977,-1553,39,96
4097,-96,37,977,-1555,34,92
4098,-75,-6,959,-1549,18,84
4099,-27,-29,958,-1533,6,83
4100,35,-38,955,-1516,5,92
4101,58,-9,964,-1507,15,104
4102,30,27,964,-1505,31,109
4103,-32,27,979,-1509,35,103
4104,-87,-3,977,-1512,30,88
4105,-58,-43,967,-1505,16,74
4106,-7,-66,972,-1489,6,67
4107,47,-77,968,-1473,9,70
4108,70,-58,971,-1463,19,75
4109,33,-51,978,-1455,30,74
4110,-26,-77,991,-1449,33,65
4111,-83,-148,987,-1431,30,55
4112,-48,-213,989,-1403,18,50
4113,-6,-266,999,-1360,11,59
4114,-274,-1328,1591,-1216,13,55
4115,-322,-1397,1431,-523,-140,22
4116,-271,-559,131,-273,-177,11
4117,-466,-417,-255,-65,-301,-128
4118,278,-995,677,109,-351,-81
4119,760,-946,917,328,-149,21
4120,-106,-503,809,544,68,65
4121,1041,995,1463,476,143,135
4122,727,643,1699,-24,335,294
4123,-123,-125,263,-223,398,370
4124,-1213,41,1463,-140,252,208
4125,-415,-780,1024,-137,-70,-103
4126,-352,-612,163,77,-43,-189
4127,160,48,1008,295,-36,-236
4128,156,671,1733,57,-43,-83
4129,162,-523,607,-196,-23,88
4130,137,-248,740,17,23,64
4131,100,241,1411,29,40,90
4132,-155,-246,936,-76,42,51
4133,-88,-262,855,27,9,-16
4134,-2,-175,1104,73,-25,-17
4135,-4,-274,1051,72,-8,-1
4136,-24,-269,939,139,-12,3
4137,51,-188,1103,186,-15,0
4138,-5,-246,991,203,6,-10
4139,-55,-284,1031,255,6,-5
4140,-43,-229,1023,307,-16,-2
4141,-19,-295,1053,350,-15,-17
4142,19,-331,986,403,-17,-22
4143,52,-279,1054,461,-12,-17
4144,9,-289,1008,507,-1,-15
4145,-60,-284,1049,560,2,-13
4146,-103,-274,1002,611,-7,-10
4147,-78,-291,1045,662,-17,-14
4148,-33,-296,1001,717,-26,-19
4149,38,-300,1038,772,-27,-26
4150,77,-254,998,823,-18,-30
4151,46,-225,1025,870,-2,-29
4152,-13,-194,1012,911,3,-28
4153,-87,-169,1021,947,2,-26
4154,-83,-155,986,978,-11,-27
4155,-68,-152,1007,1013,-25,-38
4156,10,-127,988,1043,-32,-44
4157,64,-86,984,1064,-20,-45
4158,69,-49,985,1079,-8,-39
4159,17,-21,1004,1091,-1,-31
4160,-33,2,993,1101,0,-21
4161,-53,6,985,1112,-11,-21
4162,-42,-4,983,1118,-21,-30
4163,12,-4,962,1125,-28,-42
4164,60,20,959,1132,-23,-48
4165,55,45,971,1131,-13,-45
4166,13,73,992,1129,-5,-36
4167,-43,95,985,1126,0,-29
4168,-56,97,983,1120,-7,-26
4169,-47,78,970,1113,-16,-32
4170,13,66,957,1111,-22,-41
4171,59,85,953,1107,-17,-45
4172,58,102,969,1100,-7,-41
4173,17,123,993,1093,4,-35
4174,-44,129,988,1082,7,-28
4175,-62,122,980,1076,1,-25
4176,-59,101,966,1071,-10,-32
4177,1,90,952,1070,-19,-42
4178,44,117,951,1061,-17,-48
4179,49,136,979,1054,-8,-45
4180,4,167,979,1041,0,-39
4181,-47,185,984,1029,2,-34
4182,-61,200,968,1016,-6,-29
4183,-57,196,966,1000,-15,-36
4184,-1,206,938,983,-23,-48
4185,41,242,946,961,-22,-57
4186,46,281,957,932,-16,-60
4187,11,321,971,892,-5,-57
4188,-37,346,960,850,-4,-57
4189,-55,353,961,808,-10,-62
4190,-47,355,954,769,-21,-69
4191,6,383,933,720,-28,-80
4192,45,406,933,667,-27,-100
4193,49,425,940,607,-18,-118
4194,22,449,949,545,-10,-129
4195,-17,460,958,486,-8,-131
4196,-42,466,960,429,-14,-126
4197,-39,464,942,371,-23,-124
