sequence,AccelerometerX,AccelerometerY,AccelerometerZ,GyroscopeX,GyroscopeY,GyroscopeZ
0,16,-5,1006,-887,22,11
1,-40,-17,1005,-872,21,13
2,-73,-38,994,-866,16,18
3,-61,-55,985,-859,5,16
4,-1,-54,986,-843,-4,10
5,48,-50,990,-833,1,7
6,63,-43,1004,-819,10,4
7,16,-25,1003,-810,20,7
8,-35,-31,1011,-807,21,11
9,-81,-40,992,-797,17,12
10,-57,-48,988,-789,8,11
11,-2,-39,984,-781,-2,9
12,37,-18,986,-774,0,8
13,46,-1,993,-773,8,8
14,2,23,995,-773,16,11
15,-51,28,999,-781,17,16
16,-80,19,982,-789,10,21
17,-56,12,972,-795,0,26
18,0,21,976,-803,-5,30
19,34,34,979,-814,-1,32
20,43,-189,1155,-824,9,36
21,-165,-1672,1830,-624,-11,11
22,-103,-557,833,-267,-61,74
23,264,-188,228,-211,-47,177
24,18,-447,688,-175,-12,290
25,246,-575,1440,-46,-33,286
26,215,-226,1082,28,-17,228
27,24,160,607,-28,31,284
28,-28,-314,1089,-66,15,241
29,-33,-207,1326,-8,14,184
30,-295,101,805,-53,33,174
31,-127,-84,933,-69,-10,90
32,-157,-39,987,-38,1,26
33,-142,-57,1066,-24,15,-40
34,-106,-45,931,-44,-4,-61
35,-53,-88,932,-32,-22,-28
36,89,-33,1009,-5,-30,-30
37,27,-33,1070,-17,-9,-18
38,87,-26,1013,-16,-2,-43
39,62,26,976,-22,8,-29
40,13,32,978,-32,9,-9
41,25,33,1056,-38,1,9
42,-21,80,1058,-56,2,12
43,-103,97,1016,-79,6,8
44,-97,101,1031,-97,-3,-16
45,-80,143,1065,-115,-9,-24
46,-30,153,1047,-151,-16,-36
47,50,151,1058,-185,-18,-39
48,74,158,1068,-218,-9,-30
49,51,151,1063,-254,-1,-13
50,25,139,1079,-286,0,3
51,-15,158,1081,-320,1,9
52,-26,180,1066,-358,2,3
53,-12,179,1050,-394,3,-8
54,-1,162,1056,-430,4,-9
55,6,155,1061,-466,1,-3
56,-1,130,1060,-503,-2,9
57,-13,121,1060,-530,-3,15
58,-43,112,1055,-563,-1,11
59,-14,98,1053,-587,-2,1
60,9,97,1028,-609,-3,-4
61,35,61,1016,-636,0,-1
62,55,42,1024,-653,1,7
63,22,25,1023,-669,6,24
64,-10,-3,1016,-684,5,32
65,-47,-13,1015,-691,6,31
66,-37,-32,999,-696,5,18
67,-16,-47,974,-698,3,6
68,15,-91,960,-695,5,1
69,38,-125,968,-689,5,7
70,17,-150,962,-675,7,22
71,-3,-177,954,-658,8,32
72,-30,-176,964,-635,7,32
73,-25,-165,957,-616,6,25
74,-7,-164,943,-596,7,12
75,22,-170,938,-576,10,6
76,22,-181,953,-557,12,11
77,6,-179,949,-538,11,25
78,-22,-200,960,-519,8,35
79,-52,-178,960,-493,3,33
80,-43,-161,968,-473,-2,22
81,-21,-157,950,-456,-2,7
82,-1,-169,946,-439,1,0
83,16,-177,948,-422,3,-1
84,-3,-192,959,-404,4,7
85,-27,-196,962,-384,0,18
86,-51,-182,964,-365,-3,18
87,-31,-165,967,-344,-6,8
88,-15,-158,956,-329,-2,-3
89,15,-174,954,-313,2,-10
90,20,-181,954,-296,4,-4
91,2,-190,955,-281,4,8
92,-21,-210,964,-263,0,18
93,-51,-198,958,-239,0,20
94,-34,-192,958,-220,-1,9
95,-19,-190,950,-196,2,-3
96,9,-212,936,-176,2,-10
97,22,-229,935,-152,2,-7
98,-1,-245,939,-127,2,4
99,-25,-258,949,-101,2,14
100,-55,-253,942,-71,0,14
101,-37,-246,935,-40,-2,5
102,-20,-247,925,-8,-3,-7
103,11,-262,918,26,-5,-11
104,25,-277,918,57,-6,-5
105,16,-296,927,91,-4,8
106,-8,-306,932,125,-4,18
107,-43,-300,917,167,-6,23
108,-39,-286,911,213,-9,21
109,-25,-273,916,252,-12,18
110,17,-272,925,287,-14,14
111,32,-269,928,318,-10,13
112,16,-281,930,348,-4,9
113,-29,-283,935,380,0,0
114,-73,-269,928,415,2,-11
115,-74,-255,922,452,-1,-25
116,-51,-248,922,486,-6,-39
117,3,-245,921,518,-7,-49
118,32,-246,913,552,-5,-48
119,27,-258,925,583,-3,-39
120,0,-249,937,617,-1,-25
121,-28,-236,946,645,-3,-21
122,-27,-204,937,675,-5,-28
123,-28,-195,931,703,-2,-39
124,6,-192,935,729,-1,-49
125,13,-191,931,754,1,-50
126,3,-190,933,781,0,-41
127,-25,-196,948,804,-3,-30
128,-48,-173,955,829,-6,-27
129,-41,-156,950,849,-10,-37
130,-26,-138,934,872,-7,-53
131,6,-132,938,895,-2,-70
132,13,-134,935,916,3,-80
133,-7,-154,939,942,9,-85
134,-39,-150,942,967,10,-83
135,-61,-142,949,988,5,-87
136,-47,-123,954,1010,1,-94
137,-29,-113,939,1029,1,-105
138,13,-104,936,1049,5,-119
139,21,-110,935,1069,11,-128
140,145,2,1042,1099,14,-129
141,557,1670,1890,952,73,-85
142,-395,599,1039,300,116,51
143,-334,31,-209,235,29,100
144,-148,317,313,304,-65,5
145,258,986,1827,224,-24,-71
146,-81,92,1107,108,13,-73
147,-43,-321,599,215,-38,-13
148,168,371,881,270,-40,4
149,52,43,1401,164,30,11
150,-239,-123,696,160,25,53
151,-48,22,1125,228,-40,75
152,33,-30,984,213,-37,18
153,3,-108,996,201,-5,23
154,56,-105,928,237,-19,39
155,7,-49,1173,247,-12,49
156,-28,-144,859,255,2,58
157,-46,-166,1143,299,-8,59
158,-42,-181,930,321,-20,83
159,2,-232,1069,370,-16,94
160,54,-197,984,413,-16,109
161,5,-182,1049,445,-7,133
162,7,-162,971,478,1,125
163,-88,-138,1071,500,-4,109
164,-35,-179,951,522,-11,97
165,-18,-182,1073,559,-16,73
166,68,-181,977,590,-17,74
167,66,-153,1007,627,-8,73
168,85,-98,1014,650,3,60
169,-32,-81,994,660,12,38
170,-27,-62,999,671,9,2
171,-73,-87,1021,685,-5,-31
172,1,-106,996,702,-12,-31
173,16,-76,1005,729,-14,-28
174,49,-47,988,741,-7,-17
175,12,-10,970,750,1,-18
176,-4,18,1023,756,7,-25
177,-73,20,986,756,3,-21
178,-59,19,1005,760,-6,-16
179,-65,17,979,762,-18,-13
180,4,39,980,762,-22,-9
181,33,53,963,759,-19,-20
182,57,57,1003,759,-14,-21
183,11,80,971,754,-5,-17
184,-27,64,1025,750,-2,-14
185,-85,75,966,745,-7,-4
186,-60,69,999,739,-15,-3
187,-26,78,964,733,-27,-12
188,29,93,970,726,-27,-16
189,64,103,964,719,-20,-23
190,35,109,1004,709,-8,-18
191,-4,112,982,701,-3,-9
192,-54,97,1015,694,-4,-6
193,-52,92,969,688,-11,-3
194,-12,91,977,683,-18,-13
195,34,90,962,677,-21,-26
196,65,94,978,669,-11,-29
197,53,99,986,666,1,-28
198,0,98,1013,662,9,-20
199,-41,100,995,655,10,-8
200,-48,86,1002,656,3,-12
201,-9,97,966,652,-8,-22
202,34,90,963,648,-9,-33
203,74,103,977,644,-3,-41
204,38,125,985,637,9,-36
205,-7,121,1010,633,19,-27
206,-70,128,1007,625,16,-17
207,-60,128,983,619,7,-14
208,-25,133,953,611,-3,-24
209,31,147,959,601,-6,-33
210,56,164,975,588,-1,-38
211,35,184,991,574,10,-34
212,-12,181,995,560,15,-25
213,-58,186,999,543,15,-15
214,-67,183,977,529,6,-14
215,-32,187,955,512,-2,-21
216,15,191,948,496,-9,-29
217,57,213,977,479,-4,-32
218,33,237,980,455,5,-27
219,-10,231,997,435,13,-17
220,-68,236,991,410,15,-8
221,-65,231,983,388,4,-6
222,-30,232,942,364,-5,-12
223,19,232,953,344,-12,-21
224,56,261,962,317,-8,-24
225,34,273,989,290,5,-17
226,-11,275,981,263,11,-7
227,-68,271,994,235,13,3
228,-57,269,973,207,4,3
229,-26,263,952,179,-5,-4
230,35,264,943,152,-9,-15
231,63,284,967,126,-5,-15
232,54,310,977,91,5,-10
233,-4,311,992,56,15,-2
234,-61,321,978,21,17,5
235,-62,316,972,-16,8,3
236,-27,312,941,-51,-3,-6
237,26,313,938,-86,-9,-13
238,64,334,957,-125,-3,-15
239,36,355,973,-167,10,-7
240,-9,346,979,-213,20,5
241,-73,340,974,-252,22,12
242,-65,326,964,-295,10,14
243,-27,308,942,-333,-2,4
244,34,296,946,-365,-7,-5
245,69,307,954,-401,-1,-5
246,51,306,979,-438,13,2
247,-5,299,985,-474,22,13
248,-63,286,978,-510,23,23
249,-64,262,969,-539,13,20
250,-31,243,952,-568,3,15
251,30,226,952,-591,-1,6
252,60,239,958,-616,3,1
253,46,242,975,-643,14,7
254,-3,237,992,-671,21,15
255,-66,225,985,-694,22,23
256,-61,205,966,-716,15,26
257,-30,186,962,-734,5,16
258,29,173,958,-751,1,8
259,60,183,962,-768,6,5
260,38,184,980,-787,13,6
261,-19,183,989,-803,17,16
262,-73,180,983,-822,15,22
263,-69,165,976,-839,6,22
264,-36,151,962,-853,-3,18
265,24,140,964,-868,-8,12
266,54,158,955,-879,-6,8
267,41,159,983,-897,3,8
268,-3,150,989,-915,11,15
269,-53,144,990,-929,13,24
270,-58,127,973,-944,6,25
271,-28,114,966,-955,-1,21
272,37,107,964,-966,-4,17
273,70,122,972,-981,4,14
274,50,128,969,-995,14,19
275,5,121,994,-1015,24,34
276,-52,125,980,-1036,27,51
277,-57,111,972,-1057,22,73
278,-40,100,955,-1082,16,89
279,7,109,961,-1100,15,100
280,35,136,956,-1122,18,107
281,20,145,972,-1145,25,116
282,-3,150,973,-1173,30,132
283,-56,140,972,-1202,31,153
284,-53,133,953,-1232,27,175
285,-49,106,954,-1260,21,191
286,-5,103,953,-1284,19,200
287,9,120,957,-1308,18,204
288,2,103,962,-1329,19,208
289,-41,104,968,-1349,22,218
290,-70,79,968,-1372,20,230
291,-76,49,954,-1392,13,242
292,-45,24,956,-1408,5,252
293,0,3,959,-1417,2,260
294,-346,-792,1371,-1386,1,241
295,127,-1326,1790,-757,-179,50
296,633,376,558,-477,-90,180
297,312,409,-204,-658,7,298
298,90,-470,896,-720,27,463
299,435,-567,1833,-520,-6,331
300,-249,27,1078,-516,61,277
301,-89,566,178,-658,20,344
302,-173,-662,1370,-733,-36,305
303,-120,-86,1136,-591,-4,264
304,-448,97,791,-627,15,223
305,-103,-105,818,-656,-50,146
306,-237,-194,1121,-637,-33,122
307,58,-91,1059,-586,-24,26
308,-171,-12,918,-630,-3,0
309,13,-133,901,-633,-27,-24
310,38,-270,1050,-595,-23,-35
311,-53,-6,962,-564,-5,-13
312,-54,-171,949,-589,-25,-31
313,58,-125,983,-554,-28,-28
314,-2,-65,983,-537,-12,-30
315,34,-101,951,-546,-11,-25
316,17,-152,992,-533,-14,-29
317,-16,-104,965,-509,-9,-6
318,-70,-120,972,-511,-17,-10
319,-23,-93,994,-495,-21,-14
320,-39,-106,981,-486,-18,-32
321,-3,-53,969,-482,-11,-34
322,-2,-78,969,-479,-10,-53
323,47,-101,1000,-477,-8,-51
324,5,-103,989,-475,-5,-44
325,6,-107,1000,-466,-5,-35
326,-7,-57,992,-467,-8,-32
327,19,-56,1005,-467,-7,-34
328,40,-28,1000,-475,-1,-47
329,63,-28,1013,-489,8,-54
330,33,-65,990,-495,17,-54
331,0,-87,988,-493,21,-33
332,-40,-75,978,-485,11,-6
333,-30,-38,1021,-486,-5,19
334,8,-16,1027,-501,-15,16
335,54,-19,1029,-515,-5,7
336,48,-11,984,-527,9,-4
337,11,-62,994,-534,17,8
338,-30,-81,998,-537,11,22
339,-54,-80,1025,-541,1,36
340,-47,-66,1005,-546,-6,33
341,-19,-70,990,-553,-5,21
342,22,-81,972,-553,0,7
343,30,-118,977,-546,5,3
344,14,-153,975,-546,6,14
345,-10,-177,974,-540,5,31
346,-31,-176,970,-523,-1,41
347,-39,-168,963,-509,-4,40
348,-19,-175,958,-497,-3,26
349,11,-185,960,-480,2,13
350,15,-204,948,-465,7,9
351,11,-241,944,-447,9,15
352,-18,-259,935,-421,9,29
353,-45,-269,941,-393,4,36
354,-38,-267,938,-362,-3,35
355,-23,-264,916,-324,-3,36
356,15,-251,909,-294,-5,44
357,46,-262,927,-266,-7,56
358,46,-294,954,-237,-5,69
359,0,-290,931,-207,0,83
360,-35,-288,931,-173,0,87
361,-56,-272,923,-140,-5,88
362,-45,-267,927,-104,-9,88
363,1,-248,935,-75,-12,82
364,20,-247,948,-54,-9,78
365,17,-276,945,-32,-6,72
366,-15,-286,942,-8,-2,65
367,-61,-293,933,26,1,57
368,-74,-286,925,58,-2,45
369,-49,-276,923,92,-7,31
370,-3,-275,930,120,-7,20
371,24,-271,930,147,-5,10
372,28,-305,945,174,2,5
373,-16,-306,925,205,7,5
374,-52,-307,923,241,7,1
375,-61,-293,923,279,3,-10
376,-47,-279,921,309,2,-20
377,2,-277,922,341,-1,-32
378,24,-281,918,377,2,-34
379,22,-297,922,409,5,-26
380,-5,-296,924,441,4,-14
381,-34,-286,941,475,2,-10
382,-43,-256,939,508,0,-17
383,-33,-243,928,536,1,-32
384,0,-232,922,564,3,-42
385,11,-240,927,592,5,-42
386,8,-259,933,619,4,-33
387,-16,-253,936,647,1,-21
388,-33,-245,943,675,-2,-18
389,-42,-216,939,704,-4,-26
390,-39,-208,936,726,-4,-41
391,4,-200,933,752,-2,-54
392,16,-204,932,778,3,-54
393,23,-221,934,803,3,-47
394,2,-217,939,828,6,-36
395,-23,-205,951,852,7,-27
396,-37,-185,944,873,5,-32
397,-25,-166,932,900,5,-50
398,-2,-145,924,927,12,-71
399,-6,-156,920,953,20,-91
400,-17,-176,927,984,23,-106
401,-50,-169,927,1015,24,-118
402,-74,-175,941,1043,17,-128
403,-77,-168,942,1066,12,-139
404,-46,-159,935,1088,9,-155
405,8,-141,914,1114,9,-171
406,25,-152,917,1140,16,-181
407,16,-170,922,1172,18,-185
408,-14,-159,934,1201,19,-186
409,-45,-153,934,1226,18,-187
410,-66,-144,945,1249,12,-190
411,-55,-125,922,1267,8,-200
412,20,-80,929,1295,4,-214
413,612,1541,1799,1185,23,-174
414,-99,690,1183,401,54,16
415,-177,71,-158,288,45,-7
416,-250,-79,-373,389,-38,-160
417,334,821,1358,394,-56,-240
418,101,353,1761,306,46,-336
419,-374,-515,821,349,8,-245
420,95,-37,292,501,-96,-175
421,259,24,1464,476,-40,-162
422,-91,-13,851,380,89,-84
423,-451,-236,1160,462,33,-50
424,-19,4,951,549,-85,11
425,1,-29,1078,523,-49,30
426,63,-217,797,515,-2,23
427,-73,-4,1090,550,-18,45
428,168,-60,1044,553,-28,25
429,10,-156,1074,583,-13,-19
430,96,-136,897,606,-8,10
431,-79,-172,1060,639,0,10
432,-35,-147,1019,660,-1,9
433,-102,-182,989,694,-17,0
434,78,-173,1038,735,-27,-19
435,-6,-149,964,763,-18,-17
436,72,-157,1025,791,-3,-12
437,-75,-119,1014,819,-2,-19
438,-12,-122,1039,849,-7,-10
439,-56,-131,962,879,-15,-20
440,60,-90,1043,905,-19,-28
441,27,-85,916,921,-12,-33
442,87,-61,1053,943,0,-40
443,-18,-18,946,955,7,-35
444,-16,-17,1063,965,12,-27
445,-94,7,950,976,6,-28
446,-50,0,1021,985,-7,-21
447,-8,33,915,989,-15,-28
448,44,45,1027,991,-13,-35
449,49,67,925,988,-7,-35
450,19,81,1046,988,3,-35
451,-29,96,948,981,5,-27
452,-65,93,1020,976,3,-15
453,-54,106,930,971,-6,-18
454,-14,115,997,961,-14,-23
455,42,142,926,950,-16,-30
456,38,140,1002,938,-9,-35
457,22,169,948,922,0,-28
458,-48,159,1015,906,6,-20
459,-63,171,960,890,2,-11
460,-72,149,983,874,-8,-11
461,4,170,936,860,-17,-20
462,27,171,967,846,-18,-28
463,72,181,962,830,-12,-30
464,6,186,992,812,0,-28
465,-15,186,986,797,3,-19
466,-77,177,980,780,1,-10
467,-38,169,966,768,-7,-10
468,-20,170,957,753,-15,-18
469,47,175,965,739,-18,-26
470,51,176,967,726,-12,-31
471,40,192,994,713,-1,-25
472,-26,186,987,698,6,-16
473,-54,188,997,685,5,-8
474,-61,179,957,672,-4,-10
475,2,184,962,659,-13,-18
476,35,200,947,645,-14,-29
477,66,209,986,627,-8,-31
478,20,233,974,611,5,-27
479,-28,228,1004,591,9,-17
480,-67,236,960,571,7,-8
481,-56,230,975,551,-3,-9
482,-13,244,939,529,-10,-16
483,33,245,962,508,-14,-25
484,64,264,958,485,-9,-27
485,29,281,991,460,3,-19
486,-15,287,977,432,10,-10
487,-66,285,987,405,9,-2
488,-48,286,948,379,-2,-2
489,-11,285,957,352,-10,-13
490,39,300,938,322,-11,-21
491,62,311,970,292,-5,-23
492,38,335,979,260,7,-17
493,-21,337,988,224,14,-5
494,-56,336,963,189,13,3
495,-63,331,957,157,3,-2
496,-10,339,941,121,-8,-7
497,33,341,951,83,-9,-18
498,64,360,960,46,-3,-19
499,32,380,969,4,9,-9
500,-14,379,982,-37,17,2
501,-73,378,965,-82,15,10
502,-57,364,953,-125,8,8
503,-18,357,937,-164,-2,-2
504,40,360,936,-206,-5,-6
505,66,365,959,-244,2,-9
506,36,380,974,-289,15,1
507,-16,371,981,-333,24,13
508,-58,350,968,-374,22,19
509,-55,331,944,-413,13,19
510,-9,325,938,-448,4,9
511,31,329,946,-483,1,-2
512,64,333,963,-520,5,-4
513,30,342,967,-557,17,3
514,-16,330,981,-597,24,14
515,-67,318,968,-633,23,23
516,-56,302,949,-669,15,21
517,-13,290,939,-699,6,11
518,38,295,944,-730,4,4
519,62,292,959,-764,7,1
520,33,297,971,-795,18,8
521,-26,291,982,-828,24,20
522,-74,271,975,-861,22,29
523,-72,250,947,-887,9,28
524,-21,237,940,-912,-2,19
525,28,233,941,-936,-7,12
526,58,233,962,-960,-2,10
527,22,229,973,-984,7,14
528,-22,213,986,-1005,13,25
529,-68,185,974,-1028,12,35
530,-54,153,965,-1040,3,32
531,-13,136,947,-1051,-6,28
532,37,120,959,-1059,-8,20
533,58,118,973,-1064,-2,14
534,34,114,978,-1074,10,16
535,-11,96,994,-1079,18,22
536,-60,78,992,-1080,16,30
537,-56,56,974,-1081,8,32
538,-13,44,962,-1077,1,24
539,31,43,959,-1073,1,18
540,57,47,982,-1071,8,13
541,27,55,985,-1070,18,14
542,-19,46,1001,-1070,24,20
543,-59,32,996,-1072,21,28
544,-45,13,983,-1071,13,36
545,3,3,953,-1071,9,46
546,33,9,971,-1068,11,50
547,38,33,985,-1066,18,56
548,10,45,988,-1074,24,66
549,-26,36,993,-1080,27,81
550,-63,41,987,-1088,26,104
551,-53,28,976,-1101,21,124
552,-21,35,952,-1111,17,138
553,16,46,959,-1118,16,143
554,40,71,978,-1127,19,143
555,12,94,973,-1140,25,149
556,-21,85,978,-1160,29,161
557,-70,82,982,-1177,28,177
558,-54,70,968,-1197,21,191
559,-27,73,944,-1217,14,200
560,12,85,955,-1232,14,204
561,26,106,964,-1254,16,207
562,3,115,970,-1277,22,216
563,-36,110,954,-1308,24,233
564,-82,81,969,-1339,23,258
565,-642,-1462,1715,-1223,-46,205
566,438,-542,1492,-509,-225,41
567,581,257,238,-529,-28,203
568,249,409,-91,-651,30,290
569,88,-890,1544,-652,43,371
570,342,-261,1660,-444,-5,153
571,-315,312,726,-561,77,245
572,-228,66,433,-727,3,264
573,-95,-511,1576,-632,-31,196
574,-208,158,736,-537,27,124
575,-249,23,955,-626,7,89
576,-84,-237,926,-626,-36,41
577,-159,-216,1173,-584,-9,22
578,-60,15,819,-563,-9,-54
579,-163,-278,926,-574,-5,-33
580,97,-92,915,-510,-41,-61
581,80,-210,1093,-501,-20,-29
582,79,-90,891,-497,-15,-33
583,65,-185,987,-485,-9,-11
584,14,-116,925,-449,-5,-1
585,-121,-121,1023,-451,-2,16
586,-34,-103,963,-432,-20,-17
587,-69,-116,993,-421,-12,-23
588,-41,-52,902,-412,-17,-42
589,18,-170,1008,-403,-20,-42
590,13,-88,959,-387,-19,-31
591,-9,-149,997,-383,-16,-18
592,4,-125,971,-365,-19,-23
593,-2,-107,1010,-354,-14,-22
594,8,-91,946,-346,-12,-33
595,33,-125,984,-342,-6,-33
596,48,-104,957,-328,-1,-30
597,14,-126,984,-320,4,-14
598,7,-107,977,-311,-2,-5
599,-22,-117,1007,-304,-4,3
600,1,-71,996,-296,-5,-3
601,9,-71,991,-297,0,-10
602,35,-76,965,-297,6,-14
603,48,-86,984,-295,11,-11
604,18,-100,987,-290,14,5
605,-10,-108,1001,-288,8,17
606,-34,-91,1000,-282,6,20
607,-29,-81,995,-279,5,12
608,-7,-70,988,-277,7,0
609,20,-92,979,-276,11,-7
610,35,-96,976,-274,15,-1
611,20,-112,985,-270,13,14
612,-6,-122,998,-266,11,26
613,-41,-104,988,-257,10,29
614,-32,-96,990,-251,9,20
615,-19,-93,985,-248,9,5
616,3,-104,981,-243,12,0
617,25,-115,966,-241,10,2
618,6,-134,977,-233,12,16
619,-21,-143,984,-222,10,25
620,-43,-143,986,-211,8,25
621,-32,-132,980,-200,5,17
622,-21,-135,970,-189,7,4
623,17,-153,961,-180,8,-2
624,24,-176,956,-163,11,1
625,7,-189,955,-147,9,13
626,-14,-205,964,-131,7,22
627,-42,-197,955,-107,8,26
628,-38,-192,959,-83,7,15
629,-24,-194,953,-63,8,1
630,2,-211,942,-42,9,-7
631,14,-217,928,-19,11,-6
632,0,-245,934,7,9,6
633,-29,-257,943,35,6,16
634,-55,-251,944,65,3,14
635,-46,-243,934,100,1,3
636,-39,-237,927,129,1,-13
637,-5,-247,923,160,2,-23
638,8,-257,925,191,2,-23
639,-6,-264,924,224,0,-12
640,-30,-272,935,256,-3,-4
641,-50,-250,940,289,-5,-5
642,-47,-239,935,322,-8,-16
643,-32,-237,928,353,-6,-33
644,2,-241,924,386,-6,-39
645,18,-245,920,416,-7,-37
646,12,-262,925,449,-7,-26
647,-14,-265,929,481,-10,-16
648,-41,-252,939,516,-11,-16
649,-47,-240,931,549,-10,-27
650,-44,-232,910,582,-9,-43
651,-2,-242,919,617,-9,-53
652,19,-248,921,648,-8,-53
653,14,-267,924,685,-8,-42
654,0,-260,915,722,-9,-33
655,-31,-253,929,758,-6,-28
656,-34,-231,921,794,-9,-37
657,-26,-228,920,828,-7,-50
658,0,-216,909,865,-5,-61
659,15,-222,910,898,-1,-66
660,1,-242,908,938,1,-66
661,-30,-231,903,981,3,-69
662,-54,-229,911,1022,2,-79
663,-74,-206,914,1063,-2,-98
664,-58,-190,895,1104,0,-126
665,-32,-180,886,1147,8,-159
666,-34,-179,878,1192,18,-190
667,-46,-201,884,1242,19,-219
668,493,908,1487,1270,37,-225
669,62,1298,1728,631,71,-37
670,-411,-116,-77,255,64,45
671,-273,-127,-368,382,-5,-104
672,50,843,1320,448,-39,-224
673,293,190,1651,352,-15,-239
674,-74,-325,882,387,-27,-182
675,201,-134,436,528,-45,-125
676,122,70,1324,495,6,-81
677,-126,-113,1038,454,58,-16
678,-347,-185,996,550,1,27
679,57,9,996,571,-67,21
680,-22,-108,945,562,-32,-7
681,107,-124,933,561,-3,9
682,-38,-19,1114,591,-18,11
683,82,-125,1040,609,-20,14
684,-38,-116,965,630,-10,2
685,38,-152,1022,656,-11,4
686,-68,-137,945,678,-12,3
687,46,-108,1078,704,-16,-20
688,-13,-148,951,730,-19,-31
689,53,-113,1049,755,-7,-26
690,-72,-114,974,781,-6,-22
691,-53,-123,1053,803,-7,-5
692,-77,-87,953,827,-17,-14
693,18,-117,1056,854,-24,-26
694,40,-76,907,872,-23,-32
695,101,-59,1071,892,-10,-37
696,20,-33,936,905,2,-34
697,-17,-15,1058,918,6,-26
698,-80,-6,948,929,0,-25
699,-65,-5,1037,935,-9,-23
700,-27,15,922,940,-18,-31
701,19,9,1016,948,-20,-37
702,55,55,935,948,-16,-37
703,24,55,1032,948,-7,-38
704,-9,69,956,946,-2,-30
705,-60,64,1027,943,-2,-20
706,-42,68,961,945,-11,-17
707,-29,70,988,942,-17,-21
708,40,82,936,940,-18,-31
709,41,90,995,935,-14,-41
710,47,115,962,928,-4,-41
711,-18,98,1006,921,3,-37
712,-35,104,984,917,3,-25
713,-53,104,1001,914,-3,-18
714,-8,117,953,908,-10,-21
715,7,118,951,902,-13,-29
716,58,145,964,893,-11,-36
717,20,163,982,880,0,-38
718,0,161,985,866,7,-31
719,-68,155,990,856,7,-23
720,-47,156,988,847,-2,-15
721,-34,159,949,835,-11,-17
722,27,157,958,826,-13,-26
723,47,179,955,810,-10,-32
724,46,191,992,796,0,-29
725,-5,190,976,782,7,-22
726,-51,192,993,768,9,-13
727,-57,188,972,754,2,-10
728,-30,182,971,741,-9,-17
729,19,175,941,726,-13,-27
730,61,189,968,715,-9,-32
731,50,213,971,700,1,-27
732,2,214,998,683,9,-17
733,-59,219,978,665,13,-11
734,-62,210,982,650,4,-11
735,-38,202,953,635,-6,-18
736,20,196,963,621,-11,-26
737,56,219,957,606,-7,-31
738,46,231,987,593,2,-25
739,3,235,978,572,9,-16
740,-54,234,988,556,12,-10
741,-62,233,969,538,4,-9
742,-43,213,972,521,-5,-14
743,16,212,956,509,-11,-22
744,56,229,958,494,-10,-25
745,48,244,971,478,0,-20
746,-1,260,991,458,11,-10
747,-54,259,982,438,14,-4
748,-68,253,977,420,7,-2
749,-51,242,948,401,-5,-10
750,12,237,956,385,-12,-19
751,52,263,962,368,-12,-21
752,49,272,976,346,0,-16
753,3,281,980,326,9,-7
754,-48,285,978,301,12,2
755,-64,283,964,278,6,2
756,-46,269,963,255,-4,-7
757,15,267,956,237,-12,-16
758,63,281,957,217,-8,-17
759,60,297,968,191,2,-14
760,15,313,979,165,13,-3
761,-40,322,977,134,18,4
762,-67,313,972,109,9,3
763,-51,305,943,80,-1,-5
764,11,303,953,54,-8,-14
765,55,320,957,26,-6,-17
766,57,334,977,-4,3,-11
767,12,352,968,-38,14,-3
768,-41,356,974,-72,20,6
769,-65,350,957,-108,15,9
770,-53,331,954,-142,6,1
771,5,334,946,-172,-5,-5
772,45,340,956,-206,-3,-10
773,61,345,966,-238,3,-7
774,19,361,968,-274,17,3
775,-31,356,973,-313,24,13
776,-69,336,965,-348,19,17
777,-56,309,950,-381,7,12
778,-1,302,947,-406,-2,-2
779,50,304,955,-435,-2,-7
780,66,306,973,-463,6,-2
781,25,322,978,-491,19,8
782,-33,313,971,-522,26,17
783,-79,302,963,-554,20,18
784,-72,281,947,-581,8,13
785,-19,278,947,-605,-3,3
786,18,286,959,-629,-5,-3
787,39,287,964,-657,1,0
788,10,294,976,-685,9,7
789,-36,290,975,-714,12,18
790,-65,271,960,-742,9,24
791,-41,257,953,-768,0,19
792,22,254,952,-789,-9,14
793,73,272,946,-814,-6,6
794,90,288,966,-838,3,3
795,56,313,963,-872,15,8
796,-5,313,984,-903,23,12
797,-67,296,953,-938,22,16
798,-76,266,943,-971,12,14
799,-43,251,941,-998,1,6
800,2,241,941,-1024,-6,2
801,44,234,957,-1049,-4,4
802,22,241,974,-1072,6,13
803,-13,219,981,-1099,15,25
804,-56,188,968,-1121,14,27
805,-43,154,958,-1134,5,24
806,3,132,955,-1144,-4,16
807,47,112,956,-1150,-4,4
808,71,108,967,-1157,5,5
809,44,115,981,-1163,19,11
810,-14,90,995,-1168,28,19
811,-75,71,987,-1170,25,24
812,-73,35,977,-1166,14,19
813,-27,11,957,-1160,4,11
814,26,1,965,-1150,-1,3
815,64,14,983,-1140,5,4
816,42,29,996,-1132,18,11
817,-6,24,992,-1127,27,19
818,-65,15,996,-1121,25,20
819,-57,-2,986,-1113,15,16
820,-22,-15,970,-1102,7,6
821,33,-18,969,-1092,6,0
822,59,2,985,-1084,11,1
823,39,24,992,-1080,23,7
824,-15,22,994,-1076,29,13
825,-69,13,993,-1074,27,17
826,-59,-12,991,-1071,18,14
827,-23,-31,975,-1061,11,8
828,27,-20,970,-1053,7,2
829,59,16,983,-1047,12,-1
830,34,44,988,-1048,23,3
831,-22,57,985,-1056,28,12
832,-81,63,978,-1064,26,16
833,-78,53,968,-1075,15,17
834,-45,40,966,-1084,6,12
835,25,45,972,-1091,2,10
836,65,63,971,-1102,8,11
837,46,70,977,-1115,17,12
838,-11,63,974,-1132,24,21
839,-67,48,978,-1149,23,28
840,-67,16,964,-1163,15,36
841,-448,-1043,1489,-1113,-6,28
842,-4,-1314,1738,-579,-143,-15
843,379,43,439,-348,-78,23
844,312,353,-198,-399,7,-9
845,175,-652,989,-439,58,67
846,163,-811,1778,-274,36,28
847,-264,-7,920,-254,36,-21
848,74,385,104,-334,32,-18
849,-180,-678,1283,-341,19,-7
850,-120,-124,1171,-212,-2,42
851,-159,-61,1002,-246,-12,-15
852,38,-11,708,-267,-12,-13
853,-225,-331,1111,-267,3,16
854,8,-101,1074,-209,-23,-22
855,-133,-141,913,-235,-3,-40
856,55,-90,811,-206,-6,-48
857,-10,-290,1040,-172,-8,-41
858,65,-55,972,-134,-12,-20
859,17,-230,993,-151,-6,-20
860,7,-86,906,-105,0,-11
861,-73,-130,993,-98,0,-13
862,-14,-77,976,-78,-9,-16
863,-13,-69,1001,-78,-8,-20
864,33,-21,959,-67,-5,-24
865,-3,-78,1005,-70,-2,-16
866,6,-16,997,-63,-8,-7
867,-42,-42,1024,-69,-7,-1
868,-32,18,995,-71,-10,-10
869,-23,9,1025,-78,-7,-23
870,15,47,1002,-87,-5,-28
871,24,27,1033,-102,-5,-25
872,45,44,1029,-110,-4,-12
873,3,47,1044,-135,-2,1
874,-18,85,1032,-151,-1,4
875,-40,81,1053,-171,0,-2
876,-31,123,1042,-196,-1,-12
877,0,120,1053,-226,-2,-18
878,20,130,1044,-255,-1,-15
879,26,123,1060,-288,-1,-5
880,5,127,1066,-319,-1,7
881,-25,124,1079,-353,-1,10
882,-47,144,1055,-386,-4,5
883,-38,131,1055,-420,-5,-7
884,-1,142,1044,-450,-6,-15
885,11,108,1050,-484,-5,-12
886,27,95,1043,-515,-7,-2
887,3,72,1054,-541,-6,11
888,-26,67,1047,-563,-9,15
889,-53,64,1030,-587,-11,10
890,-33,52,1024,-606,-13,-3
891,-11,51,1021,-623,-13,-10
892,11,24,1009,-642,-13,-10
893,31,-6,1017,-655,-14,-1
894,7,-6,1013,-669,-15,12
895,-16,-30,1025,-679,-14,19
896,-37,-29,1004,-685,-13,15
897,-30,-31,1004,-690,-12,5
898,0,-37,981,-694,-13,-5
899,21,-71,981,-700,-11,-3
900,31,-93,983,-699,-10,5
901,4,-115,986,-697,-8,19
902,-19,-127,978,-688,-10,26
903,-42,-131,974,-680,-11,25
904,-30,-126,968,-668,-9,15
905,-8,-137,962,-660,-8,4
906,18,-158,949,-650,-6,-2
907,20,-178,950,-637,-5,6
908,2,-194,946,-619,-5,16
909,-22,-224,963,-597,-7,25
910,-53,-200,958,-573,-7,26
911,-33,-200,957,-551,-9,14
912,-5,-200,937,-534,-7,3
913,12,-217,928,-513,-4,-1
914,28,-232,939,-489,-2,0
915,0,-251,947,-467,1,10
916,-33,-257,938,-438,-2,17
917,-56,-257,939,-407,-7,17
918,-34,-252,942,-376,-9,10
919,-12,-248,923,-346,-8,6
920,15,-259,907,-314,-8,12
921,38,-267,926,-282,-10,22
922,22,-275,936,-254,-6,38
923,-3,-296,944,-222,-7,49
924,-35,-281,935,-184,-7,53
925,-38,-265,930,-150,-9,54
926,-17,-253,925,-121,-13,51
927,21,-255,933,-94,-12,46
928,32,-258,938,-71,-6,41
929,12,-272,944,-48,-1,35
930,-21,-294,946,-20,2,27
931,-60,-285,932,13,6,16
932,-53,-275,935,45,4,1
933,-36,-265,931,74,2,-14
934,7,-272,926,102,2,-27
935,31,-280,915,133,6,-31
936,7,-296,915,167,11,-24
937,-19,-303,930,201,9,-15
938,-45,-296,945,238,5,-13
939,-33,-269,941,272,2,-17
940,-14,-258,927,299,1,-31
941,22,-263,916,332,5,-40
942,23,-268,913,363,11,-41
943,6,-282,924,398,12,-30
944,-20,-286,944,430,8,-20
945,-47,-258,943,459,6,-15
946,-31,-242,939,490,1,-22
947,-17,-229,938,516,3,-36
948,19,-215,929,543,7,-45
949,32,-226,926,565,11,-46
950,17,-234,935,597,13,-38
951,-19,-229,945,620,12,-27
952,-42,-212,957,645,4,-21
953,-31,-188,955,665,1,-24
954,-15,-174,952,687,4,-35
955,20,-158,935,707,8,-47
956,27,-164,934,727,16,-57
957,-1,-175,934,755,22,-63
958,-41,-178,953,780,24,-67
959,-73,-163,955,803,18,-76
960,-66,-150,953,823,13,-88
961,-37,-136,938,843,15,-109
962,7,-130,935,865,21,-131
963,19,-137,929,887,30,-150
964,0,-161,939,915,35,-160
965,-34,-147,935,944,33,-165
966,-71,-147,954,965,30,-175
967,-71,-131,956,984,24,-186
968,-58,-128,944,1001,21,-202
969,-11,-112,927,1021,21,-216
970,9,-115,930,1044,23,-231
971,-11,-123,940,1070,23,-237
972,-41,-112,955,1088,24,-240
973,-70,-109,964,1106,18,-243
974,-70,-77,952,1116,13,-251
975,-59,-79,946,1131,12,-265
976,45,10,971,1150,10,-280
977,450,1672,1840,987,-4,-202
978,153,447,1008,258,-6,38
979,58,-40,-200,240,61,-4
980,-97,74,221,331,21,-116
981,16,749,1838,333,6,-115
982,-217,-184,1116,277,0,-88
983,-81,-503,612,436,-38,-20
984,92,307,810,485,-41,29
985,-26,-106,1360,344,33,12
986,-282,-192,742,381,24,26
987,-54,9,1209,475,-59,60
988,65,-111,925,450,-51,13
989,23,-145,997,457,-4,13
990,87,-131,927,488,-23,22
991,71,-90,1215,519,-20,3
992,71,-151,834,535,-1,-10
993,-14,-172,1117,568,3,-23
994,-84,-118,929,588,0,-8
995,-150,-189,1090,619,-5,-7
996,-65,-192,948,653,-30,-12
997,-6,-169,1057,689,-35,-6
998,79,-179,955,720,-26,-9
999,22,-141,1064,756,-20,-9
1000,41,-108,956,780,-13,-6
1001,-54,-119,1066,806,-9,-20
1002,-47,-106,964,830,-17,-16
1003,-64,-114,1017,855,-23,-18
1004,19,-78,991,876,-30,-24
1005,-4,-71,984,896,-27,-24
1006,60,-41,973,910,-19,-28
1007,-14,-1,1014,920,-15,-27
1008,-21,10,996,925,-11,-19
1009,-86,10,996,930,-18,-18
1010,-36,32,982,938,-28,-17
1011,-17,56,969,936,-33,-22
1012,38,74,977,931,-28,-30
1013,16,92,958,923,-21,-30
1014,20,116,990,912,-13,-24
1015,-45,121,989,902,-13,-20
1016,-48,120,1001,894,-15,-8
1017,-64,117,968,879,-23,-8
1018,-10,130,982,871,-28,-11
1019,3,142,938,852,-25,-14
1020,40,139,975,836,-23,-19
1021,15,158,956,819,-14,-19
1022,-2,144,1017,802,-9,-11
1023,-42,137,980,791,-8,-1
1024,-40,118,1005,783,-12,8
1025,-22,132,944,772,-13,12
1026,0,133,959,761,-8,12
1027,26,158,941,746,-2,11
1028,21,153,999,727,8,15
1029,-1,153,985,714,11,21
1030,-35,131,1019,705,10,30
1031,-22,127,976,702,2,33
1032,5,135,983,700,-3,32
1033,45,145,942,694,-2,25
1034,57,154,966,682,3,18
1035,57,171,974,669,9,12
1036,13,163,1020,657,11,8
1037,0,153,999,649,8,8
1038,-9,135,986,645,3,3
1039,25,153,952,643,-3,-7
1040,46,169,949,633,-4,-20
1041,77,181,965,620,0,-31
1042,47,197,987,608,10,-33
1043,11,197,1004,595,18,-29
1044,-46,197,990,583,18,-19
1045,-48,206,966,568,10,-14
1046,-22,216,955,550,2,-23
1047,24,230,955,529,1,-33
1048,53,246,956,509,5,-38
1049,39,269,986,483,13,-35
1050,-16,276,990,459,22,-23
1051,-53,274,984,435,21,-11
1052,-60,277,964,407,13,-8
1053,-12,289,943,379,2,-16
1054,30,292,942,348,1,-28
1055,61,304,965,317,6,-31
1056,35,318,981,284,17,-24
1057,-16,311,991,252,24,-15
1058,-61,311,971,221,22,-5
1059,-54,294,958,188,12,-6
1060,-9,300,945,158,6,-17
1061,33,306,950,128,5,-24
1062,60,311,962,95,9,-25
1063,27,331,985,60,19,-18
1064,-24,326,986,25,26,-7
1065,-65,316,972,-8,23,-1
1066,-59,301,955,-39,13,-4
1067,-11,301,944,-71,5,-11
1068,39,308,946,-102,5,-18
1069,57,306,971,-135,11,-15
1070,24,328,980,-170,23,-5
1071,-36,321,996,-206,30,5
1072,-66,305,963,-239,25,12
1073,-53,287,953,-269,16,8
1074,3,286,945,-296,7,0
1075,38,287,955,-326,6,-7
1076,66,291,970,-357,12,-8
1077,26,293,988,-385,24,1
1078,-19,292,986,-416,29,13
1079,-64,269,979,-445,28,19
1080,-45,257,957,-473,20,21
1081,7,245,951,-502,13,19
1082,47,245,951,-529,16,26
1083,44,261,968,-554,24,38
1084,7,271,993,-588,33,54
1085,-31,255,990,-626,35,80
1086,-43,230,975,-662,37,114
1087,-37,209,954,-698,37,147
1088,-4,209,950,-729,38,172
1089,9,216,945,-762,40,193
1090,16,222,965,-793,40,215
1091,-8,243,982,-824,45,241
1092,-36,233,991,-860,48,270
1093,-51,224,976,-897,50,301
1094,-39,199,958,-932,49,328
1095,-15,203,936,-967,48,351
1096,3,204,939,-999,48,370
1097,2,212,952,-1028,45,389
1098,-22,228,970,-1056,44,404
1099,-56,214,981,-1088,42,418
1100,-72,201,976,-1113,39,429
1101,-64,172,952,-1138,38,433
1102,-35,171,942,-1155,33,429
1103,-17,184,937,-1165,28,418
1104,-7,185,966,-1181,22,401
1105,-20,196,972,-1196,22,380
1106,-39,173,994,-1209,22,367
1107,-46,151,967,-1219,20,353
1108,-36,126,961,-1227,17,337
1109,5,121,936,-1236,12,312
1110,22,122,966,-1237,9,279
1111,40,120,977,-1234,9,248
1112,14,117,993,-1238,15,222
1113,-16,101,982,-1237,19,199
1114,-40,69,974,-1240,15,182
1115,-21,46,956,-1240,8,165
1116,11,33,970,-1233,4,141
1117,44,37,972,-1226,3,114
1118,51,28,995,-1221,7,90
1119,30,26,995,-1212,15,74
1120,-24,15,990,-1209,17,66
1121,-37,-5,975,-1208,14,59
1122,-38,-15,970,-1201,8,50
1123,17,-3,972,-1195,3,39
1124,39,3,982,-1191,4,22
1125,51,16,988,-1188,11,11
1126,4,34,979,-1192,18,7
1127,-43,25,984,-1198,18,9
1128,-68,18,966,-1208,13,15
1129,-397,-942,1454,-1168,-1,4
1130,-40,-1133,1804,-685,-135,-30
1131,413,381,585,-526,-64,-26
1132,401,357,-26,-676,37,-87
1133,-175,-720,1358,-719,77,-34
1134,90,-239,1643,-583,0,-86
1135,-153,181,835,-636,33,-143
1136,-121,223,303,-721,54,-104
1137,-265,-534,1302,-661,5,-73
1138,-111,290,1086,-562,-45,-83
1139,-11,101,994,-684,-19,-153
1140,19,-147,982,-709,13,-137
1141,-260,47,1055,-674,-1,-97
1142,51,183,969,-706,-45,-118
1143,4,-37,1131,-760,-21,-105
1144,3,186,1001,-763,-15,-91
1145,81,42,1072,-810,-27,-98
1146,85,124,1023,-830,-15,-59
1147,-26,64,1066,-866,-13,-37
1148,9,88,1052,-898,-23,-23
1149,-60,51,1070,-934,-22,-8
1150,-18,109,996,-952,-27,-12
1151,12,31,1023,-984,-27,-22
1152,26,22,1001,-995,-21,-17
1153,15,-39,1004,-1010,-21,-12
1154,10,-72,979,-1016,-24,4
1155,-25,-113,983,-1013,-26,12
1156,-2,-118,970,-1009,-28,11
1157,4,-156,958,-996,-25,0
1158,45,-167,930,-983,-19,-3
1159,59,-211,925,-965,-12,-2
1160,65,-252,925,-939,-7,12
1161,20,-267,925,-909,-2,27
1162,-5,-268,933,-879,-2,36
1163,-20,-261,936,-847,-4,33
1164,-14,-241,919,-816,-2,24
1165,23,-243,915,-789,2,12
1166,40,-252,924,-764,9,12
1167,28,-270,925,-735,13,15
1168,-6,-278,940,-706,15,26
1169,-45,-254,943,-678,11,29
1170,-40,-233,949,-655,7,25
1171,-23,-221,939,-632,8,13
1172,17,-219,942,-610,11,3
1173,26,-224,930,-590,15,2
1174,11,-253,947,-569,16,12
1175,-16,-245,954,-546,14,21
1176,-50,-235,960,-527,10,29
1177,-40,-211,949,-508,5,20
1178,-25,-209,953,-489,7,10
1179,9,-205,947,-473,10,0
1180,18,-229,944,-458,14,-1
1181,0,-248,940,-436,13,10
1182,-30,-262,950,-416,9,22
1183,-55,-251,955,-394,4,28
1184,-37,-242,952,-371,0,18
1185,-19,-246,945,-351,2,3
1186,18,-259,930,-328,8,-7
1187,25,-285,918,-303,13,-6
1188,2,-310,921,-272,11,5
1189,-25,-319,939,-243,7,18
1190,-53,-309,936,-213,3,22
1191,-35,-297,926,-180,0,12
1192,-15,-294,929,-150,4,-2
1193,18,-304,918,-118,10,-13
1194,22,-320,913,-87,13,-15
1195,3,-328,911,-51,14,-6
1196,-27,-338,933,-21,9,6
1197,-54,-318,931,14,5,8
1198,-47,-308,934,46,2,0
1199,-21,-293,925,78,0,-15
1200,14,-303,913,108,6,-23
1201,25,-304,909,141,8,-22
1202,0,-310,920,176,7,-20
1203,-8,-307,941,214,5,-23
1204,-46,-285,939,245,8,-28
1205,-46,-280,944,273,9,-38
1206,-29,-272,930,300,7,-53
1207,11,-269,907,332,8,-65
1208,19,-269,904,366,12,-73
1209,-4,-279,927,399,16,-77
1210,-42,-295,949,426,15,-79
1211,-75,-266,950,454,13,-82
1212,-64,-254,945,477,7,-89
1213,-28,-243,926,500,6,-99
1214,8,-244,917,528,7,-108
1215,20,-247,919,557,12,-117
1216,-12,-255,941,585,16,-117
1217,-47,-254,946,611,17,-122
1218,-78,-241,952,637,14,-129
1219,-61,-221,944,660,10,-140
1220,-39,-212,926,683,9,-156
1221,0,-217,911,712,11,-171
1222,6,-227,921,744,17,-189
1223,-23,-226,930,775,23,-199
1224,-55,-239,939,802,24,-207
1225,-75,-224,949,831,20,-217
1226,-58,-207,946,856,17,-229
1227,-23,-184,920,879,17,-246
1228,7,-207,916,905,25,-264
1229,12,-193,918,935,31,-275
1230,-21,-200,934,963,35,-281
1231,-44,-204,943,988,32,-284
1232,-74,-186,961,1009,29,-284
1233,-48,-164,953,1025,24,-288
1234,-12,-150,936,1038,22,-296
1235,18,-148,921,1058,22,-303
1236,23,-149,940,1078,26,-305
1237,-8,-143,942,1097,27,-301
1238,-36,-151,975,1113,22,-293
1239,-47,-125,967,1123,17,-284
1240,-28,-108,965,1130,12,-279
1241,12,-93,955,1137,10,-280
1242,28,-104,955,1142,14,-278
1243,37,-106,947,1152,17,-272
1244,1,-99,958,1167,17,-259
1245,-30,-98,971,1177,13,-249
1246,-47,-95,984,1182,8,-243
1247,-32,-72,960,1190,4,-242
1248,2,-61,945,1195,5,-247
1249,21,-76,940,1209,7,-252
1250,21,-74,940,1224,9,-254
1251,179,932,1437,1226,13,-237
1252,319,1164,1729,619,-33,-9
1253,55,-227,5,309,42,119
1254,109,-250,-251,448,57,79
1255,-215,776,1411,535,28,84
1256,-43,96,1545,410,-12,65
1257,-243,-392,747,495,-13,55
1258,32,107,543,626,-41,74
1259,-53,136,1337,519,-12,22
1260,-55,-189,946,466,11,0
1261,-92,-200,996,578,-26,55
1262,184,-6,1053,600,-47,48
1263,19,-148,985,595,-4,-5
1264,110,-173,903,616,3,-11
1265,-23,-86,1134,657,-11,-26
1266,7,-145,1009,678,6,-15
1267,-147,-182,981,697,8,-16
1268,-45,-161,1011,739,-17,-14
1269,-43,-170,972,768,-25,-16
1270,86,-142,1035,796,-20,-31
1271,17,-141,998,830,-15,-29
1272,53,-87,1026,850,-3,-19
1273,-75,-92,994,874,0,-29
1274,-41,-73,1003,896,-5,-19
1275,-68,-52,964,908,-13,-26
1276,19,-44,1028,927,-20,-36
1277,16,0,927,935,-22,-33
1278,64,17,1035,940,-14,-36
1279,-25,51,952,939,-5,-34
1280,-48,61,1018,937,-4,-24
1281,-94,61,956,933,-14,-24
1282,-47,76,1001,931,-23,-19
1283,3,88,929,920,-28,-23
1284,47,102,1012,915,-25,-28
1285,45,128,948,902,-20,-24
1286,6,130,1017,890,-11,-20
1287,-53,138,957,875,-9,-13
1288,-74,118,1006,863,-16,-5
1289,-59,110,942,853,-27,-7
1290,7,109,987,842,-34,-11
1291,60,120,950,833,-31,-18
1292,54,111,1006,824,-21,-19
1293,25,127,964,814,-10,-12
1294,-42,110,1011,809,-7,-6
1295,-54,111,971,801,-12,-5
1296,-48,91,990,797,-22,-11
1297,31,91,958,795,-28,-21
1298,62,99,982,791,-22,-27
1299,78,106,968,788,-12,-27
1300,21,110,1005,785,1,-21
1301,-28,121,989,781,6,-12
1302,-62,116,996,777,-1,-14
1303,-35,117,969,776,-12,-22
1304,21,115,966,771,-17,-33
1305,72,139,959,765,-12,-41
1306,45,150,981,757,0,-39
1307,12,162,989,747,11,-30
1308,-63,170,994,738,12,-20
1309,-63,172,977,730,3,-15
1310,-52,171,967,718,-6,-22
1311,25,175,959,705,-13,-31
1312,53,195,957,690,-10,-37
1313,53,206,977,677,0,-34
1314,-1,213,985,660,11,-25
1315,-55,219,994,643,12,-16
1316,-73,214,975,626,5,-10
1317,-36,212,965,611,-7,-17
1318,20,208,941,593,-12,-27
1319,64,232,962,577,-9,-30
1320,46,246,975,556,2,-29
1321,-4,245,1000,534,11,-19
1322,-68,261,972,516,12,-8
1323,-64,253,980,495,2,-7
1324,-30,256,947,470,-8,-14
1325,24,254,949,449,-12,-24
1326,66,284,955,425,-8,-27
1327,42,302,979,397,2,-20
1328,-1,308,976,368,13,-12
1329,-65,310,989,339,14,-3
1330,-62,307,964,306,3,1
1331,-26,302,952,278,-6,-8
1332,37,305,934,248,-10,-19
1333,71,318,956,217,-5,-21
1334,51,344,970,184,8,-15
1335,-8,342,990,148,19,-4
1336,-55,341,979,112,19,5
1337,-61,328,963,78,10,2
1338,-14,325,930,45,0,-6
1339,34,325,940,13,-5,-18
1340,69,343,960,-23,0,-18
1341,31,358,973,-60,14,-10
1342,-19,356,983,-98,23,2
1343,-71,348,974,-136,23,9
1344,-54,330,956,-174,12,7
1345,-11,321,938,-205,3,-1
1346,47,320,946,-237,0,-10
1347,68,328,965,-272,5,-10
1348,37,344,976,-306,19,-3
1349,-26,329,992,-341,28,8
1350,-62,317,972,-379,27,16
1351,-56,297,952,-407,17,15
1352,-5,301,940,-436,7,5
1353,36,304,948,-467,6,-5
1354,67,308,966,-496,8,-8
1355,28,319,981,-533,22,3
1356,-19,309,991,-563,29,16
1357,-70,292,964,-594,28,22
1358,-50,272,948,-627,19,18
1359,-11,268,940,-649,10,8
1360,39,269,955,-674,7,0
1361,52,270,958,-703,14,-2
1362,18,274,989,-727,24,7
1363,-39,272,980,-759,29,19
1364,-61,251,974,-788,25,30
1365,-44,224,945,-815,14,35
1366,16,221,945,-843,7,40
1367,42,226,937,-867,9,49
1368,38,232,980,-893,17,57
1369,-2,252,975,-921,24,70
1370,-36,235,990,-954,28,90
1371,-55,220,956,-987,24,112
1372,-46,200,948,-1015,21,127
1373,-9,207,934,-1042,16,137
1374,7,219,955,-1065,16,138
1375,20,224,961,-1090,18,136
1376,-8,230,981,-1116,25,139
1377,-37,219,968,-1140,27,147
1378,-55,198,966,-1170,26,156
1379,-42,175,942,-1194,22,162
1380,-7,170,939,-1214,17,163
1381,19,179,952,-1233,18,157
1382,20,180,969,-1250,19,149
1383,-4,186,970,-1270,24,148
1384,-44,166,976,-1292,24,153
1385,-52,137,957,-1315,22,158
1386,-44,110,947,-1329,17,162
1387,2,102,944,-1341,11,160
1388,24,98,957,-1352,13,152
1389,23,88,974,-1359,15,146
1390,-5,77,982,-1365,18,143
1391,-41,48,985,-1373,20,146
1392,-41,21,959,-1378,17,148
1393,-19,3,963,-1376,13,144
1394,29,1,964,-1371,11,134
1395,56,21,974,-1366,14,120
1396,38,24,978,-1360,20,107
1397,-3,30,986,-1358,25,96
1398,-54,29,977,-1361,23,91
1399,-59,13,967,-1361,17,86
1400,-37,13,962,-1359,8,74
1401,15,18,970,-1359,4,58
1402,48,40,966,-1360,6,38
1403,37,49,978,-1362,11,24
1404,-409,-715,1350,-1349,12,14
1405,-137,-1327,1913,-859,-142,-32
1406,427,505,733,-622,-88,-59
1407,536,533,-92,-827,51,-153
1408,-169,-699,1114,-899,103,-97
1409,85,-311,1687,-723,0,-71
1410,-101,152,904,-732,10,-164
1411,-10,415,295,-836,37,-144
1412,-206,-691,1334,-837,16,-104
1413,-282,203,1193,-698,-10,-45
1414,-253,299,809,-813,-24,-143
1415,132,-133,968,-878,-33,-180
1416,-190,-85,1143,-833,1,-117
1417,-67,175,974,-847,-24,-114
1418,-24,-102,1035,-915,-33,-126
1419,-85,52,972,-901,-23,-63
1420,-16,-42,1065,-929,-55,-75
1421,125,49,1041,-939,-52,-59
1422,57,-25,992,-964,-30,-52
1423,109,1,982,-970,-24,-44
1424,10,-71,1001,-982,-18,-19
1425,-22,-54,1006,-978,-22,5
1426,-77,-61,995,-994,-31,5
1427,-44,-87,987,-989,-36,-2
1428,-41,-82,957,-984,-35,-26
1429,6,-128,949,-979,-31,-34
1430,8,-172,943,-970,-30,-45
1431,13,-203,954,-957,-25,-40
1432,-17,-263,939,-934,-21,-50
1433,-34,-260,933,-900,-18,-49
1434,-37,-257,905,-868,-23,-58
1435,18,-271,925,-837,-22,-66
1436,33,-258,908,-807,-16,-78
1437,75,-284,917,-782,-6,-85
1438,51,-301,899,-749,5,-88
1439,31,-340,927,-707,12,-75
1440,-11,-315,901,-661,11,-59
1441,-12,-304,921,-618,-2,-35
1442,25,-266,913,-584,-14,-21
1443,66,-269,940,-558,-13,-8
1444,80,-260,910,-531,-1,-5
1445,47,-286,926,-502,14,2
1446,-15,-287,933,-462,20,8
1447,-63,-286,956,-432,15,12
1448,-52,-267,946,-407,1,8
1449,-11,-253,936,-384,-6,5
1450,24,-249,904,-357,-2,2
1451,44,-276,919,-329,8,5
1452,11,-290,929,-299,16,9
1453,-32,-312,961,-268,15,14
1454,-50,-289,942,-235,8,13
1455,-40,-286,931,-209,3,9
1456,8,-263,906,-178,1,2
1457,28,-287,916,-149,8,0
1458,29,-311,924,-115,15,3
1459,-15,-333,936,-82,18,12
1460,-47,-334,931,-47,11,17
1461,-61,-318,930,-9,2,15
1462,-37,-304,909,26,-2,6
1463,5,-308,914,60,1,-6
1464,28,-319,912,97,7,-12
1465,20,-356,916,132,12,-9
1466,-14,-357,900,173,11,2
1467,-45,-363,915,219,8,8
1468,-50,-331,920,260,2,3
1469,-35,-320,915,297,3,-12
1470,15,-309,904,334,6,-26
1471,23,-315,902,371,12,-29
1472,21,-328,909,408,16,-22
1473,-18,-337,926,447,13,-11
1474,-49,-316,930,486,10,-6
1475,-48,-296,924,520,3,-13
1476,-29,-278,908,554,3,-26
1477,11,-276,913,590,6,-39
1478,31,-273,918,619,12,-40
1479,11,-294,922,651,14,-33
1480,-12,-284,931,684,12,-19
1481,-49,-255,931,714,6,-16
1482,-41,-232,939,743,2,-21
1483,-24,-211,938,767,4,-36
1484,17,-199,937,789,8,-48
1485,28,-201,921,810,13,-50
1486,10,-222,934,832,17,-39
1487,-24,-219,949,859,13,-31
1488,-63,-193,942,883,9,-27
1489,-51,-166,933,914,11,-51
1490,-48,-147,944,937,24,-82
1491,-33,-158,923,960,29,-118
1492,-30,-169,910,991,32,-142
1493,-50,-168,910,1025,31,-158
1494,-65,-182,945,1052,27,-168
1495,-82,-175,949,1073,21,-176
1496,-53,-168,955,1093,13,-186
1497,-7,-154,925,1113,12,-198
1498,24,-166,911,1137,16,-205
1499,33,-165,914,1168,24,-208
1500,0,-179,936,1193,25,-206
1501,-37,-175,939,1218,20,-201
1502,-69,-160,944,1240,14,-198
1503,-49,-142,943,1257,8,-201
1504,-19,-136,924,1278,6,-207
1505,10,-142,904,1303,6,-215
1506,22,-148,911,1330,8,-220
1507,-22,-159,918,1361,12,-220
1508,300,544,1310,1396,18,-216
1509,235,1488,1903,902,38,-48
1510,-268,-328,128,381,42,129
1511,-70,-417,-428,538,9,83
1512,21,476,848,682,-36,21
1513,251,311,1806,645,12,-20
1514,-307,-466,925,668,2,24
1515,35,-276,448,870,-61,114
1516,-17,256,1169,847,-25,82
1517,-98,-181,1108,723,41,33
1518,-248,-338,797,797,-13,40
1519,208,-57,1202,898,-83,46
1520,88,-171,986,907,-31,2
1521,91,-227,927,920,14,29
1522,-97,-109,981,974,-8,30
1523,-23,-133,1143,992,-14,17
1524,-80,-178,893,1016,-15,-14
1525,52,-185,1089,1068,-31,-22
1526,13,-112,878,1093,-28,-7
1527,66,-76,1093,1115,-13,-17
1528,-53,-57,907,1130,-9,-27
1529,-34,-21,1077,1143,-14,-24
1530,-88,-22,926,1158,-24,-35
1531,-54,-20,1038,1170,-32,-25
1532,-5,35,884,1173,-38,-28
1533,29,30,1055,1177,-36,-37
1534,34,86,884,1171,-31,-33
1535,11,78,1043,1168,-20,-36
1536,-33,107,932,1161,-17,-33
1537,-74,97,1025,1154,-23,-20
1538,-49,102,923,1147,-32,-26
1539,-22,115,1003,1142,-40,-31
1540,48,148,909,1125,-35,-37
1541,25,127,1005,1110,-24,-45
1542,22,172,919,1092,-18,-40
1543,-40,142,1016,1077,-13,-36
1544,-31,161,973,1066,-21,-31
1545,-64,140,1000,1056,-28,-28
1546,13,160,937,1046,-37,-37
1547,3,175,959,1029,-35,-53
1548,59,183,936,1006,-33,-70
1549,8,184,968,981,-22,-92
1550,19,169,985,965,-15,-106
1551,-40,157,993,949,-16,-109
1552,-15,152,984,947,-24,-113
1553,-15,173,954,937,-35,-122
1554,42,194,949,915,-35,-139
1555,23,200,931,896,-29,-166
1556,46,196,968,872,-20,-186
1557,-8,188,978,854,-10,-200
1558,-18,169,1013,843,-8,-199
1559,-53,170,967,838,-15,-194
1560,-5,177,975,836,-27,-194
1561,17,223,919,823,-36,-199
1562,50,224,963,804,-37,-209
1563,35,234,961,786,-28,-220
1564,15,216,1010,769,-22,-219
1565,-10,205,974,761,-23,-210
1566,-4,201,987,755,-29,-199
1567,29,222,939,743,-34,-196
1568,56,253,952,725,-30,-202
1569,43,264,935,699,-17,-212
1570,2,252,986,674,-6,-214
1571,-44,255,978,659,-4,-202
1572,-45,246,1008,651,-13,-179
1573,-15,264,960,641,-21,-153
1574,22,274,946,617,-21,-140
1575,50,316,909,593,-12,-137
1576,26,329,961,561,0,-134
1577,-6,332,981,529,6,-123
1578,-57,319,997,508,4,-97
1579,-36,306,975,489,2,-68
1580,-19,315,945,469,-1,-40
1581,25,331,916,439,3,-20
1582,22,368,944,405,12,-11
1583,-2,393,960,365,18,-7
1584,-41,377,975,324,18,-3
1585,-62,373,979,289,13,0
1586,-46,346,966,254,3,3
1587,0,338,936,221,-2,-1
1588,42,324,931,191,-2,-11
1589,74,336,955,162,3,-16
1590,39,346,969,133,15,-11
1591,-10,341,990,103,24,-1
1592,-69,337,982,71,23,8
1593,-62,319,958,43,12,8
1594,-24,313,934,16,2,-1
1595,30,315,937,-9,-3,-12
1596,60,327,956,-37,4,-15
1597,38,343,981,-65,15,-7
1598,-17,334,996,-94,22,5
1599,-57,322,976,-124,24,13
1600,-46,309,950,-150,17,12
1601,2,305,948,-177,8,4
1602,38,316,941,-201,7,-5
1603,56,330,959,-226,12,-9
1604,28,350,973,-256,22,-5
1605,-16,344,995,-290,29,7
1606,-49,340,968,-325,28,20
1607,-28,318,959,-366,22,36
1608,12,311,929,-404,18,52
1609,27,324,934,-438,27,65
1610,25,345,953,-471,32,77
1611,-8,363,980,-513,36,94
1612,-36,358,981,-556,38,112
1613,-57,339,967,-597,37,133
1614,-43,321,942,-639,35,152
1615,-4,316,932,-675,29,163
1616,14,333,934,-708,31,165
1617,16,337,962,-739,33,163
1618,-9,347,972,-771,35,162
1619,-48,327,973,-805,35,167
1620,-60,306,957,-837,29,175
1621,-52,269,943,-868,25,180
1622,-6,266,935,-891,20,177
1623,15,270,948,-913,17,169
1624,16,263,961,-934,17,160
1625,-14,270,970,-951,20,156
1626,-50,249,976,-971,19,155
1627,-63,226,972,-992,11,157
1628,-45,197,948,-1006,5,154
1629,-3,184,947,-1014,-2,143
1630,28,187,953,-1021,-3,127
1631,30,182,965,-1027,2,108
1632,9,173,982,-1033,3,95
1633,-31,149,993,-1036,3,86
1634,-37,127,983,-1039,-2,84
1635,-27,105,964,-1037,-7,76
1636,12,98,963,-1031,-12,64
1637,45,116,958,-1026,-11,47
1638,45,115,976,-1023,-3,33
1639,11,122,988,-1026,3,26
1640,-30,105,994,-1030,5,26
1641,-43,83,982,-1028,-1,28
1642,-21,68,981,-1022,-9,38
1643,20,65,975,-1015,-5,53
1644,41,90,960,-1013,3,72
1645,16,105,964,-1017,12,87
1646,-28,107,989,-1024,18,96
1647,-85,102,989,-1033,16,104
1648,-67,71,997,-1031,4,110
1649,-28,54,982,-1025,-7,126
1650,38,48,970,-1016,-9,148
1651,72,66,961,-1010,1,178
1652,47,81,974,-1010,17,207
1653,-11,86,983,-1016,30,228
1654,-92,80,998,-1019,34,244
1655,-105,65,993,-1025,19,254
1656,-78,45,983,-1022,3,264
1657,-14,44,970,-1012,-10,279
1658,28,67,980,-1009,-11,309
1659,16,72,978,-1012,0,341
1660,-30,57,974,-1014,13,372
1661,-74,42,992,-1014,18,406
1662,-93,28,1014,-1010,12,443
1663,-100,30,1002,-1004,-4,477
1664,-91,38,999,-999,-26,498
1665,-72,64,993,-997,-46,510
1666,-73,62,979,-1004,-56,517
1667,-82,36,986,-1012,-61,521
1668,-105,-3,998,-1016,-62,538
1669,-95,-31,1005,-1011,-73,560
1670,-84,-42,1009,-999,-91,583
1671,-62,-43,998,-986,-109,599
1672,-32,-33,995,-973,-124,606
1673,-39,-41,976,-965,-125,612
1674,-50,-73,991,-960,-121,619
1675,-70,-108,1001,-949,-118,633
1676,-64,-135,1012,-925,-124,655
1677,-57,-127,1018,-898,-138,675
1678,-43,-129,1015,-873,-154,683
1679,511,-928,1688,-795,-143,647
1680,193,-1232,1291,-477,-76,548
1681,-218,-823,642,-153,-116,492
1682,-303,-437,538,10,-219,486
1683,122,-322,1154,72,-262,558
1684,97,-127,1255,33,-196,572
1685,-360,-123,950,-12,-175,458
1686,-172,-69,885,-27,-247,306
1687,5,-251,1273,-78,-253,209
1688,-298,-301,852,-89,-225,111
1689,-164,-303,974,-60,-265,0
1690,-85,-292,1015,-30,-275,-86
1691,-164,-221,978,-22,-260,-151
1692,-52,-144,953,-17,-274,-244
1693,-10,-225,1086,-27,-269,-312
1694,-98,-166,908,-26,-255,-357
1695,-50,-238,1030,-12,-265,-416
1696,-92,-179,971,15,-265,-450
1697,-94,-130,1014,29,-278,-477
1698,-21,-64,1013,37,-296,-504
1699,-12,-40,1024,32,-303,-509
1700,16,-12,970,32,-310,-509
1701,19,-17,1011,36,-310,-491
1702,-8,29,988,41,-311,-456
1703,-12,50,1058,40,-329,-422
1704,-28,91,1031,34,-353,-378
1705,-6,103,1036,18,-386,-339
1706,31,102,1008,2,-406,-297
1707,32,68,985,-12,-415,-249
1708,46,54,978,-16,-415,-197
1709,30,44,1008,-14,-414,-146
1710,34,56,1018,-15,-418,-96
1711,30,60,1012,-18,-430,-57
1712,73,67,997,-24,-441,-32
1713,104,65,979,-31,-442,-19
1714,133,43,968,-36,-434,-5
1715,131,16,980,-38,-419,18
1716,106,0,980,-38,-400,43
1717,103,-7,1000,-37,-387,65
1718,101,-9,988,-39,-374,82
1719,122,-11,966,-39,-361,85
1720,158,0,954,-42,-342,79
1721,169,-25,966,-48,-315,67
1722,171,-52,980,-52,-286,58
1723,135,-66,976,-45,-262,53
1724,137,-64,989,-38,-245,52
1725,131,-40,985,-33,-230,44
1726,153,-26,967,-31,-217,28
1727,184,-16,966,-36,-200,3
1728,185,-39,961,-43,-170,-19
1729,170,-66,961,-43,-136,-36
1730,139,-69,980,-34,-106,-41
1731,141,-43,999,-27,-91,-43
1732,152,-21,990,-26,-78,-48
1733,160,-8,956,-32,-59,-57
1734,178,4,939,-36,-25,-74
1735,174,-19,957,-42,16,-91
1736,162,-34,975,-40,53,-107
1737,129,-34,1001,-38,81,-123
1738,116,-29,1001,-38,96,-138
1739,116,-22,981,-43,107,-150
1740,147,-33,969,-48,118,-161
1741,160,-48,958,-48,139,-163
1742,151,-43,945,-40,169,-159
1743,142,-38,985,-30,196,-156
1744,85,-18,1014,-28,217,-152
1745,106,-18,990,-42,232,-154
1746,94,-2,1004,-33,218,-149
1747,104,-19,976,-37,222,-144
1748,128,-29,967,-41,236,-136
1749,111,-33,956,-29,257,-126
1750,96,-39,993,-21,275,-117
1751,67,-21,1003,-15,285,-111
1752,56,-19,1015,-15,283,-103
1753,64,-10,1004,-22,273,-99
1754,85,-26,989,-25,271,-90
1755,103,-42,957,-24,281,-78
1756,104,-46,964,-15,298,-67
1757,76,-44,984,-4,315,-55
1758,56,-32,1009,4,322,-48
1759,44,-26,1014,3,317,-46
1760,54,-20,1006,-3,308,-44
1761,71,-29,980,-5,306,-42
1762,94,-46,963,-1,316,-36
1763,93,-47,958,8,333,-25
1764,70,-37,983,16,351,-13
1765,57,-24,1012,21,355,-6
1766,44,-16,1021,14,352,-3
1767,55,-7,991,13,349,-5
1768,62,-16,962,10,354,-11
1769,83,-37,962,8,373,-13
1770,75,-48,973,12,390,-7
1771,51,-38,1008,22,399,0
1772,10,-18,1018,24,396,5
1773,-23,6,1006,21,388,4
1774,-6,16,994,13,383,-2
1775,12,-2,990,4,382,-11
1776,26,-30,981,1,386,-14
1777,19,-51,989,7,393,-7
1778,-15,-41,1004,14,391,-1
1779,-47,-17,1026,18,381,7
1780,-72,2,1016,18,367,5
1781,-57,1,1006,9,352,-3
1782,-34,-2,990,5,344,-11
1783,-28,-37,994,1,341,-14
1784,-45,-36,994,6,338,-10
1785,-75,-30,1021,12,327,-2
1786,-102,-7,1030,13,311,3
1787,-119,3,1022,10,287,3
1788,-84,4,1018,5,265,-7
1789,-71,-9,986,-3,252,-12
1790,-57,-34,994,-2,244,-14
1791,-67,-44,1011,1,238,-9
1792,-109,-32,1022,8,224,0
1793,-116,-5,1034,11,200,4
1794,-132,3,1035,5,175,2
1795,-111,-1,1010,1,153,-6
1796,-86,-15,998,-5,135,-13
1797,-85,-37,993,-3,124,-15
1798,-95,-44,1024,0,110,-10
1799,-210,-15,1078,3,93,-3
1800,-312,18,1106,-1,31,1
1801,-182,15,917,-11,-17,-6
1802,-15,-20,983,-11,-27,-15
1803,11,-23,1013,-12,-22,-3
1804,1,-33,1042,-8,-31,0
1805,-101,-35,1000,-9,-40,13
1806,-170,-3,999,-1,-53,19
1807,-166,5,1055,-5,-78,14
1808,-197,-4,1036,-13,-111,10
1809,-148,0,1017,-17,-152,1
1810,-122,-22,1024,-23,-179,-3
1811,-146,-22,976,-22,-194,2
1812,-119,-28,1042,-15,-213,9
1813,-168,-21,1041,-15,-237,22
1814,-162,-11,1047,-11,-273,29
1815,-157,-2,1017,-14,-304,33
1816,-145,-12,1001,-20,-328,33
1817,-109,-20,999,-18,-350,36
1818,-109,-43,1020,-15,-365,46
1819,-128,-45,1012,-9,-378,68
1820,-147,-34,1027,-1,-395,97
1821,-153,-3,1014,5,-416,129
1822,-149,31,1027,3,-444,159
1823,-136,57,1009,-4,-472,176
1824,-117,45,1031,-14,-501,187
1825,-128,29,1009,-21,-523,200
1826,-137,-5,1039,-24,-546,215
1827,-154,-12,1018,-24,-569,237
1828,-147,-5,1026,-21,-598,263
1829,-111,22,1013,-20,-627,280
1830,-94,26,1012,-29,-652,289
1831,-57,17,999,-36,-673,290
1832,-56,-14,1015,-41,-684,289
1833,-65,-39,1002,-41,-693,293
1834,-74,-52,1014,-37,-708,302
1835,-56,-53,1001,-33,-722,311
1836,-32,-22,999,-27,-741,316
1837,-2,8,993,-28,-755,304
1838,9,-5,999,-38,-763,286
1839,13,-21,986,-46,-767,266
1840,-6,-52,1003,-49,-768,251
1841,-15,-52,1001,-46,-776,240
1842,-16,-44,998,-42,-790,228
1843,21,-19,988,-43,-806,209
1844,53,-9,993,-51,-818,182
1845,84,-25,986,-57,-820,147
1846,77,-56,979,-62,-814,115
1847,71,-72,982,-60,-805,89
1848,66,-73,987,-57,-799,73
1849,70,-52,983,-50,-799,55
1850,110,-23,980,-53,-801,35
1851,145,-9,976,-58,-799,8
1852,164,-29,968,-65,-787,-20
1853,167,-56,968,-69,-767,-42
1854,126,-62,960,-61,-740,-56
1855,123,-34,970,-51,-716,-75
1856,126,-4,984,-53,-692,-106
1857,161,-13,968,-63,-671,-143
1858,204,-20,956,-73,-647,-180
1859,215,-51,947,-79,-612,-211
1860,214,-70,954,-75,-576,-233
1861,199,-66,963,-66,-542,-248
1862,214,-65,987,-58,-505,-250
1863,204,-47,942,-52,-464,-247
1864,229,-34,932,-46,-425,-246
1865,277,-12,928,-42,-383,-240
1866,292,-35,971,-45,-339,-229
1867,282,-36,949,-41,-290,-209
1868,254,-46,973,-34,-244,-182
1869,254,-32,960,-28,-201,-150
1870,258,-15,955,-21,-158,-116
1871,285,-7,929,-21,-117,-89
1872,313,2,949,-22,-76,-64
1873,327,-7,945,-23,-28,-41
1874,308,-33,968,-21,19,-14
1875,281,-34,960,-10,66,18
1876,261,-39,960,-2,109,46
1877,269,-4,936,7,152,69
1878,289,-1,944,6,194,86
1879,325,0,940,3,235,97
1880,316,-16,951,4,278,106
1881,303,-35,960,8,323,115
1882,267,-47,969,13,367,126
1883,259,-34,946,23,408,135
1884,257,-16,947,25,444,138
1885,282,-4,935,24,479,134
1886,310,-11,948,20,515,127
1887,313,-23,957,16,551,122
1888,283,-54,967,16,589,121
1889,250,-60,959,23,623,122
1890,223,-59,957,31,652,123
1891,231,-28,942,32,677,123
1892,239,-18,952,30,700,117
1893,272,-22,954,26,722,111
1894,258,-33,969,19,746,107
1895,235,-57,969,20,770,106
1896,203,-58,969,25,790,110
1897,188,-50,962,29,808,112
1898,194,-18,961,31,820,111
1899,208,-6,955,27,833,105
1900,216,-15,967,19,845,97
1901,214,-26,976,15,857,90
1902,174,-43,984,19,871,89
1903,150,-44,977,24,882,92
1904,70,-36,968,23,890,92
1905,131,-19,987,28,877,88
1906,164,-8,979,26,879,89
1907,184,-15,973,24,884,84
1908,176,-24,961,23,898,82
1909,162,-41,983,26,913,90
1910,121,-32,969,33,930,103
1911,100,-23,966,37,943,120
1912,116,9,958,39,955,132
1913,138,22,967,33,971,138
1914,144,16,960,25,989,136
1915,136,4,963,21,1009,137
1916,107,-11,969,20,1031,144
1917,75,-14,970,20,1049,154
1918,60,-7,964,21,1063,161
1919,85,0,971,19,1073,164
1920,97,6,957,16,1086,159
1921,99,-13,967,15,1098,148
1922,-159,59,1019,20,1114,140
1923,-1797,5,1791,2,723,91
1924,-139,344,27,-85,-97,29
1925,775,-175,-279,-98,-51,-66
1926,-310,-52,1051,11,5,-4
1927,-96,-4,1611,12,46,68
1928,427,-305,648,-38,146,-58
1929,512,297,579,44,269,-9
1930,-458,-120,1575,-43,298,25
1931,375,-136,1216,-17,211,-8
1932,409,42,596,14,361,-4
1933,-36,-87,1462,-10,437,13
1934,-118,-95,1185,-1,422,-28
1935,270,17,858,7,482,-30
1936,-213,-121,1014,-7,548,-40
1937,-217,5,1197,19,518,-14
1938,-70,-22,846,-14,535,-28
1939,-94,-68,1081,-5,548,-17
1940,-139,61,937,-6,550,3
1941,-27,-46,1055,-29,544,8
1942,-83,23,900,-22,546,16
1943,-124,11,1031,-35,534,26
1944,-62,-45,901,-36,512,10
1945,-109,18,1042,-18,510,6
1946,-27,-23,913,-28,499,-22
1947,-36,-32,1031,-13,496,-22
1948,-11,14,940,-12,490,-27
1949,-79,-42,1032,-26,498,-15
1950,-74,-51,972,-23,482,-2
1951,-96,-46,1015,-23,482,9
1952,-44,-82,935,-20,476,0
1953,-39,-57,994,0,469,0
1954,10,-26,967,8,465,-7
1955,-26,-23,1033,5,475,-1
1956,-53,-6,991,0,479,10
1957,-97,-36,1019,-8,480,26
1958,-86,-41,950,-11,472,28
1959,-99,-54,971,-2,466,25
1960,-62,-32,943,6,454,14
1961,-79,-18,985,12,446,10
1962,-80,0,969,9,440,14
1963,-140,-6,993,0,432,27
1964,-158,-19,962,-11,419,42
1965,-176,-43,948,-16,402,49
1966,-143,-41,913,-10,377,44
1967,-127,-33,937,-2,358,34
1968,-105,-10,952,6,340,31
1969,-127,-9,983,2,328,37
1970,-149,-9,974,-9,318,52
1971,-188,-27,965,-17,303,66
1972,-172,-38,935,-20,282,72
1973,-162,-49,933,-14,263,65
1974,-118,-19,936,-2,244,55
1975,-134,-8,965,3,230,46
1976,-134,2,980,1,218,49
1977,-172,0,969,-9,207,58
1978,-189,-12,955,-16,190,69
1979,-189,-31,941,-19,171,70
1980,-156,-35,936,-12,152,60
1981,-124,-22,941,-2,134,46
1982,-114,-4,976,3,120,37
1983,-127,-1,976,1,109,37
1984,-156,-2,972,-8,100,48
1985,-185,-19,964,-17,88,60
1986,-170,-23,950,-20,69,63
1987,-147,-27,934,-15,50,54
1988,-120,-16,948,-9,35,44
1989,-119,12,953,-7,21,36
1990,-146,5,967,-10,6,36
1991,-179,1,962,-21,-8,49
1992,-199,-18,958,-31,-28,64
1993,-189,-29,941,-33,-48,71
1994,-164,-38,938,-31,-69,66
1995,-126,-44,933,-22,-90,59
1996,-128,-15,952,-13,-106,56
1997,-162,-3,957,-15,-124,56
1998,-178,-28,951,-24,-148,58
1999,-185,-41,927,-24,-171,60
2000,-175,-44,950,-19,-194,63
2001,-161,-29,936,-14,-216,56
2002,-141,-27,922,-11,-237,41
2003,-151,-9,892,-7,-265,25
2004,-192,-2,905,-5,-299,15
2005,-231,-11,899,-6,-339,6
2006,-243,-16,917,-6,-382,3
2007,-215,-16,910,-6,-419,1
2008,-199,-9,903,-5,-451,-7
2009,-184,-1,893,-7,-482,-16
2010,-193,2,897,-11,-518,-24
2011,-216,5,893,-16,-557,-23
2012,-242,-15,912,-23,-594,-15
2013,-238,-30,926,-25,-631,-3
2014,-210,-34,923,-23,-660,9
2015,-171,-21,927,-21,-682,12
2016,-162,-13,928,-19,-702,8
2017,-157,-14,931,-19,-723,4
2018,-178,-13,932,-18,-748,1
2019,-193,-35,952,-18,-772,4
2020,-188,-32,942,-15,-793,7
2021,-153,-33,953,-11,-809,2
2022,-116,-16,950,-4,-820,-13
2023,-102,2,956,0,-829,-31
2024,-113,12,946,2,-842,-49
2025,-132,12,946,-2,-859,-60
2026,-152,-6,936,-2,-881,-69
2027,-156,-24,950,2,-902,-74
2028,-145,-40,958,11,-920,-82
2029,-107,-38,954,26,-936,-96
2030,-87,-17,940,38,-949,-119
2031,-92,-11,946,48,-965,-139
2032,766,573,1397,54,-961,-153
2033,1803,230,1828,-197,-476,-74
2034,127,-710,164,-306,145,100
2035,-307,-613,-247,-51,117,239
2036,69,362,1350,122,-20,327
2037,134,-27,1477,-50,-91,338
2038,-533,-194,775,23,-134,223
2039,-321,155,772,98,-272,228
2040,-246,286,1318,40,-337,228
2041,-295,59,1011,-31,-334,195
2042,-456,27,979,-35,-423,187
2043,-122,146,1083,-37,-522,188
2044,-158,68,1123,-66,-561,156
2045,-67,21,955,-80,-588,144
2046,-90,-59,1042,-77,-624,142
2047,-45,-79,1014,-69,-624,150
2048,-144,-109,987,-60,-633,170
2049,-76,-95,1034,-37,-648,179
2050,-145,-73,966,-35,-664,193
2051,-46,-51,1026,-21,-680,185
2052,-113,-51,985,-25,-693,180
2053,-69,-59,1029,-21,-704,177
2054,-148,-66,990,-14,-719,180
2055,-89,-52,1063,-6,-744,190
2056,-117,-18,989,0,-767,202
2057,-60,1,1023,1,-792,203
2058,-52,30,967,-5,-812,203
2059,-3,5,1033,-12,-819,200
2060,-44,-21,967,-18,-822,204
2061,-28,-51,1026,-13,-829,221
2062,-22,-35,982,-4,-839,241
2063,28,-27,1028,2,-849,261
2064,35,3,949,3,-853,267
2065,90,3,994,-1,-858,263
2066,93,1,951,-8,-848,256
2067,102,-45,1010,-11,-833,254
2068,82,-55,954,-9,-816,258
2069,102,-61,998,2,-806,266
2070,132,-23,964,6,-800,273
2071,146,-9,983,5,-794,268
2072,174,2,946,4,-784,251
2073,162,-10,978,-5,-766,235
2074,157,-33,959,-9,-740,223
2075,133,-51,984,-10,-717,217
2076,144,-47,969,-5,-700,219
2077,158,-20,981,-2,-691,218
2078,193,6,956,-4,-683,209
2079,201,9,964,-11,-671,192
2080,204,5,949,-23,-648,173
2081,171,-20,965,-30,-619,156
2082,171,-29,974,-34,-593,154
2083,158,-32,975,-33,-575,150
2084,205,-9,970,-31,-564,146
2085,226,17,955,-36,-551,139
2086,253,7,960,-44,-533,123
2087,242,-3,957,-53,-506,107
2088,226,-37,980,-57,-473,98
2089,200,-53,972,-53,-445,95
2090,203,-42,978,-47,-426,99
2091,234,-26,971,-43,-412,91
2092,254,-6,962,-46,-395,77
2093,252,-13,941,-53,-370,55
2094,247,-42,975,-56,-339,31
2095,205,-66,966,-58,-307,16
2096,200,-77,982,-50,-283,7
2097,198,-58,981,-42,-267,-6
2098,227,-47,972,-41,-253,-18
2099,258,-34,946,-43,-232,-33
2100,258,-48,946,-44,-198,-46
2101,240,-57,955,-41,-158,-50
2102,206,-44,976,-30,-125,-49
2103,192,-24,1005,-25,-106,-51
2104,188,-3,987,-28,-93,-62
2105,201,-6,960,-37,-74,-83
2106,225,-25,940,-47,-49,-105
2107,236,-48,948,-50,-12,-122
2108,236,-62,962,-44,25,-135
2109,216,-59,994,-34,57,-140
2110,232,-50,997,-31,82,-145
2111,225,-54,963,-31,110,-142
2112,236,-44,925,-25,136,-145
2113,278,-30,949,-25,165,-149
2114,286,-39,958,-23,202,-147
2115,270,-53,977,-20,242,-140
2116,240,-50,969,-16,282,-127
2117,224,-47,964,-10,319,-112
2118,223,-18,940,-8,356,-100
2119,250,-9,945,-10,390,-95
2120,279,-7,949,-16,424,-93
2121,278,-17,956,-18,461,-90
2122,263,-41,971,-16,499,-85
2123,226,-54,968,-9,534,-75
2124,218,-53,952,-1,566,-64
2125,226,-31,956,7,594,-56
2126,246,-23,946,6,622,-53
2127,271,-24,947,5,651,-53
2128,265,-31,958,5,677,-54
2129,241,-50,975,6,707,-46
2130,207,-50,970,16,734,-34
2131,179,-51,960,21,755,-24
2132,195,-22,957,29,772,-18
2133,206,-8,947,27,789,-17
2134,234,-8,962,23,806,-20
2135,230,-12,967,19,826,-21
2136,199,-33,976,18,846,-18
2137,165,-32,966,26,864,-10
2138,147,-31,972,31,878,-1
2139,165,-2,956,33,889,2
2140,184,9,968,29,900,0
2141,197,4,961,21,911,-3
2142,187,-3,966,17,928,-9
2143,161,-18,972,20,947,-9
2144,136,-21,977,20,965,-4
2145,58,-13,970,22,979,-3
2146,105,-7,975,23,969,-8
2147,141,14,972,20,973,-13
2148,142,1,967,18,982,-22
2149,130,-11,960,11,995,-26
2150,109,-28,981,14,1007,-24
2151,81,-40,991,20,1023,-10
2152,50,-36,975,28,1032,5
2153,75,-22,982,36,1033,14
2154,80,-1,971,37,1037,15
2155,80,-1,953,32,1047,12
2156,54,-13,956,29,1063,7
2157,23,-27,965,22,1082,8
2158,6,-40,982,25,1092,16
2159,4,-35,997,33,1094,24
2160,15,-17,985,37,1090,30
2161,-753,571,1273,31,1071,28
2162,-1865,284,1642,-133,547,53
2163,-142,-20,-125,-229,-101,-5
2164,488,-491,-450,-58,-127,-195
2165,248,696,1322,83,-71,-242
2166,-170,-388,1441,-156,146,-251
2167,144,-394,523,-23,199,-251
2168,399,296,354,120,237,-288
2169,-559,27,1428,22,224,-341
2170,171,-84,1063,14,82,-373
2171,136,-158,709,43,144,-390
2172,89,3,1119,56,182,-367
2173,-295,-132,1251,45,179,-368
2174,134,-188,1025,40,175,-329
2175,-4,-208,920,82,227,-321
2176,-20,-67,1118,118,253,-286
2177,-177,-19,1014,90,267,-261
2178,-35,-138,1160,82,268,-232
2179,-79,-54,931,92,295,-192
2180,29,-28,1127,89,323,-152
2181,-67,-13,980,82,345,-146
2182,12,24,1076,65,358,-109
2183,-26,21,903,45,372,-87
2184,-78,19,1081,35,377,-54
2185,-96,59,918,8,379,-19
2186,-81,-19,1094,-13,379,3
2187,-43,37,891,-18,382,19
2188,-57,28,1034,-29,387,33
2189,-50,50,908,-46,379,32
2190,-107,53,1004,-59,370,45
2191,-82,54,909,-77,356,55
2192,-158,29,1034,-91,347,66
2193,-77,47,924,-104,334,78
2194,-88,18,1012,-118,330,80
2195,-29,52,917,-122,323,80
2196,-85,52,991,-135,320,82
2197,-62,45,944,-150,305,82
2198,-139,19,997,-161,295,89
2199,-118,-5,968,-169,282,96
2200,-258,-140,1030,-158,257,82
2201,-65,-131,894,-102,210,25
2202,-36,-126,937,-43,211,-52
2203,-79,-45,1017,-6,216,-92
2204,-120,-33,1037,-9,209,-100
2205,-43,-45,968,-7,199,-96
2206,-101,-34,974,-3,204,-83
2207,-80,-40,985,-12,193,-69
2208,-77,-49,963,-13,179,-59
2209,-66,-3,951,-7,178,-55
2210,-144,-24,971,-11,167,-56
2211,-157,-6,965,-9,146,-51
2212,-192,-22,944,-11,133,-46
2213,-163,-41,963,-16,113,-36
2214,-150,-50,939,-16,94,-27
2215,-78,-50,955,-14,76,-19
2216,-79,-40,956,-9,63,-16
2217,-100,-20,985,-6,52,-13
2218,-132,-26,958,-5,39,-20
2219,-150,-18,983,0,30,-23
2220,-141,-16,960,-3,15,-21
2221,-105,-34,966,-7,-1,-15
2222,-70,-28,941,-4,-15,-10
2223,-85,-18,962,-7,-27,-10
2224,-115,-18,953,-2,-41,-14
2225,-144,-8,983,-2,-54,-15
2226,-161,-11,966,-4,-65,-14
2227,-134,-16,968,-7,-81,-6
2228,-101,-32,950,-13,-95,0
2229,-75,-39,956,-9,-110,4
2230,-85,-20,947,-7,-123,8
2231,-124,-24,952,-9,-139,10
2232,-146,-36,933,-13,-165,20
2233,-163,-44,931,-14,-191,32
2234,-154,-54,944,-14,-218,38
2235,-140,-52,943,-9,-244,36
2236,-118,-51,913,-1,-266,26
2237,-128,-32,912,6,-292,13
2238,-162,-20,911,10,-324,6
2239,-189,-34,921,11,-359,3
2240,-201,-47,944,17,-394,-1
2241,-179,-61,947,25,-423,-3
2242,-144,-54,934,38,-446,-14
2243,-135,-58,924,53,-469,-31
2244,-132,-36,930,66,-493,-50
2245,-162,-35,926,73,-521,-64
2246,-174,-50,936,81,-553,-71
2247,-189,-52,938,92,-582,-75
2248,-177,-58,945,103,-607,-84
2249,-155,-46,923,116,-634,-97
2250,-146,-32,921,128,-657,-115
2251,-156,-16,899,135,-685,-130
2252,-187,-6,914,140,-720,-140
2253,-215,-16,910,140,-756,-147
2254,-216,-22,923,144,-793,-149
2255,16,139,1071,156,-822,-155
2256,1736,736,1903,33,-646,-123
2257,969,-462,976,-233,-26,65
2258,-102,-627,39,-64,149,211
2259,-371,250,931,131,25,303
2260,-127,290,1696,-10,-139,281
2261,-165,-215,979,-16,-152,122
2262,-260,-95,938,102,-185,125
2263,-230,172,1019,94,-281,220
2264,-213,108,1159,68,-330,223
2265,-269,158,971,43,-378,197
2266,-220,149,1059,15,-441,186
2267,-223,150,982,-13,-484,165
2268,-200,132,1052,-52,-519,159
2269,-187,75,978,-73,-552,159
2270,-129,82,1053,-86,-590,170
2271,-87,82,981,-105,-617,181
2272,-77,33,1037,-116,-636,187
2273,-92,33,944,-128,-644,205
2274,-106,-17,1027,-131,-651,228
2275,-107,-9,995,-129,-659,261
2276,-114,-19,1048,-124,-677,297
2277,-68,0,1010,-115,-703,320
2278,-67,31,1026,-115,-729,336
2279,-44,21,977,-122,-743,342
2280,-72,-6,1008,-128,-753,338
2281,-81,-28,978,-135,-755,346
2282,-78,-45,1025,-130,-766,356
2283,-56,-33,1022,-124,-787,368
2284,-37,-21,1007,-120,-810,370
2285,6,6,990,-117,-831,361
2286,-5,6,979,-127,-843,343
2287,8,-19,981,-141,-842,322
2288,-22,-54,997,-144,-839,305
2289,31,-115,1055,-136,-842,294
2290,32,-140,1038,-112,-855,284
2291,52,-126,990,-84,-878,269
2292,69,-85,969,-73,-898,237
2293,88,-92,987,-72,-894,183
2294,58,-137,958,-74,-875,125
2295,48,-165,983,-64,-861,79
2296,62,-152,985,-51,-860,40
2297,101,-110,993,-38,-867,5
2298,129,-76,969,-32,-871,-33
2299,172,-76,970,-34,-859,-67
2300,150,-73,923,-31,-828,-87
2301,149,-75,966,-20,-801,-93
2302,130,-41,984,-11,-786,-89
2303,142,-13,1006,-6,-784,-81
2304,154,27,982,-7,-785,-75
2305,173,25,961,-15,-777,-70
2306,196,23,933,-21,-756,-65
2307,204,2,952,-26,-728,-52
2308,194,-7,965,-27,-698,-32
2309,185,-7,994,-23,-680,-13
2310,191,4,982,-21,-673,4
2311,217,7,983,-26,-664,16
2312,222,6,932,-28,-645,17
2313,257,-8,941,-31,-618,13
2314,263,-36,949,-36,-580,14
2315,259,-67,978,-35,-540,23
2316,232,-81,961,-26,-505,43
2317,227,-64,968,-13,-479,61
2318,254,-20,954,-3,-459,70
2319,271,3,961,-1,-435,72
2320,288,3,949,-6,-407,66
2321,277,-16,964,-12,-375,61
2322,248,-33,957,-13,-339,59
2323,229,-41,984,-11,-309,65
2324,214,-25,963,-8,-285,72
2325,242,-7,964,-8,-265,74
2326,275,18,950,-12,-247,66
2327,286,7,955,-19,-223,55
2328,293,-3,957,-26,-192,40
2329,261,-27,979,-31,-161,34
2330,248,-34,974,-30,-133,36
2331,232,-28,971,-25,-110,36
2332,266,-14,959,-25,-87,31
2333,289,0,941,-32,-59,17
2334,307,-26,942,-40,-23,0
2335,305,-43,958,-43,16,-15
2336,286,-65,972,-42,57,-22
2337,266,-71,966,-34,94,-23
2338,256,-56,962,-28,130,-24
2339,277,-42,942,-26,163,-34
2340,305,-26,944,-26,194,-47
2341,308,-35,942,-28,229,-63
2342,298,-51,970,-30,264,-75
2343,263,-52,968,-24,303,-84
2344,247,-59,976,-19,335,-84
2345,232,-43,956,-17,364,-86
2346,254,-37,945,-12,388,-94
2347,282,-17,944,-14,413,-103
2348,285,-26,960,-18,440,-111
2349,269,-41,963,-18,472,-114
2350,238,-46,980,-12,502,-111
2351,221,-42,975,-8,529,-103
2352,213,-27,955,-4,554,-96
2353,230,-14,941,-3,574,-97
2354,261,-1,950,-7,597,-102
2355,262,-7,960,-10,624,-107
2356,250,-25,968,-13,652,-106
2357,212,-34,980,-8,680,-101
2358,198,-29,971,-4,700,-89
2359,195,-16,956,0,720,-82
2360,206,-7,945,-2,737,-82
2361,233,-5,950,-6,754,-84
2362,230,-15,963,-6,777,-85
2363,212,-31,974,-4,800,-80
2364,180,-39,979,-1,826,-68
2365,160,-36,966,1,848,-48
2366,160,-21,959,8,855,-37
2367,175,-8,951,12,868,-29
2368,202,-10,966,10,884,-26
2369,196,-23,965,11,903,-22
2370,179,-47,980,15,926,-11
2371,143,-53,970,23,946,5
2372,118,-47,960,32,964,24
2373,123,-14,961,36,976,39
2374,128,1,960,37,989,46
2375,146,9,956,32,1003,45
2376,153,5,964,25,1021,39
2377,75,-25,981,18,1042,34
2378,77,-42,979,22,1044,37
2379,87,-44,981,28,1053,44
2380,75,-17,958,32,1062,55
2381,90,3,955,31,1064,55
2382,117,-6,980,29,1074,51
2383,97,-7,964,28,1090,53
2384,63,-29,973,26,1103,59
2385,29,-29,979,30,1114,72
2386,11,-22,980,34,1121,89
2387,21,-5,977,37,1121,102
2388,30,19,969,36,1119,106
2389,46,23,969,29,1122,106
2390,28,15,966,21,1132,103
2391,-1,-3,972,15,1143,107
2392,-33,-15,981,14,1149,115
2393,-1533,620,1670,-32,1025,130
2394,-1323,115,755,-185,153,110
2395,533,-403,-480,-176,-133,-71
2396,276,175,331,68,-84,-198
2397,-1,44,1836,-25,65,-165
2398,-165,-443,655,-95,213,-138
2399,428,0,449,85,224,-186
2400,-297,288,887,32,283,-175
2401,-159,-288,1607,-20,143,-195
2402,473,31,505,39,148,-250
2403,28,-28,1139,21,267,-230
2404,-214,-113,1230,11,230,-217
2405,12,-54,1062,15,231,-194
2406,69,-59,788,0,303,-178
2407,-261,-129,1306,8,319,-145
2408,-25,29,900,5,301,-101
2409,-50,-88,1070,-12,333,-94
2410,-73,21,915,-5,338,-68
2411,-161,-16,1083,-23,338,-22
2412,-61,-7,946,-34,332,-1
2413,-171,-21,1062,-33,342,24
2414,-7,5,907,-42,335,31
2415,-98,-47,1028,-29,333,12
2416,22,54,895,-19,318,-5
2417,-99,-11,1051,-24,319,-20
2418,-34,34,980,-20,307,-20
2419,-145,2,1013,-36,317,-18
2420,-29,-43,951,-39,296,-21
2421,-69,-16,979,-23,288,-20
2422,13,-11,946,-28,282,-33
2423,-62,-36,1017,-24,280,-34
2424,-28,32,999,-22,273,-25
2425,-90,-44,1007,-35,279,-22
2426,-58,-31,986,-33,270,-12
2427,-47,-60,993,-29,267,-16
2428,27,-42,982,-19,265,-26
2429,4,-45,1007,-9,272,-33
2430,28,-11,1020,-8,277,-31
2431,-39,-18,1016,-13,288,-23
2432,-48,-27,1016,-19,290,-11
2433,-95,-53,988,-22,291,-5
2434,-64,-45,965,-15,283,-7
2435,-55,-46,951,-7,276,-16
2436,-46,-8,983,-1,271,-18
2437,-75,-7,981,-5,264,-19
2438,-103,5,990,-11,258,-11
2439,-143,-11,973,-16,249,-6
2440,-138,-17,951,-20,235,-4
2441,-133,-20,940,-16,218,-9
2442,-93,-3,951,-12,198,-16
2443,-97,4,960,-11,185,-24
2444,-116,3,972,-13,173,-25
2445,-152,-1,956,-18,158,-28
2446,-162,-20,952,-19,139,-33
2447,-174,-15,959,-12,122,-37
2448,-134,-15,954,-14,102,-39
2449,-95,-25,937,-15,85,-40
2450,-92,-14,951,-8,68,-44
2451,-125,-18,954,-5,52,-53
2452,-159,-16,970,-4,37,-64
2453,-179,-11,953,2,20,-73
2454,-161,-14,954,1,4,-77
2455,-149,-26,937,0,-16,-77
2456,-108,-26,941,1,-38,-75
2457,-105,-15,937,2,-56,-80
2458,-135,-21,968,8,-73,-90
2459,-168,-8,951,11,-90,-98
2460,-180,-20,965,10,-107,-100
2461,-161,-27,945,10,-127,-97
2462,-137,-33,955,11,-145,-94
2463,-92,-34,936,10,-165,-90
2464,-99,-27,952,13,-180,-91
2465,-134,-18,939,14,-196,-91
2466,-173,-19,964,14,-216,-87
2467,-191,-25,942,8,-239,-78
2468,-176,-43,949,5,-263,-66
2469,-150,-52,934,5,-284,-54
2470,-131,-56,946,8,-307,-48
2471,-120,-36,911,11,-331,-47
2472,-154,-33,928,11,-357,-43
2473,-171,-28,925,11,-386,-37
2474,-204,-39,946,9,-414,-27
2475,-172,-45,945,12,-441,-19
2476,-160,-47,950,17,-464,-21
2477,-129,-40,926,26,-485,-27
2478,-134,-22,920,33,-506,-36
2479,-157,-11,919,35,-533,-43
2480,-193,-13,932,34,-562,-43
2481,-199,-22,946,33,-592,-41
2482,-181,-33,948,36,-616,-39
2483,-143,-30,930,41,-639,-39
2484,-135,-30,920,46,-659,-43
2485,-133,-6,916,47,-684,-45
2486,-172,-3,912,44,-710,-44
2487,-186,-13,932,41,-741,-35
2488,-195,-19,935,38,-770,-25
2489,11,97,1088,44,-794,-20
2490,1705,661,1905,-45,-642,-2
2491,1199,-451,1117,-261,-65,167
2492,84,-568,137,-85,163,339
2493,-566,305,928,62,70,435
2494,-206,141,1513,-102,-149,386
2495,16,-306,994,-56,-157,208
2496,-61,-179,1039,87,-124,230
2497,-154,47,960,96,-164,377
2498,-175,34,1103,90,-202,425
2499,-203,126,989,81,-241,430
2500,-164,140,1070,57,-288,431
2501,-191,137,995,32,-330,408
2502,-193,146,1048,3,-376,399
2503,-168,123,994,-24,-418,381
2504,-160,122,1063,-53,-461,364
2505,-132,137,966,-80,-503,351
2506,-102,89,1056,-104,-539,328
2507,-112,72,979,-126,-566,320
2508,-127,12,1030,-136,-589,324
2509,-124,-9,1018,-138,-611,335
2510,-156,-32,1029,-137,-634,358
2511,-92,-25,998,-130,-661,373
2512,-79,-6,1034,-126,-684,378
2513,-50,-24,978,-131,-697,381
2514,-42,-70,1037,-129,-703,371
2515,-29,-152,1056,-114,-705,366
2516,-83,-182,1033,-84,-722,371
2517,-86,-131,1005,-51,-757,367
2518,-74,-85,1006,-38,-787,344
2519,-34,-59,977,-42,-797,296
2520,-43,-85,988,-48,-802,235
2521,-16,-105,996,-51,-810,181
2522,-41,-121,1014,-46,-821,132
2523,-32,-100,1012,-35,-838,95
2524,-32,-68,1002,-30,-860,59
2525,22,-52,1005,-29,-878,17
2526,44,-48,969,-34,-889,-23
2527,77,-67,974,-35,-887,-54
2528,68,-82,966,-31,-872,-70
2529,47,-69,987,-19,-858,-69
2530,62,-28,1005,-10,-862,-62
2531,82,-11,1014,-9,-867,-56
2532,96,2,954,-13,-869,-51
2533,133,4,960,-13,-862,-47
2534,137,7,952,-15,-846,-39
2535,138,-14,984,-19,-826,-20
2536,115,-21,982,-18,-805,2
2537,111,-15,990,-16,-791,26
2538,130,10,956,-11,-779,45
2539,162,11,966,-12,-770,56
2540,188,23,946,-19,-756,62
2541,187,6,957,-26,-732,62
2542,179,-20,966,-32,-703,68
2543,162,-35,980,-33,-675,84
2544,171,-40,969,-28,-649,94
2545,176,-18,963,-24,-629,105
2546,199,-1,941,-25,-609,109
2547,228,-1,961,-31,-589,101
2548,234,-6,963,-36,-566,94
2549,222,-39,991,-39,-541,87
2550,194,-44,974,-32,-516,84
2551,182,-50,968,-29,-495,84
2552,200,-26,961,-25,-480,78
2553,224,-7,959,-27,-465,66
2554,250,-13,958,-32,-447,49
2555,250,-28,972,-36,-424,32
2556,225,-44,968,-37,-399,19
2557,208,-52,981,-34,-375,15
2558,192,-48,968,-29,-355,10
2559,218,-22,964,-27,-337,6
2560,241,-8,960,-29,-321,-6
2561,261,-14,964,-35,-301,-19
2562,256,-19,960,-39,-275,-31
2563,235,-37,977,-39,-250,-38
2564,211,-32,981,-41,-224,-37
2565,202,-22,970,-38,-200,-37
2566,229,-4,959,-36,-184,-42
2567,260,12,956,-44,-164,-49
2568,284,-3,957,-47,-139,-62
2569,284,-17,964,-51,-111,-69
2570,257,-30,975,-52,-82,-70
2571,247,-33,972,-50,-53,-69
2572,234,-29,963,-47,-26,-70
2573,271,-16,952,-44,0,-72
2574,304,-9,947,-49,29,-82
2575,321,-19,948,-50,61,-96
2576,309,-34,960,-53,96,-107
2577,286,-43,966,-50,134,-112
2578,269,-43,968,-45,171,-116
2579,265,-35,963,-44,204,-119
2580,291,-27,940,-42,234,-126
2581,321,-23,940,-42,266,-137
2582,328,-35,939,-42,303,-147
2583,318,-52,965,-42,340,-152
2584,283,-49,961,-35,380,-154
2585,273,-50,966,-31,417,-148
2586,268,-36,956,-26,447,-145
2587,286,-25,940,-24,477,-146
2588,310,-15,939,-24,507,-150
2589,314,-23,953,-26,539,-155
2590,292,-45,958,-25,575,-157
2591,260,-48,970,-19,607,-153
2592,238,-48,966,-15,636,-146
2593,238,-33,952,-10,661,-139
2594,246,-30,938,-8,681,-140
2595,277,-22,950,-8,704,-141
2596,277,-32,952,-11,732,-141
2597,254,-55,961,-6,765,-133
2598,198,-41,953,3,796,-120
2599,202,-29,979,8,815,-112
2600,197,-12,968,11,829,-106
2601,210,-11,954,5,842,-98
2602,233,-18,950,3,859,-93
2603,214,-27,937,6,891,-79
2604,187,-32,958,13,921,-61
2605,158,-24,979,20,941,-46
2606,146,-11,989,22,951,-34
2607,145,-6,977,19,952,-29
2608,162,-9,954,16,961,-26
2609,187,-27,945,15,980,-21
2610,171,-26,936,20,1011,-11
2611,157,-27,973,25,1038,1
2612,113,-10,980,23,1056,10
2613,106,6,977,24,1064,8
2614,58,4,978,13,1069,-7
2615,107,-27,967,8,1068,-18
2616,134,-35,928,9,1092,-16
2617,121,-33,945,14,1119,-12
2618,102,-34,976,18,1140,-5
2619,69,-24,996,21,1153,-4
2620,30,-9,972,18,1153,-1
2621,48,9,980,15,1149,-7
2622,53,0,961,7,1158,-15
2623,68,-23,951,4,1173,-21
2624,61,-30,955,5,1191,-19
2625,29,-34,980,10,1206,-17
2626,-11,-15,988,12,1206,-13
2627,-28,-4,991,10,1199,-14
2628,-64,16,976,5,1192,-23
2629,-1701,-87,1728,19,925,-12
2630,-830,872,176,-37,-66,-1
2631,742,26,-491,-140,-173,-242
2632,826,-378,1398,-54,-51,-249
2633,-701,-41,1573,-26,304,-23
2634,265,-100,463,-31,253,-196
2635,276,387,295,35,313,-213
2636,-528,-62,1532,-41,284,-173
2637,149,-127,1145,3,129,-274
2638,366,146,446,36,230,-294
2639,-369,-131,1397,-5,281,-267
2640,-253,-96,1207,19,205,-293
2641,157,55,702,7,281,-295
2642,-256,-159,1134,-16,333,-279
2643,-209,0,1153,11,286,-239
2644,8,-14,846,-26,310,-231
2645,-171,-137,1081,-25,328,-197
2646,-191,20,1018,-18,314,-142
2647,-54,-103,1007,-49,320,-123
2648,-117,-91,982,-35,332,-100
2649,-54,-45,990,-38,322,-69
2650,-8,-139,940,-44,314,-56
2651,-96,-48,990,-22,309,-30
2652,-103,-94,947,-33,294,-25
2653,-127,-96,992,-19,281,-15
2654,-103,-24,927,-8,271,-18
2655,-94,-75,961,-11,258,-22
2656,-31,-22,957,7,232,-18
2657,-44,20,994,-1,233,-14
2658,-81,-24,986,-15,232,-3
2659,-100,-3,1000,-15,220,14
2660,-110,-13,948,-22,213,11
2661,-109,-33,969,-20,199,7
2662,-59,-12,951,-11,180,-6
2663,-47,-8,981,-7,175,-15
2664,-40,-11,985,-12,170,-15
2665,-64,-15,1008,-17,169,-2
2666,-91,-51,980,-22,165,6
2667,-102,-73,983,-18,156,10
2668,-58,-74,965,-6,143,4
2669,-36,-60,975,5,141,-5
2670,-3,-49,988,16,134,-6
2671,0,-21,1023,17,138,4
2672,-28,-20,1011,6,147,18
2673,-65,-37,1014,2,148,31
2674,-62,-38,989,4,145,31
2675,-48,-36,981,10,142,23
2676,-25,-20,967,19,138,14
2677,-24,-2,996,22,136,10
2678,-29,19,1001,17,136,12
2679,-72,12,1011,4,140,22
2680,-92,-8,995,-4,135,31
2681,-106,-24,968,-7,130,31
2682,-84,-33,951,0,118,21
2683,-64,-9,969,10,104,9
2684,-53,8,980,10,99,0
2685,-62,9,997,7,98,3
2686,-89,14,994,-1,94,12
2687,-123,-18,987,-10,87,17
2688,-121,-38,956,-8,72,16
2689,-92,-40,953,1,59,5
2690,-64,-31,963,9,47,-8
2691,-65,-14,987,15,38,-12
2692,-71,-13,990,11,33,-6
2693,-109,-12,992,2,29,7
2694,-144,-25,966,-5,18,18
2695,-143,-36,954,-6,3,22
2696,-125,-32,940,-1,-15,16
2697,-95,-9,953,7,-33,5
2698,-91,5,963,10,-47,-6
2699,-111,8,977,7,-59,-9
2700,-145,-5,952,-1,-71,-7
2701,-171,-25,956,-3,-86,3
2702,-171,-27,949,-3,-110,12
2703,-141,-43,938,-2,-129,13
2704,-115,-42,941,11,-144,11
2705,-117,-26,948,5,-168,9
2706,-151,-28,943,13,-191,1
2707,-188,-29,942,20,-213,-9
2708,-222,-47,948,29,-238,-20
2709,-200,-66,948,40,-267,-29
2710,-177,-85,926,59,-295,-45
2711,-126,-88,932,80,-324,-65
2712,-122,-77,921,103,-350,-93
2713,-151,-70,946,129,-379,-121
2714,-186,-55,941,150,-407,-148
2715,-200,-56,954,168,-434,-173
2716,-188,-61,930,187,-465,-197
2717,-166,-52,933,206,-493,-215
2718,-145,-38,902,222,-525,-243
2719,-159,-15,900,236,-559,-269
2720,-191,2,873,244,-597,-290
2721,-230,2,895,246,-639,-304
2722,-252,10,885,246,-684,-308
2723,-231,0,902,248,-728,-309
2724,-202,4,895,247,-767,-312
2725,-175,11,889,247,-802,-315
2726,-91,90,915,240,-838,-314
2727,1556,876,1832,133,-753,-243
2728,1343,-346,1224,-257,-146,67
2729,-12,-670,68,-128,187,254
2730,-545,174,794,75,89,357
2731,-233,315,1712,-33,-148,333
2732,39,-247,997,-19,-178,141
2733,-86,-78,955,109,-159,128
2734,-110,118,934,103,-218,271
2735,-153,44,1142,85,-249,312
2736,-206,98,1024,78,-263,322
2737,-219,41,1071,69,-304,351
2738,-179,118,980,65,-353,366
2739,-148,146,1038,47,-399,368
2740,-75,127,973,18,-432,359
2741,-102,131,1021,-6,-454,350
2742,-82,81,975,-31,-464,353
2743,-117,39,1046,-49,-473,366
2744,-109,14,995,-51,-490,393
2745,-120,5,1027,-45,-521,423
2746,-76,50,1012,-44,-547,448
2747,-85,51,1004,-53,-565,464
2748,-75,45,979,-62,-576,476
2749,-109,26,1009,-71,-583,490
2750,-99,2,1013,-78,-589,514
2751,-129,5,1023,-76,-608,537
2752,-107,28,1028,-73,-639,561
2753,-114,59,1010,-76,-672,569
2754,-90,62,1011,-89,-700,564
2755,-119,51,976,-105,-718,553
2756,-110,17,1013,-122,-733,543
2757,-129,0,1002,-129,-749,537
2758,-102,-10,1028,-134,-771,535
2759,-80,11,1002,-136,-801,523
2760,-47,24,1012,-141,-834,502
2761,-16,26,981,-155,-855,469
2762,-4,-1,1001,-170,-865,432
2763,-28,-28,970,-179,-868,397
2764,-17,-50,1016,-183,-874,369
2765,-9,-50,995,-185,-885,348
2766,24,-38,1010,-179,-902,322
2767,51,-14,976,-180,-918,289
2768,79,-23,994,-186,-927,250
2769,80,-36,958,-194,-925,212
2770,69,-72,985,-199,-915,178
2771,69,-74,979,-196,-907,154
2772,76,-69,995,-191,-904,136
2773,122,-44,978,-184,-906,115
2774,143,-20,976,-183,-908,89
2775,170,-22,959,-187,-903,60
2776,165,-34,959,-194,-888,35
2777,156,-51,965,-197,-865,16
2778,157,-73,992,-193,-845,6
2779,196,-115,1028,-178,-826,-1
2780,223,-133,1004,-152,-809,-10
2781,243,-130,953,-130,-797,-12
2782,241,-132,930,-113,-773,-18
2783,224,-130,934,-96,-734,-31
2784,187,-102,958,-78,-695,-57
2785,173,-77,986,-71,-669,-87
2786,175,-54,985,-71,-651,-128
2787,214,-61,972,-75,-633,-175
2788,240,-74,921,-80,-604,-212
2789,264,-88,927,-72,-561,-242
2790,257,-83,948,-62,-512,-262
2791,226,-65,970,-54,-474,-275
2792,225,-41,997,-44,-452,-287
2793,215,-31,985,-49,-439,-295
2794,247,-38,958,-51,-424,-301
2795,270,-28,935,-49,-402,-302
2796,275,-39,939,-48,-367,-288
2797,266,-31,962,-38,-334,-275
2798,241,-14,982,-34,-303,-255
2799,249,-5,999,-33,-283,-234
2800,238,-7,972,-38,-266,-213
2801,257,-7,939,-39,-246,-197
2802,300,-1,941,-37,-221,-186
2803,311,-16,959,-39,-191,-172
2804,314,-37,968,-38,-153,-155
2805,281,-41,972,-30,-113,-132
2806,269,-42,966,-27,-75,-109
2807,270,-26,950,-22,-40,-91
2808,296,-25,936,-20,-3,-79
2809,325,-20,944,-20,36,-75
2810,328,-25,949,-19,76,-71
2811,314,-45,960,-16,119,-64
2812,288,-47,971,-12,163,-52
2813,283,-45,973,-6,204,-40
2814,275,-28,938,-1,244,-31
2815,300,-21,932,0,281,-29
2816,334,-11,937,-4,318,-31
2817,336,-15,949,-8,359,-38
2818,315,-36,960,-8,402,-41
2819,288,-49,966,-8,445,-39
2820,274,-48,959,-3,484,-39
2821,272,-37,946,2,517,-43
2822,287,-25,932,5,548,-49
2823,308,-24,944,0,578,-61
2824,311,-24,945,-1,609,-71
2825,291,-47,974,-2,642,-80
2826,260,-52,966,1,675,-80
2827,242,-54,956,6,703,-80
2828,247,-36,946,14,725,-83
2829,257,-25,942,13,746,-83
2830,284,-26,948,12,767,-90
2831,267,-28,955,11,790,-94
2832,257,-49,977,11,815,-91
2833,213,-59,973,16,841,-84
2834,199,-58,963,30,860,-69
2835,198,-42,954,35,877,-60
2836,212,-30,959,43,892,-53
2837,230,-26,952,46,909,-50
2838,227,-30,966,49,930,-50
2839,202,-49,979,56,952,-47
2840,174,-59,977,63,975,-35
2841,156,-67,969,76,993,-28
2842,151,-53,969,89,1006,-21
2843,163,-36,954,96,1016,-17
2844,179,-31,965,102,1024,-26
2845,170,-27,969,102,1040,-31
2846,140,-47,980,104,1058,-36
2847,100,-55,982,111,1075,-41
2848,98,-65,967,121,1087,-44
2849,49,-51,978,127,1094,-53
2850,85,-32,973,134,1078,-69
2851,134,-30,980,133,1077,-88
2852,110,-31,967,135,1090,-109
2853,86,-53,981,135,1101,-126
2854,68,-68,980,142,1110,-136
2855,56,-78,983,152,1118,-140
2856,56,-55,962,163,1120,-145
2857,68,-33,977,170,1121,-157
2858,78,-16,960,169,1126,-177
2859,63,-12,967,165,1135,-199
2860,36,-23,967,161,1148,-220
2861,2,-28,977,156,1158,-230
2862,-4,-33,970,158,1162,-238
2863,-1,-14,984,158,1162,-242
2864,-1264,876,1563,138,1085,-221
2865,-1830,689,1491,-125,404,-99
2866,-29,-266,-16,-197,-135,-149
2867,330,-324,-291,22,-109,-325
2868,152,860,1470,95,-29,-395
2869,-99,250,1640,-190,126,-465
2870,36,-489,858,-211,155,-364
2871,420,82,545,-38,175,-247
2872,-86,135,1326,-29,238,-277
2873,0,49,1150,-106,227,-286
2874,53,-119,1079,-127,255,-240
2875,141,-176,1037,-97,294,-195
2876,-138,-32,1133,-84,348,-134
2877,54,-79,1086,-105,378,-86
2878,-87,-141,1058,-110,413,-53
2879,41,-8,970,-104,440,15
2880,-149,-43,1040,-127,460,58
2881,-97,-11,1042,-147,450,119
2882,-138,-5,948,-168,463,180
2883,-57,-33,1046,-186,475,225
2884,-128,36,954,-195,484,266
2885,-22,31,1019,-221,488,306
2886,-100,18,938,-237,488,324
2887,-79,55,985,-252,487,361
2888,-124,29,943,-280,480,383
2889,-100,10,1029,-294,469,407
2890,-297,-103,965,-297,453,416
2891,-254,-281,918,-225,353,321
2892,37,-134,712,-77,299,114
2893,-60,-106,976,22,313,-75
2894,-100,57,1125,68,303,-139
2895,2,88,1158,34,313,-112
2896,67,-5,1001,-23,344,-46
2897,18,-79,977,-53,357,29
2898,64,-155,952,-43,341,43
2899,1,-69,1034,-4,350,22
2900,-44,-37,1031,11,366,-12
2901,-49,-18,1033,14,373,-15
2902,-51,14,977,5,377,4
2903,-50,-38,990,-10,375,17
2904,-13,-49,978,-4,369,18
2905,-5,-30,1011,9,374,6
2906,6,-8,992,11,381,-5
2907,-32,-3,1020,12,388,-1
2908,-51,6,998,4,391,11
2909,-98,-22,998,-9,394,22
2910,-75,-32,975,-10,387,28
2911,-71,-31,978,-4,382,22
2912,-50,-30,967,3,376,12
2913,-69,-8,974,9,370,6
2914,-97,4,983,9,366,9
2915,-139,-9,993,-2,364,17
2916,-155,-22,968,-9,354,26
2917,-136,-43,966,-6,339,29
2918,-101,-43,959,1,326,25
2919,-87,-36,980,6,318,27
2920,-79,-21,962,4,310,30
2921,-112,-24,974,4,303,37
2922,-151,-30,980,2,295,43
2923,-178,-34,979,-1,285,51
2924,-138,-50,986,-1,274,60
2925,-119,-42,962,0,264,71
2926,-90,-37,946,1,252,81
2927,-120,-27,943,-1,238,84
2928,-165,-6,955,-2,225,86
2929,-211,-6,956,-2,206,81
2930,-232,-11,959,-1,184,77
2931,-210,-13,937,-1,163,78
2932,-186,-16,924,3,137,73
2933,-181,-10,908,11,109,59
2934,-180,7,909,15,81,41
2935,-230,9,915,18,53,18
2936,-262,0,916,21,16,1
2937,-262,-22,914,23,-25,-10
2938,-233,-40,919,32,-66,-25
2939,-208,-35,902,43,-99,-41
2940,-188,-41,907,54,-131,-61
2941,-192,-32,898,62,-163,-80
2942,-208,-27,906,65,-198,-88
2943,-227,-47,921,67,-238,-91
2944,-231,-54,939,68,-273,-82
2945,-199,-61,934,73,-304,-74
2946,-172,-50,936,78,-329,-69
2947,-159,-28,923,80,-349,-66
2948,-165,-20,923,78,-372,-64
2949,-194,-12,915,73,-402,-53
2950,-225,-14,927,67,-433,-37
2951,-235,-24,925,59,-464,-20
2952,-222,-28,921,57,-493,-6
2953,-194,-17,918,57,-519,5
2954,-184,-2,908,54,-541,6
2955,-179,8,908,51,-570,6
2956,-206,18,912,43,-599,9
2957,-215,-3,934,35,-631,14
2958,-213,-10,933,33,-659,22
2959,-173,-19,950,36,-680,22
2960,-139,-8,948,44,-696,11
2961,-129,11,941,49,-709,-6
2962,-137,12,934,52,-727,-28
2963,-168,16,937,55,-750,-48
2964,-196,3,931,60,-777,-62
2965,-199,-17,944,68,-804,-80
2966,-183,-18,934,82,-827,-96
2967,-151,-7,940,96,-849,-123
2968,-142,4,925,110,-871,-152
2969,-150,14,920,118,-897,-177
2970,-165,23,908,121,-924,-197
2971,-186,10,934,129,-952,-212
2972,-168,11,937,131,-977,-223
2973,-144,5,955,135,-996,-240
2974,-96,16,936,145,-1012,-259
2975,1084,796,1559,130,-983,-263
2976,1756,305,1739,-268,-423,-43
2977,144,-852,113,-374,151,168
2978,-279,-511,-158,-76,139,242
2979,-162,564,1581,36,2,316
2980,7,-19,1493,-146,-148,322
2981,-313,-160,927,-44,-158,183
2982,-242,59,775,53,-241,167
2983,-145,236,1188,12,-329,212
2984,-152,146,1012,-58,-348,196
2985,-246,39,1044,-72,-380,150
2986,-150,120,974,-81,-437,151
2987,-142,67,1068,-103,-474,148
2988,-55,102,981,-116,-502,138
2989,-91,104,1008,-136,-530,139
2990,-24,95,963,-157,-543,140
2991,-97,71,1017,-175,-547,145
2992,-88,-2,983,-189,-548,171
2993,-146,-16,1017,-181,-567,209
2994,-97,-23,1043,-168,-593,254
2995,-121,-4,1026,-161,-621,293
2996,-65,24,1013,-156,-648,318
2997,-109,18,984,-159,-666,332
2998,-74,12,1017,-170,-674,349
2999,-138,-8,990,-173,-680,362
3000,-101,-29,1043,-169,-698,386
3001,-114,0,1009,-165,-725,408
3002,-56,-3,1048,-163,-755,420
3003,-64,35,969,-164,-781,417
3004,-51,21,1012,-174,-797,405
3005,-83,4,964,-187,-808,391
3006,-45,-81,1077,-192,-813,381
3007,-9,-189,1081,-170,-822,366
3008,-22,-222,1056,-127,-849,361
3009,-3,-169,948,-91,-895,348
3010,49,-140,1023,-74,-917,300
3011,29,-132,932,-73,-903,228
3012,25,-186,986,-69,-888,146
3013,18,-182,973,-58,-880,77
3014,42,-177,1025,-47,-886,17
3015,61,-114,976,-35,-902,-45
3016,102,-100,989,-34,-913,-99
3017,141,-91,938,-34,-899,-145
3018,119,-96,943,-27,-870,-171
3019,121,-67,943,-11,-841,-181
3020,111,-42,1016,-3,-823,-184
3021,96,7,984,-1,-816,-191
3022,103,21,990,-10,-815,-207
3023,127,20,955,-25,-813,-221
3024,151,-1,960,-35,-811,-232
3025,185,-21,966,-40,-801,-245
3026,168,-49,993,-38,-782,-245
3027,158,-46,967,-32,-764,-235
3028,147,-40,975,-23,-753,-222
3029,177,-11,974,-21,-748,-215
3030,182,2,968,-23,-741,-217
3031,215,-3,963,-26,-732,-225
3032,204,-2,959,-28,-720,-233
3033,203,-26,987,-30,-703,-235
3034,175,-27,978,-27,-683,-226
3035,182,-34,979,-24,-664,-212
3036,199,-18,967,-18,-650,-198
3037,229,-3,959,-16,-635,-185
3038,249,-4,946,-14,-612,-174
3039,260,-4,962,-14,-588,-161
3040,241,-16,963,-14,-555,-141
3041,226,-24,982,-11,-523,-114
3042,215,-20,959,-3,-494,-84
3043,239,3,956,-3,-470,-54
3044,265,29,938,-1,-445,-33
3045,285,21,951,-10,-416,-16
3046,284,30,937,-18,-378,2
3047,262,7,966,-24,-339,21
3048,251,1,967,-27,-301,47
3049,247,-7,968,-30,-266,75
3050,280,9,945,-27,-237,95
3051,292,21,943,-31,-207,108
3052,314,22,936,-38,-175,117
3053,304,20,945,-47,-139,121
3054,296,4,968,-56,-99,127
3055,268,-3,976,-61,-59,137
3056,256,-8,961,-61,-25,144
3057,278,-2,950,-65,3,143
3058,310,-2,964,-66,30,134
3059,317,-27,957,-68,57,119
3060,320,-47,972,-64,89,101
3061,290,-68,974,-56,120,82
3062,277,-71,975,-49,148,68
3063,256,-66,960,-37,176,50
3064,285,-50,952,-32,199,24
3065,304,-34,938,-34,226,-7
3066,316,-44,947,-34,254,-42
3067,310,-53,957,-38,286,-75
3068,285,-67,965,-38,323,-103
3069,268,-73,964,-35,358,-128
3070,261,-66,958,-27,390,-147
3071,285,-61,940,-25,419,-166
3072,313,-54,941,-23,449,-184
3073,319,-58,939,-21,479,-196
3074,313,-67,962,-17,513,-205
3075,273,-65,962,-12,547,-203
3076,259,-58,965,-5,577,-192
3077,253,-46,961,1,602,-180
3078,267,-28,945,6,628,-169
3079,286,-8,932,3,652,-159
3080,295,-14,951,3,680,-150
3081,278,-21,959,2,712,-137
3082,243,-26,965,5,745,-117
3083,225,-25,969,9,773,-92
3084,210,-19,965,14,795,-74
3085,227,-10,946,16,812,-55
3086,243,4,942,17,831,-44
3087,242,-3,955,13,853,-37
3088,225,-15,968,13,878,-25
3089,191,-27,966,17,905,-9
3090,171,-32,984,23,926,9
3091,162,-21,960,29,940,30
3092,184,-17,954,32,956,42
3093,201,3,943,31,972,50
3094,197,-1,954,29,993,53
3095,186,-19,965,27,1019,56
3096,148,-36,971,29,1045,66
3097,141,-40,979,33,1065,81
3098,131,-38,964,42,1080,93
3099,150,-34,951,48,1092,103
3100,172,-16,949,52,1107,103
3101,161,-15,953,51,1124,102
3102,136,-13,964,50,1151,97
3103,59,-32,985,44,1167,92
3104,106,-44,994,47,1168,91
3105,91,-35,971,56,1180,91
3106,102,-34,940,63,1187,90
3107,116,-7,947,63,1189,86
3108,123,-2,963,59,1203,75
3109,100,-21,963,56,1225,69
3110,57,-29,968,57,1245,72
3111,41,-34,979,58,1258,79
3112,33,-12,967,62,1263,87
3113,29,8,955,62,1265,87
3114,36,38,957,57,1265,78
3115,12,54,956,43,1270,64
3116,-269,284,1040,34,1277,50
3117,-1852,1362,1848,-186,951,82
3118,-900,67,783,-562,87,178
3119,731,-671,-398,-476,-53,110
3120,-243,-826,617,-157,24,121
3121,-587,-109,1816,49,-65,127
3122,357,24,1193,87,-59,-152
3123,538,354,956,90,148,-278
3124,-46,142,1552,-1,283,-270
3125,337,-7,1488,-2,300,-285
3126,489,15,862,1,468,-315
3127,115,-170,1283,-4,583,-283
3128,37,-109,1185,23,582,-256
3129,147,-42,924,13,636,-238
3130,-136,-141,987,0,677,-206
3131,-234,-106,1094,13,644,-147
3132,-120,-50,843,4,639,-119
3133,-179,-128,985,1,640,-104
3134,-190,-25,908,12,611,-75
3135,-118,-27,952,2,591,-58
3136,-135,-20,920,0,580,-48
3137,-148,7,1018,-9,563,-20
3138,-84,-14,974,-20,552,0
3139,-73,-26,1024,-24,553,10
3140,6,-15,937,-29,548,6
3141,9,-60,1018,-18,548,-5
3142,21,0,978,-2,549,-14
3143,-52,-19,1056,-6,560,-17
3144,-51,-39,1005,-12,560,-8
3145,-73,-29,994,-12,561,8
3146,-35,-47,936,-16,557,10
3147,-49,-39,982,-7,550,10
3148,-32,0,975,-1,544,3
3149,-62,-3,1005,-2,549,-3
3150,-92,16,988,-9,549,2
3151,-139,-11,984,-20,542,13
3152,-126,-20,941,-24,530,19
3153,-134,-34,945,-21,516,15
3154,-93,-22,948,-15,499,5
3155,-104,-13,971,-8,489,-5
3156,-102,-1,977,-8,479,-3
3157,-152,-16,980,-19,473,6
3158,-173,-30,969,-23,459,21
3159,-178,-52,939,-24,443,25
3160,-145,-59,934,-16,423,21
3161,-121,-52,937,-1,404,7
3162,-108,-27,974,12,390,-2
3163,-115,-27,979,14,380,-4
3164,-142,-18,989,8,373,7
3165,-163,-31,968,3,365,19
3166,-158,-46,974,1,352,27
3167,-135,-39,941,7,339,26
3168,-109,-29,964,15,329,16
3169,-114,-10,962,19,319,7
3170,-143,-6,970,17,308,7
3171,-180,0,949,14,293,11
3172,-215,-4,961,9,278,16
3173,-204,-16,943,4,258,22
3174,-200,-32,941,5,240,26
3175,-166,-15,924,9,217,26
3176,-180,-10,930,11,194,17
3177,-196,-5,918,14,169,3
3178,-247,-2,928,15,142,-7
3179,-261,-9,932,14,110,-15
3180,-253,-29,930,14,77,-17
3181,-222,-32,923,22,49,-20
3182,-198,-33,924,30,23,-27
3183,-177,-14,915,32,-5,-38
3184,-208,-19,910,33,-33,-49
3185,-222,-7,923,33,-65,-50
3186,-255,-18,936,29,-96,-47
3187,-227,-30,946,28,-127,-40
3188,-204,-36,940,30,-148,-37
3189,-156,-34,942,33,-168,-35
3190,-155,-12,920,34,-188,-39
3191,-176,-18,934,32,-209,-38
3192,-196,-13,928,25,-235,-34
3193,-220,-20,967,20,-258,-24
3194,-195,-21,950,20,-280,-14
3195,-170,-28,970,20,-296,-8
3196,-136,-23,934,22,-308,-10
3197,-141,4,935,24,-322,-14
3198,-163,8,925,18,-342,-20
3199,-205,12,944,11,-366,-20
3200,-220,5,942,5,-392,-16
3201,-213,-7,959,5,-413,-16
3202,-176,-2,937,7,-433,-20
3203,-166,-6,924,12,-452,-31
3204,-162,21,912,15,-473,-47
3205,-201,27,924,10,-499,-59
3206,-214,25,923,4,-527,-66
3207,-241,17,941,1,-557,-69
3208,-209,12,950,-1,-580,-73
3209,-196,19,931,2,-603,-84
3210,-159,19,912,5,-626,-98
3211,-169,47,903,4,-650,-113
3212,-188,53,914,-5,-678,-124
3213,-218,45,916,-14,-709,-128
3214,-219,29,939,-20,-739,-127
3215,-198,14,941,-25,-763,-129
3216,-159,18,933,-24,-784,-133
3217,-132,19,919,-25,-803,-142
3218,-124,35,925,-29,-822,-154
3219,-146,45,927,-35,-843,-161
3220,-162,23,955,-43,-866,-162
3221,-164,17,948,-50,-887,-159
3222,-127,0,961,-48,-903,-159
3223,-92,4,951,-47,-914,-167
3224,-70,15,948,-45,-922,-177
3225,-64,22,938,-46,-934,-191
3226,-86,36,952,-47,-946,-202
3227,-104,25,962,-53,-962,-207
3228,-110,12,969,-56,-975,-212
3229,-84,5,954,-52,-987,-219
3230,1134,791,1589,-76,-948,-210
3231,1682,320,1753,-476,-398,12
3232,74,-771,155,-579,135,174
3233,-296,-636,-186,-318,137,199
3234,206,-494,1591,-57,50,162
3235,176,-124,1422,24,-92,118
3236,-470,-117,615,4,-167,140
3237,-311,246,797,37,-299,91
3238,20,149,1456,-25,-319,48
3239,-252,-50,931,-82,-302,-47
3240,-308,-162,1008,-69,-396,-65
3241,-84,-64,979,-44,-451,-61
3242,-138,-149,1147,-31,-445,-68
3243,-264,13,815,-12,-482,-58
3244,33,0,1187,-20,-541,-68
3245,-56,-4,973,-28,-538,-82
3246,-81,-43,960,-32,-555,-64
3247,33,-15,992,-20,-568,-60
3248,-100,-71,1038,-17,-558,-31
3249,-128,22,961,-6,-586,-11
3250,-80,-13,1134,-11,-624,-5
3251,-164,8,942,-17,-646,-4
3252,-95,1,1026,-23,-682,0
3253,-68,-11,988,-23,-689,-1
3254,-105,-35,1011,-24,-700,5
3255,-86,-17,1008,-18,-726,13
3256,-104,-36,1071,-19,-752,22
3257,-144,-4,986,-15,-778,24
3258,-97,-11,1030,-19,-811,21
3259,-67,-9,982,-22,-827,10
3260,-45,-53,999,-24,-840,1
3261,-27,-65,989,-17,-848,0
3262,-30,-78,1021,-10,-853,11
3263,-26,-80,995,-1,-859,36
3264,-33,-62,991,11,-864,60
3265,23,-22,989,23,-873,80
3266,48,0,987,25,-877,93
3267,65,4,979,23,-877,102
3268,51,-8,993,25,-873,111
3269,38,-26,1000,25,-868,125
3270,26,-43,1003,32,-870,147
3271,40,-47,1013,43,-875,170
3272,78,-31,996,53,-885,183
3273,102,-9,976,59,-892,185
3274,104,-4,958,57,-890,179
3275,109,-14,972,49,-877,168
3276,83,-36,974,45,-860,161
3277,93,-44,983,46,-848,163
3278,108,-39,989,47,-844,163
3279,145,-21,975,51,-844,158
3280,169,12,955,47,-843,143
3281,179,9,958,39,-833,119
3282,170,0,959,28,-814,102
3283,153,-27,975,21,-790,91
3284,156,-36,982,21,-771,88
3285,169,-28,981,20,-759,90
3286,198,-13,954,24,-754,86
3287,217,12,954,22,-745,77
3288,228,24,945,14,-728,64
3289,223,8,975,6,-703,51
3290,196,-7,966,-3,-674,49
3291,196,-25,979,-4,-651,51
3292,210,-10,964,0,-637,55
3293,228,6,946,-3,-624,60
3294,265,30,941,-8,-608,54
3295,256,35,947,-18,-584,49
3296,263,20,952,-27,-551,49
3297,235,-3,970,-33,-516,56
3298,241,-10,971,-35,-488,73
3299,248,6,958,-35,-466,89
3300,274,22,956,-38,-445,101
3301,283,46,925,-45,-421,107
3302,297,46,940,-56,-390,108
3303,288,33,957,-71,-349,113
3304,274,9,967,-85,-308,126
3305,260,4,955,-88,-269,144
3306,268,15,951,-94,-238,163
3307,282,31,930,-102,-211,175
3308,308,44,936,-113,-181,180
3309,311,54,934,-128,-145,183
3310,300,33,970,-142,-106,187
3311,274,16,959,-152,-68,197
3312,266,-10,972,-155,-37,211
3313,300,-43,999,-150,-9,218
3314,323,-89,1016,-130,16,208
3315,336,-111,972,-104,34,191
3316,299,-118,951,-83,45,174
3317,292,-123,961,-65,56,151
3318,271,-129,984,-52,75,122
3319,245,-123,967,-43,97,89
3320,239,-100,948,-37,115,48
3321,271,-89,951,-34,139,-3
3322,308,-113,951,-39,172,-46
3323,306,-121,935,-30,218,-83
3324,281,-114,946,-16,266,-115
3325,261,-83,948,-4,309,-138
3326,262,-57,981,-2,339,-162
3327,285,-26,973,-6,361,-186
3328,295,-36,949,-11,388,-205
3329,323,-46,930,-13,423,-215
3330,316,-58,928,-7,467,-212
3331,299,-51,946,1,512,-200
3332,269,-30,980,12,545,-191
3333,256,-12,980,12,565,-182
3334,266,3,970,8,577,-175
3335,282,2,945,2,594,-168
3336,299,-13,937,1,620,-159
3337,299,-28,936,4,658,-141
3338,274,-33,955,10,698,-118
3339,249,-26,981,15,730,-91
3340,212,-30,966,16,754,-66
3341,221,-13,952,20,767,-52
3342,234,5,950,22,779,-50
3343,261,-5,953,20,797,-50
3344,253,-16,954,19,825,-47
3345,224,-32,956,21,856,-37
3346,187,-42,971,23,882,-20
3347,171,-38,961,28,903,-4
3348,187,-29,968,35,916,5
3349,203,0,950,39,930,8
3350,209,-12,954,35,950,5
3351,209,-12,947,33,976,4
3352,178,-40,973,35,1003,8
3353,163,-59,979,39,1030,21
3354,141,-76,975,51,1049,36
3355,167,-73,970,67,1059,47
3356,172,-53,955,80,1071,52
3357,187,-52,959,88,1086,46
3358,164,-52,955,94,1110,37
3359,133,-65,968,98,1138,32
3360,99,-80,972,103,1158,31
3361,96,-61,979,115,1170,32
3362,60,-48,968,120,1178,17
3363,66,-25,974,120,1166,-6
3364,114,-13,968,116,1165,-36
3365,90,-21,957,109,1188,-66
3366,48,-48,954,104,1204,-83
3367,51,-52,978,107,1212,-92
3368,52,-55,991,113,1219,-94
3369,62,-40,976,118,1221,-99
3370,65,-10,961,123,1221,-110
3371,63,9,955,120,1228,-127
3372,35,2,966,111,1239,-144
3373,-7,-3,960,103,1252,-155
3374,-27,-7,976,99,1256,-159
3375,-129,78,992,99,1253,-160
3376,-1753,1380,1804,-6,1027,-108
3377,-1174,370,1273,-415,184,75
3378,590,-592,-252,-377,-35,51
3379,493,-300,-318,-187,30,22
3380,-250,656,1309,-134,80,65
3381,-757,555,1928,-314,22,-94
3382,131,-225,1257,-434,16,-176
3383,570,-302,665,-316,178,-174
3384,-117,-413,1573,-158,287,-133
3385,48,-2,1211,-68,303,-61
3386,275,-299,1193,-62,401,-111
3387,158,-100,962,-7,498,-127
3388,-14,-83,1337,-12,557,-83
3389,183,-153,1072,-7,577,-96
3390,115,-77,1030,19,646,-93
3391,94,-41,969,11,685,-77
3392,-111,-137,1180,19,682,-71
3393,25,17,844,25,688,-56
3394,-156,-131,1038,8,712,-51
3395,-125,-51,973,21,689,-24
3396,-143,-31,979,14,686,2
3397,-57,-56,920,8,678,11
3398,-159,-34,956,6,667,33
3399,-96,9,912,-8,648,67
3400,-214,-52,985,-20,629,90
3401,-148,7,928,-25,602,124
3402,-176,-50,964,-40,586,135
3403,-98,-35,945,-30,562,138
3404,-115,-15,918,-26,547,138
3405,-54,-35,952,-26,528,126
3406,-135,-7,936,-15,511,122
3407,-110,-3,985,-18,492,128
3408,-154,-42,992,-21,477,125
3409,-97,-17,977,-17,470,132
3410,-92,-40,948,-21,466,119
3411,-71,-39,977,-11,458,111
3412,-92,-9,938,-7,450,109
3413,-109,-25,993,-10,439,115
3414,-161,-15,963,-15,426,128
3415,-153,-37,986,-20,411,143
3416,-144,-52,945,-18,399,142
3417,-105,-43,972,-9,390,136
3418,-90,-43,945,-6,383,122
3419,-97,-35,981,2,371,120
3420,-120,-5,957,0,361,125
3421,-151,-27,1006,-9,350,134
3422,-167,-24,967,-9,338,143
3423,-281,-29,950,-15,324,154
3424,-300,-24,856,-22,280,181
3425,-267,-25,824,-27,237,207
3426,-269,-8,820,-39,197,225
3427,-343,-32,876,-53,147,236
3428,-354,-68,880,-56,83,250
3429,-319,-76,883,-38,23,252
3430,-252,-59,887,-22,-20,236
3431,-213,-24,927,-12,-51,211
3432,-170,5,949,-9,-74,189
3433,-153,11,965,-12,-96,170
3434,-138,24,952,-18,-113,163
3435,-170,2,981,-22,-126,164
3436,-160,3,993,-26,-140,169
3437,-139,2,982,-26,-147,165
3438,-91,4,967,-25,-149,151
3439,-104,20,963,-24,-151,133
3440,-124,16,971,-23,-160,119
3441,-166,23,957,-25,-175,111
3442,-190,13,962,-25,-192,105
3443,-188,4,951,-23,-207,95
3444,-185,-6,963,-16,-218,78
3445,-146,7,948,-7,-232,55
3446,-135,17,953,-3,-247,29
3447,-137,18,928,2,-265,5
3448,-170,12,959,3,-285,-10
3449,-183,6,960,4,-306,-18
3450,-173,-12,980,8,-324,-29
3451,-136,-25,975,16,-335,-44
3452,-108,-23,968,30,-344,-65
3453,-93,0,944,41,-356,-87
3454,-131,6,942,47,-371,-109
3455,-155,16,956,48,-393,-123
3456,-195,9,952,46,-414,-131
3457,-178,7,961,48,-434,-137
3458,-166,7,949,49,-452,-146
3459,-143,12,932,52,-469,-161
3460,-152,39,901,52,-490,-176
3461,-176,45,911,43,-515,-183
3462,-213,47,914,31,-546,-183
3463,-235,39,939,19,-576,-174
3464,-213,25,938,8,-602,-167
3465,-180,23,929,1,-623,-164
3466,-160,22,903,-2,-644,-165
3467,-150,46,910,-13,-667,-164
3468,-182,57,902,-27,-694,-159
3469,-204,47,937,-40,-723,-147
3470,-220,36,929,-58,-752,-132
3471,-190,8,942,-69,-776,-119
3472,-161,18,909,-74,-798,-111
3473,-139,14,915,-80,-819,-110
3474,-122,30,909,-87,-844,-110
3475,-146,37,923,-97,-868,-107
3476,-163,24,940,-105,-894,-102
3477,-164,5,951,-113,-916,-99
3478,-129,-18,941,-116,-935,-96
3479,89,123,1042,-111,-954,-100
3480,1764,297,1888,-189,-744,-78
3481,765,-388,798,-311,-16,1
3482,-167,-462,-215,-175,184,24
3483,-544,-337,-123,-16,112,-40
3484,119,-97,1816,118,-41,-68
3485,286,-48,1316,-32,-204,-42
3486,-558,-115,437,-44,-180,-60
3487,-253,187,591,19,-280,-154
3488,348,-44,1638,-49,-247,-149
3489,-356,-23,709,-57,-179,-232
3490,-185,-103,1033,-35,-252,-271
3491,-107,-44,1006,-49,-311,-295
3492,-107,-208,1218,-39,-308,-296
3493,-192,13,770,-16,-349,-342
3494,-19,-141,1180,-31,-390,-326
3495,-40,21,889,-19,-400,-344
3496,24,-101,1144,-34,-404,-333
3497,-111,14,841,-12,-408,-338
3498,-69,-48,1116,-17,-425,-308
3499,-104,39,952,-10,-445,-314
3500,-85,-33,1122,-18,-471,-292
3501,-87,32,908,-21,-506,-282
3502,-24,-74,1101,-24,-532,-251
3503,-83,7,905,-8,-540,-222
3504,-65,-30,1098,-6,-563,-188
3505,-108,43,973,-1,-588,-163
3506,-95,4,1104,-6,-624,-134
3507,-63,39,980,-11,-662,-113
3508,-45,-6,1036,-13,-689,-84
3509,-22,15,929,-8,-704,-55
3510,-2,-19,1054,-3,-711,-20
3511,-43,23,976,2,-715,14
3512,-44,10,1063,1,-735,45
3513,-41,22,987,-3,-750,67
3514,-23,-19,1005,-8,-760,84
3515,32,10,941,-5,-761,93
3516,55,-22,997,-8,-752,110
3517,72,-37,966,-7,-736,135
3518,45,-46,1003,3,-722,173
3519,53,-37,996,16,-715,215
3520,36,-11,1002,25,-715,257
3521,64,18,976,33,-720,284
3522,75,41,987,28,-721,299
3523,80,39,962,15,-712,308
3524,67,9,976,5,-700,315
3525,60,-10,993,2,-685,328
3526,66,-34,1001,-1,-676,346
3527,80,-23,984,6,-676,362
3528,105,-2,976,10,-681,369
3529,143,22,971,3,-682,364
3530,141,30,965,-8,-670,351
3531,141,5,963,-20,-650,339
3532,127,-16,989,-33,-627,335
3533,127,-25,984,-30,-611,337
3534,135,-14,984,-31,-603,339
3535,153,-1,974,-31,-598,334
3536,176,6,957,-38,-592,322
3537,192,1,975,-44,-577,307
3538,185,-29,991,-49,-554,290
3539,173,-58,991,-48,-533,284
3540,158,-70,972,-40,-517,278
3541,173,-44,969,-32,-510,267
3542,195,-26,961,-35,-501,249
3543,231,-27,967,-38,-485,220
3544,237,-40,967,-46,-460,184
3545,221,-76,971,-46,-429,154
3546,206,-90,967,-41,-400,131
3547,205,-93,978,-33,-380,110
3548,219,-61,961,-29,-364,89
3549,247,-30,958,-25,-345,62
3550,271,-30,959,-34,-321,30
3551,277,-40,959,-39,-290,0
3552,266,-62,966,-39,-256,-22
3553,231,-70,976,-34,-222,-33
3554,212,-44,956,-26,-195,-45
3555,242,-25,968,-24,-167,-61
3556,259,-11,939,-32,-137,-75
3557,294,-33,954,-38,-100,-92
3558,299,-45,954,-36,-55,-102
3559,262,-53,961,-29,-13,-104
3560,254,-38,969,-23,20,-109
3561,262,-46,989,-23,51,-107
3562,265,-45,940,-22,87,-101
3563,287,-23,926,-17,121,-103
3564,320,-21,946,-17,156,-101
3565,314,-30,973,-19,199,-93
3566,275,-34,964,-16,244,-82
3567,246,-28,960,-9,284,-67
3568,234,-13,960,-9,318,-54
3569,254,-6,952,-10,348,-44
3570,278,5,944,-13,377,-43
3571,284,-11,954,-16,409,-39
3572,279,-40,970,-18,442,-34
3573,243,-51,972,-10,476,-23
3574,229,-48,968,1,508,-10
3575,218,-35,959,7,533,0
3576,238,-18,939,9,557,3
3577,270,-7,951,8,581,2
3578,273,-17,956,2,608,-3
3579,262,-46,967,3,638,-5
3580,233,-61,971,13,671,-2
3581,203,-65,970,20,700,3
3582,197,-44,949,25,722,7
3583,216,-29,948,28,741,4
3584,245,-13,953,26,761,-4
3585,237,-19,954,21,786,-16
3586,230,-31,968,22,812,-22
3587,187,-44,979,22,837,-21
3588,174,-37,976,28,856,-18
3589,154,-14,955,29,872,-17
3590,171,-8,953,26,885,-21
3591,192,13,959,20,897,-31
3592,195,1,970,16,916,-38
3593,169,-18,979,15,942,-39
3594,129,-29,956,15,968,-33
3595,78,-28,975,17,981,-32
3596,112,-16,985,16,978,-23
3597,124,-6,963,20,990,-24
3598,134,0,945,14,1005,-24
3599,140,-5,949,9,1029,-21
3600,126,-20,975,10,1059,-18
3601,74,-27,965,12,1080,-5
3602,62,-13,984,18,1086,3
3603,62,0,1001,13,1084,2
3604,54,3,960,6,1088,-4
3605,73,-8,952,4,1097,-9
3606,65,-14,955,0,1119,-10
3607,31,-36,967,1,1138,-3
3608,18,-38,993,9,1144,3
3609,-2,-34,1004,10,1139,6
3610,8,-22,984,12,1131,1
3611,-1267,72,1534,7,1025,4
3612,-1150,476,1103,-44,166,30
3613,691,-49,-195,-85,-42,-155
3614,480,29,-372,0,8,-265
3615,-754,61,1522,7,19,-199
3616,-161,180,1605,-1,-93,-297
3617,554,-145,840,-18,69,-424
3618,521,181,640,3,256,-429
3619,-356,-201,1800,8,292,-385
3620,526,178,831,4,292,-355
3621,160,-223,1148,-34,460,-351
3622,103,-108,1131,-16,487,-259
3623,-94,-157,1314,-26,530,-184
3624,288,-143,845,-28,574,-146
3625,-148,-196,1124,-27,635,-101
3626,28,-52,963,-19,618,-36
3627,-213,-202,1051,-31,630,-9
3628,-45,-14,889,-15,618,35
3629,-292,-144,1003,-29,620,60
3630,-60,-33,940,-18,588,83
3631,-205,-57,948,-24,593,89
3632,-26,-28,927,-21,566,88
3633,-172,-32,939,-14,555,86
3634,-85,14,984,-13,534,93
3635,-187,-53,967,-24,522,90
3636,-67,3,987,-13,506,97
3637,-97,-57,935,-14,503,75
3638,-2,-16,1009,0,492,68
3639,-31,-9,958,6,490,52
3640,-2,15,1042,5,494,61
3641,-85,-17,983,-8,498,66
3642,-73,-14,1032,-14,497,79
3643,-69,-38,944,-14,492,71
3644,-27,-34,1008,-3,491,65
3645,-26,-32,945,5,488,47
3646,-14,-10,1023,12,490,44
3647,-65,-2,971,8,493,43
3648,-94,-20,1025,-1,494,58
3649,-126,-30,963,-6,490,68
3650,-116,-33,1004,-7,480,74
3651,-84,-36,912,-3,468,64
3652,-89,-40,965,7,459,57
3653,-114,5,928,9,442,45
3654,-155,-25,964,3,424,32
3655,-170,-36,913,5,400,28
3656,-210,-40,973,11,377,30
3657,-181,-25,938,15,354,28
3658,-164,-38,953,18,333,17
3659,-133,-31,905,25,313,2
3660,-158,-23,936,32,290,-11
3661,-185,-13,920,37,262,-22
3662,-221,-33,955,40,233,-27
3663,-215,-43,952,43,204,-30
3664,-203,-55,954,55,180,-39
3665,-163,-42,942,66,160,-51
3666,-161,-39,940,77,144,-68
3667,-162,-29,923,87,122,-83
3668,-203,-24,934,92,96,-92
3669,-234,-33,947,94,68,-94
3670,-250,-35,948,96,41,-91
3671,-223,-45,945,100,17,-92
3672,-194,-30,938,109,-4,-94
3673,-178,-13,920,111,-21,-99
3674,-198,-8,921,113,-46,-102
3675,-229,2,927,106,-75,-97
3676,-254,-10,933,98,-105,-86
3677,-248,-15,944,94,-132,-73
3678,-220,-19,947,94,-151,-63
3679,-171,-6,944,92,-167,-61
3680,-157,6,936,90,-181,-57
3681,-156,12,941,86,-199,-54
3682,-186,20,937,74,-221,-48
3683,-205,8,950,67,-242,-39
3684,-206,0,964,58,-262,-28
3685,-183,-5,956,57,-277,-21
3686,-146,4,945,56,-289,-18
3687,-137,23,938,55,-301,-22
3688,-161,23,931,48,-318,-24
3689,-189,32,928,37,-345,-21
3690,-228,23,944,28,-370,-15
3691,-215,14,954,22,-395,-8
3692,-200,5,943,20,-413,-4
3693,-146,12,937,20,-430,-7
3694,-141,32,924,15,-446,-12
3695,-157,31,924,9,-465,-14
3696,-182,28,931,-3,-490,-10
3697,-204,16,954,-11,-513,-1
3698,-192,16,953,-17,-534,7
3699,-158,0,964,-24,-547,13
3700,-121,1,938,-24,-562,13
3701,-108,24,928,-26,-577,16
3702,-133,21,926,-34,-593,19
3703,-160,17,955,-44,-614,24
3704,-185,5,959,-49,-634,31
3705,-162,-12,973,-50,-652,35
3706,-127,-18,951,-47,-667,34
3707,-89,-25,934,-41,-681,28
3708,-82,-1,925,-35,-698,19
3709,-110,3,945,-32,-716,11
3710,-141,-2,963,-32,-737,-1
3711,-150,-2,975,-26,-756,-10
3712,-123,-12,976,-17,-763,-18
3713,-80,0,944,-18,-781,-33
3714,-48,-3,918,-10,-800,-55
3715,-41,13,934,-1,-814,-76
3716,-96,39,947,2,-831,-95
3717,-119,37,969,2,-847,-114
3718,-138,26,968,2,-864,-133
3719,706,556,1415,-3,-862,-138
3720,1752,696,1893,-288,-482,-17
3721,162,-565,527,-529,75,82
3722,-403,-581,-143,-364,113,54
3723,-213,-112,609,-175,11,18
3724,543,266,1828,-188,-22,74
3725,-116,-73,1460,-301,24,186
3726,-462,-242,694,-262,-27,214
3727,-452,35,829,-171,-146,141
3728,-31,286,1261,-181,-239,105
3729,-119,175,1113,-266,-273,80
3730,-132,-21,1068,-287,-329,36
3731,-43,-252,1158,-225,-389,-37
3732,2,-233,1186,-116,-430,-92
3733,-160,-184,908,-79,-503,-74
3734,-79,-162,1030,-62,-578,-34
3735,-38,-74,1001,-35,-597,-33
3736,-111,-76,1003,-27,-592,-32
3737,-160,10,934,-25,-615,-31
3738,-97,-22,1113,-24,-632,-45
3739,-219,-12,1004,-29,-655,-54
3740,-214,-34,1039,-33,-707,-49
3741,-147,0,1021,-29,-748,-59
3742,-154,-29,1016,-35,-773,-51
3743,-103,2,969,-31,-803,-52
3744,-47,-31,1047,-32,-815,-47
3745,-105,-15,975,-29,-826,-39
3746,-89,-22,1040,-26,-856,-28
3747,-81,-15,1021,-25,-882,-23
3748,-74,-22,1013,-26,-908,-16
3749,-29,-3,966,-27,-928,-16
3750,2,-37,1006,-29,-932,-14
3751,-14,-26,949,-26,-929,-12
3752,-12,-41,1025,-22,-936,-5
3753,-25,-23,1008,-18,-951,-2
3754,-23,-27,1018,-17,-971,-2
3755,20,-11,977,-19,-984,-10
3756,53,-21,968,-23,-985,-17
3757,82,-26,943,-24,-976,-26
3758,94,-48,994,-24,-964,-26
3759,65,-39,979,-21,-954,-19
3760,78,-47,1014,-12,-954,-7
3761,66,-30,981,-12,-956,6
3762,91,-19,973,-9,-956,11
3763,130,17,942,-8,-953,7
3764,148,4,972,-16,-941,4
3765,143,-8,961,-22,-920,7
3766,125,-30,987,-23,-898,19
3767,119,-39,977,-18,-883,43
3768,130,-26,981,-12,-875,68
3769,165,-7,954,-7,-868,83
3770,192,24,957,-10,-859,94
3771,202,25,943,-16,-839,97
3772,199,9,971,-24,-816,101
3773,180,-4,977,-27,-789,115
3774,179,-21,991,-28,-765,131
3775,175,-9,959,-31,-742,147
3776,197,-2,938,-34,-725,156
3777,233,9,939,-42,-705,153
3778,245,11,951,-50,-678,146
3779,261,-19,982,-55,-645,141
3780,231,-46,987,-56,-610,139
3781,223,-57,969,-51,-583,142
3782,225,-40,950,-43,-561,137
3783,250,-30,941,-40,-543,124
3784,285,-21,951,-42,-520,105
3785,293,-21,958,-46,-494,82
3786,279,-44,975,-47,-465,63
3787,260,-51,971,-47,-435,49
3788,248,-51,964,-41,-409,35
3789,249,-29,948,-40,-387,20
3790,271,-18,944,-43,-367,-1
3791,305,-15,945,-48,-343,-27
3792,312,-23,955,-54,-313,-46
3793,309,-51,979,-54,-283,-62
3794,274,-60,973,-47,-249,-69
3795,254,-55,950,-40,-222,-69
3796,263,-33,952,-38,-199,-74
3797,282,-11,937,-39,-172,-84
3798,320,-27,957,-43,-145,-95
3799,323,-34,960,-43,-113,-104
3800,313,-59,974,-40,-80,-105
3801,278,-57,958,-33,-45,-98
3802,265,-51,962,-25,-15,-90
3803,282,-25,950,-22,11,-82
3804,298,-13,949,-23,41,-82
3805,329,-18,941,-22,70,-83
3806,334,-32,959,-26,104,-81
3807,317,-38,964,-21,140,-75
3808,283,-41,971,-17,175,-61
3809,266,-34,958,-13,207,-46
3810,277,-8,942,-10,235,-36
3811,307,5,946,-12,262,-34
3812,327,-7,954,-18,288,-35
3813,325,-17,951,-20,321,-32
3814,298,-40,964,-16,353,-28
3815,272,-43,970,-11,384,-19
3816,250,-39,956,-6,412,-8
3817,264,-23,948,-1,436,-7
3818,291,-7,945,-2,459,-8
3819,305,-30,952,-5,483,-15
3820,298,-41,956,-4,509,-19
3821,269,-58,965,1,539,-18
3822,243,-53,974,9,564,-15
3823,218,-42,961,14,586,-7
3824,243,-21,954,14,605,-9
3825,255,-8,950,10,624,-16
3826,275,-19,945,8,646,-26
3827,270,-42,965,6,673,-32
3828,241,-50,967,11,702,-30
3829,224,-53,971,20,727,-20
3830,204,-42,963,26,747,-8
3831,224,-24,950,27,766,-2
3832,250,-3,941,26,785,-1
3833,258,-9,950,25,809,-5
3834,248,-20,955,24,838,-4
3835,216,-31,973,26,869,4
3836,191,-28,964,30,893,17
3837,176,-20,970,32,910,32
3838,195,3,953,33,925,38
3839,212,19,950,27,944,36
3840,216,16,935,21,968,30
3841,202,-15,961,15,996,23
3842,168,-34,959,15,1025,29
3843,154,-48,973,19,1045,41
3844,137,-29,965,26,1059,52
3845,150,-10,960,28,1069,56
3846,168,15,944,24,1082,47
3847,161,10,957,15,1102,35
3848,146,-15,958,8,1127,23
3849,105,-37,968,7,1148,18
3850,91,-39,980,9,1161,21
3851,68,-25,967,12,1170,19
3852,48,-30,980,11,1165,7
3853,107,-28,978,7,1161,-2
3854,77,-33,919,10,1188,-7
3855,64,-41,949,11,1205,-7
3856,43,-36,998,14,1217,-2
3857,25,-27,1017,20,1217,-2
3858,-2,-6,985,18,1205,1
3859,6,1,959,16,1197,-2
3860,25,0,950,12,1206,-8
3861,9,-17,954,6,1221,-7
3862,13,-37,983,10,1227,-3
3863,-27,-36,1015,17,1227,3
3864,-56,-25,1000,20,1215,11
3865,-1383,34,1547,22,1066,20
3866,-1060,564,911,-49,116,56
3867,663,-23,-260,-123,-99,-95
3868,462,58,-581,-86,-102,-150
3869,383,-583,1382,-41,-53,-13
3870,-586,207,1399,42,190,-2
3871,249,-86,760,-23,320,-115
3872,454,202,-18,-41,399,-98
3873,-751,-323,1699,2,358,-29
3874,331,204,606,3,244,-56
3875,-26,-274,1069,-11,349,-89
3876,-13,1,863,24,341,-46
3877,-427,-160,1466,-3,352,-29
3878,197,-10,695,13,357,-39
3879,-264,-170,1139,-2,420,-26
3880,24,65,926,11,396,18
3881,-265,-141,1155,-9,414,19
3882,84,68,833,-8,403,51
3883,-306,-146,1084,-26,422,76
3884,1,20,939,-18,383,118
3885,-246,-82,1008,-37,400,131
3886,31,-28,900,-30,364,130
3887,-137,-60,940,-19,361,120
3888,13,25,971,-8,337,121
3889,-168,-18,1014,-17,336,118
3890,-48,41,1007,-24,320,135
3891,-166,-59,945,-35,323,123
3892,-47,-1,961,-22,300,122
3893,-74,-40,935,-15,289,95
3894,14,30,1017,-2,285,88
3895,-70,0,992,-11,291,78
3896,-35,18,1058,-16,289,89
3897,-89,-20,963,-25,293,88
3898,-43,-23,1012,-24,291,91
3899,-56,-52,942,-18,286,71
3900,12,-8,1026,-3,284,60
3901,6,0,985,1,292,39
3902,0,16,1070,-2,303,47
3903,-49,2,986,-16,311,52
3904,-61,-15,1031,-19,315,61
3905,-70,-36,947,-22,312,55
3906,-62,-33,1005,-11,310,45
3907,-31,-19,952,0,304,24
3908,-29,6,1025,2,307,19
3909,-60,5,978,-2,307,15
3910,-103,0,1012,-9,306,26
3911,-136,-9,955,-16,296,34
3912,-138,-26,978,-20,285,36
3913,-123,-28,917,-13,270,23
3914,-107,-19,976,-2,254,10
3915,-102,11,945,1,240,-2
3916,-134,0,983,-1,229,-5
3917,-165,8,943,-8,215,-4
3918,-199,-21,963,-15,197,-1
3919,-167,-26,933,-12,174,0
3920,-162,-29,969,-5,157,-8
3921,-110,-20,932,-1,138,-20
3922,-122,-26,944,4,121,-36
3923,-133,-6,920,11,99,-51
3924,-175,-15,958,10,76,-64
3925,-191,-9,949,16,50,-74
3926,-171,-6,957,18,29,-84
3927,-136,-8,947,19,13,-97
3928,-124,-9,946,22,-4,-109
3929,-110,11,923,23,-27,-119
3930,-143,3,938,22,-49,-127
3931,-173,0,943,18,-73,-131
3932,-209,-17,961,16,-97,-131
3933,-185,-24,962,17,-118,-129
3934,-162,-33,954,19,-138,-132
3935,-127,-38,929,28,-157,-136
3936,-125,-18,924,30,-177,-143
3937,-153,-9,930,29,-198,-144
3938,-192,-17,946,26,-223,-142
3939,-206,-27,960,23,-250,-135
3940,-179,-45,957,24,-272,-130
3941,-152,-36,937,31,-290,-130
3942,-134,-36,930,34,-307,-131
3943,-138,-21,931,37,-327,-134
3944,-172,-13,932,35,-351,-132
3945,-198,-28,946,34,-377,-126
3946,-214,-36,956,33,-403,-117
3947,-185,-42,947,34,-426,-108
3948,-157,-32,935,38,-444,-105
3949,-142,-22,935,43,-462,-107
3950,-143,-10,919,42,-483,-110
3951,-175,4,930,40,-507,-108
3952,-201,-5,944,37,-535,-105
3953,-213,-13,950,33,-559,-99
3954,-184,-20,935,35,-581,-95
3955,-155,-6,938,38,-602,-97
3956,-137,11,916,39,-621,-103
3957,-146,11,921,38,-645,-112
3958,-168,28,922,35,-670,-114
3959,-204,15,940,30,-698,-117
3960,-194,-1,939,29,-725,-119
3961,-175,-19,933,31,-748,-125
3962,-125,-10,930,39,-770,-133
3963,-119,0,918,46,-794,-145
3964,-104,-3,921,48,-819,-158
3965,-121,23,937,50,-842,-169
3966,1437,868,1792,-8,-772,-137
3967,1273,-26,1559,-374,-203,74
3968,-203,-788,137,-361,129,178
3969,-352,-470,73,-111,70,185
3970,266,275,1541,6,-16,217
3971,86,166,1556,-137,-33,314
3972,-436,-184,963,-151,-70,313
3973,-457,29,680,-59,-173,243
3974,-222,175,1305,-58,-277,193
3975,-187,189,1089,-124,-321,183
3976,-286,7,1067,-158,-385,135
3977,-187,96,909,-150,-472,82
3978,-17,-11,1229,-160,-531,40
3979,30,-134,1089,-133,-553,-12
3980,-132,-197,1030,-101,-596,-4
3981,-60,-129,940,-68,-648,19
3982,-126,-114,1057,-47,-653,31
3983,-139,-8,917,-36,-658,20
3984,-74,-37,1095,-47,-693,-1
3985,-99,-28,957,-48,-702,-29
3986,-109,-79,1033,-48,-723,-42
3987,-134,-53,976,-39,-739,-40
3988,-144,-36,1050,-28,-766,-34
3989,-129,0,1024,-28,-800,-33
3990,-113,-6,1032,-33,-836,-33
3991,-72,5,958,-36,-858,-36
3992,-63,-23,999,-42,-871,-36
3993,-55,-24,984,-38,-879,-30
3994,-73,-26,1033,-34,-893,-24
3995,-69,-7,1022,-31,-916,-15
3996,-67,0,1017,-35,-944,-13
3997,-20,1,979,-41,-965,-15
3998,-4,-1,971,-45,-971,-18
3999,22,-14,964,-48,-968,-18
4000,24,-37,1001,-46,-968,-14
4001,2,-36,1003,-40,-971,-3
4002,6,-33,1015,-37,-985,1
4003,23,-20,986,-35,-999,1
4004,54,-25,971,-38,-1008,-6
4005,95,-23,958,-40,-1002,-14
4006,96,-34,956,-40,-989,-21
4007,107,-47,983,-38,-977,-18
4008,85,-42,996,-33,-970,-13
4009,100,-38,995,-31,-965,-5
4010,93,-21,957,-30,-963,2
4011,126,-3,957,-28,-960,2
4012,168,4,955,-34,-950,3
4013,184,-6,971,-38,-932,4
4014,174,-31,973,-39,-908,14
4015,160,-35,975,-36,-884,35
4016,161,-31,961,-29,-863,59
4017,179,-10,960,-28,-845,83
4018,199,14,941,-30,-821,98
4019,234,10,944,-35,-791,103
4020,242,2,954,-44,-759,109
4021,240,-27,977,-44,-725,119
4022,217,-41,971,-41,-690,131
4023,200,-39,958,-35,-659,143
4024,214,-20,940,-31,-631,150
4025,242,-4,952,-32,-606,146
4026,276,-10,957,-37,-581,137
4027,280,-30,962,-40,-550,126
4028,256,-53,967,-36,-519,115
4029,233,-52,974,-30,-493,111
4030,216,-47,966,-28,-466,103
4031,223,-27,949,-26,-445,92
4032,257,-15,948,-28,-427,74
4033,286,-32,968,-33,-407,55
4034,292,-45,960,-35,-384,39
4035,270,-62,973,-31,-355,28
4036,251,-57,967,-24,-330,24
4037,231,-48,958,-19,-304,20
4038,266,-21,953,-18,-282,14
4039,291,-5,954,-22,-259,4
4040,316,-16,957,-28,-235,-8
4041,308,-26,955,-32,-205,-16
4042,291,-42,965,-30,-173,-19
4043,266,-38,976,-26,-142,-18
4044,261,-26,961,-23,-114,-15
4045,278,-15,955,-23,-89,-18
4046,306,5,935,-28,-61,-24
4047,330,-11,946,-33,-30,-34
4048,331,-23,962,-37,3,-44
4049,300,-39,971,-37,39,-45
4050,284,-39,967,-29,73,-42
4051,265,-31,963,-25,104,-42
4052,292,-21,942,-23,134,-43
4053,318,-6,934,-28,163,-48
4054,328,-20,952,-29,190,-59
4055,321,-38,957,-34,223,-62
4056,289,-54,974,-29,257,-62
4057,270,-48,959,-19,287,-59
4058,267,-41,971,-16,312,-56
4059,287,-33,939,-14,340,-56
4060,313,-21,933,-16,365,-57
4061,323,-29,943,-15,392,-61
4062,317,-47,969,-16,424,-61
4063,283,-51,972,-12,455,-56
4064,262,-45,966,-6,486,-47
4065,257,-28,952,0,509,-40
4066,281,-21,942,2,531,-39
4067,304,-13,941,-1,556,-42
4068,305,-30,948,-5,585,-42
4069,296,-46,965,-3,613,-39
4070,264,-51,970,4,643,-29
4071,249,-47,966,11,671,-16
4072,240,-27,948,18,694,-6
4073,257,-18,931,20,715,1
4074,281,-13,951,17,736,4
4075,277,-23,957,15,759,9
4076,263,-42,966,19,784,16
4077,219,-53,976,25,809,28
4078,200,-41,961,31,830,46
4079,202,-21,958,36,846,59
4080,211,-5,942,36,862,67
4081,233,3,951,33,879,70
4082,235,-7,961,32,902,72
4083,221,-27,972,33,925,80
4084,187,-35,967,35,950,92
4085,171,-30,964,41,969,108
4086,164,0,945,44,987,121
4087,186,11,952,42,1003,124
4088,199,16,955,34,1023,122
4089,192,0,946,27,1052,121
4090,172,-25,969,27,1078,123
4091,131,-40,968,28,1102,137
4092,104,-36,958,34,1118,153
4093,105,-8,969,41,1125,163
4094,107,7,956,37,1133,166
4095,122,13,964,31,1144,159
4096,101,10,953,25,1164,146
4097,40,-40,995,18,1175,133
4098,46,-48,998,19,1167,130
4099,29,-30,976,30,1168,129
4100,14,-9,957,25,1164,125
4101,44,-2,972,22,1163,112
4102,75,-14,979,19,1168,94
4103,52,-35,970,11,1179,82
4104,26,-57,973,15,1187,78
4105,0,-61,995,24,1191,75
4106,-38,-46,965,29,1191,78
4107,-18,-13,991,33,1181,73
4108,-19,3,983,27,1175,61
4109,0,-4,973,19,1172,45
4110,-206,23,1015,21,1174,28
4111,-1819,-32,1825,5,771,44
4112,-385,562,-7,-76,-97,70
4113,590,-180,-522,-92,-109,-70
4114,325,-77,816,0,-98,-15
4115,-307,88,1599,-18,185,61
4116,0,-299,649,-59,311,-104
4117,496,255,71,13,353,-83
4118,-733,-178,1295,-43,323,-19
4119,143,-26,1226,23,138,-46
4120,223,9,514,5,251,-99
4121,-28,-63,1276,2,291,-70
4122,-246,-83,1219,15,267,-94
4123,215,41,910,-1,314,-104
4124,-191,-156,938,-5,377,-112
4125,-167,-1,1193,20,335,-51
4126,-117,-16,844,-23,344,-46
4127,-84,-129,1076,-11,348,-24
4128,-142,22,908,-13,341,2
4129,-3,-68,1069,-28,333,15
4130,-60,-45,893,-22,338,27
4131,-83,-15,1081,-24,329,46
4132,-22,-74,894,-26,318,41
4133,-75,-24,1078,-15,323,52
4134,19,-44,917,-13,315,25
4135,41,-27,1086,3,325,24
4136,86,28,956,1,333,10
4137,14,0,1103,-8,353,22
4138,36,4,985,-18,353,28
4139,-22,1,1066,-24,373,40
4140,19,-28,948,-25,376,26
4141,0,-17,1058,-14,383,18
4142,78,9,974,-7,386,-1
4143,30,10,1066,-10,406,-2
4144,19,24,996,-19,414,3
4145,-45,-19,1052,-30,426,14
4146,-43,-26,965,-34,428,15
4147,-70,-37,1016,-27,429,12
4148,-22,-28,952,-21,423,-5
4149,-47,-27,1004,-12,423,-15
4150,-33,9,952,-10,418,-23
4151,-115,-4,997,-16,417,-23
4152,-144,1,941,-21,399,-21
4153,-191,-30,955,-20,379,-23
4154,-160,-11,915,-17,353,-33
4155,-186,-19,933,-11,329,-48
4156,-152,4,894,-6,299,-67
4157,-182,4,907,-1,270,-85
4158,-205,27,895,4,237,-98
4159,-261,3,928,1,202,-108
4160,-256,-2,925,2,163,-115
4161,-234,-21,922,0,132,-121
4162,-189,-18,911,4,105,-128
4163,-191,-22,918,8,79,-138
4164,-166,-11,922,8,52,-141
4165,-207,-18,934,8,24,-142
4166,-210,-25,951,8,-3,-135
4167,-214,-39,948,4,-29,-128
4168,-170,-47,953,6,-48,-121
4169,-149,-38,947,8,-64,-115
4170,-116,-37,950,7,-80,-111
4171,-121,-40,941,7,-96,-107
4172,-142,-26,957,9,-113,-98
4173,-173,-33,969,6,-133,-90
4174,-173,-39,969,4,-149,-80
4175,-136,-42,951,3,-164,-73
4176,-113,-37,960,4,-176,-69
4177,-104,-28,941,6,-190,-69
4178,-111,-32,951,9,-209,-71
4179,-141,-22,948,14,-229,-72
4180,-164,-33,971,12,-246,-70
4181,-154,-30,955,14,-265,-69
4182,-136,-40,958,16,-280,-69
4183,-111,-21,942,17,-295,-70
4184,-116,-16,947,19,-313,-75
4185,-130,-24,931,21,-335,-80
4186,-176,-24,936,23,-358,-79
4187,-215,-42,938,27,-388,-79
4188,-224,-52,952,33,-417,-77
4189,-203,-62,931,41,-441,-81
4190,-170,-52,928,53,-464,-88
4191,-160,-33,911,62,-492,-94
4192,-181,-39,918,65,-521,-96
4193,-209,-25,906,68,-553,-94
4194,-243,-34,935,67,-586,-88
4195,-226,-33,928,69,-617,-79
4196,-212,-41,933,70,-642,-78
4197,-168,-31,915,75,-667,-78
4198,-162,-10,915,78,-692,-79
4199,-169,-17,907,78,-723,-80
4200,-203,-4,920,77,-754,-75
4201,-208,-9,935,74,-783,-70
4202,-195,-16,944,72,-808,-66
4203,-145,-12,945,74,-829,-61
4204,-108,-14,931,75,-849,-64
4205,1039,673,1572,65,-825,-63
4206,1702,267,1763,-223,-350,67
4207,194,-701,375,-289,124,215
4208,-286,-524,12,-53,123,281
4209,-143,404,1487,53,15,352
4210,-64,75,1502,-107,-121,387
4211,-341,-234,995,-52,-154,278
4212,-287,27,783,58,-230,227
4213,-160,211,1187,34,-317,231
4214,-151,167,1025,-37,-352,219
4215,-223,48,1065,-60,-399,168
4216,-157,75,981,-59,-463,137
4217,-121,51,1082,-78,-508,124
4218,-27,45,997,-86,-540,98
4219,-46,8,1029,-91,-570,82
4220,27,20,961,-94,-589,77
4221,-9,-14,1053,-96,-594,71
4222,-23,-54,967,-97,-583,89
4223,-64,-71,1006,-86,-584,111
4224,-8,-46,1000,-70,-592,138
4225,-38,-25,1000,-63,-600,164
4226,20,0,990,-59,-606,173
4227,-44,17,983,-63,-608,179
4228,-27,14,995,-70,-606,192
4229,-104,0,1007,-76,-608,204
4230,-98,-9,1023,-75,-622,226
4231,-131,6,1007,-75,-653,244
4232,-85,12,1038,-72,-686,254
4233,-95,30,979,-81,-711,255
4234,-58,3,1016,-91,-729,249
4235,-61,-48,1018,-95,-734,243
4236,-38,-106,1052,-84,-741,250
4237,-55,-104,1000,-63,-762,261
4238,-35,-65,1022,-46,-792,268
4239,-23,-25,980,-41,-812,251
