sequence,AccelerometerX,AccelerometerY,AccelerometerZ,GyroscopeX,GyroscopeY,GyroscopeZ
0,-7,-22,997,-15,-1,-6
1,-6,-20,998,-14,0,-6
2,-5,-22,997,-9,-1,-6
3,-8,-20,999,-9,3,-6
4,-7,-20,997,-15,-5,-7
5,-7,-21,1000,-14,-1,-6
6,-6,-20,999,-13,1,-7
7,-7,-20,999,-16,0,-6
8,-7,-22,1000,-13,0,-6
9,-5,-21,998,-16,0,-6
10,-4,-20,999,-12,1,-6
11,-6,-20,999,-15,1,-6
12,-7,-20,997,-16,0,-5
13,-8,-22,998,-13,1,-5
14,-6,-21,1000,-14,0,-5
15,-7,-20,998,-13,1,-6
16,-6,-21,997,-14,1,-6
17,-6,-22,998,-16,1,-6
18,-5,-21,998,-13,1,-7
19,-6,-20,998,-14,2,-6
20,-6,-21,998,-15,0,-6
21,-6,-20,997,-14,1,-6
22,-5,-20,997,-15,1,-4
23,-6,-20,997,-15,2,-6
24,-7,-20,998,-15,1,-6
25,-8,-21,997,-13,0,-5
26,-8,-20,998,-13,1,-7
27,-8,-23,997,-15,2,-6
28,-5,-21,997,-13,1,-6
29,-7,-21,998,-15,1,-6
30,-7,-20,998,-15,1,-6
31,-7,-20,997,-14,0,-6
32,-5,-23,997,-15,0,-7
33,-5,-20,997,-15,0,-6
34,-7,-21,998,-14,1,-6
35,-8,-21,998,-13,0,-7
36,-7,-21,998,-14,2,-5
37,-6,-22,998,-13,1,-6
38,-6,-21,999,-14,1,-6
39,-7,-19,999,-13,0,-6
40,-8,-21,998,-15,1,-6
41,-8,-20,997,-15,0,-7
42,-7,-22,997,-14,0,-7
43,-8,-20,998,-13,0,-5
44,-6,-23,998,-13,0,-6
45,-7,-21,997,-14,0,-7
46,-8,-20,998,-13,1,-6
47,-8,-20,998,-13,1,-5
48,-7,-20,997,-14,1,-7
49,-5,-21,997,-14,1,-6
50,-7,-20,998,-13,1,-5
51,-5,-23,998,-13,2,-7
52,-6,-20,997,-14,1,-7
53,-6,-20,997,-13,0,-6
54,-5,-22,998,-13,-1,-6
55,-6,-22,998,-15,0,-6
56,-6,-21,998,-15,2,-5
57,-5,-21,998,-14,2,-6
58,-6,-22,997,-14,2,-7
59,-6,-20,998,-14,1,-6
60,-8,-21,998,-13,1,-6
61,-7,-20,998,-14,1,-5
62,-5,-20,997,-14,0,-6
63,-7,-19,998,-14,1,-7
64,-9,-21,997,-14,2,-5
65,-6,-22,997,-15,2,-6
66,-7,-21,998,-14,0,-7
67,-7,-19,998,-15,1,-6
68,-5,-22,997,-14,1,-6
69,-7,-20,998,-15,0,-6
70,-6,-20,998,-14,1,-6
71,-7,-20,998,-14,0,-6
72,-6,-20,997,-14,0,-4
73,-7,-22,999,-14,1,-5
74,-5,-20,999,-12,0,-7
75,-6,-22,997,-13,1,-7
76,-7,-21,998,-14,1,-7
77,-8,-19,998,-13,0,-7
78,-6,-20,998,-13,-1,-6
79,-6,-22,997,-14,1,-6
80,-7,-20,997,-13,1,-6
81,-7,-22,998,-13,1,-7
82,-6,-22,997,-14,0,-7
83,-6,-21,997,-14,1,-8
84,-6,-19,998,-13,1,-6
85,-5,-22,998,-15,1,-6
86,-6,-20,997,-14,1,-6
87,-9,-20,998,-15,0,-6
88,-9,-20,997,-13,0,-6
89,-8,-20,997,-13,0,-7
90,-7,-20,997,-14,0,-7
91,-7,-21,997,-14,0,-7
92,-6,-21,998,-14,0,-6
93,-8,-20,998,-14,0,-7
94,-7,-21,996,-14,0,-6
95,-7,-22,998,-12,2,-5
96,-7,-21,998,-14,1,-6
97,-7,-19,996,-15,0,-6
98,-7,-22,997,-15,0,-6
99,-6,-22,997,-14,1,-6
100,-6,-19,999,-13,1,-6
101,-9,-20,998,-13,0,-7
102,-6,-21,997,-13,1,-7
103,-6,-19,999,-13,0,-6
104,-6,-21,1000,-13,1,-6
105,-6,-19,998,-13,0,-6
106,-7,-22,998,-13,1,-7
107,-8,-21,998,-15,0,-6
108,-7,-20,998,-14,0,-7
109,-8,-19,999,-15,0,-6
110,-6,-20,998,-13,0,-5
111,-6,-21,998,-13,0,-7
112,-5,-22,998,-14,0,-7
113,-5,-21,998,-15,1,-7
114,-7,-22,996,-15,2,-7
115,-6,-22,998,-15,0,-7
116,-7,-22,997,-14,-1,-6
117,-7,-21,997,-14,0,-6
118,-7,-21,997,-15,0,-6
119,-7,-21,998,-14,0,-6
120,-6,-23,998,-15,1,-6
121,-7,-20,999,-15,2,-5
122,-7,-21,996,-13,2,-5
123,-7,-21,998,-13,2,-6
124,-7,-21,997,-13,2,-7
125,-6,-20,997,-15,2,-6
126,-6,-22,997,-14,1,-6
127,-6,-20,998,-14,2,-6
128,-6,-22,998,-14,1,-6
129,-8,-20,996,-13,1,-6
130,-7,-21,996,-14,0,-6
131,-7,-20,998,-14,0,-5
132,-7,-21,998,-14,1,-6
133,-7,-20,995,-15,2,-6
134,-6,-21,998,-14,1,-7
135,-8,-22,998,-14,1,-7
136,-6,-21,995,-14,1,-7
137,-7,-20,998,-13,0,-6
138,-6,-20,1001,-14,1,-6
139,-8,-20,995,-13,0,-7
140,-6,-22,997,-15,1,-7
141,-7,-23,1002,-14,0,-6
142,-6,-22,997,-13,1,-5
143,-4,-22,996,-14,0,-6
144,-5,-23,999,-15,1,-6
145,-7,-22,999,-14,0,-6
146,-5,-22,998,-15,2,-6
147,-7,-20,998,-14,1,-6
148,-7,-21,998,-13,0,-6
149,-6,-22,997,-12,1,-6
150,-6,-20,998,-13,1,-8
151,-6,-20,998,-13,1,-8
152,-6,-20,1000,-13,-1,-6
153,-7,-21,999,-14,1,-5
154,-5,-22,996,-14,0,-7
155,-7,-22,1000,-13,0,-6
156,-7,-20,998,-13,1,-6
157,-8,-23,997,-14,1,-6
158,-7,-22,995,-14,0,-8
159,-5,-21,999,-15,0,-6
160,-6,-22,996,-14,0,-6
161,-7,-22,995,-14,1,-5
162,-8,-21,997,-16,1,-6
163,-7,-19,999,-14,0,-6
164,-6,-20,999,-13,0,-6
165,-5,-21,997,-14,2,-7
166,-6,-22,998,-13,2,-6
167,-7,-20,998,-13,0,-6
168,-6,-22,998,-14,0,-6
169,-8,-21,996,-15,1,-6
170,-7,-22,997,-13,1,-5
171,-8,-20,998,-15,0,-7
172,-6,-20,998,-15,0,-6
173,-5,-21,994,-13,1,-6
174,-6,-20,999,-14,1,-7
175,-6,-21,998,-15,1,-6
176,-7,-21,999,-13,0,-5
177,-6,-19,997,-14,2,-6
178,-8,-19,997,-15,1,-5
179,-8,-21,999,-14,0,-6
180,-8,-21,1000,-14,1,-6
181,-6,-21,998,-15,0,-6
182,-6,-21,998,-15,-1,-6
183,-6,-19,998,-15,0,-7
184,-6,-20,999,-15,1,-6
185,-6,-21,995,-14,1,-7
186,-7,-21,996,-15,0,-6
187,-8,-20,999,-14,0,-6
188,-6,-21,998,-13,0,-7
189,-7,-20,998,-14,1,-7
190,-6,-22,998,-13,1,-6
191,-7,-19,999,-14,0,-5
192,-6,-20,997,-15,0,-6
193,-7,-19,997,-13,1,-7
194,-6,-22,996,-13,0,-5
195,-5,-22,998,-14,0,-6
196,-6,-24,998,-13,1,-5
197,-6,-21,998,-15,0,-6
198,-6,-20,996,-14,0,-6
199,-6,-19,998,-14,1,-7
200,-7,-20,999,-14,0,-6
201,-7,-21,998,-15,-1,-6
202,-8,-20,996,-14,1,-6
203,-9,-21,998,-15,0,-7
204,-7,-23,998,-14,1,-6
205,-8,-21,999,-14,1,-5
206,-7,-21,995,-13,2,-6
207,-5,-20,998,-13,0,-6
208,-6,-20,997,-14,-1,-6
209,-8,-21,998,-14,0,-6
210,-7,-20,995,-14,2,-5
211,-7,-20,998,-14,1,-6
212,-6,-21,998,-13,0,-7
213,-6,-20,999,-13,0,-5
214,-7,-21,996,-15,0,-6
215,-6,-20,997,-16,1,-5
216,-5,-21,998,-14,0,-6
217,-8,-21,999,-14,0,-5
218,-9,-22,996,-13,1,-5
219,-7,-23,996,-14,1,-6
220,-6,-19,999,-14,-1,-7
221,-7,-20,1001,-13,1,-7
222,-5,-19,997,-14,0,-6
223,-7,-20,995,-15,0,-7
224,-7,-20,999,-14,1,-5
225,-7,-22,998,-15,0,-5
226,-7,-20,998,-15,1,-6
227,-5,-19,996,-16,1,-6
228,-5,-22,999,-14,1,-7
229,-6,-21,998,-14,1,-6
230,-6,-22,997,-14,0,-7
231,-7,-21,996,-15,0,-6
232,-8,-20,999,-14,1,-6
233,-7,-22,998,-14,1,-7
234,-8,-19,999,-15,1,-6
235,-5,-19,998,-15,1,-7
236,-5,-22,997,-14,0,-6
237,-6,-21,998,-14,0,-6
238,-7,-21,998,-13,1,-7
239,-7,-21,997,-15,1,-7
240,-5,-22,997,-15,1,-6
241,-6,-20,999,-15,1,-6
242,-5,-22,998,-14,1,-6
243,-7,-22,998,-14,0,-6
244,-7,-20,997,-16,0,-7
245,-6,-21,999,-15,0,-6
246,-6,-21,999,-15,0,-6
247,-9,-22,999,-14,0,-6
248,-6,-19,1000,-14,0,-6
249,-6,-21,999,-14,0,-7
250,-5,-21,998,-16,1,-6
251,-5,-19,999,-16,1,-6
252,-7,-22,998,-14,0,-6
253,-7,-23,999,-14,0,-5
254,-6,-22,1000,-14,0,-7
255,-6,-22,999,-14,2,-5
256,-7,-21,999,-16,1,-5
257,-6,-21,999,-14,-1,-6
258,-7,-20,998,-15,1,-7
259,-6,-20,998,-15,0,-6
260,-7,-22,999,-15,0,-5
261,-6,-22,997,-16,1,-4
262,-4,-23,999,-15,0,-5
263,-6,-20,998,-16,1,-5
264,-5,-22,997,-14,2,-6
265,-5,-20,997,-15,0,-5
266,-5,-20,998,-14,1,-5
267,-6,-20,997,-14,1,-6
268,-7,-22,998,-15,0,-6
269,-6,-23,999,-15,0,-6
270,-6,-21,998,-13,0,-6
271,-7,-22,999,-17,-1,-6
272,-6,-20,999,-16,0,-7
273,-5,-20,997,-15,0,-6
274,-5,-21,999,-16,-1,-5
275,-6,-22,997,-15,0,-6
276,-6,-20,998,-16,0,-7
277,-8,-20,997,-14,0,-6
278,-8,-21,997,-15,-1,-5
279,-9,-22,997,-16,0,-5
280,-8,-20,997,-15,-1,-5
281,-6,-20,996,-15,-1,-5
282,-7,-22,998,-15,0,-6
283,-6,-21,998,-15,-1,-6
284,-7,-22,997,-16,0,-5
285,-7,-20,997,-15,0,-6
286,-5,-22,998,-15,1,-6
287,-5,-22,999,-16,1,-5
288,-5,-21,998,-15,0,-6
289,-8,-23,999,-14,0,-7
290,-6,-22,998,-15,1,-5
291,-7,-21,996,-15,1,-5
292,-7,-20,997,-12,1,-6
293,-7,-22,998,-15,1,-6
294,-7,-21,999,-14,1,-6
295,-7,-22,998,-13,0,-6
296,-6,-21,998,-16,1,-5
297,-6,-22,999,-13,0,-7
298,-6,-22,996,-16,-1,-6
299,-5,-22,998,-13,0,-6
300,-5,-21,997,-13,0,-6
301,-5,-21,998,-15,1,-5
302,-4,-22,998,-13,1,-5
303,-4,-21,1003,-14,0,-7
304,-4,-19,999,-15,0,-6
305,-8,-19,998,-13,1,-6
306,-8,-22,996,-16,1,-6
307,-7,-22,998,-15,2,-5
308,-6,-26,995,-15,0,-5
309,-7,-25,998,-12,1,-6
310,-6,-24,997,-13,1,-5
311,-6,-21,998,-14,1,-5
312,-7,-19,998,-13,1,-6
313,-7,-20,997,-14,-1,-6
314,-7,-23,995,-14,1,-6
315,-6,-22,999,-13,2,-6
316,-6,-20,998,-14,2,-6
317,-7,-21,997,-13,1,-6
318,-9,-20,998,-12,2,-6
319,-8,-18,999,-14,1,-7
320,-7,-18,998,-14,1,-6
321,-8,-21,998,-14,1,-6
322,-9,-22,998,-15,1,-6
323,-9,-21,997,-14,1,-6
324,-7,-20,998,-15,1,-5
325,-8,-19,998,-14,0,-6
326,-7,-18,998,-15,1,-6
327,-7,-21,999,-14,0,-6
328,-9,-19,999,-13,0,-7
329,-8,-21,998,-15,0,-6
330,-7,-20,998,-16,-1,-8
331,-4,-22,998,-14,0,-6
332,-5,-21,998,-14,1,-7
333,-8,-22,999,-14,1,-5
334,-6,-21,999,-14,1,-5
335,-7,-19,997,-15,0,-6
336,-5,-21,998,-15,1,-6
337,-6,-23,998,-14,2,-7
338,-4,-23,999,-14,1,-6
339,-5,-23,997,-14,1,-5
340,-5,-21,997,-16,1,-6
341,-6,-21,998,-15,0,-7
342,-4,-20,997,-14,-1,-7
343,-6,-22,999,-14,0,-7
344,-4,-22,997,-13,0,-5
345,-4,-22,998,-14,0,-6
346,-6,-22,999,-6,7,-4
347,-6,-21,998,-19,2,-5
348,-5,-22,997,-12,0,-7
349,-6,-21,998,-14,2,-6
350,-7,-21,997,-14,1,-6
351,-6,-22,997,-13,1,-6
352,-7,-20,999,-15,0,-6
353,-7,-20,999,-13,0,-6
354,-8,-20,998,-15,1,-6
355,-7,-22,997,-14,0,-7
356,-8,-21,998,-13,0,-6
357,-8,-21,998,-14,1,-5
358,-6,-22,997,-13,0,-6
359,-7,-21,997,-14,0,-7
360,-6,-20,998,-14,1,-6
361,-9,-21,998,-14,1,-5
362,-8,-21,995,-15,0,-5
363,-8,-21,999,-14,-1,-6
364,-5,-19,997,-14,0,-5
365,-8,-22,997,-14,0,-6
366,-6,-20,999,-14,1,-5
367,-5,-20,998,-13,1,-6
368,-5,-23,995,-13,0,-6
369,-6,-22,998,-14,1,-5
370,-6,-20,1000,-15,1,-6
371,-8,-21,992,-13,1,-7
372,-7,-22,999,-13,0,-6
373,-7,-21,1003,-14,1,-6
374,-6,-22,994,-15,1,-7
375,-7,-22,997,-14,1,-6
376,-5,-20,1004,-14,0,-7
377,-5,-21,996,-14,0,-7
378,-6,-22,992,-15,2,-6
379,-5,-22,1002,-15,1,-6
380,-6,-22,1002,-14,0,-6
381,-6,-21,994,-15,1,-6
382,-7,-20,1000,-15,1,-6
383,-6,-21,1001,-13,0,-7
384,-7,-21,996,-15,1,-6
385,-5,-20,994,-15,0,-6
386,-7,-22,1002,-15,1,-6
387,-7,-23,1002,-14,0,-5
388,-5,-20,992,-15,2,-5
389,-5,-21,1000,-14,1,-5
390,-6,-20,1002,-14,2,-5
391,-6,-21,996,-14,1,-7
392,-8,-23,995,-15,0,-6
393,-7,-23,1002,-14,1,-5
394,-6,-22,1001,-14,1,-6
395,-6,-19,990,-14,1,-6
396,-6,-22,1001,-14,3,-6
397,-7,-20,1002,-14,-1,-7
398,-5,-21,991,-15,0,-5
399,-6,-23,997,-15,1,-5
400,-7,-21,1003,-14,0,-5
401,-6,-22,997,-14,0,-5
402,-5,-19,993,-15,1,-6
403,-6,-20,1002,-14,1,-5
404,-7,-20,1002,-13,0,-6
405,-7,-19,991,-14,1,-6
406,-6,-22,1000,-14,0,-6
407,-7,-21,1003,-14,-1,-6
408,-7,-20,993,-14,0,-6
409,-8,-22,998,-13,1,-6
410,-6,-22,1004,-14,1,-7
411,-6,-21,997,-14,0,-6
412,-6,-21,993,-14,0,-6
413,-5,-22,1002,-14,0,-7
414,-7,-21,1000,-13,1,-6
415,-8,-20,992,-14,2,-6
416,-5,-21,1002,-13,2,-6
417,-7,-21,1001,-13,1,-6
418,-6,-20,991,-15,0,-6
419,-6,-22,997,-14,1,-6
420,-6,-20,1002,-14,0,-6
421,-6,-19,996,-13,1,-6
422,-7,-19,995,-14,2,-5
423,-6,-21,1001,-14,2,-6
424,-5,-21,999,-14,2,-6
425,-8,-20,992,-15,1,-6
426,-7,-22,1001,-14,1,-6
427,-7,-20,1001,-15,2,-7
428,-6,-21,994,-14,1,-6
429,-5,-21,996,-14,1,-6
430,-8,-20,1001,-15,0,-6
431,-9,-21,1000,-14,1,-7
432,-8,-19,993,-13,1,-7
433,-7,-22,1000,-14,0,-6
434,-8,-21,999,-14,1,-6
435,-7,-21,995,-14,1,-7
436,-6,-19,998,-14,2,-7
437,-8,-22,1001,-13,1,-6
438,-7,-23,998,-14,0,-5
439,-8,-21,992,-12,1,-5
440,-5,-22,1000,-14,1,-7
441,-6,-21,1000,-15,0,-7
442,-6,-21,997,-15,0,-7
443,-7,-21,995,-14,1,-6
444,-7,-22,1000,-13,1,-6
445,-8,-22,999,-14,0,-6
446,-5,-22,993,-15,0,-6
447,-6,-21,998,-14,0,-6
448,-6,-22,999,-14,1,-6
449,-6,-22,997,-13,0,-6
450,-7,-21,993,-13,1,-6
451,-7,-22,999,-13,1,-6
452,-8,-20,999,-14,1,-6
453,-7,-20,995,-14,1,-5
454,-6,-20,997,-15,1,-5
455,-6,-20,1000,-13,1,-5
456,-7,-21,1000,-14,0,-7
457,-6,-20,996,-14,0,-7
458,-7,-20,1000,-15,2,-6
459,-8,-21,1000,-13,1,-5
460,-6,-20,997,-14,-1,-6
461,-7,-20,995,-16,0,-6
462,-8,-19,1001,-14,0,-6
463,-7,-19,1000,-14,1,-6
464,-8,-19,997,-14,1,-5
465,-7,-20,999,-12,1,-7
466,-6,-20,999,-14,1,-7
467,-9,-20,998,-13,0,-6
468,-7,-21,994,-14,0,-6
469,-7,-22,999,-14,1,-6
470,-5,-21,1000,-14,1,-5
471,-7,-20,998,-14,0,-5
472,-6,-22,995,-13,1,-6
473,-7,-22,1000,-13,1,-5
474,-5,-22,998,-12,0,-6
475,-7,-21,997,-14,2,-7
476,-6,-21,996,-15,1,-6
477,-7,-20,999,-14,0,-7
478,-6,-22,998,-15,1,-7
479,-7,-21,997,-14,1,-5
480,-7,-20,996,-16,0,-5
481,-5,-21,999,-14,1,-6
482,-7,-22,998,-13,0,-5
483,-7,-21,995,-13,0,-6
484,-4,-21,999,-14,0,-7
485,-5,-21,998,-14,0,-7
486,-6,-20,999,-14,1,-6
487,-7,-20,996,-14,1,-5
488,-6,-22,999,-14,1,-7
489,-7,-21,998,-14,1,-6
490,-5,-23,999,-13,2,-6
491,-7,-21,996,-15,1,-5
492,-5,-21,998,-15,0,-6
493,-6,-20,999,-15,1,-7
494,-6,-20,998,-13,1,-6
495,-7,-20,996,-15,2,-6
496,-6,-22,998,-15,0,-6
497,-5,-22,999,-14,0,-5
498,-6,-20,998,-15,0,-4
499,-6,-21,999,-14,0,-5
500,-7,-24,998,-14,0,-7
501,-6,-20,999,-15,0,-7
502,-6,-19,998,-16,1,-7
503,-7,-19,997,-15,1,-5
504,-6,-20,997,-15,0,-6
505,-6,-21,999,-14,1,-5
506,-5,-22,997,-13,0,-5
507,-5,-23,999,-14,1,-6
508,-7,-22,999,-14,0,-7
509,-9,-22,999,-13,0,-4
510,-6,-19,996,-13,1,-6
511,-8,-20,999,-14,0,-5
512,-6,-20,999,-14,1,-6
513,-5,-20,998,-14,-1,-6
514,-7,-22,996,-15,1,-5
515,-6,-22,997,-15,0,-7
516,-7,-21,1000,-15,1,-6
517,-7,-21,995,-14,2,-6
518,-5,-21,997,-13,1,-5
519,-8,-21,999,-13,1,-6
520,-6,-22,998,-13,1,-6
521,-8,-21,996,-12,1,-7
522,-7,-22,998,-14,1,-6
523,-7,-22,1000,-15,2,-6
524,-8,-21,996,-15,2,-5
525,-6,-20,997,-14,0,-5
526,-5,-22,1000,-14,0,-6
527,-6,-21,998,-15,1,-6
528,-7,-22,996,-14,1,-6
529,-5,-22,999,-13,1,-5
530,-6,-22,1000,-13,1,-5
531,-6,-22,994,-14,1,-7
532,-5,-21,999,-14,-1,-6
533,-6,-22,999,-13,0,-7
534,-5,-21,994,-13,1,-6
535,-5,-22,997,-14,1,-7
536,-8,-23,1001,-14,1,-6
537,-6,-21,996,-14,1,-5
538,-7,-21,996,-14,0,-6
539,-7,-23,1000,-13,1,-7
540,-7,-20,999,-14,1,-6
541,-5,-21,993,-15,2,-6
542,-5,-22,1001,-15,1,-7
543,-6,-19,1001,-16,1,-7
544,-6,-21,994,-14,0,-7
545,-5,-22,997,-14,1,-7
546,-5,-21,1001,-16,1,-6
547,-7,-20,996,-15,1,-6
548,-7,-22,998,-15,1,-6
549,-6,-22,1000,-13,1,-5
550,-6,-20,998,-13,0,-6
551,-6,-20,993,-15,0,-5
552,-6,-22,1000,-13,1,-5
553,-6,-21,999,-14,1,-6
554,-6,-20,993,-14,1,-6
555,-7,-22,998,-15,1,-6
556,-6,-20,1001,-13,1,-6
557,-6,-20,998,-13,1,-5
558,-5,-20,995,-14,0,-5
559,-5,-22,1000,-13,0,-6
560,-7,-22,999,-13,0,-6
561,-7,-20,994,-14,1,-6
562,-7,-22,999,-15,0,-7
563,-7,-22,999,-14,-1,-6
564,-6,-22,996,-14,0,-6
565,-6,-23,994,-14,1,-6
566,-5,-22,1000,-14,1,-7
567,-6,-22,999,-14,0,-6
568,-6,-22,993,-14,1,-6
569,-6,-24,999,-15,0,-6
570,-6,-22,1000,-14,0,-5
571,-7,-20,997,-13,1,-7
572,-6,-20,996,-14,1,-7
573,-7,-23,1000,-16,1,-5
574,-7,-21,999,-14,1,-6
575,-6,-20,995,-14,0,-5
576,-7,-21,999,-15,0,-7
577,-6,-22,999,-15,0,-7
578,-9,-22,998,-14,0,-6
579,-7,-22,996,-15,0,-6
580,-6,-21,998,-14,-1,-7
581,-7,-22,998,-13,0,-5
582,-8,-22,994,-14,0,-6
583,-5,-21,998,-13,0,-7
584,-6,-21,998,-14,2,-6
585,-5,-20,998,-15,1,-6
586,-4,-22,995,-15,2,-6
587,-5,-20,998,-14,0,-7
588,-7,-21,1000,-15,0,-5
589,-8,-21,995,-14,1,-7
590,-4,-22,998,-14,0,-8
591,-6,-20,997,-15,2,-7
592,-7,-22,998,-15,0,-6
593,-6,-22,996,-14,0,-7
594,-5,-21,999,-14,1,-6
595,-7,-22,1001,-14,1,-6
596,-5,-21,995,-13,0,-6
597,-7,-21,999,-15,0,-6
598,-6,-22,999,-14,0,-6
599,-6,-22,998,-14,1,-6
600,-7,-22,995,-14,1,-6
601,-6,-22,1000,-12,2,-6
602,-4,-21,1001,-13,1,-5
603,-4,-19,993,-13,2,-7
604,-6,-19,998,-14,1,-6
605,-8,-21,999,-15,0,-6
606,-7,-21,995,-12,2,-6
607,-7,-21,997,-14,1,-7
608,-9,-21,1000,-14,0,-6
609,-8,-21,999,-14,0,-6
610,-9,-23,996,-15,1,-7
611,-6,-22,1000,-14,1,-6
612,-7,-23,999,-14,1,-6
613,-6,-20,994,-14,1,-7
614,-4,-24,999,-12,0,-6
615,-6,-22,999,-14,0,-7
616,-7,-21,994,-15,1,-7
617,-6,-23,997,-14,1,-6
618,-6,-21,1000,-15,0,-7
619,-9,-22,994,-14,1,-7
620,-7,-23,995,-14,1,-6
621,-10,-22,1000,-14,1,-6
622,-6,-20,998,-14,1,-5
623,-6,-21,996,-14,1,-6
624,-8,-21,998,-13,1,-7
625,-7,-20,998,-14,1,-7
626,-7,-23,995,-13,2,-7
627,-8,-22,1000,-14,-1,-6
628,-7,-22,999,-14,0,-7
629,-5,-22,995,-13,-1,-6
630,-7,-21,998,-15,0,-7
631,-6,-21,998,-14,-1,-6
632,-7,-22,998,-13,0,-5
633,-7,-20,995,-14,2,-4
634,-6,-21,999,-13,2,-5
635,-7,-20,998,-15,1,-6
636,-8,-22,998,-14,0,-6
637,-6,-22,996,-13,1,-6
638,-7,-20,999,-13,3,-6
639,-6,-21,1000,-13,1,-6
640,-8,-20,997,-13,2,-7
641,-6,-22,997,-14,2,-6
642,-7,-22,998,-15,0,-6
643,-6,-21,998,-15,1,-7
644,-7,-21,998,-14,1,-6
645,-8,-21,997,-14,0,-6
646,-6,-22,998,-15,1,-6
647,-6,-21,996,-15,0,-6
648,-5,-21,997,-14,1,-7
649,-8,-20,997,-15,2,-6
650,-6,-20,998,-15,1,-6
651,-6,-22,997,-15,1,-6
652,-5,-22,997,-14,0,-7
653,-5,-22,996,-13,1,-8
654,-5,-21,997,-15,1,-6
655,-5,-21,998,-15,1,-6
656,-5,-21,998,-14,1,-6
657,-6,-20,998,-15,1,-5
658,-6,-21,997,-14,0,-5
659,-7,-20,998,-14,0,-6
660,-5,-21,998,-14,0,-5
661,-8,-20,998,-13,0,-6
662,-8,-21,998,-14,-1,-6
663,-8,-21,999,-14,1,-7
664,-7,-22,998,-14,1,-6
665,-7,-20,997,-15,1,-7
666,-7,-21,998,-13,1,-6
667,-6,-20,998,-15,1,-6
668,-6,-20,997,-15,0,-5
669,-6,-21,998,-14,1,-6
670,-6,-20,998,-15,-1,-7
671,-7,-20,997,-15,0,-7
672,-7,-20,997,-14,0,-7
673,-7,-21,998,-14,1,-6
674,-5,-21,1000,-13,0,-5
675,-7,-20,997,-12,-1,-6
676,-7,-21,998,-14,-1,-7
677,-8,-20,999,-14,1,-5
678,-7,-22,999,-14,1,-5
679,-8,-23,997,-14,0,-6
680,-7,-21,996,-20,0,-5
681,-6,-21,998,-15,0,-7
682,-6,-22,997,-14,0,-5
683,-6,-21,998,-14,1,-6
684,-6,-21,997,-15,-1,-6
685,-6,-21,999,-14,0,-6
686,-7,-21,999,-14,0,-6
687,-6,-21,998,-15,1,-7
688,-6,-21,998,-14,1,-6
689,-5,-22,998,-14,0,-5
690,-7,-21,998,-14,1,-5
691,-7,-21,998,-14,1,-6
692,-6,-21,999,-14,0,-5
693,-7,-20,998,-13,0,-7
694,-6,-21,999,-15,0,-6
695,-6,-22,998,-13,0,-6
696,-7,-20,997,-15,0,-5
697,-6,-22,999,-14,0,-6
698,-5,-20,999,-13,1,-6
699,-7,-20,998,-14,1,-4
700,-7,-20,996,-13,0,-5
701,-6,-19,1000,-15,0,-6
702,-5,-22,999,-15,1,-6
703,-6,-21,998,-14,1,-6
704,-7,-22,996,-13,0,-7
705,-5,-21,998,-13,1,-6
706,-6,-21,1000,-12,1,-6
707,-6,-20,997,-13,1,-6
708,-7,-20,996,-13,0,-4
709,-7,-23,998,-14,1,-6
710,-7,-22,998,-13,0,-5
711,-6,-22,996,-13,1,-6
712,-5,-22,998,-14,1,-7
713,-5,-21,997,-15,-1,-6
714,-6,-23,999,-13,1,-5
715,-6,-21,998,-14,1,-6
716,-5,-20,999,-15,1,-6
717,-6,-21,998,-13,2,-7
718,-7,-22,999,-13,1,-6
719,-6,-20,997,-13,0,-7
720,-8,-21,997,-14,1,-6
721,-7,-21,997,-14,0,-6
722,-6,-20,999,-13,1,-5
723,-6,-20,998,-15,0,-6
724,-7,-23,997,-16,0,-6
725,-7,-22,999,-14,1,-6
726,-8,-20,998,-15,2,-6
727,-8,-20,998,-15,1,-5
728,-6,-20,997,-16,1,-5
729,-7,-20,999,-13,1,-6
730,-6,-20,997,-15,1,-8
731,-8,-23,997,-14,1,-7
732,-6,-21,998,-14,0,-7
733,-6,-22,999,-14,1,-6
734,-7,-21,997,-13,-1,-7
735,-6,-21,999,-15,0,-5
736,-7,-21,998,-15,2,-6
737,-5,-21,998,-14,2,-6
738,-7,-21,996,-14,2,-7
739,-7,-22,998,-16,1,-6
740,-6,-22,1000,-14,0,-7
741,-8,-23,997,-14,-1,-7
742,-5,-21,998,-12,0,-6
743,-5,-19,999,-13,0,-7
744,-7,-22,998,-14,1,-7
745,-6,-20,996,-13,0,-6
746,-6,-22,996,-13,0,-6
747,-6,-20,998,-13,0,-6
748,-7,-22,999,-14,0,-7
749,-6,-20,997,-16,1,-7
750,-6,-22,998,-16,0,-6
751,-8,-23,998,-13,0,-6
752,-6,-20,998,-15,0,-5
753,-8,-23,996,-14,1,-7
754,-6,-23,998,-14,-1,-6
755,-7,-22,999,-14,1,-6
756,-7,-22,998,-12,1,-5
757,-7,-21,996,-14,0,-7
758,-5,-22,997,-14,0,-7
759,-8,-20,996,-14,1,-5
760,-8,-21,997,-14,1,-6
761,-7,-20,996,-14,0,-6
762,-6,-20,998,-14,1,-6
763,-8,-20,999,-13,1,-6
764,-8,-21,997,-14,1,-8
765,-6,-20,996,-13,1,-7
766,-6,-21,999,-14,1,-7
767,-8,-20,999,-14,1,-6
768,-6,-21,997,-14,0,-6
769,-7,-20,998,-15,0,-7
770,-6,-20,998,-14,1,-5
771,-5,-22,998,-14,1,-7
772,-7,-20,997,-14,1,-6
773,-6,-20,998,-12,1,-6
774,-6,-21,998,-13,0,-6
775,-7,-22,999,-15,1,-6
776,-6,-21,997,-15,0,-6
777,-8,-24,997,-14,0,-6
778,-8,-20,997,-16,0,-6
779,-7,-21,998,-14,0,-6
780,-8,-22,999,-14,-1,-6
781,-6,-22,998,-15,0,-5
782,-6,-22,997,-13,1,-6
783,-8,-21,997,-15,1,-6
784,-7,-20,997,-15,-1,-6
785,-8,-21,997,-14,0,-6
786,-6,-23,999,-16,1,-5
787,-7,-22,998,-13,0,-6
788,-6,-22,997,-13,2,-7
789,-6,-22,998,-15,0,-6
790,-6,-20,998,-14,1,-5
791,-8,-21,997,-14,1,-6
792,-5,-20,996,-15,0,-6
793,-6,-23,999,-13,1,-7
794,-5,-22,996,-14,0,-7
795,-7,-21,998,-15,1,-7
796,-7,-22,998,-13,2,-7
797,-6,-20,999,-13,2,-7
798,-7,-22,998,-14,1,-7
799,-7,-19,997,-14,1,-6
800,-6,-21,997,-15,1,-5
801,-6,-20,997,-15,1,-6
802,-8,-21,998,-13,1,-6
803,-7,-20,996,-14,0,-6
804,-7,-21,1000,-14,1,-6
805,-7,-19,997,-14,1,-7
806,-7,-21,998,-16,0,-6
807,-6,-22,997,-14,-1,-6
808,-7,-23,998,-13,1,-5
809,-6,-22,997,-14,0,-6
810,-6,-21,996,-15,0,-7
811,-6,-21,997,-14,1,-7
812,-7,-22,996,-13,0,-6
813,-8,-22,998,-13,2,-5
814,-5,-22,997,-13,1,-6
815,-5,-21,996,-15,1,-6
816,-6,-23,998,-16,1,-5
817,-5,-22,997,-14,1,-5
818,-7,-22,997,-13,2,-7
819,-6,-21,997,-13,2,-6
820,-5,-22,997,-13,0,-7
821,-7,-23,998,-14,1,-6
822,-5,-20,997,-14,1,-6
823,-7,-22,996,-14,2,-6
824,-6,-20,998,-14,1,-6
825,-6,-20,998,-15,0,-6
826,-7,-21,998,-14,0,-7
827,-7,-21,997,-15,0,-6
828,-7,-20,998,-15,2,-6
829,-6,-21,998,-13,1,-7
830,-5,-22,998,-16,1,-6
831,-6,-19,998,-14,0,-6
832,-6,-22,998,-15,1,-7
833,-5,-21,998,-14,0,-6
834,-6,-22,998,-14,1,-7
835,-7,-22,997,-14,0,-5
836,-5,-19,997,-12,1,-5
837,-6,-20,998,-14,0,-6
838,-6,-20,999,-12,1,-7
839,-8,-21,996,-15,2,-6
840,-5,-21,997,-17,0,-6
841,-6,-21,999,-15,0,-6
842,-7,-20,998,-15,1,-7
843,-7,-21,998,-14,0,-7
844,-6,-21,997,-14,1,-6
845,-7,-21,998,-15,0,-6
846,-6,-20,998,-13,0,-6
847,-7,-21,997,-14,2,-6
848,-6,-20,998,-14,1,-6
849,-6,-19,998,-13,1,-6
850,-7,-22,997,-14,3,-7
851,-7,-20,999,-14,2,-5
852,-6,-21,998,-14,0,-7
853,-8,-21,999,-14,1,-7
854,-4,-21,998,-13,1,-6
855,-6,-22,998,-12,1,-6
856,-6,-23,997,-15,-1,-5
857,-7,-21,998,-13,-1,-6
858,-7,-22,998,-14,0,-7
859,-6,-21,996,-14,1,-6
860,-5,-20,997,-14,1,-8
861,-6,-21,998,-14,0,-7
862,-8,-21,999,-13,0,-6
863,-6,-21,997,-14,2,-6
864,-7,-20,998,-14,3,-6
865,-8,-20,998,-15,0,-6
866,-7,-20,998,-15,1,-7
867,-5,-22,997,-15,2,-8
868,-6,-22,998,-14,1,-7
869,-6,-22,999,-14,0,-7
870,-4,-22,999,-14,0,-5
871,-7,-21,998,-15,0,-5
872,-6,-22,998,-14,0,-6
873,-6,-20,998,-15,1,-6
874,-7,-20,996,-15,1,-6
875,-7,-21,999,-14,1,-6
876,-6,-22,998,-15,1,-5
877,-5,-21,997,-14,1,-7
878,-6,-20,998,-13,0,-7
879,-7,-23,998,-15,0,-6
880,-7,-20,994,-14,2,-6
881,-6,-23,997,-13,2,-6
882,-6,-21,999,-15,0,-6
883,-7,-20,999,-14,1,-6
884,-7,-21,997,-13,1,-7
885,-7,-21,999,-13,1,-7
886,-5,-20,998,-15,1,-6
887,-6,-20,998,-14,1,-6
888,-7,-21,996,-13,0,-7
889,-8,-20,998,-13,1,-6
890,-8,-20,998,-15,-1,-6
891,-6,-22,999,-15,1,-7
892,-5,-22,998,-14,0,-7
893,-8,-20,999,-15,0,-7
894,-6,-20,999,-13,2,-7
895,-6,-20,998,-14,1,-6
896,-4,-21,997,-14,-1,-6
897,-5,-21,998,-14,0,-6
898,-7,-22,999,-15,0,-7
899,-8,-20,997,-15,2,-6
900,-7,-21,999,-13,2,-5
901,-6,-20,1000,-14,2,-6
902,-6,-20,1000,-14,1,-6
903,-6,-19,997,-12,0,-5
904,-5,-21,997,-15,0,-5
905,-5,-20,999,-15,0,-5
906,-7,-21,998,-15,0,-6
907,-7,-19,998,-12,-1,-7
908,-6,-21,999,-15,-1,-5
909,-8,-22,998,-14,1,-6
910,-7,-21,996,-13,1,-6
911,-5,-19,997,-13,0,-6
912,-6,-22,999,-13,-1,-5
913,-7,-21,998,-13,1,-6
914,-7,-21,999,-14,1,-6
915,-4,-21,997,-13,0,-6
916,-6,-21,998,-14,1,-6
917,-7,-22,997,-14,1,-6
918,-6,-21,997,-15,1,-6
919,-6,-21,998,-14,1,-7
920,-6,-21,997,-14,0,-6
921,-7,-22,999,-13,1,-6
922,-6,-22,997,-14,1,-6
923,-8,-21,998,-16,0,-5
924,-7,-22,999,-13,2,-6
925,-7,-20,998,-14,0,-6
926,-6,-20,998,-14,1,-6
927,-7,-21,999,-14,2,-7
928,-6,-22,999,-13,2,-6
929,-5,-19,997,-13,0,-6
930,-6,-19,997,-14,1,-6
931,-6,-23,1000,-14,2,-6
932,-8,-19,999,-14,1,-6
933,-9,-21,995,-14,1,-5
934,-6,-20,998,-14,0,-6
935,-7,-20,999,-12,0,-5
936,-6,-21,995,-13,1,-6
937,-7,-21,997,-15,2,-6
938,-6,-21,999,-14,-1,-6
939,-6,-23,999,-14,0,-6
940,-7,-22,996,-15,1,-7
941,-7,-23,997,-14,0,-6
942,-6,-21,999,-14,1,-6
943,-7,-19,996,-15,1,-7
944,-6,-19,996,-13,1,-6
945,-5,-20,999,-13,1,-6
946,-9,-20,998,-15,3,-5
947,-8,-18,996,-15,1,-7
948,-8,-19,999,-14,0,-7
949,-6,-22,1000,-14,1,-7
950,-5,-21,997,-14,1,-6
951,-6,-20,996,-16,1,-6
952,-5,-21,1000,-15,1,-5
953,-8,-22,999,-14,1,-7
954,-8,-21,997,-13,2,-5
955,-7,-21,997,-15,0,-6
956,-6,-22,999,-15,1,-6
957,-7,-21,1000,-12,1,-5
958,-7,-20,996,-14,0,-5
959,-7,-22,999,-13,1,-6
960,-5,-20,998,-14,2,-7
961,-5,-22,997,-14,0,-7
962,-8,-20,996,-16,1,-5
963,-7,-21,999,-14,1,-6
964,-6,-21,997,-13,0,-6
965,-7,-22,997,-15,1,-6
966,-6,-24,998,-14,2,-6
967,-5,-23,999,-15,2,-6
968,-7,-22,997,-14,2,-7
969,-8,-21,997,-13,1,-5
970,-6,-22,999,-14,2,-6
971,-6,-21,998,-14,1,-7
972,-6,-22,998,-14,1,-7
973,-8,-20,997,-14,0,-5
974,-7,-21,998,-14,-1,-6
975,-6,-23,997,-14,0,-5
976,-4,-22,998,-14,0,-6
977,-5,-20,997,-14,1,-6
978,-6,-20,999,-14,2,-6
979,-6,-21,999,-15,0,-7
980,-5,-23,1000,-15,1,-6
981,-7,-20,997,-14,1,-6
982,-6,-23,998,-13,1,-7
983,-5,-21,999,-14,1,-6
984,-6,-21,998,-13,0,-5
985,-5,-20,997,-12,0,-7
986,-6,-21,999,-14,1,-6
987,-7,-23,998,-15,1,-5
988,-6,-20,998,-15,0,-5
989,-6,-20,996,-14,0,-5
990,-4,-21,996,-14,0,-6
991,-6,-22,997,-13,2,-5
992,-5,-22,999,-14,1,-7
993,-6,-21,996,-13,1,-5
994,-6,-21,996,-13,1,-7
995,-7,-20,997,-14,1,-5
996,-7,-21,998,-15,0,-5
997,-8,-20,997,-15,1,-6
998,-7,-20,999,-13,1,-6
999,-8,-21,999,-14,0,-7
1000,-7,-21,996,-15,0,-7
1001,-6,-22,998,-13,0,-6
1002,-7,-21,998,-14,0,-6
1003,-7,-21,997,-14,0,-6
1004,-5,-22,996,-15,2,-7
1005,-7,-22,997,-14,1,-6
1006,-5,-21,997,-14,0,-6
1007,-7,-20,996,-15,1,-6
1008,-6,-22,996,-14,0,-6
1009,-6,-21,999,-14,1,-6
1010,-5,-20,997,-14,1,-6
1011,-6,-21,996,-15,0,-5
1012,-7,-20,997,-13,2,-7
1013,-7,-23,998,-13,0,-6
1014,-5,-21,997,-13,-1,-6
1015,-7,-22,997,-14,0,-6
1016,-5,-22,998,-14,1,-6
1017,-7,-21,998,-15,0,-6
1018,-6,-19,999,-17,0,-7
1019,-5,-20,998,-17,-1,-6
1020,-5,-21,997,-13,2,-6
1021,-7,-21,997,-16,1,-6
1022,-7,-23,998,-14,0,-7
1023,-7,-22,997,-13,0,-7
1024,-6,-20,997,-16,2,-6
1025,-6,-21,998,-13,1,-5
1026,-6,-19,998,-14,0,-6
1027,-5,-22,999,-14,0,-6
1028,-7,-21,999,-13,1,-6
1029,-6,-21,998,-15,2,-6
1030,-7,-22,997,-14,2,-6
1031,-6,-22,997,-15,0,-6
1032,-6,-20,998,-15,0,-6
1033,-8,-20,997,-16,1,-6
1034,-6,-22,998,-14,1,-8
1035,-7,-20,998,-15,1,-6
1036,-5,-20,997,-14,2,-6
1037,-6,-21,998,-14,2,-6
1038,-8,-20,998,-15,1,-5
1039,-6,-20,997,-14,1,-5
1040,-5,-20,997,-14,1,-6
1041,-7,-21,998,-14,2,-6
1042,-7,-22,998,-14,1,-6
1043,-6,-23,998,-14,2,-7
1044,-6,-22,998,-14,1,-5
1045,-6,-20,999,-14,1,-6
1046,-5,-21,997,-14,1,-6
1047,-5,-22,997,-14,1,-6
1048,-7,-21,999,-14,0,-6
1049,-4,-21,998,-16,0,-5
1050,-7,-22,997,-14,1,-6
1051,-8,-22,999,-14,0,-5
1052,-7,-21,998,-12,1,-5
1053,-6,-23,995,-15,1,-5
1054,-5,-19,999,-15,1,-6
1055,-5,-20,1000,-13,1,-8
1056,-5,-19,997,-14,1,-6
1057,-6,-21,998,-14,0,-7
1058,-6,-23,1001,-13,1,-6
1059,-6,-21,995,-14,1,-6
1060,-6,-21,997,-13,2,-6
1061,-6,-20,1000,-14,2,-6
1062,-5,-21,998,-12,2,-6
1063,-7,-21,996,-14,1,-6
1064,-7,-20,1001,-13,0,-6
1065,-6,-21,999,-13,1,-7
1066,-5,-21,996,-14,-1,-6
1067,-4,-21,998,-14,-1,-7
1068,-7,-21,998,-14,1,-6
1069,-5,-23,996,-15,1,-7
1070,-5,-22,1000,-14,1,-6
1071,-7,-21,1000,-13,1,-6
1072,-7,-20,999,-13,0,-5
1073,-7,-21,996,-12,2,-5
1074,-6,-23,998,-13,1,-6
1075,-5,-23,998,-14,1,-6
1076,-7,-22,996,-13,1,-6
1077,-7,-21,997,-14,0,-6
1078,-5,-21,1000,-14,1,-7
1079,-6,-22,997,-14,1,-6
1080,-6,-24,997,-14,1,-6
1081,-7,-22,1000,-14,0,-6
1082,-6,-20,998,-14,0,-6
1083,-5,-20,995,-15,0,-6
1084,-7,-22,999,-15,0,-7
1085,-7,-24,1000,-14,1,-6
1086,-6,-22,996,-15,1,-7
1087,-8,-19,999,-14,1,-6
1088,-7,-22,1000,-14,0,-6
1089,-9,-20,997,-14,1,-5
1090,-7,-22,996,-15,2,-6
1091,-6,-22,1000,-14,0,-6
1092,-5,-21,998,-14,0,-6
1093,-6,-19,997,-13,1,-5
1094,-6,-21,1000,-15,1,-5
1095,-6,-21,998,-13,0,-6
1096,-7,-23,995,-14,2,-5
1097,-6,-21,999,-13,2,-5
1098,-6,-20,1000,-13,0,-5
1099,-7,-21,998,-14,1,-5
1100,-7,-22,997,-15,1,-6
1101,-8,-20,999,-15,1,-5
1102,-6,-19,998,-14,1,-6
1103,-8,-20,997,-14,0,-6
1104,-9,-21,997,-14,0,-5
1105,-6,-21,996,-15,1,-6
1106,-7,-21,996,-14,1,-6
1107,-5,-21,998,-14,2,-7
1108,-6,-21,998,-14,1,-6
1109,-7,-21,999,-15,0,-7
1110,-5,-21,997,-15,1,-7
1111,-6,-23,997,-14,0,-6
1112,-7,-22,997,-14,-1,-7
1113,-7,-21,999,-15,0,-6
1114,-8,-21,999,-15,0,-6
1115,-6,-20,997,-14,0,-6
1116,-6,-20,999,-14,0,-5
1117,-6,-22,997,-12,0,-6
1118,-5,-21,998,-14,0,-5
1119,-6,-21,997,-15,0,-5
1120,-7,-21,995,-15,0,-5
1121,-9,-22,998,-15,1,-4
1122,-5,-22,998,-14,0,-6
1123,-6,-20,997,-14,0,-7
1124,-6,-20,998,-13,0,-5
1125,-7,-21,998,-14,0,-7
1126,-7,-22,998,-14,1,-7
1127,-6,-20,999,-15,2,-5
1128,-7,-21,999,-14,2,-6
1129,-7,-20,997,-14,1,-7
1130,-6,-21,997,-14,2,-6
1131,-7,-22,998,-14,1,-6
1132,-7,-21,996,-15,1,-6
1133,-9,-21,998,-13,1,-6
1134,-6,-21,996,-14,1,-6
1135,-7,-20,999,-14,2,-6
1136,-8,-21,998,-14,2,-7
1137,-7,-21,999,-14,1,-5
1138,-6,-21,998,-13,2,-6
1139,-6,-22,998,-12,1,-7
1140,-5,-21,999,-13,1,-6
1141,-6,-20,999,-14,1,-6
1142,-7,-21,998,-14,-1,-6
1143,-6,-22,998,-14,0,-7
1144,-6,-21,999,-15,1,-6
1145,-6,-20,998,-15,1,-5
1146,-7,-21,999,-13,0,-7
1147,-5,-23,998,-14,1,-6
1148,-6,-22,997,-15,1,-6
1149,-7,-22,999,-13,0,-7
1150,-8,-21,998,-15,0,-7
1151,-5,-22,999,-15,1,-7
1152,-8,-20,998,-13,0,-6
1153,-6,-22,999,-14,0,-7
1154,-7,-22,997,-13,1,-6
1155,-7,-21,998,-15,1,-6
1156,-6,-22,997,-14,-1,-6
1157,-7,-21,999,-13,1,-7
1158,-4,-20,997,-15,1,-6
1159,-6,-19,998,-14,1,-6
1160,-5,-21,998,-13,1,-6
1161,-7,-20,999,-15,1,-7
1162,-6,-19,998,-12,1,-7
1163,-5,-22,998,-13,1,-6
1164,-7,-21,998,-15,0,-6
1165,-6,-23,998,-13,0,-7
1166,-5,-22,998,-13,-1,-6
1167,-6,-20,997,-15,0,-6
1168,-7,-20,998,-15,0,-6
1169,-6,-20,998,-14,0,-5
1170,-7,-20,999,-14,1,-5
1171,-7,-21,998,-15,1,-6
1172,-9,-21,997,-14,1,-7
1173,-9,-21,998,-13,0,-6
1174,-7,-20,997,-13,1,-5
1175,-7,-23,998,-13,0,-7
1176,-7,-21,999,-13,0,-6
1177,-5,-20,999,-13,2,-6
1178,-4,-22,998,-14,1,-5
1179,-6,-21,997,-14,1,-6
1180,-7,-21,998,-14,1,-7
1181,-7,-21,998,-14,1,-6
1182,-4,-21,999,-15,0,-6
1183,-5,-22,998,-14,1,-5
1184,-7,-21,997,-15,0,-5
1185,-7,-21,999,-15,1,-6
1186,-5,-22,997,-16,2,-6
1187,-6,-21,997,-14,1,-7
1188,-4,-22,998,-15,1,-6
1189,-7,-22,998,-14,1,-7
1190,-6,-21,999,-14,2,-6
1191,-6,-21,998,-15,1,-7
1192,-6,-21,998,-12,1,-6
1193,-6,-19,999,-14,0,-7
1194,-7,-20,1000,-14,0,-5
1195,-5,-22,997,-14,1,-5
1196,-5,-21,1000,-15,0,-7
1197,-5,-20,998,-14,2,-5
1198,-7,-21,998,-12,1,-6
1199,-6,-21,998,-15,1,-5
1200,-6,-22,997,-15,1,-5
1201,-7,-23,996,-14,0,-7
1202,-6,-20,999,-14,1,-6
1203,-5,-21,997,-14,2,-6
1204,-7,-22,995,-14,0,-7
1205,-7,-20,1001,-12,0,-7
1206,-7,-19,996,-14,1,-4
1207,-7,-21,996,-14,1,-5
1208,-8,-22,1002,-13,1,-6
1209,-8,-20,996,-15,1,-5
1210,-6,-21,996,-14,2,-5
1211,-8,-21,1003,-14,2,-5
1212,-5,-20,996,-16,1,-5
1213,-4,-21,995,-15,1,-5
1214,-5,-20,1004,-15,0,-5
1215,-7,-21,995,-16,1,-5
1216,-5,-20,996,-15,1,-6
1217,-8,-20,1003,-13,1,-6
1218,-6,-20,996,-13,2,-6
1219,-6,-23,996,-15,0,-6
1220,-7,-20,1002,-15,0,-6
1221,-7,-21,996,-16,1,-6
1222,-5,-21,993,-14,1,-6
1223,-5,-20,1003,-14,-1,-7
1224,-7,-23,1000,-15,0,-6
1225,-7,-22,993,-14,1,-6
1226,-6,-21,1001,-13,0,-7
1227,-6,-20,1000,-15,1,-6
1228,-6,-20,993,-14,1,-6
1229,-7,-21,998,-13,2,-6
1230,-8,-21,1000,-14,1,-6
1231,-9,-23,997,-14,0,-5
1232,-7,-22,997,-14,0,-7
1233,-8,-24,1001,-14,1,-7
1234,-8,-23,999,-15,1,-7
1235,-7,-21,996,-14,0,-6
1236,-7,-20,1001,-15,1,-6
1237,-7,-19,999,-14,1,-6
1238,-7,-20,995,-13,1,-7
1239,-10,-23,999,-13,0,-6
1240,-8,-21,1000,-14,1,-7
1241,-7,-20,994,-15,1,-5
1242,-6,-22,997,-15,3,-7
1243,-6,-21,1002,-14,1,-6
1244,-6,-20,995,-15,1,-6
1245,-8,-21,997,-15,0,-5
1246,-7,-20,1002,-14,0,-5
1247,-5,-20,997,-15,1,-6
1248,-5,-21,996,-15,0,-5
1249,-4,-21,1001,-14,2,-6
1250,-6,-21,998,-14,1,-6
1251,-7,-22,993,-14,1,-5
1252,-6,-21,1001,-14,1,-6
1253,-6,-22,998,-14,2,-6
1254,-6,-20,995,-15,1,-5
1255,-8,-21,1001,-13,2,-7
1256,-7,-21,999,-14,0,-7
1257,-7,-21,994,-14,2,-6
1258,-6,-20,1001,-14,1,-6
1259,-6,-20,1000,-14,0,-6
1260,-6,-21,994,-15,2,-5
1261,-7,-21,999,-13,2,-5
1262,-6,-21,1001,-13,1,-7
1263,-8,-23,995,-14,-1,-6
1264,-7,-22,998,-14,1,-6
1265,-6,-22,1001,-14,1,-6
1266,-6,-21,997,-16,1,-5
1267,-7,-21,998,-15,0,-5
1268,-5,-20,999,-14,1,-5
1269,-6,-22,997,-14,1,-6
1270,-6,-22,998,-15,1,-6
1271,-7,-23,999,-15,1,-7
1272,-6,-23,998,-15,1,-7
1273,-5,-22,997,-14,1,-6
1274,-8,-22,998,-15,0,-6
1275,-6,-22,997,-14,0,-5
1276,-7,-21,997,-14,1,-7
1277,-5,-19,997,-14,0,-7
1278,-6,-21,998,-15,0,-8
1279,-7,-23,998,-16,0,-6
1280,-6,-21,997,-15,1,-6
1281,-6,-21,998,-15,0,-6
1282,-8,-22,998,-12,0,-7
1283,-7,-22,998,-13,1,-6
1284,-7,-22,998,-15,2,-6
1285,-6,-19,996,-15,1,-5
1286,-6,-21,997,-14,1,-7
1287,-6,-23,998,-15,1,-5
1288,-6,-20,997,-15,2,-6
1289,-8,-22,999,-14,1,-6
1290,-6,-23,1000,-14,1,-6
1291,-8,-22,995,-14,1,-5
1292,-5,-22,998,-13,0,-6
1293,-8,-21,1002,-14,1,-6
1294,-7,-23,996,-15,1,-6
1295,-6,-21,998,-15,1,-6
1296,-7,-22,1000,-12,1,-6
1297,-6,-20,994,-14,1,-8
1298,-4,-21,997,-15,1,-8
1299,-8,-21,1003,-15,1,-7
1300,-6,-21,996,-14,0,-7
1301,-8,-21,997,-13,1,-6
1302,-7,-20,1001,-14,1,-6
1303,-7,-21,993,-14,0,-7
1304,-7,-21,997,-13,1,-6
1305,-7,-21,1003,-14,0,-6
1306,-6,-21,994,-14,1,-6
1307,-7,-22,999,-15,1,-7
1308,-6,-23,1003,-14,1,-6
1309,-6,-21,995,-14,-1,-6
1310,-5,-21,998,-13,1,-6
1311,-6,-22,1003,-13,1,-6
1312,-5,-21,995,-14,0,-7
1313,-7,-21,998,-14,2,-6
1314,-7,-20,1003,-15,1,-7
1315,-8,-21,994,-14,0,-6
1316,-8,-21,998,-13,1,-6
1317,-9,-21,1002,-14,1,-5
1318,-5,-20,995,-13,0,-6
1319,-7,-22,997,-15,0,-6
1320,-8,-22,1001,-15,1,-5
1321,-5,-21,993,-14,0,-6
1322,-6,-22,998,-12,0,-6
1323,-8,-22,1001,-14,0,-5
1324,-7,-21,996,-15,0,-6
1325,-6,-20,998,-13,1,-6
1326,-7,-22,1000,-14,1,-7
1327,-7,-21,994,-14,1,-6
1328,-6,-21,998,-14,1,-6
1329,-7,-19,999,-13,1,-7
1330,-7,-21,994,-13,0,-6
1331,-6,-21,999,-14,0,-6
1332,-6,-21,999,-14,1,-7
1333,-6,-21,993,-15,0,-6
1334,-4,-22,1000,-14,1,-6
1335,-7,-22,1000,-15,0,-7
1336,-6,-20,993,-14,1,-7
1337,-6,-21,1001,-15,0,-5
1338,-6,-21,1001,-14,1,-6
1339,-6,-22,994,-13,2,-7
1340,-8,-25,1001,-13,1,-6
1341,-6,-21,1000,-13,0,-6
1342,-7,-23,994,-16,0,-6
1343,-5,-20,1001,-15,-1,-6
1344,-6,-21,1000,-14,0,-6
1345,-6,-20,994,-15,1,-6
1346,-6,-21,1002,-14,1,-7
1347,-6,-20,1000,-15,1,-6
1348,-6,-21,993,-15,0,-5
1349,-6,-21,1000,-14,0,-5
1350,-6,-23,999,-15,1,-6
1351,-7,-20,995,-14,0,-6
1352,-5,-19,998,-14,1,-6
1353,-6,-21,1000,-11,-6,-8
1354,-6,-23,994,-9,1,-7
1355,-7,-21,997,-14,1,-6
1356,-5,-22,999,-16,0,-6
1357,-8,-20,995,-14,1,-5
1358,-8,-23,997,-14,0,-6
1359,-6,-22,999,-14,2,-7
1360,-7,-20,998,-12,1,-7
1361,-10,-20,997,-14,1,-6
1362,-7,-20,996,-14,1,-5
1363,-6,-20,997,-14,1,-6
1364,-6,-20,996,-14,1,-5
1365,-7,-23,998,-14,1,-6
1366,-5,-21,997,-13,2,-7
1367,-7,-22,997,-14,1,-5
1368,-6,-21,998,-14,1,-5
1369,-8,-20,999,-15,0,-7
1370,-7,-19,998,-14,2,-6
1371,-7,-20,999,-14,1,-6
1372,-8,-22,998,-13,1,-7
1373,-6,-21,997,-13,1,-6
1374,-7,-21,998,-13,0,-6
1375,-9,-20,999,-15,0,-6
1376,-6,-21,1000,-14,0,-6
1377,-8,-22,999,-13,-1,-6
1378,-7,-21,997,-16,0,-6
1379,-5,-21,998,-14,0,-6
1380,-6,-20,998,-14,1,-5
1381,-6,-21,997,-13,1,-5
1382,-6,-21,998,-14,1,-6
1383,-7,-23,997,-15,1,-6
1384,-6,-22,997,-15,0,-7
1385,-6,-21,997,-13,1,-7
1386,-7,-22,998,-14,0,-7
1387,-6,-23,999,-13,0,-6
1388,-7,-22,997,-14,0,-6
1389,-7,-23,998,-14,0,-6
1390,-7,-22,998,-12,0,-7
1391,-4,-21,999,-14,1,-5
1392,-5,-22,997,-15,0,-6
1393,-6,-22,997,-13,1,-5
1394,-7,-21,997,-13,0,-6
1395,-8,-21,998,-14,0,-7
1396,-7,-20,998,-14,2,-5
1397,-7,-20,997,-14,2,-6
1398,-6,-22,998,-13,2,-6
1399,-7,-21,997,-15,1,-6
1400,-7,-21,998,-14,1,-6
1401,-8,-21,998,-13,1,-5
1402,-6,-22,999,-14,0,-7
1403,-7,-23,998,-14,0,-7
1404,-8,-21,997,-14,1,-6
1405,-8,-20,998,-13,2,-5
1406,-6,-21,997,-15,1,-6
1407,-6,-20,999,-14,0,-7
1408,-6,-23,998,-14,1,-7
1409,-8,-22,999,-13,1,-6
1410,-7,-21,998,-15,2,-6
1411,-6,-22,996,-15,0,-5
1412,-6,-22,996,-14,-1,-6
1413,-7,-22,998,-13,1,-6
1414,-5,-22,999,-15,1,-5
1415,-5,-22,997,-14,0,-5
1416,-6,-20,998,-14,0,-6
1417,-7,-21,998,-15,0,-6
1418,-6,-21,998,-15,1,-7
1419,-7,-20,1000,-14,1,-7
1420,-8,-22,998,-14,0,-6
1421,-5,-21,998,-13,1,-6
1422,-5,-21,998,-15,1,-5
1423,-7,-23,997,-14,1,-6
1424,-8,-20,998,-15,2,-6
1425,-8,-20,1000,-16,0,-6
1426,-6,-19,997,-15,1,-6
1427,-7,-22,998,-13,1,-6
1428,-6,-21,1000,-14,1,-6
1429,-8,-21,998,-14,0,-6
1430,-7,-20,998,-14,0,-6
1431,-6,-21,996,-13,1,-7
1432,-5,-19,997,-13,2,-6
1433,-7,-20,999,-13,0,-7
1434,-6,-20,998,-14,1,-7
1435,-7,-21,999,-14,2,-6
1436,-6,-21,996,-14,0,-6
1437,-7,-21,997,-12,-1,-7
1438,-8,-21,997,-15,2,-6
1439,-8,-21,997,-14,0,-7
1440,-5,-21,997,-12,1,-6
1441,-7,-20,998,-14,1,-7
1442,-8,-22,999,-15,1,-7
1443,-7,-22,998,-15,2,-6
1444,-8,-20,996,-15,1,-6
1445,-7,-21,998,-15,1,-6
1446,-6,-20,997,-14,0,-6
1447,-7,-22,997,-12,1,-7
1448,-7,-21,997,-14,2,-7
1449,-7,-20,997,-14,1,-5
1450,-5,-20,998,-14,1,-5
1451,-5,-23,998,-14,3,-6
1452,-7,-21,998,-14,2,-7
1453,-7,-21,997,-14,1,-5
1454,-6,-22,998,-13,1,-7
1455,-6,-21,999,-14,2,-6
1456,-5,-20,999,-14,1,-6
1457,-8,-21,999,-13,1,-7
1458,-8,-20,998,-15,1,-5
1459,-6,-21,997,-14,1,-6
1460,-7,-21,997,-13,1,-5
1461,-8,-21,997,-14,0,-5
1462,-6,-21,998,-14,0,-7
1463,-7,-22,997,-15,0,-7
1464,-7,-21,1000,-15,1,-6
1465,-7,-21,997,-16,0,-6
1466,-5,-21,996,-15,1,-7
1467,-7,-22,998,-15,2,-5
1468,-7,-21,998,-16,1,-6
1469,-6,-20,997,-14,0,-6
1470,-6,-21,998,-15,1,-5
1471,-8,-22,996,-15,1,-4
1472,-7,-22,998,-14,0,-5
1473,-8,-23,999,-13,0,-8
1474,-7,-22,1000,-12,2,-6
1475,-6,-20,1001,-15,1,-6
1476,-6,-21,998,-13,-1,-6
1477,-6,-20,998,-13,0,-6
1478,-8,-22,998,-14,0,-7
1479,-7,-23,997,-14,0,-6
1480,-4,-22,998,-13,0,-6
1481,-6,-21,997,-14,1,-6
1482,-5,-21,999,-14,0,-6
1483,-6,-21,998,-14,1,-6
1484,-6,-21,997,-15,-1,-7
1485,-6,-21,998,-14,0,-6
1486,-6,-21,997,-14,1,-6
1487,-5,-20,998,-14,2,-6
1488,-6,-22,998,-13,1,-7
1489,-6,-22,996,-13,1,-6
1490,-7,-21,996,-14,1,-6
1491,-7,-20,997,-14,1,-7
1492,-6,-22,998,-14,0,-7
1493,-7,-20,999,-14,0,-6
1494,-6,-20,999,-15,1,-6
1495,-7,-20,999,-13,1,-7
1496,-6,-20,998,-15,2,-6
1497,-8,-22,999,-14,2,-6
1498,-8,-20,998,-14,0,-6
1499,-8,-22,997,-14,0,-7
1500,-7,-21,997,-15,1,-5
1501,-6,-21,997,-12,1,-6
1502,-6,-20,998,-14,0,-6
1503,-6,-21,998,-14,0,-5
1504,-7,-23,998,-14,1,-6
1505,-7,-22,997,-15,0,-6
1506,-7,-23,999,-15,-1,-4
1507,-7,-22,998,-14,0,-6
1508,-8,-21,998,-14,1,-6
1509,-6,-19,998,-14,0,-6
1510,-5,-22,996,-15,0,-5
1511,-5,-22,997,-15,1,-6
1512,-6,-21,999,-14,0,-5
1513,-6,-21,997,-14,2,-6
1514,-6,-23,1000,-15,1,-6
1515,-7,-21,999,-14,1,-6
1516,-5,-21,997,-13,1,-6
1517,-6,-21,998,-14,1,-6
1518,-7,-21,997,-13,1,-5
1519,-7,-22,998,-14,1,-7
1520,-6,-20,999,-14,2,-6
1521,-5,-21,996,-13,1,-5
1522,-8,-20,999,-14,1,-6
1523,-6,-22,999,-15,0,-6
1524,-6,-21,996,-14,1,-6
1525,-6,-21,1000,-13,1,-6
1526,-5,-21,998,-14,2,-5
1527,-7,-23,997,-14,0,-7
1528,-6,-21,1002,-14,-1,-6
1529,-9,-22,995,-13,0,-6
1530,-7,-23,995,-13,1,-5
1531,-6,-20,1000,-14,0,-7
1532,-6,-21,996,-15,1,-6
1533,-7,-23,998,-14,1,-6
1534,-8,-21,1000,-14,1,-7
1535,-5,-22,993,-14,0,-7
1536,-6,-20,998,-14,0,-7
1537,-7,-20,998,-15,1,-7
1538,-4,-21,994,-14,1,-5
1539,-8,-22,1000,-14,0,-6
1540,-8,-22,999,-14,1,-6
1541,-8,-23,994,-14,1,-6
1542,-4,-21,1000,-13,0,-5
1543,-7,-21,998,-14,0,-6
1544,-6,-21,995,-15,1,-6
1545,-7,-21,1003,-13,0,-7
1546,-8,-20,998,-12,1,-6
1547,-7,-21,995,-14,1,-7
1548,-6,-22,1002,-14,1,-6
1549,-8,-21,997,-13,1,-5
1550,-5,-20,995,-15,1,-5
1551,-7,-21,1005,-14,2,-5
1552,-8,-20,996,-15,1,-6
1553,-8,-22,993,-14,0,-6
1554,-7,-20,1005,-13,2,-7
1555,-7,-22,996,-15,0,-6
1556,-6,-22,993,-14,1,-6
1557,-8,-22,1003,-14,1,-6
1558,-7,-21,997,-15,0,-7
1559,-8,-21,992,-15,1,-7
1560,-7,-21,1001,-13,1,-6
1561,-8,-23,997,-15,0,-6
1562,-6,-20,995,-15,0,-6
1563,-7,-23,1001,-15,1,-6
1564,-7,-23,998,-16,1,-6
1565,-7,-23,996,-14,1,-7
1566,-5,-21,1001,-14,0,-7
1567,-7,-22,997,-13,0,-7
1568,-5,-20,995,-15,1,-7
1569,-6,-20,998,-14,1,-7
1570,-6,-20,998,-14,1,-7
1571,-8,-21,999,-15,0,-6
1572,-8,-21,998,-14,0,-6
1573,-8,-20,998,-13,1,-5
1574,-6,-21,998,-12,2,-5
1575,-6,-20,998,-14,0,-7
1576,-5,-20,998,-13,1,-5
1577,-6,-20,997,-13,1,-5
1578,-7,-22,996,-14,1,-5
1579,-7,-21,997,-14,1,-5
1580,-7,-21,997,-13,1,-5
1581,-5,-21,997,-14,1,-5
1582,-6,-22,997,-14,1,-6
1583,-6,-21,998,-12,0,-6
1584,-6,-21,998,-13,1,-5
1585,-5,-21,997,-14,1,-5
1586,-6,-20,998,-14,2,-5
1587,-8,-22,998,-14,0,-7
1588,-5,-22,997,-15,0,-5
1589,-5,-21,998,-12,1,-5
1590,-6,-21,999,-13,1,-7
1591,-7,-20,997,-14,0,-7
1592,-8,-22,997,-14,1,-7
1593,-7,-21,998,-13,1,-6
1594,-6,-21,999,-13,0,-7
1595,-6,-21,998,-15,0,-7
1596,-5,-21,997,-14,1,-6
1597,-5,-20,998,-14,1,-6
1598,-6,-21,998,-14,0,-5
1599,-7,-22,998,-15,1,-7
1600,-7,-21,998,-13,2,-6
1601,-5,-20,999,-14,1,-6
1602,-7,-20,998,-15,0,-7
1603,-6,-19,996,-14,0,-7
1604,-6,-22,997,-14,0,-6
1605,-6,-20,998,-14,1,-6
1606,-7,-21,999,-14,1,-7
1607,-8,-18,1000,-12,0,-6
1608,-7,-22,997,-13,1,-5
1609,-7,-22,998,-14,1,-6
1610,-6,-21,997,-15,0,-6
1611,-5,-19,997,-15,2,-7
1612,-8,-21,998,-14,1,-6
1613,-7,-22,997,-14,0,-7
1614,-5,-21,997,-13,0,-6
1615,-8,-21,997,-14,1,-6
1616,-6,-22,997,-13,1,-5
1617,-7,-22,999,-13,0,-7
1618,-7,-20,997,-15,1,-6
1619,-6,-20,997,-15,1,-6
1620,-6,-21,997,-16,0,-7
1621,-8,-20,997,-14,0,-6
1622,-5,-20,999,-15,1,-6
1623,-5,-20,998,-15,0,-6
1624,-5,-20,998,-13,1,-6
1625,-7,-22,998,-14,0,-6
1626,-7,-21,999,-14,1,-6
1627,-5,-21,999,-14,1,-5
1628,-5,-20,996,-14,0,-6
1629,-6,-21,997,-15,0,-6
1630,-6,-23,999,-12,0,-6
1631,-6,-20,998,-13,0,-5
1632,-6,-21,998,-14,0,-5
1633,-6,-20,998,-13,0,-6
1634,-6,-21,998,-13,1,-7
1635,-7,-20,998,-13,0,-7
1636,-6,-20,997,-14,2,-6
1637,-6,-20,997,-14,2,-6
1638,-5,-22,998,-13,1,-6
1639,-8,-22,998,-17,0,-5
1640,-6,-21,999,-16,1,-6
1641,-7,-23,997,-14,1,-6
1642,-7,-21,997,-15,1,-6
1643,-7,-22,997,-12,0,-6
1644,-6,-21,998,-15,2,-6
1645,-6,-21,998,-14,0,-7
1646,-6,-20,997,-13,0,-6
1647,-7,-22,999,-13,2,-5
1648,-5,-20,998,-15,1,-6
1649,-6,-23,998,-16,1,-6
1650,-6,-22,998,-14,1,-6
1651,-7,-21,998,-13,1,-6
1652,-8,-21,999,-13,1,-7
1653,-7,-20,998,-14,0,-5
1654,-7,-20,998,-14,0,-6
1655,-7,-21,997,-14,1,-6
1656,-6,-22,999,-13,1,-5
1657,-5,-22,996,-13,1,-6
1658,-8,-20,997,-15,1,-5
1659,-7,-22,997,-15,0,-6
1660,-7,-22,997,-15,1,-6
1661,-7,-19,998,-15,1,-6
1662,-6,-21,998,-14,2,-6
1663,-6,-20,998,-14,0,-8
1664,-5,-20,998,-14,1,-6
1665,-9,-20,997,-14,1,-5
1666,-8,-23,997,-14,0,-5
1667,-7,-20,1000,-13,1,-8
1668,-6,-20,1000,-14,1,-7
1669,-7,-21,997,-13,1,-7
1670,-6,-24,996,-14,0,-6
1671,-7,-22,996,-14,1,-6
1672,-8,-22,997,-15,0,-6
1673,-8,-21,998,-16,0,-6
1674,-7,-21,998,-15,-1,-5
1675,-5,-21,998,-16,-1,-6
1676,-7,-21,999,-13,1,-6
1677,-6,-21,998,-16,1,-6
1678,-7,-21,997,-14,1,-6
1679,-7,-19,996,-13,1,-6
1680,-7,-19,998,-15,1,-8
1681,-5,-22,998,-14,1,-7
1682,-6,-22,997,-15,1,-7
1683,-4,-21,997,-16,0,-6
1684,-6,-20,998,-15,1,-5
1685,-6,-23,998,-15,0,-6
1686,-7,-23,998,-12,-1,-6
1687,-7,-22,999,-16,-4,-7
1688,-7,-22,998,-16,-1,-7
1689,-6,-22,999,-14,1,-6
1690,-8,-21,998,-13,1,-6
1691,-5,-20,997,-13,2,-6
1692,-6,-21,997,-12,1,-6
1693,-8,-21,997,-13,1,-6
1694,-6,-22,996,-14,1,-5
1695,-6,-20,997,-15,-1,-5
1696,-6,-21,999,-14,1,-6
1697,-6,-20,997,-15,1,-7
1698,-6,-21,999,-15,0,-6
1699,-7,-21,997,-14,0,-5
1700,-6,-20,998,-15,2,-6
1701,-7,-21,999,-14,0,-7
1702,-6,-21,998,-14,0,-6
1703,-7,-23,998,-13,1,-6
1704,-7,-22,998,-14,1,-6
1705,-7,-21,998,-15,0,-6
1706,-6,-20,999,-15,2,-5
1707,-6,-21,997,-13,1,-5
1708,-7,-20,997,-12,1,-6
1709,-7,-21,998,-14,1,-6
1710,-6,-22,996,-15,2,-6
1711,-5,-23,996,-14,0,-5
1712,-7,-20,998,-14,1,-6
1713,-6,-20,997,-14,0,-6
1714,-4,-21,996,-14,1,-6
1715,-8,-21,997,-14,1,-6
1716,-5,-22,998,-14,1,-5
1717,-5,-21,997,-14,2,-6
1718,-6,-20,1000,-13,2,-7
1719,-5,-22,998,-15,-1,-6
1720,-7,-23,997,-14,1,-5
1721,-8,-22,999,-14,2,-7
1722,-6,-22,997,-14,1,-6
1723,-6,-22,996,-15,2,-6
1724,-9,-20,1000,-14,1,-8
1725,-6,-20,998,-15,1,-7
1726,-4,-23,996,-13,1,-6
1727,-6,-22,999,-16,1,-6
1728,-6,-21,999,-14,1,-6
1729,-6,-21,994,-13,0,-6
1730,-7,-22,1001,-14,0,-6
1731,-7,-22,1000,-13,1,-6
1732,-6,-21,991,-13,0,-7
1733,-6,-21,1000,-15,0,-7
1734,-7,-22,1000,-12,1,-6
1735,-7,-20,992,-16,1,-4
1736,-7,-22,1000,-14,0,-7
1737,-5,-21,1001,-14,0,-5
1738,-6,-21,992,-14,1,-5
1739,-5,-22,998,-13,2,-7
1740,-7,-21,1002,-16,1,-7
1741,-6,-22,996,-14,1,-7
1742,-5,-19,997,-13,-1,-6
1743,-6,-22,1002,-15,0,-6
1744,-5,-20,996,-15,1,-6
1745,-6,-20,995,-16,0,-6
1746,-7,-22,1003,-14,0,-7
1747,-6,-20,998,-13,1,-7
1748,-6,-19,994,-15,0,-6
1749,-7,-21,998,-14,0,-6
1750,-6,-21,999,-15,1,-6
1751,-6,-21,997,-14,2,-6
1752,-6,-19,998,-13,2,-6
1753,-6,-22,1001,-14,2,-6
1754,-5,-20,996,-14,0,-6
1755,-7,-20,995,-15,0,-6
1756,-6,-21,1000,-15,0,-5
1757,-6,-20,998,-14,1,-6
1758,-6,-21,997,-15,1,-6
1759,-7,-22,998,-13,1,-7
1760,-7,-21,999,-14,1,-6
1761,-7,-19,996,-15,1,-5
1762,-7,-20,997,-13,0,-6
1763,-7,-21,1000,-15,1,-6
1764,-6,-21,997,-14,0,-5
1765,-10,-20,995,-15,1,-5
1766,-4,-22,999,-14,1,-7
1767,-6,-21,998,-14,0,-7
1768,-6,-21,996,-14,0,-7
1769,-8,-22,999,-14,0,-5
1770,-6,-21,999,-14,0,-6
1771,-7,-20,996,-13,1,-5
1772,-6,-23,997,-14,0,-5
1773,-5,-21,1000,-15,-1,-5
1774,-7,-21,996,-16,0,-6
1775,-6,-21,998,-16,1,-7
1776,-6,-22,1001,-15,1,-7
1777,-8,-22,996,-15,1,-5
1778,-5,-22,994,-14,1,-6
1779,-5,-22,1002,-13,2,-7
1780,-6,-21,997,-15,1,-7
1781,-8,-21,994,-15,2,-7
1782,-8,-20,1003,-13,1,-6
1783,-8,-20,995,-14,0,-7
1784,-7,-20,993,-15,0,-7
1785,-8,-23,1001,-14,0,-6
1786,-9,-21,996,-15,0,-6
1787,-6,-21,994,-13,0,-6
1788,-7,-21,1003,-14,-1,-6
1789,-5,-21,996,-14,1,-6
1790,-7,-24,993,-13,1,-6
1791,-8,-20,1004,-14,2,-6
1792,-6,-21,997,-13,0,-6
1793,-6,-20,993,-13,1,-5
1794,-6,-21,1004,-14,0,-5
1795,-4,-21,996,-14,1,-7
1796,-5,-20,996,-14,1,-6
1797,-6,-20,1006,-14,0,-6
1798,-6,-21,997,-14,1,-6
1799,-7,-22,995,-13,1,-6
1800,-7,-20,1005,-14,1,-6
1801,-7,-21,994,-15,1,-6
1802,-6,-22,996,-14,1,-7
1803,-6,-20,1003,-14,0,-7
1804,-6,-20,995,-15,0,-6
1805,-6,-22,996,-16,1,-5
1806,-5,-20,1004,-14,1,-6
1807,-7,-21,994,-15,0,-6
1808,-6,-20,997,-15,2,-6
1809,-7,-20,1004,-13,1,-6
1810,-7,-21,993,-14,0,-6
1811,-6,-20,996,-13,0,-6
1812,-6,-20,1003,-12,0,-6
1813,-6,-20,994,-13,0,-6
1814,-7,-21,998,-14,0,-8
1815,-6,-20,1003,-14,0,-6
1816,-7,-21,993,-13,2,-6
1817,-6,-21,998,-14,1,-5
1818,-7,-23,1002,-14,1,-6
1819,-7,-23,993,-14,2,-5
1820,-5,-19,1000,-15,1,-6
1821,-6,-21,1002,-13,0,-6
1822,-6,-21,993,-14,0,-5
1823,-9,-22,1001,-13,0,-6
1824,-8,-19,999,-14,-1,-6
1825,-6,-21,994,-14,1,-7
1826,-6,-20,1001,-15,1,-7
1827,-7,-21,999,-15,1,-6
1828,-6,-23,993,-15,1,-5
1829,-6,-21,1001,-15,1,-7
1830,-6,-19,999,-14,1,-5
1831,-6,-20,994,-13,0,-6
1832,-6,-22,1003,-14,0,-7
1833,-7,-22,999,-13,1,-7
1834,-5,-22,994,-14,0,-7
1835,-7,-22,1002,-15,0,-6
1836,-5,-21,996,-15,1,-6
1837,-6,-20,998,-15,1,-6
1838,-6,-20,1003,-14,0,-6
1839,-6,-21,997,-15,1,-6
1840,-6,-19,997,-14,1,-7
1841,-8,-22,1002,-15,0,-6
1842,-9,-20,995,-16,1,-6
1843,-5,-20,1000,-14,1,-7
1844,-6,-21,999,-14,0,-6
1845,-7,-21,996,-15,1,-6
1846,-5,-20,1000,-15,0,-6
1847,-6,-21,998,-13,0,-6
1848,-6,-23,996,-14,1,-6
1849,-7,-22,998,-14,0,-7
1850,-8,-20,997,-14,-1,-6
1851,-7,-20,997,-13,1,-7
1852,-7,-20,1000,-14,0,-7
1853,-7,-22,995,-16,0,-6
1854,-5,-20,998,-13,0,-5
1855,-6,-22,999,-16,-1,-7
1856,-6,-23,998,-15,1,-7
1857,-6,-22,999,-14,1,-6
1858,-5,-22,997,-15,0,-5
1859,-7,-21,996,-14,2,-6
1860,-6,-22,997,-14,1,-6
1861,-8,-22,998,-15,1,-7
1862,-5,-22,997,-13,1,-6
1863,-5,-21,998,-15,1,-7
1864,-5,-21,998,-13,1,-7
1865,-7,-20,998,-14,1,-6
1866,-5,-20,997,-15,1,-5
1867,-6,-19,997,-14,1,-6
1868,-7,-21,999,-13,-1,-6
1869,-7,-20,998,-16,0,-6
1870,-8,-22,997,-14,-1,-7
1871,-8,-22,998,-15,0,-6
1872,-7,-22,997,-13,1,-5
1873,-6,-21,997,-13,1,-6
1874,-7,-20,998,-14,1,-7
1875,-7,-19,1000,-14,1,-7
1876,-7,-21,997,-13,0,-6
1877,-8,-22,998,-14,1,-6
1878,-7,-20,999,-14,-1,-7
1879,-6,-22,998,-14,0,-6
1880,-5,-22,997,-14,1,-6
1881,-5,-21,997,-15,0,-7
1882,-6,-22,998,-14,0,-6
1883,-7,-20,997,-14,0,-7
1884,-7,-21,998,-15,1,-7
1885,-7,-22,998,-14,1,-7
1886,-7,-23,998,-15,-1,-6
1887,-6,-23,998,-13,1,-6
1888,-6,-23,997,-13,0,-6
1889,-6,-21,998,-16,2,-6
1890,-7,-22,1000,-14,2,-5
1891,-7,-20,998,-14,1,-6
1892,-5,-21,998,-15,2,-5
1893,-7,-21,999,-14,2,-6
1894,-6,-22,997,-14,1,-6
1895,-7,-22,997,-13,1,-6
1896,-6,-20,997,-14,2,-5
1897,-6,-21,996,-14,1,-6
1898,-7,-22,997,-13,2,-6
1899,-6,-22,999,-15,0,-6
1900,-7,-22,1000,-14,0,-5
1901,-5,-21,997,-14,2,-7
1902,-5,-21,997,-14,1,-8
1903,-7,-20,998,-14,1,-7
1904,-7,-23,998,-15,1,-6
1905,-6,-22,997,-15,0,-7
1906,-6,-23,998,-14,2,-7
1907,-6,-20,999,-15,2,-6
1908,-4,-21,996,-13,1,-5
1909,-6,-22,999,-14,1,-6
1910,-5,-22,999,-15,1,-6
1911,-6,-20,998,-13,1,-6
1912,-6,-22,998,-14,2,-6
1913,-5,-21,999,-15,2,-6
1914,-8,-23,997,-15,1,-5
1915,-7,-21,998,-14,0,-7
1916,-6,-23,999,-13,1,-6
1917,-5,-22,999,-14,0,-6
1918,-7,-20,998,-14,0,-6
1919,-6,-21,998,-14,2,-5
1920,-7,-19,997,-14,2,-7
1921,-6,-20,996,-14,2,-7
1922,-6,-22,998,-15,1,-6
1923,-7,-21,998,-15,2,-6
1924,-7,-21,998,-13,0,-6
1925,-6,-22,996,-14,0,-7
1926,-5,-21,997,-13,1,-6
1927,-6,-22,996,-14,1,-5
1928,-6,-22,998,-15,0,-6
1929,-7,-21,999,-13,0,-6
1930,-7,-21,996,-14,0,-6
1931,-6,-23,997,-14,1,-7
1932,-8,-23,999,-14,2,-7
1933,-7,-23,996,-14,1,-7
1934,-7,-21,999,-12,1,-6
1935,-5,-20,997,-13,-1,-6
1936,-6,-21,997,-15,0,-6
1937,-5,-22,1000,-13,0,-7
1938,-7,-22,998,-15,2,-7
1939,-6,-21,996,-14,0,-6
1940,-8,-23,1001,-14,0,-6
1941,-9,-22,997,-14,1,-6
1942,-6,-23,996,-13,2,-5
1943,-7,-21,1002,-13,0,-6
1944,-6,-22,996,-13,0,-6
1945,-5,-21,998,-12,0,-6
1946,-7,-21,1002,-12,1,-7
1947,-5,-20,997,-13,0,-6
1948,-6,-23,999,-14,1,-6
1949,-7,-20,1002,-15,0,-5
1950,-7,-21,995,-15,0,-5
1951,-5,-20,999,-14,0,-7
1952,-7,-19,1002,-15,0,-6
1953,-6,-22,994,-15,1,-6
1954,-5,-20,1000,-15,1,-6
1955,-6,-21,1000,-15,1,-6
1956,-6,-19,993,-16,0,-5
1957,-6,-20,1001,-15,1,-5
1958,-9,-22,998,-15,1,-6
1959,-9,-23,992,-14,1,-6
1960,-7,-22,1001,-13,1,-6
1961,-8,-22,998,-15,0,-6
1962,-7,-22,994,-15,1,-7
1963,-6,-21,1002,-13,1,-6
1964,-6,-23,996,-14,1,-6
1965,-6,-20,994,-13,1,-6
1966,-7,-22,1001,-15,1,-6
1967,-7,-23,996,-14,0,-6
1968,-7,-24,995,-14,2,-6
1969,-7,-21,1003,-14,0,-7
1970,-4,-20,994,-14,0,-6
1971,-6,-20,994,-14,0,-6
1972,-5,-22,1002,-13,0,-6
1973,-7,-21,995,-14,1,-6
1974,-7,-23,997,-15,1,-6
1975,-8,-20,1003,-14,1,-5
1976,-6,-23,993,-13,0,-6
1977,-4,-22,997,-13,1,-6
1978,-7,-21,1002,-13,0,-7
1979,-7,-22,993,-14,1,-5
1980,-8,-20,999,-13,1,-7
1981,-8,-21,999,-14,1,-6
1982,-6,-22,992,-14,0,-6
1983,-6,-23,1000,-13,2,-6
1984,-6,-22,999,-12,1,-5
1985,-4,-20,993,-13,1,-7
1986,-7,-21,1001,-14,-1,-5
1987,-5,-20,998,-13,1,-5
1988,-7,-22,992,-13,1,-6
1989,-7,-20,1002,-15,1,-6
1990,-6,-20,997,-13,1,-6
1991,-5,-22,992,-14,1,-5
1992,-7,-20,1002,-14,1,-6
1993,-6,-23,997,-13,1,-6
1994,-5,-21,992,-15,0,-7
1995,-5,-21,1005,-13,1,-6
1996,-7,-21,996,-15,0,-6
1997,-6,-22,994,-13,1,-6
1998,-5,-20,1003,-12,0,-7
1999,-5,-23,995,-14,-1,-5
2000,-6,-23,998,-15,0,-7
2001,-6,-22,1003,-14,1,-7
2002,-7,-22,995,-15,1,-6
2003,-6,-23,996,-13,2,-7
2004,-5,-21,1004,-14,1,-7
2005,-5,-20,994,-13,1,-5
2006,-5,-21,998,-15,0,-6
2007,-7,-20,1003,-15,1,-6
2008,-6,-22,992,-12,2,-5
2009,-7,-22,997,-14,2,-6
2010,-7,-20,1001,-15,0,-7
2011,-7,-21,992,-14,1,-6
2012,-5,-22,1001,-15,0,-6
2013,-7,-21,1001,-13,2,-5
2014,-6,-25,991,-14,3,-6
2015,-6,-21,999,-15,1,-6
2016,-7,-21,1000,-14,0,-6
2017,-7,-23,992,-15,1,-5
2018,-6,-19,1003,-13,1,-6
2019,-6,-20,999,-14,1,-5
2020,-5,-21,992,-14,2,-5
2021,-6,-21,1002,-13,2,-6
2022,-4,-22,997,-14,1,-7
2023,-7,-22,993,-14,1,-6
2024,-8,-20,1002,-14,1,-6
2025,-6,-21,997,-15,1,-6
2026,-7,-20,995,-15,1,-6
2027,-6,-21,1003,-14,0,-6
2028,-7,-19,996,-14,1,-6
2029,-8,-21,996,-17,-1,-6
2030,-6,-20,1001,-12,0,-5
2031,-6,-20,994,-17,1,-6
2032,-6,-21,998,-13,2,-6
2033,-6,-23,1002,-13,1,-6
2034,-8,-21,994,-14,1,-5
2035,-7,-22,1000,-12,2,-7
2036,-5,-21,1001,-16,2,-7
2037,-5,-21,993,-14,1,-7
2038,-6,-19,1000,-14,0,-6
2039,-5,-20,998,-13,0,-6
2040,-6,-21,993,-13,1,-6
2041,-7,-21,1002,-15,0,-6
2042,-6,-23,998,-13,1,-6
2043,-6,-21,993,-12,2,-6
2044,-7,-22,1000,-15,1,-6
2045,-7,-23,996,-14,1,-5
2046,-6,-21,995,-14,1,-7
2047,-6,-20,1001,-14,1,-7
2048,-7,-22,996,-15,1,-5
2049,-6,-22,997,-15,1,-5
2050,-7,-22,999,-14,2,-6
2051,-6,-21,995,-15,1,-5
2052,-7,-22,999,-15,0,-6
2053,-8,-21,1000,-14,1,-5
2054,-4,-20,996,-14,2,-6
2055,-6,-21,999,-15,1,-7
2056,-7,-21,998,-13,0,-6
2057,-8,-22,997,-14,1,-6
2058,-6,-20,1001,-14,0,-7
2059,-7,-20,997,-15,1,-6
2060,-7,-21,998,-13,0,-7
2061,-7,-20,999,-13,0,-6
2062,-6,-21,997,-13,0,-6
2063,-8,-19,999,-13,0,-5
2064,-6,-21,998,-14,1,-6
2065,-7,-23,996,-14,0,-6
2066,-6,-23,1000,-13,1,-7
2067,-6,-23,997,-15,1,-6
2068,-5,-22,999,-14,0,-6
2069,-7,-20,1000,-14,2,-6
2070,-8,-20,998,-14,1,-6
2071,-6,-21,996,-15,1,-7
2072,-7,-23,997,-14,1,-8
2073,-8,-23,997,-13,1,-7
2074,-6,-24,998,-14,1,-6
2075,-7,-24,995,-16,1,-5
2076,-8,-22,996,-14,0,-6
2077,-8,-21,999,-14,1,-6
2078,-5,-21,997,-14,0,-6
2079,-6,-21,998,-15,1,-5
2080,-5,-21,1000,-15,1,-6
2081,-7,-23,997,-15,0,-6
2082,-6,-22,998,-13,1,-6
2083,-5,-22,998,-13,1,-6
2084,-6,-22,996,-15,1,-5
2085,-6,-20,998,-13,1,-7
2086,-7,-18,998,-12,0,-7
2087,-6,-20,996,-15,2,-6
2088,-7,-21,999,-14,2,-6
2089,-6,-21,998,-14,0,-5
2090,-7,-21,998,-13,0,-6
2091,-8,-21,999,-14,0,-6
2092,-8,-22,995,-14,1,-6
2093,-6,-21,998,-13,0,-6
2094,-6,-21,998,-12,0,-6
2095,-7,-20,996,-13,1,-6
2096,-7,-22,999,-13,1,-5
2097,-6,-21,999,-14,0,-6
2098,-3,-22,996,-13,1,-6
2099,-7,-21,1001,-13,0,-7
2100,-6,-22,997,-13,1,-5
2101,-8,-21,997,-13,0,-5
2102,-7,-20,1001,-15,1,-6
2103,-6,-22,997,-15,0,-5
2104,-5,-21,996,-14,0,-6
2105,-7,-22,1000,-14,0,-6
2106,-4,-21,996,-12,1,-6
2107,-5,-20,998,-14,2,-6
2108,-6,-23,1000,-13,1,-6
2109,-7,-22,994,-16,0,-5
2110,-7,-22,999,-15,1,-6
2111,-6,-20,1000,-14,0,-6
2112,-6,-21,997,-15,1,-6
2113,-7,-23,1002,-14,1,-6
2114,-5,-20,997,-15,0,-6
2115,-4,-21,994,-14,1,-6
2116,-7,-20,1001,-14,0,-5
2117,-6,-20,996,-13,1,-6
2118,-7,-21,995,-13,1,-5
2119,-6,-23,1000,-13,1,-5
2120,-6,-22,997,-15,0,-6
2121,-5,-22,997,-14,1,-6
2122,-5,-19,1000,-13,1,-5
2123,-7,-21,995,-14,1,-5
2124,-6,-22,998,-14,0,-6
2125,-7,-20,1000,-14,0,-5
2126,-6,-22,997,-14,1,-6
2127,-6,-22,998,-15,0,-5
2128,-7,-20,999,-16,1,-6
2129,-5,-20,996,-15,1,-7
2130,-5,-22,998,-13,1,-7
2131,-5,-22,998,-14,1,-5
2132,-7,-20,997,-15,1,-8
2133,-6,-22,999,-16,0,-7
2134,-7,-21,998,-14,1,-6
2135,-7,-20,996,-15,2,-6
2136,-6,-22,999,-13,2,-6
2137,-7,-20,996,-14,1,-6
2138,-8,-21,997,-14,0,-6
2139,-8,-21,997,-13,1,-8
2140,-7,-24,997,-13,2,-6
2141,-6,-23,998,-15,1,-4
2142,-6,-22,998,-13,-1,-6
2143,-5,-21,998,-14,1,-6
2144,-7,-21,998,-14,1,-6
2145,-8,-21,998,-16,2,-5
2146,-7,-21,998,-16,0,-6
2147,-7,-21,998,-13,2,-7
2148,-5,-21,996,-14,0,-6
2149,-6,-20,997,-13,1,-6
2150,-5,-22,998,-13,1,-6
2151,-9,-22,998,-14,2,-6
2152,-7,-21,998,-15,1,-6
2153,-5,-20,997,-15,0,-6
2154,-7,-20,996,-13,1,-6
2155,-5,-20,999,-14,1,-5
2156,-7,-22,997,-14,0,-6
2157,-7,-21,998,-13,1,-7
2158,-4,-21,999,-14,0,-7
2159,-5,-21,999,-15,0,-7
2160,-6,-21,997,-14,0,-5
2161,-6,-21,997,-15,0,-6
2162,-6,-22,996,-14,0,-6
2163,-7,-20,997,-14,0,-6
2164,-6,-20,997,-13,0,-6
2165,-6,-21,997,-13,1,-5
2166,-8,-23,996,-12,1,-6
2167,-7,-20,999,-14,0,-6
2168,-7,-20,997,-13,1,-5
2169,-5,-21,997,-15,1,-6
2170,-5,-20,998,-14,0,-6
2171,-6,-21,998,-15,1,-6
2172,-7,-22,999,-15,0,-7
2173,-7,-21,998,-13,1,-7
2174,-6,-23,998,-13,1,-6
2175,-6,-22,998,-13,0,-6
2176,-7,-21,999,-14,1,-5
2177,-8,-22,999,-14,0,-6
2178,-7,-22,998,-14,1,-6
2179,-6,-21,998,-14,0,-7
2180,-7,-21,997,-14,0,-6
2181,-6,-22,999,-13,1,-7
2182,-6,-23,1000,-13,1,-6
2183,-8,-20,999,-14,1,-6
2184,-6,-21,997,-13,0,-6
2185,-7,-21,998,-15,1,-6
2186,-6,-23,998,-15,0,-6
2187,-5,-21,997,-15,1,-5
2188,-8,-21,998,-14,1,-5
2189,-7,-22,998,-15,1,-6
2190,-5,-22,996,-15,2,-6
2191,-6,-23,996,-15,2,-5
2192,-6,-20,997,-14,1,-6
2193,-6,-23,997,-13,1,-7
2194,-6,-22,998,-14,2,-7
2195,-5,-23,998,-14,0,-6
2196,-7,-23,996,-15,2,-5
2197,-8,-22,1000,-15,1,-5
2198,-6,-21,1000,-14,3,-6
2199,-5,-21,995,-14,1,-6
2200,-6,-21,995,-14,0,-6
2201,-6,-22,996,-14,1,-6
2202,-6,-21,997,-15,2,-7
2203,-6,-21,998,-13,1,-6
2204,-8,-20,997,-15,1,-5
2205,-8,-21,996,-15,2,-5
2206,-6,-21,999,-15,2,-5
2207,-6,-21,998,-14,1,-6
2208,-6,-21,997,-14,0,-7
2209,-7,-21,999,-13,0,-6
2210,-6,-20,998,-14,0,-6
2211,-7,-22,997,-16,0,-5
2212,-4,-21,1000,-15,1,-5
2213,-8,-21,994,-15,1,-6
2214,-7,-22,998,-15,1,-6
2215,-8,-22,999,-13,1,-6
2216,-6,-21,995,-14,1,-5
2217,-5,-20,1000,-14,1,-5
2218,-7,-20,999,-15,1,-7
2219,-5,-23,993,-15,2,-6
2220,-5,-22,1000,-15,2,-7
2221,-6,-21,1000,-15,0,-6
2222,-7,-20,992,-14,1,-6
2223,-6,-21,999,-13,1,-5
2224,-6,-22,999,-14,1,-6
2225,-6,-21,993,-13,0,-6
2226,-4,-24,1001,-12,2,-6
2227,-5,-20,999,-14,1,-7
2228,-4,-23,993,-15,1,-5
2229,-6,-20,1001,-15,1,-6
2230,-6,-21,999,-14,1,-7
2231,-4,-23,992,-15,0,-6
2232,-6,-22,1001,-14,0,-6
2233,-7,-22,1000,-14,1,-6
2234,-5,-22,992,-14,1,-7
2235,-6,-22,1000,-14,2,-6
2236,-7,-22,999,-14,2,-6
2237,-6,-22,993,-13,1,-6
2238,-5,-21,1002,-14,0,-6
2239,-8,-22,1000,-16,0,-5
2240,-5,-22,993,-13,1,-6
2241,-6,-21,1002,-15,0,-6
2242,-8,-20,1000,-15,0,-5
2243,-5,-22,992,-15,1,-6
2244,-9,-23,999,-14,1,-6
2245,-5,-22,1000,-13,2,-6
2246,-5,-22,992,-14,2,-5
2247,-7,-21,1000,-13,1,-6
2248,-8,-22,1002,-15,0,-6
2249,-7,-20,993,-13,1,-7
2250,-6,-22,1000,-14,1,-7
2251,-6,-21,1000,-14,1,-6
2252,-6,-22,993,-14,1,-6
2253,-6,-20,999,-14,1,-6
2254,-7,-20,1002,-12,1,-7
2255,-7,-21,994,-14,1,-7
2256,-8,-23,1000,-13,1,-6
2257,-7,-20,1001,-14,1,-6
2258,-6,-22,992,-15,0,-6
2259,-8,-23,1001,-15,0,-6
2260,-6,-21,999,-16,2,-7
2261,-7,-22,993,-15,0,-7
2262,-6,-21,1002,-14,0,-7
2263,-7,-20,998,-14,0,-6
2264,-6,-21,994,-14,1,-6
2265,-7,-20,1002,-14,1,-5
2266,-9,-21,998,-14,0,-6
2267,-5,-23,993,-14,1,-7
2268,-7,-22,1003,-14,0,-5
2269,-7,-22,997,-13,2,-6
2270,-6,-19,995,-14,1,-6
2271,-7,-20,1002,-12,2,-6
2272,-6,-22,996,-15,2,-6
2273,-5,-21,998,-14,1,-5
2274,-7,-18,1003,-16,0,-5
2275,-8,-21,993,-16,0,-7
2276,-4,-21,1000,-16,2,-6
2277,-7,-21,1000,-14,0,-5
2278,-6,-21,993,-14,0,-6
2279,-7,-22,1000,-13,1,-6
2280,-7,-22,1000,-15,0,-7
2281,-7,-19,994,-13,1,-6
2282,-6,-18,1001,-14,0,-7
2283,-7,-21,998,-13,1,-7
2284,-5,-22,995,-14,2,-6
2285,-7,-21,1002,-13,2,-7
2286,-7,-22,996,-14,1,-6
2287,-5,-23,994,-16,0,-6
2288,-7,-20,1004,-14,1,-6
2289,-6,-21,994,-14,1,-6
2290,-5,-23,995,-13,1,-7
2291,-4,-21,1002,-13,2,-7
2292,-4,-21,994,-14,-1,-6
2293,-7,-22,998,-15,0,-6
2294,-8,-22,1003,-15,0,-6
2295,-6,-24,994,-14,2,-6
2296,-7,-22,999,-13,1,-5
2297,-7,-20,1001,-14,0,-6
2298,-4,-20,992,-15,1,-6
2299,-4,-22,1000,-16,0,-6
2300,-6,-19,1002,-15,0,-6
2301,-7,-22,992,-15,2,-6
2302,-6,-21,1002,-13,0,-6
2303,-6,-21,1000,-14,1,-8
2304,-6,-23,992,-14,0,-6
2305,-6,-23,1003,-14,1,-7
2306,-6,-22,1000,-14,0,-5
2307,-5,-21,992,-14,0,-7
2308,-5,-20,1001,-14,0,-7
2309,-6,-18,1000,-13,1,-6
2310,-6,-21,992,-14,1,-6
2311,-5,-21,1002,-12,1,-7
2312,-8,-21,999,-16,0,-6
2313,-8,-22,993,-15,2,-6
2314,-7,-22,1002,-15,1,-5
2315,-8,-20,998,-15,0,-7
2316,-6,-20,993,-14,0,-6
2317,-7,-21,1002,-14,0,-6
2318,-7,-20,999,-14,1,-6
2319,-5,-21,993,-14,1,-7
2320,-6,-22,1001,-16,1,-7
2321,-8,-22,999,-14,0,-5
2322,-8,-21,994,-14,0,-6
2323,-5,-19,1001,-14,1,-6
2324,-8,-19,999,-13,0,-5
2325,-8,-21,996,-13,1,-7
2326,-8,-21,1002,-14,1,-6
2327,-8,-21,999,-15,1,-7
2328,-5,-21,995,-14,1,-7
2329,-7,-22,1001,-15,1,-5
2330,-6,-19,996,-14,0,-5
2331,-7,-20,995,-15,0,-5
2332,-6,-22,1001,-15,2,-5
2333,-7,-22,996,-12,2,-5
2334,-3,-21,996,-14,2,-6
2335,-4,-21,1001,-16,2,-6
2336,-6,-19,995,-14,1,-6
2337,-7,-21,997,-14,1,-6
2338,-6,-21,999,-14,1,-7
2339,-5,-20,997,-14,1,-6
2340,-6,-21,998,-15,0,-6
2341,-6,-22,998,-14,0,-7
2342,-5,-23,998,-14,1,-6
2343,-6,-22,998,-14,0,-6
2344,-6,-20,998,-14,2,-5
2345,-6,-20,998,-13,1,-7
2346,-6,-22,999,-14,1,-6
2347,-7,-22,998,-15,1,-6
2348,-7,-22,998,-12,0,-6
2349,-7,-22,999,-13,1,-6
2350,-8,-22,998,-13,1,-6
2351,-8,-22,998,-13,2,-5
2352,-6,-22,999,-14,1,-5
2353,-5,-22,994,-14,0,-6
2354,-4,-22,997,-14,1,-8
2355,-6,-22,997,-14,1,-7
2356,-6,-21,998,-14,1,-7
2357,-8,-22,997,-13,0,-7
2358,-6,-22,997,-13,1,-6
2359,-7,-22,998,-13,1,-5
2360,-7,-21,999,-13,1,-7
2361,-6,-20,999,-14,0,-6
2362,-5,-21,999,-15,1,-6
2363,-7,-22,998,-12,1,-6
2364,-6,-21,999,-15,1,-6
2365,-7,-21,998,-14,2,-6
2366,-5,-22,998,-14,1,-6
2367,-7,-20,996,-11,0,-6
2368,-6,-22,996,-27,2,-5
2369,-5,-20,998,-20,-4,-7
2370,-6,-21,997,-16,-1,-6
2371,-7,-22,996,-14,0,-6
2372,-6,-24,997,-14,1,-6
2373,-7,-23,997,-14,1,-6
2374,-6,-22,998,-13,2,-7
2375,-6,-22,998,-16,1,-6
2376,-7,-22,997,-14,1,-6
2377,-6,-21,998,-13,0,-4
2378,-5,-21,999,-15,1,-5
2379,-5,-22,997,-13,1,-6
2380,-6,-22,997,-14,0,-7
2381,-7,-20,998,-17,1,-8
2382,-8,-22,997,-15,0,-8
2383,-7,-22,999,-14,1,-7
2384,-8,-20,1000,-15,1,-6
2385,-6,-21,996,-13,0,-7
2386,-5,-21,998,-13,1,-7
2387,-6,-21,1000,-13,-1,-7
2388,-5,-23,995,-14,0,-6
2389,-8,-23,999,-14,0,-6
2390,-5,-22,1000,-15,0,-5
2391,-7,-21,995,-15,0,-6
2392,-6,-22,999,-14,1,-6
2393,-7,-20,999,-14,0,-5
2394,-5,-21,995,-15,1,-7
2395,-7,-22,999,-15,2,-6
2396,-6,-22,997,-14,0,-6
2397,-7,-21,995,-14,1,-6
2398,-7,-22,1001,-14,0,-5
2399,-7,-22,998,-15,0,-6
2400,-6,-21,993,-14,0,-6
2401,-7,-20,1002,-14,0,-7
2402,-8,-20,998,-15,-1,-6
2403,-7,-21,996,-14,0,-5
2404,-7,-21,1002,-14,0,-7
2405,-7,-21,996,-15,0,-7
2406,-5,-21,997,-15,1,-7
2407,-7,-22,1001,-14,1,-7
2408,-7,-21,995,-15,1,-7
2409,-6,-22,997,-15,0,-6
2410,-7,-23,1000,-14,2,-5
2411,-8,-22,994,-14,2,-6
2412,-6,-20,998,-15,1,-5
2413,-7,-19,1000,-13,2,-6
2414,-6,-21,996,-15,1,-6
2415,-6,-22,1001,-17,0,-7
2416,-8,-21,998,-13,1,-6
2417,-7,-22,997,-13,1,-6
2418,-7,-23,1000,-14,2,-5
2419,-8,-23,999,-14,1,-6
2420,-7,-21,997,-15,1,-6
2421,-7,-21,1000,-15,1,-7
2422,-4,-21,998,-14,0,-6
2423,-5,-21,997,-15,0,-6
2424,-6,-23,999,-13,-1,-7
2425,-8,-22,996,-12,0,-6
2426,-6,-20,998,-13,2,-5
2427,-7,-20,998,-14,0,-7
2428,-7,-21,997,-13,1,-7
2429,-8,-21,998,-14,2,-6
2430,-6,-22,999,-14,0,-6
2431,-6,-21,997,-13,0,-7
2432,-6,-22,997,-15,0,-6
2433,-5,-22,999,-14,0,-6
2434,-7,-21,996,-15,0,-7
2435,-7,-20,997,-16,-1,-6
2436,-8,-20,998,-13,-1,-6
2437,-8,-21,997,-15,0,-7
2438,-6,-21,1000,-15,1,-7
2439,-7,-20,1000,-13,0,-8
2440,-6,-22,996,-13,0,-7
2441,-7,-21,999,-14,1,-6
2442,-8,-21,1000,-14,2,-6
2443,-6,-21,997,-14,1,-5
2444,-8,-22,1001,-14,2,-7
2445,-8,-22,996,-14,3,-6
2446,-5,-21,996,-15,0,-6
2447,-5,-21,1000,-13,-1,-8
2448,-6,-21,998,-15,1,-6
2449,-6,-20,997,-15,2,-5
2450,-8,-20,999,-15,2,-5
2451,-7,-21,997,-14,0,-5
2452,-8,-23,999,-15,1,-6
2453,-6,-21,999,-13,1,-6
2454,-6,-21,995,-15,0,-5
2455,-6,-22,997,-13,1,-6
2456,-6,-20,999,-14,1,-6
2457,-4,-20,998,-15,0,-7
2458,-7,-20,1000,-14,1,-6
2459,-5,-21,998,-16,0,-6
2460,-7,-21,999,-15,0,-5
2461,-8,-20,999,-13,0,-7
2462,-7,-20,996,-14,0,-6
2463,-6,-21,999,-15,1,-6
2464,-6,-22,999,-12,1,-6
2465,-5,-20,997,-14,1,-6
2466,-5,-21,997,-14,2,-5
2467,-7,-22,999,-14,1,-7
2468,-7,-21,998,-14,1,-6
2469,-6,-21,999,-13,0,-6
2470,-5,-21,998,-15,-1,-5
2471,-6,-19,998,-15,0,-6
2472,-8,-20,998,-14,1,-6
2473,-6,-20,997,-13,0,-6
2474,-4,-23,996,-13,0,-5
2475,-5,-22,998,-14,1,-6
2476,-7,-20,997,-14,2,-7
2477,-7,-21,998,-14,1,-7
2478,-6,-22,999,-14,1,-6
2479,-7,-18,998,-14,1,-6
2480,-6,-21,997,-13,1,-6
2481,-5,-21,999,-12,2,-5
2482,-6,-24,998,-14,0,-5
2483,-7,-21,998,-13,0,-6
2484,-7,-21,998,-13,1,-5
2485,-6,-21,998,-15,0,-5
2486,-4,-21,998,-13,1,-6
2487,-6,-22,997,-14,0,-7
2488,-7,-22,998,-14,1,-6
2489,-6,-20,999,-15,0,-6
2490,-6,-22,999,-15,2,-6
2491,-6,-21,999,-13,1,-7
2492,-6,-21,998,-14,1,-6
2493,-6,-21,997,-15,0,-6
2494,-6,-20,999,-14,2,-6
2495,-6,-19,998,-15,0,-6
2496,-8,-21,996,-15,2,-6
2497,-6,-20,999,-14,1,-5
2498,-6,-21,998,-14,1,-6
2499,-7,-21,1000,-14,1,-7
2500,-9,-22,999,-14,1,-6
2501,-8,-21,998,-13,1,-6
2502,-5,-20,998,-12,2,-6
2503,-6,-20,998,-14,1,-6
2504,-6,-21,996,-14,1,-6
2505,-8,-21,999,-15,1,-5
2506,-7,-21,998,-13,2,-7
2507,-6,-21,996,-14,1,-6
2508,-7,-20,999,-15,0,-6
2509,-6,-20,997,-15,0,-5
2510,-5,-20,998,-13,0,-6
2511,-5,-21,1000,-15,2,-6
2512,-7,-20,996,-13,1,-6
2513,-6,-22,998,-14,2,-6
2514,-6,-22,999,-14,2,-6
2515,-7,-22,995,-14,0,-7
2516,-7,-22,1000,-15,-1,-7
2517,-7,-22,1000,-14,1,-5
2518,-6,-21,997,-14,0,-7
2519,-5,-20,1000,-14,1,-5
2520,-5,-21,997,-13,1,-5
2521,-6,-21,998,-14,0,-7
2522,-8,-21,999,-15,1,-6
2523,-6,-20,999,-15,1,-6
2524,-7,-20,998,-15,1,-6
2525,-8,-23,1000,-15,0,-7
2526,-6,-22,997,-14,0,-6
2527,-7,-20,998,-14,1,-7
2528,-6,-20,997,-15,1,-6
2529,-7,-21,998,-14,0,-6
2530,-6,-21,998,-13,-1,-7
2531,-8,-23,997,-14,-1,-7
2532,-6,-23,997,-13,2,-6
2533,-8,-22,998,-13,1,-6
2534,-8,-19,997,-15,0,-6
2535,-7,-20,997,-15,0,-6
2536,-6,-20,997,-14,1,-6
2537,-4,-21,999,-14,0,-6
2538,-5,-20,998,-15,0,-6
2539,-7,-22,999,-16,2,-6
2540,-5,-22,998,-15,1,-7
2541,-6,-21,998,-14,1,-6
2542,-7,-21,999,-15,1,-5
2543,-7,-22,998,-15,1,-5
2544,-7,-21,999,-14,1,-6
2545,-6,-21,999,-14,0,-6
2546,-6,-21,998,-16,0,-6
2547,-7,-20,999,-14,1,-5
2548,-7,-21,999,-13,1,-6
2549,-7,-21,998,-13,1,-6
2550,-4,-22,998,-15,0,-7
2551,-6,-19,997,-12,-1,-7
2552,-6,-20,998,-13,0,-6
2553,-5,-22,997,-13,2,-6
2554,-6,-19,998,-14,-1,-5
2555,-7,-19,997,-13,1,-7
2556,-6,-23,998,-15,0,-6
2557,-5,-22,997,-15,0,-6
2558,-6,-19,998,-14,1,-6
2559,-7,-20,998,-14,0,-7
2560,-6,-20,997,-14,0,-7
2561,-6,-22,997,-14,1,-6
2562,-6,-23,997,-14,1,-6
2563,-7,-21,997,-15,0,-6
2564,-7,-22,997,-15,1,-7
2565,-7,-22,998,-14,2,-5
2566,-7,-20,997,-14,0,-6
2567,-8,-23,998,-14,0,-6
2568,-8,-21,999,-14,0,-6
2569,-6,-21,997,-14,0,-6
2570,-6,-23,998,-15,1,-4
2571,-7,-22,999,-14,2,-5
2572,-4,-20,996,-15,1,-5
2573,-6,-21,999,-14,3,-6
2574,-6,-22,1000,-12,1,-6
2575,-6,-23,997,-13,0,-6
2576,-6,-21,999,-13,1,-7
2577,-6,-22,996,-13,0,-6
2578,-5,-20,996,-16,0,-5
2579,-5,-21,997,-15,0,-5
2580,-7,-21,997,-14,0,-7
2581,-6,-20,997,-14,1,-6
2582,-7,-22,999,-13,1,-6
2583,-7,-20,996,-14,1,-6
2584,-6,-20,998,-14,1,-7
2585,-8,-21,997,-14,1,-6
2586,-8,-21,996,-15,2,-6
2587,-7,-20,1000,-13,2,-5
2588,-7,-20,999,-12,2,-6
2589,-7,-20,997,-15,2,-5
2590,-6,-21,999,-15,0,-7
2591,-6,-21,998,-14,2,-6
2592,-6,-21,995,-13,0,-6
2593,-6,-22,1002,-14,1,-6
2594,-7,-22,997,-16,1,-6
2595,-7,-22,996,-14,-1,-5
2596,-7,-22,998,-15,1,-6
2597,-6,-20,998,-14,1,-7
2598,-6,-21,995,-14,2,-5
2599,-7,-21,1000,-12,1,-6
2600,-8,-20,999,-14,1,-6
2601,-5,-22,996,-15,1,-5
2602,-5,-22,999,-14,1,-6
2603,-5,-20,995,-15,1,-7
2604,-6,-23,998,-15,0,-7
2605,-8,-21,999,-13,1,-6
2606,-6,-21,998,-15,1,-6
2607,-7,-21,997,-14,0,-7
2608,-9,-21,999,-12,0,-6
2609,-8,-22,997,-13,1,-6
2610,-7,-22,998,-13,1,-6
2611,-5,-21,1000,-14,1,-7
2612,-5,-21,998,-15,1,-6
2613,-6,-22,998,-14,0,-6
2614,-7,-21,997,-13,1,-7
2615,-7,-22,998,-15,0,-6
2616,-6,-21,998,-15,1,-6
2617,-6,-23,999,-15,1,-6
2618,-6,-21,999,-14,0,-7
2619,-6,-19,997,-14,1,-7
2620,-6,-20,999,-15,1,-7
2621,-6,-20,998,-12,1,-7
2622,-6,-22,998,-14,1,-6
2623,-6,-22,998,-13,1,-6
2624,-5,-20,999,-15,1,-7
2625,-4,-21,997,-13,2,-6
2626,-5,-20,998,-14,1,-6
2627,-7,-21,996,-14,1,-6
2628,-6,-20,997,-15,1,-6
2629,-8,-21,998,-15,2,-5
2630,-5,-21,998,-15,0,-5
2631,-4,-21,998,-14,1,-5
2632,-5,-20,997,-14,1,-6
2633,-6,-21,998,-13,2,-6
2634,-5,-21,999,-14,1,-4
2635,-6,-20,997,-14,1,-5
2636,-8,-21,999,-15,0,-5
2637,-7,-19,997,-15,0,-5
2638,-4,-20,997,-14,-1,-6
2639,-5,-22,997,-15,0,-6
2640,-8,-20,997,-11,2,-7
2641,-7,-22,997,-12,1,-7
2642,-5,-19,998,-13,1,-6
2643,-7,-20,997,-14,1,-6
2644,-6,-20,997,-14,0,-6
2645,-7,-20,997,-13,1,-6
2646,-5,-21,997,-14,1,-6
2647,-7,-20,999,-13,0,-7
2648,-5,-20,999,-14,0,-6
2649,-6,-20,998,-15,2,-6
2650,-6,-22,997,-15,2,-6
2651,-7,-21,997,-14,0,-6
2652,-5,-21,997,-13,-1,-6
2653,-6,-21,998,-15,0,-6
2654,-7,-23,997,-15,1,-6
2655,-8,-23,998,-13,0,-6
2656,-5,-22,998,-14,1,-5
2657,-7,-21,999,-14,1,-6
2658,-5,-21,996,-15,-1,-6
2659,-7,-21,999,-14,0,-7
2660,-6,-22,998,-15,0,-6
2661,-5,-21,997,-15,1,-5
2662,-6,-22,998,-14,0,-6
2663,-7,-20,997,-15,1,-6
2664,-7,-21,999,-14,0,-6
2665,-5,-21,998,-14,1,-6
2666,-6,-23,997,-15,1,-6
2667,-6,-22,998,-13,0,-6
2668,-6,-23,997,-15,1,-6
2669,-7,-22,998,-15,1,-6
2670,-6,-22,1000,-13,2,-6
2671,-6,-21,999,-13,1,-6
2672,-4,-22,999,-14,1,-7
2673,-8,-21,999,-14,1,-6
2674,-6,-22,998,-16,-1,-5
2675,-7,-21,999,-15,0,-6
2676,-7,-22,996,-14,1,-7
2677,-7,-22,999,-14,0,-7
2678,-5,-21,997,-14,0,-5
2679,-6,-20,998,-14,1,-6
2680,-6,-21,999,-14,1,-6
2681,-8,-22,998,-13,1,-7
2682,-7,-21,998,-14,1,-5
2683,-8,-20,998,-16,2,-7
2684,-6,-22,997,-14,0,-6
2685,-7,-21,997,-15,0,-7
2686,-5,-21,1000,-14,0,-6
2687,-6,-22,998,-14,1,-6
2688,-7,-21,998,-13,1,-7
2689,-5,-23,998,-14,0,-6
2690,-7,-21,997,-14,0,-6
2691,-5,-22,997,-13,1,-7
2692,-6,-22,998,-14,1,-7
2693,-7,-21,997,-14,1,-7
2694,-6,-22,997,-13,0,-6
2695,-6,-22,999,-14,2,-6
2696,-6,-21,997,-14,1,-6
2697,-7,-21,997,-15,1,-6
2698,-8,-23,999,-14,2,-5
2699,-7,-21,997,-14,1,-7
2700,-7,-21,997,-15,0,-7
2701,-7,-21,998,-15,1,-6
2702,-7,-21,999,-22,-3,-6
2703,-6,-20,998,-14,1,-5
2704,-9,-22,997,-14,1,-6
2705,-7,-23,998,-14,0,-5
2706,-9,-23,1001,-14,-1,-6
2707,-7,-22,998,-14,0,-7
2708,-6,-22,998,-14,1,-5
2709,-7,-22,999,-15,0,-6
2710,-6,-21,999,-14,0,-5
2711,-5,-22,997,-16,2,-6
2712,-6,-22,996,-15,1,-5
2713,-6,-21,998,-14,1,-6
2714,-7,-20,997,-14,1,-7
2715,-7,-21,996,-12,0,-6
2716,-6,-22,996,-15,0,-6
2717,-9,-21,999,-14,1,-7
2718,-7,-20,997,-14,0,-6
2719,-7,-20,998,-14,0,-6
2720,-6,-21,999,-13,1,-5
2721,-6,-23,997,-14,1,-6
2722,-6,-22,998,-15,1,-6
2723,-6,-22,997,-13,1,-6
2724,-6,-20,997,-16,0,-5
2725,-7,-22,999,-14,0,-6
2726,-6,-22,998,-14,1,-6
2727,-5,-22,999,-14,0,-6
2728,-7,-23,998,-13,1,-6
2729,-7,-23,997,-15,-1,-6
2730,-7,-24,999,-15,0,-6
2731,-6,-21,998,-13,1,-7
2732,-5,-20,999,-14,1,-7
2733,-7,-19,998,-15,1,-5
2734,-7,-19,998,-15,0,-6
2735,-7,-20,998,-13,0,-6
2736,-6,-21,998,-15,0,-5
2737,-7,-21,999,-16,-1,-6
2738,-8,-22,997,-15,0,-5
2739,-6,-21,999,-14,1,-5
2740,-6,-21,998,-14,0,-6
2741,-4,-21,997,-13,0,-5
2742,-5,-20,998,-15,1,-6
2743,-9,-21,999,-15,1,-7
2744,-7,-21,997,-13,1,-6
2745,-6,-21,999,-14,0,-5
2746,-7,-22,998,-15,0,-6
2747,-6,-20,997,-13,1,-6
2748,-7,-19,997,-14,2,-6
2749,-6,-22,999,-13,0,-5
2750,-5,-21,997,-13,0,-6
2751,-6,-22,997,-14,1,-6
2752,-8,-20,1000,-14,1,-7
2753,-8,-22,996,-15,0,-5
2754,-7,-22,996,-13,0,-6
2755,-5,-20,998,-14,1,-7
2756,-5,-21,998,-15,0,-6
2757,-7,-21,997,-14,-1,-7
2758,-7,-24,1001,-14,2,-6
2759,-6,-23,1000,-15,1,-7
2760,-4,-21,997,-14,0,-7
2761,-7,-20,998,-14,1,-7
2762,-8,-20,998,-15,1,-6
2763,-7,-18,997,-14,0,-6
2764,-6,-20,997,-13,1,-6
2765,-8,-22,998,-15,1,-6
2766,-4,-21,998,-16,1,-5
2767,-4,-22,996,-14,1,-7
2768,-5,-20,998,-15,0,-7
2769,-5,-21,997,-13,1,-6
2770,-6,-21,997,-14,1,-6
2771,-6,-23,1000,-14,1,-6
2772,-5,-21,998,-13,1,-7
2773,-5,-23,996,-13,0,-7
2774,-4,-22,1000,-16,0,-6
2775,-8,-21,1000,-14,0,-7
2776,-7,-22,997,-13,-1,-7
2777,-9,-20,999,-14,1,-6
2778,-5,-23,998,-14,2,-6
2779,-6,-22,996,-14,1,-6
2780,-6,-23,997,-14,1,-6
2781,-7,-22,998,-14,0,-6
2782,-5,-22,996,-15,1,-6
2783,-8,-23,996,-13,0,-6
2784,-6,-21,999,-13,0,-6
2785,-6,-22,996,-14,2,-6
2786,-5,-22,997,-14,1,-6
2787,-6,-20,999,-13,0,-6
2788,-6,-19,1000,-14,0,-7
2789,-7,-19,996,-12,0,-6
2790,-6,-20,998,-14,1,-5
2791,-8,-21,999,-14,1,-6
2792,-6,-20,998,-15,0,-7
2793,-7,-19,998,-13,0,-6
2794,-7,-22,998,-15,0,-7
2795,-6,-21,996,-14,0,-6
2796,-6,-22,998,-14,0,-6
2797,-9,-20,998,-14,0,-6
2798,-6,-18,996,-12,1,-6
2799,-7,-21,997,-14,2,-6
2800,-7,-20,998,-14,1,-6
2801,-6,-21,996,-13,1,-6
2802,-5,-23,997,-13,0,-6
2803,-6,-20,1000,-14,0,-6
2804,-7,-21,996,-16,1,-6
2805,-5,-22,999,-14,0,-6
2806,-8,-21,1000,-13,2,-6
2807,-6,-21,996,-14,1,-6
2808,-5,-22,997,-13,2,-7
2809,-4,-21,999,-14,1,-6
2810,-5,-23,995,-15,1,-6
2811,-6,-22,998,-15,0,-7
2812,-5,-21,1000,-15,1,-6
2813,-6,-20,996,-14,1,-6
2814,-4,-21,997,-13,2,-7
2815,-7,-21,999,-15,0,-6
2816,-7,-19,995,-14,-1,-6
2817,-8,-21,997,-15,0,-7
2818,-7,-21,1001,-13,1,-6
2819,-7,-21,995,-13,1,-6
2820,-6,-21,997,-14,2,-7
2821,-6,-23,1001,-13,2,-5
2822,-6,-21,996,-13,0,-5
2823,-7,-21,997,-13,1,-7
2824,-9,-21,1000,-14,1,-7
2825,-7,-23,997,-13,1,-6
2826,-6,-21,998,-14,0,-7
2827,-7,-22,1000,-14,0,-6
2828,-4,-22,998,-15,1,-6
2829,-6,-21,999,-14,1,-6
2830,-6,-21,998,-16,1,-6
2831,-7,-21,995,-13,1,-6
2832,-6,-20,997,-16,2,-6
2833,-6,-22,998,-15,1,-6
2834,-6,-20,996,-14,0,-6
2835,-6,-20,998,-14,0,-7
2836,-7,-21,999,-14,1,-4
2837,-7,-21,997,-14,0,-5
2838,-7,-22,998,-15,0,-6
2839,-6,-23,998,-14,1,-6
2840,-7,-22,997,-13,1,-5
2841,-7,-20,998,-14,1,-6
2842,-5,-21,998,-15,0,-5
2843,-6,-20,998,-12,0,-7
2844,-5,-21,996,-14,1,-6
2845,-6,-23,998,-14,2,-5
2846,-7,-22,997,-13,1,-6
2847,-6,-22,998,-15,1,-6
2848,-7,-21,998,-14,0,-6
2849,-7,-23,997,-13,0,-5
2850,-5,-21,998,-14,0,-6
2851,-7,-19,1000,-13,1,-6
2852,-7,-20,998,-13,0,-6
2853,-7,-20,998,-15,1,-7
2854,-7,-22,998,-13,0,-7
2855,-7,-24,998,-14,0,-5
2856,-7,-22,998,-14,0,-6
2857,-8,-22,997,-13,-1,-5
2858,-5,-22,998,-13,-1,-6
2859,-6,-22,998,-14,1,-6
2860,-8,-22,998,-15,2,-7
2861,-8,-22,998,-13,1,-6
2862,-7,-22,996,-14,1,-5
2863,-5,-20,998,-14,1,-7
2864,-7,-22,997,-15,0,-6
2865,-8,-20,997,-15,0,-7
2866,-6,-21,997,-15,0,-5
2867,-6,-21,997,-13,1,-6
2868,-5,-21,997,-14,1,-6
2869,-7,-21,998,-15,1,-6
2870,-7,-21,999,-13,2,-6
2871,-6,-21,1000,-13,0,-6
2872,-6,-21,997,-13,1,-5
2873,-7,-21,998,-14,1,-7
2874,-7,-21,997,-14,1,-6
2875,-6,-20,997,-15,0,-5
2876,-5,-21,999,-14,2,-6
2877,-6,-22,998,-15,1,-6
2878,-6,-22,998,-15,1,-6
2879,-6,-22,997,-15,0,-6
2880,-6,-22,997,-16,1,-6
2881,-8,-20,998,-15,1,-6
2882,-6,-21,999,-14,0,-6
2883,-6,-20,999,-15,1,-6
2884,-7,-21,998,-14,0,-6
2885,-4,-22,997,-15,0,-7
2886,-5,-21,1000,-13,0,-6
2887,-9,-24,999,-14,0,-6
2888,-7,-20,998,-13,1,-6
2889,-4,-22,998,-14,1,-7
2890,-6,-22,998,-13,2,-6
2891,-8,-20,997,-15,2,-4
2892,-7,-21,998,-15,1,-6
2893,-8,-23,997,-16,0,-6
2894,-5,-21,996,-14,0,-6
2895,-5,-21,998,-14,2,-6
2896,-6,-21,997,-14,1,-6
2897,-6,-21,998,-15,1,-4
2898,-7,-20,997,-14,1,-5
2899,-6,-20,995,-16,1,-6
2900,-5,-22,998,-14,-1,-5
2901,-7,-22,997,-15,0,-7
2902,-6,-22,998,-15,1,-6
2903,-6,-20,997,-14,1,-6
2904,-7,-21,998,-14,1,-5
2905,-6,-21,997,-16,1,-6
2906,-7,-21,997,-14,1,-6
2907,-7,-21,998,-14,1,-6
2908,-7,-22,996,-14,0,-6
2909,-6,-21,998,-13,2,-6
2910,-5,-22,998,-13,2,-6
2911,-8,-21,998,-12,1,-7
2912,-7,-21,997,-13,1,-6
2913,-8,-21,997,-14,1,-6
2914,-8,-22,999,-15,1,-6
2915,-8,-21,997,-14,0,-5
2916,-8,-21,998,-12,0,-6
2917,-8,-22,996,-14,2,-6
2918,-6,-21,996,-15,0,-6
2919,-7,-20,998,-14,1,-7
2920,-6,-20,998,-14,1,-6
2921,-7,-22,997,-14,0,-6
2922,-8,-21,1000,-14,1,-7
2923,-6,-20,997,-15,1,-6
2924,-6,-23,997,-15,1,-5
2925,-8,-21,999,-14,1,-6
2926,-7,-21,997,-13,1,-6
2927,-6,-22,996,-14,0,-6
2928,-6,-20,1000,-14,1,-6
2929,-6,-21,998,-14,1,-6
2930,-8,-22,999,-14,2,-6
2931,-7,-21,997,-14,0,-6
2932,-5,-21,997,-14,0,-7
2933,-7,-21,1000,-14,1,-6
2934,-6,-21,999,-14,1,-7
2935,-7,-23,997,-13,0,-6
2936,-6,-21,1000,-13,1,-6
2937,-7,-24,998,-15,1,-6
2938,-5,-21,997,-15,0,-7
2939,-5,-22,999,-15,0,-6
2940,-7,-20,998,-14,1,-6
2941,-7,-21,999,-14,1,-6
2942,-6,-21,996,-16,1,-6
2943,-8,-20,999,-14,2,-6
2944,-6,-22,998,-14,1,-4
2945,-6,-20,996,-14,2,-6
2946,-6,-22,999,-14,1,-5
2947,-6,-20,997,-16,0,-6
2948,-7,-21,996,-14,0,-6
2949,-5,-21,1000,-14,0,-6
2950,-6,-21,996,-15,1,-5
2951,-6,-20,997,-13,-1,-6
2952,-6,-20,998,-13,0,-6
2953,-6,-22,997,-14,1,-6
2954,-5,-22,998,-14,1,-6
2955,-6,-21,1000,-13,0,-6
2956,-9,-22,997,-14,1,-5
2957,-9,-22,999,-13,1,-5
2958,-7,-21,999,-14,0,-5
2959,-7,-21,996,-13,0,-6
2960,-7,-22,1000,-14,0,-6
2961,-7,-24,998,-14,0,-7
2962,-6,-23,995,-15,1,-6
2963,-7,-22,999,-13,1,-7
2964,-8,-21,998,-14,2,-6
2965,-7,-22,994,-14,1,-6
2966,-6,-21,1002,-14,0,-7
2967,-7,-22,997,-15,1,-6
2968,-7,-22,995,-14,0,-7
2969,-8,-23,1001,-13,0,-6
2970,-8,-21,998,-15,1,-8
2971,-6,-21,993,-15,1,-6
2972,-7,-21,1003,-13,1,-7
2973,-7,-21,996,-15,2,-6
2974,-6,-22,992,-13,1,-6
2975,-8,-21,1003,-13,1,-6
2976,-7,-20,997,-13,0,-6
2977,-7,-22,993,-13,0,-7
2978,-7,-22,1003,-14,0,-6
2979,-6,-20,997,-13,0,-6
2980,-6,-20,994,-14,1,-7
2981,-7,-22,1002,-15,0,-6
2982,-7,-21,996,-15,1,-6
2983,-7,-20,992,-13,1,-6
2984,-6,-21,1002,-12,1,-7
2985,-5,-22,997,-15,1,-6
2986,-7,-21,994,-14,1,-5
2987,-6,-21,1000,-14,0,-6
2988,-7,-20,999,-14,1,-6
2989,-6,-19,993,-14,0,-6
2990,-7,-22,1001,-14,2,-4
2991,-6,-23,1001,-14,1,-6
2992,-7,-21,994,-15,1,-7
2993,-7,-20,1001,-13,1,-7
2994,-8,-20,1000,-14,1,-5
2995,-5,-21,994,-14,1,-5
2996,-7,-21,998,-13,2,-6
2997,-6,-21,1001,-14,2,-7
2998,-5,-21,994,-14,-1,-6
2999,-5,-20,997,-14,0,-5
3000,-6,-19,1001,-14,-1,-6
3001,-7,-20,996,-13,0,-6
3002,-6,-22,997,-15,1,-7
3003,-8,-21,998,-14,2,-5
3004,-6,-21,996,-14,1,-5
3005,-5,-20,997,-14,1,-6
3006,-8,-20,998,-14,1,-6
3007,-7,-21,997,-14,0,-6
3008,-6,-21,997,-15,0,-6
3009,-6,-22,999,-13,2,-6
3010,-6,-23,997,-13,1,-6
3011,-7,-21,997,-13,1,-6
3012,-6,-21,998,-13,0,-6
3013,-8,-22,999,-14,0,-5
3014,-6,-20,997,-14,0,-7
3015,-5,-20,997,-14,2,-6
3016,-6,-21,997,-14,1,-6
3017,-6,-22,999,-14,0,-6
3018,-7,-23,998,-16,0,-5
3019,-6,-21,999,-15,0,-6
3020,-7,-21,996,-15,0,-6
3021,-8,-21,998,-15,1,-6
3022,-5,-19,997,-14,0,-7
3023,-9,-19,998,-13,1,-6
3024,-8,-21,998,-14,2,-6
3025,-8,-21,998,-14,1,-6
3026,-7,-19,998,-14,-1,-6
3027,-6,-22,998,-14,0,-5
3028,-8,-21,998,-13,1,-6
3029,-5,-21,998,-15,0,-6
3030,-5,-21,999,-14,1,-6
3031,-6,-21,999,-16,0,-7
3032,-6,-22,999,-14,1,-7
3033,-6,-20,997,-14,1,-7
3034,-6,-22,997,-14,1,-6
3035,-8,-23,998,-14,1,-6
3036,-6,-22,998,-15,-1,-7
3037,-6,-22,998,-13,0,-7
3038,-7,-20,998,-14,1,-7
3039,-6,-20,997,-14,0,-6
3040,-7,-21,999,-12,-1,-6
3041,-8,-22,998,-15,-1,-6
3042,-6,-21,997,-12,1,-6
3043,-6,-23,997,-13,1,-5
3044,-7,-21,998,-13,0,-7
3045,-7,-22,999,-11,0,-7
3046,-6,-20,998,-15,-1,-7
3047,-5,-22,999,-14,2,-7
3048,-4,-21,998,-14,2,-7
3049,-7,-23,997,-15,-1,-6
3050,-7,-22,999,-14,2,-6
3051,-6,-22,998,-15,1,-5
3052,-7,-21,998,-14,1,-5
3053,-9,-21,998,-13,0,-6
3054,-7,-19,998,-17,0,-7
3055,-7,-22,997,-15,1,-7
3056,-7,-20,997,-16,0,-8
3057,-7,-21,999,-14,1,-6
3058,-8,-22,998,-14,0,-6
3059,-7,-21,999,-14,2,-6
3060,-7,-23,999,-14,1,-6
3061,-7,-23,998,-14,0,-7
3062,-7,-21,999,-14,0,-6
3063,-6,-21,998,-14,0,-5
3064,-5,-21,999,-14,1,-6
3065,-5,-22,998,-12,0,-7
3066,-6,-20,997,-13,0,-5
3067,-7,-23,998,-13,2,-5
3068,-7,-21,999,-13,1,-6
3069,-7,-21,997,-13,0,-6
3070,-5,-22,999,-14,0,-6
3071,-6,-21,996,-14,2,-6
3072,-8,-21,997,-14,0,-6
3073,-6,-21,998,-14,0,-6
3074,-5,-21,998,-15,2,-7
3075,-7,-22,998,-15,1,-8
3076,-6,-21,998,-15,1,-6
3077,-5,-21,1000,-15,2,-7
3078,-7,-21,998,-14,1,-6
3079,-8,-23,1000,-14,0,-6
3080,-8,-23,997,-15,0,-6
3081,-8,-21,996,-15,-1,-5
3082,-8,-21,997,-14,-1,-6
3083,-6,-20,998,-15,-1,-5
3084,-6,-20,996,-13,1,-5
3085,-8,-22,999,-14,2,-6
3086,-9,-21,998,-13,0,-6
3087,-6,-21,998,-15,0,-5
3088,-7,-22,998,-15,-1,-6
3089,-6,-20,997,-14,0,-7
3090,-7,-20,997,-14,0,-7
3091,-6,-22,996,-12,0,-7
3092,-6,-21,997,-14,1,-6
3093,-6,-22,998,-15,0,-6
3094,-6,-21,999,-14,1,-6
3095,-7,-19,995,-13,1,-6
3096,-8,-21,997,-13,2,-6
3097,-6,-21,998,-13,0,-5
3098,-6,-21,999,-14,1,-5
3099,-8,-19,999,-12,1,-6
3100,-7,-21,997,-14,-1,-6
3101,-6,-20,998,-14,0,-7
3102,-6,-21,997,-15,0,-7
3103,-6,-22,999,-14,1,-5
3104,-7,-21,1000,-13,1,-6
3105,-8,-21,999,-14,2,-6
3106,-6,-22,997,-14,1,-6
3107,-4,-20,997,-14,0,-7
3108,-5,-20,997,-15,1,-6
3109,-5,-21,999,-14,0,-5
3110,-6,-22,998,-14,0,-6
3111,-7,-21,996,-15,2,-6
3112,-7,-23,999,-14,0,-6
3113,-7,-22,996,-15,0,-5
3114,-5,-22,998,-14,0,-6
3115,-7,-22,999,-13,1,-6
3116,-5,-23,998,-14,1,-6
3117,-7,-21,998,-16,1,-7
3118,-4,-20,998,-14,0,-6
3119,-8,-20,998,-14,1,-5
3120,-7,-21,997,-15,1,-6
3121,-8,-20,998,-14,1,-6
3122,-6,-20,997,-14,1,-6
3123,-7,-22,999,-14,1,-6
3124,-6,-21,998,-14,0,-6
3125,-6,-21,998,-14,1,-7
3126,-7,-20,999,-14,1,-7
3127,-7,-21,995,-16,2,-5
3128,-6,-22,998,-14,1,-6
3129,-7,-21,999,-16,1,-6
3130,-7,-23,996,-15,0,-6
3131,-8,-23,999,-14,1,-5
3132,-8,-22,1000,-14,1,-5
3133,-7,-21,994,-16,0,-5
3134,-8,-22,999,-13,0,-6
3135,-6,-21,1001,-14,2,-6
3136,-7,-21,996,-14,1,-6
3137,-5,-21,1000,-13,0,-6
3138,-6,-20,999,-15,2,-6
3139,-4,-21,995,-14,1,-8
3140,-5,-20,1000,-14,2,-7
3141,-7,-21,997,-13,1,-5
3142,-7,-20,996,-14,1,-7
3143,-9,-21,1000,-15,2,-6
3144,-8,-19,996,-14,2,-7
3145,-7,-21,995,-14,0,-7
3146,-7,-23,1001,-12,-1,-7
3147,-6,-22,996,-14,0,-6
3148,-8,-23,997,-15,0,-6
3149,-8,-21,1000,-14,2,-6
3150,-7,-21,995,-12,1,-6
3151,-7,-21,996,-14,0,-7
3152,-7,-19,999,-15,1,-6
3153,-7,-21,994,-15,0,-6
3154,-8,-21,1000,-14,1,-6
3155,-7,-20,1000,-15,1,-7
3156,-5,-21,994,-15,0,-6
3157,-8,-21,998,-15,0,-6
3158,-8,-21,1002,-15,1,-7
3159,-8,-21,995,-14,1,-5
3160,-5,-21,1001,-15,2,-5
3161,-6,-20,998,-15,0,-5
3162,-7,-21,995,-15,0,-7
3163,-6,-20,1000,-14,0,-6
3164,-7,-21,999,-15,1,-6
3165,-6,-24,995,-14,0,-7
3166,-4,-22,1002,-14,0,-5
3167,-6,-22,998,-14,2,-5
3168,-6,-21,994,-15,1,-6
3169,-7,-22,1002,-13,1,-5
3170,-8,-21,997,-14,1,-6
3171,-7,-21,994,-15,0,-6
3172,-5,-22,1002,-13,1,-6
3173,-6,-21,999,-14,0,-6
3174,-5,-22,993,-15,0,-5
3175,-7,-22,1002,-15,-1,-7
3176,-9,-22,998,-14,1,-6
3177,-6,-21,993,-14,1,-6
3178,-5,-22,1001,-14,1,-6
3179,-7,-22,998,-13,-1,-6
3180,-8,-20,992,-13,0,-6
3181,-7,-21,1000,-15,0,-6
3182,-7,-21,998,-15,-1,-6
3183,-5,-22,995,-15,2,-5
3184,-6,-21,1002,-16,2,-5
3185,-7,-21,1000,-16,0,-6
3186,-7,-21,994,-15,0,-6
3187,-8,-22,1002,-13,0,-7
3188,-7,-21,997,-13,1,-7
3189,-5,-21,993,-13,1,-7
3190,-5,-22,1001,-15,1,-7
3191,-7,-22,999,-13,1,-6
3192,-7,-22,994,-15,1,-6
3193,-7,-19,1001,-15,0,-5
3194,-6,-21,999,-14,1,-6
3195,-6,-21,994,-13,1,-6
3196,-4,-21,1001,-13,1,-6
3197,-7,-21,998,-14,0,-6
3198,-6,-21,995,-16,0,-6
3199,-7,-21,1001,-14,1,-6
3200,-7,-23,1001,-14,1,-6
3201,-6,-22,997,-12,0,-6
3202,-5,-22,1000,-14,1,-7
3203,-7,-23,998,-15,1,-7
3204,-6,-20,994,-14,1,-6
3205,-6,-21,998,-14,0,-6
3206,-7,-22,999,-15,1,-6
3207,-4,-22,997,-14,0,-5
3208,-6,-22,1000,-14,0,-7
3209,-7,-23,999,-14,0,-6
3210,-6,-21,995,-14,0,-6
3211,-5,-19,999,-14,2,-6
3212,-6,-21,999,-14,0,-6
3213,-7,-22,996,-14,0,-7
3214,-6,-21,999,-15,1,-6
3215,-6,-21,998,-14,1,-6
3216,-7,-20,996,-15,1,-6
3217,-7,-21,997,-14,2,-6
3218,-5,-22,999,-13,2,-6
3219,-6,-21,996,-13,2,-6
3220,-6,-21,998,-14,1,-6
3221,-4,-21,999,-14,2,-5
3222,-7,-21,997,-14,0,-5
3223,-7,-22,997,-15,1,-6
3224,-5,-22,998,-13,1,-6
3225,-7,-23,998,-13,1,-7
3226,-6,-22,998,-14,1,-7
3227,-6,-20,997,-15,1,-4
3228,-9,-21,996,-13,1,-5
3229,-6,-22,998,-13,0,-7
3230,-5,-21,997,-14,-1,-5
3231,-6,-21,998,-13,1,-6
3232,-6,-19,997,-15,1,-5
3233,-7,-20,998,-13,1,-6
3234,-8,-21,997,-15,0,-5
3235,-9,-22,998,-16,1,-6
3236,-7,-20,998,-14,1,-7
3237,-6,-20,998,-14,1,-6
3238,-6,-21,999,-13,1,-5
3239,-6,-21,998,-14,1,-6
3240,-7,-21,999,-14,0,-7
3241,-7,-20,996,-12,0,-6
3242,-6,-21,997,-15,0,-6
3243,-5,-21,998,-14,2,-5
3244,-7,-21,997,-14,2,-6
3245,-6,-22,998,-15,2,-6
3246,-7,-22,998,-14,0,-7
3247,-6,-23,997,-15,0,-6
3248,-8,-21,999,-12,0,-7
3249,-7,-22,998,-14,0,-6
3250,-5,-23,998,-16,1,-5
3251,-6,-22,998,-15,1,-6
3252,-6,-21,997,-15,1,-7
3253,-7,-19,998,-15,1,-6
3254,-7,-20,996,-14,1,-5
3255,-6,-21,998,-14,1,-6
3256,-8,-20,998,-14,2,-5
3257,-6,-21,1000,-13,0,-5
3258,-7,-21,999,-15,1,-7
3259,-6,-22,998,-15,1,-6
3260,-5,-22,997,-13,1,-5
3261,-4,-21,999,-12,2,-5
3262,-4,-22,998,-14,1,-6
3263,-5,-22,996,-14,2,-6
3264,-6,-21,998,-14,1,-6
3265,-6,-22,997,-14,0,-6
3266,-6,-20,998,-14,0,-6
3267,-6,-20,998,-13,0,-6
3268,-7,-23,998,-15,0,-7
3269,-7,-22,998,-13,1,-7
3270,-6,-21,1000,-14,0,-6
3271,-6,-21,996,-15,0,-6
3272,-6,-21,998,-15,1,-6
3273,-5,-20,1000,-14,1,-6
3274,-7,-22,995,-14,0,-6
3275,-6,-21,1000,-14,0,-6
3276,-6,-22,999,-15,0,-7
3277,-7,-21,997,-15,0,-6
3278,-5,-21,1000,-14,1,-6
3279,-8,-21,998,-16,1,-6
3280,-6,-21,998,-15,1,-6
3281,-6,-20,1000,-13,1,-7
3282,-6,-21,997,-15,0,-6
3283,-6,-19,997,-14,1,-6
3284,-6,-21,1002,-13,1,-7
3285,-7,-21,996,-14,2,-7
3286,-5,-21,997,-14,1,-6
3287,-7,-21,999,-14,2,-5
3288,-6,-20,996,-13,1,-5
3289,-6,-22,997,-12,1,-5
3290,-6,-21,1001,-14,1,-5
3291,-8,-22,996,-15,0,-6
3292,-7,-20,996,-13,0,-7
3293,-7,-21,1000,-12,0,-6
3294,-8,-20,995,-14,-1,-6
3295,-7,-21,999,-14,0,-7
3296,-7,-22,999,-14,0,-5
3297,-4,-22,995,-14,0,-6
3298,-7,-23,998,-15,1,-6
3299,-7,-22,999,-12,0,-6
3300,-6,-22,997,-14,0,-6
3301,-9,-20,998,-14,1,-6
3302,-6,-19,999,-15,1,-4
3303,-6,-19,997,-13,2,-6
3304,-6,-22,998,-15,2,-6
3305,-7,-21,998,-15,3,-6
3306,-6,-20,997,-14,1,-6
3307,-6,-19,998,-16,0,-7
3308,-7,-20,997,-13,1,-6
3309,-7,-22,998,-14,1,-6
3310,-6,-25,999,-14,1,-5
3311,-6,-22,999,-14,0,-6
3312,-8,-20,998,-14,0,-7
3313,-4,-22,997,-13,2,-7
3314,-7,-21,998,-14,1,-6
3315,-6,-22,997,-12,0,-5
3316,-6,-21,998,-13,0,-6
3317,-10,-20,998,-15,2,-5
3318,-7,-21,997,-14,1,-6
3319,-9,-21,998,-14,2,-7
3320,-6,-21,998,-14,0,-6
3321,-7,-20,999,-14,1,-6
3322,-3,-22,997,-15,1,-7
3323,-8,-21,998,-15,1,-5
3324,-6,-21,998,-13,0,-6
3325,-6,-20,997,-14,0,-6
3326,-6,-22,998,-14,-1,-7
3327,-7,-22,998,-14,1,-7
3328,-5,-23,997,-14,2,-6
3329,-6,-22,997,-14,1,-6
3330,-7,-21,997,-13,1,-6
3331,-8,-22,996,-13,1,-6
3332,-7,-22,997,-13,1,-6
3333,-7,-22,998,-15,0,-6
3334,-7,-21,997,-16,1,-6
3335,-5,-21,997,-14,1,-7
3336,-6,-22,998,-13,1,-7
3337,-6,-22,997,-14,1,-6
3338,-8,-21,1000,-13,2,-5
3339,-7,-22,998,-13,2,-4
3340,-6,-23,995,-15,2,-5
3341,-5,-22,1001,-14,1,-7
3342,-7,-21,998,-15,1,-6
3343,-8,-21,996,-15,0,-7
3344,-8,-21,999,-15,2,-6
3345,-8,-20,997,-15,0,-6
3346,-8,-23,994,-14,0,-6
3347,-6,-22,1001,-13,0,-6
3348,-6,-22,999,-15,1,-6
3349,-7,-22,994,-13,1,-6
3350,-6,-21,1000,-14,1,-6
3351,-7,-21,998,-15,0,-6
3352,-6,-21,993,-15,2,-6
3353,-6,-20,999,-14,0,-5
3354,-7,-21,999,-15,0,-6
3355,-7,-21,993,-13,1,-6
3356,-6,-22,1000,-14,0,-6
3357,-6,-21,1000,-13,0,-7
3358,-4,-21,994,-13,-1,-6
3359,-5,-21,998,-13,1,-5
3360,-5,-21,1000,-13,0,-5
3361,-7,-20,995,-15,1,-6
3362,-7,-22,997,-16,1,-6
3363,-6,-22,1002,-14,1,-5
3364,-6,-22,995,-14,0,-6
3365,-6,-22,996,-13,0,-7
3366,-7,-21,1002,-13,1,-6
3367,-8,-22,998,-14,1,-7
3368,-7,-21,998,-14,1,-6
3369,-7,-22,1000,-15,-1,-5
3370,-7,-22,998,-15,0,-5
3371,-7,-23,996,-14,0,-6
3372,-6,-22,1001,-15,1,-7
3373,-6,-21,997,-12,0,-6
3374,-5,-21,997,-9,0,-6
3375,-8,-20,1001,-10,-4,-8
3376,-7,-22,998,-5,1,-6
3377,-6,-20,996,-13,2,-6
3378,-5,-22,998,-15,1,-7
3379,-5,-23,999,-14,1,-7
3380,-6,-22,997,-13,0,-7
3381,-7,-23,999,-15,1,-6
3382,-6,-23,1000,-14,1,-6
3383,-5,-22,996,-15,1,-6
3384,-5,-21,996,-13,1,-5
3385,-6,-22,998,-14,1,-6
3386,-6,-20,998,-15,1,-6
3387,-5,-21,996,-13,2,-6
3388,-6,-23,1000,-14,4,-6
3389,-6,-20,997,-13,1,-6
3390,-6,-20,996,-14,-1,-6
3391,-5,-22,1000,-15,0,-7
3392,-8,-21,999,-14,2,-6
3393,-8,-20,996,-14,2,-5
3394,-7,-22,997,-13,0,-5
3395,-5,-22,998,-13,1,-5
3396,-6,-23,996,-13,1,-6
3397,-7,-23,997,-15,1,-6
3398,-7,-22,999,-15,0,-6
3399,-8,-19,999,-15,1,-6
3400,-8,-22,999,-15,1,-6
3401,-7,-21,998,-14,1,-7
3402,-6,-21,997,-14,0,-7
3403,-8,-20,998,-13,1,-7
3404,-7,-21,998,-15,0,-6
3405,-7,-20,997,-15,1,-7
3406,-8,-21,996,-14,1,-5
3407,-7,-22,997,-14,0,-6
3408,-6,-22,998,-14,0,-6
3409,-7,-21,999,-14,0,-8
3410,-6,-21,999,-14,1,-6
3411,-7,-21,997,-14,0,-6
3412,-7,-21,997,-16,0,-7
3413,-5,-20,997,-16,0,-6
3414,-6,-22,997,-15,-1,-6
3415,-6,-20,997,-15,1,-6
3416,-6,-21,999,-13,0,-6
3417,-8,-22,998,-14,1,-6
3418,-7,-20,998,-14,2,-7
3419,-6,-22,997,-13,1,-7
3420,-5,-20,999,-15,1,-6
3421,-7,-21,999,-13,1,-6
3422,-5,-22,998,-13,1,-7
3423,-6,-22,1000,-13,-1,-7
3424,-7,-23,997,-13,0,-7
3425,-6,-22,998,-13,2,-7
3426,-4,-21,996,-14,0,-6
3427,-8,-21,997,-15,1,-6
3428,-8,-21,998,-15,0,-6
3429,-7,-22,998,-14,1,-6
3430,-8,-20,999,-14,1,-6
3431,-6,-22,1000,-14,2,-6
3432,-6,-21,998,-15,1,-7
3433,-6,-22,998,-14,1,-7
3434,-7,-22,998,-15,0,-6
3435,-8,-21,998,-15,0,-6
3436,-7,-22,999,-13,1,-6
3437,-5,-19,999,-14,-1,-7
3438,-6,-22,997,-14,2,-7
3439,-7,-21,999,-14,1,-6
3440,-7,-21,999,-12,0,-7
3441,-7,-22,996,-14,0,-7
3442,-7,-20,999,-14,2,-7
3443,-6,-23,997,-15,1,-6
3444,-5,-23,997,-14,1,-6
3445,-4,-21,997,-14,0,-6
3446,-6,-21,997,-15,1,-7
3447,-5,-20,999,-14,1,-6
3448,-6,-21,998,-12,1,-6
3449,-6,-21,997,-14,0,-6
3450,-6,-23,998,-14,0,-6
3451,-6,-20,996,-14,1,-6
3452,-6,-22,997,-15,1,-6
3453,-8,-21,998,-13,0,-5
3454,-6,-20,997,-15,0,-5
3455,-5,-20,997,-15,1,-5
3456,-6,-22,999,-13,1,-5
3457,-6,-20,996,-14,2,-5
3458,-5,-22,996,-12,1,-6
3459,-8,-21,997,-13,1,-7
3460,-6,-20,997,-14,1,-6
3461,-7,-21,999,-13,1,-6
3462,-6,-19,997,-14,2,-6
3463,-8,-20,999,-13,1,-6
3464,-8,-21,999,-12,0,-7
3465,-7,-22,997,-14,1,-6
3466,-6,-21,1000,-14,1,-6
3467,-8,-20,999,-14,1,-6
3468,-6,-20,998,-16,2,-6
3469,-7,-21,1000,-14,1,-6
3470,-6,-21,999,-14,2,-6
3471,-8,-23,998,-13,1,-6
3472,-7,-21,1000,-15,1,-6
3473,-6,-20,997,-15,1,-5
3474,-7,-21,997,-15,0,-5
3475,-7,-20,1000,-14,1,-5
3476,-5,-21,996,-14,2,-5
3477,-5,-21,999,-13,1,-7
3478,-7,-21,1000,-15,1,-7
3479,-6,-21,996,-14,0,-7
3480,-6,-22,998,-15,0,-6
3481,-6,-22,998,-15,1,-6
3482,-6,-20,997,-13,0,-6
3483,-6,-20,1000,-13,-1,-7
3484,-6,-21,998,-13,-1,-8
3485,-6,-22,996,-14,0,-7
3486,-5,-22,1000,-14,1,-6
3487,-7,-20,996,-14,2,-5
3488,-9,-21,998,-13,0,-6
3489,-6,-19,999,-13,1,-6
3490,-5,-21,996,-14,0,-6
3491,-7,-22,998,-14,-1,-6
3492,-6,-21,1000,-13,0,-4
3493,-6,-22,996,-15,1,-6
3494,-6,-21,999,-12,1,-6
3495,-6,-22,999,-14,0,-6
3496,-7,-22,997,-14,1,-6
3497,-8,-21,999,-15,1,-6
3498,-6,-22,998,-13,1,-6
3499,-6,-21,996,-14,0,-7
3500,-7,-21,1000,-13,1,-6
3501,-8,-20,998,-13,0,-6
3502,-7,-21,998,-14,1,-6
3503,-7,-20,999,-14,1,-7
3504,-7,-21,997,-14,1,-7
3505,-7,-20,998,-13,0,-7
3506,-7,-20,998,-14,1,-6
3507,-7,-21,996,-14,0,-7
3508,-6,-22,998,-14,0,-6
3509,-9,-21,999,-14,1,-6
3510,-6,-19,996,-14,1,-5
3511,-8,-19,1000,-15,0,-6
3512,-8,-21,996,-14,0,-6
3513,-6,-21,998,-15,0,-6
3514,-5,-21,999,-15,1,-7
3515,-7,-20,996,-13,1,-7
3516,-5,-21,998,-14,1,-6
3517,-7,-20,999,-15,1,-6
3518,-6,-20,994,-14,1,-6
3519,-6,-22,998,-15,2,-7
3520,-8,-21,997,-13,2,-6
3521,-8,-21,996,-15,1,-6
3522,-7,-22,999,-13,1,-7
3523,-8,-22,998,-14,0,-6
3524,-5,-21,997,-14,0,-6
3525,-5,-20,999,-14,0,-6
3526,-7,-20,996,-16,2,-6
3527,-8,-21,1000,-16,1,-6
3528,-8,-19,998,-15,0,-6
3529,-6,-20,996,-15,2,-7
3530,-7,-22,999,-14,1,-6
3531,-7,-22,998,-15,0,-6
3532,-7,-20,996,-13,0,-6
3533,-5,-21,1000,-14,2,-6
3534,-6,-21,997,-15,1,-5
3535,-5,-22,995,-15,1,-5
3536,-8,-23,999,-15,1,-6
3537,-5,-21,996,-15,2,-7
3538,-5,-22,996,-13,2,-7
3539,-9,-21,1000,-14,2,-5
3540,-5,-21,997,-15,1,-5
3541,-5,-20,997,-13,2,-6
3542,-6,-20,999,-14,1,-6
3543,-7,-21,997,-13,1,-6
3544,-7,-20,998,-15,1,-6
3545,-5,-20,999,-14,1,-6
3546,-6,-22,996,-13,2,-6
3547,-6,-21,999,-15,2,-5
3548,-6,-19,997,-14,1,-6
3549,-5,-21,995,-15,1,-7
3550,-5,-22,1001,-14,0,-8
3551,-6,-19,997,-14,1,-6
3552,-6,-21,997,-14,1,-7
3553,-7,-22,999,-14,2,-6
3554,-7,-22,996,-13,1,-6
3555,-6,-21,1000,-13,1,-6
3556,-5,-22,1001,-13,1,-7
3557,-7,-21,997,-14,0,-7
3558,-6,-21,998,-14,1,-6
3559,-7,-21,1000,-14,2,-6
3560,-6,-23,994,-15,1,-6
3561,-7,-22,998,-13,0,-6
3562,-8,-20,998,-13,0,-6
3563,-5,-21,995,-12,1,-5
3564,-5,-20,1000,-14,1,-5
3565,-7,-21,998,-13,2,-6
3566,-5,-21,995,-14,2,-7
3567,-6,-20,1000,-14,1,-6
3568,-6,-21,996,-14,1,-6
3569,-6,-22,996,-15,0,-6
3570,-5,-24,1001,-15,0,-6
3571,-5,-21,997,-14,0,-6
3572,-8,-22,996,-15,2,-6
3573,-8,-21,1002,-14,1,-5
3574,-8,-22,995,-14,1,-6
3575,-7,-21,997,-15,1,-6
3576,-9,-22,1004,-13,0,-6
3577,-6,-21,995,-14,1,-7
3578,-5,-21,997,-14,1,-6
3579,-6,-22,1002,-13,1,-6
3580,-6,-21,995,-14,0,-5
3581,-7,-23,998,-14,1,-6
3582,-6,-21,1003,-13,2,-6
3583,-6,-21,997,-15,0,-6
3584,-6,-20,998,-15,0,-6
3585,-6,-21,1001,-13,1,-6
3586,-9,-22,996,-13,0,-6
3587,-7,-21,995,-15,0,-6
3588,-6,-22,1000,-14,0,-7
3589,-9,-21,997,-14,2,-7
3590,-7,-21,997,-13,0,-7
3591,-7,-21,1000,-14,1,-6
3592,-7,-22,996,-14,1,-5
3593,-6,-23,996,-15,1,-6
3594,-7,-22,999,-15,1,-7
3595,-6,-23,998,-15,0,-6
3596,-6,-19,997,-14,0,-6
3597,-8,-21,1000,-13,0,-7
3598,-7,-22,998,-14,1,-6
3599,-7,-21,998,-14,0,-5
3600,-6,-20,998,-13,-1,-6
3601,-6,-20,997,-14,1,-6
3602,-7,-20,997,-13,2,-5
3603,-8,-22,998,-15,1,-6
3604,-6,-22,996,-15,2,-4
3605,-6,-21,998,-15,1,-5
3606,-7,-22,999,-15,1,-5
3607,-6,-22,999,-12,1,-6
3608,-6,-21,997,-15,0,-7
3609,-6,-21,998,-14,1,-6
3610,-5,-22,998,-13,0,-7
3611,-8,-21,999,-13,2,-6
3612,-9,-20,998,-13,1,-6
3613,-7,-20,1000,-15,0,-7
3614,-5,-22,998,-14,0,-6
3615,-7,-21,998,-15,1,-6
3616,-8,-20,999,-13,0,-6
3617,-6,-20,998,-14,0,-7
3618,-5,-21,998,-14,1,-6
3619,-7,-22,1000,-13,1,-6
3620,-7,-21,998,-13,0,-7
3621,-5,-23,998,-14,0,-6
3622,-6,-22,998,-14,2,-6
3623,-5,-20,998,-15,1,-7
3624,-7,-20,998,-14,-1,-7
3625,-7,-23,999,-13,0,-6
3626,-7,-22,998,-13,1,-6
3627,-7,-22,999,-14,1,-7
3628,-7,-21,998,-15,-1,-6
3629,-7,-20,997,-13,0,-6
3630,-5,-22,997,-14,1,-6
3631,-7,-22,999,-15,1,-7
3632,-8,-20,997,-14,0,-6
3633,-7,-23,998,-13,1,-6
3634,-6,-21,997,-15,1,-7
3635,-6,-21,998,-15,0,-7
3636,-6,-22,998,-14,0,-5
3637,-5,-22,997,-14,1,-5
3638,-7,-21,997,-15,1,-7
3639,-6,-21,998,-14,0,-6
3640,-6,-22,998,-15,1,-6
3641,-5,-21,998,-14,2,-6
3642,-5,-20,998,-14,1,-7
3643,-6,-20,999,-16,2,-5
3644,-7,-21,998,-15,1,-5
3645,-5,-21,998,-14,2,-5
3646,-5,-21,998,-13,1,-6
3647,-6,-19,998,-15,0,-7
3648,-6,-21,998,-14,1,-7
3649,-6,-22,998,-14,1,-6
3650,-8,-20,998,-14,1,-6
3651,-7,-22,998,-14,2,-6
3652,-7,-21,998,-13,0,-6
3653,-8,-21,998,-14,1,-7
3654,-8,-22,998,-14,0,-6
3655,-7,-23,998,-15,1,-6
3656,-7,-23,997,-15,1,-6
3657,-5,-20,999,-14,2,-6
3658,-8,-22,998,-14,2,-7
3659,-9,-21,999,-14,1,-6
3660,-6,-20,999,-13,1,-5
3661,-8,-23,998,-13,1,-7
3662,-6,-22,998,-13,2,-6
3663,-6,-21,998,-15,1,-7
3664,-6,-21,999,-14,1,-6
3665,-5,-22,997,-13,2,-7
3666,-5,-22,998,-15,0,-6
3667,-7,-21,998,-13,2,-6
3668,-7,-21,998,-15,1,-6
3669,-7,-21,998,-14,1,-7
3670,-6,-23,998,-14,2,-5
3671,-6,-20,997,-14,0,-5
3672,-5,-23,998,-13,1,-6
3673,-5,-21,998,-14,1,-6
3674,-6,-22,998,-14,1,-6
3675,-5,-23,999,-14,2,-7
3676,-6,-22,998,-14,1,-6
3677,-6,-22,998,-16,0,-5
3678,-7,-22,998,-15,0,-6
3679,-7,-21,997,-14,0,-6
3680,-8,-20,999,-15,2,-6
3681,-7,-22,1000,-14,1,-6
3682,-6,-21,999,-14,1,-7
3683,-7,-22,998,-13,1,-6
3684,-6,-21,998,-13,1,-6
3685,-7,-20,998,-15,1,-6
3686,-7,-24,998,-16,0,-6
3687,-9,-21,998,-16,1,-5
3688,-6,-22,997,-15,2,-5
3689,-7,-21,998,-14,1,-6
3690,-8,-20,999,-15,1,-6
3691,-8,-20,999,-15,1,-6
3692,-5,-20,999,-15,1,-6
3693,-7,-21,998,-14,2,-6
3694,-5,-21,998,-14,2,-6
3695,-8,-21,999,-12,1,-7
3696,-7,-22,999,-13,0,-6
3697,-5,-21,998,-16,0,-7
3698,-6,-21,997,-14,2,-6
3699,-7,-22,998,-15,1,-6
3700,-6,-22,998,-13,1,-6
3701,-6,-21,1000,-15,0,-6
3702,-6,-20,1000,-15,0,-6
3703,-5,-23,1000,-14,0,-7
3704,-7,-21,998,-13,1,-6
3705,-7,-22,999,-14,2,-6
3706,-5,-21,998,-14,1,-6
3707,-7,-21,997,-14,1,-6
3708,-5,-21,997,-13,2,-6
3709,-6,-21,998,-12,2,-6
3710,-6,-22,999,-15,0,-6
3711,-6,-21,997,-15,1,-6
3712,-8,-22,997,-13,1,-6
3713,-9,-21,997,-14,0,-6
3714,-6,-22,998,-14,1,-7
3715,-7,-22,998,-13,0,-6
3716,-6,-22,998,-14,1,-5
3717,-6,-22,996,-14,0,-5
3718,-4,-21,998,-14,0,-7
3719,-7,-21,998,-14,0,-6
3720,-7,-21,998,-13,1,-6
3721,-6,-21,999,-14,1,-7
3722,-6,-22,996,-15,1,-6
3723,-6,-21,999,-14,1,-7
3724,-8,-21,998,-16,0,-6
3725,-7,-20,999,-15,0,-6
3726,-5,-21,999,-14,0,-5
3727,-5,-21,999,-14,1,-6
3728,-6,-20,998,-14,2,-6
3729,-6,-21,999,-14,0,-6
3730,-6,-22,997,-14,1,-7
3731,-6,-23,998,-14,0,-6
3732,-6,-22,998,-15,1,-7
3733,-8,-22,997,-14,2,-6
3734,-8,-22,998,-14,0,-6
3735,-8,-22,997,-13,2,-6
3736,-5,-20,998,-14,1,-6
3737,-5,-22,998,-13,2,-5
3738,-7,-22,998,-13,1,-6
3739,-7,-22,998,-15,0,-6
3740,-8,-22,998,-14,1,-6
3741,-6,-21,998,-14,2,-6
3742,-7,-22,997,-13,2,-5
3743,-8,-22,998,-13,1,-7
3744,-7,-20,998,-13,1,-6
3745,-6,-22,995,-13,2,-6
3746,-6,-20,997,-14,2,-7
3747,-6,-19,999,-14,2,-6
3748,-6,-21,998,-14,0,-7
3749,-6,-21,996,-13,1,-6
3750,-8,-21,998,-14,1,-7
3751,-5,-22,998,-14,1,-6
3752,-7,-20,998,-13,2,-7
3753,-6,-22,999,-14,0,-7
3754,-6,-23,999,-14,0,-6
3755,-5,-21,998,-14,0,-5
3756,-6,-20,997,-14,0,-6
3757,-7,-21,998,-13,2,-5
3758,-6,-21,997,-14,1,-7
3759,-5,-22,998,-13,1,-6
3760,-5,-22,999,-14,1,-5
3761,-8,-20,998,-15,0,-4
3762,-7,-22,1000,-15,0,-5
3763,-7,-20,998,-13,1,-7
3764,-6,-21,998,-14,1,-6
3765,-6,-22,997,-13,2,-6
3766,-6,-21,998,-14,1,-5
3767,-6,-20,998,-14,-1,-6
3768,-5,-21,998,-14,0,-6
3769,-5,-20,997,-15,-1,-6
3770,-7,-21,999,-14,0,-6
3771,-9,-21,1000,-14,1,-6
3772,-7,-22,997,-14,-1,-6
3773,-7,-24,998,-14,1,-6
3774,-6,-23,1000,-16,1,-5
3775,-6,-22,996,-14,1,-7
3776,-6,-21,998,-16,2,-6
3777,-7,-21,999,-13,1,-7
3778,-5,-22,998,-13,0,-7
3779,-5,-19,997,-14,1,-5
3780,-9,-21,999,-15,1,-6
3781,-7,-23,1000,-14,-1,-6
3782,-8,-23,996,-12,1,-5
3783,-9,-22,999,-14,0,-7
3784,-6,-21,1000,-14,1,-7
3785,-7,-23,999,-14,0,-6
3786,-7,-21,998,-14,0,-6
3787,-6,-21,999,-13,0,-6
3788,-4,-22,998,-13,2,-7
3789,-8,-21,996,-15,2,-5
3790,-7,-22,996,-15,1,-6
3791,-6,-21,1000,-15,0,-7
3792,-5,-21,998,-15,1,-5
3793,-4,-22,997,-14,2,-6
3794,-5,-22,998,-14,1,-5
3795,-6,-20,999,-15,0,-5
3796,-6,-22,997,-14,0,-6
3797,-7,-21,996,-15,0,-5
3798,-7,-21,1000,-13,0,-6
3799,-6,-21,999,-14,0,-6
3800,-7,-20,998,-14,0,-6
3801,-8,-20,998,-15,1,-6
3802,-8,-22,999,-16,2,-6
3803,-7,-23,997,-13,1,-6
3804,-7,-22,998,-14,1,-6
3805,-9,-21,997,-14,2,-6
3806,-6,-22,998,-13,1,-5
3807,-7,-22,998,-15,1,-6
3808,-7,-21,997,-14,0,-7
3809,-7,-21,999,-16,1,-6
3810,-7,-22,999,-15,1,-6
3811,-8,-22,997,-13,1,-5
3812,-8,-20,996,-15,2,-5
3813,-6,-21,998,-14,1,-6
3814,-7,-22,998,-13,1,-6
3815,-4,-20,997,-14,1,-7
3816,-4,-21,998,-14,2,-6
3817,-7,-21,999,-13,2,-6
3818,-7,-21,998,-15,0,-6
3819,-5,-20,998,-13,1,-7
3820,-7,-20,999,-13,-1,-7
3821,-7,-21,999,-14,0,-8
3822,-7,-22,995,-15,0,-6
3823,-5,-22,998,-14,1,-5
3824,-6,-21,999,-14,1,-7
3825,-7,-22,997,-14,1,-6
3826,-6,-22,999,-15,1,-6
3827,-7,-22,1000,-14,-1,-6
3828,-6,-22,998,-15,-1,-7
3829,-6,-23,996,-13,1,-7
3830,-7,-20,999,-15,0,-7
3831,-5,-21,998,-14,0,-8
3832,-6,-20,996,-13,0,-7
3833,-7,-22,1000,-14,0,-6
3834,-8,-20,1001,-13,0,-6
3835,-8,-20,995,-14,0,-6
3836,-6,-21,998,-14,-1,-6
3837,-6,-20,1001,-13,1,-5
3838,-6,-20,997,-14,1,-6
3839,-7,-22,997,-14,0,-5
3840,-6,-21,1001,-13,1,-6
3841,-5,-21,996,-14,1,-6
3842,-7,-20,995,-14,1,-5
3843,-7,-23,1001,-15,0,-5
3844,-6,-22,997,-14,0,-6
3845,-6,-21,996,-14,0,-7
3846,-5,-21,999,-14,2,-7
3847,-6,-20,998,-14,1,-6
3848,-6,-21,996,-14,0,-6
3849,-6,-22,999,-13,0,-7
3850,-5,-21,998,-14,1,-7
3851,-7,-20,996,-15,0,-6
3852,-6,-23,998,-14,0,-6
3853,-6,-23,1000,-15,1,-6
3854,-6,-21,995,-14,2,-6
3855,-7,-21,999,-14,1,-5
3856,-7,-23,999,-14,0,-6
3857,-6,-21,996,-14,1,-6
3858,-7,-20,999,-15,2,-6
3859,-7,-22,998,-14,1,-6
3860,-8,-22,996,-14,0,-7
3861,-7,-20,999,-13,1,-7
3862,-8,-21,999,-14,-1,-6
3863,-7,-21,995,-14,0,-6
3864,-6,-21,997,-14,1,-6
3865,-8,-22,998,-14,0,-7
3866,-5,-22,996,-15,0,-7
3867,-5,-21,999,-14,0,-7
3868,-5,-22,998,-15,1,-6
3869,-7,-20,997,-14,2,-6
3870,-8,-20,1000,-13,1,-5
3871,-8,-22,998,-13,2,-5
3872,-8,-23,996,-14,1,-5
3873,-6,-22,998,-15,1,-4
3874,-5,-21,998,-13,2,-5
3875,-6,-22,1000,-13,0,-7
3876,-7,-20,998,-13,1,-6
3877,-7,-23,1000,-13,1,-6
3878,-7,-20,998,-13,1,-6
3879,-5,-22,1000,-15,0,-7
3880,-6,-21,999,-13,-1,-8
3881,-8,-21,998,-14,0,-6
3882,-6,-21,999,-14,0,-6
3883,-6,-20,997,-14,-1,-6
3884,-5,-22,998,-16,1,-6
3885,-8,-23,997,-15,0,-6
3886,-6,-20,998,-17,-2,-7
3887,-6,-20,997,-13,1,-6
3888,-7,-20,998,-14,1,-5
3889,-5,-22,999,-16,0,-6
3890,-7,-22,996,-15,0,-6
3891,-8,-21,997,-15,1,-6
3892,-8,-22,998,-15,2,-5
3893,-6,-22,997,-14,0,-5
3894,-6,-21,999,-16,1,-5
3895,-7,-22,999,-15,0,-6
3896,-7,-22,996,-15,1,-5
3897,-5,-19,997,-14,1,-6
3898,-7,-20,999,-14,1,-7
3899,-6,-21,995,-13,2,-5
3900,-7,-23,998,-14,2,-6
3901,-7,-21,999,-13,1,-7
3902,-4,-21,998,-14,0,-5
3903,-5,-23,997,-14,-1,-6
3904,-6,-22,1000,-13,1,-6
3905,-8,-20,1000,-14,1,-6
3906,-6,-19,995,-15,0,-7
3907,-5,-21,998,-14,1,-6
3908,-6,-21,999,-15,1,-6
3909,-7,-21,998,-13,1,-7
3910,-6,-20,998,-14,0,-6
3911,-6,-21,997,-14,1,-6
3912,-5,-20,999,-13,0,-7
3913,-7,-21,997,-14,1,-5
3914,-6,-22,995,-15,1,-6
3915,-6,-22,999,-14,1,-5
3916,-5,-21,999,-15,1,-6
3917,-7,-20,997,-14,-1,-7
3918,-6,-21,997,-15,1,-6
3919,-5,-21,997,-11,1,-7
3920,-7,-22,997,-14,1,-6
3921,-5,-20,999,-14,1,-7
3922,-6,-21,997,-13,0,-7
3923,-7,-21,998,-14,2,-6
3924,-6,-20,997,-15,1,-6
3925,-5,-21,995,-13,1,-6
3926,-6,-23,998,-15,2,-6
3927,-6,-22,998,-14,1,-6
3928,-7,-22,998,-14,1,-5
3929,-6,-22,996,-13,2,-5
3930,-8,-21,1000,-15,1,-6
3931,-4,-23,998,-13,1,-6
3932,-6,-20,998,-13,1,-6
3933,-6,-21,997,-14,0,-6
3934,-5,-23,998,-14,1,-5
3935,-6,-20,998,-14,0,-7
3936,-7,-21,998,-16,1,-6
3937,-5,-20,999,-14,1,-6
3938,-6,-24,1000,-15,2,-5
3939,-8,-23,997,-15,0,-6
3940,-6,-22,997,-14,-1,-7
3941,-5,-22,1000,-14,-1,-6
3942,-5,-22,998,-15,0,-7
3943,-6,-23,995,-14,0,-6
3944,-5,-21,996,-14,0,-5
3945,-6,-22,999,-15,2,-5
3946,-7,-20,997,-14,1,-7
3947,-7,-21,998,-14,1,-6
3948,-6,-21,999,-13,1,-5
3949,-7,-22,996,-13,1,-5
3950,-7,-23,996,-13,1,-6
3951,-7,-21,999,-15,1,-6
3952,-9,-21,999,-13,1,-7
3953,-8,-22,995,-14,1,-7
3954,-6,-22,999,-15,0,-5
3955,-6,-21,1000,-14,1,-6
3956,-7,-19,995,-14,1,-6
3957,-6,-22,999,-14,1,-5
3958,-7,-21,999,-14,0,-7
3959,-6,-22,997,-14,0,-6
3960,-8,-23,996,-15,1,-5
3961,-7,-21,1000,-14,0,-5
3962,-8,-23,997,-15,0,-6
3963,-8,-22,996,-15,1,-6
3964,-7,-21,1000,-15,1,-6
3965,-8,-21,998,-15,1,-6
3966,-7,-21,996,-15,1,-7
3967,-5,-23,999,-15,2,-5
3968,-6,-22,999,-14,2,-5
3969,-8,-21,996,-14,1,-7
3970,-6,-20,998,-14,1,-5
3971,-8,-21,1000,-15,1,-6
3972,-9,-21,998,-14,1,-6
3973,-7,-22,998,-15,2,-6
3974,-8,-22,1002,-15,1,-6
3975,-6,-21,996,-13,0,-6
3976,-7,-22,996,-13,0,-6
3977,-7,-21,999,-13,2,-6
3978,-5,-22,998,-16,1,-6
3979,-6,-20,996,-15,0,-5
3980,-7,-22,999,-14,1,-5
3981,-8,-21,1000,-12,0,-5
3982,-7,-21,995,-15,1,-6
3983,-8,-22,998,-15,2,-5
3984,-7,-22,999,-13,1,-7
3985,-7,-21,998,-14,1,-7
3986,-6,-21,998,-14,1,-7
3987,-7,-21,1000,-13,1,-6
3988,-6,-20,997,-13,1,-6
3989,-4,-22,996,-14,1,-6
3990,-6,-23,997,-14,1,-6
3991,-8,-21,1000,-14,0,-7
3992,-7,-21,998,-15,1,-5
3993,-7,-22,996,-13,1,-7
3994,-6,-21,1000,-14,0,-6
3995,-7,-20,999,-14,1,-7
3996,-7,-20,997,-13,0,-7
3997,-7,-22,998,-14,2,-6
3998,-8,-21,998,-13,1,-6
3999,-7,-22,997,-14,1,-7
4000,-8,-22,998,-14,1,-7
4001,-5,-21,998,-15,1,-5
4002,-5,-21,999,-14,0,-5
4003,-7,-20,997,-15,1,-5
4004,-6,-22,999,-14,0,-6
4005,-7,-22,998,-15,1,-6
4006,-8,-22,998,-15,1,-5
4007,-6,-21,998,-12,2,-6
4008,-5,-22,999,-14,1,-7
4009,-7,-21,999,-14,1,-6
4010,-7,-21,997,-14,1,-5
4011,-8,-22,996,-14,1,-6
4012,-7,-20,999,-15,1,-6
4013,-8,-22,998,-15,2,-6
4014,-8,-21,999,-13,1,-6
4015,-6,-22,998,-13,1,-6
4016,-8,-21,1000,-14,1,-5
4017,-6,-21,997,-14,0,-5
4018,-6,-22,998,-13,-1,-7
4019,-6,-22,999,-14,0,-7
4020,-6,-21,998,-13,1,-5
4021,-6,-20,997,-14,0,-7
4022,-6,-20,997,-15,0,-5
4023,-8,-19,998,-15,0,-6
4024,-7,-22,999,-14,0,-6
4025,-6,-20,996,-13,0,-7
4026,-8,-20,996,-14,0,-7
4027,-8,-23,999,-14,2,-6
4028,-4,-22,998,-14,1,-5
4029,-6,-20,998,-16,1,-4
4030,-7,-22,997,-14,1,-6
4031,-7,-20,999,-14,0,-6
4032,-7,-21,997,-15,0,-6
4033,-6,-20,997,-14,1,-6
4034,-7,-21,998,-15,0,-6
4035,-7,-20,998,-15,0,-6
4036,-6,-21,999,-15,-1,-6
4037,-8,-21,997,-15,1,-7
4038,-7,-24,999,-15,0,-7
4039,-7,-20,998,-14,1,-6
4040,-7,-20,998,-14,2,-6
4041,-7,-20,999,-14,1,-7
4042,-6,-20,998,-14,1,-5
4043,-7,-20,997,-14,1,-5
4044,-7,-22,997,-14,0,-6
4045,-6,-20,999,-14,1,-6
4046,-4,-22,999,-13,1,-6
4047,-6,-23,997,-14,2,-7
4048,-7,-21,997,-15,1,-6
4049,-8,-23,998,-13,0,-5
4050,-4,-21,998,-14,1,-6
4051,-6,-19,998,-9,-4,-9
4052,-6,-23,998,-12,0,-6
4053,-7,-23,998,-15,0,-6
4054,-6,-21,998,-12,1,-7
4055,-5,-20,997,-17,1,-6
4056,-6,-21,998,-13,2,-7
4057,-5,-21,998,-15,0,-6
4058,-6,-22,996,-15,0,-6
4059,-7,-20,998,-13,1,-5
4060,-7,-22,1001,-15,0,-6
4061,-6,-22,997,-14,1,-6
4062,-5,-20,997,-13,0,-6
4063,-7,-21,998,-13,0,-7
4064,-5,-20,997,-15,0,-7
4065,-8,-20,996,-14,0,-6
4066,-5,-23,997,-13,1,-6
4067,-6,-20,999,-13,1,-7
4068,-6,-21,998,-12,0,-5
4069,-6,-21,997,-13,0,-6
4070,-7,-21,999,-14,0,-5
4071,-6,-22,1002,-13,1,-6
4072,-6,-20,997,-14,1,-7
4073,-7,-21,999,-14,0,-6
4074,-5,-20,998,-13,1,-7
4075,-6,-21,997,-16,1,-6
4076,-8,-21,997,-15,1,-6
4077,-8,-21,999,-14,0,-7
4078,-7,-23,1000,-14,1,-6
4079,-8,-22,995,-14,2,-6
4080,-6,-21,999,-15,1,-6
4081,-7,-21,998,-14,1,-5
4082,-6,-21,999,-14,0,-5
4083,-6,-23,998,-13,1,-5
4084,-6,-21,999,-13,0,-5
4085,-8,-21,999,-14,2,-6
4086,-6,-20,998,-14,0,-6
4087,-9,-20,997,-13,2,-6
4088,-7,-21,998,-14,2,-5
4089,-7,-20,998,-14,1,-6
4090,-7,-21,996,-14,0,-6
4091,-6,-22,998,-14,-1,-6
4092,-7,-22,999,-16,1,-6
4093,-6,-21,996,-14,1,-6
4094,-6,-20,997,-13,1,-7
4095,-5,-22,998,-14,1,-6
4096,-7,-21,999,-13,1,-4
4097,-7,-21,996,-13,1,-5
4098,-7,-21,998,-15,0,-6
4099,-6,-22,998,-14,1,-7
4100,-6,-22,997,-14,1,-7
4101,-7,-21,998,-16,1,-6
4102,-6,-22,998,-14,1,-6
4103,-6,-22,999,-14,2,-6
4104,-8,-21,997,-16,0,-6
4105,-7,-22,996,-15,2,-5
4106,-6,-19,999,-14,0,-5
4107,-6,-21,997,-15,1,-6
4108,-8,-23,997,-14,2,-7
4109,-6,-19,998,-15,1,-5
4110,-6,-21,998,-14,1,-5
4111,-7,-21,999,-15,0,-6
4112,-7,-19,999,-14,0,-6
4113,-7,-21,997,-15,0,-6
4114,-7,-22,999,-14,-1,-6
4115,-6,-21,998,-15,-1,-6
4116,-7,-21,998,-16,1,-6
4117,-7,-22,998,-15,1,-6
4118,-6,-21,998,-15,1,-6
4119,-5,-21,999,-15,1,-4
4120,-6,-21,998,-13,0,-5
4121,-6,-22,999,-13,1,-6
4122,-5,-22,998,-14,2,-6
4123,-6,-21,997,-15,1,-5
4124,-6,-20,997,-14,2,-5
4125,-7,-21,998,-14,1,-5
4126,-6,-21,997,-15,1,-5
4127,-8,-21,996,-15,2,-5
4128,-6,-22,997,-15,3,-5
4129,-7,-24,998,-13,2,-5
4130,-8,-22,998,-12,1,-6
4131,-7,-21,998,-13,0,-7
4132,-7,-21,997,-14,1,-4
4133,-7,-21,999,-13,1,-5
4134,-5,-20,999,-13,0,-6
4135,-6,-20,997,-14,1,-7
4136,-6,-22,999,-14,1,-7
4137,-7,-21,999,-13,2,-6
4138,-7,-21,997,-15,1,-7
4139,-5,-20,997,-16,1,-6
4140,-6,-21,999,-13,0,-7
4141,-5,-21,999,-13,0,-7
4142,-7,-20,997,-15,2,-5
4143,-4,-21,996,-15,2,-5
4144,-5,-23,999,-15,1,-5
4145,-5,-21,998,-14,0,-6
4146,-6,-20,997,-15,1,-5
4147,-5,-22,1001,-14,0,-6
4148,-6,-21,998,-14,0,-6
4149,-7,-20,996,-14,1,-5
4150,-8,-21,998,-13,2,-5
4151,-7,-22,999,-14,1,-6
4152,-7,-22,997,-13,0,-5
4153,-6,-23,997,-13,0,-7
4154,-6,-22,998,-12,3,-6
4155,-7,-21,998,-15,1,-6
4156,-8,-23,996,-16,1,-6
4157,-8,-21,1000,-13,1,-6
4158,-9,-22,998,-14,1,-6
4159,-6,-21,997,-15,0,-6
4160,-7,-21,998,-14,0,-6
4161,-7,-21,999,-13,1,-7
4162,-7,-20,998,-14,2,-7
4163,-7,-21,998,-14,-2,-6
4164,-7,-23,999,-13,1,-7
4165,-6,-20,999,-13,1,-7
4166,-6,-21,997,-14,0,-4
4167,-7,-22,998,-15,2,-6
4168,-6,-22,999,-15,0,-6
4169,-7,-22,998,-14,0,-6
4170,-7,-20,996,-14,1,-6
4171,-7,-21,999,-14,1,-6
4172,-6,-20,996,-14,1,-6
4173,-6,-21,995,-14,0,-6
4174,-4,-21,999,-14,1,-6
4175,-8,-21,999,-14,2,-7
4176,-6,-21,998,-14,0,-7
4177,-7,-21,997,-14,0,-6
4178,-5,-20,998,-15,2,-6
4179,-6,-22,997,-15,1,-7
4180,-5,-23,996,-16,1,-7
4181,-8,-23,1000,-14,1,-6
4182,-8,-19,996,-14,0,-6
4183,-4,-21,998,-14,1,-7
4184,-7,-21,998,-14,1,-6
4185,-6,-21,997,-14,1,-6
4186,-7,-22,997,-15,0,-7
4187,-6,-21,997,-14,0,-5
4188,-6,-21,998,-15,1,-6
4189,-6,-21,996,-14,1,-6
4190,-6,-21,997,-15,2,-6
4191,-6,-22,1000,-14,1,-6
4192,-6,-20,998,-13,0,-6
4193,-6,-20,999,-13,1,-5
4194,-6,-22,999,-13,1,-6
4195,-4,-20,998,-14,1,-6
4196,-6,-20,999,-14,1,-7
4197,-7,-21,998,-14,1,-7
4198,-7,-21,998,-15,3,-7
4199,-6,-22,996,-14,2,-7
4200,-6,-21,997,-16,1,-5
4201,-8,-21,997,-15,2,-6
4202,-6,-22,998,-13,2,-6
4203,-7,-19,997,-15,1,-6
4204,-5,-23,999,-12,1,-6
4205,-6,-22,998,-14,1,-5
4206,-7,-22,996,-14,0,-6
4207,-6,-21,997,-13,1,-5
4208,-6,-22,999,-13,0,-5
4209,-6,-20,996,-14,1,-6
4210,-7,-20,997,-14,2,-6
4211,-7,-21,999,-14,0,-7
4212,-7,-21,997,-15,1,-6
4213,-8,-20,998,-14,1,-7
4214,-6,-22,998,-13,0,-6
4215,-6,-22,998,-15,0,-6
4216,-7,-21,998,-15,0,-6
4217,-7,-21,999,-14,1,-5
4218,-6,-21,997,-14,0,-6
4219,-6,-21,996,-14,1,-6
4220,-7,-19,998,-14,2,-6
4221,-8,-22,999,-13,1,-6
4222,-6,-22,997,-15,1,-6
4223,-7,-22,998,-14,-1,-6
4224,-6,-22,998,-15,0,-5
4225,-6,-21,997,-13,1,-6
4226,-8,-22,998,-15,1,-8
4227,-7,-20,997,-14,1,-7
4228,-7,-23,998,-14,0,-7
4229,-5,-23,997,-15,0,-6
4230,-6,-21,996,-15,0,-6
4231,-6,-21,997,-14,-1,-7
4232,-8,-21,997,-14,2,-6
4233,-6,-19,997,-14,0,-7
4234,-6,-22,997,-15,0,-6
4235,-7,-22,998,-15,0,-5
4236,-6,-22,997,-15,0,-5
4237,-8,-21,997,-14,1,-6
4238,-8,-21,998,-14,1,-5
4239,-8,-21,998,-15,0,-6
4240,-6,-22,998,-15,0,-6
4241,-7,-22,997,-13,1,-7
4242,-7,-23,998,-14,0,-7
4243,-6,-21,998,-14,1,-6
4244,-6,-21,998,-13,2,-5
4245,-6,-19,998,-14,2,-5
4246,-7,-19,997,-15,1,-5
4247,-7,-22,998,-14,2,-6
4248,-6,-22,999,-14,1,-7
4249,-6,-22,998,-16,0,-6
4250,-8,-23,998,-15,0,-5
4251,-6,-22,997,-14,0,-6
4252,-5,-21,998,-14,1,-5
4253,-6,-22,998,-15,2,-5
4254,-7,-21,999,-14,1,-7
4255,-7,-22,998,-13,0,-6
4256,-5,-20,996,-16,0,-5
4257,-5,-21,998,-14,1,-6
4258,-4,-22,998,-13,2,-6
4259,-7,-21,998,-14,0,-6
4260,-5,-21,998,-12,1,-6
4261,-6,-22,1000,-14,0,-6
4262,-7,-22,997,-15,1,-5
4263,-7,-22,997,-14,1,-6
4264,-7,-21,997,-14,2,-6
4265,-8,-21,999,-13,0,-6
4266,-7,-21,998,-13,1,-6
4267,-5,-19,997,-15,0,-6
4268,-6,-21,999,-15,1,-6
4269,-6,-22,997,-15,1,-5
4270,-6,-21,998,-15,2,-6
4271,-7,-21,997,-15,2,-7
4272,-6,-21,997,-15,1,-7
4273,-7,-21,998,-14,2,-6
4274,-7,-23,1000,-15,1,-5
4275,-7,-22,997,-15,1,-6
4276,-7,-23,996,-15,2,-6
4277,-5,-21,999,-14,2,-6
4278,-6,-22,997,-14,1,-6
4279,-8,-21,998,-14,2,-6
4280,-7,-23,999,-13,-1,-7
4281,-8,-21,998,-13,1,-6
4282,-6,-20,997,-15,-1,-6
4283,-5,-21,997,-14,1,-7
4284,-5,-22,997,-14,2,-6
4285,-6,-19,998,-14,1,-7
4286,-6,-21,998,-14,0,-5
4287,-6,-21,997,-15,1,-4
4288,-6,-22,998,-15,1,-6
4289,-7,-24,998,-13,1,-6
4290,-7,-21,998,-13,0,-7
4291,-8,-22,996,-14,0,-6
4292,-7,-21,998,-15,0,-6
4293,-7,-21,999,-15,1,-6
4294,-5,-20,999,-14,1,-5
4295,-8,-22,997,-14,-1,-6
4296,-9,-22,997,-14,0,-6
4297,-8,-21,999,-14,1,-6
4298,-8,-21,997,-15,0,-6
4299,-7,-20,998,-14,0,-5
4300,-9,-20,997,-14,1,-6
4301,-5,-21,999,-15,0,-5
4302,-8,-21,998,-15,0,-6
4303,-6,-21,999,-13,1,-6
4304,-6,-21,999,-13,2,-5
4305,-6,-21,998,-14,1,-5
4306,-7,-23,997,-14,2,-5
4307,-6,-20,1000,-14,1,-6
4308,-6,-22,998,-14,2,-6
4309,-6,-23,998,-14,2,-6
4310,-8,-21,999,-15,1,-6
4311,-6,-20,996,-14,1,-6
4312,-7,-20,997,-14,1,-7
4313,-5,-23,999,-14,0,-7
4314,-6,-23,998,-15,0,-5
4315,-6,-21,997,-14,1,-6
4316,-6,-19,999,-12,1,-6
4317,-7,-20,998,-13,0,-6
4318,-6,-21,996,-13,0,-6
4319,-7,-21,999,-14,0,-6
4320,-6,-22,998,-14,1,-7
4321,-6,-22,997,-15,2,-7
4322,-5,-22,998,-14,1,-7
4323,-7,-24,998,-14,1,-6
4324,-6,-22,998,-14,0,-6
4325,-8,-22,999,-15,1,-5
4326,-7,-20,997,-14,1,-5
4327,-6,-22,997,-15,1,-7
4328,-8,-21,998,-14,1,-7
4329,-6,-21,996,-15,1,-7
4330,-7,-22,997,-14,1,-7
4331,-6,-20,999,-13,1,-7
4332,-6,-20,996,-13,1,-6
4333,-7,-21,998,-14,0,-6
4334,-6,-20,998,-14,0,-6
4335,-6,-21,997,-15,0,-7
4336,-6,-22,999,-12,0,-6
4337,-6,-22,1000,-14,2,-7
4338,-7,-21,997,-14,0,-7
4339,-5,-22,998,-13,1,-5
4340,-7,-21,999,-16,1,-5
4341,-7,-22,996,-14,2,-6
4342,-6,-22,999,-16,1,-6
4343,-7,-20,998,-15,1,-6
4344,-6,-20,998,-14,1,-5
4345,-8,-21,998,-14,1,-6
4346,-6,-23,998,-13,1,-7
4347,-5,-23,995,-13,1,-6
4348,-5,-22,998,-13,0,-5
4349,-7,-23,998,-14,0,-6
4350,-6,-22,997,-14,2,-6
4351,-8,-23,998,-15,1,-6
4352,-6,-21,999,-14,0,-7
4353,-7,-21,997,-14,0,-5
4354,-7,-22,998,-15,0,-5
4355,-7,-23,998,-14,2,-6
4356,-8,-21,998,-13,0,-6
4357,-7,-21,999,-15,1,-6
4358,-8,-21,999,-14,2,-6
4359,-5,-21,999,-15,1,-5
4360,-7,-21,999,-15,1,-6
4361,-9,-22,999,-14,1,-6
4362,-6,-21,997,-15,1,-6
4363,-6,-21,998,-13,1,-5
4364,-5,-22,996,-16,1,-6
4365,-7,-22,998,-15,0,-6
4366,-6,-22,997,-15,0,-6
4367,-6,-20,997,-13,1,-6
4368,-6,-22,998,-14,1,-6
4369,-6,-22,999,-14,1,-6
4370,-6,-21,997,-14,1,-6
4371,-5,-21,998,-14,0,-6
4372,-8,-22,998,-14,3,-6
4373,-6,-22,997,-14,0,-6
4374,-7,-22,998,-13,0,-7
4375,-6,-21,997,-15,1,-6
4376,-6,-21,997,-14,0,-7
4377,-8,-20,996,-13,1,-8
4378,-7,-21,998,-14,2,-7
4379,-7,-20,998,-12,1,-7
4380,-7,-21,998,-14,0,-6
4381,-7,-21,999,-15,-1,-6
4382,-7,-22,998,-14,0,-7
4383,-7,-21,996,-15,0,-6
4384,-8,-22,998,-14,0,-6
4385,-7,-21,997,-14,1,-7
4386,-7,-22,995,-14,1,-7
4387,-8,-23,999,-14,1,-6
4388,-7,-21,999,-15,-1,-6
4389,-6,-21,997,-11,-3,-7
4390,-7,-20,1000,-16,-9,-9
4391,-6,-20,997,-12,-5,-8
4392,-6,-21,997,-14,1,-5
4393,-5,-23,1000,-14,0,-5
4394,-5,-22,1000,-14,1,-5
4395,-5,-20,996,-15,1,-5
4396,-5,-21,1000,-14,1,-6
4397,-7,-22,1001,-13,1,-5
4398,-6,-21,995,-13,1,-5
4399,-5,-22,999,-14,1,-6
4400,-6,-21,1001,-15,1,-6
4401,-9,-22,995,-14,1,-7
4402,-6,-23,999,-14,2,-6
4403,-7,-22,1000,-15,1,-7
4404,-9,-22,995,-15,1,-6
4405,-6,-22,996,-14,1,-6
4406,-7,-20,1002,-13,0,-6
4407,-6,-21,997,-15,1,-3
4408,-6,-22,997,-15,1,-6
4409,-6,-23,1002,-14,1,-5
4410,-6,-20,997,-14,1,-6
4411,-7,-21,995,-14,1,-7
4412,-7,-21,1001,-14,0,-7
4413,-6,-20,1000,-13,1,-6
4414,-7,-19,996,-14,1,-5
4415,-6,-22,1001,-15,0,-7
4416,-6,-20,1000,-14,0,-6
4417,-6,-20,994,-14,1,-6
4418,-6,-20,999,-15,0,-6
4419,-8,-21,1000,-14,1,-6
4420,-7,-22,996,-13,1,-6
4421,-7,-22,998,-13,1,-7
4422,-5,-20,1000,-15,1,-5
4423,-8,-21,997,-13,0,-6
4424,-7,-19,996,-14,0,-6
4425,-8,-21,998,-15,0,-5
4426,-7,-22,1000,-15,1,-5
4427,-7,-22,997,-13,1,-6
4428,-7,-21,998,-13,0,-6
4429,-8,-19,999,-13,1,-7
4430,-7,-20,999,-13,0,-6
4431,-6,-22,997,-15,1,-6
4432,-6,-22,999,-15,1,-6
4433,-7,-23,1000,-14,-1,-6
4434,-6,-20,996,-14,-1,-5
4435,-7,-22,999,-15,1,-6
4436,-6,-23,998,-14,0,-7
4437,-7,-20,996,-14,-1,-6
4438,-6,-21,996,-12,0,-5
4439,-8,-23,998,-13,1,-6
4440,-8,-21,998,-14,1,-6
4441,-7,-21,997,-14,2,-6
4442,-7,-21,1000,-15,1,-6
4443,-7,-21,998,-14,1,-6
4444,-6,-20,997,-14,1,-6
4445,-4,-21,997,-14,1,-6
4446,-5,-21,999,-14,1,-6
4447,-8,-21,999,-14,0,-5
4448,-6,-20,995,-13,0,-6
4449,-7,-22,999,-13,0,-6
4450,-5,-20,998,-14,1,-6
4451,-5,-20,997,-15,2,-6
4452,-6,-19,997,-15,1,-6
4453,-8,-22,999,-14,1,-6
4454,-8,-22,998,-15,1,-6
4455,-6,-23,996,-15,1,-6
4456,-5,-20,997,-14,1,-6
4457,-5,-23,1000,-13,1,-6
4458,-7,-21,997,-14,1,-6
4459,-4,-22,998,-14,1,-6
4460,-6,-20,998,-13,1,-6
4461,-6,-21,998,-14,0,-7
4462,-7,-20,996,-15,1,-7
4463,-8,-20,998,-14,0,-6
4464,-5,-21,998,-15,0,-6
4465,-6,-20,996,-15,1,-6
4466,-6,-20,998,-15,0,-5
4467,-8,-21,1000,-14,1,-6
4468,-7,-20,998,-13,1,-8
4469,-8,-21,996,-14,0,-7
4470,-6,-21,999,-14,0,-7
4471,-5,-21,998,-15,0,-6
4472,-7,-21,998,-15,0,-6
4473,-8,-22,997,-15,0,-7
4474,-7,-22,998,-14,0,-8
4475,-6,-21,998,-13,1,-6
4476,-6,-22,998,-14,-1,-7
4477,-6,-22,999,-13,0,-6
4478,-4,-22,999,-13,1,-5
4479,-6,-22,997,-13,1,-7
4480,-7,-20,997,-14,0,-7
4481,-6,-21,1000,-16,1,-6
4482,-5,-20,999,-14,-1,-5
4483,-8,-20,999,-14,-1,-5
4484,-8,-20,998,-14,0,-6
4485,-7,-22,998,-14,3,-6
4486,-7,-21,999,-15,1,-5
4487,-9,-20,997,-16,1,-6
4488,-8,-20,998,-14,1,-6
4489,-7,-21,998,-14,1,-5
4490,-7,-20,998,-13,0,-7
4491,-7,-20,998,-13,1,-6
4492,-6,-21,999,-13,1,-6
4493,-7,-21,997,-13,1,-7
4494,-7,-20,998,-13,0,-6
4495,-7,-22,998,-13,0,-7
4496,-7,-22,997,-13,0,-7
4497,-7,-21,998,-14,1,-6
4498,-5,-21,997,-14,2,-6
4499,-6,-22,997,-14,2,-7
4500,-7,-22,999,-14,1,-6
4501,-7,-22,997,-12,1,-7
4502,-6,-22,997,-15,0,-6
4503,-7,-21,997,-14,1,-5
4504,-6,-20,998,-14,-1,-7
4505,-11,-21,997,-14,0,-6
4506,-7,-21,997,-13,1,-6
4507,-7,-22,997,-15,1,-7
4508,-7,-21,997,-15,-1,-5
4509,-7,-19,996,-15,0,-5
4510,-8,-20,996,-14,1,-6
4511,-7,-22,997,-15,1,-7
4512,-7,-20,998,-15,0,-5
4513,-8,-21,998,-13,1,-6
4514,-7,-21,996,-13,2,-6
4515,-6,-20,998,-13,-1,-7
4516,-7,-22,997,-14,0,-7
4517,-8,-21,997,-14,0,-5
4518,-6,-22,996,-14,1,-5
4519,-7,-22,998,-13,1,-5
4520,-7,-21,998,-15,0,-6
4521,-7,-21,999,-15,1,-6
4522,-8,-22,997,-15,0,-6
4523,-8,-22,997,-15,1,-6
4524,-6,-21,998,-15,2,-6
4525,-4,-22,996,-14,0,-7
4526,-6,-20,997,-14,2,-4
4527,-6,-21,996,-16,0,-4
4528,-6,-22,997,-14,2,-5
4529,-6,-21,997,-15,1,-5
4530,-5,-22,997,-14,0,-5
4531,-8,-21,997,-14,1,-6
4532,-6,-21,996,-14,2,-6
4533,-8,-21,998,-14,2,-6
4534,-6,-20,998,-13,1,-6
4535,-7,-21,997,-13,0,-7
4536,-8,-21,998,-14,0,-6
4537,-7,-20,1000,-13,0,-5
4538,-5,-21,998,-14,0,-7
4539,-5,-21,999,-13,1,-7
4540,-6,-23,998,-14,1,-5
4541,-5,-22,997,-13,1,-6
4542,-7,-22,998,-13,1,-6
4543,-6,-21,999,-14,1,-5
4544,-7,-22,997,-14,1,-7
4545,-6,-21,999,-15,0,-6
4546,-7,-22,1000,-14,1,-6
4547,-8,-21,998,-14,0,-6
4548,-6,-22,996,-16,0,-5
4549,-6,-21,999,-15,0,-6
4550,-7,-21,998,-15,0,-7
4551,-7,-20,997,-14,1,-6
4552,-7,-23,998,-14,0,-6
4553,-7,-23,999,-14,1,-6
4554,-6,-22,996,-15,0,-5
4555,-6,-21,996,-13,0,-6
4556,-7,-21,999,-14,1,-6
4557,-8,-21,998,-12,2,-6
4558,-7,-22,998,-14,1,-6
4559,-6,-21,997,-14,0,-5
4560,-5,-21,997,-14,1,-5
4561,-6,-20,998,-13,1,-5
4562,-6,-20,998,-13,1,-6
4563,-6,-22,998,-14,1,-6
4564,-8,-20,998,-14,1,-7
4565,-7,-21,999,-14,1,-5
4566,-7,-20,997,-15,1,-5
4567,-6,-20,998,-14,2,-6
4568,-5,-20,998,-14,1,-6
4569,-6,-22,996,-13,1,-4
4570,-7,-21,999,-13,1,-5
4571,-7,-23,999,-15,0,-6
4572,-7,-22,997,-15,0,-6
4573,-7,-21,997,-13,1,-6
4574,-4,-23,997,-15,0,-6
4575,-5,-22,997,-14,0,-6
4576,-5,-20,997,-15,0,-5
4577,-6,-19,998,-14,0,-5
4578,-7,-20,1000,-13,1,-6
4579,-5,-21,996,-15,1,-6
4580,-6,-23,997,-13,1,-6
4581,-7,-21,999,-14,1,-6
4582,-6,-22,998,-14,0,-6
4583,-5,-20,997,-14,-1,-6
4584,-7,-22,998,-15,0,-6
4585,-8,-21,1000,-15,2,-6
4586,-6,-20,997,-15,1,-5
4587,-6,-22,998,-13,2,-6
4588,-5,-22,998,-15,0,-4
4589,-8,-21,998,-15,0,-6
4590,-8,-20,996,-14,2,-6
4591,-6,-21,996,-14,1,-6
4592,-5,-21,999,-13,0,-6
4593,-6,-21,998,-13,-1,-6
4594,-6,-21,999,-12,3,-7
4595,-8,-22,998,-13,1,-6
4596,-7,-21,998,-12,0,-6
4597,-8,-20,998,-15,0,-6
4598,-7,-22,998,-15,2,-6
4599,-6,-21,999,-14,1,-7
4600,-6,-21,997,-15,0,-7
4601,-6,-19,998,-15,0,-6
4602,-6,-20,999,-14,0,-6
4603,-7,-23,997,-13,1,-6
4604,-7,-24,997,-16,2,-5
4605,-7,-22,997,-14,1,-5
4606,-5,-22,996,-14,1,-6
4607,-7,-21,999,-14,1,-7
4608,-5,-21,997,-14,1,-6
4609,-7,-21,1000,-15,0,-6
4610,-7,-18,998,-14,0,-6
4611,-4,-21,997,-15,0,-6
4612,-8,-20,996,-14,1,-5
4613,-8,-22,996,-14,1,-5
4614,-6,-22,996,-14,0,-6
4615,-6,-21,998,-15,0,-6
4616,-5,-21,998,-14,1,-6
4617,-8,-22,998,-15,1,-5
4618,-5,-21,998,-15,1,-6
4619,-8,-20,997,-13,-1,-6
4620,-6,-20,999,-13,1,-6
4621,-7,-21,999,-15,1,-6
4622,-7,-20,996,-15,1,-6
4623,-7,-21,997,-15,1,-6
4624,-6,-21,998,-14,2,-6
4625,-6,-22,998,-15,2,-7
4626,-5,-22,998,-14,1,-5
4627,-6,-21,999,-14,1,-6
4628,-8,-22,997,-15,1,-5
4629,-6,-22,996,-15,2,-6
4630,-6,-21,998,-15,1,-6
4631,-7,-22,998,-15,0,-5
4632,-7,-21,998,-14,1,-6
4633,-5,-21,998,-15,1,-6
4634,-4,-19,998,-14,0,-6
4635,-4,-22,999,-15,1,-6
4636,-8,-23,997,-14,1,-7
4637,-7,-21,998,-13,1,-5
4638,-5,-21,997,-14,1,-5
4639,-7,-19,997,-14,0,-6
4640,-7,-23,998,-14,1,-6
4641,-8,-22,998,-15,2,-6
4642,-7,-21,998,-14,0,-6
4643,-4,-25,999,-13,1,-7
4644,-6,-21,997,-14,0,-7
4645,-6,-21,999,-15,0,-7
4646,-7,-21,999,-15,1,-5
4647,-8,-22,997,-15,1,-6
4648,-6,-21,997,-14,1,-6
4649,-6,-21,998,-15,2,-6
4650,-6,-22,998,-15,0,-6
4651,-6,-22,999,-15,2,-7
4652,-6,-23,997,-15,1,-6
4653,-7,-22,998,-14,-1,-6
4654,-5,-21,998,-15,0,-6
4655,-7,-20,998,-14,0,-6
4656,-5,-22,1000,-13,1,-6
4657,-4,-22,999,-13,0,-7
4658,-7,-21,997,-15,1,-6
4659,-6,-22,997,-13,1,-6
4660,-5,-21,997,-13,1,-6
4661,-7,-22,998,-14,1,-5
4662,-6,-21,999,-15,1,-5
4663,-8,-23,998,-15,0,-6
4664,-7,-23,997,-15,0,-6
4665,-6,-21,997,-16,1,-7
4666,-5,-23,998,-14,0,-6
4667,-6,-21,998,-14,0,-7
4668,-8,-22,999,-14,1,-6
4669,-8,-23,998,-14,2,-6
4670,-6,-22,999,-14,0,-7
4671,-8,-21,998,-13,0,-5
4672,-5,-20,998,-13,1,-6
4673,-6,-22,996,-14,2,-6
4674,-6,-22,999,-14,0,-6
4675,-7,-20,998,-14,1,-6
4676,-8,-19,998,-13,2,-6
4677,-6,-21,999,-14,0,-8
4678,-5,-21,996,-15,0,-7
4679,-4,-22,999,-14,2,-6
4680,-7,-20,998,-16,1,-5
4681,-7,-23,997,-14,0,-6
4682,-7,-21,998,-13,1,-6
4683,-5,-22,999,-13,1,-6
4684,-5,-20,998,-14,0,-6
4685,-7,-21,997,-15,0,-6
4686,-6,-20,998,-15,1,-6
4687,-8,-20,995,-15,1,-6
4688,-6,-22,998,-15,1,-7
4689,-6,-23,998,-14,1,-6
4690,-7,-21,997,-15,-1,-5
4691,-7,-21,997,-14,0,-6
4692,-5,-22,999,-15,1,-6
4693,-5,-21,998,-13,1,-6
4694,-6,-21,999,-16,1,-5
4695,-7,-21,998,-13,1,-6
4696,-6,-21,996,-13,1,-7
4697,-6,-22,999,-13,2,-6
4698,-6,-22,998,-13,2,-7
4699,-6,-19,998,-14,1,-5
4700,-6,-22,998,-14,1,-6
4701,-7,-20,997,-14,0,-8
4702,-4,-22,997,-14,1,-5
4703,-7,-22,997,-14,2,-6
4704,-7,-22,998,-15,1,-5
4705,-6,-20,999,-15,0,-6
4706,-6,-22,999,-14,1,-6
4707,-5,-21,998,-14,1,-6
4708,-6,-21,997,-14,1,-7
4709,-7,-21,998,-14,1,-6
4710,-8,-20,998,-15,1,-6
4711,-6,-21,998,-14,2,-7
4712,-7,-21,998,-14,2,-5
4713,-8,-21,999,-14,0,-7
4714,-5,-20,997,-13,0,-5
4715,-6,-20,998,-15,1,-6
4716,-8,-22,998,-15,1,-6
4717,-7,-21,997,-13,1,-6
4718,-7,-20,997,-15,0,-6
4719,-7,-20,998,-14,2,-6
4720,-6,-22,999,-13,1,-6
4721,-7,-21,998,-15,1,-6
4722,-5,-19,998,-14,0,-7
4723,-6,-21,998,-14,0,-5
4724,-6,-21,996,-12,-7,-9
4725,-7,-20,997,-16,-2,-7
4726,-4,-20,998,-13,-1,-6
4727,-9,-21,998,-13,1,-7
4728,-8,-23,999,-15,1,-7
4729,-6,-21,998,-14,1,-7
4730,-5,-22,996,-15,0,-7
4731,-8,-22,996,-15,0,-6
4732,-7,-21,997,-14,1,-5
4733,-6,-22,998,-13,2,-7
4734,-6,-22,997,-15,0,-6
4735,-7,-21,997,-13,1,-7
4736,-7,-21,995,-14,2,-5
4737,-6,-21,996,-13,0,-6
4738,-7,-22,998,-12,0,-6
4739,-8,-21,997,-14,0,-6
4740,-6,-21,996,-14,0,-6
4741,-7,-21,998,-14,0,-4
4742,-6,-22,998,-13,1,-5
4743,-5,-21,998,-15,1,-5
4744,-5,-21,998,-15,0,-6
4745,-5,-21,998,-14,0,-5
4746,-6,-23,998,-14,1,-6
4747,-6,-22,997,-13,1,-6
4748,-6,-20,998,-15,0,-6
4749,-6,-21,998,-13,0,-5
4750,-6,-20,998,-14,1,-6
4751,-7,-23,1000,-14,0,-6
4752,-6,-23,999,-13,1,-7
4753,-5,-21,998,-14,1,-6
4754,-7,-20,998,-14,-1,-6
4755,-6,-21,998,-14,-1,-5
4756,-8,-21,998,-13,1,-6
4757,-8,-21,999,-14,1,-7
4758,-7,-21,997,-15,1,-5
4759,-6,-22,998,-15,2,-5
4760,-6,-21,1000,-15,0,-6
4761,-5,-19,999,-14,1,-6
4762,-6,-20,998,-14,0,-8
4763,-5,-22,997,-15,-1,-6
4764,-5,-22,998,-14,1,-5
4765,-7,-23,997,-14,0,-7
4766,-7,-20,997,-14,1,-7
4767,-5,-21,997,-15,1,-6
4768,-8,-22,998,-15,2,-7
4769,-8,-22,998,-13,1,-7
4770,-6,-21,998,-13,0,-6
4771,-6,-21,995,-15,1,-6
4772,-7,-21,997,-15,1,-6
4773,-7,-21,996,-14,0,-5
4774,-7,-22,996,-13,0,-6
4775,-7,-21,998,-15,0,-6
4776,-7,-21,998,-15,1,-7
4777,-5,-21,997,-14,1,-8
4778,-8,-21,998,-14,0,-7
4779,-7,-22,998,-13,1,-6
4780,-8,-22,996,-14,1,-7
4781,-6,-21,997,-14,0,-7
4782,-7,-22,999,-14,1,-6
4783,-8,-21,997,-14,2,-5
4784,-7,-23,998,-15,1,-6
4785,-7,-22,1000,-13,0,-7
4786,-6,-21,998,-14,1,-7
4787,-6,-21,998,-14,1,-6
4788,-6,-21,999,-14,1,-6
4789,-7,-21,998,-14,0,-7
4790,-5,-22,998,-13,0,-7
4791,-7,-19,997,-15,2,-6
4792,-6,-21,997,-15,0,-6
4793,-6,-21,997,-15,2,-6
4794,-5,-21,998,-13,2,-7
4795,-6,-20,997,-13,0,-7
4796,-7,-19,997,-13,-1,-6
4797,-5,-21,999,-15,0,-5
4798,-5,-21,997,-14,0,-6
4799,-8,-23,998,-15,0,-6
4800,-7,-22,998,-15,0,-6
4801,-5,-20,998,-14,1,-6
4802,-6,-21,999,-14,0,-5
4803,-7,-21,1000,-13,1,-6
4804,-8,-21,997,-15,1,-5
4805,-6,-21,999,-14,1,-6
4806,-6,-21,998,-12,0,-5
4807,-5,-22,998,-13,0,-6
4808,-8,-21,999,-13,0,-6
