sequence,AccelerometerX,AccelerometerY,AccelerometerZ,GyroscopeX,GyroscopeY,GyroscopeZ
0,-6,-19,998,-15,-1,-6
1,-6,-19,996,-12,2,-6
2,-8,-21,997,-12,1,-6
3,-8,-20,999,-16,0,-6
4,-6,-18,997,-16,1,-4
5,-6,-17,996,-10,-1,-8
6,-6,-20,996,-12,1,-6
7,-6,-21,997,-10,0,-6
8,-8,-20,995,-15,0,-6
9,-6,-20,998,-14,-1,-6
10,-6,-20,996,-13,2,-7
11,-8,-20,998,-19,2,-5
12,-7,-19,996,-11,2,-5
13,-7,-21,1000,-15,1,-6
14,-8,-19,998,-16,0,-5
15,-8,-19,999,-12,3,-5
16,-7,-17,997,-16,1,-5
17,-7,-18,997,-12,0,-5
18,-7,-18,998,-14,1,-6
19,-7,-20,996,-16,1,-6
20,-7,-19,998,-12,1,-5
21,-7,-18,998,-14,0,-5
22,-8,-19,997,-12,1,-5
23,-6,-20,999,-12,1,-6
24,-7,-19,997,-15,0,-5
25,-6,-19,997,-14,0,-7
26,-6,-19,1000,-14,1,-6
27,-7,-19,998,-15,0,-6
28,-6,-19,998,-15,0,-6
29,-6,-19,997,-15,1,-5
30,-5,-18,998,-15,0,-5
31,-5,-18,999,-14,2,-5
32,-6,-19,997,-15,2,-5
33,-5,-19,996,-14,1,-5
34,-6,-19,997,-15,1,-6
35,-8,-18,996,-15,0,-6
36,-8,-19,997,-14,1,-6
37,-8,-20,997,-15,1,-6
38,-7,-17,998,-15,1,-6
39,-8,-19,998,-14,1,-6
40,-7,-21,998,-14,1,-7
41,-7,-21,998,-14,-1,-5
42,-8,-20,996,-13,0,-6
43,-9,-19,997,-13,1,-6
44,-7,-19,997,-13,1,-5
45,-7,-20,998,-15,0,-6
46,-7,-22,999,-14,0,-6
47,-7,-20,997,-14,0,-7
48,-6,-20,997,-14,1,-6
49,-7,-20,997,-13,0,-6
50,-7,-20,997,-14,1,-5
51,-7,-19,997,-15,0,-6
52,-6,-18,998,-14,1,-7
53,-7,-21,997,-13,1,-6
54,-7,-21,998,-14,1,-5
55,-6,-21,998,-15,1,-5
56,-7,-19,997,-14,2,-7
57,-8,-18,998,-14,2,-6
58,-6,-19,998,-13,0,-5
59,-7,-20,998,-15,0,-6
60,-7,-20,999,-15,0,-5
61,-7,-20,998,-15,1,-6
62,-7,-21,996,-13,1,-7
63,-8,-20,998,-14,2,-6
64,-9,-19,998,-15,1,-6
65,-5,-19,997,-15,0,-6
66,-7,-18,997,-14,0,-6
67,-8,-19,998,-14,0,-7
68,-7,-19,997,-15,1,-6
69,-5,-18,996,-14,-1,-6
70,-7,-20,998,-14,1,-6
71,-6,-21,997,-14,1,-6
72,-7,-19,999,-13,1,-6
73,-6,-21,998,-14,1,-5
74,-7,-19,996,-14,1,-6
75,-8,-20,998,-13,0,-5
76,-8,-18,998,-13,2,-6
77,-7,-19,998,-13,2,-6
78,-8,-19,996,-14,1,-5
79,-7,-18,998,-14,1,-6
80,-8,-18,999,-14,2,-6
81,-8,-21,998,-14,1,-6
82,-6,-19,997,-12,0,-6
83,-8,-20,998,-12,1,-5
84,-7,-19,997,-15,2,-5
85,-7,-18,999,-13,1,-5
86,-7,-19,998,-14,1,-5
87,-7,-18,999,-15,1,-5
88,-8,-19,997,-14,2,-5
89,-8,-20,999,-15,2,-6
90,-6,-20,998,-13,1,-6
91,-6,-21,999,-15,0,-5
92,-8,-16,998,-15,1,-5
93,-6,-18,998,-14,1,-5
94,-7,-19,996,-15,1,-5
95,-6,-19,997,-14,1,-7
96,-7,-20,997,-13,2,-6
97,-6,-17,999,-14,2,-6
98,-7,-19,999,-13,0,-6
99,-7,-18,997,-14,0,-6
100,-7,-20,998,-14,0,-5
101,-6,-17,997,-14,0,-5
102,-6,-18,997,-13,1,-4
103,-7,-18,997,-13,1,-7
104,-6,-19,997,-14,1,-6
105,-7,-19,998,-13,1,-5
106,-6,-19,997,-14,1,-5
107,-8,-17,998,-14,0,-5
108,-7,-19,998,-14,0,-7
109,-6,-19,999,-15,0,-6
110,-5,-20,998,-13,0,-7
111,-7,-18,997,-15,0,-6
112,-7,-18,997,-15,0,-4
113,-6,-19,998,-14,1,-5
114,-7,-19,998,-14,1,-6
115,-8,-18,998,-14,0,-6
116,-6,-19,997,-14,0,-5
117,-6,-18,998,-13,1,-6
118,-8,-19,998,-14,1,-6
119,-8,-18,996,-16,1,-4
120,-6,-18,997,-14,1,-6
121,-6,-18,999,-13,2,-6
122,-6,-20,999,-13,2,-5
123,-7,-20,998,-13,3,-7
124,-8,-19,997,-14,2,-5
125,-7,-20,998,-12,0,-5
126,-8,-19,997,-13,2,-6
127,-7,-18,998,-13,1,-6
128,-7,-19,998,-14,1,-7
129,-7,-20,998,-14,1,-6
130,-8,-21,997,-14,1,-7
131,-6,-20,997,-15,1,-7
132,-6,-19,999,-14,1,-6
133,-7,-18,997,-13,1,-6
134,-6,-19,997,-13,2,-6
135,-9,-17,997,-13,1,-6
136,-8,-18,998,-15,1,-6
137,-7,-18,997,-14,2,-6
138,-6,-21,998,-14,2,-6
139,-7,-19,998,-12,1,-6
140,-8,-20,999,-13,1,-5
141,-7,-19,999,-13,1,-5
142,-8,-19,997,-14,0,-5
143,-9,-19,996,-13,2,-6
144,-5,-19,997,-15,2,-6
145,-7,-19,998,-14,0,-6
146,-7,-20,997,-14,0,-6
147,-6,-19,997,-13,0,-5
148,-7,-18,997,-15,1,-5
149,-7,-19,998,-15,-1,-7
150,-7,-19,997,-14,1,-6
151,-8,-19,997,-14,0,-6
152,-6,-18,997,-14,0,-6
153,-7,-18,997,-13,1,-5
154,-8,-18,998,-15,0,-5
155,-8,-20,999,-14,0,-5
156,-8,-19,998,-13,0,-7
157,-8,-20,998,-13,1,-7
158,-9,-19,998,-14,2,-6
159,-8,-19,996,-12,3,-6
160,-7,-18,997,-13,1,-6
161,-7,-19,997,-14,1,-6
162,-6,-19,997,-14,1,-7
163,-7,-19,999,-14,1,-7
164,-7,-20,998,-12,1,-6
165,-6,-20,1000,-15,1,-6
166,-7,-18,996,-13,1,-5
167,-6,-20,999,-13,1,-5
168,-7,-19,998,-15,2,-5
169,-6,-19,998,-14,1,-6
170,-6,-17,999,-14,2,-5
171,-8,-19,998,-14,2,-6
172,-5,-20,1000,-13,1,-6
173,-5,-18,999,-13,0,-6
174,-7,-18,996,-13,1,-6
175,-7,-18,999,-14,1,-5
176,-7,-18,997,-14,3,-4
177,-6,-19,998,-14,1,-5
178,-6,-19,999,-14,1,-5
179,-7,-19,997,-13,0,-6
180,-8,-18,999,-13,0,-5
181,-7,-19,997,-14,0,-6
182,-8,-21,998,-14,1,-6
183,-6,-18,998,-14,0,-6
184,-7,-18,997,-14,2,-5
185,-7,-19,997,-13,0,-6
186,-6,-20,998,-14,1,-6
187,-8,-18,998,-13,1,-5
188,-8,-20,999,-13,0,-6
189,-5,-20,998,-15,1,-6
190,-8,-19,997,-14,2,-5
191,-8,-18,998,-13,2,-6
192,-8,-19,997,-14,1,-6
193,-8,-19,997,-13,1,-8
194,-6,-19,998,-14,0,-6
195,-7,-20,999,-13,1,-6
196,-8,-19,999,-13,1,-6
197,-7,-21,998,-14,1,-5
198,-7,-20,998,-14,1,-7
199,-6,-18,999,-14,2,-6
200,-5,-18,997,-14,1,-6
201,-6,-19,998,-14,1,-4
202,-8,-19,998,-13,1,-6
203,-9,-18,998,-13,-1,-6
204,-6,-20,997,-14,0,-7
205,-6,-19,998,-14,0,-7
206,-7,-20,998,-14,0,-6
207,-7,-17,997,-14,0,-6
208,-8,-17,999,-15,1,-6
209,-8,-19,999,-13,0,-6
210,-4,-18,998,-15,1,-7
211,-4,-20,998,-15,2,-6
212,-7,-19,997,-15,1,-6
213,-8,-20,996,-13,0,-5
214,-7,-20,997,-14,2,-5
215,-7,-20,998,-14,1,-6
216,-8,-19,999,-15,1,-6
217,-8,-18,998,-14,0,-6
218,-8,-18,998,-15,2,-5
219,-7,-19,996,-13,1,-6
220,-6,-19,996,-13,1,-7
221,-6,-20,997,-13,0,-7
222,-7,-20,998,-14,0,-6
223,-8,-19,998,-15,2,-6
224,-8,-18,999,-14,1,-4
225,-7,-19,998,-15,0,-6
226,-9,-18,997,-15,1,-6
227,-6,-19,998,-13,2,-6
228,-8,-19,999,-14,1,-5
229,-7,-20,997,-14,1,-7
230,-8,-19,998,-16,0,-5
231,-6,-20,999,-13,0,-5
232,-8,-21,997,-15,1,-5
233,-8,-18,998,-14,0,-5
234,-8,-18,998,-14,0,-5
235,-8,-19,997,-15,1,-6
236,-9,-21,997,-14,1,-6
237,-9,-20,998,-14,1,-6
238,-8,-20,998,-12,2,-6
239,-5,-20,998,-13,2,-6
240,-8,-19,998,-13,1,-7
241,-8,-18,996,-15,1,-7
242,-7,-19,997,-15,2,-7
243,-8,-21,998,-14,1,-7
244,-8,-19,997,-14,1,-6
245,-5,-20,997,-14,0,-7
246,-8,-18,995,-14,1,-6
247,-7,-19,997,-13,2,-6
248,-7,-18,997,-15,0,-5
249,-6,-18,998,-13,1,-6
250,-8,-19,998,-13,0,-6
251,-7,-19,996,-13,2,-6
252,-7,-19,999,-14,1,-7
253,-6,-20,996,-15,0,-6
254,-6,-20,998,-15,0,-6
255,-6,-20,998,-15,2,-6
256,-6,-19,997,-15,1,-6
257,-6,-19,999,-14,2,-5
258,-8,-18,997,-14,2,-6
259,-7,-19,999,-13,1,-8
260,-8,-20,999,-14,1,-6
261,-8,-20,996,-15,1,-6
262,-7,-19,1001,-15,1,-6
263,-6,-19,997,-15,1,-5
264,-7,-18,997,-14,1,-5
265,-6,-19,999,-13,0,-6
266,-6,-19,996,-14,0,-5
267,-7,-19,999,-14,2,-5
268,-6,-19,996,-14,1,-6
269,-7,-20,998,-16,2,-6
270,-6,-19,998,-14,1,-5
271,-8,-19,998,-13,1,-5
272,-9,-18,998,-14,1,-5
273,-8,-18,997,-12,1,-6
274,-7,-19,999,-15,0,-5
275,-7,-19,997,-14,0,-6
276,-7,-21,998,-15,2,-6
277,-7,-20,999,-15,1,-4
278,-7,-18,999,-15,0,-5
279,-6,-19,997,-14,1,-5
280,-8,-19,998,-14,1,-5
281,-7,-18,996,-14,0,-6
282,-6,-19,998,-14,0,-5
283,-7,-18,999,-13,0,-6
284,-6,-20,996,-13,1,-6
285,-7,-20,998,-15,0,-7
286,-7,-18,1000,-14,0,-6
287,-8,-19,997,-13,0,-6
288,-8,-19,997,-14,0,-6
289,-6,-20,999,-13,0,-6
290,-7,-17,998,-14,1,-7
291,-7,-18,999,-14,0,-6
292,-7,-20,999,-14,0,-6
293,-8,-19,998,-15,1,-5
294,-8,-20,997,-14,1,-5
295,-7,-19,999,-16,0,-4
296,-7,-19,997,-15,1,-6
297,-7,-19,996,-13,0,-6
298,-6,-19,998,-15,0,-5
299,-7,-21,997,-12,1,-5
300,-7,-21,995,-13,1,-6
301,-5,-19,997,-14,1,-7
302,-6,-20,996,-13,0,-7
303,-6,-21,996,-14,0,-6
304,-5,-19,999,-14,1,-5
305,-8,-18,997,-13,1,-6
306,-7,-19,1000,-14,-1,-6
307,-6,-19,999,-14,1,-7
308,-6,-20,996,-15,1,-5
309,-8,-20,998,-14,0,-5
310,-8,-19,998,-13,0,-6
311,-8,-20,997,-14,2,-6
312,-8,-19,998,-14,2,-7
313,-8,-18,998,-14,1,-7
314,-8,-18,999,-15,0,-5
315,-8,-19,998,-12,2,-6
316,-6,-18,997,-14,2,-6
317,-8,-18,998,-14,0,-7
318,-5,-19,997,-13,0,-5
319,-6,-20,999,-14,0,-6
320,-6,-18,998,-15,2,-5
321,-7,-20,999,-14,1,-6
322,-7,-19,997,-14,1,-6
323,-6,-20,998,-13,1,-6
324,-6,-20,997,-12,0,-7
325,-7,-20,998,-13,1,-6
326,-8,-20,996,-13,1,-5
327,-9,-18,998,-14,1,-5
328,-9,-19,997,-13,0,-6
329,-7,-19,998,-14,1,-6
330,-8,-19,997,-14,1,-6
331,-7,-17,997,-13,0,-7
332,-7,-19,997,-15,1,-6
333,-7,-18,999,-14,1,-6
334,-7,-18,998,-15,2,-5
335,-7,-19,998,-14,1,-5
336,-6,-19,999,-14,1,-5
337,-7,-18,997,-15,1,-5
338,-6,-16,997,-14,1,-6
339,-6,-19,997,-15,-1,-6
340,-8,-19,997,-14,0,-5
341,-7,-21,997,-14,1,-5
342,-6,-19,999,-13,0,-5
343,-6,-20,997,-13,1,-6
344,-6,-20,998,-13,2,-5
345,-7,-20,996,-11,-2,-6
346,-8,-20,999,-14,0,-5
347,-7,-18,998,-12,1,-6
348,-9,-20,998,-14,2,-5
349,-7,-19,998,-13,1,-6
350,-8,-19,998,-13,0,-6
351,-6,-18,999,-14,1,-5
352,-7,-20,998,-12,2,-5
353,-7,-20,998,-14,-1,-6
354,-6,-20,999,-13,2,-5
355,-7,-19,998,-13,1,-5
356,-6,-19,999,-13,1,-6
357,-7,-20,999,-13,2,-6
358,-5,-19,999,-14,1,-6
359,-5,-19,996,-15,1,-6
360,-7,-19,998,-13,1,-7
361,-6,-19,997,-14,0,-5
362,-7,-19,999,-12,0,-6
363,-8,-21,997,-14,0,-7
364,-7,-21,996,-14,1,-6
365,-8,-21,998,-13,0,-6
366,-8,-21,998,-14,-1,-5
367,-9,-19,999,-13,1,-6
368,-10,-19,998,-16,1,-5
369,-7,-19,997,-14,1,-5
370,-8,-18,998,-13,1,-7
371,-7,-19,998,-15,2,-5
372,-6,-19,996,-14,2,-4
373,-6,-19,998,-14,3,-6
374,-6,-19,998,-14,2,-7
375,-6,-22,997,-12,2,-6
376,-9,-20,998,-15,1,-6
377,-8,-19,998,-13,0,-7
378,-8,-20,997,-14,0,-6
379,-6,-20,997,-14,1,-6
380,-6,-19,999,-13,0,-6
381,-9,-18,998,-15,0,-6
382,-8,-19,997,-14,2,-7
383,-8,-19,999,-13,2,-6
384,-5,-18,996,-13,1,-6
385,-8,-19,998,-13,1,-6
386,-7,-19,998,-15,1,-6
387,-6,-18,997,-13,1,-6
388,-6,-19,999,-14,1,-6
389,-6,-18,997,-14,1,-6
390,-7,-20,998,-13,1,-5
391,-8,-21,999,-14,1,-6
392,-7,-21,997,-14,1,-6
393,-9,-19,997,-13,0,-6
394,-8,-17,995,-13,1,-5
395,-8,-19,997,-13,1,-4
396,-6,-18,997,-13,1,-5
397,-8,-19,997,-13,0,-6
398,-7,-19,999,-14,1,-6
399,-8,-19,999,-15,1,-5
400,-7,-21,998,-12,0,-6
401,-8,-19,999,-13,0,-6
402,-7,-19,997,-14,0,-6
403,-8,-18,998,-13,0,-6
404,-6,-18,998,-14,0,-7
405,-8,-18,998,-16,0,-5
406,-6,-21,997,-14,1,-6
407,-8,-18,999,-13,1,-5
408,-8,-17,997,-13,0,-5
409,-10,-19,996,-13,2,-5
410,-7,-19,998,-14,1,-6
411,-7,-18,997,-13,0,-6
412,-7,-20,997,-15,0,-5
413,-8,-20,997,-15,1,-5
414,-6,-19,996,-13,0,-7
415,-7,-19,998,-14,2,-7
416,-7,-20,998,-15,1,-6
417,-7,-17,998,-14,2,-5
418,-7,-20,996,-14,0,-6
419,-7,-20,996,-13,1,-6
420,-7,-20,998,-14,1,-6
421,-8,-21,998,-14,0,-6
422,-7,-19,998,-14,1,-7
423,-7,-18,998,-14,0,-5
424,-6,-19,998,-14,1,-6
425,-7,-18,998,-13,1,-6
426,-7,-18,996,-14,1,-5
427,-9,-21,997,-15,1,-6
428,-8,-19,998,-14,1,-5
429,-7,-18,997,-14,1,-6
430,-8,-19,998,-14,0,-5
431,-8,-20,996,-14,3,-7
432,-8,-17,998,-14,1,-6
433,-7,-19,997,-15,1,-6
434,-8,-20,998,-14,1,-6
435,-8,-17,996,-14,1,-6
436,-8,-18,997,-15,2,-6
437,-7,-19,999,-14,2,-7
438,-6,-20,998,-14,1,-6
439,-7,-18,997,-13,1,-6
440,-8,-18,997,-14,0,-6
441,-7,-19,999,-15,1,-6
442,-6,-18,998,-14,1,-5
443,-9,-21,999,-14,1,-5
444,-6,-19,996,-13,-1,-6
445,-9,-19,997,-14,1,-6
446,-8,-19,997,-13,2,-5
447,-7,-19,997,-13,2,-6
448,-8,-18,997,-14,0,-6
449,-9,-19,997,-14,1,-6
450,-6,-18,998,-14,1,-5
451,-7,-18,998,-14,0,-6
452,-6,-19,999,-14,1,-6
453,-9,-19,999,-15,-1,-6
454,-9,-19,999,-14,0,-6
455,-7,-19,999,-13,0,-6
456,-8,-18,997,-13,0,-6
457,-8,-18,997,-13,0,-6
458,-6,-20,998,-14,0,-6
459,-9,-18,996,-13,2,-5
460,-7,-20,997,-14,2,-6
461,-6,-19,996,-15,2,-5
462,-9,-19,996,-13,1,-5
463,-7,-21,997,-15,2,-5
464,-7,-20,999,-15,1,-5
465,-8,-20,997,-14,0,-6
466,-7,-19,996,-15,1,-6
467,-8,-20,998,-14,1,-6
468,-7,-19,997,-14,1,-6
469,-8,-19,997,-13,0,-6
470,-7,-17,996,-15,0,-6
471,-7,-20,997,-15,1,-6
472,-5,-19,998,-14,2,-6
473,-5,-19,997,-13,-1,-5
474,-5,-19,998,-14,-1,-5
475,-7,-18,998,-13,1,-5
476,-6,-19,999,-13,2,-6
477,-6,-20,999,-13,2,-6
478,-6,-20,997,-14,0,-5
479,-7,-18,998,-13,0,-7
480,-7,-18,998,-15,0,-7
481,-6,-18,997,-14,1,-6
482,-8,-19,998,-15,1,-6
483,-9,-19,998,-15,2,-6
484,-7,-18,998,-15,0,-6
485,-5,-20,998,-14,0,-6
486,-6,-20,997,-14,0,-6
487,-7,-20,997,-14,0,-5
488,-8,-18,998,-13,1,-6
489,-8,-18,998,-15,0,-5
490,-6,-19,998,-14,0,-7
491,-9,-18,999,-13,1,-7
492,-9,-19,997,-13,0,-6
493,-7,-20,998,-14,2,-5
494,-8,-20,997,-14,2,-6
495,-10,-17,998,-14,2,-5
496,-7,-17,998,-15,1,-5
497,-9,-18,999,-13,1,-6
498,-6,-19,997,-14,1,-6
499,-8,-19,998,-14,1,-6
500,-6,-18,998,-13,2,-6
501,-5,-22,998,-16,1,-6
502,-6,-19,997,-14,1,-6
503,-8,-22,997,-14,0,-6
504,-7,-21,998,-13,1,-5
505,-6,-19,998,-14,2,-5
506,-6,-19,998,-14,2,-6
507,-7,-21,998,-14,2,-6
508,-5,-19,997,-15,1,-6
509,-8,-19,998,-14,0,-6
510,-7,-20,997,-14,1,-5
511,-5,-20,998,-15,1,-5
512,-8,-20,997,-14,0,-6
513,-7,-19,998,-14,1,-6
514,-8,-19,999,-13,1,-6
515,-9,-19,998,-14,1,-5
516,-7,-20,996,-14,1,-5
517,-8,-19,998,-13,1,-5
518,-8,-18,996,-15,0,-6
519,-8,-19,997,-14,0,-7
520,-7,-20,997,-15,1,-5
521,-8,-19,998,-14,2,-5
522,-7,-20,998,-14,1,-5
523,-8,-20,998,-13,2,-5
524,-7,-19,998,-14,1,-5
525,-8,-18,997,-14,1,-5
526,-7,-21,996,-14,0,-5
527,-9,-19,998,-14,1,-6
528,-9,-20,998,-14,2,-6
529,-8,-18,1000,-13,1,-6
530,-6,-18,997,-13,1,-6
531,-5,-17,999,-14,1,-6
532,-6,-18,998,-13,0,-6
533,-7,-19,997,-14,1,-6
534,-7,-20,998,-14,1,-6
535,-8,-19,998,-14,2,-6
536,-8,-20,998,-15,1,-6
537,-6,-21,998,-13,1,-7
538,-6,-18,997,-14,0,-7
539,-7,-17,997,-14,3,-5
540,-7,-19,998,-13,1,-5
541,-7,-20,998,-15,1,-5
542,-8,-20,998,-14,0,-6
543,-6,-18,999,-14,0,-6
544,-6,-18,999,-13,0,-7
545,-7,-18,998,-14,1,-6
546,-8,-19,998,-14,1,-6
547,-10,-19,998,-15,1,-6
548,-8,-19,997,-14,1,-5
549,-8,-20,999,-14,1,-5
550,-7,-20,997,-14,1,-5
551,-7,-19,996,-15,0,-6
552,-8,-21,998,-15,1,-5
553,-6,-21,998,-14,1,-6
554,-7,-22,998,-15,1,-6
555,-6,-19,999,-13,0,-7
556,-7,-18,997,-15,1,-6
557,-7,-17,998,-14,0,-6
558,-5,-17,997,-15,0,-5
559,-6,-18,998,-13,1,-7
560,-6,-19,1000,-12,1,-5
561,-6,-20,999,-14,1,-5
562,-7,-19,999,-15,0,-6
563,-7,-21,998,-14,0,-6
564,-8,-21,997,-14,1,-6
565,-8,-20,997,-12,1,-7
566,-6,-21,999,-14,1,-6
567,-7,-20,1000,-14,1,-7
568,-6,-20,998,-14,1,-7
569,-6,-20,996,-14,1,-8
570,-6,-19,996,-14,0,-6
571,-7,-20,996,-14,1,-6
572,-7,-18,997,-13,1,-6
573,-7,-20,998,-15,1,-6
574,-7,-20,997,-14,2,-6
575,-8,-21,999,-15,1,-6
576,-6,-18,998,-13,1,-5
577,-7,-18,997,-13,1,-6
578,-9,-20,997,-12,1,-6
579,-9,-19,999,-14,1,-5
580,-4,-20,997,-13,0,-5
581,-7,-20,998,-15,1,-6
582,-7,-20,998,-15,1,-6
583,-7,-19,997,-12,0,-7
584,-8,-19,998,-15,1,-7
585,-6,-18,998,-13,2,-6
586,-9,-20,997,-15,2,-6
587,-6,-19,998,-14,1,-6
588,-7,-20,998,-14,2,-7
589,-5,-19,998,-15,1,-5
590,-6,-20,998,-14,1,-6
591,-7,-20,999,-14,1,-7
592,-5,-18,998,-15,1,-7
593,-7,-20,997,-13,0,-6
594,-7,-19,998,-13,1,-6
595,-6,-19,998,-12,1,-6
596,-6,-16,997,-13,2,-6
597,-7,-17,998,-14,2,-5
598,-8,-20,997,-15,0,-6
599,-7,-20,997,-14,2,-6
600,-7,-21,998,-13,1,-6
601,-7,-21,997,-13,1,-6
602,-7,-20,998,-13,1,-7
603,-8,-19,997,-13,0,-5
604,-6,-18,998,-12,0,-6
605,-6,-19,998,-14,1,-6
606,-6,-20,999,-14,1,-7
607,-8,-19,999,-13,0,-5
608,-4,-21,997,-15,2,-5
609,-6,-18,997,-13,2,-6
610,-8,-19,998,-15,1,-5
611,-6,-20,998,-14,0,-6
612,-6,-19,998,-15,0,-5
613,-7,-20,999,-14,0,-6
614,-7,-22,999,-13,1,-6
615,-7,-19,997,-14,0,-5
616,-7,-20,998,-14,1,-6
617,-6,-19,999,-12,1,-5
618,-6,-20,998,-14,1,-7
619,-6,-19,998,-14,1,-6
620,-6,-18,998,-15,1,-6
621,-7,-20,998,-12,1,-7
622,-7,-18,999,-14,2,-4
623,-8,-19,997,-14,1,-5
624,-6,-17,998,-13,1,-6
625,-6,-19,998,-14,0,-6
626,-8,-19,999,-14,0,-5
627,-7,-20,1000,-14,1,-6
628,-7,-20,997,-14,1,-5
629,-5,-20,999,-13,0,-6
630,-6,-18,999,-15,0,-7
631,-6,-20,997,-14,1,-6
632,-6,-19,998,-13,0,-7
633,-8,-18,997,-13,1,-7
634,-7,-17,997,-13,0,-7
635,-7,-21,997,-15,0,-5
636,-8,-18,999,-14,0,-5
637,-7,-20,998,-15,0,-6
638,-7,-20,999,-13,2,-6
639,-6,-19,997,-13,1,-6
640,-7,-19,996,-14,2,-7
641,-5,-22,998,-14,2,-6
642,-8,-19,996,-14,0,-6
643,-7,-19,998,-15,2,-5
644,-7,-19,997,-14,1,-5
645,-6,-18,998,-14,0,-6
646,-8,-18,997,-14,2,-5
647,-8,-19,998,-15,0,-6
648,-7,-19,998,-13,0,-5
649,-6,-19,999,-13,1,-5
650,-6,-19,998,-14,2,-5
651,-6,-19,997,-15,2,-5
652,-7,-19,997,-15,2,-5
653,-7,-18,997,-13,2,-5
654,-7,-19,997,-13,1,-5
655,-7,-19,999,-14,1,-6
656,-7,-20,997,-14,1,-5
657,-7,-19,996,-15,0,-4
658,-7,-20,996,-14,0,-6
659,-6,-20,997,-15,0,-7
660,-7,-19,998,-15,1,-7
661,-7,-19,998,-14,1,-6
662,-8,-20,997,-12,1,-6
663,-8,-21,998,-15,0,-7
664,-6,-20,998,-14,0,-6
665,-5,-19,998,-15,0,-6
666,-7,-18,998,-14,1,-6
667,-7,-17,996,-14,0,-6
668,-7,-19,998,-14,1,-7
669,-8,-17,997,-12,0,-6
670,-7,-20,997,-14,0,-6
671,-11,-20,997,-13,2,-6
672,-7,-19,997,-13,2,-6
673,-7,-18,995,-16,0,-7
674,-6,-20,995,-12,0,-7
675,-9,-18,998,-13,1,-6
676,-6,-20,998,-15,2,-6
677,-8,-19,997,-14,1,-6
678,-6,-18,998,-14,-1,-7
679,-7,-18,998,-12,1,-7
680,-7,-19,997,-9,0,-7
681,-7,-21,998,-11,1,-6
682,-8,-19,998,-14,1,-6
683,-8,-20,998,-13,1,-6
684,-8,-20,998,-12,0,-5
685,-7,-19,998,-16,1,-5
686,-5,-18,997,-13,1,-6
687,-6,-19,999,-14,1,-7
688,-9,-18,1000,-14,1,-5
689,-7,-18,997,-12,1,-5
690,-6,-19,997,-14,1,-5
691,-7,-18,997,-13,1,-6
692,-6,-19,998,-12,0,-5
693,-5,-18,998,-15,1,-6
694,-7,-17,997,-13,1,-6
695,-6,-19,997,-13,1,-5
696,-8,-18,997,-14,2,-6
697,-9,-18,996,-13,1,-6
698,-7,-20,998,-14,1,-7
699,-5,-20,997,-14,1,-6
700,-6,-21,997,-14,1,-6
701,-7,-19,997,-15,0,-5
702,-6,-19,998,-14,2,-6
703,-6,-20,998,-14,1,-5
704,-6,-19,998,-14,0,-6
705,-6,-18,997,-12,0,-7
706,-8,-18,997,-13,0,-7
707,-6,-17,998,-13,1,-7
708,-5,-20,998,-14,1,-6
709,-7,-19,998,-14,1,-5
710,-6,-19,998,-13,1,-6
711,-6,-19,998,-14,2,-6
712,-5,-19,997,-14,0,-5
713,-5,-18,998,-14,1,-4
714,-7,-19,998,-12,1,-5
715,-8,-18,998,-14,0,-5
716,-7,-18,999,-14,0,-5
717,-7,-18,996,-12,0,-6
718,-5,-19,997,-15,1,-6
719,-7,-20,995,-13,0,-6
720,-5,-20,998,-13,0,-7
721,-4,-20,996,-14,0,-6
722,-6,-19,998,-15,1,-6
723,-8,-19,997,-14,1,-6
724,-7,-19,997,-14,1,-6
725,-7,-19,997,-14,1,-5
726,-6,-20,998,-15,1,-6
727,-7,-19,998,-13,0,-6
728,-8,-21,998,-12,1,-6
729,-7,-19,997,-14,1,-5
730,-6,-19,996,-14,1,-6
731,-8,-21,997,-13,2,-5
732,-7,-19,997,-14,0,-5
733,-6,-19,998,-12,0,-6
734,-5,-21,998,-14,1,-6
735,-6,-19,999,-15,1,-6
736,-9,-18,998,-13,1,-6
737,-5,-19,997,-13,2,-6
738,-5,-18,998,-14,1,-6
739,-8,-20,998,-13,0,-6
740,-8,-21,999,-14,0,-7
741,-7,-19,998,-13,1,-6
742,-8,-17,999,-14,1,-6
743,-8,-19,998,-13,1,-6
744,-6,-18,998,-12,1,-7
745,-7,-18,998,-13,1,-6
746,-9,-18,999,-14,1,-6
747,-7,-19,997,-15,1,-7
748,-6,-20,998,-14,2,-5
749,-7,-18,998,-14,2,-6
750,-7,-18,997,-13,1,-6
751,-7,-19,998,-12,3,-6
752,-7,-18,998,-14,1,-6
753,-7,-19,998,-13,0,-6
754,-9,-19,997,-13,0,-5
755,-9,-19,997,-15,1,-6
756,-8,-21,997,-13,1,-6
757,-9,-20,998,-14,2,-5
758,-7,-19,997,-14,0,-5
759,-8,-19,997,-14,1,-6
760,-8,-19,996,-15,1,-6
761,-7,-19,997,-14,1,-6
762,-8,-19,997,-14,2,-6
763,-5,-20,997,-13,0,-6
764,-6,-18,999,-13,1,-5
765,-6,-18,998,-14,2,-6
766,-6,-18,997,-15,1,-5
767,-8,-18,999,-16,0,-6
768,-7,-19,998,-15,1,-5
769,-7,-19,997,-14,0,-5
770,-8,-19,999,-14,0,-6
771,-6,-20,999,-14,1,-6
772,-6,-19,996,-14,1,-6
773,-6,-20,997,-14,2,-6
774,-7,-19,998,-14,0,-6
775,-7,-20,998,-14,2,-6
776,-8,-19,999,-13,1,-7
777,-7,-19,997,-15,1,-7
778,-7,-18,997,-13,2,-6
779,-6,-17,999,-14,0,-6
780,-9,-18,998,-13,0,-5
781,-7,-18,998,-14,1,-6
782,-8,-19,999,-15,1,-7
783,-7,-19,995,-14,2,-6
784,-8,-18,997,-14,2,-6
785,-7,-18,999,-16,0,-6
786,-7,-18,997,-14,2,-5
787,-8,-19,999,-14,1,-6
788,-6,-20,999,-14,0,-6
789,-8,-19,996,-15,0,-6
790,-6,-19,998,-14,1,-7
791,-6,-19,999,-14,2,-6
792,-8,-20,997,-15,0,-6
793,-8,-17,998,-14,2,-6
794,-7,-19,997,-14,1,-6
795,-7,-20,997,-14,1,-5
796,-8,-21,998,-14,-1,-6
797,-6,-19,998,-13,-1,-5
798,-6,-21,998,-14,0,-6
799,-8,-20,999,-14,0,-6
800,-8,-19,999,-14,1,-6
801,-8,-20,998,-14,1,-6
802,-7,-19,998,-14,1,-6
803,-8,-20,997,-15,1,-7
804,-9,-18,997,-14,0,-5
805,-8,-18,998,-13,1,-6
806,-6,-16,999,-14,0,-6
807,-7,-18,999,-14,1,-6
808,-7,-20,999,-13,2,-6
809,-8,-19,996,-15,1,-6
810,-6,-18,997,-13,1,-6
811,-7,-18,997,-14,1,-5
812,-5,-18,999,-13,1,-6
813,-8,-20,998,-13,1,-6
814,-7,-19,998,-16,0,-6
815,-7,-19,998,-13,1,-6
816,-6,-20,997,-15,1,-6
817,-6,-19,997,-14,1,-7
818,-6,-18,997,-14,1,-7
819,-7,-19,998,-14,0,-6
820,-6,-20,998,-14,0,-5
821,-6,-20,998,-13,0,-6
822,-4,-21,998,-14,0,-6
823,-7,-19,997,-15,1,-5
824,-9,-19,997,-13,2,-6
825,-7,-21,998,-13,1,-5
826,-5,-21,998,-14,0,-6
827,-5,-18,998,-14,0,-6
828,-7,-18,999,-13,1,-5
829,-8,-19,999,-14,0,-6
830,-7,-19,997,-13,1,-5
831,-7,-19,999,-13,2,-6
832,-8,-19,996,-14,2,-6
833,-6,-19,997,-14,2,-6
834,-6,-18,998,-14,1,-6
835,-9,-18,996,-14,1,-6
836,-6,-18,997,-15,2,-4
837,-7,-20,998,-15,2,-6
838,-7,-19,998,-14,1,-7
839,-8,-18,999,-14,0,-6
840,-6,-18,998,-13,0,-6
841,-7,-17,998,-15,2,-5
842,-9,-16,999,-15,1,-5
843,-8,-19,999,-14,2,-4
844,-7,-18,998,-14,0,-5
845,-8,-20,997,-12,0,-6
846,-6,-18,997,-14,1,-6
847,-6,-20,998,-14,1,-6
848,-7,-20,998,-14,1,-5
849,-7,-19,999,-15,0,-5
850,-8,-19,997,-14,1,-6
851,-6,-19,997,-12,1,-6
852,-6,-20,998,-14,1,-6
853,-7,-20,997,-15,1,-5
854,-7,-20,998,-15,1,-6
855,-8,-18,998,-13,1,-5
856,-6,-19,997,-15,2,-5
857,-8,-20,998,-15,2,-5
858,-7,-18,998,-14,1,-5
859,-8,-20,998,-14,2,-6
860,-6,-18,997,-14,0,-6
861,-7,-17,998,-13,1,-6
862,-8,-18,997,-13,1,-7
863,-9,-18,997,-15,1,-6
864,-7,-16,997,-15,0,-6
865,-6,-17,999,-13,1,-6
866,-7,-18,998,-14,1,-6
867,-9,-20,997,-14,1,-6
868,-6,-20,998,-15,1,-6
869,-8,-19,999,-15,0,-5
870,-8,-19,998,-12,0,-4
871,-7,-19,998,-14,1,-6
872,-7,-21,998,-15,1,-6
873,-7,-20,998,-15,1,-5
874,-8,-19,998,-14,1,-6
875,-8,-20,997,-14,1,-6
876,-6,-20,997,-14,2,-5
877,-7,-20,997,-15,2,-6
878,-6,-21,998,-12,1,-6
879,-6,-19,999,-14,1,-6
880,-6,-20,998,-15,0,-5
881,-6,-20,999,-13,1,-5
882,-7,-18,999,-14,2,-6
883,-8,-19,999,-13,1,-6
884,-6,-17,998,-14,0,-6
885,-6,-19,997,-15,1,-6
886,-7,-19,998,-14,0,-5
887,-7,-19,998,-15,1,-6
888,-6,-20,998,-14,1,-6
889,-6,-18,998,-14,0,-6
890,-8,-18,997,-14,0,-5
891,-8,-19,997,-15,1,-5
892,-6,-20,998,-14,0,-6
893,-6,-19,997,-16,1,-6
894,-6,-21,997,-14,1,-6
895,-7,-20,999,-13,0,-6
896,-8,-20,996,-13,0,-5
897,-7,-22,997,-13,1,-6
898,-7,-21,998,-13,2,-6
899,-7,-19,998,-13,0,-6
900,-8,-18,998,-14,1,-6
901,-7,-18,998,-14,1,-6
902,-6,-20,998,-14,0,-6
903,-7,-19,998,-13,0,-6
904,-7,-18,998,-14,-1,-6
905,-6,-16,998,-13,0,-6
906,-5,-18,999,-13,0,-6
907,-7,-17,998,-14,0,-6
908,-7,-20,998,-13,1,-6
909,-7,-19,998,-14,1,-6
910,-8,-19,999,-12,1,-6
911,-7,-20,998,-14,1,-6
912,-7,-20,997,-15,1,-6
913,-7,-21,997,-14,1,-7
914,-7,-19,998,-14,2,-6
915,-8,-18,997,-15,1,-6
916,-7,-21,998,-14,1,-6
917,-7,-19,998,-13,1,-6
918,-8,-19,997,-14,1,-5
919,-8,-19,997,-13,1,-7
920,-6,-19,998,-14,0,-7
921,-8,-19,998,-15,1,-6
922,-7,-19,996,-14,1,-5
923,-9,-19,997,-14,1,-6
924,-7,-20,998,-14,0,-5
925,-7,-19,997,-14,0,-5
926,-6,-19,998,-14,1,-6
927,-7,-20,998,-13,1,-6
928,-7,-20,997,-14,1,-6
929,-6,-19,998,-15,2,-5
930,-6,-20,998,-14,1,-5
931,-7,-21,997,-14,1,-6
932,-5,-20,997,-12,1,-6
933,-5,-19,997,-13,1,-6
934,-6,-19,998,-14,1,-5
935,-7,-19,998,-14,0,-4
936,-8,-19,998,-14,0,-6
937,-7,-21,997,-14,1,-6
938,-8,-19,1000,-13,1,-5
939,-6,-20,999,-13,1,-5
940,-6,-20,998,-15,1,-6
941,-8,-19,998,-13,2,-6
942,-6,-18,998,-14,1,-6
943,-7,-20,998,-12,1,-5
944,-7,-18,998,-14,2,-7
945,-6,-18,998,-13,1,-5
946,-5,-18,999,-13,2,-6
947,-8,-18,998,-14,1,-5
948,-8,-19,997,-13,0,-6
949,-8,-18,998,-14,1,-6
950,-6,-20,994,-15,0,-6
951,-6,-22,998,-14,0,-7
952,-6,-19,998,-14,0,-8
953,-6,-19,998,-13,1,-7
954,-9,-19,998,-14,1,-6
955,-8,-19,998,-14,1,-6
956,-9,-18,998,-13,1,-6
957,-8,-18,996,-14,1,-5
958,-9,-17,1000,-14,1,-6
959,-8,-20,998,-14,-1,-7
960,-7,-19,999,-14,2,-5
961,-7,-20,998,-14,1,-5
962,-7,-18,997,-15,1,-7
963,-7,-20,998,-15,1,-6
964,-9,-19,998,-14,1,-6
965,-8,-20,998,-15,0,-6
966,-8,-19,998,-15,0,-5
967,-6,-20,999,-14,1,-5
968,-8,-18,998,-14,0,-6
969,-8,-19,998,-14,0,-6
970,-8,-19,998,-14,1,-6
971,-6,-21,997,-14,1,-7
972,-6,-20,997,-14,1,-6
973,-5,-18,997,-14,0,-7
974,-6,-20,997,-14,1,-6
975,-8,-20,996,-14,2,-5
976,-7,-18,998,-14,1,-5
977,-9,-20,997,-14,0,-6
978,-6,-20,998,-14,0,-6
979,-8,-20,998,-15,2,-6
980,-5,-19,997,-13,2,-6
981,-7,-16,998,-15,0,-6
982,-7,-17,998,-13,1,-6
983,-8,-20,997,-14,1,-6
984,-8,-19,998,-15,1,-5
985,-8,-21,997,-14,2,-6
986,-8,-19,998,-14,1,-6
987,-8,-21,998,-13,0,-6
988,-6,-20,996,-14,0,-6
989,-8,-21,998,-14,0,-6
990,-6,-19,998,-14,2,-8
991,-7,-19,997,-14,1,-7
992,-7,-20,999,-14,1,-5
993,-5,-20,999,-12,0,-6
994,-6,-19,999,-14,1,-6
995,-8,-19,999,-15,2,-7
996,-6,-18,998,-13,0,-6
997,-6,-20,997,-16,1,-6
998,-6,-17,999,-14,1,-5
999,-8,-19,998,-13,1,-5
1000,-8,-17,997,-14,2,-6
1001,-8,-17,997,-13,2,-6
1002,-7,-20,998,-14,1,-5
1003,-7,-18,998,-14,2,-5
1004,-6,-17,998,-14,2,-5
1005,-7,-20,998,-14,1,-5
1006,-9,-17,996,-13,0,-6
1007,-8,-18,998,-15,0,-5
1008,-7,-18,998,-13,0,-5
1009,-9,-17,997,-15,0,-6
1010,-7,-20,997,-15,1,-6
1011,-7,-19,997,-13,0,-6
1012,-8,-17,997,-13,1,-6
1013,-7,-18,999,-15,1,-5
1014,-9,-19,997,-12,1,-7
1015,-6,-18,997,-15,1,-7
1016,-6,-20,997,-13,1,-5
1017,-8,-19,997,-14,2,-4
1018,-7,-19,998,-9,-4,-8
1019,-6,-18,997,-15,1,-6
1020,-8,-19,997,-15,2,-6
1021,-8,-19,998,-12,0,-6
1022,-8,-20,997,-13,0,-6
1023,-6,-21,996,-13,0,-6
1024,-6,-18,999,-14,-1,-7
1025,-7,-20,997,-12,2,-5
1026,-9,-21,998,-14,0,-5
1027,-7,-19,997,-13,1,-6
1028,-7,-19,998,-14,0,-5
1029,-7,-20,999,-14,0,-7
1030,-6,-20,997,-14,1,-6
1031,-4,-20,997,-13,2,-6
1032,-6,-19,996,-12,1,-5
1033,-7,-18,996,-14,1,-6
1034,-7,-21,996,-14,1,-6
1035,-9,-19,998,-13,1,-5
1036,-5,-19,997,-15,1,-4
1037,-6,-19,996,-15,0,-7
1038,-6,-19,997,-15,0,-6
1039,-7,-18,997,-15,1,-6
1040,-8,-19,998,-14,2,-5
1041,-6,-19,999,-16,1,-5
1042,-6,-20,1000,-15,2,-5
1043,-7,-19,997,-16,1,-7
1044,-7,-19,999,-14,0,-7
1045,-7,-18,999,-13,1,-7
1046,-7,-19,998,-14,1,-6
1047,-9,-20,998,-12,0,-6
1048,-7,-19,998,-13,1,-6
1049,-7,-20,997,-16,3,-5
1050,-9,-18,998,-14,0,-6
1051,-9,-18,998,-12,1,-6
1052,-8,-18,999,-13,2,-6
1053,-8,-20,996,-14,1,-6
1054,-9,-19,996,-13,1,-6
1055,-6,-19,997,-14,3,-6
1056,-7,-18,995,-13,1,-6
1057,-8,-19,997,-15,0,-6
1058,-7,-20,998,-15,1,-6
1059,-6,-19,997,-12,1,-5
1060,-5,-20,997,-14,-1,-5
1061,-5,-18,998,-12,0,-6
1062,-8,-19,998,-13,1,-5
1063,-7,-21,998,-14,1,-6
1064,-7,-20,997,-15,1,-6
1065,-9,-20,996,-15,1,-6
1066,-8,-19,996,-14,1,-7
1067,-8,-19,997,-14,0,-6
1068,-7,-19,999,-14,0,-6
1069,-7,-20,996,-15,2,-5
1070,-6,-21,997,-13,1,-5
1071,-8,-19,998,-14,2,-5
1072,-7,-18,999,-16,1,-5
1073,-8,-18,997,-14,1,-5
1074,-10,-19,999,-13,2,-5
1075,-8,-20,998,-14,0,-6
1076,-9,-20,999,-14,1,-5
1077,-7,-20,997,-14,0,-6
1078,-6,-20,997,-14,1,-5
1079,-6,-20,997,-14,0,-5
1080,-7,-18,998,-15,0,-7
1081,-7,-19,997,-13,1,-6
1082,-7,-19,997,-13,1,-6
1083,-8,-19,996,-14,0,-4
1084,-7,-20,1000,-12,2,-5
1085,-8,-19,997,-13,1,-6
1086,-6,-20,996,-15,0,-6
1087,-8,-18,997,-15,0,-6
1088,-7,-20,999,-14,-1,-6
1089,-8,-20,997,-14,1,-6
1090,-7,-20,997,-14,0,-6
1091,-6,-19,997,-14,0,-7
1092,-7,-20,998,-14,0,-6
1093,-7,-19,997,-14,1,-5
1094,-7,-21,996,-14,1,-5
1095,-7,-20,997,-12,0,-6
1096,-7,-20,998,-15,1,-6
1097,-7,-18,999,-13,0,-6
1098,-7,-18,999,-12,1,-6
1099,-8,-20,999,-12,1,-6
1100,-8,-21,997,-15,1,-6
1101,-7,-20,999,-14,1,-6
1102,-5,-20,998,-13,1,-6
1103,-7,-20,999,-12,0,-5
1104,-6,-19,998,-14,1,-5
1105,-6,-19,998,-13,1,-7
1106,-7,-18,996,-15,1,-5
1107,-7,-21,997,-15,1,-6
1108,-6,-19,996,-15,1,-5
1109,-6,-19,999,-13,1,-6
1110,-8,-19,998,-14,0,-6
1111,-8,-18,998,-13,-1,-5
1112,-6,-19,997,-14,0,-6
1113,-6,-19,996,-15,2,-7
1114,-5,-19,997,-13,1,-6
1115,-8,-20,999,-15,0,-6
1116,-5,-18,997,-15,0,-6
1117,-7,-19,999,-14,0,-7
1118,-6,-19,998,-15,1,-6
1119,-7,-19,997,-14,1,-6
1120,-7,-18,997,-14,1,-6
1121,-6,-19,998,-14,0,-5
1122,-7,-20,999,-13,1,-5
1123,-6,-20,997,-15,2,-5
1124,-6,-18,998,-14,2,-5
1125,-7,-19,998,-15,0,-6
1126,-7,-19,998,-14,1,-6
1127,-7,-19,999,-13,2,-7
1128,-6,-19,999,-13,1,-6
1129,-7,-18,998,-14,1,-5
1130,-6,-18,999,-13,0,-6
1131,-6,-19,998,-14,0,-6
1132,-7,-20,998,-15,1,-5
1133,-7,-20,997,-14,0,-5
1134,-8,-19,997,-13,1,-5
1135,-9,-18,998,-14,1,-6
1136,-7,-18,998,-14,3,-5
1137,-8,-17,997,-14,0,-5
1138,-9,-18,997,-14,1,-6
1139,-9,-20,997,-12,1,-7
1140,-6,-20,996,-14,0,-7
1141,-6,-19,998,-15,0,-7
1142,-9,-20,998,-14,1,-7
1143,-7,-19,998,-15,0,-7
1144,-9,-20,996,-15,1,-7
1145,-9,-19,996,-14,1,-6
1146,-7,-18,997,-13,1,-5
1147,-7,-20,997,-14,1,-6
1148,-7,-20,998,-14,2,-5
1149,-7,-19,997,-14,2,-6
1150,-7,-20,999,-12,2,-7
1151,-7,-19,999,-14,1,-7
1152,-7,-20,999,-13,1,-7
1153,-9,-18,997,-12,1,-5
1154,-5,-19,998,-15,2,-6
1155,-7,-18,999,-14,1,-6
1156,-7,-19,998,-14,1,-5
1157,-8,-20,998,-14,0,-6
1158,-9,-19,999,-14,2,-6
1159,-7,-19,998,-14,2,-7
1160,-7,-18,997,-13,0,-6
1161,-7,-19,998,-13,1,-6
1162,-7,-20,997,-13,1,-5
1163,-8,-20,998,-14,1,-7
1164,-7,-19,998,-14,1,-6
1165,-5,-19,997,-13,1,-6
1166,-7,-18,998,-13,1,-5
1167,-7,-19,997,-13,1,-5
1168,-6,-18,998,-13,0,-5
1169,-9,-19,998,-13,2,-5
1170,-8,-19,997,-14,2,-6
1171,-9,-21,998,-14,2,-6
1172,-8,-20,999,-14,1,-5
1173,-7,-22,1000,-15,2,-6
1174,-9,-20,998,-12,1,-7
1175,-6,-20,998,-13,1,-6
1176,-7,-19,998,-13,1,-7
1177,-8,-21,997,-14,2,-7
1178,-9,-20,996,-14,2,-6
1179,-9,-20,997,-13,1,-6
1180,-6,-19,998,-14,0,-6
1181,-8,-18,999,-14,0,-7
1182,-6,-18,999,-13,1,-7
1183,-7,-18,998,-14,1,-5
1184,-7,-19,998,-15,1,-5
1185,-7,-21,999,-15,0,-7
1186,-7,-18,999,-14,0,-6
1187,-7,-19,999,-13,1,-7
1188,-5,-19,999,-14,1,-6
1189,-7,-21,998,-12,1,-6
1190,-7,-19,998,-13,1,-7
1191,-7,-20,997,-13,1,-7
1192,-8,-20,997,-14,2,-6
1193,-8,-20,998,-12,1,-6
1194,-7,-20,998,-12,1,-6
1195,-9,-18,996,-14,1,-7
1196,-8,-18,998,-14,1,-6
1197,-10,-19,998,-13,2,-6
1198,-8,-19,997,-15,1,-7
1199,-8,-19,998,-13,1,-6
1200,-7,-18,997,-13,1,-6
1201,-8,-18,998,-13,2,-6
1202,-7,-20,998,-13,2,-6
1203,-8,-19,997,-13,2,-5
1204,-7,-20,999,-14,0,-6
1205,-7,-20,998,-13,0,-7
1206,-7,-19,999,-13,0,-6
1207,-6,-19,998,-13,1,-6
1208,-6,-21,999,-14,0,-5
1209,-7,-18,996,-15,1,-5
1210,-8,-18,998,-14,1,-6
1211,-8,-18,999,-15,2,-6
1212,-8,-19,998,-14,1,-6
1213,-8,-19,998,-14,0,-5
1214,-8,-19,998,-14,0,-5
1215,-8,-20,999,-13,1,-6
1216,-7,-19,999,-15,1,-7
1217,-5,-18,999,-15,1,-5
1218,-5,-18,998,-14,1,-6
1219,-8,-19,999,-15,0,-6
1220,-6,-19,998,-14,0,-5
1221,-8,-19,998,-13,2,-6
1222,-7,-20,999,-15,1,-6
1223,-7,-19,999,-14,1,-7
1224,-7,-17,998,-14,1,-7
1225,-7,-19,998,-15,1,-6
1226,-7,-18,998,-14,1,-6
1227,-7,-19,997,-15,1,-5
1228,-7,-20,997,-13,1,-5
1229,-7,-20,997,-13,2,-6
1230,-7,-19,998,-15,1,-6
1231,-7,-19,997,-14,1,-5
1232,-7,-19,996,-14,1,-6
1233,-7,-20,998,-14,1,-7
1234,-8,-18,997,-13,0,-7
1235,-8,-18,998,-15,0,-6
1236,-7,-20,998,-14,0,-7
1237,-6,-17,999,-14,1,-7
1238,-7,-18,998,-14,0,-7
1239,-6,-20,998,-14,2,-7
1240,-8,-17,998,-14,1,-6
1241,-8,-20,1000,-15,1,-5
1242,-6,-19,997,-14,1,-6
1243,-6,-21,998,-15,1,-6
1244,-7,-19,997,-14,1,-7
1245,-7,-21,998,-14,0,-6
1246,-7,-18,997,-12,2,-4
1247,-5,-19,999,-13,1,-4
1248,-8,-20,998,-12,1,-6
1249,-5,-20,998,-14,1,-6
1250,-8,-17,997,-14,1,-6
1251,-6,-20,996,-14,1,-5
1252,-6,-18,998,-14,0,-6
1253,-6,-19,998,-14,0,-5
1254,-6,-19,998,-14,1,-6
1255,-10,-20,997,-14,1,-5
1256,-7,-20,998,-15,2,-6
1257,-7,-21,997,-14,1,-6
1258,-6,-19,997,-14,2,-6
1259,-7,-18,997,-15,0,-5
1260,-6,-18,998,-14,-1,-5
1261,-8,-18,996,-13,0,-6
1262,-9,-20,997,-14,1,-6
1263,-8,-18,997,-13,2,-5
1264,-7,-20,997,-14,3,-6
1265,-8,-19,998,-15,2,-6
1266,-8,-18,997,-13,1,-6
1267,-8,-19,998,-13,1,-5
1268,-9,-18,996,-13,1,-6
1269,-8,-18,998,-14,0,-7
1270,-9,-18,998,-14,1,-6
1271,-9,-18,999,-14,1,-5
1272,-7,-20,997,-15,2,-5
1273,-7,-18,998,-14,1,-6
1274,-8,-19,997,-13,0,-5
1275,-8,-18,998,-13,1,-6
1276,-6,-20,998,-14,1,-6
1277,-7,-20,998,-15,1,-6
1278,-8,-21,999,-15,0,-6
1279,-9,-18,997,-13,1,-6
1280,-6,-18,998,-14,2,-7
1281,-8,-20,997,-14,2,-6
1282,-6,-20,998,-13,1,-6
1283,-7,-19,998,-12,1,-6
1284,-8,-21,999,-13,2,-5
1285,-7,-19,998,-15,2,-5
1286,-8,-19,998,-13,1,-6
1287,-7,-19,998,-13,0,-6
1288,-8,-21,998,-15,1,-5
1289,-9,-20,997,-14,1,-7
1290,-6,-19,997,-14,1,-6
1291,-8,-18,996,-14,1,-5
1292,-7,-21,999,-14,1,-5
1293,-6,-19,998,-14,1,-5
1294,-6,-18,998,-14,2,-5
1295,-6,-18,999,-13,2,-6
1296,-7,-20,998,-13,1,-6
1297,-7,-18,999,-14,1,-5
1298,-7,-20,997,-15,1,-5
1299,-9,-18,998,-13,0,-6
1300,-5,-20,998,-15,1,-6
1301,-8,-20,998,-12,1,-6
1302,-9,-19,997,-14,0,-7
1303,-9,-19,997,-13,1,-6
1304,-9,-20,997,-14,1,-8
1305,-8,-19,998,-13,1,-7
1306,-7,-19,998,-14,1,-6
1307,-8,-18,998,-14,1,-6
1308,-5,-19,999,-15,1,-6
1309,-7,-18,997,-13,2,-7
1310,-5,-19,997,-15,2,-6
1311,-7,-17,997,-15,1,-5
1312,-6,-18,997,-14,1,-6
1313,-8,-20,998,-14,1,-6
1314,-7,-20,997,-14,-1,-6
1315,-8,-18,997,-13,1,-6
1316,-7,-19,998,-14,2,-5
1317,-9,-20,997,-13,1,-6
1318,-8,-19,998,-14,2,-6
1319,-7,-19,997,-15,1,-6
1320,-8,-19,998,-15,1,-5
1321,-7,-18,998,-15,0,-6
1322,-7,-20,997,-15,0,-5
1323,-8,-20,997,-13,1,-6
1324,-6,-19,997,-14,0,-5
1325,-8,-21,998,-14,2,-5
1326,-6,-20,999,-15,0,-6
1327,-9,-19,998,-14,1,-6
1328,-8,-18,996,-15,1,-6
1329,-6,-19,999,-14,1,-5
1330,-6,-17,998,-14,1,-6
1331,-8,-20,996,-13,1,-7
1332,-9,-19,997,-14,2,-5
1333,-8,-19,998,-15,0,-6
1334,-6,-18,998,-14,2,-6
1335,-7,-19,998,-13,2,-4
1336,-8,-17,997,-13,2,-5
1337,-10,-20,999,-13,1,-5
1338,-9,-18,996,-14,1,-5
1339,-6,-21,999,-13,1,-6
1340,-6,-21,997,-15,1,-6
1341,-7,-18,997,-14,1,-6
1342,-6,-18,997,-14,1,-6
1343,-7,-19,997,-13,1,-5
1344,-7,-19,998,-14,0,-7
1345,-6,-18,999,-13,0,-6
1346,-7,-19,999,-14,0,-6
1347,-7,-20,998,-14,0,-6
1348,-6,-19,998,-15,2,-5
1349,-8,-18,998,-14,3,-6
1350,-7,-20,998,-13,1,-6
1351,-8,-19,997,-13,1,-7
1352,-7,-19,998,-15,3,-5
1353,-7,-19,998,-14,2,-6
1354,-7,-19,995,-15,0,-6
1355,-6,-19,997,-14,0,-6
1356,-6,-20,1000,-14,0,-6
1357,-9,-19,999,-15,0,-6
1358,-6,-19,1000,-12,1,-7
1359,-6,-19,999,-14,0,-7
1360,-6,-19,998,-14,0,-5
1361,-7,-19,998,-13,0,-7
1362,-7,-19,996,-14,1,-6
1363,-8,-19,997,-14,1,-5
1364,-8,-20,998,-13,1,-7
1365,-8,-19,997,-14,1,-5
1366,-8,-20,998,-13,1,-6
1367,-6,-20,999,-14,1,-7
1368,-6,-18,998,-14,0,-7
1369,-7,-19,999,-15,1,-5
1370,-8,-19,997,-15,1,-6
1371,-7,-18,996,-12,0,-6
1372,-7,-19,998,-14,0,-6
1373,-9,-20,998,-13,1,-6
1374,-7,-19,999,-14,0,-5
1375,-7,-18,996,-13,1,-6
1376,-7,-19,997,-13,1,-6
1377,-8,-19,998,-14,1,-6
1378,-6,-17,999,-13,1,-7
1379,-8,-19,997,-14,1,-6
1380,-6,-19,997,-14,0,-7
1381,-8,-19,998,-14,0,-7
1382,-8,-19,998,-14,-1,-5
1383,-8,-20,998,-13,0,-6
1384,-8,-20,999,-13,1,-6
1385,-8,-19,998,-14,1,-5
1386,-5,-19,998,-14,1,-5
1387,-8,-19,998,-13,1,-5
1388,-7,-19,996,-14,1,-6
1389,-9,-19,997,-14,1,-8
1390,-7,-19,999,-14,1,-6
1391,-6,-20,996,-14,2,-6
1392,-8,-18,998,-14,1,-6
1393,-8,-17,999,-14,1,-7
1394,-8,-19,998,-14,0,-6
1395,-8,-20,999,-15,0,-6
1396,-7,-20,997,-13,1,-6
1397,-5,-19,997,-13,1,-5
1398,-7,-17,998,-13,0,-7
1399,-6,-19,997,-14,1,-6
1400,-6,-19,997,-13,0,-6
1401,-4,-19,998,-13,0,-6
1402,-6,-19,998,-15,1,-5
1403,-7,-19,996,-13,1,-5
1404,-7,-19,999,-14,1,-5
1405,-6,-19,999,-15,0,-6
1406,-7,-19,999,-14,0,-6
1407,-6,-20,996,-15,0,-6
1408,-6,-18,997,-13,1,-5
1409,-8,-19,997,-15,0,-5
1410,-8,-18,997,-14,1,-6
1411,-9,-20,998,-15,1,-6
1412,-7,-19,998,-12,1,-5
1413,-7,-19,998,-13,0,-6
1414,-8,-20,998,-15,1,-7
1415,-6,-20,997,-12,2,-7
1416,-6,-19,998,-14,3,-6
1417,-8,-19,997,-14,1,-6
1418,-5,-20,998,-14,1,-5
1419,-8,-20,997,-14,1,-5
1420,-6,-19,999,-14,0,-6
1421,-8,-19,997,-12,0,-7
1422,-7,-20,998,-13,0,-7
1423,-5,-18,996,-13,1,-5
1424,-7,-19,997,-14,1,-5
1425,-7,-19,996,-14,0,-5
1426,-5,-18,996,-14,2,-5
1427,-9,-18,997,-14,1,-5
1428,-6,-20,998,-13,1,-6
1429,-7,-19,999,-15,0,-5
1430,-6,-19,997,-14,1,-6
1431,-5,-22,997,-14,1,-5
1432,-9,-20,997,-15,0,-7
1433,-6,-18,1000,-15,1,-6
1434,-7,-19,997,-13,0,-6
1435,-8,-19,998,-14,1,-7
1436,-6,-20,998,-12,1,-5
1437,-8,-19,999,-15,1,-5
1438,-9,-19,998,-14,0,-5
1439,-9,-19,999,-14,1,-6
1440,-6,-19,998,-15,1,-6
1441,-8,-17,999,-15,1,-6
1442,-8,-19,998,-14,1,-7
1443,-6,-18,997,-12,1,-6
1444,-6,-19,997,-14,1,-7
1445,-7,-20,999,-15,0,-6
1446,-7,-19,997,-14,1,-7
1447,-6,-19,999,-16,0,-8
1448,-8,-21,998,-15,-1,-6
1449,-5,-21,996,-14,1,-5
1450,-6,-17,999,-13,1,-6
1451,-7,-19,997,-14,1,-7
1452,-6,-20,997,-14,1,-5
1453,-7,-19,997,-13,2,-6
1454,-6,-20,997,-14,2,-6
1455,-8,-20,997,-15,1,-5
1456,-6,-20,998,-12,0,-6
1457,-7,-20,997,-12,0,-6
1458,-8,-20,997,-14,1,-6
1459,-7,-18,998,-14,1,-6
1460,-6,-18,998,-15,1,-4
1461,-5,-18,997,-13,1,-5
1462,-7,-19,996,-13,1,-6
1463,-7,-18,998,-12,0,-6
1464,-6,-19,997,-13,1,-6
1465,-7,-18,997,-13,2,-7
1466,-8,-18,997,-13,1,-6
1467,-6,-19,997,-13,2,-5
1468,-5,-19,997,-14,1,-6
1469,-6,-19,997,-14,1,-5
1470,-7,-20,998,-14,0,-6
1471,-8,-18,998,-13,2,-4
1472,-9,-19,997,-12,1,-6
1473,-6,-19,999,-14,1,-5
1474,-7,-19,998,-12,2,-7
1475,-7,-21,998,-13,1,-6
1476,-4,-20,998,-14,1,-6
1477,-6,-18,998,-15,1,-6
1478,-6,-21,997,-15,0,-6
1479,-7,-20,998,-13,1,-7
1480,-6,-19,998,-13,0,-6
1481,-8,-20,997,-14,2,-7
1482,-7,-19,997,-14,0,-6
1483,-8,-19,998,-14,0,-7
1484,-9,-19,997,-14,-1,-6
1485,-7,-19,998,-13,0,-6
1486,-7,-19,998,-15,1,-6
1487,-6,-19,996,-12,1,-5
1488,-8,-18,998,-14,2,-6
1489,-6,-19,996,-15,1,-7
1490,-8,-20,997,-13,1,-6
1491,-6,-20,996,-14,1,-6
1492,-7,-18,998,-14,1,-5
1493,-8,-19,998,-13,1,-6
1494,-9,-19,999,-14,1,-5
1495,-7,-18,996,-14,1,-5
1496,-8,-20,997,-13,1,-6
1497,-5,-18,999,-13,2,-6
1498,-8,-19,998,-13,1,-6
1499,-8,-19,999,-13,1,-5
1500,-5,-19,998,-14,1,-6
1501,-6,-20,998,-13,1,-5
1502,-9,-20,997,-15,1,-5
1503,-7,-20,997,-14,1,-6
1504,-8,-18,997,-15,0,-5
1505,-6,-21,999,-13,0,-6
1506,-7,-18,997,-14,0,-6
1507,-6,-20,997,-16,1,-5
1508,-5,-20,998,-14,0,-7
1509,-7,-20,997,-14,2,-7
1510,-8,-18,997,-13,2,-6
1511,-6,-19,998,-15,1,-6
1512,-7,-20,997,-15,1,-6
1513,-5,-18,997,-14,1,-4
1514,-9,-19,998,-14,1,-5
1515,-7,-17,999,-15,1,-6
1516,-8,-19,997,-14,1,-6
1517,-7,-19,998,-16,1,-6
1518,-7,-19,997,-14,0,-6
1519,-6,-18,999,-14,0,-6
1520,-9,-20,998,-14,2,-6
1521,-7,-22,998,-12,1,-6
1522,-8,-19,998,-15,1,-6
1523,-7,-18,997,-15,0,-6
1524,-8,-19,998,-13,0,-6
1525,-7,-18,998,-14,1,-6
1526,-9,-19,998,-15,0,-4
1527,-7,-17,997,-14,2,-4
1528,-8,-18,998,-14,1,-5
1529,-8,-19,997,-14,1,-5
1530,-8,-18,997,-13,0,-6
1531,-8,-18,996,-13,1,-5
1532,-7,-16,997,-13,1,-5
1533,-7,-19,997,-14,0,-5
1534,-6,-18,999,-14,1,-5
1535,-5,-19,998,-14,1,-6
1536,-7,-19,998,-15,1,-6
1537,-8,-20,996,-14,1,-5
1538,-8,-19,998,-14,2,-5
1539,-7,-17,1000,-13,0,-4
1540,-7,-18,997,-14,1,-5
1541,-7,-19,998,-14,1,-5
1542,-8,-19,998,-14,1,-6
1543,-7,-19,996,-14,0,-6
1544,-8,-17,998,-14,0,-6
1545,-6,-18,999,-13,0,-6
1546,-7,-18,1001,-14,0,-6
1547,-8,-19,998,-14,0,-4
1548,-8,-18,998,-14,0,-5
1549,-5,-17,997,-14,1,-6
1550,-8,-19,999,-14,0,-6
1551,-6,-19,998,-14,2,-6
1552,-7,-19,998,-14,3,-7
1553,-8,-19,996,-14,0,-6
1554,-7,-21,998,-14,1,-5
1555,-7,-17,998,-13,1,-5
1556,-6,-18,996,-14,1,-6
1557,-8,-18,997,-13,3,-5
1558,-8,-20,997,-14,1,-6
1559,-7,-19,996,-13,1,-6
1560,-6,-19,998,-13,1,-7
1561,-6,-19,998,-15,1,-8
1562,-6,-20,997,-14,0,-6
1563,-7,-19,998,-13,0,-7
1564,-7,-18,997,-14,2,-6
1565,-7,-19,998,-13,1,-6
1566,-7,-19,998,-13,1,-6
1567,-9,-19,998,-13,1,-5
1568,-7,-19,997,-15,0,-6
1569,-9,-18,998,-14,0,-5
1570,-7,-18,998,-15,1,-4
1571,-7,-18,998,-14,0,-7
1572,-8,-18,998,-14,1,-6
1573,-6,-19,999,-14,0,-7
1574,-8,-20,998,-15,1,-6
1575,-9,-21,999,-14,1,-6
1576,-8,-20,998,-14,1,-5
1577,-9,-19,997,-14,0,-5
1578,-7,-18,999,-14,0,-6
1579,-8,-19,998,-14,1,-5
1580,-7,-20,999,-13,1,-5
1581,-6,-20,998,-15,1,-5
1582,-6,-19,998,-13,1,-6
1583,-8,-19,998,-14,1,-6
1584,-6,-20,997,-13,1,-5
1585,-7,-20,997,-14,0,-6
1586,-7,-19,997,-14,1,-5
1587,-7,-19,997,-13,1,-6
1588,-5,-20,998,-13,1,-5
1589,-6,-20,999,-13,0,-5
1590,-7,-18,998,-13,2,-6
1591,-9,-19,997,-14,2,-7
1592,-6,-21,999,-13,2,-6
1593,-8,-20,998,-14,1,-6
1594,-8,-19,998,-14,0,-5
1595,-8,-18,997,-15,0,-5
1596,-5,-19,997,-13,1,-6
1597,-8,-19,997,-14,1,-6
1598,-9,-20,998,-14,2,-4
1599,-7,-19,997,-14,1,-5
1600,-8,-19,998,-15,1,-5
1601,-7,-18,996,-14,1,-5
1602,-6,-20,997,-15,1,-6
1603,-6,-19,997,-13,1,-6
1604,-6,-21,997,-13,0,-5
1605,-9,-19,997,-13,-1,-5
1606,-7,-19,996,-13,1,-6
1607,-8,-19,996,-14,2,-7
1608,-7,-19,999,-14,1,-6
1609,-6,-20,996,-13,1,-6
1610,-8,-19,998,-14,0,-5
1611,-6,-19,997,-15,2,-3
1612,-6,-17,998,-13,1,-5
1613,-9,-20,997,-12,2,-6
1614,-6,-20,999,-14,2,-6
1615,-7,-18,998,-13,1,-6
1616,-8,-18,998,-14,1,-6
1617,-8,-18,999,-14,0,-6
1618,-6,-18,997,-14,2,-5
1619,-6,-19,999,-14,1,-6
1620,-7,-19,998,-14,1,-5
1621,-6,-18,997,-14,0,-5
1622,-6,-21,998,-14,2,-5
1623,-6,-20,997,-15,0,-6
1624,-7,-19,997,-14,0,-7
1625,-6,-20,999,-14,1,-5
1626,-8,-19,998,-13,1,-5
1627,-7,-19,998,-12,1,-6
1628,-6,-19,997,-14,0,-5
1629,-7,-20,997,-13,2,-6
1630,-8,-21,996,-14,1,-5
1631,-9,-20,997,-13,2,-5
1632,-6,-21,998,-14,1,-6
1633,-5,-19,997,-14,1,-6
1634,-5,-18,998,-13,1,-5
1635,-7,-20,997,-14,2,-6
1636,-8,-19,998,-13,1,-6
1637,-8,-19,998,-15,1,-6
1638,-8,-20,998,-16,1,-6
1639,-7,-19,997,-15,0,-6
1640,-6,-20,998,-14,1,-6
1641,-7,-19,998,-14,1,-6
1642,-7,-21,997,-13,1,-6
1643,-7,-20,998,-15,2,-5
1644,-7,-20,1000,-14,0,-5
1645,-6,-20,998,-15,1,-6
1646,-9,-20,998,-15,1,-6
1647,-8,-20,998,-14,1,-5
1648,-9,-19,997,-15,1,-5
1649,-5,-18,997,-13,0,-5
1650,-7,-19,998,-13,1,-6
1651,-7,-19,997,-15,1,-7
1652,-7,-20,996,-14,0,-6
1653,-7,-20,999,-14,0,-6
1654,-8,-20,997,-14,1,-5
1655,-9,-20,998,-14,1,-6
1656,-7,-18,998,-13,0,-6
1657,-8,-18,998,-13,1,-7
1658,-9,-19,996,-15,2,-6
1659,-8,-20,997,-15,2,-7
1660,-8,-19,998,-13,1,-7
1661,-8,-19,998,-14,1,-6
1662,-8,-18,999,-14,0,-6
1663,-8,-20,997,-14,0,-6
1664,-7,-18,998,-13,0,-6
1665,-8,-19,998,-14,2,-6
1666,-6,-18,998,-13,1,-6
1667,-6,-20,999,-13,1,-7
1668,-6,-19,999,-14,0,-7
1669,-6,-19,998,-12,1,-7
1670,-8,-20,999,-14,2,-5
1671,-5,-19,997,-14,2,-6
1672,-8,-19,999,-14,1,-6
1673,-6,-19,998,-14,0,-6
1674,-7,-19,998,-13,2,-6
1675,-5,-18,1000,-15,1,-5
1676,-5,-19,998,-15,1,-4
1677,-7,-19,997,-14,1,-4
1678,-6,-19,998,-13,2,-6
1679,-7,-18,998,-14,2,-6
1680,-7,-19,998,-14,0,-6
1681,-7,-18,999,-14,1,-5
1682,-8,-19,998,-13,1,-6
1683,-8,-18,999,-13,2,-5
1684,-7,-19,998,-14,2,-6
1685,-6,-18,997,-13,0,-5
1686,-8,-19,999,-13,0,-7
1687,-5,-19,999,-13,-3,-8
1688,-6,-20,998,-7,0,-8
1689,-7,-20,996,-16,1,-5
1690,-8,-19,998,-13,1,-7
1691,-8,-19,999,-15,0,-6
1692,-8,-19,997,-15,0,-5
1693,-4,-19,998,-14,0,-5
1694,-6,-18,999,-13,1,-5
1695,-6,-18,998,-13,1,-6
1696,-4,-20,997,-14,2,-5
1697,-6,-22,997,-15,0,-5
1698,-6,-20,997,-13,1,-5
1699,-8,-19,997,-14,1,-4
1700,-6,-18,997,-14,2,-6
1701,-7,-19,998,-15,1,-6
1702,-7,-20,997,-14,1,-5
1703,-8,-18,998,-14,0,-5
1704,-8,-18,998,-14,1,-5
1705,-6,-19,997,-13,1,-4
1706,-7,-18,997,-14,1,-6
1707,-7,-21,997,-14,1,-6
1708,-9,-19,998,-12,0,-5
1709,-5,-20,996,-15,1,-5
1710,-7,-19,997,-13,1,-7
1711,-8,-19,996,-14,1,-6
1712,-9,-20,996,-14,0,-6
1713,-5,-19,998,-13,-1,-6
1714,-5,-19,997,-14,2,-6
1715,-9,-20,997,-13,0,-6
1716,-6,-18,998,-14,0,-7
1717,-8,-18,998,-13,1,-5
1718,-7,-19,999,-14,1,-6
1719,-6,-19,998,-14,1,-5
1720,-6,-20,997,-15,1,-5
1721,-6,-18,999,-14,2,-6
1722,-7,-18,998,-14,1,-6
1723,-6,-20,998,-13,1,-6
1724,-7,-19,997,-12,0,-6
1725,-6,-20,997,-13,0,-7
1726,-7,-19,997,-13,1,-7
1727,-7,-19,998,-14,1,-7
1728,-6,-19,999,-13,2,-7
1729,-7,-20,998,-13,1,-6
1730,-7,-19,999,-13,1,-7
1731,-6,-19,998,-14,0,-7
1732,-6,-18,998,-13,1,-6
1733,-7,-19,998,-15,1,-6
1734,-7,-19,999,-14,0,-6
1735,-5,-19,997,-15,0,-5
1736,-6,-19,998,-16,1,-4
1737,-6,-18,998,-15,1,-5
1738,-8,-20,997,-13,1,-6
1739,-9,-19,996,-13,1,-4
1740,-8,-21,998,-14,1,-6
1741,-5,-20,999,-14,-1,-6
1742,-7,-20,999,-15,-1,-6
1743,-7,-19,997,-14,1,-7
1744,-7,-20,996,-16,2,-5
1745,-7,-19,997,-15,1,-6
1746,-6,-19,999,-13,1,-5
1747,-7,-19,999,-14,1,-6
1748,-6,-20,999,-15,1,-6
1749,-7,-20,998,-14,1,-6
1750,-6,-20,999,-13,1,-6
1751,-6,-19,1000,-14,0,-5
1752,-7,-19,998,-15,1,-6
1753,-6,-19,998,-14,1,-6
1754,-6,-20,998,-15,1,-5
1755,-7,-18,999,-13,1,-6
1756,-8,-20,999,-14,0,-6
1757,-8,-20,997,-16,1,-6
1758,-8,-20,999,-13,1,-6
1759,-6,-19,997,-13,1,-6
1760,-7,-20,998,-13,1,-6
1761,-7,-22,997,-14,1,-6
1762,-8,-19,997,-13,1,-7
1763,-5,-19,998,-15,0,-6
1764,-8,-20,999,-15,0,-6
1765,-10,-20,998,-14,2,-6
1766,-8,-19,998,-13,0,-5
1767,-8,-20,997,-13,1,-5
1768,-9,-18,998,-13,1,-6
1769,-7,-17,997,-13,1,-6
1770,-8,-18,997,-13,1,-5
1771,-8,-18,998,-14,1,-5
1772,-6,-19,997,-13,1,-5
1773,-6,-18,998,-13,0,-5
1774,-6,-20,998,-13,0,-6
1775,-6,-18,1000,-14,1,-6
1776,-8,-18,998,-15,0,-6
1777,-7,-19,998,-14,1,-6
1778,-7,-18,997,-14,2,-6
1779,-9,-18,998,-14,2,-6
1780,-7,-20,998,-13,2,-6
1781,-6,-19,1000,-15,0,-6
1782,-7,-19,997,-13,1,-7
1783,-8,-19,996,-14,1,-6
1784,-6,-18,1000,-15,1,-6
1785,-6,-22,997,-15,1,-5
1786,-7,-19,998,-15,1,-7
1787,-6,-19,998,-14,1,-7
1788,-5,-17,998,-15,0,-6
1789,-8,-18,999,-14,1,-5
1790,-7,-21,996,-14,1,-6
1791,-7,-19,998,-15,1,-5
1792,-7,-18,998,-13,2,-6
1793,-8,-19,998,-14,0,-7
1794,-7,-19,998,-14,-1,-6
1795,-7,-18,996,-14,1,-5
1796,-6,-20,997,-14,0,-5
1797,-6,-21,998,-13,2,-5
1798,-7,-18,998,-14,0,-7
1799,-7,-19,999,-15,1,-5
1800,-6,-19,997,-14,0,-6
1801,-7,-17,997,-13,1,-7
1802,-7,-18,997,-14,0,-5
1803,-8,-18,997,-14,0,-4
1804,-6,-17,998,-15,0,-5
1805,-4,-19,997,-13,2,-6
1806,-5,-19,998,-14,1,-6
1807,-4,-19,998,-14,1,-6
1808,-6,-18,998,-14,2,-6
1809,-8,-19,998,-13,0,-6
1810,-7,-19,998,-12,2,-5
1811,-6,-16,997,-15,1,-5
1812,-7,-19,997,-13,1,-6
1813,-8,-20,998,-13,2,-6
1814,-9,-20,998,-14,1,-6
1815,-8,-18,996,-13,2,-5
1816,-8,-19,998,-14,1,-6
1817,-8,-18,998,-13,0,-5
1818,-7,-16,998,-15,1,-5
1819,-8,-19,997,-14,2,-5
1820,-7,-20,997,-13,0,-5
1821,-6,-18,998,-14,1,-5
1822,-7,-19,996,-14,2,-7
1823,-8,-20,998,-13,1,-6
1824,-8,-19,997,-14,1,-6
1825,-7,-19,998,-14,0,-7
1826,-7,-20,997,-13,1,-7
1827,-7,-21,997,-14,1,-7
1828,-6,-20,998,-14,1,-6
1829,-4,-19,998,-13,1,-6
1830,-7,-19,999,-14,2,-6
1831,-7,-20,999,-14,0,-6
1832,-6,-19,998,-13,0,-6
1833,-7,-20,997,-14,1,-5
1834,-8,-20,996,-15,1,-5
1835,-6,-19,997,-14,1,-6
1836,-7,-20,998,-14,1,-6
1837,-7,-21,999,-14,1,-6
1838,-8,-21,997,-14,1,-6
1839,-9,-19,997,-13,1,-5
1840,-7,-19,996,-14,1,-6
1841,-7,-20,997,-14,0,-6
1842,-7,-20,999,-13,1,-6
1843,-7,-18,998,-14,1,-5
1844,-6,-19,998,-14,1,-6
1845,-7,-19,997,-14,0,-8
1846,-8,-18,997,-14,0,-7
1847,-6,-18,996,-14,0,-7
1848,-6,-19,996,-13,0,-6
1849,-6,-18,999,-14,1,-6
1850,-6,-19,998,-14,1,-6
1851,-8,-20,998,-14,2,-5
1852,-7,-20,997,-14,1,-7
1853,-6,-20,998,-15,1,-6
1854,-8,-19,999,-15,1,-6
1855,-6,-19,997,-13,1,-7
1856,-5,-20,998,-14,0,-7
1857,-7,-20,997,-14,2,-6
1858,-6,-19,997,-14,1,-6
1859,-6,-19,999,-15,1,-6
1860,-7,-20,999,-14,0,-6
1861,-7,-20,998,-14,1,-6
1862,-9,-19,998,-14,2,-5
1863,-8,-20,998,-12,1,-5
1864,-6,-17,997,-13,2,-4
1865,-5,-17,998,-13,0,-5
1866,-7,-19,998,-15,1,-5
1867,-7,-18,996,-13,0,-5
1868,-8,-17,998,-14,1,-5
1869,-7,-19,999,-15,2,-5
1870,-8,-20,998,-13,1,-5
1871,-9,-18,997,-12,0,-6
1872,-9,-20,997,-14,1,-5
1873,-6,-20,998,-14,2,-6
1874,-9,-20,997,-14,1,-6
1875,-9,-19,998,-14,1,-5
1876,-9,-18,998,-12,0,-6
1877,-7,-19,999,-15,0,-7
1878,-7,-20,998,-12,0,-6
1879,-7,-20,998,-13,1,-6
1880,-7,-19,997,-15,1,-5
1881,-6,-18,998,-14,1,-5
1882,-7,-19,998,-13,1,-5
1883,-8,-18,998,-15,0,-6
1884,-7,-19,998,-14,0,-6
1885,-8,-19,999,-14,0,-6
1886,-7,-20,999,-15,1,-6
1887,-6,-19,998,-15,0,-5
1888,-7,-20,996,-14,1,-6
1889,-8,-20,996,-15,1,-5
1890,-6,-18,997,-14,0,-6
1891,-7,-18,998,-15,1,-7
1892,-8,-18,999,-13,0,-5
1893,-8,-20,998,-14,1,-4
1894,-7,-20,998,-13,2,-7
1895,-6,-20,996,-13,1,-8
1896,-7,-20,997,-14,0,-7
1897,-5,-21,997,-13,0,-5
1898,-8,-19,999,-13,1,-6
1899,-9,-17,997,-13,2,-5
1900,-5,-19,996,-13,1,-6
1901,-6,-20,997,-13,0,-7
1902,-7,-20,998,-14,0,-6
1903,-6,-19,998,-13,0,-6
1904,-6,-20,996,-13,1,-5
1905,-7,-20,997,-14,2,-5
1906,-9,-20,997,-14,2,-7
1907,-7,-20,999,-14,1,-7
1908,-6,-18,997,-13,1,-6
1909,-8,-19,997,-14,1,-6
1910,-6,-19,997,-14,1,-5
1911,-6,-20,997,-14,1,-5
1912,-7,-20,998,-15,1,-5
1913,-8,-19,999,-15,0,-6
1914,-7,-18,998,-14,1,-4
1915,-6,-19,998,-13,1,-6
1916,-6,-19,998,-13,0,-6
1917,-6,-19,998,-12,2,-5
1918,-6,-20,999,-13,1,-5
1919,-6,-18,999,-14,1,-5
1920,-8,-20,997,-15,2,-5
1921,-8,-19,996,-16,1,-5
1922,-7,-20,998,-15,-1,-5
1923,-8,-19,997,-14,0,-6
1924,-7,-17,997,-13,1,-5
1925,-7,-18,998,-13,1,-5
1926,-7,-18,997,-14,1,-6
1927,-7,-17,998,-14,0,-5
1928,-6,-18,997,-14,0,-5
1929,-7,-20,997,-15,1,-6
1930,-6,-20,997,-15,1,-6
1931,-5,-20,997,-15,2,-6
1932,-6,-20,999,-14,1,-6
1933,-7,-18,998,-15,1,-7
1934,-8,-20,998,-15,1,-6
1935,-8,-18,998,-14,0,-6
1936,-7,-18,998,-15,1,-5
1937,-7,-20,999,-14,1,-6
1938,-9,-20,998,-13,2,-5
1939,-9,-20,997,-14,1,-6
1940,-8,-21,998,-13,1,-6
1941,-8,-20,997,-13,1,-5
1942,-9,-17,998,-14,0,-5
1943,-6,-20,998,-12,2,-5
1944,-9,-19,998,-15,1,-5
1945,-6,-19,998,-13,2,-5
1946,-6,-18,997,-15,0,-5
1947,-6,-18,998,-14,0,-5
1948,-9,-18,997,-14,0,-5
1949,-8,-18,999,-15,2,-5
1950,-6,-18,997,-13,1,-5
1951,-6,-19,998,-13,1,-6
1952,-7,-20,998,-14,-1,-7
1953,-6,-19,996,-15,0,-6
1954,-8,-19,997,-13,1,-6
1955,-7,-19,997,-13,1,-6
1956,-7,-20,997,-14,2,-6
1957,-9,-18,995,-15,0,-6
1958,-6,-19,997,-13,1,-6
1959,-5,-18,999,-13,2,-6
1960,-7,-18,998,-15,0,-6
1961,-7,-20,998,-14,0,-6
1962,-7,-19,998,-14,1,-6
1963,-6,-19,999,-13,1,-7
1964,-6,-19,997,-15,0,-7
1965,-7,-17,999,-14,1,-5
1966,-7,-19,999,-15,1,-5
1967,-7,-21,999,-14,1,-6
1968,-5,-19,998,-13,2,-5
1969,-7,-17,999,-14,2,-5
1970,-8,-20,998,-14,1,-5
1971,-8,-19,998,-14,1,-6
1972,-7,-20,996,-15,2,-5
1973,-8,-21,998,-13,0,-7
1974,-5,-20,996,-14,0,-6
1975,-7,-20,997,-13,1,-5
1976,-7,-19,997,-13,1,-6
1977,-7,-18,998,-15,0,-6
1978,-6,-18,997,-14,0,-7
1979,-8,-19,998,-14,1,-5
1980,-7,-19,997,-14,1,-6
1981,-7,-18,997,-14,1,-6
1982,-9,-20,997,-12,1,-7
1983,-7,-21,996,-14,2,-5
1984,-9,-19,997,-14,1,-6
1985,-7,-19,999,-13,2,-6
1986,-6,-19,997,-14,2,-6
1987,-7,-19,997,-14,1,-6
1988,-8,-19,996,-13,1,-6
1989,-7,-20,997,-14,0,-5
1990,-8,-19,998,-14,1,-5
1991,-7,-18,1000,-14,1,-5
1992,-5,-19,998,-15,3,-4
1993,-7,-18,998,-14,1,-5
1994,-6,-21,998,-14,0,-5
1995,-8,-18,997,-13,1,-6
1996,-5,-20,996,-13,0,-6
1997,-7,-19,997,-14,1,-7
1998,-7,-20,997,-15,2,-6
1999,-7,-19,996,-14,2,-6
2000,-9,-20,997,-14,2,-5
2001,-6,-19,997,-14,1,-6
2002,-9,-20,997,-16,1,-5
2003,-8,-18,997,-13,1,-6
2004,-6,-20,997,-14,1,-6
2005,-9,-19,997,-12,0,-6
2006,-7,-18,999,-13,0,-6
2007,-7,-19,999,-15,0,-6
2008,-6,-18,998,-15,1,-6
2009,-6,-19,998,-14,1,-5
2010,-8,-19,998,-14,1,-5
2011,-6,-20,996,-13,2,-6
2012,-7,-20,999,-14,1,-5
2013,-7,-20,998,-14,1,-5
2014,-7,-21,997,-14,1,-6
2015,-5,-18,997,-13,0,-6
2016,-8,-20,998,-14,0,-6
2017,-7,-17,997,-14,0,-6
2018,-7,-20,999,-14,2,-6
2019,-8,-19,998,-14,0,-7
2020,-7,-19,999,-14,1,-5
2021,-6,-19,1000,-14,0,-6
2022,-6,-18,998,-13,1,-4
2023,-6,-19,997,-14,1,-5
2024,-10,-20,998,-14,1,-6
2025,-8,-18,998,-13,1,-6
2026,-9,-19,996,-14,1,-5
2027,-10,-20,999,-14,1,-5
2028,-6,-18,998,-14,2,-6
2029,-7,-20,998,-13,1,-5
2030,-7,-18,998,-13,1,-6
2031,-6,-20,997,-15,2,-5
2032,-6,-19,999,-13,0,-6
2033,-8,-20,1000,-18,-1,-7
2034,-8,-20,998,-13,0,-6
2035,-7,-18,997,-14,2,-5
2036,-6,-19,998,-16,1,-5
2037,-6,-22,997,-13,0,-6
2038,-7,-20,998,-14,1,-6
2039,-7,-19,997,-14,1,-5
2040,-6,-19,998,-14,0,-6
2041,-8,-19,998,-15,-1,-6
2042,-5,-18,999,-13,0,-6
2043,-6,-16,998,-13,2,-5
2044,-6,-19,997,-14,2,-5
2045,-7,-19,1000,-14,1,-6
2046,-5,-19,998,-13,2,-6
2047,-7,-18,1000,-15,2,-6
2048,-8,-18,999,-14,2,-6
2049,-7,-18,997,-13,1,-6
2050,-6,-18,999,-15,2,-5
2051,-9,-20,997,-15,0,-5
2052,-7,-19,997,-13,0,-5
2053,-6,-19,997,-13,1,-7
2054,-9,-20,997,-15,1,-6
2055,-5,-19,997,-15,1,-6
2056,-9,-21,998,-14,1,-6
2057,-10,-18,998,-15,0,-6
2058,-6,-19,996,-14,0,-5
2059,-5,-17,998,-14,1,-6
2060,-5,-20,997,-14,1,-6
2061,-7,-20,998,-13,2,-5
2062,-7,-19,997,-14,2,-6
2063,-7,-18,997,-14,0,-6
2064,-7,-18,998,-14,1,-5
2065,-9,-20,996,-15,1,-6
2066,-7,-21,997,-14,0,-5
2067,-8,-19,998,-15,1,-5
2068,-7,-19,996,-14,0,-6
2069,-8,-19,997,-13,0,-6
2070,-8,-19,999,-13,0,-6
2071,-7,-19,999,-14,1,-7
2072,-6,-18,998,-13,2,-5
2073,-8,-19,998,-15,1,-5
2074,-8,-20,997,-14,0,-6
2075,-7,-22,999,-14,1,-6
2076,-7,-19,997,-14,1,-6
2077,-6,-18,999,-13,0,-7
2078,-7,-19,998,-14,2,-5
2079,-8,-19,998,-14,1,-6
2080,-7,-20,998,-13,1,-5
2081,-6,-20,998,-13,0,-6
2082,-6,-17,998,-14,1,-5
2083,-8,-19,998,-14,1,-6
2084,-8,-20,999,-13,0,-6
2085,-10,-19,998,-13,0,-6
2086,-5,-20,999,-13,1,-6
2087,-7,-19,998,-14,2,-6
2088,-7,-19,997,-14,1,-6
2089,-8,-20,997,-15,2,-7
2090,-6,-20,997,-13,1,-6
2091,-7,-19,998,-14,1,-5
2092,-5,-20,997,-15,1,-5
2093,-5,-18,998,-14,1,-4
2094,-7,-17,998,-12,0,-5
2095,-7,-19,997,-14,2,-5
2096,-7,-19,996,-13,1,-6
2097,-8,-19,997,-14,1,-6
2098,-9,-20,999,-13,1,-6
2099,-8,-19,998,-14,1,-6
2100,-7,-18,997,-14,2,-6
2101,-7,-19,998,-14,0,-5
2102,-8,-21,998,-14,0,-5
2103,-8,-20,998,-13,0,-6
2104,-7,-18,998,-14,0,-6
2105,-7,-19,998,-14,0,-5
2106,-6,-18,997,-13,1,-5
2107,-7,-18,998,-15,1,-6
2108,-6,-19,997,-14,1,-6
2109,-7,-18,997,-14,0,-7
2110,-7,-18,996,-15,0,-5
2111,-5,-19,998,-14,1,-6
2112,-7,-19,998,-13,1,-6
2113,-7,-19,999,-14,1,-6
2114,-7,-17,998,-14,1,-6
2115,-8,-20,999,-13,0,-6
2116,-8,-19,997,-15,0,-6
2117,-9,-19,998,-14,1,-5
2118,-7,-19,998,-13,1,-6
2119,-7,-18,998,-13,2,-7
2120,-6,-21,998,-14,1,-7
2121,-8,-19,998,-15,1,-6
2122,-8,-18,998,-14,1,-7
2123,-8,-19,1000,-13,1,-6
2124,-7,-18,997,-14,1,-5
2125,-7,-17,998,-13,0,-5
2126,-9,-19,998,-15,1,-5
2127,-9,-17,997,-14,1,-5
2128,-9,-19,998,-14,1,-6
2129,-6,-20,998,-15,1,-6
2130,-7,-21,996,-14,1,-6
2131,-6,-18,997,-15,1,-6
2132,-6,-20,997,-14,1,-5
2133,-8,-19,998,-14,2,-5
2134,-8,-18,998,-14,1,-5
2135,-8,-19,999,-14,1,-6
2136,-9,-20,999,-14,0,-6
2137,-7,-18,997,-13,1,-5
2138,-5,-21,998,-14,1,-5
2139,-8,-17,999,-14,0,-6
2140,-7,-17,997,-14,0,-5
2141,-7,-20,998,-14,1,-5
2142,-7,-21,997,-13,0,-6
2143,-7,-19,998,-14,1,-6
2144,-7,-18,998,-14,0,-6
2145,-7,-18,997,-14,1,-5
2146,-8,-18,998,-14,-1,-5
2147,-10,-18,998,-15,0,-6
2148,-8,-20,999,-14,0,-7
2149,-7,-19,996,-13,1,-7
2150,-7,-19,998,-13,2,-6
2151,-7,-20,996,-14,1,-6
2152,-7,-19,997,-14,0,-5
2153,-6,-18,996,-13,1,-6
2154,-6,-19,999,-14,2,-6
2155,-8,-18,997,-14,2,-6
2156,-7,-20,998,-14,1,-6
2157,-7,-19,997,-15,0,-7
2158,-8,-21,998,-14,1,-5
2159,-8,-18,996,-13,1,-6
2160,-7,-20,998,-15,1,-6
2161,-7,-18,997,-14,-1,-6
2162,-8,-20,999,-16,0,-6
2163,-6,-20,997,-14,2,-7
2164,-6,-18,997,-13,1,-6
2165,-6,-18,998,-14,1,-6
2166,-6,-18,998,-14,1,-6
2167,-5,-19,997,-14,0,-6
2168,-8,-18,998,-15,2,-5
2169,-8,-21,1000,-13,1,-6
2170,-7,-19,1000,-12,1,-7
2171,-7,-19,998,-14,1,-5
2172,-5,-20,997,-15,1,-5
2173,-6,-19,997,-15,2,-6
2174,-6,-18,996,-13,1,-6
2175,-6,-21,997,-15,0,-5
2176,-8,-18,999,-15,2,-5
2177,-5,-19,999,-15,1,-6
2178,-6,-20,998,-13,2,-5
2179,-8,-20,998,-13,1,-5
2180,-6,-21,998,-13,0,-6
2181,-7,-19,997,-13,0,-5
2182,-7,-18,998,-12,2,-6
2183,-6,-20,998,-13,2,-7
2184,-7,-18,998,-14,2,-7
2185,-7,-18,997,-15,1,-7
2186,-7,-19,999,-15,1,-6
2187,-8,-19,998,-13,0,-6
2188,-7,-18,996,-15,1,-5
2189,-9,-19,998,-14,1,-5
2190,-6,-20,999,-14,0,-5
2191,-7,-18,997,-14,0,-5
2192,-7,-18,998,-13,1,-5
2193,-6,-20,998,-14,1,-6
2194,-6,-18,998,-14,2,-6
2195,-7,-18,997,-13,2,-7
2196,-7,-19,998,-14,0,-7
2197,-8,-20,997,-13,1,-7
2198,-8,-18,998,-14,1,-6
2199,-7,-18,997,-12,0,-7
2200,-7,-19,997,-15,1,-6
2201,-9,-20,998,-15,2,-5
2202,-7,-21,998,-15,1,-5
2203,-7,-20,998,-15,0,-6
2204,-8,-19,997,-12,1,-6
2205,-8,-18,997,-15,1,-5
2206,-6,-18,998,-13,1,-6
2207,-7,-19,998,-14,2,-6
2208,-7,-20,998,-17,1,-6
2209,-8,-20,999,-15,2,-6
2210,-7,-20,997,-15,2,-7
2211,-5,-18,998,-13,1,-6
2212,-6,-21,998,-14,1,-4
2213,-8,-21,999,-14,2,-6
2214,-6,-19,998,-15,1,-7
2215,-6,-18,997,-14,1,-5
2216,-6,-18,998,-15,1,-6
2217,-5,-19,998,-13,2,-6
2218,-6,-20,997,-15,2,-5
2219,-8,-21,998,-14,1,-5
2220,-7,-22,999,-14,1,-6
2221,-6,-22,997,-14,1,-5
2222,-7,-19,997,-13,0,-5
2223,-8,-18,999,-14,0,-6
2224,-9,-18,999,-13,-1,-5
2225,-9,-20,995,-14,0,-6
2226,-7,-20,998,-13,2,-5
2227,-8,-20,998,-14,0,-5
2228,-6,-19,998,-14,1,-7
2229,-6,-20,998,-14,1,-8
2230,-8,-19,997,-14,1,-6
2231,-8,-18,997,-13,1,-5
2232,-9,-18,998,-15,1,-6
2233,-8,-19,998,-15,2,-4
2234,-7,-19,999,-15,2,-6
2235,-9,-20,998,-14,1,-5
2236,-6,-20,1000,-13,1,-5
2237,-9,-19,998,-14,1,-5
2238,-7,-19,997,-13,2,-5
2239,-8,-19,997,-14,1,-6
2240,-8,-19,997,-14,1,-7
2241,-7,-18,997,-14,1,-6
2242,-7,-19,998,-14,0,-5
2243,-8,-20,996,-14,1,-6
2244,-7,-19,997,-13,1,-6
2245,-7,-18,998,-14,1,-6
2246,-8,-18,996,-14,0,-6
2247,-7,-18,997,-13,2,-6
2248,-8,-19,998,-15,-1,-6
2249,-7,-20,999,-14,-1,-6
2250,-8,-20,997,-14,1,-4
2251,-7,-18,997,-13,1,-6
2252,-8,-19,996,-12,2,-6
2253,-8,-20,997,-14,1,-6
2254,-8,-21,998,-15,-1,-7
2255,-6,-20,999,-14,0,-6
2256,-6,-19,996,-14,1,-6
2257,-8,-18,997,-15,1,-7
2258,-6,-17,997,-14,1,-6
2259,-8,-19,998,-14,1,-5
2260,-8,-18,998,-15,1,-5
2261,-7,-20,998,-13,0,-5
2262,-8,-20,998,-13,1,-5
2263,-7,-19,998,-15,1,-5
2264,-6,-19,997,-15,0,-7
2265,-7,-19,998,-14,2,-7
2266,-8,-19,997,-14,2,-7
2267,-7,-19,998,-13,0,-6
2268,-5,-18,996,-14,2,-6
2269,-6,-17,999,-16,1,-6
2270,-6,-20,998,-14,1,-6
2271,-9,-20,998,-14,1,-6
2272,-8,-19,997,-14,1,-7
2273,-8,-20,997,-14,1,-6
2274,-8,-19,998,-14,1,-6
2275,-8,-20,998,-13,1,-6
2276,-6,-19,996,-14,2,-6
2277,-7,-20,996,-13,1,-6
2278,-7,-19,999,-13,1,-6
2279,-9,-18,999,-13,0,-7
2280,-7,-19,999,-13,1,-7
2281,-6,-19,997,-15,2,-6
2282,-9,-20,998,-13,1,-6
2283,-6,-20,998,-14,1,-6
2284,-5,-21,998,-14,1,-6
2285,-7,-19,999,-14,1,-5
2286,-7,-19,997,-15,0,-5
2287,-8,-19,999,-13,0,-7
2288,-7,-19,998,-12,1,-6
2289,-7,-18,999,-13,0,-5
2290,-5,-19,997,-13,0,-6
2291,-7,-20,999,-13,1,-6
2292,-6,-19,999,-14,1,-6
2293,-9,-18,999,-14,0,-6
2294,-6,-19,998,-15,2,-6
2295,-7,-19,998,-15,0,-5
2296,-6,-20,998,-14,0,-5
2297,-7,-21,998,-14,0,-7
2298,-7,-19,998,-14,1,-7
2299,-7,-18,997,-15,1,-6
2300,-6,-17,999,-13,0,-6
2301,-7,-18,997,-12,0,-6
2302,-7,-18,997,-13,1,-6
2303,-8,-18,997,-13,0,-6
2304,-7,-17,997,-14,2,-6
2305,-6,-18,997,-14,1,-6
2306,-7,-19,997,-16,1,-5
2307,-7,-20,996,-14,1,-5
2308,-7,-20,998,-13,1,-5
2309,-8,-19,998,-14,2,-5
2310,-7,-19,998,-14,2,-6
2311,-6,-19,997,-14,1,-7
2312,-7,-18,997,-15,0,-6
2313,-7,-19,997,-14,0,-7
2314,-8,-20,998,-14,1,-6
2315,-7,-20,998,-15,1,-5
2316,-7,-20,999,-14,1,-5
2317,-7,-19,998,-14,1,-5
2318,-8,-20,998,-14,1,-6
2319,-6,-20,998,-13,1,-6
2320,-7,-19,999,-14,0,-7
2321,-6,-19,998,-14,1,-5
2322,-7,-19,997,-14,0,-6
2323,-7,-20,998,-13,2,-6
2324,-4,-19,997,-15,1,-5
2325,-6,-20,999,-15,1,-6
2326,-7,-19,998,-14,1,-6
2327,-7,-20,996,-14,1,-5
2328,-9,-18,996,-14,1,-6
2329,-8,-18,997,-14,1,-6
2330,-8,-20,997,-13,1,-6
2331,-7,-18,998,-14,1,-6
2332,-6,-18,996,-14,2,-6
2333,-7,-19,996,-15,1,-5
2334,-5,-18,998,-14,1,-6
2335,-7,-19,998,-14,1,-7
2336,-9,-19,998,-16,1,-6
2337,-7,-17,997,-14,0,-6
2338,-7,-18,997,-15,0,-7
2339,-7,-17,998,-14,1,-6
2340,-6,-20,998,-14,2,-6
2341,-6,-20,999,-15,2,-6
2342,-8,-21,997,-14,2,-5
2343,-8,-20,998,-13,1,-7
2344,-8,-21,998,-13,1,-7
2345,-8,-18,998,-13,0,-7
2346,-7,-18,998,-14,1,-5
2347,-5,-20,997,-13,1,-6
2348,-6,-20,998,-13,1,-7
2349,-5,-19,999,-13,2,-6
2350,-9,-20,997,-13,0,-6
2351,-8,-19,997,-14,0,-6
2352,-6,-19,998,-14,1,-5
2353,-7,-20,997,-14,1,-6
2354,-7,-20,998,-15,0,-5
2355,-6,-18,999,-13,1,-7
2356,-6,-19,997,-14,0,-6
2357,-8,-19,997,-15,0,-7
2358,-8,-20,998,-15,0,-7
2359,-10,-20,997,-14,1,-7
2360,-8,-20,997,-13,2,-6
2361,-6,-20,998,-15,1,-5
2362,-7,-18,999,-14,1,-5
2363,-7,-18,998,-14,1,-7
2364,-6,-18,997,-15,1,-6
2365,-8,-19,998,-11,1,-6
2366,-6,-20,999,-15,1,-5
2367,-6,-18,999,-16,0,-6
2368,-6,-19,1000,-13,1,-5
2369,-6,-20,999,-14,0,-6
2370,-6,-20,998,-13,1,-6
2371,-7,-18,997,-15,1,-6
2372,-7,-19,997,-13,1,-6
2373,-5,-20,999,-14,1,-6
2374,-6,-18,997,-14,2,-6
2375,-6,-19,998,-13,0,-7
2376,-6,-20,996,-15,-1,-6
2377,-5,-19,997,-15,0,-6
2378,-5,-19,997,-15,0,-6
2379,-7,-19,998,-14,1,-7
2380,-7,-18,999,-12,0,-6
2381,-6,-19,998,-15,1,-6
2382,-8,-19,997,-13,2,-5
2383,-8,-18,997,-14,1,-5
2384,-8,-18,998,-13,0,-6
2385,-6,-18,999,-14,1,-6
2386,-7,-20,998,-14,1,-7
2387,-7,-20,997,-14,1,-6
2388,-6,-18,997,-15,1,-5
2389,-7,-20,998,-14,2,-5
2390,-5,-19,998,-15,1,-6
2391,-7,-19,999,-14,1,-7
2392,-7,-19,998,-13,1,-6
2393,-8,-19,997,-14,1,-5
2394,-7,-20,999,-15,0,-5
2395,-8,-19,999,-13,0,-6
2396,-6,-19,997,-13,0,-6
2397,-8,-20,999,-15,1,-5
2398,-6,-19,999,-15,1,-4
2399,-9,-18,998,-14,1,-4
2400,-8,-21,999,-14,0,-6
2401,-7,-20,997,-13,1,-6
2402,-6,-20,997,-14,2,-5
2403,-8,-19,997,-14,2,-6
2404,-7,-17,998,-12,1,-5
2405,-8,-18,997,-14,0,-6
2406,-7,-19,998,-13,2,-7
2407,-7,-18,999,-12,2,-7
2408,-7,-18,997,-14,1,-6
2409,-5,-17,997,-13,1,-6
2410,-7,-20,997,-13,1,-5
2411,-7,-19,996,-14,1,-6
2412,-7,-20,997,-14,1,-6
2413,-6,-20,998,-15,3,-6
2414,-7,-19,997,-14,1,-6
2415,-8,-19,999,-14,1,-6
2416,-6,-17,998,-13,1,-6
2417,-6,-20,998,-14,1,-6
2418,-8,-20,996,-14,1,-5
2419,-6,-20,997,-14,0,-6
2420,-6,-17,996,-16,1,-5
2421,-6,-18,999,-14,0,-6
2422,-6,-20,998,-14,1,-5
2423,-7,-20,997,-13,1,-4
2424,-6,-20,997,-14,1,-5
2425,-7,-21,998,-14,1,-4
2426,-8,-19,997,-14,2,-4
2427,-6,-19,998,-14,2,-4
2428,-5,-20,999,-14,2,-6
2429,-7,-19,999,-13,2,-6
2430,-6,-19,999,-15,1,-6
2431,-7,-19,998,-12,0,-6
2432,-9,-19,997,-14,2,-6
2433,-9,-20,999,-13,1,-6
2434,-8,-19,997,-12,1,-6
2435,-8,-18,998,-14,2,-6
2436,-6,-18,999,-14,1,-5
2437,-7,-18,997,-15,0,-6
2438,-6,-19,998,-16,1,-6
2439,-6,-20,997,-15,1,-6
2440,-6,-20,997,-14,1,-5
2441,-7,-18,999,-14,1,-6
2442,-8,-17,998,-13,0,-6
2443,-7,-17,999,-14,0,-7
2444,-7,-18,1000,-14,0,-6
2445,-8,-19,999,-15,0,-6
2446,-7,-19,998,-15,1,-6
2447,-8,-19,998,-12,0,-5
2448,-7,-18,997,-14,0,-6
2449,-6,-20,998,-16,0,-6
2450,-6,-19,998,-14,0,-7
2451,-6,-20,999,-14,0,-6
2452,-8,-19,999,-13,0,-6
2453,-8,-20,998,-14,1,-7
2454,-7,-20,999,-13,0,-7
2455,-7,-18,998,-15,1,-6
2456,-6,-19,996,-15,1,-5
2457,-5,-20,996,-13,1,-6
2458,-7,-19,999,-14,1,-6
2459,-5,-19,998,-12,0,-6
2460,-7,-20,996,-14,1,-6
2461,-7,-19,998,-15,3,-6
2462,-8,-18,998,-14,0,-5
2463,-7,-20,998,-14,1,-6
2464,-6,-20,997,-12,-1,-7
2465,-6,-19,998,-14,1,-4
2466,-6,-19,997,-15,1,-5
2467,-8,-17,998,-14,1,-5
2468,-7,-19,996,-13,0,-6
2469,-7,-20,997,-13,0,-6
2470,-6,-20,998,-14,2,-7
2471,-10,-18,998,-14,1,-6
2472,-6,-20,997,-13,2,-6
2473,-7,-19,996,-13,0,-6
2474,-8,-19,998,-14,1,-6
2475,-9,-20,998,-13,1,-6
2476,-7,-18,998,-14,1,-7
2477,-8,-19,996,-15,1,-6
2478,-8,-21,999,-13,1,-6
2479,-6,-19,998,-14,0,-6
2480,-8,-21,997,-14,1,-6
2481,-6,-20,998,-14,2,-6
2482,-6,-19,998,-15,1,-6
2483,-8,-18,997,-13,1,-6
2484,-6,-18,997,-13,0,-6
2485,-8,-20,998,-14,0,-6
2486,-7,-19,998,-13,1,-7
2487,-8,-19,998,-14,1,-6
2488,-8,-18,998,-14,-1,-6
2489,-8,-19,997,-14,0,-7
2490,-6,-20,998,-15,0,-6
2491,-6,-19,998,-13,1,-5
2492,-7,-20,997,-13,0,-6
2493,-7,-18,997,-14,-1,-6
2494,-7,-18,999,-14,0,-5
2495,-7,-19,996,-13,1,-6
2496,-6,-18,997,-14,1,-6
2497,-6,-20,996,-14,1,-5
2498,-7,-18,997,-13,0,-6
2499,-8,-19,997,-15,0,-6
2500,-7,-20,997,-14,1,-6
2501,-7,-21,997,-14,2,-6
2502,-8,-19,998,-13,1,-6
2503,-5,-18,998,-14,2,-5
2504,-8,-20,996,-14,2,-7
2505,-7,-20,996,-14,1,-5
2506,-8,-19,998,-14,1,-6
2507,-9,-19,998,-13,1,-5
2508,-8,-18,998,-14,1,-5
2509,-6,-20,997,-15,2,-7
2510,-7,-20,996,-14,1,-7
2511,-8,-19,997,-14,0,-6
2512,-7,-18,999,-14,0,-6
2513,-7,-18,998,-14,1,-7
2514,-8,-19,998,-15,1,-6
2515,-7,-21,998,-14,0,-6
2516,-7,-19,998,-14,0,-6
2517,-7,-22,997,-15,1,-6
2518,-5,-19,997,-14,2,-7
2519,-6,-20,997,-14,1,-6
2520,-6,-17,997,-14,1,-5
2521,-6,-20,997,-14,1,-6
2522,-6,-19,998,-12,1,-5
2523,-8,-21,999,-13,1,-6
2524,-6,-21,997,-15,0,-7
2525,-7,-20,997,-14,1,-6
2526,-7,-19,997,-14,1,-6
2527,-8,-18,998,-13,1,-6
2528,-8,-19,999,-14,0,-6
2529,-7,-19,998,-14,0,-5
2530,-9,-19,995,-15,2,-6
2531,-9,-18,999,-14,1,-7
2532,-6,-20,997,-13,1,-5
2533,-7,-19,997,-14,-1,-6
2534,-7,-18,998,-14,0,-6
2535,-7,-19,997,-13,0,-6
2536,-7,-19,997,-14,1,-6
2537,-6,-20,998,-14,1,-7
2538,-6,-19,999,-13,2,-6
2539,-9,-19,998,-13,1,-6
2540,-6,-19,998,-14,0,-6
2541,-8,-19,997,-13,1,-5
2542,-7,-20,997,-13,1,-5
2543,-5,-19,998,-14,1,-5
2544,-6,-20,997,-14,1,-5
2545,-8,-20,999,-13,0,-5
2546,-6,-20,998,-12,1,-6
2547,-5,-22,997,-15,1,-6
2548,-6,-19,997,-15,1,-7
2549,-8,-20,998,-13,1,-7
2550,-7,-19,996,-15,2,-5
2551,-8,-19,997,-14,1,-6
2552,-7,-20,999,-14,1,-6
2553,-8,-19,997,-13,1,-6
2554,-9,-19,998,-13,0,-7
2555,-9,-18,998,-14,2,-4
2556,-6,-18,998,-14,0,-6
2557,-6,-19,998,-14,1,-6
2558,-7,-18,998,-14,1,-5
2559,-6,-17,997,-14,1,-7
2560,-7,-19,997,-13,0,-7
2561,-8,-17,997,-14,1,-6
2562,-7,-19,997,-14,1,-5
2563,-7,-20,997,-15,0,-7
2564,-9,-19,999,-15,0,-6
2565,-8,-19,997,-14,2,-7
2566,-8,-19,998,-12,1,-7
2567,-8,-19,997,-13,1,-6
2568,-8,-19,999,-14,0,-6
2569,-7,-19,998,-13,0,-7
2570,-7,-20,998,-14,1,-6
2571,-8,-18,997,-13,1,-6
2572,-8,-19,998,-14,1,-6
2573,-5,-19,999,-13,1,-6
2574,-7,-18,999,-14,0,-5
2575,-7,-18,998,-14,2,-5
2576,-7,-18,998,-12,1,-5
2577,-7,-20,997,-13,0,-6
2578,-7,-20,997,-13,1,-7
2579,-8,-19,998,-13,0,-6
2580,-6,-19,997,-14,0,-5
2581,-8,-20,998,-13,1,-7
2582,-6,-21,998,-13,1,-6
2583,-4,-18,998,-15,1,-6
2584,-7,-18,998,-14,1,-5
2585,-7,-20,998,-13,1,-5
2586,-5,-18,997,-13,1,-6
2587,-8,-19,998,-14,0,-6
2588,-8,-18,997,-14,0,-5
2589,-6,-19,997,-15,-1,-5
2590,-7,-21,998,-14,1,-5
2591,-7,-18,999,-14,0,-6
2592,-7,-18,998,-13,0,-5
2593,-6,-19,997,-13,1,-5
2594,-8,-19,998,-14,1,-7
2595,-9,-21,996,-13,1,-6
2596,-7,-19,997,-14,1,-6
2597,-8,-20,997,-12,1,-7
2598,-8,-18,997,-14,2,-6
2599,-7,-20,997,-15,2,-7
2600,-9,-18,997,-14,0,-6
2601,-8,-21,998,-13,1,-5
2602,-8,-19,998,-13,1,-6
2603,-7,-19,998,-14,1,-6
2604,-6,-18,998,-14,1,-6
2605,-7,-19,999,-14,1,-6
2606,-6,-19,998,-12,0,-5
2607,-6,-19,998,-14,1,-6
2608,-8,-19,996,-16,1,-6
2609,-8,-18,997,-14,1,-7
2610,-7,-20,996,-13,2,-6
2611,-8,-20,996,-14,1,-6
2612,-7,-20,997,-15,0,-6
2613,-7,-19,996,-14,1,-6
2614,-7,-19,998,-14,1,-7
2615,-5,-19,999,-13,1,-6
2616,-6,-19,998,-14,1,-7
2617,-5,-18,997,-14,2,-6
2618,-7,-18,998,-14,0,-5
2619,-6,-20,999,-15,1,-6
2620,-7,-20,996,-13,1,-5
2621,-6,-18,998,-16,1,-5
2622,-9,-19,997,-14,1,-5
2623,-8,-21,997,-15,0,-6
2624,-6,-18,998,-13,2,-6
2625,-6,-18,998,-13,0,-5
2626,-7,-19,997,-12,1,-6
2627,-7,-19,999,-14,1,-7
2628,-8,-20,999,-12,1,-5
2629,-8,-21,997,-15,0,-6
2630,-8,-20,997,-14,1,-6
2631,-7,-20,997,-15,2,-7
2632,-6,-19,999,-13,1,-6
2633,-6,-19,997,-14,2,-5
2634,-8,-21,998,-15,2,-6
2635,-8,-19,997,-14,2,-5
2636,-5,-18,996,-15,0,-5
2637,-8,-18,998,-12,1,-6
2638,-8,-18,998,-13,2,-5
2639,-8,-19,997,-13,1,-5
2640,-6,-19,998,-13,0,-6
2641,-5,-21,998,-15,1,-6
2642,-7,-19,998,-14,1,-4
2643,-6,-19,996,-13,1,-5
2644,-8,-20,998,-14,0,-6
2645,-8,-20,996,-12,0,-5
2646,-8,-18,999,-13,1,-6
2647,-8,-17,998,-13,0,-5
2648,-7,-19,998,-15,0,-5
2649,-9,-18,999,-13,2,-6
2650,-9,-18,998,-14,1,-6
2651,-9,-18,998,-14,2,-7
2652,-7,-18,997,-13,1,-6
2653,-8,-19,998,-15,0,-6
2654,-7,-19,999,-15,0,-6
2655,-7,-20,998,-15,0,-6
2656,-8,-18,997,-15,2,-6
2657,-6,-18,997,-15,1,-5
2658,-7,-18,997,-14,2,-6
2659,-7,-19,998,-15,3,-7
2660,-6,-20,999,-15,1,-6
2661,-6,-20,998,-13,0,-6
2662,-7,-17,998,-13,2,-6
2663,-7,-19,997,-15,0,-6
2664,-7,-19,998,-14,1,-7
2665,-6,-19,997,-14,0,-7
2666,-6,-19,998,-15,1,-6
2667,-7,-19,997,-14,2,-5
2668,-7,-18,997,-14,1,-6
2669,-6,-19,998,-15,0,-6
2670,-8,-20,998,-13,2,-6
2671,-8,-18,998,-14,1,-6
2672,-5,-19,997,-13,0,-6
2673,-8,-18,997,-13,0,-6
2674,-8,-20,999,-13,1,-6
2675,-7,-20,998,-15,0,-6
2676,-5,-19,999,-14,0,-6
2677,-6,-19,999,-14,1,-6
2678,-8,-18,999,-14,1,-5
2679,-6,-19,997,-13,1,-5
2680,-9,-20,997,-14,0,-5
2681,-9,-19,998,-13,0,-6
2682,-7,-19,997,-15,1,-6
2683,-8,-19,998,-14,1,-5
2684,-6,-19,997,-14,1,-5
2685,-5,-21,998,-14,0,-6
2686,-7,-19,999,-13,0,-6
2687,-6,-18,998,-13,1,-6
2688,-6,-20,999,-15,0,-6
2689,-8,-20,998,-15,1,-6
2690,-8,-19,997,-14,-1,-5
2691,-5,-20,997,-12,0,-6
2692,-7,-20,997,-15,1,-7
2693,-7,-20,998,-13,2,-6
2694,-8,-20,998,-14,1,-6
2695,-8,-20,998,-13,-1,-6
2696,-7,-17,999,-14,0,-5
2697,-7,-21,998,-15,0,-5
2698,-7,-18,997,-14,1,-5
2699,-7,-18,998,-15,1,-5
2700,-7,-19,999,-15,1,-6
2701,-8,-18,997,-14,-1,-7
2702,-8,-20,995,-21,6,-3
2703,-8,-19,998,-20,0,-5
2704,-7,-20,998,-12,1,-7
2705,-5,-19,996,-13,1,-6
2706,-6,-20,996,-15,1,-6
2707,-8,-20,998,-13,0,-6
2708,-7,-20,999,-14,1,-7
2709,-8,-19,996,-13,1,-6
2710,-6,-19,998,-13,-1,-6
2711,-8,-19,1000,-13,1,-6
2712,-6,-20,999,-14,1,-6
2713,-6,-20,998,-14,2,-6
2714,-9,-20,998,-13,1,-6
2715,-8,-19,999,-15,1,-5
2716,-9,-20,998,-16,0,-6
2717,-7,-21,997,-14,1,-7
2718,-8,-20,997,-15,1,-6
2719,-8,-21,998,-14,0,-6
2720,-8,-20,998,-14,0,-6
2721,-8,-19,998,-13,2,-6
2722,-8,-20,998,-15,1,-5
2723,-8,-19,999,-15,1,-6
2724,-6,-19,998,-14,0,-6
2725,-7,-18,998,-13,0,-5
2726,-8,-19,999,-14,1,-6
2727,-6,-18,997,-13,1,-6
2728,-8,-21,998,-14,1,-6
2729,-7,-19,997,-14,1,-6
2730,-7,-20,998,-13,1,-6
2731,-9,-20,998,-15,1,-6
2732,-7,-18,999,-14,2,-6
2733,-8,-19,998,-13,2,-7
2734,-7,-19,1000,-14,1,-6
2735,-6,-18,999,-15,1,-6
2736,-7,-19,998,-13,0,-7
2737,-6,-19,997,-15,1,-7
2738,-6,-17,997,-14,2,-5
2739,-6,-18,999,-14,1,-6
2740,-6,-18,999,-14,1,-5
2741,-5,-19,997,-13,1,-6
2742,-8,-19,997,-14,1,-5
2743,-6,-20,999,-14,1,-5
2744,-7,-20,998,-14,1,-5
2745,-6,-18,997,-15,1,-6
2746,-7,-19,997,-14,1,-4
2747,-9,-20,999,-13,1,-5
2748,-6,-18,997,-14,1,-5
2749,-9,-20,998,-15,0,-6
2750,-8,-20,999,-13,1,-6
2751,-7,-20,997,-15,1,-5
2752,-8,-18,999,-14,0,-7
2753,-6,-19,998,-14,0,-6
2754,-6,-19,998,-13,1,-7
2755,-6,-19,998,-14,1,-6
2756,-9,-19,998,-15,1,-5
2757,-8,-20,998,-15,0,-5
2758,-9,-20,996,-12,1,-6
2759,-7,-19,996,-14,1,-6
2760,-5,-19,999,-14,1,-6
2761,-6,-19,997,-14,1,-6
2762,-7,-17,997,-14,1,-5
2763,-7,-19,998,-14,1,-6
2764,-7,-19,998,-15,1,-5
2765,-7,-18,998,-15,1,-6
2766,-8,-20,998,-12,0,-6
2767,-8,-17,996,-14,1,-5
2768,-7,-18,998,-13,0,-5
2769,-8,-20,998,-15,0,-6
2770,-6,-18,998,-14,1,-6
2771,-6,-19,997,-14,0,-6
2772,-6,-21,1000,-14,1,-5
2773,-6,-19,999,-15,1,-4
2774,-10,-19,999,-14,0,-6
2775,-9,-19,999,-13,0,-6
2776,-7,-17,998,-14,1,-5
2777,-6,-19,997,-14,0,-7
2778,-7,-19,998,-14,1,-6
2779,-9,-19,997,-14,-1,-6
2780,-9,-20,999,-14,0,-6
2781,-6,-19,998,-14,1,-6
2782,-7,-19,998,-12,1,-6
2783,-8,-20,997,-14,1,-6
2784,-7,-19,996,-14,1,-7
2785,-8,-17,998,-14,1,-7
2786,-6,-18,996,-14,1,-6
2787,-9,-19,998,-13,1,-6
2788,-7,-20,998,-13,0,-7
2789,-8,-19,998,-12,0,-6
2790,-5,-20,997,-13,1,-6
2791,-6,-18,996,-14,1,-6
2792,-7,-18,997,-13,1,-6
2793,-7,-18,999,-13,2,-6
2794,-7,-20,998,-15,1,-6
2795,-6,-20,999,-15,1,-6
2796,-6,-17,998,-14,0,-6
2797,-7,-19,997,-15,2,-6
2798,-8,-19,997,-14,1,-6
2799,-6,-19,998,-13,0,-6
2800,-8,-18,997,-14,0,-6
2801,-8,-18,998,-14,1,-7
2802,-8,-19,998,-13,0,-7
2803,-7,-19,997,-13,1,-5
2804,-9,-19,999,-14,2,-5
2805,-8,-18,998,-15,2,-6
2806,-10,-20,999,-13,1,-7
2807,-8,-19,998,-12,1,-6
2808,-7,-19,998,-13,2,-6
2809,-8,-18,999,-13,1,-5
2810,-8,-19,996,-14,1,-6
2811,-8,-19,998,-14,1,-6
2812,-7,-19,997,-14,0,-7
2813,-6,-19,998,-13,1,-7
2814,-8,-19,997,-15,1,-6
2815,-8,-17,998,-14,0,-5
2816,-8,-18,998,-14,0,-6
2817,-9,-19,997,-14,2,-6
2818,-7,-19,998,-14,2,-5
2819,-6,-20,999,-14,2,-5
2820,-7,-18,999,-13,0,-5
2821,-8,-19,997,-14,0,-6
2822,-5,-18,998,-13,1,-5
2823,-7,-19,999,-14,2,-6
2824,-6,-18,999,-15,0,-6
2825,-6,-19,998,-13,2,-5
2826,-7,-19,998,-14,0,-5
2827,-7,-19,998,-13,1,-5
2828,-6,-19,998,-13,1,-6
2829,-7,-19,997,-15,0,-6
2830,-6,-18,998,-13,1,-6
2831,-7,-19,998,-13,1,-6
2832,-7,-19,999,-14,2,-6
2833,-7,-19,998,-13,2,-6
2834,-6,-19,998,-15,2,-7
2835,-6,-20,995,-14,2,-5
2836,-6,-19,997,-13,1,-5
2837,-6,-21,998,-15,0,-5
2838,-6,-20,999,-13,1,-5
2839,-6,-21,997,-15,1,-6
2840,-8,-20,998,-14,1,-6
2841,-7,-19,996,-14,0,-5
2842,-7,-19,998,-13,0,-5
2843,-9,-21,998,-14,0,-6
2844,-6,-21,999,-14,0,-6
2845,-7,-20,999,-14,1,-6
2846,-6,-19,998,-15,2,-4
2847,-7,-19,998,-13,0,-6
2848,-7,-19,999,-15,0,-7
2849,-7,-19,999,-14,0,-7
2850,-6,-20,998,-14,1,-7
2851,-7,-20,998,-14,1,-6
2852,-7,-20,999,-15,0,-5
2853,-7,-20,999,-15,1,-7
2854,-7,-19,999,-15,1,-6
2855,-7,-19,999,-14,0,-5
2856,-5,-20,998,-15,1,-6
2857,-6,-20,999,-14,2,-5
2858,-7,-19,997,-15,2,-6
2859,-8,-19,997,-12,1,-6
2860,-8,-18,998,-14,0,-6
2861,-8,-19,998,-13,0,-5
2862,-7,-19,997,-15,2,-5
2863,-9,-18,997,-14,2,-5
2864,-8,-18,998,-14,0,-5
2865,-9,-19,999,-14,0,-6
2866,-7,-20,999,-14,1,-6
2867,-7,-19,999,-14,1,-5
2868,-8,-19,998,-13,1,-5
2869,-7,-19,998,-14,0,-7
2870,-7,-18,997,-14,1,-6
2871,-6,-18,996,-13,2,-6
2872,-7,-18,998,-15,1,-6
2873,-8,-19,997,-13,0,-6
2874,-7,-20,997,-14,1,-5
2875,-6,-18,1000,-14,1,-6
2876,-5,-20,1000,-13,1,-6
2877,-7,-19,998,-14,0,-6
2878,-8,-20,998,-12,1,-7
2879,-6,-19,998,-14,1,-6
2880,-6,-19,999,-13,0,-7
2881,-7,-21,999,-13,2,-6
2882,-6,-21,998,-14,2,-6
2883,-6,-21,997,-14,0,-6
2884,-8,-19,997,-14,0,-5
2885,-7,-20,997,-14,1,-4
2886,-6,-19,997,-14,2,-5
2887,-6,-18,997,-14,0,-5
2888,-8,-18,997,-13,1,-5
2889,-7,-19,996,-14,1,-5
2890,-7,-18,997,-15,0,-5
2891,-9,-20,997,-13,2,-6
2892,-7,-20,998,-13,1,-5
2893,-9,-19,998,-14,1,-5
2894,-8,-18,998,-14,1,-6
2895,-8,-18,997,-15,1,-6
2896,-9,-18,996,-14,0,-6
2897,-8,-19,997,-14,1,-6
2898,-7,-18,997,-14,1,-5
2899,-5,-20,998,-14,1,-7
2900,-8,-19,998,-13,1,-7
2901,-7,-19,998,-14,1,-7
2902,-5,-18,998,-15,2,-5
2903,-6,-18,998,-14,1,-6
2904,-7,-18,998,-14,0,-7
2905,-7,-18,998,-14,1,-6
2906,-7,-20,999,-14,1,-5
2907,-7,-19,998,-14,0,-6
2908,-7,-20,998,-14,0,-5
2909,-7,-19,998,-15,1,-5
2910,-7,-20,998,-14,2,-6
2911,-6,-19,999,-13,0,-6
2912,-8,-19,999,-13,0,-6
2913,-6,-19,996,-14,1,-6
2914,-5,-19,998,-13,0,-6
2915,-6,-18,997,-16,1,-6
2916,-7,-18,997,-14,1,-7
2917,-7,-19,997,-15,2,-5
2918,-8,-20,998,-14,1,-7
2919,-8,-19,999,-13,2,-7
2920,-7,-18,996,-13,1,-7
2921,-7,-20,998,-13,0,-5
2922,-8,-18,997,-13,2,-5
2923,-6,-18,998,-14,1,-6
2924,-6,-18,998,-14,1,-6
2925,-6,-18,997,-14,1,-5
2926,-7,-19,998,-14,0,-5
2927,-6,-21,998,-14,1,-6
2928,-7,-20,998,-14,0,-6
2929,-7,-18,998,-13,0,-6
2930,-9,-17,997,-14,1,-5
2931,-7,-19,998,-14,0,-5
2932,-6,-18,997,-14,0,-6
2933,-6,-20,998,-15,-1,-6
2934,-7,-19,997,-14,1,-7
2935,-5,-19,998,-15,0,-5
2936,-6,-19,999,-15,1,-6
2937,-6,-18,997,-14,1,-7
2938,-7,-18,999,-14,1,-6
2939,-8,-20,998,-13,1,-6
2940,-8,-19,999,-14,1,-6
2941,-8,-19,997,-13,0,-6
2942,-8,-19,996,-13,1,-7
2943,-8,-19,998,-14,1,-7
2944,-8,-18,997,-16,1,-5
2945,-8,-18,997,-14,3,-5
2946,-8,-19,996,-14,1,-6
2947,-8,-19,998,-15,1,-6
2948,-7,-20,997,-14,1,-7
2949,-5,-20,997,-14,3,-6
2950,-6,-19,998,-14,2,-6
2951,-7,-19,999,-14,1,-5
2952,-6,-20,999,-12,0,-5
2953,-8,-19,998,-13,0,-5
2954,-7,-19,998,-15,1,-6
2955,-8,-21,999,-13,1,-6
2956,-6,-19,999,-12,2,-7
2957,-9,-20,999,-14,1,-6
2958,-6,-19,999,-13,1,-7
2959,-6,-19,998,-14,2,-5
2960,-6,-20,997,-12,1,-4
2961,-8,-19,997,-13,0,-6
2962,-8,-20,997,-14,1,-6
2963,-8,-18,998,-14,1,-5
2964,-6,-19,998,-15,0,-7
2965,-7,-20,999,-14,1,-6
2966,-6,-19,997,-14,0,-6
2967,-7,-20,997,-14,1,-6
2968,-5,-20,997,-13,0,-6
2969,-7,-18,998,-13,1,-5
2970,-7,-20,997,-13,1,-6
2971,-5,-18,998,-13,2,-7
2972,-8,-20,997,-13,2,-6
2973,-6,-19,1000,-13,1,-6
2974,-7,-19,998,-14,1,-5
2975,-9,-16,998,-15,1,-6
2976,-7,-18,998,-15,0,-6
2977,-8,-18,997,-15,1,-6
2978,-7,-21,998,-14,1,-6
2979,-7,-21,998,-15,2,-6
2980,-7,-20,999,-14,3,-5
2981,-8,-18,998,-14,1,-6
2982,-7,-18,997,-15,1,-5
2983,-4,-19,997,-14,0,-6
2984,-7,-19,998,-15,0,-6
2985,-6,-21,997,-15,1,-5
2986,-8,-19,998,-14,0,-6
2987,-9,-19,997,-13,2,-6
2988,-6,-20,998,-13,1,-5
2989,-7,-19,999,-15,2,-6
2990,-6,-22,999,-14,1,-5
2991,-6,-19,998,-14,1,-5
2992,-6,-20,998,-15,2,-5
2993,-7,-18,998,-13,1,-6
2994,-8,-21,998,-15,0,-6
2995,-7,-20,998,-14,2,-6
2996,-9,-19,997,-15,2,-6
2997,-9,-20,998,-15,2,-6
2998,-8,-19,999,-14,1,-7
2999,-8,-19,997,-14,0,-5
3000,-5,-19,996,-13,0,-6
3001,-7,-19,997,-14,0,-6
3002,-7,-18,998,-13,1,-5
3003,-7,-20,998,-14,1,-6
3004,-7,-19,997,-14,1,-6
3005,-8,-18,998,-14,2,-6
3006,-8,-18,998,-12,1,-6
3007,-8,-18,996,-15,0,-7
3008,-7,-17,999,-13,1,-7
3009,-8,-18,998,-14,1,-6
3010,-7,-18,998,-15,0,-6
3011,-8,-19,998,-14,2,-6
3012,-6,-19,997,-14,1,-6
3013,-7,-20,997,-13,1,-6
3014,-7,-19,999,-14,0,-6
3015,-7,-20,998,-14,2,-6
3016,-6,-18,997,-14,1,-5
3017,-7,-19,997,-14,0,-5
3018,-5,-18,998,-12,2,-5
3019,-6,-18,998,-15,2,-5
3020,-7,-18,998,-16,0,-5
3021,-5,-20,998,-13,1,-6
3022,-9,-19,999,-14,2,-6
3023,-5,-18,999,-13,1,-6
3024,-6,-19,998,-14,0,-6
3025,-8,-20,997,-14,1,-6
3026,-9,-18,997,-13,1,-6
3027,-7,-20,996,-13,0,-6
3028,-6,-19,998,-14,2,-5
3029,-6,-18,999,-13,0,-6
3030,-8,-20,997,-13,-1,-7
3031,-8,-18,998,-14,0,-5
3032,-6,-19,998,-14,0,-6
3033,-6,-20,997,-16,0,-6
3034,-6,-18,998,-14,1,-6
3035,-8,-18,999,-15,0,-6
3036,-8,-21,997,-14,2,-6
3037,-7,-19,997,-13,0,-5
3038,-5,-18,998,-14,1,-6
3039,-7,-20,999,-15,2,-5
3040,-7,-22,995,-9,4,-5
3041,-8,-19,997,-15,1,-5
3042,-9,-18,998,-13,0,-5
3043,-7,-19,997,-15,1,-6
3044,-6,-18,997,-14,1,-6
3045,-6,-20,998,-14,2,-6
3046,-6,-21,999,-13,1,-6
3047,-9,-19,997,-14,1,-6
3048,-7,-19,997,-14,0,-6
3049,-6,-20,997,-14,0,-5
3050,-9,-19,996,-16,1,-5
3051,-8,-20,998,-15,1,-5
3052,-7,-20,998,-14,0,-7
3053,-7,-18,999,-14,1,-5
3054,-7,-19,998,-12,1,-5
3055,-8,-20,999,-14,2,-6
3056,-9,-20,998,-14,1,-5
3057,-6,-20,996,-14,1,-5
3058,-7,-19,998,-13,1,-5
3059,-7,-19,997,-13,2,-6
3060,-7,-18,998,-14,1,-6
3061,-7,-18,998,-14,1,-7
3062,-7,-20,998,-12,1,-6
3063,-7,-19,998,-14,1,-6
3064,-8,-20,998,-15,0,-6
3065,-8,-17,997,-13,1,-6
3066,-10,-18,996,-15,0,-6
3067,-7,-19,997,-14,1,-5
3068,-8,-18,999,-14,0,-5
3069,-8,-20,999,-14,1,-6
3070,-8,-20,998,-14,1,-6
3071,-9,-20,996,-14,0,-6
3072,-5,-19,997,-14,1,-6
3073,-7,-19,998,-13,2,-7
3074,-8,-20,997,-14,0,-7
3075,-7,-17,998,-14,1,-6
3076,-7,-18,998,-14,1,-6
3077,-7,-18,998,-13,0,-6
3078,-5,-20,999,-14,2,-4
3079,-5,-20,997,-15,1,-6
3080,-8,-19,998,-15,1,-6
3081,-6,-19,999,-14,1,-5
3082,-5,-19,999,-15,1,-5
3083,-7,-20,998,-13,1,-5
3084,-8,-19,1000,-14,1,-5
3085,-7,-21,997,-14,0,-7
3086,-7,-20,998,-12,0,-7
3087,-6,-20,996,-13,2,-6
3088,-8,-21,996,-14,1,-6
3089,-9,-19,997,-13,2,-6
3090,-7,-20,997,-15,1,-8
3091,-7,-20,997,-15,2,-6
3092,-8,-19,997,-15,1,-6
3093,-7,-18,997,-16,1,-6
3094,-7,-19,997,-14,0,-5
3095,-9,-18,998,-15,0,-4
3096,-8,-19,997,-14,0,-5
3097,-7,-19,998,-15,1,-5
3098,-6,-17,998,-15,1,-6
3099,-8,-18,999,-15,1,-6
3100,-7,-19,998,-13,0,-7
3101,-6,-17,1000,-14,1,-5
3102,-5,-18,999,-15,1,-6
3103,-7,-20,998,-14,1,-5
3104,-7,-19,998,-16,1,-6
3105,-6,-20,998,-15,2,-7
3106,-7,-18,997,-13,1,-5
3107,-7,-20,999,-14,1,-6
3108,-7,-19,996,-15,1,-6
3109,-7,-17,997,-13,2,-6
3110,-6,-17,998,-13,0,-6
3111,-6,-19,997,-14,1,-7
3112,-6,-19,998,-13,3,-6
3113,-6,-19,998,-14,1,-5
3114,-6,-20,998,-15,0,-5
3115,-8,-19,997,-13,1,-5
3116,-7,-19,997,-14,0,-6
3117,-8,-20,997,-14,2,-5
3118,-6,-20,998,-12,2,-5
3119,-6,-18,999,-14,2,-6
3120,-6,-18,997,-13,1,-5
3121,-6,-19,997,-14,0,-5
3122,-8,-18,998,-13,1,-6
3123,-7,-20,997,-12,1,-6
3124,-7,-21,998,-14,2,-5
3125,-7,-19,998,-14,2,-6
3126,-6,-19,997,-13,0,-6
3127,-8,-19,998,-14,0,-7
3128,-8,-19,998,-13,-1,-6
3129,-6,-20,999,-14,0,-6
3130,-8,-21,998,-16,1,-6
3131,-9,-20,999,-13,1,-6
3132,-7,-18,999,-14,1,-7
3133,-7,-18,998,-15,1,-6
3134,-7,-19,998,-13,2,-5
3135,-9,-18,997,-14,1,-6
3136,-8,-18,998,-15,1,-6
3137,-6,-19,999,-14,1,-6
3138,-7,-18,999,-14,1,-6
3139,-7,-18,998,-13,1,-7
3140,-4,-19,997,-13,0,-6
3141,-6,-19,997,-14,0,-5
3142,-7,-21,997,-14,0,-5
3143,-7,-19,997,-14,1,-5
3144,-7,-19,999,-13,1,-5
3145,-7,-20,997,-14,1,-7
3146,-8,-19,997,-14,0,-6
3147,-7,-20,998,-12,1,-7
3148,-7,-18,999,-14,-1,-5
3149,-7,-19,996,-14,0,-5
3150,-6,-19,997,-13,0,-6
3151,-7,-18,998,-14,1,-7
3152,-8,-20,996,-14,0,-7
3153,-6,-20,997,-14,0,-6
3154,-7,-21,998,-15,2,-5
3155,-6,-20,997,-13,2,-4
3156,-8,-18,1000,-13,2,-5
3157,-8,-21,997,-14,0,-7
3158,-7,-19,998,-14,0,-6
3159,-8,-20,998,-13,1,-7
3160,-6,-19,996,-15,1,-6
3161,-8,-20,997,-13,1,-6
3162,-7,-20,997,-14,1,-5
3163,-8,-19,999,-14,-1,-7
3164,-7,-19,998,-14,1,-5
3165,-6,-20,999,-15,1,-5
3166,-7,-20,998,-14,0,-6
3167,-6,-18,997,-13,1,-6
3168,-8,-17,997,-15,1,-4
3169,-7,-18,998,-13,0,-6
3170,-8,-18,998,-13,1,-6
3171,-5,-19,998,-13,1,-6
3172,-10,-17,997,-13,1,-5
3173,-8,-20,997,-15,0,-6
3174,-7,-20,998,-13,1,-6
3175,-7,-20,997,-14,0,-6
3176,-8,-18,998,-14,-1,-6
3177,-6,-17,998,-14,1,-6
3178,-7,-17,999,-14,1,-6
3179,-9,-20,998,-14,0,-7
3180,-8,-19,997,-12,1,-6
3181,-8,-18,997,-14,1,-6
3182,-7,-21,998,-15,2,-6
3183,-5,-20,997,-13,2,-5
3184,-9,-19,999,-14,1,-5
3185,-8,-19,1000,-14,1,-6
3186,-7,-19,999,-16,1,-5
3187,-8,-19,998,-13,1,-6
3188,-8,-19,998,-15,1,-6
3189,-9,-17,998,-14,2,-7
3190,-9,-19,999,-14,2,-4
3191,-6,-19,997,-15,-1,-6
3192,-7,-20,997,-13,0,-6
3193,-7,-18,998,-13,2,-6
3194,-8,-20,997,-14,2,-7
3195,-7,-19,998,-14,1,-5
3196,-5,-19,999,-14,1,-6
3197,-6,-19,997,-15,1,-7
3198,-7,-19,997,-12,1,-6
3199,-7,-19,997,-13,1,-6
3200,-8,-21,999,-15,1,-6
3201,-8,-19,999,-13,2,-5
3202,-10,-19,998,-14,1,-5
3203,-7,-19,999,-14,0,-5
3204,-7,-20,999,-12,0,-7
3205,-7,-19,996,-14,0,-6
3206,-8,-20,997,-14,0,-6
3207,-7,-20,998,-13,1,-6
3208,-7,-19,997,-13,1,-6
3209,-8,-21,997,-13,2,-6
3210,-7,-19,998,-13,1,-7
3211,-7,-19,996,-14,1,-6
3212,-6,-19,997,-14,0,-6
3213,-8,-19,998,-14,1,-5
3214,-7,-19,998,-13,1,-6
3215,-6,-19,998,-12,1,-5
3216,-7,-19,998,-14,1,-5
3217,-8,-19,998,-13,1,-5
3218,-8,-19,997,-13,0,-6
3219,-5,-19,998,-13,1,-6
3220,-6,-20,998,-14,1,-4
3221,-7,-22,998,-14,0,-6
3222,-8,-19,998,-14,0,-6
3223,-7,-20,998,-13,1,-6
3224,-7,-19,997,-15,1,-6
3225,-8,-19,999,-14,0,-6
3226,-6,-20,997,-14,0,-7
3227,-6,-19,996,-12,1,-6
3228,-7,-18,998,-14,2,-5
3229,-7,-20,998,-14,2,-6
3230,-7,-19,999,-15,1,-6
3231,-8,-19,997,-14,2,-6
3232,-7,-18,998,-13,1,-6
3233,-8,-19,998,-15,2,-6
3234,-7,-19,1000,-15,1,-5
3235,-6,-20,998,-14,1,-7
3236,-5,-17,997,-14,1,-6
3237,-7,-18,998,-15,1,-6
3238,-8,-19,997,-14,0,-5
3239,-6,-18,997,-15,0,-6
3240,-7,-21,998,-14,1,-6
3241,-7,-21,998,-15,2,-6
3242,-6,-18,997,-14,1,-6
3243,-8,-18,997,-12,1,-6
3244,-5,-18,998,-12,0,-7
3245,-7,-18,999,-14,0,-6
3246,-7,-19,997,-12,0,-7
3247,-6,-19,997,-14,1,-7
3248,-6,-18,998,-14,0,-6
3249,-7,-18,999,-13,2,-6
3250,-7,-20,999,-14,1,-6
3251,-6,-19,998,-15,2,-7
3252,-8,-20,998,-13,1,-6
3253,-8,-19,997,-14,1,-6
3254,-8,-20,997,-14,1,-6
3255,-7,-19,997,-13,1,-6
3256,-7,-20,999,-14,0,-6
3257,-8,-19,998,-12,0,-6
3258,-8,-21,999,-13,1,-6
3259,-6,-21,997,-14,1,-7
3260,-5,-19,997,-14,1,-7
3261,-6,-18,997,-13,0,-7
3262,-8,-20,997,-15,1,-6
3263,-8,-19,998,-14,1,-6
3264,-7,-20,997,-12,0,-5
3265,-9,-20,997,-13,1,-6
3266,-10,-19,999,-14,1,-7
3267,-8,-18,996,-14,0,-7
3268,-7,-18,998,-15,0,-6
3269,-6,-19,997,-14,1,-6
3270,-8,-20,998,-13,0,-7
3271,-7,-19,998,-13,0,-6
3272,-7,-20,998,-14,1,-5
3273,-7,-19,998,-15,0,-7
3274,-6,-18,998,-14,0,-6
3275,-6,-18,998,-14,1,-5
3276,-4,-18,997,-13,1,-6
3277,-3,-19,999,-13,2,-5
3278,-6,-20,998,-15,1,-6
3279,-8,-19,998,-14,1,-5
3280,-6,-19,998,-13,1,-5
3281,-8,-19,999,-15,1,-5
3282,-9,-19,999,-15,0,-6
3283,-6,-20,998,-13,1,-6
3284,-7,-20,998,-14,1,-5
3285,-8,-18,998,-14,2,-6
3286,-6,-18,998,-15,2,-6
3287,-6,-19,997,-14,1,-6
3288,-6,-20,998,-14,1,-5
3289,-9,-19,998,-15,0,-6
3290,-6,-19,997,-14,1,-6
3291,-8,-19,996,-14,0,-5
3292,-8,-20,998,-14,0,-6
3293,-7,-19,999,-15,1,-5
3294,-6,-19,997,-14,1,-4
3295,-6,-19,998,-14,1,-6
3296,-8,-17,997,-14,0,-6
3297,-8,-18,998,-14,1,-6
3298,-6,-18,996,-15,1,-6
3299,-7,-19,997,-15,1,-6
3300,-6,-19,997,-15,2,-6
3301,-8,-20,997,-13,1,-6
3302,-7,-18,997,-15,1,-5
3303,-8,-18,998,-13,0,-5
3304,-7,-18,999,-14,0,-7
3305,-7,-19,997,-15,1,-5
3306,-7,-18,997,-15,1,-5
3307,-8,-19,999,-13,0,-6
3308,-7,-18,998,-14,2,-6
3309,-6,-19,998,-14,1,-6
3310,-6,-18,997,-14,0,-7
3311,-7,-18,998,-14,1,-7
3312,-6,-17,998,-14,2,-6
3313,-7,-17,998,-15,1,-5
3314,-9,-18,998,-14,1,-7
3315,-6,-20,998,-14,2,-5
3316,-7,-18,999,-14,1,-5
3317,-6,-19,998,-14,0,-6
3318,-8,-19,998,-12,1,-6
3319,-6,-21,999,-12,0,-6
3320,-6,-20,998,-13,1,-6
3321,-6,-19,999,-14,0,-6
3322,-8,-19,998,-15,1,-5
3323,-7,-19,999,-14,0,-6
3324,-8,-21,999,-13,1,-6
3325,-5,-19,998,-14,1,-5
3326,-9,-20,998,-14,1,-5
3327,-7,-20,998,-14,2,-5
3328,-7,-20,999,-15,1,-6
3329,-8,-18,998,-14,1,-6
3330,-8,-17,997,-13,0,-6
3331,-8,-19,997,-13,1,-5
3332,-7,-20,999,-13,1,-7
3333,-7,-18,998,-15,1,-6
3334,-8,-17,997,-16,1,-6
3335,-7,-19,998,-13,2,-6
3336,-7,-19,998,-14,2,-7
3337,-8,-18,997,-13,1,-5
3338,-9,-20,997,-13,1,-5
3339,-7,-18,999,-14,1,-6
3340,-6,-19,998,-14,1,-6
3341,-6,-19,999,-14,1,-6
3342,-6,-19,999,-15,0,-6
3343,-6,-19,998,-15,2,-6
3344,-7,-20,997,-15,0,-7
3345,-8,-18,999,-15,1,-6
3346,-7,-19,998,-15,0,-6
3347,-8,-20,998,-14,1,-6
3348,-7,-20,999,-12,0,-6
3349,-6,-20,998,-14,1,-5
3350,-8,-18,997,-14,0,-5
3351,-7,-19,997,-13,0,-6
3352,-5,-20,996,-15,2,-5
3353,-6,-19,998,-14,1,-5
3354,-6,-19,999,-14,0,-5
3355,-6,-17,998,-14,1,-6
3356,-7,-19,999,-14,1,-7
3357,-7,-19,997,-13,0,-6
3358,-7,-18,997,-13,1,-5
3359,-5,-20,999,-13,1,-6
3360,-6,-19,997,-14,0,-6
3361,-8,-18,999,-16,1,-6
3362,-6,-19,997,-14,0,-5
3363,-8,-19,998,-14,1,-6
3364,-9,-20,997,-14,0,-6
3365,-7,-18,998,-13,1,-6
3366,-6,-19,997,-13,1,-5
3367,-6,-20,998,-13,1,-6
3368,-9,-19,996,-14,1,-6
3369,-7,-18,998,-13,0,-5
3370,-7,-19,999,-15,1,-6
3371,-8,-18,998,-14,0,-6
3372,-7,-19,998,-14,0,-6
3373,-8,-19,997,-14,0,-5
3374,-9,-19,998,-16,-2,-7
3375,-6,-20,999,-16,-1,-7
3376,-6,-18,996,-15,1,-5
3377,-7,-19,999,-14,0,-5
3378,-8,-20,998,-12,1,-6
3379,-8,-19,997,-17,0,-6
3380,-7,-20,998,-12,1,-6
3381,-8,-20,998,-14,1,-6
3382,-6,-19,998,-14,1,-6
3383,-6,-20,998,-14,2,-5
3384,-9,-19,998,-14,1,-6
3385,-9,-18,998,-14,1,-5
3386,-8,-19,999,-12,-1,-4
3387,-7,-20,1000,-15,0,-4
3388,-7,-21,998,-13,-1,-6
3389,-8,-19,998,-13,1,-5
3390,-7,-20,997,-14,1,-6
3391,-5,-20,998,-13,1,-6
3392,-5,-20,999,-14,1,-4
3393,-6,-19,998,-13,1,-4
3394,-6,-18,999,-15,0,-5
3395,-7,-21,997,-14,-1,-5
3396,-5,-20,997,-15,0,-5
3397,-8,-19,999,-14,0,-6
3398,-6,-19,998,-14,1,-6
3399,-8,-20,998,-14,0,-5
3400,-7,-18,997,-14,1,-5
3401,-7,-19,997,-14,1,-6
3402,-8,-19,997,-13,0,-6
3403,-8,-20,997,-13,1,-5
3404,-6,-19,997,-13,0,-6
3405,-8,-21,997,-14,0,-6
3406,-6,-19,998,-14,1,-6
3407,-7,-18,997,-15,1,-5
3408,-5,-19,998,-14,0,-6
3409,-7,-20,998,-13,0,-6
3410,-5,-19,998,-14,1,-6
3411,-7,-17,998,-14,1,-5
3412,-6,-19,998,-14,1,-4
3413,-6,-19,997,-14,0,-5
3414,-4,-20,998,-14,1,-5
3415,-6,-19,997,-13,1,-6
3416,-6,-18,997,-14,1,-6
3417,-7,-20,997,-14,2,-6
3418,-8,-20,997,-13,1,-7
3419,-8,-20,998,-14,0,-6
3420,-4,-19,997,-14,1,-6
3421,-5,-19,996,-12,2,-7
3422,-6,-18,996,-14,2,-6
3423,-7,-18,997,-14,1,-6
3424,-7,-21,998,-13,-1,-7
3425,-9,-20,997,-14,1,-7
3426,-8,-18,998,-13,1,-7
3427,-7,-19,998,-14,2,-5
3428,-6,-20,998,-15,1,-4
3429,-7,-18,998,-12,0,-7
3430,-8,-19,998,-15,0,-6
3431,-9,-19,997,-13,0,-5
3432,-7,-18,998,-14,0,-6
3433,-7,-18,999,-14,1,-6
3434,-6,-18,997,-14,1,-7
3435,-7,-20,998,-14,1,-6
3436,-7,-19,997,-13,1,-6
3437,-7,-18,997,-13,1,-5
3438,-6,-19,997,-13,1,-6
3439,-7,-19,997,-14,2,-6
3440,-7,-20,996,-14,0,-5
3441,-8,-19,998,-13,1,-6
3442,-7,-19,998,-14,0,-6
3443,-7,-19,998,-15,0,-5
3444,-5,-18,999,-13,1,-6
3445,-9,-19,997,-14,1,-6
3446,-8,-19,997,-14,1,-6
3447,-7,-19,998,-13,1,-5
3448,-8,-18,999,-13,1,-5
3449,-7,-19,998,-14,1,-6
3450,-8,-19,998,-14,1,-6
3451,-8,-20,998,-16,1,-7
3452,-6,-21,999,-13,2,-7
3453,-7,-19,999,-14,2,-6
3454,-6,-18,997,-14,1,-5
3455,-8,-19,996,-14,2,-6
3456,-8,-19,998,-14,1,-6
3457,-6,-19,998,-14,0,-6
3458,-8,-20,997,-14,0,-6
3459,-8,-19,996,-13,0,-6
3460,-6,-20,999,-14,0,-7
3461,-9,-19,998,-15,1,-6
3462,-7,-18,997,-14,2,-5
3463,-8,-18,997,-13,0,-6
3464,-6,-18,996,-13,0,-7
3465,-7,-21,997,-13,0,-6
3466,-5,-19,997,-14,1,-6
3467,-7,-19,997,-12,1,-6
3468,-6,-20,997,-13,0,-7
3469,-7,-18,998,-14,0,-5
3470,-7,-18,997,-14,1,-6
3471,-8,-19,997,-14,0,-6
3472,-8,-18,997,-13,0,-6
3473,-7,-18,998,-14,0,-7
3474,-7,-18,998,-14,1,-7
3475,-7,-19,997,-15,1,-7
3476,-6,-18,996,-15,2,-7
3477,-8,-19,997,-13,2,-6
3478,-6,-18,998,-13,1,-5
3479,-8,-20,997,-13,1,-7
3480,-7,-18,997,-14,0,-6
3481,-6,-18,998,-14,1,-6
3482,-9,-19,997,-14,2,-6
3483,-7,-18,997,-13,1,-6
3484,-5,-20,998,-14,0,-6
3485,-7,-20,998,-14,1,-7
3486,-7,-19,998,-13,0,-6
3487,-7,-20,998,-13,0,-6
3488,-7,-19,996,-13,0,-5
3489,-10,-19,997,-15,1,-6
3490,-9,-18,997,-13,1,-5
3491,-6,-20,997,-14,0,-6
3492,-6,-19,997,-13,0,-7
3493,-5,-20,998,-13,1,-6
3494,-5,-19,998,-12,0,-8
3495,-6,-21,999,-13,0,-6
3496,-7,-19,998,-14,0,-6
3497,-7,-18,997,-14,0,-7
3498,-7,-20,998,-14,0,-6
3499,-8,-20,998,-13,0,-7
3500,-8,-21,998,-14,-1,-6
3501,-8,-18,998,-15,0,-6
3502,-6,-19,999,-15,0,-6
3503,-8,-19,998,-14,1,-5
3504,-8,-20,996,-15,1,-5
3505,-8,-20,996,-15,1,-6
3506,-7,-19,998,-13,1,-7
3507,-8,-17,998,-13,1,-6
3508,-7,-18,996,-14,0,-6
3509,-8,-19,996,-15,0,-6
3510,-8,-18,997,-13,0,-6
3511,-7,-17,996,-14,1,-5
3512,-7,-20,997,-15,0,-5
3513,-9,-20,996,-14,2,-5
3514,-8,-19,998,-14,2,-5
3515,-8,-20,999,-13,2,-6
3516,-7,-21,997,-12,1,-7
3517,-6,-18,998,-15,1,-6
3518,-8,-18,997,-13,1,-6
3519,-8,-19,999,-13,1,-6
3520,-6,-19,998,-14,0,-5
3521,-7,-19,998,-14,1,-5
3522,-7,-18,996,-15,2,-5
3523,-7,-18,997,-14,1,-6
3524,-6,-20,998,-14,1,-6
3525,-9,-20,999,-14,1,-6
3526,-7,-18,999,-14,1,-5
3527,-8,-20,998,-12,1,-5
3528,-8,-19,998,-14,0,-5
3529,-6,-20,998,-13,2,-5
3530,-9,-19,998,-15,2,-6
3531,-10,-19,997,-14,1,-5
3532,-7,-20,997,-14,1,-6
3533,-6,-19,997,-14,1,-6
3534,-6,-18,997,-14,0,-6
3535,-6,-19,998,-16,1,-6
3536,-6,-16,998,-14,0,-5
3537,-6,-19,999,-14,0,-6
3538,-6,-19,999,-14,0,-4
3539,-7,-21,997,-14,0,-5
3540,-7,-20,998,-14,1,-6
3541,-7,-17,999,-16,2,-6
3542,-7,-19,999,-14,1,-6
3543,-8,-20,998,-15,1,-5
3544,-8,-18,997,-14,2,-5
3545,-5,-19,997,-13,1,-6
3546,-6,-20,997,-15,0,-5
3547,-8,-19,998,-14,2,-5
3548,-6,-20,997,-15,2,-6
3549,-7,-20,998,-15,0,-5
3550,-8,-21,997,-14,1,-5
3551,-8,-19,998,-15,1,-5
3552,-6,-19,996,-15,0,-6
3553,-8,-20,998,-15,0,-6
3554,-7,-18,997,-15,1,-6
3555,-7,-19,997,-14,1,-6
3556,-6,-20,996,-14,-1,-5
3557,-8,-20,997,-15,0,-6
3558,-6,-20,997,-14,0,-6
3559,-7,-19,997,-14,1,-7
3560,-6,-19,999,-14,1,-7
3561,-7,-20,997,-14,0,-6
3562,-8,-20,997,-12,0,-6
3563,-7,-18,999,-14,0,-6
3564,-6,-20,997,-16,1,-6
3565,-9,-19,997,-14,1,-6
3566,-9,-20,997,-14,1,-6
3567,-6,-20,998,-13,0,-5
3568,-6,-19,997,-12,1,-5
3569,-7,-19,997,-14,1,-6
3570,-8,-18,999,-15,1,-7
3571,-8,-20,997,-15,0,-7
3572,-6,-20,1000,-14,1,-7
3573,-5,-20,998,-15,2,-6
3574,-6,-19,997,-14,2,-6
3575,-5,-19,998,-14,1,-6
3576,-6,-20,998,-14,0,-7
3577,-8,-19,998,-14,2,-5
3578,-8,-19,998,-12,0,-6
3579,-8,-19,998,-13,1,-5
3580,-5,-19,998,-13,1,-4
3581,-7,-20,997,-15,1,-5
3582,-5,-18,995,-14,0,-5
3583,-6,-19,998,-15,0,-5
3584,-8,-19,998,-14,1,-6
3585,-8,-19,999,-13,1,-7
3586,-7,-19,999,-13,0,-6
3587,-6,-20,999,-14,1,-6
3588,-6,-20,998,-13,1,-7
3589,-6,-19,998,-15,1,-7
3590,-7,-20,999,-14,2,-6
3591,-8,-19,997,-14,1,-6
3592,-7,-20,996,-14,0,-6
3593,-8,-20,998,-14,0,-6
3594,-7,-17,997,-14,2,-7
3595,-7,-19,997,-15,1,-6
3596,-6,-18,999,-14,1,-6
3597,-7,-18,998,-14,1,-6
3598,-7,-20,997,-14,0,-6
3599,-7,-19,998,-14,0,-6
3600,-7,-18,997,-14,1,-6
3601,-9,-18,998,-15,0,-7
3602,-8,-19,999,-14,0,-6
3603,-7,-18,998,-13,0,-5
3604,-6,-20,998,-15,1,-5
3605,-6,-19,999,-14,-1,-5
3606,-5,-20,998,-13,0,-6
3607,-7,-20,996,-14,1,-6
3608,-7,-18,999,-15,0,-6
3609,-8,-18,998,-13,2,-5
3610,-6,-21,998,-14,2,-5
3611,-9,-19,997,-14,1,-5
3612,-7,-19,997,-14,0,-6
3613,-5,-20,997,-14,0,-6
3614,-7,-19,999,-13,0,-5
3615,-6,-19,996,-13,1,-6
3616,-7,-17,998,-15,1,-6
3617,-5,-18,999,-14,1,-5
3618,-7,-19,998,-14,2,-6
3619,-6,-17,997,-13,2,-6
3620,-6,-19,998,-14,1,-6
3621,-5,-19,999,-14,0,-6
3622,-6,-20,996,-13,0,-6
3623,-9,-19,997,-13,2,-6
3624,-7,-18,997,-14,1,-6
3625,-6,-17,997,-14,1,-7
3626,-8,-21,998,-14,1,-5
3627,-9,-18,998,-14,1,-6
3628,-7,-19,998,-15,0,-5
3629,-6,-19,997,-15,0,-5
3630,-8,-19,997,-14,1,-6
3631,-7,-18,998,-15,0,-6
3632,-7,-18,997,-15,2,-5
3633,-9,-18,998,-14,1,-6
3634,-7,-19,997,-14,1,-6
3635,-7,-19,997,-13,1,-5
3636,-6,-19,999,-14,2,-6
3637,-6,-19,997,-15,0,-5
3638,-7,-19,998,-13,1,-4
3639,-9,-19,998,-14,2,-5
3640,-6,-18,997,-15,1,-6
3641,-7,-20,997,-12,1,-6
3642,-7,-20,998,-12,1,-6
3643,-8,-19,997,-13,1,-5
3644,-5,-20,998,-14,1,-7
3645,-7,-19,998,-13,1,-6
3646,-6,-18,998,-13,1,-7
3647,-7,-20,997,-13,0,-6
3648,-7,-20,998,-14,0,-6
3649,-7,-17,998,-13,1,-6
3650,-9,-19,997,-15,0,-5
3651,-8,-19,997,-13,0,-6
3652,-5,-19,998,-14,1,-5
3653,-7,-20,997,-15,1,-6
3654,-7,-19,998,-12,0,-6
3655,-7,-19,997,-14,1,-5
3656,-8,-19,998,-13,1,-5
3657,-9,-17,998,-14,0,-5
3658,-7,-19,997,-14,1,-6
3659,-8,-20,999,-14,0,-6
3660,-6,-23,997,-13,2,-6
3661,-7,-21,998,-14,2,-6
3662,-8,-19,997,-12,1,-6
3663,-7,-19,997,-14,1,-7
3664,-8,-18,998,-14,1,-5
3665,-7,-17,996,-14,0,-7
3666,-8,-18,995,-15,0,-7
3667,-9,-20,997,-13,0,-6
3668,-8,-19,999,-14,1,-6
3669,-8,-19,997,-14,1,-5
3670,-5,-20,998,-12,2,-5
3671,-6,-19,999,-15,2,-4
3672,-7,-18,998,-12,1,-6
3673,-7,-17,998,-13,2,-6
3674,-6,-19,998,-14,2,-4
3675,-8,-20,999,-13,0,-5
3676,-9,-20,997,-12,1,-6
3677,-6,-19,999,-15,0,-6
3678,-4,-20,998,-13,0,-7
3679,-8,-21,999,-13,2,-6
3680,-7,-20,998,-13,0,-6
3681,-6,-18,996,-14,0,-6
3682,-6,-20,998,-16,1,-5
3683,-7,-20,997,-14,1,-6
3684,-8,-20,999,-13,1,-5
3685,-7,-19,997,-14,2,-5
3686,-7,-20,999,-13,1,-7
3687,-7,-19,997,-13,1,-7
3688,-8,-19,997,-13,1,-7
3689,-8,-19,997,-14,1,-5
3690,-8,-18,997,-14,1,-6
3691,-7,-19,998,-14,0,-6
3692,-6,-19,999,-13,1,-6
3693,-7,-20,997,-13,0,-5
3694,-8,-20,998,-13,1,-5
3695,-6,-19,998,-13,1,-6
3696,-6,-19,996,-14,2,-6
3697,-6,-19,998,-15,2,-6
3698,-7,-18,997,-14,1,-5
3699,-8,-19,1000,-14,0,-6
3700,-7,-19,998,-12,0,-6
3701,-7,-20,997,-14,2,-6
3702,-7,-20,998,-15,1,-6
3703,-7,-21,997,-14,1,-6
3704,-7,-19,998,-14,0,-5
3705,-7,-19,999,-15,-1,-5
3706,-8,-19,998,-14,1,-5
3707,-9,-19,996,-15,1,-6
3708,-9,-18,998,-12,1,-6
3709,-7,-20,997,-11,1,-5
3710,-5,-19,997,-13,-8,-10
3711,-8,-19,997,-10,0,-7
3712,-8,-18,998,-15,2,-6
3713,-8,-19,999,-14,1,-7
3714,-8,-17,998,-12,1,-6
3715,-8,-19,998,-14,0,-5
3716,-8,-19,998,-13,2,-5
3717,-6,-19,998,-15,0,-5
3718,-6,-20,997,-14,0,-5
3719,-7,-19,998,-14,1,-6
3720,-8,-19,998,-14,1,-6
3721,-8,-20,999,-15,0,-6
3722,-6,-18,999,-12,0,-6
3723,-8,-19,999,-15,1,-6
3724,-6,-19,997,-14,2,-4
3725,-9,-19,997,-14,0,-7
3726,-10,-19,998,-13,1,-6
3727,-8,-20,997,-14,2,-7
3728,-6,-19,998,-14,1,-6
3729,-7,-18,997,-14,1,-6
3730,-5,-19,997,-14,1,-6
3731,-8,-19,998,-14,1,-5
3732,-8,-19,997,-13,1,-6
3733,-8,-18,996,-15,2,-6
3734,-8,-17,995,-15,0,-6
3735,-7,-19,998,-14,0,-6
3736,-7,-19,996,-15,1,-7
3737,-7,-19,998,-13,2,-7
3738,-8,-19,998,-14,2,-5
3739,-7,-18,996,-13,0,-7
3740,-6,-20,996,-13,1,-8
3741,-5,-18,998,-15,1,-6
3742,-6,-20,998,-14,1,-6
3743,-7,-20,998,-14,1,-6
3744,-5,-19,999,-13,2,-6
3745,-6,-20,997,-13,1,-6
3746,-6,-18,998,-14,1,-6
3747,-8,-20,998,-13,0,-6
3748,-8,-22,998,-13,0,-7
3749,-6,-20,997,-15,1,-5
3750,-7,-20,998,-14,1,-7
3751,-8,-20,996,-14,2,-7
3752,-6,-20,997,-14,2,-6
3753,-7,-18,996,-14,0,-6
3754,-5,-19,998,-15,1,-5
3755,-8,-19,997,-13,1,-6
3756,-8,-19,996,-14,0,-6
3757,-7,-20,998,-12,2,-6
3758,-7,-21,999,-14,1,-5
3759,-8,-21,998,-15,0,-5
3760,-8,-18,999,-14,1,-6
3761,-8,-20,997,-14,1,-6
3762,-7,-19,998,-13,1,-6
3763,-5,-18,998,-14,0,-7
3764,-5,-18,998,-13,1,-5
3765,-7,-18,996,-13,2,-6
3766,-6,-20,996,-13,1,-5
3767,-6,-20,998,-13,1,-7
3768,-7,-19,998,-13,0,-7
3769,-7,-17,997,-14,0,-7
3770,-7,-20,997,-14,0,-5
3771,-6,-19,998,-15,1,-5
3772,-7,-20,997,-13,1,-6
3773,-7,-20,998,-13,0,-7
3774,-7,-18,996,-14,0,-6
3775,-8,-18,997,-13,1,-6
3776,-7,-21,996,-15,2,-5
3777,-6,-20,997,-15,1,-6
3778,-7,-18,997,-15,1,-6
3779,-7,-19,999,-13,1,-7
3780,-6,-19,998,-13,0,-6
3781,-7,-18,997,-14,1,-7
3782,-8,-19,998,-14,-1,-6
3783,-7,-20,997,-14,1,-5
3784,-8,-20,998,-14,2,-5
3785,-6,-18,999,-14,1,-5
3786,-7,-19,997,-13,0,-6
3787,-7,-17,998,-14,-1,-5
3788,-7,-18,998,-14,0,-6
3789,-6,-19,998,-14,1,-5
3790,-8,-19,998,-14,1,-6
3791,-8,-17,998,-13,2,-7
3792,-8,-18,998,-14,1,-6
3793,-9,-18,998,-15,1,-6
3794,-7,-20,1000,-13,0,-6
3795,-8,-19,998,-12,0,-6
3796,-6,-19,998,-15,0,-6
3797,-8,-19,997,-14,0,-7
3798,-7,-19,998,-15,1,-6
3799,-7,-19,998,-13,2,-6
3800,-7,-18,998,-14,1,-5
3801,-7,-20,997,-14,1,-6
3802,-7,-19,998,-15,1,-7
3803,-8,-19,998,-14,0,-6
3804,-8,-19,998,-14,2,-6
3805,-7,-20,999,-14,1,-5
3806,-7,-19,996,-14,1,-6
3807,-6,-19,996,-13,1,-7
3808,-8,-19,998,-15,0,-5
3809,-7,-19,997,-15,1,-7
3810,-7,-19,998,-13,1,-6
3811,-6,-19,999,-14,2,-5
3812,-7,-18,998,-14,0,-5
3813,-6,-19,999,-17,-1,-6
3814,-7,-19,997,-16,0,-6
3815,-6,-20,997,-15,1,-6
3816,-7,-19,999,-15,1,-6
3817,-8,-21,999,-13,1,-6
3818,-8,-21,998,-14,2,-8
3819,-8,-19,997,-14,1,-7
3820,-6,-18,999,-13,2,-7
3821,-9,-17,998,-13,0,-5
3822,-7,-18,997,-14,1,-5
3823,-9,-19,999,-14,2,-5
3824,-8,-19,997,-13,1,-6
3825,-9,-19,999,-15,0,-5
3826,-8,-20,999,-14,0,-7
3827,-6,-19,999,-13,2,-6
3828,-6,-19,998,-13,-1,-5
3829,-7,-18,998,-14,1,-5
3830,-8,-18,998,-13,2,-6
3831,-8,-20,998,-14,0,-6
3832,-8,-20,997,-13,1,-7
3833,-8,-19,998,-14,1,-5
3834,-6,-21,997,-14,1,-6
3835,-7,-20,997,-14,1,-7
3836,-7,-19,997,-14,0,-7
3837,-6,-19,1000,-14,0,-5
3838,-7,-18,997,-13,1,-6
3839,-7,-18,998,-14,1,-7
3840,-9,-19,999,-14,0,-7
3841,-7,-21,997,-13,1,-7
3842,-8,-18,997,-14,0,-6
3843,-7,-18,997,-14,1,-6
3844,-7,-18,997,-14,1,-5
3845,-6,-17,998,-15,1,-5
3846,-7,-19,998,-13,0,-5
3847,-8,-21,997,-14,0,-6
3848,-9,-17,997,-13,-1,-7
3849,-8,-18,997,-13,0,-6
3850,-7,-17,999,-13,2,-5
3851,-7,-19,998,-14,1,-6
3852,-8,-18,997,-14,0,-5
3853,-7,-19,996,-14,0,-6
3854,-8,-19,998,-14,1,-6
3855,-9,-18,998,-13,1,-6
3856,-7,-19,998,-14,1,-6
3857,-8,-19,996,-14,0,-7
3858,-6,-21,998,-13,1,-6
3859,-6,-20,998,-13,1,-7
3860,-7,-19,999,-14,1,-6
3861,-8,-18,997,-14,1,-6
3862,-8,-19,998,-14,1,-6
3863,-6,-19,999,-14,0,-6
3864,-5,-19,997,-14,0,-7
3865,-7,-21,996,-12,0,-6
3866,-8,-19,998,-14,0,-5
3867,-6,-20,998,-12,-1,-6
3868,-5,-19,998,-15,1,-6
3869,-7,-19,998,-13,1,-6
3870,-6,-19,999,-15,1,-6
3871,-9,-19,997,-15,1,-6
3872,-6,-18,998,-14,1,-6
3873,-6,-18,998,-14,1,-5
3874,-6,-19,998,-15,1,-6
3875,-5,-19,998,-15,1,-7
3876,-8,-17,998,-14,1,-6
3877,-8,-18,998,-13,0,-7
3878,-7,-19,998,-13,1,-5
3879,-7,-20,998,-15,1,-6
3880,-7,-19,998,-13,2,-6
3881,-8,-20,1000,-13,0,-6
3882,-7,-21,998,-13,2,-5
3883,-7,-19,996,-13,1,-6
3884,-6,-20,996,-13,1,-5
3885,-7,-19,998,-13,1,-6
3886,-6,-18,997,-15,0,-6
3887,-6,-19,998,-15,0,-5
3888,-7,-20,997,-13,0,-8
3889,-6,-18,998,-15,0,-6
3890,-9,-18,998,-13,1,-6
3891,-6,-20,998,-15,2,-5
3892,-5,-18,998,-14,1,-6
3893,-9,-20,998,-15,2,-5
3894,-8,-18,997,-14,1,-5
3895,-7,-20,997,-15,1,-5
3896,-8,-19,997,-13,0,-6
3897,-7,-19,998,-12,1,-7
3898,-6,-18,998,-15,1,-5
3899,-8,-19,998,-14,1,-6
3900,-7,-18,998,-14,0,-5
3901,-8,-19,998,-15,1,-6
3902,-8,-20,997,-14,2,-6
3903,-6,-19,998,-13,1,-6
3904,-6,-20,997,-14,1,-7
3905,-7,-19,998,-14,0,-6
3906,-6,-19,1000,-14,0,-5
3907,-6,-17,998,-15,1,-6
3908,-7,-18,997,-14,0,-8
3909,-6,-20,997,-15,1,-6
3910,-7,-19,999,-14,1,-6
3911,-7,-20,998,-13,0,-5
3912,-7,-18,1000,-14,1,-6
3913,-8,-17,998,-14,1,-5
3914,-7,-19,997,-14,0,-5
3915,-8,-19,998,-13,2,-6
3916,-6,-20,996,-15,1,-5
3917,-7,-18,997,-14,0,-6
3918,-6,-19,998,-14,0,-6
3919,-8,-18,997,-14,1,-7
3920,-8,-19,997,-13,1,-6
3921,-6,-19,998,-14,1,-6
3922,-9,-19,999,-13,1,-6
3923,-8,-19,998,-14,0,-7
3924,-7,-19,997,-12,1,-6
3925,-9,-18,997,-15,0,-5
3926,-9,-19,997,-14,1,-6
3927,-8,-18,999,-14,1,-6
3928,-8,-20,998,-14,0,-6
3929,-7,-19,999,-13,1,-6
3930,-6,-18,996,-14,1,-5
3931,-7,-19,999,-14,1,-6
3932,-8,-19,998,-15,1,-6
3933,-8,-18,998,-14,1,-7
3934,-9,-19,997,-14,2,-7
3935,-8,-20,998,-14,1,-6
3936,-8,-20,998,-13,1,-7
3937,-9,-19,996,-13,0,-6
3938,-6,-18,1000,-15,0,-5
3939,-6,-21,999,-14,1,-6
3940,-6,-19,997,-14,2,-6
3941,-7,-20,998,-15,0,-5
3942,-4,-20,998,-16,1,-6
3943,-7,-19,998,-13,1,-6
3944,-5,-19,997,-13,1,-6
3945,-8,-19,997,-13,0,-5
3946,-5,-20,998,-12,1,-5
3947,-6,-19,997,-14,1,-5
3948,-7,-20,996,-15,1,-4
3949,-8,-18,997,-14,2,-6
3950,-7,-20,997,-14,1,-5
3951,-6,-20,998,-14,0,-6
3952,-7,-22,998,-14,1,-6
3953,-8,-19,998,-14,0,-6
3954,-8,-20,998,-14,0,-6
3955,-8,-20,997,-15,1,-6
3956,-8,-19,997,-13,2,-5
3957,-7,-18,997,-14,1,-5
3958,-7,-18,998,-14,1,-6
3959,-7,-20,999,-14,0,-6
3960,-7,-17,997,-14,-1,-5
3961,-7,-18,997,-13,1,-7
3962,-7,-19,998,-14,0,-6
3963,-8,-19,998,-15,1,-7
3964,-7,-18,997,-12,1,-6
3965,-8,-18,998,-14,1,-6
3966,-7,-18,998,-14,0,-5
3967,-7,-19,997,-14,0,-5
3968,-9,-19,998,-14,0,-6
3969,-8,-18,997,-12,1,-5
3970,-8,-18,999,-15,0,-6
3971,-7,-18,997,-14,1,-5
3972,-7,-20,998,-13,1,-6
3973,-8,-20,998,-14,2,-5
3974,-6,-20,996,-15,1,-5
3975,-7,-18,999,-13,1,-6
3976,-7,-20,998,-12,1,-7
3977,-9,-19,999,-14,3,-7
3978,-7,-18,998,-16,1,-5
3979,-7,-18,997,-14,1,-6
3980,-7,-19,997,-14,2,-6
3981,-6,-19,998,-14,1,-6
3982,-7,-19,997,-14,0,-5
3983,-8,-19,997,-14,0,-6
3984,-7,-20,997,-16,1,-5
3985,-8,-19,998,-16,1,-4
3986,-5,-19,998,-14,1,-6
3987,-6,-19,998,-14,2,-6
3988,-6,-19,997,-14,0,-6
3989,-7,-18,998,-15,2,-6
3990,-8,-19,997,-14,1,-6
3991,-7,-19,997,-15,1,-5
3992,-7,-17,997,-14,1,-6
3993,-6,-19,999,-14,1,-5
3994,-6,-19,998,-13,2,-6
3995,-6,-20,1000,-13,1,-4
3996,-7,-19,998,-14,0,-6
3997,-5,-20,999,-14,0,-7
3998,-7,-17,998,-14,1,-6
3999,-6,-19,998,-14,1,-6
4000,-6,-20,996,-14,0,-6
4001,-9,-19,998,-14,1,-5
4002,-8,-18,998,-13,1,-5
4003,-8,-19,998,-12,1,-5
4004,-7,-20,998,-14,0,-6
4005,-7,-19,997,-15,1,-5
4006,-7,-20,997,-13,1,-5
4007,-7,-18,997,-15,2,-6
4008,-7,-19,998,-14,2,-6
4009,-7,-18,999,-13,2,-6
4010,-6,-18,995,-15,1,-6
4011,-9,-19,997,-13,1,-7
4012,-7,-18,998,-13,1,-6
4013,-6,-18,997,-15,1,-6
4014,-8,-19,998,-13,1,-6
4015,-8,-18,998,-13,0,-5
4016,-8,-17,997,-13,1,-5
4017,-6,-18,998,-13,1,-6
4018,-7,-19,997,-14,1,-5
4019,-8,-18,997,-13,1,-7
4020,-6,-18,996,-14,1,-7
4021,-6,-20,998,-15,1,-7
4022,-5,-18,1000,-13,2,-6
4023,-5,-19,998,-14,2,-5
4024,-7,-19,998,-15,2,-5
4025,-7,-19,997,-14,1,-6
4026,-8,-19,998,-14,1,-5
4027,-8,-19,997,-14,1,-6
4028,-7,-19,998,-14,1,-5
4029,-8,-20,996,-14,1,-5
4030,-9,-20,999,-14,0,-6
4031,-7,-21,998,-14,1,-6
4032,-7,-18,997,-14,2,-6
4033,-6,-19,999,-13,0,-7
4034,-7,-19,999,-12,0,-6
4035,-7,-18,998,-12,2,-4
4036,-7,-18,997,-13,1,-5
4037,-6,-20,997,-14,2,-5
4038,-5,-20,999,-14,0,-6
4039,-7,-21,997,-14,1,-5
4040,-5,-20,997,-13,1,-6
4041,-6,-19,997,-14,1,-5
4042,-6,-19,999,-14,-1,-6
4043,-6,-18,997,-15,1,-5
4044,-6,-19,997,-14,1,-6
4045,-7,-19,999,-13,1,-6
4046,-7,-19,998,-15,1,-5
4047,-6,-18,998,-12,0,-6
4048,-7,-19,997,-15,0,-7
4049,-7,-19,999,-14,1,-6
4050,-8,-19,998,-16,2,-6
4051,-6,-20,999,-12,-3,-8
4052,-7,-20,997,-14,0,-6
4053,-9,-19,998,-14,0,-5
4054,-8,-19,995,-14,1,-5
4055,-8,-19,998,-12,1,-5
4056,-8,-20,997,-15,1,-5
4057,-8,-20,997,-15,2,-5
4058,-7,-17,997,-16,0,-5
4059,-8,-17,997,-14,1,-5
4060,-8,-18,998,-13,0,-5
4061,-7,-17,997,-14,1,-5
4062,-7,-18,998,-14,0,-6
4063,-8,-18,996,-13,0,-7
4064,-7,-18,998,-14,-1,-7
4065,-8,-18,998,-13,1,-6
4066,-7,-19,995,-13,0,-7
4067,-8,-20,997,-14,1,-6
4068,-8,-19,998,-14,1,-5
4069,-7,-18,997,-13,0,-6
4070,-7,-21,997,-14,1,-7
4071,-6,-17,996,-14,0,-6
4072,-7,-20,997,-15,0,-6
4073,-8,-19,997,-13,1,-4
4074,-8,-20,998,-13,1,-6
4075,-6,-19,998,-14,0,-6
4076,-6,-18,996,-13,1,-5
4077,-6,-19,998,-12,1,-6
4078,-6,-19,997,-15,2,-7
4079,-5,-19,997,-13,1,-6
4080,-5,-18,996,-15,1,-6
4081,-6,-19,996,-14,1,-5
4082,-8,-20,999,-12,1,-5
4083,-7,-19,998,-14,1,-5
4084,-7,-19,999,-14,1,-6
4085,-7,-19,998,-15,1,-6
4086,-8,-19,998,-15,2,-5
4087,-7,-18,997,-13,1,-7
4088,-8,-18,995,-15,-1,-6
4089,-5,-19,995,-14,0,-7
4090,-5,-19,997,-13,2,-7
4091,-6,-19,995,-13,2,-7
4092,-7,-20,996,-14,1,-6
4093,-8,-20,998,-13,0,-6
4094,-9,-19,1000,-13,1,-6
4095,-6,-19,997,-13,1,-6
4096,-6,-20,997,-15,0,-6
4097,-6,-18,997,-13,2,-6
4098,-6,-20,997,-15,1,-6
4099,-9,-18,997,-14,1,-5
4100,-7,-19,998,-15,1,-6
4101,-7,-19,998,-14,0,-6
4102,-7,-20,998,-14,0,-6
4103,-8,-18,999,-15,0,-7
4104,-8,-18,998,-15,0,-7
4105,-6,-19,999,-13,0,-5
4106,-8,-21,998,-14,1,-5
4107,-7,-20,998,-12,1,-6
4108,-7,-20,998,-14,0,-6
4109,-6,-19,996,-13,0,-5
4110,-8,-19,998,-15,1,-5
4111,-9,-19,997,-15,2,-6
4112,-9,-20,997,-14,1,-6
4113,-8,-20,998,-14,1,-6
4114,-6,-20,998,-13,1,-6
4115,-7,-19,999,-13,1,-6
4116,-5,-20,998,-14,1,-6
4117,-7,-19,999,-14,2,-5
4118,-7,-20,998,-14,2,-6
4119,-6,-20,998,-15,0,-6
4120,-6,-19,997,-13,1,-6
4121,-7,-19,998,-14,2,-5
4122,-7,-19,999,-14,0,-5
4123,-8,-20,997,-14,0,-6
4124,-4,-20,996,-14,2,-7
4125,-8,-20,997,-15,3,-6
4126,-6,-20,998,-15,2,-6
4127,-6,-20,998,-15,1,-6
4128,-7,-19,997,-15,1,-6
4129,-8,-18,998,-15,1,-6
4130,-7,-19,997,-12,1,-6
4131,-7,-17,997,-13,1,-5
4132,-6,-19,997,-12,1,-7
4133,-7,-19,998,-13,1,-6
4134,-7,-20,998,-12,0,-6
4135,-6,-21,997,-13,1,-5
4136,-6,-19,998,-15,1,-5
4137,-7,-19,998,-13,2,-6
4138,-8,-18,998,-14,2,-7
4139,-7,-19,997,-14,1,-6
4140,-7,-18,999,-14,0,-5
4141,-9,-18,998,-13,1,-6
4142,-8,-20,997,-13,1,-6
4143,-8,-20,998,-14,1,-6
4144,-8,-18,998,-14,0,-6
4145,-7,-18,997,-15,1,-5
4146,-6,-18,998,-14,1,-6
4147,-5,-18,999,-12,1,-6
4148,-7,-20,998,-14,1,-5
4149,-6,-21,997,-14,1,-6
4150,-7,-18,998,-14,1,-6
4151,-7,-20,998,-15,1,-6
4152,-6,-20,998,-14,0,-6
4153,-7,-20,998,-13,1,-5
4154,-5,-20,997,-14,1,-6
4155,-7,-18,998,-14,0,-7
4156,-7,-18,998,-14,1,-6
4157,-9,-19,998,-15,1,-7
4158,-6,-20,998,-15,2,-6
4159,-9,-18,997,-13,1,-6
4160,-7,-20,997,-16,1,-4
4161,-9,-19,997,-14,0,-6
4162,-6,-19,997,-13,0,-7
4163,-7,-20,998,-13,1,-5
4164,-6,-19,999,-14,2,-6
4165,-7,-19,999,-13,2,-7
4166,-7,-18,998,-13,2,-6
4167,-7,-20,997,-15,1,-5
4168,-8,-20,997,-14,1,-5
4169,-6,-20,997,-14,0,-7
4170,-9,-20,998,-14,2,-6
4171,-7,-19,998,-13,0,-6
4172,-7,-18,998,-13,0,-7
4173,-6,-20,998,-15,1,-6
4174,-7,-19,997,-15,1,-5
4175,-7,-19,997,-15,1,-6
4176,-6,-18,998,-15,1,-6
4177,-4,-19,997,-14,1,-6
4178,-7,-20,998,-15,1,-6
4179,-8,-20,997,-13,1,-7
4180,-6,-17,998,-15,2,-6
4181,-7,-18,999,-15,2,-6
4182,-6,-17,999,-15,2,-6
4183,-7,-18,997,-14,1,-5
4184,-6,-21,998,-15,1,-5
4185,-6,-19,999,-13,2,-6
4186,-8,-20,998,-13,2,-7
4187,-7,-19,998,-13,0,-6
4188,-7,-19,997,-14,1,-6
4189,-6,-19,997,-15,1,-6
4190,-7,-19,996,-15,2,-6
4191,-7,-19,997,-13,2,-5
4192,-8,-18,997,-14,0,-5
4193,-8,-17,997,-12,0,-7
4194,-7,-19,998,-12,1,-5
4195,-7,-19,998,-13,1,-5
4196,-8,-18,996,-14,0,-5
4197,-8,-19,997,-14,0,-5
4198,-7,-18,998,-14,0,-6
4199,-7,-19,998,-15,0,-7
4200,-7,-19,998,-13,1,-7
4201,-6,-18,997,-14,2,-5
4202,-7,-19,997,-13,1,-7
4203,-8,-20,998,-13,1,-7
4204,-7,-19,998,-14,1,-6
4205,-7,-18,997,-15,0,-6
4206,-7,-19,998,-14,1,-6
4207,-7,-19,998,-14,1,-6
4208,-8,-19,998,-13,1,-6
4209,-9,-20,996,-14,1,-7
4210,-6,-21,998,-14,0,-7
4211,-5,-19,998,-14,0,-5
4212,-8,-19,999,-15,1,-6
4213,-7,-19,997,-13,2,-5
4214,-7,-20,998,-13,1,-6
4215,-8,-18,998,-14,1,-6
4216,-7,-19,999,-13,2,-6
4217,-8,-20,997,-14,1,-6
4218,-7,-19,998,-14,0,-6
4219,-8,-18,998,-13,0,-6
4220,-8,-20,998,-14,2,-5
4221,-9,-18,998,-15,2,-5
4222,-6,-19,998,-14,0,-5
4223,-7,-20,997,-14,0,-6
4224,-5,-20,997,-13,1,-6
4225,-6,-19,997,-13,1,-5
4226,-6,-19,998,-13,0,-6
4227,-7,-19,997,-14,2,-5
4228,-8,-19,997,-14,2,-6
4229,-7,-19,998,-15,2,-6
4230,-6,-20,998,-14,1,-5
4231,-5,-19,998,-13,1,-6
4232,-7,-18,997,-15,1,-7
4233,-7,-18,998,-12,2,-7
4234,-7,-19,997,-14,0,-6
4235,-7,-19,998,-15,1,-6
4236,-6,-17,998,-13,1,-6
4237,-6,-20,997,-14,1,-6
4238,-7,-21,996,-14,2,-6
4239,-7,-19,998,-14,1,-6
4240,-8,-21,998,-14,1,-6
4241,-8,-20,996,-13,0,-6
4242,-7,-18,997,-13,1,-5
4243,-8,-20,998,-14,1,-5
4244,-6,-20,998,-14,0,-6
4245,-6,-20,996,-13,0,-5
4246,-7,-19,998,-13,2,-5
4247,-7,-20,998,-13,1,-5
4248,-8,-19,999,-14,0,-6
4249,-7,-18,999,-14,1,-6
4250,-7,-19,995,-13,1,-6
4251,-8,-20,997,-14,1,-5
4252,-7,-18,999,-14,2,-5
4253,-7,-19,997,-13,0,-5
4254,-6,-22,997,-12,0,-5
4255,-6,-18,996,-14,0,-6
4256,-6,-20,997,-14,1,-7
4257,-6,-20,997,-15,0,-6
4258,-8,-19,997,-15,1,-7
4259,-9,-20,998,-13,2,-6
4260,-7,-18,999,-14,1,-7
4261,-6,-18,998,-13,0,-6
4262,-6,-21,999,-14,1,-6
4263,-8,-21,997,-13,1,-6
4264,-7,-20,998,-14,1,-8
4265,-8,-19,996,-14,0,-5
4266,-8,-18,999,-14,0,-6
4267,-7,-18,998,-15,2,-6
4268,-7,-20,997,-13,1,-6
4269,-7,-19,999,-14,0,-6
4270,-6,-20,998,-14,1,-5
4271,-6,-18,998,-15,1,-6
4272,-6,-19,999,-16,1,-6
4273,-8,-18,997,-14,1,-6
4274,-6,-18,998,-14,0,-7
4275,-8,-19,997,-15,0,-6
4276,-8,-19,998,-15,1,-6
4277,-8,-18,999,-15,0,-6
4278,-6,-18,998,-14,1,-5
4279,-6,-20,998,-15,3,-5
4280,-7,-20,998,-14,2,-6
4281,-4,-20,997,-14,0,-5
4282,-5,-19,996,-14,0,-5
4283,-5,-18,998,-14,1,-5
4284,-8,-18,1000,-15,1,-6
4285,-7,-19,997,-15,0,-6
4286,-8,-18,998,-14,0,-6
4287,-7,-19,998,-14,1,-5
4288,-8,-19,998,-14,1,-5
4289,-6,-19,997,-15,2,-6
4290,-8,-18,997,-15,1,-6
4291,-8,-19,998,-14,2,-6
4292,-5,-20,997,-13,1,-5
4293,-6,-18,997,-14,1,-8
4294,-9,-20,997,-14,1,-7
4295,-8,-19,997,-14,1,-6
4296,-7,-17,998,-14,1,-6
4297,-7,-21,997,-15,1,-7
4298,-8,-18,997,-14,1,-7
4299,-9,-18,999,-13,0,-5
4300,-5,-20,998,-15,0,-4
4301,-6,-19,997,-15,1,-6
4302,-8,-20,996,-13,1,-7
4303,-6,-19,997,-14,1,-5
4304,-6,-20,997,-13,1,-7
4305,-5,-22,997,-15,1,-6
4306,-6,-19,998,-15,1,-5
4307,-9,-18,998,-13,1,-5
4308,-7,-19,999,-13,1,-6
4309,-6,-18,997,-13,2,-5
4310,-8,-19,997,-14,2,-7
4311,-9,-18,998,-13,1,-7
4312,-6,-19,999,-14,1,-7
4313,-8,-20,998,-13,1,-6
4314,-5,-21,996,-14,1,-6
4315,-9,-20,996,-14,1,-7
4316,-8,-20,997,-13,0,-6
4317,-7,-18,997,-14,2,-6
4318,-8,-18,997,-14,0,-6
4319,-7,-20,997,-13,1,-5
4320,-7,-20,997,-13,1,-6
4321,-5,-19,998,-13,2,-6
4322,-7,-19,997,-14,2,-7
4323,-7,-18,997,-14,0,-6
4324,-5,-20,997,-14,-1,-5
4325,-7,-18,998,-14,1,-5
4326,-8,-19,998,-15,0,-6
4327,-8,-19,998,-15,0,-6
4328,-7,-17,999,-14,0,-7
4329,-7,-21,997,-15,0,-6
4330,-8,-20,997,-13,1,-6
4331,-8,-20,997,-14,1,-6
4332,-6,-19,997,-14,1,-7
4333,-7,-17,997,-16,0,-7
4334,-7,-18,998,-14,1,-6
4335,-5,-19,997,-14,0,-7
4336,-7,-19,998,-13,1,-6
4337,-8,-19,997,-13,1,-6
4338,-7,-18,998,-14,-1,-6
4339,-7,-18,996,-13,1,-5
4340,-7,-20,998,-13,1,-6
4341,-7,-19,998,-15,1,-6
4342,-7,-19,1000,-14,0,-6
4343,-8,-19,999,-14,1,-6
4344,-9,-19,998,-14,0,-7
4345,-8,-18,998,-14,1,-5
4346,-5,-19,998,-13,1,-7
4347,-7,-21,998,-14,1,-6
4348,-5,-20,996,-14,1,-5
4349,-7,-18,997,-14,-1,-6
4350,-8,-20,997,-16,0,-6
4351,-7,-19,998,-15,0,-6
4352,-7,-19,998,-14,1,-5
4353,-7,-20,998,-13,1,-6
4354,-8,-18,999,-13,2,-6
4355,-8,-19,999,-14,2,-6
4356,-8,-18,998,-14,0,-7
4357,-6,-19,996,-14,0,-7
4358,-7,-21,998,-14,0,-6
4359,-6,-19,997,-14,1,-6
4360,-7,-19,998,-14,0,-7
4361,-6,-19,998,-14,1,-7
4362,-8,-19,999,-13,1,-6
4363,-8,-18,998,-14,1,-6
4364,-8,-21,997,-14,1,-6
4365,-8,-20,998,-15,1,-5
4366,-7,-18,999,-15,1,-7
4367,-8,-18,999,-14,3,-5
4368,-7,-19,998,-14,2,-5
4369,-7,-18,997,-13,3,-6
4370,-8,-19,997,-13,2,-7
4371,-8,-19,998,-14,1,-6
4372,-7,-19,997,-15,2,-6
4373,-7,-19,997,-13,1,-6
4374,-8,-19,997,-15,1,-6
4375,-8,-17,999,-12,0,-6
4376,-8,-18,999,-14,0,-6
4377,-7,-20,999,-16,1,-6
4378,-6,-20,999,-14,1,-6
4379,-8,-19,998,-13,0,-5
4380,-6,-19,999,-13,1,-6
4381,-8,-21,998,-14,1,-6
4382,-9,-19,997,-14,1,-5
4383,-8,-19,999,-15,1,-5
4384,-6,-19,998,-14,2,-6
4385,-7,-19,999,-14,1,-5
4386,-8,-18,997,-14,0,-6
4387,-7,-19,997,-15,1,-5
4388,-7,-18,996,-15,1,-5
4389,-7,-18,997,-17,2,-4
4390,-8,-20,997,-14,1,-5
4391,-7,-19,997,-12,0,-4
4392,-7,-17,997,-14,1,-6
4393,-7,-19,997,-14,0,-6
4394,-7,-18,997,-11,0,-6
4395,-9,-20,997,-15,0,-6
4396,-6,-19,998,-14,0,-5
4397,-6,-20,997,-13,0,-6
4398,-8,-20,997,-15,0,-6
4399,-6,-19,998,-13,0,-7
4400,-5,-18,998,-14,1,-5
4401,-9,-20,997,-14,1,-5
4402,-9,-19,998,-14,0,-7
4403,-7,-20,997,-16,1,-5
4404,-6,-20,997,-14,1,-6
4405,-9,-19,998,-14,0,-5
4406,-5,-19,998,-14,1,-6
4407,-7,-20,997,-14,1,-6
4408,-8,-18,997,-15,2,-6
4409,-7,-19,997,-14,0,-5
4410,-6,-21,998,-14,0,-6
4411,-7,-19,999,-13,0,-6
4412,-7,-17,998,-13,2,-4
4413,-7,-18,997,-15,2,-6
4414,-7,-18,997,-15,1,-6
4415,-8,-20,998,-14,1,-7
4416,-7,-19,998,-15,0,-6
4417,-9,-21,998,-15,1,-5
4418,-7,-18,998,-14,1,-5
4419,-9,-19,996,-13,1,-6
4420,-7,-17,995,-13,1,-6
4421,-6,-19,998,-14,0,-6
4422,-8,-20,998,-13,0,-6
4423,-8,-18,997,-14,1,-6
4424,-9,-19,996,-14,0,-5
4425,-6,-18,999,-14,1,-5
4426,-8,-19,996,-15,2,-7
4427,-9,-18,998,-15,0,-5
4428,-7,-18,998,-15,0,-6
4429,-7,-17,999,-14,1,-6
4430,-7,-19,999,-14,1,-6
4431,-7,-21,997,-13,1,-5
4432,-7,-19,997,-13,2,-5
4433,-8,-20,995,-13,2,-7
4434,-8,-19,998,-13,0,-7
4435,-9,-20,998,-13,1,-5
4436,-7,-19,998,-13,1,-6
4437,-7,-19,997,-14,1,-6
4438,-6,-20,997,-14,1,-5
4439,-7,-19,996,-15,2,-6
4440,-8,-18,997,-14,2,-5
4441,-8,-18,997,-14,1,-5
4442,-8,-21,996,-14,0,-6
4443,-7,-19,997,-13,1,-6
4444,-6,-20,998,-13,1,-6
4445,-8,-19,999,-13,1,-5
4446,-7,-18,998,-14,-1,-6
4447,-8,-19,997,-14,1,-7
4448,-6,-20,998,-13,0,-6
4449,-8,-19,997,-15,0,-6
4450,-5,-22,997,-13,0,-6
4451,-7,-18,997,-14,0,-6
4452,-7,-19,999,-14,1,-6
4453,-7,-19,998,-15,1,-6
4454,-7,-19,998,-14,0,-6
4455,-6,-18,998,-13,1,-6
4456,-4,-19,998,-15,1,-6
4457,-6,-21,997,-15,1,-6
4458,-7,-21,997,-13,1,-6
4459,-9,-18,999,-14,0,-5
4460,-6,-18,997,-13,1,-5
4461,-7,-18,997,-13,-1,-5
4462,-7,-21,999,-13,1,-6
4463,-7,-20,998,-14,1,-5
4464,-8,-18,998,-14,0,-7
4465,-7,-19,998,-14,2,-6
4466,-6,-19,998,-14,1,-5
4467,-9,-19,997,-13,0,-5
4468,-7,-20,998,-14,0,-5
4469,-7,-19,998,-15,1,-4
4470,-9,-22,997,-14,2,-5
4471,-7,-20,999,-15,1,-6
4472,-7,-20,996,-15,1,-6
4473,-8,-18,997,-15,1,-6
4474,-8,-19,997,-13,1,-6
4475,-6,-19,997,-13,1,-6
4476,-7,-20,998,-13,0,-7
4477,-7,-20,999,-13,1,-7
4478,-8,-18,997,-14,1,-7
4479,-8,-21,998,-14,1,-6
4480,-6,-18,1000,-14,2,-5
4481,-7,-20,999,-14,0,-6
4482,-7,-18,998,-14,1,-6
4483,-7,-19,997,-15,1,-5
4484,-6,-19,998,-14,2,-5
4485,-7,-20,997,-13,1,-5
4486,-7,-21,1000,-14,1,-6
4487,-6,-20,998,-13,0,-6
4488,-7,-19,996,-14,2,-7
4489,-7,-16,996,-13,1,-6
4490,-5,-19,998,-13,1,-6
4491,-7,-20,998,-14,2,-5
4492,-8,-19,998,-13,1,-6
4493,-8,-19,997,-14,1,-5
4494,-6,-19,998,-14,1,-6
4495,-9,-19,999,-13,0,-6
4496,-6,-19,998,-13,2,-6
4497,-8,-18,997,-15,1,-5
4498,-9,-18,997,-14,-1,-6
4499,-7,-20,998,-13,1,-5
4500,-7,-18,999,-15,1,-6
4501,-8,-18,998,-14,1,-6
4502,-8,-18,997,-13,1,-6
4503,-8,-18,998,-15,1,-6
4504,-6,-20,999,-15,1,-6
4505,-6,-21,997,-15,1,-6
4506,-6,-18,997,-15,2,-5
4507,-6,-20,997,-14,1,-5
4508,-8,-21,998,-15,2,-6
4509,-8,-20,998,-14,1,-6
4510,-8,-19,996,-12,1,-6
4511,-9,-18,996,-13,1,-7
4512,-9,-18,997,-14,2,-7
4513,-7,-18,998,-13,2,-7
4514,-7,-19,998,-16,2,-5
4515,-9,-20,997,-13,1,-6
4516,-5,-22,996,-14,1,-6
4517,-8,-20,996,-14,1,-6
4518,-9,-19,996,-15,1,-6
4519,-8,-19,998,-15,1,-5
4520,-8,-18,997,-13,2,-6
4521,-6,-19,997,-14,1,-5
4522,-7,-19,998,-14,1,-6
4523,-7,-18,999,-13,0,-6
4524,-9,-19,997,-13,2,-6
4525,-7,-19,997,-14,1,-6
4526,-7,-17,997,-14,1,-6
4527,-5,-19,998,-15,1,-5
4528,-8,-20,997,-13,1,-5
4529,-9,-19,998,-13,1,-6
4530,-7,-21,999,-14,2,-6
4531,-7,-18,998,-13,0,-5
4532,-6,-18,998,-13,1,-5
4533,-8,-18,999,-14,2,-5
4534,-7,-18,999,-12,1,-6
4535,-7,-19,998,-14,2,-6
4536,-8,-18,998,-14,1,-5
4537,-9,-21,998,-12,1,-6
4538,-9,-19,997,-13,1,-7
4539,-8,-20,997,-14,2,-6
4540,-6,-19,996,-13,1,-6
4541,-7,-19,997,-13,1,-5
4542,-7,-19,997,-14,1,-6
4543,-8,-19,997,-14,1,-7
4544,-5,-18,998,-13,0,-6
4545,-8,-18,998,-13,1,-6
4546,-9,-18,996,-14,1,-7
4547,-9,-20,996,-13,1,-6
4548,-7,-21,998,-12,0,-6
4549,-5,-18,995,-13,1,-7
4550,-8,-20,996,-14,2,-6
4551,-8,-17,999,-13,1,-6
4552,-7,-18,997,-14,1,-6
4553,-7,-19,997,-14,1,-7
4554,-8,-19,998,-15,1,-6
4555,-7,-19,997,-14,0,-6
4556,-7,-19,997,-14,-1,-6
4557,-7,-17,997,-13,1,-5
4558,-7,-18,997,-14,1,-6
4559,-7,-19,998,-15,0,-6
4560,-7,-20,998,-14,2,-5
4561,-6,-19,995,-14,1,-6
4562,-7,-18,999,-15,0,-7
4563,-8,-20,997,-15,1,-7
4564,-7,-19,996,-15,1,-7
4565,-8,-18,998,-12,0,-7
4566,-6,-20,998,-13,1,-6
4567,-7,-18,997,-15,0,-7
4568,-6,-19,997,-13,2,-6
4569,-7,-19,998,-14,1,-8
4570,-8,-17,997,-14,1,-6
4571,-8,-18,998,-13,1,-5
4572,-8,-18,997,-14,1,-7
4573,-8,-17,997,-13,2,-6
4574,-7,-18,997,-13,2,-6
4575,-8,-20,997,-14,0,-6
4576,-7,-18,996,-14,1,-6
4577,-6,-17,998,-14,1,-6
4578,-8,-18,997,-14,0,-6
4579,-7,-20,999,-15,1,-5
4580,-6,-20,997,-15,-1,-6
4581,-7,-20,997,-15,1,-6
4582,-7,-20,997,-13,1,-6
4583,-8,-19,997,-15,1,-5
4584,-8,-18,998,-13,2,-5
4585,-7,-18,998,-14,1,-5
4586,-8,-19,997,-14,1,-6
4587,-9,-18,997,-13,1,-5
4588,-6,-21,998,-13,0,-6
4589,-7,-19,997,-13,0,-7
4590,-7,-19,996,-14,0,-6
4591,-7,-18,997,-13,2,-6
4592,-7,-18,996,-14,1,-7
4593,-6,-19,997,-14,0,-5
4594,-9,-18,996,-14,1,-5
4595,-7,-18,997,-14,1,-6
4596,-8,-18,999,-14,2,-6
4597,-8,-20,998,-13,1,-6
4598,-7,-18,997,-14,1,-6
4599,-8,-20,998,-13,2,-6
4600,-8,-20,998,-15,1,-6
4601,-5,-18,998,-14,0,-6
4602,-6,-18,997,-14,0,-6
4603,-7,-19,998,-13,1,-6
4604,-6,-20,998,-14,0,-6
4605,-7,-19,999,-14,0,-7
4606,-6,-20,998,-15,1,-7
4607,-6,-20,999,-14,0,-7
4608,-7,-20,998,-15,1,-5
4609,-8,-21,998,-13,2,-6
4610,-7,-19,998,-12,2,-6
4611,-8,-18,999,-14,1,-6
4612,-8,-20,997,-14,1,-5
4613,-8,-19,998,-13,0,-6
4614,-6,-19,997,-14,0,-7
4615,-6,-21,998,-15,1,-5
4616,-7,-19,998,-13,2,-7
4617,-6,-16,998,-14,0,-6
4618,-6,-21,998,-13,0,-6
4619,-8,-19,997,-13,1,-6
4620,-7,-19,997,-14,1,-6
4621,-6,-19,999,-13,1,-7
4622,-8,-18,998,-15,0,-6
4623,-7,-18,998,-14,1,-6
4624,-7,-20,998,-15,-1,-7
4625,-8,-20,998,-14,0,-6
4626,-6,-18,999,-13,1,-5
4627,-8,-19,998,-15,1,-6
4628,-7,-18,999,-14,0,-6
4629,-7,-20,997,-14,0,-6
4630,-8,-19,997,-14,1,-5
4631,-7,-18,999,-14,1,-6
4632,-7,-19,997,-14,1,-6
4633,-9,-18,998,-15,1,-6
4634,-6,-21,996,-14,2,-6
4635,-6,-19,997,-15,2,-6
4636,-6,-19,1000,-15,1,-5
4637,-6,-19,997,-14,0,-6
4638,-6,-20,998,-14,1,-6
4639,-7,-18,997,-14,1,-5
4640,-6,-18,997,-15,1,-4
4641,-6,-20,997,-13,1,-5
4642,-6,-20,997,-14,1,-5
4643,-6,-18,996,-14,0,-5
4644,-8,-19,998,-14,0,-6
4645,-8,-20,998,-15,0,-6
4646,-6,-18,997,-15,1,-6
4647,-6,-19,999,-15,2,-6
4648,-6,-18,997,-14,1,-6
4649,-9,-20,996,-14,0,-6
4650,-7,-19,998,-14,1,-7
4651,-7,-19,998,-12,1,-6
4652,-6,-19,998,-14,2,-6
4653,-7,-20,999,-14,1,-6
4654,-8,-19,999,-12,0,-7
4655,-6,-17,997,-15,0,-5
4656,-7,-20,998,-14,1,-6
4657,-7,-17,997,-14,3,-6
4658,-8,-19,998,-14,2,-6
4659,-6,-19,999,-13,2,-5
4660,-7,-21,997,-15,0,-6
4661,-9,-20,996,-14,1,-6
4662,-8,-19,997,-14,1,-6
4663,-8,-18,997,-14,1,-6
4664,-6,-21,998,-15,2,-5
4665,-6,-19,999,-16,0,-6
4666,-8,-19,997,-14,0,-6
4667,-8,-18,997,-12,0,-6
4668,-5,-18,998,-14,1,-6
4669,-10,-17,996,-13,1,-7
4670,-7,-19,997,-15,0,-6
4671,-10,-19,996,-12,1,-6
4672,-7,-20,996,-13,1,-5
4673,-6,-19,996,-14,0,-6
4674,-7,-21,997,-13,1,-5
4675,-7,-20,999,-14,0,-6
4676,-8,-19,997,-15,-1,-8
4677,-7,-19,997,-14,0,-7
4678,-6,-20,997,-13,1,-6
4679,-7,-18,999,-14,2,-6
4680,-9,-19,997,-14,2,-6
4681,-8,-18,999,-12,1,-5
4682,-8,-18,1000,-15,2,-6
4683,-10,-19,998,-14,1,-6
4684,-7,-19,997,-13,0,-6
4685,-6,-17,997,-13,0,-6
4686,-9,-18,997,-14,1,-7
4687,-7,-19,1001,-14,1,-6
4688,-6,-18,999,-15,0,-6
4689,-7,-20,998,-14,1,-6
4690,-8,-20,999,-15,1,-6
4691,-7,-20,999,-14,0,-4
4692,-7,-19,997,-13,0,-6
4693,-8,-19,998,-13,0,-7
4694,-7,-18,998,-15,0,-7
4695,-9,-19,996,-14,-1,-6
4696,-8,-20,999,-15,0,-7
4697,-7,-19,996,-14,1,-7
4698,-7,-19,997,-15,1,-6
4699,-7,-19,998,-14,2,-7
4700,-6,-17,998,-15,1,-6
4701,-7,-18,997,-13,1,-6
4702,-8,-20,1000,-13,0,-7
4703,-7,-20,998,-13,0,-7
4704,-5,-18,998,-13,0,-6
4705,-7,-19,998,-14,1,-6
4706,-8,-20,998,-13,1,-7
4707,-6,-19,1000,-13,0,-7
4708,-7,-20,997,-15,1,-7
4709,-6,-19,997,-14,2,-6
4710,-7,-20,999,-14,0,-6
4711,-7,-19,999,-12,1,-6
4712,-9,-20,997,-13,1,-6
4713,-8,-19,998,-14,0,-5
4714,-7,-18,997,-13,-1,-6
4715,-6,-19,997,-13,1,-6
4716,-6,-19,997,-15,0,-7
4717,-7,-19,998,-13,1,-6
4718,-5,-19,998,-14,1,-5
4719,-7,-18,999,-13,1,-6
4720,-9,-18,996,-11,0,-6
4721,-6,-19,998,-13,0,-7
4722,-6,-19,998,-13,1,-6
4723,-8,-19,998,-13,0,-7
4724,-5,-19,998,-9,-3,-9
4725,-6,-20,998,-13,6,-5
4726,-7,-20,997,-13,2,-6
4727,-8,-19,997,-13,1,-5
4728,-8,-19,999,-12,1,-6
4729,-9,-20,996,-14,1,-6
4730,-8,-19,997,-14,2,-6
4731,-10,-19,998,-13,1,-6
4732,-6,-20,997,-14,1,-6
4733,-6,-19,996,-14,1,-6
4734,-7,-17,996,-14,0,-6
4735,-7,-19,998,-15,0,-7
4736,-8,-17,998,-15,1,-6
4737,-5,-19,997,-14,0,-6
4738,-7,-20,999,-13,1,-6
4739,-6,-18,998,-15,1,-7
4740,-7,-21,998,-15,1,-7
4741,-7,-19,997,-14,1,-7
4742,-7,-19,998,-13,1,-6
4743,-8,-18,998,-15,1,-5
4744,-8,-18,997,-13,2,-7
4745,-8,-19,998,-14,1,-7
4746,-7,-20,997,-14,1,-5
4747,-7,-20,999,-13,0,-6
4748,-7,-19,998,-15,1,-6
4749,-7,-18,998,-14,2,-5
4750,-9,-19,997,-14,1,-7
4751,-7,-20,997,-14,2,-7
4752,-7,-19,999,-13,1,-6
4753,-5,-20,998,-13,1,-6
4754,-7,-19,998,-14,1,-5
4755,-7,-19,997,-14,1,-6
4756,-7,-19,997,-15,1,-7
4757,-7,-21,999,-15,1,-5
4758,-6,-19,998,-13,1,-7
4759,-8,-19,998,-15,1,-6
4760,-7,-18,997,-14,1,-6
4761,-6,-18,999,-14,1,-7
4762,-5,-20,997,-15,1,-7
4763,-7,-19,998,-15,1,-6
4764,-7,-20,998,-14,0,-7
4765,-6,-19,997,-15,1,-7
4766,-8,-19,998,-13,1,-5
4767,-8,-19,997,-13,1,-5
4768,-8,-19,998,-13,1,-7
4769,-6,-19,996,-13,1,-6
4770,-7,-18,997,-14,2,-7
4771,-6,-18,998,-14,1,-6
4772,-6,-19,997,-14,0,-6
4773,-5,-19,998,-15,1,-6
4774,-6,-18,997,-13,1,-6
4775,-6,-19,997,-13,2,-5
4776,-8,-18,996,-13,2,-6
4777,-5,-20,998,-14,1,-6
4778,-7,-20,997,-14,1,-6
4779,-6,-19,998,-14,1,-6
4780,-7,-20,997,-14,-1,-6
4781,-6,-19,997,-13,0,-6
4782,-5,-19,998,-14,0,-5
4783,-8,-18,998,-15,0,-5
4784,-9,-18,997,-15,1,-5
4785,-7,-21,997,-14,2,-5
4786,-5,-19,998,-13,2,-6
4787,-8,-19,998,-13,1,-6
4788,-9,-19,998,-13,1,-6
4789,-8,-19,998,-14,1,-7
4790,-6,-17,998,-15,0,-7
4791,-7,-18,997,-14,1,-6
4792,-7,-18,995,-12,1,-6
4793,-6,-19,998,-13,2,-6
4794,-5,-18,998,-14,0,-6
4795,-8,-19,997,-15,1,-6
4796,-7,-20,997,-13,2,-6
4797,-9,-19,997,-14,0,-6
4798,-8,-20,997,-14,0,-6
4799,-6,-19,998,-13,2,-6
4800,-7,-19,997,-13,2,-5
4801,-5,-20,998,-13,1,-5
4802,-6,-19,998,-13,0,-5
4803,-8,-18,998,-14,0,-6
4804,-6,-19,998,-12,1,-5
4805,-9,-17,997,-15,0,-6
4806,-8,-18,998,-14,0,-6
4807,-8,-19,996,-13,1,-6
4808,-7,-19,998,-15,2,-6
4809,-9,-19,998,-14,2,-6
4810,-7,-19,998,-14,0,-7
4811,-7,-18,996,-14,-1,-7
4812,-7,-18,998,-14,0,-6
4813,-7,-17,997,-15,1,-6
4814,-6,-19,998,-13,0,-7
4815,-6,-19,998,-14,1,-7
4816,-9,-19,998,-15,2,-6
4817,-8,-18,996,-13,1,-6
4818,-9,-20,997,-15,1,-6
4819,-7,-19,998,-13,1,-7
4820,-7,-20,998,-13,0,-7
4821,-8,-20,998,-14,1,-6
4822,-7,-19,998,-14,1,-6
4823,-6,-20,998,-15,1,-6
4824,-6,-19,997,-14,1,-6
4825,-6,-18,998,-15,2,-5
4826,-7,-18,999,-15,1,-6
4827,-5,-19,996,-15,0,-6
4828,-8,-19,999,-13,0,-6
4829,-5,-19,998,-15,1,-6
4830,-6,-17,997,-14,0,-6
4831,-7,-19,997,-13,1,-5
