sequence,AccelerometerX,AccelerometerY,AccelerometerZ,GyroscopeX,GyroscopeY,GyroscopeZ
0,-330,81,942,-17,9,-1
1,-160,-13,1018,-22,-42,12
2,153,-121,1054,-15,-60,19
3,316,-128,1014,4,-31,17
4,237,-32,991,13,20,1
5,-49,60,960,5,51,-10
6,-301,98,941,-12,38,-7
7,-304,51,967,-20,-14,7
8,-39,-69,1026,-20,-53,14
9,266,-144,1047,-13,-53,18
10,327,-96,1006,18,-7,12
11,125,12,993,2,39,-4
12,-175,84,945,5,51,-11
13,-359,85,925,-23,21,-2
14,-218,7,995,-18,-37,10
15,108,-126,1037,-22,-61,17
16,325,-138,1043,4,-39,19
17,270,-46,1008,14,11,6
18,-10,44,969,6,47,-10
19,-294,89,921,-3,41,-8
20,-341,63,947,-16,-7,7
21,-83,-50,1020,-19,-56,12
22,262,-133,1057,-7,-60,13
23,340,-111,1021,13,-25,13
24,159,-3,995,17,30,3
25,-154,96,954,5,50,-8
26,-347,87,898,-15,25,-5
27,-230,25,997,-19,-29,9
28,79,-95,1049,-17,-63,18
29,315,-133,1043,0,-42,20
30,284,-54,1008,14,6,6
31,21,33,961,4,51,-8
32,-250,99,936,-7,48,-9
33,-331,74,940,-21,6,2
34,-121,-38,1027,-25,-47,11
35,209,-131,1057,-15,-60,19
36,318,-120,1020,4,-22,15
37,189,-29,984,11,26,-1
38,-107,67,950,5,53,-9
39,-319,87,929,-12,29,-2
40,-269,29,976,-18,-21,8
41,18,-83,1055,-17,-61,14
42,285,-142,1039,-1,-50,19
43,295,-77,999,15,-3,10
44,73,28,966,12,39,-7
45,-194,99,942,0,50,-9
46,-334,85,946,-18,10,1
47,-167,-3,1020,-21,-41,10
48,153,-118,1049,-17,-60,18
49,317,-127,1010,1,-29,18
50,243,-32,1001,12,21,2
51,-48,56,953,3,52,-11
52,-300,92,939,-13,40,-7
53,-308,45,966,-20,-15,7
54,-47,-74,1021,-23,-54,14
55,265,-147,1051,-5,-54,19
56,323,-98,1009,13,-10,13
57,123,9,990,14,36,-5
58,-174,91,948,3,47,-8
59,-359,91,923,-13,19,-1
60,-212,12,995,-20,-39,9
61,119,-115,1042,-16,-62,17
62,334,-138,1042,2,-40,19
63,276,-49,1006,16,11,6
64,-7,52,971,5,49,-9
65,-293,97,925,-7,43,-7
66,-335,61,949,-20,-4,5
67,-89,-49,1019,-21,-53,14
68,252,-142,1055,-9,-56,19
69,335,-107,1028,10,-19,14
70,161,-2,988,15,33,-2
71,-150,76,951,-1,51,-12
72,-349,94,915,-12,26,-3
73,-235,23,984,-23,-28,10
74,74,-104,1042,-16,-63,16
75,315,-136,1057,-1,-42,19
76,283,-64,1001,16,4,8
77,17,35,961,8,48,-8
78,-252,100,935,-3,44,-10
79,-329,69,934,-17,3,3
80,-117,-32,1035,-22,-47,13
81,210,-127,1061,-9,-60,19
82,319,-121,1017,6,-21,15
83,191,-12,984,14,25,0
84,-105,70,939,4,53,-11
85,-315,92,932,-11,30,-6
86,-265,40,985,-19,-21,7
87,20,-88,1046,-21,-59,15
88,283,-145,1040,-6,-50,19
89,296,-76,1003,12,-1,11
90,67,14,959,9,41,-6
91,-203,98,952,0,48,-10
92,-336,78,939,-16,9,1
93,-170,-15,1010,-20,-42,13
94,153,-120,1061,-13,-63,18
95,320,-126,1014,4,-32,18
96,240,-34,994,15,19,3
97,-48,60,958,7,49,-10
98,-299,104,938,-8,39,-6
99,-307,47,968,-22,-15,5
100,-43,-66,1028,-20,-53,14
101,266,-133,1046,-5,-54,19
102,320,-96,1007,9,-9,12
103,131,9,995,11,39,-6
104,-172,92,949,1,50,-10
105,-356,82,924,-18,22,0
106,-214,6,991,-21,-37,10
107,109,-116,1035,-18,-60,17
108,330,-139,1042,0,-38,18
109,274,-46,1007,16,14,4
110,-12,52,972,7,50,-9
111,-288,100,924,-6,44,-8
112,-336,61,943,-21,-4,5
113,-90,-54,1018,-20,-55,13
114,253,-138,1063,-10,-58,21
115,338,-109,1021,8,-20,13
116,164,-6,991,15,31,-3
117,-149,79,952,1,50,-9
118,-354,89,908,-11,25,-2
119,-238,23,993,-20,-31,8
120,74,-103,1038,-15,-64,16
121,313,-137,1053,1,-44,20
122,280,-61,1005,16,1,6
123,22,37,959,11,46,-9
124,-251,101,934,-6,45,-9
125,-323,71,939,-15,3,2
126,-115,-25,1032,-21,-47,12
127,210,-130,1056,-10,-61,18
128,320,-115,1019,5,-22,16
129,189,-9,984,14,26,0
130,-107,67,944,-1,53,-11
131,-316,92,934,-12,30,-5
132,-263,37,982,-18,-21,7
133,21,-93,1043,-21,-60,16
134,281,-140,1042,0,-48,20
135,294,-75,1001,10,-2,9
136,66,17,964,9,41,-8
137,-201,93,948,-2,49,-11
138,-333,76,938,-15,7,2
139,-166,-13,1017,-20,-43,13
140,150,-120,1057,-11,-62,17
141,315,-129,1007,6,-31,16
142,238,-23,999,16,19,2
143,-51,55,951,7,48,-11
144,-297,98,941,-8,37,-6
145,-303,58,974,-17,-15,7
146,-41,-75,1026,-22,-56,14
147,266,-138,1045,-5,-56,18
148,324,-88,1007,14,-11,12
149,125,2,986,9,36,-6
150,-171,87,950,2,48,-10
151,-352,84,926,-15,19,0
152,-213,0,996,-21,-38,11
153,113,-112,1040,-13,-60,16
154,327,-133,1035,1,-41,17
155,270,-49,1003,19,12,4
156,-12,49,971,7,47,-9
157,-287,105,923,-3,41,-8
158,-313,70,958,-23,-6,3
159,-67,-57,1014,-18,-49,13
160,262,-124,1059,-7,-53,22
161,329,-86,1026,6,-14,12
162,150,3,986,3,38,-8
163,-158,82,949,-5,53,-12
164,-361,85,919,-21,26,0
165,-241,3,983,-27,-31,9
166,81,-129,1032,-22,-64,13
167,321,-159,1058,3,-43,19
168,277,-78,1006,18,4,8
169,6,36,962,17,48,-9
170,-261,107,930,1,43,-11
171,-332,76,932,-10,0,2
172,-107,-16,1037,-19,-50,12
173,224,-109,1065,-6,-62,17
174,329,-107,1015,4,-22,13
175,199,-3,983,11,28,-1
176,-101,80,949,-2,58,-9
177,-321,93,931,-20,36,-4
178,-270,29,988,-26,-18,7
179,19,-95,1041,-26,-57,14
180,277,-157,1035,-7,-45,18
181,291,-90,1004,10,1,9
182,59,10,964,12,41,-7
183,-213,81,946,0,48,-10
184,-342,70,937,-10,5,1
185,-166,-11,1013,-15,-46,11
186,161,-125,1060,-10,-65,16
187,317,-120,1016,9,-32,17
188,243,-23,993,17,17,2
189,-50,69,953,6,49,-10
190,-292,108,941,-8,38,-6
191,-294,59,971,-20,-16,7
192,-37,-61,1034,-26,-53,14
193,269,-139,1045,-10,-53,18
194,325,-95,1000,6,-7,14
195,119,4,993,8,40,-2
196,-183,85,950,-3,51,-12
197,-360,73,926,-15,20,-2
198,-216,-6,990,-20,-39,11
199,111,-122,1042,-11,-61,19
200,327,-143,1037,4,-40,17
201,271,-41,1008,21,11,4
202,-12,50,968,8,47,-10
203,-288,105,928,-2,41,-7
204,-330,74,949,-16,-7,6
205,-82,-52,1018,-23,-55,13
206,261,-134,1063,-7,-57,18
207,340,-100,1021,8,-18,15
208,161,-6,988,12,35,-3
209,-148,86,957,-2,53,-11
210,-356,87,904,-15,27,-3
211,-240,16,991,-24,-29,9
212,77,-108,1040,-16,-62,14
213,320,-142,1048,1,-41,19
214,281,-64,1011,16,4,7
215,15,39,968,11,48,-9
216,-259,99,927,-4,45,-10
217,-335,66,932,-19,1,4
218,-115,-31,1037,-19,-50,12
219,216,-132,1059,-10,-62,17
220,320,-118,1020,8,-25,16
221,192,-16,984,14,24,0
222,-109,74,945,5,53,-10
223,-316,98,931,-11,30,-4
224,-261,38,985,-20,-21,9
225,26,-82,1043,-20,-59,15
226,288,-138,1041,-2,-49,19
227,295,-75,1002,11,0,10
228,68,19,961,7,40,-8
229,-204,97,948,-2,50,-11
230,-338,75,941,-18,10,2
231,-164,-16,1016,-22,-42,12
232,155,-120,1056,-13,-61,18
233,311,-133,1010,2,-31,18
234,236,-34,996,15,19,2
235,-51,62,953,7,49,-10
236,-302,91,937,-9,37,-6
237,-303,51,971,-15,-16,6
238,-44,-65,1026,-23,-55,14
239,265,-144,1046,-7,-56,18
240,323,-90,1008,14,-10,12
241,125,9,984,12,38,-3
242,-170,92,953,2,48,-10
243,-351,84,925,-18,21,-1
244,-212,3,995,-22,-38,10
245,110,-110,1043,-18,-60,16
246,324,-129,1041,3,-40,17
247,273,-49,1000,15,12,5
248,-12,54,975,8,51,-7
249,-290,98,927,-8,43,-7
250,-330,56,943,-21,-4,4
251,-82,-53,1018,-21,-52,14
252,251,-143,1058,-9,-56,18
253,331,-112,1022,10,-18,13
254,158,3,994,18,34,-1
255,-152,82,948,1,50,-11
256,-348,86,910,-12,26,-1
257,-233,26,990,-20,-29,11
258,82,-106,1037,-17,-63,17
259,317,-136,1054,-1,-43,18
260,285,-58,1006,15,3,8
261,13,37,960,7,48,-6
262,-252,104,936,-6,46,-9
263,-330,68,932,-18,3,3
264,-117,-37,1033,-23,-48,12
265,212,-128,1062,-11,-61,17
266,319,-119,1015,7,-22,15
267,188,-20,986,12,25,0
268,-107,71,949,5,54,-10
269,-319,88,929,-13,30,-4
270,-268,36,983,-17,-21,9
271,21,-85,1050,-20,-60,15
272,283,-145,1037,0,-52,19
273,296,-79,1002,13,-3,10
274,69,23,970,13,39,-6
275,-198,94,943,-1,49,-11
276,-333,80,942,-14,11,1
277,-170,-4,1018,-21,-41,12
278,151,-120,1052,-15,-63,17
279,318,-125,1013,5,-32,18
280,243,-36,995,13,20,3
281,-42,59,959,6,50,-11
282,-296,100,942,-10,40,-6
283,-308,45,963,-21,-12,6
284,-52,-66,1028,-24,-53,14
285,261,-135,1047,-6,-55,19
286,321,-99,1003,9,-10,13
287,130,7,994,13,38,-4
288,-170,92,951,1,48,-11
289,-355,77,919,-15,22,-1
290,-215,9,995,-21,-37,10
291,108,-112,1038,-16,-60,16
292,327,-141,1038,0,-39,18
293,273,-45,1009,19,10,4
294,-9,52,971,8,49,-8
295,-289,100,923,-8,43,-9
296,-330,68,949,-18,-4,4
297,-87,-47,1017,-23,-53,13
298,250,-139,1058,-9,-58,19
299,335,-111,1030,7,-21,14
300,161,-5,983,15,33,-3
301,-146,80,954,0,52,-10
302,-349,90,906,-10,26,-4
303,-239,26,988,-21,-29,8
304,67,-98,1047,-17,-64,15
305,308,-144,1050,-2,-44,18
306,285,-69,1006,14,0,7
307,27,35,960,12,46,-7
308,-240,96,931,-5,46,-9
309,-329,72,943,-16,4,2
310,-128,-25,1030,-22,-47,13
311,195,-131,1054,-10,-62,18
312,316,-117,1018,4,-25,15
313,200,-20,984,15,24,0
314,-90,65,945,4,53,-11
315,-308,95,943,-11,32,-5
316,-272,44,976,-18,-19,8
317,4,-84,1043,-23,-56,14
318,273,-140,1043,-3,-50,20
319,303,-82,998,13,-2,11
320,85,15,973,11,39,-6
321,-190,94,950,-1,48,-11
322,-338,81,937,-17,14,1
323,-178,-7,1012,-20,-39,12
324,139,-119,1051,-13,-59,19
325,316,-125,1013,3,-33,19
326,251,-30,1007,11,17,2
327,-38,56,958,6,50,-13
328,-298,96,935,-10,41,-7
329,-315,55,967,-19,-12,8
330,-62,-67,1012,-23,-53,14
331,262,-148,1050,-8,-55,17
332,330,-103,1017,12,-14,15
333,137,4,998,14,40,-3
334,-170,85,950,2,47,-12
335,-356,84,911,-13,22,-2
336,-226,14,993,-18,-35,10
337,102,-115,1037,-14,-63,15
338,332,-134,1050,5,-41,19
339,279,-52,1005,16,8,5
340,0,47,972,9,48,-9
341,-276,107,927,-2,44,-9
342,-333,67,942,-20,0,4
343,-96,-41,1027,-22,-53,12
344,240,-127,1054,-9,-57,19
345,329,-119,1017,3,-21,16
346,172,-7,995,15,30,-2
347,-137,74,947,-3,54,-13
348,-335,80,916,-8,27,-4
349,-250,31,990,-24,-24,8
350,49,-96,1044,-14,-62,15
351,297,-147,1045,-4,-46,19
352,282,-67,1008,18,0,8
353,41,28,957,10,43,-9
354,-222,97,940,-4,47,-9
355,-327,77,945,-15,6,2
356,-138,-21,1023,-22,-45,11
357,176,-117,1060,-9,-62,18
358,311,-124,1010,1,-27,16
359,217,-28,987,14,21,1
360,-70,65,949,3,51,-9
361,-302,94,945,-10,36,-6
362,-286,46,976,-20,-19,6
363,-17,-70,1031,-20,-55,15
364,268,-146,1038,-10,-53,19
365,314,-89,1005,15,-6,11
366,106,14,985,10,39,-6
367,-185,90,951,1,50,-9
368,-348,79,931,-17,18,-1
369,-200,6,1000,-18,-40,12
370,123,-123,1043,-19,-62,17
371,328,-133,1028,4,-36,18
372,266,-37,1002,16,16,4
373,-18,50,971,5,49,-9
374,-297,103,930,-6,43,-9
375,-327,63,951,-22,-8,4
376,-79,-59,1016,-23,-54,14
377,260,-139,1059,-10,-56,19
378,337,-106,1019,11,-18,14
379,149,-2,994,11,36,-2
380,-160,85,957,2,51,-12
381,-356,86,905,-15,23,-3
382,-235,21,992,-22,-31,10
383,84,-109,1036,-18,-63,16
384,320,-142,1055,0,-44,20
385,284,-58,1010,17,5,8
386,9,34,958,7,47,-8
387,-257,103,932,-1,44,-9
388,-327,74,935,-18,2,5
389,-113,-31,1032,-21,-50,13
390,218,-130,1058,-13,-61,18
391,324,-115,1020,6,-21,16
392,187,-23,985,11,26,0
393,-111,70,949,5,55,-11
394,-322,98,931,-12,30,-4
395,-262,31,980,-22,-22,7
396,23,-86,1047,-19,-59,15
397,283,-140,1039,-2,-52,20
398,294,-82,1003,13,-2,10
399,68,20,965,12,43,-9
400,-202,96,944,0,48,-11
401,-340,77,941,-17,9,2
402,-170,-9,1020,-19,-42,12
403,152,-121,1054,-13,-65,17
404,316,-129,1009,2,-31,19
405,244,-31,999,17,20,3
406,-47,61,957,5,49,-9
407,-300,102,938,-9,41,-6
408,-305,51,970,-21,-15,5
409,-47,-66,1022,-21,-55,14
410,266,-140,1046,-9,-54,18
411,323,-98,1009,12,-12,12
412,130,3,996,12,38,-5
413,-170,89,950,3,50,-10
414,-356,82,921,-16,21,-2
415,-220,5,992,-21,-36,11
416,105,-108,1037,-15,-60,17
417,330,-142,1043,2,-42,17
418,275,-49,1009,17,11,4
419,-6,52,973,8,49,-10
420,-285,95,923,-7,43,-8
421,-331,68,946,-19,-2,4
422,-87,-47,1019,-21,-56,13
423,251,-137,1056,-10,-56,20
424,334,-109,1026,7,-19,14
425,169,-7,986,14,32,-1
426,-146,75,949,0,55,-10
427,-345,87,916,-13,27,-3
428,-239,27,990,-18,-28,8
429,64,-101,1038,-20,-61,16
430,304,-140,1054,1,-44,19
431,282,-64,1004,13,2,8
432,29,31,959,9,46,-6
433,-240,102,939,-4,47,-10
434,-327,68,933,-15,5,3
435,-130,-21,1033,-22,-44,12
436,187,-123,1060,-10,-63,17
437,317,-126,1010,3,-24,17
438,206,-17,990,14,22,1
439,-84,62,945,4,51,-10
440,-305,93,938,-11,35,-6
441,-279,51,982,-17,-19,7
442,-2,-84,1035,-23,-57,15
443,272,-141,1038,-3,-52,18
444,307,-75,1005,12,-4,11
445,96,7,972,10,39,-6
446,-187,96,951,-1,50,-11
447,-341,78,935,-17,12,0
448,-192,-8,1002,-23,-39,11
449,126,-113,1052,-15,-61,15
450,321,-133,1018,2,-38,16
451,259,-42,1002,17,18,4
452,-29,62,971,7,49,-10
453,-290,96,927,-8,41,-8
454,-322,57,962,-20,-8,5
455,-73,-59,1018,-19,-55,12
456,264,-142,1052,-8,-55,18
457,328,-100,1017,11,-15,12
458,147,3,997,12,34,-4
459,-162,82,949,2,50,-11
460,-356,90,913,-13,24,-3
461,-227,14,990,-21,-33,9
462,93,-113,1032,-17,-61,16
463,323,-133,1058,2,-43,20
464,275,-54,1004,16,6,5
465,5,40,965,8,48,-9
466,-270,107,929,-4,42,-7
467,-328,63,934,-19,1,4
468,-95,-40,1032,-23,-51,12
469,229,-124,1055,-7,-59,18
470,330,-120,1020,6,-20,15
471,174,-11,988,16,28,0
472,-127,83,947,3,53,-11
473,-329,87,921,-14,29,-4
474,-251,35,990,-19,-24,9
475,43,-88,1044,-19,-61,16
476,293,-145,1040,-5,-47,20
477,290,-72,1008,15,0,9
478,52,29,960,10,44,-7
479,-214,93,941,-4,49,-9
480,-333,80,948,-16,6,1
481,-157,-16,1019,-22,-42,12
482,166,-126,1056,-14,-63,18
483,314,-128,1010,5,-29,18
484,232,-32,991,14,21,2
485,-59,62,956,6,49,-9
486,-304,99,943,-8,39,-6
487,-298,49,971,-20,-16,6
488,-37,-68,1031,-21,-56,14
489,265,-142,1042,-8,-54,18
490,322,-95,1005,13,-8,12
491,122,13,990,10,37,-3
492,-173,88,949,2,51,-9
493,-355,80,927,-17,19,-1
494,-210,8,993,-20,-40,12
495,111,-110,1041,-17,-60,16
496,327,-137,1039,2,-41,17
497,271,-45,1005,16,12,5
498,-13,49,970,6,48,-9
499,-288,97,928,-5,41,-8
500,-329,66,947,-19,-4,4
501,-82,-52,1018,-21,-54,14
502,252,-135,1059,-8,-57,19
503,334,-105,1025,10,-18,14
504,159,-7,988,12,32,-4
505,-153,85,956,2,52,-13
506,-349,89,907,-15,27,-4
507,-233,21,991,-22,-30,10
508,72,-97,1044,-18,-62,16
509,314,-144,1049,0,-43,18
510,282,-68,1009,14,2,8
511,14,36,960,9,49,-8
512,-247,94,931,-4,45,-10
513,-331,72,939,-14,2,3
514,-121,-25,1035,-21,-46,12
515,206,-130,1057,-10,-62,18
516,320,-120,1015,5,-24,16
517,198,-19,985,15,24,0
518,-99,68,943,4,52,-10
519,-313,104,943,-9,33,-3
520,-268,39,978,-23,-20,8
521,10,-79,1047,-21,-58,15
522,279,-137,1038,-6,-50,20
523,300,-83,1001,9,-2,10
524,81,16,972,12,40,-7
525,-189,93,941,-2,51,-9
526,-340,76,941,-18,13,1
527,-182,-8,1010,-22,-39,11
528,138,-120,1049,-14,-60,17
529,318,-134,1016,4,-34,17
530,251,-34,1002,17,18,3
531,-32,56,958,6,49,-10
532,-298,101,937,-7,40,-7
533,-316,55,964,-21,-11,5
534,-57,-62,1015,-21,-55,15
535,265,-138,1055,-5,-55,18
536,337,-102,1017,9,-13,12
537,142,3,993,13,38,-4
538,-166,91,954,0,51,-10
539,-359,85,914,-15,25,-1
540,-230,13,989,-23,-35,10
541,94,-111,1038,-18,-61,16
542,327,-144,1051,2,-41,18
543,278,-56,1007,17,7,6
544,2,43,967,11,50,-8
545,-279,102,927,-6,43,-10
546,-334,67,934,-16,-1,4
547,-97,-35,1031,-21,-51,14
548,235,-128,1058,-7,-60,17
549,331,-114,1025,7,-21,14
550,178,-10,984,16,29,0
551,-128,78,950,1,53,-10
552,-333,91,918,-15,30,-4
553,-252,35,990,-19,-23,8
554,45,-95,1045,-22,-62,16
555,290,-144,1043,0,-45,19
556,286,-76,1002,11,-1,9
557,50,21,960,10,41,-7
558,-218,97,945,-2,50,-12
559,-328,70,937,-17,4,0
560,-153,-14,1022,-20,-42,12
561,166,-120,1058,-14,-62,17
562,317,-129,1007,6,-30,17
563,228,-24,995,14,20,2
564,-57,65,957,8,51,-10
565,-297,95,939,-10,36,-6
566,-298,56,972,-18,-15,8
567,-38,-74,1029,-23,-55,14
568,268,-146,1041,-9,-55,19
569,322,-91,1004,14,-9,12
570,124,4,992,9,38,-4
571,-180,90,951,3,52,-11
572,-357,86,926,-17,22,-1
573,-215,4,989,-19,-37,10
574,108,-120,1041,-17,-61,16
575,333,-135,1040,4,-38,19
576,274,-47,1008,16,11,5
577,-12,49,973,9,51,-10
578,-284,103,923,-4,43,-9
579,-334,68,946,-20,-4,5
580,-88,-51,1019,-21,-52,13
581,256,-132,1062,-9,-58,18
582,333,-108,1025,9,-18,14
583,168,-9,989,12,34,-3
584,-147,82,953,3,53,-11
585,-349,85,908,-14,29,-4
586,-244,25,991,-21,-26,9
587,64,-100,1038,-17,-63,15
588,311,-142,1048,-2,-44,21
589,284,-71,1006,14,1,9
590,31,33,958,11,44,-8
591,-233,98,936,-3,48,-9
592,-331,76,936,-15,4,2
593,-136,-19,1031,-22,-46,12
594,189,-123,1058,-12,-62,18
595,314,-121,1014,4,-28,16
596,213,-29,983,13,21,1
597,-76,71,952,4,53,-10
598,-307,91,941,-11,35,-5
599,-290,44,976,-19,-18,7
600,-16,-71,1039,-21,-56,13
601,268,-146,1037,-7,-54,21
602,312,-90,1000,12,-4,11
603,109,11,985,12,38,-5
604,-183,89,947,2,48,-12
605,-349,88,935,-15,17,-1
606,-200,3,996,-23,-40,10
607,121,-117,1043,-16,-61,17
608,329,-136,1032,3,-38,19
609,268,-40,1006,18,13,5
610,-19,54,967,7,49,-9
611,-291,101,934,-8,42,-8
612,-330,62,949,-18,-7,4
613,-78,-53,1014,-24,-54,15
614,257,-136,1061,-8,-55,19
615,336,-110,1019,7,-19,13
616,158,-2,991,16,36,-1
617,-154,85,958,0,51,-10
618,-354,83,904,-14,27,-3
619,-234,26,988,-22,-28,10
620,76,-104,1044,-19,-63,16
621,316,-143,1046,1,-42,19
622,280,-57,1011,17,4,8
623,15,34,958,9,48,-7
624,-251,100,935,-5,46,-9
625,-328,73,937,-18,3,4
626,-119,-32,1029,-22,-49,14
627,202,-130,1059,-10,-61,16
628,320,-124,1016,7,-24,16
629,195,-19,986,14,24,1
630,-100,67,944,4,53,-10
631,-311,98,939,-9,32,-7
632,-275,40,975,-19,-21,7
633,2,-82,1040,-21,-58,14
634,278,-136,1042,0,-53,20
635,306,-88,999,9,-4,11
636,93,14,975,12,40,-6
637,-190,99,947,-1,50,-10
638,-345,83,936,-16,14,1
639,-191,0,1005,-21,-39,10
640,129,-117,1045,-16,-62,17
641,326,-134,1018,2,-35,19
642,261,-36,1006,13,17,4
643,-24,53,966,6,48,-10
644,-296,100,935,-8,43,-7
645,-326,54,954,-19,-9,5
646,-75,-59,1017,-23,-55,13
647,261,-139,1054,-8,-56,18
648,337,-112,1017,10,-17,14
649,149,4,998,15,36,-3
650,-159,85,951,2,50,-11
651,-357,88,910,-14,25,-3
652,-230,18,987,-22,-31,9
653,89,-102,1040,-17,-62,17
654,324,-137,1052,0,-43,20
655,282,-65,1005,16,6,5
656,11,43,965,10,50,-9
657,-262,102,931,-5,45,-8
658,-330,68,937,-20,4,2
659,-111,-28,1032,-22,-50,12
660,212,-133,1054,-12,-62,18
661,320,-123,1017,6,-22,16
662,191,-15,988,16,24,0
663,-101,66,941,3,55,-10
664,-319,97,938,-11,32,-6
665,-269,40,981,-19,-22,8
666,11,-83,1044,-21,-58,15
667,277,-148,1038,-2,-51,20
668,301,-84,1001,12,-4,10
669,82,20,971,11,41,-6
670,-192,97,946,1,50,-9
671,-342,85,942,-16,12,0
672,-183,-1,1006,-20,-40,11
673,137,-120,1048,-18,-62,17
674,323,-135,1018,3,-35,18
675,260,-35,1002,15,18,3
676,-29,51,965,5,49,-9
677,-302,100,936,-7,44,-8
678,-323,53,956,-19,-10,6
679,-70,-59,1017,-22,-55,14
680,263,-141,1054,-10,-56,19
681,334,-105,1016,14,-16,14
682,150,4,1000,13,36,-3
683,-163,81,949,-1,51,-12
684,-354,91,914,-13,25,-3
685,-229,19,987,-18,-34,11
686,90,-107,1038,-22,-63,16
687,322,-134,1054,6,-41,19
688,281,-58,1005,8,5,7
689,8,39,964,13,50,-8
690,-263,103,932,-10,44,-10
691,-325,71,934,-15,4,4
692,-110,-35,1033,-27,-48,12
693,217,-138,1056,-11,-62,18
694,320,-121,1017,5,-22,17
695,188,-17,983,15,26,-1
696,-108,66,947,4,53,-12
697,-318,98,935,-11,31,-5
698,-268,39,979,-18,-22,7
699,16,-87,1043,-22,-59,14
700,283,-139,1043,-1,-50,18
701,301,-82,998,12,-3,11
702,83,18,970,12,40,-6
703,-195,104,950,0,51,-11
704,-338,76,933,-19,11,2
705,-185,-2,1013,-21,-40,11
706,136,-115,1049,-18,-62,17
707,326,-141,1013,2,-36,18
708,256,-37,1004,16,19,4
709,-30,56,966,7,48,-11
710,-299,96,933,-9,43,-7
711,-328,58,961,-20,-10,6
712,-70,-63,1011,-22,-56,12
713,267,-142,1053,-6,-56,19
714,337,-104,1019,10,-17,13
715,152,1,996,15,37,-3
716,-160,88,953,3,51,-10
717,-359,92,909,-12,25,-1
718,-229,23,986,-23,-32,9
719,92,-104,1042,-18,-62,16
720,324,-143,1054,-1,-42,20
721,282,-58,1006,16,5,8
722,9,37,962,8,51,-7
723,-263,100,936,-5,45,-9
724,-334,69,936,-20,3,2
725,-112,-34,1032,-22,-50,13
726,213,-128,1057,-12,-61,19
727,317,-124,1018,6,-23,16
728,191,-17,984,15,25,0
729,-109,74,949,4,53,-11
730,-316,87,935,-13,31,-5
731,-266,43,982,-16,-22,8
732,13,-81,1042,-21,-59,15
733,277,-144,1040,-3,-51,18
734,303,-77,1002,14,-3,10
735,79,16,966,11,40,-6
736,-193,99,952,1,50,-11
737,-341,81,940,-17,12,0
738,-183,-2,1008,-23,-40,11
739,134,-121,1048,-17,-60,18
740,322,-137,1014,0,-36,17
741,262,-42,1002,16,18,4
742,-31,55,968,5,48,-10
743,-299,101,934,-5,40,-9
744,-322,58,959,-20,-10,5
745,-68,-62,1015,-22,-54,15
746,265,-140,1054,-8,-56,20
747,335,-102,1018,10,-17,13
748,150,-1,993,13,36,-3
749,-165,86,955,2,51,-12
750,-356,93,910,-13,25,-3
751,-233,20,988,-22,-31,8
752,88,-105,1042,-17,-61,16
753,325,-138,1050,-2,-42,19
754,283,-61,1005,15,5,7
755,8,40,965,6,50,-8
756,-258,102,932,-4,45,-10
757,-332,71,937,-20,3,3
758,-113,-35,1031,-19,-47,13
759,210,-128,1058,-12,-62,18
760,317,-124,1017,7,-23,16
761,194,-25,987,13,26,0
762,-103,71,950,6,54,-11
763,-319,94,934,-11,31,-6
764,-274,41,982,-17,-20,7
765,6,-81,1041,-22,-58,14
766,281,-142,1039,-2,-52,19
767,306,-82,1005,11,-3,11
768,89,15,971,13,38,-6
769,-187,102,952,1,49,-10
770,-345,83,936,-16,13,0
771,-189,-5,1002,-21,-41,11
772,128,-113,1048,-14,-61,17
773,324,-140,1020,-1,-37,18
774,262,-44,1005,17,17,3
775,-25,55,970,7,49,-9
776,-295,97,932,-5,41,-6
777,-329,58,960,-19,-9,5
778,-72,-59,1008,-20,-55,14
779,261,-137,1056,-9,-56,19
780,335,-104,1023,12,-18,14
781,153,1,992,15,35,-3
782,-158,87,956,3,50,-11
783,-353,88,909,-16,25,-2
784,-231,27,990,-22,-29,9
785,80,-99,1040,-19,-63,15
786,319,-140,1052,-3,-42,18
787,283,-63,1004,15,4,7
788,16,34,959,4,48,-7
789,-253,96,936,-5,46,-9
790,-332,63,935,-19,3,2
791,-120,-30,1034,-21,-47,12
792,199,-134,1056,-12,-62,18
793,316,-128,1014,8,-24,17
794,200,-17,986,17,23,1
795,-93,68,945,7,52,-11
796,-307,98,943,-12,32,-6
797,-272,49,978,-16,-21,9
798,0,-76,1039,-22,-58,15
799,272,-141,1039,-3,-53,19
800,310,-78,999,11,-5,11
801,100,11,979,9,39,-5
802,-184,94,950,-1,51,-11
803,-347,84,939,-16,16,0
804,-199,-3,1000,-23,-39,10
805,121,-120,1041,-15,-59,17
806,325,-137,1025,2,-38,19
807,265,-44,1007,17,14,5
808,-23,50,970,6,49,-11
809,-295,102,929,-5,41,-8
810,-331,65,953,-19,-7,5
811,-81,-53,1015,-21,-55,14
812,261,-134,1060,-9,-57,19
813,339,-105,1026,10,-19,14
814,155,0,986,13,35,-3
815,-152,83,956,2,52,-13
816,-348,92,912,-15,26,-3
817,-235,27,987,-19,-28,9
818,74,-99,1045,-20,-63,15
819,312,-141,1049,2,-44,20
820,284,-66,1006,12,3,9
821,19,28,957,9,48,-8
822,-241,102,945,-5,46,-10
823,-331,72,936,-17,4,2
824,-131,-26,1029,-23,-46,11
825,189,-124,1061,-11,-63,16
826,317,-128,1008,5,-26,16
827,214,-31,986,13,23,1
828,-78,68,949,7,52,-11
829,-302,99,941,-10,34,-6
830,-286,47,977,-20,-18,7
831,-20,-70,1034,-21,-56,13
832,272,-144,1040,-8,-55,20
833,317,-92,1002,12,-6,11
834,113,11,982,10,38,-5
835,-178,92,952,1,50,-11
836,-354,83,930,-19,19,-2
837,-208,4,995,-19,-38,9
838,118,-115,1039,-18,-61,16
839,330,-141,1033,1,-40,18
840,273,-48,1007,16,12,5
841,-14,55,973,8,50,-9
842,-292,96,925,-6,42,-8
843,-334,65,948,-20,-5,4
844,-83,-48,1019,-20,-54,13
845,255,-136,1060,-10,-58,19
846,336,-111,1026,9,-20,14
847,162,-5,989,14,33,-1
848,-146,82,951,2,53,-10
849,-345,88,915,-14,26,-3
850,-236,33,991,-22,-26,10
851,65,-97,1043,-20,-63,16
852,301,-145,1046,-4,-45,19
853,285,-73,1003,15,3,8
854,34,24,957,7,46,-7
855,-228,97,945,-1,49,-10
856,-330,74,937,-18,5,1
857,-145,-14,1026,-19,-44,12
858,171,-126,1057,-14,-63,17
859,316,-131,1007,6,-28,16
860,225,-28,991,14,21,2
861,-62,62,954,9,50,-11
862,-299,104,945,-9,38,-8
863,-295,53,968,-18,-17,7
864,-36,-65,1031,-23,-54,15
865,268,-139,1041,-5,-54,18
866,327,-95,1004,9,-9,13
867,125,9,992,11,40,-3
868,-175,89,953,0,49,-10
869,-356,87,926,-15,21,-2
870,-218,6,993,-23,-36,11
871,106,-121,1033,-19,-61,17
872,332,-135,1049,3,-41,18
873,273,-52,1004,15,12,5
874,-8,40,972,6,50,-10
875,-284,100,928,-3,42,-9
876,-331,62,940,-21,-1,4
877,-94,-49,1027,-21,-52,14
878,242,-134,1055,-9,-59,18
879,331,-114,1025,9,-20,15
880,174,-11,988,15,29,-1
881,-133,76,944,4,55,-10
882,-332,94,924,-14,28,-5
883,-250,35,990,-21,-25,8
884,46,-88,1041,-18,-62,15
885,291,-140,1039,-3,-48,18
886,294,-78,1004,13,-1,10
887,54,22,956,10,44,-7
888,-208,102,946,-1,49,-10
889,-331,78,940,-18,8,2
890,-164,-11,1017,-21,-41,11
891,153,-121,1051,-16,-62,17
892,319,-129,1011,5,-29,17
893,237,-35,995,11,21,2
894,-42,58,960,7,49,-10
895,-301,103,943,-11,42,-5
896,-313,54,967,-18,-14,6
897,-54,-66,1018,-22,-54,13
898,266,-142,1046,-6,-55,19
899,333,-101,1014,11,-13,14
900,138,4,995,14,38,-4
901,-166,91,955,3,49,-11
902,-362,83,912,-17,23,-2
903,-224,17,993,-21,-34,10
904,100,-110,1033,-18,-61,15
905,327,-143,1053,1,-41,18
906,282,-59,1004,19,7,5
907,-1,46,968,9,50,-9
908,-271,101,929,-5,43,-9
909,-330,66,935,-19,2,2
910,-102,-34,1032,-20,-50,13
911,225,-131,1056,-10,-61,18
912,323,-117,1019,8,-21,15
913,184,-14,984,14,26,0
914,-112,71,945,3,55,-10
915,-317,91,933,-12,30,-5
916,-263,43,986,-18,-21,8
917,17,-83,1041,-21,-59,14
918,279,-143,1040,-3,-50,18
919,295,-78,1003,14,-2,10
920,78,17,971,10,39,-7
921,-191,92,947,0,49,-11
922,-338,84,941,-19,11,1
923,-185,-5,1008,-20,-39,11
924,135,-126,1048,-17,-61,18
925,317,-131,1021,7,-36,18
926,256,-40,1000,14,19,4
927,-30,52,967,7,48,-10
928,-301,104,935,-6,42,-8
929,-323,53,958,-20,-11,6
930,-67,-59,1016,-19,-56,15
931,263,-140,1051,-7,-56,18
932,340,-109,1017,12,-17,13
933,151,6,996,15,36,-3
934,-160,87,952,2,51,-11
935,-351,97,910,-14,24,-3
936,-230,28,988,-22,-32,10
937,88,-108,1039,-20,-63,16
938,324,-138,1056,0,-43,18
939,283,-59,1006,16,4,6
940,13,30,956,5,51,-9
941,-252,101,939,-2,46,-10
942,-331,70,936,-21,3,2
943,-122,-33,1030,-21,-46,12
944,199,-126,1061,-12,-63,19
945,317,-130,1007,7,-24,16
946,200,-25,988,14,23,0
947,-91,71,951,8,51,-11
948,-304,93,936,-12,32,-5
949,-279,46,978,-18,-20,8
950,-10,-68,1039,-21,-58,14
951,275,-145,1037,-7,-54,19
952,312,-88,999,14,-4,11
953,103,13,986,10,38,-6
954,-179,93,946,2,51,-10
955,-352,90,940,-18,17,0
956,-205,0,993,-21,-40,9
957,119,-114,1042,-18,-60,17
958,330,-139,1031,1,-39,19
959,274,-47,1005,16,15,4
960,-14,53,973,5,51,-9
961,-294,98,929,-6,42,-8
962,-333,62,949,-21,-5,4
963,-82,-51,1014,-19,-53,13
964,254,-135,1056,-11,-58,19
965,337,-109,1028,10,-20,13
966,164,-7,988,12,35,-3
967,-143,84,954,2,52,-11
968,-346,90,913,-14,28,-4
969,-239,34,991,-21,-25,8
970,64,-94,1044,-20,-63,16
971,303,-148,1044,-3,-44,20
972,288,-70,1007,14,3,9
973,32,23,954,10,46,-6
974,-229,94,944,-3,50,-11
975,-331,73,942,-15,6,2
976,-149,-18,1021,-21,-45,12
977,171,-128,1057,-13,-62,17
978,315,-128,1006,5,-29,17
979,229,-27,990,15,20,2
980,-57,64,956,7,51,-10
981,-301,98,940,-10,37,-7
982,-300,55,971,-17,-17,7
983,-42,-65,1027,-23,-55,14
984,268,-139,1044,-7,-56,18
985,329,-94,1008,9,-10,12
986,132,9,993,12,39,-3
987,-170,90,950,0,50,-12
988,-355,89,925,-17,23,-2
989,-220,10,989,-23,-37,10
990,104,-119,1033,-18,-62,17
991,331,-137,1051,2,-41,18
992,276,-58,1003,15,9,6
993,-6,39,973,8,50,-8
994,-283,103,931,-5,42,-9
995,-331,64,935,-18,-1,4
996,-97,-43,1029,-22,-54,12
997,239,-134,1056,-6,-61,18
998,329,-115,1022,8,-22,15
999,178,-17,983,15,28,-1
1000,-124,77,946,6,54,-12
1001,-325,98,927,-13,28,-4
1002,-256,40,989,-19,-23,9
1003,30,-84,1041,-23,-60,14
1004,288,-146,1036,-4,-50,20
1005,295,-76,1004,13,0,10
1006,67,18,963,11,42,-7
1007,-199,97,949,-1,49,-11
1008,-342,83,943,-16,11,1
1009,-177,-10,1009,-22,-41,11
1010,141,-118,1048,-15,-62,18
1011,323,-135,1014,4,-35,18
1012,253,-41,1000,14,18,2
1013,-32,60,969,7,48,-11
1014,-298,99,933,-10,41,-7
1015,-322,59,967,-18,-11,5
1016,-70,-60,1011,-22,-55,12
1017,268,-143,1053,-8,-56,18
1018,335,-105,1022,13,-16,15
1019,149,-2,993,17,38,-4
1020,-160,85,955,2,51,-12
1021,-359,87,913,-14,25,-2
1022,-229,22,990,-20,-32,9
1023,91,-109,1035,-20,-63,17
1024,318,-140,1055,3,-42,20
1025,282,-64,1003,12,4,7
1026,13,33,956,14,50,-8
1027,-254,103,936,-6,44,-9
1028,-328,68,934,-15,3,2
1029,-120,-24,1030,-22,-47,12
1030,201,-123,1059,-8,-64,18
1031,317,-127,1007,5,-24,16
1032,202,-15,992,15,22,0
1033,-90,69,944,6,53,-10
1034,-307,95,944,-12,34,-5
1035,-277,51,980,-17,-19,7
1036,-13,-75,1033,-23,-56,17
1037,273,-144,1041,-5,-53,19
1038,312,-84,1003,11,-5,12
1039,108,12,983,10,40,-5
1040,-182,91,957,-1,52,-11
1041,-353,83,929,-16,18,-1
1042,-210,3,998,-22,-39,10
1043,118,-125,1038,-18,-59,18
1044,330,-138,1039,3,-40,18
1045,270,-46,1005,17,15,5
1046,-13,49,974,7,50,-10
1047,-291,103,930,-5,41,-11
1048,-332,59,942,-21,-3,5
1049,-88,-50,1023,-22,-54,14
1050,248,-138,1055,-8,-58,18
1051,335,-115,1023,9,-20,14
1052,163,-4,990,17,32,-2
1053,-145,81,946,2,52,-12
1054,-334,96,916,-11,26,-4
1055,-241,34,988,-21,-27,9
1056,58,-94,1046,-19,-63,15
1057,300,-137,1045,0,-44,19
1058,288,-68,1003,13,1,8
1059,45,25,955,9,46,-8
1060,-218,101,947,-4,49,-11
1061,-332,81,944,-17,5,1
1062,-156,-19,1017,-26,-42,11
1063,165,-131,1055,-12,-61,19
1064,318,-133,1010,3,-30,19
1065,236,-33,997,16,23,2
1066,-50,58,961,5,51,-10
1067,-303,100,938,-7,38,-6
1068,-316,59,971,-19,-13,6
1069,-52,-66,1019,-23,-54,12
1070,272,-148,1048,-7,-56,19
1071,335,-99,1010,8,-11,13
1072,140,1,996,16,38,-5
1073,-169,89,951,0,50,-10
1074,-365,91,913,-13,25,-2
1075,-229,14,988,-23,-37,9
1076,100,-112,1034,-16,-63,17
1077,332,-145,1051,0,-41,21
1078,282,-62,1008,17,5,6
1079,7,47,968,12,50,-9
1080,-258,99,924,-3,47,-8
1081,-335,77,939,-15,3,6
1082,-109,-19,1033,-24,-47,12
1083,220,-123,1055,-17,-58,15
1084,319,-120,1018,0,-20,14
1085,192,-15,991,11,27,1
1086,-104,67,940,0,57,-10
1087,-313,83,936,-16,31,-4
1088,-275,37,981,-17,-18,8
1089,0,-94,1039,-23,-59,13
1090,274,-155,1040,0,-51,17
1091,300,-87,1001,17,-2,12
1092,86,20,978,17,36,-4
1093,-190,100,949,3,47,-10
1094,-344,82,930,-14,12,0
1095,-187,0,1005,-17,-43,12
1096,134,-113,1047,-16,-61,17
1097,331,-133,1023,3,-36,18
1098,268,-36,1005,16,15,5
1099,-20,64,976,7,51,-8
1100,-299,106,927,-9,43,-8
1101,-331,64,950,-22,-8,4
1102,-80,-59,1014,-24,-52,13
1103,261,-147,1054,-8,-56,19
1104,337,-110,1028,12,-19,14
1105,158,-6,991,14,37,-4
1106,-154,79,951,0,53,-12
1107,-354,94,910,-12,25,-3
1108,-243,27,982,-20,-29,9
1109,72,-101,1046,-19,-65,15
1110,313,-140,1053,0,-45,20
1111,290,-69,1003,16,3,7
1112,30,31,960,10,46,-10
1113,-230,102,939,-1,47,-10
1114,-335,80,938,-18,6,3
1115,-141,-14,1029,-23,-46,12
1116,180,-134,1056,-15,-63,16
1117,317,-130,1008,6,-26,18
1118,222,-27,994,15,20,2
1119,-65,61,951,5,53,-10
1120,-304,102,946,-10,38,-6
1121,-297,49,969,-20,-19,7
1122,-40,-75,1025,-21,-54,14
1123,268,-147,1044,-7,-55,18
1124,327,-94,1009,14,-11,13
1125,129,5,990,11,39,-6
1126,-169,94,952,4,49,-10
1127,-357,94,922,-15,21,0
1128,-222,6,990,-22,-36,10
1129,107,-109,1038,-16,-61,16
1130,337,-137,1047,0,-42,20
1131,281,-57,1003,15,11,7
1132,-5,51,976,6,50,-9
1133,-286,96,923,-6,44,-10
1134,-338,63,940,-23,1,4
1135,-100,-42,1025,-19,-54,12
1136,236,-137,1055,-10,-58,20
1137,333,-122,1026,9,-20,16
1138,177,-11,988,14,28,-2
1139,-126,76,944,3,55,-11
1140,-329,91,924,-13,28,-4
1141,-257,40,985,-19,-25,10
1142,36,-90,1044,-19,-60,15
1143,290,-146,1043,-4,-48,19
1144,294,-83,1001,15,-1,10
1145,66,22,965,9,43,-7
1146,-202,102,945,2,50,-10
1147,-339,77,936,-19,9,0
1148,-176,-3,1018,-20,-40,13
1149,144,-125,1047,-18,-64,18
1150,319,-139,1015,6,-34,17
1151,254,-36,999,16,20,2
1152,-33,59,968,8,47,-10
1153,-303,100,931,-8,43,-7
1154,-318,60,961,-18,-11,6
1155,-67,-57,1017,-21,-57,13
1156,270,-145,1050,-10,-56,19
1157,340,-100,1022,12,-15,13
1158,150,2,995,11,37,-3
1159,-162,85,955,2,53,-11
1160,-360,90,912,-15,26,-2
1161,-235,21,986,-22,-34,10
1162,88,-106,1037,-17,-61,15
1163,325,-143,1054,0,-43,19
1164,286,-62,1008,17,4,8
1165,7,41,966,7,52,-8
1166,-255,96,929,-4,44,-9
1167,-331,73,934,-18,2,4
1168,-118,-24,1033,-21,-47,13
1169,209,-136,1057,-13,-63,18
1170,318,-123,1013,8,-23,17
1171,197,-18,987,14,24,2
1172,-98,64,945,5,51,-12
1173,-309,96,939,-11,32,-6
1174,-276,46,976,-17,-20,8
1175,-2,-83,1040,-24,-59,14
1176,279,-142,1039,-2,-52,19
1177,309,-82,999,12,-4,11
1178,97,11,979,10,37,-7
1179,-182,97,951,2,52,-10
1180,-347,90,934,-16,15,1
1181,-196,-1,999,-22,-40,11
1182,127,-114,1046,-15,-58,17
1183,325,-136,1023,0,-38,18
1184,267,-48,1007,14,15,4
1185,-19,55,974,8,51,-9
1186,-299,99,931,-7,41,-9
1187,-333,62,952,-19,-6,5
1188,-83,-57,1013,-25,-54,13
1189,261,-143,1056,-7,-58,19
1190,340,-105,1028,10,-18,15
1191,160,-6,987,15,35,-2
1192,-149,83,956,1,51,-12
1193,-351,94,910,-14,28,-2
1194,-239,24,985,-22,-28,10
1195,71,-99,1046,-18,-65,14
1196,312,-141,1052,1,-43,20
1197,286,-74,1003,12,0,10
1198,27,34,959,13,46,-9
1199,-234,101,939,-7,48,-11
1200,-332,73,939,-16,3,1
1201,-138,-20,1028,-24,-46,11
1202,186,-127,1055,-11,-63,18
1203,314,-130,1011,3,-27,17
1204,220,-25,992,16,23,1
1205,-72,64,946,6,52,-11
1206,-305,99,946,-11,35,-7
1207,-293,50,974,-17,-18,6
1208,-33,-72,1027,-23,-56,15
1209,270,-141,1049,-5,-55,19
1210,324,-99,999,10,-7,11
1211,124,10,992,13,39,-5
1212,-173,95,952,1,49,-9
1213,-358,88,923,-15,23,-1
1214,-216,9,996,-20,-39,9
1215,112,-116,1036,-18,-62,17
1216,332,-138,1044,3,-39,18
1217,279,-51,1006,13,11,5
1218,-6,50,977,10,50,-8
1219,-292,96,928,-8,45,-9
1220,-335,62,937,-19,-3,4
1221,-92,-43,1024,-21,-53,14
1222,244,-145,1055,-13,-58,19
1223,334,-113,1027,11,-22,15
1224,171,-1,988,15,32,0
1225,-138,75,948,2,54,-11
1226,-334,94,921,-13,26,-5
1227,-247,37,984,-19,-23,9
1228,48,-93,1047,-24,-63,15
1229,297,-142,1043,1,-47,19
1230,290,-73,999,11,2,10
1231,51,27,964,11,44,-7
1232,-213,97,946,-5,51,-12
1233,-334,75,940,-17,9,0
1234,-163,-14,1018,-23,-43,13
1235,158,-131,1054,-13,-63,18
1236,317,-133,1008,5,-31,18
1237,238,-29,1000,16,19,2
1238,-46,57,959,6,48,-11
1239,-301,105,940,-9,40,-7
1240,-314,56,965,-19,-16,6
1241,-53,-69,1020,-24,-55,13
1242,268,-143,1047,-7,-56,18
1243,335,-97,1011,12,-14,14
1244,139,4,997,13,37,-4
1245,-168,93,953,5,50,-12
1246,-359,94,913,-16,23,-3
1247,-226,11,988,-22,-34,9
1248,100,-114,1033,-19,-63,15
1249,334,-139,1052,5,-43,20
1250,280,-58,1008,13,9,6
1251,5,42,967,10,49,-9
1252,-273,105,929,-7,44,-7
1253,-334,70,935,-20,3,3
1254,-106,-36,1030,-21,-51,11
1255,225,-133,1056,-11,-61,18
1256,326,-123,1021,7,-21,17
1257,182,-11,987,15,26,-1
1258,-114,72,942,4,56,-12
1259,-323,94,934,-13,31,-4
1260,-265,41,981,-16,-23,8
1261,22,-91,1042,-23,-59,16
1262,282,-144,1042,-3,-50,19
1263,301,-82,1000,11,-2,11
1264,80,17,972,12,41,-5
1265,-198,100,949,0,51,-9
1266,-344,82,938,-16,11,0
1267,-185,0,1011,-20,-38,10
1268,137,-119,1048,-17,-62,18
1269,325,-138,1018,4,-36,18
1270,263,-38,1002,14,19,2
1271,-26,57,969,7,49,-11
1272,-301,98,932,-10,44,-7
1273,-332,62,954,-19,-9,5
1274,-73,-61,1010,-22,-56,13
1275,267,-149,1054,-10,-57,18
1276,339,-108,1026,12,-17,13
1277,153,0,993,14,35,-3
1278,-162,86,952,5,52,-11
1279,-360,93,908,-13,25,-3
1280,-236,23,982,-19,-33,9
1281,89,-106,1042,-19,-64,15
1282,321,-137,1054,3,-43,18
1283,286,-64,1007,15,2,7
1284,19,40,963,11,51,-8
1285,-252,101,932,-5,47,-10
1286,-334,75,939,-18,2,2
1287,-124,-22,1035,-23,-46,12
1288,201,-137,1051,-14,-64,17
1289,318,-122,1018,6,-22,18
1290,204,-20,988,13,25,2
1291,-89,61,945,3,53,-11
1292,-308,99,946,-9,35,-6
1293,-284,45,971,-20,-18,8
1294,-14,-83,1038,-22,-57,14
1295,277,-147,1042,-5,-53,19
1296,313,-88,999,16,-5,11
1297,107,10,983,11,39,-5
1298,-181,97,952,4,51,-10
1299,-354,91,928,-16,16,0
1300,-208,4,999,-20,-41,11
1301,121,-116,1044,-17,-60,16
1302,333,-135,1031,3,-40,20
1303,275,-46,1005,15,15,5
1304,-14,51,974,7,50,-10
1305,-293,99,925,-6,43,-8
1306,-339,68,948,-20,-4,6
1307,-87,-54,1013,-23,-54,12
1308,256,-143,1059,-11,-59,19
1309,335,-105,1028,11,-19,16
1310,166,-11,989,14,32,-3
1311,-148,80,951,4,52,-11
1312,-347,94,910,-12,27,-3
1313,-244,26,989,-21,-27,9
1314,66,-96,1046,-16,-65,14
1315,307,-136,1050,-1,-44,20
1316,287,-69,1005,13,0,9
1317,40,29,959,9,45,-8
1318,-226,100,942,-2,50,-9
1319,-334,75,938,-18,6,3
1320,-144,-17,1027,-21,-44,11
1321,175,-126,1055,-15,-61,18
1322,314,-132,1012,2,-28,18
1323,222,-25,992,16,21,1
1324,-63,62,948,5,52,-10
1325,-304,100,947,-10,37,-5
1326,-297,47,970,-20,-17,7
1327,-38,-74,1023,-21,-54,14
1328,270,-141,1047,-6,-57,18
1329,324,-95,1002,14,-9,12
1330,124,13,991,13,38,-4
1331,-173,96,954,2,48,-10
1332,-360,89,920,-15,21,-1
1333,-217,11,992,-22,-38,10
1334,110,-118,1037,-17,-62,17
1335,334,-141,1043,1,-40,18
1336,277,-49,1005,17,10,6
1337,-7,51,973,7,50,-9
1338,-286,99,925,-8,44,-9
1339,-335,68,940,-19,-2,5
1340,-96,-41,1022,-25,-54,12
1341,246,-140,1055,-9,-59,18
1342,333,-115,1028,8,-21,16
1343,172,-8,986,16,30,-1
1344,-132,73,948,0,56,-10
1345,-337,97,922,-10,29,-3
1346,-252,34,982,-21,-24,9
1347,42,-98,1048,-20,-62,15
1348,294,-143,1046,1,-48,20
1349,291,-76,1001,13,-1,9
1350,57,25,959,12,42,-6
1351,-209,97,943,-4,49,-11
1352,-334,79,941,-15,8,2
1353,-164,-8,1022,-22,-43,12
1354,155,-127,1051,-12,-64,14
1355,319,-132,1009,8,-32,16
1356,242,-29,1002,16,19,3
1357,-45,53,955,4,49,-11
1358,-298,102,942,-3,41,-6
1359,-314,58,965,-24,-14,5
1360,-55,-69,1014,-18,-55,12
1361,267,-140,1052,-12,-56,18
1362,333,-98,1010,16,-13,13
1363,142,1,998,9,37,-4
1364,-167,94,955,6,50,-12
1365,-362,89,910,-19,24,-3
1366,-226,13,988,-22,-35,10
1367,96,-107,1039,-17,-62,16
1368,334,-144,1047,-1,-42,19
1369,279,-57,1010,17,7,6
1370,0,47,970,7,49,-10
1371,-271,96,924,-4,44,-8
1372,-337,68,936,-20,2,3
1373,-104,-41,1034,-21,-52,11
1374,228,-137,1055,-10,-60,18
1375,322,-119,1021,9,-22,15
1376,185,-14,988,17,25,-2
1377,-116,74,944,4,54,-11
1378,-323,98,931,-12,29,-5
1379,-261,43,986,-18,-23,6
1380,26,-86,1042,-23,-60,15
1381,288,-140,1041,-2,-48,20
1382,296,-82,999,11,-1,10
1383,73,17,968,10,41,-6
1384,-195,102,949,-2,51,-10
1385,-344,77,940,-19,13,1
1386,-183,-4,1013,-22,-39,11
1387,141,-120,1049,-17,-61,16
1388,322,-143,1015,3,-34,19
1389,256,-42,1002,16,19,4
1390,-32,57,965,10,48,-9
1391,-304,101,935,-8,42,-8
1392,-321,54,958,-18,-11,4
1393,-71,-60,1012,-19,-56,13
1394,269,-142,1055,-10,-56,19
1395,337,-104,1018,13,-16,12
1396,153,2,991,13,36,-2
1397,-164,91,960,2,51,-10
1398,-358,93,908,-15,25,-3
1399,-232,20,988,-22,-33,10
1400,86,-110,1040,-20,-62,16
1401,328,-143,1055,1,-42,19
1402,281,-62,1004,15,5,7
1403,7,41,966,10,50,-7
1404,-261,101,931,-5,46,-10
1405,-335,71,933,-19,3,3
1406,-116,-31,1032,-24,-49,12
1407,213,-139,1057,-11,-63,18
1408,320,-126,1019,6,-22,17
1409,198,-19,986,17,24,0
1410,-104,70,948,3,54,-11
1411,-317,99,938,-9,32,-5
1412,-272,41,976,-20,-22,8
1413,1,-79,1043,-20,-59,14
1414,283,-147,1037,-5,-52,18
1415,310,-82,1000,14,-3,11
1416,92,18,981,9,40,-5
1417,-187,96,947,-2,51,-11
1418,-346,87,933,-14,14,-1
1419,-196,0,1005,-24,-40,11
1420,128,-119,1047,-15,-60,16
1421,326,-136,1021,1,-37,18
1422,267,-43,1008,17,18,5
1423,-24,59,973,7,50,-10
1424,-299,100,927,-7,42,-8
1425,-332,63,958,-21,-7,5
1426,-79,-60,1011,-21,-55,12
1427,267,-146,1057,-9,-57,19
1428,338,-102,1027,10,-18,15
1429,155,-3,989,13,34,-4
1430,-157,86,954,2,51,-11
1431,-356,95,909,-14,26,-3
1432,-236,21,987,-23,-31,9
1433,80,-103,1043,-18,-63,15
1434,321,-140,1051,-2,-42,19
1435,285,-69,1006,14,2,8
1436,17,40,963,10,48,-8
1437,-248,106,937,-5,46,-11
1438,-334,69,931,-19,4,3
1439,-127,-23,1037,-22,-46,13
1440,198,-132,1054,-14,-62,19
1441,314,-128,1009,6,-24,17
1442,210,-18,996,15,24,0
1443,-82,64,941,6,52,-13
1444,-308,96,942,-13,34,-6
1445,-287,52,982,-15,-19,8
1446,-15,-82,1026,-24,-58,15
1447,275,-139,1046,-2,-53,19
1448,313,-87,1000,11,-5,10
1449,112,10,985,11,37,-7
1450,-183,105,955,2,51,-11
1451,-356,82,924,-19,19,0
1452,-207,0,999,-20,-40,10
1453,119,-119,1040,-18,-60,17
1454,335,-144,1030,1,-39,19
1455,273,-42,1012,16,14,4
1456,-11,52,973,8,51,-9
1457,-297,97,924,-9,42,-7
1458,-340,69,949,-17,-4,5
1459,-86,-51,1014,-22,-56,12
1460,259,-141,1054,-9,-58,19
1461,337,-108,1029,11,-20,15
1462,167,-3,988,15,33,-2
1463,-148,78,950,0,53,-10
1464,-347,97,917,-12,27,-3
1465,-241,31,986,-20,-27,10
1466,63,-97,1044,-20,-64,14
1467,306,-139,1050,-2,-44,18
1468,290,-75,997,11,1,9
1469,33,29,961,10,45,-7
1470,-226,99,937,-3,49,-11
1471,-333,74,942,-19,5,2
1472,-147,-16,1027,-21,-45,11
1473,177,-137,1056,-15,-64,17
1474,317,-128,1014,8,-26,18
1475,225,-27,991,14,22,3
1476,-65,62,951,8,51,-11
1477,-303,100,942,-10,38,-7
1478,-297,55,971,-17,-17,7
1479,-37,-70,1028,-22,-54,13
1480,272,-144,1047,-7,-56,18
1481,325,-93,1005,11,-8,12
1482,124,5,993,11,39,-4
1483,-175,94,955,2,50,-11
1484,-361,88,917,-15,21,-1
1485,-221,8,993,-23,-38,10
1486,112,-114,1039,-15,-61,16
1487,335,-144,1043,0,-40,19
1488,279,-56,1009,17,12,6
1489,-7,54,975,9,51,-9
1490,-290,103,922,-4,44,-9
1491,-338,67,940,-20,-2,3
1492,-96,-43,1022,-22,-54,14
1493,246,-138,1052,-11,-60,19
1494,334,-112,1028,9,-20,16
1495,172,-12,988,13,31,-2
1496,-136,79,945,2,54,-10
1497,-336,97,922,-12,29,-3
1498,-248,33,987,-22,-25,8
1499,46,-92,1045,-19,-62,15
1500,296,-143,1045,-3,-48,19
1501,292,-80,999,13,-1,10
1502,52,24,961,9,42,-7
1503,-209,100,951,0,48,-10
1504,-337,75,939,-18,7,0
1505,-164,-11,1021,-18,-42,11
1506,155,-122,1053,-15,-62,18
1507,319,-139,1006,3,-31,17
1508,239,-30,999,15,20,2
1509,-44,61,962,7,49,-10
1510,-298,98,940,-9,40,-6
1511,-314,57,959,-18,-13,7
1512,-53,-66,1021,-23,-55,13
1513,268,-144,1047,-7,-56,18
1514,334,-98,1011,12,-13,13
1515,142,5,998,13,38,-4
1516,-168,90,953,1,50,-11
1517,-362,89,915,-15,25,-2
1518,-228,12,987,-23,-36,9
1519,98,-115,1034,-16,-62,17
1520,331,-142,1054,1,-41,20
1521,281,-57,1004,18,8,6
1522,-2,49,971,10,50,-8
1523,-272,99,927,-5,44,-10
1524,-334,67,935,-17,0,4
1525,-102,-30,1035,-22,-52,12
1526,231,-135,1057,-10,-62,17
1527,326,-122,1017,6,-22,15
1528,187,-10,988,15,27,0
1529,-119,72,943,1,55,-10
1530,-323,97,933,-12,31,-5
1531,-260,39,980,-19,-22,7
1532,22,-86,1047,-21,-61,15
1533,283,-145,1038,-2,-51,18
1534,301,-84,1000,13,-1,10
1535,76,19,969,10,41,-5
1536,-197,97,951,0,50,-11
1537,-342,82,936,-17,11,0
1538,-181,-4,1009,-21,-43,11
1539,143,-122,1050,-16,-62,17
1540,326,-135,1013,3,-36,19
1541,258,-38,1005,16,18,3
1542,-31,63,969,7,51,-10
1543,-301,99,929,-8,41,-8
1544,-324,63,964,-20,-11,6
1545,-70,-61,1011,-23,-54,12
1546,268,-146,1051,-8,-57,18
1547,339,-104,1022,12,-17,14
1548,151,-1,993,13,38,-3
1549,-160,87,955,1,50,-11
1550,-358,89,911,-13,26,-2
1551,-234,18,986,-23,-31,9
1552,84,-106,1042,-15,-64,15
1553,323,-141,1051,-1,-42,21
1554,283,-63,1009,14,5,8
1555,12,38,965,9,49,-9
1556,-254,103,931,-4,46,-10
1557,-332,68,932,-16,3,3
1558,-121,-27,1035,-22,-49,12
1559,206,-127,1057,-9,-62,17
1560,318,-129,1014,3,-22,16
1561,199,-19,987,16,24,0
1562,-92,68,941,6,54,-10
1563,-313,98,948,-11,34,-5
1564,-280,47,977,-18,-22,7
1565,-4,-82,1037,-21,-57,15
1566,275,-142,1042,-4,-54,20
1567,312,-91,994,12,-4,10
1568,101,15,983,12,40,-5
1569,-184,103,950,2,51,-10
1570,-351,80,930,-18,16,-2
1571,-201,6,1003,-20,-39,11
1572,123,-115,1042,-17,-61,17
1573,330,-142,1027,1,-37,18
1574,271,-44,1005,14,17,5
1575,-18,50,971,7,50,-8
1576,-296,100,927,-6,44,-7
1577,-339,61,950,-20,-6,5
1578,-86,-54,1017,-21,-55,13
1579,259,-146,1054,-9,-57,19
1580,338,-110,1028,10,-20,14
1581,161,-1,987,16,33,-3
1582,-153,81,954,3,52,-12
1583,-348,96,913,-11,26,-5
1584,-233,28,983,-21,-29,10
1585,67,-95,1048,-18,-64,16
1586,313,-143,1049,-2,-46,20
1587,289,-68,1005,15,2,9
1588,30,32,956,9,47,-7
1589,-233,99,945,-5,47,-11
1590,-330,71,935,-18,6,2
1591,-143,-15,1028,-23,-44,12
1592,179,-130,1060,-12,-64,17
1593,316,-133,1009,4,-26,17
1594,224,-29,988,15,21,2
1595,-67,61,952,7,50,-11
1596,-308,100,943,-9,37,-7
1597,-293,54,975,-17,-19,8
1598,-33,-75,1023,-23,-55,15
1599,270,-138,1045,-4,-55,19
1600,324,-92,1003,13,-9,11
1601,126,5,990,11,40,-4
1602,-175,100,957,3,50,-11
1603,-356,88,922,-17,20,-1
1604,-218,5,989,-22,-37,11
1605,111,-115,1036,-18,-60,16
1606,336,-140,1044,2,-41,19
1607,276,-56,1007,17,12,5
1608,-10,50,973,9,50,-10
1609,-289,104,926,-5,43,-8
1610,-336,68,939,-19,0,5
1611,-92,-45,1022,-21,-54,11
1612,251,-139,1059,-10,-59,18
1613,335,-114,1024,6,-20,16
1614,174,-12,988,17,31,-2
1615,-136,80,949,1,55,-12
1616,-337,94,921,-12,30,-4
1617,-255,38,985,-20,-25,9
1618,45,-89,1043,-22,-63,14
1619,294,-141,1043,-2,-47,20
1620,297,-81,1004,10,-1,9
1621,59,22,964,13,44,-7
1622,-210,103,947,-3,51,-10
1623,-343,75,937,-15,7,2
1624,-170,-8,1015,-22,-41,12
1625,151,-121,1053,-13,-63,18
1626,318,-139,1010,2,-33,18
1627,249,-32,1001,18,20,2
1628,-37,57,959,6,48,-11
1629,-302,100,940,-10,40,-7
1630,-318,61,966,-20,-12,6
1631,-61,-64,1010,-22,-55,13
1632,267,-140,1054,-10,-57,19
1633,336,-105,1014,11,-14,13
1634,146,3,995,12,37,-4
1635,-165,88,956,1,50,-10
1636,-362,85,912,-14,25,-3
1637,-231,19,987,-20,-35,10
1638,94,-107,1036,-18,-62,16
1639,331,-139,1053,0,-43,17
1640,281,-59,1005,16,4,7
1641,4,41,967,8,50,-8
1642,-264,99,931,-3,44,-11
1643,-332,70,934,-18,1,3
1644,-106,-31,1033,-20,-50,13
1645,218,-133,1057,-12,-61,18
1646,318,-119,1017,7,-22,17
1647,190,-17,984,16,25,0
1648,-106,70,945,2,54,-11
1649,-315,94,938,-11,30,-5
1650,-265,46,981,-19,-21,8
1651,5,-85,1040,-20,-57,14
1652,281,-145,1044,-3,-51,20
1653,303,-82,997,13,-1,10
1654,88,14,977,9,40,-6
1655,-190,96,954,0,51,-11
1656,-346,82,935,-17,14,0
1657,-197,-2,1003,-20,-40,11
1658,125,-119,1044,-15,-61,16
1659,331,-144,1023,3,-38,17
1660,265,-38,1005,18,16,5
1661,-24,58,974,7,50,-10
1662,-297,99,928,-7,43,-7
1663,-334,68,953,-20,-8,7
1664,-83,-58,1011,-24,-54,13
1665,264,-144,1057,-9,-57,18
1666,341,-105,1023,12,-19,14
1667,156,0,990,13,36,-2
1668,-155,83,954,2,53,-12
1669,-349,93,910,-12,26,-3
1670,-238,22,986,-22,-29,9
1671,71,-99,1046,-17,-65,15
1672,313,-137,1048,-1,-44,18
1673,285,-69,1004,15,3,8
1674,27,30,955,8,46,-10
1675,-236,102,941,-2,48,-10
1676,-331,76,939,-19,4,3
1677,-138,-18,1032,-20,-46,12
1678,182,-126,1052,-11,-64,17
1679,317,-133,1011,5,-26,18
1680,219,-27,992,15,22,1
1681,-69,60,948,5,51,-10
1682,-304,102,950,-9,37,-5
1683,-299,50,970,-20,-18,6
1684,-32,-75,1024,-22,-56,14
1685,269,-138,1046,-6,-56,19
1686,328,-97,1001,10,-8,11
1687,124,6,992,15,41,-6
1688,-174,99,955,3,50,-9
1689,-359,86,921,-15,23,1
1690,-219,12,993,-20,-38,8
1691,108,-111,1035,-21,-62,17
1692,334,-144,1046,5,-41,19
1693,278,-53,1006,12,10,6
1694,-9,49,970,15,49,-9
1695,-286,100,930,-10,43,-9
1696,-336,66,938,-16,0,3
1697,-94,-41,1025,-24,-55,14
1698,240,-139,1054,-9,-57,19
1699,331,-118,1028,8,-21,15
1700,173,-9,987,17,29,-2
1701,-131,72,946,2,55,-11
1702,-329,97,929,-13,29,-4
1703,-255,37,980,-17,-24,8
1704,37,-89,1047,-25,-60,15
1705,293,-145,1044,-1,-48,19
1706,293,-80,996,9,-1,10
1707,66,25,968,15,43,-5
1708,-206,96,946,-4,49,-10
1709,-337,79,940,-16,9,0
1710,-172,-1,1012,-22,-40,11
1711,146,-131,1047,-16,-63,18
1712,324,-137,1013,4,-33,18
1713,250,-36,999,18,20,3
1714,-37,58,970,7,48,-11
1715,-304,103,936,-7,41,-8
1716,-320,57,960,-19,-12,6
1717,-69,-61,1014,-23,-55,14
1718,268,-143,1050,-9,-56,19
1719,340,-103,1018,13,-16,15
1720,149,1,996,12,36,-2
1721,-163,88,958,4,52,-11
1722,-355,91,908,-15,25,-3
1723,-236,22,990,-23,-32,10
1724,89,-103,1041,-21,-62,16
1725,324,-142,1049,-2,-42,19
1726,283,-65,1008,13,5,7
1727,12,40,964,9,51,-9
1728,-254,94,931,-5,45,-10
1729,-331,75,938,-17,3,3
1730,-122,-29,1032,-23,-48,12
1731,201,-133,1053,-12,-63,18
1732,319,-121,1016,8,-23,17
1733,205,-24,984,14,24,0
1734,-88,67,946,7,52,-11
1735,-309,106,948,-11,34,-6
1736,-281,43,973,-19,-20,6
1737,-12,-79,1034,-22,-57,14
1738,274,-138,1044,-3,-54,19
1739,315,-94,997,9,-5,11
1740,111,11,985,13,39,-5
1741,-180,99,952,2,51,-10
1742,-356,84,926,-18,17,-2
1743,-213,8,997,-20,-39,9
1744,117,-116,1034,-19,-60,17
1745,335,-144,1038,3,-40,19
1746,277,-50,1010,17,13,4
1747,-12,49,969,10,50,-10
1748,-295,103,929,-7,41,-8
1749,-340,67,943,-16,-2,4
1750,-86,-49,1018,-24,-55,13
1751,253,-136,1057,-6,-60,19
1752,337,-115,1027,9,-20,14
1753,173,-9,987,15,32,-2
1754,-139,82,950,1,54,-10
1755,-337,95,919,-13,28,-3
1756,-249,36,986,-20,-24,8
1757,51,-87,1047,-21,-64,15
1758,300,-144,1043,-2,-45,20
1759,287,-81,1000,9,2,9
1760,53,23,962,13,43,-6
1761,-215,96,946,-3,50,-10
1762,-336,77,942,-14,7,1
1763,-165,-7,1016,-19,-43,12
1764,153,-131,1049,-16,-62,18
1765,319,-132,1014,6,-33,18
1766,249,-35,997,14,20,3
1767,-41,56,964,7,50,-10
1768,-303,109,940,-7,39,-8
1769,-316,55,956,-17,-14,5
1770,-61,-62,1020,-24,-54,13
1771,269,-140,1054,-5,-58,18
1772,338,-103,1012,9,-14,13
1773,149,5,993,14,39,-4
1774,-166,91,958,2,49,-11
1775,-361,92,908,-15,26,-4
1776,-230,24,993,-23,-32,10
1777,91,-107,1033,-19,-63,16
1778,325,-140,1053,0,-41,20
1779,284,-64,1004,15,6,8
1780,6,37,966,9,50,-9
1781,-262,98,933,-7,46,-11
1782,-330,73,934,-17,2,4
1783,-121,-29,1030,-22,-49,13
1784,207,-132,1059,-10,-62,17
1785,318,-121,1016,7,-24,17
1786,199,-23,985,12,24,1
1787,-89,69,950,6,55,-11
1788,-308,97,942,-12,32,-5
1789,-280,44,976,-17,-20,7
1790,-12,-74,1037,-21,-56,13
1791,272,-147,1039,-3,-55,19
1792,317,-96,999,11,-5,13
1793,107,17,988,15,41,-5
1794,-181,95,950,-1,48,-11
1795,-350,85,928,-14,18,0
1796,-211,8,1000,-21,-39,10
1797,120,-118,1031,-18,-63,16
1798,336,-137,1041,3,-39,20
1799,275,-48,1006,16,14,6
1800,-12,47,973,9,49,-9
1801,-293,105,929,-6,45,-8
1802,-337,68,942,-20,-3,4
1803,-92,-54,1020,-26,-56,13
1804,252,-130,1060,-6,-58,19
1805,335,-122,1022,5,-22,15
1806,170,-14,988,16,31,-2
1807,-139,84,950,4,56,-11
1808,-341,87,917,-13,26,-4
1809,-253,36,990,-19,-25,8
1810,46,-91,1043,-21,-62,15
1811,296,-149,1042,-2,-49,19
1812,294,-76,1003,13,0,9
1813,55,22,960,11,44,-7
1814,-207,100,946,-4,49,-11
1815,-336,85,944,-15,9,1
1816,-168,-6,1013,-23,-41,13
1817,149,-125,1049,-16,-63,18
1818,325,-140,1015,4,-32,18
1819,251,-36,999,13,20,4
1820,-39,60,968,8,49,-9
1821,-303,101,938,-9,43,-7
1822,-324,54,958,-17,-12,5
1823,-69,-60,1017,-20,-56,13
1824,270,-146,1053,-6,-56,19
1825,341,-111,1014,11,-17,13
1826,154,6,999,18,37,-2
1827,-165,84,952,2,52,-10
1828,-359,93,911,-13,25,-4
1829,-234,29,991,-21,-33,9
1830,87,-109,1037,-21,-63,15
1831,326,-143,1053,-1,-45,20
1832,284,-61,1010,15,4,8
1833,16,31,955,7,51,-9
1834,-250,101,941,-5,46,-10
1835,-333,76,936,-16,3,2
1836,-127,-28,1027,-24,-47,12
1837,192,-133,1061,-13,-64,17
1838,316,-128,1009,6,-25,17
1839,217,-31,985,14,22,1
1840,-79,65,952,7,51,-11
1841,-305,99,945,-9,36,-7
1842,-292,56,977,-16,-19,6
1843,-28,-72,1028,-23,-58,13
1844,274,-148,1041,-5,-56,19
1845,324,-88,1004,13,-8,13
1846,124,6,993,10,38,-5
1847,-174,90,953,1,50,-12
1848,-358,96,923,-14,21,-1
1849,-221,8,992,-24,-38,10
1850,109,-119,1035,-18,-60,15
1851,335,-137,1042,1,-42,19
1852,277,-53,1010,15,10,6
1853,-10,45,969,9,51,-10
1854,-281,103,929,-4,43,-9
1855,-334,63,937,-20,0,5
1856,-98,-40,1028,-21,-53,12
1857,237,-132,1058,-9,-61,19
1858,327,-121,1018,7,-22,16
1859,177,-15,987,17,28,0
1860,-122,76,946,3,54,-12
1861,-320,96,928,-11,28,-5
1862,-258,42,985,-20,-22,7
1863,26,-86,1043,-20,-61,15
1864,284,-145,1040,-4,-49,21
1865,300,-78,1001,14,1,10
1866,78,14,969,8,41,-6
1867,-193,103,951,2,51,-10
1868,-347,83,937,-18,14,1
1869,-190,-5,1005,-22,-42,11
1870,133,-123,1042,-16,-61,17
1871,327,-143,1022,3,-35,19
1872,263,-45,1000,16,17,3
1873,-24,59,972,10,49,-10
1874,-302,103,931,-6,43,-7
1875,-335,61,951,-20,-9,5
1876,-77,-51,1016,-19,-55,13
1877,265,-142,1051,-10,-57,19
1878,343,-109,1026,11,-20,14
1879,161,0,994,14,36,-2
1880,-154,82,952,0,53,-12
1881,-350,95,914,-14,26,-3
1882,-242,32,983,-21,-27,9
1883,66,-101,1045,-21,-64,16
1884,308,-147,1048,0,-46,18
1885,286,-77,1005,14,3,8
1886,33,28,956,11,46,-7
1887,-227,102,943,-2,47,-11
1888,-332,76,941,-16,6,2
1889,-147,-10,1023,-21,-44,12
1890,166,-128,1054,-14,-64,18
1891,317,-132,1006,4,-29,17
1892,237,-31,993,15,20,2
1893,-51,62,958,7,50,-9
1894,-302,103,943,-10,41,-6
1895,-311,61,969,-19,-16,6
1896,-53,-70,1013,-24,-54,14
1897,271,-146,1050,-8,-55,19
1898,336,-98,1010,10,-13,13
1899,144,0,998,13,39,-4
1900,-172,92,959,2,51,-12
1901,-365,88,906,-15,24,-3
1902,-230,15,987,-24,-35,10
1903,97,-107,1039,-15,-63,15
1904,327,-146,1053,-1,-45,19
1905,280,-60,1007,18,6,7
1906,3,43,963,9,51,-9
1907,-263,98,931,-6,44,-9
1908,-331,76,938,-17,3,4
1909,-114,-30,1032,-24,-49,12
1910,209,-134,1057,-12,-65,17
1911,320,-124,1012,7,-21,17
1912,205,-26,987,13,24,2
1913,-96,72,950,5,54,-11
1914,-309,98,944,-11,35,-6
1915,-282,51,978,-20,-21,8
1916,-21,-79,1028,-22,-57,14
1917,277,-147,1040,-6,-53,19
1918,318,-97,998,10,-7,11
1919,114,9,991,14,39,-7
1920,-179,96,949,2,52,-12
1921,-360,87,924,-15,18,0
1922,-216,12,1003,-20,-39,10
1923,115,-118,1029,-16,-61,16
1924,334,-141,1042,0,-42,20
1925,280,-48,1007,18,12,6
1926,-7,47,969,6,51,-11
1927,-287,103,928,-5,43,-9
1928,-337,65,942,-20,0,4
1929,-94,-50,1022,-22,-53,12
1930,244,-131,1058,-10,-60,18
1931,329,-120,1022,8,-19,15
1932,174,-15,986,16,29,-2
1933,-131,77,950,3,54,-11
1934,-326,92,927,-10,29,-5
1935,-253,36,983,-21,-23,8
1936,32,-81,1050,-17,-62,14
1937,286,-150,1035,-6,-48,19
1938,299,-82,1001,15,0,10
1939,74,25,971,11,40,-6
1940,-197,97,942,1,51,-10
1941,-342,87,946,-16,11,-1
1942,-181,-3,1007,-21,-41,11
1943,134,-125,1042,-17,-60,17
1944,329,-137,1017,2,-37,19
1945,260,-41,999,15,18,4
1946,-28,62,977,7,52,-11
1947,-302,101,931,-7,41,-9
1948,-330,57,952,-22,-9,4
1949,-75,-55,1016,-19,-55,14
1950,266,-146,1050,-11,-57,20
1951,339,-113,1026,14,-18,13
1952,157,0,994,13,36,-2
1953,-159,83,950,3,52,-10
1954,-350,96,913,-15,25,-4
1955,-236,36,989,-19,-28,8
1956,72,-100,1044,-23,-66,15
1957,310,-147,1047,0,-44,20
1958,288,-71,1003,15,1,9
1959,37,21,957,9,46,-7
1960,-226,96,945,-2,50,-10
1961,-335,87,946,-16,5,1
1962,-151,-17,1016,-21,-44,11
1963,164,-128,1058,-15,-62,16
1964,316,-132,1005,7,-28,17
1965,236,-33,999,13,21,3
1966,-53,62,959,9,51,-11
1967,-299,102,938,-10,39,-7
1968,-315,58,971,-17,-15,6
1969,-57,-63,1018,-24,-53,15
1970,271,-146,1044,-6,-56,20
1971,336,-101,1014,10,-14,13
1972,141,3,995,13,39,-3
1973,-169,88,953,2,49,-12
1974,-363,95,913,-14,25,-3
1975,-229,19,989,-23,-34,9
1976,98,-111,1033,-19,-64,16
1977,326,-139,1051,1,-42,19
1978,286,-62,1006,15,5,7
1979,5,37,963,10,50,-11
1980,-256,107,931,-3,45,-11
1981,-332,77,939,-18,3,3
1982,-119,-35,1029,-24,-50,11
1983,204,-129,1060,-10,-63,18
1984,319,-130,1008,5,-22,17
1985,209,-29,989,12,24,0
1986,-82,68,946,5,54,-11
1987,-309,101,948,-12,36,-5
1988,-288,50,977,-18,-20,7
1989,-23,-75,1027,-23,-55,16
1990,275,-146,1042,-6,-55,21
1991,323,-98,1002,11,-8,13
1992,122,7,990,13,39,-5
1993,-178,96,955,1,50,-11
1994,-363,91,926,-12,20,-1
1995,-219,9,989,-21,-38,10
1996,109,-114,1037,-17,-62,17
1997,336,-142,1045,0,-42,20
1998,280,-55,1006,15,9,4
1999,-8,46,970,7,51,-9
2000,-283,101,929,-5,43,-8
2001,-337,69,938,-19,0,3
2002,-96,-37,1030,-21,-53,12
2003,231,-134,1056,-11,-60,19
2004,322,-122,1020,10,-22,16
2005,181,-13,987,14,26,-1
2006,-119,71,945,4,55,-11
2007,-319,96,935,-14,30,-5
2008,-261,44,985,-19,-22,8
2009,16,-86,1041,-22,-60,16
2010,282,-146,1040,-3,-51,19
2011,300,-84,995,12,-2,10
2012,90,15,974,10,39,-5
2013,-191,99,952,1,52,-11
2014,-345,79,935,-16,13,-1
2015,-196,2,1004,-20,-40,11
2016,123,-122,1041,-17,-60,16
2017,335,-140,1024,3,-40,17
2018,269,-40,1007,18,16,5
2019,-19,52,974,8,50,-10
2020,-295,101,931,-6,43,-10
2021,-332,67,946,-19,-4,6
2022,-84,-52,1015,-23,-54,14
2023,258,-140,1058,-10,-57,19
2024,336,-113,1026,10,-20,16
2025,162,-8,990,14,33,-1
2026,-148,81,950,3,54,-11
2027,-340,95,915,-12,26,-4
2028,-244,31,991,-20,-26,9
2029,53,-98,1049,-21,-64,15
2030,294,-145,1043,-2,-47,20
2031,288,-78,1001,9,0,10
2032,51,21,961,14,43,-8
2033,-211,106,948,-2,49,-12
2034,-335,84,943,-19,7,2
2035,-169,-9,1016,-20,-43,12
2036,147,-125,1049,-21,-64,17
2037,325,-143,1007,8,-34,18
2038,252,-36,1003,11,19,3
2039,-37,60,966,14,49,-10
2040,-302,105,935,-14,41,-7
2041,-327,68,963,-14,-10,6
2042,-71,-62,1013,-28,-55,13
2043,272,-142,1052,-4,-57,19
2044,341,-106,1018,8,-18,15
2045,152,-4,992,14,37,-4
2046,-161,87,958,0,51,-12
2047,-360,92,906,-15,26,-3
2048,-234,25,993,-22,-29,10
2049,79,-100,1040,-20,-65,17
2050,314,-145,1047,0,-43,20
2051,282,-71,1009,13,4,7
2052,25,26,953,13,47,-8
2053,-235,100,941,-4,47,-9
2054,-329,80,944,-14,3,2
2055,-141,-14,1025,-24,-45,11
2056,176,-125,1057,-12,-64,18
2057,315,-132,1007,1,-28,17
2058,231,-34,989,16,22,2
2059,-58,64,956,4,52,-10
2060,-305,102,944,-8,39,-6
2061,-309,51,971,-21,-16,4
2062,-48,-69,1016,-22,-55,14
2063,268,-145,1048,-8,-56,20
2064,333,-109,1013,10,-12,12
2065,139,8,995,16,39,-4
2066,-175,88,952,2,51,-10
2067,-364,86,915,-14,24,-3
2068,-223,23,989,-21,-35,9
2069,99,-113,1034,-17,-63,17
2070,331,-146,1054,-2,-43,20
2071,284,-59,1008,19,5,6
2072,4,41,961,7,51,-9
2073,-263,102,934,-3,45,-11
2074,-330,78,941,-19,2,2
2075,-115,-29,1026,-23,-48,12
2076,206,-130,1057,-13,-63,19
2077,319,-125,1011,6,-22,16
2078,202,-26,987,12,23,-1
2079,-89,66,946,6,54,-12
2080,-308,97,945,-11,35,-6
2081,-283,50,980,-17,-21,7
2082,-21,-76,1027,-23,-55,13
2083,273,-148,1041,-5,-55,18
2084,319,-92,1001,12,-7,11
2085,117,9,991,12,39,-5
2086,-180,96,958,2,50,-12
2087,-354,90,921,-14,19,-1
2088,-215,11,996,-23,-39,11
2089,111,-114,1036,-17,-61,17
2090,334,-140,1040,0,-42,17
2091,279,-56,1004,17,12,7
2092,-10,45,972,7,52,-10
2093,-280,98,930,-5,44,-10
2094,-334,69,938,-19,0,5
2095,-100,-44,1028,-23,-52,13
2096,235,-134,1055,-9,-61,19
2097,325,-121,1020,6,-22,16
2098,181,-22,986,15,26,-1
2099,-120,74,946,4,55,-12
2100,-316,98,934,-11,29,-4
2101,-262,46,985,-18,-22,8
2102,15,-82,1040,-20,-59,15
2103,281,-143,1037,-4,-52,21
2104,305,-87,999,12,-2,11
2105,88,12,974,10,40,-6
2106,-186,101,953,2,51,-9
2107,-347,87,936,-18,15,0
2108,-200,0,1001,-22,-40,10
2109,126,-118,1039,-17,-62,18
2110,328,-141,1022,2,-38,18
2111,272,-47,1004,15,16,4
2112,-17,52,978,9,50,-10
2113,-296,102,929,-8,42,-8
2114,-337,68,946,-17,-4,5
2115,-81,-52,1017,-24,-56,14
2116,257,-137,1055,-7,-59,20
2117,336,-113,1029,7,-19,14
2118,166,-8,986,15,32,-2
2119,-144,82,949,1,54,-11
2120,-338,96,922,-12,28,-3
2121,-248,32,987,-21,-24,8
2122,49,-92,1044,-19,-62,16
2123,292,-145,1043,-4,-47,20
2124,289,-81,998,12,1,9
2125,58,21,961,11,43,-7
2126,-206,101,949,1,50,-10
2127,-338,85,946,-19,8,1
2128,-173,-7,1009,-20,-42,11
2129,142,-126,1046,-17,-63,18
2130,324,-142,1014,3,-34,17
2131,256,-37,1002,18,19,3
2132,-34,58,969,7,48,-11
2133,-300,103,935,-6,42,-9
2134,-326,65,959,-21,-11,5
2135,-75,-60,1010,-23,-56,15
2136,266,-141,1058,-11,-57,18
2137,341,-106,1019,10,-18,12
2138,157,-7,989,13,36,-3
2139,-162,87,958,3,52,-10
2140,-353,92,907,-14,26,-3
2141,-239,27,988,-19,-29,9
2142,75,-97,1045,-19,-64,15
2143,313,-141,1045,-1,-44,19
2144,289,-70,1003,14,3,7
2145,28,28,961,12,50,-6
2146,-228,98,939,-6,49,-8
2147,-332,88,947,-15,6,2
2148,-148,-16,1021,-25,-42,11
2149,167,-129,1053,-14,-62,17
2150,316,-126,1011,4,-28,17
2151,235,-36,993,11,21,2
2152,-51,56,958,5,51,-10
2153,-302,100,944,-9,39,-5
2154,-316,50,965,-19,-15,7
2155,-60,-69,1018,-22,-54,14
2156,269,-144,1046,-5,-57,18
2157,338,-103,1013,13,-13,13
2158,144,7,1001,14,39,-4
2159,-167,95,953,3,50,-11
2160,-363,96,911,-15,25,-3
2161,-229,20,988,-22,-35,9
2162,95,-107,1036,-17,-64,16
2163,329,-141,1055,-3,-42,20
2164,288,-64,1005,15,4,7
2165,10,38,964,9,52,-10
2166,-258,101,935,-6,46,-9
2167,-336,67,933,-18,3,2
2168,-126,-27,1032,-21,-47,11
2169,200,-137,1054,-11,-64,18
2170,319,-130,1009,7,-24,17
2171,208,-24,991,14,23,1
2172,-78,62,946,5,52,-11
2173,-305,107,952,-9,35,-5
2174,-292,49,969,-19,-20,7
2175,-25,-70,1029,-22,-56,14
2176,273,-142,1042,-7,-55,19
2177,328,-103,1003,9,-8,12
2178,128,14,996,15,40,-5
2179,-178,95,952,1,51,-10
2180,-364,86,920,-16,22,-1
2181,-224,13,993,-21,-38,10
2182,105,-122,1028,-19,-62,15
2183,336,-142,1049,2,-42,20
2184,281,-55,1009,17,9,6
2185,-4,42,968,9,51,-9
2186,-279,102,931,-2,43,-10
2187,-334,70,938,-20,0,4
2188,-101,-32,1030,-19,-53,13
2189,230,-132,1054,-12,-61,19
2190,326,-121,1017,8,-20,16
2191,188,-13,985,15,26,-1
2192,-109,72,946,4,56,-10
2193,-317,100,937,-12,33,-5
2194,-269,48,983,-18,-22,8
2195,4,-84,1038,-24,-58,15
2196,279,-152,1039,-5,-52,19
2197,308,-89,1001,11,-3,10
2198,104,10,977,12,40,-4
2199,-189,97,955,-1,52,-10
2200,-355,94,932,-14,16,-1
2201,-207,3,996,-24,-41,11
2202,120,-124,1039,-17,-62,16
2203,338,-143,1033,2,-41,19
2204,277,-51,1006,18,15,5
2205,-15,51,975,9,49,-11
2206,-292,102,924,-5,41,-10
2207,-337,72,943,-17,-2,5
2208,-91,-44,1024,-23,-55,13
2209,251,-142,1056,-9,-60,18
2210,334,-114,1026,8,-21,15
2211,174,-12,987,14,30,-2
2212,-138,75,946,3,54,-14
2213,-331,98,924,-12,28,-4
2214,-255,41,987,-20,-24,8
2215,35,-91,1044,-20,-62,13
2216,290,-147,1041,-3,-50,19
2217,294,-81,998,14,0,11
2218,68,17,969,10,42,-7
2219,-196,100,949,2,50,-12
2220,-338,82,938,-18,10,1
2221,-185,-2,1014,-21,-41,11
2222,136,-120,1044,-18,-62,17
2223,325,-138,1013,1,-36,19
2224,262,-40,1004,16,19,4
2225,-26,58,973,8,49,-10
2226,-298,103,931,-7,42,-7
2227,-330,61,955,-21,-8,6
2228,-78,-60,1011,-24,-54,13
2229,267,-139,1055,-8,-58,19
2230,335,-110,1024,9,-18,14
2231,160,-6,989,16,35,-4
2232,-156,86,953,4,52,-11
2233,-349,95,913,-12,27,-4
2234,-235,31,989,-22,-26,8
2235,67,-93,1045,-18,-64,15
2236,308,-144,1044,-4,-44,20
2237,287,-78,1002,14,2,8
2238,39,30,962,11,46,-7
2239,-220,99,942,-3,50,-10
2240,-332,75,947,-19,6,2
2241,-160,-10,1018,-20,-43,12
2242,158,-128,1051,-17,-63,19
2243,317,-137,1007,4,-31,17
2244,246,-35,998,16,19,3
2245,-44,57,962,9,50,-8
2246,-302,106,942,-6,40,-6
2247,-318,56,961,-19,-14,5
2248,-60,-63,1014,-23,-56,15
2249,267,-140,1053,-6,-57,19
2250,342,-110,1013,11,-15,13
2251,149,7,999,16,37,-3
2252,-170,91,956,2,50,-10
2253,-358,89,909,-16,25,-4
2254,-232,26,988,-20,-32,8
2255,91,-105,1039,-21,-64,16
2256,323,-145,1049,-1,-43,19
2257,286,-64,1006,16,4,8
2258,16,32,957,7,50,-7
2259,-249,97,938,-2,47,-9
2260,-334,78,940,-17,4,2
2261,-129,-26,1021,-22,-47,12
2262,186,-128,1062,-14,-64,19
2263,317,-126,1007,5,-26,17
2264,220,-32,987,13,21,2
2265,-70,67,956,7,52,-11
2266,-301,101,944,-8,38,-7
2267,-299,59,974,-18,-17,8
2268,-40,-70,1027,-25,-54,13
2269,271,-147,1042,-6,-56,17
2270,331,-98,1004,11,-11,12
2271,132,4,995,14,38,-4
2272,-173,93,957,2,51,-11
2273,-363,91,917,-15,23,-2
2274,-226,14,989,-24,-36,10
2275,101,-113,1033,-17,-62,15
2276,333,-142,1050,0,-43,19
2277,280,-57,1010,18,9,6
2278,0,36,961,8,51,-9
2279,-269,104,933,-2,44,-9
2280,-330,73,936,-18,4,4
2281,-109,-38,1033,-24,-50,14
2282,215,-127,1059,-10,-63,18
2283,317,-122,1014,5,-23,15
2284,195,-22,987,13,23,-1
2285,-101,74,945,6,54,-12
2286,-306,95,941,-14,32,-5
2287,-277,46,981,-18,-20,9
2288,-8,-78,1032,-23,-58,15
2289,278,-143,1038,-4,-53,19
2290,315,-89,1000,11,-4,9
2291,112,9,983,13,41,-6
2292,-183,103,954,1,52,-8
2293,-363,91,931,-20,18,0
2294,-213,2,993,-23,-40,9
2295,115,-115,1036,-18,-60,17
2296,335,-143,1041,1,-40,19
2297,281,-52,1006,16,11,4
2298,-11,49,972,7,53,-8
2299,-293,97,928,-6,44,-7
2300,-344,66,942,-17,-2,4
2301,-95,-43,1022,-20,-54,13
2302,241,-138,1055,-8,-62,19
2303,335,-118,1026,11,-22,16
2304,178,-6,988,17,29,-2
2305,-129,76,944,2,55,-12
2306,-327,99,931,-11,28,-4
2307,-258,46,983,-20,-21,9
2308,26,-87,1045,-22,-62,14
2309,288,-148,1040,-5,-50,18
2310,298,-81,999,13,0,10
2311,78,14,967,10,41,-6
2312,-192,94,951,0,52,-9
2313,-348,85,940,-17,12,0
2314,-191,-6,1000,-22,-41,12
2315,127,-121,1047,-15,-61,17
2316,329,-141,1017,3,-38,18
2317,270,-45,1007,18,16,4
2318,-20,56,976,10,50,-10
2319,-298,102,928,-5,42,-8
2320,-333,72,954,-18,-8,6
2321,-79,-49,1011,-22,-54,14
2322,260,-142,1052,-10,-57,19
2323,342,-106,1028,9,-20,14
2324,164,-4,991,14,35,-2
2325,-152,82,950,0,54,-11
2326,-345,94,916,-13,26,-4
2327,-244,32,990,-22,-25,10
2328,57,-98,1043,-19,-65,15
2329,302,-145,1043,-1,-46,19
2330,289,-76,1002,13,2,11
2331,48,23,963,10,45,-5
2332,-215,104,948,-1,51,-10
2333,-335,83,941,-16,9,1
2334,-163,-11,1020,-21,-42,11
2335,152,-126,1049,-15,-63,17
2336,320,-135,1010,4,-31,19
2337,249,-40,998,15,19,3
2338,-35,55,963,8,49,-9
2339,-302,105,940,-5,42,-6
2340,-320,58,960,-18,-14,7
2341,-66,-66,1012,-21,-55,14
2342,270,-135,1052,-9,-55,19
2343,340,-104,1018,10,-17,14
2344,149,1,993,13,38,-3
2345,-163,94,956,3,52,-10
2346,-359,93,907,-17,25,-3
2347,-234,23,990,-24,-30,10
2348,84,-104,1040,-19,-64,16
2349,316,-145,1049,-2,-43,21
2350,282,-70,1009,15,5,8
2351,19,31,958,9,49,-10
2352,-242,100,939,-3,46,-10
2353,-332,78,942,-17,4,2
2354,-133,-24,1025,-21,-47,13
2355,183,-131,1057,-13,-66,18
2356,317,-131,1010,6,-26,18
2357,225,-29,992,15,22,1
2358,-62,68,956,7,51,-11
2359,-304,108,946,-9,40,-6
2360,-302,54,966,-21,-17,6
2361,-43,-70,1024,-23,-56,15
2362,273,-142,1046,-10,-54,20
2363,335,-102,1008,11,-10,13
2364,140,4,997,10,40,-5
2365,-171,88,957,3,52,-10
2366,-369,86,912,-15,23,-2
2367,-230,19,988,-13,-37,9
2368,98,-112,1031,-14,-62,15
2369,333,-143,1054,1,-43,20
2370,286,-59,1007,20,6,6
2371,4,39,964,5,51,-9
2372,-266,102,934,0,43,-10
2373,-335,77,935,-21,2,4
2374,-109,-29,1028,-18,-50,13
2375,212,-129,1057,-15,-64,19
2376,322,-126,1011,9,-24,15
2377,199,-24,986,12,24,1
2378,-94,71,950,6,54,-11
2379,-310,96,940,-12,33,-6
2380,-286,56,981,-18,-21,8
2381,-15,-72,1031,-23,-57,14
2382,275,-153,1038,-8,-53,19
2383,320,-93,1001,12,-5,12
2384,118,8,988,9,39,-5
2385,-181,91,954,1,52,-12
2386,-355,90,926,-17,19,-1
2387,-219,7,993,-20,-40,10
2388,112,-116,1035,-21,-60,16
2389,335,-137,1040,4,-42,19
2390,281,-50,1008,15,11,6
2391,-7,43,971,9,52,-9
2392,-283,103,927,-5,44,-8
2393,-336,72,939,-17,0,3
2394,-98,-45,1026,-24,-52,13
2395,236,-135,1058,-10,-60,19
2396,324,-121,1021,8,-21,16
2397,180,-18,989,13,29,0
2398,-123,76,945,7,54,-11
2399,-323,97,932,-14,28,-3
2400,-262,44,981,-18,-21,9
2401,18,-86,1043,-23,-60,16
2402,283,-148,1040,-2,-52,20
2403,304,-87,998,11,-2,10
2404,85,15,972,12,40,-7
2405,-190,103,952,0,50,-11
2406,-346,88,934,-16,14,0
2407,-197,1,1002,-21,-41,11
2408,127,-119,1045,-17,-62,17
2409,332,-140,1025,3,-38,19
2410,273,-47,1002,14,16,6
2411,-19,56,979,10,49,-10
2412,-296,102,928,-8,44,-8
2413,-339,65,944,-19,-6,4
2414,-85,-49,1021,-23,-56,12
2415,254,-141,1052,-10,-57,19
2416,338,-115,1028,8,-21,15
2417,167,-9,993,16,33,-3
2418,-143,77,947,3,55,-11
2419,-341,96,921,-11,26,-2
2420,-249,37,986,-20,-24,8
2421,50,-94,1044,-21,-63,16
2422,296,-144,1043,-1,-47,20
2423,290,-78,1001,12,0,9
2424,58,21,958,13,43,-7
2425,-206,102,947,-3,50,-11
2426,-337,82,942,-14,9,1
2427,-172,-5,1011,-21,-41,12
2428,147,-122,1047,-14,-64,19
2429,323,-139,1009,1,-32,16
2430,256,-36,998,18,20,1
2431,-31,63,970,6,49,-10
2432,-302,100,932,-7,42,-7
2433,-325,63,962,-20,-11,5
2434,-70,-59,1011,-24,-56,13
2435,270,-148,1052,-10,-55,20
2436,340,-104,1025,12,-17,14
2437,153,-1,992,13,36,-4
2438,-161,84,956,2,52,-12
2439,-357,93,912,-13,26,-5
2440,-237,25,986,-22,-30,8
2441,77,-103,1043,-19,-64,16
2442,313,-145,1047,0,-44,18
2443,288,-73,1007,15,1,7
2444,21,35,959,10,50,-7
2445,-235,95,938,-4,47,-11
2446,-327,80,943,-14,3,2
2447,-143,-12,1025,-23,-43,13
2448,176,-136,1050,-14,-66,18
2449,320,-129,1010,6,-29,18
2450,228,-30,991,14,21,3
2451,-57,61,956,7,51,-12
2452,-305,107,945,-8,40,-7
2453,-308,55,964,-19,-16,7
2454,-55,-69,1018,-25,-56,14
2455,271,-144,1046,-6,-56,19
2456,337,-101,1013,10,-12,13
2457,139,5,1001,13,39,-6
2458,-167,87,954,1,50,-12
2459,-366,91,911,-13,25,-2
2460,-230,19,991,-23,-36,9
2461,96,-111,1034,-17,-63,15
2462,328,-140,1049,-1,-43,18
2463,283,-60,1010,17,4,7
2464,6,37,961,7,52,-8
2465,-260,101,933,-3,46,-10
2466,-329,76,939,-18,1,3
2467,-121,-29,1031,-22,-48,11
2468,206,-136,1054,-11,-64,18
2469,315,-125,1013,7,-25,18
2470,201,-26,991,14,24,0
2471,-83,66,948,5,53,-12
2472,-309,104,946,-8,33,-6
2473,-288,47,975,-20,-21,6
2474,-20,-76,1034,-18,-57,14
2475,273,-147,1034,-6,-56,20
2476,326,-99,1004,12,-6,11
2477,120,13,992,12,39,-7
2478,-177,97,951,3,49,-11
2479,-361,91,925,-17,22,-2
2480,-221,15,993,-20,-38,10
2481,111,-121,1028,-20,-61,17
2482,339,-144,1050,0,-40,20
2483,280,-53,1007,15,10,5
2484,-5,43,970,6,51,-10
2485,-286,106,932,-4,44,-9
2486,-334,63,934,-21,0,4
2487,-98,-40,1027,-20,-54,13
2488,230,-129,1059,-10,-59,20
2489,327,-126,1021,8,-22,15
2490,186,-15,986,16,27,-1
2491,-117,75,941,5,57,-9
2492,-320,98,938,-11,29,-6
2493,-264,48,984,-17,-22,8
2494,13,-82,1039,-23,-57,16
2495,280,-150,1038,-4,-51,19
2496,305,-82,1005,13,-2,11
2497,90,13,970,9,42,-6
2498,-190,96,955,0,50,-11
2499,-351,89,936,-16,15,-1
2500,-199,-4,993,-22,-40,11
2501,119,-123,1044,-17,-62,18
2502,331,-143,1029,4,-39,17
2503,273,-46,1001,17,15,5
2504,-20,58,979,9,49,-9
2505,-296,100,926,-7,42,-9
2506,-334,65,947,-17,-5,4
2507,-83,-48,1019,-22,-56,13
2508,253,-138,1057,-8,-58,19
2509,338,-111,1025,8,-19,15
2510,167,-9,990,15,32,-1
2511,-143,80,947,4,55,-11
2512,-337,97,920,-15,28,-5
2513,-248,38,986,-20,-26,8
2514,51,-96,1042,-24,-64,15
2515,296,-145,1042,0,-47,20
2516,293,-75,1002,10,-1,10
2517,55,22,964,11,45,-7
2518,-204,99,947,-4,51,-10
2519,-337,86,943,-14,8,2
2520,-176,-9,1013,-23,-40,12
2521,146,-125,1048,-15,-63,17
2522,323,-137,1012,3,-35,18
2523,259,-40,1005,13,20,3
2524,-32,56,968,9,49,-11
2525,-303,100,932,-10,41,-7
2526,-329,64,963,-18,-9,5
2527,-71,-63,1007,-24,-57,11
2528,269,-143,1055,-8,-58,19
2529,340,-109,1024,9,-16,15
2530,158,-6,992,14,35,-3
2531,-161,90,958,4,53,-11
2532,-359,92,906,-15,28,-3
2533,-238,26,988,-19,-30,9
2534,76,-99,1042,-20,-64,15
2535,315,-143,1048,2,-44,18
2536,287,-73,1005,12,0,8
2537,31,32,959,13,47,-7
2538,-229,103,941,-4,48,-11
2539,-330,76,942,-16,3,2
2540,-146,-10,1028,-21,-43,12
2541,173,-126,1050,-14,-64,19
2542,315,-134,1008,3,-29,18
2543,235,-27,997,15,23,2
2544,-55,61,955,6,51,-11
2545,-301,102,943,-11,38,-7
2546,-309,56,971,-17,-15,6
2547,-54,-73,1014,-25,-54,14
2548,272,-148,1049,-6,-56,19
2549,333,-104,1009,11,-11,14
2550,138,8,1000,15,37,-4
2551,-170,90,953,1,49,-11
2552,-364,90,912,-15,25,-1
2553,-230,21,990,-20,-36,9
2554,97,-113,1036,-20,-64,16
2555,329,-147,1050,1,-42,19
2556,284,-60,1007,14,5,6
2557,6,41,961,12,51,-8
2558,-262,98,934,-7,47,-10
2559,-331,76,938,-15,2,1
2560,-118,-24,1032,-25,-48,12
2561,202,-134,1056,-11,-61,19
2562,320,-123,1011,4,-24,17
2563,206,-24,989,15,24,1
2564,-83,65,949,3,55,-10
2565,-306,102,944,-9,35,-5
2566,-288,49,975,-19,-19,6
2567,-25,-76,1029,-24,-54,15
2568,272,-144,1043,-3,-56,19
2569,321,-98,997,9,-7,12
2570,122,11,994,15,41,-5
2571,-177,93,951,1,50,-11
2572,-357,86,922,-13,21,-2
2573,-216,12,994,-23,-39,10
2574,107,-117,1031,-16,-62,16
2575,336,-140,1047,-1,-42,19
2576,279,-51,1005,19,11,6
2577,-8,44,972,6,49,-10
2578,-280,104,932,-3,43,-10
2579,-336,70,933,-19,-1,4
2580,-100,-40,1029,-23,-54,12
2581,238,-134,1059,-10,-61,18
2582,327,-121,1017,7,-21,17
2583,181,-20,988,15,27,-1
2584,-117,74,946,4,56,-12
2585,-322,99,935,-11,31,-4
2586,-266,45,983,-21,-23,8
2587,16,-83,1039,-21,-59,15
2588,277,-145,1037,-5,-51,20
2589,307,-87,1002,12,-3,10
2590,90,13,976,11,40,-7
2591,-188,97,951,1,51,-10
2592,-347,87,941,-16,14,1
2593,-202,0,993,-22,-39,10
2594,124,-118,1043,-15,-62,16
2595,330,-137,1031,3,-39,18
2596,271,-44,1004,17,17,4
2597,-15,53,975,6,50,-9
2598,-294,112,931,-4,43,-7
2599,-338,62,941,-23,-3,4
2600,-84,-49,1023,-21,-55,12
2601,257,-138,1052,-11,-59,19
2602,339,-118,1022,8,-19,14
2603,166,-6,995,13,33,-2
2604,-145,77,947,2,53,-11
2605,-340,93,921,-14,28,-3
2606,-245,36,983,-20,-25,9
2607,50,-94,1046,-18,-64,14
2608,294,-151,1041,-2,-48,19
2609,292,-76,1004,14,-1,9
2610,56,23,959,11,43,-7
2611,-206,101,950,-1,50,-9
2612,-336,87,943,-17,8,1
2613,-169,-6,1012,-22,-42,11
2614,148,-125,1052,-15,-62,18
2615,323,-135,1010,5,-34,17
2616,256,-38,999,15,20,1
2617,-31,59,971,6,52,-12
2618,-298,99,936,-9,42,-7
2619,-330,61,957,-21,-10,8
2620,-71,-61,1011,-22,-54,15
2621,266,-151,1054,-10,-57,19
2622,338,-104,1024,15,-18,13
2623,153,-2,991,12,38,-3
2624,-162,83,957,5,51,-12
2625,-357,96,908,-14,26,-3
2626,-235,27,988,-21,-30,9
2627,77,-103,1042,-21,-65,14
2628,314,-141,1052,2,-44,18
2629,288,-71,1000,13,2,8
2630,25,31,962,10,48,-7
2631,-233,103,942,-4,49,-11
2632,-332,78,935,-20,4,1
2633,-142,-19,1030,-23,-44,12
2634,172,-131,1052,-13,-63,18
2635,317,-132,1007,7,-28,17
2636,230,-33,997,12,21,2
2637,-57,62,953,8,52,-11
2638,-303,106,945,-9,38,-6
2639,-308,57,967,-18,-16,7
2640,-52,-71,1017,-23,-55,15
2641,272,-141,1051,-7,-56,19
2642,339,-97,1009,11,-13,13
2643,140,5,998,11,39,-4
2644,-169,92,958,3,51,-10
2645,-362,95,909,-16,25,-1
2646,-229,15,987,-22,-34,10
2647,99,-111,1040,-20,-63,16
2648,333,-145,1048,1,-42,20
2649,282,-62,1007,13,5,8
2650,2,40,965,11,51,-9
2651,-263,97,932,-8,44,-11
2652,-333,72,936,-16,2,3
2653,-120,-27,1030,-22,-49,12
2654,210,-135,1053,-11,-64,18
2655,321,-127,1017,7,-23,17
2656,205,-24,989,16,23,0
2657,-86,68,947,6,53,-12
2658,-306,107,944,-8,35,-4
2659,-287,53,978,-19,-20,7
2660,-16,-76,1033,-24,-57,15
2661,273,-140,1044,-5,-56,20
2662,321,-98,994,8,-7,12
2663,122,13,993,13,39,-5
2664,-179,97,954,0,51,-10
2665,-362,82,927,-18,19,-2
2666,-219,9,991,-21,-39,10
2667,106,-118,1031,-17,-62,16
2668,338,-150,1045,2,-42,19
2669,281,-49,1009,20,11,6
2670,-7,49,970,8,51,-10
2671,-283,98,927,-6,43,-9
2672,-338,74,939,-17,0,4
2673,-96,-42,1021,-24,-54,13
2674,238,-137,1059,-9,-61,17
2675,330,-119,1022,8,-21,14
2676,183,-15,982,13,28,0
2677,-120,77,950,4,56,-10
2678,-323,95,932,-14,31,-5
2679,-261,40,984,-18,-22,8
2680,20,-80,1045,-22,-60,14
2681,281,-151,1035,-5,-51,20
2682,305,-88,1000,10,-3,11
2683,86,19,977,13,42,-5
2684,-192,92,949,-2,52,-11
2685,-346,88,938,-12,13,0
2686,-196,5,999,-21,-40,11
2687,126,-126,1043,-18,-60,17
2688,332,-136,1029,4,-39,18
2689,272,-45,1001,17,16,5
2690,-19,52,976,6,50,-9
2691,-296,106,930,-5,42,-9
2692,-337,68,947,-21,-6,5
2693,-84,-54,1016,-24,-55,13
2694,257,-140,1058,-9,-58,18
2695,339,-113,1022,7,-20,15
2696,165,-9,990,14,34,-1
2697,-149,81,950,3,53,-12
2698,-342,91,916,-14,28,-4
2699,-244,35,990,-19,-26,8
2700,54,-94,1042,-19,-63,15
2701,300,-144,1042,0,-46,19
2702,290,-71,1007,14,0,8
2703,45,21,957,15,44,-7
2704,-211,101,946,0,50,-10
2705,-332,86,945,-13,7,2
2706,-164,-12,1013,-26,-42,11
2707,154,-121,1054,-6,-63,18
2708,321,-136,1009,-4,-32,18
2709,248,-38,998,21,21,5
2710,-41,66,969,2,50,-11
2711,-301,103,933,-6,42,-7
2712,-323,58,963,-24,-13,6
2713,-67,-62,1014,-23,-54,13
2714,270,-147,1048,-9,-57,19
2715,339,-109,1021,10,-15,14
2716,152,0,996,16,38,-4
2717,-167,86,952,0,52,-11
2718,-364,94,911,-11,27,-3
2719,-234,20,983,-23,-31,8
2720,87,-105,1042,-15,-64,15
2721,320,-141,1056,-2,-44,20
2722,286,-71,1001,18,3,7
2723,18,34,962,8,48,-8
2724,-247,108,940,-1,47,-10
2725,-328,72,931,-20,3,2
2726,-133,-12,1035,-20,-46,12
2727,185,-124,1053,-16,-64,19
2728,320,-138,1004,3,-26,16
2729,218,-25,992,16,23,1
2730,-66,60,948,5,52,-9
2731,-305,99,948,-10,38,-6
2732,-301,56,973,-19,-17,6
2733,-39,-72,1019,-21,-54,14
2734,269,-147,1045,-8,-57,19
2735,332,-98,1007,13,-11,12
2736,134,4,994,13,39,-5
2737,-175,89,955,3,50,-11
2738,-363,89,916,-12,22,-2
2739,-226,18,987,-21,-38,10
2740,105,-112,1037,-17,-64,16
2741,335,-141,1049,-2,-40,19
2742,283,-54,1009,18,7,7
2743,0,44,968,5,50,-9
2744,-274,100,929,-4,44,-9
2745,-333,70,936,-20,2,3
2746,-107,-33,1030,-19,-50,13
2747,222,-138,1057,-13,-62,18
2748,320,-123,1015,9,-22,16
2749,189,-13,988,14,24,0
2750,-106,66,940,4,54,-12
2751,-312,100,944,-10,31,-6
2752,-272,48,974,-18,-21,8
2753,1,-82,1038,-24,-57,14
2754,277,-141,1041,-5,-52,18
2755,312,-86,998,12,-4,11
2756,100,11,981,11,40,-6
2757,-182,100,953,4,50,-12
2758,-350,84,929,-18,16,0
2759,-206,3,1001,-20,-39,11
2760,119,-124,1035,-18,-62,17
2761,333,-141,1032,3,-41,20
2762,272,-43,1010,18,14,5
2763,-15,51,971,7,49,-10
2764,-294,104,930,-5,42,-9
2765,-335,68,945,-21,-3,4
2766,-87,-53,1017,-22,-55,13
2767,252,-137,1056,-12,-58,19
2768,334,-109,1028,9,-20,17
2769,165,-14,986,12,32,0
2770,-139,79,948,6,55,-11
2771,-336,94,924,-13,27,-4
2772,-251,34,984,-21,-25,8
2773,44,-90,1048,-22,-62,16
2774,295,-141,1041,-1,-47,19
2775,291,-81,1000,11,0,9
2776,65,24,965,13,43,-8
2777,-204,100,947,-2,52,-11
2778,-335,82,945,-19,8,1
2779,-175,-3,1013,-20,-41,10
2780,145,-125,1044,-17,-63,18
2781,326,-135,1015,4,-34,19
2782,258,-39,1001,13,20,2
2783,-29,49,966,6,50,-12
2784,-300,107,938,-7,43,-7
2785,-328,60,955,-18,-10,5
2786,-73,-62,1014,-24,-55,13
2787,266,-143,1055,-8,-57,19
2788,340,-107,1021,10,-18,15
2789,155,0,996,15,36,-3
2790,-160,86,951,5,51,-12
2791,-354,90,913,-14,26,-3
2792,-235,29,990,-20,-30,8
2793,80,-100,1037,-19,-64,16
2794,315,-143,1050,0,-42,19
2795,283,-65,1008,12,4,5
2796,24,34,956,12,48,-9
2797,-239,97,940,-7,48,-10
2798,-328,79,944,-14,5,2
2799,-135,-22,1021,-26,-46,11
2800,179,-131,1058,-12,-63,18
2801,314,-132,1010,2,-26,16
2802,224,-31,988,17,22,3
2803,-66,66,959,7,52,-10
2804,-306,100,943,-7,38,-7
2805,-302,53,969,-19,-17,6
2806,-41,-66,1023,-23,-55,15
2807,273,-146,1042,-6,-57,19
2808,336,-98,1008,13,-11,13
2809,134,10,997,12,39,-6
2810,-169,93,954,2,49,-13
2811,-362,95,918,-15,24,-2
2812,-224,18,993,-21,-36,11
2813,102,-115,1032,-21,-63,16
2814,334,-142,1049,0,-40,19
2815,282,-56,1010,16,8,7
2816,-1,36,967,8,52,-9
2817,-271,100,935,-5,45,-10
2818,-333,74,936,-16,2,3
2819,-105,-40,1026,-26,-51,13
2820,220,-130,1059,-9,-61,19
2821,321,-121,1014,7,-22,18
2822,194,-24,990,15,25,0
2823,-104,73,947,5,54,-12
2824,-312,99,937,-12,31,-4
2825,-277,53,983,-19,-21,7
2826,-1,-80,1034,-22,-59,15
2827,275,-143,1038,-3,-53,19
2828,314,-89,1001,11,-3,11
2829,105,10,981,13,39,-6
2830,-184,98,952,1,50,-11
2831,-352,89,935,-15,17,-1
2832,-209,0,995,-22,-40,10
2833,117,-117,1035,-16,-61,17
2834,335,-134,1038,3,-40,18
2835,275,-48,1003,16,15,4
2836,-13,50,974,8,49,-10
2837,-287,107,927,-4,43,-8
2838,-339,63,940,-20,-3,5
2839,-85,-46,1025,-22,-55,13
2840,252,-134,1055,-8,-58,19
2841,332,-119,1023,6,-20,16
2842,171,-10,989,15,32,-3
2843,-138,78,946,1,55,-11
2844,-336,93,925,-13,28,-4
2845,-250,38,991,-18,-24,7
2846,42,-97,1037,-21,-63,15
2847,294,-146,1044,-1,-48,20
2848,291,-82,1000,12,0,10
2849,61,21,960,14,43,-7
2850,-202,102,950,-2,51,-11
2851,-338,81,941,-16,8,1
2852,-175,-5,1007,-23,-42,11
2853,146,-116,1057,-14,-63,18
2854,322,-143,1006,1,-35,17
2855,262,-39,1002,18,19,3
2856,-32,64,970,8,50,-11
2857,-302,97,931,-8,42,-8
2858,-328,66,965,-20,-10,5
2859,-73,-57,1007,-23,-55,14
2860,266,-145,1053,-9,-58,20
2861,340,-106,1024,10,-18,15
2862,152,-2,993,14,37,-3
2863,-161,84,957,0,53,-12
2864,-356,95,913,-12,26,-3
2865,-235,25,984,-22,-29,8
2866,76,-99,1043,-18,-65,14
2867,315,-142,1050,-1,-44,19
2868,286,-67,1003,14,2,8
2869,26,31,959,9,49,-8
2870,-234,102,939,-5,48,-10
2871,-330,77,943,-17,5,3
2872,-139,-16,1029,-22,-44,13
2873,176,-132,1050,-13,-63,18
2874,319,-132,1008,3,-28,18
2875,226,-28,991,16,22,2
2876,-61,64,957,7,52,-11
2877,-303,102,943,-9,38,-7
2878,-305,57,968,-20,-17,7
2879,-48,-72,1018,-23,-55,14
2880,275,-149,1049,-8,-56,19
2881,331,-98,1004,13,-11,13
2882,137,4,1000,13,39,-4
2883,-173,93,955,1,50,-11
2884,-362,91,909,-16,24,-1
2885,-227,18,993,-22,-36,9
2886,98,-113,1037,-17,-62,15
2887,334,-142,1046,0,-43,20
2888,280,-57,1010,17,7,7
2889,3,41,967,9,51,-9
2890,-265,103,929,-5,44,-10
2891,-330,76,939,-19,1,5
2892,-109,-36,1028,-23,-50,13
2893,215,-131,1058,-7,-63,19
2894,318,-124,1016,5,-23,17
2895,196,-25,985,16,24,-1
2896,-100,71,946,4,54,-11
2897,-307,103,943,-10,33,-5
2898,-279,42,975,-21,-21,6
2899,-7,-77,1039,-20,-58,14
2900,277,-145,1039,-6,-54,21
2901,314,-94,996,13,-3,12
2902,108,13,988,11,39,-5
2903,-178,95,946,4,51,-10
2904,-358,89,937,-17,18,0
2905,-211,5,997,-20,-41,10
2906,119,-116,1034,-18,-61,17
2907,336,-143,1036,1,-39,20
2908,278,-50,1008,19,13,5
2909,-13,51,971,8,51,-8
2910,-292,103,927,-6,44,-8
2911,-335,70,942,-19,-3,4
2912,-90,-44,1021,-22,-55,13
2913,247,-135,1059,-11,-60,19
2914,333,-118,1022,10,-20,15
2915,175,-13,987,15,31,-2
2916,-131,77,949,2,55,-11
2917,-335,98,925,-10,29,-5
2918,-254,39,984,-22,-24,7
2919,36,-87,1045,-19,-62,17
2920,287,-148,1038,-5,-49,19
2921,300,-82,1004,15,-1,10
2922,72,18,965,9,42,-7
2923,-200,97,947,1,52,-11
2924,-342,87,942,-17,11,-1
2925,-182,-3,1004,-19,-41,12
2926,136,-125,1045,-18,-61,17
2927,327,-141,1019,2,-37,18
2928,266,-42,1000,17,17,5
2929,-24,56,972,5,49,-10
2930,-301,104,934,-5,43,-9
2931,-330,64,953,-20,-8,5
2932,-79,-56,1013,-22,-55,13
2933,264,-140,1057,-10,-58,19
2934,341,-109,1022,11,-19,15
2935,161,-3,993,13,36,-1
2936,-154,86,958,4,52,-11
2937,-351,88,906,-15,26,-3
2938,-240,37,990,-18,-28,8
2939,72,-101,1041,-20,-65,16
2940,310,-146,1046,-1,-45,20
2941,288,-69,1004,15,1,8
2942,31,25,957,8,46,-9
2943,-228,100,946,-2,50,-11
2944,-334,81,940,-17,6,2
2945,-149,-19,1023,-22,-44,13
2946,167,-127,1054,-14,-64,17
2947,316,-131,1006,6,-29,17
2948,234,-38,995,13,20,1
2949,-52,62,960,8,51,-12
2950,-302,107,942,-7,39,-5
2951,-309,54,967,-22,-17,6
2952,-52,-66,1020,-20,-55,13
2953,271,-140,1044,-8,-57,20
2954,338,-103,1008,14,-13,13
2955,143,5,1001,12,40,-4
2956,-170,89,952,6,51,-10
2957,-361,91,916,-17,25,-2
2958,-228,17,988,-20,-33,9
2959,94,-112,1034,-20,-63,16
2960,328,-140,1054,0,-42,19
2961,280,-65,1005,15,7,6
2962,3,37,966,9,51,-9
2963,-259,103,933,-4,44,-9
2964,-331,69,934,-20,4,3
2965,-119,-28,1032,-22,-48,13
2966,209,-130,1058,-10,-64,18
2967,317,-130,1010,7,-23,16
2968,200,-24,987,15,23,-1
2969,-89,74,949,7,54,-11
2970,-307,99,941,-12,33,-6
2971,-283,50,983,-19,-20,7
2972,-11,-78,1027,-22,-56,16
2973,272,-146,1038,-7,-54,20
2974,315,-88,1004,13,-6,12
2975,114,8,986,11,39,-5
2976,-180,97,957,4,51,-10
2977,-361,90,927,-18,19,-1
2978,-211,0,990,-21,-40,9
2979,114,-115,1037,-18,-61,17
2980,335,-141,1039,3,-42,19
2981,278,-52,1005,16,12,5
2982,-8,53,976,10,51,-10
2983,-291,101,925,-7,42,-10
2984,-337,70,942,-19,-1,3
2985,-90,-44,1026,-24,-54,14
2986,241,-138,1054,-10,-60,20
2987,329,-116,1022,8,-20,14
2988,175,-14,987,16,30,-2
2989,-130,73,945,2,55,-11
2990,-328,98,935,-11,29,-6
2991,-257,40,981,-19,-23,7
2992,29,-92,1044,-22,-62,16
2993,286,-147,1040,0,-49,19
2994,297,-81,998,13,0,10
2995,75,17,970,10,41,-7
2996,-195,101,952,0,52,-11
2997,-341,86,935,-17,11,1
2998,-188,0,1011,-23,-40,12
2999,135,-122,1045,-17,-60,16
3000,327,-141,1016,0,-38,18
3001,268,-39,1002,16,18,5
3002,-26,54,970,6,52,-9
3003,-300,104,933,-5,43,-8
3004,-335,66,954,-19,-9,5
3005,-76,-63,1010,-23,-55,14
3006,264,-138,1060,-8,-59,19
3007,340,-110,1020,10,-19,15
3008,159,-7,992,14,36,-2
3009,-154,86,954,4,52,-12
3010,-345,94,911,-12,26,-3
3011,-239,30,987,-21,-27,9
3012,68,-97,1047,-18,-65,15
3013,306,-142,1043,-2,-44,19
3014,284,-74,1002,13,3,10
3015,37,27,957,10,45,-8
3016,-222,103,943,-2,50,-9
3017,-333,77,944,-17,6,2
3018,-150,-15,1019,-23,-43,11
3019,162,-128,1050,-13,-62,19
3020,316,-134,1009,3,-29,18
3021,237,-31,998,17,20,1
3022,-48,62,958,5,51,-11
3023,-302,107,943,-7,40,-7
3024,-314,57,966,-23,-16,6
3025,-59,-67,1014,-21,-54,14
3026,275,-145,1049,-8,-56,21
3027,335,-105,1013,13,-13,14
3028,143,5,998,13,39,-5
3029,-168,94,957,5,49,-11
3030,-364,89,909,-18,25,-1
3031,-228,21,992,-22,-34,9
3032,95,-104,1037,-18,-64,16
3033,329,-148,1047,-1,-43,20
3034,283,-58,1014,17,5,6
3035,7,39,960,8,50,-10
3036,-256,96,933,-5,45,-10
3037,-334,77,944,-17,4,2
3038,-119,-28,1027,-23,-47,13
3039,202,-135,1058,-14,-64,20
3040,318,-126,1012,9,-23,16
3041,205,-27,983,12,22,0
3042,-82,68,952,12,53,-11
3043,-310,98,940,-17,35,-6
3044,-286,50,976,-12,-19,6
3045,-23,-72,1032,-26,-55,15
3046,273,-149,1037,-4,-54,20
3047,324,-91,1003,12,-8,12
3048,119,15,991,13,39,-5
3049,-176,92,951,2,50,-11
3050,-357,90,928,-18,19,0
3051,-216,14,994,-20,-39,11
3052,110,-119,1029,-23,-61,17
3053,335,-140,1049,3,-40,18
3054,278,-51,1007,15,12,7
3055,-8,45,971,8,51,-9
3056,-285,104,933,-6,43,-10
3057,-334,65,933,-20,0,4
3058,-96,-43,1028,-23,-54,14
3059,237,-135,1058,-9,-61,18
3060,330,-122,1016,8,-21,15
3061,178,-15,989,14,27,-2
3062,-124,75,944,6,55,-12
3063,-319,97,933,-13,28,-5
3064,-259,43,984,-18,-24,9
3065,18,-86,1044,-23,-60,16
3066,285,-150,1032,-4,-51,19
3067,302,-80,1005,13,-2,11
3068,83,11,968,11,41,-6
3069,-190,97,950,1,52,-10
3070,-347,94,941,-16,13,2
3071,-193,-4,998,-23,-40,10
3072,128,-121,1043,-18,-61,16
3073,331,-135,1025,5,-39,18
3074,268,-49,1003,13,18,5
3075,-20,54,975,9,50,-9
3076,-296,103,931,-6,42,-8
3077,-337,61,947,-19,-5,4
3078,-83,-54,1016,-22,-56,13
3079,261,-136,1054,-9,-58,20
3080,340,-115,1025,8,-21,15
3081,160,-4,994,16,34,-3
3082,-148,78,946,3,52,-12
3083,-346,98,918,-12,28,-3
3084,-242,37,990,-21,-27,7
3085,56,-96,1039,-21,-64,16
3086,302,-143,1047,-2,-45,20
3087,288,-79,1004,12,1,9
3088,44,22,957,10,46,-8
3089,-216,100,949,-2,50,-11
3090,-334,78,941,-16,7,2
3091,-162,-11,1021,-21,-43,13
3092,155,-119,1053,-14,-62,18
3093,319,-139,1002,5,-31,17
3094,247,-36,1001,14,20,2
3095,-41,63,962,9,51,-10
3096,-300,99,936,-11,39,-7
3097,-319,58,971,-17,-13,6
3098,-63,-62,1011,-24,-55,14
3099,269,-143,1048,-7,-57,19
3100,336,-103,1017,9,-14,13
3101,147,3,993,16,38,-2
3102,-168,88,959,0,50,-10
3103,-359,91,908,-14,26,-3
3104,-228,23,987,-21,-33,9
3105,92,-108,1039,-20,-64,18
3106,323,-139,1054,2,-41,18
3107,281,-62,1003,14,5,7
3108,9,37,960,9,49,-8
3109,-249,101,937,-7,47,-10
3110,-328,74,939,-17,3,3
3111,-125,-26,1028,-25,-47,12
3112,195,-132,1059,-11,-62,18
3113,312,-132,1009,4,-24,17
3114,212,-23,991,17,22,2
3115,-78,63,947,4,54,-11
3116,-309,100,948,-9,35,-7
3117,-291,58,973,-16,-22,7
3118,-31,-76,1026,-23,-55,15
3119,273,-144,1045,-6,-56,19
3120,329,-96,1002,12,-9,12
3121,126,5,993,13,40,-5
3122,-178,101,957,1,50,-12
3123,-359,90,920,-14,22,-2
3124,-224,12,987,-23,-36,10
3125,106,-114,1037,-17,-62,16
3126,336,-143,1045,-2,-41,19
3127,280,-58,1007,16,10,6
3128,-4,38,970,8,50,-9
3129,-283,100,931,-4,44,-9
3130,-339,72,936,-18,1,3
3131,-101,-39,1027,-23,-53,13
3132,229,-134,1056,-9,-60,20
3133,327,-116,1021,7,-22,16
3134,186,-18,988,17,26,-1
3135,-115,70,943,3,55,-13
3136,-315,102,939,-10,30,-5
3137,-266,43,981,-20,-22,9
3138,12,-80,1043,-22,-59,15
3139,278,-144,1037,-3,-51,19
3140,303,-89,995,11,-3,11
3141,88,18,981,11,41,-7
3142,-185,96,945,-1,49,-11
3143,-349,85,939,-17,14,0
3144,-200,1,1002,-21,-39,10
3145,125,-120,1039,-17,-60,19
3146,330,-140,1029,2,-39,18
3147,272,-49,1004,15,16,4
3148,-16,57,975,8,50,-10
3149,-298,98,926,-7,43,-8
3150,-334,67,950,-17,-5,5
3151,-86,-52,1015,-24,-55,13
3152,259,-142,1058,-8,-57,20
3153,336,-115,1024,10,-19,15
3154,166,-9,988,15,32,-2
3155,-146,84,952,2,54,-12
3156,-341,94,914,-14,29,-4
3157,-246,34,990,-21,-27,8
3158,54,-92,1049,-19,-64,15
3159,298,-149,1041,-2,-45,19
3160,291,-79,1001,13,2,10
3161,53,26,963,12,45,-7
3162,-214,96,945,-3,52,-12
3163,-336,86,946,-16,7,1
3164,-167,-5,1016,-23,-42,13
3165,148,-132,1047,-18,-62,18
3166,323,-137,1011,6,-34,18
3167,252,-37,1000,15,20,2
3168,-37,54,963,7,51,-10
3169,-302,106,940,-7,41,-7
3170,-321,58,960,-19,-11,6
3171,-66,-59,1012,-24,-55,14
3172,269,-139,1055,-7,-57,19
3173,342,-109,1017,9,-16,14
3174,153,2,995,14,38,-2
3175,-165,89,955,3,52,-12
3176,-356,84,906,-16,26,-3
3177,-233,28,991,-18,-30,10
3178,81,-102,1042,-20,-65,16
3179,319,-147,1047,1,-43,19
3180,282,-63,1006,15,3,8
3181,15,29,955,9,48,-9
3182,-241,100,944,-5,47,-11
3183,-328,80,934,-16,3,2
3184,-131,-22,1029,-21,-46,13
3185,182,-127,1059,-13,-64,18
3186,316,-131,1004,5,-26,18
3187,220,-26,993,14,23,2
3188,-67,65,950,7,54,-12
3189,-300,104,944,-10,36,-7
3190,-300,57,974,-20,-16,7
3191,-39,-72,1022,-25,-54,15
3192,270,-143,1046,-6,-56,18
3193,327,-98,1002,10,-9,13
3194,132,2,997,11,40,-4
3195,-176,90,953,3,50,-11
3196,-363,86,919,-16,22,-2
3197,-226,12,990,-20,-37,9
3198,103,-116,1033,-18,-64,17
3199,335,-140,1049,4,-42,20
3200,282,-55,1008,15,7,6
3201,-4,41,967,10,51,-9
3202,-271,107,931,-3,43,-8
3203,-332,71,933,-19,2,2
3204,-104,-36,1033,-23,-52,12
3205,221,-130,1052,-10,-61,19
3206,320,-123,1016,6,-21,17
3207,190,-20,989,14,25,-1
3208,-106,71,941,7,56,-11
3209,-315,98,942,-14,29,-5
3210,-268,47,988,-16,-23,9
3211,3,-80,1034,-23,-57,16
3212,278,-150,1036,-3,-53,21
3213,309,-85,1003,10,-4,11
3214,100,11,976,12,41,-6
3215,-186,99,955,-1,50,-10
3216,-351,90,935,-16,17,0
3217,-202,0,995,-23,-39,11
3218,122,-117,1036,-19,-62,17
3219,335,-147,1035,3,-39,18
3220,272,-49,1004,15,17,5
3221,-18,59,975,9,51,-9
3222,-297,101,928,-9,43,-10
3223,-338,66,943,-19,-2,4
3224,-87,-44,1022,-23,-56,14
3225,253,-140,1051,-10,-59,19
3226,334,-114,1025,9,-19,15
3227,171,-11,986,14,31,-2
3228,-137,78,949,5,55,-12
3229,-334,95,922,-13,29,-5
3230,-251,38,987,-17,-26,9
3231,44,-88,1045,-22,-63,15
3232,296,-146,1043,0,-46,20
3233,293,-77,999,11,0,9
3234,66,21,965,10,44,-6
3235,-203,101,949,-1,51,-10
3236,-339,81,941,-17,8,0
3237,-173,-8,1013,-20,-40,12
3238,141,-121,1049,-15,-61,17
3239,323,-139,1011,4,-36,17
3240,258,-37,999,14,20,4
3241,-36,62,972,9,50,-10
3242,-299,102,934,-11,41,-8
3243,-328,60,957,-19,-8,6
3244,-76,-60,1012,-25,-56,13
3245,268,-149,1051,-8,-58,17
3246,340,-109,1019,10,-16,13
3247,154,-2,993,14,36,-3
3248,-162,86,952,3,52,-11
3249,-356,97,911,-12,27,-3
3250,-237,26,986,-22,-30,8
3251,78,-99,1045,-18,-66,15
3252,312,-141,1048,0,-43,20
3253,288,-74,1004,13,1,9
3254,25,32,958,10,48,-8
3255,-232,99,936,-3,49,-10
3256,-330,78,946,-18,4,2
3257,-146,-19,1025,-21,-44,12
3258,177,-131,1052,-14,-64,18
3259,314,-127,1011,7,-28,18
3260,228,-33,991,12,21,2
3261,-57,64,958,9,51,-11
3262,-303,105,946,-11,37,-7
3263,-308,52,967,-17,-16,7
3264,-49,-70,1016,-23,-55,14
3265,271,-143,1050,-6,-57,18
3266,334,-105,1006,9,-11,13
3267,141,8,999,13,40,-5
3268,-171,97,957,1,50,-12
3269,-364,89,911,-16,25,-2
3270,-229,20,993,-22,-35,9
3271,100,-112,1035,-20,-64,16
3272,333,-148,1048,-1,-41,21
3273,282,-59,1011,15,7,8
3274,4,43,963,8,52,-10
3275,-264,94,930,-6,46,-9
3276,-337,76,940,-17,1,3
3277,-116,-30,1027,-22,-50,11
3278,212,-136,1053,-12,-63,18
3279,321,-122,1018,8,-25,16
3280,202,-22,984,14,23,0
3281,-90,72,948,7,56,-12
3282,-308,101,941,-11,32,-5
3283,-283,48,978,-19,-20,8
3284,-13,-74,1034,-25,-56,14
3285,277,-147,1040,-7,-55,18
3286,318,-96,998,13,-5,11
3287,117,15,989,11,41,-5
3288,-179,96,953,1,50,-10
3289,-362,88,924,-20,21,-1
3290,-213,9,997,-19,-39,11
3291,112,-122,1033,-19,-62,17
3292,335,-147,1043,2,-40,19
3293,280,-49,1005,16,12,5
3294,-12,48,976,8,49,-9
3295,-287,101,929,-4,44,-9
3296,-338,68,937,-19,-1,5
3297,-94,-43,1023,-22,-55,13
3298,246,-135,1064,-10,-60,20
3299,330,-117,1018,10,-21,15
3300,178,-9,989,14,28,-1
3301,-127,78,947,5,56,-12
3302,-326,97,927,-13,28,-6
3303,-256,44,986,-19,-23,8
3304,28,-87,1043,-22,-60,15
3305,287,-147,1038,-4,-51,20
3306,298,-76,1003,13,-1,10
3307,75,16,968,9,43,-7
3308,-195,95,952,-1,51,-10
3309,-347,87,941,-18,13,2
3310,-190,-10,1000,-21,-40,12
3311,132,-124,1046,-15,-62,16
3312,328,-139,1021,5,-37,18
3313,269,-44,1002,15,17,4
3314,-28,61,978,9,49,-11
3315,-299,101,927,-6,42,-7
3316,-333,65,954,-19,-7,7
3317,-81,-54,1013,-22,-55,13
3318,270,-143,1054,-9,-58,19
3319,338,-109,1025,10,-18,15
3320,162,-4,994,12,35,-2
3321,-153,84,950,3,54,-12
3322,-352,97,915,-15,28,-3
3323,-241,28,985,-20,-27,9
3324,65,-96,1043,-20,-64,15
3325,307,-145,1042,-2,-45,19
3326,289,-76,1005,14,0,8
3327,36,24,959,8,47,-8
3328,-222,104,945,0,49,-11
3329,-334,78,942,-18,6,1
3330,-156,-15,1019,-19,-43,11
3331,162,-125,1055,-16,-64,18
3332,319,-136,1005,6,-31,18
3333,243,-34,997,12,20,2
3334,-44,63,963,10,49,-11
3335,-303,101,938,-10,40,-7
3336,-317,59,971,-16,-13,6
3337,-62,-62,1012,-23,-56,13
3338,271,-146,1044,-8,-57,19
3339,341,-101,1019,12,-15,14
3340,145,1,996,12,38,-5
3341,-165,86,953,3,50,-12
3342,-363,90,908,-16,26,-3
3343,-231,18,988,-19,-34,9
3344,89,-105,1039,-20,-64,17
3345,324,-143,1050,0,-42,19
3346,286,-65,1007,15,3,8
3347,10,40,960,9,50,-8
3348,-254,104,934,-4,47,-10
3349,-329,74,941,-18,3,2
3350,-118,-23,1030,-20,-47,14
3351,197,-131,1054,-13,-62,18
3352,317,-133,1009,5,-24,16
3353,209,-21,992,14,24,0
3354,-81,64,946,6,54,-11
3355,-307,100,947,-10,35,-5
3356,-291,54,973,-18,-19,8
3357,-27,-79,1027,-23,-55,15
3358,275,-151,1043,-4,-55,19
3359,323,-91,1003,13,-7,13
3360,125,7,992,11,40,-5
3361,-177,101,960,4,50,-11
3362,-360,91,916,-17,22,-1
3363,-215,10,993,-22,-38,11
3364,109,-114,1037,-19,-62,17
3365,338,-145,1041,1,-40,19
3366,281,-53,1010,17,11,6
3367,-8,45,971,7,52,-10
3368,-285,101,926,-4,44,-9
3369,-338,71,939,-21,1,3
3370,-102,-43,1028,-23,-53,14
3371,232,-138,1053,-10,-61,18
3372,329,-116,1025,9,-22,17
3373,183,-21,984,14,26,-1
3374,-112,77,947,6,56,-12
3375,-319,99,934,-13,30,-6
3376,-266,45,982,-15,-24,7
3377,12,-79,1044,-20,-59,15
3378,284,-146,1033,-4,-51,20
3379,307,-87,1000,15,-3,11
3380,94,13,977,7,41,-7
3381,-186,100,954,6,51,-10
3382,-352,87,937,-21,14,1
3383,-202,-2,999,-17,-38,11
3384,125,-123,1041,-22,-63,16
3385,329,-143,1029,6,-38,19
3386,272,-47,1004,15,16,4
3387,-17,56,976,10,48,-10
3388,-295,104,926,-8,43,-9
3389,-333,67,950,-17,-4,4
3390,-90,-49,1018,-22,-56,12
3391,262,-138,1053,-10,-58,20
3392,336,-109,1026,7,-18,16
3393,165,-12,983,14,33,-3
3394,-142,84,954,2,55,-12
3395,-343,91,916,-15,28,-4
3396,-246,31,986,-19,-26,8
3397,50,-88,1045,-18,-62,16
3398,298,-152,1040,-2,-46,20
3399,289,-79,1008,14,-1,10
3400,50,28,960,12,43,-7
3401,-208,96,945,-4,49,-10
3402,-334,82,943,-15,6,1
3403,-164,-8,1015,-22,-42,12
3404,154,-125,1050,-13,-63,19
3405,317,-133,1013,4,-32,17
3406,250,-38,997,16,21,4
3407,-40,61,966,6,50,-8
3408,-304,105,941,-7,42,-8
3409,-320,56,960,-21,-12,5
3410,-66,-63,1011,-23,-56,13
3411,271,-140,1053,-9,-57,19
3412,341,-105,1018,11,-16,14
3413,151,1,995,14,38,-4
3414,-164,89,955,2,52,-11
3415,-362,90,908,-14,27,-2
3416,-234,30,988,-20,-31,11
3417,83,-107,1039,-18,-64,15
3418,321,-147,1052,-1,-43,19
3419,287,-64,1010,15,2,9
3420,16,32,958,9,49,-8
3421,-246,98,939,-6,48,-10
3422,-331,80,940,-15,4,4
3423,-136,-20,1027,-25,-46,12
3424,187,-132,1056,-11,-63,18
3425,316,-128,1011,5,-26,17
3426,221,-33,988,17,23,1
3427,-68,64,955,6,52,-11
3428,-306,103,943,-9,37,-6
3429,-299,55,972,-20,-17,6
3430,-39,-70,1024,-22,-54,15
3431,272,-144,1044,-5,-57,19
3432,330,-101,1003,11,-9,11
3433,129,8,998,15,38,-6
3434,-174,94,952,1,49,-12
3435,-363,90,922,-15,23,-1
3436,-226,14,989,-22,-37,10
3437,106,-115,1033,-17,-62,16
3438,335,-138,1052,0,-39,19
3439,282,-57,1006,15,8,7
3440,-1,38,969,5,51,-9
3441,-276,107,930,-4,45,-9
3442,-335,66,932,-20,0,4
3443,-105,-39,1034,-22,-53,12
3444,225,-132,1055,-9,-61,20
3445,325,-126,1016,5,-23,17
3446,188,-17,990,17,27,-1
3447,-109,71,944,3,54,-12
3448,-316,100,940,-9,30,-4
3449,-273,44,981,-21,-23,8
3450,6,-82,1038,-20,-59,15
3451,278,-148,1041,-7,-52,20
3452,308,-87,998,13,-2,11
3453,97,14,979,11,40,-6
3454,-185,99,951,2,51,-11
3455,-352,89,934,-17,17,0
3456,-203,-2,1000,-22,-40,10
3457,123,-122,1040,-18,-62,18
3458,335,-143,1030,3,-37,19
3459,273,-50,1004,16,16,5
3460,-18,57,973,10,49,-10
3461,-298,101,930,-6,43,-9
3462,-338,64,947,-21,-5,4
3463,-83,-50,1015,-21,-56,13
3464,257,-137,1060,-10,-59,20
3465,338,-114,1026,9,-20,15
3466,171,-8,986,16,31,-2
3467,-147,81,948,3,55,-11
3468,-341,97,921,-12,27,-4
3469,-246,39,986,-21,-25,9
3470,51,-93,1044,-22,-62,14
3471,297,-148,1045,-3,-48,19
3472,291,-77,1004,14,0,9
3473,52,21,959,10,43,-8
3474,-210,97,947,0,50,-12
3475,-339,83,942,-15,7,0
3476,-166,-10,1015,-22,-43,11
3477,151,-128,1050,-17,-63,18
3478,323,-139,1012,4,-33,19
3479,255,-32,1003,17,19,3
3480,-36,57,962,8,49,-12
3481,-304,105,939,-6,42,-9
3482,-325,62,961,-19,-12,5
3483,-65,-62,1008,-24,-56,15
3484,268,-140,1053,-8,-55,19
3485,342,-107,1023,10,-17,12
3486,154,-6,991,13,38,-4
3487,-168,89,960,3,52,-11
3488,-362,95,909,-15,26,-2
3489,-235,24,986,-22,-32,8
3490,85,-106,1041,-19,-65,16
3491,321,-143,1049,1,-44,20
3492,285,-67,1007,14,3,8
3493,18,31,958,12,49,-8
3494,-243,102,939,-4,48,-10
3495,-331,78,941,-17,4,3
3496,-135,-23,1029,-24,-47,13
3497,184,-127,1055,-11,-63,18
3498,318,-129,1008,6,-26,16
3499,219,-27,993,15,23,0
3500,-69,64,952,7,52,-11
3501,-302,102,947,-10,37,-6
3502,-300,51,971,-19,-18,7
3503,-38,-72,1026,-23,-55,14
3504,273,-144,1043,-5,-56,18
3505,331,-100,1002,11,-9,12
3506,131,3,995,13,38,-6
3507,-174,97,957,5,50,-12
3508,-365,88,915,-18,22,-1
3509,-223,10,992,-22,-37,9
3510,102,-112,1033,-17,-62,17
3511,334,-143,1048,1,-42,20
3512,281,-56,1008,17,8,6
3513,-1,47,970,8,51,-9
3514,-277,101,928,-6,43,-9
3515,-334,75,939,-19,2,4
3516,-106,-34,1031,-23,-52,13
3517,228,-133,1057,-11,-62,18
3518,325,-124,1018,8,-21,16
3519,189,-17,988,15,27,0
3520,-108,70,943,3,55,-11
3521,-318,96,937,-13,32,-4
3522,-272,46,983,-19,-22,7
3523,7,-85,1038,-23,-59,16
3524,279,-143,1040,-4,-52,20
3525,307,-92,998,11,-2,10
3526,97,13,979,14,40,-5
3527,-190,103,951,2,51,-10
3528,-349,84,935,-15,15,0
3529,-201,4,1003,-20,-41,9
3530,125,-120,1037,-18,-62,17
3531,332,-142,1032,3,-39,18
3532,275,-42,1006,18,15,5
3533,-19,53,973,7,51,-10
3534,-298,99,932,-7,43,-9
3535,-338,66,944,-20,-5,5
3536,-85,-52,1018,-22,-55,15
3537,257,-142,1059,-9,-58,18
3538,336,-111,1026,12,-20,15
3539,169,-4,986,14,33,-1
3540,-148,85,953,2,54,-12
3541,-342,91,916,-14,26,-4
3542,-241,33,985,-20,-26,9
3543,53,-96,1047,-20,-63,16
3544,300,-152,1040,-3,-47,20
3545,289,-77,1006,15,1,9
3546,47,25,959,10,46,-8
3547,-213,94,943,-4,50,-11
3548,-338,88,946,-13,6,1
3549,-166,-9,1012,-23,-43,11
3550,155,-133,1050,-15,-63,17
3551,321,-132,1011,5,-33,16
3552,251,-39,1002,15,20,4
3553,-44,57,963,9,51,-12
3554,-301,105,938,-7,40,-8
3555,-323,55,961,-20,-13,6
3556,-68,-61,1014,-22,-56,14
3557,269,-141,1052,-8,-57,19
3558,340,-106,1017,10,-15,14
3559,150,2,1000,14,38,-4
3560,-166,87,954,2,52,-12
3561,-357,91,909,-15,26,-2
3562,-236,24,991,-21,-32,9
3563,87,-110,1035,-17,-64,14
3564,324,-140,1054,-1,-43,19
3565,284,-67,1009,13,3,8
3566,15,36,961,8,49,-7
3567,-249,103,936,-1,47,-9
3568,-333,76,941,-18,4,3
3569,-130,-27,1026,-22,-47,12
3570,195,-131,1057,-12,-64,18
3571,316,-129,1008,4,-24,18
3572,214,-30,989,14,22,0
3573,-74,68,952,6,53,-11
3574,-305,97,943,-11,35,-5
3575,-297,54,976,-19,-19,7
3576,-30,-72,1027,-22,-56,14
3577,272,-149,1039,-7,-57,20
3578,323,-95,1007,12,-7,12
3579,126,8,989,12,39,-5
3580,-175,97,958,3,50,-10
3581,-360,90,923,-16,22,-2
3582,-218,9,988,-21,-39,9
3583,108,-117,1032,-18,-63,17
3584,336,-140,1050,1,-42,20
3585,279,-53,1004,17,10,6
3586,-7,46,970,8,51,-10
3587,-282,102,930,-6,43,-8
3588,-338,70,937,-19,0,4
3589,-99,-46,1026,-24,-53,12
3590,238,-136,1061,-9,-61,18
3591,325,-123,1018,8,-20,16
3592,184,-14,986,15,27,-1
3593,-119,78,947,2,56,-11
3594,-324,96,931,-12,29,-6
3595,-260,48,983,-18,-24,9
3596,21,-86,1043,-20,-61,15
3597,284,-152,1040,-4,-51,18
3598,304,-81,997,14,0,11
3599,87,19,977,10,42,-6
3600,-192,98,946,1,50,-11
3601,-351,94,940,-16,13,0
3602,-195,-2,999,-21,-41,10
3603,131,-125,1044,-19,-62,18
3604,332,-141,1023,2,-37,18
3605,272,-46,1004,12,18,4
3606,-24,57,978,7,50,-10
3607,-302,103,924,-8,44,-9
3608,-338,64,950,-19,-6,5
3609,-84,-54,1017,-24,-56,14
3610,265,-148,1054,-7,-59,18
3611,341,-110,1025,9,-19,15
3612,169,-7,992,16,33,-1
3613,-151,84,950,2,54,-10
3614,-347,104,915,-12,28,-3
3615,-242,32,986,-22,-27,9
3616,60,-93,1045,-20,-63,15
3617,305,-143,1045,-2,-47,20
3618,292,-79,1003,11,1,9
3619,41,25,961,11,47,-7
3620,-219,98,942,-5,50,-11
3621,-337,79,942,-15,6,2
3622,-163,-13,1016,-23,-42,11
3623,158,-130,1052,-12,-64,17
3624,321,-136,1008,2,-30,17
3625,244,-37,1001,15,21,3
3626,-42,63,961,8,50,-11
3627,-301,104,939,-7,39,-7
3628,-319,62,970,-18,-13,7
3629,-61,-65,1014,-22,-55,13
3630,269,-145,1046,-9,-58,19
3631,340,-104,1017,11,-14,14
3632,149,2,998,15,38,-3
3633,-167,91,953,1,51,-11
3634,-364,92,911,-15,27,-2
3635,-232,15,989,-24,-34,9
3636,93,-105,1036,-16,-64,16
3637,327,-144,1055,-2,-42,20
3638,282,-64,1008,14,4,6
3639,11,38,960,9,50,-8
3640,-257,100,936,-5,47,-9
3641,-334,74,942,-17,2,2
3642,-123,-23,1027,-23,-48,12
3643,200,-132,1055,-13,-64,19
3644,317,-132,1011,6,-24,16
3645,209,-26,988,15,24,2
3646,-83,71,951,6,53,-10
3647,-310,100,945,-13,35,-6
3648,-290,52,972,-19,-19,8
3649,-27,-77,1027,-22,-56,15
3650,275,-153,1044,-8,-55,19
3651,324,-96,1002,14,-6,12
3652,123,9,989,11,39,-6
3653,-178,99,955,4,51,-11
3654,-363,89,921,-16,20,-2
3655,-219,13,993,-20,-39,11
3656,111,-114,1034,-19,-61,17
3657,338,-144,1045,3,-42,19
3658,282,-51,1008,16,10,6
3659,-7,48,971,9,53,-9
3660,-285,101,929,-7,45,-9
3661,-338,70,937,-17,-1,4
3662,-98,-45,1024,-23,-52,14
3663,235,-138,1058,-9,-60,19
3664,326,-118,1024,8,-22,16
3665,183,-18,982,15,27,0
3666,-120,73,949,4,56,-12
3667,-324,99,933,-13,29,-5
3668,-263,41,979,-17,-22,9
3669,16,-85,1046,-23,-60,14
3670,283,-145,1037,-1,-51,17
3671,306,-85,997,12,-2,10
3672,86,17,976,12,41,-6
3673,-192,98,951,1,52,-11
3674,-348,86,935,-16,14,1
3675,-199,0,1000,-23,-41,12
3676,128,-124,1041,-18,-62,17
3677,334,-141,1025,1,-37,20
3678,271,-44,1004,17,17,5
3679,-18,55,977,6,49,-10
3680,-298,109,929,-5,44,-7
3681,-335,67,943,-21,-5,6
3682,-83,-54,1020,-23,-55,13
3683,264,-139,1055,-9,-56,19
3684,339,-110,1025,9,-19,15
3685,163,-5,992,14,35,-1
3686,-151,83,949,0,56,-12
3687,-345,91,915,-13,27,-4
3688,-249,33,987,-22,-25,8
3689,60,-94,1042,-20,-63,13
3690,306,-147,1042,-2,-46,19
3691,293,-76,1006,10,2,10
3692,46,27,964,11,45,-7
3693,-218,95,939,-4,49,-11
3694,-340,75,942,-15,7,3
3695,-167,-14,1013,-21,-43,13
3696,154,-133,1049,-13,-65,18
3697,321,-135,1012,6,-33,18
3698,253,-33,1000,18,19,3
3699,-39,69,967,9,47,-11
3700,-304,111,938,-7,41,-7
3701,-319,67,964,-20,-12,6
3702,-62,-55,1013,-25,-56,14
3703,272,-140,1054,-10,-55,19
3704,343,-108,1018,8,-13,14
3705,151,1,997,10,39,-2
3706,-165,87,955,0,54,-10
3707,-370,82,908,-18,28,-2
3708,-244,18,986,-21,-32,8
3709,82,-114,1037,-19,-65,15
3710,324,-155,1048,-1,-45,20
3711,284,-69,1011,18,1,10
3712,17,33,956,15,47,-8
3713,-247,100,940,4,44,-9
3714,-332,82,937,-14,1,2
3715,-124,-16,1030,-17,-47,13
3716,192,-119,1062,-13,-66,17
3717,320,-123,1012,4,-24,17
3718,221,-21,985,15,23,-1
3719,-70,73,953,0,52,-9
3720,-309,100,942,-10,38,-5
3721,-298,54,975,-25,-17,7
3722,-37,-80,1024,-22,-55,14
3723,270,-155,1038,-13,-55,20
3724,328,-99,1009,16,-8,14
3725,125,8,994,11,37,-4
3726,-181,89,953,4,50,-12
3727,-365,87,922,-14,21,-2
3728,-224,14,987,-18,-40,11
3729,104,-118,1036,-17,-63,16
3730,337,-140,1051,5,-44,18
3731,285,-54,1008,19,7,6
3732,-1,47,971,9,52,-9
3733,-276,105,926,-4,41,-9
3734,-334,78,937,-18,0,5
3735,-103,-31,1034,-24,-50,12
3736,228,-132,1055,-10,-61,18
3737,326,-121,1017,5,-22,16
3738,189,-19,987,13,28,0
3739,-110,71,946,3,56,-11
3740,-319,97,937,-14,32,-6
3741,-273,43,980,-19,-21,8
3742,4,-91,1036,-25,-59,15
3743,277,-149,1040,-1,-53,19
3744,309,-91,1001,13,-3,11
3745,97,13,980,14,40,-8
3746,-185,102,952,3,48,-11
3747,-348,92,930,-13,16,1
3748,-208,8,1004,-22,-41,11
3749,122,-120,1039,-17,-63,15
3750,340,-138,1032,2,-38,19
3751,275,-46,1006,15,16,4
3752,-13,51,976,6,50,-10
3753,-298,105,929,-7,46,-9
3754,-339,63,946,-22,-3,4
3755,-90,-53,1017,-22,-54,13
3756,253,-137,1052,-11,-57,19
3757,338,-116,1027,9,-21,15
3758,168,-7,992,14,31,-3
3759,-144,79,950,4,54,-11
3760,-340,92,915,-14,25,-4
3761,-251,35,987,-18,-25,8
3762,48,-94,1044,-20,-63,15
3763,297,-140,1045,1,-48,19
3764,294,-74,998,13,1,7
3765,60,26,963,10,44,-7
3766,-205,107,947,-1,50,-10
3767,-337,79,943,-20,9,1
3768,-172,-9,1013,-19,-41,12
3769,145,-125,1048,-18,-64,18
3770,322,-146,1009,5,-32,19
3771,253,-38,1003,15,19,4
3772,-37,58,964,9,48,-10
3773,-306,103,937,-8,41,-8
3774,-327,62,960,-18,-13,5
3775,-68,-62,1008,-21,-58,14
3776,269,-140,1055,-9,-57,19
3777,343,-106,1020,13,-19,13
3778,159,0,994,13,36,-3
3779,-162,88,957,3,53,-10
3780,-360,95,911,-16,25,-4
3781,-232,25,989,-21,-30,9
3782,78,-100,1039,-19,-64,14
3783,318,-143,1049,0,-45,19
3784,285,-70,1004,13,3,8
3785,19,32,959,9,49,-8
3786,-240,96,939,-4,46,-10
3787,-331,78,941,-15,5,2
3788,-134,-21,1026,-24,-44,13
3789,184,-131,1058,-12,-64,18
3790,314,-125,1008,6,-25,16
3791,223,-28,986,14,22,0
3792,-71,62,953,6,51,-12
3793,-302,106,946,-10,37,-6
3794,-293,51,968,-20,-17,8
3795,-36,-74,1025,-23,-55,14
3796,273,-142,1044,-5,-54,20
3797,326,-101,1003,11,-9,12
3798,128,4,996,12,38,-5
3799,-178,94,954,4,51,-12
3800,-364,84,916,-17,22,-1
3801,-221,11,994,-22,-39,11
3802,105,-113,1037,-17,-61,16
3803,333,-144,1044,0,-43,19
3804,283,-55,1009,18,8,4
3805,-4,47,969,9,52,-11
3806,-276,104,927,-4,42,-11
3807,-332,76,941,-20,0,4
3808,-104,-34,1030,-22,-49,13
3809,229,-133,1056,-13,-61,19
3810,327,-121,1018,7,-20,17
3811,183,-21,986,13,28,-2
3812,-111,72,946,4,55,-12
3813,-319,97,939,-12,30,-5
3814,-272,38,979,-21,-21,10
3815,6,-84,1041,-20,-59,16
3816,279,-148,1037,-3,-53,20
3817,306,-92,998,13,-2,11
3818,95,18,981,14,39,-6
3819,-187,99,949,2,51,-11
3820,-348,90,937,-15,14,0
3821,-200,6,1002,-23,-41,11
3822,128,-116,1039,-18,-59,17
3823,337,-141,1030,1,-38,18
3824,274,-43,1005,18,16,3
3825,-18,49,971,3,51,-9
3826,-299,106,936,-6,44,-7
3827,-340,60,940,-23,-5,5
3828,-84,-55,1016,-22,-56,13
3829,255,-139,1056,-10,-57,20
3830,337,-121,1023,10,-20,15
3831,164,-6,991,17,33,-3
3832,-148,86,953,4,54,-12
3833,-340,91,915,-14,27,-4
3834,-243,41,988,-18,-25,9
3835,54,-89,1047,-23,-63,16
3836,298,-148,1041,-3,-47,21
3837,292,-76,1000,12,3,9
3838,52,26,963,11,45,-6
3839,-212,96,948,-4,50,-11
3840,-338,83,944,-15,9,0
3841,-168,-12,1013,-23,-43,12
3842,150,-130,1050,-15,-63,17
3843,322,-135,1008,6,-31,17
3844,250,-40,1000,15,19,3
3845,-40,55,967,10,50,-10
3846,-303,104,936,-6,41,-8
3847,-322,60,961,-20,-15,5
3848,-65,-59,1017,-22,-56,13
3849,269,-146,1050,-8,-56,19
3850,341,-104,1020,12,-17,13
3851,152,1,996,15,37,-3
3852,-165,85,949,2,52,-12
3853,-357,93,913,-15,25,-3
3854,-232,26,990,-23,-32,10
3855,81,-106,1037,-20,-63,15
3856,324,-144,1050,-1,-44,20
3857,282,-66,1007,14,6,8
3858,12,29,957,8,50,-8
3859,-246,96,941,-5,46,-10
3860,-333,75,937,-15,5,4
3861,-133,-25,1027,-24,-47,13
3862,193,-132,1059,-9,-64,19
3863,315,-129,1006,5,-24,16
3864,216,-27,990,16,22,0
3865,-73,70,953,7,52,-11
3866,-304,101,942,-8,37,-6
3867,-294,54,974,-19,-18,7
3868,-34,-69,1030,-23,-56,14
3869,276,-146,1040,-8,-53,18
3870,329,-92,1005,11,-8,12
3871,129,6,994,12,39,-5
3872,-172,94,956,2,52,-11
3873,-364,88,922,-15,21,-2
3874,-222,5,991,-24,-39,8
3875,105,-115,1032,-15,-61,17
3876,334,-144,1049,0,-43,19
3877,279,-61,1004,19,10,6
3878,-4,47,972,9,50,-9
3879,-278,100,929,-3,41,-9
3880,-333,67,936,-18,1,4
3881,-100,-35,1030,-20,-53,13
3882,233,-131,1057,-12,-63,19
3883,326,-125,1020,8,-20,15
3884,185,-14,986,14,26,-1
3885,-115,79,944,5,55,-12
3886,-319,96,936,-16,31,-6
3887,-266,47,986,-19,-22,8
3888,13,-86,1038,-24,-60,15
3889,280,-150,1038,-4,-51,18
3890,306,-90,999,12,-2,9
3891,89,13,979,11,40,-5
3892,-189,102,953,2,52,-10
3893,-350,86,934,-16,15,0
3894,-198,0,1003,-20,-41,11
3895,128,-124,1039,-18,-60,17
3896,329,-143,1027,4,-40,17
3897,271,-44,1004,18,17,4
3898,-17,57,975,7,51,-9
3899,-300,101,928,-6,43,-8
3900,-331,68,954,-20,-6,5
3901,-82,-51,1012,-23,-54,14
3902,260,-141,1057,-11,-59,20
3903,337,-111,1026,9,-19,16
3904,163,-6,991,12,35,-1
3905,-151,79,953,0,54,-11
3906,-343,94,918,-13,28,-4
3907,-246,33,985,-21,-24,10
3908,57,-99,1045,-21,-64,17
3909,301,-147,1041,-2,-46,19
3910,290,-80,1001,12,1,9
3911,50,27,966,13,44,-6
3912,-215,100,943,-2,51,-10
3913,-335,81,943,-17,7,2
3914,-163,-7,1018,-20,-44,12
3915,152,-130,1050,-15,-62,18
3916,322,-134,1010,5,-33,17
3917,251,-32,997,14,19,3
3918,-42,60,967,6,51,-11
3919,-300,103,937,-7,41,-8
3920,-324,62,964,-22,-13,6
3921,-70,-65,1012,-25,-53,13
3922,272,-144,1053,-8,-57,19
3923,338,-108,1013,13,-16,14
3924,148,-3,995,14,39,-2
3925,-166,88,957,4,50,-12
3926,-358,90,906,-14,24,-2
3927,-233,18,990,-21,-31,11
3928,85,-101,1043,-16,-65,15
3929,321,-141,1047,0,-44,19
3930,285,-66,1007,14,4,7
3931,19,34,957,11,49,-8
3932,-241,102,938,-2,46,-9
3933,-329,81,945,-18,5,3
3934,-128,-23,1025,-23,-46,12
3935,185,-128,1057,-14,-63,18
3936,316,-129,1011,4,-24,17
3937,215,-32,989,14,23,0
3938,-74,66,953,5,54,-11
3939,-307,99,943,-10,37,-6
3940,-301,50,974,-19,-20,6
3941,-38,-77,1019,-21,-57,15
3942,278,-148,1045,-6,-57,21
3943,328,-99,1003,14,-11,12
3944,130,11,996,14,39,-6
3945,-176,95,951,4,51,-11
3946,-365,94,917,-16,22,-2
3947,-222,20,994,-21,-37,10
3948,108,-109,1033,-18,-60,16
3949,337,-145,1051,-2,-42,19
3950,286,-57,1009,17,9,7
3951,0,38,963,7,52,-8
3952,-277,105,936,-4,44,-9
3953,-337,71,935,-19,2,2
3954,-105,-38,1028,-22,-52,14
3955,220,-129,1060,-11,-62,19
3956,323,-123,1015,7,-21,15
3957,193,-19,982,12,25,-1
3958,-108,78,951,6,54,-10
3959,-315,98,939,-15,34,-6
3960,-270,47,977,-18,-22,8
3961,0,-75,1040,-23,-58,15
3962,279,-151,1037,-6,-52,18
3963,309,-91,1000,12,-3,11
3964,99,13,982,12,39,-5
3965,-186,88,949,1,51,-12
3966,-353,89,935,-13,16,-1
3967,-206,3,995,-22,-40,11
3968,121,-121,1037,-17,-60,16
3969,334,-137,1035,3,-42,18
3970,275,-48,1002,18,13,4
3971,-18,52,978,9,50,-10
3972,-292,105,927,-2,42,-9
3973,-333,70,943,-20,-3,6
3974,-86,-44,1022,-22,-55,13
3975,253,-139,1054,-11,-60,19
3976,337,-115,1023,7,-19,14
3977,171,-10,991,13,32,-2
3978,-138,76,947,2,56,-11
3979,-336,97,924,-14,29,-3
3980,-252,37,986,-21,-23,8
3981,40,-93,1046,-21,-63,15
3982,292,-147,1039,-3,-48,19
3983,292,-79,1002,14,0,10
3984,62,14,962,9,42,-8
3985,-203,98,952,0,53,-11
3986,-343,89,945,-15,10,1
3987,-182,-9,1007,-24,-42,14
3988,142,-118,1048,-13,-61,17
3989,325,-136,1013,1,-36,18
3990,263,-47,1001,16,18,3
3991,-30,63,975,9,50,-10
3992,-302,104,929,-6,41,-6
3993,-332,63,956,-22,-9,6
3994,-77,-50,1017,-21,-54,12
3995,267,-146,1050,-11,-58,19
3996,341,-110,1023,10,-19,15
3997,158,-1,992,13,37,-3
3998,-156,84,953,1,52,-12
3999,-355,92,914,-14,27,-4
4000,-239,28,988,-22,-28,9
4001,69,-101,1040,-19,-65,16
4002,311,-144,1050,-3,-45,20
4003,285,-78,1002,14,2,8
4004,32,26,958,10,46,-9
4005,-227,101,944,-1,48,-12
4006,-333,75,940,-16,6,1
4007,-152,-11,1025,-20,-45,11
4008,170,-126,1052,-12,-63,17
4009,315,-134,1009,3,-28,17
4010,238,-30,994,17,20,2
4011,-49,62,957,6,51,-10
4012,-306,105,947,-10,41,-7
4013,-310,56,964,-20,-16,5
4014,-54,-66,1015,-22,-53,13
4015,272,-147,1047,-10,-56,19
4016,336,-103,1012,11,-13,13
4017,144,4,997,13,40,-4
4018,-174,88,957,0,50,-11
4019,-365,91,912,-13,24,-3
4020,-232,21,986,-21,-33,11
4021,95,-109,1034,-18,-64,17
4022,329,-144,1051,-1,-43,19
4023,284,-64,1009,15,6,6
4024,4,42,962,11,51,-10
4025,-255,97,932,-5,45,-10
4026,-331,81,941,-15,3,4
4027,-122,-21,1031,-24,-48,13
4028,202,-138,1053,-13,-63,18
4029,318,-126,1011,6,-23,16
4030,209,-25,985,16,23,2
4031,-83,68,951,5,54,-11
4032,-309,101,948,-10,35,-7
4033,-290,47,972,-19,-20,8
4034,-30,-71,1031,-24,-56,15
4035,275,-147,1039,-7,-55,18
4036,329,-99,1003,14,-8,11
4037,125,10,995,13,40,-6
4038,-176,96,958,3,51,-11
4039,-364,87,914,-17,21,-1
4040,-223,19,998,-21,-39,12
4041,108,-117,1031,-20,-61,16
4042,338,-142,1049,1,-43,18
4043,283,-56,1006,18,10,6
4044,-3,44,971,6,51,-9
4045,-282,103,932,-5,44,-9
4046,-333,71,935,-20,2,5
4047,-105,-38,1029,-22,-51,13
4048,228,-136,1058,-10,-63,19
4049,325,-120,1018,8,-22,16
4050,183,-20,985,15,26,-1
4051,-110,74,948,4,52,-12
4052,-315,99,936,-9,30,-6
4053,-268,44,983,-16,-22,6
4054,8,-78,1042,-22,-60,15
4055,278,-144,1034,-1,-52,19
4056,308,-91,999,5,-2,10
4057,97,14,984,19,40,-7
4058,-189,96,951,-5,51,-10
4059,-351,84,932,-12,15,0
4060,-205,6,1001,-24,-42,10
4061,124,-120,1035,-14,-60,18
4062,337,-144,1033,0,-39,19
4063,273,-46,1008,18,14,4
4064,-16,46,970,6,50,-10
4065,-297,105,933,-5,42,-7
4066,-339,74,945,-19,-3,5
4067,-84,-49,1020,-27,-56,12
4068,256,-135,1058,-6,-58,20
4069,334,-119,1022,6,-20,16
4070,173,-10,989,17,32,-2
4071,-137,81,947,1,55,-11
4072,-336,91,921,-13,28,-4
4073,-256,45,989,-20,-23,9
4074,37,-90,1042,-23,-63,15
4075,293,-152,1038,-3,-48,19
4076,297,-77,1003,14,0,10
4077,67,17,968,9,42,-6
4078,-198,94,949,-1,51,-10
4079,-344,86,945,-15,11,2
4080,-184,-8,1004,-22,-43,13
4081,137,-121,1045,-15,-63,18
4082,328,-134,1019,3,-36,17
4083,265,-42,1000,15,17,3
4084,-26,65,977,9,49,-11
4085,-299,104,933,-6,42,-8
4086,-329,63,952,-20,-9,6
4087,-75,-49,1020,-21,-55,15
4088,263,-142,1052,-13,-57,19
4089,341,-115,1021,11,-19,14
4090,161,-1,996,15,36,-2
4091,-155,78,950,2,54,-11
4092,-353,94,916,-11,27,-3
4093,-243,33,988,-20,-27,8
4094,66,-106,1038,-21,-65,15
4095,310,-142,1049,0,-45,19
4096,284,-72,1003,15,1,10
4097,39,21,954,9,45,-9
4098,-218,104,948,0,50,-11
4099,-333,81,941,-18,6,3
4100,-156,-15,1020,-21,-43,12
4101,155,-121,1053,-14,-64,17
4102,320,-138,1005,4,-32,18
4103,242,-33,997,15,21,3
4104,-46,63,963,7,50,-11
4105,-302,100,941,-9,40,-8
4106,-319,60,965,-18,-14,6
4107,-61,-66,1012,-23,-55,15
4108,269,-146,1052,-9,-56,19
4109,342,-105,1016,13,-16,13
4110,147,1,996,14,38,-5
4111,-168,89,957,2,51,-12
4112,-357,92,908,-15,25,-3
4113,-231,22,991,-21,-33,9
4114,88,-104,1042,-18,-64,15
4115,323,-143,1048,0,-43,19
4116,283,-68,1006,15,3,8
4117,13,34,961,11,50,-9
4118,-245,105,938,-3,46,-11
4119,-331,76,942,-17,3,2
4120,-129,-19,1032,-23,-46,12
4121,188,-131,1051,-13,-65,19
4122,320,-136,1005,3,-25,17
4123,218,-24,995,17,23,0
4124,-69,61,949,4,52,-12
4125,-304,102,948,-10,37,-6
4126,-304,59,973,-17,-17,8
4127,-39,-74,1021,-25,-56,15
4128,272,-145,1042,-6,-56,19
4129,332,-102,1007,11,-10,12
4130,136,5,1001,13,39,-5
4131,-172,96,951,3,50,-10
4132,-367,89,914,-15,24,-2
4133,-226,19,994,-21,-36,10
4134,100,-107,1035,-17,-61,17
4135,334,-149,1049,-2,-42,19
4136,288,-57,1011,18,7,7
4137,1,42,963,10,52,-8
4138,-269,97,931,-6,45,-10
4139,-334,74,940,-15,2,3
4140,-112,-29,1026,-24,-50,13
4141,209,-133,1057,-12,-64,20
4142,320,-127,1018,6,-23,16
4143,197,-24,978,14,24,1
4144,-96,69,949,5,54,-10
4145,-310,101,946,-10,33,-6
4146,-277,47,971,-16,-21,7
4147,-12,-74,1039,-23,-58,14
4148,273,-145,1039,-5,-54,18
4149,320,-97,997,11,-6,11
4150,113,15,992,14,39,-5
4151,-179,93,951,0,50,-11
4152,-357,90,927,-15,19,-1
4153,-215,10,994,-22,-39,11
4154,112,-124,1034,-19,-61,16
4155,337,-141,1043,1,-40,19
4156,281,-51,1004,18,12,6
4157,-8,44,976,6,51,-10
4158,-285,104,930,-3,44,-10
4159,-334,69,937,-19,-2,4
4160,-97,-44,1023,-21,-54,13
4161,236,-135,1060,-8,-60,18
4162,330,-119,1014,6,-21,14
4163,181,-15,989,15,28,0
4164,-120,75,949,3,56,-11
4165,-322,95,932,-11,29,-5
4166,-265,44,986,-21,-22,7
4167,17,-85,1040,-21,-59,14
4168,282,-152,1036,-5,-52,20
4169,304,-84,1000,13,-2,11
4170,90,15,976,11,40,-6
4171,-189,97,950,0,51,-11
4172,-349,93,939,-14,13,0
4173,-199,0,999,-23,-41,11
4174,123,-118,1040,-17,-61,16
4175,336,-141,1027,2,-38,19
4176,273,-47,1006,14,16,4
4177,-18,54,975,9,50,-11
4178,-292,103,931,-7,43,-8
4179,-337,64,947,-21,-4,6
4180,-86,-55,1016,-23,-56,12
4181,257,-134,1054,-9,-59,18
4182,337,-117,1027,6,-20,14
4183,167,-9,987,15,32,-3
4184,-141,81,949,3,55,-11
4185,-339,91,918,-14,28,-5
4186,-247,42,989,-20,-25,8
4187,45,-94,1043,-20,-64,15
4188,296,-149,1040,-4,-48,19
4189,290,-75,1002,14,0,10
4190,63,17,963,10,42,-8
4191,-205,104,952,-1,50,-12
4192,-339,82,940,-17,9,0
4193,-176,-4,1011,-23,-41,11
4194,143,-122,1048,-15,-62,18
4195,322,-145,1014,1,-35,17
4196,259,-38,1004,16,20,2
4197,-30,58,970,7,50,-10
4198,-303,96,935,-7,43,-7
4199,-331,64,960,-17,-10,6
4200,-74,-59,1007,-24,-56,14
4201,267,-144,1055,-8,-56,19
4202,341,-110,1022,10,-18,13
4203,160,0,994,17,37,-2
4204,-160,84,951,0,53,-11
4205,-352,97,916,-11,26,-2
4206,-239,32,984,-23,-28,8
4207,75,-101,1046,-18,-65,15
4208,313,-144,1049,-3,-44,19
4209,287,-74,1000,14,2,8
4210,35,30,960,8,49,-8
4211,-228,99,943,-1,49,-10
4212,-335,77,942,-18,6,1
4213,-151,-11,1025,-20,-43,12
4214,164,-132,1049,-15,-65,16
4215,322,-139,1007,5,-29,17
4216,239,-29,996,16,19,3
4217,-53,59,960,6,49,-11
4218,-303,105,945,-7,41,-8
4219,-317,62,962,-19,-15,5
4220,-56,-68,1019,-23,-56,14
4221,272,-142,1051,-7,-57,19
4222,338,-101,1010,14,-14,13
4223,147,5,1001,11,39,-4
4224,-168,91,954,4,53,-11
4225,-363,97,909,-16,24,-2
4226,-230,21,993,-23,-32,11
4227,90,-107,1037,-19,-63,17
4228,327,-146,1048,-1,-43,20
4229,284,-67,1012,15,4,8
4230,9,36,962,9,51,-9
4231,-253,97,931,-5,46,-11
4232,-334,79,938,-16,3,3
4233,-128,-30,1027,-22,-48,14
4234,196,-133,1059,-11,-64,18
4235,318,-126,1011,7,-25,18
4236,217,-28,988,14,23,0
4237,-73,71,951,9,52,-12
4238,-306,108,946,-10,37,-6
4239,-296,51,975,-19,-18,7
4240,-33,-69,1025,-23,-56,13
4241,276,-145,1044,-7,-55,18
4242,332,-105,1001,9,-8,12
4243,132,10,1000,13,39,-5
4244,-178,96,953,1,52,-10
4245,-366,82,916,-17,23,-1
4246,-226,17,996,-22,-39,9
4247,104,-117,1029,-17,-61,17
4248,336,-146,1049,1,-42,19
4249,282,-54,1011,20,7,7
4250,-5,42,968,8,52,-9
4251,-275,104,933,-2,44,-11
4252,-333,74,933,-18,0,3
4253,-106,-36,1030,-22,-52,14
4254,225,-128,1060,-11,-63,19
4255,323,-126,1014,7,-22,17
4256,193,-17,989,14,26,0
4257,-102,69,945,4,54,-11
4258,-317,97,939,-13,32,-5
4259,-276,52,985,-18,-21,7
4260,-1,-83,1029,-22,-59,15
4261,278,-150,1038,-5,-52,20
4262,314,-90,1002,12,-3,12
4263,108,13,987,13,40,-5
4264,-188,98,950,1,52,-9
4265,-357,89,932,-15,17,1
4266,-209,9,996,-20,-41,12
4267,117,-124,1033,-18,-60,16
4268,339,-141,1043,2,-39,19
4269,281,-52,1003,16,14,6
4270,-15,52,979,8,51,-9
4271,-293,105,929,-5,44,-9
4272,-340,66,939,-20,-3,4
4273,-94,-40,1027,-21,-54,13
4274,248,-143,1053,-12,-59,18
4275,331,-119,1021,10,-22,16
4276,178,-13,991,14,31,0
4277,-131,72,948,2,56,-11
4278,-332,98,923,-10,28,-5
4279,-259,44,986,-19,-24,8
4280,28,-91,1043,-21,-62,15
4281,289,-146,1039,-3,-50,19
4282,301,-81,1002,12,0,11
4283,77,12,966,11,42,-7
4284,-195,101,953,1,51,-11
4285,-345,90,939,-16,13,1
4286,-194,-3,1004,-22,-41,11
4287,133,-118,1046,-17,-63,17
4288,330,-138,1018,2,-37,19
4289,267,-48,1003,13,18,4
4290,-21,59,977,11,50,-10
4291,-299,101,927,-9,44,-9
4292,-336,65,953,-20,-8,5
4293,-84,-57,1013,-24,-55,13
4294,261,-145,1051,-8,-57,19
4295,340,-112,1028,9,-21,15
4296,158,-5,994,16,33,-3
4297,-153,82,949,3,54,-13
4298,-346,95,916,-13,25,-4
4299,-244,32,986,-19,-27,9
4300,63,-96,1045,-18,-64,15
4301,308,-142,1048,0,-47,20
4302,288,-77,1000,10,2,9
4303,46,27,962,12,46,-8
4304,-217,104,945,-4,50,-8
4305,-339,77,941,-18,7,1
4306,-160,-10,1018,-20,-42,11
4307,157,-122,1051,-14,-64,18
4308,321,-144,1009,2,-32,18
4309,246,-35,1001,18,21,2
4310,-44,60,961,7,50,-11
4311,-304,102,941,-6,42,-7
4312,-323,59,963,-19,-13,5
4313,-66,-64,1012,-21,-57,14
4314,272,-142,1051,-9,-56,19
4315,340,-104,1018,12,-15,14
4316,154,-2,995,14,37,-4
4317,-164,93,960,3,53,-11
4318,-362,94,906,-14,27,-3
4319,-235,29,991,-23,-32,8
4320,86,-102,1040,-20,-62,16
4321,321,-147,1048,-3,-43,20
4322,284,-70,1007,15,4,7
4323,16,33,960,11,51,-9
4324,-247,96,936,-5,47,-10
4325,-333,74,938,-16,3,3
4326,-131,-19,1028,-19,-46,12
4327,186,-134,1054,-13,-65,20
4328,316,-129,1010,7,-27,18
4329,221,-27,989,15,22,1
4330,-68,64,954,7,52,-9
4331,-306,109,948,-9,36,-6
4332,-298,61,969,-19,-18,7
4333,-39,-70,1021,-25,-56,15
4334,272,-140,1050,-7,-56,19
4335,331,-100,1004,12,-9,12
4336,133,3,995,10,38,-5
4337,-176,92,960,2,51,-11
4338,-364,85,912,-18,24,-1
4339,-228,18,991,-20,-37,9
4340,104,-121,1034,-19,-61,16
4341,335,-148,1050,3,-41,19
4342,282,-55,1006,17,7,6
4343,-1,42,968,7,52,-10
4344,-272,101,930,-5,46,-10
4345,-331,81,940,-14,1,4
4346,-110,-37,1027,-25,-51,12
4347,220,-133,1059,-9,-63,19
4348,322,-120,1014,6,-23,17
4349,197,-25,985,14,27,1
4350,-99,75,949,4,56,-10
4351,-313,103,941,-11,32,-5
4352,-281,49,977,-20,-20,7
4353,-9,-76,1039,-22,-57,15
4354,278,-152,1034,-7,-56,19
4355,317,-92,998,14,-2,11
4356,109,12,990,11,41,-6
4357,-183,95,949,3,50,-12
4358,-361,92,932,-16,19,-1
4359,-219,10,993,-21,-40,9
4360,114,-115,1036,-19,-61,16
4361,337,-143,1043,0,-41,19
4362,281,-55,1004,16,12,5
4363,-11,50,976,8,50,-9
4364,-288,101,928,-7,44,-8
4365,-340,65,936,-19,-2,4
4366,-94,-44,1028,-21,-55,11
4367,246,-139,1056,-10,-60,19
4368,331,-116,1022,9,-22,15
4369,173,-7,991,15,29,-2
4370,-125,79,944,3,56,-13
4371,-328,96,928,-13,29,-4
4372,-256,45,989,-17,-23,8
4373,31,-88,1041,-22,-61,15
4374,287,-150,1037,-5,-50,19
4375,299,-83,1003,11,0,10
4376,73,19,967,12,43,-6
4377,-197,97,950,-2,52,-9
4378,-348,85,944,-15,12,1
4379,-192,-6,999,-21,-41,13
4380,135,-124,1044,-15,-63,18
4381,330,-146,1022,4,-36,19
4382,268,-45,1002,18,17,5
4383,-26,58,978,9,49,-10
4384,-304,106,933,-5,42,-9
4385,-335,63,946,-20,-8,5
4386,-76,-48,1017,-21,-57,14
4387,266,-145,1052,-11,-58,19
4388,343,-113,1024,14,-20,13
4389,162,0,993,17,34,-3
4390,-154,78,949,-1,55,-11
4391,-348,98,919,-8,27,-4
4392,-245,37,984,-27,-28,8
4393,63,-100,1045,-15,-64,15
4394,305,-144,1047,-7,-45,20
4395,290,-79,1001,18,2,10
4396,43,24,958,6,46,-8
4397,-219,106,952,1,50,-11
4398,-336,78,939,-19,7,1
4399,-162,-14,1013,-21,-42,13
4400,154,-125,1057,-17,-63,18
4401,319,-140,1004,2,-32,17
4402,251,-34,998,17,21,4
4403,-44,64,968,7,50,-10
4404,-303,99,931,-8,41,-8
4405,-322,64,967,-19,-12,7
4406,-68,-65,1009,-25,-55,14
4407,270,-144,1053,-8,-58,18
4408,345,-98,1021,10,-14,14
4409,153,-3,991,12,38,-4
4410,-166,94,962,2,52,-12
4411,-362,90,904,-15,27,-1
4412,-234,17,987,-22,-33,10
4413,84,-107,1042,-18,-64,16
4414,323,-148,1047,2,-43,20
4415,284,-71,1004,16,2,8
4416,15,35,963,13,48,-9
4417,-246,105,935,0,46,-10
4418,-332,80,939,-16,1,3
4419,-131,-15,1031,-20,-48,12
4420,190,-128,1054,-15,-65,18
4421,320,-130,1006,5,-27,17
4422,223,-29,993,13,23,0
4423,-67,64,952,7,52,-12
4424,-306,107,948,-10,36,-5
4425,-302,52,972,-20,-15,7
4426,-44,-73,1023,-23,-54,15
4427,273,-142,1045,-6,-56,18
4428,331,-107,1005,10,-9,13
4429,132,8,1000,13,39,-5
4430,-175,96,954,3,49,-12
4431,-368,84,915,-18,24,-2
4432,-228,14,993,-22,-37,10
4433,103,-114,1034,-17,-64,16
4434,335,-147,1049,0,-42,19
4435,286,-58,1010,19,6,6
4436,-2,43,964,9,50,-8
4437,-273,104,929,-3,44,-9
4438,-333,76,938,-17,1,3
4439,-108,-32,1028,-21,-51,12
4440,221,-128,1060,-12,-62,18
4441,325,-124,1015,6,-22,16
4442,198,-18,987,14,25,0
4443,-99,71,946,3,57,-11
4444,-313,99,944,-13,34,-7
4445,-279,49,976,-19,-20,7
4446,-7,-81,1034,-24,-55,16
4447,274,-146,1039,-7,-52,19
4448,312,-98,997,10,-4,11
4449,104,10,989,12,39,-5
4450,-186,88,951,2,50,-10
4451,-355,82,927,-15,16,-1
4452,-211,11,996,-19,-40,10
4453,115,-126,1034,-18,-63,16
4454,336,-140,1039,4,-42,18
4455,277,-43,1003,20,12,6
4456,-9,48,977,8,49,-9
4457,-290,109,930,-4,43,-10
4458,-331,71,940,-22,-3,4
4459,-87,-41,1026,-24,-55,14
4460,245,-135,1058,-11,-58,18
4461,333,-120,1018,7,-21,15
4462,174,-14,987,13,30,-1
4463,-136,77,950,3,57,-11
4464,-333,90,921,-14,27,-5
4465,-257,40,988,-19,-24,8
4466,34,-96,1041,-24,-61,17
4467,289,-149,1039,0,-51,20
4468,296,-79,1003,14,-2,9
4469,75,15,965,12,41,-8
4470,-197,100,950,0,50,-12
4471,-339,95,943,-14,9,0
4472,-182,-4,1004,-21,-40,11
