sequence,AccelerometerX,AccelerometerY,AccelerometerZ,GyroscopeX,GyroscopeY,GyroscopeZ
0,-146,71,981,-13,19,0
1,-140,27,1001,-27,-2,-4
2,-40,-62,992,-35,-22,-9
3,92,-106,994,-18,-22,-11
4,162,-100,1000,-8,-8,-10
5,95,-37,1005,3,16,-4
6,-19,37,1007,-1,25,-2
7,-141,72,990,-15,19,0
8,-145,30,993,-29,-2,-6
9,-62,-52,997,-33,-16,-9
10,83,-99,997,-23,-22,-10
11,153,-102,994,-10,-11,-10
12,113,-47,998,2,10,-4
13,-6,31,1005,2,25,-1
14,-125,71,997,-13,21,-1
15,-154,34,1000,-25,2,-3
16,-83,-40,981,-33,-19,-8
17,70,-100,1005,-26,-26,-12
18,142,-103,1002,-10,-13,-10
19,126,-58,996,-1,8,-5
20,13,27,1001,2,24,-3
21,-119,70,996,-11,23,2
22,-151,45,1004,-24,3,-3
23,-98,-30,983,-32,-13,-7
24,50,-91,995,-28,-25,-10
25,136,-117,1009,-16,-13,-11
26,134,-68,998,-1,4,-7
27,31,19,992,2,21,-2
28,-102,68,1001,-6,23,0
29,-158,50,995,-22,8,-1
30,-107,-12,990,-32,-12,-7
31,33,-91,1002,-27,-24,-11
32,124,-116,997,-16,-17,-10
33,148,-75,997,-1,2,-7
34,47,11,1003,1,21,-2
35,-87,59,1008,-6,25,1
36,-160,57,982,-20,10,-1
37,-114,-2,989,-32,-12,-6
38,15,-87,1005,-29,-25,-10
39,116,-119,997,-15,-19,-11
40,154,-81,999,-3,-1,-8
41,61,-2,1003,5,21,-4
42,-68,56,1009,-3,26,0
43,-157,65,980,-21,11,-2
44,-127,12,990,-31,-9,-5
45,-9,-79,1003,-32,-23,-10
46,111,-112,994,-19,-20,-11
47,157,-91,1003,-5,-3,-9
48,71,-12,1001,4,17,-4
49,-56,47,1009,-1,25,-2
50,-149,69,985,-15,15,0
51,-140,21,998,-29,-5,-3
52,-23,-63,992,-33,-23,-10
53,97,-113,996,-20,-21,-10
54,161,-94,994,-6,-7,-10
55,82,-32,1011,3,16,-4
56,-35,45,1008,-1,25,-1
57,-145,67,985,-14,18,1
58,-143,29,995,-27,-2,-5
59,-46,-62,999,-33,-22,-11
60,92,-102,993,-22,-23,-13
61,152,-103,995,-10,-7,-9
62,101,-34,1002,2,12,-4
63,-21,32,1010,0,24,-1
64,-134,74,989,-11,19,0
65,-147,32,997,-25,0,-4
66,-63,-47,991,-32,-19,-9
67,80,-101,999,-26,-22,-10
68,148,-104,998,-10,-10,-10
69,115,-53,995,2,9,-6
70,2,31,1007,3,24,-3
71,-126,72,996,-11,23,1
72,-151,39,1005,-24,2,-3
73,-86,-37,980,-33,-18,-8
74,61,-93,998,-26,-26,-11
75,144,-111,1006,-13,-13,-11
76,125,-60,997,-1,8,-5
77,23,24,995,1,23,-3
78,-111,70,1002,-7,24,1
79,-158,49,996,-24,5,-2
80,-93,-27,991,-32,-14,-8
81,42,-90,1000,-26,-25,-11
82,132,-115,1002,-16,-16,-10
83,144,-71,1000,1,4,-9
84,35,15,995,4,21,-3
85,-96,69,1004,-6,24,-1
86,-161,55,995,-22,10,-2
87,-108,-4,986,-33,-11,-7
88,29,-91,1007,-30,-25,-11
89,116,-117,998,-16,-17,-10
90,152,-77,998,-1,0,-6
91,53,5,1001,4,22,-3
92,-82,57,1010,-4,25,0
93,-154,65,978,-19,10,-3
94,-123,5,989,-31,-9,-5
95,7,-80,1007,-32,-24,-10
96,114,-120,1000,-20,-19,-10
97,154,-85,994,-2,-1,-8
98,66,-7,1006,4,18,-4
99,-62,50,1008,-2,25,-1
100,-152,66,979,-17,13,0
101,-132,17,1000,-29,-7,-5
102,-15,-71,995,-32,-22,-11
103,107,-113,994,-22,-19,-11
104,155,-93,998,-5,-5,-9
105,75,-23,1007,3,18,-3
106,-41,43,1010,-1,25,-2
107,-149,70,983,-14,17,-1
108,-137,26,996,-28,-5,-5
109,-37,-62,996,-34,-23,-10
110,95,-105,992,-23,-22,-12
111,158,-101,996,-9,-6,-10
112,93,-33,1005,1,16,-4
113,-28,38,1009,0,25,-1
114,-140,73,987,-13,18,0
115,-145,31,999,-26,-2,-3
116,-59,-56,992,-32,-19,-9
117,85,-103,999,-24,-23,-11
118,155,-105,995,-10,-9,-10
119,108,-43,999,3,12,-5
120,-9,36,1004,0,24,-2
121,-131,73,998,-12,21,0
122,-150,35,997,-27,2,-3
123,-75,-41,988,-32,-18,-9
124,68,-99,998,-25,-26,-10
125,144,-108,1000,-11,-12,-10
126,126,-55,996,0,9,-5
127,8,29,997,2,24,-2
128,-119,73,1000,-9,22,1
129,-154,39,1002,-24,3,-3
130,-91,-31,985,-31,-15,-7
131,54,-95,997,-25,-23,-11
132,136,-114,1005,-13,-13,-11
133,132,-67,996,1,7,-6
134,29,21,994,3,22,-4
135,-104,66,1001,-8,24,0
136,-156,50,996,-22,7,-3
137,-104,-10,992,-33,-12,-8
138,37,-90,1001,-29,-24,-10
139,121,-118,998,-15,-17,-11
140,145,-73,995,-1,2,-7
141,43,6,1004,3,22,-4
142,-86,57,1004,-7,25,-1
143,-156,58,986,-19,10,-3
144,-113,0,987,-31,-11,-6
145,15,-84,1011,-29,-24,-10
146,115,-113,995,-18,-17,-10
147,151,-79,998,-5,2,-8
148,60,-2,1001,3,21,-4
149,-71,49,1007,-3,24,0
150,-150,63,980,-17,12,-3
151,-127,11,991,-28,-8,-5
152,-3,-73,1002,-30,-23,-10
153,109,-113,999,-22,-20,-11
154,151,-85,997,-4,-4,-8
155,72,-13,1002,4,18,-4
156,-51,44,1011,-1,25,-1
157,-151,68,980,-17,14,1
158,-132,16,998,-28,-5,-4
159,-31,-66,996,-31,-21,-9
160,101,-110,992,-20,-22,-10
161,153,-93,1000,-6,-6,-9
162,86,-26,1008,3,15,-4
163,-32,42,1010,0,25,-3
164,-144,68,982,-15,17,0
165,-143,26,998,-26,-3,-4
166,-46,-60,995,-31,-21,-10
167,90,-107,997,-24,-22,-12
168,152,-99,993,-8,-9,-10
169,100,-37,1003,2,13,-4
170,-12,34,1009,0,24,-1
171,-133,73,990,-13,20,2
172,-144,35,999,-25,1,-4
173,-69,-48,990,-33,-18,-8
174,76,-100,1003,-25,-24,-11
175,148,-108,996,-10,-12,-10
176,115,-55,994,2,8,-5
177,4,31,1003,2,23,-1
178,-124,77,1000,-9,22,1
179,-147,41,1001,-26,2,-2
180,-88,-36,982,-31,-17,-7
181,57,-94,1000,-26,-25,-11
182,142,-112,1007,-12,-13,-11
183,126,-65,999,0,7,-6
184,22,23,991,3,23,-4
185,-113,69,999,-8,23,-1
186,-153,48,998,-23,5,-2
187,-96,-21,990,-33,-13,-6
188,39,-90,997,-28,-24,-11
189,129,-116,1001,-15,-15,-10
190,141,-70,996,0,4,-7
191,39,12,1000,3,23,-4
192,-96,61,998,-8,25,-1
193,-154,56,993,-21,10,-1
194,-111,-8,989,-30,-10,-7
195,20,-86,1005,-30,-26,-11
196,121,-117,995,-16,-19,-11
197,147,-77,996,-2,1,-8
198,57,3,1002,3,21,-3
199,-80,55,1010,-4,26,1
200,-153,68,980,-19,12,-2
201,-121,3,991,-30,-10,-6
202,5,-81,1005,-32,-25,-10
203,110,-117,998,-19,-20,-11
204,152,-82,999,-5,-3,-8
205,65,-10,1006,3,18,-3
206,-61,54,1003,-2,24,0
207,-151,63,985,-18,14,1
208,-134,13,991,-30,-7,-5
209,-15,-74,999,-30,-24,-11
210,104,-111,994,-20,-21,-12
211,158,-88,999,-5,-5,-8
212,80,-18,1005,3,17,-3
213,-46,43,1008,-3,26,-2
214,-146,69,982,-16,16,0
215,-139,22,1002,-28,-5,-4
216,-38,-64,990,-32,-23,-9
217,95,-109,997,-21,-22,-11
218,153,-99,995,-9,-7,-9
219,92,-31,1007,1,15,-3
220,-25,40,1008,1,24,-1
221,-142,74,986,-13,18,0
222,-142,29,994,-26,-3,-5
223,-58,-56,993,-33,-19,-8
224,85,-103,1003,-24,-24,-11
225,155,-104,996,-9,-12,-10
226,105,-40,995,2,9,-4
227,-6,39,1011,1,23,-3
228,-131,73,998,-12,20,0
229,-148,36,995,-25,2,-3
230,-76,-46,989,-32,-17,-8
231,71,-97,999,-24,-25,-11
232,147,-109,999,-10,-13,-10
233,124,-56,997,1,10,-5
234,13,25,999,1,24,-2
235,-121,73,1000,-11,23,1
236,-152,42,1001,-24,4,-4
237,-95,-27,982,-32,-17,-7
238,55,-92,1000,-25,-25,-10
239,134,-115,1002,-13,-14,-10
240,133,-66,1001,0,4,-6
241,28,16,989,2,21,-3
242,-106,67,1004,-7,23,0
243,-156,47,995,-21,6,-3
244,-105,-9,990,-32,-13,-7
245,42,-91,1004,-28,-26,-11
246,123,-116,997,-16,-17,-11
247,144,-72,996,0,2,-7
248,49,7,1005,2,21,-3
249,-91,61,1001,-5,24,0
250,-158,58,983,-21,9,-1
251,-115,0,991,-31,-11,-6
252,18,-84,1003,-30,-24,-9
253,120,-120,999,-17,-19,-11
254,149,-82,996,-4,-1,-8
255,58,-3,1000,3,19,-3
256,-73,55,1010,-3,24,-1
257,-156,64,978,-17,10,-1
258,-123,10,992,-29,-10,-6
259,-1,-78,1003,-30,-23,-10
260,105,-112,998,-19,-19,-10
261,156,-87,1000,-6,-4,-9
262,67,-13,1005,3,17,-2
263,-54,46,1005,-2,24,0
264,-149,67,984,-16,14,-1
265,-133,21,998,-30,-5,-5
266,-26,-71,991,-31,-24,-10
267,101,-110,993,-21,-23,-11
268,155,-96,998,-7,-7,-8
269,82,-22,1008,2,15,-3
270,-35,40,1014,-1,25,-1
271,-144,73,980,-12,18,-1
272,-141,27,997,-28,-5,-4
273,-43,-60,994,-32,-23,-9
274,90,-106,997,-23,-23,-10
275,158,-103,996,-10,-9,-9
276,102,-37,1002,2,14,-4
277,-20,40,1006,1,24,-2
278,-135,73,995,-13,19,0
279,-147,29,994,-25,-1,-4
280,-62,-48,990,-31,-18,-10
281,79,-106,1002,-26,-24,-11
282,151,-105,995,-11,-12,-9
283,117,-50,995,2,10,-5
284,-3,33,1003,3,24,-2
285,-127,73,997,-10,22,0
286,-150,38,1002,-26,2,-4
287,-84,-38,980,-33,-18,-9
288,63,-92,1000,-25,-25,-10
289,145,-115,1004,-13,-13,-9
290,129,-60,998,1,8,-5
291,18,25,996,3,23,-2
292,-115,73,997,-8,22,1
293,-157,46,1000,-24,5,-3
294,-95,-25,987,-33,-15,-8
295,44,-95,998,-27,-24,-10
296,137,-116,1001,-14,-16,-11
297,132,-71,1000,-1,5,-7
298,39,20,999,4,21,-4
299,-103,61,1003,-6,25,1
300,-155,58,991,-21,8,-1
301,-106,-10,992,-33,-13,-7
302,28,-88,1005,-30,-25,-11
303,123,-118,997,-17,-16,-10
304,145,-77,999,0,2,-8
305,52,-1,1000,3,21,-3
306,-84,60,1013,-3,24,0
307,-155,60,977,-20,10,0
308,-118,4,992,-31,-9,-6
309,11,-80,1004,-29,-24,-10
310,112,-113,1002,-19,-18,-11
311,156,-82,999,-5,-1,-8
312,60,-9,1004,3,19,-3
313,-58,52,1007,-3,25,-1
314,-152,62,980,-17,13,0
315,-130,15,990,-31,-7,-5
316,-13,-74,1002,-30,-23,-10
317,105,-112,995,-20,-21,-12
318,159,-89,998,-6,-5,-10
319,77,-18,1009,4,18,-3
320,-47,45,1006,-3,25,1
321,-147,67,985,-17,16,0
322,-136,20,999,-29,-6,-4
323,-32,-67,991,-32,-23,-11
324,97,-109,997,-21,-22,-12
325,160,-94,995,-7,-6,-10
326,90,-27,1011,2,16,-5
327,-28,41,1008,0,23,-2
328,-143,71,984,-12,18,-1
329,-140,28,995,-26,-2,-5
330,-53,-55,995,-33,-19,-8
331,89,-103,998,-23,-23,-11
332,151,-106,996,-10,-9,-10
333,104,-41,998,4,12,-4
334,-9,37,1008,0,25,-2
335,-132,72,996,-12,20,1
336,-147,34,995,-27,1,-3
337,-75,-43,986,-33,-18,-9
338,69,-99,1003,-24,-24,-12
339,146,-108,997,-10,-11,-10
340,116,-57,998,2,10,-5
341,9,27,999,3,25,-2
342,-119,69,1003,-9,23,0
343,-154,44,998,-24,4,-3
344,-92,-32,981,-33,-14,-7
345,57,-94,1000,-33,-25,-9
346,135,-115,1001,-15,-14,-10
347,134,-65,1002,2,6,-7
348,27,17,992,3,24,-3
349,-105,71,998,-7,23,0
350,-154,48,997,-20,7,-3
351,-106,-12,996,-33,-13,-7
352,41,-92,997,-29,-25,-11
353,123,-118,1002,-14,-15,-10
354,148,-74,994,1,2,-7
355,42,10,1002,4,22,-3
356,-90,60,1004,-6,24,-1
357,-157,57,988,-19,10,-2
358,-106,1,987,-32,-11,-7
359,19,-85,1005,-30,-25,-9
360,119,-114,1002,-16,-19,-11
361,147,-82,995,-3,1,-8
362,58,0,1001,2,21,-3
363,-72,50,1012,-5,25,1
364,-154,67,977,-20,11,-1
365,-123,7,988,-29,-9,-4
366,0,-77,1006,-30,-23,-10
367,107,-114,996,-20,-19,-9
368,158,-88,1002,-4,-4,-9
369,66,-12,1003,3,18,-2
370,-51,50,1007,-3,25,0
371,-152,65,983,-16,15,0
372,-134,18,998,-29,-5,-5
373,-23,-71,991,-33,-22,-10
374,104,-110,995,-21,-22,-11
375,158,-92,998,-5,-7,-8
376,83,-24,1009,2,16,-4
377,-39,43,1009,0,26,0
378,-144,71,985,-16,18,0
379,-140,26,995,-28,-3,-4
380,-45,-60,996,-32,-21,-9
381,94,-108,994,-22,-23,-10
382,153,-99,996,-8,-8,-9
383,97,-36,1004,2,12,-5
384,-18,42,1010,1,24,-3
385,-137,72,988,-15,20,0
386,-147,31,997,-26,-1,-3
387,-62,-52,991,-33,-19,-8
388,79,-104,998,-26,-24,-9
389,152,-105,997,-10,-10,-9
390,110,-49,999,1,10,-4
391,0,33,1001,3,23,-2
392,-126,73,1003,-10,21,1
393,-153,39,996,-26,3,-3
394,-77,-41,981,-33,-18,-9
395,65,-95,1002,-24,-25,-11
396,143,-110,998,-11,-12,-10
397,128,-63,1004,0,7,-6
398,14,27,991,2,24,-2
399,-113,71,1000,-8,23,0
400,-156,46,1000,-24,5,-4
401,-97,-23,983,-32,-16,-8
402,45,-93,1001,-26,-25,-12
403,133,-115,1005,-15,-15,-10
404,140,-73,995,-1,4,-7
405,33,15,1000,3,22,-4
406,-101,65,999,-7,23,0
407,-160,52,994,-20,7,-2
408,-105,-7,990,-33,-12,-8
409,27,-90,1001,-29,-23,-12
410,119,-117,1001,-16,-17,-11
411,148,-77,997,-1,1,-9
412,47,6,1000,2,22,-2
413,-84,59,1010,-5,25,0
414,-159,59,981,-21,12,-1
415,-115,3,988,-31,-9,-5
416,11,-84,1009,-31,-24,-10
417,114,-115,998,-19,-18,-11
418,156,-82,996,-3,-1,-8
419,60,-3,1003,5,20,-4
420,-62,55,1009,-1,25,0
421,-151,64,981,-18,14,-1
422,-129,11,989,-31,-7,-5
423,-8,-77,1002,-31,-23,-10
424,108,-114,995,-21,-21,-10
425,157,-91,999,-5,-5,-8
426,77,-11,1006,3,16,-4
427,-49,43,1007,-2,25,0
428,-146,74,985,-15,16,-1
429,-137,19,999,-31,-5,-4
430,-30,-61,991,-33,-22,-10
431,100,-116,994,-21,-22,-11
432,154,-96,995,-6,-6,-11
433,88,-28,1008,2,17,-4
434,-28,43,1010,0,25,-2
435,-143,69,982,-14,18,0
436,-146,32,998,-27,-3,-4
437,-51,-58,996,-32,-19,-10
438,91,-103,997,-22,-23,-11
439,151,-105,993,-9,-8,-10
440,105,-41,998,2,13,-6
441,-13,35,1011,1,24,-1
442,-134,75,992,-12,20,0
443,-143,33,999,-25,0,-4
444,-72,-46,986,-33,-18,-7
445,76,-97,1001,-25,-24,-10
446,148,-110,1000,-11,-11,-9
447,118,-54,992,1,11,-5
448,4,25,1004,1,25,-3
449,-127,74,1002,-11,23,1
450,-153,41,998,-24,3,-3
451,-83,-31,984,-32,-16,-8
452,57,-94,1000,-25,-23,-11
453,143,-113,1003,-13,-14,-11
454,129,-65,1001,-1,7,-7
455,20,24,992,3,22,-3
456,-110,70,999,-9,22,2
457,-154,46,1001,-22,5,-2
458,-98,-20,988,-32,-15,-6
459,42,-92,999,-27,-25,-12
460,130,-116,1003,-15,-15,-12
461,141,-72,992,0,3,-7
462,38,15,999,3,21,-3
463,-97,60,1003,-6,22,0
464,-158,51,989,-22,8,-2
465,-108,-8,988,-31,-12,-7
466,23,-86,1011,-29,-25,-10
467,119,-115,994,-14,-17,-12
468,148,-77,996,-1,2,-7
469,53,5,1005,2,21,-2
470,-75,54,1007,-5,24,-1
471,-156,60,980,-20,12,-1
472,-125,7,988,-31,-10,-4
473,4,-80,1006,-29,-24,-11
474,110,-117,999,-17,-19,-11
475,154,-81,999,-3,-2,-8
476,66,-9,1000,2,18,-4
477,-58,52,1012,-4,25,-2
478,-149,66,980,-19,14,-1
479,-132,13,994,-31,-6,-6
480,-15,-76,998,-33,-22,-10
481,102,-114,993,-20,-22,-11
482,151,-91,999,-5,-4,-9
483,79,-19,1008,4,16,-4
484,-41,47,1009,-2,24,-2
485,-145,69,979,-15,17,-1
486,-138,26,1005,-27,-4,-5
487,-37,-66,988,-34,-21,-9
488,95,-109,995,-20,-22,-10
489,155,-100,997,-8,-7,-10
490,93,-34,1002,3,15,-5
491,-21,42,1012,1,24,-1
492,-141,77,986,-14,19,1
493,-142,33,996,-28,-3,-5
494,-55,-57,993,-34,-19,-9
495,81,-104,1000,-26,-24,-11
496,154,-105,994,-10,-11,-10
497,105,-48,1000,3,10,-4
498,-7,38,1005,2,23,-1
499,-128,72,1000,-13,21,-1
500,-148,39,1000,-25,2,-3
501,-77,-40,983,-32,-18,-7
502,71,-97,1006,-25,-24,-11
503,144,-108,999,-13,-12,-9
504,124,-60,998,2,9,-6
505,13,23,998,2,25,-3
506,-119,71,997,-10,23,1
507,-151,48,1002,-25,4,-4
508,-95,-27,982,-31,-15,-7
509,57,-88,999,-26,-25,-10
510,135,-116,1009,-16,-12,-9
511,132,-69,998,-1,7,-5
512,32,16,995,3,23,-2
513,-104,62,998,-7,24,-1
514,-157,49,997,-20,7,-1
515,-103,-11,988,-31,-13,-7
516,34,-87,1005,-28,-25,-11
517,126,-112,998,-15,-17,-10
518,146,-71,1000,-1,3,-7
519,45,4,999,4,22,-3
520,-90,56,1005,-5,25,-1
521,-157,56,983,-20,11,-1
522,-115,-2,986,-31,-11,-6
523,15,-80,1008,-31,-26,-10
524,117,-116,998,-19,-17,-11
525,153,-79,997,-4,-1,-9
526,60,-4,1000,2,20,-3
527,-71,54,1012,-3,25,0
528,-150,63,981,-18,12,-1
529,-128,10,992,-30,-7,-5
530,-5,-76,1000,-29,-23,-12
531,108,-110,999,-19,-19,-11
532,156,-86,998,-7,-5,-9
533,73,-15,1004,3,17,-4
534,-49,46,1009,-3,25,-1
535,-150,69,982,-17,15,0
536,-134,19,999,-28,-5,-5
537,-30,-70,992,-32,-23,-10
538,101,-110,992,-20,-22,-11
539,155,-98,999,-6,-6,-10
540,85,-24,1007,2,16,-4
541,-26,39,1009,0,25,-1
542,-146,71,986,-15,17,1
543,-141,27,993,-26,-4,-4
544,-45,-58,1000,-33,-20,-9
545,81,-102,991,-23,-22,-10
546,155,-100,998,-10,-8,-10
547,104,-42,1005,2,13,-4
548,-18,36,1003,0,24,-1
549,-130,75,995,-12,21,0
550,-152,33,1000,-26,1,-3
551,-68,-44,985,-33,-18,-9
552,74,-103,1006,-25,-23,-11
553,146,-107,990,-12,-12,-10
554,121,-52,999,2,10,-5
555,0,28,999,0,24,-3
556,-123,73,1003,-11,22,0
557,-148,36,1001,-25,4,-4
558,-95,-31,979,-34,-17,-8
559,66,-94,1000,-26,-25,-11
560,138,-112,1008,-13,-12,-11
561,128,-64,995,-1,7,-5
562,19,21,998,3,23,-4
563,-109,72,997,-9,22,0
564,-158,45,999,-24,5,-2
565,-96,-17,991,-32,-14,-8
566,43,-94,1000,-29,-25,-10
567,130,-108,1000,-13,-15,-11
568,142,-73,1003,-2,5,-7
569,39,15,996,4,23,-2
570,-96,59,1002,-6,24,0
571,-160,53,991,-21,10,-3
572,-108,-6,993,-32,-12,-8
573,25,-83,1003,-30,-24,-12
574,122,-116,1000,-16,-18,-12
575,153,-81,996,-1,0,-8
576,52,1,1002,3,21,-3
577,-77,54,1013,-3,26,0
578,-156,60,979,-19,12,-2
579,-123,6,987,-30,-9,-6
580,8,-81,1009,-30,-23,-11
581,113,-115,1001,-19,-18,-10
582,155,-83,996,-5,-1,-8
583,64,-8,1007,3,19,-3
584,-62,54,1003,-1,24,-1
585,-154,66,984,-18,13,-1
586,-130,15,994,-29,-7,-6
587,-14,-75,997,-29,-24,-11
588,110,-112,999,-21,-22,-11
589,156,-92,998,-5,-5,-8
590,76,-15,1006,3,17,-3
591,-42,44,1011,-2,26,0
592,-149,69,982,-15,16,1
593,-137,20,995,-28,-6,-5
594,-33,-62,997,-32,-22,-10
595,97,-106,993,-23,-22,-11
596,157,-102,998,-8,-5,-9
597,88,-32,1004,5,16,-3
598,-26,41,1008,1,25,-1
599,-140,72,987,-13,19,0
600,-145,30,994,-26,-2,-3
601,-51,-53,995,-32,-20,-10
602,84,-103,1000,-24,-22,-10
603,156,-103,991,-9,-10,-9
604,107,-44,1002,0,11,-5
605,-13,31,1009,1,23,-3
606,-131,76,994,-13,20,2
607,-149,36,995,-26,1,-4
608,-76,-42,991,-32,-18,-8
609,75,-98,999,-25,-24,-10
610,145,-111,999,-11,-12,-10
611,119,-57,996,1,9,-5
612,11,27,999,2,25,-4
613,-124,74,1000,-10,23,1
614,-152,42,998,-24,4,-3
615,-91,-32,989,-33,-15,-8
616,59,-92,994,-25,-25,-11
617,140,-110,1008,-14,-13,-10
618,134,-70,998,-3,7,-5
619,21,22,991,3,24,-2
620,-105,65,1000,-7,23,-1
621,-161,44,999,-23,6,-2
622,-98,-16,989,-30,-12,-8
623,42,-89,1004,-29,-23,-10
624,126,-112,999,-15,-15,-10
625,144,-69,1001,0,2,-7
626,42,10,1000,3,22,-3
627,-94,61,997,-8,25,2
628,-156,53,993,-21,10,-2
629,-114,-7,988,-31,-10,-7
630,24,-83,1003,-29,-25,-10
631,118,-115,1001,-16,-18,-11
632,153,-73,996,-4,0,-8
633,60,0,1005,1,22,-3
634,-78,57,1008,-5,26,2
635,-158,59,979,-21,11,-1
636,-125,5,990,-29,-9,-6
637,1,-83,1005,-32,-23,-9
638,116,-118,1001,-18,-19,-10
639,157,-84,997,-5,-2,-8
640,69,-6,1004,2,19,-3
641,-62,56,1009,-1,24,0
642,-155,69,981,-19,15,-1
643,-134,13,994,-31,-6,-6
644,-16,-76,996,-31,-22,-11
645,105,-117,995,-20,-22,-10
646,159,-89,1000,-3,-5,-8
647,81,-20,1007,3,16,-3
648,-43,53,1009,-2,25,-2
649,-148,72,983,-15,16,0
650,-142,25,998,-30,-4,-6
651,-40,-69,995,-35,-21,-9
652,98,-111,991,-22,-22,-11
653,155,-104,998,-7,-7,-10
654,94,-33,1007,3,16,-4
655,-22,43,1010,0,24,-2
656,-141,79,987,-14,20,0
657,-144,35,993,-27,-2,-4
658,-54,-55,996,-33,-20,-9
659,83,-106,997,-24,-23,-11
660,152,-109,997,-10,-10,-9
661,108,-48,998,3,10,-5
662,-8,34,1007,1,24,-2
663,-131,78,994,-12,21,0
664,-150,38,1001,-24,3,-4
665,-70,-42,988,-33,-18,-9
666,67,-98,1003,-25,-25,-11
667,153,-108,998,-12,-13,-10
668,117,-61,999,0,11,-5
669,9,28,996,1,24,-2
670,-127,69,1003,-9,24,2
671,-152,46,999,-24,3,-3
672,-92,-31,985,-33,-15,-7
673,61,-87,995,-25,-25,-11
674,139,-115,1007,-15,-12,-10
675,137,-62,1000,-1,7,-8
676,26,17,992,3,23,-1
677,-109,69,1000,-6,24,-1
678,-161,43,998,-24,7,-3
679,-101,-17,987,-26,-13,-10
680,38,-92,1005,-41,-31,-11
681,130,-115,998,-20,-20,-11
682,147,-72,1001,-1,4,-6
683,46,15,999,3,22,-3
684,-96,64,1006,-8,24,1
685,-161,56,985,-22,10,-1
686,-117,-5,991,-33,-12,-7
687,22,-91,999,-30,-26,-11
688,118,-119,1002,-16,-18,-10
689,155,-78,994,-1,0,-6
690,54,4,1004,4,22,-2
691,-77,58,1008,-3,25,0
692,-160,64,981,-19,12,-1
693,-120,7,987,-32,-9,-6
694,-3,-80,1009,-30,-25,-9
695,116,-118,994,-19,-20,-11
696,152,-90,1000,-3,-1,-9
697,67,-7,998,5,19,-3
698,-60,50,1010,0,25,-1
699,-151,72,980,-17,14,-1
700,-133,16,994,-30,-7,-4
701,-15,-71,999,-30,-22,-10
702,104,-115,992,-22,-21,-11
703,157,-92,1001,-5,-5,-8
704,80,-22,1009,3,18,-4
705,-42,44,1007,-1,26,-1
706,-147,73,985,-15,17,1
707,-140,25,998,-29,-4,-5
708,-37,-62,993,-33,-22,-8
709,100,-112,993,-21,-23,-10
710,154,-98,996,-7,-8,-8
711,92,-35,1008,2,15,-3
712,-25,36,1009,1,26,-2
713,-145,72,986,-14,20,1
714,-145,30,995,-26,-2,-4
715,-54,-53,997,-33,-21,-9
716,87,-103,997,-24,-23,-10
717,154,-103,997,-9,-9,-9
718,107,-46,996,3,12,-5
719,-9,33,1012,1,23,-2
720,-132,72,994,-13,21,1
721,-151,36,996,-24,1,-4
722,-72,-46,990,-32,-18,-10
723,71,-94,1000,-24,-24,-11
724,149,-107,1000,-10,-13,-11
725,120,-54,996,0,9,-6
726,9,26,1002,1,24,-3
727,-122,72,1000,-9,24,-1
728,-155,41,1001,-24,5,-4
729,-88,-32,982,-34,-16,-6
730,56,-96,1001,-27,-25,-10
731,139,-108,1002,-14,-14,-11
732,134,-64,1000,-2,7,-7
733,21,19,992,3,24,-2
734,-108,70,998,-8,23,2
735,-158,45,1002,-20,6,-2
736,-101,-19,984,-32,-14,-7
737,44,-89,1002,-26,-24,-10
738,129,-114,1000,-15,-14,-11
739,145,-71,998,-1,4,-7
740,43,12,996,1,21,-3
741,-97,59,1004,-6,24,0
742,-158,56,988,-21,10,-3
743,-111,-8,990,-31,-11,-7
744,26,-85,1004,-30,-25,-11
745,123,-119,1001,-17,-18,-12
746,152,-74,991,-2,1,-8
747,58,3,1006,2,20,-4
748,-78,56,1007,-3,25,0
749,-161,58,983,-21,12,-1
750,-120,5,987,-31,-9,-5
751,0,-83,1008,-30,-23,-10
752,118,-116,995,-19,-19,-11
753,153,-84,1001,-4,-1,-7
754,69,-5,1002,4,19,-3
755,-62,52,1009,-2,25,0
756,-155,67,976,-17,14,0
757,-135,17,996,-30,-7,-5
758,-12,-75,998,-33,-23,-10
759,105,-115,994,-20,-22,-11
760,160,-91,1001,-5,-5,-8
761,75,-16,1004,3,17,-4
762,-41,48,1010,-1,25,-2
763,-151,69,982,-15,17,1
764,-137,23,997,-28,-4,-5
765,-34,-68,993,-32,-23,-10
766,96,-108,991,-21,-23,-10
767,157,-103,999,-8,-7,-9
768,92,-31,1007,2,16,-5
769,-25,41,1010,-1,25,0
770,-143,74,983,-12,19,0
771,-147,31,996,-27,-2,-4
772,-50,-55,995,-33,-21,-10
773,86,-104,997,-24,-23,-11
774,158,-109,995,-10,-10,-9
775,107,-43,998,4,12,-5
776,-13,34,1008,3,24,-3
777,-135,79,996,-12,20,0
778,-151,35,994,-25,1,-4
779,-72,-44,992,-33,-18,-9
780,76,-99,1002,-25,-25,-11
781,153,-109,995,-11,-11,-11
782,117,-52,999,2,11,-5
783,5,26,999,2,25,-3
784,-127,74,1003,-10,23,1
785,-151,41,998,-25,3,-3
786,-89,-30,985,-32,-16,-8
787,63,-94,1001,-27,-25,-11
788,141,-113,1002,-14,-13,-11
789,132,-63,1001,0,8,-6
790,18,21,993,2,24,-3
791,-108,70,994,-9,22,2
792,-161,43,1001,-24,7,-2
793,-101,-18,985,-31,-14,-8
794,46,-93,1000,-28,-27,-11
795,130,-115,1003,-13,-15,-12
796,141,-67,999,-2,4,-8
797,38,16,995,4,21,-3
798,-100,63,1003,-5,24,1
799,-162,52,990,-21,7,-3
800,-113,-7,991,-31,-12,-7
801,28,-90,1005,-29,-26,-10
802,124,-116,996,-16,-18,-11
803,153,-76,1000,-1,1,-8
804,51,3,999,1,22,-2
805,-84,59,1010,-4,26,0
806,-156,60,983,-20,11,-2
807,-121,4,985,-30,-10,-5
808,7,-83,1007,-30,-25,-10
809,117,-116,1002,-19,-19,-10
810,156,-83,997,-2,-1,-8
811,68,-5,1001,3,20,-3
812,-65,51,1011,-4,25,1
813,-155,69,978,-18,13,-1
814,-129,8,990,-30,-7,-6
815,-11,-74,1001,-29,-23,-10
816,109,-114,995,-20,-21,-10
817,156,-90,1004,-4,-4,-9
818,79,-18,999,4,17,-4
819,-45,46,1014,-3,26,-2
820,-151,68,980,-18,17,1
821,-139,22,1000,-29,-5,-5
822,-29,-70,994,-33,-22,-11
823,97,-109,992,-20,-22,-10
824,158,-96,999,-8,-7,-10
825,89,-29,1008,3,18,-4
826,-31,45,1008,-1,26,-1
827,-143,69,986,-16,18,0
828,-147,30,997,-27,-2,-4
829,-47,-60,992,-34,-21,-9
830,89,-104,997,-21,-23,-10
831,154,-101,996,-11,-9,-9
832,106,-36,1001,2,12,-4
833,-14,34,1010,0,24,-2
834,-136,75,989,-12,20,0
835,-148,34,998,-25,0,-4
836,-73,-45,991,-33,-17,-9
837,78,-99,1003,-25,-24,-12
838,151,-108,997,-12,-11,-9
839,115,-52,996,2,10,-4
840,5,28,1005,3,23,-2
841,-127,73,999,-10,22,-1
842,-153,39,998,-24,3,-4
843,-84,-33,984,-33,-16,-9
844,61,-93,999,-25,-24,-12
845,146,-109,1000,-13,-13,-11
846,131,-64,1004,-2,8,-7
847,22,24,989,2,24,-2
848,-114,69,1003,-8,24,0
849,-161,45,1003,-24,5,-3
850,-100,-18,985,-32,-14,-8
851,50,-92,1004,-27,-26,-12
852,135,-115,1000,-15,-16,-11
853,144,-69,1003,-2,4,-6
854,33,13,996,3,24,-3
855,-102,65,998,-7,25,0
856,-160,50,998,-22,8,-2
857,-111,-9,987,-32,-13,-6
858,32,-85,1003,-28,-26,-10
859,125,-117,1001,-16,-18,-11
860,151,-78,995,-3,2,-7
861,54,3,1002,2,22,-3
862,-86,59,1007,-5,26,0
863,-159,57,982,-19,12,-2
864,-123,3,987,-31,-11,-6
865,8,-87,1008,-30,-25,-11
866,116,-114,999,-16,-19,-10
867,156,-82,997,-3,-1,-9
868,65,-4,1004,4,20,-4
869,-69,51,1011,-3,25,0
870,-156,66,980,-19,13,-1
871,-133,11,990,-30,-7,-5
872,-7,-73,1003,-30,-23,-11
873,106,-112,998,-22,-20,-10
874,160,-87,997,-5,-3,-9
875,75,-16,1001,4,18,-5
876,-50,46,1009,-2,26,-1
877,-151,68,983,-16,16,0
878,-138,18,998,-31,-5,-5
879,-31,-67,992,-32,-22,-10
880,102,-110,993,-21,-22,-10
881,156,-98,997,-6,-6,-8
882,89,-28,1010,2,15,-3
883,-34,39,1007,-1,26,0
884,-146,71,984,-14,19,0
885,-146,30,996,-25,-3,-5
886,-50,-56,993,-33,-22,-10
887,93,-109,997,-24,-24,-12
888,156,-101,997,-9,-9,-9
889,102,-38,1000,2,13,-5
890,-13,38,1014,1,25,-2
891,-141,76,986,-12,19,2
892,-148,31,999,-26,-1,-4
893,-67,-48,993,-33,-19,-10
894,79,-104,999,-25,-25,-12
895,153,-105,997,-11,-11,-11
896,114,-50,995,2,11,-4
897,0,31,1005,0,25,-2
898,-130,75,998,-11,22,1
899,-151,40,997,-24,4,-3
900,-82,-39,985,-34,-16,-8
901,65,-95,998,-24,-25,-10
902,149,-112,1004,-12,-13,-9
903,123,-63,999,-2,8,-5
904,18,27,996,2,24,-2
905,-119,71,1001,-8,24,0
906,-158,46,997,-23,5,-2
907,-93,-25,985,-32,-15,-8
908,48,-92,1001,-26,-24,-11
909,140,-116,1003,-14,-15,-11
910,139,-70,999,-1,6,-6
911,34,18,994,4,23,-2
912,-104,65,1002,-7,24,1
913,-161,53,996,-22,8,-2
914,-107,-12,989,-32,-13,-7
915,38,-89,1005,-30,-24,-11
916,123,-119,999,-15,-16,-11
917,149,-77,998,0,1,-9
918,49,9,1004,4,22,-3
919,-88,59,1004,-4,26,0
920,-160,60,986,-20,10,-1
921,-118,0,990,-33,-10,-7
922,13,-84,1003,-30,-25,-9
923,120,-118,998,-16,-19,-11
924,154,-83,997,-2,1,-7
925,63,-3,1002,3,21,-3
926,-72,52,1011,-2,26,1
927,-155,65,980,-18,13,0
928,-128,12,987,-31,-8,-4
929,-2,-75,1006,-31,-24,-11
930,115,-116,998,-20,-20,-10
931,157,-88,997,-5,-4,-9
932,72,-14,1003,3,20,-4
933,-56,48,1011,-2,25,-1
934,-150,65,975,-17,15,-1
935,-137,20,998,-29,-5,-6
936,-23,-70,991,-33,-23,-10
937,105,-109,999,-20,-23,-11
938,161,-95,997,-7,-7,-8
939,85,-23,1005,3,17,-4
940,-31,42,1012,-1,25,-3
941,-154,69,981,-15,17,1
942,-141,26,997,-28,-4,-4
943,-45,-63,995,-33,-21,-10
944,95,-106,989,-21,-23,-10
945,162,-104,998,-9,-8,-9
946,98,-32,1005,1,14,-4
947,-18,39,1011,-1,24,-1
948,-139,72,988,-13,20,0
949,-149,29,997,-26,-2,-4
950,-58,-53,994,-32,-20,-9
951,79,-103,1000,-24,-24,-10
952,158,-102,994,-10,-11,-9
953,112,-48,998,4,12,-4
954,-5,34,1005,1,24,-1
955,-129,75,998,-12,22,2
956,-153,35,995,-25,1,-4
957,-78,-40,986,-31,-18,-8
958,68,-97,1001,-25,-25,-10
959,151,-107,1002,-13,-13,-11
960,121,-56,994,0,9,-5
961,13,25,1000,1,25,-4
962,-119,70,1002,-9,24,0
963,-155,43,994,-24,4,-3
964,-94,-30,988,-31,-15,-7
965,53,-91,996,-25,-25,-10
966,137,-111,1006,-15,-14,-10
967,137,-67,1000,-2,6,-6
968,29,18,997,1,23,-1
969,-105,67,994,-7,24,0
970,-160,47,999,-23,7,-3
971,-107,-12,989,-32,-13,-7
972,37,-90,1000,-27,-24,-10
973,130,-114,1003,-15,-16,-11
974,145,-73,998,0,3,-6
975,45,10,1000,2,22,-4
976,-92,58,1005,-8,25,0
977,-161,57,989,-19,11,-2
978,-115,-2,987,-31,-10,-6
979,20,-85,1007,-29,-25,-11
980,117,-114,998,-18,-19,-11
981,155,-80,996,-3,0,-8
982,58,-1,1006,3,21,-3
983,-78,54,1008,-3,26,-1
984,-157,61,979,-20,11,-1
985,-130,12,986,-31,-9,-4
986,3,-79,1005,-31,-24,-10
987,117,-115,1001,-20,-20,-12
988,153,-82,996,-5,-3,-7
989,71,-10,1003,3,18,-4
990,-61,48,1008,-2,26,-1
991,-150,69,979,-17,13,-1
992,-133,17,994,-30,-7,-6
993,-16,-70,996,-29,-23,-10
994,106,-111,995,-21,-22,-11
995,158,-92,1000,-6,-6,-8
996,78,-23,1006,3,16,-3
997,-43,44,1010,-1,25,-2
998,-151,69,982,-15,17,0
999,-140,28,999,-29,-4,-5
1000,-38,-65,993,-33,-21,-10
1001,99,-106,992,-21,-23,-12
1002,158,-102,1000,-9,-8,-8
1003,92,-28,1005,2,17,-4
1004,-26,36,1012,0,26,-2
1005,-142,73,983,-14,20,0
1006,-148,32,996,-26,-1,-3
1007,-55,-53,994,-32,-21,-9
1008,88,-104,999,-23,-22,-11
1009,156,-101,995,-10,-8,-10
1010,107,-45,998,2,11,-5
1011,-9,35,1013,1,24,-1
1012,-132,72,992,-13,21,1
1013,-151,34,994,-25,2,-5
1014,-77,-46,990,-32,-17,-10
1015,72,-96,1003,-26,-25,-11
1016,149,-104,995,-12,-12,-10
1017,122,-53,999,-1,9,-5
1018,6,27,999,6,26,-3
1019,-126,68,1002,-12,22,1
1020,-153,42,999,-24,4,-3
1021,-93,-35,979,-31,-16,-7
1022,64,-94,999,-25,-26,-11
1023,142,-118,1009,-12,-13,-10
1024,132,-60,995,0,9,-6
1025,25,21,999,2,24,-4
1026,-114,74,995,-6,23,1
1027,-158,46,999,-24,5,-2
1028,-101,-21,991,-31,-14,-7
1029,43,-92,1000,-28,-26,-10
1030,134,-115,1001,-17,-16,-11
1031,143,-72,1000,-1,3,-7
1032,39,18,998,2,21,-3
1033,-99,63,1001,-7,25,-1
1034,-166,56,993,-22,10,-2
1035,-108,-5,989,-34,-12,-8
1036,26,-87,1007,-30,-26,-11
1037,122,-118,997,-18,-18,-10
1038,150,-80,999,-2,2,-8
1039,52,3,997,3,21,-4
1040,-84,57,1010,-5,25,0
1041,-159,60,984,-19,11,-1
1042,-123,4,988,-31,-10,-5
1043,12,-81,1003,-31,-25,-10
1044,111,-116,1006,-19,-19,-10
1045,157,-87,993,-5,-1,-7
1046,63,-6,1005,3,21,-2
1047,-63,51,1008,-2,26,0
1048,-156,62,982,-18,13,0
1049,-129,13,991,-30,-7,-5
1050,-13,-74,1003,-31,-22,-9
1051,110,-111,996,-21,-20,-12
1052,156,-91,1001,-5,-4,-9
1053,75,-17,1003,4,18,-4
1054,-50,45,1009,-1,26,-1
1055,-151,65,981,-17,15,-1
1056,-139,19,996,-29,-4,-4
1057,-31,-66,995,-31,-21,-10
1058,100,-105,992,-21,-23,-11
1059,159,-97,1003,-6,-6,-10
1060,89,-25,1008,2,17,-4
1061,-29,40,1009,-1,25,-2
1062,-145,74,982,-14,19,0
1063,-145,25,998,-27,-2,-4
1064,-49,-60,993,-33,-22,-10
1065,86,-107,996,-23,-23,-11
1066,157,-100,994,-9,-8,-10
1067,104,-42,1004,2,13,-4
1068,-13,39,1007,1,24,-2
1069,-137,71,993,-14,19,2
1070,-149,36,994,-26,0,-4
1071,-70,-49,993,-33,-18,-8
1072,81,-103,1000,-25,-24,-11
1073,147,-111,995,-10,-10,-10
1074,118,-50,997,3,9,-5
1075,3,29,1007,1,24,-2
1076,-128,79,998,-10,23,1
1077,-155,37,997,-25,3,-4
1078,-86,-34,988,-34,-18,-9
1079,65,-97,996,-27,-26,-10
1080,147,-111,1005,-12,-13,-11
1081,126,-65,999,0,8,-5
1082,18,26,995,3,24,-3
1083,-114,70,1001,-9,22,2
1084,-156,44,1001,-25,3,-3
1085,-98,-24,985,-33,-15,-8
1086,49,-94,997,-26,-24,-12
1087,136,-115,1008,-13,-14,-12
1088,141,-69,997,0,6,-7
1089,32,17,995,3,23,-2
1090,-104,64,1000,-8,23,0
1091,-156,53,996,-22,8,-2
1092,-108,-11,989,-33,-12,-5
1093,33,-88,1002,-28,-24,-11
1094,123,-116,996,-14,-17,-11
1095,149,-73,998,-1,2,-7
1096,49,8,1001,2,22,-2
1097,-89,58,1007,-6,25,0
1098,-156,54,982,-20,11,-2
1099,-120,0,988,-28,-11,-6
1100,14,-82,1003,-30,-25,-10
1101,116,-114,1002,-16,-18,-11
1102,154,-81,994,-4,0,-7
1103,60,-6,1002,2,20,-3
1104,-72,50,1010,-3,26,0
1105,-157,65,976,-20,13,-1
1106,-126,13,993,-29,-7,-6
1107,-7,-77,1001,-31,-22,-10
1108,112,-112,999,-20,-20,-11
1109,160,-90,1000,-5,-3,-8
1110,72,-13,1002,2,17,-3
1111,-53,44,1010,-3,25,-1
1112,-152,65,981,-18,16,0
1113,-136,19,996,-29,-7,-5
1114,-23,-68,996,-32,-22,-10
1115,101,-109,998,-21,-21,-10
1116,159,-91,995,-7,-6,-9
1117,86,-24,1009,3,16,-4
1118,-34,40,1006,-2,25,-1
1119,-146,70,983,-15,20,1
1120,-138,26,1000,-29,-4,-4
1121,-47,-62,994,-33,-21,-10
1122,96,-107,993,-22,-23,-11
1123,154,-101,996,-7,-6,-9
1124,100,-33,1005,2,15,-4
1125,-15,37,1008,0,25,0
1126,-142,74,989,-13,20,0
1127,-145,33,996,-26,0,-5
1128,-66,-51,996,-32,-19,-9
1129,80,-101,997,-26,-25,-10
1130,152,-108,997,-11,-11,-10
1131,113,-48,995,3,10,-4
1132,-1,32,1007,3,24,-2
1133,-130,76,997,-9,23,0
1134,-150,35,997,-26,2,-4
1135,-79,-39,984,-32,-17,-9
1136,67,-100,1003,-26,-24,-11
1137,149,-108,1000,-12,-12,-11
1138,122,-61,996,-1,8,-6
1139,19,27,999,3,23,-3
1140,-119,73,1002,-10,23,1
1141,-156,43,998,-23,3,-2
1142,-98,-28,987,-32,-15,-7
1143,53,-92,999,-27,-25,-10
1144,141,-116,1005,-15,-15,-9
1145,139,-68,1000,0,6,-7
1146,33,17,994,3,23,-4
1147,-106,68,999,-6,24,1
1148,-164,51,997,-21,7,-2
1149,-107,-11,990,-32,-12,-7
1150,37,-90,1000,-28,-24,-10
1151,130,-115,998,-14,-17,-12
1152,149,-76,998,0,2,-7
1153,44,10,999,2,21,-3
1154,-91,58,1007,-7,25,0
1155,-160,56,982,-20,10,-1
1156,-117,0,989,-33,-11,-5
1157,21,-83,1006,-30,-26,-11
1158,118,-115,1000,-17,-17,-10
1159,156,-80,994,-3,0,-9
1160,57,-2,1006,3,21,-4
1161,-74,51,1007,-5,25,-1
1162,-155,59,980,-17,12,-1
1163,-126,10,990,-30,-9,-6
1164,0,-78,1004,-32,-24,-10
1165,114,-113,998,-19,-20,-12
1166,156,-85,999,-4,-2,-9
1167,73,-10,1000,3,19,-5
1168,-59,46,1010,0,27,-1
1169,-148,68,978,-17,14,-1
1170,-135,14,1000,-28,-5,-5
1171,-20,-69,994,-32,-23,-11
1172,102,-111,996,-23,-21,-11
1173,159,-93,996,-6,-6,-10
1174,84,-22,1010,3,17,-3
1175,-36,42,1009,-2,26,-2
1176,-149,68,984,-15,18,-1
1177,-140,26,996,-28,-5,-5
1178,-40,-62,996,-33,-21,-9
1179,94,-107,995,-22,-23,-11
1180,159,-100,998,-9,-8,-10
1181,98,-36,1004,1,14,-5
1182,-25,39,1011,0,24,-2
1183,-138,72,986,-13,19,0
1184,-148,31,995,-25,-1,-4
1185,-64,-52,994,-31,-19,-9
1186,84,-99,1000,-25,-23,-12
1187,151,-107,992,-10,-9,-10
1188,113,-47,998,3,12,-6
1189,-5,29,1004,2,23,-2
1190,-130,73,995,-11,21,0
1191,-151,39,1000,-25,2,-3
1192,-79,-39,987,-32,-18,-10
1193,67,-93,1000,-26,-25,-11
1194,148,-114,1002,-12,-12,-9
1195,124,-57,997,0,10,-4
1196,13,26,998,2,26,-1
1197,-118,69,1002,-8,23,1
1198,-157,43,1001,-24,4,-3
1199,-95,-23,980,-33,-15,-8
1200,56,-91,1002,-27,-24,-11
1201,137,-117,1004,-14,-13,-9
1202,136,-64,998,0,6,-6
1203,31,15,998,2,23,-2
1204,-107,68,999,-7,23,0
1205,-161,47,994,-21,7,-2
1206,-105,-13,991,-31,-13,-7
1207,36,-87,1005,-28,-26,-11
1208,128,-116,996,-14,-16,-12
1209,143,-73,1001,-1,3,-6
1210,47,10,999,2,21,-3
1211,-89,56,1004,-6,26,1
1212,-160,56,984,-21,10,-1
1213,-114,-1,992,-31,-12,-6
1214,14,-85,1002,-30,-25,-10
1215,117,-113,1000,-17,-17,-10
1216,155,-81,1001,-5,0,-9
1217,57,-1,999,3,21,-4
1218,-71,51,1008,-5,26,0
1219,-156,62,985,-18,12,-1
1220,-128,7,985,-29,-10,-5
1221,-3,-75,1009,-30,-24,-10
1222,112,-114,1000,-18,-20,-11
1223,158,-84,997,-4,-2,-8
1224,74,-12,1005,4,19,-3
1225,-59,46,1008,-3,25,-1
1226,-149,68,981,-18,14,-1
1227,-138,14,998,-30,-4,-6
1228,-22,-71,996,-31,-23,-10
1229,103,-112,990,-20,-22,-10
1230,158,-90,1000,-4,-6,-10
1231,87,-23,1009,2,16,-4
1232,-39,43,1008,-2,26,-2
1233,-150,73,985,-15,16,0
1234,-143,23,1000,-29,-4,-5
1235,-44,-60,991,-34,-21,-8
1236,92,-108,995,-23,-24,-11
1237,161,-101,1001,-8,-8,-10
1238,100,-39,1001,2,14,-4
1239,-20,41,1012,1,26,-1
1240,-141,71,991,-15,21,0
1241,-148,33,992,-25,0,-2
1242,-61,-52,995,-33,-19,-8
1243,82,-103,1003,-24,-24,-11
1244,155,-107,990,-10,-10,-9
1245,113,-47,999,3,13,-5
1246,-7,32,1008,1,24,-1
1247,-127,72,999,-12,23,0
1248,-151,38,998,-27,3,-4
1249,-78,-39,986,-33,-17,-9
1250,68,-98,1002,-25,-24,-11
1251,144,-112,1000,-13,-12,-9
1252,121,-62,999,1,10,-4
1253,17,23,995,3,24,-2
1254,-119,71,999,-7,23,1
1255,-154,45,999,-25,4,-3
1256,-95,-23,988,-32,-16,-9
1257,53,-88,994,-27,-26,-12
1258,135,-115,1009,-16,-14,-11
1259,138,-71,996,-2,5,-7
1260,30,13,993,3,23,-4
1261,-107,67,1000,-7,24,0
1262,-159,50,996,-22,7,-2
1263,-104,-11,993,-33,-13,-7
1264,35,-87,1003,-30,-24,-11
1265,124,-113,1000,-16,-16,-11
1266,150,-75,998,-2,2,-7
1267,45,11,1001,2,22,-2
1268,-89,53,1003,-6,25,-1
1269,-158,56,987,-19,11,-2
1270,-118,1,985,-31,-12,-5
1271,16,-78,1008,-31,-25,-11
1272,118,-116,999,-18,-19,-10
1273,152,-78,994,-2,-1,-8
1274,62,-3,1005,3,21,-4
1275,-73,53,1008,-4,25,-1
1276,-156,64,978,-18,12,-2
1277,-128,10,992,-31,-9,-6
1278,-5,-80,1002,-30,-22,-10
1279,111,-111,1000,-18,-21,-11
1280,161,-90,997,-5,-4,-10
1281,70,-12,1005,5,18,-4
1282,-50,47,1007,-2,25,0
1283,-154,67,980,-18,17,1
1284,-136,15,996,-29,-5,-5
1285,-27,-70,997,-31,-22,-10
1286,102,-109,988,-21,-22,-10
1287,161,-93,1003,-6,-6,-9
1288,86,-23,1008,2,16,-4
1289,-35,45,1005,-1,26,0
1290,-145,69,987,-15,19,0
1291,-144,26,994,-28,-3,-4
1292,-42,-63,992,-32,-22,-11
1293,90,-108,999,-22,-23,-12
1294,157,-99,995,-9,-8,-9
1295,100,-38,1004,3,14,-5
1296,-18,38,1010,1,24,-1
1297,-135,74,986,-13,19,1
1298,-145,32,999,-25,0,-4
1299,-66,-49,990,-32,-19,-9
1300,84,-101,1003,-24,-25,-10
1301,148,-109,993,-11,-12,-10
1302,113,-47,996,2,11,-6
1303,1,29,1008,2,24,-2
1304,-132,75,995,-11,23,1
1305,-147,40,1004,-25,2,-3
1306,-83,-38,985,-31,-17,-8
1307,64,-95,1000,-26,-25,-10
1308,148,-114,1003,-14,-14,-11
1309,126,-63,999,0,8,-6
1310,15,28,993,3,24,-2
1311,-116,71,1001,-8,23,0
1312,-157,45,999,-23,4,-2
1313,-92,-22,985,-32,-15,-8
1314,50,-94,1003,-28,-24,-11
1315,137,-113,1002,-14,-13,-12
1316,138,-70,1000,-1,6,-6
1317,36,15,994,3,22,-3
1318,-103,63,1000,-7,24,1
1319,-160,55,994,-21,8,-3
1320,-106,-11,989,-34,-13,-8
1321,38,-90,1006,-28,-26,-11
1322,123,-118,996,-16,-16,-11
1323,150,-75,997,-1,2,-7
1324,49,5,1004,3,23,-3
1325,-89,57,1008,-5,25,-1
1326,-159,55,981,-19,11,-1
1327,-118,2,988,-29,-10,-6
1328,13,-83,1006,-30,-25,-10
1329,119,-114,1004,-16,-19,-11
1330,154,-80,994,-5,0,-9
1331,64,-3,1006,4,20,-4
1332,-70,51,1008,-5,25,1
1333,-156,65,979,-18,13,0
1334,-127,9,995,-31,-8,-5
1335,-12,-77,1000,-29,-24,-8
1336,111,-111,996,-19,-21,-11
1337,155,-88,1001,-5,-5,-10
1338,74,-13,1003,3,16,-4
1339,-50,45,1010,-3,24,-1
1340,-154,68,982,-16,17,-1
1341,-135,17,999,-29,-5,-4
1342,-31,-71,994,-32,-22,-10
1343,101,-109,990,-18,-23,-10
1344,158,-94,1002,-6,-6,-10
1345,87,-20,1006,2,16,-4
1346,-29,46,1009,-1,26,-2
1347,-144,70,986,-16,17,-2
1348,-146,26,994,-28,-3,-5
1349,-46,-60,995,-33,-20,-10
1350,90,-108,997,-21,-22,-11
1351,156,-102,995,-6,-8,-10
1352,104,-36,1002,-4,16,-3
1353,-17,44,1010,-6,25,0
1354,-131,77,990,-13,20,-1
1355,-149,31,997,-28,1,-3
1356,-65,-50,988,-32,-18,-7
1357,74,-105,1002,-25,-24,-11
1358,150,-112,994,-10,-11,-11
1359,113,-49,998,4,9,-6
1360,5,32,1004,2,24,-2
1361,-126,79,1003,-8,23,1
1362,-149,40,1001,-25,3,-4
1363,-86,-35,984,-33,-17,-8
1364,60,-98,999,-25,-24,-10
1365,142,-115,1005,-14,-13,-10
1366,131,-68,1000,-1,6,-6
1367,16,24,992,3,23,-2
1368,-109,72,998,-6,23,1
1369,-158,50,1004,-22,6,-3
1370,-97,-21,984,-33,-16,-8
1371,48,-91,1003,-28,-24,-11
1372,130,-120,1000,-15,-15,-10
1373,139,-71,998,0,5,-6
1374,38,13,1000,3,23,-2
1375,-101,65,1001,-5,24,0
1376,-156,56,991,-21,9,-2
1377,-112,-7,994,-32,-10,-5
1378,30,-82,1002,-30,-25,-10
1379,121,-117,996,-18,-18,-11
1380,149,-78,999,-2,2,-8
1381,51,1,1002,2,21,-2
1382,-84,58,1008,-4,26,-1
1383,-156,58,981,-19,10,-1
1384,-121,10,989,-29,-10,-6
1385,8,-82,1002,-30,-24,-11
1386,115,-115,1004,-18,-19,-11
1387,154,-81,995,-5,-2,-8
1388,64,-6,1000,3,20,-4
1389,-61,51,1011,-2,25,0
1390,-154,65,975,-18,12,0
1391,-130,13,996,-30,-8,-4
1392,-11,-76,1000,-30,-23,-10
1393,105,-113,991,-20,-21,-12
1394,157,-90,1005,-5,-5,-11
1395,76,-18,1004,3,16,-3
1396,-43,48,1010,-1,25,-1
1397,-147,65,983,-16,17,0
1398,-138,19,997,-27,-5,-5
1399,-31,-67,996,-32,-23,-9
1400,96,-107,991,-21,-23,-11
1401,156,-100,997,-8,-7,-10
1402,93,-28,1012,2,15,-5
1403,-29,41,1008,-1,26,-2
1404,-139,72,987,-13,18,0
1405,-146,27,997,-27,-1,-3
1406,-52,-56,992,-33,-19,-9
1407,86,-103,1001,-23,-22,-10
1408,150,-105,995,-10,-8,-9
1409,109,-43,998,3,12,-5
1410,-11,33,1007,2,23,-2
1411,-130,76,999,-11,21,1
1412,-145,34,995,-25,1,-3
1413,-78,-42,987,-31,-18,-8
1414,76,-97,1004,-26,-25,-11
1415,147,-110,997,-11,-11,-11
1416,121,-55,995,1,10,-6
1417,10,24,1005,2,23,-2
1418,-122,71,997,-10,23,1
1419,-152,42,1003,-24,4,-2
1420,-89,-29,982,-33,-15,-8
1421,55,-95,998,-27,-25,-11
1422,141,-111,1006,-13,-14,-11
1423,132,-67,999,0,5,-6
1424,26,23,995,4,24,-3
1425,-111,67,999,-7,24,1
1426,-157,49,996,-24,5,-2
1427,-100,-18,991,-32,-15,-8
1428,41,-90,1001,-29,-23,-11
1429,130,-116,1002,-15,-15,-11
1430,140,-69,995,1,3,-8
1431,45,11,1003,4,21,-3
1432,-97,61,1002,-5,25,1
1433,-159,57,989,-20,10,-2
1434,-113,-5,989,-32,-10,-6
1435,23,-87,1003,-31,-25,-10
1436,119,-118,998,-16,-18,-10
1437,150,-77,998,-1,0,-8
1438,59,0,1002,4,20,-2
1439,-79,58,1011,-3,25,-1
1440,-154,61,976,-20,12,-2
1441,-126,7,990,-30,-8,-6
1442,4,-80,1004,-31,-23,-10
1443,111,-116,1001,-19,-18,-11
1444,153,-85,998,-4,-2,-8
1445,65,-10,1004,3,18,-3
1446,-58,51,1008,-3,24,-1
1447,-152,62,984,-18,15,0
1448,-130,15,993,-29,-5,-5
1449,-17,-73,1000,-31,-22,-10
1450,104,-109,993,-19,-21,-10
1451,157,-91,1001,-6,-5,-9
1452,84,-21,1007,2,17,-3
1453,-44,44,1006,0,25,-1
1454,-145,71,986,-14,16,-2
1455,-142,20,996,-29,-4,-5
1456,-38,-60,994,-32,-22,-11
1457,97,-112,994,-23,-23,-10
1458,155,-95,999,-8,-6,-9
1459,98,-33,1003,2,15,-5
1460,-25,38,1011,0,25,-2
1461,-142,73,984,-12,18,0
1462,-144,29,999,-26,-1,-6
1463,-57,-56,992,-32,-19,-10
1464,86,-100,1000,-22,-23,-10
1465,155,-104,993,-9,-11,-11
1466,107,-47,999,2,12,-5
1467,-4,37,1006,0,24,-2
1468,-133,70,998,-13,22,1
1469,-150,36,997,-26,2,-5
1470,-78,-44,987,-31,-17,-10
1471,70,-96,1001,-24,-24,-10
1472,149,-112,1000,-12,-11,-9
1473,119,-54,999,0,9,-5
1474,13,26,999,1,24,-2
1475,-117,71,1000,-9,24,0
1476,-158,41,1001,-24,3,-3
1477,-89,-27,983,-32,-16,-7
1478,52,-96,1001,-26,-25,-11
1479,140,-113,1001,-14,-14,-10
1480,136,-69,1006,0,6,-7
1481,28,22,990,3,23,-4
1482,-105,69,998,-7,24,1
1483,-157,49,1000,-21,6,-4
1484,-105,-14,988,-34,-13,-8
1485,39,-91,1002,-30,-24,-11
1486,125,-118,997,-14,-15,-11
1487,146,-72,1001,0,2,-7
1488,42,7,997,2,21,-2
1489,-90,60,1006,-6,24,-1
1490,-159,57,985,-19,10,-1
1491,-111,0,988,-31,-11,-7
1492,19,-86,1007,-31,-25,-11
1493,119,-114,997,-17,-18,-10
1494,154,-80,998,-4,0,-8
1495,60,-2,1000,0,20,-4
1496,-76,57,1012,-4,24,0
1497,-156,62,978,-18,11,-2
1498,-125,7,993,-30,-7,-6
1499,-2,-79,1005,-30,-23,-9
1500,112,-114,998,-19,-18,-10
1501,156,-85,998,-5,-3,-7
1502,70,-9,1004,3,17,-4
1503,-57,47,1007,-2,24,-1
1504,-151,65,982,-17,16,0
1505,-135,17,995,-28,-6,-4
1506,-19,-72,996,-32,-24,-10
1507,102,-109,994,-21,-23,-12
1508,160,-94,1001,-7,-8,-10
1509,79,-21,1007,3,15,-3
1510,-38,45,1008,-2,24,0
1511,-145,69,985,-14,18,0
1512,-146,22,999,-26,-3,-4
1513,-42,-62,992,-32,-22,-9
1514,96,-109,995,-21,-23,-11
1515,157,-100,993,-8,-8,-10
1516,100,-33,1009,3,15,-4
1517,-23,42,1008,0,25,-2
1518,-142,76,985,-14,19,1
1519,-148,32,998,-26,-1,-4
1520,-60,-58,992,-33,-18,-9
1521,85,-104,998,-24,-22,-11
1522,152,-106,994,-10,-10,-10
1523,111,-43,999,4,12,-5
1524,-5,34,1006,1,24,-2
1525,-131,77,997,-10,21,0
1526,-148,36,999,-25,3,-2
1527,-76,-42,985,-33,-16,-8
1528,68,-100,1000,-26,-25,-11
1529,147,-109,1002,-12,-13,-10
1530,121,-61,993,2,9,-5
1531,11,32,1002,2,24,-2
1532,-118,72,1001,-8,22,1
1533,-156,47,1000,-24,5,-3
1534,-93,-31,983,-34,-16,-8
1535,53,-91,1001,-26,-24,-11
1536,138,-117,1005,-15,-13,-11
1537,132,-68,998,0,7,-7
1538,31,18,999,4,23,-3
1539,-107,67,995,-6,22,1
1540,-160,52,1001,-22,6,-2
1541,-102,-15,992,-33,-13,-7
1542,35,-88,1001,-29,-25,-10
1543,132,-117,999,-15,-17,-11
1544,143,-74,1000,1,4,-7
1545,45,10,999,2,22,-3
1546,-92,59,1005,-6,24,1
1547,-162,58,987,-21,11,-2
1548,-111,-4,989,-32,-11,-6
1549,19,-82,1007,-28,-24,-11
1550,119,-117,997,-18,-16,-11
1551,153,-80,1000,-2,1,-9
1552,57,-3,1000,2,21,-3
1553,-77,49,1009,-3,25,-1
1554,-158,60,982,-18,13,-1
1555,-127,9,988,-31,-9,-5
1556,4,-75,1007,-29,-25,-11
1557,112,-114,1001,-20,-18,-10
1558,158,-87,993,-7,-2,-10
1559,66,-12,1005,2,20,-4
1560,-62,47,1006,-2,25,1
1561,-153,65,983,-18,15,-1
1562,-133,16,992,-30,-5,-6
1563,-18,-71,998,-33,-22,-11
1564,108,-109,997,-21,-21,-11
1565,156,-89,999,-6,-5,-8
1566,83,-20,1006,3,18,-5
1567,-41,39,1009,-2,27,-1
1568,-152,67,982,-14,17,0
1569,-138,21,999,-28,-4,-4
1570,-40,-65,993,-32,-22,-10
1571,100,-105,994,-21,-23,-11
1572,160,-98,1002,-7,-6,-10
1573,97,-31,1007,2,16,-3
1574,-25,37,1009,-2,25,0
1575,-146,70,986,-14,19,1
1576,-148,26,996,-27,-2,-4
1577,-55,-55,991,-32,-21,-10
1578,86,-107,998,-23,-23,-12
1579,160,-100,993,-9,-9,-9
1580,108,-37,1001,5,14,-5
1581,-13,37,1012,-1,25,-2
1582,-133,72,990,-13,23,1
1583,-154,30,996,-27,2,-4
1584,-76,-47,987,-33,-18,-9
1585,76,-98,1005,-24,-25,-12
1586,152,-109,991,-12,-12,-10
1587,124,-49,998,2,11,-5
1588,5,32,1004,2,25,-2
1589,-129,76,997,-11,23,1
1590,-154,38,999,-25,3,-3
1591,-91,-36,985,-33,-17,-8
1592,63,-97,994,-24,-26,-11
1593,146,-115,1007,-11,-13,-11
1594,133,-62,1001,0,8,-5
1595,20,28,992,3,23,-3
1596,-114,73,1003,-9,23,-1
1597,-162,49,998,-25,5,-2
1598,-98,-21,986,-33,-14,-8
1599,46,-94,1000,-29,-26,-11
1600,137,-118,1004,-14,-16,-11
1601,142,-75,999,2,5,-7
1602,34,17,998,4,21,-3
1603,-101,66,999,-6,24,1
1604,-161,57,996,-21,9,-2
1605,-109,-7,989,-32,-13,-7
1606,31,-84,1004,-30,-25,-12
1607,125,-119,994,-17,-16,-11
1608,150,-78,1000,-2,2,-7
1609,52,4,1000,3,22,-3
1610,-89,57,1008,-3,25,0
1611,-158,63,983,-20,10,-2
1612,-123,0,990,-30,-9,-5
1613,18,-77,1006,-31,-24,-10
1614,118,-118,1001,-18,-18,-10
1615,157,-82,992,-3,0,-6
1616,60,-6,1005,2,21,-2
1617,-69,50,1011,-3,25,0
1618,-162,65,977,-17,13,-1
1619,-128,11,990,-29,-7,-6
1620,-3,-77,1004,-30,-24,-10
1621,111,-113,996,-19,-20,-11
1622,160,-89,1002,-5,-3,-8
1623,71,-14,1004,3,20,-4
1624,-53,47,1008,-2,26,-1
1625,-154,68,985,-16,16,0
1626,-139,18,992,-30,-5,-5
1627,-23,-67,997,-32,-23,-11
1628,103,-111,993,-22,-22,-11
1629,162,-96,999,-5,-7,-9
1630,86,-24,1010,3,16,-4
1631,-37,43,1005,0,26,-1
1632,-151,71,987,-16,18,0
1633,-144,25,998,-27,-2,-6
1634,-45,-63,991,-33,-21,-9
1635,94,-103,996,-21,-24,-11
1636,159,-102,996,-9,-8,-9
1637,101,-32,1006,3,13,-4
1638,-22,37,1012,-2,26,-1
1639,-145,76,986,-13,19,1
1640,-148,31,996,-26,-2,-5
1641,-62,-53,991,-33,-19,-8
1642,88,-101,1001,-24,-23,-11
1643,159,-104,993,-10,-10,-11
1644,110,-46,996,4,12,-4
1645,-6,34,1009,2,25,-2
1646,-136,71,995,-11,21,0
1647,-152,38,996,-25,1,-4
1648,-80,-44,989,-33,-19,-9
1649,72,-94,1002,-24,-24,-9
1650,153,-109,997,-12,-12,-10
1651,122,-56,996,3,9,-7
1652,12,24,1001,2,24,-2
1653,-125,71,1000,-9,23,1
1654,-156,45,1000,-24,5,-3
1655,-90,-33,983,-31,-17,-8
1656,56,-90,1001,-26,-26,-10
1657,147,-113,1004,-14,-13,-11
1658,133,-68,1001,-1,8,-7
1659,29,22,994,4,24,-3
1660,-114,69,996,-8,24,1
1661,-158,51,1001,-22,6,-4
1662,-104,-19,987,-32,-14,-6
1663,43,-85,999,-27,-26,-12
1664,136,-118,1007,-15,-16,-11
1665,145,-69,999,-1,3,-7
1666,40,10,994,3,21,-3
1667,-97,62,1006,-6,24,-1
1668,-165,51,989,-21,9,-2
1669,-116,-3,990,-32,-11,-7
1670,27,-86,1007,-30,-26,-11
1671,124,-113,995,-15,-18,-11
1672,154,-79,999,-2,0,-7
1673,53,1,998,2,21,-3
1674,-84,58,1010,-5,26,0
1675,-162,60,979,-21,10,-2
1676,-125,5,989,-30,-11,-6
1677,12,-82,1005,-31,-25,-11
1678,111,-113,1001,-19,-19,-11
1679,159,-82,995,-2,-1,-10
1680,67,-9,1005,3,22,-4
1681,-71,52,1008,-4,27,0
1682,-155,60,980,-18,14,0
1683,-131,11,992,-29,-7,-6
1684,-10,-76,1001,-31,-24,-9
1685,109,-109,1001,-19,-20,-11
1686,159,-91,1000,-6,-3,-9
1687,76,-14,1003,6,16,-5
1688,-49,45,1008,7,16,-7
1689,-155,68,983,-17,15,-1
1690,-137,21,993,-30,-6,-6
1691,-30,-69,999,-31,-23,-11
1692,102,-111,990,-22,-22,-11
1693,162,-95,1002,-5,-6,-9
1694,93,-26,1007,3,15,-5
1695,-33,44,1009,-1,26,0
1696,-148,73,983,-15,18,1
1697,-150,28,996,-28,-3,-5
1698,-39,-60,998,-33,-23,-10
1699,88,-110,989,-21,-22,-11
1700,162,-99,999,-8,-7,-10
1701,105,-40,1007,2,15,-4
1702,-20,39,1007,1,25,-1
1703,-140,74,987,-14,20,0
1704,-155,32,999,-27,0,-3
1705,-62,-52,985,-32,-20,-9
1706,82,-102,1007,-25,-25,-12
1707,156,-105,991,-10,-11,-10
1708,117,-48,997,1,12,-5
1709,-2,30,1012,2,24,-2
1710,-134,75,994,-11,23,1
1711,-156,36,997,-26,3,-4
1712,-81,-41,987,-32,-17,-8
1713,69,-96,999,-25,-25,-10
1714,156,-111,1003,-13,-13,-11
1715,122,-59,998,0,9,-5
1716,16,27,998,2,24,-3
1717,-125,72,1003,-10,24,1
1718,-160,47,996,-24,4,-2
1719,-93,-32,985,-34,-15,-7
1720,55,-93,997,-26,-24,-10
1721,144,-115,1005,-12,-14,-11
1722,139,-67,1002,0,6,-7
1723,26,19,990,3,23,-1
1724,-108,70,999,-8,23,0
1725,-162,46,999,-23,6,-2
1726,-107,-11,986,-33,-14,-7
1727,44,-92,1002,-29,-25,-12
1728,130,-117,1001,-17,-16,-11
1729,146,-75,999,-2,3,-7
1730,43,11,998,2,23,-2
1731,-97,63,1003,-5,26,1
1732,-161,58,990,-21,10,-2
1733,-115,-6,986,-31,-12,-7
1734,24,-84,1009,-29,-25,-11
1735,125,-116,995,-17,-18,-11
1736,154,-79,995,-2,2,-8
1737,58,1,1006,2,21,-3
1738,-81,56,1007,-4,25,0
1739,-159,62,981,-19,12,-2
1740,-125,6,985,-29,-11,-5
1741,6,-78,1009,-30,-25,-10
1742,116,-116,995,-20,-19,-11
1743,159,-83,1001,-4,-2,-9
1744,68,-12,1003,2,20,-3
1745,-66,52,1007,-3,26,1
1746,-156,61,981,-17,13,-1
1747,-136,14,991,-28,-7,-5
1748,-10,-72,999,-30,-23,-11
1749,111,-108,998,-19,-21,-10
1750,162,-88,999,-7,-6,-8
1751,79,-18,1005,3,20,-3
1752,-47,40,1008,-1,27,-2
1753,-154,65,982,-15,17,0
1754,-142,22,998,-27,-5,-4
1755,-31,-64,990,-31,-22,-11
1756,99,-109,997,-20,-22,-12
1757,160,-97,997,-7,-7,-9
1758,93,-26,1010,3,16,-5
1759,-26,40,1010,-2,26,-1
1760,-150,71,984,-14,20,2
1761,-147,26,994,-26,-1,-4
1762,-51,-59,996,-32,-21,-9
1763,91,-108,994,-25,-23,-11
1764,158,-98,997,-7,-9,-10
1765,108,-39,1004,3,13,-4
1766,-16,39,1007,0,25,-2
1767,-138,74,991,-13,21,0
1768,-147,33,996,-26,-1,-4
1769,-71,-50,991,-32,-19,-9
1770,80,-102,999,-24,-23,-11
1771,152,-111,999,-11,-11,-11
1772,116,-51,992,2,11,-5
1773,0,30,1005,3,25,-4
1774,-127,76,1003,-11,22,0
1775,-157,38,995,-25,3,-4
1776,-83,-38,985,-33,-18,-9
1777,64,-98,999,-26,-26,-11
1778,144,-111,1003,-14,-14,-11
1779,132,-63,997,1,8,-6
1780,16,28,998,2,25,-2
1781,-116,71,995,-8,25,0
1782,-161,44,1003,-22,6,-3
1783,-99,-20,984,-33,-15,-6
1784,49,-94,999,-28,-25,-13
1785,136,-116,1007,-15,-14,-11
1786,138,-69,999,0,7,-5
1787,35,17,994,3,23,-4
1788,-103,62,1002,-7,23,1
1789,-160,54,992,-21,8,-2
1790,-110,-10,994,-34,-11,-7
1791,35,-86,1001,-27,-25,-11
1792,128,-117,1001,-15,-17,-11
1793,149,-75,996,-1,2,-7
1794,49,1,1002,3,22,-3
1795,-88,61,1001,-5,25,-1
1796,-161,57,988,-21,12,-3
1797,-116,0,989,-31,-10,-6
1798,11,-81,1006,-32,-24,-9
1799,119,-115,1002,-17,-18,-12
1800,156,-85,998,-5,0,-8
1801,59,-5,998,3,20,-2
1802,-69,53,1011,-2,24,-1
1803,-157,64,981,-18,13,-1
1804,-132,14,990,-31,-8,-6
1805,-1,-74,1005,-32,-24,-12
1806,108,-114,997,-20,-20,-11
1807,163,-91,998,-5,-3,-8
1808,68,-15,1004,4,20,-3
1809,-53,50,1006,-3,25,0
1810,-155,69,982,-16,15,0
1811,-138,23,997,-29,-5,-5
1812,-24,-68,996,-31,-22,-11
1813,105,-108,993,-20,-21,-11
1814,161,-102,999,-6,-5,-9
1815,84,-24,1010,2,18,-4
1816,-39,40,1008,0,26,-1
1817,-151,76,985,-12,19,1
1818,-141,23,997,-29,-3,-4
1819,-43,-57,996,-32,-21,-9
1820,96,-107,988,-23,-22,-10
1821,158,-102,1001,-10,-7,-9
1822,101,-36,1003,2,14,-4
1823,-26,37,1013,0,26,-1
1824,-141,72,986,-14,19,0
1825,-151,31,996,-26,-1,-3
1826,-59,-50,991,-34,-19,-9
1827,86,-102,1000,-23,-24,-11
1828,154,-103,995,-12,-10,-9
1829,113,-48,998,2,12,-4
1830,-6,34,1009,1,25,-1
1831,-132,69,993,-14,22,1
1832,-151,39,1000,-26,2,-4
1833,-82,-43,983,-33,-18,-8
1834,73,-98,1003,-23,-24,-12
1835,154,-110,1000,-10,-13,-10
1836,124,-54,996,1,9,-6
1837,11,27,1000,3,24,-2
1838,-121,73,1003,-8,24,1
1839,-158,40,998,-25,5,-4
1840,-95,-31,984,-32,-16,-8
1841,57,-92,1000,-26,-26,-11
1842,140,-112,1005,-14,-15,-10
1843,137,-66,1000,0,7,-5
1844,28,21,997,3,24,-4
1845,-109,67,998,-8,24,0
1846,-159,50,999,-23,5,-3
1847,-103,-15,989,-33,-12,-7
1848,38,-89,999,-28,-25,-11
1849,131,-116,1000,-15,-16,-11
1850,143,-75,998,-1,3,-6
1851,44,12,998,4,22,-4
1852,-96,62,1003,-6,25,0
1853,-163,58,987,-19,9,-2
1854,-115,-4,989,-32,-12,-6
1855,20,-85,1004,-31,-26,-10
1856,122,-116,996,-17,-19,-10
1857,155,-79,997,-2,0,-7
1858,57,0,1001,1,21,-1
1859,-76,54,1011,-3,25,-1
1860,-161,62,977,-20,12,-1
1861,-125,9,989,-29,-8,-6
1862,4,-80,1006,-30,-23,-10
1863,112,-113,998,-18,-20,-11
1864,164,-86,1000,-4,-3,-10
1865,65,-7,1005,4,18,-3
1866,-62,51,1006,-2,25,-1
1867,-151,64,986,-17,14,-2
1868,-137,18,990,-30,-7,-4
1869,-16,-71,1000,-31,-23,-10
1870,108,-115,997,-20,-21,-12
1871,159,-92,999,-6,-5,-9
1872,84,-17,1006,2,16,-4
1873,-45,43,1011,0,26,-1
1874,-149,68,979,-14,17,0
1875,-142,24,998,-28,-3,-4
1876,-36,-65,992,-34,-24,-10
1877,96,-110,992,-22,-23,-10
1878,163,-97,1001,-8,-7,-9
1879,94,-31,1006,2,16,-2
1880,-24,43,1010,0,26,-2
1881,-144,69,983,-15,19,0
1882,-146,33,997,-25,-3,-4
1883,-55,-58,996,-32,-19,-9
1884,83,-103,997,-25,-23,-11
1885,155,-104,993,-9,-10,-10
1886,105,-45,1001,3,13,-4
1887,-9,34,1005,2,24,-1
1888,-134,73,997,-11,21,0
1889,-153,35,996,-26,1,-4
1890,-76,-43,987,-34,-17,-8
1891,74,-99,1004,-26,-24,-11
1892,148,-111,996,-11,-11,-10
1893,121,-56,995,3,10,-6
1894,7,25,1001,2,24,-2
1895,-124,75,1001,-8,24,2
1896,-152,43,998,-25,5,-3
1897,-94,-31,984,-32,-15,-7
1898,58,-94,999,-25,-24,-11
1899,140,-115,1005,-14,-14,-12
1900,131,-63,997,-1,6,-7
1901,25,22,997,2,22,-3
1902,-108,67,997,-9,24,0
1903,-161,49,1001,-22,6,-4
1904,-100,-19,988,-34,-14,-9
1905,40,-92,1002,-27,-24,-12
1906,132,-111,1001,-15,-16,-10
1907,143,-69,1002,-1,2,-8
1908,41,11,994,3,21,-2
1909,-96,60,1007,-7,24,2
1910,-158,54,989,-21,10,-2
1911,-114,-5,989,-31,-11,-6
1912,26,-86,1005,-28,-25,-12
1913,118,-119,998,-16,-17,-11
1914,153,-75,995,-2,2,-8
1915,57,3,1007,2,22,-3
1916,-76,57,1009,-3,27,-1
1917,-155,63,981,-20,12,-2
1918,-124,5,987,-32,-10,-5
1919,2,-82,1007,-30,-24,-10
1920,112,-118,999,-19,-19,-11
1921,159,-86,996,-5,-3,-9
1922,71,-10,1004,3,18,-3
1923,-59,54,1006,-2,24,1
1924,-154,67,985,-18,15,0
1925,-137,16,993,-30,-5,-5
1926,-15,-75,998,-31,-22,-11
1927,105,-115,993,-20,-21,-12
1928,158,-91,1004,-4,-6,-10
1929,85,-16,1004,5,16,-3
1930,-46,43,1011,-1,25,0
1931,-144,72,980,-16,18,0
1932,-143,20,1001,-30,-3,-4
1933,-38,-62,992,-33,-21,-10
1934,98,-109,994,-22,-23,-10
1935,158,-98,995,-6,-7,-10
1936,94,-34,1008,3,15,-4
1937,-24,39,1012,0,24,-1
1938,-143,70,983,-13,19,1
1939,-147,32,996,-27,-2,-6
1940,-58,-53,996,-33,-19,-9
1941,87,-102,996,-25,-23,-11
1942,156,-106,994,-11,-9,-10
1943,110,-47,999,4,12,-6
1944,-6,36,1005,1,24,-1
1945,-132,75,1001,-11,21,1
1946,-150,37,995,-25,1,-3
1947,-73,-43,986,-32,-17,-8
1948,73,-99,1000,-24,-26,-10
1949,148,-109,999,-13,-12,-10
1950,123,-59,996,1,10,-5
1951,6,29,998,3,24,-2
1952,-120,73,1000,-9,22,0
1953,-152,39,1004,-26,4,-2
1954,-88,-29,979,-31,-16,-8
1955,59,-92,1002,-26,-24,-10
1956,141,-111,1005,-14,-13,-10
1957,133,-66,997,-1,7,-6
1958,25,20,994,2,23,-2
1959,-111,67,999,-7,24,1
1960,-152,46,996,-23,6,-4
1961,-105,-18,989,-31,-13,-6
1962,43,-86,1000,-27,-24,-12
1963,127,-118,1000,-15,-16,-11
1964,143,-70,996,0,3,-6
1965,44,10,1001,3,22,-3
1966,-93,58,1005,-6,25,-1
1967,-161,54,983,-19,10,-1
1968,-109,-2,993,-30,-11,-8
1969,16,-86,1004,-30,-25,-10
1970,121,-113,996,-16,-18,-12
1971,153,-85,999,-4,0,-8
1972,57,0,1001,3,20,-5
1973,-74,51,1010,-4,25,0
1974,-160,62,981,-18,12,-2
1975,-121,8,989,-31,-9,-6
1976,1,-77,1003,-31,-25,-10
1977,112,-114,1001,-19,-20,-11
1978,160,-86,998,-3,-3,-9
1979,66,-9,1001,2,18,-3
1980,-58,50,1008,-3,24,0
1981,-152,62,982,-18,16,-2
1982,-137,18,996,-29,-6,-6
1983,-15,-74,994,-32,-23,-10
1984,104,-112,997,-20,-20,-10
1985,159,-95,994,-6,-7,-9
1986,80,-18,1014,3,16,-5
1987,-37,43,1010,-2,24,-2
1988,-148,73,982,-15,17,1
1989,-140,23,1000,-27,-4,-5
1990,-42,-61,994,-32,-21,-9
1991,94,-106,992,-23,-23,-11
1992,156,-102,999,-8,-7,-10
1993,97,-32,1005,2,14,-5
1994,-24,40,1005,-1,25,-1
1995,-140,77,992,-12,19,-1
1996,-147,32,994,-28,-1,-4
1997,-60,-52,993,-32,-20,-9
1998,85,-104,1000,-24,-24,-10
1999,152,-107,995,-10,-10,-10
2000,111,-51,998,3,11,-5
2001,-6,35,1005,2,24,-3
2002,-129,76,1000,-11,22,0
2003,-150,39,997,-26,2,-4
2004,-78,-35,985,-33,-19,-8
2005,69,-98,1000,-26,-24,-11
2006,146,-111,1002,-12,-13,-11
2007,125,-60,999,1,9,-6
2008,11,27,997,2,24,-2
2009,-119,71,1004,-8,22,0
2010,-157,44,999,-24,4,-3
2011,-92,-26,984,-32,-17,-8
2012,51,-90,1002,-24,-25,-11
2013,137,-112,1002,-14,-14,-11
2014,139,-69,1001,-2,6,-6
2015,29,13,994,2,23,-2
2016,-105,65,997,-8,25,1
2017,-158,49,997,-22,7,-3
2018,-106,-12,991,-33,-11,-7
2019,37,-85,1001,-29,-24,-12
2020,123,-118,999,-17,-16,-10
2021,145,-73,995,-1,2,-7
2022,47,5,1002,0,22,-2
2023,-92,57,1006,-7,25,1
2024,-160,57,984,-20,11,-1
2025,-115,0,991,-31,-11,-7
2026,14,-82,1006,-30,-25,-11
2027,120,-114,998,-17,-20,-11
2028,153,-82,1001,-3,-1,-7
2029,59,-2,1000,3,21,-3
2030,-70,54,1010,-2,26,0
2031,-159,62,979,-17,12,-2
2032,-130,9,992,-32,-7,-5
2033,-3,-78,1003,-31,-22,-9
2034,109,-109,1001,-20,-20,-10
2035,161,-90,997,-6,-3,-9
2036,72,-12,1005,5,19,-3
2037,-50,46,1006,-2,25,-1
2038,-155,70,986,-17,17,1
2039,-136,17,994,-30,-5,-5
2040,-29,-71,998,-32,-22,-10
2041,101,-111,989,-21,-23,-11
2042,158,-94,1001,-6,-7,-9
2043,90,-26,1010,2,15,-5
2044,-34,43,1007,-2,25,-1
2045,-144,73,984,-13,18,-1
2046,-146,28,994,-27,-3,-5
2047,-44,-59,996,-34,-22,-11
2048,90,-108,994,-22,-23,-10
2049,158,-103,996,-11,-10,-9
2050,103,-42,998,4,13,-5
2051,-18,40,1009,2,24,-2
2052,-134,78,993,-14,20,1
2053,-147,32,995,-26,0,-3
2054,-69,-47,992,-32,-17,-10
2055,81,-102,1001,-26,-24,-12
2056,153,-105,997,-11,-11,-11
2057,114,-55,998,2,10,-5
2058,-1,34,1004,2,24,-2
2059,-126,71,998,-10,21,1
2060,-154,44,1001,-25,3,-3
2061,-83,-38,984,-34,-17,-8
2062,60,-94,1002,-25,-25,-10
2063,148,-112,1001,-13,-15,-11
2064,127,-64,1000,0,8,-6
2065,16,23,993,3,24,-3
2066,-113,65,999,-7,22,1
2067,-156,47,1001,-23,4,-3
2068,-95,-20,986,-34,-15,-7
2069,48,-91,1002,-26,-25,-11
2070,134,-113,1003,-14,-14,-11
2071,142,-69,1000,0,5,-6
2072,38,11,998,2,22,-3
2073,-101,60,999,-8,23,0
2074,-155,50,990,-21,8,-3
2075,-109,-9,996,-32,-13,-7
2076,28,-83,997,-29,-27,-11
2077,122,-115,1004,-15,-18,-11
2078,149,-70,997,-2,1,-7
2079,51,2,1003,2,20,-3
2080,-81,53,1009,-5,24,0
2081,-161,57,978,-20,11,-1
2082,-116,3,987,-29,-10,-7
2083,7,-81,1009,-28,-25,-10
2084,115,-114,997,-17,-18,-10
2085,155,-82,1001,-3,-1,-9
2086,62,-8,1002,3,18,-4
2087,-64,52,1007,-4,23,-1
2088,-150,60,982,-19,13,-2
2089,-132,14,992,-30,-6,-5
2090,-9,-75,999,-32,-22,-10
2091,105,-114,996,-19,-20,-11
2092,157,-87,999,-4,-5,-9
2093,75,-18,1003,3,18,-4
2094,-46,47,1013,0,24,-2
2095,-149,71,980,-16,16,1
2096,-136,21,999,-29,-4,-5
2097,-35,-64,993,-32,-21,-10
2098,97,-108,993,-21,-21,-10
2099,156,-100,999,-8,-7,-9
2100,88,-32,1009,3,16,-4
2101,-24,41,1011,0,26,-2
2102,-145,69,981,-14,18,-1
2103,-143,32,996,-26,-3,-4
2104,-52,-56,993,-31,-19,-8
2105,87,-103,997,-24,-22,-11
2106,156,-102,994,-10,-9,-10
2107,104,-43,998,1,13,-5
2108,-10,32,1008,1,23,-2
2109,-134,73,993,-11,21,1
2110,-149,31,997,-26,1,-4
2111,-74,-45,990,-32,-18,-8
2112,73,-96,1004,-25,-24,-11
2113,149,-107,996,-11,-12,-11
2114,119,-54,1000,2,10,-5
2115,9,27,999,0,23,-1
2116,-123,68,999,-10,23,0
2117,-155,40,1001,-24,4,-3
2118,-89,-30,981,-31,-16,-8
2119,62,-91,1000,-25,-25,-11
2120,139,-113,1007,-13,-14,-11
2121,134,-63,997,-1,7,-6
2122,23,19,995,2,24,-3
2123,-108,68,1000,-7,22,0
2124,-155,46,998,-23,7,-3
2125,-103,-19,992,-32,-13,-8
2126,43,-90,999,-26,-24,-11
2127,131,-116,1002,-14,-15,-11
2128,142,-68,997,1,3,-7
2129,41,11,1001,3,23,-3
2130,-93,60,1002,-5,24,0
2131,-164,54,987,-21,8,-1
2132,-109,-4,988,-32,-11,-7
2133,20,-87,1006,-29,-25,-10
2134,119,-114,998,-15,-19,-11
2135,153,-81,998,-1,1,-8
2136,51,5,1003,3,21,-3
2137,-74,55,1007,-5,24,0
2138,-157,63,985,-19,11,-2
2139,-123,3,982,-32,-11,-5
2140,3,-79,1009,-29,-24,-10
2141,112,-117,999,-19,-18,-11
2142,159,-81,999,-4,-2,-9
2143,69,-11,1005,4,19,-4
2144,-62,53,1006,-1,25,0
2145,-148,68,981,-16,14,-1
2146,-133,15,996,-29,-5,-6
2147,-16,-75,995,-32,-23,-11
2148,106,-112,994,-20,-20,-11
2149,155,-94,1000,-6,-5,-9
2150,81,-18,1007,5,17,-4
2151,-39,42,1010,-1,26,0
2152,-151,70,981,-16,17,0
2153,-136,23,1001,-29,-6,-6
2154,-40,-64,989,-33,-22,-10
2155,97,-107,996,-20,-23,-12
2156,158,-100,998,-6,-6,-9
2157,91,-31,1005,4,15,-5
2158,-20,40,1010,1,24,-1
2159,-144,74,991,-14,20,0
2160,-143,31,990,-27,-2,-4
2161,-58,-56,1001,-32,-19,-8
2162,85,-105,996,-25,-24,-11
2163,154,-104,994,-9,-10,-9
2164,109,-46,997,3,12,-5
2165,-6,34,1008,1,24,-2
2166,-129,77,994,-12,22,1
2167,-152,36,996,-27,2,-4
2168,-79,-45,987,-31,-19,-10
2169,68,-99,998,-26,-24,-9
2170,148,-110,998,-11,-13,-11
2171,123,-56,998,1,10,-6
2172,14,31,998,2,25,-2
2173,-119,75,998,-8,22,1
2174,-156,40,1004,-25,4,-4
2175,-92,-29,983,-34,-16,-8
2176,54,-95,998,-26,-24,-11
2177,141,-117,1005,-13,-14,-11
2178,137,-70,998,-1,7,-6
2179,27,20,996,3,24,-2
2180,-108,69,1003,-5,23,0
2181,-161,49,996,-23,7,-2
2182,-103,-14,990,-34,-14,-7
2183,37,-89,1006,-28,-25,-11
2184,130,-117,996,-15,-16,-12
2185,146,-75,999,0,3,-8
2186,45,9,1001,3,21,-2
2187,-92,60,1005,-5,25,1
2188,-161,58,984,-19,10,-3
2189,-115,-3,990,-31,-11,-6
2190,18,-83,1006,-29,-25,-10
2191,118,-118,997,-16,-18,-10
2192,153,-80,996,-3,0,-8
2193,58,0,1002,3,21,-3
2194,-75,54,1008,-4,25,-1
2195,-155,62,981,-19,12,-1
2196,-129,6,989,-31,-7,-5
2197,-1,-79,1000,-29,-24,-11
2198,113,-119,1000,-19,-20,-10
2199,156,-84,995,-6,-1,-8
2200,72,-10,1005,3,19,-3
2201,-57,49,1006,-2,24,-1
2202,-152,65,982,-17,16,0
2203,-136,19,997,-29,-5,-4
2204,-23,-72,996,-33,-23,-10
2205,105,-114,994,-20,-22,-11
2206,157,-97,999,-6,-6,-9
2207,86,-24,1009,4,15,-4
2208,-36,39,1009,-1,25,-1
2209,-144,74,984,-14,17,0
2210,-144,28,1000,-27,-4,-4
2211,-42,-56,993,-33,-22,-10
2212,95,-113,994,-23,-22,-10
2213,158,-101,999,-9,-7,-8
2214,98,-42,1001,1,14,-5
2215,-21,43,1010,0,24,-2
2216,-139,74,990,-14,19,2
2217,-146,37,994,-25,-1,-5
2218,-61,-51,995,-33,-18,-9
2219,79,-101,998,-26,-24,-10
2220,154,-109,995,-11,-11,-10
2221,112,-51,994,1,11,-5
2222,-4,29,1005,1,25,-2
2223,-126,73,1000,-10,22,1
2224,-157,37,995,-24,3,-2
2225,-77,-34,985,-32,-19,-9
2226,64,-97,1001,-27,-25,-9
2227,146,-111,998,-13,-13,-9
2228,125,-64,996,0,9,-5
2229,14,21,996,4,25,-2
2230,-119,70,999,-9,23,1
2231,-154,43,1002,-25,4,-4
2232,-97,-21,981,-32,-15,-8
2233,56,-92,1003,-26,-25,-10
2234,137,-113,1004,-16,-13,-10
2235,137,-70,999,-1,6,-6
2236,29,16,995,4,23,-4
2237,-108,64,1003,-5,23,0
2238,-156,50,996,-22,6,-3
2239,-105,-15,991,-33,-11,-7
2240,40,-84,1002,-30,-25,-11
2241,124,-117,1000,-17,-16,-12
2242,147,-71,996,-1,2,-8
2243,46,8,1005,2,22,-2
2244,-90,61,1001,-6,25,0
2245,-156,51,989,-20,10,-2
2246,-115,0,988,-30,-10,-5
2247,18,-82,1003,-28,-24,-10
2248,120,-115,1003,-17,-17,-10
2249,151,-80,994,-3,1,-6
2250,60,-1,1007,3,22,-3
2251,-74,51,1006,-4,26,0
2252,-157,65,982,-20,12,-1
2253,-124,6,987,-31,-9,-7
2254,-4,-75,1003,-30,-24,-11
2255,116,-114,996,-20,-21,-12
2256,153,-82,999,-5,-4,-8
2257,72,-10,1003,2,17,-4
2258,-55,45,1008,-3,26,-1
2259,-152,66,978,-18,16,0
2260,-136,18,1000,-30,-5,-4
2261,-23,-72,996,-32,-23,-9
2262,104,-110,993,-22,-22,-11
2263,160,-93,1000,-6,-5,-9
2264,83,-24,1009,3,17,-4
2265,-35,44,1009,-2,25,-2
2266,-150,68,987,-15,18,0
2267,-145,24,992,-29,-4,-6
2268,-40,-63,996,-33,-22,-10
2269,92,-105,994,-23,-22,-11
2270,160,-101,998,-9,-7,-10
2271,100,-34,1003,2,15,-5
2272,-20,38,1009,0,25,-2
2273,-137,73,989,-13,20,0
2274,-148,29,997,-26,0,-5
2275,-62,-53,993,-33,-18,-8
2276,79,-103,1000,-26,-24,-9
2277,153,-104,994,-11,-12,-10
2278,114,-50,1000,2,10,-5
2279,-3,35,1002,1,24,-2
2280,-127,72,1003,-12,21,0
2281,-153,35,993,-26,3,-3
2282,-81,-43,986,-32,-17,-9
2283,68,-96,1003,-25,-25,-11
2284,146,-112,994,-12,-12,-10
2285,126,-58,1000,1,8,-6
2286,13,29,994,3,24,-3
2287,-119,73,1002,-9,24,1
2288,-151,45,998,-23,3,-2
2289,-95,-32,987,-33,-15,-7
2290,56,-91,994,-24,-26,-11
2291,137,-116,1008,-14,-14,-10
2292,134,-67,996,0,7,-7
2293,29,17,998,3,23,-2
2294,-108,66,995,-7,23,0
2295,-160,52,1001,-22,7,-2
2296,-105,-15,988,-33,-14,-8
2297,36,-87,1004,-28,-24,-11
2298,129,-115,1001,-15,-17,-11
2299,143,-71,998,0,3,-8
2300,46,8,999,4,22,-3
2301,-90,58,1005,-6,25,1
2302,-160,55,985,-20,11,-1
2303,-115,0,990,-31,-10,-7
2304,18,-85,1006,-30,-25,-11
2305,120,-114,1000,-17,-19,-12
2306,153,-79,996,-3,0,-8
2307,60,0,1003,3,21,-3
2308,-73,53,1012,-3,25,0
2309,-159,61,978,-19,12,-1
2310,-125,5,987,-30,-8,-7
2311,-2,-81,1007,-30,-23,-10
2312,111,-114,999,-20,-18,-11
2313,159,-88,1000,-5,-1,-8
2314,70,-10,1002,3,19,-4
2315,-58,48,1008,-1,25,-1
2316,-151,68,978,-17,15,-1
2317,-139,22,997,-29,-6,-4
2318,-19,-72,995,-31,-24,-10
2319,100,-113,994,-21,-21,-11
2320,160,-95,998,-5,-6,-9
2321,81,-23,1008,4,17,-4
2322,-36,44,1005,1,25,-2
2323,-147,73,983,-14,18,0
2324,-143,28,999,-27,-4,-5
2325,-42,-61,990,-32,-22,-9
2326,96,-109,995,-22,-23,-11
2327,158,-101,995,-7,-6,-9
2328,99,-36,1007,4,15,-4
2329,-25,38,1012,0,25,-1
2330,-140,74,984,-13,20,0
2331,-146,32,998,-25,0,-4
2332,-58,-51,994,-33,-19,-8
2333,87,-104,1000,-24,-23,-11
2334,153,-103,995,-11,-9,-10
2335,109,-46,996,2,12,-5
2336,-5,32,1011,1,24,-3
2337,-130,73,999,-13,21,2
2338,-148,38,1000,-26,1,-2
2339,-81,-45,984,-33,-17,-9
2340,71,-94,1005,-25,-25,-11
2341,148,-111,1003,-13,-13,-10
2342,123,-58,995,1,9,-6
2343,11,25,1000,2,24,-2
2344,-121,72,998,-11,22,0
2345,-158,43,1001,-24,5,-3
2346,-91,-28,983,-33,-15,-8
2347,55,-93,998,-26,-24,-11
2348,136,-110,1002,-14,-14,-11
2349,134,-65,997,0,7,-6
2350,28,20,996,2,23,-4
2351,-108,65,996,-8,25,1
2352,-158,50,995,-23,8,-4
2353,-106,-16,990,-33,-13,-7
2354,36,-91,1002,-29,-24,-11
2355,128,-116,996,-15,-17,-11
2356,145,-72,1000,-1,2,-7
2357,47,8,997,3,22,-3
2358,-89,63,1006,-5,26,1
2359,-159,54,988,-20,9,-2
2360,-114,-2,990,-31,-10,-7
2361,17,-82,1006,-29,-24,-9
2362,115,-115,1001,-17,-18,-11
2363,155,-82,997,-4,-1,-8
2364,57,0,1004,2,20,-3
2365,-75,52,1010,-2,25,-2
2366,-154,60,981,-18,11,-3
2367,-128,11,989,-37,-11,-5
2368,0,-74,1005,-34,-26,-10
2369,110,-117,1001,-19,-17,-10
2370,157,-83,996,-6,-2,-8
2371,69,-12,1007,2,19,-3
2372,-55,50,1007,-3,23,0
2373,-151,63,981,-17,16,-1
2374,-136,18,997,-28,-6,-6
2375,-19,-72,996,-32,-22,-9
2376,101,-110,992,-21,-21,-12
2377,158,-92,1001,-4,-5,-9
2378,84,-21,1006,1,16,-4
2379,-39,44,1008,-1,25,-1
2380,-147,66,979,-15,18,0
2381,-142,25,1001,-29,-4,-4
2382,-43,-62,990,-32,-21,-9
2383,94,-105,995,-23,-22,-11
2384,156,-101,997,-9,-7,-10
2385,96,-34,1001,4,15,-4
2386,-20,31,1012,1,24,-2
2387,-142,75,984,-10,18,-1
2388,-149,33,996,-25,-2,-3
2389,-58,-47,993,-32,-20,-10
2390,80,-101,1003,-23,-24,-11
2391,160,-103,993,-11,-11,-11
2392,108,-53,1002,2,12,-4
2393,-3,33,1004,2,24,-3
2394,-129,71,1000,-12,23,2
2395,-151,39,996,-24,3,-4
2396,-78,-42,988,-33,-16,-9
2397,68,-91,1000,-24,-25,-11
2398,149,-108,1002,-13,-13,-11
2399,125,-58,998,1,10,-7
2400,12,24,998,2,25,-2
2401,-119,71,998,-9,24,1
2402,-159,41,1001,-24,4,-2
2403,-92,-27,984,-32,-16,-7
2404,53,-91,995,-27,-25,-10
2405,141,-109,1005,-13,-15,-11
2406,138,-65,999,-1,6,-6
2407,28,21,994,3,23,-4
2408,-104,64,996,-7,24,0
2409,-164,47,995,-22,8,-2
2410,-104,-16,988,-32,-13,-7
2411,36,-92,1005,-29,-25,-10
2412,127,-115,995,-13,-16,-10
2413,146,-72,1000,1,3,-7
2414,45,10,1000,4,21,-3
2415,-91,61,1005,-6,24,1
2416,-163,56,987,-22,10,-1
2417,-115,-3,989,-33,-11,-6
2418,18,-86,1004,-30,-24,-10
2419,118,-117,998,-15,-18,-10
2420,157,-81,997,0,1,-8
2421,59,-1,1005,4,20,-3
2422,-72,61,1009,-3,25,0
2423,-156,62,983,-20,11,-2
2424,-129,10,986,-31,-9,-7
2425,-3,-81,1007,-31,-24,-11
2426,115,-113,1000,-20,-21,-12
2427,155,-89,999,-3,-2,-8
2428,73,-8,1004,4,19,-4
2429,-56,47,1007,-2,26,-1
2430,-152,71,981,-16,16,-1
2431,-134,18,1000,-30,-6,-6
2432,-21,-68,993,-32,-22,-10
2433,102,-116,993,-20,-21,-12
2434,158,-94,1000,-5,-6,-11
2435,82,-24,1008,1,16,-4
2436,-35,46,1008,0,25,-2
2437,-146,70,982,-14,17,0
2438,-142,27,999,-29,-4,-5
2439,-37,-64,992,-32,-21,-9
2440,91,-107,995,-21,-21,-11
2441,158,-101,995,-10,-6,-10
2442,97,-36,1006,3,16,-4
2443,-22,38,1007,0,24,-1
2444,-140,72,990,-13,18,1
2445,-147,32,995,-25,-2,-4
2446,-57,-51,991,-34,-19,-9
2447,82,-99,1001,-24,-23,-10
2448,151,-103,994,-10,-11,-8
2449,113,-50,996,2,11,-4
2450,-7,31,1009,0,25,-2
2451,-129,73,996,-12,22,0
2452,-149,36,998,-26,2,-5
2453,-79,-41,986,-33,-18,-9
2454,70,-94,1000,-25,-24,-11
2455,149,-106,1004,-12,-11,-10
2456,120,-58,996,0,10,-4
2457,13,26,998,1,24,-3
2458,-119,68,998,-10,23,1
2459,-156,43,999,-24,4,-2
2460,-93,-31,983,-32,-14,-8
2461,54,-88,1000,-24,-24,-12
2462,143,-112,1002,-14,-15,-10
2463,136,-65,1003,-1,8,-6
2464,27,20,991,2,22,-2
2465,-106,65,999,-7,25,0
2466,-160,44,998,-22,8,-2
2467,-106,-17,988,-33,-13,-8
2468,40,-88,1004,-28,-24,-11
2469,129,-113,996,-14,-16,-11
2470,148,-70,999,-1,3,-6
2471,46,7,1000,3,21,-2
2472,-93,59,1003,-6,26,0
2473,-159,52,989,-19,10,-2
2474,-118,-2,989,-32,-10,-5
2475,20,-86,1005,-30,-24,-11
2476,118,-116,1001,-18,-16,-11
2477,151,-77,996,-4,1,-7
2478,61,-2,1003,2,20,-3
2479,-76,54,1011,-4,26,0
2480,-155,65,975,-19,11,-1
2481,-126,6,993,-31,-8,-8
2482,0,-77,1001,-30,-24,-11
2483,113,-117,998,-20,-20,-11
2484,156,-87,1000,-5,-2,-8
2485,68,-11,1000,2,18,-2
2486,-54,53,1007,-2,24,-1
2487,-155,63,982,-17,14,1
2488,-134,16,992,-29,-7,-6
2489,-20,-74,999,-32,-22,-10
2490,102,-109,992,-20,-22,-10
2491,160,-95,1002,-8,-5,-10
2492,82,-21,1006,2,16,-4
2493,-41,45,1009,-2,24,0
2494,-146,69,985,-15,17,0
2495,-144,25,997,-27,-5,-4
2496,-37,-68,991,-33,-21,-9
2497,92,-106,996,-20,-21,-10
2498,161,-101,994,-9,-8,-9
2499,97,-33,1009,2,16,-5
2500,-23,38,1008,0,25,-1
2501,-143,72,983,-14,19,0
2502,-143,32,997,-26,0,-3
2503,-58,-53,993,-33,-18,-9
2504,86,-99,1000,-22,-22,-11
2505,157,-107,991,-11,-9,-9
2506,109,-46,1000,0,11,-5
2507,-8,29,1006,0,23,-2
2508,-136,74,996,-11,22,1
2509,-146,36,997,-23,0,-3
2510,-77,-39,989,-31,-17,-8
2511,74,-94,998,-25,-25,-11
2512,151,-109,1001,-13,-13,-10
2513,120,-58,993,2,9,-6
2514,10,24,999,3,25,-2
2515,-124,71,1001,-10,22,1
2516,-157,43,998,-23,3,-1
2517,-90,-30,986,-32,-17,-8
2518,57,-92,999,-26,-25,-11
2519,145,-114,1003,-13,-13,-10
2520,132,-66,1000,-1,6,-6
2521,25,19,995,2,23,-3
2522,-107,65,996,-7,25,0
2523,-164,47,1001,-23,7,-3
2524,-102,-16,986,-32,-13,-7
2525,43,-90,1005,-27,-24,-11
2526,129,-113,1000,-14,-17,-11
2527,143,-71,996,-1,3,-7
2528,39,10,998,3,23,-3
2529,-97,60,1001,-7,25,1
2530,-158,54,991,-20,10,-2
2531,-116,-6,987,-31,-12,-7
2532,25,-85,1007,-28,-26,-12
2533,123,-116,1000,-16,-18,-11
2534,150,-75,993,-2,1,-7
2535,58,2,1004,2,20,-4
2536,-80,56,1009,-4,24,-1
2537,-156,59,980,-20,12,-1
2538,-124,5,991,-31,-8,-5
2539,3,-79,1002,-32,-23,-10
2540,117,-117,1002,-19,-19,-11
2541,157,-86,998,-5,-2,-8
2542,68,-7,1003,3,19,-4
2543,-58,52,1008,0,25,-2
2544,-158,65,981,-18,14,0
2545,-130,14,990,-29,-7,-6
2546,-14,-76,1005,-31,-22,-9
2547,108,-108,991,-21,-22,-10
2548,162,-94,1004,-7,-5,-9
2549,78,-17,1003,4,18,-3
2550,-44,47,1006,-3,26,-1
2551,-147,67,984,-17,17,-2
2552,-142,19,996,-28,-4,-5
2553,-30,-63,990,-32,-23,-9
2554,100,-107,995,-20,-23,-10
2555,160,-99,995,-7,-6,-8
2556,94,-31,1009,2,17,-4
2557,-31,40,1010,0,26,-2
2558,-147,72,983,-14,18,0
2559,-143,30,995,-27,-3,-4
2560,-55,-58,995,-33,-20,-9
2561,88,-105,995,-24,-24,-11
2562,156,-105,996,-9,-9,-11
2563,101,-38,997,3,13,-5
2564,-10,37,1011,1,25,-2
2565,-136,75,992,-13,20,2
2566,-150,35,997,-27,0,-4
2567,-69,-51,990,-34,-19,-9
2568,72,-99,1002,-25,-23,-10
2569,155,-107,995,-11,-12,-11
2570,117,-56,999,2,11,-5
2571,6,32,1001,4,23,-2
2572,-124,72,998,-11,22,0
2573,-155,41,1002,-25,3,-4
2574,-91,-36,979,-33,-17,-7
2575,60,-94,999,-26,-25,-12
2576,144,-115,1009,-12,-12,-10
2577,132,-61,993,0,8,-5
2578,21,23,996,3,24,-2
2579,-113,73,1003,-8,23,0
2580,-158,46,998,-24,6,-3
2581,-100,-18,985,-33,-13,-8
2582,47,-94,1000,-28,-26,-11
2583,136,-115,1001,-14,-16,-11
2584,142,-72,999,-1,3,-6
2585,38,14,997,2,21,-3
2586,-98,63,1000,-7,24,0
2587,-158,57,989,-21,9,-1
2588,-111,-4,993,-31,-13,-7
2589,29,-86,1002,-28,-24,-10
2590,126,-117,996,-17,-17,-11
2591,148,-77,996,-1,2,-8
2592,53,5,1006,3,21,-2
2593,-85,56,1006,-4,26,0
2594,-161,63,979,-18,11,-1
2595,-121,3,991,-30,-10,-6
2596,9,-80,1007,-31,-25,-10
2597,115,-118,997,-18,-19,-10
2598,156,-82,1000,-3,-1,-8
2599,63,-7,1001,3,21,-2
2600,-67,52,1008,-2,26,0
2601,-156,64,982,-18,13,-2
2602,-135,16,986,-29,-6,-6
2603,-2,-74,1008,-30,-23,-12
2604,105,-115,992,-20,-19,-10
2605,158,-89,998,-7,-5,-9
2606,78,-19,1008,3,18,-4
2607,-51,44,1004,-1,26,-1
2608,-146,64,983,-14,16,0
2609,-141,21,999,-27,-5,-5
2610,-27,-69,993,-32,-22,-9
2611,102,-110,995,-21,-21,-10
2612,158,-96,998,-8,-6,-9
2613,90,-27,1006,1,16,-4
2614,-31,41,1012,-1,25,-3
2615,-145,71,981,-14,19,0
2616,-143,28,999,-26,-4,-4
2617,-49,-54,991,-32,-21,-9
2618,91,-111,997,-23,-23,-10
2619,158,-102,996,-8,-9,-9
2620,102,-40,1003,2,14,-4
2621,-13,42,1011,1,25,-3
2622,-140,73,989,-14,20,1
2623,-151,34,994,-25,0,-4
2624,-66,-51,996,-32,-18,-8
2625,78,-104,999,-26,-25,-10
2626,155,-110,993,-11,-11,-11
2627,119,-50,998,1,10,-6
2628,-3,34,1004,2,24,-1
2629,-127,76,1000,-11,23,0
2630,-157,37,996,-25,3,-3
2631,-86,-40,985,-32,-16,-9
2632,64,-98,1001,-24,-25,-10
2633,149,-109,1003,-11,-14,-11
2634,129,-60,996,1,8,-5
2635,18,27,997,2,24,-2
2636,-119,72,1002,-9,23,0
2637,-157,43,998,-23,4,-3
2638,-98,-28,984,-32,-15,-8
2639,49,-91,1000,-25,-25,-12
2640,138,-116,1005,-16,-13,-10
2641,137,-65,999,0,6,-5
2642,34,17,996,2,23,-3
2643,-106,68,999,-6,25,1
2644,-162,49,996,-22,7,-2
2645,-106,-11,990,-31,-13,-8
2646,35,-87,999,-29,-25,-10
2647,131,-117,999,-15,-17,-13
2648,150,-73,997,0,3,-7
2649,48,11,998,3,21,-2
2650,-91,57,1008,-5,25,0
2651,-165,59,985,-20,11,-1
2652,-117,-1,988,-32,-10,-5
2653,19,-82,1006,-29,-25,-12
2654,125,-121,999,-17,-18,-10
2655,153,-79,992,-3,1,-8
2656,60,0,1006,3,21,-3
2657,-75,53,1008,-4,25,0
2658,-161,64,981,-19,12,-1
2659,-123,7,989,-30,-10,-5
2660,0,-80,1006,-32,-24,-10
2661,114,-116,997,-21,-19,-11
2662,158,-87,999,-4,-2,-9
2663,71,-11,1002,6,19,-4
2664,-59,53,1007,-2,26,0
2665,-153,62,984,-17,15,0
2666,-136,17,993,-29,-5,-6
2667,-16,-72,996,-31,-23,-11
2668,104,-111,996,-22,-20,-12
2669,161,-94,999,-6,-5,-8
2670,82,-21,1005,2,18,-4
2671,-41,44,1010,-1,27,-1
2672,-150,69,981,-15,17,0
2673,-143,25,999,-28,-4,-5
2674,-36,-66,993,-33,-21,-9
2675,94,-107,992,-21,-21,-11
2676,161,-98,997,-6,-7,-10
2677,95,-32,1008,4,16,-4
2678,-26,41,1008,1,25,-1
2679,-142,72,988,-13,19,0
2680,-148,31,996,-27,-2,-4
2681,-56,-57,990,-31,-20,-9
2682,86,-104,1000,-22,-25,-11
2683,158,-105,992,-10,-10,-10
2684,109,-43,995,3,12,-4
2685,-12,34,1014,0,26,-1
2686,-135,73,991,-13,21,1
2687,-149,37,993,-23,2,-3
2688,-76,-46,990,-32,-18,-8
2689,78,-99,1004,-24,-26,-10
2690,153,-111,994,-13,-12,-10
2691,119,-52,994,2,8,-6
2692,10,25,1005,2,24,-3
2693,-129,75,997,-10,23,2
2694,-151,41,1001,-24,4,-4
2695,-90,-32,986,-31,-16,-8
2696,63,-92,998,-25,-27,-12
2697,143,-113,1003,-14,-13,-10
2698,134,-65,1000,0,8,-6
2699,23,21,992,3,24,-1
2700,-113,71,1002,-8,23,1
2701,-163,50,998,-23,7,-2
2702,-103,-19,986,-46,-15,-6
2703,48,-92,998,-40,-27,-9
2704,136,-116,1005,-13,-16,-11
2705,144,-68,996,-2,4,-5
2706,36,14,997,3,23,-2
2707,-101,65,1004,-6,25,0
2708,-161,52,991,-21,9,-2
2709,-112,-8,992,-34,-13,-8
2710,29,-86,1001,-31,-26,-12
2711,124,-117,997,-16,-16,-11
2712,149,-75,995,-2,2,-8
2713,55,3,1004,3,21,-3
2714,-85,55,1006,-5,26,1
2715,-159,60,981,-20,11,-1
2716,-120,2,991,-30,-9,-7
2717,8,-81,1005,-30,-23,-10
2718,119,-114,1000,-18,-18,-10
2719,157,-83,999,-3,-1,-8
2720,63,-5,1000,1,21,-4
2721,-65,54,1010,-3,26,1
2722,-159,63,981,-18,13,0
2723,-128,11,989,-30,-7,-5
2724,-4,-79,1003,-31,-23,-10
2725,105,-113,997,-19,-20,-10
2726,165,-89,997,-5,-5,-9
2727,73,-15,1005,4,18,-4
2728,-51,51,1005,-2,25,-1
2729,-150,65,984,-18,16,-1
2730,-141,17,995,-28,-5,-4
2731,-24,-68,994,-32,-24,-9
2732,98,-112,995,-20,-23,-10
2733,160,-97,999,-7,-6,-10
2734,91,-21,1009,3,16,-5
2735,-36,41,1009,-1,25,-1
2736,-146,70,983,-15,17,0
2737,-147,29,996,-28,-4,-5
2738,-47,-59,992,-33,-22,-10
2739,94,-108,995,-23,-23,-11
2740,157,-102,996,-9,-8,-10
2741,102,-34,1002,3,13,-5
2742,-20,37,1013,1,26,-2
2743,-139,77,985,-13,20,0
2744,-150,32,997,-25,1,-4
2745,-64,-52,993,-34,-19,-9
2746,79,-102,1001,-24,-23,-9
2747,158,-105,991,-11,-11,-11
2748,113,-51,999,2,11,-5
2749,0,37,1004,2,25,-2
2750,-132,75,1001,-12,23,2
2751,-154,39,995,-27,2,-4
2752,-82,-37,987,-32,-18,-8
2753,67,-99,999,-25,-26,-11
2754,150,-110,1000,-13,-13,-11
2755,125,-61,997,0,9,-5
2756,16,27,997,2,24,-2
2757,-117,73,1003,-9,22,1
2758,-158,48,998,-24,5,-3
2759,-94,-29,986,-34,-13,-8
2760,53,-92,998,-26,-25,-10
2761,142,-117,1003,-13,-13,-11
2762,138,-69,1003,1,6,-7
2763,28,19,990,3,24,-2
2764,-105,71,999,-6,24,0
2765,-161,52,999,-23,6,-2
2766,-109,-9,984,-33,-14,-7
2767,41,-89,1006,-28,-25,-12
2768,126,-120,998,-18,-17,-11
2769,150,-75,998,0,2,-7
2770,47,6,1001,3,21,-4
2771,-94,63,1005,-5,25,1
2772,-157,56,986,-21,9,-2
2773,-120,0,988,-33,-10,-6
2774,19,-81,1005,-32,-25,-11
2775,122,-117,1001,-18,-19,-11
2776,148,-78,994,-2,0,-8
2777,61,-1,1004,3,20,-4
2778,-81,53,1013,-4,26,0
2779,-158,63,975,-19,10,-1
2780,-126,8,991,-30,-8,-7
2781,7,-79,1005,-29,-25,-12
2782,113,-112,995,-20,-20,-11
2783,161,-84,1003,-3,-2,-9
2784,65,-12,1004,4,19,-3
2785,-62,50,1005,-2,25,0
2786,-154,63,983,-17,15,-1
2787,-135,16,994,-30,-7,-5
2788,-15,-71,997,-31,-22,-10
2789,108,-113,997,-20,-21,-12
2790,160,-89,998,-5,-5,-8
2791,78,-18,1007,3,17,-3
2792,-46,44,1008,-2,25,0
2793,-149,66,984,-16,17,0
2794,-140,20,997,-28,-4,-5
2795,-39,-64,994,-33,-22,-10
2796,100,-109,993,-22,-23,-11
2797,156,-95,997,-7,-6,-10
2798,95,-30,1010,2,16,-5
2799,-24,36,1012,0,25,-2
2800,-148,74,977,-14,18,0
2801,-145,28,999,-27,-2,-5
2802,-55,-55,993,-32,-19,-9
2803,89,-103,993,-23,-23,-11
2804,159,-102,1002,-9,-9,-10
2805,104,-42,996,2,13,-5
2806,-10,34,1009,0,25,-2
2807,-135,73,996,-11,20,1
2808,-150,33,992,-26,0,-3
2809,-73,-47,991,-32,-19,-10
2810,70,-100,1000,-25,-25,-11
2811,155,-104,995,-10,-13,-10
2812,120,-57,1000,2,9,-4
2813,6,31,997,3,25,-2
2814,-123,71,1007,-11,23,1
2815,-160,40,996,-27,4,-3
2816,-87,-35,983,-32,-17,-8
2817,59,-92,1001,-26,-25,-11
2818,142,-111,1004,-13,-14,-10
2819,134,-64,999,-1,7,-7
2820,17,28,996,3,24,-1
2821,-107,70,997,-9,23,1
2822,-159,48,1003,-22,6,-2
2823,-102,-19,980,-33,-13,-7
2824,46,-89,1005,-28,-25,-10
2825,128,-117,1002,-13,-15,-10
2826,146,-70,996,-1,3,-6
2827,36,16,1000,2,22,-3
2828,-99,62,998,-8,25,1
2829,-158,55,995,-22,9,-3
2830,-114,-7,990,-32,-11,-7
2831,30,-88,1005,-29,-25,-11
2832,125,-119,996,-15,-17,-11
2833,147,-76,997,-2,1,-6
2834,56,2,1002,2,20,-3
2835,-83,57,1007,-5,25,0
2836,-159,64,981,-20,10,-1
2837,-122,5,990,-30,-9,-5
2838,10,-84,1008,-32,-25,-11
2839,117,-118,996,-19,-20,-9
2840,156,-83,1000,-4,-1,-8
2841,66,-6,998,3,19,-3
2842,-71,52,1013,-1,24,-1
2843,-155,64,977,-18,12,-1
2844,-131,15,992,-30,-8,-6
2845,-5,-78,997,-31,-24,-12
2846,109,-111,1002,-18,-19,-11
2847,159,-92,996,-5,-3,-9
2848,76,-16,1002,4,18,-4
2849,-49,48,1011,-2,26,-1
2850,-152,67,979,-16,16,-1
2851,-138,20,995,-28,-5,-4
2852,-26,-71,999,-32,-23,-10
2853,103,-106,988,-20,-22,-10
2854,161,-96,1002,-7,-6,-9
2855,86,-26,1006,2,16,-4
2856,-32,42,1008,-1,26,-1
2857,-148,69,985,-15,18,1
2858,-145,28,996,-28,-4,-4
2859,-44,-63,993,-31,-20,-10
2860,89,-105,994,-21,-22,-11
2861,161,-100,1000,-8,-9,-11
2862,102,-36,1005,2,14,-3
2863,-16,39,1008,0,25,-1
2864,-135,71,991,-12,20,0
2865,-150,33,994,-25,0,-4
2866,-65,-49,993,-34,-18,-8
2867,80,-99,1004,-25,-23,-12
2868,155,-108,990,-11,-11,-11
2869,112,-48,998,2,11,-5
2870,1,29,1008,1,24,-2
2871,-129,74,996,-11,22,1
2872,-150,38,1001,-24,2,-3
2873,-82,-35,984,-32,-18,-9
2874,65,-92,1001,-25,-27,-10
2875,146,-112,1000,-13,-13,-10
2876,126,-61,997,-1,7,-5
2877,15,21,1000,1,24,-2
2878,-117,71,997,-9,23,1
2879,-155,43,1002,-23,4,-3
2880,-96,-21,987,-32,-14,-6
2881,51,-88,997,-27,-24,-11
2882,139,-111,1007,-15,-15,-11
2883,134,-69,1000,-2,4,-6
2884,33,15,992,4,23,-3
2885,-105,60,1000,-6,24,2
2886,-163,49,996,-20,8,-2
2887,-107,-11,992,-31,-12,-7
2888,37,-85,1003,-28,-24,-11
2889,127,-111,1000,-15,-16,-10
2890,151,-73,999,-1,4,-7
2891,46,1,998,3,23,-3
2892,-91,58,1004,-5,26,0
2893,-161,55,985,-19,11,-2
2894,-119,-1,989,-30,-11,-6
2895,20,-85,1005,-30,-25,-10
2896,118,-113,1002,-16,-18,-12
2897,159,-77,995,-2,0,-9
2898,61,0,1005,2,21,-4
2899,-74,54,1008,-4,26,-1
2900,-159,62,977,-18,12,-1
2901,-129,8,989,-29,-9,-5
2902,-3,-82,1005,-31,-24,-10
2903,113,-112,999,-20,-20,-10
2904,160,-86,998,-5,-3,-8
2905,71,-9,1002,4,19,-5
2906,-55,49,1011,-3,25,-1
2907,-152,68,983,-17,15,-1
2908,-136,14,992,-31,-5,-4
2909,-20,-75,1002,-32,-24,-10
2910,101,-110,987,-21,-22,-10
2911,161,-91,1002,-6,-6,-10
2912,82,-20,1010,2,17,-4
2913,-38,45,1007,-2,25,-1
2914,-144,67,984,-15,19,-1
2915,-143,20,998,-28,-4,-4
2916,-40,-61,993,-33,-22,-9
2917,92,-108,996,-23,-24,-12
2918,158,-99,995,-7,-7,-10
2919,97,-37,1007,2,14,-3
2920,-21,38,1008,1,25,-2
2921,-141,75,989,-15,20,1
2922,-146,34,1000,-28,-2,-4
2923,-63,-52,989,-34,-20,-9
2924,85,-105,1001,-23,-23,-13
2925,154,-110,992,-10,-10,-10
2926,109,-47,993,4,11,-5
2927,-2,34,1011,1,24,-3
2928,-136,76,995,-12,21,3
2929,-148,40,993,-26,2,-3
2930,-78,-41,993,-31,-16,-8
2931,71,-94,997,-26,-25,-10
2932,149,-113,1004,-13,-12,-11
2933,121,-58,996,0,8,-5
2934,12,25,998,2,23,-2
2935,-119,75,998,-8,23,0
2936,-157,47,1002,-25,5,-3
2937,-92,-24,986,-35,-16,-7
2938,53,-91,998,-27,-25,-11
2939,141,-112,1007,-16,-15,-11
2940,135,-70,1000,-1,6,-6
2941,27,16,992,3,22,-4
2942,-105,65,1001,-8,22,1
2943,-160,50,995,-21,7,-2
2944,-101,-10,989,-32,-13,-6
2945,37,-83,1006,-29,-24,-10
2946,125,-116,994,-16,-15,-11
2947,144,-72,998,-2,3,-8
2948,44,6,1001,3,23,-3
2949,-90,57,1005,-4,25,-1
2950,-160,55,987,-21,10,-2
2951,-114,-2,990,-30,-10,-6
2952,18,-83,1005,-30,-25,-10
2953,120,-114,1002,-16,-19,-12
2954,156,-77,997,-3,-1,-9
2955,56,-2,999,1,21,-3
2956,-76,53,1009,-5,25,0
2957,-159,60,982,-21,12,-1
2958,-126,6,989,-31,-9,-6
2959,0,-78,1006,-29,-24,-11
2960,113,-115,997,-19,-18,-11
2961,157,-83,996,-4,-2,-8
2962,70,-9,1003,2,18,-3
2963,-58,50,1008,-5,25,-1
2964,-151,62,979,-18,15,0
2965,-135,15,996,-29,-6,-5
2966,-21,-75,992,-31,-24,-10
2967,104,-111,996,-19,-22,-11
2968,157,-90,999,-5,-7,-9
2969,84,-17,1011,2,17,-4
2970,-39,43,1010,-2,25,-2
2971,-146,68,979,-15,17,0
2972,-141,21,1000,-28,-4,-6
2973,-42,-64,991,-32,-22,-9
2974,91,-104,993,-21,-22,-11
2975,155,-100,995,-8,-8,-10
2976,95,-34,1007,2,14,-4
2977,-18,41,1006,2,24,-2
2978,-140,77,992,-13,19,1
2979,-146,30,995,-27,-2,-3
2980,-63,-52,994,-32,-20,-8
2981,85,-105,999,-22,-23,-11
2982,150,-109,997,-10,-10,-9
2983,114,-47,996,3,12,-4
2984,-3,32,1005,1,26,-2
2985,-132,79,1001,-11,22,0
2986,-147,36,995,-25,3,-4
2987,-77,-39,989,-32,-17,-8
2988,68,-98,996,-26,-25,-9
2989,143,-108,1004,-13,-13,-9
2990,125,-60,996,0,9,-5
2991,13,26,996,3,25,-2
2992,-116,66,1001,-9,22,0
2993,-156,47,1001,-23,5,-3
2994,-94,-23,986,-33,-15,-8
2995,52,-91,996,-27,-24,-11
2996,139,-115,1006,-14,-14,-11
2997,136,-70,997,-2,6,-6
2998,29,18,994,4,23,-3
2999,-102,63,1003,-9,22,-1
3000,-162,52,994,-22,8,-3
3001,-103,-11,988,-31,-12,-6
3002,36,-87,1008,-29,-24,-11
3003,126,-115,995,-16,-17,-11
3004,148,-75,998,-2,2,-6
3005,46,9,999,2,22,-4
3006,-88,53,1008,-5,25,0
3007,-158,57,982,-19,10,-2
3008,-119,0,991,-32,-11,-5
3009,17,-81,1005,-29,-26,-11
3010,116,-117,1000,-19,-17,-9
3011,156,-79,993,-4,1,-7
3012,59,-3,1007,4,21,-3
3013,-71,52,1005,-3,25,1
3014,-157,64,979,-19,13,-2
3015,-128,11,994,-30,-8,-6
3016,-4,-76,999,-32,-23,-10
3017,113,-112,999,-20,-20,-12
3018,159,-93,997,-5,-3,-9
3019,71,-13,1004,4,19,-5
3020,-55,46,1008,-1,25,-1
3021,-154,68,980,-16,14,-1
3022,-135,19,998,-30,-5,-6
3023,-26,-69,992,-32,-22,-10
3024,106,-109,993,-21,-22,-12
3025,157,-97,999,-8,-6,-8
3026,86,-26,1008,3,16,-4
3027,-35,39,1011,-1,26,-1
3028,-151,73,981,-15,17,1
3029,-142,25,999,-29,-4,-4
3030,-46,-58,993,-33,-21,-10
3031,92,-104,991,-22,-22,-11
3032,162,-103,1000,-9,-8,-10
3033,100,-38,999,4,14,-4
3034,-17,41,1009,1,24,-2
3035,-142,72,993,-13,20,1
3036,-146,31,991,-26,0,-5
3037,-62,-54,994,-33,-18,-9
3038,81,-100,1000,-24,-23,-10
3039,155,-106,995,-12,-11,-10
3040,115,-48,998,-8,13,-4
3041,-4,32,1003,1,25,-2
3042,-128,74,1002,-12,23,0
3043,-152,38,999,-25,2,-3
3044,-81,-38,983,-32,-17,-8
3045,69,-95,1003,-26,-24,-11
3046,141,-112,1003,-14,-12,-9
3047,127,-58,997,1,10,-6
3048,16,20,998,2,25,-3
3049,-118,72,999,-7,23,1
3050,-153,46,1001,-22,4,-3
3051,-96,-23,988,-32,-14,-8
3052,47,-92,996,-27,-26,-10
3053,138,-114,1007,-15,-14,-12
3054,137,-68,996,0,6,-7
3055,35,14,997,4,23,-3
3056,-102,62,1001,-7,25,0
3057,-159,51,991,-21,9,-2
3058,-107,-8,992,-33,-10,-7
3059,32,-87,1003,-29,-25,-12
3060,125,-115,997,-15,-17,-10
3061,149,-74,998,-2,3,-6
3062,50,5,1002,2,23,-2
3063,-84,55,1007,-6,25,1
3064,-158,58,982,-19,10,-1
3065,-116,0,985,-31,-11,-7
3066,12,-80,1009,-31,-24,-10
3067,117,-113,998,-20,-18,-10
3068,157,-80,999,-4,1,-8
3069,64,-5,1001,4,20,-4
3070,-67,52,1008,-4,25,0
3071,-151,62,980,-18,12,-1
3072,-131,11,994,-30,-8,-4
3073,-9,-75,999,-30,-23,-10
3074,109,-114,999,-20,-21,-11
3075,157,-88,996,-7,-4,-8
3076,76,-17,1005,3,19,-4
3077,-45,45,1010,-3,25,-1
3078,-152,69,980,-18,17,0
3079,-136,19,1001,-29,-3,-6
3080,-33,-68,993,-33,-22,-9
3081,100,-108,992,-21,-22,-10
3082,160,-97,1000,-8,-7,-10
3083,87,-27,1008,1,15,-4
3084,-29,43,1009,-2,26,-1
3085,-145,70,986,-14,18,0
3086,-144,27,997,-27,-2,-4
3087,-48,-57,991,-33,-21,-10
3088,89,-105,1000,-22,-24,-11
3089,154,-101,995,-10,-8,-10
3090,103,-42,997,3,14,-4
3091,-12,35,1010,1,25,-1
3092,-134,72,994,-13,20,1
3093,-148,35,995,-26,1,-4
3094,-70,-47,991,-32,-18,-9
3095,79,-102,999,-28,-24,-11
3096,148,-110,997,-10,-11,-10
3097,117,-51,995,1,9,-6
3098,6,30,1007,2,24,-3
3099,-120,72,994,-10,22,1
3100,-152,40,1003,-25,2,-4
3101,-85,-36,982,-32,-16,-9
3102,61,-89,999,-26,-24,-11
3103,144,-113,1007,-13,-12,-11
3104,127,-62,999,0,7,-6
3105,25,18,996,3,23,-3
3106,-114,67,997,-8,24,1
3107,-157,45,1002,-23,6,-2
3108,-96,-20,989,-33,-13,-6
3109,44,-91,1002,-28,-25,-11
3110,132,-115,997,-15,-15,-10
3111,141,-69,1001,0,6,-6
3112,38,11,997,3,23,-2
3113,-98,60,1001,-7,23,0
3114,-156,57,990,-19,9,-2
3115,-111,-7,986,-33,-11,-6
3116,28,-84,1005,-29,-26,-9
3117,120,-116,1001,-17,-17,-10
3118,148,-76,995,-2,3,-9
3119,56,0,1002,2,21,-4
3120,-78,53,1009,-6,24,-1
3121,-155,63,977,-19,11,-1
3122,-121,9,990,-30,-9,-6
3123,0,-80,1006,-32,-24,-10
3124,115,-114,998,-20,-18,-11
3125,152,-86,1001,-5,-1,-8
3126,69,-11,999,4,19,-4
3127,-60,47,1010,-1,24,0
3128,-153,70,978,-16,14,-1
3129,-133,15,1000,-30,-6,-5
3130,-15,-71,996,-31,-23,-10
3131,104,-110,993,-20,-22,-9
3132,157,-90,996,-5,-4,-8
3133,81,-23,1011,3,17,-4
3134,-40,46,1007,-1,26,-2
3135,-147,68,983,-16,17,0
3136,-138,24,1000,-27,-4,-6
3137,-40,-63,994,-31,-22,-10
3138,100,-106,994,-23,-22,-11
3139,155,-100,1000,-8,-7,-10
3140,95,-31,1001,3,14,-4
3141,-22,39,1010,0,25,-1
3142,-142,75,990,-11,18,2
3143,-143,31,994,-27,-2,-2
3144,-57,-56,993,-33,-20,-9
3145,80,-101,1000,-24,-23,-10
3146,155,-108,992,-12,-10,-10
3147,108,-51,999,3,13,-5
3148,-5,32,1005,2,24,-2
3149,-127,76,998,-10,22,1
3150,-152,40,997,-25,3,-4
3151,-78,-39,983,-33,-17,-8
3152,66,-99,1000,-25,-24,-10
3153,144,-112,999,-12,-12,-10
3154,124,-61,998,1,9,-5
3155,12,24,995,2,24,-3
3156,-117,70,998,-7,22,1
3157,-156,48,1002,-24,4,-3
3158,-92,-25,983,-33,-15,-8
3159,51,-93,999,-27,-24,-10
3160,136,-116,1006,-14,-14,-10
3161,137,-68,1000,1,5,-8
3162,31,17,996,4,22,-3
3163,-105,63,1000,-8,23,0
3164,-156,52,994,-23,6,-2
3165,-104,-12,992,-33,-12,-6
3166,34,-87,998,-30,-24,-11
3167,122,-120,1000,-16,-17,-12
3168,150,-74,995,-1,2,-8
3169,46,6,1005,2,22,-2
3170,-84,60,1006,-5,26,-1
3171,-161,60,985,-21,12,0
3172,-116,-2,985,-31,-10,-7
3173,13,-84,1008,-30,-24,-10
3174,115,-117,1000,-18,-18,-10
3175,154,-80,998,-4,-1,-8
3176,63,-2,1002,5,21,-4
3177,-73,55,1005,-1,24,0
3178,-149,65,980,-18,12,-1
3179,-129,11,993,-31,-7,-5
3180,-6,-74,999,-32,-22,-10
3181,107,-118,999,-21,-19,-11
3182,158,-92,996,-5,-5,-9
3183,72,-19,1008,3,18,-4
3184,-45,47,1009,-2,25,-2
3185,-148,69,982,-15,16,0
3186,-136,24,1000,-29,-5,-5
3187,-32,-68,993,-32,-21,-10
3188,98,-109,995,-22,-22,-10
3189,157,-101,996,-6,-7,-9
3190,89,-31,1006,3,16,-6
3191,-29,42,1008,-2,24,-2
3192,-141,73,985,-14,17,-1
3193,-142,31,997,-27,-2,-5
3194,-51,-53,993,-33,-20,-8
3195,87,-105,1002,-24,-23,-12
3196,151,-102,992,-9,-8,-9
3197,100,-44,998,3,14,-4
3198,-15,37,1008,1,25,-2
3199,-133,72,995,-14,19,1
3200,-145,36,996,-24,2,-5
3201,-74,-45,988,-34,-18,-8
3202,75,-96,1001,-24,-25,-11
3203,145,-106,1000,-11,-11,-11
3204,119,-53,996,1,10,-6
3205,3,29,998,1,25,-2
3206,-119,73,998,-10,23,0
3207,-152,39,1000,-26,3,-2
3208,-89,-29,985,-32,-15,-8
3209,56,-96,998,-26,-24,-11
3210,136,-111,1007,-14,-13,-11
3211,132,-65,1002,-1,5,-6
3212,27,19,993,2,22,-3
3213,-104,68,1000,-8,23,1
3214,-157,51,996,-23,8,-3
3215,-103,-17,991,-34,-13,-8
3216,39,-90,1000,-30,-25,-11
3217,122,-116,1001,-15,-15,-10
3218,146,-70,996,2,3,-7
3219,43,10,1003,2,22,-3
3220,-90,60,1006,-5,25,-1
3221,-156,56,985,-20,11,-1
3222,-113,0,986,-31,-10,-5
3223,15,-83,1007,-31,-24,-10
3224,117,-118,999,-18,-17,-10
3225,148,-82,1000,-4,-1,-8
3226,58,-1,1002,4,20,-3
3227,-72,52,1008,-2,24,0
3228,-152,65,979,-19,11,-1
3229,-125,13,993,-30,-8,-6
3230,-5,-76,1002,-30,-22,-9
3231,108,-116,994,-22,-19,-11
3232,154,-90,998,-5,-3,-9
3233,70,-15,1004,4,17,-3
3234,-50,46,1007,-2,25,-2
3235,-148,69,981,-15,15,-1
3236,-135,20,997,-28,-5,-5
3237,-28,-67,993,-31,-22,-9
3238,100,-112,991,-18,-22,-11
3239,155,-98,1000,-6,-6,-9
3240,88,-26,1007,1,16,-3
3241,-33,44,1010,1,26,-2
3242,-139,72,983,-14,17,0
3243,-141,29,998,-26,-2,-4
3244,-50,-61,993,-34,-20,-9
3245,92,-106,1002,-23,-22,-12
3246,152,-101,990,-11,-8,-9
3247,103,-38,1000,4,14,-5
3248,-12,34,1008,2,24,-2
3249,-138,75,993,-11,21,1
3250,-144,33,1000,-25,1,-4
3251,-73,-44,988,-33,-17,-8
3252,77,-97,1001,-24,-25,-10
3253,146,-108,999,-11,-11,-10
3254,114,-58,997,2,10,-5
3255,6,28,997,5,25,-1
3256,-124,73,1003,-9,23,0
3257,-151,42,999,-25,3,-3
3258,-86,-27,987,-32,-15,-6
3259,56,-93,995,-28,-24,-11
3260,138,-109,1009,-14,-12,-12
3261,132,-67,998,-1,7,-6
3262,22,20,990,3,23,-3
3263,-104,62,1001,-7,22,0
3264,-159,50,995,-20,5,-1
3265,-95,-15,993,-31,-15,-7
3266,35,-89,1002,-28,-23,-9
3267,127,-111,998,-16,-15,-11
3268,143,-73,998,-2,4,-8
3269,41,9,1002,3,21,-3
3270,-88,56,1005,-5,24,1
3271,-158,56,981,-18,10,-2
3272,-112,-1,989,-30,-12,-7
3273,18,-81,1006,-29,-25,-11
3274,117,-113,995,-16,-18,-11
3275,151,-76,998,-3,0,-8
3276,57,-1,1002,3,21,-3
3277,-74,54,1008,-2,24,-1
3278,-151,61,981,-19,13,-1
3279,-124,7,989,-28,-7,-7
3280,-1,-77,1003,-30,-22,-10
3281,108,-113,998,-20,-19,-11
3282,152,-85,999,-4,-4,-9
3283,71,-12,1007,4,18,-3
3284,-48,49,1007,-2,25,-2
3285,-148,67,981,-17,16,-1
3286,-133,18,1000,-28,-6,-5
3287,-26,-69,991,-33,-22,-9
3288,99,-110,994,-21,-20,-11
3289,156,-96,999,-7,-6,-9
3290,82,-26,1007,3,17,-5
3291,-30,41,1007,-1,25,-2
3292,-146,71,986,-14,17,0
3293,-140,27,995,-26,-4,-5
3294,-49,-62,995,-32,-20,-10
3295,89,-104,996,-23,-23,-12
3296,151,-103,994,-9,-7,-9
3297,100,-39,1001,2,14,-4
3298,-16,35,1005,1,25,-2
3299,-131,75,997,-13,20,0
3300,-148,33,998,-26,-1,-4
3301,-70,-46,988,-33,-18,-9
3302,75,-101,1001,-25,-24,-11
3303,144,-108,998,-11,-12,-10
3304,116,-56,997,0,10,-5
3305,6,27,999,2,23,-3
3306,-123,78,999,-10,22,0
3307,-149,38,1002,-24,4,-4
3308,-84,-30,987,-32,-17,-8
3309,59,-94,993,-27,-25,-9
3310,139,-111,1008,-13,-12,-12
3311,129,-66,997,1,7,-6
3312,22,24,993,4,23,-3
3313,-105,65,999,-9,22,1
3314,-159,46,999,-22,5,-2
3315,-95,-15,987,-33,-14,-8
3316,40,-92,1004,-27,-24,-11
3317,125,-114,998,-13,-16,-10
3318,142,-70,996,0,2,-7
3319,40,10,1002,2,22,-2
3320,-90,60,1005,-7,26,0
3321,-154,53,985,-20,10,-1
3322,-112,-4,988,-30,-12,-6
3323,23,-83,1006,-32,-25,-10
3324,115,-116,1000,-17,-17,-10
3325,150,-77,997,-4,1,-8
3326,55,0,1004,4,21,-1
3327,-70,56,1007,-3,24,-1
3328,-153,63,978,-19,13,-3
3329,-126,10,994,-31,-8,-6
3330,-3,-81,1001,-32,-23,-11
3331,109,-113,997,-19,-19,-12
3332,153,-86,998,-5,-3,-8
3333,68,-13,1006,4,17,-5
3334,-52,48,1006,-2,23,-2
3335,-153,69,981,-16,15,0
3336,-132,17,1000,-28,-5,-5
3337,-26,-70,994,-32,-22,-9
3338,100,-110,989,-20,-21,-11
3339,158,-97,1002,-8,-6,-9
3340,85,-26,1010,2,16,-5
3341,-31,43,1009,-1,25,-1
3342,-141,71,984,-15,18,1
3343,-144,27,998,-28,-3,-5
3344,-46,-61,992,-33,-19,-10
3345,88,-106,1001,-23,-23,-10
3346,157,-105,994,-10,-9,-9
3347,99,-39,1000,3,13,-4
3348,-11,40,1008,2,24,-2
3349,-137,73,997,-12,20,0
3350,-147,33,995,-27,-1,-5
3351,-69,-50,986,-34,-19,-8
3352,74,-97,1004,-23,-24,-10
3353,151,-110,998,-12,-12,-10
3354,114,-50,996,2,10,-4
3355,5,29,997,1,24,-3
3356,-124,74,1005,-9,23,1
3357,-150,41,999,-26,3,-2
3358,-86,-32,987,-34,-16,-8
3359,61,-97,996,-25,-24,-12
3360,137,-112,1007,-13,-13,-10
3361,133,-63,1000,-2,6,-6
3362,23,25,995,3,24,-2
3363,-106,67,998,-9,24,1
3364,-159,48,997,-22,7,-2
3365,-96,-18,992,-32,-14,-7
3366,42,-90,1001,-28,-25,-9
3367,125,-118,998,-15,-16,-10
3368,139,-72,997,-1,2,-7
3369,39,11,1001,1,20,-2
3370,-90,58,1004,-6,25,0
3371,-157,57,985,-21,10,-1
3372,-110,-4,988,-31,-11,-7
3373,20,-82,1010,-30,-24,-11
3374,116,-118,996,-21,-18,-10
3375,154,-78,997,4,5,-8
3376,55,-5,1002,3,22,-4
3377,-75,55,1006,-3,25,-2
3378,-149,63,981,-15,10,-2
3379,-125,10,990,-31,-7,-6
3380,0,-78,1001,-31,-24,-10
3381,111,-113,999,-20,-20,-11
3382,152,-87,998,-6,-2,-8
3383,70,-10,1003,4,19,-4
3384,-50,48,1011,-1,25,-1
3385,-148,69,978,-17,14,0
3386,-131,17,1002,-27,-6,-6
3387,-27,-69,993,-34,-23,-10
3388,101,-111,992,-21,-22,-11
3389,154,-96,998,-6,-6,-9
3390,84,-25,1010,1,15,-5
3391,-27,41,1007,-1,24,-2
3392,-143,72,984,-14,18,1
3393,-138,27,996,-28,-3,-5
3394,-45,-64,995,-33,-20,-10
3395,87,-101,998,-23,-22,-11
3396,154,-103,994,-10,-8,-11
3397,101,-39,1002,3,12,-6
3398,-14,33,1006,1,24,-1
3399,-133,75,996,-13,20,1
3400,-144,28,996,-28,0,-4
3401,-67,-44,988,-32,-18,-9
3402,77,-99,1003,-25,-25,-11
3403,147,-105,1000,-10,-11,-11
3404,115,-54,1000,2,9,-5
3405,2,33,998,2,25,-2
3406,-118,69,1002,-11,21,0
3407,-148,38,1001,-25,3,-3
3408,-87,-36,983,-32,-16,-8
3409,62,-96,999,-24,-25,-12
3410,133,-110,1008,-12,-12,-11
3411,131,-60,996,0,6,-5
3412,22,23,996,2,22,-3
3413,-106,69,997,-8,23,-1
3414,-155,46,998,-24,6,-2
3415,-95,-17,990,-32,-13,-6
3416,37,-92,1002,-28,-23,-10
3417,126,-117,999,-16,-15,-11
3418,140,-69,995,0,2,-7
3419,41,13,1000,3,21,-4
3420,-91,61,1006,-7,25,0
3421,-154,56,985,-21,10,-2
3422,-111,-3,989,-31,-11,-7
3423,20,-86,1007,-29,-24,-11
3424,117,-117,998,-16,-16,-11
3425,150,-78,997,-1,1,-8
3426,53,3,1004,4,20,-3
3427,-71,56,1008,-4,24,0
3428,-150,64,979,-19,12,-2
3429,-124,8,991,-32,-8,-4
3430,0,-81,1001,-31,-22,-10
3431,108,-114,999,-18,-18,-11
3432,150,-84,997,-4,-2,-8
3433,69,-9,1011,5,18,-4
3434,-48,48,1004,-2,25,-1
3435,-152,69,981,-17,17,-1
3436,-128,18,1001,-30,-5,-5
3437,-31,-73,994,-33,-20,-9
3438,103,-113,988,-19,-21,-12
3439,150,-96,1003,-6,-5,-9
3440,88,-22,1005,3,17,-4
3441,-36,39,1012,0,26,-2
3442,-144,77,985,-13,18,0
3443,-140,24,995,-28,-3,-4
3444,-46,-60,995,-33,-21,-9
3445,87,-109,997,-23,-21,-9
3446,155,-104,994,-7,-7,-9
3447,97,-44,1000,3,13,-5
3448,-13,44,1005,2,23,-2
3449,-131,74,998,-13,20,1
3450,-146,37,998,-26,1,-4
3451,-67,-48,986,-32,-18,-9
3452,76,-103,1005,-24,-23,-11
3453,144,-110,996,-11,-11,-9
3454,119,-53,1001,1,10,-7
3455,0,29,998,5,25,-2
3456,-120,78,1001,-10,21,-1
3457,-149,41,1002,-24,1,-5
3458,-88,-28,979,-33,-18,-7
3459,62,-93,1002,-27,-25,-11
3460,135,-117,1003,-15,-12,-10
3461,129,-65,999,-1,7,-6
3462,25,18,995,2,23,-3
3463,-111,65,996,-8,23,1
3464,-147,48,997,-21,6,-2
3465,-101,-13,992,-32,-13,-7
3466,44,-89,1000,-28,-25,-12
3467,126,-116,1000,-15,-15,-11
3468,137,-69,995,0,3,-6
3469,45,6,1002,2,21,-4
3470,-91,57,1007,-6,24,0
3471,-156,58,980,-20,9,-2
3472,-109,-1,995,-31,-11,-7
3473,16,-84,1006,-32,-24,-10
3474,119,-114,998,-17,-17,-11
3475,149,-79,999,-3,0,-8
3476,55,0,1001,3,20,-3
3477,-71,54,1007,-3,24,0
3478,-156,64,979,-19,12,-3
3479,-122,10,994,-31,-8,-6
3480,-3,-78,1002,-31,-23,-10
3481,109,-111,999,-18,-19,-11
3482,152,-86,998,-5,-3,-8
3483,70,-15,1005,5,18,-5
3484,-53,48,1006,-2,25,0
3485,-149,66,982,-17,16,0
3486,-128,15,1000,-29,-5,-6
3487,-25,-69,993,-32,-21,-9
3488,98,-112,992,-21,-21,-11
3489,154,-93,1001,-6,-6,-10
3490,83,-27,1008,2,17,-4
3491,-32,45,1009,0,25,-2
3492,-142,71,984,-14,17,1
3493,-136,25,997,-28,-4,-4
3494,-48,-60,995,-33,-20,-9
3495,89,-105,999,-23,-22,-11
3496,150,-103,995,-11,-7,-10
3497,99,-38,998,3,12,-5
3498,-16,38,1007,0,22,-1
3499,-130,75,997,-12,19,0
3500,-143,31,996,-25,0,-4
3501,-68,-47,986,-32,-17,-9
3502,76,-99,1000,-24,-24,-11
3503,148,-106,998,-12,-11,-10
3504,113,-53,997,1,9,-6
3505,3,31,997,1,23,-3
3506,-118,72,1001,-10,21,0
3507,-148,40,1001,-26,2,-4
3508,-86,-33,985,-33,-16,-8
3509,57,-92,997,-26,-24,-11
3510,135,-114,1005,-13,-12,-10
3511,128,-63,998,1,7,-7
3512,20,20,994,3,22,-4
3513,-103,68,997,-5,23,0
3514,-155,47,995,-23,6,-2
3515,-96,-15,991,-32,-13,-7
3516,37,-93,1004,-29,-24,-11
3517,123,-114,997,-15,-17,-10
3518,142,-70,998,0,2,-8
3519,40,11,1001,3,21,-3
3520,-93,60,1007,-6,24,0
3521,-155,55,982,-21,9,-2
3522,-111,-3,990,-31,-12,-5
3523,18,-83,1003,-30,-24,-9
3524,117,-115,1001,-15,-17,-10
3525,151,-79,999,-3,1,-7
3526,53,0,997,2,21,-3
3527,-70,55,1012,-3,24,-1
3528,-150,62,977,-19,12,-1
3529,-122,7,991,-31,-7,-6
3530,-5,-78,1004,-30,-22,-10
3531,107,-115,993,-18,-19,-11
3532,152,-87,999,-4,-2,-10
3533,69,-14,1006,4,16,-2
3534,-48,49,1010,-2,24,-1
3535,-146,65,981,-16,15,0
3536,-136,18,1001,-29,-4,-4
3537,-26,-73,993,-31,-22,-10
3538,97,-110,992,-19,-21,-10
3539,154,-93,997,-5,-6,-9
3540,85,-29,1008,2,16,-4
3541,-27,46,1007,0,25,-2
3542,-141,72,987,-15,17,0
3543,-138,27,994,-26,-3,-6
3544,-52,-61,996,-32,-20,-9
3545,86,-104,995,-23,-23,-10
3546,151,-102,996,-9,-9,-10
3547,102,-42,998,2,11,-5
3548,-11,37,1007,1,23,-4
3549,-130,72,998,-12,20,0
3550,-146,34,995,-27,1,-3
3551,-68,-46,985,-33,-18,-8
3552,70,-99,1002,-25,-24,-11
3553,144,-106,998,-10,-12,-10
3554,117,-57,998,1,9,-6
3555,6,33,996,2,25,-2
3556,-115,70,1000,-9,22,0
3557,-148,41,1001,-24,2,-3
3558,-87,-29,982,-33,-16,-8
3559,60,-96,1002,-25,-24,-11
3560,131,-115,1002,-14,-12,-10
3561,131,-61,1003,0,6,-7
3562,29,18,992,4,22,-3
3563,-106,69,1000,-8,23,1
3564,-150,50,996,-22,8,-3
3565,-100,-13,991,-33,-12,-7
3566,39,-92,1005,-30,-24,-10
3567,121,-117,994,-15,-15,-10
3568,140,-72,996,-1,2,-7
3569,43,8,1004,3,20,-3
3570,-88,61,1007,-5,25,-1
3571,-150,58,980,-21,10,-3
3572,-111,-1,991,-29,-11,-6
3573,14,-84,1005,-30,-23,-11
3574,116,-114,1000,-19,-17,-10
3575,149,-82,999,-3,-1,-7
3576,54,-1,999,1,19,-3
3577,-66,50,1011,-3,23,-1
3578,-151,63,977,-18,12,0
3579,-122,14,997,-32,-9,-6
3580,-6,-81,1000,-30,-21,-11
3581,103,-111,993,-19,-20,-10
3582,153,-89,998,-4,-3,-8
3583,66,-15,1011,2,17,-4
3584,-43,45,1008,-3,24,-1
3585,-147,70,983,-15,16,-1
3586,-131,17,997,-28,-5,-5
3587,-31,-67,995,-33,-22,-9
3588,96,-108,992,-22,-21,-10
3589,152,-98,996,-7,-7,-10
3590,90,-28,1008,3,15,-4
3591,-28,43,1006,1,24,-2
3592,-136,74,989,-13,16,-1
3593,-138,25,997,-27,-2,-4
3594,-57,-56,988,-32,-18,-7
3595,89,-107,1002,-25,-21,-11
3596,143,-102,994,-11,-8,-9
3597,106,-44,995,2,11,-5
3598,-7,34,1008,1,23,-3
3599,-129,76,1000,-11,20,0
3600,-142,33,995,-27,1,-5
3601,-75,-46,986,-32,-17,-8
3602,68,-98,998,-25,-25,-10
3603,143,-112,1003,-12,-13,-12
3604,119,-58,1001,1,9,-5
3605,12,31,994,2,24,-3
3606,-114,71,996,-9,24,0
3607,-151,43,1003,-24,3,-3
3608,-89,-27,985,-33,-15,-7
3609,51,-97,1000,-27,-23,-11
3610,132,-118,1002,-15,-14,-10
3611,132,-64,1000,0,4,-6
3612,31,21,997,4,22,-3
3613,-100,64,1003,-8,23,1
3614,-155,55,992,-21,7,-2
3615,-102,-9,991,-33,-13,-7
3616,34,-91,1005,-30,-24,-11
3617,118,-117,999,-16,-17,-9
3618,146,-76,991,-1,1,-8
3619,50,6,1008,5,21,-4
3620,-83,60,1003,-4,24,0
3621,-151,61,983,-19,11,-2
3622,-112,3,990,-31,-9,-6
3623,9,-82,1002,-29,-23,-9
3624,114,-118,998,-19,-18,-11
3625,148,-84,999,-3,-2,-8
3626,62,-7,999,5,18,-4
3627,-62,50,1010,-3,24,-1
3628,-151,71,982,-18,13,-1
3629,-122,12,995,-31,-6,-5
3630,-13,-73,999,-32,-22,-11
3631,104,-112,987,-20,-19,-11
3632,155,-91,1005,-5,-4,-10
3633,73,-18,1008,3,17,-2
3634,-41,44,1009,-2,25,-2
3635,-145,69,983,-15,16,-1
3636,-135,24,996,-28,-5,-4
3637,-34,-64,994,-32,-22,-9
3638,93,-107,997,-21,-23,-11
3639,152,-101,994,-8,-7,-9
3640,95,-34,1006,4,15,-4
3641,-27,38,1009,2,24,-1
3642,-133,74,989,-13,18,0
3643,-143,29,997,-27,0,-4
3644,-61,-51,990,-32,-20,-8
3645,86,-104,1000,-24,-24,-11
3646,147,-104,996,-11,-10,-10
3647,111,-46,994,3,12,-5
3648,-4,36,1007,2,24,-3
3649,-131,75,998,-12,22,0
3650,-147,36,995,-26,2,-4
3651,-82,-43,986,-34,-18,-8
3652,68,-96,999,-24,-25,-11
3653,148,-114,1003,-12,-13,-11
3654,121,-61,999,0,9,-5
3655,18,27,994,3,24,-3
3656,-114,70,1000,-8,22,0
3657,-157,47,997,-23,3,-4
3658,-90,-24,992,-32,-14,-9
3659,49,-94,1001,-27,-23,-12
3660,130,-117,999,-14,-12,-10
3661,140,-66,1000,1,5,-7
3662,30,15,997,4,22,-2
3663,-102,68,1001,-6,24,0
3664,-155,50,992,-22,9,-3
3665,-107,-9,992,-31,-11,-7
3666,34,-87,1002,-30,-25,-10
3667,120,-118,1001,-14,-17,-11
3668,145,-73,993,-2,2,-8
3669,52,3,1007,2,22,-3
3670,-82,57,1007,-5,25,0
3671,-154,61,981,-20,12,-2
3672,-115,4,991,-31,-10,-6
3673,3,-83,1003,-30,-24,-10
3674,114,-115,1002,-17,-18,-11
3675,152,-85,997,-4,-1,-8
3676,63,-5,1000,3,19,-4
3677,-61,51,1009,-3,24,-1
3678,-148,65,984,-20,14,-1
3679,-128,14,995,-30,-6,-5
3680,-12,-71,998,-30,-23,-10
3681,104,-116,991,-19,-20,-10
3682,152,-91,998,-5,-4,-8
3683,78,-20,1010,2,17,-3
3684,-41,46,1007,-3,24,-1
3685,-143,69,985,-14,15,-2
3686,-135,22,997,-29,-4,-5
3687,-38,-65,996,-33,-21,-10
3688,97,-108,995,-20,-22,-12
3689,150,-99,994,-8,-7,-10
3690,96,-33,1004,1,15,-4
3691,-25,40,1010,1,24,-2
3692,-135,71,986,-14,18,0
3693,-143,32,1000,-25,-1,-4
3694,-59,-52,991,-33,-18,-9
3695,84,-103,1000,-24,-22,-11
3696,146,-105,996,-11,-9,-9
3697,109,-46,993,2,10,-4
3698,-1,33,1005,2,24,-3
3699,-126,74,997,-13,21,2
3700,-146,34,1003,-25,2,-3
3701,-77,-40,982,-32,-18,-8
3702,60,-98,998,-23,-23,-10
3703,141,-111,1004,-13,-12,-11
3704,120,-62,1001,1,8,-6
3705,17,31,992,3,22,-2
3706,-113,69,1001,-9,22,1
3707,-151,49,1001,-24,5,-3
3708,-92,-26,989,-33,-14,-6
3709,49,-95,1000,-32,-26,-11
3710,128,-117,1000,-25,-7,-5
3711,135,-65,998,0,7,-6
3712,34,17,1002,3,22,-3
3713,-97,67,1000,-8,24,1
3714,-149,54,993,-21,8,-2
3715,-106,-7,990,-33,-10,-7
3716,26,-87,1004,-29,-23,-10
3717,119,-120,998,-16,-16,-12
3718,139,-74,996,-2,2,-7
3719,54,4,1001,2,20,-3
3720,-79,56,1013,-3,24,0
3721,-152,63,978,-19,11,-1
3722,-113,5,993,-31,-9,-6
3723,2,-82,1004,-32,-22,-10
3724,111,-113,998,-18,-18,-10
3725,149,-87,999,-5,-1,-9
3726,59,-9,1002,5,19,-4
3727,-56,49,1009,0,24,-2
3728,-150,68,982,-17,15,0
3729,-123,13,995,-30,-6,-5
3730,-17,-74,999,-33,-21,-11
3731,101,-111,990,-21,-20,-11
3732,152,-92,999,-4,-5,-9
3733,77,-22,1007,1,17,-2
3734,-37,46,1007,0,24,-2
3735,-145,69,985,-14,17,-1
3736,-134,24,997,-29,-5,-4
3737,-40,-60,994,-32,-20,-9
3738,94,-109,997,-22,-22,-12
3739,148,-100,995,-8,-7,-9
3740,94,-36,1001,2,14,-5
3741,-25,40,1010,1,24,-2
3742,-133,73,990,-14,18,0
3743,-140,31,995,-28,0,-3
3744,-59,-52,995,-33,-20,-9
3745,79,-101,1000,-25,-23,-11
3746,145,-105,995,-9,-9,-10
3747,110,-50,995,2,11,-4
3748,-2,29,1003,1,24,-3
3749,-125,73,998,-11,21,-1
3750,-147,35,1002,-26,2,-4
3751,-82,-38,982,-31,-16,-8
3752,68,-94,999,-24,-26,-11
3753,141,-109,1006,-12,-12,-11
3754,124,-57,996,-1,8,-6
3755,19,22,997,2,23,-4
3756,-113,68,998,-7,23,0
3757,-155,45,1000,-24,5,-3
3758,-89,-22,988,-32,-13,-8
3759,43,-90,1002,-28,-24,-9
3760,133,-113,999,-15,-15,-11
3761,132,-68,1000,1,6,-5
3762,36,17,994,2,21,-2
3763,-97,61,1007,-5,24,0
3764,-153,55,987,-21,9,-2
3765,-107,-7,991,-32,-10,-6
3766,24,-90,1002,-29,-24,-10
3767,119,-117,997,-15,-17,-9
3768,149,-75,997,-2,1,-7
3769,51,2,1002,4,22,-4
3770,-79,57,1010,-4,26,1
3771,-156,61,980,-18,11,0
3772,-118,5,988,-31,-9,-6
3773,2,-79,1005,-30,-24,-10
3774,112,-116,998,-17,-18,-11
3775,153,-84,998,-3,0,-9
3776,63,-6,1003,4,19,-3
3777,-61,50,1009,-1,24,0
3778,-146,65,978,-16,14,0
3779,-132,13,997,-29,-5,-4
3780,-15,-72,997,-33,-21,-10
3781,102,-115,993,-22,-20,-10
3782,152,-93,996,-6,-6,-9
3783,81,-20,1010,2,17,-4
3784,-37,43,1009,-3,25,-2
3785,-147,72,983,-15,16,0
3786,-136,25,998,-27,-4,-5
3787,-40,-63,994,-32,-20,-9
3788,91,-106,995,-23,-22,-10
3789,154,-100,994,-9,-6,-10
3790,98,-35,1003,2,14,-5
3791,-22,41,1006,1,24,-2
3792,-138,73,995,-13,19,0
3793,-141,28,996,-27,0,-4
3794,-65,-49,989,-33,-19,-8
3795,82,-100,1003,-24,-24,-11
3796,145,-109,995,-11,-11,-9
3797,111,-49,994,3,10,-4
3798,-2,27,1003,0,24,-2
3799,-124,74,998,-10,23,1
3800,-148,39,1000,-25,2,-2
3801,-79,-35,984,-32,-16,-9
3802,64,-96,1002,-25,-23,-10
3803,138,-113,999,-14,-10,-11
3804,125,-63,1004,-1,9,-6
3805,20,19,992,2,23,-3
3806,-113,68,999,-8,23,1
3807,-153,43,1001,-22,4,-3
3808,-93,-22,989,-32,-13,-6
3809,46,-90,1000,-27,-23,-10
3810,130,-112,1003,-14,-14,-11
3811,139,-68,998,-2,4,-7
3812,32,14,997,3,22,-3
3813,-96,58,1006,-9,23,-1
3814,-155,52,989,-22,9,-2
3815,-106,-7,988,-31,-12,-6
3816,23,-86,1006,-28,-24,-10
3817,117,-115,997,-17,-17,-11
3818,144,-73,995,-2,1,-7
3819,52,3,1004,3,22,-2
3820,-75,51,1009,-5,24,0
3821,-153,59,975,-19,12,-1
3822,-117,4,994,-31,-8,-7
3823,0,-82,1002,-28,-22,-10
3824,113,-115,997,-20,-19,-10
3825,151,-83,999,-5,-2,-9
3826,67,-8,1004,3,17,-3
3827,-53,52,1007,-4,23,-1
3828,-150,68,982,-17,14,-1
3829,-126,12,999,-30,-5,-5
3830,-25,-74,994,-32,-21,-10
3831,106,-111,992,-19,-22,-10
3832,156,-96,1001,-5,-5,-9
3833,81,-20,1010,4,15,-4
3834,-37,46,1008,-1,25,-1
3835,-143,74,985,-14,17,0
3836,-139,25,997,-30,-4,-4
3837,-45,-62,995,-33,-20,-10
3838,94,-108,997,-23,-22,-11
3839,149,-103,994,-7,-6,-9
3840,99,-34,1002,5,13,-5
3841,-21,40,1011,2,24,-2
3842,-134,76,987,-14,20,0
3843,-143,32,1000,-26,1,-3
3844,-67,-48,985,-34,-18,-9
3845,80,-109,1003,-25,-23,-12
3846,144,-107,997,-9,-11,-9
3847,110,-49,994,1,9,-4
3848,2,30,1005,2,24,-3
3849,-127,78,999,-12,21,1
3850,-145,39,1001,-26,2,-5
3851,-84,-36,986,-34,-16,-8
3852,61,-99,995,-26,-27,-12
3853,140,-114,1007,-12,-12,-12
3854,122,-58,1000,0,9,-6
3855,22,25,992,3,24,-3
3856,-110,71,999,-8,23,1
3857,-156,48,997,-24,4,-1
3858,-95,-18,991,-33,-14,-7
3859,44,-95,1002,-28,-24,-10
3860,127,-116,996,-14,-15,-11
3861,138,-74,998,1,4,-7
3862,38,13,998,3,22,-4
3863,-92,61,1007,-7,24,0
3864,-157,59,984,-21,10,-2
3865,-105,-1,990,-32,-12,-7
3866,23,-88,1007,-30,-25,-12
3867,120,-116,997,-17,-18,-12
3868,148,-83,998,-3,2,-8
3869,51,2,1002,4,21,-4
3870,-76,53,1007,-4,23,1
3871,-151,67,982,-17,11,-3
3872,-122,8,992,-31,-9,-6
3873,3,-74,1001,-28,-23,-11
3874,110,-118,1001,-20,-17,-10
3875,153,-87,995,-5,-3,-8
3876,64,-12,1008,4,19,-3
3877,-55,47,1003,-3,23,-2
3878,-150,69,985,-16,15,-1
3879,-127,20,996,-29,-5,-5
3880,-26,-70,1000,-33,-22,-10
3881,106,-108,988,-20,-21,-11
3882,151,-99,1000,-7,-5,-9
3883,82,-19,1004,2,16,-4
3884,-35,43,1012,-1,25,-1
3885,-143,73,983,-14,16,-1
3886,-136,21,996,-26,-5,-5
3887,-45,-60,995,-31,-20,-10
3888,89,-108,997,-23,-22,-10
3889,150,-101,996,-7,-7,-10
3890,97,-38,997,5,13,-5
3891,-13,37,1009,1,23,-3
3892,-134,76,993,-14,20,1
3893,-145,30,997,-27,0,-4
3894,-65,-45,988,-32,-18,-8
3895,74,-101,999,-26,-23,-9
3896,147,-106,997,-11,-11,-9
3897,114,-57,1001,2,10,-6
3898,4,32,994,3,24,-3
3899,-120,74,1001,-11,22,0
3900,-148,41,1004,-25,2,-4
3901,-85,-30,979,-31,-16,-7
3902,58,-94,1002,-25,-24,-12
3903,132,-115,1007,-13,-13,-10
3904,127,-65,996,0,6,-5
3905,24,19,995,3,22,-2
3906,-104,66,1001,-8,22,1
3907,-152,50,993,-23,6,-3
3908,-100,-14,993,-33,-12,-7
3909,36,-90,1000,-31,-25,-9
3910,122,-117,995,-15,-16,-10
3911,141,-73,995,0,1,-7
3912,39,8,1000,3,20,-3
3913,-86,58,1008,-5,23,-1
3914,-156,59,984,-20,10,-2
3915,-110,0,985,-31,-11,-7
3916,15,-87,1009,-29,-23,-11
3917,113,-113,996,-18,-17,-11
3918,152,-79,1001,-3,0,-8
3919,54,-4,1002,4,21,-4
3920,-68,55,1005,-3,24,-1
3921,-148,62,982,-19,12,-2
3922,-127,8,992,-28,-7,-5
3923,-5,-77,1000,-31,-23,-9
3924,109,-114,996,-20,-20,-11
3925,149,-85,996,-5,-4,-8
3926,72,-15,1009,2,17,-5
3927,-51,49,1007,-3,24,-2
3928,-147,71,982,-17,16,0
3929,-128,16,999,-29,-4,-6
3930,-33,-71,992,-32,-21,-10
3931,102,-107,988,-21,-21,-11
3932,153,-99,1004,-7,-6,-10
3933,86,-25,1002,3,16,-4
3934,-28,40,1010,-1,25,-1
3935,-142,74,986,-14,18,0
3936,-138,27,999,-25,-3,-4
3937,-50,-56,992,-32,-18,-10
3938,83,-104,1001,-24,-20,-10
3939,151,-104,994,-9,-8,-10
3940,101,-45,995,4,13,-5
3941,-8,36,1008,3,23,-2
3942,-129,77,999,-11,19,1
3943,-148,35,998,-26,2,-4
3944,-75,-41,984,-33,-18,-7
3945,68,-99,999,-25,-24,-11
3946,147,-110,1004,-11,-12,-10
3947,119,-61,998,1,8,-6
3948,11,28,996,3,22,-4
3949,-118,70,997,-9,21,1
3950,-152,51,1002,-23,4,-3
3951,-88,-30,984,-33,-15,-7
3952,53,-91,1002,-26,-25,-11
3953,132,-116,1002,-14,-14,-11
3954,132,-68,1000,1,6,-7
3955,30,17,997,4,21,-3
3956,-100,68,1001,-5,22,0
3957,-157,52,992,-21,7,-3
3958,-102,-9,991,-32,-13,-7
3959,32,-86,1002,-30,-25,-11
3960,121,-119,1001,-17,-16,-12
3961,146,-74,993,-3,2,-7
3962,43,7,1004,4,22,-4
3963,-80,58,1011,-4,24,0
3964,-156,60,978,-20,10,-2
3965,-115,3,990,-31,-10,-6
3966,9,-86,1006,-31,-23,-9
3967,112,-115,999,-20,-18,-10
3968,153,-85,996,-4,0,-8
3969,58,-4,1004,4,20,-4
3970,-62,53,1005,-3,24,1
3971,-149,66,982,-18,13,-1
3972,-129,11,997,-32,-7,-6
3973,-14,-75,998,-32,-22,-10
3974,106,-116,991,-21,-20,-11
3975,151,-91,999,-5,-3,-9
3976,76,-18,1009,3,17,-3
3977,-41,46,1006,0,25,0
3978,-146,69,982,-15,17,0
3979,-132,20,1002,-29,-5,-5
3980,-39,-64,991,-32,-21,-10
3981,94,-108,994,-23,-22,-11
3982,153,-100,1000,-9,-5,-9
3983,89,-33,1000,2,15,-5
3984,-22,43,1010,0,23,-3
3985,-137,75,989,-12,17,0
3986,-141,31,996,-27,-1,-4
3987,-58,-54,994,-33,-17,-9
3988,83,-104,999,-24,-22,-11
3989,150,-104,996,-11,-9,-10
3990,104,-49,997,3,11,-5
3991,-2,34,1002,2,23,-3
3992,-124,73,1000,-11,21,0
3993,-150,38,997,-25,1,-4
3994,-78,-41,986,-35,-18,-8
3995,67,-95,999,-24,-24,-10
3996,139,-111,1004,-13,-11,-10
3997,126,-61,1004,0,10,-6
3998,11,25,990,2,25,-2
3999,-106,70,998,-8,22,-1
4000,-153,43,1004,-22,5,-3
4001,-93,-22,984,-32,-14,-8
4002,49,-90,1002,-28,-24,-11
4003,124,-116,1003,-13,-15,-9
4004,139,-66,994,1,4,-6
4005,31,13,1000,4,22,-4
4006,-96,63,1004,-7,24,1
4007,-152,53,986,-21,8,-2
4008,-106,-6,992,-32,-12,-6
4009,24,-84,1003,-29,-25,-10
4010,120,-117,998,-15,-16,-11
4011,145,-77,998,-2,0,-7
4012,53,0,1000,3,20,-4
4013,-77,55,1010,-3,23,0
4014,-150,62,976,-18,10,-2
4015,-119,6,995,-30,-8,-6
4016,1,-80,1001,-31,-22,-10
4017,110,-114,999,-21,-17,-10
4018,151,-88,996,-5,-2,-8
4019,64,-9,1003,5,19,-4
4020,-53,51,1008,-1,24,-2
4021,-147,68,983,-17,15,-1
4022,-130,15,996,-31,-6,-5
4023,-19,-73,997,-33,-23,-10
4024,102,-113,989,-21,-20,-10
4025,148,-91,999,-4,-5,-8
4026,82,-25,1010,1,15,-4
4027,-37,45,1008,-2,24,-2
4028,-139,71,984,-15,17,1
4029,-140,24,1000,-26,-3,-5
4030,-44,-62,989,-33,-20,-8
4031,90,-108,999,-22,-20,-10
4032,150,-100,996,-9,-8,-9
4033,96,-41,1000,4,14,-5
4034,-15,41,1008,2,23,-2
4035,-133,76,995,-15,19,1
4036,-140,32,996,-26,1,-4
4037,-68,-51,991,-32,-18,-9
4038,76,-99,1001,-25,-25,-11
4039,143,-109,999,-11,-10,-10
4040,112,-50,997,1,10,-6
4041,3,35,1001,1,24,-2
4042,-120,72,998,-10,21,1
4043,-150,39,1002,-26,3,-2
4044,-85,-35,982,-31,-16,-8
4045,56,-97,1000,-24,-24,-11
4046,132,-112,1004,-13,-12,-10
4047,131,-63,1001,1,7,-6
4048,21,19,990,4,22,-4
4049,-105,69,998,-6,22,-1
4050,-153,43,1000,-22,7,-2
4051,-99,-13,989,-33,-9,-5
4052,41,-90,1002,-27,-23,-11
4053,119,-117,1001,-15,-15,-10
4054,140,-69,992,0,1,-7
4055,42,10,1005,3,21,-4
4056,-89,56,1005,-6,23,-1
4057,-154,58,983,-22,10,-2
4058,-110,-1,989,-29,-11,-7
4059,14,-84,1007,-28,-24,-11
4060,116,-118,998,-17,-18,-11
4061,148,-77,996,-3,0,-7
4062,56,0,1004,3,20,-3
4063,-67,54,1007,-3,24,-2
4064,-152,63,981,-18,11,-2
4065,-122,10,994,-30,-8,-6
4066,-8,-80,1002,-31,-21,-11
4067,108,-114,993,-20,-20,-10
4068,152,-90,997,-5,-5,-9
4069,70,-13,1006,3,18,-4
4070,-46,45,1010,-1,25,-1
4071,-145,71,980,-16,17,0
4072,-133,21,1002,-28,-5,-5
4073,-31,-69,993,-34,-22,-10
4074,97,-112,990,-21,-21,-11
4075,150,-96,997,-7,-5,-10
4076,91,-31,1009,2,14,-5
4077,-30,42,1005,0,25,-2
4078,-138,75,988,-14,16,-1
4079,-139,28,999,-28,-3,-5
4080,-54,-56,989,-34,-19,-10
4081,88,-108,1001,-25,-22,-12
4082,148,-105,997,-8,-9,-9
4083,106,-44,991,3,12,-5
4084,-11,37,1010,2,25,-2
4085,-127,78,998,-12,21,1
4086,-143,37,998,-25,1,-5
4087,-74,-42,987,-33,-18,-9
4088,70,-100,997,-25,-24,-12
4089,143,-111,1003,-12,-11,-11
4090,118,-63,1000,3,10,-6
4091,15,30,994,3,23,-3
4092,-116,70,998,-8,22,1
4093,-152,48,1001,-23,3,-3
4094,-88,-25,987,-33,-15,-8
4095,50,-93,1006,-28,-23,-9
4096,129,-118,996,-15,-13,-9
4097,134,-68,1001,3,4,-7
4098,33,13,996,4,20,-2
4099,-101,67,1004,-6,23,1
4100,-149,51,991,-19,6,-3
4101,-105,-4,988,-32,-12,-6
4102,34,-86,1004,-29,-25,-11
4103,117,-116,999,-16,-16,-10
4104,143,-76,996,0,2,-7
4105,52,-1,1005,4,21,-4
4106,-82,55,1007,-3,24,0
4107,-150,61,978,-18,10,-3
4108,-116,7,994,-30,-10,-5
4109,4,-79,1005,-30,-24,-9
4110,115,-113,997,-19,-17,-11
4111,147,-85,1000,-4,-1,-9
4112,60,-9,1000,5,19,-4
4113,-59,49,1009,-3,23,-1
4114,-146,64,981,-18,13,-1
4115,-124,14,1001,-30,-4,-5
4116,-17,-71,994,-32,-21,-10
4117,105,-111,991,-21,-21,-10
4118,151,-91,1000,-6,-4,-8
4119,75,-21,1007,3,18,-4
4120,-38,43,1011,-2,24,-1
4121,-141,67,979,-14,15,0
4122,-136,27,1002,-27,-4,-4
4123,-38,-62,992,-34,-21,-9
4124,91,-107,999,-23,-22,-10
4125,154,-99,994,-9,-7,-10
4126,89,-39,1003,2,15,-5
4127,-15,40,1007,1,22,-2
4128,-136,75,998,-14,18,0
4129,-137,33,995,-27,-1,-4
4130,-64,-54,991,-31,-17,-9
4131,77,-97,998,-24,-22,-11
4132,146,-109,1004,-9,-11,-10
4133,111,-48,994,3,9,-6
4134,0,29,1002,2,23,-2
4135,-116,74,998,-10,21,0
4136,-149,38,1001,-24,2,-3
4137,-75,-32,983,-32,-18,-8
4138,60,-98,999,-27,-24,-10
4139,135,-112,1001,-11,-12,-11
4140,123,-65,1003,0,8,-5
4141,20,24,988,4,22,-2
4142,-105,67,1001,-7,21,0
4143,-150,46,996,-22,4,-3
4144,-97,-16,990,-32,-14,-7
4145,42,-93,1005,-28,-23,-11
4146,122,-113,996,-15,-13,-11
4147,138,-71,997,-1,3,-7
4148,40,12,1001,2,21,-4
4149,-90,60,1008,-7,24,-1
4150,-153,60,983,-21,9,-2
4151,-107,-4,990,-32,-11,-7
4152,18,-82,1004,-29,-24,-11
4153,117,-117,1001,-17,-17,-11
4154,148,-78,998,-3,0,-8
4155,51,-2,1004,3,20,-3
4156,-71,56,1005,-2,23,-1
4157,-152,62,982,-17,11,-1
4158,-121,13,994,-30,-6,-7
4159,-3,-80,1000,-31,-23,-10
4160,105,-113,993,-19,-19,-10
4161,150,-89,998,-3,-4,-8
4162,67,-15,1006,3,15,-3
4163,-50,48,1011,-2,25,-2
4164,-143,70,982,-17,16,-1
4165,-128,16,996,-30,-5,-4
4166,-30,-67,994,-31,-22,-10
4167,99,-108,991,-21,-21,-11
4168,150,-98,996,-7,-5,-9
4169,83,-28,1006,3,15,-4
4170,-27,41,1006,2,23,-3
4171,-136,71,988,-14,18,0
4172,-136,27,996,-26,-3,-4
4173,-53,-57,992,-33,-18,-8
4174,85,-104,1002,-24,-22,-10
4175,144,-104,993,-10,-9,-9
4176,101,-45,997,3,11,-5
4177,-6,33,1005,2,23,-4
4178,-123,76,999,-11,19,0
4179,-144,37,999,-26,2,-4
4180,-72,-41,989,-32,-17,-8
4181,66,-100,996,-25,-24,-9
4182,140,-112,1004,-12,-12,-10
4183,120,-59,1000,0,9,-6
4184,10,29,994,3,23,-3
4185,-114,72,998,-9,19,0
4186,-151,45,1000,-24,4,-3
4187,-86,-21,985,-33,-13,-8
4188,46,-94,1003,-28,-22,-11
4189,125,-115,998,-16,-14,-11
4190,133,-66,998,-1,4,-7
4191,30,14,999,2,20,-4
4192,-98,61,1003,-7,22,0
4193,-151,54,988,-21,8,-3
4194,-104,-5,991,-31,-11,-6
4195,28,-88,1008,-27,-24,-11
4196,116,-116,997,-15,-15,-10
4197,144,-73,997,-2,2,-7
4198,50,2,1002,3,21,-3
4199,-76,57,1005,-5,24,0
4200,-150,58,980,-20,11,-2
4201,-119,3,992,-30,-9,-7
4202,4,-84,1005,-30,-22,-11
4203,110,-114,996,-20,-19,-9
4204,149,-83,999,-5,-2,-8
4205,63,-7,1001,4,17,-4
4206,-57,49,1009,-4,22,-1
4207,-147,65,981,-17,14,-2
4208,-128,13,1000,-31,-6,-6
4209,-20,-75,991,-32,-22,-10
4210,103,-113,993,-20,-20,-12
4211,151,-91,999,-5,-4,-9
4212,77,-19,1008,2,16,-3
4213,-32,45,1013,-2,24,-2
4214,-143,73,981,-14,15,0
4215,-134,22,997,-28,-4,-5
4216,-43,-68,994,-31,-20,-9
4217,90,-106,996,-22,-22,-11
4218,150,-101,992,-8,-6,-9
4219,97,-37,1000,3,15,-6
4220,-16,44,1006,1,22,-2
4221,-133,77,995,-13,20,0
4222,-141,35,1002,-26,1,-3
4223,-65,-50,987,-33,-18,-8
4224,74,-101,999,-25,-25,-11
4225,145,-113,1000,-10,-11,-10
4226,113,-49,997,2,10,-6
4227,4,32,995,3,24,-4
4228,-118,75,1002,-9,22,0
4229,-148,42,1001,-24,3,-5
4230,-86,-32,984,-32,-17,-7
4231,58,-94,1001,-24,-25,-10
4232,131,-116,1003,-13,-12,-10
4233,128,-63,999,2,8,-7
4234,22,22,995,3,23,-3
4235,-101,64,997,-6,23,0
4236,-154,49,995,-21,6,-3
4237,-97,-11,989,-32,-12,-8
4238,36,-88,1007,-29,-23,-13
4239,120,-115,991,-15,-15,-10
4240,141,-74,1001,-1,2,-7
4241,40,6,1001,2,21,-3
4242,-85,59,1006,-7,23,0
4243,-155,58,984,-19,10,-3
4244,-113,0,990,-29,-10,-6
4245,16,-86,1004,-27,-23,-10
4246,113,-117,1000,-16,-16,-11
4247,149,-81,999,-3,0,-8
4248,55,-3,1003,3,18,-3
4249,-68,56,1006,-3,22,-1
4250,-148,63,982,-19,11,-2
4251,-124,8,994,-31,-7,-5
4252,-7,-76,997,-31,-23,-10
4253,108,-114,996,-20,-20,-10
4254,153,-89,997,-5,-4,-8
4255,71,-16,1007,3,18,-3
4256,-47,48,1008,-3,25,-2
4257,-149,69,983,-17,16,-1
4258,-132,22,999,-27,-6,-5
4259,-35,-68,993,-32,-21,-9
4260,103,-108,996,-21,-22,-11
4261,150,-99,997,-8,-5,-9
4262,87,-28,1006,3,14,-4
4263,-26,40,1009,0,24,-2
4264,-140,75,986,-13,17,0
4265,-140,27,1000,-26,-2,-6
4266,-53,-55,991,-32,-18,-10
4267,81,-104,997,-22,-22,-10
4268,146,-105,999,-9,-10,-9
4269,103,-48,994,4,11,-5
4270,-5,32,1004,2,23,-3
4271,-125,77,1001,-10,21,0
4272,-145,37,997,-24,3,-3
4273,-75,-39,984,-33,-17,-8
4274,68,-96,1000,-24,-24,-10
4275,145,-110,1000,-12,-12,-10
4276,119,-59,1001,1,9,-6
4277,10,29,991,2,23,-4
4278,-112,69,998,-7,22,1
4279,-151,48,1000,-23,3,-3
4280,-86,-23,989,-33,-13,-7
4281,50,-92,1003,-27,-24,-10
4282,128,-111,1002,-15,-14,-11
4283,132,-66,998,-1,5,-7
4284,31,12,1000,3,22,-2
4285,-97,61,999,-5,23,1
4286,-150,54,994,-21,8,-3
4287,-100,-6,991,-32,-12,-6
4288,28,-88,1002,-29,-24,-9
4289,119,-114,998,-17,-16,-10
4290,141,-76,998,-3,2,-8
4291,50,0,1002,1,20,-4
4292,-82,52,1012,-4,23,0
4293,-149,61,977,-20,9,-1
4294,-114,2,993,-30,-9,-6
4295,7,-80,1003,-30,-23,-11
4296,114,-116,998,-20,-17,-11
4297,148,-80,996,-3,-2,-8
4298,58,-5,1004,4,17,-2
4299,-55,48,1009,-2,23,-1
4300,-152,63,982,-16,13,-2
4301,-125,13,998,-29,-7,-6
4302,-15,-73,997,-31,-21,-9
4303,104,-109,991,-19,-21,-11
4304,150,-89,1000,-5,-6,-10
4305,78,-19,1010,3,16,-5
4306,-40,41,1010,-1,25,-1
4307,-142,72,982,-16,17,-1
4308,-136,18,1001,-27,-3,-5
4309,-43,-61,990,-33,-20,-10
4310,95,-105,996,-21,-21,-11
4311,148,-98,996,-8,-7,-10
4312,95,-33,999,3,14,-4
4313,-17,39,1010,1,24,-1
4314,-138,76,989,-14,18,2
4315,-139,32,998,-27,0,-3
4316,-61,-53,992,-32,-18,-8
4317,77,-95,999,-26,-22,-11
4318,151,-109,997,-10,-11,-11
4319,109,-48,997,1,10,-5
4320,0,30,997,2,23,-2
4321,-125,74,1006,-10,21,0
4322,-146,39,998,-26,1,-2
4323,-79,-36,983,-33,-18,-8
4324,63,-93,999,-24,-25,-11
4325,139,-113,1004,-12,-12,-10
4326,125,-61,999,0,9,-6
4327,15,21,994,3,23,-2
4328,-107,71,995,-7,21,0
4329,-153,43,1000,-23,5,-3
4330,-94,-15,990,-33,-14,-7
4331,46,-93,1003,-29,-24,-10
4332,128,-117,997,-14,-15,-11
4333,136,-68,997,1,4,-6
4334,38,10,997,2,22,-5
4335,-96,64,1006,-4,25,0
4336,-150,54,985,-20,9,-3
4337,-109,-8,989,-31,-11,-6
4338,23,-87,1006,-30,-25,-11
4339,119,-115,1000,-16,-18,-11
4340,144,-74,997,-3,0,-7
4341,55,2,1002,3,21,-4
4342,-76,57,1010,-3,24,0
4343,-148,58,978,-19,11,-2
4344,-120,4,993,-30,-9,-6
4345,0,-81,1002,-29,-22,-10
4346,110,-114,999,-18,-18,-10
4347,152,-82,997,-5,-2,-8
4348,65,-9,1007,4,18,-4
4349,-51,52,1006,-2,25,-1
4350,-149,68,984,-17,16,-1
4351,-130,16,997,-30,-6,-5
4352,-24,-73,994,-32,-21,-10
4353,102,-113,991,-19,-22,-9
4354,154,-96,999,-6,-7,-9
4355,83,-20,1005,2,16,-3
4356,-36,46,1009,-1,24,-1
4357,-137,76,984,-14,16,0
4358,-139,24,997,-31,-3,-3
4359,-43,-61,992,-33,-20,-9
4360,86,-110,1000,-23,-21,-10
4361,154,-101,991,-9,-8,-10
4362,98,-39,997,4,13,-5
4363,-13,37,1009,2,22,-3
4364,-134,78,995,-12,19,1
4365,-143,36,999,-25,1,-5
4366,-68,-49,985,-33,-18,-8
4367,75,-100,999,-23,-24,-10
4368,144,-110,1001,-11,-10,-10
4369,116,-56,1000,1,9,-6
4370,6,29,996,1,23,-2
4371,-119,72,998,-10,21,1
4372,-149,41,1002,-25,1,-3
4373,-82,-33,984,-32,-17,-9
4374,55,-93,999,-26,-23,-10
4375,136,-114,1002,-14,-12,-10
4376,130,-67,1002,1,7,-6
4377,24,19,993,3,23,-3
4378,-103,65,1003,-5,23,0
4379,-153,47,996,-21,6,-3
4380,-99,-11,989,-33,-14,-7
4381,41,-90,1004,-30,-24,-11
4382,120,-118,998,-15,-15,-9
4383,140,-73,993,-1,3,-6
4384,42,9,1006,3,20,-4
4385,-93,58,1004,-5,25,0
4386,-155,58,983,-20,9,-3
4387,-109,0,991,-30,-11,-7
4388,14,-83,1005,-30,-24,-11
4389,117,-116,999,-16,-19,-11
4390,147,-78,999,3,4,-8
4391,56,-1,1003,3,19,-4
4392,-70,52,1006,-4,24,-2
4393,-153,62,979,-20,12,-1
4394,-118,5,997,-30,-8,-5
4395,-8,-78,995,-30,-22,-9
4396,111,-116,998,-20,-19,-11
4397,152,-84,999,-4,-3,-9
4398,69,-13,1006,3,18,-4
4399,-44,46,1008,-2,25,-3
4400,-148,66,982,-15,16,-1
4401,-130,20,993,-29,-5,-4
4402,-30,-69,1001,-31,-22,-9
4403,97,-107,987,-21,-22,-10
4404,151,-98,1001,-6,-6,-9
4405,88,-30,1008,4,15,-4
4406,-31,43,1005,0,24,-1
4407,-137,73,989,-13,17,-1
4408,-139,26,1000,-28,-2,-4
4409,-52,-55,988,-32,-18,-8
4410,83,-107,1005,-23,-22,-10
4411,149,-106,992,-9,-9,-9
4412,105,-47,998,3,12,-3
4413,-10,38,1006,2,24,-1
4414,-124,75,1000,-12,20,0
4415,-142,39,1000,-25,2,-3
4416,-75,-42,983,-33,-17,-7
4417,66,-95,1002,-26,-24,-11
4418,140,-115,1002,-13,-12,-12
4419,122,-60,998,2,9,-6
4420,10,28,995,2,24,-2
4421,-114,73,996,-7,22,1
4422,-149,44,1002,-24,6,-3
4423,-89,-23,990,-32,-14,-6
4424,52,-94,998,-26,-23,-10
4425,129,-115,1002,-14,-13,-10
4426,130,-64,996,1,5,-6
4427,34,15,1001,3,22,-4
4428,-97,59,1004,-8,23,1
4429,-153,54,986,-20,7,-3
4430,-101,-10,995,-32,-13,-8
4431,25,-88,1002,-30,-24,-11
4432,117,-117,998,-15,-16,-11
4433,144,-76,1001,0,2,-8
4434,48,5,999,3,21,-2
4435,-80,54,1010,-4,23,0
4436,-153,62,982,-20,8,-2
4437,-116,1,989,-31,-9,-5
4438,9,-79,1003,-29,-23,-10
4439,108,-116,1000,-20,-18,-10
4440,150,-79,996,-4,-1,-9
4441,58,-12,1006,3,18,-3
4442,-57,53,1007,-2,22,-1
4443,-149,61,981,-17,12,-1
4444,-126,16,999,-28,-5,-5
4445,-16,-74,994,-33,-21,-10
4446,105,-111,990,-20,-21,-11
4447,150,-93,1000,-4,-5,-8
4448,75,-22,1007,4,16,-4
4449,-37,42,1009,-2,24,-2
4450,-140,68,982,-14,16,-1
4451,-135,22,997,-27,-4,-5
4452,-39,-61,993,-34,-20,-9
4453,90,-102,999,-22,-20,-11
4454,153,-102,994,-8,-6,-11
4455,93,-36,1002,3,14,-4
4456,-16,38,1010,1,24,-4
4457,-133,73,994,-14,18,0
4458,-145,28,995,-26,0,-5
4459,-59,-50,989,-33,-19,-10
4460,73,-98,1002,-25,-24,-10
4461,146,-105,995,-11,-13,-10
4462,111,-50,1003,0,10,-5
4463,-1,30,997,1,24,-3
4464,-121,71,1001,-11,22,0
4465,-149,35,1002,-26,3,-4
4466,-85,-36,976,-33,-17,-7
4467,62,-96,1005,-25,-24,-11
4468,133,-113,1005,-14,-11,-10
4469,127,-57,999,1,9,-6
4470,24,22,993,3,23,-3
4471,-107,70,998,-8,22,1
4472,-150,44,998,-23,6,-4
4473,-98,-17,991,-32,-13,-7
4474,40,-92,1002,-28,-23,-10
4475,122,-117,997,-15,-15,-10
4476,136,-68,997,0,2,-7
4477,43,11,1004,3,21,-3
4478,-91,59,1006,-6,26,0
4479,-152,57,981,-22,9,-2
4480,-109,0,992,-32,-11,-6
4481,19,-89,1001,-30,-24,-11
4482,118,-114,1001,-16,-17,-11
4483,147,-80,996,-3,1,-8
4484,54,0,1004,4,21,-4
4485,-68,54,1008,-1,24,-1
4486,-151,64,980,-19,12,-1
4487,-122,10,997,-31,-9,-7
4488,-6,-78,1002,-30,-22,-9
4489,114,-114,993,-19,-19,-11
4490,146,-88,998,-3,-4,-8
4491,70,-13,1006,3,17,-5
4492,-49,47,1008,-3,24,-2
4493,-148,72,980,-16,16,0
4494,-129,18,1002,-29,-7,-6
4495,-31,-67,993,-31,-22,-10
4496,100,-109,992,-21,-21,-11
4497,153,-98,999,-7,-5,-9
4498,84,-31,1004,3,16,-5
4499,-28,45,1011,1,25,-2
4500,-140,74,986,-12,18,0
4501,-135,28,997,-26,-2,-5
4502,-49,-58,992,-32,-19,-10
4503,87,-101,1002,-24,-22,-10
