sequence,AccelerometerX,AccelerometerY,AccelerometerZ,GyroscopeX,GyroscopeY,GyroscopeZ
0,-22,-31,1012,-17,-27,-10
1,111,-19,1009,-14,-25,-13
2,179,-13,1012,-11,-6,-10
3,94,-11,1003,-15,18,-3
4,-58,-22,1004,-15,30,2
5,-173,-21,968,-22,20,2
6,-169,-23,988,-19,-4,-4
7,-43,-33,1000,-14,-26,-10
8,103,-25,1009,-13,-26,-13
9,181,-14,1012,-12,-8,-10
10,105,-12,1008,-13,18,-1
11,-37,-16,1009,-18,30,2
12,-167,-19,969,-17,23,1
13,-180,-21,989,-17,-2,-5
14,-66,-34,997,-17,-26,-13
15,92,-21,1003,-12,-28,-14
16,179,-19,1006,-13,-11,-13
17,121,-15,1014,-14,16,-3
18,-16,-17,1011,-17,31,2
19,-162,-15,972,-18,25,3
20,-178,-24,986,-17,1,-3
21,-87,-30,992,-15,-22,-10
22,81,-17,1011,-13,-30,-14
23,173,-23,1006,-14,-14,-12
24,132,-16,1008,-15,12,-4
25,0,-14,1007,-15,28,1
26,-148,-18,988,-17,26,2
27,-183,-33,979,-17,4,-2
28,-109,-30,991,-14,-20,-9
29,67,-19,1012,-14,-31,-13
30,161,-20,1010,-14,-16,-13
31,145,-18,1003,-14,9,-5
32,16,-13,1005,-15,29,1
33,-132,-15,993,-18,27,2
34,-185,-29,985,-17,6,-3
35,-127,-30,976,-15,-18,-8
36,51,-16,1015,-12,-30,-13
37,152,-23,1016,-13,-17,-14
38,157,-17,1005,-13,7,-5
39,40,-10,996,-15,27,0
40,-118,-15,994,-18,28,4
41,-186,-27,987,-16,9,-2
42,-136,-29,981,-16,-15,-8
43,28,-23,1006,-13,-29,-11
44,141,-25,1017,-15,-21,-12
45,167,-17,1004,-12,2,-5
46,58,-7,997,-16,25,-1
47,-102,-20,996,-20,29,2
48,-187,-23,982,-17,13,-1
49,-145,-25,984,-17,-11,-7
50,10,-26,1011,-13,-29,-12
51,126,-23,1010,-14,-24,-12
52,176,-17,1003,-13,-1,-9
53,72,-9,1003,-15,24,0
54,-86,-16,1002,-18,30,4
55,-185,-22,976,-18,15,0
56,-157,-19,978,-14,-11,-6
57,-12,-29,1013,-15,-29,-11
58,116,-27,1010,-13,-25,-13
59,181,-17,1007,-13,-5,-8
60,87,-11,1003,-16,23,0
61,-68,-19,1005,-17,29,2
62,-179,-17,967,-18,16,-1
63,-167,-18,984,-17,-6,-5
64,-34,-32,1007,-14,-28,-11
65,108,-27,1009,-12,-25,-13
66,180,-18,1009,-12,-8,-9
67,101,-15,1008,-15,18,-2
68,-48,-21,1006,-17,31,1
69,-172,-15,969,-17,20,1
70,-174,-19,991,-16,-3,-4
71,-55,-31,994,-17,-26,-11
72,99,-25,1007,-14,-28,-13
73,175,-21,1008,-14,-10,-10
74,113,-14,1013,-14,16,-3
75,-26,-21,1008,-15,31,1
76,-162,-15,968,-17,24,2
77,-175,-17,988,-16,0,-4
78,-76,-30,996,-15,-23,-9
79,85,-21,1006,-12,-27,-11
80,172,-22,1007,-15,-12,-11
81,125,-19,1012,-15,13,-3
82,-6,-15,1006,-16,28,0
83,-151,-18,983,-17,25,2
84,-182,-21,980,-16,4,-3
85,-99,-28,994,-16,-20,-10
86,73,-18,1012,-13,-30,-15
87,166,-25,1005,-14,-16,-13
88,142,-21,1000,-15,9,-5
89,12,-13,1012,-16,28,0
90,-137,-13,987,-17,27,3
91,-184,-29,984,-17,6,-2
92,-116,-30,983,-14,-19,-8
93,52,-19,1011,-12,-29,-13
94,160,-24,1012,-14,-17,-12
95,152,-18,1006,-15,7,-5
96,33,-10,995,-17,27,1
97,-126,-14,997,-18,29,1
98,-188,-27,987,-17,9,-2
99,-131,-30,980,-17,-16,-8
100,34,-19,1006,-13,-30,-13
101,147,-26,1021,-15,-20,-13
102,167,-17,1004,-14,4,-6
103,50,-9,992,-16,27,-1
104,-111,-13,998,-18,29,3
105,-193,-26,989,-18,11,-1
106,-142,-28,976,-16,-13,-6
107,17,-26,1013,-13,-30,-13
108,133,-25,1012,-12,-22,-13
109,172,-15,1003,-13,-1,-7
110,68,-9,1001,-16,24,-1
111,-95,-15,1003,-18,32,3
112,-186,-23,971,-18,14,1
113,-156,-23,986,-16,-11,-6
114,-4,-32,1013,-15,-32,-12
115,119,-26,1006,-13,-24,-14
116,179,-14,1009,-14,-2,-9
117,84,-9,1004,-15,23,0
118,-71,-15,1005,-16,30,2
119,-181,-22,968,-18,17,0
120,-164,-22,985,-16,-7,-6
121,-25,-34,1008,-14,-28,-13
122,112,-26,1011,-13,-26,-15
123,183,-15,1006,-14,-7,-9
124,95,-15,1007,-15,19,-1
125,-50,-17,1004,-16,29,1
126,-171,-18,968,-18,20,1
127,-171,-20,987,-17,-4,-5
128,-51,-30,1004,-16,-26,-11
129,101,-23,1004,-14,-30,-12
130,177,-20,1010,-14,-11,-10
131,108,-15,1013,-15,17,-3
132,-31,-20,1005,-16,31,2
133,-164,-13,974,-15,22,3
134,-177,-19,982,-17,-1,-2
135,-74,-28,999,-17,-24,-9
136,89,-24,1004,-14,-28,-12
137,173,-22,1006,-13,-12,-10
138,123,-19,1011,-16,14,-3
139,-9,-15,1009,-16,31,1
140,-155,-15,975,-18,24,2
141,-181,-22,987,-17,1,-3
142,-96,-29,991,-16,-22,-10
143,77,-17,1015,-15,-30,-14
144,171,-22,1004,-15,-16,-12
145,133,-19,1001,-13,12,-3
146,9,-10,1009,-17,27,0
147,-144,-16,992,-20,27,4
148,-182,-25,981,-18,4,-3
149,-114,-33,989,-16,-20,-8
150,59,-12,1011,-14,-30,-12
151,160,-27,1012,-15,-18,-12
152,151,-19,1007,-14,7,-4
153,29,-17,998,-17,27,1
154,-127,-13,995,-16,28,3
155,-186,-26,988,-19,7,-2
156,-127,-26,978,-17,-17,-9
157,38,-22,1011,-15,-30,-13
158,141,-25,1014,-15,-18,-14
159,163,-20,1009,-14,3,-7
160,42,-12,990,-16,25,1
161,-111,-14,995,-16,29,2
162,-184,-26,988,-19,10,-2
163,-142,-20,978,-17,-14,-7
164,20,-23,1013,-17,-31,-12
165,130,-27,1010,-15,-23,-13
166,173,-18,1000,-14,-1,-8
167,62,-10,1002,-15,22,0
168,-96,-17,1001,-17,30,4
169,-181,-23,977,-19,14,-2
170,-152,-21,981,-16,-10,-5
171,1,-24,1013,-15,-29,-13
172,122,-27,1010,-14,-22,-12
173,175,-14,1003,-13,-2,-8
174,81,-15,1007,-18,23,0
175,-76,-20,1002,-17,30,2
176,-179,-17,971,-18,16,0
177,-160,-18,985,-18,-8,-5
178,-25,-33,1011,-14,-27,-12
179,112,-25,1009,-14,-25,-13
180,176,-17,1009,-15,-6,-9
181,93,-10,1006,-14,19,-1
182,-57,-16,1005,-20,31,2
183,-170,-15,970,-17,19,0
184,-167,-23,987,-18,-4,-4
185,-46,-33,1003,-17,-27,-11
186,103,-27,1005,-15,-26,-13
187,175,-20,1009,-15,-9,-10
188,104,-14,1013,-14,17,-3
189,-34,-14,1006,-16,29,1
190,-165,-14,970,-19,21,3
191,-173,-22,989,-17,-2,-3
192,-70,-34,994,-17,-24,-9
193,89,-24,1008,-14,-28,-12
194,176,-25,1005,-14,-11,-11
195,117,-18,1010,-15,15,-2
196,-9,-13,1008,-17,30,1
197,-155,-9,975,-19,24,3
198,-179,-20,981,-18,1,-4
199,-90,-34,995,-18,-23,-9
200,78,-23,1011,-15,-30,-13
201,167,-27,1004,-14,-15,-12
202,132,-19,1006,-13,9,-4
203,3,-9,1005,-16,27,1
204,-145,-7,992,-19,26,3
205,-179,-26,986,-18,5,-3
206,-107,-28,984,-15,-19,-9
207,63,-22,1010,-16,-30,-13
208,160,-29,1014,-15,-17,-12
209,147,-23,1000,-13,7,-4
210,20,-10,1001,-16,27,1
211,-130,-8,995,-17,27,3
212,-184,-22,991,-20,6,-2
213,-127,-25,975,-17,-18,-8
214,43,-25,1013,-14,-29,-12
215,147,-26,1015,-16,-19,-11
216,157,-24,1005,-15,5,-5
217,42,-10,998,-16,25,-1
218,-114,-14,991,-17,27,3
219,-182,-22,988,-18,10,-3
220,-138,-26,983,-18,-13,-7
221,26,-24,1009,-14,-31,-14
222,132,-30,1008,-14,-21,-13
223,166,-19,1005,-13,0,-7
224,63,-13,1000,-15,23,0
225,-97,-16,997,-18,30,2
226,-185,-22,979,-18,14,-1
227,-146,-21,983,-18,-12,-7
228,3,-28,1011,-15,-30,-11
229,118,-28,1008,-14,-24,-14
230,176,-17,1006,-12,-2,-8
231,76,-11,1005,-15,23,-1
232,-79,-17,1004,-15,30,2
233,-181,-19,971,-17,15,0
234,-155,-20,982,-18,-8,-6
235,-18,-34,1013,-14,-29,-12
236,113,-28,1009,-14,-26,-13
237,178,-18,1008,-12,-6,-10
238,87,-9,1006,-13,20,-2
239,-61,-19,1005,-16,30,1
240,-175,-15,967,-17,19,0
241,-165,-21,987,-18,-5,-4
242,-39,-34,1006,-16,-26,-11
243,102,-31,1002,-14,-27,-13
244,178,-19,1011,-11,-9,-11
245,101,-15,1012,-13,18,-2
246,-34,-13,1004,-16,32,2
247,-165,-16,970,-18,22,3
248,-171,-20,987,-17,-3,-3
249,-64,-35,997,-16,-26,-9
250,91,-23,1003,-13,-29,-12
251,173,-24,1010,-13,-11,-11
252,117,-15,1010,-13,16,-3
253,-15,-12,1006,-16,29,1
254,-157,-9,979,-18,23,2
255,-177,-19,983,-17,1,-4
256,-89,-33,991,-16,-22,-10
257,76,-25,1012,-15,-29,-13
258,169,-27,1002,-13,-15,-12
259,129,-20,1006,-12,13,-4
260,0,-6,1007,-15,29,1
261,-143,-7,989,-19,26,2
262,-182,-24,982,-18,4,-4
263,-110,-29,985,-17,-20,-8
264,64,-27,1013,-14,-30,-13
265,160,-29,1007,-11,-16,-11
266,144,-18,1002,-12,9,-4
267,18,-9,1006,-14,28,0
268,-133,-6,994,-19,28,3
269,-183,-22,987,-19,7,-3
270,-126,-28,979,-17,-17,-8
271,49,-22,1010,-13,-29,-13
272,150,-29,1016,-14,-18,-13
273,156,-24,1007,-14,6,-6
274,42,-12,993,-14,27,-1
275,-120,-10,998,-17,29,3
276,-183,-20,985,-17,8,-2
277,-133,-25,985,-18,-14,-8
278,30,-26,1008,-14,-29,-12
279,139,-30,1012,-13,-20,-13
280,169,-25,1007,-13,3,-7
281,55,-11,995,-14,25,0
282,-100,-13,999,-15,29,2
283,-185,-16,984,-18,12,0
284,-142,-21,980,-16,-11,-7
285,11,-33,1012,-15,-30,-12
286,122,-28,1007,-12,-22,-13
287,176,-20,1005,-13,-1,-8
288,72,-13,1002,-14,24,0
289,-85,-9,1002,-16,32,3
290,-182,-20,970,-20,15,-1
291,-156,-20,986,-17,-8,-5
292,-11,-34,1005,-16,-29,-12
293,116,-32,1011,-13,-25,-14
294,181,-20,1008,-12,-4,-9
295,85,-9,1006,-15,21,-2
296,-68,-16,1002,-16,30,3
297,-179,-11,970,-18,18,0
298,-168,-18,988,-18,-6,-5
299,-31,-37,1002,-15,-28,-12
300,109,-30,1010,-13,-27,-14
301,182,-22,1006,-12,-8,-10
302,97,-11,1008,-14,19,-2
303,-44,-15,1007,-16,29,1
304,-172,-14,966,-16,22,1
305,-173,-17,992,-17,-3,-6
306,-57,-35,1000,-17,-26,-10
307,100,-26,1005,-12,-28,-13
308,177,-22,1007,-12,-11,-9
309,113,-16,1014,-14,16,-2
310,-25,-15,1011,-16,31,1
311,-162,-10,970,-18,23,1
312,-180,-18,988,-16,-1,-4
313,-77,-33,994,-16,-24,-10
314,86,-25,1010,-12,-28,-14
315,174,-26,1005,-16,-13,-11
316,130,-18,1007,-15,14,-3
317,-6,-12,1007,-16,29,1
318,-153,-10,982,-17,26,3
319,-179,-22,983,-17,3,-4
320,-101,-33,993,-15,-21,-9
321,73,-23,1008,-14,-30,-12
322,165,-28,1009,-13,-16,-12
323,140,-16,1001,-13,10,-5
324,8,-13,1007,-15,28,0
325,-138,-9,989,-17,25,1
326,-185,-25,989,-18,5,-2
327,-113,-32,976,-16,-19,-10
328,53,-23,1015,-13,-29,-13
329,162,-24,1012,-13,-18,-12
330,149,-23,1003,-14,8,-5
331,32,-6,999,-14,27,0
332,-128,-12,994,-18,29,2
333,-186,-22,986,-18,7,-2
334,-128,-30,981,-16,-17,-7
335,40,-23,1010,-12,-30,-13
336,142,-29,1012,-16,-19,-13
337,166,-19,1011,-13,4,-7
338,46,-10,993,-15,26,0
339,-114,-12,996,-18,30,3
340,-184,-24,987,-18,10,-1
341,-141,-23,982,-17,-13,-8
342,18,-28,1010,-15,-30,-14
343,131,-27,1011,-13,-21,-12
344,172,-20,1000,-16,5,-5
345,65,-11,1003,-16,24,-1
346,-95,-17,1002,-15,29,2
347,-183,-16,976,-19,15,-1
348,-147,-23,983,-16,-11,-7
349,-4,-27,1012,-12,-30,-13
350,123,-30,1011,-14,-25,-14
351,174,-21,1008,-12,-3,-8
352,80,-11,1001,-15,22,0
353,-75,-16,1005,-17,31,2
354,-179,-18,969,-19,15,-1
355,-159,-17,983,-18,-7,-5
356,-25,-33,1011,-16,-28,-11
357,108,-26,1010,-14,-25,-13
358,178,-16,1008,-14,-5,-9
359,92,-14,1008,-12,21,-1
360,-52,-17,1005,-14,29,2
361,-172,-13,969,-19,21,1
362,-171,-17,990,-18,-4,-5
363,-46,-31,1001,-17,-25,-10
364,101,-27,1005,-14,-27,-12
365,176,-19,1008,-12,-10,-11
366,104,-17,1012,-15,17,-2
367,-32,-15,1007,-14,30,1
368,-162,-15,969,-18,22,1
369,-176,-19,989,-16,-2,-3
370,-71,-35,992,-17,-25,-9
371,92,-25,1008,-13,-28,-13
372,173,-26,1003,-13,-12,-10
373,122,-15,1009,-15,15,-4
374,-11,-13,1011,-16,29,1
375,-157,-9,973,-18,24,3
376,-176,-22,988,-18,2,-4
377,-96,-35,992,-16,-21,-9
378,80,-22,1011,-16,-30,-13
379,167,-28,1003,-16,-14,-13
380,135,-20,1005,-13,12,-4
381,5,-11,1006,-16,29,0
382,-145,-6,990,-17,26,2
383,-181,-22,985,-18,3,-3
384,-111,-35,985,-17,-20,-9
385,63,-22,1012,-13,-30,-13
386,159,-28,1010,-13,-17,-12
387,146,-20,1002,-12,8,-5
388,20,-9,1001,-14,28,1
389,-126,-8,993,-17,27,3
390,-188,-26,991,-18,7,-2
391,-125,-29,973,-18,-18,-10
392,44,-28,1013,-13,-30,-13
393,145,-29,1014,-13,-18,-13
394,165,-21,1008,-14,5,-6
395,41,-8,995,-14,26,-1
396,-117,-9,994,-17,28,3
397,-186,-19,989,-18,9,-1
398,-140,-26,982,-18,-13,-7
399,26,-28,1011,-15,-31,-12
400,136,-33,1010,-13,-21,-14
401,167,-19,1006,-13,1,-8
402,64,-9,999,-14,26,0
403,-103,-12,1000,-16,31,3
404,-183,-16,977,-18,13,0
405,-152,-19,988,-17,-12,-6
406,7,-32,1007,-15,-31,-13
407,125,-33,1012,-13,-23,-13
408,178,-20,1004,-12,-1,-8
409,78,-16,1004,-14,23,-2
410,-82,-14,1002,-17,30,2
411,-185,-10,970,-16,16,1
412,-155,-18,985,-17,-9,-6
413,-19,-31,1010,-14,-29,-11
414,116,-31,1009,-15,-25,-14
415,184,-22,1011,-13,-4,-10
416,87,-15,1003,-13,22,-1
417,-60,-14,1003,-14,29,2
418,-176,-15,974,-17,18,0
419,-168,-14,984,-16,-5,-4
420,-37,-31,1004,-15,-26,-12
421,104,-28,1009,-13,-27,-12
422,178,-20,1007,-13,-8,-10
423,103,-15,1009,-15,18,-2
424,-41,-16,1005,-17,29,2
425,-167,-16,972,-19,22,1
426,-172,-16,988,-16,-2,-5
427,-67,-33,996,-16,-25,-11
428,99,-24,1007,-14,-27,-12
429,173,-23,1007,-14,-11,-10
430,118,-16,1012,-16,16,-3
431,-22,-18,1012,-16,31,2
432,-161,-8,970,-18,23,2
433,-178,-22,988,-17,0,-4
434,-83,-30,996,-16,-23,-11
435,83,-23,1008,-14,-29,-12
436,174,-26,1007,-14,-15,-12
437,126,-17,1005,-13,13,-2
438,-3,-12,1009,-14,28,0
439,-150,-10,987,-18,26,2
440,-182,-23,979,-19,3,-2
441,-104,-33,989,-16,-20,-10
442,70,-25,1015,-14,-31,-13
443,165,-28,1004,-13,-16,-11
444,143,-22,1003,-12,10,-5
445,15,-6,1004,-14,27,0
446,-135,-10,992,-17,27,3
447,-185,-21,987,-17,6,-2
448,-122,-31,981,-18,-18,-7
449,54,-25,1013,-13,-30,-13
450,152,-30,1013,-14,-18,-11
451,156,-22,1003,-15,7,-6
452,37,-9,998,-13,27,0
453,-125,-8,993,-17,29,3
454,-184,-17,989,-18,9,-3
455,-135,-27,982,-18,-15,-8
456,30,-27,1005,-15,-29,-12
457,144,-33,1016,-14,-20,-13
458,165,-19,1005,-13,1,-7
459,56,-7,994,-14,25,-1
460,-108,-13,1000,-17,32,2
461,-190,-15,984,-18,12,0
462,-141,-27,981,-18,-13,-8
463,9,-29,1010,-14,-30,-12
464,128,-32,1007,-13,-23,-13
465,176,-20,1011,-13,-1,-9
466,70,-12,999,-14,26,0
467,-85,-10,1005,-15,29,1
468,-187,-18,974,-19,14,-1
469,-152,-18,979,-17,-10,-6
470,-10,-34,1012,-15,-29,-12
471,117,-31,1011,-13,-23,-13
472,178,-19,1005,-13,-4,-10
473,82,-12,1008,-14,22,-2
474,-65,-14,1001,-16,30,2
475,-178,-15,972,-18,17,1
476,-163,-20,983,-17,-6,-4
477,-32,-35,1008,-15,-27,-11
478,110,-27,1008,-13,-26,-14
479,176,-19,1007,-13,-8,-10
480,98,-14,1011,-13,18,-3
481,-50,-15,1002,-15,30,2
482,-169,-11,972,-17,20,1
483,-174,-17,988,-18,-4,-2
484,-59,-34,1000,-17,-26,-11
485,101,-26,1005,-14,-29,-14
486,176,-21,1007,-12,-11,-10
487,111,-13,1013,-15,17,-2
488,-25,-13,1014,-16,31,2
489,-162,-9,968,-17,22,3
490,-179,-20,986,-18,-2,-3
491,-77,-34,998,-17,-25,-10
492,87,-26,1007,-14,-29,-13
493,175,-26,1004,-13,-13,-12
494,127,-17,1010,-13,14,-4
495,-3,-9,1009,-15,29,0
496,-154,-7,983,-19,25,2
497,-182,-25,984,-17,1,-3
498,-100,-35,987,-16,-22,-10
499,73,-27,1017,-14,-30,-13
500,168,-26,1003,-12,-16,-12
501,143,-21,1005,-12,10,-4
502,12,-7,1006,-15,28,1
503,-139,-5,994,-16,27,1
504,-185,-21,986,-18,5,-2
505,-121,-32,979,-17,-21,-9
506,58,-26,1010,-13,-30,-13
507,155,-34,1016,-14,-17,-14
508,155,-23,1002,-13,7,-6
509,32,-7,998,-15,28,0
510,-122,-7,995,-16,28,3
511,-188,-19,991,-17,8,-1
512,-129,-29,978,-17,-16,-9
513,33,-25,1012,-14,-30,-12
514,145,-31,1013,-15,-21,-14
515,167,-23,1007,-13,3,-7
516,51,-10,995,-14,25,-2
517,-112,-10,997,-16,30,4
518,-186,-18,985,-18,11,0
519,-141,-23,985,-19,-13,-7
520,16,-27,1012,-15,-30,-13
521,128,-31,1007,-14,-23,-13
522,175,-22,1006,-14,-1,-8
523,68,-12,1002,-15,23,-1
524,-91,-15,999,-16,30,2
525,-184,-15,975,-18,14,-2
526,-151,-23,984,-17,-11,-6
527,-6,-29,1012,-15,-29,-12
528,117,-29,1011,-13,-23,-13
529,181,-20,1004,-14,-3,-9
530,81,-11,1006,-13,22,-1
531,-70,-15,1001,-17,31,3
532,-180,-18,972,-18,17,0
533,-164,-19,979,-17,-8,-5
534,-28,-31,1013,-15,-27,-12
535,111,-31,1006,-15,-26,-13
536,179,-17,1009,-13,-8,-10
537,96,-16,1006,-14,18,-1
538,-52,-14,1007,-15,31,2
539,-169,-12,970,-18,20,0
540,-172,-20,991,-18,-3,-5
541,-52,-34,1000,-15,-25,-11
542,102,-29,1006,-12,-27,-13
543,174,-22,1006,-11,-10,-11
544,109,-14,1013,-13,17,-3
545,-29,-14,1008,-15,31,1
546,-166,-13,969,-18,22,1
547,-172,-21,988,-18,-1,-4
548,-74,-31,997,-16,-23,-9
549,89,-27,1004,-15,-28,-13
550,174,-25,1008,-12,-11,-12
551,119,-14,1008,-13,15,-3
552,-9,-13,1009,-16,29,0
553,-157,-8,979,-18,24,1
554,-176,-22,983,-19,2,-4
555,-94,-35,990,-15,-21,-9
556,75,-23,1014,-15,-28,-13
557,168,-30,1001,-14,-15,-12
558,134,-18,1003,-12,9,-2
559,9,-8,1008,-16,28,0
560,-143,-9,989,-18,28,3
561,-183,-21,985,-19,4,-2
562,-113,-32,984,-17,-20,-9
563,56,-25,1010,-14,-30,-12
564,160,-28,1010,-15,-18,-11
565,149,-24,1006,-13,9,-6
566,26,-10,997,-14,27,0
567,-126,-7,998,-18,26,2
568,-183,-22,991,-16,7,-2
569,-131,-29,977,-17,-17,-7
570,40,-23,1010,-12,-30,-12
571,148,-32,1019,-13,-19,-13
572,162,-22,999,-14,5,-5
573,44,-12,998,-12,26,0
574,-112,-11,996,-17,28,3
575,-188,-21,984,-17,11,-1
576,-140,-22,984,-18,-13,-6
577,23,-28,1010,-14,-30,-12
578,132,-29,1011,-13,-22,-12
579,172,-18,1003,-13,0,-7
580,62,-12,1000,-15,24,-1
581,-98,-15,998,-17,31,3
582,-187,-19,980,-18,14,0
583,-148,-25,980,-17,-11,-7
584,2,-30,1013,-14,-30,-12
585,122,-29,1005,-14,-22,-13
586,174,-18,1010,-13,-2,-8
587,80,-11,1005,-17,22,0
588,-80,-18,1001,-16,30,2
589,-180,-17,970,-17,15,0
590,-161,-19,985,-16,-9,-5
591,-21,-32,1008,-15,-29,-10
592,112,-29,1009,-13,-25,-14
593,180,-15,1007,-14,-5,-11
594,91,-16,1009,-14,20,-3
595,-56,-12,998,-14,30,2
596,-177,-14,973,-19,19,0
597,-169,-19,987,-16,-3,-6
598,-46,-35,1001,-16,-25,-12
599,105,-29,1005,-13,-27,-14
600,178,-22,1011,-11,-10,-11
601,105,-10,1012,-14,18,-1
602,-35,-16,1007,-16,31,2
603,-173,-11,971,-16,21,2
604,-175,-20,987,-18,-3,-4
605,-67,-36,997,-16,-25,-11
606,92,-26,1007,-13,-29,-13
607,175,-25,1005,-15,-11,-11
608,122,-19,1013,-12,16,-4
609,-19,-15,1008,-15,29,1
610,-158,-7,975,-17,24,2
611,-179,-22,984,-16,0,-4
612,-88,-32,994,-17,-22,-10
613,81,-26,1010,-15,-28,-12
614,171,-27,1005,-14,-12,-11
615,133,-19,1003,-13,13,-3
616,1,-10,1009,-14,28,0
617,-147,-8,986,-18,26,3
618,-181,-21,983,-18,4,-3
619,-109,-31,985,-17,-20,-9
620,65,-22,1015,-15,-31,-13
621,164,-26,1008,-14,-17,-14
622,144,-22,1002,-12,9,-4
623,22,-11,1002,-13,27,0
624,-136,-10,993,-18,28,3
625,-185,-23,986,-17,7,-2
626,-124,-27,977,-17,-18,-9
627,50,-22,1010,-14,-31,-13
628,155,-29,1017,-13,-18,-13
629,156,-23,1007,-14,5,-5
630,40,-6,993,-14,26,1
631,-123,-9,992,-17,29,3
632,-188,-20,990,-18,8,-3
633,-135,-28,981,-17,-16,-7
634,31,-27,1009,-13,-30,-13
635,140,-31,1017,-12,-20,-14
636,167,-17,1002,-12,2,-7
637,58,-9,999,-14,26,0
638,-103,-13,1000,-16,29,5
639,-186,-20,979,-18,12,-1
640,-146,-21,986,-20,-13,-7
641,6,-32,1010,-14,-30,-12
642,128,-32,1008,-13,-23,-13
643,175,-17,1005,-14,0,-7
644,74,-10,1004,-14,23,-3
645,-84,-15,1004,-16,31,2
646,-188,-18,969,-17,15,1
647,-151,-18,984,-17,-9,-6
648,-15,-35,1012,-17,-28,-11
649,119,-30,1010,-14,-25,-14
650,178,-21,1005,-13,-4,-9
651,89,-11,1004,-13,20,-2
652,-62,-16,1003,-14,29,1
653,-179,-11,967,-16,18,0
654,-166,-22,988,-18,-7,-4
655,-35,-32,1004,-16,-28,-11
656,105,-30,1009,-14,-26,-13
657,183,-19,1007,-12,-8,-10
658,100,-12,1014,-13,19,-1
659,-44,-14,1003,-15,30,3
660,-174,-13,972,-18,21,2
661,-172,-20,988,-18,-3,-4
662,-59,-33,999,-17,-26,-11
663,98,-27,1004,-13,-28,-13
664,178,-22,1007,-14,-10,-10
665,110,-16,1014,-14,17,-3
666,-25,-13,1008,-16,30,1
667,-163,-13,972,-18,23,3
668,-179,-18,984,-16,-2,-2
669,-80,-35,996,-17,-24,-10
670,91,-24,1009,-14,-29,-12
671,171,-26,1005,-14,-14,-11
672,127,-16,1006,-13,14,-3
673,-8,-12,1011,-16,31,1
674,-153,-10,982,-17,24,2
675,-179,-25,981,-16,1,-3
676,-103,-33,994,-16,-22,-10
677,78,-23,1008,-14,-30,-14
678,166,-31,1009,-13,-15,-13
679,141,-17,1000,-11,10,-3
680,8,-11,1007,-14,29,1
681,-139,-6,991,-18,26,2
682,-184,-22,988,-21,6,-2
683,-115,-30,980,-21,-5,-5
684,56,-24,1009,-14,-29,-12
685,160,-29,1017,-13,-18,-12
686,153,-21,1003,-13,7,-5
687,29,-6,996,-15,28,-1
688,-127,-6,995,-17,29,2
689,-189,-24,992,-19,7,-2
690,-129,-28,976,-17,-17,-9
691,41,-26,1011,-13,-30,-13
692,146,-31,1020,-13,-19,-12
693,167,-17,1003,-12,4,-5
694,47,-9,998,-14,26,1
695,-114,-11,994,-18,30,3
696,-187,-22,984,-19,11,-2
697,-143,-24,983,-18,-13,-7
698,19,-27,1011,-14,-30,-12
699,136,-32,1012,-13,-22,-13
700,173,-17,1000,-13,1,-6
701,68,-11,1003,-15,24,-1
702,-98,-13,1000,-18,31,2
703,-187,-17,974,-18,15,0
704,-148,-21,982,-18,-11,-6
705,-4,-29,1014,-14,-29,-12
706,123,-31,1009,-12,-25,-14
707,177,-20,1006,-13,-2,-8
708,81,-10,1006,-13,23,-1
709,-73,-16,1003,-17,30,1
710,-180,-16,969,-17,16,-1
711,-162,-16,982,-16,-8,-5
712,-24,-33,1011,-16,-28,-11
713,113,-29,1008,-15,-25,-13
714,179,-20,1010,-13,-6,-9
715,92,-12,1007,-15,19,-3
716,-55,-16,1005,-16,30,2
717,-173,-14,967,-17,19,2
718,-169,-21,988,-16,-4,-4
719,-46,-35,998,-15,-28,-11
720,105,-24,1003,-12,-28,-12
721,179,-19,1012,-12,-10,-10
722,106,-12,1012,-14,18,-2
723,-33,-14,1010,-16,30,0
724,-167,-11,967,-17,22,1
725,-175,-21,991,-17,-2,-2
726,-67,-34,994,-17,-25,-10
727,92,-29,1003,-13,-27,-13
728,178,-25,1008,-12,-10,-11
729,117,-14,1010,-14,16,-2
730,-13,-10,1007,-14,29,1
731,-161,-10,977,-19,24,3
732,-179,-22,984,-17,-1,-5
733,-87,-36,995,-15,-22,-10
734,81,-23,1008,-15,-30,-14
735,169,-26,1005,-14,-14,-13
736,132,-17,1003,-13,11,-4
737,1,-11,1009,-14,28,1
738,-146,-9,987,-16,26,2
739,-183,-22,985,-19,4,-2
740,-108,-35,984,-17,-20,-8
741,62,-27,1014,-14,-29,-13
742,165,-28,1009,-14,-17,-12
743,146,-23,1002,-12,9,-4
744,22,-5,1002,-15,28,0
745,-135,-7,997,-18,28,3
746,-183,-19,987,-18,7,-2
747,-122,-31,975,-17,-18,-7
748,45,-22,1012,-13,-31,-13
749,154,-30,1016,-15,-19,-13
750,156,-25,1005,-14,5,-5
751,38,-10,999,-14,25,0
752,-120,-8,993,-16,28,2
753,-184,-19,986,-15,9,-2
754,-136,-24,984,-15,-15,-7
755,29,-26,1007,-16,-31,-11
756,143,-33,1013,-15,-21,-14
757,168,-22,1008,-12,3,-6
758,57,-12,996,-14,25,0
759,-103,-16,1001,-16,30,2
760,-188,-19,980,-18,12,-1
761,-143,-18,984,-18,-12,-7
762,7,-25,1016,-16,-30,-11
763,123,-28,1003,-14,-23,-13
764,176,-24,1008,-12,-1,-8
765,74,-14,1004,-15,23,1
766,-86,-17,1000,-15,31,2
767,-179,-15,974,-18,15,0
768,-159,-16,985,-16,-8,-5
769,-12,-28,1009,-14,-29,-13
770,116,-31,1012,-14,-24,-14
771,177,-17,1006,-13,-4,-9
772,89,-13,1005,-14,21,-2
773,-65,-19,1005,-15,30,2
774,-177,-15,963,-17,19,1
775,-164,-20,985,-17,-6,-6
776,-38,-33,1008,-15,-26,-10
777,108,-26,1005,-14,-26,-13
778,182,-21,1010,-13,-9,-10
779,100,-11,1007,-13,18,-1
780,-44,-18,1006,-16,31,1
781,-168,-14,971,-18,21,1
782,-173,-20,987,-18,-4,-4
783,-55,-33,997,-18,-26,-11
784,100,-27,1009,-11,-27,-13
785,174,-20,1003,-14,-11,-10
786,115,-14,1019,-15,16,-2
787,-25,-13,1007,-17,31,1
788,-163,-8,972,-20,23,2
789,-176,-23,985,-16,0,-5
790,-79,-33,998,-17,-23,-9
791,85,-27,1003,-14,-30,-12
792,176,-27,1009,-12,-14,-12
793,126,-15,1010,-12,13,-3
794,-6,-6,1006,-14,29,-1
795,-154,-11,985,-19,25,1
796,-185,-19,979,-18,2,-3
797,-96,-36,991,-16,-21,-10
798,73,-21,1011,-14,-29,-14
799,171,-28,1006,-15,-15,-13
800,140,-21,1001,-11,11,-3
801,4,-10,1008,-14,28,1
802,-140,-9,992,-17,27,3
803,-186,-21,987,-17,5,-2
804,-116,-29,979,-16,-20,-9
805,60,-21,1017,-14,-32,-13
806,160,-29,1008,-15,-18,-12
807,153,-23,1006,-14,7,-5
808,26,-10,998,-15,27,0
809,-128,-9,995,-17,28,2
810,-185,-22,991,-17,7,-4
811,-133,-26,976,-17,-18,-8
812,44,-25,1010,-13,-31,-13
813,148,-30,1015,-13,-19,-12
814,162,-18,1006,-14,5,-5
815,47,-12,994,-14,26,0
816,-117,-14,993,-17,30,4
817,-187,-22,985,-19,9,-1
818,-142,-26,985,-18,-14,-7
819,24,-25,1006,-15,-31,-14
820,135,-32,1017,-14,-21,-13
821,171,-17,1002,-12,0,-7
822,64,-10,999,-15,24,0
823,-97,-11,1000,-17,31,3
824,-187,-20,979,-18,14,-1
825,-148,-23,984,-18,-12,-7
826,2,-31,1011,-16,-30,-12
827,125,-30,1010,-12,-22,-13
828,179,-18,1007,-12,-1,-9
829,78,-8,1003,-14,23,-1
830,-83,-14,1006,-17,31,2
831,-185,-18,968,-17,17,-1
832,-160,-24,980,-18,-9,-5
833,-16,-34,1011,-14,-29,-11
834,118,-32,1010,-13,-25,-12
835,181,-16,1007,-14,-4,-8
836,91,-7,1007,-14,22,-1
837,-64,-12,1003,-17,31,2
838,-175,-16,967,-18,17,0
839,-166,-20,986,-16,-6,-6
840,-36,-38,1004,-17,-27,-11
841,106,-25,1007,-13,-27,-14
842,182,-21,1008,-13,-10,-11
843,101,-10,1011,-13,18,-1
844,-43,-13,1009,-15,30,2
845,-171,-14,970,-18,22,1
846,-173,-20,991,-18,-3,-4
847,-61,-34,995,-15,-25,-11
848,95,-26,1005,-14,-28,-13
849,179,-23,1007,-14,-12,-12
850,115,-14,1012,-15,16,-2
851,-20,-16,1008,-16,30,0
852,-161,-11,971,-16,23,2
853,-179,-22,985,-18,-2,-4
854,-82,-34,997,-17,-25,-10
855,89,-24,1006,-14,-29,-12
856,175,-24,1008,-13,-13,-13
857,127,-21,1009,-14,14,-4
858,-3,-10,1011,-15,29,2
859,-153,-11,980,-19,27,3
860,-183,-25,982,-17,3,-4
861,-100,-35,994,-16,-21,-9
862,74,-22,1011,-13,-30,-13
863,168,-25,1006,-13,-16,-12
864,139,-17,1004,-14,10,-5
865,13,-11,1005,-15,29,0
866,-141,-6,994,-18,28,3
867,-184,-28,984,-17,5,-2
868,-120,-33,978,-16,-19,-9
869,59,-23,1010,-14,-31,-14
870,158,-28,1013,-14,-17,-13
871,155,-16,1005,-13,7,-6
872,32,-6,999,-15,28,1
873,-128,-7,993,-16,29,2
874,-187,-24,993,-18,8,-3
875,-128,-28,976,-16,-18,-8
876,37,-29,1009,-14,-30,-12
877,151,-29,1016,-14,-20,-13
878,166,-23,1007,-13,3,-6
879,49,-3,994,-15,25,0
880,-116,-10,996,-16,30,3
881,-188,-18,988,-18,11,-1
882,-140,-26,982,-19,-15,-8
883,22,-28,1007,-13,-31,-12
884,136,-28,1014,-13,-22,-12
885,175,-19,1002,-12,0,-8
886,62,-11,1000,-15,23,1
887,-99,-14,1000,-15,30,4
888,-188,-17,976,-17,14,-3
889,-150,-21,980,-18,-11,-6
890,0,-31,1013,-15,-30,-12
891,125,-34,1008,-13,-25,-14
892,178,-18,1005,-12,-3,-8
893,80,-7,1006,-14,23,0
894,-77,-17,1007,-17,32,3
895,-184,-14,968,-16,16,1
896,-159,-21,981,-18,-9,-5
897,-21,-31,1012,-14,-28,-11
898,116,-31,1010,-14,-25,-12
899,182,-17,1007,-12,-5,-9
900,92,-12,1007,-12,21,-1
901,-60,-16,1003,-16,31,2
902,-179,-13,969,-17,18,1
903,-170,-22,988,-19,-5,-5
904,-41,-34,1003,-16,-27,-12
905,105,-32,1008,-14,-28,-13
906,181,-18,1006,-12,-9,-9
907,102,-15,1013,-13,17,-1
908,-38,-15,1007,-15,31,1
909,-171,-14,970,-17,22,2
910,-175,-19,986,-18,-4,-4
911,-66,-34,999,-16,-25,-10
912,99,-28,1004,-13,-28,-13
913,176,-24,1006,-13,-12,-11
914,117,-15,1016,-12,16,-2
915,-21,-16,1007,-15,30,1
916,-165,-12,973,-16,24,2
917,-177,-21,987,-17,-1,-3
918,-84,-33,994,-18,-25,-10
919,89,-23,1007,-14,-29,-13
920,172,-29,1008,-14,-12,-12
921,132,-17,1002,-12,13,-3
922,-5,-10,1009,-16,30,0
923,-153,-8,987,-18,27,2
924,-181,-23,980,-17,2,-2
925,-106,-28,989,-18,-21,-10
926,74,-24,1011,-15,-31,-14
927,168,-27,1009,-13,-15,-12
928,145,-21,999,-12,11,-3
929,13,-13,1006,-14,29,0
930,-139,-8,996,-18,28,2
931,-187,-20,983,-18,6,-3
932,-116,-32,982,-17,-19,-9
933,52,-20,1010,-14,-31,-12
934,160,-28,1013,-13,-19,-14
935,154,-23,1005,-14,6,-5
936,33,-8,994,-14,26,1
937,-124,-11,993,-16,29,3
938,-189,-24,993,-18,9,-3
939,-131,-23,974,-16,-15,-8
940,35,-26,1014,-14,-30,-14
941,140,-29,1015,-15,-20,-13
942,168,-20,1003,-13,3,-7
943,52,-12,998,-15,25,0
944,-109,-12,996,-17,30,3
945,-187,-22,984,-18,11,-2
946,-148,-22,985,-16,-12,-6
947,17,-26,1009,-15,-30,-11
948,127,-33,1009,-13,-22,-13
949,177,-17,1007,-11,-1,-8
950,70,-8,1002,-15,23,0
951,-88,-14,1002,-16,32,3
952,-184,-16,972,-19,15,0
953,-152,-21,983,-18,-11,-7
954,-6,-32,1012,-15,-29,-12
955,119,-31,1010,-14,-24,-13
956,180,-20,1007,-13,-4,-9
957,81,-10,1002,-15,23,-1
958,-69,-15,1006,-17,32,2
959,-182,-16,967,-17,17,0
960,-165,-18,984,-17,-8,-5
961,-29,-36,1006,-15,-27,-11
962,111,-26,1012,-15,-27,-12
963,181,-20,1006,-13,-6,-9
964,92,-8,1010,-14,20,-1
965,-46,-16,1003,-17,30,1
966,-178,-14,970,-19,21,0
967,-170,-21,987,-18,-3,-6
968,-50,-37,1001,-16,-25,-11
969,100,-24,1004,-13,-26,-12
970,179,-19,1008,-13,-9,-10
971,110,-12,1016,-14,16,-3
972,-27,-13,1007,-16,29,2
973,-169,-9,972,-18,22,2
974,-178,-22,985,-18,-2,-3
975,-73,-33,996,-17,-25,-9
976,92,-30,1003,-15,-30,-13
977,174,-26,1008,-13,-12,-11
978,127,-17,1009,-13,15,-3
979,-12,-10,1010,-14,30,1
980,-154,-9,978,-18,24,2
981,-179,-21,985,-15,2,-3
982,-94,-35,992,-16,-21,-10
983,78,-22,1012,-14,-30,-14
984,168,-27,1004,-14,-15,-13
985,136,-19,1000,-13,12,-4
986,6,-10,1011,-16,28,2
987,-141,-7,985,-18,26,2
988,-185,-25,989,-18,6,-2
989,-112,-31,980,-15,-20,-9
990,58,-23,1014,-14,-31,-13
991,161,-31,1010,-12,-17,-13
992,150,-19,1002,-12,7,-5
993,27,-7,1000,-14,27,-1
994,-133,-6,993,-17,29,4
995,-182,-23,993,-19,8,-2
996,-128,-30,976,-17,-16,-8
997,44,-23,1008,-14,-30,-12
998,152,-29,1018,-13,-19,-12
999,161,-19,1006,-14,4,-6
1000,44,-11,995,-15,26,1
1001,-118,-9,994,-17,30,3
1002,-190,-19,989,-19,11,-1
1003,-136,-23,982,-18,-15,-7
1004,25,-28,1011,-16,-30,-12
1005,137,-29,1011,-13,-22,-12
1006,168,-23,1007,-13,1,-8
1007,65,-12,998,-14,23,-1
1008,-103,-13,999,-15,32,4
1009,-188,-19,978,-16,13,-1
1010,-149,-20,984,-18,-11,-5
1011,2,-30,1009,-14,-31,-13
1012,124,-29,1011,-12,-24,-14
1013,182,-22,1004,-13,-2,-9
1014,73,-10,1003,-14,23,-1
1015,-79,-14,1005,-16,30,3
1016,-186,-18,972,-17,17,0
1017,-158,-16,979,-18,-10,-6
1018,-14,-32,1016,-14,-29,-12
1019,111,-29,1011,-15,-24,-12
1020,186,-22,1004,-13,-5,-10
1021,87,-13,1010,-14,21,0
1022,-59,-12,1000,-15,31,2
1023,-174,-16,972,-18,18,1
1024,-166,-17,983,-18,-5,-5
1025,-40,-35,1006,-16,-26,-11
1026,108,-31,1006,-15,-28,-13
1027,175,-21,1007,-13,-9,-9
1028,104,-12,1010,-14,18,-2
1029,-40,-15,1006,-16,31,3
1030,-170,-9,971,-17,21,2
1031,-171,-24,987,-18,-3,-4
1032,-64,-36,996,-18,-25,-11
1033,94,-25,1004,-13,-28,-13
1034,179,-23,1007,-13,-12,-11
1035,114,-17,1009,-14,16,-2
1036,-18,-10,1010,-15,30,1
1037,-159,-13,974,-18,24,1
1038,-182,-17,981,-18,-1,-4
1039,-84,-37,995,-19,-24,-9
1040,82,-29,1010,-17,-29,-13
1041,173,-27,1001,-14,-15,-11
1042,130,-16,1008,-13,13,-3
1043,-1,-10,1013,-15,29,0
1044,-149,-4,981,-17,26,3
1045,-181,-22,986,-18,3,-3
1046,-105,-37,989,-18,-20,-9
1047,67,-21,1011,-13,-30,-12
1048,167,-29,1006,-13,-16,-12
1049,142,-21,1004,-12,9,-4
1050,23,-10,1003,-15,28,1
1051,-139,-4,997,-17,28,4
1052,-184,-20,986,-17,7,-2
1053,-121,-29,981,-18,-19,-8
1054,54,-22,1008,-14,-31,-12
1055,157,-32,1018,-14,-18,-12
1056,156,-24,1003,-14,7,-4
1057,33,-12,992,-13,28,0
1058,-124,-7,997,-16,28,2
1059,-189,-24,988,-18,8,-2
1060,-131,-25,980,-18,-16,-7
1061,35,-25,1008,-15,-29,-12
1062,140,-28,1015,-14,-19,-13
1063,169,-23,1004,-13,2,-7
1064,50,-8,997,-14,25,0
1065,-108,-11,995,-18,30,3
1066,-185,-19,987,-18,13,-2
1067,-142,-23,984,-19,-13,-7
1068,17,-27,1008,-16,-30,-12
1069,128,-33,1012,-14,-22,-13
1070,178,-15,1004,-13,0,-8
1071,68,-12,1003,-14,24,-1
1072,-91,-16,1002,-15,30,1
1073,-186,-19,973,-17,15,-1
1074,-150,-19,981,-18,-10,-8
1075,-9,-30,1011,-16,-30,-12
1076,122,-31,1012,-13,-24,-13
1077,177,-17,1007,-14,-3,-8
1078,84,-11,1006,-15,21,-2
1079,-74,-18,1001,-18,30,2
1080,-178,-14,967,-16,16,0
1081,-162,-20,985,-16,-8,-6
1082,-29,-33,1008,-16,-27,-11
1083,113,-28,1008,-14,-25,-13
1084,181,-18,1008,-13,-7,-11
1085,94,-12,1006,-13,19,-2
1086,-52,-20,1006,-16,31,1
1087,-172,-12,968,-18,20,0
1088,-168,-18,992,-16,-4,-4
1089,-51,-37,999,-16,-26,-11
1090,99,-28,1004,-13,-27,-12
1091,177,-20,1009,-13,-10,-9
1092,105,-13,1012,-15,18,-2
1093,-29,-16,1009,-17,29,0
1094,-166,-10,967,-17,22,1
1095,-175,-20,989,-18,-2,-4
1096,-72,-35,995,-17,-25,-10
1097,89,-25,1009,-13,-29,-13
1098,175,-25,1003,-14,-13,-12
1099,122,-15,1014,-13,15,-4
1100,-11,-12,1007,-15,30,1
1101,-158,-8,981,-18,24,1
1102,-179,-23,986,-18,0,-5
1103,-95,-31,991,-18,-23,-9
1104,81,-24,1013,-14,-29,-14
1105,166,-27,1007,-14,-14,-13
1106,139,-18,1000,-12,11,-5
1107,5,-14,1010,-15,28,0
1108,-145,-9,985,-18,27,3
1109,-182,-20,984,-18,4,-2
1110,-110,-30,987,-18,-20,-8
1111,61,-22,1011,-14,-30,-12
1112,163,-25,1009,-14,-16,-12
1113,145,-25,1002,-15,8,-7
1114,26,-8,997,-15,29,0
1115,-130,-9,999,-18,28,3
1116,-186,-22,985,-19,8,-3
1117,-123,-30,981,-16,-17,-8
1118,43,-22,1009,-14,-31,-13
1119,147,-27,1018,-15,-19,-13
1120,161,-21,1006,-13,4,-6
1121,40,-9,993,-14,26,0
1122,-116,-12,995,-15,28,3
1123,-189,-21,991,-19,10,-2
1124,-135,-28,980,-16,-13,-7
1125,31,-25,1011,-14,-30,-12
1126,136,-33,1012,-13,-21,-14
1127,166,-18,1002,-12,2,-6
1128,60,-11,1002,-15,24,0
1129,-102,-12,997,-16,30,2
1130,-183,-21,979,-17,14,-2
1131,-147,-20,981,-18,-14,-6
1132,5,-32,1014,-16,-30,-12
1133,125,-28,1008,-14,-23,-13
1134,176,-22,1003,-15,-2,-9
1135,76,-9,1006,-15,22,0
1136,-81,-16,1004,-17,29,3
1137,-183,-16,968,-17,15,0
1138,-156,-21,984,-17,-10,-6
1139,-18,-30,1008,-17,-29,-12
1140,117,-31,1010,-14,-25,-12
1141,176,-19,1005,-12,-4,-8
1142,88,-11,1005,-14,21,-2
1143,-62,-19,1006,-14,30,2
1144,-174,-17,967,-18,18,2
1145,-165,-19,990,-17,-6,-5
1146,-37,-34,1002,-16,-27,-12
1147,103,-27,1009,-15,-26,-13
1148,179,-20,1004,-12,-8,-10
1149,98,-12,1010,-15,19,-2
1150,-36,-15,1005,-15,30,2
1151,-169,-11,971,-18,21,1
1152,-171,-20,987,-19,-4,-5
1153,-64,-35,997,-17,-26,-11
1154,95,-29,1004,-14,-27,-14
1155,178,-24,1009,-13,-11,-11
1156,116,-15,1010,-14,15,-1
1157,-21,-13,1011,-15,30,3
1158,-164,-9,973,-18,24,1
1159,-179,-21,985,-17,-1,-5
1160,-83,-33,996,-17,-23,-11
1161,83,-26,1011,-15,-29,-14
1162,176,-27,1004,-13,-13,-11
1163,132,-19,1008,-13,14,-4
1164,-3,-9,1007,-15,29,1
1165,-151,-7,985,-20,26,4
1166,-180,-20,981,-18,3,-3
1167,-104,-33,990,-15,-20,-9
1168,72,-24,1010,-15,-30,-14
1169,164,-29,1009,-12,-17,-11
1170,145,-20,1002,-13,8,-4
1171,12,-9,1006,-14,30,0
1172,-137,-7,992,-18,28,3
1173,-186,-24,988,-18,6,-2
1174,-120,-31,978,-16,-20,-9
1175,52,-23,1011,-13,-31,-13
1176,156,-28,1013,-14,-18,-13
1177,157,-23,1003,-14,6,-5
1178,35,-8,997,-13,27,0
1179,-125,-15,993,-15,28,3
1180,-188,-19,991,-16,9,-2
1181,-131,-27,977,-17,-15,-7
1182,37,-23,1011,-13,-29,-12
1183,139,-29,1013,-14,-20,-11
1184,167,-21,1007,-14,3,-7
1185,49,-13,997,-15,25,0
1186,-108,-11,994,-16,28,2
1187,-185,-22,986,-18,11,-2
1188,-142,-21,983,-16,-12,-6
1189,14,-28,1009,-17,-31,-11
1190,130,-32,1012,-13,-22,-13
1191,171,-19,1003,-13,-1,-7
1192,70,-13,1002,-16,23,-2
1193,-91,-15,1004,-18,30,3
1194,-185,-15,971,-19,13,0
1195,-150,-19,984,-17,-12,-7
1196,-6,-29,1013,-14,-30,-11
1197,116,-29,1007,-13,-24,-13
1198,181,-20,1008,-13,-4,-9
1199,79,-16,1004,-14,22,-1
1200,-69,-14,1002,-16,31,2
1201,-182,-14,973,-19,16,1
1202,-162,-18,981,-17,-7,-5
1203,-28,-33,1012,-16,-27,-11
1204,109,-26,1007,-14,-25,-13
1205,180,-18,1008,-13,-6,-9
1206,95,-9,1006,-14,20,-2
1207,-54,-14,1004,-15,30,2
1208,-168,-14,970,-17,18,0
1209,-171,-19,986,-18,-4,-4
1210,-49,-36,1002,-18,-26,-11
1211,104,-25,1007,-13,-27,-12
1212,178,-24,1006,-14,-9,-10
1213,108,-12,1014,-14,18,-2
1214,-33,-16,1010,-18,29,1
1215,-167,-13,970,-17,22,1
1216,-174,-21,985,-18,-2,-4
1217,-74,-34,1001,-17,-24,-11
1218,91,-22,1000,-13,-28,-13
1219,174,-23,1009,-13,-12,-12
1220,122,-17,1011,-15,15,-3
1221,-12,-10,1008,-15,28,0
1222,-154,-12,977,-19,24,1
1223,-181,-22,987,-17,0,-3
1224,-88,-30,986,-16,-22,-9
1225,73,-26,1018,-14,-28,-13
1226,171,-25,1000,-13,-14,-12
1227,137,-21,1005,-13,13,-4
1228,5,-9,1006,-16,28,2
1229,-143,-8,992,-19,27,4
1230,-181,-26,983,-17,4,-3
1231,-113,-30,986,-15,-20,-9
1232,65,-23,1012,-14,-31,-13
1233,160,-28,1008,-15,-18,-12
1234,149,-19,1001,-12,8,-5
1235,22,-11,1002,-15,28,0
1236,-132,-9,992,-17,28,3
1237,-183,-25,988,-18,6,-3
1238,-126,-27,977,-17,-18,-10
1239,50,-23,1009,-14,-31,-12
1240,150,-28,1018,-15,-19,-14
1241,160,-23,1003,-14,6,-7
1242,41,-6,994,-14,25,0
1243,-119,-12,996,-17,29,3
1244,-190,-23,989,-20,10,-1
1245,-134,-28,982,-18,-15,-8
1246,29,-28,1008,-13,-30,-14
1247,137,-30,1016,-14,-21,-14
1248,171,-16,1004,-13,1,-7
1249,57,-8,997,-15,25,-1
1250,-103,-9,996,-17,30,2
1251,-189,-22,984,-18,14,-2
1252,-145,-21,979,-18,-12,-8
1253,10,-33,1013,-16,-32,-11
1254,128,-29,1010,-11,-24,-13
1255,178,-20,1002,-13,-1,-7
1256,74,-11,1005,-14,25,-1
1257,-88,-11,1006,-16,30,2
1258,-183,-19,967,-17,14,-2
1259,-158,-21,987,-18,-9,-5
1260,-11,-35,1008,-16,-28,-11
1261,119,-28,1012,-13,-24,-15
1262,179,-19,1009,-14,-5,-9
1263,88,-10,1003,-14,22,-1
1264,-69,-18,1005,-16,30,2
1265,-182,-14,968,-19,17,1
1266,-167,-22,984,-17,-7,-5
1267,-32,-36,1006,-15,-27,-12
1268,109,-29,1009,-16,-27,-13
1269,185,-18,1010,-13,-7,-10
1270,97,-8,1007,-12,19,-1
1271,-49,-16,1007,-17,31,2
1272,-177,-16,969,-18,21,2
1273,-173,-22,988,-17,-5,-4
1274,-52,-37,1000,-17,-27,-11
1275,103,-29,1006,-13,-28,-14
1276,179,-19,1007,-12,-10,-11
1277,116,-11,1013,-13,17,-3
1278,-31,-13,1008,-17,32,2
1279,-170,-9,971,-17,24,2
1280,-179,-21,985,-19,-1,-4
1281,-74,-38,998,-18,-24,-10
1282,93,-26,1005,-13,-29,-14
1283,179,-24,1006,-13,-12,-12
1284,126,-15,1009,-13,15,-3
1285,-12,-8,1011,-15,31,0
1286,-161,-8,977,-20,25,3
1287,-183,-20,985,-18,0,-4
1288,-92,-37,994,-17,-23,-11
1289,76,-27,1008,-14,-29,-13
1290,175,-27,1008,-13,-14,-13
1291,137,-18,1001,-12,12,-3
1292,7,-5,1009,-15,28,2
1293,-145,-7,989,-20,27,4
1294,-185,-22,984,-19,6,-1
1295,-115,-34,982,-19,-20,-7
1296,60,-25,1011,-14,-32,-14
1297,163,-30,1011,-13,-18,-11
1298,153,-22,1002,-15,7,-4
1299,26,-8,1002,-15,28,1
1300,-133,-5,993,-18,30,3
1301,-187,-22,990,-18,8,-3
1302,-127,-30,977,-16,-18,-9
1303,46,-23,1008,-14,-31,-12
1304,154,-32,1017,-14,-19,-14
1305,162,-23,1003,-13,5,-5
1306,42,-6,996,-15,25,-1
1307,-119,-12,992,-18,30,3
1308,-190,-22,991,-16,10,-2
1309,-141,-23,980,-18,-15,-7
1310,27,-27,1010,-14,-30,-13
1311,140,-32,1018,-15,-21,-12
1312,167,-22,1002,-12,1,-6
1313,61,-7,1001,-15,24,-1
1314,-105,-13,997,-16,30,4
1315,-187,-14,978,-18,14,-1
1316,-147,-21,987,-18,-12,-7
1317,7,-27,1008,-15,-30,-12
1318,129,-36,1011,-13,-23,-12
1319,177,-19,1006,-12,-1,-7
1320,76,-14,1001,-15,25,-1
1321,-85,-13,1005,-15,32,2
1322,-187,-16,971,-17,16,-1
1323,-155,-19,984,-17,-9,-7
1324,-12,-34,1010,-15,-30,-12
1325,115,-28,1010,-12,-26,-13
1326,184,-22,1008,-15,-4,-10
1327,87,-13,1007,-15,22,-1
1328,-63,-13,1000,-15,30,3
1329,-180,-15,973,-18,18,0
1330,-166,-19,983,-18,-7,-6
1331,-33,-35,1008,-15,-26,-11
1332,107,-29,1008,-14,-26,-13
1333,183,-20,1009,-13,-7,-10
1334,103,-12,1008,-14,18,-2
1335,-49,-18,1005,-16,32,3
1336,-172,-13,971,-17,22,1
1337,-174,-20,984,-17,-3,-5
1338,-55,-33,999,-17,-26,-11
1339,97,-29,1007,-13,-28,-13
1340,178,-22,1007,-13,-9,-10
1341,112,-19,1012,-15,16,-2
1342,-26,-13,1007,-16,31,0
1343,-166,-13,974,-19,23,2
1344,-176,-16,983,-17,-1,-4
1345,-78,-35,1000,-17,-24,-10
1346,91,-26,1005,-13,-28,-14
1347,177,-28,1006,-13,-12,-11
1348,122,-16,1008,-14,14,-2
1349,-7,-9,1014,-15,29,2
1350,-156,-7,976,-17,26,2
1351,-182,-20,983,-14,7,-3
1352,-94,-34,997,-14,-18,-9
1353,77,-22,1010,-16,-31,-12
1354,170,-26,1004,-13,-16,-11
1355,136,-23,1006,-12,12,-3
1356,6,-12,1005,-16,28,1
1357,-144,-6,990,-15,27,3
1358,-186,-26,987,-17,3,-2
1359,-113,-28,980,-16,-21,-9
1360,59,-26,1014,-13,-30,-12
1361,160,-25,1011,-14,-17,-12
1362,151,-22,1003,-14,7,-5
1363,23,-10,999,-15,28,0
1364,-133,-7,996,-17,28,3
1365,-185,-23,985,-17,7,-3
1366,-130,-26,979,-16,-17,-7
1367,48,-26,1008,-13,-33,-13
1368,152,-29,1018,-14,-19,-13
1369,160,-24,1001,-15,6,-6
1370,48,-6,1001,-14,27,0
1371,-119,-11,991,-17,30,4
1372,-189,-21,985,-19,10,0
1373,-138,-28,986,-18,-14,-6
1374,22,-24,1004,-13,-30,-12
1375,142,-31,1013,-14,-22,-13
1376,171,-17,1008,-12,2,-7
1377,62,-7,997,-15,25,1
1378,-102,-13,998,-18,32,2
1379,-191,-23,980,-18,14,0
1380,-145,-21,984,-17,-12,-5
1381,7,-31,1012,-16,-31,-12
1382,128,-28,1006,-13,-24,-14
1383,181,-20,1010,-12,-3,-8
1384,74,-11,999,-12,24,-2
1385,-86,-13,1005,-17,32,2
1386,-185,-16,972,-19,15,-1
1387,-160,-20,980,-17,-9,-5
1388,-13,-34,1010,-14,-29,-12
1389,116,-31,1012,-12,-25,-13
1390,182,-18,1007,-13,-6,-10
1391,90,-14,1003,-13,21,-1
1392,-66,-12,1004,-15,31,2
1393,-179,-12,970,-18,17,1
1394,-170,-18,986,-17,-6,-4
1395,-32,-35,1006,-16,-27,-12
1396,109,-30,1008,-16,-26,-13
1397,185,-20,1008,-12,-8,-11
1398,100,-11,1010,-13,20,-2
1399,-50,-15,1003,-14,31,2
1400,-172,-15,969,-18,21,1
1401,-174,-18,987,-17,-4,-6
1402,-57,-32,1000,-17,-26,-11
1403,104,-29,1005,-14,-29,-15
1404,176,-24,1009,-13,-9,-11
1405,113,-12,1012,-13,16,-3
1406,-29,-19,1011,-16,31,2
1407,-166,-8,967,-18,23,4
1408,-177,-20,987,-19,-1,-4
1409,-77,-32,997,-17,-24,-10
1410,91,-25,1004,-15,-28,-12
1411,178,-22,1007,-15,-12,-11
1412,123,-16,1011,-13,15,-1
1413,-8,-13,1010,-15,30,1
1414,-160,-13,976,-18,25,3
1415,-181,-21,985,-17,1,-3
1416,-94,-33,992,-18,-22,-10
1417,77,-19,1010,-15,-30,-14
1418,174,-25,1005,-13,-15,-13
1419,137,-22,1004,-14,12,-4
1420,6,-11,1010,-16,28,1
1421,-146,-9,987,-19,27,3
1422,-186,-23,984,-18,5,-3
1423,-113,-34,985,-17,-20,-9
1424,62,-21,1012,-14,-30,-13
1425,166,-26,1012,-13,-17,-14
1426,148,-17,1000,-14,9,-4
1427,21,-11,1000,-16,29,0
1428,-134,-9,995,-16,28,3
1429,-187,-24,988,-18,6,-2
1430,-123,-29,978,-16,-18,-9
1431,46,-27,1008,-13,-29,-12
1432,155,-28,1014,-14,-19,-13
1433,162,-25,1008,-14,6,-6
1434,40,-10,995,-14,26,1
1435,-122,-9,994,-18,29,3
1436,-191,-22,989,-19,9,-1
1437,-137,-27,980,-18,-14,-8
1438,30,-27,1007,-14,-30,-13
1439,144,-32,1017,-13,-20,-13
1440,171,-22,1003,-11,2,-7
1441,59,-9,1001,-15,26,-1
1442,-106,-15,996,-17,31,3
1443,-188,-16,982,-18,14,-3
1444,-149,-20,986,-16,-11,-7
1445,13,-29,1011,-15,-30,-13
1446,131,-30,1011,-13,-24,-14
1447,177,-19,1002,-13,-1,-8
1448,73,-11,1007,-16,25,-1
1449,-89,-18,998,-17,31,2
1450,-191,-19,973,-17,15,0
1451,-153,-23,979,-16,-11,-7
1452,-14,-29,1017,-14,-30,-13
1453,122,-26,1008,-14,-25,-14
1454,178,-19,1008,-14,-1,-9
1455,86,-12,1006,-15,23,-1
1456,-68,-19,1000,-16,32,2
1457,-182,-17,969,-17,17,0
1458,-167,-20,984,-19,-8,-5
1459,-29,-36,1007,-15,-29,-11
1460,112,-28,1011,-14,-27,-13
1461,183,-16,1008,-12,-7,-11
1462,97,-12,1008,-13,18,-3
1463,-50,-17,1002,-17,31,1
1464,-176,-16,970,-20,23,0
1465,-172,-24,987,-18,-2,-4
1466,-50,-35,999,-14,-25,-12
1467,104,-26,1005,-14,-27,-13
1468,180,-16,1011,-12,-10,-10
1469,107,-14,1013,-14,18,-3
1470,-30,-14,1006,-17,30,2
1471,-169,-15,972,-16,23,1
1472,-178,-21,986,-17,-1,-3
1473,-72,-34,997,-18,-24,-10
1474,93,-25,1005,-14,-28,-13
1475,179,-24,1008,-14,-13,-11
1476,121,-14,1010,-12,14,-3
1477,-8,-11,1011,-16,29,2
1478,-156,-11,976,-20,25,3
1479,-180,-22,984,-17,1,-3
1480,-91,-38,990,-17,-21,-10
1481,81,-24,1013,-15,-30,-12
1482,173,-26,1001,-14,-15,-11
1483,136,-18,1004,-12,12,-5
1484,2,-9,1011,-15,28,1
1485,-147,-8,986,-19,27,3
1486,-182,-24,983,-18,5,-4
1487,-113,-35,987,-18,-19,-9
1488,67,-19,1013,-14,-31,-12
1489,164,-26,1010,-14,-18,-12
1490,149,-21,1002,-14,8,-4
1491,22,-12,1001,-15,28,2
1492,-135,-6,997,-16,27,2
1493,-186,-23,987,-18,6,-2
1494,-125,-27,980,-16,-18,-8
1495,51,-22,1010,-16,-30,-12
1496,152,-26,1015,-14,-19,-14
1497,160,-25,1003,-14,5,-6
1498,37,-11,998,-13,26,0
1499,-123,-10,990,-17,29,3
1500,-184,-22,992,-17,9,-2
1501,-137,-24,979,-17,-15,-7
1502,31,-26,1010,-14,-29,-12
1503,143,-31,1015,-13,-19,-13
1504,165,-19,1003,-15,2,-5
1505,59,-12,998,-15,25,-1
1506,-110,-13,996,-17,30,3
1507,-186,-19,982,-16,13,-1
1508,-146,-23,982,-15,-13,-7
1509,10,-28,1010,-16,-30,-13
1510,130,-29,1010,-12,-24,-15
1511,174,-16,1003,-12,0,-9
1512,71,-10,1003,-15,24,-1
1513,-90,-15,1004,-16,31,3
1514,-190,-21,971,-19,16,-1
1515,-150,-22,985,-16,-10,-7
1516,-10,-33,1010,-14,-29,-11
1517,120,-27,1009,-12,-25,-14
1518,180,-17,1008,-12,-4,-8
1519,84,-11,1005,-13,21,-1
1520,-70,-17,1003,-15,30,2
1521,-182,-22,969,-17,17,0
1522,-164,-21,983,-16,-8,-5
1523,-29,-35,1008,-13,-28,-12
1524,111,-22,1013,-13,-26,-14
1525,183,-17,1005,-14,-6,-9
1526,95,-9,1008,-13,20,-2
1527,-53,-19,1006,-16,31,2
1528,-176,-11,970,-17,21,2
1529,-167,-20,987,-20,-3,-5
1530,-52,-33,1002,-16,-26,-11
1531,105,-27,1003,-14,-28,-13
1532,176,-20,1008,-12,-9,-10
1533,106,-13,1015,-14,18,-2
1534,-32,-15,1005,-16,31,2
1535,-166,-14,973,-17,23,2
1536,-177,-17,987,-16,-2,-3
1537,-70,-34,1000,-17,-25,-11
1538,87,-24,1003,-14,-28,-12
1539,178,-25,1009,-13,-12,-12
1540,120,-18,1012,-13,16,-3
1541,-15,-13,1007,-15,29,1
1542,-156,-10,976,-17,23,2
1543,-183,-22,985,-17,1,-3
1544,-89,-33,991,-18,-23,-11
1545,81,-24,1014,-15,-30,-13
1546,173,-25,1004,-13,-14,-11
1547,133,-18,1003,-13,11,-4
1548,4,-10,1014,-15,29,-1
1549,-147,-9,986,-19,27,3
1550,-184,-23,982,-19,5,-3
1551,-110,-32,985,-16,-20,-9
1552,65,-26,1010,-14,-29,-13
1553,164,-25,1009,-13,-17,-13
1554,146,-23,1002,-11,8,-5
1555,22,-6,1003,-16,27,0
1556,-135,-12,993,-17,29,2
1557,-186,-18,990,-19,8,-3
1558,-123,-33,976,-17,-18,-9
1559,44,-25,1010,-12,-30,-12
1560,156,-31,1016,-13,-20,-13
1561,159,-24,1007,-13,7,-6
1562,41,-9,992,-13,27,1
1563,-122,-6,997,-16,29,3
1564,-192,-23,991,-18,10,-2
1565,-136,-28,978,-17,-15,-8
1566,33,-24,1010,-14,-31,-12
1567,141,-32,1016,-14,-20,-13
1568,170,-20,1005,-14,3,-6
1569,52,-9,996,-15,25,-1
1570,-107,-11,998,-15,30,3
1571,-188,-24,985,-17,13,-1
1572,-149,-19,980,-18,-12,-7
1573,14,-32,1014,-15,-31,-13
1574,132,-29,1011,-13,-23,-13
1575,176,-19,1001,-12,-2,-7
1576,72,-10,1005,-15,23,-2
1577,-91,-15,1001,-17,32,2
1578,-187,-16,970,-18,16,0
1579,-154,-22,987,-17,-10,-6
1580,-7,-31,1011,-15,-29,-12
1581,120,-28,1011,-14,-24,-14
1582,184,-20,1007,-14,-3,-10
1583,80,-11,1006,-14,23,-2
1584,-70,-14,998,-16,30,3
1585,-183,-16,976,-19,18,1
1586,-164,-17,979,-17,-7,-5
1587,-25,-36,1012,-16,-27,-12
1588,111,-30,1009,-14,-25,-13
1589,181,-18,1006,-12,-7,-10
1590,97,-11,1010,-14,19,-2
1591,-58,-15,1002,-17,31,2
1592,-168,-14,969,-16,19,0
1593,-174,-23,988,-17,-5,-4
1594,-47,-32,998,-15,-27,-11
1595,105,-29,1011,-15,-27,-14
1596,177,-18,1007,-12,-9,-11
1597,105,-13,1011,-14,18,-2
1598,-31,-16,1013,-17,30,0
1599,-169,-13,967,-17,23,2
1600,-174,-19,986,-15,-3,-5
1601,-71,-35,999,-16,-25,-10
1602,93,-27,1001,-14,-29,-14
1603,176,-26,1012,-11,-11,-13
1604,122,-13,1008,-14,15,-3
1605,-17,-9,1015,-14,30,2
1606,-159,-7,973,-17,24,0
1607,-181,-20,987,-17,0,-3
1608,-86,-37,993,-16,-23,-10
1609,75,-24,1007,-14,-28,-13
1610,175,-26,1006,-12,-13,-12
1611,130,-18,1005,-12,12,-3
1612,4,-6,1007,-15,28,0
1613,-149,-10,987,-19,26,3
1614,-182,-19,984,-18,4,-3
1615,-107,-37,986,-17,-20,-9
1616,65,-22,1013,-14,-30,-13
1617,165,-30,1006,-14,-17,-12
1618,146,-19,1004,-13,8,-4
1619,18,-9,1002,-14,28,0
1620,-132,-6,998,-17,29,2
1621,-186,-21,986,-18,7,-2
1622,-124,-29,980,-17,-18,-9
1623,50,-24,1012,-15,-31,-13
1624,154,-30,1014,-13,-18,-12
1625,159,-26,1006,-14,6,-6
1626,36,-11,997,-14,27,0
1627,-122,-8,992,-17,28,2
1628,-189,-18,992,-17,8,-2
1629,-138,-24,975,-16,-16,-6
1630,34,-24,1011,-15,-31,-13
1631,143,-35,1013,-15,-20,-13
1632,171,-22,1006,-12,3,-6
1633,52,-10,998,-14,25,1
1634,-110,-11,994,-15,30,4
1635,-186,-21,989,-17,12,-1
1636,-144,-22,979,-19,-12,-7
1637,16,-28,1008,-15,-31,-12
1638,126,-28,1016,-12,-24,-14
1639,178,-23,1000,-14,-2,-8
1640,73,-11,1003,-14,23,-1
1641,-92,-14,1002,-16,31,3
1642,-186,-17,973,-17,16,-1
1643,-156,-19,982,-15,-10,-6
1644,-5,-28,1012,-16,-29,-13
1645,122,-30,1013,-14,-24,-14
1646,179,-20,1003,-13,-4,-10
1647,84,-13,1008,-13,22,-2
1648,-72,-17,1002,-15,31,2
1649,-180,-12,966,-18,17,1
1650,-162,-18,986,-18,-8,-5
1651,-29,-33,1006,-16,-27,-12
1652,112,-28,1010,-16,-26,-13
1653,182,-19,1009,-13,-6,-8
1654,96,-12,1003,-15,20,-1
1655,-53,-19,1006,-15,31,3
1656,-173,-14,970,-17,19,1
1657,-171,-19,986,-19,-5,-4
1658,-46,-31,1001,-16,-26,-12
1659,103,-26,1006,-15,-26,-12
1660,178,-19,1009,-12,-8,-10
1661,105,-16,1007,-14,18,-3
1662,-37,-18,1009,-16,31,2
1663,-166,-14,969,-16,21,2
1664,-177,-21,988,-17,-3,-3
1665,-67,-35,999,-16,-25,-10
1666,91,-24,1004,-13,-28,-13
1667,179,-22,1010,-13,-12,-11
1668,117,-15,1012,-14,17,-1
1669,-19,-11,1009,-16,31,0
1670,-160,-15,978,-19,24,2
1671,-180,-25,980,-17,0,-4
1672,-89,-38,994,-16,-22,-10
1673,86,-22,1011,-12,-30,-13
1674,172,-27,1006,-13,-14,-12
1675,133,-18,1003,-11,11,-4
1676,-3,-12,1013,-15,29,1
1677,-148,-5,981,-19,26,3
1678,-184,-26,987,-18,4,-4
1679,-104,-33,985,-18,-19,-9
1680,68,-27,1010,-14,-29,-12
1681,166,-26,1006,-13,-16,-12
1682,144,-22,1005,-13,9,-4
1683,19,-5,1002,-14,29,1
1684,-140,-9,991,-19,28,4
1685,-186,-23,992,-19,6,-3
1686,-122,-35,975,-18,-18,-8
1687,52,-23,1008,-14,-31,-13
1688,158,-33,1018,-14,-18,-14
1689,155,-20,1002,-13,6,-7
1690,35,-9,996,-6,27,-1
1691,-126,-7,997,-5,30,2
1692,-192,-23,989,-19,9,-1
1693,-129,-29,976,-19,-17,-8
1694,32,-27,1012,-13,-31,-12
1695,144,-30,1013,-15,-19,-14
1696,165,-23,1009,-13,3,-7
1697,52,-6,992,-14,24,-1
1698,-111,-12,996,-19,31,2
1699,-190,-21,983,-18,13,-1
1700,-142,-24,985,-19,-12,-7
1701,14,-30,1009,-16,-31,-13
1702,130,-33,1012,-12,-24,-14
1703,176,-18,1005,-13,0,-8
1704,69,-9,1000,-14,24,-2
1705,-94,-15,1005,-18,31,3
1706,-187,-18,973,-18,15,0
1707,-150,-20,981,-15,-12,-7
1708,-5,-32,1016,-16,-29,-12
1709,122,-32,1009,-13,-24,-14
1710,181,-18,1002,-13,-4,-9
1711,83,-12,1010,-14,22,0
1712,-72,-15,1000,-15,31,2
1713,-183,-16,973,-18,18,0
1714,-160,-19,981,-17,-7,-5
1715,-28,-35,1012,-15,-27,-12
1716,111,-30,1009,-14,-26,-13
1717,182,-20,1008,-14,-7,-9
1718,98,-14,1007,-13,19,-3
1719,-53,-15,1003,-16,30,2
1720,-175,-13,971,-18,19,1
1721,-171,-23,987,-17,-3,-5
1722,-50,-33,1003,-16,-28,-10
1723,103,-27,1005,-14,-28,-13
1724,181,-24,1011,-13,-9,-11
1725,106,-14,1010,-14,19,-2
1726,-34,-17,1008,-16,30,1
1727,-165,-12,972,-18,23,1
1728,-178,-21,984,-18,-2,-4
1729,-69,-33,997,-15,-26,-11
1730,97,-28,1004,-14,-29,-14
1731,175,-22,1009,-13,-12,-12
1732,120,-17,1011,-14,15,-4
1733,-14,-15,1010,-15,30,0
1734,-158,-13,972,-17,24,2
1735,-181,-18,987,-17,0,-2
1736,-82,-34,993,-17,-24,-10
1737,77,-23,1010,-14,-29,-13
1738,172,-27,1000,-13,-15,-12
1739,128,-17,1011,-13,12,-4
1740,2,-13,1005,-15,28,0
1741,-151,-8,986,-17,27,2
1742,-178,-22,984,-19,4,-3
1743,-107,-31,987,-18,-20,-9
1744,71,-23,1012,-13,-31,-14
1745,163,-30,1008,-15,-17,-13
1746,143,-24,999,-12,9,-4
1747,20,-11,1004,-13,28,0
1748,-139,-8,996,-17,28,2
1749,-186,-22,984,-18,7,-2
1750,-122,-30,980,-16,-18,-8
1751,51,-23,1013,-15,-32,-11
1752,157,-30,1009,-14,-18,-13
1753,156,-24,1008,-15,7,-7
1754,37,-12,996,-15,26,0
1755,-127,-9,993,-15,29,2
1756,-185,-22,989,-19,8,-2
1757,-133,-27,980,-17,-16,-7
1758,36,-23,1009,-14,-31,-12
1759,148,-31,1012,-16,-20,-13
1760,165,-21,1007,-14,3,-7
1761,53,-9,994,-15,25,0
1762,-110,-11,997,-16,30,2
1763,-187,-21,983,-18,12,-2
1764,-144,-24,988,-19,-13,-7
1765,15,-31,1008,-15,-29,-13
1766,131,-31,1014,-13,-22,-13
1767,173,-16,1003,-14,0,-8
1768,69,-5,1003,-16,24,-1
1769,-96,-14,1001,-19,31,2
1770,-189,-18,976,-19,15,-1
1771,-148,-27,980,-18,-12,-7
1772,-3,-31,1013,-14,-30,-11
1773,127,-31,1010,-13,-25,-15
1774,176,-16,1008,-13,-2,-8
1775,82,-10,1000,-14,22,-1
1776,-75,-11,1011,-15,31,2
1777,-186,-17,965,-21,16,1
1778,-161,-19,985,-18,-9,-7
1779,-18,-40,1010,-16,-30,-13
1780,111,-30,1010,-12,-25,-14
1781,186,-20,1006,-13,-6,-10
1782,88,-11,1008,-12,21,-2
1783,-54,-14,1003,-14,29,3
1784,-181,-15,970,-18,19,2
1785,-169,-19,984,-18,-6,-5
1786,-43,-38,1004,-16,-27,-12
1787,107,-26,1008,-13,-27,-14
1788,181,-21,1009,-13,-9,-10
1789,106,-11,1010,-12,19,-2
1790,-41,-15,1006,-16,30,3
1791,-169,-10,972,-18,22,2
1792,-175,-22,988,-18,-3,-4
1793,-65,-36,996,-16,-26,-10
1794,96,-29,1006,-13,-29,-14
1795,178,-23,1007,-14,-12,-12
1796,117,-16,1015,-14,16,-3
1797,-22,-10,1008,-15,31,1
1798,-164,-11,975,-19,23,2
1799,-178,-18,982,-18,0,-4
1800,-85,-39,996,-16,-24,-11
1801,84,-23,1009,-13,-29,-14
1802,179,-30,1004,-13,-13,-12
1803,131,-18,1006,-13,14,-3
1804,-5,-10,1011,-15,29,2
1805,-151,-9,983,-17,25,3
1806,-187,-23,981,-18,3,-1
1807,-101,-31,991,-17,-21,-10
1808,71,-26,1013,-15,-29,-13
1809,165,-25,1003,-14,-16,-11
1810,139,-21,1004,-11,12,-4
1811,15,-9,1006,-14,29,0
1812,-140,-8,990,-19,28,3
1813,-182,-21,988,-18,7,-4
1814,-124,-32,980,-18,-18,-8
1815,57,-18,1008,-14,-31,-13
1816,157,-29,1016,-15,-18,-12
1817,153,-20,1005,-14,8,-4
1818,33,-11,994,-15,28,1
1819,-128,-7,995,-17,29,3
1820,-186,-22,987,-19,9,0
1821,-130,-24,979,-17,-15,-7
1822,38,-23,1009,-15,-30,-13
1823,145,-29,1016,-12,-18,-13
1824,162,-21,1004,-14,5,-6
1825,49,-6,997,-14,26,0
1826,-115,-9,993,-17,29,4
1827,-190,-24,986,-19,10,-2
1828,-139,-28,982,-18,-14,-7
1829,19,-28,1009,-13,-30,-12
1830,136,-29,1014,-13,-22,-13
1831,174,-18,1003,-12,1,-8
1832,64,-8,1002,-14,24,-2
1833,-100,-15,998,-16,31,3
1834,-188,-19,980,-17,14,-1
1835,-148,-24,979,-17,-12,-7
1836,4,-30,1016,-16,-30,-12
1837,128,-30,1006,-13,-25,-12
1838,179,-22,1006,-13,-2,-9
1839,80,-9,1005,-15,22,-1
1840,-81,-16,1005,-16,31,1
1841,-185,-14,969,-17,16,0
1842,-158,-19,982,-17,-8,-6
1843,-19,-31,1012,-16,-28,-12
1844,115,-30,1011,-14,-25,-13
1845,185,-22,1009,-13,-5,-9
1846,91,-15,1005,-15,21,-1
1847,-65,-14,1003,-15,30,3
1848,-175,-16,969,-18,19,2
1849,-171,-19,984,-18,-6,-3
1850,-40,-32,1005,-15,-28,-11
1851,107,-29,1008,-15,-25,-14
1852,180,-20,1009,-12,-7,-10
1853,100,-14,1008,-15,18,-2
1854,-42,-15,1008,-16,32,0
1855,-170,-15,968,-19,21,1
1856,-178,-18,990,-19,-4,-3
1857,-63,-35,994,-17,-26,-11
1858,97,-26,1010,-14,-27,-13
1859,180,-26,1006,-14,-11,-11
1860,114,-12,1013,-14,18,-2
1861,-22,-14,1011,-18,31,1
1862,-164,-12,974,-17,22,1
1863,-179,-22,983,-16,-1,-5
1864,-83,-35,997,-17,-24,-10
1865,87,-24,1009,-13,-29,-13
1866,175,-27,1004,-15,-13,-10
1867,131,-14,1010,-14,14,-4
1868,-6,-12,1010,-16,31,0
1869,-153,-10,983,-18,26,2
1870,-186,-24,980,-18,5,-3
1871,-100,-36,994,-17,-20,-9
1872,76,-25,1012,-14,-30,-13
1873,165,-26,1006,-12,-16,-12
1874,145,-16,1003,-13,10,-5
1875,8,-9,1006,-17,28,1
1876,-143,-6,989,-18,27,2
1877,-186,-28,987,-18,5,-2
1878,-115,-34,979,-15,-19,-9
1879,58,-26,1011,-14,-31,-12
1880,161,-27,1014,-14,-18,-13
1881,153,-21,1003,-12,8,-5
1882,28,-7,995,-17,29,0
1883,-132,-6,1000,-18,29,3
1884,-186,-22,987,-19,7,-2
1885,-129,-32,980,-18,-18,-7
1886,43,-24,1012,-13,-31,-12
1887,150,-31,1016,-15,-18,-12
1888,167,-22,1006,-13,5,-6
1889,47,-6,994,-14,26,-1
1890,-114,-6,995,-16,30,3
1891,-193,-20,985,-18,12,-1
1892,-141,-27,984,-20,-14,-8
1893,22,-30,1012,-15,-30,-13
1894,135,-35,1008,-13,-21,-14
1895,175,-24,1006,-12,2,-7
1896,64,-10,999,-14,25,0
1897,-101,-9,998,-16,31,3
1898,-186,-18,981,-18,13,-2
1899,-153,-16,981,-19,-11,-5
1900,1,-30,1010,-15,-30,-12
1901,128,-34,1011,-13,-24,-13
1902,178,-23,1003,-13,-3,-8
1903,81,-10,1002,-14,22,-1
1904,-83,-16,1007,-15,31,3
1905,-186,-14,968,-17,15,0
1906,-160,-20,981,-17,-9,-6
1907,-19,-29,1013,-13,-29,-12
1908,119,-33,1010,-13,-25,-14
1909,184,-19,1006,-14,-5,-10
1910,94,-15,1005,-13,21,-1
1911,-62,-18,1004,-15,30,2
1912,-179,-15,968,-19,19,0
1913,-170,-18,987,-17,-7,-6
1914,-40,-33,1001,-15,-27,-10
1915,109,-24,1011,-14,-27,-15
1916,180,-22,1006,-13,-8,-10
1917,102,-8,1013,-13,18,-3
1918,-43,-19,1006,-15,30,2
1919,-172,-10,969,-17,22,2
1920,-175,-23,988,-19,-4,-4
1921,-64,-32,997,-17,-26,-11
1922,102,-30,1007,-13,-29,-13
1923,175,-23,1005,-11,-11,-11
1924,116,-16,1012,-13,16,-2
1925,-21,-15,1010,-16,30,0
1926,-166,-10,970,-18,23,4
1927,-180,-19,987,-18,-1,-2
1928,-83,-36,996,-18,-23,-10
1929,83,-23,1003,-14,-29,-14
1930,178,-27,1011,-13,-14,-13
1931,127,-16,1006,-13,14,-4
1932,-3,-10,1011,-15,30,1
1933,-155,-9,981,-18,24,1
1934,-183,-21,983,-18,2,-3
1935,-102,-36,992,-15,-21,-10
1936,73,-22,1014,-14,-30,-13
1937,171,-28,1007,-14,-15,-13
1938,142,-21,999,-11,10,-4
1939,13,-8,1008,-17,30,1
1940,-141,-8,995,-17,28,4
1941,-184,-26,978,-19,5,-3
1942,-121,-32,985,-17,-19,-9
1943,58,-23,1009,-14,-32,-13
1944,161,-30,1011,-13,-18,-12
1945,155,-22,1003,-12,7,-5
1946,30,-10,1001,-15,28,1
1947,-130,-10,995,-17,29,3
1948,-189,-21,991,-18,9,-1
1949,-132,-29,976,-19,-15,-8
1950,42,-26,1009,-13,-31,-13
1951,150,-28,1016,-14,-21,-13
1952,167,-23,1005,-14,4,-7
1953,46,-8,995,-13,25,-1
1954,-115,-9,994,-17,30,2
1955,-191,-24,992,-18,10,-3
1956,-144,-26,981,-16,-13,-7
1957,23,-26,1009,-14,-30,-12
1958,135,-29,1014,-14,-22,-14
1959,178,-15,1002,-14,0,-7
1960,64,-11,1002,-16,27,0
1961,-102,-15,999,-17,32,2
1962,-187,-19,977,-20,14,0
1963,-151,-24,983,-19,-12,-7
1964,3,-30,1011,-15,-32,-12
1965,126,-31,1013,-12,-23,-12
1966,177,-19,1004,-13,-1,-8
1967,76,-10,1007,-15,24,0
1968,-79,-14,1003,-16,32,3
1969,-186,-16,969,-18,17,0
1970,-157,-19,982,-19,-8,-7
1971,-20,-34,1012,-16,-29,-12
1972,118,-26,1007,-13,-25,-13
1973,182,-22,1010,-14,-6,-9
1974,88,-12,1002,-14,20,-2
1975,-60,-16,1004,-16,31,2
1976,-181,-13,970,-18,18,1
1977,-169,-18,986,-19,-6,-5
1978,-40,-34,1003,-16,-27,-12
1979,104,-30,1008,-15,-27,-13
1980,182,-23,1008,-13,-9,-11
1981,101,-15,1010,-11,18,-1
1982,-39,-16,1004,-16,31,1
1983,-169,-12,974,-19,22,1
1984,-172,-18,984,-17,-4,-5
1985,-65,-31,999,-16,-26,-11
1986,98,-27,1005,-12,-29,-14
1987,179,-23,1007,-13,-12,-11
1988,117,-14,1013,-15,17,-3
1989,-23,-17,1011,-16,31,0
1990,-162,-11,971,-17,23,1
1991,-180,-21,985,-17,-1,-3
1992,-84,-27,997,-16,-25,-10
1993,84,-27,1006,-15,-30,-13
1994,173,-24,1007,-13,-13,-12
1995,127,-19,1005,-14,14,-3
1996,0,-13,1012,-14,28,0
1997,-153,-10,981,-18,25,3
1998,-181,-20,983,-17,3,-4
1999,-103,-35,995,-16,-20,-10
2000,70,-23,1007,-14,-29,-13
2001,170,-28,1010,-14,-17,-13
2002,141,-18,1006,-12,10,-4
2003,16,-11,1003,-15,28,1
2004,-141,-9,992,-19,28,3
2005,-182,-22,991,-18,5,-2
2006,-122,-30,974,-17,-19,-8
2007,55,-22,1013,-14,-30,-12
2008,157,-29,1014,-13,-18,-13
2009,155,-20,1004,-13,7,-6
2010,34,-8,994,-16,26,0
2011,-130,-9,996,-17,28,3
2012,-187,-21,984,-18,7,-2
2013,-132,-31,982,-18,-17,-8
2014,39,-22,1006,-13,-30,-12
2015,142,-31,1017,-13,-20,-14
2016,165,-20,1007,-15,3,-7
2017,50,-10,994,-15,26,-1
2018,-111,-11,995,-16,29,2
2019,-188,-18,984,-18,11,-1
2020,-141,-23,985,-17,-12,-6
2021,18,-29,1009,-14,-30,-11
2022,133,-33,1013,-13,-22,-12
2023,174,-20,1002,-13,0,-6
2024,67,-9,1003,-14,25,0
2025,-94,-15,1005,-16,31,3
2026,-188,-19,970,-18,14,0
2027,-150,-17,986,-18,-11,-6
2028,-3,-36,1012,-15,-31,-13
2029,121,-29,1009,-14,-23,-13
2030,178,-20,1007,-12,-3,-8
2031,80,-9,1005,-17,19,-1
2032,-72,-18,1005,-19,27,2
2033,-179,-16,971,-18,17,-1
2034,-160,-20,982,-17,-7,-5
2035,-23,-34,1011,-16,-27,-12
2036,112,-28,1010,-14,-24,-13
2037,182,-20,1009,-12,-6,-9
2038,90,-14,1007,-13,20,-2
2039,-53,-16,1006,-16,30,2
2040,-171,-16,970,-19,21,1
2041,-172,-19,986,-17,-4,-5
2042,-46,-36,1003,-15,-28,-11
2043,100,-27,1003,-13,-28,-14
2044,177,-20,1010,-13,-9,-11
2045,108,-13,1015,-15,18,-2
2046,-34,-15,1005,-16,30,2
2047,-166,-13,970,-16,22,3
2048,-175,-21,991,-17,-2,-3
2049,-72,-34,990,-15,-24,-10
2050,93,-28,1010,-12,-29,-14
2051,173,-26,1009,-12,-12,-10
2052,117,-15,1008,-14,15,-2
2053,-12,-9,1011,-17,30,0
2054,-164,-9,976,-18,24,3
2055,-175,-22,980,-18,0,-6
2056,-89,-37,999,-18,-22,-11
2057,79,-22,1006,-15,-28,-13
2058,172,-28,1007,-14,-13,-12
2059,131,-18,1003,-13,13,-3
2060,2,-10,1009,-15,29,1
2061,-143,-7,988,-17,27,3
2062,-181,-21,987,-17,3,-3
2063,-107,-34,985,-16,-20,-10
2064,63,-23,1010,-13,-32,-13
2065,159,-28,1010,-14,-17,-11
2066,144,-21,1002,-12,10,-4
2067,24,-8,998,-15,29,1
2068,-134,-7,995,-17,29,2
2069,-180,-25,988,-19,7,-4
2070,-123,-30,978,-18,-18,-9
2071,45,-20,1009,-13,-32,-14
2072,148,-31,1017,-13,-18,-14
2073,160,-22,1006,-14,7,-6
2074,39,-8,992,-15,27,0
2075,-114,-8,998,-18,27,1
2076,-187,-25,986,-19,9,-2
2077,-135,-25,983,-18,-15,-8
2078,28,-27,1011,-17,-30,-13
2079,134,-29,1011,-13,-19,-14
2080,173,-25,1002,-14,2,-7
2081,56,-7,1001,-12,24,0
2082,-99,-13,996,-17,30,4
2083,-186,-19,982,-18,15,-2
2084,-150,-22,978,-16,-11,-5
2085,5,-28,1013,-15,-29,-12
2086,128,-31,1011,-13,-23,-13
2087,176,-20,1000,-13,-1,-7
2088,77,-11,1007,-15,24,-2
2089,-84,-18,1001,-17,31,3
2090,-183,-13,970,-17,14,0
2091,-153,-17,980,-17,-10,-5
2092,-19,-29,1010,-15,-28,-12
2093,119,-30,1009,-15,-24,-13
2094,176,-20,1007,-14,-5,-8
2095,87,-13,1006,-15,20,0
2096,-62,-17,1003,-15,31,2
2097,-176,-11,969,-17,17,1
2098,-166,-17,989,-17,-6,-5
2099,-37,-33,1004,-15,-26,-10
2100,108,-25,1005,-15,-26,-13
2101,177,-20,1011,-13,-8,-11
2102,98,-17,1009,-14,19,-2
2103,-40,-18,1005,-15,31,0
2104,-174,-15,969,-16,22,0
2105,-168,-16,989,-16,-3,-5
2106,-59,-34,1000,-16,-25,-10
2107,95,-23,1002,-12,-27,-12
2108,179,-25,1011,-13,-11,-12
2109,111,-19,1011,-15,17,-2
2110,-22,-16,1006,-15,30,1
2111,-162,-9,977,-16,23,3
2112,-175,-20,984,-16,-1,-4
2113,-81,-33,996,-17,-22,-9
2114,84,-25,1008,-15,-28,-12
2115,169,-25,1005,-14,-12,-12
2116,128,-18,1003,-13,13,-3
2117,-6,-12,1011,-15,29,1
2118,-146,-8,982,-18,25,2
2119,-182,-23,985,-17,4,-3
2120,-100,-32,988,-17,-20,-9
2121,66,-25,1011,-14,-30,-12
2122,165,-25,1008,-13,-17,-13
2123,137,-23,1005,-13,9,-4
2124,16,-8,1000,-15,28,0
2125,-142,-10,993,-18,28,3
2126,-180,-25,992,-21,6,-3
2127,-120,-32,975,-17,-18,-9
2128,53,-21,1011,-13,-30,-12
2129,153,-30,1019,-15,-17,-12
2130,154,-22,1005,-16,6,-5
2131,31,-11,995,-15,25,0
2132,-126,-10,996,-17,28,3
2133,-180,-23,989,-18,8,-2
2134,-132,-27,981,-17,-15,-7
2135,34,-25,1011,-14,-30,-13
2136,138,-32,1015,-13,-20,-13
2137,165,-16,1002,-13,4,-6
2138,53,-9,1000,-15,25,-1
2139,-108,-10,997,-17,29,2
2140,-186,-20,979,-18,11,-1
2141,-140,-24,988,-18,-13,-6
2142,14,-34,1005,-15,-31,-12
2143,125,-29,1011,-12,-23,-14
2144,176,-18,1004,-13,-1,-9
2145,67,-9,1004,-14,25,0
2146,-85,-15,1005,-17,31,3
2147,-184,-18,970,-18,14,0
2148,-156,-17,981,-18,-10,-5
2149,-6,-36,1013,-16,-30,-12
2150,117,-31,1012,-14,-23,-14
2151,176,-22,1003,-13,-3,-10
2152,88,-12,1007,-12,21,-2
2153,-69,-16,1001,-15,29,3
2154,-177,-11,970,-17,17,-1
2155,-162,-19,987,-18,-7,-6
2156,-36,-33,1005,-15,-27,-12
2157,112,-30,1008,-14,-25,-14
2158,178,-23,1010,-13,-7,-9
2159,95,-12,1004,-13,19,-2
2160,-44,-18,1011,-16,29,1
2161,-172,-12,967,-17,21,1
2162,-165,-18,989,-17,-5,-4
2163,-55,-35,1003,-17,-25,-11
2164,97,-26,1002,-13,-26,-13
2165,177,-27,1010,-11,-9,-11
2166,110,-16,1012,-14,17,-3
2167,-26,-12,1005,-15,30,1
2168,-161,-11,974,-18,22,1
2169,-176,-20,986,-18,-1,-3
2170,-78,-33,994,-15,-24,-9
2171,86,-27,1009,-14,-28,-12
2172,172,-26,1005,-13,-12,-12
2173,127,-20,1005,-12,13,-3
2174,-7,-11,1009,-15,28,1
2175,-149,-9,980,-18,24,3
2176,-181,-19,987,-17,4,-3
2177,-100,-32,988,-16,-20,-9
2178,70,-22,1014,-14,-30,-12
2179,167,-32,1003,-13,-16,-12
2180,137,-23,1001,-11,11,-5
2181,17,-12,1006,-15,28,-1
2182,-139,-8,993,-18,29,3
2183,-179,-20,987,-17,6,-2
2184,-117,-32,984,-17,-18,-8
2185,53,-22,1006,-13,-31,-12
2186,158,-32,1016,-15,-18,-13
2187,153,-22,1005,-13,7,-5
2188,36,-9,993,-15,27,0
2189,-125,-7,999,-16,29,3
2190,-186,-22,985,-19,8,-2
2191,-130,-28,985,-18,-16,-8
2192,36,-27,1009,-12,-31,-12
2193,140,-32,1015,-14,-20,-13
2194,167,-18,1010,-13,2,-6
2195,52,-9,996,-15,25,0
2196,-110,-6,998,-17,29,3
2197,-184,-24,983,-19,13,0
2198,-142,-21,983,-17,-13,-7
2199,13,-34,1010,-15,-30,-11
2200,126,-31,1013,-12,-23,-13
2201,172,-20,1003,-12,0,-7
2202,69,-9,1001,-15,24,-1
2203,-90,-16,1005,-17,31,3
2204,-184,-16,967,-19,14,-1
2205,-149,-22,983,-17,-10,-7
2206,-11,-31,1010,-14,-29,-10
2207,115,-31,1009,-13,-24,-13
2208,181,-21,1005,-12,-4,-10
2209,83,-10,1007,-12,20,-2
2210,-65,-14,1000,-17,29,1
2211,-176,-17,969,-19,16,-1
2212,-164,-17,990,-17,-6,-6
2213,-29,-36,1005,-16,-27,-11
2214,108,-28,1010,-14,-26,-12
2215,180,-20,1005,-13,-8,-10
2216,94,-10,1012,-14,18,-2
2217,-49,-17,1006,-15,29,2
2218,-171,-15,968,-18,21,1
2219,-167,-19,994,-17,-3,-5
2220,-54,-36,1000,-15,-26,-11
2221,105,-26,1005,-14,-27,-15
2222,172,-24,1011,-13,-10,-11
2223,109,-13,1010,-14,17,-2
2224,-25,-14,1012,-18,31,0
2225,-162,-9,969,-17,23,2
2226,-173,-24,983,-18,-2,-4
2227,-77,-33,1000,-16,-24,-11
2228,85,-25,1006,-16,-28,-12
2229,173,-24,1003,-15,-13,-12
2230,123,-20,1006,-13,13,-3
2231,-3,-10,1006,-15,29,0
2232,-146,-8,983,-18,25,2
2233,-182,-19,987,-18,3,-1
2234,-96,-33,985,-16,-21,-9
2235,69,-23,1014,-15,-28,-12
2236,165,-28,1004,-14,-16,-12
2237,140,-23,1006,-14,9,-5
2238,13,-7,1002,-15,28,-1
2239,-136,-4,993,-17,29,2
2240,-185,-20,989,-17,6,-3
2241,-115,-34,977,-18,-17,-8
2242,53,-26,1012,-13,-30,-12
2243,154,-32,1017,-14,-18,-12
2244,154,-24,1006,-13,6,-6
2245,34,-11,994,-13,26,-1
2246,-122,-6,998,-16,27,3
2247,-186,-19,991,-17,9,-2
2248,-124,-27,982,-17,-16,-7
2249,32,-29,1013,-14,-30,-12
2250,138,-31,1011,-14,-20,-12
2251,167,-27,1008,-13,3,-8
2252,52,-11,995,-13,25,0
2253,-105,-10,998,-16,29,3
2254,-184,-18,983,-16,11,-2
2255,-143,-19,981,-18,-11,-6
2256,13,-29,1011,-15,-30,-12
2257,126,-34,1011,-13,-23,-13
2258,177,-19,1000,-12,-1,-8
2259,70,-11,1003,-15,24,-1
2260,-88,-15,1004,-15,30,2
2261,-185,-14,971,-18,14,0
2262,-155,-19,979,-17,-10,-6
2263,-11,-31,1015,-16,-29,-12
2264,117,-34,1007,-13,-24,-13
2265,177,-18,1006,-14,-4,-9
2266,84,-13,1007,-13,20,-2
2267,-66,-15,1002,-15,28,2
2268,-178,-16,968,-18,16,2
2269,-164,-15,989,-16,-6,-4
2270,-33,-35,1007,-16,-27,-11
2271,109,-27,1008,-13,-27,-13
2272,178,-22,1007,-14,-9,-10
2273,98,-12,1013,-15,18,-2
2274,-41,-17,1006,-16,30,3
2275,-170,-15,971,-18,21,2
2276,-171,-21,989,-16,-3,-3
2277,-58,-32,1001,-17,-25,-10
2278,101,-25,1007,-15,-29,-13
2279,175,-21,1004,-15,-10,-9
2280,113,-14,1015,-16,16,-2
2281,-22,-14,1007,-15,30,2
2282,-161,-11,973,-17,23,3
2283,-176,-23,985,-17,-2,-5
2284,-84,-33,995,-17,-24,-9
2285,89,-23,1008,-15,-28,-13
2286,166,-27,1004,-14,-13,-11
2287,129,-18,1000,-12,12,-3
2288,-5,-8,1011,-15,28,1
2289,-151,-7,983,-19,25,2
2290,-176,-26,989,-18,3,-4
2291,-104,-34,984,-16,-20,-8
2292,72,-26,1011,-15,-30,-13
2293,162,-29,1013,-12,-16,-13
2294,141,-21,996,-12,9,-4
2295,17,-6,1003,-14,28,0
2296,-135,-5,994,-16,28,3
2297,-185,-19,992,-18,5,-3
2298,-116,-31,981,-17,-18,-9
2299,49,-24,1009,-15,-30,-13
2300,152,-32,1017,-14,-17,-13
2301,157,-25,1005,-14,7,-6
2302,36,-7,998,-14,26,0
2303,-115,-7,995,-16,28,3
2304,-189,-15,988,-17,10,-2
2305,-130,-21,986,-17,-14,-8
2306,27,-29,1010,-17,-29,-12
2307,138,-34,1012,-15,-20,-13
2308,170,-19,1006,-12,1,-7
2309,59,-14,999,-12,24,-1
2310,-103,-14,997,-16,31,3
2311,-185,-14,977,-17,13,-1
2312,-148,-18,984,-18,-12,-7
2313,6,-31,1009,-15,-30,-12
2314,124,-31,1009,-12,-23,-12
2315,177,-20,1003,-13,0,-8
2316,73,-13,1005,-16,24,0
2317,-78,-14,1001,-17,30,2
2318,-187,-16,971,-18,16,0
2319,-153,-18,983,-18,-9,-6
2320,-20,-31,1014,-14,-28,-10
2321,116,-26,1004,-13,-25,-13
2322,179,-19,1009,-14,-5,-9
2323,88,-14,1006,-15,20,-2
2324,-59,-19,1001,-15,31,2
2325,-174,-13,968,-17,20,-1
2326,-166,-20,993,-18,-5,-5
2327,-42,-31,1000,-16,-26,-12
2328,106,-30,1009,-14,-26,-12
2329,174,-21,1006,-12,-7,-10
2330,103,-14,1012,-14,18,-2
2331,-37,-16,1005,-16,30,2
2332,-166,-12,972,-16,22,1
2333,-171,-19,985,-17,-2,-5
2334,-74,-33,997,-16,-25,-10
2335,96,-25,1006,-13,-28,-13
2336,171,-28,1007,-14,-11,-12
2337,121,-15,1003,-14,14,-4
2338,-15,-14,1011,-15,29,0
2339,-157,-7,976,-17,24,3
2340,-180,-22,984,-18,1,-3
2341,-92,-32,997,-16,-22,-9
2342,77,-23,1010,-14,-29,-13
2343,166,-26,1005,-14,-13,-12
2344,134,-25,1003,-12,12,-4
2345,3,-7,1003,-15,29,0
2346,-140,-9,993,-19,26,2
2347,-184,-24,989,-17,4,-1
2348,-110,-29,975,-16,-20,-9
2349,58,-22,1013,-14,-29,-12
2350,157,-33,1017,-14,-16,-12
2351,153,-22,1002,-15,8,-5
2352,22,-10,997,-14,28,1
2353,-127,-4,995,-17,28,3
2354,-182,-23,990,-17,8,-2
2355,-129,-24,976,-17,-16,-9
2356,44,-26,1014,-14,-30,-13
2357,143,-31,1013,-14,-18,-13
2358,161,-19,1005,-14,4,-6
2359,44,-8,998,-15,25,-1
2360,-111,-11,994,-17,29,2
2361,-184,-19,985,-18,11,-2
2362,-137,-18,983,-18,-12,-8
2363,22,-30,1012,-15,-29,-12
2364,126,-31,1009,-13,-21,-12
2365,170,-16,1004,-12,-1,-7
2366,64,-13,1005,-20,20,-2
2367,-95,-13,999,-19,29,3
2368,-179,-15,970,-19,13,0
2369,-146,-19,988,-17,-10,-6
2370,-8,-30,1008,-15,-28,-12
2371,118,-31,1013,-16,-23,-13
2372,174,-19,1005,-12,-2,-9
2373,78,-13,1003,-14,21,-2
2374,-67,-17,1005,-15,29,2
2375,-179,-15,968,-17,17,1
2376,-154,-18,990,-16,-7,-6
2377,-30,-34,1005,-15,-26,-10
2378,109,-26,1005,-15,-26,-13
2379,176,-23,1008,-14,-7,-11
2380,89,-11,1012,-14,19,-1
2381,-44,-18,1004,-16,29,2
2382,-169,-12,972,-16,20,1
2383,-166,-19,987,-18,-4,-4
2384,-57,-32,1001,-17,-26,-11
2385,101,-27,1000,-14,-27,-13
2386,173,-22,1008,-13,-11,-10
2387,112,-14,1012,-16,17,-2
2388,-28,-14,1011,-16,31,1
2389,-159,-12,969,-18,23,2
2390,-174,-22,990,-16,-1,-3
2391,-79,-34,994,-16,-24,-9
2392,84,-21,1012,-13,-28,-12
2393,170,-26,1003,-14,-13,-13
2394,121,-15,1005,-13,14,-3
2395,-5,-12,1010,-14,28,-1
2396,-148,-8,986,-17,26,2
2397,-176,-25,986,-17,2,-4
2398,-100,-33,987,-17,-20,-9
2399,69,-22,1010,-14,-30,-12
2400,163,-29,1009,-14,-15,-12
2401,135,-21,1002,-13,10,-4
2402,15,-7,999,-15,28,-1
2403,-136,-11,994,-17,27,1
2404,-182,-23,987,-19,5,-3
2405,-116,-34,977,-17,-18,-10
2406,52,-23,1009,-15,-30,-12
2407,149,-29,1018,-14,-17,-12
2408,156,-19,1005,-12,8,-6
2409,32,-10,994,-13,27,-1
2410,-118,-8,992,-15,28,1
2411,-186,-22,990,-18,9,-1
2412,-131,-25,982,-18,-15,-7
2413,31,-30,1012,-16,-29,-12
2414,135,-33,1008,-15,-20,-13
2415,166,-20,1004,-13,1,-7
2416,57,-8,999,-14,24,-1
2417,-103,-13,1002,-17,29,3
2418,-181,-17,974,-19,13,-1
2419,-147,-19,986,-19,-11,-6
2420,7,-31,1013,-16,-30,-12
2421,124,-32,1013,-13,-21,-12
2422,177,-22,1004,-14,-1,-8
2423,73,-14,1006,-14,23,-1
2424,-81,-17,1002,-16,30,3
2425,-183,-13,972,-18,15,-1
2426,-149,-17,985,-18,-8,-6
2427,-21,-33,1013,-17,-27,-11
2428,116,-28,1007,-13,-24,-13
2429,178,-20,1009,-15,-5,-9
2430,85,-14,1007,-15,20,-1
2431,-57,-16,1008,-16,30,2
2432,-171,-14,964,-18,18,1
2433,-168,-15,993,-16,-5,-5
2434,-43,-34,1004,-17,-25,-11
2435,103,-28,1002,-15,-26,-12
2436,174,-21,1008,-11,-7,-10
2437,103,-16,1012,-15,19,-3
2438,-37,-15,1005,-16,31,2
2439,-163,-10,970,-17,21,2
2440,-172,-20,987,-18,-4,-4
2441,-66,-33,995,-16,-25,-10
2442,89,-24,1009,-13,-28,-13
2443,176,-27,1004,-15,-11,-11
2444,117,-18,1010,-13,15,-2
2445,-12,-12,1007,-15,29,0
2446,-153,-7,980,-19,24,2
2447,-176,-21,983,-17,1,-4
2448,-93,-31,994,-16,-20,-9
2449,81,-24,1009,-14,-29,-13
2450,164,-29,1010,-13,-15,-13
2451,132,-23,1000,-14,10,-4
2452,7,-12,1006,-14,29,-1
2453,-140,-9,990,-18,27,3
2454,-181,-19,990,-18,4,-2
2455,-110,-29,980,-17,-19,-9
2456,57,-20,1011,-13,-30,-12
2457,156,-30,1017,-12,-17,-13
2458,150,-27,1003,-15,8,-4
2459,29,-10,996,-14,27,-1
2460,-126,-11,993,-16,27,3
2461,-186,-18,990,-17,7,-2
2462,-125,-21,980,-17,-15,-7
2463,39,-26,1012,-15,-28,-12
2464,137,-32,1012,-15,-18,-13
2465,161,-21,1004,-13,4,-6
2466,50,-16,997,-14,24,-1
2467,-112,-10,997,-16,29,4
2468,-183,-15,982,-17,12,-2
2469,-137,-19,986,-18,-11,-7
2470,14,-26,1008,-16,-29,-11
2471,126,-32,1012,-12,-22,-13
2472,169,-16,1000,-13,0,-7
2473,66,-15,1007,-14,24,-1
2474,-87,-17,998,-17,30,3
2475,-185,-15,974,-18,14,-1
2476,-143,-17,983,-17,-11,-6
2477,-13,-34,1015,-15,-27,-12
2478,120,-28,1007,-13,-22,-13
2479,172,-21,1010,-15,-3,-9
2480,84,-11,1004,-14,21,-2
2481,-68,-17,1005,-16,29,2
2482,-175,-13,969,-19,17,0
2483,-162,-22,989,-17,-7,-5
2484,-34,-32,1005,-16,-25,-12
2485,103,-30,1004,-15,-25,-12
2486,174,-16,1008,-13,-8,-10
2487,95,-16,1011,-15,19,-3
2488,-41,-15,1006,-14,31,0
2489,-168,-15,969,-18,22,2
2490,-166,-21,989,-17,-2,-5
2491,-62,-35,997,-17,-25,-10
2492,96,-28,1006,-14,-27,-12
2493,172,-23,1004,-13,-9,-11
2494,107,-14,1012,-14,17,-3
2495,-21,-13,1007,-16,29,2
2496,-157,-12,977,-18,22,3
2497,-174,-18,982,-19,1,-3
2498,-86,-36,997,-17,-22,-9
2499,83,-21,1013,-14,-30,-13
2500,166,-29,1004,-14,-13,-11
2501,127,-18,1003,-13,12,-4
2502,0,-10,1007,-16,28,0
2503,-145,-9,988,-19,25,1
2504,-178,-22,987,-16,5,-3
2505,-105,-29,982,-18,-20,-9
2506,67,-23,1009,-14,-29,-13
2507,154,-28,1014,-12,-15,-12
2508,145,-24,1003,-15,9,-5
2509,19,-14,998,-14,28,0
2510,-131,-5,992,-15,28,2
2511,-179,-21,993,-18,6,-2
2512,-123,-27,980,-17,-17,-7
2513,45,-25,1009,-14,-30,-12
2514,148,-32,1017,-15,-17,-14
2515,154,-23,1003,-14,7,-4
2516,45,-7,996,-14,27,-1
2517,-116,-12,995,-17,28,3
2518,-184,-13,983,-19,10,-1
2519,-136,-26,989,-19,-12,-7
2520,23,-29,1007,-14,-29,-13
2521,130,-33,1010,-14,-21,-13
2522,170,-17,1004,-12,1,-7
2523,63,-12,1002,-15,24,-1
2524,-99,-12,999,-15,31,2
2525,-183,-16,976,-19,14,-1
2526,-145,-23,980,-18,-12,-6
2527,-3,-31,1014,-15,-30,-11
2528,123,-34,1010,-14,-22,-13
2529,175,-20,1007,-13,-3,-9
2530,78,-9,1001,-14,23,-1
2531,-76,-13,1006,-15,30,1
2532,-180,-15,967,-19,15,1
2533,-161,-18,985,-18,-8,-5
2534,-25,-39,1008,-16,-29,-11
2535,113,-27,1008,-14,-26,-12
2536,179,-24,1002,-11,-7,-10
2537,90,-11,1014,-12,20,-3
2538,-51,-15,1004,-18,30,2
2539,-172,-11,969,-17,20,1
2540,-165,-19,993,-19,-4,-4
2541,-53,-31,997,-18,-26,-11
2542,103,-31,1004,-14,-27,-13
2543,171,-26,1006,-11,-10,-9
2544,109,-14,1013,-13,18,-3
2545,-26,-13,1009,-15,30,0
2546,-163,-8,973,-18,21,1
2547,-174,-21,990,-17,-1,-5
2548,-78,-35,990,-17,-24,-10
2549,91,-25,1012,-14,-28,-13
2550,170,-31,1003,-14,-13,-12
2551,126,-19,1004,-12,14,-3
2552,-6,-11,1006,-15,29,1
2553,-151,-4,986,-18,26,3
2554,-176,-24,984,-19,2,-4
2555,-104,-29,989,-16,-20,-10
2556,73,-23,1011,-15,-31,-13
2557,161,-32,1009,-14,-15,-12
2558,138,-23,1002,-13,10,-5
2559,16,-11,999,-14,27,-2
2560,-137,-7,998,-17,27,2
2561,-183,-21,986,-18,5,-2
2562,-119,-25,979,-17,-19,-9
2563,52,-24,1010,-13,-30,-12
2564,148,-30,1013,-14,-17,-13
2565,158,-26,1006,-14,6,-6
2566,35,-11,995,-15,27,1
2567,-122,-10,993,-17,27,3
2568,-186,-23,991,-17,9,-2
2569,-128,-23,983,-16,-15,-7
2570,32,-26,1010,-15,-29,-12
2571,138,-30,1015,-14,-20,-14
2572,167,-22,1000,-14,2,-6
2573,57,-11,999,-16,24,0
2574,-105,-18,999,-17,29,2
2575,-182,-19,975,-17,12,-3
2576,-140,-19,986,-15,-12,-7
2577,10,-28,1014,-15,-30,-12
2578,121,-31,1011,-14,-23,-12
2579,173,-19,1004,-14,-1,-8
2580,72,-15,1005,-15,22,-1
2581,-80,-16,1002,-16,29,3
2582,-181,-19,970,-17,16,-1
2583,-154,-17,984,-17,-8,-6
2584,-18,-33,1012,-13,-28,-12
2585,116,-29,1008,-14,-24,-14
2586,178,-19,1006,-15,-5,-9
2587,86,-9,1006,-17,20,-2
2588,-59,-23,1004,-17,30,0
2589,-171,-17,970,-18,18,1
2590,-166,-24,989,-17,-6,-5
2591,-41,-34,1000,-17,-26,-12
2592,103,-29,1005,-14,-25,-12
2593,175,-18,1007,-14,-9,-9
2594,100,-13,1013,-14,18,-2
2595,-39,-11,1007,-16,31,2
2596,-162,-13,967,-16,21,1
2597,-172,-23,993,-17,-2,-4
2598,-66,-36,989,-17,-25,-11
2599,91,-24,1015,-13,-29,-12
2600,175,-28,1001,-14,-11,-11
2601,112,-14,1008,-13,16,-3
2602,-12,-11,1010,-15,29,1
2603,-155,-9,981,-18,24,2
2604,-174,-24,983,-17,1,-2
2605,-92,-35,993,-16,-21,-9
2606,82,-22,1013,-14,-29,-13
2607,160,-28,1007,-13,-12,-11
2608,135,-18,1001,-11,10,-5
2609,5,-12,1005,-14,28,-1
2610,-142,-5,987,-19,27,2
2611,-176,-26,990,-20,5,-4
2612,-112,-31,979,-16,-19,-9
2613,57,-24,1010,-14,-29,-12
2614,158,-32,1014,-14,-17,-13
2615,148,-21,1005,-13,8,-5
2616,26,-5,993,-16,26,0
2617,-129,-7,994,-17,27,2
2618,-181,-23,989,-20,5,-3
2619,-125,-25,979,-16,-17,-8
2620,41,-27,1012,-13,-29,-13
2621,137,-33,1014,-14,-18,-12
2622,162,-20,1002,-12,2,-7
2623,51,-9,999,-15,25,0
2624,-111,-9,995,-15,29,4
2625,-182,-19,980,-17,11,-2
2626,-141,-22,986,-17,-13,-6
2627,15,-28,1011,-15,-30,-11
2628,128,-34,1011,-12,-22,-13
2629,173,-19,1005,-12,2,-7
2630,66,-10,1000,-15,24,-1
2631,-89,-19,1001,-16,28,1
2632,-181,-17,974,-19,14,0
2633,-148,-17,982,-17,-10,-6
2634,-10,-33,1015,-16,-28,-11
2635,116,-28,1010,-14,-23,-12
2636,174,-20,1006,-14,-2,-9
2637,80,-13,1003,-14,21,-1
2638,-63,-17,1002,-15,30,2
2639,-174,-12,970,-18,17,1
2640,-161,-18,988,-18,-6,-5
2641,-34,-33,1002,-16,-27,-11
2642,107,-28,1006,-15,-26,-13
2643,176,-17,1009,-12,-7,-10
2644,95,-15,1011,-15,20,-2
2645,-43,-17,1004,-17,30,1
2646,-168,-12,970,-19,20,2
2647,-168,-22,991,-17,-4,-3
2648,-60,-32,995,-16,-25,-10
2649,96,-27,1008,-14,-28,-14
2650,172,-24,1003,-14,-11,-11
2651,114,-14,1016,-14,15,-3
2652,-23,-10,1005,-15,30,1
2653,-156,-10,980,-18,23,2
2654,-174,-21,984,-17,-1,-4
2655,-83,-33,998,-17,-22,-10
2656,85,-24,1011,-16,-30,-12
2657,165,-26,1006,-14,-13,-11
2658,129,-18,1003,-12,12,-3
2659,-1,-11,1007,-17,29,0
2660,-146,-7,988,-18,26,3
2661,-179,-26,984,-19,4,-3
2662,-106,-31,986,-17,-21,-9
2663,65,-20,1007,-14,-30,-12
2664,159,-29,1017,-13,-16,-11
2665,146,-25,1000,-13,9,-4
2666,19,-7,997,-14,26,0
2667,-130,-4,993,-19,27,2
2668,-184,-19,990,-16,7,-3
2669,-122,-28,977,-18,-16,-7
2670,49,-25,1010,-14,-30,-13
2671,143,-30,1015,-15,-16,-12
2672,160,-22,1005,-14,5,-5
2673,38,-11,993,-15,26,-1
2674,-112,-11,996,-16,29,3
2675,-184,-19,985,-18,10,-1
2676,-132,-19,983,-18,-14,-7
2677,19,-28,1011,-16,-29,-12
2678,132,-30,1009,-14,-21,-13
2679,171,-23,1002,-12,0,-7
2680,61,-11,1003,-15,23,0
2681,-94,-18,1001,-17,30,3
2682,-185,-11,973,-17,14,-1
2683,-143,-18,986,-17,-12,-6
2684,-5,-29,1012,-15,-29,-12
2685,119,-33,1007,-15,-22,-13
2686,178,-23,1009,-13,-1,-10
2687,77,-13,1003,-13,23,0
2688,-71,-15,1004,-16,29,2
2689,-178,-14,971,-18,16,-1
2690,-156,-20,985,-19,-8,-6
2691,-28,-32,1007,-18,-27,-11
2692,111,-30,1010,-15,-24,-13
2693,175,-22,1006,-14,-7,-9
2694,91,-13,1008,-14,18,-2
2695,-48,-19,1007,-17,30,2
2696,-170,-12,967,-18,18,1
2697,-169,-15,991,-15,-4,-5
2698,-52,-33,999,-17,-26,-10
2699,100,-25,1003,-13,-27,-13
2700,171,-24,1007,-13,-10,-11
2701,110,-17,1014,-15,16,-3
2702,-29,-17,1005,-15,31,1
2703,-161,-9,971,-18,22,1
2704,-173,-20,988,-15,-3,-4
2705,-77,-31,994,0,-28,-13
2706,85,-24,1008,-12,-30,-13
2707,168,-26,1006,-14,-14,-12
2708,123,-20,1001,-12,13,-3
2709,-4,-11,1009,-15,28,0
2710,-147,-9,988,-18,23,2
2711,-175,-24,982,-18,4,-3
2712,-101,-30,990,-16,-21,-8
2713,68,-18,1011,-15,-31,-12
2714,161,-25,1008,-13,-15,-13
2715,139,-23,1004,-13,10,-4
2716,12,-10,1000,-17,29,0
2717,-135,-10,993,-19,27,2
2718,-182,-24,986,-17,5,-3
2719,-117,-28,980,-16,-18,-8
2720,53,-22,1008,-13,-30,-12
2721,148,-24,1015,-13,-17,-12
2722,155,-24,1005,-14,7,-4
2723,35,-11,995,-14,26,0
2724,-120,-11,992,-15,27,4
2725,-183,-20,991,-20,9,-1
2726,-129,-23,983,-18,-15,-7
2727,31,-27,1009,-14,-31,-13
2728,135,-29,1015,-13,-20,-12
2729,161,-18,1004,-11,3,-6
2730,58,-12,997,-16,25,-1
2731,-104,-15,1000,-17,28,3
2732,-181,-18,975,-17,11,-1
2733,-141,-19,987,-18,-12,-7
2734,3,-31,1008,-15,-29,-11
2735,125,-29,1010,-13,-22,-13
2736,170,-15,1008,-12,0,-7
2737,72,-8,1003,-14,24,0
2738,-78,-18,1004,-16,29,2
2739,-182,-14,966,-18,14,1
2740,-153,-20,985,-18,-9,-7
2741,-18,-37,1013,-16,-27,-11
2742,112,-31,1003,-15,-23,-13
2743,177,-16,1010,-13,-5,-10
2744,84,-14,1006,-14,21,-1
2745,-59,-13,1001,-14,30,1
2746,-170,-14,973,-17,19,0
2747,-165,-20,992,-19,-5,-4
2748,-43,-33,999,-17,-27,-10
2749,104,-30,1009,-14,-27,-13
2750,173,-22,1005,-12,-10,-10
2751,102,-13,1011,-15,19,-2
2752,-35,-13,1011,-17,29,1
2753,-166,-9,967,-19,21,3
2754,-172,-18,988,-17,-2,-5
2755,-69,-35,996,-16,-25,-11
2756,92,-25,1010,-14,-29,-12
2757,175,-30,1003,-15,-11,-13
2758,117,-17,1007,-12,15,-4
2759,-13,-8,1010,-15,29,0
2760,-158,-9,978,-18,25,3
2761,-177,-22,982,-17,2,-3
2762,-94,-36,990,-17,-21,-9
2763,77,-25,1011,-15,-29,-13
2764,168,-30,1005,-13,-13,-12
2765,133,-17,1003,-11,11,-4
2766,7,-11,1000,-15,29,1
2767,-141,-4,995,-18,27,3
2768,-180,-25,986,-20,5,-2
2769,-107,-28,979,-17,-20,-10
2770,56,-25,1012,-14,-29,-12
2771,154,-30,1011,-14,-16,-12
2772,149,-27,1009,-14,9,-5
2773,26,-4,989,-15,28,0
2774,-124,-6,999,-16,27,3
2775,-185,-19,990,-20,7,-3
2776,-128,-27,981,-18,-17,-7
2777,42,-30,1011,-14,-30,-14
2778,140,-34,1015,-13,-19,-13
2779,166,-19,1002,-12,3,-5
2780,45,-9,999,-12,25,-1
2781,-109,-9,997,-17,28,3
2782,-184,-19,980,-18,12,0
2783,-137,-22,988,-18,-14,-7
2784,15,-31,1008,-16,-30,-12
2785,129,-32,1012,-13,-22,-13
2786,171,-24,1002,-14,-2,-7
2787,68,-8,1005,-14,24,-2
2788,-89,-15,1000,-16,31,2
2789,-187,-13,968,-18,14,0
2790,-145,-20,988,-16,-11,-7
2791,-11,-33,1009,-15,-29,-11
2792,121,-30,1005,-14,-24,-12
2793,178,-20,1011,-12,-4,-8
2794,79,-12,1003,-14,23,-1
2795,-63,-16,1001,-15,29,0
2796,-183,-14,971,-18,17,1
2797,-160,-16,985,-18,-8,-6
2798,-31,-38,1012,-15,-27,-12
2799,109,-27,1004,-13,-26,-12
2800,177,-21,1010,-14,-7,-10
2801,93,-15,1012,-14,20,-3
2802,-49,-17,1004,-15,31,1
2803,-169,-11,974,-17,21,0
2804,-171,-20,988,-18,-4,-4
2805,-57,-30,998,-16,-25,-11
2806,99,-29,1006,-15,-28,-14
2807,172,-22,1007,-12,-11,-10
2808,110,-18,1014,-16,17,-2
2809,-25,-16,1009,-16,29,1
2810,-160,-11,973,-18,24,2
2811,-175,-19,989,-18,-1,-4
2812,-80,-32,997,-16,-24,-11
2813,86,-24,1008,-13,-29,-13
2814,170,-24,1005,-13,-12,-11
2815,125,-18,1003,-13,13,-3
2816,-4,-10,1008,-14,28,1
2817,-151,-9,984,-18,24,2
2818,-176,-23,987,-17,1,-4
2819,-104,-34,985,-16,-20,-10
2820,70,-20,1011,-13,-29,-14
2821,165,-28,1013,-13,-17,-13
2822,137,-22,999,-13,10,-5
2823,14,-10,1001,-15,27,1
2824,-137,-8,995,-18,27,2
2825,-181,-24,987,-19,7,-2
2826,-119,-27,980,-17,-18,-9
2827,51,-23,1008,-14,-30,-12
2828,151,-31,1017,-14,-18,-12
2829,159,-25,1007,-14,6,-4
2830,33,-9,994,-16,27,0
2831,-118,-9,994,-16,29,3
2832,-189,-16,989,-18,9,-2
2833,-131,-25,984,-17,-15,-6
2834,34,-26,1010,-15,-31,-12
2835,139,-32,1014,-14,-20,-13
2836,167,-19,1004,-12,3,-6
2837,54,-14,998,-15,25,-1
2838,-106,-15,996,-16,31,2
2839,-187,-18,979,-17,13,-1
2840,-139,-19,984,-16,-12,-7
2841,6,-31,1011,-15,-30,-11
2842,126,-28,1008,-15,-23,-12
2843,173,-21,1008,-13,-1,-7
2844,70,-14,1001,-14,24,0
2845,-84,-20,1004,-17,31,3
2846,-181,-16,969,-18,15,-1
2847,-155,-19,985,-16,-9,-6
2848,-16,-30,1010,-15,-28,-12
2849,117,-31,1011,-12,-23,-12
2850,178,-20,1005,-15,-4,-9
2851,81,-12,1004,-15,22,0
2852,-61,-19,1007,-15,29,2
2853,-172,-16,967,-18,18,1
2854,-164,-17,986,-18,-6,-5
2855,-37,-32,1006,-16,-26,-11
2856,108,-28,1006,-14,-26,-13
2857,173,-19,1006,-13,-7,-11
2858,99,-15,1014,-16,19,-3
2859,-42,-21,1002,-16,30,1
2860,-169,-11,968,-18,22,2
2861,-169,-19,988,-17,-3,-5
2862,-62,-31,1002,-16,-26,-12
2863,100,-23,1003,-15,-28,-13
2864,174,-25,1008,-14,-9,-11
2865,111,-16,1012,-15,16,-2
2866,-21,-15,1006,-17,29,0
2867,-160,-10,976,-17,23,2
2868,-175,-22,983,-17,-1,-3
2869,-80,-34,994,-16,-23,-11
2870,85,-23,1011,-12,-28,-13
2871,169,-26,1002,-15,-14,-12
2872,127,-21,1003,-11,12,-3
2873,-4,-10,1007,-14,29,1
2874,-147,-10,986,-17,24,2
2875,-179,-26,982,-18,3,-3
2876,-103,-32,988,-19,-22,-10
2877,67,-23,1008,-13,-30,-13
2878,162,-26,1012,-13,-15,-12
2879,143,-22,1002,-14,9,-4
2880,18,-8,1002,-15,28,0
2881,-134,-10,994,-19,27,3
2882,-182,-22,989,-19,5,-3
2883,-119,-31,978,-17,-18,-8
2884,46,-22,1009,-12,-30,-13
2885,150,-33,1016,-14,-18,-12
2886,155,-17,1006,-13,5,-6
2887,36,-8,995,-15,25,0
2888,-120,-8,994,-17,28,2
2889,-187,-23,990,-18,9,-2
2890,-131,-25,980,-18,-15,-7
2891,32,-27,1011,-15,-29,-13
2892,137,-28,1008,-12,-21,-12
2893,167,-19,1007,-13,2,-7
2894,57,-13,998,-15,25,-1
2895,-103,-13,1002,-18,30,3
2896,-184,-20,978,-19,13,-1
2897,-142,-22,985,-18,-12,-6
2898,5,-29,1011,-15,-29,-11
2899,126,-32,1010,-12,-22,-13
2900,177,-17,1006,-12,-1,-8
2901,71,-11,1002,-15,23,-1
2902,-81,-15,1004,-16,30,3
2903,-184,-18,969,-20,15,0
2904,-152,-19,983,-17,-10,-6
2905,-14,-34,1013,-14,-29,-12
2906,113,-33,1010,-14,-24,-13
2907,181,-20,1006,-13,-4,-9
2908,83,-13,1008,-14,20,-2
2909,-61,-14,1001,-15,30,1
2910,-176,-14,973,-17,18,0
2911,-165,-19,986,-18,-6,-5
2912,-41,-36,1004,-16,-26,-11
2913,110,-31,1006,-13,-27,-12
2914,175,-23,1007,-13,-7,-9
2915,104,-12,1014,-13,19,-2
2916,-38,-15,1007,-15,30,2
2917,-171,-7,967,-18,22,2
2918,-172,-21,992,-18,-4,-4
2919,-63,-37,997,-17,-25,-10
2920,91,-25,1002,-14,-28,-14
2921,173,-26,1009,-13,-10,-12
2922,117,-15,1009,-15,16,-1
2923,-19,-11,1007,-16,30,2
2924,-160,-6,980,-17,24,1
2925,-177,-21,980,-17,-1,-5
2926,-88,-34,996,-18,-22,-11
2927,81,-27,1012,-15,-28,-12
2928,167,-28,1006,-12,-13,-10
2929,132,-21,1001,-13,11,-4
2930,-2,-8,1011,-14,27,0
2931,-145,-7,985,-20,25,1
2932,-181,-23,984,-18,5,-2
2933,-104,-32,983,-17,-19,-10
2934,64,-26,1015,-16,-30,-13
2935,166,-29,1008,-13,-17,-12
2936,143,-23,1003,-13,9,-4
2937,21,-7,1001,-14,28,0
2938,-137,-10,995,-17,28,3
2939,-184,-17,988,-19,5,-1
2940,-123,-34,980,-19,-19,-7
2941,47,-22,1009,-14,-30,-13
2942,152,-32,1016,-16,-19,-12
2943,160,-19,1007,-14,5,-5
2944,42,-10,994,-15,26,0
2945,-121,-8,993,-16,29,2
2946,-188,-21,986,-17,9,-2
2947,-136,-20,984,-18,-15,-7
2948,31,-29,1010,-16,-31,-12
2949,134,-31,1014,-13,-19,-12
2950,169,-20,1004,-14,1,-6
2951,56,-10,999,-14,25,-1
2952,-101,-15,999,-17,30,3
2953,-186,-17,979,-17,13,-1
2954,-143,-20,983,-17,-13,-6
2955,4,-29,1014,-17,-30,-12
2956,125,-30,1005,-14,-23,-13
2957,174,-20,1006,-13,-3,-9
2958,75,-13,1003,-14,23,-2
2959,-81,-17,1005,-16,30,3
2960,-184,-16,971,-18,16,0
2961,-154,-18,981,-17,-10,-7
2962,-14,-32,1011,-16,-28,-12
2963,117,-28,1012,-16,-23,-12
2964,178,-17,1006,-13,-4,-8
2965,89,-12,1009,-15,20,-2
2966,-62,-18,1005,-16,29,1
2967,-178,-12,968,-17,18,1
2968,-163,-22,985,-18,-5,-5
2969,-40,-37,1006,-16,-26,-11
2970,109,-27,1000,-15,-26,-12
2971,177,-21,1011,-12,-7,-11
2972,99,-8,1011,-14,19,-2
2973,-40,-13,1005,-17,31,2
2974,-169,-12,971,-18,21,2
2975,-174,-19,987,-18,-3,-3
2976,-58,-38,998,-17,-25,-10
2977,94,-26,1004,-12,-28,-12
2978,177,-23,1003,-13,-10,-12
2979,113,-16,1014,-14,15,-2
2980,-21,-13,1004,-16,31,2
2981,-161,-9,975,-18,24,2
2982,-176,-24,985,-18,0,-3
2983,-84,-34,994,-19,-22,-9
2984,86,-22,1011,-14,-29,-14
2985,171,-26,1003,-12,-14,-12
2986,128,-16,1002,-11,12,-3
2987,-3,-11,1010,-15,28,1
2988,-148,-6,986,-18,25,3
2989,-177,-27,985,-18,3,-2
2990,-107,-30,987,-16,-21,-9
2991,69,-25,1011,-15,-30,-12
2992,162,-26,1010,-12,-15,-12
2993,142,-20,1001,-13,10,-3
2994,17,-10,1003,-14,27,1
2995,-134,-9,994,-18,28,3
2996,-186,-21,987,-18,5,-2
2997,-117,-31,979,-16,-18,-9
2998,51,-23,1010,-15,-30,-13
2999,153,-31,1012,-15,-18,-11
3000,154,-24,1007,-13,6,-4
3001,40,-11,991,-15,25,0
3002,-124,-7,993,-17,29,4
3003,-184,-20,991,-18,8,-1
3004,-131,-29,981,-18,-15,-8
3005,30,-25,1007,-12,-29,-12
3006,138,-31,1014,-13,-21,-13
3007,165,-21,1005,-13,2,-6
3008,55,-10,995,-14,25,0
3009,-106,-13,1001,-18,30,2
3010,-182,-17,978,-16,13,-1
3011,-145,-19,986,-18,-12,-6
3012,7,-31,1011,-17,-31,-11
3013,126,-31,1010,-13,-23,-12
3014,174,-19,1004,-14,-1,-8
3015,73,-12,1005,-15,23,-1
3016,-85,-19,1002,-17,29,3
3017,-183,-14,970,-19,14,0
3018,-151,-20,984,-18,-8,-6
3019,-15,-31,1011,-18,-27,-12
3020,119,-30,1009,-14,-23,-13
3021,176,-20,1011,-13,-3,-9
3022,85,-12,1003,-15,21,-2
3023,-64,-16,1004,-16,30,2
3024,-175,-13,968,-19,17,0
3025,-162,-19,989,-17,-5,-5
3026,-37,-34,1001,-16,-26,-11
3027,106,-29,1008,-15,-26,-14
3028,178,-22,1005,-13,-8,-12
3029,98,-14,1009,-14,19,-2
3030,-40,-18,1008,-16,29,2
3031,-168,-13,966,-18,20,2
3032,-172,-18,988,-16,-3,-4
3033,-61,-35,996,-16,-25,-10
3034,99,-29,1005,-13,-27,-12
3035,174,-25,1005,-12,-10,-11
3036,113,-17,1013,-15,16,-3
3037,-23,-11,1010,-16,29,1
3038,-162,-7,970,-16,22,2
3039,-176,-22,986,-18,-6,-4
3040,-85,-35,996,-17,-24,-10
3041,85,-28,1006,-14,-29,-14
3042,176,-29,1011,-13,-14,-12
3043,129,-15,1003,-12,13,-2
3044,-5,-5,1010,-15,29,2
3045,-150,-9,985,-18,25,2
3046,-181,-20,987,-18,4,-3
3047,-99,-33,984,-18,-21,-10
3048,70,-25,1016,-14,-30,-12
3049,164,-31,1007,-14,-15,-13
3050,144,-23,1004,-12,10,-4
3051,13,-8,997,-15,29,0
3052,-136,-3,997,-17,27,2
3053,-183,-24,989,-19,5,-3
3054,-121,-29,976,-16,-19,-9
3055,57,-23,1010,-15,-32,-12
3056,151,-34,1016,-14,-18,-13
3057,156,-25,1001,-13,6,-6
3058,31,-9,998,-14,27,0
3059,-120,-5,991,-16,28,2
3060,-191,-21,989,-17,8,-1
3061,-131,-23,980,-17,-17,-8
3062,33,-30,1011,-14,-31,-12
3063,141,-32,1011,-14,-21,-12
3064,165,-24,1007,-12,2,-6
3065,54,-12,999,-15,25,-1
3066,-107,-11,997,-15,29,3
3067,-186,-20,982,-17,12,-2
3068,-142,-18,985,-18,-13,-6
3069,13,-27,1012,-16,-29,-12
3070,126,-32,1009,-13,-21,-14
3071,173,-24,1006,-12,1,-8
3072,73,-14,1003,-14,24,-1
3073,-91,-17,1002,-16,31,4
3074,-181,-16,972,-17,15,-2
3075,-154,-18,982,-17,-10,-6
3076,-9,-29,1008,-16,-30,-12
3077,117,-30,1017,-14,-24,-13
3078,179,-23,1002,-14,-5,-9
3079,81,-16,1006,-13,22,-2
3080,-65,-16,1003,-14,29,2
3081,-181,-17,970,-20,17,1
3082,-161,-16,984,-15,-7,-6
3083,-37,-33,1008,-17,-27,-11
3084,112,-25,1007,-14,-27,-13
3085,177,-23,1005,-13,-9,-11
3086,101,-12,1013,-13,19,-3
3087,-45,-19,1007,-16,31,0
3088,-169,-14,966,-18,21,1
3089,-172,-19,993,-17,-3,-3
3090,-60,-33,995,-16,-25,-12
3091,100,-25,1004,-13,-28,-13
3092,172,-24,1009,-13,-10,-10
3093,113,-15,1012,-14,17,-3
3094,-22,-13,1008,-15,31,0
3095,-164,-8,972,-17,23,2
3096,-173,-20,988,-18,-1,-3
3097,-81,-37,997,-17,-22,-10
3098,86,-22,1008,-15,-28,-12
3099,172,-27,1007,-15,-12,-11
3100,122,-15,1004,-14,13,-4
3101,-5,-10,1008,-16,29,1
3102,-151,-10,988,-19,25,3
3103,-180,-23,980,-18,2,-3
3104,-99,-33,992,-17,-20,-10
3105,71,-23,1009,-14,-29,-12
3106,162,-26,1006,-12,-16,-12
3107,143,-20,1004,-13,10,-4
3108,10,-9,1001,-16,28,1
3109,-135,-6,993,-18,27,1
3110,-182,-25,988,-19,6,-2
3111,-117,-29,978,-17,-20,-9
3112,53,-24,1011,-13,-31,-13
3113,151,-29,1013,-14,-18,-13
3114,155,-23,1005,-14,7,-6
3115,33,-5,994,-13,27,0
3116,-125,-11,992,-15,28,2
3117,-181,-21,990,-18,8,-2
3118,-132,-24,982,-19,-16,-7
3119,36,-27,1006,-16,-30,-13
3120,139,-33,1017,-14,-18,-13
3121,165,-19,1002,-13,2,-6
3122,50,-9,1000,-14,25,0
3123,-106,-12,995,-17,28,3
3124,-186,-15,982,-18,12,-1
3125,-140,-21,985,-16,-13,-7
3126,15,-29,1013,-16,-30,-12
3127,129,-31,1009,-13,-22,-13
3128,175,-18,1004,-11,-1,-7
3129,66,-8,1006,-15,23,-1
3130,-87,-17,1000,-17,30,2
3131,-183,-18,973,-19,14,0
3132,-147,-19,980,-17,-11,-6
3133,-8,-30,1013,-15,-29,-13
3134,119,-30,1011,-14,-24,-14
3135,175,-20,1006,-13,-3,-8
3136,86,-15,1007,-14,21,-1
3137,-69,-16,1002,-15,30,2
3138,-178,-12,969,-18,18,1
3139,-162,-18,988,-17,-7,-6
3140,-32,-33,1002,-17,-26,-11
3141,114,-30,1008,-13,-25,-14
3142,176,-18,1008,-11,-7,-9
3143,97,-17,1010,-14,19,-2
3144,-44,-16,1007,-16,31,2
3145,-174,-12,968,-17,20,3
3146,-168,-16,987,-18,-4,-5
3147,-60,-35,1002,-17,-24,-11
3148,98,-26,1002,-14,-27,-14
3149,176,-26,1010,-13,-10,-11
3150,111,-17,1015,-13,18,-2
3151,-23,-12,1006,-16,29,0
3152,-162,-13,977,-17,24,1
3153,-178,-21,981,-18,-2,-5
3154,-79,-31,997,-16,-23,-10
3155,84,-23,1010,-16,-28,-13
3156,177,-26,1006,-15,-12,-11
3157,125,-20,1004,-12,14,-3
3158,-6,-8,1009,-15,28,2
3159,-147,-13,988,-19,24,3
3160,-185,-19,983,-18,4,-2
3161,-100,-33,987,-18,-20,-10
3162,73,-24,1011,-14,-30,-13
3163,163,-26,1007,-14,-16,-12
3164,147,-21,999,-13,9,-6
3165,13,-11,1005,-15,29,1
3166,-137,-5,991,-18,27,3
3167,-183,-23,988,-18,6,-4
3168,-121,-33,979,-17,-20,-7
3169,53,-22,1007,-13,-31,-12
3170,154,-33,1019,-13,-18,-13
3171,156,-22,1004,-13,6,-5
3172,34,-7,995,-15,26,1
3173,-125,-11,994,-18,28,3
3174,-187,-16,990,-19,7,-2
3175,-129,-28,979,-19,-15,-9
3176,31,-25,1012,-15,-30,-13
3177,141,-34,1012,-15,-19,-13
3178,163,-20,1005,-12,5,-7
3179,55,-10,999,-15,25,0
3180,-106,-12,997,-18,30,2
3181,-185,-18,978,-17,12,-2
3182,-141,-19,987,-18,-12,-7
3183,11,-32,1010,-16,-30,-12
3184,126,-33,1008,-12,-23,-13
3185,173,-18,1005,-12,-3,-8
3186,70,-13,1006,-16,23,0
3187,-84,-16,999,-15,31,2
3188,-183,-17,971,-18,15,-1
3189,-149,-20,984,-17,-11,-7
3190,-12,-33,1013,-15,-29,-11
3191,119,-26,1009,-15,-24,-13
3192,177,-22,1007,-13,-4,-10
3193,84,-11,1004,-14,22,-2
3194,-66,-22,1005,-17,29,2
3195,-175,-16,966,-17,17,0
3196,-163,-21,988,-18,-5,-5
3197,-30,-31,1005,-15,-26,-12
3198,104,-29,1005,-13,-26,-13
3199,181,-16,1008,-12,-8,-11
3200,96,-17,1013,-13,19,-2
3201,-44,-16,1003,-16,31,2
3202,-167,-18,972,-19,20,1
3203,-172,-20,988,-16,-4,-5
3204,-55,-32,995,-17,-26,-11
3205,99,-27,1011,-13,-26,-13
3206,173,-19,1000,-14,-11,-10
3207,115,-18,1017,-14,16,-4
3208,-25,-14,1006,-17,30,3
3209,-161,-8,973,-18,23,3
3210,-175,-24,986,-17,0,-5
3211,-87,-34,993,-15,-23,-10
3212,92,-23,1010,-14,-29,-14
3213,166,-26,1006,-14,-12,-11
3214,129,-16,1002,-14,13,-5
3215,-8,-13,1009,-14,29,-1
3216,-150,-6,985,-18,24,3
3217,-175,-24,983,-18,1,-2
3218,-104,-32,985,-15,-20,-10
3219,69,-22,1012,-16,-31,-12
3220,166,-31,1008,-15,-17,-13
3221,140,-24,1002,-14,10,-4
3222,16,-10,1002,-15,29,-1
3223,-139,-8,996,-17,28,2
3224,-179,-24,989,-18,7,-4
3225,-122,-32,979,-17,-18,-8
3226,55,-20,1009,-13,-30,-13
3227,153,-31,1019,-15,-17,-12
3228,155,-22,1003,-14,7,-6
3229,36,-8,994,-15,26,0
3230,-122,-12,992,-17,28,3
3231,-187,-21,989,-18,9,-1
3232,-128,-26,985,-17,-14,-7
3233,30,-24,1010,-16,-30,-12
3234,139,-32,1012,-13,-21,-13
3235,167,-20,1005,-14,3,-6
3236,52,-12,997,-15,24,0
3237,-106,-15,997,-16,30,2
3238,-183,-19,979,-18,12,-1
3239,-141,-22,983,-17,-13,-7
3240,12,-30,1011,-15,-28,-12
3241,123,-31,1011,-13,-22,-13
3242,174,-19,1000,-13,-1,-7
3243,69,-15,1008,-15,24,-2
3244,-83,-15,1001,-16,31,2
3245,-181,-18,970,-17,15,0
3246,-150,-17,982,-16,-10,-5
3247,-13,-31,1013,-15,-29,-10
3248,117,-29,1011,-13,-23,-13
3249,176,-19,1010,-14,-5,-9
3250,86,-17,1007,-14,20,-2
3251,-65,-19,1004,-15,31,2
3252,-174,-12,971,-17,17,0
3253,-164,-21,989,-18,-6,-4
3254,-35,-32,1005,-14,-26,-10
3255,106,-25,1007,-14,-27,-13
3256,178,-23,1009,-13,-7,-11
3257,94,-15,1007,-14,20,-1
3258,-42,-18,1009,-16,31,1
3259,-166,-11,967,-17,21,1
3260,-169,-21,991,-17,-3,-3
3261,-60,-32,996,-18,-25,-11
3262,98,-23,1008,-13,-28,-13
3263,174,-22,1004,-14,-10,-11
3264,112,-13,1013,-14,17,-3
3265,-22,-11,1006,-16,30,1
3266,-159,-10,974,-18,23,3
3267,-176,-25,984,-18,0,-4
3268,-83,-35,995,-16,-22,-11
3269,84,-24,1008,-13,-29,-13
3270,169,-25,1003,-13,-13,-11
3271,126,-17,1007,-13,12,-3
3272,-6,-12,1007,-17,29,1
3273,-148,-7,987,-18,26,2
3274,-179,-26,983,-17,4,-3
3275,-105,-33,986,-17,-20,-10
3276,69,-25,1012,-14,-30,-14
3277,161,-29,1010,-13,-16,-11
3278,143,-21,1001,-12,9,-4
3279,16,-9,1002,-14,28,-1
3280,-133,-4,995,-18,26,3
3281,-183,-22,991,-18,5,-2
3282,-118,-31,976,-16,-19,-8
3283,48,-25,1013,-15,-29,-13
3284,151,-33,1014,-15,-17,-12
3285,154,-23,1007,-12,5,-6
3286,41,-6,991,-13,27,-1
3287,-122,-7,996,-18,30,3
3288,-182,-17,988,-18,8,-2
3289,-135,-23,985,-20,-14,-6
3290,33,-26,1008,-15,-31,-12
3291,136,-36,1013,-13,-19,-15
3292,167,-19,1005,-13,0,-6
3293,59,-13,997,-15,24,-1
3294,-104,-14,1001,-15,31,2
3295,-186,-17,977,-18,12,-1
3296,-141,-20,984,-17,-11,-7
3297,7,-34,1011,-16,-29,-12
3298,125,-30,1011,-15,-22,-13
3299,174,-24,1003,-14,-1,-7
3300,71,-10,1006,-15,24,-1
3301,-83,-17,1001,-16,29,3
3302,-180,-15,971,-18,14,-2
3303,-156,-19,983,-17,-10,-5
3304,-14,-29,1011,-14,-29,-12
3305,116,-33,1013,-14,-25,-13
3306,180,-16,1006,-13,-5,-8
3307,87,-17,1008,-13,21,-2
3308,-62,-15,1001,-17,31,2
3309,-175,-15,968,-19,19,2
3310,-163,-16,990,-17,-5,-5
3311,-39,-33,1003,-17,-27,-10
3312,107,-25,1005,-13,-27,-12
3313,179,-21,1007,-13,-9,-10
3314,101,-14,1012,-14,19,-3
3315,-38,-14,1005,-16,29,2
3316,-170,-12,970,-18,21,1
3317,-173,-20,987,-16,-3,-6
3318,-64,-36,1000,-16,-25,-10
3319,97,-24,1006,-12,-27,-14
3320,174,-26,1005,-15,-12,-11
3321,114,-15,1010,-14,16,-2
3322,-18,-13,1009,-16,29,1
3323,-160,-10,975,-17,23,1
3324,-176,-22,986,-14,0,-3
3325,-82,-30,993,-16,-22,-9
3326,81,-24,1015,-15,-27,-13
3327,168,-29,1003,-14,-13,-11
3328,131,-20,1001,-12,12,-5
3329,-3,-12,1010,-15,29,1
3330,-148,-5,987,-19,26,3
3331,-181,-20,986,-17,5,-4
3332,-108,-34,986,-17,-19,-8
3333,67,-20,1012,-14,-31,-13
3334,163,-29,1009,-15,-17,-12
3335,144,-19,1005,-15,9,-6
3336,22,-12,998,-16,28,0
3337,-137,-7,996,-17,29,3
3338,-184,-27,988,-18,5,-2
3339,-121,-30,978,-16,-17,-8
3340,49,-22,1009,-14,-31,-12
3341,151,-30,1017,-13,-18,-14
3342,160,-21,1007,-14,7,-6
3343,40,-10,992,-15,27,0
3344,-121,-11,995,-16,29,3
3345,-186,-25,987,-18,10,-2
3346,-136,-25,978,-17,-14,-7
3347,29,-28,1013,-16,-29,-12
3348,136,-31,1011,-14,-20,-12
3349,171,-21,1005,-12,2,-8
3350,59,-9,1001,-15,24,0
3351,-105,-15,999,-16,31,2
3352,-184,-16,973,-18,14,-1
3353,-148,-23,986,-17,-11,-6
3354,6,-28,1008,-14,-31,-11
3355,123,-32,1013,-14,-23,-11
3356,177,-17,1004,-13,-1,-8
3357,75,-12,1005,-15,23,-1
3358,-79,-11,1006,-16,29,2
3359,-184,-17,967,-18,16,1
3360,-157,-17,985,-16,-8,-7
3361,-20,-38,1011,-16,-28,-9
3362,115,-30,1008,-13,-23,-13
3363,181,-20,1013,-12,-5,-9
3364,89,-11,1000,-13,21,-1
3365,-58,-17,1005,-15,30,2
3366,-174,-7,968,-19,19,1
3367,-167,-19,987,-19,-4,-5
3368,-41,-35,1001,-16,-26,-11
3369,105,-35,1005,-15,-26,-13
3370,180,-23,1007,-13,-9,-10
3371,101,-15,1011,-14,18,-2
3372,-37,-12,1007,-15,32,0
3373,-170,-11,973,-18,21,1
3374,-173,-16,989,-21,2,-2
3375,-66,-35,997,-21,-24,-10
3376,91,-26,1006,-14,-27,-13
3377,177,-28,1006,-13,-11,-10
3378,119,-17,1010,-14,15,-3
3379,-17,-10,1009,-13,30,1
3380,-157,-7,979,-17,23,2
3381,-182,-21,984,-17,1,-3
3382,-87,-32,993,-17,-24,-11
3383,79,-29,1016,-16,-30,-13
3384,169,-26,1001,-13,-14,-11
3385,135,-24,1005,-13,12,-3
3386,2,-6,1005,-15,29,1
3387,-147,-8,991,-18,27,3
3388,-179,-21,988,-18,4,-3
3389,-110,-34,984,-17,-20,-10
3390,63,-22,1012,-15,-30,-14
3391,159,-32,1015,-15,-16,-13
3392,148,-22,1002,-12,9,-5
3393,21,-10,1002,-14,28,1
3394,-130,-5,991,-17,28,2
3395,-186,-22,990,-18,5,-3
3396,-124,-23,977,-17,-18,-8
3397,42,-26,1012,-13,-30,-12
3398,151,-31,1013,-14,-20,-14
3399,161,-22,1006,-13,6,-6
3400,44,-8,995,-14,26,0
3401,-119,-12,992,-17,29,3
3402,-186,-19,987,-18,10,-2
3403,-136,-21,982,-18,-14,-7
3404,25,-29,1013,-16,-29,-12
3405,133,-31,1009,-13,-20,-13
3406,171,-19,1006,-12,1,-6
3407,62,-13,1001,-15,23,0
3408,-98,-15,1000,-17,29,2
3409,-189,-20,972,-18,15,0
3410,-143,-16,986,-17,-13,-6
3411,0,-30,1014,-15,-29,-12
3412,122,-32,1011,-13,-23,-14
3413,174,-22,1005,-13,-2,-8
3414,77,-11,1004,-14,22,-2
3415,-78,-18,1003,-17,31,2
3416,-178,-13,968,-17,16,-1
3417,-158,-18,988,-17,-8,-5
3418,-20,-30,1003,-16,-26,-12
3419,112,-29,1014,-13,-22,-14
3420,177,-16,1004,-13,-6,-10
3421,86,-13,1008,-15,19,-2
3422,-53,-19,1004,-17,31,1
3423,-177,-13,971,-18,20,0
3424,-159,-21,989,-18,-5,-6
3425,-53,-35,1005,-16,-25,-11
3426,106,-25,1000,-13,-27,-13
3427,174,-25,1010,-12,-10,-12
3428,104,-15,1012,-16,18,-2
3429,-29,-13,1006,-14,31,0
3430,-165,-9,974,-17,22,2
3431,-174,-18,982,-17,-2,-4
3432,-75,-35,999,-17,-25,-10
3433,91,-24,1010,-15,-29,-12
3434,173,-28,1003,-13,-12,-11
3435,124,-19,1006,-13,14,-3
3436,-13,-11,1011,-15,30,2
3437,-153,-7,978,-16,25,2
3438,-180,-23,985,-18,0,-3
3439,-93,-31,990,-17,-22,-9
3440,76,-25,1013,-15,-29,-14
3441,166,-23,1006,-14,-15,-12
3442,135,-22,1004,-13,11,-4
3443,7,-12,1003,-14,29,-1
3444,-140,-8,992,-18,26,3
3445,-179,-22,989,-18,5,-2
3446,-115,-29,978,-17,-20,-9
3447,57,-20,1011,-14,-30,-12
3448,152,-30,1016,-14,-17,-12
3449,153,-22,1000,-15,6,-6
3450,30,-12,997,-15,27,0
3451,-125,-10,992,-16,29,2
3452,-185,-25,991,-19,8,-1
3453,-129,-23,979,-17,-16,-7
3454,37,-25,1012,-15,-30,-12
3455,142,-26,1015,-13,-19,-12
3456,164,-23,1002,-13,3,-5
3457,49,-12,997,-13,25,-2
3458,-110,-14,997,-17,30,2
3459,-186,-21,979,-17,11,-2
3460,-140,-23,986,-17,-14,-7
3461,13,-31,1011,-16,-31,-12
3462,128,-32,1010,-13,-22,-14
3463,173,-16,1006,-14,0,-8
3464,68,-13,1003,-15,24,-1
3465,-89,-14,1002,-16,31,3
3466,-180,-18,970,-17,14,-1
3467,-153,-20,985,-17,-10,-6
3468,-8,-35,1008,-15,-29,-12
3469,117,-29,1011,-13,-24,-13
3470,179,-17,1006,-12,-4,-8
3471,80,-11,1007,-13,22,-1
3472,-63,-15,1002,-15,30,1
3473,-178,-15,967,-17,18,2
3474,-158,-16,990,-17,-7,-5
3475,-35,-34,1004,-15,-26,-11
3476,105,-24,1006,-13,-26,-13
3477,178,-25,1007,-12,-7,-10
3478,94,-9,1010,-14,19,-1
3479,-42,-14,1007,-17,31,1
3480,-168,-13,972,-18,20,0
3481,-171,-19,984,-18,-3,-4
3482,-61,-34,999,-16,-25,-10
3483,95,-25,1004,-13,-27,-12
3484,173,-22,1007,-12,-10,-11
3485,114,-17,1009,-14,16,-2
3486,-20,-11,1010,-16,29,1
3487,-158,-9,974,-18,24,2
3488,-174,-23,988,-18,1,-4
3489,-83,-34,993,-17,-22,-10
3490,80,-23,1009,-15,-28,-13
3491,169,-27,1006,-14,-14,-12
3492,129,-25,1005,-12,13,-4
3493,0,-10,1005,-14,28,0
3494,-145,-5,990,-16,26,3
3495,-181,-21,989,-18,4,-3
3496,-106,-31,981,-17,-19,-8
3497,63,-23,1012,-15,-29,-12
3498,163,-34,1009,-14,-16,-12
3499,143,-25,1004,-13,9,-5
3500,20,-11,999,-14,27,-1
3501,-130,-6,992,-16,27,1
3502,-184,-22,990,-17,7,-2
3503,-122,-24,980,-16,-18,-7
3504,45,-23,1011,-14,-30,-13
3505,145,-33,1014,-15,-17,-13
3506,161,-23,1006,-14,6,-5
3507,39,-12,993,-13,25,0
3508,-116,-12,993,-17,27,2
3509,-184,-20,988,-18,10,-2
3510,-133,-23,982,-19,-14,-7
3511,27,-27,1014,-15,-30,-13
3512,130,-30,1010,-13,-21,-14
3513,165,-21,1001,-13,0,-7
3514,62,-12,1002,-16,23,0
3515,-95,-18,1001,-17,30,3
3516,-181,-14,966,-17,13,0
3517,-144,-21,988,-17,-11,-6
3518,-3,-28,1011,-16,-30,-11
3519,123,-30,1010,-13,-22,-13
3520,172,-17,1006,-13,-2,-10
3521,74,-11,1005,-13,22,-1
3522,-74,-16,1003,-16,29,2
3523,-179,-15,970,-20,16,1
3524,-155,-20,985,-19,-7,-5
3525,-25,-36,1009,-15,-25,-11
3526,109,-30,1006,-15,-25,-13
3527,178,-20,1007,-12,-6,-10
3528,87,-11,1010,-13,18,-1
3529,-52,-14,1002,-17,28,1
3530,-170,-13,973,-18,19,0
3531,-164,-21,988,-19,-6,-5
3532,-47,-34,1000,-17,-26,-12
3533,98,-27,1004,-14,-27,-12
3534,173,-21,1008,-13,-9,-10
3535,103,-14,1012,-14,18,-2
3536,-32,-12,1008,-15,30,1
3537,-159,-15,972,-19,22,1
3538,-171,-19,984,-17,-2,-3
3539,-74,-36,994,-17,-23,-10
3540,86,-23,1011,-14,-27,-13
3541,168,-27,1001,-13,-11,-10
3542,118,-19,1006,-11,14,-3
3543,-9,-11,1011,-14,28,0
3544,-148,-9,980,-17,24,2
3545,-180,-23,987,-17,2,-4
3546,-96,-30,986,-17,-20,-10
3547,73,-23,1011,-15,-28,-12
3548,159,-27,1008,-14,-15,-11
3549,137,-25,1004,-13,9,-5
3550,12,-11,1001,-16,28,-1
3551,-136,-8,993,-16,25,3
3552,-183,-24,992,-19,6,-2
3553,-114,-28,979,-16,-18,-8
3554,50,-23,1008,-13,-29,-12
3555,151,-30,1019,-14,-18,-13
3556,154,-25,1003,-14,7,-5
3557,32,-6,992,-14,27,0
3558,-122,-12,998,-16,27,3
3559,-183,-18,985,-16,8,-2
3560,-129,-27,983,-17,-16,-8
3561,30,-26,1011,-14,-30,-13
3562,136,-31,1012,-15,-19,-11
3563,166,-21,1005,-13,2,-7
3564,53,-9,998,-14,25,1
3565,-102,-11,998,-18,30,2
3566,-185,-17,979,-18,13,-1
3567,-140,-23,982,-18,-12,-7
3568,8,-30,1010,-15,-29,-12
3569,120,-33,1011,-13,-22,-13
3570,179,-21,1005,-14,-1,-8
3571,69,-13,1004,-13,24,-1
3572,-80,-10,1001,-17,29,3
3573,-183,-17,972,-19,14,1
3574,-154,-13,982,-17,-9,-6
3575,-16,-33,1013,-16,-28,-12
3576,117,-32,1008,-14,-24,-12
3577,177,-21,1005,-13,-5,-8
3578,87,-11,1008,-13,21,-2
3579,-61,-16,1007,-16,30,1
3580,-169,-9,966,-18,19,1
3581,-165,-17,993,-19,-4,-5
3582,-39,-31,1003,-19,-26,-12
3583,106,-30,1005,-14,-26,-13
3584,175,-23,1007,-15,-9,-10
3585,102,-18,1015,-15,18,-1
3586,-38,-13,1005,-15,30,1
3587,-163,-11,969,-17,23,1
3588,-172,-14,989,-16,-3,-5
3589,-68,-33,995,-17,-24,-10
3590,96,-25,1009,-15,-27,-13
3591,169,-28,1008,-14,-10,-11
3592,120,-17,1004,-13,15,-3
3593,-16,-17,1010,-13,30,-1
3594,-156,-9,977,-17,24,2
3595,-175,-24,985,-18,1,-3
3596,-92,-27,993,-16,-21,-8
3597,80,-21,1012,-15,-30,-12
3598,167,-28,1008,-14,-15,-12
3599,127,-23,1002,-13,11,-3
3600,8,-11,1003,-14,27,-1
3601,-143,-10,992,-17,26,2
3602,-179,-22,986,-17,4,-3
3603,-106,-30,984,-17,-19,-10
3604,60,-20,1007,-14,-29,-12
3605,155,-27,1018,-15,-17,-13
3606,148,-21,1005,-14,6,-6
3607,26,-9,993,-14,27,0
3608,-126,-10,993,-16,28,1
3609,-184,-21,995,-18,8,-2
3610,-122,-27,979,-19,-16,-8
3611,35,-25,1010,-13,-29,-13
3612,141,-30,1015,-13,-19,-13
3613,162,-22,1002,-16,4,-6
3614,46,-10,996,-14,24,0
3615,-108,-13,999,-17,28,1
3616,-185,-19,978,-19,12,-1
3617,-139,-20,985,-18,-13,-6
3618,14,-29,1011,-16,-31,-12
3619,126,-32,1010,-13,-22,-14
3620,168,-16,1004,-13,0,-8
3621,68,-14,1004,-16,25,-1
3622,-90,-17,1002,-16,30,2
3623,-180,-15,971,-18,13,-1
3624,-150,-21,985,-18,-9,-6
3625,-12,-31,1012,-16,-27,-11
3626,117,-34,1009,-15,-24,-13
3627,175,-19,1008,-13,-3,-9
3628,83,-13,1007,-14,21,-1
3629,-66,-15,1001,-15,29,2
3630,-173,-14,969,-17,17,0
3631,-161,-18,993,-18,-6,-5
3632,-36,-29,1002,-18,-25,-11
3633,108,-29,1006,-14,-27,-13
3634,174,-23,1009,-14,-8,-10
3635,97,-13,1010,-14,19,-1
3636,-41,-18,1007,-17,30,1
3637,-169,-11,968,-18,20,3
3638,-167,-22,990,-17,-5,-4
3639,-64,-33,994,-16,-25,-10
3640,99,-28,1010,-13,-28,-12
3641,175,-24,1003,-13,-11,-11
3642,110,-16,1011,-14,16,-2
3643,-18,-13,1007,-17,29,1
3644,-159,-10,979,-18,23,2
3645,-174,-19,984,-17,-1,-3
3646,-86,-34,994,-17,-23,-10
3647,83,-25,1009,-14,-28,-12
3648,165,-29,1006,-14,-13,-11
3649,133,-18,1002,-12,12,-4
3650,3,-9,1006,-16,29,0
3651,-145,-4,991,-19,28,3
3652,-180,-28,988,-19,5,-3
3653,-109,-34,980,-16,-18,-9
3654,64,-25,1012,-14,-30,-12
3655,157,-29,1017,-11,-17,-12
3656,149,-18,1003,-13,9,-5
3657,25,-7,995,-15,30,1
3658,-130,-8,994,-18,28,4
3659,-186,-26,988,-19,6,-1
3660,-121,-28,980,-18,-17,-7
3661,43,-27,1011,-13,-30,-13
3662,145,-31,1015,-14,-19,-14
3663,161,-21,1006,-13,4,-6
3664,42,-9,997,-14,24,-1
3665,-112,-13,995,-18,29,3
3666,-187,-20,985,-19,10,-1
3667,-135,-22,980,-18,-14,-7
3668,19,-28,1015,-15,-30,-12
3669,129,-32,1008,-13,-21,-12
3670,172,-16,1005,-13,0,-8
3671,65,-11,1003,-15,24,-2
3672,-94,-12,1001,-17,30,3
3673,-178,-16,969,-19,14,-1
3674,-150,-22,985,-18,-10,-6
3675,-6,-31,1007,-15,-29,-12
3676,117,-30,1011,-13,-21,-13
3677,175,-20,1006,-13,-3,-8
3678,77,-10,1007,-14,21,0
3679,-67,-14,1001,-17,28,3
3680,-174,-13,971,-18,18,1
3681,-160,-20,989,-18,-6,-5
3682,-32,-34,1003,-15,-26,-10
3683,109,-31,1010,-15,-26,-13
3684,175,-21,1006,-12,-8,-9
3685,97,-13,1012,-15,18,-2
3686,-46,-16,1007,-16,30,0
3687,-168,-11,967,-17,21,0
3688,-168,-17,989,-18,-3,-4
3689,-58,-34,1000,-16,-25,-9
3690,102,-25,1003,-14,-28,-12
3691,173,-27,1010,-15,-10,-10
3692,111,-15,1009,-15,16,-2
3693,-23,-17,1009,-15,28,0
3694,-159,-7,972,-15,21,2
3695,-170,-25,987,-18,-1,-4
3696,-81,-32,996,-15,-23,-10
3697,83,-23,1007,-14,-28,-13
3698,168,-29,1006,-14,-13,-12
3699,126,-22,1000,-13,12,-3
3700,-3,-8,1006,-15,28,1
3701,-143,-10,988,-18,25,3
3702,-177,-20,987,-17,3,-4
3703,-102,-29,983,-18,-20,-8
3704,65,-20,1013,-14,-29,-12
3705,159,-28,1011,-14,-15,-11
3706,143,-20,1003,-13,9,-4
3707,18,-8,1001,-16,27,0
3708,-132,-10,990,-17,27,2
3709,-182,-27,992,-19,7,-3
3710,-118,-26,974,-17,-18,-8
3711,45,-25,1014,-15,-30,-11
3712,150,-29,1015,-14,-20,-12
3713,156,-19,1005,-17,-6,-9
3714,39,-8,994,-14,25,-1
3715,-122,-13,996,-19,29,3
3716,-183,-18,985,-16,10,-2
3717,-133,-26,983,-17,-14,-7
3718,29,-27,1011,-14,-30,-13
3719,127,-34,1012,-13,-19,-13
3720,169,-19,1002,-14,2,-8
3721,54,-12,1007,-14,24,1
3722,-98,-13,995,-16,29,3
3723,-186,-21,976,-18,12,0
3724,-141,-18,984,-17,-12,-5
3725,2,-33,1012,-17,-29,-11
3726,122,-33,1007,-14,-22,-13
3727,173,-19,1006,-13,-2,-8
3728,77,-11,1006,-14,24,-2
3729,-79,-16,1000,-15,30,2
3730,-178,-14,970,-18,14,-1
3731,-158,-20,984,-18,-8,-6
3732,-20,-34,1010,-15,-27,-13
3733,112,-31,1007,-14,-24,-14
3734,176,-20,1009,-12,-5,-10
3735,89,-10,1006,-14,19,-1
3736,-54,-16,1008,-16,30,1
3737,-174,-13,965,-18,19,1
3738,-168,-21,991,-19,-6,-4
3739,-46,-33,1000,-17,-28,-10
3740,101,-29,1004,-14,-26,-13
3741,174,-22,1007,-12,-10,-11
3742,102,-15,1014,-13,18,-2
3743,-28,-13,1006,-16,31,1
3744,-165,-9,973,-19,22,2
3745,-174,-20,984,-18,-2,-5
3746,-72,-36,997,-19,-24,-10
3747,90,-27,1009,-15,-29,-13
3748,172,-29,1002,-14,-11,-10
3749,123,-20,1006,-13,15,-2
3750,-10,-6,1009,-15,28,1
3751,-152,-4,984,-19,25,3
3752,-176,-23,982,-19,4,-3
3753,-98,-36,991,-17,-20,-9
3754,75,-26,1011,-14,-29,-14
3755,167,-34,1008,-13,-15,-12
3756,136,-23,1001,-12,11,-3
3757,9,-6,1002,-15,29,1
3758,-137,-7,998,-17,26,2
3759,-183,-20,982,-19,5,-3
3760,-113,-30,980,-18,-20,-9
3761,52,-26,1010,-14,-30,-13
3762,153,-33,1012,-14,-19,-13
3763,155,-29,1007,-14,8,-6
3764,31,-10,994,-13,27,0
3765,-121,-5,993,-17,27,2
3766,-187,-23,993,-18,9,-2
3767,-127,-23,978,-18,-16,-8
3768,36,-27,1012,-15,-29,-12
3769,138,-33,1010,-14,-19,-13
3770,164,-26,1006,-13,3,-8
3771,53,-10,995,-14,25,-2
3772,-107,-12,998,-16,29,3
3773,-185,-19,982,-18,12,-2
3774,-142,-22,981,-18,-13,-7
3775,15,-28,1013,-16,-31,-12
3776,128,-35,1010,-16,-21,-13
3777,174,-18,1002,-13,-1,-8
3778,69,-10,1007,-16,23,0
3779,-85,-14,999,-17,31,2
3780,-182,-16,970,-18,15,1
3781,-151,-20,985,-17,-10,-6
3782,-13,-33,1010,-15,-28,-11
3783,120,-31,1014,-13,-25,-14
3784,175,-21,1009,-13,-3,-8
3785,84,-9,1006,-12,22,0
3786,-63,-16,1004,-16,30,2
3787,-176,-13,972,-19,17,1
3788,-163,-18,984,-17,-7,-5
3789,-36,-36,1006,-16,-27,-12
3790,109,-30,1002,-14,-27,-13
3791,177,-23,1010,-12,-8,-9
3792,100,-16,1011,-14,17,-1
3793,-42,-14,1008,-15,30,1
3794,-165,-11,969,-18,21,1
3795,-175,-19,990,-17,-3,-5
3796,-57,-33,997,-16,-24,-11
3797,92,-27,1005,-14,-25,-12
3798,176,-25,1004,-13,-11,-11
3799,113,-18,1015,-15,16,-4
3800,-21,-10,1002,-15,29,1
3801,-160,-9,981,-18,23,1
3802,-179,-18,980,-18,0,-2
3803,-82,-35,994,-17,-21,-10
3804,83,-27,1011,-15,-27,-13
3805,167,-25,1001,-12,-13,-12
3806,133,-18,1005,-12,13,-5
3807,-3,-9,1008,-16,29,0
3808,-145,-6,985,-19,26,2
3809,-181,-24,989,-17,4,-3
3810,-106,-30,982,-17,-19,-9
3811,66,-24,1017,-15,-29,-12
3812,158,-33,1006,-14,-16,-12
3813,146,-22,1004,-13,10,-5
3814,19,-10,1001,-15,28,-1
3815,-136,-8,993,-16,27,4
3816,-178,-17,990,-18,6,-3
3817,-125,-32,979,-18,-17,-8
3818,48,-22,1006,-14,-31,-13
3819,148,-32,1021,-15,-19,-13
3820,159,-24,1003,-14,6,-5
3821,41,-12,995,-13,26,-1
3822,-120,-10,994,-17,29,1
3823,-185,-19,987,-18,9,-1
3824,-134,-21,982,-18,-16,-8
3825,28,-28,1009,-15,-30,-13
3826,138,-30,1011,-14,-21,-12
3827,165,-23,1002,-16,2,-5
3828,61,-11,1000,-14,24,0
3829,-103,-17,998,-16,30,4
3830,-182,-11,972,-18,13,-1
3831,-143,-20,985,-16,-12,-7
3832,4,-27,1012,-15,-30,-13
3833,121,-33,1009,-13,-22,-13
3834,174,-19,1007,-13,-2,-9
3835,75,-16,1004,-15,23,-2
3836,-78,-17,1002,-15,30,2
3837,-180,-16,971,-18,15,0
3838,-154,-19,983,-17,-8,-6
3839,-20,-34,1012,-15,-28,-10
3840,114,-28,1009,-16,-24,-13
3841,175,-22,1008,-14,-5,-10
3842,88,-11,1008,-13,20,-2
3843,-55,-17,1001,-14,29,3
3844,-173,-13,974,-17,19,0
3845,-164,-19,985,-20,-4,-4
3846,-43,-32,1003,-16,-26,-12
3847,108,-30,1005,-14,-28,-13
3848,174,-21,1007,-12,-10,-10
3849,104,-16,1012,-15,18,-3
3850,-38,-15,1010,-15,30,0
3851,-165,-11,968,-18,21,1
3852,-172,-18,989,-17,-3,-4
3853,-68,-33,997,-17,-24,-10
3854,93,-26,1006,-14,-26,-12
3855,173,-24,1005,-13,-11,-12
3856,117,-15,1010,-14,15,-3
3857,-16,-11,1008,-14,29,0
3858,-157,-10,975,-18,24,2
3859,-179,-21,984,-17,2,-3
3860,-88,-34,993,-18,-21,-10
3861,77,-24,1012,-15,-27,-12
3862,169,-27,1003,-12,-14,-11
3863,132,-19,1002,-14,11,-3
3864,3,-10,1008,-16,27,0
3865,-146,-5,990,-19,27,3
3866,-183,-23,984,-19,3,-3
3867,-107,-34,985,-18,-20,-10
3868,63,-23,1010,-14,-30,-13
3869,163,-30,1012,-12,-18,-13
3870,145,-22,1003,-13,7,-5
3871,23,-10,997,-15,27,1
3872,-133,-7,995,-17,30,2
3873,-184,-24,992,-18,8,-2
3874,-124,-24,980,-18,-16,-8
3875,48,-27,1011,-15,-30,-13
3876,148,-32,1017,-14,-18,-13
3877,161,-23,1004,-13,5,-5
3878,42,-12,995,-13,26,-1
3879,-118,-12,996,-16,28,2
3880,-188,-20,986,-18,10,-2
3881,-133,-23,985,-17,-13,-8
3882,26,-25,1009,-16,-29,-12
3883,136,-29,1010,-14,-21,-13
3884,172,-23,1004,-14,1,-7
3885,58,-10,1000,-14,25,0
3886,-101,-15,995,-17,31,2
3887,-184,-22,980,-17,13,-1
3888,-143,-17,978,-18,-12,-5
3889,4,-28,1010,-14,-30,-13
3890,125,-31,1013,-15,-24,-13
3891,176,-17,1004,-13,-1,-7
3892,73,-14,1002,-16,23,-1
3893,-79,-17,1007,-17,29,3
3894,-182,-20,969,-19,15,-1
3895,-156,-19,982,-17,-9,-6
3896,-17,-35,1014,-16,-28,-12
3897,116,-27,1003,-13,-24,-14
3898,178,-21,1010,-12,-5,-8
3899,90,-12,1009,-13,20,-2
3900,-60,-16,1002,-16,30,2
3901,-174,-13,969,-18,18,0
3902,-167,-20,993,-18,-5,-5
3903,-43,-33,998,-14,-26,-12
3904,106,-28,1008,-13,-26,-13
3905,176,-23,1008,-12,-8,-11
3906,103,-12,1010,-13,19,-1
3907,-35,-16,1011,-16,30,1
3908,-170,-10,969,-17,22,1
3909,-174,-19,988,-18,-2,-5
3910,-68,-32,1000,-16,-25,-11
3911,95,-24,1004,-13,-27,-12
3912,178,-28,1006,-14,-12,-12
3913,112,-16,1009,-13,16,-2
3914,-14,-12,1007,-15,28,0
3915,-162,-11,977,-19,24,2
3916,-177,-17,984,-15,1,-4
3917,-89,-34,994,-16,-23,-11
3918,84,-24,1011,-16,-28,-13
3919,169,-29,1005,-13,-14,-12
3920,132,-21,1002,-13,12,-4
3921,2,-10,1008,-14,28,0
3922,-147,-3,991,-17,27,1
3923,-179,-24,984,-18,4,-3
3924,-110,-33,984,-16,-19,-10
3925,64,-25,1011,-13,-30,-12
3926,162,-30,1014,-14,-18,-12
3927,148,-22,1001,-13,7,-4
3928,19,-8,999,-15,28,1
3929,-133,-8,997,-17,27,2
3930,-185,-22,988,-18,6,-2
3931,-122,-28,979,-19,-19,-8
3932,45,-25,1011,-14,-31,-12
3933,147,-31,1017,-15,-19,-13
3934,162,-22,1006,-13,5,-7
3935,42,-7,997,-15,25,-1
3936,-117,-8,991,-16,28,3
3937,-190,-20,986,-18,11,-1
3938,-135,-20,984,-18,-14,-7
3939,27,-27,1010,-16,-30,-13
3940,136,-30,1011,-14,-20,-13
3941,170,-24,1002,-13,3,-7
3942,62,-11,1000,-13,25,-2
3943,-101,-15,998,-16,31,3
3944,-185,-17,975,-17,13,-1
3945,-147,-21,984,-18,-12,-7
3946,2,-30,1013,-16,-30,-12
3947,125,-34,1006,-13,-24,-12
3948,176,-21,1007,-13,-1,-8
3949,76,-12,1004,-15,22,-1
3950,-80,-15,1002,-16,31,2
3951,-185,-13,971,-18,16,0
3952,-158,-16,983,-17,-9,-5
3953,-18,-35,1010,-16,-29,-11
3954,115,-32,1011,-14,-25,-13
3955,182,-20,1008,-14,-4,-9
3956,89,-14,1009,-15,22,-2
3957,-61,-15,1003,-15,30,2
3958,-174,-12,971,-19,18,0
3959,-169,-20,987,-18,-4,-5
3960,-40,-34,1003,-17,-27,-10
3961,106,-30,1007,-14,-27,-13
3962,181,-23,1007,-13,-9,-12
3963,102,-14,1013,-14,19,-2
3964,-39,-16,1007,-16,31,1
3965,-167,-12,970,-18,23,2
3966,-176,-18,988,-18,-3,-3
3967,-64,-35,995,-16,-26,-11
3968,94,-26,1009,-14,-28,-13
3969,176,-24,1004,-12,-10,-12
3970,115,-18,1015,-13,16,-4
3971,-16,-14,1006,-15,29,1
3972,-161,-9,975,-18,25,3
3973,-175,-22,986,-18,1,-3
3974,-91,-34,994,-17,-23,-9
3975,82,-24,1012,-15,-30,-14
3976,166,-30,1004,-13,-13,-11
3977,135,-19,1004,-12,12,-2
3978,0,-13,1007,-15,29,0
3979,-146,-6,990,-16,25,2
3980,-182,-23,983,-18,2,-3
3981,-108,-28,985,-16,-20,-10
3982,65,-25,1014,-15,-31,-15
3983,162,-31,1012,-15,-16,-13
3984,146,-22,1001,-13,8,-5
3985,22,-8,1001,-14,28,0
3986,-132,-11,994,-16,28,4
3987,-184,-20,990,-18,5,-2
3988,-127,-30,978,-17,-18,-8
3989,49,-26,1012,-13,-31,-13
3990,148,-32,1015,-13,-18,-13
3991,158,-22,1005,-13,5,-6
3992,40,-7,995,-14,25,0
3993,-124,-12,992,-17,30,4
3994,-188,-20,990,-18,10,-1
3995,-135,-29,980,-20,-14,-7
3996,29,-26,1007,-16,-29,-12
3997,139,-30,1014,-12,-22,-12
3998,173,-18,1004,-11,2,-6
3999,59,-12,997,-16,24,1
4000,-105,-12,1002,-16,30,2
4001,-186,-20,974,-19,14,0
4002,-146,-22,982,-17,-13,-6
4003,8,-29,1017,-15,-30,-11
4004,125,-29,1009,-13,-23,-13
4005,175,-19,1004,-13,-2,-8
4006,77,-12,1005,-15,24,-1
4007,-85,-16,1004,-17,30,3
4008,-183,-14,964,-18,15,1
4009,-158,-20,985,-17,-10,-6
4010,-17,-36,1009,-16,-30,-12
4011,121,-31,1010,-12,-24,-13
4012,178,-21,1008,-13,-4,-8
4013,86,-8,1006,-13,22,0
4014,-63,-17,1005,-17,30,3
4015,-176,-11,968,-18,18,1
4016,-164,-20,987,-18,-6,-5
4017,-41,-33,1004,-17,-27,-10
4018,108,-28,1003,-13,-26,-12
4019,181,-21,1013,-12,-8,-11
4020,98,-12,1009,-15,19,-1
4021,-39,-16,1006,-16,31,3
4022,-167,-14,971,-19,20,2
4023,-173,-20,986,-18,-4,-4
4024,-60,-33,1000,-16,-26,-12
4025,94,-27,1003,-14,-27,-12
4026,178,-25,1005,-12,-10,-10
4027,116,-16,1012,-14,17,-2
4028,-20,-12,1006,-16,31,0
4029,-159,-9,977,-17,23,1
4030,-179,-22,982,-16,0,-3
4031,-84,-30,996,-16,-24,-10
4032,85,-27,1009,-14,-28,-13
4033,166,-22,1005,-12,-13,-10
4034,132,-19,1003,-13,12,-4
4035,-4,-12,1011,-14,29,0
4036,-147,-11,985,-20,26,3
4037,-178,-24,985,-17,4,-4
4038,-103,-34,986,-15,-20,-9
4039,70,-20,1012,-13,-30,-13
4040,162,-30,1007,-14,-15,-12
4041,142,-21,1005,-12,9,-6
4042,18,-7,1001,-17,28,0
4043,-134,-7,991,-18,27,2
4044,-183,-25,991,-18,7,-3
4045,-122,-30,978,-17,-17,-7
4046,52,-25,1010,-12,-30,-12
4047,153,-29,1019,-13,-17,-13
4048,153,-18,1003,-13,7,-7
4049,40,-11,993,-13,26,-1
4050,-124,-8,992,-17,28,4
4051,-186,-24,990,-18,8,-2
4052,-130,-29,986,-18,-16,-8
4053,30,-25,1009,-17,-30,-12
4054,139,-28,1011,-12,-25,-14
4055,170,-18,1006,-13,3,-7
4056,53,-10,997,-18,25,1
4057,-101,-12,997,-15,28,1
4058,-189,-21,977,-17,12,-1
4059,-142,-23,985,-18,-12,-6
4060,8,-34,1014,-16,-30,-11
4061,127,-34,1008,-14,-23,-13
4062,175,-17,1005,-12,-2,-9
4063,71,-8,1002,-14,23,-1
4064,-85,-15,1004,-17,31,2
4065,-183,-14,971,-18,14,0
4066,-153,-23,977,-18,-10,-6
4067,-11,-33,1015,-15,-29,-12
4068,115,-31,1010,-14,-24,-13
4069,178,-19,1005,-14,-5,-10
4070,86,-15,1007,-13,21,-2
4071,-63,-12,1003,-16,31,1
4072,-174,-13,969,-19,18,0
4073,-164,-14,990,-17,-5,-6
4074,-36,-38,1004,-17,-27,-12
4075,109,-28,1003,-15,-26,-14
4076,176,-23,1014,-13,-7,-9
4077,100,-12,1007,-15,19,-1
4078,-41,-19,1009,-17,30,1
4079,-167,-11,968,-18,22,1
4080,-171,-15,990,-18,-3,-4
4081,-60,-32,998,-17,-24,-11
4082,94,-25,1007,-14,-27,-13
4083,177,-24,1005,-14,-11,-11
4084,114,-16,1013,-14,17,-2
4085,-19,-14,1008,-16,29,1
4086,-163,-11,972,-17,24,2
4087,-175,-18,988,-17,1,-4
4088,-86,-34,994,-17,-21,-10
4089,84,-21,1014,-14,-29,-14
4090,168,-30,1003,-15,-13,-12
4091,128,-18,1006,-12,14,-5
4092,0,-13,1011,-16,30,1
4093,-153,-9,984,-18,25,2
4094,-175,-21,984,-17,2,-4
4095,-108,-34,989,-16,-20,-9
4096,69,-20,1007,-15,-30,-13
4097,164,-31,1013,-14,-15,-12
4098,143,-21,1000,-13,11,-4
4099,18,-12,1002,-16,29,1
4100,-136,-9,995,-18,28,2
4101,-185,-23,990,-20,7,-2
4102,-122,-28,978,-15,-18,-10
4103,47,-23,1008,-13,-30,-12
4104,155,-28,1016,-17,-18,-12
4105,159,-27,1007,-15,7,-6
4106,38,-10,990,-14,28,1
4107,-123,-10,996,-16,28,2
4108,-189,-22,989,-19,10,-2
4109,-132,-26,982,-18,-15,-8
4110,33,-27,1008,-14,-30,-13
4111,139,-28,1012,-13,-21,-14
4112,168,-20,1004,-13,3,-5
4113,54,-12,1000,-14,24,0
4114,-104,-13,998,-17,31,3
4115,-190,-23,980,-18,12,-1
4116,-142,-22,983,-18,-14,-8
4117,10,-31,1012,-15,-29,-13
4118,126,-27,1011,-12,-22,-12
4119,177,-21,1005,-14,-1,-9
4120,69,-10,1001,-14,25,-1
4121,-84,-18,1004,-16,31,3
4122,-183,-16,970,-18,14,-1
4123,-153,-23,982,-16,-10,-6
4124,-12,-30,1013,-14,-29,-12
4125,117,-31,1012,-12,-24,-14
4126,181,-19,1005,-13,-5,-9
4127,86,-13,1008,-15,22,0
4128,-64,-18,1003,-16,30,3
4129,-176,-13,970,-18,17,0
4130,-165,-19,987,-19,-7,-5
4131,-39,-33,1007,-16,-26,-11
4132,110,-29,1005,-14,-26,-14
4133,174,-20,1007,-12,-7,-10
4134,99,-12,1009,-15,19,-2
4135,-42,-16,1009,-17,31,2
4136,-170,-11,965,-18,21,1
4137,-172,-17,992,-18,-3,-4
4138,-58,-31,997,-16,-26,-11
4139,97,-29,1007,-13,-29,-13
4140,176,-24,1005,-11,-11,-11
4141,112,-16,1015,-14,17,-2
4142,-20,-12,1008,-16,29,0
4143,-162,-10,975,-19,23,2
4144,-174,-21,984,-16,-1,-5
4145,-84,-35,997,-16,-23,-10
4146,86,-26,1009,-14,-29,-14
4147,174,-28,1006,-14,-13,-13
4148,125,-17,1005,-12,13,-3
4149,-1,-9,1010,-16,27,0
4150,-151,-7,987,-17,25,2
4151,-183,-21,983,-17,3,-3
4152,-99,-33,987,-17,-20,-9
4153,70,-25,1011,-14,-28,-12
4154,162,-28,1006,-14,-16,-11
4155,142,-23,1004,-14,9,-3
4156,13,-8,998,-15,29,0
4157,-136,-5,993,-18,28,3
4158,-183,-23,990,-18,6,-2
4159,-116,-28,975,-16,-19,-9
4160,53,-24,1010,-14,-31,-12
4161,152,-29,1018,-13,-17,-13
4162,154,-23,1009,-14,6,-6
4163,33,-7,989,-14,25,1
4164,-122,-8,998,-16,29,3
4165,-187,-22,988,-18,8,-1
4166,-130,-27,982,-17,-16,-7
4167,34,-27,1008,-15,-30,-11
4168,138,-29,1013,-13,-19,-13
4169,166,-22,1002,-13,3,-6
4170,52,-6,997,-13,25,0
4171,-106,-13,998,-16,30,2
4172,-186,-14,978,-17,13,-1
4173,-142,-21,986,-18,-12,-7
4174,12,-29,1010,-16,-29,-12
4175,124,-36,1012,-14,-23,-13
4176,174,-21,1004,-13,-1,-8
4177,69,-12,1004,-15,24,-1
4178,-85,-11,1000,-16,30,1
4179,-188,-16,971,-19,16,-1
4180,-154,-14,979,-18,-10,-5
4181,-11,-34,1013,-17,-29,-12
4182,119,-32,1008,-15,-24,-13
4183,178,-21,1007,-13,-3,-8
4184,83,-14,1006,-13,22,-2
4185,-69,-15,1004,-16,30,2
4186,-178,-12,964,-18,17,1
4187,-165,-19,989,-18,-7,-6
4188,-30,-33,1006,-17,-26,-12
4189,109,-29,1011,-15,-24,-13
4190,177,-23,1006,-15,-7,-9
4191,96,-16,1010,-15,20,-3
4192,-44,-19,1004,-17,31,1
4193,-172,-9,971,-17,21,1
4194,-169,-18,991,-17,-3,-5
4195,-57,-31,996,-17,-25,-10
4196,100,-29,1007,-14,-28,-13
4197,176,-24,1007,-12,-11,-10
4198,112,-16,1012,-14,16,-2
4199,-26,-13,1008,-16,29,1
4200,-164,-14,973,-16,24,1
4201,-174,-18,985,-18,-1,-3
4202,-77,-31,997,-17,-25,-10
4203,90,-26,1007,-15,-28,-13
4204,175,-28,1006,-15,-12,-10
4205,124,-19,1002,-13,14,-3
4206,-9,-10,1013,-15,29,1
4207,-155,-9,981,-18,25,2
4208,-187,-21,983,-18,3,-3
4209,-94,-35,994,-17,-22,-9
4210,73,-20,1012,-14,-29,-12
4211,168,-26,1006,-16,-17,-13
4212,140,-23,1003,-15,10,-5
4213,9,-11,1003,-16,29,1
4214,-140,-10,990,-18,27,3
4215,-185,-26,986,-16,5,-1
4216,-114,-28,980,-15,-20,-8
4217,59,-22,1012,-14,-30,-12
4218,155,-30,1012,-15,-16,-12
4219,155,-23,1004,-13,7,-5
4220,27,-10,995,-15,29,0
4221,-125,-8,994,-16,28,3
4222,-187,-23,991,-18,8,-1
4223,-127,-26,976,-17,-16,-8
4224,40,-25,1014,-14,-29,-12
4225,146,-30,1014,-13,-20,-13
4226,165,-22,1006,-13,4,-7
4227,46,-10,994,-14,24,-1
4228,-116,-11,993,-17,28,2
4229,-186,-20,986,-19,11,-1
4230,-138,-26,985,-18,-14,-7
4231,18,-28,1007,-14,-31,-12
4232,131,-30,1012,-13,-23,-14
4233,172,-16,1005,-11,0,-8
4234,62,-10,1002,-17,25,0
4235,-97,-18,998,-17,31,3
4236,-184,-16,979,-18,14,-1
4237,-147,-20,981,-17,-11,-6
4238,-1,-32,1011,-16,-30,-13
4239,124,-32,1011,-13,-23,-14
4240,178,-20,1003,-15,0,-7
4241,78,-11,1005,-13,24,0
4242,-77,-15,1004,-15,30,2
4243,-180,-14,967,-19,16,0
4244,-160,-19,986,-17,-8,-6
4245,-22,-37,1010,-15,-27,-11
4246,114,-29,1007,-14,-24,-13
4247,179,-16,1009,-13,-4,-9
4248,94,-11,1008,-14,21,-2
4249,-58,-16,1003,-16,31,1
4250,-173,-14,968,-19,19,1
4251,-168,-20,990,-18,-5,-6
4252,-48,-36,1003,-17,-26,-11
4253,107,-28,1003,-14,-26,-13
4254,178,-22,1010,-12,-9,-10
4255,107,-14,1010,-13,18,-3
4256,-37,-19,1008,-15,32,0
4257,-168,-13,968,-18,22,1
4258,-176,-20,989,-17,-3,-4
4259,-66,-32,998,-16,-25,-11
4260,94,-29,1005,-14,-28,-13
4261,179,-25,1004,-12,-11,-10
4262,115,-18,1012,-13,14,-2
4263,-15,-12,1008,-13,29,2
4264,-159,-11,977,-18,23,4
4265,-183,-20,983,-16,-1,-3
4266,-88,-34,997,-17,-23,-10
4267,82,-26,1010,-14,-29,-14
4268,176,-29,1004,-11,-14,-12
4269,132,-17,1007,-12,13,-4
4270,1,-7,1008,-15,28,1
4271,-151,-8,986,-19,26,4
4272,-184,-22,983,-19,3,-3
4273,-110,-37,987,-16,-21,-10
4274,68,-21,1010,-15,-31,-13
4275,164,-31,1011,-13,-16,-13
4276,145,-22,1003,-14,10,-4
4277,20,-11,998,-16,27,1
4278,-137,-6,996,-17,27,3
4279,-185,-22,987,-19,7,-2
4280,-125,-25,979,-18,-18,-9
4281,51,-25,1006,-13,-31,-13
4282,154,-30,1014,-14,-19,-12
4283,160,-24,1004,-14,6,-6
4284,41,-11,997,-13,27,0
4285,-123,-7,992,-17,29,3
4286,-186,-20,990,-18,8,-3
4287,-138,-23,982,-17,-16,-8
4288,31,-27,1009,-15,-31,-13
4289,142,-34,1016,-14,-20,-13
4290,169,-20,1002,-12,2,-7
4291,56,-12,1000,-15,25,-1
4292,-106,-9,997,-17,29,2
4293,-191,-19,981,-19,14,1
4294,-143,-20,985,-18,-12,-7
4295,13,-28,1011,-16,-30,-12
4296,130,-31,1013,-14,-22,-13
4297,177,-24,1003,-13,-1,-7
4298,69,-12,1002,-14,24,0
4299,-88,-19,1005,-16,32,3
4300,-185,-17,970,-17,15,0
4301,-155,-18,982,-16,-9,-5
4302,-10,-30,1012,-16,-29,-12
4303,120,-30,1011,-12,-23,-13
4304,180,-16,1004,-14,-4,-8
4305,84,-14,1007,-15,22,-1
4306,-70,-17,1003,-16,31,2
4307,-179,-16,969,-17,18,1
4308,-162,-18,983,-18,-7,-6
4309,-33,-33,1006,-16,-28,-11
4310,115,-28,1009,-15,-27,-13
4311,179,-16,1006,-14,-7,-9
4312,98,-10,1010,-15,19,-3
4313,-49,-16,1007,-17,30,2
4314,-176,-13,966,-18,20,1
4315,-171,-20,992,-17,-4,-5
4316,-53,-34,1001,-15,-27,-9
4317,103,-30,1002,-13,-28,-12
4318,182,-21,1013,-11,-9,-11
4319,109,-12,1011,-13,19,-1
4320,-30,-14,1011,-15,30,1
4321,-169,-9,969,-17,21,1
4322,-179,-22,987,-18,-2,-4
4323,-69,-33,998,-16,-24,-11
4324,92,-26,1007,-14,-28,-14
4325,178,-28,1007,-14,-12,-12
4326,125,-15,1009,-14,14,-3
