sequence,AccelerometerX,AccelerometerY,AccelerometerZ,GyroscopeX,GyroscopeY,GyroscopeZ
0,52,-8,1111,6,-59,18
1,263,17,1103,14,-40,15
2,274,33,1035,9,-1,3
3,56,-11,932,-35,41,1
4,-226,-70,845,-29,46,-2
5,-308,-68,900,-12,0,-4
6,-106,-31,1044,1,-46,12
7,186,1,1129,7,-56,19
8,303,29,1076,14,-21,7
9,171,24,999,2,22,-1
10,-80,-52,855,-36,48,-3
11,-309,-65,864,-11,28,-5
12,-236,-53,973,-8,-24,4
13,60,-16,1106,1,-59,16
14,263,16,1106,15,-38,15
15,269,44,1041,12,0,2
16,52,-13,923,-25,40,-2
17,-226,-72,844,-26,44,-4
18,-308,-62,906,-7,2,-2
19,-94,-35,1044,-2,-47,12
20,192,-2,1131,7,-54,20
21,301,32,1069,21,-18,7
22,172,29,1002,-2,21,0
23,-88,-65,845,-38,49,-1
24,-312,-58,871,-8,26,-3
25,-235,-58,975,-10,-26,2
26,67,-23,1108,1,-59,17
27,265,23,1105,15,-37,16
28,271,41,1038,12,1,1
29,46,-22,919,-26,39,-3
30,-232,-66,846,-18,45,-3
31,-306,-63,903,-12,0,-1
32,-91,-38,1047,-1,-47,12
33,190,2,1129,7,-54,19
34,300,38,1078,21,-19,7
35,169,20,991,-7,23,-1
36,-93,-55,849,-31,50,-3
37,-309,-61,870,-11,26,-3
38,-230,-60,977,-8,-25,3
39,64,-15,1110,2,-59,18
40,271,24,1104,16,-38,14
41,268,40,1040,12,1,1
42,40,-19,916,-26,41,-2
43,-235,-60,849,-19,44,-5
44,-306,-64,905,-14,0,-1
45,-90,-40,1043,0,-47,12
46,195,8,1137,10,-53,19
47,303,31,1070,14,-20,8
48,163,16,990,-4,23,-2
49,-93,-53,850,-29,48,-3
50,-311,-63,875,-12,26,-5
51,-227,-68,966,-8,-26,4
52,73,-2,1123,9,-59,18
53,272,15,1100,11,-36,14
54,267,37,1032,14,2,1
55,33,-10,922,-22,42,-2
56,-236,-69,837,-25,43,-4
57,-302,-64,905,-10,-1,-3
58,-83,-35,1052,-2,-48,11
59,201,6,1143,7,-54,19
60,299,29,1061,15,-19,7
61,159,22,986,-3,24,-2
62,-103,-52,858,-34,48,-4
63,-312,-75,862,-14,24,-5
64,-227,-53,991,-2,-27,5
65,81,-14,1108,1,-59,19
66,272,21,1110,17,-36,13
67,266,37,1023,11,3,1
68,30,-12,921,-22,41,-4
69,-243,-72,840,-24,43,-4
70,-300,-61,910,-5,0,-2
71,-80,-33,1059,-3,-49,12
72,208,2,1130,9,-52,20
73,295,37,1075,15,-16,8
74,155,23,982,-5,26,-2
75,-110,-57,851,-33,49,-4
76,-313,-69,864,-12,24,-3
77,-220,-54,983,-4,-28,6
78,88,-11,1124,3,-60,18
79,277,14,1092,15,-36,14
80,256,47,1037,15,6,2
81,27,-22,914,-29,41,-2
82,-246,-73,829,-20,43,-4
83,-301,-52,925,-7,-2,-2
84,-66,-40,1049,-3,-50,12
85,204,6,1141,9,-51,20
86,300,35,1060,17,-16,6
87,152,21,988,-7,26,-2
88,-119,-62,843,-33,48,-4
89,-313,-61,870,-8,24,-4
90,-219,-56,999,-6,-28,4
91,98,-23,1104,2,-59,18
92,276,30,1112,23,-34,14
93,257,43,1034,8,4,0
94,20,-32,897,-29,43,-1
95,-259,-56,854,-15,43,-4
96,-290,-67,900,-14,-3,-1
97,-74,-29,1067,1,-50,13
98,214,3,1129,8,-52,19
99,302,33,1065,18,-16,6
100,143,21,990,-8,26,-2
101,-116,-61,835,-34,48,-3
102,-314,-58,885,-8,23,-4
103,-214,-68,988,-12,-30,5
104,100,-9,1116,6,-59,20
105,280,25,1113,16,-34,13
106,260,30,1017,7,5,1
107,12,-19,908,-22,43,-2
108,-257,-63,841,-23,41,-4
109,-286,-70,911,-9,-4,-2
110,-65,-27,1067,0,-50,13
111,221,8,1128,11,-51,19
112,294,38,1073,17,-15,7
113,139,17,973,-9,28,0
114,-126,-55,844,-32,49,-3
115,-315,-68,876,-13,23,-5
116,-207,-62,993,-8,-30,6
117,107,-8,1122,7,-59,19
118,287,17,1107,13,-35,11
119,252,35,1021,9,7,1
120,6,-14,910,-24,43,-1
121,-264,-73,831,-24,41,-4
122,-290,-66,920,-7,-5,-1
123,-59,-30,1067,-1,-53,12
124,227,2,1139,11,-50,18
125,300,35,1064,15,-15,6
126,141,20,971,-8,28,-2
127,-141,-55,842,-34,48,-4
128,-319,-72,879,-11,23,-6
129,-204,-56,996,-3,-32,5
130,109,-11,1118,6,-59,19
131,288,12,1100,13,-33,14
132,244,44,1027,13,8,1
133,2,-15,906,-28,43,-3
134,-267,-73,823,-23,42,-3
135,-291,-56,929,-7,-7,-1
136,-44,-33,1057,-4,-54,13
137,229,3,1145,12,-49,19
138,295,38,1063,16,-14,6
139,138,23,976,-8,29,-1
140,-149,-63,835,-37,49,-3
141,-318,-62,877,-7,22,-4
142,-200,-55,1002,-7,-35,6
143,123,-21,1114,5,-60,19
144,290,24,1107,18,-33,13
145,253,43,1024,8,9,0
146,-4,-29,897,-31,44,-2
147,-280,-62,836,-16,42,-3
148,-284,-61,925,-7,-7,-1
149,-48,-36,1073,-2,-53,13
150,232,4,1137,12,-50,18
151,299,42,1061,17,-13,5
152,135,10,971,-12,29,-3
153,-154,-60,836,-30,49,-3
154,-319,-62,879,-9,21,-5
155,-194,-60,999,-7,-35,6
156,125,-11,1119,6,-58,18
157,295,28,1105,17,-33,11
158,242,41,1029,7,10,0
159,-14,-29,889,-33,45,-2
160,-283,-62,831,-17,41,-3
161,-282,-65,931,-11,-9,-1
162,-39,-40,1068,-1,-54,13
163,237,5,1147,13,-49,18
164,302,37,1056,14,-14,4
165,130,12,965,-10,30,-2
166,-161,-53,835,-30,49,-4
167,-321,-64,876,-10,19,-3
168,-192,-55,1007,-7,-35,7
169,130,-8,1124,8,-58,18
170,296,23,1105,14,-32,13
171,240,34,1020,7,10,-1
172,-14,-23,894,-29,44,-3
173,-282,-63,830,-21,40,-4
174,-278,-64,927,-8,-10,0
175,-34,-32,1074,1,-54,14
176,248,3,1147,14,-49,18
177,301,31,1058,13,-11,5
178,127,13,970,-8,31,-1
179,-171,-55,836,-31,48,-3
180,-322,-69,868,-11,18,-4
181,-190,-47,1011,-4,-36,8
182,137,-10,1121,6,-58,19
183,301,25,1110,16,-33,11
184,235,37,1020,6,12,0
185,-18,-21,893,-29,43,-3
186,-293,-68,825,-20,40,-4
187,-283,-61,935,-8,-11,1
188,-28,-29,1075,1,-54,14
189,247,5,1149,12,-48,18
190,299,32,1049,14,-10,5
191,121,16,973,-8,31,-2
192,-175,-61,832,-33,48,-5
193,-324,-61,882,-7,16,-3
194,-183,-47,1001,-8,-38,7
195,143,-8,1130,9,-57,18
196,299,20,1096,12,-29,11
197,233,39,1026,13,13,0
198,-25,-32,889,-35,43,-2
199,-297,-65,822,-14,39,-4
200,-275,-58,938,-10,-14,1
201,-18,-30,1084,2,-54,14
202,246,1,1139,11,-47,16
203,301,41,1057,20,-9,3
204,119,8,969,-14,33,-2
205,-185,-66,820,-33,49,-4
206,-327,-56,892,-5,14,-5
207,-177,-55,1000,-10,-39,9
208,145,-6,1131,12,-58,19
209,303,23,1098,15,-30,10
210,235,39,1028,10,12,0
211,-29,-35,875,-37,44,-2
212,-299,-60,836,-11,39,-5
213,-274,-65,934,-12,-15,0
214,-18,-29,1086,4,-56,15
215,251,3,1137,13,-47,19
216,303,37,1055,17,-8,5
217,115,7,971,-15,32,-2
218,-187,-59,827,-28,48,-3
219,-329,-54,886,-8,13,-4
220,-174,-53,1000,-9,-40,8
221,150,-1,1132,10,-57,20
222,303,26,1103,14,-29,10
223,230,26,1025,7,13,-1
224,-32,-34,881,-30,45,-3
225,-299,-62,833,-13,37,-4
226,-270,-70,937,-10,-16,2
227,-11,-28,1085,7,-55,16
228,252,8,1141,14,-47,18
229,300,34,1054,16,-8,3
230,109,7,960,-14,33,-2
231,-193,-52,832,-26,48,-2
232,-327,-64,884,-10,12,-4
233,-175,-45,1006,-4,-41,8
234,157,0,1133,9,-60,19
235,310,20,1097,11,-30,11
236,227,27,1024,9,14,0
237,-30,-33,883,-33,43,-2
238,-302,-72,831,-16,37,-5
239,-269,-64,936,-8,-16,1
240,-7,-23,1084,7,-55,15
241,249,2,1140,11,-47,17
242,297,36,1052,19,-6,4
243,106,13,967,-12,32,-1
244,-196,-60,823,-29,49,-4
245,-324,-60,882,-10,11,-3
246,-168,-40,1010,-5,-42,9
247,158,-6,1135,7,-60,18
248,306,16,1092,13,-28,10
249,225,36,1033,13,14,-1
250,-33,-39,872,-37,44,-1
251,-304,-70,831,-11,37,-5
252,-271,-58,938,-9,-18,0
253,1,-21,1101,5,-55,15
254,254,0,1122,7,-46,18
255,293,41,1061,24,-6,4
256,109,0,959,-20,33,-3
257,-197,-61,823,-24,49,-3
258,-327,-59,883,-7,11,-3
259,-158,-42,1006,-3,-41,9
260,157,-1,1132,6,-58,19
261,304,23,1091,15,-28,11
262,222,33,1032,9,16,-1
263,-44,-42,872,-37,46,-3
264,-303,-66,835,-11,36,-4
265,-268,-56,941,-10,-19,3
266,6,-30,1101,3,-56,15
267,256,5,1134,11,-47,17
268,300,39,1056,21,-6,3
269,104,-3,953,-23,34,-2
270,-196,-65,823,-23,50,-4
271,-324,-57,881,-7,10,-2
272,-159,-46,1013,-4,-41,8
273,159,0,1137,10,-58,18
274,301,34,1099,17,-27,11
275,216,26,1023,0,15,0
276,-43,-38,862,-31,46,-4
277,-303,-55,840,-13,35,-5
278,-260,-67,935,-14,-20,3
279,5,-22,1093,7,-55,16
280,255,10,1136,11,-46,17
281,299,35,1060,17,-4,3
282,93,-4,949,-21,34,-2
283,-201,-56,830,-19,48,-5
284,-320,-64,877,-12,9,-3
285,-156,-43,1011,-3,-41,10
286,159,1,1143,10,-57,19
287,303,25,1102,14,-25,9
288,208,26,1029,4,17,0
289,-47,-37,854,-33,45,-2
290,-307,-59,835,-10,34,-5
291,-260,-64,940,-13,-20,3
292,12,-14,1095,6,-57,17
293,253,17,1138,10,-44,16
294,299,32,1049,13,-4,2
295,95,1,952,-20,35,-1
296,-202,-62,824,-27,48,-3
297,-319,-70,884,-12,7,-2
298,-150,-44,1022,-1,-42,9
299,171,-5,1140,7,-57,19
300,307,18,1089,13,-24,9
301,209,26,1022,6,17,0
302,-45,-42,861,-33,46,-2
303,-304,-70,837,-12,36,-4
304,-261,-59,946,-9,-20,2
305,16,-14,1104,6,-55,15
306,250,12,1135,8,-44,16
307,289,33,1045,18,-2,2
308,86,2,954,-19,35,-4
309,-207,-69,825,-29,48,-5
310,-319,-63,881,-10,7,-1
311,-144,-36,1023,-3,-42,9
312,169,-2,1144,6,-57,19
313,304,24,1090,16,-24,10
314,206,34,1028,7,17,-2
315,-52,-44,855,-36,47,-2
316,-309,-62,840,-9,34,-5
317,-264,-51,947,-11,-20,2
318,21,-17,1102,3,-57,16
319,249,15,1127,9,-44,16
320,292,39,1053,16,-4,3
321,93,-7,945,-23,35,-1
322,-207,-65,825,-26,48,-4
323,-314,-62,884,-13,6,-2
324,-140,-44,1024,-4,-41,10
325,165,-7,1140,4,-55,19
326,307,28,1097,19,-24,9
327,202,27,1024,1,18,-1
328,-54,-52,847,-37,46,-2
329,-299,-58,848,-5,32,-4
330,-254,-61,946,-12,-20,2
331,23,-20,1109,4,-56,17
332,251,12,1126,10,-43,17
333,287,39,1057,17,-3,3
334,84,-9,937,-23,36,-2
335,-211,-62,830,-21,48,-3
336,-318,-59,889,-14,5,-2
337,-136,-43,1023,-4,-43,11
338,167,4,1142,7,-56,21
339,308,30,1091,16,-23,8
340,202,21,1022,0,17,-2
341,-55,-45,851,-33,48,-4
342,-303,-55,854,-12,32,-5
343,-255,-66,943,-12,-21,3
344,21,-13,1105,7,-57,17
345,253,20,1130,9,-43,16
346,292,29,1049,10,-3,3
347,79,-2,939,-22,36,-2
348,-203,-60,833,-20,47,-4
349,-315,-69,876,-17,6,-3
350,-136,-36,1034,1,-42,10
351,173,-1,1138,3,-58,19
352,298,29,1100,17,-23,8
353,196,20,1009,-2,18,-2
354,-56,-43,852,-31,46,-2
355,-305,-62,852,-11,31,-4
356,-249,-69,942,-16,-22,4
357,28,-11,1116,9,-57,16
358,258,9,1122,4,-42,15
359,290,30,1044,18,-2,3
360,78,0,947,-20,36,-1
361,-210,-68,822,-23,48,-4
362,-319,-63,893,-12,6,-3
363,-129,-38,1024,0,-43,10
364,171,5,1137,5,-56,20
365,298,27,1093,14,-23,8
366,201,23,1013,1,16,-2
367,-62,-42,863,-32,48,-4
368,-303,-75,838,-14,31,-5
369,-252,-56,950,-5,-21,3
370,27,-11,1111,4,-56,15
371,256,11,1115,7,-41,17
372,281,45,1058,22,-2,2
373,78,-7,938,-24,36,-2
374,-207,-69,822,-24,47,-5
375,-319,-55,898,-10,4,-1
376,-122,-40,1020,-4,-43,12
377,167,5,1149,5,-55,19
378,302,27,1083,15,-23,9
379,195,28,1014,1,18,-1
380,-62,-52,855,-35,47,-4
381,-304,-70,841,-9,31,-5
382,-250,-53,963,-9,-22,3
383,37,-24,1103,0,-58,17
384,255,17,1119,14,-42,17
385,282,42,1054,16,-2,2
386,75,-16,932,-27,36,-3
387,-214,-65,831,-18,48,-4
388,-312,-62,893,-12,3,-1
389,-120,-44,1025,-2,-45,11
390,173,4,1147,6,-55,19
391,305,22,1078,16,-21,8
392,192,23,1021,1,20,-1
393,-64,-53,845,-33,49,-3
394,-308,-59,849,-9,30,-3
395,-253,-58,960,-10,-22,2
396,35,-16,1103,5,-57,17
397,254,24,1123,13,-41,15
398,284,40,1049,12,-3,2
399,72,-12,929,-24,36,-3
400,-214,-62,840,-20,47,-6
401,-315,-67,892,-13,3,-3
402,-123,-43,1026,-1,-43,10
403,173,5,1141,6,-57,20
404,304,30,1091,17,-21,9
405,190,16,1006,-2,20,0
406,-64,-44,857,-28,48,-4
407,-301,-63,847,-14,30,-5
408,-249,-58,956,-9,-22,5
409,35,-14,1109,3,-58,16
410,260,16,1118,11,-41,15
411,278,32,1045,11,-1,3
412,70,-11,932,-21,36,-2
413,-209,-66,834,-21,45,-5
414,-316,-66,892,-11,4,-2
415,-117,-44,1028,-2,-44,11
416,177,5,1143,8,-56,19
417,301,27,1089,16,-22,7
418,186,20,1004,1,20,-1
419,-67,-39,858,-26,49,-4
420,-305,-70,845,-17,30,-5
421,-246,-54,965,-7,-22,3
422,36,-10,1108,2,-58,17
423,258,17,1120,12,-40,16
424,279,34,1042,15,0,2
425,66,-5,935,-21,37,-2
426,-213,-69,832,-24,47,-4
427,-318,-63,896,-11,3,-3
428,-115,-36,1033,0,-45,11
429,179,5,1139,5,-56,19
430,298,26,1088,17,-19,9
431,188,25,1009,0,20,-1
432,-68,-47,854,-32,48,-4
433,-306,-67,844,-11,29,-4
434,-244,-53,959,-8,-24,4
435,45,-12,1117,3,-58,18
436,262,13,1115,9,-40,16
437,280,42,1047,18,-1,2
438,70,-11,932,-26,38,-2
439,-216,-75,822,-24,46,-2
440,-316,-57,903,-11,2,-2
441,-117,-42,1033,-2,-45,10
442,177,1,1140,6,-55,20
443,298,31,1082,18,-21,9
444,189,24,1008,-2,18,-2
445,-68,-53,851,-30,48,-3
446,-307,-66,855,-12,29,-5
447,-240,-61,960,-8,-23,4
448,46,-20,1108,1,-58,17
449,261,19,1113,16,-41,16
450,277,46,1057,17,0,2
451,63,-19,923,-27,39,-4
452,-220,-61,832,-15,45,-5
453,-310,-52,902,-11,3,-2
454,-110,-43,1028,-5,-44,12
455,172,12,1143,10,-55,20
456,301,33,1086,16,-21,7
457,183,18,1005,-6,19,-2
458,-70,-50,851,-29,48,-4
459,-301,-64,847,-12,28,-4
460,-247,-63,968,-7,-22,3
461,45,-18,1109,2,-58,18
462,261,24,1117,15,-40,15
463,279,34,1045,12,-1,2
464,64,-15,919,-25,37,-3
465,-219,-52,847,-17,46,-5
466,-305,-72,882,-16,3,-2
467,-112,-33,1049,4,-45,11
468,181,3,1130,3,-55,20
469,302,28,1090,17,-20,8
470,181,16,1002,-4,20,0
471,-72,-49,851,-28,48,-2
472,-305,-67,853,-11,28,-5
473,-238,-64,960,-8,-24,4
474,48,-6,1115,5,-58,19
475,259,14,1115,9,-40,15
476,278,33,1043,13,-1,3
477,58,-4,931,-17,39,-2
478,-221,-66,833,-23,46,-4
479,-311,-65,896,-13,3,-1
480,-111,-31,1041,-1,-45,11
481,182,7,1142,7,-56,19
482,302,25,1081,15,-20,8
483,179,24,1005,1,21,-1
484,-71,-50,849,-33,48,-4
485,-307,-67,855,-13,29,-3
486,-239,-59,963,-9,-23,4
487,46,-8,1115,5,-58,17
488,260,17,1114,9,-40,16
489,276,36,1039,16,-1,2
490,57,-6,936,-21,37,-3
491,-219,-76,827,-26,45,-5
492,-311,-59,901,-8,3,-2
493,-106,-36,1038,0,-46,11
494,183,0,1135,5,-56,19
495,295,29,1085,20,-19,8
496,184,24,1004,0,19,-1
497,-74,-54,847,-33,49,-3
498,-309,-62,852,-11,28,-3
499,-235,-56,963,-10,-24,4
500,50,-16,1117,2,-58,18
501,256,17,1114,13,-39,15
502,278,40,1046,14,-1,1
503,57,-16,925,-25,39,-2
504,-221,-70,831,-20,46,-3
505,-308,-56,901,-10,0,-2
506,-109,-45,1038,-1,-45,9
507,182,6,1141,7,-55,19
508,298,38,1086,18,-21,7
509,178,20,1000,-6,19,-2
510,-74,-54,847,-31,48,-3
511,-307,-59,853,-10,28,-4
512,-240,-56,968,-8,-23,4
513,48,-19,1108,1,-57,19
514,258,22,1120,16,-41,15
515,280,36,1048,14,0,1
516,58,-18,922,-25,39,-3
517,-221,-59,841,-18,45,-4
518,-307,-61,892,-13,3,-2
519,-109,-43,1034,-2,-45,12
520,180,8,1143,8,-55,20
521,302,30,1086,17,-20,7
522,179,16,997,-6,21,-1
523,-76,-44,855,-24,48,-4
524,-302,-67,853,-16,28,-5
525,-240,-65,964,-8,-23,4
526,49,-14,1112,5,-59,17
527,263,22,1121,14,-40,15
528,276,32,1038,9,-1,2
529,57,-13,928,-20,38,-1
530,-220,-66,840,-21,46,-5
531,-308,-72,892,-13,2,-2
532,-111,-36,1040,3,-46,11
533,183,8,1140,8,-55,20
534,300,29,1083,16,-20,8
535,175,24,1000,1,20,-3
536,-75,-45,853,-30,48,-5
537,-306,-69,849,-14,30,-3
538,-245,-58,966,-6,-24,4
539,51,-13,1111,1,-58,18
540,262,17,1118,10,-40,16
541,276,34,1040,15,-1,1
542,63,-8,928,-23,37,-4
543,-219,-69,834,-22,45,-4
544,-311,-66,895,-12,2,-2
545,-108,-32,1039,3,-45,11
546,182,3,1140,6,-55,20
547,297,26,1078,16,-20,9
548,181,28,1004,1,21,-2
549,-71,-48,854,-33,48,-4
550,-308,-69,850,-14,29,-4
551,-240,-55,963,-5,-24,4
552,48,-14,1112,4,-58,17
553,261,12,1115,9,-40,16
554,276,34,1043,14,1,2
555,59,-10,934,-22,38,-2
556,-220,-72,833,-23,45,-4
557,-308,-60,895,-9,2,-3
558,-110,-32,1039,0,-45,10
559,180,2,1134,4,-55,19
560,297,35,1085,20,-19,8
561,183,25,1008,-5,19,0
562,-73,-58,845,-34,49,-3
563,-307,-61,860,-10,29,-4
564,-241,-58,961,-9,-23,4
565,44,-18,1112,2,-58,16
566,260,17,1114,12,-40,15
567,281,38,1046,15,0,2
568,64,-14,926,-25,38,-3
569,-222,-60,843,-17,46,-4
570,-311,-60,896,-15,1,-2
571,-114,-38,1037,0,-45,10
572,176,3,1133,5,-54,20
573,302,36,1086,17,-21,8
574,181,23,1009,-5,20,-1
575,-75,-59,845,-32,47,-4
576,-301,-62,854,-11,28,-5
577,-241,-66,963,-9,-24,2
578,46,-20,1106,4,-57,17
579,261,23,1120,15,-40,16
580,276,35,1049,10,0,2
581,62,-21,920,-23,39,-3
582,-215,-53,841,-15,47,-3
583,-315,-65,892,-16,4,-2
584,-114,-40,1036,-1,-45,11
585,180,13,1144,8,-56,19
586,302,26,1082,12,-21,9
587,184,19,999,-2,21,0
588,-68,-41,861,-26,48,-4
589,-304,-71,848,-16,28,-4
590,-247,-64,965,-5,-22,3
591,44,-15,1106,5,-58,18
592,261,21,1122,15,-39,15
593,280,30,1038,12,0,3
594,65,-3,931,-19,38,-1
595,-216,-60,840,-22,47,-6
596,-311,-67,891,-12,3,-2
597,-116,-32,1036,-1,-44,13
598,179,7,1139,5,-56,20
599,299,25,1083,13,-21,9
600,185,24,1006,2,20,-2
601,-69,-47,854,-31,48,-3
602,-306,-73,843,-15,30,-4
603,-242,-56,964,-8,-24,3
604,47,-15,1114,3,-57,17
605,260,10,1114,9,-39,15
606,278,39,1046,18,0,2
607,64,-7,931,-22,38,-3
608,-217,-69,830,-24,47,-3
609,-315,-59,896,-9,3,-2
610,-112,-35,1037,-1,-45,10
611,181,2,1140,3,-56,19
612,301,30,1081,18,-20,9
613,184,31,1008,-1,20,-2
614,-72,-57,850,-36,49,-4
615,-308,-70,849,-12,29,-5
616,-239,-57,963,-8,-24,3
617,49,-23,1110,1,-58,18
618,261,15,1115,13,-40,15
619,279,44,1049,18,0,1
620,61,-14,928,-25,38,-2
621,-221,-66,835,-19,47,-4
622,-314,-54,895,-11,2,-2
623,-111,-39,1035,-3,-44,11
624,179,7,1141,5,-56,19
625,300,35,1085,17,-21,8
626,183,23,1002,-5,20,-1
627,-74,-49,852,-31,49,-3
628,-307,-66,850,-13,28,-5
629,-239,-60,970,-8,-23,3
630,48,-21,1111,3,-57,18
631,257,19,1117,15,-40,15
632,278,36,1046,16,-1,2
633,58,-17,920,-24,40,-2
634,-221,-61,839,-16,46,-4
635,-309,-56,901,-12,2,-2
636,-112,-40,1034,-2,-45,12
637,180,9,1138,7,-55,20
638,300,38,1091,17,-21,8
639,177,15,996,-9,21,-1
640,-76,-50,849,-28,48,-4
641,-304,-64,854,-15,28,-5
642,-239,-69,962,-10,-23,3
643,53,-15,1115,6,-58,18
644,264,17,1116,13,-39,16
645,274,34,1043,14,1,1
646,56,-9,927,-21,39,-2
647,-220,-61,837,-21,44,-4
648,-314,-64,892,-13,3,-1
649,-108,-33,1041,0,-45,11
650,184,12,1145,7,-56,19
651,301,23,1080,10,-21,9
652,177,20,996,-2,21,-1
653,-75,-46,856,-29,47,-4
654,-306,-76,849,-16,28,-3
655,-240,-62,972,-8,-23,5
656,55,-12,1108,6,-58,17
657,263,19,1118,13,-38,16
658,273,35,1038,14,1,3
659,54,-3,929,-19,38,-3
660,-224,-67,833,-24,45,-3
661,-308,-62,900,-12,2,-2
662,-103,-35,1037,-2,-47,11
663,188,8,1143,7,-55,19
664,300,26,1076,13,-21,8
665,173,27,1002,0,21,-1
666,-81,-54,850,-34,47,-5
667,-307,-70,851,-11,27,-3
668,-237,-58,968,-6,-25,5
669,59,-14,1117,3,-59,17
670,264,16,1115,11,-38,15
671,271,41,1041,14,1,2
672,51,-11,925,-25,41,-3
673,-225,-70,833,-22,44,-5
674,-306,-64,901,-10,1,-2
675,-97,-31,1049,0,-46,12
676,186,-1,1130,2,-54,19
677,296,33,1082,20,-19,8
678,172,30,1003,-3,20,-1
679,-86,-60,839,-35,47,-3
680,-307,-66,859,-9,26,-4
681,-228,-55,970,-7,-24,4
682,65,-16,1114,1,-59,18
683,265,22,1114,17,-35,17
684,267,44,1045,11,1,2
685,43,-21,914,-26,40,-3
686,-229,-69,836,-22,45,-4
687,-305,-60,900,-9,1,0
688,-92,-40,1047,-2,-49,12
689,194,4,1138,8,-53,20
690,301,38,1084,18,-18,7
691,166,16,988,-8,23,-2
692,-91,-54,844,-26,49,-3
693,-309,-61,860,-15,26,-3
694,-230,-61,976,-6,-25,5
695,66,-14,1114,2,-59,18
696,270,27,1112,17,-37,15
697,267,38,1038,8,1,1
698,40,-17,913,-23,41,-3
699,-229,-66,835,-20,44,-4
700,-303,-65,901,-12,0,-3
701,-90,-40,1050,0,-47,13
702,196,6,1138,9,-53,20
703,295,31,1082,17,-19,7
704,164,15,984,-7,22,-2
705,-95,-48,849,-25,47,-4
706,-309,-66,858,-14,26,-5
707,-224,-61,978,-5,-27,4
708,73,-6,1118,4,-59,19
709,268,21,1117,14,-36,14
710,263,35,1036,10,2,0
711,35,-13,913,-22,40,-3
712,-237,-70,834,-23,44,-4
713,-299,-68,905,-10,-1,-2
714,-85,-33,1054,0,-47,13
715,197,9,1142,10,-52,19
716,298,31,1074,13,-17,7
717,158,22,984,-4,24,-1
718,-101,-48,848,-28,48,-3
719,-311,-74,857,-15,25,-5
720,-224,-55,988,-3,-28,5
721,80,-9,1116,0,-60,19
722,272,15,1112,12,-37,14
723,261,37,1031,12,3,0
724,32,-9,917,-20,41,-4
725,-240,-74,828,-24,42,-5
726,-299,-63,910,-5,-2,0
727,-79,-29,1053,-2,-49,13
728,201,4,1139,8,-52,18
729,296,34,1075,15,-18,7
730,156,28,988,-5,24,-1
731,-108,-61,836,-35,47,-3
732,-311,-63,871,-8,24,-5
733,-215,-59,984,-8,-28,5
734,86,-9,1124,5,-60,18
735,272,19,1107,14,-34,15
736,260,43,1033,14,4,1
737,24,-19,910,-27,42,-3
738,-244,-71,829,-21,43,-4
739,-296,-60,909,-8,-2,-2
740,-70,-36,1065,-2,-50,13
741,209,0,1134,8,-51,20
742,298,40,1081,21,-16,6
743,154,20,984,-10,24,-2
744,-119,-59,832,-30,48,-3
745,-314,-58,865,-9,24,-5
746,-211,-62,989,-6,-29,5
747,91,-14,1115,3,-59,18
748,274,27,1120,18,-36,13
749,260,41,1035,6,3,1
750,16,-22,898,-25,42,-3
751,-252,-64,832,-19,42,-4
752,-291,-69,908,-13,-4,-1
753,-72,-36,1063,-1,-51,12
754,213,3,1140,9,-52,19
755,301,40,1071,19,-16,7
756,146,16,976,-11,26,-1
757,-122,-55,835,-28,49,-4
758,-313,-59,873,-12,23,-5
759,-211,-64,992,-7,-29,4
760,97,-8,1119,3,-59,19
761,278,24,1113,18,-34,13
762,253,36,1031,5,5,0
763,11,-22,902,-25,44,-3
764,-257,-63,833,-20,42,-3
765,-289,-69,912,-9,-5,-1
766,-61,-39,1060,-2,-51,13
767,220,12,1147,13,-51,19
768,297,34,1068,13,-15,7
769,140,18,977,-5,27,-3
770,-129,-46,835,-29,47,-4
771,-315,-68,864,-14,21,-6
772,-208,-60,998,-5,-31,5
773,106,-6,1119,6,-60,18
774,279,22,1124,13,-34,12
775,254,32,1018,7,6,1
776,7,-10,906,-22,43,-3
777,-259,-74,822,-26,42,-5
778,-285,-68,914,-7,-6,-1
779,-60,-29,1070,0,-51,13
780,227,3,1147,11,-51,19
781,293,29,1063,13,-14,6
782,140,25,982,-1,28,-1
783,-135,-60,831,-34,49,-3
784,-317,-66,871,-10,22,-5
785,-205,-53,994,-6,-33,5
786,111,-7,1127,6,-59,19
787,286,19,1111,12,-34,14
788,250,42,1030,10,7,0
789,3,-20,909,-29,43,-4
790,-264,-75,810,-22,41,-3
791,-290,-57,925,-6,-5,2
792,-48,-38,1064,-4,-53,12
793,228,4,1146,13,-50,18
794,293,37,1072,15,-14,6
795,139,15,971,-10,29,-2
796,-142,-60,832,-29,49,-2
797,-316,-65,869,-9,22,-2
798,-198,-57,1002,-4,-34,6
799,112,-10,1125,5,-59,18
800,287,26,1111,16,-32,14
801,249,44,1029,7,8,0
802,0,-24,895,-31,42,-2
803,-272,-72,819,-22,41,-4
804,-283,-64,927,-7,-7,0
805,-45,-41,1064,-4,-53,14
806,227,4,1152,14,-49,19
807,300,39,1065,15,-14,6
808,135,18,973,-8,29,-3
809,-151,-57,832,-30,49,-3
810,-317,-60,872,-10,21,-4
811,-199,-57,996,-8,-34,6
812,120,-9,1128,5,-58,19
813,291,24,1112,17,-32,12
814,242,41,1032,8,8,0
815,-8,-27,885,-31,43,-4
816,-274,-61,820,-16,41,-4
817,-281,-66,927,-11,-8,-1
818,-42,-39,1070,-2,-54,13
819,234,10,1153,14,-50,18
820,297,35,1067,13,-12,5
821,131,14,965,-9,30,-2
822,-155,-49,834,-29,49,-1
823,-321,-68,869,-14,20,-3
824,-195,-59,1002,-5,-35,7
825,127,-3,1130,7,-58,19
826,296,21,1111,12,-32,13
827,242,33,1025,9,10,0
828,-9,-22,894,-27,43,-4
829,-279,-67,818,-19,40,-4
830,-282,-67,924,-10,-7,-1
831,-43,-33,1070,3,-54,14
832,240,10,1156,13,-50,19
833,298,33,1060,11,-12,6
834,128,19,968,-6,30,-3
835,-158,-48,835,-32,48,-5
836,-318,-71,866,-14,20,-4
837,-198,-50,1006,-5,-36,8
838,130,-6,1125,7,-58,19
839,294,18,1114,12,-32,12
840,239,36,1023,9,10,0
841,-12,-21,895,-29,43,-1
842,-284,-74,815,-21,42,-3
843,-279,-62,934,-5,-11,-1
844,-33,-30,1076,2,-53,14
845,240,6,1153,11,-48,18
846,295,34,1055,13,-11,5
847,127,22,975,-3,31,-3
848,-162,-65,820,-36,48,-3
849,-323,-60,878,-6,18,-4
850,-189,-53,996,-9,-37,6
851,134,-7,1139,8,-58,19
852,297,14,1103,10,-32,14
853,242,43,1032,15,10,0
854,-16,-28,888,-34,43,-3
855,-285,-67,814,-15,40,-5
856,-281,-60,930,-9,-11,-1
857,-32,-34,1076,0,-54,14
858,242,5,1148,10,-47,18
859,297,42,1065,17,-11,3
860,127,12,968,-14,29,-2
861,-170,-62,822,-30,48,-3
862,-323,-61,876,-8,18,-4
863,-186,-54,1005,-6,-37,7
864,135,-12,1126,7,-57,19
865,296,26,1110,18,-31,11
866,242,37,1031,7,10,-2
867,-21,-32,880,-32,44,-2
868,-289,-60,827,-15,40,-5
869,-276,-66,928,-10,-12,-1
870,-30,-32,1076,2,-53,15
871,240,12,1152,12,-48,18
872,304,40,1063,13,-12,5
873,124,10,963,-12,32,-2
874,-174,-57,827,-29,48,-5
875,-322,-61,876,-10,16,-5
876,-185,-60,1002,-9,-37,8
877,135,-5,1132,10,-58,19
878,302,24,1109,12,-30,11
879,238,34,1025,8,13,0
880,-22,-23,883,-31,45,-2
881,-288,-62,817,-16,40,-3
882,-276,-65,932,-11,-13,1
883,-28,-33,1075,1,-53,15
884,246,13,1157,14,-49,17
885,302,31,1054,12,-11,4
886,121,11,967,-9,32,-2
887,-174,-56,824,-31,48,-3
888,-322,-66,876,-8,17,-4
889,-186,-56,999,-7,-36,8
890,145,-2,1138,10,-58,19
891,302,19,1109,10,-31,11
892,235,30,1024,10,13,0
893,-20,-22,885,-29,44,-4
894,-293,-67,822,-19,40,-5
895,-283,-61,932,-7,-12,0
896,-23,-25,1077,2,-55,14
897,248,5,1154,9,-49,17
898,298,31,1054,12,-9,3
899,127,16,969,-10,30,-3
900,-177,-61,827,-32,48,-3
901,-322,-70,868,-9,17,-2
902,-183,-47,1010,-4,-38,7
903,142,-9,1135,9,-57,18
904,298,20,1103,12,-29,13
905,233,40,1027,11,14,0
906,-21,-26,886,-34,44,-3
907,-292,-69,815,-17,40,-4
908,-276,-59,935,-10,-14,0
909,-18,-30,1084,3,-55,14
910,249,3,1149,9,-47,18
911,296,35,1057,18,-9,3
912,121,12,970,-11,32,-3
913,-183,-62,821,-32,50,-3
914,-325,-60,877,-7,15,-3
915,-177,-52,1000,-9,-39,8
916,149,-10,1135,7,-57,19
917,303,22,1105,15,-30,11
918,234,39,1038,10,13,-1
919,-27,-39,876,-37,45,-1
920,-297,-63,820,-12,40,-5
921,-274,-58,934,-9,-13,0
922,-17,-31,1083,2,-55,16
923,242,8,1149,14,-48,18
924,307,40,1059,15,-9,3
925,120,8,967,-15,31,-2
926,-184,-63,820,-30,50,-2
927,-323,-59,877,-9,15,-4
928,-181,-54,1005,-8,-38,8
929,143,-9,1131,9,-57,20
930,305,28,1109,15,-31,11
931,232,27,1028,5,13,-1
932,-29,-31,877,-29,45,-3
933,-294,-56,826,-14,38,-6
934,-271,-64,933,-13,-15,1
935,-16,-30,1084,3,-53,16
936,248,12,1149,13,-47,16
937,298,36,1062,15,-8,3
938,116,2,960,-14,33,-3
939,-187,-55,826,-27,49,-3
940,-322,-63,876,-9,14,-3
941,-174,-53,1006,-6,-40,7
942,152,-4,1139,11,-58,19
943,304,26,1109,13,-29,12
944,231,29,1023,7,14,-1
945,-29,-26,879,-31,45,-2
946,-299,-63,821,-18,39,-4
947,-274,-62,936,-12,-16,1
948,-13,-29,1082,0,-55,14
949,251,11,1154,13,-49,17
950,299,30,1053,11,-8,3
951,116,3,961,-12,32,-2
952,-186,-56,825,-27,49,-2
953,-326,-66,879,-10,15,-4
954,-174,-48,1003,-4,-39,9
955,150,2,1140,11,-57,19
956,302,17,1101,9,-29,10
957,228,31,1025,10,14,-1
958,-30,-23,884,-32,43,-3
959,-297,-71,818,-18,39,-3
960,-277,-59,938,-8,-16,2
961,-10,-25,1086,2,-55,14
962,253,4,1151,11,-47,16
963,296,31,1050,15,-6,3
964,112,12,969,-11,32,-3
965,-188,-66,814,-32,49,-3
966,-324,-58,883,-5,13,-3
967,-171,-47,1001,-7,-39,9
968,157,-3,1141,10,-58,19
969,301,23,1099,11,-29,11
970,228,39,1032,13,13,0
971,-33,-36,871,-38,46,-2
972,-301,-67,827,-14,38,-6
973,-271,-65,933,-13,-17,1
974,-5,-29,1096,5,-55,16
975,252,-1,1134,9,-46,17
976,300,41,1060,23,-7,3
977,111,6,964,-18,33,-3
978,-192,-66,816,-28,49,-3
979,-328,-54,881,-7,13,-4
980,-166,-47,1007,-7,-40,8
981,149,-4,1137,6,-57,19
982,302,28,1103,15,-29,12
983,227,33,1028,6,14,-1
984,-36,-42,869,-38,45,-4
985,-299,-64,830,-11,36,-4
986,-267,-61,937,-10,-17,2
987,-5,-28,1094,3,-54,16
988,253,4,1134,10,-47,16
989,297,42,1068,20,-7,3
990,110,-4,950,-22,33,-1
991,-198,-57,826,-22,51,-3
992,-320,-59,875,-12,12,-4
993,-167,-44,1012,-5,-40,9
994,152,0,1138,6,-56,20
995,310,27,1099,15,-28,10
996,221,31,1031,7,14,-2
997,-37,-39,865,-35,45,-4
998,-300,-62,834,-12,37,-4
999,-273,-65,938,-15,-17,2
1000,0,-29,1087,5,-54,16
1001,254,10,1146,12,-45,17
1002,300,32,1055,16,-5,4
1003,103,1,955,-17,34,-3
1004,-194,-54,824,-23,49,-3
1005,-326,-60,881,-10,11,-3
1006,-164,-48,1009,-7,-41,9
1007,157,7,1142,11,-58,20
1008,306,24,1100,9,-28,10
1009,220,26,1021,6,14,-1
1010,-37,-26,877,-30,46,-1
1011,-303,-73,823,-19,37,-4
1012,-267,-64,942,-10,-17,1
1013,1,-26,1092,4,-56,16
1014,256,8,1142,9,-45,17
1015,297,31,1049,16,-4,3
1016,104,5,961,-14,34,-2
1017,-199,-63,822,-29,49,-3
1018,-328,-64,877,-16,12,-3
1019,-160,-42,1013,3,-40,8
1020,160,-4,1141,9,-58,19
1021,306,20,1098,10,-26,11
1022,219,35,1030,12,16,-1
1023,-39,-38,867,-40,45,-4
1024,-305,-67,829,-11,37,-5
1025,-267,-64,937,-15,-19,1
1026,6,-23,1102,7,-54,16
1027,252,3,1137,7,-44,16
1028,295,36,1052,23,-4,2
1029,100,8,961,-16,33,-1
1030,-201,-66,813,-29,49,-3
1031,-327,-54,889,-4,9,-2
1032,-154,-38,1011,-6,-42,9
1033,161,0,1140,7,-57,19
1034,304,27,1097,13,-26,10
1035,218,33,1032,4,16,-1
1036,-45,-45,860,-39,47,-2
1037,-308,-64,836,-10,34,-5
1038,-260,-63,937,-14,-20,3
1039,10,-22,1102,4,-56,17
1040,254,3,1126,9,-44,18
1041,295,40,1062,23,-4,2
1042,97,-1,953,-23,35,-2
1043,-202,-65,817,-23,51,-3
1044,-328,-54,887,-8,8,-3
1045,-148,-47,1012,-6,-43,9
1046,162,-1,1142,10,-57,20
1047,307,30,1095,15,-26,10
1048,216,26,1028,2,16,-1
1049,-52,-48,855,-38,46,-2
1050,-302,-58,836,-9,35,-5
1051,-262,-63,946,-14,-20,2
1052,16,-25,1097,5,-55,16
1053,256,17,1133,11,-43,17
1054,295,34,1054,17,-4,2
1055,91,-7,941,-23,35,-1
1056,-208,-52,834,-19,48,-3
1057,-319,-64,877,-14,7,-2
1058,-148,-41,1023,0,-42,10
1059,164,2,1139,6,-57,19
1060,310,27,1094,14,-26,10
1061,207,25,1026,1,19,-1
1062,-51,-41,852,-32,47,-3
1063,-307,-61,844,-10,33,-6
1064,-259,-66,942,-14,-19,3
1065,15,-16,1103,6,-57,18
1066,254,14,1135,10,-45,16
1067,297,33,1047,15,-3,3
1068,82,0,948,-18,36,-2
1069,-203,-59,824,-24,48,-5
1070,-322,-62,888,-11,7,-3
1071,-141,-40,1024,-1,-43,11
1072,169,1,1143,6,-57,19
1073,305,20,1089,13,-23,7
1074,205,24,1016,3,17,0
1075,-57,-39,860,-31,47,-3
1076,-305,-75,839,-14,33,-4
1077,-254,-56,951,-8,-20,2
1078,28,-19,1108,3,-57,16
1079,257,10,1125,11,-41,16
1080,289,35,1048,19,-2,2
1081,79,1,948,-19,36,-2
1082,-211,-67,821,-24,49,-4
1083,-322,-58,889,-10,5,-1
1084,-132,-38,1022,-3,-44,10
1085,175,2,1144,6,-56,19
1086,304,24,1088,14,-22,8
1087,198,28,1017,2,18,-2
1088,-60,-45,856,-32,47,-3
1089,-307,-70,839,-11,32,-4
1090,-252,-56,951,-9,-22,3
1091,28,-14,1114,5,-56,16
1092,258,10,1118,9,-42,15
1093,285,46,1054,20,-3,4
1094,79,-8,934,-26,37,-3
1095,-215,-69,826,-21,48,-5
1096,-315,-59,893,-10,5,-3
1097,-122,-41,1028,-2,-44,10
1098,173,-1,1140,4,-55,19
1099,303,32,1086,20,-22,9
1100,192,27,1015,-2,19,-2
1101,-67,-52,844,-32,48,-2
1102,-306,-58,852,-12,30,-4
1103,-243,-59,954,-9,-23,2
1104,39,-16,1114,4,-57,17
1105,257,15,1114,9,-41,16
1106,282,41,1054,17,-1,0
1107,69,-18,926,-28,37,-4
1108,-217,-64,835,-16,47,-4
1109,-311,-60,890,-13,3,-2
1110,-115,-43,1035,-1,-45,10
1111,179,3,1137,5,-55,18
1112,301,33,1090,20,-21,8
1113,185,19,1005,-4,19,-1
1114,-73,-48,846,-28,50,-3
1115,-309,-60,855,-12,30,-4
1116,-242,-63,958,-10,-24,4
1117,46,-12,1113,6,-59,18
1118,263,22,1119,12,-40,14
1119,281,33,1046,11,-2,1
1120,56,-13,929,-24,39,-3
1121,-220,-65,835,-23,46,-3
1122,-311,-64,893,-11,2,-1
1123,-111,-42,1034,-5,-44,12
1124,187,8,1142,10,-56,18
1125,299,30,1084,15,-20,8
1126,177,20,1000,-2,21,-1
1127,-76,-44,851,-29,48,-4
1128,-307,-67,852,-14,28,-6
1129,-237,-61,967,-9,-23,4
1130,53,-8,1112,5,-59,18
1131,265,16,1116,11,-39,14
1132,274,34,1039,14,0,0
1133,53,-10,926,-21,39,-3
1134,-224,-70,833,-23,45,-4
1135,-308,-68,898,-10,2,-1
1136,-99,-35,1044,1,-47,12
1137,194,2,1139,5,-55,18
1138,299,30,1077,18,-19,8
1139,170,26,998,-1,21,-1
1140,-84,-54,846,-35,48,-4
1141,-313,-68,856,-9,27,-6
1142,-235,-58,972,-6,-25,4
1143,64,-9,1122,4,-58,18
1144,267,19,1111,11,-37,14
1145,271,43,1039,15,1,1
1146,43,-11,927,-26,40,-3
1147,-229,-77,823,-25,45,-3
1148,-306,-59,904,-8,0,-2
1149,-91,-36,1050,0,-47,12
1150,194,-1,1141,4,-54,19
1151,297,31,1079,20,-19,7
1152,168,27,996,-4,23,-2
1153,-91,-60,838,-32,49,-3
1154,-313,-64,862,-10,25,-4
1155,-229,-55,979,-6,-26,4
1156,72,-15,1118,1,-59,17
1157,265,23,1109,15,-36,14
1158,265,46,1043,14,2,2
1159,37,-19,914,-29,40,-3
1160,-237,-70,831,-19,43,-5
1161,-301,-59,908,-10,-1,-2
1162,-82,-44,1048,-3,-49,12
1163,196,0,1140,7,-53,18
1164,300,37,1079,19,-18,6
1165,159,23,989,-7,24,-2
1166,-102,-57,841,-31,49,-3
1167,-312,-60,860,-10,25,-4
1168,-223,-58,985,-5,-27,4
1169,81,-14,1114,1,-60,19
1170,273,25,1120,15,-36,15
1171,265,35,1034,7,3,0
1172,29,-21,909,-26,42,-3
1173,-242,-66,833,-19,44,-4
1174,-298,-67,905,-12,-2,-2
1175,-77,-38,1054,-2,-49,12
1176,205,8,1141,9,-53,18
1177,300,35,1077,15,-17,7
1178,153,19,980,-8,26,-1
1179,-113,-49,849,-26,48,-4
1180,-310,-69,854,-15,24,-4
1181,-220,-56,994,-4,-28,5
1182,89,-12,1114,1,-60,19
1183,279,22,1122,17,-36,13
1184,256,33,1026,7,4,-1
1185,24,-15,904,-22,41,-4
1186,-250,-63,837,-20,42,-4
1187,-291,-70,902,-9,-3,-3
1188,-71,-29,1063,0,-50,12
1189,211,6,1144,8,-52,19
1190,297,30,1069,13,-16,6
1191,147,22,979,-2,27,-1
1192,-119,-51,840,-31,47,-3
1193,-314,-73,862,-13,24,-5
1194,-211,-60,992,-7,-29,6
1195,97,-7,1126,4,-59,18
1196,282,14,1110,13,-34,13
1197,251,40,1027,10,7,0
1198,15,-12,910,-24,42,-3
1199,-258,-72,821,-21,42,-3
1200,-295,-60,916,-9,-3,-2
1201,-57,-32,1060,-1,-52,13
1202,219,4,1148,11,-50,19
1203,298,33,1065,14,-14,5
1204,144,29,984,-3,27,-3
1205,-132,-59,835,-35,48,-4
1206,-316,-71,862,-11,23,-4
1207,-210,-53,995,-5,-31,6
1208,110,-12,1124,4,-60,19
1209,284,19,1109,16,-34,14
1210,248,47,1032,12,7,-1
1211,6,-21,900,-32,41,-3
1212,-263,-72,817,-18,42,-4
1213,-286,-61,921,-7,-4,-1
1214,-52,-37,1068,-2,-52,12
1215,224,0,1144,9,-50,19
1216,297,40,1070,19,-13,6
1217,140,22,977,-9,27,-1
1218,-140,-63,826,-31,48,-2
1219,-317,-58,874,-7,22,-5
1220,-200,-55,998,-8,-33,5
1221,114,-10,1128,5,-60,18
1222,289,24,1109,17,-34,14
1223,248,44,1028,5,8,0
1224,-4,-32,891,-32,43,-3
1225,-268,-65,826,-15,42,-4
1226,-281,-65,921,-11,-7,-1
1227,-48,-40,1067,-2,-53,13
1228,231,8,1148,13,-49,19
1229,301,39,1069,16,-14,5
1230,133,15,970,-12,30,-2
1231,-152,-52,829,-28,49,-2
1232,-315,-58,871,-10,19,-4
1233,-199,-58,1001,-8,-34,7
1234,123,-8,1126,6,-58,20
1235,294,25,1115,16,-34,13
1236,243,34,1025,6,9,0
1237,-8,-22,890,-28,44,-2
1238,-276,-64,818,-22,40,-4
1239,-282,-69,928,-10,-9,-1
1240,-38,-39,1071,-1,-53,14
1241,236,11,1158,15,-50,18
1242,301,33,1061,12,-11,6
1243,127,13,963,-8,31,-2
1244,-162,-49,833,-28,48,-4
1245,-320,-67,870,-13,18,-5
1246,-194,-56,1001,-5,-35,8
1247,130,0,1136,8,-59,19
1248,304,16,1108,9,-33,12
1249,239,36,1022,11,11,-1
1250,-13,-21,892,-28,44,-2
1251,-285,-70,815,-18,40,-3
1252,-284,-67,932,-10,-10,0
1253,-28,-34,1078,2,-55,14
1254,243,5,1157,12,-48,18
1255,297,29,1056,13,-10,4
1256,125,20,967,-5,30,-2
1257,-172,-54,826,-34,48,-3
1258,-323,-70,865,-10,18,-3
1259,-187,-47,1008,-7,-38,7
1260,140,-6,1139,7,-59,18
1261,299,16,1105,10,-30,12
1262,232,44,1029,14,11,-1
1263,-18,-27,886,-36,43,-2
1264,-291,-70,811,-16,41,-3
1265,-277,-58,933,-8,-12,0
1266,-19,-30,1080,1,-55,14
1267,246,4,1152,9,-47,18
1268,300,39,1057,17,-10,5
1269,123,17,971,-12,32,-2
1270,-180,-63,816,-32,50,-3
1271,-325,-61,878,-7,17,-3
1272,-177,-51,1002,-8,-39,8
1273,146,-6,1141,8,-59,18
1274,303,23,1103,14,-30,10
1275,236,43,1034,11,13,-1
1276,-28,-36,873,-38,45,-2
1277,-299,-62,821,-12,39,-4
1278,-275,-63,933,-12,-14,1
1279,-18,-33,1091,2,-54,15
1280,250,6,1147,10,-47,15
1281,301,38,1056,19,-9,3
1282,115,5,963,-18,32,-1
1283,-188,-59,820,-25,49,-5
1284,-326,-56,880,-8,14,-4
1285,-174,-51,1005,-6,-39,8
1286,149,-7,1137,10,-58,20
1287,308,29,1105,15,-28,11
1288,230,33,1030,5,13,0
1289,-35,-36,866,-36,46,-2
1290,-300,-57,827,-12,37,-5
1291,-270,-64,936,-13,-17,0
1292,-7,-31,1086,2,-54,17
1293,251,11,1153,12,-46,18
1294,300,35,1056,17,-7,3
1295,108,3,957,-16,33,-1
1296,-193,-57,821,-25,48,-2
1297,-322,-62,875,-11,12,-2
1298,-169,-46,1013,-5,-40,8
1299,159,0,1141,10,-58,20
1300,306,25,1101,12,-28,10
1301,221,27,1025,4,16,-1
1302,-36,-32,866,-34,44,-2
1303,-305,-60,830,-13,37,-4
1304,-268,-66,934,-13,-17,1
1305,0,-20,1098,6,-55,15
1306,255,8,1143,12,-45,16
1307,300,30,1050,16,-5,3
1308,100,7,959,-13,34,-2
1309,-199,-60,819,-28,50,-3
1310,-327,-61,877,-11,11,-2
1311,-160,-41,1013,-5,-41,9
1312,166,0,1143,7,-59,19
1313,305,21,1099,11,-26,9
1314,215,29,1027,7,15,-1
1315,-42,-37,864,-35,45,-3
1316,-306,-68,831,-14,35,-5
1317,-262,-61,939,-10,-20,2
1318,10,-19,1106,4,-55,16
1319,254,2,1133,8,-43,16
1320,292,38,1051,22,-4,2
1321,95,7,956,-18,34,-2
1322,-202,-67,808,-28,49,-4
1323,-327,-55,890,-9,8,-2
1324,-144,-40,1014,-6,-42,11
1325,165,-1,1147,5,-57,19
1326,307,19,1090,14,-24,8
1327,212,29,1021,5,17,-1
1328,-53,-40,862,-35,46,-3
1329,-302,-70,829,-10,34,-4
1330,-261,-53,952,-9,-19,2
1331,21,-27,1101,1,-57,17
1332,256,12,1127,12,-43,17
1333,289,43,1060,21,-3,1
1334,89,-9,938,-25,35,-2
1335,-214,-62,828,-23,49,-2
1336,-318,-58,885,-12,3,-3
1337,-132,-42,1027,-2,-43,12
1338,169,-3,1147,4,-57,20
1339,309,26,1086,19,-24,8
1340,197,33,1032,4,18,-2
1341,-57,-56,838,-38,48,-2
1342,-311,-57,847,-6,32,-4
1343,-254,-63,952,-12,-23,1
1344,36,-22,1107,6,-56,18
1345,252,23,1130,13,-40,17
1346,291,38,1047,16,-2,2
1347,75,-7,931,-26,39,-2
1348,-217,-61,832,-21,47,-5
1349,-312,-65,884,-14,2,-1
1350,-126,-38,1034,-1,-42,9
1351,178,-1,1142,6,-55,19
1352,307,29,1088,20,-21,8
1353,186,22,1015,1,20,-1
1354,-69,-49,841,-41,49,-3
1355,-309,-54,852,-7,30,-6
1356,-249,-63,956,-15,-25,1
1357,48,-15,1114,9,-57,19
1358,261,22,1123,6,-41,15
1359,282,32,1045,15,-1,2
1360,62,-14,928,-24,38,-1
1361,-222,-64,831,-20,46,-3
1362,-312,-67,894,-11,2,-4
1363,-108,-41,1037,-1,-45,11
1364,183,8,1146,8,-56,19
1365,302,29,1086,16,-20,6
1366,184,21,1002,0,21,-2
1367,-79,-45,849,-30,49,-4
1368,-311,-67,848,-13,29,-4
1369,-242,-58,964,-8,-25,4
1370,56,-8,1115,6,-59,18
1371,266,18,1120,10,-40,15
1372,276,32,1036,13,0,2
1373,53,-5,931,-21,39,-3
1374,-225,-69,830,-26,45,-4
1375,-313,-66,893,-10,2,-1
1376,-100,-37,1042,1,-48,11
1377,193,5,1146,8,-56,18
1378,299,25,1076,15,-19,8
1379,171,26,999,2,22,0
1380,-83,-54,845,-32,49,-4
1381,-311,-68,853,-11,27,-4
1382,-232,-55,976,-7,-25,5
1383,68,-11,1119,4,-59,18
1384,267,17,1115,12,-38,15
1385,268,38,1037,13,1,0
1386,43,-13,920,-24,38,-2
1387,-234,-75,830,-23,43,-3
1388,-302,-64,902,-9,0,-2
1389,-81,-33,1056,0,-49,11
1390,197,-1,1138,4,-53,19
1391,293,37,1078,21,-18,6
1392,162,26,993,-5,23,-1
1393,-101,-60,834,-34,49,-3
1394,-311,-62,865,-10,25,-3
1395,-222,-56,981,-8,-28,4
1396,78,-16,1123,2,-60,18
1397,272,17,1106,12,-37,14
1398,262,47,1047,15,3,1
1399,30,-25,903,-30,42,-2
1400,-244,-66,834,-17,44,-4
1401,-298,-64,907,-11,-2,-2
1402,-74,-38,1057,1,-49,12
1403,204,4,1140,9,-52,19
1404,302,35,1075,18,-18,7
1405,149,23,989,-8,25,-2
1406,-110,-61,826,-33,49,-3
1407,-313,-56,870,-8,24,-4
1408,-216,-63,989,-8,-29,4
1409,93,-11,1119,5,-60,20
1410,273,29,1119,16,-34,13
1411,262,34,1027,7,4,0
1412,16,-20,903,-24,43,-3
1413,-252,-65,833,-20,43,-4
1414,-287,-70,908,-10,-3,-1
1415,-68,-38,1064,-1,-50,11
1416,217,4,1142,11,-53,18
1417,299,38,1077,16,-16,6
1418,144,16,974,-9,27,-1
1419,-130,-54,833,-27,48,-2
1420,-316,-63,869,-11,23,-6
1421,-207,-63,993,-5,-31,5
1422,101,-8,1123,6,-59,19
1423,281,21,1117,15,-34,12
1424,254,33,1025,8,5,0
1425,9,-13,905,-23,43,-2
1426,-260,-69,821,-25,41,-4
1427,-287,-71,917,-8,-5,-3
1428,-59,-36,1064,-3,-51,13
1429,223,8,1151,13,-51,18
1430,295,31,1066,10,-15,6
1431,139,21,974,-3,29,-1
1432,-135,-48,838,-32,48,-3
1433,-315,-70,863,-12,22,-4
1434,-205,-55,1001,-7,-31,7
1435,119,-8,1126,3,-59,18
1436,285,16,1114,12,-33,12
1437,248,38,1023,9,7,0
1438,0,-15,906,-26,42,-2
1439,-273,-79,811,-25,41,-4
1440,-282,-60,925,-5,-7,-1
1441,-43,-34,1069,-3,-52,13
1442,233,4,1151,11,-49,18
1443,298,40,1065,18,-12,5
1444,133,24,975,-8,29,-2
1445,-154,-61,822,-35,49,-2
1446,-320,-63,873,-8,21,-4
1447,-196,-55,1005,-7,-35,6
1448,127,-14,1126,3,-59,20
1449,291,19,1110,16,-32,13
1450,244,44,1028,12,9,0
1451,-11,-25,895,-32,43,-1
1452,-283,-67,815,-17,42,-3
1453,-283,-61,927,-9,-9,0
1454,-38,-35,1082,2,-54,14
1455,238,1,1145,9,-48,18
1456,300,40,1062,19,-12,5
1457,128,16,977,-12,30,-3
1458,-164,-64,815,-33,49,-3
1459,-325,-57,880,-6,19,-5
1460,-188,-60,998,-8,-36,8
1461,130,-9,1134,7,-58,20
1462,296,23,1108,15,-32,11
1463,244,38,1027,10,10,-1
1464,-18,-27,888,-32,43,-3
1465,-285,-64,809,-16,39,-4
1466,-278,-58,937,-9,-11,0
1467,-29,-41,1074,-4,-54,14
1468,243,11,1154,16,-48,18
1469,302,39,1065,14,-10,4
1470,123,2,957,-15,32,-2
1471,-180,-49,831,-26,49,-3
1472,-319,-65,870,-11,15,-4
1473,-188,-54,1007,-6,-38,8
1474,143,-6,1135,7,-57,19
1475,306,23,1105,14,-29,11
1476,233,39,1036,9,13,-1
1477,-23,-33,874,-33,44,-3
1478,-297,-55,825,-12,40,-5
1479,-274,-70,929,-14,-14,1
1480,-21,-26,1084,3,-54,15
1481,246,11,1160,10,-48,16
1482,303,28,1049,12,-9,4
1483,113,16,969,-9,33,-3
1484,-178,-62,812,-34,48,-3
1485,-325,-60,883,-6,15,-4
1486,-180,-55,1003,-9,-40,8
1487,157,-1,1138,13,-58,19
1488,297,25,1112,10,-28,9
1489,233,28,1016,7,14,-1
1490,-33,-21,882,-30,45,-2
1491,-301,-68,819,-18,39,-4
1492,-273,-63,930,-10,-16,1
1493,-10,-24,1099,2,-55,14
1494,257,-1,1141,9,-47,18
1495,294,41,1062,19,-6,4
1496,116,9,960,-16,33,-3
1497,-194,-63,815,-30,49,-3
1498,-332,-65,880,-8,13,-5
1499,-166,-48,998,-5,-40,8
1500,151,0,1155,8,-57,19
1501,308,15,1088,9,-27,10
1502,227,45,1036,15,15,-1
1503,-38,-30,875,-39,47,-2
1504,-303,-74,811,-14,37,-4
1505,-277,-52,947,-8,-18,0
1506,0,-29,1091,2,-56,15
1507,253,1,1142,9,-45,17
1508,296,39,1060,21,-6,3
1509,107,2,954,-19,33,-2
1510,-200,-65,818,-27,51,-4
1511,-326,-56,884,-8,10,-3
1512,-157,-44,1008,-4,-41,9
1513,157,-3,1149,7,-56,20
1514,305,24,1089,16,-27,12
1515,216,39,1036,8,16,-1
1516,-43,-45,858,-39,44,-2
1517,-304,-61,829,-8,36,-4
1518,-266,-60,943,-13,-19,2
1519,8,-27,1102,3,-56,16
1520,254,9,1134,11,-44,17
1521,296,39,1059,18,-4,3
1522,97,-5,945,-23,35,-2
1523,-207,-58,823,-22,49,-3
1524,-322,-59,879,-11,7,-2
1525,-151,-46,1018,-5,-41,9
1526,162,0,1144,8,-56,20
1527,307,30,1096,15,-25,9
1528,209,23,1024,1,18,-2
1529,-50,-45,856,-34,47,-3
1530,-304,-59,839,-9,34,-5
1531,-263,-62,949,-14,-20,1
1532,18,-23,1099,4,-56,16
1533,256,20,1135,13,-43,15
1534,293,32,1054,14,-4,1
1535,88,-6,936,-21,35,-1
1536,-211,-51,835,-20,49,-3
1537,-321,-67,879,-17,5,-3
1538,-138,-41,1025,-1,-43,11
1539,168,4,1143,8,-55,19
1540,308,23,1092,16,-23,8
1541,200,24,1016,3,19,-2
1542,-59,-42,856,-34,48,-3
1543,-305,-63,842,-13,32,-5
1544,-254,-62,946,-12,-21,2
1545,30,-14,1116,6,-58,16
1546,259,12,1122,9,-42,17
1547,285,39,1050,16,-2,1
1548,74,-5,938,-23,36,-2
1549,-212,-65,825,-24,47,-3
1550,-319,-64,888,-13,4,-3
1551,-127,-40,1034,-1,-44,10
1552,180,0,1144,4,-57,19
1553,305,23,1089,16,-20,8
1554,191,22,1011,0,20,-2
1555,-65,-46,851,-30,49,-3
1556,-310,-65,843,-12,30,-5
1557,-247,-54,959,-6,-22,2
1558,43,-8,1115,4,-57,17
1559,258,16,1123,9,-41,16
1560,283,37,1044,15,-2,2
1561,68,-7,936,-23,37,-3
1562,-221,-76,823,-26,47,-4
1563,-312,-61,897,-11,2,-2
1564,-112,-41,1035,0,-45,10
1565,183,-2,1142,2,-54,20
1566,304,29,1081,22,-20,7
1567,183,31,1012,1,21,-1
1568,-77,-56,840,-35,50,-2
1569,-312,-58,851,-9,29,-3
1570,-239,-52,965,-9,-23,2
1571,57,-15,1121,2,-57,18
1572,262,17,1110,12,-41,16
1573,275,41,1051,17,-1,1
1574,56,-19,922,-29,38,-2
1575,-226,-70,829,-21,45,-4
1576,-310,-63,899,-12,0,-3
1577,-96,-46,1043,-1,-46,10
1578,188,0,1136,6,-54,20
1579,300,41,1086,22,-19,9
1580,170,22,996,-7,23,0
1581,-92,-54,837,-30,49,-2
1582,-312,-55,862,-11,27,-4
1583,-232,-64,972,-10,-26,4
1584,68,-15,1114,4,-60,19
1585,267,23,1118,13,-37,14
1586,273,37,1044,12,2,0
1587,41,-19,914,-27,41,-2
1588,-237,-65,832,-19,45,-3
1589,-303,-64,899,-12,-1,-1
1590,-88,-39,1050,-1,-47,12
1591,192,6,1143,8,-54,19
1592,301,37,1080,18,-18,6
1593,159,20,993,-8,23,-2
1594,-98,-58,834,-30,49,-3
1595,-309,-59,866,-13,25,-4
1596,-228,-65,979,-9,-26,4
1597,78,-11,1117,4,-59,17
1598,273,23,1113,15,-37,13
1599,265,36,1038,9,3,1
1600,28,-17,908,-24,42,-1
1601,-241,-63,836,-19,42,-3
1602,-298,-70,901,-13,0,-1
1603,-77,-34,1063,0,-48,12
1604,208,7,1140,8,-52,19
1605,296,31,1076,16,-17,7
1606,150,18,980,-4,25,-1
1607,-115,-49,845,-26,48,-3
1608,-312,-71,856,-16,24,-3
1609,-215,-57,990,-3,-29,5
1610,93,-11,1120,1,-60,18
1611,282,21,1118,16,-34,12
1612,257,42,1028,11,5,2
1613,15,-13,908,-23,43,-1
1614,-253,-73,821,-24,42,-4
1615,-295,-62,914,-9,-4,-1
1616,-64,-38,1060,-2,-52,12
1617,220,3,1147,10,-52,19
1618,297,36,1068,16,-15,6
1619,149,25,977,-6,27,0
1620,-126,-56,833,-34,49,-3
1621,-318,-70,864,-11,24,-6
1622,-210,-55,997,-5,-31,6
1623,101,-10,1127,2,-59,19
1624,284,14,1107,14,-34,13
1625,253,45,1029,13,6,1
1626,7,-16,909,-27,43,-4
1627,-262,-77,810,-23,42,-3
1628,-290,-56,927,-6,-4,0
1629,-53,-37,1061,-3,-52,14
1630,224,5,1148,9,-50,18
1631,295,39,1067,17,-14,5
1632,136,25,982,-10,27,-3
1633,-141,-66,823,-35,47,-5
1634,-314,-65,873,-7,21,-4
1635,-197,-60,997,-8,-33,5
1636,115,-14,1127,5,-58,19
1637,292,21,1110,17,-32,12
1638,246,46,1032,10,8,0
1639,-5,-31,888,-31,43,-3
1640,-277,-63,823,-15,42,-4
1641,-284,-63,920,-10,-7,-1
1642,-41,-31,1074,0,-55,13
1643,232,7,1150,11,-49,19
1644,303,41,1066,15,-14,5
1645,131,15,973,-12,28,-3
1646,-159,-59,825,-32,49,-3
1647,-320,-62,871,-8,20,-4
1648,-196,-64,1002,-10,-35,5
1649,129,-13,1128,8,-59,19
1650,296,22,1107,15,-31,13
1651,242,37,1032,10,11,0
1652,-13,-25,883,-31,45,-2
1653,-283,-57,819,-14,40,-3
1654,-283,-66,926,-12,-10,-1
1655,-36,-31,1074,1,-54,15
1656,242,15,1157,12,-50,18
1657,301,31,1061,9,-12,4
1658,128,14,966,-9,31,-1
1659,-168,-52,830,-31,48,-3
1660,-320,-76,867,-13,17,-4
1661,-191,-57,1007,-4,-35,6
1662,139,-12,1129,9,-57,20
1663,301,22,1111,15,-31,13
1664,237,36,1023,10,14,-1
1665,-20,-21,885,-29,45,-2
1666,-291,-57,821,-17,40,-5
1667,-280,-62,926,-11,-12,0
1668,-28,-25,1080,1,-54,15
1669,247,9,1158,10,-49,17
1670,300,29,1053,9,-10,4
1671,123,13,970,-7,31,0
1672,-175,-59,821,-37,48,-2
1673,-324,-70,871,-10,17,-5
1674,-182,-54,1003,-6,-39,7
1675,149,-10,1141,10,-58,18
1676,301,18,1105,13,-29,11
1677,233,40,1031,15,14,0
1678,-27,-24,880,-33,45,-1
1679,-300,-65,810,-16,40,-4
1680,-274,-54,940,-9,-15,1
1681,-15,-27,1087,1,-55,15
1682,252,1,1147,8,-48,18
1683,298,37,1060,19,-10,3
1684,116,5,964,-16,31,-2
1685,-186,-66,816,-30,49,-2
1686,-331,-58,879,-7,14,-4
1687,-172,-49,1001,-6,-39,8
1688,157,-11,1143,9,-58,20
1689,305,23,1099,17,-27,11
1690,231,43,1037,9,15,-2
1691,-34,-36,869,-34,46,-1
1692,-305,-61,822,-13,39,-4
1693,-274,-54,937,-10,-17,0
1694,-6,-34,1092,0,-56,14
1695,251,6,1146,11,-47,17
1696,304,43,1061,20,-7,5
1697,112,0,956,-24,33,-1
1698,-196,-65,816,-23,50,-3
1699,-325,-59,882,-11,11,-4
1700,-163,-52,1012,-4,-41,8
1701,155,-7,1138,8,-57,20
1702,307,30,1103,18,-28,9
1703,226,31,1029,5,15,-1
1704,-43,-35,861,-34,46,-1
1705,-305,-57,832,-11,36,-4
1706,-266,-61,942,-13,-19,1
1707,4,-26,1094,3,-55,16
1708,256,10,1141,10,-45,17
1709,298,34,1060,15,-6,2
1710,99,-3,947,-21,35,-2
1711,-199,-58,822,-23,48,-2
1712,-320,-62,884,-12,9,-3
1713,-153,-50,1011,-4,-41,9
1714,163,1,1146,8,-58,19
1715,307,25,1102,13,-24,8
1716,214,24,1020,2,17,-1
1717,-52,-33,857,-31,46,-2
1718,-307,-63,834,-13,35,-5
1719,-261,-65,948,-12,-19,2
1720,12,-19,1099,4,-56,17
1721,257,8,1134,9,-44,16
1722,297,33,1056,18,-3,2
1723,89,-3,943,-21,35,-1
1724,-204,-61,822,-24,49,-1
1725,-322,-64,887,-12,8,-3
1726,-144,-42,1021,-3,-42,9
1727,169,6,1139,6,-57,19
1728,306,23,1098,14,-23,8
1729,207,21,1014,3,17,-2
1730,-56,-30,865,-30,47,-2
1731,-308,-73,831,-17,33,-4
1732,-258,-56,952,-6,-20,2
1733,24,-18,1103,1,-55,16
1734,258,7,1128,9,-42,16
1735,289,36,1049,19,-2,2
1736,79,0,945,-20,35,-2
1737,-210,-70,819,-26,49,-2
1738,-322,-58,894,-10,6,-2
1739,-129,-42,1024,-4,-45,8
1740,176,0,1150,5,-57,19
1741,302,23,1084,15,-22,8
1742,196,29,1018,5,18,-1
1743,-64,-46,850,-34,48,-3
1744,-311,-66,839,-12,31,-5
1745,-250,-54,955,-8,-23,2
1746,38,-16,1116,3,-59,16
1747,262,6,1115,8,-41,15
1748,288,42,1056,22,-2,2
1749,72,-9,937,-28,37,-2
1750,-221,-72,816,-22,48,-3
1751,-320,-54,898,-9,3,-3
1752,-120,-44,1031,-1,-45,10
1753,178,2,1143,3,-55,19
1754,305,31,1088,19,-22,7
1755,189,23,1010,-4,18,0
1756,-71,-55,841,-32,50,-3
1757,-308,-58,851,-9,29,-5
1758,-240,-59,960,-9,-23,1
1759,44,-19,1116,2,-58,17
1760,258,17,1117,14,-39,15
1761,278,42,1052,16,0,2
1762,61,-16,924,-28,40,-1
1763,-222,-67,830,-18,47,-2
1764,-310,-61,896,-12,2,-2
1765,-108,-43,1042,-2,-46,10
1766,186,6,1142,8,-54,20
1767,300,34,1084,18,-19,7
1768,177,18,1001,-6,22,-2
1769,-87,-51,843,-29,48,-2
1770,-312,-57,860,-10,27,-3
1771,-238,-64,966,-12,-25,4
1772,59,-15,1114,2,-60,18
1773,268,19,1117,13,-40,14
1774,277,31,1042,13,2,1
1775,48,-15,921,-23,40,-2
1776,-230,-65,835,-19,44,-4
1777,-309,-67,895,-14,1,-1
1778,-98,-36,1046,0,-47,12
1779,192,11,1144,8,-55,19
1780,301,26,1078,15,-19,6
1781,167,25,993,-2,22,-2
1782,-91,-46,847,-30,49,-2
1783,-309,-72,851,-16,25,-3
1784,-230,-62,978,-6,-26,4
1785,72,-9,1119,5,-58,16
1786,272,18,1119,12,-36,13
1787,268,32,1030,11,3,1
1788,37,-8,922,-18,42,-1
1789,-239,-71,827,-25,44,-3
1790,-307,-64,903,-8,-1,-3
1791,-84,-30,1052,0,-50,12
1792,200,8,1143,7,-54,19
1793,297,29,1073,16,-18,7
1794,159,25,992,-2,23,-2
1795,-106,-55,841,-34,48,-4
1796,-313,-70,856,-12,25,-3
1797,-223,-64,982,-8,-27,5
1798,84,-11,1128,6,-59,17
1799,274,12,1108,11,-36,12
1800,261,41,1035,17,5,1
1801,27,-7,916,-25,41,-2
1802,-246,-72,818,-22,43,-4
1803,-298,-57,912,-7,-2,-1
1804,-73,-33,1056,-1,-50,12
1805,209,2,1142,6,-53,18
1806,297,37,1075,17,-16,7
1807,153,25,985,-8,26,-1
1808,-117,-65,833,-33,49,-3
1809,-312,-67,868,-11,23,-5
1810,-211,-60,988,-7,-30,5
1811,97,-17,1124,1,-59,18
1812,280,20,1106,17,-34,12
1813,258,49,1041,13,5,0
1814,12,-26,897,-31,43,-2
1815,-258,-63,828,-16,42,-4
1816,-293,-57,913,-11,-5,-1
1817,-60,-38,1064,-2,-51,13
1818,215,8,1145,8,-51,18
1819,301,39,1072,17,-16,5
1820,143,18,977,-11,27,-1
1821,-133,-58,834,-30,48,-3
1822,-315,-67,867,-13,20,-4
1823,-206,-63,996,-5,-31,5
1824,108,-13,1124,3,-59,19
1825,288,22,1113,16,-33,14
1826,251,42,1030,11,7,1
1827,1,-19,899,-28,44,-3
1828,-267,-67,817,-17,42,-4
1829,-285,-59,924,-9,-6,-2
1830,-55,-37,1063,-2,-52,14
1831,226,9,1145,12,-51,19
1832,301,38,1072,14,-15,5
1833,140,14,968,-11,28,-2
1834,-146,-53,834,-31,48,-2
1835,-319,-66,869,-12,22,-3
1836,-202,-64,998,-8,-35,5
1837,119,-13,1125,7,-59,19
1838,291,22,1116,15,-34,13
1839,246,34,1025,7,9,0
1840,-3,-18,899,-25,44,-2
1841,-274,-65,817,-21,42,-4
1842,-287,-63,921,-7,-8,-1
1843,-47,-30,1073,-2,-53,14
1844,236,10,1154,13,-50,19
1845,299,33,1062,11,-14,5
1846,135,18,972,-6,30,-2
1847,-153,-55,830,-35,48,-2
1848,-321,-71,869,-11,20,-4
1849,-197,-61,1003,-6,-35,5
1850,129,-9,1134,7,-59,19
1851,294,14,1106,13,-31,13
1852,241,42,1029,12,11,1
1853,-11,-19,892,-29,44,-3
1854,-284,-68,813,-20,41,-3
1855,-285,-59,929,-7,-9,-1
1856,-32,-29,1075,0,-55,14
1857,240,6,1154,9,-49,19
1858,299,29,1059,14,-11,5
1859,127,20,975,-7,30,-3
1860,-167,-65,820,-34,49,-4
1861,-322,-64,872,-7,19,-3
1862,-190,-50,1002,-6,-36,7
1863,137,-14,1135,6,-58,18
1864,301,18,1104,15,-31,11
1865,239,46,1030,13,11,-2
1866,-18,-30,885,-33,43,-2
1867,-289,-65,813,-16,40,-4
1868,-280,-56,927,-9,-12,0
1869,-24,-34,1085,0,-55,15
1870,246,3,1151,10,-48,18
1871,301,45,1063,17,-11,4
1872,124,8,968,-16,32,-2
1873,-178,-62,819,-31,49,-2
1874,-324,-61,877,-7,16,-4
1875,-181,-54,1008,-8,-38,7
1876,143,-16,1131,6,-57,19
1877,303,24,1107,18,-30,11
1878,237,39,1034,10,14,-1
1879,-28,-36,874,-36,45,-2
1880,-299,-58,823,-11,40,-5
1881,-277,-54,936,-11,-13,0
1882,-19,-35,1079,-1,-56,14
1883,249,10,1153,14,-49,17
1884,303,40,1063,16,-9,2
1885,117,3,960,-18,32,-2
1886,-189,-60,816,-27,49,-3
1887,-324,-58,878,-8,13,-3
1888,-174,-60,1006,-7,-40,9
1889,152,-7,1140,12,-58,19
1890,304,27,1108,15,-28,10
1891,227,29,1027,7,15,-2
1892,-35,-29,870,-31,46,0
1893,-302,-54,826,-13,37,-3
1894,-272,-69,930,-13,-18,-1
1895,-8,-24,1092,4,-55,15
1896,256,10,1151,8,-47,18
1897,302,28,1054,14,-8,3
1898,108,7,961,-13,33,-2
1899,-198,-59,821,-28,49,-3
1900,-326,-70,873,-10,11,-4
1901,-165,-45,1013,-4,-39,9
1902,159,-6,1140,8,-58,20
1903,306,22,1104,16,-27,10
1904,222,32,1029,10,17,0
1905,-42,-30,865,-34,45,-2
1906,-307,-61,828,-12,37,-5
1907,-271,-62,936,-14,-18,2
1908,3,-19,1102,4,-56,16
1909,257,5,1142,6,-47,15
1910,301,31,1051,17,-5,2
1911,99,5,958,-17,33,-1
1912,-200,-65,816,-29,49,-3
1913,-326,-65,881,-9,11,-4
1914,-155,-41,1013,-3,-43,6
1915,169,-6,1147,6,-56,19
1916,305,21,1091,12,-25,10
1917,216,36,1030,10,16,0
1918,-45,-35,863,-36,46,-2
1919,-307,-62,828,-12,37,-4
1920,-263,-56,943,-13,-21,2
1921,14,-19,1104,6,-56,16
1922,259,6,1131,6,-44,17
1923,295,36,1053,21,-4,2
1924,92,2,958,-19,35,-2
1925,-207,-72,814,-29,49,-2
1926,-326,-57,891,-9,8,-3
1927,-140,-46,1018,-5,-42,8
1928,170,-6,1147,5,-57,20
1929,303,24,1088,19,-23,8
1930,209,36,1030,6,17,-2
1931,-56,-49,846,-38,47,-1
1932,-313,-59,843,-7,34,-3
1933,-257,-54,947,-12,-22,1
1934,26,-18,1111,4,-57,16
1935,257,12,1123,9,-44,17
1936,294,37,1055,18,-3,2
1937,80,-13,938,-28,37,-2
1938,-215,-69,823,-20,49,-2
1939,-320,-57,892,-12,6,-1
1940,-126,-48,1024,-3,-44,11
1941,169,3,1140,9,-56,20
1942,308,32,1090,19,-22,7
1943,195,25,1021,-1,19,-1
1944,-68,-47,844,-31,48,-3
1945,-308,-56,845,-10,29,-4
1946,-253,-57,953,-11,-22,2
1947,38,-17,1110,3,-58,18
1948,262,22,1125,11,-41,16
1949,284,39,1053,14,-2,1
1950,69,-15,929,-26,36,-3
1951,-216,-64,830,-20,47,-2
1952,-318,-71,888,-16,3,-3
1953,-119,-44,1038,3,-46,9
1954,184,5,1144,5,-56,19
1955,303,29,1086,19,-20,9
1956,185,23,1004,-3,21,0
1957,-77,-45,849,-29,49,-2
1958,-313,-63,850,-12,29,-5
1959,-244,-60,965,-7,-25,4
1960,49,-10,1115,3,-58,18
1961,263,21,1120,11,-40,15
1962,282,33,1041,11,0,1
1963,54,-9,930,-22,39,-2
1964,-225,-74,833,-24,46,-4
1965,-310,-70,894,-12,2,-2
1966,-103,-37,1045,3,-46,12
1967,190,0,1140,5,-54,19
1968,301,28,1080,18,-18,6
1969,172,28,1003,0,22,-2
1970,-87,-51,842,-32,49,-2
1971,-309,-63,852,-12,28,-5
1972,-233,-55,974,-6,-27,4
1973,66,-9,1125,1,-59,16
1974,270,12,1112,10,-37,13
1975,269,39,1038,15,1,0
1976,44,-10,927,-24,39,-3
1977,-234,-79,823,-25,44,-3
1978,-305,-62,905,-8,0,-1
1979,-84,-34,1054,-2,-49,12
1980,201,-5,1136,3,-52,18
1981,297,37,1079,22,-17,7
1982,165,27,994,-6,25,-1
1983,-100,-59,836,-33,49,-2
1984,-318,-61,863,-10,25,-5
1985,-224,-56,979,-6,-28,4
1986,80,-14,1123,1,-60,18
1987,270,16,1110,15,-37,14
1988,265,45,1042,14,3,0
1989,31,-20,911,-28,41,-2
1990,-246,-73,825,-19,43,-4
1991,-298,-61,907,-9,-2,-1
1992,-75,-40,1060,-2,-49,12
1993,205,-1,1138,8,-53,18
1994,299,41,1079,21,-17,5
1995,153,21,987,-9,25,-1
1996,-113,-61,827,-31,49,-2
1997,-312,-56,870,-8,24,-4
1998,-215,-60,985,-8,-29,4
1999,87,-8,1126,3,-59,17
2000,278,24,1106,16,-35,11
2001,258,40,1037,9,4,0
2002,16,-27,898,-31,43,-1
2003,-252,-65,832,-18,41,-4
2004,-290,-63,913,-10,-4,-2
2005,-64,-41,1059,-2,-51,12
2006,217,5,1143,13,-51,19
2007,299,41,1076,17,-17,6
2008,144,12,971,-11,27,-1
2009,-131,-47,840,-27,49,-2
2010,-317,-62,867,-12,23,-5
2011,-210,-59,995,-6,-31,5
2012,105,-11,1122,2,-59,19
2013,286,20,1117,17,-35,13
2014,254,36,1030,8,6,0
2015,6,-20,900,-24,43,-2
2016,-262,-66,819,-21,42,-3
2017,-289,-68,917,-7,-4,-2
2018,-56,-36,1070,-2,-51,13
2019,222,8,1149,13,-51,19
2020,296,33,1065,14,-14,5
2021,141,19,974,-7,28,0
2022,-140,-48,834,-30,49,-3
2023,-318,-70,863,-14,22,-3
2024,-200,-56,1002,-4,-33,5
2025,117,-10,1124,5,-60,19
2026,290,18,1111,14,-33,13
2027,245,37,1026,11,8,-1
2028,-3,-18,901,-25,43,-1
2029,-272,-72,812,-23,40,-3
2030,-285,-61,927,-7,-7,0
2031,-42,-34,1066,1,-54,13
2032,238,5,1157,12,-48,20
2033,299,32,1059,17,-12,5
2034,133,27,980,-8,30,-2
2035,-156,-59,827,-34,49,-2
2036,-323,-64,868,-9,21,-3
2037,-199,-51,1007,-8,-35,7
2038,129,-15,1131,4,-59,19
2039,294,18,1112,13,-32,13
2040,245,41,1023,13,10,0
2041,-11,-23,893,-33,43,-1
2042,-282,-70,814,-18,41,-4
2043,-284,-59,930,-7,-9,0
2044,-33,-35,1076,0,-54,13
2045,241,3,1149,9,-48,19
2046,297,40,1062,17,-12,5
2047,128,17,971,-12,30,-1
2048,-167,-60,820,-33,48,-3
2049,-322,-58,871,-8,18,-4
2050,-185,-55,1005,-8,-38,8
2051,139,-16,1130,7,-58,20
2052,298,27,1109,15,-30,11
2053,239,38,1031,8,11,-2
2054,-20,-39,882,-37,44,-2
2055,-294,-63,816,-13,41,-2
2056,-277,-62,934,-12,-12,-2
2057,-20,-41,1079,0,-54,15
2058,248,11,1156,13,-46,19
2059,301,40,1059,16,-9,4
2060,121,6,962,-16,31,-1
2061,-183,-54,824,-28,50,-2
2062,-328,-60,876,-11,16,-5
2063,-182,-57,1003,-9,-39,7
2064,146,-5,1137,9,-59,19
2065,302,26,1108,12,-30,10
2066,237,32,1027,9,14,-3
2067,-31,-26,881,-33,45,-2
2068,-301,-62,819,-16,40,-4
2069,-275,-70,934,-12,-15,1
2070,-18,-32,1082,3,-54,16
2071,252,10,1157,13,-48,18
2072,305,32,1057,15,-7,3
2073,114,12,964,-9,33,-2
2074,-186,-51,817,-29,49,-3
2075,-326,-62,874,-10,15,-3
2076,-178,-49,1002,-8,-39,8
2077,152,0,1144,10,-59,19
2078,304,21,1109,11,-29,10
2079,229,27,1023,8,15,0
2080,-31,-26,877,-33,43,-1
2081,-300,-69,821,-16,38,-5
2082,-273,-66,936,-13,-16,1
2083,-2,-27,1095,3,-55,15
2084,255,4,1147,10,-46,17
2085,295,34,1052,18,-6,3
2086,106,8,965,-13,33,-1
2087,-200,-59,816,-31,50,-4
2088,-331,-61,881,-9,11,-5
2089,-164,-46,1005,-6,-42,8
2090,161,1,1146,8,-58,20
2091,305,22,1094,9,-27,9
2092,223,32,1027,10,15,-3
2093,-36,-32,872,-36,45,-2
2094,-306,-71,821,-16,37,-4
2095,-270,-59,941,-12,-19,2
2096,6,-24,1101,3,-56,15
2097,254,-2,1133,6,-45,17
2098,298,41,1058,22,-4,3
2099,104,9,959,-18,35,-1
2100,-203,-64,810,-27,50,-3
2101,-330,-53,888,-9,9,-3
2102,-152,-42,1012,-4,-42,9
2103,161,-4,1147,4,-57,19
2104,307,20,1092,15,-25,9
2105,216,34,1030,8,16,0
2106,-52,-44,855,-37,47,-1
2107,-311,-64,835,-10,34,-4
2108,-260,-57,947,-10,-20,2
2109,16,-26,1105,3,-56,16
2110,255,7,1128,11,-44,17
2111,296,43,1056,20,-3,2
2112,90,-8,947,-25,36,-2
2113,-211,-66,818,-21,49,-2
2114,-323,-52,888,-13,6,-3
2115,-139,-41,1021,-2,-43,9
2116,169,0,1146,3,-57,18
2117,310,25,1091,17,-24,8
2118,204,28,1025,3,17,-1
2119,-57,-52,847,-35,49,-3
2120,-308,-62,838,-10,32,-4
2121,-255,-63,952,-10,-22,1
2122,31,-28,1105,4,-58,16
2123,256,20,1126,14,-43,16
2124,291,40,1049,16,-2,2
2125,77,-9,940,-24,37,-2
2126,-216,-61,824,-20,48,-3
2127,-317,-57,893,-14,4,-2
2128,-129,-45,1029,-3,-43,11
2129,177,3,1136,4,-57,20
2130,307,30,1096,18,-22,8
2131,192,18,1011,-4,19,-2
2132,-68,-45,845,-28,48,-1
2133,-311,-59,853,-11,29,-4
2134,-248,-68,947,-11,-23,3
2135,43,-15,1115,6,-59,17
2136,264,16,1122,12,-40,15
2137,284,31,1047,15,0,1
2138,62,-4,931,-22,39,-1
2139,-218,-61,831,-23,46,-4
2140,-316,-65,890,-14,2,-2
2141,-114,-36,1038,-1,-45,11
2142,187,6,1150,5,-55,20
2143,304,27,1084,15,-20,7
2144,184,24,1005,0,21,0
2145,-77,-47,847,-32,49,-1
2146,-312,-70,847,-15,28,-4
2147,-240,-60,965,-7,-24,2
2148,57,-13,1123,2,-57,16
2149,264,12,1116,12,-38,15
2150,275,37,1042,16,1,2
2151,48,-8,925,-22,41,-2
2152,-228,-69,828,-24,45,-3
2153,-309,-58,900,-9,1,-1
2154,-99,-31,1044,-2,-46,10
2155,194,4,1146,6,-55,19
2156,301,32,1079,17,-18,7
2157,168,27,1000,-3,21,-3
2158,-90,-60,840,-34,47,-2
2159,-313,-69,853,-12,27,-2
2160,-232,-60,975,-6,-26,2
2161,78,-18,1124,3,-60,17
2162,269,17,1110,15,-37,15
2163,266,43,1040,13,2,0
2164,40,-15,918,-25,42,-2
2165,-241,-68,824,-20,45,-4
2166,-307,-57,907,-9,-1,-2
2167,-81,-35,1054,-4,-48,11
2168,199,2,1137,6,-53,18
2169,301,36,1077,21,-18,6
2170,161,24,991,-8,24,-1
2171,-104,-63,834,-33,49,-2
2172,-314,-61,864,-10,24,-4
2173,-219,-63,987,-6,-27,3
2174,83,-19,1117,2,-60,17
2175,274,20,1110,20,-36,13
2176,261,44,1042,12,5,2
2177,22,-20,907,-27,43,-1
2178,-247,-65,824,-17,42,-3
2179,-298,-54,910,-11,-2,-2
2180,-72,-39,1060,-3,-50,13
2181,210,7,1144,11,-52,20
2182,300,39,1079,14,-17,5
2183,149,15,977,-11,25,-1
2184,-122,-55,837,-29,49,-2
2185,-313,-66,863,-13,21,-4
2186,-209,-64,993,-7,-30,5
2187,98,-18,1118,3,-60,17
2188,283,24,1114,18,-35,12
2189,257,39,1033,8,6,1
2190,9,-19,899,-26,43,-1
2191,-263,-60,828,-16,42,-4
2192,-288,-61,916,-9,-5,-1
2193,-62,-33,1062,-1,-52,13
2194,220,13,1148,10,-51,18
2195,301,34,1072,11,-16,6
2196,139,14,975,-7,28,-2
2197,-137,-57,832,-32,48,-2
2198,-315,-73,865,-11,21,-4
2199,-202,-62,1000,-3,-33,5
2200,120,-12,1123,6,-59,20
2201,286,20,1115,16,-32,12
2202,248,38,1026,10,9,-2
2203,2,-13,901,-25,44,1
2204,-276,-65,816,-22,42,-2
2205,-287,-65,920,-7,-7,-1
2206,-47,-25,1068,0,-52,14
2207,231,6,1154,8,-51,18
2208,301,28,1059,13,-14,4
2209,135,24,981,-4,30,-1
2210,-151,-65,828,-38,49,-2
2211,-321,-68,870,-9,21,-4
2212,-199,-57,1000,-8,-35,5
2213,130,-13,1135,8,-59,19
2214,295,17,1102,13,-32,13
2215,242,46,1031,14,10,-1
2216,-12,-24,892,-33,44,-3
2217,-284,-70,812,-18,41,-3
2218,-281,-57,928,-8,-9,0
2219,-33,-31,1076,1,-54,13
2220,239,7,1153,12,-49,19
2221,300,37,1060,14,-11,5
2222,128,18,975,-8,30,-2
2223,-168,-65,813,-37,48,-2
2224,-325,-60,878,-5,19,-3
2225,-185,-59,1002,-10,-38,7
2226,141,-13,1137,10,-58,18
2227,297,20,1106,12,-31,11
2228,240,40,1032,13,10,-1
2229,-19,-32,880,-33,44,-1
2230,-296,-59,819,-13,40,-3
2231,-280,-61,932,-11,-13,-1
2232,-18,-35,1085,-1,-55,14
2233,244,6,1150,12,-48,16
2234,304,39,1059,17,-11,3
2235,121,10,969,-16,32,-1
2236,-185,-64,817,-30,49,-2
2237,-324,-59,877,-6,15,-4
2238,-181,-58,1003,-11,-39,7
2239,147,-9,1136,9,-58,20
2240,305,29,1107,14,-29,11
2241,235,34,1027,6,13,0
2242,-31,-31,877,-35,44,-3
2243,-298,-60,818,-12,40,-5
2244,-272,-61,935,-13,-14,0
2245,-15,-34,1087,3,-55,16
2246,251,9,1152,12,-47,17
2247,298,37,1060,16,-9,2
2248,114,1,960,-16,32,-2
2249,-187,-54,818,-24,49,-2
2250,-329,-60,877,-10,12,-4
2251,-173,-55,1006,-6,-40,8
2252,158,0,1146,9,-57,19
2253,307,19,1100,11,-28,9
2254,227,31,1027,10,14,-1
2255,-36,-31,867,-34,45,-2
2256,-307,-59,829,-11,37,-5
2257,-271,-66,932,-14,-17,1
2258,-3,-20,1098,5,-56,16
2259,257,7,1146,7,-46,18
2260,303,28,1043,15,-6,3
2261,102,10,965,-15,34,-1
2262,-196,-65,815,-27,48,-3
2263,-326,-64,879,-8,10,-2
2264,-163,-45,1013,-3,-42,9
2265,166,-3,1145,7,-58,20
2266,305,23,1098,16,-25,10
2267,217,37,1028,7,15,-1
2268,-44,-34,858,-36,46,-2
2269,-308,-62,832,-12,36,-4
2270,-266,-64,932,-12,-19,1
2271,5,-16,1111,5,-56,15
2272,259,0,1134,6,-44,16
2273,298,35,1049,22,-4,4
2274,96,5,957,-18,35,-2
2275,-202,-72,810,-29,50,-3
2276,-331,-55,892,-8,8,-2
2277,-145,-42,1013,-5,-43,8
2278,166,1,1148,7,-57,19
2279,304,23,1090,15,-24,8
2280,212,34,1029,8,16,-1
2281,-55,-44,854,-37,48,-3
2282,-312,-65,834,-10,34,-4
2283,-262,-56,945,-12,-22,1
2284,24,-22,1109,2,-57,16
2285,255,6,1127,9,-42,16
2286,294,39,1054,22,-3,1
2287,83,-3,950,-24,36,-1
2288,-213,-69,814,-24,49,-2
2289,-323,-53,891,-10,5,-2
2290,-130,-43,1025,-4,-44,10
2291,174,-4,1143,2,-56,19
2292,309,32,1092,20,-22,8
2293,202,31,1023,0,19,-2
2294,-65,-55,840,-38,49,-1
2295,-313,-57,849,-7,31,-4
2296,-255,-64,952,-12,-22,2
2297,37,-25,1113,4,-57,17
2298,261,13,1116,11,-41,16
2299,293,40,1056,20,-1,1
2300,72,-12,932,-26,39,-1
2301,-220,-64,828,-19,49,-3
2302,-318,-57,890,-12,4,-3
2303,-122,-40,1037,0,-44,9
2304,173,5,1140,5,-56,20
2305,306,36,1092,20,-23,7
2306,187,18,1007,-5,19,-2
2307,-70,-49,845,-30,48,-2
2308,-305,-61,853,-13,28,-4
2309,-245,-68,956,-9,-23,3
2310,46,-20,1115,3,-57,17
2311,264,15,1119,14,-39,15
2312,279,38,1051,17,1,2
2313,59,-13,920,-24,38,-2
2314,-226,-58,834,-18,46,-3
2315,-311,-62,890,-16,2,-3
2316,-105,-38,1044,0,-46,11
2317,189,6,1140,7,-55,19
2318,303,26,1086,17,-20,5
2319,176,18,996,-3,21,-3
2320,-82,-48,847,-28,48,-2
2321,-313,-70,851,-17,27,-3
2322,-235,-59,971,-4,-25,3
2323,64,-11,1118,3,-59,19
2324,267,15,1117,14,-38,16
2325,272,39,1037,13,2,1
2326,45,-8,924,-23,40,-1
2327,-235,-69,825,-24,45,-3
2328,-311,-62,901,-9,0,-2
2329,-90,-31,1049,-1,-48,11
2330,200,3,1144,4,-54,20
2331,300,32,1076,18,-19,7
2332,166,28,997,-3,23,-3
2333,-96,-60,839,-35,49,-3
2334,-312,-67,857,-10,26,-3
2335,-230,-57,981,-5,-27,3
2336,80,-14,1124,4,-60,18
2337,271,17,1109,14,-37,13
2338,265,47,1043,15,4,0
2339,34,-16,912,-29,42,-1
2340,-245,-68,829,-20,43,-4
2341,-305,-62,904,-9,-1,-3
2342,-75,-34,1059,-1,-50,11
2343,204,3,1140,5,-53,19
2344,300,37,1076,20,-15,6
2345,154,23,989,-7,25,-2
2346,-114,-61,834,-32,50,-2
2347,-316,-61,863,-10,24,-4
2348,-213,-58,989,-8,-29,4
2349,90,-19,1118,1,-59,19
2350,279,23,1113,18,-35,14
2351,259,43,1040,10,4,0
2352,18,-21,901,-28,44,-2
2353,-255,-67,825,-19,42,-4
2354,-296,-61,914,-9,-3,-2
2355,-61,-41,1059,-4,-51,14
2356,212,8,1147,9,-52,18
2357,301,37,1070,16,-16,5
2358,149,17,980,-9,26,-2
2359,-128,-60,829,-34,49,-2
2360,-317,-60,872,-9,22,-4
2361,-209,-68,992,-9,-31,5
2362,107,-13,1122,6,-60,20
2363,282,24,1112,16,-33,13
2364,254,37,1029,7,5,-1
2365,5,-19,901,-27,43,-2
2366,-266,-60,825,-18,42,-3
2367,-289,-66,916,-9,-5,0
2368,-58,-36,1063,-3,-50,15
2369,225,12,1149,14,-51,18
2370,301,33,1073,7,-16,4
2371,136,14,971,-5,28,-2
2372,-139,-53,834,-31,47,-2
2373,-316,-68,861,-12,21,-4
2374,-204,-60,1001,-7,-33,6
2375,117,-7,1127,5,-59,20
2376,287,22,1116,15,-34,11
2377,246,34,1021,7,8,0
2378,0,-16,899,-23,44,-2
2379,-275,-68,820,-22,42,-3
2380,-284,-66,922,-8,-7,-1
2381,-45,-32,1071,-1,-54,13
2382,233,6,1150,11,-50,18
2383,300,32,1059,11,-14,5
2384,132,23,975,-3,30,-2
2385,-152,-58,826,-35,47,-3
2386,-324,-67,872,-9,20,-4
2387,-196,-58,1002,-7,-36,6
2388,131,-10,1129,5,-60,19
2389,293,17,1109,12,-33,12
2390,245,42,1028,12,10,-1
2391,-8,-21,893,-30,44,-2
2392,-285,-68,816,-18,41,-3
2393,-283,-66,925,-11,-9,0
2394,-34,-30,1079,2,-54,15
2395,239,2,1152,11,-48,19
2396,300,33,1057,15,-12,4
2397,132,24,978,-7,30,-3
2398,-167,-62,818,-36,49,-2
2399,-328,-59,879,-6,19,-5
2400,-191,-53,1001,-8,-36,6
2401,137,-14,1136,7,-59,18
2402,296,18,1104,13,-31,12
2403,239,44,1033,14,11,-1
2404,-19,-34,884,-39,43,-2
2405,-294,-63,820,-13,40,-4
2406,-277,-64,924,-12,-12,-1
2407,-23,-33,1086,2,-54,14
2408,244,4,1149,10,-47,18
2409,301,44,1060,20,-9,3
2410,124,14,970,-15,31,-2
2411,-179,-65,816,-32,49,-3
2412,-324,-52,875,-5,16,-3
2413,-184,-54,1002,-10,-38,8
2414,147,-14,1141,8,-58,19
2415,304,21,1105,14,-30,11
2416,238,38,1031,11,13,0
2417,-24,-39,874,-36,46,-3
2418,-296,-57,826,-10,39,-4
2419,-278,-65,927,-12,-13,0
2420,-17,-30,1090,3,-54,14
2421,251,8,1149,10,-47,19
2422,302,44,1061,20,-8,5
2423,114,6,960,-20,33,-1
2424,-188,-58,819,-27,49,-1
2425,-328,-58,880,-11,14,-3
2426,-177,-55,1003,-8,-39,7
2427,152,-5,1138,6,-58,20
2428,308,21,1105,13,-30,10
2429,228,29,1027,7,16,-2
2430,-32,-31,872,-31,46,-1
2431,-298,-59,827,-14,38,-4
2432,-275,-65,932,-11,-15,1
2433,-9,-24,1093,5,-55,14
2434,254,9,1145,9,-47,17
2435,300,32,1056,16,-7,3
2436,110,8,962,-12,33,-2
2437,-195,-58,816,-32,49,-3
2438,-329,-64,878,-10,12,-3
2439,-165,-47,1009,-4,-41,8
2440,163,-1,1149,9,-57,19
2441,310,13,1095,11,-27,9
2442,223,36,1029,11,15,-1
2443,-38,-34,869,-35,46,-2
2444,-309,-68,826,-13,38,-4
2445,-271,-60,937,-12,-19,1
2446,2,-21,1104,6,-56,16
2447,260,6,1137,6,-46,16
2448,300,37,1051,19,-6,3
2449,102,5,960,-16,34,-1
2450,-203,-66,819,-28,50,-3
2451,-329,-64,878,-11,11,-2
2452,-159,-38,1014,-2,-42,9
2453,165,-8,1142,4,-59,19
2454,309,19,1097,13,-26,9
2455,219,40,1034,10,16,0
2456,-43,-43,855,-39,46,-2
2457,-311,-62,832,-8,37,-4
2458,-265,-54,943,-11,-20,2
2459,14,-20,1104,5,-57,16
2460,255,4,1126,8,-44,16
2461,297,42,1064,24,-4,2
2462,99,-1,949,-23,34,0
2463,-209,-64,817,-22,50,-2
2464,-326,-62,888,-12,7,-4
2465,-143,-43,1022,0,-44,8
2466,164,-7,1137,5,-56,18
2467,307,22,1092,18,-24,10
2468,210,32,1027,5,17,0
2469,-53,-47,850,-37,48,-1
2470,-310,-58,843,-7,34,-4
2471,-259,-57,948,-12,-21,1
2472,23,-19,1104,5,-58,15
2473,256,13,1123,11,-42,16
2474,295,40,1060,19,-4,2
2475,83,-7,939,-25,38,-1
2476,-213,-65,821,-22,48,-3
2477,-318,-58,886,-13,4,-2
2478,-135,-47,1024,-3,-43,9
2479,172,0,1140,8,-58,20
2480,308,34,1098,18,-24,7
2481,200,21,1016,-2,19,-1
2482,-63,-44,845,-30,49,-1
2483,-313,-57,848,-10,32,-3
2484,-254,-61,950,-13,-23,2
2485,31,-12,1112,4,-57,17
2486,263,15,1120,10,-42,17
2487,289,35,1052,16,-2,1
2488,74,-11,935,-25,37,-1
2489,-218,-64,833,-22,48,-3
2490,-320,-66,889,-13,4,-3
2491,-125,-46,1032,0,-44,10
2492,180,2,1144,7,-56,20
2493,307,27,1087,20,-21,8
2494,192,22,1011,0,20,-1
2495,-70,-42,850,-30,50,-1
2496,-314,-63,846,-14,30,-4
2497,-249,-60,956,-8,-23,3
2498,41,-11,1114,4,-57,17
2499,264,14,1119,7,-41,15
2500,284,31,1046,14,-1,2
2501,65,-7,936,-20,38,-2
2502,-220,-69,827,-26,47,-3
2503,-319,-64,895,-10,4,-3
2504,-116,-40,1035,-1,-45,10
2505,186,2,1146,8,-55,20
2506,300,23,1079,16,-20,8
2507,183,30,1010,3,20,-1
2508,-76,-46,846,-33,49,-2
2509,-313,-63,850,-12,29,-4
2510,-241,-55,965,-8,-24,2
2511,55,-13,1120,3,-58,17
2512,261,12,1112,9,-39,15
2513,279,37,1040,15,0,1
2514,56,-8,938,-22,39,-3
2515,-226,-80,821,-24,46,-3
2516,-311,-55,901,-6,0,-2
2517,-101,-44,1042,-4,-47,10
2518,193,-1,1140,6,-54,20
2519,302,37,1084,22,-17,8
2520,174,26,1002,-4,21,-2
2521,-88,-58,840,-31,49,-2
2522,-311,-58,857,-9,27,-3
2523,-234,-55,972,-6,-26,4
2524,64,-15,1119,0,-60,19
2525,268,16,1110,12,-40,15
2526,273,45,1046,17,0,0
2527,47,-22,920,-30,40,-2
2528,-233,-70,830,-18,46,-3
2529,-310,-59,902,-11,1,-2
2530,-91,-42,1046,0,-47,10
2531,192,1,1140,5,-53,20
2532,305,40,1081,23,-18,6
2533,171,26,997,-6,24,-1
2534,-95,-56,839,-31,50,-3
2535,-314,-52,862,-9,26,-3
2536,-233,-62,973,-10,-26,3
2537,71,-14,1119,2,-60,19
2538,272,23,1117,15,-38,14
2539,268,34,1035,10,1,0
2540,39,-22,912,-23,40,-2
2541,-236,-63,841,-17,44,-3
2542,-298,-69,893,-13,-1,-2
2543,-88,-39,1057,0,-47,12
2544,201,4,1146,8,-53,18
2545,302,34,1074,18,-18,7
2546,152,22,988,-5,25,-2
2547,-104,-53,836,-31,49,-1
2548,-316,-58,867,-12,25,-4
2549,-217,-70,974,-9,-27,4
2550,83,-3,1135,6,-59,18
2551,276,16,1105,8,-37,12
2552,261,35,1028,11,3,2
2553,24,-12,919,-24,43,-2
2554,-245,-69,829,-22,43,-2
2555,-302,-65,906,-10,-2,-1
2556,-74,-37,1056,-2,-50,13
2557,209,8,1146,7,-52,19
2558,302,29,1065,14,-16,6
2559,153,26,990,-4,27,-1
2560,-115,-52,842,-31,49,-2
2561,-318,-67,857,-14,23,-4
2562,-222,-58,992,-6,-29,6
2563,92,-12,1121,-1,-60,19
2564,278,18,1112,15,-35,14
2565,259,43,1030,11,4,0
2566,21,-13,918,-25,42,-2
2567,-251,-74,818,-25,42,-3
2568,-295,-62,911,-6,-3,-1
2569,-69,-36,1063,0,-51,12
2570,212,2,1144,7,-51,20
2571,296,33,1067,18,-15,6
2572,152,27,985,-3,27,-2
2573,-123,-57,835,-34,50,-3
2574,-317,-67,865,-10,23,-4
2575,-215,-54,996,-6,-31,5
2576,100,-16,1120,-1,-60,19
2577,281,15,1104,16,-34,14
2578,255,47,1040,13,4,1
2579,16,-26,898,-30,43,0
2580,-261,-65,833,-14,44,-4
2581,-292,-64,904,-12,-4,-3
2582,-60,-29,1073,3,-52,12
2583,217,-3,1131,4,-51,19
2584,298,42,1073,20,-15,7
2585,145,27,986,-10,27,-2
2586,-127,-65,824,-35,48,-2
2587,-318,-58,877,-8,23,-4
2588,-206,-63,987,-10,-32,5
2589,102,-14,1130,4,-59,18
2590,283,19,1103,16,-33,13
2591,254,46,1037,13,7,1
2592,7,-25,898,-32,44,0
2593,-264,-64,825,-16,42,-2
2594,-290,-59,922,-9,-5,-3
2595,-55,-38,1061,-1,-52,13
2596,220,13,1146,12,-49,19
2597,304,39,1069,15,-15,5
2598,141,20,976,-10,28,-1
2599,-139,-59,837,-30,48,-3
2600,-312,-67,868,-12,21,-3
2601,-207,-61,1003,-7,-32,6
2602,113,-20,1114,3,-60,20
2603,288,26,1117,19,-33,13
2604,249,38,1030,6,6,-1
2605,4,-24,895,-24,43,-1
2606,-271,-60,832,-17,42,-4
2607,-288,-70,916,-12,-6,-1
2608,-53,-34,1069,0,-52,14
2609,227,10,1149,11,-51,18
2610,304,33,1063,14,-15,5
2611,137,20,975,-8,29,-1
2612,-143,-55,832,-33,48,-3
2613,-319,-70,869,-12,21,-5
2614,-205,-60,1003,-6,-33,6
2615,118,-12,1120,6,-61,20
2616,292,21,1115,16,-33,14
2617,250,36,1022,9,8,1
2618,0,-14,904,-24,44,-2
2619,-273,-70,819,-22,42,-4
2620,-288,-66,917,-8,-7,-1
2621,-53,-27,1073,-1,-53,13
2622,232,6,1144,10,-52,18
2623,298,30,1063,14,-14,5
2624,138,22,978,-5,28,-2
2625,-145,-60,828,-35,48,-3
2626,-319,-67,875,-11,23,-3
2627,-200,-60,997,-6,-34,6
2628,118,-11,1131,7,-59,18
2629,289,15,1106,13,-32,12
2630,246,42,1030,15,9,1
2631,-4,-19,899,-29,43,-1
2632,-274,-74,813,-21,41,-2
2633,-287,-59,928,-6,-8,-2
2634,-41,-32,1074,-2,-54,14
2635,235,2,1143,10,-50,18
2636,300,37,1067,16,-13,6
2637,135,19,975,-10,29,-1
2638,-158,-61,832,-32,49,-3
2639,-323,-63,874,-9,21,-5
2640,-196,-56,998,-7,-36,6
2641,127,-14,1128,4,-60,20
2642,296,17,1106,15,-32,13
2643,250,45,1033,13,9,0
2644,-11,-26,894,-34,44,-1
2645,-282,-65,815,-15,42,-4
2646,-284,-53,928,-6,-8,-1
2647,-39,-38,1070,-2,-54,14
2648,237,7,1145,12,-49,19
2649,299,42,1069,16,-13,5
2650,134,11,972,-14,30,-1
2651,-162,-61,820,-31,48,-2
2652,-322,-57,880,-6,19,-5
2653,-191,-65,998,-10,-37,6
2654,128,-10,1130,7,-59,19
2655,297,26,1108,17,-32,12
2656,246,36,1026,8,11,-1
2657,-14,-27,888,-30,45,0
2658,-285,-57,821,-17,41,-4
2659,-282,-66,928,-11,-9,-1
2660,-32,-38,1071,-1,-55,15
2661,242,8,1147,14,-50,18
2662,306,35,1066,15,-12,4
2663,129,8,967,-11,31,-2
2664,-168,-53,831,-28,48,-2
2665,-323,-64,869,-9,18,-4
2666,-191,-57,1002,-8,-36,7
2667,133,-9,1132,8,-59,20
2668,300,21,1108,15,-33,12
2669,238,37,1031,10,12,-2
2670,-16,-24,888,-32,43,-2
2671,-288,-61,816,-18,41,-4
2672,-281,-64,928,-10,-11,-1
2673,-32,-31,1075,2,-54,14
2674,244,11,1159,10,-49,17
2675,303,29,1055,12,-12,4
2676,123,18,970,-5,31,-3
2677,-172,-57,827,-33,48,-2
2678,-321,-65,872,-7,18,-3
2679,-193,-54,1003,-8,-37,7
2680,144,-10,1131,9,-60,20
2681,302,19,1106,12,-30,12
2682,239,39,1028,10,12,-1
2683,-15,-28,885,-33,44,-2
2684,-295,-61,820,-17,41,-3
2685,-282,-65,924,-11,-12,-1
2686,-26,-26,1083,3,-55,14
2687,247,2,1150,8,-48,18
2688,302,34,1054,15,-12,3
2689,125,19,974,-7,30,-2
2690,-175,-63,819,-35,49,-1
2691,-326,-66,875,-7,17,-3
2692,-183,-50,1006,-8,-38,7
2693,143,-14,1137,6,-58,19
2694,300,17,1099,13,-30,11
2695,236,45,1034,15,12,0
2696,-25,-28,881,-36,45,-2
2697,-299,-65,817,-14,41,-4
2698,-278,-57,935,-9,-14,1
2699,-19,-32,1082,0,-55,15
2700,248,1,1145,10,-48,19
2701,304,41,1059,18,-9,3
2702,123,15,972,-14,33,-1
2703,-187,-66,813,-37,50,-2
2704,-331,-56,879,-5,14,-6
2705,-182,-57,1001,-12,-40,7
2706,149,-12,1136,11,-57,21
2707,301,25,1107,11,-29,11
2708,238,36,1030,13,13,-1
2709,-28,-31,882,-37,45,-1
2710,-298,-61,819,-11,39,-3
2711,-277,-58,933,-11,-14,0
2712,-20,-35,1084,-1,-55,14
2713,250,6,1150,12,-48,18
2714,301,40,1063,16,-9,3
2715,118,5,961,-16,32,-2
2716,-186,-59,819,-28,49,-3
2717,-328,-60,879,-7,14,-4
2718,-176,-59,1006,-10,-40,7
2719,152,-9,1137,10,-57,20
2720,308,27,1103,14,-30,10
2721,234,33,1032,7,13,0
2722,-33,-35,869,-36,45,-2
2723,-307,-52,834,-9,38,-4
2724,-273,-70,927,-15,-15,1
2725,-12,-25,1092,4,-55,16
2726,254,5,1143,11,-47,16
2727,305,33,1058,16,-7,2
2728,113,10,965,-12,33,-1
2729,-191,-56,819,-29,47,-2
2730,-332,-64,877,-7,13,-4
2731,-172,-53,1001,-6,-40,7
2732,153,0,1147,10,-58,19
2733,310,13,1096,12,-29,10
2734,228,35,1029,11,15,0
2735,-33,-30,874,-34,45,-3
2736,-305,-63,820,-14,38,-4
2737,-278,-61,939,-11,-15,0
2738,-6,-24,1089,4,-57,16
2739,251,9,1150,11,-47,17
2740,304,27,1050,12,-7,3
2741,111,10,966,-12,32,0
2742,-193,-63,820,-30,49,-3
2743,-326,-67,873,-9,13,-3
2744,-170,-44,1011,-4,-41,9
2745,164,-14,1138,7,-58,19
2746,306,17,1098,15,-26,11
2747,224,39,1034,13,17,-2
2748,-38,-30,875,-35,45,-3
2749,-308,-63,825,-13,39,-4
2750,-274,-57,936,-11,-18,2
2751,-2,-22,1091,2,-55,17
2752,255,4,1146,7,-47,18
2753,303,34,1052,19,-7,3
2754,107,9,969,-16,34,-2
2755,-196,-73,807,-32,50,-2
2756,-329,-57,885,-6,10,-3
2757,-167,-46,1008,-9,-41,8
2758,163,-8,1142,8,-58,19
2759,306,25,1095,16,-26,9
2760,224,38,1033,7,16,-1
2761,-39,-43,865,-39,46,-1
2762,-312,-57,833,-9,37,-3
2763,-269,-57,934,-14,-19,1
2764,4,-28,1099,3,-57,16
2765,253,4,1134,10,-44,17
2766,306,41,1061,18,-7,3
2767,103,1,956,-20,34,-2
2768,-205,-61,817,-24,49,-2
2769,-328,-58,881,-10,10,-3
2770,-157,-46,1016,-6,-41,9
2771,165,-9,1132,6,-58,21
2772,308,27,1103,17,-25,9
2773,221,28,1030,3,16,-1
2774,-46,-40,858,-34,47,-1
2775,-309,-54,838,-8,35,-3
2776,-266,-64,932,-13,-19,1
2777,5,-25,1105,3,-56,15
2778,260,10,1133,10,-47,17
2779,298,42,1059,19,-4,2
2780,97,-4,949,-22,35,-2
2781,-205,-60,821,-22,49,-3
2782,-328,-56,892,-10,9,-4
2783,-150,-52,1005,-4,-42,8
2784,163,4,1151,8,-56,20
2785,312,24,1090,13,-25,9
2786,213,27,1027,7,17,-1
2787,-50,-36,863,-33,47,-2
2788,-312,-61,832,-12,34,-5
2789,-265,-59,946,-12,-21,1
2790,14,-19,1098,3,-57,18
2791,259,12,1130,9,-44,17
2792,299,32,1054,17,-4,3
2793,93,3,953,-18,35,-1
2794,-210,-60,821,-26,49,-2
2795,-328,-66,882,-11,8,-3
2796,-147,-42,1019,-3,-43,9
2797,169,-3,1145,6,-57,20
2798,310,17,1090,15,-24,9
2799,208,29,1024,7,18,-2
2800,-52,-37,860,-35,47,-2
2801,-311,-68,833,-12,34,-3
2802,-261,-56,950,-10,-19,2
2803,23,-21,1101,2,-57,16
2804,259,6,1129,9,-44,18
2805,294,38,1047,18,-4,2
2806,86,0,950,-19,36,-1
2807,-211,-66,825,-25,49,-3
2808,-324,-63,884,-13,7,-3
2809,-140,-37,1026,-1,-43,8
2810,174,-4,1141,4,-57,19
2811,307,23,1088,17,-23,9
2812,203,33,1025,5,18,-1
2813,-58,-47,855,-35,47,-2
2814,-310,-63,840,-11,33,-3
2815,-255,-59,947,-11,-21,2
2816,33,-18,1112,5,-57,17
2817,260,9,1119,7,-42,16
2818,291,41,1054,22,-3,2
2819,78,-3,945,-25,37,-2
2820,-216,-70,819,-24,49,-2
2821,-324,-56,893,-10,4,-2
2822,-126,-41,1024,-3,-45,10
2823,177,-2,1141,4,-57,19
2824,311,27,1084,19,-22,7
2825,198,30,1024,1,19,-1
2826,-66,-58,846,-38,48,-2
2827,-317,-58,852,-5,31,-4
2828,-251,-60,950,-13,-21,1
2829,37,-20,1112,4,-58,18
2830,258,16,1115,12,-41,15
2831,288,45,1054,20,-2,0
2832,73,-11,934,-28,38,-1
2833,-220,-62,831,-20,47,-2
2834,-319,-61,889,-15,3,-4
2835,-120,-45,1035,0,-44,10
2836,179,0,1140,4,-57,20
2837,307,29,1084,18,-21,7
2838,187,28,1014,-1,20,-1
2839,-71,-50,842,-33,49,-2
2840,-309,-55,851,-9,30,-3
2841,-247,-64,955,-12,-23,2
2842,44,-13,1116,5,-57,17
2843,263,19,1117,10,-41,14
2844,284,36,1049,16,-1,1
2845,61,-13,924,-25,39,-1
2846,-221,-65,836,-20,46,-3
2847,-315,-60,898,-13,2,-1
2848,-112,-40,1033,0,-45,10
2849,187,7,1142,6,-54,20
2850,304,30,1084,17,-21,7
2851,179,22,1000,-3,21,-2
2852,-79,-43,856,-29,50,-2
2853,-313,-65,847,-14,28,-3
2854,-242,-62,966,-9,-24,2
2855,58,-14,1111,4,-58,18
2856,268,16,1117,11,-38,15
2857,277,36,1045,14,0,2
2858,54,-8,928,-22,40,-1
2859,-233,-68,834,-21,46,-4
2860,-312,-69,889,-13,1,-2
2861,-106,-31,1049,3,-48,12
2862,191,2,1141,2,-54,19
2863,305,25,1074,20,-19,6
2864,173,33,1009,2,22,-2
2865,-81,-52,836,-35,49,-2
2866,-317,-64,860,-12,27,-4
2867,-235,-61,967,-6,-24,2
2868,66,-8,1119,4,-59,17
2869,264,11,1112,8,-37,15
2870,276,33,1032,16,1,3
2871,46,-6,936,-22,39,-1
2872,-232,-80,823,-25,44,-4
2873,-305,-55,904,-6,0,-3
2874,-93,-33,1047,-2,-47,11
2875,198,0,1138,4,-54,20
2876,299,34,1079,19,-18,7
2877,168,31,1001,-4,21,-2
2878,-93,-60,837,-36,49,-3
2879,-313,-61,859,-9,26,-4
2880,-227,-58,974,-8,-27,3
2881,75,-21,1122,1,-60,19
2882,273,17,1110,14,-37,14
2883,268,44,1042,16,3,0
2884,35,-20,916,-27,42,-2
2885,-241,-70,826,-18,44,-2
2886,-308,-57,906,-9,-1,-3
2887,-80,-40,1053,-3,-49,11
2888,199,6,1140,6,-54,20
2889,300,41,1077,19,-17,5
2890,163,18,986,-9,24,-3
2891,-105,-56,840,-29,49,-3
2892,-315,-62,864,-12,25,-4
2893,-223,-63,986,-7,-29,3
2894,84,-23,1114,1,-61,18
2895,275,24,1112,18,-36,14
2896,267,43,1044,13,4,1
2897,26,-24,904,-29,43,-1
2898,-247,-61,836,-16,44,-2
2899,-298,-65,905,-12,-2,-3
2900,-77,-40,1056,-2,-50,12
2901,206,9,1143,9,-52,20
2902,303,35,1077,17,-17,6
2903,153,19,979,-8,26,-2
2904,-114,-51,841,-29,49,-2
2905,-313,-68,861,-14,23,-4
2906,-220,-65,989,-7,-28,5
2907,91,-12,1121,2,-60,18
2908,283,24,1114,16,-34,12
2909,258,38,1029,7,5,0
2910,16,-16,908,-24,43,-1
2911,-253,-67,829,-19,43,-3
2912,-297,-66,909,-7,-4,-2
2913,-67,-33,1061,-1,-51,13
2914,218,5,1142,8,-53,19
2915,301,35,1074,16,-17,7
2916,150,22,978,-6,27,-2
2917,-126,-52,837,-32,50,-2
2918,-318,-67,865,-14,24,-5
2919,-212,-60,994,-4,-31,5
2920,105,-8,1124,3,-60,18
2921,286,15,1106,14,-34,11
2922,256,44,1033,14,7,0
2923,13,-10,906,-26,44,-2
2924,-262,-72,819,-23,42,-3
2925,-295,-62,919,-7,-5,-1
2926,-57,-33,1067,-2,-53,13
2927,223,1,1148,7,-52,19
2928,302,29,1061,13,-16,5
2929,143,26,981,-3,28,-1
2930,-138,-62,832,-35,48,-3
2931,-320,-67,868,-8,22,-5
2932,-206,-51,1003,-5,-32,6
2933,115,-15,1121,0,-59,19
2934,289,21,1106,17,-34,13
2935,251,46,1030,12,7,-1
2936,5,-24,901,-32,43,-1
2937,-273,-68,820,-19,42,-3
2938,-288,-63,918,-9,-7,-2
2939,-49,-35,1074,0,-52,13
2940,229,0,1140,8,-50,19
2941,299,43,1071,22,-14,5
2942,138,22,978,-10,29,-1
2943,-148,-60,822,-33,49,-2
2944,-320,-55,874,-5,22,-4
2945,-197,-58,1000,-8,-34,6
2946,119,-14,1127,2,-59,19
2947,291,25,1110,16,-32,12
2948,249,44,1032,10,9,-1
2949,-6,-26,889,-31,44,-1
2950,-280,-64,821,-18,42,-3
2951,-285,-67,924,-9,-9,-1
2952,-41,-40,1073,-2,-54,13
2953,235,5,1146,14,-49,19
2954,307,42,1066,17,-13,5
2955,132,15,971,-12,31,-1
2956,-161,-57,829,-30,50,-2
2957,-322,-58,875,-9,20,-5
2958,-196,-62,998,-9,-36,6
2959,127,-4,1128,7,-59,20
2960,298,24,1110,13,-33,11
2961,244,35,1029,8,9,-2
2962,-14,-23,892,-32,44,-1
2963,-286,-65,814,-17,40,-4
2964,-280,-68,928,-10,-11,-1
2965,-35,-34,1077,0,-54,14
2966,241,4,1154,11,-49,17
2967,305,33,1059,15,-12,4
2968,127,19,972,-9,32,-1
2969,-171,-56,818,-33,50,-2
2970,-326,-60,874,-8,19,-2
2971,-194,-55,1002,-7,-36,7
2972,139,-6,1133,9,-59,19
2973,303,19,1108,11,-31,12
2974,239,36,1026,10,11,-1
2975,-18,-26,885,-32,45,-3
2976,-290,-68,819,-16,41,-3
2977,-279,-66,929,-9,-12,0
2978,-23,-32,1083,3,-54,14
2979,250,3,1152,12,-47,19
2980,303,35,1053,16,-9,4
2981,120,21,975,-6,33,-1
2982,-183,-58,817,-36,51,-2
2983,-328,-63,872,-8,16,-5
2984,-186,-48,1006,-8,-39,6
2985,152,-12,1137,4,-59,18
2986,306,19,1106,13,-30,12
2987,235,39,1028,13,13,-1
2988,-25,-32,881,-36,45,-2
2989,-303,-70,817,-13,40,-4
2990,-279,-63,934,-9,-15,0
2991,-16,-30,1088,0,-55,16
2992,253,2,1147,9,-47,17
2993,306,40,1058,20,-9,4
2994,117,15,968,-15,33,-1
2995,-187,-62,813,-32,51,-2
2996,-334,-56,881,-7,14,-3
2997,-177,-53,1000,-9,-40,7
2998,153,-11,1143,5,-58,19
2999,302,19,1098,12,-28,11
3000,235,36,1031,11,12,-1
3001,-33,-36,874,-37,45,-1
3002,-305,-64,821,-11,39,-3
3003,-270,-58,934,-9,-17,-1
3004,-5,-33,1093,1,-55,15
3005,251,5,1142,12,-44,18
3006,302,43,1063,20,-6,2
3007,108,2,961,-20,33,-1
3008,-201,-61,810,-25,51,-2
3009,-328,-53,879,-9,10,-3
3010,-164,-53,1014,-7,-42,8
3011,157,-7,1141,7,-57,20
3012,310,27,1103,16,-28,8
3013,226,29,1030,5,16,-1
3014,-42,-42,859,-36,46,0
3015,-308,-57,835,-8,36,-4
3016,-270,-68,938,-16,-18,0
3017,1,-27,1096,6,-55,15
3018,256,16,1144,10,-46,18
3019,303,34,1054,14,-5,2
3020,98,1,951,-18,35,-1
3021,-205,-58,822,-23,49,-3
3022,-325,-59,880,-11,10,-3
3023,-156,-47,1012,-5,-41,8
3024,166,-4,1146,8,-58,20
3025,311,21,1095,13,-26,9
3026,213,25,1026,7,17,-2
3027,-49,-40,858,-35,46,-2
3028,-309,-56,832,-9,36,-4
3029,-264,-64,937,-14,-19,2
3030,16,-15,1111,6,-56,16
3031,260,10,1132,7,-44,17
3032,296,34,1050,16,-3,1
3033,88,3,951,-17,35,-3
3034,-209,-60,820,-26,48,-2
3035,-328,-67,881,-13,7,-3
3036,-143,-41,1021,0,-43,9
3037,173,2,1147,8,-57,19
3038,308,18,1091,13,-23,9
3039,206,28,1025,8,16,-1
3040,-53,-42,854,-33,46,-2
3041,-312,-66,838,-10,32,-4
3042,-260,-57,946,-10,-22,2
3043,31,-17,1113,3,-57,17
3044,262,6,1124,4,-43,16
3045,291,36,1051,24,-1,1
3046,80,-3,947,-26,36,-2
3047,-217,-72,816,-22,48,-4
3048,-325,-55,889,-12,5,-4
3049,-129,-37,1029,1,-46,9
3050,178,0,1146,1,-58,20
3051,306,26,1085,20,-23,8
3052,196,30,1018,0,20,-2
3053,-65,-53,846,-36,48,-1
3054,-315,-63,843,-10,31,-4
3055,-250,-59,956,-10,-23,2
3056,44,-20,1120,4,-57,18
3057,261,8,1112,10,-40,16
3058,286,44,1054,21,-1,1
3059,66,-12,933,-27,38,-2
3060,-226,-66,825,-18,47,-2
3061,-317,-55,895,-13,1,-1
3062,-114,-37,1037,1,-46,10
3063,183,0,1135,1,-55,21
3064,306,36,1092,23,-21,7
3065,184,26,1010,-7,20,-1
3066,-82,-60,840,-34,49,-2
3067,-315,-62,851,-9,27,-4
3068,-239,-61,965,-9,-25,2
3069,60,-27,1113,1,-58,19
3070,268,20,1115,18,-39,16
3071,280,42,1050,16,1,2
3072,51,-16,919,-28,41,-2
3073,-233,-60,827,-15,46,-2
3074,-311,-53,898,-11,0,-3
3075,-98,-47,1044,-3,-47,11
3076,190,7,1142,8,-56,21
3077,302,36,1084,16,-20,8
3078,171,17,995,-7,22,-2
3079,-90,-54,840,-31,49,-1
3080,-312,-61,861,-12,27,-5
3081,-229,-69,970,-9,-25,3
3082,70,-12,1120,4,-59,18
3083,270,21,1109,15,-38,13
3084,269,37,1042,13,1,0
3085,34,-15,918,-24,40,-1
3086,-240,-64,833,-21,44,-2
3087,-305,-64,902,-12,-1,-3
3088,-82,-35,1051,2,-49,11
3089,204,8,1144,6,-54,19
3090,303,33,1074,14,-18,7
3091,156,24,990,-6,25,-1
3092,-107,-55,842,-32,49,-3
3093,-313,-70,857,-12,25,-4
3094,-225,-56,992,-4,-28,4
3095,90,-17,1111,2,-60,19
3096,277,24,1121,18,-35,15
3097,259,38,1032,10,4,0
3098,23,-15,908,-24,42,-1
3099,-257,-68,832,-22,42,-3
3100,-297,-69,901,-13,-4,-1
3101,-71,-27,1070,2,-50,11
3102,219,-3,1138,5,-52,19
3103,302,32,1066,17,-16,8
3104,149,31,991,-4,28,-1
3105,-125,-64,824,-37,49,-2
3106,-324,-64,876,-9,23,-5
3107,-210,-64,986,-7,-31,4
3108,105,-7,1132,7,-61,18
3109,281,14,1106,11,-35,14
3110,259,40,1026,16,5,1
3111,4,-10,920,-26,43,-3
3112,-262,-81,804,-25,43,-3
3113,-295,-53,931,-4,-5,-2
3114,-52,-39,1061,-5,-53,12
3115,227,2,1145,11,-51,19
3116,294,40,1073,17,-15,4
3117,147,18,975,-9,27,-2
3118,-147,-58,830,-32,49,-3
3119,-321,-65,871,-9,21,-4
3120,-200,-57,998,-6,-33,5
3121,119,-19,1129,1,-59,18
3122,293,18,1101,18,-33,13
3123,246,48,1038,14,9,0
3124,-3,-30,889,-35,44,-2
3125,-279,-59,824,-15,42,-3
3126,-285,-60,925,-10,-8,-2
3127,-37,-37,1071,-1,-54,13
3128,232,9,1149,12,-50,18
3129,307,38,1066,14,-13,4
3130,132,13,974,-12,31,-2
3131,-164,-60,827,-32,48,-3
3132,-320,-63,870,-8,18,-4
3133,-194,-60,1007,-10,-35,6
3134,132,-13,1130,7,-59,19
3135,299,24,1108,16,-31,13
3136,238,38,1032,9,11,0
3137,-13,-32,875,-33,44,0
3138,-288,-52,825,-12,40,-3
3139,-281,-66,926,-12,-11,-1
3140,-30,-32,1083,0,-54,15
3141,245,14,1155,13,-49,18
3142,304,37,1062,12,-11,4
3143,121,12,969,-13,33,-1
3144,-175,-59,814,-30,50,-1
3145,-329,-62,880,-10,17,-4
3146,-186,-64,1000,-11,-38,6
3147,152,-5,1142,12,-58,19
3148,303,19,1107,13,-29,11
3149,237,28,1020,10,14,0
3150,-29,-20,888,-28,45,0
3151,-300,-63,811,-18,39,-4
3152,-279,-62,935,-8,-14,-1
3153,-14,-25,1088,0,-55,16
3154,254,9,1157,9,-48,18
3155,303,33,1055,13,-8,3
3156,118,11,962,-13,32,-2
3157,-190,-61,818,-31,48,-2
3158,-325,-70,868,-10,13,-2
3159,-174,-48,1015,-5,-41,8
3160,159,-11,1142,9,-59,18
3161,309,19,1099,13,-28,9
3162,223,39,1036,10,15,0
3163,-35,-33,862,-37,45,0
3164,-309,-57,825,-10,39,-4
3165,-271,-60,936,-14,-18,0
3166,1,-21,1100,3,-56,16
3167,253,4,1145,4,-46,18
3168,304,33,1048,18,-6,2
3169,106,13,968,-16,33,-1
3170,-202,-73,809,-32,49,-2
3171,-325,-62,878,-8,9,-4
3172,-157,-42,1020,-5,-42,7
3173,170,-12,1143,6,-58,20
3174,302,26,1097,18,-25,10
3175,217,41,1035,9,16,-2
3176,-44,-46,848,-39,47,-1
3177,-313,-49,837,-6,37,-4
3178,-263,-59,931,-15,-21,1
3179,14,-18,1118,6,-56,17
3180,254,3,1127,4,-45,17
3181,300,42,1054,21,-6,2
3182,90,-3,955,-25,35,-2
3183,-210,-77,805,-28,48,-2
3184,-328,-52,893,-9,6,-3
3185,-136,-52,1025,-5,-44,8
3186,174,-8,1141,5,-56,21
3187,309,35,1096,23,-23,9
3188,209,27,1022,1,17,-1
3189,-64,-44,848,-34,49,-2
3190,-314,-52,847,-9,31,-4
3191,-256,-61,944,-12,-23,3
3192,28,-21,1115,3,-57,16
3193,266,14,1118,9,-42,17
3194,287,39,1061,17,-2,2
3195,75,-15,933,-28,38,-2
3196,-215,-66,825,-19,48,-2
3197,-319,-61,894,-13,4,-3
3198,-120,-54,1022,-3,-44,10
3199,180,9,1154,10,-55,20
3200,307,26,1085,16,-22,8
3201,188,22,1010,-1,21,0
3202,-76,-37,850,-28,49,-1
3203,-312,-61,839,-15,29,-4
3204,-251,-61,965,-8,-23,1
3205,49,-18,1113,2,-58,18
3206,266,21,1123,13,-40,15
3207,285,30,1044,12,0,1
3208,60,-16,928,-24,39,-1
3209,-229,-67,833,-21,47,-3
3210,-313,-66,891,-13,2,-3
3211,-109,-34,1044,3,-45,10
3212,188,5,1141,4,-56,19
3213,306,30,1082,17,-21,6
3214,174,27,1006,-3,21,-2
3215,-84,-48,840,-32,49,-1
3216,-313,-63,854,-14,28,-3
3217,-234,-62,968,-7,-25,3
3218,68,-12,1119,2,-59,18
3219,270,12,1117,12,-38,14
3220,268,39,1033,15,2,0
3221,41,-7,925,-22,41,-2
3222,-235,-74,824,-23,45,-2
3223,-308,-63,902,-9,-1,-2
3224,-84,-32,1056,1,-48,11
3225,207,-3,1143,4,-55,21
3226,300,32,1075,20,-17,7
3227,163,31,994,-3,24,-1
3228,-104,-61,832,-35,50,-3
3229,-323,-64,867,-9,25,-5
3230,-221,-59,977,-8,-29,4
3231,84,-12,1127,3,-61,18
3232,275,12,1102,12,-35,13
3233,268,48,1043,17,3,-1
3234,21,-16,915,-29,42,-1
3235,-254,-73,822,-20,44,-2
3236,-299,-59,911,-9,-3,-2
3237,-69,-37,1060,0,-51,11
3238,210,3,1139,6,-52,20
3239,301,42,1075,21,-16,5
3240,149,28,993,-7,26,-2
3241,-128,-62,824,-36,49,-1
3242,-316,-58,871,-10,22,-4
3243,-209,-63,993,-7,-31,3
3244,103,-20,1123,1,-60,19
3245,285,20,1111,18,-34,13
3246,256,44,1034,11,6,-1
3247,6,-26,896,-32,44,-2
3248,-268,-63,823,-18,42,-2
3249,-293,-62,918,-9,-6,-3
3250,-52,-38,1066,-2,-52,13
3251,224,4,1144,10,-50,19
3252,303,38,1069,16,-15,6
3253,136,19,977,-9,28,-1
3254,-150,-60,825,-32,49,-2
3255,-317,-61,874,-9,21,-4
3256,-201,-66,995,-9,-34,5
3257,122,-10,1132,6,-60,19
3258,296,20,1108,14,-33,11
3259,245,39,1031,11,10,0
3260,-9,-19,898,-29,45,-2
3261,-279,-62,814,-19,41,-5
3262,-287,-61,925,-8,-8,0
3263,-43,-36,1074,-2,-54,15
3264,238,9,1153,13,-51,19
3265,301,39,1067,13,-12,5
3266,131,15,968,-9,30,-2
3267,-163,-52,825,-31,49,-3
3268,-320,-69,868,-11,18,-4
3269,-196,-58,1009,-8,-36,6
3270,133,-13,1126,7,-58,19
3271,300,22,1116,15,-32,12
3272,241,33,1019,9,12,0
3273,-18,-18,888,-29,44,-1
3274,-293,-64,816,-18,41,-4
3275,-278,-63,931,-10,-12,-1
3276,-29,-26,1081,-1,-54,15
3277,249,6,1153,10,-50,18
3278,300,33,1057,12,-10,4
3279,122,14,970,-11,32,-1
3280,-179,-63,821,-34,48,-3
3281,-329,-71,871,-9,17,-4
3282,-181,-52,1007,-6,-39,6
3283,153,-12,1141,7,-60,19
3284,305,16,1100,13,-29,12
3285,231,42,1027,13,14,-2
3286,-29,-27,881,-34,44,-1
3287,-306,-63,816,-14,40,-4
3288,-278,-55,936,-11,-15,1
3289,-12,-28,1092,1,-56,15
3290,255,2,1146,7,-48,18
3291,302,41,1055,18,-9,2
3292,118,12,969,-17,31,-2
3293,-193,-71,805,-33,50,-2
3294,-332,-57,885,-4,13,-4
3295,-169,-52,1010,-8,-41,6
3296,161,-13,1142,7,-58,20
3297,305,26,1098,19,-28,10
3298,230,40,1033,8,14,-1
3299,-38,-37,862,-37,47,1
3300,-311,-52,828,-8,37,-4
3301,-267,-57,932,-14,-19,0
3302,0,-26,1104,4,-55,16
3303,253,8,1135,7,-45,17
3304,302,40,1059,21,-7,2
3305,101,-1,955,-24,34,-3
3306,-203,-67,809,-23,49,-2
3307,-324,-56,886,-10,8,-3
3308,-150,-54,1016,-6,-42,9
3309,167,-7,1148,7,-56,20
3310,308,29,1094,17,-24,9
3311,212,27,1027,4,17,-2
3312,-54,-43,851,-34,47,-2
3313,-312,-54,837,-8,36,-3
3314,-263,-58,945,-15,-21,1
3315,19,-20,1107,4,-56,15
3316,260,16,1131,10,-43,17
3317,297,34,1054,15,-4,3
3318,83,-9,939,-25,35,-2
3319,-214,-61,822,-22,49,-4
3320,-323,-62,886,-13,5,-4
3321,-137,-51,1023,-4,-43,8
3322,175,0,1148,8,-56,20
3323,313,27,1094,18,-22,8
3324,200,26,1015,1,19,-2
3325,-65,-37,852,-31,49,-2
3326,-312,-57,839,-11,32,-4
3327,-257,-57,951,-10,-21,3
3328,34,-15,1113,3,-59,18
3329,263,15,1128,10,-42,15
3330,287,30,1045,13,-2,2
3331,71,-6,935,-20,37,-1
3332,-219,-65,826,-24,47,-3
3333,-314,-67,885,-10,3,-2
3334,-115,-39,1041,1,-44,9
3335,187,-2,1141,5,-54,19
3336,303,30,1084,19,-19,7
3337,181,25,1009,1,21,-1
3338,-79,-46,845,-32,50,0
3339,-314,-62,846,-13,29,-4
3340,-243,-54,964,-7,-26,2
3341,60,-9,1122,1,-60,18
3342,269,13,1117,10,-40,15
3343,277,35,1039,17,0,0
3344,51,-7,934,-22,40,-2
3345,-232,-75,818,-26,46,-3
3346,-312,-61,896,-7,-1,-2
3347,-92,-37,1051,0,-48,10
3348,198,-2,1145,4,-54,19
3349,299,31,1080,22,-18,6
3350,167,31,999,-2,23,-2
3351,-100,-56,829,-34,50,0
3352,-315,-59,858,-9,25,-4
3353,-226,-52,978,-8,-27,3
3354,79,-12,1124,0,-60,17
3355,272,18,1112,13,-36,13
3356,266,46,1042,14,4,-1
3357,32,-25,911,-33,41,-1
3358,-246,-74,825,-19,43,-2
3359,-302,-64,906,-10,-2,-3
3360,-70,-41,1058,0,-50,12
3361,208,-1,1141,8,-51,19
3362,304,37,1071,21,-16,6
3363,150,28,994,-5,27,0
3364,-125,-63,827,-34,49,-2
3365,-318,-52,869,-6,22,-4
3366,-211,-60,990,-9,-31,4
3367,97,-11,1118,3,-59,19
3368,283,24,1114,14,-35,14
3369,261,40,1036,8,4,1
3370,12,-25,898,-29,43,-1
3371,-262,-65,827,-17,42,-3
3372,-288,-69,908,-12,-4,-2
3373,-59,-37,1074,0,-52,13
3374,226,0,1145,11,-51,18
3375,301,42,1070,22,-15,5
3376,139,23,981,-10,29,-2
3377,-141,-56,821,-34,46,-4
3378,-321,-52,877,-9,20,-4
3379,-203,-64,997,-7,-33,6
3380,116,-11,1126,2,-60,18
3381,295,26,1115,19,-34,11
3382,248,34,1025,2,9,1
3383,-7,-25,893,-28,44,-1
3384,-276,-65,823,-19,39,-4
3385,-285,-70,920,-11,-7,-2
3386,-42,-33,1076,1,-53,13
3387,241,6,1151,13,-49,18
3388,302,33,1064,13,-12,3
3389,130,19,975,-8,30,-1
3390,-162,-54,821,-32,48,-2
3391,-327,-63,872,-7,20,-6
3392,-193,-55,1002,-6,-36,5
3393,136,-7,1137,6,-59,19
3394,300,17,1108,11,-32,11
3395,241,40,1024,12,11,-1
3396,-15,-23,892,-32,44,-1
3397,-291,-71,810,-19,41,-4
3398,-284,-64,932,-7,-13,-2
3399,-26,-33,1084,1,-55,13
3400,251,0,1153,10,-49,18
3401,300,35,1056,20,-9,3
3402,123,19,973,-11,33,-1
3403,-180,-63,812,-33,48,-1
3404,-333,-58,878,-6,17,-4
3405,-180,-50,1003,-9,-40,6
3406,150,-5,1145,8,-58,18
3407,305,14,1097,10,-29,12
3408,235,41,1033,14,13,0
3409,-27,-37,875,-38,44,-2
3410,-304,-64,818,-11,39,-4
3411,-275,-61,927,-12,-15,0
3412,-7,-27,1103,4,-57,16
3413,251,0,1143,7,-46,18
3414,301,42,1063,23,-8,3
3415,111,12,962,-18,33,-1
3416,-197,-64,808,-29,51,-3
3417,-331,-55,880,-8,11,-5
3418,-165,-49,1013,-6,-41,7
3419,159,-13,1140,5,-58,19
3420,307,24,1101,18,-27,9
3421,227,37,1035,6,15,-1
3422,-42,-46,854,-40,47,-1
3423,-312,-55,834,-6,38,-4
3424,-268,-66,935,-13,-18,-1
3425,7,-29,1105,5,-56,16
3426,256,9,1136,9,-45,18
3427,302,40,1061,21,-6,1
3428,98,0,952,-22,35,-2
3429,-208,-59,812,-23,50,-3
3430,-327,-54,887,-11,7,-4
3431,-148,-50,1012,-5,-42,8
3432,167,-2,1148,7,-58,21
3433,307,28,1093,18,-25,9
3434,209,27,1027,3,17,-2
3435,-55,-45,851,-36,48,-1
3436,-309,-59,833,-9,33,-4
3437,-260,-62,945,-11,-21,1
3438,26,-22,1110,3,-58,17
3439,259,16,1132,12,-43,17
3440,293,38,1056,19,-2,2
3441,79,-6,934,-26,37,-1
3442,-217,-58,823,-20,48,-1
3443,-323,-63,885,-13,5,-2
3444,-129,-41,1033,-2,-45,10
3445,179,4,1146,6,-57,19
3446,313,29,1088,17,-23,7
3447,195,26,1012,-1,20,-2
3448,-69,-46,849,-32,49,-1
3449,-315,-66,842,-13,31,-3
3450,-251,-64,956,-9,-22,1
3451,46,-15,1118,5,-59,16
3452,263,10,1120,10,-40,15
3453,283,34,1047,18,0,1
3454,66,-1,935,-21,39,-1
3455,-224,-68,823,-24,47,-2
3456,-317,-61,891,-13,2,-2
3457,-111,-33,1042,0,-46,11
3458,188,3,1147,4,-54,20
3459,305,29,1082,17,-20,8
3460,178,31,1006,-1,21,-2
3461,-82,-51,841,-35,50,-2
3462,-314,-69,845,-15,28,-4
3463,-242,-58,974,-6,-25,2
3464,69,-18,1119,5,-59,18
3465,266,16,1115,13,-36,16
3466,268,39,1039,17,2,0
3467,44,-10,921,-24,40,-2
3468,-238,-68,825,-22,45,-3
3469,-308,-56,903,-10,-1,-2
3470,-85,-33,1053,0,-49,10
3471,198,3,1139,2,-53,19
3472,302,34,1079,18,-18,6
3473,164,26,993,-6,24,-2
3474,-107,-61,834,-32,49,-1
3475,-314,-67,857,-10,25,-3
3476,-220,-57,987,-6,-28,4
3477,87,-24,1119,-2,-60,17
3478,276,22,1115,19,-36,14
3479,261,50,1041,13,5,0
3480,25,-22,905,-32,42,-1
3481,-253,-67,821,-17,44,-2
3482,-296,-57,912,-8,-3,-3
3483,-65,-37,1062,-2,-50,11
3484,213,5,1141,8,-51,19
3485,302,40,1072,20,-16,5
3486,149,18,983,-11,27,-2
3487,-129,-65,828,-32,50,-1
3488,-318,-59,872,-9,22,-4
3489,-212,-65,994,-7,-31,5
3490,102,-17,1120,3,-60,19
3491,286,27,1111,19,-34,14
3492,256,43,1035,9,6,0
3493,5,-22,899,-27,43,-2
3494,-268,-59,820,-16,43,-4
3495,-294,-60,921,-9,-6,-2
3496,-55,-38,1065,-4,-53,14
3497,226,9,1148,12,-51,19
3498,305,33,1070,12,-16,5
3499,137,16,975,-9,28,-2
3500,-147,-56,829,-29,49,-2
3501,-318,-67,867,-11,20,-4
3502,-204,-58,999,-6,-33,5
3503,123,-10,1130,6,-59,19
3504,295,21,1114,15,-32,12
3505,245,40,1025,9,11,0
3506,-9,-21,892,-28,45,-1
3507,-280,-63,816,-18,41,-2
3508,-285,-65,927,-10,-9,0
3509,-36,-34,1077,0,-54,13
3510,243,6,1155,12,-50,18
3511,301,30,1057,13,-12,3
3512,130,15,970,-7,31,-2
3513,-169,-56,825,-34,48,-2
3514,-325,-70,866,-9,19,-4
3515,-190,-53,1006,-4,-38,6
3516,144,-11,1134,5,-58,19
3517,304,18,1107,13,-30,12
3518,240,45,1029,13,14,0
3519,-20,-22,886,-33,44,-1
3520,-296,-63,812,-18,41,-4
3521,-281,-61,931,-10,-13,-2
3522,-20,-29,1089,1,-56,13
3523,251,3,1154,8,-50,17
3524,303,33,1052,17,-8,4
3525,125,21,974,-9,32,-1
3526,-185,-65,807,-37,50,-2
3527,-336,-57,883,-5,16,-4
3528,-174,-51,1003,-8,-41,6
3529,153,-14,1144,7,-58,19
3530,303,19,1097,16,-28,10
3531,234,45,1036,12,13,-1
3532,-35,-34,870,-40,46,-2
3533,-308,-60,819,-10,40,-5
3534,-275,-60,934,-13,-17,-1
3535,-5,-30,1095,3,-56,14
3536,254,4,1144,8,-46,17
3537,303,43,1060,20,-8,2
3538,113,5,962,-22,33,-2
3539,-199,-65,811,-27,51,-1
3540,-328,-56,878,-9,12,-3
3541,-163,-50,1015,-6,-42,7
3542,160,-16,1136,4,-57,19
3543,307,29,1104,20,-26,9
3544,222,33,1033,6,15,-2
3545,-44,-42,853,-37,47,0
3546,-309,-52,833,-8,36,-4
3547,-269,-60,942,-12,-19,0
3548,8,-27,1103,3,-55,15
3549,255,13,1137,11,-45,17
3550,301,38,1059,19,-5,0
3551,98,-6,946,-23,34,-1
3552,-208,-58,820,-19,49,-1
3553,-326,-64,881,-13,9,-3
3554,-147,-51,1018,-3,-42,8
3555,166,2,1147,7,-58,21
3556,311,25,1092,17,-25,8
3557,211,28,1023,2,18,-1
3558,-57,-38,850,-33,47,-2
3559,-311,-55,840,-10,32,-4
3560,-259,-65,943,-13,-20,1
3561,22,-19,1107,6,-58,17
3562,260,14,1133,9,-45,15
3563,294,30,1048,15,-2,2
3564,80,-2,943,-20,35,0
3565,-214,-60,822,-22,47,-3
3566,-324,-69,879,-14,5,-4
3567,-130,-39,1037,-1,-44,9
3568,180,0,1145,5,-57,18
3569,306,23,1088,17,-20,8
3570,196,28,1014,4,20,-1
3571,-69,-41,848,-33,49,0
3572,-316,-62,846,-13,31,-4
3573,-253,-59,951,-10,-23,4
3574,43,-12,1122,4,-59,17
3575,265,9,1115,8,-42,17
3576,285,35,1046,18,-1,0
3577,64,-2,942,-24,38,-2
3578,-218,-74,818,-26,47,-1
3579,-321,-59,898,-9,3,-2
3580,-110,-42,1030,-1,-45,10
3581,190,2,1149,4,-56,19
3582,304,26,1085,18,-20,7
3583,184,26,1002,1,21,0
3584,-84,-47,851,-32,50,-2
3585,-314,-74,833,-15,27,-4
3586,-240,-49,977,-4,-25,3
3587,62,-23,1120,-1,-59,17
3588,269,15,1111,15,-39,16
3589,275,45,1051,19,1,0
3590,49,-20,912,-31,40,-2
3591,-237,-67,829,-18,46,-3
3592,-313,-60,900,-14,-1,-3
3593,-91,-38,1051,1,-47,10
3594,197,2,1145,4,-54,19
3595,306,33,1071,22,-18,6
3596,165,29,1002,-5,23,-1
3597,-99,-63,831,-34,50,-2
3598,-316,-57,863,-9,26,-4
3599,-228,-59,983,-9,-28,4
3600,84,-18,1119,0,-60,20
3601,270,20,1111,16,-36,13
3602,269,45,1046,14,4,0
3603,32,-23,908,-30,43,-1
3604,-251,-63,830,-17,43,-2
3605,-298,-64,897,-11,-2,-1
3606,-77,-34,1066,-1,-49,11
3607,206,0,1136,5,-53,19
3608,306,41,1082,22,-18,6
3609,153,19,986,-11,27,-2
3610,-115,-61,829,-31,49,-1
3611,-316,-56,870,-8,23,-4
3612,-216,-65,988,-10,-29,4
3613,97,-12,1122,4,-61,20
3614,282,27,1111,16,-35,13
3615,258,32,1032,7,4,-1
3616,14,-21,904,-26,44,0
3617,-262,-62,828,-19,42,-2
3618,-293,-69,911,-10,-5,-1
3619,-57,-38,1065,-2,-52,13
3620,221,9,1146,12,-51,18
3621,303,35,1068,13,-14,5
3622,140,19,979,-6,28,-2
3623,-140,-52,835,-31,49,-2
3624,-318,-68,864,-12,20,-4
3625,-206,-63,998,-7,-32,6
3626,116,-10,1129,4,-59,19
3627,294,17,1113,13,-32,13
3628,246,38,1025,11,9,1
3629,0,-18,897,-28,44,-1
3630,-276,-66,818,-18,41,-3
3631,-290,-66,923,-10,-7,-2
3632,-42,-29,1077,0,-54,14
3633,235,4,1151,8,-51,18
3634,300,29,1056,14,-12,5
3635,133,28,980,-5,30,0
3636,-158,-58,824,-36,47,-1
3637,-325,-69,873,-7,19,-4
3638,-198,-57,1003,-7,-35,4
3639,138,-11,1135,6,-59,19
3640,297,18,1105,13,-31,12
3641,242,44,1023,13,12,0
3642,-18,-20,896,-30,43,-2
3643,-290,-70,808,-18,40,-3
3644,-283,-57,933,-7,-12,-1
3645,-28,-34,1079,-1,-56,13
3646,248,1,1152,10,-49,18
3647,304,36,1063,17,-11,5
3648,127,19,970,-10,30,-2
3649,-182,-65,813,-33,51,-3
3650,-326,-59,872,-6,18,-4
3651,-186,-48,1009,-7,-39,7
3652,145,-20,1138,4,-58,19
3653,304,24,1106,16,-29,11
3654,235,44,1030,11,13,-2
3655,-27,-37,874,-38,45,0
3656,-300,-60,818,-10,40,-3
3657,-277,-55,939,-9,-16,0
3658,-13,-38,1084,1,-56,15
3659,253,6,1150,10,-48,17
3660,305,42,1059,19,-8,1
3661,116,4,964,-19,34,0
3662,-193,-62,813,-26,49,-1
3663,-331,-54,879,-9,14,-4
3664,-171,-54,1010,-7,-40,7
3665,157,-8,1137,8,-58,19
3666,309,27,1104,16,-27,10
3667,228,32,1032,6,15,-1
3668,-40,-37,863,-33,46,-1
3669,-311,-53,829,-10,39,-4
3670,-273,-64,932,-14,-17,-1
3671,0,-28,1099,4,-56,15
3672,257,9,1146,11,-46,17
3673,304,34,1053,18,-7,2
3674,104,4,958,-17,35,-1
3675,-204,-60,812,-27,49,-3
3676,-329,-57,882,-8,10,-4
3677,-157,-48,1014,-6,-42,8
3678,162,-2,1144,9,-57,19
3679,310,26,1099,14,-26,8
3680,218,28,1026,6,17,-1
3681,-48,-40,856,-35,46,-2
3682,-312,-55,836,-9,35,-5
3683,-268,-67,938,-15,-20,0
3684,14,-18,1105,7,-58,17
3685,263,13,1139,8,-45,16
3686,299,27,1048,14,-4,2
3687,86,4,949,-14,35,-2
3688,-209,-62,822,-27,49,-3
3689,-328,-63,882,-10,8,-2
3690,-143,-38,1023,-1,-44,10
3691,176,0,1150,7,-58,19
3692,308,18,1089,14,-23,8
3693,203,32,1023,6,18,0
3694,-58,-42,851,-38,48,-1
3695,-313,-66,834,-11,33,-4
3696,-256,-59,950,-10,-23,1
3697,34,-17,1118,5,-58,17
3698,262,7,1120,7,-42,14
3699,286,37,1048,20,-2,0
3700,74,0,943,-25,38,-1
3701,-223,-71,819,-26,48,-3
3702,-324,-55,891,-11,4,-3
3703,-121,-40,1035,-1,-45,10
3704,186,-3,1144,2,-55,21
3705,306,29,1084,20,-21,8
3706,190,31,1016,1,19,-1
3707,-75,-54,840,-38,49,-1
3708,-318,-59,851,-7,30,-3
3709,-244,-57,957,-11,-24,2
3710,52,-19,1122,3,-58,18
3711,263,10,1111,10,-40,16
3712,284,44,1055,24,0,0
3713,59,-14,927,-33,40,0
3714,-227,-69,818,-20,47,-2
3715,-313,-51,899,-7,1,-3
3716,-102,-43,1043,-3,-48,10
3717,191,0,1144,8,-55,18
3718,300,36,1085,19,-19,5
3719,175,25,1000,-6,21,-1
3720,-91,-57,835,-32,49,-2
3721,-315,-55,859,-8,27,-4
3722,-230,-62,968,-11,-26,3
3723,70,-16,1126,1,-60,18
3724,270,17,1106,15,-38,15
3725,271,45,1051,15,2,0
3726,36,-21,912,-28,41,-2
3727,-242,-65,827,-14,45,-4
3728,-304,-57,909,-10,-1,-3
3729,-82,-43,1046,-3,-49,12
3730,200,8,1147,8,-54,19
3731,309,34,1077,19,-19,6
3732,157,20,991,-7,26,-2
3733,-108,-59,833,-30,50,0
3734,-314,-60,862,-10,23,-4
3735,-225,-65,987,-6,-27,3
3736,91,-13,1116,2,-60,19
3737,277,27,1122,18,-37,13
3738,265,35,1027,6,3,0
3739,21,-15,912,-23,43,-2
3740,-254,-64,824,-22,42,-2
3741,-298,-66,904,-8,-3,-3
3742,-68,-34,1067,-1,-51,11
3743,219,7,1142,10,-51,19
3744,303,32,1071,17,-16,6
3745,148,18,983,-5,26,-2
3746,-131,-55,831,-31,49,-2
3747,-321,-62,872,-10,22,-4
3748,-207,-61,986,-5,-31,5
3749,104,-4,1130,5,-60,19
3750,290,13,1106,13,-34,14
3751,249,46,1032,15,8,0
3752,3,-17,905,-29,44,-2
3753,-269,-73,815,-22,41,-4
3754,-291,-62,919,-8,-5,-2
3755,-49,-31,1072,-2,-54,13
3756,231,1,1148,10,-51,19
3757,301,31,1062,16,-14,5
3758,137,25,982,-5,30,-2
3759,-150,-61,823,-36,49,-2
3760,-323,-64,870,-8,22,-3
3761,-200,-53,1003,-6,-33,5
3762,125,-12,1133,4,-61,18
3763,295,17,1106,14,-32,13
3764,247,46,1026,12,10,-1
3765,-7,-24,896,-31,44,-2
3766,-285,-74,810,-21,42,-3
3767,-284,-57,931,-7,-9,0
3768,-33,-38,1076,-3,-55,13
3769,241,5,1149,12,-49,19
3770,302,41,1062,17,-11,4
3771,129,18,975,-10,31,-2
3772,-172,-65,814,-34,50,-1
3773,-326,-55,877,-5,18,-4
3774,-189,-54,1005,-9,-38,8
3775,138,-17,1131,6,-59,20
3776,301,26,1109,16,-31,10
3777,240,43,1035,11,11,-1
3778,-24,-37,876,-39,45,0
3779,-294,-57,816,-12,40,-4
3780,-278,-63,931,-11,-13,-1
3781,-17,-39,1084,2,-55,14
3782,248,6,1154,12,-47,17
3783,306,39,1060,18,-10,3
3784,119,11,961,-15,32,0
3785,-191,-57,819,-29,49,-2
3786,-327,-59,877,-7,13,-5
3787,-180,-51,1009,-8,-40,6
3788,154,-11,1133,7,-59,19
3789,310,25,1099,15,-29,11
3790,231,34,1038,8,14,-1
3791,-32,-41,859,-36,45,-1
3792,-307,-51,834,-5,38,-4
3793,-275,-67,935,-16,-16,1
3794,-5,-35,1086,4,-56,17
3795,255,14,1151,15,-46,17
3796,309,35,1057,15,-7,2
3797,106,6,960,-15,35,-1
3798,-199,-53,818,-27,49,-1
3799,-328,-62,873,-10,12,-3
3800,-169,-47,1015,-6,-41,8
3801,163,-5,1144,6,-60,20
3802,309,20,1102,12,-27,9
3803,220,28,1020,6,16,-1
3804,-39,-32,865,-34,46,-1
3805,-310,-61,833,-11,37,-4
3806,-269,-64,937,-12,-19,1
3807,10,-20,1107,6,-56,15
3808,258,9,1139,7,-45,16
3809,300,30,1047,17,-5,2
3810,97,5,957,-17,35,-1
3811,-210,-64,817,-28,48,-2
3812,-327,-64,882,-11,8,-3
3813,-147,-40,1022,-1,-44,8
3814,172,0,1146,6,-57,19
3815,311,16,1091,13,-23,10
3816,210,34,1027,11,19,0
3817,-57,-39,857,-37,48,0
3818,-316,-69,825,-12,35,-4
3819,-262,-54,947,-8,-23,1
3820,29,-20,1115,5,-57,17
3821,263,6,1130,5,-42,16
3822,295,41,1053,25,-3,0
3823,83,2,948,-23,36,-1
3824,-219,-71,812,-27,49,-2
3825,-327,-53,893,-9,4,-3
3826,-129,-45,1028,-3,-45,9
3827,176,-5,1147,4,-57,20
3828,308,24,1090,18,-23,8
3829,199,30,1017,3,19,-1
3830,-69,-52,845,-35,50,-1
3831,-315,-58,845,-8,30,-5
3832,-248,-54,956,-9,-24,1
3833,40,-20,1117,3,-58,17
3834,265,16,1115,10,-42,16
3835,285,44,1055,18,-2,1
3836,66,-15,927,-32,38,-1
3837,-224,-66,827,-19,47,-2
3838,-320,-59,892,-13,2,-4
3839,-104,-44,1041,-1,-45,10
3840,184,-2,1142,3,-54,20
3841,303,32,1084,23,-20,6
3842,181,26,1012,-3,21,0
3843,-84,-58,834,-33,49,1
3844,-317,-55,851,-8,28,-4
3845,-235,-60,966,-8,-24,2
3846,62,-12,1125,2,-60,18
3847,270,22,1112,14,-39,16
3848,277,41,1049,14,0,0
3849,46,-22,915,-29,40,-3
3850,-235,-65,833,-17,46,-3
3851,-308,-65,898,-14,0,-1
3852,-92,-44,1049,0,-48,11
3853,200,6,1141,8,-53,20
3854,306,32,1079,19,-18,6
3855,165,20,993,-6,24,-1
3856,-104,-48,843,-27,51,-2
3857,-315,-58,857,-11,26,-4
3858,-224,-61,979,-8,-28,3
3859,81,-8,1122,4,-60,18
3860,278,20,1116,12,-37,14
3861,263,36,1037,13,3,-1
3862,28,-15,914,-24,42,-1
3863,-248,-72,824,-22,43,-2
3864,-299,-71,902,-10,-2,-2
3865,-72,-34,1060,0,-50,12
3866,215,4,1147,7,-51,19
3867,300,31,1069,17,-16,5
3868,150,27,989,-2,26,-1
3869,-121,-52,835,-32,49,-1
3870,-320,-69,858,-12,23,-5
3871,-215,-54,994,-3,-30,3
3872,102,-12,1125,2,-61,18
3873,285,15,1105,15,-35,13
3874,257,42,1031,12,6,0
3875,10,-19,907,-30,43,-1
3876,-265,-74,819,-21,43,-3
3877,-293,-66,915,-6,-5,-3
3878,-56,-30,1070,1,-52,14
3879,225,2,1142,7,-51,19
3880,303,34,1067,18,-14,5
3881,142,28,984,-3,29,-1
3882,-144,-61,826,-37,50,-2
3883,-325,-65,868,-7,22,-4
3884,-203,-53,998,-8,-33,5
3885,118,-11,1131,3,-60,19
3886,288,16,1106,15,-34,13
3887,249,49,1033,15,8,-1
3888,1,-29,894,-36,42,-2
3889,-279,-72,815,-18,41,-2
3890,-284,-62,923,-7,-8,-1
3891,-41,-39,1079,-1,-54,13
3892,236,-1,1140,11,-48,18
3893,301,46,1071,22,-13,6
3894,135,17,972,-12,30,-1
3895,-165,-61,818,-29,50,-1
3896,-325,-55,875,-7,20,-4
3897,-193,-54,1005,-9,-37,6
3898,134,-18,1124,1,-59,20
3899,300,27,1109,16,-33,12
3900,244,42,1031,8,11,-1
3901,-19,-35,881,-36,44,-1
3902,-291,-60,822,-11,41,-4
3903,-279,-67,928,-11,-12,-1
3904,-25,-40,1083,2,-54,14
3905,246,3,1149,12,-48,17
3906,306,41,1069,18,-10,3
3907,122,7,963,-14,33,-1
3908,-181,-54,817,-29,49,0
3909,-330,-56,875,-8,16,-4
3910,-182,-58,1008,-7,-39,7
3911,149,-6,1137,8,-57,20
3912,309,26,1107,13,-30,10
3913,234,37,1028,9,14,-1
3914,-29,-30,877,-34,46,-1
3915,-303,-60,819,-14,39,-3
3916,-279,-70,933,-11,-15,-1
3917,-12,-31,1089,2,-56,15
3918,254,8,1151,12,-47,17
3919,305,34,1052,16,-7,2
3920,110,12,965,-11,33,-1
3921,-193,-57,815,-30,50,-2
3922,-329,-63,872,-9,14,-3
3923,-172,-45,1009,-7,-41,7
3924,164,-4,1142,6,-59,19
3925,309,22,1102,10,-28,10
3926,224,34,1028,10,15,-2
3927,-39,-33,868,-36,45,-2
3928,-304,-64,823,-10,39,-3
3929,-274,-62,939,-13,-17,1
3930,6,-27,1099,5,-56,15
3931,259,2,1146,9,-46,17
3932,299,34,1049,19,-4,3
3933,101,10,957,-15,34,0
3934,-204,-64,813,-28,49,-3
3935,-330,-60,879,-9,9,-4
3936,-156,-37,1022,-4,-42,8
3937,171,-10,1143,4,-57,20
3938,310,22,1096,16,-25,10
3939,214,33,1025,6,17,-2
3940,-49,-43,858,-38,46,-1
3941,-317,-62,833,-9,35,-5
3942,-262,-59,939,-14,-22,1
3943,18,-21,1111,6,-56,17
3944,260,3,1125,6,-43,17
3945,299,42,1056,24,-2,2
3946,90,0,950,-25,35,0
3947,-217,-68,812,-22,50,-2
3948,-325,-54,886,-11,6,-2
3949,-138,-39,1027,-2,-43,10
3950,175,-9,1141,1,-57,20
3951,307,33,1096,19,-23,8
3952,204,32,1018,0,19,-1
3953,-61,-51,847,-37,48,0
3954,-313,-57,841,-8,33,-5
3955,-251,-62,952,-12,-24,0
3956,39,-25,1118,4,-58,16
3957,262,15,1117,11,-40,16
3958,290,44,1057,20,-1,1
3959,71,-15,929,-30,39,-1
3960,-224,-62,828,-17,48,-3
3961,-319,-59,889,-14,2,-3
3962,-115,-42,1038,0,-44,11
3963,186,1,1139,4,-56,19
3964,309,33,1090,20,-21,7
3965,186,23,1010,-5,20,-1
3966,-80,-54,841,-32,49,-2
3967,-316,-59,848,-10,29,-4
3968,-242,-59,966,-10,-24,1
3969,54,-25,1111,0,-59,18
3970,268,19,1123,15,-39,16
3971,282,36,1046,14,0,0
3972,54,-16,920,-24,40,-2
3973,-231,-60,832,-19,46,-2
3974,-313,-60,895,-13,1,-3
3975,-100,-41,1045,-1,-48,10
3976,190,7,1145,8,-54,19
3977,305,29,1078,15,-18,7
3978,170,22,996,-2,23,-1
3979,-89,-50,845,-31,48,-1
3980,-314,-65,854,-13,25,-4
3981,-232,-67,968,-7,-26,3
3982,75,-5,1128,5,-60,18
3983,274,13,1107,11,-36,14
3984,270,36,1035,14,3,2
3985,30,-4,929,-19,41,-1
3986,-242,-72,818,-25,45,-3
3987,-307,-59,909,-7,-1,-3
3988,-81,-39,1048,-2,-49,11
3989,208,5,1144,8,-53,19
3990,301,32,1077,17,-16,6
3991,159,25,991,-4,26,-1
3992,-109,-57,834,-31,49,-2
3993,-321,-67,861,-14,25,-5
3994,-221,-62,981,-6,-28,3
3995,91,-10,1130,4,-61,19
3996,277,12,1107,11,-35,12
3997,261,45,1035,16,5,0
3998,22,-9,915,-27,42,-1
3999,-258,-75,816,-23,43,-2
4000,-297,-60,915,-7,-3,-3
4001,-62,-37,1064,-2,-52,11
4002,220,-1,1142,8,-51,19
4003,301,32,1064,18,-15,5
4004,143,30,992,-2,28,-1
4005,-134,-64,827,-37,50,-1
4006,-324,-61,872,-4,22,-5
4007,-209,-58,993,-8,-32,4
4008,110,-14,1127,2,-60,19
4009,286,19,1101,15,-34,14
4010,254,51,1038,13,6,-2
4011,4,-28,898,-33,43,-2
4012,-272,-69,815,-17,41,-3
4013,-290,-63,919,-8,-5,-2
4014,-52,-39,1075,0,-52,13
4015,227,0,1140,10,-50,19
4016,305,45,1074,21,-14,5
4017,139,20,972,-14,30,-3
4018,-151,-62,820,-31,49,-1
4019,-324,-55,875,-8,21,-4
4020,-201,-63,1003,-6,-34,5
4021,120,-14,1128,4,-61,20
4022,295,23,1106,16,-33,12
4023,248,44,1035,10,8,-1
4024,-7,-29,886,-33,43,0
4025,-281,-57,825,-14,41,-2
4026,-284,-68,919,-13,-9,-2
4027,-39,-37,1076,1,-55,14
4028,239,8,1149,12,-48,19
4029,304,38,1065,14,-12,4
4030,128,13,972,-10,30,-2
4031,-168,-56,819,-29,49,-2
4032,-323,-61,874,-12,19,-5
4033,-190,-63,1001,-9,-37,7
4034,139,-7,1136,7,-59,19
4035,303,19,1108,14,-31,10
4036,240,35,1027,9,11,0
4037,-21,-25,885,-28,45,0
4038,-295,-60,819,-15,40,-2
4039,-283,-69,926,-9,-12,-1
4040,-27,-27,1087,3,-55,15
4041,252,6,1151,10,-50,18
4042,306,35,1054,13,-10,3
4043,124,19,971,-10,32,-1
4044,-179,-56,822,-31,49,-2
4045,-329,-67,873,-10,17,-4
4046,-184,-54,1008,-6,-38,7
4047,151,-12,1135,9,-59,18
4048,307,16,1105,13,-29,10
4049,233,37,1028,13,14,-1
4050,-29,-28,882,-33,45,-1
4051,-302,-60,820,-13,40,-4
4052,-279,-58,929,-13,-16,1
4053,-13,-27,1091,5,-56,16
4054,256,1,1149,4,-49,17
4055,302,34,1052,23,-8,3
4056,115,13,970,-17,32,-1
4057,-194,-66,812,-32,50,-2
4058,-331,-63,877,-7,13,-4
4059,-171,-50,1009,-6,-40,6
4060,161,-12,1144,8,-56,19
4061,307,18,1094,12,-28,10
4062,233,40,1033,14,15,-1
4063,-36,-32,868,-38,46,0
4064,-313,-56,823,-9,38,-4
4065,-275,-56,935,-14,-17,1
4066,0,-25,1100,3,-56,16
4067,257,0,1138,6,-45,17
4068,305,43,1058,21,-5,2
4069,108,5,963,-21,34,-1
4070,-205,-73,805,-28,50,-2
4071,-329,-52,889,-5,10,-4
4072,-154,-53,1009,-7,-40,9
4073,163,-12,1141,7,-56,20
4074,310,27,1100,20,-25,9
4075,220,36,1032,9,17,-1
4076,-50,-42,857,-37,46,-1
4077,-314,-56,830,-8,36,-3
4078,-265,-59,937,-13,-19,1
4079,12,-27,1109,3,-56,16
4080,258,7,1131,8,-44,16
4081,302,41,1060,22,-4,1
4082,93,-9,947,-26,36,-1
4083,-210,-61,820,-21,50,-1
4084,-327,-56,884,-12,7,-3
4085,-144,-50,1024,-2,-44,9
4086,167,-6,1140,7,-57,18
4087,310,27,1096,19,-24,8
4088,210,27,1025,3,18,-2
4089,-59,-42,846,-34,48,-1
4090,-313,-53,839,-8,33,-4
4091,-261,-61,948,-13,-21,1
4092,27,-22,1105,4,-57,18
4093,264,17,1130,12,-44,16
4094,293,32,1052,16,-3,1
4095,79,-7,938,-25,37,0
4096,-216,-57,827,-20,48,-3
4097,-326,-67,882,-13,4,-4
4098,-128,-41,1030,-1,-44,10
4099,180,3,1149,6,-57,20
4100,310,23,1088,16,-21,8
4101,194,28,1014,1,20,-1
4102,-70,-40,850,-33,48,-1
4103,-315,-65,839,-12,32,-3
4104,-251,-57,959,-10,-24,3
4105,45,-18,1117,2,-60,18
4106,264,13,1120,11,-41,16
4107,284,32,1042,13,-1,2
4108,63,-7,936,-21,39,-1
4109,-224,-63,829,-20,47,-2
4110,-320,-65,889,-12,2,-3
4111,-114,-38,1046,1,-47,10
4112,194,1,1141,4,-56,20
4113,303,28,1079,18,-20,8
4114,182,28,1007,1,22,0
4115,-80,-45,849,-33,51,0
4116,-320,-65,847,-12,28,-5
4117,-239,-60,962,-8,-25,2
4118,62,-9,1128,4,-58,17
4119,270,8,1110,7,-40,15
4120,274,38,1040,21,1,0
4121,53,-7,929,-25,41,-2
4122,-233,-75,820,-25,45,-1
4123,-315,-56,903,-8,1,-3
4124,-91,-38,1049,0,-49,10
4125,197,-2,1144,4,-55,19
4126,303,36,1076,20,-18,7
4127,169,31,1005,-4,24,-2
4128,-99,-63,834,-37,49,-1
4129,-317,-59,858,-7,26,-3
4130,-224,-58,981,-8,-26,3
4131,82,-21,1120,3,-59,18
4132,272,21,1110,17,-35,14
4133,268,45,1044,14,3,0
4134,33,-24,913,-29,41,1
4135,-248,-66,825,-17,43,0
4136,-303,-60,907,-11,-1,-3
4137,-69,-40,1057,-1,-51,12
4138,207,6,1140,7,-53,20
4139,304,37,1079,21,-17,5
4140,154,21,989,-9,27,-2
4141,-119,-60,832,-33,50,-1
4142,-319,-62,864,-10,23,-4
4143,-216,-67,990,-7,-31,3
4144,97,-14,1121,3,-61,19
4145,283,24,1113,15,-34,13
4146,261,40,1036,8,5,0
4147,13,-20,905,-26,44,-1
4148,-259,-64,827,-19,42,-3
4149,-296,-67,912,-11,-5,-2
4150,-61,-39,1064,-2,-53,12
4151,219,8,1145,9,-54,18
4152,306,35,1068,15,-15,5
4153,144,19,978,-7,28,-2
4154,-134,-55,836,-30,49,-3
4155,-319,-66,870,-12,22,-5
4156,-206,-63,994,-6,-32,4
4157,114,-10,1125,4,-60,20
4158,289,18,1109,15,-33,13
4159,249,39,1027,10,8,0
4160,0,-16,904,-27,44,-1
4161,-273,-66,815,-20,42,-3
4162,-289,-63,920,-9,-8,-1
4163,-49,-33,1076,-1,-53,13
4164,236,2,1148,10,-51,18
4165,304,35,1066,15,-14,3
4166,135,20,977,-7,29,-1
4167,-152,-60,818,-35,49,0
4168,-327,-63,878,-8,20,-4
4169,-198,-62,997,-6,-35,5
4170,132,-6,1138,7,-60,19
4171,296,14,1099,12,-32,11
4172,247,45,1031,16,10,-1
4173,-10,-23,893,-32,43,-1
4174,-290,-67,816,-18,41,-2
4175,-286,-64,926,-8,-10,-1
4176,-34,-28,1080,1,-55,14
4177,242,0,1147,7,-49,18
4178,304,38,1058,18,-11,3
4179,130,24,980,-8,31,-2
4180,-173,-62,816,-36,49,-2
4181,-329,-61,876,-7,19,-5
4182,-188,-53,1002,-9,-38,6
4183,141,-16,1136,6,-60,19
4184,301,14,1101,13,-31,11
4185,241,47,1032,15,12,-1
4186,-23,-29,883,-36,45,-1
4187,-297,-64,811,-13,41,-4
4188,-278,-57,935,-9,-13,-2
4189,-19,-37,1085,2,-55,14
4190,247,5,1145,11,-46,18
4191,305,45,1063,20,-10,2
4192,117,9,970,-17,32,-3
4193,-185,-65,809,-30,49,-1
4194,-333,-49,884,-6,15,-4
4195,-176,-61,1002,-10,-40,5
4196,154,-13,1139,8,-58,22
4197,307,25,1100,16,-29,10
4198,233,37,1033,9,15,-1
4199,-37,-36,868,-37,47,0
4200,-307,-52,825,-9,38,-4
4201,-276,-60,931,-12,-16,-1
4202,-7,-34,1091,1,-56,15
4203,252,9,1147,13,-46,19
4204,305,41,1063,17,-7,2
4205,112,-2,953,-21,33,-1
4206,-197,-56,815,-24,49,-2
4207,-332,-56,880,-12,12,-5
4208,-165,-55,1011,-7,-40,8
4209,159,-6,1144,9,-58,20
4210,311,21,1100,13,-27,8
4211,226,31,1027,7,16,-2
4212,-42,-35,866,-33,46,0
4213,-310,-55,827,-11,37,-3
4214,-272,-64,938,-13,-19,0
4215,7,-22,1103,5,-56,16
4216,260,6,1137,8,-45,18
4217,302,34,1055,18,-5,2
4218,99,3,957,-20,34,-1
4219,-207,-60,813,-25,49,-1
4220,-330,-60,885,-11,9,-4
4221,-157,-46,1014,-5,-42,9
4222,171,-2,1142,6,-58,19
4223,312,24,1099,15,-25,9
4224,217,29,1020,5,17,0
4225,-51,-35,862,-33,46,-1
4226,-314,-66,831,-14,34,-4
4227,-266,-61,942,-11,-21,1
4228,19,-20,1111,5,-58,17
4229,260,5,1128,8,-44,17
4230,295,39,1052,21,-2,1
4231,89,2,949,-20,35,-1
4232,-216,-65,820,-25,49,-2
4233,-326,-58,886,-11,6,-3
4234,-135,-37,1027,-2,-45,8
4235,173,-2,1147,4,-57,19
4236,310,21,1086,16,-23,8
4237,204,33,1026,6,18,-1
4238,-60,-50,850,-38,48,0
4239,-314,-67,837,-12,31,-5
4240,-258,-56,955,-7,-23,1
4241,39,-24,1110,3,-58,17
4242,263,10,1122,12,-41,17
4243,285,44,1051,20,-1,1
4244,72,-6,941,-26,37,-1
4245,-222,-68,816,-21,48,-3
4246,-325,-53,892,-11,3,-4
4247,-118,-39,1034,-2,-44,9
4248,185,-2,1144,2,-57,20
4249,308,28,1083,21,-21,7
4250,193,30,1014,2,19,-1
4251,-75,-56,842,-35,49,0
4252,-318,-61,848,-8,30,-3
4253,-246,-62,962,-12,-25,2
4254,55,-25,1117,2,-59,18
4255,262,19,1113,14,-39,15
4256,286,44,1050,18,0,2
4257,58,-14,923,-29,41,0
4258,-234,-64,828,-17,47,-2
4259,-314,-56,898,-14,1,-2
4260,-102,-43,1041,-4,-47,11
4261,189,2,1140,7,-56,20
4262,307,33,1085,18,-19,6
4263,175,18,1000,-8,23,-2
4264,-91,-52,846,-29,50,-2
4265,-316,-58,851,-11,26,-5
4266,-235,-63,974,-8,-27,2
4267,68,-18,1112,3,-59,18
4268,268,24,1120,16,-38,15
4269,275,34,1041,12,3,0
4270,41,-11,918,-24,42,-1
4271,-242,-61,829,-19,46,-4
4272,-310,-64,901,-12,-2,-3
4273,-89,-37,1050,-3,-48,11
4274,201,7,1142,7,-55,18
4275,305,32,1079,16,-18,6
4276,163,19,990,-7,24,-1
4277,-104,-53,842,-31,50,-1
4278,-318,-67,860,-14,25,-3
4279,-224,-62,982,-6,-27,2
4280,82,-12,1122,1,-59,18
4281,277,21,1111,16,-36,14
4282,263,40,1033,13,5,0
4283,23,-15,915,-23,42,0
4284,-251,-68,829,-21,43,-4
4285,-300,-66,907,-10,-3,-3
4286,-70,-35,1059,-2,-51,12
4287,216,2,1145,5,-52,19
4288,303,28,1069,16,-15,4
4289,149,26,984,-3,26,-2
4290,-123,-53,838,-33,50,0
4291,-321,-67,860,-11,24,-4
4292,-215,-56,992,-6,-30,3
4293,105,-11,1130,2,-60,18
4294,283,15,1106,13,-33,13
4295,257,45,1032,15,6,-1
4296,9,-16,909,-30,43,0
4297,-264,-74,816,-21,42,-2
4298,-295,-60,921,-8,-6,-3
4299,-53,-37,1067,-1,-53,13
4300,223,-1,1143,6,-51,19
4301,302,38,1067,20,-15,5
4302,145,27,988,-8,28,-1
4303,-144,-66,821,-34,50,0
4304,-325,-60,875,-6,22,-3
4305,-203,-55,994,-5,-34,3
4306,117,-14,1130,0,-59,19
4307,290,20,1102,15,-32,13
4308,252,51,1038,14,8,1
4309,-1,-31,893,-36,45,-1
4310,-280,-66,818,-14,42,-2
4311,-287,-61,921,-10,-8,-1
4312,-39,-43,1073,-3,-53,13
4313,233,2,1143,10,-50,18
4314,306,41,1071,19,-13,2
4315,134,15,974,-11,30,-2
4316,-163,-61,820,-32,49,-1
4317,-326,-56,874,-8,20,-4
4318,-195,-60,1004,-9,-36,5
4319,130,-13,1128,4,-59,18
4320,301,27,1107,15,-33,12
4321,245,42,1028,10,9,-1
4322,-18,-29,884,-33,45,-2
4323,-289,-59,823,-17,40,-3
4324,-281,-66,926,-10,-10,-1
4325,-33,-37,1078,0,-53,15
4326,246,2,1149,12,-48,18
4327,306,38,1063,18,-11,4
4328,119,12,971,-10,34,-2
4329,-174,-57,816,-29,50,-1
4330,-330,-53,876,-6,17,-5
4331,-188,-60,998,-9,-38,6
4332,145,-6,1140,8,-59,19
4333,306,21,1109,14,-31,10
4334,239,36,1025,11,13,-1
4335,-25,-31,879,-33,45,-2
4336,-298,-58,822,-12,40,-4
4337,-281,-69,924,-13,-13,0
4338,-18,-26,1096,3,-56,16
4339,254,0,1144,8,-47,16
4340,305,39,1061,20,-8,3
4341,116,17,969,-13,32,-1
4342,-191,-58,812,-32,49,-1
4343,-331,-60,880,-10,14,-4
4344,-176,-49,1009,-7,-40,6
4345,158,-9,1139,7,-58,18
4346,309,16,1101,10,-29,10
4347,230,35,1030,11,15,-1
4348,-35,-29,872,-35,45,1
4349,-310,-62,827,-12,39,-4
4350,-274,-63,929,-9,-18,1
4351,1,-22,1101,4,-56,16
4352,259,-1,1143,6,-46,18
4353,304,36,1052,18,-7,2
4354,110,15,966,-16,34,-1
4355,-203,-67,806,-30,51,-2
4356,-333,-56,882,-7,10,-4
4357,-159,-44,1015,-6,-42,7
4358,163,-11,1147,3,-58,19
4359,310,19,1091,16,-27,9
4360,224,41,1034,10,16,-1
4361,-41,-46,857,-41,47,0
4362,-312,-59,833,-6,37,-3
4363,-269,-60,940,-12,-20,1
4364,14,-27,1109,4,-56,16
4365,257,3,1127,9,-44,17
4366,301,45,1063,24,-4,2
4367,96,0,949,-24,35,-1
4368,-212,-62,812,-23,50,-1
4369,-330,-54,886,-11,8,-4
4370,-147,-43,1020,-4,-44,8
4371,169,-9,1141,2,-56,20
4372,310,25,1097,19,-25,9
4373,213,32,1029,4,17,-1
4374,-58,-48,852,-36,49,-1
4375,-312,-60,833,-6,33,-4
4376,-256,-61,952,-12,-22,1
4377,24,-30,1107,3,-56,17
4378,262,15,1126,14,-43,16
4379,294,40,1057,20,-3,0
4380,82,-11,937,-26,37,-1
4381,-220,-56,819,-17,50,-2
4382,-324,-53,888,-15,4,-3
4383,-129,-46,1028,-2,-44,9
4384,179,3,1146,7,-58,21
4385,312,26,1088,17,-22,7
4386,199,20,1014,-1,19,-1
4387,-71,-46,852,-31,49,0
4388,-315,-61,845,-10,29,-3
4389,-250,-67,950,-13,-23,1
4390,43,-15,1119,8,-58,19
4391,267,15,1118,11,-41,17
4392,288,38,1045,14,1,0
4393,64,-4,936,-20,39,-2
4394,-222,-63,826,-24,48,-3
4395,-322,-57,893,-8,3,-2
4396,-113,-45,1034,-5,-46,10
4397,190,5,1145,9,-56,20
4398,308,29,1089,16,-20,7
4399,183,18,1001,-2,22,-1
4400,-81,-48,848,-29,50,-1
4401,-315,-66,848,-14,28,-4
4402,-242,-61,967,-6,-25,2
4403,61,-13,1117,1,-60,18
4404,271,17,1119,14,-40,15
4405,280,36,1039,13,0,1
4406,51,-7,930,-22,40,-1
4407,-234,-67,826,-22,46,-3
4408,-314,-65,899,-12,-1,-4
4409,-93,-39,1053,1,-49,11
4410,198,-1,1136,4,-55,20
4411,302,26,1076,19,-19,6
4412,170,30,1001,-2,23,-3
4413,-98,-56,842,-33,49,-1
4414,-319,-66,851,-12,26,-3
4415,-231,-51,982,-6,-27,2
4416,79,-16,1125,0,-61,18
4417,274,12,1104,11,-37,14
4418,268,47,1043,17,3,0
4419,32,-16,920,-30,41,0
4420,-250,-74,817,-19,44,-3
4421,-306,-57,913,-10,-2,-3
4422,-70,-42,1058,0,-51,11
4423,207,0,1138,4,-53,19
4424,302,36,1075,22,-16,5
4425,157,27,991,-8,26,0
4426,-118,-62,835,-33,51,-2
4427,-323,-65,862,-9,24,-5
4428,-220,-58,988,-5,-31,3
4429,93,-21,1123,-1,-60,20
4430,279,23,1110,16,-35,14
4431,263,47,1036,12,5,-1
4432,16,-26,905,-30,43,-2
4433,-262,-67,826,-16,43,-3
4434,-293,-59,910,-8,-4,-3
4435,-62,-39,1062,-3,-51,12
4436,219,1,1141,9,-52,19
4437,306,43,1076,17,-16,4
4438,144,19,983,-9,27,-1
4439,-135,-62,826,-32,49,0
4440,-321,-59,870,-6,22,-4
4441,-207,-62,996,-9,-33,3
4442,113,-14,1123,4,-60,20
4443,288,26,1110,17,-34,13
4444,253,41,1033,9,6,-1
4445,-1,-27,896,-31,43,-1
4446,-270,-61,824,-15,42,-5
4447,-289,-65,919,-11,-6,-3
4448,-48,-39,1070,-2,-53,14
4449,233,9,1147,14,-49,19
4450,306,37,1067,12,-14,6
4451,134,17,973,-7,31,-1
4452,-156,-53,829,-30,49,-2
4453,-322,-65,870,-10,19,-4
4454,-201,-62,998,-9,-34,6
4455,131,-10,1128,5,-59,20
4456,300,20,1114,14,-33,12
4457,245,39,1025,9,10,-1
4458,-11,-21,892,-29,45,-1
4459,-288,-64,820,-17,42,-2
4460,-286,-69,919,-11,-9,-2
4461,-39,-33,1079,1,-56,14
4462,249,4,1152,11,-49,19
4463,304,34,1059,15,-11,3
4464,129,19,976,-6,32,-1
4465,-171,-55,819,-33,50,-1
4466,-331,-66,871,-9,19,-5
4467,-193,-50,1009,-5,-37,5
4468,138,-9,1133,6,-60,18
4469,303,17,1106,11,-32,12
4470,242,40,1027,13,13,0
4471,-18,-24,891,-36,44,0
4472,-297,-69,815,-17,40,-5
4473,-279,-66,930,-8,-12,-3
4474,-21,-29,1089,3,-55,15
4475,250,0,1144,8,-47,18
4476,303,40,1060,20,-9,3
4477,120,18,973,-12,32,-1
4478,-188,-60,814,-34,49,-1
4479,-333,-57,875,-4,16,-4
4480,-175,-48,1008,-8,-40,7
4481,155,-14,1141,7,-58,19
4482,307,19,1101,13,-29,10
4483,235,45,1029,13,14,-1
4484,-36,-39,874,-40,47,0
4485,-307,-59,822,-7,40,-3
4486,-275,-59,937,-13,-17,1
4487,-10,-33,1098,3,-57,15
4488,261,2,1138,12,-47,17
4489,306,49,1066,23,-7,2
4490,113,0,957,-24,35,-1
4491,-200,-60,817,-25,50,-1
4492,-332,-58,876,-9,13,-4
4493,-167,-48,1017,-6,-42,7
4494,161,-16,1131,5,-58,20
4495,310,30,1102,18,-28,9
4496,226,34,1031,3,15,-3
4497,-45,-41,860,-39,47,-1
4498,-309,-56,829,-8,37,-4
4499,-271,-60,939,-14,-18,0
4500,7,-30,1100,3,-56,17
4501,259,10,1138,11,-44,18
4502,301,37,1060,19,-5,1
4503,102,-5,947,-23,35,-2
4504,-212,-53,819,-18,49,-1
4505,-329,-61,877,-14,9,-3
4506,-152,-47,1019,-4,-43,9
4507,166,0,1146,6,-56,20
4508,315,26,1097,16,-25,9
4509,213,30,1026,3,17,-1
4510,-53,-40,853,-37,47,-1
4511,-313,-58,838,-10,34,-3
4512,-260,-68,939,-15,-21,1
4513,22,-22,1113,7,-57,17
4514,268,9,1123,9,-44,17
4515,300,38,1056,19,-2,3
4516,83,0,946,-23,36,0
4517,-214,-57,825,-23,49,-1
4518,-328,-58,880,-13,6,-3
4519,-141,-41,1024,-1,-43,9
4520,178,0,1144,4,-58,20
4521,309,24,1094,15,-22,8
4522,202,23,1016,2,18,-1
4523,-63,-41,854,-31,47,-1
4524,-313,-67,839,-14,32,-4
4525,-256,-61,950,-9,-22,2
4526,39,-15,1116,4,-58,19
4527,259,7,1121,8,-41,16
4528,287,35,1046,21,-1,0
4529,71,0,946,-21,37,-1
4530,-224,-70,816,-25,48,-3
4531,-324,-55,896,-10,2,-3
4532,-119,-38,1033,-3,-45,10
4533,183,0,1147,3,-56,19
4534,307,25,1080,17,-21,9
4535,187,29,1015,0,20,-1
4536,-75,-57,841,-37,49,0
4537,-316,-64,850,-11,29,-2
4538,-245,-60,959,-7,-25,1
4539,60,-17,1124,5,-59,17
4540,265,11,1110,10,-39,16
4541,281,45,1050,21,0,1
4542,57,-10,929,-27,40,-1
4543,-237,-71,819,-20,48,-1
4544,-314,-56,899,-11,0,-2
4545,-97,-38,1047,-2,-48,11
4546,189,-5,1137,1,-56,20
4547,305,35,1084,23,-19,7
4548,175,24,1004,-5,22,-2
4549,-90,-65,833,-34,50,-1
4550,-317,-58,858,-7,27,-5
4551,-231,-60,975,-7,-27,2
4552,75,-23,1120,0,-60,18
4553,271,23,1112,17,-37,15
