sequence,AccelerometerX,AccelerometerY,AccelerometerZ,GyroscopeX,GyroscopeY,GyroscopeZ
0,-69,-72,1013,-41,-2,1
1,-31,-145,997,-17,-11,-3
2,58,-111,978,9,-9,-10
3,89,-16,999,24,2,-7
4,91,80,1019,21,12,-7
5,20,129,1006,27,25,-4
6,-83,126,983,3,23,2
7,-120,60,1002,-21,7,-1
8,-113,6,980,-31,-10,-3
9,-20,19,988,-26,-26,-4
10,69,34,1012,-34,-27,-7
11,113,63,1024,-35,-12,-3
12,90,48,991,-34,3,-1
13,-17,3,994,-42,13,4
14,-110,-30,983,-36,8,3
15,-115,-50,980,-25,-4,0
16,-31,-47,995,-13,-17,-7
17,65,-9,1000,-5,-18,-8
18,152,49,1004,-5,-8,-7
19,100,71,1006,-11,10,-2
20,-5,65,1010,-14,21,3
21,-110,32,985,-22,19,3
22,-152,2,986,-21,4,0
23,-80,-26,982,-19,-16,-6
24,51,-17,1003,-15,-24,-10
25,148,14,1009,-9,-16,-8
26,140,29,1007,-10,5,-5
27,50,42,1005,-11,22,-1
28,-90,41,986,-13,26,5
29,-155,18,989,-17,12,0
30,-134,0,988,-17,-9,-3
31,10,6,1004,-16,-24,-7
32,124,13,1006,-17,-21,-10
33,160,21,1000,-15,-3,-6
34,89,29,996,-15,16,0
35,-54,30,1003,-16,27,6
36,-151,5,993,-12,16,1
37,-153,10,968,-10,-1,-2
38,-27,14,1003,-12,-20,-7
39,86,22,1015,-15,-22,-9
40,167,31,1011,-16,-10,-7
41,116,33,1001,-16,12,-2
42,-18,17,1005,-17,26,4
43,-133,0,978,-14,21,2
44,-160,2,979,-11,5,0
45,-72,3,1000,-9,-16,-6
46,59,23,1007,-10,-22,-9
47,160,40,1005,-15,-12,-8
48,135,44,1005,-18,10,-3
49,21,24,1005,-19,23,3
50,-113,10,985,-18,24,4
51,-158,-8,992,-15,8,0
52,-108,-9,983,-10,-13,-5
53,37,18,998,-10,-23,-8
54,152,38,1014,-11,-18,-9
55,145,41,1008,-17,1,-3
56,67,40,1000,-18,19,0
57,-82,25,991,-21,26,5
58,-155,-2,987,-19,13,2
59,-140,-11,982,-14,-7,-3
60,2,6,1005,-11,-23,-8
61,121,20,1017,-12,-21,-10
62,169,37,1000,-13,-3,-4
63,100,43,993,-17,17,-1
64,-49,32,1002,-18,26,4
65,-153,0,995,-17,17,2
66,-158,0,968,-15,-2,-1
67,-35,-2,1000,-13,-21,-7
68,88,15,1014,-11,-23,-10
69,173,36,1004,-13,-10,-7
70,124,41,1003,-16,11,-2
71,-11,26,1016,-17,26,4
72,-131,9,975,-16,22,3
73,-166,4,972,-13,4,1
74,-87,0,999,-13,-18,-6
75,55,14,1010,-12,-25,-10
76,164,33,1006,-14,-15,-8
77,140,41,1001,-14,7,-2
78,34,28,1010,-16,24,2
79,-107,-70,751,15,39,7
80,-275,602,926,53,73,23
81,-212,130,1603,-148,-58,10
82,-94,67,798,-122,-66,-7
83,287,-307,666,-135,-72,-29
84,154,-387,954,-63,-16,16
85,360,-158,1223,23,10,-14
86,170,-312,886,12,47,-9
87,-102,28,790,100,76,32
88,-199,289,1334,75,48,0
89,-344,328,948,20,22,3
90,-149,373,826,-28,-26,-5
91,87,109,1174,-93,-40,-3
92,159,-12,1083,-96,-29,-7
93,141,-156,895,-93,-19,5
94,40,-279,921,-46,7,17
95,12,-256,1009,12,24,2
96,7,-266,985,51,27,-17
97,-59,-26,967,95,28,-13
98,11,237,1079,86,11,-10
99,-18,348,1008,41,13,-8
100,-32,283,983,-13,6,-3
101,-46,97,1017,-50,-2,0
102,-52,-100,1007,-59,-8,-3
103,-9,-220,957,-31,-14,-5
104,46,-173,988,8,-9,-9
105,105,-48,1012,35,0,-12
106,73,98,1015,45,15,-6
107,9,187,1005,25,22,-1
108,-89,184,989,-4,21,1
109,-140,111,998,-29,3,0
110,-164,49,976,-48,-22,-1
111,-37,6,1001,-53,-40,-5
112,102,-39,1011,-48,-40,-8
113,171,-63,995,-36,-21,-6
114,156,-52,993,-18,4,-6
115,11,-30,997,-5,25,1
116,-106,13,1000,6,22,2
117,-159,59,981,4,10,-2
118,-85,84,983,-5,-12,-6
119,31,70,1014,-20,-23,-8
120,136,45,1025,-30,-16,-8
121,126,2,988,-34,1,-2
122,32,-34,993,-26,16,2
123,-85,-46,993,-15,19,2
124,-140,-22,981,-2,9,1
125,-75,13,991,3,-11,-6
126,23,56,1007,-1,-17,-8
127,135,91,1009,-10,-13,-8
128,120,71,1005,-23,4,-4
129,28,31,1009,-27,15,2
130,-84,-14,989,-27,19,3
131,-137,-43,986,-19,7,0
132,-97,-44,979,-8,-10,-4
133,29,0,999,-2,-21,-9
134,130,45,1012,-3,-16,-9
135,137,73,1010,-9,2,-5
136,58,68,1007,-16,18,0
137,-77,42,986,-23,24,5
138,-149,-6,986,-22,11,4
139,-132,-29,987,-18,-8,-3
140,4,-20,1006,-11,-22,-7
141,122,1,1005,-8,-22,-9
142,159,31,998,-8,-3,-6
143,94,56,999,-9,18,-1
144,-50,49,1003,-14,28,4
145,-156,16,991,-17,17,2
146,-157,10,975,-17,-2,-2
147,-34,-6,998,-17,-22,-6
148,83,1,1008,-15,-23,-9
149,175,18,1010,-14,-10,-7
150,124,33,1005,-12,12,-3
151,-6,23,1005,-11,27,3
152,-132,17,981,-12,24,2
153,-163,18,977,-10,5,0
154,-83,6,999,-12,-17,-6
155,53,20,1008,-14,-24,-8
156,168,35,1010,-17,-15,-8
157,145,31,997,-19,6,-4
158,32,16,1004,-17,22,2
159,-104,12,992,-15,23,4
160,-164,-3,990,-12,9,2
161,-121,-1,975,-9,-12,-4
162,29,24,1004,-7,-25,-8
163,142,37,1009,-12,-19,-9
164,154,37,1003,-19,1,-4
165,73,31,1006,-19,18,1
166,-78,17,993,-19,26,4
167,-153,-11,983,-13,15,2
168,-146,-8,973,-10,-4,-3
169,-7,12,1012,-10,-22,-8
170,110,24,1017,-12,-22,-11
171,164,42,999,-15,-5,-7
172,106,46,993,-16,15,-1
173,-41,26,1004,-20,26,4
174,-148,-4,989,-17,17,2
175,-158,-4,972,-13,0,-1
176,-45,-2,1000,-13,-19,-7
177,80,15,1007,-11,-24,-9
178,171,41,1002,-12,-11,-8
179,122,47,1010,-15,13,-3
180,-2,33,1017,-18,26,3
181,-124,28,673,43,76,16
182,-291,570,1199,-13,57,34
183,-114,84,1430,-138,-75,1
184,-47,-32,722,-136,-60,-10
185,296,-361,708,-124,-62,-30
186,78,-320,1089,-28,4,25
187,412,-182,1164,20,4,-31
188,9,-272,792,25,61,14
189,-60,155,921,111,61,14
190,-220,280,1365,46,39,2
191,-294,400,805,9,12,3
192,-70,301,917,-60,-31,-4
193,77,66,1188,-101,-33,-4
194,117,-75,1039,-99,-29,-3
195,122,-153,863,-86,-21,9
196,4,-224,957,-44,8,22
197,23,-217,1031,7,15,-8
198,-2,-226,960,40,22,-11
199,17,-70,918,83,22,-16
200,20,114,1135,81,21,-17
201,-24,287,1012,53,15,-4
202,-62,286,942,11,12,-3
203,-99,136,1024,-29,1,-4
204,-67,-11,1027,-44,-12,-1
205,35,-155,955,-35,-18,-11
206,57,-160,980,-3,-10,-7
207,130,-58,1029,26,-1,-9
208,64,40,1006,35,19,-9
209,-42,136,993,29,24,0
210,-107,148,1006,5,15,-3
211,-124,96,1000,-16,-1,-5
212,-77,21,970,-28,-20,-4
213,51,-26,1008,-29,-28,-10
214,122,-42,1014,-24,-19,-8
215,105,3,993,-11,-2,-3
216,20,80,997,-13,10,2
217,-96,114,989,-20,13,5
218,-126,72,994,-32,-1,1
219,-85,-3,991,-41,-15,-4
220,37,-50,1006,-33,-23,-7
221,129,-66,995,-23,-18,-8
222,133,-49,993,-12,1,-8
223,73,-11,992,1,17,-5
224,-53,55,1008,2,24,4
225,-139,77,994,-1,14,3
226,-142,75,973,-10,-2,-3
227,-25,59,1002,-23,-20,-6
228,78,12,1016,-29,-21,-7
229,153,-14,1011,-30,-10,-7
230,113,-25,990,-23,8,-2
231,-6,-23,996,-11,23,1
232,-114,-6,988,-3,22,1
233,-149,30,981,0,7,-1
234,-63,50,1001,-4,-15,-8
235,44,60,1008,-11,-20,-9
236,149,57,1007,-22,-14,-7
237,126,26,1006,-28,3,-2
238,17,-5,1001,-24,17,3
239,-95,-22,986,-19,18,2
240,-142,-24,989,-11,7,-1
241,-98,-3,982,-2,-9,-5
242,35,39,1004,-5,-19,-9
243,135,61,1016,-10,-14,-8
244,134,62,1005,-18,4,-3
245,49,37,1002,-24,18,1
246,-87,13,984,-22,23,4
247,-147,-25,987,-20,10,1
248,-125,-27,985,-12,-9,-4
249,9,0,1005,-7,-21,-7
250,128,30,1009,-9,-19,-10
251,154,52,1002,-10,0,-5
252,87,60,998,-14,19,-1
253,-61,39,1007,-20,26,4
254,-153,1,987,-19,15,2
255,-153,-14,971,-16,-3,-1
256,-21,-9,999,-11,-22,-8
257,88,4,1014,-9,-21,-10
258,171,35,1013,-12,-10,-7
259,119,47,1002,-13,12,-1
260,-20,41,1003,-14,26,3
261,-131,16,984,-17,20,3
262,-165,5,976,-15,3,0
263,-70,-5,996,-13,-20,-6
264,60,2,1010,-13,-24,-10
265,167,32,1009,-11,-14,-7
266,143,36,995,-15,7,-3
267,21,28,1013,-14,24,2
268,-109,23,988,-14,24,4
269,-163,4,987,-12,11,1
270,-115,0,979,-12,-12,-5
271,31,13,1003,-15,-25,-8
272,147,31,1011,-14,-19,-10
273,151,29,1003,-18,3,-4
274,69,29,1006,-17,19,1
275,-82,19,988,-15,26,5
276,-160,-1,985,-13,13,2
277,-142,-3,980,-11,-5,-3
278,-11,-18,937,-6,-18,-7
279,90,261,675,98,49,2
280,20,445,1529,-97,4,21
281,52,155,1144,-140,-49,2
282,-4,-168,679,-144,-15,2
283,6,-441,767,-102,-14,5
284,-126,-281,1180,6,8,32
285,251,-218,1081,22,-19,-48
286,-64,-121,738,50,33,-3
287,197,262,1066,93,19,-20
288,7,276,1307,17,34,3
289,-168,380,770,-12,26,12
290,-160,135,993,-74,2,7
291,-169,8,1141,-83,-15,3
292,-19,-125,966,-76,-44,0
293,121,-142,916,-54,-43,2
294,168,-173,997,-20,-9,-8
295,227,-227,991,18,16,-28
296,117,-203,941,56,44,-1
297,-67,61,1049,89,51,4
298,-212,186,1079,67,35,-2
299,-234,286,924,39,8,-7
300,-76,210,982,-8,-23,-8
301,109,71,1057,-34,-31,-13
302,194,-84,1007,-45,-17,-10
303,131,-148,956,-20,8,-1
304,-19,-103,1015,9,24,0
305,-114,-41,1003,30,22,-5
306,-161,70,959,38,9,-5
307,-38,152,1014,21,-14,-11
308,64,152,1027,-2,-19,-12
309,104,137,998,-32,-13,-6
310,55,141,985,-60,-4,4
311,-38,47,1007,-70,2,5
312,-99,-81,992,-64,-1,5
313,-85,-154,968,-41,-11,0
314,10,-146,994,-11,-16,-7
315,86,-69,996,13,-12,-11
316,136,61,1010,22,2,-9
317,81,140,1016,10,17,-5
318,-37,154,1004,-9,26,2
319,-137,104,984,-30,15,2
320,-153,13,982,-42,-4,1
321,-62,-63,997,-37,-25,-5
322,72,-87,1001,-26,-29,-9
323,171,-54,1000,-10,-14,-7
324,146,3,996,4,10,-4
325,37,50,1009,5,25,1
326,-110,95,994,1,27,4
327,-174,79,994,-14,11,1
328,-133,43,984,-23,-13,-5
329,14,13,1003,-27,-26,-8
330,147,-17,1007,-29,-23,-9
331,164,-35,1002,-22,-2,-5
332,97,-17,1001,-12,17,-1
333,-55,9,998,-4,28,3
334,-152,23,986,0,18,1
335,-160,50,979,-2,0,-2
336,-28,62,1008,-12,-21,-7
337,91,45,1014,-21,-24,-7
338,166,29,1008,-27,-10,-5
339,112,3,990,-27,11,0
340,-21,-14,997,-19,24,4
341,-133,-33,995,-11,18,2
342,-157,-4,973,-2,2,0
343,-51,25,997,0,-16,-7
344,62,54,1007,-6,-20,-9
345,157,66,1006,-12,-13,-8
346,122,54,1010,-14,10,-1
347,0,15,1004,-8,26,5
348,-117,-20,978,-20,18,3
349,-152,-23,978,-12,5,1
350,-83,-20,991,-6,-14,-5
351,50,18,1009,-2,-21,-10
352,157,56,1009,-8,-15,-8
353,133,67,1004,-13,6,-3
354,35,48,1004,-18,21,2
355,-107,24,986,-23,23,5
356,-161,-10,995,-17,9,0
357,-114,-31,982,-13,-13,-4
358,27,-6,998,-9,-23,-7
359,150,24,1006,-8,-19,-10
360,155,42,1011,-11,2,-3
361,73,56,1001,-12,18,0
362,-74,38,998,-17,26,3
363,-161,5,989,-19,14,3
364,-147,-9,971,-16,-7,-2
365,-4,1,1008,-14,-24,-7
366,111,8,1017,-14,-23,-10
367,173,24,1003,-15,-6,-7
368,111,40,989,-14,15,-2
369,-41,31,1006,-14,26,3
370,-146,12,993,-14,18,2
371,-165,7,973,-14,1,1
372,-51,9,997,-13,-22,-7
373,74,10,1014,-16,-25,-10
374,172,32,1001,-14,-12,-7
375,134,33,1005,-18,10,-1
376,3,22,1022,-15,25,2
377,-125,8,976,-13,22,3
378,-165,4,969,-12,5,-1
379,-94,-2,999,-10,-16,-6
380,46,20,1009,-9,-24,-9
381,162,40,1007,-15,-17,-8
382,147,38,1001,-16,5,-4
383,40,29,1009,-18,23,2
384,-100,12,983,-17,25,3
385,-165,-4,992,-13,10,1
386,-100,-85,713,61,22,-1
387,-102,665,1095,25,40,16
388,72,134,1560,-153,-83,-1
389,-13,71,715,-142,-48,-5
390,283,-394,672,-146,-40,-23
391,-61,-421,1004,-35,22,39
392,249,-198,1217,34,4,-16
393,-31,-324,841,34,43,-5
394,-61,189,841,123,46,-1
395,-38,335,1362,52,20,-11
396,-160,447,890,13,18,7
397,-50,323,876,-67,-9,2
398,-21,11,1168,-104,-14,2
399,-22,-187,1030,-93,-21,1
400,36,-238,865,-62,-32,8
401,42,-244,956,-7,-9,5
402,135,-196,1022,37,12,-29
403,123,-128,996,65,31,-23
404,33,159,1015,83,33,0
405,-82,284,1058,45,29,2
406,-183,263,969,5,18,-5
407,-148,143,979,-34,-10,1
408,-19,-26,1016,-50,-27,-8
409,93,-142,1005,-42,-27,-8
410,178,-135,977,-13,-13,-7
411,116,-77,1003,14,13,-6
412,2,20,1010,30,28,-1
413,-112,112,988,27,26,0
414,-147,132,1001,10,10,-3
415,-101,96,993,-14,-13,-5
416,31,54,1002,-28,-27,-8
417,110,1,1003,-34,-23,-6
418,98,4,993,-32,-9,-3
419,18,36,996,-31,2,1
420,-75,45,987,-28,9,4
421,-93,-10,991,-30,0,0
422,-59,-31,985,-21,-9,-3
423,35,-22,1013,-14,-16,-6
424,101,-10,1004,-10,-12,-10
425,105,21,1000,-5,2,-5
426,52,57,990,-8,13,-2
427,-60,54,1005,-14,20,2
428,-119,28,989,-18,9,0
429,-120,13,986,-19,-4,-1
430,-10,-1,1004,-18,-20,-7
431,79,-8,1004,-18,-18,-8
432,147,14,996,-13,-7,-7
433,96,28,1010,-13,12,-1
434,-13,26,1013,-12,24,2
435,-121,26,973,-11,18,2
436,-145,28,980,-15,1,0
437,-68,12,1002,-15,-16,-6
438,51,14,1002,-14,-21,-8
439,152,24,1004,-18,-15,-7
440,129,21,1008,-17,6,-3
441,30,9,1001,-15,19,1
442,-99,18,979,-12,22,4
443,-153,9,1004,-10,8,0
444,-110,7,987,-9,-12,-5
445,27,26,996,-8,-22,-7
446,139,37,1007,-15,-17,-8
447,146,34,1015,-21,1,-3
448,66,21,998,-19,17,0
449,-77,17,989,-19,24,4
450,-150,-10,993,-14,14,3
451,-138,-1,976,-8,-5,-2
452,-4,18,1005,-10,-22,-8
453,108,30,1021,-11,-20,-11
454,160,42,1003,-16,-3,-5
455,97,40,988,-17,17,0
456,-41,23,1004,-19,25,3
457,-141,-9,995,-16,16,2
458,-151,-5,971,-11,-1,0
459,-39,2,1001,-10,-20,-8
460,81,20,1008,-10,-22,-9
461,165,42,1004,-12,-10,-7
462,123,48,1007,-15,10,-2
463,-8,31,1011,-18,26,3
464,-125,8,975,-18,21,2
465,-161,-4,975,-13,4,0
466,-81,-11,1000,-11,-17,-6
467,53,7,1008,-12,-22,-10
468,163,38,1005,-13,-14,-8
469,142,45,1002,-14,6,-4
470,31,32,1008,-16,23,1
471,-107,22,979,-18,25,3
472,-163,1,996,-16,10,1
473,-121,-9,986,-14,-13,-4
474,25,11,994,-12,-25,-9
475,148,26,1007,-12,-19,-10
476,154,37,1009,-16,1,-3
477,76,36,1007,-15,19,-1
478,-78,24,990,-17,26,5
479,-161,0,982,-14,15,3
480,-152,-6,980,-11,-5,-3
481,-12,11,1009,-9,-24,-8
482,118,22,1012,-12,-24,-10
483,167,35,1005,-15,-5,-7
484,106,46,993,-16,15,-2
485,-39,26,1001,-18,26,4
486,-147,-3,989,-18,19,2
487,-163,-5,975,-14,0,0
488,-41,3,997,-12,-21,-7
489,76,11,1006,-11,-23,-10
490,173,44,1007,-13,-12,-9
491,126,46,1011,-17,11,-2
492,-3,28,1005,-16,24,3
493,-130,9,978,-16,22,4
494,-194,-4,643,26,26,8
495,-298,752,1122,-31,22,20
496,17,107,1540,-185,-107,-1
497,-77,71,711,-167,-77,-5
498,447,-382,620,-175,-79,-43
499,-50,-477,931,-39,41,-20
500,301,-295,1206,48,21,-109
501,-33,-425,943,37,45,-20
502,31,122,762,128,17,37
503,104,314,1331,86,38,-11
504,-204,427,1027,37,46,-10
505,-137,400,839,-40,-3,19
506,-55,112,1112,-88,-6,-6
507,-114,-179,1045,-97,-20,6
508,111,-221,930,-55,-44,1
509,54,-303,905,-14,-7,-1
510,138,-213,979,48,10,-26
511,188,-156,1084,78,29,-27
512,12,146,994,102,46,0
513,-81,329,986,65,37,4
514,-160,295,1036,16,27,-8
515,-183,159,968,-31,-1,3
516,-43,-17,972,-51,-26,-6
517,75,-161,1042,-40,-26,-10
518,137,-169,972,-9,-16,-6
519,160,-78,990,26,8,-9
520,40,44,1030,39,31,-3
521,-68,136,1008,33,31,0
522,-131,145,974,18,23,-7
523,-139,124,977,0,3,-16
524,-24,105,1007,-20,-19,-26
525,31,-41,1007,-50,-23,0
526,76,37,991,-38,-19,-1
527,111,-51,1014,-38,-5,-7
528,34,-3,1006,-22,10,-1
529,-58,30,974,-22,13,5
530,-95,31,1008,-16,8,-3
531,-105,37,1001,-25,-7,0
532,4,39,974,-30,-22,-6
533,85,30,1012,-34,-18,-7
534,105,5,1001,-40,-7,-3
535,69,-11,1002,-33,7,-1
536,-26,-37,981,-24,16,1
537,-105,-31,997,-11,13,2
538,-101,-14,980,-1,-1,-4
539,-18,32,1005,0,-12,-7
540,77,60,1009,-6,-15,-8
541,119,70,1009,-16,-3,-5
542,80,55,989,-25,9,-2
543,-32,23,997,-26,18,3
544,-112,-23,999,-24,11,0
545,-129,-30,973,-15,-1,0
546,-24,-22,993,-6,-16,-7
547,71,11,1007,-6,-17,-8
548,142,51,1005,-7,-7,-7
549,108,70,1011,-13,10,-2
550,-12,49,1006,-20,23,4
551,-118,23,979,-20,18,3
552,-141,-5,979,-20,2,0
553,-73,-27,996,-15,-16,-5
554,55,-9,1004,-12,-23,-8
555,158,19,1009,-13,-13,-7
556,132,44,999,-10,7,-3
557,28,45,1005,-12,23,2
558,-107,42,988,-15,24,3
559,-160,15,996,-14,10,1
560,-113,-5,982,-15,-13,-5
561,23,1,994,-14,-24,-8
562,145,14,1011,-13,-19,-9
563,153,22,1006,-16,1,-4
564,73,31,1004,-14,18,0
565,-72,30,990,-13,27,4
566,-154,8,984,-13,16,2
567,-148,6,982,-11,-4,-3
568,-7,15,1008,-13,-22,-7
569,110,24,1014,-16,-22,-9
570,165,28,1002,-15,-6,-6
571,104,31,995,-17,15,0
572,-34,20,996,-17,25,2
573,-146,-2,997,-14,18,2
574,-155,0,971,-13,0,-1
575,-46,9,999,-10,-19,-7
576,76,27,1007,-11,-23,-8
577,164,42,1010,-16,-11,-8
578,127,43,1009,-15,9,-4
579,-3,22,1009,-20,24,3
580,-122,2,974,-17,21,3
581,-159,-6,978,-15,5,1
582,-81,-6,998,-12,-16,-7
583,50,13,1007,-11,-23,-9
584,156,41,1008,-12,-15,-8
585,140,46,1006,-16,5,-4
586,37,36,687,52,48,8
587,-278,617,1208,-24,68,29
588,-237,121,1457,-128,-48,6
589,-227,-94,690,-134,-57,-5
590,250,-397,716,-115,-84,-29
591,115,-375,1114,-17,-11,4
592,476,-149,1092,35,0,-79
593,120,-263,819,41,64,-23
594,2,284,991,110,61,26
595,-219,366,1320,23,47,13
596,-398,331,776,-10,25,-1
597,-162,121,969,-67,-34,2
598,85,-92,1163,-78,-48,-14
599,176,-167,989,-56,-38,-10
600,271,-182,846,-35,-21,3
601,158,-205,987,18,37,4
602,1,-130,1110,54,51,-12
603,-183,27,965,68,39,7
604,-196,233,951,66,20,-4
605,-107,222,1045,20,-7,-12
606,73,184,1019,-12,-22,-8
607,168,27,987,-42,-14,-8
608,84,-91,1013,-39,6,0
609,-15,-134,1003,-17,15,0
610,-105,-95,965,14,17,-2
611,-104,1,982,29,3,-4
612,0,93,1022,29,-7,-9
613,99,144,1012,11,-4,-9
614,87,142,987,-11,5,-3
615,21,86,1010,-31,11,-4
616,-105,79,992,-39,6,-9
617,-139,46,986,-51,-7,-6
618,-134,-36,983,-55,-22,2
619,7,-50,1003,-45,-36,-6
620,158,-74,992,-31,-29,-10
621,176,-56,997,-13,-3,-6
622,114,0,1001,-3,17,-1
623,-40,39,1007,3,29,2
624,-160,61,986,0,21,2
625,-183,69,968,-10,0,-1
626,-55,60,1013,-19,-23,-7
627,80,26,1014,-27,-28,-8
628,174,2,996,-27,-13,-8
629,140,-22,991,-24,9,-3
630,0,-21,1002,-15,25,4
631,-118,-22,1002,-5,22,1
632,-166,13,965,-1,7,-1
633,-77,46,998,-2,-15,-6
634,47,63,1012,-10,-23,-9
635,144,66,1006,-20,-14,-7
636,140,43,1006,-27,3,-3
637,24,-3,1014,-29,21,3
638,-100,-30,975,-21,22,3
639,-148,-28,975,-11,8,0
640,-93,-12,997,-4,-12,-6
641,30,27,1005,-4,-21,-8
642,150,67,1006,-9,-15,-8
643,138,75,1011,-17,4,-3
644,43,47,1002,-18,19,2
645,-93,8,989,-23,23,4
646,-152,-21,994,-19,10,2
647,-118,-35,980,-14,-10,-3
648,19,-7,994,-7,-23,-9
649,133,32,1008,-6,-17,-7
650,153,54,1013,-11,0,-5
651,73,60,1004,-14,19,1
652,-72,46,991,-17,26,5
653,-151,3,987,-19,14,2
654,-154,-17,978,-17,-5,-1
655,-11,-7,1005,-14,-24,-7
656,115,5,1013,-11,-23,-10
657,165,28,1000,-9,-4,-5
658,113,48,995,-12,15,-1
659,-39,43,1008,-13,28,4
660,-145,13,991,-16,18,1
661,-163,6,969,-15,0,-1
662,-50,-3,1000,-14,-21,-7
663,73,9,1009,-15,-25,-10
664,171,25,1003,-15,-13,-8
665,133,38,1008,-15,10,-3
666,5,26,1013,-18,23,4
667,-121,14,977,-14,23,3
668,-166,4,974,-12,7,0
669,-88,0,999,-12,-15,-6
670,43,14,1010,-12,-23,-9
671,161,36,1000,-15,-18,-9
672,143,41,1007,-16,5,-3
673,45,23,1007,-16,21,2
674,-98,15,988,-17,25,4
675,-157,0,991,-13,11,1
676,-128,-8,987,-11,-9,-4
677,21,14,995,-10,-22,-9
678,135,33,1006,-11,-18,-9
679,153,44,1011,-16,-1,-5
680,76,33,1009,-17,19,1
681,-71,29,985,-16,26,5
682,-153,-6,984,-15,15,1
683,-147,-7,984,-12,-4,-3
684,-12,9,1007,-12,-23,-7
685,111,23,1007,-8,-22,-10
686,163,36,1007,-15,-5,-6
687,108,47,992,-16,14,0
688,-38,33,1000,-17,26,4
689,-144,0,994,-16,17,1
690,-161,-1,973,-14,-1,0
691,-45,-38,835,8,-10,-7
692,-15,641,857,-39,-2,17
693,57,138,1667,-129,-44,9
694,-43,143,833,-121,-36,3
695,209,-373,668,-158,-43,-11
696,-101,-414,875,-51,14,16
697,122,-191,1237,24,5,-31
698,58,-339,972,15,14,-39
699,-14,61,733,92,25,7
700,217,215,1231,67,21,-18
701,-97,315,1135,30,45,0
702,-127,345,805,-21,14,13
703,-137,113,1060,-70,5,1
704,-188,-84,1095,-73,-14,3
705,26,-175,939,-53,-48,-3
706,113,-201,920,-21,-29,-5
707,169,-157,976,22,-1,-22
708,257,-163,1043,46,22,-31
709,62,10,1008,76,50,-1
710,-122,222,1009,68,44,8
711,-207,224,1024,31,30,-5
712,-231,178,949,1,1,-5
713,-33,73,990,-31,-31,-8
714,141,-47,1059,-37,-31,-15
715,183,-100,982,-25,-11,-6
716,145,-66,967,-4,14,-4
717,-30,-4,1027,12,34,1
718,-186,100,993,16,26,1
719,-209,176,945,1,0,-7
720,-90,169,1005,-26,-25,-13
721,58,42,1023,-59,-38,-4
722,194,-41,1020,-58,-28,-7
723,179,-129,980,-47,-1,-4
724,60,-137,993,-16,21,2
725,-86,-68,992,12,28,3
726,-163,20,983,23,17,0
727,-126,115,988,20,-3,-5
728,-9,150,1010,0,-18,-8
729,115,143,1017,-26,-20,-8
730,137,58,1004,-45,-6,-5
731,65,-34,995,-44,12,0
732,-60,-90,990,-34,19,3
733,-121,-101,996,-11,10,0
734,-107,-53,969,9,-6,-4
735,6,35,997,14,-15,-8
736,116,105,1017,8,-13,-9
737,125,125,1013,-12,1,-4
738,66,94,1004,-28,13,0
739,-70,30,996,-34,20,4
740,-134,-45,982,-33,9,2
741,-130,-77,974,-23,-7,-3
742,1,-48,1009,-5,-20,-9
743,114,0,1010,1,-18,-9
744,158,59,999,4,-1,-7
745,96,98,997,-5,17,0
746,-47,82,1009,-18,26,4
747,-150,29,992,-26,15,3
748,-162,-11,969,-27,-4,1
749,-41,-33,996,-21,-23,-6
750,84,-30,1013,-16,-24,-9
751,176,7,1001,-9,-10,-7
752,135,40,1008,-5,11,-3
753,1,49,1016,-7,28,4
754,-130,46,976,-12,26,4
755,-173,30,976,-14,6,2
756,-101,7,995,-19,-18,-5
757,40,3,1011,-18,-26,-8
758,165,11,1002,-19,-17,-8
759,149,16,1002,-17,4,-3
760,55,16,1006,-13,22,2
761,-97,14,993,-11,27,4
762,-157,14,988,-8,12,1
763,-132,7,982,-9,-8,-4
764,12,30,999,-11,-23,-8
765,133,41,1011,-16,-20,-9
766,155,35,1008,-20,-1,-5
767,83,23,1006,-19,17,0
768,-63,11,988,-17,25,5
769,-144,-11,983,-11,16,2
770,-154,-9,978,-9,-3,-2
771,-15,15,1011,-7,-21,-8
772,106,33,1011,-11,-21,-10
773,156,45,994,-13,-6,-7
774,110,48,1001,-17,12,-1
775,-33,23,1003,-22,25,3
776,-139,-8,991,-19,17,2
777,-157,-10,967,-13,0,-1
778,-44,-4,1002,-10,-19,-6
779,77,17,1008,-8,-22,-9
780,160,47,1008,-11,-11,-7
781,127,54,1009,-17,8,-3
782,-4,38,1012,-20,24,4
783,-125,12,969,-20,21,3
784,-160,-5,979,-16,4,0
785,-85,-12,999,-12,-15,-5
786,47,5,1002,-12,-22,-9
787,163,34,1007,-11,-14,-9
788,138,45,1005,-13,7,-2
789,40,43,1008,-14,22,3
790,-106,24,990,-16,25,4
791,-162,5,991,-17,9,3
792,-118,-11,980,-15,-12,-4
793,23,3,999,-13,-23,-9
794,144,25,1007,-12,-18,-9
795,157,33,1011,-15,1,-4
796,73,39,1006,-16,19,0
797,-74,34,988,-14,27,4
798,-152,3,984,-15,15,3
799,-153,-2,983,-13,-5,-2
800,-12,7,1010,-12,-22,-7
801,112,20,1008,-12,-24,-10
802,163,28,1001,-14,-6,-6
803,108,38,998,-16,16,-1
804,-38,26,1003,-17,26,4
805,-212,-23,912,1,24,0
806,-321,9,987,18,-1,-8
807,-28,21,1047,3,-36,-8
808,199,63,1000,-15,-35,-18
809,311,66,986,-23,-11,-26
810,167,-43,999,-43,10,-17
811,-5,9,1034,-18,31,15
812,-141,-81,913,-8,29,7
813,-17,261,717,11,60,0
814,-281,452,1567,-68,16,65
815,46,137,1059,-106,-63,8
816,112,-273,666,-129,-18,-20
817,-7,-514,869,-59,-9,8
818,54,-286,1072,35,1,14
819,172,-276,1058,63,19,-42
820,-166,146,900,110,45,8
821,1,490,1123,68,0,3
822,-37,435,1062,-7,14,-8
823,-95,243,867,-68,-3,9
824,82,-74,1081,-100,-21,-6
825,14,-293,1044,-73,1,-10
826,-6,-303,846,-23,-8,4
827,23,-187,1014,36,0,-7
828,-60,16,1067,61,9,-11
829,13,196,967,54,-1,-8
830,38,263,1015,23,2,-11
831,6,205,1026,-22,2,-3
832,30,85,983,-50,-2,-6
833,-39,-63,989,-57,0,-1
834,-79,-129,992,-39,-8,3
835,-34,-116,989,-13,-13,-5
836,13,-37,988,10,-11,-6
837,68,72,1000,14,-9,-6
838,115,134,1023,5,3,-8
839,48,141,1002,-14,16,0
840,-37,84,994,-36,18,4
841,-117,-11,996,-41,11,1
842,-116,-71,974,-35,-7,1
843,-27,-93,996,-25,-21,-5
844,75,-56,1000,-6,-19,-9
845,158,17,1003,8,-7,-8
846,119,73,1003,4,16,-5
847,7,94,1010,0,28,2
848,-117,86,989,-15,21,4
849,-161,36,999,-24,9,1
850,-115,-14,979,-26,-14,-4
851,31,-27,992,-26,-27,-8
852,145,-17,1004,-17,-21,-10
853,154,-3,1007,-11,1,-5
854,83,27,1002,-6,21,0
855,-70,44,989,-5,28,5
856,-155,38,987,-9,16,2
857,-155,27,980,-15,-6,-2
858,-20,29,1008,-16,-24,-6
859,104,17,1013,-21,-23,-9
860,166,10,1000,-21,-9,-7
861,116,7,990,-17,13,-1
862,-27,7,1005,-13,27,4
863,-133,-2,1000,-8,20,2
864,-162,9,966,-9,3,-1
865,-54,29,996,-7,-17,-6
866,64,42,1015,-14,-24,-8
867,157,48,1009,-19,-13,-7
868,129,36,1001,-20,6,-2
869,4,11,1010,-22,22,4
870,-114,-12,980,-18,22,3
871,-151,-12,974,-11,6,0
872,-85,-5,1000,-7,-15,-5
873,43,20,1011,-5,-22,-9
874,153,54,1004,-10,-13,-8
875,131,59,1002,-14,7,-2
876,35,37,1013,-20,22,3
877,-103,11,986,-21,23,4
878,-153,-10,986,-18,9,0
879,-114,-24,984,-14,-11,-5
880,30,1,996,-7,-24,-10
881,139,32,1010,-8,-17,-9
882,151,50,1010,-13,3,-4
883,67,45,1007,-15,19,1
884,-78,39,986,-18,25,4
885,-155,0,983,-18,13,3
886,-143,-14,984,-15,-7,-4
887,-3,-1,1007,-14,-23,-8
888,120,14,1006,-11,-23,-10
889,166,28,1003,-14,-5,-6
890,103,46,995,-14,16,1
891,-43,36,1002,-17,27,6
892,-151,9,999,-17,18,2
893,-159,0,967,-16,-2,-1
894,-39,1,994,-13,-20,-7
895,80,10,1013,-13,-23,-10
896,171,30,1012,-15,-11,-6
897,127,41,1002,-15,10,-2
898,-7,33,1004,-17,26,3
899,-127,13,981,-15,21,3
900,-168,6,975,-15,5,1
901,-79,-5,998,-12,-18,-6
902,51,10,1012,-12,-25,-9
903,164,35,1003,-13,-15,-8
904,141,40,1002,-16,5,-3
905,33,32,1010,-14,20,2
906,-110,14,987,-16,24,4
907,-163,4,987,-13,11,-1
908,-112,-10,983,-12,-11,-4
909,26,12,996,-9,-25,-8
910,146,30,1010,-12,-18,-9
911,94,26,987,-10,3,-4
912,4,46,1015,-5,16,-2
913,-67,19,984,-20,9,0
914,-68,17,983,-18,-1,-1
915,-34,0,998,-7,2,-2
916,15,8,1024,-21,-11,-6
917,79,-38,939,-22,-6,-10
918,394,410,572,1,66,2
919,-343,525,1770,-111,54,87
920,-45,128,1007,-147,-62,15
921,37,-220,620,-185,2,-11
922,-284,-600,705,-122,10,19
923,-106,-378,950,28,-32,3
924,307,-464,1161,82,-27,-83
925,-61,-52,852,118,42,-13
926,307,300,1185,115,-3,-40
927,174,549,1195,62,38,9
928,-270,497,788,-28,53,30
929,-161,131,1032,-93,0,0
930,-176,-194,1152,-92,-6,-7
931,-61,-316,809,-62,-37,-2
932,228,-314,939,-3,-45,-8
933,210,-145,1105,51,9,-19
934,79,15,988,65,28,-15
935,-20,232,995,71,32,-1
936,-207,289,1040,27,33,0
937,-193,201,951,-14,-2,-4
938,-17,61,1003,-45,-28,-13
939,81,-79,1008,-53,-30,-9
940,170,-143,995,-34,-20,-9
941,128,-140,1009,-4,6,-8
942,-39,-25,971,22,23,0
943,-97,65,1003,31,18,-5
944,-142,124,1005,21,7,-7
945,-53,160,985,1,-12,-6
946,57,115,1004,-26,-20,-11
947,95,68,1014,-45,-14,-3
948,77,11,995,-51,-4,2
949,-2,-52,996,-48,7,3
950,-80,-95,989,-27,5,2
951,-92,-75,976,-8,-2,-2
952,-9,-25,992,6,-10,-8
953,54,44,1007,9,-9,-8
954,119,102,1019,-2,-2,-6
955,74,101,1007,-15,11,-3
956,-28,70,989,-25,18,4
957,-107,6,985,-32,12,2
958,-127,-32,991,-28,-3,-1
959,-39,-57,995,-19,-19,-6
960,67,-33,999,-7,-21,-10
961,151,20,1004,-1,-9,-9
962,113,59,1006,-4,11,-5
963,12,68,1011,-8,22,1
964,-116,57,985,-17,21,2
965,-155,29,994,-21,5,-1
966,-99,-10,980,-22,-16,-5
967,34,-15,997,-20,-25,-8
968,151,-5,1016,-15,-19,-10
969,146,8,1002,-13,4,-4
970,66,27,1003,-9,21,0
971,-80,39,988,-9,26,3
972,-160,30,992,-10,13,1
973,-139,17,985,-13,-8,-3
974,-9,26,1008,-15,-23,-6
975,122,23,1002,-18,-23,-9
976,159,12,1002,-18,-5,-6
977,99,16,997,-17,15,-1
978,-44,8,1005,-15,26,4
979,-141,-2,990,-9,18,1
980,-154,4,968,-8,0,-2
981,-37,27,998,-6,-19,-7
982,77,35,1017,-14,-21,-9
983,159,44,1014,-19,-9,-7
984,121,41,995,-19,10,-1
985,-7,17,996,-20,23,4
986,-123,-13,985,-18,21,2
987,-157,-8,982,-12,4,0
988,-70,-3,994,-8,-16,-7
989,51,20,1003,-7,-22,-10
990,158,50,1008,-11,-13,-8
991,129,62,1008,-17,8,-2
992,23,36,1014,-21,22,2
993,-108,9,984,-21,22,3
994,-156,-7,984,-18,7,0
995,-99,-21,980,-11,-13,-6
996,29,2,1001,-9,-22,-8
997,150,34,1015,-10,-18,-8
998,144,44,1008,-13,2,-3
999,57,46,1000,-17,19,2
1000,-88,31,985,-18,27,4
1001,-158,1,993,-16,12,3
1002,-133,-17,986,-15,-10,-2
1003,8,1,1000,-10,-24,-8
1004,129,21,1005,-12,-21,-9
1005,160,35,1005,-13,-2,-5
1006,91,42,1000,-14,17,-1
1007,-54,39,1004,-16,27,4
1008,-150,2,990,-16,16,1
1009,-157,-3,964,-13,-3,-2
1010,-29,4,999,-12,-23,-7
1011,92,15,1021,-12,-23,-10
1012,170,26,1011,-14,-9,-7
1013,123,44,994,-14,12,-1
1014,-21,27,1001,-13,25,3
1015,-136,8,992,-13,22,3
1016,-161,3,975,-15,7,1
1017,-69,3,996,-13,-18,-6
1018,61,16,1007,-13,-25,-9
1019,157,33,1000,-10,-14,-8
1020,130,43,1006,-24,1,-3
1021,10,25,1013,-23,18,2
1022,249,-58,574,10,38,-2
1023,-400,826,1225,-47,144,76
1024,-216,170,1473,-137,-110,41
1025,-132,2,557,-164,-29,-1
1026,175,-605,612,-165,-27,-86
1027,-265,-587,829,-1,13,-8
1028,642,-486,1261,110,-41,-104
1029,21,-200,1039,120,65,0
1030,9,521,893,152,27,28
1031,7,688,1296,49,35,-11
1032,-364,566,866,-47,46,20
1033,-150,163,881,-128,-31,1
1034,143,-345,1213,-136,-32,-31
1035,30,-456,890,-72,-14,2
1036,204,-412,831,2,-20,-7
1037,39,-198,1157,78,25,-10
1038,-121,133,977,99,24,-1
1039,-31,302,958,78,11,-17
1040,-74,336,1071,27,8,-13
1041,1,221,989,-28,-10,-6
1042,95,9,994,-58,-12,-20
1043,-18,-155,991,-51,-2,-1
1044,-17,-196,979,-20,-8,-8
1045,-32,-149,1007,16,-2,-13
1046,-23,18,984,44,-6,-4
1047,63,132,1012,38,-4,-17
1048,84,186,1021,21,8,-18
1049,33,180,985,-4,13,-13
1050,-25,71,1002,-31,9,-15
1051,-106,-16,994,-36,5,-10
1052,-111,-93,976,-33,-9,-6
1053,-40,-115,996,-14,-21,-10
1054,65,-51,1004,6,-21,-8
1055,157,51,1013,13,-9,-8
1056,129,164,1013,3,12,2
1057,7,202,997,-19,25,11
1058,-125,152,978,-44,20,3
1059,-168,44,1006,-62,-1,-1
1060,-155,-75,981,-66,-24,5
1061,-7,-132,988,-49,-40,-4
1062,155,-105,1002,-27,-36,-9
1063,182,-49,1008,-10,-11,-6
1064,136,28,997,2,13,-4
1065,-17,60,1003,4,31,2
1066,-140,79,1000,-3,24,4
1067,-188,56,968,-16,2,0
1068,-74,41,996,-24,-21,-7
1069,61,8,1023,-31,-30,-7
1070,162,-6,999,-28,-17,-7
1071,153,-15,990,-22,5,-4
1072,22,-10,1005,-13,24,3
1073,-109,-5,1005,-6,24,3
1074,-158,18,968,-2,10,1
1075,-94,42,995,-4,-10,-4
1076,27,56,1003,-12,-23,-10
1077,137,56,1013,-21,-18,-7
1078,138,39,1005,-27,0,-3
1079,38,2,1010,-29,18,4
1080,-84,-21,981,-20,21,2
1081,-144,-24,975,-14,9,2
1082,-96,-14,995,-5,-10,-4
1083,16,20,1005,-2,-18,-8
1084,135,61,1006,-7,-15,-9
1085,136,71,1006,-14,3,-5
1086,45,54,1003,-22,17,2
1087,-81,20,989,-25,22,3
1088,-146,-18,999,-21,10,1
1089,-118,-32,977,-16,-9,-3
1090,16,-14,993,-9,-21,-9
1091,127,24,1009,-7,-17,-10
1092,147,50,1011,-11,1,-5
1093,75,57,1004,-13,17,-1
1094,-69,48,989,-18,25,3
1095,-143,8,990,-18,14,1
1096,-148,-10,983,-17,-5,-2
1097,-13,-4,1006,-13,-21,-8
1098,109,5,1012,-12,-23,-10
1099,161,23,999,-11,-6,-6
1100,113,42,991,-12,13,-1
1101,-36,40,1009,-14,27,5
1102,-141,14,996,-15,17,1
1103,-160,4,967,-15,0,-2
1104,-46,6,994,-14,-20,-5
1105,70,10,1012,-14,-24,-7
1106,167,30,1012,-15,-13,-8
1107,130,33,1003,-16,8,-2
1108,0,27,1005,-14,23,3
1109,-118,6,983,-14,20,3
1110,-161,7,977,-12,5,0
1111,-85,0,995,-11,-16,-5
1112,40,15,1012,-12,-25,-9
1113,157,36,1006,-15,-17,-7
1114,144,38,996,-17,4,-4
1115,33,24,1012,-18,21,2
1116,-98,18,990,-14,23,5
1117,-157,0,988,-14,10,1
1118,-118,-9,978,-11,-10,-4
1119,21,15,1002,-10,-23,-8
1120,140,34,1013,-12,-18,-9
1121,147,40,1007,-17,1,-4
1122,73,36,1004,-18,17,-1
1123,-73,22,988,-17,25,4
1124,-152,-2,984,-13,12,2
1125,-144,-13,984,-13,-6,-3
1126,-151,-23,897,15,-11,-7
1127,-62,52,1090,9,-45,-19
1128,289,75,1106,-50,-60,-12
1129,320,74,918,-38,1,-24
1130,185,-55,915,-27,36,-15
1131,-144,3,1131,-9,48,26
1132,-274,4,953,-13,15,6
1133,-220,-39,894,-8,-6,-11
1134,-28,4,983,-1,-28,-8
1135,587,654,611,2,47,3
1136,-235,502,1816,-157,30,86
1137,-2,148,884,-171,-60,38
1138,113,-254,626,-207,15,-14
1139,-374,-702,785,-136,47,-15
1140,-163,-429,900,23,-13,-34
1141,190,-691,1044,78,-37,-96
1142,-77,-49,801,174,17,-19
1143,363,359,1409,138,-23,-44
1144,236,704,1112,73,22,6
1145,-159,581,747,-28,54,22
1146,-188,123,1138,-110,16,-5
1147,-218,-261,1106,-105,0,-8
1148,-67,-442,719,-60,-32,-10
1149,141,-405,1002,20,-37,-20
1150,226,-102,1164,81,-8,-19
1151,134,140,917,92,22,-14
1152,-18,358,998,70,37,-3
1153,-180,326,1097,11,28,-1
1154,-180,160,921,-23,1,-25
1155,-40,-6,991,-53,-23,-30
1156,54,-196,1025,-56,-31,-3
1157,151,-183,993,-14,-22,-15
1158,135,-132,963,16,2,-9
1159,10,61,1042,41,21,-1
1160,-59,140,1014,33,23,-5
1161,-125,171,968,21,16,-14
1162,-75,181,968,-12,-5,-8
1163,-41,90,1006,-43,-18,-2
1164,40,90,1023,-54,-23,1
1165,89,-4,1000,-70,-19,4
1166,55,-61,995,-55,-6,3
1167,-22,-119,986,-44,2,5
1168,-64,-98,985,-15,1,1
1169,-38,-65,991,2,-6,-5
1170,23,14,987,12,-7,-10
1171,91,92,1014,9,-3,-9
1172,71,121,1010,-8,7,-5
1173,0,103,1004,-25,12,1
1174,-84,42,989,-35,9,2
1175,-117,-18,990,-35,1,0
1176,-59,-67,981,-27,-15,-5
1177,41,-59,997,-13,-18,-8
1178,133,-7,1009,-3,-11,-10
1179,122,36,1005,-2,8,-6
1180,41,65,1000,-3,21,-2
1181,-88,85,991,-10,23,3
1182,-149,52,1000,-20,8,0
1183,-125,9,987,-23,-12,-4
1184,11,-12,999,-23,-23,-7
1185,130,-17,1004,-18,-21,-8
1186,155,-14,996,-14,-3,-5
1187,95,13,1004,-8,17,-1
1188,-50,36,1000,-7,28,5
1189,-140,31,994,-8,18,2
1190,-156,38,972,-10,-1,-2
1191,-32,41,999,-16,-20,-7
1192,84,22,1018,-20,-22,-9
1193,156,13,1007,-22,-10,-6
1194,121,4,989,-22,10,-2
1195,-9,0,999,-15,25,3
1196,-125,-9,990,-10,20,2
1197,-155,11,980,-6,5,-2
1198,-70,25,996,-6,-15,-6
1199,50,41,1003,-10,-21,-9
1200,153,54,1006,-17,-14,-7
1201,129,44,1008,-23,6,-4
1202,22,15,1013,-22,21,3
1203,-105,-8,977,-19,23,3
1204,-155,-16,981,-13,7,1
1205,-93,-16,989,-8,-11,-5
1206,28,13,1007,-6,-21,-7
1207,148,50,1007,-9,-17,-9
1208,138,59,1009,-13,3,-4
1209,49,44,1000,-20,21,2
1210,-87,22,989,-22,24,5
1211,-156,-7,996,-19,10,1
1212,-122,-26,980,-16,-11,-3
1213,13,-2,992,-7,-22,-9
1214,132,27,1012,-9,-20,-9
1215,156,44,1010,-10,-2,-5
1216,81,51,1000,-12,18,0
1217,-63,38,994,-18,25,4
1218,-147,4,995,-16,14,3
1219,-153,-15,969,-15,-4,-2
1220,-23,-2,1004,-13,-22,-7
1221,103,11,1021,-10,-24,-11
1222,166,30,1003,-15,-7,-7
1223,118,47,988,-13,12,-1
1224,-25,32,1009,-17,27,4
1225,-139,10,994,-16,19,3
1226,-163,3,971,-13,2,-1
1227,-58,3,995,-14,-19,-7
1228,65,9,1013,-14,-24,-9
1229,166,31,1004,-12,-14,-8
1230,135,38,1003,-16,8,-3
1231,10,27,1014,-14,25,3
1232,-117,11,983,-15,23,4
1233,-162,8,967,-13,8,1
1234,-100,-3,999,-10,-15,-5
1235,42,13,1008,-10,-24,-8
1236,152,36,1007,-13,-16,-9
1237,151,42,997,-16,4,-5
1238,43,29,1012,-17,21,2
1239,-91,19,987,-19,24,3
1240,-161,-4,994,-15,11,3
1241,-117,-10,976,-12,-12,-4
1242,473,730,409,-6,61,50
1243,-356,1116,1252,-260,65,201
1244,-26,220,1325,-277,-100,59
1245,324,133,1089,-395,-38,-21
1246,-19,-361,525,-490,71,-27
1247,-360,-169,467,-314,62,16
1248,146,-339,1182,-243,-36,-18
1249,-116,-43,1304,-233,-2,79
1250,-57,82,886,-294,-26,22
1251,240,-76,915,-264,-20,-41
1252,-96,18,923,-205,42,-26
1253,-35,-276,1056,-233,-1,-34
1254,32,-362,963,-180,-14,-11
1255,-86,-248,767,-107,5,3
1256,-49,-432,795,-59,-6,-35
1257,2,-524,964,58,-3,-47
1258,-10,-435,849,137,0,-52
1259,29,-538,780,201,-9,-48
1260,79,-567,802,324,-10,-34
1261,30,-498,854,424,-1,-18
1262,4,-506,861,511,-1,-16
1263,-2,-469,862,606,-2,-12
1264,45,-76,1070,693,4,-11
1265,216,1658,1904,567,22,0
1266,112,963,1047,220,101,22
1267,-28,331,184,149,99,132
1268,-348,603,466,106,35,194
1269,-186,1002,1404,-83,-24,119
1270,-253,579,1144,-249,-16,-15
1271,-170,60,718,-251,-53,4
1272,146,64,1158,-226,-125,8
1273,321,-555,1425,-234,-65,-8
1274,41,-572,805,-118,-11,-68
1275,107,-465,654,-14,5,-87
1276,-20,-459,958,75,24,-46
1277,50,56,1369,122,-2,2
1278,69,218,923,84,4,-3
1279,-2,410,892,69,33,-17
1280,-85,527,1043,-12,10,-8
1281,-25,259,1057,-91,-12,1
1282,-108,57,923,-115,-7,-7
1283,-64,-274,1043,-117,-23,6
1284,-5,-328,1022,-53,-26,-5
1285,44,-218,931,-3,-19,-4
1286,137,-165,894,32,-5,-25
1287,181,0,1099,63,25,-26
1288,81,183,1073,49,27,-6
1289,-61,271,953,16,31,12
1290,-206,249,957,-22,22,-4
1291,-222,124,1030,-58,-11,5
1292,-70,-34,983,-69,-36,-5
1293,68,-157,999,-60,-38,-7
1294,198,-128,1003,-29,-28,-5
1295,220,-112,986,1,6,-11
1296,100,-44,970,25,38,-7
1297,-89,77,1043,31,44,7
1298,-179,146,1020,22,29,-1
1299,-211,136,940,-3,4,-4
1300,-62,113,989,-26,-28,-5
1301,110,41,1054,-46,-33,-9
1302,169,-40,993,-49,-17,-8
1303,146,-88,974,-34,3,1
1304,13,-77,1008,-11,25,3
1305,-114,-51,999,7,26,3
1306,-160,18,965,18,12,-2
1307,-78,98,1007,14,-7,-7
1308,38,120,1015,-7,-19,-9
1309,131,101,1010,-23,-13,-7
1310,120,46,987,-39,3,-2
1311,7,-17,1007,-40,16,4
1312,-93,-78,1000,-27,15,1
1313,-139,-68,964,-10,5,0
1314,-55,-26,991,2,-12,-7
1315,38,30,1009,6,-16,-11
1316,135,95,1009,2,-12,-9
1317,118,110,1010,-14,6,-3
1318,8,77,1016,-26,19,3
1319,-101,11,983,-31,17,4
1320,-145,-37,972,-28,5,3
1321,-87,-63,996,-18,-14,-5
1322,40,-38,1005,-8,-22,-9
1323,148,21,1003,-3,-16,-9
1324,141,62,999,-3,5,-5
1325,49,75,1014,-10,21,1
1326,-92,65,988,-19,24,3
1327,-158,21,1000,-20,10,2
1328,-131,-17,977,-24,-12,-3
1329,7,-25,994,-21,-27,-8
1330,138,-8,1006,-13,-21,-10
1331,159,7,1008,-12,-1,-4
1332,97,37,1003,-7,17,-1
1333,-57,43,995,-9,28,3
1334,-154,34,990,-11,17,2
1335,-164,17,975,-14,-2,-2
1336,-31,19,1013,-14,-22,-8
1337,90,12,1012,-18,-23,-8
1338,166,16,998,-16,-10,-8
1339,124,16,991,-17,12,-1
1340,-15,16,1007,-14,26,5
1341,-133,2,997,-10,21,3
1342,-166,11,967,-9,4,-1
1343,-65,23,996,-7,-16,-6
1344,56,28,1013,-14,-23,-9
1345,155,43,1005,-15,-14,-7
1346,135,37,1003,-19,6,-2
1347,89,-39,908,-16,24,3
1348,178,377,815,-11,90,24
1349,-500,110,1619,-75,23,47
1350,-142,312,707,-91,-35,28
1351,-101,-439,775,-105,-26,-21
1352,-16,-283,1109,-24,-44,-9
1353,363,-251,1033,-7,-27,-34
1354,252,-224,922,45,35,-34
1355,-36,322,922,73,43,41
1356,-3,345,1296,15,28,-1
1357,-300,310,869,-32,38,7
1358,-211,41,869,-79,-17,12
1359,83,-143,1161,-69,-36,-20
1360,96,-280,977,-49,-19,-10
1361,184,-172,838,4,-19,4
1362,121,-77,1125,32,16,-3
1363,-83,51,1025,44,32,-6
1364,-145,140,914,41,17,-2
1365,-114,185,1039,14,0,-9
1366,-30,110,1033,-14,-17,-11
1367,131,14,972,-26,-21,-16
1368,107,-65,992,-29,-3,-7
1369,41,-69,1006,-9,5,-4
1370,-48,-69,1005,7,12,-6
1371,-133,16,966,20,9,-3
1372,-44,77,1002,21,-8,-11
1373,27,89,1016,9,-10,-15
1374,88,96,987,-4,-9,-8
1375,94,62,1015,-20,1,-8
1376,4,1,1017,-24,11,-4
1377,-89,-23,963,-17,9,1
1378,-99,-22,991,-9,-2,-4
1379,-57,5,999,-4,-15,-6
1380,41,89,998,-7,-18,-2
1381,122,117,1013,-20,-11,-2
1382,90,82,1008,-35,4,0
1383,19,17,991,-40,12,3
1384,-98,-39,985,-40,13,5
1385,-124,-80,998,-27,-2,0
1386,-73,-82,976,-11,-15,-6
1387,39,-18,995,1,-20,-9
1388,133,51,1010,3,-12,-11
1389,128,75,1010,-4,7,-8
1390,47,85,1001,-14,20,1
1391,-79,66,999,-21,22,5
1392,-148,5,986,-28,11,1
1393,-137,-27,975,-22,-9,-3
1394,0,-27,1007,-16,-25,-7
1395,110,-15,1012,-14,-21,-10
1396,167,16,999,-8,-3,-8
1397,107,50,997,-8,18,-2
1398,-34,53,1005,-11,28,4
1399,-145,34,990,-15,19,3
1400,-163,21,978,-16,1,-1
1401,-57,4,995,-20,-21,-6
1402,68,0,1010,-19,-26,-10
1403,169,15,1002,-17,-15,-8
1404,135,20,1006,-16,7,-3
1405,21,16,1012,-14,23,3
1406,-118,15,982,-12,24,4
1407,-159,19,975,-9,8,1
1408,-101,13,997,-9,-13,-6
1409,27,22,1005,-13,-23,-8
1410,156,37,1009,-18,-20,-10
1411,145,33,1004,-19,2,-5
1412,57,18,1000,-19,20,1
1413,-83,10,989,-16,25,2
1414,-158,-5,997,-9,13,1
1415,-130,-4,982,-9,-7,-4
1416,5,18,996,-8,-22,-8
1417,122,39,1007,-11,-19,-10
1418,155,41,1007,-17,-2,-7
1419,84,37,1003,-16,16,0
1420,-54,24,994,-18,25,4
1421,-142,-7,992,-15,15,2
1422,-152,-8,968,-12,-2,-2
1423,-20,4,1005,-9,-20,-7
1424,93,21,1018,-10,-23,-9
1425,157,40,1004,-12,-8,-6
1426,119,49,992,-15,12,-2
1427,-24,33,1003,-20,24,4
1428,-136,4,991,-17,18,3
1429,-156,-3,978,-15,3,0
1430,-61,-4,995,-12,-17,-5
1431,63,10,1008,-11,-23,-9
1432,162,32,1002,-11,-12,-8
1433,133,46,1006,-15,10,-3
1434,17,32,1018,-17,24,3
1435,-115,16,980,-14,23,4
1436,-159,0,976,-17,7,2
1437,-95,-8,992,-13,-13,-4
1438,32,3,1010,-11,-23,-9
1439,151,33,1004,-12,-19,-10
1440,143,40,1005,-13,4,-4
1441,58,34,1006,-16,20,1
1442,-88,28,984,-17,25,4
1443,-155,6,992,-15,13,1
1444,-137,-8,987,-15,-8,-3
1445,4,8,999,-12,-22,-7
1446,126,22,1004,-11,-20,-10
1447,158,33,1004,-15,-3,-5
1448,91,38,1005,-14,16,-2
1449,-57,33,997,-17,26,5
1450,-146,0,987,-17,16,2
1451,-152,-2,976,-12,-2,-4
1452,-29,6,996,-11,-21,-8
1453,93,17,1016,-12,-23,-11
1454,164,32,1014,-12,-9,-8
1455,120,42,992,-15,11,-1
1456,-13,27,1001,-16,25,3
1457,-134,3,988,-15,19,3
1458,155,-143,678,-11,11,-4
1459,-48,493,1053,-10,132,43
1460,-204,104,1529,-84,-77,21
1461,-111,-81,319,-81,0,-19
1462,-3,-518,693,-14,10,-107
1463,-181,126,1514,22,-35,51
1464,642,-98,1005,3,-40,-40
1465,-14,98,734,30,71,-7
1466,-143,310,1096,-10,17,68
1467,-19,184,1269,-30,21,-37
1468,-214,-78,701,-59,25,1
1469,-124,-75,927,-43,-29,28
1470,217,-189,1306,-27,-25,-42
1471,31,-187,797,4,3,-4
1472,44,32,915,37,-6,8
1473,-11,94,1235,30,14,-21
1474,-79,125,910,22,12,-5
1475,-18,116,885,3,-3,-7
1476,13,55,1148,-14,-4,-16
1477,59,-14,965,-21,-8,-9
1478,14,-59,929,-15,2,-7
1479,-47,-39,1064,-1,0,-5
1480,-36,-10,995,12,-5,-11
1481,-2,22,954,16,-4,-11
1482,14,84,1026,11,-5,-6
1483,88,87,1031,2,-3,-15
1484,52,73,971,-2,8,-16
1485,-13,73,994,-16,11,-12
1486,-79,-2,999,-26,6,-8
1487,-116,16,982,-19,-2,-4
1488,-71,39,976,-28,-17,6
1489,14,68,1028,-29,-24,2
1490,118,76,1008,-39,-20,-1
1491,113,20,992,-50,-5,-1
1492,26,-8,1016,-44,8,5
1493,-80,-50,978,-35,9,5
1494,-118,-59,986,-23,0,0
1495,-72,-55,987,-13,-15,-3
1496,49,-5,1000,-4,-21,-9
1497,140,38,1003,-2,-14,-8
1498,123,76,1018,-7,5,-2
1499,35,72,1000,-18,19,0
1500,-87,45,982,-21,22,3
1501,-146,-2,991,-24,9,2
1502,-127,-29,985,-20,-9,-3
1503,17,-22,1007,-14,-23,-8
1504,120,0,1005,-12,-20,-9
1505,157,32,1001,-8,-2,-6
1506,94,50,998,-11,18,-3
1507,-54,53,1000,-14,27,4
1508,-144,24,998,-15,15,2
1509,-152,7,972,-17,-1,-2
1510,-37,-4,992,-16,-21,-6
1511,84,-2,1013,-17,-24,-9
1512,166,24,1014,-14,-10,-7
1513,128,29,998,-13,9,-2
1514,-4,30,1008,-13,25,4
1515,-123,22,981,-13,21,3
1516,-162,16,976,-15,5,1
1517,-84,2,994,-14,-17,-7
1518,41,10,1009,-14,-24,-8
1519,162,30,1008,-17,-15,-8
1520,141,26,999,-17,6,-4
1521,42,28,1003,-13,22,1
1522,-96,15,989,-15,24,3
1523,-163,6,994,-10,12,0
1524,-125,-1,979,-11,-9,-3
1525,14,18,1002,-9,-22,-8
1526,135,33,1007,-13,-19,-9
1527,152,33,1010,-18,-1,-4
1528,74,33,1006,-18,17,0
1529,-66,25,987,-17,25,4
1530,-148,-5,989,-15,15,2
1531,-148,-5,979,-12,-3,-2
1532,-12,11,1007,-11,-21,-9
1533,105,20,1014,-11,-22,-10
1534,160,38,1004,-14,-6,-5
1535,109,46,996,-17,13,-2
1536,-31,29,996,-17,25,4
1537,-141,2,995,-15,17,2
1538,-151,-2,977,-14,0,-1
1539,-48,-5,994,-11,-18,-8
1540,70,9,1002,-12,-23,-9
1541,168,35,1009,-12,-11,-8
1542,125,45,1007,-15,10,-3
1543,4,30,1007,-18,24,2
1544,-117,18,984,-15,22,2
1545,-158,6,981,-14,6,1
1546,-90,-8,989,-13,-15,-6
1547,42,2,1010,-10,-23,-9
1548,155,32,1011,-12,-17,-8
1549,144,37,1003,-12,4,-4
1550,46,33,1003,-14,21,1
1551,-96,29,988,-17,25,4
1552,-156,7,997,-15,10,1
1553,-129,-6,980,-16,-10,-4
1554,13,9,1001,-11,-23,-8
1555,134,24,1008,-12,-19,-9
1556,154,26,1000,-16,-1,-3
1557,85,37,1005,-15,15,0
1558,-63,28,999,-16,26,4
1559,-150,4,985,-14,15,1
1560,-153,1,972,-11,-4,-3
1561,-17,9,1003,-11,-21,-7
1562,95,18,1022,-11,-23,-10
1563,167,30,1005,-13,-7,-7
1564,113,41,995,-16,13,-2
1565,-21,27,1000,-17,25,3
1566,-137,6,989,-15,19,2
1567,359,-86,513,-5,24,-4
1568,-447,441,1289,-18,130,53
1569,-16,87,1270,-74,-102,12
1570,-121,-142,252,-84,20,-40
1571,-10,-430,920,5,-3,-95
1572,-40,181,1492,1,-40,63
1573,603,-154,902,-5,-19,-59
1574,-134,125,748,26,69,23
1575,-74,264,1192,-16,9,53
1576,-31,114,1188,-28,31,-41
1577,-240,-69,651,-49,19,19
1578,-53,-22,1042,-37,-32,16
1579,180,-187,1259,-27,-14,-41
1580,2,-142,746,6,3,4
1581,64,18,989,30,-8,2
1582,-21,57,1221,29,15,-19
1583,-58,110,861,22,9,-1
1584,-7,110,929,8,-2,-11
1585,8,69,1145,-10,-2,-13
1586,48,12,941,-20,-6,-8
1587,-3,-33,944,-19,2,-8
1588,-55,-33,1061,-9,-2,-3
1589,-33,-15,985,3,-6,-9
1590,-8,7,956,8,-7,-7
1591,21,67,1029,7,-9,-6
1592,98,74,1030,-3,-3,-15
1593,34,62,968,-10,8,-6
1594,-31,69,992,-11,7,-8
1595,-57,38,1005,-21,3,-15
1596,-114,34,971,-27,-2,2
1597,-97,49,990,-32,-22,6
1598,25,25,1026,-37,-31,-7
1599,118,-2,988,-35,-22,-4
1600,129,-6,1001,-33,-7,-2
1601,56,-22,1019,-25,10,1
1602,-62,-17,978,-18,15,2
1603,-119,1,989,-14,7,2
1604,-95,0,995,-12,-10,-5
1605,20,22,991,-11,-20,-9
1606,122,38,1003,-12,-16,-8
1607,120,47,1023,-16,3,-3
1608,62,27,998,-19,15,-2
1609,-64,18,976,-17,22,3
1610,-138,-8,997,-16,12,2
1611,-124,-12,991,-13,-6,-4
1612,1,8,1000,-10,-20,-8
1613,103,29,1004,-10,-20,-9
1614,148,44,1015,-12,-5,-6
1615,92,43,991,-17,14,-1
1616,-42,35,996,-20,24,4
1617,-136,-2,1003,-18,15,3
1618,-147,-7,971,-15,-2,0
1619,-32,-5,989,-11,-21,-6
1620,74,13,1014,-10,-22,-9
1621,159,39,1013,-13,-11,-7
1622,120,42,998,-13,10,-4
1623,-8,37,1009,-17,25,4
1624,-121,14,980,-18,21,4
1625,-155,1,976,-15,6,1
1626,-82,-11,997,-14,-17,-5
1627,50,3,1011,-13,-24,-8
1628,157,29,1006,-12,-14,-9
1629,136,41,997,-16,6,-3
1630,35,36,1008,-14,22,2
1631,-103,25,989,-15,25,4
1632,-157,7,992,-15,10,1
1633,-118,-11,986,-13,-11,-4
1634,22,6,993,-11,-23,-10
1635,140,25,1009,-12,-20,-10
1636,151,34,1010,-14,0,-4
1637,73,39,1009,-15,17,-1
1638,-67,27,984,-17,26,4
1639,-157,4,988,-15,15,1
1640,-145,-6,983,-12,-5,-3
1641,-11,8,1004,-12,-22,-7
1642,109,16,1011,-12,-22,-10
1643,162,29,1013,-14,-6,-5
1644,108,45,990,-17,14,-1
1645,-32,29,996,-17,25,4
1646,-146,3,1002,-17,18,2
1647,-156,0,977,-14,-1,-1
1648,-46,0,991,-11,-20,-7
1649,70,15,1004,-12,-23,-9
1650,166,35,1012,-13,-12,-8
1651,127,42,1009,-15,9,-2
1652,0,31,1004,-18,24,4
1653,-120,14,986,-17,21,3
1654,-158,3,977,-13,6,-1
1655,-89,-7,984,-13,-16,-4
1656,44,5,1014,-12,-24,-8
1657,155,32,1012,-13,-16,-8
1658,141,39,998,-16,4,-4
1659,44,36,1002,-14,22,2
1660,-99,28,990,-18,24,4
1661,-157,3,997,-16,10,1
1662,-129,-9,980,-11,-10,-4
1663,18,5,998,-10,-23,-8
1664,137,23,1012,-10,-20,-10
1665,154,30,999,-15,-1,-5
1666,76,38,1005,-15,18,1
1667,-63,30,1001,-15,26,5
1668,-151,0,985,-16,15,3
1669,-147,0,969,-13,-4,-2
1670,-16,6,1006,-10,-22,-8
1671,99,14,1020,-14,-22,-9
1672,167,32,1005,-14,-7,-6
1673,110,39,994,-16,13,-1
1674,-25,32,1002,-17,25,5
1675,-139,8,989,-13,19,2
1676,-157,3,974,-14,1,-1
1677,-60,-2,998,-12,-19,-7
1678,69,12,1007,-12,-23,-9
1679,168,33,1001,-14,-13,-7
1680,140,28,1001,-15,8,-3
1681,724,184,471,8,86,11
1682,-818,294,1760,-65,124,66
1683,-152,54,845,-76,-74,11
1684,-198,-347,339,-79,33,-54
1685,-334,-338,1069,32,-25,-66
1686,366,155,1473,4,-91,31
1687,594,-129,826,3,4,-61
1688,-10,271,776,34,64,40
1689,13,244,1319,-36,31,35
1690,-225,126,1068,-37,61,-20
1691,-421,-126,584,-70,16,33
1692,-69,-134,1152,-35,-53,7
1693,183,-196,1200,-12,-33,-38
1694,139,-154,721,17,-13,-13
1695,257,70,1085,42,-6,-7
1696,-15,124,1184,29,38,-5
1697,-164,142,821,18,29,-3
1698,-202,86,967,-2,6,-5
1699,-103,44,1101,-13,-21,-12
1700,82,-60,943,-20,-33,-19
1701,179,-68,992,-8,-17,-13
1702,142,-8,1057,4,1,-6
1703,37,17,995,14,21,-10
1704,-126,42,964,16,25,-2
1705,-161,89,991,9,8,-3
1706,-74,61,1002,0,-13,-14
1707,17,50,984,-12,-22,-7
1708,119,46,1007,-19,-19,-8
1709,135,8,1020,-20,-3,-11
1710,34,-17,1002,-17,12,-2
1711,-69,-10,985,-10,16,-2
1712,-98,-6,1002,1,8,-12
1713,-77,21,975,0,-4,-9
1714,-22,48,988,-8,-13,0
1715,66,111,1008,-12,-17,-1
1716,89,125,1006,-31,-7,0
1717,46,93,1012,-46,1,2
1718,-39,15,998,-52,5,4
1719,-95,-65,979,-49,-1,1
1720,-112,-86,987,-35,-13,2
1721,0,-59,1008,-19,-23,-3
1722,87,-4,998,-9,-21,-7
1723,127,51,990,-7,-7,-2
1724,87,83,1010,-14,8,-1
1725,-19,56,1005,-23,19,2
1726,-108,9,990,-26,12,2
1727,-130,-18,978,-23,-2,0
1728,-33,-35,995,-17,-18,-6
1729,64,-20,998,-10,-19,-8
1730,144,22,1012,-8,-9,-6
1731,116,52,1012,-7,10,-3
1732,-3,53,998,-13,24,3
1733,-113,42,977,-15,19,3
1734,-151,22,989,-19,4,0
1735,-78,-8,998,-20,-17,-6
1736,47,-12,997,-18,-24,-9
1737,155,5,1008,-15,-15,-8
1738,135,20,1004,-12,5,-5
1739,33,27,1004,-11,21,1
1740,-100,35,990,-11,23,3
1741,-156,25,999,-12,10,0
1742,-114,8,978,-14,-11,-5
1743,21,16,992,-16,-23,-8
1744,138,23,1019,-17,-19,-8
1745,146,19,1007,-19,0,-4
1746,71,20,997,-14,18,-1
1747,-66,18,990,-14,25,3
1748,-151,3,992,-11,14,2
1749,-142,4,979,-11,-4,-3
1750,-7,19,1012,-11,-20,-7
1751,108,32,1009,-14,-22,-10
1752,155,32,1000,-18,-7,-5
1753,101,37,996,-18,13,-1
1754,-36,19,1004,-18,24,5
1755,-136,-6,991,-15,18,1
1756,-152,-5,971,-12,0,-1
1757,-39,5,1001,-9,-19,-7
1758,77,19,1007,-10,-21,-9
1759,161,44,1008,-14,-10,-6
1760,121,51,1008,-17,9,-3
1761,-6,26,1010,-19,24,3
1762,-125,6,971,-17,20,2
1763,-157,-6,978,-12,3,0
1764,-82,-11,1001,-13,-16,-5
1765,54,8,1004,-10,-23,-9
1766,161,39,1003,-12,-15,-7
1767,140,51,1005,-13,6,-4
1768,36,35,1010,-16,22,2
1769,-104,26,980,-18,24,4
1770,-159,-1,998,-16,9,0
1771,-116,-13,986,-13,-12,-5
1772,23,-1,987,-10,-25,-8
1773,145,23,1011,-10,-18,-9
1774,153,38,1015,-15,1,-3
1775,73,44,1002,-15,19,0
1776,-73,34,985,-16,26,4
1777,-157,3,990,-15,14,2
1778,-148,-4,979,-14,-5,-3
1779,-11,4,1003,-10,-23,-8
1780,111,17,1016,-12,-23,-9
1781,166,29,1003,-11,-5,-5
1782,109,43,997,-14,16,-1
1783,-35,32,998,-17,26,4
1784,-145,5,999,-15,18,2
1785,-158,5,972,-15,-1,-1
1786,-51,-1,996,-12,-18,-8
1787,78,15,1006,-14,-23,-9
1788,167,32,1009,-13,-11,-6
1789,129,43,1005,-16,9,-2
1790,3,25,1012,-19,25,4
1791,-103,-12,964,-15,23,3
1792,634,237,377,21,92,13
1793,-908,314,1803,-85,75,82
1794,34,66,710,-85,-102,10
1795,61,-451,310,-78,43,-117
1796,-271,-346,1216,51,1,-87
1797,428,72,1350,9,-66,41
1798,367,-128,792,32,42,-51
1799,-254,350,865,40,60,57
1800,-54,237,1277,-29,6,22
1801,-139,116,1018,-28,33,-37
1802,-265,-151,610,-61,-6,21
1803,132,-140,1271,-24,-49,-22
1804,178,-263,1095,-1,-8,-33
1805,35,-79,719,47,3,3
1806,69,105,1168,53,4,-15
1807,-105,115,1116,44,25,-13
1808,-50,118,810,34,7,-15
1809,-40,101,1007,15,-3,-30
1810,43,53,1119,-6,-14,-12
1811,53,15,937,-10,-2,-16
1812,14,-54,947,-6,0,-20
1813,-23,-15,1062,5,-2,-7
1814,-36,-10,1026,12,4,-9
1815,-35,-1,938,16,0,-6
1816,10,100,987,15,-7,-3
1817,52,236,1020,-6,-5,7
1818,-14,267,978,-46,-1,14
1819,-66,216,970,-80,-13,1
1820,-109,90,1002,-107,-26,0
1821,-90,-104,1055,-114,-37,9
1822,-7,-247,988,-89,-45,2
1823,125,-274,969,-42,-37,-8
1824,180,-132,993,1,-14,-11
1825,128,-47,992,26,18,-19
1826,68,76,1011,34,27,-2
1827,-78,205,1009,18,30,12
1828,-176,175,995,-12,16,-1
1829,-171,99,980,-40,-12,-1
1830,-27,20,1003,-48,-31,-4
1831,108,-72,1000,-49,-30,-9
1832,178,-107,1001,-32,-14,-6
1833,140,-79,988,-7,12,-2
1834,3,-20,1000,8,31,1
1835,-118,40,1012,16,26,2
1836,-175,96,973,12,11,1
1837,-81,112,987,-6,-14,-6
1838,36,87,1031,-26,-26,-7
1839,140,37,1017,-39,-18,-6
1840,138,-21,977,-40,1,-3
1841,32,-59,999,-26,18,2
1842,-86,-63,1005,-11,19,2
1843,-139,-25,971,5,10,-1
1844,-78,34,990,9,-8,-5
1845,22,79,1013,2,-17,-8
1846,126,106,1006,-10,-12,-7
1847,116,78,1003,-29,4,-2
1848,27,22,1018,-34,16,2
1849,-83,-34,982,-30,16,2
1850,-133,-56,973,-20,7,1
1851,-87,-50,988,-6,-10,-4
1852,29,-1,1011,0,-19,-8
1853,134,56,1008,1,-14,-9
1854,131,87,1005,-8,4,-3
1855,48,79,1011,-17,20,1
1856,-87,47,984,-23,24,4
1857,-151,-6,995,-26,9,2
1858,-126,-40,989,-21,-12,-4
1859,9,-29,1000,-12,-22,-8
1860,130,-3,996,-7,-18,-10
1861,153,36,1009,-6,-1,-5
1862,88,61,1006,-8,16,-1
1863,-55,57,998,-13,27,4
1864,-150,26,989,-17,15,3
1865,-158,5,975,-18,-3,-2
1866,-30,-1,993,-16,-22,-8
1867,90,-4,1018,-16,-25,-9
1868,170,17,1013,-16,-10,-7
1869,127,28,990,-13,11,-2
1870,-12,34,999,-12,26,3
1871,-131,19,1000,-12,22,1
1872,-165,13,976,-12,5,-1
1873,-74,11,989,-12,-17,-6
1874,53,17,1006,-15,-25,-8
1875,163,31,1009,-18,-16,-8
1876,140,32,1002,-19,6,-4
1877,25,16,1011,-16,22,2
1878,-104,9,990,-13,23,3
1879,-157,1,975,-12,9,1
1880,-107,0,980,-10,-12,-4
1881,23,19,1015,-11,-23,-9
1882,144,43,1013,-14,-18,-7
1883,147,41,1000,-16,1,-4
1884,62,29,1006,-19,18,2
1885,-80,18,991,-18,24,4
1886,-149,-11,991,-16,13,1
1887,-137,-15,981,-13,-7,-2
1888,1,8,1005,-7,-22,-9
1889,474,7,647,0,1,-13
1890,-72,537,1319,-37,118,54
1891,-38,147,1366,-87,-50,20
1892,-130,-133,438,-106,42,-3
1893,-179,-519,745,-32,20,-58
1894,-267,-30,1366,15,-31,44
1895,455,-251,1028,8,-47,-46
1896,-22,111,761,59,39,-11
1897,138,303,1092,14,-4,35
1898,128,361,1281,-11,32,-19
1899,-229,234,732,-84,47,40
1900,-190,-8,983,-101,-14,39
1901,-18,-264,1209,-85,-12,-15
1902,-56,-369,837,-27,-8,-26
1903,29,-203,808,32,-25,-17
1904,223,-122,1231,55,-17,-19
1905,70,161,988,71,17,-6
1906,32,206,923,44,20,-11
1907,-118,251,1080,14,21,-1
1908,-174,141,1006,-27,2,-1
1909,-64,-44,914,-40,-22,-17
1910,15,-124,1034,-28,-26,-9
1911,159,-123,1011,-4,-25,-16
1912,146,-81,991,19,2,-16
1913,31,47,998,33,19,-3
1914,-70,129,1009,27,22,-7
1915,-125,121,998,12,13,-12
1916,-136,104,970,-5,-6,-8
1917,4,71,1005,-19,-23,-18
1918,74,-11,1009,-32,-23,-9
1919,101,4,994,-27,-15,-3
1920,81,19,996,-27,0,0
1921,-30,51,1009,-25,11,6
1922,-105,38,990,-25,6,6
1923,-111,13,982,-29,-6,0
1924,-24,0,991,-29,-21,-3
1925,70,-25,1008,-26,-21,-7
1926,145,-22,1023,-24,-10,-12
1927,104,-30,983,-16,9,-10
1928,3,2,988,-4,19,-1
1929,-99,36,1011,-2,17,3
1930,-142,57,981,-5,7,-2
1931,-65,49,988,-13,-13,-7
1932,37,39,1010,-20,-19,-7
1933,129,25,1002,-23,-13,-7
1934,119,0,1002,-26,3,-5
1935,27,-13,1007,-18,17,2
1936,-80,-10,992,-12,18,2
1937,-131,2,986,-6,9,0
1938,-92,18,981,-3,-8,-4
1939,22,46,1009,-9,-18,-7
1940,123,54,1012,-16,-15,-8
1941,124,43,1003,-21,1,-4
1942,51,20,1003,-23,15,1
1943,-70,2,985,-21,20,3
1944,-135,-18,989,-16,9,2
1945,-121,-15,988,-10,-7,-4
1946,8,16,1006,-7,-18,-9
1947,112,39,1001,-10,-18,-9
1948,142,51,1002,-13,-2,-6
1949,81,47,1007,-17,15,-2
1950,-50,30,999,-22,24,3
1951,-139,-7,987,-18,15,2
1952,-146,-12,975,-14,-4,-2
1953,-21,-3,997,-11,-20,-7
1954,83,10,1011,-11,-19,-8
1955,162,39,1014,-13,-7,-7
1956,115,48,998,-15,12,-2
1957,-21,38,996,-16,23,3
1958,-128,12,987,-17,19,3
1959,-160,2,985,-14,3,0
1960,-62,-6,992,-13,-19,-6
1961,55,3,1000,-11,-23,-8
1962,162,35,1009,-11,-13,-8
1963,135,41,1005,-15,8,-3
1964,25,29,1009,-14,23,2
1965,-107,18,989,-14,23,4
1966,-160,9,986,-15,9,1
1967,-105,-3,977,-12,-12,-5
1968,30,12,1003,-12,-23,-8
1969,147,30,1020,-14,-18,-9
1970,150,31,1002,-16,2,-5
1971,62,30,999,-15,20,0
1972,-79,23,990,-16,26,3
1973,-152,0,993,-14,13,1
1974,-139,-3,978,-13,-7,-3
1975,2,11,1009,-11,-23,-8
1976,118,29,1008,-10,-20,-9
1977,159,34,996,-16,-4,-6
1978,96,39,1000,-14,15,-1
1979,-47,28,1011,-17,26,5
1980,-139,-2,985,-17,16,2
1981,-157,-6,965,-13,-1,-2
1982,-33,5,1003,-10,-21,-7
1983,82,19,1017,-11,-23,-10
1984,162,38,1009,-14,-10,-8
1985,123,46,999,-15,11,-2
1986,-10,31,1003,-17,24,3
1987,-128,5,984,-16,21,2
1988,-159,-1,978,-13,4,1
1989,-73,-6,999,-12,-17,-5
1990,55,7,1003,-11,-23,-8
1991,159,37,1007,-10,-14,-6
1992,137,46,1004,-15,8,-2
1993,29,34,1017,-17,23,2
1994,-107,20,983,-17,23,4
1995,-159,2,982,-16,9,1
1996,-107,-11,985,-13,-12,-4
1997,25,6,1003,-11,-24,-9
1998,148,32,1010,-10,-19,-9
1999,153,37,1009,-13,2,-4
2000,67,38,1002,-18,19,1
2001,-81,27,984,-17,26,4
2002,-156,5,989,-15,12,2
2003,-143,-11,987,-13,-7,-2
2004,-2,8,1007,-11,-21,-7
2005,122,24,1002,-14,-21,-9
2006,162,34,1006,-11,-3,-6
2007,98,40,999,-15,15,0
2008,-49,32,1005,-17,27,5
2009,-144,3,990,-15,15,0
2010,-161,-1,970,-13,-2,-2
2011,-37,5,994,-12,-20,-7
2012,80,14,1018,-12,-22,-10
2013,167,34,1013,-14,-10,-8
2014,125,42,998,-17,10,-1
2015,-10,27,1002,-17,24,3
2016,-125,7,986,-17,21,3
2017,-165,-2,977,-12,6,0
2018,-72,-2,997,-12,-17,-5
2019,51,11,1007,-12,-23,-8
2020,164,39,1004,-11,-15,-9
2021,139,43,1003,-18,6,-3
2022,29,31,1017,-18,22,3
2023,-106,13,982,-18,22,4
2024,-161,0,982,-14,9,2
2025,-107,-38,937,-10,-12,-6
2026,22,236,562,120,44,4
2027,-22,437,1482,-102,-9,13
2028,66,96,1133,-142,-79,-7
2029,31,-209,631,-147,-35,-20
2030,77,-488,627,-65,-14,-33
2031,-85,-368,1195,59,29,7
2032,315,-206,1169,68,-3,-57
2033,-81,-65,824,90,50,0
2034,67,537,1023,112,17,-11
2035,-69,408,1244,-1,29,5
2036,-141,369,772,-40,18,0
2037,-78,-65,1026,-101,-10,4
2038,-41,-240,1101,-71,-16,-8
2039,-10,-359,912,-31,-23,-2
2040,158,-214,904,35,-17,-16
2041,76,-34,1123,66,13,-8
2042,135,169,1015,70,18,-14
2043,17,244,983,40,38,1
2044,-114,265,999,5,32,1
2045,-183,214,971,-40,8,-9
2046,-159,86,961,-74,-21,-5
2047,-105,-27,1031,-89,-42,8
2048,107,-158,1024,-71,-48,-12
2049,208,-171,984,-39,-26,-9
2050,182,-104,959,-6,3,-2
2051,94,-33,1033,20,30,-3
2052,-91,62,1008,24,38,2
2053,-191,138,975,15,22,6
2054,-164,133,976,-7,-5,-6
2055,-48,98,1009,-33,-27,-4
2056,120,39,1013,-45,-33,-7
2057,168,-40,1008,-47,-13,-6
2058,121,-87,988,-32,8,0
2059,-14,-69,990,-9,25,4
2060,-124,-34,996,9,23,0
2061,-157,26,986,14,6,-3
2062,-49,102,1002,8,-12,-7
2063,62,116,1009,-12,-20,-8
2064,132,90,1001,-31,-13,-6
2065,103,32,1001,-40,4,-2
2066,-13,-24,1001,-36,18,5
2067,-101,-78,998,-22,14,3
2068,-130,-64,962,-9,1,0
2069,-41,-12,992,6,-13,-6
2070,62,49,1018,6,-16,-10
2071,136,95,1017,-3,-8,-7
2072,107,106,999,-15,8,-2
2073,-11,64,1006,-28,21,4
2074,-115,-3,987,-30,17,1
2075,-144,-40,976,-26,1,2
2076,-59,-59,993,-16,-17,-6
2077,52,-32,1003,-5,-22,-10
2078,161,29,998,-1,-12,-9
2079,127,72,1009,-4,10,-3
2080,19,73,1016,-12,23,2
2081,-109,55,987,-18,22,4
2082,-162,17,982,-23,7,2
2083,-109,-20,981,-21,-14,-4
2084,31,-23,1003,-18,-25,-9
2085,144,-2,1007,-10,-20,-9
2086,153,22,1011,-9,1,-4
2087,72,37,1006,-8,21,0
2088,-80,48,985,-10,28,5
2089,-158,33,992,-12,12,2
2090,-149,9,985,-17,-6,-2
2091,-7,15,1006,-16,-24,-7
2092,116,12,1005,-18,-23,-9
2093,165,16,999,-18,-6,-7
2094,107,18,1000,-16,12,-1
2095,-43,22,1006,-14,26,5
2096,-140,2,990,-10,19,2
2097,-162,6,968,-9,1,-1
2098,-45,24,994,-10,-19,-6
2099,79,26,1021,-13,-24,-10
2100,162,36,1014,-18,-12,-8
2101,124,38,996,-19,9,-1
2102,-1,17,1003,-18,24,3
2103,-122,-9,988,-18,21,2
2104,-155,-7,976,-11,5,1
2105,-76,0,998,-8,-15,-6
2106,49,18,1008,-9,-22,-9
2107,158,46,999,-12,-14,-8
2108,133,53,1005,-17,7,-4
2109,24,33,1018,-17,21,2
2110,-103,13,984,-20,22,3
2111,-156,-6,980,-16,9,0
2112,-111,-14,986,-12,-12,-5
2113,30,7,1006,-10,-23,-9
2114,144,29,1009,-10,-18,-9
2115,150,47,1002,-14,2,-5
2116,61,41,1014,-16,19,1
2117,-80,31,981,-19,25,5
2118,-155,2,988,-16,12,2
2119,-140,-13,989,-15,-8,-3
2120,2,1,1005,-11,-22,-7
2121,124,18,1001,-11,-22,-9
2122,157,33,998,-15,-4,-4
2123,98,46,1008,-15,15,-2
2124,-48,35,1000,-18,27,5
2125,-149,5,985,-18,17,3
2126,-157,-3,974,-15,-3,-2
2127,-39,3,995,-11,-21,-7
2128,89,11,1013,-14,-23,-10
2129,161,29,1018,-13,-8,-7
2130,124,43,994,-14,12,-1
2131,8,-90,770,6,32,3
2132,-127,639,757,137,142,32
2133,-354,169,1539,-199,-68,17
2134,-232,53,744,-157,-94,-3
2135,160,-310,627,-140,-79,-48
2136,41,-401,877,-55,-21,-34
2137,342,-182,1279,36,-3,-58
2138,310,-293,968,19,20,-53
2139,41,41,702,91,60,37
2140,1,335,1333,71,53,7
2141,-329,288,1065,13,52,7
2142,-281,315,716,-28,-2,7
2143,-25,71,1133,-80,-36,-6
2144,67,-92,1126,-78,-32,-9
2145,216,-203,896,-62,-34,-6
2146,160,-254,882,-19,1,11
2147,48,-186,1065,41,34,-1
2148,-63,-84,1066,59,32,-13
2149,-136,156,931,76,23,2
2150,-81,272,1000,42,3,-11
2151,-3,221,1051,-2,-8,-10
2152,73,126,979,-32,-13,-6
2153,37,-32,979,-54,-4,-1
2154,-15,-129,1038,-37,-2,-2
2155,-50,-138,975,-11,-3,-3
2156,-21,-53,960,18,-5,-7
2157,18,57,1025,25,-6,-7
2158,55,177,1030,13,-3,-7
2159,4,234,967,-19,1,-2
2160,-58,190,987,-48,-1,0
2161,-81,43,1019,-74,-11,0
2162,-61,-116,994,-71,-20,0
2163,22,-191,976,-46,-25,-4
2164,94,-172,990,-11,-19,-10
2165,143,-57,997,19,1,-11
2166,94,53,1008,29,20,-8
2167,-17,160,1021,20,28,2
2168,-128,182,987,-3,22,3
2169,-169,126,990,-30,2,0
2170,-102,22,985,-46,-21,-3
2171,36,-62,1003,-48,-31,-7
2172,150,-91,1006,-33,-25,-8
2173,163,-81,995,-14,-2,-5
2174,87,-27,997,5,21,-1
2175,-68,45,996,13,32,4
2176,-154,88,1002,8,19,2
2177,-164,96,981,-9,-4,-2
2178,-31,85,1000,-24,-24,-5
2179,101,38,1016,-37,-27,-8
2180,157,-12,999,-37,-11,-6
2181,118,-42,992,-29,8,-1
2182,-13,-42,1005,-17,24,3
2183,-118,-33,997,-1,20,1
2184,-147,17,965,5,5,-3
2185,-51,65,997,2,-15,-8
2186,56,83,1023,-10,-21,-9
2187,146,77,1013,-24,-14,-7
2188,117,45,993,-29,5,-2
2189,-1,-5,1001,-32,17,5
2190,-105,-53,988,-23,16,2
2191,-143,-40,977,-11,4,0
2192,-63,-20,994,-2,-13,-6
2193,47,28,1008,3,-19,-10
2194,146,74,1002,-3,-12,-7
2195,120,89,1009,-16,6,-3
2196,19,57,1016,-24,20,2
2197,-108,13,984,-29,20,4
2198,-145,-25,982,-23,5,0
2199,-97,-46,985,-17,-13,-5
2200,38,-19,998,-8,-23,-8
2201,150,21,1016,-5,-17,-9
2202,141,57,1006,-6,5,-3
2203,57,63,1005,-12,20,0
2204,-87,54,989,-17,25,4
2205,-163,17,992,-19,12,3
2206,-137,-14,984,-21,-9,-3
2207,4,-15,1006,-16,-24,-8
2208,126,0,998,-14,-22,-9
2209,168,17,1002,-12,-3,-6
2210,96,38,1003,-9,18,0
2211,-52,45,1004,-12,28,5
2212,-146,19,992,-15,18,1
2213,-165,6,966,-14,-1,-2
2214,-28,12,998,-14,-22,-7
2215,95,5,1023,-17,-23,-9
2216,174,21,1011,-17,-9,-7
2217,136,30,991,-16,11,-1
2218,-10,24,1007,-15,27,4
2219,-133,13,987,-14,22,4
2220,-168,11,976,-12,5,0
2221,-79,9,997,-10,-17,-5
2222,52,22,1009,-12,-26,-9
2223,167,38,998,-14,-15,-9
2224,136,39,1005,-18,6,-3
2225,23,24,1016,-19,21,3
2226,-113,6,987,-16,23,4
2227,-165,-3,974,-11,9,1
2228,-111,-5,984,-11,-12,-4
2229,28,16,1009,-11,-25,-9
2230,148,35,1012,-13,-19,-8
2231,149,44,1006,-16,1,-5
2232,59,34,1009,-19,19,1
2233,-85,24,985,-17,25,5
2234,-157,-4,989,-15,11,1
2235,-141,-11,989,-12,-8,-4
2236,1,2,1005,-11,-23,-8
2237,125,22,999,-11,-21,-9
2238,163,37,1000,-14,-3,-5
2239,94,47,1007,-16,15,-1
2240,-50,34,1003,-16,26,5
2241,-145,0,984,-18,17,3
2242,-157,-4,972,-11,-2,-1
2243,-29,0,998,-11,-21,-7
2244,91,10,1016,-11,-22,-8
2245,162,-69,801,-14,-6,-7
2246,38,699,601,122,112,25
2247,-119,283,1552,-199,-19,25
2248,-203,72,776,-187,-59,8
2249,158,-266,611,-178,-48,-15
2250,-70,-521,753,-100,-3,5
2251,64,-356,1192,45,-4,-26
2252,338,-316,1064,56,10,-83
2253,-62,-125,729,89,62,11
2254,184,349,1208,123,22,-8
2255,-144,455,1239,44,52,13
2256,-306,433,703,-25,24,14
2257,-111,60,1072,-79,-20,1
2258,-49,-178,1125,-79,-22,-11
2259,136,-316,864,-45,-38,-12
2260,252,-296,924,13,-14,-6
2261,99,-103,1106,64,32,-6
2262,-6,71,997,77,36,-10
2263,-150,231,980,69,34,4
2264,-206,263,994,31,10,-7
2265,-49,187,1018,-7,-17,-27
2266,72,37,991,-41,-25,-15
2267,79,-70,983,-48,-20,0
2268,120,-121,1026,-28,-10,-11
2269,8,-106,998,-4,9,-1
2270,-84,21,972,18,9,1
2271,-107,154,1003,10,-1,-4
2272,-67,234,1000,-14,-12,-1
2273,2,198,987,-56,-25,-1
2274,104,68,1026,-82,-24,-7
2275,104,-81,1005,-82,-10,-1
2276,44,-192,973,-55,2,2
2277,-33,-204,969,-18,10,-1
2278,-85,-110,993,18,7,-2
2279,-44,34,1007,34,-3,-7
2280,17,145,1000,26,-6,-8
2281,83,203,1005,4,-4,-4
2282,76,165,1014,-31,4,0
2283,0,55,1015,-52,11,2
2284,-82,-58,975,-51,8,4
2285,-105,-120,984,-33,-3,0
2286,-59,-122,984,-10,-13,-6
2287,46,-41,997,9,-16,-11
2288,130,57,1011,15,-6,-9
2289,110,124,1014,7,10,-3
2290,29,131,1007,-10,23,2
2291,-99,92,981,-29,21,4
2292,-152,8,995,-38,3,2
2293,-117,-60,988,-35,-16,-2
2294,22,-72,997,-21,-26,-7
2295,140,-41,999,-7,-21,-9
2296,163,3,1005,2,0,-5
2297,90,64,1005,5,20,-2
2298,-59,87,1003,-5,30,5
2299,-155,64,995,-15,18,2
2300,-165,31,969,-20,-3,-2
2301,-37,1,996,-24,-23,-6
2302,89,-22,1018,-21,-25,-9
2303,175,-14,1009,-18,-10,-5
2304,135,2,993,-13,11,-3
2305,1,17,1001,-6,26,3
2306,-125,29,992,-4,25,2
2307,-170,39,977,-5,8,0
2308,-90,37,993,-12,-15,-6
2309,40,29,1008,-18,-24,-8
2310,156,33,1009,-21,-16,-7
2311,144,16,1000,-24,4,-3
2312,40,0,1012,-18,20,1
2313,-96,-1,986,-12,23,4
2314,-155,-4,988,-7,11,0
2315,-114,7,978,-7,-8,-3
2316,15,31,1005,-6,-22,-8
2317,137,49,1010,-12,-20,-11
2318,144,45,1007,-19,-1,-5
2319,71,36,1001,-23,16,-1
2320,-72,9,989,-20,24,3
2321,-146,-13,983,-15,13,1
2322,-141,-23,985,-12,-6,-4
2323,-1,8,1007,-7,-21,-8
2324,111,30,1003,-9,-21,-9
2325,159,50,1002,-12,-5,-6
2326,98,54,1004,-18,15,0
2327,-46,36,1000,-21,25,4
2328,-138,-2,991,-20,16,2
2329,-156,-12,972,-16,-3,-1
2330,-33,-9,993,-12,-20,-6
2331,85,8,1014,-10,-22,-9
2332,164,35,1014,-11,-9,-6
2333,122,53,1001,-12,10,-2
2334,-9,43,1003,-15,26,2
2335,-131,19,983,-18,20,4
2336,-163,1,978,-17,4,2
2337,-75,-12,999,-15,-18,-6
2338,53,-1,1004,-14,-24,-9
2339,167,27,1008,-13,-14,-8
2340,141,42,1004,-14,7,-3
2341,28,36,1008,-16,23,2
2342,-104,27,988,-16,24,4
2343,-165,7,991,-12,10,1
2344,-114,-2,977,-13,-11,-4
2345,30,4,999,-13,-24,-8
2346,142,27,1013,-12,-20,-8
2347,155,30,1008,-15,1,-5
2348,71,32,1006,-17,19,1
2349,-75,29,983,-15,26,5
2350,-151,3,989,-15,14,2
2351,-151,-4,980,-12,-5,-2
2352,-6,14,1008,-11,-22,-7
2353,117,21,1013,-14,-22,-9
2354,157,30,997,-15,-5,-4
2355,108,41,998,-16,14,-1
2356,-43,27,1009,-17,27,4
2357,-148,1,988,-16,18,2
2358,-156,-4,970,-13,0,-2
2359,-44,5,998,-11,-20,-7
2360,76,15,1007,-15,-23,-9
2361,165,35,1013,-13,-10,-8
2362,124,44,1005,-15,10,-3
2363,-5,30,1008,-16,24,3
2364,-122,9,980,-16,22,3
2365,-161,0,977,-16,5,1
2366,-82,-8,996,-12,-17,-5
2367,50,7,1008,-12,-22,-8
2368,161,32,1006,-13,-13,-8
2369,143,45,1001,-34,8,1
2370,37,35,1007,-18,24,1
2371,-100,23,987,-19,23,4
2372,-289,253,303,66,37,16
2373,-245,747,1397,-111,-7,7
2374,-89,40,1129,-202,-86,-6
2375,33,-35,659,-188,-86,-28
2376,407,-338,473,-199,-50,-86
2377,-136,-624,1065,-49,50,-37
2378,421,-290,1130,69,-16,-131
2379,-15,-385,969,24,38,-8
2380,58,-5,724,100,5,31
2381,210,132,1381,109,38,-3
2382,-213,382,1002,76,73,-17
2383,-203,350,897,13,17,20
2384,-53,284,1079,-30,1,-5
2385,-178,-142,1025,-68,-6,3
2386,124,-229,895,-32,-39,-9
2387,88,-334,1027,9,-2,-7
2388,71,-143,966,71,5,-10
2389,122,-2,1050,91,18,-14
2390,11,205,1018,95,41,-6
2391,-73,272,973,60,32,-7
2392,-19,272,1045,24,18,-41
2393,-103,62,971,-34,8,-1
2394,-151,-10,944,-40,-13,7
2395,-18,-124,1054,-34,-31,-14
2396,56,-74,982,-16,-25,-2
2397,138,79,985,-3,-15,-3
2398,108,169,1032,-15,5,-4
2399,-5,197,1022,-39,16,2
2400,-111,135,945,-65,10,2
2401,-168,-3,1006,-79,-5,-1
2402,-106,-123,999,-73,-29,-4
2403,43,-172,972,-44,-34,-10
2404,162,-127,979,-16,-25,-14
2405,176,-58,1010,3,1,-14
2406,106,27,1010,18,21,-7
2407,-48,126,1000,16,30,8
2408,-161,142,995,-3,24,2
2409,-193,96,980,-23,1,-2
2410,-61,45,995,-35,-26,-5
2411,73,-25,1014,-42,-31,-8
2412,169,-58,1006,-33,-19,-9
2413,156,-50,986,-20,5,-4
2414,26,-25,997,-5,24,4
2415,-108,7,1003,7,26,3
2416,-161,54,984,4,12,-1
2417,-99,73,991,-2,-9,-6
2418,19,72,1002,-18,-24,-8
2419,139,55,1015,-29,-19,-8
2420,136,16,1003,-32,-2,-3
2421,50,-24,1006,-30,15,2
2422,-75,-42,986,-14,21,2
2423,-139,-26,980,-4,11,1
2424,-98,0,987,2,-5,-6
2425,5,46,1006,0,-17,-8
2426,123,80,1009,-9,-17,-8
2427,132,72,1007,-19,1,-4
2428,57,39,1005,-25,16,2
2429,-69,4,985,-27,21,4
2430,-138,-36,991,-20,10,2
2431,-122,-45,984,-12,-8,-2
2432,7,-9,995,-5,-19,-7
2433,116,33,1004,0,-16,-10
2434,145,64,1008,-7,-2,-5
2435,77,74,1007,-13,16,1
2436,-55,54,997,-20,25,5
2437,-144,1,988,-22,15,4
2438,-150,-21,972,-18,-5,-1
2439,-19,-20,997,-15,-22,-7
2440,93,-5,1015,-9,-22,-9
2441,163,27,1011,-9,-9,-5
2442,121,51,998,-11,11,-2
2443,-20,48,998,-12,26,5
2444,-132,25,991,-16,20,2
2445,-158,13,982,-17,3,0
2446,-66,-2,995,-16,-19,-7
2447,60,-3,1002,-16,-24,-10
2448,163,17,1004,-14,-13,-8
2449,140,28,1005,-13,8,-4
2450,25,26,1013,-14,23,3
2451,-107,25,986,-13,23,3
2452,-165,16,982,-13,9,1
2453,-102,3,983,-14,-13,-5
2454,27,10,1004,-14,-23,-10
2455,146,31,1011,-17,-20,-9
2456,150,27,1009,-16,1,-4
2457,62,27,997,-17,18,1
2458,-79,20,988,-15,25,4
2459,-156,3,992,-12,13,2
2460,-113,-122,699,4,-4,-1
2461,-33,823,563,128,53,20
2462,95,229,1527,-217,-54,-7
2463,-214,106,695,-182,-46,5
2464,284,-220,596,-173,-46,-35
2465,-92,-540,826,-105,23,5
2466,106,-368,1264,37,2,-32
2467,221,-360,958,29,11,-64
2468,-101,-94,692,90,52,28
2469,207,272,1263,108,17,-8
2470,-81,392,1261,48,51,1
2471,-194,402,671,-13,25,15
2472,-69,178,1101,-74,-2,11
2473,-139,-87,1162,-87,-2,-1
2474,13,-255,852,-66,-32,0
2475,146,-330,903,-15,-27,8
2476,99,-250,1036,51,15,-7
2477,151,-107,1050,80,25,-28
2478,-1,152,977,95,38,7
2479,-116,351,1006,65,31,7
2480,-156,275,1031,7,13,-3
2481,-118,150,987,-30,-8,-2
2482,-31,-59,966,-52,-26,-4
2483,96,-154,1026,-36,-28,-11
2484,151,-148,1000,-8,-13,-7
2485,91,-40,971,22,10,-5
2486,4,73,1024,29,23,-2
2487,-107,151,999,22,22,-1
2488,-110,162,971,10,4,-19
2489,-68,112,1007,-24,-9,-17
2490,-17,-13,1013,-47,-19,2
2491,66,-48,998,-37,-23,-9
2492,110,-115,980,-28,-10,-8
2493,72,-37,1006,-5,4,-3
2494,-15,19,999,2,15,1
2495,-81,53,1003,5,12,-4
2496,-106,85,981,-3,0,0
2497,-34,77,989,-13,-13,-4
2498,32,46,1017,-26,-20,-7
2499,99,22,1001,-31,-15,-4
2500,85,5,995,-28,-2,-4
2501,3,-8,1007,-25,9,-1
2502,-95,34,981,-20,9,1
2503,-118,59,975,-24,-3,-3
2504,-66,50,1006,-30,-20,-4
2505,42,25,1013,-37,-26,-6
2506,140,-1,996,-38,-18,-9
2507,116,-17,999,-36,-2,-5
2508,36,-19,1008,-26,12,1
2509,-81,-9,982,-19,16,1
2510,-122,7,989,-10,6,0
2511,-92,16,992,-9,-10,-4
2512,26,29,995,-11,-20,-9
2513,121,40,1009,-15,-15,-8
2514,124,34,1006,-21,2,-5
2515,55,19,1003,-22,14,-1
2516,-65,10,984,-18,19,2
2517,-128,-7,988,-13,10,1
2518,-124,-5,987,-9,-6,-3
2519,0,18,1008,-9,-19,-7
2520,103,31,1006,-13,-18,-9
2521,139,42,1006,-15,-2,-8
2522,87,35,994,-18,13,-3
2523,-40,22,1000,-19,22,3
2524,-128,0,994,-15,15,2
2525,-141,-1,974,-13,-1,-2
2526,-32,5,999,-11,-18,-6
2527,74,20,1007,-12,-20,-9
2528,151,37,1007,-14,-10,-9
2529,114,37,1007,-15,11,-3
2530,0,24,1007,-18,22,3
2531,-114,10,977,-17,20,4
2532,-145,3,977,-13,3,0
2533,-81,-6,1002,-14,-16,-5
2534,44,10,999,-13,-22,-9
2535,154,33,1007,-13,-14,-8
2536,136,36,1006,-18,5,-4
2537,37,30,999,-14,21,1
2538,-93,21,988,-17,22,3
2539,-155,6,999,-15,11,2
2540,-116,-2,981,-14,-11,-6
2541,23,8,992,-13,-22,-8
2542,131,26,1006,-10,-17,-9
2543,150,33,1013,-15,1,-6
2544,73,33,1003,-15,17,-1
2545,-67,30,985,-15,26,4
2546,-147,0,988,-16,14,2
2547,-149,-3,985,-13,-4,-2
2548,-11,10,999,-13,-23,-9
2549,102,19,1014,-13,-22,-11
2550,158,35,1010,-14,-7,-6
2551,107,40,993,-18,13,-2
2552,-28,24,996,-16,25,3
2553,-138,4,993,-13,18,2
2554,-154,0,981,-13,1,-1
2555,-49,-2,994,-10,-17,-7
2556,68,14,1003,-11,-22,-9
2557,161,38,1008,-12,-11,-7
2558,126,46,1006,-14,10,-3
2559,9,24,1013,-17,23,4
2560,-117,15,979,-16,20,3
2561,-156,-1,976,-15,6,0
2562,-90,-6,991,-13,-14,-7
2563,39,9,1009,-10,-23,-9
2564,154,36,1009,-11,-16,-10
2565,144,43,1005,-14,4,-3
2566,47,32,1004,-16,21,1
2567,-91,22,988,-18,24,3
2568,-157,2,995,-16,11,2
2569,-124,-6,982,-14,-11,-4
2570,14,10,996,-12,-23,-9
2571,131,26,1005,-11,-19,-8
2572,155,34,1007,-15,-3,-5
2573,77,37,1004,-15,16,2
2574,-62,30,994,-17,25,6
2575,-146,1,992,-15,16,2
2576,14,-139,874,-11,1,-6
2577,27,254,615,32,82,-17
2578,-536,583,1824,-76,-27,83
2579,216,263,1011,-129,-128,16
2580,243,-191,511,-164,-12,-98
2581,-88,-749,750,-102,21,-59
2582,79,-443,1161,80,-1,-23
2583,235,-367,1096,76,10,-38
2584,-170,125,831,143,47,6
2585,95,634,1216,102,-4,-11
2586,-17,538,1068,0,24,-6
2587,-145,375,792,-76,12,11
2588,59,-66,1146,-133,-19,-6
2589,-53,-321,1046,-101,0,-1
2590,-12,-393,825,-44,-19,6
2591,78,-285,1001,26,-9,-10
2592,29,-66,1082,72,12,-14
2593,98,193,956,75,9,-11
2594,37,324,1033,40,25,-6
2595,-64,299,1021,-12,21,1
2596,-91,149,976,-58,7,-1
2597,-105,-59,1000,-71,-7,-3
2598,-60,-187,980,-56,-24,-1
2599,94,-206,998,-18,-23,-12
2600,126,-103,989,19,-6,-7
2601,123,53,998,34,11,-4
2602,39,162,1025,27,27,-3
2603,-105,194,991,1,30,3
2604,-150,130,980,-21,9,-7
2605,-111,44,992,-37,-10,-14
2606,-19,-70,994,-48,-23,-4
2607,88,-108,1014,-33,-25,-7
2608,152,-92,999,-13,-9,-8
2609,106,-15,993,9,12,-4
2610,-16,66,1009,14,27,3
2611,-118,90,991,5,21,-1
2612,-146,105,983,-6,5,-1
2613,-73,57,999,-25,-18,-4
2614,32,15,1010,-33,-25,-7
2615,136,-15,997,-32,-19,-6
2616,120,-28,997,-24,0,-4
2617,36,-23,1020,-14,16,1
2618,-74,2,982,-4,18,1
2619,-131,35,979,-3,9,0
2620,-110,65,991,-6,-9,-2
2621,-8,82,1003,-20,-24,-4
2622,112,65,1010,-33,-25,-8
2623,135,10,1008,-38,-8,-3
2624,87,-37,1002,-33,7,0
2625,-34,-56,981,-20,19,3
2626,-117,-45,991,-3,14,1
2627,-125,-3,992,4,-1,-4
2628,-17,51,1001,6,-14,-7
2629,86,86,1002,-6,-16,-8
2630,130,83,1004,-18,-5,-5
2631,85,53,1004,-26,10,-1
2632,-38,11,998,-30,18,4
2633,-119,-41,994,-23,13,1
2634,-130,-49,970,-14,-3,0
2635,-26,-21,992,-2,-16,-7
2636,81,17,1018,-1,-18,-10
2637,145,67,1014,-7,-5,-6
2638,103,85,1001,-11,11,-2
2639,-18,59,1005,-24,22,3
2640,-127,14,983,-24,17,3
2641,-145,-15,980,-22,0,1
2642,-62,-36,1000,-18,-19,-7
2643,60,-18,1002,-10,-22,-9
2644,169,21,1005,-6,-12,-9
2645,129,50,1007,-7,10,-5
2646,20,54,1014,-12,23,1
2647,-107,41,986,-16,23,3
2648,-164,19,985,-17,8,2
2649,-106,-9,983,-18,-15,-5
2650,34,-6,1004,-17,-26,-9
2651,147,14,1006,-14,-19,-8
2652,155,21,1008,-13,2,-7
2653,68,30,1008,-12,21,-1
2654,-81,35,978,-10,27,5
2655,-156,16,986,-13,15,2
2656,-151,3,990,-14,-7,-2
2657,-3,17,1007,-13,-24,-7
2658,119,16,1000,-17,-21,-8
2659,161,26,1003,-14,-5,-5
2660,102,30,1002,-16,14,-1
2661,-42,22,1001,-14,27,4
2662,-146,0,991,-12,19,3
2663,-157,6,975,-11,0,-2
2664,-38,11,991,-9,-19,-7
2665,77,24,1014,-12,-22,-10
2666,166,38,1017,-15,-12,-8
2667,120,36,1005,-16,9,-2
2668,-4,22,996,-20,24,4
2669,-162,-8,884,-9,28,6
2670,-475,583,635,-34,-12,-9
2671,81,228,1713,-141,-60,-23
2672,-259,145,955,-110,-32,6
2673,247,-204,742,-174,-116,-21
2674,200,-335,703,-116,-32,-31
2675,95,-363,1195,-4,31,-87
2676,197,-299,1008,9,11,-121
2677,-36,-209,858,38,19,7
2678,175,236,981,82,-2,10
2679,15,190,1195,31,51,-20
2680,-123,250,953,13,35,-27
2681,-102,193,999,-31,0,28
2682,-102,156,1052,-47,-2,10
2683,-154,-64,997,-75,-20,7
2684,33,-129,966,-49,-41,-5
2685,18,-172,956,-23,-21,1
2686,158,-147,988,10,-15,-17
2687,218,-157,1008,40,12,-14
2688,166,-60,946,70,44,-5
2689,79,-9,1000,79,61,1
2690,-152,146,1117,78,58,1
2691,-298,212,958,44,25,14
2692,-228,230,939,17,-6,0
2693,-42,109,1056,-20,-33,-4
2694,157,-1,1013,-33,-37,-7
2695,244,-93,976,-24,-12,-5
2696,134,-98,997,-2,20,4
2697,-9,-50,1026,19,36,3
2698,-156,9,967,32,35,0
2699,-191,103,975,31,14,2
2700,-66,116,1023,11,-13,-8
2701,55,94,1004,-9,-19,-8
2702,160,63,993,-28,-14,-5
2703,131,12,1017,-32,7,-3
2704,24,5,999,-27,22,0
2705,-100,10,971,-21,24,-1
2706,-126,45,1014,-13,10,-13
2707,-80,48,994,-24,-6,-14
2708,10,9,981,-29,-14,-7
2709,101,26,1013,-34,-15,-8
2710,121,-20,1002,-33,1,-8
2711,56,-6,1001,-24,15,-2
2712,-49,6,982,-20,20,2
2713,-118,0,998,-13,13,-3
2714,-115,7,979,-13,-4,-4
2715,-19,18,1003,-14,-16,-3
2716,87,20,1012,-15,-19,-8
2717,131,18,1000,-17,-4,-6
2718,94,33,987,-15,11,-3
2719,-24,21,1006,-15,21,1
2720,-121,7,998,-13,16,0
2721,-134,8,972,-13,1,-2
2722,-40,7,1000,-11,-16,-6
2723,59,17,1009,-14,-20,-8
2724,144,32,1001,-15,-10,-8
2725,117,37,1006,-16,7,-3
2726,0,23,1012,-18,22,3
2727,-103,9,974,-15,20,0
2728,-146,1,981,-14,4,1
2729,-81,0,994,-11,-15,-5
2730,41,9,1013,-10,-20,-8
2731,144,36,1002,-12,-14,-9
2732,130,42,1002,-13,5,-4
2733,43,31,1009,-15,21,2
2734,-95,23,987,-16,25,4
2735,-148,5,992,-14,11,1
2736,-118,-13,986,-14,-10,-4
2737,17,9,994,-12,-22,-7
2738,135,23,1007,-12,-17,-8
2739,148,34,1009,-13,0,-5
2740,73,35,1006,-14,18,1
2741,-64,30,990,-15,25,4
2742,-146,4,989,-14,14,3
2743,-145,-1,979,-14,-5,-2
2744,-14,10,1008,-12,-21,-8
2745,194,-36,981,-12,-21,-8
2746,532,126,446,21,83,-6
2747,-768,705,1742,-63,74,83
2748,106,118,1054,-142,-124,41
2749,133,-131,442,-137,3,-55
2750,-108,-814,634,-98,11,-52
2751,-41,-546,1223,101,-2,1
2752,287,-320,1265,111,-8,-60
2753,-163,151,706,149,43,15
2754,83,838,1098,116,0,1
2755,24,611,1291,-23,19,-13
2756,-170,398,679,-100,16,19
2757,26,-163,1104,-159,-24,-9
2758,-59,-432,1104,-108,-5,-3
2759,14,-505,840,-35,-18,-3
2760,174,-284,923,49,-8,-17
2761,34,31,1158,90,22,-2
2762,81,312,958,79,20,-10
2763,-81,369,989,24,34,-1
2764,-169,316,1015,-35,11,4
2765,-102,62,1019,-79,-15,-8
2766,2,-149,965,-81,-24,-8
2767,95,-245,977,-50,-24,-1
2768,185,-208,1021,-6,-8,-13
2769,71,-62,1003,30,18,1
2770,-40,141,974,43,25,3
2771,-116,200,1025,20,24,-4
2772,-158,190,973,-10,6,-1
2773,-39,106,994,-40,-19,-5
2774,68,-32,1030,-53,-23,-10
2775,122,-108,996,-45,-13,-4
2776,114,-114,979,-23,2,-4
2777,-9,-63,1001,1,16,1
2778,-95,19,995,15,16,0
2779,-119,97,986,15,8,-4
2780,-45,116,1000,1,-10,-7
2781,40,89,1001,-18,-17,-8
2782,108,39,1007,-31,-13,-6
2783,82,-15,1010,-33,-1,-3
2784,0,-46,999,-25,10,-1
2785,-88,-44,969,-11,10,-2
2786,-99,-2,992,2,-1,-3
2787,-46,28,1003,2,-12,-7
2788,39,60,999,-2,-14,-7
2789,117,81,1009,-14,-11,-7
2790,88,56,1008,-24,2,-4
2791,9,24,993,-26,12,-1
2792,-87,0,982,-26,11,0
2793,-113,-19,1004,-19,0,-3
2794,-74,-24,985,-13,-14,-4
2795,34,26,989,-9,-21,-7
2796,106,83,1014,-15,-16,-1
2797,116,78,1010,-27,0,-2
2798,55,20,999,-33,13,-2
2799,-57,-15,989,-30,17,5
2800,-120,-53,990,-22,9,0
2801,-118,-49,979,-8,-6,-5
2802,0,0,1004,-2,-20,-6
2803,100,41,1015,0,-17,-9
2804,139,73,1004,-7,0,-6
2805,85,83,996,-16,15,-1
2806,-45,48,1000,-24,23,3
2807,-139,-4,995,-26,13,1
2808,-142,-23,976,-21,-3,0
2809,-34,-31,994,-15,-20,-6
2810,76,-8,1005,-8,-21,-9
2811,164,32,1002,-6,-10,-8
2812,118,56,1011,-10,12,-4
2813,-3,54,1012,-14,25,2
2814,-126,29,978,-18,22,3
2815,-157,7,977,-18,3,0
2816,-84,-14,998,-16,-17,-6
2817,48,-5,1005,-16,-25,-9
2818,162,19,1006,-12,-18,-9
2819,144,31,1007,-12,4,-4
2820,43,35,1003,-10,21,0
2821,-97,33,989,-11,25,4
2822,-160,19,997,-12,11,1
2823,-126,3,979,-16,-10,-4
2824,15,6,994,-13,-25,-9
2825,69,42,731,-7,-20,-7
2826,-143,899,797,-58,-38,-23
2827,261,118,1622,-182,-19,-5
2828,-433,48,756,-171,-15,24
2829,309,-149,573,-205,-86,-26
2830,-270,-512,778,-158,13,7
2831,89,-229,1183,17,-32,-110
2832,99,-355,1054,-17,-14,-139
2833,-55,-208,720,29,-3,-48
2834,303,-57,960,77,-44,-33
2835,342,159,1306,85,27,2
2836,-62,241,945,40,58,-18
2837,-4,242,931,19,38,3
2838,-250,194,1146,-17,38,24
2839,-329,203,1002,-50,-12,16
2840,-45,15,991,-90,-53,-13
2841,-7,23,958,-69,-38,-9
2842,134,-94,1021,-78,-40,-4
2843,266,-219,1017,-40,-20,-8
2844,101,-215,897,0,21,8
2845,74,-255,930,40,28,5
2846,45,-182,1042,87,47,-6
2847,-27,-35,976,109,51,-13
2848,-27,101,999,109,43,-13
2849,-102,324,1124,88,32,-4
2850,-159,375,963,31,11,11
2851,-112,254,969,-19,-6,3
2852,-43,19,1059,-54,-21,-1
2853,79,-118,994,-47,-24,-3
2854,136,-187,953,-20,-10,-6
2855,113,-164,968,15,14,-4
2856,81,-56,1040,44,27,-6
2857,-48,74,999,51,34,2
2858,-131,168,985,38,24,2
2859,-145,171,1005,8,4,-4
2860,-35,116,1002,-17,-15,-6
2861,71,30,997,-32,-20,-12
2862,131,-42,1009,-35,-7,-7
2863,93,-64,993,-21,7,0
2864,4,13,986,-11,21,-2
2865,-92,61,1003,-8,21,-8
2866,-114,123,997,-12,10,-10
2867,-56,80,995,-35,-5,-8
2868,4,23,996,-44,-13,-7
2869,96,-29,1003,-46,-12,-6
2870,98,-61,998,-38,0,-5
2871,25,-68,998,-23,12,1
2872,-57,-38,978,-6,15,0
2873,-99,10,993,3,8,-2
2874,-74,48,993,4,-6,-4
2875,14,78,1005,-3,-14,-6
2876,106,83,1010,-19,-12,-7
2877,97,47,1000,-28,1,-3
2878,40,6,1002,-30,12,0
2879,-70,-25,983,-25,16,2
2880,-113,-35,999,-12,6,-1
2881,-92,-27,988,-6,-7,-4
2882,15,15,992,-2,-16,-8
2883,110,52,1002,-4,-14,-9
2884,119,62,1014,-14,2,-5
2885,59,62,1005,-19,14,0
2886,-63,30,987,-23,20,3
2887,-131,-8,990,-20,11,1
2888,-130,-26,983,-15,-6,-2
2889,-2,-12,1004,-10,-21,-8
2890,102,6,1010,-8,-19,-10
2891,149,36,1002,-7,-3,-6
2892,96,58,996,-11,15,-2
2893,-36,49,1001,-16,25,3
2894,-139,18,993,-17,16,3
2895,-147,0,977,-20,-2,-1
2896,-44,-12,997,-13,-19,-6
2897,100,-24,991,-13,-22,-8
2898,757,-71,383,15,54,-14
2899,-885,759,1622,-23,128,70
2900,111,135,1186,-134,-143,45
2901,48,-55,319,-123,5,-40
2902,-10,-800,522,-76,4,-86
2903,-124,-374,1492,91,9,-1
2904,377,-377,1196,70,-22,-51
2905,-168,162,589,145,50,12
2906,50,795,1114,97,4,1
2907,30,519,1385,-31,15,-17
2908,-117,356,598,-93,17,13
2909,-30,-199,1084,-147,-15,1
2910,-31,-378,1177,-96,-8,-8
2911,6,-475,827,-30,-13,-3
2912,133,-216,864,51,-8,-11
2913,58,68,1236,76,17,-3
2914,94,290,945,64,20,-11
2915,-80,326,934,17,34,5
2916,-148,266,1044,-36,11,2
2917,-115,31,1026,-70,-7,-7
2918,-19,-145,938,-67,-22,-7
2919,77,-217,1010,-42,-26,-1
2920,178,-173,1024,1,-8,-14
2921,90,-35,978,30,17,0
2922,-27,145,990,36,26,4
2923,-113,179,1036,14,22,-4
2924,-146,172,957,-10,5,-5
2925,-48,96,988,-37,-15,-9
2926,28,-40,1023,-54,-21,-6
2927,110,-85,1000,-40,-19,-5
2928,119,-112,992,-25,-4,-6
2929,20,-53,1019,1,15,-1
2930,-67,26,972,12,16,1
2931,-111,90,990,10,10,-2
2932,-75,104,1006,-2,-8,-4
2933,10,82,998,-20,-17,-6
2934,100,43,1001,-32,-15,-7
2935,90,-2,1015,-35,-4,-3
2936,34,-35,990,-26,7,-3
2937,-62,-36,977,-15,11,-1
2938,-101,-5,1009,-3,4,-2
2939,-76,19,989,-2,-8,-4
2940,16,58,986,-5,-17,-6
2941,94,76,1012,-15,-15,-6
2942,65,82,1009,-27,-4,-2
2943,15,55,994,-36,2,2
2944,-53,9,982,-38,4,2
2945,-66,-61,998,-32,-2,-1
2946,-45,-77,990,-18,-10,-3
2947,38,-37,1005,-6,-12,-5
2948,92,14,1002,4,-7,-8
2949,93,66,1005,0,5,-4
2950,35,93,988,-9,16,-1
2951,-69,83,1001,-20,19,3
2952,-123,26,1001,-30,5,0
2953,-109,-19,972,-29,-9,-3
2954,0,-35,1002,-23,-20,-7
2955,87,-34,1009,-15,-17,-9
2956,147,0,1005,-5,-4,-7
2957,93,38,1001,-3,15,-2
2958,-32,60,1011,-4,25,3
2959,-126,53,981,-12,18,1
2960,-152,37,981,-17,2,1
2961,-58,9,1001,-21,-18,-6
2962,57,-9,1010,-20,-23,-10
2963,159,2,995,-17,-14,-7
2964,107,-20,883,-15,2,-2
2965,-431,721,486,-25,-32,-8
2966,168,319,1757,-177,-34,-17
2967,-507,96,771,-148,-6,20
2968,170,-146,662,-184,-113,-43
2969,50,-422,636,-168,-33,-35
2970,11,-398,1238,3,-2,-100
2971,343,-247,1016,20,-23,-184
2972,13,-294,860,17,20,-43
2973,308,86,915,87,-16,-2
2974,217,106,1278,66,52,11
2975,-186,296,871,37,65,-19
2976,-157,179,1043,-2,24,12
2977,-212,288,1109,-22,8,7
2978,-231,70,994,-78,-29,10
2979,61,-6,925,-78,-58,-10
2980,87,-149,1019,-67,-32,2
2981,154,-206,960,-33,-24,-7
2982,198,-276,971,10,5,-1
2983,130,-177,941,65,40,-3
2984,63,-138,992,92,56,-3
2985,37,34,1065,112,62,-15
2986,-187,243,1057,93,51,4
2987,-215,381,952,49,18,11
2988,-170,281,1014,-9,-5,-2
2989,-54,104,1006,-48,-28,2
2990,124,-91,1008,-54,-33,-3
2991,159,-204,990,-33,-10,-7
2992,129,-156,982,7,11,1
2993,50,-43,1000,37,30,-5
2994,-91,72,1006,45,36,1
2995,-136,178,987,34,20,2
2996,-108,162,1009,3,3,-4
2997,-33,84,991,-22,-15,-4
2998,79,4,1009,-38,-20,-5
2999,128,-68,1005,-34,-9,-8
3000,84,-83,992,-15,8,-1
3001,17,-39,998,4,20,-3
3002,-82,30,991,21,23,-6
3003,-88,89,996,19,11,-13
3004,-80,90,992,0,3,-8
3005,-1,70,1012,-16,-9,-3
3006,74,31,1004,-27,-12,-7
3007,96,-15,994,-26,0,-6
3008,60,19,995,-24,10,-3
3009,-33,46,1002,-28,16,-1
3010,-101,68,998,-28,9,-4
3011,-102,42,983,-34,-3,-5
3012,-20,20,998,-39,-15,-7
3013,56,-20,1011,-44,-16,-9
3014,116,-15,1000,-36,-9,-8
3015,82,-10,999,-27,7,-5
3016,-12,2,992,-19,19,0
3017,-97,-1,982,-12,16,-1
3018,-113,16,984,-9,2,-1
3019,-51,5,1004,-12,-13,-5
3020,49,19,1004,-13,-19,-9
3021,126,29,1000,-15,-10,-7
3022,101,38,1002,-18,6,-4
3023,14,19,1009,-18,18,2
3024,-94,13,986,-17,19,2
3025,-131,7,992,-15,7,-1
3026,-82,-4,988,-11,-11,-6
3027,32,15,1002,-11,-19,-7
3028,133,35,1007,-13,-14,-8
3029,124,36,1008,-16,5,-3
3030,48,34,1001,-17,18,2
3031,411,-90,568,-8,46,0
3032,-771,688,1260,-15,146,52
3033,-243,209,1559,-132,-131,60
3034,-17,-10,529,-130,-55,-32
3035,275,-563,538,-115,-34,-106
3036,5,-684,1042,20,13,-23
3037,559,-290,1374,109,1,-58
3038,-66,-106,819,102,69,17
3039,-161,750,906,143,43,23
3040,-192,641,1334,-2,22,-26
3041,-242,423,782,-78,2,12
3042,34,-40,961,-150,-45,0
3043,225,-406,1188,-124,-26,-16
3044,134,-446,907,-49,-3,2
3045,125,-294,841,22,11,3
3046,-116,-55,1140,73,39,2
3047,-135,243,986,76,19,-2
3048,-91,299,949,35,6,-11
3049,-17,286,1040,-13,-11,-6
3050,129,99,1050,-60,-17,-7
3051,122,-98,966,-67,-1,-9
3052,-4,-194,986,-45,9,8
3053,-52,-155,999,-6,8,-5
3054,-116,-72,989,23,8,-4
3055,-76,92,966,36,-7,-3
3056,57,166,1029,19,-11,-12
3057,105,176,1016,-6,-5,-9
3058,82,102,1001,-35,4,-1
3059,12,-7,1012,-45,13,-3
3060,-99,-86,967,-37,11,1
3061,-112,-103,980,-17,-2,-1
3062,-71,-65,1003,2,-14,-7
3063,42,22,999,13,-18,-8
3064,116,94,1007,9,-10,-8
3065,104,112,1017,-5,5,-6
3066,31,88,995,-19,15,-2
3067,-85,32,986,-28,16,1
3068,-133,-29,998,-24,1,-5
3069,-85,-38,981,-18,-15,-11
3070,10,-41,985,-12,-21,-8
3071,86,4,1016,-2,-17,-8
3072,136,40,1023,-2,-5,-6
3073,73,67,993,-5,11,-4
3074,-40,66,993,-13,18,2
3075,-120,42,989,-19,10,-2
3076,-121,20,989,-22,-5,-4
3077,-47,5,991,-25,-22,-4
3078,39,10,1010,-25,-25,-4
3079,144,23,1002,-25,-16,-6
3080,127,0,997,-24,3,-5
3081,41,-11,1007,-15,19,1
3082,-82,-6,992,-11,21,3
3083,-137,10,988,-7,9,-2
3084,-108,20,981,-5,-8,-5
3085,12,44,997,-11,-21,-9
3086,124,48,1020,-16,-18,-10
3087,134,39,1007,-23,-1,-6
3088,67,17,998,-23,16,0
3089,-60,1,984,-19,22,2
3090,-136,-19,991,-13,13,0
3091,-131,-12,988,-8,-5,-4
3092,-1,17,1003,-6,-18,-8
3093,104,42,1005,-9,-18,-9
3094,147,54,1004,-14,-5,-6
3095,83,49,1003,-17,15,-1
3096,-43,28,997,-22,23,5
3097,-131,-11,996,-20,14,1
3098,-167,-8,883,-19,-6,0
3099,-447,710,517,-50,-71,-16
3100,302,264,1722,-167,-65,-27
3101,-305,210,891,-157,-35,11
3102,308,-114,674,-203,-116,-45
3103,108,-327,689,-186,-14,-29
3104,-41,-374,1270,-42,19,-81
3105,206,-243,1028,-37,-17,-141
3106,-104,-276,832,-34,7,-8
3107,86,-35,705,41,-48,-4
3108,311,-61,1351,48,-7,11
3109,-38,175,1002,41,43,-24
3110,6,73,903,11,19,-19
3111,-16,206,1034,23,29,9
3112,-263,177,1140,-13,19,27
3113,-57,68,964,-49,-28,-14
3114,-74,-75,959,-35,-15,-1
3115,68,-60,959,-17,-26,-7
3116,209,-198,1031,-12,-13,-9
3117,193,-136,937,37,26,-12
3118,86,-162,941,57,44,10
3119,46,-58,1042,90,55,-1
3120,-131,-19,1022,93,60,-5
3121,-189,194,1024,90,32,-2
3122,-130,305,1030,54,3,2
3123,-31,269,974,6,-9,-4
3124,61,127,998,-32,-14,3
3125,93,-26,1044,-46,-5,1
3126,19,-169,978,-34,6,4
3127,-43,-153,951,4,9,3
3128,-18,-72,1018,32,10,-6
3129,0,29,1005,43,8,-8
3130,57,139,993,34,8,-2
3131,46,159,1017,10,13,-1
3132,-16,103,1005,-14,14,3
3133,-60,18,980,-27,8,2
3134,-84,-46,992,-24,1,0
3135,-25,-86,1001,-12,-10,-4
3136,49,-49,991,3,-9,-8
3137,104,28,993,17,1,-9
3138,94,129,1019,18,16,-18
3139,29,220,1008,-9,27,-19
3140,-95,177,981,-44,25,-5
3141,-143,91,1012,-65,9,-3
3142,-113,-71,990,-74,-7,-6
3143,-3,-160,979,-57,-24,-8
3144,113,-136,994,-31,-22,-7
3145,149,-88,995,-8,-3,-9
3146,102,0,996,11,17,-6
3147,-31,85,1001,12,27,4
3148,-134,121,1002,3,20,2
3149,-165,96,981,-14,1,-2
3150,-53,63,1001,-30,-20,-4
3151,73,2,1009,-37,-26,-7
3152,143,-42,997,-33,-14,-5
3153,130,-44,984,-21,5,-2
3154,9,-32,1006,-7,24,2
3155,-102,-8,1002,2,22,0
3156,-146,36,971,5,8,-1
3157,-68,69,994,0,-12,-4
3158,30,71,1013,-16,-19,-7
3159,128,57,1013,-24,-13,-7
3160,121,26,1000,-29,2,-3
3161,22,-16,997,-27,16,4
3162,-86,-38,984,-16,18,3
3163,-135,-26,982,-5,8,1
3164,-76,-3,996,1,-9,-5
3165,29,40,1005,1,-17,-9
3166,137,70,1005,-7,-12,-7
3167,666,41,437,-5,48,-5
3168,-880,639,1555,-41,123,53
3169,16,40,1204,-126,-128,29
3170,-24,-89,343,-117,-3,-27
3171,38,-695,645,-63,-15,-69
3172,-16,-323,1480,64,-5,10
3173,486,-307,1086,61,-23,-60
3174,-170,109,598,124,64,1
3175,-29,711,1203,88,13,12
3176,-81,512,1297,-28,17,-13
3177,-182,275,607,-87,6,10
3178,0,-155,1111,-134,-34,7
3179,113,-364,1202,-90,-19,-18
3180,88,-422,781,-24,-10,-2
3181,127,-171,905,43,4,2
3182,30,50,1219,70,30,-11
3183,-44,245,910,56,29,-4
3184,-129,288,953,18,20,4
3185,-138,229,1074,-33,-3,-1
3186,7,18,1000,-63,-19,-8
3187,71,-141,939,-57,-18,-6
3188,108,-166,1032,-33,-10,-1
3189,119,-122,1018,3,6,-12
3190,-36,-12,966,28,25,4
3191,-109,134,983,29,18,2
3192,-103,160,1025,9,5,-8
3193,-62,131,982,-15,-11,-4
3194,39,54,1001,-36,-19,-6
3195,123,-35,1026,-42,-13,-9
3196,83,-79,977,-32,2,-1
3197,9,-69,996,-13,11,0
3198,-83,-14,1000,2,14,-1
3199,-101,38,981,10,4,-4
3200,-69,75,994,3,-8,-6
3201,37,79,1011,-9,-16,-8
3202,104,55,1002,-20,-12,-7
3203,87,19,1006,-28,0,-4
3204,24,-12,1010,-25,10,-2
3205,-67,-18,966,-16,12,-2
3206,-97,-21,982,-8,3,-5
3207,-70,10,1006,-4,-8,-6
3208,20,30,1013,-3,-14,-7
3209,94,46,995,-8,-13,-8
3210,101,47,1008,-14,1,-4
3211,49,45,999,-19,11,-2
3212,-58,24,990,-19,15,2
3213,-125,23,992,-17,4,-1
3214,-109,30,985,-22,-10,-2
3215,-16,12,997,-23,-21,-4
3216,81,-1,1004,-24,-22,-7
3217,151,-4,1013,-22,-9,-6
3218,107,-3,998,-16,10,-2
3219,-9,0,995,-14,23,3
3220,-112,9,989,-7,18,2
3221,-143,27,981,-9,3,0
3222,-73,32,996,-11,-15,-5
3223,44,36,1011,-13,-22,-9
3224,147,42,1009,-20,-14,-7
3225,126,25,992,-23,5,-3
3226,28,5,1008,-19,20,2
3227,-93,-1,991,-17,20,3
3228,-283,105,545,7,4,3
3229,-240,867,1098,-92,-65,-23
3230,35,119,1367,-172,-38,-1
3231,-202,26,729,-172,-68,-3
3232,477,-123,557,-198,-97,-61
3233,-125,-548,1024,-142,34,-26
3234,292,-196,1127,10,-11,-135
3235,38,-402,999,-32,27,-65
3236,-59,-96,653,29,0,23
3237,151,-198,1115,73,-24,31
3238,115,157,1175,100,30,3
3239,-141,107,944,37,47,-43
3240,74,277,941,47,16,-24
3241,-120,241,1175,-5,24,29
3242,-137,216,995,-32,-8,11
3243,-90,-97,973,-65,-17,3
3244,-60,-82,950,-28,-22,-1
3245,46,-175,997,-21,-31,-5
3246,254,-168,992,19,-13,-26
3247,179,-144,938,47,27,-7
3248,177,-83,990,76,45,-2
3249,-23,3,1090,89,67,-3
3250,-274,191,1005,81,45,10
3251,-264,273,950,47,6,8
3252,-116,221,1025,5,-18,-10
3253,93,108,1010,-31,-34,-2
3254,235,-22,1007,-41,-20,-7
3255,139,-126,995,-31,12,1
3256,-17,-94,985,-1,25,6
3257,-126,-53,1004,23,26,-1
3258,-172,32,978,33,11,-2
3259,-29,112,994,23,-13,-5
3260,102,117,1022,4,-13,-11
3261,128,89,1005,-17,-4,-3
3262,88,31,1003,-29,11,1
3263,-43,-25,995,-27,20,2
3264,-122,-58,982,-14,13,0
3265,-109,-22,983,6,0,-16
3266,16,56,1024,6,-10,-16
3267,68,112,989,-15,-8,-4
3268,112,157,1012,-28,1,-7
3269,77,106,1004,-55,13,-4
3270,-39,20,999,-59,20,-1
3271,-108,-57,985,-56,10,-5
3272,-112,-107,984,-42,0,-7
3273,-43,-102,982,-21,-14,-7
3274,53,-54,990,-5,-19,-10
3275,135,27,1014,5,-8,-9
3276,110,81,1012,4,8,-3
3277,6,103,1006,-8,22,2
3278,-102,75,987,-20,20,2
3279,-152,35,984,-26,4,0
3280,-81,-25,994,-29,-18,-6
3281,31,-42,1001,-24,-22,-8
3282,148,-19,1001,-14,-17,-8
3283,142,4,999,-9,3,-6
3284,51,33,1008,-4,20,0
3285,-84,53,997,-8,26,3
3286,-154,47,997,-12,12,0
3287,-129,24,977,-16,-8,-5
3288,0,20,998,-22,-23,-8
3289,122,12,1010,-20,-20,-10
3290,152,1,1005,-21,-3,-5
3291,92,4,999,-15,15,-1
3292,-48,12,994,-9,26,5
3293,443,-71,373,11,60,-2
3294,-1127,674,1564,-14,114,49
3295,79,128,1203,-121,-168,27
3296,32,-123,332,-111,-29,-67
3297,296,-738,678,-45,-21,-144
3298,77,-352,1464,71,26,-28
3299,527,-303,1081,83,-10,-39
3300,-274,260,664,147,83,23
3301,-268,769,1154,85,28,-15
3302,-136,414,1233,-42,-9,-19
3303,-99,264,673,-88,-19,10
3304,182,-250,1108,-138,-47,-4
3305,280,-365,1173,-72,-11,-21
3306,70,-421,824,-12,19,8
3307,-51,-112,922,60,27,-1
3308,-163,116,1196,71,29,-5
3309,-82,256,886,58,7,-8
3310,-20,287,962,8,-2,-5
3311,115,200,1107,-39,-13,-9
3312,98,21,997,-65,1,-5
3313,27,-144,930,-60,9,-2
3314,-81,-162,1027,-31,11,2
3315,-86,-132,1004,4,4,-7
3316,-73,-15,959,27,-4,-4
3317,36,129,1007,27,-9,-5
3318,115,173,1031,6,-2,-11
3319,80,148,990,-21,9,-1
3320,0,82,999,-40,14,1
3321,-76,-15,988,-43,11,-8
3322,-90,-82,983,-34,0,-9
3323,-96,-104,986,-25,-11,-1
3324,19,-51,1014,-2,-19,-7
3325,110,8,995,5,-14,-8
3326,116,80,1013,6,4,-3
3327,64,116,1003,-5,18,-2
3328,-60,79,989,-20,22,2
3329,-138,30,983,-27,7,-1
3330,-119,-4,997,-30,-11,-4
3331,-22,-46,988,-28,-23,-5
3332,75,-39,996,-15,-24,-6
3333,153,3,1019,-8,-10,-5
3334,107,38,1017,-7,10,-4
3335,-8,58,995,-8,23,3
3336,-122,52,979,-13,18,2
3337,-140,45,985,-20,1,-1
3338,-74,10,990,-24,-19,-4
3339,36,2,1000,-26,-27,-6
3340,146,12,1015,-24,-20,-7
3341,114,39,999,-20,1,-1
3342,16,51,996,-24,14,6
3343,-97,36,994,-28,15,4
3344,-132,-5,997,-28,1,1
3345,-84,-26,979,-24,-17,-3
3346,39,-23,996,-20,-25,-8
3347,140,-6,1009,-13,-18,-8
3348,143,15,1005,-12,2,-4
3349,57,38,1002,-11,18,1
3350,-76,46,991,-12,24,4
3351,-147,22,988,-13,12,2
3352,-139,17,981,-15,-6,-2
3353,0,16,1014,-16,-23,-7
3354,111,9,1010,-18,-23,-9
3355,156,18,997,-16,-6,-5
3356,101,24,997,-17,15,-1
3357,-40,19,1001,-15,25,3
3358,-141,8,990,-11,16,2
3359,-149,11,975,-11,0,-2
3360,-38,15,1001,-11,-19,-7
3361,77,20,1005,-14,-22,-9
3362,162,14,931,-16,-16,-8
3363,-194,691,433,-37,-43,-9
3364,173,342,1563,-175,-17,-13
3365,-404,29,816,-154,5,31
3366,90,-109,666,-171,-87,-14
3367,64,-350,639,-184,-30,-6
3368,-111,-409,1222,-24,5,-54
3369,328,-219,1035,22,-25,-169
3370,-55,-352,868,13,37,-50
3371,165,-66,746,89,-21,-12
3372,336,61,1384,84,17,12
3373,-118,287,958,71,72,-16
3374,-135,286,966,17,30,-8
3375,-182,370,1110,-14,19,9
3376,-265,154,1015,-90,-10,21
3377,51,3,963,-113,-56,1
3378,62,-168,1028,-81,-32,6
3379,104,-193,900,-46,-23,-7
3380,178,-328,977,-12,-4,-3
3381,82,-201,947,62,30,-3
3382,70,-156,993,84,38,-6
3383,66,0,1042,111,49,-20
3384,-115,206,1073,100,49,-2
3385,-140,376,956,60,17,10
3386,-140,319,1012,1,6,1
3387,-93,124,1014,-44,-16,1
3388,35,-50,992,-55,-26,1
3389,108,-193,998,-40,-15,-7
3390,92,-182,978,-2,-2,-2
3391,110,-71,1003,31,13,-8
3392,0,50,1004,46,31,-5
3393,-76,160,1008,39,26,2
3394,-107,184,981,19,12,-15
3395,-57,165,1002,-13,-2,-22
3396,-37,-3,994,-49,-14,4
3397,22,-57,1018,-40,-18,-4
3398,112,-118,975,-31,-12,-8
3399,90,-78,1001,0,6,-5
3400,32,27,1010,12,16,1
3401,-60,145,993,4,21,-5
3402,-111,180,1000,-14,12,-3
3403,-103,131,992,-40,-6,-2
3404,-5,43,1007,-57,-19,-8
3405,83,-59,998,-62,-20,-8
3406,108,-108,995,-47,-9,-5
3407,82,-116,983,-24,5,-5
3408,-15,-65,987,4,17,0
3409,-86,6,1002,13,13,0
3410,-112,79,991,11,3,-3
3411,-32,125,1006,-2,-11,-7
3412,51,108,1011,-20,-16,-7
3413,104,56,1007,-34,-10,-5
3414,79,-7,985,-38,6,-1
3415,-11,-52,995,-29,14,3
3416,-90,-75,996,-14,11,0
3417,-112,-32,975,0,1,-1
3418,-27,19,999,6,-11,-7
3419,78,53,983,2,-12,-9
3420,605,233,445,17,67,6
3421,-820,600,1749,-70,68,60
3422,47,58,974,-146,-115,23
3423,39,-201,385,-127,-6,-57
3424,-67,-766,695,-52,-6,-63
3425,90,-348,1472,84,-5,-13
3426,352,-356,1081,77,-9,-55
3427,-107,285,607,149,47,12
3428,53,730,1275,77,12,-4
3429,-79,523,1196,-28,29,-10
3430,-182,275,630,-97,10,9
3431,-1,-192,1171,-142,-24,-4
3432,-23,-424,1116,-90,-14,-3
3433,101,-435,775,-17,-22,-7
3434,150,-201,979,54,1,-9
3435,64,93,1179,81,24,-6
3436,54,284,915,62,27,-8
3437,-128,343,970,18,36,6
3438,-157,240,1052,-39,9,3
3439,-86,6,997,-69,-12,-9
3440,11,-159,956,-66,-24,-4
3441,116,-208,1018,-35,-23,-4
3442,175,-151,1021,4,0,-12
3443,47,3,971,30,22,3
3444,-51,165,1000,32,27,2
3445,-133,178,1024,10,21,-5
3446,-133,175,955,-13,1,-10
3447,-25,71,1011,-46,-16,-9
3448,36,-64,1015,-53,-20,-4
3449,116,-94,989,-37,-16,-5
3450,110,-118,1003,-20,0,-5
3451,1,-30,1012,6,16,1
3452,-71,37,967,13,17,-1
3453,-119,103,1002,11,9,-1
3454,-69,99,999,-9,-9,-2
3455,18,66,992,-21,-14,-6
3456,99,24,1011,-33,-13,-5
3457,89,-18,1014,-35,-2,-3
3458,32,-43,984,-20,9,-3
3459,-64,-29,979,-10,13,0
3460,-98,6,1017,-1,6,-3
3461,-70,26,988,0,-5,-4
3462,16,56,979,-6,-14,-5
3463,93,67,1017,-13,-12,-6
3464,91,50,1015,-23,-1,-5
3465,-3,47,979,-27,7,-1
3466,-89,37,986,-30,5,3
3467,-113,-8,1005,-31,-6,-1
3468,-67,-28,978,-26,-18,-3
3469,57,-24,1008,-20,-25,-7
3470,122,-6,1019,-16,-17,-6
3471,145,10,997,-8,1,-5
3472,68,42,989,-9,19,-1
3473,-66,50,1002,-11,24,4
3474,-140,31,995,-14,13,0
3475,-135,18,975,-18,-6,-2
3476,-19,8,1002,-15,-22,-6
3477,91,-1,1011,-19,-22,-10
3478,159,11,1000,-15,-8,-6
3479,109,22,1007,-12,13,-3
3480,-13,21,1009,-13,27,3
3481,-129,19,976,-9,22,3
3482,-147,20,976,-10,2,-1
3483,-76,15,1005,-13,-16,-6
3484,52,19,1005,-17,-24,-8
3485,154,29,1008,-18,-15,-8
3486,135,26,1003,-18,6,-5
3487,34,15,1002,-17,21,2
3488,-99,8,985,-14,24,3
3489,-158,-3,983,-12,11,2
3490,-430,551,342,-11,-33,-2
3491,155,566,1488,-156,-77,-36
3492,-192,242,1003,-189,-44,9
3493,128,-42,762,-224,-97,-36
3494,302,-208,563,-244,-38,-53
3495,-181,-488,1176,-129,36,-42
3496,345,-170,1058,-50,-32,-143
3497,-116,-327,959,-98,26,-11
3498,50,-55,639,-11,-31,2
3499,144,-221,1137,11,-23,15
3500,-8,41,1029,52,13,-8
3501,-90,-95,1013,21,11,-11
3502,47,-14,889,62,-7,-14
3503,-75,-2,1048,73,7,26
3504,62,167,1097,58,-4,-12
3505,31,41,1070,37,22,-30
3506,19,80,883,47,17,-10
3507,71,15,1034,36,15,22
3508,71,-6,1041,41,34,-8
3509,-39,-117,956,40,42,-2
3510,-30,-11,965,66,30,3
3511,-112,46,1087,60,26,-2
3512,-97,130,977,50,3,-6
3513,-11,163,991,30,-3,-1
3514,63,135,1028,6,-3,-5
3515,80,48,994,-13,2,1
3516,53,-25,991,-14,12,2
3517,-73,-51,987,-5,17,5
3518,-77,-32,1005,8,7,-2
3519,-67,-9,988,16,0,-5
3520,18,60,994,18,-7,-4
3521,111,72,1013,7,-4,-8
3522,90,63,1004,-3,10,-2
3523,28,48,994,-12,17,2
3524,-68,12,1000,-17,19,0
3525,-110,-26,984,-10,9,-2
3526,-89,-15,981,-3,-5,-5
3527,27,17,1020,1,-15,-14
3528,109,54,1010,0,-9,-15
3529,107,51,992,-8,7,-5
3530,42,74,996,-11,18,-6
3531,-49,57,1003,-18,21,-11
3532,-111,74,990,-26,12,-10
3533,-127,52,978,-41,-1,-5
3534,-34,20,1012,-41,-17,-5
3535,63,-23,1004,-47,-22,-9
3536,138,-42,992,-39,-12,-8
3537,113,-21,1013,-27,6,-4
3538,2,-9,1003,-20,22,0
3539,-100,18,975,-9,21,0
3540,-134,32,985,-12,6,-2
3541,-85,24,998,-14,-12,-6
3542,34,21,1002,-18,-20,-8
3543,130,23,1005,-22,-14,-7
3544,129,13,1001,-18,3,-5
3545,48,6,1004,-16,17,0
3546,-80,11,990,-13,22,2
3547,-137,5,998,-8,11,0
3548,-114,11,982,-9,-8,-4
3549,11,26,995,-9,-20,-7
3550,119,38,1009,-13,-17,-8
3551,139,34,1010,-20,0,-5
3552,71,27,1003,-20,15,0
3553,-55,17,988,-17,23,4
3554,-133,-9,987,-14,13,1
3555,-141,-9,982,-10,-2,-3
3556,-13,14,1008,-7,-19,-7
3557,97,26,1010,-9,-19,-11
3558,149,44,1000,-14,-5,-6
3559,107,46,998,-16,12,-2
3560,-29,29,1002,-19,24,4
3561,-134,-2,991,-17,17,3
3562,-146,-7,976,-13,0,-1
3563,-44,-8,998,-13,-17,-5
3564,68,7,1002,-12,-20,-9
3565,157,36,1009,-10,-11,-7
3566,126,47,1010,-16,8,-3
3567,5,36,1007,-17,22,5
3568,-115,19,974,-15,20,3
3569,-159,0,983,-17,5,1
3570,-86,-10,998,-13,-15,-5
3571,43,0,999,-11,-22,-9
3572,153,29,1005,-13,-16,-9
3573,141,39,1008,-13,4,-4
3574,41,35,1002,-16,21,3
3575,-99,29,985,-15,24,4
3576,-155,8,1001,-14,11,2
3577,-123,-7,981,-14,-11,-3
3578,20,5,990,-12,-24,-8
3579,134,22,1014,-12,-19,-9
3580,128,25,1019,-14,-1,-6
3581,-977,114,576,11,17,-18
3582,-498,317,612,10,-90,23
3583,306,205,898,-110,-200,-28
3584,201,115,469,-60,-34,-55
3585,117,-176,603,-129,1,-168
3586,471,-98,872,-22,42,-235
3587,494,-459,1305,-6,88,-263
3588,410,-253,964,36,43,-231
3589,176,-166,682,87,60,-112
3590,135,-171,1049,71,67,-49
3591,-269,326,1353,106,53,21
3592,-193,364,840,53,13,22
3593,-176,361,812,-27,-4,-23
3594,116,208,1162,-68,-43,3
3595,262,12,1122,-94,-22,-9
3596,95,-201,864,-93,10,3
3597,12,-274,899,-29,13,25
3598,-39,-167,1164,7,28,5
3599,-161,-105,910,39,25,-7
3600,-87,130,930,61,1,-1
3601,53,262,1108,18,-8,-10
3602,46,240,1004,-14,0,-3
3603,93,146,938,-55,-2,-2
3604,-37,-15,1045,-75,10,7
3605,-95,-142,1022,-55,0,4
3606,-66,-203,935,-30,-12,1
3607,-7,-121,961,11,-10,-5
3608,92,-4,1036,26,-8,-12
3609,128,102,1017,26,6,-11
3610,47,185,983,11,20,1
3611,-59,178,1005,-20,21,1
3612,-135,70,1021,-42,13,-1
3613,-147,-31,957,-46,-7,0
3614,-21,-95,998,-38,-27,-4
3615,101,-108,1020,-19,-25,-11
3616,159,-54,985,-1,-6,-7
3617,135,26,984,8,15,-3
3618,-10,88,1028,9,29,4
3619,-128,103,1005,-2,23,3
3620,-169,86,963,-17,7,1
3621,-85,42,997,-27,-18,-4
3622,42,-4,1016,-32,-28,-8
3623,163,-29,1002,-29,-20,-8
3624,151,-28,990,-21,3,-3
3625,51,-23,1015,-10,23,2
3626,-82,3,997,-1,28,4
3627,-155,41,973,1,13,2
3628,-118,50,990,-5,-8,-5
3629,0,61,1012,-12,-21,-7
3630,126,54,1008,-25,-21,-7
3631,143,26,998,-29,-4,-5
3632,68,-8,1002,-26,14,3
3633,-65,-23,992,-19,22,4
3634,-136,-27,994,-10,14,1
3635,-130,-12,981,-1,-4,-3
3636,-7,32,994,-1,-18,-8
3637,107,58,1011,-8,-17,-9
3638,141,64,1005,-18,-3,-5
3639,79,48,1007,-22,13,0
3640,-46,24,996,-24,22,4
3641,-135,-24,987,-21,15,2
3642,-141,-30,974,-14,-2,-2
3643,-21,-13,1005,-9,-18,-8
3644,88,19,961,1,-21,-12
3645,-151,573,549,-78,-61,-21
3646,218,525,1634,-160,-41,-32
3647,-307,201,1068,-162,8,24
3648,-13,-78,837,-207,-85,20
3649,163,-207,713,-216,-47,9
3650,-112,-383,1153,-112,22,-48
3651,231,-125,957,-56,-10,-164
3652,-69,-278,928,-95,21,-48
3653,123,-33,779,-17,-38,-5
3654,209,-147,1170,-15,-27,34
3655,29,26,1000,15,16,17
3656,-96,-70,981,-4,20,7
3657,-39,-25,926,35,6,-7
3658,-183,-23,996,45,7,22
3659,39,7,1008,42,-26,-15
3660,84,-46,1068,49,1,-22
3661,101,18,935,65,14,-25
3662,117,-14,1008,59,21,1
3663,63,61,1050,74,42,6
3664,-81,29,1001,62,46,4
3665,-103,92,1000,59,32,-3
3666,-120,125,1037,40,13,-1
3667,-56,143,964,18,-6,-1
3668,39,91,1020,-4,-12,-3
3669,48,34,1013,-14,-6,2
3670,24,-33,984,-16,1,5
3671,-27,-62,992,-2,6,1
3672,-20,-31,1010,10,3,-1
3673,16,8,988,19,1,-7
3674,40,58,997,21,7,-4
3675,39,89,1005,10,9,-1
3676,-11,73,999,-3,12,3
3677,-61,25,1001,-9,8,2
3678,-76,-1,990,-13,0,1
3679,-5,-31,1004,-9,-10,-5
3680,50,-25,989,-1,-9,-5
3681,102,14,1004,3,-1,-4
3682,75,41,1007,4,12,-2
3683,-11,51,1002,1,20,3
3684,-84,50,981,-4,18,3
3685,-102,35,998,-11,6,2
3686,-50,11,996,-13,-9,-4
3687,40,9,1000,-14,-12,-6
3688,118,24,1004,-13,-6,-6
3689,98,41,1005,-14,7,-3
3690,19,92,1002,-20,20,-2
3691,-87,102,985,-32,23,-3
3692,-129,54,1008,-42,9,-1
3693,-100,-20,982,-48,-12,-6
3694,17,-62,989,-38,-22,-14
3695,109,-85,999,-27,-18,-8
3696,129,-50,995,-10,-2,-4
3697,80,-5,999,1,15,-3
3698,-44,54,1002,6,24,0
3699,-123,81,991,1,16,-2
3700,-125,90,986,-8,-1,-13
3701,-26,62,1014,-25,-17,-9
3702,52,9,1006,-32,-21,-5
3703,120,-21,993,-31,-9,-6
3704,106,-50,986,-24,7,-4
3705,3,-25,1002,-8,19,1
3706,-86,-13,1000,0,18,0
3707,-130,36,983,3,8,-2
3708,-54,64,995,-1,-9,-5
3709,29,67,1008,-13,-15,-8
3710,119,56,1011,-25,-12,-7
3711,106,27,1005,-25,3,-3
3712,15,-8,1001,-28,16,2
3713,-695,-68,877,-9,18,-5
3714,-1458,356,805,4,-23,76
3715,-84,238,1411,-45,-169,172
3716,411,278,1031,-65,-73,230
3717,111,102,566,-99,64,226
3718,-110,-189,1001,-51,42,41
3719,380,54,1296,-13,-73,-113
3720,611,-171,1218,-101,-88,-154
3721,161,-250,681,-96,-26,-199
3722,192,-289,714,-49,20,-226
3723,228,-615,1105,39,74,-293
3724,23,-274,1055,165,80,-206
3725,177,142,975,157,38,-104
3726,136,240,1120,87,32,-78
3727,31,455,980,47,32,-54
3728,60,354,1043,-10,18,-60
3729,-78,268,935,-49,18,-28
3730,-160,153,998,-86,4,23
3731,-37,-104,1100,-94,-19,-7
3732,-73,-197,911,-72,-14,10
3733,129,-185,949,-33,-28,-2
3734,153,-176,1016,-1,7,-7
3735,60,-80,984,34,28,-8
3736,23,56,1047,40,26,-1
3737,-97,185,1012,32,29,3
3738,-140,203,954,1,12,-1
3739,-55,161,1003,-32,-9,-3
3740,-2,63,1028,-54,-15,-2
3741,43,-55,982,-56,-16,0
3742,50,-123,991,-40,-7,0
3743,0,-111,994,-13,4,2
3744,-7,-66,992,11,6,-5
3745,-3,22,999,24,10,-8
3746,24,116,1006,18,8,-5
3747,28,144,998,-4,9,-5
3748,-9,105,1004,-23,9,-2
3749,-59,46,993,-40,3,2
3750,-72,-36,1009,-43,-4,0
3751,-44,-88,983,-28,-13,-4
3752,39,-75,985,-12,-15,-7
3753,107,-18,1006,4,-6,-9
3754,103,39,1008,7,10,-5
3755,41,97,1006,3,19,-1
3756,-72,108,994,-8,21,2
3757,-131,60,987,-21,9,0
3758,-125,15,994,-29,-9,-2
3759,5,-21,1010,-29,-24,-7
3760,99,-40,1001,-24,-23,-9
3761,156,-25,989,-14,-6,-5
3762,103,4,996,-6,15,-2
3763,-26,37,1007,-4,26,3
3764,-131,37,1002,-4,18,2
3765,-157,55,971,-10,1,-2
3766,-52,40,999,-16,-18,-6
3767,54,28,1013,-21,-22,-8
3768,152,15,1007,-26,-16,-8
3769,129,3,997,-19,5,-5
3770,13,-11,1005,-17,22,2
3771,-101,-11,978,-8,23,2
3772,-153,6,982,-3,8,-1
3773,-90,24,996,-5,-12,-6
3774,22,44,1009,-9,-21,-9
3775,143,61,1005,-16,-18,-9
3776,130,44,1001,-23,1,-3
3777,47,13,1008,-22,16,3
3778,-81,-15,990,-19,22,3
3779,-144,-24,989,-13,10,1
3780,-107,-17,982,-7,-9,-5
3781,16,19,999,-4,-20,-7
3782,129,55,1009,-7,-17,-8
3783,141,57,1011,-14,1,-5
3784,74,48,1006,-21,16,0
3785,-62,19,985,-21,23,4
3786,-142,-15,989,-20,13,2
3787,-136,-24,985,-13,-5,-3
3788,-6,-6,1010,-10,-20,-10
3789,-104,250,578,-12,-58,-22
3790,190,602,1399,-105,-58,-34
3791,2,184,1278,-132,22,8
3792,-133,-46,784,-162,-37,26
3793,254,-216,675,-177,-57,24
3794,-244,-449,1095,-81,42,-4
3795,131,-176,1008,17,-4,-137
3796,-113,-390,924,-14,19,-66
3797,31,-72,735,72,-29,-12
3798,360,53,1299,76,-18,-4
3799,112,203,1030,55,48,-27
3800,-31,170,915,19,42,-7
3801,-76,275,1071,9,31,19
3802,-333,151,1101,-44,18,20
3803,-133,57,902,-56,-33,-4
3804,8,-90,1033,-56,-35,3
3805,91,-90,959,-37,-32,-10
3806,227,-213,981,-21,-19,-13
3807,179,-168,953,28,20,-3
3808,54,-141,991,58,42,8
3809,5,-52,1033,84,49,-7
3810,-164,101,1047,84,44,0
3811,-150,272,951,64,11,6
3812,-61,263,1023,16,-3,-2
3813,16,158,1019,-24,-14,1
3814,72,21,982,-42,-12,4
3815,53,-126,1004,-36,0,0
3816,-30,-148,993,-9,8,3
3817,13,-78,991,20,6,-5
3818,1,8,993,34,11,-5
3819,28,113,1003,34,10,-1
3820,38,151,1005,10,12,-4
3821,-30,122,992,-11,14,0
3822,-71,62,998,-27,4,2
3823,-81,-2,990,-32,-6,-4
3824,-18,20,991,-30,-13,-10
3825,48,18,999,-33,-12,-12
3826,101,31,1021,-30,-4,-6
3827,74,19,993,-32,9,-3
3828,-10,-9,979,-29,17,-4
3829,-92,-28,990,-22,15,-1
3830,-108,-19,989,-12,1,-1
3831,-45,-19,996,-9,-13,-7
3832,40,10,998,-8,-19,-7
3833,128,50,1009,-9,-11,-7
3834,108,52,1006,-14,7,-5
3835,14,40,1004,-18,19,2
3836,-87,22,990,-18,18,2
3837,-130,-1,995,-17,6,-1
3838,-89,-14,979,-13,-11,-4
3839,29,1,997,-12,-21,-8
3840,126,28,1013,-12,-15,-9
3841,130,37,1006,-13,3,-5
3842,63,37,1002,-14,18,-1
3843,-70,30,987,-18,24,4
3844,-139,7,993,-16,12,2
3845,-128,-9,988,-15,-8,-4
3846,-171,-19,1017,-12,-21,-9
3847,-1259,289,835,8,-28,-8
3848,-406,263,1107,-49,-97,124
3849,324,240,1255,-67,-95,159
3850,395,203,684,-101,5,157
3851,208,-213,959,-100,25,24
3852,412,-79,1161,-37,-33,-98
3853,599,-312,1107,-82,-35,-91
3854,424,-389,817,-45,19,-73
3855,118,-390,722,23,77,-22
3856,152,-364,1127,123,83,-16
3857,-237,92,1238,164,96,12
3858,-351,380,929,128,57,-5
3859,-245,474,921,59,7,-17
3860,-124,526,955,-27,-33,14
3861,3,314,1029,-114,-50,11
3862,246,23,1166,-140,-45,-17
3863,65,-206,955,-133,-10,3
3864,111,-356,923,-81,-15,5
3865,66,-338,933,-15,13,19
3866,0,-262,980,53,36,-2
3867,0,-112,1031,83,34,-22
3868,-51,162,1066,92,25,-10
3869,-38,387,986,55,10,-3
3870,-42,384,968,-10,8,-7
3871,-49,265,1012,-67,-5,-3
3872,-41,36,1022,-102,-14,5
3873,-45,-200,999,-92,-18,0
3874,-28,-277,975,-51,-22,4
3875,77,-203,976,-1,-16,-6
3876,126,-110,969,35,7,-21
3877,109,27,1020,51,22,-18
3878,53,207,1049,43,26,2
3879,-91,259,980,3,31,4
3880,-190,174,974,-33,12,1
3881,-158,66,1005,-57,-17,2
3882,-26,-70,1005,-65,-34,-4
3883,96,-135,994,-44,-34,-7
3884,197,-121,1005,-21,-16,-7
3885,169,-72,976,8,14,-8
3886,35,0,1007,21,33,1
3887,-109,97,1020,23,32,4
3888,-192,143,983,5,17,-1
3889,-138,131,977,-16,-12,-5
3890,-2,76,1018,-36,-29,-6
3891,143,11,1014,-45,-27,-8
3892,162,-56,994,-42,-8,-4
3893,94,-92,1003,-27,12,2
3894,-38,-70,993,-5,24,3
3895,-134,-18,986,11,20,2
3896,-127,52,981,16,2,-3
3897,-75,116,748,1,-18,-6
3898,-6,870,990,-79,-54,-20
3899,228,232,1590,-171,-11,-10
3900,-190,26,807,-168,-6,26
3901,319,-187,744,-200,-51,12
3902,-130,-510,935,-143,38,41
3903,34,-272,1044,-20,9,-44
3904,13,-360,915,-15,21,-49
3905,-164,-186,744,54,15,14
3906,91,-179,985,99,-31,-6
3907,202,85,1283,117,13,-1
3908,-98,294,1007,70,40,-29
3909,35,417,971,34,6,-11
3910,-201,367,1091,-24,17,22
3911,-172,115,960,-75,-15,8
3912,29,-202,1011,-74,-34,-9
3913,39,-196,990,-37,-26,9
3914,145,-210,907,-13,-22,-6
3915,214,-228,985,39,13,-21
3916,25,-72,1033,73,42,-4
3917,-72,141,1043,78,29,5
3918,-136,246,1003,56,22,-3
3919,-158,231,961,14,0,4
3920,20,155,1024,-20,-23,0
3921,118,-9,1032,-45,-16,-9
3922,84,-113,965,-36,-4,5
3923,37,-128,996,-6,7,1
3924,-67,-90,1010,21,17,-3
3925,-84,5,965,40,8,-1
3926,-18,92,1006,38,2,-6
3927,58,128,1023,19,-2,-6
3928,74,104,991,-2,3,-2
3929,39,46,1000,-15,10,1
3930,-57,-12,995,-19,11,4
3931,-88,-53,996,-11,3,1
3932,-74,-56,986,-1,-7,-3
3933,22,0,997,12,-13,-6
3934,103,53,1006,12,-8,-8
3935,100,84,1005,2,7,-4
3936,41,104,998,-6,17,-1
3937,-62,103,997,-22,20,1
3938,-122,99,988,-36,10,-3
3939,-122,56,984,-44,-4,-4
3940,-4,15,1010,-57,-21,-6
3941,87,-57,1016,-54,-21,-8
3942,134,-58,991,-42,-6,-8
3943,101,-47,986,-26,12,-6
3944,-16,2,997,-12,24,2
3945,-110,14,996,-9,16,1
3946,-135,42,976,-9,2,-1
3947,-49,36,999,-16,-16,-5
3948,46,32,1007,-22,-20,-7
3949,137,27,1004,-24,-13,-7
3950,118,10,1000,-22,5,-4
3951,18,-5,1010,-17,21,2
3952,-88,-6,983,-13,19,2
3953,-136,4,980,-6,7,1
3954,-86,14,992,-7,-11,-4
3955,23,36,1009,-10,-19,-8
3956,127,56,1007,-13,-14,-9
3957,125,44,1001,-21,2,-5
3958,49,18,1003,-21,16,1
3959,-78,1,988,-18,21,5
3960,-136,-13,998,-13,10,1
3961,-118,-17,980,-9,-7,-4
3962,7,17,994,-6,-19,-8
3963,116,44,1008,-8,-16,-9
3964,135,54,1010,-15,0,-5
3965,78,45,1004,-18,15,-1
3966,-59,25,990,-18,22,4
3967,-138,-12,988,-15,13,2
3968,-140,-19,979,-13,-4,-3
3969,-13,-1,1008,-9,-20,-8
3970,100,17,1011,-10,-20,-9
3971,157,38,998,-9,-5,-7
3972,106,50,997,-13,13,-1
3973,-30,42,1005,-17,26,5
3974,-134,4,996,-17,18,3
3975,-152,0,968,-15,0,-2
3976,-47,-4,1000,-12,-18,-7
3977,68,9,1011,-12,-22,-8
3978,159,31,1008,-13,-12,-7
3979,132,42,1003,-15,9,-4
3980,5,29,1010,-16,24,4
3981,-188,9,978,-15,21,3
3982,-1469,218,795,12,-2,-24
3983,-811,419,1070,-58,-157,28
3984,408,174,1450,-101,-188,24
3985,302,80,674,-109,-55,-1
3986,239,-184,589,-98,-14,-124
3987,547,-145,980,-31,28,-227
3988,490,-390,1271,-41,97,-251
3989,249,-453,1072,56,71,-264
3990,22,-115,699,101,44,-151
3991,140,-99,1004,74,32,-75
3992,119,170,1288,97,24,-24
3993,117,377,987,40,18,17
3994,-23,284,833,-13,38,-28
3995,-145,232,1049,-38,26,-10
3996,-94,93,1105,-75,-9,18
3997,-119,-113,908,-74,-11,-3
3998,-17,-196,926,-52,-26,7
3999,176,-140,1117,-13,-22,-4
4000,143,-99,945,10,12,-12
4001,118,-15,920,28,26,-3
4002,4,147,1113,30,41,3
4003,-167,139,1017,5,34,5
4004,-194,147,884,-14,6,1
4005,-114,77,1039,-36,-17,-5
4006,-2,-3,1037,-48,-32,-3
4007,159,-59,982,-42,-29,-7
4008,174,-78,975,-25,-4,-1
4009,72,-54,1026,-6,21,3
4010,-37,-21,993,7,29,-2
4011,-163,42,972,16,25,4
4012,-135,96,993,8,0,-5
4013,-35,91,1014,-8,-16,-9
4014,92,88,990,-23,-19,-7
4015,135,33,1005,-38,-7,-3
4016,82,-28,1021,-37,9,-1
4017,-36,-61,987,-24,17,4
4018,-111,-53,978,-8,13,0
4019,-112,-26,991,4,1,-5
4020,-13,38,997,6,-14,-7
4021,93,94,1006,0,-14,-8
4022,123,102,1010,-15,-2,-5
4023,70,70,1009,-27,14,0
4024,-45,24,986,-31,20,3
4025,-125,-39,993,-29,11,2
4026,-120,-62,985,-19,-5,-3
4027,-6,-36,997,-7,-18,-8
4028,104,13,998,-2,-17,-9
4029,144,52,1006,-4,-3,-5
4030,93,83,1011,-10,13,0
4031,-42,71,1003,-19,24,4
4032,-134,19,992,-22,16,3
4033,-148,-9,972,-22,-2,0
4034,-37,-20,997,-18,-21,-6
4035,80,-17,1011,-15,-22,-9
4036,160,8,1009,-9,-8,-6
4037,126,42,994,-10,11,-3
4038,-3,44,1003,-12,26,4
4039,-134,26,850,-11,18,2
4040,-280,560,831,-45,-25,-8
4041,20,195,1587,-125,-28,-12
4042,-194,30,887,-121,-31,12
4043,269,-181,760,-146,-88,15
4044,168,-364,885,-101,-11,18
4045,131,-271,1126,7,37,-56
4046,62,-288,937,17,40,-83
4047,-120,-143,857,61,31,15
4048,37,234,1121,85,5,13
4049,-99,279,1146,29,26,-16
4050,-81,348,865,-6,3,-8
4051,19,221,1050,-61,-10,4
4052,-31,-23,1080,-94,-10,-1
4053,-41,-103,959,-73,-23,14
4054,8,-190,944,-49,-24,9
4055,-22,-189,957,-10,-6,-5
4056,107,-171,1009,27,-4,-25
4057,149,-86,978,54,13,-15
4058,130,44,989,67,34,-8
4059,9,159,1092,54,38,-2
4060,-155,228,998,24,29,10
4061,-201,164,943,-6,9,6
4062,-155,53,1019,-30,-17,0
4063,45,-37,1025,-33,-34,-6
4064,164,-98,974,-22,-24,-10
4065,180,-79,989,-1,1,-3
4066,106,-18,1021,17,25,-2
4067,-61,45,988,25,37,4
4068,-168,83,984,18,24,5
4069,-166,97,995,3,2,-1
4070,-36,62,1002,-11,-18,-7
4071,79,19,996,-22,-23,-8
4072,161,-10,1011,-21,-12,-6
4073,114,-28,1010,-15,10,-1
4074,-1,-23,995,-3,26,4
4075,-114,0,981,6,23,3
4076,-138,34,989,6,9,0
4077,-68,52,998,2,-10,-5
4078,35,65,999,-7,-18,-8
4079,130,66,1010,-17,-13,-7
4080,106,57,1010,-23,3,-4
4081,4,52,994,-29,15,0
4082,-109,50,983,-34,13,-3
4083,-139,0,1001,-37,-1,-2
4084,-82,-35,983,-35,-19,-5
4085,54,-41,996,-25,-26,-11
4086,152,-26,1001,-14,-17,-11
4087,152,-3,1008,-10,3,-5
4088,68,30,1001,-5,21,0
4089,-75,51,993,-4,26,4
4090,-152,48,987,-8,14,1
4091,-153,31,986,-15,-6,-3
4092,-13,28,1006,-18,-23,-8
4093,108,14,1007,-20,-24,-9
4094,161,4,995,-20,-9,-7
4095,112,0,1000,-19,13,-2
4096,-28,6,1001,-14,25,4
4097,-133,-1,998,-9,19,2
4098,-157,18,968,-7,2,-2
4099,-56,35,997,-7,-15,-6
4100,-7,38,1019,-12,-21,-9
4101,-1066,235,897,-1,-20,-33
4102,-688,428,1069,-58,-102,17
4103,322,160,1381,-105,-128,13
4104,384,41,731,-116,-34,-21
4105,371,-220,726,-100,16,-122
4106,337,-351,1096,-22,45,-202
4107,344,-366,1163,19,27,-181
4108,370,-269,969,42,11,-100
4109,110,-117,732,56,39,-30
4110,181,-41,1062,91,67,-42
4111,-125,220,1324,99,78,-23
4112,-265,352,895,49,39,32
4113,-244,381,772,-1,9,-15
4114,-125,222,1123,-67,-35,-12
4115,80,114,1094,-96,-48,10
4116,157,-114,1000,-98,-29,-16
4117,119,-212,876,-78,-17,12
4118,140,-238,1022,-27,7,16
4119,66,-194,1000,19,37,-2
4120,-86,-144,971,50,42,1
4121,-53,125,1038,70,23,-7
4122,-91,225,1030,38,17,-2
4123,-51,297,927,1,-2,-3
4124,-1,215,1030,-50,-11,-1
4125,-11,65,1032,-74,-9,2
4126,-23,-114,988,-75,-11,5
4127,-8,-195,958,-44,-10,1
4128,20,-175,1003,-7,-6,-2
4129,76,-75,995,23,1,-12
4130,78,38,1003,36,16,-8
4131,39,175,1003,27,21,-4
4132,-52,196,1010,-4,22,1
4133,-125,131,985,-31,10,0
4134,-129,35,990,-51,-8,1
4135,-25,-68,1005,-49,-25,-5
4136,70,-115,997,-34,-26,-7
4137,159,-87,980,-11,-13,-6
4138,138,-27,1006,6,13,-6
4139,27,34,1024,13,29,2
4140,-106,100,986,12,27,5
4141,-162,117,978,-2,13,0
4142,-124,79,998,-21,-10,-4
4143,4,40,1009,-33,-24,-7
4144,141,-7,1010,-39,-24,-7
4145,152,-41,993,-31,-5,-2
4146,90,-53,996,-18,15,2
4147,-49,-33,997,-5,26,2
4148,-138,9,1002,6,18,2
4149,-132,47,975,4,0,-4
4150,-28,81,995,-5,-16,-7
4151,92,91,1009,-16,-21,-8
4152,136,52,1013,-30,-6,-5
4153,88,5,1000,-34,9,0
4154,-28,-29,988,-27,19,4
4155,-115,-59,989,-14,16,2
4156,-139,-33,977,-3,1,-1
4157,-25,17,1008,4,-15,-7
4158,81,60,1010,-3,-19,-10
4159,133,85,998,-8,-8,-7
4160,103,76,998,-22,10,-2
4161,-26,32,1008,-28,22,4
4162,-124,-18,988,-27,15,3
4163,-322,277,517,-10,2,-3
4164,28,529,1456,-102,-55,-33
4165,-93,186,1254,-152,-18,4
4166,4,-17,796,-174,-74,-2
4167,358,-148,660,-184,-51,-25
4168,-105,-450,1110,-114,41,-25
4169,236,-182,1025,-16,-4,-122
4170,-82,-293,958,-52,30,-24
4171,-46,-72,722,15,-17,20
4172,74,-180,1095,41,-27,26
4173,92,56,1093,78,12,-1
4174,-35,-5,1014,49,34,-28
4175,124,133,940,59,16,-29
4176,-43,158,1078,33,32,23
4177,-73,223,1056,19,20,7
4178,-115,-42,1002,-12,13,2
4179,-96,-40,911,13,-3,5
4180,18,-98,1013,15,-12,1
4181,147,-102,1026,40,0,-21
4182,102,-58,974,52,18,-3
4183,42,88,1002,59,22,7
4184,-77,113,1057,43,28,5
4185,-148,116,958,29,14,3
4186,-76,98,998,11,-3,2
4187,33,37,1017,-1,-12,-7
4188,97,-1,987,-4,-8,-2
4189,104,-6,991,-2,4,-2
4190,2,10,1024,4,19,1
4191,-68,17,990,15,17,-12
4192,-69,110,992,18,11,-26
4193,-74,130,982,-22,1,-4
4194,-55,139,1005,-34,-10,-4
4195,60,110,1017,-60,-17,-11
4196,81,-16,1002,-73,-13,-7
4197,41,-59,994,-60,-1,0
4198,-16,-143,985,-49,2,-1
4199,-78,-97,982,-15,4,-3
4200,-31,-54,994,0,-10,-6
4201,23,32,994,14,-8,-9
4202,89,99,999,5,-5,-6
4203,83,126,1014,-11,6,-2
4204,6,87,1015,-27,14,1
4205,-82,22,979,-35,11,3
4206,-109,-31,990,-32,0,1
4207,-70,-70,985,-23,-13,-5
4208,37,-45,999,-8,-19,-8
4209,133,4,1006,-2,-12,-9
4210,121,50,1004,-2,6,-5
4211,52,73,1009,-7,20,0
4212,-87,76,990,-14,23,4
4213,-148,38,1002,-20,9,0
4214,-126,-7,988,-25,-10,-3
4215,0,-18,990,-19,-22,-7
4216,123,-9,1000,-17,-21,-9
4217,152,-3,1005,-11,-2,-7
4218,96,20,1001,-9,16,-3
4219,-41,34,1001,-8,26,3
4220,-141,28,991,-7,19,1
4221,-159,26,979,-12,1,-2
4222,-39,28,1004,-13,-19,-7
4223,76,22,1019,-16,-24,-8
4224,160,23,1002,-21,-12,-7
4225,125,15,991,-20,10,-3
4226,-3,7,1002,-15,24,4
4227,-126,-6,1004,-11,20,2
4228,-1047,63,899,8,3,-19
4229,-1269,476,860,-10,-94,8
4230,189,255,1445,-87,-177,32
4231,372,112,937,-105,-72,0
4232,275,-39,564,-115,-1,-92
4233,399,-256,952,-58,39,-223
4234,307,-332,1205,-2,59,-266
4235,356,-311,1179,30,3,-235
4236,96,-110,735,37,8,-134
4237,68,-110,848,32,28,-99
4238,278,-47,1237,76,30,-107
4239,176,150,1085,60,32,-33
4240,86,204,813,20,31,-2
4241,-30,219,1086,9,42,-17
4242,-175,234,1084,-27,24,14
4243,-164,63,923,-54,-4,1
4244,-66,-50,933,-57,-17,-4
4245,47,-114,1082,-42,-26,2
4246,163,-72,992,-21,-15,-8
4247,136,-94,918,-9,11,0
4248,59,16,1011,18,33,1
4249,-62,31,1097,13,34,1
4250,-159,95,922,10,20,5
4251,-112,116,982,-7,1,0
4252,-25,82,1046,-28,-15,-5
4253,72,34,990,-37,-17,-3
4254,117,-19,960,-34,-5,-3
4255,25,-46,1022,-26,12,4
4256,-33,-58,1018,-11,13,-1
4257,-107,-33,954,3,11,0
4258,-66,37,985,8,-1,-4
4259,11,65,1034,1,-7,-10
4260,88,86,1001,-7,-6,-8
4261,87,79,985,-22,4,-2
4262,17,31,1018,-28,13,0
4263,-78,-30,991,-28,13,1
4264,-108,-40,970,-22,2,1
4265,-54,-47,1002,-10,-12,-3
4266,29,-5,1004,0,-15,-7
4267,130,48,995,-1,-9,-6
4268,110,80,1005,-7,9,-3
4269,22,74,1021,-15,18,1
4270,-83,44,993,-22,18,2
4271,-136,5,982,-24,7,2
4272,-90,-30,984,-22,-12,-4
4273,25,-30,1004,-16,-21,-8
4274,128,5,1005,-10,-17,-8
4275,144,27,1004,-10,2,-5
4276,62,43,1006,-8,20,1
4277,-73,54,991,-13,24,4
4278,-146,26,996,-15,12,1
4279,-136,3,982,-15,-9,-5
4280,-7,9,1000,-17,-22,-7
4281,118,10,1000,-15,-20,-10
4282,153,15,1002,-16,-5,-6
4283,98,23,1003,-14,14,0
4284,-41,24,1001,-13,25,3
4285,-137,5,991,-13,18,2
4286,-156,13,969,-10,0,-1
4287,-40,21,1005,-12,-20,-7
4288,78,26,1016,-16,-24,-8
4289,157,35,1003,-17,-10,-6
4290,122,33,992,-18,10,-1
4291,-9,19,1001,-18,24,3
4292,-122,-6,998,-16,21,1
4293,-158,-3,972,-10,5,-1
4294,-64,5,998,-8,-15,-6
4295,55,22,1004,-10,-22,-9
4296,158,49,1004,-13,-14,-9
4297,136,48,1009,-17,6,-4
4298,22,26,1013,-20,21,2
4299,-104,2,981,-20,20,2
4300,-151,-8,976,-15,6,0
4301,-93,-14,995,-9,-13,-5
4302,32,6,1006,-9,-22,-8
4303,150,39,1006,-11,-16,-9
4304,145,48,1000,-14,2,-2
4305,53,42,1007,-17,21,2
4306,-84,25,991,-18,25,4
4307,-158,-1,996,-19,12,2
4308,-124,-16,979,-14,-9,-4
4309,10,-2,996,-9,-22,-7
4310,132,26,1008,-10,-18,-7
4311,153,35,1008,-13,0,-4
4312,83,44,1005,-17,17,1
4313,-61,35,995,-16,25,5
4314,-147,7,985,-16,15,2
4315,-155,-7,980,-14,-4,-2
4316,-20,3,1012,-11,-20,-8
4317,103,17,1006,-13,-23,-9
4318,163,29,993,-15,-8,-7
4319,111,42,1000,-14,12,-1
4320,-29,32,1004,-18,24,3
4321,-136,3,997,-14,17,2
4322,-161,0,965,-13,0,-1
4323,-51,1,1000,-10,-19,-7
4324,72,17,1012,-11,-23,-9
4325,159,36,1010,-13,-12,-8
4326,135,46,1004,-16,7,-3
4327,4,26,1005,-18,24,3
4328,-116,9,982,-15,22,2
4329,-161,0,979,-13,6,0
4330,-86,-4,1001,-11,-17,-5
4331,46,8,1004,-11,-24,-8
4332,159,38,1002,-11,-14,-8
4333,-497,30,959,-9,5,-18
4334,-1429,502,871,-10,-39,35
4335,-80,257,1352,-87,-139,151
4336,358,127,1063,-96,-75,132
4337,236,14,543,-100,13,87
4338,194,-281,1006,-61,37,-48
4339,193,-97,1183,8,17,-131
4340,303,-177,1166,-21,-26,-150
4341,108,-144,773,-21,-14,-140
4342,41,-133,791,-5,20,-115
4343,225,-208,1210,40,20,-151
4344,117,-9,1134,54,17,-98
4345,93,95,806,20,10,-41
4346,139,45,1005,14,14,-67
4347,187,117,1052,18,23,-41
4348,199,59,1054,1,25,-10
4349,50,107,934,1,43,20
4350,-175,83,1016,-16,46,24
4351,-191,12,1048,-19,22,-8
4352,-182,-17,921,-17,3,0
4353,-9,6,971,-13,-22,-2
4354,143,3,1086,-17,-15,-11
4355,165,19,974,-11,3,-6
4356,73,23,967,-12,21,5
4357,-87,18,1039,-10,30,5
4358,-170,6,991,-11,16,3
4359,-115,10,951,-8,-6,-1
4360,-21,20,1007,-12,-19,-7
4361,123,46,1021,-14,-20,-8
4362,150,37,996,-19,-2,-5
4363,61,25,998,-21,17,3
4364,-59,11,1011,-17,21,3
4365,-132,-12,983,-12,14,1
4366,-123,-14,968,-7,-2,-3
4367,-8,8,1012,-8,-17,-8
4368,114,37,1016,-8,-17,-10
4369,135,49,991,-13,-2,-6
4370,74,40,1003,-18,14,1
4371,-58,25,1000,-19,23,3
4372,-131,-4,998,-17,13,1
4373,-129,-16,979,-13,-5,-2
4374,-9,1,992,-7,-18,-7
4375,110,24,1009,-9,-18,-9
4376,144,41,1004,-11,-4,-5
4377,95,48,1006,-17,12,-1
4378,-39,37,998,-19,24,3
4379,-133,4,992,-18,17,2
4380,-147,-8,975,-17,-2,-3
4381,-30,0,1004,-12,-19,-7
4382,88,15,1010,-12,-24,-9
4383,155,30,1002,-13,-9,-7
4384,118,43,993,-16,10,-1
4385,-15,33,1002,-16,25,4
4386,-129,8,1000,-14,18,2
4387,-158,3,973,-14,2,-1
4388,-62,2,995,-11,-16,-6
4389,57,9,1008,-10,-22,-9
4390,153,32,1008,-14,-14,-9
4391,134,41,1005,13,9,-7
4392,14,24,1010,-13,23,2
4393,-109,12,981,-16,22,3
4394,-158,6,980,-11,7,-1
4395,-98,1,994,-13,-15,-5
4396,32,14,1005,-11,-24,-8
4397,150,37,1009,-11,-15,-8
4398,144,42,1001,-16,3,-4
4399,47,25,1003,-16,19,1
4400,-86,17,995,-16,23,2
4401,-157,1,996,-12,12,1
4402,-122,-8,975,-11,-10,-5
4403,13,8,998,-10,-23,-8
4404,132,33,1012,-10,-19,-8
4405,155,38,1009,-14,-1,-5
4406,82,34,1004,-18,17,0
4407,-63,27,992,-18,24,4
4408,-146,-2,988,-15,14,1
4409,-147,-11,981,-12,-4,-3
4410,-12,8,1007,-11,-21,-7
4411,110,25,1006,-11,-22,-10
4412,165,38,998,-14,-4,-6
4413,106,43,1002,-17,15,-1
4414,-33,30,1006,-18,25,4
4415,-141,-2,993,-18,17,2
4416,-159,-3,967,-13,-1,-2
4417,-47,0,997,-12,-20,-5
4418,73,16,1013,-12,-24,-7
4419,166,36,1013,-14,-12,-6
4420,127,46,1001,-16,9,-2
4421,0,27,1000,-18,24,4
4422,-125,9,987,-16,21,2
4423,-166,3,980,-13,4,-1
4424,-83,-3,998,-12,-17,-6
4425,47,8,1002,-10,-24,-9
4426,161,36,1006,-11,-14,-6
4427,139,40,1003,-17,6,-4
4428,32,30,1014,-15,21,1
4429,-102,14,989,-16,21,4
4430,-162,2,981,-13,8,2
4431,-110,-6,983,-11,-12,-4
4432,-478,-20,939,-7,-23,-18
4433,-1296,438,916,0,-54,21
4434,-28,265,1317,-78,-128,147
4435,395,173,1032,-85,-52,119
4436,278,63,532,-104,39,64
4437,122,-334,1124,-63,28,-99
4438,393,-86,1247,1,-41,-170
4439,439,-258,1039,-62,-39,-127
4440,137,-222,690,-17,12,-137
4441,103,-253,835,27,50,-125
4442,317,-265,1271,93,49,-124
4443,119,67,1030,106,49,-3
4444,43,281,875,76,45,24
4445,-148,363,1168,40,49,-24
4446,-201,348,953,-14,20,8
4447,-108,172,915,-62,-12,-8
4448,0,-6,1045,-89,-23,-1
4449,66,-152,1048,-80,-24,9
4450,165,-176,967,-43,-14,2
4451,60,-180,905,-11,14,19
4452,15,-70,1050,25,30,-1
4453,-45,-19,1068,32,27,-7
4454,-110,128,916,37,19,3
4455,-43,210,984,9,1,-8
4456,-16,173,1066,-26,-4,-5
4457,14,98,989,-52,-11,3
4458,10,-37,963,-59,-8,0
4459,-25,-104,1023,-42,-4,2
4460,-6,-137,994,-19,-6,-2
4461,22,-84,957,10,0,-8
4462,58,23,1010,22,4,-7
4463,63,107,1029,18,11,-9
4464,2,136,986,2,19,-1
4465,-86,122,979,-22,14,3
4466,-108,50,1030,-38,1,1
4467,-78,-40,991,-40,-15,-3
4468,23,-73,970,-29,-22,-4
4469,123,-63,1006,-15,-16,-8
4470,133,-30,1013,-1,3,-5
4471,75,33,993,6,18,0
4472,-52,79,998,3,26,3
4473,-135,84,1002,-7,17,2
4474,-149,64,979,-17,-3,-2
4475,-24,36,1006,-27,-21,-8
4476,85,-4,1015,-30,-25,-9
4477,160,-21,999,-24,-11,-7
4478,124,-24,987,-18,11,-2
4479,-4,-10,1000,-8,25,5
4480,-115,1,1008,-1,21,1
4481,-154,39,973,-3,6,0
4482,-65,57,989,-6,-14,-5
4483,45,59,1015,-16,-22,-8
4484,138,51,1012,-25,-14,-5
4485,128,25,1000,-27,3,-3
4486,21,-15,1005,-26,20,2
4487,-97,-29,980,-16,21,3
4488,-143,-24,980,-7,7,0
4489,-90,3,996,-2,-11,-6
4490,25,36,1003,-3,-19,-8
4491,137,71,1009,-10,-14,-7
4492,126,69,1003,-19,3,-4
4493,39,37,1006,-26,18,2
4494,-90,2,991,-25,21,3
4495,-147,-25,991,-20,10,1
4496,-111,-34,981,-10,-9,-5
4497,18,0,992,-6,-21,-8
4498,132,36,1012,-3,-19,-8
4499,145,57,1010,-10,-1,-5
4500,73,58,1005,-15,16,-1
4501,-67,40,989,-18,24,3
4502,-152,-1,989,-20,13,2
4503,-138,-21,987,-17,-7,-4
4504,-8,-10,1006,-13,-21,-7
4505,116,13,1003,-10,-21,-8
4506,167,29,1003,-9,-4,-6
4507,106,49,1000,-12,14,-2
4508,-35,41,1009,-17,26,3
4509,-140,12,993,-15,18,2
4510,-164,3,968,-16,-1,1
4511,-43,0,992,-15,-19,-7
4512,74,6,1019,-15,-24,-8
4513,167,25,1013,-17,-13,-6
4514,134,35,993,-15,10,-2
4515,-1,26,1005,-16,26,4
4516,-122,11,991,-14,23,3
4517,-167,7,978,-10,7,1
4518,-86,1,995,-12,-16,-6
4519,43,17,1006,-10,-24,-8
4520,160,36,1004,-14,-16,-8
4521,143,43,1002,-19,4,-4
4522,35,21,1014,-17,21,3
4523,-100,8,991,-16,22,2
4524,-162,-1,977,-12,10,0
4525,-115,-6,983,-9,-11,-4
4526,20,16,1006,-10,-23,-8
4527,140,39,1009,-11,-19,-8
4528,153,44,1007,-16,0,-6
4529,70,32,1005,-18,17,0
4530,-74,22,986,-16,24,4
4531,-149,-7,996,-14,12,1
4532,-139,-13,981,-12,-7,-3
4533,-31,6,1022,-10,-22,-8
4534,-1111,148,806,5,-28,-17
4535,-949,413,1013,-36,-83,173
4536,65,274,1339,-80,-106,300
4537,299,213,794,-89,-35,277
4538,297,10,720,-108,9,178
4539,279,-156,1212,-62,-2,4
4540,369,-50,1103,-46,-31,-68
4541,314,-250,1036,-74,-31,-108
