sequence,AccelerometerX,AccelerometerY,AccelerometerZ,GyroscopeX,GyroscopeY,GyroscopeZ
0,150,-285,1013,40,-28,-4
1,266,-97,1032,112,-7,6
2,146,127,1047,90,30,18
3,-162,246,990,24,55,16
4,-357,210,976,-66,22,0
5,-242,47,938,-104,-32,-7
6,117,-93,967,-72,-60,5
7,426,-150,1034,-28,-38,10
8,342,-106,1052,-3,29,9
9,-18,16,1020,7,75,10
10,-396,108,930,-20,55,16
11,-439,66,894,-47,-6,11
12,-156,-87,927,-51,-63,-4
13,291,-173,1020,12,-79,-10
14,484,-70,1068,83,-27,2
15,295,115,1058,70,41,11
16,-152,202,1003,1,77,18
17,-489,142,917,-71,44,8
18,-396,-22,919,-77,-31,-7
19,5,-172,951,-43,-83,-5
20,450,-199,1036,35,-72,3
21,433,-67,1062,69,2,6
22,80,103,1036,52,61,3
23,-357,186,957,-3,59,7
24,-473,142,914,-47,-1,6
25,-187,-33,938,-74,-64,-3
26,259,-179,1015,-26,-83,-7
27,483,-127,1056,45,-35,2
28,301,45,1058,45,33,8
29,-114,148,995,-15,73,9
30,-451,139,928,-74,46,6
31,-395,35,938,-96,-24,-2
32,-11,-111,979,-90,-77,-4
33,417,-152,1039,-39,-69,4
34,433,-29,1053,-6,-1,11
35,145,123,1059,-39,59,2
36,-294,176,995,-128,73,2
37,-475,141,930,-201,19,8
38,-236,1,964,-256,-46,5
39,187,-165,999,-250,-75,-3
40,461,-172,1020,-166,-37,5
41,319,0,1036,-98,30,8
42,-65,132,1023,-137,72,7
43,-414,142,959,-233,53,11
44,-410,41,937,-295,-12,3
45,-57,-122,969,-302,-67,-5
46,374,-197,995,-218,-69,1
47,439,-82,1030,-117,-6,13
48,70,207,838,-113,58,10
49,-1198,1289,691,-1011,-22,34
50,-333,-1079,92,-1924,-149,13
51,-124,-683,44,127,-142,16
52,574,113,1340,272,-204,26
53,681,-51,1315,-97,-122,126
54,504,-527,159,-314,-97,97
55,708,129,696,352,94,57
56,365,553,1392,-61,278,33
57,-409,44,1189,-360,290,-67
58,-564,-172,864,-104,78,42
59,-949,572,1066,2,42,43
60,-226,-198,881,-192,-100,-44
61,539,-218,906,-60,-110,62
62,155,-101,1170,-50,-14,19
63,210,-455,900,-62,21,-74
64,-2,-221,919,34,29,27
65,-26,53,942,47,16,60
66,111,0,1138,22,19,3
67,-179,173,1017,24,50,-31
68,-106,264,1004,-10,3,2
69,-98,211,914,-47,-9,34
70,-45,-22,915,-72,-13,1
71,115,-345,1065,-62,-17,-23
72,228,-259,1030,-8,-7,1
73,217,-90,971,18,25,26
74,15,41,970,28,60,37
75,-346,98,952,22,54,14
76,-418,15,966,3,-1,-21
77,-115,-13,935,12,-60,-11
78,328,-57,1002,2,-72,8
79,494,-105,1076,5,-12,8
80,216,-15,1071,29,59,3
81,-196,101,986,23,79,16
82,-410,138,894,5,39,26
83,-364,-24,859,-28,-21,1
84,-38,-223,1016,-16,-68,-27
85,379,-231,1075,30,-64,-16
86,437,-65,1011,84,-4,12
87,196,136,1018,110,55,23
88,-272,191,996,48,76,26
89,-524,78,906,0,26,-2
90,-303,-71,913,11,-49,-21
91,153,-156,1018,35,-89,-6
92,490,-200,1044,44,-53,8
93,350,-96,1027,102,24,1
94,-59,61,1003,140,67,8
95,-381,143,914,122,44,26
96,-434,76,894,80,-17,7
97,-119,-109,1008,35,-75,-23
98,330,-186,1052,66,-81,-17
99,438,-69,1030,127,-25,4
100,227,89,1017,142,35,13
101,-201,143,962,105,59,21
102,-474,86,936,54,20,4
103,-418,-365,376,82,-52,-15
104,-646,-1640,-1110,1999,-211,-71
105,368,1373,1778,4508,-300,-98
106,207,1061,1607,-212,-151,155
107,98,-687,27,-1863,-101,190
108,440,-547,28,-99,-80,-92
109,157,217,762,707,-40,-187
110,711,-43,1181,250,78,-118
111,343,-52,1151,183,179,-51
112,-106,367,1125,496,124,-52
113,-271,628,971,301,80,-15
114,-861,565,1013,165,70,-39
115,-174,131,1047,-138,-43,19
116,10,-306,964,-203,-51,79
117,325,-422,1050,9,-57,-9
118,546,-457,1028,-4,-12,-5
119,143,-216,970,61,70,50
120,-260,65,988,41,83,19
121,-559,127,1032,-9,39,-26
122,-363,100,844,-46,-45,-16
123,125,115,1056,33,-95,14
124,471,21,1051,-36,-65,25
125,481,107,1015,-24,19,13
126,211,231,1110,-56,86,-27
127,-195,140,997,-177,106,-13
128,-531,39,869,-209,60,43
129,-379,-126,957,-200,-20,12
130,100,-334,968,-179,-62,-19
131,437,-263,986,-55,-39,11
132,376,9,1047,30,23,20
133,-43,206,1034,-13,78,11
134,-417,210,952,-118,62,10
135,-387,115,921,-150,-8,7
136,-35,-26,963,-138,-60,2
137,399,-149,1031,-99,-58,0
138,426,-127,1037,-38,9,7
139,93,11,1023,-13,68,12
140,-330,82,957,-56,67,18
141,-481,37,882,-93,13,12
142,-224,-71,930,-88,-52,-4
143,228,-144,1004,-36,-81,-8
144,485,-63,1053,43,-36,2
145,317,121,1063,57,34,9
146,-124,197,1017,-15,73,15
147,-458,127,911,-88,44,12
148,-392,-20,913,-92,-24,-2
149,-5,-179,967,-77,-77,-5
150,430,-216,1024,-2,-68,1
151,409,-67,1045,63,3,4
152,65,118,1041,60,54,5
153,-353,202,963,-11,52,13
154,-457,139,911,-65,-1,6
155,-162,-45,940,-89,-66,-8
156,287,-170,1019,-38,-82,-8
157,487,-118,1066,22,-30,3
158,292,29,1050,22,39,9
159,-158,138,1003,-24,75,15
160,-482,134,924,-89,40,11
161,-383,24,937,-125,-30,-4
162,13,-117,978,-132,-81,-5
163,460,-154,1038,-78,-69,1
164,448,-26,1058,-29,6,6
165,115,125,1055,-53,66,8
166,-335,185,989,-136,72,15
167,-496,119,913,-211,14,8
168,-221,-58,952,-257,-53,-4
169,230,-212,978,-219,-81,-6
170,491,-180,1029,-103,-37,3
171,324,4,1044,-40,35,8
172,-101,147,1028,-86,77,15
173,-451,162,965,-183,52,15
174,-403,46,938,-259,-16,1
175,-34,-117,973,-282,-70,-6
176,-198,525,368,-300,-87,13
177,-57,340,626,-1827,-164,31
178,383,-1357,-148,-986,-53,25
179,67,-78,657,404,-59,29
180,553,292,1493,198,-26,73
181,370,-186,815,-343,59,123
182,310,-94,601,-170,105,35
183,-245,387,1480,-4,143,0
184,-487,19,436,-357,56,22
185,-582,278,989,-33,18,7
186,-271,-59,882,-177,-96,35
187,171,-365,962,-111,-89,0
188,295,-402,1134,-42,-54,-65
189,633,-334,934,10,-18,-2
190,334,106,1037,63,69,70
191,-181,257,1023,24,113,24
192,-597,147,976,-20,65,-6
193,-597,170,913,-24,-19,-15
194,31,-29,959,-58,-101,-4
195,523,-209,1009,-49,-75,4
196,593,-231,1083,-13,10,-2
197,223,-117,1070,8,89,3
198,-287,129,939,26,102,34
199,-555,172,867,-9,48,33
200,-452,-27,891,-30,-30,-10
201,6,-153,1054,-11,-85,-33
202,515,-144,1072,7,-72,-10
203,556,-10,1017,27,10,19
204,169,86,1018,18,84,28
205,-408,86,978,2,95,19
206,-599,43,893,-5,23,-4
207,-275,-71,900,-14,-60,-11
208,254,-175,1020,-3,-93,-2
209,541,-168,1075,24,-37,1
210,331,-16,1055,48,42,0
211,-100,138,983,64,76,19
212,-418,204,910,47,47,30
213,-431,50,916,-18,-13,-2
214,-80,-195,993,-42,-71,-26
215,375,-218,1035,38,-74,-9
216,462,-68,1052,82,-13,11
217,190,43,1002,79,54,19
218,-297,89,959,62,72,18
219,-514,61,907,61,17,0
220,-267,-49,927,41,-55,-12
221,184,-135,1019,48,-90,-7
222,499,-138,1069,72,-49,2
223,328,-21,1034,107,27,1
224,-78,90,988,126,65,11
225,-391,125,904,108,40,23
226,-404,27,925,69,-17,0
227,-65,-158,1006,23,-72,-21
228,368,-199,1032,76,-74,-9
229,430,-52,1038,132,-13,8
230,12,-406,152,259,37,8
231,-1035,-1364,-799,2738,-59,-74
232,-480,1686,1854,4366,-235,-84
233,-33,869,1314,-531,-195,106
234,685,-1054,345,-1639,-99,-20
235,1007,-891,137,62,-6,-195
236,672,125,927,775,48,-89
237,28,440,1433,446,195,-20
238,-780,560,950,308,126,-4
239,-731,452,752,261,19,-44
240,-426,188,1245,165,-82,-11
241,353,-227,916,88,-141,28
242,631,-210,1100,158,-54,62
243,262,-47,1096,139,42,25
244,-11,-107,1039,-43,66,-16
245,-544,-84,870,-79,54,7
246,-352,-33,906,3,-36,9
247,91,26,1067,53,-78,-11
248,367,49,1092,11,-52,-8
249,379,87,1037,-25,0,9
250,83,237,949,-34,61,0
251,-232,216,1032,-123,73,-7
252,-322,-22,935,-207,22,17
253,-102,-128,951,-134,-23,14
254,208,-186,1043,-91,-34,-6
255,345,-146,993,-70,2,16
256,75,52,1017,-37,54,23
257,-270,143,1000,-91,59,1
258,-369,92,928,-163,13,6
259,-140,17,929,-159,-40,7
260,259,-62,1006,-120,-57,1
261,415,-61,1052,-76,-10,4
262,221,53,1046,-52,48,8
263,-181,125,989,-88,73,16
264,-450,69,908,-147,36,15
265,-334,-91,909,-158,-28,-1
266,37,-222,950,-100,-73,-9
267,435,-184,1016,14,-60,-2
268,398,23,1055,82,7,10
269,58,201,1041,42,62,13
270,-368,208,970,-57,61,11
271,-474,91,894,-88,0,2
272,-158,-73,934,-77,-67,-5
273,288,-197,1002,-19,-83,-3
274,481,-161,1036,47,-30,4
275,250,22,1054,79,36,4
276,-192,145,1005,28,66,9
277,-482,151,908,-26,27,9
278,-350,33,923,-46,-41,-3
279,62,-122,981,-20,-88,-8
280,460,-131,1054,41,-68,-2
281,399,5,1053,61,1,5
282,101,131,1026,24,55,5
283,-325,159,983,-46,64,3
284,-464,74,908,-88,9,4
285,-170,-82,949,-87,-56,1
286,230,-165,999,-29,-76,-1
287,446,-103,1061,15,-35,10
288,267,63,1045,11,29,7
289,-110,174,1020,-49,67,-7
290,-403,168,954,-135,42,-1
291,-346,86,958,-190,-19,9
292,-2,-77,997,-217,-66,1
293,384,-161,1013,-170,-58,1
294,385,-68,1024,-99,1,11
295,112,81,1026,-91,53,5
296,-294,125,998,-164,64,2
297,-455,54,928,-236,15,9
298,-833,585,133,-355,-71,17
299,-146,-54,889,-1106,-230,-4
300,599,-921,-159,-353,-171,50
301,751,-258,823,169,-59,93
302,692,397,1407,334,62,79
303,491,218,937,-392,117,51
304,-424,151,1007,-455,251,-59
305,-773,35,1108,-460,82,14
306,-397,218,794,-391,-18,56
307,13,19,1132,-374,-56,-8
308,511,-186,882,-439,-37,41
309,72,-287,1127,-431,42,14
310,-119,-349,758,-261,54,-43
311,-79,-143,873,-78,9,44
312,-67,47,916,50,-8,33
313,180,26,1185,-3,-3,-21
314,-1,39,974,-22,28,-16
315,10,216,1009,53,15,12
316,-114,209,969,-49,21,30
317,-115,-95,955,-148,8,3
318,41,-311,1006,-130,-1,-15
319,218,-204,985,1,-5,1
320,243,25,1013,53,22,25
321,-4,145,1016,16,62,29
322,-362,83,941,-49,57,2
323,-380,0,947,-35,-2,-17
324,-35,-31,924,-17,-57,1
325,360,-101,1041,-29,-53,10
326,421,-156,1054,-29,8,6
327,99,-18,1041,38,63,4
328,-271,164,994,41,66,16
329,-400,162,891,-20,19,24
330,-315,-41,878,-77,-35,-4
331,49,-254,1014,-49,-75,-28
332,431,-221,1062,36,-56,-7
333,397,-20,1018,79,6,16
334,94,143,1041,76,60,22
335,-364,157,955,11,62,20
336,-510,45,883,-4,4,-8
337,-199,-93,922,3,-70,-18
338,273,-176,1022,34,-92,-1
339,508,-188,1063,52,-37,5
340,276,-54,1040,111,36,-1
341,-154,117,993,126,64,10
342,-420,167,901,93,30,21
343,-379,42,905,41,-31,-1
344,-24,-149,1004,20,-82,-24
345,409,-178,1058,80,-74,-13
346,439,-33,1035,124,-8,7
347,144,119,1029,129,53,17
348,-301,157,967,70,61,16
349,-509,80,910,15,12,-2
350,-245,-69,940,-13,-63,-13
351,211,-134,1014,12,-95,-4
352,491,-100,1081,42,-48,4
353,309,-10,1003,39,25,2
354,-235,-833,-478,384,51,-3
355,-961,-487,32,2966,-48,-57
356,-330,1831,1881,2429,-216,-13
357,277,228,1098,-936,-139,19
358,987,-1183,520,-1025,-27,-97
359,980,-409,404,324,52,47
360,-130,632,1513,627,147,98
361,-740,282,1144,-8,116,-27
362,-841,-6,569,-101,17,11
363,-449,11,981,76,-100,-3
364,579,-121,1114,63,-167,-22
365,663,-104,1054,57,-43,-7
366,484,44,1069,75,45,-2
367,-114,166,1050,-1,102,38
368,-760,249,934,-113,63,19
369,-498,-87,887,-213,-52,-11
370,-9,-214,921,-68,-104,-7
371,602,-135,1089,29,-90,-13
372,643,-87,1093,-22,5,9
373,160,93,991,-10,95,24
374,-396,204,1023,-68,97,23
375,-627,105,894,-145,29,12
376,-281,-51,903,-162,-57,-4
377,270,-180,1011,-100,-90,-8
378,585,-141,1034,-19,-36,4
379,369,42,1058,15,49,12
380,-121,158,1023,-37,91,24
381,-520,150,917,-115,59,24
382,-452,11,923,-146,-16,-1
383,-8,-151,957,-137,-76,-8
384,469,-180,1011,-43,-65,0
385,484,-35,1045,37,10,6
386,109,123,1053,27,75,16
387,-373,154,961,-52,76,22
388,-525,70,888,-82,15,8
389,-216,-85,929,-87,-57,-6
390,272,-200,990,-25,-83,-7
391,520,-138,1045,62,-31,3
392,296,60,1054,99,43,10
393,-169,173,1023,36,76,19
394,-504,144,899,-32,40,16
395,-386,3,912,-45,-32,-4
396,32,-167,969,-23,-85,-11
397,482,-177,1040,68,-66,-3
398,440,-17,1055,108,7,5
399,59,126,1044,81,66,11
400,-396,176,956,7,58,17
401,-510,92,905,-38,-3,2
402,-164,-97,929,-56,-71,-11
403,320,-184,1009,20,-88,-7
404,526,-97,1068,82,-30,1
405,280,64,1055,85,43,5
406,-199,174,1009,25,74,15
407,-509,159,921,-46,34,12
408,-367,-8,924,-89,-37,-6
409,65,-170,957,-50,-86,-11
410,501,-158,1053,38,-64,-2
411,439,-10,1062,68,11,5
412,48,132,1033,33,70,10
413,-410,180,953,-31,62,14
414,-513,85,894,-66,-3,2
415,-175,-98,930,-68,-72,-8
416,315,-189,1002,13,-90,-7
417,531,-102,1074,78,-30,2
418,288,64,1056,69,42,5
419,-187,171,1005,12,75,13
420,-512,162,919,-49,36,11
421,-387,10,926,-83,-37,-5
422,53,-159,967,-55,-87,-9
423,495,-161,1048,24,-66,-1
424,453,-15,1069,49,9,6
425,74,126,1034,11,71,9
426,-389,178,965,-53,66,14
427,-519,96,901,-97,4,4
428,-181,-82,940,-112,-65,-6
429,306,-177,1011,-47,-85,-5
430,529,-106,1068,7,-28,5
431,301,546,1267,-43,50,14
432,-405,1062,1732,-2786,107,54
433,-498,-1542,-506,-2724,35,-44
434,-47,18,127,1940,-52,43
435,-192,1761,1528,1644,-149,-21
436,812,796,1494,143,-74,-96
437,814,-142,590,-990,64,58
438,-230,131,963,-275,181,57
439,-409,-303,1190,-390,72,-7
440,-689,-230,536,-218,42,-6
441,-298,-365,969,-192,-84,24
442,461,-406,989,-200,-77,20
443,357,-206,1066,-29,-17,-30
444,263,139,1001,75,26,-30
445,-49,469,1053,78,56,55
446,-486,432,888,-81,43,22
447,-291,-9,1051,-227,-26,-31
448,18,-263,959,-199,-56,-12
449,475,-237,1001,-57,-58,3
450,460,-144,999,-18,22,24
451,-38,-12,1006,-7,84,25
452,-506,60,984,-32,58,-7
453,-470,81,884,-30,-11,-5
454,-51,45,928,-31,-77,9
455,431,-98,1054,-46,-79,2
456,458,-117,1067,-10,2,-5
457,151,29,1052,45,56,0
458,-248,163,966,21,62,27
459,-480,104,891,-49,24,20
460,-312,-139,932,-98,-39,-12
461,102,-268,984,-30,-81,-18
462,497,-135,1032,75,-54,2
463,427,72,1048,99,15,21
464,-10,181,1037,51,72,21
465,-476,164,963,-13,59,3
466,-472,45,913,-34,-15,-7
467,-74,-105,933,-50,-78,1
468,385,-230,1007,-14,-78,2
469,473,-182,1060,51,-12,1
470,168,28,1043,102,48,5
471,-259,192,987,69,61,20
472,-464,176,904,6,15,18
473,-305,-20,946,-51,-43,-8
474,110,-206,993,-33,-84,-18
475,493,-172,1029,60,-59,0
476,397,0,1041,103,13,16
477,3,112,1032,79,65,21
478,-451,138,955,28,53,11
479,-476,43,919,-8,-13,-6
480,-93,-110,929,-26,-77,-3
481,370,-193,999,27,-83,1
482,490,-132,1056,95,-20,4
483,194,25,1027,148,45,6
484,-251,166,970,152,63,18
485,-478,172,928,101,16,16
486,-306,-17,956,25,-46,-6
487,110,-210,982,26,-86,-15
488,490,-206,1024,119,-61,-1
489,395,-38,1011,203,11,13
490,18,128,1026,218,63,20
491,-432,189,988,149,51,15
492,-480,80,938,60,-12,-6
493,-122,-99,938,21,-77,-10
494,349,-193,996,75,-89,-3
495,511,-144,1038,147,-27,6
496,252,22,1041,193,46,7
497,-92,241,1077,135,83,10
498,-488,185,923,-14,55,4
499,-423,-7,696,-38,-9,4
500,-699,219,281,131,6,21
501,181,-187,1166,-181,-252,5
502,1115,-458,189,88,-103,25
503,545,-12,1239,273,92,-19
504,482,-146,1040,233,94,10
505,-506,100,832,-59,166,93
506,-1133,234,1128,20,72,-45
507,-72,-80,789,-210,-109,-4
508,84,207,1098,69,-75,15
509,774,124,1089,-72,-63,-18
510,284,36,1066,-166,65,32
511,-286,32,926,-140,88,9
512,-335,-53,996,-200,27,14
513,-290,-147,911,-205,-20,19
514,248,-198,989,-176,-52,-5
515,322,-123,1057,-89,-8,4
516,132,78,952,-14,37,11
517,-178,177,1035,-38,48,15
518,-356,91,898,-117,16,12
519,-143,-56,999,-155,-27,-6
520,188,-168,993,-147,-50,-4
521,395,-94,1015,-66,-17,11
522,216,43,1034,-22,40,16
523,-174,93,972,-41,66,15
524,-438,56,925,-75,30,7
525,-309,-42,920,-84,-32,-5
526,71,-141,977,-80,-73,-5
527,383,-134,1046,-34,-54,-1
528,271,-31,1027,-11,-3,-5
529,32,71,990,41,38,4
530,-308,211,986,22,32,14
531,-323,69,950,-87,-13,-3
532,-120,-153,920,-110,-54,-14
533,251,-187,1001,-22,-69,-12
534,441,-101,1077,19,-25,5
535,226,37,1006,31,39,12
536,-186,147,999,22,64,12
537,-459,120,924,-29,25,5
538,-334,-4,919,-52,-38,-8
539,58,-136,989,-47,-83,-10
540,475,-165,1053,-4,-63,-1
541,412,-58,1051,29,11,6
542,66,81,1017,45,65,10
543,-363,156,946,9,59,20
544,-499,76,902,-28,1,4
545,-206,-107,932,-53,-67,-13
546,261,-191,1027,1,-89,-11
547,520,-127,1065,46,-39,3
548,333,21,1035,62,37,10
549,-123,142,993,43,76,16
550,-474,141,928,-4,45,9
551,-426,9,910,-32,-27,-9
552,-30,-129,978,-22,-83,-11
553,439,-165,1060,18,-77,-1
554,469,-72,1044,48,-3,5
555,148,76,1027,56,59,7
556,-296,153,972,15,68,13
557,-499,95,895,-27,19,4
558,-277,-42,939,-52,-51,-8
559,193,-145,1030,-26,-88,-8
560,492,-128,1058,16,-45,1
561,358,5,1038,40,27,7
562,-44,116,1008,13,73,12
563,-416,113,922,-34,55,9
564,-444,22,904,-51,-12,-5
565,-103,-102,982,-47,-72,-6
566,368,-132,1058,-6,-78,-2
567,186,1312,1598,-879,-24,32
568,7,-658,-58,-1266,-29,-2
569,-141,420,505,885,4,56
570,-350,384,270,276,-40,3
571,-62,527,816,203,-34,-164
572,366,182,993,-62,-131,12
573,542,466,776,18,-9,133
574,0,778,1371,-98,103,66
575,-175,420,1014,-366,26,-59
576,77,84,572,-332,16,-105
577,2,526,1112,-115,53,-61
578,-189,-606,1115,-541,47,36
579,182,-661,1094,-136,-9,51
580,-18,-582,922,-84,49,-15
581,-105,-774,724,-27,18,19
582,-189,-88,940,123,14,71
583,-507,26,1029,65,-12,-49
584,-13,101,963,92,-83,-68
585,308,470,1152,77,-85,28
586,503,319,987,-13,-32,25
587,414,351,1106,-48,53,9
588,-206,78,1043,-124,103,-9
589,-395,-109,883,-103,43,20
590,-451,-231,881,-86,-7,28
591,-73,-517,869,-48,-65,-11
592,369,-394,1112,39,-66,-13
593,355,-122,1040,70,-2,4
594,163,210,1007,79,46,13
595,-261,405,969,32,54,26
596,-453,274,911,-30,9,3
597,-208,51,1024,-56,-54,-23
598,247,-157,1008,-65,-79,-10
599,518,-230,1042,-38,-31,14
600,321,-174,1015,-10,45,18
601,-190,-61,970,12,85,16
602,-520,65,919,13,42,8
603,-411,43,872,4,-33,-1
604,-10,-17,1014,1,-90,-10
605,486,-88,1095,3,-77,-11
606,486,-12,1073,12,6,3
607,168,112,1020,5,68,16
608,-297,136,939,-17,76,31
609,-552,45,887,-38,23,8
610,-312,-155,928,-33,-50,-22
611,163,-220,1022,-2,-90,-14
612,530,-174,1055,35,-52,6
613,410,-25,1025,62,29,13
614,-54,119,995,77,82,14
615,-438,176,945,64,55,17
616,-470,97,889,28,-13,0
617,-122,-95,971,6,-74,-15
618,373,-242,1050,39,-86,-10
619,490,-181,1036,118,-16,4
620,242,-25,997,167,52,12
621,-197,101,966,171,73,29
622,-504,104,904,120,34,20
623,-410,-51,917,70,-38,-15
624,-38,-366,887,141,-100,-18
625,440,-105,1181,298,-93,9
626,453,43,1093,148,-12,8
627,149,141,954,99,50,-1
628,-222,292,1001,87,62,0
629,-446,262,961,-12,16,1
630,-193,45,981,-92,-49,3
631,129,-63,289,-45,-33,6
632,-289,427,1064,-245,-4,27
633,473,-727,386,-270,-136,28
634,448,-266,526,364,23,25
635,-125,153,1533,240,71,-22
636,441,-540,675,-163,15,36
637,-433,9,878,124,113,44
638,-331,394,1323,201,3,-63
639,93,167,778,-159,-31,36
640,-311,505,1057,134,2,3
641,282,111,1010,-202,-59,-10
642,-64,-249,997,-181,11,13
643,108,-342,900,-61,-18,-21
644,292,-276,1097,8,-6,24
645,43,-117,902,45,40,35
646,-58,41,1049,73,45,-1
647,-386,127,965,48,31,-1
648,-276,171,906,37,-27,-2
649,35,71,1041,-21,-63,-2
650,347,-112,992,-59,-44,1
651,396,-107,1099,-10,9,-1
652,166,12,1034,16,57,11
653,-224,126,958,-8,73,29
654,-460,67,900,-54,30,13
655,-364,-109,910,-76,-34,-11
656,28,-223,981,-33,-78,-19
657,492,-166,1049,42,-65,-1
658,481,7,1047,63,14,17
659,108,137,1049,42,79,14
660,-397,188,951,0,77,13
661,-544,135,914,-26,8,2
662,-235,-64,917,-76,-65,-8
663,247,-246,1010,-50,-88,-8
664,549,-239,1059,17,-36,-1
665,360,-45,1046,70,43,8
666,-98,147,998,61,80,24
667,-470,210,914,11,51,22
668,-503,71,911,-45,-19,-7
669,-86,-117,978,-50,-84,-21
670,422,-162,1065,3,-86,-4
671,544,-93,1054,22,-13,10
672,219,24,1031,31,64,14
673,-310,117,965,12,77,18
674,-557,98,896,-7,20,7
675,-346,-37,898,-36,-59,-9
676,140,-165,1028,-16,-97,-11
677,535,-169,1072,24,-62,-2
678,417,-17,1044,61,21,3
679,-3,136,1023,55,68,15
680,-411,168,913,4,52,22
681,-515,54,895,-29,-12,-5
682,-160,-140,962,-49,-82,-20
683,342,-202,1056,15,-93,-6
684,533,-109,1044,45,-31,7
685,277,33,1030,67,48,12
686,-214,131,983,33,72,17
687,-528,127,905,7,26,8
688,-367,0,926,-25,-49,-10
689,74,-144,998,-18,-94,-10
690,500,-169,1072,32,-67,-1
691,433,254,1192,38,10,7
692,77,358,586,-1711,65,-6
693,-764,355,1068,357,147,-85
694,-272,-246,-439,-21,-167,111
695,-184,1047,1155,559,-70,33
696,214,326,772,-319,-81,-98
697,1035,88,679,-10,-133,82
698,436,830,1205,-47,157,66
699,-119,489,938,-276,148,-68
700,-183,-205,1064,-253,59,-96
701,-473,-107,891,-140,92,3
702,-482,-629,930,-184,-39,39
703,45,-730,979,-76,-64,-24
704,368,-339,992,40,-36,13
705,156,-118,940,70,2,13
706,-21,171,1010,94,29,10
707,-381,329,971,40,29,2
708,-148,237,1000,3,-55,-18
709,231,216,1074,-33,-54,2
710,387,28,1054,-74,-11,13
711,238,-80,1034,-71,36,4
712,-178,-110,962,-56,74,15
713,-435,-153,858,-42,32,16
714,-321,-216,873,-14,-39,4
715,-2,-220,1008,20,-67,-7
716,405,-105,1100,45,-60,-4
717,377,117,1062,48,3,9
718,83,277,1013,19,55,18
719,-300,254,947,-28,48,21
720,-457,48,905,-62,-3,-2
721,-149,-183,971,-54,-60,-18
722,279,-282,1022,-25,-77,-1
723,471,-233,1030,9,-23,14
724,227,-43,1029,35,45,14
725,-225,121,970,33,63,17
726,-489,173,908,10,20,12
727,-346,73,920,-12,-50,-5
728,91,-67,1031,-19,-94,-14
729,507,-137,1092,-10,-63,-4
730,443,-57,1039,4,16,10
731,49,61,1006,4,68,23
732,-387,100,925,-14,60,28
733,-543,8,873,-23,-1,1
734,-225,-123,962,-12,-75,-20
735,301,-177,1049,3,-96,-7
736,556,-106,1055,23,-38,10
737,337,47,1038,34,41,13
738,-145,150,995,18,78,21
739,-511,154,913,-7,40,18
740,-424,4,898,-28,-34,-6
741,-15,-154,998,-15,-89,-14
742,469,-223,1058,15,-76,-2
743,474,-131,1009,65,-1,9
744,140,36,1001,124,61,18
745,-309,141,970,101,64,28
746,-530,65,872,66,13,7
747,-279,-90,940,73,-59,-20
748,203,-176,1027,120,-95,-14
749,517,-158,1041,170,-52,4
750,364,-20,1005,206,25,13
751,-40,116,1040,190,70,15
752,-430,48,898,115,53,9
753,-445,43,965,124,-13,-10
754,-98,-218,535,48,-68,-8
755,112,-439,472,922,-5,-8
756,342,709,1606,808,-108,6
757,504,24,613,-160,8,40
758,-78,-172,1014,-20,108,-27
759,22,67,895,269,38,5
760,-281,117,1136,-27,45,56
761,-271,-133,910,-52,14,-41
762,264,-31,941,67,-32,17
763,-32,224,1102,125,13,23
764,141,19,962,-20,3,-8
765,-253,-16,984,-7,37,12
766,-154,-90,943,-12,-13,-4
767,123,-194,999,-26,-32,8
768,225,-86,991,63,-14,11
769,249,31,1078,56,19,5
770,-96,143,1028,49,55,12
771,-313,186,908,8,30,9
772,-294,72,991,-53,-14,3
773,-36,-140,910,-96,-52,-3
774,319,-213,1052,-31,-51,-7
775,397,-97,1055,22,0,10
776,177,79,1032,26,52,20
777,-256,160,986,-17,70,18
778,-477,103,890,-53,23,6
779,-321,-38,929,-72,-43,-10
780,130,-170,980,-46,-84,-7
781,519,-166,1060,7,-52,6
782,408,-45,1061,38,26,6
783,6,103,1025,38,78,14
784,-423,186,946,0,62,20
785,-500,92,876,-50,-3,3
786,-189,-108,924,-74,-71,-14
787,310,-202,1053,-14,-90,-11
788,540,-128,1071,27,-31,5
789,304,39,1045,42,45,10
790,-170,166,1001,11,77,23
791,-524,160,910,-42,39,14
792,-437,3,891,-80,-35,-13
793,12,-142,985,-61,-95,-12
794,496,-169,1080,-9,-79,1
795,490,-80,1042,11,2,6
796,99,79,1045,32,66,11
797,-365,163,947,-13,63,21
798,-540,107,875,-51,5,8
799,-269,-69,918,-80,-70,-14
800,251,-181,1044,-33,-102,-12
801,536,-139,1069,15,-49,2
802,370,12,1038,45,29,5
803,-98,139,1012,20,72,18
804,-487,144,901,-32,44,16
805,-459,20,906,-59,-28,-10
806,-52,-134,976,-60,-92,-15
807,453,-166,1062,-3,-88,-2
808,501,-65,1053,24,-10,5
809,167,77,1042,31,57,9
810,-316,151,965,-21,67,19
811,-530,114,895,-57,11,5
812,-279,-41,935,-97,-61,-10
813,201,-165,1024,-73,-96,-10
814,521,-142,1066,-16,-54,2
815,373,-1,1044,9,24,8
816,-63,593,1279,-61,78,24
817,-534,383,570,-2435,52,4
818,-678,218,1028,339,26,-79
819,126,-202,-558,-62,-222,108
820,194,1175,871,679,-98,11
821,734,588,680,-329,-43,-107
822,765,38,320,-279,-18,79
823,-24,863,1222,-113,241,40
824,-584,-155,1225,-347,103,-40
825,-358,-339,616,-169,-13,9
826,-284,-408,1106,-129,8,28
827,191,-913,803,-85,-67,-6
828,344,-318,1142,89,-31,19
829,-154,-41,926,66,57,-12
830,-91,207,924,92,-15,1
831,-316,519,969,52,-12,24
832,-13,209,1010,-50,-53,-17
833,375,194,1198,-43,-63,-10
834,371,23,998,-104,8,9
835,204,-99,998,-79,68,26
836,-310,-114,928,-75,62,36
837,-527,-263,855,-60,27,0
838,-279,-263,934,-8,-46,-16
839,172,-167,989,23,-95,1
840,510,-36,1092,41,-42,7
841,334,180,1071,34,32,5
842,-100,270,1016,-1,65,10
843,-396,247,933,-47,42,19
844,-378,1,876,-77,-22,2
845,-37,-268,992,-63,-72,-16
846,384,-335,1061,-21,-62,-7
847,414,-201,1030,17,0,11
848,145,38,996,39,54,22
849,-319,180,946,21,64,26
850,-520,153,915,-6,7,0
851,-251,30,965,-19,-64,-19
852,239,-88,1038,-25,-92,-11
853,556,-140,1063,-16,-45,6
854,363,-43,1055,0,40,13
855,-111,44,978,-5,82,20
856,-471,104,912,-14,47,23
857,-468,0,862,-23,-21,1
858,-99,-149,990,-12,-83,-18
859,406,-189,1092,8,-86,-12
860,505,-83,1049,23,-12,7
861,230,104,1024,29,56,19
862,-241,175,974,-1,73,29
863,-536,119,893,-28,27,12
864,-351,-58,927,-30,-48,-19
865,118,-187,1021,-16,-92,-16
866,513,-205,1042,11,-58,5
867,442,-88,942,62,25,14
868,37,-105,675,233,91,25
869,-541,156,980,597,61,25
870,-490,278,1144,484,-38,1
871,-81,-70,1035,161,-81,-22
872,505,-342,970,160,-74,-20
873,640,-260,918,391,-3,22
874,180,-34,977,601,83,27
875,-341,114,981,631,92,22
876,-634,133,920,547,28,18
877,-453,-15,941,427,-56,-19
878,129,-235,1014,375,-113,-31
879,596,-434,898,573,-73,-12
880,493,72,1166,759,18,-8
881,18,375,1229,510,78,13
882,-451,404,1000,184,70,24
883,-532,220,887,46,-4,-8
884,-128,-34,968,37,-79,-19
885,386,-164,1037,99,-86,-7
886,549,-161,1055,158,-15,1
887,251,-42,1041,174,63,12
888,-293,70,981,130,85,20
889,-573,73,899,74,28,5
890,-353,-20,905,50,-54,-8
891,145,-92,1001,90,-96,-11
892,561,-64,1070,143,-58,-7
893,430,78,1086,161,28,2
894,-18,197,1046,107,80,13
895,-437,196,937,10,60,17
896,-507,21,878,-56,-9,-2
897,-132,-179,937,-39,-77,-11
898,362,-213,1043,57,-86,-6
899,519,-81,1063,112,-20,1
900,242,96,1057,102,55,8
901,-253,202,984,38,75,15
902,-532,174,911,-25,25,3
903,-344,19,911,-67,-51,-8
904,125,-104,999,-29,-93,-5
905,528,-115,1077,24,-59,0
906,414,-4,1066,36,24,2
907,-13,113,1031,-4,73,10
908,-428,149,917,-57,54,16
909,-497,50,882,-87,-11,0
910,-128,-101,957,-84,-79,-6
911,370,-146,1060,-16,-86,-2
912,509,-32,1071,14,-20,3
913,236,119,1056,-11,51,7
914,-236,192,982,-81,71,16
915,-527,146,912,-135,25,6
916,-320,-13,941,-181,-47,-6
917,121,-154,996,-167,-88,0
918,512,-163,1050,-97,-57,4
919,401,-10,1049,-52,21,6
920,-2,144,1054,-88,73,13
921,-414,193,952,-177,56,16
922,-485,96,912,-253,-7,2
923,-133,-75,962,-288,-74,-4
924,343,-180,1021,-232,-83,0
925,510,-107,1035,-145,-21,5
926,256,64,1055,-112,51,10
927,-211,158,1009,-185,76,18
928,-523,137,931,-269,33,11
929,-368,-7,936,-334,-40,-6
930,73,-154,984,-329,-89,-4
931,504,-186,1027,-242,-63,4
932,448,-43,1021,-154,13,8
933,58,110,1040,-142,71,13
934,-379,170,963,-212,65,18
935,-522,93,911,-281,5,5
936,-207,-78,960,-331,-68,-6
937,286,-208,1013,-292,-89,-3
938,528,-165,1009,-178,-33,6
939,325,5,1003,-97,42,9
940,-124,122,1000,-101,78,16
941,-609,1327,1532,-1110,58,39
942,-510,-503,89,-1982,-73,-95
943,154,89,28,438,-171,34
944,182,1296,454,584,-92,160
945,394,857,532,-306,-42,-138
946,982,-176,253,-161,-41,-43
947,306,859,958,-96,180,103
948,-833,254,1392,-283,185,6
949,-204,-674,649,-258,-38,-6
950,-357,-268,889,-78,41,42
951,121,-976,844,-133,-70,22
952,324,-498,1070,92,-23,7
953,-255,-48,1058,62,47,-32
954,-56,29,849,88,-15,-8
955,-188,592,1022,83,-35,52
956,6,229,995,-30,-40,-32
957,383,174,1221,-24,-46,-30
958,248,182,997,-75,16,16
959,155,-35,976,-77,54,37
960,-320,-83,919,-77,51,43
961,-491,-359,880,-61,14,-17
962,-190,-367,972,1,-48,-30
963,237,-188,953,44,-85,9
964,513,-42,1076,56,-29,20
965,236,198,1066,53,46,4
966,-222,283,1020,12,61,-4
967,-421,263,931,-26,21,13
968,-273,57,882,-62,-41,10
969,99,-257,1005,-57,-75,-16
970,436,-335,1088,-15,-41,-9
971,345,-179,1011,20,17,11
972,43,45,979,41,61,31
973,-377,157,920,21,56,33
974,-519,69,916,5,-4,-7
975,-187,-27,1002,0,-73,-29
976,326,-76,1035,0,-90,-7
977,579,-64,1053,2,-33,14
978,319,16,1040,9,52,15
979,-200,71,1003,-3,84,19
980,-519,89,899,-19,38,18
981,-419,-36,872,-23,-32,0
982,-15,-186,984,-8,-87,-16
983,463,-205,1108,16,-75,-12
984,467,-69,1033,34,1,5
985,162,131,1009,38,61,21
986,-291,195,966,4,69,34
987,-533,93,893,-24,20,9
988,-293,-75,965,-22,-53,-26
989,178,-178,1024,-11,-90,-17
990,518,-164,1039,13,-50,9
991,387,-44,1027,32,27,17
992,-49,37,998,35,76,18
993,-437,92,927,30,54,22
994,-447,18,872,24,-14,4
995,-128,-127,967,36,-76,-17
996,361,-222,994,94,-83,-15
997,469,-542,350,356,-18,0
998,46,-989,-178,1722,60,-15
999,-376,1007,1796,2564,-24,-15
1000,-348,929,1546,344,-47,24
1001,-66,-497,725,-648,-17,-51
1002,520,-424,503,125,-47,-25
1003,518,459,1311,560,-10,53
1004,65,412,1245,137,81,-5
1005,-267,147,800,-6,85,-3
1006,-664,155,866,105,35,25
1007,-359,-86,1002,73,-73,-8
1008,146,-366,967,58,-106,-18
1009,548,-329,1024,174,-66,-4
1010,541,-109,1076,221,17,14
1011,36,144,1041,203,85,18
1012,-464,291,978,127,74,10
1013,-547,231,942,30,0,5
1014,-185,37,936,-21,-69,-8
1015,373,-157,1021,2,-88,-9
1016,570,-154,1075,67,-23,4
1017,305,-14,1061,78,59,11
1018,-226,86,988,37,93,19
1019,-550,99,884,-10,44,16
1020,-426,-15,915,-26,-35,-4
1021,41,-136,983,2,-88,-13
1022,522,-108,1061,54,-71,-3
1023,498,40,1087,76,14,9
1024,111,173,1043,18,80,14
1025,-402,198,961,-44,78,18
1026,-551,76,889,-93,11,4
1027,-229,-117,913,-85,-63,-8
1028,272,-229,1002,-24,-89,-6
1029,544,-165,1078,37,-34,4
1030,320,34,1061,44,46,8
1031,-158,179,994,-3,79,17
1032,-495,204,916,-53,42,14
1033,-417,59,904,-90,-28,-5
1034,6,-123,983,-74,-84,-12
1035,464,-171,1055,-14,-73,-3
1036,454,-45,1065,17,6,7
1037,117,94,1046,-13,63,13
1038,-358,152,953,-69,68,19
1039,-520,90,904,-107,8,3
1040,-232,-60,935,-124,-63,-8
1041,250,-152,1021,-94,-90,-5
1042,530,-109,1072,-52,-39,3
1043,341,51,1069,-43,38,7
1044,-125,179,1019,-97,78,16
1045,-476,188,943,-182,46,15
1046,-435,44,917,-254,-26,-1
1047,-38,-136,971,-262,-85,-8
1048,441,-208,1036,-197,-78,-1
1049,489,-89,1041,-124,-2,8
1050,175,87,1041,-114,63,13
1051,-304,183,986,-175,75,19
1052,-542,149,921,-252,21,8
1053,-307,-18,938,-316,-56,-9
1054,173,-168,1004,-299,-94,-6
1055,523,-173,1028,-214,-54,4
1056,410,-31,1025,-142,26,8
1057,-9,106,1014,-139,75,16
1058,-420,158,938,-193,59,20
1059,-503,55,894,-239,-9,2
1060,-237,804,1366,-460,-78,2
1061,139,-297,-21,-2542,-189,-13
1062,451,479,1074,650,-35,33
1063,261,351,13,330,0,89
1064,-66,878,224,28,-14,-88
1065,66,546,888,-8,51,-135
1066,-9,364,336,-92,-6,71
1067,-56,835,1233,-176,35,75
1068,125,-116,1276,-328,18,-20
1069,399,-228,757,-149,32,-2
1070,-119,-407,1136,-169,76,75
1071,-381,-800,643,-116,52,30
1072,-464,-407,941,42,3,-10
1073,-309,-433,942,35,-68,-38
1074,395,-79,1042,125,-104,-6
1075,391,400,1117,101,-28,6
1076,275,412,1029,44,21,-12
1077,-104,580,1078,-16,56,10
1078,-404,282,894,-110,24,10
1079,-176,-131,964,-124,-35,3
1080,84,-379,991,-92,-48,6
1081,345,-483,1013,-42,-30,-2
1082,264,-262,1014,23,22,14
1083,-93,4,933,46,58,30
1084,-387,157,942,41,32,11
1085,-395,160,948,16,-26,-13
1086,-18,68,1015,-9,-79,-18
1087,430,0,1070,-15,-74,-4
1088,489,-37,1033,-26,-1,15
1089,178,-16,1034,-18,68,18
1090,-312,13,949,-22,74,20
1091,-540,-26,876,-20,20,11
1092,-314,-142,918,-12,-53,-9
1093,140,-203,1012,11,-92,-14
1094,514,-137,1086,35,-53,-3
1095,412,56,1040,42,22,9
1096,16,213,1014,24,71,22
1097,-406,224,939,-17,58,23
1098,-502,62,914,-41,-7,-5
1099,-142,-140,975,-42,-73,-17
1100,335,-235,1039,-21,-84,-5
1101,520,-178,1028,10,-23,9
1102,270,-28,1011,31,51,18
1103,-204,100,986,25,78,24
1104,-520,132,907,10,34,14
1105,-387,27,926,-6,-41,-8
1106,40,-97,1025,-4,-89,-17
1107,488,-136,1071,4,-68,-4
1108,452,-50,1021,22,7,10
1109,119,54,999,29,65,21
1110,-326,91,939,23,67,29
1111,-529,23,904,13,13,6
1112,-252,-136,943,18,-59,-18
1113,206,-212,1001,73,-88,-13
1114,524,-171,1034,141,-46,5
1115,487,-367,765,294,37,10
1116,23,24,1089,592,101,-1
1117,-486,267,1151,306,77,14
1118,-563,90,872,37,1,11
1119,-298,-153,500,178,-73,-26
1120,196,-1001,-325,1249,-84,-40
1121,267,1119,1798,2278,-125,-27
1122,387,911,1435,-55,-53,58
1123,95,-383,296,-881,72,36
1124,56,-353,711,64,73,-57
1125,-30,70,1100,280,17,38
1126,-237,-32,1200,37,26,25
1127,3,-267,745,49,-1,-34
1128,-35,106,932,317,2,26
1129,-119,194,1119,218,-17,18
1130,-144,39,968,90,-20,-26
1131,-87,-13,994,92,-33,-17
1132,248,-56,1002,73,-54,13
1133,371,-30,1037,89,-11,18
1134,160,27,1053,92,44,-5
1135,-133,86,1036,64,58,5
1136,-398,127,908,43,29,14
1137,-310,4,926,-6,-23,3
1138,16,-201,963,-22,-63,-5
1139,349,-217,1027,55,-51,-8
1140,413,-32,1075,115,2,3
1141,167,168,1021,94,53,20
1142,-274,262,996,30,71,19
1143,-497,154,940,-53,23,-3
1144,-286,-61,929,-78,-47,-10
1145,159,-180,972,-28,-82,-3
1146,536,-174,1056,17,-47,7
1147,380,-55,1061,24,35,8
1148,-47,101,1020,18,80,9
1149,-446,195,937,-17,55,15
1150,-473,116,891,-55,-10,6
1151,-112,-81,937,-69,-72,-6
1152,349,-183,1039,-9,-78,-9
1153,511,-97,1072,35,-17,3
1154,261,73,1042,32,50,12
1155,-225,175,984,-15,79,20
1156,-535,118,906,-67,35,8
1157,-371,-45,909,-65,-40,-10
1158,96,-159,977,-20,-88,-5
1159,520,-147,1062,30,-62,4
1160,421,-21,1054,42,18,8
1161,13,132,1038,30,72,10
1162,-424,200,951,-22,59,15
1163,-482,92,880,-60,-8,3
1164,-136,-96,942,-60,-70,-8
1165,331,-206,1036,-8,-81,-7
1166,507,-128,1066,37,-22,3
1167,270,62,1057,46,47,12
1168,-204,172,982,-12,77,22
1169,-516,152,904,-54,35,10
1170,-375,3,925,-72,-40,-10
1171,69,-145,986,-50,-87,-6
1172,512,-161,1053,3,-66,1
1173,452,-38,1068,20,15,8
1174,57,99,1037,-4,74,12
1175,-407,165,947,-48,67,15
1176,-513,100,900,-79,1,3
1177,-180,-75,941,-103,-67,-6
1178,307,-190,1024,-65,-85,-7
1179,525,-123,1073,-15,-29,2
1180,309,52,1063,-7,46,11
1181,-169,174,996,-57,82,20
1182,-498,172,928,-119,45,13
1183,-409,23,922,-169,-30,-5
1184,-15,146,1082,-187,-86,-9
1185,-44,1198,1836,-2095,-158,43
1186,406,-1157,-271,-2723,-148,95
1187,328,244,293,1292,77,53
1188,-292,1440,752,654,-28,-93
1189,165,809,1070,-99,7,-156
1190,18,135,720,-761,-16,63
1191,14,544,772,-203,12,142
1192,226,417,1603,-363,26,74
1193,201,-449,663,-410,41,-69
1194,127,-562,921,-158,57,38
1195,-534,-489,863,-93,81,87
1196,-427,-620,850,-15,-16,-25
1197,-257,-362,998,73,-62,-38
1198,267,19,1031,116,-96,-3
1199,420,292,1118,98,-55,10
1200,148,459,995,68,5,-5
1201,-4,457,994,-32,34,-26
1202,-227,276,1006,-98,31,-11
1203,-89,3,949,-123,-11,24
1204,142,-245,1035,-110,-19,23
1205,149,-413,992,-74,3,-8
1206,122,-286,999,-11,27,9
1207,-207,-36,946,19,39,25
1208,-309,79,914,17,4,-5
1209,-204,71,971,4,-37,-11
1210,96,46,1025,-9,-66,-10
1211,425,10,1078,-18,-45,-2
1212,336,44,1023,-25,22,14
1213,24,69,1019,-34,64,15
1214,-371,29,944,-47,55,9
1215,-429,-68,897,-46,0,-2
1216,-125,-193,945,-30,-58,-9
1217,274,-228,1005,2,-68,-6
1218,440,-118,1069,29,-17,1
1219,235,87,1041,40,43,10
1220,-165,236,991,20,69,18
1221,-417,208,922,-22,34,9
1222,-329,10,935,-44,-26,-11
1223,47,-178,992,-40,-67,-15
1224,420,-234,1044,-7,-50,-3
1225,410,-120,1030,23,16,14
1226,84,40,1001,38,74,21
1227,-353,142,954,29,72,15
1228,-477,108,907,17,12,-1
1229,-214,-30,935,8,-51,-13
1230,229,-158,1020,25,-75,-10
1231,509,-188,1024,81,-30,3
1232,326,-53,1007,164,42,13
1233,-92,72,990,194,77,24
1234,-434,121,926,186,51,23
1235,-446,22,928,132,-11,-3
1236,-116,-171,963,79,-71,-21
1237,354,-257,1019,128,-79,-12
1238,549,-478,798,282,-16,11
1239,254,-50,1062,666,60,16
1240,-241,348,1220,440,74,20
1241,-571,262,956,73,36,19
1242,-419,161,875,13,-44,-11
1243,108,90,1068,41,-103,-23
1244,555,-13,1095,19,-69,-3
1245,502,0,1037,19,19,7
1246,73,37,1038,12,82,16
1247,-421,24,923,-34,75,25
1248,-563,-87,870,-42,6,2
1249,-240,-238,910,-21,-68,-16
1250,291,-238,1024,77,-94,-8
1251,537,-80,1060,137,-38,5
1252,301,122,1036,148,41,3
1253,-152,262,1010,110,70,14
1254,-490,260,953,31,33,14
1255,-354,35,947,-58,-36,-7
1256,65,-197,973,-46,-78,-12
1257,463,-231,1046,33,-57,-2
1258,401,-117,1021,76,12,8
1259,15,28,1007,91,65,15
1260,-391,123,938,62,52,17
1261,-478,74,926,25,-7,-2
1262,-123,-66,949,5,-70,-13
1263,344,-105,1041,59,-79,-5
1264,498,-38,1058,84,-20,4
1265,236,77,1034,89,50,7
1266,-227,153,995,52,71,15
1267,-498,97,924,-10,26,9
1268,-322,-89,923,-46,-42,-9
1269,103,-219,974,1,-81,-10
1270,484,-179,1058,70,-53,-1
1271,378,-5,1033,103,17,5
1272,0,161,1029,90,66,12
1273,-397,216,961,26,51,15
1274,-452,92,923,-40,-9,-2
1275,-102,-102,961,-55,-69,-11
1276,343,-186,1028,-5,-75,-4
1277,480,-116,1048,34,-17,5
1278,213,41,1037,49,50,8
1279,-237,142,986,6,69,16
1280,-504,114,909,-34,25,7
1281,-319,-25,932,-56,-43,-7
1282,106,-146,995,-25,-85,-7
1283,494,-147,1057,17,-55,0
1284,394,4,1045,46,18,6
1285,10,147,1038,16,68,12
1286,-397,161,936,-43,55,16
1287,-476,54,896,-65,-4,0
1288,-133,-117,957,-67,-70,-10
1289,328,-204,1021,-14,-81,-4
1290,495,-111,1051,38,-23,6
1291,253,58,1035,50,46,9
1292,-198,157,996,-1,72,15
1293,-504,142,906,-39,31,10
1294,-347,0,934,-61,-39,-5
1295,76,-160,979,-37,-83,-8
1296,500,-166,1053,21,-59,1
1297,419,-16,1056,43,15,9
1298,-387,1401,1637,-729,12,23
1299,-705,-796,-127,-3125,-201,113
1300,-38,437,694,1042,-2,119
1301,-164,756,-10,358,-67,-74
1302,686,1075,917,235,-171,-205
1303,1130,200,1122,-548,12,-36
1304,256,467,430,-249,136,152
1305,-103,888,1404,-211,155,62
1306,-820,-464,1055,-435,134,-67
1307,-449,-504,509,-166,0,20
1308,-238,-713,1151,-123,-85,55
1309,381,-907,743,-36,-53,-34
1310,407,-274,1200,105,-12,-2
1311,-71,24,949,68,30,-5
1312,-176,508,1007,104,29,11
1313,-463,545,928,5,-13,9
1314,21,239,1024,-44,-78,-23
1315,368,43,1109,-83,-50,-4
1316,436,-158,998,-81,-6,10
1317,233,-167,1021,-55,61,30
1318,-354,-121,922,-38,85,33
1319,-536,-146,909,-20,19,-8
1320,-304,-154,925,5,-46,-14
1321,151,-106,975,27,-82,-7
1322,546,-25,1088,37,-55,0
1323,359,125,1056,33,31,7
1324,-44,225,1044,6,71,9
1325,-407,190,933,-30,46,18
1326,-418,-13,886,-55,-7,3
1327,-43,-262,963,-42,-63,-14
1328,339,-318,1020,2,-62,-7
1329,425,-179,1046,39,-5,6
1330,172,52,1018,51,49,20
1331,-275,211,971,34,66,21
1332,-474,179,933,1,18,-2
1333,-254,23,959,-20,-48,-14
1334,177,-121,1000,-23,-78,-8
1335,515,-177,1062,-7,-40,4
1336,342,-83,1038,8,32,12
1337,-59,43,1005,14,76,17
1338,-446,118,938,3,52,15
1339,-443,39,889,-12,-12,-2
1340,-79,-98,978,-12,-68,-14
1341,360,-177,1041,6,-72,-9
1342,492,-104,1057,34,-12,8
1343,237,46,1019,53,56,18
1344,-226,128,974,52,81,23
1345,-498,75,880,60,37,6
1346,-353,-37,934,84,-33,-14
1347,70,-169,991,87,-79,-11
1348,482,-222,1017,132,-60,1
1349,418,-98,1015,210,15,10
1350,70,73,1019,248,70,15
1351,-367,157,966,203,66,18
1352,-495,103,905,147,8,5
1353,-235,-56,962,83,-61,-9
1354,239,-148,1070,74,-91,-7
1355,517,-34,1128,16,-38,4
1356,340,-12,916,38,34,4
1357,-54,221,1064,104,73,6
1358,-452,212,972,-29,54,13
1359,-459,7,881,-93,-13,0
1360,-102,-158,980,-51,-78,-13
1361,395,-218,1064,-3,-83,-1
1362,486,-175,1003,23,-11,16
1363,218,14,1028,75,54,8
1364,-220,116,987,24,76,8
1365,-524,116,882,-5,32,10
1366,-352,57,949,-21,-46,-2
1367,105,-80,1032,-34,-91,-9
1368,483,-125,1068,3,-58,3
1369,414,-28,1016,28,12,11
1370,70,81,1022,20,70,6
1371,-359,66,917,-37,69,11
1372,-495,19,895,-27,3,7
1373,-205,-91,996,-36,-64,-7
1374,282,-167,1030,2,-84,-7
1375,471,-90,1056,46,-31,11
1376,271,55,1006,46,37,13
1377,-123,134,993,10,70,4
1378,-455,100,909,-33,38,7
1379,-343,14,939,-42,-31,4
1380,39,-115,1018,-42,-77,-7
1381,415,-161,1056,7,-57,-1
1382,389,-66,1017,26,8,13
1383,56,70,1014,35,60,10
1384,-316,74,924,-21,59,8
1385,-454,35,904,-20,2,5
1386,-174,-57,992,-31,-63,-5
1387,277,-134,1048,1,-79,-7
1388,448,-78,1052,31,-24,8
1389,260,52,1009,35,38,9
1390,-133,116,991,-4,69,6
1391,-456,69,893,-41,37,7
1392,-343,-11,944,-35,-31,0
1393,42,-140,1013,-36,-77,-8
1394,420,-164,1052,16,-57,1
1395,382,-37,1025,44,8,11
1396,62,97,1012,36,60,7
1397,-319,104,935,-22,60,8
1398,-459,64,902,-24,1,6
1399,-180,-40,998,-42,-61,-6
1400,277,-155,1045,-16,-80,-7
1401,451,-101,1042,31,-24,9
1402,265,39,1020,38,38,11
1403,-246,739,1336,-176,51,5
1404,-892,220,481,-1513,-82,33
1405,-338,-215,1063,230,-116,85
1406,145,-333,299,86,-141,48
1407,436,392,936,199,-106,-71
1408,873,439,1009,77,-30,-167
1409,344,298,648,-49,56,-20
1410,-113,682,993,-51,124,70
1411,-453,679,1158,-217,79,20
1412,-278,-108,1032,-274,24,-35
1413,110,-331,1061,-191,-24,26
1414,136,-630,886,-150,-11,39
1415,78,-600,961,-55,16,-1
1416,-199,-312,860,19,33,17
1417,-368,-92,971,41,-9,1
1418,-184,105,960,49,-59,-37
1419,176,228,1065,23,-86,-19
1420,440,305,1084,-5,-52,3
1421,371,330,1064,-60,17,12
1422,-36,150,1001,-110,68,12
1423,-373,-20,942,-118,44,15
1424,-398,-232,894,-106,-10,5
1425,-72,-370,951,-65,-62,-12
1426,337,-314,1022,-15,-66,-10
1427,364,-117,1041,20,-5,3
1428,114,136,1018,29,43,8
1429,-276,273,971,2,49,16
1430,-418,205,927,-37,1,3
1431,-166,-19,982,-59,-59,-14
1432,228,-186,1024,-53,-74,-12
1433,464,-201,1045,-32,-30,4
1434,281,-92,1003,-8,35,17
1435,-158,36,972,1,71,22
1436,-469,96,926,-8,34,9
1437,-382,12,928,-20,-34,-13
1438,24,-75,994,-16,-82,-16
1439,452,-117,1064,-7,-67,-7
1440,451,-58,1044,3,5,9
1441,122,67,1022,3,65,19
1442,-338,119,946,-9,67,24
1443,-511,49,912,-26,11,6
1444,-237,-108,954,-26,-59,-17
1445,217,-183,1018,-11,-83,-18
1446,520,-140,1062,10,-39,-1
1447,356,5,1020,24,35,17
1448,-88,124,997,14,79,26
1449,-467,138,934,-7,51,17
1450,-438,10,920,-22,-18,-8
1451,-49,-123,989,-20,-75,-16
1452,407,-180,1044,-4,-71,-9
1453,478,-109,1037,15,-3,8
1454,192,27,1013,29,60,19
1455,-273,119,969,19,77,29
1456,-510,91,910,1,27,10
1457,-293,-52,948,-9,-42,-15
1458,139,-146,1023,0,-79,-16
1459,492,-139,1054,17,-47,-2
1460,387,-18,1026,33,26,13
1461,0,82,998,31,78,27
1462,-397,122,944,15,64,24
1463,-455,19,915,2,3,-3
1464,-119,-106,983,5,-57,-18
1465,325,-153,1045,19,-66,-9
1466,473,-93,1040,33,-8,5
1467,254,25,1016,44,58,17
1468,-173,103,975,41,85,28
1469,-471,90,921,22,48,17
1470,-348,-44,925,11,-18,-12
1471,15,-159,1007,24,-64,-18
1472,419,-161,1055,41,-51,-4
1473,415,-97,985,73,13,11
1474,110,-24,957,124,67,22
1475,-277,5,905,195,68,31
1476,-413,-499,580,347,20,15
1477,-277,-66,1159,684,-43,-4
1478,141,110,1322,256,-83,-8
1479,380,-89,922,18,-33,-2
1480,178,285,1018,253,11,-4
1481,-62,496,1133,132,11,1
1482,-226,319,878,-69,19,-2
1483,-188,183,940,-91,2,2
1484,68,-49,1135,-147,-39,27
1485,351,-277,982,-111,-26,10
1486,242,-238,1017,-12,33,-6
1487,-10,-199,950,-15,59,29
1488,-333,-111,861,25,43,40
1489,-510,-33,949,58,-2,-13
1490,-176,-104,963,24,-75,-28
1491,265,-16,1054,99,-94,2
1492,463,73,1124,78,-45,12
1493,297,156,933,44,16,18
1494,17,316,1035,38,60,-13
1495,-311,182,993,-93,62,-24
1496,-358,-64,892,-117,0,16
1497,-102,-124,1026,-45,-47,15
1498,257,-269,1037,-64,-50,-14
1499,374,-274,935,5,-8,8
1500,87,-19,1023,85,42,23
1501,-264,85,973,34,45,6
1502,-410,52,898,2,5,-4
1503,-191,53,973,17,-56,0
1504,243,8,1081,3,-78,-1
1505,449,-35,1037,-11,-27,7
1506,284,85,1015,20,35,12
1507,-53,124,1025,-32,66,6
1508,-429,9,895,-77,50,11
1509,-404,-85,921,-55,-16,4
1510,-62,-213,986,-42,-70,-8
1511,378,-232,1021,30,-67,-4
1512,413,-50,1033,79,-6,12
1513,39,811,1396,-74,34,6
1514,-645,228,389,-1661,-60,13
1515,-520,-190,1018,9,-82,80
1516,27,352,558,111,-109,27
1517,263,50,347,-18,-97,-86
1518,903,118,1219,-48,-60,-118
1519,542,107,899,-76,41,66
1520,-61,586,956,-78,142,84
1521,-692,126,1283,-208,86,-25
1522,-563,-307,686,-156,-17,-6
1523,-194,-307,1057,-106,-77,15
1524,419,-629,895,-72,-111,-13
1525,558,-265,1054,37,-17,14
1526,4,42,1035,46,57,1
1527,-235,230,955,32,30,2
1528,-510,404,932,4,1,16
1529,-123,121,989,-62,-75,-17
1530,353,-69,1099,-62,-81,-11
1531,445,-97,1029,-60,-14,4
1532,300,-97,1003,-41,43,16
1533,-244,11,938,-27,75,32
1534,-546,-35,911,-28,34,3
1535,-339,-118,971,-20,-45,-20
1536,93,-117,972,-2,-87,-12
1537,548,-92,1070,9,-57,0
1538,422,45,1032,16,22,14
1539,-21,147,1029,7,76,14
1540,-424,160,952,-20,58,14
1541,-463,39,892,-38,-7,3
1542,-89,-177,977,-37,-67,-12
1543,354,-259,1032,-6,-68,-11
1544,472,-153,1048,24,-10,4
1545,230,25,1006,38,54,19
1546,-229,166,968,30,79,28
1547,-517,143,932,2,34,6
1548,-323,-25,962,-14,-37,-19
1549,109,-130,1000,-8,-78,-14
1550,519,-151,1049,9,-50,3
1551,426,-77,1020,26,29,17
1552,18,38,1010,35,84,22
1553,-415,104,953,22,72,19
1554,-494,44,905,13,8,0
1555,-152,-93,960,10,-56,-15
1556,310,-172,1040,22,-69,-12
1557,504,-109,1055,42,-15,3
1558,287,23,1005,52,55,18
1559,-157,119,988,47,88,30
1560,-498,103,923,23,54,15
1561,-392,-38,933,15,-17,-14
1562,0,-146,997,19,-69,-16
1563,449,-161,1047,39,-60,0
1564,442,-70,1028,53,9,13
1565,108,45,1003,59,71,20
1566,-325,104,958,55,73,24
1567,-500,47,874,61,19,7
1568,-232,-119,913,91,-51,-12
1569,214,-214,1003,171,-81,-9
1570,570,-422,873,283,-36,4
1571,398,-95,1040,612,51,11
1572,-75,337,1247,397,91,21
1573,-521,233,972,9,69,21
1574,-585,133,796,9,-11,-7
1575,-152,196,1105,53,-97,-20
1576,448,-34,1116,-76,-102,-1
1577,570,-132,952,-27,-19,11
1578,327,44,1040,40,56,12
1579,-164,22,1040,-60,92,14
1580,-558,-100,804,-64,54,13
1581,-442,-68,941,23,-31,-2
1582,-1,-154,1025,-21,-90,-10
1583,453,-172,1022,47,-72,-1
1584,410,51,1055,97,-2,7
1585,94,182,1033,45,52,2
1586,-271,152,936,-29,60,3
1587,-432,113,919,-29,10,7
1588,-154,-22,1027,-66,-55,2
1589,258,-193,1009,-53,-64,-5
1590,401,-135,1031,24,-18,5
1591,211,-25,1013,22,36,15
1592,-189,11,954,-4,63,13
1593,-450,29,894,5,25,3
1594,-283,-11,970,-8,-40,-4
1595,106,-90,1001,-3,-80,-5
1596,437,-49,1085,43,-51,2
1597,347,55,1028,31,14,8
1598,16,126,1009,5,63,6
1599,-349,96,932,-44,56,7
1600,-419,12,912,-49,-4,6
1601,-128,-144,984,-61,-61,-6
1602,320,-221,1016,3,-71,-7
1603,429,-102,1050,53,-15,10
1604,196,48,1018,49,43,11
1605,-202,116,969,10,65,7
1606,-468,115,902,-8,25,6
1607,-289,23,969,-40,-43,-3
1608,124,-117,1006,-38,-81,-7
1609,454,-113,1069,21,-47,3
1610,367,-20,1024,18,19,12
1611,13,62,1006,11,68,8
1612,-387,70,917,-23,58,10
1613,-458,22,914,-28,-6,4
1614,-149,-103,981,-43,-68,-7
1615,332,-157,1046,14,-80,-6
1616,461,-70,1053,41,-21,9
1617,236,71,1015,45,43,9
1618,-165,131,983,-5,71,7
1619,-480,97,895,-31,33,9
1620,-323,-3,953,-49,-36,1
1621,80,-144,1004,-40,-79,-7
1622,442,-157,1060,16,-54,2
1623,377,-45,1023,33,12,13
1624,35,73,1013,31,64,8
1625,-358,84,921,-20,58,8
1626,-454,54,915,-19,-3,6
1627,-156,-59,987,-44,-65,-6
1628,311,-142,1048,0,-79,-5
1629,455,-80,1049,29,-22,9
1630,244,52,1017,36,42,10
1631,-156,101,980,-10,71,7
1632,-553,557,1055,-103,24,7
1633,-931,177,402,-1849,-254,18
1634,283,434,1114,466,-171,118
1635,419,-131,-223,145,-59,54
1636,380,665,211,190,-76,-105
1637,829,604,1110,-50,2,-246
1638,143,178,702,-97,95,-48
1639,-208,771,921,-62,149,52
1640,-370,429,1400,-296,43,23
1641,-166,-376,676,-219,17,-30
1642,191,-267,1104,-139,-1,52
1643,-129,-816,865,-129,-5,51
1644,-71,-529,932,25,22,-17
1645,-351,-294,941,53,7,-15
1646,-46,-133,849,86,-71,-9
1647,191,328,1138,108,-54,-5
1648,251,284,1061,43,-29,-14
1649,274,455,1132,20,4,-5
1650,-30,366,944,-71,54,19
1651,-236,60,933,-111,34,21
1652,-257,-232,965,-102,-5,7
1653,-66,-477,951,-69,-27,-11
1654,274,-397,1017,11,-42,-7
1655,293,-159,978,48,1,23
1656,23,100,1014,66,47,15
1657,-321,253,988,43,39,-4
1658,-370,254,955,7,-9,-5
1659,-62,107,966,-31,-63,-2
1660,334,-114,1024,-44,-65,0
1661,434,-198,1066,-27,-5,3
1662,210,-132,1032,-6,53,10
1663,-216,4,940,9,73,23
1664,-473,74,892,5,35,14
1665,-370,-32,924,-3,-32,-10
1666,26,-108,1026,3,-82,-21
1667,463,-95,1071,16,-67,-7
1668,474,12,1039,21,6,15
1669,138,122,1012,13,70,21
1670,-361,143,974,-10,77,14
1671,-530,54,903,-30,13,-1
1672,-242,-109,940,-31,-58,-11
1673,234,-223,1006,-14,-83,-7
1674,513,-202,1063,19,-38,1
1675,326,-34,1042,39,38,8
1676,-87,127,982,35,78,20
1677,-445,206,922,12,50,21
1678,-433,66,921,-15,-17,-6
1679,-59,-106,1011,-19,-73,-19
1680,391,-173,1058,-3,-73,-7
1681,487,-129,1023,17,-7,12
1682,213,5,1001,38,60,25
1683,-268,83,964,32,81,23
1684,-516,52,908,25,30,4
1685,-324,-41,933,31,-43,-10
1686,121,-145,997,48,-85,-10
1687,490,-171,1045,104,-55,0
1688,380,-52,997,156,19,12
1689,35,67,988,199,67,16
1690,-352,-44,694,246,65,18
1691,-442,-683,-81,787,22,-2
1692,-445,0,1225,1910,-84,-30
1693,367,596,1877,1198,-161,-10
1694,589,65,1225,-74,-16,17
1695,483,-278,634,-100,70,-3
1696,108,179,963,368,93,28
1697,-680,399,1083,291,93,15
1698,-534,50,930,82,-17,-20
1699,-106,-112,898,107,-77,7
1700,392,-140,1051,224,-84,-5
1701,549,-137,1080,218,-15,-6
1702,86,22,1026,236,63,8
1703,-280,127,986,164,62,15
1704,-464,88,931,65,11,10
1705,-192,-52,958,33,-53,-7
1706,275,-108,1042,78,-73,-10
1707,446,0,1054,147,-20,1
1708,256,129,1044,120,42,12
1709,-193,149,1007,44,70,17
1710,-481,67,928,-32,31,4
1711,-289,-107,924,-44,-38,-8
1712,128,-190,965,18,-76,-2
1713,472,-120,1054,88,-43,4
1714,342,24,1060,100,29,5
1715,-71,163,1019,70,70,8
1716,-416,208,938,9,46,12
1717,-407,84,914,-49,-20,2
1718,-43,-120,963,-55,-72,-6
1719,382,-193,1043,18,-67,-5
1720,453,-81,1054,70,-4,2
1721,170,82,1046,57,59,13
1722,-294,163,962,-9,70,17
1723,-524,117,910,-54,17,3
1724,-275,-42,929,-71,-56,-10
1725,189,-138,996,-19,-87,-4
1726,528,-103,1068,30,-46,4
1727,373,32,1069,33,33,7
1728,-80,144,1024,-11,78,11
1729,-454,171,915,-66,49,13
1730,-445,48,906,-100,-19,1
1731,-70,-132,953,-93,-76,-7
1732,390,-196,1038,-12,-75,-5
1733,472,-70,1062,41,-9,5
1734,187,99,1044,22,54,9
1735,-278,187,969,-43,69,17
1736,-516,141,918,-92,19,7
1737,-275,-36,940,-120,-52,-7
1738,173,-159,992,-73,-85,-4
1739,520,-137,1056,-14,-46,5
1740,358,-1,1045,8,29,8
1741,-75,130,1029,-25,72,11
1742,-451,173,940,-87,46,12
1743,-440,60,919,-141,-21,0
1744,-55,-113,954,-149,-78,-5
1745,408,-191,1033,-80,-74,-1
1746,485,-90,1042,-11,-8,7
1747,196,87,1047,1,59,9
1748,-276,177,988,-67,73,17
1749,-532,134,915,-133,24,9
1750,-317,-34,939,-173,-49,-8
1751,143,-180,978,-131,-90,-7
1752,529,-175,1039,-47,-53,4
1753,401,-18,1036,10,24,7
1754,-15,130,1037,-13,73,12
1755,-436,173,948,-81,59,16
1756,-493,73,909,-134,-10,1
1757,-123,-96,958,-150,-77,-8
1758,363,-198,1023,-88,-82,-3
1759,511,-113,1031,-6,-19,5
1760,248,59,1035,22,51,7
1761,-217,162,1000,-32,75,15
1762,-531,140,919,-93,32,10
1763,-357,-11,935,-132,-44,-7
1764,90,-161,986,-106,-87,-7
1765,498,-178,1027,-28,-62,2
1766,436,-32,1033,36,15,6
1767,37,118,1041,22,70,9
1768,-391,156,951,-51,62,13
1769,-506,73,902,-87,-1,3
1770,-167,-82,959,-98,-71,-7
1771,306,-184,1019,-45,-84,-4
1772,505,-122,1033,28,-30,5
1773,280,53,1040,53,43,7
1774,-167,151,1000,-5,72,10
1775,-645,218,753,-48,29,6
1776,-571,-173,978,-136,-103,19
1777,66,-642,1258,-262,-164,122
1778,468,-410,921,166,-85,39
1779,445,308,877,314,-38,-85
1780,487,421,1246,111,24,-103
1781,-53,267,779,-134,96,-22
1782,-417,571,897,22,73,18
1783,-233,444,1244,-180,1,20
1784,-30,-178,995,-333,-13,2
1785,330,-379,922,-165,-28,25
1786,140,-385,1016,-87,20,39
1787,-144,-371,931,-59,43,7
1788,-351,-225,884,-2,22,-3
1789,-289,-65,960,43,-35,-8
1790,72,59,992,62,-76,-18
1791,326,159,1126,80,-58,-6
1792,261,232,1005,27,-16,15
1793,110,354,1024,0,23,4
1794,-111,262,969,-125,49,-11
1795,-261,12,1007,-196,29,5
1796,-89,-199,980,-188,-20,12
1797,123,-309,976,-138,-24,-2
1798,231,-303,954,-55,-8,4
1799,126,-94,970,44,23,23
1800,-235,113,1011,48,42,2
1801,-334,113,955,-15,4,-17
1802,-157,75,953,-28,-45,-2
1803,171,33,1015,-21,-61,0
1804,443,-50,1057,-42,-25,4
1805,281,-1,1022,-9,33,9
1806,-48,76,1020,-12,66,9
1807,-372,50,936,-55,49,15
1808,-409,-69,910,-80,-3,2
1809,-80,-214,949,-65,-55,-14
1810,317,-238,999,20,-61,-7
1811,437,-86,1027,96,-10,13
1812,206,123,1015,118,48,16
1813,-195,211,1017,56,72,11
1814,-439,136,929,-7,35,3
1815,-320,31,938,-22,-30,-4
1816,61,-119,988,-24,-72,-1
1817,431,-163,1020,35,-49,6
1818,360,-43,1037,82,14,6
1819,30,76,1029,75,59,5
1820,-359,123,935,29,50,12
1821,-452,64,916,2,-1,4
1822,-134,-94,960,-16,-63,-8
1823,306,-186,1007,45,-74,-7
1824,480,-96,1035,124,-20,6
1825,254,68,1020,151,43,11
1826,-188,158,1012,114,72,13
1827,-502,135,938,39,35,6
1828,-343,-22,938,-8,-35,-4
1829,76,-176,959,15,-80,-4
1830,497,-181,1033,101,-54,3
1831,410,-36,1037,160,17,7
1832,34,115,1046,159,71,10
1833,-395,193,967,85,61,14
1834,-487,107,921,5,1,5
1835,-152,-93,947,-28,-64,-8
1836,321,-196,1010,44,-79,-6
1837,510,-117,1047,115,-21,6
1838,269,43,1037,145,48,11
1839,-206,156,1004,101,78,18
1840,-523,151,930,31,36,10
1841,-361,-17,931,-22,-37,-6
1842,73,-167,958,15,-84,-7
1843,511,-166,1041,98,-58,1
1844,421,-31,1048,144,15,7
1845,15,120,1037,137,71,11
1846,-424,192,961,67,58,15
1847,-497,89,906,0,-4,1
1848,-132,-105,939,-21,-73,-9
1849,344,-197,1010,58,-82,-8
1850,506,-107,1057,132,-23,2
1851,235,57,1035,151,44,7
1852,-219,175,1007,108,70,14
1853,-513,161,930,27,26,6
1854,-342,-18,926,-30,-45,-9
1855,93,-159,970,12,-88,-8
1856,477,14,1091,40,-56,1
1857,178,335,1326,-408,25,17
1858,-4,-477,635,-268,14,22
1859,-146,127,728,459,12,2
1860,-327,244,1378,210,-6,-39
1861,160,-399,871,-163,-46,9
1862,215,-140,843,78,-11,26
1863,190,116,1257,172,11,-33
1864,144,147,1011,-50,30,20
1865,-334,349,965,-5,58,23
1866,-287,154,932,-151,-3,-9
1867,-172,-117,957,-150,-34,3
1868,132,-241,961,-94,-59,-6
1869,451,-229,1061,-12,-32,-1
1870,245,-54,996,25,27,21
1871,-83,115,1023,18,61,13
1872,-417,145,965,-34,37,3
1873,-369,91,902,-61,-20,-5
1874,27,-25,984,-67,-66,-3
1875,396,-115,1021,-50,-55,4
1876,411,-66,1067,-18,6,6
1877,119,61,1046,-7,58,8
1878,-291,153,972,-44,66,17
1879,-460,90,905,-103,16,9
1880,-257,-78,930,-129,-42,-5
1881,143,-195,986,-88,-74,-7
1882,482,-153,1035,-6,-44,2
1883,346,38,1038,44,22,12
1884,-33,182,1048,7,67,16
1885,-435,187,953,-72,51,10
1886,-444,70,907,-115,-12,-4
1887,-78,-94,956,-130,-71,-5
1888,370,-208,1016,-92,-75,3
1889,477,-147,1041,-23,-12,6
1890,188,34,1047,18,50,6
1891,-851,188,336,-7,34,19
1892,-881,-915,1388,-437,-224,228
1893,-17,-659,1017,-237,-151,244
1894,-28,234,255,567,-149,-139
1895,1012,737,1255,360,-172,-312
1896,1212,171,1432,-47,-19,-75
1897,199,225,530,-107,140,60
1898,-247,883,1037,128,165,29
1899,-819,741,1287,-277,81,-30
1900,-256,-124,702,-533,6,-91
1901,183,-282,1137,-200,-28,85
1902,113,-337,1006,-230,9,114
1903,312,-609,1132,-216,-1,-3
1904,-178,-591,718,-107,68,-4
1905,-418,-160,895,82,21,21
1906,-283,-10,1027,69,-44,-11
1907,-150,101,1018,61,-81,-52
1908,302,164,1182,45,-111,-38
1909,405,222,940,-63,-55,22
1910,193,402,948,-31,19,17
1911,62,331,1052,-149,47,-17
1912,-128,157,970,-230,66,-15
1913,-106,-3,1032,-260,42,11
1914,28,-236,1032,-267,2,27
1915,120,-362,919,-206,15,18
1916,-26,-342,985,-115,37,2
1917,-181,-204,892,-16,25,2
1918,-267,11,947,51,0,1
1919,-157,57,970,8,-34,-15
1920,161,26,1026,-13,-58,-13
1921,351,88,1063,8,-30,-3
1922,301,165,1045,-8,16,2
1923,91,211,1003,-50,64,2
1924,-311,129,1000,-121,71,4
1925,-410,-60,913,-158,17,3
1926,-162,-224,958,-139,-34,-9
1927,208,-317,947,-77,-56,-12
1928,445,-238,1011,21,-17,10
1929,226,0,1015,90,46,10
1930,-170,207,1042,67,71,0
1931,-429,199,925,-24,35,4
1932,-349,120,919,-38,-24,-1
1933,18,-61,1017,-76,-73,-9
1934,436,-198,1045,-43,-58,-2
1935,431,-156,1027,11,8,13
1936,135,-49,984,24,65,28
1937,-317,67,964,29,72,21
1938,-553,72,872,-2,19,2
1939,-323,15,964,-9,-59,-11
1940,179,-59,1038,-3,-103,-8
1941,522,-63,1085,23,-57,6
1942,398,21,998,22,18,20
1943,67,180,1015,25,68,9
1944,-359,114,1001,-72,73,-7
1945,-480,-35,816,-79,7,9
1946,-199,-83,1046,-31,-63,3
1947,281,-226,1017,-44,-79,-10
1948,461,-170,1008,36,-24,8
1949,224,36,1027,68,37,14
1950,-149,129,1005,16,62,5
1951,-451,98,874,-26,33,6
1952,-314,59,973,-16,-36,0
1953,96,-70,1032,-45,-81,-4
1954,422,-118,1052,-4,-47,3
1955,362,-22,1023,18,12,9
1956,36,57,1014,5,62,9
1957,-363,47,911,-37,58,10
1958,-442,0,912,-26,-3,3
1959,-151,-104,986,-36,-65,-7
1960,310,-148,1038,14,-77,-6
1961,443,-55,1057,43,-21,8
1962,218,82,1008,41,39,7
1963,-162,150,993,-2,66,2
1964,-451,99,892,-42,31,7
1965,-302,-2,952,-51,-38,2
1966,93,-140,1021,-45,-76,-7
1967,427,-160,1053,7,-47,3
1968,354,-46,1017,31,13,12
1969,17,72,1005,28,62,9
1970,-362,92,920,-20,55,10
1971,-438,41,914,-25,-7,4
1972,-136,-63,992,-35,-69,-6
1973,328,-123,1054,2,-76,-4
1974,445,-63,1045,24,-18,9
1975,228,55,1010,33,42,9
1976,-171,112,994,-10,71,7
1977,-474,65,881,-43,33,9
1978,-322,-28,949,-40,-37,0
1979,82,-146,1016,-31,-81,-8
1980,433,-152,1063,20,-52,2
1981,366,-27,1017,40,10,11
1982,32,107,1010,35,59,6
1983,-342,110,932,-26,56,8
1984,-440,51,901,-33,-3,5
1985,-147,-58,1008,-42,-65,-6
1986,317,-150,1047,-16,-75,-5
1987,442,-96,1030,24,-19,10
1988,230,40,1013,40,40,8
1989,-169,99,987,-7,67,7
1990,-474,60,878,-33,33,10
1991,-319,-8,951,-32,-39,-1
1992,86,-118,1024,-25,-81,-7
1993,438,-136,1055,17,-52,2
1994,370,-10,1023,42,11,10
1995,-624,166,305,42,32,9
1996,-866,-1016,1214,-384,-232,241
1997,-175,-817,975,-71,-137,294
1998,-548,552,432,917,-178,-111
1999,423,1197,1261,306,-327,-272
2000,934,696,1630,-252,-209,-232
2001,32,-464,57,-541,-99,-283
2002,812,-84,618,221,-50,-190
2003,260,256,1486,-6,99,56
2004,163,-320,217,-277,145,129
2005,706,63,1324,202,90,213
2006,385,322,890,15,275,205
2007,-193,763,1474,-83,319,118
2008,-930,42,1330,-417,198,-43
2009,-1094,-676,137,-405,65,7
2010,-988,-181,1302,157,-102,25
2011,317,-784,799,-263,-220,-37
2012,716,-672,995,179,-128,10
2013,603,-70,1022,288,-28,38
2014,455,341,1110,213,26,40
2015,-44,579,984,108,113,-55
2016,-343,424,915,-114,117,-101
2017,-564,294,1144,-92,35,-11
2018,-77,105,983,-155,-63,28
2019,204,-89,1054,-129,-38,-4
2020,390,-351,905,-146,-12,16
2021,138,-407,911,-48,40,41
2022,-293,-223,1011,59,70,-6
2023,-289,-229,905,11,15,-25
2024,-125,-107,868,99,-30,7
2025,204,185,1152,150,-48,-13
2026,329,179,1097,9,-2,-25
2027,100,244,996,24,42,-2
2028,-131,351,1016,-16,44,20
2029,-307,110,943,-154,22,19
2030,-184,-258,906,-165,-12,-11
2031,111,-377,999,-26,-44,-20
2032,329,-263,1021,50,-22,4
2033,262,-102,972,67,25,20
2034,-79,65,988,75,64,20
2035,-375,99,994,22,45,7
2036,-371,-50,888,-24,-16,11
2037,-53,-39,972,55,-71,10
2038,398,-48,1103,42,-67,-1
2039,395,-20,987,39,4,15
2040,144,201,1070,75,50,9
2041,-197,247,1000,-15,61,0
2042,-437,134,861,-76,28,12
2043,-302,-36,950,-88,-39,6
2044,112,-224,1040,-63,-77,-10
2045,421,-249,1019,6,-45,-1
2046,371,-90,1017,55,15,18
2047,33,59,989,44,64,20
2048,-382,116,939,2,61,8
2049,-467,75,920,-13,-4,-4
2050,-154,-1,982,-17,-72,-4
2051,325,-68,1078,-3,-84,1
2052,484,-87,1033,-3,-20,12
2053,258,47,1008,35,44,11
2054,-134,118,1021,-14,72,4
2055,-455,25,865,-62,42,11
2056,-379,-36,929,-31,-28,6
2057,13,-158,1034,-33,-78,-12
2058,404,-189,1041,22,-59,-2
2059,383,-23,1019,65,3,13
2060,92,127,1020,44,51,10
2061,-285,129,940,-26,62,7
2062,-453,76,916,-29,6,2
2063,-175,-32,1002,-44,-60,-3
2064,255,-145,1033,-26,-75,-2
2065,434,-113,1040,18,-23,9
2066,256,4,1010,30,36,9
2067,-134,69,982,-1,69,5
2068,-442,58,890,-23,36,8
2069,-340,2,941,-24,-32,2
2070,31,-115,1023,-24,-77,-9
2071,405,-127,1062,24,-58,-3
2072,379,0,1032,43,6,10
2073,92,114,1006,24,56,8
2074,-158,-72,296,-32,116,7
2075,-1078,204,1614,68,50,-31
2076,311,-371,384,-158,-190,15
2077,262,-154,936,104,-16,-3
2078,457,241,1351,200,-33,-41
2079,799,-148,576,-195,33,80
2080,-612,451,1203,224,175,17
2081,-498,309,1008,-135,24,-39
2082,-383,-161,734,-208,-34,43
2083,-196,-63,1046,27,-73,-9
2084,745,-389,1063,-124,-101,-8
2085,333,-304,1041,54,39,13
2086,96,26,956,111,60,-2
2087,-316,178,1052,41,62,35
2088,-590,129,740,-27,7,15
2089,-161,58,1106,4,-76,-28
2090,282,-68,1061,-37,-87,-7
2091,541,-16,1036,19,-31,6
2092,341,41,1056,-16,46,14
2093,-191,40,948,-40,84,21
2094,-550,-16,908,-56,40,4
2095,-390,-98,919,-28,-42,-8
2096,52,-166,964,-13,-92,0
2097,481,-144,1087,45,-68,1
2098,426,-1,1045,59,12,2
2099,21,165,1044,43,64,6
2100,-337,196,931,-21,51,18
2101,-457,100,885,-56,-5,8
2102,-180,-95,985,-84,-64,-13
2103,300,-230,1042,-25,-84,-11
2104,461,-139,1050,38,-26,5
2105,267,1,1013,40,39,11
2106,-165,109,956,8,68,17
2107,-516,689,1274,-263,12,6
2108,-184,-31,1136,-1268,-59,-8
2109,196,-955,333,-351,-45,-7
2110,337,212,1030,483,-22,5
2111,192,127,1184,283,38,-27
2112,-51,-242,785,193,47,28
2113,-450,266,905,442,21,52
2114,-446,167,1262,65,-28,-23
2115,-540,-489,57,-174,-126,-16
2116,-30,-1599,1494,-117,-314,219
2117,432,-1044,1180,479,-142,311
2118,275,546,1024,1108,-113,-7
2119,374,552,868,313,-55,-151
2120,384,369,916,204,1,-93
2121,-111,199,781,84,2,-26
2122,34,482,858,236,31,-41
2123,-314,1080,1645,221,-22,-1
2124,46,103,442,-388,-30,-33
2125,110,371,887,107,-38,7
2126,37,544,985,-145,30,25
2127,-80,299,851,-398,42,71
2128,-49,389,1180,-280,18,56
2129,467,30,1285,-466,3,58
2130,550,-478,992,-391,92,91
2131,311,-518,796,-264,172,104
2132,-455,-540,1336,-167,176,60
2133,-766,-851,543,-182,79,14
2134,-775,-496,825,143,-15,-7
2135,-204,-222,1096,143,-130,-40
2136,461,-145,1064,153,-143,-31
2137,317,197,1064,256,-76,-43
2138,288,409,1028,159,-38,-45
2139,42,420,922,38,20,-25
2140,-107,414,904,-19,33,-4
2141,51,344,1170,-101,11,19
2142,201,73,1061,-197,26,16
2143,334,-89,975,-152,55,19
2144,49,-196,1061,-155,100,39
2145,-375,-387,871,-143,82,34
2146,-573,-386,862,-31,30,-6
2147,-366,-329,902,38,-50,-30
2148,162,-233,952,100,-98,-10
2149,469,-2,1126,153,-61,-6
2150,326,214,1089,115,7,-12
2151,85,345,1001,54,37,-22
2152,-170,384,927,-19,55,-23
2153,-298,287,980,-105,32,5
2154,-133,-10,1064,-182,-18,17
2155,193,-271,981,-126,-31,-8
2156,289,-297,1014,-45,2,-3
2157,194,-253,930,-6,39,31
2158,-177,-98,964,40,66,26
2159,-464,-41,923,34,35,-13
2160,-315,-70,925,28,-38,-12
2161,19,-31,993,67,-83,12
2162,421,26,1117,74,-66,8
2163,332,79,1002,43,4,12
2164,88,296,1034,74,39,-3
2165,-125,266,990,-66,50,-21
2166,-370,51,886,-119,32,3
2167,-203,-80,1001,-85,-32,17
2168,135,-241,1059,-69,-55,-6
2169,335,-282,964,-12,-22,-5
2170,258,-126,971,54,22,21
2171,-105,45,1011,52,53,22
2172,-423,65,915,11,33,-4
2173,-330,46,947,13,-34,-8
2174,183,-44,593,22,-54,6
2175,-341,181,1287,67,36,-8
2176,607,-174,983,-81,-155,3
2177,611,-263,364,-11,46,45
2178,-256,637,1635,287,99,-8
2179,131,-99,542,-365,26,36
2180,-530,-65,972,21,63,55
2181,-314,114,1210,43,-24,-69
2182,432,-320,906,-193,-66,26
2183,25,0,898,137,18,40
2184,229,63,1124,-14,0,-2
2185,-334,-202,934,-104,55,5
2186,-278,-86,835,71,-19,-17
2187,96,82,1169,66,-56,13
2188,271,-27,915,-38,-31,21
2189,300,52,1090,44,15,-9
2190,-54,150,1094,0,51,-1
2191,-290,110,857,-57,28,17
2192,-311,9,944,-60,-13,10
2193,-67,-210,932,-78,-53,-4
2194,275,-311,1041,-8,-54,-12
2195,378,-107,1052,99,-9,2
2196,209,150,1033,78,39,23
2197,-218,206,970,-9,63,24
2198,-485,131,916,-39,22,-3
2199,-316,-18,966,-61,-49,-19
2200,130,-149,981,-35,-88,-6
2201,526,-175,1029,4,-52,8
2202,402,-83,1060,35,27,5
2203,-27,36,1025,27,75,7
2204,-429,141,923,11,53,14
2205,-494,105,898,-25,-15,6
2206,-163,-94,937,-65,-81,-11
2207,330,-195,1062,2,-89,-20
2208,530,-100,1073,48,-31,-4
2209,311,59,1027,48,43,10
2210,-148,164,979,8,75,21
2211,-534,134,912,-35,39,10
2212,-440,-27,932,-66,-39,-15
2213,1,-165,975,-32,-95,-14
2214,485,-167,1067,24,-80,0
2215,496,-89,1021,33,-2,6
2216,121,65,1027,52,66,1
2217,-332,155,970,7,65,3
2218,-512,96,879,-31,8,0
2219,-275,-12,958,-42,-61,-5
2220,208,-143,1048,-24,-92,-8
2221,517,-120,1045,23,-46,7
2222,372,84,1038,54,24,21
2223,36,165,987,-10,72,6
2224,-413,95,958,-63,70,3
2225,-496,-40,882,-74,-1,5
2226,-146,-128,1021,-33,-68,-4
2227,327,-226,1002,-17,-74,-6
2228,-242,-176,189,79,-44,19
2229,-279,-1190,1315,-371,-262,315
2230,69,-713,796,332,-28,234
2231,-649,626,387,966,-94,-126
2232,215,650,785,206,-226,-192
2233,859,1028,1655,147,-155,-66
2234,85,-54,726,-572,-46,-95
2235,1112,-346,221,-26,48,-217
2236,123,1016,1657,537,160,-69
2237,-62,82,477,-628,178,8
2238,-103,-181,786,-199,118,76
2239,-756,611,1291,130,158,5
2240,-145,-266,1391,-589,-12,2
2241,0,-909,352,-269,-11,29
2242,22,-189,1145,248,-16,38
2243,-6,-378,1017,-125,-8,29
2244,-197,-461,718,58,8,-22
2245,-215,177,1182,315,-37,-59
2246,77,143,1126,41,-94,-7
2247,231,111,782,81,-62,16
2248,201,523,1187,169,-12,-9
2249,112,337,1086,-141,17,-26
2250,0,48,804,-146,43,-18
2251,-35,159,1041,-46,41,20
2252,55,-59,1073,-206,31,46
2253,99,-366,975,-170,31,15
2254,33,-309,972,0,44,-10
2255,-201,-182,965,8,40,18
2256,-277,-112,865,29,6,17
2257,-259,-25,975,55,-19,-15
2258,0,-54,1004,30,-57,-32
2259,338,-5,1039,61,-56,-12
2260,375,161,1074,80,-7,6
2261,254,234,980,0,47,4
2262,-142,225,1059,-56,89,-11
2263,-461,55,942,-122,51,-2
2264,-300,-104,918,-91,-21,6
2265,-18,-275,966,-80,-52,-12
2266,422,-362,966,-4,-45,-6
2267,368,-157,1049,88,16,11
2268,38,88,1040,97,66,1
2269,-290,194,959,28,58,8
2270,-464,181,898,-3,12,6
2271,-193,50,989,-48,-54,-10
2272,236,-126,1019,-45,-73,-7
2273,479,-145,1058,6,-29,11
2274,327,-35,994,26,35,20
2275,-80,70,1014,16,78,12
2276,-482,65,902,-26,55,8
2277,-458,13,926,-20,-21,-1
2278,-87,-83,974,-21,-84,-7
2279,412,-124,1074,16,-79,-4
2280,485,-63,1031,29,-12,10
2281,226,76,983,48,52,5
2282,-457,109,138,193,166,29
2283,-659,611,1167,296,-120,57
2284,671,-700,-323,-475,-175,-36
2285,516,-311,711,99,-18,28
2286,736,150,1394,125,-7,26
2287,923,-225,470,-195,112,89
2288,-930,388,1212,176,208,21
2289,-761,260,934,-87,37,-19
2290,-624,-152,730,-193,-42,56
2291,-113,-21,1057,116,-151,-39
2292,1040,-468,1105,-158,-111,-19
2293,540,-313,1003,137,57,15
2294,232,115,1056,153,77,-1
2295,-463,179,1016,38,122,49
2296,-797,172,734,6,27,11
2297,-317,-2,1082,-26,-94,-43
2298,285,-183,1008,-18,-96,-23
2299,717,-76,1044,65,-56,1
2300,491,54,1109,56,49,11
2301,-119,104,969,-13,117,24
2302,-621,118,953,-44,66,9
2303,-531,0,881,-78,-27,-8
2304,-47,-135,951,-60,-87,-4
2305,494,-199,1060,-13,-87,-7
2306,544,-98,1062,43,2,-3
2307,142,85,1051,41,77,7
2308,-311,171,952,-9,69,23
2309,-553,120,864,-50,21,12
2310,-329,-57,934,-69,-57,-20
2311,202,-188,1027,-28,-98,-19
2312,516,-111,1079,40,-49,2
2313,402,16,1038,32,24,8
2314,-63,105,1010,8,73,16
2315,-476,120,907,-27,51,10
2316,-466,20,904,-49,-24,-9
2317,-86,-112,968,-44,-86,-9
2318,416,-154,1059,0,-83,-3
2319,485,-82,1064,31,-15,-3
2320,169,52,1026,38,51,1
2321,-260,134,965,-3,62,12
2322,-493,90,872,-35,15,5
2323,-320,-40,928,-55,-54,-9
2324,139,-146,1046,-21,-95,-14
2325,474,-122,1058,29,-60,-3
2326,347,80,1043,41,6,12
2327,15,171,1006,-15,52,16
2328,-354,143,926,-52,48,6
2329,-409,31,925,-78,-8,-2
2330,-85,-156,980,-85,-66,-2
2331,349,-230,1019,-17,-68,1
2332,424,-148,1034,29,-9,9
2333,175,-14,1021,43,49,9
2334,-242,92,960,24,64,9
2335,-478,120,902,4,22,8
2336,-288,27,946,-36,-46,-1
2337,140,-69,1037,-14,-84,-7
2338,466,-78,1086,10,-47,0
2339,-427,-10,157,34,-19,14
2340,-409,-1147,1360,-377,-250,266
2341,-192,-859,732,105,-60,292
2342,-599,548,475,950,-148,-68
2343,278,996,1032,299,-261,-180
2344,789,1027,1641,-10,-180,-110
2345,158,-135,578,-586,-106,-175
2346,1046,-265,406,24,-16,-210
2347,135,673,1618,256,128,-11
2348,163,-248,277,-554,166,74
2349,552,-389,879,-14,145,194
2350,-230,677,1204,214,299,201
2351,-502,537,1714,-300,151,49
2352,-578,-871,67,-655,86,-65
2353,-769,-207,959,263,12,28
2354,-260,-261,1169,-141,-128,52
2355,253,-857,615,-150,-105,-29
2356,284,-186,1168,365,-47,-75
2357,552,40,1192,118,-44,-14
2358,254,214,836,146,31,5
2359,-88,664,1027,175,79,-43
2360,-326,656,1199,-67,56,-41
2361,-329,169,875,-267,15,-7
2362,-75,-9,1008,-136,-35,16
2363,267,-366,1003,-201,-46,21
2364,378,-597,912,-111,4,17
2365,169,-386,985,83,57,6
2366,-212,-98,1000,93,73,14
2367,-450,41,867,72,35,3
2368,-354,178,982,88,-32,-18
2369,43,142,1053,14,-80,-28
2370,472,73,1065,3,-58,-14
2371,475,136,1056,10,15,7
2372,179,162,1027,-47,75,21
2373,-324,45,965,-108,90,20
2374,-545,-105,878,-94,32,1
2375,-298,-240,928,-57,-41,-14
2376,166,-312,953,-2,-79,-14
2377,501,-181,1057,89,-43,-1
2378,364,34,1050,89,35,7
2379,-52,196,1029,57,80,9
2380,-402,259,939,2,54,14
2381,-426,165,936,-53,-8,1
2382,-92,-91,981,-97,-63,-14
2383,365,-256,1050,-35,-68,-5
2384,428,-262,993,0,-10,27
2385,197,-90,1010,79,52,28
2386,-247,49,945,47,73,15
2387,-535,115,898,42,25,11
2388,-328,88,974,7,-56,-5
2389,135,36,1034,14,-97,-12
2390,496,-1,1115,3,-61,1
2391,418,-12,974,-12,14,24
2392,79,187,1016,34,69,16
2393,-322,90,1014,-96,71,-6
2394,-464,-129,792,-96,12,8
2395,-227,-123,1028,-3,-56,4
2396,246,-222,1036,-23,-78,-14
2397,445,-183,992,45,-28,6
2398,221,71,1030,97,33,14
2399,-127,179,1020,25,56,5
2400,-423,118,877,-33,33,3
2401,-301,76,966,-18,-33,0
2402,246,-259,494,-59,-46,-3
2403,-161,-66,1242,73,26,-52
2404,648,-257,608,-2,-112,29
2405,145,-106,599,46,106,33
2406,-583,522,1426,303,55,-54
2407,243,-184,347,-328,-46,47
2408,-407,148,1295,180,18,17
2409,263,177,1093,-3,-54,-60
2410,463,-101,939,-139,-11,50
2411,-175,156,1001,64,72,14
2412,-33,-80,961,-147,16,-2
2413,-562,-227,936,-51,29,5
2414,-134,-202,819,17,-69,-14
2415,315,-125,1191,66,-73,11
2416,365,-75,907,34,-19,15
2417,271,189,1177,122,35,-9
2418,-193,273,1006,-12,64,7
2419,-385,226,856,-50,22,15
2420,-298,49,980,-105,-32,7
2421,50,-222,973,-109,-67,-3
2422,421,-303,1051,-26,-50,-4
2423,392,-134,1036,61,12,11
2424,86,54,1009,37,65,29
2425,-391,109,931,-6,65,21
2426,-522,94,904,-10,1,-5
2427,-203,5,967,-32,-73,-9
2428,314,-86,1025,-20,-94,2
2429,563,-94,1059,3,-31,10
2430,332,8,1074,18,51,6
2431,-150,77,991,-14,84,12
2432,-491,100,894,-27,46,18
2433,-450,11,890,-57,-27,7
2434,-66,-184,979,-64,-84,-9
2435,433,-217,1057,22,-81,-8
2436,490,-51,1066,67,-8,5
2437,202,99,1035,39,59,16
2438,-277,168,950,-7,75,22
2439,-550,133,911,-40,22,6
2440,-331,-49,927,-78,-57,-13
2441,154,-164,1004,-26,-98,-8
2442,513,-149,1077,20,-59,5
2443,411,-67,1025,23,19,7
2444,-27,61,1010,32,74,7
2445,-451,139,913,3,51,13
2446,-492,81,905,-36,-19,5
2447,-146,-82,975,-51,-85,-11
2448,405,-154,1080,4,-94,-10
2449,520,-90,1053,27,-21,5
2450,289,47,1000,39,49,8
2451,-278,158,860,0,79,12
2452,-1589,-528,71,-112,-135,107
2453,215,-1263,1651,-535,-339,362
2454,-204,-180,301,1023,-100,4
2455,-98,1231,765,584,-341,-189
2456,1070,1109,1788,97,-289,-194
2457,28,66,673,-611,-153,-204
2458,319,-535,-135,-142,-90,-304
2459,824,354,1568,310,8,-98
2460,4,-157,685,-376,150,55
2461,902,-390,730,-9,61,134
2462,496,359,1132,262,198,201
2463,347,468,906,-73,363,174
2464,-607,736,1480,-161,365,74
2465,-1239,-125,1165,-464,183,-39
2466,-1120,-628,285,-335,7,9
2467,-569,-332,1328,107,-149,-23
2468,828,-815,805,-182,-206,3
2469,713,-559,934,216,-43,76
2470,363,163,995,310,54,79
2471,-38,630,1318,184,74,-1
2472,-288,220,741,-154,82,-100
2473,-368,148,939,-13,30,-34
2474,-64,342,1311,4,-49,38
2475,258,-55,909,-212,-25,-6
2476,190,-134,945,-46,22,-6
2477,81,-218,958,-91,30,49
2478,-313,-284,943,-43,50,9
2479,-228,-311,920,18,6,-45
2480,66,-176,935,92,-38,1
2481,262,123,1079,148,-29,17
2482,255,230,1088,46,23,-11
2483,-104,238,1015,-8,62,-13
2484,-277,226,942,-37,28,6
2485,-238,91,946,-91,-13,13
2486,-5,-228,961,-134,-38,-2
2487,318,-443,1020,-47,-37,-2
2488,273,-299,976,75,7,22
2489,92,-2,1032,130,44,19
2490,-276,133,892,56,53,19
2491,-483,219,952,58,5,2
2492,-234,149,1013,-15,-68,-19
2493,227,31,1039,-17,-92,-10
2494,515,-57,1068,-25,-47,24
2495,406,32,948,8,27,47
2496,20,172,1113,-6,85,4
2497,-402,-75,921,-141,77,-17
2498,-497,-128,794,-24,3,18
2499,-245,-97,1058,-10,-68,4
2500,313,-292,985,-30,-87,-17
2501,460,-145,1029,97,-27,6
2502,230,148,1074,109,32,8
2503,-99,205,991,5,57,4
2504,-430,176,864,-24,39,6
2505,-323,111,1006,-41,-33,1
2506,83,-107,1019,-88,-74,-4
2507,392,-160,1033,-12,-45,0
2508,382,-83,1029,7,9,13
2509,-32,-325,-59,28,136,15
2510,-1385,77,846,257,55,-96
2511,265,-105,548,-83,-253,-4
2512,376,-510,252,-227,-80,74
2513,727,242,1375,515,-41,-32
2514,1039,154,1019,-45,17,38
2515,-135,680,803,194,237,12
2516,-727,770,1410,-82,146,-52
2517,-700,62,614,-336,6,-1
2518,-522,-13,979,-144,-47,22
2519,301,-656,1044,-311,-139,-10
2520,832,-912,903,-65,-55,12
2521,346,-316,1064,220,69,6
2522,-48,-6,1054,152,88,15
2523,-580,256,868,76,71,46
2524,-664,399,908,66,-19,-20
2525,-4,190,1087,-43,-118,-28
2526,489,122,1076,-11,-84,2
2527,686,102,1114,-56,-8,10
2528,288,-56,1004,-115,87,23
2529,-384,-90,925,-79,110,25
2530,-650,-143,872,-43,34,7
2531,-389,-225,868,-26,-57,3
2532,178,-243,978,38,-101,4
2533,564,-108,1116,98,-57,1
2534,414,121,1078,94,30,-1
2535,-35,284,1038,38,79,12
2536,-423,284,915,-39,55,25
2537,-478,109,900,-98,-12,4
2538,-107,-170,993,-113,-74,-15
2539,393,-279,1031,-29,-80,-5
2540,483,-184,1045,26,-10,9
2541,204,-48,1016,40,58,16
2542,-290,58,943,18,72,21
2543,-542,108,904,13,17,2
2544,-307,31,923,-25,-61,-12
2545,178,-49,1028,-7,-98,-5
2546,523,-47,1104,13,-53,1
2547,397,19,1056,7,27,1
2548,-44,90,1012,-7,74,11
2549,-413,87,896,-41,51,19
2550,-472,-18,874,-61,-13,3
2551,-173,-190,966,-57,-79,-14
2552,353,-210,1067,28,-94,-10
2553,480,-67,1055,62,-26,3
2554,-111,114,604,55,32,5
2555,-1079,-875,526,-212,-203,205
2556,101,-869,1275,-150,-177,313
2557,-495,224,312,1055,-101,-91
2558,3,838,742,276,-288,-174
2559,1077,987,1749,160,-239,-76
2560,50,11,769,-533,-140,-67
2561,606,-371,-222,-63,-74,-201
2562,407,955,1685,540,20,-93
2563,-109,-1,431,-644,142,-23
2564,688,-788,589,-305,78,75
2565,447,130,1065,369,223,156
2566,30,725,1620,-39,285,196
2567,-509,349,1093,-315,187,7
2568,-730,-408,596,-382,147,-126
2569,-1133,-254,1067,-33,9,26
2570,-213,-611,766,-220,-163,41
2571,413,-705,1007,78,-135,-39
2572,591,-306,1043,236,-55,6
2573,467,-4,1014,167,-16,67
2574,-47,535,1028,293,69,-43
2575,-305,577,1048,1,54,-95
2576,-280,289,869,-125,12,-32
2577,-28,313,1102,-66,-26,43
2578,302,144,1140,-168,-23,43
2579,436,-252,963,-232,28,17
2580,116,-382,946,-102,85,18
2581,-357,-319,937,-38,85,30
2582,-543,-324,847,-17,27,-2
2583,-298,-247,877,77,-47,-27
2584,162,-64,1051,126,-88,-20
2585,487,89,1108,110,-48,-17
2586,365,291,1072,93,26,-13
2587,40,410,1017,12,68,-13
2588,-284,271,966,-105,68,-3
2589,-439,45,921,-144,16,11
2590,-124,-227,1005,-132,-46,-8
2591,260,-400,969,-67,-51,-17
2592,399,-304,984,51,-8,9
2593,201,-85,1017,82,48,25
2594,-244,52,970,55,73,12
2595,-473,76,923,38,25,0
2596,-327,19,895,9,-52,13
2597,123,24,1079,51,-93,3
2598,460,-33,1056,12,-55,-2
2599,351,89,1032,55,11,16
2600,96,227,1019,11,53,6
2601,-245,140,954,-74,69,-10
2602,-453,-26,872,-99,18,10
2603,-190,-137,1016,-52,-52,7
2604,201,-248,1028,-37,-67,-12
2605,409,-211,984,36,-26,4
2606,251,-5,1031,73,29,22
2607,-160,110,980,30,63,9
2608,-425,109,913,-1,28,-4
2609,-297,71,944,-10,-37,1
2610,93,-5,1051,-22,-79,2
2611,422,-94,1050,-18,-49,1
2612,363,-16,1029,17,15,6
2613,41,68,1013,-5,64,8
2614,-322,34,912,-47,59,12
2615,-456,-17,894,-33,2,8
2616,-179,-137,995,-36,-61,-9
2617,275,-188,1029,16,-77,-9
2618,432,-61,1054,65,-25,9
2619,376,-3,828,47,42,11
2620,-567,89,610,86,173,-24
2621,-412,103,1036,0,-91,-6
2622,-34,-287,148,-116,-25,23
2623,10,243,1464,253,-71,-61
2624,977,-199,550,-150,-70,43
2625,331,164,1062,97,116,90
2626,-391,567,1361,132,127,-55
2627,-288,-66,680,-356,25,31
2628,-884,15,935,39,29,13
2629,83,-262,917,-160,-133,-18
2630,477,-522,1094,-40,-74,3
2631,492,-251,917,116,0,-3
2632,313,101,1184,146,57,14
2633,-389,255,896,27,90,35
2634,-556,290,883,12,20,7
2635,-354,123,1048,-73,-63,-12
2636,208,-89,954,-73,-98,-9
2637,610,-136,1131,-24,-50,3
2638,455,-114,995,-22,40,16
2639,-75,-21,1008,-7,94,21
2640,-532,17,898,-15,65,14
2641,-524,2,870,-13,-20,4
2642,-132,-90,968,-21,-89,-3
2643,447,-112,1083,28,-94,-3
2644,549,-9,1084,41,-12,4
2645,239,127,1052,28,62,8
2646,-240,180,955,-27,80,25
2647,-545,108,892,-69,32,17
2648,-380,-102,888,-97,-47,-5
2649,99,-246,1016,-38,-95,-12
2650,494,-200,1070,40,-65,1
2651,436,-61,1033,46,14,10
2652,20,93,1019,45,70,12
2653,-394,150,927,-10,56,13
2654,-594,105,866,-28,-12,0
2655,-264,-43,963,-47,-97,-18
2656,329,-135,1089,-5,-121,-14
2657,585,-121,1060,19,-51,-2
2658,427,-15,999,31,36,3
2659,-30,124,1005,29,84,10
2660,-1249,112,-34,-10,18,21
2661,-707,-1131,1479,-439,-332,252
2662,155,-820,784,250,-159,196
2663,-403,833,568,909,-225,-158
2664,702,1444,1504,286,-344,-299
2665,607,581,1308,-495,-179,-297
2666,-66,-618,-250,-542,-65,-386
2667,1019,-157,1047,190,-4,-214
2668,365,-159,1321,-151,144,84
2669,595,-328,356,-48,150,171
2670,816,336,1455,281,164,249
2671,127,591,667,-52,397,194
2672,-1251,696,1721,-195,347,57
2673,-1269,-569,103,-579,57,3
2674,-1072,-339,784,49,-64,0
2675,-126,-281,1358,-6,-225,-55
2676,1028,-782,745,-191,-207,18
2677,626,-235,955,292,-28,48
2678,581,338,1120,215,61,16
2679,215,295,1131,-31,125,-18
2680,-489,-133,801,-133,174,-48
2681,-697,171,1017,96,31,30
2682,-366,263,1166,-6,-53,-10
2683,228,-58,883,-135,-73,-38
2684,465,15,996,26,-36,28
2685,214,-57,1059,-90,28,27
2686,-155,-216,972,-61,69,-26
2687,-203,-249,857,-12,24,-6
2688,-52,-104,951,66,-8,28
2689,155,-68,1081,39,-12,4
2690,136,-50,1034,53,23,-15
2691,-79,32,987,48,34,26
2692,-170,116,930,45,12,51
2693,-201,21,945,-18,-3,12
2694,-87,-162,939,-15,-29,-21
2695,216,-115,1087,71,-50,-6
2696,266,91,1048,104,-14,24
2697,133,256,996,54,26,19
2698,-134,221,963,-36,42,8
2699,-375,110,973,-68,18,-4
2700,-201,-55,948,-81,-42,-7
2701,166,-174,1001,-45,-65,6
2702,399,-211,1013,-11,-30,19
2703,311,-116,1033,33,28,11
2704,-85,31,1009,43,69,1
2705,-388,107,908,17,44,10
2706,-419,94,901,-11,-23,12
2707,-121,-20,1000,-24,-74,-5
2708,351,-122,1094,-8,-80,-12
2709,472,-67,1031,31,-18,4
2710,262,-134,173,65,121,12
2711,-552,256,1514,112,68,-33
2712,-172,-322,-74,-158,-31,39
2713,-535,50,1241,145,-9,-55
2714,419,15,942,101,-130,-25
2715,908,-183,683,-133,-24,112
2716,-54,574,1375,335,122,-7
2717,113,255,980,-231,48,-15
2718,-682,9,798,-118,98,29
2719,-594,71,951,-34,-43,-6
2720,132,-429,1000,-205,-105,3
2721,322,-517,966,15,-59,-4
2722,629,-187,1062,148,-16,-6
2723,161,118,1140,109,71,28
2724,-334,260,799,33,82,27
2725,-567,332,1065,18,13,3
2726,-318,88,899,-110,-64,-11
2727,273,-96,1063,-60,-97,-11
2728,600,-153,1054,-32,-44,8
2729,435,-103,1049,-13,48,21
2730,-144,-51,984,-22,101,17
2731,-532,28,877,3,57,16
2732,-518,28,907,-15,-24,6
2733,-70,-102,953,-26,-92,-4
2734,464,-121,1083,27,-86,-4
2735,530,4,1099,51,-5,0
2736,229,123,1035,16,62,13
2737,-284,183,961,-24,82,24
2738,-551,108,892,-68,26,11
2739,-359,-117,908,-98,-51,-9
2740,130,-244,1003,-26,-95,-11
2741,528,-192,1068,37,-61,4
2742,424,-55,1044,48,22,11
2743,-21,90,1006,38,75,11
2744,-435,169,935,-1,55,12
2745,-501,91,889,-44,-16,-1
2746,-158,-72,950,-52,-83,-12
2747,359,-134,1092,1,-97,-9
2748,522,-105,1057,14,-27,1
2749,270,5,1020,28,50,5
2750,-180,108,968,12,71,16
2751,-511,98,895,-28,33,12
2752,-489,-13,877,-48,-43,-12
2753,15,-100,1055,-12,-113,-13
2754,477,-116,1077,16,-89,0
2755,536,-52,1030,22,-7,4
2756,210,59,987,26,64,8
2757,-273,129,982,-9,85,10
2758,-528,58,886,-54,26,9
2759,-377,-27,896,-34,-53,-1
2760,-1250,-719,41,-48,-239,64
2761,843,-1618,1658,-535,-365,397
2762,-177,-483,202,1046,-68,187
2763,-247,1326,970,892,-294,-9
2764,426,1188,1420,246,-216,-121
2765,-328,654,566,-391,-208,-147
2766,427,70,494,-230,-229,-351
2767,1324,211,1813,-33,-60,-339
2768,-23,-88,659,-358,146,-150
2769,702,-474,699,-212,17,24
2770,183,-99,892,141,126,216
2771,150,50,538,3,256,325
2772,359,299,1349,49,285,327
2773,-268,680,1606,-52,303,148
2774,-351,22,1021,-442,182,-86
2775,-946,-692,708,-332,153,-92
2776,-920,-147,818,115,-34,95
2777,-253,-328,1080,-148,-143,30
2778,224,-771,763,-58,-117,-94
2779,618,-360,1169,261,-85,-34
2780,456,28,1025,194,-28,36
2781,265,484,993,244,35,-18
2782,-62,626,1029,27,90,-69
2783,-344,514,992,-111,86,-53
2784,-296,318,1083,-176,15,3
2785,-46,6,1030,-224,-26,23
2786,297,-428,922,-225,-24,21
2787,301,-555,959,-85,20,21
2788,68,-436,957,34,65,10
2789,-301,-193,952,84,70,2
2790,-406,-19,865,97,17,-4
2791,-214,144,1014,101,-40,-15
2792,178,127,1054,34,-66,-32
2793,455,155,1095,46,-28,-17
2794,359,255,1063,6,40,11
2795,20,217,1003,-73,82,24
2796,-387,25,937,-136,76,19
2797,-457,-204,892,-111,13,-4
2798,-159,-361,924,-52,-49,-13
2799,283,-349,981,42,-67,-1
2800,449,-171,1046,108,-14,15
2801,191,44,1022,109,52,13
2802,-263,181,995,72,63,18
2803,-459,267,900,35,8,24
2804,-294,204,961,-17,-54,-4
2805,145,-15,1046,-69,-86,-15
2806,492,-102,1096,-23,-52,2
2807,414,-30,1012,-3,23,14
2808,74,45,1003,-12,76,16
2809,-359,-12,900,-67,75,20
2810,-560,-66,888,-28,10,5
2811,-262,-162,981,-22,-68,-16
2812,261,-175,1030,41,-96,-8
2813,497,-59,1062,72,-40,13
2814,320,84,1009,60,30,12
2815,-69,236,1010,39,66,-3
2816,-393,181,955,-52,47,-5
2817,-365,45,883,-70,-19,11
2818,-16,-68,1063,-56,-67,4
2819,354,-213,1037,-50,-53,-7
2820,382,-159,996,18,2,7
2821,86,3,999,40,52,17
2822,-251,15,886,-5,59,15
2823,-914,-215,-12,62,114,-27
2824,-714,-13,1015,433,-181,-131
2825,1053,-549,495,-303,-270,82
2826,635,-230,510,143,-21,87
2827,908,611,1509,466,21,-44
2828,455,256,654,-66,124,14
2829,-667,952,952,189,249,-25
2830,-932,620,1396,-250,47,-18
2831,-207,-106,665,-332,-71,11
2832,127,-277,1143,-121,-61,25
2833,557,-770,983,-257,-45,7
2834,321,-803,857,-33,46,18
2835,-306,-211,972,195,87,11
2836,-371,-67,933,50,12,22
2837,-303,85,927,65,-31,7
2838,134,294,1093,114,-73,-36
2839,442,366,1160,42,-40,-4
2840,285,445,1009,-12,29,19
2841,-9,300,1034,-136,62,16
2842,-391,-115,901,-235,47,19
2843,-319,-361,880,-120,-13,3
2844,41,-419,989,-38,-57,2
2845,373,-354,971,39,-38,20
2846,299,-102,1032,106,21,17
2847,-106,146,1044,102,60,2
2848,-374,237,937,24,33,1
2849,-328,236,917,5,-28,5
2850,12,83,1017,-59,-70,1
2851,404,-125,1070,-68,-55,-8
2852,408,-114,1056,-5,13,-1
2853,122,-13,1021,-1,63,15
2854,-298,9,918,-32,67,25
2855,-510,-39,861,-31,16,7
2856,-315,-142,930,-20,-57,-15
2857,178,-164,1023,33,-95,-12
2858,528,-35,1083,76,-54,4
2859,413,98,1077,47,29,4
2860,-63,159,1006,2,79,7
2861,-441,178,924,-22,50,9
2862,-463,70,891,-64,-19,-3
2863,-123,-132,937,-75,-79,-8
2864,371,-228,1081,-10,-88,-5
2865,488,-151,1060,38,-16,-2
2866,309,188,1178,-8,56,1
2867,-71,15,896,-300,96,9
2868,-569,-273,628,103,52,7
2869,-578,329,1097,279,-53,4
2870,-694,145,494,-99,-134,-27
2871,-266,-1503,994,-410,-390,202
2872,735,-1354,1040,160,-194,340
2873,126,381,723,1217,-115,35
2874,342,954,1000,372,-122,-121
2875,564,728,975,72,-41,-144
2876,28,328,552,-197,-20,-197
2877,673,356,787,-8,75,-355
2878,-22,1111,1760,132,80,-174
2879,-2,103,199,-576,93,-5
2880,-295,616,739,-7,79,68
2881,-324,689,1394,-358,92,6
2882,-40,-901,1274,-949,68,46
2883,-112,-1197,450,-231,3,14
2884,198,-633,1260,136,-8,-3
2885,16,-700,722,-81,17,57
2886,-87,-248,735,244,38,25
2887,-536,281,1389,229,18,-78
2888,-353,243,820,81,-67,-78
2889,66,364,1138,130,-136,-29
2890,469,268,915,42,-102,32
2891,603,230,1053,-53,-1,58
2892,338,254,1143,-58,96,-30
2893,34,44,1069,-163,114,-45
2894,-501,-257,747,-188,100,50
2895,-581,-193,961,-31,6,51
2896,-190,-455,1014,-115,-56,-43
2897,253,-492,877,47,-64,-42
2898,442,4,1076,211,-31,8
2899,237,224,1032,86,34,22
2900,-164,232,964,9,74,-4
2901,-366,216,1008,-16,30,-18
2902,-157,111,997,-57,-29,0
2903,192,-36,1020,-76,-46,3
2904,361,-125,1014,-51,-3,3
2905,182,-135,1011,-41,48,10
2906,-182,-100,941,-11,67,13
2907,-368,-42,911,10,31,8
2908,-253,-96,916,-7,-21,-3
2909,73,-154,1004,27,-53,-14
2910,379,-109,1099,72,-34,-3
2911,313,-32,986,51,20,32
2912,23,140,1024,86,62,35
2913,-334,176,925,-2,58,14
2914,-462,100,897,-17,1,-8
2915,-148,-6,1019,-27,-67,-11
2916,292,-53,1041,6,-80,1
2917,456,-22,1064,9,-21,11
2918,282,22,992,-3,42,11
2919,-145,85,1004,-10,75,4
2920,-460,27,888,-54,39,7
2921,-364,-64,921,-39,-31,5
2922,17,-171,1005,-26,-77,-7
2923,406,-167,1060,38,-61,-6
2924,386,-28,1027,56,2,8
2925,85,133,1001,55,54,10
2926,-272,171,951,-13,59,9
2927,-451,89,915,-46,7,4
2928,-172,-35,1003,-48,-56,-4
2929,250,-139,1043,-27,-73,-5
2930,433,-130,1028,8,-25,10
2931,271,-19,1008,24,36,14
2932,-144,63,989,3,71,7
2933,-450,30,898,-29,36,4
2934,-349,-13,925,-13,-34,0
2935,-397,-541,52,36,-58,-31
2936,-513,651,977,707,-107,-156
2937,765,-772,612,-687,-328,39
2938,452,-687,-278,47,-106,136
2939,677,750,1484,594,-19,-52
2940,536,260,838,67,139,-104
2941,238,33,799,-71,180,-8
2942,-407,1046,1545,346,147,-40
2943,-121,530,1237,-150,30,-36
2944,-313,143,532,-289,74,8
2945,-297,-297,1149,-241,-10,88
2946,-134,-865,899,-323,-24,-1
2947,-46,-831,948,-61,-27,-86
2948,392,-538,880,39,-50,21
2949,429,-18,1047,148,3,88
2950,2,313,1112,75,80,-16
2951,-363,454,1066,13,61,-52
2952,-425,397,735,40,-6,14
2953,-140,629,1136,69,-66,33
2954,295,-1,1051,-344,-67,15
2955,449,-583,962,-240,-6,-12
2956,295,-318,1026,76,46,-4
2957,-17,-25,1055,43,69,57
2958,-408,-76,769,-54,63,58
2959,-567,-60,929,38,4,-11
2960,-261,-130,1007,2,-78,-47
2961,342,-78,993,86,-104,-8
2962,642,166,1095,104,-42,27
2963,421,225,1099,-4,56,13
2964,-199,124,1000,-81,105,-4
2965,-565,114,906,-27,51,1
2966,-436,46,914,-72,-36,14
2967,-44,-277,897,-124,-85,6
2968,444,-398,1054,0,-78,-13
2969,439,-185,1082,100,-1,-9
2970,165,68,1029,95,53,10
2971,-239,237,934,53,62,31
2972,-522,224,919,-23,19,7
2973,-332,-12,939,-79,-54,-31
2974,164,-101,1039,-5,-97,-18
2975,509,-54,1074,15,-60,9
2976,450,-45,1025,-9,22,11
2977,-45,-2,991,-3,82,6
2978,-457,60,938,-2,55,2
2979,-452,10,880,-25,-17,1
2980,-142,-83,949,-21,-76,1
2981,360,-146,1084,9,-87,-5
2982,469,-86,1071,43,-18,-8
2983,217,79,1026,54,43,-3
2984,-141,159,958,5,63,11
2985,-449,135,880,-32,35,11
2986,-433,88,939,-45,-35,-3
2987,30,-50,1084,-67,-96,-4
2988,431,-127,1029,-22,-72,5
2989,216,-56,741,-4,-10,21
2990,-898,-1158,424,-242,-182,212
2991,198,-1152,1207,-90,-120,341
2992,-657,175,264,1053,-71,1
2993,36,801,929,339,-245,-128
2994,1070,862,1572,206,-140,-83
2995,141,173,907,-368,-74,-20
2996,855,-379,-20,-99,4,-189
2997,434,903,1617,585,119,-161
2998,-331,269,707,-418,205,-94
2999,-231,-161,450,-314,92,47
3000,-629,894,1370,235,64,-4
3001,-85,240,1419,-505,-2,-9
3002,213,-625,657,-462,-11,47
3003,151,-318,868,14,32,71
3004,67,-286,1210,-139,35,71
3005,-185,-628,638,-159,70,-4
3006,-264,-271,1127,169,14,-39
3007,-77,-12,1001,101,-32,-11
3008,-4,95,1061,95,-48,-19
3009,65,179,929,105,-35,-40
3010,-23,264,1025,41,-18,-7
3011,-75,180,980,-35,-11,-8
3012,123,62,971,-53,-30,-2
3013,284,-10,1001,-49,-4,19
3014,339,0,1044,-53,38,20
3015,181,30,1078,-57,88,-4
3016,-265,-69,992,-105,101,-4
3017,-523,-115,822,-60,44,16
3018,-429,-135,971,-30,-29,-1
3019,2,-320,921,-46,-79,-27
3020,457,-256,1042,79,-67,-12
3021,446,13,1076,120,2,7
3022,198,225,1021,78,59,3
3023,-214,288,969,-1,84,-8
3024,-491,215,957,-61,41,-4
3025,-289,27,962,-100,-34,-2
3026,126,-178,1012,-92,-64,-12
3027,441,-254,997,-31,-37,-2
3028,386,-158,1014,23,26,17
3029,-31,-37,1003,27,82,14
3030,-385,-6,935,10,64,9
3031,-455,-68,857,-3,-4,15
3032,-167,-64,989,46,-66,2
3033,309,-48,1068,52,-80,-11
3034,402,46,1066,73,-22,0
3035,210,186,1034,44,28,5
3036,-61,232,941,-5,54,-6
3037,-364,161,963,-73,48,-6
3038,-300,-52,938,-114,-18,11
3039,56,-171,1018,-49,-59,0
3040,304,-206,1038,-11,-37,-6
3041,344,-168,979,13,6,14
3042,-4,-8,984,52,56,23
3043,-360,87,959,24,46,0
3044,-374,23,908,-12,-14,-4
3045,-111,8,988,15,-65,2
3046,331,-9,1095,13,-75,0
3047,427,-42,1025,-5,-11,6
3048,199,99,1020,30,44,9
3049,-146,131,1000,-34,63,5
3050,-437,11,881,-79,37,11
3051,-324,-103,929,-53,-30,2
3052,89,-215,1002,-24,-74,-12
3053,345,-351,179,73,59,-4
3054,31,97,1532,178,-23,-36
3055,433,-264,-158,-87,7,45
3056,-693,392,1323,243,88,-38
3057,22,213,668,-25,-62,-11
3058,302,-37,815,-154,-27,79
3059,-112,291,1306,176,23,-57
3060,598,-69,900,-226,-12,19
3061,-360,33,1061,17,100,42
3062,-227,1,848,-70,1,-6
3063,-354,-276,1014,-125,1,15
3064,-212,-340,781,12,-65,-18
3065,471,-184,1134,108,-86,-6
3066,373,12,1065,88,-1,19
3067,284,184,981,72,45,4
3068,-265,333,1132,30,74,8
3069,-498,240,833,-75,24,8
3070,-303,28,986,-103,-48,-3
3071,123,-217,950,-92,-84,-2
3072,535,-305,1065,-29,-50,2
3073,398,-194,1039,42,32,5
3074,33,47,998,70,77,22
3075,-447,181,949,15,66,28
3076,-539,120,867,-26,-5,2
3077,-200,-10,972,-42,-76,-14
3078,346,-113,1058,-18,-95,-9
3079,619,-99,1059,9,-29,8
3080,354,25,1068,23,59,14
3081,-186,76,978,-23,96,20
3082,-578,69,884,-32,52,13
3083,-482,-14,879,-43,-35,-4
3084,-27,-166,977,-42,-98,-8
3085,510,-200,1076,24,-86,-6
3086,541,-54,1066,60,1,0
3087,174,111,1057,43,72,8
3088,-321,182,945,-8,79,24
3089,-563,144,881,-38,20,11
3090,-339,-46,918,-82,-57,-15
3091,180,-189,1028,-33,-100,-13
3092,537,-152,1080,26,-56,4
3093,414,-40,1040,32,26,7
3094,-42,67,1012,20,77,13
3095,-456,126,915,-4,53,16
3096,-487,58,882,-37,-16,-3
3097,-163,-93,960,-50,-85,-11
3098,374,-132,1090,15,-96,-5
3099,500,-66,1063,25,-27,2
3100,225,38,1025,31,43,-2
3101,-192,106,961,-2,60,11
3102,-541,133,856,-19,23,10
3103,-412,72,966,-47,-60,2
3104,124,-120,1031,-71,-111,-4
3105,542,-150,1087,14,-70,-3
3106,510,-101,1006,-11,12,8
3107,123,0,1004,23,79,14
3108,-358,35,928,-27,85,17
3109,-575,11,893,-8,18,4
3110,-303,-24,976,-15,-69,-4
3111,-1126,-799,-157,-47,-223,79
3112,1005,-1544,1749,-399,-386,433
3113,141,-68,590,1314,19,88
3114,-580,965,165,371,-210,-33
3115,813,1087,1198,410,-216,-157
3116,308,1243,1382,-185,-117,-153
3117,362,-300,-405,-775,17,-402
3118,1609,844,1073,336,155,-558
3119,212,638,1377,-370,386,-416
3120,103,-641,-91,-816,296,-27
3121,-1094,612,1546,173,223,167
3122,-1495,-22,1001,-494,63,1
3123,-495,-1549,307,-675,-129,-35
3124,68,-890,1071,267,-182,-25
3125,898,-283,1258,245,-178,-10
3126,664,-351,650,67,4,58
3127,244,453,978,427,103,39
3128,-250,787,1511,197,89,-9
3129,-431,218,673,-208,52,-12
3130,-387,332,1123,43,-24,-15
3131,176,153,1113,-139,-76,5
3132,350,-242,894,-194,-30,38
3133,31,-203,1022,-33,13,12
3134,-50,-254,924,-78,7,33
3135,-242,-294,874,-35,12,25
3136,-3,-307,923,40,-13,-28
3137,239,-269,1019,79,-13,-16
3138,195,-41,1050,147,16,-7
3139,70,297,1097,147,41,4
3140,-261,378,941,13,45,20
3141,-336,269,957,-44,2,2
3142,-99,26,1018,-104,-40,-13
3143,210,-180,1002,-81,-51,-13
3144,413,-184,1027,-14,-19,3
3145,284,-111,989,6,39,26
3146,-88,-81,972,-10,79,28
3147,-405,-134,951,-4,56,14
3148,-420,-237,825,2,-8,17
3149,-71,-161,1019,109,-64,6
3150,376,-83,1052,100,-63,-6
3151,363,77,1019,125,0,8
3152,76,336,1111,121,34,12
3153,-200,385,945,13,32,-2
3154,-304,306,880,-53,21,-9
3155,-187,104,1038,-134,-20,12
3156,182,-173,1045,-133,-59,17
3157,384,-232,1020,-44,-16,2
3158,222,-190,1000,-20,35,8
3159,-58,-182,919,-14,59,36
3160,-458,-39,918,51,46,21
3161,-434,-32,951,19,-21,-18
3162,-56,-94,955,29,-86,-8
3163,372,52,1110,104,-81,9
3164,423,69,1062,23,-20,19
3165,198,187,947,44,34,12
3166,-126,105,156,24,145,-20
3167,-1371,274,1299,18,23,-39
3168,357,-343,616,-191,-229,26
3169,545,-412,728,-93,-68,25
3170,725,94,1212,292,9,-14
3171,963,-103,863,-112,58,74
3172,-668,509,1021,258,225,21
3173,-881,344,1096,-147,62,-16
3174,-680,-107,722,-173,-47,25
3175,-162,-43,1013,-3,-140,-5
3176,910,-482,1096,-142,-128,-13
3177,675,-437,999,62,25,10
3178,198,48,1065,166,97,-3
3179,-372,172,1029,17,101,40
3180,-737,236,769,-35,34,34
3181,-394,66,1013,-53,-68,-33
3182,250,-125,1037,-41,-106,-28
3183,643,-21,1079,42,-56,6
3184,526,40,1061,-18,39,17
3185,-62,27,969,-46,106,30
3186,-614,22,923,-40,74,11
3187,-536,-56,906,-34,-22,-6
3188,-68,-135,935,-19,-89,3
3189,502,-154,1057,25,-82,0
3190,540,-63,1076,46,4,1
3191,120,117,1057,52,76,5
3192,-318,201,952,-5,70,23
3193,-528,135,877,-51,16,19
3194,-277,-81,937,-86,-55,-11
3195,226,-251,1031,-38,-85,-18
3196,514,-165,1061,48,-38,1
3197,367,13,1038,50,36,14
3198,-104,100,994,6,80,21
3199,-518,89,901,-24,49,9
3200,-446,1,920,-32,-31,-14
3201,-24,-104,975,-22,-89,-10
3202,481,-119,1064,19,-75,1
3203,498,-38,1067,33,2,1
3204,128,74,1044,27,70,4
3205,-314,134,945,-12,68,17
3206,-497,90,888,-33,15,11
3207,-293,-79,910,-71,-53,-4
3208,175,-197,1043,-13,-91,-15
3209,496,-133,1078,43,-48,-2
3210,346,7,1020,45,25,7
3211,-52,117,1005,24,64,12
3212,-533,190,887,1,41,14
3213,-520,110,940,-58,-37,-2
3214,-98,-78,988,-65,-114,-14
3215,497,-146,1079,-10,-105,-2
3216,569,-106,1039,-2,-20,11
3217,302,-15,1008,16,57,5
3218,-198,42,961,-11,88,13
3219,-577,70,907,-11,46,15
3220,-394,-42,922,-46,-41,-1
3221,43,-117,1021,4,-88,-13
3222,241,-50,832,34,-72,2
3223,-860,-993,223,-155,-263,195
3224,568,-1208,1222,-284,-165,392
3225,-651,131,93,1247,-28,50
3226,-375,1106,685,483,-283,-45
3227,780,1270,1491,273,-216,-87
3228,55,780,1075,-467,-181,-70
3229,879,-368,144,-523,-112,-305
3230,971,430,1631,285,102,-251
3231,-271,80,627,-495,195,-55
3232,662,-838,449,-399,105,113
3233,374,-262,864,222,265,289
3234,-468,840,1344,153,335,317
3235,-667,315,1586,-338,107,42
3236,-625,-961,-258,-566,90,-97
3237,-943,30,1301,416,-30,18
3238,113,-331,937,-262,-179,56
3239,315,-667,774,-13,-88,-24
3240,316,70,1182,335,-31,-107
3241,672,-2,1178,-17,-31,-27
3242,256,215,715,136,77,-8
3243,-173,727,1200,128,112,-36
3244,-590,399,1186,-209,66,-5
3245,-474,-17,669,-231,-21,8
3246,-119,-90,1131,-53,-79,-18
3247,439,-463,959,-199,-87,7
3248,521,-509,907,-20,-20,35
3249,299,-120,1004,147,61,17
3250,-97,-54,1072,20,102,12
3251,-496,-17,807,50,66,23
3252,-485,197,1005,102,-10,-3
3253,-114,120,1097,-12,-70,-39
3254,463,-18,956,-21,-72,-17
3255,507,156,1102,56,-3,12
3256,231,136,1042,-60,67,18
3257,-259,-40,939,-112,94,17
3258,-526,-99,893,-42,41,2
3259,-255,-177,950,-41,-35,-7
3260,130,-278,950,-8,-61,-11
3261,456,-144,1047,94,-32,-6
3262,305,53,1063,79,36,9
3263,-57,108,1020,33,68,18
3264,-405,37,855,-27,47,45
3265,-375,15,988,25,-14,18
3266,-65,-133,946,-25,-63,-15
3267,327,-88,1041,76,-61,-8
3268,396,85,1101,70,-12,10
3269,140,173,964,26,41,14
3270,-208,228,986,-15,58,6
3271,-418,85,950,-86,18,3
3272,-204,-95,933,-77,-43,3
3273,157,-191,1036,-30,-66,-6
3274,422,-183,1037,11,-31,7
3275,278,-78,978,29,30,18
3276,-108,69,1009,50,62,8
3277,-412,95,918,-6,36,9
3278,-374,42,933,-17,-27,4
3279,-18,-45,1011,-12,-78,-6
3280,410,-78,1069,12,-65,-1
3281,420,-14,1029,16,0,9
3282,152,86,1007,16,53,10
3283,-244,110,969,-33,66,11
3284,-246,-215,398,-56,45,9
3285,-838,-92,486,109,68,-60
3286,446,-320,594,24,-207,-5
3287,581,-305,552,27,7,48
3288,307,478,1335,377,6,-30
3289,703,110,361,-185,59,41
3290,-741,527,1401,127,170,30
3291,-658,377,868,-133,6,-27
3292,-111,-151,931,-263,-64,37
3293,-28,-193,1010,-9,-58,-18
3294,833,-414,940,-117,-65,16
3295,66,-266,1130,56,80,31
3296,-161,-118,751,32,56,-1
3297,-489,23,1113,65,27,22
3298,-306,46,792,21,-47,7
3299,266,85,1189,50,-79,-20
3300,426,94,1038,8,-26,1
3301,337,205,1039,7,36,17
3302,-146,184,1050,-76,71,18
3303,-442,-31,823,-129,39,18
3304,-360,-212,961,-86,-26,0
3305,62,-318,941,-21,-73,-4
3306,461,-238,1043,49,-47,10
3307,382,-15,1051,94,23,14
3308,-5,185,1031,61,70,19
3309,-428,229,947,-12,54,14
3310,-433,133,892,-43,-16,2
3311,-89,-41,982,-69,-72,-5
3312,384,-212,1048,-47,-72,-7
3313,510,-185,1042,14,-5,4
3314,193,-5,1052,49,65,12
3315,-255,82,952,-4,75,23
3316,-530,70,880,-17,25,13
3317,-374,-45,901,-41,-51,-12
3318,100,-169,1010,-13,-96,-20
3319,531,-106,1089,58,-64,-4
3320,450,32,1061,45,18,5
3321,37,122,1051,17,75,9
3322,-387,139,909,-27,62,16
3323,-514,56,877,-45,-2,2
3324,-246,-115,907,-65,-75,-9
3325,267,-180,1075,8,-100,-10
3326,504,-102,1075,38,-41,-2
3327,306,6,1025,36,32,-2
3328,-105,126,1005,26,62,11
3329,-515,734,1167,-143,16,12
3330,-283,260,738,-1648,-127,-4
3331,217,37,776,179,-7,-10
3332,297,84,13,-104,-18,20
3333,153,249,1172,511,41,-79
3334,44,38,637,200,48,-2
3335,-265,262,777,474,2,106
3336,-602,169,1394,67,-4,-18
3337,-976,-1168,-204,-376,-190,19
3338,484,-1641,1781,84,-328,332
3339,331,-374,767,1234,-78,114
3340,491,696,915,597,-133,-134
3341,646,331,1372,289,6,-280
3342,232,-168,750,58,-10,-77
3343,-274,341,526,583,66,-43
3344,-611,1392,1588,471,-12,-10
3345,-387,440,779,-302,-86,-55
3346,264,198,692,29,-115,-29
3347,172,854,1273,163,-73,53
3348,163,425,803,-360,15,87
3349,47,362,900,-275,8,79
3350,183,407,1065,-305,22,44
3351,359,412,992,-410,40,69
3352,527,187,1464,-504,111,31
3353,411,-579,1015,-624,211,26
3354,-423,-709,924,-311,217,85
3355,-871,-1029,911,-256,94,59
3356,-743,-1084,590,-64,-8,25
3357,-381,-754,835,165,-98,-28
3358,519,-346,1211,284,-140,-69
3359,386,145,1108,302,-47,-30
3360,56,603,1008,299,-32,-38
3361,21,705,1025,139,-31,-50
3362,-163,602,866,-37,9,-25
3363,115,455,1106,-127,-13,24
3364,409,171,1163,-222,6,44
3365,443,15,973,-210,75,30
3366,120,-235,1108,-240,128,37
3367,-392,-505,847,-208,113,56
3368,-639,-439,857,-41,54,20
3369,-503,-432,860,-18,-28,-27
3370,-39,-524,750,47,-97,-30
3371,498,-78,1249,278,-98,-18
3372,480,232,1110,148,-8,-15
3373,131,371,987,72,53,-32
3374,-110,510,1048,59,51,-38
3375,-281,178,864,-165,35,18
3376,-301,16,1013,-93,-10,46
3377,160,-206,1082,-105,-55,-3
3378,281,-311,915,-40,-7,-13
3379,207,-158,1002,50,19,23
3380,-64,-51,937,25,44,37
3381,-445,47,960,47,37,-2
3382,-313,-15,921,1,-36,-21
3383,45,23,1040,58,-82,3
3384,372,48,1084,36,-59,12
3385,367,69,1003,7,1,27
3386,112,223,1016,25,48,8
3387,-185,132,1005,-91,62,-19
3388,-397,-71,852,-104,21,12
3389,-225,-125,994,-41,-39,16
3390,138,-250,1043,-38,-64,-13
3391,380,-235,973,31,-28,-1
3392,233,-4,1022,86,24,20
3393,-105,143,1000,48,50,10
3394,-292,81,839,-7,34,1
3395,-606,-47,67,81,108,-26
3396,-58,1,1154,64,-193,-36
3397,844,-556,-34,-135,-61,55
3398,224,411,1390,350,48,-6
3399,660,186,581,-67,23,-1
3400,-143,159,948,-103,158,53
3401,-1079,430,1095,108,100,-32
3402,-101,-126,799,-322,-94,24
3403,-197,-193,1142,26,-46,-1
3404,741,-292,857,-67,-88,-1
3405,399,-262,1244,20,45,28
3406,-152,-92,751,45,86,0
3407,-390,111,1085,77,43,14
3408,-484,90,829,-20,-25,22
3409,84,38,1029,17,-77,-14
3410,409,1,1158,-1,-53,-13
3411,446,67,994,10,10,10
3412,35,154,1086,-25,72,21
3413,-362,41,853,-90,59,22
3414,-483,-111,912,-84,-1,4
3415,-147,-240,946,-30,-66,-11
3416,370,-207,1033,36,-81,5
3417,483,-52,1071,69,-8,14
3418,211,115,1040,54,60,13
3419,-304,201,984,-2,74,14
3420,-506,156,900,-39,15,7
3421,-283,-3,904,-69,-56,-2
3422,175,-178,1037,-53,-87,-8
3423,516,-236,1053,-4,-45,-3
3424,360,-73,1058,57,33,3
3425,-61,86,1001,31,73,17
3426,-418,105,902,-19,50,20
3427,-493,23,862,-35,-19,-5
3428,-142,-101,978,-28,-85,-22
3429,378,-130,1087,23,-94,-10
3430,520,-40,1052,36,-24,3
3431,258,69,1059,32,50,1
3432,-220,113,976,-14,72,11
3433,-505,82,876,-29,26,6
3434,-390,-30,874,-51,-49,-9
3435,43,-140,1034,-27,-99,-11
3436,448,-155,1083,20,-77,-5
3437,413,-36,1031,48,-2,-5
3438,65,100,1024,39,49,-1
3439,-356,194,870,1,44,11
3440,-502,247,957,-18,-15,16
3441,-204,15,1007,-122,-84,-4
3442,376,-177,1068,-56,-99,-9
3443,579,-139,1054,-36,-26,14
3444,425,-107,1008,-63,58,8
3445,-134,-163,885,4,110,13
3446,-648,100,946,92,58,23
3447,-1563,-688,-195,-114,-176,85
3448,601,-1411,1765,-330,-406,338
3449,195,-105,636,1319,-85,-1
3450,-23,938,513,349,-275,-92
3451,886,1081,1602,264,-210,-152
3452,275,598,945,-412,-125,-149
3453,81,-472,-348,-379,-49,-396
3454,1175,747,1065,489,76,-513
3455,440,623,1438,-300,308,-377
3456,456,-796,211,-701,339,-252
3457,-268,294,1307,211,235,11
3458,-1382,914,1267,-1,197,87
3459,-1060,-360,812,-659,-27,-9
3460,-487,-946,522,-218,-124,-17
3461,478,-668,1225,87,-194,2
3462,874,-727,1008,38,-80,27
3463,427,-59,906,314,18,75
3464,90,631,1108,301,50,6
3465,-280,562,986,-30,95,-72
3466,-564,407,944,-78,48,-71
3467,-140,258,1150,-103,-60,11
3468,266,0,1006,-155,-58,51
3469,354,-212,973,-134,-3,30
3470,301,-419,970,-90,32,25
3471,-229,-350,925,-3,81,21
3472,-456,-214,934,50,35,-7
3473,-253,-176,868,48,-31,-2
3474,42,13,1024,134,-67,-7
3475,398,121,1137,88,-47,-26
3476,310,199,1042,59,14,-8
3477,44,340,981,43,48,6
3478,-206,268,989,-65,53,18
3479,-371,-14,945,-144,18,9
3480,-90,-273,963,-101,-33,-14
3481,216,-311,1014,-12,-44,-9
3482,358,-201,993,36,-8,15
3483,176,-36,998,39,45,23
3484,-238,71,974,30,70,2
3485,-408,106,939,10,22,-10
3486,-221,81,952,-12,-37,-3
3487,170,6,1029,-25,-67,-1
3488,459,-110,1075,-39,-28,5
3489,310,-114,993,-13,38,20
3490,-45,28,999,42,74,20
3491,-394,63,898,-14,55,18
3492,-480,12,891,-12,-6,6
3493,-158,-88,1001,-19,-75,-11
3494,328,-99,1073,41,-86,-12
3495,468,-19,1065,40,-24,8
3496,264,90,965,36,33,24
3497,-106,218,1008,13,70,10
3498,-459,101,965,-81,47,-6
3499,-325,-77,875,-77,-26,2
3500,27,-126,1040,-19,-71,1
3501,392,-189,1036,-15,-53,0
3502,578,-311,535,29,33,13
3503,-496,122,1197,168,142,-25
3504,-133,0,707,-32,-52,13
3505,-338,-79,552,-6,21,9
3506,-244,328,1433,225,-76,-58
3507,879,-196,613,-197,-94,49
3508,214,233,1247,163,66,56
3509,88,401,1149,1,66,-40
3510,-136,-76,830,-253,65,31
3511,-823,43,874,19,51,15
3512,-110,-261,942,-162,-86,-14
3513,149,-523,1000,-48,-68,-2
3514,517,-255,946,138,-46,-5
3515,431,75,1233,134,34,15
3516,-154,198,881,36,87,24
3517,-470,341,976,50,47,6
3518,-454,209,988,-74,-26,-3
3519,9,-60,920,-104,-82,-7
3520,503,-172,1109,-39,-67,-3
3521,516,-172,1029,-19,15,9
3522,104,-81,1023,3,84,17
3523,-404,33,918,15,80,21
3524,-575,68,881,-2,9,12
3525,-285,-47,926,-31,-67,-6
3526,282,-103,1038,18,-97,-8
3527,582,-22,1111,47,-39,3
3528,400,86,1061,22,43,10
3529,-110,154,993,-16,91,22
3530,-524,119,914,-56,57,18
3531,-500,-56,873,-86,-22,-3
3532,-75,-215,965,-49,-87,-10
3533,462,-227,1060,24,-87,-1
3534,518,-109,1057,55,-7,7
3535,173,77,1042,63,66,9
3536,-315,185,968,11,72,19
3537,-541,145,878,-33,16,9
3538,-302,-6,917,-59,-59,-9
3539,195,-136,1047,-32,-97,-11
3540,530,-155,1077,5,-51,-2
3541,388,-46,1034,31,29,5
3542,-52,71,1021,17,75,16
3543,-448,81,885,-19,53,17
3544,-487,14,890,-30,-16,-5
3545,-113,-103,977,-32,-85,-13
3546,403,-136,1073,16,-89,-4
3547,496,-53,1054,39,-18,1
3548,220,79,1048,41,51,4
3549,-238,136,967,-13,70,15
3550,-495,90,868,-35,25,8
3551,-326,-30,922,-54,-47,-8
3552,118,-149,1037,-30,-91,-9
3553,168,-102,758,25,-66,2
3554,-482,-774,601,-100,-200,141
3555,324,-705,1314,-117,-106,274
3556,-639,406,320,852,-31,-74
3557,-108,857,746,169,-213,-309
3558,790,870,1732,43,-109,-337
3559,388,-248,766,-589,-36,-291
3560,707,-440,131,-21,41,-225
3561,760,487,1786,304,151,30
3562,-457,240,491,-362,229,137
3563,-327,297,1075,-16,108,61
3564,-1016,-31,1205,-304,84,-36
3565,-357,-622,659,-238,-77,-31
3566,331,-560,1050,3,-116,27
3567,430,-249,994,171,-54,44
3568,384,-237,879,20,11,98
3569,-255,353,1035,259,65,67
3570,-320,459,1269,28,11,-63
3571,-64,-89,665,-197,-21,-51
3572,121,124,1154,98,-31,24
3573,303,161,1120,-68,-22,31
3574,131,-38,983,-113,38,-4
3575,-174,-141,862,-82,56,-7
3576,-285,-113,976,-18,14,26
3577,-200,-260,913,-67,-23,0
3578,119,-250,977,61,-44,-33
3579,342,-37,1085,101,-26,2
3580,236,173,1011,82,22,19
3581,-74,278,1030,23,57,0
3582,-350,187,958,-61,40,-5
3583,-276,28,961,-84,-13,-1
3584,34,-133,975,-72,-50,-2
3585,384,-224,1022,-32,-36,-1
3586,355,-169,1009,18,21,7
3587,44,-4,1021,48,71,10
3588,-341,85,949,10,65,11
3589,-458,76,900,-3,11,2
3590,-192,-16,956,-26,-50,-14
3591,243,-103,1044,-5,-72,-15
3592,490,-76,1056,27,-27,2
3593,334,46,1036,34,41,13
3594,-84,51,1008,-18,82,26
3595,-494,-9,854,-44,54,33
3596,-467,-35,942,5,-21,-2
3597,-97,-135,944,-14,-82,-18
3598,399,-114,1084,56,-84,-3
3599,485,-9,1055,49,-19,12
3600,213,164,1020,63,47,2
3601,-167,206,989,-24,69,-5
3602,-469,92,900,-66,38,7
3603,-307,-3,954,-55,-36,5
3604,86,-164,1034,-65,-71,-11
3605,423,-232,1019,-11,-47,0
3606,356,-83,1000,47,12,19
3607,-7,55,1027,34,62,13
3608,-197,-64,676,-21,56,5
3609,-911,-9,472,98,107,-33
3610,15,2,946,46,-208,-15
3611,692,-368,296,-109,-44,51
3612,319,475,1452,356,3,-20
3613,822,76,543,-189,33,9
3614,-266,205,1159,3,181,51
3615,-957,366,1005,-11,93,-22
3616,-248,-179,796,-273,-61,28
3617,-300,-195,1051,5,-50,-1
3618,723,-351,899,-59,-108,0
3619,441,-280,1214,41,33,19
3620,-12,-60,814,82,75,-2
3621,-354,164,1085,77,56,25
3622,-527,165,829,-7,-1,23
3623,-66,64,1014,-15,-71,-16
3624,355,-18,1128,-17,-69,-14
3625,496,28,1016,5,-9,8
3626,169,85,1081,-28,59,16
3627,-275,13,885,-67,68,22
3628,-525,-81,897,-67,23,9
3629,-259,-198,924,-35,-53,-11
3630,243,-197,987,28,-85,2
3631,498,-46,1110,75,-34,10
3632,323,92,1037,46,38,9
3633,-168,198,1024,10,76,10
3634,-465,188,908,-35,33,13
3635,-361,27,909,-84,-33,4
3636,5,-198,963,-77,-78,-10
3637,475,-251,1065,4,-63,-5
3638,412,-109,1059,46,9,7
3639,86,52,1017,46,65,15
3640,-348,136,938,8,60,24
3641,-522,85,884,-32,4,3
3642,-245,-84,921,-58,-68,-20
3643,261,-123,1059,23,-95,-13
3644,538,-58,1090,30,-43,6
3645,347,22,1037,21,38,3
3646,-104,121,1018,7,75,10
3647,-464,110,901,-37,45,15
3648,-453,-24,868,-61,-25,0
3649,-112,-160,947,-42,-85,-10
3650,396,-158,1121,34,-89,-10
3651,450,-83,1018,29,-21,-2
3652,167,73,1046,61,42,-2
3653,-297,186,942,9,48,13
3654,-555,174,883,-24,-2,6
3655,-306,11,962,-81,-80,-15
3656,269,-137,1061,-28,-114,-15
3657,606,-160,1067,-14,-55,4
3658,447,-67,992,24,29,7
3659,29,34,1010,6,86,13
3660,-507,61,918,-15,76,16
3661,-537,21,913,-19,-8,2
3662,-1153,-340,-122,-24,-137,16
3663,475,-1350,1588,-461,-432,317
3664,380,-857,529,622,-54,176
3665,-328,735,625,889,-202,17
3666,298,948,1217,336,-257,-21
3667,229,759,1162,-74,-167,-2
3668,-208,-191,161,-363,-129,-108
3669,899,317,693,267,-70,-218
3670,559,1061,1812,139,59,-125
3671,252,-302,231,-782,99,-88
3672,478,-352,721,-63,51,10
3673,60,163,967,104,220,129
3674,144,-177,776,-311,290,265
3675,-470,434,1535,79,245,211
3676,-270,85,1334,-299,100,-48
3677,-585,-767,547,-409,99,-101
3678,-575,-270,911,169,-14,54
3679,-29,-232,975,-55,-116,84
3680,-95,-398,911,13,-41,-46
3681,214,-273,1080,130,-65,-93
3682,314,-112,1047,156,-73,-13
3683,274,240,914,217,-24,20
3684,133,574,1061,137,29,-3
3685,-126,513,1092,-64,59,-46
3686,-190,267,960,-154,37,-48
3687,-45,130,996,-139,8,15
3688,164,-86,981,-203,10,69
3689,238,-330,1050,-174,23,46
3690,163,-467,975,-75,60,-11
3691,-241,-343,922,21,81,3
3692,-402,-104,867,88,24,20
3693,-332,6,929,67,-26,2
3694,-90,-25,1015,43,-60,-40
3695,346,21,1078,78,-72,-36
3696,421,175,1115,77,-24,-6
3697,325,218,932,5,35,2
3698,1,288,990,-27,93,2
3699,-507,133,1102,-138,79,-4
3700,-354,-188,801,-147,-14,-1
3701,-107,-220,1021,-25,-47,-2
3702,342,-361,955,-44,-58,2
3703,454,-345,976,46,-2,30
3704,9,11,1040,154,62,10
3705,-272,193,990,76,46,-8
3706,-434,184,858,19,1,12
3707,-224,235,1019,34,-59,3
3708,245,40,1115,-74,-83,-10
3709,463,-76,1026,-33,-30,-2
3710,352,32,1001,-4,29,15
3711,-1,42,1010,-53,77,21
3712,-461,-89,884,-93,65,14
3713,-479,-156,916,-22,-12,-7
3714,-132,-190,994,-1,-74,-9
3715,360,-169,1007,56,-81,2
3716,452,-8,1052,77,-19,13
3717,158,167,1026,73,42,1
3718,-179,222,1002,-6,57,-10
3719,-408,138,894,-47,22,6
3720,-219,48,978,-61,-39,12
3721,249,-236,907,-82,-60,-3
3722,-89,-263,264,97,80,-37
3723,-71,-64,1079,150,-103,-26
3724,538,-290,396,-92,-24,32
3725,-228,271,1206,134,57,-7
3726,289,2,585,-19,-17,0
3727,18,265,1206,92,45,59
3728,-290,420,1045,38,46,-27
3729,217,-31,1016,-219,-20,8
3730,-302,38,950,22,37,32
3731,-31,-97,947,-119,-24,9
3732,-131,-468,978,-138,-8,-2
3733,62,-403,799,49,-37,-6
3734,281,-125,1173,130,-22,8
3735,204,37,963,90,15,18
3736,17,310,1052,106,49,6
3737,-315,359,1058,-9,39,0
3738,-298,211,925,-117,-11,8
3739,-85,0,977,-153,-47,2
3740,289,-283,938,-107,-54,0
3741,428,-270,1061,8,-3,12
3742,190,-103,1037,47,55,14
3743,-181,27,965,25,71,25
3744,-472,126,898,16,35,20
3745,-395,63,921,-19,-32,-4
3746,13,-81,995,-26,-83,-12
3747,455,-82,1071,27,-69,-2
3748,516,3,1077,21,6,10
3749,149,74,1037,-1,75,15
3750,-355,110,941,-30,79,17
3751,-573,54,901,-49,17,6
3752,-319,-122,881,-73,-63,-5
3753,178,-236,1012,-10,-99,-8
3754,566,-183,1085,52,-55,-3
3755,414,-16,1059,60,30,1
3756,-30,148,1017,44,78,11
3757,-426,216,922,-5,55,20
3758,-517,108,889,-56,-11,0
3759,-157,-92,956,-69,-80,-17
3760,359,-167,1074,-6,-91,-7
3761,541,-119,1056,17,-24,6
3762,294,-17,1026,27,52,7
3763,-202,94,988,12,79,17
3764,-523,96,898,-22,36,12
3765,-417,-24,876,-48,-41,-5
3766,2,-117,1014,-13,-95,-11
3767,483,-114,1096,28,-79,-4
3768,452,-30,1033,27,1,0
3769,105,102,1031,37,58,2
3770,-291,146,936,-19,58,14
3771,-555,98,851,-40,8,3
3772,-343,18,987,-47,-75,-7
3773,-197,-128,569,-47,-126,-2
3774,-292,-1421,595,-325,-380,263
3775,690,-1152,1003,91,-95,315
3776,-450,366,294,1214,-45,8
3777,-154,753,542,290,-240,-41
3778,854,1046,1527,312,-144,-44
3779,82,229,869,-474,-23,-17
3780,851,-412,-212,-232,96,-208
3781,450,1358,1745,719,137,-152
3782,-125,356,744,-606,110,-23
3783,-44,-310,-138,-393,126,0
3784,-737,1068,1407,286,127,-56
3785,-220,-153,1511,-844,70,-13
3786,-49,-1124,555,-550,-6,78
3787,128,-301,1005,225,-7,2
3788,188,-501,1200,-184,3,20
3789,-97,-737,373,-50,48,43
3790,-481,167,1301,378,24,-41
3791,-375,195,1082,27,-57,-76
3792,67,9,882,46,-113,-34
3793,394,305,1042,206,-95,11
3794,493,367,1074,-3,-16,47
3795,194,273,1022,-83,69,-25
3796,25,213,1026,-98,88,-64
3797,-269,-52,967,-208,80,13
3798,-327,-285,893,-153,17,49
3799,-37,-383,1032,-54,-22,-4
3800,97,-419,948,-8,-10,-26
3801,185,-171,938,115,-4,11
3802,-46,106,1003,109,20,18
3803,-243,160,988,43,21,-16
3804,-128,91,980,-8,-18,-19
3805,98,108,1024,27,-43,-5
3806,359,112,1078,-7,-24,7
3807,271,37,1014,-60,36,13
3808,-83,-1,996,-63,71,8
3809,-356,-59,928,-67,45,5
3810,-358,-146,893,-49,-8,-2
3811,-57,-239,940,-23,-50,-11
3812,322,-221,1033,48,-56,-12
3813,395,-45,1061,91,0,-1
3814,181,169,1046,84,53,9
3815,-202,251,970,7,69,18
3816,-429,91,946,-64,29,16
3817,-302,-141,892,-79,-32,8
3818,92,-223,1017,9,-69,-9
3819,414,-174,1020,51,-47,1
3820,356,10,1043,84,14,17
3821,0,173,1011,49,64,10
3822,-356,216,956,-2,53,-1
3823,-431,117,911,-55,-9,1
3824,-128,-31,998,-57,-65,0
3825,310,-165,1056,-45,-74,-1
3826,455,-165,1025,4,-18,5
3827,250,-25,1011,34,46,9
3828,-166,54,959,2,73,14
3829,-482,51,895,-17,35,13
3830,-374,-7,942,-20,-36,-2
3831,38,-96,1016,-9,-84,-12
3832,441,-94,1073,32,-64,0
3833,412,7,1022,33,4,15
3834,98,129,997,28,58,8
3835,-290,126,985,-38,66,3
3836,-458,14,881,-65,13,7
3837,-198,-85,984,-43,-55,0
3838,232,-184,1053,-19,-76,-8
3839,441,-157,1018,24,-24,7
3840,239,7,1014,53,33,11
3841,-132,108,990,21,61,6
3842,-415,86,900,-24,34,8
3843,-334,28,954,-24,-30,0
3844,58,-86,1022,-27,-78,-7
3845,396,-105,1068,12,-52,-1
3846,373,-13,1020,23,9,10
3847,66,75,985,12,57,9
3848,-235,-240,-38,-24,119,7
3849,-857,195,1116,197,37,-66
3850,10,-403,-22,-111,-167,29
3851,405,52,1384,139,-63,-22
3852,752,7,746,96,-56,-11
3853,831,38,493,-34,75,104
3854,-670,901,1659,335,202,-5
3855,-549,178,534,-381,31,-12
3856,-675,-72,1017,-124,-19,29
3857,-96,-227,912,-99,-116,-25
3858,865,-563,1065,-94,-106,17
3859,406,-339,1057,83,38,19
3860,159,-68,981,100,79,1
3861,-536,133,1053,44,83,32
3862,-560,224,741,9,-11,10
3863,-105,119,1134,-23,-80,-16
3864,387,-26,991,-32,-84,-9
3865,588,48,1142,12,-13,4
3866,256,76,1039,-43,68,21
3867,-249,33,899,-76,85,36
3868,-594,-67,908,-75,39,16
3869,-341,-208,900,-51,-48,-9
3870,160,-250,989,0,-89,-1
3871,534,-120,1064,83,-51,9
3872,414,73,1079,65,31,14
3873,-110,204,1025,22,85,13
3874,-444,205,908,-39,49,14
3875,-441,94,912,-62,-22,7
3876,-57,-132,960,-93,-76,-5
3877,419,-259,1054,-29,-73,-8
3878,461,-157,1061,40,-3,2
3879,170,14,1028,45,61,16
3880,-276,114,957,10,70,25
3881,-497,80,875,-34,19,15
3882,-352,-69,894,-54,-50,-7
3883,130,-136,1032,11,-98,-17
3884,439,-35,1040,57,-60,-1
3885,-766,-646,280,-53,-106,102
3886,406,-974,1488,-400,-184,350
3887,-235,191,421,1054,40,-65
3888,-407,986,540,271,-123,-292
3889,628,691,1527,83,-148,-280
3890,806,92,1041,-350,-73,24
3891,56,347,222,105,103,102
3892,224,1280,1744,125,47,63
3893,-139,-180,573,-846,113,-31
3894,-259,-610,606,-263,106,4
3895,-479,-455,1306,-108,0,69
3896,-46,-912,724,-195,-50,15
3897,73,-619,882,158,-22,-37
3898,296,-47,1065,286,-34,3
3899,24,242,1038,128,17,25
3900,-345,464,1002,124,29,-58
3901,-154,456,1100,12,-44,-38
3902,68,212,895,-116,-52,20
3903,397,147,1126,-67,-34,34
3904,380,-61,1076,-168,24,17
3905,50,-266,937,-124,78,5
3906,-382,-187,914,-25,69,23
3907,-476,-175,891,-35,3,18
3908,-226,-311,892,-24,-49,-20
3909,189,-241,1015,91,-74,-38
3910,465,18,1107,137,-42,-15
3911,362,255,1034,93,23,10
3912,-29,369,1021,19,73,13
3913,-422,258,990,-89,58,5
3914,-409,10,942,-122,-10,-8
3915,-53,-196,967,-97,-65,-9
3916,375,-289,994,-40,-62,1
3917,437,-247,994,18,-2,13
3918,140,-87,1006,64,62,12
3919,-304,58,975,50,71,8
3920,-473,117,897,31,15,9
3921,-258,101,977,12,-49,-8
3922,191,-11,1052,-19,-78,-19
3923,484,-39,1055,9,-41,-4
3924,365,74,1048,16,30,14
3925,-24,88,992,-40,76,25
3926,-424,3,903,-63,60,18
3927,-451,-91,932,-42,-8,-9
3928,-93,-196,963,-26,-65,-16
3929,358,-175,1012,40,-70,-7
3930,467,-18,1065,76,-11,7
3931,183,114,1032,44,57,13
3932,-260,178,981,-1,72,11
3933,-464,139,921,-34,23,6
3934,-242,-16,955,-68,-40,-7
3935,172,-168,999,-45,-69,-11
3936,459,-166,1064,10,-33,-1
3937,332,-59,1014,32,31,12
3938,-53,47,993,20,75,20
3939,-421,59,914,-10,57,18
3940,-417,-51,947,-23,-8,0
3941,-123,-212,909,-29,-68,4
3942,371,-130,1082,96,-78,3
3943,446,0,1048,67,-13,5
3944,161,154,1001,70,46,10
3945,-208,251,1015,11,57,5
3946,-442,179,911,-47,22,3
3947,-248,14,948,-84,-40,0
3948,171,-166,1015,-61,-73,-2
3949,479,-374,268,23,39,6
3950,-130,123,1638,148,36,-23
3951,208,-235,98,-114,-23,48
3952,-488,127,1230,124,62,-20
3953,-107,170,853,88,-57,-37
3954,416,-128,796,-163,-43,69
3955,-41,233,1284,206,27,-23
3956,443,112,938,-107,-6,-10
3957,-250,62,1060,-57,85,50
3958,-338,87,836,-26,12,2
3959,-271,-197,1032,-141,-20,7
3960,-153,-400,841,-44,-56,-13
3961,472,-267,1040,96,-74,-9
3962,378,-12,1135,110,3,16
3963,218,137,927,57,55,15
3964,-316,323,1117,52,74,9
3965,-526,239,867,-70,13,-2
3966,-238,9,984,-101,-55,-3
3967,187,-192,960,-74,-83,-3
3968,579,-259,1067,-20,-40,1
3969,372,-162,1039,27,46,9
3970,-59,61,991,62,84,21
3971,-498,165,944,4,58,23
3972,-534,70,864,-35,-14,0
3973,-117,-61,981,-35,-85,-15
3974,418,-136,1059,0,-89,-11
3975,614,-73,1056,31,-15,7
3976,287,70,1066,30,71,17
3977,-271,119,969,-25,95,21
3978,-620,83,888,-36,39,7
3979,-423,-41,908,-50,-49,-10
3980,98,-198,988,-35,-98,-7
3981,571,-205,1062,29,-65,-2
3982,492,-38,1064,67,21,2
3983,44,125,1049,42,83,14
3984,-426,187,915,-8,68,21
3985,-561,134,888,-35,0,2
3986,-224,-62,955,-75,-73,-15
3987,317,-197,1030,-27,-94,-8
3988,572,-134,1074,33,-34,3
3989,342,-4,1047,35,49,9
3990,-166,84,980,7,84,19
3991,-550,121,897,-3,43,12
3992,-446,25,908,-42,-36,-8
3993,-14,-112,985,-35,-94,-10
3994,508,-135,1082,17,-80,-1
3995,499,-38,1056,33,2,3
3996,119,77,1039,26,66,8
3997,-336,131,934,-17,66,21
3998,-541,87,893,-35,12,7
3999,-265,-89,920,-71,-64,-11
4000,238,-179,1047,-4,-94,-7
4001,531,-108,1073,35,-43,4
4002,342,9,1027,32,34,6
4003,-99,105,995,11,71,15
4004,-483,139,916,-15,43,14
4005,-434,24,923,-57,-28,-6
4006,-30,-135,964,-45,-87,-9
4007,451,-132,1087,20,-75,1
4008,470,-57,1044,20,0,6
4009,124,43,1014,19,61,7
4010,-312,123,952,-3,61,18
4011,-507,89,905,-37,10,8
4012,-256,-76,927,-63,-61,-8
4013,225,-150,1050,2,-90,-6
4014,504,-92,1070,22,-42,6
4015,335,13,1018,25,33,9
4016,-79,106,993,5,69,14
4017,-467,118,923,-26,45,16
4018,-422,4,926,-59,-25,-3
4019,-40,-135,972,-38,-82,-11
4020,422,-146,1073,15,-74,1
4021,460,-57,1034,27,-4,10
4022,142,63,1020,26,58,8
4023,-287,117,958,-14,64,15
4024,-501,70,897,-34,13,9
4025,-256,-60,955,-46,-58,-6
4026,203,-156,1038,-11,-85,-8
4027,488,-122,1046,23,-42,6
4028,348,-18,1020,35,31,4
4029,-54,73,992,20,74,7
4030,-460,100,907,-11,50,16
4031,-443,54,940,-17,-24,0
4032,-70,-74,1004,-35,-78,-13
4033,409,-134,1040,5,-75,-4
4034,479,-34,1045,35,-10,8
4035,187,69,1027,16,57,8
4036,-249,86,944,-27,72,10
4037,-511,51,899,-31,24,9
4038,-295,-53,972,-42,-50,-3
4039,157,-175,1014,-23,-83,-9
4040,470,-122,1046,44,-46,3
4041,354,22,1029,43,22,11
4042,-24,108,995,9,67,7
4043,-416,103,922,-21,51,9
4044,-417,37,941,-31,-17,2
4045,-72,-95,999,-45,-70,-7
4046,373,-154,1034,3,-69,-5
4047,436,-52,1042,32,-8,9
4048,151,51,1012,22,52,10
4049,-248,86,949,-14,64,10
4050,-476,53,906,-24,18,9
4051,-248,-50,970,-35,-53,-5
4052,94,-466,123,41,-75,-8
4053,419,-1796,-987,2119,-20,-61
4054,152,1208,1812,4381,-83,-38
4055,-319,1547,1738,-1743,-58,165
4056,-399,-1024,-858,-4096,36,-52
4057,-210,-1377,-1158,-336,-38,-152
4058,164,1306,1294,1382,-196,45
4059,597,1540,1798,256,-91,130
4060,394,232,573,-541,68,99
4061,184,404,726,-62,98,-14
4062,315,929,1339,-27,56,-52
4063,-58,430,736,-584,144,-86
4064,-468,-645,1633,-642,146,-46
4065,-101,-1181,242,-443,3,111
4066,-46,-486,1417,-3,40,42
4067,-86,-834,654,-250,44,-37
4068,2,-634,550,53,-15,77
4069,-399,-318,836,79,-32,123
4070,-172,-151,1419,192,-70,-30
4071,115,135,837,209,-61,-26
4072,90,520,1013,132,-32,-17
4073,495,605,1353,156,-48,-4
4074,123,587,814,-33,33,34
4075,-200,622,1151,-79,59,14
4076,-202,-242,984,-396,7,23
4077,-177,-463,801,-162,-6,12
4078,63,-457,1146,-107,-35,-18
4079,339,-560,830,-95,-23,17
4080,132,-158,964,117,29,40
4081,-186,72,1009,89,44,4
4082,-391,113,958,50,11,-11
4083,-274,212,918,56,-49,-8
4084,148,182,1105,13,-86,-9
4085,461,33,1041,-49,-48,0
4086,361,86,1074,-8,23,0
4087,34,83,1040,-63,65,11
4088,-314,-6,898,-93,58,28
4089,-466,-114,872,-80,8,12
4090,-228,-319,933,-78,-54,-20
4091,210,-373,989,46,-83,-17
4092,451,-346,911,240,-40,3
4093,296,191,1197,294,22,7
4094,-97,252,1012,22,61,12
4095,-436,214,846,13,38,1
4096,-224,223,665,63,-15,-8
4097,-473,291,1207,9,7,-9
4098,521,-207,952,-161,-165,11
4099,823,-421,560,-42,20,32
4100,50,335,1520,256,86,2
4101,235,-155,573,-242,76,46
4102,-782,0,1023,59,109,53
4103,-578,152,963,64,-23,-46
4104,188,-229,1030,-156,-97,16
4105,259,-4,961,138,-37,10
4106,617,80,1123,-4,-12,6
4107,-112,-41,1018,-61,92,20
4108,-367,9,819,-3,41,2
4109,-330,48,1090,-6,-11,10
4110,-34,-165,838,-86,-59,11
4111,395,-134,1102,47,-47,-6
4112,299,17,1096,42,13,1
4113,30,98,959,3,50,16
4114,-311,143,955,-19,45,20
4115,-363,41,901,-59,-7,5
4116,-123,-176,978,-82,-55,-11
4117,307,-184,1033,30,-68,-7
4118,439,-23,1085,45,-11,14
4119,175,50,1012,9,51,13
4120,-246,106,948,-6,64,15
4121,-503,97,942,-28,17,3
4122,-273,-73,886,-71,-54,-8
4123,157,-170,998,-7,-87,-5
4124,490,-133,1104,33,-50,-2
4125,364,-50,1033,29,26,2
4126,-72,125,1015,48,69,10
4127,-384,184,930,-14,41,18
4128,-459,41,865,-67,-17,4
4129,-142,-144,956,-53,-80,-21
4130,370,-166,1100,28,-89,-16
4131,491,-86,1043,31,-20,6
4132,261,47,1028,46,49,9
4133,-203,162,992,18,72,16
4134,-520,117,893,-42,30,8
4135,-391,-33,887,-57,-48,-10
4136,47,-122,1025,-16,-99,-12
4137,445,-135,1086,14,-73,-2
4138,351,-47,1010,27,-4,-1
4139,43,109,1035,44,40,6
4140,-286,147,913,-20,34,15
4141,-382,54,915,-51,-11,3
4142,-118,-106,994,-56,-62,-9
4143,303,-169,1057,0,-71,-5
4144,431,-100,1032,28,-16,6
4145,244,38,1017,40,46,12
4146,-182,107,964,-6,72,17
4147,-490,84,916,-24,32,6
4148,-351,-10,935,-38,-40,-7
4149,72,-118,1017,-22,-85,-5
4150,457,-136,1056,14,-61,4
4151,423,-30,1032,40,10,8
4152,61,94,1025,24,68,5
4153,-332,101,917,-29,65,12
4154,-485,68,899,-28,3,10
4155,-211,-65,997,-50,-62,-7
4156,267,-186,1039,-18,-84,-9
4157,463,-107,1044,41,-30,7
4158,290,43,1028,42,34,10
4159,-105,86,965,-11,72,11
4160,-462,84,904,-18,43,10
4161,-370,14,957,-32,-32,-1
4162,25,-123,1003,-37,-77,-8
4163,380,-225,799,30,-61,2
4164,219,-1743,-1637,2055,-49,-57
4165,-111,290,446,6941,33,-105
4166,-19,247,557,-1448,-190,154
4167,-134,61,441,-2694,-73,34
4168,-315,-1180,-562,-2463,-18,-70
4169,374,-510,-483,421,-254,18
4170,696,938,1379,1454,-162,108
4171,187,604,654,642,37,9
4172,44,333,1363,681,-2,-2
4173,19,427,768,139,9,-56
4174,-285,453,1225,208,16,-81
4175,-83,355,642,-112,-43,-19
4176,197,312,1117,-42,-17,30
4177,264,398,1084,-26,19,54
4178,-12,267,812,-162,52,13
4179,-25,304,1090,-138,42,-42
4180,-26,80,809,-303,36,-51
4181,2,181,1044,-267,50,18
4182,134,314,1007,-335,46,65
4183,175,254,1186,-388,67,35
4184,182,204,962,-452,92,-26
4185,135,10,1089,-520,119,-58
4186,-372,-873,1418,-612,140,-2
4187,-461,-1008,639,-449,34,71
4188,-238,-847,981,-364,-2,3
4189,10,-852,665,-216,-36,-8
4190,277,-297,966,90,-39,49
4191,-136,252,1091,212,11,-27
4192,-224,510,1070,182,-22,-58
4193,-161,419,971,-12,-71,5
4194,101,391,912,-51,-72,50
4195,346,378,1154,-171,-44,58
4196,492,162,1149,-249,21,-7
4197,366,45,1023,-287,81,-24
4198,-233,-96,1020,-335,127,21
4199,-542,-257,881,-370,61,57
4200,-510,-381,830,-328,-10,8
4201,-161,-489,878,-245,-73,-43
4202,407,-335,992,-34,-95,1
4203,420,27,1035,98,-24,28
4204,129,285,1037,77,37,-12
4205,-165,287,981,-8,48,-12
4206,-370,98,794,-10,10,15
4207,-145,108,1136,71,-47,4
4208,225,-105,1067,-114,-59,-5
4209,341,-255,938,-43,-11,0
4210,196,-20,1039,71,32,10
4211,-164,72,994,-6,54,20
4212,-411,-42,824,-52,27,8
4213,-284,-201,307,50,25,-11
4214,-311,78,1704,104,-85,-44
4215,535,-387,211,5,-114,20
4216,511,298,1554,170,-2,16
4217,285,231,763,-23,41,-9
4218,266,75,730,-77,91,42
4219,-874,520,1356,139,115,-2
4220,-210,-62,712,-322,-50,5
4221,-99,-290,1089,-64,-31,16
4222,340,-144,933,53,-61,-1
4223,402,-263,1131,-75,4,27
4224,-181,-223,842,37,64,7
4225,-248,36,966,98,19,0
4226,-305,36,1012,-4,-19,16
4227,120,3,888,20,-61,-2
4228,346,113,1190,64,-32,-11
4229,266,145,1035,-7,19,4
4230,-35,140,992,-46,55,17
4231,-343,99,955,-73,36,15
4232,-295,-131,906,-147,-11,3
4233,-42,-339,935,-89,-50,-9
4234,363,-244,1001,71,-55,0
4235,357,-6,1106,88,7,15
4236,72,113,988,44,57,14
4237,-329,220,977,11,55,13
4238,-462,148,917,-41,2,-1
4239,-143,-39,929,-68,-64,-6
4240,282,-153,1036,-25,-76,-4
4241,501,-172,1074,0,-21,2
4242,261,-70,1025,32,50,8
4243,-195,104,996,39,73,16
4244,-477,112,891,-23,35,15
4245,-414,-10,889,-37,-33,-5
4246,1,-119,1001,-14,-90,-20
4247,482,-133,1084,24,-75,-9
4248,489,-28,1050,42,5,7
4249,125,119,1044,38,68,12
4250,-368,159,958,-19,69,15
4251,-554,65,859,-51,8,0
4252,-260,-75,936,-51,-68,-12
4253,263,-176,1032,-19,-97,-7
4254,545,-157,1068,28,-44,0
4255,345,-3,1054,56,35,1
4256,-130,132,1005,22,74,14
4257,-487,142,892,-22,40,15
4258,-452,50,898,-43,-32,-7
4259,-39,-103,1005,-50,-91,-14
4260,459,-172,1064,-1,-83,-6
4261,499,-71,1048,40,-7,2
4262,183,69,1043,32,59,9
4263,-313,113,939,-19,71,18
4264,-552,84,880,-25,16,2
4265,-307,-32,941,-46,-63,-12
4266,190,-152,1029,-27,-98,-7
4267,522,-142,1058,24,-55,1
4268,398,0,1047,49,23,2
4269,-34,111,1018,15,72,8
4270,-423,117,900,-24,53,10
4271,-470,66,906,-31,-15,-1
4272,-131,-73,1007,-56,-79,-7
4273,366,-172,1045,-16,-84,-3
4274,467,-84,1046,36,-21,7
4275,221,109,970,50,38,13
4276,-331,-1201,-1178,628,42,1
4277,-705,-578,534,5015,-45,-85
4278,-368,1811,1719,2222,-177,62
4279,-176,249,740,-3726,-147,124
4280,542,-1505,-615,-2751,-53,-67
4281,513,-874,-299,86,-89,32
4282,370,1103,1228,1325,-56,69
4283,82,732,1204,456,40,-11
4284,-261,167,882,1,73,-72
4285,-111,263,896,19,20,-44
4286,-9,561,1259,163,-32,11
4287,58,416,998,-88,3,-14
4288,216,227,989,-208,11,6
4289,157,188,814,-243,63,12
4290,-199,247,906,-286,99,8
4291,16,-69,1477,-324,51,0
