sequence,AccelerometerX,AccelerometerY,AccelerometerZ,GyroscopeX,GyroscopeY,GyroscopeZ
0,61,-57,999,-11,-14,-9
1,96,-39,1012,-3,-4,-12
2,61,-2,993,-5,9,-6
3,-7,45,998,-6,25,0
4,-87,45,1001,-19,21,-1
5,-98,-9,990,-28,6,-3
6,-88,-88,975,-21,-9,-5
7,12,-81,999,-8,-21,-11
8,71,-51,1002,2,-12,-13
9,78,20,1006,2,3,-7
10,35,59,1007,-5,16,-3
11,-68,56,1003,-20,21,0
12,-119,0,992,-28,11,-1
13,-108,-47,984,-27,-5,-6
14,7,-83,993,-21,-21,-11
15,81,-79,1000,-10,-18,-12
16,113,-27,1009,-1,-5,-9
17,49,20,1002,-1,14,-4
18,-65,38,1003,-10,24,2
19,-138,21,988,-20,16,1
20,-121,-9,990,-25,-2,-4
21,-7,-52,993,-23,-20,-10
22,83,-66,1003,-15,-22,-11
23,134,-39,1001,-7,-9,-10
24,62,-8,1006,-6,15,-5
25,-54,16,1006,-9,25,0
26,-144,14,982,-18,20,1
27,-126,-3,986,-18,1,-5
28,-36,-41,999,-19,-18,-9
29,83,-47,1004,-15,-24,-12
30,141,-34,1005,-9,-11,-11
31,72,-6,1000,-8,10,-5
32,-35,2,1003,-12,22,-2
33,-139,9,980,-18,22,2
34,-137,-10,999,-22,4,-1
35,-56,-38,992,-19,-15,-8
36,74,-47,1001,-12,-22,-14
37,138,-25,1004,-8,-16,-11
38,88,-6,1006,-9,7,-6
39,-15,9,1004,-14,21,-2
40,-131,6,982,-21,23,3
41,-139,-18,990,-22,7,-2
42,-77,-49,991,-20,-12,-7
43,59,-41,1007,-11,-23,-13
44,130,-26,1004,-7,-16,-13
45,100,-5,1005,-6,1,-7
46,-3,19,1004,-10,18,-2
47,-114,15,990,-20,22,1
48,-144,-25,994,-22,10,-2
49,-96,-46,978,-21,-10,-7
50,43,-49,1002,-13,-25,-12
51,122,-41,1012,-7,-18,-11
52,112,-4,1007,-5,1,-8
53,19,26,1000,-9,19,-5
54,-101,22,997,-17,24,2
55,-147,-14,988,-23,12,1
56,-108,-41,982,-23,-6,-6
57,26,-59,1000,-15,-21,-11
58,106,-52,1005,-6,-19,-10
59,126,-8,1006,-2,-4,-9
60,16,45,933,3,19,-5
61,203,531,595,25,40,4
62,53,106,1728,-122,71,-19
63,-315,95,814,-149,26,43
64,-101,-425,730,-154,27,15
65,-366,-531,723,-41,-2,-32
66,-117,-414,985,53,-47,-9
67,359,-369,1139,114,-50,-78
68,-19,173,1006,117,1,20
69,336,515,1063,87,-15,-5
70,-109,458,1146,-8,54,-4
71,-219,229,859,-92,19,27
72,-100,-95,1075,-106,-3,-8
73,9,-367,985,-82,-20,-34
74,71,-317,863,-24,-21,3
75,139,-193,1077,29,-12,-17
76,-62,0,994,41,15,-1
77,-80,155,981,33,14,9
78,-130,164,1054,0,9,-5
79,-21,67,990,-27,-8,-10
80,96,-39,986,-32,-14,-11
81,67,-126,1020,-23,-9,-11
82,31,-122,976,-5,-4,-8
83,-70,-65,982,8,7,-4
84,-126,-3,1008,12,5,-1
85,-62,33,1004,7,-2,-5
86,38,33,1010,-3,-9,-9
87,85,19,1002,-9,-11,-8
88,82,-14,1012,-12,-5,-10
89,3,-36,986,-12,4,-8
90,-90,-25,985,-11,12,0
91,-92,-37,1011,-11,6,-5
92,-57,-22,979,-9,-1,-4
93,54,12,998,-6,-8,-6
94,100,29,1023,-11,-2,-9
95,64,63,999,-22,6,-6
96,-22,28,990,-33,13,-2
97,-109,-35,994,-34,12,-1
98,-115,-112,982,-30,3,-4
99,-63,-108,977,-14,-8,-6
100,47,-73,1006,1,-17,-11
101,93,-4,1007,9,-11,-11
102,94,57,1008,4,2,-8
103,9,84,1009,-13,16,-3
104,-85,38,1008,-29,20,0
105,-129,-30,977,-34,12,-2
106,-95,-83,987,-31,-6,-5
107,12,-107,995,-18,-21,-10
108,89,-79,1001,-2,-16,-12
109,117,-3,1003,4,-4,-8
110,39,50,1011,1,16,-4
111,-61,62,1006,-13,22,-1
112,-134,33,977,-26,16,0
113,-112,-25,1002,-32,-2,-5
114,-27,-82,990,-28,-19,-9
115,85,-85,1000,-14,-23,-13
116,128,-49,1003,-3,-10,-10
117,67,3,1006,-1,11,-4
118,-35,33,1005,-7,24,1
119,-136,44,981,-18,23,2
120,-128,4,1001,-25,3,-2
121,-55,-45,993,-26,-15,-9
122,67,-65,1001,-17,-23,-12
123,133,-53,999,-10,-14,-12
124,88,-23,1007,-6,7,-6
125,-11,12,1001,-7,21,0
126,-124,27,985,-16,24,2
127,-140,0,997,-21,8,-1
128,-83,-30,989,-22,-10,-6
129,57,-45,1005,-19,-25,-12
130,122,-43,1008,-11,-18,-12
131,104,-23,1002,-8,0,-6
132,10,3,999,-12,18,-2
133,-109,12,993,-16,25,2
134,-140,-9,998,-20,12,-2
135,-98,-28,979,-19,-9,-6
136,34,-37,1002,-16,-22,-13
137,110,-38,1014,-11,-19,-13
138,113,-15,1005,-9,-2,-9
139,29,9,997,-12,16,-2
140,-89,6,998,-17,24,2
141,-148,-15,987,-21,14,-1
142,-109,-29,987,-21,-4,-6
143,12,-44,999,-16,-21,-11
144,99,-42,1007,-11,-22,-12
145,130,-9,1002,-6,-7,-9
146,46,12,1004,-11,15,-4
147,-68,8,1010,-17,25,1
148,-150,-6,974,-22,18,0
149,-122,-29,984,-21,0,-4
150,-16,-53,1003,-17,-20,-9
151,92,-51,1007,-12,-20,-14
152,134,-14,998,-7,-9,-10
153,63,15,1007,-7,11,-5
154,-6,254,694,-35,11,6
155,311,484,1354,-94,45,-6
156,-270,-33,1402,-132,57,-2
157,-170,-147,700,-160,16,57
158,-200,-508,710,-124,8,-17
159,-359,-427,822,4,-25,0
160,236,-450,932,78,-54,-82
161,32,-290,1165,141,0,-59
162,222,319,1043,131,-36,13
163,238,548,1158,75,16,-6
164,-201,463,938,-26,46,7
165,-200,198,1031,-100,11,30
166,-31,-176,1045,-113,-7,-35
167,-31,-413,872,-76,-14,-10
168,134,-287,972,-8,-32,-5
169,67,-191,1071,33,-5,-20
170,-67,31,928,48,10,5
171,-98,194,1042,31,11,8
172,-72,173,1041,-2,2,-14
173,21,66,963,-30,-11,-4
174,75,-42,1031,-36,-13,-9
175,38,-137,991,-26,-12,-14
176,-10,-132,962,-6,-3,-4
177,-100,-84,1013,9,4,-2
178,-84,-9,990,15,0,-5
179,19,39,1006,11,-4,-8
180,51,51,1010,2,-4,-6
181,91,43,1011,-7,-4,-9
182,39,0,1003,-13,2,-9
183,-63,-26,986,-17,6,-1
184,-91,-53,1001,-16,6,-5
185,-51,-35,993,-13,1,-6
186,67,22,1001,-13,1,-6
187,78,28,1011,-19,6,-7
188,50,38,1003,-24,11,-4
189,-53,-3,980,-34,17,-4
190,-111,-54,992,-32,10,-3
191,-109,-90,979,-24,-2,-6
192,-49,-85,986,-12,-9,-9
193,42,-54,1004,-2,-15,-9
194,93,0,1017,2,-7,-10
195,90,43,997,-2,4,-6
196,4,60,1002,-11,16,-3
197,-78,24,1005,-25,16,-2
198,-122,-22,972,-33,8,-1
199,-86,-70,1001,-28,-7,-6
200,-11,-95,996,-17,-18,-9
201,85,-66,998,-3,-17,-11
202,111,-9,1002,2,-4,-8
203,49,38,1014,-1,14,-4
204,-39,54,1003,-13,22,-2
205,-125,32,980,-25,17,1
206,-115,-25,1000,-30,-1,-3
207,-54,-73,992,-24,-15,-7
208,69,-81,1000,-15,-21,-12
209,117,-51,1001,-4,-11,-11
210,80,-6,1003,0,8,-5
211,-7,32,1000,-7,20,-2
212,-113,41,994,-17,24,2
213,-134,4,997,-25,9,-2
214,-87,-38,986,-25,-12,-7
215,49,-60,997,-18,-24,-12
216,112,-60,1008,-10,-17,-11
217,108,-30,1008,-5,2,-7
218,18,12,998,-8,20,-3
219,-99,24,995,-12,24,1
220,-144,5,993,-20,11,0
221,-106,-16,988,-23,-8,-6
222,23,-42,1001,-19,-24,-12
223,102,-55,1007,-14,-20,-13
224,121,-29,1003,-8,-4,-8
225,40,2,1001,-8,15,-2
226,-80,7,1008,-15,25,1
227,-150,1,977,-18,18,0
228,-116,-13,987,-20,-1,-5
229,-1,-39,1002,-18,-21,-10
230,90,-44,1002,-12,-22,-12
231,137,-20,1003,-9,-8,-9
232,52,0,1005,-11,15,-4
233,-60,7,999,-13,25,-1
234,-146,-2,981,-19,18,0
235,-128,-18,993,-21,0,-3
236,-30,-44,995,-16,-18,-10
237,88,-46,1005,-10,-22,-13
238,135,-15,1004,-6,-12,-9
239,72,1,1004,-10,9,-5
240,-40,10,1006,-15,23,-1
241,-81,207,624,-27,19,7
242,357,459,1180,-74,35,-4
243,-241,-56,1420,-133,42,-5
244,-114,-73,604,-155,5,56
245,-41,-499,691,-118,19,-28
246,-358,-479,904,19,4,11
247,240,-386,1046,77,-42,-48
248,-62,-217,1070,117,4,-6
249,9,394,943,118,-23,28
250,173,445,1242,53,0,-27
251,-100,377,914,-32,21,3
252,-43,144,986,-90,-4,19
253,12,-200,1106,-95,-3,-38
254,-38,-364,868,-63,-4,0
255,-3,-240,934,-5,-10,1
256,-44,-150,1105,31,-4,-16
257,-51,52,923,38,-4,2
258,5,177,1027,22,-2,0
259,19,136,1061,-8,-5,-12
260,57,36,977,-31,-4,-6
261,7,-60,992,-34,-2,-7
262,-72,-127,998,-22,-6,-6
263,-62,-138,976,-5,-9,-10
264,-76,-74,988,12,-7,-4
265,18,11,1017,18,-13,-7
266,73,37,1013,10,-7,-12
267,66,63,994,2,-2,-6
268,16,47,1010,-13,4,-4
269,-51,-21,1013,-20,5,-7
270,-100,-62,965,-17,-2,-2
271,-63,-71,1001,-11,-9,-6
272,16,-67,1007,-2,-13,-11
273,75,-20,996,6,-8,-9
274,97,42,1001,4,1,-9
275,90,119,1022,-7,15,-6
276,4,106,1003,-31,28,-1
277,-130,31,985,-49,26,4
278,-174,-93,991,-53,9,0
279,-127,-186,957,-35,-11,-11
280,30,-166,979,-8,-25,-13
281,151,-61,1018,18,-19,-15
282,130,41,1006,19,5,-9
283,27,122,1018,4,23,-1
284,-128,110,999,-23,28,3
285,-166,24,990,-39,11,-1
286,-116,-80,982,-41,-12,-7
287,39,-132,994,-26,-28,-13
288,144,-112,994,-7,-21,-14
289,129,-49,1004,6,1,-7
290,22,35,1011,9,20,-2
291,-112,78,995,-8,29,4
292,-161,50,993,-21,16,1
293,-119,-7,988,-30,-6,-5
294,38,-59,1005,-28,-26,-12
295,128,-82,1002,-17,-22,-14
296,122,-62,1001,-7,-3,-8
297,34,-12,1001,-3,18,-3
298,-102,23,1000,-6,28,2
299,-153,18,988,-14,16,1
300,-120,0,982,-21,-4,-5
301,23,-21,1007,-18,-23,-10
302,113,-44,1009,-17,-22,-12
303,129,-36,1002,-13,-5,-8
304,41,-12,1003,-9,15,-4
305,-84,-5,995,-13,25,1
306,-153,-16,986,-16,17,2
307,-119,-14,987,-17,0,-4
308,5,-31,1002,-16,-20,-11
309,100,-27,1002,-11,-22,-13
310,133,-6,1004,-9,-9,-10
311,52,5,1009,-15,13,-4
312,-71,-3,1007,-18,24,1
313,-148,-18,974,-22,19,1
314,-124,-33,991,-19,-1,-3
315,-14,-46,1000,-14,-18,-10
316,89,-37,1006,-9,-22,-13
317,139,-3,1002,-6,-10,-10
318,63,21,1007,-10,11,-3
319,-53,12,1001,-18,23,0
320,-143,-6,979,-25,20,0
321,-130,-38,996,-23,4,-3
322,-43,-61,989,-18,-15,-8
323,82,-51,1003,-7,-23,-12
324,136,-15,1004,-2,-14,-11
325,78,18,1008,-8,8,-6
326,-30,27,1009,-15,23,-1
327,-135,13,976,-23,23,1
328,-136,-27,994,-25,6,-3
329,-71,-61,990,-20,-14,-8
330,67,-58,1006,-11,-23,-14
331,131,-34,1005,-4,-14,-12
332,93,1,1004,-4,5,-4
333,-3,25,1008,-9,20,-2
334,-123,23,984,-19,25,3
335,-152,0,928,-26,8,0
336,255,404,620,-44,-27,3
337,215,22,1707,-97,41,-29
338,-186,23,799,-107,12,33
339,45,-388,667,-119,39,10
340,-382,-475,815,-8,43,-25
341,-211,-231,1152,46,-36,20
342,272,-205,989,79,-34,-25
343,-204,253,972,92,13,6
344,321,340,1094,32,-44,-2
345,37,259,1148,-3,25,-27
346,-87,60,789,-70,17,21
347,-86,-55,1103,-64,8,-3
348,-43,-272,1039,-50,-1,-33
349,-107,-207,801,-16,-1,14
350,37,-79,1106,21,-20,-12
351,17,-10,1042,24,-9,-15
352,45,98,916,17,-4,1
353,17,127,1065,-1,5,-5
354,-15,46,1025,-25,5,-12
355,-37,-42,947,-33,5,-2
356,-103,-95,1004,-23,-4,-5
357,-41,-112,999,-10,-17,-10
358,15,-96,982,5,-15,-10
359,35,-9,1009,13,-9,-4
360,87,55,1029,11,-3,-10
361,34,59,991,-3,10,-5
362,-52,57,990,-14,12,2
363,-86,11,1004,-25,4,-6
364,-70,-54,992,-28,-5,-8
365,-25,-60,982,-20,-13,-4
366,34,-13,1013,-15,-15,-11
367,61,9,992,-18,-8,-8
368,49,16,996,-19,5,-3
369,12,-22,1011,-25,11,-3
370,-55,-36,982,-21,12,-3
371,-98,-58,986,-17,5,-2
372,-85,-47,991,-13,-9,-6
373,24,-32,1014,-8,-15,-11
374,88,-1,993,-6,-8,-10
375,83,20,1005,-9,6,-6
376,26,23,1013,-16,14,-3
377,-86,10,988,-22,19,1
378,-125,-32,990,-24,8,-3
379,-103,-62,986,-22,-8,-7
380,27,-61,991,-11,-21,-11
381,100,-42,1009,-5,-16,-11
382,112,-3,1017,-3,1,-7
383,35,31,995,-8,19,-3
384,-92,32,995,-15,24,2
385,-145,-1,1001,-23,11,-1
386,-111,-42,982,-25,-7,-5
387,16,-65,993,-18,-21,-10
388,104,-61,1012,-8,-18,-13
389,126,-20,1004,-3,-3,-9
390,44,21,1001,-6,14,-3
391,-81,30,1009,-15,25,1
392,-151,7,985,-21,16,0
393,-118,-21,981,-24,-3,-5
394,-6,-59,1002,-22,-22,-10
395,98,-62,1004,-11,-21,-14
396,139,-29,1000,-7,-7,-10
397,60,6,1003,-6,15,-4
398,-62,24,1008,-11,25,1
399,-149,9,979,-20,19,1
400,-133,-13,990,-22,0,-4
401,-29,-48,998,-20,-18,-10
402,86,-56,1005,-14,-22,-14
403,141,-29,1000,-5,-12,-11
404,75,-3,1002,-7,10,-5
405,-42,11,1011,-10,24,0
406,-141,11,978,-19,21,3
407,-133,-17,998,-22,4,-2
408,-55,-42,994,-18,-16,-8
409,77,-43,1002,-11,-22,-12
410,138,-28,1004,-8,-13,-12
411,85,-7,1006,-9,7,-5
412,-20,11,1007,-13,21,-1
413,-134,11,978,-19,21,2
414,-142,-16,994,-21,6,-3
415,-78,-40,993,-20,-13,-8
416,65,-44,1010,-15,-22,-13
417,135,-33,1000,-7,-15,-11
418,100,-8,1005,-5,4,-5
419,0,16,1001,-11,19,-3
420,-120,16,995,-19,23,2
421,-80,177,555,-23,-11,3
422,201,353,429,-51,1,-21
423,-31,86,1026,-108,10,-6
424,-91,-184,645,-145,19,28
425,-16,-486,743,-92,31,-47
426,-419,-484,1035,37,13,-7
427,312,-276,1008,57,-61,-25
428,-83,-9,1009,109,18,4
429,55,435,1016,84,-15,4
430,122,374,1178,-4,5,-12
431,-86,216,915,-48,17,-3
432,-93,-11,952,-94,1,18
433,17,-232,1115,-71,-8,-39
434,-51,-339,863,-35,-3,0
435,-21,-156,959,8,-14,3
436,-10,-52,1104,35,-11,-18
437,-22,78,942,30,-6,-2
438,27,166,1015,7,0,1
439,37,98,1065,-17,-2,-13
440,42,-4,957,-37,0,-4
441,-41,-97,996,-30,3,-2
442,-96,-131,999,-16,-5,-9
443,-45,-120,975,0,-8,-8
444,-26,-46,996,20,-7,-6
445,53,29,1025,16,-8,-9
446,108,63,1010,9,-1,-10
447,16,56,990,-6,10,0
448,-37,27,1010,-19,8,-4
449,-95,-50,992,-22,5,-7
450,-85,-79,977,-15,-5,-3
451,-23,-86,1007,-4,-13,-7
452,72,-57,1005,11,-12,-12
453,103,-1,989,10,-2,-7
454,46,57,1013,6,12,-4
455,-16,69,1005,-8,17,-4
456,-91,72,979,-24,17,-1
457,-98,89,1003,-41,4,-3
458,-69,-24,996,-55,-7,-8
459,28,-109,994,-45,-15,-7
460,76,-167,982,-26,-9,-10
461,73,-124,990,0,2,-11
462,20,-27,1000,13,13,-4
463,-80,71,1000,7,20,0
464,-116,85,1007,-10,9,-2
465,-93,55,991,-25,-5,-5
466,20,-13,1000,-33,-18,-10
467,88,-77,1007,-29,-16,-11
468,106,-100,1000,-19,-4,-10
469,33,-61,984,-7,13,-5
470,-79,-12,999,0,20,2
471,-131,15,998,-4,12,0
472,-107,30,986,-13,-2,-4
473,13,12,1005,-19,-18,-9
474,87,-23,1010,-19,-17,-12
475,120,-27,996,-15,-8,-10
476,39,-29,1004,-17,12,-3
477,-69,-28,1003,-16,22,0
478,-140,-27,979,-14,16,0
479,-112,-18,984,-13,0,-4
480,-9,-18,1007,-11,-18,-9
481,90,-15,1009,-10,-20,-13
482,129,1,1001,-11,-8,-10
483,53,9,1002,-15,12,-4
484,-56,-6,1007,-20,22,-1
485,-140,-25,973,-23,18,1
486,-123,-41,991,-21,3,-3
487,-29,-55,997,-15,-16,-10
488,84,-36,1004,-7,-21,-13
489,137,0,1001,-5,-12,-11
490,65,19,1011,-9,11,-4
491,-34,16,1003,-17,22,0
492,-139,-4,977,-25,22,2
493,-132,-40,991,-24,4,-3
494,-56,-65,996,-18,-16,-8
495,77,-53,1000,-8,-24,-13
496,132,-20,1004,-3,-13,-12
497,88,12,1013,-4,7,-6
498,-15,28,1001,-11,21,-1
499,-129,20,982,-21,25,4
500,-140,-28,994,-25,6,-3
501,-78,-62,989,-21,-12,-9
502,57,-61,1005,-13,-22,-13
503,129,-41,1006,-5,-18,-13
504,102,-3,1005,-3,3,-7
505,4,29,1002,-9,20,-1
506,-114,28,998,-20,26,3
507,-145,-14,991,-24,10,0
508,-98,-43,979,-23,-10,-7
509,38,-61,1000,-15,-24,-12
510,118,-52,1010,-8,-19,-14
511,115,-17,1011,-5,0,-8
512,21,28,997,-5,18,-3
513,84,344,460,39,29,5
514,101,156,1515,-75,62,-6
515,-334,57,1028,-121,18,21
516,-91,-287,615,-141,11,19
517,-238,-511,769,-32,3,-51
518,-164,-241,1247,54,-51,-7
519,508,-230,965,50,-53,-45
520,-72,162,938,92,36,7
521,171,370,1109,37,-11,18
522,-120,246,1129,-20,43,-15
523,-200,71,791,-67,18,11
524,-134,-84,1070,-67,-11,6
525,124,-235,1075,-44,-31,-48
526,69,-244,826,-13,-11,4
527,88,-34,1074,23,-9,-1
528,-51,-5,1060,18,12,-11
529,-118,104,916,10,15,8
530,-112,95,1034,-10,1,1
531,2,6,1037,-22,-17,-20
532,122,-74,949,-24,-18,-9
533,60,-71,1010,-10,-6,-6
534,12,-71,1018,-3,0,-10
535,-70,-36,962,2,10,-3
536,-132,13,1004,3,8,2
537,-49,13,1018,-3,-7,-9
538,61,-7,998,-7,-11,-12
539,92,0,989,-9,-8,-6
540,70,-7,1027,-10,-1,-11
541,-1,-30,993,-12,8,-7
542,-109,-6,966,-12,13,2
543,-98,-25,1016,-13,3,-7
544,-49,-36,991,-10,-5,-9
545,62,-10,994,-8,-11,-6
546,101,12,1014,-8,-5,-10
547,87,60,1012,-16,6,-9
548,-14,51,981,-31,20,-1
549,-128,3,998,-37,20,2
550,-137,-103,993,-39,5,-3
551,-88,-126,960,-22,-10,-8
552,53,-96,998,-1,-22,-11
553,121,-24,1022,10,-15,-13
554,111,43,1007,5,2,-7
555,12,94,1005,-6,18,-2
556,-102,59,1006,-25,23,2
557,-145,-22,982,-34,10,-1
558,-106,-77,983,-32,-7,-6
559,25,-109,1000,-20,-23,-13
560,105,-90,997,-3,-19,-12
561,124,-17,1001,7,-3,-7
562,36,49,1014,1,17,-3
563,-80,65,1010,-12,25,1
564,-153,33,976,-26,16,0
565,-119,-16,990,-30,-4,-5
566,0,-79,1001,-25,-22,-11
567,94,-90,996,-12,-21,-13
568,134,-46,999,-2,-9,-11
569,55,4,1010,0,14,-6
570,-59,33,1001,-6,24,0
571,-146,35,978,-17,19,2
572,-126,3,1006,-23,1,-5
573,-32,-50,994,-25,-21,-9
574,89,-62,999,-17,-22,-12
575,143,-45,1004,-9,-9,-11
576,70,-11,1005,-8,12,-6
577,-37,5,1003,-10,23,0
578,-148,18,975,-16,22,3
579,-138,0,1000,-20,3,-3
580,-59,-35,994,-22,-16,-8
581,75,-45,1001,-17,-23,-13
582,139,-36,1007,-12,-14,-12
583,86,-18,1005,-10,6,-6
584,-17,4,999,-10,20,-1
585,-133,10,982,-15,23,2
586,-138,-10,996,-18,7,-3
587,-78,-36,992,-19,-12,-8
588,66,-39,1006,-14,-23,-12
589,129,-29,1008,-9,-15,-12
590,100,-15,1002,-7,2,-7
591,1,11,998,-12,18,-3
592,-118,10,996,-19,23,1
593,-145,-18,991,-23,11,-1
594,-89,-42,979,-20,-10,-6
595,44,-45,1000,-12,-21,-10
596,116,-36,1009,-8,-17,-12
597,113,-10,1012,-7,-1,-8
598,14,21,996,-9,17,-3
599,-101,16,994,-17,25,2
600,-147,-12,988,-23,13,-1
601,-103,-38,986,-22,-5,-6
602,29,-52,1002,-15,-20,-12
603,103,-49,1004,-10,-19,-13
604,123,-10,1005,-3,-4,-9
605,31,19,1004,-8,15,-3
606,99,344,277,-11,9,6
607,71,114,499,-58,68,-13
608,-326,146,715,-110,18,25
609,-147,-410,643,-139,16,-1
610,-308,-552,846,-1,-14,-38
611,7,-274,1248,47,-67,-4
612,498,-159,887,82,-40,-64
613,12,295,1016,99,29,22
614,131,468,1120,15,5,16
615,-216,241,1060,-46,53,-12
616,-228,0,834,-91,8,16
617,-121,-173,1087,-78,-19,-1
618,167,-353,998,-37,-37,-47
619,91,-227,878,8,-16,9
620,100,7,1081,39,-7,-6
621,-79,84,1023,26,19,-10
622,-129,172,956,-2,16,12
623,-130,102,1036,-28,3,-2
624,32,-40,1019,-40,-18,-20
625,122,-135,957,-30,-20,-8
626,75,-125,1013,-7,-7,-8
627,24,-88,1004,7,2,-10
628,-91,-7,968,14,15,-1
629,-137,53,1008,8,10,1
630,-56,42,1018,-6,-4,-9
631,60,3,999,-13,-12,-10
632,97,-17,994,-14,-9,-8
633,77,-35,1020,-11,0,-11
634,-1,-45,985,-10,11,-6
635,-107,-15,979,-9,18,3
636,-105,-29,1019,-10,7,-4
637,-54,-31,979,-7,-5,-7
638,57,-9,996,-3,-11,-7
639,92,0,1022,-4,-6,-12
640,86,12,1010,-8,5,-10
641,2,35,983,-14,18,-1
642,-76,76,1004,-28,21,1
643,-110,35,1003,-47,16,-2
644,-107,-37,969,-46,2,-1
645,-11,-120,995,-37,-13,-8
646,66,-148,993,-16,-15,-15
647,101,-78,987,6,-7,-7
648,54,17,1012,9,9,-6
649,-56,68,1015,0,21,1
650,-115,73,984,-18,17,0
651,-116,23,996,-31,4,-4
652,-19,-52,996,-32,-16,-10
653,74,-96,998,-21,-19,-13
654,119,-76,993,-9,-11,-11
655,57,-27,1007,-2,9,-5
656,-40,13,1008,-2,20,0
657,-132,34,977,-12,19,2
658,-119,24,998,-18,4,-3
659,-32,-21,1003,-23,-14,-10
660,72,-48,1001,-20,-20,-11
661,125,-45,1000,-13,-13,-10
662,66,-32,1006,-8,6,-6
663,-29,-12,996,-11,19,-1
664,-132,4,982,-13,22,0
665,-126,-3,1007,-18,6,-1
666,-53,-24,993,-19,-13,-7
667,74,-31,997,-14,-21,-11
668,128,-27,1008,-10,-13,-12
669,79,-12,1008,-12,8,-7
670,-19,-6,999,-14,21,-3
671,-126,1,976,-19,21,-1
672,-132,-22,997,-19,7,-2
673,-70,-41,990,-18,-11,-6
674,61,-37,1007,-10,-20,-12
675,128,-20,1006,-9,-15,-12
676,91,-2,1004,-9,1,-7
677,-3,13,997,-13,17,-2
678,-121,9,997,-20,24,2
679,-138,-28,990,-24,10,-2
680,-86,-50,982,-20,-8,-6
681,48,-48,1001,-12,-21,-11
682,116,-35,1011,0,-15,-12
683,107,0,1011,2,3,-8
684,14,26,996,-13,19,-3
685,-105,20,997,-18,23,0
686,-144,-21,993,-23,12,-1
687,-99,-45,979,-24,-7,-5
688,29,-59,1001,-14,-21,-12
689,106,-45,1009,-8,-19,-12
690,122,-6,1006,-4,-4,-7
691,29,24,1002,-8,16,-3
692,-86,21,1005,-18,25,2
693,-146,-6,984,-24,15,0
694,-110,-34,985,-24,-4,-5
695,9,-59,1000,-17,-21,-11
696,92,-56,969,-8,-19,-12
697,506,299,363,34,9,9
698,254,145,1415,-36,81,-8
699,-299,208,790,-145,55,46
700,-200,-343,607,-147,77,41
701,-686,-491,804,-12,25,-8
702,-334,-370,1079,25,-84,4
703,400,-356,1032,110,-84,-76
704,117,270,1019,116,-30,2
705,560,473,1090,59,-39,-7
706,32,402,1186,-7,66,-15
707,-327,111,754,-100,49,44
708,-332,-107,1113,-86,12,4
709,-134,-442,987,-66,-26,-41
710,52,-292,842,0,-47,-3
711,283,-86,1110,50,-47,-25
712,140,78,1043,43,2,-15
713,6,245,948,18,22,14
714,-211,211,1048,-25,31,5
715,-178,11,1006,-59,-1,-6
716,-64,-160,944,-53,-22,-8
717,69,-214,1019,-22,-38,-20
718,169,-166,998,9,-33,-22
719,109,-48,988,32,-2,-11
720,-35,98,1010,25,16,1
721,-103,138,1023,0,22,-3
722,-115,71,987,-23,11,-3
723,-66,1,987,-35,-10,-3
724,79,-74,1026,-31,-25,-19
725,116,-112,987,-19,-19,-16
726,119,-29,989,-6,0,-6
727,83,63,1020,-13,27,-3
728,-72,74,1010,-26,43,7
729,-174,39,978,-42,34,12
730,-203,-56,966,-46,7,-4
731,-52,-112,975,-30,-24,-11
732,84,-120,1010,-11,-31,-17
733,162,-59,1000,2,-19,-14
734,112,18,1013,7,9,-5
735,-35,70,1009,-3,29,3
736,-158,44,990,-20,28,3
737,-161,12,988,-28,9,-3
738,-50,-57,991,-29,-18,-10
739,80,-83,1000,-18,-28,-13
740,151,-61,1001,-7,-17,-11
741,96,-13,1006,-3,7,-6
742,-39,11,1012,-7,25,1
743,-147,21,985,-15,25,1
744,-147,1,982,-21,7,-2
745,-46,-33,1000,-20,-15,-9
746,80,-50,1009,-15,-24,-13
747,145,-27,1003,-8,-14,-12
748,86,-5,1003,-7,7,-5
749,-42,7,1011,-12,22,0
750,-138,5,975,-17,23,1
751,-143,-20,993,-21,7,-1
752,-48,-41,993,-19,-14,-9
753,75,-45,1007,-13,-23,-14
754,142,-20,999,-6,-15,-12
755,78,3,1007,-6,5,-6
756,-25,13,1008,-12,20,-2
757,-137,5,982,-21,23,1
758,-136,-24,992,-24,6,-3
759,-68,-58,991,-19,-12,-9
760,72,-46,1003,-10,-22,-13
761,135,-25,1006,-6,-15,-12
762,86,9,1007,-7,5,-6
763,-11,19,1007,-12,18,-2
764,-127,15,979,-20,21,1
765,-141,-23,990,-24,8,-1
766,-79,-56,995,-21,-10,-9
767,54,-58,1007,-13,-22,-12
768,128,-32,1001,-4,-17,-12
769,100,-2,1007,-4,3,-7
770,5,29,1003,-9,18,-3
771,-111,21,994,-20,24,2
772,-143,-19,994,-24,12,-1
773,-95,-51,980,-22,-7,-6
774,43,-59,1001,-13,-22,-12
775,114,-41,1007,-7,-18,-12
776,114,-11,1012,-3,-1,-8
777,20,26,1001,-10,18,-2
778,-97,26,993,-16,22,1
779,-82,19,644,-16,13,5
780,508,298,874,36,41,17
781,-58,24,1526,-103,41,-1
782,-169,-26,512,-123,33,42
783,-284,-475,696,-66,58,-33
784,-589,-272,1042,37,-26,7
785,272,-251,1076,36,-80,-14
786,116,-28,989,92,0,-43
787,145,342,985,55,-27,36
788,223,331,1218,11,5,-23
789,-170,116,912,-51,40,-2
790,-165,7,889,-73,8,25
791,-63,-187,1154,-57,-7,-37
792,-13,-306,867,-31,-15,-9
793,40,-86,966,11,-18,6
794,43,-29,1112,22,-13,-20
795,-12,85,951,17,0,-1
796,-18,120,994,-6,7,1
797,-31,64,1055,-24,0,-12
798,35,-44,956,-37,-4,-7
799,-23,-87,992,-24,-2,-6
800,-49,-90,1007,-14,-11,-9
801,-30,-67,992,-2,-10,-10
802,-47,-20,991,2,-7,-5
803,20,34,1015,0,-10,-10
804,85,29,1012,-9,-6,-16
805,26,23,984,-20,4,-4
806,-10,8,1010,-23,2,-6
807,-74,-39,991,-25,1,-8
808,-84,-50,980,-20,-6,-3
809,-40,-54,1006,-15,-11,-9
810,52,-36,1012,-9,-12,-14
811,90,-8,985,-6,-4,-9
812,46,23,1003,-7,7,-8
813,-9,32,1009,-17,9,-7
814,-86,20,982,-25,10,-1
815,-97,-18,998,-29,1,-3
816,-52,-53,998,-27,-10,-8
817,49,-54,999,-20,-14,-10
818,81,-35,996,-13,-7,-8
819,64,-7,1009,-11,4,-8
820,-2,25,996,-13,14,-4
821,-84,28,992,-21,17,0
822,-104,-9,1006,-28,4,-3
823,-61,-39,983,-29,-8,-6
824,39,-55,998,-23,-14,-10
825,81,-51,1009,-16,-7,-11
826,81,-32,1000,-11,3,-7
827,5,4,992,-11,14,-3
828,-80,15,1001,-15,19,0
829,-111,-3,995,-19,10,-3
830,-82,-21,987,-22,-3,-5
831,25,-44,1002,-18,-16,-10
832,82,-57,1002,-12,-13,-12
833,98,-32,996,-5,-2,-9
834,25,-6,1000,-5,15,-4
835,-70,4,1008,-7,23,-1
836,-121,0,979,-13,15,0
837,-94,-8,988,-13,0,-4
838,1,-33,1004,-12,-17,-10
839,79,-38,1009,-8,-14,-12
840,108,-21,995,-8,-5,-9
841,37,-4,1003,-7,13,-4
842,-57,0,1003,-9,22,0
843,-125,-3,977,-14,16,0
844,-103,-15,995,-16,1,-4
845,-19,-34,999,-13,-15,-9
846,78,-37,1004,-10,-16,-11
847,112,-15,1002,-6,-7,-10
848,51,3,1003,-7,11,-5
849,-42,1,1002,-13,21,-1
850,-123,-1,978,-18,20,1
851,-110,-22,1000,-19,4,-4
852,-42,-41,994,-17,-12,-9
853,69,-34,1004,-11,-20,-12
854,116,-13,1003,-9,-10,-10
855,62,1,1009,-11,8,-5
856,-21,10,999,-15,20,-2
857,-121,7,981,-23,20,1
858,-155,5,991,-24,5,-3
859,-95,-24,994,-28,-18,-8
860,59,-40,1009,-23,-29,-14
861,161,-58,999,-19,-21,-13
862,136,-46,1006,-8,2,-8
863,12,-12,1003,-8,23,-2
864,-132,9,988,-13,29,2
865,-170,0,992,-16,13,-2
866,-119,-18,983,-18,-9,-6
867,49,-20,1007,-15,-26,-13
868,142,-33,1013,-13,-21,-15
869,132,-19,1007,-10,-2,-8
870,25,-3,998,-12,17,-3
871,-114,-1,994,-19,26,2
872,-165,-25,984,-18,13,1
873,-117,-31,982,-17,-8,-6
874,32,-36,1002,-12,-25,-14
875,119,-28,1008,-8,-23,-13
876,192,-45,960,-7,-4,-10
877,861,276,665,12,99,12
878,-594,518,1779,-90,132,127
879,-316,36,889,-161,-29,35
880,-360,-693,424,-142,97,-106
881,-884,-692,570,56,8,-145
882,155,-116,1340,135,-197,-49
883,708,-5,1314,88,-98,-44
884,291,435,724,57,15,8
885,505,413,1204,-4,9,19
886,-256,217,1229,-59,101,-8
887,-386,-146,574,-114,55,26
888,-345,-302,1129,-56,4,-4
889,-103,-332,1021,-12,-50,-38
890,224,-187,846,31,-53,-17
891,316,100,1138,58,-25,-17
892,104,187,1069,25,16,-2
893,-57,185,928,-13,40,2
894,-299,35,1035,-44,37,8
895,-180,-87,964,-46,-8,-13
896,43,-225,977,-24,-24,-26
897,149,-129,999,11,-30,-14
898,180,-23,1025,26,-13,-15
899,47,61,1013,23,18,-11
900,-163,117,975,-1,29,8
901,-167,76,1018,-18,15,-9
902,-101,-44,982,-31,-5,-13
903,47,-82,980,-22,-22,-11
904,156,-97,1026,-8,-21,-21
905,103,-66,1002,5,-3,-11
906,-8,16,989,8,14,-3
907,-133,53,999,-2,21,-5
908,-132,33,991,-12,10,-4
909,-79,2,985,-20,-6,-6
910,49,-33,1017,-19,-19,-13
911,129,-52,1007,-14,-18,-14
912,82,-45,991,-6,-2,-9
913,-8,-9,998,-5,11,-7
914,-103,9,1004,-9,17,-3
915,-123,0,982,-14,9,-2
916,-78,-7,990,-16,-7,-6
917,42,-18,1011,-16,-20,-11
918,101,-33,1002,-15,-16,-11
919,82,-22,1011,-12,-3,-8
920,2,-2,994,-12,12,-6
921,-84,0,989,-15,17,-2
922,-121,-12,996,-18,7,-1
923,-81,-21,989,-20,-5,-4
924,29,-32,1002,-16,-19,-10
925,82,-30,1004,-11,-17,-10
926,91,-5,1011,-12,-6,-8
927,24,9,999,-16,8,-4
928,-79,7,995,-22,17,1
929,-121,-13,989,-26,9,0
930,-92,-25,993,-26,-6,-3
931,12,-41,997,-22,-19,-8
932,80,-33,1011,-17,-19,-9
933,110,11,1005,-15,-9,-6
934,51,43,1006,-24,9,-1
935,-56,41,1008,-33,20,7
936,-131,-5,987,-41,15,6
937,-120,-73,982,-40,-2,0
938,-19,-102,989,-28,-20,-6
939,85,-84,1003,-13,-19,-8
940,129,-30,1001,-4,-9,-10
941,43,15,1005,-1,11,-5
942,-61,46,1007,-11,21,0
943,-138,31,979,-25,15,1
944,-112,-16,1000,-29,-2,-2
945,-28,-67,992,-28,-20,-8
946,84,-77,1000,-15,-22,-13
947,126,-47,1003,-4,-11,-11
948,67,-4,1000,-6,9,-4
949,-31,21,1006,-8,24,0
950,-126,26,980,-16,22,3
951,-117,-6,998,-21,5,-2
952,-56,-47,992,-20,-11,-7
953,63,-56,1002,-13,-20,-12
954,121,-39,1004,-7,-12,-13
955,71,-6,1002,-3,8,-7
956,-17,18,1005,-9,20,-2
957,-117,19,987,-16,19,2
958,-127,-12,993,-22,7,-1
959,-75,-43,991,-19,-10,-6
960,55,-48,1006,-15,-22,-12
961,117,-36,1006,-8,-17,-12
962,92,-12,1000,-5,2,-7
963,5,15,1003,-10,19,-3
964,-109,17,996,-16,24,3
965,146,292,305,10,20,9
966,292,224,1232,-46,87,-12
967,-225,186,1011,-152,24,26
968,-102,-326,569,-149,42,32
969,-439,-666,561,-70,27,-54
970,-458,-434,1165,94,-54,-7
971,529,-402,1121,104,-87,-55
972,-95,193,954,135,13,4
973,419,590,1026,102,-39,10
974,66,490,1319,-13,43,-20
975,-183,180,726,-92,37,22
976,-225,-105,1045,-96,11,14
977,-50,-393,1096,-82,-19,-45
978,-34,-387,788,-9,-18,4
979,107,-108,1062,41,-28,-11
980,35,60,1095,42,-6,-13
981,23,229,927,28,6,3
982,-69,199,1047,-26,12,4
983,-45,66,1037,-45,-3,-12
984,16,-131,934,-54,-8,-9
985,-40,-185,1006,-30,-14,-7
986,-21,-161,994,3,-22,-11
987,-3,-75,979,17,-13,-10
988,-37,46,1006,22,-5,2
989,34,108,1034,7,-2,-10
990,70,70,1003,-15,1,-11
991,5,35,975,-23,5,0
992,-17,-32,1024,-30,-2,-10
993,-72,-95,979,-27,-4,-9
994,-72,-77,979,-10,-7,-2
995,-21,-58,1019,-4,-11,-10
996,57,-15,995,3,-8,-11
997,90,32,992,1,1,-6
998,35,58,1017,-10,9,-6
999,-15,31,1005,-18,10,-7
1000,-95,5,974,-29,8,-2
1001,-94,-46,1000,-30,-2,-3
1002,-29,-84,1001,-22,-11,-10
1003,57,-68,999,-10,-9,-10
1004,96,-22,995,-5,0,-10
1005,59,15,1013,-4,10,-8
1006,-17,41,991,-13,17,-2
1007,-103,39,991,-24,16,0
1008,-105,-15,1005,-31,2,-5
1009,-58,-57,982,-29,-9,-7
1010,51,-66,1000,-20,-14,-9
1011,97,-53,1008,-12,-9,-11
1012,84,-20,1001,-8,7,-7
1013,1,25,992,-9,21,-2
1014,-43,42,1012,-18,25,0
1015,-106,0,996,-28,18,-2
1016,-117,-32,974,-28,2,0
1017,-29,-67,996,-25,-13,-8
1018,49,-72,999,-12,-15,-12
1019,106,-33,1002,-5,-8,-7
1020,59,16,1010,-1,9,-5
1021,-42,35,999,-11,21,1
1022,-121,19,999,-19,16,-1
1023,-126,-14,982,-24,2,-4
1024,-22,-50,1000,-23,-16,-9
1025,72,-67,1002,-13,-19,-12
1026,124,-37,996,-7,-9,-10
1027,72,-1,1004,-7,10,-5
1028,-52,16,1013,-10,24,0
1029,-137,15,980,-18,19,0
1030,-133,-7,987,-22,3,-3
1031,-33,-41,1001,-20,-18,-8
1032,78,-54,1006,-14,-23,-11
1033,140,-32,998,-8,-12,-10
1034,72,-10,1004,-8,10,-4
1035,-41,8,1009,-11,22,-1
1036,-139,6,974,-18,21,0
1037,-137,-11,995,-19,4,-3
1038,-46,-41,999,-18,-16,-9
1039,79,-46,1003,-13,-22,-12
1040,140,-25,1000,-6,-14,-12
1041,81,-4,1004,-7,8,-5
1042,-27,10,1006,-11,22,-1
1043,-139,8,979,-20,24,3
1044,-141,-12,998,-21,7,-1
1045,-64,-46,993,-18,-15,-8
1046,67,-48,1000,-10,-22,-13
1047,139,-27,1002,-6,-14,-12
1048,92,-1,1009,-8,6,-7
1049,-13,16,1002,-11,20,-2
1050,-173,11,967,-27,13,2
1051,-197,-19,984,4,11,-2
1052,-119,-43,1012,-20,-25,-11
1053,125,-24,1027,-39,-51,-17
1054,993,-133,561,-2,4,-16
1055,93,1065,1383,-48,249,121
1056,-646,210,1421,-209,-27,137
1057,-335,-112,554,-246,-2,43
1058,-541,-644,328,-193,32,-38
1059,-721,-704,677,-10,-30,-35
1060,108,-728,1059,133,-121,-175
1061,163,-426,1311,254,-50,-212
1062,424,398,984,175,-66,-54
1063,796,663,1316,119,-44,-7
1064,186,668,871,-1,92,0
1065,-319,158,1029,-114,91,42
1066,-324,-130,1069,-106,36,-11
1067,-343,-524,828,-80,-3,-18
1068,-12,-354,897,2,-57,-15
1069,272,-215,1179,61,-52,-36
1070,255,91,918,70,-3,-15
1071,73,259,1047,41,37,12
1072,-138,270,1080,-4,48,-1
1073,-229,86,924,-51,30,6
1074,-130,-74,977,-55,-10,-6
1075,13,-226,1023,-38,-34,-22
1076,190,-191,956,-2,-32,-21
1077,116,-70,1009,25,0,-7
1078,0,68,1042,25,20,-3
1079,-102,100,990,4,33,1
1080,-157,98,967,-14,24,0
1081,-81,14,1004,-31,-3,-8
1082,48,-67,1015,-27,-19,-17
1083,106,-95,975,-17,-19,-12
1084,73,-69,1013,-4,-5,-10
1085,-9,-36,1009,4,13,-8
1086,-96,14,970,2,21,-4
1087,-116,33,1004,-5,16,-5
1088,-66,12,1005,-12,-2,-9
1089,28,-7,993,-15,-16,-12
1090,87,-20,1000,-13,-17,-13
1091,73,-32,1018,-13,-6,-12
1092,8,-31,994,-11,7,-11
1093,-76,-8,980,-11,15,-8
1094,-97,14,1004,-14,9,-6
1095,-103,57,987,-25,-3,6
1096,-15,48,1012,-35,-17,-1
1097,79,-13,1011,-42,-23,-10
1098,100,-62,993,-39,-14,-5
1099,37,-71,999,-31,1,-1
1100,-65,-60,987,-25,12,0
1101,-109,-51,1002,-18,7,0
1102,-113,-23,972,-15,-5,0
1103,1,2,1009,-13,-19,-8
1104,93,2,1011,-13,-21,-10
1105,107,2,1000,-15,-8,-6
1106,56,0,1002,-21,7,-5
1107,-61,-22,1000,-22,18,-1
1108,-126,-52,983,-23,12,1
1109,-122,-56,979,-17,-1,-2
1110,0,-45,1002,-7,-16,-11
1111,85,-23,1003,-3,-16,-12
1112,119,21,1007,-4,-6,-9
1113,52,38,1012,-12,10,-5
1114,-65,22,1003,-23,19,0
1115,-138,-21,985,-28,14,0
1116,-121,-58,983,-25,0,-5
1117,-5,-77,996,-16,-16,-10
1118,87,-62,1001,-3,-19,-12
1119,128,-4,1003,2,-7,-11
1120,59,38,1012,-5,11,-5
1121,-61,38,1008,-16,24,1
1122,-145,10,977,-25,18,0
1123,-124,-37,989,-28,-1,-4
1124,-29,-75,997,-21,-18,-8
1125,85,-73,1002,-11,-21,-12
1126,138,-32,1002,-4,-10,-11
1127,72,19,957,-1,9,-5
1128,274,414,494,15,19,12
1129,79,108,1678,-83,83,-10
1130,-374,125,862,-125,31,36
1131,-92,-375,586,-141,34,15
1132,-497,-562,749,-12,10,-41
1133,-159,-290,1225,63,-83,-16
1134,498,-274,1011,87,-62,-59
1135,24,260,954,109,16,7
1136,341,467,1100,45,-15,14
1137,-101,327,1187,-20,62,-17
1138,-273,97,738,-93,29,29
1139,-205,-113,1096,-83,-6,5
1140,33,-318,1043,-60,-30,-48
1141,68,-281,821,-17,-22,1
1142,178,-54,1088,31,-23,-12
1143,-11,33,1056,24,12,-8
1144,-91,141,922,9,19,11
1145,-179,113,1044,-16,9,5
1146,-50,19,1019,-35,-17,-17
1147,97,-92,953,-35,-24,-11
1148,89,-102,1020,-17,-19,-9
1149,68,-74,1000,-6,-10,-10
1150,-36,-27,985,3,9,-4
1151,-142,26,998,0,11,5
1152,-92,37,1007,-9,-2,-5
1153,23,2,999,-16,-12,-11
1154,69,-13,991,-17,-16,-6
1155,100,-30,1023,-16,-11,-13
1156,27,-44,989,-12,3,-10
1157,-78,-16,973,-11,9,2
1158,-112,-27,1017,-9,7,-6
1159,-81,-25,983,-12,-1,-6
1160,28,-16,995,-10,-12,-6
1161,74,-13,1013,-7,-11,-12
1162,95,1,1001,-6,-6,-11
1163,29,12,995,-11,7,-5
1164,-65,5,1005,-17,15,-1
1165,-106,-19,992,-22,12,-2
1166,-80,-34,984,-20,1,-4
1167,63,-35,1009,-17,-9,-8
1168,111,-32,1010,-13,0,-11
1169,93,0,998,-10,8,-5
1170,-28,15,1000,-14,24,-3
1171,-120,-4,994,-19,22,-2
1172,-142,-13,968,-22,11,0
1173,-89,-40,1001,-20,-5,-5
1174,12,-52,1001,-13,-18,-10
1175,100,-43,1003,-9,-17,-11
1176,117,-9,1002,-2,-4,-10
1177,34,17,1006,-8,14,-3
1178,-59,22,1003,-15,21,-2
1179,-137,2,974,-23,18,0
1180,-112,-25,1001,-23,-1,-3
1181,-35,-61,997,-19,-16,-9
1182,83,-57,998,-11,-22,-12
1183,123,-27,1004,-5,-10,-10
1184,70,4,1012,-7,9,-5
1185,-26,21,997,-12,23,-1
1186,-128,24,979,-20,20,1
1187,-129,-16,1001,-23,4,-3
1188,-69,-49,993,-21,-13,-8
1189,60,-54,999,-15,-22,-13
1190,122,-40,1005,-8,-14,-12
1191,94,-12,1004,-4,5,-6
1192,1,18,1002,-10,21,-2
1193,-112,24,992,-18,26,3
1194,-137,-6,994,-22,10,-1
1195,-96,-40,982,-23,-9,-6
1196,39,-49,998,-16,-23,-11
1197,116,-46,1015,-7,-18,-12
1198,112,-20,1007,-7,0,-8
1199,22,14,998,-10,19,-3
1200,-96,17,997,-15,24,2
1201,-149,-6,992,-21,13,-1
1202,-106,-29,984,-22,-8,-6
1203,20,-48,1000,-16,-22,-12
1204,103,-48,1005,-12,-19,-13
1205,124,-15,1008,-8,-5,-9
1206,46,9,1001,-10,16,-3
1207,848,49,471,-7,67,-2
1208,-615,779,1569,-68,220,133
1209,-409,20,1181,-182,-106,86
1210,-46,-340,406,-173,11,-17
1211,-459,-860,395,-63,52,-107
1212,-579,-478,1030,139,-56,-77
1213,744,-196,1604,137,-160,-79
1214,220,241,763,109,8,29
1215,314,712,926,55,6,41
1216,146,462,1523,-40,46,-7
1217,-284,69,665,-124,75,10
1218,-264,-314,872,-115,20,21
1219,-154,-415,1211,-42,-27,-34
1220,38,-398,787,8,-35,-30
1221,160,-67,961,67,-28,-6
1222,119,189,1217,59,-4,-4
1223,32,236,940,14,29,-7
1224,-120,176,981,-24,33,10
1225,-147,31,1054,-47,3,-5
1226,19,-152,958,-46,-16,-25
1227,41,-215,960,-19,-15,-13
1228,43,-108,1017,11,-16,-9
1229,36,-26,1005,21,0,-16
1230,-88,64,983,16,15,6
1231,-93,117,1019,-2,9,0
1232,1,43,1025,-20,0,-18
1233,41,-15,962,-28,-7,-7
1234,52,-48,1010,-22,-10,-11
1235,23,-81,1017,-16,-8,-16
1236,-60,-54,963,-9,2,-2
1237,-100,-23,1004,-5,2,-3
1238,-76,-5,1004,-5,-3,-8
1239,25,10,990,-7,-10,-8
1240,66,26,1004,-9,-11,-8
1241,74,13,1027,-16,-7,-11
1242,18,6,988,-20,3,-7
1243,-97,16,973,-26,7,1
1244,-138,4,1014,-33,-5,2
1245,-90,-26,983,-36,-13,-2
1246,41,-71,982,-30,-23,-7
1247,124,-83,1018,-18,-18,-11
1248,128,-57,1003,-8,-3,-9
1249,38,-5,990,-3,12,-5
1250,-92,31,1009,-7,21,1
1251,-149,18,988,-16,13,-1
1252,-114,-4,987,-24,-2,-4
1253,7,-42,1004,-22,-19,-8
1254,101,-64,1003,-14,-19,-14
1255,129,-41,994,-8,-6,-9
1256,45,-6,1007,-7,14,-3
1257,-71,10,1008,-11,22,0
1258,-146,10,975,-17,17,1
1259,-119,-4,991,-20,-1,-3
1260,-13,-39,1000,-20,-17,-10
1261,92,-50,1007,-14,-20,-12
1262,131,-26,998,-9,-9,-10
1263,59,-3,1009,-9,9,-5
1264,-48,6,1001,-13,21,1
1265,-142,5,971,-19,20,3
1266,-126,-16,1005,-20,3,-3
1267,-40,-41,1001,-18,-16,-9
1268,83,-44,993,-13,-22,-11
1269,132,-18,1005,-6,-12,-10
1270,74,0,1012,-9,8,-7
1271,-29,10,1000,-13,22,-1
1272,-133,6,978,-19,22,2
1273,-135,-20,1000,-20,6,-3
1274,-62,-48,989,-19,-14,-8
1275,66,-50,1001,-12,-22,-13
1276,134,-27,1008,-7,-14,-13
1277,91,-3,1008,-8,5,-8
1278,-7,14,1000,-10,21,-2
1279,-123,10,983,-20,23,2
1280,-138,-18,996,-21,9,-2
1281,-85,-50,991,-21,-10,-7
1282,54,-48,998,-13,-24,-13
1283,122,-34,1007,-6,-17,-12
1284,106,-6,1008,-5,1,-8
1285,7,19,998,-11,19,-2
1286,-106,19,995,-19,26,3
1287,-143,-15,996,-22,11,-1
1288,-103,-43,975,-23,-8,-7
1289,35,-52,999,-15,-23,-12
1290,111,-44,1014,-8,-19,-12
1291,120,-10,1012,-4,-2,-9
1292,29,22,998,-10,16,-3
1293,-90,20,994,-16,24,2
1294,-146,-8,992,-22,15,0
1295,-112,-36,982,-23,-3,-5
1296,14,-56,997,-17,-21,-12
1297,99,-54,1008,-10,-20,-13
1298,130,-11,1004,-4,-6,-10
1299,47,17,1004,-9,15,-3
1300,-73,18,1008,-14,26,1
1301,-175,-2,968,-24,15,1
1302,-187,-29,968,-22,-5,-6
1303,-53,-53,1010,-17,-26,-14
1304,136,-34,1023,-21,-46,-18
1305,1095,651,420,-68,54,59
1306,-490,433,1514,-209,174,183
1307,-233,-89,1075,-264,-48,31
1308,-120,-429,454,-281,71,16
1309,-778,-719,330,-167,76,7
1310,-564,-489,652,8,-49,7
1311,184,-930,1338,144,-114,-140
1312,-67,-171,836,240,-9,-110
1313,96,-80,988,216,-40,-143
1314,783,758,1657,217,-98,-3
1315,184,778,652,15,68,56
1316,-79,409,1005,-75,70,9
1317,-224,-35,1314,-113,24,6
1318,-198,-421,741,-113,23,-21
1319,-119,-580,769,-18,-13,-44
1320,42,-303,1214,69,-49,-19
1321,153,-61,967,85,-21,-16
1322,43,270,943,84,18,-5
1323,7,339,1140,26,10,6
1324,-93,198,1010,-23,20,-12
1325,-90,4,901,-51,2,-15
1326,-48,-136,1051,-43,-22,-17
1327,49,-217,983,-16,-30,-29
1328,51,-147,950,12,-15,-14
1329,5,-1,1033,26,-2,-4
1330,-36,105,1042,17,7,-6
1331,-106,208,939,-14,8,9
1332,-88,207,1015,-47,-10,9
1333,18,28,1040,-74,-28,-12
1334,103,-157,966,-75,-24,-10
1335,108,-243,974,-45,-14,-9
1336,19,-224,993,-8,6,-6
1337,-66,-117,986,21,17,-2
1338,-148,48,984,30,17,3
1339,-61,144,1023,13,-1,-6
1340,30,131,1016,-11,-11,-11
1341,105,87,993,-33,-13,-9
1342,83,-8,1023,-45,-4,-10
1343,-13,-111,997,-42,8,-6
1344,-110,-151,961,-27,13,-1
1345,-126,-117,983,-5,6,-3
1346,-39,-60,1001,8,-6,-8
1347,62,16,1003,14,-11,-10
1348,116,89,1016,5,-7,-8
1349,85,95,1014,-15,5,-8
1350,-32,36,1010,-32,17,-1
1351,-131,-35,976,-44,13,0
1352,-131,-105,988,-30,8,-2
1353,-45,-140,981,-10,-14,-10
1354,72,-93,1001,3,-16,-11
1355,135,1,1010,11,-8,-11
1356,80,67,1005,6,8,-6
1357,-25,94,1012,-10,19,-1
1358,-136,54,987,-30,19,0
1359,-137,-25,994,-38,4,-4
1360,-67,-103,988,-32,-14,-7
1361,68,-113,993,-15,-23,-13
1362,137,-70,1000,1,-15,-13
1363,93,-1,1002,6,6,-7
1364,-10,60,1016,-1,21,-1
1365,-125,74,990,-15,22,1
1366,-146,27,990,-28,6,-2
1367,-85,-42,991,-31,-13,-7
1368,49,-80,1004,-23,-23,-12
1369,133,-80,998,-13,-18,-13
1370,105,-40,1000,-2,1,-7
1371,12,11,1006,-3,18,-2
1372,-109,36,993,-11,26,2
1373,-146,17,989,-20,12,-2
1374,-105,-19,992,-25,-8,-5
1375,36,-47,1003,-21,-25,-12
1376,119,-58,1007,-15,-20,-13
1377,119,-40,1002,-9,-2,-8
1378,33,-6,1003,-9,17,-3
1379,-94,12,998,-12,24,3
1380,-145,-2,990,-17,14,0
1381,-114,-17,984,-19,-3,-5
1382,14,-32,1002,-16,-21,-11
1383,103,-40,1006,-13,-20,-13
1384,127,-18,1007,-9,-7,-9
1385,44,5,1006,-11,13,-4
1386,-77,2,997,-16,25,1
1387,-150,-13,985,-19,17,0
1388,113,-111,862,-16,5,-8
1389,601,563,835,-7,102,27
1390,-435,312,1784,-139,51,133
1391,0,-79,836,-146,-53,-13
1392,-148,-765,444,-120,89,-134
1393,-801,-681,575,93,44,-149
1394,-84,59,1302,172,-129,-112
1395,351,-37,1378,66,-85,-11
1396,130,473,678,41,-11,49
1397,533,256,1202,-18,-29,0
1398,126,183,1235,-41,56,-26
1399,-168,-141,647,-91,62,28
1400,-299,-204,1083,-33,27,-12
1401,-306,-246,1038,-17,-13,-19
1402,-67,-171,815,16,-37,-8
1403,128,12,1113,39,-46,-21
1404,219,74,1072,25,-24,-15
1405,198,127,959,12,10,-12
1406,-50,87,1020,-16,29,-1
1407,-162,25,1016,-28,14,-6
1408,-147,-74,943,-35,1,-13
1409,-139,-91,981,-22,-20,-3
1410,37,-70,1024,-9,-42,-14
1411,155,-31,1017,-1,-26,-16
1412,139,96,984,-7,-5,11
1413,69,149,1044,-25,14,6
1414,-35,35,994,-54,28,-1
1415,-146,-62,944,-56,21,11
1416,-140,-149,1006,-40,0,-3
1417,-91,-189,968,-17,-18,-14
1418,50,-102,983,12,-27,-10
1419,122,11,1027,22,-16,-10
1420,114,84,1019,11,7,-9
1421,30,125,999,-9,23,0
1422,-111,88,1004,-32,28,4
1423,-149,-21,1001,-45,9,-3
1424,-117,-106,963,-38,-12,-7
1425,16,-134,980,-17,-27,-12
1426,113,-105,1022,0,-22,-14
1427,141,-26,1005,9,-1,-10
1428,52,64,1004,7,21,0
1429,-82,91,1011,-11,28,3
1430,-154,42,993,-29,18,-1
1431,-137,-17,981,-36,-3,-3
1432,-10,-81,996,-33,-25,-11
1433,101,-109,1005,-16,-25,-15
1434,144,-66,994,-1,-9,-9
1435,73,-2,1007,2,16,-5
1436,-56,32,1016,-5,29,1
1437,-152,39,972,-15,23,2
1438,-144,20,988,-23,2,-3
1439,-38,-35,1006,-24,-21,-11
1440,83,-63,1001,-19,-25,-13
1441,150,-48,998,-12,-15,-11
1442,85,-27,1005,-7,9,-5
1443,-33,0,1004,-8,25,1
1444,-146,10,978,-16,25,3
1445,-148,6,1000,-18,5,-2
1446,-58,-24,992,-18,-16,-9
1447,70,-36,1003,-13,-25,-13
1448,145,-22,1012,-10,-19,-12
1449,93,-11,1005,-11,5,-7
1450,-14,0,1001,-15,23,-1
1451,-135,0,979,-18,25,2
1452,-147,-20,999,-19,10,-1
1453,-76,-45,990,-18,-13,-7
1454,56,-37,1003,-10,-24,-11
1455,140,-19,1004,-8,-16,-12
1456,101,0,1011,-8,4,-7
1457,2,13,998,-13,19,-1
1458,-123,4,990,-20,24,1
1459,-146,-28,988,-23,10,-2
1460,-95,-58,983,-20,-8,-7
1461,48,-49,1006,-11,-22,-12
1462,129,-28,1009,-6,-19,-12
1463,115,1,1004,-5,0,-9
1464,19,27,1002,-11,18,-3
1465,-106,21,999,-21,27,2
1466,-151,-24,990,-24,13,0
1467,526,-155,613,-19,11,-7
1468,309,1190,1213,-57,222,132
1469,-556,-80,1529,-246,-50,175
1470,120,-217,529,-194,-42,36
1471,-89,-690,186,-136,115,-93
1472,-961,-840,527,92,109,-119
1473,-352,-258,1352,214,-115,-195
1474,206,-183,1516,159,-138,-37
1475,128,428,432,64,-36,108
1476,642,392,1463,56,-57,9
1477,474,505,1126,-5,33,-25
1478,-104,11,723,-101,107,31
1479,-301,-36,1139,-68,52,-6
1480,-421,-356,1045,-69,15,-13
1481,-238,-336,648,-19,-18,-19
1482,-33,-267,1114,54,-64,-20
1483,300,17,1136,71,-57,-22
1484,279,117,950,51,10,-17
1485,115,263,1016,31,30,3
1486,-138,158,1111,-16,36,-3
1487,-197,-18,885,-35,19,-25
1488,-249,-112,956,-31,-12,-17
1489,-79,-152,1014,-15,-49,-18
1490,98,-122,1037,10,-46,-26
1491,205,-38,958,20,-29,-12
1492,154,108,1072,22,-1,-8
1493,37,233,1001,-10,20,5
1494,-155,252,949,-53,24,16
1495,-224,151,1031,-91,-5,4
1496,-167,-118,1006,-111,-34,-3
1497,15,-294,939,-78,-48,-10
1498,196,-329,973,-29,-43,-16
1499,221,-238,1012,18,-7,-18
1500,97,-43,989,46,30,-4
1501,-105,172,1016,40,43,10
1502,-206,226,1030,4,27,5
1503,-194,160,956,-35,0,-4
1504,-23,28,1010,-57,-31,-11
1505,131,-104,1031,-54,-38,-17
1506,177,-187,973,-35,-18,-15
1507,102,-163,984,-7,10,-6
1508,-77,-63,1009,10,30,3
1509,-152,14,996,12,27,1
1510,-168,75,976,3,8,1
1511,-26,93,1008,-14,-18,-8
1512,111,34,1029,-26,-27,-16
1513,144,-25,1003,-32,-14,-11
1514,75,-64,994,-31,7,-4
1515,-62,-86,999,-20,22,-1
1516,-147,-87,982,-14,20,1
1517,-146,-39,975,-5,5,-3
1518,-13,-1,1005,0,-13,-10
1519,92,27,1012,-3,-18,-12
1520,136,52,1010,-10,-12,-9
1521,73,40,1007,-21,7,-6
1522,-63,-4,1006,-30,21,0
1523,-148,-58,975,-31,16,2
1524,-139,-86,985,-21,2,-4
1525,-18,-86,984,-11,-17,-11
1526,84,-40,1006,4,-19,-12
1527,145,32,1013,7,-11,-11
1528,72,66,1017,-7,10,-5
1529,-45,57,1004,-19,22,2
1530,-153,4,984,-33,19,3
1531,-135,-53,984,-33,2,-3
1532,-43,-104,990,-22,-16,-9
1533,77,-84,1002,-7,-22,-13
1534,146,-30,1009,2,-14,-13
1535,83,33,999,2,8,-6
1536,-32,54,1017,-8,22,0
1537,-139,41,988,-24,21,1
1538,-146,-18,991,-33,6,-2
1539,-59,-79,986,-28,-15,-9
1540,67,-89,999,-16,-23,-11
1541,146,-57,1005,-3,-16,-12
1542,95,-8,1010,1,7,-6
1543,-11,36,1002,-5,23,-1
1544,-128,42,989,-18,25,2
1545,-151,8,995,-24,9,0
1546,-84,-44,987,-26,-12,-6
1547,57,-71,1008,-20,-24,-13
1548,130,-57,1002,-10,-18,-13
1549,105,-25,998,-4,1,-7
1550,7,16,1005,-6,19,-3
1551,-117,32,993,-14,25,3
1552,-147,4,989,-23,11,-1
1553,-26,-73,952,-23,-8,-6
1554,1219,484,553,0,86,17
1555,-745,325,1811,-144,137,162
1556,98,65,790,-157,-91,46
1557,-70,-604,444,-163,102,-28
1558,-811,-759,504,26,74,-104
1559,-425,-155,1036,147,-77,-99
1560,184,-327,1533,108,-123,-49
1561,48,475,788,86,-48,77
1562,531,307,1018,5,-52,26
1563,477,369,1427,6,17,-34
1564,-61,42,674,-100,82,40
1565,-240,-158,1005,-67,54,3
1566,-401,-269,1125,-37,14,-19
1567,-274,-296,718,-17,-18,-10
1568,-6,-189,1013,47,-59,-28
1569,244,23,1180,61,-57,-20
1570,283,127,937,39,-4,-15
1571,138,213,1031,20,24,-6
1572,-137,148,1073,-22,31,5
1573,-210,2,930,-42,16,-11
1574,-218,-107,945,-40,-12,-10
1575,-78,-137,1012,-22,-45,-11
1576,118,-67,1021,-2,-46,-21
1577,173,63,984,-3,-27,5
1578,143,146,1034,-17,-2,6
1579,42,40,1015,-43,24,-2
1580,-122,-55,953,-50,29,7
1581,-174,-110,996,-39,9,1
1582,-116,-159,977,-18,-13,-14
1583,16,-102,977,5,-28,-13
1584,133,2,1018,16,-25,-10
1585,134,75,1023,8,0,-10
1586,44,92,1001,-9,22,-1
1587,-115,81,993,-29,29,5
1588,-154,-16,1007,-41,12,-4
1589,-127,-99,968,-37,-10,-6
1590,20,-125,979,-18,-26,-12
1591,131,-89,1019,-1,-22,-14
1592,132,-23,1001,6,-2,-8
1593,46,50,1006,2,20,-2
1594,-104,77,1002,-13,28,2
1595,-157,34,996,-25,15,0
1596,-126,-31,984,-34,-6,-6
1597,15,-76,1000,-26,-25,-13
1598,127,-88,1002,-13,-24,-14
1599,135,-59,996,-4,-3,-8
1600,46,1,1006,-2,17,-2
1601,-87,31,1004,-9,29,2
1602,-158,22,990,-16,19,1
1603,-136,-3,977,-23,-4,-3
1604,11,-36,1003,-20,-21,-11
1605,107,-49,1008,-16,-23,-13
1606,135,-38,1007,-11,-7,-8
1607,53,-2,998,-9,14,-4
1608,-76,8,998,-12,26,3
1609,-155,-4,991,-15,19,0
1610,-132,-17,984,-18,1,-4
1611,-4,-32,994,-15,-19,-11
1612,91,-37,1006,-11,-22,-13
1613,132,-11,1007,-7,-10,-11
1614,64,12,1007,-10,11,-5
1615,-63,6,1003,-17,24,0
1616,-146,-10,978,-22,20,1
1617,-130,-31,986,-21,1,-3
1618,-21,-54,999,-17,-19,-10
1619,88,-47,1002,-9,-24,-14
1620,138,-12,1006,-5,-11,-12
1621,70,17,1005,-10,10,-6
1622,-46,15,1007,-15,23,0
1623,-143,-3,981,-23,20,1
1624,-134,-33,989,-24,3,-2
1625,-40,-66,992,-20,-16,-8
1626,75,-58,1003,-9,-21,-13
1627,142,-18,1006,-3,-15,-12
1628,77,10,1008,-6,7,-5
1629,-28,26,1000,-12,23,1
1630,-138,14,986,-21,24,1
1631,-151,-21,994,-28,5,-2
1632,-66,-60,987,-21,-14,-8
1633,83,-62,1000,-13,-28,-12
1634,420,-147,880,-4,-13,-15
1635,991,665,809,17,174,54
1636,-871,330,1703,-143,97,157
1637,-116,-130,567,-188,-40,62
1638,-189,-842,308,-99,95,-65
1639,-1067,-482,685,123,50,-129
1640,-125,-145,1286,138,-166,-135
1641,453,-13,1442,110,-125,-13
1642,221,459,606,40,-9,85
1643,539,254,1209,-13,-23,35
1644,194,258,1293,-19,59,-31
1645,-242,-142,581,-93,89,21
1646,-356,-177,1119,-27,25,-15
1647,-304,-228,1057,-16,-22,-26
1648,-66,-208,783,15,-42,-21
1649,217,25,1118,47,-54,-21
1650,252,98,1101,24,-16,-10
1651,158,139,946,8,26,-9
1652,-110,88,1022,-17,37,1
1653,-250,4,994,-31,16,-8
1654,-140,-69,950,-28,-17,-28
1655,-34,-58,985,-21,-37,-15
1656,92,59,1033,-21,-43,2
1657,169,103,1035,-33,-23,-4
1658,56,49,979,-55,6,11
1659,-52,-23,1027,-62,14,10
1660,-122,-143,966,-56,13,1
1661,-99,-199,937,-31,-3,-4
1662,10,-148,1016,2,-20,-13
1663,95,-44,1003,21,-17,-14
1664,101,76,994,19,0,-5
1665,9,134,1040,1,16,0
1666,-95,100,994,-27,21,1
1667,-129,6,978,-44,11,-1
1668,-85,-86,994,-40,-9,-7
1669,31,-142,1001,-26,-22,-14
1670,126,-107,982,-4,-19,-12
1671,92,-26,1000,9,1,-7
1672,9,46,1025,7,16,-3
1673,-106,72,983,-10,22,2
1674,-135,51,1002,-24,12,-1
1675,-84,-16,997,-31,-9,-7
1676,44,-74,995,-26,-22,-12
1677,125,-81,996,-15,-19,-12
1678,97,-55,1005,-7,0,-7
1679,11,-13,1004,-5,17,-3
1680,-113,22,983,-8,24,3
1681,-138,22,1003,-15,11,-1
1682,-91,-13,988,-21,-8,-7
1683,37,-31,1000,-18,-22,-11
1684,123,-36,1009,-15,-18,-12
1685,104,-29,1001,-13,0,-8
1686,16,-7,999,-12,15,-3
1687,-106,5,991,-16,24,2
1688,-138,-15,992,-19,15,0
1689,-101,-29,986,-18,-3,-5
1690,32,-30,1004,-4,-16,-11
1691,116,-22,1009,-10,-18,-13
1692,109,-9,1000,-8,-3,-8
1693,23,15,1000,-11,15,-4
1694,-96,9,1005,-19,23,1
1695,-141,-20,990,-22,14,-2
1696,-108,-45,973,-21,-5,-5
1697,22,-46,998,-13,-20,-10
1698,108,-38,1017,-7,-19,-14
1699,119,-5,1010,-7,-2,-10
1700,39,26,998,-8,15,-4
1701,-85,17,1002,-18,23,2
1702,-142,-16,987,-23,14,0
1703,-119,-43,983,-24,-1,-4
1704,5,-63,1004,-17,-20,-12
1705,95,-54,1001,-8,-20,-13
1706,128,-12,999,-3,-7,-9
1707,53,25,1008,-7,13,-4
1708,-65,25,1014,-15,24,1
1709,-145,2,975,-22,19,1
1710,-92,-59,959,-24,0,-4
1711,979,143,534,10,61,6
1712,-561,469,1806,-83,116,132
1713,-74,10,813,-139,-83,26
1714,-98,-562,377,-114,94,-94
1715,-930,-581,698,66,46,-144
1716,63,72,1381,104,-152,-43
1717,436,-179,1143,33,-60,-36
1718,110,382,816,56,3,22
1719,474,221,1148,-23,-26,23
1720,23,123,1264,-22,67,-41
1721,-241,-139,561,-77,54,29
1722,-300,-173,1131,-26,16,0
1723,-183,-193,1067,-5,-23,-35
1724,-49,-143,801,18,-34,-4
1725,169,76,1116,37,-47,-18
1726,174,70,1114,16,-19,-20
1727,145,116,893,1,11,-8
1728,-86,59,1053,-22,28,-1
1729,-149,-6,1012,-31,9,-13
1730,-115,-99,935,-32,-3,-10
1731,-98,-84,988,-13,-24,-6
1732,36,-45,1038,-3,-39,-15
1733,174,30,1004,-4,-25,-11
1734,118,121,995,-17,0,13
1735,67,107,1030,-37,19,1
1736,-57,-52,989,-55,33,-4
1737,-169,-104,938,-44,21,9
1738,-146,-158,1006,-24,-5,-6
1739,-75,-132,975,-1,-22,-15
1740,71,-40,986,16,-28,-8
1741,136,57,1039,16,-13,-11
1742,114,91,1017,-3,9,-6
1743,20,94,991,-20,26,0
1744,-124,34,1003,-37,27,3
1745,-158,-64,990,-39,5,-3
1746,-110,-115,964,-28,-14,-7
1747,19,-116,987,-10,-28,-11
1748,120,-67,1026,4,-20,-14
1749,141,14,1001,9,0,-8
1750,48,77,1006,0,22,-1
1751,-81,77,1017,-18,27,1
1752,-158,17,978,-33,17,-2
1753,-133,-43,982,-35,-6,-4
1754,-15,-95,1000,-25,-26,-12
1755,101,-106,1001,-10,-25,-14
1756,149,-46,996,0,-7,-9
1757,71,14,1014,2,16,-4
1758,-50,45,1012,-7,29,2
1759,-160,41,974,-21,23,3
1760,-140,5,988,-25,0,-3
1761,-45,-51,1002,-26,-21,-9
1762,89,-76,998,-17,-28,-14
1763,151,-55,1000,-8,-13,-11
1764,85,-16,1003,-4,11,-6
1765,-30,11,1007,-6,25,0
1766,-144,28,978,-16,24,3
1767,-147,3,1000,-22,7,-2
1768,-66,-29,990,-22,-15,-10
1769,69,-46,999,-16,-27,-12
1770,148,-36,1010,-10,-19,-12
1771,97,-19,1006,-8,5,-6
1772,-11,1,1000,-11,23,-3
1773,-133,10,981,-17,25,2
1774,-164,-5,993,-16,9,-2
1775,-96,-32,991,-22,-16,-8
1776,55,-38,1005,-12,-29,-14
1777,164,-32,1009,-27,-27,-14
1778,139,-19,1002,-14,1,-5
1779,717,-120,580,-3,44,0
1780,-183,865,1362,-26,224,122
1781,-507,124,1398,-181,-49,98
1782,-110,-272,425,-194,17,35
1783,-434,-728,369,-73,50,-60
1784,-646,-504,897,107,-48,-76
1785,457,-314,1536,122,-153,-91
1786,245,41,972,115,-31,14
1787,318,633,744,77,-8,49
1788,306,446,1579,-5,24,-6
1789,-198,186,787,-85,78,4
1790,-262,-212,775,-108,35,21
1791,-236,-350,1228,-43,-13,-26
1792,-77,-376,859,-3,-37,-31
1793,141,-136,873,53,-43,-18
1794,140,128,1214,65,-24,-8
1795,83,224,991,24,8,-9
1796,-52,191,947,-16,26,2
1797,-165,93,1058,-45,7,2
1798,-70,-93,981,-54,-18,-20
1799,39,-180,941,-35,-27,-17
1800,64,-107,1001,-10,-27,-6
1801,115,-16,1034,3,-12,-11
1802,-6,28,975,-1,16,4
1803,-99,79,994,-12,21,10
1804,-70,8,1031,-26,9,-9
1805,-41,-49,961,-28,0,-8
1806,50,-41,988,-20,-15,-7
1807,64,-45,1029,-13,-11,-16
1808,16,-33,986,-9,1,-6
1809,-63,0,983,-12,9,0
1810,-87,-2,1024,-12,11,-4
1811,-43,-28,985,-15,1,-5
1812,21,-20,990,-13,-7,-5
1813,84,-9,1012,-9,-8,-10
1814,73,-8,1004,-8,2,-7
1815,-9,-3,991,-14,12,-3
1816,-102,-3,995,-18,15,-2
1817,-113,-27,1006,-21,5,-3
1818,-65,-51,975,-18,-6,-5
1819,45,-43,1008,-10,-14,-10
1820,114,-22,1008,-7,-11,-12
1821,85,1,1002,-7,3,-7
1822,-7,21,1004,-12,15,-3
1823,-109,17,989,-20,18,-1
1824,-122,-24,993,-24,5,-3
1825,-84,-56,990,-23,-8,-4
1826,48,-60,1006,-14,-18,-11
1827,117,-45,1000,-6,-14,-10
1828,94,-3,1000,-1,2,-6
1829,6,35,1010,-8,16,-4
1830,-105,32,993,-18,22,1
1831,-137,0,992,-25,10,-1
1832,-98,-43,982,-25,-6,-7
1833,33,-63,1001,-17,-20,-11
1834,111,-57,1006,-9,-18,-11
1835,108,-20,1013,-3,0,-9
1836,27,21,994,-6,15,-4
1837,-99,32,994,-13,24,2
1838,-140,6,996,-22,12,0
1839,-108,-29,988,-25,-4,-6
1840,553,-210,682,-15,-10,-12
1841,385,717,1104,8,187,95
1842,-450,155,1445,-151,-26,106
1843,64,-174,388,-168,31,26
1844,-550,-786,428,-46,125,-88
1845,-908,-136,998,112,-43,-97
1846,377,-238,1344,50,-149,-56
1847,83,13,1092,76,-32,-5
1848,376,398,686,14,-49,58
1849,559,156,1496,8,-1,-28
1850,-27,163,897,-46,82,7
1851,-277,-150,700,-81,66,42
1852,-365,-182,1291,-16,15,-17
1853,-294,-233,835,-19,-20,-18
1854,-25,-153,838,31,-50,-20
1855,262,40,1256,47,-64,-28
1856,279,113,977,21,-11,-15
1857,149,133,944,7,28,-7
1858,-150,98,1105,-22,35,3
1859,-227,-33,939,-34,18,-11
1860,-191,-134,932,-28,-7,-16
1861,-99,-122,1023,-8,-42,-11
1862,146,-75,1018,13,-50,-29
1863,202,-18,997,18,-26,-22
1864,108,106,1023,11,2,-3
1865,29,194,1035,-12,21,-9
1866,-123,184,959,-52,27,11
1867,-197,102,999,-80,5,16
1868,-117,-136,1016,-90,-19,-6
1869,19,-277,949,-57,-31,-15
1870,148,-268,978,-11,-28,-12
1871,145,-145,1011,25,-3,-13
1872,56,27,999,38,22,-4
1873,-96,170,1006,20,33,9
1874,-169,184,1019,-12,21,2
1875,-140,83,984,-43,-4,-6
1876,0,-32,997,-52,-27,-11
1877,111,-134,1010,-40,-30,-16
1878,144,-164,993,-19,-11,-12
1879,68,-105,982,0,13,-4
1880,-71,-5,1010,10,27,3
1881,-146,44,1002,3,22,2
1882,-138,71,979,-7,4,-3
1883,-13,47,1007,-21,-18,-8
1884,95,-11,1017,-26,-23,-14
1885,135,-52,1004,-26,-11,-10
1886,58,-61,989,-19,8,-4
1887,-58,-58,1001,-14,22,-1
1888,-144,-49,982,-11,20,0
1889,-131,-12,981,-6,4,-4
1890,-12,7,1006,-6,-15,-10
1891,82,9,1004,-9,-20,-13
1892,128,25,1006,-12,-12,-10
1893,65,11,1012,-22,8,-5
1894,-56,-17,999,-25,20,-1
1895,-139,-48,979,-24,19,0
1896,-132,-59,981,-18,2,-3
1897,-25,-61,999,-10,-16,-9
1898,80,-30,1000,-2,-20,-13
1899,135,24,1010,-2,-11,-11
1900,74,47,1014,-8,8,-6
1901,-44,34,1005,-20,21,-1
1902,-137,-11,973,-31,19,1
1903,-136,-54,996,-28,4,-4
1904,-45,-88,989,-19,-15,-9
1905,75,-70,998,-4,-20,-13
1906,139,-16,1007,2,-14,-12
1907,83,28,1010,-1,8,-5
1908,420,-81,735,3,36,-4
1909,116,721,1218,-17,166,95
1910,-541,189,1548,-157,-2,106
1911,-106,-274,527,-169,11,-23
1912,-544,-824,471,-50,78,-146
1913,-599,-360,925,128,-83,-123
1914,661,-78,1445,91,-164,-46
1915,310,74,992,81,-4,-17
1916,347,497,839,39,1,32
1917,161,230,1387,-22,49,-10
1918,-355,47,856,-58,78,-2
1919,-312,-179,746,-75,18,18
1920,-164,-240,1232,-15,-27,-36
1921,44,-245,880,6,-48,-26
1922,223,-29,943,40,-36,-15
1923,146,104,1162,35,-5,-15
1924,0,144,983,9,19,-3
1925,-139,90,936,-20,27,0
1926,-188,5,1039,-29,2,-7
1927,-8,-84,985,-29,-25,-21
1928,79,-136,981,-15,-24,-20
1929,88,-39,1007,4,-23,-12
1930,83,42,1028,4,-6,-11
1931,-24,128,987,-14,13,11
1932,-130,182,1011,-42,14,19
1933,-41,38,1010,-69,1,-1
1934,2,-128,966,-69,-5,1
1935,70,-184,975,-45,-13,-1
1936,60,-196,1007,-13,-4,-14
1937,-24,-108,976,12,8,-5
1938,-103,28,994,21,11,3
1939,-104,108,1024,7,7,-4
1940,-25,93,998,-15,-5,-5
1941,55,43,1003,-30,-10,-5
1942,100,-22,1014,-36,-9,-10
1943,61,-79,995,-33,1,-8
1944,-43,-94,985,-20,12,-3
1945,-123,-70,981,-9,12,-2
1946,-110,-35,998,-4,3,-3
1947,-27,-2,991,-2,-8,-6
1948,73,25,1019,-5,-12,-10
1949,125,41,1013,-12,-7,-10
1950,64,24,996,-21,6,-6
1951,-45,-7,1002,-26,15,-2
1952,-132,-45,977,-30,14,-1
1953,-119,-75,995,-22,4,-3
1954,-49,-79,984,-10,-12,-7
1955,74,-45,1004,-2,-16,-13
1956,129,6,1005,3,-10,-11
1957,73,48,1011,-4,8,-4
1958,-25,49,1010,-17,18,-2
1959,-174,50,961,-26,19,2
1960,-232,45,992,-42,-6,2
1961,-52,-47,1025,-41,-28,-9
1962,157,-162,972,-30,-29,-17
1963,223,-121,972,-20,-26,-20
1964,85,-74,998,-11,16,-11
1965,-37,27,999,21,24,-2
1966,-179,83,991,-7,24,4
1967,-151,48,996,-24,3,-4
1968,-57,-5,1007,-20,-14,-6
1969,98,-49,1000,-21,-22,-16
1970,119,-75,995,-16,-15,-12
1971,110,-67,1002,-6,2,-8
1972,837,209,493,2,69,19
1973,-535,782,1707,-68,174,151
1974,-332,42,1072,-202,-52,40
1975,-252,-386,414,-196,54,-10
1976,-573,-714,599,-56,16,-67
1977,-295,-543,924,81,-80,-52
1978,599,-386,1453,140,-119,-106
1979,359,120,915,122,-21,24
1980,388,654,946,92,16,33
1981,65,508,1422,-9,73,-7
1982,-422,189,728,-109,80,36
1983,-274,-204,926,-116,13,20
1984,-169,-443,1126,-53,-26,-41
1985,37,-408,818,3,-47,-36
1986,243,-190,991,68,-43,-21
1987,123,130,1173,80,-3,-9
1988,14,238,942,37,24,-3
1989,-147,244,1015,-1,32,4
1990,-186,80,1026,-42,4,-4
1991,-25,-101,963,-45,-22,-23
1992,76,-185,990,-26,-31,-22
1993,90,-127,998,3,-30,-15
1994,78,-54,1011,18,-11,-18
1995,-76,39,982,14,10,-1
1996,-116,128,1011,0,9,3
1997,-49,120,1006,-23,0,-7
1998,26,83,990,-44,-11,1
1999,111,-1,1006,-53,-17,-6
2000,75,-139,1003,-49,-6,-14
2001,-20,-163,970,-25,5,-2
2002,-124,-105,973,-5,10,0
2003,-129,-41,1009,6,3,-9
2004,-66,31,991,7,-6,-7
2005,54,85,1009,-4,-16,-10
2006,123,80,1025,-23,-15,-13
2007,90,26,1006,-36,-3,-7
2008,29,-45,980,-43,8,-2
2009,-81,-102,998,-27,19,-1
2010,-118,-116,988,-16,11,-1
2011,-103,-84,971,-3,3,-5
2012,11,-15,1015,10,-9,-9
2013,99,41,1006,10,-8,-10
2014,106,71,1011,-3,0,-9
2015,8,70,1002,-19,12,-2
2016,-95,23,1006,-35,16,-1
2017,-129,-71,990,-37,8,-2
2018,-104,-113,972,-29,-5,-5
2019,34,-108,998,-9,-19,-12
2020,102,-57,1006,5,-13,-12
2021,110,20,1012,8,0,-8
2022,28,82,1006,-1,16,-3
2023,-88,75,1000,-18,23,2
2024,-143,11,993,-32,13,0
2025,-112,-58,982,-35,-5,-6
2026,17,-102,990,-24,-21,-12
2027,98,-94,1000,-8,-18,-12
2028,123,-35,1008,3,-3,-9
2029,47,33,1003,3,14,-4
2030,-77,62,1000,-9,24,3
2031,-145,37,991,-18,17,1
2032,-123,-5,994,-33,-7,-5
2033,-5,-65,990,-27,-20,-11
2034,88,-84,999,-17,-22,-13
2035,130,-49,1004,-4,-9,-9
2036,64,-3,1003,-4,12,-6
2037,-56,23,1008,-8,26,0
2038,-143,32,981,-16,20,2
2039,-126,0,990,-23,2,-4
2040,-29,-41,997,-22,-18,-9
2041,82,-60,1006,-16,-23,-12
2042,515,-171,807,-5,-5,-14
2043,586,636,990,17,171,70
2044,-598,268,1623,-144,34,128
2045,-62,-175,552,-177,2,46
2046,-418,-831,352,-87,105,-53
2047,-941,-357,859,118,-24,-83
2048,247,-126,1430,108,-166,-65
2049,275,33,1126,90,-57,-19
2050,355,515,720,44,-29,48
2051,513,309,1400,-15,0,-3
2052,-55,168,999,-65,85,-7
2053,-315,-198,669,-100,61,36
2054,-370,-281,1210,-34,11,-17
2055,-206,-339,897,-7,-33,-29
2056,109,-137,861,46,-49,-20
2057,280,93,1196,58,-39,-21
2058,212,199,1021,28,6,-10
2059,29,197,942,-10,40,2
2060,-251,83,1062,-39,36,6
2061,-231,-81,953,-50,-1,-11
2062,-82,-195,952,-33,-25,-20
2063,61,-154,1008,-1,-45,-16
2064,202,-57,1029,19,-34,-22
2065,126,40,997,20,1,-12
2066,-56,136,1006,3,20,6
2067,-132,104,1025,-24,16,-8
2068,-150,53,954,-40,1,-3
2069,-28,52,984,-51,-24,10
2070,106,-35,1057,-56,-32,-7
2071,153,-143,964,-50,-14,-8
2072,83,-159,977,-24,8,0
2073,-68,-112,1007,-3,24,1
2074,-155,-55,974,6,22,-1
2075,-150,44,981,9,6,-1
2076,-35,80,1019,-4,-16,-8
2077,94,56,1015,-16,-23,-14
2078,148,17,997,-26,-14,-8
2079,76,-18,1003,-31,8,-4
2080,-46,-73,1014,-29,22,-2
2081,-149,-86,958,-21,20,2
2082,-142,-66,981,-11,4,-1
2083,-38,-42,1003,-2,-14,-10
2084,83,0,1007,3,-20,-12
2085,144,47,1008,-3,-11,-10
2086,84,56,1013,-15,7,-6
2087,-33,18,1006,-25,21,0
2088,-147,-28,978,-33,20,4
2089,-140,-77,989,-29,4,-3
2090,-54,-97,986,-16,-15,-8
2091,72,-69,998,-3,-21,-13
2092,143,3,1014,6,-14,-12
2093,86,51,1009,-1,5,-6
2094,-22,62,1002,-13,22,-1
2095,-135,32,993,-29,23,2
2096,-143,-35,990,-33,6,-2
2097,-75,-91,984,-27,-15,-8
2098,58,-94,997,-12,-22,-14
2099,134,-48,1006,0,-15,-12
2100,101,7,1006,2,5,-8
2101,-4,51,1006,-4,20,-2
2102,-122,55,998,-17,24,2
2103,-141,2,990,-29,9,0
2104,-91,-56,983,-30,-9,-6
2105,47,-79,1004,-19,-23,-11
2106,125,-66,1005,-9,-19,-12
2107,108,-26,999,0,2,-8
2108,15,26,1005,-3,19,-3
2109,-105,40,1001,-15,25,3
2110,-142,10,987,-24,13,0
2111,-105,-32,983,-25,-7,-6
2112,27,-54,1003,-19,-24,-12
2113,113,-60,1004,-10,-20,-13
2114,117,-34,1007,-6,-3,-9
2115,28,10,997,-6,17,-2
2116,-98,26,998,-15,24,1
2117,281,-131,656,-23,18,-2
2118,162,961,968,-21,214,119
2119,-445,122,1426,-207,-58,117
2120,-48,-241,391,-205,7,12
2121,-396,-910,178,-82,95,-148
2122,-1058,-456,931,141,-10,-158
2123,636,-210,1627,119,-199,-102
2124,268,-17,953,89,-29,15
2125,383,630,698,57,-12,39
2126,489,351,1644,-12,18,-11
2127,-195,145,805,-80,98,1
2128,-349,-238,638,-105,56,44
2129,-311,-313,1331,-28,-4,-23
2130,-115,-345,848,1,-33,-31
2131,64,-125,796,54,-37,-13
2132,219,147,1320,64,-40,-14
2133,171,169,964,24,8,-16
2134,29,126,915,-4,38,0
2135,-163,65,1110,-27,22,2
2136,-94,-98,944,-31,3,-24
2137,-83,-175,927,-16,-6,-12
2138,-69,-70,1028,10,-27,-7
2139,76,-32,1030,18,-29,-26
2140,31,8,979,15,-9,-7
2141,6,101,1015,6,-4,1
2142,48,50,1039,-11,0,-22
2143,-13,-1,952,-20,6,-9
2144,-60,14,986,-24,-4,-3
2145,-62,-14,1027,-25,-15,-16
2146,-50,23,974,-27,-21,0
2147,-28,83,1000,-40,-23,16
2148,55,32,1037,-52,-19,-5
2149,102,-105,968,-56,-4,-6
2150,68,-148,972,-34,10,0
2151,-17,-126,1010,-12,13,-4
2152,-90,-66,981,3,11,-6
2153,-130,17,977,9,3,-1
2154,-92,70,1009,-1,-9,-5
2155,42,60,1021,-15,-18,-13
2156,114,17,1000,-25,-12,-8
2157,102,-20,1009,-26,3,-3
2158,19,-52,999,-26,15,-6
2159,-96,-64,985,-19,20,1
2160,-152,-64,982,-15,8,0
2161,-107,-40,988,-6,-6,-7
2162,31,-15,1002,-3,-20,-10
2163,106,8,1013,-4,-15,-10
2164,128,23,1019,-11,-2,-8
2165,35,23,997,-19,14,-4
2166,-83,-3,997,-25,21,1
2167,-154,-47,989,-27,13,-1
2168,-117,-62,978,-21,-6,-6
2169,2,-68,996,-12,-19,-12
2170,96,-41,1008,-4,-19,-13
2171,136,8,1002,0,-7,-9
2172,55,47,1009,-8,13,-3
2173,-67,37,1014,-20,25,1
2174,-150,-2,978,-28,17,0
2175,-131,-44,974,-29,0,-3
2176,-24,-77,1001,-20,-19,-10
2177,85,-72,1013,-9,-21,-12
2178,145,-21,998,-2,-9,-10
2179,73,26,1001,-2,12,-5
2180,-47,47,1014,-12,23,-1
2181,-142,25,982,-25,21,2
2182,-141,-16,992,-27,4,-1
2183,-53,-67,993,-24,-16,-9
2184,74,-71,1003,-13,-25,-14
2185,144,-43,996,-4,-16,-13
2186,89,-5,1009,-2,8,-5
2187,-20,24,1013,-8,24,-1
2188,-135,26,980,-19,24,2
2189,-140,-6,993,-23,7,-1
2190,-74,-47,995,-23,-14,-7
2191,61,-60,1006,-15,-25,-13
2192,136,-45,998,-10,-17,-12
2193,100,-20,1007,-6,5,-8
2194,1,16,1005,-8,21,-2
2195,-123,21,979,-16,25,2
2196,-204,-9,969,-20,11,-1
2197,-207,-37,964,-22,-17,-8
2198,-55,-15,1026,-5,-39,-19
2199,168,14,1062,11,-36,-19
2200,647,-55,900,-41,-25,-17
2201,806,781,719,-70,206,55
2202,-963,214,1678,-184,113,152
2203,-385,-183,486,-195,-31,62
2204,-486,-809,182,-124,82,-80
2205,-1082,-666,808,95,14,-133
2206,539,-156,1643,124,-215,-77
2207,762,16,1037,103,-71,-21
2208,352,654,716,69,41,19
2209,406,385,1487,-28,35,16
2210,-322,148,968,-83,113,0
2211,-442,-317,574,-129,68,44
2212,-391,-429,1136,-36,-16,23
2213,10,-276,1072,36,-56,-55
2214,104,-161,751,53,-36,-26
2215,358,260,1245,81,-40,-8
2216,175,195,1089,18,23,-17
2217,-92,75,850,-12,56,0
2218,-270,-29,1067,-26,29,12
2219,-203,-139,980,-16,-6,-24
2220,-25,-155,906,5,-29,-20
2221,114,-3,1067,26,-41,-13
2222,189,48,1035,17,-22,-24
2223,82,56,995,7,11,-8
2224,-136,75,996,-12,24,6
2225,-159,-4,1011,-22,10,-13
2226,-127,-70,951,-20,-8,-13
2227,-19,-61,986,-12,-31,-11
2228,126,-26,1039,0,-40,-23
2229,127,-2,992,0,-19,-16
2230,32,59,991,-6,0,-2
2231,-93,161,1010,-26,11,7
2232,-142,128,1000,-57,1,13
2233,-107,8,976,-73,-15,3
2234,43,-166,999,-67,-28,-10
2235,150,-231,991,-36,-25,-14
2236,125,-190,967,-1,-4,-8
2237,30,-48,1011,24,15,-7
2238,-114,75,1009,18,25,2
2239,-157,133,981,0,16,2
2240,-117,98,1009,-26,-2,-4
2241,27,16,1018,-38,-20,-11
2242,125,-73,993,-37,-22,-13
2243,119,-115,995,-25,-6,-10
2244,31,-98,998,-11,9,-6
2245,-89,-45,989,-2,21,0
2246,-144,-6,994,-1,16,1
2247,-112,28,994,-6,0,-4
2248,25,26,1005,-13,-17,-9
2249,106,7,1010,-16,-18,-12
2250,117,-12,1015,-20,-5,-9
2251,36,-27,996,-22,10,-5
2252,-85,-38,988,-21,19,1
2253,-141,-53,992,-18,14,-1
2254,-109,-46,980,-13,0,-4
2255,15,-31,999,-7,-16,-9
2256,92,-4,1012,-3,-17,-13
2257,125,27,1012,-5,-5,-9
2258,42,33,1000,-15,11,-3
2259,-81,12,1000,-24,21,0
2260,-143,-32,990,-28,16,-2
2261,-119,-60,977,-22,1,-3
2262,-3,-71,995,-11,-17,-11
2263,86,-47,1008,-2,-19,-12
2264,128,11,1004,2,-9,-10
2265,58,44,1006,-6,11,-5
2266,-59,42,1011,-18,21,-1
2267,-140,3,979,-28,17,0
2268,-127,-43,986,-29,2,-4
2269,-31,-84,993,-23,-16,-9
2270,81,-75,1009,-9,-21,-12
2271,136,-27,1000,0,-10,-11
2272,72,21,1002,-1,10,-5
2273,-33,37,1010,-10,22,-1
2274,-134,28,986,-22,20,1
2275,-133,-19,997,-27,4,-3
2276,-58,-64,988,-25,-14,-9
2277,68,-78,1001,-14,-22,-12
2278,134,-46,1000,-5,-15,-11
2279,90,-8,1007,-4,7,-6
2280,-9,27,1006,-9,22,-2
2281,-128,33,984,-17,24,4
2282,-134,1,992,-24,8,-2
2283,-84,-43,995,-23,-10,-7
2284,52,-55,1005,-16,-24,-11
2285,123,-46,1003,-10,-16,-11
2286,102,-16,1000,-5,2,-8
2287,4,18,1005,-7,20,-1
2288,-229,11,927,15,44,1
2289,-391,0,927,27,17,-9
2290,-139,-16,927,-33,-72,-19
2291,150,-25,978,23,-50,-29
2292,255,113,1058,-54,-53,-46
2293,179,11,982,-68,5,-83
2294,1010,-151,476,-93,16,-47
2295,-226,1122,1229,-83,266,175
2296,-751,-14,1336,-239,-38,108
2297,-474,-129,419,-230,-12,44
2298,-424,-680,466,-174,8,-53
2299,-534,-715,855,-2,-36,-98
2300,486,-580,1051,123,-103,-230
2301,418,-401,1175,205,-5,-172
2302,332,406,991,157,-6,3
2303,541,655,1423,97,8,16
2304,-179,466,811,-28,114,1
2305,-439,39,923,-102,60,45
2306,-176,-238,1167,-73,-2,-20
2307,-130,-469,808,-39,-14,-48
2308,121,-273,877,34,-47,-17
2309,254,-49,1270,74,-32,-18
2310,61,130,891,49,20,-7
2311,-76,223,977,29,37,14
2312,-175,163,1126,-11,25,-5
2313,-113,-40,905,-34,3,-20
2314,27,-108,968,-19,-19,-24
2315,59,-135,1056,-4,-28,-21
2316,80,-72,963,15,-19,-20
2317,-33,14,984,20,2,-9
2318,-101,77,1048,6,5,-3
2319,-65,40,986,-8,1,-13
2320,-12,17,970,-16,-4,-14
2321,55,-3,1016,-19,-16,-12
2322,80,-29,1015,-16,-16,-19
2323,11,9,970,-16,-7,-7
2324,-85,94,1005,-27,-1,9
2325,-100,40,1019,-43,-2,0
2326,-71,-71,962,-53,-6,-3
2327,45,-129,995,-35,-13,-6
2328,117,-136,1011,-15,-11,-15
2329,94,-82,977,6,1,-9
2330,2,30,1005,10,11,-2
2331,-104,80,1014,-2,17,-1
2332,-130,61,992,-20,9,-2
2333,-92,8,982,-31,-3,-2
2334,36,-46,1017,-31,-18,-10
2335,113,-94,999,-22,-15,-13
2336,107,-79,997,-8,-2,-8
2337,17,-25,1002,-4,13,-3
2338,-86,12,999,-4,19,0
2339,-136,16,988,-13,12,1
2340,-108,13,991,-18,-2,-3
2341,27,-23,1007,-22,-18,-12
2342,95,-47,1002,-18,-16,-11
2343,114,-35,1006,-12,-5,-8
2344,36,-15,1004,-11,11,-6
2345,-75,-7,996,-14,21,1
2346,-140,-2,981,-17,17,1
2347,-112,-10,995,-20,2,-5
2348,2,-32,997,-16,-17,-10
2349,81,-30,1001,-11,-18,-11
2350,123,-11,1005,-8,-9,-10
2351,52,6,1006,-12,12,-6
2352,-59,4,1002,-16,22,0
2353,-142,-4,982,-22,17,0
2354,-119,-27,994,-21,0,-3
2355,-24,-49,992,-16,-16,-9
2356,83,-42,1010,-9,-19,-14
2357,131,-10,1003,-7,-11,-11
2358,65,16,1007,-7,7,-6
2359,-41,16,1000,-16,19,-1
2360,-133,0,981,-23,19,1
2361,-133,-33,996,-24,4,-3
2362,-49,-61,989,-19,-15,-9
2363,73,-58,1004,-9,-24,-13
2364,132,-23,1003,-3,-14,-12
2365,85,6,1011,-7,6,-6
2366,-14,21,1002,-15,19,-2
2367,-125,15,984,-16,16,-1
2368,-137,-21,999,-25,9,-1
2369,-80,-59,987,-23,-13,-7
2370,57,-59,1003,-12,-25,-13
2371,128,-39,1005,-6,-17,-12
2372,104,-4,1002,-4,3,-7
2373,4,25,1006,-8,20,-2
2374,-114,31,995,-18,24,4
2375,-142,-9,989,-25,11,-2
2376,-104,-46,983,-22,-9,-7
2377,38,-53,1000,-13,-24,-13
2378,118,-45,1012,-6,-18,-14
2379,113,-9,1005,-4,-1,-8
2380,25,24,1000,-8,18,-3
2381,-96,26,1000,-16,25,1
2382,-125,-17,984,-24,14,-1
2383,1060,597,315,-16,101,37
2384,-966,550,1834,-195,156,200
2385,-8,-40,838,-244,-153,90
2386,124,-433,342,-249,38,-6
2387,-649,-849,396,-112,102,-61
2388,-467,-679,794,97,-10,-58
2389,66,-803,1352,218,-88,-147
2390,-62,229,1105,228,-70,3
2391,523,542,1077,123,-81,37
2392,491,880,1294,74,15,-45
2393,30,391,810,-107,64,42
2394,-160,106,1093,-133,60,12
2395,-249,-453,1099,-136,30,-27
2396,-242,-452,717,-73,7,6
2397,-152,-552,825,18,-37,-22
2398,62,-157,1223,107,-58,-18
2399,143,113,985,85,-20,-7
2400,234,390,1001,64,5,-20
2401,86,341,1120,-5,21,-1
2402,-107,143,979,-53,28,-4
2403,-181,-156,934,-74,7,-9
2404,-196,-274,996,-37,-19,-10
2405,-30,-269,951,2,-38,-22
2406,101,-116,1001,43,-29,-19
2407,154,81,1046,50,-13,-12
2408,98,180,1016,24,12,-10
2409,-37,174,1001,-9,23,-3
2410,-160,97,987,-37,13,-1
2411,-145,-41,994,-47,-12,-12
2412,-77,-147,975,-39,-32,-13
2413,72,-137,998,-15,-39,-12
2414,175,-57,1003,0,-20,-13
2415,144,29,997,3,9,0
2416,19,100,1010,-7,29,6
2417,-130,61,1000,-28,31,2
2418,-187,-13,981,-36,12,1
2419,-128,-76,967,-32,-16,-8
2420,27,-108,1008,-19,-32,-17
2421,137,-84,1003,-4,-26,-13
2422,154,-27,1007,4,-1,-7
2423,47,40,1007,0,22,-1
2424,-94,61,1006,-11,32,3
2425,-171,26,993,-24,17,1
2426,-148,-22,970,-31,-7,-5
2427,9,-68,1001,-23,-29,-14
2428,111,-82,1012,-15,-26,-15
2429,151,-52,1006,-5,-8,-9
2430,68,-3,1003,-2,17,-4
2431,-74,22,1003,-8,29,2
2432,-157,18,990,-16,21,3
2433,-144,-1,984,-21,1,-2
2434,-18,-30,1000,-20,-21,-10
2435,90,-53,1005,-14,-25,-13
2436,148,-31,999,-9,-13,-11
2437,77,-8,1008,-9,12,-5
2438,-50,5,1012,-12,26,2
2439,-149,-1,980,-18,23,2
2440,-145,-8,982,-18,4,-2
2441,-44,-34,998,-17,-18,-9
2442,80,-43,1015,-11,-24,-14
2443,142,-15,1003,-8,-15,-12
2444,88,1,1002,-8,8,-7
2445,-32,9,1005,-13,23,-1
2446,-137,2,981,-22,22,2
2447,-144,-24,994,-22,8,-2
2448,-65,-52,989,-19,-13,-9
2449,68,-48,1006,-11,-24,-13
2450,137,-20,1000,-5,-16,-12
2451,98,4,1006,-8,4,-8
2452,-8,18,1015,-13,21,-2
2453,-128,10,981,-23,24,1
2454,-141,-28,992,-23,7,-1
2455,-85,-58,989,-22,-12,-7
2456,58,-58,1008,-12,-24,-13
2457,132,-34,1002,-6,-17,-12
2458,105,2,1005,-4,2,-7
2459,9,25,1005,-11,18,-1
2460,-120,25,991,-20,24,4
2461,-145,-15,987,-27,12,0
2462,-100,-52,988,-23,-7,-7
2463,35,-58,1002,-14,-22,-10
2464,120,-46,1001,-7,-19,-12
2465,114,-12,1009,-3,-1,-8
2466,26,28,1001,-8,17,-2
2467,-141,33,982,-16,29,1
2468,-278,-1,944,-40,2,-2
2469,-270,-19,991,21,-9,-13
2470,48,-6,1059,-29,-74,-18
2471,307,46,1096,-15,-32,-20
2472,1408,221,349,-77,52,-37
2473,-811,571,1720,-128,263,114
2474,-371,-11,948,-178,-95,98
2475,-353,-422,338,-182,43,35
2476,-725,-928,429,-48,47,-63
2477,-537,-530,1074,162,-61,-92
2478,829,-215,1631,163,-167,-109
2479,381,347,634,134,-12,39
2480,468,849,1092,75,23,25
2481,104,415,1505,-49,66,-13
2482,-373,9,525,-129,93,20
2483,-349,-391,1002,-102,30,12
2484,-275,-447,1141,-29,-24,-26
2485,60,-383,764,29,-48,-32
2486,265,0,1050,87,-43,-15
2487,226,241,1196,63,-7,-9
2488,113,250,916,16,40,-8
2489,-200,144,999,-27,55,13
2490,-262,-3,1035,-48,15,2
2491,-113,-196,936,-39,-15,-25
2492,3,-189,965,-7,-35,-13
2493,154,-66,1041,19,-40,-15
2494,183,1,1016,23,-8,-23
2495,-2,83,987,11,23,8
2496,-129,132,1017,-7,26,2
2497,-150,22,999,-26,13,-16
2498,-132,-26,944,-28,-11,-8
2499,14,-72,1020,-24,-34,-16
2500,119,-79,1021,-12,-36,-21
2501,120,-40,973,-2,-16,-8
2502,42,104,1019,-5,4,1
2503,-87,148,1014,-33,17,11
2504,-135,76,982,-54,12,5
2505,-119,-70,972,-65,-5,0
2506,23,-169,1008,-46,-25,-12
2507,112,-199,975,-18,-26,-14
2508,124,-118,982,11,-9,-10
2509,45,10,1025,20,12,-5
2510,-81,100,1006,7,27,1
2511,-138,104,993,-15,21,2
2512,-128,50,993,-33,0,-4
2513,1,-36,996,-36,-19,-10
2514,98,-107,1005,-30,-23,-14
2515,121,-102,1001,-16,-10,-10
2516,61,-55,991,-4,9,-6
2517,-66,-3,1005,0,24,1
2518,-142,23,989,-7,21,2
2519,-122,30,992,-15,5,-3
2520,-9,0,999,-21,-15,-8
2521,77,-29,1007,-19,-21,-12
2522,133,-29,1002,-15,-13,-11
2523,59,-29,1005,-16,7,-6
2524,-54,-18,1005,-14,21,0
2525,-135,-21,979,-17,21,-1
2526,-125,-16,984,-14,4,-3
2527,-33,-27,1002,-12,-14,-8
2528,78,-21,1014,-10,-19,-13
2529,130,0,999,-10,-12,-10
2530,67,13,998,-12,8,-5
2531,-41,2,1013,-17,19,0
2532,-132,-12,976,-21,19,2
2533,-124,-39,988,-22,3,-2
2534,-49,-61,993,-17,-14,-8
2535,72,-43,1006,-8,-21,-12
2536,134,-7,1003,-4,-12,-11
2537,74,20,1007,-7,6,-7
2538,-18,29,1006,-15,19,-4
2539,-131,5,982,-23,21,1
2540,-130,-34,990,-26,5,-3
2541,-72,-72,994,-22,-13,-8
2542,62,-65,1003,-9,-23,-13
2543,132,-32,1001,-4,-16,-12
2544,92,11,1009,-3,4,-6
2545,-2,32,1010,-11,20,-1
2546,-117,28,985,-22,22,2
2547,-142,-17,992,-24,9,-1
2548,-89,-60,986,-26,-9,-7
2549,43,-66,1005,-15,-22,-12
2550,122,-48,1001,-5,-18,-12
2551,106,-7,1008,-2,0,-7
2552,18,31,1005,-8,17,-2
2553,-104,34,998,-19,26,3
2554,-147,-3,989,-26,13,1
2555,-107,-40,980,-24,-7,-5
2556,24,-58,1000,-17,-22,-12
2557,109,-54,1008,-8,-19,-13
2558,120,-19,1008,-3,-3,-9
2559,34,25,1000,-8,16,-3
2560,-92,30,994,-13,25,2
2561,-201,5,978,-18,16,-2
2562,-210,-5,980,-14,-6,-7
2563,882,435,285,-107,6,32
2564,-399,246,1137,-213,126,178
2565,-14,-121,838,-215,-77,-12
2566,-49,-577,363,-221,93,-77
2567,-859,-1106,313,-54,104,-107
2568,-669,-469,695,213,-42,-84
2569,421,-382,1658,230,-161,-141
2570,271,379,761,143,-55,61
2571,526,661,837,90,-15,23
2572,476,651,1578,16,20,-29
2573,-218,132,680,-118,96,24
2574,-251,-218,885,-98,59,-14
2575,-446,-475,1192,-59,9,-17
2576,-167,-410,729,0,-43,-16
2577,135,-198,1032,72,-47,-30
2578,228,144,1158,78,-32,-8
2579,299,274,971,42,12,-13
2580,29,232,1018,0,50,-3
2581,-212,132,1031,-41,36,14
2582,-204,-101,941,-54,11,-19
2583,-178,-238,966,-30,-15,-22
2584,-22,-180,980,0,-46,-10
2585,175,-74,1047,31,-37,-26
2586,167,37,994,30,-6,-6
2587,70,127,1032,15,20,-1
2588,-36,97,1019,-5,30,-17
2589,-146,62,942,-15,23,-18
2590,-154,34,976,-31,-6,-20
2591,-130,-76,1018,-40,-30,-13
2592,-1,-25,995,-28,-43,-8
2593,140,27,1001,-32,-36,4
2594,141,74,1037,-37,-12,7
2595,67,19,1011,-57,12,5
2596,-72,-48,968,-58,22,8
2597,-156,-116,985,-46,9,3
2598,-130,-158,962,-26,-12,-7
2599,9,-129,985,-1,-26,-14
2600,110,-48,1018,13,-24,-11
2601,139,53,1021,13,-3,-7
2602,74,106,1009,-3,19,-3
2603,-71,91,1006,-25,29,5
2604,-154,9,993,-38,18,2
2605,-138,-80,983,-40,-4,-4
2606,-24,-129,978,-27,-24,-11
2607,93,-120,1003,-6,-26,-14
2608,146,-43,1009,9,-9,-10
2609,81,37,1006,8,15,-3
2610,-52,75,1016,-4,27,1
2611,-153,50,988,-23,23,1
2612,-146,3,981,-31,1,-3
2613,-40,-64,998,-30,-22,-9
2614,81,-94,999,-15,-27,-14
2615,149,-60,997,-6,-14,-10
2616,87,-10,1010,-1,10,-5
2617,-35,24,1012,-5,26,1
2618,-142,38,978,-16,23,2
2619,-148,15,989,-22,6,-2
2620,-58,-32,999,-23,-16,-9
2621,70,-59,997,-19,-26,-12
2622,143,-44,1002,-10,-17,-11
2623,93,-19,1009,-9,5,-7
2624,-13,0,1002,-10,23,-2
2625,-137,16,976,-16,27,3
2626,-146,-3,1002,-20,8,-1
2627,-76,-31,991,-20,-12,-8
2628,60,-43,998,-14,-24,-11
2629,137,-29,1005,-9,-18,-13
2630,100,-14,1011,-11,2,-7
2631,2,4,998,-13,19,-2
2632,-123,8,984,-20,25,3
2633,-147,-17,994,-20,10,-1
2634,-91,-51,989,-20,-10,-6
2635,46,-47,1003,-12,-22,-11
2636,131,-32,1005,-8,-19,-12
2637,112,-7,1009,-5,-2,-8
2638,14,18,999,-12,15,-2
2639,-108,18,995,-19,25,3
2640,-148,-19,993,-24,14,0
2641,-108,-48,977,-22,-6,-5
2642,32,-55,1001,-15,-23,-12
2643,116,-44,1009,-6,-19,-12
2644,119,-6,1007,-4,-3,-8
2645,28,29,1000,-10,17,-4
2646,-91,31,1000,-18,25,0
2647,-148,-7,993,-25,14,-1
2648,-118,-39,975,-24,-3,-4
2649,15,-62,999,-17,-22,-10
2650,103,-55,1006,-10,-21,-12
2651,128,-17,1008,-3,-7,-9
2652,49,26,1004,-6,14,-4
2653,-80,29,1007,-15,24,1
2654,-144,4,983,-23,17,1
2655,-125,-25,988,-26,0,-2
2656,-4,-59,998,-22,-21,-10
2657,84,-59,1003,-10,-24,-13
2658,1148,210,217,14,50,5
2659,-876,757,1690,-133,286,189
2660,-74,54,908,-233,-121,123
2661,-76,-616,315,-213,96,6
2662,-728,-1076,190,17,136,-191
2663,-1191,-109,989,218,-23,-208
2664,496,-315,1636,140,-249,-142
2665,241,390,847,84,-69,90
2666,586,369,820,2,-39,52
2667,782,363,1621,13,14,-36
2668,-136,25,675,-90,123,35
2669,-411,-142,836,-75,85,40
2670,-538,-291,1225,-37,14,-6
2671,-274,-243,746,-1,-31,-26
2672,103,-154,934,42,-68,-33
2673,375,108,1267,51,-60,-14
2674,323,143,951,21,11,-14
2675,18,144,967,-5,52,3
2676,-287,64,1095,-30,38,14
2677,-258,-107,904,-34,9,-19
2678,-146,-181,934,-16,-21,-17
2679,69,-92,1042,14,-52,-14
2680,235,-38,1028,24,-35,-33
2681,145,41,991,23,0,-8
2682,-34,123,1032,7,20,5
2683,-122,36,1012,-16,23,-15
2684,-179,-26,928,-21,11,-7
2685,-96,-32,985,-19,-20,-8
2686,40,-48,1045,-10,-39,-22
2687,120,-29,982,-5,-33,-16
2688,120,51,999,-6,-16,-9
2689,23,167,1030,-24,6,8
2690,-115,139,1003,-56,15,13
2691,-171,23,978,-80,0,8
2692,-75,-127,987,-76,-22,1
2693,43,-217,987,-52,-32,-8
2694,146,-209,962,-16,-27,-9
2695,141,-104,1018,15,-4,-9
2696,5,21,1007,20,19,1
2697,-114,107,997,7,27,4
2698,-164,121,1005,-17,14,1
2699,-80,45,993,-36,-7,-7
2700,47,-48,997,-36,-22,-12
2701,128,-92,1000,-30,-14,-9
2702,110,-94,997,-14,-2,-8
2703,-6,-65,1006,-6,16,-1
2704,-127,-12,986,-2,20,1
2705,-141,23,988,-8,11,-1
2706,-64,17,999,-12,-7,-6
2707,53,4,1008,-15,-19,-11
2708,133,0,1007,-17,-17,-11
2709,91,-15,999,-19,0,-7
2710,-19,-24,1007,-18,16,-1
2711,-123,-32,979,-21,18,0
2712,-137,-41,989,-18,8,-1
2713,-61,-45,994,-13,-8,-7
2714,58,-31,1006,-7,-18,-11
2715,135,5,1004,-3,-15,-10
2716,83,25,1003,-9,2,-6
2717,-14,25,1013,-16,15,-2
2718,-125,0,984,-24,19,0
2719,-135,-42,991,-26,6,-2
2720,-71,-74,985,-20,-10,-7
2721,55,-66,1004,-8,-20,-12
2722,131,-24,1003,-1,-15,-11
2723,92,18,1010,-3,3,-5
2724,0,44,1006,-10,17,-2
2725,-119,31,987,-23,22,2
2726,-138,-19,991,-30,9,0
2727,-89,-68,990,-26,-8,-6
2728,48,-76,1003,-15,-21,-10
2729,124,-58,998,-4,-18,-12
2730,103,-8,1002,0,1,-7
2731,17,36,1008,-6,16,-4
2732,-105,43,1002,-18,24,1
2733,-143,5,989,-24,13,0
2734,-104,-44,981,-27,-7,-5
2735,28,-69,1001,-20,-22,-12
2736,113,-62,1005,-9,-20,-12
2737,116,-26,1008,-4,-4,-8
2738,33,24,1006,-4,17,-4
2739,-89,33,992,-14,25,1
2740,-147,9,992,-22,15,0
2741,-116,-21,983,-25,-5,-5
2742,11,-50,1003,-21,-20,-10
2743,100,-61,1002,-13,-20,-13
2744,124,-26,1005,-6,-6,-9
2745,-114,-6,916,-1,16,-6
2746,-309,22,1017,-42,-31,-6
2747,-65,0,1062,-69,-75,-12
2748,102,-7,968,22,-10,-23
2749,259,29,1047,-27,-26,-17
2750,188,22,1092,-47,-1,-10
2751,1312,226,286,-28,96,5
2752,-966,907,1694,-145,298,194
2753,-507,-20,1032,-263,-105,110
2754,-341,-419,308,-223,36,18
2755,-690,-917,324,-98,64,-123
2756,-624,-893,850,122,-33,-159
2757,529,-561,1562,259,-166,-233
2758,632,167,1047,190,-91,30
2759,553,884,828,144,16,76
2760,378,845,1576,15,71,-16
2761,-297,285,700,-145,116,42
2762,-410,-226,900,-160,65,43
2763,-359,-577,1151,-100,-2,-11
2764,-169,-558,741,-5,-36,-47
2765,156,-357,908,86,-64,-40
2766,264,168,1281,114,-43,1
2767,228,334,947,62,21,-14
2768,-12,350,1003,6,53,7
2769,-253,175,1077,-54,34,18
2770,-218,-137,910,-65,0,-19
2771,-90,-295,964,-33,-31,-28
2772,65,-227,1004,10,-52,-17
2773,197,-91,1007,43,-34,-29
2774,102,69,1021,42,1,-8
2775,-47,175,1021,21,23,3
2776,-114,119,1002,-7,21,-16
2777,-147,51,956,-21,4,-21
2778,-56,-3,990,-35,-25,-16
2779,40,-84,1031,-29,-40,-19
2780,102,6,974,-21,-32,-8
2781,95,62,1014,-32,-13,10
2782,-15,76,1035,-45,10,5
2783,-89,-53,967,-62,14,9
2784,-112,-94,970,-46,4,2
2785,-35,-155,988,-29,-13,-6
2786,69,-128,993,-5,-21,-15
2787,107,-42,997,11,-14,-10
2788,64,61,1011,12,3,-5
2789,-36,94,1015,-7,20,0
2790,-116,57,991,-25,21,2
2791,-124,0,991,-36,7,-1
2792,-27,-83,997,-35,-14,-11
2793,64,-118,992,-19,-20,-12
2794,117,-76,992,-2,-14,-9
2795,76,-13,1009,2,5,-6
2796,-36,29,1015,-3,21,0
2797,-125,48,980,-14,21,2
2798,-124,16,996,-24,6,-2
2799,-42,-37,995,-27,-13,-7
2800,63,-72,1004,-20,-20,-11
2801,127,-50,1000,-12,-13,-11
2802,76,-25,1002,-6,5,-5
2803,-28,9,1006,-7,20,0
2804,-125,17,981,-17,21,3
2805,-132,3,996,-21,8,-2
2806,-58,-33,995,-21,-10,-8
2807,62,-46,1004,-16,-21,-12
2808,129,-32,1002,-11,-16,-9
2809,81,-8,998,-8,4,-6
2810,-13,8,1010,-11,18,-1
2811,-124,12,988,-19,21,2
2812,-133,-13,992,-22,8,-2
2813,-75,-41,988,-21,-10,-7
2814,55,-47,1005,-12,-21,-11
2815,126,-27,1004,-8,-15,-11
2816,90,-1,1006,-6,2,-7
2817,2,18,1005,-10,17,-3
2818,-115,13,984,-19,22,2
2819,-139,-18,988,-23,9,-1
2820,-89,-53,995,-22,-7,-7
2821,44,-56,1005,-14,-21,-12
2822,119,-39,998,-7,-17,-12
2823,107,-7,1007,-5,-2,-8
2824,19,25,1004,-10,15,-2
2825,-100,21,996,-20,24,1
2826,-142,-15,990,-26,13,-1
2827,-103,-46,979,-23,-5,-6
2828,24,-57,999,-15,-21,-10
2829,109,-50,1008,-8,-19,-12
2830,118,-13,1012,-4,-2,-7
2831,36,26,999,-8,16,-4
2832,-88,32,999,-16,25,3
2833,-149,0,990,-22,15,1
2834,-117,-32,983,-24,-3,-5
2835,64,-126,939,-17,-18,-13
2836,668,95,763,17,51,-11
2837,-219,299,1692,-42,76,80
2838,-190,30,835,-73,-17,-1
2839,-346,-494,543,-58,70,-107
2840,-488,-303,1030,59,-24,-57
2841,167,134,1207,30,-92,26
2842,351,-42,933,26,-25,-64
2843,297,300,1024,20,-10,28
2844,188,158,1141,-38,27,10
2845,-123,-17,979,-50,69,-27
2846,-322,-178,829,-57,39,29
2847,-262,-133,1069,-20,-1,-13
2848,-55,-205,958,-4,-33,-26
2849,107,-9,973,26,-39,-1
2850,219,58,1088,17,-27,-17
2851,141,86,1021,5,8,-15
2852,-16,67,963,-17,30,4
2853,-173,8,1017,-27,28,-3
2854,-158,-74,973,-31,5,-9
2855,-88,-116,977,-18,-15,-8
2856,8,-88,1009,-1,-34,-14
2857,129,-36,1018,10,-31,-18
2858,116,28,997,8,-9,-11
2859,14,77,1010,-3,12,-4
2860,-49,56,1015,-21,18,-7
2861,-124,9,958,-31,11,-1
2862,-113,-25,992,-32,-9,0
2863,-24,-43,1012,-28,-26,-8
2864,71,3,1002,-25,-28,-1
2865,113,30,997,-28,-17,0
2866,73,-26,1009,-35,6,-4
2867,2,-74,985,-31,19,-1
2868,-108,-67,976,-21,21,4
2869,-124,-76,995,-12,5,-5
2870,-86,-37,988,-1,-12,-8
2871,31,10,1000,-1,-23,-10
2872,106,35,1020,-5,-16,-11
2873,109,31,1016,-15,2,-7
2874,24,21,995,-23,20,-1
2875,-92,-18,995,-30,24,1
2876,-139,-67,992,-27,9,-3
2877,-114,-80,969,-18,-7,-5
2878,17,-61,998,-6,-21,-10
2879,103,-27,1016,-1,-19,-13
2880,126,21,1009,-2,-2,-8
2881,47,53,1005,-10,18,-2
2882,-77,28,1006,-23,24,3
2883,-147,-22,981,-29,15,0
2884,-127,-60,982,-28,-3,-4
2885,-6,-85,1002,-18,-22,-11
2886,97,-69,1002,-6,-22,-13
2887,138,-13,996,2,-9,-10
2888,62,38,1017,-3,13,-4
2889,-60,45,1010,-14,26,0
2890,-152,20,976,-25,19,1
2891,-131,-21,988,-26,0,-3
2892,-31,-70,1001,-24,-20,-11
2893,83,-79,996,-13,-22,-14
2894,145,-36,1005,-3,-12,-10
2895,73,13,1011,-2,10,-5
2896,-39,34,1004,-8,24,1
2897,-141,27,978,-19,22,1
2898,-144,-4,993,-26,4,-3
2899,-53,-54,995,-24,-16,-10
2900,74,-66,1000,-15,-24,-14
2901,142,-41,999,-7,-16,-11
2902,88,-8,1010,-5,7,-5
2903,-19,15,1003,-10,22,-1
2904,-135,24,978,-16,26,3
2905,-143,-5,1001,-22,7,-2
2906,-76,-41,992,-22,-14,-8
2907,63,-58,998,-15,-25,-13
2908,136,-41,1005,-8,-16,-12
2909,99,-14,1014,-6,3,-6
2910,2,13,999,-12,20,-2
2911,-124,19,983,-18,25,2
2912,-144,-8,993,-22,10,-1
2913,-93,-45,991,-22,-10,-7
2914,51,-49,1000,-14,-23,-12
2915,126,-37,1008,-8,-19,-12
2916,109,-12,1004,-4,1,-8
2917,14,17,1002,-10,19,-2
2918,-109,24,995,-18,26,4
2919,-145,-12,991,-23,13,0
2920,-107,-40,982,-22,-7,-6
2921,30,-51,996,-13,-22,-11
2922,116,-40,1014,-8,-19,-13
2923,118,-13,1008,-5,-2,-8
2924,623,-119,603,2,35,-5
2925,-39,805,1135,-22,236,114
2926,-457,12,1330,-167,-34,105
2927,-35,-359,408,-142,66,-23
2928,-721,-852,463,32,143,-222
2929,-901,182,824,177,-91,-161
2930,734,48,1538,30,-217,-59
2931,183,176,1100,16,-13,11
2932,486,196,668,-63,-25,48
2933,454,-92,1499,-16,35,-34
2934,-324,-80,863,-43,100,31
2935,-317,-187,645,-42,42,34
2936,-346,-107,1318,26,-1,-19
2937,-86,-17,834,3,-43,-9
2938,200,59,961,14,-41,-24
2939,243,84,1202,5,-29,-17
2940,73,44,946,-21,10,-4
2941,-82,-63,950,-22,27,-12
2942,-269,-105,1046,-14,7,1
2943,-81,-87,939,-4,-20,-20
2944,56,-68,1000,10,-27,-21
2945,112,69,1031,14,-33,-8
2946,130,73,1025,0,-15,-20
2947,-48,50,977,-17,7,-7
2948,-145,33,1007,-29,0,3
2949,-100,-51,998,-33,-12,-16
2950,-12,-76,967,-24,-22,-5
2951,136,38,1000,-17,-28,1
2952,148,61,1041,-26,-9,-1
2953,60,16,975,-39,13,1
2954,-92,-51,990,-40,23,5
2955,-171,-114,998,-32,13,-2
2956,-144,-131,949,-17,-4,-6
2957,4,-75,997,4,-20,-12
2958,118,8,1025,10,-21,-13
2959,146,65,1006,3,-6,-8
2960,55,97,1008,-11,14,-3
2961,-92,60,1005,-31,24,1
2962,-156,-30,994,-41,15,0
2963,-136,-104,965,-36,-4,-4
2964,4,-124,997,-18,-22,-11
2965,115,-85,1002,3,-23,-14
2966,135,-14,1006,10,-5,-10
2967,53,67,1010,4,15,-4
2968,-80,83,1005,-14,26,0
2969,-146,28,997,-30,16,-1
2970,-136,-38,978,-35,-3,-3
2971,6,-91,992,-27,-21,-13
2972,98,-106,1006,-13,-21,-12
2973,133,-53,1006,1,-6,-10
2974,56,15,1005,4,12,-6
2975,-69,54,998,-5,24,0
2976,-148,38,994,-19,16,2
2977,-129,4,985,-28,0,-3
2978,-10,-52,995,-27,-19,-10
2979,91,-75,1002,-18,-24,-14
2980,131,-53,1003,-7,-9,-10
2981,63,-10,1005,-5,10,-4
2982,-60,15,1004,-9,23,0
2983,-145,19,986,-14,18,1
2984,-132,8,992,-20,2,-3
2985,-26,-31,997,-20,-18,-10
2986,85,-51,1000,-16,-21,-12
2987,132,-33,1001,-11,-12,-11
2988,73,-11,1006,-8,7,-7
2989,-45,1,1003,-11,21,-1
2990,-143,8,978,-17,20,1
2991,-132,-14,992,-20,4,-3
2992,-44,-38,996,-19,-13,-9
2993,76,-49,1008,-14,-20,-13
2994,138,-23,1005,-8,-14,-12
2995,81,-7,1001,-10,6,-4
2996,-28,8,1002,-12,20,0
2997,-134,2,983,-19,21,2
2998,-138,-21,1002,-21,6,-2
2999,-61,-51,986,-20,-14,-8
3000,66,-48,1000,-11,-23,-12
3001,133,-24,1009,-5,-16,-12
3002,91,0,1006,-6,4,-7
3003,-8,20,1002,-14,18,-1
3004,-127,16,982,-19,22,2
3005,-141,-19,996,-24,8,0
3006,-81,-54,986,-22,-10,-6
3007,52,-53,1005,-13,-23,-12
3008,129,-35,1006,-8,-17,-13
3009,100,-1,1002,-5,1,-7
3010,-2,31,1002,-10,17,-4
3011,643,-57,555,-16,42,3
3012,-197,757,1389,-51,218,108
3013,-437,1,1316,-164,-71,83
3014,-59,-391,376,-144,40,-40
3015,-694,-841,338,32,103,-217
3016,-614,94,1174,193,-115,-173
3017,841,-21,1519,27,-173,-46
3018,126,93,757,39,21,9
3019,452,336,879,-11,-26,52
3020,185,23,1525,-25,52,-34
3021,-222,-61,641,-45,82,8
3022,-340,-182,807,-44,34,32
3023,-203,-80,1335,10,-17,-29
3024,-21,-124,792,-1,-32,-16
3025,138,76,939,19,-30,-7
3026,141,47,1240,6,-22,-14
3027,70,63,919,-12,12,-9
3028,-66,-27,941,-26,27,3
3029,-172,-17,1073,-15,7,-5
3030,-2,-79,958,-20,-10,-19
3031,3,-62,953,-5,-8,-8
3032,11,13,1054,-1,-20,-3
3033,43,2,1012,-5,-10,-19
3034,-68,5,962,-12,2,0
3035,-71,29,1010,-17,-7,-1
3036,1,-29,1032,-21,-10,-20
3037,42,-33,948,-18,-11,-4
3038,53,28,1008,-16,-11,-3
3039,21,57,1036,-25,-5,-5
3040,-63,64,960,-39,1,10
3041,-88,3,1002,-50,-3,4
3042,-48,-132,1007,-48,-8,-10
3043,40,-175,969,-27,-11,-9
3044,94,-110,981,1,-8,-6
3045,60,-18,1026,13,4,-9
3046,3,61,1001,8,13,-3
3047,-102,110,978,-7,17,2
3048,-115,66,1022,-28,4,-2
3049,-73,-27,997,-39,-9,-8
3050,42,-92,979,-32,-18,-10
3051,112,-109,1009,-17,-14,-11
3052,87,-77,1001,-3,1,-9
3053,10,-14,993,2,15,-3
3054,-107,46,994,-3,20,2
3055,-128,41,1005,-15,10,-2
3056,-89,7,990,-23,-6,-6
3057,34,-32,1003,-24,-19,-10
3058,113,-55,1011,-20,-18,-13
3059,100,-60,993,-13,-2,-6
3060,16,-23,999,-8,16,-3
3061,-96,5,1000,-11,22,0
3062,-135,0,992,-14,13,-1
3063,-103,-4,980,-17,-4,-4
3064,25,-15,1004,-15,-20,-11
3065,106,-31,1011,-14,-18,-13
3066,112,-21,1005,-14,-2,-8
3067,28,-3,1000,-13,14,-4
3068,-83,-3,995,-17,22,0
3069,-143,-20,985,-19,13,0
3070,-111,-26,987,-17,-3,-5
3071,11,-36,1004,-15,-19,-12
3072,96,-34,1006,-11,-19,-13
3073,125,-3,1001,-7,-7,-9
3074,44,19,1008,-13,11,-5
3075,-71,7,1005,-18,21,0
3076,-142,-14,976,-23,15,-1
3077,-121,-37,988,-22,0,-4
3078,-6,-61,1000,-16,-18,-11
3079,87,-52,999,-9,-21,-13
3080,132,-9,1004,-4,-9,-10
3081,62,20,1013,-8,12,-5
3082,-55,25,1003,-15,23,0
3083,-140,2,978,-25,18,1
3084,-127,-31,993,-26,1,-3
3085,-32,-65,998,-20,-16,-9
3086,82,-65,1002,-11,-21,-12
3087,136,-21,1002,-3,-12,-11
3088,74,14,1007,-4,9,-6
3089,-35,28,1002,-10,22,-1
3090,-135,21,983,-23,22,3
3091,-137,-16,1001,-25,6,-1
3092,-56,-60,989,-23,-14,-9
3093,69,-63,996,-12,-24,-12
3094,131,-34,1003,-4,-15,-11
3095,190,-63,944,-4,8,-7
3096,1009,581,640,8,153,37
3097,-917,275,1767,-136,128,145
3098,-55,-127,609,-155,-60,36
3099,-267,-925,282,-75,133,-131
3100,-1185,-326,712,175,32,-204
3101,220,181,1433,120,-221,-109
3102,509,-42,1333,43,-86,-26
3103,220,393,644,3,5,59
3104,593,66,1191,-35,-16,18
3105,-50,72,1299,-17,89,-28
3106,-312,-212,472,-68,69,35
3107,-358,-122,1193,2,18,-7
3108,-187,-123,1060,2,-33,-25
3109,59,-47,799,19,-35,-12
3110,274,103,1132,22,-35,-21
3111,148,96,1109,-3,3,-5
3112,45,26,896,-19,31,-6
3113,-250,-63,1028,-25,33,3
3114,-179,-75,979,-16,-7,-9
3115,-23,-137,966,-3,-18,-24
3116,63,-24,1004,14,-28,-9
3117,150,50,1042,13,-24,-16
3118,82,40,1007,1,4,-18
3119,-108,44,985,-12,17,5
3120,-142,30,1003,-20,5,-10
3121,-91,-44,985,-27,-11,-18
3122,-3,-43,967,-21,-26,-6
3123,113,13,1037,-14,-30,-14
3124,141,96,1006,-25,-14,-4
3125,27,138,1015,-46,6,13
3126,-111,65,1008,-72,12,8
3127,-150,-88,979,-80,4,6
3128,-85,-189,954,-59,-14,5
3129,22,-226,986,-25,-22,-9
3130,145,-149,997,7,-21,-16
3131,115,-22,1000,26,1,-6
3132,7,113,1010,19,18,0
3133,-114,141,1015,-10,22,2
3134,-150,91,994,-34,11,0
3135,-95,-26,988,-47,-8,-5
3136,40,-113,1000,-39,-25,-12
3137,134,-137,990,-18,-20,-13
3138,109,-93,995,0,-1,-8
3139,11,-9,1008,8,17,-3
3140,-105,50,993,2,23,2
3141,-146,62,994,-12,14,1
3142,-97,18,1002,-25,-9,-6
3143,42,-29,1001,-28,-23,-12
3144,125,-62,998,-20,-19,-12
3145,106,-58,1003,-15,-2,-7
3146,18,-33,1004,-9,14,-3
3147,-104,0,980,-10,23,2
3148,-144,4,995,-13,13,0
3149,-98,-7,993,-15,-5,-5
3150,33,-15,1003,-16,-19,-10
3151,112,-18,1004,-13,-18,-11
3152,113,-18,1011,-13,-3,-9
3153,23,-8,991,-14,15,-3
3154,-97,-2,992,-19,22,1
3155,-143,-26,1003,-20,12,-1
3156,-109,-33,973,-18,-4,-5
3157,23,-38,995,-11,-19,-11
3158,105,-25,1014,-7,-18,-12
3159,118,-1,1013,-7,-5,-8
3160,2,52,896,-7,17,-3
3161,256,632,735,-39,10,6
3162,67,78,1773,-136,74,-26
3163,-310,45,771,-159,36,48
3164,-173,-482,687,-168,24,21
3165,-477,-491,720,-40,-19,7
3166,-58,-450,957,47,-64,-33
3167,255,-471,1111,123,-41,-116
3168,74,96,1069,146,-21,-10
3169,408,519,1082,107,-31,4
3170,-64,569,1092,14,53,-6
3171,-212,281,925,-86,26,30
3172,-159,-37,1064,-114,2,-4
3173,-40,-435,945,-94,-21,-27
3174,47,-353,892,-25,-33,2
3175,163,-253,1073,33,-26,-23
3176,-25,-21,970,61,2,-7
3177,-57,195,1011,47,6,11
3178,-121,202,1052,12,10,-6
3179,-39,89,985,-24,-8,-5
3180,72,-12,994,-35,-18,-5
3181,61,-130,1015,-26,-15,-15
3182,40,-138,967,-8,-12,-8
3183,-57,-74,992,11,1,-2
3184,-104,-2,1016,15,0,-3
3185,-52,32,1002,9,-3,-3
3186,40,41,1002,3,-4,-8
3187,169,72,1006,-9,-5,-5
3188,164,58,1016,-21,14,-8
3189,42,11,1016,-33,29,-3
3190,-156,-43,978,-34,34,5
3191,-261,-101,965,-10,34,1
3192,-244,-113,942,7,8,-9
3193,-51,-51,1008,11,-27,-19
3194,160,23,1048,27,-35,-23
3195,251,85,1020,4,-21,-16
3196,993,305,669,-30,33,-2
3197,23,843,1389,-154,227,131
3198,-642,-3,1430,-234,10,81
3199,-474,-399,513,-225,26,27
3200,-683,-755,385,-143,24,-54
3201,-622,-736,605,55,-52,-87
3202,315,-684,1212,210,-123,-230
3203,542,8,1497,229,-76,-110
3204,642,566,706,138,-43,73
3205,431,963,1324,76,59,-10
3206,-248,373,1060,-103,100,21
3207,-367,60,801,-143,60,39
3208,-228,-490,1089,-124,12,-30
3209,-202,-526,851,-43,-26,-17
3210,234,-380,946,39,-58,-26
3211,173,-34,1114,90,-16,-16
3212,65,246,996,68,12,9
3213,-11,369,1039,16,35,1
3214,-193,198,1022,-42,32,6
3215,-99,-8,940,-66,-4,-4
3216,23,-243,1022,-51,-19,-24
3217,42,-253,949,-11,-25,-15
3218,61,-144,993,24,-14,-13
3219,-30,4,1022,38,2,-11
3220,-83,124,1000,22,7,3
3221,-40,130,1006,-2,7,-9
3222,-10,54,1014,-22,2,-9
3223,60,-1,981,-30,-10,-11
3224,43,-74,1011,-25,-10,-15
3225,-16,-83,986,-12,-9,-10
3226,-68,-35,988,-5,-4,-7
3227,-87,48,1005,-8,-1,0
3228,-52,85,1003,-23,-6,7
3229,41,54,1008,-39,-10,-4
3230,91,-26,1001,-45,-11,-4
3231,71,-79,993,-40,-3,-5
3232,-3,-118,982,-27,6,-7
3233,-91,-93,978,-11,9,-3
3234,-110,-50,1002,-1,4,-2
3235,-71,-6,992,1,-3,-5
3236,48,32,1014,-3,-9,-9
3237,107,50,1008,-9,-6,-9
3238,84,33,1004,-20,4,-6
3239,0,1,1004,-27,11,-5
3240,-109,-35,982,-30,13,-2
3241,-124,-83,990,-25,3,-2
3242,-86,-88,984,-15,-7,-7
3243,46,-59,1004,-3,-17,-12
3244,115,-8,1007,3,-11,-10
3245,96,40,1012,0,3,-8
3246,13,65,1004,-10,16,-3
3247,-110,41,983,-29,19,1
3248,-49,262,571,-40,-8,3
3249,196,130,1399,-86,11,-22
3250,-110,-47,1067,-104,19,8
3251,55,-321,621,-111,14,20
3252,-78,-465,822,-17,27,-16
3253,-229,-137,1272,46,-6,24
3254,233,-84,882,44,-11,-30
3255,-247,135,964,65,33,6
3256,51,317,1096,16,-34,21
3257,40,122,1109,-24,8,-34
3258,1,0,841,-50,2,-1
3259,-20,-49,1052,-46,-5,15
3260,65,-162,1068,-31,-2,-41
3261,-98,-176,866,-17,12,15
3262,-73,-15,1020,10,-4,5
3263,-61,-30,1060,9,-6,-18
3264,-4,30,937,7,-10,-3
3265,33,52,1029,1,-11,-3
3266,71,13,1046,-10,-12,-19
3267,42,-34,956,-15,3,-3
3268,-63,-34,1004,-10,8,-1
3269,-98,-55,1005,-11,0,-7
3270,-56,-52,978,-3,-5,-5
3271,-27,-21,999,2,-11,-2
3272,67,1,1021,2,-15,-10
3273,104,12,1001,-1,-9,-10
3274,30,27,985,-6,4,-1
3275,-30,13,1019,-14,10,-2
3276,-87,-23,985,-21,11,-4
3277,-92,-34,987,-20,3,0
3278,-28,-41,1004,-13,-10,-10
3279,65,-30,1000,-9,-12,-12
3280,100,17,990,-7,-4,-7
3281,58,44,1012,-16,10,-5
3282,-18,53,1007,-27,17,-4
3283,-122,4,971,-36,19,2
3284,-130,-58,992,-35,2,-3
3285,-66,-119,994,-25,-13,-10
3286,60,-96,991,-8,-20,-12
3287,118,-40,1005,4,-13,-11
3288,94,30,1011,6,5,-6
3289,6,67,1003,-9,19,-1
3290,-110,66,997,-22,23,3
3291,-141,-6,1000,-34,8,-2
3292,434,-212,609,-30,2,-13
3293,198,728,1171,-18,183,81
3294,-328,-125,1381,-144,-58,81
3295,82,-325,379,-102,46,-55
3296,-664,-903,409,50,156,-239
3297,-875,347,1055,219,-77,-166
3298,743,165,1529,6,-179,-56
3299,19,68,938,-2,15,6
3300,405,266,732,-56,-44,79
3301,433,-197,1509,-31,20,-53
3302,-157,-141,769,-25,81,2
3303,-244,-159,733,-17,46,34
3304,-330,25,1347,29,13,-26
3305,-177,-24,799,-6,-20,2
3306,57,111,932,7,-33,-9
3307,211,0,1215,-13,-41,-23
3308,199,0,941,-16,-5,-12
3309,83,-96,949,-14,25,-10
3310,-175,-27,1064,-5,26,1
3311,-127,-50,961,-4,11,-13
3312,-144,-36,940,0,2,-8
3313,-64,45,1033,0,-28,1
3314,110,26,1026,-4,-34,-23
3315,104,-15,991,-14,-16,-13
3316,67,25,1006,-15,-6,-4
3317,7,-32,1026,-18,10,-17
3318,-89,-52,957,-15,14,-4
3319,-135,-11,975,-12,2,-1
3320,-78,-24,1037,-13,-16,-12
3321,-15,-8,977,-10,-26,-7
3322,75,11,1005,-14,-29,-9
3323,120,49,1024,-18,-18,-11
3324,79,99,996,-33,2,7
3325,-30,99,1014,-52,16,12
3326,-129,-17,991,-71,13,5
3327,-112,-129,977,-62,-5,3
3328,-72,-193,964,-41,-17,-2
3329,58,-173,991,-8,-25,-14
3330,131,-83,1012,14,-14,-14
3331,92,37,995,18,6,-6
3332,5,128,1022,6,21,-1
3333,-105,116,1001,-20,25,2
3334,-142,30,989,-39,11,0
3335,-103,-67,990,-43,-10,-5
3336,23,-133,944,-28,-23,-12
3337,306,289,457,7,-31,-12
3338,368,28,1264,-83,35,-33
3339,-175,140,684,-78,66,34
3340,-14,-326,665,-113,62,20
3341,-538,-389,868,-17,48,-8
3342,-328,-219,1152,21,-48,23
3343,277,-246,878,58,-47,-52
3344,-33,148,1080,91,-10,-4
3345,481,331,1077,39,-43,3
3346,112,254,1154,-5,59,-27
3347,-194,96,805,-66,47,38
3348,-307,-59,1082,-69,22,22
3349,-169,-274,982,-50,-3,-43
3350,-91,-243,840,-14,-23,3
3351,208,-105,1099,33,-50,-20
3352,146,3,1055,37,-11,-18
3353,61,131,924,24,7,7
3354,-118,147,1070,-2,21,7
3355,-171,24,996,-27,8,-7
3356,-92,-70,936,-30,-9,-2
3357,13,-133,1034,-13,-29,-14
3358,111,-125,1005,5,-31,-14
3359,131,-48,983,22,-10,-7
3360,5,53,1014,21,11,2
3361,-65,76,1022,5,17,0
3362,-110,53,973,-12,14,1
3363,-96,13,992,-21,-2,0
3364,7,-42,1016,-23,-21,-11
3365,87,-72,998,-15,-20,-13
3366,105,51,994,-12,-11,-6
3367,56,123,1022,-31,8,-9
3368,-29,80,1000,-47,22,-2
3369,-111,-29,973,-66,20,7
3370,-121,-152,985,-53,5,-7
3371,-63,-207,978,-24,-14,-11
3372,48,-137,986,7,-24,-13
3373,105,-18,1003,23,-15,-13
3374,96,84,1023,16,3,-8
3375,10,131,1013,-13,22,2
3376,-100,93,991,-31,24,3
3377,-130,-8,1004,-45,7,-1
3378,-99,-106,975,-40,-10,-7
3379,31,-140,994,-23,-23,-12
3380,109,-106,999,0,-20,-12
3381,111,-29,1000,10,0,-8
3382,29,57,1011,4,18,-2
3383,-86,83,1004,-11,28,3
3384,849,255,502,-15,70,13
3385,-657,568,1736,-113,168,133
3386,-121,-22,989,-176,-102,51
3387,-114,-539,414,-148,82,-86
3388,-808,-753,475,38,74,-181
3389,-225,-112,1220,136,-139,-103
3390,676,-135,1471,69,-127,-24
3391,124,313,726,62,17,14
3392,514,356,1032,2,-18,19
3393,53,237,1437,-25,67,-18
3394,-265,-65,589,-94,70,24
3395,-300,-218,956,-62,23,24
3396,-148,-228,1212,-14,-22,-29
3397,-37,-215,762,1,-23,-14
3398,128,1,1028,43,-32,-11
3399,132,116,1186,27,-17,-7
3400,75,114,897,-2,16,-9
3401,-55,61,1010,-18,25,3
3402,-109,-2,1055,-28,7,-6
3403,-20,-115,926,-29,-2,-18
3404,-59,-117,986,-8,-8,-4
3405,-19,-37,1023,5,-23,-10
3406,32,-24,995,8,-12,-16
3407,-21,30,992,6,-3,0
3408,13,47,1031,-4,-4,-10
3409,49,2,1003,-13,1,-18
3410,-12,-15,966,-17,2,-3
3411,-34,-15,1020,-15,-5,-11
3412,-73,-47,994,-15,-8,-12
3413,-69,-29,978,-11,-12,-3
3414,-29,-18,1010,-9,-18,-9
3415,55,-5,1005,-9,-19,-13
3416,98,63,991,-13,-10,-2
3417,49,98,1010,-28,2,5
3418,1,36,1015,-44,8,-2
3419,-86,-74,960,-49,10,1
3420,-141,-93,795,-30,-9,0
3421,265,321,753,-7,-31,-18
3422,148,-106,1607,-61,40,-30
3423,-95,24,527,-91,26,38
3424,33,-456,723,-59,48,-25
3425,-437,-134,1188,33,11,8
3426,63,-47,1032,3,-28,5
3427,48,-56,831,41,16,-44
3428,-104,173,1125,26,-18,38
3429,207,126,1081,-6,-18,-21
3430,-23,-24,952,-22,27,-25
3431,-88,9,912,-32,1,32
3432,-42,-16,1131,-27,1,-26
3433,-43,-173,912,-27,1,-16
3434,-100,-22,956,-3,-10,22
3435,21,-57,1081,-2,-23,-25
3436,8,-48,969,5,-15,-11
3437,44,38,968,5,-13,5
3438,6,24,1069,-3,-4,-15
3439,36,-2,979,-11,-3,-8
3440,-61,-7,975,-13,5,4
3441,-73,-43,1029,-14,-6,-9
3442,-37,-66,979,-7,-11,-7
3443,4,-42,990,-2,-14,-6
3444,35,-17,1015,4,-13,-8
3445,93,7,1015,2,-6,-11
3446,26,26,976,-4,9,-1
3447,-43,39,1022,-9,12,0
3448,-73,-8,1001,-18,7,-6
3449,-73,-31,972,-18,-1,-3
3450,1,-37,1007,-15,-12,-6
3451,67,-40,1014,-10,-8,-12
3452,130,41,982,-11,3,-7
3453,86,101,1010,-25,22,-3
3454,-53,44,1014,-40,30,-1
3455,-165,-46,967,-48,23,6
3456,-186,-123,971,-36,4,-4
3457,-82,-150,982,-17,-21,-12
3458,91,-101,1009,5,-28,-15
3459,166,0,995,15,-17,-11
3460,120,80,1023,7,8,-4
3461,-2,102,1022,-11,27,1
3462,-147,55,969,-33,28,5
3463,-170,-24,1000,-39,7,0
3464,-99,-109,989,-35,-16,-10
3465,57,-126,986,-17,-28,-14
3466,154,-79,1003,1,-21,-12
3467,121,-4,1017,6,3,-7
3468,19,57,1005,1,23,-1
3469,-123,77,992,-13,29,4
3470,198,-92,752,-26,21,-3
3471,317,653,1083,-25,150,62
3472,-461,-10,1539,-146,-17,95
3473,26,-274,512,-111,-2,-64
3474,-537,-951,367,-13,118,-209
3475,-627,-8,1080,192,-85,-115
3476,691,239,1486,47,-146,-7
3477,133,11,840,21,30,-27
3478,360,456,885,-2,-21,64
3479,170,-6,1414,-48,40,-28
3480,-222,-87,782,-47,71,-16
3481,-280,-240,777,-43,26,28
3482,-197,-100,1258,12,-15,-35
3483,-8,-146,852,8,-32,-13
3484,114,90,960,30,-22,-4
3485,121,72,1181,8,-16,-15
3486,84,72,945,-5,7,-12
3487,-45,-38,958,-22,22,-5
3488,-137,-26,1041,-12,6,-8
3489,-18,-90,970,-12,-8,-21
3490,-41,-65,975,3,-6,-9
3491,-28,9,1024,5,-21,-6
3492,47,14,1015,3,-17,-21
3493,-11,0,984,-4,-7,-6
3494,-3,26,1007,-8,-7,-8
3495,38,-13,1024,-15,-7,-22
3496,0,-19,959,-15,-2,-9
3497,-24,16,1011,-14,-7,-8
3498,-21,62,1012,-24,-10,-11
3499,-39,130,981,-40,-7,15
3500,-59,100,1029,-63,-12,12
3501,4,-57,1010,-76,-16,-3
3502,78,-156,961,-63,-12,2
3503,60,-179,975,-36,1,2
3504,12,-156,999,-8,8,-8
3505,-64,-64,983,12,12,-3
3506,-128,43,960,11,7,2
3507,118,550,531,6,-16,-3
3508,370,245,1645,-118,33,-38
3509,-111,143,900,-129,34,26
3510,144,-388,700,-178,50,21
3511,-353,-523,799,-60,69,-34
3512,-397,-278,1100,18,-7,8
3513,137,-424,808,34,-36,-22
3514,-407,22,1031,121,-6,9
3515,337,234,1131,77,-83,-12
3516,217,304,1151,42,2,-35
3517,104,268,828,-22,8,18
3518,-80,126,1130,-60,19,16
3519,-119,-141,1050,-76,15,-32
3520,-224,-284,794,-54,5,16
3521,-56,-199,1045,-3,-33,-11
3522,88,-170,1058,26,-30,-25
3523,129,21,921,41,-15,-5
3524,74,147,1062,28,-1,2
3525,-25,148,1052,2,11,-9
3526,-99,48,937,-30,12,7
3527,-145,-47,1013,-30,-5,1
3528,-54,-138,999,-22,-23,-12
3529,78,-148,972,1,-26,-12
3530,74,-60,1009,23,-17,-6
3531,94,30,1025,24,-5,-9
3532,26,72,994,12,14,-3
3533,-85,90,988,-6,20,8
3534,-92,50,1017,-21,6,-2
3535,-47,-18,988,-28,-5,-8
3536,65,23,992,-30,-14,-6
3537,106,-12,1022,-35,-2,-14
3538,78,-31,992,-34,11,-7
3539,-29,-57,976,-31,25,1
3540,-128,-68,993,-21,25,-2
3541,-141,-68,981,-16,6,-4
3542,-75,-35,982,-6,-11,-6
3543,15,-10,1008,-5,-22,-10
3544,114,12,1028,-6,-18,-13
3545,116,20,997,-12,-1,-8
3546,36,15,994,-19,16,-2
3547,-62,-14,1015,-23,23,0
3548,-136,-38,969,-27,16,1
3549,-116,-62,989,-20,-2,-3
3550,-37,-62,1005,-13,-19,-10
3551,86,-41,1002,-4,-24,-13
3552,130,2,1000,-3,-10,-9
3553,366,-90,823,-5,19,-7
3554,560,736,957,-11,182,59
3555,-696,109,1570,-163,48,134
3556,-40,-188,567,-143,-10,4
3557,-571,-907,341,-56,144,-185
3558,-1051,-174,767,173,-47,-184
3559,682,204,1617,80,-227,-52
3560,341,-46,1048,16,-26,-20
3561,445,420,706,-2,-10,38
3562,477,26,1429,-35,26,-13
3563,-321,14,970,-44,109,4
3564,-390,-223,570,-69,46,44
3565,-379,-155,1290,4,-5,-14
3566,-45,-138,909,5,-55,-29
3567,228,0,901,29,-44,-17
3568,313,119,1199,21,-25,-19
3569,96,105,994,-3,21,-5
3570,-103,7,925,-26,40,-1
3571,-339,-61,1041,-27,22,5
3572,-123,-115,946,-18,-20,-21
3573,42,-154,979,3,-29,-22
3574,147,1,1040,24,-36,-12
3575,185,56,1021,17,-14,-22
3576,-6,68,1004,1,16,-6
3577,-171,70,986,-16,16,4
3578,-150,-11,1005,-28,2,-15
3579,-73,-86,967,-23,-20,-10
3580,55,-70,995,-10,-34,-11
3581,151,-41,1033,-1,-30,-22
3582,94,15,988,0,-10,-10
3583,23,117,1008,-10,6,-1
3584,-80,147,1012,-39,16,7
3585,-134,91,994,-63,9,12
3586,-72,-58,979,-74,-9,7
3587,36,-194,1002,-58,-17,-7
3588,115,-209,970,-25,-15,-9
3589,69,-144,977,6,3,-8
3590,-22,-11,1012,22,14,-4
3591,-117,94,1003,11,17,2
3592,-125,125,937,-8,5,0
3593,218,712,403,-51,-42,-2
3594,295,-53,1640,-145,39,-50
3595,-146,147,617,-149,24,43
3596,85,-607,702,-168,47,-2
3597,-483,-532,638,-5,45,-25
3598,-287,-349,1191,53,-40,16
3599,218,-395,970,92,-44,-32
3600,-228,271,1034,133,3,15
3601,450,377,1060,66,-58,-19
3602,39,407,1188,19,29,-16
3603,-44,179,793,-71,7,24
3604,-174,-27,1120,-79,13,-4
3605,-87,-320,985,-73,-12,-26
3606,-115,-283,845,-24,-15,15
3607,85,-168,1089,25,-33,-20
3608,80,-36,1021,40,-14,-12
3609,98,148,959,35,-3,3
3610,-33,169,1065,8,12,0
3611,-59,101,1005,-24,5,-8
3612,-90,-36,954,-38,2,2
3613,-83,-130,1029,-28,-15,-6
3614,-1,-164,971,-9,-26,-10
3615,77,-115,987,17,-18,-11
3616,44,-10,1014,26,-5,-1
3617,59,73,1027,21,5,-6
3618,2,85,989,6,14,-3
3619,-58,92,990,-10,10,7
3620,-51,22,1022,-24,0,-5
3621,21,15,995,-32,-4,-8
3622,80,-10,984,-37,3,-6
3623,70,-36,1048,-34,11,-9
3624,7,-60,972,-35,25,-5
3625,-67,-47,963,-28,29,-3
3626,-128,-41,998,-23,18,1
3627,-108,-38,981,-17,-1,-6
3628,-47,-35,983,-12,-14,-5
3629,33,-21,1012,-8,-22,-10
3630,98,-20,1022,-8,-12,-13
3631,96,2,988,-11,3,-7
3632,14,11,1000,-14,19,-1
3633,-71,-5,1012,-18,20,-2
3634,-126,-23,970,-24,10,0
3635,-98,-37,997,-19,-6,-4
3636,-20,-55,1002,-14,-19,-10
3637,87,-40,1001,-7,-21,-13
3638,620,-54,689,0,12,-10
3639,212,704,1344,-31,175,81
3640,-396,89,1391,-143,7,88
3641,-101,-255,553,-147,61,-28
3642,-754,-843,460,-41,120,-149
3643,-681,-116,922,131,-101,-76
3644,611,-34,1504,64,-171,-28
3645,241,125,978,53,-9,-24
3646,558,397,818,5,-21,35
3647,298,175,1441,-21,56,-18
3648,-332,28,800,-77,96,20
3649,-368,-227,771,-80,39,38
3650,-372,-246,1189,-14,-9,-17
3651,-75,-212,861,3,-49,-27
3652,249,-39,981,41,-52,-24
3653,307,118,1172,39,-27,-15
3654,155,164,966,5,20,-5
3655,-97,94,991,-23,47,1
3656,-315,-33,1025,-39,25,6
3657,-197,-138,920,-31,-11,-17
3658,-16,-189,987,-3,-34,-23
3659,142,-66,1029,21,-46,-17
3660,223,16,1028,25,-23,-23
3661,68,94,1003,16,10,-7
3662,-109,119,1005,-9,20,5
3663,-168,24,999,-30,12,-10
3664,-162,-51,956,-35,-10,-4
3665,-2,-73,995,-25,-36,-10
3666,116,-81,1029,-12,-40,-20
3667,180,18,986,-5,-25,-6
3668,108,120,1014,-17,5,10
3669,-37,81,1020,-38,28,5
3670,-150,-53,969,-54,29,4
3671,-167,-124,965,-42,7,1
3672,-69,-162,986,-19,-17,-11
3673,69,-112,1000,6,-28,-17
3674,146,3,1000,17,-18,-10
3675,101,91,1018,10,6,-6
3676,-14,109,1024,-12,23,0
3677,-131,60,981,-33,26,3
3678,-130,176,641,-31,1,2
3679,357,320,1188,-90,-9,-25
3680,-24,-175,1398,-110,36,-13
3681,48,-169,588,-109,21,37
3682,-65,-534,671,-60,65,-50
3683,-603,-254,1089,54,12,1
3684,242,-134,1024,41,-67,11
3685,-104,66,1020,71,21,-15
3686,155,336,1014,36,-30,1
3687,243,172,1200,-5,-1,-13
3688,-81,77,912,-40,33,-6
3689,-159,-99,885,-62,15,26
3690,-62,-127,1159,-26,-2,-33
3691,-100,-196,859,-24,3,-8
3692,-33,-56,932,10,-17,9
3693,80,-12,1159,18,-23,-19
3694,26,22,943,8,-4,-7
3695,54,90,977,2,-1,1
3696,-28,34,1075,-11,4,-10
3697,-32,-18,951,-23,2,-6
3698,-75,-55,972,-22,3,1
3699,-71,-80,1038,-11,-11,-7
3700,-11,-84,961,-1,-16,-9
3701,33,-29,999,10,-13,-7
3702,50,18,1031,11,-10,-7
3703,70,40,1004,4,2,-10
3704,3,49,979,-7,13,-1
3705,-67,48,1003,-19,12,1
3706,-64,-18,1010,-26,3,-8
3707,-119,-33,955,-25,-4,-4
3708,-35,-35,997,-23,-25,-5
3709,72,-57,1023,-17,-22,-18
3710,132,-57,988,-11,-9,-12
3711,103,2,1003,-5,9,-2
3712,-33,17,1030,-14,27,0
3713,-132,10,969,-19,21,1
3714,-155,0,988,-21,2,-3
3715,-47,-41,1000,-21,-19,-12
3716,76,-59,1000,-15,-22,-13
3717,222,-72,956,-9,-10,-12
3718,1181,618,557,-1,124,32
3719,-907,362,1803,-162,168,175
3720,-47,-97,681,-189,-65,69
3721,-276,-828,200,-120,151,-100
3722,-1333,-497,632,118,61,-204
3723,-25,-30,1334,123,-220,-99
3724,611,-118,1424,67,-127,-20
3725,326,449,665,40,-11,15
3726,806,187,1186,-13,-13,-1
3727,-4,232,1332,-24,102,-6
3728,-425,-145,476,-109,93,60
3729,-533,-242,1124,-40,27,14
3730,-236,-239,1083,-2,-43,-37
3731,96,-183,729,26,-51,-28
3732,394,89,1220,56,-52,-25
3733,285,133,1100,22,0,-13
3734,16,128,876,-1,50,-5
3735,-324,18,1068,-26,43,11
3736,-289,-95,970,-25,0,-16
3737,-46,-212,918,-7,-25,-28
3738,110,-90,1045,26,-44,-16
3739,245,10,1034,34,-33,-28
3740,132,61,1006,26,6,-19
3741,-131,130,989,3,25,8
3742,-178,46,1018,-15,14,-15
3743,-162,-63,958,-24,-3,-15
3744,-35,-69,975,-16,-27,-6
3745,132,-66,1047,-1,-40,-25
3746,151,-48,998,7,-26,-19
3747,56,37,982,6,-5,-6
3748,-36,97,1030,-4,7,-15
3749,-48,167,986,-30,9,-7
3750,-121,175,992,-62,7,23
3751,-118,66,1023,-88,-13,13
3752,27,-159,990,-91,-31,-3
3753,130,-247,963,-58,-24,1
3754,116,-223,982,-19,-4,0
3755,13,-144,997,13,16,-5
3756,-120,-14,989,25,24,3
3757,-166,118,983,17,14,6
3758,93,719,313,6,-30,-10
3759,442,192,1506,-133,27,-57
3760,-100,169,760,-161,33,31
3761,65,-615,689,-180,40,23
3762,-373,-600,619,-39,46,-30
3763,-502,-456,1156,49,-18,19
3764,192,-363,933,102,-63,-30
3765,-219,252,1105,139,-7,11
3766,442,449,1005,74,-63,-21
3767,191,460,1231,9,20,-19
3768,-5,204,825,-84,17,23
3769,-241,-46,1072,-95,21,10
3770,-140,-369,1008,-85,-10,-31
3771,-160,-351,831,-24,-15,11
3772,112,-179,1061,31,-37,-20
3773,130,-28,1066,47,-14,-17
3774,143,181,953,40,-1,2
3775,-49,213,1047,6,20,5
3776,-112,102,1031,-29,10,-8
3777,-130,-69,933,-43,-1,1
3778,-86,-157,1021,-26,-21,-7
3779,38,-196,993,-2,-31,-13
3780,111,-109,988,27,-19,-10
3781,74,15,1003,35,-4,-2
3782,21,107,1035,26,12,-4
3783,-39,103,994,2,17,-2
3784,-103,76,971,-14,10,6
3785,-51,-10,1025,-25,-8,-4
3786,-10,-98,989,-23,-15,-9
3787,82,-63,989,-7,-16,-1
3788,202,82,1022,-9,1,-4
3789,112,59,1009,-31,36,-10
3790,-30,57,1012,-39,47,5
3791,-198,-15,987,-51,42,5
3792,-215,-108,948,-45,15,-6
3793,-143,-146,969,-26,-17,-6
3794,53,-108,999,-3,-36,-16
3795,153,-53,1008,10,-24,-14
3796,159,38,1013,10,2,-6
3797,47,89,1017,-4,28,0
3798,-112,75,997,-24,36,4
3799,-180,5,986,-38,15,2
3800,-142,-70,979,-37,-10,-7
3801,7,-113,989,-24,-28,-12
3802,127,-100,1013,-7,-27,-15
3803,153,-36,1006,4,-7,-9
3804,66,33,1005,5,19,-4
3805,-83,65,1011,-7,31,3
3806,-171,36,981,-23,21,3
3807,-159,-6,979,-32,-3,-4
3808,-21,-64,1009,-36,-31,-12
3809,140,-101,989,-17,-29,-16
3810,1290,288,509,18,74,7
3811,-658,621,1801,-109,206,156
3812,-153,-3,899,-177,-58,76
3813,-204,-735,264,-146,138,-65
3814,-1069,-538,554,82,84,-176
3815,-267,-30,1239,116,-162,-95
3816,513,-179,1448,52,-132,-17
3817,202,352,736,47,-10,16
3818,741,187,1056,-11,-30,4
3819,152,227,1468,-3,81,-15
3820,-276,-53,548,-95,97,49
3821,-471,-225,969,-65,47,48
3822,-323,-167,1179,-1,-21,-17
3823,-95,-190,750,-2,-32,-33
3824,263,-3,1060,40,-60,-29
3825,352,111,1197,25,-29,-7
3826,173,96,902,-1,36,-13
3827,-136,51,1013,-19,51,13
3828,-302,-32,1039,-27,26,5
3829,-199,-137,884,-23,2,-19
3830,-44,-132,993,3,-29,-11
3831,177,-17,1055,19,-45,-18
3832,223,6,1006,16,-12,-24
3833,54,93,1009,9,16,3
3834,-110,82,1020,-13,27,0
3835,-172,-16,971,-26,21,-10
3836,-164,-76,948,-26,0,-2
3837,15,-75,1025,-10,-27,-15
3838,142,-64,1017,0,-28,-19
3839,134,-7,986,8,-8,-10
3840,27,48,1022,3,10,-8
3841,-95,41,1003,-11,22,-4
3842,-148,-1,969,-22,16,-2
3843,-125,-31,979,-21,-5,-6
3844,24,-45,1013,-12,-23,-14
3845,110,-54,1002,-8,-22,-11
3846,109,-15,1006,-3,-10,-10
3847,36,18,1014,-5,7,-8
3848,-82,24,988,-14,19,-1
3849,-138,-1,982,-21,13,-3
3850,-103,-19,991,-23,-4,-4
3851,7,-40,992,-20,-18,-9
3852,91,-44,1014,-12,-20,-12
3853,106,-14,1009,-9,-10,-9
3854,45,8,1001,-11,8,-7
3855,-70,10,1002,-20,19,0
3856,-129,-7,984,-26,13,1
3857,-99,-23,985,-24,-4,-1
3858,-6,-37,998,-24,-17,-7
3859,78,-31,1013,-16,-21,-10
3860,109,-4,1000,-14,-9,-7
3861,37,12,1004,-18,5,-4
3862,-60,9,1009,-23,13,0
3863,-122,-11,975,-29,12,0
3864,-100,-33,985,-28,-3,-2
3865,-16,-46,1004,-24,-17,-6
3866,75,-37,1013,-18,-20,-9
3867,106,-1,998,-14,-11,-6
3868,38,17,1002,-18,4,-3
3869,-49,14,1010,-23,13,0
3870,-118,-8,977,-31,10,1
3871,-100,-44,995,-30,-2,-4
3872,-30,-54,995,-23,-18,-5
3873,67,-33,1004,-14,-23,-9
3874,97,-6,1005,-13,-14,-8
3875,49,8,1005,-17,2,-4
3876,-26,7,1005,-22,11,-1
3877,-104,-7,978,-27,12,0
3878,-100,-41,996,-25,-2,-3
3879,-49,-58,1001,-22,-16,-7
3880,48,-46,1000,-15,-21,-10
3881,96,-21,1003,-10,-15,-12
3882,62,-1,1004,-12,0,-6
3883,-2,9,1004,-14,10,-4
3884,-89,-1,992,-20,14,-1
3885,-97,-34,991,-22,4,-4
3886,-67,-56,989,-17,-12,-6
3887,32,-49,1003,-9,-21,-12
3888,88,-32,1003,-6,-17,-12
3889,76,-18,998,-2,-2,-9
3890,16,4,996,-2,12,-5
3891,-68,1,1004,-6,18,-2
3892,-107,-26,987,-12,9,-4
3893,-78,-36,980,-7,-4,-7
3894,18,-32,1006,0,-14,-9
3895,82,-13,1004,0,-14,-10
3896,101,14,1009,-2,-1,-7
3897,33,36,1001,-8,16,-4
3898,-62,19,998,-19,23,2
3899,-122,-17,993,-23,16,1
3900,-115,-43,983,-23,2,-3
3901,-14,-62,995,-14,-16,-10
3902,75,-59,1003,-5,-18,-11
3903,114,-9,999,2,-8,-7
3904,64,33,1012,-3,11,-3
3905,-47,36,1013,-14,23,0
3906,-132,12,980,-24,19,1
3907,-127,-24,986,-25,2,-3
3908,-38,-69,999,-22,-17,-10
3909,72,-75,1000,-10,-23,-13
3910,135,-35,1000,-3,-11,-10
3911,77,7,1006,-4,10,-5
3912,-31,31,1011,-8,22,1
3913,-132,27,979,-19,22,3
3914,-137,-8,994,-25,6,-1
3915,-54,-54,993,-22,-14,-8
3916,65,-67,1003,-14,-22,-13
3917,137,-43,997,-6,-15,-12
3918,90,-8,1009,-4,6,-6
3919,-14,19,1005,-11,22,0
3920,-130,24,982,-16,23,2
3921,-137,-3,998,-22,7,-1
3922,-78,-43,992,-24,-12,-8
3923,54,-55,999,-15,-24,-13
3924,130,-39,1002,-10,-16,-13
3925,101,-10,1006,-6,4,-7
3926,4,15,1007,-9,20,-1
3927,-120,22,982,-17,24,4
3928,-145,-6,989,-21,11,0
3929,133,676,343,-72,-50,-2
3930,389,-44,1710,-118,41,-60
3931,-201,192,709,-153,30,47
3932,89,-352,710,-173,39,21
3933,-264,-444,546,-101,52,-28
3934,-358,-525,1059,26,18,25
3935,224,-562,933,102,-40,-75
3936,-350,-168,1039,152,9,5
3937,235,305,1053,149,-73,5
3938,169,606,1308,89,1,-22
3939,54,468,738,-39,14,14
3940,-43,271,1193,-86,15,22
3941,-71,-172,1037,-131,10,-31
3942,-186,-394,824,-92,11,7
3943,-63,-375,953,-23,-29,-11
3944,-13,-246,1077,32,-30,-18
3945,97,-2,921,57,-21,-11
3946,70,208,1062,47,-4,4
3947,41,254,1053,6,3,-5
3948,-64,118,981,-36,13,2
3949,-122,-27,991,-52,-4,0
3950,-105,-164,992,-40,-22,-10
3951,28,-211,969,-14,-33,-17
3952,53,-130,994,17,-23,-7
3953,113,8,1019,30,-11,-8
3954,54,87,1005,20,10,-3
3955,-55,130,1004,-1,18,7
3956,-106,79,1003,-24,6,-2
3957,-88,-26,996,-35,-10,-8
3958,-11,-101,984,-28,-24,-7
3959,66,-112,1013,-13,-21,-12
3960,106,-79,989,1,-8,-12
3961,57,-5,993,10,10,-1
3962,-20,63,1017,4,19,2
3963,-95,64,995,-13,18,-1
3964,-101,28,1001,-23,4,-1
3965,-49,-23,997,-28,-14,-5
3966,54,-66,1001,-24,-20,-10
3967,105,-64,992,-15,-11,-7
3968,67,-36,998,-10,8,-3
3969,-2,-6,1008,-10,20,-3
3970,-101,18,984,-14,23,1
3971,-116,14,1005,-18,8,-1
3972,-79,-11,998,-22,-8,-7
3973,43,-30,1002,-21,-18,-11
3974,108,-39,1000,-16,-12,-10
3975,89,-32,994,-16,3,-7
3976,45,-24,1004,-14,18,-4
3977,-50,5,988,-16,32,0
3978,-119,-14,1009,-18,23,0
3979,-130,-13,992,-17,8,-3
3980,-27,-43,987,-17,-11,-11
3981,69,-32,999,-11,-16,-12
3982,111,-25,1015,-7,-2,-9
3983,65,-1,987,-8,15,-6
3984,-66,8,1002,-12,27,3
3985,-129,-7,1003,-17,18,-1
3986,-133,-30,972,-18,3,-4
3987,-6,-35,991,-11,-15,-10
3988,86,-43,1019,-8,-17,-12
3989,126,-15,1007,-5,-6,-9
3990,61,10,998,-7,13,-4
3991,-68,19,1001,-14,23,1
3992,-141,-9,991,-20,17,0
3993,-132,-27,980,-21,2,-3
3994,-19,-43,996,-17,-17,-9
3995,85,-45,1007,-10,-21,-15
3996,133,-15,999,-6,-10,-11
3997,66,10,1007,-8,11,-5
3998,-48,14,1010,-15,23,0
3999,-142,-7,983,-22,20,2
4000,-131,-25,982,-21,2,-3
4001,-39,-58,996,-17,-17,-8
4002,83,-52,1006,-8,-22,-13
4003,140,-21,1001,-4,-12,-10
4004,75,18,1002,-4,9,-4
4005,-35,23,1012,-12,22,-1
4006,-139,14,980,-22,21,1
4007,-140,-20,987,-25,6,-2
4008,-52,-58,998,-21,-14,-8
4009,74,-65,1005,-12,-24,-13
4010,137,-27,997,-4,-14,-11
4011,83,9,1009,-4,6,-6
4012,-26,27,1006,-11,20,-1
4013,-133,23,984,-20,24,3
4014,-141,-14,995,-25,7,-1
4015,-73,-54,992,-25,-13,-8
4016,64,-65,1000,-14,-24,-13
4017,134,-38,1000,-6,-16,-13
4018,97,-3,1012,-4,4,-7
4019,-5,23,1006,-11,20,-2
4020,-123,27,985,-19,23,2
4021,-143,-11,992,-24,9,0
4022,-89,-47,991,-21,-10,-6
4023,49,-62,1002,-15,-22,-12
4024,124,-41,1003,-8,-18,-12
4025,109,-10,1004,-4,0,-7
4026,13,23,1005,-9,17,-3
4027,-108,28,996,-20,24,2
4028,-144,-8,993,-24,13,0
4029,-106,-40,983,-23,-7,-5
4030,30,-57,997,-15,-23,-11
4031,115,-48,1011,-8,-21,-13
4032,433,-150,824,-7,2,-10
4033,156,472,500,-4,198,86
4034,-397,183,1354,-146,22,104
4035,-110,-230,665,-147,50,10
4036,-464,-977,435,-23,144,-189
4037,-897,-10,772,183,1,-182
4038,67,95,1024,81,-200,-91
4039,427,239,1627,44,-116,17
4040,266,439,595,-72,-8,72
4041,659,-160,1203,-61,-12,-10
4042,-14,34,1129,-42,82,14
4043,-273,-313,748,-77,81,37
4044,-316,-180,997,9,26,-1
4045,-346,-57,1036,13,-13,6
4046,22,14,859,16,-46,-14
4047,249,141,1173,21,-39,-25
4048,207,98,975,-20,-6,3
4049,81,35,1027,-25,23,-10
4050,-142,-83,1001,-37,30,1
4051,-236,-114,938,-22,15,4
4052,-73,-130,979,-5,-12,-19
4053,26,-46,1022,11,-22,-10
4054,152,44,980,12,-27,-15
4055,97,60,1052,7,4,-13
4056,-46,69,987,-17,14,0
4057,-123,-4,995,-23,14,-5
4058,-125,-69,979,-26,1,-9
4059,-13,-83,987,-14,-15,-9
4060,107,-54,1005,-1,-20,-16
4061,104,-8,1016,0,-6,-10
4062,36,44,1006,-3,7,-4
4063,-95,42,985,-14,16,-4
4064,-131,9,992,-23,8,-2
4065,-100,-40,989,-27,-7,-5
4066,27,-59,998,-20,-21,-12
4067,118,-57,1009,-10,-20,-12
4068,98,-25,1002,-6,-2,-9
4069,12,9,1003,-6,11,-5
4070,-97,29,993,-14,17,0
4071,-134,4,986,-19,8,-2
4072,-92,-26,989,-23,-8,-8
4073,32,-41,1006,-18,-21,-11
4074,113,-49,1004,-12,-18,-13
4075,96,-30,1010,-8,-5,-9
4076,18,6,996,-7,10,-5
4077,-84,18,996,-13,19,-1
4078,-130,-4,991,-20,9,-1
4079,-92,-22,980,-23,-8,-6
4080,25,-41,1000,-18,-20,-10
4081,94,-44,1011,-13,-17,-12
4082,100,-21,1014,-8,-5,-10
4083,30,12,995,-9,9,-6
4084,-78,17,998,-16,18,0
4085,-126,-2,986,-22,11,-1
4086,-98,-23,990,-22,-4,-4
4087,10,-42,999,-18,-20,-9
4088,80,-45,1007,-12,-20,-12
4089,109,-16,1004,-9,-8,-8
4090,35,8,1002,-12,9,-5
4091,-66,14,1006,-18,18,0
4092,-124,3,985,-24,13,1
4093,-104,-16,986,-26,-3,-2
4094,-10,-49,997,-22,-19,-8
4095,79,-50,1008,-15,-21,-11
4096,110,-21,1004,-10,-10,-8
4097,44,3,1001,-10,8,-5
4098,-52,12,1003,-15,17,0
4099,-119,2,980,-22,13,-1
4100,-107,-17,996,-23,-1,-3
4101,-23,-44,1000,-21,-15,-8
4102,65,-47,1005,-16,-20,-10
4103,111,-26,999,-11,-13,-10
4104,54,-8,1007,-10,4,-6
4105,-30,9,1000,-14,15,-2
4106,-115,5,984,-22,15,1
4107,-108,-16,998,-24,0,-4
4108,-50,-43,995,-20,-14,-6
4109,65,-45,999,-14,-21,-10
4110,124,-37,1007,-8,-12,-11
4111,89,-26,1005,-7,7,-7
4112,-13,7,1003,-9,20,0
4113,-121,25,982,-16,23,2
4114,-142,-7,997,-20,9,-1
4115,-82,-29,985,-22,-10,-6
4116,53,-42,1012,-14,-20,-11
4117,126,-37,1003,-10,-16,-11
4118,101,-16,1000,-7,3,-6
4119,8,10,1001,-9,17,-3
4120,-112,16,998,-16,24,2
4121,-144,-11,988,-22,12,0
4122,-102,-38,986,-22,-7,-6
4123,36,-44,1002,-13,-23,-11
4124,114,-39,1008,-7,-18,-12
4125,114,-11,1010,-7,0,-8
4126,27,19,997,-9,18,-3
4127,-90,21,998,-16,24,3
4128,-149,-13,987,-22,14,0
4129,-114,-38,984,-22,-5,-5
4130,21,-57,998,-17,-21,-11
4131,99,-51,1010,-9,-19,-12
4132,127,-7,1004,-3,-6,-9
4133,44,20,1008,-7,15,-4
4134,-78,23,1005,-17,24,2
4135,-143,-4,981,-23,17,1
4136,-116,-33,988,-24,0,-4
4137,-8,-61,996,-20,-20,-11
4138,96,-57,1006,-9,-23,-14
4139,131,-23,1000,-4,-9,-10
4140,222,810,455,-52,-17,-6
4141,306,-50,1508,-146,77,-66
4142,-468,254,766,-148,63,72
4143,-143,-286,700,-226,25,43
4144,-315,-361,551,-164,5,-9
4145,-339,-452,1087,-16,-24,0
4146,397,-431,982,34,-64,-162
4147,-103,-440,818,88,42,-89
4148,96,-371,655,178,-7,-105
4149,288,302,1716,207,-43,-1
4150,-9,593,715,72,27,42
4151,-100,580,963,-5,34,9
4152,-40,327,1262,-90,-5,4
4153,-149,-109,910,-134,9,-6
4154,123,-402,812,-106,-21,-31
4155,-52,-430,1138,-22,-16,-3
4156,57,-274,880,27,-19,-14
4157,-93,-54,974,63,9,3
4158,-67,199,1086,57,-9,6
4159,-9,226,1016,9,-1,-5
4160,93,150,996,-21,-3,-11
4161,17,19,1021,-41,-2,5
4162,43,-106,993,-40,-9,-17
4163,-94,-180,963,-23,1,-2
4164,-104,-117,994,4,-9,0
4165,-55,-67,995,13,-9,-9
4166,44,21,1001,20,-9,-7
4167,89,81,1018,8,-2,-1
4168,85,75,1029,-7,6,-7
4169,4,33,982,-19,8,-2
4170,-100,-11,994,-24,8,1
4171,-112,-81,1000,-25,-2,-6
4172,-62,-101,974,-15,-9,-6
4173,45,-61,994,0,-11,-8
4174,100,-20,1023,6,-4,-10
4175,89,33,1003,4,7,-5
4176,2,73,990,-6,15,-1
4177,-92,48,1008,-21,16,0
4178,-122,-14,991,-30,5,-3
4179,-80,-58,980,-29,-7,-4
4180,30,-83,1004,-19,-17,-11
4181,87,-73,1000,-7,-11,-10
4182,98,-13,995,0,1,-7
4183,16,29,1009,-3,15,-4
4184,-66,40,1010,-12,20,0
4185,-122,17,982,-23,12,-1
4186,-93,-13,991,-27,-5,-5
4187,5,-64,1005,-23,-16,-10
4188,79,-72,999,-15,-13,-11
4189,111,-35,995,-5,-3,-8
4190,41,0,1007,-4,13,-4
4191,-50,23,999,-7,20,0
4192,-126,23,984,-18,17,2
4193,-100,2,1004,-23,0,-4
4194,-6,-42,995,-24,-11,-10
4195,80,-61,998,-17,-13,-11
4196,101,-41,1001,-8,-5,-7
4197,29,-17,1000,-6,12,-6
4198,-51,6,994,-10,19,-3
4199,-121,16,989,-16,16,-1
4200,-102,2,1003,-20,0,-4
4201,-37,-35,995,-21,-14,-8
4202,69,-39,1002,-15,-18,-10
4203,113,-36,1002,-11,-9,-10
4204,68,-14,1005,-8,7,-7
4205,-21,6,1000,-10,17,-2
4206,-119,13,983,-17,19,1
4207,-121,-14,999,-19,5,-3
4208,-70,-36,988,-20,-11,-8
4209,53,-39,1009,-15,-20,-12
4210,114,-34,1005,-10,-15,-11
4211,92,-13,1004,-6,3,-6
4212,6,9,997,-10,17,-4
4213,-104,16,1002,-17,23,3
4214,-132,-17,989,-21,11,-2
4215,-97,-37,977,-20,-7,-5
4216,35,-43,1002,-14,-23,-10
4217,106,-40,1013,-11,-18,-12
4218,114,-11,1004,-6,-2,-8
4219,31,19,1001,-8,18,-3
4220,-91,20,999,-17,23,2
4221,-141,-11,988,-25,13,-1
4222,-115,-39,986,-22,-3,-5
4223,13,-50,995,-16,-21,-11
4224,100,-50,1013,-8,-18,-12
4225,121,-11,996,-3,-6,-8
4226,45,21,1008,-8,14,-3
4227,-74,21,1011,-18,24,1
4228,-145,0,975,-24,18,1
4229,-121,-32,984,-24,-1,-5
4230,285,-187,813,-18,-13,-12
4231,634,805,805,-2,179,77
4232,-665,125,1610,-167,18,141
4233,39,-249,472,-167,-29,27
4234,-225,-992,203,-62,128,-126
4235,-1286,-345,761,203,61,-189
4236,157,153,1443,146,-205,-131
4237,352,78,1360,64,-90,8
4238,165,481,486,-8,-6,104
4239,720,114,1420,-37,-42,21
4240,171,119,1149,-34,72,-34
4241,-198,-263,531,-86,86,37
4242,-378,-102,1262,-2,39,-8
4243,-405,-187,964,-18,-4,-14
4244,-104,-82,757,12,-37,-11
4245,214,63,1214,24,-60,-18
4246,313,85,1036,1,-23,-13
4247,244,63,943,-8,28,-11
4248,-118,30,1058,-21,45,9
4249,-243,-27,969,-27,25,-4
4250,-200,-132,930,-22,6,-16
4251,-150,-90,994,-5,-25,-2
4252,133,-38,1034,8,-44,-22
4253,217,-7,1014,13,-19,-22
4254,107,62,1001,5,8,2
4255,-4,70,1031,-8,24,-10
4256,-148,-4,974,-23,28,-6
4257,-191,-24,951,-24,8,2
4258,-102,-58,1015,-19,-18,-13
4259,58,-50,999,-11,-34,-14
4260,140,-25,1004,-7,-26,-9
4261,122,8,1028,-5,-4,-10
4262,27,20,999,-10,16,-5
4263,-103,24,977,-18,25,0
4264,-163,-5,996,-25,11,-2
4265,-107,-29,984,-26,-12,-6
4266,12,-48,990,-21,-27,-9
4267,105,-48,1013,-15,-27,-12
4268,127,-23,1021,-10,-12,-11
4269,50,5,987,-10,10,-4
4270,-71,16,1006,-16,20,1
4271,-137,-1,990,-24,13,-1
4272,-116,-15,983,-27,-4,-3
4273,-16,-38,999,-23,-23,-6
4274,80,-47,1010,-16,-26,-11
4275,125,-22,998,-13,-15,-9
4276,59,4,1007,-16,7,-5
4277,-42,7,1010,-19,18,0
4278,-129,-1,975,-24,15,1
4279,-120,-14,989,-26,1,-1
4280,-37,-40,1003,-24,-18,-6
4281,68,-36,1006,-20,-24,-10
4282,126,-6,997,-17,-15,-6
4283,71,20,1008,-18,5,-1
4284,-25,12,1002,-26,16,2
4285,-119,-6,982,-35,18,4
4286,-125,-44,994,-32,4,1
4287,-60,-73,991,-26,-12,-7
4288,55,-75,992,-12,-20,-11
4289,117,-32,999,-6,-15,-10
4290,78,9,1017,-4,4,-5
4291,-9,35,1000,-10,17,-1
4292,-107,27,985,-22,21,1
4293,-123,-14,1001,-29,6,-1
4294,-67,-63,991,-26,-11,-7
4295,48,-76,998,-13,-19,-12
4296,110,-47,999,-4,-15,-11
4297,85,-3,1006,-2,2,-7
4298,1,28,1004,-6,18,-2
4299,-104,33,988,-18,22,2
4300,-130,-2,1000,-23,10,-1
4301,-86,-44,985,-24,-6,-7
4302,37,-66,999,-16,-21,-10
4303,110,-55,1001,-4,-16,-11
4304,99,-19,1010,-4,0,-8
4305,19,22,1000,-6,16,-3
4306,-93,34,995,-16,25,3
4307,-133,1,998,-24,13,0
4308,-105,-30,978,-24,-5,-4
4309,24,-52,995,-18,-19,-10
4310,99,-54,1013,-10,-18,-11
4311,109,-21,1008,-6,-4,-7
4312,36,13,994,-8,15,-4
4313,-82,26,1001,-13,25,2
4314,-140,1,992,-22,14,0
4315,-109,-23,987,-23,-3,-5
4316,5,-54,994,-19,-19,-9
4317,90,-56,1006,-11,-20,-12
4318,125,-21,1004,-6,-7,-9
4319,48,7,1003,-6,13,-4
4320,-65,18,1011,-13,23,1
4321,-140,5,980,-20,18,1
4322,-121,-18,986,-24,0,-3
4323,-15,-51,998,-19,-19,-11
4324,84,-54,1009,-11,-22,-12
4325,133,-24,1001,-7,-11,-10
4326,61,8,1004,-8,11,-4
4327,-47,19,1006,-12,22,-1
4328,-140,6,980,-20,19,2
4329,-130,-21,992,-23,1,-3
4330,-42,-56,997,-20,-19,-10
4331,79,-55,1002,-12,-26,-13
4332,134,-27,1004,-6,-14,-10
4333,80,4,1007,-6,8,-6
4334,-26,18,1007,-12,23,-1
4335,-136,17,978,-19,21,1
4336,-140,-18,997,-24,4,-2
4337,-62,-54,992,-22,-15,-7
4338,69,-60,1000,-12,-23,-11
4339,139,-30,1004,-5,-12,-13
4340,91,-1,1010,-6,7,-7
4341,-12,25,1000,-10,20,-1
4342,-131,20,987,-18,22,2
4343,-65,333,462,-44,-12,3
4344,463,441,1354,-115,10,-44
4345,-124,43,1233,-153,46,3
4346,-46,-38,661,-211,27,77
4347,48,-446,534,-186,42,-22
4348,-501,-623,915,-43,44,46
4349,277,-521,968,64,-33,-60
4350,-137,-696,898,140,42,-46
4351,-348,-5,821,207,-14,5
4352,210,424,1613,191,-84,31
4353,-2,785,825,72,16,-12
4354,63,480,946,-50,-2,20
4355,202,291,1288,-100,-13,-4
4356,-138,-350,895,-146,35,-14
4357,-105,-435,775,-76,1,2
4358,-194,-466,1143,3,-21,-12
4359,-51,-188,867,57,-33,-17
4360,43,60,1012,77,-21,-1
4361,152,316,1122,55,-20,-6
4362,80,241,981,-3,5,-4
4363,-15,131,1008,-37,11,3
4364,-176,-89,1017,-55,1,0
4365,-95,-206,934,-34,-22,-16
4366,-33,-235,989,-4,-29,-7
4367,71,-87,1017,30,-31,-10
4368,147,25,1010,36,-10,-10
4369,57,135,1004,23,10,1
4370,-53,147,1018,-5,15,5
4371,-104,59,999,-29,5,-7
4372,-103,-52,973,-39,-11,0
4373,-5,-110,1001,-26,-24,-7
4374,85,-133,1008,-11,-21,-14
4375,122,-60,984,7,-6,-9
4376,49,40,1002,13,13,-1
4377,-29,90,1019,0,21,-2
4378,-114,77,980,-20,17,2
4379,-113,27,1004,-33,-1,1
4380,-41,-53,1005,-38,-17,-7
4381,61,-96,990,-27,-18,-10
4382,114,-72,990,-13,-9,-8
4383,69,-25,1011,-9,10,-5
4384,-18,13,995,-11,23,-1
4385,-109,44,990,-16,20,2
4386,-123,18,1005,-26,4,-1
4387,-63,-22,990,-31,-11,-9
4388,53,-54,1007,-24,-15,-11
4389,107,-50,996,-18,-17,-11
4390,88,-41,994,-15,7,-4
4391,4,-7,998,-13,19,-3
4392,-49,31,999,-17,25,1
4393,-103,9,1000,-26,21,-2
4394,-113,-19,998,-29,1,-2
4395,-12,-45,993,-26,-13,-9
4396,68,-69,989,-19,-14,-13
4397,102,-45,1009,-9,-4,-8
4398,51,-3,1002,-5,13,-7
4399,-60,15,992,-12,24,0
4400,-128,12,1008,-16,17,0
4401,-123,-14,976,-20,2,-4
4402,-4,-38,991,-17,-14,-10
4403,84,-48,1016,-10,-17,-13
4404,119,-28,1004,-6,-7,-10
4405,59,2,992,-8,12,-5
4406,-67,15,1008,-12,24,-1
4407,-136,0,992,-20,18,-2
4408,-126,-22,983,-21,4,-5
4409,-16,-43,997,-17,-15,-9
4410,83,-55,1007,-10,-19,-13
4411,130,-22,997,-5,-8,-10
4412,58,4,1007,-8,10,-4
4413,-52,19,1016,-14,21,0
4414,-141,0,976,-22,19,1
4415,-127,-21,979,-22,2,-3
4416,-25,-55,1007,-18,-17,-9
4417,84,-57,1004,-11,-20,-13
4418,136,-24,998,-6,-12,-10
4419,67,9,1003,-6,8,-6
4420,-42,24,1012,-11,21,-1
4421,-138,11,975,-23,20,1
4422,-135,-19,997,-24,4,-2
4423,-49,-57,994,-21,-15,-9
4424,74,-60,1000,-11,-22,-13
4425,135,-31,1002,-5,-14,-11
4426,78,4,1009,-4,7,-4
4427,-19,25,1008,-12,20,-1
4428,-132,20,978,-21,23,2
4429,-138,-10,996,-24,6,-2
4430,-68,-55,991,-23,-12,-8
4431,59,-60,999,-14,-21,-12
4432,136,-41,1004,-7,-16,-12
4433,94,-9,1007,-4,5,-7
4434,0,24,1006,-10,18,0
4435,-118,27,987,-18,24,3
4436,-144,-9,993,-24,11,-1
4437,-90,-45,991,-23,-9,-7
4438,45,-57,1004,-17,-22,-13
4439,121,-46,1001,-7,-17,-13
