sequence,AccelerometerX,AccelerometerY,AccelerometerZ,GyroscopeX,GyroscopeY,GyroscopeZ
0,79,-27,1010,-9,-28,-14
1,136,-20,1010,-8,-12,-11
2,93,-10,1000,-10,11,-4
3,-14,-1,998,-16,26,-1
4,-130,-3,985,-18,26,3
5,-146,-25,991,-23,6,-4
6,-78,-31,981,-20,-14,-9
7,62,-23,1005,-13,-23,-13
8,125,-24,1013,-10,-14,-12
9,107,-7,1007,-13,11,-5
10,4,0,996,-17,26,-2
11,-118,-5,988,-20,23,1
12,-148,-24,985,-14,8,-3
13,-93,-25,989,-19,-12,-7
14,41,-31,1003,-11,-24,-12
15,113,-26,1007,-9,-17,-12
16,122,-5,1003,-12,1,-7
17,19,0,1003,-12,23,-3
18,-102,-9,1001,-19,26,2
19,-151,-18,976,-18,12,-2
20,-108,-23,989,-16,-10,-7
21,22,-31,1006,-14,-25,-12
22,109,-26,1011,-11,-17,-13
23,131,-4,999,-13,0,-9
24,34,-1,1007,-15,21,-3
25,-82,-7,998,-15,25,2
26,-151,-17,973,-19,14,0
27,-112,-24,999,-17,-6,-6
28,-6,-39,1001,-15,-25,-14
29,106,-27,1004,-11,-24,-14
30,135,-10,1005,-9,-5,-10
31,48,-1,1003,-13,17,-5
32,-60,-10,1000,-16,26,0
33,-149,-10,973,-18,19,1
34,-125,-25,1001,-17,-5,-5
35,-28,-37,998,-16,-22,-12
36,89,-26,1003,-12,-22,-13
37,141,-15,1005,-10,-9,-11
38,67,-7,1007,-12,16,-4
39,-41,-4,994,-16,26,0
40,-145,-5,976,-17,20,1
41,-135,-25,996,-18,-1,-5
42,-54,-35,993,-16,-20,-10
43,81,-25,1009,-12,-25,-14
44,137,-16,1008,-11,-10,-11
45,88,-12,1000,-9,12,-5
46,-18,0,997,-14,25,-1
47,-131,-2,986,-20,23,2
48,-140,-23,993,-19,5,-4
49,-77,-36,982,-17,-16,-9
50,65,-23,1007,-11,-26,-12
51,131,-26,1011,-11,-15,-12
52,102,-9,1012,-12,8,-7
53,1,2,993,-14,25,-3
54,-124,-7,989,-18,25,1
55,-147,-24,990,-19,5,-3
56,-89,-29,988,-17,-14,-8
57,47,-26,1006,-14,-26,-13
58,120,-27,1007,-12,-15,-12
59,118,-2,1006,-10,2,-8
60,18,1,999,-14,21,-2
61,-106,-10,1001,-19,25,1
62,-150,-22,976,-19,10,-4
63,-99,-26,989,-16,-10,-7
64,27,-31,1006,-14,-25,-11
65,107,-27,1006,-12,-18,-12
66,129,-5,1003,-11,0,-7
67,31,-1,1004,-17,20,-2
68,-85,-10,998,-18,26,1
69,-150,-17,976,-19,14,0
70,-109,-26,990,-17,-7,-7
71,0,-33,1007,-16,-23,-11
72,105,-27,1006,-13,-20,-12
73,136,-9,1003,-12,-4,-10
74,45,0,1004,-12,19,-2
75,-68,-9,997,-17,25,2
76,-150,-11,975,-21,15,-1
77,-124,-25,1001,-19,-5,-5
78,-22,-33,996,-16,-23,-12
79,96,-26,1007,-14,-23,-12
80,142,-14,1003,-12,-8,-11
81,65,-5,1009,-16,15,-3
82,-45,-4,996,-16,26,0
83,-149,-8,977,-19,19,1
84,-130,-24,991,-18,-3,-4
85,-49,-36,1000,-15,-20,-10
86,89,-22,1004,-14,-25,-14
87,134,-19,1008,-11,-9,-11
88,86,-8,1001,-13,12,-4
89,-30,-6,998,-17,25,0
90,-135,0,983,-19,22,1
91,-140,-29,993,-19,3,-3
92,-68,-31,986,-17,-16,-9
93,70,-26,1008,-12,-26,-13
94,133,-21,1010,-9,-14,-11
95,99,-14,1007,-13,8,-5
96,-7,2,993,-15,26,-2
97,-127,0,987,-19,24,2
98,-143,-26,993,-18,5,-4
99,-88,-30,983,-17,-14,-8
100,59,-27,1009,-14,-26,-14
101,117,-29,1010,-13,-14,-11
102,114,-9,1008,-13,4,-5
103,13,-2,996,-15,22,-2
104,-113,-4,997,-17,25,2
105,-150,-21,982,-18,9,-1
106,-98,-24,991,-16,-11,-7
107,35,-33,1005,-15,-25,-11
108,110,-31,1007,-11,-17,-11
109,128,-6,999,-10,1,-8
110,28,-3,1006,-14,20,-1
111,-95,-8,999,-16,25,2
112,-153,-15,977,-17,12,-2
113,-111,-22,989,-16,-10,-6
114,6,-33,1006,-12,-25,-11
115,111,-28,1007,-12,-20,-12
116,134,-8,1002,-11,-2,-9
117,41,-1,998,-13,20,-3
118,-80,-12,1000,-16,27,2
119,-155,-12,971,-18,16,1
120,-122,-22,1000,-16,-5,-5
121,-12,-33,1002,-13,-22,-10
122,102,-23,1001,-12,-22,-11
123,139,-11,1005,-11,-7,-10
124,57,-4,1006,-14,17,-3
125,-51,-11,993,-16,26,-1
126,-150,-8,975,-18,18,0
127,-128,-24,998,-16,-3,-5
128,-38,-34,996,-15,-20,-10
129,90,-20,1008,-11,-23,-12
130,138,-16,1006,-12,-10,-10
131,74,-9,1004,-12,13,-5
132,-32,-8,995,-14,25,-2
133,-140,-4,984,-18,21,2
134,-129,-27,990,-17,1,-3
135,-65,-32,993,-15,-17,-8
136,77,-21,1006,-12,-25,-12
137,132,-21,1011,-10,-12,-11
138,95,-8,1001,-11,9,-4
139,-15,-1,993,-16,24,-1
140,-126,-8,986,-19,24,2
141,-144,-26,990,-19,5,-3
142,-79,-29,984,-18,-16,-7
143,59,-25,1006,-12,-25,-13
144,123,-22,1012,-11,-13,-12
145,106,-7,1008,-13,6,-5
146,6,1,997,-15,22,-2
147,-113,-10,990,-17,24,3
148,-147,-23,987,-18,8,-2
149,-90,-25,989,-17,-12,-7
150,40,-27,1006,-14,-26,-13
151,112,-27,1005,-10,-17,-12
152,122,-5,1003,-9,2,-7
153,23,-2,1003,-13,21,-1
154,-100,-7,999,-17,24,2
155,-150,-20,977,-18,11,-1
156,-104,-25,989,-17,-10,-6
157,15,-34,1006,-14,-25,-13
158,110,-25,1011,-11,-20,-13
159,132,-6,1000,-12,-1,-8
160,36,-2,1002,-14,20,-2
161,-80,-12,1001,-16,26,1
162,-153,-14,973,-19,14,0
163,-116,-20,997,-17,-7,-6
164,-9,-37,1001,-14,-22,-11
165,105,-25,1005,-11,-22,-12
166,138,-12,1004,-10,-5,-9
167,52,-5,1007,-13,17,-4
168,-58,-9,993,-17,26,-1
169,-153,-6,975,-19,19,1
170,-125,-25,997,-16,-5,-5
171,-33,-33,1000,-15,-22,-10
172,96,-26,1003,-12,-25,-12
173,139,-15,1009,-11,-8,-11
174,70,-9,1005,-11,15,-5
175,-38,-3,997,-14,24,-1
176,-143,-8,976,-19,20,1
177,-135,-22,996,-17,0,-4
178,-56,-34,995,-15,-18,-10
179,80,-21,1006,-12,-24,-13
180,134,-18,1011,-10,-11,-11
181,85,-10,999,-12,10,-4
182,-17,-3,995,-15,24,-2
183,-131,-4,990,-19,23,2
184,-140,-26,991,-19,4,-3
185,-70,-29,985,-16,-17,-10
186,63,-24,1004,-12,-26,-13
187,125,-22,1012,-12,-14,-12
188,103,-11,1009,-12,7,-7
189,0,0,993,-14,24,-2
190,-119,-9,989,-16,24,2
191,-151,-26,993,-17,6,-3
192,-91,-26,987,-17,-14,-8
193,47,-24,1006,-12,-27,-12
194,119,-25,1009,-13,-17,-11
195,119,-4,1001,-10,2,-7
196,15,-4,1001,-15,22,-2
197,-103,-8,999,-17,25,1
198,-152,-21,976,-19,9,-3
199,-101,-23,986,-18,-11,-7
200,23,-31,1012,-12,-24,-12
201,108,-25,1005,-12,-19,-13
202,134,-6,1003,-11,-1,-9
203,35,0,1003,-13,20,-4
204,-84,-9,997,-16,24,0
205,-150,-17,978,-17,12,-2
206,-114,-20,995,-16,-6,-8
207,0,-32,1001,-14,-23,-11
208,107,-23,1006,-12,-21,-13
209,137,-8,1003,-11,-4,-9
210,47,-4,1004,-14,17,-3
211,-65,-12,996,-17,26,-1
212,-149,-11,979,-19,18,0
213,-123,-24,998,-16,-4,-5
214,-27,-34,1003,-15,-21,-11
215,100,-25,1001,-11,-23,-13
216,136,-12,1006,-12,-9,-10
217,68,-6,1006,-14,15,-5
218,-41,-8,995,-18,26,-1
219,-143,-9,973,-19,19,1
220,-133,-26,998,-17,-1,-5
221,-47,-35,993,-15,-20,-10
222,85,-20,1011,-11,-24,-13
223,136,-13,1006,-13,-10,-11
224,82,-11,1000,-12,11,-5
225,-23,-1,996,-15,24,-1
226,-135,-9,985,-18,22,1
227,-139,-26,993,-17,3,-5
228,-71,-32,986,-15,-17,-9
229,71,-20,1007,-11,-26,-13
230,128,-24,1013,-13,-14,-12
231,100,-9,1007,-11,9,-6
232,-6,0,994,-15,25,-2
233,-123,-9,985,-18,24,1
234,-147,-29,994,-19,6,-3
235,-84,-25,984,-16,-14,-8
236,51,-27,1007,-13,-25,-13
237,119,-25,1009,-11,-16,-11
238,111,-5,1005,-11,4,-6
239,16,-2,1002,-15,21,-3
240,-108,-8,995,-18,24,2
241,-148,-22,983,-18,10,-2
242,-95,-24,986,-15,-11,-7
243,28,-30,1010,-14,-24,-11
244,109,-28,1002,-11,-18,-11
245,126,-7,1004,-10,1,-8
246,30,-4,1004,-14,21,-4
247,-91,-8,998,-16,25,0
248,-149,-15,978,-19,12,0
249,-107,-22,989,-17,-8,-6
250,1,-36,1003,-15,-22,-11
251,108,-25,1008,-13,-19,-13
252,135,-10,1002,-10,-3,-10
253,43,-2,1002,-12,18,-4
254,-66,-9,997,-16,26,1
255,-149,-10,979,-19,16,-1
256,-123,-23,998,-18,-5,-5
257,-21,-32,1002,-15,-22,-11
258,100,-24,999,-11,-22,-12
259,138,-12,1009,-9,-5,-11
260,62,-5,1004,-12,16,-4
261,-47,-7,997,-15,25,0
262,-146,-9,973,-19,19,0
263,-132,-23,1000,-16,-2,-5
264,-44,-33,994,-16,-20,-10
265,88,-20,1011,-12,-23,-12
266,141,-16,1003,-10,-10,-11
267,80,-12,1001,-12,13,-4
268,-25,-2,996,-15,25,-2
269,-140,-9,985,-19,22,2
270,-137,-25,992,-17,3,-4
271,-64,-34,991,-16,-16,-10
272,77,-18,1009,-13,-25,-12
273,128,-20,1010,-11,-12,-12
274,95,-9,1007,-12,9,-5
275,-10,-2,994,-15,23,0
276,-123,-10,984,-17,23,2
277,-147,-29,995,-19,5,-3
278,-79,-29,983,-16,-16,-8
279,58,-22,1003,-13,-24,-12
280,121,-23,1011,-11,-14,-12
281,112,-3,1009,-12,5,-7
282,7,0,996,-16,22,-2
283,-115,-8,994,-19,26,2
284,-151,-30,987,-20,9,-2
285,-93,-27,985,-17,-12,-7
286,39,-28,1008,-13,-25,-13
287,112,-28,1005,-11,-17,-13
288,123,-1,1001,-8,1,-8
289,26,0,1008,-14,21,-3
290,-96,-12,999,-18,26,2
291,-149,-20,973,-20,12,0
292,-111,-26,990,-16,-9,-6
293,15,-31,1005,-13,-25,-12
294,108,-24,1008,-12,-20,-13
295,133,-5,999,-12,-2,-9
296,39,-6,1004,-13,18,-4
297,-78,-11,997,-16,25,0
298,-149,-15,975,-19,15,1
299,-116,-25,1004,-17,-6,-6
300,-11,-33,997,-14,-24,-10
301,104,-25,1001,-12,-22,-11
302,137,-10,1009,-10,-7,-9
303,56,-5,1004,-13,14,-2
304,-55,-11,997,-17,25,0
305,-146,-8,977,-16,19,0
306,-128,-26,997,-16,-3,-4
307,-36,-34,998,-15,-21,-11
308,92,-24,1005,-11,-24,-12
309,136,-15,1005,-11,-8,-10
310,77,-10,1001,-11,14,-4
311,-38,-4,997,-15,25,-1
312,-140,-5,978,-19,21,2
313,-135,-25,995,-16,2,-4
314,-60,-32,991,-15,-19,-10
315,77,-21,1011,-12,-25,-12
316,134,-18,1010,-11,-13,-12
317,87,-11,1003,-12,9,-4
318,-12,-4,991,-14,24,-1
319,-130,-8,992,-19,22,2
320,-141,-24,989,-19,4,-4
321,-81,-30,986,-16,-15,-9
322,65,-20,1005,-12,-26,-12
323,121,-26,1013,-12,-14,-12
324,109,-11,1006,-13,6,-5
325,0,0,997,-14,22,-1
326,-116,-8,987,-18,24,1
327,-152,-25,990,-18,6,-2
328,-86,-19,990,-15,-14,-8
329,43,-28,1008,-14,-24,-11
330,118,-29,1005,-11,-17,-11
331,120,-13,1003,-10,3,-7
332,20,-4,1003,-15,22,-2
333,-101,-12,998,-16,27,1
334,-153,-15,978,-18,10,-3
335,-101,-20,988,-16,-11,-7
336,19,-25,1010,-11,-25,-12
337,107,-24,1007,-12,-19,-12
338,133,-9,1005,-13,-1,-9
339,30,-10,999,-16,20,-3
340,-82,-13,995,-15,24,0
341,-153,-21,981,-17,14,-1
342,-115,-20,991,-15,-7,-7
343,-5,-29,1003,-13,-24,-11
344,104,-18,1005,-24,-10,-7
345,134,-9,1005,-17,-3,-8
346,50,-6,1000,-15,17,-4
347,-62,-16,999,-17,27,0
348,-149,-15,973,-17,19,1
349,-126,-26,998,-16,-4,-4
350,-29,-29,999,-13,-22,-10
351,96,-18,1004,-10,-23,-12
352,136,-10,1006,-10,-8,-10
353,68,-5,1008,-13,14,-4
354,-40,-10,995,-16,25,-2
355,-142,-7,977,-16,21,1
356,-132,-28,994,-18,1,-3
357,-53,-30,998,-13,-17,-8
358,84,-21,1006,-13,-24,-13
359,134,-15,1008,-12,-12,-10
360,85,-13,1003,-14,10,-4
361,-21,-2,994,-16,24,-1
362,-132,-9,990,-18,22,1
363,-141,-25,990,-16,3,-4
364,-71,-31,984,-15,-17,-9
365,64,-21,1004,-9,-27,-13
366,124,-19,1017,-11,-14,-11
367,105,-10,1006,-12,7,-6
368,0,0,993,-13,22,-2
369,-118,-7,988,-16,24,1
370,-147,-31,991,-17,7,-3
371,-88,-26,988,-15,-13,-8
372,51,-25,1005,-13,-24,-12
373,116,-23,1008,-11,-15,-12
374,117,-5,1005,-10,2,-7
375,14,-2,1003,-15,22,-2
376,-103,-10,997,-17,25,1
377,-150,-21,982,-17,11,-1
378,-97,-22,987,-17,-10,-8
379,26,-30,1007,-14,-25,-13
380,105,-24,1006,-11,-18,-13
381,127,-6,1003,-12,0,-8
382,32,-3,1004,-14,22,-3
383,-82,-10,998,-16,26,1
384,-151,-16,977,-18,14,-1
385,-111,-23,991,-16,-7,-7
386,1,-29,1006,-14,-23,-11
387,103,-25,1004,-12,-20,-12
388,134,-9,1006,-12,-4,-10
389,48,-5,999,-14,17,-4
390,-67,-15,997,-15,26,0
391,-147,-10,975,-18,15,0
392,-123,-24,1000,-15,-5,-5
393,-22,-29,999,-13,-21,-11
394,96,-22,1001,-11,-22,-13
395,137,-12,1007,-12,-8,-11
396,67,-11,1006,-14,15,-2
397,-37,-14,995,-14,24,2
398,-146,-5,978,-16,20,-1
399,-141,-30,992,-17,-1,-5
400,-50,-30,1000,-15,-21,-8
401,85,-22,1008,-13,-24,-12
402,139,-16,1007,-10,-11,-10
403,87,-11,1003,-12,12,-4
404,-29,-11,994,-14,25,-2
405,-136,-9,985,-18,23,3
406,-139,-27,992,-18,2,-4
407,-70,-31,988,-15,-17,-8
408,74,-16,1006,-11,-25,-11
409,130,-18,1014,-13,-13,-10
410,92,-9,1003,-14,9,-5
411,-9,-5,994,-14,24,-2
412,-125,-11,990,-17,23,1
413,-145,-28,989,-19,4,-1
414,-80,-26,986,-15,-15,-9
415,52,-22,1003,-12,-25,-12
416,119,-19,1010,-11,-13,-12
417,108,-5,1009,-11,4,-6
418,7,-3,995,-16,21,-2
419,-109,-14,996,-18,24,0
420,-147,-25,985,-19,9,-2
421,-95,-24,987,-16,-11,-8
422,37,-25,1008,-12,-24,-14
423,107,-26,1003,-12,-16,-12
424,127,-5,1003,-10,1,-8
425,25,-5,1006,-14,20,-3
426,-94,-11,999,-16,26,1
427,-149,-20,976,-18,13,-1
428,-112,-21,989,-16,-8,-6
429,9,-31,1008,-13,-24,-11
430,107,-22,1006,-12,-19,-13
431,134,-5,1006,-12,-2,-10
432,43,-3,1001,-13,18,-3
433,-73,-14,996,-17,26,0
434,-148,-16,977,-18,16,0
435,-121,-24,998,-15,-5,-5
436,-19,-33,999,-15,-22,-11
437,103,-22,1003,-11,-24,-13
438,137,-11,1006,-10,-7,-10
439,62,-2,1005,-14,16,-4
440,-52,-14,997,-18,28,-1
441,-148,-13,971,-19,18,0
442,-130,-26,998,-16,-3,-5
443,-40,-33,997,-16,-21,-10
444,91,-22,1007,-12,-24,-12
445,138,-10,1006,-10,-8,-10
446,77,-7,1001,-14,12,-4
447,-35,-10,996,-14,25,-1
448,-144,-12,980,-18,22,2
449,-139,-27,995,-16,2,-4
450,-62,-32,992,-15,-18,-9
451,77,-19,1005,-12,-24,-13
452,130,-16,1010,-11,-12,-12
453,91,-12,1002,-13,10,-6
454,-16,-5,1000,-15,25,-1
455,-128,-10,985,-17,24,1
456,-145,-29,996,-17,5,-3
457,-77,-29,983,-16,-16,-7
458,59,-19,1004,-10,-26,-12
459,125,-20,1014,-12,-14,-12
460,104,-10,1008,-12,7,-5
461,2,0,992,-14,24,-1
462,-119,-12,992,-17,24,2
463,-149,-28,987,-17,8,-2
464,-89,-27,988,-16,-11,-7
465,44,-27,1008,-10,-24,-12
466,116,-20,1001,-10,-16,-12
467,122,-6,1008,-12,3,-8
468,24,-1,1000,-16,22,-2
469,-103,-12,999,-17,26,2
470,-150,-21,978,-16,12,-1
471,-105,-26,987,-15,-9,-6
472,18,-28,1006,-13,-25,-12
473,108,-29,1010,-11,-19,-12
474,134,-4,999,-12,-2,-8
475,35,-2,1002,-14,20,-3
476,-84,-10,1001,-16,26,1
477,-151,-18,976,-19,14,-1
478,-115,-27,995,-16,-6,-7
479,-7,-33,1004,-14,-23,-11
480,105,-26,1004,-10,-22,-12
481,138,-8,1003,-9,-6,-9
482,51,-1,1005,-13,16,-4
483,-59,-10,997,-16,25,0
484,-152,-11,975,-18,17,1
485,-123,-24,998,-17,-4,-5
486,-34,-34,998,-16,-21,-10
487,97,-24,1002,-10,-24,-12
488,140,-14,1006,-11,-9,-10
489,69,-8,1004,-13,14,-4
490,-40,-8,997,-16,26,0
491,-144,-10,975,-18,21,1
492,-137,-23,994,-17,0,-4
493,-51,-33,998,-15,-18,-9
494,83,-20,1007,-13,-24,-13
495,137,-15,1006,-13,-10,-11
496,86,-11,1003,-11,11,-5
497,-22,-6,995,-16,25,-1
498,-137,-7,989,-17,23,1
499,-140,-28,990,-17,4,-3
500,-74,-32,986,-15,-17,-8
501,68,-20,1007,-11,-26,-12
502,129,-18,1012,-11,-12,-11
503,98,-13,1008,-13,9,-5
504,-4,-1,994,-13,24,-1
505,-120,-10,985,-17,24,3
506,-148,-27,994,-19,6,-3
507,-85,-27,983,-16,-13,-8
508,49,-26,1004,-11,-25,-12
509,122,-22,1010,-11,-15,-12
510,111,-5,1007,-11,4,-6
511,16,-1,997,-14,23,-1
512,-111,-12,996,-18,25,2
513,-148,-25,981,-18,9,-2
514,-95,-25,990,-17,-11,-7
515,31,-23,1008,-11,-25,-12
516,112,-25,1003,-13,-18,-12
517,125,-7,1006,-11,0,-7
518,27,-2,998,-14,20,-2
519,-90,-12,1005,-16,25,1
520,-151,-20,975,-18,14,1
521,-110,-23,987,-15,-8,-5
522,7,-35,1008,-13,-24,-11
523,107,-21,1007,-11,-20,-12
524,137,-8,1001,-11,-2,-9
525,46,-3,1001,-13,18,-3
526,-73,-13,999,-17,25,2
527,-150,-15,973,-17,16,0
528,-120,-27,1001,-16,-5,-5
529,-18,-29,1000,-13,-22,-10
530,103,-22,1003,-10,-22,-12
531,138,-9,1006,-10,-6,-9
532,57,-3,1006,-15,17,-3
533,-51,-12,996,-16,27,-1
534,-149,-10,973,-18,18,0
535,-126,-26,998,-17,-3,-5
536,-41,-34,998,-15,-20,-9
537,91,-20,1004,-11,-23,-12
538,136,-12,1008,-11,-9,-10
539,76,-5,999,-13,13,-5
540,-32,-7,996,-17,25,0
541,-140,-10,983,-20,21,1
542,-135,-28,992,-19,1,-4
543,-62,-36,991,-15,-16,-11
544,74,-10,1011,-11,-24,-12
545,133,-14,1011,-13,-13,-11
546,88,-11,1003,-13,10,-5
547,-10,-5,989,-16,24,0
548,-130,-10,993,-16,21,1
549,-141,-31,989,-19,4,-4
550,-79,-25,986,-14,-15,-9
551,59,-19,1003,-10,-25,-13
552,118,-20,1013,-11,-14,-12
553,108,-3,1011,-13,6,-6
554,5,-4,995,-16,23,-1
555,-113,-12,990,-18,24,1
556,-149,-31,990,-16,8,-3
557,-91,-26,986,-16,-12,-8
558,42,-26,1006,-12,-25,-11
559,111,-21,1008,-11,-16,-10
560,123,-3,1005,-12,2,-7
561,23,-5,1002,-14,22,-2
562,-97,-14,998,-17,26,3
563,-149,-21,979,-18,11,-2
564,-102,-26,987,-16,-9,-7
565,22,-27,1005,-12,-25,-11
566,108,-23,1009,-11,-18,-12
567,126,-3,1001,-11,0,-8
568,31,-3,1000,-15,21,-3
569,-86,-15,999,-17,26,1
570,-148,-23,977,-19,13,-2
571,-110,-26,995,-16,-6,-6
572,2,-33,1003,-13,-22,-11
573,103,-16,1007,-10,-19,-12
574,130,-4,1003,-11,-5,-9
575,42,-6,1002,-15,17,-2
576,-64,-19,998,-16,25,1
577,-142,-22,973,-18,17,0
578,-115,-28,999,-15,-2,-4
579,-24,-33,999,-11,-19,-10
580,90,-14,1002,-9,-19,-12
581,128,-6,1010,-10,-6,-10
582,53,-4,1003,-14,15,-5
583,-44,-10,999,-15,24,-2
584,-139,-16,976,-17,17,1
585,-118,-32,995,-17,-2,-5
586,-35,-35,1000,-13,-18,-10
587,84,-20,1008,-10,-21,-12
588,124,-11,1008,-11,-6,-11
589,68,-3,1003,-11,12,-5
590,-35,-1,994,-15,22,0
591,-130,-6,984,-18,20,0
592,-123,-32,998,-17,2,-3
593,-51,-38,984,-15,-16,-9
594,73,-21,1009,-9,-22,-12
595,117,-18,1016,-9,-9,-9
596,77,0,1006,-10,9,-4
597,-18,1,991,-15,23,-1
598,-120,-5,989,-18,19,3
599,-127,-34,993,-19,2,-2
600,-64,-33,988,-16,-15,-6
601,60,-27,1007,-11,-22,-10
602,107,-21,1008,-10,-11,-9
603,89,-3,1011,-9,8,-4
604,-5,3,995,-15,20,-1
605,-111,-8,992,-18,21,1
606,-126,-25,988,-18,6,-2
607,-74,-28,989,-17,-12,-6
608,42,-32,1004,-12,-23,-10
609,98,-30,1007,-11,-14,-10
610,102,-3,999,-9,4,-7
611,7,-4,1002,-15,22,-3
612,-92,-8,996,-16,22,1
613,-134,-22,981,-17,8,-3
614,-89,-26,989,-18,-10,-6
615,14,-40,1008,-12,-21,-11
616,98,-29,1005,-12,-16,-12
617,110,-7,1002,-9,1,-8
618,23,0,999,-13,18,-5
619,-79,-9,999,-15,21,-3
620,-135,-14,974,-16,12,-3
621,-97,-23,1003,-16,-6,-6
622,-1,-35,1000,-12,-20,-12
623,94,-26,1001,-11,-17,-13
624,122,-16,1007,-8,-2,-11
625,35,0,1003,-12,19,-4
626,-60,-1,995,-15,25,-2
627,-138,-2,976,-17,15,-3
628,-108,-24,997,-18,-5,-6
629,-23,-41,1001,-16,-20,-10
630,92,-27,1005,-11,-20,-12
631,121,-19,1004,-9,-5,-11
632,49,-5,1002,-9,14,-5
633,-45,-1,994,-14,22,-3
634,-133,-1,981,-18,17,-1
635,-113,-28,995,-18,-3,-6
636,-42,-37,994,-17,-18,-10
637,80,-27,1008,-12,-21,-13
638,114,-23,1010,-9,-9,-11
639,68,-7,1001,-11,11,-5
640,-27,1,996,-16,22,-3
641,-124,0,987,-19,19,-1
642,-116,-24,995,-19,1,-4
643,-55,-34,986,-18,-16,-10
644,69,-33,1006,-12,-23,-13
645,109,-26,1009,-11,-10,-12
646,81,-6,1009,-10,9,-8
647,-14,5,990,-13,22,-3
648,-114,-1,991,-17,21,0
649,-122,-25,990,-18,4,-2
650,-67,-29,994,-15,-14,-7
651,56,-34,1000,-12,-24,-11
652,99,-33,1009,-7,-12,-11
653,94,-4,1000,-7,5,-5
654,0,2,1002,-13,22,-2
655,-99,-2,1001,-17,22,1
656,-130,-18,978,-20,7,-1
657,-76,-25,990,-18,-12,-6
658,33,-39,1008,-13,-23,-11
659,98,-33,1002,-9,-14,-11
660,110,-11,1002,-9,3,-8
661,15,2,1002,-12,19,-2
662,-90,-3,994,-15,23,1
663,-135,-10,978,-19,10,-2
664,-92,-21,998,-18,-8,-6
665,12,-39,999,-15,-22,-12
666,99,-36,1010,-12,-17,-12
667,119,-13,1003,-9,-1,-10
668,23,-3,999,-11,17,-4
669,-72,-1,994,-15,23,0
670,-137,-4,979,-18,14,-2
671,-102,-19,1001,-18,-6,-7
672,-4,-38,999,-16,-20,-10
673,99,-33,1003,-10,-19,-13
674,118,-22,1004,-10,-3,-8
675,41,-4,1005,-12,17,-4
676,-59,-1,994,-15,23,-2
677,-136,-4,974,-19,15,-1
678,-104,-20,999,-18,-4,-4
679,-25,-40,1000,-15,-18,-10
680,92,-28,1004,-11,-20,-11
681,114,-19,1009,-6,-7,-11
682,58,-6,996,-7,11,-7
683,-43,0,996,-15,22,-2
684,-131,2,982,-18,17,0
685,-117,-28,997,-16,-1,-5
686,-43,-33,989,-15,-18,-10
687,74,-27,1007,-11,-21,-14
688,115,-25,1013,-9,-8,-12
689,69,-11,1007,-10,10,-5
690,-24,4,988,-14,22,-3
691,-121,-1,988,-18,20,-1
692,-116,-23,996,-17,2,-4
693,-61,-29,986,-16,-14,-8
694,65,-33,1006,-12,-22,-12
695,103,-28,1009,-12,-9,-10
696,84,-8,1004,-9,7,-6
697,-10,0,996,-13,21,-3
698,-108,-1,991,-17,21,1
699,-127,-19,988,-19,6,-2
700,-66,-27,991,-16,-11,-7
701,49,-32,1006,-12,-22,-11
702,99,-33,1001,-10,-12,-11
703,99,-5,1004,-9,3,-8
704,3,-1,1000,-14,20,-3
705,-102,-3,996,-16,23,0
706,-132,-14,983,-18,7,-2
707,-77,-23,987,-16,-11,-6
708,27,-35,1011,-13,-21,-11
709,100,-34,1008,-12,-15,-11
710,108,-7,1002,-10,2,-6
711,14,0,998,-13,19,-2
712,-83,0,998,-15,23,0
713,-132,-11,978,-18,11,-2
714,-90,-24,999,-17,-7,-5
715,6,-42,1001,-14,-20,-9
716,97,-31,1002,-11,-18,-11
717,113,-11,1006,-10,-2,-7
718,28,0,1002,-12,17,-3
719,-67,-2,996,-16,23,0
720,-131,-7,975,-19,12,1
721,-97,-27,1001,-19,-7,-3
722,-8,-40,998,-16,-20,-8
723,87,-29,1006,-11,-18,-11
724,115,-18,1002,-9,-4,-9
725,39,-4,1003,-9,16,-3
726,-48,5,993,-15,22,0
727,-130,-1,978,-20,15,0
728,-103,-27,998,-18,-3,-5
729,-34,-37,997,-15,-16,-8
730,80,-32,1010,-11,-19,-11
731,110,-22,1005,-10,-5,-9
732,51,-5,1000,-11,13,-4
733,-34,2,992,-14,22,-2
734,-121,-3,988,-18,18,-1
735,-110,-25,997,-18,0,-4
736,-46,-34,985,-15,-16,-8
737,72,-24,1006,-12,-21,-12
738,105,-29,1014,-10,-7,-10
739,68,-8,1007,-11,10,-5
740,-23,0,989,-14,21,-1
741,-115,-3,988,-16,19,1
742,-120,-21,995,-18,1,-4
743,-58,-26,991,-16,-13,-9
744,61,-28,1006,-13,-21,-11
745,99,-32,1009,-12,-9,-12
746,82,-7,1004,-9,7,-6
747,-4,0,998,-13,20,-3
748,-102,-1,996,-16,22,1
749,-124,-19,985,-18,6,-2
750,-70,-26,990,-18,-12,-7
751,38,-38,1004,-13,-23,-11
752,96,-33,1005,-9,-14,-12
753,98,-4,1001,-9,3,-8
754,6,0,998,-13,20,-5
755,-94,-3,1002,-16,22,-1
756,-126,-15,975,-19,9,-3
757,-82,-23,997,-17,-9,-7
758,21,-40,1002,-15,-21,-11
759,99,-31,1007,-11,-15,-12
760,107,-8,1002,-9,0,-8
761,18,-2,999,-11,18,-4
762,-76,-3,996,-15,21,0
763,-131,-7,978,-19,11,-1
764,-92,-23,1002,-17,-7,-7
765,0,-39,1002,-15,-20,-11
766,96,-28,1002,-10,-17,-11
767,112,-15,1006,-8,-2,-9
768,30,-2,1002,-13,17,-3
769,-65,-1,993,-15,22,-1
770,-130,-4,976,-17,13,-1
771,-101,-23,1000,-18,-6,-5
772,-13,-36,1000,-16,-20,-11
773,88,-29,1010,-11,-18,-10
774,111,-18,1002,-10,-4,-8
775,42,-8,1002,-11,15,-3
776,-48,2,993,-13,22,-2
777,-130,0,981,-17,15,1
778,-104,-23,999,-17,-3,-3
779,-34,-39,994,-16,-17,-7
780,79,-25,1008,-11,-20,-10
781,109,-22,1008,-10,-7,-8
782,57,-6,1004,-10,13,-3
783,-34,2,989,-14,22,-2
784,-121,-1,986,-18,17,1
785,-109,-22,999,-19,0,-4
786,-45,-30,988,-17,-15,-7
787,69,-31,1004,-12,-20,-11
788,100,-29,1014,-10,-8,-11
789,70,-8,1006,-10,9,-5
790,-19,3,993,-14,21,-2
791,-111,-2,988,-18,20,0
792,-115,-20,993,-17,3,-4
793,-56,-27,990,-17,-13,-6
794,52,-32,1004,-15,-21,-10
795,95,-33,1006,-11,-12,-10
796,82,-8,1000,-9,4,-7
797,-4,2,998,-14,19,-3
798,-99,-2,1001,-16,21,0
799,-121,-14,980,-19,6,-2
800,-65,-22,991,-16,-13,-5
801,31,-33,1008,-13,-21,-11
802,92,-32,1009,-12,-13,-10
803,99,-10,1000,-11,3,-7
804,5,3,999,-12,19,-3
805,-84,-1,995,-17,21,-1
806,-130,-10,981,-20,7,-3
807,-83,-25,998,-17,-9,-6
808,13,-45,1004,-15,-20,-10
809,95,-30,1003,-10,-15,-12
810,104,-12,1006,-9,-1,-9
811,20,1,1001,-14,18,-4
812,-73,0,992,-17,23,0
813,-128,-6,977,-19,12,-2
814,-89,-25,1004,-17,-7,-6
815,-7,-40,999,-15,-20,-10
816,91,-30,1003,-10,-19,-10
817,111,-18,1005,-10,-3,-9
818,31,-4,1002,-12,16,-4
819,-57,-1,995,-15,22,-2
820,-125,0,975,-18,14,-1
821,-101,-21,998,-17,-5,-5
822,-22,-36,999,-16,-19,-8
823,84,-33,1011,-13,-19,-12
824,107,-22,1002,-11,-5,-10
825,47,-10,1004,-9,13,-4
826,-39,0,989,-14,22,-3
827,-124,0,989,-17,16,1
828,-103,-19,996,-18,-1,-4
829,-39,-34,991,-19,-16,-8
830,75,-25,1004,-12,-20,-11
831,101,-27,1015,-11,-7,-8
832,63,-12,1006,-10,10,-5
833,-26,2,989,-13,21,-3
834,-114,0,984,-17,17,1
835,-111,-23,1003,-18,0,-3
836,-52,-26,984,-16,-16,-7
837,60,-33,1005,-14,-19,-10
838,99,-33,1010,-11,-9,-11
839,73,-5,1004,-9,9,-5
840,-10,0,995,-11,20,-3
841,-107,0,992,-16,20,1
842,-115,-19,988,-18,5,-3
843,-63,-25,988,-19,-12,-7
844,45,-33,1009,-14,-22,-10
845,98,-32,1001,-10,-12,-10
846,91,-7,1003,-9,4,-8
847,-3,1,1000,-13,20,-2
848,-94,-3,1000,-16,21,0
849,-123,-15,977,-19,6,-4
850,-73,-23,993,-17,-9,-6
851,30,-35,1008,-14,-20,-10
852,96,-31,1006,-12,-13,-11
853,99,-8,1004,-11,2,-7
854,9,-2,997,-11,19,-4
855,-79,-4,995,-15,21,-1
856,-127,-8,979,-20,8,-2
857,-80,-21,1001,-18,-8,-6
858,6,-40,1001,-16,-21,-10
859,93,-29,1000,-11,-16,-11
860,102,-18,1004,-9,-1,-8
861,22,-4,1002,-13,16,-3
862,-63,-5,995,-15,20,-2
863,-125,-6,977,-17,11,-2
864,-89,-20,1001,-18,-7,-5
865,-11,-37,1003,-17,-19,-9
866,82,-28,1002,-12,-17,-11
867,102,-20,1004,-10,-4,-10
868,39,-9,1000,-11,13,-5
869,-51,0,997,-13,21,-1
870,-118,-2,978,-19,14,-1
871,-100,-22,1003,-17,-3,-4
872,-33,-33,991,-16,-17,-8
873,78,-28,1011,-12,-20,-13
874,103,-25,1009,-11,-6,-9
875,53,-11,996,-11,12,-4
876,-31,2,997,-13,22,-1
877,-116,-1,984,-17,17,0
878,-108,-21,999,-19,0,-5
879,-47,-31,986,-17,-17,-8
880,70,-29,1004,-12,-20,-11
881,103,-27,1013,-11,-8,-10
882,67,-4,1009,-11,10,-5
883,-16,3,989,-16,20,-3
884,-113,0,990,-18,17,1
885,-117,-24,992,-20,2,-4
886,-57,-30,990,-17,-15,-7
887,59,-35,1005,-13,-20,-11
888,97,-32,1007,-11,-10,-10
889,80,-5,1006,-9,5,-6
890,-5,3,996,-12,19,-3
891,-107,0,996,-18,21,0
892,-121,-16,985,-18,5,-3
893,-66,-26,990,-18,-11,-7
894,39,-37,1003,-15,-22,-11
895,98,-31,1009,-12,-13,-10
896,93,-5,999,-11,4,-7
897,0,1,998,-14,20,-3
898,-91,0,1001,-16,21,1
899,-127,-12,976,-19,7,-2
900,-78,-23,994,-18,-10,-7
901,21,-38,1009,-15,-22,-11
902,97,-33,1000,-12,-15,-10
903,103,-12,1003,-10,2,-7
904,14,-3,1001,-12,18,-3
905,-75,0,994,-16,20,-1
906,-129,-4,979,-19,11,0
907,-86,-24,1003,-20,-8,-5
908,1,-36,1000,-17,-20,-9
909,91,-31,1002,-12,-17,-11
910,109,-14,1006,-10,-2,-9
911,28,-5,1002,-14,16,-5
912,-58,0,993,-17,21,-2
913,-130,-1,979,-18,14,-1
914,-99,-22,996,-19,-6,-5
915,-20,-36,1002,-16,-19,-8
916,84,-32,1006,-14,-20,-11
917,111,-22,1005,-10,-4,-10
918,45,-13,1001,-11,14,-5
919,-44,3,992,-13,22,-2
920,-121,0,985,-19,15,-1
921,-105,-20,996,-17,-2,-4
922,-40,-31,994,-17,-17,-7
923,79,-28,1008,-13,-21,-11
924,104,-26,1007,-11,-8,-10
925,62,-8,1003,-11,9,-7
926,-28,-1,994,-15,21,-3
927,-115,0,986,-18,18,1
928,-112,-20,1002,-18,0,-4
929,-51,-31,984,-17,-16,-8
930,65,-28,1004,-14,-22,-11
931,103,-30,1014,-12,-10,-11
932,74,-10,1004,-10,8,-7
933,-11,0,993,-15,20,-4
934,-112,-3,990,-17,18,-1
935,-117,-19,992,-19,2,-4
936,-64,-23,994,-20,-13,-7
937,49,-33,1003,-14,-22,-11
938,95,-31,1006,-12,-12,-10
939,88,-12,1000,-11,5,-7
940,0,-2,1000,-14,20,-4
941,-96,-5,999,-17,21,1
942,-128,-15,980,-19,7,-3
943,-74,-22,992,-19,-10,-7
944,32,-36,1005,-16,-21,-11
945,92,-34,1007,-13,-13,-12
946,105,-10,1002,-10,1,-7
947,9,-7,999,-14,19,-2
948,-84,-2,996,-15,21,-1
949,-130,-9,982,-18,9,-2
950,-83,-17,995,-19,-10,-6
951,8,-34,1004,-16,-20,-10
952,93,-32,1007,-14,-16,-12
953,111,-18,1003,-13,-2,-9
954,26,-8,998,-11,17,-3
955,-69,-8,997,-14,22,0
956,-132,0,978,-17,11,-2
957,-101,-19,1000,-18,-7,-4
958,-12,-27,1002,-17,-21,-9
959,90,-29,999,-13,-19,-10
960,117,-21,1006,-11,-4,-9
961,46,-13,1004,-14,16,-4
962,-51,-8,995,-14,24,-1
963,-135,-3,975,-16,17,1
964,-113,-18,996,-17,-3,-5
965,-34,-32,1003,-17,-18,-10
966,84,-26,1005,-14,-20,-12
967,121,-18,1005,-11,-6,-12
968,62,-16,1003,-12,12,-5
969,-37,-1,994,-14,22,-1
970,-131,-4,985,-17,20,1
971,-122,-22,996,-19,1,-4
972,-50,-27,990,-17,-16,-9
973,74,-21,1007,-13,-21,-14
974,112,-23,1009,-12,-10,-11
975,79,-16,1005,-14,9,-6
976,-19,-10,990,-15,21,-2
977,-122,-5,986,-16,19,2
978,-124,-26,1000,-17,1,-3
979,-66,-20,981,-15,-16,-7
980,58,-23,1007,-14,-24,-11
981,115,-26,1012,-12,-11,-12
982,90,-18,1004,-12,9,-6
983,0,-1,991,-12,23,-3
984,-114,-13,996,-16,21,2
985,-139,-14,983,-17,6,-3
986,-78,-21,997,-15,-12,-8
987,43,-23,1004,-15,-24,-11
988,107,-26,1006,-13,-14,-11
989,111,-14,1003,-11,3,-7
990,11,-11,998,-15,21,-2
991,-97,-11,1000,-16,23,-1
992,-142,-18,982,-17,9,-3
993,-90,-15,986,-14,-11,-6
994,23,-24,1010,-14,-23,-11
995,104,-20,1005,-13,-17,-12
996,121,-11,1002,-13,1,-9
997,24,-14,999,-13,19,-3
998,-86,-17,998,-14,25,0
999,-141,-18,978,-17,13,-2
1000,-103,-20,997,-14,-7,-6
1001,3,-28,1003,-13,-22,-11
1002,99,-21,1003,-11,-19,-12
1003,123,-9,1006,-11,-4,-9
1004,38,-11,1002,-16,16,-4
1005,-65,-14,997,-14,24,0
1006,-140,-12,976,-16,16,0
1007,-110,-24,998,-15,-5,-6
1008,-23,-31,1000,-15,-21,-9
1009,90,-18,1002,-12,-20,-12
1010,128,-14,1009,-12,-7,-10
1011,54,-8,1003,-14,14,-5
1012,-47,-8,998,-16,25,-1
1013,-136,-12,974,-18,16,1
1014,-118,-26,999,-16,-3,-5
1015,-42,-30,999,-13,-19,-10
1016,84,-22,1007,-16,-26,-14
1017,123,-16,1009,-13,-13,-11
1018,67,-9,995,-10,12,-5
1019,-32,-5,997,-16,23,-2
1020,-131,-7,985,-17,19,0
1021,-123,-26,994,-17,0,-4
1022,-55,-33,991,-16,-18,-9
1023,71,-21,1005,-11,-23,-13
1024,119,-22,1011,-11,-10,-10
1025,79,-11,1009,-12,10,-5
1026,-13,-4,991,-14,22,-2
1027,-121,-7,987,-19,22,2
1028,-129,-23,995,-19,3,-2
1029,-72,-30,986,-17,-14,-7
1030,60,-25,1003,-13,-23,-12
1031,108,-24,1011,-11,-11,-11
1032,100,-6,1006,-10,7,-7
1033,2,-4,996,-14,21,-3
1034,-109,-10,992,-16,22,2
1035,-133,-20,990,-18,7,-3
1036,-83,-26,993,-17,-12,-7
1037,37,-25,1003,-13,-23,-11
1038,110,-26,1006,-12,-15,-12
1039,112,-7,1003,-11,2,-8
1040,18,-4,998,-17,21,-3
1041,-97,-12,1005,-16,24,1
1042,-142,-17,974,-17,11,-1
1043,-95,-21,991,-16,-10,-7
1044,18,-33,1008,-14,-24,-11
1045,107,-27,1004,-13,-18,-10
1046,126,-12,1005,-11,-1,-9
1047,25,-6,995,-13,20,-3
1048,-82,-6,1001,-16,23,1
1049,-145,-13,976,-19,12,0
1050,-108,-21,997,-17,-7,-6
1051,1,-32,1003,-14,-22,-11
1052,100,-26,1004,-12,-20,-12
1053,126,-9,1002,-11,-4,-10
1054,37,-10,1006,-14,17,-5
1055,-67,-8,997,-14,25,0
1056,-141,-10,975,-18,16,1
1057,-111,-18,1001,-16,-4,-5
1058,-21,-31,1000,-16,-21,-9
1059,94,-22,1005,-11,-20,-12
1060,126,-19,1005,-11,-5,-10
1061,53,-7,1005,-13,15,-5
1062,-44,-8,993,-14,25,-2
1063,-136,-6,978,-18,18,1
1064,-115,-21,994,-17,-1,-4
1065,-44,-32,998,-14,-17,-9
1066,83,-20,1007,-12,-22,-11
1067,124,-21,1007,-11,-8,-11
1068,68,-15,999,-10,13,-4
1069,-27,-5,992,-14,24,-2
1070,-125,-4,987,-17,19,0
1071,-130,-24,994,-18,1,-3
1072,-62,-29,986,-15,-17,-8
1073,67,-22,1008,-13,-24,-12
1074,124,-24,1010,-10,-11,-11
1075,85,-14,1009,-11,8,-6
1076,-10,-3,990,-14,22,-2
1077,-119,-3,990,-15,22,2
1078,-136,-23,993,-18,5,-2
1079,-73,-19,986,-17,-15,-7
1080,59,-26,1006,-14,-23,-11
1081,112,-22,1009,-11,-14,-10
1082,100,-8,1005,-11,5,-5
1083,2,-8,999,-15,21,-2
1084,-111,-7,992,-17,23,2
1085,-139,-18,987,-17,7,-2
1086,-78,-24,990,-16,-13,-7
1087,36,-29,1006,-14,-24,-11
1088,108,-30,1006,-11,-16,-11
1089,108,-10,1003,-9,4,-6
1090,15,-3,1000,-14,22,-3
1091,-96,-8,1002,-16,25,0
1092,-138,-14,979,-19,11,-1
1093,-92,-22,988,-17,-9,-5
1094,18,-33,1008,-13,-23,-11
1095,100,-27,1007,-13,-19,-12
1096,120,-11,999,-11,-1,-8
1097,25,-7,1003,-12,20,-3
1098,-78,-9,991,-15,25,0
1099,-138,-12,984,-17,14,-1
1100,-105,-19,997,-16,-6,-6
1101,-3,-30,1003,-13,-20,-13
1102,94,-25,1004,-11,-20,-12
1103,126,-17,1002,-10,-5,-9
1104,44,-10,1007,-13,18,-4
1105,-57,-8,996,-16,24,-1
1106,-137,-12,976,-18,16,0
1107,-116,-22,998,-16,-5,-5
1108,-25,-32,1000,-14,-22,-10
1109,92,-23,1003,-11,-21,-13
1110,128,-15,1005,-12,-6,-10
1111,60,-12,1001,-13,15,-4
1112,-46,-9,998,-14,24,-1
1113,-134,-6,976,-18,17,1
1114,-124,-22,999,-16,-2,-4
1115,-41,-28,996,-13,-18,-10
1116,81,-22,1009,-11,-22,-11
1117,122,-17,1006,-12,-9,-10
1118,67,-12,1003,-13,13,-5
1119,-27,-4,991,-15,24,-2
1120,-130,-7,986,-17,21,2
1121,-125,-24,995,-17,1,-4
1122,-55,-28,987,-16,-17,-8
1123,68,-17,1006,-12,-21,-10
1124,115,-22,1013,-13,-10,-10
1125,82,-10,1005,-15,9,-6
1126,-11,-7,994,-14,22,-2
1127,-112,-7,985,-17,21,1
1128,-129,-23,996,-17,3,-3
1129,-72,-23,988,-16,-14,-8
1130,50,-27,1003,-13,-23,-13
1131,106,-25,1009,-10,-12,-11
1132,98,-9,1005,-12,5,-4
1133,8,-1,995,-16,20,-2
1134,-106,-11,999,-16,23,2
1135,-136,-16,982,-18,9,-3
1136,-85,-24,990,-17,-10,-7
1137,34,-27,1006,-12,-24,-11
1138,105,-28,1005,-12,-14,-12
1139,116,-10,1002,-11,2,-8
1140,19,-5,1000,-16,20,-2
1141,-89,-7,999,-15,23,-1
1142,-139,-13,980,-17,10,-2
1143,-99,-22,988,-18,-8,-7
1144,11,-32,1011,-14,-22,-11
1145,102,-28,1003,-11,-17,-12
1146,126,-8,1005,-11,0,-10
1147,30,-7,998,-13,20,-2
1148,-76,-7,997,-16,25,0
1149,-141,-12,976,-19,13,-1
1150,-108,-20,1000,-16,-6,-7
1151,-5,-29,1000,-13,-22,-11
1152,100,-26,1000,-11,-20,-12
1153,123,-15,1004,-11,-4,-9
1154,41,-6,1003,-14,16,-3
1155,-58,-9,998,-16,24,-2
1156,-138,-9,973,-17,16,0
1157,-114,-20,1000,-15,-4,-4
1158,-23,-33,1002,-15,-19,-10
1159,91,-21,1002,-11,-19,-12
1160,125,-15,1007,-12,-5,-9
1161,58,-12,1002,-14,14,-3
1162,-42,-6,993,-16,23,-1
1163,-136,-5,979,-17,19,1
1164,-119,-26,998,-16,0,-4
1165,-45,-30,990,-15,-17,-8
1166,79,-19,1012,-12,-22,-11
1167,127,-18,1009,-12,-9,-10
1168,69,-14,999,-12,12,-4
1169,-25,-7,995,-14,23,-2
1170,-128,-10,988,-17,20,1
1171,-129,-25,994,-18,2,-3
1172,-59,-23,986,-15,-17,-8
1173,70,-21,1004,-12,-22,-11
1174,117,-25,1014,-11,-10,-10
1175,84,-10,1007,-13,8,-6
1176,-9,-2,993,-15,23,-3
1177,-120,-6,986,-15,22,2
1178,-132,-21,994,-18,4,-2
1179,-70,-26,989,-18,-14,-7
1180,59,-27,1002,-13,-23,-11
1181,108,-28,1009,-12,-13,-11
1182,99,-8,1002,-12,5,-7
1183,2,-2,1002,-14,21,-2
1184,-107,-4,994,-18,24,1
1185,-136,-21,986,-17,8,-3
1186,-78,-23,988,-16,-11,-8
1187,37,-30,1008,-13,-23,-11
1188,109,-28,1003,-11,-16,-12
1189,109,-8,1003,-9,3,-8
1190,13,-1,1000,-14,21,-2
1191,-94,-9,1002,-17,24,1
1192,-139,-15,979,-19,10,-1
1193,-91,-24,987,-17,-10,-6
1194,19,-35,1011,-12,-23,-11
1195,103,-27,1003,-12,-16,-12
1196,121,-11,1006,-10,-1,-8
1197,22,-2,995,-11,20,-4
1198,-78,-10,999,-16,24,0
1199,-138,-11,976,-18,14,0
1200,-104,-23,999,-17,-6,-5
1201,-2,-35,1003,-15,-21,-12
1202,99,-28,1001,-10,-19,-12
1203,122,-12,1005,-10,-4,-9
1204,38,-8,1006,-13,17,-4
1205,-62,-8,993,-16,23,-1
1206,-138,-9,973,-19,15,-2
1207,-108,-20,1004,-16,-6,-6
1208,-22,-29,998,-15,-21,-10
1209,92,-23,1007,-13,-20,-13
1210,123,-20,1006,-11,-5,-10
1211,51,-9,999,-13,15,-3
1212,-44,-7,998,-15,22,-1
1213,-137,-4,979,-18,16,1
1214,-114,-22,995,-17,-2,-5
1215,-41,-31,996,-15,-16,-9
1216,84,-23,1010,-14,-22,-11
1217,122,-23,1007,-12,-8,-10
1218,64,-15,1003,-11,12,-5
1219,-27,-4,993,-15,23,-2
1220,-127,-6,991,-17,20,1
1221,-120,-21,994,-16,0,-4
1222,-56,-27,992,-18,-16,-8
1223,74,-26,1000,-12,-23,-12
1224,109,-25,1017,-12,-10,-10
1225,86,-11,1005,-13,9,-5
1226,-21,-6,994,-13,22,-1
1227,-113,-6,983,-17,19,0
1228,-132,-23,997,-16,4,-4
1229,-64,-25,987,-16,-14,-6
1230,55,-28,1007,-13,-22,-11
1231,106,-27,1007,-11,-12,-11
1232,92,-6,1004,-9,6,-6
1233,-3,0,996,-13,21,-2
1234,-112,-7,997,-18,22,1
1235,-128,-20,984,-17,6,-3
1236,-76,-29,989,-17,-13,-7
1237,44,-34,1007,-13,-23,-10
1238,103,-28,1005,-10,-13,-10
1239,104,-6,1002,-10,4,-6
1240,6,0,1002,-13,21,-2
1241,-99,-7,998,-16,22,0
1242,-135,-17,978,-19,8,-3
1243,-83,-25,992,-14,-11,-7
1244,23,-32,1007,-14,-22,-11
1245,106,-30,1007,-14,-15,-12
1246,111,-11,1003,-11,1,-7
1247,17,-3,999,-12,18,-4
1248,-82,-5,997,-13,22,-1
1249,-135,-9,980,-17,11,-1
1250,-95,-22,1000,-17,-7,-4
1251,7,-37,1004,-16,-22,-10
1252,97,-32,999,-11,-18,-11
1253,118,-12,1005,-9,-3,-10
1254,32,-8,1003,-13,19,-4
1255,-65,-5,997,-15,24,-1
1256,-135,-4,973,-17,15,0
1257,-105,-17,1005,-17,-6,-5
1258,-12,-34,997,-16,-21,-9
1259,91,-27,1006,-11,-20,-11
1260,118,-20,1003,-11,-4,-10
1261,43,-12,1003,-13,17,-5
1262,-51,-6,995,-14,22,0
1263,-133,-4,976,-17,16,0
1264,-109,-23,998,-17,-2,-5
1265,-33,-29,996,-16,-20,-8
1266,83,-20,1012,-13,-20,-12
1267,113,-22,1002,-13,-6,-10
1268,57,-13,1004,-12,13,-5
1269,-28,-4,987,-16,22,-1
1270,-128,-3,990,-15,19,1
1271,-112,-24,997,-18,-1,-4
1272,-54,-28,989,-15,-16,-7
1273,74,-21,1003,-11,-22,-11
1274,109,-23,1016,-12,-9,-9
1275,76,-10,1005,-11,10,-6
1276,-19,-2,990,-16,23,-3
1277,-115,-1,988,-18,19,0
1278,-122,-28,996,-18,3,-4
1279,-63,-23,988,-15,-15,-8
1280,59,-29,1005,-14,-22,-11
1281,105,-28,1012,-11,-11,-11
1282,90,-6,1003,-11,6,-5
1283,-6,-1,997,-14,21,-1
1284,-108,-8,992,-17,21,0
1285,-130,-20,986,-17,7,-4
1286,-71,-22,990,-16,-12,-6
1287,44,-34,1006,-14,-22,-11
1288,104,-27,1007,-10,-13,-11
1289,99,-6,1003,-11,3,-7
1290,3,0,998,-15,20,-4
1291,-99,-6,1002,-16,22,-1
1292,-133,-13,977,-19,7,-2
1293,-79,-23,992,-17,-10,-6
1294,30,-35,1009,-13,-22,-11
1295,102,-33,1005,-12,-14,-11
1296,104,-8,1001,-10,1,-8
1297,15,-4,1001,-12,20,-3
1298,-84,-6,995,-16,22,1
1299,-130,-11,978,-17,9,-1
1300,-92,-23,999,-17,-8,-6
1301,8,-36,1004,-14,-22,-10
1302,100,-28,998,-13,-16,-11
1303,109,-14,1009,-10,-1,-9
1304,30,-5,998,-14,16,-4
1305,-70,-5,998,-13,23,0
1306,-133,-4,976,-18,13,0
1307,-98,-21,1004,-18,-6,-4
1308,-9,-34,998,-18,-20,-9
1309,90,-27,1005,-12,-19,-11
1310,117,-20,1006,-11,-4,-10
1311,37,-11,1000,-13,16,-3
1312,-49,-4,997,-13,21,-2
1313,-132,-1,977,-18,16,-1
1314,-104,-20,996,-17,-3,-4
1315,-26,-32,1002,-16,-18,-9
1316,78,-27,1007,-15,-19,-12
1317,113,-23,1004,-12,-5,-10
1318,50,-13,1003,-11,14,-5
1319,-33,0,991,-14,21,-2
1320,-123,-4,987,-17,18,1
1321,-112,-20,996,-19,-1,-4
1322,-42,-30,991,-15,-17,-8
1323,74,-24,1005,-10,-21,-11
1324,108,-26,1011,-12,-8,-9
1325,69,-13,1006,-11,9,-5
1326,-22,-2,989,-15,21,-1
1327,-115,-2,985,-16,20,1
1328,-118,-20,1001,-18,2,-3
1329,-56,-24,984,-18,-14,-5
1330,61,-28,1004,-13,-21,-10
1331,104,-26,1012,-12,-11,-10
1332,76,-13,1005,-12,8,-5
1333,-9,1,991,-13,21,-2
1334,-111,-7,992,-18,20,2
1335,-118,-16,989,-17,5,-3
1336,-73,-20,992,-16,-10,-6
1337,45,-31,1006,-13,-21,-11
1338,103,-33,1003,-12,-14,-9
1339,95,-10,1003,-11,4,-6
1340,6,-2,998,-14,20,-2
1341,-100,-5,1003,-17,22,0
1342,-133,-13,978,-19,8,-3
1343,-86,-17,993,-18,-11,-7
1344,34,-34,1004,-16,-22,-12
1345,103,-35,1007,-12,-15,-11
1346,112,-11,999,-10,1,-8
1347,15,-9,999,-13,19,-4
1348,-86,-4,998,-14,23,0
1349,-137,-7,976,-19,11,-2
1350,-92,-19,997,-17,-8,-6
1351,10,-32,1003,-15,-21,-11
1352,100,-31,1004,-13,-16,-11
1353,117,-11,1004,-10,-1,-8
1354,29,-9,1000,-13,17,-4
1355,-71,-7,994,-10,11,-4
1356,-143,-8,978,-18,10,-2
1357,-99,-18,1002,-17,-6,-6
1358,-6,-36,1000,-15,-20,-9
1359,98,-26,1001,-12,-19,-11
1360,121,-18,1005,-10,-4,-9
1361,38,-6,1003,-14,17,-2
1362,-58,-5,997,-15,23,-1
1363,-139,-9,975,-18,15,0
1364,-105,-17,998,-17,-5,-4
1365,-22,-34,1003,-16,-19,-10
1366,91,-26,1006,-13,-20,-12
1367,118,-19,1008,-11,-6,-9
1368,54,-11,998,-12,13,-4
1369,-45,-1,996,-14,22,-1
1370,-131,-5,984,-18,17,0
1371,-114,-25,996,-18,-1,-3
1372,-38,-32,992,-15,-17,-8
1373,81,-22,1008,-12,-22,-12
1374,114,-21,1007,-11,-8,-10
1375,64,-12,1002,-11,12,-5
1376,-31,-1,990,-14,23,-2
1377,-121,-6,985,-17,20,0
1378,-116,-22,1000,-17,0,-4
1379,-51,-29,983,-16,-17,-9
1380,67,-24,1009,-12,-22,-12
1381,107,-27,1010,-11,-9,-11
1382,78,-9,1008,-13,10,-6
1383,-13,-3,991,-15,22,-3
1384,-111,-4,987,-17,20,0
1385,-124,-25,996,-17,3,-4
1386,-66,-24,987,-15,-13,-7
1387,54,-29,1005,-13,-23,-11
1388,103,-28,1006,-11,-12,-11
1389,87,-8,1002,-9,6,-7
1390,0,-1,998,-14,21,-3
1391,-105,-6,1000,-17,22,0
1392,-127,-18,980,-18,7,-3
1393,-74,-23,991,-17,-10,-7
1394,34,-33,1008,-14,-22,-11
1395,97,-33,1003,-13,-14,-11
1396,103,-7,1002,-9,3,-7
1397,12,-2,1000,-12,21,-4
1398,-90,-2,997,-15,22,0
1399,-135,-11,978,-18,10,-2
1400,-85,-24,994,-17,-8,-6
1401,17,-36,1004,-14,-22,-9
1402,97,-35,1007,-12,-16,-12
1403,114,-14,1000,-10,0,-8
1404,17,-2,1001,-10,18,-3
1405,-76,-3,993,-15,20,-2
1406,-139,-9,982,-18,11,-2
1407,-92,-22,999,-18,-8,-5
1408,0,-36,1002,-15,-20,-9
1409,98,-28,999,-12,-19,-12
1410,115,-19,1007,-10,-3,-8
1411,31,-5,1002,-12,16,-4
1412,-59,-5,995,-16,23,-1
1413,-132,-5,977,-19,15,-1
1414,-101,-18,998,-17,-6,-4
1415,-16,-33,1001,-16,-20,-10
1416,89,-29,1004,-12,-19,-12
1417,116,-21,1003,-11,-5,-10
1418,45,-11,1002,-13,15,-4
1419,-50,0,995,-14,22,-1
1420,-125,-4,979,-19,16,1
1421,-109,-23,996,-17,-2,-3
1422,-34,-30,996,-15,-18,-8
1423,81,-26,1008,-13,-19,-12
1424,114,-22,1005,-11,-7,-11
1425,59,-11,1002,-12,12,-4
1426,-34,-4,991,-12,22,-3
1427,-124,-2,987,-17,19,0
1428,-116,-23,996,-16,1,-3
1429,-53,-28,986,-16,-15,-8
1430,73,-24,1005,-12,-22,-12
1431,108,-25,1015,-10,-8,-11
1432,73,-7,1009,-12,10,-6
1433,-18,0,991,-12,23,-3
1434,-117,-4,987,-17,20,0
1435,-123,-20,997,-19,2,-4
1436,-57,-26,991,-16,-16,-8
1437,60,-27,1001,-13,-21,-10
1438,106,-26,1012,-11,-11,-13
1439,87,-10,1006,-10,7,-7
1440,-10,-1,993,-12,22,-3
1441,-110,-5,992,-17,20,0
1442,-127,-21,991,-18,5,-2
1443,-66,-22,989,-17,-13,-5
1444,46,-32,1007,-13,-21,-13
1445,100,-29,1007,-11,-13,-11
1446,99,-4,997,-8,5,-7
1447,3,0,1003,-15,20,-3
1448,-99,-6,996,-18,21,0
1449,-132,-17,979,-19,7,-3
1450,-74,-24,987,-18,-12,-7
1451,34,-34,1011,-15,-23,-11
1452,98,-29,1006,-11,-14,-11
1453,105,-9,1004,-12,2,-8
1454,14,-1,995,-13,19,-4
1455,-87,-5,1000,-15,23,-1
1456,-130,-10,977,-18,10,-3
1457,-86,-24,999,-18,-8,-6
1458,13,-35,1002,-15,-21,-10
1459,96,-28,1003,-11,-16,-12
1460,112,-12,1006,-10,-2,-9
1461,20,-5,998,-11,18,-3
1462,-69,-2,996,-15,22,-1
1463,-129,-8,977,-17,13,-3
1464,-99,-21,1005,-18,-6,-5
1465,-10,-32,1000,-15,-21,-9
1466,89,-32,1004,-11,-18,-12
1467,118,-18,1003,-10,-4,-10
1468,40,-7,1003,-12,16,-4
1469,-52,-4,996,-14,22,-1
1470,-135,-3,976,-17,15,0
1471,-109,-20,998,-16,-3,-5
1472,-29,-36,1002,-17,-18,-10
1473,87,-28,1007,-14,-19,-12
1474,117,-22,1003,-10,-6,-9
1475,57,-10,1003,-10,13,-5
1476,-40,0,993,-15,22,-2
1477,-129,0,985,-17,17,0
1478,-112,-22,995,-19,-1,-4
1479,-44,-31,992,-17,-18,-9
1480,79,-25,1006,-12,-21,-11
1481,112,-25,1009,-11,-8,-11
1482,65,-10,1005,-12,11,-5
1483,-25,-1,989,-14,21,-3
1484,-121,0,988,-18,20,0
1485,-118,-20,998,-17,1,-4
1486,-56,-30,988,-16,-16,-8
1487,71,-26,999,-12,-22,-12
1488,105,-29,1016,-11,-9,-10
1489,82,-6,1006,-12,8,-5
1490,-15,-2,992,-14,22,-2
1491,-115,-2,988,-17,20,1
1492,-125,-20,995,-18,3,-3
1493,-65,-26,991,-17,-13,-6
1494,52,-29,1006,-13,-21,-11
1495,103,-29,1009,-10,-12,-12
1496,95,-8,998,-9,5,-8
1497,0,0,1003,-14,21,-2
1498,-104,-8,995,-18,22,0
1499,-131,-16,983,-18,7,-3
1500,-74,-24,987,-17,-12,-7
1501,37,-35,1012,-14,-22,-11
1502,103,-32,1004,-11,-14,-10
1503,103,-11,1002,-12,4,-7
1504,9,0,999,-12,21,-2
1505,-93,-2,1002,-17,23,0
1506,-129,-10,976,-19,9,-2
1507,-88,-23,996,-17,-9,-6
1508,22,-39,1006,-15,-23,-10
1509,95,-35,1004,-11,-15,-11
1510,112,-13,1004,-10,1,-8
1511,16,0,999,-13,19,-3
1512,-78,-2,996,-15,22,-1
1513,-130,-7,976,-19,11,-2
1514,-93,-23,1005,-18,-7,-5
1515,0,-38,999,-15,-19,-11
1516,96,-30,1003,-10,-17,-12
1517,114,-17,1005,-9,-3,-9
1518,32,-3,1003,-13,17,-4
1519,-65,-5,996,-16,23,-2
1520,-133,-3,975,-17,13,-1
1521,-104,-22,1000,-17,-6,-5
1522,-15,-37,998,-16,-21,-10
1523,89,-27,1009,-10,-19,-11
1524,118,-19,1000,-10,-4,-9
1525,44,-6,1005,-11,15,-3
1526,-48,-2,994,-14,22,-2
1527,-131,0,979,-17,17,0
1528,-105,-21,994,-18,-3,-4
1529,-36,-34,998,-17,-17,-8
1530,86,-30,1006,-13,-21,-11
1531,111,-23,1009,-12,-7,-9
1532,61,-8,998,-11,12,-4
1533,-33,-1,994,-14,22,-3
1534,-124,0,984,-17,18,-1
1535,-117,-21,999,-17,1,-4
1536,-48,-32,985,-15,-15,-9
1537,75,-26,1003,-12,-21,-12
1538,110,-28,1017,-11,-9,-10
1539,70,-9,1004,-12,10,-5
1540,-21,0,994,-13,22,-4
1541,-118,0,988,-16,20,1
1542,-122,-24,994,-17,3,-4
1543,-59,-29,989,-18,-15,-8
1544,60,-32,1006,-13,-22,-11
1545,104,-29,1008,-9,-11,-12
1546,86,-6,1008,-11,6,-7
1547,-7,1,995,-14,21,-3
1548,-110,-5,990,-16,22,1
1549,-128,-19,990,-19,5,-3
1550,-67,-20,987,-19,-12,-6
1551,46,-35,1008,-14,-22,-12
1552,102,-29,1006,-10,-13,-11
1553,97,-10,1000,-10,3,-8
1554,3,-2,1000,-12,20,-2
1555,-99,-2,999,-16,23,1
1556,-125,-14,978,-18,8,-3
1557,-79,-19,993,-18,-10,-5
1558,24,-35,1007,-14,-22,-10
1559,102,-33,1009,-13,-15,-12
1560,108,-11,1002,-11,0,-8
1561,12,-2,999,-13,19,-4
1562,-83,-6,1000,-15,21,-1
1563,-129,-7,979,-18,10,-1
1564,-91,-22,1000,-18,-8,-5
1565,8,-37,1005,-15,-20,-10
1566,97,-31,999,-13,-16,-12
1567,112,-14,1007,-10,-1,-8
1568,24,-7,1002,-14,17,-3
1569,-68,-2,996,-14,22,-1
1570,-130,-8,977,-20,13,0
1571,-100,-20,1003,-18,-5,-5
1572,-8,-37,1000,-16,-21,-10
1573,86,-29,1003,-12,-18,-10
1574,115,-17,1003,-11,-3,-8
1575,38,-8,1005,-12,16,-4
1576,-53,-2,994,-14,22,0
1577,-129,-3,978,-18,16,-1
1578,-103,-23,998,-17,-3,-4
1579,-29,-31,998,-16,-18,-8
1580,86,-27,1011,-12,-19,-12
1581,109,-21,1004,-11,-6,-9
1582,55,-8,1000,-11,13,-4
1583,-42,-4,997,-14,21,-3
1584,-124,0,982,-17,18,0
1585,-111,-25,998,-19,-1,-6
1586,-41,-32,989,-15,-16,-8
1587,74,-27,1005,-11,-20,-11
1588,112,-24,1012,-9,-8,-10
1589,63,-7,1003,-10,10,-4
1590,-25,0,991,-14,21,-2
1591,-119,1,988,-16,20,0
1592,-118,-22,996,-19,2,-4
1593,-54,-29,986,-16,-14,-9
1594,64,-30,1004,-13,-20,-10
1595,105,-23,1011,-12,-9,-9
1596,76,-9,1009,-10,9,-5
1597,-13,1,989,-14,20,-2
1598,-113,-5,990,-17,19,1
1599,-121,-20,993,-17,3,-3
1600,-61,-23,990,-17,-13,-6
1601,52,-30,1007,-14,-22,-12
1602,96,-35,1006,-12,-11,-10
1603,91,-7,1003,-11,4,-7
1604,0,-1,1000,-13,21,-2
1605,-103,-2,998,-17,23,0
1606,-126,-18,984,-19,7,-3
1607,-76,-21,989,-17,-12,-6
1608,34,-33,1008,-14,-24,-11
1609,99,-33,1006,-10,-13,-11
1610,102,-9,1000,-11,3,-6
1611,10,-2,999,-12,20,-3
1612,-93,-4,997,-15,21,0
1613,-131,-9,980,-18,9,-1
1614,-88,-23,993,-18,-8,-5
1615,15,-36,1009,-15,-22,-10
1616,99,-31,1003,-10,-15,-11
1617,107,-12,1004,-11,0,-9
1618,20,-3,998,-13,18,-3
1619,-73,-2,999,-16,22,1
1620,-132,-3,975,-20,12,0
1621,-98,-24,1003,-18,-7,-5
1622,-3,-38,999,-15,-21,-10
1623,96,-33,1002,-11,-18,-11
1624,116,-16,1002,-10,-3,-9
1625,36,-6,1007,-12,16,-5
1626,-56,2,991,-15,22,-1
1627,-134,-4,975,-17,15,0
1628,-102,-17,1000,-17,-6,-4
1629,-21,-39,1000,-19,-19,-8
1630,89,-31,1007,-12,-20,-11
1631,114,-20,1006,-11,-5,-10
1632,50,-10,996,-12,14,-4
1633,-47,1,997,-15,22,-1
1634,-127,0,980,-19,17,1
1635,-110,-24,997,-19,-3,-4
1636,-37,-33,996,-16,-17,-9
1637,77,-26,1004,-12,-20,-10
1638,114,-24,1010,-12,-8,-10
1639,58,-10,1002,-11,11,-5
1640,-29,-2,991,-15,22,-2
1641,-122,-5,989,-18,18,0
1642,-115,-22,998,-19,-1,-3
1643,-49,-29,987,-16,-17,-9
1644,67,-25,1004,-11,-21,-11
1645,104,-25,1014,-11,-8,-10
1646,76,-11,1008,-12,9,-6
1647,-25,-1,991,-14,22,-3
1648,-113,-5,989,-18,18,-2
1649,-120,-19,994,-19,1,-5
1650,-51,-28,987,-18,-14,-7
1651,65,-27,1009,-15,-22,-9
1652,103,-29,1003,-13,-11,-11
1653,81,-10,1006,-10,8,-7
1654,-14,-4,996,-14,21,-3
1655,-106,-5,994,-17,19,0
1656,-115,-13,989,-16,5,-2
1657,-66,-18,989,-17,-12,-7
1658,41,-31,1007,-16,-21,-10
1659,96,-34,1006,-12,-13,-10
1660,93,-13,998,-12,3,-8
1661,4,-7,1001,-13,20,-4
1662,-88,-2,998,-13,22,2
1663,-125,-9,981,-17,8,-1
1664,-84,-17,992,-17,-9,-5
1665,18,-36,1006,-15,-21,-9
1666,96,-36,1001,-12,-16,-11
1667,110,-16,1005,-12,0,-7
1668,24,-7,996,-12,18,-3
1669,-78,-3,997,-14,22,0
1670,-134,-6,978,-17,11,-2
1671,-99,-19,1002,-17,-7,-6
1672,2,-31,1000,-17,-21,-10
1673,96,-28,1004,-13,-18,-11
1674,114,-16,1002,-10,-3,-8
1675,32,-9,1002,-12,17,-3
1676,-63,-10,997,-14,21,0
1677,-138,-3,974,-15,14,0
1678,-103,-17,1003,-17,-6,-5
1679,-13,-30,1001,-16,-20,-9
1680,91,-27,1003,-14,-19,-10
1681,117,-21,1002,-12,-5,-8
1682,46,-13,1003,-12,14,-5
1683,-53,-6,993,-14,23,-3
1684,-127,-4,978,-19,16,0
1685,-104,-17,999,-18,-3,-3
1686,-32,-30,996,-18,-18,-9
1687,88,-24,1012,-14,-20,-9
1688,110,-21,1007,-12,-6,-9
1689,52,-15,997,-17,7,-5
1690,-34,-6,995,-12,22,-1
1691,-124,-5,985,-15,18,0
1692,-108,-19,998,-17,-1,-4
1693,-45,-27,990,-15,-17,-9
1694,68,-21,1001,-13,-22,-11
1695,106,-28,1016,-13,-9,-9
1696,66,-14,1003,-13,11,-5
1697,-23,-5,990,-15,23,-3
1698,-112,-5,990,-15,18,0
1699,-119,-18,996,-17,0,-3
1700,-56,-25,985,-16,-14,-8
1701,58,-23,1008,-13,-20,-11
1702,103,-31,1005,-13,-10,-12
1703,82,-10,1008,-11,8,-8
1704,-7,-7,993,-13,19,-5
1705,-105,-4,993,-15,19,1
1706,-121,-15,988,-17,6,-5
1707,-69,-21,993,-17,-12,-6
1708,44,-23,1006,-14,-21,-11
1709,95,-36,1006,-12,-12,-10
1710,97,-9,998,-9,2,-7
1711,6,-9,1000,-13,21,-4
1712,-89,-7,998,-15,21,1
1713,-125,-13,983,-17,7,-2
1714,-78,-18,988,-16,-9,-6
1715,19,-30,1009,-14,-21,-10
1716,93,-31,1006,-13,-14,-11
1717,106,-14,999,-11,0,-8
1718,20,-3,1000,-13,17,-2
1719,-76,-6,996,-15,23,1
1720,-132,-11,978,-20,11,0
1721,-92,-22,999,-18,-8,-5
1722,2,-34,1004,-12,-20,-9
1723,96,-25,999,-12,-17,-11
1724,116,-11,1005,-9,-2,-7
1725,28,-8,1001,-12,17,-2
1726,-66,-7,995,-15,23,0
1727,-136,-6,977,-17,15,-1
1728,-101,-21,1001,-19,-4,-4
1729,-13,-34,999,-16,-20,-8
1730,90,-26,999,-11,-18,-11
1731,113,-19,1008,-10,-3,-11
1732,42,-8,997,-12,15,-6
1733,-52,-6,999,-16,22,-1
1734,-128,-3,973,-18,15,-1
1735,-110,-23,1000,-17,-2,-5
1736,-25,-30,997,-14,-18,-10
1737,80,-26,1011,-12,-19,-12
1738,114,-22,1005,-12,-6,-10
1739,50,-12,1001,-11,13,-4
1740,-36,-2,995,-14,21,-3
1741,-126,-4,987,-17,16,-1
1742,-110,-25,997,-17,-2,-4
1743,-44,-31,988,-15,-17,-8
1744,75,-24,1007,-11,-21,-9
1745,111,-28,1010,-11,-7,-10
1746,66,-12,1007,-12,11,-5
1747,-25,-2,989,-14,22,-2
1748,-119,-3,989,-17,19,0
1749,-117,-22,999,-18,1,-4
1750,-56,-28,985,-17,-15,-8
1751,65,-25,1006,-13,-22,-11
1752,104,-27,1008,-13,-11,-9
1753,79,-13,1008,-12,8,-6
1754,-9,-1,993,-15,21,-2
1755,-112,-6,991,-17,20,1
1756,-122,-22,991,-18,4,-3
1757,-66,-22,992,-16,-12,-6
1758,52,-29,1006,-13,-21,-10
1759,97,-30,1004,-13,-12,-10
1760,91,-10,1001,-9,5,-8
1761,-1,-3,1001,-13,20,-3
1762,-101,-7,997,-15,22,0
1763,-126,-13,981,-17,7,-3
1764,-73,-23,989,-17,-11,-7
1765,29,-35,1007,-13,-22,-10
1766,98,-33,1008,-12,-14,-11
1767,100,-9,1002,-10,2,-8
1768,9,-4,996,-14,20,-3
1769,-87,-3,1000,-15,22,-1
1770,-129,-11,978,-16,9,-2
1771,-85,-20,998,-16,-9,-6
1772,16,-36,1005,-14,-20,-11
1773,92,-28,1005,-12,-15,-11
1774,108,-12,1001,-11,-1,-10
1775,20,-10,1002,-12,18,-5
1776,-72,-4,995,-14,20,-1
1777,-129,-8,977,-18,11,-2
1778,-92,-16,1003,-18,-6,-6
1779,-3,-34,1000,-15,-20,-10
1780,96,-23,1002,-11,-18,-11
1781,107,-18,1003,-11,-2,-9
1782,34,-9,1005,-13,17,-6
1783,-58,-8,994,-14,23,-2
1784,-125,-2,975,-17,14,-2
1785,-94,-21,1004,-16,-5,-5
1786,-21,-34,999,-15,-19,-9
1787,85,-25,1006,-12,-17,-12
1788,108,-20,1005,-11,-5,-11
1789,45,-11,998,-12,13,-4
1790,-39,-7,995,-15,20,-3
1791,-124,0,984,-19,16,0
1792,-102,-24,996,-16,-1,-4
1793,-36,-31,993,-16,-16,-9
1794,74,-23,1006,-14,-20,-11
1795,105,-27,1010,-10,-7,-11
1796,60,-9,1004,-10,11,-5
1797,-27,-3,987,-13,21,-3
1798,-114,0,988,-16,18,-2
1799,-113,-21,1001,-18,1,-4
1800,-47,-25,985,-14,-15,-8
1801,65,-27,1005,-12,-21,-12
1802,100,-26,1012,-12,-9,-11
1803,71,-14,1005,-11,9,-6
1804,-17,0,991,-11,21,-4
1805,-108,-6,990,-16,19,0
1806,-116,-21,995,-18,4,-4
1807,-56,-22,988,-17,-12,-8
1808,55,-29,1009,-14,-20,-10
1809,93,-32,1002,-12,-11,-10
1810,83,-9,1002,-11,6,-7
1811,-6,-2,998,-13,20,-4
1812,-101,-6,996,-17,21,-1
1813,-119,-15,982,-16,4,-3
1814,-67,-21,993,-17,-10,-6
1815,37,-30,1009,-13,-20,-10
1816,95,-36,1008,-12,-12,-10
1817,93,-8,1000,-10,5,-7
1818,6,-6,998,-13,19,-3
1819,-88,-4,1000,-13,22,-1
1820,-122,-12,979,-18,9,-2
1821,-76,-19,995,-15,-9,-7
1822,17,-34,1009,-15,-21,-10
1823,94,-32,1000,-12,-14,-11
1824,103,-16,1006,-9,1,-9
1825,13,-4,996,-11,17,-4
1826,-72,-6,998,-13,20,-2
1827,-122,-6,976,-18,11,-2
1828,-85,-21,1005,-18,-7,-6
1829,2,-34,1001,-15,-19,-10
1830,89,-29,1001,-12,-16,-10
1831,105,-16,1004,-8,-3,-10
1832,28,-6,1004,-12,15,-4
1833,-64,-1,994,-14,21,-1
1834,-122,-5,975,-16,12,-1
1835,-91,-19,1005,-15,-6,-5
1836,-19,-35,996,-16,-18,-9
1837,85,-25,1010,-14,-18,-11
1838,103,-22,1004,-11,-4,-9
1839,36,-10,998,-10,15,-6
1840,-45,-3,996,-15,20,-3
1841,-121,0,980,-16,15,-1
1842,-94,-17,999,-18,-2,-4
1843,-31,-31,996,-17,-16,-8
1844,81,-26,1005,-12,-18,-11
1845,101,-28,1009,-12,-5,-9
1846,48,-14,1002,-11,13,-5
1847,-33,-2,991,-14,20,-3
1848,-112,-2,986,-17,16,-2
1849,-104,-23,1001,-17,-1,-4
1850,-39,-25,986,-15,-14,-8
1851,67,-25,1004,-12,-19,-11
1852,96,-28,1013,-13,-7,-9
1853,65,-11,1007,-12,9,-6
1854,-24,-4,989,-14,20,-4
1855,-108,-5,989,-17,18,0
1856,-110,-23,997,-18,3,-3
1857,-50,-24,987,-16,-13,-7
1858,59,-29,1007,-13,-21,-11
1859,91,-28,1007,-11,-9,-10
1860,78,-3,1000,-10,6,-6
1861,-14,0,1000,-13,18,-2
1862,-103,-7,995,-15,19,0
1863,-114,-18,987,-19,5,-3
1864,-58,-20,990,-16,-12,-6
1865,41,-33,1008,-12,-20,-10
1866,91,-31,1004,-11,-10,-10
1867,88,-9,1000,-11,6,-6
1868,-1,-3,998,-14,19,-3
1869,-91,-2,1000,-14,18,0
1870,-118,-13,979,-19,6,-4
1871,-68,-24,996,-17,-9,-6
1872,25,-34,1004,-15,-19,-11
1873,88,-30,1007,-12,-12,-10
1874,96,-11,1000,-11,3,-7
1875,2,-2,996,-13,18,-3
1876,-76,-5,996,-16,20,-2
1877,-122,-11,981,-18,8,-2
1878,-77,-19,1001,-17,-8,-6
1879,8,-37,1004,-16,-19,-10
1880,92,-24,1003,-11,-14,-11
1881,96,-16,1002,-10,1,-8
1882,16,-8,1003,-13,17,-4
1883,-63,-2,991,-14,21,-2
1884,-122,-2,977,-16,11,-2
1885,-82,-22,999,-18,-6,-5
1886,-6,-38,1004,-15,-17,-10
1887,83,-29,1003,-12,-15,-12
1888,99,-20,1005,-10,-1,-11
1889,28,-12,1000,-12,15,-5
1890,-51,1,992,-12,18,-3
1891,-118,0,984,-17,12,-1
1892,-87,-23,998,-17,-4,-5
1893,-23,-33,994,-16,-17,-9
1894,76,-27,1007,-13,-17,-10
1895,96,-26,1009,-12,-5,-9
1896,41,-13,1002,-11,12,-5
1897,-39,-3,989,-13,20,-3
1898,-111,1,988,-15,15,-1
1899,-100,-20,999,-18,-1,-4
1900,-32,-25,986,-16,-16,-8
1901,70,-29,1007,-12,-19,-9
1902,92,-29,1008,-11,-6,-8
1903,58,-11,1009,-10,11,-5
1904,-28,0,988,-14,20,-2
1905,-108,0,986,-17,16,0
1906,-100,-22,1000,-18,0,-4
1907,-43,-24,988,-19,-13,-6
1908,59,-28,1009,-14,-18,-11
1909,85,-32,1004,-12,-9,-10
1910,68,-9,1004,-9,6,-6
1911,-15,0,992,-13,19,-3
1912,-103,-6,998,-16,17,-1
1913,-107,-15,984,-17,3,-4
1914,-54,-24,992,-18,-12,-6
1915,42,-32,1009,-14,-20,-8
1916,85,-31,1005,-11,-9,-9
1917,83,-11,1002,-11,6,-6
1918,-6,-4,994,-14,20,-2
1919,-90,-3,996,-14,18,-1
1920,-111,-11,984,-17,4,-3
1921,-65,-20,991,-16,-11,-6
1922,27,-37,1010,-13,-20,-8
1923,90,-33,1003,-11,-11,-9
1924,91,-11,1002,-9,3,-7
1925,0,-4,999,-11,19,-2
1926,-76,-1,995,-14,20,-2
1927,-114,-8,979,-16,8,-1
1928,-75,-22,1000,-17,-8,-5
1929,12,-40,1005,-16,-18,-9
1930,89,-34,998,-11,-14,-10
1931,94,-16,1003,-8,1,-9
1932,14,-4,1005,-12,17,-3
1933,-67,1,993,-15,20,-1
1934,-116,0,978,-19,9,-2
1935,-86,-22,1004,-19,-7,-5
1936,0,-38,997,-16,-19,-10
1937,81,-34,1007,-13,-15,-10
1938,99,-20,1000,-8,-3,-10
1939,27,-6,1002,-11,15,-5
1940,-54,1,989,-13,19,-3
1941,-117,3,984,-18,12,0
1942,-88,-19,997,-19,-5,-6
1943,-23,-36,998,-18,-17,-8
1944,82,-28,1008,-12,-18,-9
1945,88,-27,1008,-11,-5,-8
1946,42,-10,999,-10,12,-5
1947,-44,0,992,-13,22,-3
1948,-111,1,986,-18,13,-1
1949,-92,-19,1001,-17,-3,-4
1950,-32,-29,986,-17,-16,-8
1951,69,-29,1006,-15,-19,-10
1952,91,-32,1010,-12,-5,-10
1953,50,-13,1006,-11,11,-6
1954,-28,0,987,-12,18,-3
1955,-105,1,987,-17,15,-1
1956,-100,-15,998,-19,0,-4
1957,-42,-24,989,-18,-14,-7
1958,59,-31,1005,-15,-17,-10
1959,86,-38,1007,-12,-7,-8
1960,63,-11,1002,-9,8,-6
1961,-19,1,997,-12,19,-4
1962,-105,-1,992,-16,17,-1
1963,-103,-15,987,-19,2,-5
1964,-50,-24,994,-18,-12,-7
1965,47,-33,1009,-14,-18,-10
1966,84,-36,1001,-12,-9,-10
1967,77,-9,999,-10,6,-7
1968,-12,-2,996,-13,20,-3
1969,-93,-2,1000,-16,19,-1
1970,-107,-14,982,-18,4,-3
1971,-62,-20,993,-17,-10,-5
1972,33,-36,1006,-14,-20,-10
1973,89,-33,1009,-11,-11,-8
1974,84,-9,998,-10,4,-7
1975,-4,-6,998,-13,18,-4
1976,-81,-3,997,-16,18,-3
1977,-115,-8,979,-19,8,-1
1978,-69,-19,1006,-18,-7,-5
1979,17,-38,1004,-15,-19,-9
1980,86,-32,1000,-11,-14,-10
1981,91,-15,1004,-11,0,-8
1982,8,-5,1001,-12,16,-4
1983,-66,-2,996,-16,18,-1
1984,-118,-3,976,-18,11,-2
1985,-76,-17,1005,-16,-7,-5
1986,0,-36,999,-16,-18,-9
1987,82,-30,1005,-13,-15,-10
1988,94,-21,1002,-12,0,-8
1989,20,-7,1000,-12,16,-5
1990,-51,5,994,-14,18,-3
1991,-118,0,981,-18,10,0
1992,-82,-20,1000,-18,-5,-5
1993,-20,-39,999,-17,-16,-8
1994,78,-29,1007,-12,-18,-9
1995,93,-25,1009,-11,-4,-8
1996,30,-7,996,-12,13,-4
1997,-38,-1,992,-13,20,-3
1998,-113,4,987,-17,14,0
1999,-92,-20,997,-18,-3,-5
2000,-26,-30,991,-15,-15,-7
2001,69,-29,1004,-12,-17,-8
2002,90,-29,1012,-11,-5,-9
2003,45,-15,1007,-11,12,-5
2004,-31,1,986,-13,20,-2
2005,-112,-3,986,-16,16,1
2006,-95,-18,996,-18,-2,-4
2007,-34,-29,993,-18,-15,-7
2008,60,-28,1002,-14,-18,-9
2009,87,-30,1011,-12,-7,-9
2010,61,-7,1001,-12,8,-5
2011,-23,-1,993,-14,18,-3
2012,-103,-3,991,-17,16,-1
2013,-102,-18,990,-18,2,-2
2014,-46,-20,992,-16,-12,-5
2015,49,-36,1009,-15,-18,-10
2016,84,-32,1003,-12,-9,-9
2017,77,-6,1002,-11,5,-6
2018,-15,-3,998,-14,19,-2
2019,-93,0,998,-16,17,0
2020,-106,-17,984,-17,3,-3
2021,-57,-20,993,-16,-12,-5
2022,36,-38,1006,-14,-19,-9
2023,89,-30,1008,-11,-9,-9
2024,81,-9,998,-12,5,-6
2025,-7,-2,999,-12,18,-5
2026,-83,-5,992,-16,17,-1
2027,-107,-8,984,-18,6,-3
2028,-67,-23,1002,-18,-8,-4
2029,25,-37,1004,-15,-17,-9
2030,85,-31,1003,-11,-13,-10
2031,87,-13,1001,-18,2,-6
2032,4,-3,1000,-16,16,-4
2033,-73,-1,996,-13,19,-2
2034,-110,-6,975,-19,9,-3
2035,-73,-23,1010,-18,-7,-4
2036,5,-38,996,-15,-16,-8
2037,87,-30,1008,-11,-14,-11
2038,88,-17,1001,-9,0,-8
2039,14,-3,998,-12,16,-3
2040,-56,0,996,-15,17,-1
2041,-116,0,978,-16,10,-1
2042,-75,-25,1000,-20,-7,-5
2043,-12,-40,1003,-16,-15,-7
2044,79,-27,1004,-11,-15,-9
2045,91,-23,1009,-9,-3,-9
2046,27,-8,996,-10,15,-6
2047,-48,3,996,-14,19,-3
2048,-111,1,982,-19,13,-2
2049,-84,-19,1004,-19,-4,-5
2050,-22,-35,986,-17,-15,-8
2051,68,-29,1010,-13,-17,-9
2052,90,-29,1008,-12,-4,-10
2053,37,-9,1004,-11,12,-6
2054,-31,6,986,-15,20,-3
2055,-112,0,987,-16,15,-1
2056,-91,-22,1001,-19,-3,-5
2057,-36,-32,987,-17,-14,-8
2058,65,-32,1005,-13,-18,-11
2059,87,-27,1010,-12,-6,-10
2060,55,-6,1005,-10,10,-6
2061,-24,7,992,-15,18,-3
2062,-103,3,993,-20,15,-1
2063,-99,-24,989,-20,1,-5
2064,-46,-28,995,-17,-12,-7
2065,53,-38,1003,-11,-19,-11
2066,83,-34,1005,-10,-9,-10
2067,69,0,1000,-10,7,-7
2068,-18,1,996,-14,20,-5
2069,-92,0,999,-18,17,-2
2070,-100,-17,982,-21,2,-3
2071,-50,-27,993,-19,-12,-6
2072,38,-40,1007,-16,-19,-9
2073,78,-37,1007,-12,-8,-11
2074,74,-8,1000,-10,3,-8
2075,-10,2,996,-12,17,-3
2076,-80,3,997,-17,18,-1
2077,-104,-11,983,-21,5,-4
2078,-62,-23,1000,-20,-9,-6
2079,25,-44,1005,-14,-17,-10
2080,82,-33,1001,-12,-11,-10
2081,80,-11,1000,-9,2,-9
2082,0,-4,1000,-13,15,-4
2083,-70,1,992,-15,17,-3
2084,-104,-7,981,-19,8,-4
2085,-68,-20,1005,-18,-8,-7
2086,8,-40,999,-17,-17,-11
2087,80,-29,1002,-11,-13,-12
2088,85,-16,1005,-11,0,-10
2089,9,-6,998,-12,16,-6
2090,-59,4,994,-15,16,-4
2091,-109,0,977,-20,9,-3
2092,-70,-22,1002,-19,-7,-7
2093,-8,-38,998,-18,-16,-10
2094,77,-28,1009,-15,-14,-12
2095,88,-22,1003,-13,0,-10
2096,19,-5,997,-13,14,-5
2097,-48,6,992,-17,17,-5
2098,-107,0,986,-22,10,-3
2099,-76,-23,998,-21,-5,-6
2100,-21,-38,993,-20,-15,-10
2101,74,-28,1007,-14,-15,-11
2102,82,-31,1008,-14,-2,-10
2103,32,-6,1002,-13,12,-6
2104,-39,4,989,-16,19,-6
2105,-105,2,988,-19,12,-4
2106,-81,-23,1000,-22,-4,-7
2107,-26,-31,989,-20,-14,-8
2108,64,-28,1004,-16,-17,-12
2109,79,-30,1008,-13,-5,-11
2110,43,-11,1005,-14,9,-7
2111,-29,2,991,-17,15,-4
2112,-96,-4,989,-18,13,-3
2113,-87,-22,998,-20,-2,-5
2114,-35,-27,992,-18,-12,-8
2115,54,-34,1004,-15,-16,-10
2116,73,-35,1007,-11,-6,-9
2117,60,-6,996,-10,6,-7
2118,-21,0,996,-14,17,-4
2119,-90,0,999,-17,15,-1
2120,-89,-17,986,-18,2,-5
2121,-47,-22,991,-18,-13,-6
2122,44,-39,1006,-16,-18,-11
2123,79,-37,1009,-12,-8,-11
2124,66,-9,996,-11,5,-8
2125,-15,-4,998,-12,17,-6
2126,-81,1,997,-14,15,-2
2127,-94,-9,984,-20,3,-4
2128,-54,-24,998,-18,-10,-6
2129,27,-43,1005,-14,-17,-10
2130,74,-37,1002,-12,-10,-10
2131,76,-9,1001,-10,2,-7
2132,-5,-2,1000,-11,16,-5
2133,-70,7,992,-16,17,-3
2134,-103,-8,982,-20,7,-3
2135,-59,-21,1005,-18,-9,-6
2136,12,-41,1001,-17,-17,-9
2137,78,-32,1000,-12,-12,-10
2138,77,-17,1005,-12,1,-9
2139,4,-4,997,-16,14,-5
2140,-64,-2,997,-16,17,-3
2141,-101,-4,975,-18,6,-2
2142,-70,-26,1005,-20,-8,-5
2143,2,-43,1001,-18,-16,-9
2144,71,-32,1003,-14,-11,-8
2145,80,-22,1003,-11,0,-8
2146,15,-5,995,-11,14,-5
2147,-46,0,994,-15,17,-2
2148,-95,-5,984,-19,8,-1
2149,-69,-26,997,-16,-6,-4
2150,-14,-38,997,-17,-14,-7
2151,66,-21,1002,-12,-15,-8
2152,70,-20,1006,-12,-2,-8
2153,20,-4,999,-13,12,-5
2154,-38,-2,989,-16,16,-4
2155,-96,-2,990,-17,12,-1
2156,-66,-26,1003,-18,-3,-3
2157,-20,-36,986,-18,-12,-7
2158,61,-28,1003,-12,-13,-9
2159,68,-30,1009,-11,-2,-7
2160,32,-5,1003,-10,11,-5
2161,-31,5,990,-15,16,-4
2162,-95,2,987,-16,13,-2
2163,-77,-20,1001,-20,-2,-6
2164,-27,-29,993,-18,-11,-8
2165,51,-32,1004,-14,-14,-11
2166,66,-36,1005,-11,-6,-10
2167,47,-5,1000,-8,9,-7
2168,-23,2,993,-15,15,-5
2169,-88,3,998,-17,12,-3
2170,-85,-16,994,-19,0,-5
2171,-35,-21,991,-19,-11,-7
2172,43,-36,1008,-14,-16,-10
2173,66,-36,1003,-12,-7,-10
2174,58,-6,996,-11,6,-6
2175,-13,-2,999,-14,16,-4
2176,-83,-1,999,-17,15,-1
2177,-87,-15,986,-18,2,-4
2178,-46,-23,996,-17,-9,-6
2179,36,-42,1007,-16,-16,-10
2180,74,-44,1004,-11,-8,-9
2181,70,-12,998,-10,4,-6
2182,-16,-1,999,-10,15,-3
2183,-77,12,991,-14,14,-2
2184,-100,0,989,-20,4,-2
2185,-55,-15,1002,-20,-9,-5
2186,21,-41,1006,-19,-15,-8
2187,77,-46,999,-15,-11,-8
2188,73,-28,998,-9,2,-7
2189,-2,-13,1000,-11,15,-4
2190,-67,2,994,-13,16,-2
2191,-92,2,981,-20,7,-2
2192,-60,-13,1007,-18,-7,-4
2193,6,-39,1001,-18,-16,-8
2194,69,-33,1003,-14,-12,-10
2195,70,-26,1002,-10,0,-8
2196,7,-13,997,-11,14,-5
2197,-51,0,995,-14,15,-4
2198,-94,0,981,-18,9,-1
2199,-62,-17,1003,-18,-5,-4
2200,-7,-38,1004,-17,-15,-7
2201,66,-26,1004,-13,-13,-9
2202,72,-19,1006,-10,0,-9
2203,19,-4,996,-13,10,-4
2204,-41,1,995,-15,15,-3
2205,-100,2,989,-18,10,-4
2206,-68,-23,1000,-20,-4,-8
2207,-12,-38,995,-18,-15,-6
2208,67,-27,1000,-14,-14,-10
2209,72,-35,1011,-10,-2,-9
2210,24,-4,1003,-10,11,-3
2211,-36,-5,985,-15,15,-4
2212,-86,-12,992,-18,10,-1
2213,-68,-28,1003,-16,-4,-5
2214,-32,-21,991,-13,-11,-7
2215,46,-8,1002,-10,-13,-9
2216,58,-13,1010,-13,-4,-10
2217,37,-4,1003,-15,7,-8
2218,-16,-17,993,-19,13,-5
2219,-81,-24,988,-17,11,0
2220,-77,-37,996,-16,0,-5
2221,-33,-25,993,-13,-10,-8
2222,40,-19,1004,-12,-13,-8
2223,62,-16,1004,-11,-4,-10
2224,50,-2,1000,-13,7,-7
2225,-18,-4,993,-17,16,-3
2226,-80,-10,1000,-18,13,-1
2227,-83,-26,986,-19,1,-5
2228,-37,-27,990,-14,-11,-6
2229,35,-31,1008,-12,-14,-9
2230,67,-26,1006,-12,-6,-9
2231,61,0,996,-12,6,-7
2232,-19,2,997,-14,16,-4
2233,-82,-4,998,-20,13,-2
2234,-83,-23,988,-21,2,-4
2235,-47,-25,997,-18,-8,-5
2236,30,-41,1006,-15,-14,-9
2237,71,-26,1003,-11,-7,-7
2238,64,-6,1002,-12,3,-5
2239,-16,-2,993,-14,14,-3
2240,-69,-4,997,-16,14,0
2241,-93,-13,981,-19,4,-3
2242,-51,-23,1004,-18,-8,-4
2243,15,-36,1004,-16,-14,-9
2244,70,-24,997,-13,-10,-10
2245,65,-12,1001,-11,2,-7
2246,-5,-7,997,-14,14,-4
2247,-56,-2,993,-16,14,-1
2248,-91,-9,982,-20,5,-2
2249,-57,-16,1002,-17,-7,-5
2250,4,-36,1007,-17,-13,-8
2251,65,-26,999,-13,-10,-8
2252,70,-16,1004,-13,0,-8
2253,12,-11,996,-15,12,-4
2254,-43,-5,995,-15,14,-3
2255,-90,-13,983,-19,8,-3
2256,-68,-34,1000,-18,-4,-6
2257,-10,-36,1002,-14,-13,-8
2258,61,-25,1005,-13,-13,-10
2259,66,-19,1005,-10,-2,-11
2260,20,-6,998,-13,11,-6
2261,-44,0,991,-13,16,-7
2262,-88,-11,988,-19,8,-2
2263,-59,-27,1005,-17,-4,-3
2264,-16,-37,984,-13,-12,-9
2265,61,-23,1005,-10,-12,-9
2266,58,-21,1012,-10,-2,-7
2267,22,0,998,-11,9,-5
2268,-32,3,994,-16,14,-3
2269,-86,-2,981,-19,9,-1
2270,-68,-30,1005,-19,-2,-4
2271,-23,-38,988,-16,-12,-7
2272,51,-33,1000,-12,-12,-8
2273,60,-28,1011,-10,-3,-9
2274,36,-1,999,-10,6,-5
2275,-24,5,995,-13,14,-3
2276,-87,-1,995,-19,11,-1
2277,-71,-25,996,-20,-1,-4
2278,-29,-30,994,-17,-10,-6
2279,44,-38,1006,-15,-14,-8
2280,61,-38,1004,-11,-5,-9
2281,48,-1,996,-10,7,-5
2282,-19,1,999,-14,15,-4
2283,-80,0,1001,-16,13,-2
2284,-77,-21,989,-20,0,-4
2285,-39,-27,991,-18,-10,-7
2286,37,-43,1008,-14,-16,-10
2287,65,-35,1003,-12,-7,-9
2288,56,-6,998,-10,5,-7
2289,-16,2,996,-12,14,-4
2290,-76,2,996,-16,13,-2
2291,-81,-15,987,-19,3,-3
2292,-43,-27,996,-18,-7,-5
2293,25,-43,1005,-15,-12,-9
2294,69,-30,1001,-10,-7,-9
2295,55,-6,1000,-10,4,-7
2296,-10,2,995,-12,14,-4
2297,-68,3,998,-16,13,-2
2298,-83,-8,983,-19,5,-2
2299,-52,-27,1009,-18,-7,-6
2300,15,-42,1001,-16,-14,-9
2301,63,-27,1001,-11,-8,-9
2302,64,-14,1000,-11,2,-7
2303,-7,0,1000,-12,14,-4
2304,-55,4,992,-17,14,-1
2305,-87,-4,984,-18,5,-2
2306,-56,-24,1002,-19,-8,-3
2307,0,-42,1002,-19,-15,-8
2308,67,-32,1004,-13,-10,-9
2309,62,-19,1000,-12,0,-6
2310,6,-5,993,-13,12,-2
2311,-43,2,999,-15,14,-3
2312,-87,-2,981,-19,7,-2
2313,-60,-20,1003,-18,-5,-4
2314,-6,-42,999,-17,-13,-8
2315,60,-28,1000,-12,-10,-9
2316,65,-25,1007,-11,-1,-7
2317,17,-8,981,-10,10,-4
2318,-30,-7,1001,2,19,-4
2319,-105,0,990,-19,10,-1
2320,-45,-26,1019,-17,-7,-6
2321,-22,-38,975,-15,-10,-6
2322,57,-22,1010,-19,-13,-9
2323,65,-30,1016,-6,-3,-9
2324,23,-16,970,-9,6,-3
2325,-23,2,971,-7,9,-2
2326,-107,-15,972,-23,7,-1
2327,-45,-13,1038,-20,-6,-6
2328,-18,-38,966,-19,-7,-7
2329,41,-10,1036,-26,-15,-8
2330,61,-45,973,-19,-6,-7
2331,24,-8,1012,-4,4,-5
2332,-26,12,964,-12,9,-1
2333,-92,-29,902,-26,10,-2
2334,-63,1,1034,-13,-2,-5
2335,-14,-43,964,-15,-12,-8
2336,16,2,1042,-12,-14,-5
2337,80,-68,902,-11,-12,-9
2338,23,14,1068,-4,4,-5
2339,-14,-3,947,-8,11,-2
2340,-90,-39,879,-11,10,-2
2341,-73,25,1003,-8,-1,-6
2342,-12,-49,955,-26,-7,-7
2343,-10,-8,1052,-1,-5,-5
2344,99,-84,877,-9,-4,-12
2345,15,37,1048,-14,13,-7
2346,-8,0,858,-15,15,-2
2347,-80,-58,868,-22,9,1
2348,-85,27,1021,-20,-1,-3
2349,-13,-36,984,-10,-3,-7
2350,-31,-30,984,-8,-8,-6
2351,108,-70,922,-10,-18,-14
2352,27,-1,992,-2,15,-10
2353,-4,-27,726,-14,12,0
2354,-48,-6,781,-13,11,-4
2355,-92,20,918,-14,3,-3
2356,-24,-40,1002,-29,-7,-7
2357,-23,-38,942,-12,-3,-7
2358,77,-10,968,-2,-6,-11
2359,27,-15,1055,-24,1,-7
2360,-4,-60,846,-19,8,-3
2361,-45,-6,893,-15,17,-8
2362,-102,9,943,-12,9,-1
2363,-25,-24,1001,-18,-6,-6
2364,-26,-48,975,-15,-11,-8
2365,69,-25,989,-9,-13,-7
2366,43,-28,971,-10,-5,-12
2367,28,-35,875,-13,3,-3
2368,-22,10,852,-7,12,-2
2369,-115,3,905,-20,7,2
2370,-33,-20,1025,-16,-7,-8
2371,-19,-51,963,-24,-7,-8
2372,42,17,1006,-11,-4,-5
2373,44,-45,961,-13,-2,-7
2374,27,-24,950,-7,5,-3
2375,-31,-20,868,-25,15,-4
2376,-121,-32,911,-25,12,2
2377,-35,6,1030,-13,-2,-5
2378,-10,-37,978,-3,-6,-6
2379,2,5,1029,3,-9,0
2380,93,-114,845,-18,-9,-13
2381,5,1,859,-12,11,-2
2382,-9,-73,753,-21,25,-3
2383,-82,-58,708,-29,15,-1
2384,-62,31,1003,-3,-5,-5
2385,16,-27,882,-36,-15,-6
2386,-54,7,900,-10,-9,0
2387,144,-123,773,-16,-14,-15
2388,6,-2,847,-3,10,-3
2389,-34,10,632,-20,5,0
2390,-42,-43,692,-22,2,-3
2391,-80,39,929,-15,2,-5
2392,25,-21,834,-8,1,-5
2393,-74,-50,777,-8,-2,-2
2394,146,-60,799,-37,-20,-12
2395,4,-14,824,2,11,-4
2396,-31,-8,613,-21,3,3
2397,-11,-18,652,-9,11,-7
2398,-122,37,848,-15,6,0
2399,16,-9,857,-25,-11,-7
2400,-49,-100,750,-5,-5,-6
2401,94,10,826,-2,-15,-9
2402,43,-66,780,-18,9,-11
2403,4,-112,600,-3,7,0
2404,17,-8,658,-20,17,-11
2405,-146,-13,828,-24,17,0
2406,3,5,944,0,-7,-5
2407,-17,-81,776,-14,-10,-7
2408,28,42,810,-11,-17,0
2409,75,-115,720,-3,0,-13
2410,12,-60,673,-19,14,-3
2411,-14,21,704,-43,11,-2
2412,-105,-55,923,-6,12,0
2413,-22,10,981,-25,-10,-7
2414,0,-44,824,-22,1,-8
2415,-41,51,896,-9,-3,-5
2416,115,-136,652,-30,-12,-15
2417,-21,17,813,16,5,1
2418,0,10,725,-9,13,-5
2419,-97,-88,703,-27,17,-2
2420,-52,43,981,7,-5,-4
2421,5,-54,845,-27,-10,-5
2422,-67,-11,838,5,-7,-2
2423,134,-126,723,-12,-10,-16
2424,-16,43,864,-8,7,-3
2425,11,24,810,-1,5,0
2426,-58,-91,773,-9,9,-9
2427,-92,40,972,-28,5,-2
2428,14,-49,849,-19,-2,-6
2429,-61,-71,780,-16,-8,-6
2430,99,-43,804,-5,-11,-15
2431,2,-37,801,14,14,-10
2432,-12,-46,671,-29,16,1
2433,11,-57,696,-24,11,-4
2434,-132,22,977,-1,8,-1
2435,13,-18,910,-34,-16,-6
2436,-41,-90,759,-6,-4,-5
2437,54,19,854,-7,-14,-7
2438,44,-98,738,-26,-7,-10
2439,0,-70,667,-8,9,0
2440,-7,12,651,-32,21,-6
2441,-115,-24,903,-24,12,-1
2442,-1,-3,964,7,-9,-4
2443,-2,-70,831,-25,-13,-7
2444,-15,39,913,7,-5,1
2445,84,-152,673,-40,-9,-16
2446,-36,6,792,-8,12,-4
2447,-23,25,737,5,10,-2
2448,-48,-93,725,-47,6,-1
2449,-45,34,1020,5,1,-7
2450,23,-66,801,-39,-10,-8
2451,-67,16,872,-25,-14,0
2452,130,-134,748,-3,-10,-16
2453,-24,64,822,-2,15,-5
2454,19,44,673,-25,15,-2
2455,-43,-71,633,-1,6,-7
2456,-99,66,863,-22,1,-3
2457,19,-19,886,-18,-5,-8
2458,-66,-35,831,-18,-3,-2
2459,105,-1,819,-10,-20,-15
2460,39,-18,833,10,17,-11
2461,-9,-132,487,-36,13,-1
2462,-31,-32,572,-2,16,-11
2463,-151,-26,746,-6,5,1
2464,25,-20,922,-31,-17,-6
2465,-27,-86,806,2,-1,-8
2466,0,11,876,-34,-11,-1
2467,53,-70,708,-6,-6,-11
2468,0,-76,577,-8,2,0
2469,28,139,682,-34,7,-8
2470,-85,-88,584,7,11,-1
2471,-20,47,921,-11,-9,-5
2472,5,7,826,-31,-11,-9
2473,-10,70,928,2,4,1
2474,141,-152,547,-38,-18,-15
2475,-18,-30,706,31,2,-4
2476,-45,23,626,-46,16,-7
2477,-10,-58,648,-31,7,-8
2478,-61,72,856,38,1,-7
2479,39,-61,792,-50,-13,-5
2480,-72,0,825,8,2,-1
2481,134,-26,676,-26,-18,-16
2482,4,-53,746,-22,22,-5
2483,-43,-79,484,8,8,8
2484,0,-76,524,-7,7,-8
2485,-139,1,733,-10,5,2
2486,23,-41,838,-27,-16,-2
2487,-40,-54,827,-12,-1,-8
2488,64,80,802,0,-8,-9
2489,64,-134,653,-32,9,-10
2490,20,-130,513,-7,-1,4
2491,-28,-31,521,41,10,-8
2492,-140,-32,643,-27,10,3
2493,-10,14,880,-6,-12,-4
2494,25,-61,803,-27,-10,-10
2495,-13,66,883,4,2,3
2496,116,-188,457,-38,-11,-17
2497,28,-50,588,-13,2,-5
2498,-56,-55,630,-23,33,0
2499,0,-40,544,-46,9,-6
2500,-66,61,776,31,2,-7
2501,37,-36,780,-51,-9,-7
2502,-45,-66,789,-23,-1,0
2503,125,-71,517,-23,-11,-15
2504,-75,-32,594,-1,20,-8
2505,38,-28,607,13,21,4
2506,25,1,468,-9,7,-12
2507,-35,118,548,-27,-1,0
2508,39,-24,741,-18,-7,-1
2509,-2,-65,791,-42,-7,-5
2510,82,-70,644,4,-19,-5
2511,33,-30,686,-41,14,-11
2512,69,-180,355,-32,3,1
2513,26,37,382,-1,4,-9
2514,-70,-76,503,-33,18,-1
2515,-21,10,728,16,-10,-6
2516,25,-58,752,-50,-15,-10
2517,9,-41,817,-9,0,1
2518,69,-115,394,-46,1,-14
2519,-37,-6,577,-15,15,-6
2520,81,58,701,6,4,-2
2521,30,-103,422,-41,6,-5
2522,-81,130,605,32,6,-7
2523,20,-26,745,-52,-14,-6
2524,-35,6,869,9,-3,-2
2525,154,-69,612,-12,-16,-11
2526,-21,-52,687,-21,3,1
2527,16,-73,605,-13,11,-2
2528,-50,-5,603,-23,15,-8
2529,-56,98,542,-8,2,-1
2530,-13,-24,771,-28,-9,-3
2531,-16,-27,904,-24,-8,-9
2532,48,-26,802,-8,-7,-8
2533,18,-27,754,-33,2,-11
2534,28,-77,647,-7,6,-5
2535,-55,9,642,9,13,-8
2536,-61,35,599,-17,5,-1
2537,-40,5,802,-11,-6,-5
2538,8,-41,844,-23,-6,-7
2539,-21,-28,950,-5,-1,-1
2540,83,-55,632,-21,-10,-11
2541,4,13,783,5,6,-2
2542,-45,-35,657,-36,16,-1
2543,-34,39,587,-23,5,0
2544,-67,2,743,-3,2,-7
2545,18,-62,834,-35,-12,-7
2546,-51,-39,892,-3,-2,-3
2547,94,-52,801,-34,-14,-12
2548,-6,72,736,-11,18,-8
2549,22,-158,521,-26,9,0
2550,-14,80,638,17,-1,-9
2551,-108,-103,610,-13,4,1
2552,0,-27,865,-28,-6,-4
2553,-7,-58,873,3,-5,-8
2554,40,15,878,-20,-14,-5
2555,33,-11,556,4,-2,-8
2556,20,-61,537,-25,-3,-1
2557,49,51,704,-35,18,-2
2558,-88,-115,499,-4,8,1
2559,-66,51,788,-25,-4,-5
2560,22,-43,781,-13,-5,-8
2561,-47,13,900,-16,-4,3
2562,125,-75,567,-34,-16,-12
2563,-43,59,574,-13,13,-3
2564,9,3,708,-28,22,0
2565,20,-17,656,-1,12,-6
2566,-95,52,603,-13,2,-2
2567,8,-33,818,-19,-9,-5
2568,-44,-13,848,-9,-3,-5
2569,96,15,783,-24,-10,-8
2570,-37,16,612,-17,13,-8
2571,33,12,590,-21,8,-2
2572,22,27,805,12,19,-9
2573,-87,-20,539,-38,4,-1
2574,-29,8,825,6,-3,-5
2575,-8,-24,892,-23,-9,-9
2576,13,53,874,-19,-7,-2
2577,58,-51,507,-30,2,-12
2578,-17,17,657,-19,10,-5
2579,11,103,802,13,18,-7
2580,-18,-130,552,-43,3,-4
2581,-73,78,751,11,0,-5
2582,17,-47,839,-28,-10,-5
2583,-65,48,902,-20,-7,-1
2584,126,-64,648,-22,-11,-16
2585,-37,36,601,-16,16,-6
2586,-5,21,691,5,9,-3
2587,19,-11,714,-7,12,-9
2588,-81,51,587,-7,3,-2
2589,9,-48,828,-14,-8,-6
2590,-41,-25,902,-24,-5,-7
2591,64,65,800,-4,-6,-9
2592,3,4,563,-30,8,-10
2593,22,-30,632,-3,6,-6
2594,6,85,808,12,27,-8
2595,-91,-51,599,-23,11,0
2596,-37,29,810,2,-5,-7
2597,22,-52,878,-34,-9,-9
2598,-28,55,906,0,1,-2
2599,87,-36,517,-36,-12,-11
2600,-2,43,680,-10,4,-5
2601,-28,63,776,-24,24,-2
2602,-33,-79,703,-16,10,-1
2603,-90,72,717,7,3,-5
2604,26,-56,811,-37,-10,-5
2605,-56,-23,882,4,1,0
2606,94,4,754,-32,-15,-10
2607,-29,75,583,-4,10,0
2608,26,6,556,-37,8,-1
2609,-24,5,757,-24,14,-7
2610,-131,-18,596,-8,8,-2
2611,5,-14,832,-27,-11,-5
2612,-7,-60,863,-10,-7,-8
2613,34,70,854,-20,-12,-3
2614,25,26,482,-7,-4,-8
2615,9,-26,504,-25,-6,0
2616,-7,72,664,-16,2,-5
2617,-106,-122,562,-20,3,-1
2618,-69,47,807,-16,0,-7
2619,36,-49,745,-6,-5,-10
2620,-76,30,852,-17,-3,2
2621,119,-60,594,-29,-13,-19
2622,-40,107,567,-3,27,-7
2623,-62,38,495,-21,25,0
2624,-71,-28,626,4,14,-9
2625,-142,-27,711,-41,-1,-3
2626,20,-50,814,-5,-6,-6
2627,-47,-13,759,-25,-10,-5
2628,59,-4,799,-4,-12,-10
2629,-60,72,648,-8,16,-12
2630,34,-61,460,-7,1,-1
2631,-18,71,705,29,18,-12
2632,-112,42,641,-38,12,2
2633,-29,4,846,21,-5,-6
2634,12,-45,848,-36,-9,-10
2635,-17,46,820,-12,-8,0
2636,83,-43,514,-10,-1,-13
2637,-23,39,755,-3,7,-4
2638,-12,60,676,-1,13,-4
2639,-34,-117,658,-31,9,-2
2640,-91,108,744,26,1,-5
2641,29,-48,818,-42,-14,-7
2642,-65,-12,865,-12,-6,-2
2643,122,-63,727,-19,-13,-13
2644,-35,89,596,2,16,-7
2645,-24,22,434,-8,8,-1
2646,-118,11,681,-7,12,-9
2647,-143,-53,737,5,10,1
2648,4,-30,883,-44,-15,-5
2649,-8,-57,851,-4,-2,-8
2650,27,55,805,-4,-10,-8
2651,-22,-21,621,-22,7,-12
2652,37,-57,602,2,14,-5
2653,-40,96,619,3,28,-5
2654,-70,18,585,-7,12,2
2655,-49,34,876,-19,0,-6
2656,24,-37,766,-10,-1,-10
2657,-72,38,798,-7,0,3
2658,138,-108,502,-31,-17,-17
2659,-55,89,568,-2,3,1
2660,-65,10,598,-34,-1,2
2661,-80,-83,764,-7,-7,-10
2662,-137,32,690,-25,7,0
2663,37,-55,828,-17,-11,-8
2664,-69,-36,731,-13,-8,-3
2665,60,-5,800,-11,-14,-12
2666,-54,21,585,-24,25,-10
2667,36,-81,432,-14,3,3
2668,-23,81,676,-13,5,-8
2669,-117,39,565,-47,11,2
2670,-22,13,766,14,-4,-7
2671,27,-43,815,-34,-11,-10
2672,-56,46,802,-9,-4,1
2673,87,-121,383,-21,-1,-16
2674,-24,89,594,4,15,-6
2675,-140,69,455,-28,10,3
2676,-103,-71,652,-37,1,-2
2677,-116,55,774,26,1,-7
2678,46,-61,711,-54,-20,-9
2679,-96,-43,675,4,2,-1
2680,140,-5,638,-16,-21,-20
2681,-45,16,606,-24,4,1
2682,-19,-39,421,-24,2,-1
2683,-126,-53,724,3,7,-16
2684,-183,-14,610,-6,2,2
2685,27,-20,765,-22,-10,-7
2686,-8,-67,764,-11,-1,-9
2687,13,72,716,-17,-12,0
2688,41,-81,413,-21,3,-16
2689,11,-63,733,-15,18,0
2690,-65,13,754,15,8,-2
2691,-129,-167,561,-52,2,-3
2692,-71,89,771,6,-1,-6
2693,60,-75,684,-4,-4,-13
2694,-127,19,666,-32,-4,4
2695,157,-83,621,-12,-11,-17
2696,-55,27,818,-4,29,-5
2697,-47,-73,545,-6,8,4
2698,-32,-94,777,-14,1,-13
2699,-157,43,625,-2,3,-1
2700,39,-59,717,-27,-8,-5
2701,-48,-69,777,-18,2,-7
2702,55,63,705,7,-11,-8
2703,19,-65,502,-20,1,-5
2704,-4,-29,729,-7,-3,-2
2705,-121,10,706,-13,20,-8
2706,-158,-132,688,-4,12,4
2707,-33,52,811,-18,-9,-8
2708,31,-41,676,-29,-6,-12
2709,-89,23,797,-8,0,7
2710,165,-131,616,-20,-19,-20
2711,-61,105,743,-9,24,0
2712,-76,128,472,-1,26,2
2713,-36,-80,667,7,13,-12
2714,-180,50,763,-29,2,0
2715,61,-64,733,-5,-10,-9
2716,-78,-54,683,-35,-8,-4
2717,38,50,940,-22,-17,-7
2718,-46,-38,678,-16,16,-8
2719,35,-105,516,-39,-7,2
2720,-21,85,836,-21,30,-8
2721,-105,-53,568,-11,7,1
2722,-14,72,703,3,-12,-9
2723,35,-75,670,-39,-6,-13
2724,-84,63,810,13,3,3
2725,150,-171,450,-32,-18,-23
2726,-40,78,798,29,13,-3
2727,-117,66,564,-11,-3,1
2728,-56,-165,691,-5,-6,-12
2729,-150,46,808,-20,12,-2
2730,65,-66,668,-30,-10,-10
2731,-99,-43,625,-2,-5,-1
2732,102,17,940,4,-18,-14
2733,-69,-29,714,-4,13,-2
2734,48,-125,443,-24,-17,3
2735,-15,0,880,15,4,-13
2736,-143,-37,581,-32,12,4
2737,0,41,712,23,-6,-8
2738,28,-48,685,-35,-9,-14
2739,-73,41,841,6,-2,6
2740,136,-179,527,-13,-12,-18
2741,-76,82,772,12,-5,-3
2742,-50,184,555,-18,-4,-2
2743,-30,-92,626,7,1,-10
2744,-109,114,689,-10,7,-4
2745,74,-88,684,-17,-2,-10
2746,-118,-51,692,-5,5,3
2747,148,-2,800,-35,-17,-18
2748,-76,32,703,-13,22,-9
2749,40,-41,387,-10,14,0
2750,-33,82,843,-3,22,-10
2751,-164,-31,689,-56,0,7
2752,8,-20,818,4,-16,-12
2753,14,-50,691,-21,-6,-15
2754,-52,66,940,-7,-1,6
2755,132,-173,538,6,-7,-21
2756,-39,64,747,13,3,-2
2757,-48,101,697,-9,10,1
2758,-55,-152,701,11,6,-12
2759,-109,70,839,-3,3,-4
2760,59,-100,704,-38,-3,-7
2761,-100,-34,757,9,2,2
2762,147,-10,903,-7,-16,-16
2763,-73,22,854,-18,21,-3
2764,58,-65,470,-13,-2,1
2765,-33,40,848,37,18,-15
2766,-132,-40,766,-39,6,5
2767,9,-16,950,7,-10,-9
2768,-2,-41,788,-29,-6,-8
2769,-16,40,963,-4,2,5
2770,107,-153,665,-18,-3,-18
2771,-18,57,842,-7,2,0
2772,-39,78,740,-5,16,-2
2773,-53,-123,725,2,7,-8
2774,-89,67,902,7,5,-4
2775,48,-94,793,-41,-9,-4
2776,-85,-30,862,0,-1,3
2777,139,-16,879,-8,-15,-15
2778,-68,31,920,-13,22,-2
2779,55,-79,510,-14,-6,1
2780,-39,32,859,48,14,-15
2781,-137,-38,794,-32,9,5
2782,12,-20,970,17,-6,-8
2783,1,-43,794,-28,-4,-7
2784,-23,58,959,-13,-6,5
2785,105,-157,635,-15,-7,-13
2786,-20,60,866,8,6,1
2787,-50,60,727,-15,6,0
2788,-48,-158,731,-9,-1,-8
2789,-97,68,894,-10,0,-4
2790,70,-106,752,-44,-5,-9
2791,-103,-34,788,7,5,3
2792,147,-4,868,-26,-32,-16
2793,-82,29,876,-4,16,1
2794,56,-91,438,-16,-16,2
2795,-29,30,883,31,3,-18
2796,-149,-57,773,-54,16,6
2797,22,-22,930,9,-13,-11
2798,2,-53,744,-31,-8,-11
2799,-42,71,944,-1,1,4
2800,128,-179,589,0,-1,-20
2801,-37,73,798,13,7,-3
2802,-39,109,666,1,17,0
2803,-53,-150,716,2,7,-11
2804,-107,68,866,1,3,-5
2805,68,-107,717,-42,-11,-10
2806,-115,-40,783,1,-2,3
2807,151,-8,831,-17,-17,-19
2808,-76,12,854,-26,21,-6
2809,63,-52,398,-10,6,0
2810,-24,67,789,-19,9,-9
2811,-149,-24,737,-51,5,5
2812,9,-11,901,25,0,-11
2813,-2,-42,777,-28,-3,-13
2814,-33,56,966,-21,-6,4
2815,121,-177,576,-4,-9,-18
2816,-33,57,811,-10,10,0
2817,-23,100,655,-11,7,0
2818,-50,-100,644,15,2,-9
2819,-89,98,821,-27,-1,-3
2820,49,-85,757,-20,-4,-7
2821,-94,-22,880,-9,-1,4
2822,127,-8,844,-10,-15,-16
2823,-64,-11,937,-13,15,-6
2824,72,-93,454,-20,2,0
2825,-30,75,768,-28,17,-11
2826,-132,-1,666,-28,5,3
2827,7,5,915,15,-5,-12
2828,7,-43,828,-27,-3,-13
2829,-38,64,971,-18,-1,3
2830,113,-185,630,-17,-10,-15
2831,-25,49,884,-3,9,-2
2832,-22,35,645,-29,5,-2
2833,-35,-91,702,-4,-6,-3
2834,-99,92,753,-42,0,-1
2835,52,-85,776,-17,-3,-8
2836,-90,-22,885,-9,1,2
2837,125,9,913,-18,-18,-15
2838,-68,-22,923,5,20,-6
2839,60,-106,528,-13,2,1
2840,-40,55,833,16,26,-14
2841,-139,-23,726,-21,1,3
2842,5,3,918,-4,-12,-11
2843,21,-55,803,-27,-5,-12
2844,-40,66,945,-10,2,4
2845,116,-167,704,-24,-10,-17
2846,-45,62,930,-2,4,-4
2847,-29,46,669,-50,11,-2
2848,-46,-136,775,-16,-2,1
2849,-97,70,863,-49,-5,-4
2850,50,-83,791,-22,-4,-9
2851,-91,-28,863,-9,3,0
2852,138,0,890,-24,-19,-16
2853,-63,12,934,-1,15,-5
2854,56,-90,554,-17,-6,1
2855,-43,48,856,25,21,-13
2856,-126,-40,756,-23,7,4
2857,-4,-6,992,-2,-9,-9
2858,7,-53,812,-28,-6,-10
2859,-29,43,968,-5,3,2
2860,102,-158,685,-24,-6,-16
2861,-22,62,924,12,8,-3
2862,-11,66,696,-30,19,-5
2863,-46,-115,664,-9,4,-3
2864,-96,63,903,-34,4,-3
2865,38,-75,824,-18,-11,-11
2866,-78,-30,910,-8,-1,0
2867,127,-18,915,-37,-19,-12
2868,-38,-5,944,7,16,-5
2869,53,-81,525,-16,3,-4
2870,-35,67,808,-7,18,-9
2871,-114,-31,704,-15,11,6
2872,-14,1,980,-8,-14,-9
2873,12,-58,820,-34,-6,-10
2874,-27,27,1014,-1,0,0
2875,103,-155,692,-27,-11,-15
2876,-15,50,924,-8,15,-1
2877,-13,58,678,-8,6,1
2878,-42,-116,640,-8,5,-5
2879,-96,73,868,-22,11,-1
2880,43,-69,806,-5,-11,-11
2881,-76,-30,906,-13,-6,0
2882,122,-22,929,-22,-17,-14
2883,-38,-6,919,1,24,-3
2884,52,-81,493,-22,0,-1
2885,-36,68,806,10,16,-8
2886,-114,-27,686,-18,6,5
2887,-9,4,953,-12,-8,-9
2888,8,-56,811,-30,1,-9
2889,-33,33,1005,-2,0,1
2890,102,-160,676,-28,-12,-15
2891,-13,52,887,3,13,-2
2892,-13,75,645,-23,12,0
2893,-45,-120,635,-8,5,-6
2894,-98,69,862,-14,7,-1
2895,43,-75,789,-15,-12,-11
2896,-85,-33,888,-12,-3,0
2897,132,-20,933,-20,-15,-14
2898,-42,0,898,3,17,-4
2899,55,-75,471,-17,0,-5
2900,-38,72,812,-14,18,-10
2901,-114,-36,690,-28,7,6
2902,-10,5,949,-3,-12,-9
2903,12,-59,801,-26,-8,-11
2904,-34,34,1006,-1,0,3
2905,105,-155,672,-34,-11,-16
2906,-15,56,884,7,7,-4
2907,-20,84,665,-25,14,-6
2908,-47,-120,656,-4,5,-4
2909,-95,58,885,-28,2,-3
2910,38,-77,793,-17,-9,-9
2911,-79,-28,882,-6,-3,0
2912,132,-14,926,-24,-10,-12
2913,-49,13,894,-14,12,-6
2914,53,-81,518,-31,-5,0
2915,-43,63,851,-13,13,-9
2916,-119,-41,738,-21,2,2
2917,-10,-3,977,-3,-8,-8
2918,11,-57,805,-33,-6,-8
2919,-28,47,977,3,0,2
2920,105,-146,694,-24,-5,-17
2921,-20,65,944,-20,10,1
2922,-33,42,704,-20,4,2
2923,-44,-136,724,-15,6,-6
2924,-97,59,922,-21,9,-3
2925,40,-76,817,-15,-8,-9
2926,-77,-25,877,-11,-3,0
2927,127,-6,951,-17,-15,-13
2928,-62,21,915,0,18,-4
2929,53,-84,578,-18,-2,-4
2930,-47,44,888,-10,14,-12
2931,-127,-26,768,-38,8,4
2932,-6,2,979,1,-12,-9
2933,13,-56,831,-39,-13,-10
2934,-32,64,974,1,-1,3
2935,102,-152,725,-27,-3,-16
2936,-27,41,917,-8,6,-1
2937,-39,29,694,-21,6,2
2938,-33,-87,804,-8,4,-5
2939,-101,72,818,-16,6,-6
2940,41,-75,802,-21,-7,-10
2941,-75,-20,898,1,-2,-3
2942,117,-8,925,-28,-20,-16
2943,-58,-11,900,-5,16,-4
2944,64,-99,506,-12,-2,-5
2945,-41,72,804,-6,15,-12
2946,-121,-14,669,-34,9,3
2947,-9,3,908,5,-9,-8
2948,7,-48,842,-39,-13,-9
2949,-23,31,991,8,0,3
2950,101,-154,647,-28,-1,-16
2951,-21,38,857,-6,6,0
2952,-40,78,649,-21,5,2
2953,-37,-94,650,-11,-3,-6
2954,-88,76,812,-2,6,-6
2955,44,-79,755,-33,-8,-9
2956,-80,-31,898,2,2,0
2957,137,-28,899,-18,-21,-16
2958,-61,14,886,-17,13,-5
2959,60,-63,417,-11,3,-4
2960,-38,56,832,1,16,-12
2961,-116,-25,739,-55,5,4
2962,-3,-11,933,16,-5,-9
2963,2,-40,797,-37,-9,-9
2964,-15,43,1000,-9,-2,1
2965,97,-143,668,-5,-5,-15
2966,-8,51,888,-14,8,-1
2967,-51,30,738,-15,13,2
2968,-51,-142,725,-24,-5,-5
2969,-92,70,906,1,1,-6
2970,49,-88,784,-32,-10,-9
2971,-84,-19,865,2,3,0
2972,127,-7,958,-20,-17,-15
2973,-73,13,956,-17,14,-7
2974,56,-99,526,-23,3,-1
2975,-50,38,901,25,13,-12
2976,-128,-14,734,-58,-1,3
2977,5,-12,934,10,-6,-9
2978,-2,-30,813,-14,-7,-10
2979,-11,56,994,-29,-5,-1
2980,86,-155,692,-9,-5,-13
2981,-7,33,842,1,2,-3
2982,-36,39,733,-42,19,-5
2983,-39,-91,697,-25,12,-1
2984,-100,94,751,-6,-5,-5
2985,48,-82,772,-42,-14,-8
2986,-79,-18,916,9,4,1
2987,120,-37,848,-23,-16,-14
2988,-77,8,943,-4,19,-3
2989,62,-61,369,-19,-4,2
2990,-51,51,750,20,-1,-11
2991,-118,1,695,-40,11,5
2992,18,-16,866,-3,-8,-10
2993,-13,-31,802,-6,-7,-10
2994,5,26,1044,-30,-5,-1
2995,86,-145,562,-23,-1,-15
2996,-12,36,771,0,3,-5
2997,-37,100,726,-44,25,-7
2998,-39,-115,626,-24,13,-4
2999,-94,66,850,12,-3,-6
3000,44,-91,739,-53,-15,-7
3001,-85,-19,859,10,2,2
3002,136,-39,875,-22,-14,-15
3003,-73,39,906,-6,21,-1
3004,60,-87,452,-9,-8,2
3005,-64,-6,823,13,-6,-11
3006,-124,-24,812,-41,12,4
3007,21,-33,909,-8,-5,-10
3008,-18,-37,804,-5,-6,-10
3009,1,47,996,-27,-8,0
3010,80,-138,680,-30,-1,-15
3011,-23,20,813,-5,0,-3
3012,-41,28,772,-48,23,-6
3013,-47,-120,725,-45,8,-3
3014,-87,87,837,23,-3,-7
3015,47,-86,778,-65,-18,-9
3016,-85,-5,850,14,5,2
3017,124,-35,890,-23,-10,-16
3018,-69,8,966,-11,23,-5
3019,50,-99,477,-10,3,-3
3020,-49,28,863,22,5,-12
3021,-124,3,742,-29,11,3
3022,28,-23,867,-12,-6,-10
3023,-23,-36,830,-2,-4,-9
3024,10,57,1028,-21,-8,-4
3025,59,-148,701,-10,5,-14
3026,-10,18,816,9,9,-1
3027,-29,23,793,-17,11,-1
3028,-50,-93,672,-23,4,-3
3029,-81,81,819,13,-1,-5
3030,38,-75,819,-45,-9,-8
3031,-77,-6,957,3,3,1
3032,113,-53,886,-28,-18,-12
3033,-49,13,1018,-1,11,-4
3034,41,-80,504,-34,0,-6
3035,-46,27,767,4,5,-9
3036,-113,20,760,-31,6,3
3037,20,-24,909,-20,-8,-8
3038,-24,-38,881,5,-2,-8
3039,35,21,1074,-19,-8,-7
3040,45,-125,714,-9,4,-14
3041,7,9,819,7,8,-1
3042,-23,75,822,-6,18,-3
3043,-47,-106,573,-29,3,-3
3044,-76,71,910,13,-8,-6
3045,32,-73,812,-42,-12,-9
3046,-79,-8,946,-2,4,3
3047,134,-66,885,-27,-11,-14
3048,-47,45,1011,-13,15,-4
3049,37,-62,512,-18,6,0
3050,-51,-8,810,-4,5,-8
3051,-119,16,871,-9,7,1
3052,18,-31,929,-28,-9,-7
3053,-25,-39,882,-2,-5,-7
3054,34,51,1062,-22,-9,-1
3055,40,-95,771,-33,-4,-13
3056,0,5,865,-4,3,-2
3057,-44,56,893,-16,17,-1
3058,-54,-101,737,-43,-3,0
3059,-76,53,937,16,1,-7
3060,27,-71,848,-25,-9,-10
3061,-76,3,976,-13,-6,2
3062,126,-73,882,-18,-15,-13
3063,-36,28,1017,-15,10,-3
3064,23,-62,520,-42,4,-2
3065,-36,-25,764,-29,7,-7
3066,-109,40,799,-6,6,-1
3067,20,-33,859,-41,-11,-7
3068,-22,-43,914,-4,-2,-6
3069,52,15,1048,-15,-5,-2
3070,19,-84,750,-27,1,-10
3071,26,-19,769,-13,5,-1
3072,-50,77,877,-10,17,-2
3073,-74,-97,674,-33,1,-1
3074,-57,46,991,-3,-2,-7
3075,26,-66,820,-25,-12,-9
3076,-70,18,975,-16,-6,2
3077,127,-79,883,-14,-8,-16
3078,-42,44,1011,12,17,-5
3079,-1,-49,646,-16,9,-2
3080,-26,-17,837,-8,8,-9
3081,-109,41,827,3,2,1
3082,21,-47,884,-43,-14,-7
3083,-37,-39,955,-4,3,-7
3084,63,8,992,-14,-11,-6
3085,12,-66,773,-26,-4,-8
3086,39,-33,718,-17,0,-3
3087,-48,88,833,-20,19,-3
3088,-80,-84,685,-24,5,0
3089,-51,48,1000,-9,-4,-9
3090,18,-56,791,-14,-9,-10
3091,-55,14,998,-18,-5,0
3092,126,-97,868,-19,-5,-17
3093,-39,44,971,19,12,-2
3094,-14,-38,686,-25,3,-3
3095,-21,-39,824,-18,7,-8
3096,-114,58,802,-3,11,0
3097,27,-64,870,-18,-11,-8
3098,-45,-38,946,-15,-4,-6
3099,73,17,945,4,-4,-7
3100,3,-36,845,-14,10,-8
3101,35,-48,733,-8,3,-5
3102,-71,75,856,2,12,-9
3103,-81,-84,809,-12,7,3
3104,-40,31,1017,-22,-7,-7
3105,8,-48,828,-16,-4,-8
3106,-35,12,999,-3,-1,3
3107,106,-124,780,-24,-11,-15
3108,-21,45,865,15,16,-2
3109,-14,30,622,-21,11,-3
3110,-29,-65,681,-12,7,-10
3111,-112,57,852,-22,6,1
3112,32,-62,840,-7,-11,-8
3113,-53,-29,882,-24,-5,-4
3114,83,16,982,-10,-8,-9
3115,-13,-16,907,-5,14,-6
3116,30,-90,703,-11,-1,-5
3117,-45,69,889,-5,14,-10
3118,-92,-32,736,-29,10,3
3119,-28,21,911,-3,-11,-7
3120,17,-60,863,-33,-6,-9
3121,-32,37,970,3,-1,-1
3122,100,-126,702,-28,-13,-16
3123,-12,50,952,10,6,-4
3124,-45,27,726,-26,12,-7
3125,-49,-94,848,-9,6,-1
3126,-98,54,907,-15,6,-3
3127,34,-62,860,-24,-8,-7
3128,-66,-31,881,-2,0,-2
3129,119,-36,916,-26,-17,-15
3130,-40,15,836,-15,12,-6
3131,44,-54,462,-23,0,1
3132,-53,54,850,-6,13,-7
3133,-110,-24,779,-31,3,1
3134,-17,-12,932,-1,-4,-8
3135,2,-37,836,-24,-8,-11
3136,-7,29,1021,-14,-3,1
3137,77,-129,682,-18,-5,-14
3138,-6,21,854,-11,4,-4
3139,-32,66,699,-16,15,0
3140,-38,-83,680,-29,0,-3
3141,-89,68,837,-1,0,-5
3142,29,-75,774,-44,-11,-7
3143,-63,-19,888,10,2,0
3144,105,-25,939,-23,-14,-13
3145,-38,21,977,10,13,-2
3146,29,-99,572,-23,2,-5
3147,-47,28,847,-1,4,-9
3148,-112,12,756,-13,13,4
3149,15,-26,883,-19,-5,-6
3150,-13,-39,867,-1,-3,-8
3151,31,40,1011,-30,-12,-3
3152,47,-97,685,-24,-2,-13
3153,-1,3,903,-14,0,-2
3154,-26,33,886,-7,19,2
3155,-49,-99,734,-37,-2,-3
3156,-71,57,903,11,-3,-8
3157,29,-70,847,-36,-11,-9
3158,-82,-5,883,-9,-1,2
3159,138,-91,805,-20,-13,-14
3160,-38,67,923,1,18,-2
3161,0,-53,499,-24,1,-3
3162,-64,-56,832,-25,7,-11
3163,-121,28,879,2,6,1
3164,12,-30,864,-43,-15,-7
3165,-23,-46,896,5,-1,-8
3166,52,15,959,-15,-9,-6
3167,14,-79,650,-20,-1,-9
3168,33,-12,680,-5,3,-3
3169,-63,105,772,-12,14,-2
3170,-91,-71,659,-14,2,-1
3171,-55,40,959,-15,-1,-8
3172,27,-58,759,-12,-8,-11
3173,-65,7,953,-14,-3,3
3174,136,-114,841,-26,-12,-16
3175,-30,51,831,-4,18,-3
3176,-9,11,575,-8,8,0
3177,-33,-32,697,-28,11,-11
3178,-121,52,807,-10,7,0
3179,27,-70,821,-25,-15,-6
3180,-43,-33,900,-22,-6,-6
3181,59,33,955,-8,-5,-10
3182,2,-53,829,-17,5,-6
3183,33,-81,737,-7,1,-7
3184,-45,67,798,-30,13,-1
3185,-81,-61,703,-18,8,1
3186,-34,30,924,-11,-5,-7
3187,18,-50,818,-30,-10,-9
3188,-35,31,1001,-6,-3,1
3189,113,-120,789,-28,-9,-13
3190,-40,49,1005,-17,11,-2
3191,-11,-10,716,-5,11,0
3192,-25,-66,899,-9,5,-11
3193,-102,56,858,-26,7,-1
3194,32,-54,880,-15,-9,-7
3195,-60,-32,867,-20,-10,-2
3196,115,-13,959,-10,-10,-13
3197,-28,21,881,0,12,-6
3198,39,-77,675,-10,-1,-3
3199,-34,29,959,-16,13,-5
3200,-120,-28,803,-29,3,-1
3201,-24,5,981,4,-2,-8
3202,11,-53,892,-25,-9,-11
3203,-19,21,954,-3,-2,1
3204,90,-122,662,-15,-4,-12
3205,4,39,900,3,16,-2
3206,-70,34,768,-29,6,-7
3207,-76,-99,847,-13,4,-2
3208,-88,64,914,-5,-2,-4
3209,35,-67,835,-33,-7,-8
3210,-59,-29,882,9,6,-2
3211,109,-39,912,-21,-17,-15
3212,-38,28,845,-20,11,-5
3213,37,-69,496,-18,3,2
3214,-93,13,872,17,11,-13
3215,-117,-12,861,-47,4,3
3216,7,-25,935,-5,-8,-8
3217,-15,-33,867,-22,-10,-8
3218,25,20,993,-19,-9,-4
3219,57,-115,651,-13,2,-12
3220,0,25,776,2,-1,-5
3221,-52,82,790,-7,23,1
3222,-53,-89,712,-41,0,-4
3223,-71,53,931,11,-1,-7
3224,17,-65,829,-31,-11,-8
3225,-67,-11,925,-9,-1,-1
3226,120,-80,888,-12,-9,-15
3227,-24,31,901,12,12,-4
3228,10,-11,494,-29,9,-2
3229,-37,1,742,-34,3,-5
3230,-113,30,883,-3,6,-4
3231,5,-30,872,-38,-14,-8
3232,-19,-39,912,-5,-3,-7
3233,51,7,1005,-7,-5,-5
3234,12,-67,723,-12,3,-9
3235,36,-25,721,-3,6,-7
3236,-47,91,790,-22,10,-5
3237,-83,-60,683,-21,6,0
3238,-53,45,993,-18,0,-7
3239,20,-55,803,-9,-10,-11
3240,-63,0,953,-17,-7,0
3241,129,-113,833,-21,-11,-15
3242,-22,57,804,14,10,-4
3243,-11,24,589,-25,11,-1
3244,-54,-34,715,-21,7,-7
3245,-122,49,886,-6,8,-3
3246,31,-65,863,-18,-10,-8
3247,-54,-42,881,-14,-5,-6
3248,72,7,921,-7,-6,-9
3249,1,-32,700,-9,7,-6
3250,52,-36,590,-8,-1,-4
3251,-96,75,756,-19,20,-1
3252,-103,-48,782,-19,0,-1
3253,-27,15,942,-4,-7,-10
3254,11,-55,810,-23,-5,-7
3255,-35,25,920,-7,1,-1
3256,102,-142,627,-31,-13,-17
3257,-9,58,794,0,7,-4
3258,-80,63,624,-20,17,3
3259,-70,-92,728,-9,1,-8
3260,-107,48,901,-15,4,-3
3261,23,-59,809,-16,-6,-5
3262,-65,-34,810,-11,-4,-2
3263,118,-31,900,-16,-12,-14
3264,-32,17,758,-20,13,-8
3265,36,-29,490,-26,1,2
3266,-87,13,844,10,13,-11
3267,-127,-25,809,-56,3,2
3268,-18,-6,928,5,-5,-6
3269,-2,-36,850,-31,-10,-10
3270,-4,17,941,-12,-3,-2
3271,85,-124,607,-21,1,-15
3272,-6,54,830,-12,3,-2
3273,-84,38,719,-13,13,-5
3274,-71,-110,794,-43,3,-3
3275,-85,66,892,4,-4,-5
3276,27,-62,819,-41,-7,-8
3277,-65,-27,856,3,3,-1
3278,117,-51,848,-18,-14,-15
3279,-36,37,855,-10,19,-3
3280,17,-44,520,-32,1,-6
3281,-112,-33,868,-11,6,-10
3282,-131,14,830,-13,11,3
3283,14,-21,898,-40,-12,-9
3284,-15,-50,873,-2,-4,-9
3285,37,39,921,-21,-11,-2
3286,28,-98,554,-20,0,-8
3287,20,-30,775,-9,1,-2
3288,-88,29,810,-6,15,-9
3289,-118,-120,679,-13,8,-1
3290,-62,57,887,-4,0,-6
3291,44,-68,794,-18,-7,-11
3292,-99,15,795,-25,-5,4
3293,159,-99,681,-26,-12,-14
3294,-47,38,817,8,16,1
3295,-47,-49,531,-20,10,-1
3296,-65,-81,798,-4,14,-13
3297,-137,33,742,4,5,-3
3298,36,-55,791,-35,-9,-6
3299,-45,-59,849,-24,1,-5
3300,61,47,779,7,-12,-6
3301,12,-80,548,-11,3,-6
3302,7,-33,693,-9,-1,-3
3303,-127,19,691,-26,17,-10
3304,-134,-112,691,-17,13,3
3305,-36,46,862,-15,-7,-7
3306,27,-40,713,-19,-6,-12
3307,-70,15,838,-9,5,4
3308,147,-149,595,-31,-12,-19
3309,-50,89,745,-1,19,-6
3310,-73,52,480,5,13,4
3311,-52,-95,665,-4,-2,-11
3312,-166,41,829,-30,5,-2
3313,46,-57,757,-5,-8,-7
3314,-65,-50,747,-7,-6,-5
3315,75,26,940,-16,-9,-12
3316,-23,-18,648,-4,15,-10
3317,35,-29,458,-5,-2,0
3318,-29,122,679,-18,4,-7
3319,-124,-29,609,-22,9,2
3320,-26,19,768,5,-11,-5
3321,41,-76,740,-39,-4,-9
3322,-95,66,866,7,7,3
3323,92,-168,597,-34,-14,-19
3324,-36,27,878,23,11,-7
3325,-45,-38,617,-33,-2,3
3326,-15,-147,745,-15,-12,-6
3327,-108,90,719,-12,9,-4
3328,62,-60,655,-45,-15,-7
3329,-100,-48,694,4,0,0
3330,136,-17,808,-41,-24,-15
3331,-67,26,670,-25,25,-9
3332,28,-3,381,-18,11,1
3333,-60,70,765,20,21,-16
3334,-168,-23,653,-55,-1,5
3335,-1,-19,778,16,-6,-8
3336,22,-53,708,-28,-3,-11
3337,-77,70,905,-8,-3,5
3338,107,-188,619,-6,-12,-19
3339,-24,16,790,31,11,-6
3340,-54,-43,667,1,12,1
3341,-25,-173,691,-15,-3,-7
3342,-113,113,679,12,-2,-6
3343,76,-66,637,-45,-4,-8
3344,-112,-56,716,3,9,3
3345,131,-16,829,9,-16,-20
3346,-95,18,788,2,16,-6
3347,54,7,270,-2,-6,-1
3348,-31,109,715,43,13,-19
3349,-148,47,549,-48,14,8
3350,34,-1,681,-13,-16,-10
3351,-8,-38,730,-5,-8,-10
3352,-22,49,943,-41,-1,5
3353,116,-170,426,-34,-3,-17
3354,-48,57,697,-22,2,-1
3355,-36,165,622,-78,7,-4
3356,-37,-108,562,-36,6,-2
3357,-131,98,736,32,2,-7
3358,71,-106,677,-59,-12,-9
3359,-115,-32,671,20,6,2
3360,144,-26,797,-28,-15,-20
3361,-83,36,784,-26,29,-7
3362,62,-32,348,-4,13,-3
3363,-39,52,787,0,17,-12
3364,-166,-11,733,-43,9,8
3365,38,-34,804,-3,-8,-11
3366,-15,-39,715,-1,-4,-10
3367,-13,57,976,-26,1,4
3368,107,-170,461,-30,-1,-24
3369,-42,59,684,2,17,-4
3370,-34,152,693,-56,27,-4
3371,-40,-132,629,-52,3,-2
3372,-122,80,795,32,-5,-8
3373,73,-104,670,-71,-15,-9
3374,-122,-20,774,13,10,3
3375,148,-35,736,-37,-24,-16
3376,-91,19,856,-40,7,2
3377,69,-30,304,-25,-3,10
3378,-28,71,729,16,2,-17
3379,-142,31,681,-67,11,7
3380,39,-19,811,13,-9,-12
3381,-18,-27,750,-31,-12,-9
3382,-23,47,973,0,0,4
3383,109,-195,550,-22,2,-22
3384,-8,68,810,-18,8,-1
3385,-25,64,686,-59,13,-6
3386,-43,-104,599,-26,4,1
3387,-102,135,702,21,-3,-7
3388,68,-101,717,-61,-14,-10
3389,-104,-31,837,16,5,4
3390,140,-28,835,1,-20,-21
3391,-90,-21,957,-32,27,-4
3392,70,-95,434,-7,14,-1
3393,-25,8,792,-20,13,-13
3394,-155,-55,742,-48,9,6
3395,39,-32,879,19,-2,-10
3396,-1,-46,763,-29,-7,-10
3397,-45,70,926,-9,-10,4
3398,101,-196,541,1,-4,-22
3399,-44,71,811,-18,17,0
3400,-29,138,605,-66,15,-9
3401,-58,-109,663,-12,4,0
3402,-104,81,829,-6,-5,-4
3403,63,-93,694,-47,-13,-10
3404,-108,-37,821,24,13,5
3405,129,0,808,-32,-9,-19
3406,-59,-47,938,-5,8,-2
3407,100,-83,493,-15,-16,1
3408,-24,57,776,7,10,-14
3409,-137,-40,684,-30,14,7
3410,14,-3,865,-8,-16,-11
3411,22,-59,789,-30,-11,-14
3412,-54,61,891,-10,2,5
3413,97,-206,599,-39,-9,-18
3414,-57,69,913,-15,11,-1
3415,-8,84,614,-49,12,-8
3416,-51,-107,663,1,6,-5
3417,-109,58,858,-25,0,-4
3418,49,-72,785,-26,-14,-11
3419,-88,-35,844,7,4,3
3420,101,20,808,-33,-8,-14
3421,-33,-65,938,6,11,-6
3422,77,-88,609,3,-4,-1
3423,-31,72,806,2,19,-11
3424,-116,-76,732,-27,-3,6
3425,1,7,887,-15,-12,-10
3426,28,-70,785,-37,3,-8
3427,-87,55,901,17,0,6
3428,79,-193,568,-39,-17,-22
3429,-67,65,924,-3,11,5
3430,12,42,589,-11,-4,0
3431,-36,-50,641,-27,1,-11
3432,-124,89,825,-21,14,0
3433,54,-76,811,-5,-9,-12
3434,-67,-53,859,-40,-11,-4
3435,73,38,846,0,-12,-10
3436,-20,-86,895,-18,17,-6
3437,46,-70,634,-51,-3,-2
3438,-35,69,797,-24,6,-12
3439,-99,-121,756,-10,6,3
3440,-21,17,929,-36,-10,-11
3441,14,-45,769,3,-1,-13
3442,-106,49,909,-21,-1,7
3443,111,-156,602,-44,-22,-21
3444,-73,84,943,9,22,1
3445,11,-42,639,-52,0,-2
3446,-26,-32,682,-63,4,-10
3447,-125,68,773,21,12,-2
3448,54,-89,829,-46,-18,-8
3449,-37,-55,873,-24,-4,-6
3450,6,59,877,7,-7,-7
3451,-18,-142,696,-41,8,-6
3452,34,-18,600,-45,1,1
3453,-25,152,763,9,-2,-9
3454,-91,-76,589,-80,-1,1
3455,-38,22,938,2,2,-12
3456,31,-56,789,-8,-13,-14
3457,-107,-8,869,-48,-11,7
3458,156,-103,604,7,-11,-25
3459,-80,85,1003,8,17,2
3460,33,-64,515,-30,6,3
3461,-30,-21,723,22,15,-13
3462,-123,11,855,-21,3,5
3463,20,-50,847,-34,-9,-8
3464,-29,-38,895,5,-1,-6
3465,12,67,941,-23,-4,-2
3466,60,-110,643,-31,-6,-13
3467,-11,36,846,-3,3,-2
3468,-13,56,870,-14,9,-9
3469,-68,-131,738,-53,6,0
3470,-62,27,934,32,-1,-8
3471,19,-50,867,-39,-9,-11
3472,-92,-32,823,-9,0,4
3473,87,-22,727,21,-7,-21
3474,-69,71,975,-32,19,-2
3475,57,-63,586,-7,2,-3
3476,-48,45,910,7,10,-8
3477,-113,-1,841,-40,5,5
3478,15,-33,913,0,-7,-9
3479,-7,-48,893,-4,-7,-7
3480,-54,36,984,-42,-7,2
3481,36,-112,561,-20,-7,-11
3482,-24,60,846,8,6,-2
3483,-23,41,781,-43,14,-4
3484,-57,-71,809,9,4,-6
3485,-78,73,861,-9,-4,-7
3486,34,-81,857,-38,-3,-8
3487,-58,-57,854,11,4,1
3488,24,-47,783,-11,-7,-17
3489,-68,-8,864,-14,18,-4
3490,65,-80,554,-7,0,-3
3491,-33,73,851,-19,15,-8
3492,-110,-2,751,-38,7,5
3493,-13,-8,956,5,-7,-11
3494,19,-53,888,-31,-16,-10
3495,-39,35,929,-20,-2,2
3496,79,-190,586,-22,-7,-13
3497,-41,63,900,-21,8,-2
3498,0,45,734,-23,4,-3
3499,-52,-80,699,10,-1,-7
3500,-89,42,860,-45,3,-3
3501,27,-61,861,1,-1,-11
3502,-61,-59,874,-18,-6,-2
3503,76,52,839,-15,-16,-13
3504,-25,-30,911,0,12,-1
3505,49,-81,631,-30,-4,0
3506,-47,80,873,2,13,-10
3507,-106,-72,796,-12,1,4
3508,-13,-10,952,-30,-10,-10
3509,9,-47,855,-20,1,-9
3510,-76,41,919,7,-1,5
3511,128,-141,608,-30,-15,-22
3512,-60,91,955,26,13,0
3513,14,-33,704,-7,12,-1
3514,-40,-77,791,-5,15,-8
3515,-120,65,833,-17,-1,-1
3516,45,-69,872,-15,-9,-9
3517,-44,-65,856,-22,-4,0
3518,-23,48,850,-15,-4,-6
3519,-39,-91,757,9,14,-10
3520,53,-34,608,-14,6,-6
3521,-32,108,788,-31,18,-8
3522,-88,-83,675,7,7,3
3523,-33,57,940,-51,-10,-9
3524,31,-62,799,1,-7,-10
3525,-84,11,909,-18,-4,6
3526,96,-167,552,-68,-21,-20
3527,-90,59,912,21,20,5
3528,29,-18,563,-50,-6,1
3529,-32,13,676,-13,2,-11
3530,-114,45,806,26,5,1
3531,29,-74,854,-64,-15,-10
3532,-30,-53,891,11,2,-8
3533,19,96,902,9,-3,-3
3534,37,-140,609,-35,3,-13
3535,13,13,695,49,10,-6
3536,-32,112,824,-11,26,-8
3537,-79,-107,599,-50,6,2
3538,-47,7,947,8,-2,-9
3539,21,-49,836,-23,-9,-10
3540,-104,-44,826,-27,-8,4
3541,128,-28,663,-16,-17,-18
3542,-60,68,1011,-1,16,2
3543,52,-80,522,-59,-4,3
3544,-44,10,813,33,3,-15
3545,-129,-7,880,-42,10,7
3546,23,-53,875,-35,-8,-10
3547,-15,-37,897,17,-1,-10
3548,-8,35,967,-29,1,1
3549,66,-102,540,-20,-3,-16
3550,-21,60,869,9,6,-3
3551,-22,38,840,-47,5,-5
3552,-54,-128,737,-32,-3,-3
3553,-77,46,942,27,-5,-12
3554,21,-39,899,-56,-14,-11
3555,-68,-75,787,14,2,2
3556,90,-12,788,2,-10,-17
3557,-99,57,886,-33,22,-4
3558,65,-83,597,-14,-5,-2
3559,-38,45,913,4,2,-15
3560,-117,-38,845,-49,8,2
3561,2,-23,954,20,-6,-12
3562,-2,-20,900,-34,-15,-12
3563,-64,5,930,-3,4,7
3564,82,-116,521,-9,-11,-21
3565,-46,85,905,-18,14,-5
3566,-20,16,780,-21,7,-1
3567,-48,-100,793,11,-9,-10
3568,-89,53,936,-35,0,-8
3569,26,-46,918,-10,-3,-9
3570,-69,-85,823,1,-7,-1
3571,38,18,834,-13,-15,-12
3572,-45,9,789,-4,12,-7
3573,53,-75,666,-26,0,-5
3574,-40,76,894,-30,5,-12
3575,-108,-57,817,-8,2,3
3576,-11,-10,990,-29,-16,-12
3577,2,-33,900,-25,-7,-11
3578,-76,-19,904,11,3,7
3579,92,-123,571,-38,-16,-19
3580,-72,106,866,-23,12,-2
3581,7,-33,758,-14,2,0
3582,-35,-69,741,-37,0,-9
3583,-128,60,944,3,7,-3
3584,30,-68,964,-13,-15,-11
3585,-38,-70,860,-31,-7,-7
3586,38,2,878,15,0,-6
3587,-31,-44,721,2,9,-8
3588,45,-26,714,-39,-2,-2
3589,-36,88,860,25,22,-6
3590,-81,-95,719,-12,16,7
3591,-39,12,1053,-22,0,-10
3592,14,-23,883,3,-2,-9
3593,-91,-76,869,-39,-5,3
3594,136,-65,618,-31,-14,-20
3595,-96,99,925,42,23,-4
3596,30,-68,633,-53,-4,-2
3597,-30,-13,715,1,13,-12
3598,-95,29,870,5,3,1
3599,10,-53,937,-68,-15,-8
3600,-18,-43,927,20,0,-7
3601,4,67,947,-5,-5,0
3602,50,-92,515,-50,-5,-11
3603,-5,45,796,21,1,-5
3604,-20,73,830,-37,14,-7
3605,-54,-106,619,-35,1,-1
3606,-63,48,944,31,2,-10
3607,24,-67,910,-50,-12,-10
3608,-66,-43,820,-3,1,-1
3609,111,-34,694,-7,-5,-16
3610,-65,55,855,1,22,-1
3611,61,-70,550,-17,-1,-2
3612,-44,70,835,25,13,-12
3613,-109,-2,766,-58,8,7
3614,10,-46,941,6,-5,-10
3615,13,-45,910,-14,-7,-9
3616,-45,16,943,-37,-6,-1
3617,71,-168,473,-4,-7,-16
3618,-27,68,785,-3,10,-3
3619,-17,50,716,-41,6,-2
3620,-46,-50,794,22,2,-6
3621,-77,71,863,-34,-4,-7
3622,32,-82,892,-24,-6,-9
3623,-62,-74,861,6,-2,-1
3624,26,-31,826,-19,-8,-13
3625,-38,14,666,8,9,-4
3626,47,-66,637,-24,-1,-4
3627,-40,105,899,-30,21,-11
3628,-99,-34,812,-3,2,3
3629,-19,3,988,-14,-10,-10
3630,24,-61,886,-29,-7,-8
3631,-68,-45,940,-2,5,2
3632,58,-116,576,-38,-13,-16
3633,-63,122,811,-5,13,0
3634,9,-24,760,3,6,-2
3635,-50,-25,882,-34,10,-8
3636,-99,60,881,-11,7,-2
3637,26,-59,964,-6,-11,-10
3638,-29,-66,912,-44,-13,-6
3639,-3,-9,892,0,-9,-7
3640,-26,-8,716,-16,10,-5
3641,40,-10,736,-29,1,-4
3642,-35,76,889,6,12,-7
3643,-83,-76,835,-36,6,2
3644,-40,47,1021,-36,-4,-10
3645,16,-51,876,3,-7,-12
3646,-70,-44,929,-33,-8,3
3647,60,-90,660,-29,-15,-18
3648,-62,126,903,27,19,0
3649,23,-50,686,-43,4,-2
3650,-38,-5,847,-7,13,-11
3651,-106,37,861,6,5,1
3652,13,-51,956,-48,-14,-8
3653,-17,-46,928,0,-5,-6
3654,-35,7,963,-20,1,-6
3655,-1,-102,606,-32,1,-9
3656,1,27,756,-1,-2,-1
3657,-22,89,853,-6,7,-8
3658,-63,-81,718,-53,0,2
3659,-56,47,934,20,-3,-9
3660,32,-73,884,-33,-7,-9
3661,-85,-32,847,-11,-1,5
3662,33,-80,688,10,-10,-20
3663,-61,34,912,-12,19,-4
3664,52,-83,498,-26,4,-4
3665,-45,59,828,12,14,-10
3666,-116,23,777,-28,6,2
3667,26,-42,896,-17,-7,-10
3668,-1,-50,911,7,-3,-9
3669,-27,29,973,-43,-8,-3
3670,46,-176,496,-23,-1,-11
3671,-23,38,781,28,3,-1
3672,-17,70,780,-29,13,-2
3673,-47,-76,691,4,3,-4
3674,-80,72,841,-4,-6,-7
3675,32,-79,829,-49,-8,-8
3676,-64,-50,837,6,3,2
3677,96,-22,748,-21,-12,-14
3678,-79,23,872,-17,17,-4
3679,68,-66,505,-25,-5,-3
3680,-30,69,835,-9,6,-14
3681,-112,-34,767,-61,10,3
3682,-9,-28,919,25,-2,-11
3683,13,-37,882,-33,-10,-13
3684,-52,75,915,-6,-1,3
3685,123,-161,524,-10,-10,-20
3686,-47,80,936,-2,10,-1
3687,-10,48,707,-5,16,-4
3688,-52,-110,693,-5,10,-3
3689,-91,34,916,-33,-1,-2
3690,28,-59,867,-16,-7,-9
3691,-70,-68,828,-16,-1,1
3692,73,50,821,-32,-10,-12
3693,-21,-7,890,3,18,-5
3694,52,-84,636,-25,1,0
3695,-44,79,879,-21,5,-11
3696,-109,-73,818,-4,1,3
3697,-12,-11,949,-25,-9,-9
3698,8,-38,868,-27,-2,-11
3699,-81,20,908,16,3,5
3700,114,-115,614,-32,-14,-21
3701,-73,120,944,15,19,-5
3702,17,-33,742,-19,9,-4
3703,-47,-76,811,-29,13,-10
3704,-110,54,864,-11,10,-2
3705,33,-61,896,-10,-9,-10
3706,-40,-56,873,-33,-10,-5
3707,-18,38,883,-3,-10,-11
3708,-31,-21,774,-20,7,-6
3709,49,-14,696,-22,-2,-2
3710,-35,77,846,14,15,-9
3711,-87,-83,787,-18,0,1
3712,-40,48,978,-23,0,-9
3713,19,-55,830,-8,-6,-7
3714,-75,-19,921,-36,-4,5
3715,34,-110,633,-28,-12,-19
3716,-69,91,914,17,15,-2
3717,35,-43,642,-50,0,-3
3718,-38,8,796,-27,4,-9
3719,-102,41,820,8,3,-1
3720,8,-57,927,-48,-6,-8
3721,-19,-45,932,10,5,-8
3722,-11,21,931,7,-12,-5
3723,1,-147,652,-43,-3,-12
3724,12,4,757,19,5,-4
3725,-24,83,878,-3,22,-8
3726,-68,-67,665,-48,6,1
3727,-49,41,920,18,-3,-10
3728,16,-69,865,-45,-12,-7
3729,-66,-6,910,-24,-3,2
3730,114,-75,738,-1,0,-17
3731,-53,43,1003,-14,18,-3
3732,47,-65,606,-43,3,-4
3733,-58,13,822,5,16,-9
3734,-103,9,843,-31,5,2
3735,12,-39,931,-29,-10,-9
3736,-13,-44,930,-2,-6,-8
3737,9,65,993,-41,-3,-3
3738,44,-127,657,-30,-1,-14
3739,-7,38,939,3,6,-4
3740,-25,20,864,-50,23,-6
3741,-60,-96,782,-27,14,0
3742,-75,62,905,24,1,-8
3743,31,-75,860,-63,-19,-8
3744,-69,-6,873,2,3,1
3745,46,-45,804,-17,-5,-17
3746,-75,12,982,-18,22,-6
3747,69,-76,495,-5,6,-5
3748,-47,69,847,33,26,-15
3749,-119,19,752,-45,4,6
3750,11,-23,924,12,-5,-12
3751,0,-43,871,-26,-8,-8
3752,-27,50,988,-17,1,2
3753,92,-184,594,8,0,-20
3754,-26,59,894,25,13,-6
3755,-27,56,764,-7,10,-1
3756,-57,-103,712,17,0,-8
3757,-81,46,888,-6,-1,-5
3758,36,-78,818,-41,-6,-7
3759,-77,-26,875,8,2,1
3760,105,-6,823,-6,-14,-17
3761,-58,-15,983,-8,14,-2
3762,75,-86,587,15,-4,-2
3763,-40,57,878,15,9,-10
3764,-115,-31,789,-38,1,7
3765,-6,0,938,12,-8,-9
3766,14,-54,865,-28,-1,-9
3767,-32,35,930,10,-1,4
3768,55,-171,676,-8,-9,-17
3769,-31,45,952,13,8,-1
3770,5,30,751,-15,-2,0
3771,-54,-71,715,-14,-2,-6
3772,-80,65,865,-36,5,-4
3773,21,-66,865,-13,-6,-9
3774,-58,-31,917,-14,-10,-2
3775,86,13,887,-22,-16,-12
3776,-34,-30,981,-12,11,-3
3777,44,-64,689,-29,0,-5
3778,-54,48,892,-32,22,-8
3779,-93,-45,842,2,11,0
3780,-19,3,983,-16,-8,-12
3781,5,-54,883,-28,-7,-10
3782,-35,33,973,2,3,-1
3783,99,-135,737,-20,-2,-16
3784,-23,48,991,2,14,-4
3785,2,-4,770,4,2,-1
3786,-39,-65,711,-18,8,-6
3787,-102,65,879,-29,8,-1
3788,29,-70,907,-10,-15,-11
3789,-45,-29,934,-23,-9,-4
3790,77,9,945,-25,-5,-12
3791,-23,-61,951,-11,20,-8
3792,42,-57,723,-14,0,-2
3793,-46,49,840,5,1,-9
3794,-87,-55,782,-12,3,1
3795,-26,28,975,-30,-3,-10
3796,7,-51,863,-18,-6,-10
3797,-45,30,986,-10,-6,-1
3798,114,-132,776,-39,-10,-17
3799,-46,73,992,-4,25,-5
3800,4,-9,749,6,8,-1
3801,-57,-63,720,-16,1,-8
3802,-110,48,929,-9,-6,0
3803,39,-75,915,-21,-12,-8
3804,-57,-37,951,-19,1,-4
3805,87,9,941,-17,-2,-10
3806,-13,-61,955,-5,12,-9
3807,58,-53,708,-1,3,-4
3808,-39,63,832,24,4,-5
3809,-73,-71,682,-28,5,2
3810,-42,36,996,-20,-2,-10
3811,7,-54,817,-6,-7,-9
3812,-50,2,1041,-14,-6,1
3813,125,-108,802,-13,-8,-17
3814,-40,43,1060,15,6,2
3815,2,-21,768,-36,11,-2
3816,-32,-50,721,-44,6,-6
3817,-106,57,852,-1,9,-2
3818,33,-72,916,-25,-11,-9
3819,-46,-26,968,-19,-6,-6
3820,60,21,999,-12,-7,-8
3821,-5,-60,960,-19,11,-9
3822,39,-32,822,-6,9,-4
3823,-37,44,864,37,8,-6
3824,-82,-64,776,-19,6,1
3825,-44,36,992,-19,2,-7
3826,14,-56,870,-11,-7,-9
3827,-42,8,1036,-22,-11,2
3828,113,-84,867,-23,-11,-15
3829,-40,45,1046,3,25,-5
3830,-12,-24,781,1,9,-2
3831,-26,-40,797,-7,3,-8
3832,-115,47,883,3,-1,0
3833,29,-67,941,-34,-12,-8
3834,-43,-28,981,-14,-1,-5
3835,64,15,1014,-14,-4,-6
3836,-10,-58,967,-7,3,-8
3837,42,-45,809,-4,-1,-5
3838,-38,46,854,-32,11,-4
3839,-80,-71,719,-29,6,1
3840,-44,43,996,-23,-6,-9
3841,17,-55,852,-16,-7,-10
3842,-43,-1,1052,-11,-4,1
3843,118,-111,845,-21,-10,-17
3844,-26,42,1000,-1,23,-5
3845,-10,-8,717,1,7,1
3846,-28,-58,669,-9,3,-9
3847,-111,54,865,-11,-2,-1
3848,35,-69,901,-22,-13,-9
3849,-49,-38,957,-13,-1,-3
3850,83,11,971,2,-2,-8
3851,-4,-43,917,-24,10,-9
3852,42,-55,704,-24,1,-4
3853,-54,80,832,4,17,-8
3854,-77,-79,781,2,9,-2
3855,-44,32,1030,-15,-6,-9
3856,10,-52,827,-24,-12,-8
3857,-34,24,1025,-4,1,1
3858,112,-101,829,-25,-5,-15
3859,-44,59,1007,-16,3,-1
3860,-8,-16,771,-24,15,-3
3861,-51,-57,875,-12,15,-9
3862,-112,53,911,-14,3,-2
3863,31,-62,938,-13,-5,-10
3864,-43,-31,966,-22,-6,-5
3865,71,-4,1004,-9,-4,-8
3866,0,-47,956,-16,6,-7
3867,31,-59,718,-26,-4,-3
3868,-30,45,848,-7,24,-9
3869,-82,-40,731,-1,8,-3
3870,-30,20,992,-15,-7,-8
3871,10,-55,875,-26,-7,-8
3872,-22,8,1057,6,-5,-1
3873,98,-108,832,-19,-8,-17
3874,-15,55,1018,-9,16,-4
3875,-23,26,822,0,7,-1
3876,-45,-67,855,-12,-1,-7
3877,-99,38,1006,-28,4,-1
3878,16,-52,953,-14,-9,-8
3879,-43,-35,947,-23,-8,-5
3880,78,-12,1024,-20,-7,-9
3881,-6,-19,979,-11,9,-5
3882,24,-75,691,-25,-3,-2
3883,-30,29,881,-4,22,-8
3884,-93,-16,765,-13,5,-2
3885,-27,4,986,-4,-4,-8
3886,9,-54,898,-28,-7,-8
3887,-17,29,1061,-17,-5,-4
3888,85,-99,826,-22,-8,-10
3889,-5,35,1025,-1,1,-2
3890,-39,33,833,-23,16,-6
3891,-44,-68,901,-7,10,-7
3892,-87,42,958,-7,2,-6
3893,20,-58,925,-21,-8,-7
3894,-46,-34,957,-5,0,-5
3895,108,-36,969,-26,-7,-12
3896,-25,11,938,-20,11,-5
3897,35,-57,614,-24,-2,0
3898,-37,46,909,16,16,-10
3899,-112,-20,868,-33,2,1
3900,-16,-14,1028,-3,-7,-8
3901,-5,-36,893,-23,-9,-8
3902,7,12,1042,-2,-3,-1
3903,65,-113,740,-14,-1,-15
3904,5,14,869,12,15,-7
3905,-37,62,747,-39,10,-3
3906,-34,-80,685,-36,6,2
3907,-82,58,892,5,-2,-6
3908,24,-68,818,-45,-12,-7
3909,-55,-19,926,5,4,-4
3910,103,-35,936,-40,-16,-14
3911,-32,15,936,-20,5,-1
3912,24,-82,527,-18,-1,2
3913,-48,20,747,20,13,-11
3914,-110,19,787,-11,9,0
3915,20,-27,893,-23,-10,-8
3916,-20,-37,872,-11,-8,-7
3917,28,49,1054,-6,-7,1
3918,35,-105,741,-5,0,-9
3919,6,-12,887,15,2,-5
3920,-33,50,785,-29,21,-8
3921,-49,-91,631,-54,7,-1
3922,-68,56,887,12,4,-6
3923,33,-75,832,-20,-14,-10
3924,-82,7,880,-22,-6,0
3925,139,-85,827,-8,-6,-16
3926,-46,66,977,-26,28,-5
3927,-8,-72,566,-19,0,3
3928,5,-47,809,4,-9,-7
3929,-117,19,764,-6,3,0
3930,21,-43,859,-28,-6,-6
3931,-23,-51,896,-13,1,-7
3932,56,34,860,-20,-12,-4
3933,4,-77,590,-16,-6,-5
3934,27,-52,762,-13,-2,-2
3935,-77,14,795,-26,24,-14
3936,-121,-118,673,-13,9,2
3937,-47,64,932,-31,-4,-8
3938,39,-49,743,-4,-7,-11
3939,-91,7,832,-21,-3,3
3940,164,-145,635,-11,-11,-24
3941,-53,86,724,-10,27,-10
3942,-51,15,443,-3,5,7
3943,-79,-87,658,-12,-4,-12
3944,-174,41,819,-21,6,-1
3945,51,-69,774,-9,-10,-6
3946,-68,-50,780,-19,2,-5
3947,51,62,895,7,-12,-7
3948,-9,-59,586,-4,3,-12
3949,41,11,499,6,1,-3
3950,-39,172,654,-17,-5,-4
3951,-103,-31,552,-22,2,5
3952,-29,36,770,-20,-8,-9
3953,44,-72,698,-37,-1,-10
3954,-115,54,769,6,10,4
3955,127,-173,570,-11,-11,-22
3956,-79,50,863,-1,27,-8
3957,-55,-117,609,8,15,4
3958,-32,-177,628,27,11,-14
3959,-153,74,701,-47,6,0
3960,70,-51,641,-7,-17,-6
3961,-100,-62,623,-11,-8,-1
3962,101,57,898,2,-16,-9
3963,-44,-26,633,20,4,-7
3964,14,-8,370,12,-16,-1
3965,-15,155,778,47,10,-12
3966,-114,5,517,-50,-9,5
3967,-5,65,617,-4,-12,-7
3968,41,-70,679,-32,5,-10
3969,-95,54,813,-3,13,3
3970,153,-181,405,-8,-4,-22
3971,-62,102,804,-33,24,-6
3972,-43,191,456,-44,41,-10
3973,-30,-46,575,15,15,-6
3974,-161,105,690,-39,0,-3
3975,85,-84,614,10,-15,-9
3976,-125,-62,571,-3,2,0
3977,148,20,795,-15,-11,-17
3978,-56,8,618,-6,33,-18
3979,41,-33,327,-34,10,-1
3980,-15,195,759,-68,21,-15
3981,-166,13,540,-7,27,5
3982,0,2,722,19,-5,-10
3983,25,-54,624,-59,-11,-12
3984,-89,44,757,5,8,11
3985,168,-207,402,-46,-23,-17
3986,-39,154,811,61,17,-1
3987,-2,102,513,3,11,-6
3988,-15,-97,552,31,25,-8
3989,-130,127,639,7,10,-3
3990,75,-54,632,-25,-13,-9
3991,-96,-63,749,-18,-6,4
3992,112,22,871,-38,-23,-6
3993,-59,-60,810,-20,30,-11
3994,71,-101,431,-6,10,-3
3995,-54,93,710,-89,12,-15
3996,-123,-137,624,4,20,9
3997,19,-65,816,-18,-18,-12
3998,0,-10,764,-39,-3,-12
3999,-98,40,797,29,21,4
4000,135,-139,426,-67,-10,-23
4001,-72,173,803,-39,36,-2
4002,1,-50,578,34,-3,9
4003,-3,-94,610,-69,-16,-11
4004,-97,55,670,-1,20,-1
4005,40,-103,795,3,-11,-9
4006,-22,-70,678,-84,-20,-5
4007,-32,110,814,63,-9,-13
4008,-36,-67,468,-17,8,-10
4009,80,-17,543,-57,-5,-8
4010,-55,107,799,68,22,-10
4011,-88,-111,686,-34,-1,7
4012,-3,-27,833,-49,-12,-14
4013,6,-28,807,37,-13,-7
4014,-91,-112,721,-95,-14,10
4015,111,-34,402,-75,-16,-18
4016,-133,72,602,35,15,5
4017,14,-126,486,-105,-7,2
4018,-17,-73,544,6,17,-13
4019,-115,16,916,48,12,2
4020,26,-131,856,-110,-21,-6
4021,-22,-48,783,84,3,-15
4022,-10,45,837,12,-5,-2
4023,47,-143,300,-66,-2,-13
4024,19,-22,565,54,11,-8
4025,-65,-64,651,-52,32,-7
4026,-10,-168,620,-38,2,-2
4027,-77,83,953,88,6,-14
4028,29,-39,874,-110,-10,-5
4029,-79,-43,610,56,9,-2
4030,111,64,647,28,8,-25
4031,-135,20,573,-78,6,14
4032,21,-144,296,21,-39,6
4033,-23,6,599,-27,-7,-8
4034,-114,-41,687,-92,13,13
4035,3,-59,964,63,-3,-11
4036,23,-7,775,-55,-16,-13
4037,-93,60,746,2,13,1
4038,133,-103,337,20,2,-20
4039,-127,108,585,-49,-14,12
4040,4,-90,352,19,-5,-5
4041,18,-213,446,23,19,-19
4042,-173,121,829,-24,18,3
4043,78,-76,898,48,-4,-9
4044,-55,-83,776,-96,-19,-2
4045,17,102,718,35,1,-17
4046,-10,-120,421,53,20,3
4047,87,-116,369,-110,-50,6
4048,-95,59,557,37,45,-24
4049,-65,-226,365,-104,6,0
4050,-106,70,970,26,10,-10
4051,107,-90,796,27,-8,-16
4052,-165,-28,802,-74,-11,13
4053,170,14,652,62,-29,-25
4054,-122,-15,573,-31,18,8
4055,54,-178,192,-116,-20,6
4056,-26,-59,569,53,22,-28
4057,-127,-47,629,-127,11,5
4058,0,2,959,67,8,-10
4059,31,-52,851,-13,-7,-16
4060,-65,41,969,-58,-6,5
4061,88,-182,557,35,-3,-22
4062,-101,-28,572,-37,30,-8
4063,-50,-33,566,30,24,2
4064,-13,-141,670,64,-4,-15
4065,-141,84,881,-90,-17,3
4066,67,-74,925,45,-2,-11
4067,-62,-35,972,-52,1,-5
4068,69,6,946,-28,-6,-7
4069,-5,-95,772,52,15,-7
4070,32,-12,768,-58,-9,0
4071,-64,32,964,34,12,-7
4072,-18,-87,802,-35,3,-7
4073,-77,51,1022,-19,2,-3
4074,36,-54,945,7,-10,-12
4075,-66,-20,995,-43,-4,1
4076,92,-21,976,-3,-6,-14
4077,-24,-17,1058,-5,12,-5
4078,31,-26,874,-31,-1,-4
4079,-47,23,1034,18,14,-7
4080,-60,-7,955,-41,3,-2
4081,-37,-24,1048,-8,-2,-5
4082,4,-32,963,-9,-8,-9
4083,2,-20,1028,-30,-6,-3
4084,55,-55,963,6,4,-11
4085,9,9,1025,-26,4,-5
4086,-15,20,996,-22,11,-5
4087,-42,-33,973,-4,9,-5
4088,-72,5,1009,-34,0,-4
4089,-8,-40,991,-5,-6,-8
4090,-22,-38,997,-17,-8,-7
4091,56,-10,1003,-21,-11,-8
4092,12,-38,1009,0,3,-8
4093,18,-9,984,-20,5,-5
4094,-29,13,1021,-14,11,-6
4095,-70,-16,971,-12,7,-2
4096,-39,-11,1024,-28,-4,-6
4097,-7,-30,968,-9,-5,-7
4098,3,-32,1031,-14,-4,-3
4099,64,-45,968,-11,-1,-9
4100,11,12,1034,9,9,-2
4101,-10,-3,971,-13,11,-2
4102,-39,-12,978,-16,12,-4
4103,-82,12,993,-4,6,0
4104,-6,-41,1018,-29,-7,-6
4105,-25,-30,980,-9,-4,-5
4106,51,-7,1056,-12,-4,-8
4107,15,-49,938,-19,4,-6
4108,13,16,1010,1,3,-4
4109,-35,38,1029,0,13,-4
4110,-57,-54,891,-21,7,0
4111,-56,9,1043,0,1,-7
4112,9,-48,957,-25,-10,-6
4113,-38,-23,974,-16,-6,-2
4114,93,-55,944,-15,-13,-12
4115,-21,26,1059,0,16,-3
4116,30,-54,742,-14,5,-3
4117,-51,33,945,18,6,-8
4118,-100,3,906,-28,8,1
4119,2,-37,1031,-23,-7,-8
4120,-13,-41,936,0,-7,-6
4121,23,27,1004,-27,-10,-5
4122,54,-117,719,-20,-6,-7
4123,9,22,908,11,-5,-4
4124,-26,23,887,-30,6,0
4125,-45,-83,704,-10,1,-1
4126,-74,58,913,-5,-4,-8
4127,29,-68,868,-40,-13,-11
4128,-59,-21,922,-3,3,0
4129,102,-20,868,-30,-16,-16
4130,-76,28,1036,-37,16,-2
4131,52,-72,617,-31,4,-1
4132,-41,29,910,-19,15,-10
4133,-114,-28,858,-47,9,3
4134,3,-19,967,11,-2,-11
4135,-2,-40,872,-46,-11,-8
4136,-35,66,961,-5,0,0
4137,54,-161,621,-1,4,-17
4138,-13,39,891,9,15,-5
4139,-28,62,707,-4,4,-2
4140,-43,-44,685,14,-2,-7
4141,-86,94,827,-19,2,-5
4142,45,-80,820,-33,-5,-7
4143,-80,-38,868,7,-5,1
4144,109,-10,840,-26,-24,-13
4145,-71,-14,938,-26,19,2
4146,59,-117,520,-18,-9,-1
4147,-34,47,860,-55,3,-10
4148,-136,-71,786,-30,16,5
4149,10,-9,901,2,-12,-13
4150,14,-53,792,-45,-12,-10
4151,-79,83,897,-8,11,1
4152,64,-210,498,-26,-1,-18
4153,-40,106,915,12,24,-4
4154,6,39,617,-23,19,-9
4155,-24,-81,628,10,14,-7
4156,-102,93,765,-43,7,-2
4157,46,-83,777,-1,-3,-10
4158,-75,-69,784,-2,2,1
4159,72,20,806,-21,-3,-14
4160,-50,-55,786,30,28,-9
4161,57,-68,465,4,19,-5
4162,-42,183,673,-65,17,-11
4163,-129,-59,606,12,9,7
4164,23,-55,877,-30,-16,-10
4165,-3,-9,780,-35,5,-7
4166,-89,15,840,25,14,3
4167,138,-142,476,-62,-19,-22
4168,-79,109,880,7,15,2
4169,9,-15,541,20,18,2
4170,-32,-71,588,-31,16,-10
4171,-139,25,840,26,10,-2
4172,37,-85,850,-16,-8,-5
4173,-36,-69,788,-31,-8,-6
4174,31,61,857,19,9,-11
4175,-27,-56,599,3,7,-7
4176,54,-11,506,-17,-6,-6
4177,-37,117,712,9,21,-9
4178,-89,-92,643,-55,12,7
4179,-38,-48,937,-2,-1,-11
4180,3,0,864,27,3,-9
4181,-101,-69,781,-37,-10,8
4182,139,-52,494,-18,-36,-20
4183,-87,97,779,19,12,4
4184,26,-68,417,-78,2,1
4185,-22,-28,666,5,12,-11
4186,-116,49,874,8,13,2
4187,-2,-96,859,-70,-16,-7
4188,-2,-52,868,58,3,-12
4189,-18,-10,919,-14,-8,1
4190,56,-136,197,-53,-11,-14
4191,-16,-22,648,71,15,-8
4192,-53,5,807,-39,15,-5
4193,-28,-132,631,-6,6,-5
4194,-86,67,1000,36,6,-7
4195,17,-52,945,-92,-12,-6
4196,-70,-93,715,16,-2,3
4197,111,13,712,-30,-18,-13
4198,-101,15,689,-57,20,-1
4199,55,-133,402,47,3,-3
4200,-40,-16,705,12,14,-14
4201,-104,-39,756,-59,10,6
4202,-9,-24,1024,56,2,-9
4203,26,-38,886,-73,-8,-13
4204,-64,-6,881,17,0,11
4205,141,-145,447,-13,-18,-22
4206,-78,14,662,-55,24,-5
4207,-31,-10,650,36,29,-4
4208,-3,-134,580,-11,5,-14
4209,-126,88,911,-27,5,-2
4210,42,-64,995,28,-3,-9
4211,-38,-83,868,-64,-9,-3
4212,50,17,867,4,1,-12
4213,-5,-109,542,21,9,-7
4214,32,-70,630,-60,-14,1
4215,-48,76,839,21,3,-5
4216,-46,-108,686,-64,-7,1
4217,-68,60,1087,-30,-1,-6
4218,38,-43,917,19,-4,-13
4219,-92,-51,927,-46,-6,6
4220,137,-75,720,-10,-20,-18
4221,-62,60,856,23,22,-5
4222,30,-113,616,-56,5,0
4223,-39,-5,861,52,23,-13
4224,-100,12,890,-17,8,2
4225,-7,-21,1049,-45,-9,-7
4226,0,-36,959,24,0,-9
4227,-6,43,1004,-35,-3,-2
4228,68,-108,689,-13,-5,-15
4229,-5,10,913,30,9,-7
4230,-33,39,875,-65,8,-8
4231,-43,-78,854,17,8,-8
4232,-82,46,973,-4,1,-7
4233,16,-56,963,-48,-12,-7
4234,-38,-36,964,18,0,-4
4235,83,-14,976,-39,-10,-12
4236,-30,2,959,-12,6,-7
4237,34,-50,877,4,1,-4
4238,-38,11,1043,-30,13,-7
4239,-62,-15,951,-9,5,-2
4240,-39,-12,1051,-10,-2,-7
4241,6,-40,960,-34,-10,-8
4242,-6,-9,1044,7,-3,-4
4243,68,-67,942,-21,-6,-11
4244,0,12,1045,-4,9,-3
4245,0,-4,969,0,9,-4
4246,-50,-23,997,-20,8,-4
4247,-58,11,999,-12,2,-4
4248,-15,-37,1004,-15,-5,-7
4249,-19,-42,991,-23,-8,-5
4250,55,-10,1015,-5,-5,-7
4251,15,-36,1009,-10,6,-5
4252,26,-9,978,-13,7,-3
4253,-21,9,1022,-7,7,-4
4254,-75,-23,953,-23,1,1
4255,-38,-3,1040,-15,-3,-8
4256,-7,-40,953,-14,-5,-6
4257,-6,-8,1038,-18,-7,-3
4258,74,-59,924,-24,-6,-9
4259,-3,32,1067,-6,5,-5
4260,-7,-12,937,-24,7,-4
4261,-37,-29,858,-41,6,-3
4262,-90,21,973,-7,5,-1
4263,12,-58,1028,-33,-14,-9
4264,-37,-35,982,-12,-5,-4
4265,63,9,1021,2,-5,-9
4266,-1,-59,913,-12,9,-4
4267,41,-15,860,-8,-2,-3
4268,-40,57,930,-6,3,-2
4269,-68,-66,730,-41,3,3
4270,-52,32,1011,-7,1,-8
4271,22,-66,875,-18,-10,-8
4272,-62,11,997,-16,-8,4
4273,121,-82,779,-7,-15,-13
4274,-64,81,1031,14,8,-1
4275,9,-56,620,-56,1,-3
4276,-29,-58,792,-39,2,-4
4277,-122,25,886,-12,-1,1
4278,29,-52,896,-47,-15,-9
4279,-31,-44,906,-1,7,-4
4280,27,52,978,0,-8,-5
4281,6,-147,664,-20,-4,-7
4282,20,-1,678,5,-12,-1
4283,-28,142,781,-11,-2,-4
4284,-73,-84,528,-64,12,3
4285,-55,61,909,20,0,-9
4286,42,-71,766,-37,-24,-11
4287,-125,-11,885,-14,3,9
4288,150,-86,704,-6,-3,-20
4289,-39,17,1029,12,16,-1
4290,51,-85,497,-23,-11,7
4291,-17,-11,718,36,-5,-17
4292,-145,0,768,-17,11,5
4293,52,-58,739,-35,-5,-10
4294,-22,-56,827,8,-1,-5
4295,-7,78,934,-28,-22,-2
4296,19,-194,512,-51,2,-14
4297,-20,41,735,13,24,1
4298,-19,188,693,-45,7,-6
4299,-63,-90,502,-72,-8,0
4300,-79,41,827,46,-6,-9
4301,31,-60,742,-66,-8,-8
4302,-103,-62,760,-2,2,2
4303,135,-42,696,-6,-11,-19
4304,-84,19,942,-50,29,2
4305,80,-89,408,-39,-3,0
4306,-46,28,745,38,-4,-15
4307,-139,-78,770,-90,3,3
4308,37,-65,802,12,-8,-13
4309,-29,-6,863,-6,-9,-11
4310,-58,32,918,-55,-8,4
4311,80,-129,443,2,-8,-17
4312,-26,106,749,17,9,-6
4313,-31,6,751,-49,23,-3
4314,-47,-159,711,14,12,-2
4315,-79,51,841,-21,1,-5
4316,20,-69,896,-40,0,-3
4317,-60,-107,697,22,2,1
4318,19,22,777,-33,-12,-18
4319,-77,34,602,-33,17,-4
4320,73,-83,539,26,-4,-4
4321,-35,66,880,-29,9,-13
4322,-125,-69,756,-27,16,6
4323,-1,-58,924,9,-10,-9
4324,4,-20,913,-50,-16,-11
4325,-60,-26,883,13,-6,8
4326,88,-137,409,-32,-21,-18
4327,-64,87,705,-39,11,0
4328,-8,4,680,-1,17,0
4329,-22,-112,651,-8,6,-7
4330,-121,43,956,-36,7,-4
4331,19,-54,920,15,-2,-6
4332,-46,-85,762,-40,-11,-2
4333,46,60,792,-29,-12,-8
4334,-48,-67,599,-5,6,-2
4335,60,-51,546,-52,-4,-5
4336,-44,77,663,-7,16,-6
4337,-78,-95,687,1,7,5
4338,-29,24,999,-50,-7,-11
4339,19,-46,892,25,2,-9
4340,-83,-98,849,-13,2,7
4341,120,-93,505,-20,-15,-23
4342,-70,32,601,43,18,-2
4343,7,-135,689,-49,0,-3
4344,-25,-3,753,-10,13,-15
4345,-114,33,890,23,3,-2
4346,16,-39,1037,-63,-15,-8
4347,-20,-35,931,14,3,-8
4348,3,52,970,5,-3,-1
4349,52,-131,587,-47,-5,-13
4350,-5,19,815,40,14,-5
4351,-30,37,818,-27,17,-1
4352,-36,-100,753,-16,6,-5
4353,-68,53,966,38,7,-7
4354,21,-61,958,-64,-7,-7
4355,-52,-32,936,16,1,-2
4356,104,-37,902,-10,-10,-16
4357,-51,16,874,-29,21,0
4358,36,-53,782,8,2,-4
4359,-39,27,1018,-21,6,-10
4360,-71,-15,950,-42,2,1
4361,-31,-20,1069,10,1,-8
4362,-5,-32,953,-36,-11,-9
4363,-5,24,1044,2,0,-3
4364,63,-97,841,-6,0,-13
4365,0,27,1071,-11,12,-3
4366,-5,-6,958,-12,12,-5
4367,-50,-42,951,-10,5,-3
4368,-60,25,1003,-31,-1,-5
4369,-9,-44,995,-7,-4,-7
4370,-28,-39,978,-21,-8,-3
4371,70,0,995,-24,-14,-9
4372,-3,-35,1008,-4,9,-5
4373,28,-35,937,-17,8,-5
4374,-29,15,1011,-22,15,-9
4375,-76,-20,922,-3,6,0
4376,-29,-7,1047,-27,-7,-8
4377,-2,-41,957,-13,-5,-8
4378,-9,10,1035,-6,-1,-4
4379,65,-80,889,-22,-3,-12
4380,-9,36,1058,-8,3,-4
4381,-3,-14,961,-18,7,-3
4382,-48,-34,892,-40,5,-4
4383,-80,25,991,-8,4,-4
4384,9,-57,1017,-21,-9,-8
4385,-32,-33,979,-19,-6,-3
4386,61,1,1031,-2,0,-8
4387,-7,-39,987,-13,9,-6
4388,40,-16,926,-7,8,-5
4389,-35,32,972,13,23,-7
4390,-84,-49,861,-11,10,2
4391,-38,17,1035,-21,-3,-8
4392,7,-50,906,-8,-6,-7
4393,-29,6,1018,-21,-8,0
4394,103,-87,844,-32,-10,-14
4395,-33,60,1033,0,14,-5
4396,-3,-15,781,-21,11,-2
4397,-45,-37,750,-14,10,-10
4398,-104,37,952,16,8,-1
4399,28,-68,965,-29,-7,-8
4400,-39,-26,971,-12,-2,-6
4401,71,30,976,-8,-7,-8
4402,-8,-79,852,-14,8,-7
4403,51,-29,684,-8,3,-5
4404,-40,102,823,25,0,-3
4405,-72,-83,600,-42,6,5
4406,-48,48,979,-16,-4,-10
4407,32,-65,797,-9,-17,-10
4408,-96,15,969,-28,-4,8
4409,152,-112,703,-8,-7,-19
4410,-56,40,1005,25,9,3
4411,14,-68,570,-41,-6,-1
4412,-10,-27,656,-15,-2,-5
4413,-136,46,756,8,4,2
4414,54,-63,787,-52,-17,-9
4415,-40,-51,877,8,10,-3
4416,38,55,909,2,-2,-2
4417,11,-146,674,-37,-6,-10
4418,15,-34,644,-41,-15,4
4419,-44,123,749,32,1,-7
4420,-90,-163,573,-73,6,1
4421,-48,19,891,17,-7,-12
4422,37,-51,748,-26,-11,-8
4423,-135,3,784,-39,-6,6
4424,138,-74,555,-12,-5,-21
4425,-77,99,958,38,40,-3
4426,53,-66,427,-41,-6,-2
4427,4,69,616,-17,-1,-10
4428,-127,2,691,19,23,4
4429,51,-99,656,-67,-4,-5
4430,-18,-29,844,36,0,-8
4431,-3,89,1002,-23,-1,-4
4432,23,-199,416,-61,3,-13
4433,-9,53,660,49,15,-3
4434,-36,166,758,-1,7,-6
4435,-40,-136,568,-63,-5,1
4436,-27,34,817,71,-2,-12
4437,7,-40,829,-92,-11,-12
4438,-73,-76,656,-14,-2,8
4439,83,-58,676,57,-23,-26
4440,-115,85,782,-76,12,0
4441,94,-95,352,-3,-2,-1
4442,-35,57,736,45,22,-16
4443,-137,-7,801,-96,5,8
4444,5,-123,778,41,-4,-12
4445,10,-12,879,-24,-15,-11
4446,-68,-14,862,-83,-3,8
4447,58,-118,297,0,-10,-10
4448,-25,35,657,-27,2,-4
4449,-43,-65,611,-63,17,2
4450,-41,-132,724,40,0,-4
4451,-89,95,895,-67,-4,-10
4452,32,-79,905,-4,-4,-7
4453,-64,-127,727,29,-1,-5
4454,81,94,762,-34,-8,-18
4455,-49,-113,581,35,11,-5
4456,18,-111,507,-26,-15,-7
4457,-52,21,615,-64,11,-9
4458,-82,-87,714,37,10,5
4459,-21,19,1028,-53,-17,-11
4460,37,-54,904,-12,-9,-11
4461,-103,-34,919,14,9,5
4462,153,-89,496,-68,-19,-21
4463,-76,-4,662,41,13,-3
4464,-1,-71,730,-4,-1,-1
4465,-22,-39,703,-60,4,-12
4466,-94,47,905,40,11,2
4467,15,-51,1048,-58,-12,-4
4468,-21,-49,953,-12,-1,-9
4469,25,44,987,24,0,-5
4470,33,-105,709,-65,-5,-8
4471,8,8,815,23,5,-5
4472,-37,33,944,16,22,-6
4473,-44,-78,833,-58,5,-2
4474,-66,29,1025,31,4,-7
4475,11,-55,966,-44,-9,-8
4476,-47,-17,962,-10,-2,-1
4477,86,-25,932,15,-3,-16
4478,-32,-8,1031,-33,17,0
4479,40,-42,852,-6,4,-4
4480,-50,9,1029,2,7,-10
4481,-65,-1,931,-47,3,1
4482,-24,-29,1058,6,1,-8
4483,0,-37,953,-26,-10,-8
4484,7,-11,1040,-18,-4,-5
4485,62,-73,907,-4,-1,-11
4486,3,21,1033,-14,7,-4
4487,-11,15,971,-22,10,-7
4488,-59,-28,985,-13,0,-4
4489,-58,9,998,-28,-1,-6
4490,-10,-43,990,-14,-3,-8
4491,-20,-41,984,-13,-4,-4
4492,67,-23,1006,-18,-9,-9
4493,11,-14,1012,-4,2,-6
4494,19,-17,949,-18,5,-5
4495,-39,25,1026,-26,11,-8
4496,-80,-7,971,-16,5,0
4497,-31,-22,1042,-26,-9,-7
4498,-3,-40,963,-21,-8,-7
4499,4,-10,1034,-7,-2,-5
4500,69,-80,917,-19,-1,-11
4501,9,16,1042,-10,4,-4
4502,-11,-7,962,-13,10,-4
4503,-37,-44,907,-27,6,-5
4504,-84,38,975,-18,4,-4
4505,10,-52,994,-16,-8,-9
4506,-31,-39,974,-21,-7,-3
4507,64,13,996,0,-7,-12
4508,-13,-26,999,-5,9,-4
4509,30,-28,875,-14,3,-3
4510,-47,48,927,13,10,-4
4511,-84,-50,899,-19,2,2
4512,-33,4,1072,-21,-4,-9
4513,3,-43,919,-14,-4,-7
4514,-31,0,1021,-14,-4,1
4515,110,-120,811,-20,-7,-13
4516,-21,48,1016,-2,12,-3
4517,-4,-17,794,4,11,0
4518,-35,-53,703,-14,5,-5
4519,-104,55,887,-16,-3,1
4520,37,-71,929,-22,-13,-8
4521,-49,-33,956,-21,-1,-2
4522,74,29,953,-6,-3,-7
4523,-32,-91,911,5,11,-6
4524,67,-51,743,-7,-5,-5
4525,-45,75,814,8,-1,-3
4526,-84,-74,710,-44,5,4
4527,-37,49,947,-29,1,-9
4528,27,-62,814,-12,-10,-8
4529,-80,30,978,-12,-6,6
4530,144,-142,722,-14,-15,-18
4531,-83,79,1011,18,10,2
4532,-1,-31,622,-38,0,-1
4533,-21,-91,715,-43,5,-4
4534,-139,28,878,13,10,2
4535,59,-83,846,-49,-22,-9
4536,-56,-46,868,-13,3,-2
4537,31,64,920,15,-5,-8
4538,-11,-134,717,-35,3,-8
4539,37,-13,584,-34,-9,0
4540,-31,173,738,2,-6,-10
4541,-101,-75,555,-52,-2,1
4542,-36,64,907,-9,1,-12
4543,43,-62,704,-7,-7,-12
4544,-129,-11,892,-31,-2,10
4545,178,-128,652,-11,-13,-22
4546,-48,55,999,35,19,-2
4547,26,-69,538,-33,6,4
4548,-9,-51,648,18,5,-16
4549,-135,5,763,12,0,5
4550,48,-71,741,-36,-8,-10
4551,-38,-43,829,-5,0,-4
4552,-28,71,921,9,-17,-4
4553,-15,-194,587,-22,-2,-11
4554,8,12,671,-1,-3,1
4555,-18,171,760,9,0,-8
4556,-84,-89,512,-65,7,2
4557,-45,57,886,29,-3,-11
4558,35,-70,756,-39,-16,-13
4559,-119,3,836,-29,-4,6
4560,140,-91,652,7,-17,-24
4561,-69,48,1019,-29,11,3
4562,51,-87,462,-26,-9,3
4563,-45,4,755,39,7,-18
4564,-133,-12,841,-36,11,5
4565,42,-44,820,-22,-8,-11
4566,-26,-38,879,1,-6,-9
4567,-2,69,934,-12,-4,0
4568,73,-125,543,-7,-1,-19
4569,-9,69,850,18,8,-4
4570,-9,28,837,-31,27,-4
4571,-60,-131,780,-42,6,-3
