sequence,AccelerometerX,AccelerometerY,AccelerometerZ,GyroscopeX,GyroscopeY,GyroscopeZ
0,2,127,822,-18,-8,-9
1,108,130,499,-32,8,-11
2,112,-55,347,-53,1,2
3,-94,-158,324,34,20,-7
4,-72,21,756,-34,8,-1
5,12,78,580,-1,3,-9
6,-187,-74,682,-4,12,11
7,162,136,839,-28,-33,-28
8,-21,80,735,14,17,8
9,175,77,210,-25,-18,-9
10,66,118,430,-27,16,5
11,-47,130,500,-34,33,14
12,47,-109,743,3,3,-5
13,-117,105,506,1,-12,-8
14,-136,-4,781,-23,-5,13
15,195,94,795,-4,-18,-33
16,-10,46,568,-11,8,6
17,152,141,403,-20,-13,-3
18,198,50,350,-5,33,-3
19,-59,176,756,-13,8,11
20,44,-71,578,-16,-5,-4
21,-191,7,516,9,5,-1
22,16,82,857,-2,-13,-2
23,101,39,721,-26,-6,-16
24,55,10,388,2,-5,-8
25,195,170,580,-31,11,2
26,104,54,388,-2,18,-1
27,-37,42,777,8,5,4
28,-13,57,484,-10,-2,-9
29,-220,-59,619,-7,10,11
30,135,122,865,9,-23,-24
31,28,6,700,-16,12,6
32,144,2,211,5,-14,-9
33,134,164,563,-31,30,4
34,-27,136,526,-40,9,8
35,-8,-95,783,4,-3,-1
36,-81,114,462,-15,-3,-10
37,-179,-36,772,-5,5,14
38,214,32,799,-8,-24,-33
39,9,-21,605,-42,5,8
40,96,231,338,-5,-15,-10
41,102,-137,475,-27,31,-8
42,-139,176,603,-32,20,4
43,47,-118,650,12,-10,-5
44,-163,29,585,-38,-13,-3
45,-57,61,836,6,-15,2
46,92,32,776,-19,1,-17
47,95,119,532,-15,1,-5
48,149,-3,485,-2,2,4
49,-47,-197,447,-31,8,1
50,-101,125,657,-2,5,2
51,13,37,637,-14,8,-7
52,-204,-40,639,-14,8,8
53,107,137,846,17,-29,-22
54,-10,172,731,-57,-1,2
55,150,14,239,-8,-12,-18
56,62,-67,365,11,23,-3
57,-156,119,403,-55,15,0
58,-10,-62,726,36,5,-7
59,-50,119,484,23,6,-10
60,-139,3,736,-30,-5,15
61,231,33,766,29,-22,-34
62,45,-46,472,-33,8,14
63,154,-9,265,-12,-10,-8
64,115,-48,449,-57,23,-6
65,-77,197,507,-27,11,6
66,58,-104,640,9,-4,-6
67,-153,49,444,-29,-3,-7
68,0,35,830,9,-12,4
69,137,-72,644,-18,-12,-20
70,64,-11,356,2,-3,-4
71,136,196,534,-5,11,5
72,89,-22,428,-66,9,4
73,-78,74,740,12,-2,0
74,7,11,520,-20,-3,-6
75,-202,-67,606,-8,5,7
76,77,84,788,21,-24,-21
77,39,-2,772,-58,11,0
78,202,4,219,31,2,-13
79,55,-130,554,-2,20,2
80,-154,76,492,-39,2,7
81,-25,-42,737,-7,1,-2
82,-40,114,592,-8,11,-10
83,-181,26,775,-2,0,16
84,218,0,769,4,-32,-33
85,3,183,554,-53,16,9
86,156,48,198,12,0,-11
87,-21,-139,392,-28,13,-12
88,-129,249,396,-19,12,5
89,47,-109,706,8,-1,-5
90,-139,61,470,-31,-4,-6
91,7,93,772,-9,-16,5
92,147,-75,587,-15,-19,-18
93,38,-35,307,-21,-1,-4
94,214,152,431,-14,11,-5
95,78,-31,366,-39,18,-8
96,-27,111,639,30,7,-4
97,19,14,512,-12,-7,-6
98,-199,-53,580,-43,-7,5
99,116,80,813,43,-17,-22
100,58,-44,655,-47,8,7
101,160,12,128,13,-12,-11
102,66,130,550,-33,24,8
103,-62,137,510,-46,11,7
104,-24,-117,751,35,1,-7
105,-61,122,498,-42,-4,-7
106,-207,-87,744,-3,1,16
107,203,39,783,-4,-32,-35
108,14,108,643,-51,17,10
109,220,46,280,47,2,-6
110,-2,-292,547,-57,5,-7
111,-165,249,446,-36,8,9
112,48,-136,685,-7,8,-5
113,-141,66,646,-19,3,-6
114,-64,83,785,8,-12,5
115,111,73,677,-6,-16,-19
116,43,183,479,-10,4,0
117,128,131,297,-55,10,-1
118,-88,-194,297,-57,18,-1
119,-57,190,537,46,5,-5
120,40,6,628,-21,-3,-6
121,-181,-33,522,-3,10,6
122,123,173,786,24,-16,-17
123,66,111,672,-73,0,2
124,131,-57,250,43,-9,-16
125,5,-92,226,-9,17,-2
126,-129,125,281,-43,27,-1
127,30,-7,696,47,11,-5
128,-19,132,448,-51,-16,-9
129,-157,-12,655,0,-8,16
130,228,98,803,-6,-28,-34
131,75,3,552,-59,23,9
132,119,-31,128,43,-5,-4
133,-34,-135,331,-26,7,-12
134,-85,239,435,-17,17,12
135,95,-65,686,8,12,-6
136,-120,78,355,-31,2,-6
137,-14,134,739,16,-21,8
138,146,25,653,-37,-22,-27
139,98,20,484,-24,17,0
140,61,-33,293,19,11,3
141,-100,-125,260,-44,12,-13
142,57,224,520,38,17,7
143,47,8,557,-32,-2,-8
144,-166,-48,428,-14,7,4
145,115,232,767,37,-25,-13
146,80,145,715,-59,-12,0
147,146,-9,273,-13,-7,-17
148,12,-46,194,-62,17,6
149,-126,-44,231,-37,1,-8
150,51,61,676,23,3,-5
151,3,132,456,-56,-13,-8
152,-161,-61,597,15,8,14
153,234,138,812,-26,-38,-33
154,6,288,703,-18,21,10
155,206,120,82,13,-2,-5
156,-19,-137,309,-49,-7,1
157,-179,62,435,-17,30,15
158,52,-115,629,-26,7,-8
159,-60,86,525,4,-3,-9
160,-44,45,743,2,-16,12
161,168,114,732,-20,-33,-27
162,-49,157,593,-13,19,4
163,216,87,325,-57,6,1
164,57,-120,255,12,0,-3
165,-128,143,643,-24,21,7
166,41,-57,445,-21,3,-9
167,-153,-55,585,32,9,1
168,67,178,758,-26,-35,-6
169,72,152,679,-31,-18,-8
170,98,-56,391,-28,10,-10
171,183,122,456,-57,21,7
172,125,76,411,10,14,-9
173,75,62,917,-60,0,0
174,-31,93,294,13,0,-11
175,-207,-111,520,-7,9,13
176,208,253,755,-25,-40,-26
177,16,83,680,-8,4,6
178,164,-40,118,-41,-1,-8
179,40,-133,307,13,14,-12
180,-27,29,340,-53,14,6
181,98,-45,719,-12,3,-9
182,-94,108,288,34,1,-7
183,-112,42,624,-69,-17,16
184,212,140,763,13,-28,-33
185,-111,162,543,-7,9,9
186,208,117,326,-61,-20,-7
187,103,-19,131,-5,30,5
188,-73,183,643,-17,15,14
189,3,-120,592,8,-13,-10
190,-153,17,497,1,-1,-5
191,26,128,707,-10,-12,2
192,95,42,594,-26,-6,-22
193,41,14,596,-29,-4,-1
194,165,4,288,-4,7,0
195,7,-195,350,-47,30,-15
196,221,200,558,18,10,2
197,2,13,535,-1,-1,-7
198,-193,-84,384,-49,-4,9
199,127,154,817,38,-22,-19
200,-40,191,743,-57,11,-5
201,106,5,372,-5,1,-7
202,145,136,259,30,9,-5
203,62,95,431,-1,32,6
204,0,-14,894,36,14,-9
205,-24,114,460,-12,6,-7
206,-196,-54,644,-15,-4,14
207,225,126,658,22,-35,-33
208,-52,168,751,-33,25,7
209,223,36,111,5,8,-3
210,14,-143,329,0,-5,-6
211,-41,-17,363,-48,27,16
212,69,-109,652,11,9,-12
213,-99,75,506,-10,-1,-5
214,-46,80,738,-23,-16,12
215,164,37,655,8,-23,-29
216,-11,108,712,-17,19,6
217,130,212,286,-27,-11,0
218,80,3,569,-8,9,0
219,138,303,701,-40,20,9
220,54,15,570,9,-1,-12
221,-177,-12,456,-25,-13,0
222,88,185,789,-9,-25,-4
223,13,135,642,-3,-4,-12
224,43,95,564,-38,2,-3
225,183,93,280,-8,-5,0
226,4,-108,251,-33,28,5
227,-101,45,752,20,28,0
228,-15,49,565,26,6,-9
229,-197,-80,575,-54,-13,10
230,181,195,737,37,-20,-24
231,-36,53,751,-59,6,3
232,154,-13,376,-35,-13,-7
233,111,-155,409,43,21,-9
234,44,-33,330,-98,12,7
235,157,4,737,54,11,-10
236,-70,103,416,-8,3,-8
237,-136,14,687,-47,-11,16
238,214,114,842,26,-22,-32
239,-86,149,692,-69,12,4
240,102,1,294,0,-1,-2
241,149,71,265,-14,12,-11
242,-6,141,770,-65,5,10
243,30,-65,716,36,7,-11
244,-159,62,523,-14,4,-3
245,-11,129,745,-15,-19,4
246,110,85,633,15,-17,-21
247,40,93,665,-22,8,2
248,149,75,218,-59,13,-1
249,-53,-265,387,-14,9,0
250,136,162,537,8,7,6
251,57,-1,645,-51,-5,-10
252,-185,-40,532,20,11,7
253,106,187,784,-29,-36,-12
254,-6,164,806,-39,-3,-5
255,86,2,472,14,7,-4
256,138,203,288,-39,0,2
257,50,13,362,1,25,5
258,-38,9,834,5,10,-5
259,-15,79,541,-9,-9,-11
260,-179,-22,684,-1,-2,12
261,214,180,751,-15,-31,-30
262,-28,57,730,-23,25,5
263,161,-10,302,10,-12,-9
264,49,4,569,-13,24,-3
265,69,197,555,1,30,10
266,144,-11,714,-3,3,-7
267,-116,90,345,-2,-1,-8
268,-65,78,729,-2,-7,10
269,198,93,729,-34,-23,-28
270,-8,179,644,10,12,3
271,173,109,178,-30,-15,-2
272,-66,-289,461,-24,31,-4
273,-135,109,593,-1,12,13
274,47,-56,689,-38,-18,-8
275,-149,-4,532,-1,-2,0
276,82,104,801,10,-11,-8
277,52,98,768,-15,3,-10
278,52,40,500,21,-8,-7
279,143,213,399,-38,-2,6
280,39,-4,208,-51,23,9
281,-59,19,803,18,13,4
282,9,64,547,-10,-15,-11
283,-211,-58,620,-29,-9,14
284,159,191,829,30,-16,-25
285,-2,63,656,-70,10,3
286,129,-63,214,-27,-19,-10
287,215,142,507,5,11,-8
288,103,151,522,-76,8,0
289,55,-70,815,12,12,-3
290,-98,125,377,-14,-5,-8
291,-147,6,693,-47,-15,17
292,228,76,797,29,-27,-34
293,10,19,536,-31,10,9
294,168,38,251,-9,-1,-7
295,155,68,463,-18,32,2
296,-3,245,588,-16,3,12
297,98,-33,637,2,-5,-8
298,-184,49,338,-13,7,-3
299,7,146,759,3,-14,3
300,130,34,706,-28,-16,-21
301,76,9,426,-24,0,-4
302,93,-17,387,11,15,5
303,-46,-62,292,-27,11,-12
304,94,181,574,-6,8,4
305,31,47,578,-7,3,-9
306,-184,-61,432,-19,5,6
307,148,210,790,25,-29,-20
308,64,134,731,-49,1,2
309,125,-13,200,-13,-8,-14
310,18,-50,216,-35,19,0
311,-128,32,329,-72,8,-3
312,52,14,729,48,-2,-8
313,-10,126,461,-59,-16,-8
314,-157,-13,599,-2,5,15
315,233,96,829,15,-29,-33
316,25,293,632,-40,5,13
317,169,81,51,12,13,-10
318,-45,-164,339,-67,13,2
319,-129,180,442,28,18,8
320,67,-80,679,-29,-5,-9
321,-92,72,475,-4,2,-7
322,-34,93,722,-3,-15,7
323,152,90,732,-34,-29,-22
324,34,244,556,23,17,1
325,143,165,205,-59,4,6
326,-118,-253,328,-18,-1,2
327,-62,168,559,-9,16,5
328,54,-14,601,-32,-3,-10
329,-147,-57,522,21,7,3
330,86,142,759,-18,-34,-14
331,20,131,771,-30,0,-5
332,169,156,349,20,6,-10
333,67,4,299,-40,-7,6
334,-157,-163,325,-13,13,8
335,-46,4,657,-15,13,-2
336,11,116,551,-18,-7,-12
337,-187,-75,664,0,-2,15
338,192,99,828,-12,-39,-34
339,-34,212,715,-24,30,9
340,223,84,150,19,-8,-7
341,3,-221,387,-50,6,-3
342,-221,92,449,-5,26,12
343,34,-139,627,-31,-7,-5
344,-67,86,588,5,-2,-11
345,-93,0,753,-11,-6,13
346,174,67,695,-23,-25,-32
347,-23,220,586,-6,9,1
348,233,43,282,-23,2,-2
349,-21,-311,381,-11,28,-17
350,-160,128,547,50,23,7
351,41,-59,515,-63,-14,-6
352,-143,-59,598,20,7,0
353,29,126,788,-2,-21,-5
354,27,99,717,-39,-15,-10
355,148,120,373,3,8,-12
356,145,-6,413,-56,7,9
357,-32,-69,263,17,13,-6
358,-89,-11,690,-53,9,-5
359,4,88,464,7,-6,-8
360,-191,-127,647,-4,0,11
361,144,194,797,-30,-38,-31
362,-13,95,639,8,29,8
363,217,25,117,-12,-22,-13
364,111,169,452,-29,18,2
365,57,178,517,-4,30,16
366,63,-132,681,-35,-10,-2
367,-120,93,398,15,-6,-10
368,-138,17,705,-9,7,17
369,221,105,695,4,-15,-34
370,13,49,504,14,15,7
371,169,54,213,-47,-32,-5
372,165,100,399,-6,29,7
373,74,276,738,-46,28,13
374,69,-36,566,20,-6,-9
375,-204,-14,244,-3,-13,-3
376,37,198,714,2,-18,1
377,87,196,628,-17,-1,-16
378,111,96,334,-23,-6,-6
379,162,68,201,-43,-13,7
380,-138,-264,223,-61,27,15
381,113,57,616,19,19,-1
382,-29,41,542,2,-6,-7
383,-156,-121,390,-55,-8,11
384,132,218,826,39,-18,-24
385,-47,201,663,-54,17,0
386,169,2,211,11,-7,-10
387,131,189,383,20,17,-8
388,111,169,422,-17,11,13
389,43,-95,821,6,4,-5
390,-45,134,407,3,21,-8
391,-217,-62,614,-12,3,17
392,225,124,638,19,-41,-34
393,2,155,658,-20,-1,12
394,247,75,12,-20,8,-5
395,17,-181,319,-66,1,6
396,35,-10,393,20,13,14
397,55,-123,593,-26,0,-11
398,-110,41,461,14,20,-5
399,-34,83,696,-7,-11,11
400,126,41,609,-24,-45,-27
401,-4,100,657,17,8,1
402,115,229,229,-63,-1,6
403,93,-40,567,14,9,1
404,157,315,712,-13,18,5
405,56,-20,556,-28,-3,-10
406,-182,-57,465,1,-4,2
407,77,107,793,-17,-25,-7
408,-17,99,680,-24,6,-12
409,57,-17,580,15,9,-8
410,127,39,162,-57,0,0
411,27,5,459,12,33,3
412,-9,67,934,-27,-3,-3
413,11,67,513,-37,-8,-5
414,-192,-70,612,27,9,11
415,200,107,704,-12,-25,-27
416,-84,153,831,-37,6,3
417,177,-39,302,-20,-13,-9
418,94,-155,346,5,11,-7
419,-101,-71,493,-55,21,12
420,-23,-50,799,-3,-4,-9
421,-75,91,551,-2,1,-7
422,-135,-38,766,-43,-12,12
423,221,10,659,16,-20,-34
424,-52,135,744,-33,1,9
425,178,61,327,-13,-1,-9
426,38,-239,470,-35,22,-8
427,21,115,391,8,14,15
428,89,-75,721,-17,-4,-8
429,-145,51,577,-9,2,-3
430,3,52,830,2,-13,3
431,121,-9,649,-20,-19,-21
432,11,86,689,18,12,2
433,111,168,452,-26,15,1
434,63,-91,563,8,17,-4
435,150,263,666,4,12,2
436,35,10,580,-32,-1,-7
437,-180,-48,521,3,2,5
438,122,139,751,-6,-30,-13
439,-20,135,695,-21,4,-7
440,80,-20,504,28,17,-5
441,147,121,213,-18,1,0
442,18,34,502,-13,33,10
443,-36,38,839,-1,7,-7
444,-19,92,509,-24,-4,-7
445,-188,-84,643,2,-1,14
446,202,132,641,5,-29,-32
447,-91,170,766,-24,31,6
448,206,-3,189,18,-4,-11
449,81,-165,366,-46,18,-6
450,-98,-77,330,2,21,11
451,19,-111,624,-54,-9,-6
452,-91,91,498,16,3,-7
453,-114,-25,734,-15,-3,12
454,201,-16,593,-29,-33,-35
455,1,106,733,-20,13,9
456,179,77,242,-45,-19,-6
457,44,-308,414,-11,24,-6
458,111,152,356,-44,19,14
459,106,-55,584,23,1,-10
460,-157,2,465,-28,-9,-3
461,33,29,834,-9,-18,2
462,93,-17,563,3,-1,-21
463,32,45,672,-8,2,-4
464,114,35,424,-2,17,2
465,56,-147,506,-26,9,-2
466,149,263,661,-22,-1,-1
467,19,21,570,2,6,-7
468,-186,-75,467,-27,-3,6
469,133,18,777,9,-27,-15
470,2,152,616,-50,-6,1
471,109,-4,475,-6,-3,-12
472,50,120,299,-45,18,-1
473,75,72,689,-4,10,9
474,33,57,862,-14,-10,-9
475,-40,124,449,-27,7,-5
476,-182,-25,606,23,7,13
477,221,-10,647,-33,-38,-30
478,-68,122,735,-18,25,7
479,138,-90,236,21,-3,-7
480,101,31,303,-90,7,-4
481,-25,149,819,11,20,10
482,14,-87,707,-50,-8,-7
483,-89,104,470,10,4,-7
484,-91,82,750,3,1,13
485,194,-66,483,-19,-18,-32
486,-60,79,754,29,21,7
487,151,-27,295,-22,-15,-5
488,128,10,303,-41,23,-3
489,-83,190,834,14,19,6
490,7,-71,634,-50,-12,-5
491,-154,19,582,5,-8,-3
492,48,77,730,-9,-13,1
493,56,-4,515,-40,-14,-16
494,22,15,721,16,-4,0
495,217,33,293,-28,13,-3
496,51,-32,391,-38,24,8
497,-83,110,770,29,10,-1
498,-4,34,651,-39,2,-3
499,-184,-73,577,7,4,6
500,145,44,656,9,-21,-17
501,-38,99,729,-48,-11,2
502,121,-15,512,11,-5,-13
503,194,-15,290,-51,16,-2
504,-42,18,510,21,14,11
505,-28,-30,753,-7,-1,-8
506,-44,101,651,-32,-2,-6
507,-179,-26,639,11,1,13
508,207,-16,617,-24,-38,-31
509,-59,105,815,-31,-2,12
510,187,3,336,-29,5,-8
511,121,-116,318,-3,0,-9
512,-93,132,555,17,29,16
513,30,-132,656,-47,2,-8
514,-93,89,609,20,4,-6
515,-96,53,750,-32,-13,15
516,183,-102,477,-26,-37,-32
517,-54,127,786,-9,23,8
518,184,-5,412,-50,-12,-7
519,112,-136,296,28,15,-5
520,-111,181,590,-42,16,9
521,21,-94,623,9,5,-7
522,-149,5,619,-4,-6,-4
523,26,59,698,-31,-17,3
524,41,-38,493,-9,-11,-21
525,24,70,747,-34,-3,-1
526,209,-4,353,9,10,-6
527,56,-53,306,-60,10,8
528,-70,105,674,14,0,-3
529,-6,43,632,-14,6,-4
530,-189,-95,564,-20,0,5
531,134,53,634,32,-14,-16
532,-33,117,716,-43,-13,0
533,121,-49,577,16,-1,-9
534,172,48,239,-44,16,3
535,-16,54,619,-30,20,9
536,-21,-43,785,-5,-1,-10
537,-54,127,655,-17,3,-3
538,-196,-22,597,-6,-1,12
539,197,-18,573,2,-29,-34
540,-21,65,690,-44,18,7
541,156,-9,354,-3,-16,-14
542,95,21,558,-28,-1,-4
543,-22,180,807,3,30,12
544,35,-111,714,-54,-3,-7
545,-109,109,523,24,2,-6
546,-86,2,775,-34,-10,17
547,201,-122,392,-2,-26,-34
548,-24,77,636,-5,14,13
549,168,36,346,-29,-11,-7
550,21,-183,646,-7,26,-4
551,23,286,602,-7,21,10
552,42,-95,666,-35,4,-1
553,-151,-1,551,10,-3,-5
554,51,-4,865,-30,-13,6
555,67,-68,442,-26,-11,-26
556,24,40,669,-25,-3,-5
557,153,88,285,-13,2,-7
558,22,-271,329,-58,6,5
559,35,160,464,34,4,-4
560,10,10,675,-64,9,2
561,-170,-101,572,-8,2,2
562,83,50,762,21,-19,-12
563,-46,-18,616,-45,-3,-7
564,135,21,667,34,1,-15
565,174,-128,377,-63,-3,7
566,-67,-147,278,-25,16,9
567,-13,44,577,-16,-6,-12
568,-40,103,736,-48,9,0
569,-186,-65,613,33,9,12
570,176,75,650,4,-29,-29
571,-31,64,796,-6,24,11
572,175,-95,437,9,-16,-12
573,81,117,473,-68,-5,0
574,-21,134,737,-41,12,9
575,48,-123,761,-46,-6,-10
576,-121,124,552,22,-2,-7
577,-99,-14,746,-35,-6,18
578,231,-86,495,4,-16,-35
579,-47,77,585,12,13,12
580,185,12,346,-24,-20,-8
581,51,-257,560,-57,11,-2
582,-42,228,470,-33,5,6
583,55,-143,759,3,2,-7
584,-129,80,609,-24,-1,-9
585,-52,28,772,5,4,12
586,118,-106,484,-24,-15,-30
587,32,158,856,-2,6,-2
588,110,153,477,-22,0,-4
589,114,-81,410,-2,19,1
590,-66,167,557,-2,18,3
591,16,-75,747,-24,10,1
592,-154,-65,722,-6,-7,-7
593,55,142,623,-27,-22,-2
594,44,-27,451,5,1,-14
595,128,-128,503,-21,6,-10
596,134,-56,271,-48,-8,4
597,-1,-88,505,12,15,3
598,69,123,738,-62,2,-9
599,-20,71,654,23,16,1
600,-176,-142,592,-14,-4,7
601,127,55,721,-4,-19,-23
602,-44,173,635,-26,4,3
603,204,-29,656,-24,-15,-15
604,95,197,329,11,25,-7
605,20,109,505,-4,13,9
606,44,-125,849,-1,13,-9
607,-78,113,642,2,9,0
608,-167,-68,637,-38,-1,21
609,241,80,701,30,-31,-39
610,-43,153,417,-47,1,16
611,223,-12,531,1,2,-17
612,26,-259,368,-57,7,-5
613,-141,165,380,28,16,11
614,85,-211,850,-59,-6,-6
615,-56,108,677,21,12,-9
616,-126,35,767,-46,-1,18
617,247,-11,367,7,-24,-42
618,92,-8,337,24,30,12
619,123,-49,125,-19,-19,-13
620,-2,-329,379,-6,44,3
621,-27,268,555,24,8,12
622,103,-182,861,-31,-13,-4
623,-121,51,664,-2,5,-11
624,-17,78,695,-18,13,16
625,202,-62,307,4,-17,-33
626,90,-141,275,13,4,0
627,39,41,68,1,7,2
628,-14,-338,372,-40,-5,-2
629,15,213,682,0,6,1
630,127,-120,810,-48,6,0
631,-108,-55,612,-1,-2,-7
632,100,228,555,-4,-29,8
633,103,15,444,-20,-8,-21
634,168,-82,327,-62,7,-13
635,39,234,340,-14,-21,7
636,-57,32,435,-11,30,14
637,73,115,899,6,2,-9
638,32,-53,619,-5,6,0
639,-211,-195,448,-44,3,6
640,71,35,414,40,-5,-20
641,-54,-49,26,-58,-5,2
642,169,-93,207,10,8,-18
643,-37,35,109,-61,-9,22
644,8,4,361,-3,1,13
645,143,-69,801,-15,-2,-15
646,65,200,583,-13,19,0
647,-95,-267,436,-18,3,17
648,208,136,340,-15,-63,-34
649,-54,114,-42,-35,24,22
650,146,-17,53,-33,-47,-32
651,84,48,295,-50,16,6
652,-16,39,479,2,10,14
653,187,-204,780,60,-11,-18
654,85,67,433,4,26,-7
655,-91,-230,287,-12,19,19
656,98,-47,417,-13,-40,-41
657,-79,30,394,-38,-2,21
658,118,-93,566,-3,-19,-19
659,-53,26,197,-16,31,-4
660,2,44,259,5,27,17
661,206,-137,922,-71,-19,-17
662,-69,41,582,68,7,-7
663,-31,106,522,-58,-7,18
664,203,139,415,10,-9,-39
665,81,116,469,-5,-3,19
666,50,18,720,-24,-27,-14
667,-47,-58,779,8,16,-9
668,-52,90,612,13,33,11
669,82,-206,985,-66,-2,-11
670,63,19,716,56,5,-10
671,-25,218,762,-33,-10,10
672,93,137,591,11,-7,-34
673,-9,307,610,8,10,11
674,112,-5,494,-23,-11,-12
675,1,-148,640,27,17,-10
676,-20,47,757,-11,15,11
677,58,-175,997,-41,4,-7
678,-11,-17,641,23,5,-8
679,-104,-70,534,-32,-16,15
680,43,-93,522,12,-14,-31
681,-32,73,632,-28,10,12
682,122,156,560,-39,-29,-9
683,18,-39,344,-33,10,3
684,60,178,779,-42,2,7
685,44,-103,943,3,12,-2
686,-89,41,721,-7,4,-7
687,14,179,589,-31,-8,12
688,151,77,402,-52,-26,-28
689,126,149,533,14,8,-6
690,70,49,420,-16,-11,-12
691,-25,-89,749,-62,17,-1
692,-11,32,737,12,6,3
693,50,-159,946,-43,1,4
694,-35,-155,551,-5,-3,-12
695,-50,7,447,7,-10,8
696,5,-129,392,-45,-16,-21
697,52,-12,551,-5,-15,7
698,16,264,544,-29,-11,-6
699,-99,-146,344,-82,15,9
700,114,161,826,54,10,-10
701,44,-87,822,-79,-5,5
702,-36,-122,626,8,0,-8
703,-5,377,547,6,-3,-1
704,72,106,342,-26,-1,-15
705,61,146,452,48,-5,-11
706,102,114,353,-12,13,-10
707,-28,-183,618,-23,20,9
708,101,1,786,42,5,-7
709,0,-53,824,-68,11,6
710,-39,-234,539,21,2,-8
711,-5,70,342,-14,-21,1
712,-53,-56,343,-43,-17,-11
713,61,-50,588,-25,-16,-5
714,-23,289,585,-127,-14,3
715,-76,-162,352,29,35,13
716,172,31,924,-46,-9,-12
717,23,5,759,-19,13,9
718,-50,-95,533,5,-3,-1
719,23,336,531,-26,-10,-14
720,66,163,404,-8,-1,-7
721,120,44,580,30,8,-18
722,63,71,365,-29,-10,-12
723,-86,-150,657,-17,22,15
724,109,-45,891,-24,0,-11
725,25,0,745,-1,24,4
726,-109,-266,442,-18,-12,4
727,52,47,362,29,-19,-22
728,-73,-11,499,-69,3,6
729,82,-7,621,-13,-30,-6
730,-47,222,355,-32,4,0
731,-33,-4,461,-58,21,16
732,141,-81,1022,49,8,-19
733,-27,66,732,-58,0,4
734,-98,8,528,-1,1,7
735,91,235,480,-13,-29,-30
736,48,256,458,-34,18,6
737,129,-7,481,24,-23,-22
738,49,15,406,-6,23,-11
739,-87,-58,692,-34,16,21
740,118,-148,984,13,-3,-13
741,9,23,639,-49,10,-1
742,-109,-163,411,17,4,14
743,55,-23,412,-26,-33,-33
744,-65,34,445,-48,-9,14
745,75,1,643,-6,-22,-14
746,-94,101,443,-88,9,-5
747,0,61,574,33,19,10
748,140,-166,986,-68,-10,-10
749,-37,43,656,21,15,-5
750,-67,174,634,13,9,16
751,123,157,488,20,-12,-40
752,-34,218,449,4,0,15
753,149,62,344,1,0,-13
754,29,-157,507,-38,9,-5
755,-47,68,683,24,12,12
756,99,-209,910,-75,-4,-7
757,-34,28,602,34,14,-11
758,-58,-16,512,-37,-6,15
759,104,-26,447,-31,-27,-36
760,-26,60,267,35,19,5
761,35,57,649,-25,0,-12
762,-73,-82,627,-7,18,-9
763,15,115,716,18,6,11
764,107,-184,926,-57,0,-3
765,10,-28,650,31,14,-13
766,-75,49,645,-27,-5,16
767,112,46,480,-38,-33,-32
768,-61,205,575,21,18,1
769,196,148,485,-71,-15,-12
770,29,-43,442,-4,33,-4
771,16,218,725,0,-4,5
772,-2,-109,871,-47,0,2
773,-124,-3,701,22,7,-13
774,86,73,536,-23,-3,12
775,143,9,347,-52,-22,-27
776,70,78,537,8,-4,1
777,42,109,401,-54,-12,-6
778,-52,-79,707,-51,27,0
779,9,42,722,42,11,-3
780,43,-111,899,-59,-2,6
781,-24,-140,600,15,-1,-10
782,-44,21,502,-6,-15,6
783,4,-115,357,-29,4,-21
784,47,-56,483,-27,-12,-2
785,-20,248,669,-24,-9,-5
786,-114,-110,514,-76,-8,0
787,144,118,881,12,15,-5
788,60,-60,817,-33,11,6
789,-34,-96,637,-9,-8,-4
790,26,244,632,-19,-29,-1
791,14,120,495,-11,10,-13
792,4,123,506,-39,-7,-12
793,203,222,468,-22,3,-9
794,-75,38,394,-10,17,10
795,103,127,805,6,-2,-7
796,-96,48,782,-28,12,4
797,-104,-150,602,-11,-2,0
798,172,139,496,0,-9,-14
799,92,120,393,-43,-5,-4
800,123,130,505,22,-7,-22
801,77,43,286,-53,4,-2
802,-79,-145,601,20,34,14
803,97,-14,892,-21,2,-12
804,8,17,719,0,15,-2
805,-116,-221,562,-30,-13,6
806,88,76,478,-17,-22,-29
807,-49,34,245,-32,8,7
808,76,-122,502,12,-12,-26
809,-12,24,678,-34,16,-1
810,-138,-79,610,-65,0,16
811,132,-93,1003,10,0,-15
812,62,104,724,-40,16,-1
813,-96,-219,543,19,5,10
814,51,-56,541,0,-26,-33
815,-39,47,631,-18,7,14
816,130,-37,520,1,-17,-16
817,-41,128,263,1,14,-3
818,-28,164,510,-68,8,14
819,110,-122,1030,-11,-1,-12
820,-67,92,701,8,3,-4
821,-115,97,633,-44,-1,20
822,191,119,570,52,-20,-39
823,-17,215,383,-70,-1,22
824,188,96,409,-4,-14,-11
825,32,-42,429,-38,19,1
826,-11,151,585,22,14,9
827,109,-159,918,-36,-2,-6
828,-143,84,620,13,9,-7
829,-19,-24,656,-1,-6,21
830,235,43,532,-9,-19,-36
831,10,110,445,-42,4,17
832,71,44,293,-3,-5,-5
833,-36,-60,518,-32,9,-7
834,-54,54,623,5,23,13
835,94,-226,958,-32,8,-3
836,30,38,564,14,1,-12
837,-111,-33,532,-48,-11,19
838,64,-123,508,10,-18,-36
839,-14,55,232,-9,22,7
840,46,-31,631,-42,-15,-12
841,-77,-91,661,18,44,-1
842,24,165,701,0,7,8
843,114,-172,884,3,2,-2
844,-3,-39,658,-19,3,-10
845,-73,21,621,-22,2,12
846,88,-38,460,-49,-29,-31
847,29,110,559,33,9,-2
848,137,129,401,-49,-12,-9
849,-58,-1,259,17,23,4
850,37,298,688,-27,14,1
851,15,-75,819,-29,15,3
852,-91,-63,663,29,-7,-10
853,52,217,580,-48,-7,6
854,105,58,419,16,2,-21
855,62,197,436,5,1,-6
856,133,159,273,-29,12,-7
857,19,-222,523,-50,2,8
858,93,40,739,19,-3,-7
859,1,-80,806,-68,10,5
860,-70,-209,588,28,8,-7
861,5,88,480,-41,-19,0
862,-28,-2,213,-22,-5,-11
863,62,-97,400,25,-3,-13
864,-10,99,738,-40,8,-7
865,-94,-203,559,-25,29,13
866,123,103,890,22,-11,-7
867,94,-37,780,-40,10,6
868,-30,-189,558,-13,1,0
869,6,147,553,-8,-8,-7
870,15,110,564,-68,-7,-6
871,20,102,505,28,-5,-14
872,201,174,434,-78,-10,-6
873,-33,-2,334,-26,31,13
874,125,85,780,19,-3,-9
875,-98,74,719,-65,1,3
876,-74,-166,538,1,-7,3
877,210,184,397,39,-5,-22
878,40,128,232,-93,-12,4
879,153,-113,627,49,-23,-13
880,0,72,658,-74,-2,1
881,-122,-137,564,-34,21,15
882,126,-94,916,2,0,-17
883,89,18,721,-60,2,4
884,-107,-289,412,34,1,8
885,63,52,523,-33,-23,-26
886,-53,194,619,-27,24,7
887,96,13,505,9,-10,-19
888,183,112,338,-42,18,-5
889,15,10,494,13,27,14
890,96,-77,908,-13,-3,-13
891,-138,144,683,-19,14,-1
892,13,-87,502,2,8,12
893,174,166,370,16,-29,-39
894,21,74,311,0,16,9
895,99,-34,590,5,-17,-19
896,-8,-15,767,10,17,-12
897,-94,12,584,-44,18,20
898,155,-155,1061,15,1,-12
899,63,37,690,-26,9,-5
900,-52,24,619,-10,3,16
901,115,126,590,22,-22,-37
902,-69,309,473,-42,-9,18
903,144,15,410,-12,-12,-10
904,73,-129,470,-38,4,-4
905,-52,31,681,-19,9,14
906,87,-187,962,-62,-8,-10
907,-51,70,587,42,12,-7
908,-27,-68,466,-53,-17,19
909,76,-42,442,-9,-17,-36
910,-35,42,449,-46,8,9
911,53,70,679,-13,-16,-10
912,-72,-30,445,-62,9,-1
913,60,63,644,-17,13,11
914,111,-170,931,-10,7,-6
915,1,-39,701,4,8,-10
916,-31,233,691,-15,0,17
917,113,144,407,2,-13,-34
918,43,212,469,12,19,4
919,99,33,315,21,-6,-15
920,9,-123,637,-12,21,-9
921,-8,30,704,7,12,9
922,52,-211,965,-17,9,-2
923,-4,-72,532,-12,1,-11
924,-111,-23,465,-2,-2,17
925,28,-126,409,0,-32,-34
926,-11,11,599,-20,4,13
927,91,183,494,-79,-22,-5
928,-39,-108,296,25,24,4
929,78,203,773,-54,0,3
930,41,-97,898,-6,14,1
931,-53,-6,666,23,-3,-11
932,10,197,530,-58,-12,11
933,134,54,370,-20,-11,-27
934,128,98,576,-20,-7,-2
935,40,81,503,-13,-8,-10
936,-12,-63,740,-75,23,6
937,4,37,751,27,13,-5
938,28,-129,897,-41,3,4
939,-11,-179,580,1,-6,-13
940,-70,4,495,27,-4,0
941,1,-50,509,5,4,-16
942,10,-18,618,11,-7,-4
943,122,243,455,-21,7,-7
944,-46,-82,391,-44,13,7
945,99,192,868,41,3,-10
946,-25,-25,883,-64,8,2
947,-63,-70,724,17,-1,-7
948,96,206,481,-23,-12,-7
949,88,83,479,-22,-2,-11
950,85,113,604,41,-4,-17
951,98,55,424,-33,6,-9
952,-103,-146,707,-6,27,7
953,69,27,888,4,-5,-8
954,-20,7,870,-38,8,3
955,-73,-182,670,-12,-8,-2
956,33,71,490,-24,-10,-15
957,4,-8,357,-35,-1,-3
958,86,-87,578,44,2,-18
959,0,133,753,-45,2,-6
960,-101,-79,667,12,34,11
961,64,-3,995,-19,3,-10
962,33,65,811,-22,5,-2
963,-68,-150,647,-16,-10,4
964,104,42,643,5,-15,-27
965,1,97,685,-48,0,9
966,83,39,623,2,-5,-17
967,38,197,393,-39,20,2
968,-61,107,540,-55,10,12
969,57,-43,1071,21,3,-12
970,-68,107,850,-23,4,-3
971,-107,7,668,4,-4,15
972,165,139,624,5,-32,-29
973,-42,226,541,-40,19,13
974,182,85,532,-4,-17,-17
975,62,193,261,16,34,-7
976,-29,211,545,-43,7,12
977,31,-66,1037,8,-2,-10
978,-102,104,741,-21,0,-7
979,-117,65,716,-4,7,15
980,246,69,659,4,-24,-37
981,-31,216,470,-51,12,14
982,210,119,468,6,-11,-11
983,23,193,252,-21,13,-8
984,-14,273,579,-15,18,10
985,45,-111,965,-27,1,-10
986,-114,110,720,18,-4,-9
987,-70,110,792,-31,-8,15
988,243,32,599,2,-10,-33
989,-37,206,479,0,14,12
990,178,132,448,-33,-13,-10
991,15,101,245,-24,18,-2
992,1,266,669,1,2,9
993,25,-90,918,-12,3,-7
994,-124,83,760,-2,0,-6
995,-40,171,780,-3,-7,12
996,190,21,449,-21,-26,-25
997,-8,157,643,-18,16,9
998,110,155,514,-20,-3,-10
999,-51,57,429,2,31,-2
1000,35,227,779,1,12,5
1001,43,-93,861,-18,2,-3
1002,-112,38,756,-8,-3,-4
1003,29,79,726,-18,-7,5
1004,79,-157,413,-13,-8,-19
1005,95,-166,456,-21,4,2
1006,80,18,499,-43,4,2
1007,-83,-87,565,-45,6,2
1008,-1,154,762,35,6,-1
1009,104,-59,787,-29,11,-6
1010,-65,-52,689,22,3,3
1011,-25,0,562,-10,-31,-6
1012,-29,-108,268,-31,3,-5
1013,104,-130,286,-3,6,-10
1014,13,37,267,1,20,-1
1015,-104,-210,491,-22,14,1
1016,31,49,827,-6,1,-5
1017,109,33,723,11,13,-3
1018,-103,-177,608,-38,-1,6
1019,27,80,491,20,-12,-17
1020,-57,-23,178,-54,13,7
1021,128,-77,351,31,-10,-15
1022,-28,53,180,-67,-8,4
1023,-110,-143,443,2,41,11
1024,115,-35,848,6,1,-8
1025,89,68,661,-37,-2,-7
1026,-144,-213,553,-3,4,14
1027,103,119,540,20,-13,-31
1028,-78,59,197,-51,13,15
1029,111,-86,347,4,-20,-16
1030,-26,65,143,-25,10,0
1031,-104,-83,486,-12,3,10
1032,153,-132,908,1,4,-9
1033,83,110,620,-16,11,-10
1034,-145,-216,479,-19,3,19
1035,86,23,435,-12,-33,-42
1036,-105,57,168,-31,21,20
1037,94,-166,302,-26,-15,-13
1038,2,-41,483,27,9,-5
1039,-163,29,518,-74,-5,13
1040,160,-167,974,-57,-8,-8
1041,109,96,555,36,2,-8
1042,-129,-186,445,-65,2,27
1043,60,-135,451,41,-30,-44
1044,-53,-14,521,-37,6,23
1045,99,-104,446,-3,-12,-13
1046,-110,65,254,-45,22,1
1047,1,161,449,33,24,8
1048,156,-159,942,-77,-17,-4
1049,-35,40,658,22,3,-12
1050,-54,201,637,-12,6,19
1051,167,124,479,-22,-25,-40
1052,-19,210,383,6,8,20
1053,158,128,211,31,-1,-19
1054,37,-235,466,-86,17,0
1055,12,51,633,37,19,8
1056,73,-186,933,-51,-3,-4
1057,-26,3,564,-4,3,-10
1058,-80,0,539,-8,1,17
1059,75,-91,486,-73,-29,-31
1060,-18,50,319,28,17,5
1061,59,73,652,-39,-20,-14
1062,-91,-45,581,-25,33,-2
1063,74,132,739,27,4,6
1064,90,-125,934,-51,-3,1
1065,0,-10,702,13,2,-11
1066,-5,266,752,2,4,12
1067,115,67,435,-53,-33,-25
1068,-48,219,496,15,3,7
1069,167,148,394,-77,-6,-6
1070,19,-176,492,-15,32,4
1071,45,148,744,20,4,-2
1072,-13,-64,872,-61,-3,2
1073,-95,-77,610,48,-2,-8
1074,100,155,654,-22,-3,5
1075,101,11,293,-17,-18,-15
1076,90,-24,430,37,-4,3
1077,4,58,567,-56,7,-3
1078,-47,-118,716,-49,28,9
1079,-12,77,811,42,5,-6
1080,76,-97,834,-66,-3,0
1081,-2,-159,612,33,3,-6
1082,-42,-29,529,-2,-7,-4
1083,1,-93,513,-40,-5,-7
1084,34,-34,533,23,-5,-5
1085,65,210,418,-45,-12,-3
1086,-96,-37,332,-63,21,9
1087,120,156,901,27,5,-12
1088,6,23,821,-22,6,1
1089,-56,-89,635,-29,-6,1
1090,69,285,513,47,-2,-13
1091,34,100,413,-57,-8,0
1092,110,127,504,18,2,-11
1093,136,37,350,-41,-5,1
1094,-72,-113,537,-4,19,10
1095,109,16,884,-36,-2,-13
1096,-48,27,766,10,15,0
1097,-108,-177,583,-3,-9,5
1098,158,139,533,28,-10,-23
1099,28,56,247,-40,-5,11
1100,118,-95,562,-6,-6,-12
1101,-19,63,572,-39,17,-1
1102,-141,-100,635,-12,12,10
1103,74,-20,954,-8,-8,-12
1104,77,80,745,-26,6,-2
1105,-102,-247,521,20,2,12
1106,70,-65,502,6,-21,-28
1107,-62,-42,563,-37,10,17
1108,89,-65,485,2,-13,-8
1109,-71,193,492,-21,12,-5
1110,-46,104,543,-42,12,12
1111,112,-105,1073,4,0,-12
1112,-14,92,761,-7,-5,-4
1113,-92,108,642,-15,0,19
1114,173,165,588,31,-27,-36
1115,-48,254,462,-38,21,14
1116,170,61,428,-26,-22,-12
1117,34,109,364,-4,24,-7
1118,-35,207,554,-14,11,12
1119,59,-80,985,-10,-2,-6
1120,-117,79,659,-7,-2,-9
1121,-59,-27,681,-27,-5,16
1122,259,35,596,-11,-16,-38
1123,44,188,480,10,16,11
1124,174,86,274,6,2,-15
1125,-1,-162,421,-49,8,-4
1126,-53,128,666,41,20,8
1127,69,-135,963,-59,4,-9
1128,-49,62,641,32,9,-10
1129,-49,45,713,-6,-11,13
1130,166,-43,523,-39,-28,-30
1131,7,40,341,-9,17,15
1132,59,56,253,-32,-8,-4
1133,-38,-116,501,6,24,-6
1134,-60,91,704,0,4,8
1135,59,-173,967,-43,3,-3
1136,-11,55,620,19,5,-10
1137,-86,16,601,-54,-10,9
1138,70,-164,414,-24,-27,-28
1139,47,-8,228,38,26,6
1140,36,-46,400,-68,-3,-7
1141,-50,-116,666,48,29,-1
1142,-53,147,732,-39,-1,2
1143,77,-128,891,-26,4,-2
1144,-10,-31,632,40,-6,-5
1145,-48,-1,551,-47,-18,6
1146,27,-193,351,1,-7,-20
1147,84,-102,345,12,13,0
1148,24,21,658,-72,9,3
1149,-96,-110,655,32,10,-2
1150,44,168,818,-2,5,0
1151,102,-63,813,-50,7,-5
1152,-11,-73,687,45,2,-4
1153,-7,10,630,-55,-23,-7
1154,27,-115,441,-21,-12,-6
1155,69,-101,469,1,5,-6
1156,18,214,574,-22,3,-2
1157,-115,-30,360,16,25,2
1158,117,122,944,-39,0,-2
1159,50,29,774,10,7,-3
1160,-63,-61,643,-26,-6,4
1161,94,305,620,-26,-27,-14
1162,14,143,501,-6,4,-1
1163,83,156,479,-36,-6,-12
1164,125,231,350,-43,1,-1
1165,-65,142,297,-10,28,10
1166,77,132,893,-47,-1,-7
1167,-57,60,728,36,6,-8
1168,-113,-91,610,-46,-9,9
1169,184,203,543,9,-15,-27
1170,40,104,377,-39,4,12
1171,182,147,442,-5,-11,-15
1172,61,42,272,2,21,-1
1173,-3,10,447,-46,10,9
1174,90,4,934,18,3,-10
1175,-70,102,670,-26,-1,-7
1176,-115,-134,627,-19,-6,18
1177,239,130,650,18,-32,-31
1178,2,140,403,-67,29,18
1179,140,-28,348,5,-17,-16
1180,17,-4,196,-30,22,-2
1181,-88,-35,586,-30,1,11
1182,99,-103,990,26,3,-8
1183,31,88,593,-29,3,-10
1184,-106,-118,580,-6,6,16
1185,95,-23,490,-15,-22,-40
1186,-34,12,246,-1,14,16
1187,75,-139,355,53,10,-20
1188,-6,-71,628,-38,12,-6
1189,-142,64,545,-1,14,11
1190,111,-166,973,-63,-2,-8
1191,87,105,604,42,0,-10
1192,-87,-160,551,-31,0,21
1193,72,-168,494,3,-18,-39
1194,-24,-58,477,-2,15,21
1195,84,-45,522,-28,-10,-6
1196,-133,44,372,-50,7,-8
1197,37,162,569,-19,17,9
1198,112,-144,909,-26,1,-5
1199,0,25,690,1,-5,-12
1200,-21,229,714,-26,-11,22
1201,153,111,436,17,-16,-38
1202,-59,238,406,-50,17,17
1203,173,130,350,-33,-19,-8
1204,-2,-3,260,-10,20,-5
1205,10,240,608,-5,3,9
1206,45,-98,856,-15,9,-4
1207,-133,11,580,5,1,-11
1208,79,97,622,-30,-9,17
1209,192,38,365,-22,-30,-32
1210,63,97,377,-7,17,11
1211,43,81,249,-62,-18,-9
1212,-39,-81,616,-27,34,0
1213,-5,33,684,27,16,6
1214,73,-137,886,-38,-6,-1
1215,10,-101,527,21,4,-9
1216,-51,-2,523,-4,-3,8
1217,17,-182,392,-49,-12,-21
1218,56,-51,451,-21,-13,8
1219,-9,156,611,-23,-4,-3
1220,-126,-85,384,-57,21,1
1221,113,170,822,75,20,-6
1222,63,-57,840,-49,-2,1
1223,-4,-87,673,4,-8,-5
1224,18,378,676,34,-10,-3
1225,56,80,378,-45,-2,-9
1226,38,132,424,2,0,3
1227,171,136,361,7,0,-5
1228,-30,-202,481,-89,6,6
1229,105,79,816,26,6,-11
1230,-40,6,808,-2,8,-1
1231,-84,-152,618,-22,-7,3
1232,116,118,545,42,-12,-12
1233,53,40,242,-62,-6,2
1234,100,-92,499,15,10,-9
1235,-12,78,659,-37,-7,-3
1236,-105,-147,638,-13,23,10
1237,42,27,933,-23,4,-11
1238,72,32,764,35,18,-4
1239,-51,-249,558,-45,-16,7
1240,43,-5,536,36,-9,-23
1241,-5,-34,587,-35,-6,9
1242,75,-9,542,8,7,-13
1243,1,176,394,-25,22,-1
1244,-79,60,439,24,17,9
1245,87,20,1004,-18,-6,-12
1246,-9,71,786,-16,8,-5
1247,-70,-21,584,13,-4,11
1248,135,234,618,-4,-17,-26
1249,11,173,375,-36,3,17
1250,178,97,471,-7,-14,-9
1251,56,16,307,-8,25,-1
1252,-12,18,547,-60,7,10
1253,72,-43,971,12,1,-14
1254,-82,76,665,-2,-2,-6
1255,-67,-91,604,-18,1,19
1256,222,120,577,48,-24,-34
1257,34,132,357,-60,18,20
1258,108,-82,371,-33,-23,-10
1259,-7,38,378,-31,19,-5
1260,-145,-7,669,-15,4,11
1261,89,-129,1032,-14,-5,-9
1262,56,117,566,-3,-5,-7
1263,-87,-134,533,-29,-7,17
1264,92,-113,495,-39,-22,-37
1265,-38,37,355,-19,18,14
1266,86,-63,508,-25,-13,-12
1267,-75,-33,707,-26,8,-9
1268,-45,129,614,-4,20,13
1269,119,-150,967,-52,-5,-9
1270,50,79,699,19,-8,-12
1271,-32,7,666,-64,-14,14
1272,128,-31,555,4,-14,-35
1273,12,174,582,-15,15,13
1274,110,55,454,-11,-4,-17
1275,-65,49,217,-15,28,-3
1276,13,251,655,-22,6,8
1277,62,-75,920,-4,2,-9
1278,-80,52,734,-12,0,-8
1279,-34,214,664,10,0,15
1280,205,43,408,-13,-22,-27
1281,-25,248,433,-8,20,14
1282,186,141,350,-23,-14,-8
1283,-52,-4,365,-14,31,-1
1284,17,243,699,24,9,3
1285,15,-65,882,-31,-3,-3
1286,-110,-39,658,7,-3,-8
1287,102,77,691,-35,-12,6
1288,170,-29,370,-42,-13,-22
1289,70,209,468,54,18,-1
1290,145,118,180,-39,16,-7
1291,0,-186,523,2,20,3
1292,33,117,714,21,9,0
1293,6,-27,852,-64,3,-5
1294,-83,-108,648,50,-3,-4
1295,77,118,665,-27,-18,1
1296,85,20,284,-29,0,-8
1297,86,-25,342,16,4,-2
1298,-15,120,240,-43,6,0
1299,-87,-167,521,12,13,0
1300,55,24,775,-30,-14,-4
1301,76,-6,771,-35,7,-2
1302,-33,-179,603,7,-1,1
1303,14,39,456,-47,-25,-13
1304,-32,-49,240,20,17,-3
1305,90,-130,329,-18,3,-12
1306,9,23,572,-39,1,-2
1307,-112,-156,514,10,38,9
1308,77,60,903,-48,-3,-9
1309,119,25,704,37,7,-7
1310,-46,-253,522,-52,-15,9
1311,39,15,538,15,-12,-26
1312,-2,-67,526,-51,-4,8
1313,91,-23,461,30,1,-20
1314,-17,138,367,-25,19,0
1315,-76,75,302,-1,17,8
1316,109,48,984,-14,-2,-14
1317,25,58,699,-26,7,-4
1318,-77,-43,532,15,1,14
1319,133,262,587,-38,-32,-32
1320,4,150,352,-34,11,19
1321,173,89,388,11,-19,-16
1322,76,-53,233,-3,32,-2
1323,0,-64,535,-55,11,12
1324,88,-56,962,22,-6,-13
1325,-37,61,618,-42,-8,-7
1326,-64,-129,544,-4,6,18
1327,148,43,496,-2,-27,-36
1328,-9,38,245,-50,11,18
1329,87,-137,405,2,-25,-17
1330,-9,-46,726,13,21,-6
1331,-140,4,580,-77,11,14
1332,113,-120,1034,2,2,-12
1333,108,72,619,11,-6,-9
1334,-87,-163,548,-54,-4,19
1335,88,-81,519,32,-17,-40
1336,-28,103,616,-44,5,16
1337,138,-35,464,16,9,-15
1338,-80,74,206,6,20,-8
1339,-9,242,523,0,16,11
1340,104,-99,957,-54,0,-9
1341,-65,49,666,34,2,-10
1342,-28,130,600,-59,-13,15
1343,234,105,497,7,-19,-36
1344,21,249,425,4,12,15
1345,155,123,213,-11,3,-15
1346,26,-206,429,-30,22,-5
1347,-6,62,650,19,7,9
1348,71,-154,944,-41,-5,-7
1349,-15,-16,567,2,6,-10
1350,-56,14,508,-30,-3,13
1351,116,-115,411,-47,-28,-32
1352,1,23,178,22,23,9
1353,41,-54,590,-39,-16,-13
1354,-41,-119,684,-24,33,-3
1355,-4,148,683,-1,6,7
1356,104,-166,859,5,3,-6
1357,39,-110,595,-23,-13,-9
1358,-49,77,603,-19,0,9
1359,125,5,425,-35,-10,-31
1360,-18,150,562,19,20,2
1361,227,158,391,-25,-19,-9
1362,16,-50,269,-54,20,-1
1363,48,269,674,26,16,4
1364,-3,-37,805,-38,-5,-3
1365,-56,-59,589,-14,-18,-8
1366,141,192,504,10,-12,3
1367,138,93,226,-34,-2,-21
1368,123,-54,441,-7,-6,6
1369,13,44,553,8,2,-6
1370,2,-128,653,-113,9,9
1371,-6,56,766,75,7,-12
1372,81,-134,778,-55,3,0
1373,27,-188,524,0,-7,-1
1374,-29,87,571,-14,-20,0
1375,75,49,539,-50,0,-10
1376,-28,44,511,27,6,-11
1377,248,202,407,-43,14,-6
1378,-5,-168,337,-15,14,6
1379,111,169,814,-1,-9,-8
1380,-53,49,799,-41,6,1
1381,-26,-115,609,6,1,1
1382,178,182,420,-5,-15,-13
1383,64,44,182,-12,1,-5
1384,114,-136,512,40,15,-11
1385,-1,173,812,-11,3,-12
1386,-78,-169,463,-18,30,14
1387,117,46,975,14,0,-8
1388,81,-14,786,-15,13,-3
1389,2,-144,504,-26,-11,4
1390,107,253,699,42,-6,-21
1391,10,190,388,-65,-18,5
1392,74,46,495,22,-4,-6
1393,141,-4,287,-69,-2,-4
1394,-64,-161,550,36,24,12
1395,68,-7,949,-43,-9,-13
1396,-12,28,740,-1,11,-2
1397,-23,-210,476,-6,-11,10
1398,115,54,349,-18,-26,-28
1399,-48,-29,433,-51,11,8
1400,93,-36,557,-48,-22,-9
1401,-31,218,450,-15,16,1
1402,1,-41,416,-70,8,16
1403,128,-84,1068,31,10,-15
1404,41,15,759,-27,3,-2
1405,-61,-17,453,-18,-4,14
1406,84,259,449,-2,-23,-30
1407,98,237,385,-20,28,13
1408,146,-132,437,-23,-7,-15
1409,51,61,496,-24,24,-8
1410,-37,-32,597,0,23,14
1411,120,-133,1011,-17,-9,-15
1412,72,-9,516,-24,-6,-3
1413,-105,-273,349,-19,5,19
1414,95,-14,455,-5,-24,-40
1415,-59,164,622,-30,30,14
1416,178,-51,365,12,-4,-19
1417,179,-49,312,-62,16,-6
1418,20,105,475,-3,21,15
1419,107,-84,952,-9,1,-13
1420,-141,104,520,-10,-3,-4
1421,116,18,479,-28,-13,20
1422,184,-74,382,-4,-18,-42
1423,16,11,495,-67,14,20
1424,103,-1,616,22,-8,-12
1425,0,71,262,-64,2,-1
1426,75,30,463,-4,6,12
1427,120,-129,940,-59,-1,-12
1428,-13,-50,646,24,4,-7
1429,8,230,491,-13,-24,21
1430,198,108,382,12,-10,-41
1431,104,64,401,-7,10,16
1432,50,11,725,32,3,-12
1433,7,-111,609,-39,1,-14
1434,10,97,583,5,9,14
1435,66,-195,959,-34,6,-6
1436,61,-100,686,-1,-2,-11
1437,-28,245,672,-44,-11,11
1438,129,129,392,-44,-27,-34
1439,139,141,505,-16,17,12
1440,85,-22,557,-34,-18,-10
1441,43,-78,743,-22,23,2
1442,-10,92,654,-12,7,6
1443,46,-210,975,-1,7,-10
1444,53,-90,567,-3,8,-7
1445,-22,168,744,-7,-6,16
1446,153,38,444,26,-24,-33
1447,0,249,434,3,24,12
1448,165,-21,332,-6,9,-13
1449,100,-98,583,2,36,-5
1450,30,-11,708,-21,-6,10
1451,42,-173,948,-22,1,-5
1452,20,-200,443,-5,-1,-6
1453,-39,47,556,-23,-3,9
1454,112,20,477,-55,-26,-24
1455,-39,180,438,1,8,7
1456,228,72,262,-52,-14,-4
1457,56,-262,430,16,29,3
1458,16,92,739,-36,-2,1
1459,5,-84,887,-40,3,-6
1460,13,-133,466,36,-1,-5
1461,20,32,452,-13,-6,0
1462,1,8,454,-11,-4,-22
1463,4,51,638,33,12,-4
1464,261,196,352,-29,12,-7
1465,124,-277,302,-57,21,8
1466,57,191,736,29,12,-3
1467,-24,18,846,-47,-1,-1
1468,-5,-74,581,21,-3,-1
1469,103,62,481,-7,-29,0
1470,15,-56,424,-11,5,-10
1471,4,-18,607,5,-5,0
1472,114,314,386,6,25,-7
1473,100,-292,113,-27,1,0
1474,119,191,777,12,-5,-1
1475,29,62,781,-55,5,-5
1476,13,-67,659,6,5,0
1477,162,114,459,-14,-15,-12
1478,97,-79,318,-49,-3,-5
1479,85,-184,615,-31,-7,-6
1480,-1,264,482,-33,-4,1
1481,106,-225,87,-9,25,8
1482,147,148,840,12,6,-10
1483,93,-1,778,-10,12,-6
1484,116,-110,441,-25,-5,6
1485,11,179,143,6,-28,-15
1486,201,-86,248,-50,-19,4
1487,263,-180,630,-36,-23,-11
1488,-121,117,73,-116,-55,-2
1489,300,-89,-138,-27,19,20
1490,250,10,620,38,-13,-6
1491,84,129,328,10,3,-13
1492,1,-188,128,-23,12,6
1493,257,-118,631,55,-28,-20
1494,122,68,383,-71,11,21
1495,295,-527,231,-10,-33,-19
1496,184,52,29,109,173,-9
1497,194,-108,-528,59,26,-47
1498,374,-192,781,-65,-24,23
1499,69,-8,-42,7,-22,-23
1500,-275,-156,146,-11,24,14
1501,77,13,306,-21,-34,-3
1502,255,-207,318,12,37,18
1503,478,-264,433,-36,-22,-70
1504,404,3,14,-141,-34,-5
1505,152,-419,-85,-46,29,-41
1506,-161,409,341,-6,-12,13
1507,385,188,180,-52,-22,-23
1508,-64,-432,302,37,42,-31
1509,147,494,464,-21,0,17
1510,129,-138,437,-42,25,-26
1511,76,-150,202,-26,4,-11
1512,27,12,-285,27,125,26
1513,269,-580,-108,-206,-2,-74
1514,178,-285,652,-117,9,53
1515,268,-102,-136,-1,1,-18
1516,151,-113,236,-93,-36,-30
1517,96,-121,-52,1,-137,39
1518,163,-290,-131,-30,-71,-25
1519,129,63,-93,-69,17,77
1520,78,-419,210,-40,-127,-38
1521,56,-437,-97,75,-122,33
1522,96,-217,344,98,142,35
1523,365,-220,516,83,23,-33
1524,42,-375,310,143,-5,7
1525,27,60,44,-27,19,-13
1526,7,-221,457,75,7,-29
1527,18,16,327,-61,46,34
1528,115,-136,291,-33,-32,-40
1529,-66,351,129,-21,65,26
1530,-18,217,18,-8,4,6
1531,55,-217,598,-42,3,13
1532,96,-350,83,-7,-22,-18
1533,-107,-355,285,4,14,-8
1534,-55,563,549,-22,-37,-1
1535,-185,-121,92,-45,23,6
1536,87,378,513,-10,-7,-19
1537,0,219,86,-90,-6,11
1538,48,216,517,-46,-13,-27
1539,6,-405,586,-55,15,33
1540,296,-425,356,0,-16,-25
1541,-68,-252,625,14,14,-16
1542,11,102,727,-16,-9,21
1543,100,-137,888,19,-12,-27
1544,-67,221,771,-12,23,23
1545,121,-53,554,-23,-12,-15
1546,-66,359,901,-17,13,-5
1547,-101,1,610,-45,-6,14
1548,108,-312,1106,-7,-5,-9
1549,-17,175,578,2,1,-15
1550,-120,-133,990,-22,9,24
1551,125,339,871,12,-31,-38
1552,-214,157,697,-44,26,29
1553,119,267,689,9,-23,-32
1554,-34,350,923,-37,27,15
1555,54,77,748,-8,-5,-15
1556,-115,-59,965,-21,10,13
1557,73,96,809,-7,-7,-17
1558,-169,33,933,-20,5,14
1559,90,90,940,3,-22,-21
1560,0,48,817,-44,7,3
1561,40,393,939,31,3,-13
1562,7,65,602,-29,11,4
1563,63,-446,666,-12,10,-17
1564,189,79,755,-20,3,16
1565,198,34,932,-22,-2,-14
1566,-60,-243,665,-20,1,1
1567,-75,-135,750,7,-5,8
1568,216,-370,791,-17,-21,-25
1569,62,-180,666,-1,17,13
1570,221,-114,679,-12,-10,-13
1571,-34,-267,622,-23,19,-7
1572,204,-182,420,0,4,6
1573,158,42,1077,-9,9,-6
1574,1,38,742,-5,1,-16
1575,-188,-61,782,-19,2,26
1576,131,46,729,6,-28,-39
1577,-195,-54,737,-46,14,20
1578,103,76,820,-1,-14,-22
1579,22,0,668,-39,20,-2
1580,-53,-130,417,3,11,-2
1581,-1,26,1012,-9,2,4
1582,22,100,914,7,7,-16
1583,-190,-71,847,-31,5,17
1584,151,149,919,8,-25,-27
1585,-88,-136,637,-56,7,7
1586,87,-21,867,3,-8,-14
1587,65,-57,722,-37,7,-1
1588,-16,-102,697,-4,18,-4
1589,-47,93,845,-7,6,7
1590,16,-3,950,-9,3,-12
1591,-132,11,701,-14,-1,4
1592,51,197,861,3,-8,-4
1593,73,-95,657,-22,-4,-13
1594,-4,-108,812,16,8,3
1595,77,-114,657,-34,0,-1
1596,106,-317,926,-2,15,-10
1597,-56,124,764,1,3,12
1598,29,-107,921,-23,0,-4
1599,-80,182,795,3,-3,-5
1600,-89,17,826,-17,-11,12
1601,148,-76,770,-18,-14,-28
1602,-86,-48,836,-29,4,8
1603,147,-140,553,-6,-6,-6
1604,145,-250,800,-10,24,-12
1605,-57,92,666,3,14,14
1606,66,-194,1014,-12,-1,-6
1607,-59,87,815,-2,-6,-13
1608,-142,90,934,-10,3,18
1609,205,67,823,-21,-22,-38
1610,-90,-181,726,-11,19,13
1611,183,-2,365,-27,-25,-14
1612,37,-237,554,-26,12,-6
1613,-84,95,588,-25,15,9
1614,81,-150,1178,-15,-3,-3
1615,-57,186,799,9,-3,-15
1616,-132,-21,967,-33,0,22
1617,100,258,866,13,-18,-40
1618,-122,-165,802,-34,25,17
1619,197,28,409,-20,-17,-23
1620,-68,-276,602,20,36,-2
1621,-55,118,548,-9,9,4
1622,41,-157,1204,-21,6,2
1623,-27,192,815,18,1,-18
1624,-173,-114,1012,-43,0,26
1625,168,34,900,21,-31,-41
1626,-153,-74,956,-37,24,20
1627,187,-37,460,-26,-24,-16
1628,173,-200,801,-2,27,2
1629,-87,138,629,-47,5,4
1630,-11,-169,1213,8,5,3
1631,-22,174,852,1,-3,-16
1632,-177,-109,863,-43,-1,23
1633,75,-292,592,14,-30,-39
1634,35,-22,798,-35,31,19
1635,304,-6,466,-21,-21,-24
1636,148,-273,390,-6,31,10
1637,51,15,543,-47,-7,6
1638,33,-207,1128,-5,-3,0
1639,0,174,766,-2,-2,-16
1640,-123,-97,747,-27,8,24
1641,318,-46,598,-3,-35,-41
1642,184,320,621,-48,6,19
1643,258,-143,496,-35,-28,-20
1644,196,-216,807,15,34,-5
1645,106,141,468,-12,7,6
1646,38,-169,1029,-2,6,0
1647,67,144,676,-4,-10,-15
1648,-145,86,766,-31,10,24
1649,244,-257,449,16,-30,-43
1650,77,23,576,-60,20,21
1651,119,-154,607,-11,-27,-21
1652,104,-24,290,-20,20,8
1653,146,74,355,-23,11,5
1654,84,-184,929,-65,-2,-4
1655,2,53,515,28,-12,-12
1656,-28,103,600,-51,1,22
1657,335,-324,392,-11,-26,-43
1658,19,37,596,-74,-5,27
1659,95,-62,511,0,6,-11
1660,130,-11,0,-12,12,-1
1661,100,117,362,18,10,13
1662,104,-104,871,-66,0,-6
1663,-22,41,526,46,7,-14
1664,92,98,509,-58,-6,23
1665,298,-271,424,15,-26,-47
1666,11,45,614,-70,-6,32
1667,104,41,441,-30,-1,-9
1668,175,-127,-57,-31,21,-4
1669,76,166,413,15,10,18
1670,122,-55,787,-27,1,-8
1671,-36,42,458,17,7,-13
1672,174,72,409,-50,-5,24
1673,269,-266,418,39,-23,-47
1674,-16,111,593,-1,17,13
1675,166,97,263,7,-7,-12
1676,217,-281,-29,-45,4,-7
1677,60,274,427,-1,6,13
1678,149,-33,737,-2,9,-5
1679,-86,-77,232,-6,8,-16
1680,127,53,292,-2,1,23
1681,210,-68,393,-24,-35,-37
1682,93,275,222,-40,9,31
1683,381,108,10,-43,-6,-9
1684,250,-351,416,-80,29,-1
1685,-28,179,555,-44,-17,14
1686,77,-177,925,35,6,-12
1687,135,-165,465,-30,12,-11
1688,37,-15,760,21,27,21
1689,278,-60,378,-52,-33,-37
1690,304,91,345,16,19,14
1691,76,-124,546,-18,-33,-9
1692,217,-268,151,46,21,-13
1693,125,194,509,-21,4,15
1694,101,-195,896,3,-2,-11
1695,-2,-21,469,3,14,-10
1696,-2,80,563,9,1,24
1697,227,-349,346,-4,-34,-48
1698,132,40,249,-31,25,24
1699,421,63,12,-95,-46,-12
1700,282,-377,569,-32,42,6
1701,-113,245,529,-29,-1,9
1702,40,-233,1067,36,-3,-13
1703,30,164,584,20,17,-8
1704,-124,-71,767,-17,4,27
1705,250,-174,338,5,-34,-41
1706,306,-102,522,-25,30,18
1707,27,136,269,-81,-29,-13
1708,231,-261,-113,13,55,1
1709,84,268,493,-38,-7,5
1710,157,-175,835,17,-13,-10
1711,-143,84,368,3,6,-10
1712,52,-188,836,-7,20,24
1713,348,-52,426,12,-36,-46
1714,192,-172,400,-50,6,25
1715,221,-113,537,-88,-36,-14
1716,308,-289,427,-14,45,2
1717,-43,176,576,-50,-3,3
1718,139,-237,947,-16,-10,-7
1719,-49,110,542,9,5,-12
1720,79,-10,696,-16,17,18
1721,214,-243,384,-16,-30,-42
1722,-7,-51,248,4,10,15
1723,389,32,192,-72,-37,-9
1724,322,-226,746,-9,19,6
1725,-127,147,557,-36,4,3
1726,0,-229,1043,-31,-1,0
1727,12,180,660,5,-1,-13
1728,-65,-108,719,-24,0,15
1729,172,-280,330,-12,-19,-32
1730,226,-138,656,13,18,1
1731,213,145,287,-74,-28,-3
1732,187,-501,218,0,19,5
1733,79,216,574,3,14,-3
1734,16,-136,869,-43,0,5
1735,-65,86,587,13,-5,-14
1736,100,-128,835,-8,7,13
1737,283,99,382,-24,-25,-28
1738,241,-65,589,-2,3,6
1739,153,-22,663,-54,0,-10
1740,295,-150,642,62,27,-2
1741,15,98,659,1,0,-2
1742,20,-139,901,-26,10,4
1743,-12,33,758,30,2,-13
1744,-56,-31,753,-43,-9,8
1745,186,-223,398,-28,-25,-19
1746,162,-121,714,8,-5,0
1747,-9,180,347,-54,6,-4
1748,183,-257,121,23,18,3
1749,109,140,683,-5,1,-2
1750,-25,-1,789,-53,3,1
1751,-69,-24,651,46,4,-9
1752,134,-3,531,-27,-18,-1
1753,132,-135,397,-10,7,-8
1754,87,21,567,25,-6,-17
1755,154,155,201,-57,4,-3
1756,202,-274,143,-31,0,3
1757,71,234,667,31,11,-4
1758,-30,35,679,-29,14,0
1759,-2,-125,534,-8,-1,-3
1760,141,38,330,-19,-40,-6
1761,98,-57,454,-23,5,-9
1762,34,-22,459,17,10,-20
1763,196,132,176,-26,8,-4
1764,178,-228,168,-34,2,2
1765,112,242,674,26,4,-6
1766,-35,64,590,-34,6,1
1767,38,-181,457,-31,-3,-2
1768,137,25,249,22,-18,-6
1769,82,-20,509,0,-3,-9
1770,27,-57,394,44,7,-24
1771,182,104,215,-55,4,-4
1772,151,-204,200,-9,27,6
1773,122,184,687,-22,-16,-8
1774,-68,96,538,21,13,2
1775,53,-216,393,-29,2,0
1776,160,50,221,7,-15,-13
1777,62,68,557,-29,-19,-6
1778,68,-14,350,35,-3,-29
1779,244,54,237,-51,-1,1
1780,152,-147,279,21,43,7
1781,96,123,739,-49,-10,-13
1782,-44,14,512,16,14,1
1783,77,-281,280,-30,-12,5
1784,197,107,257,-37,-15,-21
1785,110,218,457,-40,1,7
1786,149,0,217,-31,-18,-22
1787,271,-56,143,-2,26,2
1788,145,-71,372,12,42,13
1789,83,54,765,-37,2,-13
1790,13,-90,447,-12,3,-4
1791,144,-366,256,-7,-8,14
1792,186,-70,659,35,-24,-34
1793,106,388,447,-50,24,11
1794,297,-266,441,37,7,-33
1795,265,-177,440,25,67,6
1796,137,-16,425,-48,0,8
1797,50,-172,861,-2,10,-7
1798,172,-44,840,-48,13,-8
1799,-162,-75,494,29,11,21
1800,39,-203,342,38,-19,-50
1801,90,-74,525,-45,14,23
1802,310,-139,286,40,-11,-22
1803,-121,-164,-236,-26,2,-6
1804,164,93,183,-21,32,12
1805,180,-98,888,-2,-3,-7
1806,58,-2,362,-60,-6,-24
1807,-224,-182,618,3,26,34
1808,251,-223,607,14,-39,-54
1809,203,244,392,-54,38,23
1810,277,-304,396,100,0,-48
1811,274,-37,363,-2,82,7
1812,136,51,-182,-28,-15,-2
1813,269,-187,1051,6,-17,-2
1814,194,164,315,-22,-6,-23
1815,-258,-166,678,-13,20,40
1816,431,-225,641,54,-48,-52
1817,57,134,516,-119,36,41
1818,289,-368,265,53,-42,-34
1819,369,-211,759,-105,18,10
1820,81,-32,112,-26,12,-7
1821,52,-184,1082,42,12,-7
1822,201,235,556,-28,-8,-24
1823,-186,-77,664,-24,17,33
1824,433,-250,519,26,-41,-48
1825,-105,81,569,-42,56,27
1826,239,-261,213,15,-15,-40
1827,380,-106,786,-4,9,21
1828,124,25,410,-29,-15,3
1829,-22,-194,1003,11,-1,-1
1830,118,256,745,-8,-1,-18
1831,-106,-65,659,-28,10,32
1832,245,-322,320,34,-45,-44
1833,-34,50,642,-82,38,31
1834,370,-94,271,-7,-30,-34
1835,319,-233,258,9,27,13
1836,109,-75,526,-42,-6,4
1837,4,-191,941,6,6,1
1838,18,184,724,-15,0,-16
1839,-128,-140,763,-28,4,23
1840,240,-112,576,27,-35,-38
1841,210,292,535,-51,22,28
1842,269,-190,586,11,-20,-30
1843,172,-231,670,-46,35,4
1844,151,60,390,-14,-7,-1
1845,83,-170,1018,-1,5,1
1846,91,172,692,-9,-1,-13
1847,-137,38,747,-34,9,21
1848,264,-378,410,-5,-37,-35
1849,19,70,712,-32,9,24
1850,170,-57,510,-11,-23,-24
1851,27,-39,107,-1,36,4
1852,169,58,321,-54,1,12
1853,53,-141,942,15,4,-2
1854,-71,92,545,-4,-2,-14
1855,8,74,560,-29,11,26
1856,233,-303,295,5,-35,-43
1857,12,206,654,-23,23,18
1858,193,-14,366,9,-18,-29
1859,125,-154,15,-47,23,5
1860,140,137,382,4,16,7
1861,94,-106,885,-36,-5,-3
1862,-155,39,331,18,-3,-13
1863,127,5,317,-38,4,24
1864,222,-190,295,-24,-31,-46
1865,-15,189,586,-2,21,12
1866,285,-9,213,16,-16,-26
1867,163,-222,136,-51,14,2
1868,83,229,414,-1,14,4
1869,142,-124,832,-71,-1,-6
1870,-69,-93,210,50,-3,-14
1871,135,-116,337,-42,-8,22
1872,246,30,432,-15,-19,-45
1873,12,363,358,-28,-4,31
1874,320,74,51,-25,-2,-7
1875,197,-336,312,-39,15,-6
1876,9,117,538,9,5,16
1877,51,-234,879,-37,3,-8
1878,139,-163,371,49,13,-14
1879,-12,-102,712,-30,-13,26
1880,187,-55,541,23,-11,-45
1881,122,310,511,-50,32,13
1882,231,-167,342,28,-12,-18
1883,241,-152,566,16,12,-6
1884,73,61,570,-12,8,5
1885,27,-265,825,-37,7,-7
1886,193,-105,682,-1,-5,-13
1887,-57,117,610,-44,-18,23
1888,274,-61,412,10,-23,-36
1889,220,133,461,-20,19,12
1890,58,-106,584,-7,-9,-10
1891,233,-282,201,-26,4,-2
1892,129,115,514,21,10,9
1893,-33,-200,814,-7,8,-7
1894,76,-157,688,-5,8,-14
1895,-68,177,485,-11,9,20
1896,292,-316,380,-45,-33,-34
1897,73,47,512,6,6,24
1898,4,123,242,-73,-16,-6
1899,262,-314,-70,-37,36,6
1900,39,169,432,-8,-5,7
1901,25,-57,778,3,7,-3
1902,-74,-46,305,-21,-4,-15
1903,54,84,507,16,15,18
1904,196,-155,343,-45,-33,-38
1905,55,201,177,0,15,26
1906,379,126,43,-97,-25,-8
1907,234,-379,461,-57,26,0
1908,-22,109,538,-33,-9,5
1909,3,-192,915,15,3,-3
1910,106,-113,515,-2,3,-14
1911,63,-17,796,-4,17,16
1912,222,-24,323,-4,-32,-39
1913,253,20,519,-15,14,17
1914,128,-95,441,-55,-4,-8
1915,249,-175,486,-2,32,-7
1916,16,84,666,-24,-5,2
1917,22,-201,849,-10,2,-2
1918,92,-132,686,25,4,-9
1919,-225,286,608,-25,9,14
1920,264,-270,282,-1,-26,-33
1921,184,-142,579,-37,-1,7
1922,-15,174,296,-58,-2,-5
1923,332,-212,-4,7,27,-7
1924,81,142,587,-46,-9,1
1925,29,-29,704,-41,0,0
1926,-30,-92,404,54,0,-10
1927,114,11,443,-40,-12,6
1928,131,-150,284,-22,-18,-27
1929,114,96,280,14,8,-7
1930,380,146,145,-9,9,-5
1931,252,-449,328,-13,4,-10
1932,15,205,525,2,4,-3
1933,-63,-116,796,-62,5,0
1934,43,-161,462,47,-2,-7
1935,128,-34,805,-26,-20,2
1936,171,86,341,-37,9,-16
1937,198,-43,573,37,17,-15
1938,183,-24,350,1,1,2
1939,316,-130,597,-29,3,-6
1940,32,-81,674,47,26,-7
1941,-4,-118,884,-75,1,1
1942,85,-41,725,9,-6,-6
1943,-9,150,583,-23,-26,0
1944,246,36,393,-28,4,-8
1945,232,-121,723,27,4,-11
1946,16,28,672,-47,16,-1
1947,172,-220,299,-76,-14,6
1948,104,63,740,-1,-6,-2
1949,15,-18,811,-37,12,-2
1950,-5,-95,743,-2,6,-2
1951,-89,188,576,15,-23,-11
1952,225,-137,413,-33,6,-4
1953,131,-158,736,-2,6,-16
1954,29,74,535,-38,7,0
1955,135,-200,243,-31,7,-1
1956,122,30,823,-16,-4,-9
1957,21,34,818,-12,12,-1
1958,-6,-113,702,-28,-4,5
1959,-4,286,473,16,-22,-16
1960,142,-47,359,-5,-3,1
1961,169,-148,705,0,3,-12
1962,-4,115,732,-14,19,-6
1963,25,-179,408,-30,21,14
1964,96,62,937,13,-12,-8
1965,41,-33,781,0,12,-5
1966,-4,-149,511,-37,-1,8
1967,90,245,637,34,-3,-24
1968,72,159,374,-53,-13,8
1969,138,-19,528,35,9,-16
1970,94,62,336,-45,14,-7
1971,51,-133,580,1,34,18
1972,94,-52,938,-18,-15,-12
1973,21,-40,598,14,19,-5
1974,-49,-325,324,-53,-21,12
1975,110,30,267,37,-10,-30
1976,-57,-118,469,-89,9,14
1977,140,-95,466,-10,-32,-8
1978,16,37,217,-12,6,2
1979,-3,41,272,-52,8,19
1980,140,62,919,31,2,-19
1981,45,-7,658,-33,5,-3
1982,-24,-179,219,16,8,19
1983,38,155,121,-14,-42,-43
1984,61,142,215,-57,13,20
1985,201,-136,568,-40,-21,-5
1986,119,-69,580,77,32,-7
1987,-61,58,340,-89,-6,27
1988,88,-62,904,29,-6,-19
1989,67,44,408,-6,13,-5
1990,-6,-90,321,-24,21,24
1991,123,-35,414,7,-53,-37
1992,112,253,405,-47,14,12
1993,142,-252,477,-32,-24,-20
1994,145,18,471,-13,23,-9
1995,110,118,556,-58,14,17
1996,66,-189,982,-35,-22,-18
1997,123,-58,330,17,7,-1
1998,-39,-76,511,-7,2,19
1999,147,-17,585,21,-16,-37
2000,102,386,508,-11,21,8
2001,176,-249,444,11,-21,-17
2002,148,0,489,-62,19,-4
2003,66,155,563,-9,40,18
2004,47,-238,936,-48,-9,-14
2005,155,-66,297,40,4,-7
2006,-25,-63,627,-34,-31,19
2007,126,-36,490,13,-8,-41
2008,155,286,534,-35,19,9
2009,223,-218,416,6,-26,-18
2010,176,-114,545,-30,19,-2
2011,40,248,559,-6,23,10
2012,41,-323,815,-58,-4,-15
2013,178,-95,467,-3,-5,-12
2014,6,15,612,-58,-24,22
2015,206,-16,314,-32,-18,-43
2016,230,176,386,-26,7,13
2017,70,-148,618,-11,-17,-5
2018,200,-322,236,-44,-13,-3
2019,87,222,385,29,32,16
2020,19,-216,800,-35,12,-12
2021,124,-201,702,17,11,-12
2022,-58,157,433,-44,-13,24
2023,326,-369,393,-22,-26,-34
2024,93,96,463,13,26,9
2025,128,40,131,-11,-20,-12
2026,190,-362,52,44,-4,-8
2027,9,247,320,-9,10,16
2028,86,-100,889,-11,8,-11
2029,-38,-47,270,20,9,-14
2030,-38,-157,770,-29,-16,27
2031,307,-159,513,29,-20,-42
2032,67,92,398,-41,43,13
2033,301,-188,207,14,-5,-18
2034,307,-224,582,7,21,-12
2035,0,80,549,-63,-23,12
2036,44,-274,939,14,7,-6
2037,128,29,745,-23,7,-11
2038,-230,108,678,-3,14,24
2039,233,-412,409,-3,-37,-50
2040,118,-97,527,-33,13,32
2041,4,108,264,-31,-16,-13
2042,233,-292,-99,-25,53,0
2043,44,209,440,-12,-8,6
2044,41,-135,867,38,0,-7
2045,-89,53,369,-17,-4,-13
2046,19,-23,746,-16,4,22
2047,245,-189,431,-50,-39,-30
2048,-11,97,272,16,17,12
2049,366,27,60,-62,-34,-11
2050,303,-224,618,-22,39,10
2051,-34,77,542,25,12,4
2052,-15,-211,1013,-1,-3,1
2053,120,90,719,-3,-6,-13
2054,-26,14,657,-28,-1,17
2055,274,-25,376,-48,-29,-29
2056,304,-11,533,30,16,3
2057,47,-60,582,-85,-33,-7
2058,230,-285,225,63,60,6
2059,120,132,663,10,12,2
2060,10,-131,824,-16,-2,2
2061,34,-60,622,11,-11,-12
2062,-70,96,586,-31,5,15
2063,246,-277,304,-50,-28,-27
2064,104,-64,623,20,6,10
2065,21,214,218,-59,-10,-6
2066,242,-329,-7,49,42,9
2067,55,215,565,-4,5,4
2068,-25,8,726,-38,4,4
2069,-47,-69,432,20,-10,-11
2070,94,65,438,-33,-6,7
2071,140,-107,311,-5,-2,-24
2072,51,82,437,24,16,-9
2073,297,123,159,-42,-11,-4
2074,237,-322,255,-40,8,-1
2075,42,264,593,14,17,-6
2076,-22,-69,655,-57,4,1
2077,65,-227,368,39,-9,-7
2078,118,118,358,-16,-13,0
2079,138,-10,385,-28,20,-10
2080,24,27,240,-2,0,-11
2081,317,129,203,-7,11,1
2082,190,-252,274,4,27,2
2083,91,316,615,29,18,-11
2084,43,-82,507,-44,17,1
2085,139,-397,278,11,-7,-4
2086,120,157,427,-47,-33,-4
2087,163,140,402,-26,-2,-10
2088,154,43,104,2,-10,7
2089,289,142,173,-57,9,-2
2090,222,-199,464,-62,-5,7
2091,87,-23,649,75,13,-5
2092,-4,-183,707,-63,9,-1
2093,154,-299,411,0,9,3
2094,145,43,697,11,-17,-13
2095,140,129,232,-82,-8,4
2096,330,-229,574,1,-11,0
2097,102,24,526,-71,23,4
2098,190,-223,226,-44,15,11
2099,79,35,827,40,-5,-6
2100,68,-69,816,-23,0,-11
2101,-6,-142,624,-39,10,9
2102,-15,-106,344,19,-13,-14
2103,194,-149,435,-82,-6,5
2104,228,-162,354,34,-11,-17
2105,-112,-9,95,-55,-37,4
2106,245,-121,47,-24,26,7
2107,75,110,678,5,-7,-1
2108,42,-27,514,-1,-4,-14
2109,-154,-170,395,-18,17,17
2110,259,-244,728,43,-27,-25
2111,92,168,439,-42,24,8
2112,297,-295,329,60,17,-33
2113,250,-97,403,-21,56,15
2114,197,-129,376,18,25,-3
2115,-15,-103,853,-46,-12,0
2116,171,-22,779,20,-15,-14
2117,-127,-94,673,-34,8,19
2118,51,-197,315,-22,-24,-23
2119,97,-132,581,-60,10,12
2120,320,-166,385,32,-15,-30
2121,5,-95,103,-57,-27,10
2122,231,-106,75,38,38,2
2123,48,70,751,-11,1,-1
2124,38,21,569,12,-2,-15
2125,-180,-64,559,-6,11,21
2126,327,-274,679,20,-19,-36
2127,113,239,467,-52,16,14
2128,279,-302,447,10,-9,-32
2129,248,-130,532,-36,16,14
2130,216,-90,458,60,21,-9
2131,-9,-122,853,-53,2,-2
2132,124,107,804,15,-7,-10
2133,-149,-16,772,-17,7,17
2134,24,-110,515,-7,-15,-34
2135,116,-64,556,-22,9,14
2136,240,-178,628,1,-19,-28
2137,56,51,251,-39,16,18
2138,229,-69,185,18,13,-4
2139,73,-107,853,-64,-6,-6
2140,39,111,580,-1,-7,-9
2141,-52,-28,631,-14,-3,16
2142,260,-195,290,-6,-27,-33
2143,38,61,626,-55,5,20
2144,168,-41,512,28,-9,-23
2145,26,54,-21,-52,21,6
2146,229,-55,198,35,13,12
2147,25,-2,829,-2,11,-6
2148,-83,120,514,-1,9,-12
2149,64,-76,463,-18,4,23
2150,232,-181,261,21,-40,-39
2151,-5,75,613,-11,26,18
2152,169,-70,446,3,-19,-23
2153,77,31,-38,-48,18,2
2154,182,20,307,-26,-5,15
2155,91,4,835,34,8,-9
2156,-115,115,436,-18,5,-7
2157,150,-35,375,-32,15,23
2158,214,-184,332,9,-35,-41
2159,-22,89,624,10,20,17
2160,181,-56,423,-36,-31,-21
2161,113,-7,-19,-16,38,-2
2162,128,82,343,-16,5,17
2163,120,-21,852,10,-5,-8
2164,-126,106,386,10,8,-7
2165,164,7,349,-29,11,21
2166,220,-220,345,-1,-23,-42
2167,-37,119,595,37,21,14
2168,171,-35,391,-16,-27,-19
2169,106,-49,3,-37,24,-5
2170,92,162,396,1,19,17
2171,156,-25,801,-43,-19,-10
2172,-115,105,312,9,3,-7
2173,195,23,280,3,9,22
2174,242,-208,356,17,-23,-46
2175,-38,115,592,-5,19,6
2176,222,-68,261,17,-24,-21
2177,136,-193,74,-78,-3,2
2178,85,260,361,-7,35,12
2179,213,-67,747,-11,11,-11
2180,-125,-49,171,38,6,-12
2181,178,-86,254,-66,-21,22
2182,258,42,408,-8,-5,-44
2183,53,351,295,-59,-15,31
2184,357,16,-23,8,-15,-4
2185,283,-228,362,-60,-5,0
2186,13,158,558,38,31,16
2187,75,-255,920,-48,3,-14
2188,154,-110,471,47,7,-15
2189,8,-95,699,-38,-5,26
2190,319,-141,428,-66,-28,-40
2191,264,197,356,7,21,14
2192,81,-174,525,5,-23,-16
2193,244,-265,194,8,-8,-7
2194,103,215,285,-32,6,20
2195,114,-257,882,-31,2,-14
2196,73,12,443,5,-1,-17
2197,-78,85,523,-10,-11,31
2198,301,-403,373,3,-25,-62
2199,84,97,284,-72,20,38
2200,364,53,-62,-17,-11,-16
2201,306,-438,421,-85,14,3
2202,-108,217,474,52,8,4
2203,69,-212,1078,-2,12,-13
2204,64,110,570,-6,1,-16
2205,-124,-88,706,-26,-25,34
2206,319,-166,449,-15,-37,-44
2207,247,86,421,-17,65,14
2208,113,-75,454,85,7,-26
2209,392,-177,-19,-1,21,-9
2210,134,218,380,-16,-12,11
2211,154,-204,913,-8,-1,-5
2212,-6,109,330,-24,5,-14
2213,-34,4,719,-8,12,33
2214,311,-254,461,-21,-43,-51
2215,-46,24,241,-17,15,30
2216,392,-32,-28,-19,-23,-10
2217,323,-204,607,-62,12,7
2218,-93,151,513,-17,7,7
2219,16,-290,1066,-7,4,-7
2220,117,165,725,14,11,-19
2221,-172,69,672,-15,3,32
2222,292,-245,395,11,-27,-51
2223,214,-36,478,-48,40,22
2224,73,26,373,2,-21,-23
2225,339,-189,-52,-1,35,-9
2226,96,189,482,-53,-16,6
2227,88,-188,878,16,1,-3
2228,-61,71,373,-14,1,-12
2229,9,6,702,-19,12,26
2230,260,-223,429,-16,-35,-44
2231,11,61,238,-14,12,23
2232,383,82,65,-62,-34,-14
2233,279,-328,582,-32,32,2
2234,-61,115,540,-34,-6,4
2235,-40,-226,1064,15,1,-1
2236,96,108,693,-12,-8,-14
2237,22,-11,703,-35,0,18
2238,289,9,402,-22,-21,-31
2239,302,8,582,46,29,14
2240,65,-26,592,-66,-25,-12
2241,199,-203,410,-19,33,6
2242,72,143,684,-19,0,5
2243,5,-172,858,-3,3,-1
2244,53,-83,700,6,-8,-15
2245,-188,223,627,7,13,12
2246,266,-300,310,-24,-27,-31
2247,161,-146,619,-32,6,-2
2248,56,101,440,-54,-18,-6
2249,256,-198,50,-6,17,-1
2250,98,101,653,-5,0,-6
2251,2,-1,722,-47,0,1
2252,56,-119,559,23,-4,-7
2253,54,71,561,-55,-12,7
2254,262,-203,316,9,-9,-22
2255,69,-114,594,-28,-7,16
2256,8,205,172,-46,12,-2
2257,268,-283,39,-29,-4,7
2258,87,280,574,32,7,0
2259,22,35,591,-51,6,-1
2260,78,-134,398,45,12,-7
2261,170,10,332,-5,-22,3
2262,162,-86,359,-46,-8,-18
2263,53,-19,315,20,-2,-21
2264,274,109,200,25,8,-1
2265,206,-295,237,-15,21,1
2266,83,256,544,8,16,-5
2267,10,-140,548,-45,10,-1
2268,109,-361,303,14,2,-5
2269,115,52,561,-44,-28,3
2270,157,169,423,20,15,-11
2271,153,-4,310,21,3,-6
2272,256,180,232,-60,-6,3
2273,280,-155,552,-5,1,7
2274,58,-93,641,27,-8,-6
2275,-23,-189,779,-40,16,-2
2276,130,-174,492,-1,14,2
2277,171,33,614,-18,-19,-8
2278,172,122,268,-31,10,3
2279,306,-226,620,3,-14,-5
2280,81,21,505,-118,-26,5
2281,150,-249,79,-47,-6,16
2282,143,97,793,42,-7,-6
2283,71,-48,794,-29,6,-10
2284,7,-181,600,-12,12,6
2285,42,-92,315,-7,-23,-8
2286,180,-132,463,-77,-2,1
2287,213,-158,314,65,0,-29
2288,-7,-24,151,-29,-26,1
2289,239,-168,129,15,22,0
2290,80,141,691,15,-4,0
2291,39,-46,581,-11,1,-10
2292,-149,-180,428,4,14,15
2293,272,-245,699,31,-24,-30
2294,134,201,401,-57,12,8
2295,305,-325,409,-26,-19,-26
2296,226,-66,475,-74,32,9
2297,187,-156,335,44,40,-3
2298,22,-76,815,-51,-20,-3
2299,148,14,774,27,-12,-12
2300,-142,-80,713,-37,9,19
2301,49,-199,380,-15,-24,-21
2302,101,-127,566,-47,5,13
2303,283,-160,458,7,-22,-23
2304,-35,0,42,-79,-16,10
2305,236,-152,87,7,24,3
2306,53,53,734,-38,2,0
2307,1,28,599,24,-5,-12
2308,-131,-48,569,-45,-8,12
2309,253,-226,689,14,-14,-26
2310,11,205,480,-49,20,14
2311,211,-132,373,9,-19,-31
2312,264,25,232,-98,-11,9
2313,236,-161,555,40,37,6
2314,-34,-124,839,-21,11,-1
2315,68,65,854,-11,-9,-8
2316,-45,-67,601,-22,-5,15
2317,233,0,536,7,-18,-30
2318,227,229,476,-84,-6,18
2319,276,-198,671,7,-15,-18
2320,121,-37,540,-38,20,8
2321,116,-86,378,4,-7,7
2322,34,-62,862,1,9,-6
2323,124,15,807,-8,5,-10
2324,-116,-127,517,0,0,17
2325,71,113,441,22,-28,-38
2326,159,105,423,-69,22,15
2327,146,-151,666,49,-1,-28
2328,109,-70,342,-63,-2,2
2329,134,-91,251,1,13,9
2330,54,-126,926,9,15,-11
2331,84,-5,730,-31,8,-8
2332,-65,-28,437,-20,-7,21
2333,138,37,323,4,-44,-40
2334,112,-7,506,-92,25,23
2335,139,-166,573,-14,-20,-26
2336,135,64,125,39,19,-3
2337,168,1,235,-66,-4,12
2338,103,-143,832,19,8,-17
2339,24,55,631,-14,15,-3
2340,94,8,427,-19,1,21
2341,247,-210,395,-41,-46,-39
2342,42,145,609,-4,27,22
2343,160,-58,426,-2,-14,-17
2344,80,-56,-107,-46,27,5
2345,181,55,224,-18,2,14
2346,99,-69,828,12,1,-9
2347,-115,44,343,4,5,-10
2348,135,11,277,-25,13,24
2349,238,-203,305,23,-34,-46
2350,45,335,471,-38,22,16
2351,255,-21,168,-19,-19,-23
2352,272,-181,133,27,28,-10
2353,102,162,414,-57,6,16
2354,93,-132,893,-34,-4,-12
2355,-27,-154,246,28,12,-6
2356,110,-200,380,-71,0,26
2357,254,-62,482,4,-26,-45
2358,10,424,454,-39,5,21
2359,320,-84,161,-2,-23,-16
2360,262,-49,368,-27,-3,11
2361,98,93,543,-16,20,13
2362,22,-321,922,-22,1,-9
2363,158,-55,473,44,4,-15
2364,10,-124,643,-81,-3,25
2365,254,-118,374,9,-17,-48
2366,245,228,381,-17,14,19
2367,86,-205,564,3,-27,-19
2368,223,-329,297,-16,-9,8
2369,76,208,229,-41,22,17
2370,103,-259,885,14,11,-16
2371,121,-30,514,29,1,-14
2372,-83,83,426,-47,-21,29
2373,348,-452,320,24,-20,-53
2374,114,133,403,-66,36,27
2375,332,7,-1,68,16,-22
2376,302,-483,316,-57,26,-7
2377,-55,209,445,108,28,10
2378,113,-171,1049,-47,2,-10
2379,42,67,484,11,-3,-15
2380,-92,-178,697,-36,-14,33
2381,336,-191,496,-22,-29,-47
2382,274,168,380,-13,42,15
2383,129,-206,518,46,-19,-27
2384,313,-226,145,6,16,-2
2385,114,232,303,-2,7,13
2386,168,-238,933,-39,-3,-8
2387,61,137,404,-6,-3,-20
2388,-97,11,726,0,11,30
2389,361,-299,434,-8,-34,-56
2390,-44,25,340,-27,10,37
2391,398,7,-79,-7,-12,-14
2392,310,-324,533,-93,12,-2
2393,-96,166,470,31,6,4
2394,-8,-239,1051,-31,4,-5
2395,89,205,708,9,0,-20
2396,-151,-24,740,-17,-7,29
2397,313,-224,456,-14,-27,-44
2398,222,46,489,-32,46,17
2399,140,-87,480,23,-24,-23
2400,340,-173,23,20,26,3
2401,143,154,491,-8,0,3
2402,68,-174,902,-15,8,-3
2403,13,73,468,-33,-4,-14
2404,-12,46,580,-4,1,25
2405,235,-319,312,-5,-29,-46
2406,63,121,329,-61,28,23
2407,410,100,41,11,-19,-20
2408,287,-508,321,23,40,-7
2409,-29,183,535,-30,-7,3
2410,-10,-160,962,13,16,-3
2411,36,5,528,-16,1,-13
2412,34,-136,811,-5,1,20
2413,270,-80,380,0,-28,-41
2414,137,67,460,-47,36,13
2415,242,-189,354,-10,-18,-14
2416,274,-138,648,36,38,-5
2417,43,32,597,-37,-4,-1
2418,18,-242,908,-7,10,-1
2419,129,-46,744,-2,-1,-12
2420,-153,170,607,-44,-6,13
2421,266,-131,358,3,-20,-27
2422,233,-15,581,-7,17,0
2423,46,-54,660,-54,-10,-9
2424,207,-247,221,42,58,-1
2425,123,102,674,0,2,1
2426,-24,-110,824,-19,-1,0
2427,39,-121,652,4,-8,-9
2428,-92,193,615,-32,9,7
2429,259,-277,325,-41,-36,-28
2430,105,-121,642,-9,7,4
2431,38,92,506,-46,-8,-6
2432,189,-203,148,9,22,-2
2433,87,82,670,-2,3,-5
2434,-6,-8,778,-45,-1,-2
2435,37,-124,611,35,-3,-4
2436,0,228,529,-49,-8,1
2437,213,-152,272,-13,2,-13
2438,159,-120,601,24,4,-8
2439,38,40,591,-44,1,-3
2440,131,-244,179,-26,31,-2
2441,93,174,743,45,25,-7
2442,21,-104,763,-53,-6,-1
2443,83,-182,517,34,3,-2
2444,-116,187,371,-23,-19,3
2445,151,92,163,-14,4,-15
2446,130,-133,613,31,-1,0
2447,37,43,558,-18,13,-6
2448,134,-244,188,-52,-1,8
2449,55,300,707,48,10,2
2450,-15,-154,661,-50,13,1
2451,148,-183,521,38,13,-1
2452,1,257,374,-7,-15,-3
2453,154,119,118,-14,12,-14
2454,154,-218,681,66,10,-11
2455,44,57,471,-77,-1,-2
2456,177,-297,70,-28,21,7
2457,79,174,781,19,-7,-4
2458,8,-51,779,-40,9,5
2459,76,-154,543,-8,8,2
2460,-61,183,371,-20,-15,-14
2461,248,-53,318,-86,-21,4
2462,127,-176,586,-34,-21,-3
2463,-122,119,129,-79,28,0
2464,304,-232,12,-2,25,7
2465,103,72,626,-19,-15,-6
2466,31,107,471,34,11,-5
2467,12,-150,352,-35,3,9
2468,173,-34,265,32,-5,-25
2469,89,121,390,-49,-10,6
2470,213,-8,89,-61,-26,-11
2471,331,18,183,-78,26,7
2472,168,-190,484,18,50,12
2473,-6,-4,763,-21,-3,-6
2474,-2,-50,801,21,-10,-12
2475,-40,-145,524,-65,-2,16
2476,299,-78,563,-5,-12,-24
2477,216,224,393,-77,0,12
2478,306,-237,595,11,-13,-22
2479,141,-80,506,-83,-24,11
2480,107,-178,106,53,48,10
2481,87,-33,907,-8,1,-5
2482,113,88,649,17,-6,-13
2483,-130,-54,626,-51,-9,17
2484,234,-261,261,12,-25,-29
2485,61,-27,540,-77,22,17
2486,232,-95,307,50,4,-35
2487,94,-78,50,-51,-25,11
2488,223,-130,228,29,24,-1
2489,0,39,778,-7,13,-3
2490,-10,-13,579,-26,-11,-11
2491,-99,-47,560,-13,-10,18
2492,273,-277,664,11,-22,-36
2493,64,288,502,-82,31,20
2494,252,-229,458,70,-2,-34
2495,241,-58,371,-86,-16,13
2496,254,-125,506,0,16,0
2497,-26,-148,842,5,14,-6
2498,119,83,859,-24,-9,-9
2499,-84,-88,570,-18,-6,19
2500,217,18,493,12,-24,-34
2501,213,210,470,-54,22,24
2502,208,-177,642,28,-17,-23
2503,99,-102,424,-66,20,9
2504,107,-55,254,0,-10,9
2505,58,-125,934,16,8,-6
2506,131,-26,737,-38,11,-12
2507,-142,-14,496,19,11,23
2508,134,-93,318,11,-34,-43
2509,103,0,506,-83,30,27
2510,152,-164,522,-23,-22,-24
2511,154,90,60,26,39,-3
2512,187,22,211,-69,-13,6
2513,102,-153,836,29,7,-12
2514,29,95,474,-31,-10,-9
2515,103,19,372,-17,5,24
2516,236,-294,280,5,-39,-40
2517,41,211,567,11,45,13
2518,209,-67,260,-4,-23,-28
2519,119,-178,64,8,10,-2
2520,176,98,256,-66,1,16
2521,98,-79,867,-7,-3,-9
2522,-101,-119,288,-10,2,-8
2523,75,-123,403,-36,14,26
2524,263,-134,503,-11,-38,-42
2525,11,397,465,-10,21,22
2526,290,-97,210,-18,-34,-26
2527,286,-54,300,-27,29,16
2528,167,11,548,-8,11,8
2529,-24,-260,951,-6,-10,-8
2530,117,30,629,-16,-7,-12
2531,-27,-111,605,-50,12,27
2532,285,-74,440,10,-20,-46
2533,245,297,492,-70,-3,29
2534,165,-126,589,-10,-24,-15
2535,64,-253,522,-53,24,1
2536,108,127,382,-2,12,12
2537,5,-218,856,-7,3,-7
2538,168,-60,687,42,0,-17
2539,-263,189,549,-51,1,25
2540,281,-222,402,45,-11,-52
2541,89,-4,548,-26,26,23
2542,41,-122,509,5,-12,-22
2543,248,-11,13,-2,13,-4
2544,110,82,352,-23,-1,7
2545,73,-190,811,-74,-11,-5
2546,6,9,439,37,-8,-13
2547,74,100,452,-68,-19,26
2548,296,-348,328,37,-11,-44
2549,18,190,543,-30,24,15
2550,198,32,204,20,-14,-16
2551,167,-314,61,-63,-7,3
2552,66,176,406,15,13,8
2553,86,-113,783,-29,15,-6
2554,-90,-98,292,2,-8,-15
2555,71,-9,483,-33,-9,20
2556,263,-88,416,-41,-26,-42
2557,0,283,342,-22,3,33
2558,343,113,39,-31,-5,-10
2559,223,-370,331,-84,1,-2
2560,20,111,563,44,0,9
2561,43,-226,913,-34,-1,-5
2562,172,-174,395,6,4,-16
2563,-27,-93,779,4,-1,23
2564,206,-57,392,-9,-28,-43
2565,168,163,482,-32,36,16
2566,220,-219,342,17,13,-18
2567,231,-170,556,31,50,-14
2568,34,159,607,-11,5,9
2569,55,-250,859,-16,2,-7
2570,192,-242,761,1,2,-10
2571,-182,170,497,-3,5,22
2572,279,-207,285,25,-36,-46
2573,176,-54,453,-46,21,22
2574,-40,16,308,-43,0,-14
2575,389,-197,-68,41,67,-11
2576,27,179,398,-21,-10,12
2577,102,-138,790,13,-9,-14
2578,-38,-87,178,-22,9,-5
2579,68,54,649,-52,5,25
2580,255,-205,435,-46,-41,-34
2581,16,70,209,12,25,1
2582,401,-125,69,-2,-12,-11
2583,356,-209,545,1,34,-20
2584,-99,114,575,-108,-9,23
2585,64,-310,1033,-4,-11,-10
2586,116,29,698,-1,3,-9
2587,-193,-37,604,-37,12,22
2588,208,-342,315,-34,-23,-42
2589,190,-185,557,38,33,11
2590,200,83,86,-34,-32,-6
2591,149,-425,158,59,44,-7
2592,-9,306,442,-60,8,17
2593,107,-176,911,-11,-6,-10
2594,-89,92,366,17,3,-9
2595,-28,-204,743,-47,-3,20
2596,332,-42,404,-30,-23,-37
2597,334,-67,441,48,43,7
2598,127,-81,545,-46,-25,-2
2599,326,-285,106,40,22,2
2600,58,207,619,-36,7,11
2601,161,-178,869,-20,-1,-3
2602,-65,93,452,21,1,-9
2603,76,-37,744,-50,-2,17
2604,260,-210,413,-37,-30,-34
2605,-23,-34,258,46,28,7
2606,380,-8,113,-82,-34,-4
2607,324,-214,677,-2,19,4
2608,-112,133,533,-11,11,4
2609,-7,-200,1045,-40,-13,-2
2610,69,151,709,27,0,-11
2611,-126,32,732,-23,6,12
2612,267,-237,311,-1,-21,-33
2613,249,-192,643,10,21,8
2614,27,137,302,-66,-1,-7
2615,257,-274,0,61,33,-6
2616,110,163,597,-18,-7,0
2617,16,-75,793,-37,-8,-1
2618,-84,23,523,42,5,-9
2619,108,-24,653,-43,3,11
2620,179,-175,341,-7,-21,-22
2621,66,32,299,-6,5,10
2622,347,137,127,-55,11,-3
2623,211,-389,474,90,31,0
2624,-25,120,620,17,4,-2
2625,-91,-117,930,-39,5,1
2626,65,-63,616,38,-2,-9
2627,163,-38,762,-27,-4,1
2628,186,34,293,-18,-9,-18
2629,190,-88,626,-6,4,-12
2630,167,-50,366,-17,2,3
2631,315,-104,565,-47,3,-2
2632,34,-41,692,1,12,-7
2633,27,-211,786,-60,-6,1
2634,164,-174,568,14,-10,-1
2635,114,50,543,-71,-28,0
2636,224,59,197,18,17,-14
2637,225,-194,664,4,-3,3
2638,58,23,510,-67,-19,3
2639,147,-223,68,-29,1,15
2640,131,240,687,71,14,-11
2641,72,-105,789,-39,15,-7
2642,89,-192,570,31,20,1
2643,-76,-25,362,-23,-27,-5
2644,238,-183,334,-42,12,-8
2645,196,-210,411,63,10,-24
2646,-42,42,-37,54,30,1
2647,248,-232,118,-47,7,-8
2648,112,169,661,-8,-12,5
2649,141,-58,581,-31,-5,-12
2650,-118,-267,372,-18,20,16
2651,258,-335,672,36,-12,-23
2652,185,100,292,-56,5,-4
2653,342,-418,374,17,-27,-19
2654,114,37,452,73,45,-3
2655,95,-99,-324,-60,15,-31
2656,339,-111,692,15,-2,7
2657,223,-50,275,28,-1,-20
2658,-144,-157,413,-55,13,20
2659,317,-313,734,36,-53,-13
2660,256,-19,372,-55,16,14
2661,283,-498,251,-45,-30,-12
2662,290,2,614,59,42,9
2663,137,-177,-287,-76,5,-15
2664,91,43,695,-9,1,11
2665,184,-12,222,30,-2,-22
2666,-218,-37,492,-57,19,17
2667,157,-259,723,29,-16,-14
2668,390,42,355,-48,32,4
2669,473,-206,517,-42,-14,-32
2670,-49,59,238,16,30,13
2671,77,-344,14,-91,-1,-5
2672,78,173,788,-29,-11,12
2673,122,-59,449,3,-4,-19
2674,-194,-25,508,-45,16,13
2675,-79,-180,255,2,-49,-3
2676,-4,-368,372,-58,1,-1
2677,153,-336,386,-2,-18,-15
2678,493,-11,519,-48,23,5
2679,294,-114,455,-40,5,-14
2680,-123,171,359,30,-3,11
2681,172,-97,595,-40,-11,-17
2682,-157,29,606,-19,25,13
2683,311,-371,696,43,-19,-13
2684,187,-34,247,-43,24,1
2685,148,-291,500,39,19,-26
2686,-108,172,507,-10,35,3
2687,33,-332,177,-40,7,-24
2688,42,137,776,22,3,7
2689,150,-37,680,-19,-6,-15
2690,-212,18,454,-3,13,8
2691,54,-263,611,4,-35,-9
2692,204,-128,424,-69,-2,2
2693,348,-326,725,26,-17,-10
2694,135,104,279,-69,-5,10
2695,-5,-450,340,-39,0,2
2696,38,88,816,24,3,1
2697,76,-55,820,-39,-5,-8
2698,-146,29,533,3,15,4
2699,84,-194,567,7,-29,-7
2700,249,-46,382,-60,4,1
2701,352,-264,752,5,-2,-11
2702,-10,186,380,24,29,-3
2703,93,-290,195,-46,7,-8
2704,133,61,735,2,10,2
2705,16,-47,804,-43,5,-2
2706,-143,-8,589,-9,-1,1
2707,292,-222,715,8,-23,-10
2708,204,105,379,-45,14,2
2709,185,-232,542,-2,3,-17
2710,262,2,652,-11,3,8
2711,274,-150,677,-64,6,8
2712,-33,-33,715,28,9,-7
2713,4,-18,932,-41,4,-2
2714,0,24,804,-22,-4,1
2715,-64,76,605,21,-26,-12
2716,233,-13,375,-54,7,3
2717,267,-211,682,15,4,-26
2718,58,37,562,-49,13,2
2719,150,-227,225,-36,11,1
2720,121,38,810,2,1,-6
2721,26,57,753,-10,7,-3
2722,0,-122,672,-20,6,8
2723,-20,10,393,16,-22,-20
2724,220,-132,350,-74,-10,3
2725,194,-201,645,-12,1,-22
2726,67,123,360,-4,11,5
2727,185,-174,81,0,23,3
2728,100,45,758,-39,-12,-12
2729,52,80,709,18,13,-3
2730,75,-149,547,-42,-10,12
2731,44,39,317,16,-18,-25
2732,205,-104,426,-75,-20,9
2733,194,-133,571,-22,-13,-6
2734,-46,101,132,-46,19,-1
2735,276,-155,89,11,16,12
2736,108,108,707,-12,-15,-12
2737,16,131,548,0,7,-6
2738,118,-126,406,-29,-5,12
2739,235,-114,247,60,-11,-27
2740,88,129,472,-60,14,7
2741,167,-50,308,86,14,-31
2742,155,-30,130,-22,-1,4
2743,227,-135,256,21,45,9
2744,58,63,742,-10,5,-10
2745,-37,-119,445,-50,-7,-3
2746,61,-265,326,-24,-9,16
2747,210,-113,561,35,-19,-31
2748,105,390,453,-43,22,11
2749,222,-145,417,36,-5,-21
2750,238,39,281,-49,-28,3
2751,285,-114,522,-8,19,15
2752,-19,-160,812,7,11,-10
2753,77,-10,806,-26,-1,-10
2754,-33,-170,470,-15,5,21
2755,276,-4,492,11,-27,-33
2756,214,208,420,-13,39,19
2757,178,-178,573,32,-6,-25
2758,188,-123,362,-20,-24,6
2759,118,-101,147,12,14,16
2760,91,-150,915,-19,1,-9
2761,96,54,630,-29,2,-10
2762,-97,-40,501,-37,1,26
2763,263,-283,308,-1,-40,-38
2764,42,106,568,-19,48,22
2765,206,-112,258,-13,-30,-30
2766,24,-132,30,18,-20,3
2767,223,46,248,-45,6,18
2768,70,-79,855,7,6,-7
2769,-55,-23,432,0,3,-13
2770,-66,-140,515,-47,8,32
2771,296,-257,619,33,-41,-46
2772,14,324,492,-37,56,23
2773,293,-240,271,-25,-37,-34
2774,278,-254,473,64,7,-15
2775,168,31,432,-50,11,17
2776,19,-270,937,0,-7,-5
2777,209,45,833,21,7,-15
2778,-272,66,567,-36,25,36
2779,200,-248,400,93,-28,-62
2780,93,-40,574,-70,35,34
2781,154,-114,412,-35,-30,-24
2782,101,-84,-75,-13,63,3
2783,118,140,123,-106,-26,6
2784,151,-239,926,45,-2,-11
2785,-25,46,328,22,5,-15
2786,-119,11,557,-64,21,36
2787,382,-276,499,34,-29,-51
2788,-88,247,430,-52,20,31
2789,308,-82,77,6,-44,-34
2790,336,-112,350,-30,18,22
2791,78,104,507,-59,5,6
2792,-38,-288,1023,24,1,-7
2793,131,151,773,9,-6,-20
2794,-182,-46,625,-41,12,36
2795,284,-215,396,34,-37,-54
2796,183,118,507,-33,48,27
2797,147,-170,523,7,-22,-31
2798,309,-77,107,38,16,-4
2799,134,144,223,-9,17,10
2800,128,-287,935,-47,-8,-1
2801,28,120,377,39,-2,-16
2802,-87,59,567,-54,16,35
2803,321,-347,375,22,-30,-62
2804,1,210,407,-69,10,33
2805,343,1,18,-36,-14,-18
2806,297,-354,287,-24,26,-7
2807,-6,144,502,4,12,9
2808,0,-259,1012,-67,-2,-2
2809,15,86,556,44,-2,-18
2810,-18,-157,711,-64,8,34
2811,346,-102,494,23,-27,-58
2812,213,231,515,-50,-2,34
2813,192,-179,494,-29,-5,-14
2814,162,-257,554,-34,22,-2
2815,74,177,465,17,13,10
2816,26,-292,868,-54,6,-2
2817,160,-15,754,50,5,-20
2818,-251,208,593,-26,5,30
2819,281,-333,464,20,-14,-55
2820,85,3,593,-41,12,30
2821,32,-44,462,6,-17,-23
2822,279,-73,-9,14,38,5
2823,99,81,432,17,21,3
2824,62,-161,787,-48,2,-2
2825,-14,10,452,46,4,-20
2826,36,76,453,-36,-9,27
2827,271,-325,329,47,-18,-46
2828,-1,197,516,-14,27,13
2829,195,83,197,12,-5,-17
2830,215,-315,61,-58,8,-1
2831,64,197,497,20,13,7
2832,63,-117,748,-1,26,-2
2833,-92,-47,341,5,13,-18
2834,62,11,408,2,-2,25
2835,228,-50,359,-29,-32,-42
2836,16,289,338,-39,29,20
2837,339,146,91,9,-17,-16
2838,228,-383,326,-1,23,1
2839,29,185,605,-23,-7,2
2840,40,-180,815,-13,13,-5
2841,76,-201,335,-1,1,-14
2842,23,-52,522,-6,2,19
2843,240,33,429,-37,-32,-37
2844,-16,288,346,-5,13,21
2845,305,78,151,-23,-17,-10
2846,138,-307,422,-21,30,5
2847,11,84,668,-33,-4,7
2848,24,-175,841,5,9,-4
2849,119,-258,358,-14,0,-10
2850,27,10,546,15,6,14
2851,221,38,419,-37,-34,-36
2852,-16,205,310,-29,4,17
2853,258,76,200,-34,-12,-5
2854,117,-261,470,-35,12,6
2855,11,129,691,-36,-8,1
2856,13,-114,790,-26,5,-4
2857,117,-279,341,6,-7,-9
2858,36,83,407,-15,-6,4
2859,120,77,430,-22,-10,-23
2860,-36,49,429,-26,-4,-2
2861,267,141,369,-30,-5,-6
2862,129,-246,460,-37,30,3
2863,49,230,687,16,13,-7
2864,-22,-25,675,-58,-3,-1
2865,19,-136,434,39,2,-7
2866,111,41,466,-33,-24,10
2867,54,-54,396,-33,-8,-22
2868,-12,-132,530,-19,1,7
2869,89,282,369,-4,1,-8
2870,91,-250,223,-47,4,10
2871,100,241,742,63,11,-7
2872,67,-40,728,-50,15,0
2873,40,-102,492,6,4,-5
2874,99,281,401,-6,-42,0
2875,97,101,194,-39,-2,-10
2876,141,-101,624,21,1,-8
2877,34,159,701,-4,8,-12
2878,11,-244,315,-86,-8,12
2879,86,167,885,20,-5,-7
2880,12,-70,656,-32,24,2
2881,5,-184,384,-17,-2,0
2882,92,176,611,4,-21,-4
2883,66,132,288,-44,-21,-5
2884,125,-23,564,50,12,-10
2885,113,112,309,-11,13,-12
2886,55,-58,535,-7,31,15
2887,75,-22,867,-5,-20,-13
2888,-12,-52,604,-27,27,5
2889,18,-342,273,-14,-9,-2
2890,109,190,299,21,2,-14
2891,-16,0,482,-45,-18,0
2892,62,-144,418,65,12,-14
2893,176,88,407,-46,10,-13
2894,35,-69,372,9,35,15
2895,119,186,812,12,-7,-15
2896,-2,41,620,-44,16,4
2897,81,-112,289,1,-12,3
2898,179,184,221,-27,-17,-19
2899,64,57,293,4,27,4
2900,237,-50,582,-10,-11,-17
2901,73,54,412,-21,9,-7
2902,84,-3,245,-47,22,15
2903,85,-1,873,16,-3,-23
2904,45,-98,684,-53,-2,6
2905,24,-134,252,4,4,13
2906,58,191,168,-6,-24,-36
2907,113,143,228,-5,17,9
2908,143,-113,561,-26,-30,-10
2909,137,-97,436,-11,39,-12
2910,5,121,181,-65,-3,25
2911,63,-25,774,46,-3,-19
2912,86,-103,561,-27,19,2
2913,62,-76,306,25,11,15
2914,158,111,179,65,-10,-37
2915,164,192,334,7,44,3
2916,116,-186,558,15,-25,-19
2917,272,-234,275,-1,-3,-4
2918,93,145,144,-36,23,28
2919,86,-99,852,22,-3,-17
2920,144,-56,669,-16,10,-5
2921,21,41,263,-25,-1,22
2922,300,-398,306,16,-42,-40
2923,92,264,473,16,57,14
2924,239,-123,90,-3,-10,-26
2925,270,-321,50,-3,37,-21
2926,14,168,388,-24,1,20
2927,157,-154,1075,-41,-15,-12
2928,3,18,452,25,-2,-11
2929,-103,-257,658,-38,12,35
2930,336,-253,444,-8,-27,-47
2931,242,241,375,5,50,20
2932,143,-255,459,7,-28,-36
2933,239,-113,257,57,35,-10
2934,128,171,-14,-40,23,20
2935,243,-286,977,-72,-15,-8
2936,90,164,254,31,-11,-21
2937,-215,-132,803,-74,-6,41
2938,524,-267,500,-19,-45,-53
2939,-120,84,513,3,69,28
2940,392,-211,68,-3,-29,-39
2941,378,-315,643,17,19,3
2942,-59,155,236,4,8,11
2943,-33,-309,1029,-60,-3,0
2944,136,273,613,48,-9,-23
2945,-199,-88,656,-61,-7,39
2946,260,-428,291,-22,-41,-53
2947,21,52,667,5,59,30
2948,397,-40,130,8,-30,-35
2949,216,-406,328,-24,17,18
2950,13,121,418,21,12,4
2951,55,-210,965,-79,-5,3
2952,-2,183,525,40,-14,-21
2953,-90,-193,770,-48,4,32
2954,387,-124,541,-6,-28,-46
2955,187,234,546,-39,9,27
2956,253,-169,603,-14,-4,-21
2957,157,-276,723,-16,17,-3
2958,80,180,440,14,5,6
2959,11,-217,933,-57,5,3
2960,136,108,689,40,-10,-21
2961,-196,108,737,-47,3,23
2962,271,-416,440,-10,-33,-39
2963,53,-23,659,-54,10,26
2964,95,-89,543,-11,-12,-19
2965,178,-67,121,-8,25,8
2966,132,79,495,38,4,-6
2967,6,-128,859,-49,-1,-3
2968,22,-19,622,12,-8,-13
2969,-29,133,602,-27,2,16
2970,322,-326,437,-34,-22,-31
2971,16,-17,617,-30,16,19
2972,94,-69,537,-29,-15,-11
2973,139,-82,161,-38,12,2
2974,101,36,590,-15,-3,-1
2975,3,-67,880,-7,10,-6
2976,37,-122,673,-10,-2,-9
2977,-36,279,530,-13,-2,14
2978,227,41,379,-13,-33,-34
2979,129,34,404,-19,23,20
2980,88,-35,679,-31,-17,-14
2981,45,-146,674,26,37,4
2982,20,116,665,-44,-12,4
2983,46,-170,856,14,5,-7
2984,12,-116,474,-7,-10,-7
2985,-51,74,588,-44,-8,13
2986,165,18,448,-14,-9,-30
2987,-88,84,432,-10,8,11
2988,224,110,380,-47,-20,-9
2989,54,-172,537,-53,30,4
2990,27,130,713,39,7,-2
2991,-40,-39,822,-84,-11,-2
2992,-51,-23,579,15,-6,-4
2993,126,146,487,-11,-7,4
2994,114,130,163,-85,-16,-17
2995,96,-45,475,19,-1,7
2996,-8,6,542,-4,-2,-9
2997,18,-126,698,-88,5,4
2998,-28,86,781,82,12,-8
2999,90,-115,723,-91,-12,-2
3000,-42,-245,446,12,-4,-3
3001,-47,32,279,-22,-24,1
3002,3,-130,297,-49,2,-8
3003,73,-112,419,-37,-10,-2
3004,5,171,556,-2,11,-6
3005,-100,-88,343,-27,11,2
3006,149,179,900,-14,-13,-7
3007,59,-68,638,-4,21,-4
3008,-54,-249,397,-29,-2,-1
3009,63,20,473,14,-4,-9
3010,56,-9,345,-58,-3,-8
3011,45,74,352,30,16,-9
3012,162,235,285,-56,-15,-4
3013,-43,84,235,1,28,14
3014,134,204,814,-29,-7,-12
3015,36,-50,642,6,12,-3
3016,-11,-151,341,-9,-18,5
3017,99,281,399,19,-4,-25
3018,122,71,173,-24,13,3
3019,113,176,302,46,5,-12
3020,122,28,243,0,26,-4
3021,0,-99,481,-14,4,12
3022,57,-29,815,-13,-16,-17
3023,-79,130,496,-50,-6,-3
3024,18,-196,270,23,2,16
3025,206,148,171,-7,-36,-23
3026,-47,140,176,-61,29,10
3027,210,-96,441,-8,-32,-17
3028,156,-162,531,-7,25,1
3029,3,118,224,-82,0,15
3030,73,-9,765,95,-4,-24
3031,104,49,341,-38,-10,0
3032,48,-184,260,-33,16,19
3033,177,-81,379,-44,-41,-32
3034,74,260,153,5,10,10
3035,263,-156,285,-12,-40,-15
3036,217,27,384,-69,18,-2
3037,82,253,559,-31,22,22
3038,62,-206,836,-19,-20,-19
3039,158,-34,327,-8,-4,-2
3040,32,-44,542,-17,-3,14
3041,160,-128,452,-29,-23,-40
3042,218,306,392,-46,-5,22
3043,181,-213,597,-33,-37,-11
3044,127,-230,617,-28,8,-17
3045,41,155,463,-12,26,20
3046,36,-223,824,-37,-11,-18
3047,183,-148,750,14,1,-6
3048,-152,51,506,-55,-23,18
3049,296,-80,398,9,-21,-39
3050,170,90,434,9,36,13
3051,48,-163,619,62,-5,-17
3052,222,-169,291,-1,17,-2
3053,116,79,367,30,31,9
3054,-5,-199,817,-47,4,-10
3055,79,-151,668,16,-10,-9
3056,-24,154,487,-39,-8,18
3057,330,-283,413,-16,-11,-36
3058,43,45,585,-39,2,28
3059,-1,-10,386,-28,-7,-12
3060,195,-117,-26,-36,10,-4
3061,72,84,443,10,2,9
3062,40,-69,810,-48,0,-8
3063,-21,-37,491,14,-3,-13
3064,93,87,475,-56,-10,18
3065,260,-284,351,20,-18,-37
3066,-4,127,639,-15,18,19
3067,138,131,325,-23,0,-12
3068,186,-232,101,-24,24,-4
3069,55,148,596,-7,-7,13
3070,21,6,865,-32,-1,-8
3071,-62,0,561,-6,1,-9
3072,110,70,513,-44,-8,13
3073,196,-221,412,-10,-32,-31
3074,-38,-15,585,5,22,19
3075,99,67,406,-54,-14,-10
3076,109,-136,183,5,25,1
3077,72,130,678,-23,-10,4
3078,10,-16,915,0,1,-9
3079,12,-45,638,-15,-5,-7
3080,44,268,558,-22,1,9
3081,188,61,348,-20,-26,-28
3082,140,14,467,-6,10,13
3083,60,42,670,-86,-12,-11
3084,12,-141,675,62,46,1
3085,-17,115,782,-48,-5,3
3086,47,-126,877,-6,4,-5
3087,8,-117,549,13,-13,-8
3088,-50,58,606,-71,-15,8
3089,126,43,545,4,2,-18
3090,-24,88,660,-11,6,0
3091,208,153,471,-31,2,-4
3092,-38,-22,469,28,17,-2
3093,13,203,794,-13,6,1
3094,-42,-6,864,-7,13,-3
3095,-48,-9,702,-3,-12,-7
3096,115,131,499,-57,-21,0
3097,110,110,353,-4,-1,-13
3098,40,170,444,-27,3,-2
3099,136,125,375,28,9,-4
3100,-53,-84,570,-48,11,6
3101,69,119,815,-4,6,-4
3102,-33,42,834,-2,4,-1
3103,-95,-84,657,-33,-15,0
3104,174,74,403,11,-12,-10
3105,93,80,381,-20,6,-6
3106,110,156,410,1,7,-6
3107,79,45,180,-38,2,-4
3108,-22,36,441,-22,9,8
3109,99,102,801,-19,-11,-5
3110,-56,82,732,-19,5,-2
3111,-128,-137,593,-19,2,6
3112,199,201,423,-9,-9,-25
3113,58,35,428,-13,1,6
3114,187,158,312,1,-10,-17
3115,64,224,28,-46,11,3
3116,-30,211,332,10,5,9
3117,84,19,905,-8,-7,-13
3118,-31,46,634,-4,10,-4
3119,-168,-138,509,-13,2,17
3120,133,-16,444,-19,-39,-35
3121,61,-163,462,3,25,9
3122,177,-38,326,-40,-6,-5
3123,2,130,315,-10,34,-11
3124,-42,240,376,-41,-6,18
3125,144,-115,974,-27,-10,-11
3126,-20,58,490,29,9,-10
3127,-244,-109,198,-39,10,24
3128,112,-228,368,-25,-43,-41
3129,-32,-11,281,10,11,21
3130,139,-209,353,-70,-19,-10
3131,30,-140,657,-9,-6,5
3132,-19,410,445,27,32,12
3133,124,-171,776,-89,-20,-14
3134,26,17,388,89,7,-12
3135,-215,-84,155,-105,-48,33
3136,152,-145,395,8,-26,-38
3137,16,-30,448,2,41,14
3138,105,-46,278,-41,4,-15
3139,50,54,163,67,34,-24
3140,11,235,398,-72,21,17
3141,172,-222,789,-14,12,-8
3142,17,-164,551,-14,-11,-8
3143,10,99,354,-42,-18,30
3144,184,119,127,18,-18,-39
3145,51,211,345,-37,45,16
3146,153,-83,184,-10,-18,-10
3147,230,2,615,-38,23,-6
3148,22,61,605,-16,3,9
3149,68,-187,760,-8,9,-7
3150,70,-211,342,-8,-3,-6
3151,-34,40,565,-2,3,16
3152,170,24,487,-65,-33,-33
3153,-77,154,345,-2,15,15
3154,189,12,239,-54,-16,-5
3155,72,-211,486,-7,27,1
3156,-11,83,749,-5,2,2
3157,-3,-100,793,-40,7,-7
3158,54,-236,353,23,-13,-9
3159,26,71,373,-49,-28,5
3160,58,-32,420,-65,-12,-20
3161,-26,-123,579,36,2,8
3162,165,253,381,-54,1,-6
3163,74,-179,251,1,21,5
3164,70,270,796,17,5,1
3165,40,-47,782,-60,6,-4
3166,45,-82,486,31,-3,-7
3167,71,265,394,-49,-34,0
3168,146,128,194,-35,0,-14
3169,128,-104,585,-25,1,7
3170,42,63,704,11,-4,-10
3171,27,-196,584,-83,-1,10
3172,14,137,831,47,5,-7
3173,48,-74,597,-43,6,-3
3174,1,-244,360,2,0,0
3175,25,131,514,20,-10,-5
3176,76,25,497,-51,-3,-10
3177,-31,-32,368,-3,-12,-6
3178,244,101,489,-57,8,-7
3179,-33,-156,432,-3,32,6
3180,107,147,813,5,-5,-10
3181,-72,66,669,-24,9,1
3182,21,-119,412,-6,-8,8
3183,142,236,302,-8,-9,-14
3184,82,77,119,-38,-18,0
3185,148,-85,593,15,11,-6
3186,21,80,743,-64,-4,-8
3187,-80,-161,422,19,30,16
3188,104,85,967,-38,-16,-12
3189,51,3,601,-2,14,-2
3190,-45,-259,311,-39,-23,6
3191,102,72,576,20,-6,-25
3192,-5,92,392,-51,16,4
3193,43,23,453,-3,-11,-6
3194,167,11,385,1,6,-6
3195,-18,-115,547,-74,4,11
3196,54,9,879,42,8,-16
3197,-116,149,635,-35,7,-1
3198,39,-139,407,-21,-4,14
3199,137,224,280,30,-32,-29
3200,20,103,210,-81,17,14
3201,120,-110,531,-3,-17,-9
3202,26,-51,763,32,20,-10
3203,-129,-43,543,-71,21,21
3204,161,-86,1003,52,3,-15
3205,37,45,478,-38,-5,-3
3206,-135,-186,257,-19,1,20
3207,150,-42,506,40,-26,-36
3208,-34,21,485,-56,13,14
3209,148,-77,412,-58,-17,-5
3210,42,144,248,11,4,-11
3211,-28,225,503,-79,6,19
3212,127,-64,870,1,0,-12
3213,-34,-20,553,10,5,-7
3214,-36,30,405,-43,-9,20
3215,196,172,319,53,-19,-44
3216,27,275,318,-39,10,19
3217,158,108,150,21,14,-8
3218,76,-91,455,-25,8,-6
3219,-34,57,598,30,9,16
3220,74,-144,806,-57,-14,-12
3221,-27,-21,335,52,16,-13
3222,22,-57,284,-30,-12,24
3223,223,-7,307,3,-29,-45
3224,-30,117,197,-45,15,22
3225,70,-93,436,-16,-19,-11
3226,80,-216,486,-30,26,-1
3227,26,371,498,24,-1,17
3228,44,-132,654,-20,-11,-7
3229,74,-21,367,0,6,-13
3230,-75,-92,482,1,28,18
3231,218,-41,346,-65,-43,-36
3232,-37,126,225,53,8,13
3233,179,25,94,-109,-21,-3
3234,102,-193,384,79,57,-4
3235,-45,127,633,-56,-13,11
3236,66,-123,675,-22,-6,-4
3237,41,-248,171,32,-12,-13
3238,37,110,312,-59,9,19
3239,145,25,412,-17,-22,-25
3240,-73,-146,433,28,3,0
3241,236,66,236,-58,-16,-7
3242,126,-230,341,3,41,-3
3243,24,356,651,-23,7,2
3244,7,9,688,-59,-14,-2
3245,14,-52,260,29,-5,-7
3246,140,56,441,-22,-6,11
3247,87,-76,381,-14,-2,-25
3248,-14,-131,524,9,5,9
3249,131,267,298,-1,3,-6
3250,137,-265,209,-53,11,4
3251,64,319,686,5,7,4
3252,41,-36,758,-59,10,-4
3253,83,-40,436,13,1,-1
3254,149,192,417,-25,-27,-3
3255,144,-46,225,-8,11,-14
3256,96,-133,620,-21,-4,-3
3257,34,226,536,-35,1,-5
3258,98,-216,210,-56,8,3
3259,118,174,759,24,8,-9
3260,44,-94,744,-42,-1,-3
3261,78,-155,502,22,-1,-2
3262,-113,205,333,-20,-15,-4
3263,125,116,200,-15,-4,-11
3264,146,-145,669,-23,-4,6
3265,55,142,738,-19,3,-4
3266,43,-230,412,-17,17,14
3267,20,196,870,-5,-10,-7
3268,-18,-20,597,-1,15,-4
3269,59,-190,318,-21,-10,1
3270,78,125,622,-3,-4,-6
3271,74,108,318,-14,-11,-2
3272,155,-81,498,44,0,-9
3273,118,105,288,-37,10,-11
3274,60,-52,522,4,32,16
3275,62,-17,880,-24,-20,-6
3276,5,-51,544,-14,14,1
3277,80,-383,239,-13,-13,6
3278,124,182,332,-3,-9,-18
3279,71,114,503,-53,-11,1
3280,71,-127,361,-17,-3,-11
3281,210,-11,296,-34,10,-3
3282,36,-61,395,-9,33,13
3283,99,150,817,-14,-5,-14
3284,-101,117,505,-23,3,0
3285,64,-171,255,-15,-3,16
3286,184,-3,326,31,-22,-30
3287,-32,0,497,-64,5,13
3288,178,-154,443,39,-3,-5
3289,56,147,185,-29,21,-8
3290,123,-66,295,-36,17,22
3291,89,92,853,26,5,-14
3292,-21,76,623,-46,12,1
3293,148,-41,305,29,2,12
3294,214,28,340,-19,-19,-30
3295,15,16,472,-44,8,12
3296,178,-116,507,-40,-22,-10
3297,-15,126,214,5,9,-3
3298,122,2,345,-48,-3,18
3299,96,-53,897,27,3,-19
3300,13,5,671,-7,13,-6
3301,79,-11,365,-6,5,21
3302,171,246,338,-6,-48,-34
3303,79,-1,392,-19,33,15
3304,115,-70,618,4,-13,-23
3305,90,-37,500,-21,33,-10
3306,52,-13,415,-35,12,16
3307,92,-157,979,-27,-15,-13
3308,22,-73,638,-3,6,-1
3309,-31,-5,388,-28,7,20
3310,93,204,327,30,-16,-46
3311,122,139,434,-61,6,16
3312,108,-108,636,-9,-11,-6
3313,69,-87,821,-30,4,-7
3314,-30,96,479,-11,7,15
3315,77,-174,929,-31,1,-13
3316,75,17,310,24,8,-11
3317,-72,-108,510,-41,-29,17
3318,176,5,530,-18,-16,-37
3319,-56,251,374,-37,0,21
3320,183,-55,253,28,-10,-7
3321,82,-122,417,-51,6,-9
3322,1,26,653,13,16,19
3323,78,-157,912,-27,7,-11
3324,40,-152,293,9,10,-12
3325,-16,-90,265,-31,-33,20
3326,175,-4,383,-38,-23,-31
3327,-95,-44,534,-11,16,16
3328,189,8,354,26,-4,-11
3329,118,-90,205,-47,5,-11
3330,28,245,649,14,14,14
3331,103,-59,814,-15,10,-10
3332,-23,-37,526,-14,6,-9
3333,139,141,264,-22,-23,23
3334,208,108,231,-28,-41,-31
3335,70,68,313,9,31,10
3336,89,17,669,-24,-6,-14
3337,81,-191,400,-7,28,-6
3338,43,250,606,37,13,10
3339,22,-179,730,-9,17,-5
3340,29,-155,464,-17,1,-9
3341,6,109,507,-16,-7,19
3342,166,71,187,-46,-38,-28
3343,157,67,551,-22,22,3
3344,110,-35,432,-46,-4,-9
3345,218,-29,642,-33,22,-4
3346,-26,128,683,-8,1,1
3347,56,-138,689,-42,-8,-4
3348,97,-318,273,3,2,-6
3349,12,89,513,-6,-2,9
3350,144,49,428,-20,-11,-33
3351,-8,113,313,11,12,12
3352,170,30,215,1,11,-3
3353,134,-179,425,-43,13,2
3354,-11,63,714,21,1,4
3355,28,-82,660,-43,9,-5
3356,131,-373,282,1,-4,-5
3357,59,124,366,-25,-22,2
3358,115,101,482,-9,14,-14
3359,-11,-13,348,-16,-4,-4
3360,238,93,325,-23,3,-3
3361,91,-225,354,-78,-2,5
3362,52,277,747,29,12,-8
3363,16,9,595,-68,-10,-4
3364,64,-173,319,-7,-12,-4
3365,94,61,312,-29,-32,1
3366,84,-50,439,-27,-13,-13
3367,18,-193,433,8,-4,-4
3368,134,202,144,-24,20,-11
3369,121,-233,149,-22,23,7
3370,124,321,689,24,-5,-2
3371,50,3,705,-31,15,-4
3372,132,-72,323,19,6,2
3373,162,8,292,19,-12,-17
3374,129,-79,399,-34,-1,-6
3375,122,-179,478,7,-12,1
3376,-12,215,157,-59,0,-11
3377,168,-239,91,-7,27,13
3378,117,210,684,12,-11,-6
3379,30,80,693,-6,10,-5
3380,160,-111,354,-13,-6,6
3381,187,-14,324,42,-5,-20
3382,125,-4,509,-57,-1,3
3383,108,-126,451,60,11,-5
3384,19,172,62,-78,-3,-8
3385,206,-196,106,-45,20,15
3386,78,156,729,-16,-4,-5
3387,-39,113,540,-30,-3,-6
3388,105,-129,341,-20,-17,9
3389,223,-51,230,45,-7,-26
3390,56,105,519,-72,11,7
3391,150,-64,348,89,6,-23
3392,123,4,94,-85,-6,-1
3393,199,-134,255,14,43,10
3394,35,88,801,21,15,-11
3395,-75,55,472,-13,5,-8
3396,89,-216,306,-18,-26,12
3397,216,56,236,16,-16,-31
3398,45,209,547,-78,22,12
3399,170,-24,334,45,-17,-28
3400,189,-48,76,-32,5,0
3401,175,-96,380,-32,10,5
3402,5,0,875,-3,8,-13
3403,-63,9,511,-51,0,-8
3404,106,-230,300,-9,-21,18
3405,194,67,322,3,-30,-34
3406,6,216,573,-65,34,17
3407,171,-50,350,26,-12,-24
3408,201,-36,211,-39,15,-3
3409,134,-43,495,-61,-4,7
3410,15,-45,939,16,8,-14
3411,-110,78,542,-44,1,-9
3412,119,-104,370,-18,-1,20
3413,182,-54,299,-3,-40,-37
3414,-56,23,608,-25,22,18
3415,175,-70,448,-12,-10,-15
3416,93,76,178,14,41,-6
3417,100,34,425,-39,-1,19
3418,71,-42,967,8,-7,-15
3419,-44,77,557,-18,7,-6
3420,139,22,448,-31,4,21
3421,216,178,292,7,-40,-41
3422,69,56,343,-11,23,16
3423,99,-19,628,-3,-3,-20
3424,35,-76,541,0,32,-9
3425,27,5,474,-5,14,12
3426,101,-158,952,-16,-11,-14
3427,33,-60,535,-16,1,-4
3428,4,-7,484,-32,0,21
3429,150,130,382,17,-14,-41
3430,79,211,469,-24,6,14
3431,132,-116,397,7,10,-13
3432,80,25,580,-34,18,-12
3433,13,29,607,1,20,14
3434,79,-167,931,-8,-2,-12
3435,90,-135,286,21,4,-8
3436,-68,-97,279,-62,-27,18
3437,185,-12,356,12,-1,-31
3438,-33,-99,507,-22,17,22
3439,168,-8,356,27,-11,-14
3440,93,-11,132,-47,18,-7
3441,32,272,575,-17,4,17
3442,132,-24,739,-14,3,-10
3443,45,-124,495,-7,3,-11
3444,116,156,141,-33,-14,25
3445,194,147,112,-37,-51,-28
3446,71,93,242,27,33,12
3447,106,-9,535,-75,-24,-10
3448,175,-246,221,-17,24,-9
3449,35,336,468,-29,-10,12
3450,27,-169,656,-14,-1,-10
3451,97,-213,537,-40,-11,-7
3452,-30,227,442,12,9,11
3453,185,60,76,-45,-29,-38
3454,187,-25,416,68,28,3
3455,11,-6,564,-47,-17,-6
3456,247,-320,203,-16,29,-10
3457,19,282,629,4,7,7
3458,7,-114,767,-25,-7,-7
3459,98,-249,615,-15,-20,-8
3460,-117,389,539,-16,0,6
3461,299,-206,184,-81,-27,-22
3462,101,-151,585,22,0,5
3463,-54,192,306,-39,-7,-8
3464,324,-231,40,-9,12,-3
3465,66,143,577,20,8,2
3466,2,0,684,-48,-11,-11
3467,82,-129,423,23,-2,-4
3468,144,42,365,-35,-27,3
3469,144,-134,311,-22,3,-18
3470,103,37,325,49,23,-12
3471,238,154,99,-15,2,0
3472,222,-352,236,-17,19,-6
3473,31,209,549,25,23,2
3474,-56,-57,696,-62,-1,-8
3475,70,-246,358,32,-3,-2
3476,111,0,619,-31,-17,-5
3477,156,4,362,-41,-8,-9
3478,83,-14,367,0,-9,2
3479,265,136,224,-50,21,-3
3480,170,-244,493,-41,1,6
3481,9,3,716,46,6,2
3482,-21,-126,838,-47,1,-9
3483,114,-170,574,27,8,-1
3484,124,81,779,-6,-30,-11
3485,123,92,372,-33,12,-5
3486,212,-75,639,24,14,-13
3487,174,16,499,-30,15,-1
3488,193,-156,610,-51,2,1
3489,40,-87,765,-2,0,-5
3490,-24,-92,849,-35,5,-8
3491,93,-130,606,-10,-1,6
3492,85,168,721,3,-29,-15
3493,70,100,429,-18,3,-1
3494,166,-16,545,17,7,-9
3495,170,54,392,-15,16,-6
3496,92,-156,597,-62,4,12
3497,76,-45,892,27,-4,-5
3498,-34,-27,735,-42,1,-4
3499,30,-347,508,-22,-1,8
3500,49,126,398,15,-12,-18
3501,42,48,599,-50,-5,6
3502,46,-21,562,20,8,-15
3503,224,126,455,-19,12,-6
3504,38,-93,468,-13,36,14
3505,74,100,877,17,-9,-9
3506,-54,132,757,-22,5,-5
3507,27,-114,520,-65,-20,9
3508,161,262,357,39,-4,-25
3509,76,96,208,-120,-6,11
3510,155,-116,638,60,-11,-12
3511,27,43,712,-43,17,-6
3512,-91,-141,568,-36,15,10
3513,91,-6,942,28,-5,-14
3514,64,-39,536,-72,-16,-4
3515,-127,-267,230,11,-2,16
3516,127,-30,355,8,-26,-29
3517,-46,-114,474,-67,9,16
3518,126,-142,397,20,-17,-8
3519,-25,27,198,-14,17,-7
3520,-8,161,425,-89,2,17
3521,127,0,928,44,0,-15
3522,46,-33,621,-60,-22,-9
3523,-13,-55,297,25,11,18
3524,148,183,350,5,-29,-36
3525,74,302,267,-48,23,12
3526,144,22,305,15,-12,-10
3527,101,36,366,-12,4,-8
3528,-38,4,619,-51,11,20
3529,75,-123,956,34,4,-13
3530,-6,-81,356,-20,-5,-9
3531,-13,-173,279,-35,-12,15
3532,150,-100,410,26,-8,-43
3533,-58,83,278,-77,17,14
3534,47,-74,575,45,-19,-13
3535,-50,-24,388,-49,20,-6
3536,44,161,498,13,36,13
3537,139,-153,828,-27,-5,-10
3538,7,-111,571,-11,2,-3
3539,15,38,522,-32,-23,21
3540,196,106,366,1,-10,-37
3541,-32,112,316,-52,11,23
3542,157,57,184,39,-9,-13
3543,58,-181,472,-69,13,-2
3544,-28,32,627,21,6,10
3545,61,-116,818,-17,-3,-12
3546,-39,-52,363,-17,-2,-14
3547,41,-23,313,22,8,17
3548,169,-81,398,-22,-19,-36
3549,-18,82,255,0,25,13
3550,49,-27,618,-23,-11,-10
3551,6,-117,358,-33,35,-7
3552,100,257,626,23,11,9
3553,73,-159,708,-47,-6,-6
3554,20,-165,501,-4,-3,-6
3555,10,133,460,-20,-3,21
3556,203,27,206,-61,-37,-22
3557,45,132,343,53,15,9
3558,135,17,109,-99,-11,-5
3559,130,-61,471,22,31,-1
3560,-30,81,722,-7,-5,7
3561,31,-104,680,-49,-1,-5
3562,76,-304,212,36,-9,-12
3563,33,98,316,-61,-15,9
3564,94,-72,392,-45,-4,-13
3565,-23,-212,460,49,-5,5
3566,172,174,290,-61,-3,-7
3567,94,-190,254,-18,23,2
3568,70,365,660,39,13,0
3569,51,-63,722,-74,-1,-2
3570,107,-63,366,37,-8,-2
3571,167,194,359,-36,-20,1
3572,148,-34,182,5,13,-13
3573,130,-91,584,-11,7,1
3574,44,183,564,-30,5,-5
3575,95,-217,200,-14,21,3
3576,127,196,749,30,12,-8
3577,53,-86,728,-44,-1,-4
3578,112,-156,480,23,-5,-1
3579,-121,174,326,-21,-17,-2
3580,152,91,211,-3,-1,-11
3581,132,-138,653,0,4,5
3582,25,119,746,-14,13,-10
3583,65,-240,347,-40,18,16
3584,41,205,889,9,-15,-6
3585,-11,-101,674,-23,9,-4
3586,103,-204,372,-32,0,10
3587,90,180,608,21,-9,-13
3588,123,116,307,-23,3,-2
3589,190,-119,704,-2,3,-12
3590,106,117,615,-50,7,-5
3591,94,-69,511,-23,13,6
3592,59,14,887,-15,-17,-14
3593,31,-42,584,-13,4,-2
3594,41,-278,293,-30,-20,7
3595,100,114,686,38,-1,-22
3596,39,210,348,-83,-5,7
3597,152,-89,465,78,5,-5
3598,141,39,226,-54,6,-9
3599,67,-104,533,41,36,15
3600,26,-22,934,20,-1,-13
3601,38,-19,518,-29,9,-3
3602,83,-378,248,-38,-23,10
3603,159,163,359,-8,-13,-27
3604,49,206,535,-57,10,8
3605,98,-61,409,-13,-8,-13
3606,190,-39,234,0,25,-3
3607,62,-30,483,14,38,9
3608,44,86,904,25,2,-20
3609,-86,126,480,-32,-7,-8
3610,93,-166,275,-6,5,19
3611,186,-38,319,12,-33,-33
3612,-57,16,538,-31,20,16
3613,177,-125,426,-4,-14,-8
3614,59,130,170,-5,31,-10
3615,114,-12,396,-54,1,21
3616,75,24,924,15,-4,-16
3617,-27,70,582,-39,8,-3
3618,178,12,367,-36,-4,19
3619,194,86,310,8,-32,-39
3620,66,-16,408,-34,33,18
3621,157,-89,574,-26,-14,-14
3622,27,94,337,-1,29,-8
3623,92,18,416,7,22,13
3624,91,-117,984,-11,-9,-17
3625,47,-42,641,6,-2,-9
3626,-52,-51,319,-13,-8,16
3627,92,193,282,-7,-11,-39
3628,133,89,385,-53,4,21
3629,90,-42,663,15,-11,-6
3630,29,-127,757,-11,14,-8
3631,-39,107,469,-17,11,19
3632,68,-129,936,-31,-5,-14
3633,70,12,359,37,8,-11
3634,-8,-32,522,-40,-21,18
3635,197,-3,488,-43,-10,-31
3636,3,261,414,-12,4,19
3637,177,-128,315,23,2,-7
3638,82,-49,500,-49,7,-11
3639,18,41,652,6,14,18
3640,64,-141,925,-32,2,-10
3641,88,-133,274,20,5,-5
3642,-12,-114,332,-32,-26,17
3643,192,35,429,-28,-13,-31
3644,-103,0,533,14,21,13
3645,221,11,345,-7,0,-11
3646,111,-152,330,-15,18,-11
3647,21,204,707,14,17,12
3648,77,-54,835,-36,1,-10
3649,-51,54,473,3,-1,-5
3650,165,133,356,-23,-14,19
3651,208,23,304,-16,-19,-32
3652,47,68,336,14,30,10
3653,95,43,633,-25,-11,-15
3654,15,-146,397,-8,22,-8
3655,69,127,699,9,4,4
3656,46,-168,793,-32,6,-7
3657,5,-154,481,-3,0,-2
3658,16,166,619,-3,1,16
3659,187,90,251,-55,-50,-27
3660,76,186,459,36,29,10
3661,114,-2,309,-51,-4,-10
3662,105,-43,629,6,27,1
3663,10,16,720,-8,-6,5
3664,29,-96,792,-22,4,-3
3665,44,-294,314,-13,-7,-7
3666,-20,50,331,-16,-8,4
3667,49,-167,345,-37,-2,-18
3668,34,-138,457,26,-6,5
3669,28,87,380,-4,0,-7
3670,12,-130,213,-45,19,7
3671,84,301,760,51,10,-4
3672,80,-63,723,-60,-8,-6
3673,66,-139,466,31,1,-9
3674,-6,165,316,-1,-10,-1
3675,131,164,127,-7,-6,-20
3676,113,-7,604,-10,1,0
3677,90,62,522,-14,17,-2
3678,84,-75,624,-48,10,3
3679,47,43,794,11,-2,-8
3680,47,-77,548,-41,1,-2
3681,41,-338,328,15,4,1
3682,22,147,377,-12,-14,-6
3683,86,45,487,-12,14,-7
3684,-35,-84,343,-11,5,-7
3685,250,97,450,-34,9,-9
3686,-14,-127,420,5,38,8
3687,120,200,810,7,-2,-12
3688,-51,63,629,-23,8,2
3689,84,-131,343,12,1,10
3690,170,174,201,27,-5,-14
3691,76,47,173,-34,0,-2
3692,156,-74,629,15,12,-11
3693,2,87,576,-27,10,-12
3694,28,-154,294,-14,26,11
3695,115,74,896,-25,-18,-15
3696,37,-111,679,-31,9,1
3697,46,-166,343,-15,-12,9
3698,59,186,491,26,-6,-24
3699,139,150,274,-22,5,3
3700,158,-110,697,0,7,-12
3701,90,110,510,-20,19,-10
3702,24,-79,545,-41,20,13
3703,74,-36,924,22,-1,-17
3704,72,-63,478,-27,1,-3
3705,-39,-329,242,10,0,11
3706,128,116,482,19,-11,-30
3707,-14,163,470,-8,24,9
3708,107,-74,417,-31,-8,-10
3709,192,-21,252,40,32,-10
3710,26,-1,590,-32,22,12
3711,67,10,925,10,1,-18
3712,-144,140,486,-19,-2,-2
3713,132,-81,301,7,5,16
3714,198,-7,393,13,-12,-35
3715,18,19,334,-5,36,15
3716,153,-45,548,-39,-19,-10
3717,4,94,298,0,19,-10
3718,73,56,439,-47,10,16
3719,120,-115,944,-19,-9,-18
3720,32,-62,636,16,3,-4
3721,-4,-11,298,-18,0,20
3722,111,193,282,11,-14,-41
3723,129,171,404,-48,22,16
3724,111,-106,599,30,-6,-11
3725,66,-39,794,-34,12,-8
3726,-26,88,526,2,15,12
3727,99,-171,945,-46,-4,-14
3728,90,-43,259,30,8,-10
3729,-84,-173,425,-13,-4,21
3730,187,65,538,27,-14,-46
3731,-128,173,404,-73,14,18
3732,182,0,281,3,-12,-10
3733,70,-223,416,-52,8,-3
3734,-29,151,667,-3,3,9
3735,86,-87,845,-37,-4,-12
3736,-110,65,346,3,5,-11
3737,123,-25,342,-30,-7,20
3738,207,-73,435,21,-19,-42
3739,-9,22,384,-36,18,15
3740,106,47,499,-31,-4,-9
3741,26,-74,235,10,37,-7
3742,89,167,626,-7,7,6
3743,56,-113,776,-14,1,-10
3744,29,-170,595,14,-1,-9
3745,-2,146,436,-12,6,18
3746,162,157,213,11,-11,-38
3747,96,127,509,-4,25,10
3748,103,-49,466,-40,-3,-9
3749,119,-2,671,-6,31,-8
3750,-10,72,655,-4,10,4
3751,77,-145,778,-43,-3,-5
3752,53,-273,257,7,-6,-5
3753,-58,22,394,-5,5,15
3754,162,62,442,-13,-15,-30
3755,-68,-44,449,13,29,7
3756,258,98,371,-42,-3,-9
3757,79,-188,451,-12,33,-1
3758,35,256,740,39,16,1
3759,-7,-50,746,-47,4,-3
3760,21,-28,377,20,-2,-4
3761,163,172,397,-29,-8,9
3762,127,9,167,-41,-18,-22
3763,105,-15,496,10,7,0
3764,27,120,623,-37,16,-6
3765,41,-234,338,-45,15,1
3766,96,193,789,20,-1,-4
3767,44,-179,696,-62,-3,-1
3768,61,-209,463,16,0,-2
3769,45,200,591,-28,-23,1
3770,141,118,236,-7,14,-11
3771,103,31,570,25,10,-4
3772,111,52,359,-8,18,-10
3773,95,-42,570,18,37,3
3774,47,-4,809,42,13,-10
3775,18,-71,584,-36,11,1
3776,86,-380,334,18,2,4
3777,32,138,321,-13,-26,-7
3778,62,-6,469,-24,7,-4
3779,-15,-140,390,-5,19,-5
3780,227,123,461,-24,7,-14
3781,21,-123,396,12,27,10
3782,119,212,814,32,-1,-12
3783,-28,25,663,-25,14,0
3784,98,-105,368,-12,-10,8
3785,171,208,248,2,-14,-14
3786,101,49,176,-29,-4,-1
3787,166,-84,643,5,13,-10
3788,5,105,609,-50,6,-10
3789,32,-162,313,-4,33,15
3790,107,63,927,14,-4,-14
3791,35,-105,672,-25,10,1
3792,46,-165,343,-7,-7,11
3793,69,182,515,13,-3,-23
3794,143,145,293,-52,-12,3
3795,161,-120,672,-39,-12,-11
3796,93,108,504,-20,19,-9
3797,29,-72,548,-21,22,11
3798,74,-40,928,-1,-13,-18
3799,70,-65,482,-33,-4,-1
3800,-29,-326,247,10,-2,13
3801,141,120,454,-9,-14,-30
3802,-9,163,501,-11,20,8
3803,117,-65,411,-33,-14,-12
3804,208,-10,292,14,29,-10
3805,32,2,598,-11,24,12
3806,67,16,927,-5,-3,-18
3807,-138,144,507,-13,-3,-2
3808,137,-63,312,2,6,17
3809,210,10,349,16,-14,-35
3810,26,46,318,-14,31,12
3811,144,-49,571,-27,-12,-11
3812,27,44,390,0,26,-11
3813,65,44,435,-11,18,13
3814,111,-118,950,-34,-11,-18
3815,32,-78,632,11,0,-4
3816,11,-2,341,-25,-5,20
3817,115,170,342,12,-22,-42
3818,112,191,430,-54,19,14
3819,122,-133,505,13,1,-12
3820,90,23,686,-40,16,-8
3821,6,95,542,37,28,12
3822,90,-165,962,-44,-5,-14
3823,107,-96,211,26,11,-5
3824,-63,-180,329,-27,-7,21
3825,212,59,463,32,-22,-44
3826,-88,121,511,-43,12,14
3827,238,10,320,9,16,-11
3828,105,-160,392,-34,25,-10
3829,-2,212,662,6,18,10
3830,116,-71,835,-26,-5,-13
3831,-105,115,419,32,8,-9
3832,167,41,297,-29,-5,17
3833,245,-50,373,14,-7,-37
3834,17,45,366,-24,17,15
3835,123,41,561,-32,-2,-8
3836,48,-110,305,13,32,-12
3837,89,145,614,-12,14,7
3838,36,-120,797,-18,-1,-10
3839,33,-175,597,13,-4,-7
3840,4,159,474,-16,3,17
3841,164,141,240,-1,-13,-36
3842,111,131,513,-19,21,12
3843,105,-42,476,-53,-9,-5
3844,116,-7,682,-1,34,-6
3845,0,93,675,-22,4,4
3846,76,-139,774,-46,0,-4
3847,64,-262,258,37,4,-6
3848,-44,22,410,4,10,14
3849,168,73,424,-6,-18,-31
3850,-54,-23,444,4,28,7
3851,259,105,340,-25,-1,-8
3852,92,-206,445,-22,23,0
3853,31,292,737,22,8,0
3854,-10,-34,759,-59,1,-3
3855,37,-28,320,37,5,-3
3856,176,134,348,-12,1,7
3857,131,-42,188,-5,-4,-22
3858,109,-34,487,-17,8,2
3859,49,160,567,-13,17,-6
3860,64,-226,257,-41,26,0
3861,112,230,718,33,11,-7
3862,49,-162,710,-66,-6,-2
3863,86,-180,517,39,9,-5
3864,-23,273,451,-20,-9,-2
3865,127,136,170,24,11,-18
3866,130,-32,672,-29,0,1
3867,85,83,597,1,15,-7
3868,95,-114,617,-45,22,5
3869,42,63,807,14,-2,-11
3870,36,-82,576,-24,-2,-4
3871,45,-308,343,19,0,-3
3872,26,151,553,2,-3,-7
3873,59,72,426,-32,4,-10
3874,-38,-11,351,-40,-18,-2
3875,212,33,352,-41,4,-6
3876,-41,-148,482,23,32,5
3877,89,114,857,-14,-8,-13
3878,-89,81,592,-5,7,-3
3879,54,-190,351,-14,-13,3
3880,146,58,324,18,2,-19
3881,41,-67,281,-51,4,-4
3882,150,-79,568,2,-16,-9
3883,-37,193,403,-57,-7,-5
3884,56,-93,263,19,41,13
3885,124,100,879,-19,-1,-13
3886,56,-79,708,-12,5,-3
3887,63,-154,316,-18,-16,11
3888,23,246,337,43,-7,-29
3889,109,166,238,-32,16,2
3890,176,-96,713,-3,1,-9
3891,79,92,652,-2,11,-6
3892,-19,-66,510,-19,31,13
3893,92,-2,912,18,-1,-18
3894,70,-37,465,-32,2,-4
3895,-55,-305,245,-20,-13,12
3896,122,122,505,27,-17,-35
3897,-28,181,395,-32,18,10
3898,69,-77,398,-35,-8,-8
3899,159,-67,218,31,25,-8
3900,0,-19,605,-71,5,15
3901,46,-9,921,17,-6,-18
3902,-125,97,444,-19,0,-7
3903,109,-126,292,-3,7,12
3904,176,-49,414,2,-19,-35
3905,-12,-40,417,-10,18,11
3906,154,-65,489,-50,-22,-7
3907,-50,92,216,29,30,-10
3908,65,69,471,-50,19,18
3909,115,-77,952,8,2,-16
3910,28,-21,615,35,7,-7
3911,-36,-39,314,-31,-2,16
3912,91,198,259,-7,-21,-41
3913,127,157,406,-49,15,14
3914,106,-100,598,-8,-20,-10
3915,65,-50,789,-40,21,-5
3916,-36,88,534,-9,22,15
3917,103,-175,942,-53,-7,-13
3918,83,-43,237,31,7,-7
3919,-92,-178,347,-38,-7,22
3920,184,62,487,36,-9,-45
3921,-102,116,459,-37,19,14
3922,215,23,309,-10,-1,-8
3923,88,-175,416,-21,20,-8
3924,-16,203,655,-35,2,11
3925,114,-82,816,-25,1,-11
3926,-122,92,390,20,7,-7
3927,145,33,283,-45,-14,23
3928,238,-22,342,13,-13,-38
3929,10,71,316,-28,17,13
3930,106,11,588,-14,-1,-7
3931,45,-164,321,-16,21,-14
3932,76,174,577,4,13,8
3933,46,-150,749,-11,4,-7
3934,25,-170,580,24,5,-8
3935,0,99,441,-16,0,20
3936,168,123,211,-35,-30,-35
3937,112,127,519,0,29,9
3938,106,-42,467,-50,-14,-8
3939,153,-11,672,1,26,-7
3940,-6,111,647,-23,10,6
3941,66,-170,759,-30,8,-4
3942,67,-254,263,13,-2,-7
3943,-46,13,491,-3,8,15
3944,162,74,474,-25,-13,-34
3945,-85,97,348,-4,18,8
3946,200,30,265,-38,-14,-6
3947,58,-224,478,16,28,-1
3948,7,144,753,11,11,0
3949,-8,-76,719,-41,9,-5
3950,20,-168,299,29,-7,-12
3951,82,46,423,-18,-16,6
3952,59,-127,346,-51,-8,-24
3953,3,-129,506,-13,2,8
3954,65,236,369,-20,-6,-8
3955,57,-236,252,-41,11,7
3956,100,248,779,33,9,-3
3957,44,-46,759,-47,17,-4
3958,60,-106,497,29,3,-11
3959,22,250,370,-16,-30,2
3960,151,125,170,-37,-2,-15
3961,125,-92,612,-15,-1,2
3962,24,116,708,5,2,-8
3963,43,-235,494,-82,2,15
3964,29,182,820,39,0,-8
3965,30,-68,586,-42,14,-1
3966,46,-209,349,-9,-3,-5
3967,39,100,613,-14,-20,-3
3968,65,34,303,-39,-13,-7
3969,28,10,331,32,4,-3
3970,180,42,293,-13,6,-8
3971,-43,-135,522,-28,18,14
3972,84,25,857,-6,-13,-11
3973,-55,2,524,-12,12,-2
3974,56,-284,332,-33,-9,2
3975,99,41,280,24,3,-17
3976,12,-132,354,-84,-19,-2
3977,128,-95,495,10,-29,-9
3978,-42,114,366,-83,-13,-1
3979,48,-110,238,16,35,17
3980,120,161,829,-28,-13,-16
3981,70,4,694,-10,10,-2
3982,47,-171,294,-5,-15,7
3983,-8,157,186,31,-9,-27
3984,107,90,177,-93,0,9
3985,167,-106,702,37,-17,-7
3986,66,75,734,-40,4,-2
3987,-64,-100,362,-4,16,20
3988,66,96,872,-14,-8,-18
3989,40,29,521,-33,13,-1
3990,13,-140,262,-5,-14,13
3991,115,7,532,-2,-35,-27
3992,95,270,290,-54,14,11
3993,136,-199,529,-2,-19,-13
3994,102,103,263,-46,15,-11
3995,78,15,609,-21,14,19
3996,26,-100,952,4,1,-18
3997,83,-73,396,-45,11,1
3998,57,-314,190,28,3,12
3999,164,106,513,-25,-27,-34
4000,5,324,366,-16,19,15
4001,170,-131,295,-61,-27,-6
4002,174,-129,131,14,20,-9
4003,18,46,579,-42,1,21
4004,47,-92,985,13,-4,-18
4005,4,-75,320,2,18,-3
4006,107,-294,184,-37,2,23
4007,207,92,420,-1,-30,-39
4008,9,343,424,-43,20,20
4009,198,-68,216,-43,-19,-13
4010,185,-161,196,50,33,-9
4011,-1,142,570,-4,22,19
4012,82,-80,957,-14,-7,-15
4013,-20,-91,232,26,11,-6
4014,113,-193,211,-41,-6,22
4015,214,85,399,-14,-27,-41
4016,-21,316,474,-42,11,18
4017,238,-11,200,4,-12,-15
4018,167,-208,250,-22,21,0
4019,14,215,549,1,25,14
4020,115,-105,890,-25,2,-11
4021,-25,-84,224,49,11,-10
4022,117,-163,248,-38,-14,22
4023,224,66,389,-22,-7,-38
4024,-24,276,439,-57,4,16
4025,272,45,132,-17,-25,-15
4026,151,-266,281,-30,18,-1
4027,8,211,585,-2,20,8
4028,125,-124,855,-48,6,-11
4029,27,-128,235,21,3,-9
4030,84,-110,315,-11,-22,20
4031,242,65,411,-31,-13,-42
4032,-24,277,392,-34,23,19
4033,279,100,132,-9,-19,-12
4034,147,-309,306,3,15,-2
4035,2,185,633,-3,13,7
4036,89,-139,864,-10,12,-11
4037,65,-165,277,13,4,-10
4038,46,-79,394,-14,-17,20
4039,233,65,427,-50,-23,-35
4040,-13,243,335,-30,26,17
4041,292,106,124,-29,-20,-10
4042,130,-303,379,-7,20,-1
4043,1,121,682,-12,3,4
4044,48,-135,869,-7,10,-8
4045,83,-219,322,-17,2,-7
4046,26,-35,421,17,-1,18
4047,193,47,413,-57,-34,-32
4048,-30,193,395,-12,26,10
4049,298,99,240,-32,-13,-8
4050,129,-275,455,16,23,-5
4051,10,125,719,-32,-10,1
4052,17,-101,851,-16,7,-4
4053,45,-228,397,-13,-12,-8
4054,58,78,345,-12,-6,12
4055,102,-39,365,-64,-28,-21
4056,-43,-72,541,43,10,0
4057,241,161,350,-49,0,-9
4058,136,-240,364,-11,37,1
4059,50,209,726,2,-2,3
4060,-10,-23,773,-35,-5,-4
4061,19,-40,475,37,10,-3
4062,190,124,506,-16,3,4
4063,125,-85,238,23,-3,-26
4064,97,-59,568,-31,-4,1
4065,63,207,506,-47,-4,-6
4066,40,-230,299,-63,12,4
4067,122,119,793,28,12,-3
4068,52,-139,781,-39,0,-2
4069,43,-191,494,27,5,-2
4070,-25,283,447,-17,-7,-2
4071,128,127,260,13,11,-16
4072,108,-8,623,6,13,-1
4073,86,86,495,-21,16,-5
4074,69,-80,640,-10,26,2
4075,49,-17,809,-8,-7,-9
4076,45,-89,641,-30,2,-1
4077,15,-349,365,9,3,5
4078,-10,102,323,-11,-21,-8
4079,18,-70,485,11,18,-5
4080,1,-121,433,-2,6,-7
4081,200,228,454,-9,-6,-11
4082,-20,-58,373,-39,23,14
4083,111,149,831,17,-4,-10
4084,-24,-9,718,-3,18,-1
4085,36,-135,406,-55,-25,1
4086,92,187,272,51,9,-13
4087,110,158,224,-94,-3,-1
4088,162,-71,686,20,-18,-9
4089,35,76,608,-64,6,-5
4090,-64,-140,609,0,34,8
4091,77,-11,918,-2,-4,-13
4092,68,-72,534,-51,-7,-2
4093,-83,-318,261,27,-3,11
4094,96,40,321,4,-12,-24
4095,-44,-111,489,-66,1,8
4096,95,-112,452,45,-13,-12
4097,33,80,222,-58,20,-4
4098,-17,94,404,-26,12,16
4099,95,60,924,33,1,-16
4100,22,19,661,-68,-5,-7
4101,-4,-116,296,29,-4,11
4102,105,194,324,-22,-25,-34
4103,84,236,318,-11,29,12
4104,138,-1,443,5,-23,-13
4105,76,98,368,-71,13,-6
4106,-41,-54,660,-36,6,17
4107,100,-104,971,23,-7,-14
4108,18,-66,418,-38,6,-5
4109,-46,-200,243,11,2,14
4110,118,-81,367,-42,-21,-34
4111,-68,49,274,-26,17,14
4112,53,-80,525,56,-3,-15
4113,-87,28,431,-55,34,-7
4114,30,104,502,50,25,9
4115,146,-106,905,-38,-15,-14
4116,18,-76,570,-13,-5,-3
4117,-5,-8,469,-3,-12,20
4118,185,116,389,-53,-20,-37
4119,-52,141,302,-7,9,23
4120,184,64,245,48,-6,-14
4121,57,-159,489,-87,21,-5
4122,-37,59,615,55,20,10
4123,86,-119,808,-54,-12,-11
4124,-78,32,360,3,-2,-12
4125,80,-17,297,4,-4,21
4126,211,-18,324,-22,-15,-38
4127,-16,98,232,8,22,19
4128,60,-50,497,5,-9,-11
4129,58,-175,482,-43,30,-4
4130,32,291,567,48,5,13
4131,62,-119,718,-37,-5,-6
4132,65,-59,409,-27,-5,-12
4133,-50,-52,470,-12,2,18
4134,214,-52,311,-66,-42,-34
4135,-57,117,271,45,22,16
4136,166,23,102,-80,-16,-4
4137,49,-204,431,56,38,-4
4138,-37,104,659,-33,-11,6
4139,60,-109,714,-27,4,-6
4140,26,-224,191,21,-12,-14
4141,32,52,349,-57,-2,12
4142,130,-179,363,-67,-25,-28
4143,-15,-156,457,100,20,9
4144,144,197,328,-46,-6,-7
4145,91,-218,218,8,33,0
4146,55,344,679,3,2,4
4147,54,-40,744,-60,-2,-4
4148,97,-58,392,38,-11,-7
4149,151,222,423,-55,-9,6
4150,143,-46,167,-19,-4,-21
4151,115,-91,546,-13,-4,0
4152,58,190,538,-50,-4,-5
4153,108,-247,249,-26,19,3
4154,86,218,695,40,16,-4
4155,49,-117,735,-56,-6,-3
4156,106,-168,507,45,5,-5
4157,-132,215,374,-29,-24,3
4158,177,72,148,6,-2,-20
4159,119,-98,626,-9,-8,7
4160,18,109,736,-7,14,-10
4161,106,-245,382,-55,13,10
4162,25,236,783,13,-5,-5
4163,-7,-139,675,-41,15,-3
4164,112,-216,425,-17,-1,2
4165,26,216,615,-14,-25,-6
4166,125,85,248,-39,3,-3
4167,198,-101,666,-27,-5,-8
4168,98,107,611,-14,-2,-4
4169,126,-103,510,-6,16,5
4170,26,66,853,-25,-15,-12
4171,-13,-39,617,-16,7,0
4172,88,-249,307,-7,-11,3
4173,72,156,699,8,-4,-8
4174,43,168,359,-53,-17,-2
4175,188,-106,533,61,0,-12
4176,116,87,379,-71,7,-8
4177,100,-37,511,5,37,14
4178,41,-50,891,2,-6,-9
4179,7,-86,557,-13,7,0
4180,93,-383,259,-4,-6,9
4181,113,161,598,33,-6,-25
4182,52,244,366,-75,-6,7
4183,139,-91,382,23,-4,-3
4184,153,-21,212,-60,1,-2
4185,58,-113,515,-9,25,17
4186,25,-52,921,-5,-3,-14
4187,16,-37,531,-12,16,-1
4188,85,-404,284,-10,-10,10
4189,152,144,416,-4,-6,-28
4190,72,261,454,-44,13,11
4191,115,-78,407,-5,-8,-9
4192,165,-57,215,-24,5,4
4193,44,-83,537,-22,10,12
4194,18,-16,920,2,-1,-17
4195,-42,6,510,-23,15,-2
4196,64,-298,245,-17,-13,15
4197,163,93,318,-5,-42,-31
4198,-59,105,590,-62,21,16
4199,144,-100,425,50,-2,-19
4200,158,56,260,-23,21,-7
4201,96,-18,523,-43,5,16
4202,57,-33,921,18,2,-13
4203,-126,126,513,-36,2,0
4204,147,-60,391,2,6,19
4205,199,-19,384,-7,-30,-38
4206,13,-4,441,-34,30,17
4207,155,-61,528,-28,-15,-12
4208,-19,152,217,15,29,-4
4209,82,20,477,-6,27,16
4210,109,-112,964,-7,0,-16
4211,40,-30,630,-3,-1,-6
4212,-53,-64,329,-34,-13,18
4213,92,201,268,-11,-24,-42
4214,114,120,397,-54,8,18
4215,96,-67,645,-13,-23,-9
4216,67,-94,809,-14,18,-3
4217,-69,101,488,-18,15,18
4218,83,-170,913,-39,-2,-13
4219,67,28,278,28,11,-10
4220,-64,-154,438,-34,-16,21
4221,184,16,518,48,-1,-44
4222,-77,235,339,-49,3,20
4223,177,-57,242,20,-13,-8
4224,70,-168,401,-66,-5,-5
4225,-37,83,645,-22,1,18
4226,82,-171,868,-26,1,-13
4227,13,-142,209,15,13,-13
4228,4,-84,245,-30,-26,23
4229,197,-39,398,-7,-29,-37
4230,-105,-29,527,-27,12,13
4231,173,-6,302,-3,-2,-10
4232,120,-113,236,-12,26,-11
4233,30,299,641,4,9,16
4234,136,-67,760,-38,-3,-12
4235,-20,19,472,-4,14,-9
4236,181,108,218,16,3,17
4237,223,-123,359,-27,-22,-39
4238,48,-3,444,-25,22,18
4239,116,108,398,-32,-17,-8
4240,149,-115,190,38,35,-5
4241,56,179,563,-37,-3,8
4242,59,-41,772,-2,4,-10
4243,72,-148,545,-2,-5,-10
4244,57,261,416,-25,0,16
4245,181,-14,238,-11,-32,-31
4246,119,-65,489,34,28,1
4247,71,115,569,-63,-6,-6
4248,171,-212,275,9,35,-6
4249,58,181,629,5,10,5
4250,7,-87,795,-21,-3,-7
4251,82,-192,574,8,-12,-9
4252,-87,284,427,-21,-11,11
4253,193,-19,194,-51,-25,-27
4254,154,-70,556,60,10,-2
4255,0,133,718,-47,-4,-4
4256,175,-262,304,-33,30,-1
4257,28,215,688,27,16,4
4258,-5,-145,765,-68,-8,-5
4259,61,-202,589,18,-6,-8
4260,-127,219,450,-16,-19,6
4261,201,41,177,-3,7,-21
4262,144,-69,608,18,7,2
4263,-34,98,664,-16,14,-4
4264,183,-281,300,-63,7,1
4265,19,205,741,36,9,2
4266,-2,-167,776,-67,-3,-4
4267,73,-210,596,30,11,-6
4268,-122,255,418,-21,-19,1
4269,219,65,200,12,4,-17
4270,129,-114,662,18,6,0
4271,-18,125,642,-27,27,-5
4272,159,-290,272,-47,13,7
4273,44,153,769,32,5,-2
4274,0,-126,793,-49,0,-3
4275,63,-211,582,36,15,-4
4276,-125,207,373,-7,-18,-1
4277,209,65,261,3,-1,-9
4278,142,-167,678,-5,-13,-10
4279,3,153,662,-53,14,-4
4280,147,-311,217,-25,30,7
4281,61,83,823,4,-4,-3
4282,9,-56,816,-4,7,-1
4283,59,-197,533,-23,-4,1
4284,-82,262,363,-5,-9,-10
4285,200,14,319,-20,-2,-4
4286,128,-191,683,51,7,-21
4287,9,152,609,-46,10,-3
4288,147,-277,182,10,30,3
4289,66,22,818,-18,-9,-7
4290,35,-4,799,11,4,-3
4291,59,-171,490,-26,-14,6
4292,-14,296,391,-9,-14,-20
4293,176,-37,358,-26,-5,0
4294,137,-189,678,55,-3,-26
4295,20,103,511,-60,-1,-1
4296,156,-218,199,37,35,2
4297,66,-31,847,-11,4,-9
4298,54,-1,776,0,7,-4
4299,42,-119,478,-7,-17,10
4300,71,215,375,0,-7,-28
4301,123,-32,387,-56,11,9
4302,148,-162,665,52,-4,-26
4303,14,95,439,-55,7,2
4304,137,-174,237,20,34,4
4305,61,-72,875,-18,2,-12
4306,60,4,748,-19,0,-5
4307,25,-84,444,6,-14,13
4308,91,255,433,-9,-26,-32
4309,99,-27,379,-64,24,15
4310,142,-118,644,70,-4,-24
4311,41,47,485,-44,16,-5
4312,77,-151,343,-28,13,8
4313,68,-111,984,47,19,-15
4314,67,-47,749,-28,-2,-10
4315,-45,-135,395,-12,-7,17
4316,28,214,367,3,-31,-35
4317,131,87,430,-26,25,18
4318,135,-105,624,-45,-27,-11
4319,9,-29,720,10,24,-5
4320,-2,-74,443,-55,6,18
4321,89,-106,1010,20,-3,-16
4322,48,-55,599,-24,11,-4
4323,-5,-45,417,-23,7,21
4324,162,102,509,9,-42,-40
4325,71,256,469,-34,20,16
4326,152,-216,449,-15,-10,-19
4327,103,11,470,-25,21,-7
4328,65,-19,614,-39,3,16
4329,73,-131,1052,3,-5,-14
4330,66,-69,320,-3,9,-3
4331,-34,-211,279,-43,3,22
4332,136,30,436,9,-28,-42
4333,-85,14,585,-5,1,15
4334,179,-67,408,-37,-12,-13
4335,91,26,323,-27,13,-11
4336,22,153,618,-3,10,16
4337,114,-92,861,-31,-9,-10
4338,-52,22,536,15,10,-6
4339,162,48,363,-71,-23,18
4340,184,213,266,-9,-12,-35
4341,85,67,318,-37,0,21
4342,59,-28,624,35,-17,-15
4343,42,-175,652,-69,6,-5
4344,-34,178,551,-1,13,15
4345,71,-186,825,-16,5,-9
4346,71,-14,342,-12,-3,-13
4347,-64,-94,493,-48,-18,20
4348,212,14,399,-4,-28,-39
4349,-93,155,310,-8,23,17
4350,162,24,193,-23,-15,-10
4351,36,-224,503,0,26,0
4352,-36,83,684,-58,-16,9
4353,49,-111,804,1,9,-7
4354,-27,-117,261,-6,-9,-15
4355,59,5,388,-10,7,12
4356,146,-166,340,-23,-20,-35
4357,7,-56,425,17,18,10
4358,87,113,381,-49,-14,-8
4359,8,-146,230,19,32,-2
4360,72,245,711,-33,-7,4
4361,72,-62,757,-37,-3,-8
4362,62,-161,513,36,-6,-13
4363,-64,134,345,-17,4,8
4364,156,116,138,-48,-13,-30
4365,152,25,573,0,8,8
4366,54,9,653,-37,-12,-5
4367,122,-146,654,-42,13,1
4368,-49,176,704,0,-2,-2
4369,41,-120,627,-54,1,-5
4370,57,-238,335,25,-5,-9
4371,4,91,556,-13,-13,5
4372,101,18,392,-15,6,-24
4373,-94,49,343,-23,5,6
4374,186,66,272,14,-7,-8
4375,14,-207,450,-105,-4,8
4376,43,149,779,31,6,-6
4377,0,-36,591,-49,-3,-5
4378,52,-218,325,-12,-1,-5
4379,109,40,385,-12,-15,-2
4380,60,-145,324,-7,2,-15
4381,101,-141,499,-13,8,3
4382,-9,173,357,14,15,-8
4383,48,-195,187,-37,20,11
4384,122,245,783,1,-16,-9
4385,81,0,721,-34,2,-2
4386,97,-144,357,-38,-9,0
4387,16,244,199,3,0,-6
4388,138,117,140,-48,-16,-3
4389,147,-135,656,32,0,-2
4390,36,128,744,-38,11,-10
4391,9,-215,314,-3,35,17
4392,50,172,880,-2,-17,-9
4393,4,-79,650,-15,13,2
4394,83,-202,289,-31,-19,4
4395,120,163,602,-7,1,-13
4396,135,122,273,-38,-10,-1
4397,155,-131,657,28,2,-13
4398,99,87,459,-68,5,-8
4399,67,-44,509,2,40,12
4400,44,-29,927,-13,-5,-14
4401,62,-74,510,-36,-2,0
4402,37,-377,248,12,1,11
4403,122,150,541,22,-2,-29
4404,52,229,400,-52,5,7
4405,96,-88,435,-35,-12,-3
4406,158,-55,189,1,11,-5
4407,22,-97,565,-33,9,15
4408,7,0,926,10,-4,-18
4409,-31,-9,473,-19,7,-5
4410,67,-288,183,-28,-17,15
4411,170,72,299,7,-40,-30
4412,-72,39,554,-41,22,16
4413,142,-130,406,27,-6,-14
4414,117,70,234,-11,18,-14
4415,82,18,473,-3,10,17
4416,87,26,904,19,-1,-16
4417,-46,86,532,-37,4,-1
4418,183,-19,327,-23,-7,18
4419,195,36,334,-9,-28,-34
4420,54,-9,405,-28,33,16
4421,167,-60,534,-40,-22,-15
4422,9,142,278,-6,24,-7
4423,76,31,411,-27,13,15
4424,102,-110,949,-1,-5,-18
4425,56,-25,636,-11,0,-7
4426,-24,-66,299,-11,-2,16
4427,121,186,272,-21,-18,-38
4428,138,79,361,-54,-7,19
4429,60,-41,664,-1,-13,-7
4430,37,-143,710,-34,13,-12
4431,-27,92,456,-19,2,20
4432,63,-152,924,-39,-10,-14
4433,58,-66,436,9,2,-6
4434,42,-1,543,-41,-18,19
4435,192,63,429,-22,-9,-35
4436,73,222,487,17,14,12
4437,145,-187,427,8,0,-12
4438,84,-13,558,-21,20,-12
4439,29,66,603,23,27,14
4440,72,-179,939,-47,-10,-14
4441,126,-171,234,41,5,-7
4442,-30,-168,413,-33,-6,18
4443,225,65,469,6,-11,-42
4444,-96,158,464,-7,26,16
4445,205,35,272,-28,-14,-11
4446,91,-257,416,5,27,-4
4447,-7,174,702,5,13,6
4448,79,-59,854,-26,-3,-12
4449,-88,-4,336,16,-2,-12
4450,98,-17,351,-51,-10,16
4451,182,-167,401,-34,-38,-37
4452,-37,-57,464,-8,21,22
4453,84,66,373,-50,-21,-8
4454,63,-133,191,46,39,-2
4455,63,190,674,-14,1,9
4456,52,-39,834,8,3,-8
4457,42,-113,517,-27,-11,-9
4458,62,256,402,-37,-3,15
4459,194,110,223,-51,-39,-26
4460,148,3,413,26,11,11
4461,34,40,661,-67,-12,-6
4462,71,-228,483,7,36,0
4463,15,209,718,-7,-1,7
4464,25,-199,753,-19,0,-3
4465,60,-205,441,15,-8,-6
4466,62,204,640,-47,-8,10
4467,171,43,234,-35,-22,-21
4468,117,73,577,45,5,0
4469,95,-24,409,-47,0,-8
4470,178,-19,567,-28,29,1
4471,-3,24,724,23,11,-2
4472,41,-90,657,-54,-3,-3
4473,90,-394,290,25,-10,-4
4474,20,92,455,-38,-9,2
4475,113,69,472,25,9,-21
4476,-49,-35,362,-17,5,2
4477,220,108,344,-19,4,-5
4478,47,-202,444,-31,20,1
4479,61,192,790,38,11,-8
4480,-20,18,615,-41,-3,-4
4481,28,-163,354,36,8,-6
4482,142,40,398,-23,-10,-1
4483,65,-113,322,-4,4,-15
4484,96,-134,518,-45,3,6
4485,-9,226,341,-12,2,-6
4486,42,-209,204,-42,16,12
4487,137,202,817,-2,-9,-9
4488,60,-8,745,-20,7,-1
4489,88,-136,388,-28,-10,0
4490,14,237,266,-9,-7,-6
4491,133,124,174,-46,-21,-5
4492,148,-149,669,42,-7,-4
4493,29,128,734,-49,1,-8
4494,-9,-228,359,-2,32,17
4495,61,153,888,1,-10,-10
4496,11,-57,621,-8,11,1
4497,64,-199,284,-26,-17,5
4498,130,137,558,16,5,-15
4499,116,156,279,-40,-8,1
4500,143,-126,601,50,-3,-12
4501,106,73,346,-66,2,-9
4502,65,-61,534,16,40,13
4503,37,-40,921,-1,-10,-15
4504,47,-80,499,-24,5,0
4505,46,-397,239,12,-3,9
4506,134,150,384,-25,-13,-27
4507,47,206,505,-39,8,6
4508,67,-82,434,-25,-3,-11
4509,172,-38,235,-1,17,-3
4510,31,-47,531,-42,19,12
4511,46,51,902,10,-2,-21
4512,-96,101,462,-32,-1,-7
4513,90,-187,267,-36,-12,15
4514,185,-58,352,0,-27,-33
4515,-67,-35,485,-27,18,14
4516,162,-115,439,-38,-23,-7
4517,-33,147,207,32,29,-8
4518,82,-11,421,-78,-8,20
4519,99,-4,919,13,-9,-17
4520,9,6,642,-13,9,-5
4521,96,-33,312,-43,-1,21
4522,145,287,283,-11,-43,-33
4523,105,83,290,0,17,15
4524,93,-45,581,-14,-12,-13
4525,46,-75,609,14,30,-12
4526,-20,43,449,-43,3,22
4527,99,-104,973,20,-7,-15
4528,41,-64,490,6,13,-2
4529,15,-45,384,-44,8,22
4530,176,78,405,2,-22,-39
4531,103,255,457,-15,9,15
4532,117,-210,464,-32,-5,-11
4533,102,29,536,-42,20,-11
4534,23,81,555,-15,19,18
4535,67,-179,967,-37,-13,-14
4536,99,-125,182,31,11,-5
4537,-27,-207,343,-55,-7,21
4538,214,71,480,45,-8,-45
4539,-98,167,481,-41,15,16
4540,197,-14,292,8,4,-11
4541,96,-196,396,-26,16,-8
4542,-7,202,657,7,25,9
4543,110,-83,836,-24,-3,-14
4544,-134,62,316,43,13,-12
4545,147,-28,334,-25,4,18
4546,219,-120,442,53,-4,-45
4547,-6,-38,442,-31,23,20
4548,101,52,399,-31,-17,-9
4549,38,-55,173,-9,22,-4
4550,62,174,623,-23,0,8
4551,63,-18,784,-14,-2,-10
4552,38,-160,596,5,-1,-11
4553,-50,55,324,-37,-2,15
4554,178,140,219,-22,-32,-39
4555,119,59,425,2,10,15
4556,60,-6,682,-35,-23,-10
4557,84,-177,623,26,30,-2
4558,-47,232,632,-53,-17,8
4559,33,-161,740,6,9,-6
4560,51,-107,330,20,1,-11
4561,-24,54,600,-30,2,10
4562,187,-19,353,-73,-41,-29
4563,-26,138,364,69,9,8
4564,159,-6,270,-68,-25,-7
4565,111,-125,553,2,27,0
4566,-16,46,731,-21,-2,5
4567,21,-98,749,-27,6,-3
4568,72,-327,253,17,-8,-9
4569,23,93,335,-34,-12,8
4570,65,-12,412,-21,-2,-19
4571,-46,-171,506,57,7,1
4572,186,180,319,-51,-6,-7
4573,83,-208,367,-21,16,0
4574,68,285,748,28,13,-1
4575,14,-64,738,-37,8,-2
4576,75,-51,429,16,-5,-4
4577,170,204,383,-43,-27,1
4578,131,25,137,-24,5,-12
4579,111,-68,574,26,8,-5
4580,23,164,606,-29,16,-7
4581,45,-237,306,-19,19,0
4582,109,169,825,23,10,-8
4583,35,-161,701,-45,2,-3
4584,85,-204,457,38,-2,1
4585,13,216,506,-13,-18,-5
4586,128,106,232,1,21,-8
4587,145,-50,629,-3,10,-6
4588,107,88,487,-61,3,-6
4589,68,-60,541,-32,17,6
4590,56,15,873,19,4,-11
4591,24,-56,533,-23,11,-1
4592,54,-392,297,17,5,7
4593,60,168,382,15,-6,-13
4594,55,86,483,-55,6,-3
4595,-2,-62,390,18,9,-11
4596,219,30,386,-46,3,-4
4597,-20,-93,466,11,37,10
4598,101,145,828,-22,-12,-14
4599,-112,83,561,-17,6,-2
4600,76,-185,285,-40,-26,8
4601,207,13,359,16,-18,-27
4602,30,-70,319,-76,-3,1
4603,173,-73,541,8,-3,-9
4604,-56,136,301,-22,7,-1
4605,81,-80,300,9,31,14
4606,110,74,861,4,-5,-18
4607,71,51,701,-29,5,-6
4608,61,-166,274,-13,-10,11
4609,-9,220,323,38,-23,-31
4610,124,93,247,-83,14,15
4611,131,-99,653,13,-17,-8
4612,39,31,678,-17,15,-9
4613,-52,-88,421,-55,-7,19
4614,86,6,973,19,-5,-16
4615,41,-13,569,-36,18,-1
4616,18,-130,331,-10,-1,19
4617,156,47,557,-3,-46,-32
4618,84,283,388,-28,29,17
4619,131,-209,488,-9,-15,-14
4620,108,53,357,-44,16,-10
4621,61,15,599,-35,5,21
4622,53,-105,998,2,-4,-15
4623,58,-93,325,-30,9,-1
4624,18,-267,224,22,11,19
4625,180,67,435,1,-44,-39
4626,-66,143,539,-29,22,15
4627,154,-100,342,-19,-4,-14
4628,167,-43,353,-39,25,-9
4629,13,181,590,1,14,13
4630,116,-21,886,-22,-9,-16
4631,-109,114,374,7,8,-3
4632,189,-6,288,-34,-3,22
4633,234,-62,379,22,-19,-45
4634,37,15,407,-81,7,19
