sequence,AccelerometerX,AccelerometerY,AccelerometerZ,GyroscopeX,GyroscopeY,GyroscopeZ
0,367,19,1002,18,50,7
1,-135,118,861,-1,88,16
2,-511,124,904,-37,41,21
3,-483,-62,776,-66,-43,-1
4,33,-135,1000,8,-95,-12
5,469,-120,973,15,-74,-7
6,538,-21,1047,42,9,5
7,103,68,875,-13,83,12
8,-373,156,843,9,74,21
9,-546,13,941,-81,-7,8
10,-236,-126,948,-4,-72,-9
11,310,-150,1014,4,-96,-7
12,552,-70,1111,52,-30,1
13,298,36,1021,4,68,8
14,-187,114,822,10,85,19
15,-516,109,857,-36,31,21
16,-429,-79,805,-60,-40,-1
17,109,-150,991,7,-104,-10
18,507,-98,1021,40,-65,-6
19,476,-4,1010,28,32,7
20,47,80,866,8,90,15
21,-449,167,922,6,65,19
22,-521,-19,924,-89,-10,6
23,-147,-148,942,-4,-90,-12
24,359,-131,1003,15,-91,-10
25,566,-51,1118,45,-11,4
26,220,25,1004,-5,73,9
27,-247,152,762,20,76,18
28,-544,89,860,-68,29,18
29,-361,-98,847,-49,-59,-5
30,177,-137,1027,10,-107,-10
31,552,-91,1075,37,-51,-1
32,415,-5,1004,10,39,7
33,-53,100,872,-3,78,16
34,-487,149,959,-16,62,25
35,-511,-63,832,-90,-21,7
36,-68,-141,958,9,-101,-8
37,424,-114,1000,23,-78,-3
38,571,-38,1083,30,0,10
39,161,64,966,7,74,18
40,-307,171,803,18,91,24
41,-570,37,889,-84,15,16
42,-305,-117,906,-26,-75,-3
43,245,-144,1041,9,-97,-7
44,567,-115,1089,36,-41,6
45,365,23,1024,32,48,21
46,-116,140,898,25,95,18
47,-500,105,916,-58,46,21
48,-495,-79,785,-59,-37,3
49,2,-136,1004,1,-97,-9
50,457,-134,963,19,-73,-1
51,548,-21,1056,39,8,12
52,123,97,936,9,78,14
53,-363,153,868,-16,78,20
54,-548,9,937,-76,-4,13
55,-257,-113,953,-12,-73,-5
56,287,-161,1003,2,-92,-7
57,555,-95,1098,45,-34,4
58,318,56,1046,27,63,14
59,-161,139,895,12,91,20
60,-508,92,869,-53,33,23
61,-453,-70,811,-50,-37,0
62,74,-146,1003,-1,-101,-11
63,497,-124,999,30,-70,-2
64,494,0,1015,37,28,12
65,70,97,920,6,86,15
66,-419,146,940,-19,61,21
67,-537,-12,926,-77,-5,9
68,-174,-135,952,-9,-84,-7
69,339,-156,995,8,-94,-6
70,558,-57,1097,52,-17,5
71,251,64,1051,4,69,16
72,-225,143,803,0,78,21
73,-546,77,864,-58,37,19
74,-376,-91,866,-43,-56,-3
75,158,-156,1025,2,-110,-9
76,542,-111,1050,39,-50,-1
77,429,13,1017,32,38,11
78,-25,106,894,4,84,13
79,-482,142,957,-12,63,20
80,-518,-40,852,-85,-22,4
81,-79,-143,955,0,-99,-9
82,406,-138,987,14,-81,-8
83,577,-36,1103,44,-6,2
84,182,53,961,-2,70,11
85,-294,161,799,16,87,21
86,-574,61,911,-73,20,12
87,-316,-115,906,-30,-75,-8
88,234,-146,1024,8,-96,-12
89,568,-80,1110,43,-43,-1
90,392,4,1036,11,47,11
91,-124,108,876,16,96,14
92,-508,137,945,-38,47,21
93,-501,-71,773,-80,-38,2
94,-3,-141,981,8,-95,-11
95,469,-105,987,25,-76,-1
96,563,-28,1050,25,8,7
97,122,68,909,9,87,16
98,-371,174,880,8,81,24
99,-560,12,943,-87,-4,12
100,-253,-137,935,-17,-74,-6
101,298,-141,1025,11,-99,-6
102,567,-85,1103,39,-33,5
103,312,35,1022,14,66,14
104,-175,135,891,7,85,19
105,-530,86,865,-55,32,22
106,-439,-98,793,-58,-43,-1
107,97,-133,1015,23,-100,-10
108,516,-115,1014,20,-67,-1
109,476,-8,997,36,30,10
110,48,113,912,14,90,17
111,-442,150,925,-13,64,21
112,-529,-26,916,-80,-8,7
113,-153,-131,961,-2,-90,-11
114,363,-157,989,2,-94,-9
115,559,-59,1109,52,-11,3
116,228,59,1022,1,68,12
117,-246,153,789,3,74,18
118,-549,72,863,-65,34,16
119,-360,-83,877,-34,-59,-4
120,180,-143,1019,-2,-107,-10
121,560,-106,1064,36,-47,-1
122,420,6,1030,22,41,11
123,-64,104,877,6,87,16
124,-493,132,946,-21,61,24
125,-511,-51,834,-80,-26,5
126,-57,-136,976,7,-100,-10
127,433,-135,972,11,-78,-5
128,570,-19,1096,45,1,4
129,163,67,943,3,78,15
130,-314,149,783,6,91,23
131,-579,45,912,-70,10,14
132,-293,-124,921,-32,-79,-7
133,252,-167,1029,6,-96,-11
134,568,-80,1109,50,-41,0
135,367,19,1018,8,49,10
136,-140,107,869,4,92,16
137,-520,129,916,-31,42,23
138,-487,-71,776,-68,-44,0
139,39,-151,983,5,-93,-10
140,481,-108,984,34,-75,-4
141,536,-14,1053,31,12,5
142,95,60,861,3,88,12
143,-398,168,862,4,71,20
144,-551,16,956,-79,-10,8
145,-219,-146,933,-22,-77,-11
146,328,-129,1016,27,-95,-8
147,568,-57,1124,39,-28,3
148,279,21,1003,5,73,14
149,-207,147,827,25,85,21
150,-534,109,853,-54,30,21
151,-414,-103,791,-66,-46,-1
152,122,-132,1015,22,-106,-9
153,534,-87,1032,27,-61,-1
154,464,-16,1001,14,36,12
155,12,105,876,9,87,18
156,-466,164,946,-10,62,25
157,-516,-62,882,-101,-12,9
158,-122,-141,966,15,-95,-9
159,381,-135,1002,4,-90,-4
160,562,-62,1094,41,-6,9
161,195,58,982,0,69,16
162,-262,165,764,10,76,23
163,-556,47,839,-80,30,18
164,-333,-100,879,-25,-70,-4
165,213,-140,1046,3,-105,-7
166,560,-115,1072,38,-41,4
167,372,20,1005,24,42,13
168,-85,109,855,3,83,16
169,-496,114,918,-32,57,24
170,-504,-60,805,-65,-33,5
171,-22,-130,987,6,-101,-9
172,446,-125,956,19,-72,-3
173,551,-19,1082,41,3,12
174,141,70,896,8,78,18
175,-328,152,784,4,84,23
176,-557,25,900,-81,2,15
177,-265,-108,946,-17,-77,-4
178,266,-142,1028,5,-91,-7
179,556,-84,1100,43,-35,9
180,330,46,996,18,55,19
181,-148,127,856,9,93,19
182,-498,76,857,-56,36,23
183,-464,-83,786,-49,-38,1
184,53,-151,996,0,-96,-9
185,476,-124,970,32,-70,1
186,497,16,1026,41,19,15
187,86,104,865,0,85,19
188,-396,146,861,-13,66,22
189,-530,4,940,-73,-6,10
190,-197,-131,969,-16,-78,-6
191,328,-177,982,1,-96,-6
192,542,-66,1124,57,-20,10
193,246,48,1006,1,66,16
194,-212,121,767,1,73,19
195,-529,81,832,-46,30,22
196,-379,-77,844,-44,-49,0
197,142,-143,1004,6,-108,-9
198,542,-96,1037,40,-56,3
199,426,13,1017,24,38,17
200,-20,100,852,-6,77,17
201,-465,135,928,-10,60,26
202,-506,-40,873,-83,-14,10
203,-94,-150,963,2,-97,-5
204,397,-139,973,15,-81,-1
205,546,-18,1101,49,0,18
206,185,70,939,-2,70,21
207,-261,155,736,18,84,21
208,-554,56,860,-78,22,17
209,-309,-111,902,-32,-72,-4
210,224,-155,1035,2,-98,-9
211,551,-80,1109,53,-40,6
212,364,21,987,8,44,20
213,-106,118,840,22,94,16
214,-485,120,905,-44,48,21
215,-490,-80,779,-73,-37,2
216,4,-139,978,6,-94,-10
217,448,-117,966,17,-73,-1
218,539,-24,1062,30,5,10
219,106,77,854,8,81,14
220,-353,164,807,-4,78,21
221,-547,-2,911,-85,-5,11
222,-244,-128,954,-10,-74,-7
223,293,-138,1020,8,-93,-8
224,555,-87,1105,42,-33,4
225,300,36,997,9,61,13
226,-185,137,840,8,83,18
227,-508,83,841,-58,27,22
228,-441,-92,777,-54,-40,-2
229,90,-131,1015,19,-97,-11
230,509,-114,993,22,-67,-2
231,476,-5,1003,37,31,12
232,53,108,864,16,87,17
233,-427,149,897,-18,59,22
234,-524,-24,911,-78,-9,7
235,-148,-121,978,3,-85,-9
236,360,-158,992,2,-92,-7
237,545,-59,1101,51,-10,6
238,220,64,1006,14,75,13
239,-239,150,751,3,78,18
240,-543,69,828,-59,32,13
241,-351,-78,872,-37,-60,-8
242,186,-148,1017,-5,-107,-13
243,548,-104,1058,40,-48,-5
244,410,14,1017,22,41,4
245,-70,86,841,-12,82,14
246,-496,132,923,-5,64,20
247,-503,-40,842,-76,-28,3
248,-49,-138,965,2,-102,-10
249,434,-128,971,15,-75,-8
250,567,-13,1102,43,-1,0
251,154,35,912,-19,72,10
252,-323,147,749,23,86,23
253,-572,64,896,-73,11,13
254,-284,-128,906,-32,-80,-8
255,263,-158,1031,11,-94,-10
256,568,-54,1125,56,-36,0
257,359,0,991,-9,52,9
258,-153,93,807,25,97,18
259,-519,146,912,-27,39,22
260,-473,-84,761,-81,-43,0
261,50,-155,975,9,-95,-11
262,484,-81,989,43,-71,-2
263,528,-20,1046,11,17,7
264,83,49,827,8,91,16
265,-400,191,846,16,71,25
266,-541,6,925,-96,-12,10
267,-205,-145,939,-13,-77,-5
268,339,-127,1028,20,-96,-5
269,555,-67,1121,34,-23,3
270,255,15,971,-3,70,10
271,-223,139,801,17,79,22
272,-524,100,834,-55,24,25
273,-399,-111,775,-62,-45,-1
274,140,-126,1019,29,-104,-9
275,532,-83,1018,28,-61,-2
276,448,-10,990,15,40,10
277,-5,100,835,9,85,15
278,-469,161,895,-14,55,23
279,-506,-55,880,-93,-12,6
280,-112,-148,968,12,-93,-10
281,399,-145,998,6,-88,-5
282,552,-69,1094,42,-1,10
283,179,38,946,12,78,18
284,-270,173,708,23,76,26
285,-546,73,813,-70,24,18
286,-310,-93,867,-31,-68,-5
287,221,-123,1060,6,-103,-8
288,556,-94,1069,31,-39,3
289,370,-4,972,9,45,14
290,-100,106,803,16,84,20
291,-497,115,895,-31,56,26
292,-484,-79,794,-72,-35,6
293,-6,-112,988,16,-99,-6
294,448,-113,951,8,-71,0
295,525,-17,1080,37,6,12
296,115,72,842,-7,73,16
297,-333,148,694,4,79,24
298,-543,9,843,-82,1,16
299,-239,-123,942,-9,-78,-4
300,288,-144,1030,5,-88,-5
301,544,-74,1110,51,-31,11
302,299,44,955,16,57,21
303,-172,118,772,12,91,20
304,-495,101,801,-45,30,22
305,-436,-84,756,-62,-43,0
306,68,-144,979,1,-90,-9
307,482,-98,942,29,-67,2
308,485,6,1000,22,19,16
309,66,77,765,-5,80,17
310,-387,150,753,-7,62,24
311,-509,1,880,-76,-13,13
312,-180,-137,968,-11,-75,-4
313,325,-150,998,13,-87,-1
314,516,-48,1111,50,-18,16
315,230,41,927,3,71,19
316,-197,119,685,15,74,22
317,-496,84,723,-46,24,24
318,-365,-98,784,-55,-44,1
319,144,-142,999,13,-99,-6
320,500,-77,1008,40,-52,8
321,408,11,962,20,39,20
322,3,88,728,5,80,19
323,-436,152,810,-11,49,26
324,-477,-49,872,-89,-15,9
325,-95,-158,946,5,-88,-10
326,369,-126,998,18,-83,-4
327,507,-36,1089,37,-3,12
328,166,42,872,-13,67,15
329,-247,165,604,27,68,17
330,-513,56,730,-75,23,16
331,-295,-114,845,-28,-64,-8
332,221,-127,1028,11,-100,-10
333,529,-75,1078,40,-38,2
334,347,-6,935,-7,40,9
335,-93,113,705,17,76,13
336,-476,154,834,-30,47,22
337,-458,-80,787,-86,-31,2
338,-10,-140,961,12,-98,-10
339,433,-108,949,14,-69,-2
340,513,-36,1065,19,6,9
341,113,50,779,2,75,14
342,-309,177,621,18,73,24
343,-528,25,771,-92,4,17
344,-232,-119,919,-14,-78,-5
345,287,-127,1049,-4,-91,-8
346,530,-79,1106,32,-28,7
347,296,6,918,6,56,18
348,-163,121,711,26,88,19
349,-487,101,799,-56,30,24
350,-429,-99,738,-61,-45,1
351,70,-124,1001,17,-91,-9
352,462,-102,918,23,-61,2
353,477,-9,1014,27,21,15
354,64,73,745,17,81,17
355,-361,149,680,2,71,24
356,-507,-3,840,-74,-15,9
357,-174,-129,961,-11,-75,-8
358,313,-140,1024,17,-83,-6
359,513,-61,1105,43,-21,6
360,235,36,924,-7,62,11
361,-212,113,718,4,72,14
362,-474,105,738,-40,16,19
363,-381,-86,754,-61,-44,-2
364,129,-141,981,9,-94,-14
365,483,-79,957,32,-58,-3
366,438,-1,973,19,33,10
367,7,55,714,7,85,15
368,-413,169,771,17,55,24
369,-478,-4,890,-88,-16,5
370,-128,-154,941,-5,-80,-12
371,362,-130,1003,18,-85,-4
372,501,-28,1108,40,-7,8
373,177,25,926,-16,73,15
374,-239,129,639,11,68,19
375,-491,96,746,-56,17,18
376,-331,-122,787,-71,-52,-3
377,186,-139,989,27,-98,-9
378,510,-65,1022,34,-47,1
379,386,-11,962,6,41,11
380,-40,80,694,-13,73,11
381,-456,170,816,9,47,25
382,-456,-55,855,-100,-18,8
383,-66,-158,956,14,-91,-11
384,390,-117,994,10,-79,-5
385,502,-33,1099,45,6,12
386,138,32,888,-15,71,15
387,-271,161,601,37,67,24
388,-494,67,720,-69,22,16
389,-280,-121,835,-38,-66,-8
390,230,-132,1031,13,-100,-7
391,520,-68,1062,36,-31,6
392,330,-10,939,6,45,11
393,-116,93,708,26,81,18
394,-463,147,833,-1,54,23
395,-436,-91,811,-95,-35,2
396,-6,-153,952,22,-95,-8
397,415,-99,973,20,-65,-1
398,496,-29,1081,29,6,9
399,93,42,829,10,78,17
400,-287,185,585,41,76,26
401,-507,49,748,-84,8,15
402,-232,-141,870,-34,-78,-8
403,265,-118,1057,22,-88,-8
404,515,-66,1098,35,-29,8
405,291,-4,930,1,52,17
406,-141,108,692,39,87,22
407,-466,134,821,-26,42,25
408,-420,-94,754,-80,-41,-1
409,42,-123,992,21,-89,-9
410,436,-96,932,8,-63,2
411,482,-14,1053,32,16,12
412,60,56,793,1,75,13
413,-330,155,623,21,75,22
414,-501,22,799,-76,-6,12
415,-193,-130,931,-19,-78,-6
416,295,-138,1031,3,-84,-7
417,510,-65,1116,46,-26,6
418,255,15,928,-5,54,10
419,-181,104,689,1,74,15
420,-474,116,795,-35,26,24
421,-401,-88,750,-66,-48,-2
422,91,-141,996,11,-85,-11
423,454,-83,927,29,-57,-1
424,463,3,1040,16,18,10
425,26,38,741,-8,80,12
426,-364,163,671,18,61,18
427,-488,26,847,-88,-22,6
428,-155,-143,939,-22,-77,-12
429,316,-128,1025,21,-79,-6
430,500,-47,1138,42,-20,5
431,221,-5,905,-7,68,9
432,-215,114,699,37,84,17
433,-464,123,778,-28,16,23
434,-374,-112,718,-74,-43,-4
435,130,-135,1015,25,-89,-13
436,475,-64,956,31,-59,-1
437,435,-1,1006,7,32,10
438,0,41,725,-16,76,13
439,-393,174,746,11,48,21
440,-473,0,870,-92,-22,8
441,-125,-167,941,-14,-77,-8
442,347,-131,1020,27,-79,-3
443,485,-36,1132,43,-9,12
444,182,17,927,-3,73,17
445,-228,124,700,31,75,21
446,-460,107,758,-38,14,22
447,-340,-124,743,-77,-46,-1
448,165,-134,1022,32,-92,-8
449,480,-62,984,28,-51,3
450,390,-1,974,5,38,13
451,-26,68,747,8,78,12
452,-410,168,784,0,45,20
453,-445,-35,882,-90,-18,6
454,-90,-153,958,-2,-81,-12
455,350,-118,1015,15,-77,-9
456,473,-48,1114,37,-3,2
457,149,17,938,-18,66,3
458,-242,143,663,19,62,11
459,-456,94,744,-50,9,10
460,-306,-122,762,-61,-47,-13
461,188,-120,1039,34,-93,-15
462,480,-69,1000,26,-44,-5
463,365,-25,967,9,46,0
464,-57,58,718,26,83,10
465,-436,183,826,21,45,18
466,-437,-51,863,-98,-16,-1
467,-68,-149,957,16,-88,-15
468,371,-96,1018,19,-76,-10
469,488,-43,1095,24,2,0
470,141,16,940,3,75,8
471,-251,151,647,29,68,20
472,-478,76,736,-52,20,13
473,-288,-118,807,-50,-60,-10
474,214,-121,1043,18,-96,-10
475,500,-67,1025,25,-38,-1
476,348,-16,974,5,41,6
477,-83,76,737,-5,77,15
478,-453,162,859,7,42,21
479,-423,-67,860,-99,-28,3
480,-34,-153,972,19,-89,-9
481,401,-106,1003,11,-74,-5
482,482,-29,1095,37,6,5
483,110,21,964,-29,68,9
484,-298,150,648,21,57,20
485,-481,78,777,-68,11,14
486,-247,-123,829,-46,-64,-8
487,247,-128,1053,19,-99,-11
488,507,-58,1043,35,-29,1
489,332,0,983,-3,47,6
490,-125,83,742,-16,69,12
491,-465,152,886,4,42,21
492,-417,-75,841,-95,-31,1
493,0,-163,958,16,-95,-9
494,411,-98,1003,24,-64,-3
495,484,-22,1107,34,11,6
496,66,10,929,-28,66,8
497,-309,160,643,29,61,24
498,-481,77,808,-69,10,15
499,-222,-134,854,-43,-74,-7
500,260,-125,1063,28,-88,-7
501,504,-54,1078,32,-24,5
502,306,-17,983,-9,46,9
503,-149,78,756,6,74,17
504,-468,163,904,3,42,25
505,-407,-90,797,-101,-38,1
506,29,-144,969,30,-91,-8
507,419,-78,995,19,-59,1
508,484,-27,1089,20,9,6
509,68,25,912,-15,71,10
510,-309,167,670,33,67,21
511,-489,50,826,-81,3,11
512,-210,-142,874,-33,-77,-10
513,278,-124,1069,25,-84,-13
514,509,-72,1086,35,-26,-1
515,272,-13,969,0,49,6
516,-180,97,772,23,80,14
517,-464,144,907,-17,36,18
518,-402,-97,782,-83,-44,-8
519,52,-130,1003,31,-90,-16
520,438,-87,973,17,-57,-9
521,476,-20,1089,23,11,-4
522,52,39,897,-2,74,4
523,-332,170,693,30,67,14
524,-497,38,835,-82,-5,1
525,-192,-131,890,-20,-79,-16
526,301,-114,1072,19,-81,-15
527,502,-64,1092,30,-25,-7
528,269,-5,970,1,53,1
529,-172,101,745,17,81,14
530,-467,140,884,-21,31,17
531,-408,-90,768,-84,-47,-8
532,69,-128,1006,23,-89,-12
533,444,-85,958,18,-60,-4
534,481,-24,1087,17,15,3
535,41,32,843,-3,77,13
536,-350,171,696,26,67,19
537,-491,27,859,-84,-12,5
538,-176,-133,923,-18,-77,-10
539,311,-117,1066,17,-80,-9
540,509,-61,1097,32,-24,0
541,265,1,981,-4,56,8
542,-209,103,780,15,82,17
543,-483,123,874,-33,25,19
544,-392,-100,754,-71,-49,-4
545,94,-143,1010,17,-85,-10
546,455,-91,960,24,-57,-1
547,465,-13,1073,20,20,5
548,22,33,830,-4,80,16
549,-362,173,728,28,64,22
550,-484,26,900,-80,-19,7
551,-155,-150,922,-23,-74,-7
552,322,-118,1048,26,-79,-5
553,501,-49,1115,36,-21,2
554,234,-12,969,-16,60,8
555,-233,104,783,22,80,17
556,-467,129,889,-30,18,21
557,-369,-111,748,-75,-48,-4
558,119,-130,1019,30,-85,-13
559,450,-68,974,23,-56,-4
560,450,-14,1052,10,25,3
561,2,46,841,-5,76,12
562,-383,180,797,20,54,20
563,-472,5,914,-88,-22,4
564,-131,-153,933,-14,-75,-12
565,335,-119,1039,23,-79,-9
566,489,-51,1116,34,-17,1
567,216,-3,971,-16,63,7
568,-235,133,818,22,73,17
569,-456,121,881,-43,9,18
570,-351,-116,745,-74,-47,-5
571,136,-118,1030,33,-86,-12
572,471,-71,986,15,-54,-4
573,420,-25,1019,7,30,2
574,-25,53,820,-2,77,11
575,-394,165,816,3,47,20
576,-450,-11,925,-85,-22,3
577,-115,-140,950,-5,-75,-11
578,349,-113,1036,16,-80,-7
579,484,-57,1101,28,-9,0
580,191,13,995,-14,66,7
581,-248,127,819,16,68,15
582,-465,99,854,-44,9,16
583,-336,-112,753,-63,-46,-7
584,164,-114,1040,29,-90,-13
585,466,-76,994,15,-51,-6
586,400,-27,1002,7,34,0
587,-20,62,822,1,74,10
588,-400,165,853,4,44,19
589,-449,-28,922,-90,-20,1
590,-103,-129,957,10,-76,-13
591,362,-108,1029,9,-80,-10
592,477,-63,1094,26,-4,0
593,157,22,1002,-3,67,5
594,-257,123,781,7,63,16
595,-460,87,823,-44,8,14
596,-317,-105,790,-53,-48,-8
597,184,-122,1047,24,-93,-12
598,480,-80,988,20,-45,-4
599,386,1,1008,17,40,2
600,-42,64,835,-14,75,11
601,-429,153,870,8,42,18
602,-439,-23,921,-79,-20,1
603,-77,-141,958,3,-82,-10
604,370,-124,1010,7,-78,-7
605,478,-42,1108,40,0,3
606,151,29,1022,-16,68,8
607,-256,131,758,7,62,19
608,-463,100,847,-44,11,16
609,-295,-113,808,-66,-51,-5
610,200,-134,1032,19,-94,-7
611,483,-74,1023,27,-40,0
612,356,-17,988,4,42,7
613,-76,56,819,-6,74,12
614,-440,171,905,10,39,20
615,-423,-36,922,-88,-22,3
616,-45,-159,947,4,-86,-10
617,380,-109,1023,20,-74,-7
618,466,-48,1090,24,5,1
619,117,10,1038,-8,68,7
620,-283,146,756,21,56,18
621,-466,86,843,-47,12,9
622,-260,-114,819,-50,-59,-13
623,225,-101,1058,34,-95,-14
624,490,-56,1028,18,-32,-4
625,335,-21,977,-2,44,-1
626,-93,66,809,-2,73,9
627,-451,159,922,9,41,15
628,-409,-67,878,-92,-27,-5
629,-17,-143,959,19,-91,-13
630,396,-83,1025,19,-67,-10
631,470,-42,1089,20,8,-3
632,89,18,995,4,75,6
633,-298,164,699,30,62,16
634,-460,69,808,-63,15,6
635,-242,-125,835,-46,-66,-12
636,239,-118,1068,23,-91,-13
637,492,-77,1047,21,-28,-5
638,329,-29,973,11,46,2
639,-114,95,798,23,78,12
640,-452,158,911,7,45,16
641,-417,-67,833,-98,-32,-2
642,-14,-127,977,22,-90,-10
643,396,-101,1001,2,-65,-8
644,479,-48,1089,29,6,1
645,92,17,976,-2,76,11
646,-286,156,685,35,68,21
647,-478,51,830,-69,10,11
648,-241,-124,869,-31,-67,-7
649,248,-118,1072,19,-90,-9
650,503,-73,1055,29,-29,0
651,310,0,1000,13,50,7
652,-145,86,796,-1,76,17
653,-465,144,916,1,39,20
654,-400,-80,825,-93,-36,2
655,33,-147,973,20,-92,-8
656,416,-98,995,19,-61,-2
657,480,-19,1093,34,11,6
658,61,46,954,-21,70,9
659,-310,163,700,23,61,21
660,-485,51,852,-77,3,10
661,-209,-133,883,-29,-75,-11
662,285,-134,1064,15,-87,-12
663,501,-69,1076,40,-22,-2
664,268,0,993,-3,47,4
665,-186,78,783,4,73,14
666,-457,149,921,-9,36,17
667,-388,-65,813,-82,-44,-4
668,59,-144,981,12,-91,-12
669,430,-91,983,22,-54,-4
670,465,-5,1095,24,13,2
671,46,33,909,-14,75,12
672,-335,157,714,32,68,20
673,-484,51,877,-76,-8,10
674,-180,-143,890,-34,-76,-7
675,301,-126,1058,23,-76,-7
676,497,-52,1104,36,-22,2
677,248,-6,984,-5,59,12
678,-199,97,772,24,85,22
679,-454,155,927,-13,27,24
680,-376,-99,774,-94,-47,2
681,85,-144,994,15,-84,-7
682,440,-68,982,19,-56,1
683,458,-30,1071,7,20,9
684,11,25,868,0,80,16
685,-358,170,739,36,61,24
686,-474,14,881,-94,-15,9
687,-157,-145,917,-12,-77,-5
688,314,-107,1065,18,-80,-4
689,494,-63,1107,26,-18,6
690,239,-14,968,-10,55,9
691,-202,106,782,18,72,15
692,-465,124,895,-35,21,21
693,-378,-107,743,-75,-49,2
694,102,-115,1026,31,-87,-4
695,446,-62,964,15,-54,2
696,457,-20,1057,12,19,9
697,8,42,826,-9,74,15
698,-354,168,769,13,60,23
699,-475,5,906,-89,-20,13
700,-160,-131,936,-7,-71,0
701,314,-98,1065,17,-77,4
702,502,-66,1092,18,-22,10
703,246,6,989,5,67,18
704,-210,116,817,23,83,25
705,-466,109,878,-38,19,29
706,-387,-101,747,-70,-41,9
707,110,-121,1024,17,-86,4
708,455,-95,978,12,-57,11
709,447,-24,1037,20,29,23
710,23,58,857,20,88,32
711,-356,161,859,15,59,37
712,-457,-4,939,-87,-13,27
713,-161,-111,968,2,-70,10
714,292,-129,1015,1,-76,20
715,466,-67,1079,36,-14,39
716,235,50,1058,12,59,39
717,-186,100,858,-5,72,33
718,-420,71,895,-44,21,40
719,-364,-88,804,-55,-39,27
720,78,-142,1013,10,-81,21
721,380,-109,978,21,-52,37
722,390,16,1040,38,16,42
723,50,69,918,-31,55,36
724,-315,139,915,-4,43,38
725,-423,5,969,-77,-14,35
726,-174,-141,948,-16,-64,23
727,252,-135,985,14,-76,36
728,433,-35,1099,49,-22,52
729,222,53,1053,14,57,55
730,-134,118,840,23,68,45
731,-397,77,880,-46,23,43
732,-348,-115,807,-66,-29,32
733,64,-152,1008,17,-85,32
734,386,-89,1002,37,-53,49
735,389,26,1022,30,21,56
736,64,104,906,-13,57,44
737,-305,161,933,-14,44,42
738,-414,-29,936,-98,-6,41
739,-156,-157,947,-12,-65,32
740,251,-137,976,8,-71,42
741,431,-35,1095,47,-15,59
742,205,44,1064,8,57,59
743,-136,135,824,27,65,51
744,-393,77,885,-57,26,50
745,-329,-126,827,-65,-31,39
746,73,-150,1019,16,-83,43
747,384,-95,1023,34,-46,60
748,366,12,1014,24,19,64
749,45,106,915,-17,51,53
750,-320,145,991,-13,45,55
751,-405,-65,906,-100,-10,57
752,-141,-164,943,2,-69,54
753,252,-137,981,13,-68,57
754,422,-44,1065,57,-12,66
755,189,71,1090,33,57,64
756,-152,167,845,19,59,54
757,-411,56,903,-77,23,53
758,-300,-132,869,-50,-46,43
759,100,-138,1029,21,-82,41
760,398,-93,1035,30,-41,55
761,340,31,1028,42,24,57
762,-2,131,931,7,63,47
763,-342,118,997,-17,47,45
764,-406,-86,854,-98,-14,37
765,-85,-160,955,15,-77,28
766,298,-122,975,21,-65,36
767,445,0,1083,55,-7,44
768,154,80,1064,-8,48,32
769,-198,146,802,9,60,33
770,-446,40,915,-80,18,31
771,-269,-142,904,-41,-57,17
772,173,-172,1015,11,-80,16
773,433,-71,1065,58,-33,31
774,313,46,1041,19,26,31
775,-64,104,875,-6,64,24
776,-395,130,979,-23,42,26
777,-419,-74,819,-88,-29,14
778,-23,-165,969,7,-84,6
779,352,-131,963,28,-57,17
780,459,10,1094,51,-1,29
781,118,68,981,-15,53,18
782,-253,151,792,12,65,21
783,-462,51,935,-76,4,19
784,-235,-130,927,-36,-68,2
785,227,-165,1020,7,-78,1
786,460,-69,1081,51,-28,17
787,293,50,1045,10,35,18
788,-115,95,832,-11,70,13
789,-423,123,911,-27,34,18
790,-414,-58,801,-70,-39,-2
791,24,-164,974,-11,-81,-13
792,395,-120,967,32,-58,-6
793,469,-28,1062,29,5,4
794,74,34,882,0,67,8
795,-313,175,786,34,67,11
796,-466,71,951,-65,-13,2
797,-204,-123,935,-40,-64,-13
798,259,-130,1015,10,-81,-13
799,481,-66,1117,33,-34,-6
800,281,-22,992,-5,56,-1
801,-159,102,807,35,81,12
802,-439,144,887,-15,23,16
803,-405,-80,761,-80,-34,-5
804,64,-124,1006,15,-84,-15
805,439,-79,996,18,-67,-11
806,459,-45,1015,10,24,-4
807,55,25,834,24,86,9
808,-370,172,849,40,57,18
809,-482,12,940,-82,-8,0
810,-174,-135,938,-10,-70,-15
811,312,-101,1025,20,-89,-13
812,501,-75,1106,15,-14,-7
813,220,-26,986,14,71,0
814,-211,119,772,50,73,12
815,-473,110,828,-33,23,9
816,-360,-94,780,-62,-42,-9
817,142,-104,1028,32,-99,-13
818,482,-76,1015,14,-50,-11
819,416,-40,982,14,35,-6
820,-1,54,811,17,81,5
821,-420,178,891,19,52,12
822,-460,-18,906,-93,-15,-3
823,-107,-122,962,12,-85,-17
824,357,-103,1016,9,-76,-17
825,495,-66,1092,26,-6,-10
826,181,11,999,12,73,1
827,-242,146,703,18,69,15
828,-488,89,801,-50,21,8
829,-314,-98,834,-51,-57,-11
830,185,-122,1047,18,-95,-11
831,506,-79,1030,25,-44,-4
832,383,-25,986,9,42,-1
833,-74,69,790,2,80,5
834,-458,156,895,11,44,13
835,-454,-36,869,-90,-24,0
836,-48,-141,952,7,-89,-10
837,392,-114,997,10,-74,-9
838,508,-47,1097,35,2,-3
839,120,2,955,-22,68,4
840,-282,145,648,34,64,15
841,-501,83,824,-57,16,9
842,-264,-118,850,-41,-69,-9
843,243,-125,1047,20,-95,-11
844,522,-59,1083,39,-31,-2
845,329,-4,978,-4,43,3
846,-120,85,762,2,74,14
847,-469,158,906,-2,46,19
848,-427,-79,802,-95,-36,0
849,18,-148,985,17,-95,-6
850,423,-93,974,23,-60,0
851,493,-28,1085,22,9,4
852,76,13,871,-21,69,10
853,-330,171,684,43,72,25
854,-505,61,842,-81,-2,15
855,-204,-143,879,-34,-79,-4
856,292,-104,1066,27,-84,-6
857,516,-48,1103,28,-26,4
858,269,-26,951,-17,52,8
859,-203,93,748,20,83,21
860,-478,142,891,-22,32,27
861,-405,-112,753,-85,-49,2
862,84,-129,998,29,-89,-5
863,456,-67,961,19,-58,4
864,471,-20,1066,14,18,7
865,31,31,787,-5,78,14
866,-358,183,702,38,66,25
867,-492,18,857,-91,-17,10
868,-152,-161,915,-24,-76,-5
869,320,-105,1054,28,-82,-2
870,500,-51,1126,33,-20,6
871,234,-31,904,-17,64,7
872,-227,118,726,45,81,22
873,-469,130,804,-30,18,24
874,-369,-122,709,-79,-47,1
875,131,-109,1013,31,-89,-4
876,470,-58,946,16,-57,3
877,437,-29,975,8,32,9
878,-3,32,710,-6,73,17
879,-381,179,721,20,54,26
880,-462,-5,850,-89,-19,11
881,-127,-136,942,-2,-74,-4
882,331,-97,1025,12,-83,0
883,487,-54,1119,27,-12,13
884,179,10,902,-20,66,13
885,-226,130,678,5,60,16
886,-450,93,727,-51,11,22
887,-341,-109,729,-62,-44,3
888,165,-113,1019,28,-85,0
889,465,-87,941,16,-45,11
890,369,8,959,16,34,23
891,-16,67,705,25,88,23
892,-383,156,754,3,43,29
893,-437,-26,870,-93,-18,13
894,-99,-149,959,-2,-77,-2
895,329,-139,986,7,-76,8
896,442,-40,1105,45,-1,32
897,150,45,934,-23,54,26
898,-203,107,628,-15,50,21
899,-428,73,692,-43,11,29
900,-299,-89,781,-49,-42,12
901,164,-147,1002,13,-83,15
902,435,-73,970,43,-41,36
903,337,37,975,21,34,45
904,-12,54,690,11,78,38
905,-371,142,803,22,45,45
906,-404,-43,875,-86,-11,36
907,-92,-160,968,2,-74,30
908,296,-118,971,17,-70,49
909,421,-3,1116,48,-4,70
910,152,45,950,-1,66,65
911,-163,125,654,27,60,50
912,-401,51,736,-56,22,46
913,-287,-124,804,-50,-45,30
914,122,-131,1018,18,-80,38
915,401,-48,1016,43,-39,55
916,329,27,998,12,25,55
917,3,83,758,-17,59,35
918,-335,129,862,-10,39,36
919,-383,-94,861,-101,-16,35
920,-102,-136,968,24,-68,33
921,269,-86,993,13,-65,37
922,414,-23,1083,37,-5,47
923,155,48,968,-34,43,34
924,-173,144,661,-2,42,26
925,-410,31,766,-87,16,25
926,-272,-133,844,-34,-44,10
927,149,-133,1033,20,-86,12
928,415,-60,1045,45,-34,25
929,326,17,987,2,27,22
930,-37,100,781,-28,47,11
931,-375,128,879,-20,39,15
932,-405,-83,832,-89,-16,2
933,-57,-139,970,23,-86,-11
934,337,-129,977,7,-62,-3
935,445,-50,1087,45,4,9
936,103,53,955,-10,48,3
937,-228,151,655,19,57,10
938,-451,58,786,-66,20,6
939,-244,-85,889,-21,-65,-15
940,212,-109,1062,10,-84,-14
941,480,-83,1054,25,-29,-5
942,311,-14,983,2,33,-4
943,-112,76,759,1,67,4
944,-444,135,873,0,45,10
945,-409,-58,812,-76,-33,-7
946,4,-116,977,20,-90,-14
947,402,-107,975,5,-59,-11
948,477,-27,1094,34,6,-8
949,82,26,918,-24,63,-3
950,-295,150,645,27,64,12
951,-488,72,816,-62,4,4
952,-212,-97,893,-29,-75,-11
953,274,-116,1057,7,-83,-10
954,509,-72,1083,27,-27,-5
955,277,-20,963,-12,44,-2
956,-174,58,732,-4,72,8
957,-461,133,874,-4,38,11
958,-398,-56,808,-70,-43,-6
959,55,-124,992,14,-89,-12
960,426,-91,975,16,-55,-7
961,474,-21,1095,21,12,-4
962,44,6,871,-31,66,0
963,-333,148,661,31,65,12
964,-484,59,834,-68,-5,6
965,-180,-114,896,-26,-79,-11
966,295,-112,1052,16,-77,-10
967,496,-47,1100,33,-23,-3
968,258,-17,964,-26,47,1
969,-185,66,731,0,71,11
970,-464,134,878,-10,29,17
971,-385,-90,769,-78,-48,-4
972,85,-120,1001,25,-87,-9
973,435,-57,969,20,-53,-3
974,451,-15,1090,10,18,2
975,17,6,817,-38,62,5
976,-347,159,670,25,59,15
977,-466,23,842,-88,-14,7
978,-148,-134,924,-13,-78,-9
979,309,-98,1066,21,-76,-9
980,487,-36,1101,30,-20,-1
981,228,-14,956,-29,51,1
982,-218,85,733,4,66,10
983,-461,123,859,-32,19,15
984,-358,-112,742,-75,-50,-5
985,112,-117,1013,23,-85,-11
986,436,-57,955,18,-52,-5
987,434,-12,1056,8,20,0
988,11,23,783,-22,67,4
989,-340,157,669,24,56,15
990,-465,14,823,-84,-21,5
991,-137,-130,928,-14,-78,-8
992,307,-94,1048,13,-77,-8
993,476,-46,1115,25,-20,0
994,205,-22,910,-14,60,5
995,-221,97,692,32,72,10
996,-440,120,809,-32,17,16
997,-349,-112,730,-73,-49,-6
998,123,-108,1032,29,-84,-11
999,440,-54,937,17,-52,-4
1000,429,-27,1020,0,24,4
1001,-15,16,717,22,87,14
1002,-354,169,657,40,55,22
1003,-442,4,808,-84,-19,9
1004,-104,-126,936,-5,-73,-5
1005,322,-89,1044,20,-71,-2
1006,464,-39,1096,33,-10,6
1007,186,-13,882,-25,61,12
1008,-240,101,685,25,71,23
1009,-444,108,767,-40,9,26
1010,-322,-111,715,-67,-48,5
1011,142,-105,994,21,-80,-1
1012,435,-63,908,10,-49,7
1013,400,-22,984,-5,29,12
1014,-12,11,660,0,75,15
1015,-340,150,633,30,47,26
1016,-440,11,778,-65,-17,14
1017,-97,-111,926,-16,-73,1
1018,304,-98,1005,19,-68,3
1019,449,-38,1113,37,-8,14
1020,188,-29,845,-23,62,16
1021,-222,94,624,26,70,21
1022,-435,110,721,-30,8,26
1023,-328,-105,698,-76,-49,9
1024,129,-105,959,32,-76,2
1025,442,-61,926,14,-51,13
1026,385,-6,972,3,30,31
1027,1,42,657,34,87,26
1028,-330,147,619,16,52,30
1029,-434,-7,774,-81,-18,21
1030,-111,-116,930,-5,-68,10
1031,285,-123,993,0,-76,25
1032,423,-35,1110,38,-11,50
1033,174,27,864,-4,61,47
1034,-180,94,641,26,67,35
1035,-389,67,707,-43,14,42
1036,-334,-110,716,-48,-35,30
1037,81,-128,960,14,-80,38
1038,375,-67,898,29,-47,61
1039,370,33,1014,22,19,73
1040,51,52,701,19,71,60
1041,-257,131,674,14,51,57
1042,-410,-26,798,-89,-10,54
1043,-163,-131,931,2,-60,49
1044,218,-109,997,12,-70,68
1045,397,-33,1107,45,-20,90
1046,226,37,922,11,48,89
1047,-89,107,736,33,66,82
1048,-352,95,791,-46,20,77
1049,-369,-114,724,-74,-27,58
1050,18,-122,985,29,-69,60
1051,337,-70,933,27,-55,75
1052,385,11,1014,27,11,80
1053,102,63,798,-3,53,65
1054,-222,115,733,-5,52,52
1055,-414,-42,846,-94,-7,45
1056,-195,-121,958,11,-55,45
1057,193,-111,998,10,-69,58
1058,394,-38,1093,55,-25,74
1059,245,58,956,-10,34,64
1060,-91,110,765,-15,53,47
1061,-362,37,807,-52,25,43
1062,-360,-114,758,-47,-31,33
1063,25,-110,1003,25,-70,41
1064,345,-88,917,22,-53,60
1065,397,38,1035,41,9,68
1066,90,98,821,3,60,50
1067,-239,107,721,-11,55,39
1068,-424,-34,857,-68,-2,34
1069,-178,-114,967,-1,-61,29
1070,205,-133,998,3,-70,47
1071,395,-30,1090,60,-24,63
1072,235,81,957,18,47,60
1073,-113,111,774,17,70,42
1074,-368,45,809,-63,22,38
1075,-356,-108,781,-44,-33,26
1076,49,-135,1005,12,-71,31
1077,349,-91,918,29,-54,46
1078,392,46,1057,39,11,52
1079,72,85,802,-32,46,35
1080,-256,120,722,-6,55,25
1081,-420,-13,861,-81,-12,18
1082,-161,-133,965,-10,-62,9
1083,224,-155,998,-3,-67,22
1084,405,-42,1099,64,-23,37
1085,230,36,940,2,49,29
1086,-134,88,748,24,68,16
1087,-384,89,835,-39,24,18
1088,-359,-82,791,-45,-34,4
1089,68,-132,1001,3,-75,1
1090,364,-89,922,26,-51,19
1091,395,25,1062,34,13,27
1092,63,52,800,-20,57,16
1093,-268,128,706,9,57,13
1094,-423,16,874,-78,-14,5
1095,-160,-122,938,-12,-61,-8
1096,245,-121,1029,4,-68,-4
1097,426,-65,1088,39,-22,8
1098,228,19,946,5,50,9
1099,-142,106,766,32,69,3
1100,-404,105,836,-35,28,9
1101,-368,-73,787,-52,-36,-8
1102,61,-106,1002,2,-81,-13
1103,400,-89,940,10,-55,-7
1104,440,-35,1056,17,15,-6
1105,47,22,795,-12,62,-2
1106,-306,156,687,36,61,5
1107,-463,23,826,-84,-15,-5
1108,-168,-112,919,-13,-71,-16
1109,282,-98,1042,7,-76,-15
1110,468,-64,1094,30,-25,-12
1111,254,-31,917,-9,58,-8
1112,-181,99,734,50,78,2
1113,-449,120,826,-37,23,5
1114,-382,-87,751,-59,-40,-12
1115,83,-89,1003,23,-86,-18
1116,419,-75,946,7,-58,-14
1117,457,-59,1047,6,19,-10
1118,35,25,773,-15,58,-5
1119,-330,169,656,28,62,7
1120,-469,8,781,-82,-9,-3
1121,-163,-106,925,-2,-77,-17
1122,286,-93,1066,0,-81,-15
1123,486,-81,1070,23,-24,-9
1124,239,-25,904,-1,53,-3
1125,-191,103,715,34,76,7
1126,-448,111,819,-38,25,9
1127,-376,-78,774,-60,-48,-11
1128,87,-83,1017,20,-86,-11
1129,423,-92,920,1,-53,-7
1130,443,-37,1075,15,16,-3
1131,28,29,792,22,83,8
1132,-314,149,607,28,60,14
1133,-472,19,760,-88,-12,6
1134,-161,-96,897,0,-71,-6
1135,301,-109,1022,3,-76,-5
1136,483,-59,1077,31,-21,-2
1137,240,3,938,-5,58,4
1138,-176,79,708,20,75,10
1139,-456,120,840,-29,26,12
1140,-361,-81,770,-65,-42,-11
1141,88,-114,983,20,-84,-16
1142,402,-94,937,11,-48,-13
1143,427,-27,1077,16,17,-11
1144,10,7,794,-3,72,-4
1145,-312,155,613,41,54,3
1146,-446,38,748,-83,-5,-5
1147,-155,-110,884,-8,-71,-16
1148,275,-101,1044,11,-76,-14
1149,470,-51,1071,31,-23,-8
1150,236,-15,915,-11,51,-7
1151,-167,87,696,25,70,4
1152,-421,137,829,-17,25,7
1153,-363,-91,767,-86,-39,-11
1154,42,-124,952,23,-83,-11
1155,384,-84,962,12,-53,-8
1156,428,-40,1077,13,9,-5
1157,50,13,831,2,72,4
1158,-278,170,610,54,57,10
1159,-436,44,718,-81,1,1
1160,-176,-118,825,-29,-70,-12
1161,256,-86,1027,17,-80,-8
1162,463,-50,1048,23,-23,-1
1163,259,-41,893,-18,45,4
1164,-147,94,711,25,67,15
1165,-416,141,832,-8,37,20
1166,-349,-95,796,-77,-29,3
1167,31,-109,957,30,-83,-2
1168,375,-84,984,2,-52,2
1169,418,-47,1076,15,13,9
1170,52,20,891,-8,70,14
1171,-283,157,641,22,48,21
1172,-429,27,732,-79,4,18
1173,-183,-114,812,-23,-62,2
1174,241,-86,1025,20,-79,2
1175,449,-64,1005,17,-23,9
1176,269,-29,932,-6,46,13
1177,-127,84,734,24,72,20
1178,-419,137,848,-5,36,25
1179,-354,-78,836,-79,-29,8
1180,18,-98,973,26,-83,3
1181,362,-95,997,-6,-55,6
1182,412,-49,1072,26,12,14
1183,72,24,947,-4,70,15
1184,-260,121,674,6,49,20
1185,-432,36,762,-59,7,18
1186,-219,-93,805,-30,-58,1
1187,221,-90,1021,17,-82,0
1188,447,-71,971,18,-27,5
1189,304,-12,971,4,39,8
1190,-89,53,757,-1,70,13
1191,-406,133,843,7,38,22
1192,-384,-41,878,-68,-26,4
1193,-25,-95,972,21,-78,-2
1194,352,-96,1004,-7,-65,3
1195,428,-37,1085,31,5,9
1196,107,33,973,2,74,14
1197,-249,92,741,6,57,20
1198,-430,54,797,-43,5,16
1199,-261,-78,807,-40,-54,2
1200,201,-99,1006,11,-84,2
1201,444,-56,966,22,-33,7
1202,338,-1,1015,-1,36,11
1203,-66,25,778,-20,69,15
1204,-384,125,836,7,39,23
1205,-404,-14,915,-64,-26,13
1206,-56,-116,965,-3,-74,4
1207,334,-106,1017,7,-66,6
1208,431,-44,1098,32,-2,14
1209,147,6,967,-8,67,18
1210,-238,91,795,26,67,23
1211,-428,86,862,-35,7,24
1212,-286,-85,789,-54,-48,7
1213,156,-104,1022,16,-81,7
1214,426,-77,960,16,-40,17
1215,363,-12,1039,14,32,29
1216,-12,66,883,10,69,24
1217,-335,131,847,-13,45,24
1218,-419,-14,934,-65,-15,18
1219,-110,-98,973,0,-69,9
1220,289,-129,1014,-4,-66,20
1221,418,-55,1085,42,-8,38
1222,194,44,1032,4,52,37
1223,-179,79,854,-2,65,27
1224,-400,70,916,-34,16,28
1225,-326,-78,803,-53,-43,16
1226,96,-115,1021,12,-73,18
1227,368,-79,946,20,-46,38
1228,391,26,1091,27,15,46
1229,36,57,949,-22,62,33
1230,-278,99,856,0,53,27
1231,-422,-11,950,-61,-6,23
1232,-155,-111,949,-8,-64,13
1233,245,-124,1011,-1,-70,25
1234,415,-44,1083,48,-18,38
1235,237,45,1051,14,51,33
1236,-143,80,900,2,71,21
1237,-396,66,955,-34,24,22
1238,-365,-73,810,-48,-36,9
1239,68,-110,1024,10,-77,4
1240,369,-108,948,5,-50,20
1241,402,23,1100,51,15,28
1242,46,63,978,2,68,22
1243,-289,96,836,-9,54,20
1244,-432,29,953,-55,-11,15
1245,-158,-92,951,-20,-66,-4
1246,252,-151,1007,-11,-69,-5
1247,438,-70,1075,46,-22,9
1248,228,42,1041,27,52,10
1249,-146,68,879,6,71,5
1250,-418,90,946,-22,26,9
1251,-363,-49,849,-52,-41,-8
1252,58,-119,991,-3,-81,-16
1253,392,-117,967,12,-55,-11
1254,427,-16,1112,36,12,-4
1255,37,30,946,13,76,3
1256,-308,145,761,23,54,10
1257,-459,69,910,-61,-8,2
1258,-171,-93,907,-28,-71,-14
1259,280,-123,1050,-7,-81,-13
1260,470,-71,1081,29,-25,-8
1261,253,-23,987,-4,51,-1
1262,-171,57,810,17,73,10
1263,-449,131,937,-1,31,13
1264,-363,-54,827,-64,-38,-6
1265,74,-105,997,11,-86,-9
1266,413,-77,979,9,-53,-7
1267,442,-35,1112,10,15,-3
1268,27,-3,921,-28,63,1
1269,-308,148,734,35,57,13
1270,-451,49,876,-66,1,3
1271,-162,-106,898,-21,-73,-14
1272,277,-92,1060,11,-77,-15
1273,470,-54,1071,23,-19,-8
1274,243,-30,981,-24,44,-4
1275,-172,65,789,-2,62,3
1276,-431,132,922,1,32,9
1277,-360,-76,807,-79,-42,-10
1278,55,-101,993,19,-86,-16
1279,385,-78,985,6,-51,-14
1280,434,-48,1094,11,12,-9
1281,42,7,906,-15,63,-2
1282,-288,161,682,43,57,11
1283,-438,41,805,-83,0,0
1284,-188,-103,872,-21,-68,-18
1285,248,-88,1063,11,-79,-19
1286,466,-71,1049,14,-25,-12
1287,264,-46,939,-1,47,-7
1288,-147,85,754,33,73,6
1289,-420,145,888,-5,34,3
1290,-370,-73,819,-89,-35,-15
1291,11,-95,987,29,-83,-19
1292,378,-83,992,-3,-56,-17
1293,440,-65,1098,15,7,-12
1294,61,6,912,9,73,-3
1295,-259,162,657,42,56,7
1296,-439,42,760,-80,6,-1
1297,-218,-84,849,-23,-64,-17
1298,226,-89,1017,7,-82,-18
1299,460,-84,1024,12,-29,-13
1300,296,-41,933,1,45,-7
1301,-108,76,738,29,73,4
1302,-424,132,839,-5,33,5
1303,-366,-61,822,-80,-31,-12
1304,-2,-96,972,25,-81,-15
1305,356,-95,989,-4,-59,-14
1306,420,-47,1076,25,7,-7
1307,62,4,923,-3,69,0
1308,-259,135,634,32,53,11
1309,-407,43,746,-61,9,1
1310,-206,-97,833,-29,-60,-13
1311,219,-96,1017,13,-83,-10
1312,444,-66,998,21,-24,-3
1313,279,-15,952,3,39,2
1314,-91,73,750,3,68,11
1315,-401,132,837,3,35,16
1316,-361,-62,837,-78,-27,-2
1317,3,-117,945,14,-79,-8
1318,342,-92,990,4,-57,-8
1319,404,-22,1080,32,9,1
1320,68,27,948,-25,60,5
1321,-260,118,667,15,49,15
1322,-404,61,773,-48,7,10
1323,-198,-104,807,-39,-53,-7
1324,223,-101,1008,18,-80,-7
1325,430,-55,984,17,-25,-2
1326,275,-22,951,-2,44,2
1327,-94,50,739,1,65,10
1328,-378,157,822,2,27,16
1329,-353,-44,860,-89,-28,1
1330,-11,-124,944,22,-71,-9
1331,339,-95,1005,-2,-59,-5
1332,396,-44,1085,26,7,3
1333,80,-2,925,-12,71,11
1334,-251,111,708,39,56,18
1335,-398,73,780,-52,1,12
1336,-220,-109,772,-55,-53,-6
1337,208,-94,1000,21,-79,-9
1338,415,-41,966,21,-27,0
1339,301,-30,967,-13,38,6
1340,-86,38,735,2,63,13
1341,-362,160,800,18,33,21
1342,-353,-51,858,-90,-25,2
1343,-41,-120,952,21,-69,-6
1344,320,-84,1022,3,-63,-4
1345,397,-54,1086,24,2,5
1346,109,5,909,-5,66,11
1347,-236,141,751,32,52,20
1348,-403,84,806,-65,-1,12
1349,-253,-131,726,-65,-49,-7
1350,185,-80,1023,38,-78,-3
1351,418,-67,934,-4,-34,2
1352,336,-52,983,-1,36,8
1353,-64,47,758,11,67,19
1354,-352,169,753,23,44,25
1355,-371,-18,846,-88,-25,10
1356,-55,-83,958,19,-67,-1
1357,314,-82,1033,-17,-64,1
1358,423,-87,1088,24,-2,9
1359,142,-35,902,-12,66,15
1360,-233,93,764,45,63,19
1361,-414,62,807,-59,5,23
1362,-288,-87,763,-29,-47,4
1363,153,-60,1020,15,-79,-1
1364,412,-55,916,5,-40,4
1365,376,-17,1034,4,30,9
1366,-40,28,786,-15,60,14
1367,-335,125,682,11,51,23
1368,-414,-13,824,-63,-20,11
1369,-86,-104,925,2,-70,0
1370,308,-88,1039,7,-66,-2
1371,436,-58,1088,24,-13,3
1372,181,-5,924,-8,58,9
1373,-222,99,745,38,72,18
1374,-428,94,826,-37,14,17
1375,-311,-92,772,-56,-48,-7
1376,135,-91,1020,18,-78,-9
1377,403,-77,903,2,-45,-5
1378,389,-18,1091,18,25,3
1379,-29,23,821,1,75,10
1380,-315,147,649,19,45,16
1381,-417,17,781,-84,-16,6
1382,-104,-105,897,-10,-72,-12
1383,299,-104,1025,-2,-71,-10
1384,437,-53,1084,37,-11,-2
1385,182,-13,932,-18,55,5
1386,-202,77,728,15,59,12
1387,-418,133,860,-29,18,17
1388,-306,-82,804,-73,-43,-2
1389,99,-107,999,12,-82,-9
1390,387,-79,959,7,-43,-5
1391,389,-48,1086,6,19,4
1392,-5,8,865,-25,60,7
1393,-282,147,652,34,47,19
1394,-407,29,751,-77,-3,7
1395,-133,-110,859,-11,-68,-11
1396,263,-86,1029,11,-71,-9
1397,433,-44,1060,22,-17,0
1398,220,-44,926,-28,44,3
1399,-169,77,736,14,60,11
1400,-400,145,867,-1,28,16
1401,-317,-86,806,-87,-31,-1
1402,45,-105,966,28,-80,-10
1403,366,-68,991,3,-48,-7
1404,393,-42,1076,9,14,-1
1405,37,-1,896,-27,62,4
1406,-278,146,658,31,48,18
1407,-399,38,737,-71,5,8
1408,-169,-107,839,-22,-58,-9
1409,234,-84,1028,18,-78,-10
1410,442,-57,1016,13,-21,-2
1411,253,-37,950,-12,42,3
1412,-99,79,774,4,62,10
1413,-403,136,853,-6,31,21
1414,-360,-64,844,-76,-27,-2
1415,-3,-112,966,22,-76,-8
1416,344,-93,1004,-2,-57,-5
1417,407,-56,1091,20,9,4
1418,62,8,963,-15,62,9
1419,-248,140,755,18,50,17
1420,-398,68,802,-58,5,13
1421,-233,-71,825,-35,-50,-6
1422,211,-89,1023,2,-80,-10
1423,432,-87,973,2,-28,-3
1424,312,-36,983,-3,41,3
1425,-64,38,816,2,66,12
1426,-380,134,852,-3,36,18
1427,-371,-11,904,-67,-22,1
1428,-49,-85,987,7,-72,-13
1429,340,-104,1009,-12,-62,-10
1430,421,-62,1105,28,3,-4
1431,129,4,1012,-16,66,6
1432,-242,89,845,12,62,15
1433,-417,77,873,-36,9,10
1434,-277,-67,804,-43,-45,-8
1435,162,-103,1036,5,-77,-14
1436,417,-88,965,6,-36,-8
1437,351,-30,1060,12,33,1
1438,-47,26,908,-2,73,14
1439,-357,138,899,10,44,19
1440,-394,27,959,-60,-21,4
1441,-86,-87,963,-12,-67,-13
1442,310,-120,1017,-8,-64,-10
1443,430,-76,1092,22,-5,-2
1444,169,-21,1031,-6,61,8
1445,-227,68,916,12,66,17
1446,-409,117,981,-14,9,19
1447,-290,-48,822,-54,-45,-2
1448,137,-89,1025,9,-73,-9
1449,394,-87,985,0,-39,-6
1450,369,-58,1073,7,27,2
1451,-26,0,992,-1,68,14
1452,-341,120,912,33,49,22
1453,-410,35,957,-57,-19,10
1454,-113,-86,932,-7,-68,-8
1455,290,-108,1040,1,-69,-9
1456,436,-81,1061,24,-13,-1
1457,193,-14,1045,4,50,9
1458,-209,77,927,10,63,16
1459,-411,122,1008,-13,14,21
1460,-318,-50,833,-55,-47,1
1461,113,-88,1013,14,-79,-10
1462,404,-101,996,3,-45,-3
1463,395,-47,1074,20,21,5
1464,-3,34,1029,16,73,17
1465,-330,139,897,24,54,23
1466,-423,56,934,-58,-17,14
1467,-121,-81,932,-24,-70,-3
1468,292,-122,1037,-4,-69,-6
1469,451,-95,1060,21,-15,5
1470,194,-23,1015,8,55,15
1471,-205,85,939,20,65,22
1472,-432,122,1004,-17,20,24
1473,-321,-52,847,-55,-48,2
1474,99,-107,1003,11,-82,-7
1475,401,-125,995,2,-47,-3
1476,401,-57,1077,36,18,8
1477,4,41,1038,5,65,19
1478,-317,144,869,20,50,24
1479,-432,54,930,-53,-9,12
1480,-144,-84,917,-17,-72,-5
1481,275,-128,1042,0,-74,-7
1482,445,-113,1049,27,-20,2
1483,233,-23,1014,24,46,12
1484,-170,92,931,24,63,21
1485,-428,136,991,-3,25,24
1486,-336,-32,857,-58,-42,4
1487,52,-95,996,10,-85,-4
1488,372,-132,994,-2,-53,-5
1489,431,-66,1076,40,10,4
1490,42,37,1048,28,68,16
1491,-288,141,818,20,55,23
1492,-439,74,924,-42,-1,16
1493,-187,-64,917,-20,-70,-2
1494,246,-120,1038,-8,-82,-5
1495,459,-101,1042,26,-29,2
1496,276,-22,1002,14,42,12
1497,-127,68,893,8,71,20
1498,-426,138,983,15,33,27
1499,-387,-16,883,-66,-33,8
1500,17,-100,968,11,-86,-4
1501,379,-107,1010,6,-61,-3
1502,452,-73,1092,18,6,6
1503,81,4,1048,-9,62,13
1504,-278,123,782,29,55,24
1505,-473,66,902,-50,7,17
1506,-226,-77,880,-21,-66,-2
1507,227,-105,1041,9,-90,-7
1508,475,-80,1048,24,-30,2
1509,315,-21,994,13,43,10
1510,-106,74,871,24,77,17
1511,-437,134,949,11,39,24
1512,-396,-43,864,-71,-31,7
1513,0,-109,975,19,-87,-6
1514,374,-109,1010,7,-62,-3
1515,455,-46,1104,30,4,5
1516,90,22,1010,-13,64,10
1517,-276,132,724,13,54,23
1518,-462,75,849,-58,5,17
1519,-221,-84,861,-33,-64,-3
1520,224,-107,1039,14,-88,-8
1521,466,-63,1035,25,-30,0
1522,310,-35,966,-9,40,7
1523,-91,57,782,7,69,14
1524,-429,151,902,18,41,25
1525,-388,-46,863,-78,-25,7
1526,-18,-113,974,17,-84,-7
1527,358,-90,1013,11,-64,-3
1528,447,-61,1100,17,5,5
1529,107,2,950,22,76,12
1530,-250,136,689,21,57,22
1531,-443,59,790,-59,14,17
1532,-243,-88,847,-31,-56,-3
1533,196,-101,1032,17,-87,-6
1534,464,-85,1018,16,-33,1
1535,313,-33,955,-1,37,7
1536,-70,88,785,-10,59,11
1537,-415,140,870,0,42,22
1538,-406,-42,876,-71,-23,4
1539,-39,-106,975,12,-85,-5
1540,346,-115,998,5,-69,-4
1541,434,-67,1088,29,1,8
1542,112,17,960,31,73,15
1543,-226,120,673,21,55,18
1544,-441,48,767,-40,14,16
1545,-266,-80,846,-22,-56,-2
1546,177,-105,1027,12,-89,-5
1547,442,-84,996,30,-39,8
1548,331,19,968,22,29,18
1549,-20,100,781,-12,61,13
1550,-383,121,819,-16,40,21
1551,-425,-28,861,-69,-19,10
1552,-65,-117,964,3,-80,-3
1553,315,-147,976,2,-70,4
1554,425,-44,1086,45,-5,25
1555,158,59,981,3,59,21
1556,-184,104,633,-2,56,15
1557,-427,33,728,-46,20,18
1558,-288,-88,817,-30,-47,1
1559,152,-131,999,0,-87,-1
1560,419,-79,973,42,-40,20
1561,342,56,969,33,29,29
1562,15,98,739,-6,69,16
1563,-354,104,767,-19,45,20
1564,-411,-40,854,-66,-9,13
1565,-101,-139,964,1,-70,2
1566,287,-155,972,6,-70,13
1567,403,-24,1078,58,-7,33
1568,154,84,947,-9,50,25
1569,-153,111,645,-11,53,14
1570,-397,43,729,-46,24,15
1571,-288,-83,829,-33,-40,4
1572,125,-127,1006,-8,-82,2
1573,401,-88,956,34,-39,19
1574,333,35,963,28,27,30
1575,22,85,732,14,73,16
1576,-336,119,773,-30,41,18
1577,-402,-44,867,-76,-10,13
1578,-110,-131,963,5,-68,-1
1579,279,-119,981,9,-67,6
1580,413,-30,1094,38,-8,24
1581,149,67,929,-18,48,17
1582,-163,130,672,-13,53,12
1583,-397,45,705,-66,19,18
1584,-299,-100,804,-41,-40,-2
1585,134,-126,989,-6,-82,-6
1586,413,-90,971,28,-42,4
1587,340,-10,953,14,31,8
1588,7,65,711,35,78,6
1589,-344,152,753,-5,41,12
1590,-412,-30,817,-85,-12,1
1591,-101,-116,947,4,-68,-15
1592,293,-110,999,5,-67,-11
1593,424,-60,1080,21,-6,-5
1594,150,13,906,-15,56,-3
1595,-190,116,645,7,54,8
1596,-418,67,712,-48,15,7
1597,-305,-88,761,-43,-41,-14
1598,158,-93,994,6,-85,-15
1599,422,-58,953,13,-40,-8
1600,361,-18,939,6,34,-3
1601,1,40,683,-2,71,7
1602,-361,148,732,7,44,13
1603,-416,-29,800,-93,-15,-1
1604,-94,-114,956,-1,-70,-11
1605,301,-87,1013,2,-69,-10
1606,442,-48,1061,11,-5,-2
1607,143,4,888,1,70,4
1608,-215,111,656,31,68,13
1609,-410,76,726,-57,14,13
1610,-291,-92,758,-58,-42,-7
1611,158,-96,1012,25,-76,-9
1612,435,-67,935,3,-38,-6
1613,364,-18,976,3,33,0
1614,-17,34,709,-16,73,7
1615,-364,149,755,6,48,18
1616,-415,-29,827,-83,-16,3
1617,-90,-113,946,5,-67,-9
1618,317,-95,1014,-1,-67,-8
1619,446,-62,1087,21,-3,1
1620,150,-3,929,-28,61,3
1621,-221,98,729,6,63,17
1622,-428,81,794,-33,12,17
1623,-302,-80,767,-55,-41,-5
1624,161,-94,1013,7,-79,-8
1625,436,-64,959,9,-40,-4
1626,378,-22,1008,-4,35,3
1627,-23,14,788,-17,72,12
1628,-375,140,818,16,47,18
1629,-417,-11,874,-91,-23,1
1630,-87,-102,968,2,-69,-12
1631,308,-86,1031,1,-69,-9
1632,447,-59,1101,17,-4,-2
1633,147,-27,956,-1,71,5
1634,-243,82,813,27,68,15
1635,-424,91,880,-38,10,14
1636,-296,-92,785,-55,-44,-6
1637,137,-93,1039,24,-82,-15
1638,426,-63,975,6,-44,-10
1639,360,-33,1036,3,31,-2
1640,-23,27,861,4,68,9
1641,-343,144,866,17,46,19
1642,-405,-3,940,-67,-19,2
1643,-101,-110,956,-4,-69,-15
1644,296,-103,1030,6,-66,-13
1645,433,-86,1097,25,-11,-5
1646,174,-25,999,-7,51,3
1647,-202,109,864,31,63,13
1648,-412,103,919,-33,7,14
1649,-312,-77,781,-52,-45,-8
1650,131,-70,1047,25,-76,-13
1651,407,-77,967,-1,-48,-8
1652,380,-31,1046,19,29,0
1653,6,37,904,13,75,13
1654,-343,143,852,16,46,20
1655,-419,-2,920,-74,-19,6
1656,-103,-97,950,-4,-70,-8
1657,303,-95,1043,4,-69,-7
1658,441,-77,1086,13,-9,0
1659,177,-5,989,0,54,7
1660,-227,107,849,16,64,19
1661,-432,99,904,-42,7,17
1662,-303,-89,779,-55,-48,-4
1663,145,-96,1056,18,-80,-9
1664,413,-97,949,-1,-44,-4
1665,384,-38,1048,13,27,6
1666,-30,41,844,-4,62,15
1667,-361,158,797,21,47,24
1668,-406,5,890,-78,-25,9
1669,-79,-102,966,1,-73,-7
1670,311,-115,1040,-1,-67,-4
1671,445,-73,1087,34,-8,5
1672,158,-3,958,9,64,14
1673,-247,92,785,32,68,22
1674,-421,107,860,-24,12,24
1675,-298,-77,788,-50,-48,1
1676,151,-117,1039,10,-80,-7
1677,412,-88,938,17,-44,1
1678,379,-22,1057,21,28,11
1679,-43,24,796,28,81,23
1680,-349,160,747,31,45,27
1681,-407,23,883,-64,-24,10
1682,-84,-121,954,-17,-71,-7
1683,305,-115,1033,12,-70,-8
1684,436,-62,1112,32,-13,4
1685,165,-37,910,-1,61,15
1686,-238,92,735,55,70,21
1687,-423,129,839,-22,8,22
1688,-304,-94,777,-60,-50,-1
1689,137,-118,1019,20,-82,-12
1690,416,-61,952,25,-53,-4
1691,377,-47,1024,6,24,5
1692,-27,5,728,19,69,18
1693,-337,181,670,50,49,24
1694,-404,27,815,-85,-27,7
1695,-88,-121,939,3,-71,-8
1696,295,-91,1048,19,-68,-5
1697,442,-53,1105,36,-16,3
1698,170,-37,875,-25,49,4
1699,-211,95,672,33,60,15
1700,-417,124,773,-21,14,21
1701,-321,-98,749,-57,-48,-1
1702,120,-103,1007,32,-77,-7
1703,399,-46,930,25,-51,-2
1704,401,-27,1026,0,18,3
1705,-1,2,693,-22,56,7
1706,-308,163,596,36,49,18
1707,-430,10,746,-76,-15,12
1708,-128,-127,898,-9,-73,-4
1709,270,-75,1032,21,-73,-4
1710,440,-41,1115,23,-21,6
1711,213,-40,852,-14,55,11
1712,-182,97,642,63,75,18
1713,-419,104,735,-47,16,23
1714,-346,-116,707,-59,-44,1
1715,91,-91,985,37,-79,-6
1716,396,-58,934,15,-53,0
1717,413,-29,1007,13,21,6
1718,30,46,698,5,60,11
1719,-283,159,566,16,56,20
1720,-434,-16,697,-76,-11,9
1721,-141,-112,889,-3,-72,-7
1722,270,-94,1011,9,-70,-6
1723,438,-50,1065,30,-24,2
1724,227,0,875,-11,51,6
1725,-166,95,618,34,73,13
1726,-425,101,734,-39,23,21
1727,-351,-107,717,-58,-37,-2
1728,84,-112,978,26,-77,-6
1729,384,-70,901,22,-51,-1
1730,407,6,1015,16,18,5
1731,35,44,711,-33,53,6
1732,-282,138,554,11,57,18
1733,-430,5,711,-74,-4,11
1734,-135,-116,894,-18,-70,-4
1735,253,-107,1025,7,-71,-4
1736,441,-38,1084,36,-20,6
1737,218,-9,888,-7,48,9
1738,-170,79,640,10,72,16
1739,-417,112,761,-20,31,20
1740,-356,-99,736,-76,-41,-1
1741,66,-113,984,20,-79,-7
1742,378,-71,928,10,-51,-1
1743,411,-6,1072,17,12,2
1744,36,30,753,2,76,9
1745,-267,131,555,28,61,15
1746,-434,0,700,-81,-4,7
1747,-156,-126,860,-13,-68,-10
1748,256,-98,1014,12,-73,-8
1749,438,-40,1072,31,-22,-2
1750,232,-5,901,-14,49,1
1751,-151,81,636,36,74,10
1752,-411,114,766,-23,29,17
1753,-351,-97,737,-74,-34,-7
1754,50,-105,970,26,-79,-12
1755,371,-74,932,9,-51,-5
1756,410,-14,1054,10,9,-1
1757,25,12,779,-3,72,5
1758,-258,140,572,40,57,13
1759,-415,36,703,-75,4,7
1760,-158,-109,860,-24,-63,-10
1761,235,-98,1023,10,-73,-8
1762,437,-53,1062,23,-25,-1
1763,232,-28,925,-16,44,1
1764,-121,83,678,31,71,14
1765,-393,129,799,-14,34,16
1766,-357,-91,747,-88,-31,-2
1767,26,-97,964,19,-77,-9
1768,353,-83,960,-2,-51,-6
1769,417,-45,1059,18,12,1
1770,52,16,861,-12,66,7
1771,-249,139,627,35,59,21
1772,-416,32,726,-78,6,11
1773,-185,-88,865,-19,-60,-11
1774,227,-86,1049,1,-77,-11
1775,429,-73,1025,12,-21,-2
1776,250,-25,954,-5,42,1
1777,-120,75,758,-13,56,12
1778,-388,126,883,-1,39,19
1779,-344,-63,828,-74,-27,-3
1780,12,-86,991,17,-75,-10
1781,337,-79,983,-9,-50,-5
1782,406,-40,1086,15,8,1
1783,69,13,946,-45,53,4
1784,-239,117,682,12,51,21
1785,-413,24,771,-59,14,13
1786,-204,-89,858,-19,-53,-7
1787,217,-96,1042,0,-75,-9
1788,432,-71,1012,18,-23,-1
1789,281,-13,973,-6,39,3
1790,-108,64,791,-17,60,11
1791,-410,115,892,-6,35,23
1792,-355,-45,857,-62,-20,1
1793,0,-95,994,15,-76,-8
1794,354,-108,980,-9,-56,-5
1795,410,-43,1109,30,8,2
1796,71,0,986,-27,63,9
1797,-259,113,743,18,50,18
1798,-425,56,836,-39,10,14
1799,-208,-82,867,-28,-55,-7
1800,217,-100,1029,8,-80,-10
1801,434,-59,1022,26,-27,-7
1802,283,-19,991,-10,39,1
1803,-91,49,836,-8,62,9
1804,-407,136,917,15,32,16
1805,-355,-43,886,-74,-27,-2
1806,0,-123,968,14,-75,-16
1807,339,-103,1004,6,-58,-13
1808,404,-50,1102,28,5,-5
1809,69,-8,987,-24,57,0
1810,-254,124,767,35,47,12
1811,-406,89,857,-35,3,9
1812,-216,-81,830,-43,-52,-11
1813,188,-93,1040,16,-80,-14
1814,411,-61,1003,17,-33,-6
1815,292,-39,987,-8,32,1
1816,-61,48,819,-5,54,9
1817,-376,163,935,15,30,19
1818,-350,-50,910,-96,-25,1
1819,-42,-124,971,17,-71,-10
1820,319,-92,1013,7,-64,-9
1821,404,-70,1097,22,4,3
1822,97,5,990,24,69,12
1823,-221,145,798,28,48,19
1824,-395,77,855,-59,6,15
1825,-234,-103,799,-44,-46,-5
1826,192,-93,1045,22,-78,-6
1827,420,-82,979,6,-28,-1
1828,303,-29,981,14,37,7
1829,-56,56,819,6,66,17
1830,-376,150,876,17,36,23
1831,-361,-34,885,-80,-24,7
1832,-31,-97,977,20,-69,-5
1833,329,-78,1025,-4,-58,-5
1834,406,-57,1080,14,2,3
1835,92,10,966,-15,62,10
1836,-246,106,762,13,52,20
1837,-407,39,812,-59,-1,15
1838,-239,-112,801,-39,-47,-2
1839,184,-99,1041,24,-77,-3
1840,413,-74,970,13,-35,2
1841,313,-7,982,24,39,8
1842,-63,64,777,9,66,17
1843,-368,141,827,11,38,24
1844,-369,-32,882,-73,-24,5
1845,-47,-113,986,16,-71,-4
1846,317,-116,1006,-6,-62,-3
1847,405,-61,1082,41,1,8
1848,103,22,949,17,66,16
1849,-235,113,737,31,58,24
1850,-402,76,803,-46,3,20
1851,-268,-84,806,-42,-48,2
1852,178,-109,1032,22,-80,-1
1853,423,-80,946,13,-39,3
1854,341,-4,1002,16,27,10
1855,-36,35,741,-37,54,14
1856,-367,146,796,20,38,24
1857,-388,-7,889,-79,-29,9
1858,-72,-130,970,5,-69,-2
1859,312,-118,1010,10,-68,-1
1860,420,-51,1102,42,-6,8
1861,140,2,932,6,67,12
1862,-222,105,722,41,63,19
1863,-408,95,799,-16,12,18
1864,-285,-98,777,-51,-45,-2
1865,155,-115,1013,24,-82,-6
1866,422,-64,966,23,-42,2
1867,349,-13,991,21,32,7
1868,-21,38,753,20,76,17
1869,-362,163,796,18,38,19
1870,-397,-6,863,-82,-23,7
1871,-89,-123,965,2,-70,-8
1872,309,-108,1014,13,-70,-2
1873,427,-38,1106,30,-8,6
1874,150,9,934,-31,50,8
1875,-211,101,730,7,54,16
1876,-416,90,807,-37,6,17
1877,-289,-109,770,-66,-49,-2
1878,154,-118,1008,27,-77,-5
1879,415,-55,984,27,-45,2
1880,362,-6,1000,3,30,9
1881,-12,57,776,8,69,12
1882,-350,155,793,17,45,18
1883,-401,-37,868,-86,-21,8
1884,-94,-126,951,7,-67,-5
1885,296,-105,1038,7,-69,0
1886,421,-68,1081,33,-8,16
1887,153,42,953,36,70,21
1888,-209,120,777,36,68,17
1889,-403,50,803,-51,14,17
1890,-302,-102,782,-40,-41,-2
1891,143,-102,1030,18,-80,-4
1892,399,-89,961,14,-41,8
1893,348,18,1006,33,28,17
1894,3,85,807,30,76,16
1895,-339,118,769,-17,41,17
1896,-401,-32,886,-68,-17,5
1897,-101,-121,976,-2,-68,-8
1898,282,-125,1009,3,-68,-3
1899,417,-54,1096,38,-12,9
1900,163,57,949,13,57,11
1901,-202,114,772,9,62,11
1902,-401,61,801,-54,9,15
1903,-300,-74,792,-38,-43,-6
1904,138,-101,1035,2,-79,-10
1905,408,-89,948,6,-46,-4
1906,358,17,1017,24,29,0
1907,0,57,767,-1,73,11
1908,-339,127,759,-4,42,13
1909,-407,-5,870,-69,-16,-1
1910,-91,-117,982,-15,-66,-15
1911,293,-124,1002,1,-68,-10
1912,421,-36,1106,34,-7,-2
1913,160,15,928,-4,65,6
1914,-212,87,710,27,68,14
1915,-405,97,794,-36,12,12
1916,-289,-88,770,-61,-38,-7
1917,144,-113,1017,4,-77,-12
1918,404,-55,963,14,-42,-5
1919,362,-4,1001,0,32,1
1920,-11,30,735,25,83,12
1921,-346,142,758,9,46,19
1922,-392,-14,861,-82,-17,3
1923,-84,-123,970,-15,-67,-15
1924,301,-103,1016,2,-67,-13
1925,419,-37,1101,17,-6,-4
1926,149,0,929,2,73,4
1927,-217,109,726,46,71,12
1928,-396,96,797,-44,12,11
1929,-282,-119,757,-73,-37,-11
1930,147,-121,1022,7,-75,-16
1931,397,-62,976,13,-38,-8
1932,351,-30,987,-4,34,-1
1933,-14,38,782,47,86,10
1934,-343,163,809,22,46,16
1935,-392,-19,870,-89,-15,0
1936,-89,-123,963,-6,-65,-16
1937,292,-92,1028,7,-65,-11
1938,417,-62,1098,15,-5,-3
1939,153,-10,953,13,73,9
1940,-218,111,794,49,69,15
1941,-405,76,832,-40,13,14
1942,-303,-114,758,-54,-39,-10
1943,140,-102,1037,26,-77,-13
1944,416,-68,976,14,-43,-5
1945,362,-19,997,17,33,3
1946,-4,49,816,28,76,15
1947,-356,153,840,20,46,22
1948,-399,-22,894,-82,-21,4
1949,-84,-118,964,3,-69,-10
1950,315,-89,1028,12,-66,-6
1951,430,-50,1100,24,-3,3
1952,148,7,969,-14,57,10
1953,-228,112,804,16,59,18
1954,-415,68,840,-53,5,18
1955,-280,-111,776,-55,-48,-5
1956,163,-100,1034,32,-76,-12
1957,425,-81,981,10,-41,-3
1958,349,-17,996,12,28,6
1959,-36,61,813,-6,62,13
1960,-368,145,843,1,35,20
1961,-396,-39,902,-76,-27,1
1962,-73,-117,970,13,-69,-10
1963,326,-96,1026,11,-71,-6
1964,426,-60,1092,31,-6,4
1965,126,18,972,26,74,13
1966,-236,104,769,41,62,21
1967,-401,70,807,-28,7,16
1968,-281,-105,783,-44,-44,-4
1969,176,-107,1034,31,-83,-7
1970,422,-61,970,25,-39,-1
1971,338,-4,999,16,32,6
1972,-50,44,769,-22,54,11
1973,-370,143,819,5,34,23
1974,-382,-22,900,-76,-29,8
1975,-70,-119,978,11,-74,-6
1976,322,-102,1010,8,-67,-1
1977,422,-38,1097,34,-8,7
1978,124,17,954,11,67,16
1979,-228,92,711,26,62,24
1980,-402,78,790,-26,5,22
1981,-269,-108,777,-55,-45,1
1982,163,-116,1039,29,-82,-5
1983,421,-52,971,28,-41,2
1984,337,2,989,11,31,8
1985,-31,34,730,-29,57,13
1986,-370,152,795,15,34,20
1987,-384,-27,866,-83,-24,8
1988,-70,-143,963,4,-70,-4
1989,304,-87,1019,23,-69,-4
1990,423,-28,1103,26,-7,8
1991,120,1,945,11,74,14
1992,-219,109,685,52,62,24
1993,-411,73,743,-33,11,19
1994,-269,-120,766,-51,-46,-1
1995,170,-103,1011,40,-78,-3
1996,422,-33,997,33,-36,2
1997,330,-12,957,-6,31,6
1998,-38,45,720,-25,52,11
1999,-360,151,779,2,30,24
2000,-389,-58,839,-97,-27,9
2001,-61,-139,951,17,-71,-6
2002,318,-71,1020,16,-72,-1
2003,411,-20,1096,27,-2,11
2004,117,20,935,12,74,16
2005,-215,124,655,42,58,21
2006,-392,62,717,-41,12,19
2007,-256,-127,763,-55,-47,1
2008,180,-99,1042,44,-76,1
2009,425,-64,981,19,-32,11
2010,295,-6,940,9,32,25
2011,-42,92,744,-26,49,22
2012,-351,132,779,-25,30,26
2013,-367,-78,849,-89,-23,14
2014,-51,-125,998,21,-68,3
2015,292,-103,986,-4,-64,19
2016,372,-15,1079,43,0,38
2017,110,62,941,23,69,36
2018,-190,107,650,17,55,29
2019,-362,26,706,-48,17,28
2020,-243,-118,815,-36,-42,13
2021,146,-133,1028,25,-68,19
2022,368,-69,975,33,-30,36
2023,293,43,984,26,22,38
2024,-10,87,720,-44,44,25
2025,-316,118,799,-22,26,29
2026,-353,-67,846,-91,-12,21
2027,-77,-148,978,12,-63,12
2028,255,-123,966,-1,-63,32
2029,364,-3,1101,53,-5,48
2030,123,76,985,3,58,42
2031,-146,117,667,18,48,33
2032,-350,43,755,-54,14,34
2033,-257,-115,831,-38,-38,21
2034,117,-149,1019,11,-67,34
2035,355,-77,998,45,-35,53
2036,299,50,1022,28,20,56
2037,23,113,827,1,58,44
2038,-296,135,934,-15,37,44
2039,-363,-60,888,-87,-6,39
2040,-111,-150,957,3,-60,35
2041,237,-141,966,3,-60,54
2042,373,-29,1068,58,-9,70
2043,171,89,1079,-5,38,62
2044,-123,137,881,-5,49,49
2045,-363,46,926,-68,20,48
2046,-275,-126,889,-44,-36,42
2047,87,-152,1014,10,-69,51
2048,343,-103,1030,34,-38,68
2049,314,39,1045,48,23,75
2050,16,128,1009,12,58,60
2051,-306,104,1006,-32,41,49
2052,-354,-57,888,-73,-10,46
2053,-112,-138,936,-1,-62,46
2054,224,-142,994,8,-58,59
2055,377,-44,1050,49,-13,71
2056,160,94,1107,31,44,67
2057,-141,137,954,0,52,53
2058,-367,29,936,-65,16,47
2059,-254,-100,906,-34,-43,42
2060,96,-132,996,3,-67,50
2061,352,-94,1030,28,-37,60
2062,295,45,1049,47,22,59
2063,0,129,1009,-6,52,42
2064,-316,75,982,-38,38,32
2065,-341,-67,881,-61,-17,22
2066,-43,-125,959,2,-65,23
2067,277,-119,1008,11,-55,33
2068,392,-15,1062,42,-3,36
2069,120,83,1095,20,54,31
2070,-211,110,935,-17,53,20
2071,-406,5,921,-61,8,16
2072,-210,-117,923,-24,-52,8
2073,171,-150,1004,6,-69,10
2074,385,-84,1039,38,-29,24
2075,267,57,1087,46,32,25
2076,-83,105,970,-5,62,14
2077,-371,75,980,-25,32,11
2078,-358,-62,862,-59,-29,2
2079,12,-133,979,2,-73,-1
2080,334,-142,995,11,-52,7
2081,405,5,1064,56,5,18
2082,79,101,1069,4,53,8
2083,-265,109,909,-12,53,8
2084,-425,23,949,-54,-1,5
2085,-188,-99,943,-25,-63,-7
2086,232,-162,1005,-6,-72,-8
2087,423,-89,1052,41,-22,-2
2088,249,55,1077,44,43,3
2089,-140,104,881,5,72,2
2090,-392,111,928,-12,25,6
2091,-359,-62,824,-67,-38,-8
2092,55,-160,998,-5,-72,-17
2093,375,-117,959,25,-54,-14
2094,427,-18,1041,33,9,-15
2095,71,39,745,-19,54,-11
2096,-307,177,680,35,61,0
2097,-439,45,834,-61,-11,-12
2098,-172,-126,961,-27,-64,-28
2099,252,-139,1010,5,-74,-27
2100,449,-60,1109,37,-28,-21
2101,209,-8,870,12,63,-14
2102,-178,100,614,57,70,-7
2103,-415,128,681,-23,9,-5
2104,-335,-86,715,-62,-36,-24
2105,115,-132,954,14,-82,-32
2106,415,-39,957,38,-53,-26
2107,388,-24,895,1,24,-21
2108,25,28,612,-21,52,-12
2109,-335,187,683,33,43,2
2110,-415,-2,806,-94,-15,-16
2111,-99,-161,892,-9,-67,-31
2112,284,-84,975,31,-70,-26
2113,408,-26,1083,21,-8,-20
2114,141,-39,819,-10,64,-15
2115,-198,134,543,76,59,-9
2116,-378,76,624,-51,16,-16
2117,-270,-162,697,-63,-39,-30
2118,142,-106,932,52,-76,-27
2119,405,-16,960,38,-36,-24
2120,329,-34,854,-6,29,-24
2121,0,65,559,43,71,-16
2122,-340,171,707,23,40,-10
2123,-389,-76,814,-108,-13,-16
2124,-89,-142,909,24,-65,-21
2125,278,-60,992,23,-63,-15
2126,409,-32,1055,15,-9,-14
2127,139,18,821,5,62,-9
2128,-169,154,520,49,54,-1
2129,-383,37,653,-81,20,-5
2130,-250,-137,794,-41,-46,-19
2131,138,-104,1012,25,-76,-12
2132,409,-47,1042,27,-33,-7
2133,296,-18,898,0,29,-9
2134,-67,93,690,24,57,0
2135,-342,135,823,-8,42,-2
2136,-377,-101,806,-87,-16,-17
2137,-48,-125,941,24,-75,-16
2138,305,-75,944,6,-55,-9
2139,424,-26,1073,27,-3,-9
2140,108,25,852,-31,43,-14
2141,-193,143,574,32,52,0
2142,-401,21,737,-85,14,-4
2143,-226,-135,863,-19,-55,-14
2144,178,-107,1043,26,-69,-10
2145,415,-42,1073,38,-30,-5
2146,263,-9,934,-2,34,-3
2147,-106,77,716,26,68,4
2148,-364,125,860,-7,34,6
2149,-364,-117,759,-88,-30,-5
2150,-2,-110,977,36,-70,-5
2151,346,-47,925,18,-55,1
2152,427,7,1088,24,7,4
2153,79,30,834,-24,55,4
2154,-241,136,605,25,57,13
2155,-429,19,789,-77,1,10
2156,-188,-129,911,-15,-61,-5
2157,227,-107,1032,19,-67,-5
2158,435,-24,1099,42,-29,-1
2159,239,-1,932,-16,43,2
2160,-161,61,703,19,71,7
2161,-389,113,832,-17,22,14
2162,-346,-123,743,-84,-39,-3
2163,54,-133,963,21,-73,-11
2164,376,-29,930,36,-56,2
2165,420,24,1070,7,14,4
2166,46,23,756,-32,56,2
2167,-281,154,616,19,52,15
2168,-421,-2,792,-97,-13,9
2169,-152,-159,906,-19,-59,-4
2170,249,-85,1041,34,-66,0
2171,427,-15,1114,37,-20,5
2172,196,4,904,-16,52,4
2173,-183,103,706,29,70,13
2174,-384,102,774,-47,11,18
2175,-326,-151,716,-75,-35,-4
2176,98,-134,975,37,-66,-8
2177,391,-33,927,34,-51,0
2178,388,15,1024,6,21,5
2179,23,38,715,15,81,13
2180,-309,166,665,23,47,18
2181,-408,-25,803,-98,-13,5
2182,-119,-159,906,-2,-56,-9
2183,266,-81,1034,31,-68,-1
2184,423,-29,1110,25,-13,5
2185,167,-7,904,-10,66,7
2186,-197,108,674,47,69,13
2187,-389,72,735,-46,12,17
2188,-302,-150,700,-59,-33,-1
2189,128,-106,1012,45,-72,-6
2190,399,-37,933,24,-44,-1
2191,349,12,985,11,30,4
2192,-16,41,715,16,74,14
2193,-317,157,697,22,45,21
2194,-378,-46,830,-95,-16,5
2195,-95,-151,932,4,-61,-5
2196,273,-70,1028,25,-67,3
2197,408,-15,1093,26,-8,12
2198,150,32,914,-21,51,8
2199,-194,118,683,7,54,15
2200,-384,55,714,-66,5,20
2201,-289,-136,718,-63,-38,2
2202,137,-110,994,26,-75,1
2203,404,-63,919,8,-45,8
2204,337,5,978,6,28,8
2205,-2,52,675,7,65,11
2206,-317,138,702,4,34,21
2207,-383,-33,815,-71,-12,11
2208,-79,-118,953,8,-64,-1
2209,288,-107,986,4,-59,2
2210,398,-36,1108,42,-2,10
2211,126,7,916,-28,54,11
2212,-193,89,639,18,54,19
2213,-380,76,707,-47,3,23
2214,-269,-103,729,-58,-37,3
2215,146,-104,978,20,-72,0
2216,403,-43,943,23,-41,8
2217,322,1,980,-5,35,14
2218,-22,27,688,32,81,20
2219,-332,154,742,16,36,33
2220,-373,-24,837,-89,-15,17
2221,-76,-125,948,-1,-64,4
2222,288,-89,1010,2,-67,10
2223,405,-46,1116,17,-1,21
2224,127,-10,929,-3,67,21
2225,-196,114,697,49,63,27
2226,-394,84,741,-48,15,33
2227,-274,-109,747,-54,-40,12
2228,145,-95,1012,15,-78,9
2229,409,-63,957,6,-36,21
2230,330,-27,986,1,31,26
2231,-18,41,768,32,79,27
2232,-339,148,813,12,45,38
2233,-394,-36,881,-76,-13,27
2234,-98,-118,971,5,-65,13
2235,289,-108,1012,-4,-68,24
2236,407,-52,1102,32,-5,42
2237,151,31,997,18,68,38
2238,-160,98,795,25,64,38
2239,-386,58,848,-47,17,42
2240,-297,-76,798,-40,-33,22
2241,115,-101,1040,9,-75,23
2242,378,-77,973,12,-40,39
2243,350,18,1055,20,22,38
2244,39,42,951,1,72,31
2245,-331,114,1004,0,44,33
2246,-409,-22,947,-72,-10,28
2247,-130,-105,948,4,-62,15
2248,277,-118,992,-1,-68,26
2249,415,-48,1071,38,-10,41
2250,205,60,1115,3,50,40
2251,-170,89,941,-5,67,33
2252,-404,61,946,-37,16,35
2253,-331,-72,853,-45,-37,23
2254,109,-118,1010,9,-77,26
2255,376,-101,1018,14,-43,38
2256,356,19,1042,37,24,40
2257,8,77,1021,1,68,35
2258,-342,94,970,-15,41,28
2259,-388,-25,932,-62,-16,24
2260,-110,-119,941,-2,-69,14
2261,287,-130,1004,8,-67,26
2262,401,-39,1059,46,-10,35
2263,181,76,1112,19,52,32
2264,-196,87,951,-21,57,25
2265,-405,43,927,-30,11,21
2266,-283,-74,895,-37,-48,11
2267,143,-141,987,4,-77,13
2268,390,-87,1027,35,-40,27
2269,332,45,1048,44,29,27
2270,-22,70,992,-11,67,20
2271,-375,87,976,-10,39,19
2272,-372,-12,939,-49,-25,10
2273,-69,-123,952,-12,-72,-2
2274,322,-150,994,7,-64,8
2275,394,-33,1060,49,-5,22
2276,141,84,1138,25,58,17
2277,-217,81,908,-25,54,12
2278,-409,82,948,-9,5,11
2279,-256,-64,904,-55,-53,-2
2280,174,-158,981,-6,-77,-5
2281,403,-102,1040,29,-35,7
2282,304,20,1017,33,31,11
2283,-48,63,964,-19,62,5
2284,-385,126,984,11,31,7
2285,-358,14,972,-57,-26,-2
2286,-46,-134,929,-22,-72,-14
2287,325,-125,1018,14,-64,-12
2288,419,-55,1074,29,1,-5
2289,113,14,1096,8,62,-3
2290,-240,122,813,10,49,3
2291,-419,106,907,-25,6,2
2292,-247,-95,846,-66,-52,-16
2293,188,-125,1023,22,-80,-19
2294,462,-73,1032,18,-38,-17
2295,330,-34,949,24,46,-18
2296,-83,78,726,38,83,-3
2297,-421,171,842,24,42,0
2298,-393,-35,854,-88,-22,-16
2299,-29,-151,955,-1,-84,-26
2300,364,-109,1007,11,-67,-25
2301,440,-60,1090,30,7,-20
2302,86,-5,892,-12,59,-13
2303,-257,176,577,58,52,4
2304,-426,93,725,-48,18,-3
2305,-215,-102,835,-43,-60,-25
2306,228,-111,1034,9,-90,-27
2307,452,-72,1058,18,-24,-17
2308,266,-64,900,-17,37,-15
2309,-128,73,654,2,47,-7
2310,-411,172,798,-2,26,4
2311,-360,-68,790,-95,-30,-13
2312,8,-121,951,27,-82,-19
2313,371,-86,977,12,-55,-14
2314,423,-52,1056,13,8,-10
2315,56,6,826,27,71,2
2316,-249,163,548,68,66,13
2317,-417,47,735,-68,7,3
2318,-186,-105,888,-20,-71,-18
2319,240,-112,1032,0,-73,-18
2320,449,-52,1077,39,-25,-11
2321,238,-11,892,-19,33,-10
2322,-148,78,650,-2,55,-3
2323,-398,136,807,-25,23,3
2324,-354,-90,782,-76,-34,-15
2325,25,-138,969,14,-75,-18
2326,358,-84,932,23,-51,-10
2327,413,-12,1064,23,7,-12
2328,63,25,812,4,61,-5
2329,-238,159,607,47,62,-3
2330,-419,43,842,-73,-2,-13
2331,-189,-132,912,-26,-64,-21
2332,211,-118,1059,14,-65,-17
2333,428,-57,1091,36,-29,-15
2334,242,-13,957,5,41,-12
2335,-142,92,785,31,71,-10
2336,-371,128,897,-14,21,-9
2337,-354,-88,769,-73,-33,-20
2338,30,-120,991,10,-68,-18
2339,347,-67,955,20,-56,-11
2340,426,-4,1074,16,5,-11
2341,73,32,859,-9,58,-9
2342,-256,145,782,27,54,-6
2343,-414,7,928,-82,-5,-7
2344,-183,-137,925,-13,-56,-12
2345,219,-92,1045,17,-68,-6
2346,421,-38,1092,28,-27,-1
2347,233,8,998,-5,46,2
2348,-162,83,844,8,66,9
2349,-369,83,907,-32,17,12
2350,-338,-126,770,-70,-34,1
2351,79,-129,1005,28,-68,-3
2352,373,-49,979,35,-50,4
2353,392,14,1042,15,20,9
2354,30,56,838,-4,67,11
2355,-309,150,815,11,44,15
2356,-399,-7,951,-84,-12,8
2357,-134,-154,931,-17,-59,-8
2358,271,-89,1029,28,-69,-3
2359,421,-13,1112,29,-15,3
2360,176,18,990,-11,57,5
2361,-199,95,803,2,60,11
2362,-387,70,863,-39,11,13
2363,-295,-145,760,-73,-37,-4
2364,127,-122,1020,34,-76,-8
2365,405,-44,987,23,-46,1
2366,345,10,999,5,29,5
2367,-21,68,795,-1,64,7
2368,-339,140,842,5,35,16
2369,-380,-54,914,-92,-18,4
2370,-79,-138,962,13,-65,-3
2371,301,-85,1024,13,-67,3
2372,412,-22,1090,29,-2,10
2373,115,42,1016,-4,62,12
2374,-209,104,755,6,53,18
2375,-390,56,822,-42,13,19
2376,-257,-129,782,-63,-40,3
2377,165,-108,1031,31,-80,1
2378,407,-49,983,17,-35,7
2379,311,8,981,9,33,9
2380,-35,58,763,-13,61,10
2381,-357,134,845,6,31,23
2382,-373,-54,903,-85,-15,12
2383,-55,-130,971,17,-68,-1
2384,310,-95,995,1,-63,4
2385,404,-19,1098,32,2,13
2386,107,25,975,-1,67,14
2387,-222,105,681,15,50,21
2388,-409,53,752,-55,14,23
2389,-234,-113,821,-47,-48,5
2390,187,-106,1023,19,-82,6
2391,432,-44,1004,26,-28,16
2392,299,1,974,-3,35,17
2393,-72,56,720,-28,56,18
2394,-384,138,847,7,34,32
2395,-365,-63,872,-93,-18,19
2396,-13,-143,971,14,-73,8
2397,326,-101,976,6,-56,12
2398,418,-17,1099,33,6,23
2399,75,12,954,4,73,26
2400,-249,135,663,57,61,31
2401,-402,78,787,-53,18,31
2402,-207,-111,844,-50,-56,9
2403,203,-122,1044,7,-76,11
2404,431,-67,1036,27,-21,29
2405,264,4,983,4,38,30
2406,-90,72,770,-19,57,23
2407,-388,143,910,-1,31,34
2408,-362,-68,846,-101,-27,22
2409,-2,-140,976,16,-73,14
2410,337,-104,974,7,-51,27
2411,417,-18,1086,36,6,38
2412,68,34,968,-53,43,24
2413,-239,120,723,-5,42,31
2414,-419,51,861,-64,13,34
2415,-203,-110,900,-34,-57,16
2416,207,-136,1042,14,-72,24
2417,422,-60,1060,41,-21,41
2418,273,21,1036,12,40,42
2419,-94,68,853,20,71,34
2420,-380,119,998,9,45,37
2421,-371,-75,839,-83,-28,26
2422,1,-124,960,21,-76,22
2423,330,-84,998,15,-48,40
2424,421,0,1059,35,2,52
2425,93,63,1083,20,67,44
2426,-250,123,922,13,63,34
2427,-425,8,938,-75,0,33
2428,-219,-116,928,-16,-58,22
2429,204,-123,1029,5,-69,31
2430,416,-84,1040,31,-29,45
2431,272,46,1080,24,32,42
2432,-107,102,965,-15,62,32
2433,-372,75,995,-31,27,30
2434,-367,-74,831,-59,-29,22
2435,13,-118,989,11,-72,21
2436,332,-115,988,11,-54,39
2437,409,21,1082,52,7,46
2438,84,97,1067,9,61,39
2439,-264,110,938,-13,55,29
2440,-410,2,935,-69,-5,22
2441,-185,-120,940,-19,-58,17
2442,222,-156,991,-4,-67,25
2443,407,-63,1052,48,-23,33
2444,248,70,1106,30,42,33
2445,-141,92,961,-13,66,25
2446,-382,79,966,-28,22,23
2447,-337,-61,856,-54,-38,10
2448,77,-146,986,-4,-72,2
2449,362,-113,1001,20,-47,16
2450,378,29,1073,45,16,20
2451,26,58,1012,-11,65,15
2452,-330,84,936,-4,49,13
2453,-398,7,967,-51,-17,6
2454,-131,-118,942,-21,-65,-6
2455,288,-140,995,7,-67,-7
2456,422,-44,1071,43,-14,0
2457,186,52,1102,10,52,1
2458,-215,74,909,-8,66,1
2459,-409,103,953,-7,6,7
2460,-300,-73,840,-69,-46,-6
2461,137,-146,995,2,-75,-15
2462,420,-74,1013,27,-47,-6
2463,360,-2,1014,14,28,-2
2464,-29,27,852,-30,60,1
2465,-383,148,910,21,37,9
2466,-386,11,978,-73,-27,-1
2467,-70,-139,940,-21,-70,-14
2468,330,-98,1017,23,-68,-13
2469,435,-32,1130,23,-8,-8
2470,120,-12,965,12,80,-4
2471,-243,123,690,46,58,5
2472,-426,106,790,-39,2,3
2473,-245,-119,787,-69,-49,-15
2474,205,-110,1009,33,-83,-20
2475,448,-43,1029,27,-35,-10
2476,304,-62,935,-13,43,-10
2477,-90,46,695,-15,52,-2
2478,-412,174,839,38,31,14
2479,-365,-57,856,-99,-21,-10
2480,-1,-125,944,22,-83,-18
2481,367,-69,1009,16,-60,-15
2482,410,-50,1081,1,8,-10
2483,51,-18,849,0,69,-5
2484,-267,162,571,53,44,3
2485,-405,61,729,-62,8,-2
2486,-183,-117,814,-35,-61,-21
2487,237,-85,1035,22,-86,-22
2488,441,-46,1061,19,-20,-12
2489,237,-52,877,-21,39,-12
2490,-151,72,649,4,43,-1
2491,-398,149,811,1,34,9
2492,-338,-92,778,-87,-38,-11
2493,47,-112,952,20,-86,-15
2494,370,-56,955,17,-45,-10
2495,398,-39,1035,-2,8,-10
2496,23,-3,778,26,68,5
2497,-274,155,542,61,62,14
2498,-391,27,704,-80,-11,5
2499,-141,-119,869,-13,-68,-11
2500,264,-89,1009,24,-62,-7
2501,431,-27,1098,35,-19,3
2502,182,-27,886,-13,51,7
2503,-182,72,648,59,80,17
2504,-397,119,773,-21,15,16
2505,-306,-100,734,-73,-42,-5
2506,106,-95,964,30,-69,-8
2507,384,-46,892,15,-43,1
2508,371,-5,1049,2,19,3
2509,-9,3,698,19,82,12
2510,-303,139,553,45,47,14
2511,-382,6,738,-85,-22,5
2512,-80,-136,909,-9,-64,-8
2513,274,-84,1025,20,-61,-6
2514,408,-7,1113,38,-9,0
2515,130,-11,864,-30,54,0
2516,-223,90,631,47,70,11
2517,-370,103,713,-26,4,11
2518,-262,-133,692,-73,-44,-16
2519,133,-119,950,26,-68,-18
2520,379,-30,906,22,-45,-8
2521,334,-12,992,-9,27,-7
2522,-32,1,641,-28,46,-5
2523,-298,173,585,33,33,3
2524,-356,0,776,-82,-27,-8
2525,-75,-139,927,-14,-58,-18
2526,264,-74,1021,31,-60,-13
2527,388,-15,1114,25,-12,-7
2528,102,-43,838,-21,64,-2
2529,-205,79,606,73,64,8
2530,-356,100,657,-22,3,8
2531,-249,-127,691,-66,-32,-13
2532,142,-92,957,41,-70,-16
2533,386,-3,932,32,-40,-9
2534,308,-14,943,-29,30,-6
2535,-32,19,613,33,68,1
2536,-303,159,609,17,30,10
2537,-356,-50,748,-85,-16,-7
2538,-68,-146,921,-1,-68,-18
2539,269,-69,1016,31,-60,-9
2540,386,-29,1102,12,-2,-2
2541,99,-22,855,-3,59,1
2542,-190,109,556,42,49,10
2543,-343,61,588,-48,8,9
2544,-230,-123,701,-45,-39,-9
2545,168,-84,987,35,-71,-7
2546,384,-19,935,22,-29,1
2547,273,1,907,4,35,3
2548,-57,23,631,18,71,12
2549,-318,153,650,26,30,19
2550,-330,-59,759,-105,-18,0
2551,-43,-131,936,21,-60,-10
2552,282,-76,1017,3,-60,-4
2553,362,-36,1069,16,3,5
2554,61,-1,880,-28,51,1
2555,-213,102,580,17,37,11
2556,-349,47,634,-38,6,15
2557,-205,-106,745,-37,-41,-4
2558,186,-74,990,26,-70,-1
2559,381,-24,933,15,-28,6
2560,262,14,917,-5,32,8
2561,-64,33,656,-30,50,6
2562,-332,129,681,6,20,15
2563,-329,-62,789,-84,-19,-1
2564,-23,-133,940,17,-61,-11
2565,295,-81,996,12,-57,-7
2566,354,-14,1066,31,4,1
2567,65,9,886,-33,53,-2
2568,-211,94,579,8,29,6
2569,-350,50,647,-44,-2,8
2570,-191,-115,748,-48,-42,-11
2571,192,-92,973,25,-76,-13
2572,375,-19,932,25,-27,-5
2573,253,8,916,-15,31,-3
2574,-74,29,655,-12,51,1
2575,-323,144,688,17,22,6
2576,-310,-60,786,-93,-23,-6
2577,-19,-135,949,22,-62,-14
2578,284,-81,1015,7,-54,-7
2579,351,-22,1075,31,4,2
2580,59,2,893,-10,58,2
2581,-205,98,605,35,45,8
2582,-335,57,679,-43,3,7
2583,-194,-118,750,-52,-41,-9
2584,178,-95,989,28,-70,-7
2585,367,-14,949,30,-26,0
2586,269,-4,945,-14,30,4
2587,-62,28,673,13,61,9
2588,-309,147,697,12,28,18
2589,-317,-61,781,-90,-19,5
2590,-40,-125,934,22,-58,-3
2591,277,-64,1018,23,-51,2
2592,356,-26,1093,22,2,9
2593,87,4,893,-25,55,9
2594,-202,107,673,24,44,17
2595,-341,45,733,-54,0,18
2596,-213,-128,743,-46,-39,1
2597,160,-70,988,48,-61,-1
2598,364,-27,941,10,-30,3
2599,284,-13,973,-5,30,8
2600,-59,36,768,11,61,10
2601,-312,134,735,-4,29,17
2602,-321,-69,821,-82,-20,4
2603,-40,-111,971,29,-57,-6
2604,271,-57,1040,18,-55,-1
2605,362,-47,1086,14,-2,4
2606,77,5,957,3,60,8
2607,-203,104,762,22,48,13
2608,-335,40,789,-59,-2,16
2609,-225,-110,774,-38,-40,-4
2610,148,-72,1026,29,-67,-5
2611,349,-52,919,6,-31,3
2612,297,9,1035,12,29,7
2613,-38,43,839,9,65,15
2614,-292,99,723,9,36,17
2615,-335,-35,855,-72,-24,5
2616,-51,-97,957,7,-59,-3
2617,260,-73,1037,4,-55,0
2618,368,-27,1098,32,-3,7
2619,109,8,993,-22,47,8
2620,-195,73,805,5,53,15
2621,-346,55,861,-26,10,19
2622,-243,-101,793,-48,-40,1
2623,136,-81,1031,29,-61,0
2624,347,-48,930,7,-35,6
2625,321,7,1087,19,24,11
2626,-16,36,906,-19,55,14
2627,-289,108,742,6,38,21
2628,-361,-22,882,-64,-14,16
2629,-80,-108,937,2,-58,3
2630,261,-91,1050,8,-56,7
2631,380,-37,1077,28,-9,15
2632,147,9,1031,3,55,18
2633,-188,56,866,3,61,23
2634,-358,70,937,-26,10,28
2635,-273,-84,821,-45,-37,13
2636,111,-93,1026,18,-64,11
2637,352,-53,950,17,-38,18
2638,348,9,1114,15,21,24
2639,4,7,994,-36,58,23
2640,-279,90,829,19,47,34
2641,-397,10,941,-63,-13,28
2642,-117,-102,923,-5,-59,14
2643,254,-88,1034,14,-58,17
2644,408,-32,1083,28,-16,24
2645,198,16,1033,-21,43,22
2646,-170,57,929,-12,59,16
2647,-397,89,1004,-14,23,26
2648,-319,-75,832,-53,-36,7
2649,79,-89,1010,21,-73,1
2650,369,-83,985,7,-42,9
2651,383,-13,1086,14,13,14
2652,-1,40,1044,-27,55,10
2653,-294,91,853,7,48,19
2654,-407,15,946,-52,-7,13
2655,-143,-88,917,-3,-65,-4
2656,268,-92,1050,7,-68,-4
2657,429,-61,1046,27,-17,5
2658,207,24,1035,-10,39,9
2659,-186,75,924,-20,54,9
2660,-396,88,995,-13,23,17
2661,-313,-77,852,-62,-41,-1
2662,93,-111,989,19,-78,-7
2663,380,-89,1003,14,-42,-1
2664,378,-19,1079,29,18,6
2665,-4,54,1048,15,69,13
2666,-310,119,863,6,49,17
2667,-395,19,930,-60,-12,10
2668,-117,-95,917,-14,-70,-9
2669,282,-105,1048,2,-67,-8
2670,414,-78,1044,17,-14,1
2671,191,13,1016,9,43,8
2672,-202,86,948,-1,62,8
2673,-401,81,986,-15,18,13
2674,-290,-70,866,-55,-42,-4
2675,100,-100,991,16,-76,-11
2676,374,-104,1002,7,-43,-7
2677,367,-19,1066,34,21,1
2678,-16,56,1075,14,68,6
2679,-312,84,870,1,49,9
2680,-395,23,942,-36,-11,2
2681,-117,-87,924,-15,-67,-13
2682,274,-114,1038,9,-67,-12
2683,413,-67,1037,27,-15,-6
2684,197,25,1038,27,48,3
2685,-193,61,926,1,69,11
2686,-395,95,1004,6,19,12
2687,-295,-36,884,-57,-44,-5
2688,97,-107,979,8,-75,-13
2689,375,-94,1004,7,-44,-11
2690,378,-5,1080,33,15,-8
2691,-1,42,1066,-12,64,-4
2692,-307,104,856,16,48,2
2693,-399,53,957,-43,-10,-4
2694,-130,-109,904,-38,-64,-16
2695,267,-115,1032,9,-70,-18
2696,421,-55,1055,28,-17,-13
2697,217,1,1021,1,45,-7
2698,-181,86,915,-3,57,-2
2699,-399,127,1015,-8,23,-2
2700,-309,-64,861,-80,-39,-17
2701,69,-123,979,12,-76,-23
2702,362,-97,1005,8,-44,-19
2703,381,-38,1073,31,14,-16
2704,14,21,1024,-5,59,-9
2705,-289,127,845,28,47,-4
2706,-398,37,929,-66,-8,-10
2707,-147,-118,909,-19,-64,-22
2708,246,-113,1040,8,-67,-20
2709,409,-58,1069,36,-20,-14
2710,213,3,1000,9,41,-11
2711,-152,91,903,22,60,-4
2712,-365,119,998,-12,23,-5
2713,-315,-88,841,-76,-36,-18
2714,50,-139,968,10,-72,-18
2715,334,-85,1002,23,-46,-13
2716,390,-22,1066,22,6,-10
2717,40,45,1015,2,55,-5
2718,-270,143,889,19,47,-3
2719,-386,23,944,-72,-7,-6
2720,-167,-115,910,-18,-59,-13
2721,226,-96,1055,12,-65,-11
2722,400,-73,1048,18,-23,-8
2723,232,9,1029,15,36,-2
2724,-150,102,953,3,57,6
2725,-368,83,982,-30,21,6
2726,-316,-81,841,-57,-36,-4
2727,59,-106,986,12,-70,-6
2728,355,-76,1008,16,-46,-1
2729,381,-14,1050,20,11,2
2730,31,58,1009,4,59,9
2731,-285,113,863,4,52,14
2732,-387,1,954,-61,-12,6
2733,-138,-120,928,-14,-59,-4
2734,262,-109,1039,12,-62,-1
2735,402,-52,1057,29,-15,2
2736,196,27,1054,15,50,7
2737,-184,81,924,5,66,12
2738,-379,82,967,-19,14,15
2739,-299,-82,831,-54,-40,2
2740,110,-117,1000,12,-69,-3
2741,364,-70,990,21,-43,3
2742,365,15,1067,20,19,7
2743,0,45,955,-17,58,8
2744,-316,110,875,0,44,8
2745,-379,-1,975,-64,-20,2
2746,-108,-131,927,-16,-61,-9
2747,272,-91,1035,24,-62,-7
2748,408,-33,1070,21,-12,1
2749,164,33,1057,8,55,3
2750,-213,77,906,4,64,7
2751,-385,69,955,-24,7,11
2752,-275,-98,817,-54,-43,-4
2753,140,-119,1009,17,-73,-9
2754,392,-62,1005,23,-42,-2
2755,339,30,1031,24,27,2
2756,-35,62,923,-11,66,11
2757,-341,103,898,-3,38,14
2758,-365,-22,986,-63,-22,1
2759,-66,-149,941,-15,-63,-8
2760,304,-109,1014,23,-63,-4
2761,392,-12,1078,36,-4,2
2762,126,50,1061,-4,57,5
2763,-227,92,882,-11,51,9
2764,-385,67,933,-30,2,11
2765,-236,-129,829,-65,-44,-3
2766,161,-131,1009,32,-74,-6
2767,398,-43,1026,30,-37,1
2768,303,14,1001,7,33,6
2769,-71,72,887,-7,61,9
2770,-359,134,946,-2,29,16
2771,-340,-57,957,-87,-22,4
2772,-28,-149,952,6,-67,-6
2773,321,-92,1024,20,-62,-1
2774,381,-25,1073,25,2,4
2775,90,48,1041,-3,58,5
2776,-234,120,827,-3,43,12
2777,-389,51,894,-49,4,8
2778,-206,-121,851,-52,-48,-7
2779,195,-117,1038,27,-79,-8
2780,408,-56,1026,23,-27,0
2781,263,10,977,11,39,1
2782,-111,79,887,-6,56,6
2783,-385,112,954,-5,28,14
2784,-325,-71,912,-77,-25,1
2785,18,-123,974,20,-79,-8
2786,352,-86,1001,11,-53,-3
2787,392,-7,1073,33,13,3
2788,48,61,1060,-1,61,8
2789,-267,116,774,6,52,18
2790,-393,26,885,-51,7,8
2791,-167,-124,886,-36,-61,-6
2792,239,-123,1039,19,-71,-2
2793,424,-48,1052,32,-19,8
2794,236,32,993,15,43,7
2795,-156,88,861,-8,66,12
2796,-396,101,956,-8,28,13
2797,-320,-86,872,-83,-38,0
2798,59,-147,970,15,-74,-3
2799,366,-93,989,18,-47,2
2800,387,3,1081,30,13,5
2801,25,52,972,-20,58,7
2802,-290,120,761,7,48,16
2803,-403,22,923,-66,-5,10
2804,-144,-132,901,-26,-67,-6
2805,259,-121,1053,19,-67,-6
2806,425,-33,1079,37,-17,5
2807,204,27,1005,1,44,8
2808,-189,73,853,2,68,12
2809,-398,94,951,-6,22,12
2810,-310,-95,818,-68,-46,-4
2811,97,-149,984,19,-72,-9
2812,381,-64,977,33,-45,0
2813,378,26,1086,23,17,2
2814,-2,43,920,-12,64,5
2815,-325,141,807,21,44,11
2816,-381,0,938,-86,-21,4
2817,-110,-160,925,-16,-65,-8
2818,285,-105,1037,30,-64,-3
2819,419,-22,1099,34,-13,3
2820,165,28,1015,0,54,6
2821,-207,86,844,0,62,13
2822,-390,93,916,-16,10,17
2823,-275,-113,793,-68,-42,0
2824,139,-134,998,22,-70,-4
2825,390,-36,994,35,-43,4
2826,342,19,1032,7,29,8
2827,-30,44,852,-4,69,11
2828,-336,146,856,12,36,13
2829,-365,-33,958,-89,-21,4
2830,-77,-157,929,-12,-65,-8
2831,293,-70,1042,37,-63,-4
2832,402,-25,1089,11,-6,4
2833,132,18,987,-8,59,3
2834,-217,111,825,-1,52,9
2835,-384,43,871,-43,7,13
2836,-251,-132,800,-54,-40,-5
2837,163,-100,1043,37,-78,-6
2838,407,-53,999,11,-38,1
2839,298,5,977,16,37,1
2840,-66,73,849,5,65,8
2841,-362,124,914,-1,31,15
2842,-355,-64,924,-82,-22,2
2843,-27,-140,967,11,-73,-8
2844,327,-94,1014,18,-59,-2
2845,394,-22,1077,29,6,6
2846,85,44,1027,-5,58,8
2847,-252,119,739,2,44,15
2848,-396,49,858,-47,10,9
2849,-192,-121,842,-43,-54,-6
2850,211,-109,1048,26,-78,-6
2851,425,-51,1026,22,-23,2
2852,260,16,985,10,38,3
2853,-132,80,832,-3,61,8
2854,-394,115,913,-1,30,15
2855,-323,-74,880,-85,-31,0
2856,34,-142,960,12,-78,-9
2857,352,-83,982,18,-50,-7
2858,394,0,1081,34,10,-1
2859,33,36,967,-22,58,-1
2860,-279,108,695,22,51,8
2861,-405,21,850,-60,1,0
2862,-153,-128,883,-18,-69,-13
2863,246,-97,1044,20,-70,-12
2864,426,-34,1077,36,-20,-3
2865,215,22,973,-4,39,0
2866,-177,78,799,6,62,-1
2867,-384,92,923,-18,20,4
2868,-319,-101,808,-72,-41,-7
2869,85,-124,985,23,-74,-10
2870,376,-82,944,14,-44,-2
2871,384,15,1090,34,14,0
2872,15,45,880,-20,62,5
2873,-294,117,716,14,54,12
2874,-397,9,903,-65,-14,2
2875,-117,-139,918,-17,-63,-8
2876,270,-101,1047,26,-61,-6
2877,408,-11,1097,35,-18,1
2878,180,30,980,-8,51,2
2879,-198,88,798,8,64,6
2880,-385,81,903,-34,9,8
2881,-295,-134,773,-70,-43,-5
2882,121,-129,1006,29,-71,-9
2883,378,-40,961,33,-43,-2
2884,361,25,1057,12,23,1
2885,-20,44,829,-12,64,5
2886,-328,141,810,16,41,8
2887,-365,-38,926,-84,-23,-1
2888,-93,-161,944,2,-59,-8
2889,283,-77,1040,32,-66,-1
2890,397,-11,1103,26,-11,2
2891,142,26,986,-9,59,2
2892,-211,112,813,25,56,8
2893,-377,54,863,-46,5,9
2894,-256,-140,782,-59,-41,-2
2895,152,-100,1020,40,-76,-3
2896,410,-36,991,24,-39,3
2897,314,13,987,8,34,5
2898,-58,73,847,-7,63,10
2899,-355,126,875,-7,31,16
2900,-356,-70,928,-86,-17,3
2901,-36,-149,952,16,-67,-3
2902,322,-83,1020,14,-64,2
2903,391,-17,1081,31,4,7
2904,91,51,995,-2,63,6
2905,-235,120,746,9,50,11
2906,-393,31,836,-54,7,7
2907,-207,-136,836,-47,-51,-5
2908,211,-105,1033,37,-77,-4
2909,414,-40,1018,25,-27,3
2910,263,17,971,12,41,2
2911,-111,84,821,-18,58,7
2912,-390,115,915,-4,28,13
2913,-333,-85,889,-84,-25,0
2914,23,-138,959,24,-78,-9
2915,343,-89,997,12,-54,-5
2916,396,-12,1073,32,11,1
2917,44,62,981,-1,61,2
2918,-268,127,700,13,50,10
2919,-401,20,849,-59,1,3
2920,-160,-128,876,-31,-63,-12
2921,245,-118,1055,22,-72,-6
2922,422,-41,1053,39,-18,1
2923,224,32,989,6,42,3
2924,-169,77,803,-10,58,7
2925,-387,108,920,-11,25,9
2926,-313,-87,840,-72,-38,-4
2927,68,-152,967,12,-75,-5
2928,362,-75,962,27,-43,2
2929,384,32,1092,27,11,4
2930,19,38,936,-16,63,7
2931,-290,127,726,31,55,10
2932,-390,20,899,-73,-13,8
2933,-129,-157,888,-28,-63,-2
2934,262,-98,1056,31,-63,-2
2935,412,-22,1095,35,-17,7
2936,187,12,980,-14,46,7
2937,-195,90,812,8,62,12
2938,-378,97,911,-36,13,15
2939,-299,-123,776,-68,-43,0
2940,110,-130,989,29,-68,-3
2941,379,-50,963,24,-44,6
2942,365,18,1064,18,19,7
2943,-3,52,850,-5,68,11
2944,-312,134,769,19,49,13
2945,-384,-21,915,-84,-20,4
2946,-102,-153,938,-9,-61,-3
2947,278,-106,1031,23,-65,1
2948,400,-19,1102,46,-12,7
2949,166,36,975,-16,54,5
2950,-199,100,801,11,58,9
2951,-383,86,869,-37,6,16
2952,-276,-131,772,-69,-41,1
2953,133,-134,998,31,-71,-3
2954,394,-43,988,28,-43,6
2955,338,11,995,11,30,8
2956,-33,77,825,2,67,9
2957,-330,148,839,6,35,17
2958,-374,-45,923,-92,-18,2
2959,-70,-152,952,4,-65,-7
2960,307,-89,1028,18,-66,1
2961,397,-21,1087,29,-1,5
2962,114,36,996,-7,59,2
2963,-227,112,753,13,52,9
2964,-386,45,799,-52,5,11
2965,-226,-127,806,-54,-45,-4
2966,186,-107,1025,33,-77,-4
2967,411,-45,993,21,-32,3
2968,276,26,970,20,40,4
2969,-84,77,801,-17,62,9
2970,-375,126,859,-1,28,18
2971,-340,-76,891,-94,-19,2
2972,3,-141,953,23,-73,-4
2973,331,-90,1001,8,-58,0
2974,385,-8,1077,34,9,7
2975,64,45,980,-9,61,9
2976,-258,120,647,9,48,15
2977,-395,41,795,-55,7,6
2978,-174,-126,851,-42,-59,-7
2979,230,-119,1026,22,-74,-4
2980,413,-45,1033,31,-20,3
2981,242,17,966,5,40,4
2982,-148,73,765,-14,59,6
2983,-386,118,883,7,26,13
2984,-318,-90,845,-94,-33,1
2985,50,-144,954,26,-77,-6
2986,360,-72,971,17,-46,-1
2987,387,8,1075,36,15,5
2988,17,39,934,-33,57,5
2989,-280,115,648,24,48,15
2990,-383,28,824,-68,-3,9
2991,-136,-136,881,-20,-65,-7
2992,264,-112,1054,16,-67,-4
2993,413,-17,1079,45,-13,7
2994,183,29,979,-12,44,6
2995,-190,61,782,3,62,14
2996,-386,110,897,-7,23,15
2997,-290,-114,792,-79,-44,-2
2998,101,-143,970,25,-69,-4
2999,365,-47,953,30,-40,5
3000,362,21,1087,18,15,8
3001,-5,30,856,-11,67,11
3002,-296,141,692,35,51,16
3003,-380,4,871,-81,-21,8
3004,-100,-157,914,-14,-61,-3
3005,275,-95,1045,31,-61,1
3006,397,-3,1119,37,-14,9
3007,171,9,956,-21,53,10
3008,-199,94,763,20,62,14
3009,-375,106,873,-33,6,17
3010,-281,-142,747,-83,-39,-2
3011,121,-130,1010,37,-68,-4
3012,377,-34,961,26,-41,4
3013,353,3,1036,3,25,7
3014,-35,43,822,2,65,8
3015,-326,156,764,17,38,13
3016,-362,-36,882,-96,-23,3
3017,-82,-147,942,3,-63,-10
3018,294,-83,1041,21,-62,-2
3019,391,-35,1091,26,-7,0
3020,117,28,968,-2,57,1
3021,-221,105,769,8,53,7
3022,-362,72,829,-42,-1,10
3023,-251,-120,767,-61,-44,-6
3024,168,-112,1015,28,-69,-8
3025,383,-57,958,18,-37,0
3026,292,12,1001,13,30,1
3027,-58,57,777,-10,64,7
3028,-332,132,788,7,27,13
3029,-334,-32,908,-76,-27,0
3030,-28,-140,963,-3,-62,-10
3031,306,-87,1017,21,-58,-4
3032,371,-15,1088,24,1,4
3033,77,26,975,-12,64,5
3034,-231,96,712,14,45,8
3035,-356,62,784,-42,1,8
3036,-196,-128,793,-59,-43,-7
3037,194,-111,1021,37,-70,-5
3038,392,-36,986,22,-28,2
3039,247,17,974,20,39,2
3040,-104,43,758,-4,65,10
3041,-350,134,844,27,26,18
3042,-314,-58,894,-91,-25,1
3043,9,-147,954,17,-66,-8
3044,321,-85,996,10,-50,2
3045,350,2,1091,37,11,7
3046,57,27,978,-13,63,11
3047,-242,97,648,21,45,20
3048,-366,57,801,-37,6,11
3049,-159,-128,844,-51,-51,-4
3050,216,-118,1026,24,-73,1
3051,397,-12,1039,36,-17,10
3052,238,5,965,-8,40,10
3053,-154,53,775,-6,57,11
3054,-377,142,889,17,28,18
3055,-294,-89,856,-98,-26,5
3056,47,-144,948,21,-75,-5
3057,344,-56,994,15,-43,0
3058,367,0,1096,21,16,8
3059,17,23,954,-44,49,3
3060,-266,138,645,24,39,15
3061,-369,29,805,-75,-1,10
3062,-138,-147,858,-32,-60,-6
3063,246,-105,1054,24,-68,-4
3064,411,-17,1066,34,-14,7
3065,193,1,964,-21,43,6
3066,-195,60,758,3,56,10
3067,-379,124,896,-7,16,14
3068,-280,-113,803,-97,-39,-1
3069,78,-133,968,37,-71,-4
3070,361,-53,974,19,-40,4
3071,355,-4,1083,15,16,6
3072,-19,27,913,4,67,11
3073,-273,142,662,41,49,19
3074,-363,7,828,-84,-12,9
3075,-108,-142,894,-13,-66,-7
3076,263,-87,1064,21,-61,-3
3077,396,-24,1089,29,-13,8
3078,166,6,966,-22,42,7
3079,-197,73,775,-1,52,11
3080,-374,109,882,-21,13,15
3081,-266,-115,769,-74,-44,0
3082,109,-113,996,30,-67,-6
3083,364,-49,950,13,-36,4
3084,342,4,1082,13,19,6
3085,-33,28,879,-2,65,9
3086,-285,134,687,30,43,15
3087,-352,-4,868,-83,-19,6
3088,-83,-136,928,-6,-60,-6
3089,271,-84,1059,18,-55,-2
3090,384,-22,1090,27,-9,6
3091,142,15,981,-17,49,6
3092,-204,75,778,7,59,13
3093,-366,85,858,-27,10,15
3094,-253,-111,768,-65,-46,-4
3095,141,-118,1005,20,-63,-9
3096,359,-45,953,20,-35,2
3097,315,8,1063,7,24,6
3098,-64,24,840,-16,61,6
3099,-306,131,737,19,31,12
3100,-324,-7,916,-73,-26,4
3101,-49,-137,945,-13,-59,-7
3102,280,-79,1044,20,-56,0
3103,370,-10,1100,24,-4,6
3104,115,6,980,-19,55,8
3105,-224,62,775,17,58,14
3106,-353,70,843,-17,0,15
3107,-233,-119,760,-64,-41,-2
3108,164,-115,1021,25,-63,-6
3109,371,-27,963,29,-34,2
3110,288,35,1041,9,32,6
3111,-70,25,802,-24,58,9
3112,-321,138,808,17,26,14
3113,-314,-34,928,-83,-24,4
3114,-34,-163,949,-5,-60,-7
3115,300,-84,1027,30,-56,1
3116,364,0,1109,27,3,10
3117,92,19,990,-22,58,10
3118,-239,100,769,23,50,14
3119,-355,84,847,-31,-3,15
3120,-200,-133,771,-72,-42,-3
3121,190,-109,1036,35,-66,-6
3122,384,-39,996,19,-29,4
3123,253,-1,993,2,40,8
3124,-104,47,820,11,67,14
3125,-335,139,869,12,25,17
3126,-301,-57,930,-81,-24,3
3127,4,-142,965,9,-65,-9
3128,314,-68,1024,24,-54,-1
3129,355,-12,1087,16,10,9
3130,46,19,1019,-28,55,9
3131,-250,96,770,6,38,12
3132,-350,62,852,-38,-4,12
3133,-163,-128,811,-59,-45,-6
3134,213,-98,1044,33,-67,-7
3135,378,-30,1019,18,-20,3
3136,222,-1,974,2,45,7
3137,-132,50,837,14,64,11
3138,-348,131,921,8,23,16
3139,-281,-69,922,-82,-26,0
3140,36,-132,972,15,-68,-11
3141,326,-76,1015,10,-46,-3
3142,345,-22,1066,21,14,3
3143,15,19,1049,-23,53,5
3144,-276,106,757,5,34,12
3145,-351,45,866,-46,-6,9
3146,-133,-115,853,-41,-54,-9
3147,231,-98,1057,24,-68,-6
3148,383,-52,1020,21,-14,2
3149,192,1,983,13,44,7
3150,-158,65,840,6,59,12
3151,-358,113,937,7,19,16
3152,-258,-68,897,-76,-33,1
3153,68,-120,985,20,-71,-7
3154,343,-80,993,4,-41,-2
3155,342,-1,1077,31,16,7
3156,0,40,1029,-21,55,10
3157,-280,109,715,13,37,18
3158,-347,33,861,-56,-5,11
3159,-113,-114,878,-29,-60,-7
3160,253,-109,1055,14,-64,-5
3161,396,-38,1048,31,-10,7
3162,170,23,1004,-2,43,10
3163,-197,56,816,-20,54,11
3164,-361,103,956,0,14,18
3165,-261,-79,851,-79,-39,0
3166,99,-131,987,19,-69,-5
3167,350,-78,968,11,-36,2
3168,343,13,1090,30,19,8
3169,-26,36,994,-15,65,15
3170,-293,113,745,29,46,19
3171,-354,30,895,-64,-14,10
3172,-101,-132,899,-26,-64,-7
3173,276,-108,1058,15,-60,-4
3174,394,-32,1073,31,-10,6
3175,138,-1,1013,-12,47,10
3176,-219,38,818,2,56,16
3177,-361,119,950,6,13,16
3178,-251,-80,814,-74,-48,-2
3179,129,-118,994,18,-67,-7
3180,356,-50,974,19,-33,0
3181,326,-3,1085,5,18,7
3182,-34,3,913,-33,52,8
3183,-297,141,755,35,34,16
3184,-342,23,923,-83,-22,7
3185,-72,-143,908,-19,-63,-7
3186,273,-77,1069,27,-54,-4
3187,370,-35,1090,17,-7,6
3188,134,-24,990,-19,46,10
3189,-217,94,827,30,52,11
3190,-341,115,923,-40,1,19
3191,-242,-114,764,-72,-42,-1
3192,131,-100,1027,32,-63,-6
3193,351,-55,963,8,-33,5
3194,316,-27,1054,6,24,9
3195,-55,20,871,17,67,15
3196,-297,149,802,27,34,19
3197,-326,-10,933,-82,-24,8
3198,-61,-126,953,-5,-57,-6
3199,270,-85,1045,13,-56,-1
3200,366,-53,1080,17,-6,6
3201,114,1,1001,9,59,12
3202,-206,97,824,37,59,17
3203,-345,85,889,-26,-1,18
3204,-230,-94,781,-54,-39,0
3205,153,-89,1045,22,-65,-6
3206,368,-60,965,2,-35,4
3207,286,-11,1014,10,33,10
3208,-72,35,861,6,64,18
3209,-323,128,862,21,32,22
3210,-312,-22,946,-71,-24,9
3211,-34,-109,977,-1,-59,-4
3212,298,-98,1006,0,-58,0
3213,353,-34,1092,25,3,9
3214,80,24,1019,-10,56,11
3215,-216,88,799,11,46,17
3216,-344,81,874,-27,-1,18
3217,-208,-92,828,-59,-39,-2
3218,181,-118,1028,9,-71,-7
3219,372,-59,999,21,-28,2
3220,253,-11,993,1,38,5
3221,-91,30,857,-6,56,12
3222,-339,146,919,33,24,21
3223,-307,-28,947,-86,-20,4
3224,-3,-140,960,0,-65,-10
3225,307,-87,1004,13,-56,-5
3226,356,-22,1095,24,10,8
3227,50,-1,1015,-16,54,10
3228,-241,112,762,28,39,17
3229,-359,79,879,-36,4,14
3230,-159,-125,839,-60,-46,-4
3231,202,-111,1033,25,-75,-4
3232,386,-47,1031,20,-20,4
3233,224,-24,975,0,39,6
3234,-126,55,819,5,52,11
3235,-355,157,946,29,27,24
3236,-286,-62,895,-94,-24,4
3237,33,-136,969,18,-75,-7
3238,324,-77,1001,13,-46,-2
3239,356,-26,1082,22,14,8
3240,23,4,995,-23,49,9
3241,-255,141,720,44,43,22
3242,-358,72,870,-58,3,16
3243,-139,-126,858,-45,-58,-5
3244,228,-96,1059,22,-69,-3
3245,392,-44,1066,19,-13,9
3246,193,-31,969,-15,36,8
3247,-171,59,816,4,48,11
3248,-358,130,963,10,26,23
3249,-279,-91,835,-87,-34,5
3250,73,-109,981,27,-73,-3
3251,346,-65,981,7,-36,1
3252,355,-30,1069,15,17,6
3253,-13,20,965,-30,46,6
3254,-270,148,723,35,46,21
3255,-358,27,878,-76,-4,12
3256,-102,-122,899,-18,-65,-4
3257,255,-90,1075,10,-59,-6
3258,387,-58,1076,19,-9,6
3259,147,-5,981,-16,36,9
3260,-189,74,804,-7,47,13
3261,-360,109,919,-16,17,20
3262,-262,-84,795,-66,-43,0
3263,116,-100,1008,15,-67,-5
3264,357,-68,950,2,-33,3
3265,326,-14,1070,16,19,6
3266,-40,18,883,-42,43,6
3267,-303,125,735,15,39,18
3268,-338,7,906,-71,-23,11
3269,-70,-115,948,-9,-62,-4
3270,278,-92,1041,4,-52,-3
3271,365,-43,1099,28,-8,5
3272,119,-8,977,-31,43,7
3273,-217,73,803,-4,43,11
3274,-349,91,889,-31,1,18
3275,-234,-90,781,-57,-46,-1
3276,146,-100,1019,16,-62,-8
3277,356,-42,954,16,-34,2
3278,303,4,1045,4,23,9
3279,-55,18,822,-39,47,7
3280,-322,116,779,6,27,15
3281,-325,-13,926,-67,-30,7
3282,-43,-130,962,-8,-60,-5
3283,292,-87,1018,20,-54,-3
3284,361,-21,1113,29,-6,9
3285,83,5,959,-33,49,5
3286,-226,79,767,-8,38,9
3287,-347,79,834,-25,-10,16
3288,-213,-102,772,-55,-45,-2
3289,182,-105,1011,25,-63,-5
3290,372,-32,972,25,-34,3
3291,267,10,1006,-4,33,9
3292,-75,18,762,-23,57,10
3293,-330,130,803,15,20,15
3294,-311,-22,912,-75,-29,5
3295,-11,-136,954,-1,-60,-6
3296,302,-72,1012,26,-52,1
3297,347,-9,1111,22,4,10
3298,62,-6,947,-20,66,11
3299,-232,88,705,31,42,13
3300,-351,68,776,-39,-4,15
3301,-179,-122,796,-54,-44,-3
3302,202,-97,1023,35,-68,-2
3303,381,-20,1010,24,-23,6
3304,229,-7,964,-7,40,10
3305,-116,29,779,22,66,14
3306,-348,132,839,27,27,23
3307,-292,-59,899,-82,-26,6
3308,23,-129,961,15,-71,-7
3309,319,-65,1004,15,-51,2
3310,344,-12,1096,20,15,16
3311,26,8,972,-28,50,9
3312,-249,104,674,17,37,16
3313,-352,47,781,-45,1,14
3314,-135,-121,832,-38,-48,-5
3315,215,-86,1042,28,-71,-2
3316,383,-35,1027,18,-18,8
3317,203,-17,944,-13,40,9
3318,-139,59,772,-9,48,7
3319,-353,115,838,0,18,16
3320,-275,-80,858,-88,-31,3
3321,47,-109,969,30,-68,-5
3322,321,-72,984,6,-43,0
3323,343,-26,1083,22,13,10
3324,11,20,955,9,65,12
3325,-256,121,620,44,44,19
3326,-343,39,761,-53,3,13
3327,-119,-105,861,-25,-59,-8
3328,224,-86,1054,14,-66,-6
3329,397,-52,1042,16,-12,7
3330,181,-3,951,-4,36,10
3331,-169,67,750,-22,42,8
3332,-352,98,829,-7,15,19
3333,-278,-74,821,-71,-32,1
3334,68,-107,984,26,-70,-4
3335,341,-101,941,3,-38,3
3336,340,-2,1091,33,17,9
3337,-1,35,938,5,63,13
3338,-260,102,596,34,50,18
3339,-357,43,777,-47,-5,11
3340,-109,-103,899,-20,-64,-7
3341,241,-120,1037,-1,-59,-5
3342,380,-38,1078,42,-15,8
3343,154,7,961,-24,36,10
3344,-172,50,723,-9,43,7
3345,-344,119,828,-10,11,15
3346,-269,-75,793,-71,-38,-2
3347,86,-119,975,11,-68,-6
3348,336,-72,933,22,-35,1
3349,340,0,1093,19,17,7
3350,-5,10,867,14,65,12
3351,-271,127,613,58,54,15
3352,-350,21,789,-61,-12,8
3353,-95,-124,908,-8,-63,-9
3354,249,-99,1040,13,-53,-8
3355,375,-30,1105,40,-16,1
3356,146,-14,951,-29,41,5
3357,-180,70,708,25,56,6
3358,-343,130,819,-20,3,13
3359,-265,-96,755,-74,-39,-5
3360,103,-118,991,14,-64,-10
3361,343,-50,928,20,-44,-1
3362,335,-10,1081,-2,18,4
3363,-19,-4,811,-39,44,1
3364,-277,147,651,30,31,13
3365,-348,17,829,-88,-18,5
3366,-84,-136,932,-14,-63,-7
3367,255,-80,1042,21,-59,-4
3368,365,-33,1111,27,-8,4
3369,141,-24,952,-27,39,3
3370,-182,94,748,19,46,8
3371,-339,99,800,-40,7,13
3372,-257,-116,732,-68,-47,-6
3373,118,-96,1017,28,-62,-7
3374,344,-42,937,14,-36,3
3375,322,-10,1054,15,19,6
3376,-32,24,813,-5,55,10
3377,-280,141,680,24,43,15
3378,-340,-25,842,-90,-30,4
3379,-74,-132,955,3,-56,-4
3380,254,-92,1033,12,-54,1
3381,360,-45,1088,38,-11,7
3382,123,19,971,1,50,10
3383,-184,103,758,26,57,13
3384,-340,79,789,-33,1,18
3385,-244,-105,746,-58,-36,-3
3386,124,-93,1023,25,-61,-6
3387,351,-65,933,11,-41,2
3388,300,1,1025,27,29,8
3389,-27,48,811,9,62,12
3390,-279,122,698,25,37,15
3391,-336,-34,851,-74,-21,1
3392,-71,-115,979,6,-55,-9
3393,264,-113,1005,3,-58,0
3394,350,-32,1099,50,-4,8
3395,104,38,967,-1,54,8
3396,-184,82,710,25,55,10
3397,-337,80,755,-27,-1,14
3398,-237,-90,775,-55,-36,-3
3399,144,-120,1005,10,-65,-6
3400,356,-50,946,33,-36,2
3401,286,24,1014,16,29,7
3402,-41,25,757,-19,55,7
3403,-300,136,728,25,29,16
3404,-330,-22,865,-89,-27,3
3405,-50,-137,958,-1,-55,-11
3406,273,-95,1005,11,-61,-3
3407,357,-13,1106,34,-4,7
3408,108,17,975,-38,46,3
3409,-188,99,703,-8,35,4
3410,-347,78,740,-40,-3,11
3411,-225,-112,769,-66,-38,-5
3412,158,-112,1010,22,-68,-8
3413,368,-34,971,20,-37,-1
3414,279,2,989,-12,29,1
3415,-55,35,772,-8,55,2
3416,-313,149,762,7,27,9
3417,-327,-49,870,-86,-19,-3
3418,-44,-146,968,6,-60,-13
3419,280,-87,1006,17,-54,-8
3420,362,-27,1104,32,-2,-3
3421,82,4,957,12,70,0
3422,-209,107,687,60,55,8
3423,-345,76,743,-38,4,3
3424,-211,-116,781,-56,-37,-14
3425,167,-111,1027,25,-74,-11
3426,370,-41,969,24,-29,-6
3427,263,-10,964,2,30,-5
3428,-65,43,751,-24,44,-1
3429,-326,158,772,11,19,10
3430,-327,-46,854,-102,-22,-4
3431,-31,-136,955,15,-60,-12
3432,285,-86,1002,7,-62,-9
3433,359,-37,1092,22,1,-3
3434,86,8,970,10,64,-1
3435,-208,117,675,44,43,7
3436,-351,61,725,-40,8,4
3437,-209,-109,789,-47,-42,-10
3438,177,-84,1022,34,-73,-6
3439,368,-43,980,15,-26,-2
3440,267,-13,948,2,27,-4
3441,-59,61,758,-27,42,-1
3442,-320,134,764,6,26,13
3443,-332,-68,846,-84,-21,-2
3444,-22,-122,969,26,-62,-7
3445,292,-78,1003,8,-55,0
3446,359,-22,1084,34,3,4
3447,86,24,977,-9,60,4
3448,-202,107,643,32,45,13
3449,-351,48,725,-51,5,9
3450,-197,-108,808,-42,-38,-4
3451,181,-95,1033,21,-74,-4
3452,370,-48,966,17,-25,2
3453,254,5,972,14,38,5
3454,-72,51,766,31,70,11
3455,-333,122,785,15,31,17
3456,-323,-67,861,-84,-19,4
3457,-8,-115,978,23,-71,-5
3458,290,-74,990,-2,-53,-2
3459,355,-7,1095,34,5,6
3460,67,25,993,-3,63,6
3461,-213,96,651,26,49,11
3462,-348,47,773,-43,8,8
3463,-182,-120,817,-47,-47,-9
3464,186,-93,1040,26,-71,-9
3465,368,-33,979,21,-24,-2
3466,242,2,976,7,35,-1
3467,-91,42,781,-3,60,-1
3468,-338,118,813,8,25,5
3469,-314,-77,876,-79,-22,-5
3470,-5,-135,976,24,-67,-11
3471,292,-77,990,10,-52,-5
3472,351,-11,1109,38,2,-1
3473,61,15,989,-23,52,-6
3474,-219,113,663,16,36,3
3475,-344,55,776,-50,1,6
3476,-185,-126,822,-45,-45,-10
3477,186,-99,1042,33,-69,-7
3478,373,-29,990,28,-27,0
3479,245,-4,963,-1,34,-1
3480,-88,47,785,-14,47,1
3481,-337,130,806,14,23,10
3482,-305,-71,873,-83,-22,-2
3483,-4,-124,976,30,-64,-7
3484,296,-66,999,9,-54,-1
3485,344,-13,1100,31,4,3
3486,58,20,989,-25,49,-1
3487,-216,109,667,3,36,7
3488,-343,44,775,-47,5,10
3489,-174,-116,823,-42,-45,-5
3490,186,-79,1045,34,-70,-5
3491,370,-29,987,18,-24,2
3492,239,0,966,-3,34,1
3493,-100,59,802,-8,52,2
3494,-334,121,825,-5,25,13
3495,-304,-83,879,-85,-23,-1
3496,5,-122,978,28,-67,-9
3497,295,-69,1004,5,-51,-3
3498,351,-23,1092,28,7,5
3499,49,28,997,-4,60,3
3500,-222,109,695,13,39,10
3501,-340,32,793,-51,3,8
3502,-175,-105,841,-33,-47,-9
3503,193,-87,1046,17,-70,-7
3504,364,-50,983,16,-21,0
3505,228,-3,969,10,38,-1
3506,-94,47,811,13,61,4
3507,-331,115,826,4,24,9
3508,-296,-61,896,-75,-22,-1
3509,1,-120,979,14,-66,-8
3510,298,-80,993,3,-49,-4
3511,335,-19,1096,34,8,2
3512,52,24,1006,8,65,5
3513,-217,98,697,21,43,12
3514,-335,44,819,-41,5,9
3515,-168,-102,837,-40,-43,-7
3516,189,-92,1042,16,-70,-6
3517,364,-40,981,21,-20,3
3518,228,18,986,14,37,6
3519,-90,45,822,7,65,10
3520,-331,110,839,5,24,12
3521,-297,-54,909,-73,-21,2
3522,10,-124,972,14,-67,-4
3523,300,-84,992,2,-47,0
3524,334,-8,1100,36,8,7
3525,48,36,1017,-12,58,10
3526,-215,89,699,10,41,15
3527,-337,46,838,-41,3,10
3528,-164,-115,840,-46,-43,-5
3529,198,-104,1034,23,-69,-4
3530,354,-31,995,22,-20,3
3531,223,12,985,-1,32,5
3532,-92,42,827,-16,52,6
3533,-329,120,878,11,19,15
3534,-290,-71,913,-90,-25,1
3535,10,-136,964,20,-62,-6
3536,287,-71,1004,13,-49,0
3537,328,-4,1096,25,7,6
3538,53,33,1012,-30,45,4
3539,-210,108,756,9,37,11
3540,-332,41,871,-50,0,10
3541,-170,-131,823,-51,-43,-4
3542,190,-93,1047,34,-67,-2
3543,347,-38,997,14,-23,5
3544,223,2,967,-1,31,5
3545,-87,67,849,-17,44,7
3546,-317,117,877,-3,19,17
3547,-295,-73,914,-88,-25,2
3548,2,-122,973,23,-62,-5
3549,290,-79,1002,5,-50,2
3550,324,-13,1088,29,7,7
3551,55,40,1021,-28,43,5
3552,-197,103,744,-2,34,12
3553,-334,40,864,-45,1,10
3554,-172,-111,831,-49,-43,-3
3555,190,-87,1047,28,-65,-2
3556,354,-39,989,15,-23,4
3557,230,5,980,-1,32,6
3558,-79,62,832,-26,46,6
3559,-322,128,871,7,23,15
3560,-295,-69,901,-93,-25,1
3561,0,-122,974,20,-59,-5
3562,298,-81,1006,0,-51,1
3563,333,-18,1087,23,6,7
3564,50,43,1020,-26,46,4
3565,-209,100,735,-8,35,11
3566,-342,32,841,-52,-1,8
3567,-169,-107,844,-45,-43,-4
3568,196,-100,1046,16,-65,-3
3569,358,-50,988,13,-21,3
3570,221,9,980,1,33,4
3571,-98,59,827,-20,48,6
3572,-329,108,852,-3,18,13
3573,-290,-67,912,-81,-24,2
3574,13,-123,978,16,-59,-6
3575,298,-90,995,0,-48,0
3576,326,-10,1093,33,7,5
3577,44,43,1023,-24,49,6
3578,-218,91,724,-1,35,12
3579,-334,46,850,-47,-3,11
3580,-157,-100,850,-42,-43,-5
3581,205,-117,1035,11,-66,-4
3582,345,-44,995,25,-19,2
3583,211,16,993,-1,33,5
3584,-94,44,838,-9,51,7
3585,-315,132,898,10,19,14
3586,-270,-44,940,-87,-24,3
3587,21,-130,965,3,-61,-9
3588,287,-86,993,4,-44,-1
3589,315,-28,1097,21,8,6
3590,32,8,1025,-13,54,7
3591,-214,107,787,22,35,12
3592,-316,63,901,-46,-1,11
3593,-150,-101,848,-46,-43,-7
3594,195,-88,1046,17,-64,-6
3595,342,-42,1010,15,-18,3
3596,200,-15,982,1,37,5
3597,-109,39,882,10,55,9
3598,-317,127,949,8,19,16
3599,-265,-52,945,-77,-23,1
3600,23,-123,960,10,-63,-8
3601,295,-73,1005,9,-43,-3
3602,314,-19,1088,24,11,5
3603,22,15,1054,-3,58,9
3604,-224,88,817,23,40,17
3605,-317,54,931,-35,1,12
3606,-140,-107,852,-50,-47,-6
3607,205,-80,1052,27,-63,-6
3608,342,-38,1013,7,-15,4
3609,195,-14,980,-4,35,5
3610,-122,50,903,-8,47,8
3611,-328,125,962,5,20,14
3612,-255,-64,934,-84,-28,2
3613,30,-112,973,17,-61,-4
3614,296,-75,1007,-2,-42,0
3615,320,-47,1065,15,9,6
3616,21,17,1076,6,57,9
3617,-240,100,824,10,35,14
3618,-326,37,909,-47,1,11
3619,-140,-90,874,-31,-45,-6
3620,200,-83,1064,16,-66,-5
3621,358,-71,998,5,-16,2
3622,199,1,1002,15,37,4
3623,-125,56,930,-14,46,7
3624,-348,94,962,-1,21,14
3625,-264,-49,924,-68,-28,1
3626,45,-91,980,18,-64,-6
3627,301,-80,1002,-6,-40,-2
3628,327,-30,1059,29,11,4
3629,26,30,1104,0,56,9
3630,-247,83,826,11,42,15
3631,-338,38,918,-34,-3,9
3632,-132,-82,889,-32,-52,-5
3633,218,-90,1046,9,-62,-5
3634,362,-64,1019,11,-14,3
3635,197,9,1007,23,40,8
3636,-140,60,912,-3,58,14
3637,-345,98,984,3,23,17
3638,-266,-52,920,-70,-31,2
3639,53,-112,975,8,-68,-4
3640,321,-92,992,-1,-38,0
3641,339,-26,1075,28,13,6
3642,0,16,1078,2,60,11
3643,-273,91,813,18,42,17
3644,-338,62,939,-38,-4,11
3645,-113,-88,900,-37,-57,-5
3646,242,-97,1050,6,-60,-4
3647,371,-44,1046,20,-10,4
3648,185,-6,1011,4,43,9
3649,-172,48,907,8,59,15
3650,-356,112,1006,11,21,17
3651,-258,-69,880,-81,-37,1
3652,86,-119,969,16,-66,-6
3653,338,-69,1010,10,-34,1
3654,336,-24,1068,19,17,6
3655,-19,21,1061,-10,57,8
3656,-280,120,830,22,42,15
3657,-342,42,935,-58,-13,10
3658,-102,-114,906,-31,-56,-6
3659,253,-94,1056,15,-58,-5
3660,382,-65,1054,11,-12,3
3661,156,-17,1012,-5,42,7
3662,-195,72,927,-2,50,10
3663,-363,113,997,-3,12,14
3664,-245,-66,854,-74,-36,-1
3665,111,-95,983,17,-68,-5
3666,342,-77,1014,0,-33,-1
3667,315,-47,1039,13,23,5
3668,-33,36,1058,22,60,14
3669,-292,116,846,13,44,16
3670,-333,29,953,-53,-18,9
3671,-72,-97,929,-21,-63,-6
3672,273,-98,1053,9,-51,-5
3673,361,-72,1049,9,-7,4
3674,124,0,1046,-1,39,8
3675,-200,69,922,-2,49,14
3676,-351,109,993,-10,8,18
3677,-226,-57,842,-62,-44,2
3678,131,-102,998,7,-61,-4
3679,337,-92,991,6,-28,3
3680,302,-25,1056,18,21,11
3681,-39,38,1009,1,52,9
3682,-296,133,884,-13,23,14
3683,-320,29,972,-74,-24,11
3684,-56,-108,938,-23,-57,0
3685,273,-110,1037,0,-53,0
3686,362,-80,1054,19,-1,8
3687,135,3,1061,26,57,15
3688,-200,102,948,21,55,13
3689,-353,98,976,-44,-1,18
3690,-243,-73,828,-63,-40,2
3691,133,-103,1022,-4,-68,-3
3692,361,-105,987,0,-33,4
3693,305,-21,1044,35,31,9
3694,-48,42,988,25,67,14
3695,-340,123,939,1,29,16
3696,-335,26,986,-63,-24,10
3697,-42,-112,950,-28,-62,-3
3698,301,-120,1003,5,-55,-1
3699,359,-66,1067,28,4,6
3700,99,8,1062,8,56,13
3701,-246,88,942,-2,42,11
3702,-366,91,957,-31,-4,14
3703,-207,-79,855,-56,-50,1
3704,194,-108,1018,19,-66,-4
3705,371,-88,1022,11,-24,1
3706,256,-14,1013,18,30,7
3707,-98,55,968,-18,53,14
3708,-356,121,993,16,28,19
3709,-293,-10,967,-58,-30,7
3710,13,-118,945,-6,-62,-2
3711,327,-90,1026,9,-54,2
3712,359,-51,1053,14,7,9
3713,50,26,1095,28,67,15
3714,-265,104,918,5,41,17
3715,-369,58,933,-38,-6,16
3716,-165,-91,882,-46,-54,1
3717,225,-101,1033,21,-69,3
3718,394,-54,1043,13,-19,9
3719,232,11,1013,13,39,13
3720,-131,63,960,-12,59,18
3721,-385,111,1022,14,30,24
3722,-297,-46,912,-69,-28,10
3723,52,-122,961,1,-74,1
3724,348,-101,1018,2,-46,4
3725,366,-53,1051,20,16,9
3726,21,32,1096,-10,48,11
3727,-294,122,904,-4,39,18
3728,-382,48,945,-47,-3,15
3729,-133,-105,899,-37,-60,1
3730,249,-106,1043,15,-67,-2
3731,399,-79,1050,14,-13,8
3732,196,-5,1033,11,38,11
3733,-179,83,970,-19,45,13
3734,-380,102,1003,-10,18,19
3735,-275,-55,863,-60,-38,9
3736,93,-98,986,14,-72,0
3737,357,-103,1020,0,-37,4
3738,339,-40,1030,21,17,9
3739,-12,52,1078,-2,47,12
3740,-303,101,910,1,46,21
3741,-360,19,950,-37,-13,14
3742,-100,-80,944,-9,-63,3
3743,273,-109,1027,-2,-57,2
3744,376,-77,1041,20,-11,7
3745,160,29,1088,23,42,15
3746,-184,74,953,10,65,17
3747,-371,66,964,-6,13,16
3748,-266,-66,856,-43,-44,5
3749,124,-95,1001,15,-67,0
3750,360,-74,1024,12,-38,7
3751,311,-4,1032,22,25,13
3752,-34,53,1024,-12,52,13
3753,-328,89,946,-23,26,14
3754,-327,-6,965,-51,-26,11
3755,-55,-97,943,-7,-61,2
3756,293,-99,1017,17,-56,4
3757,358,-47,1049,17,-3,14
3758,118,57,1116,27,55,17
3759,-212,73,933,1,55,17
3760,-367,43,930,-19,4,16
3761,-210,-75,893,-41,-47,6
3762,173,-110,1005,12,-70,3
3763,366,-67,1029,20,-28,12
3764,266,32,1032,22,31,22
3765,-83,61,976,-13,61,20
3766,-352,78,993,15,36,22
3767,-306,-32,937,-49,-21,13
3768,4,-127,943,-3,-67,3
3769,313,-95,1019,18,-48,12
3770,354,1,1072,35,9,22
3771,65,61,1110,-6,53,21
3772,-254,83,875,14,55,23
3773,-369,29,946,-28,6,17
3774,-162,-110,912,-33,-57,5
3775,212,-136,1009,14,-68,6
3776,379,-52,1063,31,-17,25
3777,211,35,1046,20,37,29
3778,-136,69,964,20,69,23
3779,-351,79,987,-3,26,19
3780,-294,-72,868,-62,-41,10
3781,64,-133,970,8,-67,8
3782,319,-84,1001,21,-41,24
3783,339,18,1072,34,9,32
3784,27,54,1006,20,62,25
3785,-270,105,886,-14,34,16
3786,-348,-11,962,-74,-21,15
3787,-124,-135,942,-9,-54,10
3788,235,-118,1002,18,-58,21
3789,354,-22,1081,48,-13,35
3790,170,64,1083,-4,35,26
3791,-150,92,929,-36,40,23
3792,-346,52,929,-27,17,26
3793,-264,-97,831,-43,-37,13
3794,111,-128,1011,19,-62,17
3795,337,-71,995,24,-39,33
3796,294,38,1017,27,17,35
3797,-9,70,917,21,70,32
3798,-301,88,932,-6,28,23
3799,-338,-53,958,-75,-19,16
3800,-62,-143,971,6,-58,13
3801,263,-114,979,19,-56,29
3802,354,2,1093,55,-1,41
3803,113,73,1072,-17,40,26
3804,-184,100,779,-22,35,22
3805,-357,21,880,-35,15,23
3806,-198,-109,884,-31,-45,11
3807,169,-140,1026,7,-72,22
3808,360,-50,1033,46,-25,40
3809,240,63,1013,30,35,38
3810,-86,89,846,-1,52,25
3811,-327,86,950,-20,29,25
3812,-322,-85,850,-74,-27,15
3813,6,-155,978,15,-67,15
3814,295,-105,932,19,-44,33
3815,360,52,1115,56,3,39
3816,74,68,908,-40,37,24
3817,-216,125,730,20,48,22
3818,-364,13,913,-76,-4,16
3819,-157,-139,945,-23,-58,5
3820,198,-149,1003,2,-59,16
3821,350,-27,1110,67,-19,33
3822,184,38,968,3,37,30
3823,-119,81,761,13,54,16
3824,-324,93,812,-28,14,21
3825,-287,-86,771,-54,-32,6
3826,73,-148,988,6,-58,5
3827,321,-65,920,40,-43,22
3828,310,42,1008,13,8,22
3829,44,52,677,-18,49,10
3830,-258,141,707,21,35,11
3831,-355,-23,855,-87,-16,2
3832,-104,-156,940,-9,-51,-9
3833,227,-134,967,13,-62,-3
3834,368,-34,1091,55,-11,10
3835,122,9,811,12,61,7
3836,-154,131,476,44,37,7
3837,-363,86,566,-44,20,10
3838,-220,-94,705,-51,-39,-10
3839,149,-111,898,22,-78,-8
3840,393,-49,963,32,-28,-1
3841,256,-30,825,1,36,4
3842,-69,72,580,23,44,5
3843,-349,160,651,21,42,18
3844,-335,-80,684,-101,-22,1
3845,-7,-119,875,21,-77,-15
3846,311,-88,873,-1,-51,-7
3847,376,-31,1014,11,0,-1
3848,58,10,684,-34,39,-3
3849,-204,162,377,45,41,10
3850,-377,51,522,-88,4,4
3851,-144,-112,742,-13,-61,-13
3852,209,-96,916,10,-59,-8
3853,397,-36,1047,49,-23,-1
3854,191,-46,800,-52,30,-4
3855,-133,84,533,33,44,1
3856,-359,127,604,-25,26,12
3857,-311,-116,609,-70,-40,-9
3858,65,-112,836,34,-61,-10
3859,336,-58,782,28,-45,-4
3860,361,-18,974,8,14,-3
3861,36,12,551,-22,46,-5
3862,-244,166,382,30,34,13
3863,-373,-7,559,-89,-6,0
3864,-115,-123,792,-7,-68,-15
3865,217,-90,924,-4,-71,-9
3866,381,-28,1054,38,-18,1
3867,150,0,773,-34,38,-2
3868,-157,97,511,44,64,9
3869,-346,84,520,-25,7,12
3870,-272,-112,571,-63,-40,-11
3871,116,-112,856,47,-52,-7
3872,361,-34,798,26,-46,0
3873,327,27,902,-9,14,-4
3874,-4,25,549,-1,66,4
3875,-278,157,461,46,44,14
3876,-355,-17,641,-100,-26,-2
3877,-83,-147,863,-5,-50,-10
3878,248,-106,941,4,-71,-5
3879,368,-13,1077,46,-5,1
3880,111,-8,814,-56,48,-6
3881,-164,108,478,-12,21,3
3882,-338,96,523,-33,10,12
3883,-235,-117,637,-78,-39,-9
3884,134,-117,915,45,-58,-11
3885,361,-15,904,29,-34,-3
3886,287,-5,896,-20,17,-2
3887,-34,12,574,-18,52,3
3888,-292,164,566,34,29,18
3889,-338,-42,718,-99,-20,0
3890,-61,-155,916,15,-48,-11
3891,257,-93,986,21,-59,-1
3892,354,-13,1076,30,-9,8
3893,86,6,849,-45,46,-5
3894,-174,118,509,1,25,6
3895,-338,82,558,-37,7,14
3896,-215,-127,719,-69,-32,-9
3897,151,-116,960,41,-66,-6
3898,359,-22,941,25,-36,-1
3899,263,-10,906,-13,31,-4
3900,-38,42,619,7,49,0
3901,-295,164,617,12,24,12
3902,-328,-58,748,-101,-18,-4
3903,-45,-146,919,10,-65,-14
3904,260,-78,985,12,-54,-6
3905,350,-26,1076,18,-3,3
3906,91,4,870,-40,38,-5
3907,-166,128,511,-1,24,5
3908,-326,58,583,-51,5,9
3909,-205,-126,731,-47,-33,-10
3910,153,-95,971,22,-71,-5
3911,354,-31,936,30,-28,3
3912,257,-6,914,-8,29,2
3913,-42,67,647,-6,45,6
3914,-293,155,650,-6,16,17
3915,-318,-65,758,-85,-5,4
3916,-31,-122,940,16,-61,-7
3917,262,-85,981,2,-54,1
3918,337,-31,1072,23,4,7
3919,89,19,899,-43,40,3
3920,-177,113,560,-12,25,10
3921,-331,51,645,-58,4,12
3922,-191,-109,778,-46,-37,-4
3923,159,-92,974,19,-67,-6
3924,351,-29,952,16,-27,2
3925,252,2,929,1,33,3
3926,-57,60,705,35,68,6
3927,-303,128,701,16,32,15
3928,-311,-62,801,-86,-18,-1
3929,-20,-129,954,12,-59,-9
3930,265,-104,990,8,-46,-4
3931,330,-24,1070,35,3,3
3932,58,20,930,-30,44,-1
3933,-191,87,599,-11,28,6
3934,-321,52,697,-37,-1,8
3935,-175,-97,786,-48,-39,-7
3936,170,-93,1009,25,-65,-8
3937,339,-26,949,19,-29,2
3938,238,8,955,11,33,4
3939,-72,23,734,-5,54,8
3940,-295,108,697,14,24,16
3941,-298,-44,810,-68,-17,1
3942,-21,-116,971,12,-62,-10
3943,257,-79,1008,1,-55,-2
3944,325,-7,1095,42,4,5
3945,74,29,963,-12,52,7
3946,-173,85,663,24,44,12
3947,-315,46,744,-33,5,13
3948,-202,-115,769,-49,-38,-4
3949,155,-89,991,21,-67,-5
3950,334,-12,945,26,-25,3
3951,259,21,989,0,29,4
3952,-42,37,753,1,58,8
3953,-289,117,711,21,32,13
3954,-302,-57,807,-82,-19,0
3955,-32,-113,968,12,-58,-11
3956,256,-72,1024,-4,-55,-5
3957,335,-21,1095,33,2,4
3958,66,8,930,-19,50,2
3959,-192,87,699,6,41,9
3960,-313,45,749,-39,1,11
3961,-199,-120,764,-48,-35,-6
3962,150,-82,1025,35,-60,-6
3963,325,-28,927,12,-31,-1
3964,272,12,1032,7,30,4
3965,-43,50,778,-12,48,3
3966,-269,123,682,-12,25,10
3967,-310,-65,799,-89,-22,0
3968,-43,-118,952,21,-52,-10
3969,236,-74,1034,16,-47,-3
3970,331,-31,1086,19,-7,1
3971,79,9,944,-5,50,2
3972,-188,94,733,41,53,6
3973,-309,51,781,-49,1,8
3974,-206,-117,768,-47,-36,-9
3975,133,-90,1025,17,-61,-10
3976,312,-47,901,12,-32,-1
3977,283,14,1082,21,25,4
3978,-31,47,824,-21,40,3
3979,-242,126,636,0,34,11
3980,-310,-29,785,-75,-19,1
3981,-58,-115,932,5,-50,-10
3982,230,-90,1027,13,-46,-3
3983,332,-25,1086,30,-11,3
3984,99,4,948,-13,46,6
3985,-176,72,739,38,56,10
3986,-317,61,787,-27,7,12
3987,-223,-100,785,-43,-37,-5
3988,123,-88,1016,10,-60,-7
3989,307,-55,893,13,-35,-1
3990,291,23,1113,22,20,5
3991,-14,26,893,-25,46,5
3992,-233,96,612,9,27,10
3993,-323,-1,784,-65,-15,5
3994,-75,-110,898,-7,-56,-6
3995,229,-87,1036,11,-51,-3
3996,339,-11,1075,40,-9,5
3997,122,0,963,-24,36,5
3998,-176,52,750,-6,40,8
3999,-313,94,836,-20,14,13
4000,-236,-99,785,-61,-36,-3
4001,88,-95,1001,31,-56,-7
4002,304,-45,932,16,-31,0
4003,311,4,1099,14,12,2
4004,-16,25,919,-25,50,4
4005,-237,116,620,35,37,15
4006,-305,9,748,-70,-8,5
4007,-80,-104,881,-4,-51,-11
4008,232,-87,1034,15,-48,-5
4009,349,-28,1039,26,-14,2
4010,137,-10,942,-19,37,2
4011,-162,61,760,22,50,10
4012,-317,109,810,2,20,14
4013,-239,-92,811,-76,-30,-3
4014,67,-114,970,25,-58,-7
4015,285,-59,955,11,-32,-3
4016,300,-1,1103,15,10,1
4017,-19,5,935,-16,52,1
4018,-223,133,621,48,35,13
4019,-292,29,739,-62,1,2
4020,-91,-126,841,-26,-45,-13
4021,196,-91,1034,29,-53,-6
4022,324,-35,990,19,-14,-1
4023,170,-13,930,-14,31,-1
4024,-112,67,763,15,45,5
4025,-302,136,786,8,17,12
4026,-241,-78,829,-86,-22,-4
4027,45,-112,985,30,-57,-9
4028,268,-72,980,2,-38,-2
4029,288,-28,1093,24,10,6
4030,25,5,969,-27,40,2
4031,-188,114,690,19,26,10
4032,-291,35,753,-51,-5,10
4033,-140,-110,802,-36,-39,-6
4034,178,-65,1035,23,-59,-4
4035,318,-32,947,9,-17,3
4036,199,-2,987,-1,33,6
4037,-87,56,790,14,48,6
4038,-276,110,735,-15,18,9
4039,-274,-61,820,-72,-22,-1
4040,-11,-99,988,10,-58,-10
4041,247,-94,1005,-11,-46,-4
4042,305,-32,1078,30,1,2
4043,42,24,958,-3,50,4
4044,-185,85,734,28,45,10
4045,-292,42,754,-41,-3,9
4046,-175,-97,794,-33,-34,-9
4047,149,-87,1018,19,-55,-7
4048,305,-41,919,19,-26,-1
4049,259,16,1044,3,27,2
4050,-50,33,794,-18,39,2
4051,-257,123,657,-4,24,12
4052,-282,-24,802,-69,-21,1
4053,-27,-124,955,-13,-56,-9
4054,230,-88,1031,6,-45,-4
4055,316,-23,1100,25,-5,4
4056,103,-7,949,-14,45,8
4057,-176,86,756,44,52,11
4058,-309,81,802,-27,2,13
4059,-206,-94,795,-44,-35,-4
4060,126,-95,1008,14,-52,-6
4061,301,-50,901,19,-31,1
4062,278,8,1113,7,21,6
4063,-16,21,892,-18,43,7
4064,-230,114,621,9,25,11
4065,-312,-2,767,-67,-13,4
4066,-59,-127,897,-19,-55,-5
4067,229,-79,1034,25,-48,-2
4068,335,-4,1091,28,-9,6
4069,113,-7,942,-26,37,8
4070,-165,87,770,23,42,8
4071,-304,92,813,-27,15,11
4072,-230,-120,789,-70,-33,-6
4073,85,-112,984,21,-58,-9
4074,298,-51,947,15,-29,-2
4075,297,-9,1107,10,12,3
4076,-40,29,964,6,57,5
4077,-225,124,632,29,38,10
4078,-288,-9,736,-74,-7,5
4079,-88,-117,861,-7,-48,-12
4080,206,-81,1042,14,-51,-8
4081,331,-34,1002,22,-13,3
4082,138,-2,959,1,39,4
4083,-148,75,787,12,48,9
4084,-307,110,807,-2,15,10
4085,-235,-96,828,-86,-29,-4
4086,42,-125,985,25,-57,-10
4087,263,-73,975,9,-36,-2
4088,284,-13,1099,27,8,7
4089,-12,25,997,-10,49,6
4090,-198,112,694,16,25,10
4091,-286,19,749,-58,-8,9
4092,-124,-109,827,-31,-44,-7
4093,183,-73,1043,29,-55,-3
4094,313,-32,948,14,-18,3
4095,183,10,982,-1,30,8
4096,-93,59,793,-3,41,8
4097,-263,103,736,-20,14,12
4098,-255,-68,819,-67,-23,1
4099,-1,-114,980,8,-54,-6
4100,239,-70,1016,10,-43,-1
4101,305,-11,1092,29,5,5
4102,32,28,957,-24,45,3
4103,-188,112,752,3,32,4
4104,-282,29,768,-60,-3,8
4105,-177,-116,789,-41,-40,-12
4106,140,-85,1028,22,-53,-10
4107,295,-56,908,4,-26,-3
4108,250,5,1070,15,26,2
4109,-65,35,836,-12,41,2
4110,-241,104,658,-4,22,9
4111,-283,-26,806,-63,-23,-1
4112,-51,-108,958,-6,-52,-9
4113,213,-94,1026,5,-45,-3
4114,309,-12,1100,43,-7,2
4115,88,2,956,-18,41,4
4116,-162,76,787,10,37,6
4117,-298,83,829,-24,5,8
4118,-230,-106,804,-61,-36,-7
4119,98,-108,1002,17,-57,-6
4120,293,-54,928,18,-32,0
4121,297,2,1115,14,15,7
4122,-22,28,954,2,52,12
4123,-221,130,655,20,32,13
4124,-302,-2,778,-79,-12,7
4125,-89,-127,879,-13,-50,-7
4126,208,-76,1056,20,-51,-3
4127,332,-25,1055,21,-13,6
4128,132,-11,933,-9,39,7
4129,-159,87,806,30,49,11
4130,-312,90,820,-18,15,10
4131,-232,-107,827,-67,-30,-5
4132,65,-113,987,19,-62,-8
4133,291,-56,973,9,-34,-2
4134,292,4,1108,21,10,3
4135,-10,25,991,-21,50,4
4136,-214,112,657,23,32,11
4137,-294,7,749,-57,-1,3
4138,-101,-116,856,-24,-47,-10
4139,200,-95,1023,12,-58,-4
4140,314,-25,975,28,-12,2
4141,168,0,974,-9,31,4
4142,-94,55,791,-8,39,7
4143,-284,117,781,-6,14,12
4144,-242,-79,851,-82,-24,0
4145,11,-133,964,14,-52,-6
4146,251,-59,1021,19,-40,1
4147,288,-15,1099,17,5,10
4148,40,15,966,-2,53,8
4149,-178,114,765,31,36,12
4150,-285,32,771,-55,-3,11
4151,-156,-122,788,-38,-37,-6
4152,153,-65,1029,29,-58,-5
4153,313,-31,947,5,-24,2
4154,233,0,1027,-2,24,3
4155,-59,60,825,6,42,6
4156,-247,100,674,-9,28,12
4157,-277,-52,805,-60,-22,-1
4158,-29,-118,965,7,-49,-9
4159,229,-77,1037,12,-47,-2
4160,305,-22,1087,32,-6,3
4161,74,16,956,-6,48,8
4162,-167,90,757,24,40,7
4163,-284,74,799,-43,1,9
4164,-205,-111,799,-49,-34,-9
4165,110,-99,1014,15,-57,-10
4166,285,-59,922,13,-30,-1
4167,278,-2,1084,12,17,0
4168,-44,36,928,-13,36,1
4169,-211,115,635,11,28,12
4170,-286,-12,748,-67,-9,3
4171,-78,-106,909,-3,-54,-11
4172,212,-89,1044,11,-46,-4
4173,326,-26,1044,29,-11,3
4174,123,14,948,0,36,8
4175,-152,75,793,17,49,13
4176,-305,90,811,-5,16,13
4177,-220,-98,834,-67,-33,0
4178,64,-116,967,17,-55,-2
4179,284,-50,977,15,-33,3
4180,281,4,1105,19,10,9
4181,2,32,1013,-15,51,11
4182,-208,106,677,2,24,14
4183,-286,12,750,-67,-7,12
4184,-95,-128,861,-29,-40,-4
4185,203,-94,1024,18,-57,0
4186,310,-14,990,30,-14,8
4187,176,10,959,-14,32,10
4188,-93,51,791,-3,44,14
4189,-292,116,762,1,16,18
4190,-231,-68,836,-84,-26,4
4191,17,-128,986,16,-52,-3
4192,250,-75,1019,13,-42,4
4193,289,-14,1093,26,7,14
4194,24,12,953,-13,48,13
4195,-188,104,735,39,40,14
4196,-273,43,778,-45,-6,14
4197,-164,-128,797,-39,-36,-5
4198,148,-79,1028,35,-54,-1
4199,292,-19,949,19,-24,7
4200,237,-9,1060,-1,27,11
4201,-74,37,857,33,53,15
4202,-236,123,657,10,25,17
4203,-274,-46,780,-68,-22,5
4204,-41,-115,927,6,-48,-5
4205,224,-60,1039,19,-45,3
4206,310,-17,1086,24,-4,9
4207,84,11,960,-4,46,12
4208,-156,87,789,18,40,12
4209,-301,61,790,-44,3,13
4210,-201,-106,802,-49,-35,-3
4211,114,-87,1005,24,-59,-4
4212,304,-62,931,6,-29,3
4213,276,-12,1095,18,18,7
4214,-38,42,957,-12,43,8
4215,-226,116,626,13,22,12
4216,-282,4,745,-74,-12,4
4217,-64,-99,897,-7,-51,-8
4218,220,-71,1057,9,-55,-6
4219,318,-32,1013,21,-11,0
4220,138,-3,929,-8,35,1
4221,-158,74,784,-6,34,2
4222,-302,95,805,-15,8,7
4223,-227,-101,832,-72,-31,-4
4224,42,-111,985,28,-61,-10
4225,261,-69,986,6,-39,-4
4226,279,-15,1082,27,8,4
4227,10,48,1027,-10,41,1
4228,-190,93,709,-3,23,7
4229,-293,11,743,-47,-8,4
4230,-124,-91,855,-26,-44,-7
4231,188,-89,1013,13,-59,-5
4232,309,-46,962,24,-20,0
4233,212,13,1005,5,25,4
4234,-71,44,817,0,41,4
4235,-264,102,720,-3,20,9
4236,-257,-42,854,-59,-25,-1
4237,-20,-113,971,3,-53,-9
4238,228,-78,1043,13,-48,-3
4239,302,-21,1077,33,-2,4
4240,72,17,985,-7,43,5
4241,-178,84,784,13,36,6
4242,-295,60,842,-38,-2,10
4243,-214,-112,797,-48,-37,-3
4244,122,-90,1016,27,-59,-5
4245,292,-36,921,19,-31,3
4246,284,11,1108,17,19,5
4247,-18,50,963,-2,46,6
4248,-229,117,656,12,31,11
4249,-306,-11,780,-74,-13,4
4250,-64,-121,913,-5,-52,-6
4251,239,-92,1036,14,-50,-3
4252,331,-18,1069,40,-10,2
4253,135,27,951,-8,40,2
4254,-172,77,792,2,44,3
4255,-305,96,836,-22,10,5
4256,-219,-99,837,-78,-32,-7
4257,72,-130,983,17,-60,-10
4258,278,-64,988,23,-33,-4
4259,298,-8,1080,18,11,1
4260,-2,41,1011,-2,48,-2
4261,-212,133,663,6,26,3
4262,-293,18,768,-65,-5,-1
4263,-121,-126,855,-31,-46,-14
4264,179,-95,1032,18,-58,-8
4265,308,-43,977,24,-17,-2
4266,186,0,962,6,30,-2
4267,-78,80,853,9,43,1
4268,-276,112,796,-8,17,4
4269,-258,-74,871,-78,-22,-5
4270,-6,-125,961,13,-54,-8
4271,233,-65,1032,14,-45,-1
4272,300,-32,1067,19,-2,5
4273,74,46,1009,6,45,2
4274,-158,114,785,3,35,5
4275,-285,27,806,-58,2,6
4276,-206,-128,805,-43,-34,-6
4277,113,-84,1043,27,-61,-3
4278,292,-57,939,8,-33,3
4279,288,10,1049,23,20,2
4280,-18,76,883,6,43,5
4281,-233,110,672,-12,35,8
4282,-318,-40,822,-64,-16,1
4283,-89,-119,941,-5,-54,-4
4284,215,-101,1044,11,-52,2
4285,329,-37,1065,37,-13,6
4286,142,36,996,6,40,5
4287,-146,102,830,8,48,6
4288,-316,77,835,-34,12,7
4289,-250,-98,814,-60,-34,-7
4290,92,-108,1002,15,-60,-7
4291,300,-74,942,15,-36,0
4292,323,2,1102,28,12,1
4293,6,64,1019,-13,48,-3
4294,-228,96,664,2,35,2
4295,-314,3,787,-62,-3,0
4296,-119,-116,899,-17,-52,-9
4297,196,-109,1045,9,-57,-2
4298,323,-42,1012,33,-19,2
4299,199,33,967,14,30,-1
4300,-117,74,838,-7,47,-1
4301,-309,93,871,-2,20,-1
4302,-276,-82,880,-77,-25,-5
4303,-4,-137,964,15,-63,-5
4304,258,-85,986,19,-47,-1
4305,313,0,1076,35,-1,4
4306,75,60,1070,0,46,1
4307,-176,105,782,4,38,1
4308,-317,15,833,-47,4,-1
4309,-191,-120,835,-44,-40,-6
4310,146,-108,1028,31,-64,-1
4311,319,-40,969,25,-30,2
4312,264,38,1015,14,20,1
4313,-8,85,901,0,51,-1
4314,-255,114,788,-14,29,0
4315,-314,-51,892,-78,-12,-4
4316,-78,-135,961,2,-51,-7
4317,221,-91,1033,14,-56,-2
4318,336,-30,1070,29,-9,2
4319,152,51,1016,4,44,0
4320,-144,112,851,-2,47,-3
4321,-315,62,883,-44,14,-1
4322,-258,-122,813,-59,-31,-9
4323,74,-106,1014,26,-61,-6
4324,294,-60,947,13,-38,2
4325,331,6,1081,22,14,0
4326,23,72,986,6,51,0
4327,-233,120,780,3,43,-1
4328,-340,-28,890,-75,-9,-4
4329,-136,-124,913,-13,-51,-6
4330,200,-101,1049,12,-55,-3
4331,343,-48,1043,26,-20,2
4332,183,30,1004,11,36,2
4333,-134,102,918,4,48,2
4334,-326,54,928,-41,17,2
4335,-285,-104,858,-55,-28,-4
4336,43,-116,979,17,-63,-3
4337,295,-82,978,15,-41,1
4338,339,-3,1070,30,4,4
4339,45,79,1083,9,50,4
4340,-219,104,797,0,43,5
4341,-338,-5,869,-59,3,1
4342,-150,-108,896,-17,-50,-5
4343,193,-117,1038,9,-62,0
4344,347,-44,1004,37,-20,5
4345,223,45,1002,18,29,3
4346,-86,77,923,-21,50,4
4347,-331,77,916,-14,27,8
4348,-285,-53,937,-61,-22,0
4349,7,-129,975,1,-62,-4
4350,275,-98,984,13,-47,-1
4351,332,0,1080,40,2,1
4352,77,59,1090,-5,51,-2
4353,-198,72,845,-13,41,-1
4354,-325,36,905,-28,4,2
4355,-184,-97,863,-47,-41,-7
4356,155,-119,1020,19,-62,-5
4357,322,-37,998,33,-27,3
4358,259,40,1021,15,26,1
4359,-40,60,954,-11,52,2
4360,-290,89,898,-17,27,5
4361,-303,-35,965,-59,-18,1
4362,-50,-140,957,-12,-55,-4
4363,251,-105,1003,16,-53,1
4364,329,-12,1075,43,-4,4
4365,125,47,1057,-3,44,2
4366,-173,79,917,-12,44,3
4367,-329,60,951,-27,6,7
4368,-229,-96,841,-55,-38,-1
4369,114,-131,1009,12,-60,-4
4370,312,-54,970,26,-35,2
4371,303,22,1082,21,18,5
4372,-10,53,991,-7,53,6
4373,-270,98,848,9,39,6
4374,-334,-21,951,-65,-17,2
4375,-87,-141,922,-11,-54,-6
4376,231,-94,1031,29,-56,-1
4377,345,-13,1071,35,-13,4
4378,159,38,1018,-2,40,1
4379,-165,105,945,0,47,0
4380,-329,61,963,-47,10,5
4381,-266,-112,846,-54,-34,-5
4382,79,-124,993,13,-63,-6
4383,311,-81,974,22,-39,1
4384,329,18,1073,31,12,3
4385,5,84,1043,5,54,3
4386,-233,112,831,-4,44,4
4387,-336,-14,926,-62,-7,0
4388,-131,-128,913,-11,-52,-5
4389,220,-109,1036,18,-57,-1
4390,347,-37,1047,31,-18,3
4391,191,49,1007,15,36,5
4392,-143,98,944,-6,52,7
4393,-327,79,973,-22,23,10
4394,-263,-95,876,-70,-31,-1
4395,56,-122,982,19,-62,-1
4396,301,-84,986,11,-39,7
4397,332,-6,1069,28,7,8
4398,26,80,1094,5,51,5
4399,-238,104,835,-6,42,10
4400,-339,-7,914,-58,2,7
4401,-129,-108,897,-18,-51,-3
4402,206,-119,1045,7,-59,0
4403,353,-52,1001,30,-18,7
4404,207,58,1013,24,33,6
4405,-129,97,926,-10,55,8
4406,-327,83,965,-17,24,9
4407,-272,-73,924,-67,-27,0
4408,35,-133,976,5,-63,-5
4409,293,-107,974,8,-42,0
4410,322,9,1087,46,6,4
4411,46,70,1101,-10,50,5
4412,-229,82,834,-13,36,7
4413,-337,21,932,-46,1,4
4414,-145,-122,885,-36,-47,-4
4415,184,-131,1024,17,-62,-3
4416,339,-34,1013,39,-22,5
4417,225,37,996,12,31,6
4418,-106,75,933,2,55,5
4419,-315,96,962,-7,23,9
4420,-278,-70,949,-68,-24,2
4421,18,-135,964,7,-62,-2
4422,281,-88,997,15,-45,2
4423,322,2,1077,39,5,8
4424,60,76,1087,-6,48,7
4425,-211,99,862,-12,38,8
4426,-333,27,940,-46,4,7
4427,-178,-126,850,-47,-43,-7
4428,173,-127,1032,19,-64,-6
4429,333,-53,999,30,-24,4
4430,242,29,1001,18,29,2
4431,-80,71,936,-11,50,5
4432,-304,102,930,-9,22,7
4433,-280,-53,966,-68,-22,0
4434,-9,-142,963,3,-58,-5
4435,260,-84,1000,19,-48,-1
4436,324,0,1078,37,0,4
4437,85,50,1059,-12,47,2
4438,-193,107,886,-3,40,5
4439,-330,28,953,-48,3,4
4440,-199,-141,827,-51,-39,-6
4441,158,-108,1026,36,-62,-7
4442,326,-48,998,21,-28,0
4443,250,27,1010,19,27,3
4444,-50,85,945,-4,50,4
4445,-290,103,919,-15,26,7
4446,-299,-66,956,-73,-19,-2
4447,-35,-136,954,6,-56,-5
4448,248,-96,1017,14,-50,0
4449,332,-18,1061,35,-1,5
4450,103,63,1057,10,48,7
4451,-183,106,912,1,47,9
4452,-320,29,946,-46,6,10
4453,-216,-117,836,-47,-38,-1
4454,136,-101,1037,23,-64,-1
4455,324,-55,982,14,-32,4
4456,280,23,1026,22,23,6
4457,-43,82,949,4,54,9
4458,-280,101,905,-15,30,13
4459,-303,-64,958,-67,-18,5
4460,-49,-126,966,7,-55,-3
4461,254,-90,1010,9,-52,1
4462,339,-17,1058,37,-3,5
4463,104,75,1060,7,49,4
4464,-189,105,908,-12,48,4
4465,-326,30,942,-45,4,4
4466,-216,-116,839,-47,-39,-7
4467,145,-128,1018,16,-62,-7
4468,334,-74,978,18,-31,-2
4469,268,26,1048,30,24,-1
4470,-52,83,946,-14,49,2
4471,-289,105,896,-10,28,3
4472,-303,-42,986,-71,-23,-6
4473,-45,-138,953,-5,-56,-10
4474,259,-101,1006,13,-51,-1
4475,329,-13,1068,40,-5,3
4476,119,68,1056,0,46,3
4477,-188,99,919,-6,46,4
4478,-327,47,956,-39,3,5
4479,-217,-115,846,-55,-38,-4
4480,143,-128,1006,12,-62,-5
4481,321,-62,995,28,-30,2
4482,273,32,1047,25,25,5
4483,-47,82,951,1,55,6
4484,-292,99,914,-9,29,4
4485,-307,-46,975,-64,-21,-2
4486,-48,-142,952,-8,-56,-8
4487,266,-105,999,19,-52,-2
4488,330,-14,1069,40,-3,5
4489,111,66,1057,3,47,4
4490,-190,94,925,-10,46,5
4491,-324,43,954,-37,3,8
4492,-214,-109,848,-52,-39,-2
4493,144,-122,998,16,-60,-2
4494,327,-46,1005,29,-30,5
4495,274,35,1043,18,25,7
4496,-48,73,947,-17,55,10
4497,-288,98,934,-12,30,12
4498,-311,-46,975,-68,-19,3
4499,-49,-137,945,-5,-53,-3
4500,271,-80,1013,19,-52,1
4501,341,-13,1064,28,-2,8
4502,104,45,1050,0,55,9
4503,-203,96,943,3,52,10
4504,-334,33,951,-42,4,8
4505,-215,-122,843,-52,-38,-2
4506,150,-110,1022,27,-63,-4
