sequence,AccelerometerX,AccelerometerY,AccelerometerZ,GyroscopeX,GyroscopeY,GyroscopeZ
0,-230,-21,874,4,44,9
1,-305,-24,947,8,13,0
2,-94,-2,1083,-4,-40,-2
3,206,24,1140,-8,-55,3
4,285,2,1017,-1,-20,0
5,91,-8,901,-9,27,7
6,-185,-18,863,-1,44,9
7,-314,-38,920,-17,17,0
8,-148,-9,1081,5,-34,-3
9,168,14,1145,-16,-58,2
10,294,-5,1058,-1,-28,2
11,130,-24,905,-13,19,7
12,-137,-18,853,7,45,13
13,-309,-36,884,-13,27,2
14,-202,-10,1056,1,-24,-2
15,126,19,1147,-3,-57,2
16,296,5,1087,-7,-36,3
17,169,-12,949,-5,13,5
18,-80,-20,852,-3,42,12
19,-305,-20,858,-3,34,4
20,-235,-14,1008,-9,-13,-3
21,72,12,1147,-4,-56,4
22,275,0,1109,-12,-44,2
23,218,-11,979,-4,6,4
24,-43,-28,874,-4,40,11
25,-289,-37,861,-3,38,8
26,-269,-19,973,-2,-4,-2
27,2,2,1101,0,-50,0
28,266,25,1119,-4,-50,3
29,253,-1,1002,-4,-2,3
30,10,-14,882,-4,35,10
31,-250,-17,873,-2,43,8
32,-296,-24,950,-8,6,-2
33,-60,2,1081,-7,-46,-1
34,226,22,1137,-4,-54,1
35,279,-4,1006,-13,-15,2
36,71,-17,894,-4,29,9
37,-212,-28,865,-8,43,9
38,-310,-30,940,-3,15,-2
39,-115,-18,1088,-8,-38,-2
40,188,19,1136,0,-57,3
41,290,4,1036,-6,-23,1
42,108,-19,900,-7,25,6
43,-165,-12,859,2,44,11
44,-314,-29,913,-7,23,1
45,-172,-17,1056,-6,-28,-3
46,148,25,1162,-2,-58,2
47,300,5,1069,-10,-32,2
48,148,-18,921,-6,18,5
49,-114,-17,845,-5,44,12
50,-306,-38,876,-9,29,3
51,-218,-22,1025,-5,-19,-3
52,100,21,1162,-3,-57,2
53,287,0,1092,-12,-40,2
54,190,-20,963,-5,9,5
55,-62,-14,865,1,42,11
56,-293,-34,858,-7,36,6
57,-251,-18,987,-3,-8,-2
58,37,13,1134,-2,-55,-1
59,271,6,1110,-9,-46,2
60,232,1,995,-1,1,3
61,-23,-18,873,-4,39,9
62,-271,-24,862,-6,41,7
63,-283,-17,966,-6,0,-2
64,-22,6,1095,-7,-49,0
65,257,19,1121,-8,-52,2
66,262,2,1005,-12,-9,2
67,33,-23,883,-10,33,8
68,-234,-23,879,-6,43,8
69,-304,-38,938,-9,10,-3
70,-77,-5,1083,-9,-42,0
71,211,21,1145,-7,-56,2
72,272,-11,1011,-8,-17,-1
73,87,-8,905,-2,27,8
74,-196,-26,854,-6,44,11
75,-310,-28,931,-5,16,-1
76,-133,-8,1087,-6,-34,-3
77,172,12,1141,-5,-58,3
78,295,9,1057,-9,-26,1
79,120,-13,906,-10,20,7
80,-147,-17,844,-4,43,13
81,-305,-32,895,-12,26,3
82,-194,-18,1053,-7,-24,-4
83,136,9,1153,-7,-59,2
84,289,8,1086,-11,-35,1
85,165,-14,944,-4,13,6
86,-89,-13,846,-5,41,14
87,-300,-21,858,-7,33,3
88,-232,-21,1020,-12,-13,-5
89,75,7,1147,-6,-56,2
90,277,10,1109,-12,-43,2
91,204,-8,976,-8,4,2
92,-50,-25,866,-5,39,11
93,-282,-31,861,-11,35,9
94,-250,-30,981,-9,-5,-5
95,16,-8,1112,-6,-50,0
96,256,10,1111,-4,-48,3
97,245,4,1008,-4,-3,3
98,-10,-27,873,-5,37,11
99,-251,-26,865,0,40,10
100,-276,-20,970,-4,5,-2
101,-43,-12,1078,-8,-44,0
102,241,24,1137,-3,-52,4
103,266,6,1016,-9,-9,3
104,53,-25,875,-5,33,11
105,-226,-21,867,-2,44,11
106,-302,-34,948,-6,15,-2
107,-106,-24,1090,-9,-39,-2
108,191,22,1143,5,-57,2
109,281,1,1037,-4,-22,2
110,102,-23,889,-3,25,9
111,-163,0,854,6,44,13
112,-295,-30,921,-8,24,0
113,-177,-16,1064,-7,-27,-2
114,143,23,1159,2,-57,2
115,282,12,1069,-8,-32,2
116,134,-13,912,-8,17,7
117,-113,-15,843,-3,40,14
118,-289,-25,877,-6,29,2
119,-206,-22,1039,-8,-17,-3
120,107,12,1155,-7,-56,2
121,280,2,1097,-8,-39,2
122,176,-14,959,-6,10,4
123,-63,-22,853,1,40,13
124,-295,-28,869,-9,36,6
125,-241,-33,987,-6,-9,-5
126,43,3,1133,1,-54,0
127,268,11,1113,-4,-43,2
128,225,-6,993,-1,1,3
129,-21,-21,874,0,37,12
130,-265,-22,858,-2,40,8
131,-275,-18,972,-5,1,-5
132,-25,0,1095,-4,-48,0
133,246,23,1123,-3,-51,3
134,255,9,1005,-5,-9,3
135,35,-21,876,-5,32,10
136,-227,-21,879,-4,43,11
137,-297,-26,953,-11,10,-4
138,-70,-9,1086,-9,-42,-1
139,205,16,1130,-7,-54,2
140,268,4,1019,-6,-18,1
141,80,-17,899,-8,26,10
142,-197,-18,851,-4,42,10
143,-302,-31,931,-8,16,-3
144,-127,-14,1087,-10,-35,-2
145,168,16,1145,-3,-57,2
146,285,6,1052,-13,-27,0
147,103,-4,909,-9,19,7
148,-153,-17,840,-5,40,12
149,-304,-18,896,-12,22,-1
150,-178,-19,1054,-15,-28,-5
151,140,18,1154,-13,-60,2
152,282,18,1094,-15,-37,-1
153,143,-16,943,-16,10,4
154,-103,-21,833,-9,36,14
155,-283,-25,854,-13,27,2
156,-203,-24,1031,-19,-16,-9
157,82,-10,1143,-12,-55,-2
158,256,19,1122,-11,-44,0
159,155,6,985,-15,0,0
160,-88,-36,832,-13,25,14
161,-234,-9,832,-4,20,11
162,-178,4,1018,-16,-2,-18
163,40,-52,1127,-33,-41,-12
164,224,-9,1130,-10,-42,5
165,134,37,1050,-4,-9,3
166,-111,-37,803,-20,7,21
167,-220,1,790,1,-1,24
168,-121,49,989,-16,-4,-24
169,63,-71,1126,-55,-15,-54
170,197,-126,1163,-28,-29,-17
171,154,-23,1095,17,-24,32
172,-55,37,868,20,-10,55
173,-207,48,714,8,4,36
174,-156,33,855,-12,8,-22
175,67,-39,1166,-43,4,-65
176,202,-138,1278,-37,-9,-35
177,152,-114,1102,16,-16,29
178,-33,46,895,51,-11,71
179,-204,93,692,27,4,59
180,-178,28,734,-8,21,-8
181,8,2,1166,-22,23,-73
182,137,-119,1366,-41,-7,-44
183,202,-116,1096,13,-31,36
184,-12,101,939,58,-7,54
185,-177,76,660,8,8,49
186,-185,1,681,-12,18,7
187,-62,58,1199,-14,23,-66
188,123,-126,1349,-61,-24,-41
189,215,-84,1073,12,-41,36
190,35,103,981,38,-7,37
191,-140,6,674,-18,9,41
192,-189,-35,718,-6,19,17
193,-77,61,1170,-4,24,-55
194,92,-150,1274,-57,-22,-40
195,227,-99,1064,13,-39,36
196,108,89,1015,48,1,30
197,-92,-31,733,-6,26,33
198,-195,-61,738,16,36,22
199,-214,84,1169,21,28,-36
200,13,-114,1156,-41,-41,-13
201,226,16,1069,35,-47,27
202,180,108,1029,19,3,-2
203,-4,-68,759,-28,35,13
204,-244,-24,860,17,40,21
205,-276,64,1108,2,11,-17
206,-32,-86,1047,-32,-50,-5
207,200,54,1094,12,-56,11
208,270,65,1046,-11,-18,-3
209,48,-64,843,-34,26,10
210,-203,-23,865,11,41,13
211,-254,8,1005,-6,15,-7
212,-90,-84,1028,-32,-31,-2
213,153,11,1140,6,-49,4
214,254,21,1096,-10,-23,-2
215,46,-31,892,-13,16,9
216,-163,-12,804,10,31,18
217,-234,29,900,-2,17,1
218,-127,-22,1060,-27,-20,-14
219,137,-8,1168,-15,-48,-1
220,249,33,1133,-9,-31,2
221,56,15,942,-20,9,6
222,-152,-36,759,-16,16,24
223,-208,1,817,-3,8,11
224,-110,25,1105,-27,-2,-34
225,110,-106,1159,-46,-37,-22
226,229,-36,1135,-4,-35,10
227,69,35,1022,4,-3,13
228,-132,-44,752,-8,7,32
229,-207,8,777,9,7,23
230,-63,35,1029,-12,9,-39
231,83,-99,1200,-46,-9,-49
232,215,-128,1127,-7,-30,13
233,149,39,1073,43,-7,35
234,-103,-4,793,12,18,39
235,-193,-27,694,20,27,27
236,-167,41,1017,17,28,-29
237,-31,-64,1235,-34,-17,-35
238,227,-83,1125,14,-50,23
239,184,98,1037,44,-6,11
240,-4,-20,780,-5,32,7
241,-182,-64,743,15,37,31
242,-271,78,1094,21,24,-10
243,-70,-49,1175,-28,-37,-18
244,185,0,1063,17,-58,14
245,256,98,1040,14,-18,6
246,97,-45,827,-29,28,12
247,-187,-40,842,6,50,18
248,-301,27,1042,2,26,-9
249,-140,-84,1029,-25,-35,-1
250,152,18,1106,17,-59,11
251,296,24,1078,-6,-27,1
252,128,-52,904,-13,22,11
253,-138,-12,879,14,47,15
254,-281,-15,900,2,29,4
255,-192,-35,987,-1,-17,3
256,102,28,1147,7,-51,3
257,273,19,1125,-4,-34,2
258,157,-9,969,-3,10,8
259,-74,-4,848,4,39,14
260,-282,-17,840,-6,34,9
261,-233,-16,985,-11,-8,-2
262,47,0,1153,-6,-53,0
263,258,3,1126,-10,-45,0
264,223,-18,979,-3,1,6
265,-25,-37,859,-3,37,15
266,-271,-33,862,0,41,10
267,-268,-34,988,-2,1,-3
268,-17,-8,1101,2,-48,0
269,250,18,1105,4,-51,3
270,270,4,999,0,-8,4
271,25,-20,878,0,37,12
272,-245,-12,897,2,47,9
273,-300,-19,971,-4,10,1
274,-72,0,1056,-3,-42,1
275,218,32,1128,-2,-54,1
276,282,1,1014,-8,-15,1
277,77,-22,904,-4,31,10
278,-200,-15,878,-2,46,11
279,-306,-37,927,-7,17,1
280,-134,-21,1072,-7,-32,-1
281,173,17,1142,2,-56,2
282,289,0,1052,-8,-25,1
283,110,-21,901,-4,23,6
284,-146,-7,853,5,43,13
285,-300,-30,893,-4,26,3
286,-193,-6,1053,-3,-23,-3
287,134,23,1165,-5,-57,0
288,291,0,1077,-10,-34,1
289,155,-9,934,-6,16,6
290,-93,-10,848,-6,42,12
291,-300,-28,862,-12,31,4
292,-232,-15,1024,-9,-15,-4
293,93,20,1150,-7,-58,1
294,279,0,1097,-13,-40,3
295,201,-8,974,-7,8,3
296,-52,-22,869,-7,40,12
297,-297,-29,864,-12,35,5
298,-253,-22,980,-10,-8,-3
299,26,9,1115,-4,-52,1
300,271,9,1110,-15,-47,2
301,236,-9,1004,-8,0,2
302,-13,-25,886,-7,37,11
303,-260,-27,868,-7,39,9
304,-282,-28,949,-9,4,-3
305,-36,-1,1089,-10,-46,0
306,241,18,1129,-9,-52,2
307,264,-3,1013,-8,-10,3
308,49,-22,885,-4,33,10
309,-223,-29,868,-4,44,11
310,-305,-31,941,-8,14,-1
311,-87,-8,1090,-7,-39,0
312,194,19,1145,-6,-54,3
313,277,-1,1023,-7,-19,0
314,91,-8,902,-7,26,8
315,-187,-21,843,-8,46,9
316,-307,-31,929,-6,20,-1
317,-150,-12,1082,-10,-33,-3
318,163,15,1157,-3,-58,3
319,292,2,1055,-13,-28,-1
320,127,-11,915,-10,18,7
321,-131,-24,839,-6,43,13
322,-298,-34,882,-9,26,3
323,-199,-23,1049,-6,-22,-4
324,119,14,1164,-7,-57,3
325,286,-2,1087,-9,-37,3
326,168,-19,950,-5,11,6
327,-82,-9,852,1,40,13
328,-293,-29,852,-8,33,5
329,-233,-15,1008,-10,-12,-3
330,70,11,1143,-4,-56,3
331,267,13,1117,-10,-43,2
332,212,-8,985,-8,3,3
333,-46,-26,867,-4,39,11
334,-274,-29,852,-6,39,7
335,-251,-24,978,-7,-2,-3
336,-3,-5,1109,-9,-49,0
337,255,8,1117,-6,-49,1
338,242,-5,1006,-5,-5,1
339,5,-35,870,-1,35,11
340,-232,-35,867,0,41,10
341,-285,-29,969,-1,10,-3
342,-55,-19,1077,-3,-42,0
343,224,25,1143,11,-50,4
344,266,1,1004,2,-11,0
345,62,-18,884,-1,32,10
346,-206,-14,876,8,47,14
347,-305,-34,943,-14,17,0
348,-119,-12,1090,2,-34,-1
349,177,18,1138,-7,-57,3
350,282,1,1030,2,-22,4
351,108,-16,905,-5,25,9
352,-157,-24,849,3,45,13
353,-300,-38,909,-4,25,2
354,-182,-14,1065,-5,-27,-1
355,137,10,1162,3,-57,4
356,287,-5,1064,-4,-31,2
357,146,-6,930,4,17,7
358,-102,-27,835,-1,43,13
359,-300,-29,864,0,31,5
360,-215,-10,1041,2,-18,-2
361,95,20,1160,1,-56,3
362,273,8,1097,-5,-39,2
363,187,-4,970,-2,7,6
364,-45,-16,850,0,39,15
365,-285,-20,850,-1,39,9
366,-255,-19,989,-9,-6,-3
367,22,18,1138,0,-53,3
368,249,11,1119,-11,-48,3
369,229,1,997,-3,-4,3
370,-7,-30,868,-6,33,12
371,-248,-19,858,-7,39,10
372,-270,-20,973,-7,2,-4
373,-30,-4,1093,-9,-47,1
374,236,20,1125,-2,-51,3
375,250,0,1013,-8,-9,2
376,38,-35,878,-6,29,11
377,-220,-21,868,-4,41,12
378,-293,-24,955,-5,10,-3
379,-83,-20,1080,-7,-40,0
380,204,28,1148,0,-55,6
381,269,6,1022,-6,-17,0
382,88,-23,883,-7,25,8
383,-184,-15,855,1,43,15
384,-292,-27,942,-4,19,-2
385,-137,-25,1083,-9,-30,-3
386,151,23,1160,0,-56,5
387,272,9,1053,-8,-27,2
388,121,-19,890,-8,19,7
389,-133,-16,829,0,41,14
390,-281,-31,903,-7,26,1
391,-188,-27,1070,-8,-23,-3
392,118,9,1165,-4,-55,4
393,277,3,1082,-5,-34,1
394,151,-12,933,-5,12,7
395,-84,-27,818,-1,40,16
396,-277,-17,871,0,33,5
397,-225,-28,1031,-9,-10,-4
398,73,2,1149,0,-54,4
399,265,16,1122,-2,-42,5
400,189,-12,967,-3,5,5
401,-39,-27,849,3,37,15
402,-267,-17,855,-1,38,9
403,-246,-13,990,-6,-2,-6
404,1,3,1119,-5,-49,0
405,245,28,1128,-6,-50,5
406,222,4,1002,-9,-5,2
407,-8,-30,862,-8,31,11
408,-231,-21,851,-4,35,11
409,-263,-19,972,-9,5,-6
410,-43,-17,1101,-13,-43,-3
411,228,11,1130,-5,-53,4
412,241,10,1023,-7,-13,1
413,40,-31,855,-8,27,8
414,-200,-41,846,-4,37,14
415,-269,-21,973,-2,12,-5
416,-83,-36,1099,-12,-37,-6
417,185,6,1144,2,-53,5
418,255,24,1042,7,-19,3
419,79,-24,863,-5,25,10
420,-166,-26,817,5,41,17
421,-281,-4,956,2,22,-3
422,-136,-31,1099,-12,-29,-6
423,150,9,1151,3,-54,8
424,274,24,1070,-1,-25,3
425,120,-22,889,-6,20,8
426,-128,-35,811,1,41,17
427,-285,-13,907,5,29,2
428,-190,-30,1061,-5,-18,-8
429,114,-3,1152,0,-54,6
430,283,16,1106,5,-34,5
431,167,-17,946,-2,17,6
432,-76,-33,827,4,45,16
433,-296,-13,863,4,38,6
434,-242,-11,1020,-1,-9,-3
435,47,7,1132,2,-54,4
436,259,28,1120,-4,-43,3
437,218,-6,990,-4,2,4
438,-25,-27,863,-1,38,12
439,-262,-34,845,-2,39,8
440,-260,-24,984,-5,1,-1
441,-16,-4,1112,-3,-46,2
442,234,13,1119,-4,-48,3
443,246,-2,1010,2,-7,2
444,15,-22,882,1,33,11
445,-226,-35,844,-1,40,11
446,-284,-13,959,0,7,-4
447,-76,13,1099,-2,-42,-1
448,214,17,1127,-5,-57,4
449,260,16,1024,-2,-17,1
450,75,-18,880,-2,27,9
451,-193,-25,854,-5,41,13
452,-296,-26,948,-2,15,-2
453,-115,-10,1103,-5,-37,-3
454,179,14,1134,-4,-57,5
455,277,4,1038,-2,-23,2
456,104,-23,893,-6,23,7
457,-154,-26,842,1,41,13
458,-295,-30,915,-2,21,-1
459,-175,-16,1078,-1,-28,-6
460,140,19,1162,0,-58,5
461,290,6,1071,-6,-31,3
462,143,-16,914,-4,17,6
463,-97,-20,834,-1,42,12
464,-296,-26,877,-7,31,5
465,-224,-17,1042,-7,-15,-3
466,99,16,1163,-4,-58,5
467,266,6,1088,-6,-37,4
468,183,-19,960,-4,7,5
469,-52,-28,852,-3,38,14
470,-283,-33,844,-2,36,6
471,-244,-13,1003,-2,-9,-4
472,47,15,1151,0,-53,3
473,249,8,1108,-7,-44,2
474,224,1,991,1,-1,2
475,-21,-20,870,-2,36,12
476,-265,-29,845,-6,39,9
477,-274,-13,976,-2,-2,-5
478,-20,12,1114,-7,-50,0
479,240,13,1113,-8,-52,4
480,253,-2,1010,-5,-10,0
481,36,-31,874,-5,29,10
482,-219,-28,860,-3,40,10
483,-293,-27,957,-6,8,-4
484,-74,-6,1094,-4,-41,-1
485,202,18,1137,-2,-53,4
486,265,6,1018,-8,-18,1
487,85,-20,881,-4,25,9
488,-186,-16,856,-2,42,12
489,-296,-29,934,-4,17,-3
490,-125,-11,1098,-10,-34,-2
491,157,21,1145,-4,-55,3
492,276,7,1044,-5,-26,1
493,111,-19,894,-10,20,7
494,-145,-19,844,-2,42,14
495,-288,-28,904,-7,22,0
496,-175,-18,1064,-6,-28,-6
497,126,20,1161,-2,-57,3
498,284,2,1077,-12,-34,5
499,143,-18,925,-6,12,6
500,-92,-23,833,-3,39,12
501,-291,-17,872,-3,30,3
502,-209,-26,1035,-9,-16,-5
503,90,19,1164,-2,-52,3
504,273,8,1097,-9,-37,3
505,189,-8,971,-8,7,7
506,-55,-26,845,-2,40,14
507,-282,-20,856,-4,36,6
508,-249,-13,998,-9,-6,-4
509,20,5,1126,-8,-51,2
510,253,28,1129,-11,-47,4
511,225,-6,980,-11,-1,3
512,-4,-34,867,-8,32,13
513,-245,-22,859,-5,40,10
514,-267,-37,978,-14,3,-6
515,-35,-15,1092,-11,-43,0
516,240,15,1143,-1,-51,5
517,243,-11,996,-9,-8,2
518,38,-41,865,0,30,10
519,-218,-16,877,1,41,13
520,-284,-38,943,-6,11,-4
521,-83,-3,1093,-1,-39,-1
522,211,25,1152,-1,-55,5
523,258,4,1020,-2,-16,3
524,87,-7,886,1,28,8
525,-185,-15,855,-5,42,14
526,-305,-12,931,-5,20,-1
527,-141,-9,1085,-13,-34,-6
528,157,25,1152,-5,-59,2
529,280,8,1054,-14,-29,2
530,121,-11,901,-11,18,6
531,-124,-21,843,-10,40,13
532,-288,-33,888,-14,27,1
533,-188,-23,1057,-10,-21,-7
534,121,-1,1158,-8,-55,2
535,272,-7,1094,-8,-36,2
536,151,-22,946,-5,12,4
537,-76,-32,832,1,37,13
538,-281,-27,859,1,32,5
539,-217,-19,1021,-2,-11,-7
540,77,1,1147,-2,-53,1
541,254,22,1118,-2,-41,4
542,201,-1,970,0,4,4
543,-46,-31,856,0,38,14
544,-274,-20,854,1,40,9
545,-252,-19,1003,-6,-3,-5
546,2,-10,1104,-6,-48,1
547,252,21,1125,0,-49,5
548,246,-1,993,1,-3,3
549,9,-43,866,-3,36,13
550,-239,-26,875,5,43,12
551,-275,-27,968,-1,8,-3
552,-67,-8,1079,-1,-40,0
553,223,23,1140,6,-51,5
554,265,7,1014,-2,-13,5
555,72,-18,875,1,31,10
556,-207,-11,866,2,46,12
557,-305,-26,938,-1,16,-2
558,-123,-5,1095,-6,-36,-2
559,172,23,1142,-5,-57,4
560,275,1,1043,-6,-25,1
561,114,-27,895,-7,21,8
562,-143,-22,848,1,41,14
563,-289,-39,909,-5,26,0
564,-177,-20,1067,-1,-23,-3
565,130,17,1160,0,-56,5
566,279,1,1074,-3,-29,3
567,137,-24,919,-2,16,5
568,-98,-16,835,3,40,15
569,-289,-27,871,-4,30,3
570,-220,-2,1045,1,-17,-6
571,97,23,1148,-5,-57,1
572,276,22,1105,-5,-40,3
573,186,-13,957,-7,9,5
574,-49,-20,852,-1,40,15
575,-284,-20,858,-8,35,5
576,-252,-18,995,-6,-8,-7
577,28,9,1135,-5,-52,1
578,255,6,1114,-11,-47,4
579,227,-8,996,-5,-2,2
580,-4,-34,865,-3,35,12
581,-254,-25,866,-4,39,9
582,-271,-23,964,-2,3,-6
583,-31,1,1106,-6,-46,1
584,234,21,1123,-4,-50,4
585,252,0,1008,-6,-11,2
586,38,-16,877,-2,31,10
587,-219,-24,862,-7,41,10
588,-296,-23,949,-8,9,-2
589,-81,6,1097,-7,-42,-2
590,205,19,1136,-8,-54,3
591,268,3,1027,-10,-18,3
592,89,-17,889,-8,26,9
593,-184,-21,842,-7,42,11
594,-303,-37,929,-10,19,-2
595,-137,-12,1096,-9,-33,-3
596,158,11,1151,-5,-55,4
597,270,-9,1042,-11,-25,1
598,122,-13,913,1,16,6
599,-135,-21,832,-1,41,13
600,-294,-34,891,-7,25,-1
601,-188,-4,1066,-5,-24,-5
602,125,18,1158,-9,-58,2
603,278,6,1078,-11,-34,2
604,151,-8,941,-8,13,5
605,-87,-16,838,-6,38,13
606,-292,-25,857,-12,31,2
607,-223,-19,1028,-11,-16,-6
608,84,10,1151,-6,-57,1
609,265,14,1104,-12,-42,2
610,203,-9,977,-10,2,4
611,-46,-30,864,-9,37,11
612,-274,-31,853,-10,35,5
613,-241,-30,995,-9,-4,-6
614,9,-5,1120,-6,-49,0
615,247,16,1117,-7,-48,3
616,236,-7,999,-8,-6,3
617,-6,-33,855,-5,34,11
618,-237,-21,864,0,39,9
619,-267,-23,981,-10,5,-6
620,-49,-11,1090,-8,-43,-1
621,227,29,1137,-3,-53,5
622,252,7,1006,-12,-13,1
623,46,-35,858,-6,28,9
624,-197,-10,874,2,40,12
625,-286,-34,958,-13,15,-5
626,-96,-27,1095,-10,-35,-2
627,189,22,1146,-1,-55,4
628,262,7,1027,-4,-18,3
629,83,-27,883,-9,25,10
630,-163,-20,843,3,41,14
631,-289,-19,934,-4,21,-1
632,-148,-27,1073,-10,-27,-5
633,151,18,1166,5,-57,5
634,281,3,1057,-8,-27,4
635,126,-10,908,-2,19,8
636,-123,-15,832,1,42,14
637,-294,-27,884,-8,29,3
638,-201,-19,1054,-7,-20,-4
639,109,9,1145,-4,-56,3
640,277,13,1096,-5,-36,3
641,163,-16,955,-8,11,5
642,-64,-30,850,-1,40,15
643,-283,-25,865,-1,35,5
644,-232,-26,1003,-8,-8,-5
645,57,0,1138,1,-51,4
646,257,13,1112,-3,-41,4
647,204,-10,982,-1,5,4
648,-36,-34,865,-2,38,14
649,-271,-26,865,2,39,8
650,-256,-22,982,-1,-1,-4
651,-2,0,1102,-3,-48,2
652,249,29,1122,1,-47,3
653,243,8,1003,-6,-5,2
654,9,-27,868,-3,32,11
655,-238,-16,871,1,40,9
656,-291,-29,947,-7,7,-5
657,-65,-6,1089,-6,-44,-1
658,217,27,1153,-3,-56,3
659,270,8,1015,-5,-18,0
660,81,-19,874,-4,28,9
661,-192,-11,858,-5,44,13
662,-297,-31,939,-7,18,-3
663,-132,-15,1096,-10,-33,-4
664,158,19,1152,-3,-58,4
665,273,2,1047,-6,-27,1
666,106,-20,891,-7,19,7
667,-144,-13,832,2,40,13
668,-284,-18,912,-8,22,-1
669,-176,-17,1061,-10,-26,-6
670,130,20,1164,-4,-58,2
671,271,10,1082,-9,-33,1
672,135,-16,918,-12,13,6
673,-96,-17,830,-8,36,14
674,-284,-14,869,-10,28,1
675,-208,-24,1037,-17,-16,-8
676,91,11,1153,-8,-57,3
677,266,16,1111,-12,-44,2
678,174,-9,966,-13,4,3
679,-61,-29,841,-1,35,14
680,-266,-12,859,-5,29,3
681,-223,-18,1008,-20,-7,-9
682,29,-23,1119,-11,-50,0
683,245,23,1129,-11,-45,2
684,200,3,1005,-7,-3,2
685,-43,-56,831,-15,27,15
686,-221,-32,840,3,29,12
687,-222,-10,1011,-7,4,-12
688,-6,-57,1098,-21,-40,-6
689,233,1,1142,9,-46,10
690,207,22,1025,0,-5,3
691,-4,-46,825,-1,28,13
692,-202,-31,825,9,32,18
693,-240,12,1008,9,13,-11
694,-51,-44,1106,-17,-34,-9
695,202,12,1137,9,-50,11
696,238,52,1057,6,-12,4
697,50,-34,833,-11,29,10
698,-189,-24,812,9,40,20
699,-282,18,981,2,22,-6
700,-120,-48,1097,-24,-30,-8
701,155,12,1140,3,-56,9
702,276,41,1084,-5,-27,1
703,90,-29,871,-19,19,7
704,-132,-45,798,3,39,19
705,-267,11,937,0,26,-1
706,-159,-47,1061,-23,-19,-10
707,119,-15,1142,-3,-53,6
708,268,32,1118,3,-32,4
709,127,-21,930,-12,13,7
710,-103,-44,800,1,36,18
711,-269,-1,874,7,29,4
712,-197,-22,1042,-13,-11,-8
713,85,-19,1132,-4,-50,3
714,262,30,1137,3,-39,4
715,183,2,972,-6,7,4
716,-64,-50,821,0,38,16
717,-270,-4,862,8,37,10
718,-236,-14,1015,-7,-3,-8
719,10,-20,1106,-6,-48,2
720,252,34,1126,5,-47,5
721,234,11,1004,-7,-3,5
722,-7,-39,841,-2,35,14
723,-242,-17,863,4,41,11
724,-264,-12,994,-7,7,-6
725,-53,-21,1079,-10,-41,1
726,227,38,1140,1,-52,5
727,259,11,1011,-9,-12,2
728,44,-30,860,-9,31,12
729,-205,-22,865,1,42,11
730,-281,-25,962,-8,13,-2
731,-104,-24,1094,-10,-35,-2
732,185,18,1140,-2,-55,4
733,266,3,1039,-5,-21,2
734,83,-27,881,-5,25,9
735,-176,-24,843,3,40,12
736,-287,-33,922,0,18,-1
737,-146,-20,1076,-6,-29,-3
738,151,22,1166,3,-55,3
739,286,8,1071,-5,-28,3
740,116,-11,901,-1,19,8
741,-124,-15,831,2,43,14
742,-295,-16,880,-4,27,1
743,-196,-18,1052,-6,-22,-6
744,110,19,1155,-1,-57,1
745,284,9,1100,-8,-38,0
746,165,-12,954,-6,10,6
747,-61,-26,839,-2,40,15
748,-281,-20,857,-3,36,6
749,-239,-20,1016,-12,-7,-7
750,47,-6,1146,-3,-54,3
751,255,11,1115,-3,-45,3
752,204,2,982,-4,2,1
753,-26,-38,854,-5,34,13
754,-256,-14,859,-1,37,10
755,-252,-10,996,-6,0,-7
756,-7,-4,1102,-8,-47,-1
757,238,23,1123,-4,-49,4
758,235,4,1001,-9,-6,2
759,13,-35,858,-9,31,12
760,-234,-19,859,-1,39,10
761,-274,-21,969,-9,6,-6
762,-58,-19,1092,-11,-42,-1
763,215,22,1148,-4,-52,4
764,252,7,1018,-11,-16,0
765,62,-30,865,-7,25,10
766,-196,-24,844,0,38,13
767,-280,-23,944,-2,15,-5
768,-105,-18,1112,-11,-33,-4
769,168,16,1152,-3,-56,4
770,262,18,1053,-4,-25,2
771,87,-19,878,-11,21,8
772,-153,-21,818,0,38,15
773,-274,-5,919,-6,22,-2
774,-155,-24,1086,-20,-27,-9
775,134,3,1160,-4,-57,4
776,269,26,1088,-6,-33,2
777,115,-14,907,-11,13,4
778,-110,-42,805,-7,34,16
779,-262,-1,887,3,26,2
780,-180,-32,1057,-19,-15,-12
781,99,-12,1144,-7,-52,2
782,261,21,1116,-2,-38,4
783,143,-8,964,-15,6,4
784,-84,-45,811,-1,30,16
785,-247,-4,856,4,27,8
786,-197,-6,1034,-14,-4,-14
787,53,-37,1122,-18,-48,0
788,244,23,1136,2,-43,7
789,184,18,998,-7,-2,3
790,-65,-59,809,-11,30,16
791,-230,-22,836,9,30,13
792,-213,7,1047,-7,3,-13
793,0,-62,1096,-21,-41,-4
794,236,17,1134,10,-46,9
795,212,33,1026,-1,-3,1
796,-12,-56,803,-11,29,14
797,-214,-22,835,13,35,18
798,-246,22,1033,1,12,-11
799,-43,-63,1083,-24,-37,-5
800,205,26,1139,9,-50,9
801,249,43,1047,2,-12,2
802,41,-47,829,-15,29,12
803,-196,-33,818,11,40,18
804,-277,22,997,1,19,-7
805,-108,-57,1085,-22,-32,-6
806,173,12,1146,7,-56,8
807,273,36,1080,1,-23,2
808,89,-33,868,-13,24,9
809,-157,-36,812,5,44,17
810,-282,2,932,1,27,-1
811,-161,-45,1051,-17,-24,-6
812,136,0,1159,3,-55,4
813,283,21,1100,-1,-30,2
814,132,-19,929,-6,18,6
815,-101,-32,824,3,41,17
816,-289,-18,864,3,32,4
817,-210,-18,1030,-8,-14,-7
818,91,-2,1144,-2,-54,4
819,269,22,1122,3,-40,4
820,187,-3,969,-2,8,4
821,-63,-30,843,-1,40,15
822,-280,-8,860,0,37,8
823,-243,-15,997,-7,-5,-6
824,18,0,1115,-5,-50,1
825,255,25,1123,-4,-49,4
826,231,3,995,-6,-3,4
827,-14,-43,855,-9,35,12
828,-253,-25,862,-1,39,9
829,-269,-22,981,-5,3,-5
830,-31,-12,1089,-7,-45,-1
831,227,22,1134,1,-49,4
832,253,12,1015,-5,-11,1
833,33,-33,857,-6,28,10
834,-223,-21,859,1,40,11
835,-280,-13,971,-5,9,-4
836,-82,-14,1087,-9,-39,-4
837,196,28,1149,-2,-56,2
838,270,8,1030,-6,-21,2
839,83,-19,882,-12,24,9
840,-178,-18,830,-2,39,12
841,-279,-20,945,-7,18,-2
842,-142,-24,1085,-13,-28,-6
843,156,5,1153,-5,-56,3
844,272,6,1080,-10,-28,3
845,107,-27,889,-9,18,7
846,-129,-22,820,4,38,16
847,-278,-16,899,-5,27,1
848,-180,-28,1060,-9,-19,-7
849,126,4,1151,-4,-54,4
850,273,18,1100,-4,-34,3
851,142,-17,946,-6,13,4
852,-89,-31,823,2,38,17
853,-277,-10,868,1,32,7
854,-213,-18,1019,-12,-11,-7
855,75,2,1144,-1,-52,2
856,259,22,1114,-6,-40,5
857,189,0,976,-3,4,4
858,-51,-33,850,-6,36,16
859,-268,-19,856,-4,36,7
860,-241,-13,1002,-7,-2,-8
861,3,-10,1109,-11,-48,-1
862,243,17,1116,-4,-47,3
863,226,10,1008,-7,-5,2
864,-6,-44,846,-9,31,12
865,-230,-25,860,3,36,9
866,-260,-17,995,-9,5,-7
867,-41,-33,1089,-10,-42,0
868,224,17,1138,3,-51,5
869,245,13,1016,-4,-12,2
870,40,-30,862,-4,29,12
871,-205,-27,846,5,40,14
872,-280,-11,960,0,13,-4
873,-87,-13,1112,-9,-37,-3
874,186,19,1138,-1,-53,5
875,267,25,1045,-1,-20,3
876,82,-11,885,-9,25,8
877,-175,-16,826,0,42,14
878,-285,-16,923,-9,19,-2
879,-138,-14,1090,-13,-27,-4
880,151,7,1150,-6,-54,5
881,282,11,1078,-11,-29,3
882,113,-17,918,-10,19,8
883,-128,-37,813,-4,40,15
884,-287,-13,887,-3,27,2
885,-185,-37,1041,-15,-19,-6
886,118,0,1156,-5,-56,3
887,277,14,1101,-3,-36,1
888,160,-10,961,-6,11,5
889,-87,-30,836,1,39,16
890,-284,-16,858,-3,32,7
891,-227,-16,1013,-8,-11,-5
892,55,-4,1129,-2,-52,0
893,257,26,1127,-2,-45,1
894,207,0,980,-6,0,3
895,-41,-27,856,-4,34,13
896,-258,-19,856,-2,36,7
897,-245,-17,1003,-11,-2,-8
898,1,-14,1101,-9,-46,0
899,242,27,1122,-6,-48,4
900,234,12,1003,-10,-8,2
901,-9,-36,847,-10,29,12
902,-232,-14,869,-1,35,10
903,-262,-20,974,-11,6,-7
904,-44,-25,1093,-17,-42,-2
905,226,15,1148,-1,-53,4
906,257,12,1023,-8,-12,3
907,38,-26,855,-8,30,9
908,-206,-24,841,-1,41,14
909,-280,-18,963,-9,14,-3
910,-98,-42,1091,-14,-34,-7
911,179,13,1163,1,-54,2
912,270,14,1053,-2,-21,1
913,77,-27,878,-8,22,9
914,-155,-27,812,6,40,16
915,-274,-10,920,-1,23,-2
916,-153,-30,1075,-14,-22,-9
917,142,0,1168,3,-55,4
918,271,22,1093,-1,-30,2
919,117,-9,904,-5,16,5
920,-111,-34,811,-1,38,16
921,-279,0,888,3,30,1
922,-195,-26,1049,-15,-16,-10
923,103,0,1142,-5,-55,3
924,269,34,1116,0,-39,3
925,164,-13,947,-13,8,4
926,-66,-40,836,0,34,17
927,-270,-9,877,2,34,6
928,-221,-24,1010,-12,-6,-10
929,48,-22,1114,-4,-50,2
930,257,31,1130,0,-43,6
931,211,2,983,-6,2,4
932,-43,-36,848,-6,36,15
933,-259,-11,867,1,37,9
934,-243,-17,996,-9,1,-6
935,-12,-24,1087,-13,-44,0
936,242,22,1139,1,-48,5
937,243,16,1004,-8,-6,4
938,8,-38,848,-8,32,11
939,-229,-19,867,1,41,11
940,-274,-29,972,-9,10,-4
941,-55,-33,1089,-10,-39,0
942,210,15,1155,-1,-50,2
943,253,5,1020,0,-12,0
944,58,-25,868,-5,27,12
945,-207,-20,837,5,42,14
946,-290,-19,942,-2,15,-6
947,-111,-27,1095,-13,-36,-4
948,171,25,1163,2,-56,3
949,280,22,1055,-2,-26,0
950,88,-13,881,-9,22,7
951,-157,-14,829,-2,41,14
952,-289,-11,916,-8,22,0
953,-165,-26,1056,-15,-26,-8
954,140,12,1158,-6,-57,1
955,283,19,1093,-10,-33,1
956,123,-18,935,-16,13,5
957,-104,-36,814,-5,36,15
958,-268,-7,877,-2,27,4
959,-190,-31,1034,-18,-13,-9
960,97,-17,1146,-8,-51,2
961,256,15,1123,-4,-39,4
962,154,-2,968,-5,6,2
963,-71,-39,819,-2,31,16
964,-252,-7,855,1,31,8
965,-206,-16,1027,-13,-4,-12
966,41,-27,1119,-9,-46,1
967,248,20,1125,-1,-42,7
968,193,16,998,-5,0,2
969,-44,-53,820,-8,31,16
970,-238,-20,847,6,34,14
971,-232,-7,1021,-8,4,-12
972,-13,-49,1096,-18,-42,-3
973,241,18,1132,10,-47,8
974,234,27,1017,-1,-6,3
975,12,-44,823,-5,33,13
976,-224,-22,854,8,40,16
977,-276,0,1003,-2,12,-6
978,-73,-35,1086,-10,-40,-3
979,196,28,1141,3,-55,6
980,267,32,1037,0,-18,2
981,66,-27,854,-12,28,11
982,-181,-16,834,6,41,15
983,-284,-5,969,-6,18,-3
984,-130,-40,1070,-16,-29,-5
985,154,7,1155,1,-57,4
986,270,22,1078,-8,-28,1
987,99,-31,880,-9,18,7
988,-132,-26,823,2,37,15
989,-273,-5,917,-1,25,-1
990,-170,-35,1055,-13,-20,-6
991,130,4,1152,0,-55,3
992,265,26,1103,-2,-32,1
993,138,-16,940,-11,12,6
994,-99,-35,817,-1,38,17
995,-278,-9,863,1,30,2
996,-210,-14,1043,-13,-12,-9
997,78,-16,1128,-9,-54,1
998,267,25,1123,-1,-44,4
999,180,3,974,-6,5,3
1000,-57,-56,830,-7,34,14
1001,-267,-13,865,4,32,9
1002,-225,-23,1015,-10,-4,-9
1003,22,-30,1106,-5,-47,-1
1004,247,16,1117,4,-46,4
1005,221,11,1004,2,-2,4
1006,-20,-42,843,-4,33,15
1007,-245,-16,858,9,38,10
1008,-256,-5,1008,-3,4,-9
1009,-32,-24,1077,-9,-44,0
1010,231,26,1130,6,-51,6
1011,251,35,1023,-7,-11,3
1012,31,-32,846,-10,30,11
1013,-214,-10,855,3,41,12
1014,-278,-13,987,-8,14,-6
1015,-84,-36,1082,-14,-37,-4
1016,186,24,1148,7,-56,2
1017,260,8,1041,-9,-20,0
1018,74,-30,872,-5,22,11
1019,-168,-21,818,-4,38,14
1020,-273,-8,953,5,21,-6
1021,-136,-46,1073,-22,-26,-7
1022,155,10,1171,8,-53,6
1023,268,17,1071,-10,-26,1
1024,98,-24,892,-5,17,7
1025,-135,-26,813,2,38,16
1026,-275,-5,904,-1,24,1
1027,-177,-26,1056,-12,-19,-9
1028,127,1,1149,-7,-54,3
1029,278,30,1110,0,-36,3
1030,144,-14,940,-15,13,6
1031,-87,-30,824,3,39,17
1032,-285,1,875,-2,34,3
1033,-224,-28,1014,-18,-11,-9
1034,67,-9,1135,-3,-54,3
1035,263,28,1126,-4,-42,4
1036,191,-2,968,-10,3,3
1037,-50,-41,850,-5,34,15
1038,-254,-8,869,2,35,10
1039,-225,-22,1003,-13,0,-8
1040,5,-30,1093,-11,-44,0
1041,245,21,1137,3,-45,6
1042,219,11,1002,-5,-4,4
1043,-20,-47,836,-9,33,13
1044,-234,-17,859,5,36,12
1045,-256,-14,999,-12,6,-8
1046,-32,-40,1084,-13,-42,-3
1047,232,25,1143,5,-52,4
1048,243,23,1018,-6,-9,2
1049,37,-42,844,-8,28,12
1050,-217,-13,853,8,39,16
1051,-281,-7,979,-3,15,-7
1052,-89,-44,1090,-17,-37,-4
1053,186,34,1152,5,-54,5
1054,263,22,1044,-7,-21,-1
1055,67,-25,869,-11,23,8
1056,-173,-20,821,4,39,16
1057,-274,2,941,-5,19,-2
1058,-133,-41,1076,-21,-28,-6
1059,156,3,1157,-1,-55,4
1060,275,27,1092,-6,-28,1
1061,92,-25,892,-14,19,5
1062,-139,-33,809,-1,38,17
1063,-277,-7,896,-2,23,1
1064,-166,-44,1052,-17,-20,-9
1065,124,-2,1151,-1,-54,2
1066,274,18,1112,-3,-36,1
1067,144,-8,950,-6,12,5
1068,-93,-42,808,0,37,17
1069,-271,-4,874,8,32,4
1070,-200,-19,1022,-12,-8,-10
1071,55,-14,1124,-7,-50,1
1072,260,27,1134,0,-43,2
1073,189,8,978,-8,2,5
1074,-57,-42,822,-5,34,16
1075,-250,-13,873,2,35,9
1076,-231,-19,1020,-12,0,-10
1077,5,-42,1087,-13,-45,-1
1078,249,33,1131,7,-46,5
1079,220,11,1006,-9,-3,4
1080,-12,-55,833,-7,31,15
1081,-226,-10,859,14,38,13
1082,-256,-5,1007,-10,8,-10
1083,-45,-45,1074,-14,-39,-2
1084,217,23,1150,4,-51,7
1085,249,29,1030,-2,-13,2
1086,33,-41,839,-11,28,12
1087,-205,-18,837,6,36,15
1088,-269,3,984,-1,14,-6
1089,-93,-41,1092,-18,-33,-7
1090,182,11,1149,4,-54,3
1091,254,34,1064,-3,-20,1
1092,72,-23,866,-14,21,9
1093,-168,-33,801,0,35,17
1094,-271,6,947,1,20,-5
1095,-137,-44,1074,-20,-27,-8
1096,148,-1,1150,-3,-54,5
1097,274,28,1110,-5,-31,2
1098,101,-21,906,-12,16,8
1099,-122,-44,789,3,37,19
1100,-267,4,900,4,27,-1
1101,-176,-30,1063,-19,-15,-12
1102,117,-33,1124,-4,-54,4
1103,263,47,1136,8,-33,3
1104,145,-11,949,-13,11,4
1105,-80,-59,802,-2,35,21
1106,-266,12,880,12,33,7
1107,-201,-24,1034,-14,-6,-12
1108,44,-36,1111,-5,-50,4
1109,252,36,1130,6,-43,5
1110,203,18,990,-5,1,4
1111,-51,-50,821,-8,35,15
1112,-252,-11,867,5,37,9
1113,-239,-1,1030,-9,0,-7
1114,-8,-39,1072,-16,-45,0
1115,242,32,1131,4,-49,4
1116,238,18,1012,-8,-6,4
1117,0,-47,833,-8,32,14
1118,-220,-15,876,6,40,12
1119,-268,-19,994,-12,9,-5
1120,-56,-44,1073,-14,-40,-2
1121,209,29,1147,4,-53,5
1122,252,24,1029,-5,-17,1
1123,53,-26,853,-8,25,11
1124,-194,-12,843,4,41,14
1125,-276,-7,975,-7,17,-4
1126,-109,-41,1083,-18,-32,-3
1127,171,22,1152,1,-55,4
1128,261,17,1055,-9,-24,2
1129,82,-25,875,-11,21,10
1130,-158,-23,821,3,39,15
1131,-270,-17,921,-7,20,-1
1132,-150,-35,1074,-16,-24,-5
1133,143,-3,1160,-1,-53,4
1134,280,17,1089,-2,-30,4
1135,108,-14,915,-7,18,7
1136,-119,-22,815,1,38,15
1137,-285,-13,882,-5,26,3
1138,-189,-27,1042,-12,-17,-8
1139,109,1,1153,-3,-55,2
1140,278,18,1108,-2,-36,2
1141,160,-4,964,-8,10,5
1142,-78,-34,835,-1,36,15
1143,-278,-19,864,-1,33,6
1144,-218,-17,1011,-10,-6,-8
1145,45,-17,1117,-6,-50,0
1146,267,19,1127,-3,-45,4
1147,203,6,993,-4,2,4
1148,-43,-42,839,-6,35,15
1149,-257,-12,862,3,35,11
1150,-248,-23,997,-10,1,-8
1151,-10,-33,1092,-9,-47,-1
1152,249,25,1133,6,-49,3
1153,239,12,1012,-4,-7,4
1154,8,-43,840,-6,32,13
1155,-228,-14,870,6,39,12
1156,-277,-12,983,-6,9,-8
1157,-57,-27,1078,-9,-41,-3
1158,210,34,1149,0,-53,5
1159,259,23,1024,-6,-17,1
1160,60,-21,861,-11,25,9
1161,-195,-10,837,2,40,13
1162,-286,-23,957,-11,17,-5
1163,-110,-48,1089,-17,-34,-4
1164,170,7,1161,0,-56,4
1165,271,13,1062,-3,-24,0
1166,92,-31,878,-7,19,8
1167,-147,-25,819,5,39,17
1168,-272,-8,915,-1,25,-3
1169,-158,-33,1067,-13,-22,-9
1170,136,5,1152,1,-54,3
1171,276,32,1100,-1,-31,2
1172,121,-6,925,-8,16,6
1173,-113,-30,810,-5,38,17
1174,-282,-2,881,-1,28,1
1175,-196,-23,1041,-15,-16,-10
1176,100,-10,1138,-8,-56,1
1177,269,30,1124,-4,-39,2
1178,166,-7,966,-15,8,4
1179,-74,-47,823,-6,35,17
1180,-269,0,873,1,33,7
1181,-218,-23,1008,-18,-6,-10
1182,30,-27,1111,-10,-48,0
1183,251,34,1133,-1,-46,2
1184,201,10,1002,-10,-1,3
1185,-52,-44,827,-11,31,16
1186,-231,-10,853,4,32,12
1187,-224,-3,1010,-12,3,-13
1188,-14,-53,1085,-24,-41,-5
1189,240,20,1153,2,-49,6
1190,216,25,1023,-9,-8,3
1191,-10,-51,814,-11,26,14
1192,-210,-21,838,8,32,17
1193,-240,0,1005,-7,11,-12
1194,-38,-71,1099,-21,-36,-9
1195,206,2,1152,7,-49,9
1196,241,35,1054,7,-13,5
1197,29,-42,822,-10,27,14
1198,-195,-28,803,13,37,19
1199,-265,19,998,7,18,-6
1200,-95,-60,1094,-20,-31,-7
1201,180,10,1149,10,-53,8
1202,267,46,1085,1,-20,3
1203,82,-26,853,-13,24,11
1204,-167,-26,815,8,42,19
1205,-288,6,941,0,25,-2
1206,-162,-44,1055,-16,-25,-6
1207,140,2,1151,0,-57,3
1208,284,19,1097,-3,-33,1
1209,130,-16,927,-9,16,8
1210,-109,-42,824,-1,40,16
1211,-280,-10,886,4,31,4
1212,-198,-29,1020,-10,-12,-6
1213,95,0,1138,-2,-52,2
1214,262,27,1126,0,-38,2
1215,168,3,967,-4,8,6
1216,-83,-31,839,1,36,14
1217,-282,-3,870,1,32,7
1218,-223,-14,996,-10,-8,-6
1219,45,-8,1118,-10,-52,1
1220,263,24,1128,-8,-45,2
1221,213,8,996,-9,1,2
1222,-41,-39,845,-9,34,13
1223,-255,-26,851,1,36,10
1224,-253,-21,1000,-8,1,-8
1225,-13,-44,1090,-14,-46,-2
1226,246,15,1143,4,-51,5
1227,237,26,1022,-5,-9,0
1228,9,-42,827,-9,29,10
1229,-221,-6,860,9,38,14
1230,-264,-10,983,-7,11,-7
1231,-48,-38,1096,-16,-38,-3
1232,202,32,1151,1,-51,5
1233,251,27,1045,-7,-16,2
1234,43,-28,855,-13,26,11
1235,-197,-26,809,2,37,15
1236,-262,0,967,-4,16,-4
1237,-105,-59,1089,-23,-29,-7
1238,171,0,1165,4,-53,6
1239,271,19,1076,-3,-23,3
1240,75,-20,879,-10,21,9
1241,-156,-39,792,3,40,18
1242,-265,-2,920,0,23,1
1243,-155,-35,1069,-14,-21,-8
1244,140,0,1154,3,-54,4
1245,277,26,1102,2,-30,4
1246,125,-8,933,-6,17,8
1247,-120,-38,801,-1,40,16
1248,-283,-3,886,5,30,1
1249,-200,-25,1038,-16,-14,-6
1250,99,-11,1135,-3,-53,3
1251,274,27,1125,0,-40,2
1252,180,-1,961,-6,9,5
1253,-70,-38,844,0,39,15
1254,-280,-15,865,2,38,7
1255,-229,-34,997,-10,-5,-7
1256,25,-8,1119,-1,-49,2
1257,262,11,1119,-1,-46,2
1258,223,4,998,-1,-2,4
1259,-19,-38,851,0,36,13
1260,-242,-20,859,6,41,10
1261,-266,-18,989,-1,6,-5
1262,-39,-18,1094,-5,-43,0
1263,239,30,1136,6,-51,4
1264,248,19,1008,-6,-11,2
1265,38,-26,858,-4,31,12
1266,-218,-20,860,1,43,13
1267,-287,-23,966,-7,13,-4
1268,-92,-17,1100,-8,-37,-2
1269,192,17,1142,-2,-57,4
1270,267,11,1029,-5,-21,3
1271,85,-24,874,-5,24,9
1272,-175,-20,834,1,41,14
1273,-293,-15,941,-2,20,-3
1274,-141,-31,1085,-12,-29,-3
1275,152,15,1161,5,-56,4
1276,275,19,1066,-4,-30,1
1277,112,-16,889,-9,18,7
1278,-140,-20,824,1,40,14
1279,-285,-13,896,-7,25,1
1280,-180,-19,1068,-13,-23,-5
1281,119,4,1151,-5,-55,2
1282,285,11,1109,-6,-36,3
1283,145,-15,935,-10,11,6
1284,-91,-31,824,-6,38,14
1285,-282,-12,869,-4,30,3
1286,-214,-31,1016,-14,-13,-8
1287,86,3,1151,-1,-54,2
1288,260,18,1126,-6,-39,2
1289,187,-16,967,-8,6,3
1290,-60,-31,849,-2,35,16
1291,-268,-17,855,-4,34,8
1292,-233,-31,998,-10,-4,-8
1293,17,-9,1121,-6,-48,0
1294,258,14,1125,-1,-47,5
1295,224,2,996,-4,-2,3
1296,-25,-44,844,-3,35,12
1297,-248,-20,864,5,39,11
1298,-259,-24,993,-7,4,-4
1299,-31,-22,1089,-6,-44,1
1300,239,30,1134,6,-50,4
1301,255,14,1007,-5,-8,3
1302,25,-28,851,-3,33,12
1303,-223,-8,880,3,41,13
1304,-289,-27,963,-7,11,-3
1305,-87,-17,1088,-7,-39,-2
1306,200,33,1149,0,-56,3
1307,274,10,1033,-9,-20,3
1308,78,-25,874,-8,26,10
1309,-177,-20,836,1,42,14
1310,-289,-25,942,-7,20,-1
1311,-144,-33,1082,-11,-28,-4
1312,156,8,1165,1,-56,2
1313,273,11,1063,-7,-27,2
1314,109,-18,892,-4,19,6
1315,-127,-22,819,4,41,16
1316,-281,-12,899,-4,27,1
1317,-187,-18,1063,-10,-20,-8
1318,123,9,1163,-4,-57,4
1319,270,18,1093,-6,-36,4
1320,151,-13,932,-9,12,6
1321,-90,-25,823,-6,37,16
1322,-284,-19,865,-5,31,4
1323,-212,-20,1033,-13,-14,-8
1324,80,-6,1144,-6,-55,1
1325,268,13,1116,-4,-41,4
1326,187,-1,969,-5,6,4
1327,-51,-40,849,-4,37,15
1328,-275,-24,859,-2,37,8
1329,-237,-23,999,-5,-4,-8
1330,24,-8,1116,-3,-49,1
1331,253,21,1120,-3,-45,3
1332,230,5,1002,-3,-2,3
1333,-15,-33,854,-4,34,13
1334,-249,-20,865,3,40,10
1335,-267,-17,979,-7,5,-4
1336,-44,-15,1093,-9,-44,1
1337,235,28,1139,1,-52,3
1338,254,11,1005,-6,-11,2
1339,41,-23,865,-5,30,12
1340,-219,-20,862,-2,43,12
1341,-288,-29,966,-6,12,-4
1342,-85,-18,1094,-9,-38,-2
1343,197,16,1142,-3,-55,4
1344,263,7,1029,-5,-19,2
1345,81,-17,885,-4,25,10
1346,-184,-19,835,1,41,12
1347,-296,-19,941,-5,18,-3
1348,-136,-29,1086,-12,-31,-3
1349,162,21,1160,1,-57,4
1350,280,18,1066,-7,-27,1
1351,110,-18,887,-10,19,7
1352,-142,-16,835,-5,39,16
1353,-285,-23,893,-13,23,0
1354,-179,-30,1062,-10,-22,-5
1355,124,10,1160,-4,-56,3
1356,288,2,1101,-12,-36,2
1357,146,-12,941,-2,13,7
1358,-96,-27,820,-4,40,15
1359,-280,-15,862,1,32,4
1360,-219,-25,1031,-17,-12,-8
1361,82,2,1149,2,-53,2
1362,274,18,1117,-9,-41,4
1363,182,-10,969,-6,7,3
1364,-56,-32,853,-3,38,13
1365,-277,-16,858,0,37,8
1366,-241,-19,993,-10,-4,-5
1367,16,-5,1118,-6,-48,2
1368,263,21,1125,-6,-49,5
1369,223,1,989,-6,-2,2
1370,-18,-30,866,-4,36,13
1371,-245,-25,857,-4,37,11
1372,-267,-20,980,-7,4,-5
1373,-33,-9,1093,-10,-43,-1
1374,240,19,1132,-4,-51,4
1375,245,19,1007,-10,-9,2
1376,29,-21,863,-9,29,11
1377,-224,-25,857,-5,38,13
1378,-284,-19,966,-9,11,-4
1379,-72,-24,1095,-16,-40,-3
1380,204,11,1147,-6,-56,6
1381,255,11,1028,-4,-16,1
1382,69,-25,874,-11,24,8
1383,-190,-19,827,1,39,13
1384,-284,-21,946,-5,18,-5
1385,-124,-31,1092,-14,-32,-7
1386,164,7,1158,2,-59,3
1387,273,22,1070,-3,-27,2
1388,100,-21,887,-10,18,8
1389,-142,-20,809,-1,39,17
1390,-279,-4,903,-6,26,-1
1391,-165,-29,1076,-18,-23,-8
1392,129,-10,1154,-7,-56,4
1393,276,25,1102,-2,-35,2
1394,131,-9,941,-11,11,6
1395,-106,-48,796,-4,36,17
1396,-277,-9,873,4,30,2
1397,-190,-29,1045,-15,-13,-9
1398,95,-28,1137,-5,-52,3
1399,269,30,1131,3,-38,4
1400,170,1,968,-5,8,4
1401,-81,-45,821,-1,36,15
1402,-274,-5,865,5,33,8
1403,-215,-18,1017,-12,-7,-8
1404,38,-22,1107,-9,-50,2
1405,265,29,1131,3,-45,4
1406,218,18,1006,-3,1,5
1407,-42,-50,830,-8,37,15
1408,-263,-16,864,6,38,10
1409,-253,-16,995,-5,1,-6
1410,-23,-32,1083,-10,-46,0
1411,250,27,1139,8,-49,3
1412,253,15,1017,-5,-7,3
1413,18,-31,843,-3,35,12
1414,-234,-17,859,4,42,13
1415,-285,-10,985,-6,10,-4
1416,-79,-26,1078,-11,-41,-2
1417,200,28,1152,2,-56,3
1418,269,18,1035,-5,-19,1
1419,66,-21,865,-10,26,9
1420,-180,-18,834,1,40,12
1421,-285,-21,956,-7,19,-3
1422,-127,-44,1082,-15,-30,-4
1423,166,9,1162,4,-56,5
1424,270,13,1067,-7,-26,1
1425,100,-24,883,-6,19,8
1426,-142,-22,816,5,38,16
1427,-278,-10,906,0,25,0
1428,-174,-25,1067,-12,-22,-5
1429,135,8,1155,-2,-57,2
1430,280,16,1097,-3,-34,2
1431,138,-4,935,-6,16,7
1432,-97,-31,821,-6,39,16
1433,-289,-11,873,-1,31,4
1434,-205,-28,1027,-14,-12,-7
1435,89,-2,1141,-4,-55,3
1436,276,15,1122,-4,-40,3
1437,182,-7,965,-6,7,5
1438,-62,-38,849,0,38,16
1439,-273,-21,860,0,36,8
1440,-234,-24,1001,-11,-4,-6
1441,28,-11,1109,-3,-49,2
1442,257,23,1126,0,-44,4
1443,221,4,993,-1,0,1
1444,-27,-35,852,-3,36,13
1445,-257,-12,861,2,39,12
1446,-261,-25,987,-9,3,-7
1447,-29,-15,1086,-6,-45,1
1448,248,27,1136,5,-50,3
1449,255,14,1009,-8,-7,2
1450,26,-28,858,-6,33,11
1451,-226,-16,862,3,42,12
1452,-289,-22,963,-8,11,-4
1453,-81,-21,1095,-9,-39,-2
1454,197,19,1149,-2,-55,2
1455,276,12,1029,-3,-21,2
1456,78,-24,875,-11,27,10
1457,-184,-19,837,-1,43,12
1458,-291,-18,945,-7,20,-2
1459,-133,-33,1076,-13,-30,-4
1460,157,12,1169,1,-56,2
1461,278,3,1059,-7,-26,2
1462,113,-20,896,-6,18,8
1463,-142,-20,826,1,42,14
1464,-282,-25,890,-4,24,0
1465,-179,-20,1063,-5,-21,-5
1466,130,10,1163,-3,-54,2
1467,281,9,1093,-6,-33,2
1468,139,-6,940,-5,14,5
1469,-103,-20,829,-2,39,15
1470,-291,-17,860,-4,30,4
1471,-209,-21,1025,-11,-14,-6
1472,91,9,1147,-2,-55,3
1473,280,17,1117,-8,-41,2
1474,184,-8,973,-9,7,4
1475,-66,-34,853,-3,38,15
1476,-286,-23,859,-4,34,6
1477,-240,-27,996,-9,-6,-6
1478,32,-8,1112,-4,-52,2
1479,268,16,1122,-4,-47,3
1480,227,3,1000,-6,0,3
1481,-30,-35,860,-6,35,11
1482,-251,-18,857,5,38,10
1483,-269,-18,981,-8,4,-7
1484,-22,-19,1089,-11,-45,2
1485,246,23,1139,-1,-51,6
1486,248,17,1007,-6,-7,1
1487,19,-16,859,-7,31,11
1488,-231,-23,859,-4,39,13
1489,-288,-16,965,-9,10,-3
1490,-65,-20,1092,-12,-41,-4
1491,212,20,1154,-6,-54,4
1492,263,6,1030,-6,-17,1
1493,67,-23,871,-11,25,9
1494,-195,-18,830,0,40,15
1495,-297,-23,937,-5,17,-5
1496,-125,-35,1089,-15,-33,-5
1497,170,11,1167,1,-59,4
1498,278,9,1064,-7,-27,1
1499,103,-16,891,-3,19,7
1500,-145,-24,818,0,40,15
1501,-286,-16,897,-1,26,-1
1502,-168,-25,1071,-12,-24,-8
1503,140,-1,1157,-2,-57,5
1504,283,19,1101,-2,-33,2
1505,132,-15,942,-8,16,5
1506,-105,-31,813,0,40,16
1507,-292,-10,871,0,29,3
1508,-201,-26,1030,-11,-16,-7
1509,102,-9,1143,-3,-56,4
1510,281,23,1120,2,-39,3
1511,179,2,973,-7,8,4
1512,-74,-41,833,-3,42,14
1513,-293,-15,870,1,35,8
1514,-229,-22,997,-8,-6,-6
1515,33,-8,1113,-6,-51,1
1516,269,26,1125,-4,-46,1
1517,226,7,999,-4,0,4
1518,-34,-36,850,-7,37,14
1519,-251,-15,862,1,39,10
1520,-262,-24,984,-10,4,-4
1521,-19,-25,1085,-11,-44,0
1522,244,27,1141,3,-50,4
1523,248,12,1006,-8,-6,1
1524,11,-28,854,-7,32,10
1525,-229,-18,862,2,39,12
1526,-275,-18,971,-5,10,-4
1527,-71,-30,1087,-11,-37,-4
1528,218,20,1151,-1,-52,3
1529,270,18,1037,-4,-16,2
1530,63,-25,862,-9,29,9
1531,-199,-14,834,4,42,13
1532,-294,-15,952,-7,18,-2
1533,-127,-33,1085,-15,-32,-3
1534,170,20,1163,1,-58,4
1535,285,9,1067,-9,-26,0
1536,96,-17,885,-8,21,9
1537,-148,-24,824,-3,40,16
1538,-285,-15,903,-6,23,1
1539,-178,-37,1055,-15,-23,-7
1540,143,9,1166,1,-58,4
1541,281,19,1100,-6,-34,2
1542,126,-5,931,-10,15,5
1543,-106,-26,819,-4,36,16
1544,-283,-9,866,-4,27,4
1545,-206,-18,1033,-13,-15,-9
1546,107,0,1154,-11,-54,2
1547,265,17,1121,-9,-39,2
1548,164,1,968,-12,6,2
1549,-73,-36,830,-7,31,17
1550,-262,-14,854,-4,31,10
1551,-216,-19,1014,-14,-4,-10
1552,46,-31,1122,-14,-48,1
1553,247,18,1124,-2,-43,5
1554,189,18,1012,-4,-1,0
1555,-50,-56,823,-13,29,17
1556,-239,-10,838,6,30,14
1557,-220,8,1020,-6,2,-15
1558,-1,-52,1094,-24,-42,-5
1559,234,19,1134,3,-47,8
1560,212,35,1034,-9,-8,0
1561,-19,-44,820,-15,26,13
1562,-217,-36,812,5,29,18
1563,-230,21,1018,-2,8,-13
1564,-32,-65,1107,-27,-35,-10
1565,209,-6,1142,1,-49,8
1566,232,46,1064,4,-12,4
1567,11,-34,836,-17,25,12
1568,-204,-35,777,7,31,21
1569,-241,30,991,6,14,-8
1570,-69,-53,1118,-32,-29,-13
1571,180,-14,1147,-1,-51,8
1572,253,52,1099,3,-20,4
1573,39,-22,863,-17,22,11
1574,-179,-49,763,3,32,26
1575,-239,20,923,6,18,3
1576,-112,-31,1105,-26,-19,-19
1577,149,-49,1143,-9,-48,5
1578,266,27,1127,7,-26,8
1579,80,-8,930,-8,18,9
1580,-141,-61,752,3,35,26
1581,-250,13,866,18,25,9
1582,-155,-1,1098,-18,-10,-18
1583,115,-57,1119,-12,-50,2
1584,265,45,1138,14,-34,7
1585,135,22,974,-7,13,4
1586,-108,-54,784,-3,36,20
1587,-283,5,857,12,32,9
1588,-202,1,1046,-14,-8,-15
1589,55,-37,1113,-14,-53,-1
1590,261,32,1126,3,-45,4
1591,201,25,1009,-9,1,1
1592,-69,-63,806,-12,34,15
1593,-251,-24,853,8,33,11
1594,-226,0,1031,-8,-1,-11
1595,8,-57,1080,-20,-46,-3
1596,246,24,1140,11,-48,3
1597,221,26,1018,-3,-5,1
1598,-15,-47,823,-9,30,15
1599,-232,-15,849,11,35,14
1600,-250,2,1005,-7,7,-9
1601,-34,-39,1087,-17,-40,-4
1602,222,25,1151,-1,-52,4
1603,244,39,1043,-3,-15,1
1604,26,-40,839,-15,27,10
1605,-202,-26,819,4,36,17
1606,-258,0,977,-3,15,-6
1607,-85,-55,1103,-26,-32,-9
1608,184,-14,1148,3,-53,5
1609,260,30,1085,1,-21,2
1610,59,-30,863,-11,23,9
1611,-172,-44,782,7,36,19
1612,-262,18,945,9,22,-2
1613,-131,-49,1081,-23,-22,-9
1614,153,-15,1150,2,-52,5
1615,274,44,1113,8,-26,2
1616,103,-7,907,-10,18,9
1617,-139,-39,787,1,41,19
1618,-285,14,896,4,27,1
1619,-177,-23,1056,-18,-19,-9
1620,124,-8,1140,-7,-55,5
1621,276,38,1126,2,-35,3
1622,153,-7,961,-14,11,6
1623,-102,-51,812,-3,39,17
1624,-285,-4,869,4,32,5
1625,-209,-22,1017,-16,-11,-8
1626,62,-23,1118,-7,-51,2
1627,265,23,1131,0,-43,2
1628,195,11,992,-5,3,2
1629,-70,-46,835,-7,36,13
1630,-265,-10,861,5,33,9
1631,-229,-13,1003,-9,-4,-7
1632,11,-21,1090,-15,-46,-1
1633,256,24,1132,-2,-47,3
1634,221,18,1014,-9,-4,1
1635,-24,-34,838,-8,32,12
1636,-237,-26,846,0,33,12
1637,-252,-7,1001,-9,5,-8
1638,-32,-38,1091,-18,-41,-5
1639,235,8,1146,-4,-52,5
1640,244,31,1038,-1,-12,2
1641,19,-37,840,-13,28,12
1642,-211,-25,822,6,35,18
1643,-259,0,979,-1,13,-7
1644,-79,-51,1102,-21,-32,-8
1645,191,0,1154,0,-52,6
1646,256,28,1072,2,-19,2
1647,58,-24,860,-9,23,10
1648,-182,-30,788,6,38,19
1649,-256,8,944,3,21,-2
1650,-131,-40,1092,-21,-26,-8
1651,164,-9,1154,3,-52,7
1652,279,38,1107,0,-26,4
1653,89,-13,885,-10,21,6
1654,-143,-35,795,-1,39,18
1655,-281,1,899,4,26,2
1656,-170,-35,1057,-17,-20,-7
1657,129,-7,1146,-3,-54,5
1658,283,22,1113,1,-33,1
1659,145,-3,956,-9,15,6
1660,-99,-40,817,3,41,17
1661,-285,0,872,2,33,6
1662,-211,-18,1015,-13,-9,-7
1663,62,-6,1122,-5,-53,2
1664,263,29,1126,-4,-42,3
1665,194,9,985,-9,3,3
1666,-58,-42,842,-8,35,15
1667,-261,-12,861,1,36,11
1668,-233,-22,1005,-15,-1,-6
1669,3,-36,1094,-11,-47,0
1670,248,15,1130,1,-48,4
1671,220,9,1007,-2,-4,2
1672,-11,-48,838,-5,31,12
1673,-231,-20,863,9,37,12
1674,-252,-20,984,-5,8,-9
1675,-38,-33,1098,-10,-41,-3
1676,220,24,1145,8,-50,4
1677,247,21,1013,-2,-12,1
1678,36,-22,852,-4,30,11
1679,-217,-12,849,6,42,13
1680,-279,-17,964,-6,14,-4
1681,-88,-28,1103,-14,-36,-4
1682,191,23,1154,2,-54,4
1683,267,15,1039,-7,-21,2
1684,82,-18,879,-10,23,10
1685,-182,-20,820,3,42,14
1686,-280,-24,927,-5,21,-3
1687,-145,-37,1081,-13,-28,-4
1688,154,3,1165,0,-57,4
1689,281,14,1086,-1,-30,1
1690,108,-20,894,-5,18,7
1691,-135,-17,822,8,41,17
1692,-284,-6,883,-7,28,1
1693,-178,-32,1049,-9,-19,-6
1694,121,12,1155,-4,-54,4
1695,286,17,1112,-1,-35,3
1696,139,-1,951,-9,13,6
1697,-98,-27,831,1,38,15
1698,-289,-10,860,-2,28,7
1699,-212,-16,1010,-12,-14,-6
1700,82,3,1136,-8,-55,1
1701,275,19,1127,-9,-43,4
1702,186,2,982,-11,6,3
1703,-73,-39,842,-9,36,14
1704,-278,-21,859,-3,32,10
1705,-233,-19,996,-13,-4,-7
1706,25,-18,1104,-13,-49,0
1707,267,25,1132,-6,-48,3
1708,211,11,1010,-10,-2,1
1709,-34,-33,839,-9,32,13
1710,-251,-22,847,-2,34,12
1711,-254,-5,994,-12,2,-10
1712,-23,-27,1098,-21,-47,-4
1713,233,22,1143,-6,-53,3
1714,226,39,1030,-11,-13,0
1715,-6,-23,836,-21,21,11
1716,-208,-19,817,-5,23,21
1717,-214,15,979,-12,7,-8
1718,-34,-40,1135,-40,-29,-19
1719,182,-45,1138,-20,-46,3
1720,204,32,1090,-1,-18,5
1721,-34,-16,866,-22,9,14
1722,-215,-38,738,-4,6,31
1723,-176,39,909,3,-1,-3
1724,4,-15,1137,-39,-9,-48
1725,174,-117,1186,-40,-31,-20
1726,213,-33,1133,8,-22,20
1727,-7,35,950,14,-2,36
1728,-199,3,683,3,9,44
1729,-202,33,773,0,8,6
1730,-15,22,1122,-25,4,-52
1731,166,-130,1261,-53,-16,-40
1732,211,-96,1146,3,-25,20
1733,22,57,1007,39,-5,43
1734,-181,41,700,5,5,48
1735,-225,11,682,-6,11,15
1736,-39,47,1073,-13,11,-52
1737,139,-96,1323,-52,-9,-54
1738,217,-131,1142,-9,-33,22
1739,69,70,1025,46,-9,45
1740,-166,52,746,3,7,47
1741,-237,-9,651,-9,15,23
1742,-69,29,1029,-10,14,-45
1743,88,-66,1341,-48,-6,-59
1744,221,-164,1124,-17,-40,20
1745,121,68,1029,51,-12,40
1746,-124,48,782,4,12,42
1747,-219,-31,646,-4,22,28
1748,-117,27,1013,2,23,-33
1749,12,-34,1335,-39,-7,-53
1750,225,-153,1100,-13,-49,21
1751,154,97,1035,48,-11,27
1752,-73,32,799,-4,18,21
1753,-204,-64,670,-4,23,31
1754,-180,46,1028,14,23,-22
1755,-23,-20,1295,-38,-19,-45
1756,198,-109,1077,-14,-55,18
1757,187,99,1051,31,-15,13
1758,-22,25,857,-23,17,10
1759,-205,-77,686,-9,19,32
1760,-187,37,980,14,16,-14
1761,-37,-6,1253,-36,-14,-45
1762,171,-136,1073,-25,-49,9
1763,218,52,1095,25,-22,16
1764,6,31,928,-4,14,13
1765,-189,-63,686,-4,20,32
1766,-183,26,872,15,15,0
1767,-67,39,1197,-19,-2,-44
1768,154,-129,1123,-40,-41,-6
1769,233,16,1123,16,-26,20
1770,31,64,1005,4,11,14
1771,-175,-54,691,-14,16,33
1772,-215,4,775,11,11,18
1773,-82,73,1157,-10,2,-43
1774,116,-129,1171,-55,-31,-26
1775,229,-38,1115,7,-35,24
1776,76,94,1060,16,0,21
1777,-156,-28,728,-21,14,33
1778,-234,-13,728,-2,9,23
1779,-76,75,1074,-8,6,-37
1780,101,-93,1224,-61,-18,-45
1781,210,-107,1123,-15,-36,17
1782,111,79,1072,29,-9,33
1783,-140,19,778,-13,8,39
1784,-245,-11,686,-10,10,28
1785,-103,34,987,-11,4,-31
1786,91,-77,1253,-53,-6,-61
1787,202,-180,1164,-25,-31,-1
1788,138,4,1064,40,-21,43
1789,-78,57,836,27,0,50
1790,-219,-4,653,4,16,32
1791,-118,-5,875,8,19,-28
1792,52,-18,1308,-18,13,-66
1793,189,-196,1215,-26,-26,-3
1794,199,-7,1033,66,-14,42
1795,-35,84,882,47,23,33
1796,-199,-42,611,11,36,35
1797,-234,18,910,32,35,-7
1798,-122,61,1349,-4,-12,-36
1799,178,-91,1119,-15,-64,14
1800,238,123,1052,44,-23,9
1801,68,38,845,-19,24,2
1802,-143,-91,696,-17,38,29
1803,-293,45,1018,12,31,-4
1804,-140,-27,1176,-29,-26,-21
1805,148,-49,1067,-8,-63,12
1806,279,69,1078,9,-32,5
1807,125,-26,910,-28,17,5
1808,-139,-76,806,-3,43,15
1809,-288,18,960,13,30,-4
1810,-169,-50,1021,-19,-22,-4
1811,124,-14,1074,2,-55,8
1812,283,57,1146,5,-32,-1
1813,144,-7,985,-18,15,3
1814,-122,-26,846,2,40,15
1815,-287,11,862,1,28,5
1816,-202,-20,959,-21,-12,-4
1817,57,-10,1114,-14,-51,-2
1818,271,27,1178,-12,-46,-1
1819,185,3,1006,-9,0,2
1820,-67,-38,825,-11,29,15
1821,-235,-14,822,-1,28,16
1822,-211,-1,1004,-17,5,-11
1823,-4,-47,1117,-29,-39,-9
1824,235,6,1152,-4,-50,4
1825,196,42,1034,-5,-9,2
1826,-48,-37,804,-19,21,16
1827,-194,-39,795,-3,18,26
1828,-182,41,1020,-2,10,-15
1829,-13,-60,1146,-43,-26,-24
1830,201,-62,1120,-13,-44,10
1831,192,45,1079,11,-12,8
1832,-34,-30,835,-16,20,15
1833,-206,-79,732,3,15,31
1834,-175,36,972,20,11,-7
1835,-17,-47,1189,-30,-13,-36
1836,187,-102,1115,-9,-41,9
1837,235,39,1107,36,-13,15
1838,18,2,887,4,27,12
1839,-196,-73,706,14,36,27
1840,-264,39,929,25,22,1
1841,-123,6,1156,-10,-22,-20
1842,157,-25,1129,-3,-55,8
1843,274,75,1106,13,-27,5
1844,108,17,910,-14,21,6
1845,-138,-59,762,-7,41,22
1846,-291,23,904,9,30,1
1847,-182,-32,1089,-25,-18,-13
1848,104,-39,1116,-9,-57,6
1849,278,33,1116,5,-39,1
1850,160,-4,972,-15,12,4
1851,-91,-67,804,-1,40,18
1852,-270,-8,874,11,34,5
1853,-193,-18,1034,-11,-8,-11
1854,54,-32,1096,-4,-49,2
1855,259,37,1140,8,-41,3
1856,191,15,997,-5,6,4
1857,-69,-36,832,-1,37,15
1858,-268,-7,850,6,34,8
1859,-236,-10,1004,-12,-2,-8
1860,0,-23,1096,-12,-49,1
1861,257,23,1136,-3,-51,2
1862,239,25,1023,-9,-6,3
1863,-11,-46,823,-10,32,14
1864,-221,-18,858,4,37,14
1865,-257,-20,987,-8,12,-7
1866,-52,-49,1090,-16,-39,-4
1867,220,18,1156,6,-54,4
1868,244,20,1028,-2,-14,2
1869,32,-29,844,-5,26,11
1870,-206,-19,820,6,37,16
1871,-264,6,986,-1,14,-5
1872,-85,-31,1104,-21,-34,-5
1873,186,17,1150,-1,-55,5
1874,264,36,1064,-4,-19,0
1875,57,-19,869,-16,23,8
1876,-182,-28,795,0,36,17
1877,-268,1,936,-6,19,-3
1878,-136,-44,1084,-26,-27,-9
1879,158,-16,1162,-8,-56,2
1880,280,20,1103,-4,-30,0
1881,87,-13,904,-10,17,7
1882,-131,-50,776,-2,33,21
1883,-247,4,887,5,25,3
1884,-160,-24,1073,-19,-12,-15
1885,112,-33,1151,-10,-51,2
1886,255,27,1133,6,-33,5
1887,119,3,965,-10,12,7
1888,-100,-55,779,-1,31,21
1889,-249,1,847,8,27,10
1890,-183,8,1058,-15,-5,-16
1891,77,-57,1119,-20,-48,2
1892,254,26,1139,3,-39,7
1893,175,21,998,-6,6,3
1894,-81,-72,805,-10,32,20
1895,-251,-19,838,14,31,15
1896,-206,-1,1039,-8,0,-12
1897,18,-66,1095,-19,-43,0
1898,251,16,1133,11,-44,10
1899,220,21,1021,2,1,4
1900,-24,-53,817,-3,35,17
1901,-244,-14,853,17,40,15
1902,-261,4,1010,-2,9,-8
1903,-52,-38,1073,-13,-42,-3
1904,218,38,1151,9,-54,5
1905,263,36,1030,-2,-14,2
1906,41,-27,837,-7,31,13
1907,-208,-10,842,6,42,15
1908,-275,-8,977,-7,15,-4
1909,-97,-36,1091,-18,-34,-3
1910,175,24,1158,1,-55,4
1911,266,19,1050,-7,-22,1
1912,72,-23,865,-11,22,9
1913,-177,-19,823,4,41,12
1914,-278,-16,929,-6,19,-2
1915,-138,-36,1074,-19,-28,-4
1916,154,7,1170,-3,-56,3
1917,277,17,1090,-11,-30,-1
1918,102,-17,901,-8,17,8
1919,-131,-28,810,-4,37,17
1920,-273,-15,879,-4,26,1
1921,-176,-29,1056,-15,-17,-8
1922,119,-17,1158,-9,-56,3
1923,281,11,1122,0,-37,3
1924,135,-6,955,-6,13,6
1925,-88,-52,800,0,35,18
1926,-273,-8,868,5,31,8
1927,-203,-26,1022,-8,-7,-10
1928,74,-27,1135,-3,-53,3
1929,271,30,1141,4,-40,6
1930,196,6,987,-1,9,6
1931,-70,-48,815,-2,40,18
1932,-275,-9,862,11,37,11
1933,-245,-11,1004,-6,-1,-7
1934,12,-20,1098,-8,-49,3
1935,271,39,1138,4,-49,7
1936,242,8,999,-6,0,3
1937,-12,-31,845,-3,39,15
1938,-247,-22,866,1,43,13
1939,-282,-23,981,-6,9,-3
1940,-47,-30,1078,-9,-44,2
1941,236,26,1153,4,-54,7
1942,261,13,1015,-5,-9,0
1943,45,-26,861,-2,32,11
1944,-215,-18,856,5,44,15
1945,-294,-31,950,-4,15,0
1946,-96,-21,1096,-6,-36,-1
1947,185,24,1158,-1,-56,4
1948,270,7,1040,-5,-21,0
1949,80,-11,887,-3,24,9
1950,-174,-23,827,0,42,14
1951,-293,-33,913,-6,21,1
1952,-146,-16,1082,-7,-29,-2
1953,160,8,1173,-3,-58,3
1954,292,7,1075,-6,-28,2
1955,113,-11,907,-4,21,6
1956,-133,-31,821,-2,43,13
1957,-303,-35,877,-3,26,4
1958,-188,-20,1047,1,-22,-3
1959,136,6,1159,0,-58,1
1960,289,10,1108,-2,-35,2
1961,168,-15,959,1,15,6
1962,-94,-20,838,5,44,14
1963,-310,-27,846,-1,36,4
1964,-237,-26,1002,-3,-15,-4
1965,76,14,1148,2,-58,5
1966,286,19,1121,-5,-44,3
1967,218,-2,986,0,6,1
1968,-50,-25,866,3,40,13
1969,-287,-29,847,-1,39,9
1970,-259,-30,979,-1,-3,-2
1971,1,4,1112,-2,-50,1
1972,265,20,1125,0,-50,3
1973,251,-3,1006,-3,-4,2
1974,-3,-31,867,2,37,12
1975,-253,-26,856,5,42,9
1976,-291,-34,962,-1,5,-3
1977,-55,-5,1092,0,-46,0
1978,248,30,1147,3,-56,3
1979,272,12,1012,-4,-10,1
1980,48,-11,871,-1,33,7
1981,-224,-16,861,-1,42,12
1982,-306,-29,939,-3,13,0
1983,-99,-3,1098,-6,-40,-2
1984,203,30,1163,-6,-59,2
1985,286,-2,1031,-8,-21,1
1986,97,-13,893,-6,26,8
1987,-180,-15,835,-1,45,12
1988,-310,-44,906,-11,22,1
1989,-162,-20,1079,-3,-31,-2
1990,160,17,1179,-2,-60,4
1991,293,0,1064,-10,-30,1
1992,127,-22,916,-5,18,5
1993,-125,-14,834,1,41,13
1994,-297,-33,861,-3,28,3
1995,-204,-17,1040,-6,-20,-5
1996,126,18,1170,-3,-58,4
1997,288,8,1103,-8,-37,4
1998,158,-18,954,-5,14,3
1999,-84,-24,850,1,39,13
2000,-306,-26,843,-3,32,6
2001,-235,-30,1000,-6,-13,-5
2002,81,11,1158,2,-58,3
2003,280,12,1112,-3,-42,3
2004,212,-7,983,-2,6,3
2005,-50,-29,872,2,41,13
2006,-287,-30,853,0,39,10
2007,-264,-21,969,-2,-4,-3
2008,12,9,1119,-1,-52,0
2009,261,22,1121,-4,-48,3
2010,251,3,999,0,-4,3
2011,-2,-19,874,-4,36,12
2012,-250,-24,865,-2,42,9
2013,-291,-23,963,-8,5,-3
2014,-45,-6,1097,-8,-45,-2
2015,233,25,1140,-3,-54,4
2016,266,6,1006,-7,-12,0
2017,51,-22,876,-7,30,10
2018,-215,-25,858,-4,42,12
2019,-301,-29,948,-2,14,-2
2020,-96,-13,1102,-8,-39,-3
2021,190,22,1149,-4,-57,4
2022,279,5,1029,-4,-22,1
2023,91,-18,888,-6,23,8
2024,-180,-16,832,0,42,14
2025,-296,-25,922,-5,18,0
2026,-146,-13,1079,-11,-31,-4
2027,156,20,1170,-2,-57,3
2028,286,8,1073,-12,-29,1
2029,118,-16,906,-9,17,6
2030,-134,-19,821,-7,40,13
2031,-293,-26,877,-12,24,3
2032,-194,-20,1056,1,-22,-6
2033,132,7,1163,-2,-56,2
2034,285,8,1103,-7,-37,2
2035,151,-22,947,-9,13,4
2036,-86,-30,835,1,38,14
2037,-289,-24,852,-6,31,6
2038,-219,-19,1015,-5,-13,-6
2039,79,6,1152,-7,-55,2
2040,272,12,1111,-3,-40,4
2041,189,-6,988,-8,6,2
2042,-62,-33,851,0,37,12
2043,-276,-21,853,-6,33,9
2044,-239,-17,993,-6,-6,-5
2045,28,-4,1117,-7,-49,3
2046,270,20,1118,-4,-44,6
2047,228,10,1006,-2,2,3
2048,-30,-39,855,-7,38,10
2049,-267,-31,855,1,38,10
2050,-272,-15,983,-4,-1,-2
2051,-16,-10,1089,-10,-49,0
2052,265,17,1137,-3,-51,6
2053,266,8,1015,-5,-6,3
2054,35,-28,864,-3,39,10
2055,-247,-33,861,0,44,13
2056,-310,-35,949,-2,10,0
2057,-86,-8,1104,-3,-42,0
2058,209,16,1148,-1,-57,2
2059,282,1,1027,1,-19,0
2060,89,-12,888,-3,29,8
2061,-190,-20,836,2,46,12
2062,-306,-30,922,-3,20,-1
2063,-135,-9,1087,-5,-31,-2
2064,165,25,1170,2,-57,4
2065,283,-1,1053,-6,-25,1
2066,113,-7,913,-1,22,7
2067,-150,-17,829,-4,43,13
2068,-304,-42,874,-5,25,1
2069,-181,-4,1065,-1,-25,-2
2070,147,19,1167,-6,-59,4
2071,292,2,1080,-9,-33,3
2072,153,-2,958,-1,15,5
2073,-107,-20,840,-2,43,13
2074,-317,-34,840,-8,29,4
2075,-225,-7,1026,-5,-19,-3
2076,104,16,1148,-4,-59,2
2077,287,10,1108,-8,-41,2
2078,205,-5,984,-7,8,2
2079,-69,-29,865,-5,41,11
2080,-302,-33,843,-7,36,7
2081,-247,-23,982,-6,-9,-3
2082,32,4,1127,-5,-54,2
2083,279,5,1116,-8,-47,4
2084,243,-5,1006,-1,-1,3
2085,-27,-37,866,-4,40,9
2086,-274,-44,848,0,41,9
2087,-283,-23,977,0,1,-2
2088,-20,-7,1099,-2,-47,1
2089,255,22,1129,3,-52,3
2090,265,0,1006,-2,-8,1
2091,28,-21,870,2,35,10
2092,-240,-18,869,2,42,11
2093,-305,-33,942,-5,9,-3
2094,-77,0,1102,-2,-43,-1
2095,224,31,1153,0,-57,5
2096,285,0,1015,-7,-16,2
2097,76,-9,888,-3,30,8
2098,-203,-18,849,-2,44,11
2099,-317,-38,915,-6,18,0
2100,-132,-12,1093,-4,-36,-2
2101,186,24,1171,-2,-58,4
2102,293,-3,1051,-6,-25,0
2103,112,-11,905,-2,23,5
2104,-155,-14,835,1,43,12
2105,-311,-37,874,-8,26,3
2106,-184,-7,1061,-1,-26,-3
2107,147,21,1172,-4,-59,1
2108,292,1,1085,-10,-33,1
2109,151,-11,943,-5,13,4
2110,-97,-19,837,-3,39,13
2111,-307,-29,846,-6,32,4
2112,-223,-22,1023,-9,-16,-5
2113,103,13,1156,-3,-58,3
2114,277,10,1114,-6,-40,2
2115,196,-13,968,-6,7,4
2116,-57,-22,867,1,38,13
2117,-296,-26,846,-6,35,5
2118,-250,-19,982,-6,-9,-6
2119,42,9,1135,-4,-53,2
2120,267,11,1113,-8,-46,4
2121,233,-3,993,-2,1,1
2122,-22,-31,875,-4,36,11
2123,-274,-33,860,-3,40,10
2124,-271,-22,975,-4,-1,-4
2125,-19,0,1095,-6,-48,0
2126,254,22,1126,-1,-49,5
2127,260,2,1005,-6,-6,2
2128,31,-36,869,-4,33,10
2129,-244,-23,869,-1,43,10
2130,-297,-27,961,-1,10,-2
2131,-67,-8,1088,-4,-43,0
2132,221,22,1149,-2,-54,5
2133,278,11,1020,-5,-14,2
2134,73,-20,875,-4,30,9
2135,-210,-20,846,-4,45,12
2136,-314,-29,935,-3,17,-2
2137,-119,-12,1100,-7,-37,-1
2138,179,18,1156,-3,-57,6
2139,293,5,1051,-6,-24,3
2140,110,-15,896,-6,22,6
2141,-168,-17,831,-2,45,11
2142,-311,-38,896,-10,24,1
2143,-173,-22,1068,-6,-29,-4
2144,144,19,1168,-2,-59,3
2145,303,-4,1080,-7,-33,1
2146,143,-11,938,-4,19,5
2147,-116,-19,826,0,42,12
2148,-307,-18,858,-3,29,4
2149,-215,-9,1026,-5,-18,-3
2150,108,18,1155,-7,-58,2
2151,290,17,1114,-7,-40,2
2152,183,-9,974,-10,10,4
2153,-72,-28,845,-5,40,12
2154,-300,-27,850,-7,35,5
2155,-245,-22,990,-8,-9,-5
2156,52,6,1137,-4,-55,1
2157,276,4,1117,-10,-46,2
2158,231,-6,994,-2,2,2
2159,-37,-31,867,-4,39,12
2160,-276,-36,857,-6,38,8
2161,-274,-19,977,-3,-1,-4
2162,-7,1,1099,-5,-48,-2
2163,261,16,1121,-5,-51,3
2164,253,2,1004,-4,-5,2
2165,16,-26,871,-5,35,11
2166,-245,-30,869,-5,43,9
2167,-300,-30,956,-6,7,-3
2168,-51,-1,1093,-2,-44,2
2169,235,24,1144,-3,-53,5
2170,271,2,1010,-8,-13,2
2171,66,-13,885,-3,31,8
2172,-222,-20,851,-6,43,12
2173,-317,-40,929,-5,13,-1
2174,-104,-6,1108,-5,-39,0
2175,191,22,1152,-5,-57,4
2176,289,3,1039,-7,-22,1
2177,104,-14,898,-5,24,6
2178,-177,-15,832,0,45,13
2179,-311,-34,900,-10,21,1
2180,-159,-13,1074,-6,-30,-3
2181,161,11,1167,-2,-58,4
2182,293,3,1079,-11,-30,2
2183,139,-16,928,-6,18,4
2184,-132,-28,826,-2,43,13
2185,-304,-35,862,-7,28,4
2186,-199,-23,1043,-4,-21,-3
2187,125,9,1162,-3,-57,3
2188,290,5,1102,0,-37,3
2189,176,-10,967,-3,13,6
2190,-87,-18,847,1,42,13
2191,-311,-28,841,-3,34,4
2192,-234,-9,1000,-2,-14,-4
2193,70,21,1147,1,-55,2
2194,282,16,1108,-9,-42,3
2195,228,-4,992,-6,5,4
2196,-47,-24,873,-5,41,11
2197,-291,-29,855,-3,39,6
2198,-272,-22,979,-7,-2,-3
2199,-2,2,1102,-6,-51,0
2200,264,20,1116,-5,-51,2
2201,263,0,1009,-7,-6,1
2202,4,-27,875,-7,36,11
2203,-251,-25,868,-4,43,10
2204,-290,-30,959,-9,4,-2
2205,-58,1,1088,-4,-43,-1
2206,237,24,1147,-4,-53,3
2207,272,4,1011,-8,-13,3
2208,55,-17,873,-7,32,8
2209,-218,-18,861,-5,41,10
2210,-303,-35,936,-8,12,-1
2211,-101,-4,1108,-5,-38,-1
2212,204,21,1153,-7,-57,3
2213,282,1,1033,-10,-20,3
2214,93,-14,893,-7,26,8
2215,-180,-16,840,-3,43,12
2216,-315,-40,909,-11,20,1
2217,-152,-14,1076,-7,-33,-2
2218,171,11,1171,-3,-57,3
2219,298,-3,1067,-7,-26,1
2220,129,-23,915,-4,20,7
2221,-130,-25,836,1,44,15
2222,-307,-35,866,-4,28,3
2223,-208,-20,1045,-2,-21,-3
2224,130,10,1158,-1,-57,4
2225,290,8,1103,0,-36,4
2226,169,-11,957,0,14,3
2227,-81,-34,845,1,42,13
2228,-305,-19,862,1,35,7
2229,-235,-19,993,-4,-12,-4
2230,70,18,1144,1,-55,3
2231,274,17,1119,-2,-42,3
2232,217,-9,973,-1,5,4
2233,-41,-20,882,-2,40,13
2234,-291,-28,860,-6,40,8
2235,-258,-20,968,-2,-6,-1
2236,7,20,1118,-4,-50,2
2237,256,16,1106,-7,-48,4
2238,250,7,1006,-5,-3,4
2239,0,-27,881,-9,35,11
2240,-258,-42,864,-8,40,9
2241,-288,-29,958,-3,4,-1
2242,-44,0,1091,-7,-46,0
2243,233,17,1140,-5,-52,1
2244,272,-1,1009,-5,-12,2
2245,53,-21,879,-4,31,9
2246,-228,-27,858,-2,43,9
2247,-306,-26,951,-3,11,-1
2248,-88,-4,1091,-5,-39,0
2249,202,30,1144,-3,-55,4
2250,284,15,1039,-4,-20,0
2251,94,-19,881,-9,26,7
2252,-190,-14,850,-4,45,10
2253,-318,-24,921,-8,19,-1
2254,-147,-12,1067,-9,-34,-2
2255,168,22,1168,-9,-59,5
2256,298,-7,1069,-14,-28,0
2257,129,-22,908,-7,20,7
2258,-139,-22,844,-5,44,13
2259,-306,-41,871,-10,27,3
2260,-195,-19,1046,-3,-24,-1
2261,137,17,1163,-5,-58,2
2262,300,-4,1093,-7,-34,2
2263,162,-9,965,-6,16,6
2264,-95,-26,841,-4,43,12
2265,-313,-28,844,-4,32,5
2266,-232,-11,1007,-5,-16,-2
2267,89,20,1149,-2,-56,4
2268,291,13,1113,-11,-42,3
2269,209,-6,985,-5,8,4
2270,-59,-32,868,-5,42,11
2271,-301,-37,851,-5,38,9
2272,-266,-21,976,-3,-7,-2
2273,17,10,1114,-4,-52,0
2274,273,8,1116,-7,-50,3
2275,251,5,1005,-1,-2,3
2276,-7,-24,878,-3,38,10
2277,-266,-34,854,-4,42,9
2278,-291,-21,964,-2,2,-2
2279,-35,16,1096,-3,-47,0
2280,248,21,1129,-6,-53,2
2281,267,3,1010,-7,-10,2
2282,42,-13,879,-5,32,8
2283,-238,-33,862,-9,43,8
2284,-312,-41,942,-8,10,-2
2285,-75,0,1106,-3,-42,-1
2286,218,17,1145,-9,-56,3
2287,285,-12,1017,-7,-17,1
2288,87,-18,905,-1,29,9
2289,-204,-29,837,-2,47,11
2290,-313,-41,920,-3,17,0
2291,-136,-6,1094,-4,-35,-1
2292,179,14,1159,-2,-58,5
2293,296,2,1059,-5,-26,3
2294,120,-14,909,-2,23,7
2295,-153,-18,832,-1,46,13
2296,-317,-34,878,-6,26,3
2297,-191,-11,1053,-1,-26,-1
2298,140,23,1170,-1,-57,3
2299,295,2,1088,-8,-34,1
2300,159,-8,952,-1,14,6
2301,-96,-14,844,-5,43,12
2302,-308,-35,839,-6,33,4
2303,-231,-12,1011,-5,-16,-2
2304,93,19,1165,-3,-57,4
2305,279,9,1107,-9,-41,3
2306,200,-9,973,-4,6,4
2307,-58,-17,878,-1,40,12
2308,-301,-34,838,-9,36,7
2309,-253,-13,981,-4,-9,-2
2310,36,19,1131,-6,-53,1
2311,271,14,1113,-10,-47,3
2312,243,-6,997,-6,1,3
2313,-25,-31,880,-7,39,9
2314,-274,-38,857,-6,39,7
2315,-287,-29,963,-7,-1,-3
2316,-23,-2,1102,-6,-49,-1
2317,258,17,1128,0,-52,4
2318,269,-8,1001,-6,-8,3
2319,28,-22,878,-1,34,9
2320,-237,-22,869,-1,42,10
2321,-309,-21,949,-2,8,0
2322,-73,-1,1092,-7,-42,-1
2323,219,28,1150,-6,-57,4
2324,284,7,1018,-8,-17,3
2325,77,-13,886,-10,30,8
2326,-205,-22,848,-4,44,10
2327,-308,-32,931,-7,16,0
2328,-124,-17,1087,-11,-35,-2
2329,180,22,1167,-5,-56,4
2330,292,-9,1047,-12,-24,2
2331,109,-19,905,-5,22,8
2332,-160,-23,827,0,45,11
2333,-312,-37,883,-5,25,1
2334,-181,-11,1062,-4,-25,-2
2335,153,22,1176,-3,-58,4
2336,300,3,1084,-5,-31,3
2337,153,-5,935,-2,19,6
2338,-115,-17,837,-5,44,14
2339,-322,-36,851,-7,31,4
2340,-219,-11,1023,-2,-19,-3
2341,107,18,1158,-5,-58,3
2342,285,2,1109,-10,-39,3
2343,195,-13,976,-4,9,6
2344,-65,-26,863,-1,42,13
2345,-307,-41,840,-5,37,6
2346,-252,-22,986,-2,-9,-2
2347,47,13,1133,-1,-53,2
2348,269,15,1120,-5,-44,3
2349,230,2,995,0,0,3
2350,-27,-22,874,-8,38,12
2351,-276,-25,855,-7,38,10
2352,-276,-20,963,-5,-2,-4
2353,-12,8,1114,-10,-49,0
2354,257,15,1121,-8,-52,4
2355,261,0,1007,-9,-8,3
2356,25,-28,875,-8,34,11
2357,-246,-33,860,-4,42,11
2358,-301,-27,954,-5,8,-2
2359,-61,-8,1093,-4,-43,-1
2360,226,12,1147,-7,-54,6
2361,284,5,1018,-1,-14,3
2362,71,-17,883,-7,32,8
2363,-225,-26,846,-4,46,10
2364,-313,-34,934,-3,14,0
2365,-117,-4,1096,-6,-38,-1
2366,192,21,1154,-3,-57,3
2367,293,7,1054,-7,-23,3
2368,105,-14,894,-7,25,7
2369,-179,-16,836,1,46,12
2370,-314,-38,892,-14,21,1
2371,-170,-15,1071,2,-30,-2
2372,160,19,1174,-9,-59,2
2373,304,-3,1080,-7,-32,2
2374,143,-15,927,-4,18,6
2375,-125,-22,836,-4,43,12
2376,-313,-38,850,-3,29,3
2377,-214,-13,1044,-7,-21,-3
2378,121,22,1161,-1,-58,2
2379,294,2,1099,-12,-40,2
2380,179,-3,973,0,11,5
2381,-73,-21,849,-4,39,12
2382,-305,-34,839,-7,35,5
2383,-244,-15,999,-7,-11,-5
2384,61,5,1149,-2,-54,2
2385,275,6,1111,-8,-46,3
2386,224,0,992,1,3,3
2387,-33,-32,869,-6,40,12
2388,-280,-39,845,-2,39,8
2389,-268,-19,979,2,-1,-3
2390,-2,9,1116,-2,-49,3
2391,260,13,1112,-4,-49,5
2392,249,11,1008,-3,-5,3
2393,9,-18,872,-4,34,9
2394,-251,-25,853,-4,42,10
2395,-292,-24,962,-5,5,-3
2396,-51,7,1099,-9,-46,2
2397,243,14,1135,-9,-55,4
2398,276,7,1017,-8,-11,2
2399,60,-26,881,-7,33,8
2400,-225,-33,853,-5,44,11
2401,-314,-41,936,-4,13,-1
2402,-96,-12,1105,-5,-40,0
2403,200,15,1145,-3,-56,5
2404,289,6,1044,-1,-21,2
2405,100,-19,902,-6,27,8
2406,-187,-24,823,0,47,13
2407,-318,-22,913,-3,20,0
2408,-156,-13,1071,-6,-31,-1
2409,156,20,1177,0,-59,5
2410,300,8,1073,-7,-29,2
2411,138,-16,910,-4,20,6
2412,-133,-18,841,-6,45,12
2413,-309,-34,863,-8,27,3
2414,-206,-12,1041,-4,-21,-3
2415,121,14,1167,-5,-56,2
2416,292,0,1097,-7,-38,2
2417,178,-17,960,-3,12,6
2418,-77,-20,853,-1,43,11
2419,-303,-32,843,-3,36,3
2420,-238,-21,998,-4,-12,-4
2421,60,17,1152,0,-54,3
2422,274,17,1119,-4,-44,2
2423,219,-3,983,-5,3,4
2424,-40,-25,873,-4,40,13
2425,-283,-25,851,-3,39,7
2426,-262,-22,974,-4,-3,-4
2427,-1,7,1113,-7,-49,2
2428,255,12,1119,-7,-49,4
2429,251,0,1005,-5,-5,2
2430,0,-32,868,-7,35,10
2431,-255,-27,862,-2,41,8
2432,-289,-27,960,-4,5,-3
2433,-46,1,1092,-5,-47,0
2434,243,19,1143,-5,-54,4
2435,273,3,1009,-5,-11,2
2436,48,-17,872,-6,32,8
2437,-234,-25,864,-4,43,9
2438,-314,-38,943,-5,11,-1
2439,-92,-5,1101,-4,-42,-1
2440,211,18,1148,-6,-57,3
2441,286,-3,1033,-4,-20,0
2442,91,-14,892,-4,26,8
2443,-184,-18,843,0,44,12
2444,-318,-42,908,-7,20,-1
2445,-153,-17,1083,-3,-32,-2
2446,170,21,1171,0,-59,5
2447,296,0,1065,-7,-28,2
2448,127,-9,907,-1,21,5
2449,-134,-15,838,-1,43,12
2450,-314,-32,871,-10,28,3
2451,-195,-15,1050,-5,-25,-4
2452,136,28,1168,-2,-58,4
2453,293,9,1094,-10,-36,1
2454,164,-13,950,-6,14,4
2455,-92,-17,843,-4,41,13
2456,-310,-30,846,-8,32,4
2457,-232,-22,1007,-8,-16,-4
2458,92,14,1153,-3,-58,4
2459,283,9,1117,-10,-43,3
2460,204,-14,980,-7,7,3
2461,-51,-32,866,-4,39,13
2462,-294,-28,846,-5,38,8
2463,-256,-18,983,-4,-6,-4
2464,19,3,1121,-5,-53,1
2465,262,18,1118,-3,-48,3
2466,240,1,1000,-5,-2,1
2467,-12,-30,873,-7,36,11
2468,-259,-27,857,-4,38,10
2469,-276,-19,968,-4,2,-6
2470,-32,-2,1095,-8,-45,-1
2471,243,19,1128,-5,-52,4
2472,256,6,1012,-7,-10,2
2473,38,-26,872,-3,32,8
2474,-230,-26,860,-4,40,11
2475,-292,-23,958,-5,9,-2
2476,-74,-14,1100,-9,-41,-2
2477,210,21,1146,-6,-54,5
2478,276,3,1024,-6,-17,2
2479,74,-17,884,-7,28,8
2480,-197,-20,836,-1,41,13
2481,-305,-37,929,-6,16,0
2482,-126,-17,1093,-6,-32,-2
2483,184,19,1164,0,-58,4
2484,297,0,1055,-9,-25,3
2485,108,-11,903,-4,25,8
2486,-162,-22,827,-3,46,13
2487,-312,-28,881,-7,24,2
2488,-182,-20,1063,-7,-27,-2
2489,149,17,1170,-2,-59,4
2490,308,2,1088,-7,-32,2
2491,152,-9,942,-6,19,7
2492,-108,-14,838,-3,46,14
2493,-317,-38,844,-6,32,5
2494,-229,-8,1022,-4,-18,-2
2495,102,22,1159,-5,-59,4
2496,282,7,1108,-12,-41,3
2497,195,0,983,-5,6,3
2498,-64,-22,858,-5,40,12
2499,-297,-33,842,-10,36,7
2500,-251,-26,984,-8,-9,-4
2501,47,8,1137,-4,-53,2
2502,273,4,1119,-9,-45,2
2503,226,-7,995,0,1,3
2504,-25,-29,876,-4,37,10
2505,-280,-41,851,-3,39,8
2506,-273,-28,968,1,-2,-3
2507,-8,8,1110,-1,-51,1
2508,265,15,1123,-4,-51,3
2509,264,8,1008,-3,-6,2
2510,17,-14,875,-5,36,10
2511,-247,-25,861,-7,43,9
2512,-309,-25,952,-8,7,-4
2513,-62,-3,1095,-7,-45,-1
2514,233,17,1148,-8,-56,4
2515,281,9,1017,-4,-15,0
2516,75,-20,881,-9,29,8
2517,-210,-22,852,0,43,13
2518,-316,-42,927,-7,17,-2
2519,-118,-19,1097,-5,-36,-2
2520,185,20,1161,-1,-58,4
2521,291,6,1046,-7,-25,1
2522,111,-14,900,-6,22,5
2523,-170,-15,829,0,46,12
2524,-305,-29,898,-8,22,1
2525,-174,-19,1062,-8,-29,-3
2526,154,17,1174,-3,-58,4
2527,298,8,1086,-8,-31,2
2528,142,-19,921,-6,18,5
2529,-117,-20,832,-2,43,13
2530,-310,-30,860,-5,29,4
2531,-213,-28,1030,-8,-19,-4
2532,111,19,1167,0,-58,3
2533,293,10,1103,-5,-39,2
2534,185,-7,966,-3,11,5
2535,-75,-21,853,-2,41,12
2536,-303,-24,854,-5,35,6
2537,-248,-14,991,-7,-9,-4
2538,52,18,1137,-3,-55,2
2539,274,19,1121,-12,-45,3
2540,227,-6,991,-11,1,4
2541,-36,-32,869,-7,38,12
2542,-277,-30,853,-6,38,8
2543,-264,-35,976,-9,-2,-4
2544,-6,-11,1105,-8,-49,0
2545,263,13,1129,0,-50,4
2546,255,-6,1002,-5,-4,2
2547,9,-33,862,-3,34,12
2548,-244,-27,870,2,43,10
2549,-294,-25,962,-2,7,-3
2550,-55,-2,1089,-2,-43,-1
2551,236,27,1147,-2,-54,4
2552,270,8,1010,-3,-11,3
2553,57,-9,877,-3,31,9
2554,-223,-23,854,-6,42,12
2555,-314,-31,941,-5,13,-2
2556,-101,-9,1096,-5,-40,-1
2557,207,22,1150,-5,-59,5
2558,286,2,1042,-8,-20,3
2559,97,-19,894,-5,27,6
2560,-182,-18,839,-2,45,12
2561,-321,-37,900,-8,22,0
2562,-157,-18,1072,-4,-30,-3
2563,167,15,1169,-1,-59,3
2564,297,3,1076,-9,-30,1
2565,138,-11,923,-1,19,7
2566,-133,-27,824,-4,44,14
2567,-313,-27,868,-4,29,3
2568,-208,-11,1043,-3,-21,-4
2569,128,17,1155,-3,-59,3
2570,297,18,1107,-5,-38,3
2571,175,-7,957,-8,12,4
2572,-84,-17,844,-2,42,14
2573,-310,-24,853,-10,34,5
2574,-243,-17,996,-7,-12,-4
2575,74,11,1139,-5,-58,2
2576,280,19,1127,-9,-44,2
2577,212,-12,981,-9,4,2
2578,-45,-29,868,-6,37,12
2579,-285,-33,859,-7,38,8
2580,-259,-29,973,-7,-3,-4
2581,10,1,1120,-4,-50,2
2582,260,17,1121,-7,-49,4
2583,248,-5,999,-4,-5,1
2584,-3,-23,870,-2,37,11
2585,-256,-28,861,-4,42,10
2586,-284,-34,972,-5,3,-3
2587,-38,-9,1094,-4,-46,0
2588,243,20,1136,-1,-51,4
2589,268,0,1009,-7,-10,3
2590,46,-29,871,-1,31,11
2591,-229,-23,863,2,43,11
2592,-302,-36,952,-4,12,-2
2593,-90,-13,1096,-2,-39,1
2594,209,29,1151,-2,-56,5
2595,283,3,1026,-3,-16,3
2596,83,-17,891,-4,29,7
2597,-200,-13,846,3,44,12
2598,-312,-37,904,-7,19,1
2599,-143,-9,1081,-5,-33,0
2600,178,29,1174,-1,-58,3
2601,301,0,1063,-11,-28,3
2602,119,-9,912,-2,23,6
2603,-152,-25,829,-5,45,12
2604,-317,-36,872,-8,25,4
2605,-197,-19,1048,-4,-26,-3
2606,143,19,1171,-2,-61,1
2607,304,0,1094,-7,-38,1
2608,166,-9,959,-3,16,6
2609,-97,-20,837,-1,44,13
2610,-309,-32,844,-3,33,5
2611,-241,-18,1008,-6,-16,-3
2612,92,11,1152,-2,-59,4
2613,286,16,1120,-6,-44,3
2614,209,-7,980,-3,6,3
2615,-50,-24,864,-4,40,14
2616,-301,-27,852,-6,38,8
2617,-256,-23,975,-5,-6,-4
2618,22,11,1124,-5,-53,1
2619,273,13,1119,-9,-49,4
2620,248,-5,996,-4,-1,3
2621,-12,-23,877,-3,39,12
2622,-267,-33,858,-5,41,9
2623,-289,-38,965,-7,3,-3
2624,-30,0,1097,-3,-48,0
2625,255,19,1130,-4,-52,4
2626,273,0,1006,-4,-8,2
2627,38,-20,874,-2,35,11
2628,-235,-19,868,-2,44,12
2629,-312,-32,944,-4,11,-2
2630,-82,-3,1095,-3,-41,1
2631,219,28,1146,-3,-57,5
2632,277,7,1028,-7,-17,0
2633,85,-18,886,-6,29,7
2634,-200,-21,845,-3,45,14
2635,-317,-34,921,-6,19,0
2636,-133,-20,1089,-4,-35,-1
2637,174,13,1164,-1,-59,5
2638,298,0,1061,-5,-25,1
2639,120,-16,900,-2,23,7
2640,-157,-16,835,0,45,12
2641,-312,-30,878,-5,24,2
2642,-185,-13,1057,-4,-26,-3
2643,141,20,1167,-2,-58,4
2644,300,4,1091,-8,-33,2
2645,161,-9,942,-3,17,5
2646,-110,-15,841,-5,44,13
2647,-313,-31,846,-6,31,4
2648,-227,-22,1016,-7,-17,-2
2649,96,16,1154,-3,-58,3
2650,295,13,1120,-5,-42,2
2651,204,-15,971,-6,9,4
2652,-65,-24,865,-1,41,11
2653,-305,-32,847,-8,38,6
2654,-252,-24,982,-5,-8,-3
2655,28,18,1129,-2,-54,2
2656,283,9,1115,-9,-47,3
2657,240,0,1002,-5,0,4
2658,-21,-20,876,-6,38,9
2659,-277,-30,849,-6,40,8
2660,-281,-20,965,-8,-1,-3
2661,-23,7,1104,-10,-49,2
2662,265,21,1128,-6,-53,4
2663,264,0,1003,-11,-8,2
2664,22,-18,882,-4,34,9
2665,-241,-33,862,-9,40,11
2666,-312,-31,945,-7,8,-2
2667,-70,2,1099,-8,-43,-3
2668,229,16,1144,-9,-56,4
2669,277,2,1019,-8,-15,3
2670,75,-10,891,-6,29,7
2671,-216,-25,841,-6,45,9
2672,-316,-42,925,-9,17,-1
2673,-116,-12,1101,-8,-38,0
2674,187,17,1160,-4,-59,3
2675,290,-9,1047,-10,-24,-1
2676,107,-18,906,-3,23,8
2677,-166,-18,830,-2,44,13
2678,-309,-45,882,-9,23,0
2679,-173,-9,1074,-2,-28,-2
2680,158,15,1174,-2,-59,4
2681,297,0,1076,-7,-31,2
2682,143,-10,935,-1,19,5
2683,-117,-16,839,-1,45,14
2684,-316,-35,847,-6,30,3
2685,-210,-16,1036,-3,-18,-3
2686,114,23,1165,-1,-57,2
2687,288,0,1099,-7,-39,1
2688,189,-9,973,-2,11,5
2689,-72,-24,860,-1,43,15
2690,-306,-37,844,-4,38,7
2691,-245,-16,989,-2,-7,-3
2692,46,14,1139,3,-54,2
2693,270,14,1111,-6,-45,2
2694,235,0,995,0,1,3
2695,-27,-18,878,-4,39,13
2696,-278,-35,852,-5,42,9
2697,-271,-14,975,-2,1,-1
2698,-20,0,1099,-8,-47,0
2699,247,22,1124,-2,-50,2
2700,258,0,1004,-7,-9,2
2701,23,-30,871,-5,34,11
2702,-236,-27,874,-3,43,10
2703,-292,-39,948,-7,8,0
2704,-67,-5,1097,-14,-41,1
2705,213,18,1143,-15,-53,3
2706,274,0,1014,-2,-17,0
2707,74,-14,880,-5,30,9
2708,-208,-21,857,6,43,11
2709,-304,-37,932,-8,14,-1
2710,-122,-2,1103,3,-35,0
2711,176,25,1155,-11,-58,3
2712,280,-3,1040,-2,-25,2
2713,110,-9,898,-8,21,8
2714,-156,-12,836,3,43,13
2715,-299,-37,901,-10,23,1
2716,-174,-14,1067,-2,-26,-1
2717,147,15,1173,-3,-58,3
2718,289,-3,1075,-7,-30,1
2719,142,-17,926,0,17,6
2720,-115,-15,837,-1,43,12
2721,-302,-35,859,-5,29,3
2722,-212,-10,1040,-4,-19,-3
2723,108,22,1158,-1,-56,2
2724,285,5,1100,-11,-38,1
2725,177,-9,967,-5,11,5
2726,-71,-23,859,-6,39,12
2727,-305,-36,844,-8,33,5
2728,-241,-10,996,-7,-13,-2
2729,63,18,1137,-3,-56,2
2730,274,1,1113,-12,-44,1
2731,222,-3,994,-2,2,2
2732,-37,-31,881,-7,38,11
2733,-288,-36,853,-7,38,8
2734,-269,-24,965,-1,-2,-2
2735,3,14,1112,-6,-50,3
2736,262,6,1110,-6,-50,3
2737,257,5,1010,-4,-5,1
2738,5,-25,879,-6,36,9
2739,-250,-31,868,-3,42,9
2740,-299,-28,952,-7,7,-2
2741,-51,-2,1092,-6,-46,1
2742,239,25,1141,-2,-53,4
2743,274,2,1008,-6,-11,1
2744,64,-20,882,-7,32,8
2745,-221,-34,860,-5,44,10
2746,-314,-39,938,-4,13,-1
2747,-100,-15,1103,-2,-39,-2
2748,195,24,1149,-2,-56,3
2749,288,0,1034,-5,-20,1
2750,101,-11,897,-1,28,8
2751,-179,-20,835,0,47,13
2752,-316,-33,909,-5,22,2
2753,-163,-12,1073,-3,-30,0
2754,161,24,1167,-1,-59,5
2755,302,3,1074,-8,-29,1
2756,132,-16,918,-4,21,6
2757,-134,-20,838,-2,45,12
2758,-308,-33,867,-6,28,3
2759,-206,-20,1036,-5,-21,-3
2760,129,21,1167,-2,-58,4
2761,294,1,1100,-10,-37,3
2762,174,-13,963,-2,14,5
2763,-87,-17,850,-1,43,12
2764,-310,-35,843,-6,34,5
2765,-244,-19,995,-4,-14,-2
2766,78,19,1147,0,-57,3
2767,280,14,1117,-9,-43,2
2768,218,-9,980,-4,4,4
2769,-42,-15,882,0,41,11
2770,-297,-33,850,-9,39,7
2771,-265,-20,972,-2,-4,-1
2772,1,17,1114,-4,-52,1
2773,267,14,1108,-10,-51,2
2774,250,0,1011,-3,-5,1
2775,2,-27,881,-8,35,9
2776,-251,-31,861,-2,40,8
2777,-290,-30,958,-6,6,-2
2778,-54,0,1095,-6,-45,3
2779,239,17,1134,-4,-54,3
2780,271,-1,1002,-5,-14,0
2781,59,-18,883,-2,31,9
2782,-221,-29,871,-2,44,11
2783,-306,-38,938,-4,13,-1
2784,-94,7,1108,0,-38,-1
2785,203,17,1133,-6,-55,4
2786,283,9,1033,-2,-19,3
2787,91,-13,891,-6,28,7
2788,-186,-17,841,-3,44,12
2789,-317,-33,923,-8,20,2
2790,-144,-16,1078,-10,-34,-1
2791,172,18,1165,-2,-59,5
2792,298,3,1061,-10,-26,2
2793,126,-21,906,-5,22,7
2794,-140,-24,838,-3,45,13
2795,-313,-31,877,-4,26,3
2796,-196,-16,1046,-4,-23,-3
2797,132,21,1167,-3,-59,4
2798,291,4,1091,-8,-35,2
2799,165,-5,958,-6,14,4
2800,-88,-22,834,-4,42,13
2801,-309,-22,843,-7,31,5
2802,-226,-7,1013,-7,-16,-4
2803,84,15,1155,-6,-57,3
2804,277,9,1111,-11,-41,1
2805,205,-12,985,-6,5,2
2806,-53,-29,866,-5,38,12
2807,-293,-40,847,-8,38,7
2808,-252,-24,985,-6,-7,-3
2809,29,-3,1121,-4,-52,1
2810,275,12,1118,-4,-47,4
2811,242,-12,1001,-2,1,1
2812,-17,-32,878,0,39,12
2813,-273,-31,862,0,41,10
2814,-283,-29,964,1,1,-2
2815,-27,3,1092,-2,-47,2
2816,253,24,1133,-2,-52,3
2817,276,7,1009,-3,-8,3
2818,36,-19,875,-2,35,10
2819,-237,-29,864,-3,45,11
2820,-307,-26,953,-3,12,1
2821,-93,-4,1086,-5,-40,1
2822,217,24,1148,-6,-58,4
2823,287,8,1026,-2,-17,2
2824,87,-15,892,-4,30,8
2825,-193,-25,846,-4,46,12
2826,-316,-33,928,-4,18,1
2827,-139,-7,1083,-4,-34,-1
2828,168,17,1156,-1,-58,3
2829,290,6,1061,-6,-28,1
2830,122,-12,908,-4,19,7
2831,-154,-17,834,-3,44,12
2832,-307,-25,882,-5,25,3
2833,-189,-10,1054,-8,-27,-3
2834,144,23,1166,-4,-59,3
2835,297,0,1089,-10,-34,1
2836,152,-10,946,-5,16,3
2837,-103,-16,838,-4,41,11
2838,-310,-35,846,-10,29,4
2839,-230,-9,1023,-5,-18,-3
2840,105,20,1157,-8,-59,2
2841,282,0,1107,-14,-42,1
2842,199,-12,976,-8,8,3
2843,-58,-26,865,-4,39,13
2844,-301,-36,846,-8,36,6
2845,-255,-18,985,-5,-8,-4
2846,41,5,1130,-6,-54,2
2847,276,9,1116,-9,-48,4
2848,232,-6,996,-1,1,1
2849,-26,-28,876,-3,36,11
2850,-273,-39,850,-4,39,10
2851,-276,-27,974,-1,-2,-2
2852,-9,1,1099,-5,-49,2
2853,265,13,1128,-1,-50,6
2854,264,5,1006,-2,-6,2
2855,19,-20,879,-2,36,10
2856,-253,-33,857,-6,44,11
2857,-303,-28,954,-3,7,0
2858,-60,-2,1093,-5,-44,2
2859,234,20,1146,-3,-56,4
2860,284,10,1023,-4,-13,3
2861,70,-14,886,-6,32,8
2862,-221,-23,845,-2,45,11
2863,-318,-38,925,-5,16,1
2864,-123,-9,1099,-5,-36,0
2865,188,19,1161,-3,-59,4
2866,297,2,1044,-5,-26,2
2867,113,-13,901,-6,25,6
2868,-170,-21,835,-2,46,10
2869,-316,-38,889,-7,23,2
2870,-173,-14,1072,-5,-30,-1
2871,152,24,1167,-2,-59,3
2872,300,3,1075,-9,-31,1
2873,143,-19,931,-4,17,4
2874,-126,-24,842,-1,44,12
2875,-315,-38,852,-6,29,3
2876,-212,-18,1030,-2,-21,-3
2877,118,19,1158,-1,-59,2
2878,304,7,1102,-3,-40,3
2879,187,-12,970,-4,11,4
2880,-81,-19,861,1,44,11
2881,-309,-32,847,-5,35,6
2882,-248,-19,991,-7,-12,-1
2883,62,15,1136,0,-56,1
2884,281,18,1119,-10,-46,3
2885,232,-14,983,-6,3,3
2886,-36,-26,885,-4,40,12
2887,-281,-32,852,-3,39,10
2888,-276,-28,964,-4,-3,-1
2889,-5,14,1114,-1,-49,3
2890,265,18,1119,-3,-50,4
2891,259,0,1005,-4,-5,3
2892,8,-23,873,-3,36,10
2893,-250,-26,866,-4,43,12
2894,-301,-29,951,-8,6,-1
2895,-54,5,1096,-5,-46,0
2896,232,22,1143,-7,-54,4
2897,280,-1,1005,-7,-13,2
2898,60,-12,889,-4,32,9
2899,-221,-34,852,-7,45,11
2900,-317,-34,938,-5,12,1
2901,-101,-3,1103,-4,-39,-1
2902,194,20,1146,-4,-58,4
2903,288,-2,1038,-6,-22,2
2904,103,-14,899,-4,27,8
2905,-186,-27,830,-5,46,11
2906,-316,-32,909,-4,20,2
2907,-161,-9,1077,-4,-33,-1
2908,161,13,1168,-2,-59,2
2909,298,-2,1075,-5,-29,-1
2910,136,-15,919,-2,19,5
2911,-126,-25,831,-2,43,13
2912,-311,-27,871,-2,30,2
2913,-204,-16,1043,-6,-21,-1
2914,122,19,1155,-4,-58,4
2915,292,7,1108,-5,-36,1
2916,175,-11,961,-4,13,4
2917,-79,-26,844,-4,41,13
2918,-306,-27,850,-3,36,5
2919,-240,-21,998,-4,-12,-2
2920,73,15,1142,-1,-56,3
2921,281,16,1123,-7,-41,1
2922,216,-9,982,-5,5,4
2923,-45,-33,874,-5,40,12
2924,-295,-25,855,-3,40,9
2925,-261,-23,973,-4,-5,-2
2926,6,5,1110,-3,-50,2
2927,264,14,1118,-5,-50,3
2928,260,3,1010,-2,-4,3
2929,0,-29,876,-8,38,11
2930,-259,-26,863,-2,42,11
2931,-290,-29,950,-5,3,0
2932,-56,8,1093,-6,-45,1
2933,235,13,1133,-4,-55,2
2934,275,8,1016,-5,-15,2
2935,57,-16,882,-4,32,9
2936,-222,-28,859,-7,44,11
2937,-306,-27,943,-4,12,0
2938,-96,-10,1103,-6,-39,0
2939,195,22,1143,-5,-56,2
2940,285,3,1030,-5,-20,1
2941,90,-11,893,-9,27,6
2942,-190,-24,839,-4,43,10
2943,-315,-34,916,-5,18,-1
2944,-141,-13,1086,-6,-33,-1
2945,170,19,1168,-4,-59,4
2946,298,-7,1056,-10,-28,1
2947,131,-9,913,-1,19,5
2948,-141,-19,834,-3,44,11
2949,-310,-39,875,-9,27,3
2950,-199,-9,1058,-3,-25,-3
2951,134,14,1154,-4,-61,3
2952,298,0,1093,-6,-36,1
2953,161,-21,954,-5,15,5
2954,-84,-26,843,-1,40,14
2955,-304,-32,843,-5,34,5
2956,-237,-19,1013,-1,-15,-4
2957,85,17,1153,-2,-57,4
2958,279,13,1113,-6,-43,3
2959,201,0,983,-2,9,3
2960,-52,-27,872,-1,41,13
2961,-290,-31,843,-6,37,10
2962,-261,-10,984,-4,-7,-4
2963,23,9,1117,-6,-53,1
2964,264,16,1117,-6,-48,4
2965,242,-4,1000,-4,-1,1
2966,-12,-26,887,-7,37,11
2967,-271,-38,849,-6,40,8
2968,-286,-24,964,-2,0,-3
2969,-28,7,1101,-6,-48,1
2970,249,18,1123,-5,-53,3
2971,269,5,1005,-7,-11,1
2972,41,-12,890,-3,33,9
2973,-239,-32,855,-7,43,9
2974,-303,-28,951,-6,9,-2
2975,-77,3,1101,-6,-42,0
2976,213,12,1132,-12,-57,2
2977,284,7,1028,-5,-19,1
2978,86,-20,892,-10,29,7
2979,-201,-32,844,-5,45,11
2980,-314,-42,922,-4,17,0
2981,-125,-15,1096,-5,-35,0
2982,180,19,1160,0,-56,5
2983,297,1,1053,-8,-26,1
2984,115,-11,909,-4,23,7
2985,-164,-16,830,-2,46,12
2986,-309,-36,884,-8,24,3
2987,-183,-5,1061,-7,-27,0
2988,144,19,1166,-8,-59,2
2989,305,4,1092,-9,-33,2
2990,153,-12,941,-6,18,6
2991,-113,-21,834,-6,44,12
2992,-314,-33,853,-8,31,5
2993,-223,-23,1016,-8,-18,-1
2994,105,15,1154,-3,-58,4
2995,293,11,1117,-9,-40,1
2996,194,-12,974,-7,9,4
2997,-70,-26,866,-2,42,12
2998,-308,-35,844,-7,37,5
2999,-253,-20,975,-4,-10,-2
3000,40,13,1131,-3,-56,1
3001,279,14,1126,-7,-48,2
3002,238,2,1000,-1,1,1
3003,-28,-23,870,-8,39,10
3004,-279,-31,857,-5,39,8
3005,-285,-31,965,-6,0,-3
3006,-12,-1,1103,-6,-50,1
3007,263,19,1133,-5,-53,4
3008,263,-8,996,-8,-7,1
3009,23,-19,883,-2,35,9
3010,-247,-33,862,-3,43,10
3011,-304,-37,948,-4,8,0
3012,-61,2,1099,0,-44,0
3013,234,19,1149,-4,-55,4
3014,273,0,1012,-4,-13,1
3015,73,-10,886,1,31,8
3016,-225,-16,854,-4,46,10
3017,-317,-42,923,-4,14,-2
3018,-116,1,1101,-3,-38,-2
3019,195,18,1156,-4,-58,3
3020,296,-2,1044,-6,-24,2
3021,107,-11,907,-3,25,7
3022,-167,-28,829,-3,46,12
3023,-323,-40,891,-5,24,1
3024,-175,-12,1069,-3,-30,-2
3025,155,12,1166,-1,-60,4
3026,300,10,1087,-5,-31,1
3027,151,-9,932,-2,18,5
3028,-119,-14,832,-3,45,13
3029,-314,-34,852,-5,31,3
3030,-216,-5,1035,-1,-21,-2
3031,115,19,1162,-7,-59,2
3032,292,12,1106,-5,-39,1
3033,183,-7,976,-6,10,3
3034,-76,-26,852,-6,41,12
3035,-307,-29,839,-7,34,6
3036,-243,-16,994,-7,-13,-3
3037,61,0,1135,-6,-56,2
3038,278,3,1115,-10,-44,4
3039,235,-6,999,-2,2,3
3040,-39,-32,873,-4,37,11
3041,-288,-34,850,-3,38,8
3042,-267,-21,976,-4,-3,-3
3043,-6,7,1097,1,-49,2
3044,267,22,1117,-12,-52,2
3045,263,7,1016,-2,-5,3
3046,7,-28,872,-10,35,11
3047,-256,-31,865,-2,44,10
3048,-297,-37,959,-7,6,-1
3049,-57,-7,1089,-7,-45,2
3050,245,16,1139,-1,-55,4
3051,283,0,1014,-7,-12,2
3052,59,-21,883,2,35,9
3053,-222,-35,854,-5,45,12
3054,-317,-36,943,4,16,1
3055,-112,-5,1101,-4,-38,0
3056,201,19,1144,3,-58,4
3057,296,7,1044,-3,-21,2
3058,101,-11,894,-1,28,7
3059,-182,-17,836,0,47,12
3060,-319,-35,905,-6,22,3
3061,-176,-2,1071,-2,-30,-2
3062,157,30,1171,0,-59,1
3063,302,-6,1069,-14,-31,0
3064,141,-4,926,-2,18,6
3065,-118,-23,829,-6,44,11
3066,-313,-39,856,-10,29,4
3067,-213,-12,1043,-2,-20,-3
3068,119,16,1167,-6,-59,3
3069,284,-3,1093,-7,-38,1
3070,179,-8,977,-3,10,3
3071,-72,-27,843,-1,41,12
3072,-305,-34,838,-5,33,6
3073,-242,-11,1000,-1,-13,-6
3074,69,15,1145,-2,-56,2
3075,271,14,1114,-9,-44,2
3076,217,-5,985,-3,3,1
3077,-33,-25,880,-2,37,13
3078,-281,-27,847,-3,40,9
3079,-268,-27,972,-5,-2,-4
3080,-3,8,1111,-4,-50,0
3081,255,13,1116,-7,-51,3
3082,248,2,1007,-6,-7,1
3083,16,-31,879,-4,32,11
3084,-241,-24,862,-1,41,11
3085,-287,-27,962,-5,6,-3
3086,-58,-2,1087,-6,-43,1
3087,229,19,1138,-3,-54,5
3088,265,5,1008,-6,-13,0
3089,61,-26,879,-9,29,8
3090,-214,-21,869,-4,44,12
3091,-302,-29,939,-7,15,-2
3092,-93,-9,1098,-9,-39,-2
3093,191,20,1146,-7,-57,4
3094,282,2,1033,-4,-20,2
3095,97,-18,892,-7,27,9
3096,-185,-21,839,-2,45,12
3097,-309,-36,916,-6,21,0
3098,-152,-23,1075,-8,-31,-1
3099,157,20,1174,-1,-58,4
3100,300,2,1068,-8,-29,2
3101,135,-17,905,-3,20,7
3102,-134,-15,834,1,45,12
3103,-305,-37,872,-8,30,2
3104,-204,-13,1049,-3,-21,-2
3105,120,15,1160,-2,-58,3
3106,292,5,1101,-5,-38,0
3107,171,-15,953,-2,12,5
3108,-89,-15,847,0,43,13
3109,-303,-29,849,-4,35,4
3110,-238,-19,997,-5,-14,-2
3111,78,24,1152,1,-56,3
3112,278,11,1120,-10,-42,1
3113,213,-5,976,-5,5,4
3114,-50,-25,880,-5,40,11
3115,-289,-36,857,-7,38,8
3116,-268,-30,962,-2,-4,-3
3117,14,11,1116,-3,-51,2
3118,268,17,1127,-5,-51,3
3119,245,-7,996,-5,-3,2
3120,4,-29,883,-3,35,10
3121,-254,-24,864,-2,42,11
3122,-292,-31,953,-6,4,-4
3123,-45,1,1088,-4,-45,1
3124,241,27,1142,-2,-53,5
3125,266,-1,1004,-8,-12,2
3126,56,-17,882,-1,31,9
3127,-219,-20,868,-4,43,12
3128,-308,-30,945,-5,14,-1
3129,-96,-13,1095,-6,-39,-1
3130,196,31,1147,-4,-57,6
3131,283,2,1027,-6,-21,-1
3132,92,-18,889,-6,27,7
3133,-183,-27,845,-4,44,14
3134,-312,-27,925,-4,20,2
3135,-150,-15,1074,-7,-31,-3
3136,161,13,1163,-2,-58,3
3137,293,4,1065,-4,-28,2
3138,130,-16,907,-3,19,6
3139,-131,-21,829,-1,44,12
3140,-308,-24,885,-3,28,2
3141,-196,-12,1056,-2,-23,-3
3142,123,16,1161,-4,-58,3
3143,285,6,1088,-9,-34,2
3144,168,-7,962,-5,12,7
3145,-89,-23,829,-5,42,12
3146,-303,-28,852,-6,32,3
3147,-231,-18,1013,-7,-14,-3
3148,80,10,1150,-5,-57,2
3149,278,8,1113,-7,-42,2
3150,206,-6,987,-5,6,3
3151,-47,-29,864,-3,39,13
3152,-286,-29,844,-6,37,8
3153,-260,-10,985,-5,-5,-5
3154,14,4,1118,-4,-52,1
3155,260,13,1111,-7,-49,3
3156,248,10,1011,-3,-2,2
3157,-7,-31,868,-10,35,11
3158,-255,-29,863,-4,40,9
3159,-286,-23,975,-7,2,-4
3160,-36,-5,1081,-7,-46,-1
3161,248,24,1132,-4,-52,5
3162,269,-7,1010,-13,-9,2
3163,42,-29,879,-1,31,9
3164,-231,-26,862,-3,44,10
3165,-299,-28,951,-3,10,-1
3166,-89,-5,1094,-3,-40,1
3167,213,27,1138,-4,-56,4
3168,282,10,1029,-6,-18,1
3169,85,-13,889,-7,29,7
3170,-202,-17,841,-5,44,12
3171,-310,-34,922,-8,18,1
3172,-138,-8,1096,-7,-34,-1
3173,172,18,1160,-4,-58,2
3174,297,-3,1059,-9,-28,2
3175,116,-13,901,-4,21,7
3176,-145,-20,837,-1,44,12
3177,-311,-42,877,-11,25,2
3178,-191,-13,1065,-4,-26,-2
3179,141,19,1171,-4,-59,3
3180,295,1,1081,-6,-35,3
3181,154,-2,947,-3,16,6
3182,-96,-20,837,-5,42,13
3183,-309,-30,843,-6,32,2
3184,-227,-11,1017,-7,-16,-5
3185,97,20,1166,-4,-58,3
3186,282,-2,1102,-12,-41,2
3187,199,-2,980,-2,7,1
3188,-54,-25,869,-3,39,11
3189,-300,-43,845,-7,38,7
3190,-251,-19,983,-2,-7,-4
3191,34,10,1127,-3,-53,2
3192,267,15,1114,-6,-47,2
3193,239,-5,997,-2,0,0
3194,-15,-21,882,-4,38,11
3195,-270,-33,856,-7,41,8
3196,-280,-25,966,-5,2,-3
3197,-28,2,1093,-6,-47,1
3198,249,25,1127,-3,-52,1
3199,267,5,1010,-8,-9,1
3200,31,-27,880,-8,33,9
3201,-228,-29,871,-3,41,11
3202,-305,-33,947,-6,11,-1
3203,-73,-19,1091,-7,-41,0
3204,217,17,1150,-1,-55,4
3205,279,0,1019,-2,-17,1
3206,84,-20,883,0,29,9
3207,-205,-15,850,3,46,13
3208,-312,-29,928,-4,19,0
3209,-133,-23,1088,-8,-34,-3
3210,171,31,1163,4,-58,3
3211,303,9,1047,-5,-27,1
3212,113,-14,895,-7,23,8
3213,-155,-13,843,2,46,13
3214,-305,-29,890,-8,25,2
3215,-191,-16,1054,-5,-26,-4
3216,137,15,1170,-4,-59,2
3217,300,-1,1088,-8,-36,2
3218,154,-22,932,-4,16,5
3219,-103,-13,850,0,42,11
3220,-305,-30,849,-4,32,4
3221,-225,-18,1014,-7,-16,-3
3222,94,20,1160,-1,-57,2
3223,283,10,1116,-6,-41,3
3224,195,-9,971,-7,9,4
3225,-60,-24,863,-3,41,12
3226,-296,-24,850,-8,35,7
3227,-259,-21,977,-6,-8,-3
3228,37,14,1128,-4,-54,1
3229,267,17,1122,-10,-47,2
3230,234,-5,998,-4,1,1
3231,-17,-33,876,-10,35,13
3232,-266,-29,858,-6,39,10
3233,-278,-25,964,-8,2,-5
3234,-29,-5,1093,-9,-47,0
3235,257,21,1128,-5,-54,6
3236,259,9,1013,-7,-9,2
3237,33,-30,869,-9,32,9
3238,-230,-25,871,-4,41,11
3239,-300,-31,958,-7,11,-2
3240,-73,-19,1086,-9,-42,0
3241,218,20,1145,-4,-55,4
3242,268,1,1016,-6,-15,1
3243,78,-21,882,-4,27,8
3244,-197,-21,851,0,44,14
3245,-303,-38,936,-4,16,-2
3246,-123,-15,1095,-4,-33,-2
3247,180,21,1161,0,-56,5
3248,282,8,1044,-5,-23,2
3249,110,-5,901,-3,23,7
3250,-160,-23,827,-4,45,13
3251,-309,-26,896,-2,25,2
3252,-180,-13,1067,-7,-26,-2
3253,148,14,1165,-5,-59,4
3254,296,13,1087,-7,-34,1
3255,155,-13,932,-4,16,5
3256,-104,-22,831,-5,45,14
3257,-313,-29,860,-7,34,3
3258,-222,-23,1024,-8,-17,-3
3259,95,13,1161,-2,-57,3
3260,280,5,1104,-5,-40,1
3261,195,-4,978,-4,7,3
3262,-67,-24,857,-2,40,12
3263,-297,-33,845,-8,36,6
3264,-244,-10,996,-3,-10,-3
3265,40,8,1123,-5,-53,0
3266,268,15,1121,-9,-47,1
3267,233,0,1003,-6,1,3
3268,-30,-36,866,-8,37,12
3269,-274,-34,849,-5,39,11
3270,-273,-29,976,-4,-1,-4
3271,-18,-2,1097,-6,-49,1
3272,260,21,1127,-1,-52,4
3273,261,2,1014,-8,-8,1
3274,25,-24,867,-4,34,10
3275,-232,-22,869,-4,42,12
3276,-298,-25,956,-7,9,-2
3277,-77,-15,1091,-8,-42,-1
3278,221,23,1142,-4,-56,3
3279,274,3,1017,-8,-17,1
3280,71,-19,884,-5,29,8
3281,-197,-26,850,-3,42,13
3282,-301,-37,933,-4,17,-1
3283,-114,-23,1095,-9,-34,-3
3284,182,17,1158,1,-55,5
3285,285,-6,1051,-7,-23,1
3286,102,-18,895,0,24,8
3287,-161,-14,831,4,44,14
3288,-304,-30,894,-7,24,1
3289,-177,-15,1067,0,-27,-4
3290,154,22,1171,1,-58,3
3291,300,9,1077,-5,-31,3
3292,144,-7,936,-3,18,6
3293,-115,-15,833,-3,44,14
3294,-315,-27,860,-7,30,4
3295,-225,-19,1027,-6,-19,-5
3296,107,15,1153,-2,-59,3
3297,295,5,1109,-11,-42,2
3298,184,-14,972,-7,10,2
3299,-63,-26,861,0,41,14
3300,-297,-28,850,-5,36,8
3301,-250,-26,978,-4,-7,-4
3302,49,13,1138,0,-53,1
3303,266,22,1120,-7,-45,3
3304,227,-4,992,-5,0,3
3305,-31,-22,873,-3,37,13
3306,-274,-29,849,-7,39,9
3307,-275,-22,975,-8,-1,-4
3308,-8,0,1100,-8,-50,1
3309,261,27,1127,-4,-51,5
3310,259,2,1003,-9,-5,-1
3311,16,-30,870,-9,34,9
3312,-242,-24,871,-4,41,11
3313,-298,-36,954,-11,8,-4
3314,-58,-16,1093,-7,-44,0
3315,230,19,1148,-3,-54,6
3316,276,3,1010,-5,-15,2
3317,68,-19,884,-4,31,9
3318,-214,-19,850,-2,45,13
3319,-307,-27,939,-3,17,-1
3320,-117,-22,1090,-10,-35,-2
3321,183,25,1166,1,-57,4
3322,293,10,1048,-6,-25,1
3323,107,-19,888,-9,23,8
3324,-166,-14,833,1,45,14
3325,-302,-32,899,-8,24,0
3326,-176,-18,1066,-7,-25,-3
3327,147,16,1176,-3,-58,3
3328,290,5,1081,-8,-32,1
3329,148,-13,925,-5,15,7
3330,-117,-16,828,-5,42,15
3331,-303,-30,853,-7,31,4
3332,-212,-11,1048,-7,-18,-3
3333,108,2,1149,-9,-57,3
3334,288,12,1111,-3,-40,2
3335,178,0,970,-7,10,2
3336,-81,-32,846,-4,40,12
3337,-306,-27,853,-7,35,5
3338,-238,-18,992,-8,-11,-4
3339,57,7,1128,-6,-56,3
3340,280,10,1125,-8,-46,2
3341,226,-3,997,-2,3,2
3342,-39,-35,864,-5,38,11
3343,-281,-31,858,-3,37,8
3344,-269,-26,974,-5,-2,-4
3345,-7,-8,1094,-4,-49,0
3346,260,22,1132,-1,-52,4
3347,259,3,1008,-4,-7,2
3348,12,-21,871,-5,34,11
3349,-247,-32,858,-2,41,11
3350,-292,-22,968,-3,5,-2
3351,-51,-12,1085,-8,-42,1
3352,237,19,1145,-4,-54,5
3353,274,13,1018,-2,-12,3
3354,58,-22,874,-6,33,11
3355,-223,-24,851,-2,45,13
3356,-311,-38,947,-4,14,-1
3357,-108,-14,1100,-3,-36,-2
3358,199,12,1151,0,-56,4
3359,288,5,1043,-4,-21,3
3360,107,-13,893,-1,27,10
3361,-174,-25,834,-1,47,16
3362,-315,-36,903,1,26,1
3363,-177,-15,1068,0,-26,-3
3364,147,16,1164,0,-59,3
3365,291,8,1086,-7,-33,1
3366,150,-12,920,1,16,6
3367,-110,-11,832,-1,44,14
3368,-301,-18,861,-4,32,4
3369,-217,-12,1039,-8,-17,-3
3370,97,17,1153,-5,-56,3
3371,280,7,1106,-5,-41,1
3372,181,-8,969,-8,9,4
3373,-66,-29,847,-5,38,11
3374,-297,-25,855,1,34,5
3375,-237,-23,994,-5,-8,-4
3376,56,13,1135,0,-53,1
3377,265,11,1118,-10,-44,2
3378,226,-8,993,0,2,4
3379,-40,-17,878,-6,38,12
3380,-282,-26,843,-3,38,7
3381,-270,-23,976,-11,-4,-4
3382,-6,8,1108,-2,-50,0
3383,265,23,1115,-9,-53,4
3384,261,3,1010,-8,-6,3
3385,9,-24,876,-7,35,12
3386,-245,-36,863,-6,41,10
3387,-296,-33,961,-9,6,-2
3388,-60,-9,1092,-8,-44,-2
3389,230,13,1135,-3,-55,4
3390,275,0,1021,-8,-16,2
3391,61,-23,879,-2,32,9
3392,-213,-27,849,-2,43,10
3393,-302,-33,940,-4,15,-2
3394,-106,-9,1107,-4,-36,-1
3395,200,21,1147,1,-57,4
3396,287,7,1037,-3,-20,3
3397,96,-10,900,-6,27,7
3398,-178,-18,835,-2,44,12
3399,-310,-30,899,-5,22,1
3400,-166,-9,1073,-6,-28,-4
3401,157,20,1176,-4,-58,3
3402,300,-5,1075,-10,-31,4
3403,141,-17,920,-1,17,8
3404,-119,-19,837,-2,44,12
3405,-310,-41,858,-9,32,3
3406,-217,-28,1038,-3,-18,-4
3407,111,21,1174,2,-58,2
3408,290,1,1092,-4,-39,1
3409,173,-4,962,-1,12,5
3410,-70,-22,854,-1,40,12
3411,-302,-30,850,-5,34,7
3412,-245,-17,989,-5,-10,-4
3413,68,21,1144,1,-57,2
3414,270,15,1115,-8,-44,2
3415,218,-6,983,-4,3,2
3416,-38,-16,883,-4,38,12
3417,-286,-38,846,-10,39,8
3418,-273,-24,975,-5,-3,-3
3419,0,4,1114,-8,-52,1
3420,260,17,1113,-5,-51,3
3421,251,1,1006,-7,-7,0
3422,17,-29,879,-5,33,10
3423,-243,-29,862,-3,43,9
3424,-293,-26,959,-6,7,-5
3425,-58,-4,1093,-7,-45,-1
3426,226,21,1140,-2,-54,4
3427,268,16,1012,-5,-15,3
3428,64,-20,874,-8,29,10
3429,-208,-15,853,-5,43,12
3430,-304,-30,946,-9,15,-2
3431,-104,-16,1104,-14,-38,-1
3432,190,22,1151,-3,-56,5
3433,281,9,1031,-9,-20,0
3434,94,-29,886,-11,24,7
3435,-180,-19,839,0,44,13
3436,-302,-30,916,-8,19,-1
3437,-152,-23,1070,-7,-31,-4
3438,162,19,1167,-1,-57,4
3439,297,6,1080,-12,-30,3
3440,129,-17,909,-5,20,6
3441,-137,-14,834,0,44,14
3442,-307,-23,873,-6,28,2
3443,-208,-26,1028,-10,-21,-3
3444,124,17,1167,-3,-59,2
3445,298,10,1107,-8,-39,1
3446,172,-21,956,-9,13,6
3447,-81,-19,850,1,41,15
3448,-298,-28,852,-8,35,5
3449,-236,-25,993,-9,-10,-6
3450,66,13,1144,-3,-56,2
3451,279,14,1123,-9,-44,3
3452,209,-7,980,-5,5,4
3453,-53,-33,861,-2,38,12
3454,-282,-23,861,-3,37,10
3455,-261,-22,983,-7,-4,-5
3456,9,-5,1101,-6,-51,1
3457,276,23,1127,-1,-49,5
3458,244,0,998,-9,0,2
3459,-9,-31,863,-5,38,10
3460,-257,-29,879,-2,40,10
3461,-290,-34,952,-7,5,-1
3462,-38,-7,1088,-4,-46,1
3463,249,24,1145,-2,-54,4
3464,269,14,1010,-8,-11,3
3465,48,-20,874,-6,32,9
3466,-226,-27,858,-3,43,12
3467,-308,-29,945,-4,12,-1
3468,-98,-16,1096,-8,-39,-2
3469,201,16,1151,-2,-58,3
3470,281,12,1038,-3,-22,1
3471,91,-5,890,-7,23,9
3472,-182,-23,825,-6,43,13
3473,-306,-26,914,-7,21,0
3474,-155,-14,1085,-11,-31,-3
3475,164,11,1165,-3,-60,3
3476,291,14,1079,-11,-30,2
3477,122,-10,911,-9,17,5
3478,-132,-33,815,-8,40,13
3479,-304,-25,872,-11,26,1
3480,-188,-22,1060,-12,-23,-7
3481,131,-6,1155,-9,-59,2
3482,288,11,1106,-3,-37,2
3483,158,-9,959,-6,13,3
3484,-93,-33,826,-4,39,15
3485,-297,-21,854,-5,32,4
3486,-216,-16,1021,-11,-13,-6
3487,83,-4,1132,-4,-55,2
3488,272,19,1126,-5,-42,2
3489,201,4,989,-6,5,3
3490,-61,-39,850,-7,37,13
3491,-280,-21,857,-3,35,8
3492,-242,-20,999,-6,-4,-6
3493,22,-21,1098,-10,-48,1
3494,261,19,1125,-1,-46,4
3495,238,5,1018,-5,-2,2
3496,-23,-46,847,-5,35,12
3497,-251,-23,855,5,38,11
3498,-265,-15,992,-6,4,-4
3499,-33,-34,1076,-10,-43,-1
3500,246,29,1148,8,-53,7
3501,259,26,1020,-4,-8,4
3502,30,-31,850,-7,33,11
3503,-229,-17,850,2,42,15
3504,-288,-19,968,-3,12,-2
3505,-86,-22,1101,-9,-38,-2
3506,202,29,1156,1,-56,4
3507,273,19,1034,-6,-19,3
3508,73,-18,874,-12,27,9
3509,-191,-17,824,1,43,14
3510,-294,-19,929,-9,19,-2
3511,-138,-25,1085,-16,-31,-4
3512,174,13,1166,-1,-58,4
3513,288,19,1080,-9,-28,2
3514,100,-18,893,-9,21,7
3515,-144,-31,816,-5,40,14
3516,-291,-20,887,-5,24,2
3517,-176,-36,1051,-13,-22,-5
3518,148,5,1161,-3,-57,5
3519,291,11,1113,-6,-34,3
3520,138,-19,943,-9,16,5
3521,-106,-30,832,3,41,15
3522,-305,-10,859,1,32,5
3523,-214,-28,1004,-11,-14,-5
3524,93,5,1152,-2,-57,4
3525,283,17,1121,-3,-40,3
3526,199,-3,977,-5,7,3
3527,-68,-34,857,-3,39,13
3528,-291,-24,854,-1,38,8
3529,-246,-26,983,-9,-5,-5
3530,25,-1,1115,-5,-50,2
3531,269,14,1128,-2,-47,4
3532,240,2,991,-4,0,3
3533,-18,-31,870,-5,37,13
3534,-265,-28,860,1,42,10
3535,-283,-21,974,-5,3,-4
3536,-24,-5,1092,-7,-46,0
3537,249,23,1136,1,-52,3
3538,259,19,1011,-7,-9,1
3539,36,-30,866,-8,31,10
3540,-236,-19,859,-1,42,13
3541,-303,-28,952,-5,11,-4
3542,-75,-26,1095,-10,-41,-2
3543,205,23,1153,-2,-56,4
3544,278,9,1040,-5,-19,-2
3545,77,-22,877,-8,26,8
3546,-197,-24,824,2,42,12
3547,-294,-18,932,-2,18,-1
3548,-134,-28,1081,-14,-31,-2
3549,168,13,1166,2,-58,4
3550,290,21,1080,-5,-28,1
3551,104,-12,901,-8,20,6
3552,-143,-34,803,-4,40,14
3553,-290,-11,897,-2,26,2
3554,-179,-29,1056,-13,-21,-6
3555,138,3,1155,-4,-56,4
3556,289,20,1113,-2,-34,2
3557,145,-18,942,-8,16,5
3558,-106,-33,818,-2,40,15
3559,-291,-12,871,1,30,4
3560,-212,-24,1020,-13,-13,-5
3561,93,0,1135,1,-54,4
3562,283,30,1128,-1,-38,3
3563,195,-4,973,-8,11,3
3564,-78,-39,849,-1,41,14
3565,-294,-16,865,0,36,7
3566,-240,-23,989,-8,-6,-5
3567,25,-11,1109,-8,-51,2
3568,282,18,1125,0,-48,4
3569,245,2,1003,-3,1,3
3570,-27,-38,853,-2,40,12
3571,-264,-35,868,3,41,10
3572,-281,-27,976,-3,3,-2
3573,-34,-12,1083,-2,-47,0
3574,256,25,1149,4,-54,3
3575,257,19,1012,-2,-9,2
3576,39,-16,866,-2,33,9
3577,-230,-18,856,1,43,11
3578,-305,-25,948,-5,11,-3
3579,-80,-12,1103,-7,-41,-1
3580,213,18,1152,-4,-58,4
3581,278,14,1034,-5,-18,1
3582,82,-7,891,-7,27,7
3583,-199,-24,825,-4,45,13
3584,-310,-28,927,-7,20,0
3585,-138,-19,1082,-11,-33,-3
3586,179,3,1164,-4,-60,3
3587,290,10,1073,-6,-28,0
3588,113,-17,907,-6,20,5
3589,-145,-36,820,-1,43,14
3590,-303,-26,883,-2,27,1
3591,-181,-20,1056,-4,-23,-5
3592,139,7,1156,-3,-57,2
3593,288,17,1102,-4,-34,1
3594,147,-12,951,-6,13,5
3595,-94,-29,832,-1,39,16
3596,-296,-14,856,-1,33,6
3597,-219,-12,1019,-10,-12,-6
3598,84,3,1146,-4,-55,3
3599,267,16,1113,-6,-41,2
3600,198,0,981,-7,4,2
3601,-63,-38,853,-7,37,15
3602,-280,-27,851,-3,35,7
3603,-239,-21,1002,-7,-6,-6
3604,22,-6,1111,-7,-50,2
3605,260,16,1116,-3,-47,3
3606,232,5,1005,-3,-1,2
3607,-18,-36,857,-5,34,13
3608,-252,-20,860,0,39,13
3609,-270,-17,987,-9,4,-5
3610,-28,-21,1081,-10,-45,0
3611,250,28,1142,1,-51,3
3612,253,9,1014,-10,-7,0
3613,30,-35,857,-7,33,11
3614,-233,-19,863,0,41,14
3615,-291,-35,956,-4,11,-4
3616,-76,-28,1099,-5,-38,-1
3617,215,24,1152,4,-55,5
3618,285,7,1031,-2,-17,3
3619,73,-14,882,-4,31,8
3620,-200,-21,827,5,46,13
3621,-311,-25,933,-5,19,0
3622,-144,-13,1083,-5,-32,-2
3623,173,28,1163,3,-58,4
3624,302,15,1064,-10,-27,3
3625,114,-6,906,-7,22,8
3626,-148,-18,836,-5,44,12
3627,-309,-27,880,-9,27,2
3628,-192,-25,1043,-9,-24,-2
3629,138,15,1172,-5,-57,4
3630,292,-3,1092,-8,-35,1
3631,155,-14,948,-7,14,5
3632,-100,-21,847,0,44,12
3633,-306,-38,845,-5,32,4
3634,-227,-19,1008,-6,-15,-3
3635,96,14,1154,-2,-57,2
3636,281,16,1116,-5,-41,3
3637,197,-9,974,-4,7,3
3638,-67,-15,870,0,38,12
3639,-298,-26,850,-7,36,7
3640,-255,-21,977,-5,-8,-5
3641,31,8,1124,-5,-53,1
3642,275,17,1118,-8,-49,3
3643,239,-2,999,-6,-3,0
3644,-13,-32,870,-6,35,11
3645,-259,-27,857,-4,38,11
3646,-273,-27,975,-10,3,-5
3647,-30,-16,1094,-10,-45,-1
3648,250,16,1134,-2,-52,3
3649,255,15,1017,-9,-10,1
3650,31,-27,861,-9,32,10
3651,-224,-29,856,-1,40,14
3652,-289,-21,967,-4,11,-4
3653,-67,-29,1098,-12,-38,-1
3654,208,16,1142,-3,-55,4
3655,270,17,1039,0,-17,2
3656,68,-25,876,-8,29,9
3657,-206,-29,824,3,44,14
3658,-296,-16,940,-1,18,0
3659,-124,-28,1079,-14,-33,-3
3660,178,15,1165,2,-57,3
3661,296,17,1076,-3,-25,2
3662,111,-17,897,-6,24,9
3663,-160,-30,824,0,46,15
3664,-307,-27,886,-3,26,1
3665,-182,-19,1054,-6,-25,-2
3666,137,9,1158,-2,-57,2
3667,301,14,1103,-1,-35,2
3668,159,-10,944,-5,16,9
3669,-108,-22,832,-1,45,13
3670,-303,-21,860,-2,32,4
3671,-227,-24,1011,-10,-13,-2
3672,88,10,1141,3,-57,2
3673,287,19,1123,-8,-42,2
3674,196,-2,974,-6,8,3
3675,-66,-25,864,-3,40,12
3676,-295,-22,859,-4,36,9
3677,-250,-23,978,-8,-7,-3
3678,27,7,1114,-6,-52,1
3679,275,19,1129,-9,-48,2
3680,233,4,999,-7,0,2
3681,-24,-29,866,-7,36,12
3682,-267,-34,860,-5,40,10
3683,-278,-33,963,-8,1,-3
3684,-27,-5,1094,-6,-47,-1
3685,257,22,1144,-3,-52,3
3686,262,5,1010,-6,-8,2
3687,28,-22,867,-5,34,9
3688,-231,-27,856,-3,42,11
3689,-301,-32,958,-5,10,-2
3690,-77,-17,1103,-6,-41,0
3691,219,14,1150,-3,-58,5
3692,276,14,1027,-3,-18,1
3693,74,-14,882,-5,29,6
3694,-202,-25,835,-2,44,13
3695,-309,-32,929,-4,19,-1
3696,-129,-18,1095,-8,-34,-3
3697,179,2,1150,-1,-58,5
3698,295,11,1073,-4,-26,2
3699,110,-12,901,-2,22,9
3700,-156,-32,819,1,45,15
3701,-306,-26,891,0,27,1
3702,-175,-23,1058,-3,-25,-3
3703,140,15,1159,-1,-58,3
3704,298,8,1095,-4,-33,2
3705,155,-3,957,-3,15,8
3706,-102,-22,825,0,43,14
3707,-313,-23,855,-4,34,4
3708,-223,-14,1016,-6,-15,-3
3709,99,10,1149,-2,-56,6
3710,282,19,1118,-4,-43,1
3711,204,-6,976,-5,8,6
3712,-64,-24,863,-5,41,14
3713,-300,-33,853,-7,38,8
3714,-254,-26,983,-4,-8,-2
3715,28,5,1117,-7,-54,2
3716,271,18,1116,-3,-48,3
3717,245,-2,1001,-8,-1,3
3718,-15,-20,870,0,38,13
3719,-272,-24,857,-5,42,10
3720,-279,-30,970,-5,2,-1
3721,-32,0,1091,-8,-46,1
3722,251,25,1139,0,-53,2
3723,261,1,1004,-11,-10,1
3724,34,-21,878,-2,32,9
3725,-240,-26,857,-6,42,10
3726,-295,-38,953,-6,9,-3
3727,-81,-18,1096,-6,-40,-2
3728,216,21,1149,0,-57,1
3729,282,1,1027,-4,-17,2
3730,72,-9,892,-5,30,8
3731,-202,-17,834,-1,44,10
3732,-314,-28,925,-6,17,-1
3733,-140,-16,1085,-10,-34,-2
3734,179,14,1164,-1,-61,2
3735,300,11,1064,-6,-27,0
3736,112,-18,904,-8,21,6
3737,-146,-23,832,-3,42,15
3738,-304,-36,883,-8,25,2
3739,-180,-24,1057,-5,-24,-4
3740,133,8,1158,-1,-56,3
3741,293,2,1096,-4,-34,3
3742,152,-11,955,-3,14,6
3743,-98,-30,827,4,41,14
3744,-301,-21,855,3,33,6
3745,-222,-20,1021,-5,-13,-5
3746,87,6,1143,2,-55,3
3747,285,24,1120,-2,-41,4
3748,194,-7,978,-7,8,4
3749,-64,-41,854,0,39,14
3750,-289,-13,868,1,35,10
3751,-256,-21,976,-6,-4,-5
3752,26,2,1113,-3,-52,1
3753,269,27,1121,-1,-47,4
3754,244,1,999,-5,-2,3
3755,-13,-25,874,-4,39,11
3756,-268,-30,867,-2,41,10
3757,-288,-27,963,-8,2,-2
3758,-34,0,1084,-6,-46,2
3759,252,32,1143,-1,-53,2
3760,271,4,998,-8,-10,2
3761,46,-23,876,-4,33,10
3762,-231,-24,865,-5,45,12
3763,-309,-33,955,-7,13,-1
3764,-91,-10,1095,-7,-40,-1
3765,205,20,1143,-6,-57,5
3766,278,9,1021,-6,-19,0
3767,91,-19,888,-8,25,7
3768,-189,-18,846,-3,44,13
3769,-308,-36,925,-8,21,-1
3770,-135,-17,1084,-8,-32,-2
3771,166,12,1166,-5,-57,4
3772,291,4,1059,-7,-28,1
3773,116,-15,904,-6,21,7
3774,-150,-22,830,-3,43,14
3775,-301,-36,882,-7,25,3
3776,-183,-18,1054,-4,-25,-2
3777,145,12,1165,-3,-58,3
3778,301,8,1097,-5,-33,3
3779,157,-5,950,-7,15,6
3780,-108,-22,838,-4,44,13
3781,-310,-30,845,-3,32,5
3782,-233,-18,1015,-9,-15,-3
3783,94,13,1153,-3,-59,2
3784,290,9,1117,-8,-44,2
3785,210,-4,980,-3,8,4
3786,-59,-30,864,-2,41,14
3787,-291,-35,851,-5,38,8
3788,-261,-20,979,-2,-4,-4
3789,14,-1,1113,-4,-51,1
3790,273,13,1126,-2,-50,3
3791,242,5,997,-1,-2,2
3792,-5,-24,873,-4,36,11
3793,-262,-26,857,0,42,10
3794,-282,-28,964,-6,4,-3
3795,-39,9,1103,-4,-47,1
3796,247,19,1128,-5,-54,3
3797,263,9,1007,-8,-10,2
3798,37,-15,875,-6,34,9
3799,-235,-35,861,-10,42,11
3800,-308,-27,952,-5,10,-1
3801,-81,-16,1095,-9,-42,-3
3802,220,11,1141,-8,-56,4
3803,278,0,1034,-4,-20,0
3804,84,-19,887,-5,26,8
3805,-196,-17,841,3,45,13
3806,-320,-38,915,-6,20,-2
3807,-139,-15,1090,-5,-34,-1
3808,176,16,1164,-2,-60,3
3809,297,6,1065,-6,-27,1
3810,121,-13,900,-3,21,6
3811,-146,-21,832,-4,44,15
3812,-312,-29,886,-5,28,2
3813,-194,-20,1052,-6,-23,-4
3814,137,13,1159,-2,-59,5
3815,296,8,1095,-6,-36,2
3816,159,-8,953,-5,15,5
3817,-97,-27,835,-3,43,13
3818,-307,-22,850,0,32,6
3819,-226,-13,1020,-7,-15,-3
3820,90,8,1144,-3,-57,4
3821,282,21,1117,-6,-42,2
3822,203,1,989,-7,7,4
3823,-61,-36,853,-6,41,14
3824,-304,-29,855,-5,37,9
3825,-251,-16,985,-7,-8,-3
3826,22,-2,1115,-8,-53,1
3827,275,16,1118,-4,-48,4
3828,249,0,1003,-3,-1,3
3829,-17,-28,872,-8,40,11
3830,-272,-30,860,-3,40,8
3831,-288,-22,965,-5,1,-2
3832,-31,-6,1092,-6,-48,1
3833,248,25,1133,-1,-53,2
3834,271,8,1012,-8,-10,1
3835,34,-20,871,-6,32,9
3836,-237,-29,861,-3,43,10
3837,-306,-31,948,-5,10,-1
3838,-79,-11,1097,-8,-41,-2
3839,212,21,1150,-5,-59,3
3840,285,4,1023,-4,-18,0
3841,84,-13,888,-5,28,8
3842,-200,-11,843,-3,45,12
3843,-310,-36,926,-11,17,-1
3844,-138,-11,1084,-9,-34,-2
3845,181,20,1165,-3,-60,3
3846,298,1,1062,-13,-26,1
3847,109,-23,900,-9,21,5
3848,-149,-21,834,0,44,14
3849,-299,-33,885,-8,25,2
3850,-184,-39,1047,-8,-24,-5
3851,148,12,1176,0,-58,4
3852,294,0,1095,-6,-34,4
3853,148,-15,941,-1,18,4
3854,-105,-24,833,0,43,13
3855,-307,-24,853,-2,31,6
3856,-221,-15,1017,-3,-15,-3
3857,96,16,1152,1,-56,4
3858,294,21,1113,-4,-41,4
3859,196,9,978,-5,9,5
3860,-64,-30,858,-7,41,13
3861,-302,-30,855,-5,38,9
3862,-260,-15,983,-8,-6,-4
3863,26,4,1121,-8,-54,1
3864,271,6,1115,-11,-50,4
3865,243,3,999,0,-2,2
3866,-14,-24,874,-8,37,11
3867,-271,-33,860,-5,41,10
3868,-278,-27,970,-5,2,-1
3869,-26,-3,1092,-7,-47,2
3870,252,22,1130,0,-52,2
3871,259,11,1010,-8,-9,0
3872,26,-22,873,-6,32,9
3873,-239,-31,861,-4,40,10
3874,-298,-23,958,-6,8,-2
3875,-66,-12,1092,-10,-42,-1
3876,222,21,1152,-7,-57,4
3877,278,8,1023,-4,-17,0
3878,81,-25,882,-9,28,9
3879,-214,-19,839,-1,45,11
3880,-310,-39,928,-8,16,-2
3881,-127,-19,1090,-8,-36,-1
3882,186,10,1167,-1,-58,3
3883,293,4,1059,-7,-24,1
3884,116,-19,897,-5,23,8
3885,-163,-13,829,1,45,15
3886,-307,-36,885,-7,25,1
3887,-181,-22,1061,-5,-26,-1
3888,147,14,1164,-3,-59,5
3889,300,15,1094,-5,-34,3
3890,153,-11,943,-5,16,5
3891,-112,-17,831,-2,43,14
3892,-311,-21,856,-4,32,4
3893,-220,-23,1014,-10,-17,-2
3894,100,17,1157,-1,-59,4
3895,287,12,1116,-8,-41,2
3896,197,-10,976,-10,9,4
3897,-69,-27,861,0,42,13
3898,-301,-33,853,-7,36,6
3899,-250,-31,978,-4,-8,-4
3900,36,9,1132,-3,-53,2
3901,278,12,1120,-6,-49,2
3902,238,-4,993,-2,1,2
3903,-26,-19,877,-3,39,11
3904,-276,-35,852,-2,41,9
3905,-282,-30,963,-4,1,-1
3906,-23,11,1101,-2,-49,2
3907,263,24,1130,-4,-53,2
3908,261,9,1006,-8,-8,1
3909,30,-19,873,-4,33,11
3910,-242,-26,866,-6,44,11
3911,-308,-40,949,-6,10,-4
3912,-72,-1,1103,-5,-43,-1
3913,227,16,1140,-6,-57,4
3914,281,5,1024,-6,-16,2
3915,77,-16,884,-7,29,6
3916,-206,-24,844,-3,44,12
3917,-311,-34,933,-6,17,-1
3918,-128,-16,1086,-7,-36,-2
3919,189,17,1162,-4,-58,5
3920,295,3,1062,-8,-25,2
3921,105,-15,901,-5,24,6
3922,-157,-23,832,-2,44,12
3923,-304,-31,886,-6,24,2
3924,-181,-23,1057,-6,-25,-3
3925,155,12,1171,-1,-58,4
3926,297,5,1094,-5,-31,3
3927,148,-10,944,-5,17,6
3928,-110,-22,828,1,44,13
3929,-315,-31,852,-7,33,5
3930,-218,-16,1025,-5,-18,-2
3931,102,9,1157,-1,-56,3
3932,290,11,1107,-4,-40,1
3933,194,-1,981,-4,10,6
3934,-66,-25,853,-4,40,13
3935,-308,-28,851,-3,37,7
3936,-251,-16,991,-4,-8,-3
3937,39,3,1127,-4,-54,2
3938,275,12,1111,-6,-48,2
3939,241,8,1007,-1,1,3
3940,-29,-31,870,-6,40,11
3941,-281,-36,856,-3,40,8
3942,-277,-24,975,-3,0,-3
3943,-17,-4,1088,-5,-50,1
3944,258,26,1128,0,-52,3
3945,266,7,1018,-8,-8,0
3946,22,-23,873,-6,34,9
3947,-245,-23,859,0,42,9
3948,-300,-27,953,-6,9,-4
3949,-72,-15,1094,-9,-43,0
3950,226,20,1150,-3,-58,4
3951,280,8,1023,-3,-18,0
3952,72,-19,880,-6,30,8
3953,-208,-27,846,-2,44,12
3954,-312,-31,930,-4,18,1
3955,-125,-16,1092,-8,-35,-3
3956,180,19,1161,0,-58,3
3957,297,3,1058,-7,-26,2
3958,105,-8,895,-5,23,7
3959,-157,-14,825,0,45,11
3960,-307,-31,896,-10,25,2
3961,-179,-18,1064,-6,-25,-2
3962,148,15,1164,-5,-59,3
3963,302,3,1086,-9,-32,2
3964,145,-14,942,-6,17,6
3965,-109,-19,836,-3,43,14
3966,-306,-37,853,-6,32,6
3967,-224,-23,1020,-8,-17,-2
3968,109,13,1155,2,-59,3
3969,288,8,1112,-7,-38,4
3970,192,-3,975,-4,11,5
3971,-68,-23,865,-2,41,14
3972,-304,-30,845,-4,37,7
3973,-255,-19,980,-4,-7,-3
3974,41,16,1132,-2,-54,2
3975,278,16,1120,-9,-47,3
3976,235,0,991,-6,2,3
3977,-22,-21,883,-7,39,10
3978,-279,-30,851,-7,40,10
3979,-278,-32,959,-10,0,-3
3980,-17,1,1105,-6,-49,1
3981,259,15,1125,-6,-53,4
3982,267,4,1009,-7,-6,2
3983,22,-22,881,-5,36,10
3984,-247,-32,865,-4,41,11
3985,-303,-36,943,-6,8,-2
3986,-66,-1,1098,-7,-43,0
3987,221,20,1145,-4,-56,4
3988,281,5,1023,-6,-18,1
3989,74,-9,886,-7,29,9
3990,-209,-23,842,-5,44,11
3991,-314,-28,930,-6,15,-1
3992,-123,-22,1092,-13,-37,-2
3993,186,14,1162,-2,-59,5
3994,291,3,1056,-8,-25,1
3995,110,-16,895,-8,22,7
3996,-167,-23,830,-2,46,13
3997,-308,-30,897,-7,24,2
3998,-175,-33,1059,-8,-27,-2
3999,151,13,1167,-1,-60,3
4000,304,11,1093,-5,-34,1
4001,149,-16,929,-4,18,6
4002,-117,-22,832,-2,44,12
4003,-309,-21,859,-2,31,3
4004,-214,-21,1019,-9,-18,-2
4005,105,22,1156,2,-58,4
4006,291,14,1111,-7,-40,1
4007,189,-1,975,-9,10,6
4008,-77,-21,858,-3,41,13
4009,-302,-24,849,-8,35,5
4010,-249,-17,985,-9,-8,-2
4011,47,8,1129,-8,-54,2
4012,277,12,1125,-11,-47,2
4013,236,0,996,-4,0,2
4014,-34,-28,871,-6,39,12
4015,-283,-39,847,-5,41,9
4016,-274,-27,973,-6,-2,-3
4017,-12,0,1100,-6,-50,0
4018,264,18,1128,-2,-52,2
4019,259,4,1012,-4,-7,1
4020,14,-19,869,-5,35,11
4021,-248,-29,857,-5,41,8
4022,-303,-33,955,-7,7,-2
4023,-59,0,1100,-5,-44,0
4024,230,18,1149,-6,-58,4
4025,278,2,1013,-6,-16,0
4026,66,-11,888,-2,30,8
4027,-213,-25,839,-5,44,13
4028,-314,-37,933,-5,16,-1
4029,-118,-11,1101,-10,-36,-1
4030,197,15,1153,-2,-59,5
4031,290,7,1053,-8,-24,0
4032,100,-14,902,-5,24,6
4033,-168,-25,825,-3,44,14
4034,-311,-32,892,-7,24,1
4035,-170,-22,1066,-6,-29,-2
4036,160,7,1164,-2,-59,3
4037,299,5,1094,-5,-30,2
4038,140,-12,934,-3,19,4
4039,-121,-27,830,-2,44,14
4040,-312,-28,853,-2,31,5
4041,-213,-19,1028,-6,-19,-2
4042,121,15,1155,-1,-58,3
4043,291,15,1115,-5,-39,2
4044,184,-9,970,-6,11,5
4045,-76,-31,858,2,42,13
4046,-312,-30,847,-3,35,7
4047,-246,-19,991,-3,-11,-3
4048,53,5,1129,-2,-55,2
4049,282,21,1118,-4,-46,3
4050,229,3,994,-4,3,2
4051,-37,-26,878,-6,38,10
4052,-288,-29,851,-4,41,8
4053,-276,-22,975,-11,-1,-3
4054,-11,0,1097,-4,-50,0
4055,269,17,1128,-3,-52,4
4056,261,14,1012,-6,-7,0
4057,15,-27,868,-11,35,8
4058,-252,-30,861,-3,42,11
4059,-294,-36,951,-10,6,-3
4060,-58,-14,1098,-4,-42,0
4061,225,19,1148,-7,-56,3
4062,278,0,1018,1,-16,1
4063,61,-12,879,-7,30,9
4064,-217,-23,839,1,44,12
4065,-306,-38,937,-8,14,0
4066,-112,-14,1099,-6,-36,-1
4067,198,20,1159,-1,-60,2
4068,294,7,1050,-7,-23,2
4069,96,-13,896,-4,25,9
4070,-172,-21,831,-1,45,13
4071,-312,-30,899,-6,25,0
4072,-167,-29,1062,-6,-29,-3
4073,159,18,1174,1,-58,4
4074,307,-2,1081,-7,-31,1
4075,133,-12,931,0,20,6
4076,-121,-23,836,3,45,13
4077,-316,-33,853,-2,31,5
4078,-214,-17,1029,-3,-19,-3
4079,115,25,1165,2,-58,4
4080,300,6,1099,-6,-39,3
4081,182,5,974,-2,12,4
4082,-73,-22,857,-2,42,12
4083,-313,-38,845,-6,37,8
4084,-251,-16,994,-3,-8,-4
4085,56,14,1138,-2,-57,2
4086,274,11,1111,-9,-47,2
4087,232,2,994,-2,1,3
4088,-34,-24,875,-4,39,13
4089,-282,-35,847,-5,39,8
4090,-276,-28,973,-4,-1,-3
4091,-6,-2,1107,-6,-51,0
4092,266,17,1123,0,-52,4
4093,256,11,1011,-2,-5,2
4094,13,-22,868,-5,35,10
4095,-254,-22,866,-3,42,10
4096,-299,-23,954,-6,6,-3
4097,-54,-5,1090,-6,-45,0
4098,231,24,1152,-8,-54,4
4099,277,6,1017,-6,-15,1
4100,63,-18,875,-8,31,8
4101,-219,-20,853,-5,45,12
4102,-315,-41,931,-9,14,1
4103,-102,-24,1093,-11,-38,-2
4104,192,12,1163,0,-57,3
4105,294,-3,1046,-6,-22,2
4106,104,-22,899,-3,24,9
4107,-175,-19,833,3,45,12
4108,-310,-34,896,-2,23,0
4109,-165,-18,1070,-5,-28,-2
4110,157,17,1172,2,-59,5
4111,301,7,1076,-5,-30,2
4112,143,-4,932,-2,20,7
4113,-130,-21,830,-4,47,14
4114,-314,-24,861,-3,31,5
4115,-217,-14,1035,-8,-19,-2
4116,114,13,1152,-5,-58,2
4117,296,17,1111,-6,-40,3
4118,188,-10,969,-8,11,4
4119,-78,-29,851,-3,44,12
4120,-308,-26,854,-5,37,7
4121,-250,-20,991,-7,-10,-3
4122,53,4,1126,-2,-54,2
4123,276,15,1125,-5,-45,3
4124,228,-8,993,-6,1,2
4125,-38,-23,879,-3,39,11
4126,-285,-25,851,-4,39,7
4127,-272,-28,961,-5,-3,-4
4128,-7,16,1106,-5,-51,1
4129,266,23,1127,-8,-54,3
4130,258,2,1002,-9,-7,1
4131,9,-20,877,-8,34,9
4132,-243,-29,857,-5,40,10
4133,-303,-37,960,-14,7,-3
4134,-58,-11,1096,-7,-47,-1
4135,238,21,1148,-5,-58,3
4136,272,1,1012,-7,-13,0
4137,66,-22,880,-6,29,8
4138,-213,-27,852,-3,41,12
4139,-305,-35,942,-3,15,-3
4140,-109,-22,1098,-7,-36,-3
4141,194,17,1156,3,-58,3
4142,284,5,1045,-5,-22,1
4143,97,-12,889,-2,24,8
4144,-171,-19,829,-2,43,14
4145,-307,-30,910,-4,22,0
4146,-161,-21,1070,-6,-28,-3
4147,164,14,1170,-2,-58,5
4148,303,2,1074,-6,-28,2
4149,132,-13,931,-1,21,7
4150,-126,-25,826,-1,46,14
4151,-310,-31,864,-1,29,4
4152,-210,-18,1035,-5,-20,-3
4153,120,12,1160,1,-58,3
4154,295,15,1107,-3,-38,4
4155,187,-4,971,-5,14,6
4156,-80,-25,849,0,45,14
4157,-310,-29,844,-3,38,8
4158,-250,-19,989,-3,-10,-1
4159,52,9,1132,-3,-54,2
4160,277,17,1126,-5,-45,1
4161,232,-3,988,-4,3,3
4162,-35,-24,875,-4,41,11
4163,-287,-32,857,-6,42,9
4164,-272,-23,971,-2,-2,-3
4165,-8,2,1100,-4,-49,2
4166,265,27,1126,1,-50,3
4167,255,2,1006,-9,-6,2
4168,13,-19,874,-6,34,11
4169,-256,-22,873,-4,42,9
4170,-302,-28,946,-7,5,-3
4171,-52,2,1095,-9,-46,1
4172,232,26,1145,-11,-55,3
4173,282,0,1011,-9,-16,0
4174,62,-15,883,-8,30,9
4175,-230,-24,856,-8,44,9
4176,-309,-41,939,-11,12,-2
4177,-106,-18,1095,-10,-40,-1
4178,200,15,1150,-4,-60,2
4179,291,1,1049,-9,-23,0
4180,99,-18,893,-5,25,7
4181,-176,-17,829,0,43,11
4182,-306,-33,902,-9,23,0
4183,-160,-20,1073,-8,-28,-1
4184,166,12,1171,-2,-59,4
4185,300,5,1082,-8,-30,2
4186,130,-16,915,-3,20,7
4187,-131,-20,832,-3,45,14
4188,-308,-35,859,-4,29,3
4189,-204,-19,1040,-6,-20,-4
4190,126,19,1169,-2,-57,3
4191,297,0,1098,-6,-39,3
4192,179,-6,964,-3,14,6
4193,-86,-22,851,0,46,14
4194,-314,-32,842,-4,36,5
4195,-250,-16,999,-4,-10,-2
4196,60,8,1135,-4,-56,2
4197,285,10,1121,-8,-47,2
4198,222,0,989,-1,4,1
4199,-37,-28,876,-2,40,10
4200,-292,-33,850,-6,41,9
4201,-275,-20,969,-3,-3,-4
4202,5,2,1105,-3,-53,2
4203,266,22,1121,-5,-52,2
4204,254,5,1013,-5,-5,0
4205,6,-23,876,-5,35,11
4206,-252,-31,859,-4,40,8
4207,-297,-25,960,-9,4,-3
4208,-48,-5,1093,-5,-47,-2
4209,237,19,1139,-6,-56,1
4210,274,10,1019,-6,-14,0
4211,62,-22,876,-8,31,9
4212,-224,-26,859,-6,43,11
4213,-306,-41,934,-8,14,-3
4214,-102,-13,1108,-6,-38,-2
4215,204,13,1148,-1,-58,3
4216,286,1,1038,-4,-21,2
4217,96,-17,892,-5,28,9
4218,-176,-22,830,0,45,14
4219,-308,-34,910,-6,22,0
4220,-153,-21,1077,-5,-28,-2
4221,160,15,1165,4,-58,4
4222,297,4,1077,-6,-29,1
4223,135,-13,922,-4,20,8
4224,-136,-18,819,0,46,13
4225,-306,-28,866,-1,30,1
4226,-204,-15,1045,-5,-21,-1
4227,120,17,1160,0,-58,3
4228,297,17,1112,-4,-39,0
4229,179,-8,961,-5,11,6
4230,-84,-25,839,-2,44,14
4231,-308,-25,851,-8,35,5
4232,-244,-23,997,-6,-12,-2
4233,64,13,1136,-2,-56,3
4234,280,18,1120,-6,-45,0
4235,218,-10,989,-7,2,2
4236,-43,-22,876,-3,38,11
4237,-287,-27,852,-5,36,8
4238,-264,-28,970,-6,-3,-5
4239,2,11,1106,-5,-49,1
4240,266,23,1121,-9,-52,3
4241,255,0,1001,-11,-5,1
4242,-1,-22,881,-6,33,10
4243,-246,-32,857,-4,39,9
4244,-297,-33,961,-8,6,-2
4245,-49,-6,1099,-7,-46,-1
4246,241,14,1141,-4,-57,3
4247,270,2,1006,-5,-12,1
4248,62,-16,882,-4,30,10
4249,-217,-32,845,-6,45,12
4250,-309,-31,950,0,15,-2
4251,-104,-25,1097,-7,-37,-3
4252,194,16,1158,2,-57,6
4253,285,2,1032,-3,-21,2
4254,103,-9,896,-2,25,9
4255,-183,-19,834,2,47,13
4256,-306,-40,908,-4,23,1
4257,-166,-13,1075,-2,-28,-2
4258,165,21,1168,1,-59,2
4259,299,4,1074,-6,-30,2
4260,133,-17,917,-2,21,6
4261,-128,-10,839,-1,45,15
4262,-313,-33,862,-7,32,4
4263,-207,-13,1040,-3,-20,-2
4264,123,18,1162,-4,-59,2
4265,294,12,1103,-5,-36,3
4266,177,-7,961,-7,13,5
4267,-78,-19,853,-4,43,13
4268,-314,-32,848,-10,36,5
4269,-241,-23,992,-7,-13,-2
4270,67,14,1146,-1,-57,3
4271,275,10,1115,-12,-44,2
4272,222,-2,992,-3,1,3
4273,-46,-21,873,-6,39,13
4274,-291,-36,851,-8,38,8
4275,-266,-23,970,-5,-5,-3
4276,8,5,1116,-8,-52,1
4277,264,17,1109,-7,-51,3
4278,255,9,1015,-6,-5,1
4279,-2,-33,865,-11,35,10
4280,-257,-25,865,-2,40,8
4281,-294,-25,962,-7,5,-4
4282,-43,-11,1089,-12,-47,-1
4283,242,23,1147,-4,-56,3
4284,277,9,1018,-7,-14,0
4285,53,-24,867,-9,31,10
4286,-228,-19,857,-3,44,12
4287,-305,-28,951,-8,13,-2
4288,-94,-18,1089,-10,-38,0
4289,196,20,1156,-3,-56,3
4290,291,-2,1034,-8,-21,1
4291,92,-15,896,-8,27,10
4292,-187,-21,836,-2,45,12
4293,-305,-41,913,-7,20,1
4294,-152,-22,1070,-3,-29,-1
4295,170,16,1172,1,-57,4
4296,300,0,1076,-9,-27,1
4297,123,-18,913,-2,21,7
4298,-140,-24,830,1,45,14
4299,-312,-31,873,-1,28,3
4300,-202,-20,1040,-3,-22,-3
4301,132,21,1162,1,-57,3
4302,300,15,1104,-2,-36,2
4303,171,-10,953,-4,15,6
4304,-88,-14,859,-1,45,15
4305,-318,-27,844,-7,36,6
4306,-246,-15,998,-8,-12,-4
4307,69,15,1146,0,-57,2
4308,284,4,1114,-11,-45,3
4309,221,-2,985,-3,5,2
4310,-45,-25,878,-5,41,10
4311,-291,-44,848,-6,39,9
4312,-271,-24,980,0,-3,-3
4313,9,3,1105,-3,-51,1
4314,268,21,1118,-4,-50,3
4315,251,2,1009,-2,-2,0
4316,0,-23,873,-4,36,10
4317,-262,-25,860,-2,40,10
4318,-295,-25,958,-4,4,-3
4319,-44,1,1097,-6,-48,0
4320,242,24,1142,-5,-55,3
4321,277,18,1011,-9,-13,0
4322,54,-10,879,-9,30,8
4323,-231,-31,853,-10,43,12
4324,-313,-21,946,-6,12,0
4325,-91,-11,1096,-15,-41,-1
4326,202,17,1152,-6,-58,4
4327,288,0,1043,-10,-21,1
4328,92,-22,893,-10,26,7
4329,-192,-25,834,-5,46,12
4330,-311,-40,910,-10,19,1
4331,-141,-26,1073,-8,-31,0
4332,171,13,1174,-1,-58,3
4333,298,0,1069,-10,-27,1
4334,123,-15,922,-4,21,8
4335,-146,-24,825,1,44,13
4336,-311,-34,869,-2,27,3
4337,-196,-21,1046,-5,-22,-2
4338,139,11,1159,-2,-59,5
4339,301,10,1103,-3,-36,3
4340,169,-17,955,-2,17,5
4341,-96,-21,845,1,44,16
4342,-312,-25,850,-2,36,6
4343,-240,-21,1002,-6,-12,-3
4344,79,18,1147,1,-58,1
4345,288,15,1110,-5,-45,3
4346,217,-6,983,-3,7,3
4347,-59,-20,877,0,41,12
4348,-293,-26,852,-5,39,9
4349,-260,-24,979,-5,-4,-1
4350,5,8,1106,-4,-51,-1
4351,277,17,1122,-6,-52,3
4352,250,3,1008,-9,-2,2
4353,-8,-33,868,-6,37,10
4354,-262,-24,865,-2,40,9
4355,-289,-44,957,-8,2,-1
4356,-39,-5,1093,-6,-45,2
4357,249,25,1146,1,-54,1
4358,271,-5,1008,-8,-11,0
4359,43,-22,877,2,33,9
4360,-230,-26,859,-3,43,12
4361,-307,-36,943,-4,12,0
4362,-91,-5,1098,-1,-39,-1
4363,206,27,1155,-1,-58,4
4364,288,7,1030,-4,-19,2
4365,90,-11,889,-6,27,8
4366,-188,-12,843,1,44,11
4367,-313,-40,907,-8,20,1
4368,-152,-8,1088,-6,-32,-1
4369,163,15,1160,-2,-58,2
4370,294,-2,1066,-10,-28,1
4371,130,-12,913,-3,20,7
4372,-135,-25,831,-2,45,13
4373,-304,-33,876,-6,28,3
4374,-197,-13,1054,-1,-21,-2
4375,125,13,1157,-5,-57,2
4376,287,5,1089,-3,-36,-1
4377,165,0,964,-2,13,5
4378,-84,-24,841,-3,41,13
4379,-303,-32,850,-4,33,5
4380,-229,-8,1011,-4,-13,-2
4381,79,9,1140,-5,-55,3
4382,273,13,1116,-8,-41,1
4383,209,-5,986,-5,4,4
4384,-51,-27,870,-4,40,13
4385,-294,-38,856,-6,38,7
4386,-256,-23,979,-3,-6,-2
4387,16,2,1113,-6,-52,2
4388,266,14,1117,-5,-50,1
4389,250,0,1003,-7,0,2
4390,-9,-26,876,-9,37,11
4391,-267,-22,866,4,42,10
4392,-296,-25,956,-11,3,-3
4393,-34,3,1085,-1,-48,2
4394,246,35,1147,-6,-53,3
4395,273,5,1009,-12,-12,0
4396,49,-23,879,-5,32,10
4397,-236,-19,864,-6,45,10
4398,-308,-44,938,-11,11,-1
4399,-92,-17,1096,-10,-42,0
4400,214,15,1149,1,-59,4
4401,288,0,1035,-4,-19,1
4402,88,-31,890,-6,29,7
4403,-193,-22,843,2,44,13
4404,-309,-37,914,-1,19,-1
4405,-152,-13,1078,-6,-32,-2
4406,170,25,1172,4,-60,1
4407,301,6,1067,-7,-27,1
4408,123,-7,907,0,24,7
4409,-144,-13,838,-2,45,14
4410,-315,-32,876,-7,27,3
4411,-202,-19,1047,-2,-23,-4
4412,133,21,1163,-3,-59,3
4413,303,8,1093,-5,-37,2
4414,171,-13,956,-6,14,4
4415,-89,-30,843,-1,44,13
4416,-309,-29,859,-4,35,5
4417,-244,-23,1003,-3,-12,-4
4418,76,8,1142,1,-58,2
4419,280,14,1122,-2,-45,2
4420,216,-6,978,-1,4,2
4421,-42,-12,871,0,38,13
4422,-285,-22,858,-7,39,9
4423,-267,-17,975,-4,-3,-3
4424,9,16,1113,-7,-52,1
4425,263,20,1119,-9,-50,2
4426,240,-3,1003,-9,-4,1
4427,2,-30,876,-9,33,12
4428,-252,-36,860,-8,40,10
4429,-285,-35,968,-7,4,-4
4430,-39,-5,1089,-4,-44,1
4431,242,9,1130,-4,-53,3
4432,269,4,1011,-4,-13,1
4433,49,-20,884,-3,32,10
4434,-228,-30,857,-2,43,11
4435,-305,-22,947,-1,12,0
4436,-90,0,1105,-7,-38,0
4437,206,18,1131,-4,-57,3
4438,282,14,1035,-4,-20,0
4439,89,-15,888,-7,27,7
4440,-191,-29,841,-5,45,12
4441,-318,-32,927,-6,19,0
4442,-138,-18,1076,-8,-34,-1
4443,165,21,1162,-3,-59,4
4444,296,0,1065,-8,-27,0
4445,125,-15,913,-4,20,7
4446,-146,-17,837,-3,46,11
4447,-310,-38,875,-11,26,2
4448,-195,-16,1048,-4,-24,-3
4449,131,20,1165,-3,-58,2
4450,297,-4,1083,-13,-35,1
4451,165,-6,967,-4,14,5
4452,-96,-27,839,-3,44,11
4453,-305,-32,849,-4,34,6
4454,-233,-21,1009,-7,-13,-2
4455,86,18,1148,0,-56,3
4456,283,16,1114,-5,-42,1
4457,208,-7,984,-5,8,3
4458,-56,-21,874,0,42,13
4459,-296,-29,847,-8,37,8
4460,-260,-23,981,-8,-6,-3
4461,15,11,1111,-3,-52,2
4462,275,20,1121,-10,-51,3
4463,248,-10,998,-8,-2,2
4464,-11,-26,881,-3,37,11
4465,-266,-33,859,-5,41,9
4466,-284,-37,956,-6,2,-2
4467,-36,0,1096,-3,-47,1
4468,254,18,1133,-2,-53,4
4469,276,2,1011,-4,-10,2
4470,39,-14,882,-2,36,10
4471,-234,-24,863,-5,42,11
4472,-310,-29,942,-6,11,1
4473,-87,-2,1095,-5,-42,0
4474,212,33,1150,-5,-59,4
4475,288,-4,1022,-9,-19,2
4476,89,-10,898,-8,28,9
4477,-195,-22,843,-5,45,12
4478,-313,-50,909,-11,19,1
4479,-142,-19,1083,-6,-31,0
4480,179,9,1167,-1,-59,3
4481,299,-14,1060,-10,-27,2
4482,117,-6,913,6,23,7
4483,-145,-23,836,-2,45,13
4484,-316,-35,873,-3,29,4
4485,-195,-14,1048,-2,-24,-1
4486,142,25,1161,1,-59,3
4487,297,9,1093,-4,-35,1
4488,166,0,954,-2,15,5
4489,-97,-18,844,-4,44,13
4490,-315,-24,848,-5,34,6
4491,-236,-11,1010,-6,-16,-3
4492,88,9,1145,-6,-58,2
4493,287,4,1114,-6,-43,3
4494,209,1,979,-4,7,4
4495,-55,-31,870,-6,41,11
4496,-304,-33,860,-7,38,8
4497,-259,-25,972,-2,-6,-3
4498,19,8,1119,-4,-52,1
4499,270,14,1116,-8,-49,3
4500,248,4,1007,-1,-3,2
4501,-15,-20,869,-8,38,9
4502,-270,-22,859,-5,41,8
4503,-292,-19,964,-10,2,-2
4504,-32,-2,1092,-12,-49,1
4505,249,19,1132,-5,-55,2
4506,272,15,1018,-9,-12,2
4507,43,-23,870,-11,31,8
4508,-239,-28,861,-7,42,10
4509,-303,-32,954,-6,8,-1
4510,-78,-22,1092,-10,-41,0
4511,212,21,1151,-4,-58,3
4512,285,6,1033,-4,-20,-1
4513,79,-22,883,-11,27,8
4514,-200,-23,835,0,44,13
4515,-305,-26,928,-7,17,-1
4516,-136,-16,1081,-12,-31,-2
4517,176,11,1168,-4,-59,5
4518,302,8,1069,-8,-27,3
4519,108,-18,897,-5,23,6
4520,-157,-22,827,-3,43,12
4521,-304,-37,887,-5,25,3
4522,-187,-23,1052,-4,-23,-2
4523,151,11,1167,2,-57,2
4524,303,0,1096,-7,-32,3
4525,153,-18,941,-3,18,5
4526,-107,-22,839,5,44,13
4527,-314,-31,852,-1,35,5
4528,-232,-23,1014,-3,-14,-2
4529,93,14,1155,3,-59,2
4530,297,18,1113,-1,-41,3
4531,206,4,980,-1,9,5
4532,-60,-20,859,-3,44,13
4533,-307,-26,855,-7,39,8
4534,-263,-8,980,-3,-7,-2
4535,22,12,1115,-7,-53,1
4536,269,20,1120,-9,-49,2
4537,244,-1,1005,-9,-3,3
4538,-17,-26,871,-9,36,11
4539,-265,-39,860,-6,39,8
4540,-283,-31,963,-5,3,-1
4541,-29,-10,1087,-7,-47,1
4542,254,23,1140,-2,-55,1
4543,260,11,1012,-5,-9,0
4544,32,-19,878,-6,31,8
4545,-243,-32,856,-6,41,11
4546,-307,-23,944,-6,9,-2
4547,-72,-6,1103,-12,-43,-1
4548,217,16,1148,-13,-58,3
4549,279,9,1032,-5,-19,1
4550,82,-4,884,-7,27,7
4551,-203,-22,831,-7,44,11
4552,-311,-38,930,-10,17,-1
4553,-129,-23,1091,-9,-35,-3
4554,182,15,1163,-2,-59,2
4555,288,4,1059,-10,-26,0
4556,111,-14,906,-5,21,7
4557,-153,-25,824,-4,42,15
4558,-296,-32,888,-7,26,1
4559,-177,-29,1060,-7,-25,-3
4560,151,6,1162,-1,-58,6
4561,290,9,1104,-5,-33,3
4562,145,-23,937,-4,18,5
4563,-110,-27,828,4,42,15
4564,-302,-27,857,-1,33,4
4565,-211,-32,1021,-3,-15,-3
4566,100,12,1152,5,-55,3
4567,292,18,1121,2,-39,1
4568,191,-8,972,1,13,4
4569,-74,-26,854,5,44,14
4570,-298,-19,855,-2,37,8
4571,-252,-15,983,-3,-5,-3
4572,29,14,1127,-1,-53,2
4573,276,25,1119,-7,-49,4
4574,239,-1,994,-4,-1,3
4575,-23,-18,872,-5,37,12
4576,-268,-28,852,-3,40,10
4577,-277,-31,966,-14,1,-1
4578,-29,-6,1101,-9,-48,0
4579,250,19,1133,-3,-54,3
4580,260,1,1007,-6,-10,2
4581,19,-24,868,-4,32,9
4582,-228,-24,860,-2,40,11
4583,-294,-30,950,-8,10,-1
4584,-72,-9,1102,-6,-42,-2
4585,220,29,1153,-4,-56,4
4586,273,9,1022,-7,-16,2
4587,63,-12,884,-10,29,7
4588,-206,-22,834,-5,41,12
4589,-305,-31,930,-10,15,-1
4590,-118,-22,1091,-13,-36,-4
4591,189,17,1172,-2,-60,3
4592,296,0,1053,-14,-25,0
4593,102,-21,892,-6,24,7
4594,-162,-23,832,1,42,13
4595,-302,-34,882,-6,25,2
4596,-170,-19,1068,-8,-26,-3
4597,151,14,1168,-4,-58,4
4598,300,8,1090,-7,-32,2
4599,142,-2,943,-6,18,6
4600,-116,-28,829,-7,43,14
4601,-312,-27,856,-4,31,5
4602,-213,-18,1027,-9,-16,-2
4603,114,2,1152,-4,-57,4
4604,285,5,1113,-5,-37,3
4605,192,-12,974,-3,11,5
4606,-69,-36,861,-1,43,15
4607,-303,-32,853,0,40,8
4608,-249,-21,987,-3,-7,-3
4609,41,4,1122,1,-54,2
4610,270,29,1123,1,-45,3
4611,235,9,999,-1,3,1
4612,-29,-27,869,-4,38,14
4613,-279,-19,858,-2,40,10
4614,-277,-18,965,-6,0,-4
4615,-21,3,1091,-12,-48,1
4616,259,32,1135,-3,-54,3
4617,265,5,1009,-12,-9,1
4618,25,-25,868,-8,35,11
4619,-245,-32,864,-5,42,11
4620,-302,-43,953,-9,9,-2
4621,-67,-23,1095,-5,-43,0
4622,226,16,1149,-2,-57,3
4623,279,7,1023,0,-16,1
4624,73,-22,882,-8,29,8
4625,-210,-18,846,4,44,12
4626,-309,-29,934,-2,18,-1
4627,-123,-19,1081,-9,-34,0
4628,186,32,1172,3,-59,4
4629,292,9,1058,-12,-26,1
4630,108,-16,891,-3,22,7
4631,-168,-14,835,0,45,12
4632,-306,-39,885,-8,25,1
4633,-178,-24,1058,-6,-28,-1
4634,151,11,1166,-2,-59,3
4635,301,4,1097,-4,-34,1
4636,144,-15,930,-4,18,6
4637,-115,-19,834,0,43,14
4638,-310,-29,852,-2,32,4
4639,-217,-18,1019,-3,-15,-2
4640,103,21,1165,0,-57,2
4641,289,12,1110,-6,-40,1
4642,193,1,981,-5,9,5
4643,-77,-23,849,-4,42,12
4644,-303,-30,848,-5,36,8
4645,-251,-10,990,-7,-8,-4
4646,49,7,1122,-6,-56,2
4647,278,19,1122,-8,-46,3
4648,235,4,1003,-6,1,3
4649,-34,-26,865,-11,38,12
4650,-279,-32,858,-9,39,7
4651,-280,-31,967,-8,-1,-2
4652,-8,-4,1095,-9,-49,1
4653,262,13,1133,-8,-52,3
4654,259,6,1007,-8,-8,2
4655,21,-18,871,-5,33,9
