sequence,AccelerometerX,AccelerometerY,AccelerometerZ,GyroscopeX,GyroscopeY,GyroscopeZ
0,-75,16,993,-21,-4,-2
1,10,10,997,-19,-12,-8
2,58,4,1005,-15,-8,-7
3,80,17,997,-11,0,-3
4,29,31,996,-11,9,-1
5,-47,33,987,-17,11,1
6,-81,31,1002,-8,4,-2
7,-68,19,993,-13,-7,-4
8,14,6,1002,-23,-14,-7
9,72,2,1002,-11,-6,-7
10,74,13,994,-12,3,-3
11,20,28,993,-8,12,-1
12,-57,37,997,-14,12,0
13,-79,37,999,-17,2,-1
14,-55,13,998,-16,-7,-5
15,25,10,1004,-18,-12,-7
16,79,-3,997,-12,-5,-8
17,69,19,985,-10,6,-4
18,7,35,1007,-10,13,0
19,-69,35,992,-13,11,-1
20,-82,28,998,-16,2,-2
21,-40,14,1002,-17,-8,-5
22,32,4,994,-16,-10,-7
23,87,10,998,-14,-5,-6
24,54,15,994,-12,7,-2
25,-3,34,999,-13,12,0
26,-76,33,998,-13,9,-1
27,-75,27,997,-16,-2,-3
28,-25,15,994,-17,-10,-6
29,46,9,997,-17,-10,-8
30,85,8,998,-15,-3,-6
31,41,17,1000,-12,10,-3
32,-16,34,994,-11,14,1
33,-77,32,995,-14,8,-1
34,-78,18,994,-18,-1,-4
35,-14,15,994,-16,-11,-7
36,50,2,1002,-15,-9,-8
37,80,14,1001,-14,-1,-4
38,41,30,997,-12,8,-2
39,-27,33,1003,-14,12,0
40,-79,31,988,-15,7,-2
41,-73,22,996,-18,-3,-5
42,3,10,1004,-19,-13,-7
43,55,0,996,-16,-8,-8
44,80,13,1000,-13,0,-3
45,32,19,999,-10,10,-1
46,-36,35,986,-11,14,-1
47,-79,33,1000,-15,6,-1
48,-63,22,995,-19,-5,-4
49,11,6,1000,-18,-10,-8
50,62,-3,1003,-15,-6,-7
51,77,8,995,-12,3,-3
52,26,20,995,-9,12,-1
53,-53,44,991,-10,13,1
54,-78,31,1002,-17,5,-1
55,-61,24,999,-17,-5,-5
56,20,12,1002,-20,-11,-6
57,75,0,1002,-16,-7,-7
58,74,7,986,-12,3,-4
59,7,29,997,-11,11,-1
60,-63,37,997,-14,11,-1
61,-82,40,1000,-15,2,-3
62,-45,13,996,-19,-8,-6
63,26,10,1009,-18,-11,-7
64,78,0,990,-16,-6,-6
65,61,12,994,-12,7,-4
66,1,24,1001,-12,12,0
67,-74,41,995,-11,11,-1
68,-74,33,1000,-17,0,-4
69,-39,13,1000,-17,-8,-6
70,43,1,989,-17,-11,-8
71,78,1,1000,-12,-3,-6
72,57,19,998,-10,7,-3
73,-15,31,995,-10,13,1
74,-73,43,1000,-15,7,-2
75,-77,28,997,-17,-1,-4
76,-20,19,995,-17,-10,-6
77,47,0,995,-18,-11,-8
78,81,0,1003,-14,-3,-5
79,41,19,994,-11,8,-2
80,-19,33,1000,-11,13,0
81,-72,37,994,-13,8,-2
82,-72,22,988,-17,-1,-2
83,-7,8,1001,-16,-10,-7
84,51,5,997,-16,-7,-8
85,80,11,1000,-12,0,-4
86,34,21,996,-11,10,-1
87,-37,36,997,-12,12,-1
88,-77,37,991,-12,6,0
89,-72,22,996,-17,-4,-2
90,7,9,999,-17,-12,-7
91,58,2,1004,-14,-7,-6
92,76,12,996,-11,1,-3
93,29,25,995,-10,9,-1
94,-44,34,988,-12,13,1
95,-76,34,998,-13,4,-2
96,-64,15,997,-18,-5,-5
97,15,12,1001,-16,-12,-6
98,72,5,1002,-15,-8,-7
99,67,10,994,-12,4,-2
100,22,27,992,-10,10,0
101,-61,31,994,-12,13,1
102,-76,34,1001,-14,2,-2
103,-53,16,1000,-16,-7,-5
104,20,9,1003,-15,-11,-7
105,78,0,994,-13,-6,-7
106,69,18,989,-9,7,-3
107,7,30,1001,-10,12,1
108,-71,41,999,-11,13,0
109,-78,29,995,-16,2,-1
110,-40,15,1004,-17,-7,-5
111,36,1,996,-16,-12,-7
112,81,7,996,-12,-5,-6
113,57,17,993,-12,6,-2
114,-2,31,1006,-10,11,-1
115,-78,36,991,-11,11,-1
116,-79,31,1002,-15,0,-2
117,-15,17,996,-16,-10,-6
118,40,1,992,-15,-9,-5
119,87,8,999,-12,-3,-6
120,45,18,1004,-9,8,-2
121,-16,37,990,-8,13,0
122,-74,39,997,-12,8,1
123,-71,20,997,-17,-2,-3
124,-19,7,991,-17,-10,-6
125,54,2,1000,-15,-11,-7
126,80,10,999,-12,-1,-5
127,43,27,1000,-9,9,-4
128,-25,36,1000,-11,13,0
129,-83,33,992,-14,7,0
130,-71,23,987,-16,-3,-4
131,-4,8,1009,-16,-12,-7
132,59,1,993,-13,-9,-8
133,76,16,1001,-11,1,-5
134,37,29,997,-10,10,-2
135,-41,39,992,-13,13,0
136,-75,31,989,-14,6,-1
137,-70,21,1003,-17,-4,-4
138,4,4,992,-18,-12,-7
139,66,5,1009,-14,-7,-8
140,76,9,994,-14,2,-3
141,26,30,998,-11,10,-1
142,-49,39,983,-13,12,1
143,-86,38,1009,-14,3,-2
144,-58,16,992,-18,-7,-4
145,11,9,1007,-16,-12,-6
146,83,-2,992,-16,-8,-7
147,69,9,996,-10,4,-4
148,21,33,989,-10,11,-1
149,-69,44,1005,-12,12,0
150,-80,40,990,-18,1,-2
151,-56,4,1003,-19,-8,-5
152,38,1,1001,-20,-13,-8
153,83,-12,994,-14,-5,-5
154,71,18,990,-9,6,-3
155,2,29,1005,-11,13,0
156,-75,50,996,-10,11,-1
157,-82,30,996,-17,0,-2
158,-36,12,1001,-18,-9,-6
159,40,0,992,-17,-10,-7
160,86,-1,999,-14,-5,-7
161,54,14,998,-9,7,-2
162,-6,40,995,-10,13,-1
163,-79,43,1000,-12,11,0
164,-80,35,994,-18,-1,-2
165,-20,10,995,-18,-9,-8
166,50,-1,997,-17,-9,-8
167,85,3,998,-14,-4,-5
168,45,18,998,-11,8,-2
169,-25,36,1001,-11,13,0
170,-77,42,991,-11,8,-1
171,-72,30,995,-20,-2,-3
172,-9,5,997,-21,-11,-7
173,56,-4,998,-17,-10,-6
174,77,-2,998,-12,0,-4
175,34,24,1001,-10,9,-3
176,-32,39,991,-13,12,1
177,-73,48,997,-15,7,-1
178,-74,21,995,-19,-4,-3
179,3,7,995,-19,-13,-8
180,53,-4,1003,-17,-9,-7
181,82,13,1001,-13,-2,-4
182,33,23,988,-12,9,-2
183,-34,39,997,-9,13,0
184,-86,37,997,-17,6,1
185,-76,23,991,-19,-6,-4
186,10,2,1006,-17,-13,-7
187,73,2,999,-16,-9,-7
188,84,7,993,-12,2,-3
189,32,31,1000,-9,12,-1
190,-58,31,988,-12,14,-1
191,-87,38,1004,-13,4,-2
192,-64,9,995,-18,-7,-4
193,21,8,1005,-17,-13,-7
194,94,0,998,-16,-8,-6
195,69,9,986,-11,4,-3
196,14,28,1000,-9,14,-1
197,-70,38,998,-11,13,1
198,-86,35,994,-15,2,-3
199,-44,16,1000,-20,-8,-7
200,37,6,1004,-17,-12,-8
201,84,7,985,-14,-5,-6
202,66,18,1003,-11,7,-5
203,-3,29,1000,-11,13,-1
204,-78,37,992,-14,11,0
205,-80,29,1005,-17,0,-3
206,-35,18,988,-18,-10,-6
207,45,0,995,-19,-11,-6
208,85,4,1006,-13,-4,-5
209,47,14,992,-12,7,-2
210,-19,33,997,-9,13,0
211,-74,44,1000,-12,7,-1
212,-80,33,995,-16,-3,-3
213,-10,16,993,-20,-11,-6
214,51,-1,1000,-21,-10,-6
215,79,9,1002,-14,-2,-4
216,37,16,994,-13,9,-2
217,-20,35,1008,-12,11,0
218,-78,33,991,-14,6,0
219,-72,22,987,-16,-4,-4
220,-4,5,1006,-19,-12,-6
221,52,11,992,-16,-11,-7
222,88,7,999,-14,-1,-5
223,39,28,1002,-11,10,-2
224,-29,30,990,-14,13,1
225,-79,28,994,-15,8,-1
226,-85,16,998,-16,-3,-4
227,5,9,993,-15,-13,-8
228,66,2,1007,-16,-9,-7
229,91,22,999,-10,0,-4
230,34,21,996,-12,11,-1
231,-46,38,990,-12,15,0
232,-89,30,1000,-16,7,-1
233,-71,16,998,-17,-4,-6
234,14,6,1002,-17,-12,-7
235,78,6,1000,-15,-8,-7
236,88,12,997,-12,3,-4
237,15,26,990,-11,14,-1
238,-62,42,994,-12,12,1
239,-90,30,1006,-16,3,-3
240,-54,19,989,-17,-8,-5
241,29,2,1014,-20,-13,-8
242,81,2,994,-15,-8,-6
243,63,12,986,-10,5,-2
244,8,31,1007,-9,12,0
245,-74,39,993,-12,12,0
246,-83,40,999,-16,1,-3
247,-42,13,998,-22,-10,-5
248,35,6,993,-17,-11,-8
249,87,2,995,-14,-5,-6
250,57,26,999,-12,6,-1
251,1,35,995,-12,11,0
252,-70,41,1002,-13,10,0
253,-88,27,1000,-18,-1,-3
254,-34,5,988,-17,-12,-7
255,41,1,998,-17,-12,-7
256,95,4,1001,-15,-6,-5
257,63,27,996,-11,8,-2
258,-6,31,1002,-12,15,1
259,-87,37,994,-14,12,0
260,-89,18,991,-16,-1,-4
261,-26,3,999,-16,-12,-6
262,52,5,991,-15,-12,-8
263,102,18,1008,-14,-3,-5
264,59,23,995,-12,10,-1
265,-24,32,999,-11,15,1
266,-82,29,994,-12,8,-1
267,-97,17,990,-16,-1,-3
268,-7,17,996,-18,-14,-8
269,61,4,1006,-14,-10,-9
270,101,24,996,-12,-1,-4
271,41,23,1001,-12,12,-1
272,-39,33,990,-12,14,-1
273,-94,27,994,-15,7,-1
274,-79,22,997,-18,-6,-4
275,1,6,1000,-18,-13,-7
276,75,3,1003,-15,-9,-7
277,86,9,996,-11,2,-3
278,34,24,994,-10,11,-1
279,-49,31,991,-11,12,1
280,-92,30,1003,-14,6,0
281,-71,19,992,-16,-6,-4
282,16,8,1007,-14,-13,-7
283,82,5,996,-14,-9,-7
284,84,22,993,-12,3,-4
285,27,27,994,-11,14,-1
286,-69,30,998,-12,15,0
287,-97,32,994,-14,3,-1
288,-69,14,1000,-16,-9,-5
289,31,14,1003,-17,-16,-8
290,94,9,993,-16,-9,-5
291,84,29,996,-12,3,-2
292,20,24,1000,-14,13,-1
293,-75,37,997,-14,14,0
294,-101,18,997,-18,2,-1
295,-54,12,994,-17,-10,-5
296,41,3,995,-18,-16,-8
297,103,7,1003,-14,-8,-7
298,77,24,993,-11,6,-3
299,4,28,1000,-14,17,-1
300,-81,29,998,-15,14,0
301,-109,18,995,-16,2,-2
302,-39,16,989,-17,-12,-7
303,49,3,999,-17,-14,-9
304,101,12,1000,-15,-5,-7
305,58,21,997,-13,10,-2
306,-16,33,1004,-9,17,-1
307,-87,31,993,-15,10,0
308,-93,31,992,-15,-1,-3
309,-15,6,996,-20,-13,-9
310,49,10,999,-16,-10,-9
311,93,14,997,-12,-2,-6
312,43,28,1003,-10,10,-4
313,-32,33,996,-13,13,0
314,-81,35,990,-14,8,-1
315,-78,18,995,-19,-2,-5
316,-10,15,1004,-17,-12,-7
317,66,5,999,-14,-10,-8
318,84,8,1002,-14,-1,-5
319,44,21,993,-10,10,-2
320,-38,31,988,-13,14,0
321,-87,28,1003,-17,6,-1
322,-80,22,996,-18,-5,-4
323,11,10,997,-19,-14,-8
324,67,3,1003,-17,-9,-8
325,90,11,997,-12,1,-4
326,29,20,991,-8,13,-1
327,-52,40,995,-13,14,0
328,-88,25,1001,-16,4,-1
329,-63,23,996,-16,-5,-6
330,14,3,1004,-19,-12,-8
331,84,9,1001,-12,-8,-9
332,80,11,983,-12,4,-3
333,13,25,1001,-9,14,-2
334,-71,36,996,-12,13,-1
335,-84,30,997,-14,3,-5
336,-55,21,1002,-17,-8,-5
337,30,13,998,-19,-14,-8
338,86,6,1000,-16,-6,-7
339,65,17,988,-12,7,-4
340,3,32,1001,-12,14,0
341,-75,31,1003,-14,10,0
342,-86,30,990,-15,0,-3
343,-35,11,1004,-11,-12,-9
344,44,6,993,-8,-13,-8
345,83,6,996,-12,-3,-6
346,54,20,999,-16,7,-3
347,-11,26,995,-9,14,-1
348,-80,28,993,-13,10,-1
349,-80,29,999,-17,-1,-3
350,-16,16,993,-13,-10,-8
351,46,10,994,-20,-11,-7
352,87,16,1003,-13,-3,-5
353,43,15,1001,-12,9,-3
354,-15,26,992,-15,13,-1
355,-79,20,997,-12,9,-1
356,-77,26,989,-16,-4,-5
357,-12,9,1004,-18,-11,-8
358,57,15,994,-15,-10,-8
359,87,11,1006,-17,-1,-5
360,46,13,994,-11,9,-3
361,-35,25,991,-9,14,0
362,-79,33,1000,-15,6,-2
363,-72,26,991,-15,-3,-5
364,1,16,1006,-18,-10,-7
365,66,2,1000,-18,-8,-7
366,77,7,1000,-13,2,-5
367,38,14,990,-10,11,-2
368,-57,28,991,-10,14,1
369,-74,38,1001,-10,5,-3
370,-68,21,996,-17,-5,-6
371,17,15,1003,-16,-11,-7
372,71,7,1003,-14,-7,-6
373,71,7,990,-12,4,-5
374,18,25,994,-8,10,-2
375,-69,37,996,-12,10,2
376,-72,40,997,-15,2,-2
377,-63,14,1000,-18,-5,-5
378,27,17,1001,-18,-12,-8
379,75,-2,998,-15,-5,-7
380,68,11,986,-10,5,-4
381,6,28,1002,-8,12,0
382,-67,40,995,-11,11,-2
383,-83,34,998,-15,2,-2
384,-37,21,1000,-17,-8,-6
385,37,8,996,-18,-11,-9
386,82,2,995,-13,-6,-8
387,55,11,992,-13,6,-4
388,0,34,1004,-9,11,-2
389,-72,32,993,-13,10,0
390,-78,34,1001,-16,0,-4
391,-22,6,996,-16,-10,-7
392,37,9,990,-15,-10,-7
393,87,0,1005,-13,-4,-7
394,44,19,997,-9,8,-2
395,-10,32,997,-11,13,-1
396,-72,27,998,-12,11,-2
397,-81,28,994,-15,0,-3
398,-16,11,993,-15,-9,-7
399,45,6,1004,-15,-11,-9
400,83,15,994,-14,-3,-5
401,43,25,1003,-10,8,-2
402,-19,34,996,-15,13,-1
403,-81,27,996,-14,8,0
404,-78,17,984,-17,-4,-4
405,-7,9,1005,-16,-12,-8
406,55,6,999,-14,-10,-9
407,86,14,995,-13,-1,-6
408,42,25,1002,-11,10,-3
409,-34,41,988,-14,14,0
410,-84,36,997,-16,8,-1
411,-79,14,997,-18,-5,-4
412,5,6,996,-18,-13,-8
413,64,-2,1008,-15,-8,-7
414,88,14,995,-10,2,-4
415,30,22,993,-8,12,-1
416,-53,44,988,-10,13,1
417,-86,23,1007,-14,6,-2
418,-64,22,989,-16,-6,-6
419,13,9,1009,-16,-12,-9
420,87,5,995,-12,-9,-8
421,69,10,987,-10,5,-3
422,15,35,999,-10,12,-2
423,-66,31,996,-14,13,-1
424,-84,37,996,-12,3,-4
425,-49,17,1002,-18,-8,-6
426,27,9,1005,-16,-13,-8
427,85,0,991,-15,-7,-8
428,58,17,991,-12,6,-3
429,7,32,1007,-11,11,-2
430,-70,38,991,-14,11,0
431,-81,36,1005,-17,1,-3
432,-31,12,996,-20,-9,-6
433,34,-4,993,-18,-10,-7
434,84,2,997,-13,-4,-6
435,51,16,998,-10,7,-3
436,-2,38,996,-9,11,1
437,-71,31,997,-14,10,-1
438,-78,36,1000,-15,0,-4
439,-28,7,991,-18,-8,-6
440,46,1,997,-15,-11,-9
441,81,4,1003,-12,-2,-5
442,51,24,992,-9,8,-3
443,-15,39,1002,-11,15,-1
444,-75,39,995,-15,9,0
445,-86,27,990,-17,0,-3
446,-12,12,999,-18,-12,-9
447,45,0,998,-16,-9,-9
448,89,10,998,-13,-3,-7
449,44,16,997,-12,10,-4
450,-33,37,996,-12,12,-1
451,-75,35,993,-14,7,-3
452,-80,23,992,-17,-3,-5
453,-7,9,1004,-18,-12,-8
454,61,4,999,-17,-8,-8
455,84,10,1005,-15,0,-5
456,35,16,992,-12,10,-2
457,-41,39,990,-10,13,0
458,-84,35,999,-17,6,-2
459,-69,20,996,-19,-5,-6
460,9,9,1004,-17,-11,-7
461,76,0,1003,-14,-8,-7
462,74,7,988,-13,3,-4
463,29,28,1001,-8,11,-2
464,-56,39,990,-11,13,0
465,-87,41,996,-15,4,-3
466,-56,17,1000,-21,-8,-6
467,23,5,1007,-18,-13,-6
468,79,-6,984,-17,-9,-6
469,72,10,1001,-10,6,-4
470,14,29,993,-12,14,-1
471,-70,47,1000,-12,13,0
472,-81,31,999,-15,1,-3
473,-56,15,998,-17,-9,-6
474,33,6,1002,-15,-13,-8
475,87,3,990,-14,-7,-6
476,65,16,993,-14,5,-2
477,7,34,1004,-14,13,-1
478,-80,34,997,-15,12,1
479,-88,29,999,-17,0,-5
480,-39,9,998,-17,-10,-6
481,44,3,987,-17,-12,-9
482,89,3,1004,-15,-4,-7
483,62,24,993,-11,7,-2
484,-13,34,1002,-10,14,-2
485,-78,43,993,-12,10,-3
486,-90,21,1001,-18,1,-2
487,-25,17,990,-18,-11,-5
488,49,-5,997,-19,-11,-8
489,91,15,1007,-12,-4,-6
490,55,13,991,-11,10,-2
491,-23,31,1002,-10,14,0
492,-84,36,994,-14,8,-1
493,-82,25,992,-15,-3,-4
494,-10,12,999,-18,-11,-8
495,59,-4,999,-17,-8,-9
496,88,9,997,-11,0,-4
497,44,22,1002,-7,11,-3
498,-31,28,988,-11,15,-1
499,-86,38,1000,-11,7,-1
500,-75,26,987,-17,-4,-4
501,-1,13,1007,-19,-12,-7
502,66,9,999,-16,-10,-7
503,85,3,1000,-13,1,-5
504,47,22,995,-12,10,-2
505,-51,31,990,-11,15,0
506,-88,33,1000,-13,6,-3
507,-85,18,997,-16,-5,-4
508,5,17,1004,-16,-13,-7
509,82,7,1003,-16,-11,-8
510,95,16,989,-13,2,-4
511,36,26,996,-10,13,-1
512,-60,38,996,-13,16,1
513,-103,33,999,-17,4,-2
514,-80,15,997,-17,-8,-4
515,18,15,1005,-16,-16,-7
516,98,13,998,-18,-11,-7
517,101,15,986,-15,3,-3
518,23,16,1005,-14,16,1
519,-85,31,996,-13,16,1
520,-110,21,997,-16,4,-3
521,-65,18,997,-16,-10,-6
522,39,5,995,-15,-16,-9
523,115,10,1000,-13,-8,-8
524,76,9,994,-12,9,-3
525,8,33,1001,-10,17,0
526,-89,27,999,-13,15,1
527,-106,32,997,-14,1,-4
528,-32,13,992,-18,-11,-7
529,50,4,996,-14,-13,-10
530,97,4,999,-12,-4,-5
531,58,19,998,-9,10,-3
532,-9,31,998,-8,16,-1
533,-91,39,997,-11,12,-1
534,-86,27,990,-15,-2,-5
535,-20,8,997,-16,-11,-7
536,56,1,996,-14,-11,-7
537,92,14,1005,-12,-1,-4
538,50,23,996,-9,9,-2
539,-33,32,1000,-10,15,1
540,-82,37,994,-11,7,-2
541,-83,26,987,-15,-3,-4
542,-3,11,1006,-16,-13,-8
543,61,0,995,-14,-10,-7
544,89,11,1002,-11,-1,-5
545,39,21,998,-10,11,-3
546,-42,34,986,-10,14,2
547,-84,38,1000,-12,6,-3
548,-77,20,996,-18,-4,-6
549,12,9,997,-14,-11,-9
550,67,0,1007,-14,-8,-7
551,80,13,996,-11,2,-5
552,27,17,994,-10,12,-2
553,-61,49,993,-9,14,0
554,-78,35,999,-15,3,-2
555,-63,26,998,-15,-6,-6
556,20,6,1001,-19,-13,-5
557,69,0,1002,-16,-7,-7
558,74,12,989,-12,2,-4
559,16,26,994,-10,12,-2
560,-63,46,998,-13,11,0
561,-84,36,999,-18,1,-2
562,-49,20,997,-19,-8,-6
563,32,5,1006,-18,-12,-9
564,83,-2,992,-15,-7,-7
565,65,15,987,-11,5,-2
566,6,32,1007,-11,12,-1
567,-73,39,996,-12,12,-1
568,-84,29,999,-15,2,-3
569,-37,14,998,-20,-8,-6
570,40,-3,992,-17,-11,-8
571,86,7,1000,-12,-3,-6
572,58,17,998,-12,8,-2
573,0,36,996,-11,12,0
574,-79,43,1001,-12,11,0
575,-80,29,994,-17,0,-3
576,-22,9,995,-19,-9,-6
577,42,-2,996,-19,-10,-8
578,89,7,1003,-15,-2,-5
579,51,15,998,-12,9,-2
580,-17,38,997,-11,14,0
581,-80,37,996,-14,9,-2
582,-81,24,988,-17,-2,-5
583,-10,15,1001,-19,-11,-7
584,53,-6,1000,-19,-10,-6
585,86,2,996,-11,-1,-7
586,40,17,999,-10,11,-2
587,-38,42,1000,-9,14,0
588,-77,40,989,-11,7,-1
589,-79,27,999,-18,-4,-5
590,3,13,997,-20,-13,-7
591,56,-1,1006,-17,-8,-7
592,85,4,998,-14,0,-4
593,30,16,994,-10,12,0
594,-46,36,990,-11,13,3
595,-83,40,996,-14,7,-2
596,-68,19,998,-20,-4,-6
597,10,7,1002,-18,-11,-7
598,66,-2,1001,-16,-7,-6
599,81,0,996,-13,3,-4
600,18,24,991,-8,12,-1
601,-55,45,989,-10,12,2
602,-79,39,1007,-15,3,-1
603,-58,28,993,-18,-7,-5
604,21,0,1008,-20,-12,-7
605,76,-8,993,-16,-6,-7
606,69,6,984,-10,4,-3
607,12,34,1003,-9,11,-1
608,-66,43,995,-11,12,1
609,-81,43,996,-15,2,-1
610,-44,12,1001,-19,-7,-5
611,26,-1,1002,-15,-10,-6
612,89,-4,986,-12,-6,-7
613,61,12,1002,-11,4,-2
614,4,41,1000,-7,11,0
615,-73,38,994,-10,12,0
616,-83,44,1006,-14,1,-1
617,-31,8,993,-19,-11,-5
618,37,4,993,-17,-10,-8
619,83,-5,1002,-14,-4,-6
620,52,23,995,-9,9,-3
621,-6,31,999,-11,14,-1
622,-76,46,997,-12,10,0
623,-73,28,999,-18,-1,-3
624,-20,9,988,-17,-9,-6
625,44,-5,1000,-18,-10,-7
626,83,5,1002,-12,-3,-6
627,43,26,996,-9,9,-1
628,-19,40,1000,-11,13,0
629,-80,44,995,-15,8,-2
630,-79,24,987,-19,-2,-3
631,-9,8,1000,-19,-11,-7
632,54,-4,998,-18,-10,-6
633,86,9,996,-12,-2,-4
634,35,19,1000,-9,11,-3
635,-32,36,992,-11,14,0
636,-80,36,995,-15,8,-2
637,-73,21,992,-20,-2,-4
638,4,10,1005,-17,-11,-7
639,62,0,996,-16,-8,-8
640,87,13,1004,-12,1,-4
641,27,28,990,-10,12,-2
642,-52,33,994,-10,15,0
643,-77,33,999,-14,5,-2
644,-73,14,997,-17,-5,-5
645,20,10,999,-18,-12,-8
646,70,1,1008,-15,-7,-7
647,82,7,983,-12,3,-3
648,15,28,1003,-9,12,-2
649,-61,44,991,-11,10,0
650,-84,38,1001,-16,4,-1
651,-55,18,999,-18,-8,-4
652,33,3,1005,-19,-13,-7
653,82,1,993,-14,-6,-6
654,68,14,988,-11,5,-2
655,4,29,1002,-13,13,-1
656,-73,43,999,-12,12,0
657,-77,32,994,-17,2,-3
658,-41,12,1003,-18,-8,-6
659,38,0,991,-17,-12,-7
660,81,4,999,-14,-4,-5
661,57,18,994,-11,7,-3
662,-7,38,1000,-11,12,-2
663,-71,38,995,-14,9,0
664,-86,28,994,-18,0,-3
665,-22,15,1001,-18,-10,-8
666,46,-5,989,-18,-10,-7
667,89,5,1002,-14,-4,-6
668,48,18,1002,-11,9,-3
669,-14,38,994,-11,12,-1
670,-83,31,994,-14,9,-1
671,-81,27,993,-16,-1,-4
672,-8,8,998,-18,-11,-7
673,52,6,994,-15,-9,-9
674,83,9,1003,-14,-2,-5
675,45,18,999,-12,10,-3
676,-36,23,995,-10,14,1
677,-77,46,991,-13,6,-2
678,-81,16,996,-17,-4,-3
679,0,22,1000,-16,-13,-8
680,53,-5,1003,-19,-9,-7
681,87,8,998,-19,-1,-5
682,32,22,1000,-23,7,-2
683,-37,38,986,-15,8,-2
684,-83,41,1000,-9,6,-3
685,-65,25,995,-21,-5,-5
686,5,1,1000,-21,-12,-5
687,67,0,1007,-12,-8,-8
688,76,2,998,-15,2,-2
689,27,28,986,-7,10,-2
690,-52,39,998,-10,12,0
691,-77,39,997,-18,3,-2
692,-63,19,1000,-16,-5,-4
693,18,1,999,-18,-12,-7
694,70,4,1005,-15,-7,-6
695,81,11,984,-10,4,-4
696,12,31,1000,-10,13,-2
697,-60,40,993,-12,12,0
698,-83,38,999,-17,2,-2
699,-50,8,999,-20,-8,-7
700,23,11,1004,-17,-12,-8
701,89,1,992,-16,-6,-7
702,61,11,994,-12,7,-5
703,6,36,1001,-9,13,-1
704,-76,35,995,-13,12,-2
705,-83,35,1000,-15,1,-3
706,-38,4,995,-19,-10,-7
707,43,0,997,-18,-12,-8
708,84,-4,998,-14,-5,-6
709,60,24,995,-10,8,-3
710,-11,32,1003,-12,15,0
711,-76,44,990,-14,10,-1
712,-82,31,1002,-19,0,-4
713,-23,12,987,-19,-11,-7
714,49,-3,999,-19,-10,-8
715,86,0,999,-13,-2,-6
716,46,17,995,-10,10,-3
717,-16,31,1002,-10,15,-2
718,-86,41,993,-13,9,0
719,-72,30,988,-17,-1,-4
720,-9,11,1002,-18,-10,-6
721,48,-3,995,-16,-10,-6
722,85,0,1001,-12,-1,-6
723,39,21,998,-8,9,-3
724,-34,40,994,-9,12,0
725,-79,39,997,-13,7,-2
726,-75,27,988,-18,-5,-4
727,2,13,1003,-20,-13,-8
728,61,-3,1005,-18,-9,-7
729,86,9,995,-11,0,-5
730,29,21,999,-12,10,0
731,-48,38,988,-10,12,0
732,-73,40,1000,-15,5,-2
733,-70,21,995,-19,-5,-3
734,14,10,1001,-20,-13,-6
735,74,-2,1006,-18,-8,-6
736,77,7,992,-12,3,-2
737,23,29,992,-11,10,-1
738,-53,33,996,-13,12,0
739,-84,39,997,-16,3,-1
740,-55,19,998,-19,-7,-6
741,22,6,1010,-17,-12,-8
742,76,-3,991,-15,-7,-7
743,72,7,988,-11,4,-4
744,10,28,1004,-10,13,-1
745,-65,45,994,-11,13,-1
746,-81,33,999,-16,3,-3
747,-45,19,999,-19,-7,-6
748,32,4,997,-18,-11,-8
749,81,-3,995,-13,-5,-6
750,60,16,992,-10,7,-3
751,-2,26,1004,-11,12,-1
752,-72,40,992,-11,10,0
753,-82,36,1002,-15,0,-3
754,-26,11,992,-20,-11,-6
755,38,-3,993,-17,-10,-6
756,81,1,1002,-14,-3,-6
757,48,12,997,-8,8,-3
758,-10,43,999,-8,14,1
759,-77,42,997,-12,10,0
760,-78,33,993,-17,-2,-3
761,-19,7,993,-20,-11,-7
762,48,-7,999,-17,-9,-8
763,80,4,1000,-14,-4,-5
764,48,22,998,-11,9,-2
765,-25,40,1004,-10,14,0
766,-76,44,990,-15,8,-1
767,-78,24,988,-17,-1,-4
768,-4,5,1007,-19,-11,-7
769,50,-4,994,-18,-10,-7
770,86,10,997,-11,-1,-6
771,36,27,1003,-10,10,-3
772,-35,41,986,-11,13,0
773,-79,38,992,-16,7,0
774,-71,25,1004,-17,-5,-4
775,10,-4,992,-20,-14,-7
776,64,1,1003,-14,-7,-6
777,84,11,1004,-12,0,-4
778,30,32,991,-9,11,-1
779,-53,39,990,-13,13,0
780,-80,38,1000,-18,5,-3
781,-65,7,998,-19,-4,-7
782,20,5,1004,-15,-11,-7
783,73,-5,997,-14,-7,-6
784,77,18,994,-9,3,-6
785,16,30,992,-8,12,0
786,-60,51,998,-11,13,0
787,-78,30,998,-19,3,-3
788,-56,18,997,-17,-6,-7
789,25,0,1006,-20,-11,-8
790,79,-1,992,-14,-6,-7
791,63,9,988,-9,5,-2
792,10,37,1002,-9,12,-1
793,-71,47,998,-12,12,0
794,-80,35,997,-18,1,-3
795,-44,12,1000,-20,-9,-6
796,45,2,994,-20,-12,-7
797,76,0,995,-15,-3,-5
798,56,18,997,-12,6,-2
799,-1,33,1002,-12,11,-1
800,-77,41,996,-13,10,0
801,-79,27,999,-17,-2,-3
802,-23,9,995,-19,-10,-7
803,41,-3,991,-16,-11,-7
804,87,2,1002,-12,-3,-6
805,44,25,1003,-9,9,-2
806,-17,35,996,-10,12,1
807,-79,36,995,-14,8,0
808,-74,27,990,-18,-3,-3
809,-12,9,1000,-18,-11,-6
810,50,0,996,-17,-10,-7
811,80,8,1004,-14,-2,-4
812,36,18,997,-11,10,-2
813,-31,39,996,-12,12,0
814,-74,35,996,-14,6,-2
815,-75,25,988,-18,-3,-4
816,3,7,1005,-19,-12,-7
817,58,1,996,-13,-8,-7
818,83,3,1004,-11,1,-5
819,30,27,996,-10,10,-1
820,-36,31,986,-11,13,-1
821,-84,37,1000,-12,7,-1
822,-68,22,993,-15,-5,-5
823,10,5,1006,-18,-11,-6
824,67,4,998,-13,-7,-6
825,78,5,999,-9,2,-4
826,25,26,993,-10,11,-1
827,-60,43,990,-10,13,1
828,-80,37,1003,-15,2,-2
829,-61,17,994,-17,-7,-5
830,17,11,1008,-15,-13,-7
831,80,0,997,-15,-8,-6
832,69,7,986,-10,4,-3
833,10,27,999,-8,11,-2
834,-64,42,998,-13,11,1
835,-77,34,996,-13,1,-3
836,-50,17,1002,-18,-8,-4
837,30,9,999,-18,-12,-7
838,74,0,994,-14,-5,-7
839,65,14,992,-11,5,-3
840,-1,31,1006,-10,11,1
841,-64,41,987,-13,8,-1
842,-82,31,1008,-17,0,-3
843,-35,18,987,-19,-10,-5
844,40,2,999,-17,-11,-8
845,89,1,998,-14,-5,-6
846,47,21,998,-11,7,-1
847,-2,36,999,-12,12,0
848,-81,40,996,-13,10,-1
849,-68,24,992,-17,-1,-4
850,-22,5,998,-18,-10,-6
851,51,1,996,-16,-10,-8
852,85,4,1003,-15,-3,-6
853,47,23,996,-10,10,-3
854,-27,37,996,-12,15,1
855,-78,39,999,-14,8,-2
856,-75,18,986,-17,-2,-4
857,-5,11,1006,-17,-10,-7
858,56,-6,993,-16,-8,-7
859,77,13,1003,-10,1,-4
860,41,26,995,-10,9,-3
861,-39,38,995,-11,15,2
862,-75,36,993,-15,6,-1
863,-74,19,992,-19,-4,-4
864,4,1,1004,-18,-12,-7
865,62,-1,1002,-15,-7,-7
866,80,16,999,-11,2,-5
867,25,24,997,-11,10,-2
868,-49,42,990,-10,13,0
869,-79,32,998,-15,4,-1
870,-69,16,996,-19,-6,-4
871,16,3,1003,-18,-12,-7
872,74,1,1001,-15,-6,-7
873,69,15,992,-12,4,-3
874,17,36,996,-10,11,-1
875,-60,43,996,-14,12,0
876,-87,30,994,-16,3,-2
877,-53,18,1003,-18,-7,-6
878,31,-5,1001,-18,-12,-7
879,81,5,998,-13,-7,-5
880,77,16,987,-12,5,-2
881,-1,35,1006,-11,12,-1
882,-71,43,993,-13,11,-1
883,-86,30,1002,-16,1,-3
884,-33,11,994,-18,-10,-6
885,36,1,998,-17,-12,-6
886,85,8,990,-13,-5,-6
887,58,18,1002,-12,8,-3
888,-1,38,995,-10,13,0
889,-75,37,994,-13,10,-1
890,-81,30,1003,-18,0,-4
891,-24,11,993,-19,-10,-6
892,43,0,990,-19,-10,-8
893,83,0,1010,-13,-2,-7
894,46,13,991,-10,9,-3
895,-15,38,1001,-7,13,-2
896,-79,40,997,-13,7,-1
897,-76,29,988,-15,-1,-5
898,-13,13,999,-18,-12,-8
899,47,0,999,-18,-10,-6
900,89,8,998,-12,-2,-6
901,43,19,1000,-13,10,-2
902,-35,36,997,-10,13,1
903,-78,40,989,-15,7,-2
904,-73,22,999,-18,-2,-5
905,1,7,994,-21,-12,-8
906,59,-5,1002,-17,-8,-7
907,81,8,1002,-11,0,-4
908,26,26,991,-10,10,-1
909,-38,42,992,-9,12,-1
910,-77,38,999,-16,6,-2
911,-74,26,995,-19,-3,-4
912,19,0,1000,-19,-11,-8
913,59,-11,1007,-16,-7,-8
914,82,10,991,-11,2,-4
915,21,24,1001,-8,12,0
916,-54,48,986,-11,12,1
917,-83,37,1003,-15,4,-2
918,-61,24,1001,-17,-7,-6
919,20,3,1002,-18,-13,-7
920,76,-2,1000,-13,-8,-7
921,80,11,989,-12,3,-3
922,11,34,998,-10,13,0
923,-65,45,996,-13,12,1
924,-79,33,999,-18,3,-3
925,-52,14,995,-18,-7,-7
926,28,2,1004,-18,-13,-6
927,86,-6,992,-14,-6,-7
928,61,15,994,-10,6,-2
929,7,32,1001,-10,11,-1
930,-75,42,997,-13,12,0
931,-81,30,1001,-16,1,-2
932,-31,6,994,-17,-9,-6
933,39,0,994,-17,-10,-6
934,82,2,997,-12,-4,-5
935,51,17,1000,-10,8,-3
936,-8,37,995,-10,14,0
937,-77,37,995,-10,10,-1
938,-76,28,999,-16,-1,-3
939,-23,12,991,-16,-9,-6
940,48,4,998,-15,-9,-8
941,81,6,1004,-14,-2,-5
942,47,25,995,-10,8,-3
943,-23,41,999,-11,13,1
944,-77,35,991,-14,8,-2
945,-78,26,989,-17,-2,-2
946,-7,6,1002,-19,-12,-6
947,54,1,999,-15,-10,-6
948,82,8,998,-13,-2,-5
949,38,25,1000,-10,9,-3
950,-30,37,994,-13,12,0
951,-81,37,991,-14,7,-1
952,-71,23,996,-19,-4,-4
953,0,3,1004,-20,-12,-7
954,59,3,997,-16,-10,-8
955,82,12,1004,-13,0,-5
956,27,32,998,-10,11,-1
957,-43,43,978,-13,14,0
958,-82,38,1010,-18,6,-3
959,-69,17,990,-20,-6,-3
960,14,1,997,-18,-12,-8
961,70,-4,1006,-18,-7,-8
962,79,15,994,-11,2,-5
963,24,30,991,-11,10,-1
964,-65,40,994,-14,12,1
965,-74,36,998,-16,2,-2
966,-59,16,997,-21,-7,-4
967,22,6,1006,-18,-12,-7
968,84,-3,996,-17,-6,-6
969,70,13,989,-11,4,-3
970,8,29,1001,-8,12,-1
971,-69,46,999,-13,11,-1
972,-80,36,998,-18,1,-2
973,-44,15,1000,-20,-8,-6
974,38,-9,993,-18,-11,-8
975,79,0,994,-13,-4,-7
976,58,16,998,-12,5,-3
977,0,41,999,-10,11,-2
978,-69,40,997,-14,11,-2
979,-88,34,997,-17,0,-3
980,-24,8,992,-19,-10,-7
981,40,-9,993,-17,-10,-7
982,80,9,1007,-11,-4,-5
983,55,25,991,-10,8,-4
984,-17,35,1005,-11,15,-1
985,-80,40,990,-15,8,-1
986,-79,28,993,-16,-1,-5
987,-13,8,998,-19,-11,-8
988,48,1,998,-17,-9,-7
989,89,6,1001,-14,-1,-5
990,37,21,999,-12,9,-2
991,-26,38,996,-12,12,0
992,-80,35,994,-15,9,-1
993,-77,24,987,-19,-3,-4
994,2,9,1005,-19,-12,-7
995,60,-3,1001,-16,-8,-7
996,79,2,996,-12,1,-4
997,38,27,1000,-10,10,-1
998,-44,32,989,-10,13,1
999,-75,44,991,-13,5,-2
1000,-74,17,1000,-17,-4,-5
1001,6,12,996,-17,-13,-7
1002,69,-6,1000,-16,-9,-8
1003,76,12,1003,-9,3,-3
1004,28,31,987,-9,10,-1
1005,-52,43,996,-12,14,-1
1006,-83,40,1001,-17,3,-1
1007,-61,21,995,-20,-6,-5
1008,21,0,1009,-19,-11,-8
1009,76,0,996,-15,-8,-6
1010,73,14,990,-12,3,-4
1011,12,28,996,-11,12,0
1012,-66,48,995,-13,11,2
1013,-75,30,997,-19,2,-2
1014,-49,18,998,-19,-8,-5
1015,27,-1,1004,-19,-12,-7
1016,85,-2,992,-29,-8,-7
1017,67,13,996,-12,5,-3
1018,5,36,999,-10,13,0
1019,-74,43,1001,-15,11,-1
1020,-83,38,992,-13,1,-3
1021,-34,13,1002,-21,-8,-6
1022,45,-4,988,-17,-11,-9
1023,74,2,1001,-12,-4,-5
1024,59,19,997,-13,6,-4
1025,-9,35,996,-12,13,0
1026,-72,47,995,-14,9,-2
1027,-83,33,1000,-19,0,-3
1028,-20,10,993,-21,-10,-6
1029,45,-5,995,-20,-10,-7
1030,81,0,999,-14,-4,-6
1031,43,19,1002,-9,8,-4
1032,-15,40,995,-11,11,0
1033,-80,37,994,-14,7,0
1034,-72,28,991,-19,-3,-4
1035,-9,5,998,-20,-12,-7
1036,52,-10,997,-17,-9,-8
1037,75,11,1000,-12,0,-4
1038,45,23,999,-9,8,-3
1039,-37,40,998,-10,15,0
1040,-74,39,987,-15,6,0
1041,-71,21,1002,-18,-3,-5
1042,2,4,998,-17,-12,-8
1043,63,-4,998,-15,-9,-8
1044,77,0,1007,-10,1,-4
1045,31,28,991,-10,9,-2
1046,-45,40,990,-10,13,0
1047,-76,40,1003,-11,5,-1
1048,-65,26,991,-17,-4,-4
1049,10,9,1002,-18,-11,-6
1050,69,0,1005,-16,-8,-7
1051,72,1,992,-13,4,-3
1052,21,24,992,-9,11,-1
1053,-52,38,993,-10,12,1
1054,-80,40,1001,-16,4,-1
1055,-61,17,993,-17,-6,-5
1056,27,5,1011,-17,-11,-8
1057,80,0,992,-14,-7,-7
1058,69,16,987,-11,5,-3
1059,11,36,1004,-9,12,-2
1060,-72,43,993,-13,13,0
1061,-84,35,995,-18,2,-2
1062,-40,12,1005,-20,-10,-5
1063,36,0,996,-19,-11,-7
1064,80,1,995,-16,-5,-6
1065,59,12,998,-11,7,-2
1066,1,42,1000,-10,13,0
1067,-79,34,991,-12,12,0
1068,-82,35,1006,-16,0,-3
1069,-25,4,993,-20,-10,-6
1070,46,0,994,-15,-10,-8
1071,81,1,1000,-10,-3,-6
1072,48,26,1000,-9,8,-3
1073,-14,42,996,-9,12,0
1074,-81,43,999,-13,10,0
1075,-71,29,991,-20,-2,-3
1076,-22,5,995,-19,-10,-5
1077,51,-4,995,-17,-9,-7
1078,79,1,1006,-11,-1,-6
1079,46,29,992,-7,9,-2
1080,-23,40,999,-12,13,1
1081,-76,40,993,-15,6,-1
1082,-72,24,989,-17,-3,-4
1083,0,2,1000,-19,-11,-8
1084,53,-6,1001,-15,-9,-8
1085,84,7,994,-13,-1,-4
1086,34,21,1004,-9,11,-2
1087,-37,50,991,-7,12,-1
1088,-70,37,995,-16,6,-3
1089,-74,26,995,-19,-3,-4
1090,4,5,1001,-18,-12,-7
1091,63,-6,1000,-15,-7,-8
1092,76,16,1003,-12,2,-4
1093,29,19,989,-10,11,-2
1094,-48,48,992,-9,15,1
1095,-79,34,1000,-16,4,1
1096,-63,28,991,-19,-5,-5
1097,11,0,1010,-20,-11,-8
1098,71,1,997,-14,-7,-8
1099,77,3,990,-12,4,-3
1100,14,28,997,-8,13,-2
1101,-61,45,991,-13,13,0
1102,-79,44,1001,-15,4,-2
1103,-57,14,999,-21,-8,-4
1104,30,1,1005,-20,-12,-7
1105,82,-5,994,-15,-5,-6
1106,64,19,989,-10,5,-3
1107,10,36,1001,-13,12,-2
1108,-77,48,1000,-15,11,-1
1109,-75,34,994,-19,1,-2
1110,-43,4,1000,-22,-9,-6
1111,42,-3,996,-19,-12,-8
1112,79,0,996,-12,-4,-6
1113,58,19,992,-10,6,-4
1114,-5,33,1003,-12,12,-1
1115,-75,46,991,-13,10,-1
1116,-82,30,1005,-19,0,-3
1117,-19,9,989,-20,-10,-7
1118,46,-5,995,-19,-9,-7
1119,85,8,1003,-12,-4,-5
1120,41,23,995,-11,9,-3
1121,-9,44,997,-11,13,-1
1122,-76,37,997,-15,9,-1
1123,-76,22,991,-19,-3,-4
1124,-10,1,997,-17,-10,-7
1125,52,-8,994,-15,-9,-7
1126,83,11,1004,-11,-2,-5
1127,40,25,996,-9,10,-4
1128,-35,36,996,-9,12,0
1129,-72,46,994,-12,6,-3
1130,-76,19,989,-17,-2,-5
1131,0,16,999,-17,-12,-8
1132,55,-7,1004,-17,-8,-9
1133,79,14,997,-11,0,-5
1134,34,20,1000,-12,10,-1
1135,-42,47,992,-8,13,1
1136,-78,34,991,-18,5,0
1137,-74,23,999,-18,-5,-5
1138,12,6,1002,-20,-13,-7
1139,67,-1,1000,-18,-8,-7
1140,73,10,1000,-11,2,-3
1141,28,31,991,-9,10,-1
1142,-52,42,994,-13,12,-1
1143,-81,43,996,-16,3,-2
1144,-62,19,999,-21,-6,-5
1145,25,-1,1006,-17,-12,-9
1146,75,-2,996,-14,-7,-7
1147,78,10,987,-10,4,-4
1148,11,31,1001,-9,13,-2
1149,-65,42,993,-13,11,-1
1150,-76,37,998,-16,2,-1
1151,-47,10,1002,-20,-7,-6
1152,32,2,1000,-18,-10,-7
1153,80,0,994,-14,-5,-7
1154,61,16,994,-9,6,-3
1155,2,38,1000,-10,13,-1
1156,-75,38,997,-13,12,-1
1157,-82,34,999,-16,1,-3
1158,-35,3,994,-21,-9,-6
1159,42,-3,993,-16,-12,-8
1160,83,1,1000,-14,-3,-6
1161,50,21,995,-10,9,-2
1162,-9,39,999,-9,14,0
1163,-77,42,996,-14,9,0
1164,-81,28,998,-19,-2,-3
1165,-13,4,990,-19,-10,-8
1166,39,-4,1001,-16,-10,-6
1167,84,8,1002,-10,-3,-5
1168,37,22,1000,-10,10,-2
1169,-22,40,996,-11,11,0
1170,-77,34,990,-13,7,-1
1171,-72,29,996,-17,-2,-3
1172,-8,-1,992,-18,-12,-6
1173,54,4,1006,-13,-10,-8
1174,83,2,996,-11,-1,-3
1175,34,30,997,-6,10,-2
1176,-29,37,1001,-12,13,1
1177,-75,45,992,-14,7,0
1178,-69,18,990,-20,-4,-2
1179,4,6,1008,-18,-12,-7
1180,59,-10,993,-16,-8,-6
1181,76,17,1000,-9,1,-3
1182,32,25,999,-12,9,-1
1183,-37,44,985,-10,12,1
1184,-81,32,1000,-14,6,0
1185,-65,26,992,-18,-5,-4
1186,12,0,1008,-17,-11,-7
1187,69,2,995,-14,-7,-6
1188,73,9,1003,-11,2,-3
1189,27,26,989,-8,10,-2
1190,-63,43,991,-12,12,1
1191,-73,41,1000,-15,3,-2
1192,-61,12,999,-18,-6,-5
1193,26,1,1000,-16,-12,-8
1194,73,-6,999,-13,-5,-7
1195,68,18,987,-9,5,-3
1196,10,37,998,-9,12,0
1197,-68,49,1002,-13,11,0
1198,-80,29,990,-17,2,-3
1199,-42,10,1002,-20,-9,-6
1200,29,-5,998,-18,-11,-7
1201,84,-1,994,-12,-4,-7
1202,56,17,997,-10,7,-3
1203,-3,48,1001,-10,13,0
1204,-69,44,996,-14,11,-1
1205,-84,26,1000,-19,2,-3
1206,-30,8,995,-19,-9,-5
1207,44,-7,993,-18,-10,-7
1208,83,4,999,-12,-3,-7
1209,48,18,999,-9,9,-3
1210,-16,50,996,-9,12,0
1211,-74,40,994,-15,8,0
1212,-81,29,997,-19,-2,-2
1213,-16,1,993,-22,-11,-6
1214,49,-11,996,-15,-10,-9
1215,83,5,1006,-12,-2,-5
1216,44,24,995,-9,9,-2
1217,-25,46,998,-11,13,2
1218,-77,42,994,-15,8,-1
1219,-72,21,989,-18,-3,-4
1220,-5,0,997,-19,-10,-7
1221,56,-5,1003,-14,-8,-8
1222,83,11,998,-10,-1,-5
1223,35,31,996,-7,9,-2
1224,-34,41,999,-12,13,0
1225,-75,37,988,-14,6,-1
1226,-72,23,994,-19,-4,-3
1227,9,1,1005,-19,-10,-7
1228,62,-7,998,-16,-8,-8
1229,79,7,1000,-9,2,-4
1230,24,30,996,-10,10,-1
1231,-44,50,988,-10,12,0
1232,-76,37,1000,-15,5,-1
1233,-64,16,1002,-19,-5,-5
1234,20,2,994,-15,-11,-8
1235,69,-6,1009,-15,-7,-8
1236,75,14,989,-10,3,-2
1237,18,29,993,-10,13,-1
1238,-64,48,994,-14,13,-1
1239,-78,35,1002,-17,1,-3
1240,-52,11,991,-18,-7,-6
1241,22,0,1011,-18,-11,-7
1242,80,-4,990,-13,-6,-6
1243,65,22,989,-9,6,-2
1244,6,42,1001,-10,12,0
1245,-73,42,994,-16,11,0
1246,-77,31,1002,-16,1,-3
1247,-36,6,995,-20,-8,-6
1248,30,-6,998,-18,-10,-7
1249,81,-1,992,-10,-5,-8
1250,54,20,998,-9,6,-3
1251,-3,46,1000,-10,11,0
1252,-77,43,995,-15,9,-1
1253,-75,30,1000,-18,-1,-3
1254,-29,2,996,-18,-9,-5
1255,41,-3,991,-17,-10,-7
1256,81,3,1006,-13,-4,-5
1257,43,32,994,-11,8,-3
1258,-12,40,1000,-12,11,1
1259,-75,48,996,-15,10,1
1260,-72,22,990,-20,-3,-3
1261,-9,1,999,-20,-11,-6
1262,43,-2,994,-17,-10,-6
1263,86,7,999,-13,-1,-6
1264,35,27,1007,-9,10,-3
1265,-23,48,991,-12,12,1
1266,-76,38,997,-17,8,-1
1267,-70,17,992,-20,-2,-4
1268,-1,-3,998,-20,-12,-7
1269,56,-8,1005,-14,-9,-8
1270,76,13,995,-11,0,-4
1271,36,34,1000,-10,10,-2
1272,-40,45,990,-12,13,0
1273,-78,39,990,-16,6,-2
1274,-73,17,1002,-19,-4,-4
1275,8,1,992,-18,-11,-7
1276,67,-4,1008,-15,-8,-7
1277,77,5,999,-11,1,-3
1278,21,37,990,-10,10,-1
1279,-53,48,995,-12,12,1
1280,-83,38,998,-17,4,-1
1281,-59,12,993,-21,-6,-5
1282,21,0,1009,-18,-10,-7
1283,71,-6,999,-16,-8,-6
1284,76,17,987,-9,4,-3
1285,9,29,1000,-10,11,-2
1286,-65,41,997,-12,11,1
1287,-87,36,991,-15,2,-2
1288,-45,13,1006,-16,-8,-6
1289,36,3,1001,-17,-11,-7
1290,81,-5,991,-12,-4,-6
1291,59,17,999,-9,6,-2
1292,7,34,998,-7,12,-1
1293,-80,43,998,-12,12,-1
1294,-76,34,997,-14,0,-3
1295,-30,12,996,-18,-9,-6
1296,41,2,992,-15,-10,-6
1297,77,1,997,-13,-4,-6
1298,56,20,1002,-10,7,-4
1299,-13,42,993,-8,13,0
1300,-73,44,997,-13,9,-2
1301,-74,23,999,-16,-2,-4
1302,-20,7,991,-15,-9,-6
1303,48,-6,995,-15,-10,-7
1304,80,10,1005,-11,-2,-6
1305,43,25,998,-11,9,-2
1306,-18,48,997,-12,13,0
1307,-75,38,997,-16,8,-1
1308,-69,25,986,-18,-3,-3
1309,-15,0,1001,-19,-9,-6
1310,54,-7,999,-14,-9,-7
1311,82,4,998,-12,0,-4
1312,39,32,1004,-7,9,-2
1313,-36,46,994,-10,12,0
1314,-71,41,990,-16,6,-1
1315,-77,18,996,-20,-5,-3
1316,-1,2,998,-20,-13,-7
1317,66,-6,1004,-14,-8,-8
1318,69,5,997,-8,1,-4
1319,38,34,995,-8,9,-2
1320,-39,41,994,-12,13,0
1321,-80,45,990,-15,5,-1
1322,-69,20,1002,-19,-4,-6
1323,14,-1,1000,-16,-11,-7
1324,67,-4,1001,-15,-8,-6
1325,80,9,998,-11,2,-3
1326,22,33,993,-9,12,-1
1327,-56,47,993,-13,12,0
1328,-83,38,999,-16,3,-1
1329,-63,19,997,-20,-6,-6
1330,26,-3,1004,-18,-12,-8
1331,73,-2,996,-12,-6,-6
1332,75,15,991,-10,5,-2
1333,8,34,998,-8,13,-1
1334,-70,50,1000,-12,11,0
1335,-74,35,992,-17,3,-3
1336,-44,12,1003,-21,-7,-5
1337,32,-2,994,-20,-12,-7
1338,80,-6,998,-14,-6,-7
1339,62,15,995,-11,5,-4
1340,-2,38,1001,-11,12,-1
1341,-69,48,997,-15,11,-2
1342,-80,33,998,-19,0,-2
1343,-29,6,995,-19,-10,-6
1344,42,-6,994,-17,-10,-7
1345,85,-3,1000,-13,-4,-7
1346,48,17,998,-9,9,-3
1347,-14,47,998,-9,13,0
1348,-73,39,995,-14,8,-1
1349,-78,32,993,-17,-1,-4
1350,-17,6,995,-20,-11,-5
1351,51,-5,996,-17,-11,-7
1352,77,6,1002,-14,-2,-5
1353,48,28,1000,-10,8,-2
1354,-26,41,1000,-9,14,1
1355,-74,46,989,-11,6,-2
1356,-76,22,994,-14,-1,-3
1357,-4,6,998,-25,-13,-7
1358,48,-10,1002,-15,-9,-8
1359,85,8,996,-7,-1,-4
1360,34,23,1003,-14,10,-1
1361,-37,45,993,-7,13,-2
1362,-80,40,993,-14,5,-1
1363,-69,18,997,-18,-5,-6
1364,6,2,997,-15,-11,-7
1365,63,-4,1005,-16,-7,-7
1366,75,13,996,-11,2,-3
1367,27,36,998,-7,11,-2
1368,-51,46,986,-12,12,0
1369,-82,36,999,-15,3,-1
1370,-57,15,996,-20,-7,-4
1371,16,-2,1004,-18,-11,-7
1372,74,-4,998,-15,-8,-6
1373,67,10,995,-12,4,-3
1374,17,39,995,-8,11,-2
1375,-60,49,997,-13,11,0
1376,-78,39,996,-20,1,-2
1377,-48,12,1000,-20,-7,-4
1378,28,-5,1004,-21,-12,-7
1379,80,-1,992,-15,-6,-8
1380,61,13,995,-11,4,-3
1381,6,42,1001,-10,11,-1
1382,-68,42,999,-13,10,-2
1383,-81,29,993,-19,2,-2
1384,-30,7,998,-20,-8,-6
1385,37,-6,999,-16,-9,-7
1386,78,-2,991,-12,-5,-6
1387,53,24,999,-8,8,-3
1388,-8,48,998,-11,12,0
1389,-70,46,995,-15,9,-1
1390,-74,26,999,-20,-1,-2
1391,-26,0,989,-20,-9,-7
1392,47,-12,997,-16,-9,-8
1393,79,3,1005,-11,-2,-4
1394,48,30,992,-9,8,-1
1395,-20,44,1004,-10,13,0
1396,-79,44,991,-14,8,0
1397,-78,25,989,-18,-2,-4
1398,-8,-4,999,-19,-10,-7
1399,45,-13,997,-15,-8,-7
1400,88,4,999,-9,-1,-6
1401,35,33,1004,-8,11,-2
1402,-30,48,993,-10,12,1
1403,-76,43,990,-15,9,-2
1404,-77,19,995,-19,-3,-3
1405,0,2,997,-19,-11,-6
1406,60,-7,1001,-17,-8,-7
1407,82,9,1007,-11,1,-4
1408,30,27,992,-9,9,-1
1409,-41,42,992,-10,14,1
1410,-77,41,996,-13,5,-1
1411,-73,17,996,-18,-5,-4
1412,12,5,1001,-17,-11,-7
1413,62,-4,1001,-16,-8,-7
1414,83,12,999,-8,1,-5
1415,20,27,994,-8,11,-1
1416,-52,44,990,-10,10,-1
1417,-79,42,1004,-15,2,-1
1418,-61,18,991,-18,-7,-5
1419,20,5,1008,-18,-11,-7
1420,69,-2,996,-18,-6,-6
1421,77,16,985,-13,4,-4
1422,12,24,1000,-12,12,-1
1423,-63,43,993,-12,11,-1
1424,-78,27,999,-18,2,-2
1425,-48,14,997,-18,-7,-5
1426,26,3,1003,-17,-12,-7
1427,89,0,994,-16,-6,-8
1428,58,13,992,-10,7,-3
1429,3,39,1003,-11,13,0
1430,-70,39,997,-13,12,-1
1431,-78,33,1000,-16,2,-3
1432,-37,11,996,-20,-8,-5
1433,43,-1,995,-18,-11,-8
1434,75,-4,997,-12,-4,-6
1435,56,21,996,-9,7,-3
1436,-5,33,998,-8,14,-2
1437,-77,44,1003,-13,10,-1
1438,-76,26,988,-18,0,-4
1439,-23,9,1002,-18,-8,-6
1440,45,-5,990,-19,-10,-7
1441,79,10,1006,-12,-2,-6
1442,46,21,998,-10,9,-1
1443,-22,39,999,-10,14,0
1444,-76,35,990,-13,8,-1
1445,-73,21,994,-16,-2,-4
1446,-9,1,995,-16,-11,-7
1447,49,1,1004,-13,-9,-7
1448,80,9,996,-12,-1,-5
1449,34,32,1004,-8,10,-3
1450,-38,48,993,-12,11,1
1451,-79,39,994,-16,6,-1
1452,-71,17,993,-20,-4,-5
1453,6,2,1001,-18,-12,-6
1454,60,0,999,-15,-8,-7
1455,75,16,1007,-12,0,-3
1456,32,26,986,-10,9,-2
1457,-50,50,995,-11,12,0
1458,-76,37,991,-16,3,-2
1459,-69,16,1002,-21,-6,-5
1460,15,3,996,-19,-12,-7
1461,75,0,1009,-17,-7,-7
1462,77,5,993,-11,3,-3
1463,24,30,990,-11,12,0
1464,-67,45,998,-14,11,1
1465,-80,41,997,-18,2,-3
1466,-58,19,1000,-20,-6,-5
1467,25,-4,1004,-19,-13,-7
1468,84,-3,1000,-14,-8,-7
1469,75,13,985,-10,6,-3
1470,8,38,1002,-10,12,-1
1471,-71,43,998,-14,12,1
1472,-89,32,993,-18,2,-2
1473,-44,6,998,-21,-9,-6
1474,40,-2,1001,-19,-12,-9
1475,91,2,994,-13,-3,-6
1476,62,20,994,-11,8,-3
1477,-4,37,1004,-11,15,-1
1478,-80,43,991,-15,12,-1
1479,-88,27,1003,-17,0,-3
1480,-20,4,995,-19,-10,-7
1481,44,-13,991,-16,-8,-8
1482,90,6,1006,-10,-2,-6
1483,47,29,997,-8,10,-3
1484,-13,52,998,-12,14,-1
1485,-87,39,995,-15,9,0
1486,-74,29,993,-21,-2,-4
1487,-15,-11,993,-22,-10,-5
1488,48,-2,998,-15,-10,-7
1489,89,-1,1003,-13,-1,-6
1490,39,26,997,-6,11,-2
1491,-23,48,1002,-10,13,0
1492,-82,49,990,-16,7,-1
1493,-74,26,991,-17,-2,-5
1494,-2,-2,999,-20,-12,-7
1495,51,-8,1002,-15,-9,-8
1496,84,7,996,-10,-1,-5
1497,33,35,1005,-11,10,-1
1498,-30,48,985,-12,12,0
1499,-86,36,997,-17,6,-1
1500,-71,18,992,-20,-5,-3
1501,1,0,999,-21,-12,-6
1502,65,-1,1000,-15,-8,-7
1503,83,13,1006,-11,2,-3
1504,31,29,992,-10,10,-1
1505,-51,42,988,-12,14,0
1506,-82,36,1008,-15,5,-2
1507,-70,15,994,-20,-7,-4
1508,23,7,1000,-18,-13,-7
1509,79,-7,1012,-17,-8,-8
1510,77,13,981,-13,4,-2
1511,18,30,997,-8,12,-2
1512,-57,43,1001,-14,12,-1
1513,-85,35,992,-17,2,-2
1514,-53,8,998,-19,-8,-5
1515,27,-1,1006,-18,-12,-7
1516,85,1,991,-11,-6,-6
1517,74,14,989,-9,6,-3
1518,10,37,1010,-9,13,0
1519,-68,37,990,-13,12,1
1520,-91,29,1001,-14,4,-2
1521,-39,6,992,-18,-9,-6
1522,39,-1,998,-15,-10,-8
1523,90,1,995,-12,-5,-6
1524,58,26,998,-7,9,-4
1525,-8,36,999,-11,14,0
1526,-80,41,998,-12,11,0
1527,-82,27,994,-17,0,-4
1528,-25,8,995,-18,-9,-5
1529,46,-4,996,-16,-11,-7
1530,87,7,998,-11,-2,-6
1531,47,22,1003,-10,11,-2
1532,-16,44,992,-10,15,1
1533,-88,37,998,-14,9,0
1534,-76,27,988,-16,-3,-3
1535,-12,3,997,-18,-12,-6
1536,57,-3,997,-17,-11,-7
1537,80,5,1000,-12,-2,-3
1538,41,29,1000,-8,9,-1
1539,-33,41,998,-11,13,1
1540,-80,47,991,-13,7,-1
1541,-69,18,993,-19,-5,-5
1542,1,9,1005,-18,-13,-7
1543,62,-5,997,-17,-9,-7
1544,76,12,1004,-10,0,-5
1545,37,22,995,-10,8,-1
1546,-43,45,989,-11,14,1
1547,-80,34,995,-17,5,0
1548,-70,15,996,-17,-5,-5
1549,12,0,1002,-18,-12,-7
1550,65,1,1002,-14,-7,-6
1551,79,12,1000,-12,3,-4
1552,21,36,986,-8,13,-2
1553,-54,42,995,-12,12,0
1554,-81,39,999,-17,3,-2
1555,-59,12,994,-20,-7,-5
1556,23,8,1008,-16,-10,-8
1557,69,-4,999,-16,-6,-6
1558,75,16,980,-11,5,-4
1559,12,28,1008,-11,13,-1
1560,-64,39,990,-13,11,-1
1561,-76,34,1003,-17,3,-4
1562,-46,12,995,-18,-6,-6
1563,28,0,1001,-16,-12,-8
1564,85,-5,999,-13,-5,-7
1565,55,16,990,-10,8,-1
1566,6,36,1005,-9,12,-1
1567,-71,43,1000,-13,10,-1
1568,-80,34,991,-16,1,-3
1569,-33,9,1002,-21,-10,-6
1570,41,-3,989,-20,-11,-8
1571,79,5,1002,-12,-4,-5
1572,51,23,993,-11,7,-3
1573,-11,46,1003,-10,12,-1
1574,-71,40,992,-14,8,-1
1575,-80,26,999,-20,-1,-3
1576,-20,4,989,-19,-10,-7
1577,49,-3,999,-18,-11,-8
1578,83,8,1002,-12,-3,-5
1579,43,27,998,-11,9,-2
1580,-20,32,997,-13,12,-1
1581,-78,39,996,-15,8,0
1582,-68,26,988,-20,-3,-4
1583,-8,4,1003,-19,-11,-7
1584,49,1,996,-17,-9,-6
1585,79,4,1001,-13,0,-4
1586,36,27,999,-10,9,-2
1587,-29,33,994,-12,11,-1
1588,-76,31,991,-15,5,-2
1589,-65,19,992,-16,-3,-4
1590,0,5,1001,-17,-9,-6
1591,60,3,1000,-13,-8,-8
1592,75,9,1006,-9,1,-4
1593,28,30,992,-8,9,-1
1594,-42,41,990,-13,12,0
1595,-76,37,999,-15,5,-1
1596,-66,16,996,-18,-4,-4
1597,9,3,999,-17,-11,-7
1598,70,5,1005,-12,-8,-7
1599,71,13,992,-13,4,-2
1600,20,37,993,-9,11,-1
1601,-56,37,999,-13,13,-2
1602,-82,37,995,-17,4,-2
1603,-55,11,1000,-19,-7,-6
1604,27,-5,1008,-18,-11,-9
1605,74,0,994,-14,-6,-7
1606,69,22,993,-9,5,-4
1607,9,42,1004,-9,12,0
1608,-72,45,992,-16,11,1
1609,-84,28,998,-17,2,-4
1610,-39,6,1001,-19,-9,-5
1611,28,-12,992,-16,-10,-5
1612,89,1,998,-9,-5,-7
1613,59,21,997,-10,8,-3
1614,-3,50,997,-9,12,0
1615,-75,43,997,-14,10,-1
1616,-86,31,1002,-16,0,-3
1617,-24,4,987,-18,-10,-6
1618,41,-6,1000,-16,-11,-6
1619,85,0,997,-12,-5,-6
1620,49,28,1003,-8,8,-2
1621,-15,45,996,-11,13,1
1622,-83,44,994,-16,8,0
1623,-74,29,998,-18,-2,-4
1624,-13,2,993,-20,-11,-6
1625,49,-5,996,-16,-11,-7
1626,88,1,1006,-13,-3,-5
1627,34,28,997,-9,9,-1
1628,-27,41,998,-12,12,0
1629,-77,36,992,-15,7,-3
1630,-74,21,988,-18,-3,-4
1631,6,6,1003,-17,-12,-8
1632,57,0,1001,-15,-9,-7
1633,78,13,1001,-11,1,-4
1634,37,27,994,-10,10,-2
1635,-47,43,995,-11,14,2
1636,-72,39,988,-16,5,-3
1637,-65,15,1002,-20,-4,-5
1638,3,-1,995,-17,-11,-6
1639,66,2,1005,-12,-6,-9
1640,78,4,1005,-10,3,-4
1641,20,37,987,-5,11,-1
1642,-44,40,995,-12,12,-2
1643,-80,38,999,-16,5,-2
1644,-58,7,990,-20,-6,-7
1645,15,3,1013,-17,-11,-8
1646,74,-2,989,-14,-7,-7
1647,66,11,997,-10,4,-3
1648,18,39,990,-8,11,-2
1649,-64,40,999,-13,10,-1
1650,-72,36,991,-16,0,-2
1651,-53,11,1002,-18,-7,-5
1652,31,0,1001,-18,-11,-8
1653,73,-5,995,-13,-5,-5
1654,65,20,991,-9,5,-3
1655,1,40,1002,-9,11,-1
1656,-68,48,996,-14,10,-1
1657,-80,26,995,-18,2,-3
1658,-40,13,1002,-18,-9,-5
1659,36,-5,991,-18,-11,-6
1660,88,4,994,-13,-4,-7
1661,47,15,1004,-8,7,-2
1662,0,51,992,-10,12,0
1663,-79,35,1003,-15,9,-1
1664,-79,32,992,-17,-1,-4
1665,-20,0,999,-19,-9,-7
1666,50,-1,990,-15,-10,-7
1667,79,-1,1005,-12,-2,-5
1668,47,27,999,-8,8,-3
1669,-23,48,998,-10,13,0
1670,-72,43,989,-17,8,-2
1671,-80,24,999,-20,-2,-3
1672,-2,6,991,-19,-11,-6
1673,47,-11,999,-17,-8,-6
1674,88,10,1002,-11,-1,-5
1675,35,26,1002,-9,12,-2
1676,-25,46,994,-12,14,0
1677,-79,37,995,-16,9,0
1678,-73,18,989,-20,-3,-3
1679,-2,0,999,-19,-10,-7
1680,57,-1,1005,-15,-8,-9
1681,84,6,999,-13,0,-5
1682,37,25,998,-9,9,-2
1683,-43,40,988,-12,13,1
1684,-81,45,996,-13,7,-2
1685,-67,17,995,-19,-5,-4
1686,8,-1,999,-18,-12,-5
1687,62,-1,1007,-14,-9,-6
1688,83,11,997,-10,3,-5
1689,17,36,996,-18,15,2
1690,-53,49,985,-23,13,3
1691,-84,34,1004,-24,2,-2
1692,-59,17,995,-18,-8,-4
1693,25,-7,1006,-15,-12,-8
1694,76,-5,1000,-17,-6,-6
1695,72,13,991,-3,5,-4
1696,11,39,1001,-8,12,-2
1697,-72,49,994,-12,12,-1
1698,-87,33,997,-14,1,-3
1699,-44,19,999,-21,-10,-6
1700,35,-5,1001,-18,-11,-7
1701,89,-4,994,-13,-5,-6
1702,65,16,997,-11,7,-2
1703,0,37,1002,-8,13,0
1704,-77,41,993,-13,10,0
1705,-82,32,1001,-16,1,-2
1706,-35,9,996,-18,-9,-5
1707,51,-5,995,-17,-11,-8
1708,82,-2,996,-11,-4,-5
1709,46,21,1000,-9,8,-2
1710,-3,39,994,-10,13,0
1711,-83,49,997,-9,10,0
1712,-78,31,993,-17,-2,-3
1713,-12,5,1001,-19,-10,-6
1714,45,-5,992,-16,-8,-6
1715,82,2,1003,-14,-1,-6
1716,51,24,1003,-10,9,-3
1717,-24,36,998,-11,15,1
1718,-80,45,987,-12,8,-1
1719,-79,25,997,-16,-1,-5
1720,-10,6,992,-19,-11,-7
1721,56,-7,1001,-15,-9,-7
1722,84,11,1005,-12,0,-5
1723,30,26,1000,-10,11,-2
1724,-28,43,992,-9,13,-1
1725,-89,37,996,-15,7,0
1726,-70,24,991,-20,-6,-4
1727,9,3,1005,-19,-12,-7
1728,60,0,997,-16,-8,-5
1729,86,14,1005,-13,2,-4
1730,30,23,996,-12,11,-1
1731,-53,43,982,-13,13,1
1732,-82,37,1002,-16,4,-2
1733,-68,16,996,-21,-6,-4
1734,11,10,997,-18,-11,-7
1735,78,-4,1008,-17,-9,-8
1736,78,7,996,-14,4,-4
1737,22,29,990,-9,12,0
1738,-63,42,998,-12,13,1
1739,-81,36,996,-17,3,-1
1740,-58,17,998,-18,-7,-5
1741,26,2,1004,-18,-12,-7
1742,79,-3,999,-13,-7,-7
1743,74,14,991,-9,5,-3
1744,9,33,998,-9,12,-2
1745,-78,45,997,-12,11,0
1746,-80,35,996,-16,2,-3
1747,-39,14,999,-20,-8,-6
1748,37,-3,1000,-18,-10,-6
1749,83,2,993,-14,-5,-7
1750,58,11,1000,-11,7,-4
1751,-4,39,1000,-10,13,0
1752,-74,41,996,-13,10,-1
1753,-86,31,997,-14,0,-3
1754,-25,14,993,-19,-10,-7
1755,48,-4,996,-17,-10,-7
1756,83,6,996,-14,-3,-6
1757,49,17,1005,-10,7,-3
1758,-10,42,993,-10,12,-1
1759,-86,34,995,-15,10,-1
1760,-79,26,995,-18,-2,-4
1761,-12,1,994,-18,-12,-8
1762,47,-5,996,-15,-10,-9
1763,86,8,1006,-10,-3,-5
1764,43,25,997,-8,9,-2
1765,-29,39,999,-11,12,0
1766,-82,43,990,-14,7,-1
1767,-72,22,994,-17,-3,-5
1768,-6,13,999,-18,-10,-8
1769,55,-2,1002,-15,-9,-7
1770,87,7,1001,-12,-1,-6
1771,29,18,999,-9,12,-2
1772,-37,47,991,-11,12,1
1773,-80,33,995,-15,5,-1
1774,-66,23,994,-18,-6,-5
1775,0,6,1001,-18,-12,-6
1776,67,0,1005,-14,-9,-7
1777,77,5,1000,-11,2,-4
1778,31,33,992,-10,10,-2
1779,-54,43,994,-10,12,0
1780,-79,34,994,-16,2,-3
1781,-67,16,996,-18,-5,-4
1782,17,4,1005,-17,-12,-6
1783,77,-9,999,-16,-8,-7
1784,73,15,993,-10,3,-3
1785,19,35,995,-8,12,-1
1786,-66,45,996,-13,12,0
1787,-83,34,995,-15,2,-3
1788,-51,16,998,-16,-7,-6
1789,31,-3,1005,-19,-11,-7
1790,74,6,996,-12,-5,-6
1791,70,19,990,-10,5,-4
1792,2,30,1007,-10,12,-1
1793,-70,44,992,-15,11,-1
1794,-78,30,998,-18,1,-4
1795,-37,11,999,-18,-8,-6
1796,38,-8,990,-16,-11,-7
1797,79,4,998,-10,-4,-6
1798,53,23,996,-10,7,-4
1799,-4,41,999,-10,13,-1
1800,-73,41,991,-13,11,0
1801,-82,26,1001,-18,-1,-4
1802,-24,5,995,-17,-11,-5
1803,40,-3,991,-16,-10,-6
1804,87,8,1003,-13,-4,-6
1805,44,21,999,-10,8,-2
1806,-17,47,995,-9,12,1
1807,-81,36,995,-15,9,0
1808,-72,27,990,-19,-2,-3
1809,-19,2,996,-18,-10,-5
1810,54,0,995,-14,-10,-6
1811,86,3,1008,-13,-2,-5
1812,39,22,992,-7,9,-3
1813,-29,34,999,-8,14,0
1814,-79,36,989,-15,7,-1
1815,-74,30,991,-17,-3,-4
1816,4,8,1002,-18,-11,-7
1817,55,4,1002,-14,-8,-7
1818,84,7,1001,-12,0,-5
1819,31,22,998,-11,11,-1
1820,-39,39,985,-10,13,0
1821,-86,35,1000,-12,4,-2
1822,-62,25,994,-19,-6,-4
1823,4,3,1000,-17,-10,-7
1824,67,6,1002,-16,-7,-7
1825,76,9,1001,-12,1,-4
1826,26,33,990,-8,12,-1
1827,-56,38,994,-15,13,1
1828,-74,40,1000,-17,2,-4
1829,-65,6,997,-21,-6,-5
1830,24,11,1003,-17,-13,-9
1831,77,-12,1004,-14,-8,-7
1832,76,15,983,-10,4,-4
1833,8,27,1000,-9,13,-1
1834,-65,42,999,-10,12,-1
1835,-81,31,995,-15,2,-1
1836,-45,13,996,-17,-8,-5
1837,33,5,1003,-16,-12,-8
1838,83,0,995,-11,-5,-7
1839,55,22,992,-8,6,-4
1840,-5,35,1010,-10,12,-2
1841,-70,47,989,-12,10,-2
1842,-81,29,1000,-16,0,-3
1843,-30,20,997,-19,-10,-6
1844,38,-11,995,-18,-11,-7
1845,81,11,996,-13,-4,-6
1846,50,14,1004,-12,7,-3
1847,-10,44,995,-11,13,-1
1848,-80,34,990,-16,9,-1
1849,-79,30,1005,-17,-2,-4
1850,-16,3,990,-20,-11,-6
1851,49,-1,999,-17,-11,-9
1852,91,3,1007,-13,-3,-6
1853,40,29,998,-10,10,-1
1854,-23,43,1000,-11,14,0
1855,-79,35,993,-14,8,-1
1856,-81,27,988,-17,-3,-3
1857,-1,6,999,-20,-12,-7
1858,55,-2,1000,-16,-8,-7
1859,85,8,998,-13,0,-4
1860,38,25,1002,-9,12,-2
1861,-38,33,993,-13,15,0
1862,-83,40,991,-14,7,-2
1863,-71,17,995,-18,-3,-6
1864,3,6,1003,-18,-12,-9
1865,66,-7,996,-15,-8,-8
1866,78,12,1005,-10,2,-5
1867,25,31,995,-10,9,-1
1868,-43,42,985,-11,12,0
1869,-85,40,1007,-15,5,-1
1870,-64,21,990,-19,-6,-4
1871,22,0,1004,-18,-12,-9
1872,68,-6,1002,-14,-7,-5
1873,73,10,990,-11,2,-3
1874,19,36,999,-7,11,-2
1875,-67,49,993,-11,13,1
1876,-74,38,997,-17,2,-4
1877,-55,9,1001,-20,-7,-5
1878,26,0,1002,-19,-11,-7
1879,77,-1,997,-14,-6,-6
1880,71,22,988,-9,5,-3
1881,8,31,995,-10,12,-2
1882,-70,48,1000,-13,13,-1
1883,-77,28,997,-18,1,-3
1884,-44,10,997,-18,-9,-6
1885,41,-1,998,-16,-11,-8
1886,78,0,995,-13,-3,-6
1887,57,24,998,-8,7,-3
1888,-5,40,999,-11,12,0
1889,-71,44,994,-15,10,-1
1890,-79,24,1001,-18,0,-3
1891,-25,0,993,-17,-10,-5
1892,43,-5,992,-15,-10,-7
1893,79,9,1011,-11,-4,-4
1894,44,25,992,-9,8,-2
1895,-14,47,998,-10,13,-1
1896,-76,41,999,-15,8,-1
1897,-81,25,986,-19,-2,-4
1898,-8,0,996,-18,-11,-7
1899,48,-9,999,-15,-10,-7
1900,81,14,995,-12,-3,-5
1901,46,34,1007,-10,9,-3
1902,-27,48,995,-12,13,0
1903,-78,38,991,-15,8,-2
1904,-72,16,994,-20,-2,-4
1905,-11,-3,1000,-20,-11,-7
1906,62,-2,998,-14,-10,-7
1907,83,10,1002,-12,0,-5
1908,36,32,996,-9,11,-2
1909,-41,44,991,-12,13,0
1910,-77,44,995,-16,5,-1
1911,-76,18,994,-19,-4,-4
1912,12,5,1001,-20,-14,-8
1913,68,-12,1005,-18,-8,-7
1914,86,13,998,-11,1,-5
1915,18,30,997,-10,11,-3
1916,-52,52,989,-12,11,0
1917,-79,29,1002,-16,5,-3
1918,-68,14,999,-20,-6,-5
1919,23,-8,999,-19,-12,-8
1920,79,-8,1005,-12,-6,-8
1921,77,15,986,-10,4,-3
1922,8,41,998,-7,13,-2
1923,-64,43,1001,-11,12,-1
1924,-84,31,987,-15,3,-4
1925,-53,9,1005,-16,-7,-5
1926,28,0,1002,-16,-12,-4
1927,81,3,992,-13,-5,-7
1928,67,23,996,-10,6,-3
1929,1,37,1000,-12,13,0
1930,-79,46,992,-14,12,0
1931,-85,33,999,-17,1,-3
1932,-38,-3,998,-20,-10,-6
1933,45,-2,991,-16,-12,-7
1934,83,2,1002,-12,-4,-6
1935,52,26,998,-9,7,-2
1936,-4,38,997,-12,13,0
1937,-81,48,995,-13,10,0
1938,-83,29,998,-19,-3,-3
1939,-16,5,991,-18,-10,-8
1940,47,-8,1000,-18,-10,-6
1941,90,6,1002,-12,-4,-5
1942,41,23,1001,-9,8,-2
1943,-19,43,997,-10,13,1
1944,-82,37,995,-15,8,0
1945,-75,22,989,-18,-3,-3
1946,-15,4,997,-18,-11,-5
1947,59,-1,997,-16,-10,-8
1948,86,13,1006,-11,0,-4
1949,39,31,994,-8,10,-2
1950,-38,37,1004,-12,13,-1
1951,-84,35,989,-15,6,-1
1952,-71,15,989,-18,-3,-4
1953,4,3,1002,-17,-12,-7
1954,61,-3,1004,-16,-9,-7
1955,84,10,997,-11,2,-3
1956,31,32,999,-8,10,-1
1957,-47,41,987,-12,13,0
1958,-80,40,999,-14,5,-2
1959,-65,19,993,-20,-5,-4
1960,11,6,1005,-20,-12,-6
1961,72,-7,1001,-13,-8,-5
1962,74,6,994,-11,3,-3
1963,15,29,997,-8,13,0
1964,-53,45,988,-13,12,0
1965,-82,41,1003,-16,3,-2
1966,-55,14,992,-18,-7,-4
1967,22,-3,1011,-16,-10,-7
1968,81,-8,998,-13,-7,-7
1969,63,19,982,-7,5,-2
1970,12,35,1005,-10,10,0
1971,-73,46,990,-13,11,0
1972,-80,37,998,-16,1,-3
1973,-44,8,999,-17,-8,-7
1974,34,-5,1002,-17,-12,-8
1975,86,0,991,-12,-5,-5
1976,56,25,996,-9,7,-2
1977,2,38,1003,-10,12,1
1978,-77,47,994,-14,11,1
1979,-78,27,998,-17,-1,-2
1980,-27,2,997,-19,-9,-7
1981,41,-9,992,-15,-10,-7
1982,83,-2,1000,-9,-4,-6
1983,47,23,1001,-9,8,0
1984,-6,48,996,-9,13,-1
1985,-80,48,996,-13,10,-1
1986,-73,32,998,-20,-2,-5
1987,-17,0,990,-18,-10,-7
1988,46,-3,999,-17,-9,-6
1989,82,8,1002,-13,-2,-5
1990,43,31,999,-8,9,-2
1991,-26,40,996,-13,13,0
1992,-77,45,997,-16,8,-3
1993,-69,16,989,-20,-4,-5
1994,-8,0,999,-18,-9,-6
1995,57,-9,1001,-15,-8,-8
1996,76,10,1000,-11,0,-4
1997,40,34,998,-9,10,-2
1998,-34,41,997,-12,12,0
1999,-79,35,991,-17,6,-2
2000,-74,22,994,-20,-4,-4
2001,6,2,1004,-19,-13,-7
2002,64,0,997,-15,-9,-6
2003,85,10,1002,-11,1,-6
2004,26,27,998,-12,11,-2
2005,-53,41,984,-11,12,0
2006,-77,36,1002,-18,4,-4
2007,-65,21,998,-20,-6,-4
2008,15,0,998,-19,-12,-7
2009,75,4,1004,-12,-8,-8
2010,70,14,995,-14,3,-2
2011,19,37,992,-9,12,-2
2012,-58,45,996,-15,12,-1
2013,-85,35,998,-17,3,-2
2014,-50,10,998,-19,-7,-7
2015,24,-8,1007,-20,-10,-7
2016,78,-1,995,-13,-6,-6
2017,71,19,988,-10,5,-2
2018,8,36,1002,-13,12,-1
2019,-70,47,995,-14,12,1
2020,-82,26,998,-19,2,-2
2021,-44,13,999,-17,-9,-5
2022,37,-5,992,-17,-11,-7
2023,80,2,998,-11,-4,-6
2024,61,32,995,-10,6,-2
2025,-2,35,1001,-11,14,-2
2026,-79,54,995,-14,10,-1
2027,-77,23,999,-21,0,-3
2028,-23,2,994,-22,-10,-6
2029,39,-13,989,-18,-12,-7
2030,82,1,1009,-9,-3,-6
2031,47,25,995,-25,7,0
2032,-11,48,997,-9,13,1
2033,-73,44,996,-17,10,0
2034,-76,28,994,-21,-3,-4
2035,-11,-3,993,-17,-10,-6
2036,41,-9,1002,-18,-9,-7
2037,83,7,998,-9,-3,-5
2038,41,28,1003,-9,9,-3
2039,-30,47,996,-10,12,-1
2040,-72,41,993,-14,7,-3
2041,-73,21,993,-19,-2,-4
2042,-4,2,999,-19,-12,-7
2043,54,-4,1001,-15,-8,-8
2044,79,14,995,-11,0,-5
2045,33,34,1004,-10,10,-3
2046,-36,44,991,-15,13,0
2047,-78,35,994,-18,7,0
2048,-70,18,997,-19,-3,-5
2049,7,-1,1000,-20,-11,-6
2050,62,-1,999,-15,-8,-7
2051,79,12,1004,-11,2,-5
2052,27,30,993,-9,10,-2
2053,-51,47,987,-11,12,0
2054,-80,32,1000,-16,4,-4
2055,-58,21,1001,-20,-7,-5
2056,19,0,999,-18,-11,-8
2057,74,-1,1001,-17,-6,-7
2058,73,10,991,-14,5,-3
2059,15,36,993,-11,13,-2
2060,-69,34,996,-14,12,1
2061,-74,38,998,-17,2,-4
2062,-51,5,1001,-21,-5,-5
2063,27,6,1001,-16,-11,-7
2064,81,-1,997,-12,-6,-7
2065,61,23,986,-10,6,-3
2066,3,43,1005,-10,13,-1
2067,-70,39,994,-15,11,0
2068,-79,31,1000,-16,2,-2
2069,-36,3,993,-19,-9,-6
2070,36,2,996,-15,-11,-6
2071,80,3,995,-12,-6,-6
2072,49,27,1001,-11,7,-3
2073,-5,41,995,-12,11,0
2074,-75,39,999,-15,9,-1
2075,-80,23,996,-19,-1,-3
2076,-19,1,993,-19,-10,-6
2077,44,-4,995,-15,-10,-7
2078,83,8,1007,-12,-3,-5
2079,48,23,993,-10,7,-2
2080,-14,40,1002,-13,12,0
2081,-73,40,991,-15,9,0
2082,-73,20,996,-19,-1,-2
2083,-8,4,993,-19,-11,-6
2084,49,-5,1000,-15,-9,-7
2085,88,10,998,-12,-1,-5
2086,35,29,1000,-9,11,-2
2087,-28,42,992,-9,13,-1
2088,-84,39,999,-15,8,-2
2089,-68,15,986,-18,-4,-5
2090,-5,9,1006,-17,-10,-7
2091,68,-2,997,-16,-9,-7
2092,75,13,1004,-10,1,-5
2093,34,24,994,-11,9,-2
2094,-48,45,989,-12,13,0
2095,-79,38,996,-14,6,-2
2096,-69,21,997,-18,-5,-5
2097,11,2,999,-18,-13,-8
2098,74,-1,1004,-14,-8,-7
2099,76,12,999,-11,4,-3
2100,18,33,990,-8,12,-1
2101,-56,46,994,-13,11,-1
2102,-75,36,1001,-15,2,-3
2103,-59,12,993,-20,-7,-5
2104,28,-6,1007,-18,-13,-8
2105,70,-1,1000,-12,-6,-6
2106,74,16,982,-10,3,-5
2107,8,38,1004,-10,12,-1
2108,-65,50,994,-14,10,1
2109,-80,33,997,-18,1,-3
2110,-45,7,999,-19,-8,-7
2111,28,-3,1003,-17,-10,-6
2112,86,1,992,-13,-6,-7
2113,57,15,998,-10,6,-2
2114,6,44,1000,-11,12,-1
2115,-79,43,995,-13,12,1
2116,-77,33,1002,-16,0,-3
2117,-29,0,995,-18,-10,-6
2118,42,-1,992,-16,-10,-6
2119,84,1,999,-13,-4,-6
2120,53,27,1001,-10,8,-3
2121,-11,39,992,-12,13,1
2122,-72,47,1002,-15,9,-1
2123,-77,25,992,-21,-1,-4
2124,-19,7,993,-18,-10,-7
2125,50,-14,998,-18,-10,-6
2126,80,5,1009,-14,-3,-4
2127,47,23,988,-10,9,-2
2128,-20,46,1007,-11,14,-1
2129,-77,37,989,-18,7,-2
2130,-74,21,991,-19,-2,-3
2131,1,-2,1000,-19,-11,-7
2132,48,-8,1000,-13,-8,-8
2133,87,8,995,-10,0,-5
2134,28,38,1008,-8,11,-2
2135,-35,45,990,-12,13,0
2136,-78,38,994,-15,8,-1
2137,-65,15,993,-17,-4,-4
2138,6,0,999,-18,-10,-6
2139,60,-6,1000,-15,-7,-6
2140,73,13,1003,-9,2,-3
2141,30,29,993,-8,12,-3
2142,-50,52,989,-11,14,-1
2143,-78,41,1001,-17,5,-3
2144,-67,14,995,-19,-4,-5
2145,12,5,1001,-17,-11,-7
2146,70,-7,1003,-16,-7,-7
2147,74,14,998,-12,3,-4
2148,18,36,988,-11,11,-2
2149,-60,44,997,-15,11,0
2150,-78,33,997,-19,2,-1
2151,-59,8,996,-18,-7,-4
2152,25,0,1008,-17,-11,-6
2153,76,-3,996,-14,-5,-8
2154,66,16,985,-11,4,-3
2155,17,36,1002,-12,11,-2
2156,-81,51,1000,-13,12,1
2157,-70,30,991,-18,0,-2
2158,-49,0,1007,-19,-6,-5
2159,35,-1,991,-16,-13,-7
2160,83,-3,997,-13,-5,-6
2161,59,29,998,-9,6,-3
2162,-2,37,1000,-11,11,1
2163,-76,42,996,-13,9,-1
2164,-75,28,1004,-18,0,-3
2165,-28,2,992,-20,-8,-6
2166,45,-7,994,-16,-10,-8
2167,80,2,1004,-10,-2,-6
2168,46,23,998,-8,8,-3
2169,-13,47,995,-7,12,0
2170,-74,43,1000,-15,8,-1
2171,-74,30,995,-17,-2,-4
2172,-10,0,994,-19,-9,-6
2173,43,-3,997,-16,-9,-5
2174,81,4,997,-12,-2,-5
2175,36,34,1004,-10,9,-2
2176,-20,42,991,-12,12,0
2177,-77,35,996,-15,8,-1
2178,-69,22,990,-18,-2,-5
2179,-8,-6,999,-18,-10,-7
2180,58,-1,1001,-15,-9,-8
2181,78,2,996,-12,1,-5
2182,32,40,1001,-7,10,-2
2183,-34,41,990,-10,13,1
2184,-81,42,995,-14,7,-1
2185,-68,15,992,-20,-6,-4
2186,6,-2,1004,-16,-12,-7
2187,63,-5,999,-15,-8,-6
2188,77,10,1003,-8,2,-4
2189,24,31,993,-9,9,-1
2190,-48,50,989,-12,12,0
2191,-80,36,1002,-17,3,-2
2192,-57,15,996,-19,-5,-4
2193,17,-2,1007,-19,-10,-7
2194,71,-4,997,-16,-7,-5
2195,72,12,996,-10,3,-4
2196,15,36,991,-8,12,-1
2197,-66,51,994,-12,12,0
2198,-77,40,999,-17,2,-2
2199,-52,12,997,-19,-8,-4
2200,35,-5,1003,-19,-13,-8
2201,74,-9,1001,-12,-5,-6
2202,67,22,981,-8,4,-3
2203,-4,41,1007,-9,14,-1
2204,-62,48,998,-15,9,-1
2205,-81,28,1000,-19,1,-2
2206,-30,7,994,-19,-10,-7
2207,33,-7,1000,-18,-10,-8
2208,82,4,996,-12,-4,-7
2209,48,21,996,-11,7,-3
2210,-1,50,996,-11,11,-2
2211,-74,40,1000,-15,10,-1
2212,-74,33,991,-18,0,-3
2213,-26,-5,1003,-19,-8,-7
2214,45,1,992,-15,-9,-8
2215,80,3,999,-11,-1,-7
2216,51,34,1005,-10,7,-4
2217,-19,34,988,-13,12,1
2218,-72,46,1000,-14,9,-2
2219,-77,16,995,-19,-1,-4
2220,-14,7,993,-18,-11,-7
2221,53,-13,1000,-17,-10,-7
2222,73,12,1003,-12,-1,-5
2223,43,28,997,-11,9,-2
2224,-27,44,1004,-12,14,1
2225,-74,42,985,-16,6,0
2226,-69,16,999,-19,-3,-6
2227,4,0,1001,-19,-11,-7
2228,52,-6,999,-16,-8,-8
2229,79,16,999,-9,1,-6
2230,31,30,1003,-10,9,-2
2231,-40,44,982,-12,13,-1
2232,-78,26,1001,-18,5,-1
2233,-61,15,991,-16,-6,-4
2234,8,0,998,-18,-13,-7
2235,67,5,1006,-11,-7,-8
2236,70,19,999,-11,2,-3
2237,27,38,992,-9,10,-2
2238,-57,41,990,-14,12,1
2239,-77,32,1000,-18,3,-2
2240,-55,12,997,-21,-6,-6
2241,18,-5,1005,-18,-11,-7
2242,68,3,1000,-12,-6,-6
2243,78,13,992,-9,3,-4
2244,5,44,998,-9,12,-1
2245,-64,44,992,-16,9,0
2246,-73,28,998,-19,2,-3
2247,-49,2,998,-20,-7,-4
2248,36,4,1003,-17,-11,-7
2249,80,-5,995,-13,-4,-7
2250,54,24,995,-9,6,-2
2251,3,44,996,-9,12,0
2252,-79,47,1002,-13,11,1
2253,-72,28,995,-18,0,-2
2254,-31,6,999,-20,-9,-6
2255,47,-7,993,-15,-13,-7
2256,73,4,998,-11,-3,-6
2257,51,21,995,-10,7,-4
2258,-10,45,1000,-9,12,0
2259,-69,42,994,-16,8,-2
2260,-81,21,1000,-19,-1,-3
2261,-17,2,993,-17,-10,-7
2262,47,-13,995,-18,-9,-7
2263,79,13,1003,-8,-2,-5
2264,41,26,995,-8,8,-2
2265,-23,49,1002,-10,13,1
2266,-75,31,987,-14,8,-2
2267,-74,22,995,-18,-2,-4
2268,-6,5,996,-17,-10,-7
2269,48,-5,1000,-16,-8,-8
2270,80,15,998,-10,-2,-5
2271,32,29,1002,-8,9,-2
2272,-34,42,994,-11,12,0
2273,-74,37,991,-13,7,-2
2274,-70,20,994,-19,-3,-4
2275,5,0,1002,-18,-11,-7
2276,55,-4,998,-16,-7,-7
2277,80,19,1007,-11,0,-5
2278,30,26,990,-11,11,-1
2279,-45,46,992,-12,12,-1
2280,-77,29,997,-18,4,-1
2281,-70,16,995,-18,-4,-5
2282,17,2,1001,-16,-11,-7
2283,61,0,1002,-14,-7,-8
2284,73,16,999,-11,3,-3
2285,21,28,990,-11,12,-2
2286,-58,44,993,-10,13,0
2287,-80,32,1000,-18,3,-2
2288,-55,13,998,-19,-6,-4
2289,23,3,1003,-17,-12,-7
2290,78,0,1002,-15,-6,-6
2291,68,9,985,-8,5,-3
2292,6,35,999,-9,11,-1
2293,-69,43,997,-14,11,0
2294,-80,39,993,-17,1,-3
2295,-43,6,999,-20,-9,-5
2296,37,-1,1003,-17,-12,-8
2297,83,-9,992,-12,-6,-5
2298,58,24,993,-11,6,-3
2299,0,42,999,-11,12,-1
2300,-77,53,999,-13,10,0
2301,-77,29,994,-22,0,-3
2302,-32,1,1001,-22,-8,-6
2303,44,-8,988,-17,-11,-7
2304,82,-3,1000,-11,-5,-6
2305,50,29,1002,-8,8,-3
2306,-14,36,994,-11,14,0
2307,-78,49,996,-14,10,-2
2308,-78,18,995,-19,-1,-3
2309,-18,6,993,-18,-9,-7
2310,51,-9,998,-15,-9,-7
2311,79,10,999,-11,-3,-6
2312,37,29,1001,-9,7,-3
2313,-20,45,998,-12,12,1
2314,-78,43,994,-15,7,0
2315,-71,20,990,-20,-3,-4
2316,-3,-3,1003,-18,-11,-7
2317,55,-4,996,-15,-8,-9
2318,77,7,995,-12,1,-5
2319,33,30,1003,-9,11,-2
2320,-35,42,986,-11,12,1
2321,-79,41,998,-15,6,-2
2322,-67,17,993,-18,-5,-4
2323,4,1,998,-19,-12,-7
2324,63,-8,1005,-14,-9,-8
2325,75,16,1002,-9,2,-3
2326,31,28,991,-8,11,-2
2327,-49,50,991,-9,14,1
2328,-77,34,998,-17,4,-1
2329,-66,20,996,-20,-6,-5
2330,22,-1,999,-20,-12,-8
2331,67,-3,1002,-14,-7,-6
2332,72,11,995,-11,3,-3
2333,19,29,992,-7,12,-2
2334,-61,53,996,-10,11,0
2335,-78,39,999,-18,1,-1
2336,-53,14,995,-21,-7,-5
2337,27,-4,1012,-18,-12,-8
2338,76,-2,990,-15,-6,-7
2339,67,15,988,-11,6,-4
2340,3,37,1003,-9,12,-1
2341,-70,45,998,-11,11,-1
2342,-82,35,995,-16,1,-2
2343,-38,14,1000,-19,-9,-5
2344,41,-8,999,-18,-11,-9
2345,80,6,995,-11,-4,-6
2346,57,14,996,-14,5,-4
2347,-4,36,1002,-9,12,-2
2348,-79,40,990,-15,10,-1
2349,-77,30,1002,-16,-1,-3
2350,-23,15,997,-16,-11,-5
2351,47,-4,991,-19,-10,-6
2352,79,0,1006,-12,-2,-4
2353,48,22,999,-9,9,-3
2354,-19,34,995,-10,14,0
2355,-76,45,998,-12,8,-1
2356,-70,19,994,-19,-1,-4
2357,-17,11,995,-15,-9,-7
2358,53,-9,1000,-14,-8,-7
2359,75,13,1004,-10,-1,-5
2360,42,21,999,-9,9,-2
2361,-29,48,999,-10,12,0
2362,-76,35,991,-16,6,-2
2363,-67,21,993,-17,-3,-4
2364,-3,2,1003,-18,-12,-4
2365,57,1,995,-16,-8,-7
2366,79,12,1002,-14,4,-3
2367,33,34,996,-9,9,-1
2368,-43,41,993,-10,13,0
2369,-74,38,989,-21,5,-3
2370,-69,14,1000,-16,-3,-4
2371,11,0,995,-21,-12,-8
2372,66,-5,1006,-15,-7,-8
2373,76,15,996,-6,2,-3
2374,17,34,994,-11,9,-2
2375,-50,41,992,-9,12,-1
2376,-80,36,996,-17,3,-2
2377,-58,13,998,-19,-6,-6
2378,20,-1,1005,-16,-10,-7
2379,75,0,1002,-15,-6,-7
2380,69,19,992,-9,4,-3
2381,13,38,993,-9,11,-1
2382,-68,47,998,-16,12,-1
2383,-76,31,993,-18,1,-2
2384,-45,0,1002,-20,-7,-5
2385,31,-4,1000,-17,-10,-6
2386,73,0,996,-13,-5,-6
2387,67,21,988,-10,4,-4
2388,-3,44,1006,-10,13,0
2389,-65,43,991,-14,11,-2
2390,-76,30,1000,-18,3,-3
2391,-38,7,998,-20,-8,-6
2392,40,-7,993,-17,-11,-8
2393,82,0,1002,-11,-5,-7
2394,47,30,997,-11,7,-2
2395,-7,44,999,-11,11,-1
2396,-75,40,994,-15,9,0
2397,-75,23,1000,-19,-2,-4
2398,-22,10,995,-18,-10,-6
2399,44,-12,994,-17,-11,-8
2400,81,8,1004,-13,-2,-5
2401,42,25,994,-10,9,-2
2402,-21,48,1001,-11,14,1
2403,-78,37,994,-17,8,0
2404,-76,22,989,-18,-2,-4
2405,-6,-1,999,-19,-12,-6
2406,52,-2,996,-15,-10,-7
2407,80,10,999,-9,0,-5
2408,34,34,998,-8,8,-2
2409,-39,39,999,-11,12,-1
2410,-71,38,990,-14,5,-2
2411,-69,20,995,-20,-4,-4
2412,8,2,995,-18,-12,-8
2413,59,0,1008,-13,-7,-8
2414,75,14,996,-12,1,-4
2415,29,26,998,-11,10,-1
2416,-39,42,991,-13,11,-1
2417,-79,34,992,-15,6,-3
2418,-62,9,998,-19,-3,-5
2419,11,-2,1003,-18,-10,-7
2420,68,0,1003,-14,-6,-7
2421,75,13,1001,-9,3,-4
2422,22,39,994,-9,11,-1
2423,-54,39,992,-13,12,0
2424,-83,29,1001,-16,4,-1
2425,-58,10,994,-19,-8,-5
2426,22,-2,1005,-14,-12,-6
2427,74,0,997,-12,-7,-7
2428,64,19,991,-9,5,-3
2429,9,41,995,-9,13,-1
2430,-63,46,1000,-16,11,-1
2431,-78,31,995,-18,2,-3
2432,-45,8,998,-17,-8,-6
2433,32,0,1002,-16,-12,-6
2434,76,-2,989,-12,-5,-6
2435,59,29,999,-9,5,-3
2436,-1,42,1004,-12,12,0
2437,-73,44,993,-15,10,-2
2438,-73,27,1001,-19,-1,-3
2439,-36,6,991,-21,-9,-6
2440,43,1,997,-16,-12,-9
2441,82,1,997,-15,-4,-6
2442,51,27,999,-12,8,-2
2443,-6,31,998,-13,13,-1
2444,-78,44,994,-14,10,0
2445,-79,25,996,-18,0,-3
2446,-14,5,999,-18,-9,-8
2447,42,-11,992,-17,-9,-7
2448,86,6,1005,-10,-3,-6
2449,43,26,1003,-12,9,-2
2450,-23,50,993,-11,13,-1
2451,-72,40,999,-17,8,-2
2452,-74,17,988,-20,-2,-4
2453,-4,-1,1001,-19,-10,-7
2454,56,-7,997,-14,-8,-9
2455,77,9,1002,-12,0,-4
2456,35,26,994,-7,11,-1
2457,-37,42,1001,-11,12,1
2458,-76,38,991,-14,5,-2
2459,-64,16,995,-19,-5,-6
2460,3,5,1001,-15,-11,-7
2461,68,-4,1000,-14,-8,-7
2462,74,10,1005,-11,3,-5
2463,26,29,990,-9,10,-1
2464,-51,43,988,-10,13,0
2465,-83,41,1003,-15,4,-2
2466,-62,19,990,-19,-6,-5
2467,15,0,1001,-18,-12,-7
2468,73,-5,1008,-15,-7,-7
2469,70,17,987,-11,5,-3
2470,13,33,993,-9,13,-1
2471,-68,53,1001,-13,12,0
2472,-78,31,987,-19,2,-3
2473,-52,10,1006,-20,-7,-5
2474,32,-3,1008,-19,-14,-7
2475,81,-8,989,-14,-7,-7
2476,62,20,996,-9,6,-2
2477,5,42,999,-12,12,-1
2478,-73,49,997,-14,11,0
2479,-82,37,995,-19,1,-2
2480,-32,10,1002,-21,-11,-7
2481,40,-11,995,-19,-10,-7
2482,82,0,991,-13,-5,-7
2483,59,13,1004,-11,7,-3
2484,-10,40,993,-10,13,0
2485,-73,41,996,-13,10,-1
2486,-75,31,1002,-16,0,-3
2487,-25,8,992,-18,-9,-6
2488,52,-2,992,-17,-10,-8
2489,74,6,1005,-13,-4,-5
2490,49,21,994,-11,7,-4
2491,-18,38,1002,-11,14,-1
2492,-77,40,989,-13,8,-1
2493,-67,19,999,-18,-4,-5
2494,-10,7,990,-18,-10,-6
2495,50,-3,1001,-18,-9,-7
2496,82,9,1000,-11,0,-7
2497,34,29,999,-9,10,-2
2498,-27,44,998,-14,13,0
2499,-80,36,992,-16,6,-1
2500,-71,20,991,-17,-3,-4
2501,1,4,1003,-19,-11,-7
2502,61,-5,997,-14,-7,-7
2503,78,8,1002,-13,2,-3
2504,33,26,997,-11,10,-2
2505,-53,42,986,-11,14,0
2506,-74,43,999,-15,4,-2
2507,-65,8,991,-17,-6,-4
2508,11,12,1008,-16,-12,-7
2509,68,-6,999,-15,-6,-6
2510,74,15,1005,-9,5,-4
2511,23,31,989,-12,11,-1
2512,-54,45,990,-11,13,0
2513,-78,30,1002,-17,4,-2
2514,-56,7,993,-18,-5,-5
2515,21,-1,1004,-14,-10,-7
2516,73,0,1001,-12,-6,-7
2517,66,20,990,-9,4,-4
2518,14,40,994,-9,12,-3
2519,-60,50,994,-14,12,0
2520,-74,36,998,-16,1,-3
2521,-47,6,1000,-19,-8,-5
2522,30,-7,1003,-17,-11,-6
2523,79,0,991,-12,-5,-7
2524,58,17,992,-10,6,-3
2525,4,43,1005,-10,12,-2
2526,-76,46,991,-14,10,-1
2527,-75,35,997,-16,1,-2
2528,-28,0,1002,-19,-9,-5
2529,41,-5,989,-17,-12,-6
2530,75,0,1002,-10,-3,-4
2531,49,27,1000,-10,8,-3
2532,-11,40,996,-11,12,0
2533,-73,47,997,-13,9,-1
2534,-78,25,999,-19,-1,-3
2535,-8,3,995,-18,-10,-8
2536,45,-8,993,-17,-9,-6
2537,77,6,1003,-12,-2,-5
2538,38,30,1003,-9,8,-3
2539,-28,50,991,-12,12,-1
2540,-73,42,996,-14,6,-2
2541,-67,16,992,-21,-4,-3
2542,-11,-3,994,-18,-11,-5
2543,58,-9,1000,-15,-9,-7
2544,76,12,1001,-11,0,-4
2545,33,32,996,-9,10,-2
2546,-35,45,999,-12,13,0
2547,-75,39,991,-17,6,-1
2548,-69,19,991,-19,-3,-4
2549,4,4,1005,-21,-12,-7
2550,63,-13,995,-17,-8,-7
2551,75,19,1006,-8,2,-4
2552,32,25,994,-11,8,0
2553,-51,52,987,-12,13,2
2554,-81,26,998,-18,3,-1
2555,-62,17,999,-19,-6,-5
2556,20,-1,995,-17,-13,-6
2557,72,-3,1008,-12,-7,-7
2558,77,18,996,-8,2,-4
2559,17,31,991,-8,12,-1
2560,-63,48,995,-10,12,0
2561,-80,29,997,-18,2,-2
2562,-50,10,1000,-17,-7,-6
2563,26,1,1005,-17,-12,-7
2564,78,-1,998,-14,-6,-6
2565,65,13,989,-10,6,-2
2566,-1,37,996,-9,12,-1
2567,-67,45,1001,-12,9,0
2568,-77,33,993,-15,1,-2
2569,-34,14,999,-20,-8,-5
2570,37,-8,1002,-17,-9,-7
2571,79,2,993,-12,-4,-7
2572,53,21,994,-8,5,-3
2573,-9,48,1002,-9,11,0
2574,-79,46,994,-14,9,0
2575,-71,32,997,-16,-1,-4
2576,-21,-1,998,-21,-9,-5
2577,44,-5,985,-16,-9,-7
2578,81,5,1009,-11,-3,-6
2579,42,26,994,-10,8,-3
2580,-20,44,997,-9,12,0
2581,-74,38,995,-14,7,-2
2582,-74,25,1003,-19,-3,-4
2583,-11,-1,988,-18,-10,-6
2584,46,-4,1003,-16,-8,-7
2585,82,12,1003,-12,-3,-5
2586,38,25,998,-10,9,-2
2587,-29,45,996,-13,13,0
2588,-81,39,995,-18,7,0
2589,-69,17,986,-20,-3,-4
2590,2,2,1003,-19,-10,-6
2591,58,-8,997,-15,-8,-8
2592,81,9,1002,-11,1,-6
2593,36,28,996,-9,11,-1
2594,-46,50,996,-12,14,1
2595,-73,39,991,-16,5,-2
2596,-74,8,995,-21,-3,-3
2597,16,1,1000,-19,-14,-6
2598,62,-8,1002,-14,-6,-6
2599,82,14,1002,-10,2,-6
2600,17,34,994,-9,12,-1
2601,-50,50,986,-13,12,0
2602,-81,33,1005,-16,4,-2
2603,-61,15,991,-18,-6,-6
2604,17,3,1003,-17,-11,-7
2605,76,3,1006,-13,-9,-8
2606,70,12,988,-11,4,-3
2607,14,40,1000,-8,12,-2
2608,-64,43,993,-13,12,1
2609,-78,34,996,-16,2,-2
2610,-48,4,999,-20,-8,-6
2611,29,0,1010,-18,-12,-6
2612,85,2,992,-13,-5,-7
2613,61,20,994,-10,5,-3
2614,0,38,996,-11,12,-2
2615,-78,44,1000,-12,11,-1
2616,-77,29,992,-16,1,-4
2617,-37,0,997,-17,-9,-6
2618,47,-1,1000,-14,-11,-7
2619,79,0,992,-11,-2,-6
2620,46,30,996,-7,8,-2
2621,-4,48,1001,-10,12,-1
2622,-83,39,994,-13,9,0
2623,-74,30,998,-18,-2,-3
2624,-21,-1,996,-19,-9,-5
2625,48,-6,991,-15,-10,-7
2626,79,8,1009,-11,-3,-6
2627,38,28,995,-10,8,-2
2628,-16,44,1001,-11,11,-2
2629,-76,34,993,-16,8,-1
2630,-73,23,994,-18,-2,-3
2631,-6,0,998,-20,-12,-7
2632,52,-4,996,-18,-9,-8
2633,80,7,1003,-12,-1,-5
2634,37,29,999,-11,9,-1
2635,-33,43,997,-12,13,0
2636,-80,42,991,-16,5,0
2637,-65,17,992,-21,-4,-4
2638,9,-4,1005,-21,-11,-7
2639,55,-7,995,-13,-7,-7
2640,79,14,1004,-8,2,-6
2641,19,34,1000,-8,10,-2
2642,-42,49,980,-13,10,-1
2643,-76,40,1001,-15,5,-2
2644,-60,13,995,-21,-6,-5
2645,7,-1,996,-17,-12,-6
2646,68,-8,1007,-13,-8,-8
2647,67,17,998,-10,3,-4
2648,22,34,988,-9,10,-2
2649,-54,49,997,-12,12,0
2650,-79,34,998,-18,3,-1
2651,-56,19,990,-19,-7,-6
2652,25,-4,1013,-19,-12,-8
2653,73,-4,994,-13,-7,-7
2654,69,8,988,-9,4,-4
2655,4,36,998,-9,11,0
2656,-69,51,1001,-13,11,0
2657,-69,34,991,-17,2,-2
2658,-43,6,1005,-18,-7,-5
2659,38,-2,1001,-16,-10,-7
2660,78,-1,993,-12,-5,-6
2661,56,16,995,-7,7,-4
2662,-8,40,1000,-8,12,-1
2663,-71,49,998,-12,10,-2
2664,-76,32,999,-17,1,-2
2665,-23,5,994,-21,-10,-5
2666,44,-8,997,-15,-10,-7
2667,76,9,993,-12,-4,-5
2668,41,26,1003,-11,8,-2
2669,-8,45,997,-11,11,-1
2670,-77,41,992,-14,9,-1
2671,-68,27,1000,-18,-3,-3
2672,-13,-4,994,-18,-9,-6
2673,48,-10,996,-16,-9,-8
2674,78,6,1004,-11,-1,-5
2675,35,37,1000,-11,8,-3
2676,-18,45,992,-11,11,-1
2677,-78,39,995,-15,7,-2
2678,-65,19,992,-21,-3,-4
2679,-7,-5,995,-18,-11,-7
2680,57,0,1004,-14,-9,-7
2681,82,13,997,-12,0,-4
2682,31,32,1000,-9,11,-1
2683,-36,42,1000,-14,13,0
2684,-79,42,987,-16,6,-1
2685,-69,15,996,-21,-4,-4
2686,8,-5,1003,-21,-12,-8
2687,61,-7,996,-14,-7,-7
2688,83,15,1006,-9,1,-2
2689,23,33,989,-8,12,-1
2690,-51,50,993,-10,14,-1
2691,-76,39,1000,-17,4,-2
2692,-65,13,992,-19,-6,-5
2693,25,-4,1006,-18,-13,-8
2694,68,-4,1001,-14,-8,-8
2695,72,16,995,-9,3,-3
2696,20,30,991,-11,11,-2
2697,-67,49,996,-12,13,1
2698,-73,34,989,-18,1,-2
2699,-52,12,1009,-18,-5,-6
2700,29,0,997,-19,-11,-6
2701,80,-4,996,-14,-6,-7
2702,65,14,990,-9,4,-3
2703,-2,43,1001,-6,11,-1
2704,-70,43,994,-32,8,0
2705,-83,35,999,-18,-2,-3
2706,-30,11,997,-20,-8,-6
2707,38,-5,1001,-22,-11,-6
2708,83,0,988,-4,-5,-6
2709,49,21,1006,-11,8,-2
2710,-6,46,995,-8,13,0
2711,-84,47,997,-10,10,0
2712,-68,27,999,-22,-4,-4
2713,-26,6,994,-15,-9,-7
2714,47,-6,992,-17,-10,-7
2715,76,10,1003,-13,-4,-6
2716,42,26,1000,-9,7,-1
2717,-19,51,998,-13,11,0
2718,-75,34,998,-15,7,-1
2719,-70,20,993,-19,-2,-4
2720,-10,0,995,-19,-11,-8
2721,53,-3,998,-13,-8,-8
2722,79,10,1003,-13,0,-5
2723,35,27,998,-10,9,-2
2724,-26,47,996,-12,12,0
2725,-81,36,992,-18,7,-1
2726,-63,23,992,-19,-4,-4
2727,3,-2,1000,-18,-10,-7
2728,55,-1,997,-16,-8,-7
2729,78,15,1006,-11,1,-5
2730,26,27,991,-11,10,-3
2731,-42,46,994,-13,11,-1
2732,-69,34,994,-17,4,-2
2733,-65,19,993,-20,-5,-5
2734,14,-1,998,-16,-10,-5
2735,60,-3,1007,-14,-5,-6
2736,74,14,1000,-10,2,-4
2737,23,32,991,-8,10,-2
2738,-56,43,991,-14,12,0
2739,-76,34,1000,-17,3,-1
2740,-52,12,994,-19,-5,-6
2741,23,0,1009,-17,-11,-7
2742,73,-1,995,-11,-5,-6
2743,60,13,994,-11,6,-3
2744,10,38,995,-7,12,0
2745,-69,46,996,-11,12,0
2746,-75,37,995,-17,1,-1
2747,-41,3,1000,-21,-7,-5
2748,36,0,1003,-16,-11,-8
2749,74,-5,992,-13,-5,-5
2750,53,25,994,-10,7,-2
2751,-3,45,998,-9,13,-1
2752,-68,46,999,-16,9,0
2753,-81,20,994,-19,-1,-1
2754,-23,3,1000,-19,-11,-6
2755,42,-11,998,-18,-11,-6
2756,77,7,992,-9,-4,-6
2757,52,26,1005,-8,7,-2
2758,-15,46,997,-11,12,0
2759,-75,42,993,-15,8,-2
2760,-72,23,1004,-19,-3,-3
2761,-14,0,990,-21,-11,-5
2762,45,-9,995,-14,-8,-7
2763,84,8,1005,-11,-3,-5
2764,35,29,997,-9,10,0
2765,-23,47,996,-11,12,1
2766,-72,39,998,-17,7,-1
2767,-67,19,986,-17,-3,-4
2768,-2,0,1002,-18,-9,-7
2769,56,-9,996,-15,-8,-8
2770,73,18,1000,-10,2,-4
2771,37,23,995,-10,10,-2
2772,-42,50,999,-10,14,0
2773,-74,36,987,-16,5,-2
2774,-65,23,999,-21,-4,-6
2775,12,0,998,-18,-12,-8
2776,56,-3,1001,-15,-7,-6
2777,71,11,1000,-9,2,-4
2778,20,29,999,-9,11,-2
2779,-46,47,984,-10,13,-1
2780,-74,45,1002,-18,5,-1
2781,-55,15,992,-20,-6,-5
2782,16,0,1003,-17,-9,-6
2783,68,-5,1003,-14,-6,-6
2784,64,6,996,-10,4,-5
2785,16,30,991,-9,10,-1
2786,-58,46,991,-14,11,0
2787,-76,33,1003,-17,2,-3
2788,-52,14,997,-17,-7,-4
2789,30,-2,1005,-17,-10,-6
2790,73,-1,999,-12,-6,-5
2791,63,20,985,-9,6,-4
2792,2,37,1000,-9,12,-2
2793,-68,44,994,-12,9,-1
2794,-75,27,998,-16,2,-4
2795,-37,11,1001,-17,-7,-6
2796,35,-1,999,-15,-10,-6
2797,84,1,996,-9,-5,-6
2798,53,23,998,-9,6,-2
2799,-6,36,999,-10,12,0
2800,-75,43,994,-12,11,0
2801,-80,25,1004,-17,0,-2
2802,-24,10,992,-18,-9,-6
2803,42,-8,993,-14,-10,-6
2804,84,8,1005,-9,-3,-6
2805,42,30,1001,-8,9,-2
2806,-11,45,992,-8,12,0
2807,-81,36,997,-13,8,-1
2808,-77,26,997,-18,-2,-3
2809,-10,3,990,-17,-11,-5
2810,49,2,1000,-15,-9,-7
2811,82,4,1002,-13,-2,-5
2812,36,32,995,-9,9,-3
2813,-26,39,996,-13,12,0
2814,-75,40,994,-15,8,-2
2815,-69,21,986,-20,-3,-5
2816,-2,3,1004,-19,-11,-7
2817,55,2,1003,-15,-8,-7
2818,77,14,991,-13,1,-6
2819,31,32,1009,-10,10,-2
2820,-38,39,983,-13,13,1
2821,-77,34,999,-19,4,-2
2822,-64,14,989,-19,-6,-5
2823,6,1,1008,-19,-11,-8
2824,70,1,996,-14,-7,-8
2825,71,10,1009,-11,3,-4
2826,19,34,988,-10,10,-2
2827,-55,37,987,-11,12,1
2828,-77,28,1002,-17,2,-3
2829,-57,8,993,-19,-6,-3
2830,22,0,1006,-14,-11,-6
2831,74,0,1002,-14,-6,-7
2832,62,21,990,-7,4,-3
2833,9,36,993,-7,11,-1
2834,-67,48,992,-13,10,0
2835,-74,34,999,-16,-1,-2
2836,-42,12,999,-19,-8,-5
2837,37,0,1010,-16,-11,-6
2838,76,-4,991,-13,-5,-6
2839,49,19,988,-10,6,-2
2840,-2,39,1003,-10,11,-1
2841,-70,51,995,-14,10,-1
2842,-73,32,994,-18,1,-4
2843,-30,8,1005,-20,-9,-5
2844,47,-6,991,-18,-11,-7
2845,72,0,1001,-11,-2,-5
2846,45,26,993,-10,6,-2
2847,-14,45,997,-12,11,-2
2848,-67,50,999,-16,6,-2
2849,-70,22,995,-22,-2,-3
2850,-13,-2,998,-21,-10,-6
2851,46,-7,993,-17,-9,-6
2852,75,12,1003,-13,-3,-6
2853,40,29,1002,-10,8,-3
2854,-19,41,992,-13,13,0
2855,-75,39,991,-16,7,-2
2856,-70,18,1000,-18,-2,-5
2857,1,4,990,-19,-10,-6
2858,50,-6,1004,-12,-7,-8
2859,81,17,1002,-12,1,-4
2860,22,33,997,-9,11,-2
2861,-29,45,998,-11,11,-2
2862,-78,36,990,-17,6,-1
2863,-54,14,995,-18,-5,-5
2864,7,-2,998,-17,-10,-7
2865,53,0,1005,-16,-6,-8
2866,70,14,995,-13,4,-4
2867,20,33,1001,-11,10,-3
2868,-46,45,987,-13,11,-1
2869,-74,36,998,-16,4,-2
2870,-54,15,993,-21,-6,-5
2871,18,0,1003,-16,-11,-7
2872,62,-1,999,-14,-5,-7
2873,65,14,1002,-11,3,-4
2874,12,30,990,-12,10,-2
2875,-60,44,991,-13,10,1
2876,-67,25,1001,-16,-1,-3
2877,-55,7,998,-18,-8,-5
2878,26,0,1003,-17,-10,-6
2879,71,5,1001,-12,-6,-6
2880,67,19,988,-11,4,-2
2881,5,38,996,-10,11,0
2882,-58,44,998,-13,10,-1
2883,-75,32,1000,-17,2,-3
2884,-47,10,998,-18,-7,-4
2885,34,-1,1003,-16,-12,-8
2886,79,3,997,-13,-6,-6
2887,57,23,986,-9,5,-4
2888,2,35,1009,-12,11,-2
2889,-75,39,989,-14,11,-1
2890,-73,30,1004,-15,1,-3
2891,-17,3,996,-17,-9,-7
2892,46,0,998,-16,-8,-7
2893,79,10,994,-12,-1,-6
2894,41,27,1001,-10,10,-4
2895,-25,32,992,-11,13,0
2896,-78,39,995,-12,8,-1
2897,-65,20,1001,-17,-2,-4
2898,-7,8,991,-18,-9,-7
2899,50,-4,1002,-14,-7,-6
2900,75,7,1001,-12,0,-5
2901,26,26,993,-10,11,-2
2902,-30,41,999,-11,12,-1
2903,-76,34,993,-14,8,0
2904,-61,26,994,-17,-3,-4
2905,5,5,1001,-18,-11,-7
2906,51,0,995,-15,-8,-6
2907,73,11,1000,-13,-1,-5
2908,19,29,998,-9,9,-2
2909,-44,38,997,-11,11,0
2910,-68,31,991,-15,4,-2
2911,-57,18,995,-18,-5,-3
2912,16,5,1002,-17,-11,-7
2913,54,1,1002,-13,-6,-7
2914,67,15,998,-10,1,-4
2915,12,34,993,-8,10,-2
2916,-46,39,991,-13,11,0
2917,-71,30,993,-15,3,-2
2918,-54,14,999,-18,-7,-4
2919,20,0,1002,-16,-11,-7
2920,66,4,1002,-13,-6,-8
2921,67,20,998,-11,3,-3
2922,13,44,992,-11,11,-2
2923,-59,39,988,-15,11,-1
2924,-71,32,1004,-19,1,-3
2925,-49,4,997,-19,-7,-6
2926,31,-2,1006,-17,-11,-7
2927,72,5,997,-12,-4,-6
2928,64,23,992,-10,5,-4
2929,2,37,997,-12,11,-2
2930,-62,41,995,-15,10,0
2931,-74,22,996,-19,1,-2
2932,-32,5,1001,-18,-8,-6
2933,38,-6,998,-16,-9,-7
2934,74,4,999,-13,-3,-5
2935,52,22,989,-9,6,-2
2936,-12,44,1007,-9,11,0
2937,-68,37,991,-15,9,1
2938,-73,32,1004,-17,0,-2
2939,-13,2,994,-19,-9,-6
2940,43,0,995,-16,-8,-7
2941,73,8,997,-12,-3,-5
2942,38,29,1002,-13,8,-2
2943,-20,41,996,-12,13,-2
2944,-79,33,992,-18,8,-1
2945,-66,14,1002,-21,-2,-4
2946,-6,0,991,-17,-10,-7
2947,53,-2,997,-13,-7,-8
2948,73,16,1006,-13,0,-6
2949,28,38,992,-10,10,-2
2950,-32,39,997,-13,11,-1
2951,-75,37,993,-16,6,-1
2952,-57,12,990,-18,-4,-6
2953,2,0,1003,-18,-10,-7
2954,51,5,999,-14,-7,-8
2955,72,11,998,-12,2,-4
2956,17,36,1003,-11,9,-1
2957,-39,37,985,-12,10,0
2958,-73,32,996,-14,4,-2
2959,-60,12,990,-18,-5,-4
2960,10,0,1002,-16,-12,-6
2961,58,2,999,-14,-8,-5
2962,74,17,1002,-10,1,-4
2963,19,32,991,-11,9,-2
2964,-49,50,985,-12,10,-1
2965,-70,32,1003,-17,2,-3
2966,-62,14,994,-19,-6,-4
2967,22,2,1003,-17,-11,-7
2968,72,-3,1004,-16,-7,-7
2969,70,23,992,-10,3,-4
2970,15,34,991,-10,11,-2
2971,-63,43,998,-14,12,0
2972,-78,33,994,-18,3,-2
2973,-49,10,1000,-20,-6,-6
2974,35,-2,1006,-19,-10,-8
2975,77,0,998,-15,-5,-7
2976,60,19,988,-8,6,-5
2977,-6,38,1004,-12,12,-1
2978,-67,46,996,-16,10,-1
2979,-77,29,997,-18,1,-3
2980,-20,11,1002,-21,-8,-6
2981,42,-6,998,-19,-8,-7
2982,79,2,992,-14,-2,-7
2983,34,23,999,-10,10,-3
2984,-14,39,995,-12,11,-1
2985,-77,39,1000,-14,9,-1
2986,-66,30,1001,-15,-3,-4
2987,-12,-2,993,-20,-9,-6
2988,55,0,999,-15,-8,-8
2989,70,2,999,-12,0,-5
2990,28,31,1000,-9,10,-3
2991,-29,36,994,-10,11,-1
2992,-76,41,992,-14,6,-2
2993,-60,20,997,-20,-5,-4
2994,3,8,996,-19,-10,-6
2995,53,-2,1000,-17,-7,-6
2996,69,13,999,-14,1,-4
2997,20,27,998,-9,10,-2
2998,-31,37,998,-11,9,-1
2999,-79,37,991,-15,3,-1
3000,-47,21,989,-18,-6,-4
3001,12,2,1012,-16,-10,-7
3002,56,-2,989,-15,-6,-7
3003,70,9,1011,-12,2,-4
3004,19,26,995,-10,9,-2
3005,-52,43,986,-12,11,0
3006,-62,33,1003,-15,4,-2
3007,-59,19,992,-18,-5,-4
3008,26,2,1001,-17,-11,-7
3009,63,-4,1006,-14,-6,-6
3010,62,13,998,-9,4,-3
3011,15,36,990,-9,10,-1
3012,-57,49,995,-11,11,0
3013,-69,31,998,-17,1,-2
3014,-55,7,996,-17,-6,-4
3015,27,2,1006,-17,-11,-6
3016,71,-3,998,-14,-5,-6
3017,62,22,991,-10,4,-3
3018,6,43,994,-8,12,-1
3019,-59,43,1001,-15,10,-1
3020,-80,24,988,-17,2,0
3021,-37,10,1007,-19,-8,-5
3022,36,-6,1001,-18,-10,-7
3023,72,6,991,-13,-5,-6
3024,55,19,994,-10,6,-4
3025,-12,45,1005,-11,11,0
3026,-64,40,987,-14,9,0
3027,-70,27,1010,-18,2,-3
3028,-16,3,991,-21,-9,-6
3029,39,2,992,-17,-7,-6
3030,68,4,1005,-13,-1,-7
3031,38,25,992,-11,9,-2
3032,-14,33,1001,-14,12,-1
3033,-73,45,997,-15,8,-1
3034,-68,19,999,-21,-2,-4
3035,-5,5,998,-18,-8,-6
3036,41,-5,995,-17,-7,-6
3037,78,6,1004,-14,-1,-6
3038,26,25,999,-12,8,-2
3039,-31,41,995,-10,12,-1
3040,-75,36,997,-12,6,-2
3041,-56,14,988,-21,-3,-3
3042,2,7,1003,-13,-11,-6
3043,56,-5,1001,-15,-9,-6
3044,69,12,993,-12,1,-5
3045,22,30,1001,-6,10,-1
3046,-39,38,994,-13,9,1
3047,-73,36,988,-12,4,-2
3048,-57,20,996,-17,-4,-4
3049,14,3,1003,-19,-10,-7
3050,50,0,1002,-15,-7,-5
3051,74,17,999,-11,1,-4
3052,18,30,997,-11,9,-2
3053,-48,39,987,-12,11,1
3054,-73,40,997,-17,3,-2
3055,-52,12,1000,-18,-6,-6
3056,25,3,1000,-17,-11,-6
3057,64,-5,1003,-15,-4,-5
3058,60,18,996,-12,4,-3
3059,10,35,990,-9,11,-2
3060,-60,47,996,-12,10,0
3061,-64,28,997,-18,0,-2
3062,-44,6,1002,-20,-5,-6
3063,35,-1,1005,-17,-10,-8
3064,69,0,996,-12,-4,-7
3065,57,24,989,-10,5,-4
3066,-3,39,1001,-9,11,-1
3067,-70,40,993,-14,9,-1
3068,-70,28,997,-19,1,-4
3069,-25,14,1005,-17,-7,-6
3070,39,-5,992,-20,-7,-8
3071,72,7,1001,-13,-3,-7
3072,46,22,991,-13,7,-3
3073,-17,38,1003,-12,12,-2
3074,-69,35,989,-15,9,-2
3075,-73,22,1003,-18,0,-3
3076,-9,8,990,-19,-9,-6
3077,47,0,1000,-17,-7,-8
3078,75,12,997,-13,-1,-6
3079,34,25,1000,-11,9,-3
3080,-23,34,997,-13,11,0
3081,-74,25,990,-16,6,0
3082,-55,25,997,-16,-4,-5
3083,2,5,1000,-18,-9,-7
3084,49,4,994,-15,-7,-8
3085,71,8,1003,-13,1,-5
3086,22,22,998,-11,9,-1
3087,-37,38,996,-11,12,0
3088,-71,43,995,-14,5,-2
3089,-52,21,992,-19,-5,-4
3090,6,2,999,-16,-10,-7
3091,54,-1,1002,-15,-7,-6
3092,64,7,1001,-12,2,-3
3093,18,25,996,-8,10,-3
3094,-47,39,995,-12,10,-1
3095,-64,36,994,-14,3,-3
3096,-51,12,991,-17,-6,-6
3097,19,9,1005,-16,-11,-6
3098,61,0,999,-12,-6,-8
3099,60,19,1006,-8,3,-3
3100,10,28,986,-9,8,0
3101,-52,42,991,-11,10,-2
3102,-68,35,1001,-15,1,-3
3103,-49,18,995,-18,-6,-6
3104,26,0,1004,-17,-9,-7
3105,67,3,1001,-14,-5,-6
3106,55,11,987,-10,5,-3
3107,6,43,996,-9,10,-1
3108,-65,43,993,-18,9,1
3109,-69,33,998,-20,1,-2
3110,-35,3,1004,-20,-7,-5
3111,42,-1,1005,-17,-10,-7
3112,73,1,991,-13,-3,-7
3113,56,21,994,-9,7,-3
3114,-9,33,1002,-10,12,0
3115,-72,46,993,-13,10,-1
3116,-68,28,1002,-18,1,-3
3117,-18,12,996,-20,-9,-6
3118,42,-4,995,-18,-8,-7
3119,77,4,1000,-12,-1,-6
3120,37,23,994,-11,10,-1
3121,-14,42,999,-13,13,-2
3122,-81,35,998,-17,8,-1
3123,-62,22,993,-18,-1,-4
3124,-7,1,1002,-19,-9,-7
3125,50,3,989,-15,-8,-7
3126,75,4,1005,-13,0,-4
3127,31,26,997,-12,10,-2
3128,-35,37,996,-11,13,1
3129,-70,34,992,-14,5,-2
3130,-60,20,996,-18,-3,-4
3131,5,5,995,-15,-10,-6
3132,54,-6,1000,-16,-5,-8
3133,70,13,1001,-11,2,-5
3134,17,24,995,-9,10,-1
3135,-40,42,996,-11,12,-2
3136,-70,32,996,-15,5,-2
3137,-56,21,986,-18,-4,-5
3138,15,0,1010,-17,-10,-7
3139,62,-3,995,-12,-5,-7
3140,67,18,1005,-12,3,-3
3141,16,29,993,-9,9,-2
3142,-56,45,992,-11,11,0
3143,-64,32,995,-15,3,-2
3144,-48,19,998,-17,-4,-4
3145,26,0,1000,-17,-11,-6
3146,55,5,1003,-14,-5,-7
3147,55,8,999,-11,3,-4
3148,4,41,991,-8,9,-2
3149,-54,39,991,-13,9,-1
3150,-66,35,1001,-17,-1,-2
3151,-40,13,992,-19,-8,-6
3152,30,7,1015,-15,-10,-6
3153,72,0,991,-17,-5,-5
3154,54,21,994,-10,5,-2
3155,-1,27,994,-14,10,-1
3156,-72,43,995,-16,9,-1
3157,-60,27,999,-17,0,-4
3158,-35,11,997,-19,-7,-5
3159,44,3,1002,-16,-10,-7
3160,75,5,1001,-13,-1,-5
3161,44,27,989,-11,8,-2
3162,-9,32,1007,-13,12,-1
3163,-77,37,994,-14,9,-1
3164,-77,27,996,-17,0,-3
3165,-10,10,1000,-18,-9,-6
3166,46,-6,996,-18,-8,-6
3167,77,12,999,-11,-2,-5
3168,33,20,1000,-12,9,-2
3169,-23,43,994,-11,12,-1
3170,-75,27,996,-16,7,-1
3171,-65,28,997,-15,-3,-4
3172,-7,3,993,-17,-10,-6
3173,53,6,999,-14,-8,-7
3174,76,7,999,-13,0,-4
3175,29,27,1001,-11,11,-2
3176,-30,32,992,-12,12,0
3177,-81,35,992,-14,7,-2
3178,-56,16,994,-17,-4,-5
3179,5,9,1003,-16,-10,-7
3180,61,-3,998,-16,-8,-7
3181,66,20,1004,-11,1,-3
3182,21,25,994,-10,10,-2
3183,-46,38,993,-12,10,-1
3184,-70,37,990,-14,3,-2
3185,-57,19,996,-19,-6,-5
3186,21,9,1001,-20,-11,-6
3187,56,-1,1003,-16,-5,-7
3188,67,18,1001,-12,1,-4
3189,12,29,994,-8,10,-2
3190,-51,43,987,-13,9,0
3191,-72,29,1000,-16,2,-2
3192,-47,11,995,-17,-7,-6
3193,24,3,1004,-19,-10,-6
3194,76,9,1006,-13,-5,-6
3195,57,11,990,-13,6,-3
3196,7,38,994,-11,11,-2
3197,-64,30,994,-15,10,1
3198,-77,29,996,-14,1,-2
3199,-35,6,1002,-17,-7,-6
3200,36,5,1009,-14,-8,-7
3201,76,10,990,-12,-4,-7
3202,52,25,995,-11,7,-3
3203,-3,38,996,-13,11,-1
3204,-74,35,998,-17,9,0
3205,-67,21,996,-16,-1,-2
3206,-21,4,997,-17,-9,-7
3207,41,1,998,-15,-10,-7
3208,80,15,996,-13,-4,-5
3209,38,24,995,-13,8,-2
3210,-13,36,999,-13,11,-1
3211,-76,37,996,-18,8,-2
3212,-70,15,998,-20,-1,-4
3213,-10,1,994,-15,-9,-6
3214,50,2,995,-14,-8,-7
3215,78,8,1002,-10,0,-5
3216,33,30,999,-10,9,-3
3217,-27,37,998,-13,13,0
3218,-80,33,992,-14,7,-2
3219,-61,21,997,-17,-3,-5
3220,-2,4,993,-17,-10,-6
3221,56,1,1004,-14,-7,-7
3222,79,14,997,-13,1,-5
3223,22,34,1000,-9,11,-2
3224,-37,44,998,-12,11,1
3225,-78,32,989,-15,4,-1
3226,-56,18,993,-20,-5,-5
3227,5,0,1006,-18,-10,-7
3228,63,3,995,-15,-7,-7
3229,65,10,1001,-12,3,-3
3230,29,32,1000,-11,8,-2
3231,-54,30,984,-13,11,0
3232,-70,32,999,-15,1,-3
3233,-59,18,993,-16,-8,-5
3234,24,6,1002,-19,-13,-8
3235,62,0,1004,-14,-6,-6
3236,67,22,1002,-12,2,-3
3237,16,29,988,-13,9,-1
3238,-61,41,993,-14,11,0
3239,-67,29,998,-19,0,-2
3240,-56,18,1000,-18,-6,-5
3241,30,6,1000,-19,-12,-7
3242,72,0,1003,-16,-6,-7
3243,63,20,988,-12,4,-2
3244,6,32,995,-12,11,-2
3245,-63,36,998,-15,11,-2
3246,-74,25,993,-17,1,-3
3247,-36,9,1004,-17,-7,-7
3248,37,4,1004,-16,-9,-7
3249,83,5,993,-14,-4,-7
3250,45,15,988,-11,7,-2
3251,-2,37,1010,-11,13,-1
3252,-73,34,991,-15,10,-1
3253,-77,24,998,-14,1,-3
3254,-22,6,1001,-18,-9,-7
3255,51,5,992,-17,-9,-7
3256,80,6,1000,-11,-1,-5
3257,41,19,993,-10,10,-2
3258,-20,30,998,-11,15,1
3259,-80,40,994,-13,9,-1
3260,-69,24,1002,-17,-3,-4
3261,-6,13,993,-17,-9,-6
3262,48,-3,995,-18,-8,-9
3263,74,10,1010,-13,0,-6
3264,27,17,993,-10,10,-3
3265,-28,36,998,-11,12,-2
3266,-73,34,998,-12,6,-2
3267,-62,26,991,-16,-3,-5
3268,-2,11,1003,-17,-11,-6
3269,52,4,1000,-14,-8,-6
3270,74,14,998,-14,1,-4
3271,26,25,1000,-10,10,-2
3272,-37,38,998,-13,11,0
3273,-75,32,992,-18,4,-1
3274,-63,28,993,-18,-4,-4
3275,10,2,1002,-20,-12,-7
3276,66,3,999,-17,-8,-7
3277,78,5,1002,-12,1,-3
3278,19,26,992,-11,11,-1
3279,-49,40,988,-11,13,-2
3280,-77,30,999,-15,4,-2
3281,-66,24,992,-19,-5,-5
3282,25,1,1007,-18,-11,-8
3283,71,1,1001,-17,-7,-7
3284,71,11,993,-11,4,-5
3285,19,34,1000,-8,13,-3
3286,-62,42,984,-14,13,1
3287,-83,23,1002,-16,5,-2
3288,-49,14,997,-19,-7,-6
3289,22,2,1006,-17,-10,-7
3290,83,2,996,-13,-7,-8
3291,67,8,991,-12,6,-4
3292,8,37,996,-8,13,-2
3293,-80,42,996,-13,11,-1
3294,-78,38,995,-15,0,-3
3295,-43,4,1002,-16,-8,-4
3296,42,5,998,-14,-10,-7
3297,90,-1,998,-12,-4,-6
3298,56,24,990,-9,8,-3
3299,-7,28,1000,-11,12,0
3300,-85,46,998,-12,10,-1
3301,-81,23,994,-17,-2,-3
3302,-22,12,998,-17,-11,-7
3303,52,-2,996,-18,-11,-6
3304,86,9,997,-13,-3,-6
3305,46,18,1003,-11,9,-3
3306,-21,43,995,-10,13,1
3307,-81,32,992,-16,8,-1
3308,-78,27,998,-17,-3,-3
3309,-7,7,991,-17,-11,-6
3310,54,3,1000,-15,-10,-8
3311,86,10,1004,-13,-2,-6
3312,31,25,998,-11,9,-2
3313,-23,36,998,-11,13,-1
3314,-87,27,991,-15,8,-1
3315,-67,23,989,-16,-2,-4
3316,1,13,1003,-15,-10,-6
3317,64,9,1002,-15,-9,-7
3318,83,13,996,-14,0,-4
3319,27,28,1003,-12,10,-1
3320,-38,27,989,-14,12,-1
3321,-85,23,993,-13,5,-3
3322,-65,17,989,-15,-6,-6
3323,15,15,1012,-15,-12,-9
3324,70,11,993,-11,-8,-8
3325,79,23,1009,-12,3,-5
3326,19,26,993,-13,12,-2
3327,-59,36,988,-14,13,-1
3328,-80,19,999,-18,3,-3
3329,-56,11,996,-18,-6,-6
3330,23,5,1002,-16,-12,-9
3331,74,11,1003,-13,-6,-7
3332,68,11,993,-13,4,-4
3333,11,33,997,-11,12,-2
3334,-67,36,991,-14,11,1
3335,-77,31,1001,-18,1,-4
3336,-47,13,1002,-17,-7,-6
3337,37,3,1005,-17,-11,-7
3338,77,0,1000,-16,-5,-6
3339,60,14,985,-11,5,-3
3340,-7,25,1003,-10,13,-1
3341,-76,38,994,-12,9,-1
3342,-69,31,1002,-15,1,-3
3343,-30,7,996,-16,-9,-7
3344,43,9,1000,-15,-10,-7
3345,83,-2,997,-12,-2,-7
3346,42,24,994,-9,9,-2
3347,-14,39,995,-11,12,-1
3348,-80,43,1006,-12,9,-2
3349,-69,31,988,-16,-2,-4
3350,-20,10,1002,-19,-9,-6
3351,53,-4,995,-16,-10,-7
3352,79,2,998,-15,-1,-6
3353,36,18,997,-11,9,-2
3354,-22,42,1002,-11,12,1
3355,-80,35,991,-15,7,-1
3356,-68,28,993,-16,-3,-4
3357,0,6,1001,-18,-11,-8
3358,52,-2,994,-17,-8,-8
3359,79,7,997,-12,0,-6
3360,37,28,1008,-10,10,-4
3361,-36,33,992,-12,12,1
3362,-79,41,990,-12,4,-2
3363,-68,19,996,-20,-4,-6
3364,3,11,1005,-18,-12,-6
3365,68,1,996,-16,-9,-7
3366,76,18,1009,-13,2,-5
3367,23,21,990,-14,11,-1
3368,-48,33,995,-12,12,1
3369,-75,34,993,-17,3,-2
3370,-62,21,995,-20,-5,-6
3371,21,7,1004,-17,-12,-7
3372,63,1,1002,-12,-6,-8
3373,74,10,999,-11,-2,-8
3374,12,26,997,-1,13,-3
3375,-56,38,981,-19,11,0
3376,-78,33,1006,-11,3,-2
3377,-53,19,994,-19,-5,-5
3378,27,0,1003,-22,-10,-8
3379,76,4,1001,-11,-5,-7
3380,65,9,985,-16,3,-3
3381,7,33,998,-10,11,-1
3382,-73,45,995,-11,12,1
3383,-80,33,993,-19,1,-2
3384,-43,9,1001,-18,-9,-7
3385,36,0,1007,-18,-13,-8
3386,84,0,985,-15,-6,-7
3387,57,18,1000,-8,7,-3
3388,-5,35,998,-12,11,0
3389,-81,42,995,-14,9,0
3390,-74,30,1001,-17,0,-3
3391,-31,3,999,-21,-10,-6
3392,50,6,994,-16,-10,-7
3393,77,0,1001,-13,-4,-6
3394,46,28,996,-10,7,-3
3395,-15,30,996,-13,13,0
3396,-82,44,1002,-12,8,-2
3397,-68,17,991,-17,-4,-3
3398,-15,12,1002,-16,-11,-5
3399,53,-4,990,-18,-10,-7
3400,82,9,1007,-10,0,-6
3401,37,25,995,-12,9,-2
3402,-29,41,999,-12,12,1
3403,-77,27,991,-14,6,-1
3404,-72,21,990,-17,-4,-3
3405,3,1,1002,-17,-12,-6
3406,57,-7,997,-14,-8,-8
3407,77,17,998,-11,2,-6
3408,28,31,1001,-8,12,-2
3409,-36,43,993,-12,12,1
3410,-82,35,996,-14,6,-1
3411,-61,19,986,-19,-6,-4
3412,10,-1,1011,-18,-11,-7
3413,59,0,991,-15,-7,-6
3414,72,13,1007,-10,2,-4
3415,27,38,996,-11,10,-3
3416,-58,39,989,-13,13,0
3417,-74,35,993,-16,4,-3
3418,-64,10,1004,-21,-6,-5
3419,19,5,994,-18,-12,-7
3420,64,-1,1007,-15,-8,-8
3421,80,23,998,-11,3,-4
3422,7,25,991,-9,12,0
3423,-56,48,989,-11,12,0
3424,-77,21,1006,-18,2,-2
3425,-53,19,992,-18,-7,-6
3426,29,-2,1008,-18,-10,-8
3427,78,5,1000,-13,-6,-7
3428,67,11,979,-12,5,-3
3429,1,32,1002,-12,13,-1
3430,-71,37,998,-12,10,-1
3431,-81,38,993,-17,1,-3
3432,-31,14,1005,-19,-8,-5
3433,36,0,996,-19,-9,-8
3434,82,0,996,-14,-5,-6
3435,51,17,994,-11,8,-4
3436,-7,40,1002,-10,13,-1
3437,-79,36,993,-14,11,0
3438,-72,30,1003,-15,-2,-4
3439,-22,0,992,-20,-9,-6
3440,50,4,990,-14,-10,-9
3441,85,2,1006,-13,-1,-6
3442,36,30,996,-10,9,-2
3443,-20,36,994,-12,12,0
3444,-81,36,1000,-15,8,-1
3445,-74,18,991,-18,-3,-2
3446,-6,6,994,-17,-11,-7
3447,52,-4,1004,-15,-9,-7
3448,76,15,997,-10,0,-5
3449,38,35,1004,-10,9,-1
3450,-34,32,996,-12,13,1
3451,-79,40,991,-14,6,-1
3452,-65,14,993,-18,-4,-4
3453,0,6,1002,-18,-11,-8
3454,61,2,998,-13,-8,-7
3455,82,20,1003,-13,1,-4
3456,17,28,994,-13,10,0
3457,-39,42,994,-12,10,0
3458,-77,27,991,-17,5,-1
3459,-65,21,993,-17,-6,-3
3460,16,5,1003,-18,-13,-7
3461,68,-1,1009,-15,-8,-8
3462,69,19,996,-9,3,-3
3463,28,31,994,-10,10,-2
3464,-57,44,991,-12,13,0
3465,-78,30,999,-18,3,-1
3466,-61,12,997,-19,-6,-5
3467,19,-1,1004,-18,-12,-7
3468,78,-3,999,-14,-7,-8
3469,74,11,994,-8,6,-3
3470,11,39,995,-9,12,-2
3471,-61,42,996,-12,11,1
3472,-89,29,996,-18,4,-1
3473,-40,6,1002,-19,-7,-6
3474,30,0,1007,-15,-8,-7
3475,81,0,993,-12,-5,-6
3476,63,20,989,-9,8,-3
3477,-2,41,1009,-9,13,1
3478,-77,43,989,-11,10,0
3479,-89,29,1004,-15,1,-3
3480,-29,5,994,-17,-9,-5
3481,44,-1,994,-18,-10,-8
3482,82,3,999,-14,-4,-6
3483,51,18,995,-10,8,-2
3484,-14,43,995,-11,13,0
3485,-82,37,996,-13,9,0
3486,-78,29,998,-19,-3,-5
3487,-13,3,993,-18,-11,-6
3488,51,0,993,-16,-10,-7
3489,83,2,1004,-11,-2,-6
3490,41,26,997,-8,9,-3
3491,-30,40,997,-10,12,-1
3492,-79,39,992,-15,7,-3
3493,-70,24,995,-18,-4,-4
3494,-4,8,996,-16,-11,-7
3495,54,-1,1001,-16,-8,-8
3496,83,5,1000,-13,-1,-6
3497,27,26,997,-10,10,-2
3498,-39,39,995,-10,13,0
3499,-81,43,995,-14,5,-2
3500,-63,26,991,-19,-5,-4
3501,10,2,1005,-22,-12,-8
3502,59,-7,1001,-15,-8,-8
3503,79,14,1001,-11,2,-5
3504,27,23,995,-9,10,-2
3505,-45,42,992,-11,12,0
3506,-81,38,996,-15,3,-2
3507,-58,16,996,-17,-7,-7
3508,15,7,1005,-19,-11,-8
3509,70,1,1000,-17,-7,-6
3510,70,6,995,-12,4,-3
3511,19,32,996,-9,11,-3
3512,-61,39,989,-13,13,1
3513,-74,33,995,-18,3,-2
3514,-52,13,1003,-19,-6,-6
3515,25,11,1002,-16,-11,-8
3516,79,-2,1000,-16,-5,-7
3517,65,18,989,-11,5,-2
3518,6,24,997,-12,13,0
3519,-75,42,995,-12,11,0
3520,-74,28,996,-16,0,-3
3521,-41,14,1003,-16,-8,-6
3522,37,0,998,-16,-10,-8
3523,82,2,998,-12,-3,-6
3524,55,19,992,-10,8,-3
3525,-10,39,1002,-8,13,-1
3526,-78,43,999,-13,10,-2
3527,-79,31,997,-16,0,-4
3528,-18,1,997,-18,-10,-7
3529,47,0,997,-17,-11,-8
3530,89,-5,997,-13,-4,-7
3531,41,24,1002,-9,9,-5
3532,-25,42,994,-11,12,1
3533,-78,47,996,-14,8,-1
3534,-78,27,999,-19,-2,-2
3535,-4,4,989,-18,-12,-7
3536,59,0,1002,-16,-9,-8
3537,78,9,1001,-12,-2,-4
3538,37,27,994,-11,10,-1
3539,-36,41,1003,-12,12,0
3540,-82,38,988,-15,5,-3
3541,-65,21,992,-20,-4,-4
3542,-1,3,998,-23,-12,-7
3543,59,-3,998,-17,-9,-7
3544,83,13,1000,-14,1,-5
3545,27,26,996,-11,11,-2
3546,-39,41,992,-11,12,-1
3547,-80,32,997,-16,5,-3
3548,-65,27,990,-19,-4,-5
3549,10,1,1006,-21,-11,-7
3550,66,2,999,-14,-7,-9
3551,77,10,1006,-13,3,-3
3552,25,26,988,-11,9,-1
3553,-52,34,995,-12,12,0
3554,-82,34,995,-16,4,-1
3555,-57,18,999,-18,-6,-6
3556,18,3,1005,-17,-12,-8
3557,72,-4,1002,-15,-8,-7
3558,77,11,994,-8,5,-4
3559,12,25,994,-9,12,-1
3560,-65,47,992,-11,12,0
3561,-81,35,1003,-16,2,-4
3562,-52,18,995,-16,-7,-6
3563,34,-1,1008,-17,-12,-7
3564,84,0,994,-14,-6,-6
3565,57,16,983,-10,7,-2
3566,1,31,1010,-10,12,-2
3567,-78,37,992,-12,9,0
3568,-78,34,998,-13,0,-4
3569,-34,12,1000,-18,-10,-7
3570,39,8,997,-17,-10,-7
3571,90,0,995,-13,-4,-6
3572,49,13,1000,-10,7,-2
3573,-7,34,998,-11,12,0
3574,-84,41,1000,-10,11,0
3575,-77,28,994,-17,-2,-4
3576,-22,11,999,-19,-11,-7
3577,53,8,997,-16,-11,-7
3578,83,1,997,-13,-2,-5
3579,46,23,1000,-11,9,-3
3580,-26,27,996,-12,12,1
3581,-78,38,995,-12,8,-3
3582,-80,18,996,-17,-3,-4
3583,-1,16,994,-16,-12,-7
3584,58,-5,1002,-17,-9,-8
3585,85,13,997,-10,-1,-5
3586,36,20,998,-10,11,-2
3587,-25,36,1000,-9,13,0
3588,-89,30,991,-13,7,-1
3589,-76,27,987,-15,-4,-4
3590,6,7,1010,-18,-12,-7
3591,59,6,992,-16,-9,-6
3592,83,20,1005,-11,1,-3
3593,36,22,1004,-12,10,-2
3594,-53,34,983,-11,12,1
3595,-81,32,995,-14,4,-2
3596,-75,19,1002,-19,-5,-5
3597,22,12,992,-19,-15,-9
3598,70,0,1011,-15,-6,-9
3599,81,19,1001,-12,3,-2
3600,19,23,987,-11,10,-1
3601,-62,42,990,-13,12,0
3602,-85,25,1003,-17,3,-2
3603,-57,16,991,-18,-7,-6
3604,29,5,1013,-18,-13,-7
3605,79,3,993,-13,-7,-8
3606,75,16,991,-11,5,-4
3607,7,34,993,-10,13,-1
3608,-77,42,995,-14,13,0
3609,-78,35,996,-17,1,-4
3610,-49,5,1002,-20,-8,-7
3611,35,-4,999,-18,-11,-7
3612,82,0,998,-14,-4,-6
3613,68,24,987,-10,5,-3
3614,-4,34,1010,-10,14,1
3615,-73,39,989,-13,11,-1
3616,-84,26,1006,-20,0,-3
3617,-26,8,991,-18,-10,-7
3618,40,-2,998,-15,-10,-8
3619,90,5,994,-11,-4,-6
3620,47,27,1004,-9,8,-2
3621,-11,42,997,-10,13,0
3622,-83,32,995,-14,9,0
3623,-78,24,996,-16,0,-4
3624,-19,0,995,-17,-10,-6
3625,53,10,1000,-14,-12,-8
3626,82,7,1000,-12,-3,-6
3627,47,30,1003,-9,9,-3
3628,-25,28,996,-12,13,0
3629,-81,42,993,-13,7,-2
3630,-76,18,993,-17,-4,-4
3631,-7,16,998,-14,-13,-7
3632,63,-3,998,-19,-11,-8
3633,81,15,1002,-12,0,-4
3634,36,29,997,-12,10,-1
3635,-40,33,996,-13,14,0
3636,-85,36,993,-15,4,-1
3637,-69,17,990,-18,-6,-6
3638,3,5,1005,-19,-13,-7
3639,71,-3,997,-15,-10,-7
3640,79,12,1006,-9,2,-5
3641,31,27,994,-10,11,-2
3642,-53,39,986,-13,12,0
3643,-82,36,1001,-14,4,-2
3644,-66,17,995,-19,-6,-5
3645,16,3,1000,-16,-12,-6
3646,79,0,1001,-14,-6,-7
3647,74,17,998,-9,4,-4
3648,22,33,989,-12,12,-2
3649,-65,40,992,-13,13,-1
3650,-87,28,998,-16,2,-3
3651,-50,6,996,-18,-7,-5
3652,25,9,1011,-14,-10,-7
3653,84,1,994,-13,-7,-8
3654,74,12,988,-10,6,-4
3655,2,37,1000,-9,13,0
3656,-73,40,995,-15,12,0
3657,-86,39,996,-13,1,-3
3658,-40,15,997,-20,-10,-6
3659,42,5,1003,-17,-10,-8
3660,90,1,992,-13,-5,-5
3661,56,19,995,-10,8,-2
3662,-5,29,1004,-12,12,-1
3663,-78,38,993,-13,10,-1
3664,-86,28,997,-18,-1,-3
3665,-30,9,996,-17,-12,-5
3666,54,2,995,-17,-11,-7
3667,89,7,1003,-16,-4,-4
3668,54,25,996,-10,9,-2
3669,-23,29,998,-12,15,0
3670,-81,35,993,-14,9,-1
3671,-88,17,993,-17,-3,-3
3672,-11,12,998,-16,-12,-7
3673,57,-8,997,-16,-10,-7
3674,84,20,1001,-11,-1,-5
3675,43,26,1003,-10,11,-1
3676,-34,44,998,-11,13,0
3677,-85,37,990,-17,6,-2
3678,-73,18,993,-18,-4,-4
3679,-2,9,1002,-17,-13,-6
3680,59,-6,994,-15,-11,-7
3681,83,10,1002,-11,1,-5
3682,37,25,999,-10,11,-1
3683,-44,41,993,-11,13,0
3684,-79,30,992,-16,5,-2
3685,-76,14,994,-16,-5,-4
3686,9,9,1001,-17,-14,-6
3687,69,2,1001,-14,-9,-7
3688,88,11,1007,-12,2,-4
3689,26,25,988,-11,12,0
3690,-45,38,989,-11,13,-2
3691,-90,32,1002,-15,5,-2
3692,-72,23,996,-20,-6,-5
3693,27,5,1001,-19,-13,-7
3694,81,7,1009,-16,-7,-6
3695,77,10,989,-13,5,-3
3696,11,20,994,-9,13,-2
3697,-73,34,993,-11,13,1
3698,-87,29,999,-15,1,-2
3699,-48,19,995,-17,-9,-5
3700,42,14,1011,-17,-12,-8
3701,94,3,993,-14,-6,-5
3702,67,13,990,-12,8,-2
3703,-7,22,1000,-14,14,-1
3704,-82,34,994,-11,13,0
3705,-88,36,999,-17,0,-3
3706,-35,13,995,-17,-11,-5
3707,53,5,1000,-15,-11,-7
3708,87,0,991,-13,-3,-6
3709,54,18,999,-9,10,-2
3710,-11,36,999,-10,14,0
3711,-86,41,996,-9,13,0
3712,-82,35,996,2,4,-3
3713,-20,8,997,-14,-10,-6
3714,53,0,994,-12,-9,-8
3715,85,-2,1002,-20,-2,-6
3716,47,23,1000,-4,9,-3
3717,-28,36,993,-11,13,0
3718,-81,45,999,-14,8,-1
3719,-77,26,989,-18,-2,-3
3720,-9,8,997,-22,-13,-7
3721,56,-3,1000,-14,-11,-8
3722,84,14,999,-15,-1,-5
3723,45,20,997,-14,11,-2
3724,-36,40,1001,-10,14,1
3725,-79,34,987,-17,7,-1
3726,-79,16,992,-17,-2,-4
3727,5,8,1003,-17,-12,-7
3728,61,-2,1002,-16,-9,-7
3729,91,15,1000,-11,0,-5
3730,33,17,997,-11,12,-2
3731,-46,43,988,-9,14,0
3732,-83,36,997,-14,6,-3
3733,-76,22,995,-18,-4,-6
3734,13,8,996,-19,-14,-8
3735,74,-2,1008,-15,-7,-7
3736,88,12,995,-14,2,-4
3737,27,26,996,-10,12,-1
3738,-63,46,990,-13,13,0
3739,-90,32,1001,-19,3,-2
3740,-64,14,993,-19,-7,-6
3741,19,2,1009,-21,-13,-6
3742,88,2,1001,-16,-10,-7
3743,81,8,985,-11,4,-3
3744,13,33,1000,-11,14,-1
3745,-75,40,995,-14,13,-1
3746,-88,33,998,-17,2,-2
3747,-52,11,1000,-19,-9,-4
3748,33,1,999,-17,-14,-7
3749,94,-4,997,-15,-6,-6
3750,65,19,989,-12,6,-2
3751,3,35,1006,-9,12,-1
3752,-83,36,994,-13,12,0
3753,-87,28,995,-16,1,-2
3754,-30,9,996,-18,-11,-8
3755,46,4,998,-15,-11,-7
3756,88,5,995,-11,-3,-6
3757,53,22,1003,-11,9,-3
3758,-12,34,996,-10,13,-1
3759,-84,45,992,-10,10,0
3760,-82,27,1002,-18,-2,-5
3761,-12,11,992,-15,-11,-7
3762,49,-10,994,-18,-10,-7
3763,87,19,1008,-11,-2,-6
3764,47,23,997,-12,10,-1
3765,-24,39,998,-12,15,1
3766,-84,29,992,-15,8,-1
3767,-80,18,992,-17,-2,-4
3768,-8,3,993,-14,-12,-6
3769,62,2,1002,-13,-11,-8
3770,88,11,1000,-12,0,-5
3771,36,33,1000,-9,12,-2
3772,-35,30,994,-13,16,1
3773,-86,35,995,-14,6,0
3774,-70,15,985,-15,-3,-5
3775,1,8,1010,-14,-13,-7
3776,68,10,996,-13,-9,-7
3777,82,12,1006,-11,3,-5
3778,28,30,995,-10,11,-1
3779,-56,30,988,-10,13,1
3780,-83,35,1000,-15,5,0
3781,-66,15,993,-18,-5,-3
3782,23,9,1003,-17,-12,-7
3783,75,-2,1005,-14,-8,-6
3784,77,22,991,-9,3,-3
3785,16,23,994,-10,13,1
3786,-67,43,992,-13,13,2
3787,-83,31,998,-15,3,-3
3788,-54,9,995,-19,-7,-5
3789,32,4,1008,-16,-11,-7
3790,82,0,995,-12,-6,-7
3791,71,18,989,-12,5,-3
3792,8,29,1000,-10,13,-2
3793,-81,42,999,-12,14,0
3794,-80,32,995,-16,1,-3
3795,-41,12,1000,-17,-8,-6
3796,37,3,996,-18,-11,-7
3797,87,4,997,-13,-4,-7
3798,60,23,997,-12,8,-2
3799,-12,39,1000,-12,13,2
3800,-74,37,996,-13,11,-1
3801,-81,22,999,-19,1,-3
3802,-26,8,994,-18,-10,-5
3803,49,-3,993,-17,-10,-8
3804,81,12,1006,-12,-2,-5
3805,55,23,992,-11,10,-2
3806,-23,38,1003,-10,14,-1
3807,-78,41,992,-15,8,-1
3808,-80,17,994,-18,-1,-3
3809,-20,9,993,-17,-10,-6
3810,51,-2,998,-16,-11,-8
3811,91,15,1004,-13,-2,-7
3812,45,19,995,-11,12,-2
3813,-31,42,1002,-9,15,1
3814,-84,36,989,-15,8,-1
3815,-79,19,993,-14,-2,-5
3816,-5,5,1002,-19,-12,-7
3817,60,-4,996,-14,-10,-9
3818,94,12,1004,-10,0,-6
3819,38,27,996,-9,11,0
3820,-41,43,995,-11,15,1
3821,-83,33,994,-14,7,-1
3822,-82,19,993,-17,-3,-3
3823,10,7,999,-16,-12,-8
3824,67,3,1009,-14,-7,-8
3825,90,15,1000,-13,1,-4
3826,28,26,993,-9,11,-1
3827,-58,37,988,-12,15,1
3828,-87,29,998,-16,5,-2
3829,-66,21,999,-18,-6,-4
3830,17,11,1001,-20,-12,-6
3831,83,0,1005,-15,-9,-6
3832,73,10,992,-11,5,-3
3833,10,29,993,-10,13,-2
3834,-63,38,999,-12,12,0
3835,-83,38,993,-15,1,-2
3836,-48,12,997,-20,-8,-6
3837,27,6,1010,-18,-12,-8
3838,85,0,989,-15,-6,-6
3839,63,18,993,-13,7,-3
3840,0,25,1000,-10,12,-1
3841,-75,41,999,-13,11,1
3842,-78,34,992,-17,-1,-1
3843,-36,13,1000,-19,-10,-6
3844,45,1,997,-20,-12,-9
3845,78,0,994,-14,-2,-7
3846,54,19,999,-11,7,-3
3847,-8,28,1001,-11,13,0
3848,-77,33,989,-9,11,-1
3849,-83,32,1001,-16,0,-3
3850,-13,14,995,-18,-9,-8
3851,46,2,993,-16,-8,-8
3852,88,10,1005,-14,-2,-6
3853,39,18,999,-10,9,-3
3854,-18,33,992,-10,14,-1
3855,-85,40,996,-14,9,0
3856,-69,28,991,-16,-3,-4
3857,-7,3,999,-19,-11,-7
3858,51,0,998,-14,-9,-8
3859,83,12,1004,-12,-1,-5
3860,43,26,997,-12,10,-3
3861,-35,35,1000,-12,14,1
3862,-79,35,989,-14,6,-2
3863,-76,15,994,-19,-3,-4
3864,6,9,1001,-17,-11,-9
3865,65,-8,1002,-19,-9,-7
3866,84,19,1003,-10,1,-4
3867,29,21,993,-12,11,-2
3868,-48,42,989,-11,13,0
3869,-82,40,996,-16,5,-1
3870,-68,13,992,-21,-6,-6
3871,14,4,1003,-16,-11,-7
3872,76,0,1001,-15,-7,-7
3873,72,12,1000,-10,4,-4
3874,17,31,991,-10,12,-2
3875,-60,43,993,-13,12,-1
3876,-75,39,998,-15,1,-2
3877,-61,15,997,-19,-7,-4
3878,30,2,1006,-18,-12,-8
3879,76,-7,1002,-13,-5,-7
3880,68,19,984,-10,5,-3
3881,11,34,1001,-10,12,-1
3882,-72,45,996,-14,11,0
3883,-77,30,992,-17,2,-3
3884,-44,12,1005,-17,-8,-7
3885,39,-4,1000,-17,-11,-7
3886,79,0,992,-10,-2,-6
3887,59,22,997,-8,8,-3
3888,-3,38,1001,-10,13,0
3889,-72,40,995,-14,10,-1
3890,-82,26,998,-18,-1,-4
3891,-24,12,997,-19,-10,-6
3892,42,-7,992,-17,-10,-6
3893,84,4,1000,-11,-2,-7
3894,49,18,1001,-10,9,-2
3895,-14,39,992,-8,13,0
3896,-74,44,999,-12,9,-1
3897,-75,28,999,-18,-2,-3
3898,-24,6,988,-17,-10,-6
3899,54,0,1001,-15,-11,-9
3900,81,8,1004,-12,-3,-6
3901,41,26,992,-10,8,-2
3902,-22,37,1004,-11,13,-2
3903,-87,33,993,-15,8,0
3904,-72,18,981,-16,-5,-5
3905,-8,10,1009,-17,-12,-8
3906,60,7,997,-15,-10,-8
3907,83,11,997,-11,-1,-5
3908,32,26,1005,-9,8,-3
3909,-42,36,992,-11,12,0
3910,-82,33,989,-15,6,-1
3911,-71,20,996,-20,-6,-5
3912,8,11,1003,-18,-14,-7
3913,72,5,998,-19,-9,-7
3914,75,12,1009,-12,2,-5
3915,25,29,989,-11,11,-1
3916,-51,36,990,-14,13,0
3917,-80,36,999,-17,3,0
3918,-61,15,993,-21,-6,-4
3919,20,4,1008,-20,-11,-7
3920,73,0,998,-13,-6,-5
3921,71,12,998,-12,3,-3
3922,18,27,990,-8,12,-1
3923,-59,42,994,-13,12,0
3924,-81,24,997,-18,2,-2
3925,-58,15,1002,-17,-7,-5
3926,33,-1,999,-18,-11,-7
3927,75,8,1001,-12,-4,-7
3928,74,18,987,-12,5,-3
3929,-3,32,1001,-10,13,-1
3930,-74,41,999,-13,10,1
3931,-81,24,992,-19,2,-3
3932,-39,10,1000,-17,-9,-7
3933,48,-3,998,-16,-11,-7
3934,82,11,999,-13,-5,-5
3935,54,19,995,-12,7,-2
3936,-10,37,1001,-11,13,0
3937,-79,39,991,-17,10,-1
3938,-74,26,1002,-18,-2,-4
3939,-17,0,992,-18,-10,-6
3940,46,0,996,-14,-9,-7
3941,84,8,1001,-12,-2,-5
3942,39,29,1001,-11,9,-2
3943,-17,39,992,-13,12,1
3944,-81,37,995,-17,9,-1
3945,-74,23,995,-21,-3,-3
3946,-8,2,993,-18,-12,-7
3947,50,-3,1000,-15,-9,-7
3948,80,8,1004,-11,-1,-3
3949,37,26,998,-9,11,-2
3950,-32,37,999,-11,13,0
3951,-76,40,993,-14,7,-1
3952,-71,18,990,-19,-3,-4
3953,0,0,1001,-18,-10,-7
3954,61,1,1003,-13,-7,-7
3955,80,5,998,-10,2,-4
3956,32,33,999,-10,11,-2
3957,-46,33,990,-12,13,0
3958,-81,43,993,-13,6,-2
3959,-68,13,997,-19,-5,-5
3960,11,7,996,-17,-13,-7
3961,64,-3,1009,-15,-9,-7
3962,89,17,998,-11,2,-4
3963,19,24,996,-10,13,-1
3964,-58,45,988,-12,12,0
3965,-88,32,1000,-16,3,-1
3966,-59,12,994,-18,-7,-6
3967,23,1,1009,-16,-13,-6
3968,83,-5,997,-13,-7,-5
3969,75,12,993,-9,4,-3
3970,13,33,1001,-8,13,-1
3971,-69,46,990,-12,12,1
3972,-85,30,998,-14,1,-3
3973,-51,18,1002,-18,-10,-5
3974,37,0,1001,-19,-12,-7
3975,85,2,1001,-13,-5,-7
3976,66,18,990,-9,6,-1
3977,-1,36,1000,-10,14,-1
3978,-73,45,1001,-15,11,0
3979,-81,29,992,-17,0,-2
3980,-34,16,1000,-17,-9,-6
3981,43,-2,992,-18,-9,-6
3982,80,1,998,-13,-3,-6
3983,54,17,997,-11,8,-4
3984,-11,43,1005,-11,11,1
3985,-78,38,990,-14,9,0
3986,-76,33,1000,-18,0,-2
3987,-19,5,994,-20,-10,-6
3988,46,0,994,-19,-10,-7
3989,83,6,1004,-15,-4,-5
3990,46,21,1002,-12,8,-2
3991,-20,38,995,-14,14,0
3992,-77,35,993,-15,7,-2
3993,-81,30,991,-19,-3,-4
3994,-6,11,996,-18,-11,-8
3995,53,-5,1002,-16,-9,-7
3996,89,5,998,-14,0,-5
3997,37,18,1001,-9,10,-2
3998,-32,43,996,-10,13,0
3999,-88,38,996,-15,7,-1
4000,-73,24,990,-17,-4,-5
4001,-1,6,1006,-18,-12,-6
4002,68,-3,997,-13,-9,-7
4003,88,8,1005,-12,0,-5
4004,36,25,1000,-11,10,-2
4005,-53,35,982,-11,14,1
4006,-87,43,1000,-15,5,-2
4007,-73,14,991,-20,-5,-4
4008,17,12,1003,-17,-12,-7
4009,76,-3,1002,-15,-8,-6
4010,77,13,1001,-10,4,-2
4011,20,24,985,-11,13,0
4012,-68,42,996,-11,12,-2
4013,-83,36,998,-14,1,-2
4014,-59,22,995,-18,-8,-5
4015,30,7,1009,-18,-14,-6
4016,80,1,993,-16,-6,-7
4017,70,17,989,-10,6,-2
4018,6,29,997,-10,13,0
4019,-70,43,1002,-12,10,0
4020,-77,25,991,-17,0,-1
4021,-48,13,1002,-18,-8,-5
4022,44,0,1004,-17,-11,-7
4023,79,4,993,-11,-3,-4
4024,59,21,996,-9,7,-1
4025,-4,32,1005,-13,12,-1
4026,-74,30,989,-13,11,-1
4027,-81,26,1003,-16,0,-2
4028,-23,12,993,-17,-11,-6
4029,43,4,995,-14,-10,-6
4030,81,11,1000,-13,-3,-5
4031,45,19,999,-11,8,-1
4032,-13,40,997,-10,13,-1
4033,-78,27,994,-15,9,-1
4034,-78,27,999,-16,-3,-3
4035,-8,8,997,-17,-10,-7
4036,46,0,996,-16,-8,-6
4037,87,11,1004,-13,-3,-6
4038,34,20,997,-12,11,-2
4039,-30,48,1002,-12,12,0
4040,-73,29,988,-18,7,-1
4041,-72,23,994,-16,-3,-4
4042,0,0,995,-19,-12,-6
4043,54,-1,1002,-14,-8,-10
4044,82,9,1001,-11,0,-4
4045,30,32,995,-10,9,-2
4046,-42,34,1000,-13,12,1
4047,-78,37,988,-14,6,-2
4048,-64,20,995,-21,-5,-5
4049,10,8,1000,-16,-13,-7
4050,61,-2,1003,-17,-8,-7
4051,77,9,1004,-12,0,-3
4052,21,26,994,-9,11,-2
4053,-47,42,988,-12,16,2
4054,-82,32,998,-16,3,-2
4055,-62,25,999,-16,-8,-5
4056,23,2,998,-16,-12,-7
4057,73,6,1005,-14,-6,-7
4058,69,13,991,-11,5,-2
4059,11,34,995,-12,11,-1
4060,-64,37,991,-15,10,0
4061,-80,28,999,-17,1,-2
4062,-44,10,997,-21,-7,-6
4063,30,-5,1007,-16,-11,-8
4064,79,1,997,-14,-7,-7
4065,62,16,987,-9,6,-3
4066,1,41,1002,-9,11,-1
4067,-77,45,993,-12,11,0
4068,-73,38,1000,-16,0,-3
4069,-39,2,993,-20,-10,-6
4070,43,0,999,-15,-11,-8
4071,85,-2,998,-12,-3,-5
4072,49,31,996,-10,7,-1
4073,-11,33,999,-13,11,1
4074,-81,46,997,-12,9,0
4075,-74,25,992,-20,-1,-2
4076,-19,9,996,-17,-9,-6
4077,51,-3,996,-15,-10,-7
4078,80,2,1001,-12,-3,-4
4079,42,18,1000,-8,8,-2
4080,-17,42,995,-11,12,0
4081,-79,41,997,-13,8,-1
4082,-69,24,991,-16,-3,-4
4083,-8,10,998,-18,-12,-6
4084,52,0,994,-18,-9,-7
4085,80,10,1006,-13,-2,-5
4086,32,22,996,-12,9,-2
4087,-33,42,1000,-11,11,0
4088,-77,34,989,-16,6,-2
4089,-68,23,991,-18,-4,-4
4090,0,6,1002,-19,-11,-7
4091,61,0,1001,-16,-9,-8
4092,81,13,999,-11,1,-4
4093,33,27,997,-9,10,-1
4094,-43,38,993,-12,14,1
4095,-85,33,992,-14,5,-2
4096,-66,17,995,-20,-5,-5
4097,10,5,999,-18,-13,-8
4098,71,-4,1003,-15,-7,-8
4099,73,14,1003,-11,3,-4
4100,19,28,986,-9,10,-1
4101,-52,45,999,-10,12,0
4102,-82,36,998,-16,2,-2
4103,-61,15,996,-16,-6,-6
4104,24,7,1008,-18,-12,-7
4105,73,0,997,-15,-8,-6
4106,71,16,991,-12,4,-3
4107,12,30,1000,-12,12,0
4108,-70,46,993,-13,11,0
4109,-76,28,1002,-18,0,-4
4110,-59,13,1000,-19,-8,-5
4111,34,-1,996,-19,-14,-7
4112,85,-3,1002,-15,-5,-7
4113,67,25,991,-14,6,-3
4114,1,36,999,-12,14,-1
4115,-76,46,999,-16,11,0
4116,-90,25,996,-20,1,-3
4117,-36,4,999,-20,-10,-7
4118,49,-5,992,-17,-13,-10
4119,89,2,1002,-13,-3,-7
4120,52,23,994,-10,10,-2
4121,-14,39,997,-11,15,-1
4122,-82,39,997,-14,11,-2
4123,-84,23,994,-16,-1,-3
4124,-22,6,993,-17,-10,-7
4125,58,-2,994,-17,-11,-7
4126,86,10,1008,-13,-1,-5
4127,44,24,992,-9,10,-3
4128,-25,43,1005,-9,14,0
4129,-81,28,987,-16,7,-1
4130,-79,21,990,-17,-2,-4
4131,-3,4,999,-19,-11,-6
4132,57,3,1003,-15,-10,-6
4133,91,11,998,-12,-1,-4
4134,36,26,1000,-9,11,-3
4135,-39,33,999,-11,12,0
4136,-83,35,984,-13,5,-1
4137,-70,14,998,-19,-5,-4
4138,6,11,1003,-15,-12,-7
4139,64,-2,1000,-16,-8,-6
4140,85,16,1003,-8,1,-3
4141,25,27,996,-9,11,-1
4142,-48,38,985,-13,13,0
4143,-83,29,1000,-13,6,-2
4144,-68,17,997,-17,-6,-4
4145,18,8,996,-15,-12,-6
4146,72,0,1007,-15,-8,-7
4147,73,15,995,-13,2,-3
4148,18,35,993,-10,11,-2
4149,-53,46,993,-12,11,0
4150,-84,35,996,-18,3,0
4151,-55,16,1000,-19,-7,-5
4152,21,-2,1003,-19,-11,-7
4153,77,3,998,-15,-7,-7
4154,78,13,989,-13,4,-2
4155,7,36,1003,-12,13,0
4156,-72,45,995,-15,11,0
4157,-82,30,998,-18,1,-2
4158,-48,2,996,-19,-9,-5
4159,39,2,998,-16,-12,-8
4160,86,-1,996,-14,-5,-6
4161,62,24,998,-11,7,-4
4162,-3,35,998,-12,14,0
4163,-81,47,1000,-13,12,0
4164,-83,29,994,-17,0,-4
4165,-32,0,996,-19,-10,-7
4166,52,-5,990,-16,-11,-8
4167,82,2,1009,-10,-2,-5
4168,53,31,995,-8,8,-1
4169,-18,36,999,-12,13,-1
4170,-85,44,996,-12,9,0
4171,-77,22,990,-18,-3,-3
4172,-2,10,1003,-17,-11,-8
4173,49,-10,994,-17,-8,-6
4174,79,13,1001,-10,-1,-5
4175,37,23,1000,-8,9,-2
4176,-31,48,997,-10,12,0
4177,-80,32,990,-14,6,-1
4178,-66,23,996,-19,-4,-5
4179,0,3,996,-19,-12,-5
4180,52,3,1004,-16,-8,-6
4181,82,8,997,-13,1,-5
4182,25,29,1001,-9,10,-2
4183,-41,38,988,-11,11,-1
4184,-74,35,997,-14,6,-3
4185,-65,19,994,-18,-5,-5
4186,12,9,1000,-16,-13,-5
4187,68,-3,1003,-14,-8,-7
4188,70,13,1005,-9,3,-3
4189,22,29,990,-10,10,-2
4190,-52,43,994,-12,12,0
4191,-79,38,1000,-16,3,-2
4192,-58,13,993,-19,-7,-5
4193,22,6,1009,-18,-12,-7
4194,75,-1,998,-15,-7,-6
4195,68,20,993,-10,4,-2
4196,14,31,994,-12,11,-1
4197,-63,41,998,-14,11,0
4198,-79,25,992,-18,1,-2
4199,-49,16,1004,-17,-7,-6
4200,31,0,1002,-17,-11,-7
4201,75,5,994,-12,-5,-6
4202,67,18,995,-11,4,-3
4203,2,36,999,-9,13,-1
4204,-72,40,996,-14,12,1
4205,-78,31,999,-17,2,-3
4206,-37,4,997,-20,-9,-5
4207,39,4,995,-16,-10,-7
4208,83,2,997,-12,-4,-6
4209,51,27,1001,-10,8,-2
4210,-5,30,996,-13,12,-1
4211,-82,36,997,-11,10,-1
4212,-77,24,998,-16,-2,-4
4213,-23,7,995,-17,-9,-9
4214,51,0,994,-15,-10,-8
4215,81,7,1008,-13,-2,-5
4216,48,30,997,-9,10,-3
4217,-25,32,998,-11,14,0
4218,-76,47,996,-12,8,-1
4219,-79,17,989,-18,-3,-2
4220,-8,7,997,-18,-11,-7
4221,50,-9,1001,-18,-10,-7
4222,88,12,995,-9,-1,-6
4223,37,27,1006,-10,10,-1
4224,-27,41,993,-12,12,1
4225,-81,38,993,-14,8,1
4226,-77,23,989,-20,-3,-3
4227,3,3,1005,-18,-11,-7
4228,63,-1,998,-16,-8,-7
4229,81,10,1000,-11,2,-3
4230,36,26,998,-11,11,-3
4231,-48,36,987,-12,14,0
4232,-85,35,993,-13,5,-1
4233,-71,22,997,-19,-7,-5
4234,13,6,998,-17,-12,-7
4235,76,3,1003,-16,-8,-7
4236,81,13,1002,-13,3,-4
4237,23,28,989,-11,12,-1
4238,-54,34,991,-13,13,1
4239,-89,35,1000,-16,4,-2
4240,-64,16,995,-19,-7,-5
4241,22,8,1007,-19,-11,-7
4242,85,0,1000,-17,-9,-7
4243,78,12,987,-11,4,-3
4244,13,24,999,-10,13,-1
4245,-81,44,995,-10,13,0
4246,-89,35,995,-16,1,-3
4247,-50,13,1001,-21,-9,-6
4248,47,5,1004,-17,-13,-8
4249,90,-3,992,-13,-5,-5
4250,70,14,998,-10,8,-4
4251,1,26,1002,-8,15,-1
4252,-85,40,990,-11,12,0
4253,-96,34,1003,-15,1,-2
4254,-33,15,994,-19,-11,-6
4255,49,-3,995,-17,-12,-7
4256,98,7,998,-12,-3,-6
4257,46,18,1002,-10,9,-3
4258,-7,39,991,-10,13,-1
4259,-94,34,998,-14,11,1
4260,-80,26,989,-17,-3,-4
4261,-19,6,999,-17,-12,-8
4262,55,8,998,-17,-13,-8
4263,90,7,1003,-12,-3,-6
4264,49,27,997,-8,9,-2
4265,-32,31,999,-13,15,1
4266,-83,38,989,-13,8,-1
4267,-82,18,992,-17,-3,-4
4268,-1,12,996,-15,-13,-8
4269,53,0,1003,-15,-9,-8
4270,94,17,1000,-11,-2,-5
4271,39,20,1002,-12,12,-1
4272,-37,40,993,-9,14,-2
4273,-86,26,992,-15,7,-2
4274,-77,23,993,-16,-5,-4
4275,4,8,998,-16,-13,-7
4276,69,14,1008,-16,-9,-8
4277,84,14,1004,-15,1,-4
4278,27,27,991,-13,12,-2
4279,-46,30,991,-14,13,0
4280,-87,28,995,-15,6,-2
4281,-71,21,994,-19,-6,-3
4282,19,15,1011,-19,-14,-8
4283,77,1,996,-16,-8,-7
4284,76,18,997,-10,4,-4
4285,25,26,992,-12,12,-2
4286,-67,37,996,-13,14,1
4287,-86,30,991,-18,2,-1
4288,-62,8,1002,-17,-8,-6
4289,31,3,1009,-18,-14,-8
4290,80,0,991,-13,-6,-7
4291,77,17,993,-9,6,-4
4292,5,29,1005,-10,14,-1
4293,-76,44,988,-11,12,-1
4294,-84,30,1000,-15,1,-2
4295,-39,17,1003,-17,-8,-6
4296,43,-2,992,-18,-10,-6
4297,84,6,1001,-13,-3,-5
4298,51,13,993,-12,8,-3
4299,-3,38,1001,-9,13,-1
4300,-81,30,995,-14,10,-1
4301,-77,35,999,-15,-1,-4
4302,-23,2,992,-19,-10,-7
4303,44,1,991,-14,-10,-9
4304,83,1,1008,-12,-4,-7
4305,46,23,997,-10,7,-2
4306,-15,39,996,-9,12,0
4307,-81,40,994,-14,8,-1
4308,-79,28,996,-16,-2,-3
4309,-10,3,991,-18,-10,-5
4310,53,2,1000,-16,-9,-7
4311,86,3,1003,-12,-2,-5
4312,41,29,993,-9,8,-2
4313,-28,38,1001,-13,12,1
4314,-78,39,993,-13,7,-2
4315,-75,16,986,-19,-4,-4
4316,0,2,1003,-17,-12,-7
4317,61,5,1004,-16,-10,-7
4318,87,9,997,-13,1,-5
4319,29,28,995,-10,11,-1
4320,-42,36,998,-13,13,1
4321,-78,36,991,-15,6,-2
4322,-73,20,989,-18,-4,-4
4323,14,10,1008,-16,-12,-9
4324,64,-4,1000,-15,-6,-7
4325,79,11,996,-12,2,-5
4326,24,25,1004,-11,12,-1
4327,-52,41,983,-9,12,0
4328,-82,35,998,-17,4,-1
4329,-60,19,1001,-19,-6,-7
4330,24,4,1005,-18,-11,-7
4331,78,-2,998,-12,-7,-7
4332,72,11,997,-9,4,-4
4333,13,29,991,-8,11,-2
4334,-73,49,999,-11,12,1
4335,-80,38,995,-16,1,-2
4336,-47,16,1003,-20,-8,-6
4337,34,-1,1005,-21,-12,-6
4338,80,3,988,-14,-4,-6
4339,67,18,997,-11,7,-4
4340,0,36,998,-12,11,0
4341,-73,39,994,-14,10,-1
4342,-83,25,1003,-17,0,-4
4343,-35,9,989,-19,-10,-5
4344,41,4,1000,-18,-11,-7
4345,88,9,1000,-13,-4,-6
4346,52,17,995,-10,8,-3
4347,-5,40,999,-12,14,-1
4348,-81,31,994,-16,10,0
4349,-77,31,996,-15,-2,-4
4350,-27,4,996,-20,-12,-5
4351,50,0,995,-16,-10,-9
4352,88,8,1009,-15,-3,-6
4353,52,28,995,-11,9,-2
4354,-25,34,1001,-12,14,-1
4355,-80,39,993,-15,8,-3
4356,-89,18,994,-19,-2,-3
4357,-4,13,995,-20,-14,-8
4358,51,-6,1004,-15,-10,-7
4359,98,18,996,-13,-2,-7
4360,35,15,1007,-13,11,-1
4361,-34,45,989,-10,13,0
4362,-90,26,996,-18,7,-2
4363,-67,24,992,-17,-5,-5
4364,-1,4,1004,-19,-12,-6
4365,69,4,1005,-15,-10,-8
4366,80,10,998,-12,2,-5
4367,36,23,996,-9,12,-2
4368,-52,31,990,-13,13,2
4369,-86,39,995,-13,5,-2
4370,-71,12,994,-20,-5,-3
4371,15,17,999,-17,-13,-7
4372,75,-7,1005,-17,-8,-7
4373,80,14,995,-11,3,-4
4374,21,24,995,-9,12,-1
4375,-56,38,992,-11,11,0
4376,-92,33,996,-17,3,-2
4377,-58,23,1002,-18,-7,-6
4378,23,4,1005,-20,-12,-7
4379,81,0,994,-13,-6,-7
4380,76,14,990,-12,5,-3
4381,12,29,1002,-11,13,-2
4382,-72,37,991,-14,11,0
4383,-88,31,999,-16,1,-2
4384,-47,6,1001,-18,-10,-6
4385,36,9,998,-17,-12,-7
4386,89,-1,994,-12,-4,-6
4387,64,21,999,-17,7,-1
4388,-5,29,999,-31,12,2
4389,-80,41,994,-13,10,-1
4390,-83,29,1007,-15,0,-2
4391,-31,16,986,-21,-12,-5
4392,51,0,996,-13,-12,-8
4393,88,4,1005,-13,-4,-6
4394,46,24,994,-11,9,-3
4395,-11,34,999,-8,14,0
4396,-83,43,998,-17,8,0
4397,-85,19,995,-18,-2,-3
4398,-14,12,995,-16,-12,-6
4399,41,-4,1000,-17,-10,-7
4400,91,9,996,-10,-3,-6
4401,46,22,1007,-13,9,-1
4402,-18,41,993,-11,12,0
4403,-87,32,991,-14,9,-2
4404,-75,28,992,-16,-3,-4
4405,-18,8,995,-16,-10,-5
4406,61,5,997,-17,-10,-7
4407,87,12,1005,-15,-1,-4
4408,42,18,996,-11,10,-3
4409,-35,34,994,-14,14,0
4410,-87,35,993,-14,6,-1
4411,-78,23,994,-16,-6,-4
4412,1,14,998,-17,-13,-7
4413,70,1,1007,-16,-8,-7
4414,89,5,1001,-14,1,-6
4415,33,18,996,-9,11,-1
4416,-49,37,986,-11,15,0
4417,-93,37,1003,-13,6,-3
4418,-68,19,992,-19,-6,-6
4419,16,13,1004,-18,-12,-8
4420,78,4,1003,-16,-7,-8
4421,85,6,996,-13,4,-3
4422,17,19,995,-9,14,0
4423,-68,34,989,-9,14,1
4424,-88,31,1004,-15,3,-2
4425,-60,21,994,-14,-7,-5
4426,31,11,1010,-17,-12,-6
4427,87,5,994,-14,-6,-8
4428,68,14,991,-11,6,-2
4429,12,27,997,-11,12,-1
4430,-81,43,997,-11,13,-1
4431,-81,37,997,-16,0,-3
4432,-44,17,999,-20,-9,-5
4433,35,4,1001,-17,-11,-7
4434,86,0,987,-15,-5,-7
4435,57,12,1003,-12,7,-3
4436,2,36,994,-9,10,0
4437,-87,35,999,-14,11,-1
4438,-81,33,1001,-17,-1,-3
4439,-31,11,994,-17,-9,-5
4440,47,-1,991,-17,-11,-8
4441,89,2,1009,-12,-4,-7
4442,54,21,993,-11,7,-4
4443,-17,34,996,-12,14,0
4444,-83,44,997,-12,9,-2
4445,-86,25,996,-18,-2,-4
4446,-15,13,993,-18,-12,-7
4447,57,5,1002,-18,-11,-7
4448,92,5,1001,-13,-2,-4
4449,39,23,998,-9,10,-1
4450,-23,34,997,-12,14,-2
4451,-93,35,994,-14,8,-1
4452,-73,23,981,-15,-3,-5
4453,-4,9,1009,-18,-11,-7
4454,65,5,999,-16,-10,-6
4455,87,8,1000,-12,0,-4
4456,38,23,996,-12,11,-4
4457,-47,30,992,-11,15,-1
4458,-80,37,989,-13,7,-3
4459,-76,19,999,-19,-5,-5
4460,15,9,1000,-18,-13,-8
4461,69,-4,1004,-17,-8,-8
4462,80,9,998,-12,3,-5
4463,21,28,998,-8,12,-2
4464,-54,37,986,-12,12,-1
4465,-85,39,1005,-16,3,-1
4466,-60,24,994,-19,-7,-6
4467,15,9,1009,-18,-12,-8
4468,75,-5,1001,-14,-8,-6
4469,71,3,988,-13,3,-4
4470,14,31,1005,-8,10,-3
4471,-66,41,984,-11,10,1
4472,-81,37,1004,-16,1,-2
4473,-51,9,997,-17,-8,-5
4474,32,6,1005,-15,-11,-7
4475,82,3,995,-15,-6,-6
4476,60,16,985,-10,5,-2
4477,5,40,1005,-10,12,-2
4478,-80,43,995,-14,10,1
4479,-80,32,993,-16,1,-4
4480,-33,7,1001,-19,-9,-7
4481,41,-2,997,-16,-11,-7
4482,83,0,993,-14,-4,-6
4483,54,18,1001,-11,8,-3
4484,-8,38,999,-10,11,-1
4485,-80,43,995,-14,8,0
4486,-74,25,1001,-18,-2,-4
4487,-26,7,993,-19,-10,-7
4488,49,2,993,-16,-12,-8
4489,89,6,1008,-14,-3,-6
4490,41,23,998,-13,9,-2
4491,-19,40,994,-10,13,0
4492,-79,37,999,-14,8,-2
4493,-76,24,991,-18,-3,-3
4494,-6,6,995,-19,-12,-6
4495,51,-5,1003,-16,-10,-7
4496,92,9,998,-12,-2,-4
4497,28,23,1003,-10,10,-1
4498,-36,35,994,-11,12,1
4499,-77,33,994,-14,6,-1
4500,-73,19,989,-15,-4,-4
4501,9,12,1005,-15,-12,-7
4502,58,2,999,-15,-6,-7
4503,74,15,1000,-10,1,-4
4504,29,24,998,-11,11,-1
4505,-45,34,989,-12,13,0
4506,-78,38,994,-13,4,-1
4507,-64,20,996,-18,-6,-4
4508,12,5,1000,-17,-12,-8
4509,61,-4,1004,-14,-8,-7
4510,78,13,1000,-10,1,-3
4511,25,32,996,-11,11,-1
4512,-56,41,989,-12,12,1
4513,-78,36,1000,-17,3,-2
4514,-68,9,996,-18,-5,-4
4515,23,8,1005,-17,-11,-6
4516,79,-4,1003,-15,-7,-9
4517,70,15,991,-11,4,-4
4518,17,24,992,-10,11,-1
4519,-68,36,1001,-13,13,1
4520,-85,29,989,-15,1,-1
4521,-53,18,1004,-15,-7,-6
4522,34,10,1006,-19,-13,-6
4523,86,0,993,-12,-7,-7
4524,66,21,992,-8,5,-2
4525,6,28,1003,-10,12,-2
4526,-75,34,994,-11,12,0
4527,-93,37,1000,-14,2,-1
4528,-39,12,996,-17,-10,-5
4529,37,3,998,-17,-13,-7
4530,91,6,996,-14,-7,-6
4531,60,22,1001,-10,7,-2
4532,-1,33,996,-12,13,-2
4533,-86,37,994,-12,11,-1
4534,-90,30,1000,-18,-3,-3
4535,-27,8,988,-20,-13,-6
4536,48,1,999,-17,-12,-6
4537,94,10,1003,-14,-6,-5
4538,61,25,994,-12,8,-2
4539,-20,33,997,-11,16,-1
4540,-87,35,991,-15,10,0
4541,-92,20,994,-19,-2,-4
4542,-16,12,993,-18,-13,-7
4543,57,-2,1001,-16,-13,-8
4544,105,14,1002,-13,-3,-6
4545,50,22,1000,-11,11,-1
4546,-24,40,998,-11,16,0
4547,-93,31,995,-16,8,-1
4548,-97,24,983,-15,-3,-3
4549,-4,7,1011,-19,-14,-7
4550,73,-1,999,-16,-12,-9
4551,94,12,1000,-11,0,-4
4552,46,28,1002,-10,11,-2
4553,-42,37,987,-11,15,0
4554,-95,35,993,-15,7,-1
4555,-78,19,992,-19,-5,-5
4556,5,8,1005,-17,-11,-7
4557,81,0,1001,-17,-9,-8
4558,79,8,1004,-12,3,-4
4559,30,23,988,-9,12,-1
4560,-61,42,996,-11,14,1
4561,-81,32,998,-16,4,-2
4562,-66,17,998,-17,-5,-5
4563,27,7,1006,-18,-12,-8
4564,73,-4,1001,-14,-5,-7
4565,78,19,985,-9,6,-4
4566,5,24,1002,-10,14,-2
4567,-65,46,993,-11,11,0
4568,-86,29,996,-14,2,-1
4569,-44,14,1004,-17,-8,-5
4570,28,0,1000,-18,-11,-6
4571,88,4,993,-12,-6,-7
4572,57,10,995,-10,6,-2
4573,1,40,1004,-8,11,-1
4574,-78,40,991,-12,10,0
4575,-77,36,1000,-17,0,-3
4576,-28,6,998,-19,-10,-5
4577,40,-1,991,-17,-11,-7
4578,80,8,998,-14,-5,-6
4579,48,19,1001,-11,7,-4
4580,-13,36,994,-12,12,0
4581,-75,36,996,-15,8,-1
4582,-76,28,1001,-18,-2,-3
4583,-20,5,990,-19,-11,-6
4584,49,1,998,-16,-11,-9
4585,81,10,1004,-14,-4,-6
4586,44,26,993,-13,8,-2
4587,-17,36,1002,-11,12,-1
4588,-80,37,992,-15,8,-2
4589,-76,25,989,-18,-2,-3
4590,-10,9,1005,-18,-12,-7
4591,51,-2,994,-17,-10,-8
4592,89,10,1004,-12,-2,-5
4593,42,27,996,-10,10,-2
4594,-33,37,997,-13,12,0
4595,-79,38,992,-14,7,-1
4596,-79,13,994,-19,-4,-4
4597,4,8,1000,-19,-12,-7
4598,59,-8,1000,-18,-7,-7
4599,90,17,1001,-11,1,-5
4600,35,26,997,-11,11,-2
4601,-41,43,985,-11,13,0
4602,-84,31,999,-16,6,-1
4603,-72,17,998,-18,-3,-5
4604,8,1,997,-16,-10,-7
4605,74,3,1011,-14,-7,-7
4606,81,8,991,-13,4,-4
4607,24,31,996,-10,13,-1
4608,-57,34,993,-13,13,0
4609,-88,35,998,-14,4,-1
4610,-57,18,996,-18,-4,-6
4611,20,4,1011,-17,-11,-7
4612,77,3,989,-13,-7,-7
4613,73,15,994,-11,5,-3
4614,8,26,995,-10,13,0
4615,-74,44,999,-12,11,1
4616,-79,28,993,-15,1,-4
4617,-46,19,1004,-17,-8,-6
4618,30,4,994,-17,-11,-6
4619,85,6,1002,-13,-5,-6
4620,58,11,988,-13,7,-3
4621,-9,42,1004,-11,13,-1
4622,-75,35,995,-16,10,-1
4623,-84,34,999,-15,-1,-4
4624,-27,12,995,-21,-11,-5
4625,48,6,994,-17,-10,-8
4626,82,-2,998,-16,-2,-4
4627,49,21,994,-11,7,-2
4628,-13,35,1002,-12,12,-1
4629,-82,35,993,-14,10,0
4630,-78,26,993,-18,-2,-3
4631,-13,11,999,-18,-12,-7
4632,55,0,999,-18,-10,-7
4633,89,5,999,-14,-1,-5
4634,38,20,1003,-10,9,-1
4635,-32,31,997,-12,14,0
4636,-80,38,990,-12,9,-3
4637,-70,20,996,-18,-3,-4
4638,-2,19,996,-16,-11,-7
4639,61,-1,1004,-17,-9,-9
4640,83,12,1001,-13,0,-4
4641,35,24,997,-11,12,-2
4642,-42,35,994,-11,13,0
4643,-84,37,992,-14,6,-1
4644,-70,19,995,-18,-5,-5
4645,9,4,1000,-17,-11,-9
4646,64,1,1004,-15,-8,-8
4647,84,7,999,-12,3,-5
4648,25,25,994,-10,12,-2
4649,-53,43,989,-12,13,1
4650,-88,37,996,-16,4,-1
4651,-67,18,993,-18,-7,-5
4652,22,3,1005,-16,-13,-6
4653,77,0,997,-14,-8,-7
4654,80,13,1000,-10,2,-3
4655,14,35,989,-9,11,0
4656,-66,47,996,-13,11,0
4657,-83,36,997,-17,1,-1
4658,-54,18,1000,-19,-8,-4
4659,38,-2,1000,-20,-12,-7
4660,79,-1,1006,-15,-5,-7
4661,69,13,978,-11,4,-2
4662,4,34,1010,-7,13,-1
4663,-74,45,990,-13,12,-1
4664,-83,39,1000,-14,1,-2
4665,-34,11,1001,-21,-9,-6
4666,35,-4,996,-17,-10,-6
4667,88,-3,998,-12,-4,-7
4668,53,19,992,-12,8,-2
4669,-4,33,1002,-12,13,-1
4670,-79,40,997,-12,10,-1
4671,-77,36,995,-17,-1,-2
4672,-21,13,999,-18,-9,-7
4673,48,0,994,-16,-10,-7
4674,87,0,999,-14,-1,-5
4675,46,19,999,-10,8,-2
4676,-21,37,997,-11,15,0
4677,-81,34,993,-14,8,-1
4678,-78,33,996,-18,-3,-3
4679,-14,10,992,-20,-12,-7
4680,58,-1,1001,-17,-8,-8
4681,85,1,1000,-14,0,-4
4682,40,21,998,-9,11,-3
4683,-30,32,1005,-9,13,1
4684,-85,37,985,-11,7,-2
4685,-73,21,994,-16,-4,-4
4686,0,18,1003,-15,-13,-7
4687,58,9,999,-17,-9,-7
4688,82,12,1001,-12,2,-4
4689,30,16,999,-13,11,-1
4690,-37,33,990,-10,13,0
4691,-87,32,995,-13,6,0
4692,-69,29,993,-18,-6,-5
4693,10,7,1005,-19,-13,-7
4694,65,9,999,-15,-9,-6
4695,80,5,1006,-14,2,-3
4696,25,29,990,-11,10,-3
4697,-56,32,988,-13,13,0
4698,-73,33,1000,-16,3,-4
4699,-66,19,995,-19,-6,-4
4700,22,5,1003,-20,-14,-7
4701,75,1,1005,-14,-7,-6
4702,77,10,990,-12,4,-3
4703,11,32,991,-10,13,-2
4704,-63,43,999,-13,11,-1
4705,-81,36,992,-16,3,-2
4706,-51,18,998,-19,-6,-5
4707,33,0,1010,-18,-11,-7
4708,81,-2,993,-15,-4,-5
4709,68,12,985,-11,5,-2
4710,0,30,1009,-11,12,-1
4711,-70,41,989,-12,11,0
4712,-84,43,1000,-16,0,-3
4713,-33,10,999,-20,-10,-6
4714,37,-1,995,-17,-10,-8
4715,86,-3,994,-14,-3,-6
4716,52,13,999,-10,8,-2
4717,-5,37,1001,-9,13,-1
4718,-84,39,994,-10,11,1
4719,-74,35,999,-17,-1,-3
4720,-28,3,1000,-18,-9,-7
4721,52,0,990,-16,-10,-8
4722,81,6,1008,-11,0,-5
4723,46,28,998,-10,10,-2
4724,-23,34,997,-14,14,1
4725,-80,41,995,-11,7,-2
4726,-75,23,996,-4,-2,-5
4727,-12,11,993,-4,-12,-10
4728,56,-8,996,-12,-9,-7
4729,87,12,1007,-13,-1,-6
4730,33,22,998,-14,9,-2
4731,-27,40,995,-8,12,0
4732,-87,30,999,-18,5,-2
4733,-69,31,984,-17,-5,-4
4734,2,5,1006,-16,-11,-8
4735,62,4,998,-17,-9,-7
4736,80,11,1002,-11,2,-4
4737,32,23,999,-12,11,-3
4738,-46,38,988,-13,12,1
4739,-75,38,998,-12,5,-2
4740,-67,16,992,-22,-6,-4
4741,17,9,1002,-15,-12,-8
4742,69,0,1000,-15,-7,-7
4743,78,11,1002,-12,4,-4
4744,23,21,990,-7,12,-1
4745,-56,46,992,-11,13,0
4746,-75,36,999,-16,4,-2
4747,-67,21,998,-19,-5,-4
4748,25,6,1003,-18,-12,-7
4749,76,1,1006,-16,-7,-7
4750,73,10,985,-12,6,-2
4751,15,27,999,-10,12,-1
4752,-69,36,993,-12,13,1
4753,-89,32,995,-15,1,-2
4754,-47,19,1001,-18,-8,-7
4755,34,8,1005,-16,-13,-8
4756,88,3,995,-16,-6,-7
4757,64,10,991,-12,8,-3
4758,-1,31,1005,-10,13,0
4759,-78,42,990,-13,12,0
4760,-81,34,1002,-17,1,-4
4761,-34,7,995,-20,-11,-7
4762,45,3,995,-17,-11,-7
4763,89,-2,1000,-13,-4,-5
4764,51,21,999,-9,7,-2
4765,-6,31,991,-10,13,0
4766,-87,44,1003,-11,10,-1
4767,-78,26,994,-18,-1,-4
4768,-22,15,998,-17,-11,-6
4769,55,-4,993,-16,-11,-8
4770,86,8,1006,-11,-1,-6
4771,50,16,998,-11,10,-2
4772,-30,39,994,-10,16,0
4773,-77,33,995,-15,8,-1
4774,-84,22,992,-17,-1,-2
4775,-3,19,996,-14,-11,-7
4776,61,-5,1002,-17,-9,-7
4777,85,16,997,-13,-1,-4
4778,38,18,999,-11,10,-2
4779,-30,40,997,-10,13,0
4780,-88,28,989,-14,5,-1
4781,-70,24,991,-17,-5,-6
4782,3,3,1001,-20,-12,-6
4783,63,11,1001,-14,-8,-7
4784,83,9,1003,-11,1,-5
4785,32,21,1003,-13,10,-2
4786,-55,35,985,-10,14,2
4787,-79,38,996,-15,4,-3
4788,-65,19,996,-18,-6,-5
4789,15,11,999,-16,-12,-7
4790,71,0,1009,-15,-7,-7
4791,75,13,999,-11,4,-4
4792,17,21,992,-12,11,-1
4793,-63,41,992,-11,12,0
4794,-85,30,1001,-16,3,-3
4795,-55,14,996,-15,-8,-5
4796,23,7,1002,-16,-13,-6
4797,86,5,1006,-14,-7,-7
4798,72,15,987,-12,5,-2
4799,4,37,994,-11,13,0
4800,-75,36,998,-14,11,1
4801,-83,35,994,-16,0,-3
4802,-46,16,999,-19,-9,-3
4803,39,6,1006,-17,-11,-7
4804,87,3,994,-15,-4,-6
4805,61,16,990,-10,6,-2
