sequence,AccelerometerX,AccelerometerY,AccelerometerZ,GyroscopeX,GyroscopeY,GyroscopeZ
0,-170,22,982,-13,11,-1
1,-86,10,997,-18,-14,-7
2,37,12,993,-11,-24,-9
3,143,38,1002,-7,-15,-5
4,155,50,1007,-8,5,-4
5,19,52,997,-19,25,2
6,-94,39,1010,-21,22,1
7,-159,11,980,-13,6,-2
8,-69,5,987,-17,-16,-7
9,70,22,992,-20,-26,-6
10,150,33,1012,-8,-11,-8
11,136,52,1000,-15,9,-1
12,-9,50,1001,-13,26,3
13,-112,30,1006,-13,20,-1
14,-152,18,967,-20,1,-1
15,-42,7,992,-14,-19,-9
16,91,17,1006,-16,-23,-8
17,152,43,1003,-13,-6,-5
18,114,44,1008,-10,14,-2
19,-36,50,1000,-15,25,3
20,-124,27,986,-15,16,0
21,-128,16,985,-18,-3,-4
22,-22,10,989,-18,-20,-7
23,114,25,1012,-12,-21,-7
24,152,42,998,-13,-3,-5
25,78,45,1008,-11,18,1
26,-55,48,998,-13,24,1
27,-145,20,987,-16,13,0
28,-104,16,981,-14,-9,-5
29,9,12,1002,-15,-21,-8
30,135,29,1010,-12,-17,-7
31,145,40,993,-11,4,-3
32,50,51,998,-11,21,1
33,-74,43,1009,-12,23,0
34,-155,20,984,-16,10,-1
35,-88,16,989,-15,-12,-6
36,48,12,998,-16,-23,-9
37,141,35,1001,-13,-14,-7
38,141,45,999,-11,6,-3
39,15,51,1004,-14,24,2
40,-105,36,1009,-15,20,2
41,-144,14,975,-16,4,-2
42,-68,15,992,-14,-14,-7
43,75,21,999,-15,-23,-8
44,145,38,1002,-14,-9,-6
45,126,48,1002,-14,9,-2
46,-6,50,1007,-13,25,2
47,-119,29,992,-15,18,-1
48,-133,9,985,-15,1,-3
49,-45,12,983,-13,-19,-7
50,91,22,1006,-13,-23,-9
51,158,39,1001,-11,-8,-7
52,98,61,1012,-10,15,2
53,-26,48,998,-15,24,1
54,-138,26,988,-17,19,1
55,-124,13,982,-19,-5,-4
56,-17,1,990,-18,-21,-9
57,110,30,1007,-15,-21,-8
58,154,35,1002,-14,-2,-4
59,83,53,1007,-12,18,0
60,-52,45,998,-12,25,3
61,-143,25,982,-16,13,-1
62,-110,10,987,-15,-9,-4
63,6,22,994,-15,-21,-8
64,130,25,1015,-15,-17,-7
65,149,44,996,-10,2,-5
66,57,46,995,-13,20,1
67,-75,38,1009,-14,23,0
68,-154,22,981,-15,9,0
69,-86,10,990,-16,-12,-6
70,31,20,993,-15,-23,-7
71,142,36,1005,-12,-15,-8
72,144,42,999,-12,4,-4
73,24,55,993,-13,22,3
74,-93,33,1013,-17,21,1
75,-145,13,978,-16,6,-3
76,-69,6,990,-15,-14,-5
77,63,22,993,-13,-22,-7
78,143,43,1008,-12,-11,-8
79,131,56,1005,-13,8,-2
80,-3,46,999,-17,25,2
81,-117,38,1004,-15,19,0
82,-131,8,978,-20,1,-3
83,-51,3,981,-17,-17,-6
84,90,21,1001,-13,-23,-8
85,148,41,1009,-13,-8,-6
86,116,50,1003,-9,14,-1
87,-32,47,998,-12,25,2
88,-126,36,996,-16,16,-2
89,-125,6,978,-18,-4,-4
90,-29,12,991,-17,-19,-7
91,116,27,1009,-15,-22,-8
92,148,36,1002,-13,-2,-4
93,87,53,1009,-12,17,1
94,-48,43,991,-13,25,2
95,-145,25,995,-15,15,0
96,-108,12,973,-17,-8,-3
97,-2,19,1001,-17,-21,-9
98,134,24,1012,-14,-19,-9
99,144,34,1001,-12,3,-3
100,56,48,986,-10,20,0
101,-68,38,1017,-12,24,0
102,-151,26,977,-16,10,-2
103,-89,17,991,-16,-10,-7
104,38,19,1002,-18,-22,-9
105,135,29,999,-14,-14,-6
106,144,39,997,-12,4,-5
107,23,45,1006,-12,22,2
108,-97,40,1000,-13,21,0
109,-139,13,985,-16,5,-3
110,-72,18,989,-15,-15,-6
111,65,24,1005,-13,-22,-8
112,150,34,994,-13,-11,-7
113,120,49,1007,-15,10,-1
114,-3,48,1003,-13,24,1
115,-112,30,1003,-15,20,-1
116,-134,10,978,-15,0,-2
117,-50,14,983,-13,-17,-6
118,92,28,1009,-16,-23,-9
119,144,45,1001,-12,-6,-5
120,105,55,1004,-12,13,0
121,-22,40,1005,-15,25,1
122,-130,25,990,-15,19,1
123,-126,10,976,-17,-3,-4
124,-23,0,997,-15,-19,-8
125,104,35,1005,-12,-20,-6
126,161,40,1001,-12,-4,-6
127,85,54,1009,-9,18,1
128,-53,49,999,-14,25,3
129,-141,19,984,-16,14,-2
130,-119,14,983,-17,-7,-4
131,3,11,998,-18,-21,-9
132,127,26,1014,-11,-17,-9
133,160,44,993,-11,1,-4
134,61,52,998,-13,21,1
135,-73,40,1010,-13,25,0
136,-155,23,980,-15,10,-1
137,-99,12,986,-15,-11,-5
138,31,20,1009,-15,-23,-9
139,139,30,999,-12,-16,-8
140,151,40,995,-11,5,-3
141,27,54,1008,-13,22,2
142,-89,40,999,-14,22,1
143,-154,19,987,-16,5,-2
144,-79,12,984,-16,-15,-6
145,59,22,1005,-15,-24,-8
146,154,31,994,-14,-13,-7
147,134,46,1005,-13,8,-3
148,8,51,1004,-12,25,1
149,-122,37,1003,-14,22,1
150,-139,10,976,-16,3,-4
151,-60,6,984,-14,-17,-5
152,87,25,1004,-12,-24,-9
153,157,38,1006,-12,-8,-5
154,121,57,1005,-12,13,-2
155,-18,44,1002,-14,26,3
156,-127,27,991,-16,19,-1
157,-135,7,976,-18,-2,-4
158,-37,12,990,-13,-20,-8
159,108,24,1007,-14,-21,-9
160,151,45,998,-11,-4,-5
161,101,48,1013,-13,15,-1
162,-47,33,995,-12,25,3
163,-137,39,989,-13,15,-3
164,-112,7,984,-18,-6,-6
165,-17,22,995,-13,-19,-8
166,127,21,1014,-14,-19,-8
167,154,39,995,-12,-1,-5
168,64,52,997,-9,19,1
169,-60,42,1012,-13,24,0
170,-154,28,978,-17,13,-1
171,-101,9,984,-13,-9,-7
172,27,16,1006,-14,-23,-9
173,130,32,999,-13,-15,-6
174,154,43,995,-9,4,-5
175,29,48,1005,-12,24,4
176,-91,44,999,-15,22,1
177,-143,17,993,-14,7,-3
178,-76,10,984,-14,-14,-5
179,52,19,1002,-14,-22,-8
180,149,27,998,-12,-12,-8
181,125,52,1007,-9,9,-1
182,4,55,993,-14,23,1
183,-114,37,1019,-16,20,0
184,-135,12,971,-19,0,-3
185,-58,11,987,-16,-16,-7
186,86,17,1004,-15,-23,-10
187,148,36,1006,-13,-8,-4
188,117,56,994,-10,13,-2
189,-22,47,1012,-14,27,3
190,-127,31,992,-16,17,0
191,-131,1,976,-16,-2,-3
192,-36,9,992,-14,-20,-8
193,105,31,1014,-11,-22,-8
194,162,35,995,-12,-5,-7
195,91,54,1010,-10,18,1
196,-34,45,1000,-15,26,1
197,-149,22,979,-17,17,0
198,-123,11,984,-16,-7,-4
199,-11,12,1000,-14,-22,-8
200,126,27,1010,-11,-19,-8
201,165,41,998,-10,-1,-4
202,73,52,998,-11,20,2
203,-60,49,1011,-13,25,1
204,-158,19,974,-17,12,-1
205,-105,20,992,-15,-9,-5
206,23,2,1000,-17,-23,-8
207,130,31,1003,-10,-15,-6
208,152,41,998,-10,2,-4
209,41,56,1003,-12,22,1
210,-91,40,996,-16,23,1
211,-150,29,993,-15,8,-1
212,-82,7,989,-18,-14,-7
213,51,14,992,-14,-22,-9
214,148,28,1007,-11,-12,-7
215,129,48,1000,-11,9,-1
216,5,52,1001,-14,24,1
217,-101,40,1016,-14,20,-1
218,-147,22,974,-18,2,-3
219,-51,5,982,-15,-17,-9
220,78,20,1008,-17,-22,-8
221,144,42,999,-12,-9,-5
222,121,44,1006,-11,10,-2
223,-25,53,1001,-13,25,3
224,-121,33,995,-14,17,0
225,-123,15,974,-17,-3,-4
226,-35,9,993,-18,-18,-7
227,105,24,1001,-16,-21,-7
228,153,36,1007,-13,-4,-6
229,92,51,1003,-13,15,1
230,-42,50,1004,-13,25,2
231,-134,25,986,-15,14,-2
232,-119,14,981,-16,-7,-4
233,-9,15,998,-16,-22,-8
234,123,27,1013,-15,-21,-8
235,155,40,996,-11,-1,-4
236,76,49,998,-12,19,1
237,-62,43,1007,-14,25,3
238,-154,22,982,-15,13,0
239,-112,15,979,-18,-9,-5
240,19,21,1007,-15,-24,-8
241,140,27,1006,-14,-18,-7
242,155,37,993,-14,3,-3
243,46,50,1005,-13,23,1
244,-87,45,1006,-15,24,1
245,-162,18,979,-15,9,-1
246,-88,11,999,-13,-14,-7
247,47,17,995,-15,-25,-8
248,151,33,1001,-14,-14,-7
249,142,46,1005,-12,7,-3
250,12,52,1000,-13,23,3
251,-104,45,1005,-15,21,-1
252,-150,7,980,-20,3,-2
253,-65,6,985,-13,-16,-6
254,80,13,1000,-14,-23,-8
255,150,42,1001,-11,-9,-6
256,132,51,1007,-13,10,0
257,-13,58,1003,-13,24,3
258,-125,29,995,-15,19,0
259,-137,17,983,-16,0,-3
260,-47,6,985,-17,-19,-7
261,101,17,1006,-16,-24,-8
262,159,42,1007,-12,-7,-6
263,101,51,1003,-13,15,1
264,-32,42,1003,-15,25,2
265,-143,28,988,-15,17,-1
266,-129,11,977,-17,-6,-5
267,-16,19,997,-14,-22,-8
268,117,30,1011,-15,-21,-6
269,163,39,997,-15,-2,-4
270,82,48,1004,-12,19,0
271,-58,36,998,-16,26,1
272,-156,22,986,-18,13,0
273,-113,10,983,-15,-9,-5
274,9,26,999,-15,-24,-7
275,142,29,1009,-14,-20,-9
276,156,48,995,-11,2,-3
277,55,48,1000,-16,20,2
278,-86,35,1004,-17,23,0
279,-158,13,988,-19,8,-1
280,-97,7,987,-15,-12,-6
281,50,18,997,-13,-24,-8
282,151,32,1000,-13,-16,-7
283,143,48,1000,-10,6,-2
284,24,52,1009,-12,25,2
285,-110,43,996,-14,24,3
286,-146,22,990,-18,4,-3
287,-69,2,979,-17,-16,-6
288,68,16,1001,-13,-24,-7
289,161,28,1007,-11,-11,-7
290,120,49,997,-10,11,-1
291,2,49,1007,-13,25,0
292,-130,38,1002,-16,21,0
293,-136,19,973,-14,0,-4
294,-43,10,990,-17,-18,-7
295,96,28,1005,-16,-24,-8
296,156,32,1006,-13,-7,-6
297,108,54,1002,-11,16,-2
298,-36,40,1005,-13,25,2
299,-134,36,976,-13,16,0
300,-120,15,992,-17,-5,-4
301,-20,12,985,-17,-21,-6
302,114,33,1014,-12,-19,-8
303,160,37,1005,-14,-3,-5
304,72,51,995,-12,19,2
305,-56,36,1006,-16,24,0
306,-149,22,985,-16,14,-2
307,-114,15,978,-15,-9,-5
308,17,18,1005,-15,-22,-9
309,129,32,1007,-13,-18,-7
310,156,45,998,-12,2,-2
311,49,54,999,-15,21,1
312,-89,33,1001,-17,24,2
313,-149,17,989,-17,8,-3
314,-88,10,988,-17,-12,-6
315,46,13,998,-14,-23,-9
316,146,35,1001,-12,-14,-7
317,141,54,1000,-12,6,-2
318,9,55,1000,-13,24,2
319,-103,41,1009,-18,20,0
320,-153,9,978,-18,4,-2
321,-57,9,987,-18,-18,-7
322,76,10,1000,-15,-24,-8
323,149,39,1004,-10,-11,-7
324,132,51,1001,-13,11,-1
325,-13,51,1002,-13,26,1
326,-126,35,1001,-17,19,1
327,-134,12,974,-16,-2,-4
328,-54,14,989,-16,-20,-7
329,104,23,1004,-16,-24,-8
330,156,38,1007,-13,-6,-5
331,102,48,1002,-13,15,0
332,-30,37,1005,-13,25,1
333,-145,20,986,-15,17,0
334,-126,17,981,-15,-6,-4
335,-15,17,996,-14,-21,-9
336,119,31,1010,-12,-20,-8
337,159,49,1000,-14,-2,-4
338,78,49,1002,-13,19,-1
339,-61,36,1000,-15,25,1
340,-149,19,984,-16,13,-2
341,-107,7,978,-17,-9,-5
342,9,16,1005,-14,-23,-7
343,137,33,1011,-14,-19,-7
344,154,45,993,-26,4,-2
345,49,62,994,-16,20,-1
346,-82,42,1012,-17,23,0
347,-164,17,980,-16,9,-2
348,-89,12,991,-15,-14,-6
349,41,14,1005,-15,-25,-8
350,147,33,992,-12,-15,-5
351,148,37,1000,-11,5,-3
352,16,49,1003,-10,24,2
353,-99,48,1006,-15,22,1
354,-151,11,980,-18,6,-4
355,-75,14,991,-14,-14,-6
356,73,24,996,-15,-24,-9
357,150,38,1004,-13,-11,-8
358,128,43,1001,-14,9,-1
359,-9,40,1003,-13,25,0
360,-116,25,1003,-13,18,-2
361,-145,18,976,-14,-1,-1
362,-40,9,982,-15,-19,-7
363,94,28,1018,-10,-23,-8
364,155,48,994,-13,-8,-6
365,100,50,1009,-12,15,1
366,-34,39,1000,-13,23,1
367,-128,23,991,-15,15,-1
368,-118,6,972,-13,-5,-3
369,-20,15,1002,-14,-20,-8
370,118,27,1006,-13,-22,-8
371,154,45,1001,-9,-2,-4
372,79,51,1003,-13,17,0
373,-59,37,1004,-11,25,1
374,-143,24,983,-14,12,-2
375,-118,13,981,-17,-8,-3
376,12,17,1007,-13,-23,-9
377,136,26,1009,-14,-19,-7
378,152,44,993,-9,2,-4
379,53,49,998,-12,21,0
380,-75,40,1007,-13,23,0
381,-157,26,982,-15,10,-1
382,-92,17,988,-16,-13,-7
383,53,16,1008,-14,-25,-9
384,142,29,992,-14,-13,-5
385,140,49,1002,-11,6,-4
386,18,48,1006,-12,23,1
387,-99,41,1001,-12,23,2
388,-153,18,981,-16,6,-3
389,-68,8,993,-15,-16,-9
390,67,15,998,-14,-24,-7
391,145,43,997,-11,-10,-6
392,132,40,1010,-12,9,-2
393,-9,58,997,-12,25,3
394,-115,37,1002,-17,20,0
395,-142,7,981,-17,1,-3
396,-49,8,987,-16,-20,-8
397,94,18,1004,-13,-24,-9
398,154,48,1007,-13,-8,-6
399,111,53,1006,-13,13,-1
400,-30,49,999,-13,25,3
401,-130,29,994,-17,16,0
402,-133,14,973,-16,-5,-4
403,-21,5,999,-16,-22,-8
404,110,25,1003,-13,-21,-7
405,160,44,1000,-13,-5,-5
406,89,44,1008,-13,18,1
407,-50,49,994,-12,25,3
408,-148,26,988,-16,13,-1
409,-115,13,984,-16,-8,-5
410,-2,5,997,-15,-22,-9
411,128,33,1008,-11,-20,-9
412,164,38,1005,-13,0,-4
413,59,54,989,-13,21,2
414,-68,41,1012,-14,25,0
415,-155,22,984,-17,11,-2
416,-109,17,982,-14,-12,-5
417,34,10,1004,-15,-26,-10
418,134,34,1001,-14,-17,-7
419,163,48,996,-12,1,-4
420,35,49,1004,-12,24,2
421,-91,38,1003,-16,23,1
422,-156,19,987,-16,7,-2
423,-82,7,987,-16,-14,-7
424,54,13,994,-15,-25,-7
425,154,36,1005,-12,-14,-8
426,141,51,1001,-12,7,-2
427,8,61,1000,-14,26,2
428,-106,30,1012,-17,21,-1
429,-147,16,970,-15,3,-2
430,-58,3,981,-17,-18,-6
431,78,17,1010,-13,-24,-8
432,146,34,1002,-13,-10,-4
433,119,47,1003,-10,11,-2
434,-13,54,1009,-12,25,2
435,-121,37,990,-16,18,0
436,-129,10,978,-16,-2,-4
437,-33,9,990,-15,-20,-9
438,100,26,1005,-16,-22,-6
439,153,40,1002,-11,-5,-6
440,84,51,1007,-12,17,0
441,-33,49,999,-14,23,-1
442,-139,23,981,-18,14,0
443,-116,17,984,-16,-7,-4
444,-3,7,1000,-15,-22,-8
445,108,33,1010,-13,-18,-7
446,160,43,997,-14,-3,-6
447,66,49,998,-12,18,0
448,-68,43,1010,-14,23,2
449,-147,23,981,-16,11,-2
450,-104,8,991,-17,-10,-5
451,27,21,998,-15,-24,-9
452,140,22,1009,-14,-16,-8
453,148,47,995,-11,4,-3
454,31,55,999,-13,22,1
455,-90,42,1010,-14,21,0
456,-151,18,981,-19,7,-2
457,-76,9,992,-16,-15,-7
458,57,13,997,-16,-25,-7
459,147,24,1003,-11,-14,-7
460,140,47,1000,-11,7,-2
461,2,50,1006,-11,25,3
462,-109,38,1008,-12,20,-1
463,-151,20,976,-15,1,-2
464,-55,12,980,-14,-17,-7
465,75,18,1011,-15,-22,-8
466,153,40,1000,-14,-10,-6
467,126,45,1002,-12,11,-2
468,-14,49,1006,-15,25,2
469,-124,25,995,-15,19,1
470,-136,16,977,-14,0,-4
471,-42,15,993,-15,-20,-8
472,101,32,1002,-14,-24,-8
473,157,38,1004,-17,-6,-7
474,100,52,1012,-11,15,0
475,-32,42,991,-15,25,1
476,-140,24,988,-14,17,-1
477,-121,8,981,-15,-5,-6
478,-11,14,999,-16,-22,-9
479,116,40,1004,-12,-21,-9
480,157,42,1003,-15,-2,-5
481,77,49,990,-14,19,-1
482,-60,44,1014,-16,25,2
483,-151,16,979,-18,12,-2
484,-107,10,980,-15,-8,-5
485,22,8,1006,-17,-23,-8
486,130,39,1003,-14,-17,-7
487,157,39,998,-13,2,-5
488,33,51,997,-15,22,2
489,-81,43,1004,-14,22,-2
490,-144,24,991,-16,7,-2
491,-80,12,987,-17,-13,-6
492,54,12,998,-15,-23,-8
493,142,31,1000,-13,-13,-8
494,130,42,1003,-12,6,-3
495,11,59,1004,-11,23,0
496,-108,34,1002,-18,21,1
497,-137,23,978,-16,2,-3
498,-57,6,987,-17,-17,-7
499,75,18,999,-13,-22,-8
500,151,29,1005,-14,-10,-7
501,105,48,1002,-12,11,-1
502,-9,49,996,-13,23,2
503,-122,32,1008,-14,18,0
504,-128,17,967,-15,-3,-4
505,-36,15,996,-14,-19,-7
506,96,24,999,-15,-22,-7
507,151,40,1008,-12,-6,-8
508,97,44,1002,-13,14,-1
509,-36,49,999,-14,24,1
510,-132,19,984,-15,15,-2
511,-124,20,986,-14,-5,-3
512,-10,21,998,-15,-21,-9
513,115,23,1005,-16,-20,-8
514,155,43,1002,-13,-3,-6
515,74,49,1000,-12,18,2
516,-57,39,998,-14,23,1
517,-151,24,992,-17,12,0
518,-106,10,975,-16,-10,-5
519,15,24,1012,-18,-22,-8
520,134,25,1004,-14,-18,-7
521,155,38,995,-11,3,-4
522,57,48,1002,-12,21,1
523,-87,41,1000,-12,25,1
524,-153,20,993,-15,8,-3
525,-95,8,986,-14,-12,-4
526,43,18,993,-15,-25,-9
527,151,33,1005,-12,-16,-8
528,144,45,1002,-11,6,-3
529,26,54,994,-14,22,2
530,-110,32,1012,-16,23,1
531,-154,13,977,-15,5,-3
532,-66,11,984,-15,-17,-7
533,68,12,1004,-14,-24,-8
534,152,43,998,-11,-12,-7
535,136,55,1007,-13,10,-3
536,-7,52,1002,-13,26,2
537,-120,39,1002,-18,19,1
538,-136,9,974,-16,1,-4
539,-50,10,981,-15,-18,-7
540,88,14,1011,-15,-23,-8
541,153,50,1002,-12,-7,-7
542,111,40,1008,-13,14,0
543,-33,53,995,-12,26,2
544,-127,29,998,-17,16,0
545,-124,16,979,-16,-4,-4
546,-30,14,990,-17,-20,-6
547,117,29,1011,-15,-22,-8
548,145,38,1003,-14,-4,-3
549,89,53,1000,-13,15,0
550,-50,36,999,-14,23,2
551,-147,26,985,-15,11,-1
552,-102,10,981,-17,-9,-5
553,2,27,998,-16,-21,-9
554,129,26,1017,-16,-19,-6
555,148,56,996,-13,0,-4
556,56,43,987,-16,19,1
557,-76,47,1020,-16,22,1
558,-150,16,979,-19,8,-1
559,-93,8,986,-15,-13,-5
560,43,15,1005,-18,-26,-8
561,139,33,999,-13,-16,-6
562,150,52,998,-14,4,-4
563,18,48,1004,-15,24,3
564,-99,42,999,-15,21,0
565,-148,7,992,-20,4,-2
566,-76,9,983,-16,-16,-6
567,76,14,1001,-17,-24,-9
568,152,28,1003,-14,-12,-7
569,129,50,1001,-10,9,0
570,-2,48,1006,-13,25,1
571,-131,35,1008,-14,22,1
572,-142,18,971,-17,0,-4
573,-47,7,987,-17,-18,-7
574,84,23,1010,-15,-24,-7
575,162,36,1003,-13,-8,-5
576,111,49,1006,-12,15,-2
577,-37,45,999,-13,26,3
578,-129,24,992,-13,17,-2
579,-134,15,978,-14,-3,-4
580,-31,15,990,-16,-21,-6
581,118,42,1012,-14,-23,-8
582,155,35,1002,-13,-4,-4
583,88,61,1003,-13,19,1
584,-42,30,1000,-17,26,1
585,-149,26,987,-17,15,0
586,-110,10,975,-18,-9,-4
587,1,11,1007,-15,-22,-7
588,126,25,1007,-14,-19,-7
589,162,47,997,-12,0,-5
590,63,55,993,-13,20,1
591,-74,37,1012,-16,24,1
592,-155,21,984,-16,9,-3
593,-99,11,986,-18,-12,-5
594,33,22,1002,-16,-24,-9
595,148,32,1009,-14,-16,-7
596,141,46,988,-13,4,-2
597,34,56,1009,-13,21,0
598,-99,32,1004,-18,21,1
599,-158,19,982,-17,5,-1
600,-73,6,992,-17,-17,-6
601,59,30,1002,-16,-25,-8
602,157,27,995,-14,-14,-8
603,130,53,1002,-13,9,-2
604,1,46,1006,-16,24,2
605,-117,35,998,-18,21,1
606,-147,8,981,-17,0,-3
607,-55,17,980,-16,-19,-8
608,90,19,1009,-15,-25,-9
609,156,39,1003,-14,-9,-6
610,111,46,1002,-12,13,0
611,-18,48,1001,-12,25,1
612,-133,27,996,-15,17,1
613,-134,12,974,-15,-4,-3
614,-31,9,992,-14,-21,-8
615,103,28,1011,-14,-23,-7
616,169,44,1004,-13,-6,-6
617,93,40,999,-13,17,0
618,-41,44,1009,-13,24,3
619,-147,15,980,-16,15,0
620,-122,17,977,-13,-7,-5
621,0,14,1005,-14,-24,-8
622,121,36,1011,-12,-20,-9
623,162,41,995,-14,-2,-4
624,70,56,996,-12,21,1
625,-72,34,1011,-15,25,1
626,-151,18,980,-16,11,-1
627,-99,4,985,-15,-11,-5
628,29,17,1006,-14,-24,-9
629,140,31,1003,-14,-16,-7
630,146,53,991,-11,3,-2
631,36,54,1007,-13,22,1
632,-82,43,996,-15,23,0
633,-157,15,989,-18,6,-1
634,-78,9,990,-17,-15,-7
635,52,14,1001,-14,-24,-8
636,151,30,993,-12,-14,-8
637,139,50,1013,-12,8,-2
638,4,59,998,-13,24,2
639,-113,42,1008,-16,21,1
640,-154,15,978,-19,1,-3
641,-57,8,985,-17,-19,-7
642,76,15,1002,-17,-24,-8
643,154,41,1004,-12,-10,-7
644,120,42,1005,-13,11,-2
645,-18,53,1000,-15,25,2
646,-129,29,1001,-16,18,1
647,-135,15,976,-16,-2,-4
648,-37,12,987,-17,-20,-8
649,102,39,1006,-16,-23,-8
650,162,40,1010,-16,-7,-5
651,99,49,995,-15,15,1
652,-36,34,1006,-16,25,1
653,-141,16,982,-15,15,-1
654,-128,7,980,-15,-6,-4
655,-7,19,999,-12,-23,-9
656,116,42,1011,-16,-21,-7
657,164,49,992,-13,-3,-4
658,79,57,1005,-14,20,1
659,-68,30,998,-18,24,3
660,-151,19,989,-17,12,-1
661,-108,-3,981,-18,-12,-6
662,18,13,1001,-13,-25,-8
663,145,33,1010,-13,-19,-7
664,155,50,995,-10,4,-5
665,45,56,997,-11,23,2
666,-89,47,1006,-17,23,0
667,-158,12,991,-17,8,-3
668,-98,10,987,-16,-14,-6
669,55,14,1003,-17,-28,-10
670,151,20,1001,-12,-14,-7
671,147,46,997,-10,6,-3
672,18,53,1010,-12,24,0
673,-109,39,1002,-13,24,0
674,-158,20,986,-18,4,-2
675,-64,12,978,-16,-17,-7
676,72,17,1005,-17,-24,-9
677,152,39,1003,-13,-11,-7
678,133,43,996,-14,9,-2
679,-14,49,1008,-13,25,3
680,-119,26,999,-14,18,0
681,-137,16,975,-12,0,-3
682,-40,9,988,-26,-19,-6
683,91,37,1012,-12,-22,-9
684,155,40,998,-18,-8,-6
685,100,50,1008,-12,14,1
686,-31,36,998,-14,23,2
687,-135,22,988,-16,17,0
688,-120,5,982,-13,-4,-5
689,-19,17,992,-15,-19,-8
690,117,39,1013,-14,-20,-8
691,154,45,998,-13,-2,-4
692,76,49,1001,-14,17,1
693,-52,38,1002,-13,24,1
694,-150,21,985,-17,12,0
695,-104,7,981,-16,-11,-6
696,15,11,1001,-13,-22,-8
697,124,34,1013,-12,-17,-9
698,153,51,996,-11,1,-5
699,38,53,998,-12,22,2
700,-80,45,1004,-16,23,1
701,-153,20,986,-18,10,-2
702,-84,8,988,-18,-13,-5
703,44,18,1002,-17,-23,-7
704,150,26,998,-14,-15,-7
705,138,44,1002,-13,6,-2
706,16,49,1002,-12,23,1
707,-103,42,1001,-14,22,-1
708,-148,14,987,-17,4,-2
709,-68,13,983,-16,-16,-6
710,73,21,1003,-15,-24,-9
711,151,34,1001,-14,-12,-6
712,117,46,1001,-13,9,-2
713,-4,43,1006,-13,23,1
714,-123,28,1002,-14,17,2
715,-129,9,979,-15,-2,-4
716,-35,10,982,-13,-19,-7
717,89,30,1009,-14,-24,-7
718,157,44,1002,-13,-7,-7
719,99,46,1005,-13,15,1
720,-35,48,1002,-15,24,2
721,-119,26,989,-15,15,-2
722,-128,10,974,-18,-4,-2
723,-23,13,1000,-15,-20,-7
724,121,19,1005,-13,-21,-8
725,145,47,998,-12,-2,-3
726,89,50,1007,-11,15,-1
727,-50,43,1003,-13,25,1
728,-142,24,980,-17,12,0
729,-115,18,980,-16,-8,-5
730,4,9,1003,-16,-23,-10
731,129,29,1008,-11,-19,-8
732,159,45,998,-12,0,-4
733,63,48,996,-11,20,0
734,-66,39,1010,-14,24,1
735,-160,29,982,-16,11,-1
736,-97,11,986,-16,-11,-6
737,29,23,1007,-15,-24,-9
738,136,27,998,-17,-18,-7
739,152,44,1001,-12,4,-4
740,27,45,998,-15,21,3
741,-92,42,1002,-16,20,1
742,-152,13,988,-18,7,-3
743,-75,14,989,-17,-14,-6
744,63,20,999,-14,-23,-9
745,149,40,1000,-13,-11,-6
746,123,49,1002,-13,7,-1
747,3,56,1003,-14,22,1
748,-114,29,1006,-16,19,1
749,-137,13,972,-17,0,-5
750,-46,4,991,-17,-18,-7
751,85,21,1003,-15,-23,-7
752,152,46,1006,-11,-9,-7
753,111,50,1005,-13,13,0
754,-24,47,1000,-13,24,2
755,-125,26,990,-16,16,-1
756,-129,7,983,-18,-4,-3
757,-35,7,982,-14,-21,-8
758,116,28,1013,-14,-23,-9
759,153,36,1000,-12,-4,-5
760,95,57,1007,-10,17,1
761,-41,47,995,-14,26,0
762,-152,30,987,-16,16,0
763,-118,7,980,-18,-10,-5
764,-11,13,1001,-16,-22,-8
765,134,21,1014,-14,-22,-9
766,163,43,989,-13,0,-4
767,75,44,1001,-11,21,0
768,-70,45,1011,-13,25,3
769,-160,19,976,-17,11,-3
770,-106,14,990,-15,-11,-6
771,26,18,1001,-17,-26,-9
772,139,34,1009,-12,-17,-8
773,160,51,992,-13,3,-4
774,40,46,1005,-12,24,1
775,-89,37,997,-14,23,0
776,-151,12,991,-16,7,-3
777,-87,10,991,-16,-14,-6
778,54,21,996,-15,-24,-7
779,156,31,1000,-12,-14,-8
780,130,57,1006,-11,10,-1
781,15,58,1003,-13,25,2
782,-113,37,1006,-15,23,0
783,-152,5,974,-18,3,-1
784,-60,5,984,-14,-16,-7
785,77,16,1004,-14,-24,-8
786,148,42,999,-9,-9,-6
787,127,51,1006,-12,12,-3
788,-13,54,1006,-14,26,2
789,-127,35,987,-15,18,-1
790,-135,12,984,-17,-2,-4
791,-41,11,985,-15,-20,-7
792,103,27,1007,-14,-22,-9
793,155,38,1005,-14,-6,-5
794,97,44,1012,-11,14,-1
795,-33,41,993,-14,24,1
796,-140,25,986,-15,16,0
797,-114,20,985,-13,-8,-5
798,-20,21,994,-16,-21,-7
799,119,31,1006,-13,-20,-7
800,156,38,1003,-14,-2,-5
801,72,45,999,-15,20,0
802,-50,30,1006,-13,24,2
803,-152,16,980,-14,12,-2
804,-102,18,986,-11,-10,-7
805,18,18,1002,-13,-22,-8
806,127,38,1006,-11,-17,-6
807,161,48,1001,-11,1,-5
808,41,46,1000,-13,22,3
809,-80,34,999,-15,23,2
810,-154,14,988,-16,9,-2
811,-93,8,989,-15,-13,-5
812,50,18,996,-14,-27,-8
813,149,31,994,-13,-14,-6
814,143,55,1014,-12,7,-1
815,25,54,998,-14,24,1
816,-111,43,1006,-13,24,1
817,-153,11,984,-18,4,-1
818,-71,6,985,-17,-16,-6
819,72,17,994,-14,-25,-7
820,154,42,1012,-11,-10,-7
821,141,51,998,-14,10,-3
822,-11,49,1005,-13,26,3
823,-119,36,1001,-18,19,-2
824,-147,-2,977,-16,0,-3
825,-54,13,977,-14,-19,-6
826,96,19,1016,-15,-24,-8
827,159,53,1002,-11,-8,-7
828,113,38,1010,-13,14,0
829,-22,56,996,-12,25,1
830,-140,19,989,-17,17,1
831,-131,15,979,-17,-4,-5
832,-30,6,994,-16,-22,-6
833,111,30,1007,-13,-23,-8
834,164,44,1004,-13,-4,-5
835,95,48,1002,-14,18,-1
836,-49,38,1000,-15,27,4
837,-148,19,985,-14,14,-3
838,-118,11,977,-18,-8,-5
839,-5,17,1006,-14,-23,-8
840,135,35,1007,-13,-21,-10
841,158,48,1002,-13,0,-4
842,70,54,992,-12,20,1
843,-80,41,1014,-17,25,3
844,-152,19,978,-17,10,-2
845,-108,6,992,-16,-10,-5
846,31,19,1000,-14,-25,-8
847,146,25,998,-14,-16,-6
848,157,47,1008,-11,5,-5
849,33,51,995,-15,24,4
850,-92,44,1011,-14,24,0
851,-157,6,983,-17,6,-3
852,-88,14,981,-14,-15,-6
853,60,11,1003,-13,-26,-9
854,154,46,1005,-11,-13,-8
855,144,48,1002,-13,8,-1
856,8,53,1004,-14,25,3
857,-117,20,1007,-18,22,0
858,-152,13,971,-13,3,-3
859,-62,3,980,-14,-18,-7
860,82,32,1010,-13,-24,-7
861,164,44,1005,-13,-11,-7
862,121,53,1005,-13,12,0
863,-10,48,1003,-16,25,1
864,-136,21,988,-15,19,0
865,-137,9,975,-15,-2,-4
866,-40,4,989,-14,-21,-8
867,105,33,1006,-12,-23,-8
868,161,45,1007,-11,-7,-6
869,102,61,1005,-10,16,0
870,-34,52,1000,-15,26,2
871,-146,27,986,-18,17,-1
872,-122,0,979,-17,-5,-6
873,-17,6,998,-15,-21,-7
874,122,27,1012,-12,-21,-7
875,165,47,999,-9,-2,-5
876,75,59,997,-11,20,2
877,-67,49,1012,-15,26,2
878,-150,22,981,-16,11,-1
879,-114,11,984,-16,-10,-6
880,16,13,996,-16,-24,-8
881,142,32,1005,-14,-18,-7
882,159,39,996,-14,2,-3
883,46,51,1004,-13,22,2
884,-82,28,996,-17,25,0
885,-157,18,993,-14,10,-2
886,-91,16,980,-16,-14,-6
887,47,20,998,-13,-24,-10
888,151,41,1010,-12,-16,-7
889,138,50,995,-14,7,-1
890,16,50,1010,-14,24,0
891,-114,27,1006,-18,21,1
892,-144,6,972,-17,2,-4
893,-66,-4,986,-13,-16,-7
894,79,35,1002,-12,-24,-7
895,161,32,1006,-12,-10,-6
896,120,65,1003,-8,13,-1
897,-8,57,1007,-16,24,2
898,-130,28,991,-16,20,-1
899,-140,12,974,-17,0,-2
900,-42,-2,991,-17,-20,-8
901,101,23,1002,-13,-23,-7
902,161,39,1006,-13,-7,-5
903,105,60,1011,-10,15,0
904,-34,52,996,-14,25,1
905,-142,31,986,-18,16,-1
906,-123,8,981,-17,-6,-6
907,-22,6,995,-17,-22,-7
908,118,27,1010,-13,-21,-8
909,164,41,998,-14,-3,-5
910,83,50,996,-14,19,1
911,-60,41,1008,-13,25,4
912,-149,24,980,-17,12,-3
913,-107,11,984,-16,-9,-6
914,13,19,1000,-14,-23,-7
915,133,30,1009,-15,-19,-7
916,150,43,990,-13,1,-3
917,42,57,1005,-15,22,1
918,-77,36,1000,-18,21,0
919,-147,15,992,-16,8,-2
920,-80,6,985,-17,-12,-6
921,50,17,1004,-13,-22,-8
922,144,37,995,-10,-13,-7
923,126,51,1005,-13,7,-2
924,18,54,1005,-14,23,2
925,-107,41,1011,-17,22,0
926,-135,7,973,-19,4,-4
927,-50,5,989,-14,-16,-8
928,66,19,996,-14,-22,-7
929,150,40,1007,-12,-8,-6
930,116,48,997,-14,11,-1
931,-20,52,1010,-13,24,3
932,-116,31,995,-16,16,-1
933,-132,12,978,-18,-1,-2
934,-37,6,988,-17,-21,-8
935,94,26,1002,-15,-22,-6
936,168,34,1010,-13,-6,-6
937,95,46,1001,-13,18,2
938,-32,45,1005,-13,25,1
939,-142,24,981,-15,17,0
940,-130,18,982,-17,-6,-5
941,-16,7,993,-16,-22,-9
942,120,42,1012,-13,-20,-8
943,170,44,1001,-15,-4,-5
944,81,46,1000,-12,20,0
945,-55,29,1005,-16,25,1
946,-158,17,986,-13,12,-2
947,-113,8,978,-14,-10,-6
948,9,29,1001,-12,-23,-8
949,137,33,1015,-14,-18,-8
950,159,50,991,-14,1,-4
951,49,53,1002,-14,21,1
952,-79,36,1004,-18,24,1
953,-160,11,982,-16,8,-3
954,-79,3,993,-15,-13,-7
955,39,14,1000,-14,-23,-8
956,146,40,995,-9,-15,-8
957,142,59,1008,-10,5,-2
958,13,61,1004,-15,23,2
959,-105,32,996,-19,20,2
960,-143,10,994,-17,4,-3
961,-61,0,976,-15,-16,-5
962,71,12,999,-12,-23,-7
963,156,35,1005,-9,-11,-7
964,120,59,1002,-10,10,0
965,-9,57,1000,-11,24,2
966,-123,43,1001,-16,18,-1
967,-133,6,975,-18,-2,-5
968,-41,7,984,-15,-19,-6
969,95,16,1006,-15,-24,-9
970,158,39,1008,-11,-6,-5
971,98,49,1002,-12,15,0
972,-29,47,1003,-13,24,1
973,-131,29,993,-14,16,1
974,-123,9,974,-16,-4,-4
975,-19,14,996,-15,-19,-8
976,114,29,1010,-14,-20,-8
977,153,35,996,-12,-1,-4
978,74,48,1000,-12,18,1
979,-53,40,1005,-14,23,2
980,-142,30,983,-15,12,-2
981,-105,12,978,-16,-9,-5
982,9,20,1009,-14,-22,-8
983,127,25,1004,-12,-17,-7
984,148,42,996,-11,2,-3
985,47,46,999,-13,19,0
986,-81,46,1003,-13,22,1
987,-141,23,986,-18,6,-3
988,-88,13,991,-15,-12,-5
989,44,11,1000,-15,-24,-8
990,143,31,999,-11,-14,-8
991,130,49,997,-9,5,-3
992,22,52,1001,-14,22,2
993,-101,38,1002,-13,21,0
994,-139,25,988,-16,3,-4
995,-60,3,984,-15,-15,-7
996,65,25,1002,-13,-22,-8
997,153,28,1001,-14,-11,-7
998,114,51,1001,-10,10,-2
999,-8,47,1006,-14,23,2
1000,-116,37,1000,-15,19,-1
1001,-135,7,980,-16,0,-3
1002,-34,10,978,-13,-17,-8
1003,89,28,1017,-14,-20,-8
1004,153,39,999,-13,-6,-5
1005,97,59,1003,-12,14,-1
1006,-28,42,1003,-14,24,0
1007,-134,28,989,-17,14,0
1008,-114,5,971,-16,-6,-4
1009,-18,7,1002,-13,-20,-6
1010,115,37,1002,-12,-21,-7
1011,155,35,1005,-12,-2,-5
1012,72,61,1004,-10,18,1
1013,-50,41,1003,-15,25,2
1014,-145,27,982,-15,13,-1
1015,-108,6,978,-18,-9,-5
1016,7,12,1006,-12,-21,-8
1017,134,24,1010,-7,-19,-8
1018,151,42,989,-12,2,-4
1019,53,51,1004,-9,21,0
1020,-73,44,1006,-16,23,1
1021,-151,18,976,-13,11,-1
1022,-91,12,986,-16,-12,-5
1023,38,16,1009,-13,-23,-7
1024,139,31,1000,-10,-16,-7
1025,145,50,996,-14,4,-2
1026,24,56,1002,-12,23,1
1027,-100,32,1002,-15,22,1
1028,-150,14,984,-17,5,-3
1029,-70,3,992,-16,-15,-5
1030,60,15,994,-13,-23,-8
1031,154,43,1003,-11,-11,-6
1032,124,47,1004,-11,10,-1
1033,-6,67,1009,-12,23,2
1034,-110,28,998,-17,18,0
1035,-143,21,983,-18,2,-2
1036,-45,-1,978,-19,-17,-6
1037,84,22,1007,-14,-21,-8
1038,155,28,1012,-16,-9,-7
1039,104,58,991,-9,14,-1
1040,-23,49,1007,-14,24,1
1041,-130,34,997,-14,17,0
1042,-126,17,972,-18,-4,-2
1043,-18,5,996,-18,-21,-8
1044,103,32,1006,-14,-21,-6
1045,153,38,1003,-14,-4,-5
1046,84,46,1003,-14,16,0
1047,-47,40,1003,-12,23,1
1048,-135,30,980,-14,14,-2
1049,-111,7,986,-18,-5,-4
1050,3,21,1002,-15,-22,-7
1051,120,28,1008,-15,-17,-7
1052,152,43,998,-13,0,-4
1053,59,46,993,-12,20,1
1054,-69,45,1012,-15,23,0
1055,-149,23,976,-16,11,-1
1056,-91,20,990,-18,-11,-6
1057,30,7,1003,-18,-23,-8
1058,131,29,1004,-13,-15,-6
1059,148,39,997,-12,4,-6
1060,26,52,1000,-12,22,2
1061,-89,45,1001,-15,21,0
1062,-145,14,987,-17,5,-3
1063,-77,8,995,-15,-15,-6
1064,60,20,994,-14,-25,-8
1065,148,31,1000,-13,-12,-7
1066,126,48,1006,-11,8,0
1067,5,49,998,-14,23,2
1068,-114,32,1007,-13,22,0
1069,-139,15,979,-18,0,-3
1070,-47,9,985,-14,-17,-7
1071,84,24,1001,-16,-24,-9
1072,148,33,1005,-16,-8,-6
1073,110,51,1004,-11,13,-1
1074,-17,45,1005,-16,24,1
1075,-129,30,993,-14,19,-2
1076,-123,12,978,-17,-3,-4
1077,-36,5,991,-14,-18,-8
1078,107,30,1000,-14,-22,-8
1079,151,38,1010,-13,-4,-4
1080,86,55,1005,-12,16,1
1081,-44,37,1001,-16,23,0
1082,-136,29,983,-14,14,-2
1083,-114,7,987,-16,-7,-5
1084,-3,17,994,-16,-21,-8
1085,121,30,1010,-14,-19,-7
1086,152,44,996,-13,-1,-5
1087,66,48,1000,-13,19,2
1088,-67,43,998,-14,24,0
1089,-145,20,987,-17,12,-2
1090,-95,9,981,-16,-10,-5
1091,20,21,1004,-15,-22,-7
1092,136,28,1008,-13,-16,-7
1093,144,50,996,-10,5,-4
1094,35,56,1001,-14,21,2
1095,-85,37,1001,-17,21,1
1096,-152,13,983,-16,7,-2
1097,-70,12,993,-16,-15,-7
1098,56,14,996,-14,-23,-7
1099,141,34,997,-12,-13,-5
1100,136,48,1007,-14,7,-2
1101,-2,53,1001,-13,23,1
1102,-105,28,1000,-16,19,-1
1103,-137,15,986,-18,2,-2
1104,-55,9,979,-17,-18,-5
1105,82,23,1006,-14,-23,-8
1106,154,39,1005,-15,-10,-6
1107,110,43,998,-14,12,1
1108,-17,59,1005,-13,24,1
1109,-121,22,1000,-18,18,0
1110,-131,15,970,-15,0,-3
1111,-31,4,991,-17,-19,-6
1112,104,26,1012,-13,-22,-9
1113,150,36,1004,-10,-6,-4
1114,97,58,1002,-10,15,0
1115,-43,45,1009,-15,25,1
1116,-132,29,980,-16,14,-1
1117,-112,10,983,-17,-6,-5
1118,-17,4,990,-16,-21,-7
1119,121,28,1013,-13,-21,-7
1120,155,37,996,-12,-2,-6
1121,65,53,1000,-10,19,2
1122,-57,49,1004,-12,23,0
1123,-144,26,984,-17,12,-2
1124,-109,18,976,-16,-9,-4
1125,21,12,1015,-16,-23,-9
1126,128,23,1003,-17,-16,-7
1127,148,37,998,-12,4,-3
1128,48,53,992,-9,20,1
1129,-81,36,1011,-13,24,1
1130,-147,32,984,-15,8,-2
1131,-92,8,990,-18,-12,-5
1132,50,21,1001,-14,-24,-9
1133,144,26,996,-15,-14,-5
1134,130,46,1003,-12,6,-3
1135,22,46,1001,-13,22,2
1136,-104,31,1004,-14,21,2
1137,-141,20,984,-17,4,-1
1138,-59,8,990,-15,-15,-7
1139,67,30,995,-13,-22,-8
1140,150,39,1003,-15,-11,-7
1141,115,47,1004,-12,10,-2
1142,-12,45,996,-15,23,2
1143,-115,30,1008,-15,18,-2
1144,-136,8,978,-17,0,-4
1145,-35,2,983,-16,-19,-8
1146,90,22,1011,-12,-20,-8
1147,148,47,999,-11,-6,-6
1148,105,52,1007,-14,14,-1
1149,-42,57,1001,-14,26,3
1150,-128,29,985,-18,14,0
1151,-116,4,979,-17,-5,-4
1152,-27,2,994,-17,-20,-5
1153,117,20,1004,-13,-21,-8
1154,150,33,1004,-10,-2,-4
1155,75,55,999,-10,18,2
1156,-48,44,1004,-13,24,0
1157,-147,28,988,-15,13,0
1158,-108,15,978,-17,-10,-3
1159,9,17,1002,-15,-23,-9
1160,129,22,1016,-16,-19,-6
1161,156,44,991,-12,1,-4
1162,55,47,997,-13,22,2
1163,-75,41,1005,-14,22,1
1164,-154,23,985,-15,9,-2
1165,-94,11,988,-15,-12,-6
1166,43,25,1001,-14,-23,-9
1167,137,22,1000,-15,-14,-5
1168,147,51,1004,-10,5,-3
1169,30,43,998,-14,23,2
1170,-103,42,1005,-13,24,1
1171,-146,15,982,-18,5,-2
1172,-80,6,995,-14,-16,-7
1173,71,19,987,-15,-25,-10
1174,151,35,1009,-13,-11,-6
1175,133,51,1005,-11,8,-2
1176,-1,50,997,-14,25,3
1177,-112,40,1005,-14,21,0
1178,-141,8,980,-19,2,-4
1179,-53,9,981,-17,-18,-7
1180,89,13,1004,-14,-23,-9
1181,150,40,1012,-12,-7,-6
1182,111,49,997,-11,13,-1
1183,-25,49,1005,-12,25,2
1184,-128,37,995,-15,17,1
1185,-127,11,976,-18,-3,-3
1186,-23,11,991,-17,-22,-8
1187,103,24,1007,-17,-22,-7
1188,160,31,1002,-12,-4,-7
1189,86,46,1003,-12,16,0
1190,-47,40,1001,-12,23,2
1191,-138,29,985,-14,15,-2
1192,-118,9,982,-17,-7,-4
1193,1,26,999,-14,-22,-8
1194,122,25,1008,-15,-19,-8
1195,154,45,1004,-13,0,-5
1196,67,45,991,-13,20,2
1197,-70,42,1010,-14,25,1
1198,-146,13,982,-17,11,-1
1199,-104,17,991,-14,-10,-5
1200,32,13,1001,-15,-24,-9
1201,137,29,1003,-13,-16,-7
1202,147,54,996,-10,4,-3
1203,32,47,1003,-14,23,1
1204,-86,45,1001,-14,21,0
1205,-157,6,985,-19,7,-1
1206,-75,11,989,-16,-14,-7
1207,61,11,999,-16,-24,-7
1208,148,37,997,-11,-12,-6
1209,132,49,1004,-13,8,-2
1210,7,50,1004,-14,24,1
1211,-115,37,1005,-15,20,1
1212,-146,18,973,-16,0,-3
1213,-43,0,987,-17,-18,-8
1214,76,16,1005,-13,-22,-7
1215,155,41,1000,-13,-8,-6
1216,117,45,1007,-11,13,-2
1217,-20,55,1001,-13,24,2
1218,-122,32,991,-17,17,0
1219,-129,13,981,-17,-2,-3
1220,-26,7,989,-16,-19,-8
1221,102,26,1005,-16,-20,-7
1222,151,34,1007,-14,-5,-6
1223,89,48,1000,-11,17,0
1224,-55,41,1005,-13,24,2
1225,-127,32,981,-13,13,-2
1226,-113,8,985,-16,-5,-4
1227,-10,23,998,-17,-22,-6
1228,124,32,1013,-14,-18,-7
1229,150,33,995,-14,1,-4
1230,59,49,993,-12,19,1
1231,-63,34,1008,-14,22,0
1232,-144,22,986,-17,10,-1
1233,-93,16,977,-17,-11,-6
1234,29,24,1011,-14,-22,-9
1235,136,31,1002,-16,-16,-7
1236,137,44,990,-13,5,-2
1237,26,50,1006,-16,21,1
1238,-87,29,1004,-16,21,0
1239,-145,18,983,-16,6,-2
1240,-76,7,989,-15,-14,-5
1241,66,22,1008,-15,-23,-9
1242,146,37,993,-11,-12,-6
1243,122,48,1000,-12,8,-1
1244,2,53,1012,-14,23,2
1245,-117,33,998,-15,19,-2
1246,-137,10,982,-19,0,-3
1247,-41,6,987,-16,-17,-6
1248,80,21,1002,-13,-23,-8
1249,155,36,1001,-13,-9,-8
1250,108,56,1005,-11,13,-1
1251,-18,51,1002,-14,25,0
1252,-127,30,998,-15,17,0
1253,-131,11,972,-18,-2,-2
1254,-31,3,993,-16,-19,-7
1255,106,27,1009,-15,-21,-9
1256,158,36,999,-13,-4,-5
1257,91,55,1006,-12,16,-1
1258,-40,48,1002,-13,24,1
1259,-144,31,978,-15,16,-1
1260,-118,13,987,-17,-7,-4
1261,-4,7,995,-15,-22,-8
1262,119,25,1009,-14,-19,-7
1263,161,40,999,-11,-1,-5
1264,69,50,996,-11,20,1
1265,-62,47,1008,-11,24,1
1266,-144,23,983,-17,12,-1
1267,-110,15,984,-17,-8,-6
1268,22,17,1008,-17,-24,-10
1269,136,23,1001,-15,-17,-8
1270,147,41,996,-11,2,-4
1271,43,50,1004,-12,22,1
1272,-86,50,998,-13,22,0
1273,-146,20,984,-16,6,-3
1274,-88,11,996,-18,-13,-6
1275,52,19,995,-16,-24,-8
1276,145,33,993,-13,-13,-7
1277,136,44,1009,-12,5,-3
1278,8,54,999,-12,22,2
1279,-108,42,1001,-15,20,0
1280,-140,15,985,-18,3,-2
1281,-65,6,983,-18,-17,-5
1282,81,20,1002,-15,-23,-9
1283,149,27,1004,-12,-10,-6
1284,124,51,999,-11,10,-1
1285,-12,51,1006,-13,25,1
1286,-123,37,1001,-16,19,1
1287,-133,17,973,-16,-1,-3
1288,-45,10,993,-16,-19,-8
1289,103,18,1006,-15,-23,-9
1290,154,38,999,-12,-6,-6
1291,104,38,1009,-13,14,0
1292,-31,48,1001,-12,25,3
1293,-135,29,985,-13,17,0
1294,-126,16,983,-16,-5,-4
1295,-17,21,997,-17,-22,-9
1296,115,22,1008,-17,-20,-8
1297,159,41,997,-15,-3,-5
1298,79,45,1005,-14,19,2
1299,-52,34,997,-13,25,0
1300,-155,23,991,-15,13,-1
1301,-105,13,976,-14,-10,-6
1302,13,20,1006,-14,-23,-8
1303,125,34,1005,-14,-18,-6
1304,160,51,998,-13,2,-4
1305,50,41,993,-15,22,1
1306,-83,41,1008,-14,24,2
1307,-146,6,982,-17,8,-3
1308,-99,16,986,-12,-11,-6
1309,44,24,1007,-12,-25,-10
1310,148,33,992,-13,-15,-7
1311,141,49,1005,-13,6,-3
1312,22,51,1001,-14,22,2
1313,-107,41,1004,-16,23,0
1314,-144,4,987,-17,4,-3
1315,-71,10,978,-15,-15,-5
1316,70,15,1002,-13,-25,-10
1317,155,41,1008,-10,-12,-7
1318,120,54,995,-12,10,-1
1319,-2,51,1008,-12,24,1
1320,-123,34,1004,-15,19,1
1321,-133,13,974,-17,0,-2
1322,-46,2,982,-16,-17,-6
1323,94,24,1011,-12,-23,-8
1324,157,33,1007,-11,-8,-6
1325,101,51,997,-11,14,0
1326,-21,47,1009,-14,24,0
1327,-139,27,982,-16,17,0
1328,-121,16,980,-15,-6,-4
1329,-25,10,989,-16,-20,-9
1330,113,30,1013,-15,-22,-8
1331,159,41,996,-14,-2,-5
1332,83,49,1006,-12,18,0
1333,-43,38,999,-13,23,1
1334,-154,20,989,-16,14,0
1335,-110,11,977,-17,-9,-6
1336,-3,13,1007,-14,-23,-8
1337,134,36,1005,-13,-21,-9
1338,161,43,1005,-13,0,-3
1339,59,55,988,-11,20,2
1340,-76,38,1020,-15,24,3
1341,-155,15,978,-17,10,-3
1342,-106,10,984,-16,-11,-4
1343,47,17,1006,-17,-26,-10
1344,139,36,993,-15,-16,-7
1345,155,52,1005,-12,3,-4
1346,29,49,1000,-15,24,2
1347,-106,37,1008,-15,23,2
1348,-145,16,981,-18,4,-2
1349,-88,-3,988,-19,-14,-5
1350,74,26,996,-15,-27,-9
1351,150,29,1007,-10,-9,-6
1352,135,57,1000,-22,11,0
1353,-3,46,1002,-16,25,2
1354,-120,36,1011,-13,20,-1
1355,-145,9,968,-19,2,-2
1356,-53,12,986,-16,-18,-8
1357,91,19,1009,-15,-24,-8
1358,153,44,996,-12,-8,-6
1359,116,49,1012,-12,13,-1
1360,-27,48,998,-14,27,3
1361,-130,32,992,-18,17,0
1362,-127,8,971,-16,-4,-4
1363,-32,14,996,-16,-20,-8
1364,116,32,1006,-17,-22,-9
1365,152,43,1003,-13,-3,-4
1366,89,49,1005,-14,16,0
1367,-50,27,995,-14,24,2
1368,-142,20,991,-13,13,-1
1369,-108,11,979,-14,-8,-5
1370,-1,19,999,-14,-21,-8
1371,128,28,1011,-13,-19,-7
1372,154,46,996,-11,2,-4
1373,56,53,993,-13,20,1
1374,-66,40,1015,-16,21,1
1375,-158,16,977,-16,10,-1
1376,-97,11,986,-17,-12,-6
1377,42,12,1010,-16,-25,-11
1378,133,28,995,-13,-16,-6
1379,153,48,999,-13,4,-4
1380,27,50,1003,-14,24,2
1381,-93,37,1003,-17,21,0
1382,-155,11,981,-16,5,-1
1383,-77,14,994,-15,-15,-6
1384,63,18,995,-15,-24,-8
1385,146,39,998,-10,-13,-6
1386,139,51,1005,-16,7,-1
1387,2,43,1002,-14,25,3
1388,-117,32,1006,-15,20,0
1389,-140,9,975,-17,1,-3
1390,-51,7,986,-13,-18,-7
1391,85,21,1004,-15,-22,-7
1392,154,50,1005,-12,-6,-5
1393,108,52,1004,-12,15,1
1394,-21,50,1001,-16,24,2
1395,-129,23,996,-16,18,0
1396,-130,5,971,-16,-2,-4
1397,-31,9,995,-16,-20,-7
1398,104,28,1005,-12,-21,-8
1399,155,47,1001,-13,-3,-6
1400,98,50,1008,-12,16,0
1401,-46,44,1000,-16,27,2
1402,-142,25,981,-16,14,-1
1403,-121,17,983,-16,-8,-4
1404,-7,13,998,-15,-23,-8
1405,126,26,1009,-14,-21,-7
1406,159,34,998,-12,-1,-5
1407,72,51,997,-12,19,2
1408,-63,33,1007,-13,24,2
1409,-160,27,980,-13,12,-2
1410,-104,17,990,-16,-10,-5
1411,25,23,999,-15,-23,-8
1412,137,31,1005,-16,-17,-6
1413,158,38,997,-12,3,-4
1414,40,48,1002,-12,22,0
1415,-92,38,1002,-15,22,3
1416,-152,14,985,-14,8,-3
1417,-89,7,995,-17,-14,-7
1418,50,22,993,-14,-23,-7
1419,154,32,1003,-13,-13,-8
1420,134,53,1004,-12,9,-1
1421,9,47,1000,-12,24,4
1422,-110,39,1011,-14,20,-1
1423,-145,2,974,-19,2,-3
1424,-59,9,984,-13,-17,-7
1425,80,18,1006,-17,-24,-9
1426,150,41,1001,-10,-8,-6
1427,112,52,1002,-12,12,0
1428,-19,44,1007,-15,24,1
1429,-127,32,992,-16,17,0
1430,-126,12,978,-17,-2,-4
1431,-27,10,987,-17,-19,-7
1432,96,22,1007,-13,-19,-7
1433,155,41,1003,-10,-5,-6
1434,85,47,1008,-10,17,0
1435,-39,48,996,-13,23,2
1436,-141,22,989,-15,14,0
1437,-111,20,977,-17,-8,-6
1438,-1,11,1008,-16,-20,-8
1439,115,33,1004,-13,-18,-8
1440,156,38,998,-12,-1,-6
1441,68,49,998,-11,20,1
1442,-68,45,1007,-15,24,2
1443,-146,21,983,-17,10,-3
1444,-103,11,991,-16,-9,-6
1445,23,20,994,-14,-22,-7
1446,142,27,1011,-13,-16,-7
1447,144,42,992,-12,5,-3
1448,33,56,1006,-12,23,4
1449,-82,37,996,-17,22,-1
1450,-158,18,992,-19,8,-2
1451,-69,10,985,-18,-14,-6
1452,48,20,1001,-17,-22,-7
1453,151,32,996,-14,-14,-7
1454,135,41,1009,-12,9,-2
1455,6,49,993,-14,25,2
1456,-108,33,1010,-13,22,1
1457,-147,20,978,-17,3,-3
1458,-55,4,982,-15,-16,-6
1459,80,32,1009,-11,-23,-6
1460,147,37,997,-15,-9,-4
1461,115,55,1006,-11,12,-1
1462,-15,39,1006,-16,24,2
1463,-131,32,993,-16,18,0
1464,-125,8,985,-16,-2,-4
1465,-30,12,990,-14,-20,-7
1466,102,27,1000,-13,-20,-6
1467,152,44,1004,-11,-4,-4
1468,96,51,1012,-12,15,1
1469,-40,41,992,-15,24,3
1470,-139,25,992,-16,15,-1
1471,-115,7,980,-16,-6,-5
1472,-5,15,1001,-13,-22,-8
1473,117,25,999,-13,-20,-6
1474,158,48,1011,-13,0,-5
1475,74,43,993,-14,18,1
1476,-74,42,1004,-12,25,2
1477,-145,16,983,-16,10,-3
1478,-112,15,989,-16,-9,-4
1479,27,20,994,-15,-23,-9
1480,138,30,1015,-16,-17,-6
1481,152,46,993,-12,3,-4
1482,42,49,997,-16,23,2
1483,-87,32,1005,-16,23,1
1484,-158,14,989,-15,7,0
1485,-77,13,987,-15,-15,-9
1486,46,17,997,-15,-24,-7
1487,150,38,1002,-12,-14,-8
1488,136,50,1007,-12,7,-2
1489,12,55,998,-14,23,2
1490,-111,33,1006,-17,21,1
1491,-145,9,989,-17,2,-4
1492,-60,2,973,-16,-17,-6
1493,74,18,1011,-13,-22,-10
1494,161,40,1002,-12,-10,-6
1495,115,49,999,-10,13,-1
1496,-12,50,1006,-13,24,2
1497,-127,41,1005,-16,19,0
1498,-132,16,967,-17,-2,-5
1499,-37,8,992,-15,-18,-6
1500,101,26,1009,-15,-23,-8
1501,158,29,1002,-14,-5,-6
1502,99,52,1002,-9,15,2
1503,-39,38,1005,-15,25,1
1504,-131,28,980,-13,15,-2
1505,-130,15,988,-15,-4,-3
1506,-9,23,989,-15,-22,-9
1507,117,24,1015,-15,-18,-7
1508,153,41,998,-12,-1,-3
1509,80,43,995,-14,19,0
1510,-64,35,1007,-14,24,3
1511,-145,21,983,-15,12,-1
1512,-106,16,983,-14,-8,-6
1513,17,18,1004,-16,-23,-8
1514,134,33,1009,-14,-16,-7
1515,149,40,997,-12,3,-4
1516,37,50,996,-12,21,2
1517,-79,34,1008,-16,22,0
1518,-153,15,988,-16,9,-2
1519,-83,11,984,-14,-13,-5
1520,49,23,1005,-13,-23,-8
1521,153,31,995,-12,-14,-7
1522,133,51,1006,-10,9,-2
1523,15,57,1002,-15,23,2
1524,-115,26,1006,-17,23,1
1525,-146,16,978,-16,3,-3
1526,-55,0,990,-15,-18,-7
1527,70,22,991,-10,-24,-8
1528,162,42,1014,-11,-10,-7
1529,121,50,998,-11,12,-1
1530,-19,58,1007,-13,25,3
1531,-123,29,999,-17,19,-2
1532,-144,17,983,-16,-2,-2
1533,-33,0,976,-17,-21,-8
1534,93,20,1011,-14,-21,-7
1535,163,39,1001,-13,-8,-7
1536,101,44,1007,-12,15,-1
1537,-31,43,1001,-12,25,2
1538,-140,33,986,-16,16,-1
1539,-125,14,981,-16,-7,-5
1540,-21,11,992,-15,-21,-8
1541,121,29,1010,-13,-22,-9
1542,157,41,1002,-12,-3,-5
1543,81,51,993,-12,17,0
1544,-51,38,1011,-13,24,1
1545,-153,19,977,-16,13,0
1546,-111,18,982,-15,-9,-4
1547,14,11,1007,-17,-23,-8
1548,124,37,1007,-14,-18,-6
1549,166,45,997,-14,1,-4
1550,47,47,996,-15,22,2
1551,-80,42,1012,-16,22,2
1552,-151,12,977,-17,9,-3
1553,-99,6,992,-16,-11,-6
1554,47,19,1005,-14,-24,-8
1555,142,30,990,-13,-13,-7
1556,147,51,1009,-11,5,-4
1557,21,59,1002,-13,22,2
1558,-103,39,1005,-15,22,0
1559,-149,9,985,-19,4,-1
1560,-73,1,980,-16,-16,-7
1561,70,9,1003,-15,-23,-8
1562,151,37,1004,-11,-10,-6
1563,127,52,1004,-11,11,-2
1564,-1,58,1003,-11,25,3
1565,-125,37,1006,-16,20,1
1566,-141,11,970,-18,0,-3
1567,-50,5,997,-17,-21,-8
1568,93,16,997,-16,-25,-8
1569,154,40,1009,-12,-7,-6
1570,123,51,1005,-13,13,-2
1571,-33,44,1006,-14,28,4
1572,-134,32,978,-16,18,0
1573,-133,12,991,-18,-3,-3
1574,-29,15,989,-15,-21,-7
1575,110,27,1006,-16,-21,-7
1576,172,48,1009,-13,-4,-7
1577,91,36,1000,-15,17,2
1578,-47,45,1000,-14,26,1
1579,-148,16,991,-17,14,0
1580,-131,12,973,-15,-7,-5
1581,6,19,1004,-14,-23,-8
1582,130,25,1010,-13,-19,-7
1583,166,55,997,-12,1,-4
1584,72,52,1003,-16,21,1
1585,-85,36,1000,-16,25,1
1586,-155,13,989,-17,10,-2
1587,-106,8,985,-15,-11,-5
1588,32,19,999,-14,-25,-8
1589,149,35,1001,-13,-17,-8
1590,154,48,1002,-14,5,-3
1591,35,54,1003,-15,24,2
1592,-103,37,1011,-13,25,0
1593,-156,10,980,-17,6,-3
1594,-83,4,981,-14,-15,-6
1595,65,18,1002,-13,-26,-9
1596,158,41,1009,-11,-13,-6
1597,142,51,1000,-12,8,-1
1598,1,55,1001,-14,25,2
1599,-116,36,1006,-16,22,1
1600,-146,3,975,-19,1,-2
1601,-58,5,981,-15,-20,-6
1602,86,19,1006,-13,-25,-8
1603,163,49,1009,-9,-10,-6
1604,111,54,1003,-13,13,0
1605,-22,47,1003,-16,24,2
1606,-132,22,990,-16,17,-1
1607,-137,15,971,-16,-4,-4
1608,-24,3,996,-16,-21,-9
1609,109,25,1008,-13,-20,-7
1610,157,43,999,-13,-3,-4
1611,87,57,1005,-10,17,0
1612,-49,45,1001,-14,24,3
1613,-145,29,985,-14,14,-1
1614,-108,5,980,-16,-8,-6
1615,0,12,1004,-16,-20,-6
1616,131,27,1013,-13,-19,-7
1617,160,34,992,-12,1,-4
1618,48,58,995,-10,22,2
1619,-66,40,1011,-14,22,-1
1620,-156,18,980,-14,11,-1
1621,-98,18,990,-15,-12,-4
1622,46,21,1003,-14,-23,-10
1623,138,28,1002,-15,-13,-6
1624,141,43,992,-13,6,-1
1625,19,42,1010,-14,23,1
1626,-99,42,1003,-12,20,-1
1627,-147,15,983,-15,3,-3
1628,-67,8,989,-16,-17,-6
1629,64,24,997,-14,-23,-6
1630,153,43,1004,-12,-12,-7
1631,129,46,1004,-13,8,0
1632,-7,50,1002,-14,24,2
1633,-117,29,1004,-17,18,-1
1634,-130,10,974,-16,-1,-4
1635,-56,8,988,-15,-17,-6
1636,98,26,1001,-13,-24,-10
1637,153,40,1011,-14,-6,-5
1638,100,57,997,-12,14,0
1639,-28,43,1008,-15,24,0
1640,-125,26,985,-16,16,-2
1641,-129,17,984,-16,-3,-3
1642,-13,8,989,-17,-21,-9
1643,107,20,1012,-15,-19,-6
1644,156,46,995,-11,-5,-6
1645,82,46,1013,-13,18,1
1646,-51,44,993,-13,24,1
1647,-145,24,988,-16,13,1
1648,-105,9,978,-15,-10,-6
1649,5,12,1008,-14,-22,-7
1650,139,35,1003,-12,-19,-10
1651,140,39,998,-13,3,-2
1652,58,57,994,-12,20,-1
1653,-77,35,1008,-17,22,2
1654,-159,27,978,-16,9,-1
1655,-79,12,994,-17,-13,-6
1656,38,18,1000,-15,-23,-9
1657,146,32,1000,-14,-15,-6
1658,134,39,998,-12,7,-3
1659,20,52,1001,-12,23,2
1660,-95,37,1007,-15,21,1
1661,-145,19,983,-14,5,-3
1662,-64,12,983,-16,-15,-7
1663,71,30,1003,-14,-22,-8
1664,144,27,999,-15,-11,-6
1665,125,50,1001,-11,10,-2
1666,-11,38,1009,-16,25,3
1667,-119,32,996,-14,18,0
1668,-129,7,986,-17,0,-3
1669,-43,10,979,-14,-18,-6
1670,96,26,1010,-13,-22,-7
1671,152,44,1003,-12,-6,-6
1672,97,49,1004,-12,15,1
1673,-28,45,1000,-13,23,1
1674,-140,19,993,-16,16,1
1675,-123,18,972,-15,-3,-5
1676,-15,11,1000,-15,-20,-8
1677,116,26,1001,-13,-21,-8
1678,162,43,1007,-13,-3,-6
1679,75,48,995,-14,18,0
1680,-57,45,1014,-11,24,2
1681,-144,23,975,-16,12,-2
1682,-111,12,986,-15,-7,-4
1683,13,11,1000,-15,-24,-9
1684,135,26,1015,-13,-18,-7
1685,156,39,991,-12,1,-4
1686,52,59,998,-10,23,2
1687,-75,38,1011,-14,23,1
1688,-159,24,980,-15,10,-1
1689,-91,11,990,-5,-10,-5
1690,43,6,1005,-15,-24,-8
1691,145,27,998,-10,-15,-7
1692,144,46,997,-12,5,-3
1693,22,51,1005,-12,22,2
1694,-98,48,1005,-14,22,0
1695,-150,10,983,-19,5,-2
1696,-77,5,986,-14,-16,-7
1697,70,16,1003,-16,-24,-10
1698,150,36,1001,-12,-10,-7
1699,135,52,1001,-11,11,-3
1700,-10,51,1009,-15,26,3
1701,-121,40,1003,-15,19,0
1702,-140,10,971,-16,0,-4
1703,-51,2,995,-16,-17,-8
1704,90,26,1002,-13,-22,-8
1705,154,40,1003,-13,-8,-6
1706,110,50,1008,-11,14,0
1707,-32,49,1001,-15,26,2
1708,-128,23,989,-16,17,-1
1709,-133,13,984,-14,-4,-2
1710,-23,11,987,-15,-22,-8
1711,114,26,1010,-15,-22,-7
1712,158,42,1001,-13,-3,-4
1713,80,50,1003,-14,18,0
1714,-48,46,1005,-14,25,0
1715,-145,19,983,-16,13,1
1716,-120,14,978,-17,-8,-5
1717,11,14,1010,-14,-22,-9
1718,127,21,1009,-15,-18,-8
1719,152,43,992,-13,0,-4
1720,65,43,1000,-12,20,0
1721,-79,49,1009,-13,24,1
1722,-147,25,979,-15,8,-2
1723,-95,17,993,-17,-12,-5
1724,31,13,1004,-17,-24,-5
1725,152,27,998,-13,-15,-8
1726,135,33,999,-13,6,-3
1727,29,57,1005,-12,21,2
1728,-91,33,1002,-15,21,-1
1729,-154,23,988,-12,7,-2
1730,-66,13,989,-14,-15,-7
1731,64,17,999,-14,-21,-8
1732,143,36,1000,-12,-11,-5
1733,129,51,1003,-13,9,-4
1734,1,41,1006,-13,25,0
1735,-117,34,999,-14,20,2
1736,-134,12,984,-18,1,-4
1737,-46,6,985,-14,-18,-7
1738,87,27,1003,-14,-23,-8
1739,153,40,1007,-14,-8,-7
1740,110,48,1006,-12,12,-1
1741,-29,45,999,-16,25,2
1742,-129,23,991,-13,16,-1
1743,-131,12,981,-14,-4,-3
1744,-26,12,992,-14,-22,-8
1745,116,29,1008,-14,-22,-8
1746,154,44,1003,-14,-3,-4
1747,86,45,1005,-14,17,0
1748,-44,38,1004,-12,25,1
1749,-151,19,982,-16,14,0
1750,-113,16,978,-12,-8,-6
1751,2,16,1008,-15,-24,-9
1752,130,34,1004,-13,-19,-8
1753,156,46,997,-12,2,-4
1754,68,50,1006,-13,21,0
1755,-81,41,998,-15,25,2
1756,-155,19,986,-17,10,-2
1757,-97,8,989,-18,-12,-5
1758,29,24,999,-15,-24,-8
1759,150,22,1007,-13,-18,-8
1760,154,50,998,-9,4,-4
1761,34,46,996,-12,22,2
1762,-95,46,1009,-13,24,1
1763,-151,16,984,-15,6,-2
1764,-83,10,981,-14,-15,-5
1765,61,18,1004,-14,-25,-8
1766,146,36,998,-14,-13,-5
1767,137,47,1003,-13,7,-2
1768,3,47,1006,-15,23,2
1769,-111,36,1006,-15,19,0
1770,-139,8,975,-15,2,-3
1771,-52,9,984,-16,-17,-7
1772,85,21,1004,-15,-23,-8
1773,152,43,1004,-10,-8,-7
1774,113,53,1003,-13,15,0
1775,-25,47,1005,-14,25,1
1776,-120,25,989,-16,17,-1
1777,-126,11,982,-17,-2,-3
1778,-32,5,982,-17,-19,-9
1779,109,30,1014,-13,-21,-9
1780,154,38,1001,-14,-4,-4
1781,84,61,1003,-11,17,0
1782,-39,39,1006,-15,25,0
1783,-154,26,987,-14,16,1
1784,-111,9,972,-17,-9,-4
1785,-2,16,1001,-17,-21,-7
1786,125,27,1012,-15,-20,-7
1787,163,44,998,-12,0,-4
1788,64,51,994,-13,21,2
1789,-69,40,1012,-15,25,3
1790,-169,25,980,-16,11,-3
1791,-99,5,980,-16,-12,-7
1792,25,22,1008,-16,-24,-7
1793,146,26,1001,-14,-17,-7
1794,160,37,995,-11,4,-4
1795,35,62,1005,-12,23,2
1796,-91,41,1002,-16,23,1
1797,-161,9,980,-17,9,-2
1798,-88,8,990,-15,-15,-6
1799,59,21,1000,-15,-25,-8
1800,159,30,997,-12,-14,-8
1801,137,45,1008,-13,7,-1
1802,15,52,1002,-12,24,0
1803,-119,36,1003,-14,22,1
1804,-144,8,977,-18,3,-3
1805,-64,8,984,-14,-17,-7
1806,78,22,1000,-13,-25,-8
1807,158,47,1006,-13,-10,-6
1808,126,54,1005,-12,12,-1
1809,-20,48,1002,-15,26,4
1810,-121,27,998,-16,17,0
1811,-139,5,972,-16,-1,-3
1812,-44,4,992,-15,-20,-8
1813,111,24,1003,-12,-24,-9
1814,149,43,1003,-12,-5,-5
1815,101,64,1008,-11,16,-1
1816,-30,41,1006,-16,25,2
1817,-144,28,972,-17,16,1
1818,-117,12,994,-17,-7,-6
1819,-8,2,990,-18,-22,-10
1820,116,23,1013,-12,-19,-6
1821,159,42,991,-12,-1,-6
1822,64,53,1011,-10,20,2
1823,-55,53,993,-13,23,1
1824,-155,23,992,-17,10,0
1825,-98,13,979,-17,-10,-7
1826,22,13,1010,-16,-21,-7
1827,132,24,996,-15,-17,-8
1828,149,39,1003,-9,4,-4
1829,40,48,999,-13,22,1
1830,-96,53,1003,-14,23,2
1831,-142,18,986,-16,6,-2
1832,-85,11,994,-17,-12,-5
1833,52,19,994,-16,-24,-8
1834,152,31,1001,-12,-12,-8
1835,130,44,1003,-13,6,-2
1836,7,53,997,-13,24,1
1837,-103,29,1015,-14,21,-1
1838,-146,26,975,-15,3,-2
1839,-51,0,981,-15,-15,-7
1840,75,23,1013,-13,-23,-7
1841,149,37,994,-14,-10,-5
1842,120,51,1007,-12,12,-3
1843,-24,48,1003,-13,25,3
1844,-121,31,999,-16,17,-1
1845,-128,11,972,-17,-2,-5
1846,-36,12,995,-16,-21,-6
1847,104,31,1001,-12,-22,-9
1848,156,34,1006,-14,-4,-7
1849,90,56,1003,-10,16,1
1850,-39,38,1003,-14,24,2
1851,-135,26,984,-15,15,0
1852,-119,11,980,-17,-8,-2
1853,-4,19,1000,-16,-21,-8
1854,118,27,1009,-12,-19,-7
1855,157,46,998,-13,-1,-5
1856,66,47,997,-15,19,1
1857,-66,39,1004,-14,23,1
1858,-147,15,988,-16,10,-1
1859,-103,14,975,-13,-11,-4
1860,23,19,1013,-15,-23,-8
1861,137,36,1003,-14,-18,-8
1862,150,45,991,-11,4,-2
1863,34,50,1003,-13,22,2
1864,-88,38,1004,-15,22,0
1865,-150,16,982,-15,8,-3
1866,-80,9,992,-15,-13,-5
1867,52,22,996,-13,-23,-7
1868,145,36,1002,-14,-14,-7
1869,132,39,999,-12,7,-3
1870,6,55,1005,-11,24,2
1871,-103,34,1003,-17,21,-1
1872,-146,18,980,-16,2,-2
1873,-56,9,985,-17,-17,-7
1874,77,15,1004,-15,-22,-8
1875,151,43,999,-13,-10,-6
1876,115,42,1004,-13,12,0
1877,-14,53,1005,-12,24,2
1878,-125,32,996,-16,18,0
1879,-127,13,981,-17,-2,-4
1880,-37,3,982,-18,-19,-7
1881,103,29,1009,-14,-22,-8
1882,149,38,1006,-13,-4,-4
1883,97,55,1000,-12,16,0
1884,-38,42,1009,-16,25,1
1885,-134,26,980,-17,15,0
1886,-116,5,983,-17,-6,-6
1887,-11,15,994,-15,-22,-8
1888,114,22,1013,-15,-19,-6
1889,160,47,991,-12,-2,-6
1890,66,49,1006,-12,19,3
1891,-64,54,1002,-12,22,1
1892,-142,18,989,-17,9,-1
1893,-103,13,979,-16,-10,-2
1894,16,15,1011,-17,-22,-7
1895,140,30,1004,-13,-17,-9
1896,144,37,992,-12,2,-2
1897,47,57,999,-11,20,0
1898,-87,36,1016,-15,24,0
1899,-152,26,974,-15,7,-2
1900,-84,6,996,-16,-13,-6
1901,56,20,1000,-15,-23,-8
1902,140,29,993,-14,-14,-5
1903,143,50,1002,-9,6,-5
1904,8,44,1009,-16,24,2
1905,-108,37,1000,-14,21,-1
1906,-137,15,984,-17,3,-3
1907,-62,6,980,-19,-16,-6
1908,74,23,1003,-12,-23,-9
1909,154,41,1007,-12,-10,-6
1910,109,50,997,-12,12,0
1911,-6,53,1006,-12,25,1
1912,-125,26,1004,-17,18,0
1913,-133,10,964,-15,-1,-3
1914,-32,6,996,-14,-20,-9
1915,98,28,1006,-14,-22,-7
1916,155,39,999,-11,-6,-6
1917,97,59,1007,-12,16,-1
1918,-37,38,1007,-15,25,1
1919,-141,26,979,-14,16,-1
1920,-118,9,981,-17,-6,-5
1921,-12,16,998,-14,-22,-8
1922,118,29,1009,-13,-21,-8
1923,156,42,999,-13,-3,-6
1924,74,52,1005,-12,17,1
1925,-57,39,998,-13,24,1
1926,-150,16,984,-15,12,-1
1927,-105,13,982,-16,-10,-4
1928,18,13,999,-16,-22,-9
1929,133,35,1015,-12,-17,-6
1930,155,40,987,-13,2,-4
1931,42,54,1003,-14,22,2
1932,-78,37,1009,-15,22,1
1933,-156,20,977,-15,7,0
1934,-83,9,997,-14,-15,-7
1935,49,18,1003,-14,-24,-8
1936,143,29,996,-13,-14,-8
1937,141,53,1000,-11,7,-3
1938,11,53,1010,-12,23,0
1939,-100,42,1001,-15,21,1
1940,-151,10,982,-18,5,-2
1941,-55,8,983,-17,-17,-7
1942,75,15,1004,-16,-23,-8
1943,148,38,996,-11,-10,-6
1944,127,47,1008,-11,10,-1
1945,-12,50,1003,-12,24,3
1946,-121,35,997,-15,20,1
1947,-130,10,982,-16,0,-3
1948,-48,12,984,-15,-19,-6
1949,98,29,1008,-15,-23,-8
1950,154,34,1002,-15,-6,-5
1951,95,50,1010,-11,15,1
1952,-27,37,995,-15,24,1
1953,-145,27,991,-14,17,1
1954,-113,15,982,-16,-7,-4
1955,-15,12,991,-16,-20,-8
1956,116,31,1012,-12,-20,-7
1957,158,46,1003,-16,-3,-6
1958,76,48,997,-13,19,1
1959,-58,38,1003,-16,25,2
1960,-147,17,987,-16,13,-2
1961,-104,10,980,-13,-10,-6
1962,16,18,1004,-15,-23,-7
1963,127,34,1012,-14,-17,-7
1964,153,42,993,-13,2,-4
1965,48,53,1003,-13,21,3
1966,-83,41,1000,-15,23,2
1967,-151,13,991,-16,9,-3
1968,-82,13,989,-16,-13,-6
1969,45,15,998,-15,-24,-8
1970,149,38,1005,-13,-14,-8
1971,136,36,1000,-12,7,-2
1972,18,60,998,-13,23,2
1973,-107,26,1008,-17,24,2
1974,-146,19,985,-16,5,-3
1975,-61,6,983,-16,-16,-7
1976,76,29,999,-12,-23,-9
1977,144,33,1010,-16,-10,-6
1978,124,53,994,-11,10,-3
1979,-8,43,1010,-15,25,2
1980,-125,32,993,-15,19,1
1981,-132,6,986,-16,-2,-4
1982,-47,10,975,-16,-18,-6
1983,90,26,1013,-14,-22,-8
1984,162,46,1003,-12,-8,-7
1985,104,53,1006,-12,15,1
1986,-32,44,997,-14,26,3
1987,-132,31,996,-16,16,-1
1988,-126,3,972,-17,-4,-4
1989,-26,14,992,-13,-20,-6
1990,121,22,1016,-13,-22,-8
1991,152,41,1001,-9,-3,-3
1992,84,53,995,-13,16,1
1993,-51,44,1012,-12,24,1
1994,-145,22,978,-17,13,0
1995,-116,16,982,-17,-8,-4
1996,14,11,1002,-16,-22,-10
1997,131,24,1012,-14,-18,-5
1998,151,43,989,-11,2,-3
1999,55,45,1006,-10,20,0
2000,-74,44,1005,-13,23,1
2001,-157,24,976,-16,10,-1
2002,-84,10,998,-15,-12,-8
2003,35,23,997,-15,-23,-8
2004,140,32,994,-11,-15,-9
2005,143,42,1006,-13,6,-2
2006,15,47,998,-13,22,2
2007,-92,34,1004,-14,21,-1
2008,-148,16,987,-16,5,-2
2009,-66,11,985,-17,-16,-7
2010,72,16,997,-15,-23,-9
2011,145,38,1002,-13,-10,-6
2012,123,46,1006,-12,10,-2
2013,-5,51,998,-13,24,3
2014,-115,34,1005,-15,18,0
2015,-132,19,980,-16,0,-2
2016,-46,11,979,-16,-18,-7
2017,93,21,1012,-16,-23,-8
2018,152,33,1001,-13,-8,-6
2019,99,52,1007,-11,14,1
2020,-21,46,1004,-13,23,2
2021,-137,32,988,-16,18,1
2022,-125,13,980,-15,-5,-4
2023,-21,12,993,-18,-21,-7
2024,103,26,1006,-15,-21,-7
2025,160,42,1001,-12,-5,-6
2026,79,47,1006,-13,18,2
2027,-46,39,996,-12,24,2
2028,-144,23,991,-16,14,-1
2029,-106,11,980,-15,-9,-6
2030,2,22,1000,-15,-22,-7
2031,127,31,1011,-16,-17,-6
2032,151,39,998,-15,1,-3
2033,57,52,993,-10,21,1
2034,-72,46,1010,-19,24,2
2035,-155,20,980,-14,9,-1
2036,-89,0,989,-18,-13,-7
2037,37,16,1000,-14,-23,-8
2038,138,27,997,-12,-13,-8
2039,145,45,999,-13,5,-3
2040,26,55,1006,-11,21,3
2041,-93,41,993,-15,22,1
2042,-147,16,996,-17,5,-3
2043,-76,4,980,-16,-15,-5
2044,66,22,1000,-13,-24,-8
2045,153,32,1000,-14,-11,-7
2046,125,47,1004,-12,10,0
2047,5,54,1000,-12,23,1
2048,-124,36,1009,-15,20,2
2049,-136,17,971,-18,0,-3
2050,-49,1,985,-17,-18,-7
2051,81,27,1006,-13,-24,-8
2052,154,37,1004,-14,-8,-6
2053,115,48,1007,-11,13,-1
2054,-29,44,994,-15,25,3
2055,-129,30,994,-15,17,-1
2056,-129,14,984,-16,-3,-5
2057,-30,15,981,-14,-20,-8
2058,110,31,1009,-15,-20,-8
2059,162,43,1008,-12,-3,-5
2060,84,46,993,-12,18,2
2061,-47,40,1005,-14,24,1
2062,-139,20,991,-15,13,0
2063,-122,14,971,-16,-7,-4
2064,5,11,1009,-15,-22,-10
2065,126,25,1006,-12,-18,-8
2066,156,46,997,-10,-1,-4
2067,64,45,997,-12,19,0
2068,-71,45,1010,-12,24,0
2069,-144,23,979,-17,9,-2
2070,-100,13,988,-17,-11,-5
2071,38,17,1004,-16,-24,-10
2072,139,29,1003,-16,-16,-7
2073,147,35,990,-10,5,-3
2074,31,50,1009,-11,24,2
2075,-92,40,1000,-14,21,0
2076,-150,16,986,-12,6,-3
2077,-70,12,990,-16,-15,-7
2078,59,26,1000,-13,-22,-8
2079,150,37,1003,-15,-12,-7
2080,124,46,1002,-13,9,-2
2081,-4,45,1000,-15,22,2
2082,-109,24,1009,-16,20,0
2083,-143,12,974,-14,2,-3
2084,-42,3,986,-15,-18,-7
2085,86,34,1008,-12,-21,-8
2086,150,48,1000,-11,-8,-6
2087,108,52,1005,-13,13,-2
2088,-30,48,1004,-14,24,1
2089,-129,22,991,-15,16,0
2090,-127,11,974,-17,-2,-3
2091,-30,5,1001,-16,-20,-8
2092,112,26,1000,-11,-22,-8
2093,157,38,1004,-13,-3,-6
2094,91,60,1004,-10,17,0
2095,-49,46,1006,-13,24,1
2096,-138,30,977,-15,14,-1
2097,-125,11,986,-19,-7,-3
2098,0,14,999,-16,-22,-8
2099,123,24,1014,-15,-19,-7
2100,154,41,989,-11,-1,-4
2101,71,44,1008,-12,20,1
2102,-67,47,1001,-14,25,2
2103,-156,21,983,-15,12,0
2104,-94,13,989,-17,-11,-8
2105,23,13,1007,-16,-23,-7
2106,143,31,997,-12,-17,-7
2107,147,41,1000,-12,5,-3
2108,33,56,1008,-12,23,2
2109,-87,37,992,-15,21,1
2110,-153,22,997,-17,7,-4
2111,-74,12,985,-17,-15,-5
2112,55,12,997,-15,-22,-8
2113,149,39,1001,-12,-12,-6
2114,129,47,1008,-13,9,-2
2115,6,53,997,-13,23,1
2116,-117,38,1010,-16,20,3
2117,-135,11,974,-18,-1,-3
2118,-57,2,986,-16,-17,-5
2119,78,25,1001,-12,-23,-7
2120,151,36,1008,-14,-8,-6
2121,118,54,1008,-9,12,-1
2122,-18,50,1001,-15,23,3
2123,-131,24,990,-16,18,-1
2124,-130,16,986,-16,-2,-4
2125,-40,1,979,-17,-20,-7
2126,106,31,1013,-12,-22,-9
2127,157,37,1008,-13,-5,-5
2128,101,57,998,-11,17,-2
2129,-39,31,1004,-15,26,2
2130,-154,35,986,-14,18,1
2131,-112,6,982,-17,-8,-6
2132,-15,20,992,-15,-21,-7
2133,120,32,1016,-14,-22,-7
2134,165,36,998,-14,-2,-7
2135,70,43,996,-14,20,2
2136,-66,39,1000,-13,25,2
2137,-149,22,995,-16,11,-3
2138,-102,21,978,-15,-9,-4
2139,15,19,1003,-15,-22,-8
2140,146,27,1006,-15,-19,-8
2141,147,36,998,-11,4,-2
2142,39,56,993,-11,21,0
2143,-85,32,1007,-16,22,1
2144,-153,20,986,-13,7,-2
2145,-83,11,984,-17,-13,-5
2146,54,17,1005,-13,-23,-10
2147,149,35,998,-12,-13,-6
2148,133,44,1001,-12,9,-1
2149,9,53,1003,-13,25,1
2150,-115,28,1007,-16,20,1
2151,-139,19,977,-15,3,-5
2152,-57,0,981,-18,-16,-6
2153,75,32,1005,-12,-23,-8
2154,156,39,1000,-14,-10,-7
2155,116,44,1004,-13,12,-1
2156,-20,47,999,-13,24,3
2157,-127,29,1001,-14,19,-2
2158,-127,17,973,-16,-2,-3
2159,-36,6,987,-15,-19,-7
2160,102,33,1011,-14,-22,-9
2161,152,38,1001,-13,-6,-4
2162,95,56,1004,-12,16,0
2163,-48,39,1002,-16,25,4
2164,-134,28,984,-15,12,-1
2165,-118,3,984,-17,-7,-5
2166,-5,19,990,-16,-22,-9
2167,125,18,1014,-15,-20,-8
2168,156,41,999,-11,1,-6
2169,67,57,996,-13,20,1
2170,-64,46,1007,-12,23,1
2171,-148,26,983,-16,10,-1
2172,-100,10,984,-15,-10,-5
2173,20,14,1004,-14,-23,-8
2174,137,30,1010,-13,-16,-6
2175,149,42,993,-10,3,-3
2176,37,50,1005,-12,22,1
2177,-83,41,1004,-17,22,1
2178,-153,13,985,-17,8,-2
2179,-82,9,991,-16,-13,-7
2180,51,19,999,-13,-23,-8
2181,153,32,996,-13,-14,-7
2182,129,49,1003,-10,8,-2
2183,13,59,1004,-14,23,1
2184,-106,36,1007,-18,22,1
2185,-149,14,976,-18,3,-2
2186,-54,0,986,-14,-16,-8
2187,68,24,1002,-12,-22,-9
2188,153,40,1001,-13,-10,-8
2189,126,48,1008,-11,11,-1
2190,-17,53,1003,-13,25,3
2191,-120,33,997,-16,17,0
2192,-135,10,974,-16,-1,-2
2193,-44,8,990,-17,-19,-6
2194,105,25,1004,-14,-23,-7
2195,153,36,1008,-10,-5,-5
2196,104,53,1007,-11,16,1
2197,-34,40,996,-14,25,2
2198,-137,22,988,-14,16,-2
2199,-124,16,983,-14,-6,-5
2200,-14,11,989,-14,-21,-9
2201,118,31,1015,-12,-21,-8
2202,153,45,1003,-14,-3,-4
2203,77,53,990,-12,18,1
2204,-57,38,1011,-17,24,2
2205,-149,21,986,-17,11,0
2206,-111,12,977,-17,-10,-5
2207,18,16,1009,-16,-22,-11
2208,131,27,1006,-14,-18,-7
2209,160,49,996,-11,1,-4
2210,47,47,998,-15,22,1
2211,-84,49,1009,-12,24,2
2212,-148,8,982,-17,9,-3
2213,-94,17,988,-14,-12,-5
2214,50,14,1001,-16,-25,-9
2215,148,33,1000,-12,-13,-7
2216,141,43,998,-11,7,-2
2217,18,54,1008,-14,23,1
2218,-104,34,1010,-16,22,1
2219,-146,11,974,-17,4,-2
2220,-67,7,986,-16,-16,-7
2221,74,24,1004,-13,-23,-7
2222,153,41,1007,-13,-10,-7
2223,121,45,993,-12,11,-1
2224,-7,50,1014,-14,24,1
2225,-126,28,992,-16,18,-1
2226,-132,15,982,-15,-1,-4
2227,-43,9,982,-16,-21,-8
2228,88,27,1016,-15,-23,-8
2229,168,41,999,-14,-9,-6
2230,96,48,1006,-13,16,2
2231,-29,45,1006,-15,23,0
2232,-137,22,987,-15,17,1
2233,-121,15,977,-14,-5,-4
2234,-12,12,997,-16,-21,-7
2235,114,34,1012,-14,-20,-7
2236,160,41,995,-13,-3,-4
2237,71,55,1004,-11,19,0
2238,-51,33,1001,-16,24,1
2239,-152,21,987,-15,11,-1
2240,-98,12,977,-16,-10,-6
2241,7,13,1005,-15,-22,-7
2242,135,44,1008,-12,-18,-7
2243,158,32,993,-13,1,-4
2244,38,66,1000,-12,22,2
2245,-73,33,1007,-16,23,1
2246,-159,19,986,-15,10,-2
2247,-94,6,985,-16,-14,-5
2248,46,18,1004,-15,-25,-8
2249,149,32,994,-13,-15,-6
2250,144,46,1004,-12,6,-2
2251,21,51,1000,-12,25,2
2252,-104,35,1005,-14,22,1
2253,-153,17,981,-16,4,-2
2254,-71,12,985,-15,-18,-6
2255,79,27,997,-11,-25,-8
2256,153,34,1004,-13,-10,-6
2257,127,53,1006,-12,10,-2
2258,-6,43,1002,-14,24,2
2259,-125,33,1002,-14,20,-1
2260,-134,5,978,-18,-1,-3
2261,-51,8,985,-13,-19,-7
2262,101,25,1008,-15,-23,-8
2263,153,45,999,-11,-7,-5
2264,112,61,1009,-12,15,-1
2265,-31,40,999,-17,25,2
2266,-139,33,990,-16,18,-1
2267,-125,0,976,-18,-5,-4
2268,-30,10,1001,-12,-21,-7
2269,123,29,1003,-14,-22,-8
2270,155,41,1007,-13,-3,-4
2271,91,57,1002,-11,18,0
2272,-59,39,1003,-15,27,2
2273,-151,27,981,-16,14,-2
2274,-126,9,979,-16,-8,-3
2275,13,16,1005,-16,-25,-10
2276,134,25,1007,-16,-19,-6
2277,165,45,993,-13,1,-4
2278,64,48,1005,-14,21,1
2279,-84,40,1004,-15,24,2
2280,-154,15,980,-17,10,-2
2281,-105,9,995,-17,-11,-6
2282,38,23,999,-15,-25,-7
2283,144,36,995,-14,-14,-8
2284,158,47,1007,-14,6,-3
2285,27,52,998,-14,24,3
2286,-101,26,1004,-16,24,0
2287,-157,9,986,-16,7,-2
2288,-84,13,981,-14,-15,-5
2289,68,23,999,-13,-24,-9
2290,158,47,1007,-12,-12,-6
2291,137,49,1001,-15,8,0
2292,0,50,999,-15,26,1
2293,-128,21,1013,-16,21,2
2294,-141,9,967,-14,0,-3
2295,-58,0,982,-15,-17,-7
2296,96,29,1010,-11,-25,-8
2297,163,46,1010,-12,-9,-7
2298,116,58,996,-12,15,-2
2299,-29,44,1010,-16,27,1
2300,-138,26,984,-15,19,-2
2301,-139,6,983,-17,-3,-4
2302,-29,8,990,-15,-21,-9
2303,115,26,1011,-14,-23,-8
2304,165,44,998,-12,-6,-4
2305,94,51,1006,-13,17,-1
2306,-46,44,999,-14,27,2
2307,-158,22,984,-17,16,1
2308,-128,8,981,-15,-8,-6
2309,4,15,1002,-15,-24,-8
2310,132,28,1005,-14,-20,-7
2311,173,45,1000,-12,1,-5
2312,64,51,996,-14,21,3
2313,-71,42,1012,-16,25,2
2314,-165,16,977,-18,11,-1
2315,-112,14,986,-15,-11,-4
2316,38,13,1005,-14,-26,-10
2317,142,36,995,-12,-17,-7
2318,167,50,1004,-13,3,-4
2319,36,51,999,-15,23,2
2320,-106,30,1003,-15,24,1
2321,-155,11,983,-16,6,-3
2322,-87,7,989,-16,-16,-6
2323,64,25,997,-13,-27,-8
2324,159,35,1003,-13,-15,-8
2325,139,54,1007,-11,8,-3
2326,5,52,999,-13,24,1
2327,-114,29,1011,-14,21,-1
2328,-152,8,971,-16,1,-4
2329,-57,11,980,-14,-18,-6
2330,84,24,1018,-13,-24,-9
2331,154,40,997,-14,-10,-5
2332,126,51,1004,-12,12,-3
2333,-17,43,1005,-13,25,2
2334,-135,29,992,-15,18,0
2335,-132,13,977,-13,-3,-5
2336,-41,4,991,-17,-19,-7
2337,105,33,1005,-13,-23,-8
2338,168,40,1008,-12,-5,-6
2339,94,55,998,-11,17,0
2340,-38,46,1004,-13,26,1
2341,-145,21,981,-18,16,0
2342,-130,7,986,-17,-6,-2
2343,-5,8,995,-15,-22,-8
2344,120,29,1014,-15,-20,-6
2345,162,41,989,-13,-2,-6
2346,70,52,1003,-11,20,2
2347,-63,47,1011,-13,24,2
2348,-156,22,980,-16,11,0
2349,-106,13,984,-15,-11,-5
2350,29,18,1004,-15,-23,-7
2351,135,33,1003,-15,-17,-7
2352,158,41,997,-14,2,-4
2353,36,51,1002,-13,22,2
2354,-91,37,1002,-13,22,1
2355,-158,17,989,-17,8,-2
2356,-79,13,987,-15,-16,-7
2357,57,21,998,-15,-26,-8
2358,150,38,999,-11,-13,-5
2359,139,51,1009,-12,7,-2
2360,4,50,997,-16,25,2
2361,-115,26,1010,-15,21,1
2362,-144,9,971,-18,1,-2
2363,-58,3,989,-14,-17,-7
2364,84,29,1007,-12,-25,-9
2365,155,41,999,-12,-8,-5
2366,117,55,1003,-8,12,-2
2367,-22,49,1010,11,23,-2
2368,-118,27,992,-13,17,-2
2369,-140,5,976,-19,-1,-3
2370,-37,11,991,-15,-21,-8
2371,104,21,1005,-15,-22,-8
2372,153,41,1007,-12,-6,-5
2373,95,54,1002,-12,16,0
2374,-35,39,1001,-16,24,0
2375,-149,30,982,-15,16,0
2376,-117,11,991,-18,-7,-5
2377,-8,7,994,-14,-22,-10
2378,120,33,1009,-11,-20,-7
2379,161,38,993,-13,-2,-6
2380,66,54,1007,-10,21,2
2381,-58,41,996,-15,23,3
2382,-151,21,988,-15,11,-1
2383,-95,12,985,-15,-10,-5
2384,16,15,995,-15,-20,-6
2385,142,29,1012,-12,-17,-8
2386,142,38,994,-11,4,-3
2387,39,56,993,-11,22,0
2388,-83,34,1011,-14,23,2
2389,-152,29,981,-15,8,-2
2390,-73,11,991,-15,-13,-7
2391,46,20,999,-14,-22,-8
2392,144,34,996,-16,-14,-6
2393,138,35,1004,-13,6,-3
2394,14,48,1003,-15,23,3
2395,-109,28,1007,-14,20,1
2396,-140,25,974,-15,4,-4
2397,-56,12,993,-17,-15,-6
2398,68,28,996,-14,-22,-7
2399,153,40,1001,-15,-10,-8
2400,123,40,1007,-16,12,-1
2401,-24,49,1003,-12,25,3
2402,-110,27,997,-14,17,-3
2403,-135,3,979,-16,0,-2
2404,-37,25,983,-14,-20,-8
2405,100,23,1012,-16,-21,-9
2406,148,49,1007,-12,-5,-3
2407,96,43,997,-14,15,0
2408,-42,46,1007,-14,25,0
2409,-133,19,981,-17,14,1
2410,-117,11,988,-15,-6,-6
2411,-8,11,992,-18,-22,-8
2412,121,31,1010,-13,-20,-6
2413,154,44,994,-12,-2,-7
2414,68,45,1009,-13,19,0
2415,-61,49,998,-15,24,1
2416,-146,17,986,-19,11,0
2417,-100,12,983,-16,-11,-5
2418,17,11,1009,-16,-23,-8
2419,140,27,1006,-12,-18,-8
2420,153,39,995,-13,3,-4
2421,40,56,996,-11,23,1
2422,-82,37,1014,-12,23,1
2423,-153,22,976,-16,9,-1
2424,-85,20,993,-15,-14,-5
2425,54,17,1003,-16,-24,-8
2426,145,29,996,-13,-12,-5
2427,137,41,1001,-10,5,-3
2428,11,45,1002,-13,23,1
2429,-107,36,1006,-12,21,1
2430,-143,22,980,-14,5,-2
2431,-68,13,995,-16,-15,-6
2432,73,29,991,-15,-24,-10
2433,156,30,1004,-14,-12,-8
2434,122,48,999,-12,10,-2
2435,-13,48,1010,-14,26,1
2436,-123,29,995,-14,19,-1
2437,-133,8,979,-14,0,-3
2438,-43,8,979,-15,-18,-6
2439,95,32,1016,-12,-22,-8
2440,159,45,999,-14,-7,-6
2441,98,52,1005,-14,16,2
2442,-32,41,997,-16,24,2
2443,-141,23,995,-16,16,0
2444,-125,3,979,-15,-6,-3
2445,-17,13,988,-15,-21,-6
2446,112,33,1011,-13,-21,-8
2447,168,45,1008,-12,-3,-6
2448,77,53,995,-12,19,2
2449,-55,42,1006,-14,25,1
2450,-146,16,985,-16,12,-1
2451,-118,10,978,-17,-9,-5
2452,11,7,1003,-13,-23,-10
2453,132,36,1013,-13,-18,-6
2454,154,42,991,-13,1,-4
2455,60,54,1000,-12,20,1
2456,-76,44,1011,-16,23,1
2457,-158,19,975,-17,8,-1
2458,-91,10,987,-17,-12,-7
2459,34,18,1010,-17,-24,-8
2460,144,24,998,-14,-16,-8
2461,148,43,1000,-11,5,-4
2462,28,50,1002,-13,22,1
2463,-94,41,1003,-15,23,1
2464,-158,20,982,-16,6,-3
2465,-72,18,998,-17,-15,-6
2466,63,20,989,-16,-23,-9
2467,154,29,1006,-12,-12,-7
2468,133,53,1006,-13,8,-2
2469,0,46,1000,-14,25,4
2470,-114,26,1005,-14,20,1
2471,-147,15,975,-15,2,-2
2472,-47,8,987,-14,-18,-8
2473,83,27,1002,-13,-23,-9
2474,155,39,1010,-13,-8,-5
2475,114,53,997,-11,15,0
2476,-25,40,1005,-16,24,2
2477,-126,29,998,-14,17,-1
2478,-134,3,973,-16,-3,-3
2479,-29,14,990,-14,-21,-9
2480,115,27,1006,-14,-21,-8
2481,147,45,1004,-14,-4,-4
2482,88,54,1004,-10,16,0
2483,-47,41,1002,-15,24,1
2484,-146,26,982,-17,14,-1
2485,-112,3,985,-16,-8,-6
2486,1,10,1002,-13,-23,-9
2487,129,35,1003,-14,-20,-7
2488,162,36,999,-14,1,-6
2489,73,56,1006,-12,21,0
2490,-71,36,996,-14,25,3
2491,-162,25,986,-15,12,-1
2492,-105,7,978,-18,-12,-6
2493,16,28,1009,-13,-24,-9
2494,148,30,1008,-14,-18,-9
2495,167,46,998,-11,4,-4
2496,45,45,993,-13,24,1
2497,-85,36,1011,-13,25,0
2498,-164,12,985,-16,9,-2
2499,-101,16,984,-14,-13,-5
2500,60,18,1003,-16,-26,-12
2501,154,41,997,-12,-14,-7
2502,146,50,1007,-13,6,-1
2503,17,51,1002,-13,26,2
2504,-112,29,1006,-15,23,1
2505,-149,13,977,-16,4,-3
2506,-67,2,985,-17,-17,-7
2507,74,23,1001,-14,-25,-8
2508,153,38,1005,-13,-11,-8
2509,119,50,1000,-12,11,-2
2510,-6,51,1007,-14,23,2
2511,-125,31,1004,-16,19,0
2512,-136,10,968,-16,0,-4
2513,-37,8,989,-16,-19,-8
2514,97,21,1012,-15,-22,-8
2515,149,41,1000,-12,-6,-6
2516,108,48,1006,-11,13,-2
2517,-41,50,1002,-13,25,2
2518,-133,35,985,-16,14,-2
2519,-115,11,984,-18,-6,-5
2520,-24,11,994,-16,-22,-6
2521,121,27,1007,-14,-21,-8
2522,156,34,1003,-11,-1,-7
2523,72,54,1002,-11,18,1
2524,-53,39,1000,-13,23,1
2525,-147,25,985,-17,12,0
2526,-105,15,984,-17,-9,-6
2527,14,15,1002,-15,-22,-10
2528,128,30,1013,-16,-18,-6
2529,154,44,990,-13,1,-4
2530,46,42,992,-12,21,0
2531,-79,43,1017,-14,23,1
2532,-147,22,980,-16,7,-2
2533,-93,16,986,-15,-11,-5
2534,41,17,1006,-16,-24,-9
2535,150,29,999,-14,-15,-9
2536,143,45,996,-12,6,-3
2537,24,49,999,-12,23,0
2538,-101,36,1010,-15,23,-1
2539,-152,13,977,-15,5,-2
2540,-75,18,990,-16,-16,-6
2541,68,18,1003,-15,-24,-9
2542,155,36,998,-11,-13,-7
2543,136,48,999,-13,10,-3
2544,-5,48,1013,-13,26,2
2545,-115,33,999,-14,20,0
2546,-145,7,977,-16,2,-4
2547,-52,16,983,-14,-18,-7
2548,95,20,1010,-13,-23,-10
2549,156,47,1003,-12,-7,-6
2550,114,52,1000,-12,14,1
2551,-32,45,1004,-13,27,1
2552,-135,27,991,-16,16,0
2553,-134,11,983,-17,-4,-4
2554,-34,13,983,-15,-21,-8
2555,116,26,1011,-14,-23,-9
2556,156,42,1010,-12,-4,-5
2557,86,51,998,-13,18,2
2558,-36,43,1002,-15,25,1
2559,-157,22,984,-17,16,2
2560,-116,14,979,-16,-9,-6
2561,2,6,1005,-15,-22,-10
2562,118,31,1005,-13,-21,-6
2563,161,44,995,-11,-2,-6
2564,64,50,1000,-13,20,2
2565,-77,41,1007,-14,23,2
2566,-144,20,980,-16,9,-3
2567,-102,10,991,-17,-11,-4
2568,31,18,1001,-14,-24,-7
2569,142,27,1010,-14,-15,-7
2570,149,44,993,-11,4,-4
2571,37,49,999,-13,23,2
2572,-95,39,1006,-17,23,0
2573,-153,18,983,-16,6,0
2574,-80,17,994,-15,-14,-7
2575,63,18,996,-16,-24,-9
2576,149,30,1000,-11,-12,-7
2577,134,50,1004,-12,9,-3
2578,0,51,1006,-15,25,2
2579,-110,31,1007,-13,21,0
2580,-148,12,971,-17,3,-1
2581,-53,7,986,-15,-17,-8
2582,87,20,1013,-13,-23,-9
2583,153,46,992,-13,-8,-5
2584,122,46,1004,-12,14,-1
2585,-23,48,1010,-12,25,0
2586,-125,30,993,-15,17,0
2587,-141,9,973,-15,-1,-4
2588,-34,20,993,-15,-21,-8
2589,107,27,1003,-16,-23,-9
2590,156,44,1006,-12,-5,-4
2591,103,46,1007,-13,16,-1
2592,-40,39,995,-12,27,2
2593,-139,22,993,-14,16,0
2594,-130,14,980,-17,-6,-5
2595,-13,20,999,-16,-22,-9
2596,124,35,1005,-16,-22,-9
2597,163,37,1003,-13,-1,-4
2598,75,44,996,-13,19,1
2599,-56,37,1009,-13,25,1
2600,-157,21,979,-15,12,0
2601,-118,20,978,-14,-9,-5
2602,21,17,1012,-16,-23,-11
2603,129,35,1007,-14,-17,-7
2604,157,38,992,-13,2,-5
2605,56,53,1007,-14,22,-1
2606,-87,33,1006,-14,24,1
2607,-158,26,984,-13,9,-2
2608,-88,5,992,-18,-13,-7
2609,34,23,992,-14,-24,-7
2610,158,24,1004,-14,-16,-9
2611,139,48,1004,-10,7,0
2612,26,53,993,-12,23,1
2613,-99,32,1016,-14,23,1
2614,-149,22,975,-16,5,-1
2615,-76,13,985,-16,-14,-7
2616,78,20,1003,-15,-24,-11
2617,143,38,1002,-14,-12,-3
2618,136,42,995,-15,8,-3
2619,-8,46,1020,-14,26,3
2620,-116,30,991,-14,18,0
2621,-138,10,977,-15,1,-3
2622,-47,11,982,-14,-18,-7
2623,89,29,1018,-13,-23,-7
2624,161,41,1000,-12,-8,-8
2625,102,56,1001,-11,15,1
2626,-22,42,1006,-17,24,1
2627,-136,18,986,-16,16,1
2628,-129,8,978,-14,-5,-5
2629,-22,9,995,-15,-21,-8
2630,118,34,1003,-10,-21,-8
2631,156,44,1004,-10,-2,-4
2632,84,55,1008,-11,17,-1
2633,-48,38,996,-14,25,2
2634,-152,28,984,-17,13,-2
2635,-113,5,985,-17,-9,-5
2636,1,21,1002,-16,-22,-9
2637,127,18,1008,-14,-20,-8
2638,166,47,992,-10,0,-4
2639,59,44,1003,-13,22,2
2640,-77,44,1009,-13,24,3
2641,-155,23,977,-16,11,-1
2642,-101,13,989,-16,-12,-5
2643,32,19,1002,-14,-24,-8
2644,153,27,1000,-13,-16,-9
2645,148,43,999,-11,6,-2
2646,31,50,998,-13,23,2
2647,-92,40,1005,-16,24,0
2648,-165,15,984,-15,7,-1
2649,-74,11,988,-15,-16,-7
2650,60,20,1006,-13,-25,-8
2651,153,39,991,-10,-13,-7
2652,136,53,1010,-14,8,-2
2653,4,50,1006,-15,25,2
2654,-119,33,998,-16,21,1
2655,-146,7,978,-18,1,-3
2656,-57,1,986,-15,-18,-6
2657,86,26,999,-15,-25,-8
2658,160,42,1009,-11,-9,-6
2659,126,61,999,-11,13,0
2660,-23,48,1004,-15,26,3
2661,-131,34,1000,-16,19,-2
2662,-141,-2,972,-18,-2,-3
2663,-37,8,987,-14,-22,-8
2664,110,20,1011,-13,-23,-8
2665,165,43,1006,-11,-4,-5
2666,97,55,1003,-12,17,0
2667,-37,49,995,-14,25,0
2668,-151,27,991,-17,16,-1
2669,-126,14,979,-18,-8,-5
2670,-7,3,1002,-16,-22,-9
2671,132,29,1006,-14,-21,-8
2672,164,35,996,-12,-1,-4
2673,76,52,1005,-10,21,1
2674,-67,44,1006,-13,26,2
2675,-160,28,978,-14,13,-2
2676,-114,6,982,-17,-12,-6
2677,14,18,1007,-15,-25,-8
2678,140,27,1007,-14,-19,-7
2679,167,43,990,-11,2,-4
2680,44,50,1009,-12,23,3
2681,-82,39,998,-16,23,1
2682,-162,14,990,-16,10,-2
2683,-100,16,986,-15,-14,-6
2684,54,18,1001,-15,-25,-8
2685,152,29,991,-12,-14,-7
2686,152,46,1011,-12,7,-3
2687,19,49,1001,-12,25,1
2688,-114,44,1003,-13,23,1
2689,-148,14,980,-19,2,-5
2690,-79,9,993,-16,-15,-7
2691,76,20,996,-15,-25,-9
2692,162,37,1003,-14,-10,-7
2693,129,51,1003,-13,11,-1
2694,0,48,1000,-14,25,3
2695,-123,27,1005,-16,21,0
2696,-150,11,973,-15,0,-2
2697,-42,12,986,-16,-21,-9
2698,91,25,1010,-14,-24,-8
2699,164,44,1001,-13,-8,-7
2700,117,51,1005,-12,15,0
2701,-32,45,1007,-15,26,3
2702,-137,26,978,-16,17,-1
2703,-134,11,986,-15,-6,-5
2704,-27,13,988,-14,-20,-5
2705,117,28,1013,-16,-21,-8
2706,165,40,998,-11,-2,-6
2707,82,52,1002,-14,17,2
2708,-53,39,1003,-15,25,1
2709,-146,22,985,-16,15,-1
2710,-120,8,979,-17,-9,-5
2711,7,16,1004,-14,-23,-9
2712,133,26,1009,-12,-20,-9
2713,161,54,997,-13,1,-4
2714,59,46,1002,-12,21,1
2715,-80,41,1003,-14,25,1
2716,-157,13,987,-18,9,-3
2717,-104,13,988,-13,-11,-4
2718,36,14,999,-17,-24,-9
2719,156,39,1002,-12,-16,-7
2720,154,39,1000,-12,6,-2
2721,28,54,998,-12,25,1
2722,-95,31,1011,-14,24,0
2723,-162,13,978,-15,6,-2
2724,-78,10,986,-13,-15,-7
2725,63,28,1008,-12,-25,-9
2726,160,36,996,-12,-13,-8
2727,142,49,1004,-11,9,-2
2728,4,54,1007,-13,26,2
2729,-124,31,1003,-16,23,0
2730,-146,6,974,-17,2,-3
2731,-65,5,981,-16,-18,-5
2732,88,32,1011,-13,-26,-9
2733,171,34,1003,-12,-9,-8
2734,112,62,1004,-12,16,1
2735,-15,42,1006,-16,26,1
2736,-137,24,996,-16,20,0
2737,-150,2,963,-16,-3,-3
2738,-32,12,999,-13,-22,-8
2739,109,26,1007,-15,-23,-8
2740,170,56,999,-11,-5,-3
2741,107,49,1011,-14,17,-1
2742,-43,38,1000,-16,26,1
2743,-149,21,983,-14,16,-1
2744,-129,11,977,-17,-7,-5
2745,-12,7,1003,-15,-24,-7
2746,128,40,1004,-9,-21,-8
2747,167,42,1006,-14,-2,-3
2748,85,60,989,-12,20,2
2749,-70,34,1016,-16,25,2
2750,-156,18,974,-17,12,0
2751,-124,5,980,-15,-9,-3
2752,26,13,1012,-14,-24,-9
2753,138,25,1003,-14,-17,-6
2754,168,52,991,-9,3,-3
2755,50,48,1010,-17,23,3
2756,-92,47,1000,-15,24,1
2757,-162,14,985,-16,9,-2
2758,-103,8,988,-15,-14,-5
2759,53,13,1001,-15,-27,-9
2760,153,29,996,-12,-15,-6
2761,144,49,1006,-11,8,-2
2762,21,53,1004,-12,24,2
2763,-111,36,1006,-14,22,1
2764,-154,11,974,-17,4,-3
2765,-70,9,991,-16,-17,-8
2766,76,21,997,-13,-25,-8
2767,155,42,1007,-12,-12,-6
2768,130,50,998,-14,9,-2
2769,-6,42,1011,-14,25,2
2770,-124,35,993,-14,20,0
2771,-146,11,978,-16,2,-3
2772,-43,8,990,-13,-19,-10
2773,86,24,1000,-13,-23,-7
2774,160,40,1009,-12,-9,-8
2775,111,47,1003,-12,14,1
2776,-33,45,1001,-15,25,3
2777,-133,28,987,-14,18,0
2778,-130,15,984,-16,-2,-3
2779,-23,9,987,-16,-21,-6
2780,109,26,1009,-11,-21,-7
2781,163,40,1006,-14,-4,-5
2782,87,53,998,-11,18,1
2783,-49,44,1000,-14,25,0
2784,-152,24,991,-17,15,0
2785,-108,15,976,-17,-9,-5
2786,1,10,1005,-16,-22,-7
2787,135,31,1010,-12,-20,-7
2788,152,38,1002,-12,3,-4
2789,58,53,989,-13,21,1
2790,-76,40,1012,-13,23,1
2791,-148,22,982,-17,8,-3
2792,-96,11,987,-16,-12,-5
2793,37,22,996,-16,-24,-9
2794,140,24,1008,-15,-16,-7
2795,143,43,991,-11,5,-3
2796,24,51,1004,-14,23,1
2797,-94,41,1001,-17,22,0
2798,-152,8,990,-16,5,-2
2799,-73,14,978,-13,-15,-6
2800,62,22,1005,-12,-22,-7
2801,152,39,998,-12,-11,-7
2802,128,53,1006,-14,9,0
2803,2,49,1001,-15,22,1
2804,-118,29,1002,-17,20,0
2805,-142,4,981,-16,1,-2
2806,-48,10,980,-15,-19,-6
2807,86,22,1004,-13,-23,-9
2808,155,45,1006,-11,-8,-6
2809,111,53,997,-13,13,-1
2810,-30,51,1010,-13,25,1
2811,-127,26,986,-16,16,0
2812,-130,15,982,-15,-3,-3
2813,-25,6,988,-16,-20,-8
2814,104,26,1008,-13,-20,-8
2815,166,40,1007,-12,-5,-7
2816,83,51,999,-12,17,0
2817,-47,43,1004,-15,24,1
2818,-135,24,984,-14,15,-1
2819,-126,17,980,-16,-8,-3
2820,6,15,1000,-15,-24,-8
2821,129,23,1013,-15,-19,-7
2822,152,43,996,-13,0,-4
2823,70,48,995,-12,19,-1
2824,-70,36,1012,-15,23,1
2825,-160,22,974,-17,11,-1
2826,-88,16,994,-15,-11,-6
2827,25,13,1002,-16,-22,-7
2828,135,38,1005,-14,-16,-7
2829,150,38,988,-11,3,-5
2830,27,53,1008,-13,22,2
2831,-84,45,995,-17,21,0
2832,-156,8,992,-17,7,-2
2833,-72,12,990,-17,-16,-8
2834,51,19,997,-15,-22,-8
2835,148,27,1005,-14,-13,-8
2836,125,46,1005,-12,8,-2
2837,7,47,1000,-13,23,1
2838,-116,36,1007,-15,20,1
2839,-136,15,980,-16,1,-5
2840,-57,11,983,-15,-17,-5
2841,83,30,1004,-15,-23,-8
2842,149,33,1010,-15,-8,-6
2843,110,54,998,-10,13,-2
2844,-18,42,1005,-16,24,1
2845,-130,27,994,-15,18,-1
2846,-121,14,977,-14,-3,-4
2847,-33,10,986,-16,-19,-8
2848,106,24,1013,-13,-21,-8
2849,150,43,993,-10,-4,-5
2850,96,49,1015,-12,16,-1
2851,-41,39,995,-14,25,2
2852,-142,32,983,-13,15,-2
2853,-111,8,988,-16,-8,-7
2854,-17,19,992,-14,-21,-8
2855,128,31,1010,-15,-19,-10
2856,161,34,1004,-14,-1,-4
2857,66,58,991,-11,20,1
2858,-55,32,1009,-14,24,1
2859,-161,21,983,-15,12,-1
2860,-102,18,981,-13,-10,-6
2861,24,16,1010,-15,-23,-10
2862,132,33,1003,-13,-17,-6
2863,160,43,1001,-14,3,-4
2864,40,50,997,-13,23,2
2865,-86,32,1006,-15,24,1
2866,-154,18,985,-15,8,-3
2867,-82,4,992,-14,-13,-7
2868,49,23,993,-14,-23,-8
2869,144,35,1001,-13,-13,-6
2870,139,51,1007,-12,7,-2
2871,6,54,999,-16,24,3
2872,-101,35,1005,-16,20,0
2873,-145,10,984,-18,3,-2
2874,-60,2,980,-16,-16,-6
2875,75,21,1004,-13,-23,-7
2876,147,35,1003,-13,-9,-7
2877,120,61,1003,-12,11,-2
2878,-15,44,1001,-15,23,2
2879,-122,33,1000,-16,18,-1
2880,-128,13,976,-17,-3,-4
2881,-37,9,991,-14,-20,-6
2882,96,23,998,-17,-23,-7
2883,154,36,1006,-12,-5,-6
2884,97,51,1012,-12,15,-1
2885,-44,46,991,-13,24,3
2886,-132,25,991,-13,15,-1
2887,-118,15,988,-17,-5,-3
2888,-8,16,991,-15,-22,-8
2889,118,20,1012,-15,-19,-7
2890,150,38,1005,-12,-1,-4
2891,73,53,991,-12,18,0
2892,-63,36,1011,-12,24,1
2893,-148,31,979,-17,11,-1
2894,-104,9,988,-17,-9,-5
2895,22,21,1002,-13,-24,-10
2896,132,26,1010,-14,-16,-6
2897,147,41,989,-10,4,-5
2898,44,46,1009,-12,21,1
2899,-84,48,998,-13,23,2
2900,-150,19,987,-18,8,-3
2901,-85,6,995,-15,-14,-7
2902,44,20,999,-13,-23,-7
2903,152,30,990,-12,-15,-9
2904,134,44,1013,-12,8,-2
2905,14,49,994,-14,23,3
2906,-101,45,1011,-14,21,1
2907,-146,10,977,-18,4,-2
2908,-62,7,993,-14,-15,-6
2909,79,19,996,-15,-22,-9
2910,146,38,1005,-13,-8,-5
2911,125,48,1003,-13,10,-2
2912,-12,45,1007,-11,24,3
2913,-118,36,997,-15,19,0
2914,-132,19,980,-15,0,-3
2915,-41,8,990,-16,-19,-6
2916,87,21,1000,-14,-22,-7
2917,157,43,1012,-13,-7,-6
2918,107,48,1005,-11,14,1
2919,-31,46,999,-14,24,2
2920,-126,24,990,-16,15,-1
2921,-129,13,978,-17,-4,-3
2922,-23,13,996,-15,-20,-8
2923,111,30,1009,-15,-20,-7
2924,163,43,1001,-13,-3,-4
2925,88,46,1001,-14,17,1
2926,-52,43,1001,-13,25,2
2927,-148,20,987,-14,13,-1
2928,-113,21,977,-15,-8,-6
2929,0,16,1000,-17,-23,-7
2930,136,26,1013,-15,-20,-9
2931,151,43,995,-12,1,-2
2932,60,49,991,-14,20,1
2933,-70,33,1016,-14,24,0
2934,-159,18,979,-15,10,-1
2935,-92,18,988,-14,-12,-6
2936,37,17,1000,-15,-24,-9
2937,140,34,1002,-13,-15,-5
2938,146,45,996,-12,6,-4
2939,22,49,1007,-14,23,2
2940,-94,40,1001,-14,21,0
2941,-146,12,986,-17,4,-3
2942,-67,7,985,-14,-16,-6
2943,67,23,998,-13,-23,-8
2944,146,38,1003,-15,-11,-6
2945,125,47,1007,-12,9,-1
2946,-4,46,999,-13,24,2
2947,-112,33,1005,-14,19,1
2948,-141,12,979,-14,2,-2
2949,-47,8,982,-14,-18,-7
2950,91,25,1007,-14,-23,-8
2951,145,50,1001,-13,-8,-5
2952,116,50,1006,-13,12,-1
2953,-33,39,1000,-16,26,2
2954,-130,34,985,-13,17,0
2955,-129,2,980,-17,-3,-3
2956,-28,13,992,-13,-21,-7
2957,111,32,1007,-14,-20,-8
2958,156,46,1003,-13,-4,-6
2959,85,54,1002,-12,16,0
2960,-48,36,998,-16,23,2
2961,-147,18,990,-17,13,-1
2962,-111,11,980,-16,-8,-4
2963,1,20,996,-15,-21,-8
2964,131,29,1019,-15,-18,-8
2965,160,37,994,-11,1,-4
2966,54,60,989,-12,22,1
2967,-74,26,1019,-15,24,0
2968,-156,25,978,-14,10,-2
2969,-90,10,986,-15,-12,-5
2970,36,26,1000,-16,-24,-7
2971,148,25,1005,-16,-17,-7
2972,145,46,991,-11,5,-3
2973,16,52,1009,-14,22,2
2974,-94,36,1007,-15,22,0
2975,-152,7,983,-17,6,-2
2976,-68,14,981,-12,-16,-7
2977,66,24,1005,-16,-24,-8
2978,156,36,1005,-13,-11,-6
2979,128,53,994,-13,10,-1
2980,-4,53,1010,-15,25,0
2981,-117,30,1005,-16,20,0
2982,-141,4,970,-16,1,-2
2983,-48,6,989,-14,-18,-8
2984,91,25,1009,-14,-24,-9
2985,155,46,1000,-13,-9,-6
2986,111,46,1007,-16,12,-1
2987,-24,43,1006,-14,26,2
2988,-132,29,982,-16,18,1
2989,-135,10,976,-14,-3,-3
2990,-25,15,999,-16,-20,-7
2991,113,31,1006,-13,-21,-8
2992,157,44,1002,-14,-5,-5
2993,91,48,1002,-11,17,-2
2994,-55,37,1001,-14,26,2
2995,-142,23,985,-14,13,0
2996,-118,17,976,-14,-7,-3
2997,7,22,1011,-16,-23,-8
2998,126,22,1005,-15,-19,-7
2999,155,48,998,-12,0,-5
3000,61,43,1000,-13,19,1
3001,-73,37,1000,-14,24,1
3002,-155,16,986,-15,10,-2
3003,-86,11,992,-12,-12,-7
3004,32,15,993,-16,-22,-6
3005,141,42,1007,-12,-16,-6
3006,146,44,997,-12,5,-2
3007,19,56,996,-12,22,2
3008,-93,32,1013,-15,20,-1
3009,-147,10,982,-18,5,-3
3010,-68,4,983,-15,-14,-6
3011,65,17,995,-13,-23,-8
3012,146,41,1014,-11,-11,-7
3013,124,51,992,-11,10,-1
3014,-5,54,1010,-15,24,2
3015,-118,30,1002,-17,18,-1
3016,-132,15,980,-16,-2,-4
3017,-49,11,976,-17,-19,-7
3018,93,32,1020,-14,-23,-7
3019,156,31,998,-16,-8,-6
3020,102,44,1004,-11,15,0
3021,-25,38,1004,-13,23,-1
3022,-135,30,989,-14,17,0
3023,-124,14,972,-15,-5,-4
3024,-22,21,1000,-13,-21,-8
3025,111,32,1009,-15,-22,-8
3026,158,41,1000,-12,-3,-5
3027,83,47,1005,-15,17,0
3028,-56,36,1001,-16,25,2
3029,-139,17,982,-15,13,-1
3030,-109,6,985,-17,-8,-5
3031,5,16,1002,-13,-23,-8
3032,134,32,1006,-14,-18,-9
3033,150,47,998,-12,0,-3
3034,53,52,1000,-12,20,1
3035,-71,39,1004,-15,24,1
3036,-153,21,986,-15,10,-2
3037,-91,12,992,-17,-12,-4
3038,41,17,1002,-13,-23,-8
3039,140,31,1000,-9,-14,-7
3040,140,47,1005,-17,4,-3
3041,19,52,995,-9,23,1
3042,-99,38,1012,-15,21,0
3043,-141,17,983,-17,4,-1
3044,-71,4,985,-13,-14,-5
3045,66,25,1003,-18,-25,-7
3046,146,43,1001,-12,-11,-5
3047,128,44,1004,-13,9,-3
3048,-5,55,1003,-15,24,4
3049,-108,34,1002,-13,19,-1
3050,-138,10,982,-17,0,-3
3051,-45,12,984,-16,-19,-7
3052,88,21,1005,-15,-23,-9
3053,147,41,1007,-16,-8,-6
3054,107,49,1004,-12,13,-1
3055,-27,46,996,-14,25,1
3056,-131,25,996,-16,17,1
3057,-124,15,974,-15,-4,-3
3058,-26,6,990,-16,-19,-8
3059,112,38,1007,-14,-22,-8
3060,158,40,1009,-15,-3,-5
3061,81,47,992,-14,17,1
3062,-54,37,1008,-15,24,1
3063,-145,18,982,-17,11,-2
3064,-108,12,982,-15,-9,-4
3065,15,14,1002,-16,-22,-7
3066,128,29,1010,-12,-18,-9
3067,154,50,999,-13,1,-6
3068,51,52,994,-13,21,2
3069,-79,39,1002,-16,23,0
3070,-149,15,998,-15,9,-3
3071,-96,8,979,-14,-11,-5
3072,45,16,1004,-15,-23,-9
3073,145,28,1000,-11,-14,-6
3074,135,49,995,-10,7,-2
3075,25,58,1007,-11,23,0
3076,-104,44,1002,-15,21,3
3077,-151,18,982,-16,4,-2
3078,-62,7,986,-16,-16,-6
3079,63,13,1001,-15,-24,-6
3080,151,35,1000,-13,-11,-7
3081,122,43,1005,-13,10,-3
3082,-4,52,998,-12,24,1
3083,-115,28,1006,-15,19,0
3084,-140,18,971,-14,0,-3
3085,-42,10,990,-16,-19,-7
3086,99,22,1009,-14,-23,-10
3087,145,48,995,-14,-6,-4
3088,114,49,1016,-13,14,-2
3089,-38,36,993,-14,26,3
3090,-134,30,986,-12,16,-1
3091,-117,2,989,-17,-4,-5
3092,-33,19,985,-13,-18,-7
3093,120,31,1014,-14,-21,-9
3094,155,49,1002,-9,-3,-3
3095,80,51,997,-14,18,1
3096,-47,42,1004,-16,26,0
3097,-151,22,988,-17,14,0
3098,-108,5,973,-17,-8,-5
3099,11,13,1002,-15,-22,-9
3100,123,32,1019,-13,-18,-6
3101,163,43,988,-13,0,-5
3102,51,50,1002,-12,21,2
3103,-80,47,1006,-13,23,1
3104,-152,23,984,-16,9,-1
3105,-92,8,988,-16,-12,-5
3106,35,21,1000,-17,-24,-7
3107,148,22,1000,-14,-17,-8
3108,139,42,996,-11,6,-3
3109,26,52,1001,-13,23,2
3110,-91,41,1012,-13,23,0
3111,-151,9,974,-17,6,-2
3112,-71,18,990,-14,-14,-7
3113,67,17,1001,-16,-23,-9
3114,142,43,995,-12,-10,-6
3115,128,48,1011,-11,8,-1
3116,-4,50,998,-15,24,2
3117,-118,24,1006,-15,20,1
3118,-134,13,979,-14,2,-3
3119,-46,3,986,-15,-16,-7
3120,90,21,1003,-10,-23,-9
3121,148,48,1009,-12,-7,-5
3122,104,56,1002,-13,14,0
3123,-29,54,1006,-14,24,2
3124,-131,21,986,-17,16,0
3125,-124,9,984,-17,-6,-4
3126,-15,0,985,-17,-21,-9
3127,110,25,1017,-12,-20,-8
3128,161,42,996,-11,-2,-5
3129,75,55,1008,-12,18,1
3130,-51,48,994,-13,24,1
3131,-146,25,995,-16,14,0
3132,-109,11,972,-19,-8,-6
3133,4,13,1006,-15,-21,-7
3134,127,26,1009,-14,-19,-8
3135,155,39,998,-11,0,-4
3136,54,46,996,-11,20,1
3137,-71,45,1009,-15,24,2
3138,-152,16,986,-17,10,-1
3139,-91,20,989,-16,-11,-6
3140,32,17,1002,-17,-23,-7
3141,145,33,1000,-14,-15,-6
3142,139,39,997,-14,5,-3
3143,31,53,1000,-13,21,1
3144,-101,31,1011,-15,21,2
3145,-144,19,975,-15,5,-1
3146,-72,5,994,-16,-15,-6
3147,69,29,995,-13,-25,-7
3148,148,42,1007,-15,-11,-6
3149,126,48,1000,-14,9,-2
3150,-3,47,1007,-13,24,3
3151,-112,31,1001,-16,19,-1
3152,-139,10,975,-18,1,-3
3153,-50,6,987,-14,-17,-7
3154,88,24,1007,-14,-23,-7
3155,150,42,1002,-13,-9,-6
3156,111,56,1010,-10,13,0
3157,-29,39,998,-15,24,3
3158,-123,32,990,-14,16,0
3159,-126,8,978,-17,-3,-4
3160,-26,13,992,-16,-20,-8
3161,115,27,1005,-15,-22,-10
3162,147,40,1001,-13,-2,-5
3163,83,49,1004,-14,16,1
3164,-50,39,1003,-13,24,1
3165,-140,27,982,-15,14,-1
3166,-116,4,981,-17,-8,-3
3167,8,22,1004,-13,-23,-10
3168,126,25,1009,-16,-19,-7
3169,149,47,995,-12,1,-4
3170,57,47,1000,-12,19,0
3171,-75,42,1006,-13,22,0
3172,-148,18,985,-17,8,-1
3173,-93,11,989,-17,-12,-5
3174,39,15,1000,-14,-22,-9
3175,145,32,1003,-13,-14,-8
3176,142,47,1000,-9,7,-2
3177,20,52,996,-13,23,1
3178,-97,41,1013,-16,21,0
3179,-148,13,978,-16,4,-3
3180,-67,8,987,-15,-15,-8
3181,68,18,1000,-14,-23,-8
3182,147,37,1008,-11,-9,-5
3183,127,50,991,-14,9,-2
3184,-2,47,1012,-14,25,3
3185,-121,36,1005,-14,19,1
3186,-135,18,969,-18,2,-2
3187,-48,4,988,-18,-18,-7
3188,90,29,1009,-16,-24,-6
3189,161,33,999,-14,-9,-7
3190,111,50,1009,-13,14,1
3191,-22,50,1004,-15,25,3
3192,-136,27,985,-15,19,0
3193,-135,13,985,-16,-3,-4
3194,-30,11,989,-15,-20,-7
3195,109,22,1007,-17,-22,-7
3196,162,39,1008,-11,-5,-6
3197,87,56,999,-13,16,1
3198,-41,37,1000,-14,25,1
3199,-149,26,989,-15,15,-1
3200,-114,15,977,-16,-7,-5
3201,-2,15,1005,-16,-21,-8
3202,119,27,1007,-14,-19,-7
3203,158,37,999,-13,0,-5
3204,61,50,996,-12,20,1
3205,-71,34,1008,-13,23,1
3206,-148,24,985,-14,10,-3
3207,-96,12,986,-15,-10,-5
3208,31,20,1002,-15,-22,-8
3209,141,31,1000,-14,-15,-7
3210,140,43,1002,-11,5,-1
3211,28,57,998,-14,22,2
3212,-90,37,1011,-16,22,1
3213,-146,12,978,-19,5,-2
3214,-76,4,992,-16,-15,-7
3215,64,13,993,-12,-23,-9
3216,148,31,1004,-11,-12,-6
3217,132,58,1001,-12,9,-2
3218,-1,55,1005,-13,25,3
3219,-108,43,1002,-15,19,1
3220,-141,10,980,-17,1,-2
3221,-49,3,983,-18,-18,-8
3222,86,12,1008,-15,-23,-8
3223,150,36,1001,-10,-8,-7
3224,105,52,1004,-11,15,0
3225,-20,49,1003,-14,24,2
3226,-135,33,988,-14,17,0
3227,-126,18,980,-16,-5,-4
3228,-26,8,988,-17,-20,-8
3229,103,27,1008,-13,-20,-7
3230,161,40,1001,-14,-4,-5
3231,81,44,1000,-12,18,1
3232,-44,39,1006,-11,24,0
3233,-146,20,983,-15,14,0
3234,-115,19,977,-15,-8,-6
3235,5,18,1008,-15,-22,-9
3236,129,31,1010,-15,-19,-8
3237,155,42,988,-12,1,-2
3238,57,46,1003,-16,20,3
3239,-73,37,1006,-15,23,1
3240,-151,16,982,-17,10,-2
3241,-98,15,987,-17,-11,-5
3242,38,17,1008,-15,-24,-9
3243,143,30,999,-13,-15,-7
3244,144,46,995,-12,5,-2
3245,32,52,1003,-11,23,1
3246,-106,41,1009,-16,23,2
3247,-142,15,979,-17,5,-4
3248,-79,9,993,-16,-14,-6
3249,66,14,1002,-15,-24,-10
3250,155,39,1000,-13,-12,-7
3251,122,44,998,-14,10,0
3252,0,54,1008,-13,24,2
3253,-113,33,1003,-16,20,0
3254,-139,12,977,-16,3,-1
3255,-48,11,984,-17,-17,-6
3256,89,21,1011,-14,-23,-9
3257,153,38,997,-13,-8,-5
3258,104,52,1008,-11,14,0
3259,-16,46,1002,-15,24,0
3260,-131,25,991,-14,18,2
3261,-132,23,974,-15,-4,-4
3262,-15,4,998,-17,-21,-10
3263,102,26,1004,-14,-19,-8
3264,155,42,996,-12,-3,-5
3265,83,45,1014,-13,17,0
3266,-44,42,996,-13,23,2
3267,-144,22,983,-15,15,0
3268,-109,16,988,-15,-7,-5
3269,1,21,996,-15,-22,-8
3270,122,31,1006,-12,-19,-8
3271,157,42,1003,-13,1,-4
3272,53,43,990,-14,21,2
3273,-68,41,1013,-14,23,1
3274,-150,12,979,-16,10,-2
3275,-101,20,990,-13,-10,-6
3276,38,16,1005,-16,-23,-8
3277,135,34,1001,-13,-15,-5
3278,153,43,995,-13,4,-3
3279,22,47,1003,-14,22,2
3280,-90,37,999,-17,21,0
3281,-157,12,987,-16,7,-2
3282,-76,14,987,-15,-15,-6
3283,64,25,998,-13,-23,-8
3284,144,33,1002,-12,-11,-8
3285,131,45,1001,-13,9,-2
3286,3,50,1008,-13,24,2
3287,-114,35,999,-16,21,2
3288,-140,11,982,-17,1,-3
3289,-51,8,978,-15,-18,-8
3290,85,22,1013,-13,-23,-8
3291,155,43,997,-11,-8,-5
3292,113,51,1002,-12,14,0
3293,-24,47,1006,-14,24,1
3294,-129,28,988,-16,17,-1
3295,-127,12,980,-15,-4,-5
3296,-29,10,986,-16,-21,-8
3297,109,25,1007,-13,-21,-9
3298,155,41,1007,-12,-4,-6
3299,81,52,995,-13,17,0
3300,-41,43,1009,-12,24,0
3301,-142,22,986,-17,13,0
3302,-108,23,971,-16,-7,-5
3303,4,10,1011,-17,-22,-8
3304,116,32,1008,-12,-19,-7
3305,156,39,992,-12,-1,-5
3306,63,51,1002,-11,19,0
3307,-74,40,1005,-14,22,2
3308,-142,25,984,-17,10,-3
3309,-105,4,986,-18,-11,-5
3310,33,20,1003,-14,-25,-9
3311,143,27,1006,-13,-16,-8
3312,139,43,991,-10,5,-3
3313,40,63,1007,-13,20,0
3314,-98,24,999,-17,24,1
3315,-151,23,989,-14,7,-2
3316,-68,2,987,-16,-15,-7
3317,57,28,1005,-12,-22,-7
3318,151,34,995,-14,-13,-6
3319,129,54,1006,-13,10,-2
3320,5,48,999,-13,23,2
3321,-112,38,1005,-15,20,1
3322,-143,3,982,-19,1,-3
3323,-49,8,980,-13,-17,-6
3324,85,15,1005,-15,-22,-9
3325,149,45,1003,-11,-7,-6
3326,115,57,1005,-12,13,0
3327,-24,52,1004,-15,25,1
3328,-131,31,991,-17,18,1
3329,-124,11,976,-16,-4,-3
3330,-34,1,996,-17,-22,-8
3331,107,26,997,-13,-22,-8
3332,153,38,1009,-12,-5,-6
3333,93,47,1009,-10,16,0
3334,-50,50,998,-13,27,2
3335,-139,29,983,-15,14,-3
3336,-113,13,986,-17,-8,-5
3337,-7,19,995,-16,-21,-7
3338,128,21,1013,-15,-19,-8
3339,151,35,999,-13,0,-3
3340,67,42,991,-13,19,2
3341,-68,43,1010,-10,23,1
3342,-145,28,983,-16,10,-2
3343,-105,16,982,-17,-9,-5
3344,29,27,1010,-15,-23,-9
3345,136,21,996,-17,-16,-6
3346,151,40,996,-10,4,-5
3347,38,44,1009,-12,23,2
3348,-92,41,996,-13,22,2
3349,-152,14,992,-16,6,-2
3350,-83,7,984,-14,-14,-6
3351,50,25,998,-14,-23,-8
3352,157,36,1000,-13,-14,-8
3353,135,55,1007,-13,9,-2
3354,6,40,998,-15,24,2
3355,-110,36,1011,-14,23,0
3356,-148,3,976,-16,2,-3
3357,-59,12,983,-14,-18,-6
3358,80,23,1005,-13,-25,-8
3359,154,43,1003,-10,-9,-6
3360,122,54,1004,-10,11,-2
3361,-17,50,999,-14,24,2
3362,-131,34,1001,-16,18,-1
3363,-128,6,971,-18,-2,-5
3364,-41,0,991,-17,-20,-7
3365,99,26,1002,-13,-23,-7
3366,167,40,1009,-11,-5,-6
3367,93,60,1004,-10,16,1
3368,-41,48,1001,-14,24,3
3369,-138,23,986,-17,15,0
3370,-124,13,984,-17,-8,-4
3371,-7,16,989,-15,-21,-9
3372,120,27,1020,-16,-19,-7
3373,154,35,988,-7,-1,-4
3374,75,49,1002,5,20,-2
3375,-63,39,1006,-16,24,3
3376,-150,29,984,-15,11,-1
3377,-99,11,978,-16,-12,-7
3378,17,20,1009,-15,-23,-8
3379,142,31,1002,-14,-17,-8
3380,145,40,996,-13,3,-4
3381,40,48,1002,-13,20,1
3382,-86,40,1002,-15,22,2
3383,-145,14,986,-17,6,-3
3384,-79,16,995,-15,-13,-4
3385,53,20,993,-15,-22,-9
3386,148,32,1002,-13,-13,-6
3387,129,43,1002,-13,7,-2
3388,6,54,999,-14,23,2
3389,-97,28,1011,-16,19,-1
3390,-148,22,978,-17,3,-2
3391,-49,5,979,-15,-17,-8
3392,78,22,1004,-14,-22,-7
3393,144,35,1006,-14,-9,-7
3394,119,50,997,-12,12,-2
3395,-21,44,1003,-15,25,3
3396,-119,30,1004,-14,16,-2
3397,-133,14,976,-17,0,-4
3398,-32,14,985,-14,-18,-8
3399,101,25,1007,-16,-22,-9
3400,152,42,1005,-13,-5,-6
3401,105,44,1005,-14,14,1
3402,-45,40,997,-13,26,2
3403,-141,26,992,-14,14,0
3404,-121,6,981,-14,-7,-4
3405,-18,22,991,-14,-21,-7
3406,122,24,1014,-13,-19,-8
3407,162,46,1007,-11,-2,-6
3408,72,54,987,-13,19,1
3409,-57,41,1013,-15,24,1
3410,-153,13,984,-17,12,0
3411,-111,11,974,-13,-11,-5
3412,19,19,1013,-16,-23,-10
3413,135,22,1003,-16,-18,-7
3414,153,52,996,-10,2,-3
3415,49,43,1002,-15,21,2
3416,-86,46,1007,-13,24,0
3417,-145,8,981,-18,7,-1
3418,-92,15,993,-12,-12,-5
3419,46,15,1004,-14,-24,-9
3420,147,36,991,-10,-14,-7
3421,136,48,1009,-11,8,-2
3422,14,52,997,-14,23,2
3423,-101,35,1008,-13,21,1
3424,-146,12,981,-18,3,-2
3425,-61,6,981,-15,-17,-6
3426,76,14,1007,-13,-23,-9
3427,145,38,999,-10,-10,-6
3428,124,57,1004,-10,11,-1
3429,-19,56,1001,-14,25,2
3430,-123,36,1007,-15,18,1
3431,-130,13,972,-19,-1,-2
3432,-42,-1,992,-17,-19,-7
3433,105,21,1008,-12,-23,-10
3434,151,34,998,-12,-5,-4
3435,100,53,1011,-10,14,-1
3436,-28,48,1003,-13,24,2
3437,-139,29,983,-13,17,1
3438,-124,19,981,-16,-5,-4
3439,-20,10,995,-18,-21,-9
3440,114,22,1008,-17,-21,-7
3441,162,34,997,-12,-3,-6
3442,84,47,1006,-12,18,0
3443,-56,46,1001,-13,24,2
3444,-150,27,985,-14,13,-2
3445,-114,21,978,-16,-8,-6
3446,-3,19,1003,-16,-23,-8
3447,145,28,1013,-16,-21,-9
3448,162,30,991,-13,0,-5
3449,58,51,1000,-10,21,0
3450,-77,39,1011,-14,25,0
3451,-158,16,983,-14,11,-3
3452,-97,17,986,-14,-12,-5
3453,36,22,1003,-16,-24,-8
3454,148,29,1000,-15,-16,-7
3455,147,46,995,-13,5,-1
3456,26,52,1005,-14,23,1
3457,-98,35,1011,-16,23,0
3458,-155,15,981,-17,6,-1
3459,-65,9,984,-16,-16,-8
3460,63,13,1001,-15,-23,-8
3461,150,45,1005,-12,-13,-7
3462,131,39,999,-14,9,-3
3463,-5,61,1003,-14,25,3
3464,-115,25,1004,-18,19,0
3465,-140,14,977,-14,1,-4
3466,-47,3,979,-16,-18,-5
3467,95,27,1008,-11,-22,-9
3468,150,38,1002,-12,-7,-6
3469,104,60,1003,-9,14,-1
3470,-29,46,1004,-16,23,1
3471,-132,27,983,-16,15,-1
3472,-121,11,986,-15,-4,-4
3473,-20,4,988,-17,-20,-8
3474,110,23,1007,-12,-20,-8
3475,157,49,1004,-9,-4,-6
3476,74,46,1001,-14,18,2
3477,-48,45,1000,-11,24,1
3478,-147,25,987,-17,12,1
3479,-106,20,984,-17,-10,-6
3480,13,7,1000,-15,-23,-8
3481,126,23,1011,-13,-19,-8
3482,149,41,998,-11,2,-3
3483,52,54,993,-11,21,1
3484,-80,42,1010,-16,23,1
3485,-149,28,985,-14,8,-2
3486,-82,15,988,-18,-11,-5
3487,32,14,999,-16,-23,-7
3488,146,36,1007,-13,-16,-7
3489,136,33,989,-14,5,-1
3490,21,57,1007,-10,22,1
3491,-93,28,1004,-15,19,0
3492,-150,22,982,-14,5,-2
3493,-58,6,988,-16,-15,-6
3494,68,24,1001,-14,-22,-7
3495,142,39,1002,-14,-11,-4
3496,130,57,1000,-11,9,-1
3497,-14,47,1006,-17,24,2
3498,-119,34,998,-15,18,2
3499,-127,2,983,-18,0,-3
3500,-43,2,980,-15,-17,-6
3501,92,20,1012,-10,-23,-9
3502,154,44,999,-11,-7,-6
3503,98,55,1009,-11,15,1
3504,-27,56,1001,-14,23,0
3505,-129,17,991,-19,16,-2
3506,-123,9,978,-15,-4,-4
3507,-21,7,994,-15,-19,-7
3508,116,22,1004,-13,-21,-8
3509,155,46,1008,-10,-3,-5
3510,82,56,1001,-13,18,0
3511,-48,50,1003,-13,25,1
3512,-143,22,983,-18,13,-1
3513,-112,13,982,-17,-7,-4
3514,5,10,997,-15,-21,-8
3515,129,25,1015,-13,-18,-7
3516,152,38,993,-12,0,-4
3517,51,51,996,-11,21,2
3518,-68,42,1011,-15,23,1
3519,-159,24,981,-13,10,-2
3520,-90,15,984,-17,-12,-6
3521,38,20,1010,-14,-23,-9
3522,139,24,995,-14,-15,-7
3523,148,45,997,-13,5,-3
3524,28,43,1004,-13,22,1
3525,-93,47,996,-14,22,1
3526,-145,15,988,-17,5,-3
3527,-75,14,994,-16,-15,-7
3528,63,24,991,-15,-24,-8
3529,150,35,1008,-14,-12,-7
3530,129,40,1000,-13,8,-2
3531,-1,44,1001,-13,23,1
3532,-109,32,1010,-16,19,-1
3533,-146,11,973,-16,2,-1
3534,-47,16,990,-12,-17,-8
3535,81,22,1003,-14,-21,-7
3536,151,39,1002,-15,-8,-6
3537,116,55,1008,-13,12,-1
3538,-32,48,997,-17,24,3
3539,-119,27,995,-16,18,-2
3540,-132,5,980,-16,-3,-5
3541,-32,13,985,-14,-20,-9
3542,110,25,1009,-14,-22,-9
3543,150,39,1001,-12,-4,-5
3544,85,64,1008,-11,16,-1
3545,-35,39,997,-16,23,0
3546,-151,28,986,-15,15,1
3547,-108,9,981,-18,-9,-4
3548,-4,11,998,-15,-21,-9
3549,120,27,1003,-15,-19,-7
3550,161,38,1002,-12,-1,-6
3551,62,49,996,-10,20,0
3552,-62,48,1006,-11,23,1
3553,-151,27,982,-16,11,-2
3554,-103,21,986,-16,-11,-5
3555,24,7,1003,-17,-23,-8
3556,133,28,1011,-13,-17,-7
3557,153,42,990,-13,3,-3
3558,34,45,1002,-13,23,2
3559,-85,41,1007,-14,22,0
3560,-151,20,980,-15,8,-2
3561,-83,15,995,-16,-13,-6
3562,59,25,996,-13,-23,-8
3563,142,26,997,-13,-12,-5
3564,132,48,1006,-12,7,-1
3565,5,50,1002,-13,22,2
3566,-103,42,1003,-14,19,0
3567,-139,8,980,-17,1,-3
3568,-54,19,987,-14,-16,-8
3569,79,14,999,-16,-23,-8
3570,140,37,1004,-13,-8,-6
3571,120,50,1001,-12,11,-1
3572,-19,46,1006,-12,24,2
3573,-121,36,997,-14,16,-1
3574,-125,9,973,-16,-3,-4
3575,-32,11,991,-16,-20,-7
3576,100,24,1005,-15,-22,-8
3577,152,33,1006,-13,-5,-6
3578,95,53,1003,-11,15,-1
3579,-42,47,1001,-12,25,0
3580,-124,26,986,-14,14,-2
3581,-122,16,986,-16,-4,-3
3582,-11,12,995,-15,-20,-8
3583,116,28,1005,-15,-18,-8
3584,151,44,1002,-13,-1,-5
3585,69,47,997,-13,18,0
3586,-57,45,1004,-13,23,0
3587,-149,19,984,-16,10,0
3588,-105,17,979,-15,-10,-6
3589,22,11,1011,-15,-22,-8
3590,131,36,1005,-11,-17,-6
3591,157,47,996,-12,2,-4
3592,42,47,993,-13,22,1
3593,-81,36,1014,-14,22,0
3594,-156,13,979,-18,8,-3
3595,-88,15,991,-15,-13,-7
3596,58,19,1006,-14,-26,-9
3597,141,38,988,-11,-13,-7
3598,148,45,1014,-14,5,-4
3599,14,51,1000,-15,24,3
3600,-108,32,995,-13,21,0
3601,-138,8,995,-16,3,-4
3602,-70,7,983,-14,-15,-5
3603,74,25,995,-13,-23,-8
3604,154,31,1013,-13,-10,-8
3605,112,55,995,-11,11,0
3606,-5,51,1006,-14,23,0
3607,-125,36,1003,-14,19,-1
3608,-136,5,971,-18,-1,-2
3609,-34,4,985,-16,-19,-8
3610,87,22,1011,-13,-23,-6
3611,159,51,1001,-13,-6,-7
3612,98,42,1013,-12,15,-1
3613,-38,53,995,-14,23,3
3614,-126,23,990,-17,15,-2
3615,-124,13,985,-14,-4,-5
3616,-19,15,991,-16,-21,-5
3617,115,29,1004,-12,-20,-8
3618,151,40,1006,-12,-2,-4
3619,81,58,997,-12,18,-1
3620,-62,38,1008,-14,25,3
3621,-143,26,973,-16,11,-1
3622,-103,6,990,-18,-8,-5
3623,10,15,999,-15,-23,-7
3624,132,29,1016,-12,-19,-8
3625,152,42,982,-12,2,-4
3626,45,51,1009,-10,22,3
3627,-75,42,1000,-16,22,1
3628,-154,20,988,-15,10,-2
3629,-83,12,990,-16,-13,-4
3630,43,15,997,-16,-23,-8
3631,148,30,1003,-13,-13,-9
3632,135,46,1000,-13,7,-2
3633,26,52,999,-13,22,-1
3634,-104,29,1005,-14,21,0
3635,-154,22,987,-16,3,-2
3636,-58,7,989,-16,-16,-8
3637,68,20,999,-15,-22,-8
3638,150,36,1000,-13,-11,-6
3639,131,48,1008,-11,10,-3
3640,-9,51,1003,-13,25,3
3641,-124,36,996,-15,19,0
3642,-133,7,989,-16,-1,-4
3643,-47,11,974,-16,-19,-7
3644,91,20,1013,-13,-22,-10
3645,161,41,1006,-11,-7,-7
3646,102,50,999,-14,16,1
3647,-32,50,1004,-11,26,0
3648,-131,29,989,-19,17,-1
3649,-130,13,980,-16,-5,-4
3650,-23,10,992,-16,-21,-7
3651,109,27,1004,-15,-22,-8
3652,159,44,1008,-9,-2,-6
3653,85,50,1003,-13,17,1
3654,-52,46,1000,-12,24,1
3655,-144,21,980,-16,14,-1
3656,-112,13,986,-16,-7,-5
3657,9,6,997,-15,-22,-9
3658,125,33,1016,-12,-19,-8
3659,157,43,994,-13,-1,-5
3660,60,53,996,-12,20,1
3661,-76,40,1012,-15,23,1
3662,-149,25,981,-17,10,-1
3663,-99,10,988,-16,-12,-6
3664,40,18,995,-15,-24,-8
3665,135,25,1012,-13,-14,-7
3666,153,47,987,-9,4,-5
3667,26,50,1008,-12,22,2
3668,-89,43,993,-14,21,-1
3669,-156,16,990,-14,6,-1
3670,-71,15,987,-15,-16,-7
3671,64,16,1006,-14,-23,-7
3672,147,27,987,-12,-11,-7
3673,128,45,1017,-12,9,-1
3674,2,50,991,-14,24,2
3675,-113,36,1013,-13,21,2
3676,-135,16,974,-15,1,-3
3677,-51,14,988,-16,-17,-6
3678,94,22,1001,-15,-23,-10
3679,144,41,1003,-14,-6,-5
3680,112,41,1003,-13,12,-2
3681,-31,49,1004,-14,24,2
3682,-128,25,991,-15,16,-1
3683,-119,18,984,-14,-2,-4
3684,-26,6,987,-15,-20,-6
3685,106,34,1009,-13,-20,-6
3686,152,38,1003,-14,-3,-5
3687,81,47,1006,-13,17,1
3688,-44,38,1000,-15,23,2
3689,-138,26,979,-15,15,-1
3690,-112,13,988,-15,-8,-5
3691,5,16,998,-15,-23,-9
3692,121,31,1010,-14,-18,-8
3693,153,44,995,-12,0,-5
3694,62,47,1007,-11,20,1
3695,-73,41,995,-14,22,0
3696,-148,17,988,-17,9,-1
3697,-95,10,988,-16,-11,-6
3698,26,8,998,-14,-22,-8
3699,142,39,1012,-11,-16,-8
3700,148,44,989,-12,4,-4
3701,32,61,1002,-12,22,1
3702,-87,38,1007,-16,22,1
3703,-158,21,985,-15,7,-1
3704,-69,7,990,-19,-16,-7
3705,61,10,1001,-16,-22,-7
3706,144,31,992,-11,-11,-7
3707,136,43,1008,-9,8,-4
3708,-3,55,1000,-13,23,2
3709,-111,43,1005,-14,19,1
3710,-134,18,981,-18,1,-4
3711,-55,14,985,-20,-16,-5
3712,83,17,1003,-13,-23,-8
3713,150,34,1004,-15,-9,-7
3714,111,40,998,-13,12,-1
3715,-23,52,1005,-11,25,3
3716,-124,29,999,-17,18,-1
3717,-129,6,974,-14,-2,-4
3718,-29,21,989,-13,-22,-7
3719,100,20,1006,-15,-22,-7
3720,154,49,1005,-11,-5,-6
3721,91,46,1005,-15,14,0
3722,-41,49,999,-12,24,1
3723,-137,23,988,-16,14,0
3724,-114,13,981,-16,-6,-5
3725,-11,10,1000,-15,-20,-7
3726,126,35,1005,-12,-20,-8
3727,148,41,1005,-13,-1,-4
3728,73,47,994,-12,19,0
3729,-69,41,1010,-15,24,2
3730,-139,28,979,-15,10,-3
3731,-107,7,983,-17,-10,-4
3732,22,17,1000,-14,-22,-9
3733,135,23,1015,-15,-16,-7
3734,152,47,989,-10,3,-4
3735,32,55,1000,-13,21,4
3736,-82,46,1007,-15,22,0
3737,-153,19,988,-17,9,-1
3738,-85,14,983,-16,-13,-5
3739,59,12,1014,-16,-24,-10
3740,139,29,984,-14,-14,-7
3741,137,42,1011,-13,6,-2
3742,11,47,999,-12,23,2
3743,-112,40,1003,-13,20,2
3744,-138,22,981,-16,0,-3
3745,-63,9,985,-17,-18,-6
3746,78,19,1001,-12,-26,-7
3747,155,38,1000,-14,-9,-6
3748,114,44,995,-13,12,-1
3749,-11,51,1011,-12,24,2
3750,-121,26,996,-16,18,-1
3751,-133,19,981,-14,0,-4
3752,-37,11,983,-16,-20,-7
3753,88,30,1009,-13,-22,-9
3754,158,34,1006,-13,-7,-7
3755,95,45,1003,-13,16,0
3756,-29,38,998,-13,24,0
3757,-134,26,993,-15,16,0
3758,-123,12,972,-15,-5,-3
3759,-17,17,999,-14,-21,-7
3760,115,37,1004,-14,-21,-8
3761,152,42,1003,-13,-4,-4
3762,86,53,1002,-14,17,-2
3763,-61,37,1005,-14,25,4
3764,-142,20,977,-16,12,-1
3765,-107,7,991,-15,-8,-5
3766,9,15,999,-13,-24,-8
3767,132,31,1010,-14,-19,-7
3768,153,45,999,-10,1,-5
3769,49,57,990,-12,22,2
3770,-72,43,1012,-16,22,1
3771,-144,16,982,-18,7,-1
3772,-101,10,983,-17,-13,-4
3773,42,20,1009,-16,-24,-10
3774,141,22,996,-16,-15,-7
3775,140,50,996,-9,6,-3
3776,29,50,1006,-11,22,1
3777,-97,45,1005,-13,22,1
3778,-149,22,977,-17,5,-2
3779,-72,8,990,-18,-15,-8
3780,67,17,1005,-15,-22,-8
3781,146,30,994,-13,-11,-7
3782,128,44,1007,-11,9,-2
3783,0,50,1003,-11,24,2
3784,-110,38,1004,-14,20,0
3785,-139,15,976,-17,1,-4
3786,-54,6,987,-16,-17,-7
3787,89,23,1006,-16,-23,-9
3788,146,35,1001,-13,-6,-6
3789,108,47,1003,-10,12,-2
3790,-16,41,1009,-14,24,2
3791,-128,30,984,-13,17,1
3792,-118,21,984,-15,-3,-4
3793,-25,11,992,-19,-19,-9
3794,104,31,1004,-15,-19,-6
3795,149,33,1006,-14,-3,-7
3796,85,50,1004,-13,16,0
3797,-50,40,1000,-14,23,3
3798,-135,27,983,-14,13,-2
3799,-111,7,986,-16,-6,-4
3800,0,21,999,-14,-22,-7
3801,127,24,1012,-15,-18,-9
3802,145,49,993,-10,1,-3
3803,61,49,1000,-13,20,1
3804,-69,40,1004,-14,24,0
3805,-151,19,985,-16,10,-2
3806,-90,5,983,-17,-11,-5
3807,31,18,1010,-15,-22,-8
3808,140,33,997,-14,-16,-8
3809,138,45,999,-12,6,-3
3810,29,51,1002,-12,21,1
3811,-92,41,1002,-16,22,1
3812,-147,20,984,-18,5,-2
3813,-79,4,995,-18,-15,-6
3814,64,22,992,-15,-24,-9
3815,146,23,1005,-15,-11,-6
3816,129,50,998,-10,8,-1
3817,0,43,1006,-14,23,3
3818,-111,48,1004,-12,20,1
3819,-135,13,978,-20,1,-2
3820,-53,9,983,-17,-18,-8
3821,85,22,1010,-15,-23,-8
3822,150,35,998,-13,-9,-7
3823,107,50,1005,-12,14,0
3824,-18,45,1005,-13,25,1
3825,-123,32,993,-15,17,-1
3826,-131,4,974,-17,-2,-4
3827,-26,15,997,-15,-20,-7
3828,100,29,998,-16,-22,-8
3829,153,41,1008,-11,-5,-6
3830,96,51,1009,-12,15,0
3831,-50,43,998,-14,25,2
3832,-130,25,982,-15,13,-2
3833,-120,4,985,-18,-5,-3
3834,-8,22,995,-12,-22,-8
3835,122,26,1010,-15,-19,-8
3836,149,44,999,-12,0,-5
3837,68,53,994,-13,20,1
3838,-60,38,1010,-15,24,0
3839,-154,23,979,-19,11,-1
3840,-102,11,981,-16,-11,-6
3841,28,15,1006,-16,-23,-9
3842,130,22,1004,-14,-17,-7
3843,153,49,992,-9,3,-4
3844,42,46,1006,-14,21,2
3845,-87,44,1001,-11,22,1
3846,-147,16,983,-18,8,-2
3847,-84,18,994,-16,-14,-6
3848,51,14,995,-17,-23,-7
3849,145,28,1004,-12,-13,-7
3850,137,43,996,-12,7,-2
3851,2,55,1007,-13,24,3
3852,-97,40,1005,-14,21,-1
3853,-145,12,981,-17,4,-3
3854,-53,16,981,-15,-16,-9
3855,80,10,1008,-15,-22,-7
3856,147,37,993,-11,-9,-6
3857,114,54,1009,-11,12,-1
3858,-16,49,1001,-15,24,0
3859,-124,29,995,-14,18,0
3860,-126,12,979,-15,-2,-5
3861,-40,12,989,-17,-19,-8
3862,102,29,1003,-15,-22,-8
3863,154,39,1008,-14,-5,-5
3864,90,51,1005,-13,16,0
3865,-40,44,999,-14,24,3
3866,-133,16,984,-17,14,-1
3867,-122,12,984,-15,-6,-4
3868,0,13,990,-15,-23,-9
3869,114,29,1013,-13,-20,-6
3870,153,48,993,-12,-3,-4
3871,73,49,1009,-13,19,0
3872,-68,45,997,-13,24,3
3873,-145,16,983,-15,11,-1
3874,-95,11,984,-15,-11,-7
3875,8,14,999,-16,-23,-6
3876,144,31,1011,-13,-17,-8
3877,149,40,998,-11,4,-3
3878,40,57,991,-13,22,3
3879,-79,35,1011,-17,23,0
3880,-156,25,986,-16,9,-3
3881,-80,7,987,-17,-12,-5
3882,53,19,1000,-16,-23,-10
3883,146,28,997,-12,-13,-5
3884,140,51,1006,-9,8,-2
3885,6,50,993,-13,24,1
3886,-101,39,1008,-14,21,0
3887,-144,13,984,-18,3,-2
3888,-66,13,980,-14,-16,-6
3889,81,16,1005,-15,-23,-9
3890,142,35,1005,-11,-9,-6
3891,117,51,995,-11,11,-1
3892,-12,50,1009,-15,25,1
3893,-123,30,999,-16,18,1
3894,-133,16,976,-17,-1,-5
3895,-32,6,980,-16,-19,-8
3896,94,22,1017,-13,-21,-7
3897,149,45,996,-12,-7,-5
3898,94,46,1006,-12,14,0
3899,-33,49,999,-15,22,2
3900,-132,27,988,-15,15,0
3901,-114,13,980,-17,-7,-5
3902,-16,12,996,-16,-21,-7
3903,116,27,1001,-14,-20,-8
3904,148,42,1006,-13,-2,-5
3905,73,46,1000,-12,17,0
3906,-52,40,1004,-13,24,0
3907,-141,26,983,-14,12,-1
3908,-100,16,979,-16,-9,-4
3909,16,12,1010,-16,-21,-8
3910,123,36,1008,-13,-16,-5
3911,146,38,989,-12,2,-5
3912,49,47,1002,-13,20,0
3913,-78,43,1003,-15,23,0
3914,-143,21,983,-18,10,-2
3915,-83,8,994,-17,-13,-7
3916,45,23,1001,-13,-23,-8
3917,144,25,996,-13,-14,-8
3918,135,47,1003,-11,8,-2
3919,14,49,1000,-15,23,2
3920,-99,40,997,-15,22,-1
3921,-145,17,993,-16,4,-2
3922,-67,12,983,-16,-15,-6
3923,78,13,1009,-16,-23,-8
3924,147,34,991,-13,-9,-5
3925,119,47,1007,-11,11,-2
3926,-5,48,1001,-13,23,1
3927,-130,40,1002,-14,19,2
3928,-125,12,979,-16,-1,-6
3929,-41,9,989,-17,-17,-7
3930,89,20,999,-13,-22,-8
3931,156,40,1010,-13,-7,-5
3932,102,48,1004,-11,13,0
3933,-39,45,998,-13,25,2
3934,-124,24,994,-14,14,-3
3935,-124,11,980,-15,-4,-4
3936,-24,12,993,-14,-20,-8
3937,121,31,1007,-12,-20,-8
3938,148,35,1007,-11,-3,-4
3939,83,58,1002,-10,16,0
3940,-50,36,1002,-15,24,0
3941,-144,28,980,-16,14,0
3942,-110,9,984,-16,-8,-3
3943,7,9,1001,-14,-22,-9
3944,123,36,1013,-11,-17,-7
3945,157,37,991,-11,-1,-5
3946,56,55,1002,-11,20,2
3947,-74,48,1001,-15,23,3
3948,-149,23,987,-17,9,-1
3949,-97,11,987,-16,-12,-4
3950,36,13,1001,-16,-23,-8
3951,140,28,1002,-13,-15,-8
3952,137,43,996,-10,5,-2
3953,32,52,1000,-12,22,1
3954,-95,43,996,-13,22,1
3955,-148,21,994,-16,5,-2
3956,-77,13,991,-18,-14,-7
3957,68,17,992,-13,-24,-8
3958,150,28,1005,-14,-12,-5
3959,126,44,1003,-13,9,-2
3960,2,50,1001,-12,23,2
3961,-116,38,1005,-13,20,0
3962,-141,20,983,-16,1,-4
3963,-43,9,977,-15,-18,-7
3964,85,19,1013,-16,-21,-8
3965,149,38,998,-13,-7,-6
3966,110,46,1005,-13,14,-2
3967,-28,48,998,-13,25,1
3968,-126,33,1002,-15,17,-1
3969,-123,10,973,-17,-3,-5
3970,-32,16,994,-14,-19,-7
3971,113,25,1005,-16,-21,-8
3972,149,40,1007,-13,-4,-5
3973,91,46,1007,-10,15,-1
3974,-45,41,1000,-14,25,2
3975,-141,27,979,-15,14,-1
3976,-110,17,990,-15,-8,-5
3977,-1,18,997,-17,-22,-8
3978,124,29,1009,-13,-18,-7
3979,151,40,998,-15,-1,-5
3980,70,41,1000,-13,18,0
3981,-72,33,1000,-14,24,2
3982,-147,17,981,-17,9,-3
3983,-96,14,995,-15,-10,-6
3984,28,22,996,-13,-23,-8
3985,139,36,1007,-12,-14,-7
3986,141,57,1003,-13,4,-3
3987,34,48,1000,-17,21,1
3988,-87,30,993,-15,21,0
3989,-155,13,997,-16,6,-2
3990,-72,9,987,-15,-15,-8
3991,52,11,996,-14,-23,-8
3992,150,43,1001,-10,-13,-7
3993,133,52,1009,-12,8,-3
3994,4,55,995,-13,24,1
3995,-111,34,1008,-15,19,1
3996,-141,18,978,-19,2,-5
3997,-52,1,983,-18,-17,-6
3998,83,19,999,-13,-23,-9
3999,147,26,1005,-12,-10,-5
4000,120,56,1001,-7,11,-1
4001,-19,53,1002,-13,25,2
4002,-125,41,1007,-14,19,-1
4003,-132,11,975,-19,-2,-3
4004,-40,11,986,-16,-18,-7
4005,103,18,1010,-15,-24,-8
4006,151,34,1004,-11,-7,-5
4007,100,44,1004,-11,15,0
4008,-35,48,1004,-12,25,2
4009,-133,30,981,-15,16,0
4010,-125,16,988,-16,-5,-3
4011,-11,18,985,-16,-22,-7
4012,112,27,1017,-14,-19,-7
4013,166,42,996,-14,-3,-5
4014,67,47,999,-15,20,3
4015,-48,36,1008,-15,23,1
4016,-148,19,985,-16,13,1
4017,-112,13,976,-14,-8,-6
4018,18,20,1010,-15,-23,-7
4019,131,29,1010,-14,-18,-7
4020,155,46,988,-11,2,-5
4021,50,55,1004,-13,21,0
4022,-80,35,1004,-16,23,1
4023,-151,21,984,-17,9,-1
4024,-92,9,990,-18,-12,-6
4025,40,10,1003,-14,-24,-7
4026,151,26,990,-12,-16,-7
4027,137,44,1004,-10,6,-2
4028,19,58,1002,-12,23,1
4029,-96,38,1004,-16,22,0
4030,-150,17,987,-17,4,-3
4031,-68,18,982,-16,-16,-7
4032,74,17,1004,-14,-24,-8
4033,145,32,1002,-14,-11,-5
4034,123,40,999,-14,9,-2
4035,5,42,1007,-14,24,-1
4036,-127,34,1004,-13,19,0
4037,-137,12,972,-15,1,-5
4038,-46,16,990,-15,-17,-8
4039,90,34,1007,-13,-23,-7
4040,159,43,1003,-14,-8,-6
4041,104,46,1003,-13,15,0
4042,-27,34,1002,-16,25,2
4043,-130,18,989,-17,19,-1
4044,-129,13,977,-13,-4,-2
4045,-17,19,997,-14,-21,-8
4046,113,37,1007,-14,-20,-7
4047,150,52,1001,-14,-2,-5
4048,85,52,1006,-16,17,1
4049,-60,37,998,-16,25,1
4050,-139,20,985,-17,11,-2
4051,-106,3,983,-18,-8,-4
4052,2,8,997,-13,-22,-9
4053,136,32,1019,-19,-18,-7
4054,144,46,991,-8,2,-2
4055,55,57,994,-17,19,1
4056,-72,42,1016,-14,22,0
4057,-162,25,973,-15,10,-1
4058,-81,13,992,-19,-13,-8
4059,31,8,1006,-13,-21,-8
4060,146,27,992,-13,-16,-7
4061,145,44,1006,-10,6,-4
4062,20,54,996,-13,22,2
4063,-99,36,1008,-16,20,0
4064,-148,23,985,-14,5,-3
4065,-75,6,994,-17,-15,-5
4066,68,20,994,-15,-25,-8
4067,153,27,1006,-14,-12,-6
4068,126,51,1001,-13,9,-2
4069,-1,46,1006,-13,25,1
4070,-116,36,1005,-15,20,-1
4071,-137,21,978,-17,1,-3
4072,-49,7,985,-17,-17,-8
4073,87,26,1008,-15,-23,-7
4074,152,34,1004,-11,-8,-5
4075,106,39,1002,-13,14,-1
4076,-28,49,1004,-11,24,2
4077,-125,29,995,-14,17,-2
4078,-125,19,975,-16,-2,-4
4079,-30,13,993,-17,-21,-7
4080,114,30,1006,-14,-22,-8
4081,146,33,1000,-14,-4,-5
4082,87,51,1008,-12,17,0
4083,-48,35,1000,-13,25,1
4084,-140,27,982,-13,13,-1
4085,-110,16,986,-15,-9,-4
4086,0,22,999,-15,-23,-8
4087,125,29,1014,-13,-19,-7
4088,149,40,991,-14,0,-4
4089,60,46,1003,-12,19,0
4090,-68,40,1003,-14,24,1
4091,-154,20,984,-17,10,0
4092,-87,9,984,-17,-12,-6
4093,30,24,1007,-14,-22,-9
4094,135,30,1006,-13,-15,-6
4095,147,45,995,-11,5,-3
4096,27,48,999,-13,23,1
4097,-91,38,1001,-16,22,1
4098,-146,20,990,-17,5,-3
4099,-69,3,991,-19,-14,-6
4100,57,15,1000,-14,-23,-7
4101,149,25,998,-12,-13,-6
4102,125,49,1004,-10,9,-2
4103,1,57,1002,-11,23,1
4104,-115,45,1005,-15,20,0
4105,-131,14,982,-19,-1,-4
4106,-61,7,983,-18,-16,-6
4107,81,15,1006,-15,-24,-8
4108,154,26,1000,-14,-9,-6
4109,113,45,1004,-9,13,0
4110,-22,52,1001,-12,24,1
4111,-123,31,999,-14,18,-1
4112,-130,21,974,-15,-2,-3
4113,-29,15,994,-18,-21,-6
4114,103,27,1008,-14,-22,-8
4115,153,37,999,-13,-5,-5
4116,93,43,1010,-12,16,0
4117,-42,40,998,-14,25,0
4118,-134,22,986,-15,15,0
4119,-118,16,980,-15,-7,-4
4120,-8,12,1001,-15,-21,-8
4121,123,38,1007,-13,-19,-7
4122,150,36,999,-15,-1,-3
4123,70,58,996,-11,19,0
4124,-59,40,1009,-17,23,1
4125,-150,21,979,-17,11,0
4126,-102,0,982,-16,-9,-5
4127,22,18,1007,-14,-23,-8
4128,135,29,1006,-11,-16,-8
4129,149,52,993,-10,2,-3
4130,40,50,1001,-14,22,1
4131,-87,44,1002,-15,22,1
4132,-149,15,985,-16,7,-1
4133,-81,10,991,-16,-13,-6
4134,53,5,1002,-17,-24,-9
4135,146,26,991,-11,-12,-6
4136,135,48,1011,-9,8,-3
4137,9,56,998,-13,24,2
4138,-109,39,1008,-14,22,-1
4139,-141,20,976,-17,3,-4
4140,-61,13,990,-15,-17,-7
4141,78,13,999,-13,-24,-9
4142,144,31,1005,-15,-10,-5
4143,122,47,999,-11,10,-1
4144,-14,45,1008,-13,24,2
4145,-128,36,998,-14,19,0
4146,-132,22,982,-15,-2,-3
4147,-32,7,986,-18,-19,-8
4148,94,29,1009,-15,-22,-6
4149,156,37,999,-14,-7,-6
4150,102,48,1012,-14,15,-1
4151,-38,40,998,-15,24,2
4152,-133,21,989,-15,16,-1
4153,-118,15,979,-15,-5,-4
4154,-22,15,991,-15,-21,-6
4155,123,35,1008,-13,-22,-9
4156,156,42,1002,-14,-2,-4
4157,81,52,1001,-13,17,0
4158,-51,34,1000,-14,24,1
4159,-157,21,984,-15,13,-1
4160,-110,11,979,-16,-10,-5
4161,6,19,1006,-14,-22,-10
4162,138,39,1010,-13,-20,-8
4163,154,44,994,-13,2,-4
4164,58,51,1000,-11,22,0
4165,-77,39,1006,-15,24,1
4166,-164,18,986,-15,9,-3
4167,-91,11,983,-15,-12,-6
4168,35,17,1009,-14,-23,-8
4169,149,29,995,-13,-17,-8
4170,146,47,1005,-11,6,-2
4171,27,57,999,-12,23,2
4172,-102,36,1006,-16,22,2
4173,-149,14,989,-16,5,-2
4174,-79,9,983,-16,-15,-6
4175,68,16,1000,-17,-24,-10
4176,153,32,1007,-14,-11,-6
4177,129,51,997,-10,10,-2
4178,-3,44,1003,-14,25,2
4179,-118,39,1009,-14,21,0
4180,-141,13,975,-17,2,-3
4181,-47,9,978,-15,-19,-7
4182,84,19,1016,-12,-23,-7
4183,152,43,998,-12,-8,-6
4184,108,52,1006,-12,12,0
4185,-24,48,1003,-14,24,1
4186,-127,24,994,-16,16,0
4187,-124,8,970,-15,-3,-4
4188,-25,13,1001,-15,-20,-8
4189,108,35,1006,-14,-21,-7
4190,150,37,999,-16,-4,-5
4191,86,52,1009,-13,16,-1
4192,-51,37,999,-15,23,2
4193,-140,21,983,-15,14,-1
4194,-103,7,983,-16,-8,-4
4195,-1,16,1001,-14,-20,-7
4196,132,33,1014,-13,-19,-8
4197,145,40,991,-12,1,-5
4198,55,57,1001,-13,20,1
4199,-72,36,1005,-15,23,1
4200,-152,28,984,-15,10,-2
4201,-87,4,984,-17,-11,-5
4202,32,21,1007,-14,-21,-8
4203,147,19,997,-16,-15,-7
4204,138,50,1001,-7,7,-3
4205,27,53,995,-12,22,1
4206,-96,41,1013,-14,23,0
4207,-149,27,980,-16,5,-3
4208,-76,7,992,-17,-14,-7
4209,67,15,1003,-16,-25,-9
4210,148,25,995,-12,-12,-7
4211,130,51,1002,-11,10,-4
4212,0,45,1012,-13,26,0
4213,-113,45,996,-12,21,-1
4214,-141,18,980,-17,2,-2
4215,-55,12,985,-15,-19,-7
4216,83,21,1006,-15,-24,-8
4217,157,35,1001,-12,-9,-6
4218,110,50,1006,-12,13,-1
4219,-16,50,1001,-13,24,1
4220,-130,25,1002,-16,17,1
4221,-128,18,969,-15,-3,-4
4222,-29,7,996,-16,-19,-8
4223,102,36,1002,-14,-22,-7
4224,153,35,1008,-15,-5,-5
4225,94,52,1003,-12,16,-1
4226,-49,39,1005,-14,24,2
4227,-133,28,978,-15,14,-2
4228,-110,7,992,-18,-7,-3
4229,-10,20,993,-14,-21,-6
4230,124,28,1015,-15,-19,-9
4231,154,38,997,-14,0,-5
4232,56,49,997,-11,19,2
4233,-64,42,1007,-14,22,-2
4234,-154,21,986,-16,10,-2
4235,-93,15,983,-15,-11,-5
4236,31,13,1004,-17,-23,-8
4237,136,33,1007,-12,-16,-7
4238,150,40,996,-10,4,-5
4239,32,58,1002,-11,21,0
4240,-89,36,1001,-16,22,1
4241,-151,18,988,-17,7,-2
4242,-79,8,988,-17,-15,-6
4243,63,21,1003,-16,-23,-9
4244,147,22,993,-17,-13,-6
4245,131,47,1009,-10,10,-3
4246,8,51,1002,-13,23,0
4247,-114,41,1003,-13,21,-1
4248,-142,16,980,-17,2,-3
4249,-59,11,987,-15,-16,-7
4250,77,17,998,-13,-22,-9
4251,154,34,1009,-13,-9,-6
4252,119,44,997,-14,12,-1
4253,-11,43,1003,-13,24,1
4254,-125,29,1004,-14,18,0
4255,-139,15,973,-13,-1,-2
4256,-37,21,987,-14,-18,-7
4257,101,33,1015,-15,-22,-7
4258,154,34,996,-13,-6,-5
4259,93,45,1008,-13,16,-1
4260,-28,45,1004,-13,23,0
4261,-136,24,983,-15,15,0
4262,-115,9,979,-15,-6,-4
4263,-15,18,1002,-12,-21,-8
4264,116,32,1004,-13,-21,-9
4265,154,47,1003,-12,-3,-5
4266,73,47,995,-14,18,1
4267,-62,43,1007,-12,25,1
4268,-142,21,981,-17,12,-1
4269,-101,11,980,-17,-8,-5
4270,18,11,1006,-15,-22,-9
4271,134,29,1008,-14,-15,-6
4272,144,44,988,-11,3,-4
4273,42,56,1007,-11,21,0
4274,-85,41,1002,-16,22,1
4275,-147,25,986,-17,7,-3
4276,-78,15,988,-17,-12,-7
4277,49,12,1001,-16,-22,-8
4278,140,23,997,-14,-13,-7
4279,128,41,997,-12,8,-2
4280,14,59,1009,-10,22,0
4281,-107,37,998,-17,21,2
4282,-136,22,980,-16,2,-4
4283,-57,4,992,-17,-16,-6
4284,75,29,997,-14,-23,-7
4285,147,18,1008,-14,-9,-5
4286,110,57,995,-11,11,-1
4287,-11,41,1007,-15,23,1
4288,-118,38,1004,-13,19,-1
4289,-132,10,973,-19,-2,-2
4290,-31,14,991,-15,-17,-7
4291,94,23,1007,-14,-21,-7
4292,150,37,1004,-12,-5,-6
4293,97,47,1004,-13,14,0
4294,-34,44,1001,-13,24,1
4295,-127,27,992,-12,16,-1
4296,-117,13,975,-15,-5,-4
4297,-16,12,1000,-15,-19,-8
4298,116,27,1005,-13,-18,-7
4299,144,39,998,-12,0,-4
4300,72,49,1005,-11,18,0
4301,-55,40,1002,-14,23,1
4302,-143,30,981,-15,11,-1
4303,-97,17,991,-15,-10,-6
4304,18,13,995,-18,-23,-8
4305,126,31,1017,-14,-16,-7
4306,152,42,991,-12,2,-4
4307,37,42,1002,-14,22,2
4308,-76,40,999,-14,22,1
4309,-150,21,997,-14,9,-2
4310,-79,18,980,-15,-13,-6
4311,41,12,1007,-13,-23,-6
4312,145,38,992,-13,-14,-7
4313,134,43,1010,-12,6,-2
4314,18,53,991,-11,22,0
4315,-105,29,1009,-16,20,0
4316,-138,13,983,-14,3,-4
4317,-76,13,983,-15,-14,-5
4318,74,19,1003,-14,-24,-9
4319,149,37,1006,-12,-11,-5
4320,127,56,996,-12,9,-3
4321,-10,54,1007,-14,25,2
4322,-121,26,1003,-16,19,1
4323,-135,11,969,-15,1,-3
4324,-48,-1,990,-16,-18,-7
4325,100,23,1009,-14,-23,-9
4326,152,37,1001,-11,-6,-6
4327,104,58,1000,-10,15,0
4328,-30,54,1012,-16,23,1
4329,-126,33,982,-15,16,-1
4330,-130,3,983,-19,-5,-3
4331,-16,14,992,-17,-22,-9
4332,112,12,1012,-15,-20,-8
4333,149,43,994,-11,-1,-4
4334,89,45,1012,-12,17,0
4335,-55,55,999,-11,24,1
4336,-143,28,987,-17,14,-1
4337,-106,21,975,-16,-8,-6
4338,2,11,1010,-18,-22,-8
4339,134,26,1008,-14,-19,-9
4340,147,28,996,-15,2,-4
4341,50,43,996,-10,20,0
4342,-70,38,1009,-13,22,1
4343,-153,30,983,-13,9,-2
4344,-89,24,985,-15,-13,-6
4345,42,22,1010,-15,-24,-9
4346,141,31,993,-15,-14,-7
4347,136,40,1002,-13,5,-2
4348,31,45,1002,-14,21,0
4349,-98,29,1001,-14,21,0
4350,-147,20,987,-14,5,-2
4351,-61,10,991,-16,-14,-6
4352,65,25,1000,-12,-23,-8
4353,144,37,999,-14,-12,-5
4354,132,51,1003,-13,10,-2
4355,-13,47,1002,-17,25,3
4356,-113,34,1004,-14,18,-1
4357,-136,14,978,-15,1,-4
4358,-43,0,985,-17,-18,-6
4359,86,25,1004,-13,-22,-9
4360,152,43,1003,-13,-8,-6
4361,108,54,1005,-12,13,1
4362,-33,50,998,-15,25,2
4363,-124,29,999,-17,17,-1
4364,-129,10,974,-18,-2,-4
4365,-24,9,992,-17,-20,-8
4366,114,16,1007,-16,-21,-7
4367,145,43,1000,-10,-4,-5
4368,88,48,1010,-14,15,-1
4369,-47,48,1001,-11,25,1
4370,-146,26,978,-17,14,-1
4371,-110,15,990,-19,-8,-6
4372,9,6,997,-17,-22,-8
4373,112,27,1006,-14,-18,-6
4374,163,42,999,-12,-2,-6
4375,56,48,1002,-12,21,2
4376,-73,49,997,-13,23,1
4377,-144,25,989,-16,10,-2
4378,-104,17,984,-18,-11,-5
4379,33,19,1006,-16,-23,-10
4380,142,21,1004,-16,-15,-8
4381,141,41,993,-14,6,-2
4382,36,47,1005,-14,21,0
4383,-92,40,1000,-13,22,0
4384,-156,16,984,-17,6,-1
4385,-74,13,992,-15,-14,-8
4386,61,18,1003,-15,-23,-9
4387,146,32,988,-11,-12,-5
4388,136,52,1014,-5,9,-3
4389,5,50,995,-4,27,4
4390,-112,39,1003,-20,20,0
4391,-142,10,982,-15,3,-3
4392,-54,4,984,-18,-17,-7
4393,81,21,1001,-12,-24,-8
4394,148,34,1002,-10,-8,-6
4395,118,63,1006,-11,12,-2
4396,-19,45,998,-14,24,3
4397,-129,39,1001,-15,18,-1
4398,-131,3,975,-18,-2,-3
4399,-30,8,990,-14,-19,-8
4400,100,20,1005,-16,-22,-8
4401,160,44,1008,-12,-5,-6
4402,94,39,1006,-12,18,-1
4403,-48,55,1002,-12,27,1
4404,-132,25,985,-16,14,-2
4405,-121,14,982,-19,-6,-3
4406,-5,13,996,-17,-21,-8
4407,121,29,1010,-15,-19,-8
4408,151,39,1000,-13,-1,-5
4409,68,44,996,-12,19,1
4410,-63,43,1005,-12,24,1
4411,-148,15,983,-16,11,-1
4412,-99,25,980,-13,-10,-5
4413,23,17,1011,-16,-22,-8
4414,131,31,1008,-14,-16,-6
4415,151,45,994,-11,3,-4
4416,40,48,1000,-11,21,1
4417,-89,38,1004,-14,21,0
4418,-144,17,983,-14,7,-3
4419,-73,10,995,-16,-14,-6
4420,50,20,996,-14,-23,-8
4421,148,28,999,-12,-13,-9
4422,125,57,1002,-11,8,-3
4423,8,53,1000,-12,22,0
4424,-97,37,1001,-14,19,0
4425,-138,9,991,-17,1,-1
4426,-47,9,982,-16,-16,-7
4427,73,17,1001,-13,-20,-7
4428,145,37,1001,-11,-8,-6
4429,113,53,1003,-11,12,-2
4430,-20,57,1002,-12,25,2
4431,-122,35,998,-17,18,0
4432,-127,14,979,-18,-1,-4
4433,-31,1,985,-17,-20,-7
4434,97,21,1007,-14,-22,-8
4435,154,30,1007,-13,-6,-7
4436,95,63,1005,-9,16,1
4437,-36,41,1002,-14,24,2
4438,-136,30,987,-13,16,0
4439,-118,13,985,-17,-6,-5
4440,-10,13,988,-16,-21,-9
4441,116,29,1011,-16,-20,-7
4442,152,37,1000,-13,-2,-5
4443,72,52,1001,-11,17,1
4444,-55,38,1003,-13,22,2
4445,-144,23,978,-17,11,-1
4446,-101,13,988,-16,-10,-5
4447,14,13,1004,-15,-22,-8
4448,127,33,1009,-14,-18,-7
4449,157,44,996,-10,2,-4
4450,41,49,1002,-12,22,3
4451,-77,40,1003,-16,22,0
4452,-149,16,983,-18,9,-2
4453,-87,15,995,-16,-13,-6
4454,45,18,1000,-16,-24,-8
4455,142,28,1001,-13,-15,-6
4456,141,47,998,-11,5,-2
4457,16,52,999,-15,23,3
4458,-104,40,1013,-13,21,1
4459,-139,22,974,-18,2,-4
4460,-70,3,993,-17,-16,-7
4461,74,22,1000,-15,-24,-9
4462,147,23,1000,-14,-8,-6
4463,117,52,1000,-8,11,-3
4464,-7,54,1005,-13,23,2
4465,-120,36,1003,-16,19,0
4466,-131,20,980,-18,-2,-4
4467,-38,4,982,-17,-19,-7
4468,94,15,1010,-15,-22,-9
4469,149,35,1001,-11,-6,-5
4470,106,49,999,-10,13,0
4471,-36,48,1008,-13,24,2
4472,-128,42,987,-14,15,-1
4473,-119,17,978,-18,-4,-5
4474,-23,11,997,-18,-21,-7
4475,114,20,1003,-15,-20,-7
4476,156,35,1004,-14,-3,-4
4477,79,43,1004,-11,17,2
4478,-54,44,999,-10,24,1
4479,-139,24,987,-17,12,-2
4480,-107,19,979,-15,-7,-4
4481,5,18,1005,-16,-22,-8
4482,134,30,1011,-13,-19,-8
4483,144,35,997,-12,3,-2
4484,54,49,989,-14,21,1
4485,-72,35,1018,-14,22,1
4486,-151,23,970,-17,10,-1
4487,-86,22,996,-16,-10,-6
4488,38,11,1004,-18,-21,-8
4489,135,38,1000,-12,-13,-6
4490,143,37,997,-13,7,-4
4491,13,53,1007,-13,22,2
4492,-92,34,996,-17,20,1
4493,-151,15,987,-18,6,-2
4494,-65,6,991,-16,-16,-6
4495,64,22,999,-14,-24,-8
4496,150,33,1005,-12,-11,-6
4497,123,48,1000,-12,10,-1
4498,0,49,1003,-14,24,0
4499,-117,30,1005,-14,21,1
4500,-143,22,974,-17,1,-4
4501,-43,1,984,-14,-18,-9
4502,79,29,1008,-13,-22,-6
4503,155,40,999,-14,-9,-6
4504,110,42,1009,-13,13,-1
4505,-25,49,1002,-14,23,2
4506,-123,27,991,-16,18,-2
4507,-127,10,980,-16,-3,-4
4508,-29,9,988,-17,-20,-6
4509,103,32,1008,-14,-20,-9
4510,151,40,1003,-14,-3,-5
4511,87,51,1005,-12,16,0
4512,-43,33,1000,-16,25,2
4513,-140,33,988,-14,15,-1
4514,-113,10,979,-19,-7,-5
4515,-2,13,1005,-14,-21,-8
4516,116,26,999,-15,-20,-7
4517,156,45,1012,-10,-1,-5
4518,62,49,989,-14,19,3
4519,-67,47,1008,-14,24,1
4520,-141,16,982,-17,9,-3
4521,-104,14,989,-14,-10,-4
4522,30,19,1000,-16,-25,-10
4523,133,24,1006,-14,-14,-6
4524,141,46,993,-11,3,-2
4525,33,46,1002,-13,21,2
4526,-88,38,1004,-15,20,-1
4527,-151,22,983,-16,7,-2
4528,-62,13,999,-17,-15,-8
4529,57,20,989,-15,-21,-7
4530,143,26,1007,-13,-11,-6
4531,132,48,999,-11,9,-3
4532,-5,52,1005,-13,24,1
4533,-104,40,1006,-16,19,0
4534,-138,18,981,-17,1,-3
4535,-46,13,984,-16,-17,-6
4536,82,12,1010,-15,-21,-9
4537,150,41,995,-12,-7,-7
4538,111,39,1010,-11,13,-1
4539,-21,52,997,-12,24,2
4540,-127,30,996,-17,17,0
4541,-126,19,978,-16,-2,-4
4542,-38,11,991,-17,-20,-7
4543,109,37,1000,-14,-22,-8
4544,152,34,1007,-16,-4,-5
4545,91,50,1002,-11,17,1
4546,-37,33,1005,-15,26,2
4547,-146,22,979,-14,15,-1
4548,-116,14,986,-16,-7,-5
4549,-6,17,992,-16,-21,-9
4550,117,35,1017,-13,-19,-6
4551,160,41,993,-15,-3,-5
4552,70,50,998,-12,19,1
4553,-60,35,1007,-14,23,1
4554,-153,17,982,-17,11,-2
4555,-102,4,984,-15,-11,-4
4556,19,24,1003,-14,-23,-8
4557,141,37,1009,-13,-16,-8
4558,146,46,995,-11,4,-3
4559,45,56,1005,-14,21,1
4560,-86,32,1002,-17,22,0
4561,-158,17,986,-16,7,-2
4562,-77,4,990,-15,-15,-8
4563,49,14,1002,-15,-22,-8
4564,151,30,995,-10,-14,-8
4565,134,55,1006,-10,9,-3
4566,5,57,1002,-13,23,2
4567,-107,40,1002,-15,22,1
4568,-141,8,982,-21,2,-4
4569,-58,9,983,-16,-17,-7
4570,80,16,998,-13,-23,-9
4571,154,35,1007,-13,-9,-5
4572,114,51,996,-11,11,0
4573,-13,52,1007,-13,24,0
4574,-125,31,996,-16,18,0
4575,-131,11,981,-17,-1,-4
4576,-30,8,981,-17,-18,-8
4577,95,23,1015,-13,-22,-7
4578,158,44,995,-12,-5,-6
4579,95,45,1012,-11,16,-1
4580,-40,44,996,-15,24,2
4581,-134,22,986,-15,15,-1
4582,-119,14,979,-15,-5,-7
4583,-18,10,1003,-14,-20,-6
4584,119,38,1000,-11,-21,-8
4585,159,40,1004,-15,-3,-5
4586,77,49,1004,-11,17,0
4587,-65,48,994,-13,24,2
4588,-143,15,988,-17,12,-3
4589,-109,11,981,-15,-8,-3
4590,14,14,1002,-15,-23,-9
4591,139,21,1010,-14,-17,-8
4592,151,48,996,-10,3,-2
4593,48,49,995,-13,22,2
4594,-79,43,1009,-15,23,0
4595,-152,25,987,-16,8,-1
