sequence,AccelerometerX,AccelerometerY,AccelerometerZ,GyroscopeX,GyroscopeY,GyroscopeZ
0,-98,9,1000,-19,29,3
1,-176,-12,984,-16,12,-1
2,-144,-49,983,-23,-10,-7
3,9,-44,998,-14,-29,-12
4,148,-27,1007,-7,-22,-13
5,152,-1,1010,-14,3,-7
6,36,14,1024,-14,23,0
7,-124,2,983,-21,30,3
8,-187,-26,986,-11,7,-5
9,-99,-44,970,-12,-22,-11
10,31,-52,1016,-14,-26,-12
11,179,-22,1005,-7,-19,-12
12,130,-5,1019,-9,10,-5
13,-6,24,1002,-12,28,2
14,-146,-4,989,-20,26,2
15,-185,-21,969,-21,3,-4
16,-75,-51,991,-21,-23,-8
17,89,-46,1014,-10,-29,-15
18,166,-24,1015,-9,-11,-9
19,116,4,997,-10,15,-4
20,-55,19,1004,-16,32,2
21,-167,0,990,-21,21,1
22,-172,-26,978,-23,-5,-8
23,-31,-54,1002,-17,-27,-12
24,121,-41,1010,-13,-26,-14
25,174,-20,996,-9,-5,-10
26,66,10,1018,-9,22,-1
27,-91,16,1002,-17,30,1
28,-183,-12,985,-20,15,-1
29,-140,-36,974,-21,-10,-6
30,10,-51,1004,-16,-28,-13
31,149,-43,1007,-8,-22,-13
32,148,-3,1006,-9,4,-6
33,35,14,1020,-13,23,-1
34,-118,6,992,-20,28,3
35,-183,-21,970,-23,9,0
36,-107,-39,989,-19,-18,-9
37,43,-50,1005,-15,-27,-13
38,167,-27,1014,-11,-17,-13
39,129,0,1007,-10,11,-5
40,-5,11,1010,-15,28,-1
41,-149,6,984,-20,24,1
42,-188,-19,974,-23,3,-2
43,-61,-53,994,-20,-24,-11
44,81,-47,1014,-12,-28,-14
45,175,-29,1005,-11,-11,-11
46,105,10,1014,-10,15,-5
47,-51,11,994,-16,30,3
48,-175,1,990,-21,22,2
49,-163,-33,979,-23,-5,-5
50,-22,-50,1006,-16,-26,-12
51,125,-45,998,-13,-26,-12
52,163,-20,1013,-8,-4,-10
53,75,8,1007,-13,21,-2
54,-115,19,1001,-19,32,4
55,-174,-10,988,-21,12,-1
56,-136,-45,980,-24,-12,-7
57,14,-51,990,-16,-28,-12
58,152,-37,1016,-10,-21,-14
59,151,-10,1013,-10,3,-7
60,28,13,1006,-11,26,1
61,-132,7,1001,-19,29,2
62,-181,-19,968,-21,7,-2
63,-106,-46,986,-17,-18,-8
64,57,-41,1006,-15,-29,-13
65,166,-26,1019,-9,-15,-12
66,136,0,1007,-12,9,-4
67,-19,13,1003,-16,29,2
68,-152,-4,985,-20,24,1
69,-186,-29,978,-21,2,-4
70,-57,-43,986,-17,-24,-11
71,89,-44,1024,-10,-27,-14
72,176,-20,1005,-9,-10,-11
73,103,4,1005,-12,16,-4
74,-64,21,1000,-17,30,1
75,-169,-5,989,-24,18,1
76,-168,-40,978,-22,-5,-6
77,-23,-51,1004,-17,-27,-11
78,132,-45,1004,-11,-25,-15
79,164,-12,1003,-8,-3,-9
80,62,8,1014,-11,21,-1
81,-98,19,999,-18,31,1
82,-183,-13,990,-23,14,1
83,-130,-45,972,-22,-13,-8
84,14,-46,1003,-14,-29,-15
85,155,-36,1008,-10,-21,-12
86,141,-5,1010,-8,6,-7
87,29,14,1015,-14,26,-2
88,-129,1,995,-20,28,2
89,-182,-23,961,-22,7,-1
90,-97,-43,992,-19,-18,-9
91,49,-48,1008,-13,-30,-12
92,170,-25,1015,-8,-15,-11
93,132,-2,1006,-10,10,-6
94,-24,14,1003,-15,30,3
95,-150,0,988,-19,24,2
96,-189,-25,967,-23,2,-3
97,-53,-45,1007,-17,-25,-11
98,98,-49,1006,-12,-28,-14
99,168,-27,1014,-8,-9,-10
100,102,9,999,-10,17,-3
101,-70,16,1009,-16,32,3
102,-168,-5,982,-22,18,2
103,-163,-34,983,-20,-7,-6
104,-12,-50,1007,-18,-28,-12
105,125,-40,999,-10,-23,-13
106,166,-11,1010,-7,-3,-9
107,58,17,1016,-12,23,0
108,-107,12,991,-19,30,3
109,-180,-16,991,-22,12,-1
110,-128,-55,971,-23,-13,-7
111,21,-47,1002,-14,-28,-13
112,157,-31,1017,-8,-22,-14
113,142,1,1010,-8,7,-6
114,20,21,1013,-14,26,0
115,-131,3,996,-21,27,2
116,-181,-26,965,-24,6,-2
117,-97,-45,988,-19,-20,-9
118,65,-51,1012,-14,-28,-15
119,166,-29,1011,-10,-15,-10
120,130,0,1013,-11,12,-5
121,-23,17,1005,-16,30,1
122,-163,0,983,-20,24,3
123,-175,-27,978,-23,0,-5
124,-62,-52,996,-18,-23,-10
125,106,-42,1011,-11,-29,-14
126,168,-24,1012,-9,-9,-10
127,99,12,1001,-10,17,-3
128,-71,18,1009,-19,31,3
129,-169,-10,979,-25,19,1
130,-164,-35,990,-21,-6,-4
131,-16,-49,992,-16,-28,-12
132,134,-40,1012,-10,-24,-14
133,161,-13,999,-7,-2,-7
134,60,13,1020,-13,23,0
135,-108,10,994,-18,31,2
136,-184,-14,985,-22,14,0
137,-126,-50,974,-22,-14,-8
138,22,-46,996,-12,-29,-14
139,161,-31,1018,-10,-21,-13
140,142,7,1006,-9,7,-6
141,16,11,1018,-15,27,1
142,-132,6,991,-21,26,0
143,-189,-31,964,-21,5,-2
144,-86,-42,990,-17,-20,-11
145,63,-60,1010,-14,-28,-12
146,170,-22,1013,-7,-15,-11
147,127,-1,1012,-9,13,-5
148,-27,22,996,-14,30,3
149,-161,0,994,-20,24,3
150,-178,-31,966,-23,-2,-4
151,-52,-50,1007,-17,-25,-10
152,102,-50,1009,-12,-28,-15
153,174,-25,1008,-8,-9,-11
154,97,12,1006,-9,17,-3
155,-80,24,1007,-16,31,4
156,-170,-3,985,-23,18,-1
157,-159,-40,987,-21,-8,-5
158,-15,-50,992,-18,-27,-13
159,140,-48,1011,-10,-26,-15
160,164,-16,1004,-8,-2,-7
161,57,21,1018,-11,23,0
162,-112,9,1002,-18,29,1
163,-183,-9,972,-22,12,1
164,-128,-46,984,-20,-14,-7
165,28,-53,996,-14,-29,-14
166,157,-28,1020,-10,-20,-12
167,154,-6,999,-11,7,-7
168,8,12,1024,-14,28,1
169,-125,3,980,-22,26,2
170,-198,-22,977,-21,6,-1
171,-84,-42,980,-19,-22,-10
172,59,-47,1019,-14,-28,-13
173,168,-23,1008,-9,-15,-11
174,130,0,1008,-11,12,-5
175,-28,13,1003,-15,29,2
176,-159,-4,983,-20,23,2
177,-185,-26,979,-21,-2,-5
178,-47,-51,1000,-17,-25,-11
179,101,-43,1011,-11,-27,-13
180,177,-24,1003,-8,-9,-11
181,88,10,1015,-9,18,-3
182,-73,21,991,-17,30,2
183,-178,-9,1001,-22,19,-2
184,-155,-42,970,-21,-8,-6
185,-13,-48,1004,-17,-27,-13
186,147,-43,1010,-9,-26,-14
187,155,-10,1001,-8,0,-7
188,60,13,1017,-13,22,-2
189,-116,9,1002,-18,31,3
190,-179,-15,973,-23,12,-1
191,-124,-40,980,-20,-14,-8
192,30,-47,1005,-15,-28,-14
193,155,-30,1009,-10,-18,-12
194,144,-6,1012,-9,8,-7
195,14,11,1017,-12,27,0
196,-141,0,984,-22,28,2
197,-187,-16,968,-21,5,-2
198,-83,-53,998,-20,-20,-10
199,67,-47,1004,-13,-29,-14
200,173,-28,1021,-8,-14,-11
201,125,3,1007,-9,13,-4
202,-37,13,990,-14,31,2
203,-163,0,998,-20,22,1
204,-177,-34,971,-22,-2,-5
205,-45,-46,1004,-15,-24,-11
206,115,-43,1011,-12,-27,-13
207,165,-15,1006,-9,-6,-9
208,90,8,1007,-11,19,-3
209,-91,15,999,-18,33,3
210,-177,-8,993,-21,16,-1
211,-145,-38,980,-21,-11,-5
212,-11,-41,994,-16,-26,-11
213,151,-33,1010,-11,-26,-15
214,160,-13,1013,-10,1,-8
215,38,16,1001,-14,26,2
216,-117,4,1011,-19,27,1
217,-177,-30,978,-22,9,-2
218,-124,-43,967,-19,-15,-7
219,41,-54,1010,-13,-30,-15
220,159,-25,1019,-7,-18,-13
221,134,4,996,-9,7,-4
222,3,17,1021,-15,26,0
223,-136,0,990,-22,26,1
224,-191,-25,960,-24,5,-1
225,-79,-50,1000,-20,-21,-13
226,77,-51,1014,-13,-28,-15
227,171,-29,1007,-8,-11,-11
228,119,3,1010,-10,14,-4
229,-43,18,1005,-15,30,2
230,-161,5,980,-22,22,1
231,-182,-26,988,-24,-3,-4
232,-33,-52,996,-18,-26,-11
233,119,-50,1012,-13,-26,-13
234,167,-24,1002,-8,-6,-9
235,77,10,1014,-10,19,-3
236,-86,13,999,-18,29,1
237,-177,-6,987,-20,16,0
238,-142,-42,986,-22,-11,-7
239,4,-47,991,-17,-29,-11
240,141,-39,1010,-12,-23,-13
241,153,-13,1012,-10,3,-8
242,46,7,1012,-12,25,0
243,-128,11,998,-19,28,3
244,-180,-17,977,-22,10,-2
245,-114,-45,983,-20,-16,-8
246,39,-39,1000,-15,-28,-12
247,161,-33,1025,-10,-17,-12
248,141,-5,1003,-11,10,-6
249,-4,12,1010,-13,28,2
250,-140,4,988,-20,25,0
251,-189,-25,970,-23,4,-1
252,-74,-46,993,-20,-21,-11
253,77,-45,1016,-14,-28,-14
254,173,-29,1010,-9,-11,-11
255,114,8,1007,-11,15,-4
256,-46,8,999,-16,30,2
257,-163,1,992,-20,21,0
258,-178,-32,971,-24,-2,-4
259,-31,-38,1008,-17,-26,-12
260,113,-51,1011,-14,-27,-14
261,173,-17,995,-8,-7,-8
262,75,10,1019,-11,21,-2
263,-80,14,999,-18,31,4
264,-182,-16,989,-22,17,1
265,-149,-37,976,-20,-10,-8
266,4,-51,1006,-15,-28,-13
267,144,-27,1002,-8,-24,-13
268,150,-6,1014,-10,1,-8
269,50,13,1013,-15,24,-1
270,-123,2,996,-19,29,4
271,-190,-12,973,-22,11,0
272,-107,-54,986,-20,-17,-10
273,41,-43,1004,-13,-28,-14
274,160,-30,1010,-11,-18,-11
275,140,4,1019,-10,9,-7
276,0,7,1005,-16,29,3
277,-158,-1,988,-20,26,2
278,-183,-25,970,-22,1,-3
279,-69,-46,996,-19,-23,-11
280,82,-44,1010,-13,-28,-12
281,178,-28,1022,-7,-11,-11
282,111,8,998,-11,15,-3
283,-51,13,998,-16,32,3
284,-167,-10,997,-23,21,1
285,-178,-30,970,-23,-5,-5
286,-25,-56,1005,-17,-27,-13
287,118,-37,1011,-9,-28,-14
288,171,-14,1000,-9,-4,-9
289,75,10,1015,-11,22,-2
290,-97,14,998,-18,31,2
291,-182,-12,981,-22,15,-1
292,-142,-41,981,-22,-12,-9
293,2,-49,997,-17,-29,-12
294,148,-40,1010,-10,-24,-15
295,150,-3,1009,-10,4,-7
296,35,6,1014,-13,25,0
297,-111,11,999,-19,27,1
298,-191,-16,973,-22,10,0
299,-103,-40,978,-18,-17,-9
300,29,-51,1013,-14,-27,-11
301,166,-31,1004,-11,-19,-11
302,136,-10,1011,-10,9,-5
303,5,17,1012,-14,28,2
304,-145,-2,988,-20,26,2
305,-188,-19,968,-22,5,-3
306,-80,-45,999,-18,-21,-10
307,75,-44,1001,-12,-29,-13
308,175,-27,1021,-8,-14,-11
309,119,5,996,-11,12,-3
310,-45,15,1004,-17,31,3
311,-161,-8,993,-21,22,1
312,-184,-37,970,-23,-2,-3
313,-32,-47,1006,-17,-27,-12
314,115,-45,1007,-11,-27,-13
315,165,-11,1000,-8,-6,-9
316,80,11,1018,-11,20,-3
317,-95,19,996,-19,30,4
318,-181,-10,990,-23,15,0
319,-136,-47,975,-22,-11,-8
320,0,-53,1002,-17,-28,-10
321,156,-40,1001,-10,-25,-13
322,141,-5,1021,-7,2,-5
323,43,19,1000,-13,24,1
324,-127,8,1006,-20,30,3
325,-180,-12,971,-22,9,-1
326,-104,-47,976,-21,-16,-8
327,37,-52,1009,-15,-29,-13
328,170,-34,1011,-11,-19,-12
329,134,-3,1012,-10,11,-6
330,-6,17,1006,-15,30,2
331,-143,2,991,-20,26,2
332,-188,-15,962,-23,3,-2
333,-73,-42,1004,-20,-22,-11
334,83,-49,1007,-15,-28,-15
335,172,-35,1016,-10,-12,-11
336,118,2,997,-10,14,-3
337,-50,9,1003,-16,31,2
338,-169,0,988,-21,21,1
339,-179,-27,979,-22,-4,-4
340,-25,-43,1001,-18,-27,-12
341,121,-45,1010,-14,-27,-14
342,173,-25,1000,-9,-5,-9
343,66,12,1014,-12,22,1
344,-91,10,1000,-19,30,3
345,-179,-11,985,-12,16,0
346,-143,-47,977,-24,-11,-6
347,16,-47,999,-13,-29,-13
348,148,-43,1009,-9,-23,-12
349,143,-1,1005,-8,5,-5
350,36,12,1025,-13,26,-1
351,-127,6,983,-20,30,4
352,-187,-12,977,-24,10,-1
353,-100,-56,985,-21,-19,-11
354,55,-50,1009,-16,-28,-14
355,164,-29,1008,-9,-16,-11
356,130,0,1015,-10,11,-6
357,-8,13,1003,-17,29,2
358,-159,-1,985,-21,25,2
359,-177,-29,975,-24,0,-5
360,-60,-53,995,-18,-24,-11
361,95,-46,1011,-11,-28,-15
362,168,-26,1014,-9,-10,-9
363,103,8,1001,-8,17,-4
364,-69,19,995,-15,31,4
365,-170,2,996,-22,18,1
366,-164,-32,971,-23,-5,-6
367,-23,-46,1010,-19,-28,-12
368,129,-49,1002,-13,-27,-15
369,163,-20,1004,-8,-3,-9
370,60,16,1016,-12,22,-1
371,-98,20,995,-17,30,1
372,-188,-12,995,-22,15,0
373,-133,-38,970,-22,-13,-7
374,23,-56,1006,-15,-28,-14
375,154,-35,1008,-11,-22,-13
376,145,-4,1009,-10,6,-7
377,21,12,1016,-13,27,-1
378,-139,3,990,-19,28,4
379,-182,-18,972,-22,6,-3
380,-95,-43,986,-18,-20,-11
381,63,-48,1010,-15,-30,-14
382,167,-33,1011,-9,-16,-12
383,126,-2,1009,-10,11,-4
384,-18,15,1008,-15,30,2
385,-156,-1,980,-21,26,3
386,-182,-24,972,-23,1,-4
387,-57,-46,1001,-18,-24,-12
388,102,-49,1012,-11,-28,-14
389,167,-30,1011,-8,-10,-11
390,102,10,1003,-10,15,-5
391,-67,15,1003,-17,30,2
392,-171,0,986,-22,20,1
393,-170,-35,985,-23,-6,-5
394,-7,-51,1003,-17,-27,-13
395,130,-49,1001,-12,-26,-13
396,163,-8,1007,-8,-4,-8
397,60,11,1016,-13,23,-1
398,-110,14,992,-18,32,2
399,-183,-13,989,-22,13,-1
400,-125,-45,975,-22,-14,-9
401,17,-47,998,-13,-28,-13
402,159,-36,1011,-9,-23,-13
403,137,-3,1013,-8,6,-6
404,27,14,1009,-14,26,1
405,-143,7,994,-21,28,2
406,-177,-19,969,-22,6,-3
407,-92,-49,984,-20,-19,-9
408,59,-48,1013,-15,-29,-14
409,167,-34,1011,-8,-15,-13
410,123,3,1012,-10,12,-6
411,-23,11,1001,-17,30,2
412,-157,1,987,-21,24,0
413,-183,-26,973,-24,0,-4
414,-53,-46,999,-18,-25,-11
415,100,-49,1006,-14,-29,-14
416,175,-25,1020,-9,-9,-11
417,94,8,995,-11,19,-4
418,-70,7,1003,-16,33,2
419,-172,-5,991,-20,19,0
420,-167,-35,976,-22,-5,-6
421,-3,-50,1007,-15,-28,-13
422,130,-37,1004,-10,-25,-14
423,168,-16,1006,-9,-2,-11
424,53,14,1015,-12,25,-1
425,-112,6,1001,-19,31,3
426,-184,-15,980,-20,13,-1
427,-127,-49,979,-20,-14,-8
428,27,-48,999,-12,-30,-13
429,160,-28,1015,-8,-22,-14
430,144,0,1011,-9,6,-6
431,10,18,1010,-13,29,2
432,-134,2,995,-21,27,1
433,-190,-24,962,-23,7,-1
434,-86,-46,994,-17,-21,-9
435,61,-50,1009,-12,-30,-13
436,172,-22,1010,-6,-15,-12
437,122,2,1016,-10,13,-4
438,-24,17,1000,-17,31,0
439,-163,-2,987,-21,26,2
440,-185,-27,970,-22,-1,-4
441,-56,-50,999,-17,-25,-13
442,107,-49,1014,-10,-29,-15
443,174,-26,1007,-6,-9,-10
444,95,9,1008,-10,18,-3
445,-69,14,997,-16,32,2
446,-184,-4,992,-22,20,1
447,-159,-39,979,-20,-8,-6
448,-13,-43,1006,-17,-29,-12
449,145,-41,1000,-11,-26,-13
450,157,-16,1011,-8,-2,-7
451,65,8,1010,-13,22,-1
452,-121,10,1002,-17,32,4
453,-172,-17,977,-21,12,-1
454,-132,-43,989,-20,-13,-8
455,33,-50,989,-14,-31,-12
456,150,-35,1019,-9,-20,-12
457,147,0,1006,-9,4,-7
458,7,10,1017,-12,29,2
459,-123,3,984,-20,26,2
460,-195,-17,976,-21,7,0
461,-78,-41,985,-19,-21,-10
462,53,-51,1014,-13,-27,-12
463,171,-29,1004,-9,-15,-10
464,123,-2,1017,-9,12,-3
465,-28,13,995,-14,29,4
466,-152,-2,997,-20,22,2
467,-177,-25,973,-23,0,-3
468,-61,-42,997,-16,-22,-10
469,105,-50,1016,-12,-27,-13
470,166,-22,1007,-7,-8,-9
471,94,9,1001,-9,17,-2
472,-58,24,1002,-17,30,0
473,-177,-3,994,-24,19,2
474,-162,-32,971,-24,-7,-5
475,-21,-58,1013,-17,-26,-12
476,127,-53,992,-12,-26,-13
477,162,-14,1008,-5,-1,-8
478,64,18,1013,-10,22,0
479,-97,26,1006,-16,30,2
480,-178,-12,980,-22,12,1
481,-140,-39,977,-22,-12,-7
482,20,-61,997,-16,-29,-14
483,148,-47,1014,-8,-20,-12
484,143,-6,1002,-6,4,-5
485,32,20,1026,-8,24,-2
486,-126,12,988,-19,27,4
487,-179,-7,970,-22,9,-1
488,-97,-50,995,-21,-17,-9
489,48,-58,996,-17,-27,-12
490,166,-42,1023,-8,-15,-13
491,127,-1,998,-8,10,-5
492,-15,26,1013,-13,26,1
493,-145,8,986,-18,21,1
494,-187,-13,977,-24,3,-2
495,-54,-49,999,-22,-21,-11
496,91,-59,1009,-15,-25,-12
497,167,-41,1005,-8,-9,-10
498,96,6,1002,-7,15,-5
499,-63,23,1006,-12,27,2
500,-161,11,984,-20,17,0
501,-161,-29,991,-21,-5,-5
502,-13,-48,995,-19,-24,-11
503,123,-59,1003,-13,-22,-12
504,159,-26,1000,-6,-1,-8
505,52,13,1023,-9,21,-1
506,-97,20,992,-14,25,0
507,-177,-7,996,-21,11,0
508,-121,-27,968,-22,-14,-6
509,22,-61,1005,-18,-24,-12
510,150,-40,1004,-12,-18,-11
511,134,-15,1016,-8,6,-7
512,13,8,1007,-9,24,0
513,-137,14,994,-17,23,1
514,-168,-18,968,-21,3,-3
515,-86,-42,1000,-19,-16,-7
516,68,-46,997,-15,-23,-11
517,162,-41,1023,-9,-10,-11
518,111,-1,998,-7,11,-3
519,-37,14,1004,-13,26,1
520,-149,3,986,-18,17,-1
521,-178,-17,986,-24,-1,-4
522,-34,-50,991,-20,-23,-10
523,101,-54,1024,-14,-23,-13
524,170,-32,992,-9,-6,-8
525,73,3,1009,-7,17,-4
526,-70,25,994,-14,24,1
527,-169,5,1001,-22,16,1
528,-146,-27,974,-23,-8,-5
529,-4,-58,1009,-19,-24,-9
530,127,-53,1000,-13,-21,-11
531,146,-29,998,-9,1,-7
532,54,18,1021,-9,21,-3
533,-101,16,993,-17,25,4
534,-170,0,991,-20,10,-1
535,-118,-43,978,-23,-13,-6
536,15,-51,995,-15,-23,-11
537,146,-46,1013,-13,-18,-12
538,133,-7,1006,-8,4,-7
539,22,10,1016,-10,22,-1
540,-114,14,991,-18,24,-1
541,-191,-7,973,-23,7,-1
542,-84,-43,989,-21,-19,-11
543,44,-57,1009,-17,-24,-12
544,157,-41,1003,-9,-15,-11
545,130,-3,1010,-8,9,-8
546,-16,13,1001,-13,27,0
547,-141,15,994,-17,22,1
548,-177,-18,980,-24,2,-4
549,-57,-39,992,-21,-20,-10
550,92,-57,1017,-17,-24,-12
551,170,-41,998,-10,-8,-11
552,83,3,1006,-8,16,-3
553,-60,18,1001,-13,26,1
554,-165,2,997,-20,16,1
555,-153,-25,976,-24,-7,-5
556,-7,-46,1013,-20,-23,-12
557,124,-48,990,-14,-20,-10
558,145,-24,1016,-9,1,-8
559,48,12,1004,-10,21,-2
560,-111,14,1005,-16,26,1
561,-163,-9,977,-22,9,-2
562,-114,-43,987,-22,-13,-7
563,39,-55,993,-15,-25,-12
564,153,-41,1015,-11,-15,-12
565,123,-5,1011,-7,8,-6
566,0,17,1004,-11,24,0
567,-132,6,1000,-17,21,0
568,-172,-13,961,-23,2,-2
569,-66,-48,1005,-20,-19,-11
570,77,-48,1001,-15,-24,-13
571,155,-33,1015,-8,-9,-10
572,111,0,1002,-9,13,-4
573,-55,12,1000,-15,26,1
574,-153,7,987,-19,16,-1
575,-172,-30,984,-23,-4,-5
576,-23,-41,999,-17,-23,-12
577,115,-55,1017,-13,-22,-12
578,163,-20,998,-9,-3,-7
579,66,3,1007,-8,19,-2
580,-98,26,997,-16,26,1
581,-174,-9,985,-24,11,0
582,-128,-35,992,-21,-12,-7
583,14,-58,1001,-20,-25,-9
584,150,-42,996,-11,-18,-14
585,129,-15,1016,-7,6,-6
586,32,18,1001,-12,22,-1
587,-129,12,1007,-16,24,0
588,-167,-8,974,-21,4,-2
589,-95,-39,988,-21,-15,-9
590,49,-62,996,-16,-23,-11
591,152,-35,1019,-9,-14,-10
592,121,-12,998,-8,8,-6
593,-22,21,1021,-8,26,1
594,-137,11,976,-18,20,1
595,-174,-12,984,-22,3,-2
596,-49,-50,987,-21,-20,-9
597,79,-54,1013,-14,-21,-11
598,163,-40,1007,-9,-8,-10
599,92,-3,1006,-9,15,-4
600,-54,15,994,-13,24,2
601,-156,7,991,-17,16,0
602,-158,-18,981,-23,-4,-3
603,-17,-40,1005,-19,-22,-11
604,116,-59,1011,-17,-21,-13
605,155,-31,999,-9,-2,-8
606,56,10,1008,-8,20,-1
607,-90,13,999,-16,25,1
608,-166,6,985,-19,11,-1
609,-131,-32,987,-24,-10,-5
610,15,-52,1009,-18,-24,-11
611,137,-48,988,-11,-19,-12
612,139,-18,1017,-8,4,-7
613,25,12,1007,-11,21,0
614,-119,8,995,-16,24,1
615,-169,-7,987,-21,7,-3
616,-104,-39,984,-22,-15,-7
617,47,-50,997,-16,-25,-13
618,154,-43,1016,-11,-15,-11
619,123,-11,1003,-9,8,-5
620,-7,15,1012,-11,24,0
621,-142,14,986,-18,21,0
622,-173,-19,975,-23,3,-3
623,-66,-46,994,-22,-19,-9
624,72,-47,1013,-15,-26,-13
625,166,-40,1005,-11,-10,-11
626,104,-3,1007,-8,15,-3
627,-44,17,1002,-11,26,0
628,-160,11,987,-19,19,-1
629,-168,-23,983,-24,-3,-5
630,-33,-40,999,-19,-25,-11
631,112,-65,1007,-16,-23,-13
632,166,-26,1005,-9,-5,-8
633,75,-4,1005,-9,18,-1
634,-85,27,1001,-13,28,1
635,-165,-2,990,-20,15,-2
636,-152,-28,979,-21,-8,-5
637,7,-49,997,-19,-27,-12
638,132,-48,1010,-11,-21,-14
639,153,-16,998,-10,1,-6
640,47,8,1020,-11,22,-1
641,-108,9,1001,-18,28,2
642,-187,-7,976,-23,12,0
643,-120,-42,981,-21,-16,-8
644,31,-55,1002,-13,-27,-12
645,156,-27,1007,-11,-19,-11
646,144,-6,1011,-10,7,-6
647,15,14,1015,-13,26,0
648,-138,1,982,-20,26,2
649,-185,-15,972,-21,6,-4
650,-87,-53,995,-20,-20,-9
651,64,-40,1002,-11,-27,-13
652,171,-36,1020,-9,-13,-11
653,121,0,1006,-9,13,-3
654,-33,20,993,-15,29,3
655,-161,-3,999,-17,21,0
656,-174,-22,971,-23,-2,-3
657,-40,-47,1004,-16,-24,-11
658,115,-44,1011,-12,-27,-13
659,159,-26,1004,-9,-8,-8
660,91,-1,1002,-10,17,-3
661,-92,19,1013,-15,31,2
662,-172,-4,976,-22,15,-1
663,-144,-35,988,-20,-9,-7
664,0,-47,998,-16,-28,-11
665,139,-41,1006,-12,-24,-13
666,158,-11,1011,-10,1,-9
667,41,7,1012,-13,25,0
668,-113,14,997,-17,29,2
669,-186,-22,980,-22,11,-1
670,-115,-40,976,-18,-16,-7
671,39,-51,1007,-13,-28,-13
672,164,-28,1016,-7,-18,-13
673,138,-5,1001,-10,8,-5
674,2,14,1022,-13,29,2
675,-142,-4,977,-21,26,4
676,-190,-16,972,-20,4,-1
677,-76,-50,995,-20,-24,-9
678,72,-47,1008,-12,-27,-13
679,172,-22,1018,-11,-9,-9
680,119,4,1005,-21,21,0
681,-46,17,993,-14,31,2
682,-163,-4,998,-21,22,0
683,-177,-31,972,-21,-2,-4
684,-40,-48,1003,-18,-25,-11
685,118,-44,1013,-11,-27,-14
686,174,-21,1002,-8,-5,-10
687,77,12,1005,-11,19,-2
688,-95,14,1005,-20,30,2
689,-175,-12,985,-22,15,-1
690,-147,-38,985,-21,-10,-5
691,4,-53,993,-17,-28,-12
692,150,-42,1013,-11,-23,-14
693,147,-12,1007,-9,3,-6
694,42,21,1015,-14,24,-2
695,-123,5,999,-19,28,1
696,-181,-10,973,-22,9,-2
697,-110,-47,979,-22,-16,-8
698,42,-45,1010,-15,-29,-14
699,162,-31,1005,-12,-18,-12
700,136,-7,1012,-10,9,-6
701,-3,9,1010,-15,28,1
702,-150,-4,983,-20,25,1
703,-182,-17,974,-19,2,-3
704,-81,-42,992,-21,-21,-9
705,90,-42,1011,-12,-30,-14
706,165,-22,1022,-9,-12,-10
707,115,0,990,-12,14,-2
708,-53,13,1005,-15,31,2
709,-173,-9,987,-22,21,1
710,-166,-33,974,-22,-4,-4
711,-34,-46,1004,-15,-27,-12
712,126,-47,1012,-12,-26,-12
713,168,-13,991,-9,-3,-9
714,71,10,1025,-10,21,-2
715,-94,20,990,-18,30,3
716,-184,-13,999,-23,14,-1
717,-138,-40,971,-22,-12,-5
718,1,-55,1008,-16,-28,-11
719,158,-44,999,-8,-23,-13
720,143,-4,1014,-8,4,-6
721,42,17,1007,-12,24,-2
722,-132,9,1007,-20,29,3
723,-188,-16,969,-23,7,0
724,-106,-46,981,-19,-17,-9
725,59,-54,1016,-15,-29,-14
726,158,-31,1003,-9,-16,-10
727,139,-4,1008,-9,9,-5
728,-7,11,1018,-13,28,1
729,-147,9,971,-19,25,1
730,-176,-24,983,-23,3,-4
731,-81,-42,997,-18,-21,-10
732,83,-50,1003,-14,-27,-14
733,170,-33,1019,-10,-10,-12
734,114,0,997,-11,15,-2
735,-45,20,1000,-13,31,0
736,-158,-1,998,-20,22,0
737,-179,-28,975,-21,-2,-4
738,-42,-51,1002,-18,-23,-10
739,117,-47,1003,-13,-26,-14
740,164,-23,1003,-9,-6,-7
741,90,14,1013,-9,18,-2
742,-88,15,1000,-18,30,1
743,-175,-4,989,-20,16,0
744,-150,-39,980,-24,-10,-6
745,-1,-56,991,-19,-26,-13
746,149,-44,1011,-10,-23,-13
747,144,-12,1011,-8,2,-7
748,41,15,1010,-11,24,0
749,-111,14,1002,-19,30,1
750,-189,-13,971,-23,11,0
751,-107,-38,980,-20,-16,-9
752,35,-52,1010,-17,-26,-13
753,168,-35,1008,-11,-18,-11
754,123,-2,1015,-9,10,-5
755,4,10,1005,-14,26,0
756,-148,6,988,-18,25,2
757,-182,-23,969,-25,3,-2
758,-66,-38,1000,-20,-21,-11
759,80,-51,1011,-15,-27,-12
760,174,-33,1007,-11,-10,-10
761,99,3,1008,-9,17,-4
762,-53,12,993,-14,30,1
763,-167,2,1000,-21,19,1
764,-164,-36,966,-22,-6,-4
765,-25,-40,1015,-17,-24,-12
766,131,-51,998,-14,-24,-13
767,154,-14,1008,-8,-1,-8
768,74,10,1009,-12,19,-2
769,-107,9,1002,-18,29,3
770,-175,-16,983,-20,13,-1
771,-135,-41,983,-19,-12,-6
772,17,-46,992,-14,-28,-13
773,153,-31,1017,-11,-20,-12
774,148,-10,1013,-11,5,-7
775,21,16,1007,-13,27,1
776,-129,-1,993,-20,27,1
777,-183,-22,976,-20,9,-3
778,-100,-45,975,-19,-19,-8
779,51,-43,1015,-13,-28,-14
780,167,-26,1018,-9,-17,-11
781,132,5,998,-10,10,-4
782,-23,8,1017,-16,28,2
783,-146,1,979,-19,22,2
784,-189,-31,979,-22,2,-3
785,-61,-45,987,-18,-24,-11
786,99,-44,1027,-11,-27,-15
787,170,-26,998,-9,-8,-9
788,103,12,1003,-10,15,-3
789,-50,15,1006,-16,29,0
790,-183,-7,983,-22,21,1
791,-162,-33,978,-21,-6,-6
792,-26,-50,1012,-17,-25,-11
793,131,-49,989,-11,-26,-12
794,162,-19,1016,-7,-2,-9
795,70,14,1013,-12,20,-3
796,-107,19,1001,-18,30,1
797,-178,-2,985,-23,12,-1
798,-137,-43,979,-22,-12,-7
799,22,-49,995,-15,-28,-14
800,152,-43,1016,-11,-21,-11
801,139,-8,1006,-10,5,-6
802,24,9,1016,-12,26,-1
803,-130,3,989,-20,26,2
804,-186,-17,971,-21,7,-2
805,-89,-44,989,-18,-20,-10
806,55,-43,1009,-15,-28,-13
807,166,-28,1009,-9,-15,-10
808,127,-5,1015,-10,10,-5
809,-28,10,993,-16,28,2
810,-155,0,994,-17,21,2
811,-174,-28,976,-22,-1,-4
812,-55,-39,991,-18,-22,-9
813,102,-41,1027,-13,-26,-13
814,166,-32,996,-10,-6,-10
815,91,6,1010,-8,18,-3
816,-70,14,999,-14,28,2
817,-168,-1,991,-21,16,1
818,-154,-34,976,-21,-6,-6
819,-11,-46,1011,-18,-25,-11
820,138,-51,995,-12,-23,-13
821,150,-14,1006,-6,0,-7
822,58,10,1017,-12,21,0
823,-114,13,998,-15,29,3
824,-178,-13,982,-21,11,0
825,-127,-38,983,-20,-13,-8
826,32,-49,992,-16,-27,-12
827,154,-34,1020,-10,-19,-13
828,142,0,1002,-11,8,-6
829,12,10,1018,-15,27,1
830,-137,4,987,-19,26,1
831,-188,-20,967,-23,5,-1
832,-85,-48,995,-19,-21,-10
833,65,-46,1007,-13,-26,-13
834,171,-27,1012,-8,-13,-12
835,129,-2,1010,-9,13,-6
836,-39,13,1000,-15,30,2
837,-153,2,985,-21,22,-1
838,-189,-31,986,-22,-1,-5
839,-47,-41,987,-18,-24,-11
840,110,-51,1025,-14,-27,-13
841,169,-22,1001,-9,-7,-9
842,101,8,1006,-11,19,-3
843,-86,10,1002,-17,30,3
844,-180,-4,985,-21,16,1
845,-162,-36,983,-23,-9,-7
846,-5,-55,1001,-18,-28,-11
847,140,-33,1007,-10,-24,-13
848,162,-12,1007,-9,1,-8
849,52,18,1018,-12,24,0
850,-113,2,994,-19,29,3
851,-189,-17,985,-20,12,-2
852,-122,-45,971,-21,-17,-7
853,31,-48,1007,-15,-29,-13
854,162,-33,1010,-10,-19,-13
855,146,-1,1019,-9,9,-6
856,8,15,1002,-14,28,2
857,-146,5,996,-21,26,2
858,-188,-27,962,-21,4,-3
859,-82,-40,992,-19,-21,-10
860,70,-46,1010,-14,-29,-12
861,178,-31,1016,-10,-14,-11
862,120,-1,1005,-10,14,-4
863,-44,12,998,-14,29,3
864,-160,4,991,-18,22,1
865,-184,-26,975,-24,-2,-4
866,-35,-43,998,-17,-25,-12
867,112,-48,1018,-14,-27,-14
868,167,-24,998,-8,-7,-8
869,83,5,1013,-10,18,-2
870,-80,9,1002,-17,29,1
871,-180,0,984,-20,18,2
872,-153,-34,986,-22,-10,-7
873,4,-54,996,-15,-27,-12
874,140,-38,1009,-8,-23,-12
875,154,-13,1001,-9,2,-7
876,43,11,1019,-12,24,0
877,-114,8,992,-18,28,2
878,-185,-12,983,-21,11,-1
879,-113,-49,979,-20,-16,-7
880,39,-47,1001,-14,-28,-11
881,158,-31,1015,-10,-18,-12
882,140,-3,1006,-9,7,-5
883,5,20,1014,-13,28,2
884,-144,0,983,-21,25,2
885,-183,-16,971,-22,3,-3
886,-80,-53,994,-22,-22,-11
887,81,-50,1006,-12,-27,-14
888,168,-27,1016,-9,-11,-10
889,124,0,1005,-10,14,-5
890,-57,21,998,-15,31,3
891,-161,3,994,-22,20,0
892,-173,-31,976,-25,-4,-5
893,-30,-49,1001,-17,-26,-11
894,122,-50,1010,-13,-26,-15
895,165,-23,1002,-8,-4,-11
896,77,13,1009,-11,19,-1
897,-90,16,1001,-17,30,1
898,-179,-10,989,-21,15,1
899,-137,-40,975,-20,-10,-6
900,5,-49,1006,-14,-26,-13
901,149,-40,1002,-11,-23,-14
902,148,-3,1015,-10,3,-7
903,34,16,1008,-14,25,1
904,-129,11,999,-19,29,3
905,-177,-24,975,-23,9,-2
906,-112,-48,979,-20,-17,-8
907,51,-50,1005,-14,-29,-15
908,164,-30,1013,-9,-18,-13
909,135,-3,1013,-8,10,-4
910,-8,13,1009,-13,29,1
911,-147,3,984,-20,24,1
912,-184,-22,975,-21,2,-3
913,-71,-42,986,-22,-22,-11
914,82,-49,1021,-13,-28,-15
915,174,-26,1006,-10,-11,-12
916,101,-3,1004,-13,17,-3
917,-45,18,997,-17,30,1
918,-173,-9,992,-22,21,1
919,-171,-18,972,-23,-5,-7
920,-24,-59,1010,-17,-25,-12
921,111,-37,1004,-11,-25,-13
922,175,-26,1000,-10,-5,-9
923,76,8,1015,-9,20,-3
924,-89,18,999,-19,30,4
925,-174,-15,991,-20,15,0
926,-141,-39,976,-21,-12,-6
927,-1,-46,998,-14,-28,-13
928,143,-35,1005,-9,-24,-12
929,149,-9,1014,-11,1,-5
930,47,13,1012,-13,24,-1
931,-121,8,999,-20,28,2
932,-181,-19,968,-22,9,-1
933,-119,-46,989,-20,-15,-8
934,35,-51,998,-15,-29,-13
935,159,-25,1015,-8,-18,-11
936,148,2,1006,-9,8,-5
937,-1,13,1016,-16,30,3
938,-141,-3,981,-21,26,3
939,-194,-24,976,-21,6,-3
940,-73,-51,996,-17,-22,-10
941,74,-49,1007,-10,-28,-14
942,170,-29,1019,-9,-13,-11
943,120,8,1001,-9,14,-3
944,-41,23,1003,-14,30,3
945,-168,1,996,-23,23,2
946,-175,-36,973,-23,-2,-5
947,-38,-53,1004,-18,-27,-11
948,105,-47,998,-11,-28,-13
949,182,-21,1003,-6,-8,-11
950,77,13,1024,-9,21,-1
951,-84,27,994,-19,32,4
952,-181,-7,997,-23,19,-1
953,-147,-42,964,-25,-8,-6
954,0,-55,1005,-15,-28,-12
955,146,-44,1000,-10,-25,-13
956,153,-11,1015,-8,2,-6
957,41,8,1017,-11,25,0
958,-116,12,998,-18,30,3
959,-188,-14,970,-22,12,-1
960,-111,-40,982,-19,-16,-8
961,41,-49,1008,-15,-29,-13
962,151,-20,1009,-9,-18,-12
963,148,-10,1017,-12,8,-7
964,-4,10,1003,-15,30,3
965,-148,-3,986,-19,26,3
966,-176,-27,976,-21,4,-5
967,-81,-43,992,-16,-20,-9
968,82,-38,1012,-12,-30,-15
969,167,-27,1016,-10,-14,-11
970,115,0,1000,-10,14,-3
971,-56,11,1000,-16,31,3
972,-158,-8,995,-22,22,1
973,-172,-38,975,-22,-1,-2
974,-38,-39,998,-15,-25,-11
975,123,-42,1008,-10,-28,-14
976,163,-17,1003,-7,-7,-10
977,70,10,1012,-12,19,-1
978,-92,13,1009,-18,32,2
979,-171,-15,980,-22,16,0
980,-136,-37,976,-22,-10,-6
981,3,-53,995,-13,-28,-12
982,144,-30,1019,-8,-25,-13
983,143,-12,998,-9,2,-6
984,28,19,1027,-11,25,0
985,-116,3,988,-20,28,2
986,-184,-24,968,-21,10,1
987,-103,-37,989,-18,-19,-9
988,47,-59,1006,-14,-29,-14
989,156,-20,1018,-6,-18,-12
990,130,-11,1006,-11,8,-4
991,-17,19,1011,-13,29,1
992,-149,-6,975,-22,25,5
993,-184,-17,986,-21,2,-5
994,-59,-47,988,-19,-25,-9
995,100,-39,1020,-12,-30,-13
996,165,-24,1000,-10,-11,-9
997,99,6,1009,-12,14,-2
998,-69,8,1004,-18,30,3
999,-174,-8,979,-22,19,1
1000,-157,-44,993,-21,-6,-7
1001,-11,-51,997,-16,-28,-11
1002,131,-35,999,-10,-26,-10
1003,158,-17,1015,-8,-3,-10
1004,63,22,1011,-12,21,0
1005,-105,13,999,-18,31,3
1006,-173,-9,989,-23,14,0
1007,-137,-55,971,-22,-13,-6
1008,16,-48,997,-12,-30,-13
1009,153,-45,1019,-8,-24,-13
1010,148,-1,1002,-8,5,-6
1011,33,15,1020,-11,27,0
1012,-121,15,988,-19,29,3
1013,-198,-10,972,-24,11,0
1014,-106,-44,983,-21,-19,-10
1015,50,-57,1012,-15,-32,-14
1016,169,-43,1003,-8,-19,-10
1017,146,-8,1018,-11,8,-7
1018,-10,14,1001,-15,28,1
1019,-157,11,986,-17,20,0
1020,-197,-18,981,-25,5,-4
1021,-72,-38,998,-19,-23,-9
1022,95,-47,1006,-14,-30,-14
1023,176,-33,1012,-10,-13,-12
1024,115,0,1006,-10,16,-3
1025,-56,15,999,-17,32,1
1026,-171,-10,992,-20,23,0
1027,-184,-27,985,-20,-4,-4
1028,-20,-47,992,-17,-28,-13
1029,123,-41,1008,-9,-29,-13
1030,171,-6,1006,-8,-6,-10
1031,72,4,1014,-15,21,-1
1032,-94,11,1004,-17,32,1
1033,-184,-16,981,-23,17,0
1034,-139,-47,976,-20,-11,-8
1035,16,-49,997,-12,-30,-14
1036,149,-33,1015,-8,-24,-14
1037,149,0,1009,-9,2,-6
1038,25,17,1018,-14,27,0
1039,-128,1,986,-21,29,2
1040,-188,-20,975,-22,9,-1
1041,-90,-52,983,-20,-19,-11
1042,56,-48,1014,-12,-28,-14
1043,170,-21,1009,-6,-16,-13
1044,126,-2,1013,-10,11,-5
1045,-27,18,991,-15,30,1
1046,-158,1,1003,-20,24,1
1047,-181,-30,969,-25,1,-4
1048,-51,-52,1001,-17,-24,-11
1049,102,-49,1013,-12,-28,-14
1050,169,-22,1002,-8,-9,-10
1051,95,12,1014,-10,17,-1
1052,-74,15,994,-20,33,2
1053,-179,-8,1002,-22,20,1
1054,-153,-38,966,-23,-7,-6
1055,-13,-51,1008,-16,-28,-12
1056,138,-43,999,-10,-26,-13
1057,154,-11,1015,-6,-1,-7
1058,57,17,1007,-12,24,-1
1059,-107,15,1012,-18,31,3
1060,-177,-18,971,-23,13,-1
1061,-131,-48,978,-20,-13,-8
1062,16,-53,1009,-11,-29,-13
1063,161,-27,1006,-9,-24,-12
1064,144,-5,1014,-8,4,-6
1065,23,21,1012,-16,26,2
1066,-135,-1,996,-22,28,2
1067,-184,-23,956,-23,8,-1
1068,-99,-50,1006,-19,-20,-9
1069,64,-48,995,-11,-31,-13
1070,170,-29,1025,-6,-16,-11
1071,130,6,999,-9,12,-5
1072,-34,17,1007,-16,32,2
1073,-153,-3,987,-21,24,1
1074,-190,-28,977,-22,2,-3
1075,-42,-45,1003,-16,-26,-11
1076,106,-46,1007,-13,-29,-13
1077,169,-25,1006,-7,-10,-8
1078,88,6,1010,-9,17,-2
1079,-79,12,1001,-18,31,4
1080,-175,-2,987,-21,19,1
1081,-154,-42,981,-22,-8,-6
1082,2,-52,1000,-16,-29,-11
1083,133,-33,999,-9,-26,-11
1084,156,-11,1017,-9,-2,-8
1085,54,12,1012,-15,24,-1
1086,-121,4,995,-18,31,3
1087,-180,-16,978,-22,11,-1
1088,-117,-50,981,-21,-16,-8
1089,34,-46,996,-14,-29,-13
1090,157,-28,1020,-9,-20,-15
1091,144,3,1009,-8,6,-6
1092,0,13,1014,-15,29,2
1093,-140,-1,980,-22,26,2
1094,-191,-25,980,-22,7,-1
1095,-72,-50,984,-19,-21,-10
1096,66,-47,1015,-11,-28,-14
1097,175,-26,1014,-6,-15,-12
1098,117,3,1003,-10,13,-5
1099,-46,13,1000,-16,31,4
1100,-160,6,992,-22,22,1
1101,-179,-36,972,-25,-1,-3
1102,-36,-39,1004,-15,-27,-12
1103,116,-56,1008,-12,-29,-15
1104,170,-18,1001,-5,-6,-9
1105,75,11,1009,-10,19,-1
1106,-84,15,1001,-18,31,1
1107,-173,-11,989,-21,19,0
1108,-149,-37,973,-22,-8,-7
1109,3,-49,1004,-15,-27,-13
1110,143,-42,1002,-10,-24,-14
1111,148,-8,1012,-8,1,-8
1112,45,10,1015,-12,25,0
1113,-125,8,1003,-18,29,4
1114,-180,-18,964,-21,10,-1
1115,-113,-46,995,-17,-18,-9
1116,41,-46,995,-13,-30,-13
1117,158,-28,1018,-9,-19,-13
1118,144,-7,1017,-9,7,-5
1119,-10,13,1001,-15,30,4
1120,-137,-6,987,-20,27,1
1121,-188,-24,977,-22,5,-1
1122,-79,-37,984,-18,-22,-9
1123,80,-46,1021,-11,-29,-15
1124,173,-18,1013,-9,-14,-11
1125,116,-4,996,-11,14,-3
1126,-47,15,1004,-15,33,1
1127,-159,-9,996,-22,23,2
1128,-181,-29,967,-22,-1,-5
1129,-35,-50,1008,-18,-27,-11
1130,115,-45,1012,-10,-28,-14
1131,166,-18,989,-7,-6,-9
1132,82,10,1026,-10,20,-2
1133,-92,16,994,-19,32,3
1134,-172,-12,987,-20,17,0
1135,-153,-41,982,-22,-11,-6
1136,1,-49,987,-15,-30,-13
1137,147,-34,1017,-9,-24,-14
1138,154,-13,1005,-11,0,-5
1139,44,17,1016,-13,26,0
1140,-123,1,1000,-21,31,3
1141,-183,-14,972,-22,11,0
1142,-113,-45,977,-19,-16,-8
1143,31,-46,1010,-14,-30,-13
1144,169,-29,1015,-7,-20,-13
1145,137,-1,1008,-9,8,-7
1146,-6,15,1011,-15,28,2
1147,-137,-1,986,-21,26,2
1148,-198,-28,969,-23,6,-2
1149,-68,-37,995,-18,-22,-10
1150,83,-49,1016,-13,-28,-14
1151,168,-29,1013,-8,-13,-10
1152,114,9,1000,-10,13,-3
1153,-59,6,1007,-17,32,3
1154,-160,0,986,-23,21,2
1155,-170,-34,981,-22,-4,-4
1156,-27,-44,1000,-15,-27,-13
1157,117,-48,1004,-11,-28,-13
1158,166,-10,1006,-6,-6,-10
1159,68,12,1015,-13,21,-1
1160,-86,13,997,-19,30,1
1161,-179,-18,988,-23,16,1
1162,-139,-45,970,-21,-10,-6
1163,11,-49,999,-13,-28,-13
1164,143,-36,1008,-9,-25,-15
1165,151,2,1010,-7,3,-7
1166,37,10,1014,-13,27,0
1167,-124,7,992,-20,29,2
1168,-186,-22,972,-23,10,-2
1169,-106,-45,982,-20,-19,-10
1170,43,-50,1009,-15,-30,-13
1171,173,-32,1011,-8,-19,-13
1172,133,-3,1015,-10,10,-5
1173,-9,12,1002,-13,29,0
1174,-144,2,994,-20,25,0
1175,-194,-12,967,-22,3,-2
1176,-60,-48,997,-20,-24,-12
1177,85,-46,1015,-12,-29,-14
1178,169,-33,1007,-9,-12,-10
1179,119,-1,1006,-9,14,-5
1180,-58,11,1003,-15,32,4
1181,-166,3,988,-22,23,0
1182,-173,-35,982,-22,-3,-5
1183,-24,-43,1000,-17,-28,-11
1184,115,-41,1000,-11,-26,-13
1185,173,-16,1013,-9,-5,-10
1186,68,10,1007,-14,24,1
1187,-93,8,1002,-18,31,2
1188,-179,-14,993,-21,15,0
1189,-137,-45,969,-21,-12,-8
1190,12,-51,995,-12,-28,-12
1191,141,-31,1016,-9,-23,-12
1192,158,-5,1005,-8,3,-10
1193,27,18,1017,-12,28,-1
1194,-127,12,997,-22,30,3
1195,-178,-24,964,-23,9,-3
1196,-114,-50,989,-19,-18,-8
1197,53,-49,1006,-15,-30,-14
1198,165,-38,1023,-8,-18,-14
1199,133,0,998,-8,10,-5
1200,-15,10,1017,-13,30,0
1201,-142,1,981,-19,24,0
1202,-190,-18,980,-23,3,-3
1203,-57,-36,992,-18,-24,-13
1204,86,-56,1019,-14,-28,-13
1205,180,-23,1003,-7,-12,-10
1206,95,0,1007,-10,16,-2
1207,-56,23,996,-16,32,1
1208,-171,-11,997,-22,21,1
1209,-166,-27,971,-20,-6,-5
1210,-15,-49,1010,-17,-27,-12
1211,124,-47,998,-11,-25,-13
1212,162,-9,1002,-9,-4,-8
1213,68,12,1023,-12,23,-2
1214,-105,9,992,-19,32,4
1215,-178,-15,983,-23,15,1
1216,-133,-48,976,-21,-13,-9
1217,19,-54,999,-12,-29,-13
1218,149,-31,1010,-9,-20,-12
1219,144,-1,1013,-9,5,-8
1220,29,14,1012,-14,27,2
1221,-132,7,991,-21,29,2
1222,-187,-22,969,-23,8,-2
1223,-97,-41,988,-19,-18,-10
1224,48,-50,1005,-14,-28,-15
1225,171,-31,1016,-7,-16,-14
1226,128,4,1013,-8,12,-5
1227,-18,14,996,-15,31,3
1228,-155,2,1000,-19,25,1
1229,-187,-30,966,-24,2,-4
1230,-60,-44,1000,-15,-24,-11
1231,97,-45,1013,-12,-28,-13
1232,173,-23,1009,-9,-10,-9
1233,101,3,995,-10,17,-3
1234,-74,17,1011,-17,32,2
1235,-168,-7,983,-22,19,-1
1236,-174,-40,980,-21,-7,-7
1237,-7,-51,1002,-16,-28,-14
1238,127,-35,1002,-12,-25,-13
1239,161,-18,1007,-9,-2,-8
1240,62,14,1016,-13,23,-1
1241,-106,3,1002,-18,29,4
1242,-185,-15,975,-20,14,-1
1243,-126,-51,981,-20,-13,-8
1244,20,-41,995,-12,-30,-12
1245,154,-29,1018,-9,-21,-12
1246,154,-7,1009,-9,4,-7
1247,9,18,1013,-13,28,3
1248,-122,1,989,-23,26,2
1249,-189,-28,976,-22,9,-2
1250,-97,-48,973,-19,-19,-9
1251,61,-41,1020,-11,-30,-16
1252,167,-30,1011,-8,-16,-9
1253,126,10,1005,-10,12,-4
1254,-21,9,1004,-15,30,1
1255,-160,-5,990,-19,24,2
1256,-183,-28,971,-22,0,-3
1257,-57,-50,998,-17,-25,-12
1258,103,-44,1017,-9,-30,-14
1259,173,-19,1003,-8,-9,-10
1260,96,8,1011,-10,17,-3
1261,-69,22,1000,-19,31,5
1262,-172,-13,985,-24,20,0
1263,-168,-46,980,-22,-6,-6
1264,-9,-51,1004,-16,-28,-12
1265,133,-43,999,-8,-26,-13
1266,163,-2,1008,-7,-3,-7
1267,67,13,1023,-11,23,-1
1268,-111,16,993,-19,32,4
1269,-181,-14,981,-25,13,1
1270,-129,-48,978,-21,-14,-8
1271,15,-55,1000,-15,-29,-12
1272,159,-35,1011,-9,-22,-13
1273,150,-2,1016,-7,6,-7
1274,20,11,1011,-13,28,2
1275,-132,8,990,-18,27,3
1276,-193,-28,967,-20,7,-2
1277,-96,-39,991,-18,-20,-9
1278,66,-53,1010,-12,-30,-14
1279,165,-22,1014,-7,-16,-11
1280,135,0,1006,-11,11,-4
1281,-29,15,1006,-15,30,1
1282,-158,-6,986,-20,24,2
1283,-181,-24,981,-21,1,-6
1284,-54,-46,994,-17,-24,-11
1285,104,-43,1018,-12,-29,-13
1286,171,-21,1001,-9,-10,-10
1287,94,8,1008,-9,17,-3
1288,-70,17,1007,-18,32,3
1289,-175,-12,981,-23,19,0
1290,-160,-34,986,-19,-7,-6
1291,-10,-51,996,-17,-28,-13
1292,132,-39,1002,-8,-24,-14
1293,159,-8,1013,-8,0,-7
1294,57,11,1011,-13,25,-1
1295,-107,7,1000,-17,31,2
1296,-185,-21,981,-23,13,-1
1297,-126,-45,971,-19,-13,-9
1298,30,-49,1002,-13,-28,-13
1299,146,-25,1019,-8,-22,-12
1300,147,0,1004,-10,4,-7
1301,16,8,1021,-15,28,1
1302,-139,2,978,-22,27,3
1303,-184,-28,974,-22,6,-4
1304,-94,-44,993,-18,-19,-8
1305,62,-43,1001,-12,-29,-12
1306,172,-28,1027,-7,-16,-11
1307,123,2,998,-10,12,-2
1308,-29,17,1002,-15,31,2
1309,-158,-10,997,-22,23,3
1310,-183,-22,970,-22,-1,-2
1311,-44,-53,1002,-16,-26,-12
1312,107,-38,1009,-12,-27,-12
1313,172,-26,1007,-10,-7,-10
1314,89,10,1003,-11,18,-3
1315,-83,12,1007,-19,33,4
1316,-172,-7,987,-22,18,0
1317,-151,-43,977,-22,-8,-6
1318,-13,-47,998,-17,-28,-11
1319,137,-38,1010,-10,-25,-14
1320,158,-6,1006,-8,-1,-8
1321,47,10,1016,-14,24,1
1322,-105,9,996,-18,28,0
1323,-188,-19,981,-22,12,0
1324,-117,-50,969,-18,-14,-8
1325,29,-43,1015,-13,-28,-13
1326,158,-32,1009,-10,-19,-12
1327,139,0,1009,-10,7,-6
1328,11,8,1018,-15,26,1
1329,-143,4,984,-20,28,3
1330,-179,-34,968,-22,6,-3
1331,-89,-43,995,-18,-19,-8
1332,76,-39,1008,-13,-29,-13
1333,169,-27,1018,-8,-14,-11
1334,118,5,1003,-10,13,-2
1335,-35,10,997,-17,32,1
1336,-161,-9,997,-22,24,3
1337,-183,-25,965,-21,-1,-3
1338,-39,-50,1005,-17,-25,-13
1339,111,-44,1013,-12,-27,-12
1340,165,-15,995,-7,-7,-8
1341,91,7,1018,-10,18,-3
1342,-83,14,1000,-18,31,5
1343,-170,-12,983,-23,19,1
1344,-156,-37,985,-21,-8,-6
1345,-1,-50,995,-16,-29,-11
1346,137,-40,1003,-8,-24,-13
1347,155,-11,1015,-8,1,-6
1348,54,15,1011,-12,24,0
1349,-117,10,999,-18,30,4
1350,-179,-11,974,-22,12,-2
1351,-123,-50,978,-20,-14,-8
1352,28,-43,1005,-15,-33,-15
1353,151,-36,1015,-11,-23,-11
1354,140,0,1005,-10,5,-5
1355,14,4,1019,-15,27,2
1356,-131,4,984,-18,28,1
1357,-189,-20,969,-22,7,-1
1358,-81,-46,993,-19,-21,-10
1359,63,-39,1014,-13,-31,-12
1360,162,-30,1005,-9,-14,-10
1361,123,2,1012,-11,10,-5
1362,-27,5,996,-14,30,2
1363,-163,0,997,-19,25,2
1364,-167,-30,967,-24,-1,-5
1365,-53,-39,1011,-15,-24,-11
1366,116,-39,997,-13,-29,-13
1367,159,-20,1016,-9,-7,-9
1368,82,2,998,-12,18,-2
1369,-83,14,1015,-18,31,2
1370,-167,-10,981,-21,16,-1
1371,-148,-31,983,-21,-8,-6
1372,4,-47,995,-16,-28,-13
1373,130,-30,1010,-10,-23,-12
1374,156,-17,1009,-11,0,-8
1375,36,10,1017,-12,24,-1
1376,-112,3,991,-19,29,2
1377,-179,-19,982,-23,10,-3
1378,-114,-47,975,-18,-15,-9
1379,36,-33,1009,-14,-29,-13
1380,163,-33,1016,-9,-20,-13
1381,133,3,1005,-8,9,-5
1382,-1,2,1011,-16,28,1
1383,-141,0,988,-20,25,1
1384,-181,-33,970,-22,5,-1
1385,-77,-32,993,-16,-22,-12
1386,79,-50,1015,-13,-30,-14
1387,171,-18,1018,-8,-13,-12
1388,109,6,997,-11,15,-2
1389,-48,10,1006,-15,33,2
1390,-158,-9,987,-23,23,2
1391,-174,-32,976,-22,-2,-5
1392,-34,-50,1001,-17,-26,-12
1393,118,-39,1007,-10,-28,-15
1394,162,-21,1001,-8,-6,-10
1395,78,12,1010,-11,20,-2
1396,-88,11,1004,-18,33,2
1397,-174,-10,987,-22,16,0
1398,-143,-34,973,-22,-11,-7
1399,1,-53,999,-14,-28,-13
1400,135,-34,1012,-9,-23,-12
1401,153,-15,1005,-10,1,-8
1402,43,9,1020,-12,24,0
1403,-116,2,994,-20,30,4
1404,-178,-18,972,-21,12,-3
1405,-117,-39,982,-18,-15,-8
1406,33,-38,1004,-15,-28,-13
1407,160,-28,1019,-9,-18,-12
1408,136,-6,1007,-11,7,-5
1409,6,10,1009,-17,29,1
1410,-141,-9,989,-20,26,2
1411,-184,-12,967,-22,5,-3
1412,-80,-47,998,-19,-20,-11
1413,73,-36,1012,-13,-29,-12
1414,159,-23,1007,-12,-13,-11
1415,125,0,1005,-11,13,-6
1416,-54,8,1001,-17,30,5
1417,-151,-3,987,-23,22,1
1418,-173,-38,983,-22,-1,-5
1419,-30,-42,998,-15,-25,-12
1420,106,-49,1003,-11,-26,-13
1421,160,-16,1007,-7,-7,-9
1422,77,4,1012,-13,17,-1
1423,-87,10,1000,-17,30,3
1424,-170,-7,990,-22,17,1
1425,-135,-32,976,-22,-8,-6
1426,8,-44,996,-15,-27,-12
1427,137,-35,1011,-11,-24,-12
1428,144,-16,1007,-11,3,-6
1429,34,1,1015,-12,24,1
1430,-123,0,993,-18,28,3
1431,-175,-19,975,-19,11,-3
1432,-103,-39,980,-17,-15,-9
1433,46,-36,1011,-14,-27,-13
1434,158,-23,1015,-8,-16,-12
1435,128,-11,1004,-11,10,-5
1436,-16,12,1009,-14,30,1
1437,-143,-13,984,-21,25,0
1438,-183,-22,976,-20,4,-3
1439,-60,-37,992,-18,-23,-9
1440,91,-39,1022,-12,-28,-14
1441,172,-23,1002,-10,-12,-10
1442,95,3,1009,-10,16,-2
1443,-61,4,999,-16,31,2
1444,-167,-11,993,-21,22,1
1445,-164,-33,973,-19,-4,-4
1446,-15,-40,1008,-15,-28,-12
1447,129,-36,1006,-10,-27,-14
1448,161,-16,1000,-8,-3,-8
1449,67,10,1020,-11,23,0
1450,-103,4,1000,-18,32,3
1451,-175,-13,982,-20,14,0
1452,-130,-41,977,-22,-12,-7
1453,17,-45,1000,-13,-30,-14
1454,147,-25,1014,-9,-24,-12
1455,147,-9,1007,-10,4,-7
1456,27,14,1018,-14,27,1
1457,-129,4,990,-21,29,3
1458,-179,-23,972,-23,8,-2
1459,-99,-44,985,-19,-20,-8
1460,52,-45,1008,-14,-31,-14
1461,171,-31,1017,-8,-18,-14
1462,126,-1,1007,-11,10,-4
1463,-17,11,1004,-16,31,2
1464,-149,-5,987,-20,26,1
1465,-186,-22,977,-22,3,-3
1466,-57,-39,992,-17,-23,-12
1467,92,-43,1019,-12,-29,-14
1468,171,-25,1008,-9,-10,-10
1469,95,3,1001,-12,17,-4
1470,-67,1,1005,-17,31,3
1471,-166,0,984,-19,21,-1
1472,-166,-34,985,-21,-6,-5
1473,-12,-41,998,-16,-28,-13
1474,130,-36,1003,-12,-25,-12
1475,159,-20,1004,-9,-2,-7
1476,66,12,1018,-14,24,-1
1477,-103,0,997,-20,31,2
1478,-180,-10,983,-20,13,-1
1479,-133,-52,976,-20,-13,-9
1480,21,-41,998,-11,-30,-14
1481,154,-30,1017,-10,-24,-14
1482,145,0,1010,-10,4,-7
1483,28,11,1013,-14,27,2
1484,-136,-4,991,-18,29,2
1485,-190,-23,964,-22,8,-1
1486,-94,-48,993,-17,-19,-11
1487,56,-38,1005,-14,-29,-13
1488,171,-22,1019,-9,-16,-11
1489,131,4,1006,-9,10,-5
1490,-23,8,996,-17,30,2
1491,-153,-5,998,-20,23,0
1492,-184,-32,967,-25,0,-3
1493,-56,-38,996,-16,-25,-12
1494,97,-48,1020,-12,-29,-14
1495,170,-23,1004,-8,-9,-10
1496,101,2,1005,-10,16,-3
1497,-70,19,1001,-18,30,2
1498,-165,-6,989,-23,19,1
1499,-170,-37,976,-20,-6,-5
1500,-8,-47,1002,-15,-29,-13
1501,126,-41,1005,-10,-26,-13
1502,162,-12,1006,-8,-2,-9
1503,63,12,1023,-12,24,0
1504,-111,7,990,-19,31,3
1505,-180,-12,984,-21,13,-1
1506,-126,-49,976,-20,-14,-8
1507,18,-41,1003,-12,-27,-13
1508,159,-27,1008,-10,-22,-12
1509,135,-5,1021,-9,7,-5
1510,25,14,1006,-14,26,1
1511,-139,-4,997,-21,29,2
1512,-186,-24,966,-21,6,-1
1513,-88,-42,989,-18,-21,-9
1514,60,-48,1013,-11,-30,-14
1515,165,-18,1012,-7,-15,-11
1516,132,-1,1013,-11,12,-5
1517,-34,19,993,-15,30,2
1518,-156,1,992,-22,22,1
1519,-178,-35,981,-24,-1,-6
1520,-53,-46,987,-17,-24,-10
1521,103,-53,1023,-12,-28,-15
1522,169,-24,995,-8,-9,-10
1523,87,5,1012,-10,18,-2
1524,-64,17,1001,-17,30,0
1525,-173,1,991,-22,19,1
1526,-158,-35,978,-23,-8,-6
1527,-12,-57,1000,-18,-28,-13
1528,132,-42,1005,-10,-26,-14
1529,156,-9,1004,-9,-1,-8
1530,54,8,1020,-13,24,-2
1531,-106,9,994,-18,31,3
1532,-184,-16,983,-22,12,1
1533,-122,-42,975,-20,-15,-9
1534,18,-44,1006,-15,-29,-12
1535,165,-34,1011,-11,-22,-13
1536,138,-6,1012,-10,6,-5
1537,18,15,1010,-14,27,2
1538,-138,-2,994,-19,27,2
1539,-183,-24,962,-22,6,-1
1540,-89,-46,1001,-19,-20,-9
1541,73,-42,1000,-12,-30,-15
1542,165,-30,1026,-9,-14,-10
1543,123,7,993,-8,12,-5
1544,-39,3,1008,-16,31,2
1545,-156,0,983,-20,22,1
1546,-188,-24,977,-22,-1,-3
1547,-39,-47,1000,-15,-27,-12
1548,116,-44,1010,-11,-28,-13
1549,162,-26,999,-9,-6,-8
1550,89,14,1008,-8,20,-3
1551,-79,12,1014,-18,32,2
1552,-176,-3,968,-21,18,2
1553,-150,-37,993,-22,-9,-7
1554,0,-58,991,-16,-29,-13
1555,131,-37,1005,-9,-22,-11
1556,161,-10,1011,-9,1,-8
1557,48,16,1022,-12,23,-1
1558,-111,7,986,-20,29,3
1559,-185,-9,984,-24,12,-2
1560,-119,-50,979,-21,-15,-7
1561,28,-44,1002,-15,-28,-13
1562,155,-37,1013,-10,-20,-12
1563,148,-2,1015,-7,7,-6
1564,7,5,1009,-14,28,2
1565,-138,7,981,-17,26,2
1566,-188,-20,978,-20,4,-3
1567,-78,-40,992,-18,-20,-10
1568,68,-46,1007,-13,-28,-13
1569,172,-27,1018,-8,-13,-12
1570,118,-5,1001,-12,15,-3
1571,-39,12,997,-14,31,3
1572,-163,1,996,-20,21,1
1573,-177,-29,972,-23,-2,-4
1574,-41,-45,1003,-18,-24,-11
1575,111,-49,1004,-14,-27,-11
1576,171,-25,1007,-7,-7,-9
1577,84,2,1006,-10,19,0
1578,-88,15,1003,-17,30,3
1579,-172,-8,991,-20,16,0
1580,-152,-39,971,-20,-9,-5
1581,0,-48,1002,-16,-29,-12
1582,142,-38,1008,-10,-24,-13
1583,154,-4,1013,-9,2,-7
1584,41,4,1009,-13,24,0
1585,-115,15,1004,-17,29,2
1586,-179,-25,968,-22,10,0
1587,-115,-32,988,-17,-16,-8
1588,37,-56,1002,-17,-28,-12
1589,153,-25,1014,-9,-17,-12
1590,142,-5,1011,-10,7,-4
1591,-4,19,1010,-14,28,-1
1592,-125,-4,986,-20,23,0
1593,-187,-21,982,-21,6,-2
1594,-77,-42,988,-20,-19,-10
1595,74,-53,1012,-13,-26,-14
1596,164,-27,1018,-8,-13,-11
1597,114,9,996,-10,13,-4
1598,-40,16,1004,-14,30,0
1599,-156,6,991,-21,20,2
1600,-169,-33,984,-24,-3,-6
1601,-36,-56,995,-18,-25,-12
1602,106,-51,1004,-12,-25,-13
1603,165,-25,1003,-6,-5,-9
1604,77,12,1010,-8,19,-1
1605,-85,22,1004,-17,30,2
1606,-175,-2,989,-21,17,-1
1607,-138,-42,977,-23,-9,-7
1608,5,-55,994,-15,-27,-11
1609,138,-42,1018,-9,-22,-12
1610,151,-12,1003,-9,3,-7
1611,29,14,1021,-10,26,-1
1612,-118,16,994,-18,27,2
1613,-181,-20,973,-23,9,-3
1614,-105,-38,984,-19,-17,-8
1615,47,-45,1011,-17,-28,-12
1616,158,-31,1013,-10,-16,-13
1617,133,-8,1008,-11,9,-5
1618,-13,11,1007,-14,28,1
1619,-139,1,983,-19,23,1
1620,-190,-19,982,-21,3,-1
1621,-56,-39,985,-20,-23,-11
1622,81,-52,1028,-13,-25,-13
1623,173,-21,999,-10,-11,-9
1624,100,2,1013,-10,18,-4
1625,-58,18,993,-16,30,3
1626,-165,-8,997,-23,20,1
1627,-168,-33,975,-21,-4,-6
1628,-30,-48,1002,-20,-25,-10
1629,128,-46,1010,-11,-25,-15
1630,160,-12,996,-8,-2,-7
1631,68,12,1021,-12,20,-1
1632,-92,18,998,-18,29,1
1633,-184,-12,987,-22,15,2
1634,-131,-48,968,-23,-13,-8
1635,4,-59,1007,-15,-27,-12
1636,157,-37,1004,-10,-23,-13
1637,140,-5,1015,-8,5,-8
1638,35,18,1011,-10,24,-1
1639,-130,12,995,-20,27,3
1640,-185,-18,966,-24,6,-2
1641,-101,-50,991,-20,-18,-9
1642,59,-53,1000,-16,-28,-13
1643,155,-35,1021,-9,-16,-9
1644,139,2,1003,-7,8,-6
1645,-21,12,1012,-13,29,2
1646,-149,5,981,-19,23,1
1647,-189,-22,984,-23,1,-4
1648,-49,-44,987,-18,-24,-11
1649,84,-52,1024,-14,-25,-12
1650,178,-29,1003,-11,-11,-9
1651,90,0,1003,-9,16,-2
1652,-61,19,1000,-15,27,1
1653,-168,0,991,-22,18,0
1654,-159,-31,981,-21,-6,-5
1655,-14,-51,1003,-17,-26,-11
1656,130,-44,1003,-10,-25,-13
1657,155,-21,1002,-7,-1,-7
1658,64,13,1015,-11,21,-3
1659,-110,15,1000,-16,28,3
1660,-176,-6,981,-22,13,-1
1661,-119,-42,982,-21,-13,-9
1662,17,-50,996,-14,-26,-10
1663,158,-36,1013,-11,-19,-13
1664,136,-7,1009,-9,7,-7
1665,19,17,1010,-12,25,-1
1666,-132,3,994,-20,26,0
1667,-183,-19,967,-22,7,-3
1668,-89,-46,992,-20,-18,-10
1669,56,-46,1009,-15,-26,-15
1670,167,-31,1014,-8,-14,-12
1671,126,-1,1002,-9,12,-5
1672,-31,15,1003,-16,30,2
1673,-154,1,988,-19,21,2
1674,-178,-30,975,-23,-1,-3
1675,-51,-47,997,-17,-23,-11
1676,108,-46,1018,-12,-26,-15
1677,165,-26,1000,-9,-7,-10
1678,95,9,1009,-10,18,-2
1679,-69,15,1009,-15,31,1
1680,-180,-5,977,-22,20,2
1681,-154,-37,987,-21,-8,-6
1682,-10,-59,998,-18,-26,-12
1683,132,-40,1002,-9,-24,-13
1684,167,-10,1011,-8,-1,-8
1685,52,12,1012,-13,23,-1
1686,-104,23,1000,-18,29,2
1687,-186,-21,987,-19,9,-3
1688,-135,-45,965,-14,-15,-8
1689,28,-56,1003,-14,-29,-13
1690,153,-28,1024,-9,-21,-12
1691,150,-12,993,-10,5,-6
1692,20,17,1032,-10,26,0
1693,-138,1,980,-19,26,4
1694,-185,-13,967,-21,6,-3
1695,-88,-51,1000,-20,-20,-9
1696,61,-43,1005,-14,-28,-12
1697,168,-33,1015,-11,-14,-11
1698,129,-5,1004,-11,11,-4
1699,-35,11,1002,-14,28,3
1700,-153,2,988,-18,22,1
1701,-186,-27,979,-22,1,-3
1702,-46,-43,998,-17,-24,-10
1703,105,-52,1013,-11,-27,-13
1704,168,-19,1004,-7,-7,-10
1705,93,14,1004,-9,18,-2
1706,-74,16,1008,-18,29,1
1707,-173,-5,985,-22,17,1
1708,-151,-45,980,-22,-7,-7
1709,-8,-57,1002,-17,-26,-11
1710,133,-42,1000,-8,-23,-12
1711,155,-11,1013,-7,0,-9
1712,55,19,1008,-11,22,-1
1713,-110,19,1007,-17,28,2
1714,-176,-12,973,-25,12,-1
1715,-124,-42,982,-21,-14,-7
1716,32,-60,1000,-18,-28,-13
1717,150,-34,1016,-9,-18,-12
1718,145,-12,1000,-8,5,-7
1719,1,22,1023,-10,25,0
1720,-128,7,976,-20,22,1
1721,-188,-10,981,-21,6,-2
1722,-75,-44,986,-22,-20,-8
1723,69,-49,1022,-14,-25,-14
1724,168,-40,1007,-10,-12,-10
1725,108,0,1005,-9,13,-4
1726,-38,15,999,-13,27,0
1727,-157,3,989,-20,20,1
1728,-171,-22,980,-23,-2,-5
1729,-38,-48,994,-19,-22,-11
1730,113,-46,1020,-12,-25,-14
1731,162,-32,989,-9,-4,-8
1732,71,4,1014,-8,19,-3
1733,-82,19,1000,-15,27,0
1734,-168,0,989,-21,16,-1
1735,-142,-38,982,-24,-7,-6
1736,-1,-49,996,-16,-24,-13
1737,144,-47,1004,-11,-22,-14
1738,142,-16,1009,-9,4,-7
1739,46,10,1014,-11,24,-2
1740,-123,9,1000,-16,28,1
1741,-176,-18,972,-23,8,-4
1742,-111,-40,983,-18,-15,-9
1743,29,-43,1000,-14,-27,-13
1744,147,-28,1019,-10,-19,-11
1745,138,-8,1006,-10,6,-6
1746,9,0,1015,-12,26,0
1747,-126,0,985,-17,24,1
1748,-189,-13,973,-22,6,-1
1749,-86,-42,992,-19,-21,-9
1750,66,-41,1014,-13,-26,-13
1751,164,-29,1012,-10,-11,-9
1752,132,-3,1003,-11,13,-5
1753,-37,8,1002,-13,29,3
1754,-156,6,988,-18,21,1
1755,-183,-28,976,-22,0,-4
1756,-56,-33,997,-16,-24,-11
1757,100,-44,1014,-15,-28,-13
1758,177,-27,998,-10,-9,-10
1759,92,0,1016,-10,18,-2
1760,-69,7,999,-17,29,3
1761,-174,-9,996,-19,19,-1
1762,-161,-32,971,-20,-7,-7
1763,-15,-33,996,-15,-27,-13
1764,128,-33,1016,-9,-25,-12
1765,161,-18,1000,-12,-1,-7
1766,57,0,1017,-14,23,0
1767,-105,1,995,-18,30,2
1768,-182,-22,978,-21,12,-2
1769,-119,-32,974,-18,-16,-8
1770,23,-41,1010,-15,-27,-13
1771,156,-20,1012,-11,-20,-12
1772,141,-14,1010,-11,7,-4
1773,4,5,1007,-16,26,3
1774,-135,-10,989,-20,26,2
1775,-180,-21,967,-20,4,-3
1776,-87,-40,996,-20,-20,-9
1777,86,-30,1010,-11,-28,-14
1778,158,-25,1024,-11,-11,-9
1779,123,1,988,-12,12,-4
1780,-48,9,1015,-15,30,2
1781,-157,-6,980,-22,18,2
1782,-176,-32,979,-21,-3,-6
1783,-31,-48,1003,-16,-26,-12
1784,113,-35,1008,-12,-25,-13
1785,168,-22,1000,-9,-6,-9
1786,74,12,1013,-10,19,-1
1787,-88,7,1001,-18,31,2
1788,-171,-8,986,-19,15,1
1789,-146,-47,974,-22,-11,-6
1790,4,-37,999,-12,-27,-14
1791,138,-41,1010,-12,-23,-13
1792,150,-8,1008,-10,2,-5
1793,38,3,1013,-11,24,0
1794,-118,6,996,-17,28,3
1795,-182,-17,972,-21,9,-1
1796,-109,-37,981,-18,-17,-8
1797,37,-41,1009,-15,-30,-13
1798,162,-33,1009,-11,-18,-12
1799,132,-8,1012,-10,7,-5
1800,0,2,1001,-14,26,1
1801,-144,-4,992,-17,25,2
1802,-177,-15,969,-20,2,-3
1803,-73,-41,995,-18,-20,-9
1804,78,-37,1015,-12,-27,-13
1805,174,-32,1013,-10,-11,-10
1806,105,4,1000,-10,15,-3
1807,-45,7,1001,-14,29,3
1808,-161,-2,995,-19,21,0
1809,-177,-34,971,-22,-3,-4
1810,-27,-41,1006,-15,-26,-13
1811,117,-44,1005,-13,-24,-12
1812,164,-19,1000,-7,-3,-9
1813,79,13,1018,-10,20,-1
1814,-95,4,990,-18,30,1
1815,-176,-2,998,-19,15,0
1816,-140,-46,972,-22,-11,-7
1817,5,-39,1000,-15,-26,-12
1818,148,-38,1007,-11,-22,-11
1819,145,-11,1018,-11,4,-7
1820,43,12,999,-13,24,0
1821,-126,4,1005,-18,28,2
1822,-177,-17,967,-22,8,-1
1823,-113,-39,986,-19,-15,-8
1824,47,-45,1006,-15,-28,-13
1825,164,-31,1014,-10,-17,-10
1826,135,3,1004,-10,10,-5
1827,-7,3,1012,-15,28,1
1828,-145,3,984,-18,25,2
1829,-188,-21,975,-23,4,-4
1830,-62,-47,987,-18,-22,-12
1831,79,-39,1022,-14,-25,-12
1832,174,-30,1006,-10,-11,-10
1833,100,3,1000,-11,15,-2
1834,-50,12,1000,-15,28,1
1835,-166,-1,995,-21,20,0
1836,-168,-30,973,-23,-4,-6
1837,-24,-52,1008,-19,-25,-13
1838,123,-41,1006,-10,-24,-13
1839,161,-16,996,-9,-3,-7
1840,73,7,1020,-11,20,-2
1841,-101,16,999,-17,28,3
1842,-172,-10,980,-23,14,-1
1843,-134,-46,987,-22,-11,-9
1844,9,-48,991,-15,-28,-13
1845,150,-36,1011,-10,-22,-13
1846,142,-9,1013,-10,5,-7
1847,32,13,1016,-12,25,-1
1848,-124,0,989,-19,26,2
1849,-182,-15,974,-19,7,-2
1850,-107,-44,980,-20,-19,-9
1851,55,-43,1012,-13,-29,-13
1852,160,-29,1015,-9,-15,-11
1853,136,-4,1005,-10,10,-4
1854,-18,4,1007,-13,29,2
1855,-148,4,981,-18,24,1
1856,-186,-24,979,-22,2,-3
1857,-57,-32,991,-15,-24,-11
1858,92,-48,1022,-14,-27,-13
1859,174,-29,1005,-10,-8,-11
1860,92,-2,1000,-11,16,-2
1861,-54,8,1002,-16,28,0
1862,-173,-5,993,-21,19,0
1863,-164,-32,973,-21,-6,-5
1864,-21,-37,1012,-15,-27,-11
1865,127,-41,996,-12,-27,-13
1866,159,-14,1007,-11,-3,-7
1867,75,1,1018,-13,20,-1
1868,-105,10,999,-17,31,5
1869,-183,-17,981,-20,13,0
1870,-135,-37,980,-21,-14,-7
1871,15,-45,998,-14,-28,-13
1872,152,-20,1009,-12,-21,-12
1873,148,-14,1020,-11,4,-6
1874,28,14,1007,-13,26,0
1875,-137,-4,990,-22,29,3
1876,-184,-21,975,-19,4,-4
1877,-99,-47,984,-19,-20,-8
1878,60,-41,1006,-15,-28,-15
1879,167,-25,1019,-8,-16,-12
1880,132,2,1007,-11,11,-5
1881,-23,9,1002,-16,31,1
1882,-154,-1,989,-19,24,0
1883,-179,-28,975,-24,0,-5
1884,-61,-47,991,-17,-24,-12
1885,93,-44,1018,-12,-29,-13
1886,178,-24,1011,-9,-8,-12
1887,95,2,1000,-12,19,-2
1888,-70,23,1005,-16,31,2
1889,-166,-15,988,-23,18,-2
1890,-172,-28,978,-21,-5,-6
1891,-10,-50,1007,-19,-29,-13
1892,128,-41,1008,-11,-25,-13
1893,168,-18,998,-10,-2,-6
1894,59,17,1024,-13,24,-2
1895,-104,6,990,-20,30,2
1896,-189,-13,988,-21,14,0
1897,-129,-47,968,-22,-13,-9
1898,25,-46,1011,-13,-28,-14
1899,156,-30,1002,-9,-20,-13
1900,140,0,1019,-11,8,-7
1901,22,9,1014,-16,27,2
1902,-133,0,985,-21,28,2
1903,-196,-20,967,-22,7,-2
1904,-85,-50,991,-19,-22,-11
1905,56,-51,1011,-13,-29,-13
1906,162,-29,1010,-7,-15,-9
1907,125,0,1013,-7,11,-6
1908,-17,7,989,-15,30,2
1909,-153,11,997,-19,23,2
1910,-179,-24,974,-24,-1,-4
1911,-51,-43,998,-17,-24,-11
1912,93,-53,1009,-13,-27,-12
1913,162,-25,1009,-8,-8,-9
1914,108,-6,1001,-9,16,-4
1915,-76,22,1004,-15,31,3
1916,-170,-1,991,-19,17,1
1917,-148,-33,981,-19,-6,-7
1918,-27,-49,1003,-17,-26,-9
1919,132,-37,1001,-10,-26,-14
1920,159,-25,1009,-9,-3,-8
1921,55,11,1013,-12,22,2
1922,-101,9,1003,-18,29,2
1923,-172,-18,980,-20,13,-2
1924,-132,-39,981,-19,-13,-8
1925,33,-44,994,-13,-29,-15
1926,147,-31,1026,-9,-20,-12
1927,138,-8,998,-11,5,-5
1928,18,8,1021,-12,27,2
1929,-135,-4,984,-21,27,4
1930,-182,-20,969,-19,8,-2
1931,-87,-42,992,-17,-20,-9
1932,64,-33,1010,-13,-28,-13
1933,170,-22,1015,-8,-16,-11
1934,117,-5,1008,-12,12,-3
1935,-33,8,999,-16,30,2
1936,-153,-9,993,-20,24,1
1937,-188,-27,974,-22,0,-3
1938,-42,-42,1004,-16,-26,-13
1939,107,-42,1012,-11,-29,-15
1940,167,-20,1006,-9,-7,-8
1941,84,4,1006,-12,18,-1
1942,-75,15,1007,-18,30,2
1943,-172,-11,985,-21,18,1
1944,-156,-38,982,-21,-7,-5
1945,-2,-48,999,-16,-28,-12
1946,135,-36,1008,-7,-27,-14
1947,157,-13,1005,-9,-2,-7
1948,51,11,1020,-13,25,-2
1949,-108,5,996,-19,30,4
1950,-184,-15,979,-21,12,1
1951,-122,-45,977,-20,-15,-8
1952,29,-41,1003,-14,-30,-12
1953,158,-32,1014,-12,-23,-12
1954,139,-6,1010,-9,7,-6
1955,16,9,1013,-15,28,1
1956,-135,-2,990,-20,28,2
1957,-190,-24,969,-20,6,-1
1958,-85,-41,992,-19,-20,-8
1959,61,-48,1014,-11,-28,-14
1960,175,-15,1011,-9,-14,-11
1961,118,-5,1008,-10,13,-3
1962,-30,11,995,-16,31,3
1963,-156,-6,996,-22,24,1
1964,-185,-31,969,-21,0,-4
1965,-43,-42,1007,-14,-26,-11
1966,103,-43,1006,-13,-27,-15
1967,176,-20,1007,-7,-8,-10
1968,89,3,1012,-9,19,-1
1969,-84,17,998,-17,33,3
1970,-172,-15,989,-20,18,-1
1971,-155,-38,977,-21,-8,-5
1972,-2,-36,999,-15,-28,-13
1973,140,-35,1011,-11,-25,-13
1974,150,-6,1010,-11,1,-8
1975,55,2,1014,-14,24,-1
1976,-118,-7,1000,-19,30,2
1977,-185,-17,964,-21,13,-2
1978,-112,-37,993,-17,-16,-11
1979,31,-39,994,-14,-30,-13
1980,157,-19,1020,-10,-19,-13
1981,141,-8,1011,-11,8,-8
1982,-2,6,1012,-15,29,3
1983,-134,-10,978,-20,26,1
1984,-194,-28,982,-21,5,-3
1985,-70,-37,980,-19,-21,-11
1986,72,-34,1022,-13,-28,-14
1987,171,-26,1010,-10,-13,-10
1988,114,0,1001,-11,15,-4
1989,-44,9,1001,-16,31,2
1990,-163,0,993,-20,22,1
1991,-176,-32,974,-20,-2,-5
1992,-33,-43,1006,-15,-27,-11
1993,118,-39,1008,-12,-29,-15
1994,168,-20,1001,-9,-6,-9
1995,76,3,1019,-13,20,0
1996,-91,13,991,-19,33,2
1997,-173,-14,998,-20,16,-1
1998,-141,-32,972,-21,-10,-6
1999,0,-47,1000,-14,-28,-12
2000,150,-33,1010,-8,-24,-14
2001,149,-14,1012,-10,3,-6
2002,38,11,1012,-10,27,0
2003,-125,3,999,-20,29,2
2004,-180,-23,968,-22,10,-2
2005,-110,-37,983,-16,-16,-9
2006,45,-46,1009,-15,-29,-14
2007,157,-21,1008,-10,-18,-12
2008,139,-11,1020,-12,7,-5
2009,-5,8,997,-14,28,2
2010,-150,-7,989,-19,26,3
2011,-179,-20,978,-22,1,-4
2012,-73,-42,986,-18,-23,-9
2013,85,-35,1021,-10,-29,-14
2014,172,-33,1012,-11,-12,-10
2015,107,0,1001,-12,16,-2
2016,-51,9,1001,-15,30,2
2017,-164,-2,994,-20,21,1
2018,-170,-26,972,-20,-4,-5
2019,-29,-43,1007,-15,-26,-13
2020,120,-36,1008,-10,-26,-14
2021,159,-24,998,-10,-4,-8
2022,73,7,1014,-12,21,-1
2023,-90,7,1004,-18,30,1
2024,-172,-14,980,-20,15,-1
2025,-139,-35,979,-21,-12,-7
2026,8,-44,994,-13,-29,-14
2027,144,-28,1017,-11,-23,-12
2028,143,-10,1004,-12,4,-6
2029,40,9,1019,-13,30,0
2030,-117,-7,997,-30,40,8
2031,-182,-17,959,-20,12,-1
2032,-100,-42,990,-16,-16,-11
2033,32,-40,1006,-14,-27,-13
2034,166,-25,1015,-10,-19,-14
2035,127,-6,1011,-11,9,-5
2036,-11,13,1000,-15,27,3
2037,-134,-6,989,-19,24,-1
2038,-189,-20,978,-22,4,-3
2039,-58,-45,986,-19,-24,-10
2040,87,-43,1024,-11,-28,-14
2041,164,-25,1003,-10,-11,-9
2042,107,2,1007,-9,15,-4
2043,-57,6,999,-17,31,3
2044,-165,5,994,-19,20,1
2045,-161,-39,973,-22,-6,-7
2046,-33,-35,1008,-17,-26,-11
2047,128,-47,1000,-11,-28,-14
2048,161,-10,1007,-9,-3,-9
2049,65,5,1016,-16,20,0
2050,-97,11,1000,-16,30,3
2051,-174,-22,985,-21,14,-1
2052,-139,-37,972,-19,-12,-7
2053,16,-49,1005,-13,-29,-15
2054,150,-35,1011,-9,-22,-13
2055,146,1,1011,-8,4,-5
2056,28,7,1009,-15,26,1
2057,-124,3,999,-20,27,1
2058,-183,-23,961,-23,7,-1
2059,-97,-40,994,-19,-19,-10
2060,52,-49,1004,-16,-28,-13
2061,157,-23,1017,-8,-16,-12
2062,135,-5,1007,-12,10,-5
2063,-20,9,1000,-16,30,2
2064,-147,-1,990,-19,24,2
2065,-182,-24,977,-22,1,-3
2066,-60,-39,993,-16,-24,-11
2067,90,-42,1014,-13,-28,-14
2068,178,-25,1008,-10,-10,-12
2069,96,1,1006,-10,17,-2
2070,-65,12,996,-17,30,3
2071,-169,-6,994,-22,19,0
2072,-170,-39,975,-20,-7,-4
2073,-13,-39,1002,-15,-29,-13
2074,133,-42,1007,-13,-25,-13
2075,161,-11,1005,-8,-1,-9
2076,60,5,1016,-15,24,-1
2077,-104,6,1001,-18,32,1
2078,-189,-19,978,-22,14,-1
2079,-126,-37,976,-18,-14,-10
2080,20,-44,1004,-14,-29,-13
2081,154,-30,1010,-10,-21,-12
2082,146,-6,1013,-10,7,-5
2083,18,7,1012,-14,27,2
2084,-138,-2,990,-21,27,2
2085,-184,-17,964,-20,5,-3
2086,-96,-44,1000,-19,-19,-10
2087,68,-44,1002,-14,-31,-14
2088,160,-19,1023,-8,-16,-9
2089,138,-3,1002,-12,10,-5
2090,-39,11,1003,-14,32,3
2091,-152,-6,986,-21,24,1
2092,-187,-27,983,-23,0,-4
2093,-44,-42,985,-17,-26,-12
2094,101,-46,1028,-13,-27,-15
2095,175,-28,992,-9,-6,-11
2096,86,8,1018,-10,20,-2
2097,-73,14,993,-17,29,2
2098,-176,-3,997,-20,18,1
2099,-149,-34,976,-22,-9,-7
2100,-13,-50,1003,-16,-26,-12
2101,147,-38,1003,-11,-25,-14
2102,148,-23,1013,-11,1,-7
2103,61,13,1001,-11,25,-1
2104,-119,5,1010,-17,31,3
2105,-176,-12,974,-21,12,0
2106,-127,-42,972,-19,-14,-7
2107,29,-36,1009,-15,-29,-15
2108,157,-34,1012,-10,-20,-12
2109,143,-3,1007,-10,7,-6
2110,9,3,1016,-16,28,2
2111,-136,0,985,-19,27,1
2112,-189,-20,971,-22,6,-2
2113,-80,-38,987,-18,-21,-11
2114,62,-43,1016,-13,-28,-14
2115,178,-29,1007,-9,-15,-11
2116,111,2,1014,-11,14,-4
2117,-25,9,989,-16,29,1
2118,-161,-4,1007,-19,23,2
2119,-181,-26,958,-23,-1,-3
2120,-44,-48,1017,-16,-25,-13
2121,111,-46,1003,-12,-29,-14
2122,164,-13,1003,-7,-6,-9
2123,94,4,1009,-11,18,-4
2124,-89,14,1006,-18,31,4
2125,-168,-2,981,-22,16,1
2126,-155,-47,988,-22,-9,-7
2127,-3,-43,991,-15,-28,-12
2128,137,-40,1009,-10,-24,-14
2129,158,-11,1009,-8,0,-9
2130,45,13,1015,-12,24,1
2131,-112,4,993,-17,28,1
2132,-187,-11,982,-22,10,-1
2133,-118,-47,972,-20,-17,-9
2134,41,-45,1012,-14,-30,-14
2135,157,-35,1011,-11,-20,-11
2136,140,-5,1011,-9,7,-4
2137,12,3,1012,-15,28,0
2138,-150,7,987,-19,28,3
2139,-179,-19,970,-23,3,-2
2140,-81,-39,998,-19,-22,-11
2141,71,-52,1009,-13,-29,-13
2142,183,-24,1019,-8,-14,-13
2143,113,-7,1003,-10,15,-3
2144,-44,26,994,-12,30,3
2145,-158,-12,1002,-22,22,0
2146,-182,-22,966,-21,-2,-4
2147,-36,-45,1009,-19,-25,-11
2148,120,-49,1008,-12,-29,-16
2149,165,-21,1002,-7,-5,-9
2150,90,6,1007,-11,20,-4
2151,-99,18,1013,-19,33,3
2152,-169,-7,973,-21,16,1
2153,-154,-37,990,-21,-7,-7
2154,9,-47,988,-17,-29,-14
2155,143,-44,1019,-9,-23,-13
2156,159,-9,998,-11,1,-7
2157,29,10,1025,-13,26,1
2158,-108,3,994,-18,27,0
2159,-196,-18,976,-22,10,-1
2160,-104,-38,973,-19,-18,-9
2161,41,-45,1019,-14,-29,-13
2162,158,-30,1003,-9,-18,-10
2163,136,-2,1015,-8,9,-7
2164,-6,2,1008,-14,29,2
2165,-149,2,986,-18,24,2
2166,-175,-24,973,-21,1,-5
2167,-78,-38,996,-18,-22,-9
2168,87,-43,1012,-13,-29,-13
2169,168,-33,1011,-10,-11,-11
2170,110,8,1004,-10,14,-2
2171,-44,13,995,-16,31,3
2172,-169,-1,998,-22,21,1
2173,-168,-35,968,-23,-4,-6
2174,-34,-46,1012,-15,-26,-11
2175,125,-44,1002,-11,-27,-13
2176,164,-22,1005,-7,-4,-9
2177,73,14,1011,-10,20,-1
2178,-86,14,1003,-19,31,2
2179,-182,-10,985,-21,17,0
2180,-135,-38,977,-22,-11,-7
2181,3,-51,1003,-15,-28,-14
2182,144,-40,1004,-10,-25,-13
2183,150,-5,1014,-7,2,-8
2184,35,11,1014,-13,25,0
2185,-120,8,999,-19,29,3
2186,-190,-20,967,-23,10,-2
2187,-99,-43,984,-19,-18,-9
2188,44,-48,1014,-14,-29,-14
2189,168,-28,1003,-10,-18,-10
2190,133,1,1019,-9,9,-6
2191,-9,13,1002,-15,28,1
2192,-149,1,989,-20,25,2
2193,-186,-28,967,-22,3,-3
2194,-68,-41,1000,-17,-23,-12
2195,84,-50,1011,-12,-30,-13
2196,175,-24,1010,-7,-12,-11
2197,112,3,1003,-11,17,-3
2198,-57,22,1001,-16,33,2
2199,-166,-7,992,-22,21,0
2200,-171,-33,976,-21,-5,-4
2201,-28,-51,1004,-16,-27,-12
2202,127,-41,1000,-11,-26,-14
2203,161,-25,1007,-9,-4,-7
2204,77,15,1012,-10,21,-2
2205,-106,13,1004,-18,31,3
2206,-174,-6,980,-21,14,0
2207,-144,-47,979,-21,-10,-8
2208,13,-50,991,-14,-28,-14
2209,148,-39,1020,-10,-22,-12
2210,153,0,1000,-9,3,-7
2211,30,14,1027,-13,27,2
2212,-122,4,981,-22,28,2
2213,-195,-16,981,-22,10,-1
2214,-97,-49,979,-19,-21,-10
2215,44,-43,1009,-14,-29,-13
2216,167,-27,1016,-9,-18,-11
2217,137,-5,1014,-10,12,-6
2218,-10,8,993,-13,31,2
2219,-158,5,998,-19,25,3
2220,-182,-33,969,-24,0,-4
2221,-71,-43,994,-18,-23,-11
2222,96,-45,1017,-12,-30,-13
2223,178,-26,1006,-8,-10,-10
2224,109,5,1000,-11,17,-4
2225,-63,23,1009,-16,32,2
2226,-172,0,983,-23,20,-1
2227,-172,-36,981,-24,-5,-4
2228,-22,-50,1003,-19,-28,-12
2229,126,-51,1001,-11,-26,-13
2230,174,-17,999,-5,-3,-10
2231,63,13,1025,-9,23,-1
2232,-96,17,993,-18,31,2
2233,-190,-13,987,-22,14,-1
2234,-136,-40,976,-21,-14,-7
2235,14,-54,997,-15,-29,-14
2236,154,-41,1010,-9,-23,-14
2237,154,-3,1010,-8,3,-7
2238,23,13,1015,-12,28,0
2239,-118,1,994,-19,27,1
2240,-204,-13,971,-21,8,0
2241,-93,-40,984,-19,-20,-11
2242,52,-59,1015,-14,-28,-13
2243,166,-14,1009,-7,-16,-11
2244,135,-5,1011,-11,10,-6
2245,-15,18,1006,-14,31,1
2246,-155,-1,985,-19,27,2
2247,-190,-22,975,-23,2,-5
2248,-62,-47,998,-18,-24,-10
2249,96,-48,1007,-11,-28,-13
2250,171,-22,1016,-8,-9,-11
2251,107,6,999,-11,17,-5
2252,-60,19,1006,-16,31,3
2253,-173,-6,989,-23,18,1
2254,-168,-31,982,-21,-7,-7
2255,-21,-55,997,-17,-27,-12
2256,125,-40,1009,-12,-26,-15
2257,167,-20,999,-9,-4,-10
2258,64,15,1022,-12,22,-2
2259,-99,9,994,-18,30,3
2260,-189,-5,988,-20,15,-1
2261,-131,-45,972,-24,-14,-8
2262,13,-46,1002,-13,-28,-14
2263,162,-38,1010,-11,-23,-12
2264,145,-4,1013,-10,6,-7
2265,28,8,1009,-14,28,-1
2266,-136,3,1000,-20,28,2
2267,-182,-20,959,-22,8,-3
2268,-97,-41,995,-19,-18,-11
2269,57,-47,1003,-15,-29,-14
2270,167,-36,1016,-7,-16,-12
2271,129,0,1006,-10,11,-4
2272,-27,12,1003,-15,29,1
2273,-148,-5,988,-19,22,0
2274,-188,-17,980,-21,1,-3
2275,-48,-47,991,-18,-25,-13
2276,99,-36,1020,-11,-26,-14
2277,171,-36,1002,-10,-7,-9
2278,93,9,1001,-9,19,-5
2279,-69,9,1008,-16,31,3
2280,-170,0,980,-21,19,0
2281,-161,-38,982,-23,-7,-6
2282,-10,-44,1003,-16,-28,-13
2283,133,-42,1007,-11,-25,-13
2284,162,-14,997,-9,-1,-9
2285,53,16,1025,-13,24,0
2286,-106,12,997,-19,30,1
2287,-186,-15,982,-23,12,-2
2288,-119,-52,975,-22,-16,-8
2289,21,-46,1004,-13,-29,-13
2290,166,-43,1013,-10,-20,-15
2291,134,3,1010,-8,8,-6
2292,16,12,1013,-12,26,1
2293,-140,5,993,-19,27,2
2294,-188,-9,961,-21,4,-2
2295,-82,-50,1000,-20,-22,-11
2296,67,-49,1006,-14,-29,-13
2297,166,-29,1014,-9,-13,-9
2298,128,-4,1003,-11,12,-4
2299,-38,11,1005,-14,30,2
2300,-156,10,983,-19,21,2
2301,-183,-33,981,-24,-1,-4
2302,-37,-39,992,-16,-26,-12
2303,111,-53,1021,-12,-27,-14
2304,164,-21,999,-8,-5,-8
2305,90,4,1013,-8,18,-1
2306,-80,15,998,-16,30,1
2307,-176,0,985,-22,16,2
2308,-148,-27,987,-21,-11,-7
2309,-7,-56,1001,-17,-27,-12
2310,145,-42,1002,-9,-25,-14
2311,161,-17,1007,-8,1,-8
2312,43,12,1018,-11,24,-1
2313,-113,12,993,-18,27,1
2314,-183,-16,990,-21,11,-3
2315,-116,-38,970,-21,-16,-7
2316,36,-45,1005,-14,-29,-13
2317,164,-35,1014,-12,-19,-12
2318,133,-7,1011,-10,8,-4
2319,15,11,1008,-11,28,1
2320,-147,0,996,-19,28,3
2321,-182,-20,957,-21,3,-4
2322,-80,-52,1005,-18,-20,-12
2323,70,-44,1001,-12,-27,-13
2324,166,-18,1020,-7,-12,-12
2325,128,0,1004,-12,13,-5
2326,-45,17,999,-15,30,2
2327,-156,-6,988,-21,20,1
2328,-180,-37,975,-22,-2,-4
2329,-43,-44,1002,-17,-23,-11
2330,116,-48,1010,-11,-25,-15
2331,165,-21,1013,-7,-4,-9
2332,90,7,998,-11,19,-1
2333,-86,22,1011,-17,31,1
2334,-175,-9,979,-23,18,0
2335,-147,-32,985,-22,-8,-7
2336,1,-56,998,-19,-26,-13
2337,140,-43,1007,-10,-22,-12
2338,145,-16,1005,-9,1,-7
2339,42,13,1013,-12,23,0
2340,-114,10,1000,-18,28,2
2341,-181,-15,982,-22,10,-2
2342,-108,-37,976,-19,-16,-9
2343,34,-50,1006,-16,-27,-12
2344,154,-32,1014,-11,-18,-12
2345,132,-6,1006,-9,9,-6
2346,3,0,1013,-12,26,0
2347,-141,15,990,-18,24,1
2348,-177,-31,967,-22,3,-3
2349,-75,-31,996,-18,-20,-10
2350,72,-51,1011,-15,-26,-13
2351,169,-29,1016,-8,-12,-11
2352,111,0,999,-12,13,-3
2353,-41,11,1004,-13,28,2
2354,-153,0,987,-19,20,0
2355,-179,-25,977,-23,-2,-4
2356,-32,-44,1002,-17,-25,-12
2357,117,-51,1014,-13,-24,-13
2358,166,-25,994,-9,-4,-9
2359,78,2,1014,-7,20,-2
2360,-83,11,998,-16,29,2
2361,-175,-1,985,-20,17,0
2362,-143,-33,987,-21,-9,-8
2363,7,-42,997,-17,-24,-13
2364,144,-33,1008,-11,-19,-14
2365,152,-18,1011,-11,4,-7
2366,28,-6,1005,-12,25,1
2367,-129,2,1001,-12,28,2
2368,-171,-13,972,-18,11,-3
2369,-88,-18,986,-18,-16,-11
2370,50,-29,1002,-17,-25,-12
2371,156,-31,1018,-16,-13,-12
2372,105,-37,1001,-15,11,-3
2373,-22,-13,1008,-13,26,2
2374,-135,-14,982,-15,20,-2
2375,-155,6,978,-15,1,-7
2376,-49,-5,996,-19,-20,-11
2377,86,-21,1017,-19,-22,-14
2378,138,-38,1009,-17,-5,-6
2379,82,-32,997,-16,13,-3
2380,-64,-25,998,-14,24,2
2381,-152,0,984,-13,15,-3
2382,-131,-4,985,-17,-6,-10
2383,-4,-14,1005,-15,-21,-11
2384,114,-23,1012,-15,-18,-11
2385,133,-38,998,-17,0,-7
2386,34,-17,1009,-12,18,-1
2387,-94,-13,983,-16,23,2
2388,-155,-6,999,-16,10,-4
2389,-92,-15,982,-17,-12,-9
2390,24,-23,1010,-17,-20,-13
2391,134,-25,999,-16,-15,-11
2392,104,-27,1013,-15,7,-6
2393,7,-24,996,-16,22,0
2394,-129,-12,999,-13,21,1
2395,-139,0,978,-15,3,-6
2396,-65,-20,992,-16,-16,-12
2397,56,-14,1005,-15,-23,-12
2398,138,-31,1012,-18,-9,-8
2399,81,-35,1005,-15,11,-2
2400,-34,-29,1000,-14,21,1
2401,-129,-6,982,-14,16,-3
2402,-137,-6,980,-15,-2,-6
2403,-24,1,1003,-16,-19,-11
2404,77,-28,1013,-16,-17,-10
2405,130,-41,1009,-15,-3,-6
2406,61,-32,997,-13,14,-1
2407,-71,-13,992,-12,21,1
2408,-134,-5,988,-13,11,-2
2409,-128,3,992,-16,-5,-8
2410,9,-14,1005,-19,-20,-11
2411,103,-35,1013,-19,-16,-9
2412,121,-44,991,-15,1,-4
2413,23,-26,1008,-11,17,-2
2414,-90,-12,993,-12,19,1
2415,-148,-1,993,-11,9,-3
2416,-84,0,991,-17,-12,-9
2417,36,-12,1008,-17,-19,-10
2418,123,-26,1002,-18,-13,-8
2419,95,-36,1006,-16,7,-4
2420,-7,-23,1005,-14,20,0
2421,-119,-18,987,-14,19,-2
2422,-136,-10,991,-14,2,-6
2423,-57,-6,987,-14,-16,-10
2424,65,-22,1010,-17,-18,-12
2425,129,-30,1012,-16,-8,-9
2426,75,-26,1004,-14,12,-4
2427,-33,-17,1000,-13,20,-1
2428,-139,-14,987,-15,15,-1
2429,-131,-14,972,-16,-3,-4
2430,-26,-13,1010,-14,-18,-10
2431,92,-22,1010,-13,-19,-12
2432,140,-25,1012,-14,-2,-8
2433,59,-21,996,-16,16,-1
2434,-77,-13,993,-14,24,1
2435,-147,-11,989,-16,12,-3
2436,-129,-18,981,-16,-7,-7
2437,14,-10,1013,-15,-21,-12
2438,116,-33,1017,-17,-16,-12
2439,122,-27,991,-14,3,-5
2440,25,-22,1011,-12,18,-1
2441,-107,-8,987,-14,22,1
2442,-149,-12,989,-15,7,-3
2443,-84,-10,989,-15,-12,-9
2444,32,-18,1008,-18,-19,-12
2445,135,-30,1003,-15,-12,-12
2446,93,-34,1006,-15,7,-3
2447,-7,-15,1005,-13,20,-1
2448,-121,-12,998,-14,18,-1
2449,-139,-7,978,-15,2,-6
2450,-59,-5,990,-17,-15,-11
2451,67,-21,1015,-19,-19,-12
2452,118,-27,1002,-17,-7,-6
2453,81,-38,1006,-16,11,-3
2454,-37,-22,1006,-13,21,0
2455,-136,-9,975,-13,14,-1
2456,-126,-1,982,-12,-3,-8
2457,-22,-5,1010,-18,-17,-10
2458,86,-26,1008,-19,-16,-11
2459,127,-37,1014,-16,-2,-7
2460,49,-33,996,-14,15,-2
2461,-65,-20,989,-10,20,-2
2462,-137,-1,993,-12,11,-3
2463,-114,4,991,-16,-6,-10
2464,16,-10,1003,-18,-17,-13
2465,107,-39,1017,-21,-14,-11
2466,106,-47,987,-16,3,-5
2467,20,-34,1010,-11,17,-3
2468,-96,-16,988,-11,19,-1
2469,-134,4,995,-12,7,-5
2470,-75,0,992,-16,-10,-9
2471,20,-4,1005,-17,-16,-9
2472,112,-38,1002,-20,-11,-9
2473,83,-34,1010,-15,6,-6
2474,2,-29,997,-13,16,-1
2475,-113,-17,996,-12,17,0
2476,-122,-6,982,-15,2,-5
2477,-59,-7,991,-15,-14,-10
2478,51,-10,1005,-17,-18,-11
2479,111,-23,1014,-18,-8,-8
2480,78,-25,1005,-15,8,-5
2481,-27,-28,994,-14,18,-2
2482,-126,-14,992,-14,13,0
2483,-123,-14,973,-15,-1,-6
2484,-31,-5,1006,-15,-18,-10
2485,80,-14,1009,-16,-18,-11
2486,126,-28,1017,-17,-4,-7
2487,52,-24,989,-17,14,-1
2488,-67,-21,997,-15,20,1
2489,-129,-12,990,-15,10,-3
2490,-123,-7,983,-17,-6,-8
2491,4,-6,1011,-14,-21,-12
2492,101,-31,1011,-20,-17,-10
2493,107,-30,993,-17,1,-4
2494,28,-27,1001,-13,16,-2
2495,-93,-22,1003,-14,18,1
2496,-130,-7,983,-14,6,-3
2497,-90,-11,997,-16,-9,-8
2498,32,-14,1005,-15,-19,-11
2499,115,-26,1003,-16,-11,-9
2500,86,-28,1006,-18,5,-3
2501,2,-18,1002,-15,18,-2
2502,-111,-19,1001,-15,16,1
2503,-133,-6,973,-14,2,-4
2504,-53,-13,997,-15,-15,-10
2505,57,-12,1007,-15,-18,-11
2506,120,-27,1006,-18,-8,-6
2507,73,-28,1007,-15,9,-5
2508,-35,-25,1000,-15,19,0
2509,-125,-19,980,-14,14,-2
2510,-122,-7,983,-12,-1,-7
2511,-25,0,1004,-15,-18,-12
2512,80,-19,1009,-18,-17,-12
2513,112,-30,1015,-17,-4,-6
2514,60,-30,992,-18,11,-3
2515,-65,-20,990,-12,21,-1
2516,-122,-5,997,-15,11,-2
2517,-111,-2,989,-18,-4,-8
2518,2,-11,1005,-18,-18,-11
2519,96,-34,1008,-20,-13,-9
2520,101,-44,997,-14,1,-5
2521,29,-27,994,-13,14,-1
2522,-93,-4,1002,-13,18,-1
2523,-122,0,987,-15,5,-4
2524,-87,-4,999,-19,-8,-8
2525,26,-21,995,-19,-17,-10
2526,108,-42,1012,-17,-12,-9
2527,86,-35,998,-14,6,-3
2528,4,-23,1001,-12,17,-1
2529,-108,-5,1001,-11,16,-1
2530,-125,0,982,-16,1,-4
2531,-54,-3,996,-17,-14,-9
2532,50,-21,1005,-19,-18,-9
2533,119,-34,1008,-18,-7,-9
2534,73,-34,1004,-15,10,-4
2535,-30,-23,1006,-12,18,0
2536,-114,-8,979,-14,12,-3
2537,-119,1,986,-14,-1,-6
2538,-22,2,1005,-16,-15,-9
2539,74,-26,1009,-20,-14,-9
2540,115,-39,1010,-18,-2,-5
2541,46,-42,995,-13,12,-2
2542,-62,-15,995,-10,17,-1
2543,-121,-6,990,-13,9,-3
2544,-112,11,994,-16,-5,-8
2545,18,-7,1008,-19,-17,-10
2546,92,-32,1012,-18,-12,-8
2547,102,-40,986,-16,2,-5
2548,17,-41,1007,-12,14,-2
2549,-96,-6,990,-11,16,-2
2550,-129,0,990,-13,5,-4
2551,-73,4,1003,-14,-11,-10
2552,39,-17,1004,-21,-17,-10
2553,110,-32,1003,-18,-10,-8
2554,80,-45,995,-17,7,-3
2555,-9,-26,1017,-11,17,-1
2556,-120,-8,979,-11,15,0
2557,-123,2,1000,-12,0,-7
2558,-35,0,985,-17,-16,-10
2559,56,-17,1012,-18,-16,-10
2560,125,-31,1004,-20,-7,-8
2561,59,-38,1008,-15,12,-4
2562,-40,-27,995,-12,19,-1
2563,-123,-6,985,-13,12,-3
2564,-123,4,984,-13,-4,-7
2565,-9,-1,1002,-19,-17,-12
2566,87,-28,1013,-21,-14,-10
2567,109,-43,1007,-19,-1,-5
2568,48,-44,988,-17,14,-4
2569,-79,-21,997,-10,19,-2
2570,-123,6,988,-11,7,-5
2571,-102,-2,995,-17,-7,-10
2572,9,0,1006,-18,-18,-10
2573,93,-43,1012,-21,-13,-8
2574,106,-45,988,-16,2,-6
2575,13,-31,1003,-11,15,0
2576,-78,-7,992,-13,17,-2
2577,-135,8,1000,-13,7,-3
2578,-70,-1,988,-18,-10,-10
2579,23,-14,1013,-20,-15,-8
2580,111,-44,990,-20,-10,-8
2581,79,-45,1009,-15,8,-3
2582,0,-25,997,-13,16,-1
2583,-112,-1,1000,-10,16,-2
2584,-111,7,988,-15,1,-6
2585,-60,2,991,-19,-12,-9
2586,52,-32,1006,-21,-19,-9
2587,115,-45,1006,-17,-8,-6
2588,66,-41,1000,-13,9,-4
2589,-26,-14,1002,-10,18,-1
2590,-111,-2,992,-12,12,-2
2591,-118,15,981,-14,-1,-6
2592,-28,-9,1005,-22,-15,-9
2593,71,-34,1007,-21,-15,-8
2594,109,-52,1005,-18,-2,-5
2595,59,-40,999,-11,13,-3
2596,-59,-12,991,-8,19,0
2597,-115,7,993,-11,12,-2
2598,-114,15,999,-18,-3,-7
2599,0,-10,999,-22,-16,-9
2600,92,-41,1013,-23,-13,-9
2601,112,-50,992,-17,1,-5
2602,27,-37,1003,-10,16,-1
2603,-82,-14,992,-10,19,0
2604,-126,6,994,-10,9,-4
2605,-89,10,993,-16,-7,-9
2606,20,-14,1008,-20,-17,-11
2607,101,-35,1000,-19,-12,-9
2608,98,-54,1000,-17,4,-5
2609,11,-26,1008,-14,17,-2
2610,-101,-14,989,-12,19,-3
2611,-127,12,998,-13,4,-7
2612,-73,-8,980,-18,-10,-8
2613,39,-11,1006,-18,-16,-12
2614,116,-44,1010,-21,-8,-8
2615,82,-35,1001,-14,9,-3
2616,-14,-27,1006,-13,18,2
2617,-117,-2,986,-12,15,-2
2618,-124,3,983,-14,0,-7
2619,-39,-1,999,-18,-14,-10
2620,57,-29,1007,-20,-15,-10
2621,112,-40,1010,-17,-6,-7
2622,71,-42,999,-13,9,-2
2623,-49,-14,991,-10,18,0
2624,-114,0,993,-13,10,-4
2625,-126,7,990,-16,-3,-7
2626,-19,-3,1000,-19,-17,-9
2627,87,-37,1012,-20,-16,-10
2628,116,-48,1002,-16,-2,-5
2629,46,-32,993,-12,13,-1
2630,-75,-10,1006,-12,18,0
2631,-129,4,984,-14,9,-4
2632,-107,2,1001,-16,-6,-8
2633,14,-16,999,-20,-18,-12
2634,103,-35,1004,-19,-13,-9
2635,106,-49,1004,-15,2,-4
2636,17,-28,1007,-13,18,0
2637,-96,-4,999,-12,19,-2
2638,-133,6,990,-16,5,-5
2639,-78,-8,989,-18,-11,-10
2640,38,-21,997,-19,-17,-11
2641,114,-40,1018,-18,-11,-7
2642,94,-38,992,-15,6,-3
2643,-13,-31,1014,-11,19,0
2644,-110,-1,985,-13,16,-3
2645,-137,5,980,-14,2,-5
2646,-47,-5,995,-17,-15,-9
2647,57,-24,1012,-20,-17,-9
2648,125,-45,1009,-17,-6,-7
2649,77,-39,998,-14,12,-1
2650,-47,-19,994,-10,22,0
2651,-121,0,993,-10,13,-3
2652,-128,8,988,-15,-1,-6
2653,-25,0,1003,-18,-16,-10
2654,90,-28,1012,-21,-16,-10
2655,116,-52,1000,-17,-1,-4
2656,52,-36,993,-12,14,-1
2657,-70,-10,1004,-11,20,-2
2658,-129,3,991,-13,12,-3
2659,-110,7,988,-16,-5,-8
2660,4,-7,1010,-20,-18,-11
2661,101,-39,1000,-19,-14,-9
2662,113,-40,994,-16,2,-6
2663,18,-35,1016,-13,18,-1
2664,-85,-2,990,-11,19,-2
2665,-134,-8,992,-14,7,-6
2666,-82,5,985,-17,-11,-9
2667,26,-28,1001,-19,-17,-12
2668,116,-32,1011,-18,-11,-10
2669,85,-30,997,-16,6,-3
2670,3,-23,1014,-12,17,-2
2671,-105,-1,992,-12,16,-2
2672,-135,2,974,-16,4,-6
2673,-55,-6,1002,-20,-13,-11
2674,45,-32,1008,-22,-17,-11
2675,118,-35,1004,-18,-8,-7
2676,90,-44,1003,-17,10,-4
2677,-41,-15,997,-12,21,-1
2678,-118,-4,985,-14,14,-4
2679,-140,4,991,-19,0,-8
2680,-26,-11,992,-20,-17,-9
2681,87,-34,1023,-19,-18,-11
2682,125,-46,991,-17,-2,-4
2683,60,-30,1009,-12,14,-2
2684,-71,-7,990,-12,20,-1
2685,-143,0,995,-15,11,-3
2686,-112,-5,990,-16,-7,-8
2687,-2,-18,1003,-19,-19,-11
2688,114,-37,999,-16,-16,-9
2689,118,-38,1007,-12,2,-5
2690,32,-20,1005,-12,18,1
2691,-100,-6,993,-11,21,-1
2692,-140,5,990,-13,7,-6
2693,-92,-7,985,-19,-11,-8
2694,34,-28,1001,-17,-20,-12
2695,117,-39,1009,-18,-12,-9
2696,103,-41,1001,-14,5,-5
2697,3,-21,1010,-10,18,-1
2698,-122,-4,988,-14,17,-2
2699,-139,6,977,-14,2,-6
2700,-58,-5,994,-18,-15,-10
2701,48,-25,1009,-20,-18,-9
2702,142,-47,1011,-6,-5,-8
2703,85,-34,1004,-10,13,-1
2704,-37,-12,997,-12,22,1
2705,-124,3,987,-12,15,-3
2706,-147,7,985,-18,0,-6
2707,-27,-5,997,-20,-17,-11
2708,79,-43,1020,-19,-18,-10
2709,134,-41,992,-15,-4,-6
2710,57,-34,1006,-12,12,-2
2711,-59,0,995,-10,19,-3
2712,-150,8,996,-15,11,-4
2713,-110,-8,988,-17,-8,-9
2714,-4,-24,1008,-19,-17,-9
2715,111,-42,997,-17,-15,-10
2716,118,-35,1008,-12,2,-5
2717,22,-22,1010,-11,17,-2
2718,-99,4,988,-11,19,-2
2719,-140,1,996,-15,5,-4
2720,-85,-10,983,-20,-12,-8
2721,40,-28,995,-19,-20,-10
2722,119,-41,1018,-17,-12,-9
2723,101,-37,993,-13,5,-4
2724,-12,-12,1011,-10,20,0
2725,-106,0,992,-13,16,-2
2726,-143,8,978,-16,3,-4
2727,-48,-15,994,-20,-16,-9
2728,64,-37,1012,-20,-18,-10
2729,120,-43,1006,-16,-6,-7
2730,85,-33,1002,-12,11,-3
2731,-45,-9,999,-12,20,-1
2732,-128,8,985,-14,12,-2
2733,-132,3,988,-19,-3,-5
2734,-10,-22,1002,-19,-17,-10
2735,87,-40,1016,-17,-15,-10
2736,126,-53,997,-15,-1,-6
2737,49,-23,1007,-8,14,-3
2738,-75,5,991,-9,19,0
2739,-140,5,995,-14,11,-4
2740,-100,2,990,-18,-9,-7
2741,6,-24,1009,-22,-17,-10
2742,117,-48,995,-18,-13,-9
2743,99,-46,1006,-13,2,-5
2744,20,-20,1000,-11,16,-3
2745,-98,8,1005,-10,18,-2
2746,-132,5,983,-15,6,-5
2747,-78,-6,989,-21,-10,-9
2748,26,-32,1002,-18,-18,-12
2749,116,-44,1005,-19,-10,-8
2750,94,-36,1003,-13,7,-6
2751,-7,-17,1012,-10,18,0
2752,-106,-8,985,-12,17,-1
2753,-142,7,982,-14,3,-5
2754,-53,-11,994,-19,-14,-9
2755,60,-24,1011,-18,-17,-11
2756,117,-43,1007,-17,-6,-6
2757,79,-26,1004,-14,10,-5
2758,-42,-26,999,-12,19,-2
2759,-128,10,989,-9,14,-3
2760,-125,-5,981,-19,-3,-9
2761,-20,-7,1010,-16,-19,-11
2762,90,-37,1009,-20,-16,-8
2763,121,-40,1008,-16,-1,-7
2764,43,-34,998,-13,13,-1
2765,-78,-5,991,-13,19,-2
2766,-134,2,994,-15,7,-3
2767,-105,2,993,-17,-9,-8
2768,18,-22,1002,-21,-19,-10
2769,116,-45,1008,-18,-15,-10
2770,97,-35,994,-15,3,-4
2771,16,-19,1012,-13,16,-2
2772,-103,-4,994,-13,17,-1
2773,-136,10,988,-15,4,-5
2774,-64,-12,993,-20,-13,-9
2775,42,-25,1000,-19,-17,-10
2776,123,-40,1006,-19,-10,-8
2777,87,-38,1008,-13,9,-4
2778,-25,-16,1003,-11,21,0
2779,-119,-3,990,-13,16,-3
2780,-130,-1,981,-15,0,-7
2781,-42,-4,995,-17,-15,-8
2782,71,-33,1009,-19,-16,-9
2783,120,-40,1012,-15,-5,-6
2784,74,-29,998,-12,13,-2
2785,-50,-17,1003,-12,21,-2
2786,-127,3,982,-11,12,-4
2787,-125,1,986,-15,-2,-9
2788,-11,-7,1000,-18,-18,-10
2789,87,-32,1017,-20,-14,-9
2790,124,-43,1003,-18,0,-5
2791,39,-31,998,-12,15,-2
2792,-75,-9,990,-11,19,-1
2793,-133,1,992,-15,10,-3
2794,-101,-4,990,-16,-9,-7
2795,9,-13,1007,-17,-19,-10
2796,103,-38,1005,-20,-15,-9
2797,108,-37,996,-15,1,-5
2798,16,-25,1010,-12,15,-2
2799,-100,-2,987,-12,18,-2
2800,-129,0,993,-13,4,-6
2801,-78,-4,989,-19,-13,-9
2802,34,-17,1001,-20,-19,-10
2803,119,-39,1011,-19,-12,-9
2804,90,-30,1006,-15,6,-5
2805,-15,-32,1001,-13,19,0
2806,-111,-4,995,-12,15,-3
2807,-136,-12,977,-15,0,-7
2808,-43,1,994,-14,-15,-9
2809,58,-26,1011,-19,-17,-10
2810,130,-35,1008,-16,-7,-7
2811,61,-34,1007,-13,12,-1
2812,-43,-13,995,-12,18,-1
2813,-130,-12,989,-13,12,-3
2814,-120,8,980,-16,-4,-7
2815,-17,-11,1006,-19,-17,-8
2816,88,-27,1017,-19,-15,-10
2817,124,-48,1007,-17,-2,-5
2818,46,-28,994,-11,15,-2
2819,-77,-8,991,-11,21,0
2820,-131,0,999,-15,8,-4
2821,-110,-5,982,-16,-8,-7
2822,14,-11,1016,-18,-19,-9
2823,108,-47,1004,-18,-14,-8
2824,112,-38,992,-11,2,-5
2825,14,-19,1011,-10,17,-1
2826,-95,5,992,-12,18,-2
2827,-139,-2,995,-15,6,-4
2828,-80,2,984,-18,-12,-8
2829,38,-25,1007,-18,-18,-9
2830,129,-40,1004,-18,-13,-8
2831,86,-40,1005,-15,8,-4
2832,-5,-17,1006,-10,18,-1
2833,-117,-11,995,-13,16,-2
2834,-139,4,974,-16,1,-5
2835,-45,-8,1000,-19,-16,-10
2836,61,-24,1009,-20,-18,-12
2837,122,-36,1005,-17,-7,-8
2838,70,-33,1009,-14,11,-4
2839,-40,-24,1005,-12,18,0
2840,-132,-2,975,-13,12,-3
2841,-124,-2,990,-16,-3,-6
2842,-22,-11,1007,-19,-16,-11
2843,87,-30,1005,-18,-16,-8
2844,129,-36,1015,-14,-2,-5
2845,46,-29,994,-13,13,-1
2846,-77,-10,990,-11,19,-1
2847,-134,3,995,-15,8,-3
2848,-116,-3,990,-19,-8,-6
2849,19,-14,1002,-18,-19,-10
2850,108,-47,1018,-20,-14,-10
2851,118,-32,983,-15,1,-5
2852,21,-26,1015,-12,17,-2
2853,-104,9,991,-12,20,-2
2854,-140,-2,989,-16,6,-5
2855,-80,-7,994,-18,-11,-9
2856,33,-30,998,-20,-18,-10
2857,130,-44,1008,-16,-12,-11
2858,90,-36,1007,-13,6,-3
2859,-9,-10,1001,-10,19,-1
2860,-120,-2,1000,-13,15,-2
2861,-136,9,974,-18,2,-4
2862,-52,-9,996,-19,-16,-8
2863,67,-31,1013,-20,-19,-11
2864,124,-42,1008,-18,-6,-6
2865,78,-30,998,-14,12,-4
2866,-44,-16,1013,-13,19,1
2867,-129,0,978,-13,13,-2
2868,-135,0,985,-16,-4,-8
2869,-14,-11,1000,-19,-19,-10
2870,90,-33,1018,-20,-15,-10
2871,125,-47,1005,-16,-2,-7
2872,48,-28,998,-13,13,-2
2873,-78,-17,997,-11,20,-1
2874,-132,6,986,-11,9,-3
2875,-118,8,993,-17,-7,-6
2876,20,-13,1008,-20,-20,-10
2877,105,-44,1009,-19,-13,-8
2878,111,-46,993,-13,3,-5
2879,17,-22,1008,-11,17,-2
2880,-105,0,994,-11,18,0
2881,-137,4,988,-13,5,-3
2882,-80,-3,999,-19,-11,-8
2883,45,-25,1000,-19,-19,-9
2884,117,-34,1001,-17,-11,-9
2885,92,-35,1012,-14,7,-5
2886,-6,-15,1000,-11,18,-2
2887,-124,-4,991,-13,17,-2
2888,-137,2,984,-16,2,-5
2889,-48,-13,996,-19,-14,-9
2890,59,-29,1001,-20,-17,-10
2891,131,-37,1019,-17,-6,-7
2892,74,-37,999,-12,11,-4
2893,-50,-5,1001,-12,21,0
2894,-124,-10,981,-13,11,-2
2895,-138,7,984,-15,-3,-6
2896,-10,-18,999,-21,-20,-10
2897,82,-32,1018,-19,-15,-12
2898,130,-44,1006,-18,-3,-7
2899,52,-31,1000,-13,14,-4
2900,-78,-6,987,-13,20,-1
2901,-139,0,995,-14,10,-3
2902,-106,0,988,-18,-7,-7
2903,6,-18,1012,-18,-19,-8
2904,108,-39,1003,-18,-16,-10
2905,122,-47,1001,-15,2,-6
2906,14,-18,1000,-10,17,-1
2907,-101,1,994,-13,17,-2
2908,-140,-1,999,-16,5,-4
2909,-84,-11,979,-18,-12,-8
2910,42,-29,1012,-18,-20,-11
2911,123,-38,1005,-16,-12,-7
2912,97,-33,998,-14,8,-5
2913,-14,-5,1010,-12,20,-2
2914,-114,-4,996,-14,15,-3
2915,-142,3,977,-17,1,-6
2916,-48,-14,990,-21,-17,-11
2917,64,-35,1019,-18,-18,-12
2918,132,-43,996,-16,-6,-8
2919,72,-30,1015,-10,13,-3
2920,-43,-13,999,-12,19,-1
2921,-134,1,979,-12,14,-3
2922,-130,6,986,-16,-3,-6
2923,-14,-14,1010,-18,-17,-10
2924,90,-36,1003,-18,-16,-10
2925,122,-46,1013,-14,-1,-5
2926,51,-26,993,-13,13,-2
2927,-84,-10,990,-11,20,-1
2928,-140,11,990,-14,7,-3
2929,-110,-6,991,-20,-8,-7
2930,22,-22,1009,-19,-20,-8
2931,114,-46,1007,-19,-14,-7
2932,115,-38,996,-12,4,-5
2933,14,-22,1004,-10,18,0
2934,-108,4,991,-12,17,-2
2935,-134,4,992,-15,4,-4
2936,-82,-11,998,-20,-12,-8
2937,47,-29,997,-19,-19,-10
2938,128,-49,1010,-15,-9,-9
2939,87,-30,1000,-12,10,-3
2940,-9,-19,1006,-11,20,-1
2941,-132,11,994,-11,17,0
2942,-126,7,983,-18,1,-6
2943,-47,-10,996,-21,-15,-9
2944,70,-32,1006,-21,-18,-10
2945,127,-49,1007,-17,-5,-8
2946,77,-33,1003,-12,12,-3
2947,-52,-19,1000,-11,21,-1
2948,-130,5,980,-13,14,-4
2949,-130,7,987,-15,-2,-7
2950,-8,-10,999,-21,-18,-11
2951,89,-41,1020,-19,-15,-10
2952,124,-42,999,-15,-1,-7
2953,48,-30,999,-13,14,-3
2954,-82,-4,996,-10,20,-1
2955,-135,1,980,-15,9,-5
2956,-118,3,996,-19,-7,-9
2957,21,-18,1006,-20,-19,-11
2958,110,-44,1013,-19,-14,-11
2959,116,-44,994,-14,4,-6
2960,19,-27,1006,-11,18,-3
2961,-105,1,990,-11,18,-3
2962,-140,8,989,-13,5,-4
2963,-80,-5,995,-19,-11,-9
2964,33,-15,1001,-20,-19,-10
2965,124,-47,1007,-17,-12,-11
2966,95,-37,1002,-16,7,-4
2967,-17,-21,1001,-13,20,0
2968,-113,2,994,-11,16,-3
2969,-137,-5,991,-17,3,-4
2970,-54,-7,980,-18,-14,-9
2971,66,-36,1017,-19,-19,-11
2972,125,-33,1006,-17,-6,-7
2973,70,-36,999,-13,11,-3
2974,-32,-16,1011,-10,19,-1
2975,-140,-2,976,-13,14,-2
2976,-125,0,982,-15,-3,-8
2977,-26,-9,1014,-20,-18,-8
2978,86,-35,1001,-19,-17,-11
2979,125,-45,1019,-14,-1,-5
2980,55,-32,995,-13,13,-2
2981,-76,-12,989,-10,19,0
2982,-138,2,989,-12,8,-2
2983,-117,-1,991,-17,-8,-8
2984,17,-17,1003,-17,-19,-11
2985,107,-37,1022,-18,-14,-9
2986,117,-30,987,-15,2,-5
2987,19,-26,1008,-11,17,-2
2988,-103,7,994,-13,18,0
2989,-139,-2,983,-16,7,-4
2990,-81,-9,1001,-17,-13,-9
2991,32,-25,1006,-19,-19,-10
2992,129,-40,996,-14,-12,-10
2993,92,-30,1011,-14,7,-5
2994,-5,-21,1003,-12,19,-3
2995,-122,2,990,-13,17,-2
2996,-139,1,985,-16,3,-5
2997,-54,-8,995,-18,-15,-10
2998,60,-28,1000,-20,-18,-11
2999,131,-41,1017,-14,-8,-9
3000,75,-29,1004,-11,10,-5
3001,-37,-20,1001,-13,20,-1
3002,-132,2,991,-12,13,-2
3003,-130,4,973,-17,-3,-7
3004,-19,-15,1009,-19,-18,-11
3005,80,-31,1007,-19,-17,-10
3006,129,-45,1014,-17,-3,-7
3007,55,-32,994,-12,15,-3
3008,-77,-9,998,-11,20,-1
3009,-131,-1,979,-14,10,-5
3010,-127,5,998,-15,-7,-7
3011,19,-17,999,-20,-21,-11
3012,100,-35,1021,-18,-14,-9
3013,125,-41,990,-15,2,-5
3014,19,-29,1005,-11,16,-2
3015,-97,-5,990,-12,18,-1
3016,-145,4,993,-14,5,-3
3017,-86,-11,993,-17,-11,-8
3018,41,-25,1009,-19,-19,-10
3019,120,-44,996,-17,-11,-8
3020,96,-27,1009,-13,8,-4
3021,-1,-15,1006,-11,20,0
3022,-125,4,987,-12,18,0
3023,-128,-9,992,-18,1,-6
3024,-56,-10,992,-18,-14,-8
3025,59,-30,998,-20,-18,-10
3026,135,-41,1020,-15,-7,-7
3027,71,-28,995,-12,13,-2
3028,-36,-16,1006,-11,20,-1
3029,-132,1,990,-13,14,-3
3030,-128,1,973,-17,-2,-6
3031,-22,-12,1008,-19,-17,-11
3032,84,-33,1008,-19,-16,-10
3033,129,-41,1014,-17,-2,-8
3034,55,-30,997,-14,15,-2
3035,-69,-9,992,-11,21,-1
3036,-139,-1,988,-14,10,-4
3037,-113,0,988,-17,-6,-9
3038,9,-20,1005,-19,-19,-12
3039,100,-31,1017,-17,-15,-9
3040,123,-43,989,-15,-1,-6
3041,26,-24,1003,-13,8,-6
3042,-96,3,1000,-14,18,0
3043,-141,0,984,-15,7,-5
3044,-90,-7,998,-17,-11,-7
3045,30,-26,1003,-20,-18,-9
3046,121,-43,1003,-16,-11,-10
3047,100,-38,1001,-13,7,-3
3048,-1,-9,1006,-10,20,-1
3049,-113,-4,996,-14,18,-2
3050,-138,9,984,-16,4,-6
3051,-62,-18,991,-19,-14,-10
3052,57,-26,1006,-19,-18,-10
3053,125,-43,1011,-18,-7,-7
3054,85,-34,1001,-12,10,-5
3055,-32,-17,1006,-10,20,0
3056,-129,6,984,-12,13,-2
3057,-130,-3,982,-17,-2,-7
3058,-35,-12,1002,-17,-17,-10
3059,82,-29,1013,-19,-18,-10
3060,123,-42,1008,-16,-4,-6
3061,60,-27,1002,-13,14,-2
3062,-58,-14,993,-11,19,0
3063,-140,0,987,-11,11,-2
3064,-121,0,987,-18,-7,-7
3065,4,-8,1005,-18,-19,-10
3066,100,-43,1014,-20,-16,-9
3067,126,-43,995,-16,0,-6
3068,30,-33,1006,-13,17,-2
3069,-93,-4,988,-11,20,0
3070,-142,0,988,-13,8,-4
3071,-93,0,992,-16,-11,-9
3072,34,-18,1009,-21,-19,-10
3073,122,-40,1000,-17,-12,-9
3074,104,-30,1001,-13,5,-4
3075,-7,-23,1007,-13,19,-1
3076,-111,-3,993,-12,17,-1
3077,-144,0,987,-16,4,-5
3078,-57,-14,984,-18,-14,-10
3079,61,-21,1019,-17,-19,-11
3080,129,-39,1001,-17,-7,-7
3081,74,-29,1009,-13,11,-3
3082,-27,-14,1009,-12,19,-2
3083,-136,-6,978,-13,16,-1
3084,-126,0,979,-15,-2,-7
3085,-25,-14,1006,-19,-16,-10
3086,78,-29,1004,-20,-17,-9
3087,131,-43,1013,-15,-3,-8
3088,56,-30,1005,-12,13,-2
3089,-69,-10,983,-11,21,-1
3090,-133,0,999,-12,10,-4
3091,-129,1,980,-17,-5,-7
3092,9,-11,1004,-17,-19,-12
3093,103,-39,1019,-18,-16,-10
3094,116,-40,993,-16,1,-5
3095,32,-27,1001,-14,17,-2
3096,-97,-8,994,-12,19,-1
3097,-139,4,985,-12,7,-5
3098,-95,-5,997,-17,-10,-8
3099,32,-18,1009,-20,-18,-11
3100,127,-41,999,-18,-11,-9
3101,98,-32,1003,-14,6,-3
3102,3,-18,1009,-13,18,-2
3103,-126,-1,988,-13,17,0
3104,-136,2,990,-17,1,-6
3105,-58,-17,989,-20,-15,-9
3106,56,-28,1006,-18,-18,-9
3107,137,-43,1007,-17,-9,-8
3108,71,-30,1009,-13,11,-3
3109,-30,-19,997,-11,19,0
3110,-136,0,990,-12,15,-3
3111,-127,1,976,-15,-3,-7
3112,-29,-8,1006,-18,-17,-9
3113,87,-31,1007,-20,-19,-10
3114,124,-47,1013,-14,-2,-8
3115,64,-32,997,-12,13,-3
3116,-74,-13,995,-11,21,-1
3117,-137,10,985,-13,10,-3
3118,-115,-1,994,-18,-6,-8
3119,3,-2,1000,-20,-19,-11
3120,108,-46,1022,-21,-16,-9
3121,118,-36,989,-15,1,-6
3122,22,-30,1002,-13,16,-2
3123,-92,-1,995,-12,19,-3
3124,-143,1,986,-15,8,-3
3125,-88,-2,990,-16,-10,-10
3126,31,-23,1014,-20,-18,-9
3127,121,-41,998,-17,-11,-10
3128,100,-39,995,-15,5,-3
3129,1,-17,1014,-11,18,-2
3130,-114,1,987,-12,18,-2
3131,-136,0,990,-14,3,-6
3132,-65,-2,990,-17,-13,-8
3133,57,-27,1006,-19,-17,-11
3134,123,-39,1011,-17,-8,-7
3135,83,-33,1002,-14,9,-4
3136,-28,-19,1004,-12,20,0
3137,-126,-7,988,-13,15,-3
3138,-131,-4,970,-15,-1,-6
3139,-36,-7,1008,-18,-17,-10
3140,80,-27,1005,-19,-17,-11
3141,125,-35,1018,-15,-4,-7
3142,69,-29,997,-15,13,-3
3143,-67,-12,992,-11,22,0
3144,-135,-1,983,-12,12,-4
3145,-125,-1,988,-17,-5,-9
3146,1,-14,1008,-18,-20,-12
3147,108,-34,1013,-18,-17,-9
3148,122,-38,999,-17,1,-5
3149,32,-25,1000,-12,16,-2
3150,-102,-8,996,-13,21,-1
3151,-137,0,988,-14,7,-6
3152,-103,-14,989,-18,-10,-8
3153,30,-20,1010,-18,-20,-10
3154,127,-43,1002,-16,-13,-9
3155,98,-29,1001,-13,7,-3
3156,-1,-21,1010,-12,18,0
3157,-115,-2,989,-12,17,-2
3158,-146,1,987,-16,2,-4
3159,-56,-11,987,-19,-16,-10
3160,54,-26,1012,-18,-19,-8
3161,129,-40,1000,-19,-8,-6
3162,80,-33,1011,-12,10,-3
3163,-26,-18,1001,-12,20,0
3164,-133,-5,986,-12,16,-2
3165,-130,5,977,-14,-2,-6
3166,-30,-14,1001,-18,-17,-9
3167,77,-27,1009,-18,-17,-9
3168,131,-42,1012,-15,-5,-8
3169,62,-26,1004,-13,12,-4
3170,-63,-8,986,-12,21,-1
3171,-140,2,991,-14,11,-4
3172,-115,2,989,-17,-6,-7
3173,-6,-12,1000,-19,-17,-10
3174,113,-39,1015,-21,-16,-11
3175,118,-49,1007,-16,0,-5
3176,36,-27,987,-11,16,-3
3177,-101,-3,1001,-12,21,-1
3178,-128,2,989,-15,6,-5
3179,-108,-1,991,-17,-8,-6
3180,36,-21,1004,-20,-20,-11
3181,113,-37,1015,-17,-13,-8
3182,105,-35,988,-16,5,-4
3183,0,-21,1018,-14,19,-1
3184,-114,-8,985,-14,17,-1
3185,-141,1,993,-14,4,-6
3186,-61,-9,984,-18,-15,-10
3187,52,-19,1009,-15,-18,-11
3188,136,-36,1009,-18,-10,-8
3189,77,-32,1004,-14,11,-3
3190,-27,-20,1003,-12,21,-1
3191,-136,-9,986,-15,15,-2
3192,-130,2,971,-13,-1,-6
3193,-31,-16,1010,-17,-17,-9
3194,85,-19,1004,-18,-18,-9
3195,122,-42,1019,-16,-3,-6
3196,66,-29,995,-14,13,-4
3197,-72,-14,994,-12,21,0
3198,-136,0,982,-13,9,-5
3199,-130,1,991,-17,-5,-8
3200,12,-14,1004,-20,-20,-11
3201,99,-43,1014,-19,-14,-8
3202,123,-38,998,-14,0,-6
3203,25,-30,999,-10,17,-2
3204,-94,2,998,-9,20,-2
3205,-142,3,991,-14,7,-3
3206,-89,-5,990,-18,-11,-8
3207,27,-18,1013,-19,-19,-10
3208,129,-43,994,-17,-14,-11
3209,95,-40,1010,-15,5,-4
3210,0,-15,1001,-12,17,-1
3211,-118,-5,999,-12,17,-3
3212,-139,3,979,-15,2,-5
3213,-58,-12,993,-16,-13,-9
3214,58,-25,1007,-19,-19,-10
3215,128,-39,1012,-18,-7,-8
3216,81,-36,998,-14,11,-3
3217,-38,-17,1012,-11,20,1
3218,-122,-7,976,-12,14,-4
3219,-139,2,982,-13,0,-6
3220,-22,-10,1004,-19,-18,-10
3221,79,-27,1009,-18,-17,-9
3222,130,-38,1013,-16,-3,-6
3223,59,-31,998,-13,14,-3
3224,-69,-15,989,-11,20,0
3225,-137,4,984,-14,10,-3
3226,-118,-8,992,-17,-5,-9
3227,3,-10,1006,-17,-19,-8
3228,103,-36,1008,-19,-14,-9
3229,118,-41,1006,-15,2,-6
3230,27,-24,1002,-12,17,-1
3231,-97,-2,991,-13,19,-1
3232,-141,0,996,-15,6,-5
3233,-91,-8,986,-19,-11,-9
3234,32,-24,1012,-18,-19,-10
3235,126,-43,1003,-17,-13,-8
3236,92,-31,1002,-14,7,-4
3237,3,-24,1005,-13,18,-2
3238,-115,1,998,-12,18,-1
3239,-141,-2,981,-15,2,-3
3240,-60,-6,989,-17,-15,-9
3241,60,-28,1015,-19,-19,-11
3242,125,-33,1004,-17,-8,-8
3243,84,-30,1004,-15,9,-5
3244,-33,-20,1009,-12,21,0
3245,-134,-2,974,-14,15,-1
3246,-130,-4,987,-16,-2,-8
3247,-28,-6,1002,-18,-16,-8
3248,78,-25,1008,-20,-16,-9
3249,133,-46,1015,-16,-2,-7
3250,55,-32,998,-14,13,-1
3251,-71,-16,987,-11,20,0
3252,-132,4,993,-12,10,-2
3253,-118,-2,983,-19,-6,-7
3254,6,-8,1009,-17,-20,-9
3255,106,-34,1012,-19,-16,-8
3256,112,-44,994,-16,3,-5
3257,33,-32,1005,-11,16,-2
3258,-102,-4,997,-11,21,0
3259,-131,2,985,-15,7,-6
3260,-95,-4,1004,-16,-10,-8
3261,36,-17,993,-19,-19,-11
3262,115,-40,1008,-17,-11,-8
3263,99,-31,1003,-15,6,-4
3264,-3,-19,1007,-14,19,-2
3265,-108,-11,986,-13,18,-3
3266,-147,3,998,-14,3,-5
3267,-52,-15,975,-20,-15,-11
3268,50,-23,1016,-16,-17,-11
3269,128,-32,1004,-18,-9,-8
3270,77,-29,1011,-14,10,-4
3271,-24,-20,996,-13,19,-1
3272,-137,-1,993,-14,16,-2
3273,-128,-9,968,-17,-2,-7
3274,-32,-10,1010,-18,-17,-9
3275,86,-36,1004,-20,-17,-10
3276,125,-36,1015,-14,-3,-7
3277,57,-22,998,-14,12,-3
3278,-71,-13,986,-13,20,-1
3279,-139,2,997,-11,10,-4
3280,-117,0,981,-18,-6,-7
3281,6,-17,1015,-19,-19,-10
3282,107,-39,1005,-19,-15,-9
3283,116,-36,1001,-16,2,-6
3284,29,-27,996,-13,16,-3
3285,-101,-1,1005,-12,20,0
3286,-134,-2,978,-14,7,-5
3287,-95,-3,1003,-16,-10,-9
3288,41,-27,998,-21,-20,-11
3289,118,-34,1006,-17,-11,-7
3290,101,-38,1003,-16,5,-6
3291,-4,-18,1007,-12,19,-2
3292,-116,-6,988,-12,16,-3
3293,-135,2,987,-14,2,-6
3294,-56,-9,991,-16,-14,-10
3295,62,-26,1009,-20,-18,-11
3296,129,-38,1008,-18,-6,-7
3297,74,-29,1004,-15,11,-2
3298,-41,-28,1006,-13,21,-1
3299,-128,1,978,-12,15,-3
3300,-133,0,979,-15,-2,-6
3301,-18,-11,1008,-17,-18,-11
3302,83,-30,1011,-20,-17,-9
3303,124,-45,1007,-16,-1,-8
3304,57,-26,1000,-13,14,-3
3305,-77,-14,994,-12,21,0
3306,-135,2,982,-14,11,-3
3307,-117,-4,998,-16,-6,-8
3308,10,-11,1003,-18,-20,-10
3309,106,-40,1012,-20,-14,-9
3310,119,-37,997,-14,1,-5
3311,19,-23,1007,-12,16,-2
3312,-105,-3,990,-13,20,-2
3313,-142,0,996,-13,5,-5
3314,-85,-6,986,-19,-12,-8
3315,33,-23,1009,-19,-19,-11
3316,128,-40,1000,-17,-13,-10
3317,96,-41,1007,-14,7,-4
3318,0,-18,1005,-11,19,-2
3319,-122,0,992,-12,17,-2
3320,-138,0,983,-15,2,-6
3321,-52,-3,987,-18,-15,-8
3322,58,-30,1008,-22,-19,-10
3323,128,-36,1010,-17,-8,-8
3324,75,-33,1003,-14,10,-4
3325,-37,-20,1002,-12,20,-1
3326,-130,0,984,-14,13,-3
3327,-127,-7,978,-16,-3,-8
3328,-27,-2,1009,-17,-16,-10
3329,89,-31,1008,-20,-16,-10
3330,121,-42,1013,-17,-1,-6
3331,58,-34,995,-14,14,-2
3332,-75,-10,993,-9,20,-1
3333,-134,1,988,-15,9,-4
3334,-113,-1,994,-17,-7,-8
3335,15,-18,1005,-19,-18,-11
3336,108,-35,1010,-17,-14,-10
3337,116,-39,996,-15,4,-6
3338,16,-24,1002,-13,18,-2
3339,-106,-2,999,-13,19,0
3340,-136,-1,982,-15,6,-6
3341,-86,-13,1000,-17,-11,-9
3342,40,-18,999,-18,-20,-9
3343,121,-37,1007,-18,-10,-8
3344,94,-36,1003,-14,7,-2
3345,-12,-15,1003,-13,20,-2
3346,-119,-4,993,-14,17,-1
3347,-137,-3,979,-15,2,-6
3348,-51,-11,994,-17,-16,-9
3349,56,-27,1007,-18,-19,-10
3350,132,-34,1004,-18,-8,-8
3351,75,-32,1012,-11,11,-2
3352,-44,-10,994,-12,19,1
3353,-131,-8,989,-14,14,-3
3354,-126,2,972,-15,-4,-6
3355,-26,-10,1010,-20,-17,-9
3356,93,-28,1008,-17,-18,-11
3357,118,-42,1017,-16,-1,-6
3358,55,-31,988,-13,13,-2
3359,-78,-13,1003,-10,19,0
3360,-131,4,981,-13,10,-3
3361,-115,-3,995,-18,-7,-6
3362,10,-12,1006,-19,-20,-10
3363,109,-34,1011,-19,-15,-10
3364,110,-45,995,-14,4,-5
3365,24,-21,1002,-10,17,0
3366,-103,-5,996,-12,18,0
3367,-137,2,987,-13,5,-5
3368,-86,-2,994,-18,-11,-8
3369,41,-18,1006,-19,-19,-10
3370,121,-40,1000,-17,-11,-8
3371,94,-34,1003,-15,7,-4
3372,-8,-23,1011,-12,19,-1
3373,-121,-11,986,-14,17,-2
3374,-135,0,985,-11,1,-6
3375,-55,-11,991,-7,-14,-9
3376,62,-19,1006,-19,-17,-9
3377,123,-37,1009,-18,-5,-8
3378,75,-29,1010,-14,11,-3
3379,-35,-21,995,-12,20,-1
3380,-130,1,988,-10,14,-2
3381,-126,-2,981,-15,-3,-6
3382,-21,-11,1004,-20,-18,-12
3383,84,-31,1013,-18,-17,-10
3384,126,-37,1013,-15,-2,-7
3385,51,-28,996,-14,15,-3
3386,-70,-11,990,-12,21,-1
3387,-138,-3,996,-14,10,-4
3388,-112,-4,980,-18,-7,-8
3389,8,-17,1020,-18,-18,-10
3390,115,-42,1003,-18,-14,-10
3391,111,-35,1001,-14,3,-5
3392,22,-24,997,-10,16,-1
3393,-103,-1,1003,-11,19,-1
3394,-140,0,981,-16,7,-3
3395,-84,-10,998,-17,-12,-8
3396,43,-26,1003,-19,-21,-9
3397,119,-37,1002,-16,-12,-8
3398,99,-34,1005,-14,6,-4
3399,-14,-20,1012,-10,18,0
3400,-118,-4,976,-12,16,-1
3401,-143,-1,1000,-15,1,-5
3402,-41,-5,979,-17,-17,-8
3403,55,-28,1016,-20,-17,-10
3404,140,-37,1004,-18,-9,-6
3405,66,-32,1007,-13,11,-3
3406,-38,-18,1000,-12,19,-1
3407,-132,0,980,-11,13,-1
3408,-131,-2,987,-15,-3,-6
3409,-16,-6,996,-19,-18,-9
3410,93,-31,1018,-18,-18,-11
3411,119,-38,1006,-15,-1,-6
3412,55,-26,1001,-13,15,-3
3413,-76,-15,986,-12,21,0
3414,-139,5,992,-16,9,-3
3415,-109,-9,989,-18,-7,-7
3416,6,-16,1012,-18,-18,-8
3417,116,-42,1009,-19,-17,-10
3418,115,-43,997,-14,2,-5
3419,14,-24,1003,-11,17,-1
3420,-99,-3,991,-13,19,-1
3421,-142,6,995,-13,7,-3
3422,-82,-4,989,-20,-12,-7
3423,39,-20,1007,-20,-19,-11
3424,123,-45,1001,-19,-12,-9
3425,94,-30,1006,-15,7,-5
3426,-7,-26,1003,-13,18,-1
3427,-126,0,993,-11,16,-1
3428,-130,-3,982,-16,1,-6
3429,-52,-6,993,-17,-14,-9
3430,60,-27,1008,-18,-20,-9
3431,132,-39,1007,-16,-8,-9
3432,71,-29,1003,-15,11,-4
3433,-39,-18,1006,-13,19,-3
3434,-130,-11,981,-14,12,-3
3435,-129,8,982,-14,-2,-6
3436,-19,-15,1002,-20,-19,-11
3437,85,-28,1019,-16,-16,-13
3438,131,-39,1005,-16,-2,-5
3439,51,-28,996,-13,15,-3
3440,-79,-12,993,-11,20,0
3441,-135,3,987,-15,10,-4
3442,-119,-3,993,-18,-7,-7
3443,16,-16,1011,-17,-20,-11
3444,114,-43,1002,-20,-14,-11
3445,116,-46,999,-14,3,-5
3446,17,-19,1003,-11,17,-2
3447,-102,-6,994,-13,19,-1
3448,-141,6,989,-13,6,-4
3449,-79,-10,990,-19,-13,-9
3450,41,-24,1007,-17,-19,-9
3451,124,-40,1000,-17,-11,-9
3452,91,-33,1007,-14,8,-4
3453,-11,-20,1004,-11,21,0
3454,-125,0,990,-12,16,-2
3455,-133,-3,984,-16,1,-6
3456,-54,-5,992,-18,-14,-7
3457,68,-29,1003,-21,-18,-10
3458,125,-38,1015,-16,-6,-7
3459,73,-34,1001,-13,10,-4
3460,-43,-13,1004,-11,21,-2
3461,-131,-4,978,-13,13,-2
3462,-125,2,982,-16,-2,-6
3463,-17,-10,1007,-20,-17,-10
3464,87,-29,1010,-19,-15,-10
3465,125,-48,1017,-16,-2,-6
3466,48,-27,986,-12,15,-3
3467,-80,-12,999,-11,19,-1
3468,-130,5,988,-13,8,-5
3469,-118,-1,990,-17,-6,-7
3470,28,-12,1013,-18,-20,-11
3471,109,-41,1007,-20,-13,-10
3472,113,-36,996,-14,4,-5
3473,10,-23,1004,-12,17,-1
3474,-108,-7,992,-14,18,-1
3475,-136,-3,989,-15,4,-4
3476,-75,-7,998,-17,-12,-8
3477,49,-34,1000,-16,-18,-11
3478,122,-36,1004,-15,-9,-8
3479,87,-28,1007,-15,8,-3
3480,-18,-11,1004,-11,20,-2
3481,-121,-1,988,-14,17,-2
3482,-134,0,987,-17,0,-6
3483,-36,-15,989,-19,-17,-10
3484,64,-30,1016,-20,-17,-10
3485,129,-42,999,-16,-5,-8
3486,63,-26,1010,-13,14,-2
3487,-46,-19,1000,-12,19,0
3488,-133,1,983,-11,13,-3
3489,-125,-3,985,-16,-5,-6
3490,-10,-11,1001,-19,-17,-9
3491,95,-41,1018,-18,-16,-11
3492,120,-42,1005,-14,-1,-5
3493,47,-31,999,-11,15,-4
3494,-83,-4,989,-9,20,-1
3495,-137,4,990,-14,8,-3
3496,-111,1,994,-16,-9,-7
3497,22,-12,1009,-20,-20,-10
3498,114,-42,1010,-19,-13,-8
3499,114,-39,994,-15,2,-4
3500,8,-27,1005,-11,18,-1
3501,-109,-4,990,-12,19,-3
3502,-142,-1,987,-13,5,-5
3503,-74,-5,1003,-18,-11,-9
3504,49,-19,991,-20,-18,-8
3505,125,-36,1013,-19,-9,-8
3506,89,-36,999,-17,8,-2
3507,-16,-19,1012,-12,19,-2
3508,-125,-6,982,-13,16,-2
3509,-135,0,988,-15,1,-7
3510,-40,-11,990,-17,-17,-10
3511,61,-23,1010,-19,-17,-11
3512,131,-44,1007,-17,-6,-7
3513,68,-25,1004,-13,13,-4
3514,-48,-23,999,-12,20,-2
3515,-136,0,981,-11,12,-3
3516,-130,0,985,-15,-4,-7
3517,-7,-13,1003,-19,-20,-12
3518,90,-32,1015,-19,-16,-10
3519,131,-45,1013,-16,-2,-6
3520,40,-29,986,-13,16,0
3521,-81,-8,1001,-10,20,-1
3522,-139,5,985,-12,7,-4
3523,-112,-4,990,-18,-9,-8
3524,26,-20,1015,-19,-20,-10
3525,112,-36,1003,-17,-14,-8
3526,117,-35,995,-14,3,-4
3527,9,-20,1010,-11,18,-1
3528,-111,-5,987,-14,19,0
3529,-137,0,996,-14,4,-6
3530,-80,-13,993,-19,-14,-7
3531,53,-23,996,-18,-20,-11
3532,122,-40,1015,-17,-10,-9
3533,93,-27,996,-15,8,-3
3534,-15,-20,1010,-13,21,-1
3535,-125,0,985,-14,17,-3
3536,-134,0,982,-17,0,-5
3537,-45,-12,995,-18,-17,-10
3538,66,-34,1004,-20,-18,-10
3539,133,-39,1014,-15,-7,-8
3540,67,-37,999,-13,12,-2
3541,-46,-14,1003,-10,21,-1
3542,-136,-2,985,-12,13,-3
3543,-127,8,976,-15,-5,-7
3544,-10,-13,1011,-18,-19,-11
3545,98,-32,1012,-20,-15,-9
3546,121,-43,1005,-16,1,-4
3547,45,-33,995,-13,14,-3
3548,-89,-12,996,-11,20,0
3549,-134,7,987,-14,9,-4
3550,-110,-6,989,-19,-8,-7
3551,19,-13,1014,-18,-19,-10
3552,117,-41,1005,-18,-14,-9
3553,115,-36,999,-12,5,-4
3554,9,-22,1003,-12,18,0
3555,-105,-2,991,-14,19,-1
3556,-138,3,995,-13,5,-4
3557,-75,-4,989,-19,-12,-8
3558,49,-24,999,-19,-18,-10
3559,126,-36,1015,-18,-9,-8
3560,90,-33,998,-18,9,-4
3561,-23,-20,1006,-12,20,-1
3562,-120,-7,995,-13,16,-3
3563,-135,0,975,-16,1,-7
3564,-39,-4,992,-16,-16,-10
3565,67,-24,1021,-20,-18,-11
3566,127,-37,1000,-19,-6,-6
3567,65,-33,1009,-15,13,-3
3568,-47,-23,997,-13,19,-2
3569,-139,-3,981,-12,12,-3
3570,-118,3,983,-16,-6,-8
3571,-10,-7,1010,-18,-18,-11
3572,93,-32,1012,-20,-16,-9
3573,123,-49,1006,-16,-1,-5
3574,42,-30,998,-12,15,-2
3575,-87,-7,988,-11,20,-1
3576,-128,0,992,-14,8,-5
3577,-115,5,994,-18,-7,-7
3578,28,-21,1007,-20,-20,-11
3579,110,-45,1009,-19,-13,-10
3580,109,-41,991,-13,4,-6
3581,12,-23,1010,-12,18,-1
3582,-108,-2,993,-11,18,0
3583,-138,4,988,-16,4,-3
3584,-71,-6,1000,-18,-13,-9
3585,49,-21,999,-18,-20,-9
3586,122,-38,1008,-17,-9,-7
3587,87,-33,1004,-15,8,-3
3588,-17,-23,1005,-12,18,-1
3589,-119,-1,982,-13,15,-1
3590,-136,1,988,-15,0,-6
3591,-30,-10,991,-17,-17,-11
3592,65,-23,1015,-19,-18,-10
3593,132,-36,1003,-18,-6,-9
3594,61,-29,1012,-15,14,-3
3595,-52,-18,991,-13,19,-1
3596,-135,-2,989,-14,12,-4
3597,-121,-3,981,-17,-5,-8
3598,-6,-13,1007,-18,-19,-10
3599,95,-38,1014,-17,-15,-9
3600,125,-40,1008,-15,0,-6
3601,34,-29,996,-13,17,-2
3602,-86,-2,989,-11,19,0
3603,-140,0,990,-14,9,-3
3604,-99,5,990,-16,-8,-9
3605,28,-21,1016,-20,-19,-11
3606,119,-39,1001,-18,-11,-10
3607,107,-38,1004,-15,5,-4
3608,7,-24,1001,-11,18,-2
3609,-118,0,997,-11,18,-1
3610,-133,3,988,-14,3,-5
3611,-70,-1,999,-19,-13,-8
3612,55,-26,992,-19,-19,-11
3613,120,-37,1014,-17,-8,-7
3614,88,-43,998,-13,9,-4
3615,-31,-16,1007,-11,20,-1
3616,-115,-14,984,-14,14,-2
3617,-136,1,990,-14,1,-6
3618,-35,-6,981,-17,-18,-9
3619,68,-20,1018,-18,-17,-11
3620,135,-33,1011,-17,-5,-7
3621,62,-30,1000,-14,13,-1
3622,-48,-19,996,-15,20,-1
3623,-143,-4,987,-13,12,-3
3624,-121,-2,980,-19,-5,-8
3625,-13,-13,1006,-19,-18,-11
3626,105,-29,1014,-18,-17,-10
3627,118,-46,1010,-15,1,-5
3628,40,-20,985,-12,14,-2
3629,-86,-15,1004,-9,20,0
3630,-140,7,984,-13,8,-4
3631,-108,-6,991,-18,-9,-8
3632,29,-14,1014,-19,-21,-10
3633,111,-40,1004,-19,-13,-8
3634,113,-40,993,-14,3,-5
3635,4,-25,1013,-12,17,-1
3636,-107,2,983,-12,19,-1
3637,-139,-2,994,-15,4,-5
3638,-69,-6,992,-17,-13,-9
3639,46,-24,1001,-18,-20,-10
3640,130,-37,1015,-17,-11,-8
3641,82,-24,996,-15,9,-3
3642,-19,-21,1013,-14,20,-1
3643,-125,-6,984,-14,15,-2
3644,-136,-2,978,-16,0,-7
3645,-30,-14,997,-17,-18,-10
3646,65,-19,1013,-18,-15,-10
3647,136,-40,1005,-16,-4,-8
3648,70,-26,1006,-14,14,-3
3649,-63,-12,998,-12,20,-1
3650,-132,2,978,-15,10,-5
3651,-127,-3,996,-19,-4,-8
3652,0,-15,997,-19,-18,-11
3653,97,-36,1025,-19,-14,-11
3654,125,-51,996,-16,1,-5
3655,34,-27,1002,-10,17,-2
3656,-85,-7,985,-12,20,-1
3657,-143,9,1000,-14,7,-5
3658,-91,-3,982,-17,-9,-8
3659,20,-12,1024,-20,-18,-10
3660,126,-47,989,-20,-12,-10
3661,100,-39,1007,-15,6,-4
3662,7,-18,1002,-14,18,-1
3663,-117,-7,993,-14,19,-2
3664,-135,3,989,-12,4,-5
3665,-68,-7,993,-18,-14,-10
3666,53,-19,1000,-18,-20,-10
3667,124,-42,1005,-19,-9,-8
3668,82,-30,1011,-15,9,-4
3669,-19,-24,997,-13,21,0
3670,-131,-2,992,-13,15,-2
3671,-127,-1,974,-17,-2,-5
3672,-41,-7,997,-17,-16,-9
3673,79,-28,1013,-21,-19,-10
3674,125,-34,1011,-15,-4,-8
3675,64,-30,1000,-14,14,-4
3676,-60,-14,999,-11,19,-2
3677,-133,-5,980,-14,11,-3
3678,-125,0,988,-17,-5,-7
3679,1,-13,1006,-20,-20,-10
3680,99,-39,1012,-19,-15,-10
3681,118,-39,1002,-15,1,-5
3682,31,-28,1003,-11,15,-1
3683,-90,-8,985,-10,18,0
3684,-139,2,996,-14,7,-5
3685,-91,-3,990,-16,-11,-9
3686,27,-13,1015,-19,-17,-10
3687,123,-41,991,-18,-12,-9
3688,91,-36,1013,-15,7,-4
3689,4,-29,997,-14,18,-2
3690,-118,-5,996,-11,17,-2
3691,-126,0,988,-14,1,-7
3692,-68,-10,992,-19,-13,-9
3693,57,-23,1001,-18,-19,-11
3694,121,-39,1012,-18,-9,-7
3695,77,-35,998,-14,9,-3
3696,-30,-16,1013,-10,20,-1
3697,-124,-8,982,-14,15,-2
3698,-133,1,981,-13,-2,-4
3699,-29,-5,996,-18,-18,-11
3700,68,-30,1015,-20,-17,-10
3701,138,-36,1007,-16,-4,-8
3702,58,-35,1000,-14,14,-2
3703,-60,-9,997,-12,19,-1
3704,-131,-5,981,-13,10,-3
3705,-125,5,988,-16,-4,-7
3706,3,-12,1005,-18,-19,-10
3707,104,-35,1017,-18,-15,-11
3708,120,-45,1001,-16,1,-5
3709,29,-22,1000,-13,15,-3
3710,-90,-6,991,-21,28,4
3711,-142,2,986,-16,7,-3
3712,-91,-1,995,-19,-11,-7
3713,32,-25,1011,-19,-19,-9
3714,120,-36,1001,-19,-12,-9
3715,97,-44,1003,-14,6,-5
3716,0,-17,1006,-11,17,-2
3717,-114,0,990,-13,17,0
3718,-138,0,991,-15,3,-4
3719,-57,-14,992,-19,-15,-9
3720,56,-26,999,-18,-18,-10
3721,126,-36,1013,-17,-7,-8
3722,79,-39,1000,-14,10,-3
3723,-32,-12,1006,-9,20,-1
3724,-125,-8,986,-15,14,-2
3725,-126,6,980,-16,-2,-6
3726,-27,-16,999,-18,-17,-9
3727,75,-22,1015,-18,-17,-9
3728,131,-47,1011,-15,-4,-7
3729,57,-28,1000,-12,13,-2
3730,-68,-20,997,-13,21,1
3731,-128,3,982,-11,11,-3
3732,-125,4,989,-19,-6,-6
3733,6,-2,1010,-19,-19,-11
3734,104,-39,1014,-21,-14,-9
3735,120,-41,1002,-17,0,-6
3736,32,-26,993,-13,17,-2
3737,-99,-7,997,-13,21,-2
3738,-138,3,980,-14,6,-5
3739,-100,-4,1001,-18,-11,-8
3740,40,-19,1007,-18,-19,-10
3741,114,-40,998,-18,-10,-8
3742,111,-36,1003,-15,6,-6
3743,-9,-21,1012,-12,21,-2
3744,-119,-1,983,-11,17,-1
3745,-137,4,996,-15,2,-6
3746,-59,-9,988,-20,-15,-9
3747,57,-25,1005,-19,-19,-11
3748,133,-41,1010,-20,-8,-8
3749,61,-38,1006,-14,11,-2
3750,-24,-22,996,-12,18,-2
3751,-134,-4,996,-12,15,-3
3752,-122,6,969,-15,-3,-5
3753,-24,-9,1005,-18,-16,-10
3754,75,-27,1013,-18,-16,-10
3755,129,-39,1000,-16,-3,-7
3756,54,-33,1011,-13,14,-3
3757,-71,-10,984,-12,20,0
3758,-131,3,993,-13,10,-5
3759,-121,-1,985,-20,-8,-7
3760,5,-11,1010,-18,-19,-12
3761,108,-43,1009,-20,-16,-9
3762,113,-37,1007,-13,1,-6
3763,31,-38,990,-13,16,-2
3764,-104,-1,997,-11,18,-3
3765,-137,3,990,-13,6,-4
3766,-85,-1,995,-16,-12,-10
3767,32,-12,1008,-21,-20,-9
3768,122,-45,1004,-18,-10,-9
3769,98,-36,997,-15,7,-3
3770,-9,-26,1009,-13,18,-1
3771,-115,-3,985,-12,17,-2
3772,-135,4,999,-15,2,-5
3773,-55,-9,979,-18,-14,-10
3774,54,-20,1012,-18,-19,-10
3775,130,-41,1006,-18,-9,-8
3776,72,-32,1001,-14,12,-2
3777,-35,-18,1009,-12,20,0
3778,-123,-11,978,-13,15,-3
3779,-133,7,981,-14,-2,-6
3780,-24,-12,999,-19,-19,-9
3781,80,-30,1015,-19,-17,-10
3782,126,-33,1008,-17,-3,-6
3783,57,-35,1005,-13,14,-2
3784,-64,-15,987,-11,20,-1
3785,-143,-2,986,-13,10,-2
3786,-114,0,984,-17,-6,-8
3787,4,-7,1016,-20,-20,-9
3788,108,-35,1004,-20,-14,-11
3789,125,-42,1012,-15,4,-6
3790,26,-30,994,-12,17,0
3791,-106,-3,991,-12,20,-1
3792,-136,-7,990,-16,6,-5
3793,-92,1,996,-18,-10,-8
3794,35,-20,1009,-20,-18,-10
3795,126,-34,1006,-18,-12,-9
3796,95,-41,999,-16,7,-3
3797,3,-20,1001,-12,18,-2
3798,-123,-3,1001,-12,17,-1
3799,-134,-1,978,-14,2,-6
3800,-61,-4,996,-18,-14,-9
3801,62,-26,1005,-20,-20,-11
3802,127,-33,1009,-18,-6,-9
3803,77,-35,1008,-16,10,-5
3804,-33,-17,1000,-13,19,1
3805,-134,-9,987,-14,15,-3
3806,-123,-1,976,-15,-2,-8
3807,-21,-9,1004,-18,-17,-11
3808,78,-31,1009,-20,-16,-9
3809,125,-39,1014,-16,-3,-7
3810,56,-34,998,-14,12,-1
3811,-77,-15,994,-11,20,-2
3812,-127,-3,980,-12,9,-6
3813,-117,3,1002,-15,-5,-8
3814,10,-10,989,-18,-17,-10
3815,101,-35,1032,-18,-14,-9
3816,116,-44,986,-16,1,-5
3817,18,-28,1003,-12,17,-1
3818,-85,-12,991,-12,17,-3
3819,-136,5,989,-14,7,-4
3820,-83,-2,993,-17,-10,-9
3821,32,-19,1012,-19,-19,-10
3822,110,-36,999,-17,-10,-8
3823,94,-38,996,-15,6,-4
3824,-4,-23,1017,-12,17,0
3825,-113,-1,983,-12,17,-3
3826,-127,0,993,-15,3,-7
3827,-58,-3,990,-18,-14,-10
3828,51,-23,1005,-19,-16,-10
3829,127,-33,1010,-16,-8,-9
3830,67,-38,1000,-16,10,-3
3831,-28,-14,1014,-11,18,-2
3832,-124,-12,977,-14,14,-4
3833,-123,6,983,-14,0,-8
3834,-26,-11,1001,-18,-15,-9
3835,74,-26,1010,-20,-15,-10
3836,120,-42,1007,-18,-4,-8
3837,59,-34,1005,-12,12,-4
3838,-65,-20,986,-12,19,-1
3839,-134,3,985,-11,11,-5
3840,-108,1,994,-19,-7,-9
3841,3,-16,1003,-18,-17,-9
3842,95,-33,1017,-19,-13,-9
3843,114,-45,1000,-17,1,-6
3844,29,-30,1002,-11,16,-3
3845,-95,-4,987,-13,18,-2
3846,-135,8,996,-15,7,-6
3847,-86,-2,988,-17,-11,-9
3848,26,-14,1013,-20,-18,-10
3849,120,-48,997,-21,-13,-10
3850,95,-38,1004,-14,5,-5
3851,-1,-29,1005,-13,17,0
3852,-118,-3,991,-11,18,-2
3853,-126,-6,989,-15,3,-7
3854,-61,0,989,-16,-13,-9
3855,51,-23,1004,-20,-17,-10
3856,123,-33,1012,-17,-7,-8
3857,69,-30,1000,-18,10,-3
3858,-23,-21,1005,-12,18,-3
3859,-125,-16,984,-15,15,-3
3860,-125,2,979,-14,-2,-7
3861,-23,-11,1000,-18,-16,-10
3862,68,-22,1014,-18,-17,-10
3863,121,-37,1006,-17,-3,-7
3864,61,-31,1011,-14,12,-4
3865,-67,-14,980,-14,20,-1
3866,-128,-4,992,-14,10,-5
3867,-114,-4,984,-17,-6,-8
3868,0,-10,1009,-18,-18,-10
3869,103,-38,1007,-21,-15,-11
3870,109,-39,1011,-15,2,-5
3871,32,-28,989,-13,15,-3
3872,-96,-6,1002,-12,18,-2
3873,-123,1,982,-14,5,-4
3874,-94,-2,999,-16,-9,-8
3875,33,-26,1005,-20,-18,-9
3876,113,-37,1007,-18,-11,-8
3877,89,-37,997,-13,6,-5
3878,-1,-18,1008,-13,17,0
3879,-113,-7,993,-11,16,-1
3880,-126,0,985,-14,2,-4
3881,-62,-13,993,-18,-12,-8
3882,64,-21,1004,-17,-17,-10
3883,119,-33,1013,-17,-7,-7
3884,76,-23,994,-14,11,-5
3885,-35,-19,1018,-12,21,-1
3886,-121,-7,973,-17,14,-3
3887,-132,-2,984,-16,-1,-6
3888,-21,-16,1000,-18,-18,-11
3889,80,-21,1011,-18,-17,-11
3890,119,-39,1012,-17,-3,-6
3891,63,-30,1003,-14,13,-4
3892,-68,-13,988,-13,21,0
3893,-139,1,985,-13,10,-2
3894,-109,-1,995,-18,-8,-7
3895,3,-13,1003,-17,-17,-10
3896,103,-34,1015,-19,-14,-9
3897,120,-45,1004,-17,1,-6
3898,25,-20,994,-10,16,-2
3899,-100,-6,996,-13,20,0
3900,-137,3,987,-14,7,-5
3901,-92,-12,993,-17,-9,-8
3902,38,-17,1007,-17,-20,-11
3903,120,-42,1005,-17,-11,-8
3904,101,-31,999,-13,6,-4
3905,-4,-23,1009,-13,19,0
3906,-117,-2,987,-12,18,-2
3907,-138,0,989,-14,2,-5
3908,-57,-9,989,-17,-15,-10
3909,60,-20,1003,-18,-19,-10
3910,128,-36,1018,-17,-9,-7
3911,78,-29,1001,-14,11,-3
3912,-39,-27,1005,-11,21,0
3913,-127,-5,982,-13,14,-2
3914,-132,-1,982,-15,-1,-6
3915,-22,-11,997,-16,-17,-10
3916,78,-19,1011,-19,-15,-10
3917,123,-41,1015,-16,-3,-6
3918,59,-29,999,-13,13,-2
3919,-72,-16,992,-14,20,-1
3920,-132,-6,989,-13,11,-4
3921,-119,0,988,-16,-5,-8
3922,8,-14,1003,-18,-19,-11
3923,106,-35,1020,-18,-15,-10
3924,114,-39,998,-15,2,-5
3925,22,-23,995,-13,17,-1
3926,-98,-1,1000,-13,20,0
3927,-136,-1,981,-17,8,-4
3928,-89,-6,998,-17,-9,-9
3929,39,-21,1008,-20,-20,-10
3930,121,-39,1006,-17,-11,-9
3931,97,-36,993,-13,7,-6
3932,-4,-14,1018,-13,20,-2
3933,-114,-5,985,-12,17,-1
3934,-140,0,989,-14,3,-5
3935,-51,-8,988,-19,-14,-9
3936,59,-21,1006,-19,-18,-11
3937,129,-41,1006,-19,-8,-8
3938,67,-37,1009,-15,11,-4
3939,-29,-20,998,-13,20,-2
3940,-130,-7,988,-11,15,-4
3941,-124,4,972,-14,-4,-7
3942,-17,-9,1010,-18,-17,-11
3943,73,-27,1004,-20,-15,-10
3944,123,-34,1015,-17,-2,-6
3945,59,-43,1000,-14,14,-2
3946,-78,-12,988,-11,22,0
3947,-127,-8,983,-13,10,-5
3948,-117,7,998,-13,-5,-7
3949,11,-14,1000,-18,-18,-11
3950,99,-32,1018,-18,-14,-9
3951,115,-40,999,-15,1,-5
3952,27,-25,999,-12,16,-2
3953,-98,-9,992,-14,19,0
3954,-138,2,992,-14,6,-3
3955,-83,-8,991,-17,-11,-7
3956,30,-14,1011,-20,-18,-9
3957,125,-40,998,-19,-12,-7
3958,89,-38,1009,-15,8,-3
3959,-3,-22,997,-13,19,-1
3960,-120,-10,999,-12,17,-1
3961,-129,5,978,-14,2,-5
3962,-53,-10,996,-18,-13,-10
3963,55,-21,1002,-19,-18,-10
3964,124,-29,1015,-16,-8,-8
3965,73,-36,1001,-14,10,-3
3966,-36,-15,1003,-11,20,0
3967,-126,-13,986,-13,14,-2
3968,-127,1,974,-14,-3,-5
3969,-20,-11,1009,-18,-17,-9
3970,79,-23,1008,-17,-16,-11
3971,125,-38,1016,-17,-3,-6
3972,52,-34,998,-14,14,-3
3973,-71,-16,986,-13,21,-1
3974,-133,-2,991,-12,9,-4
3975,-118,-1,981,-16,-6,-9
3976,13,-12,1010,-17,-18,-10
3977,107,-33,1012,-22,-15,-9
3978,109,-38,1004,-16,2,-5
3979,27,-35,998,-13,16,-3
3980,-106,3,995,-12,20,-1
3981,-133,-10,984,-15,5,-5
3982,-81,2,1001,-15,-12,-9
3983,34,-24,1001,-20,-19,-10
3984,119,-31,1004,-16,-12,-9
3985,91,-37,1005,-16,6,-4
3986,-6,-15,1000,-13,18,-2
3987,-115,-9,997,-14,17,-2
3988,-128,-6,986,-15,2,-7
3989,-52,-7,983,-18,-13,-10
3990,62,-23,1017,-18,-17,-11
3991,126,-33,1006,-18,-7,-6
3992,70,-33,1006,-14,13,-3
3993,-36,-19,1000,-12,19,0
3994,-126,-11,985,-13,13,-2
3995,-128,9,970,-15,-2,-8
3996,-16,-13,1011,-17,-18,-12
3997,84,-30,1008,-18,-15,-10
3998,119,-36,1007,-15,-1,-6
3999,55,-37,1006,-12,15,-2
4000,-69,-17,980,-11,21,0
4001,-137,1,991,-11,10,-4
4002,-107,0,986,-15,-7,-9
4003,1,-2,1015,-18,-17,-10
4004,111,-35,1001,-21,-14,-10
4005,106,-36,1009,-16,4,-5
4006,29,-32,994,-12,16,-2
4007,-110,-10,995,-14,20,-1
4008,-126,-1,984,-15,5,-6
4009,-89,-6,1005,-17,-9,-7
4010,37,-15,995,-19,-19,-9
4011,113,-38,1009,-17,-11,-9
4012,90,-30,1007,-16,5,-5
4013,-3,-31,1001,-16,18,-2
4014,-112,-7,1000,-10,16,-4
4015,-129,2,977,-14,2,-6
4016,-53,-5,993,-19,-14,-10
4017,51,-20,1008,-19,-18,-11
4018,118,-36,1013,-19,-8,-7
4019,78,-39,998,-16,8,-5
4020,-36,-22,1012,-13,17,0
4021,-116,-11,973,-14,12,-4
4022,-132,4,983,-14,-2,-6
4023,-19,-9,1004,-20,-18,-10
4024,74,-21,1010,-18,-16,-9
4025,128,-39,1009,-19,-3,-6
4026,52,-30,1002,-15,12,-3
4027,-69,-19,987,-12,20,1
4028,-137,-3,992,-12,10,-3
4029,-112,-5,987,-17,-8,-7
4030,8,-12,1010,-14,-18,-9
4031,111,-27,1008,-18,-15,-9
4032,108,-41,1001,-16,3,-4
4033,17,-18,999,-13,17,-3
4034,-101,-18,996,-13,18,-2
4035,-133,4,984,-11,6,-5
4036,-84,-9,1000,-18,-12,-8
4037,45,-17,1006,-20,-18,-11
4038,119,-37,1000,-17,-10,-9
4039,88,-35,1006,-15,6,-5
4040,-8,-21,1003,-13,18,-1
4041,-118,-9,997,-14,15,-1
4042,-132,-5,977,-15,2,-5
4043,-47,-7,998,-17,-14,-11
4044,60,-24,1004,-19,-16,-10
4045,123,-28,1013,-17,-6,-6
4046,65,-39,1001,-14,11,-4
4047,-31,-19,1005,-11,20,-1
4048,-130,-8,979,-13,14,-2
4049,-116,-3,981,-14,-3,-6
4050,-29,-6,1006,-17,-17,-8
4051,90,-25,1005,-22,-18,-10
4052,122,-44,1021,-28,3,-2
4053,50,-29,989,-16,16,0
4054,-76,-15,989,-10,20,-1
4055,-133,2,994,-11,9,-4
4056,-113,-5,983,-18,-7,-8
4057,13,-1,1013,-17,-21,-11
4058,110,-41,1014,-21,-15,-9
4059,115,-34,997,-12,3,-5
4060,16,-26,1000,-13,18,-2
4061,-103,-12,998,-12,19,-2
4062,-134,3,983,-13,6,-4
4063,-83,-6,997,-18,-11,-9
4064,43,-15,1009,-19,-19,-9
4065,118,-34,998,-19,-10,-8
4066,96,-41,1012,-16,8,-4
4067,-14,-21,1001,-11,19,-1
4068,-119,-13,993,-13,16,-2
4069,-136,0,982,-14,1,-5
4070,-49,-10,995,-17,-16,-8
4071,65,-19,1004,-16,-17,-11
4072,122,-35,1018,-17,-7,-7
4073,74,-26,998,-14,11,-4
4074,-46,-23,1005,-15,21,1
4075,-124,-1,982,-15,12,-3
4076,-131,-4,977,-16,-2,-6
4077,-12,-6,1008,-17,-18,-11
4078,83,-30,1014,-20,-16,-8
4079,130,-40,1006,-15,-2,-7
4080,44,-36,1001,-13,15,0
4081,-77,-10,987,-10,19,1
4082,-134,-4,992,-14,9,-3
4083,-113,4,987,-17,-8,-7
4084,15,-15,1014,-19,-19,-9
4085,113,-37,1008,-18,-15,-10
4086,107,-39,1001,-15,4,-4
4087,21,-28,999,-11,17,-2
4088,-106,-3,995,-11,18,0
4089,-141,0,988,-13,5,-5
4090,-76,-2,996,-16,-12,-10
4091,42,-21,1004,-20,-19,-10
4092,124,-38,1005,-17,-10,-9
4093,92,-34,1005,-15,8,-4
4094,-14,-18,999,-13,20,-2
4095,-119,-7,994,-12,16,-1
4096,-136,0,978,-16,0,-5
4097,-48,-14,995,-18,-16,-10
4098,67,-20,1005,-19,-17,-11
4099,127,-32,1014,-20,-6,-8
4100,74,-37,997,-16,11,-4
4101,-47,-22,1009,-12,19,0
4102,-128,-1,976,-13,12,-3
4103,-130,1,986,-17,-2,-5
4104,-14,-10,1002,-18,-16,-10
4105,85,-35,1014,-18,-15,-8
4106,131,-39,1008,-17,-2,-6
4107,44,-31,999,-14,15,-2
4108,-74,-11,991,-10,19,-1
4109,-147,0,988,-14,9,-3
4110,-106,0,987,-18,-8,-8
4111,10,-11,1018,-18,-19,-8
4112,116,-40,1001,-20,-13,-8
4113,111,-47,1003,-15,3,-5
4114,14,-22,998,-12,17,-1
4115,-103,-14,1000,-14,19,-1
4116,-143,8,980,-13,5,-4
4117,-80,-3,1005,-19,-12,-8
4118,43,-14,1002,-19,-18,-10
4119,116,-32,1003,-19,-9,-8
4120,101,-43,1009,-16,7,-4
4121,-19,-17,1001,-11,20,0
4122,-119,-15,985,-13,16,-2
4123,-138,0,994,-13,0,-7
4124,-45,-8,981,-18,-16,-10
4125,62,-18,1013,-19,-17,-11
4126,127,-25,1013,-16,-7,-8
4127,69,-32,1005,-14,12,-3
4128,-44,-21,998,-14,21,0
4129,-126,-14,985,-14,13,-3
4130,-129,1,985,-15,-4,-7
4131,-16,-8,993,-17,-16,-10
4132,88,-27,1022,-17,-15,-11
4133,125,-26,1005,-17,-1,-6
4134,48,-30,997,-15,15,-5
4135,-81,-9,993,-15,20,-1
4136,-139,-7,989,-15,9,-4
4137,-110,-9,987,-17,-9,-7
4138,13,-17,1014,-18,-21,-10
4139,120,-43,1008,-18,-14,-10
4140,108,-35,993,-14,3,-4
4141,14,-20,1008,-11,16,-2
4142,-105,0,991,-12,19,0
4143,-140,1,989,-15,4,-4
4144,-71,-7,992,-18,-14,-9
4145,47,-28,1006,-19,-20,-10
4146,124,-41,1001,-18,-10,-7
4147,86,-31,1008,-14,9,-4
4148,-20,-20,1008,-12,20,-2
4149,-125,0,979,-11,16,-2
4150,-132,-1,998,-14,0,-6
4151,-38,-11,982,-17,-16,-8
4152,63,-27,1012,-19,-16,-10
4153,135,-32,1011,-17,-7,-8
4154,63,-29,1008,-14,14,-3
4155,-48,-18,993,-14,20,0
4156,-134,-5,989,-12,13,-3
4157,-122,-4,982,-17,-3,-7
4158,-11,-2,1005,-19,-17,-10
4159,92,-34,1018,-18,-16,-10
4160,125,-37,1008,-16,-1,-6
4161,41,-34,995,-14,14,-2
4162,-82,-5,987,-11,19,-1
4163,-140,0,997,-16,9,-3
4164,-105,-1,979,-17,-8,-8
4165,18,-13,1015,-19,-19,-10
4166,116,-45,1008,-20,-14,-11
4167,108,-42,991,-14,4,-4
4168,9,-19,1004,-12,18,0
4169,-109,-5,998,-11,18,-1
4170,-132,4,985,-13,4,-4
4171,-77,-9,991,-18,-11,-7
4172,54,-25,1007,-18,-18,-11
4173,119,-36,1006,-17,-9,-7
4174,82,-31,997,-14,10,-6
4175,-19,-20,1012,-14,19,-1
4176,-129,0,988,-12,15,-1
4177,-129,-1,976,-17,0,-6
4178,-35,-4,1006,-17,-17,-10
4179,68,-25,1004,-19,-16,-10
4180,131,-40,1011,-18,-4,-8
4181,63,-36,1005,-14,13,-4
4182,-53,-13,1000,-12,21,-1
4183,-133,-7,978,-14,12,-4
4184,-123,1,991,-16,-5,-7
4185,-5,-7,1000,-20,-17,-10
4186,93,-29,1017,-18,-15,-10
4187,127,-44,1008,-18,0,-4
4188,33,-33,995,-15,17,-1
4189,-87,-13,985,-11,21,0
4190,-136,-6,994,-13,9,-5
4191,-104,8,988,-14,-8,-7
4192,27,-12,1015,-18,-18,-11
4193,120,-35,1006,-19,-12,-7
4194,100,-38,999,-15,6,-3
4195,12,-30,1002,-13,18,-1
4196,-121,-3,995,-12,19,-1
4197,-133,-4,987,-14,3,-6
4198,-61,-2,995,-17,-14,-9
4199,48,-20,1003,-18,-18,-10
4200,129,-38,1008,-18,-10,-9
4201,83,-34,1005,-13,9,-4
4202,-25,-20,1003,-11,19,-1
4203,-125,-7,990,-12,14,-2
4204,-130,5,979,-14,-2,-6
4205,-36,-14,995,-17,-18,-9
4206,77,-20,1012,-19,-17,-11
4207,124,-41,1008,-18,-4,-7
4208,61,-27,1003,-14,12,-3
4209,-59,-22,996,-13,19,0
4210,-137,0,982,-12,10,-4
4211,-119,-3,977,-17,-5,-6
4212,0,-12,1018,-18,-18,-10
4213,99,-35,1001,-18,-15,-9
4214,121,-38,1015,-15,1,-5
4215,39,-27,992,-13,15,-2
4216,-101,-4,991,-10,20,0
4217,-126,0,989,-15,6,-4
4218,-109,5,1000,-18,-10,-7
4219,33,-21,1005,-21,-19,-10
4220,119,-47,1010,-19,-11,-10
4221,99,-43,995,-15,5,-4
4222,1,-23,1001,-10,19,-2
4223,-114,-5,998,-10,17,-2
4224,-136,7,986,-13,1,-4
4225,-62,-6,997,-20,-14,-8
4226,52,-20,998,-19,-18,-10
4227,126,-35,1013,-18,-8,-8
4228,78,-38,998,-16,10,-4
4229,-33,-24,1012,-12,19,0
4230,-124,-5,981,-12,14,-3
4231,-131,-1,987,-15,-1,-6
4232,-25,-5,994,-16,-17,-10
4233,71,-22,1011,-20,-16,-9
4234,131,-38,1013,-18,-3,-7
4235,53,-38,998,-14,14,-2
4236,-58,-20,995,-12,18,-3
4237,-137,-2,988,-12,9,-2
4238,-118,2,979,-16,-6,-8
4239,-2,-3,1013,-18,-19,-10
4240,108,-34,1010,-19,-16,-9
4241,114,-41,1013,-15,1,-5
4242,37,-27,983,-14,16,-2
4243,-96,-15,1005,-11,20,-2
4244,-135,6,973,-15,6,-4
4245,-105,0,1005,-17,-10,-10
4246,44,-18,1011,-20,-20,-11
4247,113,-38,1002,-18,-11,-8
4248,108,-38,996,-14,4,-5
4249,3,-24,1007,-11,19,-2
4250,-121,-1,988,-12,18,-1
4251,-134,2,986,-13,1,-5
4252,-59,-7,1000,-19,-13,-8
4253,57,-31,998,-20,-18,-9
4254,130,-38,1007,-16,-8,-8
4255,76,-35,1005,-15,10,-3
4256,-27,-14,1004,-9,20,-3
4257,-136,-1,986,-13,14,0
4258,-125,-1,981,-16,-2,-6
4259,-26,-7,1001,-17,-18,-8
4260,72,-33,1007,-21,-17,-10
4261,136,-43,1007,-16,-4,-7
4262,50,-30,1009,-12,15,-2
4263,-63,-9,987,-12,20,0
4264,-137,-2,988,-11,11,-3
4265,-117,4,987,-16,-5,-6
4266,0,-10,1002,-20,-18,-8
4267,98,-35,1018,-17,-14,-10
4268,124,-42,1005,-15,1,-4
4269,31,-27,995,-12,17,-2
4270,-94,-8,987,-10,20,-1
4271,-137,5,998,-14,7,-5
4272,-101,-3,984,-18,-9,-7
4273,32,-14,1013,-20,-18,-10
4274,122,-44,1010,-20,-14,-8
4275,97,-39,992,-14,6,-3
4276,2,-23,1000,-13,18,-2
4277,-120,0,998,-11,17,-3
4278,-134,0,988,-14,3,-5
4279,-57,-5,992,-18,-13,-9
4280,48,-26,1012,-18,-18,-10
4281,137,-40,998,-18,-8,-10
4282,69,-32,1012,-15,11,-2
4283,-26,-18,997,-12,20,-1
4284,-130,-2,997,-14,15,-2
4285,-129,-3,975,-14,-2,-6
4286,-32,-11,998,-17,-18,-10
4287,79,-31,1014,-19,-16,-11
4288,127,-40,1008,-16,-3,-6
4289,56,-27,1002,-13,14,-4
4290,-58,-15,1002,-11,21,0
4291,-136,4,975,-12,11,-3
4292,-120,-5,987,-18,-6,-7
4293,-1,-13,1010,-18,-20,-10
4294,105,-35,1011,-18,-15,-9
4295,118,-43,1008,-16,0,-5
4296,41,-33,998,-11,15,-3
4297,-95,0,990,-10,20,0
4298,-140,4,983,-15,7,-4
4299,-97,0,1001,-16,-10,-8
4300,25,-20,1007,-19,-19,-10
4301,120,-40,1006,-19,-14,-8
4302,108,-37,1000,-15,5,-3
4303,2,-24,1005,-13,19,-1
4304,-114,-5,986,-13,17,-3
4305,-146,7,996,-14,3,-4
4306,-63,-4,988,-16,-12,-11
4307,51,-25,1002,-19,-18,-10
4308,127,-42,1011,-16,-9,-8
4309,84,-37,995,-14,9,-5
4310,-27,-19,1012,-11,20,0
4311,-126,-7,983,-12,15,-2
4312,-131,3,979,-17,-3,-5
4313,-35,-13,1002,-18,-17,-9
4314,71,-26,1006,-18,-16,-12
4315,126,-36,1011,-17,-3,-6
4316,66,-27,1010,-13,12,-2
4317,-61,-21,987,-13,21,1
4318,-130,-1,988,-12,10,-3
4319,-124,1,986,-16,-6,-7
4320,-3,-10,996,-19,-18,-10
4321,101,-35,1025,-17,-16,-9
4322,121,-30,1004,-15,0,-5
4323,31,-37,991,-13,16,-1
4324,-90,-7,994,-10,19,0
4325,-142,-6,987,-15,6,-3
4326,-92,0,990,-14,-11,-8
4327,26,-15,1020,-18,-20,-11
4328,125,-32,995,-18,-14,-8
4329,96,-35,1001,-14,6,-4
4330,7,-22,1005,-14,18,-2
4331,-122,-2,991,-14,19,-1
4332,-135,-6,990,-16,1,-6
4333,-61,-11,994,-18,-15,-10
4334,56,-29,998,-19,-18,-9
4335,126,-35,1010,-17,-9,-8
4336,81,-33,1005,-16,10,-3
4337,-35,-10,1002,-12,19,0
4338,-122,-11,987,-13,13,-3
4339,-132,3,985,-16,-1,-4
4340,-26,-13,986,-20,-16,-10
4341,75,-34,1026,-21,-17,-12
4342,133,-36,1003,-16,-5,-8
4343,56,-37,1006,-14,15,-4
4344,-64,-7,992,-10,20,1
4345,-140,-5,988,-13,11,-3
4346,-112,-1,976,-17,-6,-7
4347,-4,-7,1020,-17,-19,-10
4348,116,-34,1009,-20,-16,-11
4349,119,-48,1008,-16,4,-5
4350,30,-25,986,-12,18,-2
4351,-100,-10,999,-10,21,-1
4352,-135,5,981,-13,7,-4
4353,-99,5,1000,-18,-9,-7
4354,41,-20,1006,-21,-19,-11
4355,114,-37,1012,-19,-10,-9
4356,106,-39,988,-15,6,-6
4357,-9,-30,1014,-11,19,0
4358,-112,-5,985,-10,18,-3
4359,-140,-1,990,-13,4,-6
4360,-63,1,994,-16,-14,-9
4361,63,-22,1003,-19,-18,-11
4362,122,-34,1007,-18,-8,-7
4363,76,-30,1005,-17,8,-3
4364,-30,-26,1006,-13,19,-3
4365,-132,-4,980,-14,13,-3
4366,-127,-1,982,-13,-3,-7
4367,-25,-7,998,-17,-18,-10
4368,71,-23,1013,-19,-17,-10
4369,131,-40,1011,-17,-4,-7
4370,52,-27,1006,-13,13,-1
4371,-65,-18,983,-15,19,-1
4372,-130,-1,995,-12,9,-4
4373,-117,-2,977,-18,-6,-7
4374,9,-7,1015,-18,-19,-11
4375,106,-36,1016,-20,-15,-10
4376,118,-43,1004,-16,2,-6
4377,25,-24,992,-11,17,-4
4378,-94,-7,999,-13,19,-2
4379,-135,2,982,-15,5,-4
4380,-93,-3,1000,-16,-11,-8
4381,39,-22,1009,-20,-20,-10
4382,126,-40,999,-19,-11,-10
4383,93,-37,1002,-13,7,-5
4384,-1,-19,1004,-13,17,-3
4385,-120,-9,988,-12,16,-2
4386,-137,0,992,-14,1,-4
4387,-57,-11,988,-19,-14,-9
4388,58,-27,1002,-17,-18,-11
4389,128,-33,1016,-17,-8,-7
4390,71,-31,997,-13,8,-3
4391,-35,-20,1006,-11,19,-1
4392,-131,-2,984,-13,14,-2
4393,-133,0,977,-16,-2,-5
4394,-17,-10,997,-17,-18,-11
4395,80,-34,1020,-21,-17,-9
4396,127,-37,999,-16,-2,-6
4397,56,-33,1009,-15,14,-2
4398,-76,-16,991,-11,20,0
4399,-137,0,979,-12,9,-2
4400,-116,1,992,-17,-8,-5
4401,7,-9,1008,-19,-20,-10
4402,117,-38,1015,-18,-16,-10
4403,111,-39,1004,-14,2,-5
4404,25,-29,993,-12,17,-1
4405,-101,-11,996,-11,20,-1
4406,-144,3,986,-14,5,-4
4407,-86,-2,995,-16,-11,-8
4408,45,-22,1019,-19,-20,-11
4409,123,-35,993,-18,-11,-8
4410,89,-35,1005,-16,8,-4
4411,-7,-21,1008,-14,19,-1
4412,-131,-4,985,-12,18,-1
4413,-133,0,989,-14,1,-6
4414,-47,-10,1000,-17,-16,-9
4415,67,-26,998,-18,-19,-9
4416,131,-35,1015,-17,-6,-9
4417,68,-31,1007,-14,13,-3
4418,-45,-13,997,-12,21,-1
4419,-130,-6,989,-13,13,-4
4420,-128,5,979,-15,-4,-6
4421,-13,-11,1001,-20,-17,-10
4422,85,-31,1018,-20,-15,-9
4423,125,-39,1002,-18,-1,-5
4424,50,-38,1003,-13,15,-2
4425,-77,-8,985,-11,19,0
4426,-134,3,990,-12,9,-4
4427,-114,0,991,-17,-7,-7
4428,10,-11,1003,-19,-19,-11
4429,109,-43,1015,-19,-13,-11
4430,116,-37,1001,-16,1,-5
4431,20,-32,990,-13,17,-2
4432,-103,-1,1000,-10,19,-1
4433,-140,6,984,-16,6,-4
4434,-81,-2,997,-17,-11,-9
4435,46,-19,1013,-19,-19,-9
4436,120,-43,996,-18,-10,-10
4437,92,-37,1004,-14,7,-5
4438,-10,-25,1002,-11,18,-1
4439,-129,1,993,-11,17,-2
4440,-129,1,984,-17,0,-5
4441,-51,-2,997,-18,-14,-10
4442,70,-34,1004,-21,-17,-11
4443,121,-36,1012,-17,-6,-8
4444,71,-38,1000,-14,12,-2
