sequence,AccelerometerX,AccelerometerY,AccelerometerZ,GyroscopeX,GyroscopeY,GyroscopeZ
0,480,-38,1097,7,-25,4
1,201,60,1004,12,39,3
2,-253,70,900,-23,60,18
3,-502,19,826,-24,22,12
4,-257,-97,964,-8,-46,-6
5,262,-125,1130,-4,-75,2
6,488,-53,1093,17,-34,4
7,266,48,1025,7,33,2
8,-197,68,913,-7,63,17
9,-494,7,824,-27,30,17
10,-315,-82,938,-16,-33,-2
11,193,-142,1113,-6,-76,0
12,486,-60,1102,20,-43,6
13,317,49,1027,14,25,2
14,-136,78,918,-7,62,14
15,-470,43,844,-20,37,17
16,-367,-85,916,-31,-26,-1
17,122,-149,1106,-2,-74,-1
18,477,-74,1116,9,-51,7
19,354,17,1025,17,15,2
20,-77,86,933,0,60,10
21,-443,38,852,-22,42,17
22,-407,-66,893,-23,-17,2
23,68,-136,1111,-4,-73,-3
24,447,-90,1121,10,-55,6
25,390,24,1039,22,7,1
26,-16,80,946,0,59,8
27,-413,60,849,-17,47,17
28,-439,-52,880,-25,-8,3
29,-11,-137,1079,-12,-70,-5
30,422,-101,1139,14,-62,3
31,432,-2,1061,15,-3,1
32,42,81,950,8,53,9
33,-373,72,853,-17,52,19
34,-460,-34,858,-28,1,5
35,-91,-119,1050,-9,-61,-5
36,385,-110,1142,6,-67,3
37,464,-17,1071,16,-14,2
38,101,70,980,9,49,6
39,-319,75,863,-20,56,20
40,-477,-16,835,-25,9,8
41,-162,-117,1018,-17,-53,-6
42,351,-116,1146,4,-70,3
43,471,-24,1088,17,-21,3
44,160,66,994,4,43,3
45,-271,75,885,-15,57,19
46,-491,-2,840,-29,17,9
47,-212,-109,983,-21,-47,-5
48,297,-134,1129,1,-73,3
49,474,-39,1096,14,-26,3
50,214,54,1011,11,37,2
51,-232,74,906,-9,58,17
52,-497,12,837,-28,25,12
53,-248,-104,962,-18,-40,-3
54,242,-134,1119,0,-73,2
55,479,-58,1080,17,-32,3
56,270,46,1027,13,31,2
57,-203,73,910,-8,61,15
58,-483,26,853,-20,28,14
59,-307,-85,944,-22,-34,-2
60,189,-149,1093,-3,-75,-2
61,491,-65,1106,22,-41,4
62,315,40,1020,15,26,2
63,-137,77,919,2,59,14
64,-470,46,861,-20,36,16
65,-368,-64,922,-26,-27,0
66,120,-137,1098,-7,-74,-2
67,472,-75,1116,9,-49,3
68,367,22,1026,14,14,2
69,-63,81,937,2,59,13
70,-444,58,852,-24,44,19
71,-413,-59,897,-26,-16,2
72,51,-139,1098,-11,-70,-3
73,444,-88,1131,8,-56,7
74,404,17,1038,16,5,0
75,-6,92,939,-2,56,10
76,-413,61,851,-20,48,21
77,-434,-50,893,-32,-9,4
78,-22,-144,1065,-15,-64,-4
79,418,-110,1137,8,-61,6
80,434,0,1060,15,-3,2
81,33,85,945,3,54,10
82,-377,69,853,-22,51,18
83,-448,-29,872,-28,-3,6
84,-83,-136,1038,-14,-60,-4
85,399,-119,1135,4,-65,3
86,447,-22,1077,16,-10,2
87,91,63,978,6,49,7
88,-333,86,871,-14,53,19
89,-470,-30,841,-26,7,8
90,-135,-132,1004,-15,-54,-4
91,357,-119,1137,8,-67,3
92,460,-37,1094,20,-17,1
93,136,76,991,11,45,4
94,-290,88,887,-12,53,17
95,-481,4,851,-28,13,10
96,-186,-115,980,-20,-48,-6
97,309,-142,1125,3,-71,1
98,468,-47,1090,16,-24,2
99,203,55,998,15,39,4
100,-243,84,914,-8,57,17
101,-489,19,842,-26,19,11
102,-244,-102,966,-19,-42,-6
103,248,-137,1115,-2,-72,0
104,475,-50,1080,19,-32,3
105,264,46,1007,13,31,1
106,-189,90,921,-7,57,16
107,-472,28,864,-24,28,16
108,-302,-83,951,-26,-33,-1
109,184,-151,1084,-5,-70,-1
110,474,-66,1100,16,-39,3
111,301,41,1013,13,23,0
112,-129,92,926,1,57,15
113,-458,55,866,-26,34,17
114,-339,-78,935,-28,-26,0
115,134,-156,1089,-7,-69,0
116,464,-87,1104,10,-43,5
117,338,20,1027,18,18,3
118,-85,88,933,2,56,12
119,-445,64,864,-18,39,18
120,-386,-61,910,-26,-19,3
121,77,-146,1086,-11,-68,-2
122,453,-95,1126,9,-50,3
123,380,7,1044,15,10,2
124,-40,81,937,1,57,9
125,-413,71,862,-15,43,19
126,-422,-42,881,-32,-10,4
127,5,-150,1057,-12,-65,-4
128,432,-110,1141,9,-58,3
129,423,0,1061,17,1,1
130,14,73,952,5,54,8
131,-379,77,858,-14,49,16
132,-441,-30,857,-26,-1,6
133,-69,-152,1033,-12,-58,-2
134,396,-117,1138,9,-62,1
135,453,-30,1075,23,-8,2
136,72,82,986,13,51,7
137,-335,83,869,-12,52,16
138,-465,-5,845,-24,5,10
139,-137,-118,1004,-19,-54,0
140,360,-117,1140,6,-66,2
141,460,-39,1089,18,-15,1
142,143,64,999,13,45,6
143,-292,80,894,-8,56,17
144,-486,1,836,-26,15,12
145,-200,-99,977,-17,-47,0
146,300,-126,1128,5,-71,0
147,479,-52,1096,11,-25,2
148,205,48,1003,15,38,3
149,-232,77,912,-8,55,16
150,-490,17,834,-22,24,16
151,-264,-95,957,-19,-39,-2
152,236,-125,1120,-1,-73,0
153,478,-58,1087,16,-35,3
154,278,43,1013,13,30,3
155,-173,81,920,-6,58,16
156,-478,20,844,-22,32,14
157,-322,-84,944,-25,-32,-1
158,160,-131,1097,1,-72,0
159,484,-75,1103,10,-43,4
160,328,39,1020,16,22,2
161,-108,95,929,0,58,15
162,-454,36,859,-26,38,17
163,-379,-71,921,-22,-21,2
164,96,-134,1096,-8,-71,-1
165,464,-92,1115,9,-50,5
166,374,22,1036,18,13,4
167,-42,88,942,-2,58,13
168,-433,55,854,-23,44,19
169,-425,-55,889,-29,-12,3
170,21,-136,1086,-13,-69,-2
171,439,-98,1140,7,-57,6
172,415,17,1054,12,4,4
173,3,82,937,-5,56,10
174,-390,57,858,-20,49,19
175,-449,-31,864,-33,-2,6
176,-50,-157,1050,-18,-63,-4
177,411,-120,1150,11,-63,4
178,446,-1,1067,15,-6,4
179,51,75,962,6,53,8
180,-352,74,862,-19,51,18
181,-464,-24,840,-29,4,7
182,-116,-144,1033,-16,-57,-4
183,385,-130,1144,4,-68,3
184,456,-13,1080,22,-14,2
185,113,67,985,6,47,4
186,-315,83,881,-12,55,17
187,-485,-8,833,-26,10,8
188,-166,-130,996,-19,-53,-4
189,338,-130,1137,9,-70,0
190,477,-33,1096,21,-23,1
191,174,56,998,12,42,6
192,-266,86,898,-6,57,17
193,-489,17,840,-27,18,10
194,-230,-115,966,-18,-44,-5
195,280,-132,1130,2,-72,-1
196,478,-49,1092,14,-31,2
197,239,46,1006,16,34,3
198,-213,97,920,-5,58,17
199,-490,17,838,-27,26,15
200,-282,-103,954,-22,-37,-4
201,215,-138,1116,2,-73,-1
202,479,-64,1087,17,-37,4
203,290,53,1014,16,27,3
204,-163,90,918,-7,58,15
205,-462,40,860,-22,32,17
206,-329,-80,940,-27,-29,-1
207,148,-154,1088,-6,-71,-3
208,474,-77,1104,14,-44,4
209,329,34,1019,14,18,3
210,-95,94,931,2,56,14
211,-441,47,861,-27,38,19
212,-376,-69,923,-25,-20,3
213,92,-139,1098,-9,-69,-3
214,451,-95,1110,7,-49,6
215,363,21,1031,20,12,3
216,-47,96,939,-1,57,11
217,-427,51,856,-23,43,19
218,-410,-57,898,-26,-15,4
219,34,-144,1078,-13,-67,-3
220,430,-112,1134,9,-54,5
221,404,22,1053,17,3,3
222,-5,84,943,1,54,12
223,-398,75,858,-15,47,19
224,-436,-44,868,-34,-6,5
225,-36,-146,1055,-13,-62,-4
226,412,-121,1144,6,-61,3
227,439,-13,1063,17,-5,2
228,50,87,964,7,52,9
229,-360,82,856,-18,51,19
230,-457,-29,847,-29,1,7
231,-106,-131,1036,-14,-58,-4
232,383,-127,1138,2,-66,2
233,453,-22,1077,20,-14,1
234,115,66,991,7,46,5
235,-311,85,871,-11,53,17
236,-473,-7,836,-24,10,8
237,-168,-133,1001,-17,-52,-6
238,336,-137,1131,8,-70,1
239,463,-32,1097,23,-21,2
240,172,58,996,14,40,3
241,-264,83,900,-6,55,17
242,-485,13,837,-27,18,13
243,-215,-118,971,-18,-44,-3
244,276,-138,1125,7,-70,1
245,472,-51,1092,17,-27,3
246,239,40,1014,18,34,3
247,-217,96,916,0,58,17
248,-488,24,836,-25,26,15
249,-282,-86,951,-19,-37,-2
250,207,-134,1111,-2,-73,-1
251,483,-74,1089,18,-37,4
252,307,41,1021,18,27,3
253,-153,89,913,0,61,15
254,-468,39,860,-20,35,16
255,-354,-73,932,-25,-26,0
256,126,-138,1095,-4,-72,-2
257,469,-82,1101,10,-47,3
258,362,22,1025,15,16,1
259,-72,89,938,6,60,11
260,-437,44,854,-24,42,17
261,-414,-59,914,-23,-16,1
262,51,-138,1097,-6,-70,-4
263,443,-86,1115,10,-55,3
264,395,12,1035,18,6,2
265,2,88,947,1,55,9
266,-399,59,853,-18,47,18
267,-446,-48,891,-25,-6,3
268,-27,-133,1077,-15,-65,-5
269,406,-113,1131,11,-61,4
270,428,8,1054,19,-3,0
271,57,72,942,2,51,8
272,-358,59,860,-14,52,18
273,-458,-25,869,-27,1,5
274,-100,-130,1044,-12,-59,-3
275,371,-117,1142,8,-65,3
276,451,-12,1072,19,-12,1
277,118,65,970,8,47,7
278,-303,68,857,-15,54,20
279,-478,0,839,-21,11,7
280,-165,-130,1028,-16,-53,-6
281,318,-113,1149,5,-68,2
282,471,-29,1083,17,-23,4
283,180,58,989,10,42,6
284,-244,72,875,-10,58,18
285,-481,3,838,-22,21,12
286,-247,-102,989,-21,-43,-7
287,263,-133,1136,3,-73,-2
288,467,-42,1103,14,-31,3
289,256,48,996,11,31,6
290,-190,77,902,-6,60,17
291,-481,15,837,-25,28,12
292,-292,-88,965,-18,-35,-3
293,185,-127,1121,-2,-71,-2
294,463,-50,1097,12,-39,3
295,304,32,1013,12,24,2
296,-128,73,916,-5,58,13
297,-459,22,838,-19,37,16
298,-344,-81,945,-20,-26,-1
299,125,-119,1110,-4,-69,-2
300,444,-61,1100,12,-45,5
301,349,25,1019,11,15,2
302,-75,72,922,0,57,13
303,-431,31,855,-19,41,17
304,-379,-67,926,-27,-19,1
305,58,-125,1088,-4,-67,-3
306,437,-72,1115,10,-51,4
307,378,17,1025,14,7,4
308,-20,76,935,0,55,13
309,-400,43,855,-23,45,20
310,-427,-60,909,-22,-10,4
311,7,-125,1094,-8,-65,-4
312,407,-87,1123,6,-56,7
313,403,13,1032,17,-1,3
314,39,76,946,0,51,10
315,-377,51,856,-15,51,18
316,-444,-42,894,-27,-3,4
317,-57,-127,1070,-14,-62,-4
318,384,-114,1134,7,-62,4
319,429,-4,1055,15,-6,1
320,77,76,947,4,48,8
321,-338,48,853,-13,51,18
322,-453,-19,870,-24,4,7
323,-116,-117,1040,-12,-55,-4
324,357,-108,1145,3,-64,3
325,446,-13,1076,13,-13,1
326,116,61,963,8,44,5
327,-293,63,865,-15,53,18
328,-464,-19,840,-24,12,8
329,-158,-113,1021,-17,-50,-4
330,318,-118,1149,4,-66,3
331,457,-30,1088,18,-19,3
332,163,58,990,7,40,5
333,-254,62,873,-11,54,18
334,-478,2,839,-19,18,10
335,-221,-92,985,-19,-46,-3
336,276,-119,1139,3,-70,2
337,466,-37,1103,12,-29,2
338,228,50,1000,11,34,4
339,-203,62,900,-8,57,16
340,-484,15,838,-24,29,13
341,-277,-101,959,-21,-36,-2
342,208,-124,1126,-1,-71,0
343,459,-47,1098,13,-36,2
344,295,31,1012,13,26,3
345,-147,81,924,-4,59,15
346,-469,23,833,-23,36,17
347,-333,-78,941,-21,-29,-1
348,142,-126,1109,-6,-71,-2
349,454,-63,1095,16,-45,4
350,343,33,1018,6,17,3
351,-84,74,918,2,58,13
352,-441,26,853,-24,40,14
353,-379,-77,931,-20,-19,1
354,71,-132,1089,-5,-69,-1
355,442,-76,1110,12,-51,3
356,379,18,1031,12,9,2
357,-15,83,934,5,54,12
358,-408,42,854,-22,47,18
359,-422,-56,913,-21,-10,0
360,7,-135,1091,-10,-67,-5
361,403,-96,1118,8,-56,5
362,400,9,1043,21,1,1
363,45,67,939,0,51,11
364,-373,71,859,-10,50,18
365,-439,-47,890,-28,-3,2
366,-62,-118,1074,-10,-60,-3
367,375,-92,1140,5,-62,5
368,428,-9,1050,13,-7,2
369,80,68,947,5,48,8
370,-327,62,863,-15,52,18
371,-450,-34,865,-28,6,5
372,-125,-119,1036,-11,-55,-4
373,339,-101,1144,6,-67,2
374,452,-13,1077,15,-16,3
375,129,63,970,8,43,7
376,-276,77,864,-16,55,17
377,-462,-16,835,-27,13,10
378,-183,-108,1018,-18,-48,-3
379,304,-115,1155,1,-68,1
380,457,-37,1083,14,-23,4
381,177,61,990,5,38,6
382,-236,63,876,-13,55,18
383,-475,2,835,-24,20,11
384,-224,-101,987,-24,-42,-3
385,269,-129,1141,1,-71,3
386,457,-30,1096,14,-28,4
387,223,46,1003,9,32,5
388,-211,76,907,-7,54,15
389,-477,10,834,-32,24,13
390,-267,-94,962,-19,-38,-2
391,225,-132,1123,-3,-71,-1
392,459,-66,1091,13,-34,3
393,278,43,1017,15,27,2
394,-161,77,914,-9,56,16
395,-475,21,839,-23,31,13
396,-316,-83,948,-21,-32,-4
397,159,-137,1105,-5,-71,1
398,460,-70,1094,15,-42,4
399,332,36,1020,12,19,2
400,-104,78,923,-1,57,16
401,-455,35,858,-20,38,14
402,-374,-73,931,-25,-23,0
403,88,-139,1082,-3,-71,-2
404,453,-79,1106,12,-51,4
405,376,21,1033,16,11,1
406,-33,82,935,5,55,13
407,-422,58,859,-19,44,17
408,-422,-54,911,-23,-12,0
409,18,-136,1089,-11,-67,-5
410,420,-93,1126,7,-56,3
411,405,9,1037,18,0,1
412,30,81,938,1,52,10
413,-387,62,860,-17,49,18
414,-441,-42,894,-26,-6,3
415,-55,-131,1069,-14,-62,-6
416,380,-116,1132,8,-61,2
417,436,2,1055,15,-7,2
418,79,75,948,3,48,9
419,-339,61,857,-16,52,18
420,-453,-19,875,-25,2,5
421,-124,-135,1038,-15,-56,-5
422,353,-116,1141,5,-65,2
423,457,-19,1068,15,-14,4
424,128,75,970,9,43,7
425,-294,82,869,-16,54,18
426,-470,-17,844,-29,11,8
427,-175,-124,1019,-17,-50,-5
428,312,-132,1140,2,-68,0
429,464,-41,1091,20,-23,4
430,180,66,985,10,37,8
431,-250,87,879,-8,56,18
432,-483,6,849,-24,18,9
433,-227,-111,987,-20,-43,-6
434,270,-134,1133,4,-69,1
435,466,-42,1099,16,-28,3
436,233,51,988,15,33,6
437,-207,91,911,-6,56,17
438,-486,20,847,-28,25,12
439,-275,-99,961,-21,-38,-4
440,218,-136,1123,-1,-72,0
441,462,-53,1085,14,-34,4
442,288,45,1012,14,26,4
443,-163,80,916,-6,56,15
444,-473,32,846,-21,32,14
445,-324,-88,950,-24,-30,-1
446,155,-144,1100,-7,-72,-3
447,463,-66,1095,15,-42,4
448,335,36,1013,13,19,3
449,-107,87,916,-4,55,15
450,-448,45,861,-22,38,14
451,-370,-78,937,-27,-23,0
452,100,-143,1093,-5,-69,-2
453,455,-82,1104,10,-47,4
454,363,33,1018,17,13,3
455,-52,89,932,3,54,12
456,-437,50,865,-23,43,16
457,-399,-57,922,-27,-16,2
458,51,-144,1090,-13,-68,-3
459,427,-102,1115,6,-52,3
460,392,24,1041,20,5,3
461,-9,90,935,-1,53,12
462,-410,63,853,-20,45,18
463,-431,-45,898,-28,-9,1
464,-6,-159,1074,-19,-65,-3
465,413,-101,1135,9,-59,4
466,426,-5,1050,13,-1,3
467,42,77,940,2,52,10
468,-377,72,860,-16,49,17
469,-446,-48,879,-30,-2,5
470,-82,-148,1042,-12,-58,-4
471,379,-119,1134,10,-62,2
472,456,-15,1072,19,-10,3
473,93,82,967,10,48,9
474,-325,77,860,-16,53,16
475,-470,-20,856,-24,7,7
476,-144,-131,1023,-15,-53,-6
477,348,-130,1136,5,-66,0
478,458,-30,1080,23,-16,1
479,145,72,989,11,42,4
480,-280,85,880,-8,54,18
481,-482,10,852,-24,14,9
482,-193,-119,989,-22,-48,-4
483,304,-122,1136,6,-68,0
484,466,-47,1089,15,-22,2
485,207,57,996,11,36,6
486,-241,81,901,-5,55,18
487,-487,4,842,-25,22,13
488,-256,-94,980,-16,-41,-4
489,244,-139,1117,-2,-72,-2
490,476,-47,1091,19,-30,4
491,268,53,1010,15,30,5
492,-184,84,907,-9,59,15
493,-484,28,850,-21,31,16
494,-302,-91,958,-25,-33,0
495,179,-142,1105,-4,-69,-2
496,469,-72,1088,14,-39,3
497,323,34,1013,13,22,5
498,-126,78,914,-3,58,16
499,-463,34,858,-17,36,16
500,-361,-79,941,-26,-24,0
501,113,-136,1093,-4,-69,-1
502,468,-76,1105,12,-47,3
503,356,33,1021,17,16,4
504,-59,83,927,4,56,14
505,-438,54,863,-22,44,17
506,-406,-72,914,-25,-17,1
507,54,-141,1093,-8,-69,-3
508,432,-95,1116,10,-52,3
509,397,17,1038,18,6,2
510,1,86,941,4,54,11
511,-408,62,856,-20,48,19
512,-437,-40,898,-23,-8,3
513,-9,-141,1080,-17,-66,-3
514,404,-101,1132,12,-56,2
515,428,10,1056,15,-2,3
516,45,74,938,0,50,13
517,-372,75,859,-14,51,19
518,-452,-42,875,-33,0,4
519,-83,-139,1053,-15,-59,-3
520,378,-119,1138,6,-63,3
521,449,-3,1066,16,-9,3
522,91,74,959,6,47,9
523,-334,78,858,-15,53,17
524,-461,-18,862,-27,6,6
525,-124,-140,1035,-20,-55,-2
526,352,-112,1129,6,-64,3
527,454,-25,1077,17,-15,2
528,128,63,983,10,43,7
529,-299,82,873,-11,54,18
530,-468,-17,846,-25,10,9
531,-168,-112,1008,-16,-49,-2
532,327,-130,1129,3,-66,3
533,459,-39,1094,16,-19,4
534,168,60,995,10,40,5
535,-265,82,887,-7,55,17
536,-488,5,846,-27,16,11
537,-211,-114,983,-21,-47,-2
538,290,-128,1127,4,-70,3
539,467,-45,1090,15,-25,2
540,224,49,1008,14,36,3
541,-235,93,911,-7,57,17
542,-489,15,837,-25,23,13
543,-262,-94,968,-19,-40,-1
544,230,-137,1109,-3,-72,0
545,486,-68,1090,14,-34,5
546,271,45,1011,15,32,2
547,-176,87,916,-6,58,15
548,-481,23,846,-22,30,17
549,-315,-71,949,-24,-33,0
550,169,-145,1094,-5,-73,-1
551,485,-77,1098,15,-41,4
552,325,36,1020,13,23,3
553,-123,80,924,1,59,12
554,-461,36,851,-20,37,16
555,-373,-61,931,-22,-24,2
556,110,-142,1086,-5,-73,-2
557,469,-86,1117,11,-47,3
558,365,26,1030,20,16,3
559,-50,84,932,1,57,13
560,-440,53,856,-21,44,19
561,-417,-59,907,-21,-14,3
562,40,-140,1096,-10,-68,-2
563,435,-98,1118,10,-53,4
564,411,5,1044,18,4,1
565,10,92,944,7,56,12
566,-403,66,858,-15,50,19
567,-448,-33,889,-28,-6,4
568,-42,-138,1058,-17,-65,-3
569,410,-114,1140,9,-62,4
570,439,10,1065,19,-2,1
571,71,61,940,2,50,10
572,-362,69,860,-12,53,18
573,-462,-19,868,-28,1,6
574,-106,-130,1040,-16,-59,-1
575,363,-107,1138,5,-65,3
576,470,-13,1072,17,-13,3
577,115,70,971,7,48,9
578,-311,85,868,-19,54,19
579,-476,-15,848,-27,10,8
580,-170,-123,1019,-21,-51,-2
581,334,-131,1135,1,-68,4
582,475,-33,1090,16,-21,5
583,164,62,989,7,43,8
584,-266,76,880,-13,56,19
585,-489,9,851,-26,16,12
586,-218,-113,982,-25,-45,-3
587,289,-125,1131,3,-71,0
588,472,-42,1093,10,-26,3
589,228,41,1003,8,36,7
590,-233,89,906,-7,57,16
591,-492,-1,838,-30,22,11
592,-259,-116,963,-18,-40,-2
593,233,-134,1123,3,-71,0
594,477,-73,1089,13,-33,3
595,274,50,1017,22,30,3
596,-186,98,918,-5,59,16
597,-480,15,831,-22,29,14
598,-313,-82,953,-19,-33,-3
599,180,-141,1104,-2,-73,-2
600,479,-69,1102,19,-40,4
601,319,34,1011,14,24,1
602,-121,79,917,1,59,14
603,-474,42,855,-15,38,14
604,-365,-75,934,-24,-27,-1
605,109,-123,1093,-3,-72,-2
606,471,-79,1111,13,-49,2
607,367,29,1025,17,16,1
608,-54,86,933,-1,57,13
609,-441,40,854,-24,43,17
610,-416,-59,911,-23,-16,0
611,44,-140,1098,-6,-69,-3
612,438,-92,1114,11,-54,4
613,407,22,1037,21,5,3
614,7,82,942,2,56,11
615,-398,50,851,-17,49,18
616,-451,-38,892,-20,-6,4
617,-28,-127,1085,-17,-65,-5
618,407,-100,1134,7,-61,4
619,435,13,1049,16,-4,3
620,70,64,940,-1,53,12
621,-364,52,854,-14,53,17
622,-465,-26,879,-27,2,4
623,-98,-145,1054,-14,-60,-2
624,366,-91,1147,10,-65,4
625,464,-8,1066,12,-11,3
626,110,72,956,5,48,12
627,-318,70,864,-18,55,18
628,-477,-29,849,-28,10,7
629,-159,-125,1030,-16,-52,-2
630,333,-117,1141,3,-68,2
631,473,-20,1081,15,-21,3
632,160,69,987,10,43,9
633,-269,70,869,-18,56,19
634,-483,-3,837,-24,18,9
635,-212,-126,998,-22,-47,-5
636,301,-131,1144,6,-70,2
637,469,-27,1096,20,-25,4
638,213,47,995,6,37,7
639,-239,84,892,-6,59,17
640,-484,10,836,-26,21,10
641,-257,-100,979,-21,-43,-3
642,250,-119,1129,4,-72,1
643,480,-49,1098,10,-33,3
644,258,49,1002,15,32,6
645,-192,77,912,-9,59,17
646,-491,12,836,-26,30,13
647,-295,-98,958,-20,-36,-2
648,186,-131,1118,-2,-72,-2
649,480,-61,1097,13,-41,3
650,312,38,1007,14,25,5
651,-139,88,923,-5,59,17
652,-475,25,841,-24,37,15
653,-347,-82,943,-23,-28,-1
654,130,-127,1102,-6,-72,-3
655,470,-78,1096,12,-47,3
656,354,26,1019,12,19,3
657,-80,84,929,-1,58,14
658,-451,37,854,-21,41,15
659,-392,-77,926,-26,-20,0
660,74,-127,1097,-2,-70,-2
661,450,-83,1107,11,-53,3
662,385,21,1028,16,9,3
663,-19,88,939,2,57,13
664,-421,42,851,-23,46,16
665,-429,-56,908,-19,-9,-1
666,9,-134,1095,-8,-67,-4
667,418,-97,1124,9,-58,4
668,415,14,1039,22,1,2
669,36,83,942,3,54,11
670,-393,56,857,-14,52,15
671,-446,-46,888,-25,-4,3
672,-57,-131,1069,-12,-64,-2
673,394,-107,1137,12,-62,4
674,439,5,1062,16,-7,1
675,81,74,950,4,50,11
676,-343,59,858,-15,55,19
677,-470,-27,860,-25,6,4
678,-119,-136,1039,-13,-58,-4
679,351,-116,1150,9,-67,2
680,473,-8,1076,16,-17,4
681,128,69,966,12,47,10
682,-299,67,862,-6,57,18
683,-482,-4,843,-22,13,9
684,-191,-112,1019,-18,-51,-4
685,314,-117,1145,4,-70,1
686,479,-19,1091,14,-24,3
687,189,52,987,6,42,8
688,-244,69,878,-15,60,18
689,-492,-2,833,-24,21,9
690,-243,-113,984,-20,-44,-5
691,267,-120,1143,4,-72,2
692,476,-31,1101,15,-33,4
693,245,57,1000,9,33,6
694,-205,79,899,-9,60,16
695,-485,7,837,-30,26,11
696,-282,-107,962,-19,-38,-4
697,214,-129,1131,0,-72,0
698,468,-45,1095,14,-36,4
699,285,31,1011,9,27,6
700,-165,89,921,-3,59,16
701,-474,21,834,-27,30,13
702,-324,-101,947,-22,-31,-4
703,164,-124,1118,-2,-73,-3
704,474,-64,1095,13,-42,4
705,321,44,1013,14,22,3
706,-119,83,917,-7,58,15
707,-462,20,852,-24,35,16
708,-360,-77,941,-24,-26,-3
709,119,-139,1090,-4,-73,-3
710,464,-77,1105,13,-48,5
711,357,39,1023,14,17,3
712,-76,88,929,-1,57,14
713,-444,39,856,-27,40,16
714,-395,-69,925,-25,-20,0
715,77,-146,1095,-8,-70,-4
716,453,-92,1108,8,-52,4
717,378,14,1032,18,11,2
718,-23,94,938,5,57,10
719,-430,52,857,-23,45,16
720,-418,-66,902,-23,-14,2
721,23,-133,1085,-9,-69,-3
722,428,-106,1123,10,-56,3
723,407,19,1041,23,3,1
724,22,81,946,2,53,11
725,-399,69,855,-14,51,18
726,-444,-35,885,-29,-6,3
727,-47,-138,1063,-14,-65,-3
728,403,-113,1138,9,-63,2
729,453,-2,1060,16,-6,3
730,65,76,949,6,52,10
731,-350,67,858,-16,53,18
732,-468,-26,859,-28,4,6
733,-117,-130,1043,-12,-58,-4
734,371,-115,1136,5,-66,2
735,468,-9,1075,18,-14,2
736,129,62,973,5,47,7
737,-305,73,869,-13,56,17
738,-482,-7,844,-23,12,8
739,-174,-130,1011,-20,-53,-3
740,324,-122,1133,6,-69,0
741,483,-29,1090,19,-23,3
742,178,57,991,8,43,7
743,-253,80,889,-7,58,19
744,-495,1,840,-27,20,11
745,-233,-113,983,-20,-45,-3
746,276,-130,1132,6,-72,1
747,479,-43,1098,16,-29,4
748,247,50,1003,13,35,5
749,-210,83,906,-4,60,17
750,-498,20,839,-25,27,13
751,-291,-95,956,-20,-37,-4
752,206,-128,1124,-1,-75,-2
753,484,-58,1093,12,-39,3
754,310,36,1013,15,27,6
755,-153,82,920,-4,60,16
756,-484,20,841,-20,36,14
757,-352,-85,941,-21,-27,-3
758,141,-130,1110,-2,-74,-2
759,481,-71,1102,14,-46,5
760,356,39,1018,15,20,3
761,-86,82,919,-3,59,15
762,-460,33,859,-20,42,15
763,-400,-73,924,-24,-21,-1
764,76,-124,1096,-2,-71,-2
765,455,-79,1110,7,-52,4
766,398,23,1027,17,9,2
767,-28,84,937,2,58,12
768,-427,32,849,-22,48,15
769,-430,-64,910,-21,-11,1
770,9,-123,1090,-6,-68,-4
771,432,-93,1121,9,-58,4
772,416,19,1044,18,2,2
773,32,80,946,3,54,10
774,-390,55,854,-19,52,19
775,-457,-51,877,-25,-2,3
776,-51,-123,1083,-10,-65,-4
777,391,-99,1140,7,-63,3
778,449,0,1052,14,-7,2
779,80,78,944,4,51,11
780,-351,52,857,-16,55,18
781,-474,-33,872,-28,5,4
782,-124,-123,1045,-11,-59,-2
783,361,-117,1147,6,-67,4
784,467,-3,1067,16,-14,3
785,132,66,963,6,46,9
786,-297,63,865,-15,57,19
787,-483,-2,841,-22,13,7
788,-182,-125,1025,-19,-52,-4
789,324,-110,1146,4,-68,3
790,479,-22,1086,17,-22,4
791,181,54,985,5,42,5
792,-253,68,881,-12,58,18
793,-495,-4,830,-20,21,9
794,-232,-105,988,-20,-45,-4
795,278,-112,1146,4,-71,2
796,477,-29,1092,13,-29,5
797,243,53,1006,5,35,8
798,-212,72,901,-10,60,19
799,-491,1,831,-28,26,11
800,-290,-104,963,-19,-37,-2
801,222,-129,1133,2,-75,2
802,477,-47,1097,12,-37,5
803,292,41,1010,15,28,6
804,-165,86,922,-6,60,17
805,-478,18,832,-28,33,15
806,-333,-88,943,-20,-31,-2
807,159,-126,1118,-3,-73,-2
808,474,-57,1096,13,-44,6
809,336,35,1019,14,22,5
810,-110,72,922,-6,61,15
811,-462,16,842,-22,40,16
812,-374,-80,931,-25,-23,-2
813,101,-133,1098,-1,-72,-2
814,464,-74,1110,13,-50,5
815,374,36,1022,14,14,4
816,-57,79,923,-3,59,15
817,-436,43,859,-20,44,16
818,-412,-75,909,-27,-15,-1
819,47,-133,1099,-2,-71,-3
820,439,-78,1119,10,-55,3
821,402,22,1035,17,6,1
822,1,78,936,-1,57,12
823,-405,47,852,-23,47,18
824,-445,-55,897,-23,-7,1
825,-13,-133,1087,-10,-66,-4
826,410,-93,1138,8,-60,6
827,427,2,1041,17,-2,2
828,56,89,945,5,53,11
829,-379,54,856,-17,53,18
830,-460,-49,874,-26,1,3
831,-82,-122,1062,-11,-62,-5
832,382,-109,1146,10,-64,4
833,454,-2,1060,15,-11,4
834,102,79,955,5,49,10
835,-331,60,861,-15,56,18
836,-474,-29,843,-26,9,5
837,-151,-121,1039,-11,-56,-2
838,348,-113,1152,4,-70,4
839,477,-10,1076,16,-20,2
840,145,68,973,7,46,6
841,-281,61,874,-16,56,19
842,-489,-13,832,-24,16,8
843,-199,-122,1004,-20,-50,-4
844,306,-115,1148,8,-71,2
845,479,-30,1087,18,-26,2
846,207,54,998,10,40,8
847,-246,83,887,-9,59,18
848,-490,2,822,-24,21,8
849,-251,-106,983,-19,-44,-3
850,258,-120,1141,5,-72,1
851,485,-45,1100,13,-32,4
852,247,51,1000,12,33,4
853,-196,75,910,-8,58,17
854,-488,5,832,-26,29,13
855,-296,-93,952,-17,-37,-2
856,205,-127,1130,0,-74,-3
857,476,-51,1099,14,-39,3
858,298,52,1018,14,27,3
859,-152,73,917,-9,59,14
860,-477,25,834,-23,34,13
861,-337,-92,938,-24,-29,-4
862,152,-138,1117,-4,-75,-2
863,468,-57,1101,18,-44,4
864,340,31,1012,12,20,0
865,-103,78,930,-2,59,15
866,-453,39,848,-20,39,17
867,-378,-73,930,-27,-24,-2
868,92,-130,1089,-2,-72,-2
869,466,-72,1116,8,-52,5
870,368,23,1026,12,13,1
871,-47,80,932,0,58,12
872,-435,36,853,-21,45,16
873,-414,-71,910,-24,-15,0
874,42,-132,1099,-5,-69,-3
875,436,-90,1121,8,-55,4
876,397,23,1035,21,4,1
877,7,91,948,-1,54,12
878,-409,44,849,-23,48,18
879,-440,-50,887,-21,-7,2
880,-27,-132,1082,-13,-66,-3
881,409,-108,1136,9,-62,4
882,432,1,1056,19,-3,1
883,59,81,945,4,52,11
884,-368,53,854,-18,53,19
885,-467,-39,868,-25,2,3
886,-92,-131,1054,-10,-63,-4
887,373,-98,1149,10,-65,3
888,465,-9,1065,17,-13,-1
889,106,64,959,9,49,7
890,-322,69,863,-12,56,17
891,-481,-22,845,-24,8,4
892,-164,-121,1028,-13,-55,-4
893,340,-108,1145,8,-70,1
894,489,-26,1084,17,-23,2
895,165,66,991,11,43,6
896,-268,72,870,-14,58,18
897,-502,1,826,-22,18,9
898,-225,-102,994,-20,-47,-5
899,293,-117,1155,2,-73,1
900,488,-40,1093,16,-29,3
901,232,51,1001,8,37,6
902,-223,63,891,-9,60,17
903,-493,2,831,-24,25,12
904,-286,-92,962,-19,-39,-4
905,237,-129,1142,4,-75,1
906,481,-32,1100,14,-34,4
907,286,42,1004,11,29,4
908,-168,65,918,-7,60,15
909,-491,23,833,-25,32,13
910,-323,-98,936,-23,-31,-2
911,174,-119,1128,-2,-74,1
912,473,-56,1094,11,-41,5
913,338,36,1022,13,23,3
914,-120,79,921,-8,61,17
915,-472,23,839,-23,38,16
916,-371,-78,928,-25,-24,-2
917,115,-130,1105,-4,-73,1
918,468,-64,1106,11,-47,8
919,372,32,1024,9,16,4
920,-66,73,928,-5,60,15
921,-444,44,858,-22,43,17
922,-407,-77,906,-29,-17,0
923,49,-128,1096,-6,-70,-2
924,455,-82,1117,5,-55,6
925,400,21,1038,14,7,5
926,-12,81,936,0,58,11
927,-414,41,853,-25,48,17
928,-441,-69,893,-23,-8,1
929,1,-136,1095,-8,-68,-3
930,421,-98,1127,12,-60,5
931,415,12,1036,22,0,2
932,48,81,953,4,53,11
933,-388,57,855,-15,52,17
934,-453,-42,877,-24,-2,2
935,-74,-124,1064,-9,-63,-5
936,396,-112,1143,10,-65,3
937,451,5,1068,18,-8,1
938,84,71,943,3,50,9
939,-336,63,861,-13,54,18
940,-484,-23,853,-26,6,5
941,-134,-127,1039,-13,-59,-5
942,360,-107,1156,6,-69,2
943,473,-26,1065,16,-18,2
944,145,79,977,14,47,8
945,-295,69,864,-17,57,19
946,-492,-14,831,-23,15,9
947,-197,-103,1025,-18,-52,-6
948,319,-123,1147,1,-73,1
949,481,-28,1084,19,-25,3
950,202,60,991,5,40,7
951,-247,62,881,-13,58,18
952,-500,1,834,-23,21,9
953,-248,-100,983,-21,-44,-3
954,273,-127,1139,2,-74,3
955,479,-27,1102,13,-32,4
956,247,50,1000,9,32,4
957,-202,80,911,-9,59,17
958,-495,7,834,-31,28,12
959,-275,-103,956,-20,-38,-2
960,217,-131,1130,2,-73,2
961,471,-56,1089,13,-35,4
962,290,35,1018,13,27,5
963,-171,83,921,-5,60,17
964,-469,11,833,-23,33,16
965,-326,-87,944,-20,-30,0
966,160,-133,1107,-4,-73,-1
967,478,-59,1102,17,-43,5
968,325,43,1021,13,23,3
969,-112,77,921,-3,59,13
970,-455,26,850,-23,38,16
971,-379,-78,915,-26,-23,0
972,103,-148,1096,-3,-72,-4
973,466,-77,1110,13,-49,3
974,377,37,1033,16,11,3
975,-48,81,931,2,59,11
976,-425,50,854,-20,45,15
977,-433,-62,897,-24,-14,0
978,29,-141,1096,-7,-71,-4
979,438,-86,1128,11,-57,5
980,411,17,1032,20,3,3
981,26,73,946,1,55,10
982,-396,60,851,-16,52,18
983,-457,-58,879,-23,-3,2
984,-52,-120,1087,-8,-65,-4
985,399,-96,1138,8,-63,5
986,443,0,1051,17,-7,2
987,76,77,950,5,51,8
988,-343,51,856,-16,54,20
989,-476,-30,862,-25,6,5
990,-119,-119,1049,-12,-58,-4
991,359,-111,1152,8,-68,5
992,471,-12,1069,15,-15,3
993,127,72,965,8,48,7
994,-300,63,856,-15,56,19
995,-481,-21,839,-24,12,7
996,-185,-110,1025,-13,-52,-5
997,320,-106,1156,5,-71,3
998,479,-28,1079,16,-23,3
999,184,64,991,10,42,7
1000,-250,67,875,-14,59,19
1001,-492,-12,829,-24,20,10
1002,-236,-108,994,-20,-46,-5
1003,274,-117,1146,3,-73,2
1004,477,-36,1098,16,-31,4
1005,236,53,999,7,35,5
1006,-203,66,902,-7,59,18
1007,-492,4,831,-26,28,11
1008,-285,-95,952,-18,-38,-4
1009,222,-115,1143,0,-76,1
1010,472,-45,1095,10,-37,4
1011,293,47,1013,12,27,4
1012,-167,69,921,-11,61,16
1013,-477,14,832,-24,33,14
1014,-330,-82,940,-20,-30,-2
1015,160,-133,1117,-7,-74,0
1016,470,-58,1095,14,-44,4
1017,329,41,1019,15,21,3
1018,-108,67,925,-5,57,15
1019,-457,25,843,-24,38,15
1020,-368,-76,928,-28,-24,-2
1021,106,-138,1097,2,-71,0
1022,457,-67,1112,7,-49,7
1023,366,35,1025,18,15,2
1024,-56,76,932,-6,58,13
1025,-436,40,852,-18,44,16
1026,-409,-66,912,-26,-17,1
1027,45,-138,1090,-6,-71,-2
1028,447,-80,1121,10,-55,6
1029,393,33,1039,17,7,2
1030,1,65,939,-2,57,10
1031,-407,53,853,-21,48,18
1032,-444,-50,889,-23,-7,1
1033,-16,-139,1085,-14,-65,-4
1034,418,-91,1143,10,-59,7
1035,416,4,1042,18,-1,2
1036,55,78,944,2,52,10
1037,-375,63,863,-18,52,18
1038,-452,-42,870,-28,0,4
1039,-81,-129,1060,-14,-61,-2
1040,377,-105,1149,8,-63,4
1041,454,-9,1060,12,-11,3
1042,86,78,959,7,50,9
1043,-327,64,858,-17,54,17
1044,-460,-26,852,-29,7,7
1045,-143,-122,1032,-14,-54,-3
1046,354,-119,1148,2,-67,3
1047,455,-14,1074,16,-17,4
1048,133,70,982,5,44,7
1049,-292,73,875,-15,56,18
1050,-474,-4,833,-24,13,8
1051,-175,-129,1008,-22,-51,-1
1052,316,-120,1143,4,-69,4
1053,465,-31,1090,18,-23,2
1054,174,62,1002,6,41,5
1055,-250,78,888,-11,55,18
1056,-485,-11,827,-29,18,9
1057,-219,-112,981,-18,-46,-4
1058,279,-136,1130,1,-71,3
1059,469,-47,1098,18,-28,2
1060,221,58,1008,16,35,3
1061,-215,80,911,-9,56,18
1062,-488,13,831,-24,24,11
1063,-265,-93,954,-17,-39,-5
1064,226,-144,1122,-1,-74,1
1065,478,-55,1096,18,-35,3
1066,276,55,1013,16,30,1
1067,-173,70,921,-8,59,15
1068,-479,26,840,-21,33,15
1069,-327,-82,933,-26,-32,-3
1070,165,-140,1103,-3,-75,-1
1071,482,-60,1105,17,-44,4
1072,335,44,1026,12,22,2
1073,-107,76,924,-6,61,14
1074,-456,40,851,-22,39,15
1075,-386,-71,913,-28,-22,0
1076,95,-147,1098,-5,-72,-1
1077,467,-69,1120,11,-51,6
1078,373,38,1024,14,12,3
1079,-38,77,942,-3,58,12
1080,-431,62,860,-25,45,18
1081,-411,-75,894,-30,-13,2
1082,31,-150,1091,-11,-67,0
1083,434,-92,1131,8,-56,5
1084,395,3,1042,15,3,3
1085,-4,98,946,3,56,9
1086,-395,62,857,-23,47,17
1087,-424,-52,877,-31,-5,3
1088,-22,-147,1070,-12,-64,-3
1089,409,-113,1139,10,-58,5
1090,418,0,1060,19,-1,2
1091,26,69,941,2,53,7
1092,-356,71,870,-10,49,17
1093,-448,-45,850,-29,2,6
1094,-94,-138,1034,-7,-60,-3
1095,388,-114,1155,9,-64,1
1096,453,-21,1068,20,-11,3
1097,99,72,978,14,50,6
1098,-311,78,871,-12,56,17
1099,-480,-19,821,-23,12,9
1100,-181,-113,1012,-13,-53,-4
1101,337,-110,1158,7,-74,1
1102,476,-34,1081,20,-24,1
1103,189,70,1006,9,42,5
1104,-247,79,888,-11,59,17
1105,-490,1,819,-25,23,11
1106,-258,-101,974,-18,-44,-3
1107,257,-124,1147,3,-74,-1
1108,479,-48,1103,12,-35,3
1109,256,48,1009,12,32,3
1110,-183,78,905,-7,59,15
1111,-470,11,829,-25,31,13
1112,-311,-87,945,-19,-33,-2
1113,188,-122,1140,-1,-74,-1
1114,462,-47,1101,12,-40,5
1115,296,40,1008,14,25,2
1116,-134,75,930,-8,58,14
1117,-450,19,832,-25,34,15
1118,-327,-83,928,-22,-27,0
1119,140,-126,1117,-3,-71,0
1120,449,-61,1096,13,-43,5
1121,312,45,1023,14,20,1
1122,-98,84,926,-5,55,12
1123,-435,14,850,-27,36,15
1124,-348,-75,922,-23,-23,0
1125,118,-142,1097,-6,-70,2
1126,436,-79,1103,10,-44,5
1127,335,38,1029,17,13,1
1128,-75,74,934,-1,56,13
1129,-429,47,850,-20,38,16
1130,-378,-63,907,-24,-20,0
1131,73,-142,1098,-6,-70,0
1132,445,-82,1120,10,-51,6
1133,366,13,1038,17,10,-1
1134,-26,74,944,-1,55,9
1135,-415,63,856,-14,44,18
1136,-425,-52,881,-27,-12,1
1137,5,-135,1076,-12,-69,-5
1138,426,-103,1139,12,-59,3
1139,420,10,1061,16,1,0
1140,30,76,942,2,53,9
1141,-380,65,857,-17,50,18
1142,-452,-33,867,-28,0,2
1143,-80,-136,1049,-12,-62,-4
1144,392,-104,1147,6,-66,4
1145,452,-4,1068,15,-11,0
1146,89,71,959,6,49,6
1147,-333,83,868,-16,54,17
1148,-464,-21,853,-32,5,7
1149,-131,-127,1024,-18,-54,-4
1150,356,-118,1139,2,-66,4
1151,465,-31,1078,15,-17,3
1152,124,74,990,6,46,4
1153,-289,76,876,-18,54,17
1154,-471,-8,844,-29,11,11
1155,-174,-119,996,-23,-48,-4
1156,329,-129,1134,2,-68,3
1157,460,-33,1100,13,-20,3
1158,162,46,984,8,40,2
1159,-268,83,905,-10,54,15
1160,-477,-1,840,-30,16,11
1161,-197,-111,975,-18,-45,-1
1162,292,-133,1123,3,-69,2
1163,471,-48,1094,14,-23,4
1164,198,52,1002,14,37,2
1165,-242,90,916,-9,53,15
1166,-482,16,837,-26,21,13
1167,-241,-104,958,-23,-41,-2
1168,251,-146,1110,0,-71,2
1169,477,-62,1091,18,-30,4
1170,246,44,1016,16,33,0
1171,-202,84,917,-3,56,13
1172,-471,29,851,-20,26,16
1173,-289,-81,939,-25,-35,0
1174,199,-148,1099,-1,-71,0
1175,487,-78,1103,16,-37,5
1176,290,47,1028,20,28,2
1177,-154,91,930,-1,58,11
1178,-463,47,849,-25,32,16
1179,-345,-65,927,-23,-28,2
1180,145,-147,1098,-9,-74,-1
1181,479,-92,1109,12,-45,4
1182,335,25,1033,21,20,2
1183,-90,83,941,-1,56,8
1184,-451,54,860,-20,39,16
1185,-389,-56,896,-25,-19,5
1186,74,-151,1085,-11,-70,1
1187,451,-108,1122,14,-51,3
1188,385,12,1050,19,10,0
1189,-41,73,946,5,56,8
1190,-412,72,855,-9,44,15
1191,-417,-31,876,-28,-11,4
1192,-8,-133,1052,-11,-65,0
1193,432,-104,1145,11,-59,3
1194,423,-12,1058,14,2,0
1195,21,65,962,12,54,7
1196,-375,77,859,-14,49,15
1197,-448,-26,845,-26,-3,7
1198,-80,-130,1040,-13,-60,0
1199,391,-106,1144,6,-65,2
1200,454,-19,1072,15,-9,0
1201,84,63,991,9,48,4
1202,-324,81,871,-10,52,16
1203,-466,-4,836,-24,8,10
1204,-145,-111,1007,-21,-54,-1
1205,351,-115,1143,5,-69,2
1206,466,-32,1099,16,-16,3
1207,144,57,986,7,44,3
1208,-278,69,899,-9,53,15
1209,-485,3,833,-27,17,11
1210,-196,-99,977,-19,-48,2
1211,292,-125,1129,-1,-70,4
1212,477,-45,1096,14,-26,3
1213,202,54,1009,13,39,2
1214,-234,78,917,-10,56,14
1215,-485,22,832,-29,23,14
1216,-254,-93,950,-24,-41,0
1217,237,-141,1121,-6,-71,2
1218,486,-61,1096,15,-31,6
1219,255,38,1012,11,33,2
1220,-185,77,918,-5,57,13
1221,-473,37,847,-21,29,15
1222,-313,-83,931,-28,-33,1
1223,174,-130,1107,-4,-73,2
1224,482,-85,1102,8,-40,4
1225,299,42,1017,16,24,0
1226,-127,79,930,-3,57,10
1227,-455,34,855,-24,35,15
1228,-356,-64,922,-26,-25,1
1229,129,-148,1099,-9,-71,1
1230,459,-87,1105,8,-44,5
1231,334,31,1033,18,15,-1
1232,-78,78,941,-1,53,8
1233,-436,54,856,-19,38,17
1234,-388,-61,905,-25,-18,2
1235,75,-152,1085,-13,-70,-1
1236,445,-97,1128,15,-51,4
1237,372,9,1042,19,11,-1
1238,-35,86,941,5,54,9
1239,-418,65,858,-17,42,18
1240,-421,-41,886,-25,-12,2
1241,6,-145,1058,-13,-66,-4
1242,429,-110,1130,13,-57,5
1243,424,5,1061,16,2,2
1244,20,72,962,8,53,8
1245,-377,77,866,-14,49,18
1246,-454,-14,856,-27,-2,6
1247,-75,-141,1029,-16,-61,-1
1248,400,-118,1139,5,-64,4
1249,461,-15,1082,21,-8,3
1250,88,64,984,5,51,7
1251,-331,76,871,-12,54,18
1252,-480,-5,838,-24,8,9
1253,-160,-118,1004,-21,-53,-2
1254,355,-119,1143,4,-70,3
1255,471,-15,1098,17,-18,3
1256,166,58,988,2,43,3
1257,-274,88,901,-9,58,17
1258,-489,-1,835,-34,17,13
1259,-218,-114,964,-22,-45,-1
1260,282,-133,1140,-2,-72,1
1261,485,-46,1091,12,-27,5
1262,226,61,1008,15,36,5
1263,-229,88,916,-11,58,15
1264,-482,21,835,-30,26,16
1265,-275,-101,950,-26,-37,1
1266,226,-145,1116,-6,-71,0
1267,484,-67,1097,11,-35,7
1268,273,38,1012,13,31,2
1269,-168,87,921,-5,58,14
1270,-468,28,847,-25,31,16
1271,-329,-89,929,-28,-29,-1
1272,159,-143,1100,-3,-72,-3
1273,479,-86,1108,13,-43,5
1274,330,26,1021,16,23,2
1275,-104,90,935,1,58,14
1276,-447,34,850,-25,39,17
1277,-395,-75,903,-21,-19,0
1278,84,-160,1098,-1,-71,-4
1279,455,-94,1120,15,-52,5
1280,381,24,1032,25,10,1
1281,-26,97,949,8,55,9
1282,-412,62,857,-17,47,19
1283,-438,-47,885,-22,-10,3
1284,2,-133,1087,-11,-68,-7
1285,420,-118,1137,11,-59,3
1286,424,5,1048,22,0,1
1287,42,89,953,6,54,9
1288,-375,47,850,-13,52,18
1289,-460,-29,870,-24,1,5
1290,-89,-133,1049,-9,-61,-6
1291,376,-111,1146,11,-68,2
1292,460,3,1069,20,-12,1
1293,107,69,967,9,48,8
1294,-314,71,859,-14,56,19
1295,-471,-6,843,-24,10,8
1296,-169,-116,1026,-15,-53,-5
1297,340,-122,1150,1,-70,4
1298,460,-17,1080,18,-19,3
1299,164,50,984,6,42,5
1300,-265,70,878,-10,56,19
1301,-476,-2,825,-21,16,9
1302,-206,-110,1001,-20,-46,-5
1303,295,-116,1148,4,-70,3
1304,465,-27,1094,16,-25,4
1305,196,45,993,5,38,4
1306,-238,75,895,-6,55,16
1307,-484,8,834,-29,20,10
1308,-244,-114,973,-20,-43,-4
1309,265,-121,1139,4,-73,1
1310,473,-40,1094,13,-30,5
1311,240,40,1009,12,33,2
1312,-209,84,922,-7,56,14
1313,-486,12,828,-27,25,14
1314,-285,-92,950,-20,-38,-3
1315,215,-134,1119,-5,-73,0
1316,485,-64,1094,14,-37,5
1317,292,42,1020,15,28,2
1318,-160,76,914,-5,58,14
1319,-476,27,840,-19,34,15
1320,-352,-83,931,-26,-30,-2
1321,153,-136,1109,0,-75,0
1322,478,-65,1115,13,-46,5
1323,352,32,1015,12,18,2
1324,-90,84,932,-2,57,14
1325,-456,38,850,-24,42,17
1326,-398,-71,914,-25,-21,0
1327,70,-139,1101,-6,-72,-4
1328,457,-85,1112,10,-55,5
1329,388,29,1035,20,9,3
1330,-17,83,941,-2,56,12
1331,-416,52,857,-23,46,18
1332,-438,-54,888,-24,-9,3
1333,1,-138,1087,-15,-68,-3
1334,419,-97,1135,9,-58,4
1335,418,4,1046,14,-2,1
1336,36,84,946,3,51,9
1337,-381,64,859,-16,50,18
1338,-445,-48,877,-30,-3,4
1339,-64,-126,1057,-13,-62,-4
1340,383,-114,1139,6,-63,3
1341,441,12,1071,16,-7,2
1342,69,80,951,2,48,8
1343,-339,62,857,-20,50,17
1344,-457,-20,865,-29,3,7
1345,-118,-142,1028,-16,-56,-4
1346,372,-127,1148,2,-66,4
1347,448,-12,1071,18,-12,2
1348,108,67,973,5,43,4
1349,-303,76,871,-15,51,18
1350,-471,-9,847,-27,9,9
1351,-149,-127,1014,-21,-52,-6
1352,331,-129,1132,4,-67,1
1353,457,-26,1088,18,-18,3
1354,158,59,986,10,40,4
1355,-270,81,890,-17,52,17
1356,-480,3,849,-28,14,10
1357,-194,-115,981,-21,-48,-4
1358,293,-128,1134,0,-68,1
1359,463,-44,1082,15,-24,2
1360,205,60,1001,12,35,4
1361,-240,85,909,-5,54,15
1362,-479,8,848,-32,19,12
1363,-239,-114,968,-17,-41,-3
1364,249,-136,1114,-3,-69,2
1365,469,-59,1085,17,-29,4
1366,256,50,1010,13,31,1
1367,-204,92,922,-2,56,13
1368,-473,25,848,-24,27,15
1369,-286,-87,950,-24,-35,-1
1370,186,-150,1089,-8,-68,-2
1371,486,-65,1110,17,-38,5
1372,283,43,1011,13,27,0
1373,-148,84,914,0,56,13
1374,-462,44,863,-23,32,18
1375,-334,-85,928,-29,-27,1
1376,149,-150,1099,-4,-70,-3
1377,464,-73,1112,12,-41,2
1378,330,17,1018,16,19,3
1379,-102,96,936,4,55,10
1380,-450,52,863,-23,36,16
1381,-369,-75,913,-23,-22,0
1382,96,-136,1093,-7,-68,-3
1383,457,-106,1118,8,-48,4
1384,356,19,1036,20,13,0
1385,-54,89,939,3,53,8
1386,-428,62,858,-17,40,19
1387,-400,-60,895,-27,-16,2
1388,46,-144,1070,-11,-66,-2
1389,431,-111,1130,12,-52,2
1390,395,3,1052,19,7,-1
1391,-20,89,952,12,52,8
1392,-406,66,850,-15,44,17
1393,-418,-31,881,-26,-9,6
1394,-23,-138,1049,-12,-63,-3
1395,429,-120,1128,8,-60,3
1396,421,-12,1070,20,0,2
1397,36,72,963,11,51,6
1398,-366,82,864,-13,49,17
1399,-458,-14,855,-24,-1,8
1400,-76,-127,1035,-16,-59,-2
1401,387,-116,1132,6,-63,2
1402,456,-32,1079,18,-9,1
1403,95,66,979,10,47,4
1404,-321,79,883,-7,50,17
1405,-477,0,850,-26,10,10
1406,-146,-97,1004,-18,-53,-2
1407,343,-134,1124,-1,-66,1
1408,465,-32,1095,16,-17,1
1409,171,49,989,9,41,4
1410,-273,73,907,-5,55,19
1411,-491,12,840,-29,19,15
1412,-223,-107,967,-20,-44,1
1413,271,-130,1125,2,-70,1
1414,478,-44,1092,12,-26,4
1415,238,43,1005,15,33,3
1416,-212,85,916,-8,56,15
1417,-476,19,842,-21,27,17
1418,-289,-96,945,-25,-35,2
1419,198,-129,1112,-2,-69,-2
1420,479,-73,1091,13,-37,3
1421,294,38,1023,14,25,3
1422,-145,83,915,0,56,12
1423,-451,35,853,-21,34,17
1424,-347,-81,932,-26,-26,1
1425,138,-140,1100,-1,-70,-1
1426,459,-69,1115,10,-43,7
1427,334,25,1015,14,17,3
1428,-88,89,937,4,55,9
1429,-434,45,855,-23,37,17
1430,-367,-74,916,-24,-20,4
1431,78,-132,1097,-8,-66,-3
1432,441,-93,1114,8,-47,4
1433,347,27,1036,18,11,4
1434,-45,72,933,-2,51,8
1435,-412,50,863,-15,39,17
1436,-395,-59,897,-22,-14,3
1437,48,-149,1080,-10,-65,-1
1438,415,-90,1135,16,-50,5
1439,384,6,1041,17,8,2
1440,-19,84,942,7,52,7
1441,-393,73,867,-11,42,17
1442,-413,-48,872,-32,-7,8
1443,-36,-124,1055,-8,-61,-1
1444,413,-112,1136,5,-60,1
1445,420,-15,1062,16,0,2
1446,37,82,965,12,51,6
1447,-347,67,861,-19,47,18
1448,-451,-19,841,-24,1,10
1449,-97,-108,1038,-14,-56,-3
1450,379,-128,1144,-1,-63,1
1451,444,-16,1080,18,-11,2
1452,101,70,977,4,44,4
1453,-302,70,871,-15,51,17
1454,-468,0,847,-26,9,12
1455,-159,-121,1002,-25,-52,-3
1456,332,-124,1135,5,-66,1
1457,445,-28,1089,13,-18,2
1458,161,62,991,7,37,2
1459,-258,86,901,-10,51,15
1460,-474,9,847,-32,16,12
1461,-195,-109,974,-24,-44,-2
1462,280,-135,1130,-3,-67,1
1463,450,-53,1083,11,-23,3
1464,201,55,1002,13,33,0
1465,-235,77,916,-12,51,12
1466,-457,14,846,-28,19,15
1467,-227,-100,964,-25,-39,1
1468,243,-150,1103,-6,-66,0
1469,456,-62,1095,18,-28,5
1470,232,38,1006,10,32,2
1471,-193,75,917,-1,51,15
1472,-461,28,846,-18,27,15
1473,-278,-95,948,-24,-35,1
1474,190,-144,1096,0,-68,0
1475,469,-61,1104,18,-37,4
1476,286,41,1017,17,27,1
1477,-136,92,929,3,54,12
1478,-446,43,860,-25,32,19
1479,-349,-76,917,-25,-26,5
1480,123,-140,1101,-3,-69,-2
1481,454,-85,1120,13,-45,3
1482,340,20,1021,20,16,1
1483,-67,92,948,3,53,9
1484,-428,58,851,-20,40,17
1485,-384,-56,898,-25,-16,5
1486,50,-135,1095,-11,-65,-2
1487,437,-86,1134,8,-52,4
1488,370,16,1038,11,8,2
1489,-23,82,938,0,52,8
1490,-398,71,862,-18,42,17
1491,-407,-58,878,-32,-11,6
1492,7,-144,1068,-13,-64,-1
1493,412,-106,1133,8,-55,3
1494,396,-12,1048,13,3,1
1495,-2,83,957,10,50,6
1496,-374,77,862,-18,43,17
1497,-416,-36,859,-29,-7,8
1498,-32,-127,1048,-12,-59,0
1499,408,-120,1136,-1,-57,4
1500,417,-17,1071,18,-2,1
1501,33,74,976,6,49,4
1502,-345,71,867,-15,47,16
1503,-438,-22,844,-25,1,10
1504,-90,-133,1018,-17,-55,-1
1505,378,-125,1136,7,-62,3
1506,438,-29,1087,19,-7,3
1507,91,70,991,12,46,4
1508,-306,77,895,-8,51,19
1509,-474,4,834,-27,10,11
1510,-162,-116,979,-20,-52,-2
1511,326,-146,1134,3,-68,0
1512,461,-37,1101,19,-19,3
1513,181,50,1000,15,40,4
1514,-255,81,913,-3,54,15
1515,-483,27,831,-23,20,14
1516,-234,-94,964,-19,-43,2
1517,256,-129,1132,0,-71,0
1518,469,-54,1087,15,-29,2
1519,248,42,1011,16,31,3
1520,-194,76,916,-5,56,16
1521,-473,24,839,-18,28,17
1522,-301,-90,939,-23,-34,0
1523,193,-139,1110,0,-72,0
1524,471,-58,1103,18,-37,5
1525,305,46,1013,13,24,1
1526,-137,87,924,2,56,12
1527,-452,47,855,-21,34,16
1528,-342,-72,925,-29,-26,2
1529,126,-141,1100,-7,-69,-1
1530,460,-88,1109,9,-44,3
1531,328,30,1023,19,17,3
1532,-83,85,935,-1,54,9
1533,-435,43,852,-23,37,15
1534,-373,-62,910,-22,-21,2
1535,84,-145,1101,-11,-68,-2
1536,440,-86,1123,10,-49,4
1537,357,21,1032,16,10,0
1538,-43,84,938,1,52,9
1539,-416,61,858,-20,40,17
1540,-398,-65,893,-30,-14,3
1541,30,-143,1077,-10,-66,-2
1542,423,-99,1136,11,-54,4
1543,399,4,1046,14,5,1
1544,-1,83,943,6,50,7
1545,-380,69,865,-15,45,18
1546,-433,-37,869,-30,-6,7
1547,-44,-135,1048,-13,-59,-3
1548,401,-108,1145,5,-60,3
1549,430,-8,1060,11,-5,2
1550,53,72,964,7,48,5
1551,-338,79,864,-16,49,18
1552,-448,-17,853,-26,2,10
1553,-109,-134,1029,-21,-54,-4
1554,367,-110,1143,3,-64,0
1555,444,-25,1076,16,-11,1
1556,111,77,983,9,45,4
1557,-302,91,882,-14,51,16
1558,-468,-16,846,-30,11,9
1559,-167,-131,1000,-26,-50,-4
1560,332,-141,1130,4,-68,1
1561,449,-46,1088,14,-17,3
1562,160,63,996,15,39,2
1563,-259,87,903,-7,52,16
1564,-475,6,844,-28,17,12
1565,-200,-108,972,-18,-45,-3
1566,277,-135,1129,-1,-68,2
1567,460,-59,1086,11,-24,3
1568,215,61,1003,15,33,2
1569,-227,77,914,-10,54,16
1570,-469,8,838,-23,23,14
1571,-258,-99,959,-19,-38,-1
1572,221,-155,1111,-4,-70,-1
1573,469,-54,1093,22,-32,4
1574,275,61,1015,16,30,1
1575,-168,85,916,-6,56,14
1576,-463,37,852,-19,30,17
1577,-322,-83,940,-26,-30,0
1578,155,-158,1092,-6,-70,-3
1579,462,-80,1103,15,-42,3
1580,324,34,1025,17,20,1
1581,-96,88,923,5,55,12
1582,-437,51,859,-22,36,19
1583,-367,-71,917,-22,-21,2
1584,90,-143,1099,-5,-67,-2
1585,437,-86,1116,9,-46,3
1586,358,28,1029,18,11,3
1587,-41,91,933,1,53,13
1588,-413,55,862,-22,41,19
1589,-398,-61,905,-25,-13,3
1590,43,-141,1090,-12,-64,-3
1591,413,-97,1122,6,-50,3
1592,384,8,1039,15,6,2
1593,-4,98,945,3,51,10
1594,-391,71,861,-18,45,17
1595,-413,-49,882,-32,-8,5
1596,-18,-144,1062,-16,-61,-2
1597,406,-110,1141,8,-56,3
1598,407,-9,1052,12,3,3
1599,30,86,953,8,49,7
1600,-366,78,867,-20,47,18
1601,-432,-38,854,-30,-2,9
1602,-75,-136,1044,-12,-57,0
1603,382,-135,1133,3,-61,1
1604,444,-11,1076,19,-7,4
1605,72,78,973,8,49,7
1606,-325,85,874,-17,50,17
1607,-457,-14,840,-27,6,10
1608,-132,-139,1022,-20,-53,-1
1609,353,-133,1137,6,-64,1
1610,451,-31,1084,22,-13,3
1611,124,77,997,13,44,4
1612,-280,99,891,-8,51,18
1613,-472,1,830,-30,13,12
1614,-182,-127,986,-22,-48,-3
1615,317,-141,1140,5,-68,2
1616,451,-56,1090,15,-21,1
1617,184,54,993,19,38,2
1618,-248,99,914,-5,53,17
1619,-480,9,832,-28,19,12
1620,-221,-106,970,-17,-45,-1
1621,260,-146,1129,1,-70,0
1622,465,-70,1076,18,-27,3
1623,229,65,1019,21,34,1
1624,-208,86,915,-7,53,14
1625,-471,31,840,-21,24,15
1626,-273,-82,956,-22,-39,-2
1627,211,-154,1103,-5,-70,-1
1628,469,-65,1102,18,-34,6
1629,273,45,1010,15,29,0
1630,-155,86,920,-2,55,13
1631,-460,47,853,-19,31,17
1632,-323,-81,930,-29,-31,0
1633,164,-151,1098,-3,-70,0
1634,464,-76,1108,13,-40,4
1635,314,35,1022,15,21,1
1636,-106,88,931,3,54,11
1637,-447,55,852,-22,36,19
1638,-362,-74,919,-24,-24,2
1639,108,-152,1104,-8,-69,-1
1640,452,-93,1113,7,-46,7
1641,354,31,1032,20,14,2
1642,-57,95,941,1,54,9
1643,-426,64,858,-20,42,19
1644,-396,-53,896,-30,-15,6
1645,40,-146,1081,-16,-66,0
1646,431,-104,1129,7,-54,5
1647,388,5,1052,13,6,1
1648,-11,88,944,4,55,9
1649,-395,72,857,-18,46,19
1650,-426,-44,875,-32,-8,8
1651,-23,-143,1054,-14,-64,-3
1652,409,-121,1142,5,-58,3
1653,419,-4,1061,15,0,1
1654,35,93,964,8,51,7
1655,-356,84,865,-20,48,17
1656,-450,-36,839,-35,0,7
1657,-88,-138,1041,-13,-58,-3
1658,380,-136,1142,1,-64,2
1659,443,-22,1076,17,-10,0
1660,85,91,978,9,47,3
1661,-307,86,869,-17,48,18
1662,-450,-6,840,-27,7,11
1663,-141,-130,1013,-24,-52,-4
1664,342,-142,1137,1,-64,0
1665,438,-38,1085,15,-16,1
1666,134,61,990,10,40,3
1667,-271,88,893,-6,51,16
1668,-458,3,843,-26,14,12
1669,-176,-126,987,-19,-46,-1
1670,294,-139,1128,3,-64,1
1671,440,-46,1090,18,-19,2
1672,174,65,996,18,37,0
1673,-242,89,915,-6,51,15
1674,-455,9,838,-29,18,15
1675,-206,-101,968,-17,-42,-1
1676,255,-149,1114,-2,-65,-1
1677,449,-59,1092,20,-25,2
1678,215,65,1010,20,34,0
1679,-210,90,917,-7,50,13
1680,-457,36,848,-21,21,16
1681,-253,-93,947,-26,-37,0
1682,219,-152,1105,-6,-67,1
1683,462,-77,1096,16,-31,2
1684,254,47,1018,14,29,1
1685,-172,83,917,1,53,12
1686,-450,43,857,-25,27,17
1687,-300,-83,930,-27,-31,3
1688,164,-154,1103,-4,-68,0
1689,467,-88,1112,11,-39,5
1690,289,40,1018,21,24,1
1691,-114,93,937,6,54,10
1692,-442,57,857,-24,37,21
1693,-349,-64,910,-19,-23,5
1694,111,-147,1103,-16,-70,-2
1695,448,-97,1113,16,-45,5
1696,338,18,1034,15,15,1
1697,-62,92,946,6,53,9
1698,-421,67,854,-21,38,19
1699,-386,-66,888,-28,-16,6
1700,44,-135,1079,-12,-66,-1
1701,431,-121,1136,6,-52,4
1702,373,15,1053,20,8,1
1703,-21,106,948,3,51,7
1704,-388,64,854,-19,43,18
1705,-404,-37,873,-33,-8,7
1706,-17,-153,1048,-12,-61,-1
1707,408,-124,1145,6,-56,4
1708,399,-4,1061,17,0,1
1709,18,83,966,11,50,5
1710,-348,86,865,-18,45,17
1711,-419,-28,842,-30,-4,11
1712,-69,-138,1037,-14,-56,-2
1713,381,-132,1144,4,-59,1
1714,417,-27,1076,18,-5,2
1715,60,83,986,14,46,2
1716,-317,86,868,-12,46,18
1717,-439,-7,840,-25,4,14
1718,-110,-129,1012,-23,-54,-2
1719,356,-126,1137,6,-62,1
1720,431,-46,1085,16,-11,3
1721,104,66,995,14,45,4
1722,-285,87,896,-8,47,18
1723,-460,-2,840,-26,11,14
1724,-154,-115,982,-16,-48,-1
1725,319,-137,1132,5,-65,4
1726,445,-41,1089,16,-17,2
1727,165,67,1005,17,38,1
1728,-262,93,909,-8,52,15
1729,-467,23,838,-27,16,15
1730,-206,-103,960,-24,-43,1
1731,262,-150,1121,-5,-67,-1
1732,463,-65,1085,18,-25,1
1733,221,57,1015,13,34,2
1734,-216,91,916,-7,54,14
1735,-456,31,841,-22,23,15
1736,-267,-91,941,-27,-35,2
1737,214,-159,1105,-4,-69,0
1738,467,-73,1104,17,-32,4
1739,258,39,1015,12,29,0
1740,-158,89,927,1,53,12
1741,-455,56,857,-23,29,18
1742,-303,-80,918,-29,-30,3
1743,159,-156,1107,-5,-68,1
1744,461,-89,1106,13,-38,4
1745,299,40,1028,20,22,1
1746,-120,99,938,3,55,8
1747,-434,56,854,-24,33,16
1748,-347,-71,913,-26,-22,3
1749,116,-158,1098,-12,-68,-1
1750,446,-104,1120,12,-44,4
1751,321,17,1032,20,18,0
1752,-72,90,947,2,52,6
1753,-423,72,856,-15,38,18
1754,-370,-63,887,-29,-18,5
1755,57,-149,1076,-10,-65,-1
1756,433,-121,1134,11,-51,3
1757,365,3,1053,20,11,0
1758,-38,88,950,11,52,6
1759,-396,79,854,-16,41,17
1760,-397,-29,871,-28,-12,8
1761,-3,-134,1055,-13,-64,0
1762,418,-119,1137,6,-55,3
1763,399,-4,1074,17,2,1
1764,11,78,964,8,50,5
1765,-360,91,859,-18,44,18
1766,-422,-22,841,-30,-3,9
1767,-55,-133,1043,-17,-60,-1
1768,396,-125,1137,3,-59,3
1769,421,-25,1074,16,-4,2
1770,52,73,984,7,49,3
1771,-323,87,876,-15,46,17
1772,-450,-10,841,-29,4,11
1773,-115,-135,1001,-22,-54,-2
1774,360,-130,1139,4,-64,2
1775,438,-31,1087,18,-11,2
1776,114,74,1000,9,42,2
1777,-298,97,895,-8,50,13
1778,-458,5,839,-35,8,12
1779,-154,-135,982,-22,-49,1
1780,318,-149,1123,-1,-65,3
1781,435,-59,1091,15,-17,-1
1782,156,45,1003,17,39,-1
1783,-258,94,921,-4,49,14
1784,-467,16,829,-25,15,13
1785,-184,-104,967,-17,-45,-1
1786,278,-146,1112,-1,-67,3
1787,455,-62,1088,22,-22,2
1788,200,58,1013,20,35,-2
1789,-231,98,909,-1,51,13
1790,-465,33,849,-22,20,16
1791,-239,-86,955,-26,-39,2
1792,236,-154,1105,-6,-69,2
1793,467,-76,1094,17,-30,1
1794,248,52,1016,18,31,-2
1795,-178,87,918,-1,55,14
1796,-456,62,861,-21,27,18
1797,-298,-77,929,-30,-33,1
1798,181,-161,1102,-9,-68,3
1799,465,-76,1109,10,-36,3
1800,301,29,1024,15,23,-1
1801,-126,99,935,1,57,10
1802,-448,61,854,-24,33,17
1803,-360,-75,908,-27,-23,3
1804,115,-159,1098,-12,-69,-1
1805,451,-111,1115,9,-46,2
1806,355,17,1040,22,15,0
1807,-58,101,949,2,53,9
1808,-424,72,849,-16,42,18
1809,-398,-49,887,-31,-14,6
1810,29,-156,1069,-12,-67,-3
1811,431,-118,1138,13,-55,4
1812,396,0,1058,18,7,1
1813,-3,86,947,9,53,7
1814,-385,85,855,-17,46,18
1815,-427,-38,860,-31,-5,6
1816,-38,-152,1051,-14,-61,-3
1817,404,-120,1143,9,-59,3
1818,420,-18,1067,18,-2,-1
1819,43,85,970,12,50,5
1820,-343,87,862,-17,47,18
1821,-438,-26,842,-26,0,9
1822,-91,-134,1034,-14,-54,-1
1823,371,-130,1139,5,-60,2
1824,434,-28,1080,22,-8,0
1825,86,65,987,8,46,3
1826,-311,94,880,-7,49,17
1827,-456,-10,838,-28,6,10
1828,-141,-119,1001,-18,-52,-1
1829,348,-130,1136,6,-66,3
1830,448,-39,1088,18,-13,2
1831,144,67,1005,14,42,4
1832,-283,92,903,-7,51,17
1833,-481,6,833,-29,13,14
1834,-193,-118,970,-19,-48,1
1835,299,-132,1137,3,-70,2
1836,471,-58,1084,14,-22,2
1837,209,62,1016,20,37,3
1838,-243,105,913,-6,57,15
1839,-479,30,828,-28,22,16
1840,-258,-93,954,-25,-39,0
1841,244,-140,1129,-7,-73,-1
1842,479,-73,1087,13,-30,2
1843,264,53,1019,13,32,-1
1844,-181,88,914,-10,57,12
1845,-470,31,845,-25,29,15
1846,-318,-79,936,-31,-33,-1
1847,168,-160,1100,-6,-72,-1
1848,473,-87,1106,11,-41,3
1849,312,44,1023,15,22,0
1850,-116,81,924,-4,56,10
1851,-445,59,853,-19,35,15
1852,-359,-75,914,-28,-23,1
1853,120,-157,1107,-9,-70,-1
1854,455,-87,1116,8,-46,4
1855,335,30,1017,17,17,-1
1856,-71,100,941,1,56,7
1857,-430,65,858,-24,38,16
1858,-383,-62,899,-28,-18,3
1859,72,-162,1095,-15,-67,-1
1860,432,-111,1126,10,-50,4
1861,364,4,1036,18,9,-1
1862,-36,82,944,7,51,6
1863,-410,83,852,-11,42,17
1864,-401,-47,883,-32,-13,4
1865,18,-141,1067,-13,-64,-1
1866,423,-112,1139,10,-55,3
1867,391,0,1061,16,5,-3
1868,4,90,953,9,51,5
1869,-379,77,850,-17,43,18
1870,-422,-38,859,-29,-8,7
1871,-36,-159,1050,-13,-62,-2
1872,409,-135,1139,10,-59,5
1873,419,-15,1068,22,0,2
1874,40,80,967,18,50,4
1875,-348,92,865,-10,46,19
1876,-442,-15,841,-23,-1,12
1877,-83,-130,1038,-15,-58,1
1878,387,-131,1129,6,-63,4
1879,446,-23,1088,25,-9,3
1880,87,78,991,10,49,5
1881,-322,95,878,-8,51,17
1882,-463,6,839,-29,7,14
1883,-139,-111,996,-23,-54,1
1884,355,-129,1136,1,-65,3
1885,458,-40,1096,14,-12,2
1886,147,64,1002,12,44,4
1887,-291,88,897,-10,55,15
1888,-489,4,821,-35,15,14
1889,-197,-111,971,-23,-49,4
1890,297,-139,1140,-3,-70,4
1891,477,-56,1087,14,-25,2
1892,200,60,1011,16,39,1
1893,-237,86,914,-11,55,14
1894,-482,20,826,-24,22,17
1895,-257,-92,956,-25,-40,2
1896,247,-150,1121,-5,-72,2
1897,471,-71,1087,17,-32,1
1898,254,50,1019,14,33,0
1899,-184,92,919,-7,56,16
1900,-469,49,839,-25,28,16
1901,-301,-88,935,-31,-34,0
1902,184,-158,1110,-7,-72,2
1903,472,-89,1102,14,-38,3
1904,293,40,1018,15,25,-1
1905,-136,95,926,0,56,10
1906,-445,56,856,-25,32,17
1907,-342,-74,921,-29,-28,2
1908,140,-156,1107,-10,-71,-1
1909,453,-96,1102,9,-43,3
1910,326,24,1032,21,17,-1
1911,-88,101,943,1,55,10
1912,-438,64,851,-24,37,18
1913,-369,-69,904,-28,-22,4
1914,89,-154,1093,-11,-69,0
1915,440,-111,1120,12,-48,3
1916,355,13,1044,21,12,-1
1917,-50,91,944,4,52,8
1918,-407,67,851,-15,39,19
1919,-394,-37,894,-28,-15,7
1920,34,-161,1059,-13,-64,-2
1921,426,-119,1137,13,-53,4
1922,384,1,1063,20,8,0
1923,-18,77,948,11,52,5
1924,-389,89,856,-12,43,20
1925,-410,-31,864,-29,-9,9
1926,-18,-133,1054,-12,-62,0
1927,416,-118,1136,7,-56,5
1928,409,-17,1070,16,2,-1
1929,23,81,976,12,50,4
1930,-358,86,857,-15,46,18
1931,-442,-24,841,-26,-2,11
1932,-81,-138,1035,-18,-58,-1
1933,390,-128,1138,7,-63,3
1934,439,-23,1079,23,-6,2
1935,81,81,992,10,49,2
1936,-320,94,878,-9,50,17
1937,-468,-1,837,-29,5,12
1938,-137,-121,1000,-20,-54,0
1939,355,-130,1129,3,-66,3
1940,462,-43,1093,13,-13,1
1941,145,70,1005,15,43,0
1942,-281,85,900,-10,53,16
1943,-487,1,827,-30,17,14
1944,-203,-109,971,-20,-47,2
1945,296,-138,1131,0,-70,4
1946,471,-53,1088,14,-22,4
1947,208,48,1007,16,38,0
1948,-234,85,916,-6,54,13
1949,-479,19,833,-25,23,16
1950,-251,-96,956,-24,-41,2
1951,237,-142,1117,-2,-70,0
1952,471,-69,1086,17,-30,3
1953,256,45,1020,17,32,0
1954,-194,85,915,-4,56,12
1955,-458,30,850,-20,26,17
1956,-300,-81,938,-25,-35,3
1957,193,-148,1105,-3,-71,1
1958,472,-72,1102,16,-36,3
1959,294,41,1017,17,25,0
1960,-139,82,931,2,58,12
1961,-460,41,851,-23,32,17
1962,-349,-77,920,-23,-28,4
1963,136,-144,1104,-5,-72,1
1964,469,-90,1107,11,-45,4
1965,338,32,1033,22,20,0
1966,-77,99,943,3,55,11
1967,-442,56,845,-21,40,19
1968,-398,-47,903,-23,-18,3
1969,77,-145,1098,-14,-71,-1
1970,451,-97,1128,9,-51,6
1971,384,36,1045,17,11,0
1972,-30,73,943,-7,55,8
1973,-417,73,851,-18,46,19
1974,-429,-57,877,-35,-10,6
1975,5,-161,1060,-15,-66,0
1976,434,-106,1150,12,-58,7
1977,409,3,1059,13,3,-1
1978,13,89,951,10,52,6
1979,-385,83,850,-19,48,18
1980,-441,-31,855,-32,-6,6
1981,-50,-148,1049,-18,-63,-2
1982,405,-126,1147,6,-62,5
1983,429,-15,1067,16,-4,0
1984,51,68,974,9,50,4
1985,-350,81,860,-16,48,17
1986,-454,-19,839,-27,1,10
1987,-97,-138,1032,-17,-59,-2
1988,383,-124,1144,5,-65,2
1989,449,-29,1081,22,-10,0
1990,101,71,988,9,46,3
1991,-308,84,877,-9,51,20
1992,-473,-6,838,-26,9,13
1993,-156,-118,997,-18,-53,-2
1994,342,-132,1138,7,-68,3
1995,464,-31,1095,18,-18,3
1996,166,67,996,11,42,3
1997,-266,80,896,-9,53,19
1998,-492,13,837,-26,16,15
1999,-222,-110,975,-20,-46,-2
2000,289,-134,1130,2,-72,3
2001,471,-49,1089,16,-26,3
2002,231,48,1009,16,34,0
2003,-219,91,915,-9,56,17
2004,-489,19,831,-25,23,17
2005,-272,-101,954,-21,-39,-2
2006,228,-140,1120,-2,-72,0
2007,478,-63,1096,15,-34,5
2008,276,48,1018,14,31,1
2009,-176,87,907,-5,58,13
2010,-471,21,847,-24,29,17
2011,-317,-76,945,-23,-33,0
2012,178,-157,1104,-6,-72,0
2013,479,-74,1098,19,-39,6
2014,310,55,1028,16,24,2
2015,-131,85,921,-5,58,12
2016,-451,45,854,-23,34,16
2017,-356,-79,928,-27,-25,1
2018,128,-160,1096,-7,-71,-1
2019,463,-84,1113,10,-44,4
2020,335,24,1026,17,18,0
2021,-84,97,942,5,56,9
2022,-439,53,844,-22,38,17
2023,-384,-62,906,-24,-20,4
2024,86,-145,1099,-10,-69,-1
2025,452,-97,1130,11,-48,5
2026,363,23,1038,18,14,1
2027,-44,87,944,-2,53,7
2028,-427,56,843,-19,43,18
2029,-410,-57,885,-27,-14,4
2030,25,-152,1073,-12,-68,-1
2031,436,-117,1140,18,-57,4
2032,405,17,1066,24,7,2
2033,-1,88,944,5,54,8
2034,-395,74,851,-11,47,18
2035,-437,-28,864,-32,-7,8
2036,-42,-139,1052,-14,-64,0
2037,413,-113,1138,7,-61,4
2038,434,-7,1072,13,-4,0
2039,51,66,973,13,51,6
2040,-349,84,861,-20,49,19
2041,-462,-20,831,-24,2,10
2042,-101,-130,1030,-18,-58,-1
2043,384,-120,1144,6,-64,4
2044,453,-24,1083,18,-10,1
2045,101,73,996,13,47,4
2046,-313,74,869,-15,52,18
2047,-480,-6,836,-23,8,11
2048,-154,-125,1005,-20,-53,-2
2049,344,-131,1136,8,-67,3
2050,468,-35,1098,18,-17,1
2051,166,59,995,12,42,3
2052,-278,99,905,-5,54,17
2053,-494,0,824,-30,17,12
2054,-215,-99,978,-20,-47,0
2055,289,-129,1136,2,-71,2
2056,478,-50,1088,14,-25,1
2057,226,51,1012,14,37,2
2058,-229,88,908,-8,56,15
2059,-485,12,830,-29,24,13
2060,-263,-99,959,-21,-38,0
2061,233,-128,1123,-3,-71,0
2062,474,-71,1086,14,-32,2
2063,265,50,1020,14,29,0
2064,-189,84,910,-8,55,12
2065,-467,15,843,-22,28,16
2066,-292,-88,950,-26,-34,0
2067,190,-158,1099,-5,-69,1
2068,470,-71,1097,19,-35,4
2069,280,54,1024,16,25,0
2070,-153,84,913,-1,56,12
2071,-448,58,862,-19,30,16
2072,-329,-73,927,-30,-30,1
2073,158,-149,1097,-7,-71,0
2074,465,-80,1116,8,-40,4
2075,315,19,1021,16,22,1
2076,-109,97,940,2,55,10
2077,-451,40,841,-25,35,16
2078,-365,-57,910,-21,-24,4
2079,109,-144,1109,-12,-70,1
2080,457,-100,1115,9,-46,3
2081,347,32,1040,21,16,0
2082,-66,82,937,-2,55,7
2083,-432,66,851,-18,40,17
2084,-391,-47,897,-29,-18,5
2085,56,-166,1071,-19,-67,1
2086,434,-107,1134,15,-51,4
2087,377,9,1058,14,8,-1
2088,-27,82,941,6,52,8
2089,-401,77,856,-14,42,17
2090,-407,-41,875,-29,-11,5
2091,4,-154,1056,-15,-63,1
2092,415,-114,1137,11,-54,4
2093,407,-9,1064,20,4,-1
2094,8,80,970,11,52,5
2095,-373,83,858,-16,45,17
2096,-429,-26,849,-28,-4,7
2097,-57,-129,1047,-16,-60,1
2098,400,-119,1124,6,-61,3
2099,429,-19,1084,20,-3,-1
2100,58,70,984,9,50,3
2101,-332,81,868,-13,47,17
2102,-459,-8,841,-24,3,10
2103,-109,-129,1011,-23,-57,-1
2104,363,-124,1133,4,-65,2
2105,448,-40,1092,19,-12,-1
2106,123,67,999,14,44,3
2107,-296,96,882,-7,51,19
2108,-474,-1,834,-30,10,12
2109,-167,-114,990,-19,-50,-2
2110,318,-136,1132,3,-66,3
2111,456,-51,1090,14,-19,0
2112,176,59,1000,18,40,0
2113,-264,92,905,-6,53,16
2114,-479,17,838,-28,17,15
2115,-206,-94,980,-21,-46,0
2116,274,-140,1110,-5,-68,2
2117,464,-63,1088,16,-25,1
2118,215,56,1015,17,36,-2
2119,-222,86,914,-8,52,14
2120,-473,27,842,-24,23,14
2121,-246,-92,958,-26,-40,0
2122,232,-154,1098,-5,-68,3
2123,472,-78,1098,17,-29,2
2124,244,43,1012,16,33,-2
2125,-190,86,912,-1,54,12
2126,-462,37,857,-19,26,16
2127,-283,-72,948,-25,-34,3
2128,201,-154,1090,-8,-69,3
2129,469,-72,1108,14,-33,4
2130,278,33,1026,16,27,-2
2131,-151,80,927,1,55,11
2132,-459,51,850,-20,32,16
2133,-323,-75,925,-25,-29,5
2134,154,-149,1098,-10,-69,3
2135,464,-89,1117,12,-39,4
2136,317,25,1028,18,21,-1
2137,-106,90,943,4,54,8
2138,-447,55,845,-20,36,17
2139,-363,-50,911,-24,-22,5
2140,93,-144,1088,-15,-68,1
2141,458,-108,1123,13,-47,4
2142,352,19,1048,21,16,-2
2143,-55,75,945,0,54,7
2144,-424,69,849,-12,40,18
2145,-400,-38,888,-29,-16,6
2146,29,-141,1062,-13,-66,1
2147,437,-116,1134,8,-55,2
2148,399,-6,1065,20,6,-2
2149,-6,79,959,8,53,7
2150,-391,72,849,-15,45,19
2151,-430,-29,862,-26,-7,8
2152,-38,-140,1046,-15,-61,2
2153,409,-117,1138,8,-61,5
2154,433,-26,1066,19,-3,-1
2155,52,69,988,14,51,5
2156,-350,78,854,-13,50,17
2157,-452,-8,843,-22,0,11
2158,-112,-112,1025,-17,-57,0
2159,378,-119,1136,5,-64,2
2160,453,-24,1097,19,-9,1
2161,118,63,991,8,46,3
2162,-301,71,870,-9,53,17
2163,-482,-1,842,-22,11,13
2164,-172,-108,992,-22,-52,1
2165,331,-118,1145,4,-70,3
2166,456,-35,1089,16,-18,-1
2167,183,52,1000,11,39,1
2168,-264,83,904,-8,55,16
2169,-487,8,829,-28,17,11
2170,-214,-108,975,-20,-45,1
2171,276,-117,1129,0,-69,5
2172,473,-60,1090,11,-25,2
2173,216,47,1007,15,36,1
2174,-223,85,915,-10,54,15
2175,-477,14,834,-26,23,13
2176,-254,-84,958,-21,-40,0
2177,240,-134,1116,-4,-71,4
2178,469,-63,1090,13,-29,5
2179,247,40,1014,12,32,-1
2180,-193,82,922,-7,54,13
2181,-467,27,844,-21,26,14
2182,-281,-85,943,-26,-36,1
2183,205,-143,1100,-6,-69,4
2184,465,-79,1099,12,-33,2
2185,269,37,1022,13,29,-2
2186,-158,84,928,0,55,11
2187,-454,34,845,-25,30,16
2188,-311,-61,927,-24,-30,5
2189,159,-149,1107,-9,-68,2
2190,467,-87,1111,8,-38,4
2191,296,36,1031,19,23,0
2192,-114,75,932,-2,53,10
2193,-446,49,843,-20,34,18
2194,-350,-65,914,-26,-25,4
2195,121,-148,1097,-11,-69,1
2196,450,-93,1122,11,-44,5
2197,332,21,1035,20,18,-2
2198,-77,91,944,1,53,9
2199,-431,70,851,-15,37,18
2200,-378,-49,896,-29,-18,5
2201,63,-155,1071,-15,-67,3
2202,441,-107,1130,10,-51,5
2203,368,4,1053,17,12,-1
2204,-37,83,954,6,53,7
2205,-405,77,850,-17,42,17
2206,-405,-30,871,-32,-11,6
2207,5,-144,1059,-15,-64,1
2208,429,-122,1129,8,-55,4
2209,399,-2,1074,16,5,-2
2210,0,70,957,5,52,4
2211,-374,78,861,-15,43,16
2212,-415,-28,853,-29,-5,9
2213,-41,-137,1038,-18,-59,1
2214,399,-125,1138,6,-57,2
2215,417,-26,1076,20,-1,0
2216,35,70,982,9,50,5
2217,-342,79,868,-12,45,17
2218,-435,-11,836,-25,0,11
2219,-85,-127,1023,-16,-56,1
2220,377,-126,1136,7,-58,4
2221,435,-27,1088,21,-6,2
2222,85,76,987,13,48,1
2223,-310,83,893,-11,49,17
2224,-457,0,840,-29,7,14
2225,-148,-107,983,-24,-51,3
2226,338,-139,1130,3,-67,3
2227,453,-44,1092,16,-16,1
2228,151,53,1007,15,41,2
2229,-269,81,905,-7,51,15
2230,-470,20,828,-24,15,13
2231,-200,-102,968,-22,-45,2
2232,283,-135,1127,0,-69,4
2233,455,-53,1088,15,-22,2
2234,204,51,1013,17,37,0
2235,-225,80,912,-6,53,14
2236,-465,20,834,-22,21,15
2237,-244,-98,954,-23,-40,2
2238,228,-146,1115,-1,-69,2
2239,457,-76,1088,20,-29,2
2240,246,46,1022,17,30,-1
2241,-181,90,917,1,52,14
2242,-454,31,839,-20,27,16
2243,-289,-65,947,-24,-33,2
2244,182,-144,1102,-6,-70,1
2245,462,-72,1103,16,-38,2
2246,288,38,1027,15,24,-1
2247,-131,74,929,0,56,11
2248,-447,49,848,-22,33,15
2249,-345,-72,916,-23,-27,2
2250,124,-141,1101,-8,-68,0
2251,456,-87,1117,10,-44,3
2252,334,22,1038,17,16,-2
2253,-77,90,940,3,54,8
2254,-430,46,841,-20,39,17
2255,-380,-45,904,-26,-18,5
2256,68,-143,1091,-15,-66,1
2257,443,-99,1131,12,-50,4
2258,361,20,1045,15,13,-1
2259,-41,73,945,1,52,4
2260,-408,64,857,-15,41,16
2261,-400,-40,875,-29,-13,6
2262,14,-135,1059,-14,-65,1
2263,423,-107,1144,7,-55,5
2264,393,-6,1063,14,4,-1
2265,-1,70,959,6,51,4
2266,-378,72,855,-16,45,16
2267,-419,-21,845,-28,-7,7
2268,-44,-133,1047,-15,-61,1
2269,406,-103,1152,6,-60,4
2270,419,-15,1067,11,-1,-2
2271,37,67,977,8,50,0
2272,-340,85,863,-16,46,15
2273,-442,-26,835,-29,0,8
2274,-90,-134,1029,-20,-57,0
2275,382,-121,1140,4,-63,4
2276,431,-34,1083,18,-7,0
2277,80,59,989,8,46,0
2278,-316,79,876,-9,48,15
2279,-461,-4,838,-24,5,10
2280,-119,-114,1002,-19,-53,1
2281,352,-128,1130,4,-65,5
2282,443,-38,1098,18,-11,0
2283,129,53,994,13,42,-1
2284,-288,81,896,-6,51,15
2285,-471,14,841,-26,11,12
2286,-169,-101,971,-19,-50,2
2287,312,-135,1135,-2,-68,6
2288,457,-66,1082,14,-19,1
2289,173,52,1014,19,39,-2
2290,-255,74,909,-6,52,14
2291,-473,17,828,-20,18,15
2292,-221,-76,961,-20,-43,1
2293,268,-140,1126,-3,-71,2
2294,470,-61,1088,19,-26,2
2295,232,51,1016,16,34,0
2296,-217,73,914,-6,54,14
2297,-474,26,833,-19,24,16
2298,-285,-76,947,-25,-36,3
2299,210,-146,1113,-5,-72,5
2300,481,-69,1100,17,-35,5
2301,280,39,1021,15,29,-1
2302,-158,82,919,1,56,12
2303,-467,41,847,-21,32,16
2304,-338,-61,928,-27,-30,4
2305,157,-132,1110,-5,-73,4
2306,475,-78,1110,7,-42,4
2307,321,17,1027,13,21,-2
2308,-103,82,939,1,56,9
2309,-448,55,844,-21,37,16
2310,-373,-57,905,-25,-22,4
2311,99,-140,1103,-11,-70,2
2312,461,-90,1126,8,-48,5
2313,347,25,1038,15,15,-2
2314,-57,85,949,-5,53,6
2315,-426,62,842,-21,42,17
2316,-392,-49,887,-32,-16,6
2317,47,-145,1083,-19,-67,2
2318,429,-103,1134,8,-51,3
2319,373,-5,1049,11,9,-2
2320,-29,79,946,4,52,6
2321,-398,68,848,-16,41,16
2322,-390,-48,873,-31,-11,6
2323,1,-134,1062,-13,-61,2
2324,418,-116,1143,4,-55,4
2325,386,-7,1061,15,5,-1
2326,-7,73,961,7,50,4
2327,-367,81,855,-15,41,17
2328,-415,-32,850,-29,-7,8
2329,-36,-139,1051,-13,-59,1
2330,408,-124,1137,7,-58,5
2331,405,-23,1071,24,-1,-2
2332,40,64,982,12,49,2
2333,-341,83,869,-9,45,20
2334,-444,-9,841,-24,-1,9
2335,-84,-118,1022,-16,-57,-2
2336,389,-123,1129,5,-63,5
2337,433,-24,1091,20,-7,-1
2338,93,62,992,11,47,1
2339,-312,80,887,-7,48,19
2340,-470,6,838,-26,7,12
2341,-138,-110,988,-20,-53,0
2342,338,-128,1131,4,-65,4
2343,456,-44,1098,14,-14,2
2344,154,59,1001,15,42,1
2345,-284,85,901,-7,53,14
2346,-476,18,836,-29,16,14
2347,-193,-96,968,-22,-47,3
2348,294,-137,1126,-5,-69,2
2349,467,-48,1088,16,-23,3
2350,207,41,1009,12,37,0
2351,-243,88,911,-8,56,13
2352,-481,18,836,-25,21,14
2353,-252,-93,955,-26,-41,2
2354,249,-134,1116,-3,-71,2
2355,477,-72,1090,14,-30,3
2356,253,39,1012,15,32,-1
2357,-195,88,920,-3,57,11
2358,-470,38,849,-24,27,15
2359,-296,-72,940,-28,-35,4
2360,189,-147,1102,-8,-72,3
2361,480,-83,1105,12,-36,3
2362,280,30,1019,14,26,-2
2363,-141,76,930,1,54,10
2364,-452,44,845,-21,33,16
2365,-331,-71,927,-24,-28,4
2366,155,-155,1102,-5,-70,2
2367,457,-79,1116,15,-40,4
2368,308,12,1018,13,20,-2
2369,-101,95,949,4,55,8
2370,-444,54,839,-16,35,17
2371,-356,-67,904,-27,-24,5
2372,101,-139,1097,-1,-68,2
2373,451,-98,1124,6,-46,5
2374,345,13,1050,26,16,1
2375,-62,84,947,0,52,8
2376,-424,66,845,-10,41,17
2377,-395,-43,880,-30,-15,4
2378,36,-139,1076,-10,-67,2
2379,443,-106,1139,8,-53,5
2380,392,3,1060,15,9,-1
2381,-13,73,952,6,53,5
2382,-402,68,846,-15,46,16
2383,-431,-34,861,-28,-8,8
2384,-33,-125,1048,-12,-63,2
2385,424,-107,1144,5,-60,5
2386,432,-13,1070,15,-1,-1
2387,45,68,980,9,51,6
2388,-361,83,860,-15,50,17
2389,-462,-23,831,-26,1,8
2390,-99,-122,1031,-19,-59,1
2391,399,-117,1144,2,-64,6
2392,448,-29,1078,17,-9,0
2393,101,62,998,10,47,3
2394,-320,78,873,-14,53,19
2395,-479,0,831,-29,8,10
2396,-151,-112,999,-22,-55,-2
2397,354,-115,1145,3,-69,5
2398,459,-41,1094,15,-16,1
2399,155,55,994,11,43,2
2400,-281,70,897,-10,54,18
2401,-490,0,829,-28,16,12
2402,-193,-103,980,-19,-49,-1
2403,296,-135,1130,1,-70,4
2404,468,-45,1091,17,-24,2
2405,208,62,1007,15,37,1
2406,-237,89,911,-9,53,15
2407,-486,21,840,-28,20,14
2408,-237,-97,969,-21,-41,-1
2409,243,-153,1111,-7,-70,3
2410,463,-70,1077,16,-29,4
2411,243,46,1018,16,30,-2
2412,-192,78,917,-5,53,14
2413,-466,38,846,-16,25,16
2414,-277,-86,947,-27,-36,-1
2415,199,-141,1096,-4,-69,2
2416,466,-60,1101,15,-35,5
2417,281,32,1026,11,25,-1
2418,-154,86,915,0,54,11
2419,-459,33,851,-22,29,16
2420,-317,-82,937,-27,-30,3
2421,162,-141,1094,-5,-68,2
2422,457,-71,1110,9,-39,4
2423,313,29,1024,16,21,0
2424,-106,101,936,1,54,12
2425,-443,51,852,-28,36,18
2426,-351,-66,913,-27,-23,4
2427,112,-145,1098,-14,-68,0
2428,448,-96,1118,9,-44,4
2429,342,23,1039,17,15,0
2430,-70,74,936,-1,53,8
2431,-428,66,849,-17,39,18
2432,-382,-54,898,-28,-16,7
2433,59,-156,1077,-16,-66,1
2434,441,-91,1134,16,-48,6
2435,371,6,1047,13,12,1
2436,-41,85,946,5,54,6
2437,-405,66,850,-19,42,17
2438,-404,-41,879,-28,-13,8
2439,7,-144,1053,-12,-63,2
2440,433,-122,1136,5,-55,5
2441,393,-6,1067,18,7,1
2442,6,74,964,10,50,7
2443,-384,81,861,-13,46,18
2444,-438,-23,842,-26,-5,7
2445,-45,-136,1038,-14,-63,1
2446,411,-120,1141,7,-60,5
2447,434,-25,1071,19,-3,0
2448,49,82,990,12,50,2
2449,-344,87,870,-12,47,16
2450,-456,-20,831,-24,1,11
2451,-104,-115,1024,-18,-56,-2
2452,382,-134,1128,3,-64,2
2453,449,-36,1092,22,-10,0
2454,106,61,997,12,46,1
2455,-304,77,880,-6,51,17
2456,-480,9,842,-25,10,11
2457,-154,-103,986,-19,-52,-1
2458,341,-134,1137,2,-68,4
2459,457,-41,1094,16,-15,0
2460,172,46,995,12,41,2
2461,-281,83,908,-5,55,15
2462,-479,10,829,-27,16,13
2463,-208,-97,972,-19,-46,3
2464,284,-134,1129,-2,-69,2
2465,478,-52,1080,18,-26,1
2466,216,55,1013,16,37,0
2467,-233,83,918,-7,56,13
2468,-483,22,830,-22,23,15
2469,-264,-89,962,-25,-40,3
2470,233,-143,1106,-6,-70,3
2471,483,-60,1097,16,-34,3
2472,265,35,1015,13,31,-1
2473,-178,81,919,-3,56,12
2474,-476,27,843,-22,30,17
2475,-313,-68,941,-25,-33,3
2476,175,-143,1104,-7,-71,1
2477,482,-74,1110,14,-40,3
2478,306,33,1020,13,24,0
2479,-128,78,926,4,56,10
2480,-456,49,845,-21,35,15
2481,-353,-67,926,-26,-26,3
2482,126,-141,1103,-10,-71,2
2483,465,-83,1112,10,-45,4
2484,329,25,1032,18,18,-2
2485,-73,83,944,1,52,9
2486,-445,61,840,-22,39,15
2487,-377,-66,903,-27,-22,2
2488,80,-153,1092,-13,-69,2
2489,443,-93,1125,14,-49,5
2490,365,12,1047,16,13,-2
2491,-48,76,940,2,53,8
2492,-418,81,851,-12,40,17
2493,-398,-48,883,-32,-14,7
2494,20,-134,1068,-13,-66,0
2495,437,-113,1135,8,-55,4
2496,394,-8,1063,12,7,1
2497,-10,85,950,7,52,5
2498,-392,60,846,-19,43,16
2499,-426,-16,865,-27,-7,5
2500,-28,-136,1050,-19,-62,0
2501,416,-124,1135,4,-59,4
2502,423,-11,1074,17,-1,-1
2503,31,64,966,8,51,3
2504,-347,79,866,-15,46,18
2505,-448,-13,845,-26,0,9
2506,-79,-130,1027,-20,-58,-1
2507,389,-120,1136,6,-61,5
2508,433,-29,1086,19,-7,0
2509,81,59,983,9,47,1
2510,-324,85,880,-10,48,17
2511,-466,-9,842,-26,5,11
2512,-121,-119,1008,-17,-56,0
2513,356,-122,1130,7,-65,5
2514,451,-39,1085,13,-12,3
2515,129,73,1005,14,43,0
2516,-294,78,893,-10,51,16
2517,-478,2,843,-31,13,14
2518,-172,-101,981,-19,-49,-1
2519,314,-157,1118,-1,-67,3
2520,466,-51,1091,15,-18,2
2521,190,57,1013,17,40,1
2522,-268,80,905,-8,54,14
2523,-482,31,837,-21,19,15
2524,-219,-82,973,-23,-44,2
2525,263,-149,1106,-9,-69,2
2526,488,-56,1095,18,-28,2
2527,233,43,1011,11,36,2
2528,-218,78,911,-3,56,13
2529,-480,39,849,-23,26,15
2530,-284,-95,944,-29,-38,3
2531,216,-148,1100,-3,-71,2
2532,482,-68,1108,14,-35,1
2533,278,25,1009,12,28,-2
2534,-165,101,929,5,55,11
2535,-469,41,842,-25,31,15
2536,-317,-69,935,-27,-31,3
2537,159,-150,1101,-9,-70,2
2538,468,-91,1110,12,-41,2
2539,312,26,1025,19,20,-1
2540,-116,83,935,0,54,9
2541,-450,63,847,-18,35,14
2542,-351,-68,919,-25,-25,5
2543,114,-150,1100,-10,-69,2
2544,455,-87,1118,13,-45,3
2545,338,9,1031,18,16,-1
2546,-74,89,945,4,54,8
2547,-429,76,852,-16,39,16
2548,-382,-50,895,-29,-19,6
2549,60,-147,1071,-15,-66,0
2550,440,-98,1135,10,-50,3
2551,377,-6,1053,13,11,-1
2552,-36,81,947,10,53,7
2553,-408,83,845,-12,42,16
2554,-400,-44,876,-31,-12,7
2555,0,-133,1061,-11,-63,1
2556,430,-118,1129,5,-56,4
2557,405,-17,1062,17,4,0
2558,3,81,971,13,51,5
2559,-378,84,857,-16,43,18
2560,-428,-23,851,-29,-4,10
2561,-52,-133,1039,-16,-60,1
2562,411,-127,1131,2,-61,4
2563,429,-30,1084,22,-3,1
2564,53,78,985,11,50,5
2565,-350,86,868,-13,49,17
2566,-457,-11,848,-26,2,10
2567,-104,-119,1013,-19,-57,0
2568,377,-126,1132,5,-64,3
2569,448,-44,1090,16,-9,1
2570,109,65,989,11,46,2
2571,-311,86,894,-7,52,16
2572,-475,5,839,-28,10,11
2573,-157,-102,986,-19,-51,1
2574,336,-142,1128,-1,-68,3
2575,458,-37,1093,17,-17,1
2576,168,45,1002,12,40,0
2577,-276,76,909,-5,53,13
2578,-478,23,834,-25,16,13
2579,-206,-103,963,-19,-45,2
2580,285,-139,1123,-2,-70,3
2581,469,-53,1084,17,-25,2
2582,219,50,1016,14,35,-1
2583,-232,91,910,-5,53,13
2584,-477,29,840,-22,21,15
2585,-253,-87,963,-25,-40,2
2586,237,-153,1102,-5,-69,4
2587,469,-75,1091,16,-31,3
2588,262,45,1015,17,30,-1
2589,-186,88,918,-1,55,13
2590,-469,46,856,-21,27,16
2591,-296,-70,950,-29,-34,3
2592,184,-152,1093,-8,-68,3
2593,472,-74,1103,11,-38,3
2594,297,22,1023,16,24,-2
2595,-135,79,926,1,56,11
2596,-456,51,855,-21,32,17
2597,-340,-74,923,-24,-27,5
2598,130,-143,1098,-8,-68,2
2599,462,-94,1113,9,-43,3
2600,324,24,1031,21,18,0
2601,-85,83,944,2,54,10
2602,-442,64,846,-17,37,18
2603,-373,-51,908,-28,-21,6
2604,78,-150,1080,-15,-68,2
2605,448,-103,1126,13,-48,5
2606,365,2,1051,15,12,-1
2607,-49,79,938,7,52,5
2608,-413,82,856,-12,41,16
2609,-408,-41,881,-30,-13,7
2610,22,-130,1058,-11,-65,1
2611,434,-103,1145,6,-55,3
2612,405,-11,1058,13,6,-2
2613,8,79,961,8,52,7
2614,-401,73,852,-18,48,17
2615,-423,-31,853,-29,-8,8
2616,-47,-132,1051,-15,-61,4
2617,415,-106,1137,4,-59,4
2618,434,-18,1071,14,-2,2
2619,41,72,984,7,49,4
2620,-348,93,866,-14,48,17
2621,-453,-13,840,-31,1,11
2622,-93,-128,1025,-23,-56,0
2623,387,-132,1135,1,-63,3
2624,436,-42,1083,17,-7,3
2625,88,67,990,8,47,4
2626,-322,88,889,-12,49,17
2627,-464,-6,847,-29,6,13
2628,-128,-108,999,-23,-54,2
2629,349,-142,1118,-1,-64,3
2630,450,-47,1089,15,-14,0
2631,126,57,1004,14,44,2
2632,-291,69,903,-9,51,17
2633,-479,20,837,-23,12,13
2634,-161,-113,976,-21,-50,1
2635,309,-145,1118,0,-66,3
2636,460,-47,1090,20,-19,0
2637,185,44,1008,16,40,1
2638,-263,96,913,-4,54,13
2639,-477,24,838,-24,17,13
2640,-220,-98,968,-23,-43,2
2641,261,-147,1106,-3,-69,2
2642,472,-75,1084,19,-28,0
2643,231,49,1018,19,33,-1
2644,-208,82,914,-1,54,14
2645,-466,42,854,-17,24,14
2646,-273,-69,947,-26,-38,1
2647,206,-143,1093,-2,-70,0
2648,478,-65,1110,14,-35,2
2649,277,35,1020,12,27,0
2650,-155,87,924,1,54,13
2651,-465,51,847,-24,31,16
2652,-317,-79,934,-28,-28,3
2653,161,-140,1101,-8,-70,2
2654,463,-86,1110,8,-41,3
2655,313,13,1028,16,22,1
2656,-114,104,942,1,54,10
2657,-450,44,843,-26,36,17
2658,-353,-56,920,-24,-23,4
2659,112,-149,1090,-16,-68,2
2660,462,-114,1118,10,-46,5
2661,334,15,1038,18,18,-1
2662,-82,69,940,2,53,7
2663,-434,80,857,-10,37,18
2664,-383,-57,889,-32,-18,6
2665,58,-151,1063,-9,-66,0
2666,445,-99,1134,14,-51,3
2667,378,-11,1058,16,10,-2
2668,-39,92,949,13,52,6
2669,-409,80,853,-16,40,17
2670,-408,-42,867,-28,-13,6
2671,3,-135,1056,-9,-63,0
2672,429,-125,1125,5,-57,2
2673,412,-26,1069,19,2,-2
2674,18,86,984,15,51,4
2675,-369,84,857,-15,45,18
2676,-444,-13,852,-23,-3,8
2677,-65,-119,1028,-17,-59,-1
2678,401,-125,1129,4,-61,3
2679,443,-25,1091,16,-8,0
2680,73,73,989,9,48,2
2681,-325,79,877,-13,48,18
2682,-470,1,839,-26,6,13
2683,-121,-112,1002,-21,-55,-2
2684,358,-133,1131,2,-64,3
2685,449,-30,1092,15,-13,2
2686,133,67,998,9,43,2
2687,-295,77,895,-11,51,17
2688,-480,12,840,-29,12,13
2689,-167,-114,988,-23,-49,1
2690,310,-144,1116,-2,-66,3
2691,462,-50,1083,17,-19,2
2692,176,51,1005,12,40,1
2693,-254,84,915,-9,52,15
2694,-481,28,841,-26,17,14
2695,-205,-107,973,-24,-46,0
2696,261,-146,1098,-6,-67,2
2697,463,-67,1084,13,-26,2
2698,216,44,1016,16,34,-1
2699,-219,95,908,-3,54,14
2700,-474,24,853,-22,23,15
2701,-253,-80,957,-24,-40,0
2702,225,-155,1091,-5,-70,2
2703,467,-74,1096,16,-34,2
2704,270,45,1024,12,28,1
2705,-177,85,916,1,56,14
2706,-465,58,857,-24,27,17
2707,-298,-80,941,-28,-32,2
2708,173,-151,1094,-5,-68,3
2709,475,-77,1113,10,-39,5
2710,301,25,1024,20,24,0
2711,-126,102,934,-1,57,10
2712,-456,54,850,-23,34,17
2713,-346,-65,921,-30,-25,5
2714,123,-148,1094,-10,-68,1
2715,461,-94,1119,6,-44,5
2716,336,19,1039,18,17,0
2717,-89,96,938,-2,54,7
2718,-433,61,848,-17,37,18
2719,-375,-54,898,-33,-19,5
2720,73,-147,1077,-16,-66,0
2721,446,-105,1130,9,-48,3
2722,366,0,1050,14,13,2
2723,-52,86,947,4,52,8
2724,-418,70,851,-18,41,15
2725,-394,-40,878,-29,-13,8
2726,20,-148,1057,-17,-63,1
2727,429,-122,1127,8,-53,1
2728,398,-21,1064,17,6,1
2729,-25,81,969,13,53,7
2730,-383,81,855,-15,42,16
2731,-414,-29,852,-24,-8,9
2732,-20,-133,1037,-16,-60,2
2733,415,-117,1133,5,-57,1
2734,414,-26,1077,21,-1,0
2735,27,76,987,12,50,3
2736,-357,81,870,-10,45,16
2737,-446,-19,839,-26,-2,9
2738,-73,-120,1017,-14,-60,1
2739,389,-137,1126,8,-61,3
2740,443,-29,1090,24,-7,-1
2741,87,76,1001,14,47,4
2742,-324,79,890,-6,50,17
2743,-474,12,838,-26,8,11
2744,-141,-112,991,-17,-54,-1
2745,340,-148,1125,3,-68,1
2746,470,-35,1092,21,-16,1
2747,165,56,1008,19,42,0
2748,-275,87,900,-6,54,15
2749,-496,22,836,-25,17,14
2750,-218,-97,968,-21,-47,-1
2751,277,-136,1120,-1,-71,1
2752,484,-56,1088,17,-28,1
2753,243,58,1020,16,35,1
2754,-217,83,909,-9,58,14
2755,-494,35,844,-21,26,13
2756,-280,-100,950,-28,-37,-1
2757,212,-144,1100,-5,-71,1
2758,488,-72,1101,18,-37,1
2759,284,44,1023,13,27,-1
2760,-161,93,916,-1,57,13
2761,-468,46,849,-24,32,17
2762,-318,-78,940,-30,-31,2
2763,164,-144,1096,-6,-70,2
2764,473,-84,1104,8,-40,4
2765,299,27,1022,16,23,-1
2766,-120,74,928,-1,54,10
2767,-449,51,857,-21,35,17
2768,-343,-64,919,-25,-26,3
2769,125,-145,1099,-10,-69,1
2770,459,-79,1122,12,-43,4
2771,329,18,1031,17,18,0
2772,-90,84,938,0,55,9
2773,-439,64,852,-19,36,17
2774,-371,-66,901,-29,-21,5
2775,80,-143,1085,-9,-68,1
2776,444,-105,1121,11,-48,3
2777,368,-6,1050,18,12,-1
2778,-51,96,946,8,54,8
2779,-421,63,851,-15,42,16
2780,-402,-41,879,-26,-13,7
2781,13,-132,1060,-13,-65,0
2782,443,-116,1133,11,-56,3
2783,406,-2,1065,18,5,-1
2784,0,79,963,13,52,7
2785,-391,71,853,-17,47,17
2786,-442,-29,851,-25,-7,7
2787,-52,-128,1041,-14,-62,-1
2788,416,-116,1139,5,-63,2
2789,446,-20,1081,20,-5,-1
2790,70,76,988,10,50,6
2791,-349,91,862,-12,51,19
2792,-475,-15,832,-28,5,10
2793,-129,-120,1023,-20,-56,-3
2794,377,-133,1134,2,-69,4
2795,468,-27,1091,20,-15,1
2796,135,61,992,8,46,2
2797,-292,82,885,-8,55,19
2798,-499,19,845,-26,14,11
2799,-183,-114,982,-23,-51,-2
2800,319,-130,1132,2,-69,4
2801,467,-33,1092,13,-21,2
2802,197,55,1004,9,38,2
2803,-256,78,905,-11,55,16
2804,-497,18,835,-29,19,12
2805,-212,-110,979,-23,-45,-1
2806,269,-148,1115,-4,-68,4
2807,467,-40,1084,17,-25,2
2808,218,42,1012,10,35,0
2809,-231,85,915,-8,53,15
2810,-474,25,844,-25,21,14
2811,-233,-91,967,-24,-39,1
2812,240,-158,1092,-10,-67,2
2813,466,-62,1094,19,-27,4
2814,233,45,1019,12,32,1
2815,-208,74,909,-2,53,11
2816,-463,40,854,-20,23,13
2817,-265,-93,952,-28,-38,3
2818,214,-144,1092,0,-67,2
2819,473,-76,1103,12,-32,2
2820,271,37,1018,17,28,1
2821,-171,98,918,2,55,11
2822,-469,35,853,-24,29,15
2823,-310,-71,934,-23,-32,3
2824,171,-143,1107,-7,-69,2
2825,475,-93,1102,11,-40,2
2826,310,26,1028,20,22,0
2827,-125,97,938,0,56,10
2828,-459,61,850,-21,33,17
2829,-359,-65,909,-25,-25,4
2830,113,-142,1092,-11,-70,0
2831,468,-102,1119,8,-47,3
2832,352,15,1041,20,17,0
2833,-77,91,945,3,55,8
2834,-438,73,849,-16,40,18
2835,-391,-47,894,-33,-17,5
2836,52,-149,1066,-15,-66,0
2837,446,-115,1128,10,-53,2
2838,392,-6,1059,15,8,1
2839,-33,90,960,11,53,9
2840,-409,74,844,-19,44,17
2841,-419,-33,872,-28,-10,7
2842,-10,-141,1051,-16,-64,1
2843,434,-122,1129,5,-58,4
2844,418,-19,1066,20,2,-1
2845,20,81,982,11,52,5
2846,-372,77,860,-16,48,19
2847,-449,-25,850,-28,-3,10
2848,-68,-135,1029,-15,-60,0
2849,398,-127,1128,6,-62,3
2850,439,-26,1084,22,-7,-1
2851,78,81,993,13,48,4
2852,-333,84,875,-13,51,19
2853,-466,0,848,-28,5,11
2854,-120,-117,998,-23,-55,0
2855,357,-145,1127,6,-65,2
2856,451,-40,1097,19,-13,-3
2857,134,60,992,16,44,2
2858,-293,81,896,-7,51,16
2859,-482,9,840,-24,13,11
2860,-166,-102,991,-15,-49,0
2861,309,-135,1123,-2,-68,3
2862,465,-38,1082,19,-20,3
2863,184,55,1006,13,39,0
2864,-260,88,910,-7,54,13
2865,-477,14,840,-28,18,14
2866,-216,-96,972,-20,-43,1
2867,263,-147,1102,-4,-68,0
2868,471,-64,1094,21,-26,2
2869,227,44,1013,14,33,1
2870,-221,93,917,-4,53,13
2871,-476,32,843,-19,25,14
2872,-258,-79,955,-25,-38,3
2873,216,-143,1097,-4,-67,1
2874,482,-75,1099,13,-33,2
2875,265,34,1023,13,29,1
2876,-167,73,920,1,56,12
2877,-467,43,852,-21,31,17
2878,-322,-81,930,-26,-31,4
2879,160,-141,1100,-2,-70,0
2880,474,-77,1107,11,-40,3
2881,319,29,1027,19,21,4
2882,-107,84,942,0,57,11
2883,-453,47,849,-19,38,15
2884,-374,-63,909,-24,-22,4
2885,86,-129,1097,-8,-70,0
2886,455,-102,1114,10,-49,1
2887,372,11,1041,21,12,2
2888,-44,88,948,6,55,10
2889,-422,63,850,-16,44,17
2890,-426,-41,884,-25,-12,6
2891,14,-130,1072,-17,-67,0
2892,436,-102,1136,12,-57,4
2893,415,-2,1059,13,4,0
2894,20,73,953,7,53,8
2895,-386,72,856,-15,50,20
2896,-457,-42,852,-30,-3,6
2897,-65,-124,1048,-8,-61,-1
2898,406,-109,1145,4,-63,5
2899,454,-10,1068,16,-6,2
2900,76,90,979,10,49,6
2901,-343,67,854,-22,53,18
2902,-469,-18,840,-26,5,9
2903,-123,-122,1035,-20,-56,-3
2904,365,-136,1135,0,-65,3
2905,458,-22,1079,21,-14,2
2906,120,61,990,7,46,5
2907,-303,75,873,-12,52,18
2908,-472,0,839,-26,10,10
2909,-154,-119,1011,-23,-52,1
2910,337,-114,1133,3,-66,5
2911,456,-35,1088,13,-17,3
2912,142,58,998,5,43,3
2913,-274,67,898,-11,51,16
2914,-478,0,833,-26,15,11
2915,-176,-107,982,-19,-48,1
2916,307,-140,1126,2,-67,3
2917,459,-36,1091,16,-20,2
2918,183,64,1007,15,38,2
2919,-258,73,908,-11,53,15
2920,-484,19,834,-25,18,13
2921,-214,-110,968,-24,-46,2
2922,266,-151,1118,-3,-68,3
2923,473,-52,1084,20,-27,2
2924,231,42,1014,13,35,2
2925,-217,86,916,-2,56,15
2926,-482,31,838,-21,24,15
2927,-275,-82,954,-23,-38,1
2928,215,-134,1107,-4,-71,1
2929,487,-68,1095,14,-36,4
2930,288,46,1024,15,29,1
2931,-156,77,916,-4,56,13
2932,-472,40,847,-22,33,18
2933,-345,-77,932,-27,-30,1
2934,154,-148,1099,-5,-74,0
2935,482,-74,1108,12,-44,3
2936,339,28,1029,17,20,1
2937,-90,94,937,2,59,14
2938,-459,58,847,-25,41,18
2939,-389,-67,914,-28,-21,4
2940,83,-137,1097,-9,-69,0
2941,457,-95,1116,5,-50,4
2942,380,20,1040,19,13,1
2943,-38,90,948,-3,57,11
2944,-432,58,844,-20,44,18
2945,-410,-53,898,-29,-14,5
2946,22,-144,1080,-15,-66,2
2947,431,-99,1131,8,-55,4
2948,398,8,1049,14,7,1
2949,-9,79,945,3,54,9
2950,-398,77,854,-16,46,17
2951,-418,-47,877,-34,-8,6
2952,-19,-144,1055,-14,-63,1
2953,417,-117,1140,9,-57,3
2954,410,-13,1061,15,2,1
2955,11,92,958,9,52,6
2956,-372,68,853,-20,45,16
2957,-428,-25,852,-27,-5,7
2958,-47,-144,1044,-16,-60,-1
2959,399,-127,1135,4,-59,3
2960,420,-20,1070,19,-3,-1
2961,43,66,985,12,50,4
2962,-342,81,867,-13,47,18
2963,-448,-17,837,-23,-1,9
2964,-92,-129,1019,-15,-58,-2
2965,383,-129,1139,7,-63,3
2966,439,-31,1082,23,-9,0
2967,103,79,1000,13,46,4
2968,-316,82,883,-10,51,18
2969,-474,3,836,-27,9,11
2970,-151,-108,999,-20,-52,0
2971,333,-140,1121,4,-68,2
2972,468,-41,1097,17,-17,1
2973,164,63,1006,15,42,3
2974,-268,84,900,-9,54,17
2975,-494,16,833,-26,19,12
2976,-214,-103,973,-20,-45,-1
2977,277,-126,1130,-1,-69,2
2978,476,-57,1079,13,-27,2
2979,235,59,1015,16,35,2
2980,-226,80,916,-11,57,15
2981,-484,23,826,-26,26,15
2982,-265,-93,964,-26,-38,1
2983,219,-155,1105,-7,-71,0
2984,481,-60,1094,20,-35,1
2985,268,44,1023,10,28,1
2986,-176,95,914,-4,56,14
2987,-469,39,850,-25,28,16
2988,-308,-81,942,-32,-33,2
2989,182,-154,1099,-5,-71,2
2990,467,-80,1097,12,-37,3
2991,298,33,1028,12,25,0
2992,-140,86,925,-2,56,12
2993,-461,56,854,-24,32,15
2994,-328,-77,929,-26,-29,2
2995,143,-152,1096,-9,-69,2
2996,460,-84,1112,11,-41,3
2997,314,21,1031,18,19,-1
2998,-103,92,949,1,54,10
2999,-447,70,850,-21,35,16
3000,-352,-79,901,-31,-25,1
3001,100,-153,1090,-9,-67,0
3002,454,-103,1120,13,-46,4
3003,343,3,1044,20,16,-1
3004,-65,101,943,5,54,10
3005,-428,76,848,-16,39,18
3006,-381,-50,892,-27,-17,4
3007,50,-142,1068,-14,-66,0
3008,437,-117,1124,11,-51,2
3009,388,-6,1064,16,8,-2
3010,-32,87,949,10,54,7
3011,-396,70,855,-15,43,19
3012,-414,-41,867,-29,-9,7
3013,-10,-138,1048,-9,-63,0
3014,426,-117,1136,9,-56,4
3015,414,-14,1067,21,3,0
3016,23,89,975,13,51,5
3017,-368,76,860,-16,46,18
3018,-445,-19,847,-27,-3,9
3019,-75,-121,1032,-17,-59,-3
3020,401,-139,1135,3,-62,3
3021,442,-17,1077,22,-6,1
3022,81,75,997,7,48,5
3023,-337,78,873,-10,52,18
3024,-474,5,842,-26,6,10
3025,-132,-122,1002,-25,-54,0
3026,353,-134,1129,4,-67,2
3027,464,-39,1094,18,-14,1
3028,137,55,999,12,44,4
3029,-288,85,896,-8,52,18
3030,-488,16,833,-27,13,12
3031,-186,-102,987,-20,-49,0
3032,308,-135,1120,-4,-68,3
3033,465,-48,1087,13,-23,0
3034,203,57,1012,14,38,1
3035,-254,79,908,-12,54,16
3036,-489,18,832,-27,19,13
3037,-227,-98,975,-23,-43,0
3038,253,-158,1104,-8,-69,2
3039,470,-54,1088,22,-30,2
3040,232,46,1020,11,33,-1
3041,-211,86,913,-2,53,13
3042,-469,44,855,-28,24,13
3043,-258,-98,948,-23,-37,2
3044,214,-149,1093,-13,-68,2
3045,472,-62,1101,21,-31,2
3046,257,33,1013,6,29,-1
3047,-177,95,926,3,55,12
3048,-458,50,859,-28,26,15
3049,-300,-88,931,-30,-33,2
3050,180,-154,1096,-6,-68,1
3051,468,-87,1107,10,-38,3
3052,291,25,1022,21,24,0
3053,-135,97,938,1,55,10
3054,-460,65,849,-21,31,17
3055,-331,-71,923,-28,-29,5
3056,137,-145,1097,-8,-68,1
3057,469,-96,1117,9,-42,5
3058,324,9,1032,20,21,0
3059,-102,94,939,2,55,8
3060,-439,71,857,-15,36,19
3061,-369,-62,897,-30,-21,7
3062,85,-142,1075,-10,-67,0
3063,453,-119,1129,12,-49,4
3064,362,0,1055,20,14,-1
3065,-56,89,942,10,54,8
3066,-421,73,856,-13,41,19
3067,-400,-33,872,-28,-14,7
3068,12,-139,1058,-13,-65,0
3069,435,-130,1131,7,-56,3
3070,412,-14,1063,21,4,2
3071,0,86,970,12,54,8
3072,-386,69,852,-14,47,17
3073,-447,-17,853,-22,-4,8
3074,-63,-115,1044,-12,-61,-1
3075,408,-122,1123,3,-62,1
3076,452,-19,1086,22,-7,1
3077,74,64,992,9,51,5
3078,-333,73,871,-14,52,18
3079,-483,0,833,-23,8,10
3080,-138,-121,1005,-21,-57,-1
3081,356,-121,1138,7,-67,2
3082,472,-30,1094,17,-17,1
3083,150,59,996,10,45,3
3084,-282,78,892,-7,54,18
3085,-493,8,835,-26,16,12
3086,-205,-118,974,-19,-48,-1
3087,303,-132,1139,5,-71,4
3088,467,-43,1085,16,-24,1
3089,224,53,1016,16,37,4
3090,-239,89,911,-8,60,17
3091,-499,21,827,-28,23,12
3092,-249,-99,967,-22,-42,1
3093,235,-131,1116,-4,-72,3
3094,478,-61,1086,12,-34,2
3095,268,40,1020,13,32,3
3096,-183,82,922,-6,58,16
3097,-480,28,836,-22,29,15
3098,-301,-80,941,-25,-34,1
3099,183,-142,1110,-7,-71,2
3100,477,-68,1098,14,-39,2
3101,311,40,1026,12,24,2
3102,-151,77,921,-4,59,14
3103,-459,41,850,-22,32,14
3104,-337,-84,935,-29,-28,3
3105,135,-148,1087,-3,-71,1
3106,474,-68,1108,14,-44,4
3107,320,22,1027,13,20,0
3108,-96,99,940,4,55,11
3109,-451,55,851,-28,37,17
3110,-364,-76,909,-27,-23,3
3111,101,-144,1102,-8,-70,0
3112,449,-97,1116,7,-48,4
3113,356,20,1029,18,13,1
3114,-67,97,947,0,56,10
3115,-433,60,850,-22,40,16
3116,-391,-53,902,-28,-17,2
3117,48,-149,1077,-15,-69,0
3118,442,-111,1127,10,-53,3
3119,390,5,1057,18,8,0
3120,-23,88,941,3,56,10
3121,-413,75,854,-18,45,16
3122,-413,-49,879,-33,-12,4
3123,-12,-141,1051,-13,-64,1
3124,432,-124,1133,6,-58,5
3125,408,-11,1065,18,2,-1
3126,14,84,963,9,52,5
3127,-377,87,862,-16,46,19
3128,-434,-22,851,-29,-5,8
3129,-52,-130,1044,-18,-61,-1
3130,411,-134,1131,0,-61,4
3131,427,-24,1078,20,-4,-1
3132,53,69,981,10,50,4
3133,-345,76,859,-14,49,18
3134,-460,-11,846,-24,1,9
3135,-92,-130,1021,-19,-58,0
3136,375,-128,1130,7,-63,2
3137,452,-26,1092,22,-9,1
3138,103,72,994,9,47,3
3139,-315,88,882,-9,52,17
3140,-473,5,848,-28,8,11
3141,-155,-113,983,-20,-51,0
3142,337,-140,1128,3,-67,2
3143,466,-47,1093,14,-17,2
3144,168,55,1002,16,42,3
3145,-278,86,909,-8,56,17
3146,-487,30,836,-26,16,15
3147,-210,-98,969,-22,-46,1
3148,282,-143,1112,-5,-70,0
3149,480,-54,1093,17,-26,3
3150,233,45,1017,13,37,3
3151,-235,93,913,-8,58,15
3152,-484,17,838,-26,24,14
3153,-271,-89,953,-26,-39,1
3154,224,-146,1097,-2,-72,-1
3155,484,-79,1092,19,-34,2
3156,279,51,1029,16,31,2
3157,-171,89,922,-3,58,15
3158,-473,52,851,-24,32,16
3159,-322,-82,929,-30,-30,2
3160,158,-156,1097,-6,-71,0
3161,481,-84,1106,14,-42,3
3162,325,22,1027,15,22,2
3163,-118,95,940,5,58,10
3164,-451,44,848,-23,36,16
3165,-375,-63,911,-22,-21,5
3166,100,-139,1098,-8,-72,-2
3167,459,-90,1118,11,-48,2
3168,364,16,1037,22,14,1
3169,-45,90,951,4,57,11
3170,-437,57,849,-18,44,17
3171,-409,-55,883,-25,-13,4
3172,26,-135,1085,-11,-67,0
3173,438,-104,1130,10,-56,4
3174,414,9,1057,18,4,1
3175,1,90,949,6,55,10
3176,-389,60,853,-16,47,18
3177,-451,-27,873,-28,-4,6
3178,-50,-141,1045,-15,-63,-1
3179,412,-114,1141,9,-62,3
3180,447,-5,1069,15,-3,1
3181,59,77,970,9,53,8
3182,-351,74,863,-17,52,17
3183,-469,-22,836,-26,5,7
3184,-117,-123,1033,-17,-58,-2
3185,378,-122,1138,2,-67,3
3186,468,-26,1079,19,-13,1
3187,111,74,989,7,48,6
3188,-309,71,875,-17,54,17
3189,-479,-3,839,-26,10,10
3190,-170,-129,1001,-21,-51,-2
3191,340,-137,1138,3,-68,5
3192,466,-31,1091,20,-20,2
3193,165,57,1001,9,42,4
3194,-274,86,892,-8,56,16
3195,-482,8,838,-27,16,11
3196,-206,-110,978,-22,-47,-1
3197,299,-132,1134,3,-71,2
3198,465,-41,1087,16,-23,2
3199,208,50,1011,15,38,2
3200,-245,85,913,-9,57,16
3201,-485,16,830,-28,22,13
3202,-241,-97,959,-21,-43,1
3203,250,-139,1119,-2,-72,0
3204,480,-51,1092,18,-30,3
3205,249,47,1019,12,34,2
3206,-210,81,915,-8,57,12
3207,-472,29,838,-21,25,14
3208,-287,-95,937,-27,-36,2
3209,204,-144,1110,-3,-72,0
3210,477,-61,1104,18,-37,3
3211,289,35,1022,12,28,1
3212,-164,98,921,0,58,13
3213,-464,39,841,-28,31,14
3214,-330,-87,928,-28,-30,3
3215,159,-141,1104,-3,-72,2
3216,474,-87,1108,10,-43,3
3217,320,26,1029,17,21,0
3218,-110,96,938,3,57,13
3219,-461,61,850,-24,37,17
3220,-360,-72,909,-27,-25,2
3221,109,-138,1104,-10,-72,2
3222,463,-100,1111,7,-48,4
3223,353,18,1040,17,15,-1
3224,-71,87,944,-2,57,11
3225,-435,62,854,-22,40,19
3226,-389,-60,897,-28,-16,4
3227,51,-149,1068,-14,-68,1
3228,446,-104,1129,12,-52,6
3229,377,2,1055,16,10,-1
3230,-35,91,951,4,55,7
3231,-408,80,857,-18,42,18
3232,-406,-44,874,-33,-12,5
3233,0,-145,1050,-14,-64,0
3234,433,-131,1133,7,-57,6
3235,404,-10,1066,19,3,1
3236,4,82,971,10,53,7
3237,-382,90,857,-18,47,18
3238,-428,-15,849,-27,-5,8
3239,-55,-136,1036,-17,-59,0
3240,405,-129,1135,2,-61,3
3241,429,-31,1073,21,-5,1
3242,53,69,987,9,51,4
3243,-342,88,874,-11,49,16
3244,-453,-6,841,-26,3,10
3245,-111,-114,1010,-17,-57,0
3246,376,-132,1131,4,-66,2
3247,445,-32,1093,17,-12,0
3248,114,66,995,9,48,3
3249,-308,88,896,-9,52,16
3250,-473,8,828,-30,11,10
3251,-155,-110,988,-23,-52,1
3252,326,-145,1126,1,-69,2
3253,459,-51,1091,16,-19,2
3254,160,60,1011,15,42,1
3255,-272,82,906,-10,53,15
3256,-476,24,831,-25,16,13
3257,-192,-103,969,-22,-46,1
3258,283,-147,1112,-4,-68,3
3259,470,-66,1087,20,-24,2
3260,202,52,1016,17,39,1
3261,-234,90,914,-7,55,16
3262,-477,34,845,-20,21,14
3263,-244,-87,951,-25,-41,2
3264,233,-150,1095,-3,-71,3
3265,476,-72,1100,17,-33,3
3266,255,48,1028,15,30,0
3267,-183,87,914,-2,56,15
3268,-469,52,855,-25,27,16
3269,-303,-90,931,-29,-34,0
3270,184,-160,1100,-4,-71,2
3271,473,-94,1105,15,-40,2
3272,305,15,1032,20,23,-1
3273,-131,100,940,9,59,13
3274,-455,61,849,-22,34,17
3275,-362,-62,903,-21,-25,1
3276,111,-145,1098,-8,-71,-1
3277,463,-103,1118,12,-48,3
3278,359,14,1046,22,15,0
3279,-62,89,942,2,56,11
3280,-436,68,848,-15,43,19
3281,-412,-46,890,-26,-15,5
3282,31,-140,1067,-11,-68,-1
3283,440,-104,1132,12,-57,3
3284,414,0,1063,18,4,-2
3285,-4,87,954,7,56,8
3286,-394,79,860,-16,46,20
3287,-443,-32,855,-32,-5,5
3288,-45,-137,1046,-11,-63,-3
3289,421,-112,1139,4,-63,4
3290,440,-11,1074,16,-4,0
3291,62,85,976,8,52,7
3292,-358,86,861,-20,51,19
3293,-461,-29,840,-30,2,8
3294,-106,-128,1030,-20,-57,-2
3295,379,-132,1135,2,-66,4
3296,457,-32,1083,18,-13,2
3297,98,82,992,7,49,5
3298,-309,76,877,-17,52,19
3299,-475,7,843,-26,9,8
3300,-145,-124,998,-25,-53,-2
3301,342,-152,1126,1,-66,5
3302,454,-43,1086,20,-17,1
3303,139,57,998,12,44,3
3304,-283,90,900,-7,54,17
3305,-476,21,842,-28,13,11
3306,-173,-115,973,-20,-49,0
3307,308,-138,1127,2,-68,4
3308,460,-59,1085,17,-20,1
3309,188,53,1015,17,41,1
3310,-260,89,912,-6,55,16
3311,-484,18,830,-23,18,13
3312,-229,-91,964,-20,-43,0
3313,261,-141,1114,-4,-70,2
3314,484,-68,1094,19,-28,2
3315,243,55,1020,15,36,1
3316,-210,91,914,-5,58,15
3317,-479,39,844,-22,27,14
3318,-293,-80,933,-27,-37,-2
3319,204,-149,1106,-5,-72,0
3320,490,-85,1108,13,-38,3
3321,301,43,1025,16,27,1
3322,-161,97,923,-1,61,13
3323,-471,43,847,-27,33,15
3324,-340,-62,928,-26,-29,2
3325,148,-151,1100,-11,-73,0
3326,476,-91,1110,9,-44,2
3327,326,19,1028,18,22,-1
3328,-97,87,945,-2,58,13
3329,-454,63,849,-21,38,18
3330,-371,-71,898,-30,-22,3
3331,91,-150,1093,-11,-70,1
3332,458,-104,1121,11,-50,5
3333,363,16,1046,21,14,-1
3334,-66,93,949,1,56,8
3335,-429,72,848,-18,42,17
3336,-391,-46,897,-32,-16,7
3337,31,-154,1057,-15,-67,1
3338,442,-118,1133,12,-55,3
3339,391,-11,1060,17,7,-1
3340,-21,79,952,10,55,8
3341,-400,85,860,-13,44,18
3342,-417,-28,861,-29,-10,6
3343,-24,-132,1044,-11,-62,-1
3344,426,-124,1132,6,-59,4
3345,424,-21,1073,19,-1,1
3346,27,79,977,10,52,6
3347,-358,79,866,-16,46,19
3348,-453,-8,846,-21,-1,9
3349,-87,-122,1020,-19,-60,-2
3350,393,-132,1134,7,-65,3
3351,451,-19,1088,21,-10,1
3352,89,77,993,10,49,4
3353,-323,80,879,-13,52,19
3354,-477,6,844,-29,6,10
3355,-147,-119,988,-22,-54,-2
3356,350,-152,1132,2,-69,3
3357,463,-41,1090,20,-17,1
3358,161,63,1007,14,43,2
3359,-284,94,902,-6,56,18
3360,-490,23,832,-29,16,12
3361,-198,-113,975,-23,-47,0
3362,292,-134,1125,-1,-71,3
3363,477,-57,1085,15,-26,2
3364,217,53,1016,16,38,1
3365,-241,86,913,-13,57,16
3366,-490,28,839,-25,22,14
3367,-246,-98,952,-27,-41,1
3368,234,-144,1107,-5,-71,3
3369,483,-73,1086,17,-33,1
3370,258,54,1031,16,33,-1
3371,-192,83,914,-5,57,14
3372,-468,49,856,-23,27,15
3373,-297,-75,936,-32,-34,1
3374,188,-160,1093,-8,-71,2
3375,477,-78,1106,17,-39,2
3376,294,26,1027,25,26,0
3377,-140,81,931,0,58,13
3378,-455,58,854,-21,34,18
3379,-337,-71,917,-27,-29,2
3380,131,-149,1097,-9,-69,-1
3381,465,-95,1112,14,-43,4
3382,325,10,1030,16,19,0
3383,-85,90,952,9,56,12
3384,-450,74,851,-21,38,17
3385,-370,-66,902,-23,-21,3
3386,72,-144,1073,-14,-68,0
3387,448,-102,1129,18,-51,2
3388,381,-5,1054,18,12,0
3389,-47,92,943,11,57,10
3390,-419,76,857,-14,43,18
3391,-415,-53,865,-29,-12,5
3392,-4,-133,1060,-7,-66,-2
3393,439,-114,1140,9,-60,2
3394,426,-6,1060,23,2,-1
3395,20,90,971,10,55,6
3396,-381,84,860,-17,49,17
3397,-459,-26,842,-29,-1,5
3398,-86,-132,1037,-12,-61,-3
3399,405,-130,1137,2,-66,3
3400,464,-27,1081,24,-11,0
3401,105,73,991,10,51,6
3402,-326,91,871,-10,56,19
3403,-496,-4,833,-25,10,8
3404,-170,-117,1004,-20,-54,-2
3405,345,-120,1143,7,-74,2
3406,484,-35,1097,17,-22,0
3407,183,57,1000,11,44,4
3408,-266,82,898,-8,58,18
3409,-502,-2,822,-28,20,11
3410,-238,-100,972,-17,-46,-4
3411,277,-127,1136,3,-75,1
3412,484,-45,1097,14,-31,1
3413,244,47,1013,15,34,1
3414,-211,79,912,-8,59,17
3415,-494,23,826,-24,28,14
3416,-277,-95,955,-21,-37,0
3417,216,-139,1119,-4,-72,2
3418,481,-56,1092,15,-37,1
3419,280,40,1017,11,29,1
3420,-177,90,924,-7,59,14
3421,-467,20,842,-25,30,15
3422,-311,-86,937,-26,-31,1
3423,176,-148,1097,-5,-72,1
3424,475,-69,1099,15,-40,4
3425,300,42,1029,14,24,2
3426,-135,85,925,-1,57,13
3427,-458,53,850,-23,35,15
3428,-339,-75,922,-31,-26,1
3429,140,-142,1107,-5,-71,1
3430,468,-80,1105,8,-44,3
3431,322,29,1029,17,20,1
3432,-102,76,937,-4,57,10
3433,-449,56,852,-21,37,16
3434,-366,-69,904,-27,-22,3
3435,96,-149,1094,-10,-71,2
3436,459,-87,1121,12,-48,5
3437,351,13,1043,18,14,0
3438,-71,91,947,1,56,7
3439,-431,66,850,-19,39,17
3440,-390,-64,884,-32,-18,4
3441,47,-141,1074,-10,-68,1
3442,450,-114,1133,10,-54,6
3443,389,-1,1063,17,8,-1
3444,-32,85,950,8,56,7
3445,-406,79,852,-17,44,19
3446,-426,-31,862,-30,-10,4
3447,-6,-140,1052,-13,-65,0
3448,431,-119,1134,5,-60,5
3449,424,-14,1070,17,0,0
3450,21,72,977,7,54,6
3451,-374,84,856,-15,48,18
3452,-452,-24,845,-27,-3,7
3453,-77,-139,1031,-16,-60,-3
3454,402,-127,1131,8,-65,4
3455,451,-34,1088,22,-9,1
3456,84,71,991,12,50,5
3457,-330,90,875,-11,53,20
3458,-479,-3,842,-26,7,9
3459,-141,-111,1002,-20,-55,-3
3460,356,-133,1132,4,-69,4
3461,472,-36,1097,18,-17,0
3462,152,59,1000,15,46,2
3463,-293,88,901,-8,57,18
3464,-498,9,833,-29,16,12
3465,-203,-106,972,-18,-47,-2
3466,301,-133,1124,2,-71,3
3467,487,-50,1089,16,-27,2
3468,212,64,1022,16,40,1
3469,-242,80,912,-13,58,15
3470,-497,23,834,-26,24,15
3471,-251,-94,950,-25,-40,0
3472,244,-152,1111,-5,-72,2
3473,491,-70,1094,19,-33,3
3474,257,52,1019,15,34,1
3475,-203,90,922,-6,59,13
3476,-477,39,846,-25,27,15
3477,-300,-78,938,-29,-35,0
3478,203,-157,1096,-6,-72,3
3479,487,-77,1099,13,-38,4
3480,285,33,1026,15,26,-2
3481,-146,88,932,0,59,12
3482,-474,56,850,-26,33,14
3483,-333,-85,916,-26,-29,1
3484,153,-147,1110,-5,-73,3
3485,473,-92,1105,12,-43,5
3486,329,10,1032,20,20,-1
3487,-107,90,946,4,59,9
3488,-452,61,848,-17,37,16
3489,-374,-60,898,-26,-22,3
3490,91,-152,1089,-10,-72,1
3491,456,-93,1124,16,-50,2
3492,379,8,1053,19,12,-1
3493,-56,87,952,6,58,10
3494,-422,64,847,-15,43,16
3495,-422,-41,876,-25,-12,5
3496,-6,-135,1059,-10,-68,-2
3497,447,-116,1138,9,-61,3
3498,431,-2,1069,20,2,-1
3499,25,71,964,10,55,7
3500,-384,77,852,-13,51,17
3501,-471,-17,844,-28,0,5
3502,-91,-131,1036,-14,-63,-3
3503,399,-111,1145,6,-69,2
3504,479,-22,1079,19,-12,-1
3505,104,61,985,9,53,6
3506,-323,85,871,-11,56,19
3507,-491,-6,827,-26,11,10
3508,-181,-113,1007,-22,-54,-1
3509,344,-121,1143,3,-74,3
3510,480,-31,1093,17,-23,1
3511,181,51,996,7,43,3
3512,-261,75,900,-8,60,18
3513,-497,3,830,-27,20,10
3514,-229,-112,967,-19,-46,-1
3515,271,-121,1135,5,-74,3
3516,477,-48,1095,16,-31,0
3517,234,57,1013,18,35,2
3518,-218,85,916,-10,58,15
3519,-484,8,822,-27,26,12
3520,-263,-88,954,-21,-39,0
3521,222,-139,1117,-4,-73,3
3522,473,-66,1090,16,-34,4
3523,269,39,1024,14,30,1
3524,-176,73,918,-7,58,14
3525,-471,24,838,-20,31,13
3526,-308,-77,934,-22,-32,1
3527,183,-130,1104,-3,-73,4
3528,469,-67,1105,15,-40,4
3529,311,36,1025,15,23,-1
3530,-126,83,935,-4,58,15
3531,-460,38,840,-21,37,15
3532,-354,-75,916,-26,-26,1
3533,118,-146,1100,-3,-72,2
3534,468,-74,1112,14,-47,4
3535,354,20,1036,16,15,0
3536,-69,83,946,3,58,12
3537,-440,55,847,-23,42,18
3538,-403,-56,901,-26,-17,2
3539,60,-141,1095,-10,-71,-1
3540,443,-95,1122,11,-53,5
3541,388,12,1050,19,8,-1
3542,-14,65,943,-1,55,8
3543,-420,56,849,-12,47,16
3544,-420,-49,887,-25,-10,4
3545,-5,-134,1067,-12,-66,3
3546,425,-97,1133,13,-60,4
3547,416,1,1063,16,0,-3
3548,21,72,947,8,54,7
3549,-380,76,863,-15,49,17
3550,-446,-28,858,-29,-3,7
3551,-65,-128,1043,-17,-61,1
3552,406,-118,1146,6,-64,5
3553,446,-14,1071,19,-6,0
3554,69,65,978,7,52,6
3555,-346,77,857,-14,51,18
3556,-465,-5,837,-25,5,7
3557,-130,-118,1025,-20,-56,-3
3558,382,-115,1148,2,-69,5
3559,463,-24,1089,17,-14,1
3560,119,52,978,4,49,1
3561,-305,78,884,-10,53,17
3562,-485,-4,833,-29,12,10
3563,-172,-122,993,-22,-52,-2
3564,334,-122,1135,5,-70,6
3565,470,-43,1099,14,-21,2
3566,175,49,1001,11,43,2
3567,-268,90,904,-7,55,16
3568,-496,8,827,-31,18,11
3569,-215,-108,968,-19,-47,0
3570,276,-123,1129,0,-71,4
3571,482,-60,1094,14,-27,3
3572,235,40,1009,14,37,2
3573,-230,87,919,-7,59,15
3574,-486,16,836,-23,23,13
3575,-274,-83,949,-22,-39,0
3576,220,-143,1106,-5,-74,1
3577,494,-64,1098,17,-37,4
3578,278,46,1022,12,30,0
3579,-171,86,929,-4,59,12
3580,-474,36,847,-25,32,16
3581,-331,-79,927,-29,-32,1
3582,172,-146,1094,-6,-74,3
3583,484,-85,1103,13,-41,4
3584,316,29,1035,17,23,-2
3585,-109,85,934,1,57,12
3586,-464,53,847,-24,38,17
3587,-367,-57,918,-24,-24,1
3588,117,-140,1100,-11,-72,1
3589,464,-102,1113,7,-48,5
3590,356,24,1037,20,16,-2
3591,-71,86,939,-3,58,8
3592,-442,58,855,-20,41,17
3593,-396,-51,903,-28,-18,4
3594,52,-144,1075,-15,-69,2
3595,453,-105,1126,9,-54,8
3596,386,8,1050,15,10,0
3597,-29,68,948,2,58,6
3598,-415,68,860,-15,46,17
3599,-420,-41,871,-31,-10,6
3600,-6,-150,1050,-13,-65,2
3601,436,-120,1137,13,-59,6
3602,415,0,1064,21,4,1
3603,17,76,973,11,54,6
3604,-374,79,853,-16,48,17
3605,-443,-17,847,-24,-2,8
3606,-73,-133,1038,-16,-60,0
3607,403,-121,1142,4,-63,4
3608,448,-29,1078,21,-8,1
3609,79,73,992,10,51,6
3610,-330,78,863,-13,53,18
3611,-479,0,837,-25,7,8
3612,-142,-131,999,-22,-56,-2
3613,361,-123,1147,7,-69,4
3614,473,-34,1098,17,-17,1
3615,162,51,990,10,46,3
3616,-294,91,903,-7,57,17
3617,-492,5,828,-30,16,10
3618,-212,-106,971,-19,-48,-1
3619,292,-128,1133,2,-72,3
3620,490,-57,1083,13,-27,4
3621,224,51,1022,18,38,3
3622,-235,80,919,-8,59,15
3623,-487,18,822,-23,26,16
3624,-280,-76,948,-22,-38,0
3625,230,-130,1111,-5,-74,1
3626,491,-57,1101,16,-36,5
3627,277,39,1028,10,31,1
3628,-165,79,917,-7,59,14
3629,-480,28,842,-24,32,14
3630,-332,-95,921,-29,-32,0
3631,163,-132,1103,-1,-74,4
3632,475,-79,1108,13,-43,3
3633,331,34,1029,16,20,-1
3634,-110,90,937,-1,59,14
3635,-456,45,849,-25,39,15
3636,-371,-74,908,-27,-22,1
3637,96,-144,1097,-8,-72,1
3638,461,-90,1118,9,-50,5
3639,356,23,1029,19,15,0
3640,-54,83,950,-2,57,10
3641,-431,54,849,-20,42,16
3642,-403,-49,897,-25,-15,2
3643,44,-141,1085,-14,-69,0
3644,443,-111,1125,9,-56,6
3645,385,16,1055,20,7,-1
3646,-17,74,947,2,56,8
3647,-405,65,854,-13,46,19
3648,-428,-29,874,-28,-8,1
3649,-13,-146,1057,-15,-66,-1
3650,428,-113,1139,12,-61,6
3651,420,1,1065,16,-1,0
3652,30,66,966,6,53,6
3653,-372,77,860,-15,50,17
3654,-447,-29,844,-28,0,7
3655,-80,-136,1035,-12,-61,-1
3656,398,-118,1141,5,-66,4
3657,453,-14,1084,22,-10,0
3658,87,69,986,7,51,3
3659,-326,82,876,-14,53,19
3660,-481,-1,829,-25,9,9
3661,-143,-127,1004,-22,-56,-2
3662,360,-129,1143,6,-70,6
3663,474,-32,1088,18,-20,3
3664,150,60,1005,11,46,3
3665,-284,80,893,-8,58,18
3666,-495,16,831,-29,17,12
3667,-215,-108,973,-20,-47,-2
3668,305,-139,1131,2,-74,3
3669,485,-36,1094,17,-26,4
3670,216,47,1017,9,40,1
3671,-237,84,912,-12,60,16
3672,-500,29,832,-27,25,14
3673,-267,-114,940,-27,-41,0
3674,238,-138,1118,-2,-76,3
3675,490,-61,1098,14,-36,3
3676,274,38,1018,13,31,1
3677,-188,104,925,-5,61,15
3678,-480,28,834,-28,30,14
3679,-311,-82,929,-30,-33,1
3680,178,-137,1107,-5,-74,1
3681,489,-85,1106,11,-42,2
3682,299,29,1025,14,25,-2
3683,-131,82,934,-1,59,13
3684,-461,45,844,-24,36,16
3685,-356,-66,913,-26,-26,-1
3686,132,-151,1103,-5,-74,1
3687,464,-81,1115,11,-47,5
3688,334,23,1039,21,15,-1
3689,-78,92,941,0,59,10
3690,-446,60,849,-23,41,18
3691,-383,-73,893,-26,-18,1
3692,73,-148,1090,-9,-71,-1
3693,451,-105,1128,14,-52,4
3694,370,8,1046,20,11,-2
3695,-43,89,948,5,58,8
3696,-415,62,852,-15,44,19
3697,-419,-35,879,-27,-10,3
3698,11,-139,1057,-12,-67,-1
3699,439,-116,1132,9,-59,6
3700,408,-1,1073,20,3,-3
3701,9,68,959,9,55,8
3702,-381,75,864,-13,49,21
3703,-446,-14,844,-25,-1,5
3704,-60,-136,1040,-14,-63,-1
3705,406,-112,1142,9,-64,3
3706,461,-16,1078,21,-9,1
3707,68,69,984,7,54,5
3708,-338,88,875,-13,53,17
3709,-475,-10,828,-28,8,9
3710,-144,-122,1011,-19,-55,-1
3711,372,-127,1142,10,-71,4
3712,476,-34,1090,27,-15,2
3713,142,56,998,14,48,3
3714,-288,78,894,-6,58,16
3715,-494,10,837,-30,18,11
3716,-208,-106,966,-15,-50,0
3717,300,-129,1141,1,-74,2
3718,485,-45,1095,21,-26,1
3719,217,43,1005,10,39,4
3720,-239,89,926,-4,61,15
3721,-495,11,810,-31,26,12
3722,-270,-100,954,-17,-41,0
3723,237,-135,1126,-2,-76,3
3724,491,-59,1090,19,-37,3
3725,272,44,1019,15,31,-1
3726,-178,82,922,-6,61,15
3727,-490,33,841,-22,32,15
3728,-320,-84,924,-28,-34,-1
3729,179,-141,1105,-1,-76,2
3730,485,-74,1105,14,-44,2
3731,325,32,1034,16,22,-1
3732,-129,79,933,1,61,13
3733,-463,39,840,-22,36,15
3734,-370,-77,912,-25,-25,1
3735,114,-129,1105,-2,-75,2
3736,473,-88,1121,10,-51,3
3737,359,21,1034,21,15,-3
3738,-61,93,948,1,61,11
3739,-443,52,844,-23,45,19
3740,-415,-52,882,-24,-15,2
3741,49,-136,1094,-12,-73,-1
3742,453,-101,1137,9,-58,8
3743,396,19,1050,19,5,-3
3744,-12,84,948,-3,57,7
3745,-411,55,851,-20,49,18
3746,-440,-31,869,-29,-6,3
3747,-20,-144,1061,-15,-68,1
3748,428,-108,1139,9,-62,7
3749,433,-2,1061,15,-2,0
3750,29,75,964,5,55,6
3751,-373,75,863,-20,51,18
3752,-457,-22,842,-32,0,5
3753,-80,-134,1038,-15,-61,-1
3754,401,-130,1146,3,-66,5
3755,447,-14,1071,20,-11,-1
3756,76,69,990,7,52,4
3757,-328,81,870,-16,53,18
3758,-473,0,837,-26,6,8
3759,-125,-133,1003,-25,-56,-3
3760,364,-132,1138,6,-69,5
3761,448,-33,1094,16,-17,0
3762,130,59,996,9,43,1
3763,-295,85,891,-11,55,18
3764,-482,8,837,-30,12,10
3765,-166,-126,976,-22,-51,-3
3766,318,-134,1141,5,-72,5
3767,464,-46,1083,15,-21,1
3768,175,55,1010,16,40,1
3769,-261,80,908,-11,56,16
3770,-482,20,835,-25,18,13
3771,-216,-101,965,-19,-43,-2
3772,266,-146,1109,-1,-73,3
3773,485,-53,1087,21,-30,4
3774,229,51,1017,14,36,-1
3775,-217,82,918,-5,57,14
3776,-479,32,849,-24,25,14
3777,-276,-96,937,-27,-37,1
3778,203,-145,1092,-2,-72,1
3779,493,-70,1104,18,-38,3
3780,278,41,1028,14,27,1
3781,-161,98,927,0,59,12
3782,-465,45,850,-27,32,16
3783,-335,-81,920,-27,-28,1
3784,158,-144,1103,-6,-73,1
3785,473,-91,1111,10,-43,4
3786,325,18,1032,22,20,-1
3787,-113,93,940,2,59,8
3788,-449,52,853,-23,37,17
3789,-370,-58,900,-23,-21,3
3790,99,-146,1094,-11,-71,-2
3791,460,-93,1120,15,-49,4
3792,360,8,1049,18,11,-1
3793,-69,87,941,4,57,8
3794,-423,66,856,-15,40,18
3795,-404,-56,883,-30,-14,2
3796,38,-143,1064,-8,-67,0
3797,445,-115,1130,12,-55,5
3798,400,0,1060,22,7,-1
3799,-17,87,963,11,55,6
3800,-393,79,864,-15,45,19
3801,-436,-21,847,-26,-5,6
3802,-35,-127,1042,-14,-63,0
3803,423,-116,1141,4,-62,5
3804,442,-22,1068,21,-3,-1
3805,45,66,991,7,53,5
3806,-351,72,869,-15,50,18
3807,-466,-4,836,-24,4,9
3808,-123,-117,1006,-19,-56,-2
3809,382,-123,1145,4,-69,3
3810,468,-23,1096,19,-14,2
3811,128,53,989,5,47,3
3812,-305,86,897,-8,56,16
3813,-489,2,827,-30,15,11
3814,-193,-108,973,-21,-49,1
3815,310,-136,1143,2,-72,2
3816,480,-48,1091,16,-24,1
3817,202,57,1004,17,40,2
3818,-241,77,919,-12,56,16
3819,-489,30,826,-26,23,13
3820,-245,-105,953,-24,-41,-1
3821,244,-146,1128,-2,-72,3
3822,474,-57,1082,18,-33,3
3823,254,38,1018,13,31,0
3824,-192,80,923,-6,57,14
3825,-470,25,844,-20,28,14
3826,-298,-81,938,-26,-34,-1
3827,189,-154,1097,-3,-73,0
3828,472,-68,1102,20,-38,3
3829,294,30,1025,15,24,0
3830,-133,77,928,4,57,12
3831,-463,55,852,-19,33,15
3832,-340,-66,921,-23,-28,0
3833,129,-136,1102,-7,-71,0
3834,470,-84,1109,10,-47,3
3835,336,22,1033,20,17,-1
3836,-81,80,942,2,57,10
3837,-444,59,853,-17,39,16
3838,-386,-60,899,-24,-19,4
3839,65,-134,1092,-10,-71,0
3840,455,-89,1126,12,-53,5
3841,378,6,1048,15,9,-2
3842,-33,89,944,5,56,7
3843,-409,66,856,-18,44,21
3844,-421,-45,879,-32,-10,4
3845,0,-132,1064,-12,-66,-1
3846,430,-111,1137,5,-59,6
3847,420,-7,1061,16,1,2
3848,17,83,958,7,55,7
3849,-378,70,855,-19,49,18
3850,-444,-26,857,-29,-2,7
3851,-74,-129,1041,-16,-61,-2
3852,402,-110,1141,3,-64,5
3853,451,-20,1071,15,-6,3
3854,72,67,980,6,51,5
3855,-329,77,882,-16,52,17
3856,-470,-6,832,-26,8,10
3857,-145,-122,999,-24,-55,0
3858,354,-129,1144,4,-69,2
3859,465,-42,1093,16,-17,2
3860,142,58,992,12,44,4
3861,-277,85,897,-8,53,16
3862,-482,11,827,-28,16,11
3863,-195,-103,976,-21,-48,0
3864,293,-135,1139,1,-70,2
3865,465,-51,1089,12,-24,1
3866,198,50,1006,15,37,1
3867,-237,86,913,-8,55,13
3868,-477,20,836,-25,20,13
3869,-236,-90,957,-21,-41,-1
3870,245,-145,1119,-6,-70,0
3871,462,-60,1093,18,-29,2
3872,244,38,1006,12,31,1
3873,-198,86,918,-5,54,13
3874,-464,33,850,-22,24,13
3875,-274,-87,950,-28,-37,0
3876,194,-142,1089,-6,-69,4
3877,468,-73,1100,13,-36,3
3878,273,36,1015,13,25,-2
3879,-148,79,933,-1,53,10
3880,-452,51,865,-20,31,16
3881,-322,-72,925,-27,-28,0
3882,155,-153,1084,-7,-68,0
3883,454,-78,1111,8,-42,4
3884,317,13,1027,18,19,-2
3885,-97,84,946,4,54,9
3886,-442,52,855,-18,37,16
3887,-359,-64,910,-24,-23,2
3888,89,-146,1076,-12,-68,-1
3889,448,-99,1124,16,-49,4
3890,357,12,1045,19,13,-2
3891,-49,78,940,5,52,7
3892,-416,79,863,-13,41,19
3893,-400,-39,893,-29,-14,5
3894,19,-142,1046,-13,-64,-1
3895,430,-112,1130,10,-55,3
3896,402,-10,1059,15,5,1
3897,2,76,962,12,52,8
3898,-379,80,863,-14,46,18
3899,-432,-22,860,-26,-4,7
3900,-64,-128,1036,-13,-60,-2
3901,408,-111,1138,3,-61,4
3902,437,-17,1074,19,-4,2
3903,62,62,976,7,49,3
3904,-331,88,880,-13,51,18
3905,-466,-10,848,-30,5,11
3906,-119,-121,1006,-21,-54,-2
3907,362,-120,1133,4,-66,2
3908,455,-41,1084,15,-13,2
3909,127,61,997,11,44,3
3910,-295,86,895,-8,52,16
3911,-474,12,845,-30,12,13
3912,-167,-107,980,-22,-48,0
3913,314,-131,1125,-2,-68,3
3914,460,-57,1087,9,-19,2
3915,173,55,1006,15,40,1
3916,-264,80,911,-10,54,15
3917,-471,9,837,-25,17,15
3918,-207,-92,967,-23,-43,2
3919,260,-148,1106,-4,-67,2
3920,477,-71,1091,17,-26,3
3921,214,51,1016,15,36,2
3922,-227,81,916,-5,54,12
3923,-466,33,849,-21,23,15
3924,-259,-88,949,-27,-39,4
3925,221,-158,1086,-3,-69,3
3926,488,-80,1102,18,-31,4
3927,259,29,1020,20,31,0
3928,-167,83,938,7,55,10
3929,-470,46,856,-18,31,17
3930,-335,-57,917,-21,-30,3
3931,153,-137,1095,-5,-73,-1
3932,481,-91,1113,12,-44,3
3933,334,18,1032,24,21,-1
3934,-84,69,954,5,58,9
3935,-453,58,852,-14,40,17
3936,-405,-46,884,-24,-18,5
3937,53,-135,1083,-10,-72,1
3938,454,-89,1129,17,-55,3
3939,409,4,1056,18,8,-1
3940,-7,81,953,6,56,8
3941,-408,68,858,-15,48,18
3942,-445,-36,861,-29,-6,6
3943,-41,-123,1054,-11,-65,1
3944,413,-104,1143,6,-63,4
3945,450,-8,1064,16,-4,-1
3946,60,68,969,8,54,7
3947,-355,72,862,-14,52,17
3948,-465,-20,842,-26,4,7
3949,-122,-115,1036,-16,-58,1
3950,378,-113,1143,1,-69,4
3951,469,-16,1079,18,-14,1
3952,124,61,981,2,50,6
3953,-307,76,882,-16,56,17
3954,-478,-4,841,-27,12,10
3955,-180,-121,997,-25,-51,1
3956,321,-123,1140,4,-71,6
3957,470,-36,1089,14,-23,2
3958,176,54,1001,8,42,3
3959,-260,86,907,-10,56,17
3960,-484,0,828,-34,19,12
3961,-215,-97,973,-20,-44,1
3962,271,-139,1125,-1,-71,4
3963,464,-60,1087,13,-27,1
3964,210,45,1021,17,36,1
3965,-222,75,912,-7,55,15
3966,-478,21,830,-22,23,12
3967,-249,-96,948,-24,-40,1
3968,232,-137,1113,-1,-72,4
3969,467,-57,1096,17,-32,1
3970,257,37,1017,12,31,-2
3971,-183,81,919,-1,56,14
3972,-467,35,840,-20,29,13
3973,-299,-80,940,-26,-34,1
3974,177,-127,1101,-2,-73,1
3975,476,-84,1099,10,-40,2
3976,301,31,1027,20,24,-1
3977,-124,88,936,0,57,12
3978,-458,40,848,-22,36,16
3979,-364,-58,917,-24,-25,1
3980,123,-143,1102,-8,-73,1
3981,464,-83,1112,11,-48,4
3982,351,19,1035,17,15,-2
3983,-61,73,948,0,57,10
3984,-435,76,854,-16,41,18
3985,-396,-53,899,-32,-17,4
3986,40,-138,1070,-16,-67,0
3987,450,-99,1132,8,-55,7
3988,381,0,1051,14,9,-2
3989,-14,74,943,2,54,8
3990,-400,66,863,-18,44,20
3991,-418,-41,875,-30,-8,5
3992,-11,-140,1048,-13,-63,0
3993,414,-111,1133,7,-58,6
3994,413,-10,1065,16,1,-1
3995,22,72,966,10,53,6
3996,-368,83,863,-18,47,19
3997,-432,-29,848,-30,-5,9
3998,-71,-131,1031,-16,-59,-1
3999,399,-128,1132,3,-62,4
4000,435,-33,1080,21,-6,1
4001,64,59,985,11,48,2
4002,-325,83,876,-7,50,16
4003,-466,0,839,-24,4,11
4004,-124,-118,1003,-21,-55,0
4005,360,-127,1136,6,-66,3
4006,451,-36,1088,17,-14,0
4007,140,47,993,14,44,1
4008,-295,89,898,-3,54,15
4009,-483,10,838,-26,12,13
4010,-191,-105,979,-16,-48,0
4011,297,-118,1122,3,-71,1
4012,475,-49,1096,16,-24,1
4013,207,44,1008,17,38,-1
4014,-232,85,910,-6,53,15
4015,-493,29,837,-23,22,14
4016,-251,-88,958,-23,-42,-3
4017,231,-137,1104,-5,-70,3
4018,487,-66,1101,16,-34,3
4019,267,35,1019,12,30,-1
4020,-183,94,912,0,57,13
4021,-469,31,857,-24,29,17
4022,-313,-71,937,-26,-31,0
4023,177,-131,1091,-7,-71,1
4024,482,-85,1106,8,-39,4
4025,298,35,1027,15,26,-1
4026,-124,88,938,-3,56,10
4027,-450,38,853,-26,33,18
4028,-350,-59,918,-25,-26,3
4029,119,-149,1092,-12,-69,-1
4030,459,-103,1117,7,-45,5
4031,331,21,1038,21,17,1
4032,-76,84,941,1,54,8
4033,-432,61,857,-18,40,18
4034,-380,-56,896,-27,-18,5
4035,66,-147,1075,-14,-67,1
4036,440,-111,1128,12,-49,5
4037,374,0,1047,18,11,0
4038,-40,83,952,9,53,9
4039,-407,68,856,-14,42,17
4040,-412,-25,872,-27,-13,6
4041,-2,-140,1053,-14,-64,1
4042,431,-119,1127,9,-57,2
4043,415,-12,1071,20,1,0
4044,19,72,972,12,52,6
4045,-368,82,864,-14,45,18
4046,-448,-10,846,-24,-4,9
4047,-73,-120,1030,-19,-59,-1
4048,400,-126,1130,4,-63,4
4049,443,-31,1088,21,-7,-1
4050,83,61,986,8,48,2
4051,-318,83,882,-16,49,20
4052,-479,12,841,-31,8,10
4053,-141,-117,990,-23,-54,-2
4054,345,-134,1139,7,-67,5
4055,462,-30,1097,10,-17,1
4056,163,45,993,16,42,3
4057,-284,81,903,-11,54,17
4058,-492,13,840,-26,15,11
4059,-202,-112,971,-21,-48,-1
4060,281,-125,1119,1,-70,4
4061,484,-55,1085,15,-27,3
4062,229,49,1012,14,37,1
4063,-221,93,916,-6,57,16
4064,-489,27,846,-27,23,15
4065,-283,-83,944,-24,-38,-3
4066,218,-147,1099,-8,-73,1
4067,487,-66,1103,16,-37,5
4068,286,34,1011,9,27,-1
4069,-161,81,926,2,56,12
4070,-470,43,859,-23,32,16
4071,-329,-81,929,-28,-30,1
4072,146,-140,1088,-7,-70,0
4073,476,-86,1116,10,-44,3
4074,327,28,1023,17,21,-1
4075,-98,83,940,2,55,11
4076,-447,51,855,-23,37,17
4077,-376,-64,910,-23,-22,3
4078,80,-147,1090,-11,-68,-2
4079,456,-96,1122,11,-50,4
4080,361,12,1033,19,12,1
4081,-36,92,943,3,54,9
4082,-420,64,864,-15,43,20
4083,-413,-56,894,-29,-13,2
4084,14,-138,1056,-9,-65,-3
4085,425,-115,1130,9,-58,4
4086,407,-6,1052,19,4,-1
4087,20,82,958,11,51,8
4088,-380,70,862,-15,46,19
4089,-436,-21,868,-27,-3,6
4090,-62,-132,1043,-13,-60,-3
4091,400,-125,1133,6,-62,4
4092,439,-6,1072,20,-5,1
4093,67,73,969,9,49,5
4094,-333,76,877,-13,49,18
4095,-462,-10,851,-25,5,9
4096,-121,-124,1011,-20,-56,-4
4097,362,-128,1136,3,-64,3
4098,457,-26,1084,19,-12,3
4099,126,59,989,7,43,4
4100,-295,74,891,-8,52,16
4101,-476,10,846,-23,12,12
4102,-178,-107,983,-23,-50,-1
4103,315,-134,1132,5,-69,1
4104,469,-26,1098,15,-19,3
4105,187,46,992,10,39,2
4106,-247,85,912,-6,55,16
4107,-485,24,840,-28,21,15
4108,-235,-113,959,-25,-43,0
4109,248,-130,1127,-2,-69,0
4110,479,-69,1084,15,-29,3
4111,251,45,1012,13,34,1
4112,-203,92,916,-5,56,13
4113,-476,26,844,-22,27,17
4114,-290,-83,939,-27,-34,3
4115,187,-140,1102,-5,-71,0
4116,484,-71,1103,13,-36,3
4117,298,47,1024,11,26,4
4118,-146,79,920,-3,57,10
4119,-459,48,856,-25,33,15
4120,-337,-81,925,-28,-27,4
4121,130,-144,1094,-8,-69,0
4122,467,-82,1111,8,-43,2
4123,324,14,1026,16,18,1
4124,-88,87,940,4,54,8
4125,-444,60,857,-20,38,16
4126,-368,-72,901,-29,-21,6
4127,85,-147,1087,-10,-67,-1
4128,445,-102,1120,9,-48,4
4129,360,9,1044,19,12,0
4130,-48,86,941,3,53,8
4131,-411,69,866,-13,40,19
4132,-402,-48,882,-29,-12,4
4133,14,-144,1056,-12,-66,-2
4134,428,-119,1137,10,-54,2
4135,405,0,1059,17,4,1
4136,2,72,951,9,51,7
4137,-381,75,862,-14,46,18
4138,-431,-28,865,-26,-5,6
4139,-60,-131,1034,-13,-60,-2
4140,409,-117,1133,4,-62,3
4141,439,-18,1070,23,-4,2
4142,69,82,982,13,50,3
4143,-335,73,872,-13,50,18
4144,-471,-8,847,-23,6,10
4145,-129,-115,1011,-20,-55,-2
4146,364,-123,1137,6,-67,3
4147,465,-32,1089,18,-13,1
4148,133,68,987,11,45,3
4149,-288,74,896,-9,53,17
4150,-489,8,846,-28,15,12
4151,-190,-106,975,-17,-48,-2
4152,301,-137,1128,-1,-71,0
4153,476,-46,1097,16,-23,2
4154,214,54,1006,15,37,3
4155,-243,89,912,-5,56,16
4156,-495,16,834,-28,22,15
4157,-255,-92,961,-22,-42,0
4158,236,-139,1115,-3,-72,1
4159,484,-58,1093,15,-33,4
4160,270,49,1012,13,31,2
4161,-181,82,916,-7,57,15
4162,-476,36,852,-22,29,16
4163,-317,-83,938,-29,-33,0
4164,169,-141,1093,-6,-72,0
4165,480,-69,1109,12,-41,4
4166,313,25,1020,11,22,1
4167,-117,92,932,1,56,12
4168,-460,47,859,-28,35,17
4169,-350,-74,923,-28,-26,2
4170,120,-144,1096,-8,-68,1
4171,459,-90,1105,7,-45,5
4172,341,19,1027,16,16,1
4173,-82,78,947,-1,54,9
4174,-432,69,860,-19,37,17
4175,-381,-56,902,-28,-19,5
4176,65,-153,1075,-16,-67,-3
4177,437,-98,1133,13,-50,2
4178,374,-1,1045,15,11,1
4179,-33,83,942,7,53,8
4180,-410,70,863,-15,42,17
4181,-408,-51,880,-29,-11,5
4182,-1,-142,1048,-8,-65,-2
4183,417,-115,1133,11,-57,2
4184,418,-10,1058,20,1,-1
4185,21,80,966,16,51,7
4186,-364,80,864,-12,48,19
4187,-444,-17,859,-24,-2,8
4188,-82,-133,1029,-16,-58,-4
4189,398,-124,1136,6,-64,2
4190,447,-20,1074,21,-8,0
4191,94,65,976,10,47,4
4192,-322,95,887,-8,52,19
4193,-481,-8,848,-29,6,9
4194,-150,-119,1000,-17,-53,-4
4195,354,-118,1134,5,-69,4
4196,468,-35,1092,16,-17,1
4197,165,62,991,12,42,1
4198,-276,89,906,-9,54,20
4199,-496,7,836,-31,16,12
4200,-202,-106,978,-22,-47,-1
4201,286,-135,1121,-1,-69,4
4202,476,-51,1089,11,-25,2
4203,215,53,1011,17,38,2
4204,-234,83,910,-11,55,17
4205,-484,24,840,-24,23,14
4206,-248,-96,958,-25,-40,0
4207,230,-149,1104,-4,-68,1
4208,481,-69,1094,16,-31,3
4209,259,41,1013,13,31,3
4210,-187,91,919,-3,56,15
4211,-471,33,854,-21,27,17
4212,-301,-86,943,-26,-34,2
4213,175,-141,1086,-3,-69,0
4214,483,-83,1102,13,-38,3
4215,298,38,1022,18,25,1
4216,-122,89,938,1,56,12
4217,-465,43,859,-23,36,18
4218,-353,-68,918,-23,-26,3
4219,118,-142,1087,-9,-69,0
4220,462,-92,1116,10,-46,3
4221,347,26,1038,19,16,1
4222,-66,82,945,1,56,10
4223,-442,61,853,-19,40,19
4224,-396,-67,896,-26,-17,3
4225,47,-139,1081,-11,-67,-2
4226,445,-104,1128,13,-53,3
4227,395,4,1043,16,8,0
4228,-14,89,954,7,53,9
4229,-403,76,856,-17,46,18
4230,-428,-36,882,-32,-9,5
4231,-31,-138,1044,-12,-63,-1
4232,422,-114,1127,5,-60,3
4233,435,-15,1067,15,-1,3
4234,43,77,972,10,51,7
4235,-363,83,863,-18,51,19
4236,-460,-26,849,-27,1,9
4237,-101,-123,1027,-17,-59,-3
4238,383,-118,1141,5,-65,3
4239,459,-29,1071,18,-11,2
4240,110,67,997,7,46,6
4241,-315,80,876,-12,54,18
4242,-478,-1,843,-27,9,11
4243,-164,-117,1002,-22,-52,0
4244,333,-124,1133,4,-69,2
4245,473,-49,1093,14,-18,2
4246,169,62,996,13,43,5
4247,-267,79,905,-8,54,17
4248,-493,9,833,-28,19,13
4249,-217,-100,974,-17,-45,-2
4250,279,-144,1126,-3,-71,1
4251,478,-51,1084,19,-26,2
4252,231,55,1019,15,35,2
4253,-220,82,914,-6,57,16
4254,-490,24,835,-24,25,14
4255,-268,-89,956,-23,-40,0
4256,222,-145,1103,-5,-71,0
4257,486,-69,1095,18,-35,2
4258,283,37,1018,14,28,2
4259,-168,85,923,-1,56,14
4260,-477,32,850,-20,33,15
4261,-329,-66,932,-24,-31,1
4262,155,-139,1101,-4,-71,0
4263,483,-83,1105,11,-43,2
4264,336,38,1027,18,22,2
4265,-100,78,935,0,57,13
4266,-456,53,854,-21,39,17
4267,-393,-65,911,-23,-21,3
4268,90,-146,1094,-9,-71,0
4269,457,-88,1116,14,-50,3
4270,383,19,1039,17,12,2
4271,-32,87,952,1,56,11
4272,-428,60,857,-18,46,19
4273,-429,-52,881,-29,-11,5
4274,3,-138,1072,-13,-68,-1
4275,431,-108,1131,9,-59,4
4276,427,1,1057,18,3,1
4277,27,87,957,7,55,9
4278,-385,68,855,-19,50,19
4279,-451,-25,864,-30,-2,7
4280,-81,-131,1045,-15,-60,-1
4281,401,-120,1140,2,-63,4
4282,449,-13,1069,14,-7,1
4283,81,64,976,6,51,7
4284,-335,80,869,-17,53,19
4285,-465,-9,839,-28,6,10
4286,-128,-140,1022,-21,-55,0
4287,354,-115,1138,6,-64,3
4288,459,-29,1086,19,-14,1
4289,126,54,988,7,44,5
4290,-291,96,892,-7,52,17
4291,-479,-14,836,-32,12,10
4292,-170,-122,994,-18,-51,0
4293,311,-125,1133,6,-68,3
4294,464,-54,1085,17,-20,2
4295,178,59,1002,18,40,4
4296,-260,89,910,-7,55,15
4297,-483,6,835,-28,17,12
4298,-227,-93,964,-18,-44,-2
4299,267,-141,1120,-1,-72,0
4300,477,-58,1091,17,-28,3
4301,245,44,1013,16,34,1
4302,-209,88,918,-6,57,13
4303,-482,23,842,-22,26,15
4304,-293,-80,940,-23,-37,1
4305,198,-134,1104,-4,-74,0
4306,493,-75,1104,16,-39,2
4307,297,44,1019,15,26,0
4308,-143,86,927,-1,58,14
4309,-470,40,848,-25,34,16
4310,-343,-69,927,-27,-29,1
4311,135,-143,1097,-4,-71,0
4312,476,-87,1112,9,-44,3
4313,335,31,1029,18,19,1
4314,-82,90,945,-1,56,11
4315,-445,46,847,-22,39,16
4316,-385,-58,907,-25,-18,2
4317,74,-151,1092,-12,-70,-1
4318,453,-93,1123,13,-50,5
4319,369,18,1036,18,11,2
4320,-31,84,948,1,55,10
4321,-423,59,858,-18,45,18
4322,-412,-55,883,-28,-11,4
4323,5,-139,1067,-15,-66,1
4324,431,-117,1125,11,-56,3
4325,413,3,1058,18,4,1
4326,9,81,961,8,52,8
4327,-385,66,861,-16,48,17
4328,-443,-30,852,-28,-3,8
4329,-65,-136,1037,-11,-61,0
4330,405,-111,1142,5,-61,2
4331,452,-13,1079,19,-5,1
4332,84,72,985,9,49,7
4333,-340,86,866,-12,53,17
4334,-475,-15,831,-26,7,10
4335,-148,-120,1019,-20,-56,-1
4336,356,-129,1142,5,-68,3
4337,485,-35,1090,18,-17,3
4338,152,68,995,10,46,6
4339,-279,80,884,-11,57,18
4340,-495,8,845,-25,18,12
4341,-213,-107,974,-23,-46,-1
4342,293,-128,1139,2,-72,2
4343,480,-42,1096,12,-27,2
4344,228,41,1003,10,37,5
4345,-233,91,914,-5,60,16
4346,-490,6,827,-31,25,13
4347,-271,-110,953,-20,-37,1
4348,219,-122,1124,-1,-71,0
4349,480,-70,1085,13,-35,3
4350,279,48,1023,16,29,3
4351,-166,82,922,-9,59,15
4352,-471,26,833,-23,32,15
4353,-329,-82,931,-24,-29,0
4354,154,-147,1102,-4,-72,0
4355,475,-81,1106,17,-43,4
4356,325,35,1026,16,21,2
4357,-111,85,927,2,60,13
4358,-446,30,849,-23,37,15
4359,-374,-62,915,-22,-23,1
4360,107,-139,1097,-4,-72,0
4361,458,-84,1116,14,-49,5
4362,361,31,1038,21,15,1
4363,-45,82,950,-1,56,13
4364,-434,56,838,-21,44,18
4365,-416,-63,892,-24,-15,2
4366,31,-134,1093,-9,-70,-2
4367,439,-94,1133,11,-58,4
4368,406,8,1047,17,4,1
4369,12,92,950,3,56,9
4370,-397,66,851,-18,51,20
4371,-450,-40,872,-31,-4,6
4372,-44,-128,1061,-12,-65,-3
4373,406,-101,1147,6,-64,5
4374,443,-6,1058,15,-5,0
4375,69,72,967,2,53,8
4376,-357,63,859,-19,54,18
4377,-455,-26,848,-30,3,6
4378,-119,-122,1039,-15,-58,-1
4379,368,-125,1131,2,-67,4
4380,463,-15,1081,17,-15,3
4381,105,70,985,4,48,6
4382,-302,68,870,-16,53,19
4383,-472,-7,844,-27,12,9
4384,-160,-121,1001,-22,-53,-3
4385,337,-143,1138,3,-69,3
4386,455,-27,1091,22,-19,1
4387,159,53,991,7,43,3
4388,-267,80,899,-14,55,17
4389,-482,20,838,-24,17,10
4390,-203,-134,965,-27,-48,-3
4391,287,-121,1145,13,-71,3
4392,465,-54,1085,14,-27,1
4393,216,46,1009,18,37,2
4394,-231,90,912,-4,58,15
4395,-487,17,832,-25,23,13
4396,-265,-97,956,-14,-40,-1
4397,231,-131,1122,-3,-76,1
4398,484,-59,1091,20,-34,2
4399,282,35,1023,16,30,-1
4400,-174,89,917,-1,62,16
4401,-479,37,844,-25,33,17
4402,-330,-87,927,-24,-31,-3
4403,160,-124,1102,-2,-76,-1
4404,492,-80,1109,13,-46,5
4405,335,31,1024,16,22,-1
4406,-104,86,930,0,62,13
4407,-459,46,858,-23,40,18
4408,-388,-65,904,-28,-20,2
4409,84,-127,1094,-4,-73,0
4410,466,-80,1119,5,-53,4
4411,385,16,1038,18,11,1
4412,-36,88,949,-2,61,11
4413,-422,42,849,-27,47,18
4414,-427,-58,885,-25,-10,4
4415,6,-130,1089,-12,-68,-2
4416,429,-112,1134,8,-59,4
4417,411,14,1052,18,1,2
4418,20,87,945,2,56,10
4419,-379,62,856,-19,51,20
4420,-443,-35,875,-33,-2,6
4421,-60,-133,1051,-13,-63,-2
4422,394,-116,1144,6,-64,4
4423,431,-17,1058,16,-7,1
4424,63,75,967,8,51,8
4425,-339,62,860,-16,53,19
4426,-447,-18,850,-25,5,7
4427,-113,-129,1030,-14,-58,-2
4428,368,-115,1144,7,-67,4
4429,440,-21,1072,18,-15,0
4430,109,64,986,9,46,6
4431,-299,77,879,-14,55,18
4432,-466,-14,832,-25,11,8
4433,-157,-123,1008,-18,-53,-3
4434,337,-132,1132,9,-68,3
4435,454,-25,1095,21,-20,2
4436,160,60,994,11,42,3
4437,-263,85,904,-6,57,17
4438,-481,13,830,-28,17,11
4439,-212,-101,969,-19,-47,-3
4440,279,-134,1135,1,-73,1
4441,475,-51,1094,16,-29,3
4442,226,52,1014,16,36,2
4443,-222,79,913,-11,60,17
4444,-487,13,823,-27,25,14
4445,-278,-87,954,-20,-38,-1
4446,214,-136,1127,-2,-74,0
4447,485,-62,1091,18,-38,4
4448,287,51,1021,15,30,2
4449,-160,83,919,-7,62,15
4450,-473,41,847,-23,35,16
4451,-341,-86,926,-30,-29,0
4452,145,-147,1098,-2,-74,1
4453,483,-68,1115,15,-47,6
4454,335,35,1023,15,20,0
4455,-97,77,934,-3,60,11
4456,-445,41,854,-23,40,17
4457,-389,-70,905,-26,-20,2
4458,81,-147,1094,-7,-72,0
4459,454,-82,1125,12,-53,3
4460,371,16,1035,19,9,-1
4461,-32,79,953,1,58,10
4462,-417,58,853,-20,45,17
4463,-421,-61,878,-25,-11,5
4464,10,-132,1087,-9,-70,-2
4465,425,-93,1141,13,-59,4
4466,407,5,1047,19,1,-1
4467,22,75,950,3,54,9
4468,-380,59,861,-14,50,20
4469,-442,-30,864,-26,-3,4
4470,-58,-137,1055,-11,-64,-1
4471,394,-101,1141,11,-64,5
4472,442,0,1062,16,-9,1
4473,65,72,969,8,52,8
4474,-337,70,862,-17,54,18
4475,-462,-21,845,-27,5,8
4476,-128,-121,1030,-18,-58,-2
4477,368,-118,1138,4,-68,4
4478,456,-20,1079,19,-14,2
4479,129,67,989,5,47,6
4480,-297,82,879,-14,55,19
4481,-481,-6,829,-28,14,9
4482,-177,-112,1004,-21,-52,-2
4483,316,-123,1140,3,-71,4
4484,471,-45,1088,15,-23,1
4485,180,64,1003,12,40,3
4486,-253,74,895,-11,58,17
4487,-486,5,835,-27,20,11
4488,-235,-95,973,-19,-44,-3
4489,274,-146,1123,0,-74,3
4490,470,-47,1105,17,-31,3
4491,234,49,1010,14,34,-1
4492,-207,77,914,-10,58,17
4493,-490,26,829,-25,27,13
4494,-277,-103,944,-20,-38,-5
4495,214,-141,1119,-1,-74,2
4496,469,-65,1091,19,-38,3
4497,290,39,1025,16,26,-2
4498,-157,88,918,-2,60,14
4499,-463,35,842,-23,32,16
4500,-338,-74,934,-26,-29,-1
4501,155,-141,1093,-4,-73,-1
4502,464,-69,1109,13,-45,2
4503,334,28,1035,14,17,-2
4504,-95,81,933,1,60,13
4505,-450,53,846,-23,40,17
4506,-373,-71,913,-26,-21,1
4507,86,-142,1095,-6,-70,-2
4508,454,-83,1115,9,-52,4
4509,370,22,1038,21,10,1
4510,-48,89,940,-1,59,10
4511,-423,60,858,-18,43,16
4512,-404,-57,899,-28,-14,3
4513,34,-149,1073,-13,-68,0
4514,430,-95,1128,10,-55,6
4515,393,0,1050,15,4,0
4516,-10,88,945,3,55,9
4517,-399,69,859,-20,46,18
4518,-416,-44,881,-33,-8,5
4519,-36,-135,1046,-12,-62,-1
4520,421,-121,1140,4,-61,3
4521,424,-11,1065,17,-1,1
4522,32,71,962,8,52,7
4523,-358,79,863,-14,50,17
4524,-448,-23,846,-29,0,8
4525,-91,-135,1031,-15,-59,-2
4526,389,-123,1142,5,-66,3
4527,455,-23,1076,22,-11,1
4528,97,63,980,8,50,6
4529,-318,84,881,-10,54,17
4530,-477,0,838,-25,9,8
4531,-161,-123,999,-23,-54,-2
4532,336,-126,1140,6,-70,1
4533,477,-39,1094,17,-21,1
4534,171,63,1002,14,43,3
4535,-260,77,897,-7,58,17
4536,-494,14,833,-27,21,12
4537,-231,-106,964,-19,-46,-2
