sequence,AccelerometerX,AccelerometerY,AccelerometerZ,GyroscopeX,GyroscopeY,GyroscopeZ
0,41,26,1011,-13,-23,-8
1,141,27,995,-13,-13,-6
2,128,54,1006,-10,7,-1
3,9,47,994,-10,23,4
4,-95,39,1002,-9,21,-1
5,-143,15,985,-24,3,-1
6,-58,9,995,-6,-16,-6
7,79,22,1001,-16,-24,-10
8,137,31,1000,-15,-10,-6
9,115,53,1001,-9,9,-1
10,-11,44,1005,-17,22,1
11,-122,35,999,-13,18,0
12,-123,13,982,-17,-2,-5
13,-37,16,994,-16,-17,-7
14,93,18,996,-14,-22,-7
15,143,35,1005,-14,-6,-6
16,90,55,1006,-12,14,-1
17,-33,48,997,-13,23,2
18,-128,26,996,-16,14,0
19,-113,14,985,-16,-6,-4
20,-17,8,984,-16,-19,-7
21,126,28,1016,-14,-19,-9
22,134,34,999,-13,-1,-2
23,75,58,1003,-10,17,-1
24,-54,34,1003,-15,23,1
25,-142,27,975,-14,13,0
26,-91,7,993,-19,-10,-6
27,13,17,1000,-14,-21,-9
28,127,34,1003,-11,-16,-5
29,142,45,1001,-13,3,-3
30,35,49,1000,-13,21,2
31,-80,46,996,-13,21,1
32,-141,13,983,-18,6,-2
33,-73,15,998,-14,-13,-5
34,49,16,1000,-16,-23,-7
35,136,34,1002,-14,-13,-6
36,124,46,1001,-10,6,-1
37,9,56,995,-13,20,1
38,-98,36,1002,-15,20,0
39,-134,22,985,-16,2,-2
40,-50,9,997,-18,-17,-6
41,77,19,998,-15,-21,-8
42,136,34,999,-14,-7,-4
43,110,50,1003,-13,10,-1
44,-22,45,1002,-13,24,2
45,-119,34,995,-15,17,0
46,-123,8,992,-18,-2,-5
47,-29,17,984,-14,-17,-7
48,96,24,1004,-14,-20,-7
49,142,46,1003,-12,-4,-5
50,78,46,1004,-16,14,1
51,-42,46,994,-13,24,1
52,-132,13,1000,-17,14,-2
53,-105,22,980,-14,-7,-5
54,0,6,993,-18,-21,-8
55,116,34,1002,-11,-18,-7
56,141,45,1005,-15,-1,-3
57,62,57,1001,-13,18,1
58,-64,32,1000,-17,23,4
59,-145,24,982,-15,10,-1
60,-89,6,989,-17,-11,-7
61,23,14,994,-15,-21,-8
62,123,41,1013,-13,-15,-4
63,148,44,999,-13,3,-4
64,35,47,996,-14,23,2
65,-84,32,996,-17,22,1
66,-145,19,991,-15,7,-3
67,-68,6,982,-16,-14,-6
68,43,24,1010,-15,-20,-7
69,145,37,1001,-12,-12,-6
70,126,44,1001,-13,8,-1
71,8,55,994,-16,23,2
72,-104,29,1000,-16,22,0
73,-143,18,988,-16,3,-5
74,-49,9,996,-16,-17,-7
75,71,24,995,-15,-22,-7
76,151,38,1005,-13,-9,-5
77,110,54,1004,-11,12,-2
78,-21,49,998,-16,24,2
79,-119,32,1000,-15,18,0
80,-132,12,987,-17,-2,-3
81,-34,7,980,-16,-19,-6
82,93,20,1008,-12,-21,-8
83,155,43,1000,-12,-7,-6
84,101,50,1002,-12,14,1
85,-38,50,998,-13,25,2
86,-137,29,1009,-18,15,-1
87,-120,12,965,-16,-5,-4
88,-23,6,997,-18,-20,-6
89,117,31,1009,-14,-21,-8
90,160,34,998,-13,-3,-5
91,76,53,1008,-12,18,1
92,-54,40,1002,-15,24,2
93,-150,23,982,-12,13,-2
94,-113,17,983,-16,-10,-4
95,9,19,998,-16,-24,-7
96,132,38,1006,-13,-17,-7
97,147,40,1002,-17,0,-3
98,59,51,995,-14,19,0
99,-82,33,1006,-17,24,2
100,-143,19,975,-15,8,-2
101,-88,4,995,-15,-11,-5
102,38,31,996,-12,-21,-8
103,141,36,1015,-14,-13,-5
104,137,52,992,-11,6,-2
105,12,47,998,-14,23,3
106,-93,29,1004,-16,19,-1
107,-141,12,982,-16,5,-3
108,-59,11,996,-14,-15,-6
109,68,16,1000,-15,-23,-7
110,142,39,998,-10,-10,-6
111,113,52,1002,-11,10,-2
112,-16,56,1003,-14,24,2
113,-117,29,1004,-15,17,0
114,-130,16,984,-17,0,-3
115,-31,0,982,-17,-17,-7
116,88,25,1009,-12,-20,-7
117,147,41,999,-12,-6,-6
118,91,58,1005,-10,15,0
119,-37,46,994,-14,23,2
120,-135,29,1006,-15,15,-1
121,-115,14,971,-17,-5,-3
122,-15,11,999,-16,-19,-7
123,112,28,999,-14,-21,-7
124,151,42,1009,-12,-2,-3
125,71,47,999,-12,19,2
126,-56,49,999,-15,25,3
127,-136,19,993,-15,12,-3
128,-102,15,977,-17,-9,-4
129,9,10,1004,-15,-21,-9
130,130,39,1006,-13,-17,-6
131,145,35,997,-15,1,-2
132,51,56,1002,-11,20,1
133,-84,35,1003,-16,22,2
134,-139,22,976,-15,9,-2
135,-82,5,991,-16,-13,-5
136,41,23,1003,-12,-22,-7
137,138,29,1011,-12,-13,-6
138,135,52,988,-12,7,-1
139,15,52,1008,-13,23,2
140,-97,42,999,-17,21,1
141,-145,11,981,-18,4,-2
142,-58,11,996,-14,-14,-6
143,69,17,1006,-15,-22,-8
144,144,38,988,-12,-9,-5
145,119,55,1015,-12,10,-1
146,-10,53,995,-15,23,3
147,-119,32,1004,-16,18,-1
148,-133,7,974,-19,0,-3
149,-42,3,1000,-16,-17,-7
150,99,25,993,-12,-21,-10
151,149,37,1007,-13,-5,-4
152,104,58,996,-13,15,1
153,-38,41,1014,-15,27,2
154,-135,42,989,-15,17,0
155,-122,-3,981,-17,-4,-4
156,-16,14,994,-15,-19,-8
157,112,13,1003,-15,-20,-6
158,155,50,998,-9,-1,-5
159,83,48,1018,-11,18,0
160,-52,58,991,-13,24,2
161,-149,20,982,-17,16,-1
162,-111,14,993,-17,-9,-6
163,-1,0,988,-16,-22,-7
164,128,30,1003,-9,-19,-8
165,155,39,1008,-10,0,-4
166,64,54,1005,-8,21,2
167,-74,45,991,-12,25,1
168,-155,25,984,-14,11,-1
169,-89,9,993,-15,-12,-7
170,19,18,994,-14,-21,-7
171,141,26,1011,-15,-15,-8
172,148,40,1004,-11,5,-4
173,33,49,994,-11,22,2
174,-97,44,998,-13,23,1
175,-146,21,987,-14,6,-3
176,-76,14,997,-16,-14,-8
177,59,15,988,-15,-24,-9
178,143,36,1016,-11,-13,-5
179,133,43,991,-13,8,-2
180,-6,40,999,-12,25,2
181,-105,35,1008,-14,18,1
182,-139,15,981,-16,2,-3
183,-36,15,987,-12,-17,-8
184,86,25,1007,-13,-19,-8
185,138,47,1000,-11,-6,-7
186,103,46,1003,-13,12,-1
187,-39,43,999,-14,25,2
188,-119,17,1002,-14,15,-2
189,-113,12,979,-12,-1,-5
190,-13,14,988,-13,-18,-6
191,103,30,1007,-13,-18,-8
192,141,44,1002,-11,-1,-4
193,63,52,1001,-13,18,1
194,-50,44,1001,-14,23,1
195,-137,14,992,-15,12,-3
196,-97,19,974,-14,-8,-6
197,14,5,1003,-16,-20,-9
198,117,46,1009,-9,-14,-6
199,140,33,998,-13,2,-4
200,43,59,1002,-10,22,1
201,-73,40,1002,-14,21,3
202,-141,22,979,-15,9,-2
203,-81,11,987,-16,-12,-6
204,35,16,1004,-17,-21,-6
205,132,35,1013,-14,-13,-5
206,140,39,990,-13,5,-3
207,21,50,1001,-11,24,1
208,-88,43,1003,-13,20,-1
209,-148,24,982,-17,6,-3
210,-71,15,993,-15,-14,-6
211,56,16,1006,-17,-23,-6
212,145,42,993,-13,-10,-7
213,132,38,1005,-16,8,-2
214,-4,49,1002,-11,24,3
215,-106,31,1002,-16,21,0
216,-145,19,986,-16,4,-3
217,-47,17,989,-15,-18,-5
218,79,20,996,-14,-22,-8
219,147,42,1011,-12,-8,-6
220,109,45,993,-15,13,1
221,-27,51,1006,-15,26,3
222,-120,20,997,-17,17,0
223,-125,13,983,-17,-1,-4
224,-23,9,986,-13,-20,-7
225,97,29,1010,-11,-20,-7
226,148,39,1003,-14,-5,-5
227,77,56,1004,-12,16,2
228,-40,46,1002,-13,22,2
229,-135,21,985,-16,14,0
230,-114,10,984,-16,-7,-4
231,4,10,997,-14,-21,-8
232,114,28,1005,-12,-17,-6
233,140,43,1001,-13,0,-5
234,70,56,1009,-9,18,0
235,-74,41,992,-17,23,2
236,-141,24,985,-16,9,-1
237,-86,0,991,-18,-11,-6
238,12,8,998,-13,-20,-7
239,142,32,1004,-9,-15,-8
240,143,48,1006,-10,6,-3
241,34,63,994,-10,21,2
242,-88,40,1002,-16,21,1
243,-150,19,987,-18,6,-3
244,-79,5,990,-15,-14,-6
245,67,11,1004,-13,-23,-10
246,143,34,992,-12,-11,-5
247,134,50,1003,-11,9,-2
248,7,52,1004,-13,24,0
249,-121,38,998,-13,20,2
250,-140,22,987,-16,1,-4
251,-51,2,986,-15,-17,-8
252,74,16,994,-13,-22,-7
253,156,41,1014,-12,-9,-6
254,114,49,990,-12,12,-1
255,-21,54,1006,-13,24,3
256,-118,36,1006,-16,18,-2
257,-142,0,978,-18,-1,-3
258,-32,14,982,-14,-19,-6
259,99,16,1017,-14,-22,-8
260,150,48,994,-10,-4,-5
261,100,49,1016,-10,15,0
262,-37,52,996,-12,25,1
263,-133,18,991,-16,16,-1
264,-117,16,978,-13,-5,-5
265,-23,13,995,-14,-20,-6
266,121,38,1000,-12,-21,-8
267,158,38,1013,-15,-2,-4
268,72,51,992,-12,17,3
269,-58,44,1007,-14,24,1
270,-147,18,981,-16,11,-1
271,-97,7,984,-16,-9,-6
272,9,16,996,-15,-21,-7
273,135,36,1017,-12,-18,-7
274,146,46,994,-12,2,-4
275,44,51,993,-13,21,1
276,-76,39,1015,-15,23,1
277,-151,23,979,-17,8,-1
278,-82,10,987,-18,-13,-5
279,47,13,1008,-15,-24,-8
280,136,32,997,-12,-13,-5
281,136,54,997,-10,6,-1
282,9,47,1006,-14,23,2
283,-104,43,1003,-14,20,1
284,-135,14,985,-17,3,-3
285,-61,14,988,-16,-16,-6
286,78,11,1000,-14,-21,-8
287,143,41,1004,-12,-8,-5
288,114,48,997,-12,11,0
289,-15,51,1007,-12,24,1
290,-120,32,1002,-14,17,0
291,-122,11,975,-16,-1,-5
292,-38,9,992,-15,-18,-7
293,98,23,1006,-13,-21,-7
294,140,38,1001,-13,-5,-5
295,101,58,1007,-11,15,-1
296,-44,39,1003,-13,23,3
297,-124,30,977,-15,15,-2
298,-115,4,994,-15,-5,-3
299,-13,25,990,-16,-20,-6
300,114,26,1006,-14,-18,-6
301,143,49,1000,-11,-1,-3
302,64,49,1011,-15,17,1
303,-59,47,992,-16,21,1
304,-137,14,985,-18,11,-2
305,-89,16,987,-15,-9,-6
306,25,10,1006,-15,-21,-8
307,124,41,1003,-11,-14,-5
308,141,43,997,-12,3,-3
309,25,53,998,-11,21,1
310,-81,33,1006,-16,20,1
311,-141,20,977,-17,6,-2
312,-63,6,999,-15,-13,-6
313,62,16,1000,-16,-20,-7
314,136,33,1002,-12,-9,-6
315,113,51,992,-9,8,-1
316,-5,52,1010,-16,21,0
317,-106,37,997,-16,18,1
318,-136,20,988,-18,0,-3
319,-32,5,987,-16,-18,-7
320,82,12,1006,-12,-19,-6
321,137,42,997,-11,-7,-6
322,95,53,1000,-13,13,0
323,-33,51,1005,-13,23,2
324,-122,23,1000,-18,14,0
325,-109,10,979,-17,-5,-5
326,-19,13,991,-15,-19,-6
327,111,23,1007,-12,-21,-9
328,139,38,1000,-11,-2,-4
329,66,59,1001,-13,17,1
330,-49,42,1005,-15,21,0
331,-130,19,987,-14,12,-2
332,-102,11,975,-14,-10,-5
333,12,12,1006,-13,-22,-10
334,121,38,1005,-11,-16,-5
335,141,46,996,-9,2,-4
336,45,52,1006,-13,19,1
337,-77,40,997,-12,21,1
338,-136,18,979,-15,6,-4
339,-85,8,988,-16,-12,-7
340,39,21,1006,-10,-22,-9
341,138,32,1007,-11,-13,-7
342,123,48,994,-9,6,-2
343,23,56,1001,-10,21,1
344,-93,29,1001,3,18,-4
345,-140,23,978,-11,4,-3
346,-56,3,997,-18,-17,-6
347,62,23,1000,-11,-21,-10
348,145,34,999,-11,-10,-5
349,118,56,996,-11,10,-3
350,-11,52,1005,-11,23,1
351,-107,36,1000,-17,17,-1
352,-137,19,984,-16,0,-4
353,-33,10,988,-15,-18,-7
354,83,18,1004,-13,-21,-6
355,140,34,996,-12,-7,-6
356,102,55,1009,-10,13,-2
357,-32,53,996,-13,22,2
358,-121,29,1004,-14,16,-1
359,-117,22,979,-16,-4,-5
360,-19,6,985,-17,-19,-6
361,101,29,1010,-13,-19,-8
362,139,39,1001,-15,-3,-3
363,85,55,1003,-12,16,0
364,-43,47,1002,-16,22,2
365,-132,25,985,-17,13,-1
366,-106,11,988,-17,-7,-4
367,-9,16,988,-16,-20,-5
368,120,31,1009,-16,-19,-5
369,143,49,1003,-11,0,-2
370,62,53,1002,-15,18,1
371,-56,47,995,-17,22,0
372,-146,21,990,-19,10,0
373,-98,6,979,-18,-10,-5
374,15,6,1001,-17,-22,-6
375,133,38,1015,-13,-17,-6
376,150,43,995,-14,2,-4
377,45,57,994,-13,21,3
378,-81,41,1008,-16,22,1
379,-153,26,988,-20,8,0
380,-89,7,985,-18,-13,-5
381,48,15,1003,-17,-24,-8
382,140,28,1004,-15,-15,-4
383,138,47,995,-13,5,-1
384,12,45,1002,-16,24,2
385,-104,38,1005,-14,21,2
386,-139,15,981,-18,3,-3
387,-53,14,989,-16,-15,-6
388,76,18,1002,-16,-22,-7
389,137,40,1000,-13,-7,-4
390,111,48,1005,-15,11,0
391,-20,51,997,-15,23,4
392,-123,29,1008,-17,17,0
393,-116,14,978,-17,-2,-4
394,-25,12,985,-15,-19,-6
395,94,26,1008,-14,-20,-6
396,142,42,1009,-14,-5,-4
397,84,53,994,-14,15,2
398,-47,49,1004,-17,24,3
399,-129,16,990,-19,12,-1
400,-101,13,983,-16,-7,-6
401,0,7,988,-16,-19,-8
402,117,36,1013,-12,-17,-6
403,141,40,1000,-14,1,-3
404,52,48,998,-15,20,3
405,-66,43,1006,-16,23,1
406,-136,17,980,-18,9,-3
407,-87,14,986,-16,-10,-5
408,27,12,1002,-15,-22,-6
409,127,39,1015,-12,-14,-9
410,147,42,991,-13,4,-4
411,22,49,1000,-12,23,2
412,-87,39,1003,-16,21,0
413,-149,17,984,-16,5,-2
414,-68,11,991,-14,-14,-7
415,57,20,1005,-13,-22,-7
416,150,37,993,-13,-12,-7
417,130,46,1003,-12,7,-1
418,-5,51,1000,-13,23,2
419,-111,30,1000,-16,18,0
420,-139,16,988,-16,2,-4
421,-53,12,993,-16,-18,-6
422,86,23,988,-11,-23,-7
423,147,35,1021,-12,-8,-5
424,117,55,985,-12,11,-1
425,-26,43,1008,-13,26,1
426,-126,32,1005,-18,16,-2
427,-139,8,971,-16,-3,-4
428,-27,15,992,-13,-20,-8
429,106,17,1013,-15,-22,-8
430,150,44,989,-11,-5,-6
431,109,52,1016,-13,15,0
432,-49,51,995,-15,25,3
433,-138,24,987,-14,16,-2
434,-125,10,984,-17,-5,-5
435,-24,13,991,-14,-21,-6
436,122,31,1005,-13,-21,-8
437,162,42,1008,-12,-2,-5
438,80,45,996,-11,18,1
439,-59,48,1003,-12,27,1
440,-148,17,986,-16,14,-1
441,-120,13,972,-15,-8,-3
442,6,16,1012,-15,-24,-9
443,137,32,1006,-13,-19,-7
444,158,41,998,-10,2,-4
445,52,58,996,-11,22,3
446,-80,34,1010,-16,25,1
447,-160,25,979,-15,10,-1
448,-87,12,989,-15,-13,-7
449,54,15,1007,-14,-23,-8
450,133,40,993,-13,-14,-5
451,140,50,1000,-13,5,-3
452,7,41,1007,-14,22,3
453,-102,32,998,-15,19,0
454,-137,8,984,-16,3,-4
455,-55,14,997,-14,-16,-7
456,71,14,992,-12,-22,-7
457,140,42,1007,-9,-7,-6
458,114,55,1003,-12,9,-1
459,-27,58,995,-13,24,2
460,-114,32,1008,-15,15,-3
461,-126,6,974,-16,-3,-2
462,-22,14,998,-14,-20,-8
463,101,23,1002,-13,-20,-7
464,138,44,1001,-11,-3,-3
465,86,51,1006,-11,15,1
466,-42,51,1003,-13,23,1
467,-132,26,986,-18,13,0
468,-110,11,985,-14,-7,-5
469,-3,14,992,-17,-21,-8
470,118,29,1007,-13,-18,-7
471,146,45,1000,-10,0,-4
472,70,52,1001,-13,19,0
473,-62,47,1001,-14,23,3
474,-144,22,980,-18,11,-2
475,-107,9,990,-18,-10,-6
476,17,17,999,-14,-22,-8
477,134,35,1013,-15,-17,-6
478,159,44,996,-12,2,-3
479,41,45,997,-14,22,3
480,-83,45,1006,-15,23,-1
481,-160,16,983,-18,8,0
482,-88,13,990,-16,-14,-5
483,47,14,1001,-17,-25,-8
484,154,37,1001,-12,-15,-6
485,143,47,1000,-13,6,-2
486,12,54,997,-15,25,3
487,-106,37,1006,-16,21,1
488,-158,18,983,-21,4,0
489,-66,4,984,-16,-17,-7
490,81,14,1002,-13,-25,-8
491,157,33,1007,-12,-11,-6
492,124,55,997,-11,11,0
493,-7,52,1010,-13,25,1
494,-136,32,1000,-16,19,1
495,-140,15,976,-16,-1,-4
496,-40,5,990,-16,-20,-8
497,98,21,1004,-12,-22,-7
498,156,34,1005,-14,-8,-4
499,104,58,1003,-11,15,-1
500,-36,40,1005,-14,24,2
501,-139,27,984,-13,15,-2
502,-125,8,983,-14,-6,-4
503,-14,17,993,-14,-21,-8
504,117,28,1006,-14,-21,-7
505,156,42,1008,-11,-2,-5
506,71,57,998,-12,18,1
507,-54,38,1005,-15,24,0
508,-150,27,986,-15,12,-1
509,-109,4,976,-18,-9,-3
510,16,15,1007,-14,-22,-8
511,130,31,1010,-13,-18,-5
512,153,45,994,-12,1,-4
513,49,49,1003,-14,21,1
514,-88,43,1002,-15,22,2
515,-151,22,988,-16,7,-4
516,-90,8,983,-15,-12,-6
517,49,18,1011,-12,-24,-8
518,147,29,995,-13,-15,-7
519,135,47,1003,-10,7,-3
520,17,48,999,-13,23,2
521,-107,42,1009,-15,21,0
522,-147,23,977,-18,4,-3
523,-65,16,990,-16,-16,-8
524,75,11,1002,-15,-24,-8
525,143,36,1002,-13,-9,-6
526,124,48,1004,-13,10,-2
527,-7,43,1001,-13,25,2
528,-124,33,1000,-17,20,-1
529,-139,15,977,-17,0,-3
530,-39,18,991,-14,-19,-6
531,88,23,1008,-14,-23,-7
532,153,51,1001,-11,-7,-5
533,100,42,1015,-16,13,0
534,-38,47,992,-13,24,2
535,-129,14,989,-15,15,-1
536,-130,16,980,-12,-4,-5
537,-12,18,999,-14,-23,-7
538,119,38,1004,-14,-20,-6
539,146,46,1003,-15,-3,-3
540,80,54,1004,-13,18,0
541,-62,36,997,-17,24,2
542,-150,19,985,-17,12,-1
543,-98,4,985,-17,-10,-6
544,10,16,1003,-12,-22,-6
545,137,44,1005,-14,-18,-6
546,149,48,1004,-11,3,-4
547,42,62,997,-13,20,3
548,-79,30,1002,-18,22,0
549,-159,21,984,-17,8,-2
550,-84,6,990,-17,-15,-6
551,47,12,1000,-14,-24,-9
552,151,32,1002,-10,-14,-6
553,144,51,996,-12,6,-2
554,16,54,1011,-13,24,1
555,-110,41,999,-17,23,2
556,-156,19,982,-19,3,-2
557,-58,7,985,-18,-18,-7
558,67,15,1001,-16,-24,-6
559,166,43,1006,-13,-11,-6
560,126,41,1004,-13,11,0
561,-13,54,1001,-13,26,3
562,-130,22,1006,-16,20,2
563,-145,24,969,-13,0,-3
564,-41,5,992,-18,-20,-5
565,96,30,1008,-12,-24,-8
566,163,36,1002,-16,-9,-6
567,106,47,1001,-13,14,1
568,-40,38,1010,-14,24,2
569,-142,19,971,-15,15,-1
570,-130,16,996,-12,-5,-6
571,-7,18,986,-14,-24,-7
572,117,32,1015,-13,-20,-6
573,167,43,1000,-11,-3,-5
574,65,49,999,-14,19,1
575,-58,44,1002,-14,23,0
576,-156,18,986,-16,12,-1
577,-104,17,979,-16,-11,-7
578,23,18,1011,-16,-24,-8
579,138,38,1001,-14,-18,-7
580,150,41,1004,-14,3,-2
581,39,44,997,-12,21,2
582,-91,35,1002,-15,22,1
583,-147,26,988,-15,7,-4
584,-79,13,993,-16,-14,-5
585,51,22,996,-17,-24,-7
586,151,37,1008,-13,-12,-6
587,131,46,998,-12,8,-3
588,3,48,1004,-14,23,1
589,-107,27,1005,-18,20,-1
590,-143,19,980,-17,2,-3
591,-38,5,987,-16,-17,-8
592,79,25,1002,-15,-22,-7
593,142,49,1002,-13,-9,-5
594,111,55,1002,-14,12,-1
595,-35,40,1002,-19,24,3
596,-119,25,998,-15,16,-2
597,-123,0,978,-17,-2,-4
598,-24,12,987,-12,-21,-6
599,104,36,1008,-12,-21,-7
600,153,45,1002,-13,-5,-5
601,77,60,1003,-13,15,2
602,-45,41,999,-17,24,0
603,-135,16,993,-16,13,-2
604,-116,1,972,-15,-7,-4
605,2,19,1003,-13,-21,-9
606,111,37,1012,-13,-17,-5
607,153,53,993,-13,-1,-4
608,61,47,1005,-15,19,0
609,-79,44,1000,-14,22,1
610,-138,5,985,-17,9,-3
611,-91,7,986,-15,-11,-4
612,27,22,1005,-14,-22,-6
613,143,42,1006,-12,-15,-6
614,125,46,993,-14,5,-1
615,19,62,998,-13,20,2
616,-87,27,1007,-20,18,-1
617,-148,16,975,-18,5,-1
618,-50,5,1002,-17,-16,-7
619,70,15,1001,-14,-21,-7
620,132,47,996,-12,-8,-4
621,118,51,1002,-14,9,-2
622,-22,52,1010,-16,23,2
623,-108,37,992,-19,17,0
624,-121,0,993,-16,0,-6
625,-29,9,983,-15,-17,-6
626,89,14,1004,-12,-20,-6
627,144,54,1004,-10,-5,-5
628,89,46,1000,-16,15,1
629,-36,57,1002,-13,24,1
630,-124,18,1000,-19,14,-1
631,-121,18,971,-15,-3,-3
632,-11,0,1000,-17,-20,-7
633,108,29,1002,-11,-20,-7
634,153,43,1007,-12,-4,-5
635,82,54,1005,-12,17,0
636,-55,45,1005,-14,25,1
637,-146,19,971,-17,13,0
638,-114,10,992,-16,-8,-6
639,-2,14,990,-13,-22,-7
640,134,41,1016,-13,-18,-8
641,164,32,996,-16,0,-4
642,63,58,1000,-11,22,1
643,-76,34,1004,-14,24,1
644,-160,28,978,-13,11,-3
645,-109,6,989,-14,-11,-5
646,31,24,1003,-14,-24,-8
647,145,23,1009,-14,-18,-7
648,162,43,996,-10,3,-4
649,29,46,1002,-14,23,1
650,-87,35,1005,-11,24,-1
651,-166,20,986,-13,9,-2
652,-84,14,983,-13,-14,-7
653,58,22,1007,-12,-25,-10
654,144,37,999,-13,-14,-5
655,143,53,1003,-12,6,-3
656,8,43,1001,-13,25,2
657,-115,32,1012,-14,22,1
658,-144,11,968,-16,4,-3
659,-54,12,990,-12,-17,-6
660,79,30,1006,-14,-23,-7
661,148,42,998,-14,-9,-6
662,120,48,1007,-13,12,-1
663,-30,55,1008,-14,25,2
664,-120,23,985,-16,18,-2
665,-128,10,986,-14,0,-4
666,-37,16,982,-17,-18,-7
667,107,27,1007,-14,-22,-7
668,150,40,1007,-14,-4,-4
669,80,50,997,-13,16,0
670,-37,48,1009,-12,23,-1
671,-139,14,982,-15,15,0
672,-113,15,977,-14,-6,-5
673,2,6,1004,-13,-21,-8
674,109,37,1009,-11,-17,-5
675,156,41,995,-8,0,-5
676,63,48,1003,-10,20,0
677,-71,48,1003,-12,23,1
678,-138,24,982,-15,10,-4
679,-97,8,986,-16,-9,-5
680,23,17,1002,-14,-23,-7
681,132,27,1000,-14,-17,-8
682,147,41,999,-16,2,-4
683,31,51,998,-31,22,4
684,-80,44,1004,-13,23,0
685,-146,26,991,-17,6,-2
686,-77,11,984,-16,-14,-6
687,51,18,1001,-12,-24,-9
688,137,46,1008,-13,-13,-7
689,128,38,1003,-14,5,-4
690,1,44,995,-12,23,1
691,-106,30,1014,-12,19,-2
692,-131,18,971,-14,2,-4
693,-51,9,984,-14,-15,-6
694,73,33,1007,-13,-22,-6
695,140,42,1007,-13,-9,-6
696,112,48,1000,-12,12,-1
697,-22,51,1005,-17,24,0
698,-113,10,994,-15,17,-3
699,-118,12,977,-12,0,-3
700,-30,6,981,-14,-17,-7
701,98,45,1020,-9,-21,-9
702,147,43,1000,-13,-5,-5
703,76,58,1004,-12,16,0
704,-37,37,1000,-17,22,0
705,-128,15,990,-15,15,-2
706,-104,6,972,-13,-6,-5
707,2,17,1004,-11,-19,-8
708,112,34,1013,-13,-18,-6
709,143,42,996,-12,0,-4
710,57,53,1002,-13,18,-1
711,-66,49,1003,-14,22,0
712,-136,18,986,-18,10,-3
713,-90,11,985,-16,-10,-6
714,19,14,1002,-14,-22,-5
715,129,36,1002,-11,-16,-6
716,139,45,998,-12,2,-3
717,36,58,1004,-12,20,1
718,-77,44,1002,-16,21,0
719,-139,19,990,-17,7,-2
720,-82,8,978,-16,-12,-5
721,52,21,1001,-16,-22,-7
722,129,28,1009,-15,-13,-4
723,131,58,999,-13,5,-2
724,9,45,1001,-16,21,1
725,-101,35,1007,-13,20,-1
726,-127,16,980,-19,3,-2
727,-57,7,978,-16,-14,-7
728,66,27,1011,-14,-23,-6
729,135,39,1006,-15,-9,-6
730,108,53,1000,-12,11,-1
731,-18,46,1003,-16,22,2
732,-113,25,996,-18,17,-1
733,-116,7,976,-16,-2,-3
734,-31,17,987,-15,-18,-7
735,91,31,1013,-16,-20,-6
736,142,38,1006,-15,-6,-4
737,74,47,994,-14,14,0
738,-35,43,1011,-15,21,1
739,-124,17,984,-16,12,-1
740,-103,17,975,-16,-6,-4
741,2,16,1007,-15,-20,-7
742,112,29,1007,-14,-16,-5
743,134,46,1000,-13,1,-4
744,48,53,993,-13,17,1
745,-64,40,1011,-15,20,1
746,-130,24,980,-18,8,-2
747,-83,11,999,-17,-10,-4
748,34,11,995,-16,-21,-7
749,122,35,1002,-14,-13,-5
750,129,40,1000,-13,5,-3
751,24,54,1005,-14,21,2
752,-95,38,1002,-16,19,0
753,-130,20,983,-16,3,-4
754,-66,13,987,-20,-15,-4
755,63,22,996,-16,-21,-6
756,146,31,1008,-12,-11,-7
757,118,49,1000,-14,10,0
758,-8,48,1004,-13,23,1
759,-117,31,1000,-16,19,-2
760,-137,13,978,-17,0,-2
761,-49,14,984,-15,-18,-6
762,94,22,1010,-18,-24,-6
763,149,39,998,-14,-9,-4
764,107,54,1008,-15,13,-3
765,-26,42,1002,-17,25,3
766,-134,29,987,-14,17,0
767,-124,8,978,-16,-4,-3
768,-27,17,997,-17,-20,-6
769,108,31,1003,-13,-21,-6
770,162,45,1006,-13,-6,-5
771,85,54,1003,-13,17,0
772,-54,40,998,-14,24,3
773,-141,15,987,-16,14,-3
774,-113,6,981,-16,-7,-5
775,6,25,1003,-15,-23,-7
776,128,28,1010,-16,-19,-6
777,150,47,996,-12,1,-4
778,51,54,1005,-14,20,1
779,-79,39,998,-18,23,1
780,-145,17,986,-17,9,-3
781,-81,6,992,-18,-11,-4
782,46,15,997,-14,-22,-7
783,139,34,994,-12,-12,-7
784,132,53,1011,-11,6,-2
785,11,45,998,-11,22,2
786,-107,39,997,-15,20,0
787,-126,9,994,-19,2,-4
788,-46,9,982,-16,-15,-5
789,73,20,998,-13,-21,-8
790,142,43,1005,-13,-9,-5
791,95,53,1006,-14,11,0
792,-20,48,995,-16,22,2
793,-124,19,1000,-16,15,-1
794,-108,11,981,-15,-4,-5
795,-26,3,990,-14,-17,-7
796,103,34,1000,-9,-19,-9
797,142,45,1006,-12,-3,-4
798,75,54,1006,-12,16,-1
799,-45,45,998,-14,23,2
800,-136,18,987,-15,13,-1
801,-103,6,989,-15,-9,-6
802,-7,12,988,-14,-20,-7
803,121,36,1014,-12,-19,-7
804,149,38,1003,-13,-1,-6
805,54,54,996,-11,20,0
806,-69,38,1000,-14,23,1
807,-139,23,989,-14,9,-2
808,-95,9,979,-14,-11,-5
809,30,26,1007,-13,-23,-7
810,135,33,1008,-13,-15,-7
811,139,46,991,-10,6,-3
812,25,49,1009,-12,21,1
813,-90,40,996,-13,21,0
814,-138,8,986,-17,6,-3
815,-66,13,990,-14,-14,-4
816,65,25,1010,-11,-21,-8
817,135,43,982,-12,-11,-5
818,117,61,1019,-12,8,-2
819,-2,44,995,-16,21,1
820,-121,29,1003,-15,18,1
821,-118,9,984,-18,-2,-6
822,-29,6,994,-16,-15,-6
823,82,24,994,-12,-19,-7
824,142,49,1007,-14,-6,-5
825,90,57,1007,-13,13,-1
826,-43,50,989,-15,24,3
827,-127,19,1000,-20,13,-2
828,-103,14,981,-14,-6,-4
829,-12,2,989,-16,-20,-5
830,112,34,1005,-13,-18,-7
831,140,34,1008,-13,-1,-3
832,62,62,999,-10,18,0
833,-50,42,1005,-17,21,1
834,-136,21,979,-15,12,-2
835,-103,12,991,-17,-10,-5
836,9,11,994,-15,-22,-7
837,121,32,1009,-13,-17,-7
838,156,38,1003,-14,0,-7
839,53,46,999,-13,22,1
840,-77,48,998,-14,24,1
841,-150,21,984,-15,10,-2
842,-98,14,990,-15,-12,-6
843,29,22,1002,-16,-24,-7
844,140,31,996,-17,-15,-8
845,154,44,1008,-13,5,-4
846,28,39,1000,-13,22,2
847,-96,35,995,-12,23,0
848,-147,14,996,-14,8,-4
849,-87,9,981,-14,-12,-6
850,57,22,998,-14,-24,-9
851,157,47,1007,-12,-14,-7
852,132,51,1010,-14,8,0
853,12,50,991,-15,24,0
854,-122,21,1012,-15,23,-1
855,-135,16,975,-16,1,-4
856,-53,-1,985,-15,-18,-6
857,86,32,1005,-12,-23,-6
858,148,45,1006,-15,-8,-5
859,108,63,1007,-13,12,-1
860,-24,49,998,-18,22,3
861,-130,19,992,-19,18,-2
862,-117,-1,982,-18,-3,-5
863,-19,10,985,-13,-20,-7
864,106,37,1015,-10,-20,-5
865,144,45,996,-12,-2,-3
866,64,62,1008,-12,16,2
867,-51,43,997,-17,21,3
868,-137,12,988,-17,12,-1
869,-81,7,983,-16,-9,-6
870,14,6,996,-17,-20,-6
871,130,36,1017,-12,-15,-8
872,132,39,991,-11,5,-2
873,22,64,997,-9,21,3
874,-82,43,1010,-16,19,1
875,-139,21,979,-17,7,-2
876,-62,5,993,-17,-13,-7
877,59,17,1004,-16,-20,-8
878,138,23,995,-15,-11,-5
879,118,52,997,-10,8,-1
880,-3,50,1003,-14,22,1
881,-109,44,1003,-15,18,0
882,-123,15,984,-19,0,-4
883,-51,6,993,-17,-16,-6
884,82,18,998,-16,-21,-8
885,145,26,1005,-13,-8,-7
886,105,55,998,-10,12,-1
887,-16,45,1008,-13,23,2
888,-123,37,998,-13,17,-2
889,-131,11,973,-16,-2,-1
890,-37,20,993,-14,-18,-7
891,97,16,1011,-16,-23,-8
892,159,47,992,-12,-6,-6
893,104,42,1014,-13,16,0
894,-37,53,1001,-12,25,1
895,-139,21,983,-17,16,-2
896,-131,19,981,-15,-6,-4
897,-16,18,995,-17,-23,-7
898,120,31,1006,-15,-21,-7
899,160,38,1003,-13,-4,-3
900,84,52,1007,-13,18,0
901,-61,29,1000,-13,26,2
902,-149,22,982,-14,14,-1
903,-115,5,985,-16,-9,-5
904,12,27,1001,-13,-23,-9
905,127,39,1012,-15,-18,-6
906,165,48,997,-14,0,-4
907,51,45,1003,-14,21,2
908,-79,36,999,-16,24,2
909,-153,16,990,-15,11,-1
910,-96,10,984,-16,-11,-4
911,42,20,1008,-12,-24,-8
912,143,40,991,-14,-14,-5
913,142,48,1012,-12,7,-2
914,24,50,994,-13,22,2
915,-108,34,1008,-16,23,3
916,-139,11,982,-19,4,-4
917,-62,6,988,-15,-16,-7
918,76,25,995,-12,-23,-9
919,143,39,1009,-13,-10,-6
920,105,57,998,-14,11,1
921,-14,48,1006,-16,24,2
922,-118,21,993,-17,16,0
923,-114,4,984,-15,-2,-3
924,-21,11,986,-15,-17,-7
925,97,22,1011,-13,-18,-7
926,142,47,998,-9,-3,-5
927,79,49,1011,-13,16,0
928,-48,48,996,-13,22,1
929,-129,23,986,-17,13,-2
930,-102,8,983,-17,-8,-5
931,-1,15,998,-16,-20,-7
932,122,23,1006,-14,-17,-8
933,145,36,1002,-10,1,-4
934,65,53,1001,-9,20,0
935,-70,45,996,-13,24,1
936,-143,33,990,-15,10,-4
937,-106,14,980,-17,-10,-4
938,27,23,1007,-17,-23,-8
939,134,25,1006,-16,-17,-4
940,153,39,994,-10,3,-3
941,46,43,1009,-12,22,1
942,-94,37,993,-14,26,2
943,-157,31,989,-13,8,-2
944,-90,15,988,-16,-14,-6
945,44,27,998,-16,-25,-7
946,158,35,1004,-16,-16,-6
947,146,45,1003,-15,8,-1
948,9,38,1002,-15,24,3
949,-110,36,1000,-15,22,1
950,-157,7,984,-16,4,-2
951,-64,23,974,-14,-18,-6
952,70,22,1015,-15,-24,-6
953,160,46,1001,-13,-11,-5
954,124,46,1005,-16,12,0
955,-5,45,1007,-15,23,1
956,-131,19,996,-16,19,0
957,-139,16,968,-17,-2,-4
958,-46,9,1001,-14,-20,-5
959,98,33,995,-15,-24,-8
960,162,40,1010,-14,-7,-6
961,105,52,1006,-13,15,1
962,-35,47,1000,-17,26,2
963,-143,11,986,-17,17,0
964,-124,13,981,-15,-5,-3
965,-19,13,996,-18,-23,-7
966,127,39,1011,-14,-21,-7
967,161,37,1003,-16,-2,-4
968,73,49,993,-14,19,1
969,-57,38,1010,-16,25,1
970,-161,23,976,-15,13,1
971,-103,13,995,-14,-10,-5
972,22,13,995,-16,-23,-7
973,133,33,1006,-14,-16,-7
974,163,42,999,-10,3,-5
975,39,50,1003,-12,24,2
976,-92,36,1000,-15,24,1
977,-153,27,990,-15,8,-3
978,-88,4,984,-17,-15,-5
979,58,22,995,-14,-25,-8
980,151,29,1010,-14,-15,-7
981,136,47,1003,-10,9,-2
982,6,52,998,-13,24,2
983,-115,38,1012,-12,22,0
984,-150,13,976,-17,2,-2
985,-61,8,974,-18,-18,-7
986,87,10,1018,-14,-25,-8
987,151,44,996,-11,-9,-4
988,131,49,1002,-11,13,-2
989,-24,51,1008,-14,28,3
990,-134,38,987,-16,19,1
991,-137,11,983,-16,-2,-4
992,-39,6,984,-18,-20,-6
993,106,26,1014,-14,-22,-8
994,167,28,1001,-13,-5,-8
995,94,50,1004,-10,17,2
996,-38,46,1002,-12,26,2
997,-156,36,983,-14,16,0
998,-120,20,983,-17,-8,-5
999,-10,14,1000,-16,-22,-7
1000,126,21,1010,-17,-21,-7
1001,171,32,993,-13,-3,-4
1002,64,48,999,-13,20,2
1003,-69,40,1009,-14,25,1
1004,-157,33,989,-15,12,-1
1005,-104,9,981,-17,-11,-5
1006,32,24,1004,-15,-24,-8
1007,143,28,1000,-15,-16,-7
1008,149,51,999,-12,5,-2
1009,30,51,1007,-14,23,2
1010,-96,40,1000,-15,23,3
1011,-155,10,990,-17,6,-1
1012,-74,4,979,-15,-14,-6
1013,63,13,1008,-14,-23,-8
1014,154,41,989,-12,-13,-6
1015,134,49,1013,-12,9,-1
1016,0,60,999,-11,26,2
1017,-125,31,1005,-11,22,1
1018,-143,14,969,-20,0,-3
1019,-58,8,990,-17,-18,-6
1020,103,16,1006,-14,-26,-10
1021,163,33,1004,-11,-7,-4
1022,113,50,1007,-11,14,1
1023,-26,50,1001,-13,26,4
1024,-148,31,988,-16,19,0
1025,-134,21,979,-18,-5,-4
1026,-25,6,997,-18,-22,-9
1027,124,25,1007,-15,-24,-6
1028,174,28,1001,-13,-4,-5
1029,90,55,1004,-10,19,1
1030,-55,45,1008,-13,26,3
1031,-161,29,975,-15,14,-1
1032,-122,13,981,-15,-9,-5
1033,9,17,1013,-16,-24,-8
1034,138,29,1002,-15,-20,-7
1035,168,41,996,-12,1,-3
1036,60,49,1005,-13,23,2
1037,-86,41,999,-15,26,2
1038,-166,19,988,-16,10,-2
1039,-104,10,986,-15,-13,-5
1040,47,18,1000,-15,-26,-9
1041,158,28,996,-12,-16,-8
1042,151,50,1010,-13,6,-1
1043,24,52,1006,-15,25,3
1044,-111,34,998,-14,25,1
1045,-155,20,978,-16,5,-2
1046,-76,9,985,-17,-16,-6
1047,69,17,1005,-13,-25,-8
1048,163,34,1003,-13,-12,-7
1049,134,45,1004,-10,11,-2
1050,-4,51,1009,-13,25,4
1051,-132,34,999,-14,22,0
1052,-143,18,975,-16,-1,-3
1053,-52,6,983,-16,-19,-6
1054,99,25,1010,-15,-22,-8
1055,168,31,1010,-13,-8,-5
1056,108,51,998,-13,15,-1
1057,-31,43,1005,-14,27,2
1058,-143,30,985,-16,17,0
1059,-137,17,980,-17,-5,-5
1060,-19,15,993,-15,-23,-9
1061,114,31,1015,-15,-20,-7
1062,173,33,993,-14,-3,-6
1063,82,48,999,-13,22,1
1064,-79,45,1011,-14,26,3
1065,-167,15,978,-15,9,1
1066,-111,3,981,-15,-13,-5
1067,37,0,1014,-13,-27,-9
1068,157,2,997,-9,-18,-11
1069,167,21,1001,1,6,-6
1070,40,70,1002,1,26,2
1071,-107,89,1010,-6,26,2
1072,-162,82,983,-15,7,-1
1073,-93,61,992,-28,-17,-5
1074,64,31,999,-31,-27,-7
1075,151,0,1002,-31,-15,-3
1076,147,-11,999,-23,7,-2
1077,2,-13,1000,-13,26,3
1078,-123,2,1005,-4,21,0
1079,-140,23,975,-2,2,-4
1080,-58,36,985,-4,-18,-8
1081,90,68,1011,-6,-23,-11
1082,151,56,1012,-14,-9,-8
1083,112,71,995,-15,13,0
1084,-25,38,1002,-22,25,2
1085,-131,30,997,-20,16,0
1086,-125,8,974,-23,-4,-1
1087,-27,6,983,-19,-21,-6
1088,103,24,1014,-15,-20,-5
1089,153,28,1007,-15,-5,-5
1090,84,48,994,-11,16,0
1091,-47,37,1008,-14,23,1
1092,-141,35,985,-16,14,-1
1093,-108,13,978,-17,-7,-5
1094,4,21,1008,-14,-21,-9
1095,135,24,1010,-14,-18,-6
1096,146,31,996,-12,2,-3
1097,43,52,988,-10,20,3
1098,-74,49,1023,-13,22,1
1099,-150,24,975,-17,9,-3
1100,-86,25,989,-16,-13,-4
1101,34,12,1004,-19,-24,-8
1102,144,24,996,-13,-14,-8
1103,140,22,1000,-10,5,-2
1104,11,33,1000,-8,22,1
1105,-95,16,1003,-8,20,-3
1106,-143,14,990,-6,4,-5
1107,-65,27,983,-4,-15,-9
1108,81,46,1001,-8,-22,-10
1109,145,56,1013,-12,-9,-7
1110,114,63,989,-12,11,-2
1111,-15,49,1010,-16,24,0
1112,-114,32,1009,-18,17,-3
1113,-133,-1,964,-19,0,-2
1114,-35,2,987,-17,-17,-8
1115,101,14,1018,-12,-21,-7
1116,157,49,998,-7,-4,-5
1117,96,69,1000,-12,17,0
1118,-36,66,1010,-15,25,2
1119,-137,34,986,-21,16,-1
1120,-131,10,971,-22,-4,-2
1121,-21,-11,1005,-19,-21,-8
1122,120,23,1000,-16,-22,-6
1123,163,21,1004,-13,-4,-5
1124,81,65,1001,-9,19,1
1125,-52,47,1004,-15,25,2
1126,-162,42,984,-17,15,1
1127,-116,15,978,-22,-10,-5
1128,11,12,1009,-20,-24,-9
1129,146,16,1004,-15,-20,-5
1130,164,34,996,-13,3,-2
1131,57,46,999,-12,23,3
1132,-89,39,1011,-14,25,4
1133,-165,27,976,-14,10,0
1134,-101,6,993,-18,-13,-5
1135,43,20,998,-15,-25,-9
1136,152,29,1000,-12,-16,-5
1137,159,52,1007,-11,7,-3
1138,13,48,1004,-15,26,4
1139,-107,41,1000,-15,22,0
1140,-163,3,980,-20,5,-2
1141,-74,16,976,-15,-18,-7
1142,77,10,1013,-16,-26,-8
1143,159,41,994,-11,-12,-7
1144,141,49,1014,-12,10,-1
1145,-2,54,994,-14,26,2
1146,-139,37,1006,-15,21,1
1147,-140,13,970,-17,0,-4
1148,-62,2,987,-17,-19,-6
1149,102,29,1000,-12,-26,-10
1150,166,36,1018,-12,-8,-6
1151,113,53,1001,-11,16,0
1152,-29,43,1003,-15,26,4
1153,-146,36,991,-15,18,-1
1154,-144,8,977,-17,-5,-2
1155,-15,14,992,-17,-23,-9
1156,117,23,1015,-14,-21,-6
1157,173,39,996,-13,-5,-4
1158,88,47,1002,-13,20,1
1159,-65,48,1005,-13,26,2
1160,-156,29,983,-16,13,-1
1161,-124,16,982,-17,-9,-4
1162,17,13,1001,-17,-25,-9
1163,140,30,1003,-15,-19,-8
1164,163,37,999,-12,2,-4
1165,50,54,998,-13,23,3
1166,-87,34,1011,-14,25,1
1167,-162,24,976,-15,8,-1
1168,-96,6,994,-18,-15,-5
1169,55,20,1001,-14,-26,-9
1170,150,29,994,-14,-15,-7
1171,151,50,1008,-11,7,-4
1172,16,53,1010,-15,25,3
1173,-118,32,997,-15,22,1
1174,-150,19,987,-15,3,-3
1175,-69,0,976,-18,-18,-6
1176,76,30,1009,-11,-25,-8
1177,170,29,1009,-15,-11,-6
1178,118,53,1003,-10,13,1
1179,-6,49,999,-15,25,2
1180,-138,30,1005,-14,20,0
1181,-147,17,967,-17,-3,-3
1182,-41,11,990,-16,-20,-7
1183,107,19,1010,-15,-24,-8
1184,168,39,1003,-12,-6,-5
1185,108,44,1001,-13,17,0
1186,-47,46,1006,-12,28,3
1187,-150,31,980,-16,16,-1
1188,-131,12,980,-15,-5,-5
1189,-13,22,1007,-14,-24,-7
1190,132,35,1003,-16,-22,-6
1191,177,37,1000,-15,-1,-5
1192,63,43,1002,-14,22,4
1193,-66,37,1008,-14,25,1
1194,-161,20,980,-15,13,-1
1195,-114,13,990,-14,-10,-5
1196,29,19,992,-14,-25,-9
1197,146,31,1009,-12,-17,-7
1198,163,54,999,-12,3,-1
1199,35,57,1004,-15,24,2
1200,-96,32,1011,-16,23,1
1201,-170,12,979,-17,7,0
1202,-81,0,979,-13,-15,-8
1203,55,22,1004,-12,-25,-7
1204,160,35,1004,-13,-15,-8
1205,144,51,996,-11,11,-1
1206,7,64,1013,-14,26,3
1207,-123,34,1005,-18,22,1
1208,-149,10,969,-17,2,-4
1209,-61,1,986,-18,-18,-7
1210,89,16,1008,-14,-24,-10
1211,162,34,1004,-11,-10,-6
1212,116,55,1003,-10,15,0
1213,-17,52,1003,-14,26,2
1214,-144,32,986,-18,19,0
1215,-140,12,986,-16,-4,-3
1216,-32,15,990,-18,-21,-9
1217,110,23,1010,-14,-23,-8
1218,175,35,999,-12,-5,-5
1219,89,46,1008,-12,20,2
1220,-53,45,994,-14,26,2
1221,-160,26,995,-15,15,0
1222,-116,12,970,-19,-9,-4
1223,0,23,1013,-15,-23,-9
1224,146,27,997,-17,-21,-9
1225,159,32,1005,-12,2,-2
1226,59,49,985,-12,20,2
1227,-86,29,1017,-15,26,3
1228,-158,29,984,-12,9,-3
1229,-101,17,987,-14,-12,-4
1230,46,24,992,-13,-25,-11
1231,146,31,1016,-16,-15,-5
1232,153,51,989,-15,5,-4
1233,16,41,1012,-14,26,3
1234,-102,35,1009,-14,22,0
1235,-162,7,969,-17,6,-1
1236,-71,13,984,-11,-18,-9
1237,74,22,1011,-17,-26,-6
1238,156,36,997,-13,-12,-6
1239,138,51,1012,-10,11,-2
1240,-7,47,999,-16,25,2
1241,-140,45,998,-14,21,1
1242,-145,-4,974,-18,-3,-6
1243,-52,14,987,-13,-20,-7
1244,107,22,995,-14,-25,-7
1245,163,39,1020,-12,-6,-7
1246,111,54,1001,-13,15,1
1247,-51,47,993,-16,27,7
1248,-142,19,989,-16,15,-3
1249,-122,15,990,-16,-5,-4
1250,-11,13,986,-16,-22,-6
1251,122,26,1012,-16,-19,-6
1252,160,39,1004,-12,-3,-5
1253,70,54,994,-11,18,2
1254,-58,45,1006,-14,24,0
1255,-152,26,998,-16,12,-1
1256,-99,10,972,-17,-10,-6
1257,31,10,1008,-14,-21,-10
1258,144,30,1000,-12,-15,-6
1259,135,47,1003,-12,7,0
1260,34,48,992,-15,22,1
1261,-112,47,1016,-15,23,3
1262,-148,16,978,-19,3,-3
1263,-80,1,984,-17,-14,-7
1264,73,15,1004,-13,-26,-10
1265,161,35,1001,-13,-13,-6
1266,136,56,1002,-12,10,-1
1267,0,44,1003,-15,26,3
1268,-131,38,1006,-16,21,1
1269,-150,8,966,-17,0,-3
1270,-64,15,990,-14,-20,-8
1271,106,18,1008,-13,-27,-9
1272,167,45,1002,-12,-9,-5
1273,124,47,1009,-13,14,0
1274,-30,46,1005,-12,27,4
1275,-146,33,980,-14,18,0
1276,-147,8,986,-16,-4,-3
1277,-36,17,988,-14,-24,-7
1278,123,20,1011,-15,-25,-8
1279,174,43,1001,-15,-5,-6
1280,93,50,1005,-12,18,0
1281,-51,40,1003,-12,27,1
1282,-155,20,977,-14,15,-1
1283,-128,12,983,-14,-8,-5
1284,6,13,1012,-13,-26,-8
1285,142,31,991,-13,-21,-9
1286,163,42,1008,-12,1,-4
1287,63,51,997,-12,20,1
1288,-90,42,1002,-13,26,2
1289,-158,23,990,-14,9,-4
1290,-110,15,989,-16,-13,-5
1291,51,18,993,-15,-27,-9
1292,157,22,998,-12,-16,-6
1293,149,55,1017,-9,6,-3
1294,27,50,993,-14,24,3
1295,-117,40,1004,-14,24,0
1296,-156,17,985,-17,3,-2
1297,-74,0,976,-13,-17,-5
1298,77,22,1009,-12,-25,-8
1299,140,38,1005,-15,-12,-3
1300,133,55,1000,-12,9,-2
1301,-6,49,1010,-16,23,2
1302,-115,45,993,-17,19,1
1303,-125,1,985,-20,0,-3
1304,-51,6,979,-16,-17,-8
1305,96,17,1009,-14,-22,-8
1306,150,37,1010,-12,-6,-5
1307,90,54,998,-9,16,-1
1308,-30,54,1005,-14,23,1
1309,-133,27,983,-18,15,-1
1310,-121,15,984,-17,-4,-4
1311,-7,8,999,-19,-20,-6
1312,116,23,1008,-15,-19,-7
1313,160,34,994,-11,-1,-6
1314,66,47,1002,-11,21,2
1315,-67,47,1002,-12,24,2
1316,-152,26,992,-17,11,-1
1317,-104,20,985,-16,-11,-4
1318,22,23,1001,-18,-24,-6
1319,149,24,1000,-16,-17,-8
1320,150,35,1002,-12,4,-2
1321,24,53,997,-12,22,2
1322,-99,37,1008,-14,23,0
1323,-148,24,989,-15,5,-2
1324,-71,16,978,-15,-15,-6
1325,61,27,1009,-14,-22,-9
1326,146,27,999,-15,-12,-5
1327,124,53,1002,-14,9,0
1328,5,45,1001,-16,23,1
1329,-124,26,1014,-15,20,2
1330,-127,20,967,-17,-1,-3
1331,-53,-4,987,-16,-18,-8
1332,98,38,1013,-11,-24,-9
1333,146,31,1003,-13,-8,-3
1334,102,59,995,-9,14,-1
1335,-27,41,1011,-16,24,4
1336,-137,27,985,-14,16,-1
1337,-116,10,981,-17,-5,-4
1338,-19,9,991,-15,-20,-8
1339,115,28,1012,-12,-19,-7
1340,155,35,996,-11,-2,-6
1341,69,59,1000,-10,18,2
1342,-63,47,1009,-16,22,4
1343,-144,25,984,-17,10,-1
1344,-100,9,980,-15,-10,-4
1345,25,19,1009,-14,-23,-7
1346,140,21,1008,-13,-18,-7
1347,157,42,988,-11,4,-3
1348,35,43,1009,-11,23,2
1349,-95,47,1002,-13,24,2
1350,-160,18,988,-17,8,-1
1351,-83,16,981,-4,-13,-6
1352,51,23,1008,-9,-25,-8
1353,165,35,995,-15,-15,-9
1354,139,32,1006,-14,10,-1
1355,13,59,997,-10,26,1
1356,-126,30,1015,-16,23,1
1357,-155,22,969,-13,3,-4
1358,-71,4,983,-13,-19,-6
1359,90,30,1015,-11,-27,-11
1360,160,30,1001,-15,-11,-5
1361,133,54,1000,-10,13,0
1362,-10,42,1004,-14,27,2
1363,-144,32,996,-15,22,0
1364,-144,11,974,-14,-1,-5
1365,-45,1,982,-16,-21,-8
1366,108,40,1012,-13,-25,-9
1367,175,32,1007,-14,-7,-5
1368,105,59,999,-13,17,1
1369,-45,40,1004,-16,28,3
1370,-149,30,985,-15,17,-1
1371,-138,4,978,-17,-5,-4
1372,-7,18,1001,-14,-23,-7
1373,134,19,1007,-16,-21,-8
1374,174,42,996,-13,-1,-6
1375,61,49,1005,-11,20,4
1376,-63,54,1000,-14,25,-1
1377,-171,18,993,-17,14,0
1378,-104,21,979,-15,-13,-6
1379,29,5,1004,-18,-25,-10
1380,153,24,997,-13,-17,-7
1381,157,41,1006,-14,6,-1
1382,42,52,994,-11,24,0
1383,-110,35,1019,-14,25,4
1384,-157,36,971,-15,6,-3
1385,-89,1,991,-18,-13,-6
1386,65,32,999,-14,-27,-9
1387,158,25,1008,-18,-14,-6
1388,142,50,998,-10,9,-2
1389,0,50,1010,-14,26,5
1390,-126,23,999,-17,22,-1
1391,-151,16,976,-14,2,-2
1392,-56,12,982,-14,-19,-7
1393,95,30,1010,-12,-24,-9
1394,167,44,1008,-14,-8,-5
1395,118,48,997,-15,15,0
1396,-34,43,1007,-14,26,3
1397,-144,24,983,-14,17,0
1398,-139,10,984,-17,-6,-4
1399,-25,23,991,-15,-24,-7
1400,123,20,1015,-15,-22,-9
1401,181,44,998,-11,-5,-6
1402,78,50,999,-13,20,3
1403,-57,53,1009,-16,26,1
1404,-161,11,984,-19,14,-1
1405,-119,14,976,-15,-10,-6
1406,17,11,1009,-17,-25,-9
1407,140,28,1002,-11,-19,-8
1408,163,47,996,-12,2,-4
1409,42,48,1008,-13,23,2
1410,-96,52,1000,-14,23,2
1411,-145,19,988,-17,7,-3
1412,-84,4,990,-16,-12,-6
1413,50,13,990,-16,-23,-8
1414,146,26,1008,-14,-13,-7
1415,126,47,1003,-9,6,0
1416,4,57,1002,-10,22,1
1417,-109,43,1006,-15,19,0
1418,-138,21,980,-18,-1,-1
1419,-51,6,984,-18,-17,-7
1420,85,15,1005,-14,-22,-8
1421,139,35,1006,-15,-7,-5
1422,115,45,997,-11,14,-2
1423,-29,46,1009,-12,25,3
1424,-124,38,987,-15,16,1
1425,-124,16,989,-16,-3,-3
1426,-31,12,980,-16,-19,-6
1427,114,22,1017,-14,-21,-8
1428,158,37,997,-15,-3,-5
1429,75,54,1005,-13,19,2
1430,-45,56,1004,-15,23,1
1431,-150,10,984,-19,15,-1
1432,-119,15,980,-14,-8,-5
1433,12,9,1010,-16,-23,-10
1434,135,25,1002,-12,-18,-7
1435,156,40,998,-10,2,-1
1436,51,59,1000,-12,21,-1
1437,-85,40,1007,-14,24,3
1438,-160,33,984,-15,9,0
1439,-100,6,993,-17,-12,-7
1440,42,15,993,-15,-26,-8
1441,153,28,1004,-14,-15,-6
1442,158,46,1001,-11,6,-5
1443,18,43,1006,-13,26,3
1444,-109,42,1004,-12,23,1
1445,-163,16,976,-17,6,-2
1446,-70,6,988,-14,-17,-8
1447,70,22,1006,-15,-26,-8
1448,169,41,1002,-14,-13,-8
1449,130,47,1004,-14,11,-1
1450,-8,53,1002,-15,25,1
1451,-134,24,1004,-16,20,1
1452,-153,11,971,-14,0,-3
1453,-43,9,983,-15,-21,-9
1454,106,26,1012,-13,-24,-9
1455,164,44,1005,-13,-8,-4
1456,110,53,999,-12,15,0
1457,-36,50,1009,-14,26,3
1458,-157,22,982,-17,16,1
1459,-129,7,982,-17,-6,-6
1460,-16,3,999,-17,-24,-7
1461,127,29,1013,-12,-22,-8
1462,177,41,989,-12,-2,-5
1463,72,56,1009,-10,21,3
1464,-59,47,1000,-14,25,2
1465,-172,25,991,-14,13,0
1466,-109,10,976,-17,-11,-5
1467,24,11,1008,-16,-24,-8
1468,143,27,995,-13,-18,-7
1469,162,41,1005,-10,3,-2
1470,45,51,1000,-11,23,0
1471,-107,35,1005,-12,25,3
1472,-151,32,992,-15,6,-3
1473,-93,7,979,-18,-13,-5
1474,64,22,999,-15,-26,-10
1475,153,28,1010,-16,-14,-6
1476,139,50,995,-12,8,-2
1477,8,42,1013,-13,25,3
1478,-116,33,996,-15,21,1
1479,-150,14,977,-15,2,-2
1480,-62,11,985,-15,-18,-7
1481,87,22,1009,-12,-25,-9
1482,159,42,1003,-13,-9,-6
1483,118,47,1007,-12,15,0
1484,-23,49,997,-12,26,1
1485,-141,29,999,-16,18,1
1486,-135,10,981,-17,-4,-4
1487,-33,11,983,-15,-20,-8
1488,120,27,1018,-13,-23,-9
1489,172,39,999,-13,-4,-5
1490,85,50,998,-12,19,2
1491,-54,48,1007,-12,27,1
1492,-158,21,988,-15,13,-2
1493,-120,13,976,-15,-9,-4
1494,11,16,1005,-15,-24,-9
1495,143,30,1008,-16,-19,-9
1496,161,41,995,-10,2,-3
1497,54,52,1000,-13,22,2
1498,-86,41,1010,-15,25,1
1499,-164,22,983,-15,10,-1
1500,-99,6,987,-18,-14,-6
1501,47,16,992,-14,-25,-10
1502,157,27,1010,-14,-16,-7
1503,150,51,999,-12,7,-2
1504,24,55,1001,-13,24,3
1505,-119,35,1011,-14,24,0
1506,-157,20,983,-13,2,-3
1507,-68,2,970,-16,-18,-6
1508,74,24,1017,-13,-26,-9
1509,170,34,998,-15,-13,-6
1510,127,43,1000,-11,13,-1
1511,-13,53,1008,-12,26,3
1512,-133,30,997,-15,20,2
1513,-145,19,968,-16,-3,-4
1514,-44,8,992,-17,-21,-6
1515,110,26,1012,-14,-25,-9
1516,172,36,1004,-12,-6,-5
1517,97,45,1000,-12,18,3
1518,-39,47,1005,-14,26,1
1519,-155,18,986,-17,16,0
1520,-127,23,975,-16,-7,-3
1521,-11,12,1003,-15,-24,-9
1522,139,33,1010,-14,-22,-9
1523,162,34,1000,-14,-1,-3
1524,71,57,991,-11,21,2
1525,-68,29,1017,-15,25,1
1526,-170,27,981,-13,13,0
1527,-105,10,986,-16,-12,-6
1528,33,22,1005,-14,-25,-9
1529,142,30,996,-15,-17,-7
1530,162,48,1003,-11,3,-4
1531,29,47,1008,-14,24,2
1532,-109,34,996,-13,24,1
1533,-155,17,989,-15,6,-3
1534,-83,7,978,-16,-15,-5
1535,64,24,999,-13,-24,-9
1536,164,34,1012,-12,-14,-7
1537,126,60,996,-12,10,-1
1538,3,55,1005,-13,25,3
1539,-125,28,1008,-19,22,-1
1540,-151,11,964,-17,0,-3
1541,-46,0,995,-16,-19,-9
1542,94,22,1005,-14,-23,-8
1543,159,42,1006,-10,-9,-6
1544,112,55,1001,-11,14,-1
1545,-31,49,1011,-12,25,2
1546,-143,34,976,-15,17,0
1547,-135,8,989,-16,-4,-4
1548,-19,8,992,-15,-23,-9
1549,116,18,1007,-13,-20,-7
1550,173,40,997,-11,-3,-6
1551,73,53,1006,-8,21,2
1552,-55,52,997,-14,26,2
1553,-169,25,991,-16,15,0
1554,-109,22,981,-16,-10,-5
1555,14,5,1006,-19,-24,-8
1556,141,30,998,-13,-19,-7
1557,160,32,1000,-12,3,-3
1558,44,52,997,-11,22,-2
1559,-89,40,1008,-14,24,2
1560,-158,25,988,-16,8,-3
1561,-88,16,983,-15,-14,-6
1562,53,18,998,-15,-25,-8
1563,150,34,1006,-15,-14,-5
1564,140,47,995,-11,8,-1
1565,12,47,1008,-14,25,3
1566,-116,35,1008,-12,21,0
1567,-150,16,972,-15,3,-2
1568,-57,7,986,-15,-18,-8
1569,77,20,1011,-12,-24,-8
1570,160,43,1005,-13,-11,-7
1571,118,47,1000,-12,13,-1
1572,-20,53,1006,-13,26,2
1573,-129,24,991,-17,18,1
1574,-134,14,979,-15,-1,-4
1575,-36,9,987,-16,-19,-6
1576,114,22,1011,-13,-23,-10
1577,163,39,1005,-10,-5,-6
1578,94,51,995,-13,16,1
1579,-51,42,1010,-14,25,0
1580,-151,23,985,-13,14,-1
1581,-119,12,976,-15,-7,-3
1582,4,21,1006,-13,-22,-10
1583,133,29,1006,-14,-19,-6
1584,160,43,995,-12,1,-3
1585,61,52,1006,-10,20,1
1586,-76,43,1000,-15,26,1
1587,-167,28,992,-15,12,0
1588,-95,8,982,-16,-13,-7
1589,39,17,1001,-16,-25,-8
1590,150,30,1000,-13,-17,-5
1591,150,45,1002,-12,6,-4
1592,28,55,1005,-13,24,2
1593,-113,40,1006,-15,24,4
1594,-153,21,982,-18,5,-4
1595,-76,4,978,-16,-17,-6
1596,68,22,1011,-14,-25,-8
1597,159,33,999,-15,-12,-8
1598,131,48,1007,-11,12,-1
1599,-5,54,1001,-13,26,4
1600,-130,31,999,-15,21,1
1601,-141,16,977,-16,0,-3
1602,-50,9,987,-19,-19,-7
1603,104,24,1005,-15,-24,-9
1604,166,34,1009,-12,-7,-5
1605,106,51,1003,-15,15,-1
1606,-36,43,998,-13,25,2
1607,-145,27,992,-14,16,-1
1608,-132,8,977,-17,-5,-4
1609,-21,22,996,-13,-22,-5
1610,132,24,1014,-16,-22,-8
1611,162,42,997,-12,-3,-4
1612,81,49,996,-12,18,1
1613,-64,39,1011,-15,25,1
1614,-161,20,983,-15,12,-1
1615,-109,12,984,-16,-11,-5
1616,29,16,1000,-15,-24,-10
1617,135,27,1003,-13,-18,-7
1618,151,51,999,-9,2,-4
1619,25,54,1005,-14,22,1
1620,-85,45,1000,-15,21,0
1621,-141,21,996,-16,7,-1
1622,-67,8,974,-19,-12,-6
1623,57,15,1006,-14,-22,-8
1624,136,25,996,-14,-12,-6
1625,102,47,1008,-11,9,0
1626,1,53,996,-14,19,2
1627,-108,35,1015,-15,17,2
1628,-114,31,972,-18,0,-4
1629,-29,4,991,-18,-15,-7
1630,84,27,1004,-15,-18,-8
1631,128,27,1005,-14,-5,-4
1632,78,47,995,-12,13,-1
1633,-39,45,1008,-14,20,1
1634,-115,30,987,-15,12,-1
1635,-99,21,992,-16,-5,-4
1636,1,10,983,-16,-19,-7
1637,108,36,1016,-14,-14,-6
1638,134,28,996,-15,1,-3
1639,53,53,995,-12,20,1
1640,-64,38,1003,-16,21,1
1641,-143,26,986,-15,9,-2
1642,-83,1,982,-17,-11,-6
1643,26,19,1006,-13,-20,-7
1644,137,38,1004,-14,-15,-6
1645,139,42,995,-9,5,-3
1646,19,54,1002,-12,22,1
1647,-94,40,1005,-17,21,2
1648,-148,8,982,-15,6,-4
1649,-67,13,996,-13,-14,-6
1650,65,12,1001,-16,-24,-8
1651,140,33,997,-10,-11,-5
1652,131,62,1002,-12,8,-1
1653,-5,49,1009,-13,24,2
1654,-117,36,998,-16,19,0
1655,-145,11,988,-18,1,-2
1656,-35,1,970,-16,-19,-9
1657,80,15,1020,-14,-22,-7
1658,154,42,997,-11,-9,-6
1659,103,45,1003,-11,15,0
1660,-23,62,1003,-13,24,0
1661,-130,17,1000,-16,18,1
1662,-122,25,970,-11,-2,-7
1663,-24,1,994,-17,-19,-6
1664,104,29,1006,-11,-20,-10
1665,148,32,1011,-13,-2,-5
1666,73,61,993,-9,17,0
1667,-40,46,1005,-13,23,0
1668,-138,23,992,-15,13,-1
1669,-102,19,976,-15,-7,-5
1670,10,-1,998,-18,-19,-9
1671,113,31,1019,-10,-16,-8
1672,138,40,987,-10,0,-3
1673,41,55,1000,-11,20,2
1674,-68,47,1008,-15,19,0
1675,-130,28,983,-15,8,-2
1676,-70,8,994,-18,-11,-6
1677,38,6,994,-14,-19,-7
1678,124,32,1006,-10,-12,-7
1679,115,47,993,-11,5,-3
1680,6,58,1003,-12,20,0
1681,-87,47,1009,-16,17,-1
1682,-126,22,985,-17,3,-2
1683,-48,10,994,-18,-14,-7
1684,70,6,995,-14,-20,-8
1685,130,29,1000,-11,-8,-5
1686,99,55,997,-11,10,-1
1687,-10,57,1005,-11,22,-2
1688,-112,35,1002,-16,16,-2
1689,-118,26,979,-23,-2,-3
1690,-25,3,983,-4,-19,-9
1691,94,21,1007,-5,-21,-8
1692,146,31,1007,-12,-6,-5
1693,87,45,1000,-9,15,-1
1694,-33,54,1009,-11,23,1
1695,-133,32,981,-15,15,-1
1696,-123,20,985,-17,-5,-4
1697,-8,10,995,-19,-22,-7
1698,111,24,1006,-14,-19,-7
1699,160,31,1001,-14,-3,-5
1700,78,53,1006,-8,20,-1
1701,-62,43,994,-12,26,1
1702,-151,25,987,-14,13,0
1703,-110,18,988,-16,-9,-5
1704,14,19,995,-16,-23,-8
1705,131,33,1009,-15,-18,-6
1706,157,35,1000,-13,1,-4
1707,40,45,992,-13,21,1
1708,-76,36,1013,-13,22,1
1709,-157,26,983,-15,9,-2
1710,-91,12,987,-16,-13,-5
1711,45,17,998,-13,-22,-8
1712,141,39,1007,-13,-15,-6
1713,140,45,996,-14,4,-3
1714,19,50,1003,-14,23,2
1715,-107,27,1009,-14,20,1
1716,-144,25,977,-14,4,-3
1717,-60,0,982,-16,-15,-7
1718,71,28,1001,-13,-21,-8
1719,141,32,1013,-13,-10,-6
1720,111,56,996,-10,11,-1
1721,-8,45,1003,-15,22,2
1722,-117,37,1002,-15,17,-1
1723,-122,9,976,-18,-1,-2
1724,-36,19,985,-16,-17,-6
1725,100,20,1007,-15,-20,-7
1726,135,28,1006,-12,-4,-4
1727,82,47,997,-12,13,0
1728,-34,40,998,-14,21,1
1729,-123,38,992,-13,13,-1
1730,-90,20,984,-16,-6,-4
1731,2,17,996,-16,-18,-8
1732,111,39,1014,-14,-15,-5
1733,120,31,996,-15,1,-4
1734,37,39,992,-12,17,-1
1735,-70,31,1007,-14,17,1
1736,-113,24,993,-13,7,-3
1737,-62,14,983,-11,-10,-7
1738,47,33,1009,-13,-19,-9
1739,118,28,994,-14,-9,-5
1740,93,52,996,-11,8,-1
1741,-2,32,1005,-15,18,0
1742,-92,32,997,-12,15,1
1743,-101,12,992,-16,0,-3
1744,-23,21,995,-11,-13,-6
1745,77,22,995,-11,-16,-7
1746,120,35,1003,-12,-4,-5
1747,72,54,1002,-11,13,-2
1748,-40,49,996,-11,20,1
1749,-110,24,1002,-15,12,-2
1750,-92,14,983,-15,-4,-4
1751,-3,10,992,-16,-16,-8
1752,101,29,1009,-12,-17,-8
1753,122,35,998,-10,-1,-4
1754,53,50,999,-11,16,-1
1755,-42,43,1005,-12,18,-2
1756,-123,28,982,-14,10,0
1757,-85,15,987,-16,-9,-5
1758,11,17,996,-15,-19,-7
1759,111,37,1011,-12,-15,-5
1760,132,44,996,-13,2,-4
1761,49,49,1007,-14,18,0
1762,-58,44,995,-14,20,1
1763,-140,26,984,-16,8,-1
1764,-87,7,985,-17,-11,-5
1765,21,12,1006,-14,-20,-7
1766,136,29,999,-13,-16,-7
1767,137,37,1004,-11,5,-3
1768,38,57,991,-11,21,1
1769,-83,41,1012,-15,23,2
1770,-153,29,974,-15,7,-1
1771,-81,6,1000,-17,-15,-6
1772,57,16,993,-16,-25,-8
1773,139,27,1004,-14,-13,-4
1774,141,49,997,-11,6,-3
1775,5,50,1006,-14,23,2
1776,-104,44,1003,-12,21,-1
1777,-137,15,988,-17,3,-2
1778,-60,14,974,-16,-16,-7
1779,77,9,1012,-16,-21,-6
1780,136,36,1000,-14,-9,-5
1781,105,49,999,-11,9,0
1782,-5,55,1004,-11,23,-2
1783,-112,25,1003,-16,17,1
1784,-122,23,976,-14,0,-3
1785,-27,12,985,-19,-17,-8
1786,94,26,1012,-15,-20,-5
1787,124,43,1000,-14,-5,-4
1788,78,46,1003,-14,14,-1
1789,-40,42,1001,-14,20,2
1790,-116,30,986,-17,12,-2
1791,-91,9,988,-18,-6,-4
1792,2,24,998,-15,-18,-6
1793,108,25,1005,-16,-15,-6
1794,111,40,996,-14,2,-3
1795,43,41,998,-14,15,1
1796,-61,39,1004,-14,18,0
1797,-121,25,981,-17,8,-2
1798,-61,18,1001,-16,-11,-5
1799,42,23,999,-16,-18,-8
1800,112,23,996,-16,-10,-5
1801,107,49,997,-11,6,-2
1802,7,35,1005,-15,18,1
1803,-94,38,989,-12,16,-2
1804,-108,27,998,-18,0,-4
1805,-36,13,996,-17,-13,-6
1806,70,26,994,-14,-17,-6
1807,122,25,1001,-14,-6,-5
1808,79,49,1004,-11,11,-1
1809,-23,39,997,-13,20,1
1810,-104,34,1002,-14,14,-1
1811,-93,21,987,-15,-3,-4
1812,-4,18,987,-13,-15,-7
1813,90,33,1004,-15,-15,-7
1814,110,36,1005,-13,-2,-4
1815,55,42,999,-14,14,0
1816,-46,35,1000,-13,18,1
1817,-107,24,993,-14,10,-2
1818,-80,18,981,-16,-7,-3
1819,12,21,1000,-14,-18,-6
1820,104,40,1001,-13,-13,-5
1821,109,38,998,-11,2,-3
1822,44,49,1010,-14,17,0
1823,-63,38,990,-16,19,0
1824,-119,22,990,-15,6,-2
1825,-68,13,991,-16,-11,-4
1826,26,15,1001,-16,-18,-6
1827,122,39,1005,-14,-13,-5
1828,125,46,998,-14,5,-2
1829,23,48,997,-14,21,1
1830,-83,42,1000,-17,19,2
1831,-133,23,988,-17,5,-3
1832,-63,5,998,-17,-13,-6
1833,63,14,994,-16,-22,-7
1834,132,25,1004,-14,-10,-4
1835,116,51,1000,-11,8,-3
1836,-6,43,1001,-15,21,2
1837,-102,40,1001,-15,18,-1
1838,-122,23,992,-17,0,-2
1839,-36,19,987,-17,-15,-7
1840,83,13,994,-15,-20,-7
1841,127,38,1008,-14,-8,-5
1842,91,45,994,-13,11,-1
1843,-28,49,1004,-14,22,0
1844,-111,32,1003,-15,13,0
1845,-103,19,976,-15,-2,-4
1846,-8,11,993,-18,-17,-8
1847,94,25,1004,-14,-17,-7
1848,130,35,1003,-13,-3,-5
1849,63,44,1003,-12,16,0
1850,-47,44,995,-14,20,1
1851,-113,24,995,-13,11,-2
1852,-97,17,983,-15,-6,-4
1853,12,18,992,-16,-19,-8
1854,115,33,1012,-13,-14,-6
1855,123,35,999,-12,2,-2
1856,47,44,995,-14,17,0
1857,-68,30,1002,-14,20,2
1858,-134,27,984,-15,8,-2
1859,-72,9,994,-13,-9,-5
1860,32,27,999,-13,-18,-8
1861,129,33,1006,-15,-12,-5
1862,122,42,997,-11,6,-2
1863,21,48,994,-12,21,0
1864,-89,35,1009,-16,20,0
1865,-133,23,985,-16,4,-2
1866,-54,4,994,-14,-14,-7
1867,65,24,1003,-13,-19,-6
1868,129,26,995,-12,-9,-5
1869,108,56,1002,-8,10,-2
1870,-19,43,1004,-13,22,1
1871,-103,37,995,-10,17,-2
1872,-110,13,993,-14,-2,-3
1873,-24,17,977,-15,-16,-6
1874,77,20,1008,-11,-18,-6
1875,129,45,1003,-10,-5,-5
1876,68,41,1000,-12,13,0
1877,-35,61,998,-11,19,-1
1878,-104,20,1009,-16,12,-2
1879,-103,22,970,-14,-4,-3
1880,-6,11,993,-17,-18,-7
1881,101,32,1010,-14,-17,-7
1882,130,47,1000,-13,0,-4
1883,64,51,999,-13,16,0
1884,-53,51,1007,-14,22,2
1885,-130,26,981,-18,10,-1
1886,-95,10,984,-17,-8,-4
1887,6,7,1002,-17,-21,-6
1888,125,31,1006,-13,-16,-8
1889,146,37,1001,-12,2,-3
1890,46,59,994,-11,19,2
1891,-69,47,1010,-15,22,1
1892,-149,26,984,-17,9,-1
1893,-94,12,987,-18,-12,-4
1894,37,0,999,-17,-23,-8
1895,136,27,1006,-16,-15,-5
1896,143,40,993,-11,5,-2
1897,25,50,998,-12,22,1
1898,-93,39,1011,-15,22,3
1899,-148,29,983,-15,6,-3
1900,-60,17,984,-18,-14,-8
1901,62,14,1008,-15,-23,-7
1902,141,31,999,-13,-11,-6
1903,113,38,1001,-11,9,-2
1904,-7,47,998,-9,22,2
1905,-109,32,1010,-13,17,0
1906,-115,19,977,-13,0,-4
1907,-29,17,984,-15,-15,-7
1908,90,26,1006,-15,-20,-8
1909,128,37,1003,-12,-4,-4
1910,73,48,999,-12,14,1
1911,-37,40,998,-14,20,1
1912,-105,25,999,-14,13,-2
1913,-92,15,977,-16,-5,-4
1914,4,21,995,-14,-17,-7
1915,100,36,1012,-13,-15,-6
1916,114,49,997,-11,1,-3
1917,43,40,1002,-15,16,-1
1918,-63,35,995,-13,19,1
1919,-112,18,989,-16,6,-3
1920,-63,11,990,-13,-9,-6
1921,32,17,1003,-12,-17,-6
1922,113,39,1002,-12,-11,-6
1923,112,43,998,-12,3,-3
1924,6,55,991,-11,18,1
1925,-76,36,1003,-17,15,-2
1926,-114,21,993,-17,2,-3
1927,-49,14,997,-17,-13,-4
1928,66,7,997,-14,-19,-7
1929,123,29,1002,-11,-8,-3
1930,100,54,996,-10,8,-2
1931,-5,54,1002,-14,21,0
1932,-103,47,1005,-14,17,1
1933,-125,20,985,-19,1,-2
1934,-40,7,986,-18,-16,-7
1935,83,14,1002,-16,-20,-5
1936,141,29,999,-12,-8,-6
1937,101,47,1002,-10,13,0
1938,-20,56,1001,-13,23,2
1939,-130,35,998,-15,17,-1
1940,-119,26,982,-15,-4,-4
1941,-28,9,987,-20,-20,-7
1942,102,24,1007,-15,-22,-7
1943,156,28,1008,-15,-5,-5
1944,89,44,1002,-14,15,1
1945,-42,48,994,-10,25,2
1946,-142,25,996,-16,14,0
1947,-117,17,976,-16,-6,-4
1948,-8,15,992,-19,-21,-8
1949,124,37,1014,-15,-21,-8
1950,149,36,1002,-13,-2,-3
1951,65,49,989,-13,18,0
1952,-61,38,1013,-15,23,1
1953,-143,25,981,-17,10,0
1954,-98,16,986,-15,-9,-3
1955,29,13,1007,-16,-21,-8
1956,129,37,1005,-13,-15,-4
1957,132,46,987,-11,4,-2
1958,29,42,1004,-14,20,0
1959,-82,37,1001,-15,19,1
1960,-133,21,989,-15,5,-2
1961,-64,13,991,-14,-15,-7
1962,61,20,1000,-14,-19,-7
1963,127,31,998,-14,-10,-4
1964,113,46,1001,-14,8,-2
1965,-11,44,1005,-14,20,1
1966,-96,39,1007,-15,17,-1
1967,-117,8,977,-18,1,-3
1968,-25,20,988,-14,-15,-7
1969,83,20,1006,-16,-18,-7
1970,124,51,998,-12,-5,-6
1971,73,36,1001,-15,11,0
1972,-40,49,1001,-15,19,1
1973,-106,17,995,-16,11,-2
1974,-81,21,983,-12,-6,-5
1975,2,12,997,-16,-17,-6
1976,100,40,1002,-12,-13,-7
1977,111,34,1005,-13,2,-4
1978,35,52,993,-11,14,-1
1979,-59,36,1002,-14,17,-1
1980,-111,27,985,-17,6,-4
1981,-68,15,994,-16,-10,-5
1982,44,19,998,-15,-19,-7
1983,110,29,1007,-13,-11,-5
1984,111,46,992,-11,6,-3
1985,11,42,1000,-12,19,1
1986,-80,44,1003,-12,16,-1
1987,-125,28,988,-18,3,-3
1988,-43,17,988,-16,-13,-6
1989,54,13,1013,-18,-19,-6
1990,128,37,984,-12,-9,-4
1991,99,31,1006,-12,8,-1
1992,-10,44,988,-12,18,0
1993,-104,34,1014,-12,15,-1
1994,-109,26,981,-15,0,-5
1995,-31,20,993,-17,-14,-5
1996,84,20,998,-13,-18,-8
1997,115,28,1006,-12,-5,-3
1998,80,45,986,-12,11,-2
1999,-31,45,1012,-11,20,0
2000,-110,30,994,-13,12,-1
2001,-95,16,985,-16,-4,-4
2002,-11,15,988,-14,-17,-6
2003,98,27,1009,-13,-17,-7
2004,130,42,1005,-12,-3,-4
2005,63,48,995,-14,15,0
2006,-43,43,1004,-15,20,0
2007,-127,25,990,-17,12,0
2008,-94,5,982,-17,-8,-5
2009,6,8,998,-15,-19,-7
2010,115,32,1007,-12,-16,-6
2011,132,37,1001,-11,1,-4
2012,52,61,996,-11,18,-1
2013,-66,42,1001,-17,21,1
2014,-133,35,982,-15,7,-4
2015,-85,9,991,-18,-10,-6
2016,30,14,1002,-16,-21,-7
2017,126,21,1007,-13,-14,-5
2018,128,41,998,-8,5,-4
2019,23,50,996,-11,20,1
2020,-81,40,1001,-13,20,-1
2021,-137,28,993,-16,6,-1
2022,-70,18,987,-16,-13,-5
2023,55,16,1001,-15,-21,-7
2024,136,32,1001,-13,-12,-6
2025,128,46,999,-12,8,-4
2026,9,48,1004,-14,23,1
2027,-105,47,1004,-16,21,1
2028,-138,14,983,-18,4,-3
2029,-61,6,981,-14,-16,-6
2030,73,16,1007,-14,-22,-8
2031,143,39,997,-13,-9,-5
2032,121,53,1008,-10,11,-1
2033,-4,57,999,-12,24,2
2034,-123,30,1000,-18,20,1
2035,-128,16,979,-17,-1,-4
2036,-47,13,986,-17,-17,-6
2037,96,25,1006,-14,-21,-8
2038,140,28,1006,-11,-6,-3
2039,92,49,1000,-12,12,0
2040,-25,43,1007,-14,22,1
2041,-130,32,980,-15,14,-1
2042,-104,15,998,-14,-4,-5
2043,-4,17,983,-16,-19,-8
2044,99,32,1015,-13,-17,-6
2045,141,35,1000,-12,-1,-4
2046,47,47,992,-12,17,3
2047,-52,43,1005,-13,19,0
2048,-117,19,991,-16,9,-3
2049,-79,16,983,-13,-7,-4
2050,33,14,1001,-12,-18,-7
2051,113,34,1006,-12,-12,-6
2052,107,43,993,-11,5,-1
2053,18,49,1001,-13,17,0
2054,-80,38,1003,-15,17,1
2055,-120,26,990,-15,3,-2
2056,-40,11,991,-15,-13,-7
2057,61,20,1000,-11,-17,-6
2058,124,34,995,-12,-9,-3
2059,92,48,1007,-11,10,-1
2060,-8,49,993,-13,20,-1
2061,-106,37,1015,-14,16,2
2062,-108,18,972,-17,-2,-4
2063,-21,11,997,-15,-16,-6
2064,86,19,994,-13,-18,-7
2065,122,36,1011,-12,-4,-5
2066,80,42,995,-12,12,-2
2067,-39,43,1002,-14,21,1
2068,-114,30,987,-15,12,-2
2069,-95,22,992,-14,-5,-6
2070,-4,18,984,-17,-19,-7
2071,97,42,1012,-15,-14,-5
2072,135,28,1007,-15,-2,-6
2073,46,41,998,-13,17,1
2074,-48,43,993,-14,18,0
2075,-119,18,998,-15,10,-3
2076,-83,16,979,-15,-8,-4
2077,20,14,1002,-13,-18,-7
2078,117,46,1016,-12,-15,-6
2079,120,39,993,-15,3,-2
2080,29,50,991,-13,19,-1
2081,-71,36,1008,-17,19,-1
2082,-126,26,991,-18,6,-3
2083,-62,11,987,-18,-11,-5
2084,44,16,1003,-16,-18,-7
2085,127,32,1002,-14,-11,-4
2086,105,49,997,-14,8,0
2087,0,43,996,-14,20,1
2088,-87,38,1015,-15,16,0
2089,-113,20,982,-19,1,-3
2090,-30,17,989,-15,-13,-7
2091,72,20,998,-16,-17,-4
2092,120,37,1000,-12,-5,-4
2093,79,45,998,-14,11,0
2094,-27,48,1004,-15,19,0
2095,-97,21,999,-16,11,-2
2096,-92,18,984,-14,-1,-3
2097,-6,15,989,-15,-16,-6
2098,96,32,1008,-14,-15,-5
2099,107,33,998,-13,0,-3
2100,59,53,1007,-13,13,0
2101,-50,33,994,-17,17,0
2102,-113,27,991,-15,8,-2
2103,-70,11,989,-17,-9,-5
2104,10,21,992,-15,-17,-7
2105,110,31,1005,-14,-12,-6
2106,105,39,1003,-12,4,-2
2107,30,45,1000,-12,17,0
2108,-62,44,992,-17,16,1
2109,-115,24,992,-16,5,-2
2110,-56,17,991,-18,-11,-6
2111,42,19,1005,-16,-16,-6
2112,115,36,1002,-13,-9,-4
2113,101,38,999,-14,6,-3
2114,6,46,1001,-13,18,1
2115,-85,33,996,-17,16,0
2116,-110,29,991,-16,2,-4
2117,-34,17,1002,-17,-13,-6
2118,64,18,990,-13,-17,-5
2119,116,33,999,-12,-6,-4
2120,88,46,1005,-10,8,-1
2121,-18,43,996,-13,19,2
2122,-103,35,1002,-14,15,-1
2123,-89,14,993,-18,-3,-4
2124,-20,19,988,-16,-14,-5
2125,85,25,998,-14,-16,-6
2126,111,35,1007,-12,-3,-4
2127,64,49,1001,-12,10,0
2128,-37,40,996,-14,18,1
2129,-108,30,1001,-14,12,-3
2130,-76,12,986,-16,-7,-5
2131,2,14,992,-16,-16,-7
2132,99,29,997,-16,-14,-6
2133,110,38,1007,-13,1,-4
2134,49,47,1002,-11,14,0
2135,-59,38,995,-15,18,0
2136,-106,28,990,-13,7,-3
2137,-68,19,994,-15,-9,-4
2138,22,23,990,-16,-16,-6
2139,104,37,1013,-12,-11,-6
2140,113,38,993,-14,3,-3
2141,22,36,1001,-12,15,1
2142,-71,40,994,-13,15,0
2143,-111,19,998,-16,4,-4
2144,-50,15,990,-14,-12,-4
2145,40,26,999,-14,-18,-5
2146,123,33,1004,-16,-10,-6
2147,98,44,1000,-12,7,-1
2148,3,47,989,-15,18,0
2149,-84,27,1004,-15,16,-1
2150,-122,24,991,-17,1,-2
2151,-38,17,991,-15,-15,-7
2152,68,18,1003,-14,-18,-7
2153,123,38,997,-12,-7,-3
2154,94,50,1003,-12,11,-1
2155,-15,44,998,-15,20,1
2156,-105,41,1004,-17,16,0
2157,-109,12,985,-18,-2,-4
2158,-20,12,984,-17,-16,-7
2159,93,16,1008,-14,-18,-6
2160,123,41,997,-13,-4,-3
2161,75,41,1003,-12,14,1
2162,-34,49,998,-13,20,0
2163,-114,34,997,-15,13,-1
2164,-99,21,975,-17,-6,-5
2165,1,8,998,-18,-17,-7
2166,100,25,1007,-14,-16,-5
2167,123,36,993,-11,0,-4
2168,59,40,1012,-13,16,-1
2169,-57,54,993,-12,21,2
2170,-116,28,986,-16,8,-3
2171,-89,13,992,-17,-7,-5
2172,18,17,997,-14,-20,-6
2173,118,31,1003,-13,-14,-5
2174,116,38,1001,-12,3,-2
2175,39,43,994,-11,17,-1
2176,-72,42,1003,-14,19,-1
2177,-129,36,989,-16,6,-2
2178,-65,10,991,-17,-12,-7
2179,42,17,995,-15,-20,-7
2180,124,27,1011,-13,-12,-5
2181,121,41,991,-11,5,-3
2182,6,45,1002,-12,21,1
2183,-85,42,1005,-14,18,-2
2184,-133,17,988,-18,5,-2
2185,-53,19,982,-14,-14,-7
2186,71,22,1008,-14,-21,-7
2187,129,35,996,-14,-10,-4
2188,109,46,1003,-11,10,-1
2189,-1,46,1001,-14,21,1
2190,-110,33,1004,-13,17,0
2191,-123,17,982,-16,0,-3
2192,-35,14,985,-15,-15,-6
2193,79,23,1003,-14,-20,-5
2194,136,38,1005,-13,-6,-5
2195,99,51,1007,-12,13,-2
2196,-20,42,995,-15,24,1
2197,-124,29,995,-16,16,0
2198,-117,5,978,-17,-4,-4
2199,-28,18,996,-16,-18,-8
2200,107,29,998,-13,-20,-7
2201,144,43,1018,-12,-3,-4
2202,75,48,989,-14,16,1
2203,-42,48,1003,-13,23,0
2204,-134,23,988,-17,13,-2
2205,-98,11,986,-16,-7,-4
2206,7,5,998,-14,-20,-7
2207,112,31,1010,-13,-15,-5
2208,128,33,998,-12,0,-4
2209,41,61,999,-10,17,1
2210,-66,34,1006,-17,19,0
2211,-122,37,989,-15,8,-3
2212,-66,5,987,-17,-10,-5
2213,38,21,1003,-14,-19,-6
2214,117,25,994,-16,-11,-4
2215,98,49,1010,-13,6,-2
2216,13,46,986,-15,17,0
2217,-89,36,1011,-16,18,0
2218,-108,22,989,-17,2,-3
2219,-39,10,987,-16,-12,-6
2220,66,15,992,-14,-18,-8
2221,114,40,1013,-10,-7,-5
2222,90,54,989,-13,9,-3
2223,-20,51,1008,-13,21,2
2224,-95,35,999,-16,12,-2
2225,-102,6,989,-18,-1,-4
2226,-15,16,980,-16,-15,-8
2227,87,14,1011,-15,-16,-5
2228,116,44,997,-12,-2,-4
2229,63,43,1002,-12,13,1
2230,-39,46,1000,-16,19,-1
2231,-107,22,991,-16,10,-1
2232,-77,19,984,-15,-5,-6
2233,2,13,994,-18,-15,-6
2234,100,33,1008,-13,-15,-5
2235,115,37,1000,-13,0,-3
2236,42,51,994,-13,15,2
2237,-48,39,1002,-16,17,-1
2238,-121,25,991,-16,8,-2
2239,-69,8,984,-15,-10,-5
2240,25,16,1005,-13,-17,-7
2241,114,31,1009,-12,-13,-6
2242,117,39,989,-11,4,-2
2243,31,52,1000,-12,18,-2
2244,-77,34,1008,-15,19,1
2245,-132,32,983,-15,6,-3
2246,-60,6,997,-16,-12,-7
2247,51,12,1000,-11,-20,-7
2248,125,33,999,-13,-9,-4
2249,119,40,1000,-11,8,-2
2250,4,52,1004,-12,21,1
2251,-87,34,1001,-17,17,-2
2252,-121,22,992,-14,4,-5
2253,-45,9,977,-14,-13,-5
2254,52,19,1008,-13,-18,-5
2255,111,43,995,-14,-10,-4
2256,101,47,1010,-14,6,-2
2257,-5,49,1001,-14,18,0
2258,-97,19,996,-15,14,0
2259,-82,17,993,-13,-2,-7
2260,-29,7,984,-15,-13,-5
2261,79,35,1001,-11,-16,-7
2262,116,39,1014,-15,-3,-3
2263,58,57,995,-12,12,0
2264,-23,47,999,-17,18,-1
2265,-109,21,995,-17,12,-1
2266,-86,20,988,-16,-6,-5
2267,4,4,987,-16,-16,-7
2268,100,37,1016,-11,-14,-4
2269,123,40,1000,-12,0,-3
2270,41,45,991,-11,17,0
2271,-59,45,1003,-15,18,0
2272,-112,23,989,-17,7,-3
2273,-73,15,979,-15,-8,-5
2274,34,19,1012,-14,-19,-6
2275,121,26,999,-13,-12,-4
2276,112,38,997,-12,5,-3
2277,18,49,998,-12,18,-1
2278,-74,37,1003,-14,18,-1
2279,-119,25,984,-16,4,-2
2280,-50,19,998,-16,-14,-6
2281,63,16,999,-15,-19,-8
2282,119,38,999,-13,-7,-4
2283,99,42,995,-14,8,-2
2284,-13,44,1007,-15,20,0
2285,-94,37,995,-15,14,-2
2286,-103,16,991,-15,-1,-5
2287,-20,14,986,-13,-14,-6
2288,74,22,998,-14,-16,-5
2289,117,43,1005,-10,-4,-5
2290,76,40,1004,-13,11,0
2291,-38,49,992,-13,20,1
2292,-96,26,1005,-16,11,-5
2293,-89,15,981,-15,-4,-3
2294,-10,16,988,-16,-15,-6
2295,101,32,1008,-13,-15,-6
2296,107,38,1001,-13,0,0
2297,52,50,1003,-13,14,-1
2298,-40,41,994,-16,18,-1
2299,-118,25,992,-17,10,0
2300,-71,8,988,-15,-9,-5
2301,14,19,992,-12,-17,-5
2302,113,32,1011,-12,-13,-5
2303,112,49,999,-12,3,-3
2304,28,41,997,-14,17,1
2305,-72,38,999,-17,17,0
2306,-122,22,985,-16,5,-3
2307,-59,12,996,-14,-12,-5
2308,41,20,1002,-14,-20,-7
2309,126,30,1002,-13,-10,-6
2310,116,46,996,-12,6,-2
2311,12,48,1000,-14,21,1
2312,-85,37,999,-17,18,1
2313,-131,22,990,-19,3,-2
2314,-52,13,991,-17,-14,-5
2315,65,15,1005,-15,-20,-6
2316,125,33,989,-12,-8,-3
2317,102,51,1011,-11,9,-2
2318,-6,45,995,-14,21,2
2319,-105,36,1001,-14,17,0
2320,-108,20,990,-17,0,-4
2321,-28,14,990,-17,-14,-5
2322,78,24,990,-15,-18,-6
2323,120,35,1013,-13,-4,-4
2324,82,51,1003,-11,11,-2
2325,-31,46,998,-16,20,0
2326,-105,32,995,-17,11,-1
2327,-85,11,990,-14,-3,-5
2328,-12,14,981,-16,-16,-7
2329,98,30,1007,-15,-15,-6
2330,114,37,1004,-11,-1,-4
2331,44,51,1006,-13,15,1
2332,-44,43,991,-14,17,-1
2333,-113,29,995,-17,8,-2
2334,-68,13,986,-19,-9,-6
2335,16,19,996,-15,-17,-7
2336,106,32,1009,-15,-12,-5
2337,107,35,999,-13,4,-4
2338,23,42,991,-13,18,0
2339,-65,45,1005,-15,18,0
2340,-109,22,987,-15,5,-2
2341,-51,18,989,-13,-10,-5
2342,41,17,1013,-15,-17,-5
2343,100,34,989,-12,-8,-3
2344,97,42,998,-12,5,-3
2345,3,41,1004,-14,17,1
2346,-78,39,999,-15,14,0
2347,-105,21,989,-16,1,-5
2348,-33,12,1001,-18,-13,-5
2349,57,13,991,-14,-16,-4
2350,115,37,998,-12,-5,-5
2351,80,48,1008,-13,8,-1
2352,-17,56,993,-12,17,1
2353,-92,27,1008,-17,12,-2
2354,-94,23,985,-16,-3,-3
2355,-13,7,988,-16,-15,-6
2356,82,25,1003,-13,-15,-6
2357,110,31,1002,-13,-2,-3
2358,74,57,998,-13,13,-2
2359,-39,44,1008,-13,20,-1
2360,-104,31,988,-15,11,-2
2361,-84,11,992,-14,-5,-5
2362,0,13,982,-15,-16,-6
2363,97,31,1005,-13,-15,-5
2364,117,38,1005,-11,-1,-4
2365,37,46,1001,-13,16,1
2366,-48,44,993,-21,20,1
2367,-118,23,995,-25,11,1
2368,-64,17,981,-14,-8,-6
2369,28,14,1003,-18,-16,-8
2370,106,35,1005,-10,-11,-5
2371,113,35,992,-11,3,-3
2372,23,45,999,-12,18,0
2373,-74,34,1000,-12,16,0
2374,-115,31,985,-15,5,-4
2375,-48,15,999,-15,-11,-6
2376,43,24,997,-12,-16,-6
2377,111,34,999,-14,-10,-5
2378,105,35,1000,-11,5,-3
2379,-7,45,998,-13,18,2
2380,-76,34,997,-15,14,-1
2381,-105,23,999,-12,2,-4
2382,-37,15,984,-15,-13,-4
2383,68,26,1001,-12,-17,-7
2384,112,33,1000,-12,-6,-5
2385,83,59,1003,-12,9,-1
2386,-18,41,995,-16,19,0
2387,-99,32,1011,-14,14,-3
2388,-91,13,980,-16,-4,-5
2389,-18,15,988,-11,-15,-7
2390,84,29,1004,-13,-16,-7
2391,110,37,1002,-12,-3,-4
2392,62,46,1003,-12,13,-1
2393,-38,51,999,-15,18,0
2394,-102,28,992,-15,11,-2
2395,-82,12,985,-17,-5,-4
2396,-2,16,989,-13,-16,-6
2397,102,28,1008,-15,-15,-5
2398,113,40,1001,-12,2,-3
2399,42,55,1002,-13,16,0
2400,-54,35,996,-15,18,-2
2401,-111,25,988,-13,7,-2
2402,-69,13,984,-16,-9,-5
2403,28,21,1007,-14,-18,-6
2404,109,33,1003,-13,-12,-3
2405,111,40,998,-12,4,-3
2406,21,47,1004,-13,18,1
2407,-74,29,994,-16,17,1
2408,-114,28,992,-15,4,-3
2409,-46,19,994,-13,-10,-5
2410,44,20,998,-14,-16,-6
2411,121,38,1001,-12,-10,-5
2412,97,36,997,-14,6,-2
2413,-9,46,991,-13,20,1
2414,-83,31,1012,-17,14,-1
2415,-107,29,984,-14,1,-3
2416,-32,16,993,-16,-14,-5
2417,75,23,1003,-12,-16,-7
2418,110,33,998,-14,-5,-2
2419,82,44,997,-13,9,-1
2420,-19,44,1003,-13,17,1
2421,-106,25,996,-15,13,0
2422,-91,18,991,-16,-3,-5
2423,-4,16,989,-15,-15,-6
2424,83,28,997,-12,-13,-4
2425,120,44,1011,-13,-2,-5
2426,56,51,998,-13,14,0
2427,-42,42,1000,-14,18,-1
2428,-101,20,995,-15,10,-4
2429,-81,10,984,-14,-4,-3
2430,9,17,994,-13,-17,-7
2431,94,34,1007,-13,-12,-5
2432,114,47,1003,-11,0,-3
2433,40,47,1001,-15,16,-1
2434,-65,42,992,-16,16,-1
2435,-103,21,994,-15,6,-3
2436,-70,5,982,-15,-9,-4
2437,29,15,1003,-14,-17,-6
2438,119,33,1013,-12,-12,-5
2439,104,45,991,-11,6,-3
2440,17,49,991,-11,18,1
2441,-73,41,1012,-14,17,0
2442,-118,23,980,-16,4,-1
2443,-50,21,999,-14,-13,-4
2444,57,13,1001,-15,-18,-9
2445,111,31,1000,-13,-8,-2
2446,102,44,993,-12,7,-1
2447,-10,43,1005,-13,21,1
2448,-89,43,1003,-15,15,0
2449,-108,24,985,-16,0,-2
2450,-28,15,997,-16,-14,-8
2451,78,22,1000,-16,-17,-5
2452,114,31,999,-15,-5,-3
2453,83,54,999,-13,10,-1
2454,-20,42,1002,-17,20,-1
2455,-108,28,1000,-15,14,0
2456,-87,18,981,-18,-4,-3
2457,-11,13,998,-15,-15,-6
2458,86,35,999,-14,-15,-4
2459,119,34,1000,-15,-2,-5
2460,53,50,1005,-13,15,1
2461,-41,43,999,-18,18,0
2462,-106,16,986,-17,10,-2
2463,-78,13,989,-15,-6,-5
2464,9,14,992,-15,-16,-7
2465,106,35,1004,-12,-12,-5
2466,103,35,998,-12,2,-3
2467,41,54,1005,-12,15,-1
2468,-63,30,992,-15,18,0
2469,-115,30,988,-14,6,-2
2470,-57,4,993,-17,-12,-7
2471,29,21,1002,-13,-17,-6
2472,112,33,1008,-13,-13,-4
2473,109,45,991,-11,5,-3
2474,13,42,999,-13,18,0
2475,-79,40,1000,-15,16,1
2476,-115,21,983,-15,2,-4
2477,-46,10,998,-15,-13,-6
2478,55,17,1000,-11,-19,-8
2479,122,27,998,-11,-8,-4
2480,93,54,993,-10,9,-2
2481,-6,48,1005,-12,21,0
2482,-91,36,999,-14,15,-2
2483,-111,25,986,-16,-1,-4
2484,-19,12,994,-16,-16,-9
2485,74,19,998,-13,-16,-6
2486,116,32,999,-10,-5,-5
2487,80,51,1003,-11,11,-1
2488,-26,47,995,-13,19,-1
2489,-100,32,1006,-13,12,-2
2490,-97,15,984,-16,-4,-4
2491,-12,18,985,-15,-15,-6
2492,97,26,1008,-13,-16,-6
2493,109,33,1002,-12,-2,-4
2494,63,47,995,-12,12,-2
2495,-36,45,1010,-12,19,-1
2496,-112,37,983,-15,11,0
2497,-82,14,985,-16,-7,-3
2498,3,21,1001,-15,-17,-7
2499,108,31,999,-16,-14,-5
2500,112,35,1005,-12,1,-4
2501,46,49,995,-15,16,0
2502,-52,46,1003,-15,19,1
2503,-123,23,986,-18,8,1
2504,-74,15,987,-17,-9,-5
2505,29,15,1002,-17,-19,-5
2506,113,35,1013,-12,-13,-3
2507,118,38,988,-14,3,-4
2508,22,48,997,-12,19,1
2509,-75,45,1010,-17,17,-1
2510,-124,23,981,-18,4,-3
2511,-53,12,995,-16,-12,-5
2512,48,11,1005,-18,-20,-5
2513,121,33,993,-13,-9,-5
2514,105,38,1003,-11,7,-2
2515,-10,53,993,-12,20,1
2516,-90,31,1007,-15,16,-2
2517,-109,25,986,-16,1,-2
2518,-32,18,991,-17,-14,-4
2519,76,15,995,-14,-18,-7
2520,111,36,1012,-13,-4,-4
2521,82,44,987,-13,10,-2
2522,-28,45,1009,-13,19,1
2523,-102,26,998,-15,10,-3
2524,-90,14,990,-16,-5,-4
2525,-6,16,983,-14,-16,-7
2526,85,30,1003,-12,-14,-5
2527,117,42,1005,-13,-1,-5
2528,55,50,999,-13,16,0
2529,-46,40,996,-15,18,0
2530,-102,23,995,-16,8,-2
2531,-77,13,982,-17,-6,-4
2532,12,16,997,-14,-16,-7
2533,107,31,1003,-12,-13,-6
2534,104,41,999,-12,2,-4
2535,39,48,1001,-13,14,1
2536,-60,37,994,-15,17,0
2537,-113,26,989,-17,6,-2
2538,-59,9,988,-16,-11,-5
2539,33,27,999,-15,-18,-6
2540,112,29,1010,-13,-12,-4
2541,106,46,990,-12,6,-3
2542,12,39,1003,-15,18,1
2543,-75,36,999,-15,16,-1
2544,-116,19,990,-16,3,-4
2545,-40,21,993,-12,-12,-6
2546,58,17,1009,-15,-17,-7
2547,118,39,988,-13,-8,-5
2548,94,45,1004,-13,8,-2
2549,-5,40,1000,-14,18,0
2550,-100,29,995,-14,14,-1
2551,-98,20,1000,-15,-1,-6
2552,-22,15,985,-16,-14,-6
2553,76,27,997,-11,-16,-5
2554,123,35,1013,-12,-6,-5
2555,71,51,990,-13,12,-1
2556,-29,38,1002,-13,19,-1
2557,-107,31,1008,-14,13,-2
2558,-88,13,977,-16,-6,-5
2559,-8,19,991,-14,-16,-7
2560,90,30,1009,-13,-18,-6
2561,119,38,1000,-13,-2,-5
2562,55,47,999,-13,14,0
2563,-46,44,1004,-14,20,-1
2564,-110,20,982,-15,10,-3
2565,-80,18,991,-14,-6,-4
2566,14,17,991,-16,-18,-7
2567,100,30,1010,-11,-13,-5
2568,114,41,999,-11,1,-3
2569,43,49,997,-12,16,0
2570,-63,43,1002,-13,19,0
2571,-112,30,991,-16,8,-3
2572,-74,10,987,-17,-9,-4
2573,28,16,1002,-15,-18,-6
2574,118,31,1007,-13,-13,-5
2575,120,45,991,-12,4,-2
2576,17,50,1000,-14,18,1
2577,-73,41,1004,-18,18,-1
2578,-122,20,988,-17,5,-3
2579,-57,18,987,-18,-11,-6
2580,55,8,1010,-15,-18,-6
2581,123,34,991,-12,-9,-4
2582,103,38,1000,-10,8,-2
2583,-2,57,999,-10,19,-1
2584,-97,36,1012,-14,16,1
2585,-108,29,978,-16,0,-4
2586,-31,9,995,-18,-14,-6
2587,78,20,999,-15,-17,-6
2588,111,29,1002,-14,-5,-3
2589,84,44,999,-12,10,-1
2590,-31,38,999,-13,20,1
2591,-99,39,1001,-14,13,-2
2592,-86,14,983,-16,-2,-3
2593,-11,20,992,-17,-15,-5
2594,90,33,1005,-14,-16,-6
2595,111,36,998,-13,0,-3
2596,53,46,1013,-13,15,1
2597,-44,37,988,-14,18,0
2598,-109,13,995,-15,8,-3
2599,-68,21,989,-15,-8,-5
2600,14,13,993,-14,-15,-6
2601,105,49,1006,-11,-12,-6
2602,106,38,1006,-14,3,-2
2603,32,51,988,-12,17,0
2604,-65,30,1005,-17,16,1
2605,-117,21,979,-15,5,-3
2606,-50,5,997,-15,-12,-6
2607,41,22,998,-12,-19,-6
2608,107,34,1009,-12,-10,-3
2609,110,47,988,-10,4,-3
2610,0,44,1006,-13,18,2
2611,-83,43,994,-14,16,0
2612,-108,21,992,-17,2,-6
2613,-40,7,999,-14,-13,-6
2614,59,19,994,-14,-17,-6
2615,128,32,1005,-12,-8,-6
2616,88,50,995,-11,9,0
2617,-20,53,993,-12,20,0
2618,-85,28,1015,-16,15,-3
2619,-113,22,982,-15,1,-1
2620,-19,16,987,-15,-16,-7
2621,84,19,1006,-13,-18,-6
2622,110,42,1000,-13,-3,-2
2623,86,53,992,-14,11,-2
2624,-31,40,1013,-17,20,1
2625,-112,25,993,-16,11,0
2626,-90,12,983,-16,-4,-6
2627,-1,16,989,-15,-18,-7
2628,88,35,1009,-15,-16,-3
2629,121,38,996,-14,-1,-5
2630,48,54,1006,-16,15,2
2631,-43,40,995,-17,17,0
2632,-112,15,995,-15,10,-2
2633,-69,9,979,-18,-9,-5
2634,9,16,1000,-15,-15,-5
2635,103,37,1006,-13,-13,-6
2636,116,40,1000,-14,2,-3
2637,23,52,992,-13,18,-1
2638,-56,37,1007,-17,16,0
2639,-114,23,983,-16,7,-3
2640,-56,14,989,-16,-10,-6
2641,46,13,1009,-19,-15,-7
2642,108,42,1002,-14,-8,-5
2643,105,37,992,-12,6,-3
2644,-1,52,1000,-13,19,1
2645,-86,29,1000,-15,15,-1
2646,-95,21,987,-16,2,-4
2647,-45,7,1003,-16,-12,-5
2648,59,25,988,-11,-17,-6
2649,123,31,1012,-13,-7,-6
2650,95,52,990,-11,9,-2
2651,-18,46,1005,-14,21,1
2652,-104,34,999,-15,14,-2
2653,-119,20,986,-16,-2,-3
2654,-20,12,984,-16,-17,-6
2655,84,15,1009,-14,-19,-5
2656,139,34,1000,-12,-5,-5
2657,76,49,1002,-11,15,1
2658,-37,49,997,-14,20,0
2659,-120,28,1006,-15,12,-2
2660,-99,19,977,-17,-5,-5
2661,-1,14,991,-15,-17,-6
2662,98,32,1008,-15,-17,-6
2663,124,31,1008,-13,-2,-4
2664,57,56,996,-12,15,0
2665,-46,33,1006,-14,19,0
2666,-114,21,979,-13,10,-2
2667,-79,16,995,-15,-8,-4
2668,15,15,989,-16,-18,-7
2669,104,43,1016,-11,-14,-5
2670,119,40,994,-13,2,-5
2671,32,49,1001,-14,18,0
2672,-57,33,998,-15,16,-2
2673,-119,25,987,-16,7,-2
2674,-61,5,986,-14,-9,-8
2675,39,23,1011,-15,-16,-6
2676,105,35,992,-12,-10,-5
2677,110,51,1002,-9,5,-3
2678,10,42,997,-16,17,0
2679,-83,38,996,-15,16,0
2680,-105,20,989,-17,2,-5
2681,-39,14,998,-16,-12,-5
2682,57,15,993,-14,-17,-5
2683,118,40,1003,-12,-7,-5
2684,85,43,1003,-13,8,-1
2685,-19,49,996,-12,20,1
2686,-94,22,1005,-15,13,-2
2687,-98,23,990,-14,-1,-4
2688,-10,7,984,-14,-15,-7
2689,77,32,999,-11,-15,-5
2690,109,44,1007,-12,-4,-5
2691,72,46,994,-14,12,-2
2692,-41,52,1005,-15,20,1
2693,-97,23,997,-16,9,-1
2694,-89,9,980,-15,-4,-6
2695,1,18,993,-14,-16,-6
2696,94,29,1008,-13,-16,-5
2697,110,44,999,-13,0,-3
2698,51,47,1008,-14,15,-1
2699,-50,46,995,-16,18,0
2700,-108,16,988,-14,8,-1
2701,-70,15,987,-14,-8,-6
2702,12,15,995,-16,-18,-6
2703,105,37,1008,-13,-13,-6
2704,109,39,1000,-16,1,-3
2705,29,54,991,-34,17,5
2706,-60,35,1002,-23,17,0
2707,-112,26,986,-16,6,-3
2708,-57,8,994,-16,-11,-5
2709,42,18,997,-14,-17,-7
2710,114,31,1010,-13,-9,-4
2711,99,49,990,-12,6,-3
2712,4,43,1002,-16,17,0
2713,-79,36,999,-15,15,0
2714,-111,23,985,-19,3,-3
2715,-31,14,1004,-18,-12,-7
2716,62,17,995,-14,-17,-6
2717,114,37,996,-12,-5,-3
2718,89,45,1000,-12,9,-1
2719,-20,46,1001,-12,19,1
2720,-95,32,999,-14,12,-2
2721,-96,20,994,-18,-2,-4
2722,-12,12,981,-18,-15,-8
2723,74,24,1003,-12,-15,-5
2724,116,34,1003,-16,-5,-5
2725,63,53,999,-10,11,0
2726,-37,51,1000,-14,17,-1
2727,-99,25,999,-21,10,-3
2728,-86,11,981,-14,-4,-5
2729,4,9,992,-18,-18,-6
2730,94,28,1005,-10,-15,-5
2731,113,41,1003,-9,1,-4
2732,44,50,999,-11,14,-1
2733,-49,43,1005,-13,18,-1
2734,-106,27,980,-14,8,-3
2735,-64,15,993,-19,-8,-5
2736,21,15,999,-14,-16,-6
2737,104,37,1006,-14,-9,-4
2738,114,37,1003,-12,5,-4
2739,23,47,996,-13,17,1
2740,-70,33,992,-14,18,0
2741,-111,19,994,-17,5,-4
2742,-55,15,989,-15,-11,-5
2743,38,24,1001,-14,-16,-6
2744,121,34,999,-15,-10,-5
2745,100,47,1003,-10,7,-1
2746,4,44,991,-16,17,2
2747,-82,29,1003,-14,16,-1
2748,-113,23,987,-15,2,-3
2749,-33,16,999,-17,-14,-6
2750,63,24,996,-11,-17,-5
2751,113,42,997,-11,-7,-3
2752,91,50,1006,-14,7,-2
2753,-20,43,1000,-14,19,2
2754,-100,34,996,-16,13,-2
2755,-86,8,995,-18,-2,-5
2756,-18,3,985,-14,-13,-5
2757,83,28,997,-11,-15,-5
2758,117,40,1008,-11,-2,-4
2759,59,54,999,-12,13,0
2760,-34,53,997,-15,18,0
2761,-105,22,1000,-18,10,-2
2762,-90,19,977,-14,-6,-3
2763,10,11,994,-17,-17,-7
2764,98,30,1006,-13,-13,-6
2765,109,43,998,-12,0,-3
2766,54,51,1006,-11,15,-2
2767,-56,40,997,-16,20,1
2768,-108,26,985,-16,7,-4
2769,-67,7,996,-17,-8,-6
2770,14,16,991,-14,-15,-5
2771,108,38,1010,-12,-13,-5
2772,117,39,999,-13,3,-4
2773,14,50,989,-12,18,2
2774,-60,42,1004,-15,14,-1
2775,-112,15,992,-18,5,-3
2776,-56,10,983,-14,-10,-3
2777,45,18,1013,-13,-17,-7
2778,112,35,997,-12,-10,-2
2779,96,47,991,-12,5,-1
2780,6,49,1005,-15,17,-1
2781,-81,38,1001,-16,15,0
2782,-104,22,984,-18,0,-4
2783,-31,10,1005,-17,-13,-7
2784,63,18,990,-14,-15,-5
2785,117,30,995,-13,-6,-5
2786,84,51,1014,-11,10,-1
2787,-21,45,989,-13,18,0
2788,-99,35,1004,-14,13,-2
2789,-95,21,989,-18,-2,-4
2790,-22,11,988,-16,-14,-6
2791,85,30,997,-12,-16,-7
2792,110,34,1005,-14,-2,-2
2793,67,58,1002,-13,13,0
2794,-31,43,998,-17,19,0
2795,-104,22,993,-15,11,-1
2796,-88,16,984,-16,-5,-4
2797,3,8,996,-16,-17,-7
2798,93,32,1006,-11,-14,-5
2799,111,40,998,-14,-1,-3
2800,52,47,1010,-12,14,-1
2801,-54,44,988,-14,18,2
2802,-106,24,988,-15,7,-3
2803,-60,13,996,-17,-8,-5
2804,16,18,995,-15,-15,-5
2805,107,38,1004,-13,-11,-8
2806,110,35,1008,-12,6,-5
2807,18,50,987,-11,19,0
2808,-70,32,1003,-15,18,-2
2809,-122,26,989,-15,5,-4
2810,-61,7,989,-16,-14,-5
2811,37,15,1002,-13,-19,-7
2812,122,33,1001,-11,-11,-5
2813,112,50,999,-8,7,-3
2814,1,46,995,-12,19,1
2815,-88,37,1000,-16,16,0
2816,-117,24,992,-16,0,-4
2817,-46,11,988,-17,-13,-5
2818,72,15,1001,-14,-18,-8
2819,115,37,1006,-10,-7,-3
2820,95,51,995,-12,7,-2
2821,-12,53,1008,-14,19,-2
2822,-100,32,999,-16,14,-1
2823,-110,22,983,-19,-1,-3
2824,-25,12,986,-16,-14,-6
2825,80,24,1006,-14,-19,-4
2826,135,37,1006,-13,-6,-5
2827,84,46,999,-13,13,-1
2828,-31,49,999,-14,21,0
2829,-110,21,999,-15,14,-3
2830,-112,13,973,-16,-3,-4
2831,-5,10,995,-16,-19,-7
2832,97,32,1008,-14,-17,-7
2833,128,44,1002,-12,0,-4
2834,66,46,1011,-12,15,-1
2835,-57,45,987,-15,21,1
2836,-120,18,993,-16,9,-2
2837,-77,12,990,-16,-9,-6
2838,12,16,989,-15,-18,-5
2839,112,36,1012,-14,-15,-5
2840,113,41,1002,-14,2,-2
2841,26,54,985,-11,17,1
2842,-61,34,1009,-17,16,0
2843,-121,23,987,-16,6,-2
2844,-55,15,992,-16,-12,-4
2845,44,12,999,-15,-17,-5
2846,107,34,1003,-11,-9,-2
2847,112,47,993,-8,5,-3
2848,12,49,1003,-17,18,0
2849,-90,41,998,-16,17,2
2850,-112,28,995,-19,2,-3
2851,-40,7,987,-17,-14,-6
2852,66,14,998,-16,-18,-6
2853,125,26,1002,-13,-6,-4
2854,94,50,1004,-9,11,-2
2855,-23,50,993,-13,21,1
2856,-99,36,1007,-16,15,0
2857,-101,18,987,-17,-1,-4
2858,-16,18,977,-16,-15,-7
2859,94,18,1015,-17,-15,-7
2860,120,41,995,-14,-1,-4
2861,71,42,1008,-13,16,0
2862,-38,35,999,-15,22,-3
2863,-121,19,992,-13,13,-2
2864,-96,18,983,-12,-6,-5
2865,-15,20,989,-14,-17,-5
2866,98,40,1007,-12,-17,-6
2867,126,47,1008,-12,-3,-4
2868,48,50,994,-15,14,1
2869,-55,37,1005,-15,17,-1
2870,-114,11,982,-17,6,-2
2871,-74,10,987,-14,-10,-4
2872,29,15,1003,-13,-19,-7
2873,105,36,1007,-12,-14,-3
2874,116,53,997,-10,2,-2
2875,40,50,1000,-15,18,0
2876,-69,42,1002,-16,19,1
2877,-130,29,987,-18,5,-1
2878,-69,0,990,-17,-12,-7
2879,36,14,1003,-14,-20,-7
2880,131,33,998,-13,-13,-4
2881,131,47,1001,-10,6,-3
2882,16,55,997,-15,21,2
2883,-98,41,1008,-17,19,0
2884,-140,26,978,-19,4,-2
2885,-56,3,995,-19,-14,-6
2886,72,10,992,-14,-23,-7
2887,133,27,1008,-11,-9,-2
2888,114,49,1003,-11,9,-1
2889,-8,49,1001,-13,23,2
2890,-102,38,1002,-14,17,-1
2891,-118,18,986,-18,0,-2
2892,-26,11,979,-14,-16,-7
2893,85,26,1011,-13,-18,-6
2894,123,42,997,-14,-5,-4
2895,81,44,1008,-15,13,0
2896,-33,42,994,-16,19,1
2897,-102,17,996,-15,12,-4
2898,-85,12,979,-15,-4,-7
2899,-7,22,996,-15,-16,-5
2900,99,32,1002,-13,-16,-6
2901,107,48,1007,-13,1,-1
2902,50,45,1000,-15,14,1
2903,-55,44,996,-16,18,0
2904,-108,18,990,-19,6,-3
2905,-64,4,989,-14,-8,-4
2906,17,23,998,-13,-16,-7
2907,111,33,1009,-14,-12,-5
2908,103,43,996,-9,4,-1
2909,12,48,993,-13,17,1
2910,-69,41,1004,-15,16,-1
2911,-108,23,992,-15,4,-4
2912,-48,12,987,-15,-11,-6
2913,51,18,1000,-14,-17,-7
2914,113,32,1007,-14,-8,-5
2915,92,50,983,-12,7,0
2916,0,47,1007,-15,19,-1
2917,-89,42,1003,-16,14,-1
2918,-109,19,991,-20,0,-2
2919,-25,16,985,-17,-14,-7
2920,77,11,1009,-18,-16,-4
2921,124,31,994,-12,-5,-4
2922,85,38,1003,-14,12,-1
2923,-24,47,997,-11,20,0
2924,-105,30,1004,-13,14,-3
2925,-94,28,981,-15,-1,-4
2926,-16,20,992,-15,-15,-6
2927,93,29,998,-17,-15,-8
2928,121,35,1011,-16,-1,-4
2929,58,45,997,-14,15,0
2930,-47,29,1001,-16,20,0
2931,-113,25,991,-12,10,-3
2932,-88,11,981,-15,-7,-4
2933,10,29,997,-11,-18,-7
2934,103,38,1006,-14,-14,-5
2935,121,46,999,-14,1,-3
2936,43,39,996,-14,17,0
2937,-65,36,1005,-14,19,-1
2938,-110,11,981,-16,7,-4
2939,-70,13,994,-14,-9,-4
2940,30,22,995,-14,-19,-7
2941,114,38,1015,-13,-12,-4
2942,111,50,990,-12,4,-3
2943,15,46,1000,-13,18,1
2944,-72,39,1002,-15,15,-2
2945,-116,24,992,-17,3,-2
2946,-45,12,988,-15,-13,-7
2947,54,15,1012,-14,-17,-7
2948,113,25,989,-11,-8,-4
2949,90,54,1004,-11,8,-2
2950,0,42,998,-14,17,0
2951,-95,44,1000,-14,15,0
2952,-105,14,988,-17,-2,-5
2953,-29,17,996,-14,-13,-6
2954,73,19,993,-14,-18,-6
2955,125,38,1005,-14,-6,-5
2956,82,47,1002,-14,11,0
2957,-24,43,998,-15,20,-1
2958,-106,26,1004,-15,12,-2
2959,-101,13,978,-14,-4,-3
2960,1,16,991,-13,-17,-6
2961,102,35,1011,-15,-15,-6
2962,100,37,997,-13,1,-4
2963,69,57,1013,-13,13,1
2964,-47,33,982,-18,20,0
2965,-120,25,994,-16,10,0
2966,-74,5,991,-16,-9,-4
2967,0,15,992,-14,-17,-6
2968,118,30,1010,-11,-16,-4
2969,116,37,1002,-11,3,-3
2970,47,55,1001,-12,18,0
2971,-59,47,991,-15,21,1
2972,-125,31,994,-19,8,-2
2973,-74,10,992,-18,-9,-5
2974,17,18,987,-17,-17,-6
2975,116,24,1018,-15,-13,-5
2976,118,41,996,-11,2,-3
2977,23,43,993,-13,18,1
2978,-73,42,1003,-16,17,0
2979,-125,30,996,-15,3,-2
2980,-51,12,985,-17,-15,-6
2981,43,19,996,-15,-17,-7
2982,133,30,1005,-12,-11,-5
2983,102,49,1006,-12,8,-2
2984,-9,48,976,-12,20,1
2985,-87,28,1027,-15,15,-3
2986,-119,22,978,-16,0,-3
2987,-34,13,988,-12,-15,-6
2988,80,17,1002,-13,-19,-7
2989,116,38,1006,-9,-5,-2
2990,94,52,986,-13,9,-2
2991,-26,48,1011,-14,21,1
2992,-111,26,997,-16,13,0
2993,-101,19,986,-16,-2,-4
2994,-16,9,987,-15,-17,-6
2995,87,32,1007,-12,-17,-5
2996,128,34,1005,-13,-5,-5
2997,70,54,997,-11,14,1
2998,-38,54,1003,-14,20,1
2999,-113,20,992,-16,12,-2
3000,-103,7,982,-15,-5,-2
3001,-3,14,991,-14,-19,-7
3002,116,25,1013,-13,-17,-6
3003,136,41,1002,-12,1,-3
3004,60,56,997,-13,19,-1
3005,-55,42,1005,-15,22,-1
3006,-139,26,980,-14,9,-3
3007,-97,8,983,-16,-10,-3
3008,20,15,1008,-14,-21,-8
3009,125,32,1003,-13,-15,-4
3010,141,40,1000,-10,1,-5
3011,43,46,1001,-13,20,0
3012,-77,39,997,-16,22,0
3013,-146,31,993,-16,9,-2
3014,-73,11,987,-18,-13,-5
3015,41,23,991,-15,-22,-6
3016,134,37,1010,-14,-13,-5
3017,129,44,999,-14,5,-1
3018,15,47,994,-15,22,1
3019,-91,29,1015,-17,20,0
3020,-139,18,984,-15,3,-3
3021,-53,12,977,-15,-14,-6
3022,64,28,1007,-12,-22,-8
3023,134,40,1002,-14,-11,-4
3024,119,54,1002,-14,8,-2
3025,-9,47,999,-17,23,2
3026,-111,31,1006,-19,17,-1
3027,-122,6,982,-17,-1,-3
3028,-39,9,977,-15,-17,-5
3029,85,26,1011,-15,-21,-5
3030,146,42,1007,-11,-7,-4
3031,85,52,998,-13,14,1
3032,-25,53,998,-16,22,0
3033,-122,23,995,-17,16,-2
3034,-112,13,979,-16,-5,-3
3035,-16,11,990,-16,-19,-7
3036,112,32,1012,-16,-19,-6
3037,139,25,1004,-14,-2,-2
3038,56,47,992,-8,17,0
3039,-54,36,1000,-20,21,0
3040,-133,31,994,-12,11,-2
3041,-82,13,982,-17,-10,-4
3042,25,27,1004,-15,-18,-7
3043,116,34,1008,-13,-13,-4
3044,122,35,994,-14,2,-3
3045,27,36,1000,-14,18,0
3046,-83,26,1001,-14,18,0
3047,-119,31,988,-13,6,-3
3048,-63,15,994,-14,-10,-5
3049,47,31,994,-14,-20,-6
3050,126,37,1006,-12,-10,-4
3051,107,45,999,-12,8,-2
3052,-1,48,1000,-15,20,1
3053,-87,22,1007,-15,16,-2
3054,-118,13,980,-14,1,-2
3055,-29,17,988,-11,-14,-8
3056,75,21,1004,-11,-17,-7
3057,115,49,1001,-9,-6,-3
3058,92,51,1003,-12,9,-2
3059,-29,53,998,-15,21,0
3060,-104,24,1005,-17,12,-2
3061,-100,6,981,-17,-3,-3
3062,-17,9,989,-15,-15,-4
3063,95,28,1005,-11,-17,-6
3064,125,45,1007,-12,-3,-5
3065,66,63,994,-13,14,0
3066,-39,48,1004,-17,21,1
3067,-114,16,994,-18,12,-2
3068,-103,6,974,-17,-6,-4
3069,9,5,1002,-15,-19,-9
3070,104,30,1008,-13,-15,-4
3071,130,44,997,-9,0,-3
3072,60,60,1003,-12,18,0
3073,-67,48,998,-16,22,2
3074,-125,24,989,-18,8,-3
3075,-80,6,984,-18,-9,-6
3076,24,8,1000,-14,-21,-6
3077,125,27,1010,-12,-14,-5
3078,125,46,994,-8,4,-3
3079,22,51,997,-12,19,2
3080,-79,44,1003,-15,18,-1
3081,-124,30,992,-16,6,-2
3082,-56,13,988,-16,-11,-5
3083,45,15,998,-17,-18,-7
3084,133,25,1007,-13,-11,-6
3085,99,47,993,-11,8,-2
3086,0,44,998,-12,20,0
3087,-87,38,1015,-13,16,-2
3088,-117,22,976,-16,0,-1
3089,-33,17,996,-13,-14,-6
3090,81,25,998,-13,-18,-7
3091,107,33,1005,-14,-4,-3
3092,84,50,991,-12,10,-3
3093,-28,34,1010,-15,20,0
3094,-105,23,991,-13,13,-2
3095,-90,12,988,-13,-4,-4
3096,-1,24,990,-12,-16,-6
3097,90,40,1009,-13,-16,-4
3098,116,46,996,-14,-2,-4
3099,54,47,1008,-15,15,0
3100,-48,39,995,-17,18,-1
3101,-105,10,990,-17,8,-2
3102,-80,5,984,-14,-6,-5
3103,18,19,996,-11,-17,-6
3104,109,41,1006,-11,-13,-5
3105,113,55,1002,-12,3,-2
3106,38,48,997,-15,17,0
3107,-69,45,1000,-15,18,0
3108,-113,19,984,-19,5,-2
3109,-61,10,993,-18,-10,-5
3110,35,8,1004,-16,-17,-6
3111,119,41,1007,-14,-9,-5
3112,108,43,995,-13,5,-3
3113,13,54,997,-13,20,1
3114,-81,34,1006,-18,17,-1
3115,-121,21,978,-18,4,-2
3116,-46,10,1005,-17,-14,-6
3117,64,19,998,-14,-19,-7
3118,113,35,996,-11,-7,-4
3119,100,50,1003,-15,7,-2
3120,-22,38,1001,-16,19,1
3121,-93,29,1001,-15,13,-2
3122,-97,11,989,-18,-1,-3
3123,-22,20,989,-14,-14,-6
3124,81,29,1000,-15,-17,-5
3125,117,43,1000,-15,-3,-3
3126,68,46,998,-15,12,0
3127,-36,38,1004,-17,20,-1
3128,-108,14,992,-15,11,-3
3129,-85,14,987,-11,-5,-6
3130,-3,20,988,-14,-18,-7
3131,101,38,1006,-11,-14,-5
3132,113,39,1006,-14,0,-3
3133,46,49,994,-15,16,1
3134,-53,36,1006,-14,19,-1
3135,-108,22,976,-17,9,-3
3136,-72,8,998,-15,-7,-6
3137,25,26,989,-12,-17,-7
3138,103,36,1016,-13,-11,-6
3139,117,42,993,-13,2,-4
3140,18,40,1001,-14,17,1
3141,-65,41,994,-14,16,-2
3142,-121,19,993,-15,5,-2
3143,-52,22,979,-14,-12,-6
3144,44,20,1019,-16,-18,-4
3145,119,35,992,-13,-9,-4
3146,106,43,1000,-13,7,0
3147,6,47,994,-15,18,0
3148,-91,23,1002,-17,16,-1
3149,-110,23,984,-16,2,-5
3150,-39,6,1005,-15,-13,-5
3151,70,32,991,-13,-18,-7
3152,124,37,1005,-13,-8,-4
3153,91,48,999,-13,8,-1
3154,-18,42,995,-16,21,0
3155,-102,25,1005,-14,16,-2
3156,-105,15,985,-16,-2,-5
3157,-17,15,991,-14,-16,-6
3158,85,25,999,-13,-17,-5
3159,117,36,1003,-14,-4,-4
3160,70,48,1001,-11,13,-2
3161,-36,37,998,-14,19,0
3162,-109,22,994,-13,12,-2
3163,-88,20,983,-13,-4,-4
3164,-6,11,995,-15,-17,-7
3165,97,37,999,-11,-16,-7
3166,118,35,1010,-13,-1,-4
3167,49,47,1001,-12,15,0
3168,-53,38,992,-11,18,0
3169,-109,19,992,-14,9,-4
3170,-74,13,982,-12,-8,-6
3171,14,19,1001,-14,-16,-7
3172,108,46,1004,-10,-13,-5
3173,105,39,1001,-12,4,-3
3174,31,45,999,-12,16,-1
3175,-67,29,998,-14,17,0
3176,-113,17,984,-11,6,-4
3177,-56,13,992,-12,-12,-6
3178,37,26,1002,-8,-17,-6
3179,120,40,1006,-12,-11,-5
3180,99,50,991,-11,6,-1
3181,17,51,1008,-11,17,-1
3182,-82,27,990,-16,16,-2
3183,-119,26,990,-13,2,-3
3184,-31,4,1003,-14,-14,-5
3185,50,25,990,-12,-17,-6
3186,117,33,1003,-10,-8,-5
3187,98,54,1005,-11,8,-3
3188,-21,49,996,-12,20,0
3189,-83,31,1003,-14,13,-3
3190,-105,19,991,-16,0,-4
3191,-23,15,981,-14,-14,-6
3192,79,19,1003,-14,-18,-6
3193,110,40,1002,-13,-4,-4
3194,78,46,1004,-10,10,-1
3195,-26,44,995,-13,18,-1
3196,-102,27,1002,-14,14,-3
3197,-85,19,987,-13,-3,-5
3198,-13,19,987,-15,-16,-4
3199,82,36,1001,-12,-17,-6
3200,112,34,1010,-13,-3,-4
3201,60,51,1001,-11,13,-3
3202,-34,42,997,-14,18,0
3203,-102,17,990,-17,10,-3
3204,-73,7,992,-15,-5,-5
3205,0,17,985,-12,-15,-6
3206,98,40,1013,-15,-14,-6
3207,113,46,1004,-12,0,-5
3208,42,50,988,-15,15,0
3209,-52,38,1005,-14,16,-2
3210,-112,20,991,-16,7,-2
3211,-62,8,985,-14,-7,-5
3212,22,20,1001,-13,-15,-7
3213,101,34,1004,-13,-12,-4
3214,111,51,1000,-9,4,-3
3215,23,47,993,-14,16,0
3216,-70,36,1004,-15,15,-2
3217,-105,24,991,-17,4,-5
3218,-51,8,993,-16,-9,-6
3219,44,21,993,-12,-17,-5
3220,104,32,1003,-13,-9,-3
3221,89,52,1004,-9,6,-3
3222,1,47,998,-14,17,-1
3223,-80,36,1006,-13,15,-2
3224,-97,11,985,-18,2,-5
3225,-29,13,987,-13,-11,-5
3226,56,23,993,-12,-15,-5
3227,101,40,1008,-11,-6,-3
3228,76,53,1002,-12,8,-2
3229,-14,47,998,-15,16,0
3230,-87,30,1001,-17,11,-3
3231,-81,8,983,-16,-2,-4
3232,-17,11,992,-17,-13,-6
3233,74,29,995,-13,-15,-5
3234,100,37,1010,-11,-3,-3
3235,67,61,1004,-12,10,-2
3236,-25,52,997,-14,16,0
3237,-95,31,989,-18,10,-2
3238,-72,5,995,-18,-5,-4
3239,0,14,987,-14,-14,-6
3240,87,30,1004,-16,-14,-5
3241,105,39,1004,-13,0,-4
3242,46,49,1000,-12,14,-1
3243,-46,36,992,-17,16,-1
3244,-103,32,994,-15,7,-3
3245,-59,4,997,-19,-8,-4
3246,19,24,989,-15,-16,-6
3247,103,33,1005,-15,-10,-5
3248,100,49,999,-13,2,-2
3249,17,47,994,-16,15,1
3250,-62,30,1000,-16,16,-2
3251,-98,23,997,-15,5,-4
3252,-41,9,991,-17,-10,-5
3253,42,19,993,-11,-15,-5
3254,109,41,1006,-11,-8,-4
3255,84,48,1001,-13,6,-1
3256,-6,53,991,-13,18,1
3257,-80,34,1011,-20,13,-2
3258,-94,20,986,-18,0,-3
3259,-23,9,985,-18,-12,-5
3260,69,20,999,-14,-15,-5
3261,105,33,1010,-13,-5,-4
3262,72,47,995,-13,11,-1
3263,-25,50,1006,-12,20,0
3264,-93,32,994,-15,12,-2
3265,-85,14,985,-16,-3,-5
3266,-13,21,987,-16,-15,-5
3267,82,29,1008,-16,-15,-3
3268,106,36,1001,-13,-2,-4
3269,54,44,1005,-15,12,1
3270,-36,32,990,-15,16,-2
3271,-106,21,996,-14,9,-2
3272,-61,15,984,-14,-7,-4
3273,2,17,995,-13,-13,-4
3274,97,46,1009,-11,-12,-5
3275,102,42,1001,-15,2,-3
3276,31,52,988,-13,16,0
3277,-58,31,1012,-18,16,-1
3278,-105,24,986,-15,6,-3
3279,-53,0,990,-15,-9,-4
3280,32,17,997,-12,-16,-5
3281,107,32,1009,-11,-11,-4
3282,100,51,992,-10,5,-2
3283,6,52,997,-12,17,-1
3284,-70,36,1003,-15,15,-1
3285,-106,25,992,-17,2,-2
3286,-38,10,991,-16,-12,-5
3287,52,12,997,-13,-17,-5
3288,112,34,1004,-12,-7,-4
3289,93,48,995,-10,8,-2
3290,-8,49,1005,-11,18,0
3291,-89,36,998,-15,15,-2
3292,-98,20,989,-17,2,-4
3293,-26,13,975,-16,-13,-7
3294,62,23,1010,-15,-15,-5
3295,112,42,999,-11,-5,-5
3296,68,47,1005,-12,11,0
3297,-21,45,993,-12,16,-2
3298,-92,19,1011,-15,10,-2
3299,-85,16,971,-14,-4,-4
3300,-9,18,997,-14,-15,-5
3301,84,32,996,-14,-14,-5
3302,99,45,1007,-12,0,-2
3303,60,48,1003,-13,13,-3
3304,-40,39,998,-16,18,0
3305,-101,25,989,-15,9,-3
3306,-64,6,998,-16,-7,-5
3307,4,19,990,-12,-14,-5
3308,89,37,1003,-14,-13,-5
3309,106,49,1005,-11,0,-5
3310,31,44,995,-14,15,0
3311,-55,41,996,-13,16,-1
3312,-92,16,995,-16,5,-5
3313,-57,7,990,-14,-7,-3
3314,29,14,999,-13,-17,-6
3315,98,36,1002,-12,-11,-4
3316,90,58,994,-10,4,-4
3317,20,47,1004,-14,15,-4
3318,-60,41,998,-14,14,-3
3319,-98,22,997,-17,4,-4
3320,-44,14,990,-16,-9,-5
3321,40,14,994,-14,-15,-5
3322,98,35,1006,-15,-8,-5
3323,87,49,998,-13,6,-4
3324,-2,47,996,-13,17,-1
3325,-70,38,1015,-16,12,-1
3326,-90,13,985,-19,2,-3
3327,-28,14,978,-15,-11,-4
3328,60,19,1009,-17,-14,-6
3329,94,41,996,-13,-4,-4
3330,71,44,1001,-15,7,-2
3331,-14,51,1005,-14,16,1
3332,-89,21,991,-18,11,-3
3333,-67,10,986,-16,-1,-6
3334,-9,16,995,-16,-12,-5
3335,72,36,995,-12,-11,-4
3336,95,41,1006,-12,-1,-4
3337,48,46,1006,-13,12,-1
3338,-41,38,996,-16,16,0
3339,-89,21,984,-16,8,-4
3340,-60,9,1002,-15,-7,-5
3341,9,21,983,-14,-14,-6
3342,84,26,1013,-13,-11,-5
3343,103,48,999,-8,1,-3
3344,25,46,997,-10,15,0
3345,-53,42,995,-13,16,-3
3346,-96,27,997,-17,5,-4
3347,-57,8,990,-16,-7,-6
3348,28,13,1000,-14,-14,-6
3349,102,32,998,-12,-10,-4
3350,89,46,997,-11,4,-3
3351,12,47,994,-13,15,-1
3352,-62,37,1001,-15,14,-3
3353,-102,20,1001,-15,3,-4
3354,-38,19,986,-13,-12,-6
3355,44,13,1000,-14,-15,-4
3356,97,46,1003,-12,-7,-4
3357,84,45,999,-15,5,-4
3358,0,44,994,-13,17,-3
3359,-74,33,1013,-15,13,-1
3360,-85,15,983,-15,1,-4
3361,-26,9,983,-14,-12,-4
3362,61,29,1005,-14,-15,-3
3363,92,44,999,-13,-4,-4
3364,75,51,1008,-12,8,-3
3365,-18,49,996,-13,16,-1
3366,-80,28,992,-16,11,-4
3367,-70,8,995,-17,-2,-6
3368,-17,16,981,-15,-10,-5
3369,67,22,999,-14,-13,-5
3370,93,35,1011,-11,-1,-5
3371,52,53,1000,-11,11,-1
3372,-26,42,992,-14,16,-3
3373,-86,33,1000,-14,11,-2
3374,-62,12,988,-16,-2,0
3375,4,8,994,-15,-12,-5
3376,72,36,1003,-11,-11,-3
3377,97,38,1005,-14,1,-3
3378,38,42,993,-10,13,-3
3379,-45,43,1006,-13,15,0
3380,-90,29,988,-16,6,-5
3381,-50,11,996,-14,-7,-5
3382,19,15,996,-14,-13,-4
3383,85,31,996,-14,-9,-3
3384,90,53,1001,-10,2,-4
3385,21,49,1002,-15,13,-3
3386,-61,34,991,-15,14,-5
3387,-82,23,1006,-15,4,-6
3388,-38,16,993,-16,-8,-4
3389,36,14,986,-12,-12,-6
3390,83,37,1000,-13,-7,-5
3391,84,50,1006,-14,5,-4
3392,0,46,995,-13,15,-2
3393,-69,37,1007,-16,11,-2
3394,-73,16,993,-16,0,-7
3395,-32,10,984,-16,-9,-4
3396,52,20,997,-14,-14,-4
3397,88,40,1006,-11,-5,-3
3398,66,55,1000,-15,7,-2
3399,-6,49,1000,-14,15,-2
3400,-79,28,995,-19,10,-2
3401,-71,9,986,-17,-2,-4
3402,-14,8,993,-15,-11,-6
3403,70,29,996,-15,-12,-5
3404,94,36,1007,-11,-3,-3
3405,53,51,997,-12,11,-2
3406,-26,52,999,-13,16,-1
3407,-86,27,987,-17,9,-4
3408,-68,11,996,-18,-3,-4
3409,6,10,988,-17,-13,-6
3410,82,31,1012,-14,-9,-4
3411,103,40,995,-11,0,-3
3412,38,45,1002,-12,14,-1
3413,-53,44,993,-14,15,-1
3414,-90,35,999,-15,6,-4
3415,-52,11,986,-14,-7,-6
3416,20,15,996,-15,-13,-5
3417,97,36,1003,-12,-10,-5
3418,88,44,994,-11,4,-1
3419,18,51,1002,-14,15,-2
3420,-61,36,1001,-18,15,-2
3421,-97,17,992,-16,5,-4
3422,-36,7,996,-15,-10,-6
3423,38,17,993,-13,-15,-5
3424,95,35,1004,-11,-8,-3
3425,84,55,1000,-12,5,-2
3426,-8,57,1003,-15,17,-2
3427,-71,30,999,-16,11,-3
3428,-85,19,993,-16,0,-5
3429,-22,6,978,-18,-11,-5
3430,60,16,1005,-15,-15,-5
3431,98,39,1005,-12,-5,-4
3432,65,46,996,-11,10,-1
3433,-18,51,1004,-13,16,0
3434,-82,30,992,-14,11,-1
3435,-77,14,987,-16,-2,-4
3436,-13,17,989,-15,-13,-5
3437,77,27,1001,-14,-13,-4
3438,96,36,1003,-13,-2,-5
3439,49,49,1003,-13,12,0
3440,-33,42,992,-15,16,-2
3441,-86,28,998,-16,9,-4
3442,-67,9,981,-15,-5,-4
3443,5,24,1003,-13,-13,-5
3444,93,25,1002,-13,-11,-4
3445,91,50,999,-10,3,-2
3446,29,47,996,-13,15,-1
3447,-49,43,1010,-18,15,-1
3448,-99,22,983,-17,7,-4
3449,-48,9,998,-17,-8,-6
3450,38,15,998,-14,-14,-6
3451,94,34,998,-13,-6,-4
3452,95,42,993,-12,5,-3
3453,4,50,1005,-12,16,0
3454,-73,33,996,-16,14,-1
3455,-91,19,996,-14,3,-5
3456,-31,17,990,-15,-9,-6
3457,47,16,993,-14,-16,-3
3458,100,42,1002,-11,-7,-5
3459,83,45,1005,-13,6,-2
3460,-12,57,993,-12,18,-1
3461,-81,26,1005,-17,12,-3
3462,-81,20,989,-18,-2,-5
3463,-21,4,982,-16,-13,-5
3464,65,21,1003,-13,-15,-5
3465,99,37,1003,-13,-4,-4
3466,69,50,1005,-10,11,-2
3467,-24,46,995,-14,16,0
3468,-87,26,997,-15,11,-3
3469,-76,22,983,-15,-4,-6
3470,-6,12,994,-16,-13,-6
3471,77,36,1000,-12,-14,-5
3472,100,38,1007,-13,-1,-3
3473,50,44,996,-14,12,-1
3474,-37,43,1004,-16,16,0
3475,-91,27,988,-16,8,-4
3476,-71,8,992,-16,-6,-4
3477,11,20,994,-16,-16,-6
3478,86,34,1010,-14,-11,-3
3479,101,45,992,-15,1,-3
3480,33,45,1008,-15,14,-1
3481,-53,38,988,-15,14,0
3482,-95,20,1005,-16,5,-5
3483,-49,9,987,-14,-9,-6
3484,23,15,999,-11,-15,-4
3485,105,38,994,-12,-9,-5
3486,90,57,1010,-11,5,-1
3487,12,47,989,-14,15,-2
3488,-68,37,1007,-15,14,-3
3489,-93,12,991,-16,2,-4
3490,-38,11,992,-14,-9,-5
3491,56,23,995,-12,-15,-6
3492,94,39,1004,-12,-5,-3
3493,79,53,996,-13,6,-4
3494,-8,47,1007,-15,16,-2
3495,-76,28,997,-16,12,-3
3496,-82,14,995,-16,-1,-4
3497,-23,12,974,-14,-12,-5
3498,63,22,1012,-13,-16,-5
3499,100,43,996,-12,-5,-5
3500,59,49,1004,-14,10,-1
3501,-13,53,996,-16,15,-2
3502,-88,25,1001,-18,10,-2
3503,-75,13,978,-17,-3,-6
3504,-4,11,1008,-15,-12,-7
3505,78,33,994,-14,-12,-3
3506,98,40,1006,-14,0,-4
3507,53,46,1001,-15,12,-2
3508,-49,46,999,-17,17,1
3509,-87,25,984,-18,7,-6
3510,-61,12,999,-18,-7,-5
3511,8,17,990,-15,-14,-4
3512,93,32,1010,-13,-12,-5
3513,104,47,995,-12,1,-3
3514,24,48,993,-12,15,1
3515,-57,34,1002,-18,14,0
3516,-93,19,996,-14,3,-4
3517,-52,13,992,-15,-9,-6
3518,43,13,996,-15,-16,-6
3519,97,37,999,-11,-7,-3
3520,91,53,999,-11,4,-2
3521,1,44,1002,-14,16,0
3522,-72,38,1003,-15,14,-2
3523,-93,12,992,-19,0,-4
3524,-34,15,987,-16,-13,-5
3525,63,16,999,-13,-16,-7
3526,99,40,999,-11,-6,-3
3527,71,50,1002,-12,7,-1
3528,-3,48,1001,-11,16,-1
3529,-94,27,1002,-16,11,-1
3530,-76,18,987,-13,-2,-5
3531,-16,16,993,-16,-12,-6
3532,71,35,994,-13,-13,-4
3533,104,36,1013,-14,-2,-5
3534,59,47,998,-13,12,-1
3535,-28,44,997,-14,17,-1
3536,-86,22,997,-14,10,-4
3537,-75,14,989,-14,-5,-4
3538,-1,21,988,-13,-15,-5
3539,85,34,1007,-15,-13,-4
3540,105,50,1001,-12,-2,-3
3541,40,40,997,-17,12,-1
3542,-41,44,1001,-15,17,-2
3543,-94,14,992,-17,7,-3
3544,-59,18,985,-15,-6,-4
3545,12,18,1008,-14,-14,-5
3546,98,38,997,-12,-11,-4
3547,90,43,1004,-13,3,-1
3548,29,52,992,-16,14,-1
3549,-64,35,1007,-20,16,-1
3550,-92,14,986,-17,4,-5
3551,-48,9,1003,-15,-8,-3
3552,40,20,982,-14,-14,-5
3553,104,34,1013,-13,-7,-5
3554,91,55,991,-14,6,-2
3555,0,51,998,-15,16,0
3556,-77,40,1006,-16,15,-3
3557,-98,14,998,-19,2,-3
3558,-21,13,977,-18,-12,-5
3559,56,9,1004,-15,-14,-5
3560,105,37,1002,-13,-5,-3
3561,82,45,1000,-12,8,-2
3562,-22,58,997,-13,19,0
3563,-86,26,1005,-18,10,-3
3564,-83,14,987,-14,-2,-5
3565,-20,13,984,-17,-13,-5
3566,83,25,1002,-15,-15,-6
3567,103,39,1005,-13,-2,-3
3568,58,48,1004,-14,12,-1
3569,-33,39,995,-15,18,-2
3570,-95,21,991,-16,10,-3
3571,-70,13,990,-16,-5,-4
3572,0,17,990,-14,-13,-5
3573,90,36,1003,-13,-12,-4
3574,101,47,1010,-13,1,-2
3575,37,46,990,-13,12,-2
3576,-50,37,998,-14,16,-1
3577,-100,19,990,-16,7,-4
3578,-59,10,991,-16,-8,-5
3579,22,15,1005,-13,-16,-5
3580,102,39,1000,-12,-11,-4
3581,96,47,997,-12,4,-2
3582,23,55,999,-13,15,0
3583,-65,33,1001,-18,15,0
3584,-104,29,984,-17,3,-4
3585,-46,7,1003,-18,-11,-6
3586,44,21,991,-12,-16,-6
3587,101,33,1000,-14,-7,-4
3588,97,54,1001,-12,6,-1
3589,-7,43,998,-14,17,1
3590,-82,34,1006,-17,13,-1
3591,-93,16,987,-18,-1,-5
3592,-25,13,989,-16,-12,-5
3593,65,21,994,-15,-16,-4
3594,105,40,1007,-12,-5,-3
3595,77,50,999,-12,10,-2
3596,-21,49,997,-15,19,0
3597,-93,23,1000,-17,11,-2
3598,-81,14,986,-15,-3,-6
3599,-8,11,985,-12,-13,-6
3600,80,30,1009,-12,-14,-5
3601,108,40,997,-11,-1,-4
3602,55,48,1012,-13,12,0
3603,-38,51,991,-13,18,-1
3604,-99,17,994,-15,9,-5
3605,-69,9,987,-15,-7,-5
3606,0,15,995,-13,-15,-6
3607,98,38,1005,-12,-12,-5
3608,106,40,999,-13,2,-3
3609,35,45,993,-11,15,-1
3610,-49,40,1006,-12,17,-1
3611,-105,21,984,-14,7,-3
3612,-59,12,990,-13,-8,-5
3613,17,22,1000,-11,-16,-6
3614,104,37,1006,-13,-10,-4
3615,100,45,991,-11,3,-3
3616,18,48,1000,-14,15,-3
3617,-60,33,1003,-16,15,-3
3618,-97,15,991,-16,5,-5
3619,-53,7,990,-13,-10,-6
3620,42,24,1000,-12,-18,-4
3621,91,43,995,-13,-9,-5
3622,93,54,1002,-14,4,-6
3623,7,36,997,-16,15,-5
3624,-69,40,1005,-15,14,-3
3625,-90,7,997,-15,2,-6
3626,-25,13,980,-14,-10,-5
3627,44,20,998,-13,-12,-4
3628,95,54,1003,-12,-6,-6
3629,72,47,1004,-15,7,-5
3630,-5,46,989,-14,15,-4
3631,-82,28,1010,-18,10,-3
3632,-68,13,984,-16,-1,-6
3633,-21,6,986,-16,-11,-6
3634,69,31,998,-11,-12,-4
3635,91,46,1014,-14,-3,-5
3636,60,48,995,-16,11,-4
3637,-26,36,995,-17,16,-2
3638,-84,31,997,-17,8,-4
3639,-67,15,996,-15,-4,-7
3640,3,18,980,-15,-12,-6
3641,77,33,1016,-13,-11,-6
3642,98,41,997,-15,1,-5
3643,39,38,997,-15,13,-4
3644,-47,43,995,-15,16,-2
3645,-92,23,1000,-16,6,-5
3646,-52,11,986,-13,-7,-6
3647,18,21,1003,-13,-11,-5
3648,93,37,996,-15,-10,-5
3649,88,44,999,-12,3,-6
3650,21,37,994,-14,13,-5
3651,-62,37,1002,-15,14,-5
3652,-89,20,995,-14,2,-8
3653,-38,8,999,-15,-8,-6
3654,32,23,985,-12,-12,-4
3655,89,46,1006,-11,-7,-8
3656,84,42,999,-17,4,-9
3657,1,36,994,-15,14,-6
3658,-63,33,1013,-12,12,-5
3659,-82,20,994,-15,1,-6
3660,-29,17,973,-11,-8,-7
3661,49,30,1004,-12,-14,-7
3662,86,43,1002,-14,-6,-10
3663,72,45,997,-15,6,-13
3664,-1,37,1004,-17,15,-9
3665,-70,25,997,-14,11,-8
3666,-64,21,990,-9,0,-8
3667,-28,10,985,-14,-9,-7
3668,54,35,1003,-11,-12,-10
3669,88,39,1001,-15,-5,-13
3670,55,38,1002,-16,8,-15
3671,-11,39,993,-12,13,-13
3672,-58,29,1009,-15,9,-11
3673,-68,17,980,-13,-1,-9
3674,-15,27,995,-12,-10,-10
3675,62,38,1003,-16,-12,-12
3676,82,39,996,-17,-1,-15
3677,41,39,992,-14,9,-15
3678,-18,34,1014,-15,12,-14
3679,-71,24,986,-15,8,-11
3680,-48,14,998,-14,-3,-10
3681,1,25,992,-14,-9,-8
3682,68,41,1000,-14,-7,-11
3683,77,46,987,-16,0,-15
3684,19,33,1004,-18,10,-13
3685,-35,41,1001,-15,10,-10
3686,-73,26,1005,-18,4,-8
3687,-39,13,981,-16,-5,-7
3688,22,21,1001,-13,-11,-6
3689,70,42,989,-14,-8,-9
3690,78,44,1005,-17,2,-12
3691,6,38,992,-16,12,-9
3692,-54,36,1015,-15,12,-5
3693,-67,23,989,-16,2,-5
3694,-29,16,984,-16,-8,-5
3695,50,28,993,-15,-12,-6
3696,83,38,1004,-15,-4,-7
3697,55,46,999,-15,8,-7
3698,-10,36,999,-14,13,-4
3699,-74,27,997,-15,11,-3
3700,-63,19,991,-15,-1,-5
3701,-8,19,986,-14,-12,-6
3702,79,29,1003,-14,-12,-7
3703,87,38,1006,-13,0,-3
3704,48,45,996,-14,12,-3
3705,-33,36,1001,-13,16,-5
3706,-89,22,991,-15,8,-5
3707,-60,18,993,-15,-6,-5
3708,12,14,996,-14,-14,-6
3709,85,40,1008,-13,-10,-6
3710,92,45,994,-15,3,-5
3711,33,36,1000,-9,15,-6
3712,-49,30,999,-20,15,-2
3713,-92,29,997,-15,6,-5
3714,-52,17,992,-11,-8,-6
3715,27,20,999,-15,-13,-5
3716,88,41,995,-9,-9,-8
3717,86,43,997,-15,3,-9
3718,17,38,1000,-14,14,-6
3719,-60,34,1005,-14,15,-3
3720,-90,26,997,-15,4,-5
3721,-32,15,988,-14,-9,-7
3722,35,23,992,-12,-13,-6
3723,94,43,1010,-13,-8,-9
3724,77,36,991,-15,5,-11
3725,5,46,1002,-13,15,-7
3726,-69,33,1012,-14,12,-5
3727,-75,24,985,-13,3,-6
3728,-25,16,982,-12,-10,-6
3729,50,29,1003,-13,-12,-5
3730,83,40,1006,-14,-4,-9
3731,67,37,994,-17,7,-10
3732,-14,38,1003,-14,15,-7
3733,-72,25,995,-13,10,-6
3734,-65,22,992,-14,-2,-7
3735,-14,16,979,-14,-10,-7
3736,64,40,1011,-14,-12,-8
3737,91,47,997,-16,-3,-11
3738,51,30,1004,-17,9,-9
3739,-24,40,990,-14,13,-5
3740,-77,24,1008,-14,8,-7
3741,-58,12,982,-12,-3,-6
3742,-2,26,997,-13,-10,-6
3743,71,40,1005,-13,-11,-8
3744,88,42,996,-15,0,-12
3745,38,29,997,-15,12,-9
3746,-39,34,1002,-14,13,-7
3747,-81,28,998,-15,6,-6
3748,-48,20,995,-13,-6,-6
3749,11,28,988,-14,-11,-7
3750,83,41,1002,-14,-9,-11
3751,77,47,999,-18,4,-11
3752,18,33,993,-15,12,-7
3753,-52,36,1014,-14,11,-6
3754,-80,18,993,-14,4,-4
3755,-30,8,985,-11,-6,-7
3756,39,31,998,-12,-12,-6
3757,76,49,996,-12,-7,-7
3758,78,44,1003,-17,4,-10
3759,-8,38,996,-17,15,-4
3760,-67,31,1007,-14,10,-4
3761,-69,21,988,-14,0,-6
3762,-23,14,983,-15,-10,-4
3763,63,29,1005,-15,-13,-5
3764,84,44,1000,-16,-2,-7
3765,61,40,1005,-16,8,-7
3766,-18,39,992,-16,15,-5
3767,-82,28,998,-13,11,-4
3768,-61,18,996,-16,-3,-5
3769,-9,23,978,-16,-11,-6
3770,80,30,1013,-15,-12,-6
3771,91,37,1000,-17,-1,-5
3772,39,41,997,-14,12,-4
3773,-36,41,995,-15,14,-4
3774,-90,26,998,-17,7,-5
3775,-51,11,986,-14,-6,-6
3776,14,22,1003,-13,-12,-6
3777,90,34,999,-15,-10,-5
3778,90,43,997,-14,4,-4
3779,17,42,998,-14,13,-4
3780,-57,33,997,-15,14,-3
3781,-90,24,998,-12,4,-6
3782,-41,8,998,-15,-8,-5
3783,38,28,991,-12,-13,-5
3784,94,32,995,-13,-8,-5
3785,78,50,1008,-13,5,-5
3786,2,38,992,-15,14,-3
3787,-76,32,1004,-14,14,-4
3788,-88,22,995,-15,-1,-5
3789,-23,18,984,-13,-11,-6
3790,56,24,992,-12,-12,-6
3791,89,39,1004,-14,-5,-4
3792,71,46,1001,-13,8,-6
3793,-10,41,994,-13,15,-4
3794,-82,33,1006,-13,12,-4
3795,-76,15,984,-16,-1,-6
3796,-18,22,990,-14,-11,-6
3797,69,29,1005,-13,-14,-6
3798,96,43,998,-16,-2,-6
3799,55,37,1006,-15,9,-5
3800,-24,37,1000,-14,16,-2
3801,-91,22,986,-14,9,-3
3802,-65,13,992,-13,-5,-5
3803,0,27,994,-14,-13,-4
3804,77,45,1006,-13,-11,-5
3805,101,46,997,-16,-1,-7
3806,41,33,1000,-16,13,-3
3807,-37,38,998,-15,15,-3
3808,-92,19,993,-14,5,-5
3809,-51,16,990,-13,-5,-6
3810,20,20,1004,-13,-12,-5
3811,85,35,1000,-13,-9,-5
3812,91,48,997,-12,4,-7
3813,16,37,991,-16,15,-5
3814,-51,32,1005,-13,14,-6
3815,-85,23,999,-12,4,-8
3816,-38,13,986,-14,-7,-6
3817,35,25,1001,-12,-14,-8
3818,85,41,998,-11,-7,-8
3819,79,47,996,-14,4,-11
3820,3,34,1002,-15,14,-9
3821,-65,33,1007,-13,11,-7
3822,-77,20,991,-13,1,-8
3823,-25,13,986,-13,-9,-8
3824,37,31,993,-9,-13,-9
3825,88,40,1009,-14,-6,-12
3826,65,47,993,-17,5,-12
3827,1,33,1003,-16,13,-8
3828,-71,29,1002,-15,10,-5
3829,-70,24,989,-14,1,-6
3830,-21,18,982,-15,-9,-7
3831,57,40,1003,-14,-14,-7
3832,83,37,997,-17,-4,-9
3833,59,37,1010,-18,8,-10
3834,-16,35,993,-16,13,-5
3835,-71,35,998,-14,9,-6
3836,-64,17,988,-17,-3,-7
3837,-3,29,995,-13,-12,-5
3838,70,39,1001,-17,-11,-6
3839,85,45,997,-18,1,-7
3840,37,34,999,-16,11,-3
3841,-37,33,1000,-16,15,-2
3842,-87,27,988,-15,6,-5
3843,-50,11,998,-15,-6,-4
3844,29,26,997,-17,-13,-6
3845,86,28,996,-17,-8,-3
3846,91,49,995,-14,2,-2
3847,10,43,1005,-16,15,-1
3848,-64,40,992,-17,14,-2
3849,-90,10,997,-17,2,-3
3850,-30,12,993,-15,-10,-5
3851,51,16,999,-14,-14,-4
3852,99,36,995,-12,-5,-4
3853,79,47,1013,-12,8,-2
3854,-14,47,992,-14,17,0
3855,-93,30,1008,-15,11,-2
3856,-77,17,986,-17,-3,-6
3857,-24,8,990,-14,-12,-6
3858,72,27,1000,-13,-16,-6
3859,101,36,1000,-15,-5,-3
3860,67,54,1007,-12,10,-2
3861,-29,40,996,-15,17,0
3862,-92,23,991,-16,10,-3
3863,-75,19,986,-14,-5,-6
3864,-4,19,994,-14,-13,-5
3865,84,35,1000,-12,-13,-6
3866,104,40,1003,-12,2,-3
3867,43,44,1006,-15,13,-1
3868,-42,33,997,-13,18,-2
3869,-102,17,990,-14,9,-4
3870,-59,21,988,-14,-7,-4
3871,11,17,1000,-11,-14,-5
3872,97,50,1006,-13,-11,-4
3873,102,46,1000,-17,2,-4
3874,26,44,993,-16,16,-1
3875,-54,31,1000,-17,15,-2
3876,-101,19,989,-17,5,-3
3877,-51,11,997,-14,-9,-5
3878,34,21,998,-13,-14,-5
3879,101,37,995,-11,-8,-3
3880,91,51,1005,-13,4,-4
3881,15,51,992,-16,15,-2
3882,-75,35,1005,-17,15,-2
3883,-94,22,992,-17,2,-5
3884,-36,4,991,-15,-9,-6
3885,52,19,992,-15,-14,-5
3886,100,38,1006,-14,-7,-4
3887,84,52,999,-12,7,-3
3888,-10,49,996,-15,17,-1
3889,-79,33,1005,-15,13,-3
3890,-92,14,990,-18,0,-4
3891,-15,15,977,-17,-12,-5
3892,72,21,1011,-15,-14,-5
3893,99,43,1002,-16,-3,-3
3894,65,45,1001,-15,11,-2
3895,-28,48,1001,-16,16,-1
3896,-90,23,994,-18,10,-3
3897,-76,11,983,-14,-4,-6
3898,-1,10,993,-16,-13,-5
3899,83,33,1006,-14,-12,-4
3900,110,44,1002,-13,0,-4
3901,40,46,997,-15,15,0
3902,-45,42,1000,-14,16,0
3903,-101,15,989,-16,8,-4
3904,-65,14,987,-14,-6,-5
3905,23,24,1002,-14,-16,-7
3906,98,30,1006,-15,-10,-4
3907,100,42,993,-12,3,-3
3908,19,40,1005,-11,17,0
3909,-65,35,994,-14,16,-2
3910,-107,19,990,-16,4,-4
3911,-45,13,996,-13,-10,-5
3912,44,26,999,-13,-17,-5
3913,106,42,995,-13,-9,-5
3914,95,52,1000,-14,5,-2
3915,-6,40,1000,-17,17,-1
3916,-78,30,1003,-15,14,-4
3917,-91,9,988,-16,1,-5
3918,-34,16,990,-15,-11,-4
3919,67,25,1001,-10,-15,-6
3920,106,46,1001,-11,-6,-3
3921,76,57,998,-14,10,1
3922,-19,45,1004,-14,17,-2
3923,-88,26,999,-18,12,-3
3924,-84,11,983,-16,-2,-4
3925,-12,7,989,-13,-14,-7
3926,79,37,1006,-12,-14,-5
3927,103,44,1003,-13,-2,-4
3928,60,45,1000,-14,12,-4
3929,-36,43,996,-14,17,0
3930,-96,17,993,-15,9,-2
3931,-67,9,985,-16,-5,-5
3932,2,15,996,-13,-14,-4
3933,91,45,1002,-13,-12,-5
3934,105,41,1004,-14,0,-4
3935,39,47,996,-13,15,-1
3936,-52,36,1002,-15,18,-1
3937,-101,19,982,-16,6,-5
3938,-55,11,994,-17,-9,-5
3939,20,19,997,-14,-15,-5
3940,102,42,1009,-12,-11,-4
3941,104,47,990,-13,4,-3
3942,14,54,1004,-14,17,0
3943,-66,29,992,-17,15,-2
3944,-103,22,996,-14,5,-5
3945,-44,11,990,-16,-11,-5
3946,45,20,995,-12,-16,-5
3947,111,31,1002,-14,-9,-4
3948,96,52,1003,-12,7,-1
3949,0,48,997,-15,17,0
3950,-85,36,1008,-15,15,-1
3951,-108,22,983,-17,1,-3
3952,-29,14,986,-16,-14,-5
3953,58,27,994,-15,-17,-5
3954,118,36,1010,-15,-7,-6
3955,90,46,999,-15,9,-2
3956,-20,44,1002,-14,19,2
3957,-93,24,996,-16,13,-4
3958,-93,15,987,-14,-1,-4
3959,-28,11,982,-15,-15,-5
3960,81,37,1003,-11,-17,-5
3961,119,40,1008,-14,-5,-5
3962,74,48,1003,-15,12,-1
3963,-31,38,996,-15,19,0
3964,-104,18,995,-14,11,-3
3965,-89,11,981,-14,-5,-3
3966,-8,21,995,-15,-17,-5
3967,95,36,1008,-12,-16,-5
3968,124,44,1001,-13,-3,-4
3969,50,46,994,-14,14,0
3970,-50,38,1008,-14,18,0
3971,-111,21,978,-17,7,-5
3972,-72,7,997,-15,-6,-5
3973,17,20,994,-13,-18,-6
3974,108,36,1005,-14,-13,-5
3975,118,46,997,-12,3,-2
3976,23,50,1000,-13,17,2
3977,-69,30,1000,-17,16,-2
3978,-114,17,996,-16,7,-3
3979,-54,10,987,-14,-10,-6
3980,40,22,1002,-13,-17,-7
3981,111,44,1001,-10,-10,-3
3982,105,51,1004,-14,5,-2
3983,1,53,998,-13,19,0
3984,-90,26,1008,-17,16,-1
3985,-105,12,981,-16,1,-5
3986,-36,3,984,-16,-13,-5
3987,61,26,1002,-11,-17,-5
3988,119,41,1010,-12,-6,-5
3989,85,50,995,-13,10,-1
3990,-25,58,1006,-14,20,3
3991,-94,22,995,-17,12,-2
3992,-93,14,983,-13,-2,-4
3993,-11,4,984,-15,-15,-5
3994,85,37,1010,-14,-13,-5
3995,117,40,1001,-14,-1,-4
3996,55,48,1005,-12,15,-1
3997,-39,44,994,-14,17,0
3998,-95,14,995,-16,9,-3
3999,-75,13,984,-14,-5,-4
4000,5,15,999,-15,-16,-5
4001,93,44,1012,-13,-13,-5
4002,114,47,992,-13,1,-4
4003,31,50,993,-14,15,0
4004,-49,29,1007,-16,15,0
4005,-111,19,988,-16,7,-2
4006,-58,6,987,-14,-10,-5
4007,34,12,1006,-11,-16,-6
4008,105,49,999,-13,-10,-2
4009,101,43,996,-12,5,-4
4010,8,61,1004,-11,17,0
4011,-73,33,998,-19,12,-1
4012,-101,20,990,-16,4,-5
4013,-43,5,997,-17,-11,-5
4014,60,15,988,-14,-16,-5
4015,109,33,1007,-11,-6,-4
4016,85,53,997,-12,7,0
4017,-6,56,999,-14,17,0
4018,-91,33,1001,-15,15,-1
4019,-95,23,987,-18,-1,-4
4020,-19,6,985,-18,-13,-7
4021,71,25,1005,-14,-16,-4
4022,105,31,1002,-15,-4,-3
4023,69,49,1007,-12,12,-1
4024,-22,46,999,-15,17,0
4025,-99,25,992,-16,10,-3
4026,-78,11,988,-14,-5,-6
4027,-2,14,987,-15,-14,-6
4028,82,39,1009,-14,-13,-4
4029,109,38,1002,-13,0,-3
4030,47,47,1003,-13,13,-2
4031,-44,37,995,-14,16,1
4032,-102,19,989,-13,8,-3
4033,-62,9,993,-15,-7,-5
4034,18,19,992,-12,-16,-5
4035,103,42,1013,-14,-12,-6
4036,105,43,995,-14,2,-3
4037,22,47,999,-12,17,0
4038,-65,39,1002,-18,15,-2
4039,-105,8,987,-17,3,-4
4040,-55,6,999,-12,-9,-5
4041,46,13,996,-12,-16,-6
4042,107,38,996,-8,-8,-4
4043,97,62,1000,-10,5,-3
4044,4,51,1002,-14,16,0
4045,-83,37,1001,-16,15,-2
4046,-97,13,987,-17,2,-6
4047,-40,11,993,-14,-11,-6
4048,62,18,996,-14,-17,-6
4049,107,45,1001,-10,-6,-4
4050,82,51,1003,-16,7,-2
4051,-12,48,997,-13,17,0
4052,-85,30,1007,-15,13,-2
4053,-87,15,984,-22,-2,-5
4054,-22,15,987,-16,-14,-6
4055,71,27,1004,-14,-14,-5
4056,102,42,1002,-12,-3,-4
4057,65,48,1005,-16,11,-1
4058,-30,44,995,-15,17,-1
4059,-90,22,990,-16,10,-3
4060,-72,11,989,-18,-5,-4
4061,-7,21,991,-14,-14,-5
4062,90,33,1003,-12,-13,-5
4063,104,48,1003,-15,1,-3
4064,42,45,1003,-13,14,0
4065,-45,37,992,-15,17,-2
4066,-104,14,992,-16,7,-3
4067,-61,8,990,-14,-8,-4
4068,21,19,998,-14,-15,-5
4069,104,31,999,-11,-11,-5
4070,97,52,1005,-11,4,-3
4071,28,52,994,-14,15,-1
4072,-67,42,1000,-15,16,-2
4073,-108,16,989,-18,4,-3
4074,-50,7,999,-15,-9,-4
4075,49,16,994,-14,-16,-5
4076,106,43,997,-13,-8,-4
4077,94,52,1006,-13,7,-2
4078,-4,47,995,-13,17,-1
4079,-79,39,1007,-16,14,-3
4080,-97,9,993,-19,1,-4
4081,-32,15,979,-13,-11,-6
4082,62,17,1006,-15,-17,-6
4083,107,44,998,-13,-5,-3
4084,76,52,1002,-15,10,-1
4085,-16,46,996,-14,17,0
4086,-91,23,1009,-15,11,-4
4087,-82,17,980,-15,-2,-5
4088,-19,9,991,-14,-13,-5
4089,78,32,1001,-14,-15,-5
4090,106,36,1011,-13,-3,-2
4091,60,54,996,-9,12,-1
4092,-37,35,1001,-15,17,-1
4093,-94,23,989,-14,8,-3
4094,-73,5,995,-16,-5,-4
4095,-2,20,984,-14,-14,-6
4096,95,33,1010,-13,-14,-6
4097,103,48,1004,-12,0,-3
4098,41,45,996,-11,14,0
4099,-48,38,994,-13,16,-3
4100,-106,18,999,-16,7,-3
4101,-57,10,982,-13,-9,-4
4102,20,19,1003,-13,-16,-6
4103,101,43,1006,-13,-10,-5
4104,100,49,992,-12,3,-3
4105,16,48,998,-13,15,-1
4106,-67,34,999,-16,15,-1
4107,-97,18,995,-16,4,-5
4108,-48,10,995,-15,-9,-5
4109,49,13,993,-13,-16,-5
4110,104,42,1000,-9,-7,-4
4111,93,51,1004,-12,6,-1
4112,-3,48,994,-12,18,-1
4113,-80,34,1011,-16,15,-2
4114,-90,12,984,-16,-1,-5
4115,-30,13,990,-13,-10,-6
4116,61,29,995,-12,-16,-6
4117,99,42,1010,-12,-5,-6
4118,76,50,998,-15,9,-4
4119,-17,37,997,-14,18,-2
4120,-83,23,1002,-15,12,-2
4121,-84,12,987,-14,-2,-4
4122,-13,14,981,-13,-13,-6
4123,72,36,1008,-12,-14,-5
4124,101,52,1003,-12,-3,-4
4125,58,46,1000,-14,12,-2
4126,-25,45,995,-17,17,-2
4127,-93,19,998,-17,9,-3
4128,-68,7,984,-17,-4,-6
4129,1,14,994,-14,-12,-6
4130,86,36,1005,-11,-11,-4
4131,96,53,997,-11,1,-5
4132,43,45,998,-13,13,-3
4133,-52,39,997,-15,16,1
4134,-94,25,994,-18,6,-4
4135,-46,4,993,-13,-7,-6
4136,18,23,996,-15,-12,-4
4137,98,32,998,-12,-9,-6
4138,93,47,1004,-11,5,-3
4139,11,49,990,-15,15,0
4140,-58,32,1003,-17,13,-3
4141,-99,27,997,-16,4,-4
4142,-33,16,991,-17,-10,-5
4143,45,9,997,-14,-15,-7
4144,94,43,999,-12,-7,-3
4145,80,36,997,-14,7,-3
4146,-5,49,1003,-13,17,-1
4147,-81,26,1003,-15,12,-1
4148,-80,23,990,-15,0,-6
4149,-19,16,984,-15,-11,-5
4150,63,33,1005,-13,-14,-4
4151,98,38,1003,-15,-5,-5
4152,60,44,1001,-14,10,0
4153,-25,41,998,-16,16,-1
4154,-86,24,999,-16,11,-2
4155,-74,14,983,-14,-3,-5
4156,-4,17,993,-13,-12,-5
4157,80,41,1002,-14,-12,-5
4158,97,41,1003,-12,0,-3
4159,49,45,1005,-14,12,-1
4160,-42,36,991,-14,17,-1
4161,-95,25,994,-15,7,-4
4162,-58,12,989,-15,-6,-4
4163,11,21,999,-13,-14,-4
4164,93,38,1003,-15,-12,-4
4165,98,47,999,-13,0,-3
4166,34,40,999,-13,13,-2
4167,-58,43,1001,-15,16,-1
4168,-97,18,987,-17,6,-5
4169,-51,8,996,-15,-8,-6
4170,30,20,1000,-13,-15,-4
4171,100,41,992,-12,-8,-5
4172,91,51,999,-14,5,-2
4173,8,47,1003,-14,16,-1
4174,-75,32,995,-16,16,-1
4175,-94,18,995,-18,2,-4
4176,-36,6,993,-17,-11,-5
4177,55,22,993,-11,-15,-5
4178,102,39,1005,-12,-6,-3
4179,75,55,1001,-11,8,-1
4180,-7,48,1001,-15,15,-2
4181,-86,28,1003,-18,13,-3
4182,-88,21,981,-16,0,-4
4183,-14,5,990,-16,-13,-7
4184,68,33,1004,-12,-14,-5
4185,93,40,996,-15,-3,-3
4186,70,47,1009,-12,10,-3
4187,-28,47,998,-15,18,2
4188,-93,25,981,-16,11,-2
4189,-65,10,1004,-14,-5,-7
4190,-12,11,983,-15,-12,-4
4191,77,40,997,-14,-12,-4
4192,108,41,1014,-13,-1,-5
4193,37,47,991,-14,14,1
4194,-37,38,996,-14,14,-1
4195,-94,21,994,-16,8,-4
4196,-67,15,984,-15,-6,-3
4197,20,17,999,-14,-14,-7
4198,90,38,1006,-12,-10,-4
4199,102,50,997,-12,3,-2
4200,20,50,993,-15,15,0
4201,-58,33,1005,-16,13,-2
4202,-98,20,994,-18,4,-4
4203,-44,8,991,-17,-10,-4
4204,44,12,998,-13,-15,-5
4205,97,43,994,-11,-7,-2
4206,91,47,1002,-12,6,-2
4207,6,59,1000,-13,17,-2
4208,-80,32,1002,-18,15,-2
4209,-90,23,992,-16,1,-6
4210,-29,4,991,-18,-10,-5
4211,56,17,986,-13,-13,-5
4212,98,33,1012,-9,-6,-5
4213,80,51,998,-10,9,-2
4214,-22,52,1002,-11,18,-1
4215,-83,29,995,-15,11,-3
4216,-87,15,993,-15,-2,-4
4217,-17,14,982,-15,-12,-5
4218,67,25,1001,-12,-14,-4
4219,109,38,1011,-13,-3,-4
4220,50,49,998,-13,12,-1
4221,-25,44,994,-14,16,0
4222,-86,20,1002,-15,10,-3
4223,-78,16,980,-15,-4,-4
4224,4,16,995,-14,-15,-7
4225,85,36,1006,-12,-10,-4
4226,95,49,1004,-12,1,-2
4227,43,45,993,-15,12,-2
4228,-42,35,1003,-13,16,-2
4229,-99,27,986,-16,6,-3
4230,-57,10,993,-16,-8,-5
4231,20,19,996,-13,-15,-6
4232,88,36,1003,-15,-9,-4
4233,99,47,1001,-12,3,-4
4234,26,45,995,-14,15,-1
4235,-65,37,996,-18,16,-1
4236,-92,24,1004,-18,4,-5
4237,-45,12,989,-17,-9,-6
4238,41,12,995,-14,-14,-4
4239,100,36,997,-12,-6,-4
4240,86,51,1006,-12,7,-3
4241,-1,53,992,-12,17,-1
4242,-73,34,1007,-17,12,-2
4243,-92,13,996,-17,1,-3
4244,-23,13,976,-16,-11,-7
4245,59,14,1006,-16,-15,-6
4246,98,42,996,-11,-5,-3
4247,72,48,1007,-13,9,-2
4248,-14,44,997,-15,15,0
4249,-94,26,999,-17,11,-2
4250,-73,14,984,-17,-3,-5
4251,-12,14,994,-15,-12,-5
4252,73,33,996,-14,-14,-4
4253,107,43,1009,-14,-3,-3
4254,53,46,1006,-14,11,0
4255,-37,43,989,-16,17,-1
4256,-89,19,994,-15,8,-3
4257,-66,9,992,-14,-4,-4
4258,4,19,988,-14,-13,-7
4259,93,43,1014,-9,-12,-4
4260,103,45,999,-13,2,-2
4261,23,46,995,-12,14,0
4262,-46,36,1000,-15,15,-2
4263,-101,12,995,-17,7,-4
4264,-60,11,981,-13,-7,-5
4265,36,17,1013,-11,-14,-7
4266,96,40,987,-13,-9,-4
4267,97,50,1005,-10,5,-2
4268,12,49,998,-13,15,0
4269,-76,36,998,-14,16,0
4270,-97,16,991,-16,2,-4
4271,-40,15,999,-14,-11,-4
4272,48,15,989,-12,-16,-5
4273,109,45,1002,-11,-8,-5
4274,86,49,1005,-13,7,-1
4275,-9,47,993,-14,17,1
4276,-86,30,1005,-15,14,-2
4277,-89,14,983,-16,1,-5
4278,-24,15,988,-13,-11,-5
4279,69,26,1000,-14,-15,-6
4280,97,44,1000,-12,-4,-3
4281,75,52,1009,-12,9,-2
4282,-29,43,997,-16,18,1
4283,-88,23,990,-16,10,-2
4284,-71,3,991,-16,-5,-5
4285,-12,18,986,-14,-12,-5
4286,81,37,1002,-13,-14,-5
4287,106,47,1007,-14,-1,-2
4288,42,53,1001,-13,12,0
4289,-37,44,996,-17,16,-1
4290,-98,16,994,-18,8,-4
4291,-67,7,987,-14,-7,-4
4292,16,7,995,-15,-16,-6
4293,90,35,1013,-11,-11,-4
4294,105,52,994,-11,2,-2
4295,32,51,1002,-12,16,-1
4296,-59,45,992,-16,16,-2
4297,-101,23,999,-16,6,-4
4298,-48,6,989,-17,-9,-5
4299,28,17,1001,-15,-14,-5
4300,106,31,995,-11,-10,-6
4301,92,53,1003,-11,5,-2
4302,6,43,991,-16,16,0
4303,-74,40,1012,-16,15,0
4304,-100,15,986,-19,2,-5
4305,-35,15,995,-15,-10,-4
4306,55,22,992,-16,-16,-5
4307,103,39,1006,-13,-6,-3
4308,81,50,999,-13,8,-1
4309,-12,50,996,-16,16,0
4310,-88,26,1009,-17,12,-2
4311,-83,18,985,-18,-2,-4
4312,-19,0,979,-16,-13,-5
4313,78,32,1010,-12,-15,-5
4314,100,36,1000,-14,-2,-2
4315,64,56,1005,-10,12,-1
4316,-33,38,996,-16,18,-1
4317,-97,29,991,-14,11,-2
4318,-74,8,994,-16,-6,-6
4319,-2,21,981,-16,-14,-5
4320,88,30,1014,-13,-13,-5
4321,108,36,1001,-14,-1,-3
4322,37,44,995,-13,15,-1
4323,-38,36,999,-14,19,-1
4324,-106,25,993,-17,8,-3
4325,-62,13,977,-14,-8,-5
4326,22,21,1013,-14,-15,-5
4327,98,44,1002,-13,-10,-3
4328,99,37,999,-12,4,-4
4329,23,47,1002,-15,16,0
4330,-69,29,1002,-14,16,-1
4331,-98,19,987,-15,3,-5
4332,-51,9,996,-14,-10,-4
4333,43,25,993,-11,-16,-6
4334,112,32,1002,-12,-8,-5
4335,90,60,999,-11,7,-1
4336,0,40,997,-14,15,-1
4337,-79,33,1007,-14,14,-3
4338,-99,11,989,-18,1,-4
4339,-29,16,989,-11,-12,-6
4340,68,18,999,-13,-16,-6
4341,100,44,1001,-10,-5,-2
4342,80,58,1001,-11,9,-2
4343,-20,43,1002,-14,19,-1
4344,-91,28,996,-15,13,-4
4345,-83,10,991,-15,-3,-5
4346,-13,8,981,-14,-14,-6
4347,78,26,1010,-11,-14,-5
4348,101,38,1002,-12,-2,-2
4349,56,55,1003,-12,13,-3
4350,-30,39,999,-16,17,-1
4351,-99,33,991,-14,11,-2
4352,-73,14,981,-16,-6,-6
4353,4,17,1003,-14,-15,-4
4354,86,40,994,-12,-13,-3
4355,102,37,1004,-14,-1,-3
4356,47,48,998,-13,13,0
4357,-53,37,995,-18,17,1
4358,-94,24,993,-17,6,-4
4359,-62,7,991,-16,-7,-4
4360,16,20,998,-13,-15,-5
4361,101,37,1007,-12,-13,-4
4362,101,50,993,-12,3,-2
4363,22,53,1001,-16,16,1
4364,-63,32,995,-19,15,-1
4365,-100,23,1000,-15,4,-6
4366,-42,10,992,-16,-9,-5
4367,40,15,985,-14,-14,-4
4368,105,42,1012,-13,-9,-3
4369,90,52,997,-14,5,-1
4370,-9,48,996,-17,18,1
4371,-78,29,1013,-17,13,-2
4372,-93,14,990,-18,0,-4
4373,-23,4,980,-16,-12,-6
4374,66,19,1005,-12,-14,-4
4375,104,46,1007,-12,-4,-2
4376,75,53,997,-11,10,-1
4377,-25,48,996,-15,18,0
4378,-89,29,1008,-18,11,-4
4379,-84,5,978,-15,-3,-5
4380,-13,18,990,-15,-13,-7
4381,82,25,1005,-15,-15,-5
4382,107,45,1000,-11,-1,-4
4383,53,45,1007,-13,13,-1
4384,-42,47,996,-14,17,0
4385,-100,18,989,-16,9,-4
4386,-69,12,989,-14,-6,-5
4387,2,19,996,-11,-14,-5
4388,98,36,1004,-9,-15,-6
4389,106,47,1004,-10,0,-4
4390,32,51,991,-14,16,-1
4391,-51,40,1007,-16,15,-1
4392,-102,18,990,-16,5,-3
4393,-60,9,987,-17,-9,-6
4394,32,19,1007,-13,-17,-6
4395,100,30,996,-13,-10,-3
4396,98,57,998,-11,6,-2
4397,13,44,997,-15,16,-2
4398,-74,38,999,-18,15,-2
4399,-101,16,995,-16,2,-5
4400,-37,8,992,-16,-11,-6
4401,54,18,990,-13,-16,-5
4402,108,39,1007,-11,-6,-4
4403,84,51,997,-13,9,-1
4404,-13,54,1000,-12,18,1
4405,-84,29,1004,-17,13,-3
4406,-86,16,994,-17,0,-5
4407,-20,2,976,-14,-12,-6
4408,66,23,1008,-12,-14,-4
4409,104,42,1002,-10,-5,-5
4410,61,48,1003,-11,11,-1
4411,-25,52,996,-13,17,-2
4412,-92,25,1001,-17,10,-2
4413,-76,13,979,-16,-4,-5
4414,-8,13,991,-17,-14,-5
4415,88,31,1003,-12,-13,-6
4416,96,34,1005,-10,-1,-3
4417,53,50,1003,-12,11,-1
4418,-38,38,999,-14,17,-1
4419,-100,29,985,-14,9,-3
4420,-63,13,996,-15,-7,-6
4421,6,23,990,-13,-14,-5
4422,92,31,1006,-14,-12,-4
4423,104,42,1000,-11,3,-3
4424,25,45,996,-15,14,1
4425,-47,40,999,-15,15,-2
4426,-103,19,993,-17,6,-3
4427,-51,19,991,-16,-8,-5
4428,28,13,1001,-14,-15,-5
4429,96,37,996,-13,-9,-4
4430,92,50,1005,-13,6,-1
4431,8,50,992,-16,16,0
4432,-73,35,1010,-18,14,-1
4433,-89,26,991,-17,2,-3
4434,-34,8,989,-20,-10,-4
4435,58,19,994,-14,-14,-6
4436,102,35,1008,-14,-6,-2
4437,78,50,994,-14,7,-1
4438,-14,51,1005,-15,16,1
4439,-84,34,1001,-18,10,-2
4440,-84,16,991,-18,-2,-5
4441,-11,10,984,-17,-13,-5
4442,69,19,1006,-14,-14,-4
4443,101,42,998,-14,-2,-3
4444,66,45,1013,-12,11,-1
4445,-34,50,986,-15,18,1
4446,-88,27,994,-16,10,-3
4447,-72,10,994,-17,-5,-4
4448,-6,17,982,-15,-13,-5
4449,96,33,1009,-15,-13,-6
4450,102,40,1004,-15,2,-2
4451,39,52,996,-13,13,0
4452,-45,33,996,-16,16,-1
4453,-105,28,993,-16,7,-3
4454,-57,8,989,-17,-9,-6
4455,27,25,998,-14,-15,-6
4456,99,36,1003,-13,-10,-3
4457,98,46,999,-13,4,-2
4458,20,42,997,-13,16,0
4459,-72,37,997,-16,16,-1
4460,-104,15,994,-17,4,-4
4461,-42,11,997,-13,-10,-6
4462,47,21,993,-14,-15,-4
4463,106,37,1000,-11,-8,-5
4464,95,53,1002,-13,5,-1
4465,-6,49,997,-14,17,1
4466,-88,36,1003,-16,14,-1
4467,-93,14,994,-18,-1,-4
4468,-31,13,990,-13,-13,-6
4469,64,19,991,-13,-16,-5
4470,113,36,1014,-12,-5,-4
4471,75,50,993,-11,9,0
4472,-33,47,1002,-13,18,1
4473,-80,25,1001,-14,10,-5
4474,-90,18,986,-15,-1,-3
4475,-8,12,981,-16,-14,-7
4476,83,26,1017,-14,-14,-5
4477,103,46,995,-12,-2,-3
4478,55,41,1005,-12,11,-2
4479,-36,46,999,-15,17,-1
4480,-95,21,992,-16,9,-2
4481,-70,13,982,-14,-4,-5
4482,1,19,1000,-15,-13,-4
4483,95,39,1003,-14,-12,-5
4484,106,39,1003,-13,3,-3
4485,33,47,991,-14,16,1
4486,-51,33,1004,-17,16,-2
4487,-104,22,987,-17,6,-4
4488,-61,10,989,-16,-9,-4
4489,30,21,1001,-13,-16,-6
4490,102,34,1003,-12,-10,-4
4491,103,51,992,-10,4,-2
4492,11,46,1002,-13,16,0
4493,-68,45,998,-16,15,-2
4494,-105,17,993,-17,3,-5
4495,-45,12,996,-15,-10,-5
4496,52,12,998,-14,-16,-6
4497,104,37,998,-10,-7,-3
4498,84,43,1000,-12,5,-1
4499,-2,52,1001,-12,17,-1
4500,-88,31,1007,-15,14,-2
4501,-91,19,983,-16,0,-5
4502,-22,7,992,-14,-12,-6
4503,64,25,995,-12,-15,-4
4504,104,35,1005,-15,-4,-5
4505,77,57,1003,-12,10,-2
4506,-26,50,1000,-14,17,1
4507,-90,29,998,-17,10,-3
4508,-83,12,988,-17,-3,-4
4509,-11,4,987,-14,-13,-5
4510,78,30,1003,-11,-15,-5
4511,109,43,1008,-11,-3,-4
4512,51,46,1002,-12,12,-1
4513,-32,49,996,-14,16,-1
4514,-97,27,994,-16,9,-4
4515,-73,15,987,-16,-6,-5
4516,5,13,991,-15,-15,-5
4517,93,33,1012,-13,-13,-3
4518,104,42,1000,-13,1,-3
4519,49,42,993,-13,15,-3
4520,-55,41,1006,-15,18,0
4521,-100,28,983,-15,7,-4
4522,-55,6,996,-16,-7,-5
4523,26,26,1000,-13,-15,-5
4524,97,31,995,-14,-9,-5
4525,98,44,1001,-11,5,-4
4526,9,40,1000,-17,16,0
4527,-67,40,999,-14,15,0
4528,-95,15,996,-16,3,-4
4529,-38,15,992,-14,-10,-4
4530,48,20,989,-13,-16,-5
4531,104,38,1004,-12,-7,-3
4532,76,52,1005,-14,6,0
4533,-6,50,993,-14,16,-2
4534,-78,31,1009,-16,11,-3
4535,-93,11,985,-15,0,-3
4536,-15,6,982,-14,-12,-7
4537,68,23,1009,-12,-12,-4
4538,98,39,995,-11,-3,-3
4539,65,57,1009,-10,12,-3
4540,-18,45,992,-14,16,-2
4541,-96,36,998,-16,11,-3
4542,-74,11,982,-16,-5,-5
4543,-13,10,994,-14,-12,-6
4544,81,32,997,-13,-14,-4
4545,98,42,1008,-12,-3,-7
4546,63,41,1002,-12,11,-6
4547,-37,41,990,-13,18,-1
4548,-91,31,994,-15,10,-4
4549,-74,9,988,-15,-5,-5
4550,0,26,988,-15,-14,-4
4551,87,38,1016,-14,-14,-6
4552,102,48,994,-16,0,-4
4553,36,39,999,-15,12,-3
4554,-42,42,1002,-14,15,-2
4555,-98,20,993,-16,5,-4
4556,-51,12,990,-13,-6,-8
4557,25,12,1002,-13,-14,-6
4558,93,37,994,-13,-10,-5
4559,84,56,996,-11,3,-6
4560,15,39,1000,-17,13,-6
4561,-62,38,1004,-15,13,-4
4562,-90,22,992,-15,2,-6
4563,-35,10,992,-15,-10,-6
4564,43,27,997,-12,-13,-6
4565,91,34,1000,-17,-6,-5
4566,74,51,998,-14,6,-6
4567,0,44,1001,-14,13,-3
4568,-75,31,1008,-16,12,-2
4569,-80,13,984,-13,0,-4
4570,-19,9,989,-16,-10,-6
4571,58,27,999,-11,-13,-6
4572,90,42,1003,-13,-4,-6
4573,63,45,1005,-15,7,-7
4574,-14,48,994,-14,15,-3
4575,-79,25,1001,-16,10,-5
4576,-68,23,985,-13,-3,-6
4577,-16,14,990,-16,-11,-6
4578,71,35,1007,-12,-12,-6
4579,86,41,996,-14,-2,-6
4580,54,34,1006,-14,10,-7
4581,-33,39,989,-14,15,-5
4582,-86,25,1003,-13,8,-5
4583,-52,17,989,-13,-4,-6
4584,-2,22,990,-13,-11,-4
4585,79,40,1009,-13,-12,-7
4586,92,48,995,-14,1,-8
4587,28,34,991,-17,12,-5
4588,-43,36,1003,-16,12,-3
4589,-86,27,1002,-14,5,-5
4590,-45,10,983,-17,-7,-6
4591,29,17,1006,-13,-12,-5
4592,78,33,989,-12,-7,-4
4593,77,48,1001,-14,3,-5
4594,16,40,1000,-15,12,-4
4595,-65,43,1003,-16,13,1
4596,-78,18,997,-17,0,-4
4597,-28,10,983,-14,-10,-5
4598,47,21,992,-12,-14,-5
4599,94,32,1005,-15,-7,-5
4600,68,54,995,-13,6,-4
4601,-7,48,1003,-14,15,-1
4602,-76,31,999,-17,11,-3
4603,-79,19,997,-15,-1,-5
4604,-16,12,977,-16,-12,-6
4605,67,25,1008,-14,-12,-3
4606,97,35,1000,-14,-3,-4
4607,60,50,1008,-15,11,-1
4608,-20,49,993,-15,16,-2
4609,-92,28,996,-17,10,-1
4610,-72,7,990,-18,-6,-6
4611,-3,7,986,-14,-13,-6
4612,81,31,1011,-13,-12,-4
4613,104,37,997,-13,0,-6
4614,49,48,1000,-14,14,-2
4615,-45,44,997,-14,16,0
4616,-104,27,992,-16,8,-3
4617,-62,8,989,-17,-6,-7
4618,14,16,1000,-15,-14,-4
4619,90,29,1002,-12,-11,-5
4620,105,45,999,-11,3,-4
4621,22,46,996,-13,16,-1
4622,-56,47,1003,-15,16,-2
4623,-105,22,990,-15,5,-5
4624,-50,14,996,-13,-9,-6
4625,42,14,991,-14,-16,-5
4626,98,35,1000,-10,-8,-3
4627,87,45,1004,-14,5,-4
4628,10,47,996,-14,16,-4
4629,-78,32,1006,-13,15,-2
4630,-93,30,997,-17,1,-5
4631,-28,8,979,-16,-10,-7
4632,56,17,996,-11,-14,-4
4633,93,36,1010,-13,-6,-5
4634,77,50,996,-11,7,-6
4635,-8,42,998,-14,17,-4
4636,-84,29,1003,-15,11,-2
