sequence,AccelerometerX,AccelerometerY,AccelerometerZ,GyroscopeX,GyroscopeY,GyroscopeZ
0,69,12,1001,-14,19,-1
1,-85,-2,1000,-23,27,2
2,-171,-25,987,-18,13,-2
3,-146,-51,973,-24,-11,-5
4,10,-41,998,-6,-30,-14
5,141,-25,1024,-9,-20,-11
6,156,5,1001,-10,0,-8
7,33,3,1013,-15,27,1
8,-115,-5,991,-25,28,3
9,-184,-34,974,-24,6,-2
10,-101,-44,987,-23,-18,-9
11,42,-40,1012,-13,-27,-13
12,158,-21,1008,-11,-15,-10
13,136,0,1008,-12,8,-5
14,-6,7,998,-15,28,1
15,-138,-10,1000,-20,25,1
16,-179,-36,968,-21,3,-2
17,-72,-43,1000,-16,-21,-10
18,88,-39,1005,-13,-28,-13
19,154,-18,1011,-8,-10,-8
20,120,4,997,-10,14,-4
21,-51,3,1017,-18,31,3
22,-157,-20,977,-20,20,0
23,-161,-39,982,-18,-3,-6
24,-36,-46,995,-14,-25,-11
25,115,-23,1006,-9,-27,-12
26,163,-11,1006,-9,-4,-8
27,75,10,1017,-14,21,0
28,-76,-2,989,-20,28,2
29,-176,-28,994,-21,16,-1
30,-142,-55,967,-18,-13,-5
31,7,-35,1003,-9,-28,-13
32,139,-29,1011,-10,-24,-12
33,150,7,1010,-10,2,-7
34,42,0,1008,-17,23,1
35,-118,-1,991,-20,27,1
36,-176,-31,972,-21,8,-1
37,-113,-50,985,-19,-17,-8
38,38,-43,1007,-12,-31,-12
39,162,-20,1018,-7,-18,-11
40,138,2,1002,-12,8,-4
41,0,9,1009,-16,27,1
42,-140,-15,988,-20,25,1
43,-180,-30,975,-22,3,-2
44,-74,-53,995,-17,-23,-10
45,77,-35,1015,-10,-28,-14
46,171,-22,1004,-10,-12,-11
47,112,8,1005,-12,14,-4
48,-41,7,1000,-19,30,4
49,-154,-18,995,-21,20,0
50,-171,-43,976,-20,-4,-3
51,-38,-48,996,-15,-25,-11
52,115,-35,1009,-10,-28,-14
53,168,-8,1001,-8,-4,-7
54,82,13,1019,-14,21,-3
55,-76,2,996,-20,32,2
56,-174,-30,990,-21,17,1
57,-144,-50,969,-19,-9,-7
58,-5,-48,1001,-11,-28,-12
59,135,-22,1005,-7,-23,-13
60,158,0,1019,-10,1,-7
61,50,9,1005,-15,23,0
62,-113,-6,998,-21,28,2
63,-176,-25,972,-22,9,-3
64,-121,-49,985,-17,-15,-7
65,35,-40,1005,-13,-30,-13
66,159,-25,1013,-10,-18,-13
67,148,0,1014,-10,7,-6
68,4,12,1003,-15,28,3
69,-131,-13,989,-21,26,-1
70,-186,-34,980,-22,6,-1
71,-85,-48,987,-18,-19,-10
72,75,-39,1016,-11,-29,-14
73,163,-20,1012,-9,-13,-9
74,121,-2,994,-12,12,-6
75,-29,10,1014,-15,30,1
76,-151,-13,986,-21,22,1
77,-178,-39,977,-20,-1,-4
78,-44,-40,1001,-13,-25,-10
79,100,-32,1006,-12,-26,-13
80,165,-17,1001,-9,-7,-11
81,96,6,1011,-13,18,-2
82,-70,-5,1008,-18,30,2
83,-164,-17,979,-19,16,-1
84,-153,-41,982,-21,-7,-5
85,-9,-40,993,-13,-28,-13
86,122,-30,1003,-10,-24,-11
87,157,-2,1013,-11,0,-8
88,59,0,1012,-15,23,1
89,-100,0,995,-18,28,2
90,-171,-32,981,-23,12,-3
91,-131,-46,980,-16,-12,-7
92,25,-38,1000,-13,-28,-12
93,146,-20,1018,-9,-18,-11
94,144,8,1010,-12,5,-5
95,22,1,1004,-17,26,0
96,-134,-9,989,-21,26,1
97,-175,-36,975,-20,5,-2
98,-92,-53,988,-18,-18,-10
99,58,-36,1010,-13,-29,-11
100,161,-19,1016,-8,-15,-11
101,132,5,996,-11,11,-3
102,-28,11,1006,-18,31,2
103,-150,-15,996,-22,22,0
104,-176,-35,970,-21,-1,-3
105,-50,-46,1000,-15,-25,-12
106,92,-41,1009,-11,-27,-13
107,165,-19,997,-9,-9,-10
108,101,9,1017,-11,18,-2
109,-63,2,997,-20,32,1
110,-163,-12,992,-21,18,-1
111,-162,-46,970,-21,-5,-4
112,-23,-44,1008,-15,-25,-12
113,134,-39,994,-10,-27,-13
114,154,-7,1016,-9,-2,-7
115,75,8,1011,-15,20,-1
116,-100,1,1003,-19,31,2
117,-176,-20,975,-21,13,0
118,-136,-47,979,-20,-13,-7
119,19,-48,1002,-14,-30,-13
120,150,-36,1011,-11,-20,-12
121,160,-4,1010,-7,5,-7
122,30,4,1012,-13,28,1
123,-128,1,981,-17,29,1
124,-190,-23,979,-21,8,-2
125,-108,-33,986,-18,-18,-9
126,49,-40,1013,-15,-30,-13
127,171,-25,1009,-12,-16,-12
128,143,-16,1003,-13,10,-4
129,-12,3,1003,-15,31,1
130,-143,-12,996,-18,26,2
131,-195,-24,969,-19,5,-3
132,-64,-34,998,-17,-26,-12
133,90,-36,1012,-13,-29,-15
134,165,-16,1000,-13,-10,-8
135,118,-4,1011,-12,14,-4
136,-53,0,1005,-17,31,2
137,-163,-22,986,-21,20,1
138,-165,-37,981,-19,-5,-7
139,-31,-41,1000,-15,-25,-11
140,114,-23,995,-9,-27,-13
141,167,-13,1019,-12,-5,-8
142,75,1,1008,-16,20,0
143,-82,1,999,-18,28,1
144,-167,-37,991,-20,15,-1
145,-149,-41,966,-19,-9,-6
146,9,-40,999,-12,-28,-12
147,136,-24,1022,-11,-21,-11
148,151,6,1006,-10,1,-5
149,47,7,1009,-16,24,0
150,-114,-8,997,-22,28,1
151,-178,-32,967,-20,8,-2
152,-109,-48,989,-17,-15,-9
153,32,-43,1005,-12,-28,-11
154,160,-19,1013,-9,-19,-12
155,142,-3,1008,-11,7,-6
156,6,11,1000,-18,27,2
157,-139,-12,996,-20,24,1
158,-177,-31,969,-22,4,-2
159,-78,-40,998,-18,-19,-9
160,73,-45,1009,-13,-27,-13
161,162,-17,1007,-9,-13,-9
162,119,-6,996,-12,13,-4
163,-39,10,1008,-17,30,1
164,-149,-20,992,-22,20,0
165,-176,-31,974,-18,-1,-5
166,-36,-53,1001,-16,-25,-11
167,104,-35,998,-11,-26,-12
168,167,-12,1007,-8,-6,-9
169,85,9,1017,-12,19,-3
170,-71,7,997,-19,29,3
171,-173,-26,990,-21,17,0
172,-148,-40,973,-20,-9,-6
173,-6,-51,998,-14,-28,-13
174,132,-27,1012,-10,-24,-13
175,155,-6,1009,-11,0,-6
176,57,7,1014,-13,24,-1
177,-105,-7,991,-20,29,1
178,-176,-28,975,-21,11,-2
179,-122,-44,986,-18,-15,-8
180,26,-43,998,-14,-29,-13
181,150,-23,1020,-11,-19,-11
182,145,-2,1002,-12,6,-5
183,9,9,1014,-16,26,1
184,-118,-7,978,-21,25,0
185,-193,-35,991,-22,7,-1
186,-74,-45,975,-17,-22,-11
187,57,-39,1021,-11,-28,-13
188,170,-21,1002,-9,-14,-10
189,115,3,1006,-11,13,-3
190,-20,9,1002,-16,27,0
191,-152,-14,999,-21,23,2
192,-166,-36,971,-21,-3,-7
193,-55,-47,1001,-16,-23,-10
194,105,-31,1004,-12,-27,-14
195,161,-8,1006,-10,-7,-9
196,93,3,1014,-13,17,-3
197,-68,2,1001,-19,30,2
198,-167,-23,989,-19,17,0
199,-149,-40,976,-21,-8,-6
200,-16,-45,991,-16,-26,-11
201,131,-25,1015,-8,-25,-14
202,155,-9,1008,-12,-1,-7
203,59,16,1012,-14,22,-1
204,-97,-11,997,-21,28,1
205,-181,-23,974,-21,12,-1
206,-125,-51,978,-17,-14,-8
207,19,-40,1006,-13,-29,-13
208,153,-23,1014,-10,-22,-11
209,149,-1,1007,-10,7,-7
210,20,7,1013,-17,27,1
211,-127,-9,984,-23,28,1
212,-183,-32,978,-21,7,-3
213,-91,-45,992,-20,-21,-8
214,55,-41,1008,-11,-30,-14
215,165,-19,1012,-8,-15,-11
216,129,0,1001,-12,12,-5
217,-23,4,1003,-17,29,2
218,-145,-14,994,-21,22,0
219,-181,-31,969,-20,0,-5
220,-55,-46,1000,-16,-24,-11
221,96,-36,1009,-12,-28,-12
222,163,-16,998,-12,-9,-7
223,101,5,1016,-12,17,-2
224,-58,3,1000,-20,30,2
225,-165,-22,991,-20,18,1
226,-154,-36,977,-19,-7,-7
227,-21,-45,993,-16,-27,-11
228,126,-28,1010,-10,-25,-13
229,154,-12,1007,-12,-3,-8
230,68,5,1018,-14,21,-2
231,-94,-5,992,-20,28,2
232,-175,-30,979,-23,13,-2
233,-129,-40,983,-17,-12,-7
234,16,-38,999,-14,-28,-11
235,143,-24,1012,-11,-20,-12
236,150,-5,1010,-13,3,-6
237,19,1,1008,-15,25,1
238,-114,-7,988,-20,26,0
239,-180,-31,978,-21,8,-3
240,-103,-41,988,-19,-17,-9
241,52,-37,1013,-12,-29,-14
242,159,-20,1009,-10,-16,-10
243,130,-3,1007,-14,9,-5
244,-5,5,1001,-16,28,0
245,-149,-13,995,-22,23,3
246,-174,-30,973,-21,0,-5
247,-64,-53,1001,-16,-22,-11
248,91,-38,1004,-10,-28,-12
249,161,-16,1006,-9,-10,-10
250,111,7,1009,-11,15,-5
251,-57,14,1004,-19,30,2
252,-161,-20,983,-22,19,-1
253,-167,-44,992,-19,-6,-5
254,-21,-53,984,-17,-26,-11
255,124,-38,1013,-9,-25,-13
256,157,-10,1010,-8,-4,-7
257,76,14,1012,-14,21,0
258,-86,-2,996,-19,29,1
259,-185,-15,990,-22,14,0
260,-134,-41,963,-21,-10,-9
261,2,-44,1010,-14,-27,-12
262,152,-29,1009,-12,-24,-12
263,152,-16,1007,-11,3,-7
264,38,1,1014,-13,24,1
265,-123,-3,987,-20,28,1
266,-178,-26,971,-19,10,-4
267,-111,-43,992,-18,-17,-7
268,40,-34,1002,-14,-29,-13
269,167,-26,1020,-9,-17,-14
270,139,-8,1003,-11,8,-4
271,-2,10,1003,-16,28,1
272,-139,-10,995,-22,25,-1
273,-186,-30,977,-22,3,-3
274,-73,-48,988,-17,-23,-9
275,82,-42,1015,-13,-30,-14
276,168,-24,1004,-10,-12,-10
277,121,6,1005,-13,13,-3
278,-43,7,1005,-17,31,2
279,-159,-9,996,-19,21,1
280,-170,-33,970,-20,-4,-6
281,-39,-54,1002,-17,-26,-11
282,112,-43,1007,-10,-28,-12
283,161,-18,994,-9,-6,-10
284,91,6,1027,-11,19,-3
285,-79,8,999,-19,30,2
286,-171,-18,984,-22,16,-1
287,-146,-35,978,-19,-8,-7
288,-5,-46,992,-16,-27,-11
289,137,-30,1017,-10,-23,-13
290,154,-14,1004,-12,0,-6
291,55,7,1016,-13,24,-1
292,-105,-10,993,-20,28,1
293,-184,-25,968,-20,11,-1
294,-115,-40,991,-16,-16,-9
295,26,-33,1001,-13,-28,-13
296,161,-25,1014,-11,-19,-12
297,149,1,1006,-11,6,-7
298,8,2,1011,-18,27,3
299,-135,-11,983,-21,25,-1
300,-187,-38,985,-22,5,-4
301,-79,-41,982,-16,-21,-10
302,66,-37,1019,-11,-28,-12
303,174,-16,1005,-11,-12,-12
304,120,3,1005,-12,14,-4
305,-28,16,1003,-19,30,4
306,-155,-18,1004,-24,22,0
307,-172,-40,966,-22,-2,-6
308,-41,-56,998,-16,-24,-10
309,106,-41,1009,-9,-26,-16
310,176,-14,1002,-9,-7,-9
311,86,12,1010,-10,19,-1
312,-64,9,1005,-20,31,1
313,-172,-19,993,-21,17,0
314,-160,-48,963,-23,-7,-5
315,-7,-42,1005,-13,-27,-13
316,132,-36,1003,-12,-24,-11
317,155,-10,1009,-9,1,-8
318,62,-2,1014,-14,21,-2
319,-105,3,994,-17,30,3
320,-179,-24,972,-21,11,-1
321,-120,-38,990,-17,-16,-8
322,17,-44,997,-14,-28,-11
323,154,-19,1017,-9,-20,-12
324,144,-14,1008,-11,5,-6
325,16,10,1003,-15,26,2
326,-123,-17,996,-21,26,1
327,-186,-24,970,-20,6,-3
328,-89,-40,994,-17,-21,-9
329,64,-31,1008,-11,-29,-12
330,163,-25,1011,-11,-14,-10
331,133,1,999,-12,12,-6
332,-32,3,1005,-17,31,2
333,-145,-18,997,-20,23,-1
334,-178,-41,971,-20,1,-4
335,-49,-44,996,-14,-24,-10
336,99,-33,1011,-10,-28,-13
337,162,-12,1002,-9,-8,-9
338,98,9,1012,-12,16,-4
339,-67,2,1006,-19,29,1
340,-167,-22,987,-21,17,0
341,-152,-44,974,-21,-8,-6
342,-18,-51,993,-16,-27,-11
343,133,-29,1010,-8,-26,-12
344,157,-8,1007,-8,-3,-7
345,62,13,1016,-13,27,1
346,-91,0,996,-16,40,4
347,-187,-23,975,-22,14,-2
348,-121,-44,985,-17,-14,-7
349,18,-45,996,-14,-27,-12
350,144,-30,1014,-10,-20,-12
351,157,-6,1011,-9,4,-7
352,21,6,1007,-16,29,2
353,-125,-5,988,-20,28,1
354,-180,-20,984,-20,7,-4
355,-95,-43,985,-20,-19,-9
356,53,-42,1007,-11,-29,-13
357,172,-29,1016,-9,-15,-12
358,127,-1,994,-11,12,-4
359,-16,12,1010,-15,30,2
360,-148,-10,988,-21,23,0
361,-187,-28,978,-22,0,-3
362,-49,-49,995,-17,-24,-12
363,88,-35,1013,-14,-27,-12
364,171,-26,999,-10,-10,-10
365,100,1,1015,-9,18,-2
366,-60,3,996,-18,31,2
367,-160,-14,996,-19,20,-2
368,-160,-44,975,-21,-6,-5
369,-30,-33,993,-15,-26,-11
370,133,-35,1013,-10,-25,-13
371,156,-9,1001,-10,0,-6
372,76,0,1014,-15,23,-1
373,-94,0,1003,-17,30,1
374,-181,-29,976,-21,15,-2
375,-130,-34,980,-17,-13,-9
376,9,-45,1006,-14,-27,-11
377,148,-21,1009,-9,-20,-12
378,156,-7,1012,-12,4,-7
379,32,2,1016,-14,25,0
380,-117,-8,980,-20,28,1
381,-184,-27,982,-19,9,-3
382,-107,-44,987,-19,-18,-9
383,46,-39,1004,-15,-29,-14
384,166,-21,1016,-9,-17,-11
385,133,-5,1004,-12,9,-5
386,-3,1,1001,-15,29,1
387,-146,-7,997,-18,23,1
388,-179,-29,967,-21,2,-3
389,-75,-49,1001,-14,-22,-10
390,85,-34,1008,-11,-29,-12
391,161,-21,1003,-9,-10,-10
392,116,7,1007,-11,14,-4
393,-46,9,1012,-18,30,2
394,-160,-15,981,-21,20,-1
395,-170,-44,982,-20,-5,-6
396,-36,-48,997,-17,-25,-12
397,116,-34,1003,-9,-26,-13
398,162,-11,1009,-9,-4,-9
399,76,9,1020,-14,21,-1
400,-71,0,993,-18,30,2
401,-182,-17,994,-21,17,1
402,-140,-46,961,-20,-11,-6
403,-4,-51,1011,-11,-26,-12
404,146,-27,1002,-9,-24,-12
405,159,0,1020,-8,3,-8
406,47,5,1005,-13,24,0
407,-115,-8,995,-19,29,3
408,-176,-27,972,-19,10,-3
409,-118,-43,983,-17,-15,-7
410,32,-42,1010,-12,-30,-13
411,158,-21,1009,-8,-18,-11
412,146,-7,1008,-12,8,-5
413,2,5,1005,-17,29,2
414,-135,-12,987,-20,26,2
415,-184,-32,980,-20,5,-4
416,-81,-45,986,-15,-22,-9
417,71,-39,1016,-12,-30,-13
418,174,-21,1006,-10,-12,-11
419,118,2,1003,-11,14,-2
420,-39,10,1007,-17,29,1
421,-151,-19,992,-21,22,1
422,-178,-37,972,-20,-1,-3
423,-38,-49,999,-17,-25,-10
424,102,-40,1008,-10,-26,-13
425,163,-6,999,-8,-6,-8
426,92,4,1025,-11,19,-3
427,-70,4,993,-18,30,3
428,-174,-22,987,-20,19,1
429,-142,-40,975,-19,-9,-8
430,-17,-45,993,-15,-26,-11
431,133,-31,1007,-11,-24,-13
432,152,-10,1022,-11,0,-7
433,60,5,1001,-13,23,0
434,-99,-2,1004,-17,28,3
435,-173,-26,967,-20,11,-1
436,-123,-41,991,-18,-13,-6
437,23,-35,1000,-13,-28,-12
438,147,-22,1015,-12,-19,-9
439,143,-16,1004,-11,4,-4
440,16,1,1005,-15,25,2
441,-116,-9,990,-19,26,2
442,-175,-28,985,-19,6,-2
443,-88,-41,985,-17,-19,-8
444,57,-40,1011,-11,-27,-12
445,155,-15,1013,-9,-15,-8
446,117,-6,993,-14,11,-2
447,-19,11,1014,-15,27,2
448,-133,-16,990,-21,21,1
449,-172,-36,979,-19,1,-3
450,-49,-45,994,-16,-22,-10
451,85,-35,1012,-11,-25,-12
452,155,-21,994,-10,-8,-5
453,91,8,1021,-11,16,-1
454,-48,2,995,-17,28,0
455,-155,-17,995,-18,18,0
456,-145,-39,970,-21,-6,-5
457,-29,-38,996,-14,-24,-9
458,117,-29,1010,-12,-24,-12
459,148,-10,1008,-13,-1,-7
460,68,0,1013,-12,21,-2
461,-85,-2,998,-18,28,1
462,-162,-26,979,-21,13,-2
463,-122,-43,979,-16,-10,-6
464,2,-41,1001,-15,-25,-10
465,138,-22,1015,-10,-21,-10
466,138,-7,1007,-10,5,-5
467,30,9,1011,-15,24,0
468,-112,-14,988,-20,26,1
469,-171,-28,982,-19,8,-2
470,-91,-46,985,-16,-16,-7
471,41,-36,1010,-11,-25,-11
472,152,-16,1012,-10,-15,-9
473,126,-1,999,-12,8,-5
474,-10,11,1004,-16,26,2
475,-134,-14,1006,-23,23,0
476,-163,-42,970,-22,2,-4
477,-72,-49,997,-14,-21,-9
478,80,-42,1003,-11,-27,-12
479,155,-14,999,-7,-10,-8
480,106,10,1018,-11,13,-2
481,-48,8,997,-19,28,1
482,-149,-21,999,-22,18,0
483,-151,-43,972,-21,-5,-4
484,-39,-49,989,-15,-24,-11
485,112,-40,1011,-10,-25,-13
486,143,-9,1013,-9,-3,-5
487,73,9,1005,-11,18,0
488,-70,2,1005,-17,28,2
489,-167,-23,979,-22,15,0
490,-127,-44,977,-17,-9,-6
491,0,-44,1001,-14,-26,-12
492,125,-29,1015,-10,-20,-8
493,147,-8,1007,-9,1,-6
494,36,2,1007,-13,22,1
495,-101,2,988,-18,24,0
496,-160,-28,987,-20,8,-3
497,-103,-38,977,-19,-15,-6
498,29,-42,1012,-12,-25,-11
499,143,-29,1009,-11,-16,-11
500,123,-6,1002,-12,7,-3
501,11,6,998,-14,23,-1
502,-131,-5,1014,-21,24,3
503,-152,-32,966,-20,4,-3
504,-80,-46,1001,-15,-17,-8
505,65,-41,1003,-12,-25,-11
506,144,-19,1002,-9,-9,-7
507,100,-2,1008,-11,14,-3
508,-28,12,1007,-16,27,1
509,-133,-13,997,-19,20,0
510,-153,-31,977,-21,-2,-2
511,-48,-47,988,-17,-21,-10
512,98,-39,1007,-11,-24,-13
513,139,-16,1011,-12,-5,-6
514,87,9,1007,-13,15,-3
515,-62,1,1008,-19,27,1
516,-155,-20,977,-23,16,-2
517,-134,-43,979,-18,-6,-7
518,-16,-42,995,-16,-23,-11
519,118,-26,1014,-10,-22,-13
520,146,-6,1006,-8,-2,-7
521,45,6,1013,-15,21,-1
522,-88,3,991,-23,26,-1
523,-167,-31,985,-23,11,-2
524,-112,-44,978,-21,-12,-8
525,23,-48,1012,-14,-26,-13
526,138,-29,1010,-8,-18,-12
527,134,-2,997,-10,6,-5
528,9,12,1006,-14,25,0
529,-118,0,998,-20,24,0
530,-166,-28,981,-23,3,-4
531,-77,-47,990,-20,-20,-10
532,62,-48,1008,-14,-26,-12
533,157,-25,1001,-9,-13,-9
534,104,1,1009,-10,13,-4
535,-28,11,1009,-18,28,1
536,-142,-14,996,-21,22,0
537,-156,-33,976,-21,-1,-5
538,-40,-50,996,-17,-23,-11
539,97,-31,1001,-11,-24,-13
540,153,-19,1014,-12,-5,-8
541,78,2,1009,-15,18,-3
542,-70,0,1002,-18,28,1
543,-158,-28,987,-21,16,-3
544,-138,-41,975,-19,-7,-5
545,-3,-39,998,-14,-26,-11
546,130,-23,1017,-10,-20,-12
547,141,-14,1004,-11,2,-6
548,45,6,1010,-15,23,-1
549,-101,-15,997,-20,27,0
550,-169,-20,967,-19,10,-2
551,-103,-51,995,-18,-14,-9
552,22,-34,1001,-12,-26,-11
553,145,-24,1010,-8,-19,-10
554,139,1,1009,-10,8,-7
555,1,1,996,-17,27,2
556,-127,-9,998,-19,23,1
557,-172,-33,981,-22,4,-4
558,-82,-49,985,-15,-19,-8
559,70,-39,1014,-10,-28,-13
560,148,-22,1003,-10,-11,-10
561,118,6,1004,-11,12,-5
562,-32,14,1007,-17,28,3
563,-145,-16,998,-21,22,0
564,-164,-38,974,-20,-1,-5
565,-47,-57,998,-17,-24,-11
566,101,-44,999,-9,-28,-13
567,155,-12,1011,-7,-7,-8
568,93,9,1015,-11,16,-3
569,-69,6,1000,-17,30,2
570,-160,-18,993,-22,16,-3
571,-144,-43,973,-20,-7,-6
572,-15,-49,991,-13,-26,-13
573,128,-34,1017,-10,-24,-11
574,153,-9,1005,-10,-2,-6
575,56,8,1016,-12,23,0
576,-94,1,992,-21,27,2
577,-171,-29,974,-22,11,-3
578,-121,-42,987,-18,-14,-7
579,22,-48,999,-14,-29,-12
580,144,-31,1019,-10,-20,-12
581,147,-2,1004,-9,4,-5
582,19,11,998,-14,26,0
583,-118,-1,1001,-19,26,0
584,-179,-31,978,-22,5,-4
585,-83,-48,982,-18,-17,-11
586,53,-47,1023,-12,-27,-12
587,161,-25,1000,-8,-14,-11
588,120,0,1003,-10,11,-4
589,-18,20,1007,-15,28,0
590,-140,-10,997,-23,24,0
591,-171,-32,973,-21,1,-4
592,-60,-51,999,-18,-22,-10
593,88,-47,1000,-12,-27,-12
594,152,-22,1006,-7,-9,-9
595,104,8,1011,-11,16,-3
596,-55,15,1004,-15,31,2
597,-153,-8,992,-20,19,-1
598,-153,-42,970,-22,-6,-5
599,-32,-45,993,-15,-23,-11
600,118,-42,1014,-12,-25,-13
601,146,-14,1004,-8,-2,-8
602,64,4,1015,-11,20,0
603,-73,5,994,-19,26,0
604,-172,-23,979,-20,15,-2
605,-122,-37,978,-19,-12,-6
606,0,-49,1002,-14,-26,-11
607,135,-24,1010,-8,-21,-9
608,138,-13,1004,-10,2,-3
609,33,8,1008,-13,23,0
610,-95,-3,991,-17,24,1
611,-172,-24,983,-19,10,-2
612,-90,-47,986,-17,-16,-10
613,37,-39,1009,-12,-25,-9
614,138,-30,1013,-9,-15,-7
615,122,-2,992,-11,8,-4
616,8,5,1012,-12,26,-1
617,-114,-6,1001,-17,23,0
618,-172,-29,978,-19,4,-2
619,-85,-45,985,-16,-18,-8
620,63,-37,1015,-11,-27,-10
621,152,-32,996,-10,-11,-3
622,87,-4,1010,-10,14,5
623,-28,3,1002,-16,23,4
624,-116,-7,996,-17,17,1
625,-125,-30,983,-18,-3,-4
626,-50,-41,989,-14,-18,-8
627,74,-45,1006,-11,-20,-2
628,90,-23,1011,-10,-2,5
629,64,-1,993,-12,11,6
630,-7,8,1009,-15,17,-1
631,-94,-8,994,-17,13,-1
632,-114,-29,980,-17,-2,-2
633,-37,-31,989,-16,-17,-7
634,76,-44,1018,-12,-16,-9
635,104,-16,993,-11,0,-1
636,37,0,1009,-15,14,1
637,-42,4,996,-16,16,-1
638,-125,-25,992,-21,10,1
639,-89,-31,984,-20,-8,-5
640,3,-46,998,-15,-17,-9
641,96,-36,1015,-10,-13,-6
642,98,-3,985,-11,2,0
643,12,2,1006,-15,17,0
644,-73,1,1013,-19,16,1
645,-131,-26,980,-24,5,0
646,-71,-51,989,-20,-13,-4
647,40,-50,1005,-13,-20,-6
648,112,-34,998,-9,-9,-4
649,83,1,1007,-11,9,4
650,-8,-5,1005,-21,18,12
651,-75,-47,1004,-31,13,31
652,-110,-116,978,-36,-2,57
653,-65,-119,982,-15,-12,55
654,4,-47,1008,4,-11,40
655,57,8,1000,1,-4,45
656,56,35,1002,-11,3,61
657,-2,35,1004,-22,8,70
658,-54,0,1009,-24,4,57
659,-62,-13,977,-19,-3,38
660,-30,-29,1004,-13,-8,24
661,37,-6,996,-10,-10,18
662,62,0,998,-14,-2,20
663,39,-4,999,-18,5,21
664,-30,0,1006,-20,11,18
665,-76,-23,983,-20,7,11
666,-71,-39,1005,-17,-3,7
667,-4,-25,991,-11,-9,2
668,47,-18,1005,-12,-6,4
669,64,-3,989,-14,0,9
670,18,6,996,-17,10,9
671,-46,-5,1015,-21,12,5
672,-94,-23,984,-24,4,4
673,-55,-47,995,-18,-8,-3
674,22,-39,1004,-11,-15,-8
675,85,-17,998,-9,-6,-5
676,56,6,997,-11,7,-2
677,-13,17,1011,-17,14,0
678,-84,-19,1000,-24,12,2
679,-109,-40,989,-18,-3,-1
680,-34,-58,987,-16,-16,-7
681,64,-49,1002,-6,-16,-10
682,108,-8,1002,-7,-4,-4
683,50,17,1010,-10,12,0
684,-45,12,1000,-16,17,-1
685,-113,-18,999,-26,10,2
686,-100,-44,972,-22,-7,-1
687,-12,-58,999,-14,-17,-8
688,103,-41,1005,-9,-17,-11
689,104,-10,1009,-6,1,-4
690,29,15,1005,-12,18,0
691,-79,9,1001,-19,20,1
692,-133,-16,977,-22,8,1
693,-86,-50,993,-20,-12,-3
694,18,-47,998,-13,-19,-11
695,124,-34,1018,-10,-14,-9
696,111,-7,991,-11,7,-4
697,-5,9,1006,-13,21,0
698,-104,5,994,-20,19,0
699,-152,-28,984,-24,4,-1
700,-62,-46,990,-17,-18,-9
701,62,-49,1011,-14,-22,-11
702,134,-29,999,-9,-10,-9
703,90,1,1001,-10,12,-3
704,-32,8,1009,-16,25,-2
705,-133,-11,994,-21,16,0
706,-149,-33,979,-21,-2,-2
707,-34,-50,998,-16,-23,-8
708,94,-39,1003,-10,-22,-10
709,131,-21,1000,-7,-5,-3
710,64,14,1016,-11,15,1
711,-51,11,1000,-18,24,2
712,-146,-18,987,-25,13,4
713,-122,-54,983,-22,-10,1
714,-16,-56,990,-14,-22,-7
715,112,-46,1006,-8,-19,-8
716,121,0,1019,-5,1,0
717,39,22,995,-13,18,5
718,-66,0,1003,-21,21,5
719,-137,-32,982,-24,8,8
720,-98,-52,983,-20,-11,4
721,7,-54,1002,-11,-21,-7
722,115,-28,1017,-6,-13,-5
723,97,1,992,-9,5,5
724,15,11,1006,-15,17,8
725,-70,-9,996,-21,16,8
726,-133,-36,995,-23,5,9
727,-68,-53,980,-17,-13,2
728,34,-44,1011,-9,-17,-6
729,104,-18,1015,-6,-9,0
730,77,16,979,-12,8,7
731,-9,12,1008,-21,17,10
732,-85,-17,1011,-22,14,9
733,-112,-45,971,-21,1,5
734,-43,-55,1004,-13,-14,-2
735,57,-31,995,-7,-16,-5
736,95,-8,1003,-7,-3,0
737,52,16,1006,-13,11,5
738,-23,8,1000,-20,17,7
739,-100,-28,1005,-22,12,7
740,-111,-38,972,-22,-3,4
741,-23,-61,992,-14,-16,-6
742,80,-26,1013,-6,-16,-8
743,94,1,999,-10,3,1
744,33,22,1010,-11,16,1
745,-49,1,999,-21,17,2
746,-119,-28,985,-23,9,6
747,-93,-51,983,-20,-8,-1
748,4,-51,1002,-13,-18,-9
749,107,-28,1008,-7,-14,-10
750,99,9,1006,-7,5,-2
751,13,10,1002,-14,18,0
752,-92,9,1000,-19,18,0
753,-134,-36,981,-27,3,1
754,-71,-53,994,-21,-13,-5
755,38,-53,1005,-13,-20,-11
756,132,-34,1011,-7,-10,-7
757,86,4,995,-9,10,-4
758,-17,22,1003,-15,22,-2
759,-116,-4,1009,-21,17,0
760,-147,-29,967,-22,1,0
761,-52,-58,1006,-19,-19,-6
762,74,-43,1003,-10,-22,-11
763,136,-37,998,-8,-7,-6
764,79,13,1007,-8,13,0
765,-44,12,1014,-16,25,-1
766,-121,-2,983,-19,17,1
767,-141,-43,989,-24,-5,4
768,-29,-53,982,-17,-22,-6
769,96,-44,1015,-9,-21,-11
770,131,-11,1001,-8,-2,-2
771,49,13,1018,-11,19,1
772,-51,6,992,-19,21,1
773,-138,-24,989,-24,13,7
774,-109,-51,981,-21,-10,4
775,-12,-53,998,-14,-19,-6
776,110,-33,1007,-5,-16,-9
777,110,1,1010,-7,3,1
778,24,15,1003,-15,18,6
779,-67,-6,992,-20,19,7
780,-139,-32,986,-22,8,10
781,-86,-58,989,-20,-13,5
782,19,-52,999,-9,-21,-5
783,109,-21,1015,-3,-10,-1
784,83,11,994,-10,7,11
785,7,8,995,-18,16,13
786,-79,-12,1013,-22,14,13
787,-112,-37,982,-22,1,10
788,-60,-58,993,-15,-13,3
789,46,-39,1003,-8,-18,-1
790,79,-7,999,-8,-5,6
791,64,0,996,-15,6,15
792,-10,3,1008,-19,13,16
793,-74,-18,1001,-22,9,13
794,-94,-44,988,-19,-2,9
795,-36,-49,988,-13,-12,4
796,45,-27,1005,-6,-12,4
797,65,-8,1004,-9,-2,12
798,48,4,996,-16,7,16
799,-22,-3,1012,-21,12,15
800,-78,-24,991,-21,5,12
801,-79,-43,986,-17,-3,8
802,-18,-41,995,-12,-11,5
803,49,-15,1009,-8,-9,7
804,68,-5,995,-13,-1,11
805,30,4,1003,-16,10,13
806,-35,-6,1007,-21,11,9
807,-87,-29,981,-20,7,8
808,-65,-40,998,-18,-4,4
809,1,-44,1004,-10,-12,-1
810,64,-14,1002,-6,-8,3
811,62,0,994,-13,3,8
812,4,5,1000,-17,11,9
813,-51,-12,1007,-20,11,7
814,-101,-30,989,-22,4,7
815,-53,-45,988,-16,-9,1
816,35,-46,1011,-12,-13,-4
817,73,-16,992,-8,-4,1
818,51,6,992,-12,7,7
819,-13,4,1016,-18,11,7
820,-71,-11,992,-23,10,7
821,-103,-47,995,-22,-1,7
822,-26,-46,991,-15,-13,-1
823,56,-37,1002,-9,-11,-5
824,75,-5,1000,-9,-1,2
825,47,7,1007,-15,8,6
826,-25,5,999,-18,14,6
827,-93,-28,1004,-22,10,7
828,-91,-44,973,-20,-4,5
829,-20,-56,992,-12,-13,-4
830,75,-23,1018,-7,-13,-6
831,80,3,998,-9,3,2
832,30,10,1006,-15,12,5
833,-42,1,997,-23,14,6
834,-114,-38,986,-23,8,7
835,-80,-49,984,-20,-8,4
836,-4,-47,1005,-10,-15,-5
837,86,-26,1010,-5,-11,-5
838,76,0,993,-10,4,5
839,10,8,996,-17,12,10
840,-57,-8,1011,-21,11,10
841,-104,-29,985,-23,3,9
842,-64,-53,990,-16,-9,2
843,30,-36,1011,-9,-16,-2
844,75,-22,998,-7,-5,3
845,68,-1,990,-12,6,10
846,-9,7,1012,-18,13,13
847,-63,-15,1005,-22,10,9
848,-105,-35,991,-19,0,9
849,-43,-46,988,-15,-10,4
850,37,-30,1004,-8,-12,-2
851,72,-16,991,-9,-3,4
852,52,1,1010,-13,5,12
853,-11,3,1001,-19,10,12
854,-76,-29,1008,-22,8,13
855,-85,-41,972,-21,-3,11
856,-29,-47,1000,-12,-11,4
857,46,-26,1002,-9,-10,-2
858,64,-8,999,-12,0,5
859,43,-5,1002,-16,7,11
860,-25,-2,1010,-20,11,15
861,-78,-29,982,-22,7,14
862,-80,-38,997,-19,-4,11
863,-14,-29,997,-12,-11,1
864,50,-26,1005,-10,-7,-4
865,68,-7,995,-12,0,2
866,30,-4,1004,-16,9,9
867,-41,-5,999,-20,12,14
868,-92,-32,998,-22,4,15
869,-63,-40,987,-16,-7,9
870,2,-36,1008,-11,-12,1
871,63,-15,1000,-10,-7,-3
872,63,-4,989,-13,2,2
873,15,1,1003,-16,9,11
874,-56,-7,1015,-20,11,15
875,-93,-41,980,-20,4,14
876,-51,-52,1002,-15,-8,8
877,23,-29,993,-9,-12,-1
878,62,-18,998,-8,-4,-4
879,60,-1,997,-14,4,4
880,-5,4,1016,-18,12,13
881,-72,-17,999,-22,9,17
882,-89,-35,986,-21,0,16
883,-33,-43,989,-13,-11,6
884,39,-19,1011,-8,-11,-3
885,68,-8,994,-11,-1,-5
886,48,-2,1007,-12,8,5
887,-25,5,1002,-19,11,13
888,-88,-32,996,-23,7,15
889,-83,-45,980,-20,-4,12
890,-14,-40,1009,-12,-13,2
891,63,-12,1005,-6,-10,-7
892,72,0,990,-13,2,-5
893,31,-1,1011,-16,9,5
894,-49,1,1000,-21,13,11
895,-100,-41,986,-23,4,13
896,-66,-51,990,-19,-7,6
897,6,-34,1012,-9,-13,-5
898,88,-10,997,-7,-8,-11
899,65,-8,997,-13,6,-6
900,5,11,1001,-15,13,6
901,-71,-8,1012,-24,12,14
902,-108,-44,976,-24,2,11
903,-52,-51,1002,-17,-11,3
904,39,-35,996,-7,-16,-9
905,79,-4,998,-6,-4,-10
906,63,5,1001,-12,8,-5
907,-19,9,1011,-19,16,4
908,-85,-26,1000,-24,9,10
909,-108,-54,981,-23,-1,10
910,-38,-57,985,-14,-14,-1
911,63,-21,1010,-4,-14,-10
912,96,0,1003,-10,-1,-8
913,47,4,1002,-14,13,-3
914,-31,10,1009,-19,16,5
915,-112,-24,994,-26,10,12
916,-99,-52,978,-22,-6,7
917,-20,-48,1001,-13,-17,-5
918,91,-24,1003,-5,-15,-11
919,98,-1,1004,-9,1,-8
920,30,8,1005,-14,15,-3
921,-59,12,1003,-18,16,3
922,-125,-30,986,-27,8,8
923,-84,-54,983,-23,-9,3
924,6,-54,1010,-11,-18,-10
925,115,-22,1003,-6,-14,-11
926,93,3,996,-10,6,-3
927,7,10,1007,-14,19,-5
928,-93,7,1005,-20,17,3
929,-129,-35,981,-27,3,4
930,-72,-54,993,-18,-13,-2
931,50,-53,1005,-10,-19,-12
932,112,-24,994,-5,-9,-9
933,94,14,1003,-9,8,-5
934,-24,9,1020,-16,21,-1
935,-112,2,988,-21,16,4
936,-124,-49,988,-24,-2,4
937,-46,-55,984,-17,-17,-3
938,64,-45,1006,-8,-18,-11
939,130,-9,1006,-7,-8,-8
940,60,12,1010,-10,15,-4
941,-40,13,1003,-16,21,-1
942,-122,-14,1002,-23,11,7
943,-114,-56,961,-26,-7,7
944,-26,-58,1009,-14,-19,-4
945,97,-34,1001,-5,-18,-12
946,107,-5,1007,-8,2,-7
947,38,8,1005,-12,17,-2
948,-62,8,1004,-19,19,6
949,-126,-27,977,-25,8,12
950,-95,-58,992,-21,-10,7
951,4,-51,1002,-11,-19,-6
952,106,-22,1014,-4,-13,-9
953,90,-2,986,-9,7,-4
954,14,9,1010,-14,17,4
955,-63,1,1002,-22,15,12
956,-136,-41,985,-27,5,15
957,-65,-57,988,-16,-13,6
958,30,-39,1011,-8,-17,-6
959,94,-16,997,-9,-7,-8
960,71,-3,995,-10,7,-1
961,0,8,1009,-17,16,9
962,-80,-5,1004,-23,13,16
963,-108,-51,981,-24,1,12
964,-48,-54,998,-15,-11,3
965,49,-27,997,-7,-14,-6
966,86,-8,1003,-9,-3,-8
967,58,1,1002,-14,10,1
968,-23,2,1004,-19,13,12
969,-92,-22,1002,-23,9,14
970,-96,-46,975,-20,-3,9
971,-21,-45,996,-12,-13,-1
972,66,-18,1010,-7,-13,-8
973,78,-2,990,-13,1,-7
974,43,1,1010,-14,11,2
975,-43,2,1006,-19,15,11
976,-105,-34,976,-24,7,11
977,-82,-54,994,-19,-8,7
978,-2,-39,1003,-11,-14,-4
979,87,-14,1000,-6,-9,-9
980,81,0,1003,-11,4,-6
981,19,7,1002,-14,14,3
982,-63,1,1001,-22,15,11
983,-115,-43,988,-27,5,10
984,-65,-53,992,-16,-10,1
985,26,-37,1004,-8,-16,-9
986,95,-11,1007,-6,-8,-10
987,72,5,987,-11,7,-8
988,-9,13,1013,-16,16,-1
989,-80,-5,1002,-24,11,9
990,-126,-50,982,-24,1,8
991,-42,-61,992,-16,-15,-1
992,56,-39,1003,-5,-17,-11
993,100,-3,995,-7,-5,-9
994,63,9,1010,-12,11,-6
995,-40,11,1008,-17,19,2
996,-99,-12,996,-25,11,8
997,-112,-57,982,-25,-4,5
998,-25,-55,986,-13,-16,-4
999,87,-35,1012,-6,-16,-13
1000,103,1,1008,-7,0,-7
1001,40,5,1002,-12,16,-5
1002,-57,10,1007,-17,18,1
1003,-122,-26,978,-26,8,10
1004,-92,-58,983,-22,-9,7
1005,-6,-49,1010,-10,-19,-6
1006,102,-22,1001,-7,-14,-11
1007,102,-1,1008,-9,5,-8
1008,15,8,1001,-13,18,-2
1009,-71,8,1002,-19,18,5
1010,-130,-35,986,-26,7,9
1011,-78,-59,981,-21,-11,3
1012,32,-56,1014,-9,-20,-10
1013,113,-14,1006,-6,-11,-10
1014,90,3,988,-12,8,-6
1015,-8,14,1010,-11,20,-3
1016,-96,4,1001,-22,15,8
1017,-127,-51,986,-24,3,10
1018,-58,-57,992,-24,-20,-1
1019,57,-43,1002,-10,-20,-11
1020,117,-8,999,-7,-7,-9
1021,68,4,1004,-12,12,-6
1022,-34,13,1006,-17,20,0
1023,-108,-9,1000,-22,12,7
1024,-119,-52,978,-27,-4,8
1025,-32,-58,988,-14,-17,-2
1026,81,-35,1011,-7,-18,-12
1027,108,2,1006,-8,-1,-7
1028,52,6,1007,-12,14,-5
1029,-52,13,1000,-18,18,4
1030,-116,-28,992,-27,9,11
1031,-104,-59,975,-22,-9,7
1032,-13,-58,1001,-13,-19,-5
1033,98,-24,1013,-5,-15,-11
1034,100,7,998,-6,5,-7
1035,31,6,1008,-14,16,-1
1036,-61,10,997,-21,17,10
1037,-122,-40,986,-27,5,12
1038,-86,-53,989,-21,-10,5
1039,12,-42,1006,-10,-17,-7
1040,104,-17,1012,-6,-12,-11
1041,84,3,984,-11,7,-7
1042,6,7,1007,-15,17,0
1043,-75,-2,1017,-21,15,9
1044,-126,-42,969,-24,3,12
1045,-63,-64,1002,-17,-14,4
1046,37,-35,1002,-8,-17,-9
1047,103,-10,997,-5,-6,-11
1048,67,0,1002,-10,9,-6
1049,-14,15,1006,-18,17,5
1050,-88,-17,1008,-22,12,14
1051,-117,-44,968,-24,-1,13
1052,-40,-63,1001,-13,-14,2
1053,69,-26,1001,-4,-15,-11
1054,90,0,1006,-9,0,-9
1055,54,5,1001,-12,11,-5
1056,-31,8,1014,-17,15,6
1057,-110,-26,985,-26,10,14
1058,-96,-55,980,-23,-5,10
1059,-17,-52,1000,-11,-15,-3
1060,80,-18,1011,-5,-13,-10
1061,96,0,998,-10,3,-7
1062,39,-8,1009,-16,21,1
1063,-48,-2,1001,-21,21,16
1064,-114,-44,980,-27,11,22
1065,-86,-70,992,-20,-6,18
1066,3,-41,1001,-7,-13,4
1067,88,-11,1010,-4,-4,-4
1068,72,-3,984,-12,7,2
1069,20,2,1008,-17,11,15
1070,-60,6,1006,-21,11,22
1071,-111,-36,981,-27,2,23
1072,-55,-52,1001,-17,-12,14
1073,14,-25,998,-8,-14,0
1074,66,-19,992,-10,-7,-9
1075,69,6,999,-10,0,-2
1076,0,10,1006,-16,12,8
1077,-72,-8,1005,-23,9,18
1078,-99,-33,984,-23,1,15
1079,-42,-54,993,-16,-10,3
1080,36,-19,1000,-5,-13,-9
1081,74,-1,999,-9,-3,-10
1082,55,-2,1008,-13,10,-5
1083,-17,1,1000,-16,15,8
1084,-85,-24,1003,-23,9,12
1085,-98,-46,979,-20,-2,10
1086,-23,-51,994,-11,-13,-1
1087,63,-21,1014,-7,-13,-10
1088,83,5,992,-9,0,-8
1089,42,-1,1011,-14,10,-4
1090,-39,7,998,-20,13,8
1091,-108,-37,989,-26,8,14
1092,-84,-58,988,-21,-8,8
1093,-4,-49,1004,-9,-16,-5
1094,84,-13,1010,-5,-12,-9
1095,83,0,994,-11,2,-7
1096,22,2,1004,-15,13,2
1097,-61,-2,1006,-22,14,14
1098,-116,-39,990,-26,5,17
1099,-65,-55,982,-18,-10,8
1100,17,-42,1013,-8,-16,-4
1101,90,-7,999,-5,-10,-11
1102,72,2,993,-10,6,-6
1103,2,10,1010,-18,14,6
1104,-74,-6,1008,-23,12,15
1105,-111,-50,978,-25,1,15
1106,-51,-55,997,-15,-13,6
1107,46,-28,995,-6,-15,-8
1108,84,2,1008,-7,-4,-9
1109,63,5,998,-15,8,-5
1110,-21,5,1010,-19,17,5
1111,-90,-23,995,-25,10,13
1112,-107,-55,975,-24,-3,11
1113,-29,-54,996,-12,-14,-2
1114,68,-21,1005,-4,-15,-11
1115,87,7,1005,-9,1,-8
1116,45,9,1002,-13,12,-5
1117,-45,12,1008,-21,16,6
1118,-112,-28,980,-27,8,11
1119,-88,-60,987,-22,-8,4
1120,-9,-53,1002,-11,-15,-8
1121,96,-13,1005,-5,-13,-10
1122,95,0,1002,-10,3,-7
1123,13,8,1000,-14,17,-4
1124,-70,7,1003,-19,16,2
1125,-125,-32,986,-26,5,5
1126,-76,-60,984,-21,-11,1
1127,32,-51,1013,-11,-20,-10
1128,111,-27,999,-6,-10,-10
1129,88,8,997,-8,9,-5
1130,-13,9,1007,-13,21,-2
1131,-101,1,1001,-21,16,2
1132,-126,-37,982,-24,0,6
1133,-51,-56,995,-18,-16,-1
1134,61,-45,996,-10,-20,-11
1135,119,-20,1008,-6,-6,-8
1136,73,6,1004,-10,15,-4
1137,-44,12,1007,-13,24,1
1138,-113,-15,998,-22,13,7
1139,-117,-52,978,-25,-4,11
1140,-35,-64,985,-15,-16,2
1141,84,-30,1016,-5,-18,-9
1142,112,-2,1002,-7,-2,-6
1143,46,11,1002,-11,15,-1
1144,-40,5,1009,-20,17,10
1145,-114,-31,979,-26,9,15
1146,-102,-60,981,-22,-7,13
1147,-10,-53,1005,-11,-20,-3
1148,90,-16,1009,-3,-14,-11
1149,95,-4,997,-10,2,-7
1150,28,11,1002,-15,14,4
1151,-58,0,1003,-22,16,15
1152,-118,-42,982,-27,6,16
1153,-75,-60,992,-18,-10,8
1154,13,-39,1005,-6,-15,-5
1155,88,0,1012,-5,-9,-8
1156,80,3,985,-12,5,-7
1157,7,6,1012,-18,15,3
1158,-72,-3,1007,-24,13,14
1159,-120,-48,979,-25,3,13
1160,-55,-58,994,-14,-12,3
1161,38,-31,1002,-5,-16,-8
1162,95,-5,998,-5,-6,-10
1163,64,4,1003,-12,9,-8
1164,-21,13,1008,-16,15,3
1165,-86,-16,1005,-23,12,13
1166,-111,-50,973,-25,-1,10
1167,-32,-59,996,-14,-15,-1
1168,65,-22,1005,-5,-17,-12
1169,96,-1,1003,-9,-3,-9
1170,49,5,1001,-10,12,-6
1171,-47,11,1009,-18,18,3
1172,-100,-25,984,-27,10,10
1173,-106,-51,980,-24,-6,7
1174,-7,-58,1003,-14,-18,-6
1175,94,-26,1006,-5,-14,-13
1176,96,3,1004,-8,2,-7
1177,25,6,1005,-12,16,-4
1178,-68,9,997,-16,17,2
1179,-124,-30,984,-25,6,7
1180,-81,-58,986,-20,-11,3
1181,16,-45,1010,-11,-19,-8
1182,112,-24,1001,-7,-12,-11
1183,88,-1,1000,-11,7,-6
1184,1,11,994,-13,19,-3
1185,-91,11,1018,-20,17,4
1186,-128,-42,970,-27,2,7
1187,-66,-53,1001,-19,-14,2
1188,49,-51,998,-11,-20,-10
1189,114,-19,1003,-5,-8,-10
1190,86,9,992,-10,10,-5
1191,-28,8,1021,-15,22,-2
1192,-99,0,990,-21,14,7
1193,-131,-52,991,-27,-2,11
1194,-44,-61,973,-19,-18,0
1195,64,-40,1016,-6,-19,-9
1196,123,-4,999,-7,-5,-9
1197,58,0,1010,-11,16,-5
1198,-32,15,1000,-16,18,6
1199,-120,-20,1000,-26,11,14
1200,-111,-57,963,-24,-5,10
1201,-29,-62,1007,-12,-17,-1
1202,86,-19,1005,-4,-17,-11
1203,103,0,1007,-8,1,-9
1204,42,7,997,-12,14,-2
1205,-50,6,1008,-19,17,13
1206,-115,-31,982,-24,7,16
1207,-97,-61,984,-23,-7,12
1208,5,-50,1011,-9,-19,-4
1209,93,-5,1007,-3,-11,-12
1210,89,-5,988,-13,5,-8
1211,17,9,1006,-15,15,2
1212,-70,3,1007,-24,15,15
1213,-118,-46,982,-26,2,13
1214,-70,-59,989,-16,-11,5
1215,33,-39,1009,-7,-17,-8
1216,93,-1,997,-5,-6,-11
1217,76,0,993,-11,8,-8
1218,-10,13,1022,-17,15,2
1219,-87,-7,992,-23,12,14
1220,-119,-53,988,-25,1,12
1221,-46,-52,986,-15,-14,1
1222,60,-34,1006,-5,-16,-11
1223,96,-1,1004,-8,-4,-9
1224,57,5,999,-14,12,-5
1225,-27,14,1015,-16,18,5
1226,-104,-33,992,-27,12,15
1227,-103,-60,975,-25,-1,15
1228,-21,-61,1001,-11,-13,2
1229,78,-26,1008,-6,-11,-7
1230,89,1,1000,-9,3,-4
1231,36,-2,1005,-14,14,6
1232,-47,1,998,-22,13,19
1233,-109,-37,984,-24,5,21
1234,-82,-58,991,-19,-9,14
1235,-2,-38,1007,-9,-17,2
1236,71,-12,1001,-6,-9,-6
1237,78,-5,995,-12,1,0
1238,24,6,999,-16,10,12
1239,-51,0,1003,-20,12,18
1240,-110,-38,994,-25,5,19
1241,-60,-41,982,-15,-10,11
1242,13,-32,1013,-9,-13,-3
1243,73,-14,992,-9,-6,-8
1244,69,0,998,-13,4,-2
1245,8,4,1007,-15,14,7
1246,-74,0,1007,-23,12,16
1247,-100,-47,988,-23,1,13
1248,-48,-51,994,-15,-12,3
1249,38,-26,994,-6,-14,-9
1250,77,-1,1002,-8,-5,-12
1251,61,1,1004,-13,8,-8
1252,-21,10,1010,-17,15,5
1253,-88,-26,999,-26,8,14
1254,-104,-59,974,-24,-3,11
1255,-27,-59,989,-12,-13,-1
1256,65,-23,1018,-4,-13,-11
1257,88,9,996,-7,-1,-9
1258,43,3,1004,-14,12,-5
1259,-40,3,1007,-20,14,6
1260,-105,-23,982,-24,7,13
1261,-95,-61,988,-23,-7,9
1262,-8,-48,1003,-10,-14,-4
1263,86,-13,1008,-5,-12,-10
1264,89,-1,994,-10,2,-8
1265,26,4,1006,-14,15,-4
1266,-62,8,1004,-19,16,9
1267,-121,-34,983,-26,5,13
1268,-78,-58,990,-19,-10,5
1269,18,-48,1007,-9,-16,-9
1270,100,-16,1005,-7,-9,-11
1271,83,8,992,-10,8,-8
1272,-1,12,1006,-17,17,-3
1273,-85,0,1012,-22,14,9
1274,-119,-42,972,-27,2,12
1275,-59,-68,1000,-19,-14,2
1276,52,-40,995,-5,-18,-11
1277,104,-7,1005,-5,-7,-9
1278,67,11,1003,-12,10,-7
1279,-29,8,1009,-17,19,-1
1280,-102,-9,999,-25,12,9
1281,-116,-56,972,-27,-4,8
1282,-33,-54,992,-15,-16,-2
1283,83,-30,1010,-8,-18,-12
1284,100,-1,1001,-10,-2,-8
1285,47,6,1010,-12,14,-5
1286,-52,8,1001,-15,18,0
1287,-121,-24,981,-24,10,7
1288,-101,-54,988,-23,-8,5
1289,-6,-46,998,-13,-18,-6
1290,101,-29,1011,-7,-14,-11
1291,104,1,1005,-9,3,-8
1292,21,3,1002,-13,19,-5
1293,-78,6,996,-19,18,2
1294,-131,-36,988,-26,5,7
1295,-78,-58,984,-21,-13,3
1296,22,-50,1012,-10,-20,-9
1297,116,-15,1001,-6,-13,-11
1298,96,4,995,-12,8,-7
1299,-10,14,1004,-13,21,-1
1300,-92,0,1007,-21,16,6
1301,-131,-48,976,-26,3,7
1302,-68,-61,992,-18,-14,1
1303,59,-47,1009,-8,-20,-10
1304,122,-2,994,-4,-8,-8
1305,69,8,1007,-12,13,-4
1306,-30,14,1006,-17,20,0
1307,-111,-8,1003,-23,14,10
1308,-121,-58,970,-26,-4,10
1309,-39,-61,993,-14,-19,-1
1310,82,-33,1004,-4,-19,-12
1311,111,0,1016,-8,-1,-7
1312,54,5,994,-12,17,-5
1313,-49,11,1016,-18,20,4
1314,-113,-26,981,-26,8,12
1315,-109,-55,982,-23,-6,9
1316,-13,-58,999,-13,-18,-4
1317,95,-17,1017,-4,-16,-12
1318,101,1,995,-10,2,-9
1319,27,0,1012,-12,15,-4
1320,-61,13,996,-20,17,7
1321,-126,-41,988,-28,6,13
1322,-82,-58,981,-20,-11,6
1323,17,-47,1014,-9,-19,-8
1324,109,-7,1006,-6,-11,-12
1325,83,2,992,-12,7,-7
1326,2,13,1008,-13,18,-3
1327,-84,0,1011,-21,17,7
1328,-129,-46,971,-27,2,10
1329,-57,-60,1001,-16,-14,1
1330,46,-38,1003,-8,-17,-10
1331,109,-8,996,-7,-6,-10
1332,75,12,1005,-12,10,-8
1333,-29,19,1010,-17,19,-1
1334,-100,-8,994,-25,14,7
1335,-118,-56,981,-27,-3,8
1336,-40,-60,989,-15,-16,-4
1337,77,-41,1007,-6,-18,-12
1338,116,-3,1003,-8,-2,-8
1339,55,12,1014,-11,16,-5
1340,-54,11,996,-17,22,0
1341,-125,-19,995,-24,11,5
1342,-105,-61,974,-24,-8,7
1343,-12,-60,1006,-16,-15,-3
1344,111,-33,1005,-5,-13,-10
1345,107,2,1006,-8,5,-5
1346,24,8,1006,-12,19,-1
1347,-80,10,997,-20,18,5
1348,-127,-36,982,-27,6,15
1349,-84,-63,999,-22,-10,9
1350,21,-50,989,-10,-16,-4
1351,109,-15,1026,-2,-12,-11
1352,95,5,983,-11,2,-7
1353,1,10,1007,-30,14,6
1354,-78,-8,1007,-24,14,14
1355,-132,-41,982,-27,5,14
1356,-59,-64,987,-16,-13,5
1357,41,-32,1017,-4,-19,-7
1358,99,-4,984,-8,-8,-9
1359,65,0,1010,-10,8,-4
1360,-6,16,1005,-17,15,9
1361,-91,-15,1001,-25,13,15
1362,-115,-55,982,-24,-2,13
1363,-39,-55,990,-13,-14,3
1364,53,-29,1005,-4,-15,-10
1365,90,6,1005,-9,-5,-8
1366,55,4,1001,-15,12,-3
1367,-27,5,1009,-19,15,9
1368,-102,-20,991,-27,9,13
1369,-101,-61,979,-22,-5,8
1370,-23,-44,995,-11,-16,-3
1371,78,-16,1016,-7,-13,-12
1372,90,-4,994,-11,1,-10
1373,29,6,1013,-14,14,-2
1374,-51,14,995,-20,16,6
1375,-113,-38,990,-25,8,11
1376,-85,-55,985,-20,-9,4
1377,5,-46,1007,-10,-17,-9
1378,101,-12,1005,-5,-11,-11
1379,90,6,999,-12,7,-6
1380,4,9,998,-14,17,-3
1381,-86,12,1012,-20,16,4
1382,-121,-43,975,-28,1,6
1383,-59,-60,1001,-16,-14,0
1384,47,-46,996,-10,-18,-11
1385,113,-16,1003,-6,-8,-8
1386,78,15,1004,-9,11,-6
1387,-28,14,1007,-17,21,-3
1388,-107,-6,995,-23,14,1
1389,-129,-41,982,-24,-2,3
1390,-34,-59,986,-18,-18,-6
1391,79,-39,1010,-9,-19,-12
1392,117,-15,1000,-8,-3,-6
1393,62,13,1012,-12,16,-3
1394,-52,8,1002,-17,22,-1
1395,-131,-13,989,-22,12,1
1396,-117,-44,973,-23,-8,0
1397,-10,-52,997,-16,-20,-7
1398,99,-36,1013,-9,-18,-11
1399,123,-8,1001,-10,0,-5
1400,46,5,1013,-14,18,-3
1401,-79,4,995,-18,23,1
1402,-141,-20,978,-22,9,2
1403,-97,-54,994,-21,-10,0
1404,2,-44,998,-12,-20,-7
1405,117,-28,1013,-8,-16,-11
1406,123,-4,996,-10,3,-6
1407,10,6,1005,-11,21,-1
1408,-87,8,1005,-18,19,2
1409,-147,-38,982,-27,6,6
1410,-81,-50,985,-19,-15,4
1411,38,-53,1012,-12,-23,-9
1412,122,-22,998,-7,-12,-10
1413,97,6,1003,-8,9,-3
1414,-10,12,1008,-15,22,-2
1415,-105,-10,998,-23,17,9
1416,-131,-44,980,-24,0,13
1417,-62,-67,990,-18,-17,4
1418,62,-44,997,-6,-22,-8
1419,114,-2,1012,-5,-7,-10
1420,68,7,1000,-14,11,-3
1421,-23,7,1010,-18,17,10
1422,-106,-20,997,-24,11,17
1423,-115,-57,971,-23,-4,14
1424,-34,-59,999,-11,-18,4
1425,73,-14,1013,-4,-16,-8
1426,94,0,998,-9,-1,-9
1427,42,0,1008,-16,12,4
1428,-35,3,1003,-21,14,16
1429,-106,-29,982,-25,7,17
1430,-89,-64,992,-21,-7,13
1431,-5,-42,1002,-6,-15,0
1432,69,0,1012,-5,-9,-8
1433,82,-7,994,-12,3,-4
1434,24,3,1001,-16,12,8
1435,-55,0,1005,-21,14,15
1436,-114,-47,993,-24,5,16
1437,-60,-46,985,-15,-9,9
1438,14,-39,1010,-8,-14,-4
1439,79,-8,993,-7,-7,-8
1440,72,-5,996,-12,6,-1
1441,1,2,1008,-17,14,11
1442,-69,-5,1006,-22,11,17
1443,-104,-48,985,-24,1,16
1444,-46,-51,994,-15,-11,7
1445,37,-27,999,-6,-14,-5
1446,71,-7,997,-10,-3,-8
1447,60,-7,1002,-15,7,1
1448,-12,1,1007,-17,14,14
1449,-79,-18,1001,-23,8,20
1450,-90,-50,975,-21,-1,16
1451,-33,-47,995,-11,-11,6
1452,50,-16,1010,-7,-12,-3
1453,70,-10,997,-9,1,-5
1454,50,-1,1005,-12,7,4
1455,-34,-1,1004,-19,14,14
1456,-92,-29,983,-24,8,17
1457,-84,-49,996,-20,-3,15
1458,-1,-39,998,-12,-8,4
1459,59,-24,1012,-10,-3,-2
1460,81,-12,983,-14,7,3
1461,20,-3,1013,-15,14,13
1462,-44,-4,992,-19,11,21
1463,-107,-40,997,-25,5,26
1464,-56,-43,988,-16,-9,18
1465,-2,-32,1011,-11,-10,3
1466,67,-16,992,-11,-7,1
1467,66,-6,998,-11,1,5
1468,10,17,1001,-16,8,14
1469,-52,-13,1018,-22,7,21
1470,-91,-29,982,-20,0,18
1471,-52,-47,997,-17,-6,10
1472,29,-31,999,-9,-10,-4
1473,57,-3,992,-9,-2,-7
1474,53,-6,1006,-14,4,1
1475,-13,0,1013,-16,10,12
1476,-69,-16,997,-23,8,17
1477,-85,-43,980,-22,-1,15
1478,-25,-42,991,-13,-10,2
1479,45,-13,1008,-8,-10,-8
1480,65,-2,991,-11,1,-9
1481,42,-1,1014,-14,8,0
1482,-30,3,998,-20,12,10
1483,-94,-31,989,-25,8,13
1484,-78,-50,988,-20,-5,9
1485,-13,-42,1003,-12,-13,-2
1486,75,-9,1005,-4,-11,-10
1487,74,-5,995,-11,2,-8
1488,20,4,1006,-14,11,0
1489,-51,-2,1002,-20,12,11
1490,-110,-39,989,-25,5,15
1491,-65,-61,989,-20,-10,6
1492,19,-34,1010,-5,-14,-8
1493,89,-6,998,-6,-7,-11
1494,70,-1,997,-12,6,-8
1495,0,16,1002,-15,15,1
1496,-75,-11,1008,-27,14,14
1497,-117,-53,985,-26,1,14
1498,-44,-66,993,-16,-12,2
1499,49,-33,998,-5,-14,-10
1500,94,1,1009,-3,-5,-9
1501,57,7,993,-12,11,-6
1502,-31,10,1012,-17,16,4
1503,-94,-19,995,-25,10,14
1504,-107,-60,977,-25,-2,11
1505,-29,-59,988,-11,-15,-2
1506,72,-18,1011,-5,-16,-9
1507,93,6,1004,-10,0,-9
1508,41,6,1005,-15,14,-3
1509,-39,10,1007,-20,15,9
1510,-111,-37,978,-26,10,13
1511,-97,-66,988,-21,-6,9
1512,0,-48,998,-8,-17,-6
1513,90,-11,1011,-3,-13,-12
1514,93,9,998,-10,2,-7
1515,17,11,1004,-15,17,-4
1516,-60,5,1004,-22,15,8
1517,-128,-42,980,-28,6,12
1518,-77,-68,989,-21,-10,5
1519,23,-51,1010,-7,-17,-8
1520,103,-11,1005,-3,-10,-12
1521,81,5,995,-10,8,-6
1522,-9,15,1007,-14,19,-1
1523,-83,4,1006,-23,15,9
1524,-126,-52,979,-27,1,12
1525,-58,-65,993,-20,-14,3
1526,55,-46,1002,-7,-17,-10
1527,105,-11,998,-4,-5,-10
1528,67,10,1005,-11,11,-5
1529,-27,17,1005,-16,19,2
1530,-98,-14,1003,-25,10,15
1531,-115,-58,979,-26,-6,15
1532,-35,-59,985,-15,-16,2
1533,66,-30,1013,-6,-15,-9
1534,101,5,1002,-7,-1,-9
1535,52,3,1005,-13,13,-2
1536,-35,6,1004,-19,16,12
1537,-111,-30,989,-26,9,18
1538,-95,-61,982,-22,-7,12
1539,-15,-52,1000,-11,-16,0
1540,77,-13,1014,-5,-12,-9
1541,87,1,996,-11,2,-7
1542,37,0,1006,-16,12,4
1543,-52,0,1005,-21,14,18
1544,-111,-36,982,-26,6,18
1545,-77,-62,990,-19,-9,12
1546,14,-43,1008,-7,-12,-1
1547,81,-11,1008,-6,-3,-6
1548,74,-7,985,-12,8,0
1549,7,-5,1005,-16,15,16
1550,-61,-10,1009,-22,13,26
1551,-108,-49,985,-22,3,27
1552,-49,-57,993,-16,-9,21
1553,24,-32,1009,-7,-11,7
1554,69,-16,984,-8,-3,6
1555,54,-1,1003,-13,3,15
1556,1,4,1007,-17,8,23
1557,-63,-12,1006,-20,7,29
1558,-80,-38,981,-24,-2,26
1559,-44,-46,1000,-13,-9,16
1560,26,-19,994,-9,-10,4
1561,56,-13,998,-10,-3,2
1562,46,7,1012,-13,4,9
1563,-7,1,1000,-18,9,19
1564,-77,-20,996,-23,7,24
1565,-77,-39,983,-20,-5,19
1566,-20,-39,1008,-12,-9,6
1567,44,-9,996,-6,-8,-6
1568,65,-11,1000,-10,1,-5
1569,39,-2,1006,-14,7,6
1570,-40,-1,998,-19,12,17
1571,-89,-35,984,-25,5,22
1572,-65,-47,1002,-19,-7,18
1573,-4,-33,994,-9,-11,1
1574,60,-14,1010,-10,-5,-7
1575,65,-1,983,-12,3,-2
1576,20,1,1005,-16,11,10
1577,-60,-3,1011,-22,12,18
1578,-100,-38,988,-24,2,19
1579,-53,-56,986,-17,-9,11
1580,20,-26,1010,-8,-12,1
1581,67,-13,987,-8,-6,-6
1582,58,-1,1004,-12,5,0
1583,0,4,1009,-17,11,13
1584,-74,-9,1004,-21,10,20
1585,-92,-53,980,-23,-3,18
1586,-31,-55,998,-13,-12,9
1587,36,-14,993,-6,-11,-3
1588,66,-18,1004,-12,-2,-4
1589,50,1,999,-13,7,6
1590,-21,1,1009,-17,12,19
1591,-80,-25,995,-24,6,23
1592,-80,-43,983,-18,-4,18
1593,-21,-39,997,-13,-10,5
1594,48,-21,1008,-8,-8,-5
1595,63,-14,991,-11,2,-1
1596,41,-11,1009,-16,11,11
1597,-33,-2,999,-19,14,21
1598,-86,-34,987,-22,8,26
1599,-68,-54,994,-19,-4,23
1600,-12,-33,1011,-10,-7,12
1601,53,-22,993,-9,-3,3
1602,54,-9,997,-13,3,12
1603,28,1,996,-15,7,21
1604,-42,-3,1015,-19,9,26
1605,-85,-25,982,-21,2,27
1606,-50,-42,1009,-15,-7,20
1607,4,-27,993,-10,-9,6
1608,46,-19,992,-10,-5,2
1609,59,0,998,-10,0,7
1610,-4,12,1010,-16,8,16
1611,-52,-10,1001,-21,7,22
1612,-81,-29,995,-20,-2,19
1613,-41,-41,989,-16,-8,9
1614,25,-27,1002,-8,-10,-1
1615,60,-12,996,-11,-2,-3
1616,53,-4,1008,-14,6,5
1617,-9,4,1003,-17,11,14
1618,-82,-27,999,-24,9,19
1619,-82,-48,983,-21,-3,15
1620,-23,-47,998,-11,-11,5
1621,45,-11,1003,-7,-10,-5
1622,63,-9,998,-13,2,-4
1623,43,1,1008,-14,8,7
1624,-34,-1,999,-20,12,17
1625,-88,-39,989,-23,6,18
1626,-74,-39,993,-18,-6,13
1627,-9,-37,1001,-11,-12,1
1628,63,-9,1004,-7,-9,-7
1629,67,-6,992,-12,2,-3
1630,26,2,1002,-15,9,6
1631,-51,-3,1003,-21,12,15
1632,-100,-44,994,-24,3,18
1633,-59,-47,985,-16,-9,10
1634,15,-34,1012,-8,-12,-2
1635,68,-7,999,-9,-6,-8
1636,68,-1,989,-12,7,-4
1637,-3,7,1010,-17,13,10
1638,-68,-8,1005,-23,10,15
1639,-100,-48,989,-23,0,15
1640,-46,-55,990,-14,-10,7
1641,40,-24,1002,-6,-13,-7
1642,79,-3,996,-7,-2,-8
1643,56,-1,1007,-15,11,1
1644,-15,5,1006,-21,15,14
1645,-86,-38,997,-24,12,19
1646,-96,-57,981,-22,-2,19
1647,-25,-53,992,-11,-9,9
1648,54,-14,1013,-5,-8,-3
1649,68,0,994,-10,1,0
1650,40,5,1004,-13,8,11
1651,-30,4,1009,-21,9,20
1652,-90,-34,986,-24,6,19
1653,-75,-46,983,-18,-5,14
1654,-11,-39,1011,-11,-11,2
1655,58,-8,996,-7,-7,-8
1656,71,-6,994,-12,2,-4
1657,24,7,1001,-18,10,9
1658,-45,-3,1007,-21,11,16
1659,-101,-39,990,-24,4,15
1660,-59,-46,990,-16,-9,8
1661,14,-31,1006,-6,-12,-5
1662,74,-9,1001,-9,-6,-8
1663,64,2,993,-11,5,-6
1664,1,18,1008,-17,13,3
1665,-70,-17,1009,-27,11,12
1666,-102,-49,980,-23,1,10
1667,-50,-62,998,-18,-12,1
1668,48,-37,995,-5,-14,-9
1669,85,4,998,-6,-3,-9
1670,53,8,1011,-14,10,-5
1671,-28,24,1002,-16,16,3
1672,-89,-20,1003,-27,9,12
1673,-103,-65,977,-24,-4,9
1674,-29,-62,988,-12,-14,-3
1675,77,-27,1009,-4,-14,-12
1676,93,9,1007,-7,0,-7
1677,38,11,1002,-12,14,-4
1678,-49,17,1008,-17,17,3
1679,-111,-30,979,-28,7,12
1680,-94,-61,991,-22,-9,8
1681,-5,-54,993,-11,-17,-5
1682,95,-28,1014,-6,-13,-13
1683,99,7,1001,-8,2,-6
1684,12,12,1003,-14,19,-3
1685,-76,11,1001,-18,17,4
1686,-121,-35,981,-28,4,9
1687,-79,-64,992,-23,-11,5
1688,33,-49,1004,-10,-19,-10
1689,115,-24,1009,-6,-10,-12
1690,84,13,992,-12,3,-6
1691,-16,15,1004,-18,16,-3
1692,-96,11,1003,-22,15,3
1693,-129,-44,978,-28,-1,7
1694,-47,-63,992,-20,-18,1
1695,67,-45,1009,-10,-18,-13
1696,121,-16,987,-6,-7,-9
1697,68,18,1020,-9,15,-4
1698,-42,15,999,-17,22,-1
1699,-129,-7,993,-21,14,4
1700,-119,-47,980,-25,-7,0
1701,-23,-53,991,-13,-20,-7
1702,94,-36,1005,-10,-19,-12
1703,123,-13,1009,-9,-3,-9
1704,53,11,1013,-11,18,-3
1705,-75,0,989,-18,24,1
1706,-151,-14,986,-20,11,0
1707,-102,-41,988,-18,-10,-6
1708,8,-42,990,-16,-22,-11
1709,127,-27,1021,-11,-18,-11
1710,122,-12,1001,-11,5,-6
1711,22,2,1010,-14,23,-1
1712,-107,-5,988,-20,21,1
1713,-163,-30,983,-19,6,-2
1714,-78,-41,989,-15,-18,-9
1715,43,-36,1010,-12,-25,-12
1716,151,-22,1009,-8,-15,-12
1717,113,2,1001,-12,10,-5
1718,-16,5,999,-16,26,1
1719,-136,-9,1005,-21,22,1
1720,-159,-42,967,-21,1,-3
1721,-61,-42,1006,-14,-20,-10
1722,94,-40,996,-12,-27,-13
1723,148,-14,1011,-7,-8,-9
1724,96,5,1003,-12,16,-4
1725,-63,5,1011,-18,30,2
1726,-147,-14,985,-21,18,0
1727,-153,-45,981,-18,-5,-5
1728,-15,-42,992,-12,-25,-12
1729,111,-36,1010,-10,-23,-12
1730,150,-4,1006,-9,-3,-9
1731,65,1,1016,-13,19,-2
1732,-79,0,996,-19,27,1
1733,-175,-26,985,-21,15,0
1734,-121,-43,971,-18,-12,-8
1735,7,-43,1013,-12,-25,-12
1736,137,-20,1002,-10,-22,-12
1737,143,-5,1014,-11,3,-8
1738,35,0,1004,-14,23,-1
1739,-118,-6,991,-20,27,3
1740,-170,-31,975,-18,6,-4
1741,-102,-46,996,-17,-17,-9
1742,44,-38,1002,-11,-28,-12
1743,154,-12,1021,-9,-14,-10
1744,129,-1,996,-13,8,-5
1745,-13,8,1006,-16,27,1
1746,-128,-14,992,-21,21,-1
1747,-180,-39,976,-21,3,-4
1748,-64,-45,992,-15,-20,-11
1749,82,-37,1010,-10,-27,-15
1750,157,-11,1003,-9,-11,-9
1751,110,2,1004,-13,15,-4
1752,-50,4,1011,-19,29,1
1753,-156,-20,988,-21,20,0
1754,-158,-43,980,-20,-5,-6
1755,-30,-49,993,-15,-24,-11
1756,109,-34,1003,-8,-25,-13
1757,158,-4,1009,-10,-5,-9
1758,73,10,1017,-14,20,-2
1759,-71,2,992,-18,29,1
1760,-170,-28,992,-22,15,-1
1761,-140,-42,969,-17,-10,-6
1762,0,-52,999,-13,-28,-13
1763,136,-27,1011,-8,-23,-13
1764,144,-1,1012,-9,3,-6
1765,52,6,1007,-14,24,-1
1766,-110,-4,997,-19,26,4
1767,-172,-28,969,-21,8,-1
1768,-108,-45,996,-18,-14,-9
1769,35,-40,1002,-13,-28,-12
1770,150,-20,1009,-9,-17,-11
1771,137,-5,1010,-12,7,-4
1772,2,3,998,-15,28,2
1773,-132,-5,995,-20,23,2
1774,-169,-40,986,-19,3,-4
1775,-74,-40,980,-15,-19,-9
1776,71,-35,1021,-12,-28,-13
1777,160,-22,998,-8,-14,-9
1778,98,-2,1007,-12,13,-2
1779,-30,10,1003,-16,26,2
1780,-147,-16,1000,-21,22,1
1781,-154,-35,974,-18,-2,-5
1782,-34,-44,1000,-14,-24,-10
1783,99,-38,996,-12,-25,-13
1784,150,-7,1015,-9,-5,-9
1785,79,0,1007,-13,17,-3
1786,-74,5,1003,-17,28,1
1787,-153,-23,990,-19,16,-2
1788,-142,-43,973,-19,-6,-6
1789,-1,-41,995,-12,-27,-11
1790,128,-27,1016,-10,-22,-13
1791,143,-4,1005,-10,0,-6
1792,49,3,1013,-14,22,-2
1793,-105,0,996,-18,27,2
1794,-168,-25,977,-22,10,-3
1795,-108,-40,984,-17,-15,-9
1796,21,-45,1009,-15,-27,-12
1797,148,-22,1008,-8,-18,-12
1798,136,-8,1011,-10,7,-5
1799,7,8,993,-15,26,1
1800,-127,-9,1010,-19,25,0
1801,-177,-33,965,-21,6,-3
1802,-81,-41,996,-16,-20,-10
1803,66,-47,1011,-11,-28,-14
1804,152,-17,1008,-8,-12,-11
1805,119,-3,995,-10,11,-6
1806,-30,9,1015,-15,30,1
1807,-140,-8,993,-21,22,0
1808,-167,-34,977,-20,0,-4
1809,-47,-44,994,-18,-23,-11
1810,90,-37,1002,-12,-25,-13
1811,158,-22,1004,-11,-8,-8
1812,93,0,1014,-12,17,-2
1813,-63,-1,1000,-17,29,0
1814,-158,-19,992,-18,16,-1
1815,-143,-33,970,-20,-6,-5
1816,-16,-40,998,-13,-26,-13
1817,123,-23,1014,-11,-26,-14
1818,148,-13,1001,-12,-2,-8
1819,58,5,1023,-13,23,-2
1820,-91,-10,982,-21,29,2
1821,-167,-26,989,-20,14,-2
1822,-119,-45,978,-17,-13,-7
1823,11,-31,1008,-13,-26,-12
1824,144,-27,1010,-10,-21,-13
1825,135,-1,1010,-11,5,-6
1826,27,0,1000,-15,24,-1
1827,-117,-11,998,-19,26,1
1828,-174,-31,976,-21,7,-3
1829,-93,-45,985,-16,-16,-8
1830,55,-38,1016,-10,-26,-12
1831,147,-20,1001,-10,-14,-9
1832,124,1,1001,-11,9,-7
1833,-15,7,1007,-16,26,2
1834,-127,-12,991,-21,23,0
1835,-173,-37,981,-19,2,-2
1836,-61,-40,997,-15,-23,-10
1837,85,-42,1003,-12,-26,-13
1838,155,-19,999,-10,-9,-9
1839,106,6,1017,-10,16,-3
1840,-48,3,999,-18,29,1
1841,-160,-12,999,-19,20,0
1842,-150,-44,967,-20,-5,-6
1843,-40,-47,998,-14,-24,-12
1844,123,-32,1003,-9,-27,-13
1845,147,-10,1015,-10,-3,-9
1846,81,6,1005,-12,20,-3
1847,-81,2,1007,-18,30,0
1848,-168,-25,974,-22,15,-3
1849,-131,-43,985,-19,-12,-7
1850,0,-42,999,-14,-27,-13
1851,136,-25,1013,-12,-22,-13
1852,151,-8,1012,-11,1,-7
1853,28,2,1007,-16,25,1
1854,-104,-4,989,-19,26,1
1855,-177,-31,982,-21,10,-2
1856,-106,-42,983,-19,-17,-8
1857,48,-40,1016,-10,-29,-14
1858,147,-21,1005,-10,-16,-10
1859,133,0,1005,-13,8,-6
1860,-1,1,1009,-15,26,1
1861,-138,-10,988,-22,24,1
1862,-171,-35,982,-20,3,-3
1863,-68,-47,992,-14,-21,-10
1864,80,-36,1006,-13,-27,-12
1865,158,-18,1000,-9,-11,-10
1866,110,8,1017,-11,14,-4
1867,-45,3,996,-19,29,1
1868,-156,-13,1001,-19,21,-2
1869,-156,-46,973,-22,-3,-5
1870,-42,-52,991,-15,-23,-11
1871,112,-38,1010,-10,-27,-14
1872,160,-10,1003,-10,-4,-9
1873,83,7,1021,-12,20,-2
1874,-77,4,993,-19,29,1
1875,-178,-19,994,-21,18,-1
1876,-135,-48,966,-21,-10,-8
1877,-8,-45,1005,-13,-26,-11
1878,144,-31,1012,-10,-25,-13
1879,150,-6,1008,-8,1,-7
1880,48,9,1008,-15,24,-1
1881,-113,0,1000,-19,29,1
1882,-169,-29,966,-21,10,-3
1883,-119,-43,996,-18,-15,-9
1884,35,-49,1001,-14,-28,-14
1885,153,-27,1013,-9,-17,-13
1886,139,-6,1003,-10,7,-5
1887,-1,7,1002,-13,27,0
1888,-134,0,1000,-19,25,0
1889,-171,-32,979,-22,4,-3
1890,-81,-43,991,-17,-19,-11
1891,79,-43,1011,-13,-29,-13
1892,156,-19,1002,-9,-11,-10
1893,109,0,1005,-11,13,-3
1894,-39,5,1010,-18,29,2
1895,-151,-19,987,-20,21,0
1896,-161,-36,976,-18,-3,-5
1897,-41,-45,997,-14,-23,-11
1898,108,-29,1001,-8,-25,-12
1899,154,-7,1010,-9,-5,-8
1900,83,6,1014,-17,18,-2
1901,-76,-5,998,-19,30,1
1902,-165,-28,991,-22,15,-1
1903,-142,-46,966,-17,-8,-7
1904,-1,-42,999,-13,-28,-14
1905,131,-22,1020,-9,-23,-13
1906,154,5,1003,-10,0,-8
1907,46,0,1015,-14,23,-2
1908,-112,-6,993,-21,29,1
1909,-173,-33,975,-21,9,-2
1910,-116,-51,986,-17,-15,-9
1911,31,-37,1007,-11,-28,-13
1912,156,-25,1013,-8,-17,-12
1913,137,4,1006,-11,8,-4
1914,4,8,1001,-18,27,2
1915,-128,-13,1002,-18,26,0
1916,-181,-36,969,-22,5,-3
1917,-79,-46,993,-14,-20,-11
1918,74,-40,1018,-10,-29,-13
1919,158,-19,996,-10,-12,-9
1920,119,3,1008,-12,14,-5
1921,-37,10,1007,-18,30,2
1922,-156,-8,988,-20,23,1
1923,-163,-47,978,-20,-2,-7
1924,-49,-47,997,-17,-22,-10
1925,101,-41,997,-9,-27,-12
1926,162,-8,1013,-8,-6,-10
1927,86,5,1008,-14,18,0
1928,-70,8,1000,-18,30,1
1929,-167,-23,993,-22,17,-2
1930,-143,-38,961,-20,-8,-7
1931,-9,-47,1005,-15,-26,-14
1932,126,-30,1009,-12,-23,-13
1933,156,-13,1007,-9,-1,-8
1934,53,9,1014,-11,21,-1
1935,-100,-1,994,-20,29,1
1936,-176,-24,975,-20,12,-2
1937,-115,-49,986,-19,-15,-7
1938,24,-40,1004,-12,-28,-11
1939,152,-24,1013,-9,-20,-11
1940,144,-3,1009,-11,5,-6
1941,13,11,1004,-15,27,2
1942,-127,-8,998,-19,26,1
1943,-182,-33,972,-21,5,-2
1944,-81,-45,994,-15,-20,-10
1945,62,-39,1010,-12,-29,-13
1946,158,-21,1013,-10,-14,-10
1947,127,-4,995,-11,10,-4
1948,-31,12,1008,-15,30,2
1949,-146,-9,997,-20,21,0
1950,-173,-38,973,-21,0,-5
1951,-51,-48,997,-16,-24,-10
1952,100,-34,1005,-10,-26,-14
1953,158,-17,1001,-9,-8,-9
1954,97,7,1017,-11,16,-3
1955,-65,1,1002,-19,29,2
1956,-163,-12,990,-19,18,0
1957,-149,-46,972,-21,-6,-5
1958,-23,-42,997,-13,-26,-11
1959,128,-33,1005,-11,-27,-11
1960,149,-6,1013,-9,-1,-8
1961,62,2,1013,-15,21,0
1962,-93,-5,990,-19,29,1
1963,-172,-26,981,-21,13,-1
1964,-120,-40,982,-18,-13,-7
1965,14,-45,1002,-14,-26,-12
1966,150,-16,1015,-9,-20,-13
1967,141,-6,1011,-13,5,-7
1968,25,-1,1004,-15,25,1
1969,-125,-10,993,-20,27,0
1970,-178,-36,978,-20,6,-3
1971,-88,-38,990,-14,-18,-8
1972,55,-38,1007,-11,-27,-12
1973,153,-13,1017,-9,-14,-11
1974,133,-5,993,-15,11,-4
1975,-25,7,1013,-14,30,1
1976,-138,-16,992,-21,23,-1
1977,-169,-40,979,-20,2,-5
1978,-61,-45,993,-15,-22,-10
1979,96,-31,1007,-13,-26,-13
1980,158,-13,1004,-9,-8,-10
1981,94,14,1011,-12,17,-2
1982,-53,1,1005,-21,29,0
1983,-162,-30,991,-21,18,0
1984,-151,-38,975,-20,-7,-5
1985,-17,-48,993,-17,-26,-13
1986,113,-27,1010,-9,-23,-12
1987,158,-4,1010,-12,-1,-8
1988,66,4,1015,-14,23,-1
1989,-91,-3,990,-20,28,3
1990,-167,-30,988,-19,13,-1
1991,-135,-42,971,-17,-12,-6
1992,19,-42,1003,-13,-29,-12
1993,138,-21,1016,-9,-20,-12
1994,145,-1,1005,-10,4,-6
1995,32,5,1011,-16,25,0
1996,-124,-16,990,-22,27,2
1997,-179,-30,972,-20,7,-3
1998,-95,-48,994,-16,-17,-9
1999,47,-39,1005,-11,-27,-13
2000,160,-18,1013,-9,-16,-11
2001,130,0,1006,-12,9,-5
2002,-15,10,995,-17,28,2
2003,-137,-15,1002,-20,22,0
2004,-180,-40,971,-19,2,-3
2005,-62,-42,995,-14,-23,-9
2006,86,-42,1009,-11,-27,-12
2007,160,-8,1007,-8,-9,-8
2008,119,3,1004,-12,14,-3
2009,-56,4,1014,-19,30,2
2010,-161,-17,981,-21,20,0
2011,-156,-43,984,-19,-5,-7
2012,-30,-53,986,-16,-26,-13
2013,114,-30,1007,-9,-26,-12
2014,164,-15,1015,-9,-5,-10
2015,65,11,1014,-11,21,0
2016,-71,2,995,-18,28,2
2017,-185,-25,988,-21,16,-1
2018,-130,-42,971,-19,-13,-7
2019,-2,-40,998,-13,-27,-12
2020,137,-27,1018,-9,-24,-12
2021,153,-4,1006,-12,2,-7
2022,43,5,1010,-14,25,-1
2023,-112,-13,987,-21,28,2
2024,-181,-25,976,-20,9,-3
2025,-106,-46,992,-18,-16,-9
2026,36,-33,1002,-12,-27,-14
2027,159,-21,1016,-10,-19,-13
2028,140,-1,1005,-11,7,-6
2029,0,4,1001,-17,27,1
2030,-133,-18,999,-20,24,2
2031,-180,-31,977,-20,4,-4
2032,-80,-47,990,-13,-24,-12
2033,75,-39,1014,-4,-33,-16
2034,161,-16,1007,-9,-13,-10
2035,112,1,1003,-12,12,-4
2036,-36,7,1005,-19,30,1
2037,-150,-18,995,-21,22,-1
2038,-170,-41,976,-18,-2,-4
2039,-37,-47,989,-15,-23,-11
2040,98,-36,1010,-10,-26,-13
2041,159,-6,1007,-10,-8,-9
2042,86,4,1011,-14,18,-1
2043,-72,-1,1002,-19,30,3
2044,-166,-26,991,-21,17,-1
2045,-144,-39,964,-19,-8,-7
2046,-11,-49,1006,-12,-28,-11
2047,130,-20,1007,-9,-25,-14
2048,154,-6,1016,-12,-2,-8
2049,55,10,1008,-14,23,0
2050,-107,-7,998,-22,29,3
2051,-164,-30,972,-20,10,-3
2052,-122,-40,988,-17,-14,-7
2053,22,-46,1001,-14,-27,-13
2054,152,-24,1021,-8,-19,-11
2055,144,-6,1000,-10,5,-5
2056,14,5,1004,-14,26,0
2057,-125,-2,999,-19,27,2
2058,-176,-26,975,-22,7,-3
2059,-86,-43,987,-17,-18,-10
2060,62,-39,1018,-13,-27,-13
2061,155,-29,1001,-11,-13,-10
2062,127,3,1003,-9,11,-5
2063,-22,5,1008,-15,29,0
2064,-150,-8,991,-21,22,0
2065,-165,-37,977,-20,0,-5
2066,-65,-45,1001,-16,-23,-10
2067,98,-36,996,-11,-28,-13
2068,161,-19,1013,-10,-9,-11
2069,96,6,1008,-14,16,-2
2070,-53,3,1004,-18,29,0
2071,-162,-24,993,-20,19,1
2072,-151,-38,969,-20,-6,-6
2073,-31,-52,989,-14,-25,-12
2074,121,-25,1017,-11,-26,-12
2075,154,-9,1002,-12,-3,-9
2076,69,7,1020,-13,21,-2
2077,-88,-5,997,-18,29,1
2078,-172,-23,972,-20,15,-1
2079,-125,-50,986,-18,-11,-9
2080,5,-38,1000,-12,-27,-11
2081,150,-21,1014,-9,-22,-12
2082,141,-5,1014,-11,4,-6
2083,26,8,1002,-17,26,0
2084,-114,-8,995,-20,27,0
2085,-182,-33,976,-22,8,-1
2086,-97,-45,986,-18,-18,-8
2087,53,-42,1016,-10,-27,-14
2088,153,-16,1009,-9,-16,-10
2089,131,0,997,-12,9,-5
2090,-8,10,1012,-17,30,0
2091,-140,-8,993,-23,25,1
2092,-179,-42,973,-21,2,-4
2093,-65,-43,1000,-15,-22,-10
2094,88,-39,1000,-11,-28,-13
2095,158,-15,1005,-8,-11,-9
2096,111,8,1014,-13,15,-3
2097,-48,5,1003,-20,29,0
2098,-161,-18,990,-22,20,0
2099,-158,-44,976,-22,-3,-7
2100,-34,-43,989,-14,-25,-11
2101,114,-30,1011,-12,-27,-12
2102,161,-4,1012,-12,-5,-9
2103,74,-3,1011,-15,22,-1
2104,-85,4,999,-18,29,2
2105,-168,-33,983,-23,15,-2
2106,-134,-48,975,-18,-10,-7
2107,-1,-41,993,-11,-27,-12
2108,145,-18,1023,-9,-23,-14
2109,150,0,1008,-11,3,-5
2110,33,13,1005,-15,25,1
2111,-109,-7,998,-23,27,0
2112,-181,-33,973,-21,10,-3
2113,-107,-49,984,-19,-16,-9
2114,46,-45,1012,-10,-29,-15
2115,152,-18,1011,-8,-17,-10
2116,138,2,994,-13,9,-4
2117,-7,13,1012,-14,29,1
2118,-131,-8,995,-22,24,1
2119,-182,-38,974,-23,3,-4
2120,-71,-54,994,-16,-22,-11
2121,84,-45,1013,-12,-29,-14
2122,155,-16,995,-8,-12,-8
2123,114,12,1013,-11,14,-4
2124,-43,5,1012,-19,30,1
2125,-156,-10,983,-21,20,3
2126,-166,-40,983,-21,-4,-4
2127,-40,-50,988,-17,-26,-10
2128,108,-37,1009,-11,-28,-13
2129,161,-12,1008,-9,-7,-10
2130,84,8,1014,-12,20,0
2131,-63,4,1002,-18,30,0
2132,-175,-27,986,-21,18,-1
2133,-149,-41,968,-19,-9,-7
2134,-14,-47,1005,-13,-28,-11
2135,136,-26,1008,-10,-25,-13
2136,162,-8,1014,-10,1,-8
2137,56,9,1008,-15,24,0
2138,-108,-3,994,-21,30,3
2139,-178,-29,977,-20,12,-4
2140,-124,-46,983,-19,-14,-7
2141,26,-39,1008,-12,-29,-13
2142,159,-24,1012,-9,-20,-12
2143,148,-8,1005,-10,7,-6
2144,6,11,1001,-15,28,0
2145,-128,-15,999,-19,27,1
2146,-185,-23,978,-20,5,-3
2147,-83,-46,982,-18,-19,-8
2148,70,-35,1023,-12,-29,-15
2149,157,-20,994,-11,-15,-10
2150,120,-1,1009,-11,12,-4
2151,-29,6,1012,-17,30,1
2152,-153,-23,985,-20,23,0
2153,-163,-35,979,-17,-2,-7
2154,-52,-47,994,-16,-22,-11
2155,100,-28,1004,-9,-28,-13
2156,166,-11,1006,-10,-9,-10
2157,84,9,1015,-15,19,-2
2158,-62,0,1002,-19,28,-1
2159,-164,-26,989,-22,16,-2
2160,-150,-46,969,-20,-7,-7
2161,-10,-45,1001,-13,-26,-13
2162,127,-29,1014,-10,-22,-13
2163,149,1,1000,-10,1,-6
2164,60,10,1018,-15,23,-1
2165,-100,-10,992,-20,27,3
2166,-178,-25,970,-21,12,-2
2167,-121,-48,985,-18,-14,-9
2168,21,-42,1006,-13,-29,-13
2169,149,-22,1007,-9,-20,-10
2170,144,0,1011,-11,6,-7
2171,18,2,1003,-15,25,1
2172,-126,-2,992,-18,26,1
2173,-180,-32,979,-23,4,-2
2174,-86,-46,989,-16,-20,-11
2175,61,-42,1018,-10,-28,-13
2176,157,-22,1000,-9,-14,-12
2177,122,-3,1008,-9,10,-5
2178,-16,10,1005,-16,28,1
2179,-148,-6,999,-21,24,0
2180,-171,-44,974,-21,0,-5
2181,-52,-46,999,-15,-23,-9
2182,97,-40,1001,-11,-29,-13
2183,157,-14,1007,-7,-7,-9
2184,109,9,1011,-13,16,-4
2185,-72,5,1005,-18,31,1
2186,-160,-21,989,-22,17,-2
2187,-151,-47,977,-19,-5,-6
2188,-16,-46,987,-12,-26,-11
2189,121,-28,1017,-8,-23,-13
2190,154,0,1007,-10,-1,-8
2191,63,7,1013,-16,21,0
2192,-91,-2,996,-20,28,1
2193,-178,-34,974,-23,13,-2
2194,-121,-47,983,-17,-13,-9
2195,11,-49,1000,-12,-26,-12
2196,147,-18,1011,-6,-20,-12
2197,152,2,1016,-10,4,-8
2198,24,6,997,-17,27,2
2199,-125,-4,997,-20,27,1
2200,-172,-39,971,-21,7,-4
2201,-100,-49,992,-17,-17,-8
2202,51,-41,1002,-11,-29,-12
2203,162,-22,1018,-8,-15,-11
2204,129,1,998,-12,10,-3
2205,-21,14,1005,-15,30,1
2206,-136,-15,1000,-22,22,-1
2207,-177,-37,975,-21,1,-3
2208,-62,-45,991,-16,-22,-11
2209,95,-43,1015,-12,-28,-16
2210,156,-16,995,-9,-10,-8
2211,108,5,1013,-13,14,-3
2212,-51,8,1007,-19,30,1
2213,-163,-18,990,-22,21,2
2214,-150,-36,976,-20,-6,-7
2215,-37,-54,991,-15,-25,-11
2216,119,-27,1007,-9,-27,-14
2217,155,-11,1017,-11,-4,-7
2218,75,9,1003,-13,21,-1
2219,-85,-3,1004,-19,30,3
2220,-166,-25,980,-19,14,-2
2221,-141,-51,974,-19,-9,-5
2222,9,-35,1002,-12,-28,-14
2223,138,-29,1014,-11,-21,-13
2224,148,-1,1005,-10,4,-7
2225,39,10,1014,-15,25,0
2226,-112,-6,992,-22,29,1
2227,-183,-33,971,-21,10,-1
2228,-104,-46,990,-18,-16,-10
2229,40,-39,1003,-13,-28,-13
2230,154,-19,1016,-9,-17,-10
2231,139,-1,1000,-12,9,-6
2232,-8,3,1010,-17,28,2
2233,-136,-10,988,-22,23,1
2234,-182,-34,980,-21,3,-4
2235,-66,-44,988,-15,-22,-10
2236,73,-37,1017,-11,-27,-14
2237,169,-19,996,-10,-13,-12
2238,107,7,1014,-10,15,-3
2239,-36,5,1001,-17,29,2
2240,-158,-19,999,-21,21,-1
2241,-163,-43,969,-21,-5,-6
2242,-42,-48,999,-16,-24,-12
2243,111,-35,1003,-10,-27,-14
2244,158,-11,1008,-8,-6,-9
2245,85,9,1015,-12,19,-3
2246,-77,0,999,-19,30,2
2247,-169,-23,988,-21,16,-1
2248,-142,-45,971,-19,-9,-5
2249,0,-38,996,-12,-27,-12
2250,131,-33,1014,-10,-22,-12
2251,154,0,1011,-10,0,-8
2252,47,6,1007,-16,24,0
2253,-108,-6,1001,-20,29,1
2254,-177,-32,970,-20,11,-2
2255,-117,-39,988,-17,-15,-8
2256,33,-39,1005,-12,-29,-13
2257,150,-18,1020,-7,-18,-13
2258,142,-5,996,-13,6,-5
2259,9,6,1012,-15,28,0
2260,-136,-13,994,-21,27,2
2261,-177,-34,975,-21,5,-4
2262,-79,-53,991,-15,-20,-11
2263,60,-34,1014,-9,-27,-12
2264,162,-15,1004,-8,-13,-12
2265,124,4,1009,-10,12,-5
2266,-29,10,1006,-17,29,1
2267,-153,-16,989,-23,21,1
2268,-169,-46,979,-21,-2,-6
2269,-52,-52,994,-15,-24,-10
2270,110,-38,1006,-9,-28,-14
2271,155,-10,1003,-7,-7,-8
2272,96,13,1020,-11,17,-2
2273,-67,3,996,-19,30,1
2274,-169,-18,994,-21,19,0
2275,-146,-51,969,-21,-7,-7
2276,-15,-46,1000,-12,-26,-13
2277,130,-25,1007,-8,-25,-12
2278,151,-8,1015,-11,1,-8
2279,60,2,1007,-14,23,-1
2280,-96,-6,999,-20,29,2
2281,-175,-32,971,-21,12,-2
2282,-121,-42,982,-17,-13,-8
2283,18,-41,1006,-14,-29,-14
2284,147,-23,1014,-8,-19,-13
2285,152,-3,1007,-10,5,-6
2286,14,13,1007,-16,26,2
2287,-118,-13,990,-21,25,0
2288,-182,-36,978,-22,8,-1
2289,-92,-46,990,-16,-18,-8
2290,60,-35,1011,-11,-28,-15
2291,161,-24,1012,-10,-16,-12
2292,127,0,996,-11,10,-4
2293,-20,7,1004,-16,29,1
2294,-146,-15,1002,-21,23,2
2295,-171,-30,970,-19,0,-6
2296,-61,-48,1001,-15,-23,-12
2297,96,-31,1005,-10,-28,-14
2298,160,-15,1004,-8,-8,-10
2299,102,4,1010,-11,17,-3
2300,-62,2,1008,-19,30,2
2301,-159,-26,988,-20,18,-1
2302,-155,-41,973,-19,-5,-5
2303,-22,-49,987,-14,-26,-12
2304,124,-22,1021,-7,-25,-14
2305,153,-7,1003,-12,-3,-8
2306,65,5,1012,-15,22,-2
2307,-81,-4,1003,-21,28,1
2308,-180,-30,972,-22,15,-1
2309,-124,-44,980,-16,-12,-7
2310,9,-45,1003,-13,-27,-13
2311,141,-16,1015,-8,-22,-12
2312,148,-6,1007,-11,3,-7
2313,29,7,1014,-15,25,-1
2314,-119,-16,984,-21,26,3
2315,-179,-28,979,-20,9,-2
2316,-93,-45,990,-17,-19,-10
2317,42,-34,1006,-10,-27,-12
2318,160,-20,1012,-10,-16,-12
2319,131,-2,1005,-11,9,-6
2320,-11,6,1000,-16,28,2
2321,-143,-6,1001,-21,24,1
2322,-168,-41,974,-21,2,-4
2323,-72,-50,990,-15,-21,-8
2324,87,-38,1012,-13,-29,-13
2325,165,-24,998,-10,-11,-11
2326,99,9,1014,-12,16,-2
2327,-45,8,1001,-19,29,3
2328,-157,-12,1001,-20,18,0
2329,-164,-38,964,-21,-5,-4
2330,-30,-49,1001,-15,-26,-13
2331,120,-41,1003,-9,-27,-12
2332,151,-7,1010,-7,-4,-8
2333,83,7,1012,-13,21,-3
2334,-82,0,1001,-19,29,2
2335,-174,-16,974,-21,13,-1
2336,-137,-46,988,-19,-12,-7
2337,5,-42,989,-13,-28,-13
2338,133,-27,1018,-9,-22,-12
2339,160,-8,1010,-10,0,-9
2340,39,12,1008,-14,25,1
2341,-108,-8,990,-21,28,1
2342,-183,-27,981,-21,11,-2
2343,-105,-51,981,-19,-16,-8
2344,34,-33,1008,-11,-27,-13
2345,159,-28,1017,-10,-18,-12
2346,137,0,999,-11,9,-6
2347,0,9,1005,-17,28,1
2348,-140,-13,998,-20,25,0
2349,-175,-31,972,-21,4,-4
2350,-76,-47,992,-15,-20,-11
2351,84,-25,1019,-11,-28,-16
2352,158,-27,993,-12,-11,-10
2353,112,5,1013,-11,14,-4
2354,-43,-4,1008,-19,30,3
2355,-158,-15,988,-20,22,-2
2356,-165,-41,975,-20,-3,-5
2357,-36,-41,1000,-15,-24,-12
2358,114,-27,1007,-12,-26,-14
2359,160,-8,1004,-11,-5,-9
2360,80,3,1017,-13,20,-3
2361,-82,-3,997,-20,30,3
2362,-167,-28,990,-21,15,-2
2363,-143,-52,968,-19,-11,-6
2364,-5,-32,998,-11,-28,-12
2365,141,-25,1017,-9,-25,-13
2366,148,-1,1006,-12,4,-6
2367,44,8,1016,-19,23,1
2368,-107,-10,994,-17,40,4
2369,-185,-33,970,-20,11,0
2370,-106,-49,988,-16,-17,-9
2371,33,-42,1010,-10,-29,-13
2372,153,-18,1006,-7,-19,-10
2373,144,0,1014,-9,7,-7
2374,2,12,996,-16,28,2
2375,-135,-16,997,-22,25,3
2376,-177,-32,974,-21,3,-4
2377,-78,-52,991,-16,-19,-10
2378,73,-32,1014,-9,-29,-14
2379,164,-23,1006,-11,-12,-11
2380,118,7,1003,-12,13,-5
2381,-32,8,1009,-19,29,3
2382,-161,-16,986,-23,23,0
2383,-167,-38,982,-20,-3,-5
2384,-44,-52,995,-16,-24,-11
2385,105,-33,1000,-9,-26,-12
2386,168,-11,1014,-6,-7,-9
2387,84,11,1005,-12,20,-2
2388,-68,3,1006,-19,30,1
2389,-172,-26,986,-22,16,-1
2390,-147,-41,972,-21,-8,-6
2391,-4,-46,993,-14,-28,-13
2392,122,-27,1020,-9,-22,-14
2393,163,-6,1004,-10,-1,-7
2394,53,12,1017,-12,24,-1
2395,-101,-6,990,-21,28,1
2396,-179,-31,976,-23,12,-2
2397,-118,-48,979,-17,-14,-8
2398,20,-37,1011,-13,-28,-12
2399,161,-20,1006,-9,-21,-14
2400,141,-4,1013,-11,9,-6
2401,15,6,1005,-16,27,0
2402,-134,-7,990,-19,26,2
2403,-180,-35,977,-20,6,-4
2404,-85,-39,991,-17,-19,-9
2405,63,-45,1008,-12,-28,-13
2406,162,-14,1019,-9,-14,-10
2407,129,0,994,-13,12,-5
2408,-36,13,1010,-17,30,2
2409,-143,-19,993,-22,20,0
2410,-175,-39,986,-20,1,-5
2411,-43,-53,985,-17,-25,-10
2412,90,-39,1014,-10,-26,-13
2413,165,-12,1003,-8,-8,-10
2414,84,16,1013,-12,17,-1
2415,-57,4,1001,-19,28,1
2416,-166,-25,991,-22,17,0
2417,-151,-43,971,-20,-8,-7
2418,-12,-55,996,-13,-27,-13
2419,124,-28,1009,-9,-25,-12
2420,158,0,1015,-9,-2,-8
2421,64,8,1008,-14,21,-2
2422,-99,-6,1006,-21,30,2
2423,-173,-24,974,-22,13,-2
2424,-130,-51,978,-19,-13,-8
2425,18,-43,1012,-12,-29,-13
2426,146,-23,1003,-9,-22,-11
2427,148,-3,1013,-9,6,-8
2428,26,6,1013,-15,26,0
2429,-125,-5,981,-20,27,2
2430,-182,-32,981,-22,8,-4
2431,-97,-52,991,-19,-18,-9
2432,51,-44,1006,-10,-29,-14
2433,159,-22,1012,-7,-16,-11
2434,126,0,1006,-10,9,-5
2435,-13,10,1002,-15,29,1
2436,-144,-6,997,-21,24,1
2437,-179,-31,976,-21,2,-4
2438,-62,-52,996,-16,-22,-10
2439,90,-38,1014,-11,-28,-12
2440,160,-18,994,-9,-9,-10
2441,102,4,1018,-10,15,-4
2442,-52,2,1001,-18,29,1
2443,-165,-14,988,-21,19,0
2444,-155,-41,980,-20,-7,-6
2445,-32,-45,993,-14,-25,-11
2446,118,-31,1005,-9,-25,-14
2447,160,-11,1019,-11,-4,-10
2448,71,6,1003,-14,22,-1
2449,-84,-4,1005,-18,29,2
2450,-171,-29,982,-20,14,-1
2451,-135,-38,974,-18,-10,-6
2452,5,-41,1001,-12,-28,-12
2453,144,-18,1016,-9,-21,-13
2454,147,-11,1009,-12,3,-5
2455,41,15,1007,-13,25,-1
2456,-112,-19,995,-24,28,0
2457,-179,-27,968,-18,9,-3
2458,-107,-54,993,-18,-17,-8
2459,48,-39,1005,-10,-29,-14
2460,153,-16,1016,-9,-17,-10
2461,142,5,998,-12,9,-5
2462,-6,4,1008,-18,30,2
2463,-143,-15,993,-19,25,2
2464,-176,-33,974,-21,2,-4
2465,-74,-50,996,-15,-21,-11
2466,86,-27,1012,-10,-28,-13
2467,160,-24,999,-11,-9,-10
2468,119,12,1013,-10,14,-4
2469,-46,0,999,-20,31,4
2470,-163,-12,992,-21,21,0
2471,-162,-47,983,-19,-5,-5
2472,-37,-40,993,-15,-26,-11
2473,117,-34,1012,-9,-28,-13
2474,160,-11,1003,-7,-5,-7
2475,81,7,1017,-13,20,-1
2476,-78,8,992,-20,29,2
2477,-178,-31,994,-21,17,-2
2478,-137,-42,965,-21,-11,-7
2479,-3,-51,1004,-14,-27,-12
2480,142,-19,1014,-9,-23,-13
2481,148,-11,1010,-11,3,-7
2482,54,17,1012,-13,24,-1
2483,-114,-15,990,-21,29,4
2484,-180,-25,974,-20,10,-4
2485,-109,-57,985,-18,-15,-9
2486,29,-33,1007,-10,-27,-13
2487,159,-26,1010,-8,-17,-12
2488,138,5,1008,-9,8,-6
2489,4,2,1006,-17,28,0
2490,-135,-5,985,-19,25,0
2491,-184,-41,980,-24,4,-4
2492,-76,-43,986,-16,-22,-12
2493,68,-36,1015,-10,-28,-12
2494,168,-14,1008,-8,-13,-11
2495,121,1,1003,-11,15,-6
2496,-38,9,1003,-18,28,3
2497,-153,-16,998,-22,21,0
2498,-170,-44,970,-20,-2,-5
2499,-50,-46,1001,-14,-25,-10
2500,110,-38,1003,-11,-27,-14
2501,161,-8,1006,-6,-6,-10
2502,90,14,1013,-14,18,-1
2503,-72,7,1008,-20,31,1
2504,-162,-24,984,-23,17,0
2505,-156,-45,975,-23,-9,-6
2506,-6,-52,993,-12,-27,-14
2507,130,-27,1024,-10,-24,-13
2508,154,-3,998,-10,0,-7
2509,67,7,1017,-13,23,-2
2510,-104,-4,997,-21,30,3
2511,-177,-23,969,-22,11,-2
2512,-126,-44,988,-18,-13,-8
2513,17,-40,1002,-14,-28,-12
2514,155,-28,1015,-8,-19,-13
2515,151,-2,1007,-10,5,-6
2516,14,3,1005,-15,28,0
2517,-120,-5,991,-19,25,-1
2518,-186,-29,978,-22,7,-2
2519,-89,-40,982,-17,-18,-10
2520,60,-37,1016,-13,-30,-16
2521,158,-24,1011,-11,-15,-11
2522,130,0,997,-13,11,-4
2523,-21,0,1007,-18,30,1
2524,-152,-14,999,-19,23,1
2525,-172,-33,971,-20,0,-4
2526,-57,-42,998,-13,-23,-12
2527,96,-35,1007,-11,-30,-13
2528,167,-15,1002,-10,-9,-11
2529,95,5,1014,-12,17,-2
2530,-58,1,1003,-19,30,1
2531,-164,-23,990,-22,18,-1
2532,-155,-46,971,-20,-6,-6
2533,-20,-43,995,-14,-26,-14
2534,123,-33,1013,-9,-26,-14
2535,159,-3,1005,-10,-1,-7
2536,65,9,1015,-15,23,-1
2537,-95,-5,997,-21,28,2
2538,-175,-24,982,-21,13,0
2539,-133,-55,973,-18,-13,-8
2540,16,-39,1009,-11,-29,-12
2541,151,-29,1011,-7,-21,-14
2542,150,6,1012,-8,5,-7
2543,30,6,1009,-16,26,1
2544,-130,-3,996,-21,28,2
2545,-177,-33,963,-22,6,-2
2546,-100,-45,1000,-19,-18,-11
2547,55,-49,1003,-12,-29,-12
2548,160,-17,1016,-6,-15,-11
2549,136,-7,1001,-12,10,-5
2550,-22,14,1004,-16,29,3
2551,-141,-10,991,-21,24,0
2552,-183,-33,981,-22,3,-4
2553,-60,-41,989,-15,-24,-11
2554,90,-40,1014,-13,-28,-14
2555,168,-21,1001,-10,-10,-9
2556,103,4,1007,-11,16,-2
2557,-53,-2,1008,-19,30,0
2558,-159,-14,986,-19,20,1
2559,-160,-39,977,-19,-5,-6
2560,-32,-39,998,-15,-26,-12
2561,124,-31,1004,-11,-26,-13
2562,158,-11,1013,-9,-1,-8
2563,74,3,1005,-16,22,-1
2564,-90,-7,1000,-18,29,0
2565,-174,-30,984,-21,14,-2
2566,-135,-42,968,-18,-10,-8
2567,12,-37,1006,-11,-28,-13
2568,143,-21,1013,-10,-21,-13
2569,148,-5,1009,-11,3,-8
2570,35,8,1010,-15,25,1
2571,-118,-11,989,-21,29,0
2572,-178,-34,975,-22,9,-2
2573,-108,-50,989,-17,-17,-8
2574,44,-37,1005,-10,-29,-15
2575,160,-23,1021,-7,-18,-12
2576,135,8,998,-14,8,-5
2577,-8,11,1006,-16,29,1
2578,-137,-12,996,-20,25,1
2579,-183,-40,973,-22,3,-3
2580,-63,-47,994,-15,-22,-11
2581,77,-38,1014,-12,-29,-11
2582,167,-11,1007,-8,-13,-12
2583,117,5,1004,-12,15,-2
2584,-54,6,1003,-20,29,3
2585,-153,-19,997,-21,18,-1
2586,-171,-49,968,-20,-3,-6
2587,-36,-50,999,-14,-26,-12
2588,111,-36,1005,-6,-26,-13
2589,164,-6,1005,-7,-5,-8
2590,85,10,1014,-12,19,-1
2591,-82,8,998,-21,29,2
2592,-170,-29,988,-22,15,-1
2593,-148,-42,965,-20,-10,-7
2594,-2,-48,1006,-13,-28,-13
2595,145,-27,1003,-9,-23,-14
2596,153,-6,1017,-10,2,-7
2597,52,10,1008,-14,24,0
2598,-108,-7,1000,-21,28,1
2599,-183,-28,965,-20,10,-2
2600,-113,-42,995,-16,-16,-10
2601,37,-39,1001,-13,-29,-14
2602,148,-20,1018,-9,-18,-11
2603,154,-7,1001,-11,5,-7
2604,2,7,1009,-15,28,1
2605,-133,-5,988,-20,25,1
2606,-187,-36,977,-22,7,-3
2607,-85,-42,992,-16,-21,-10
2608,73,-35,1008,-12,-28,-13
2609,164,-21,1012,-9,-13,-11
2610,131,4,995,-11,13,-4
2611,-39,8,1007,-18,31,2
2612,-156,-19,989,-23,20,1
2613,-172,-43,982,-19,-1,-6
2614,-46,-52,987,-15,-26,-10
2615,106,-24,1007,-9,-27,-14
2616,168,-16,1014,-8,-8,-11
2617,92,18,1005,-14,20,-2
2618,-69,1,1005,-21,32,3
2619,-171,-23,995,-22,18,-1
2620,-150,-52,963,-22,-8,-5
2621,-12,-42,998,-12,-28,-12
2622,138,-31,1018,-12,-25,-15
2623,155,-1,1005,-8,1,-7
2624,57,10,1009,-13,24,0
2625,-109,0,1010,-20,29,1
2626,-176,-29,959,-23,12,0
2627,-120,-43,990,-17,-14,-8
2628,23,-51,1007,-13,-29,-12
2629,149,-20,1005,-7,-19,-11
2630,153,-2,1012,-10,5,-7
2631,11,11,1006,-15,27,1
2632,-130,-6,987,-20,25,0
2633,-178,-23,980,-22,5,-4
2634,-96,-51,989,-17,-18,-9
2635,66,-44,1009,-10,-30,-14
2636,161,-28,1011,-9,-14,-11
2637,125,0,998,-12,12,-6
2638,-19,4,1008,-16,28,1
2639,-155,-2,987,-21,24,2
2640,-174,-33,982,-22,-1,-5
2641,-49,-49,993,-15,-24,-11
2642,90,-34,1005,-11,-26,-12
2643,171,-15,1005,-10,-8,-12
2644,94,0,1016,-12,17,-3
2645,-59,8,992,-19,29,2
2646,-168,-18,1006,-21,19,0
2647,-149,-43,961,-20,-7,-5
2648,-22,-37,1004,-13,-26,-11
2649,132,-32,1006,-10,-25,-15
2650,156,-11,1015,-12,-1,-9
2651,66,0,1004,-14,21,0
2652,-95,1,1009,-18,30,0
2653,-177,-32,965,-22,14,-2
2654,-128,-40,988,-16,-15,-9
2655,19,-44,1000,-15,-29,-13
2656,146,-20,1020,-8,-20,-12
2657,157,-5,1005,-12,3,-8
2658,14,5,1005,-18,27,1
2659,-115,-8,991,-21,24,0
2660,-188,-36,969,-21,9,-3
2661,-91,-45,993,-19,-19,-9
2662,63,-43,1007,-10,-29,-14
2663,162,-19,1015,-10,-15,-11
2664,128,4,998,-11,10,-4
2665,-27,7,1005,-16,29,0
2666,-145,-10,1000,-21,22,1
2667,-176,-39,967,-21,1,-6
2668,-57,-51,999,-14,-23,-13
2669,97,-38,1006,-10,-29,-12
2670,160,-10,1000,-8,-7,-11
2671,104,2,1013,-13,17,-3
2672,-58,12,1010,-19,31,1
2673,-166,-22,981,-21,20,0
2674,-156,-37,984,-20,-6,-6
2675,-24,-51,987,-15,-26,-12
2676,121,-29,1009,-9,-25,-13
2677,163,-16,1013,-9,-4,-8
2678,66,13,1007,-15,21,-1
2679,-90,-3,1001,-20,29,0
2680,-175,-22,982,-22,13,-3
2681,-134,-43,972,-18,-12,-7
2682,10,-43,1006,-14,-29,-14
2683,147,-24,1016,-9,-22,-13
2684,151,-7,1009,-11,4,-7
2685,36,6,1003,-16,24,0
2686,-124,-12,996,-21,28,3
2687,-177,-33,967,-20,7,-2
2688,-102,-42,996,-18,-16,-9
2689,53,-36,1005,-12,-29,-14
2690,158,-22,1012,-9,-15,-11
2691,141,-3,1001,-13,10,-5
2692,-16,7,1005,-16,29,2
2693,-148,-17,994,-21,22,0
2694,-178,-32,973,-21,1,-5
2695,-60,-43,996,-15,-23,-11
2696,83,-29,1009,-11,-28,-12
2697,169,-20,1002,-9,-11,-10
2698,104,3,1014,-13,16,-2
2699,-56,1,999,-20,31,2
2700,-162,-21,999,-20,19,-1
2701,-160,-47,970,-17,-5,-5
2702,-19,-38,996,-9,-26,-12
2703,120,-33,1006,-10,-25,-13
2704,155,-4,1010,-10,-2,-8
2705,70,3,1013,-15,22,-3
2706,-91,-3,1000,-19,28,3
2707,-173,-28,985,-21,13,-1
2708,-131,-46,969,-17,-11,-7
2709,8,-44,1008,-11,-28,-13
2710,148,-17,1008,-8,-21,-12
2711,152,-4,1017,-10,4,-8
2712,33,8,1004,-15,26,2
2713,-116,-6,993,-22,27,2
2714,-181,-31,971,-22,9,-3
2715,-103,-44,992,-18,-17,-8
2716,48,-38,1003,-12,-29,-14
2717,156,-27,1015,-9,-16,-11
2718,136,1,1005,-11,9,-6
2719,-6,-1,1003,-17,29,0
2720,-149,-2,991,-19,25,1
2721,-171,-27,978,-22,1,-6
2722,-71,-50,994,-15,-21,-11
2723,83,-36,1009,-12,-29,-11
2724,168,-26,1001,-9,-9,-11
2725,106,4,1014,-11,16,-2
2726,-50,5,998,-18,30,2
2727,-159,-19,993,-18,20,-2
2728,-169,-39,972,-21,-4,-5
2729,-25,-45,1001,-14,-26,-13
2730,119,-34,1005,-10,-25,-13
2731,155,-7,1008,-10,-2,-8
2732,78,4,1018,-14,22,-3
2733,-87,-3,998,-19,30,1
2734,-173,-24,985,-21,15,-1
2735,-137,-47,971,-19,-11,-8
2736,1,-41,1001,-12,-27,-13
2737,142,-21,1013,-9,-23,-13
2738,152,-1,1010,-10,2,-8
2739,41,4,1008,-15,25,2
2740,-116,-4,996,-20,28,1
2741,-186,-32,970,-20,9,-4
2742,-108,-43,990,-16,-18,-9
2743,36,-34,1004,-12,-30,-14
2744,161,-28,1016,-9,-18,-12
2745,145,9,1009,-11,7,-5
2746,-6,4,1000,-19,29,3
2747,-141,-9,997,-20,25,1
2748,-180,-40,975,-22,2,-2
2749,-75,-46,986,-15,-22,-11
2750,81,-35,1021,-11,-29,-12
2751,172,-22,1006,-9,-12,-10
2752,116,6,1004,-11,16,-3
2753,-40,11,1003,-17,30,2
2754,-162,-22,1004,-22,21,1
2755,-168,-40,955,-20,-5,-5
2756,-42,-48,1014,-14,-25,-12
2757,118,-35,995,-9,-28,-13
2758,159,-12,1012,-8,-4,-7
2759,92,6,1011,-13,19,-3
2760,-90,3,1007,-19,31,3
2761,-165,-29,973,-23,15,-2
2762,-149,-45,983,-19,-8,-7
2763,-3,-45,987,-11,-28,-12
2764,136,-29,1021,-9,-24,-13
2765,159,-1,1008,-9,1,-9
2766,44,15,1012,-15,25,0
2767,-107,-9,994,-21,29,1
2768,-181,-30,970,-21,11,-2
2769,-118,-51,982,-18,-15,-8
2770,38,-43,1012,-11,-30,-14
2771,147,-25,1006,-8,-18,-10
2772,149,6,1010,-9,7,-6
2773,7,3,1010,-15,27,0
2774,-140,0,984,-19,26,2
2775,-176,-40,982,-22,6,-3
2776,-85,-46,986,-16,-19,-10
2777,68,-41,1014,-10,-30,-12
2778,168,-20,1011,-10,-15,-11
2779,118,1,997,-12,14,-4
2780,-29,15,1004,-16,29,1
2781,-162,-15,1006,-23,22,2
2782,-166,-37,962,-20,-2,-6
2783,-49,-54,1003,-16,-24,-11
2784,107,-34,1003,-9,-29,-13
2785,162,-18,1002,-10,-6,-8
2786,96,10,1013,-13,20,-2
2787,-77,9,1003,-18,33,2
2788,-169,-24,987,-23,16,-1
2789,-151,-45,975,-19,-8,-7
2790,-13,-44,992,-12,-27,-11
2791,137,-27,1016,-9,-24,-14
2792,152,-2,1009,-11,0,-7
2793,61,5,1013,-15,22,-1
2794,-102,-9,996,-20,29,0
2795,-184,-28,970,-21,12,-2
2796,-114,-52,989,-15,-15,-8
2797,18,-37,1001,-12,-27,-12
2798,153,-18,1010,-8,-19,-10
2799,146,-4,1015,-10,5,-7
2800,13,0,1005,-18,27,2
2801,-125,-10,986,-19,26,1
2802,-184,-30,983,-21,8,-4
2803,-85,-44,983,-16,-21,-9
2804,57,-40,1015,-11,-28,-13
2805,165,-21,1011,-8,-15,-11
2806,128,2,1001,-11,12,-5
2807,-21,8,1006,-18,30,1
2808,-151,-10,995,-22,24,1
2809,-174,-41,972,-22,0,-5
2810,-54,-51,998,-16,-23,-11
2811,94,-39,1005,-11,-27,-14
2812,164,-13,1006,-11,-10,-10
2813,104,8,1010,-12,16,-4
2814,-66,8,998,-18,31,2
2815,-162,-20,997,-21,18,-2
2816,-153,-40,967,-23,-6,-6
2817,-29,-57,993,-14,-26,-12
2818,129,-29,1012,-8,-27,-14
2819,154,-10,1010,-11,-2,-8
2820,70,9,1011,-13,22,-2
2821,-89,2,998,-21,30,2
2822,-175,-24,984,-22,15,-1
2823,-133,-46,971,-20,-13,-6
2824,10,-46,1008,-14,-28,-13
2825,143,-30,1014,-10,-21,-12
2826,152,-3,1003,-10,5,-7
2827,34,3,1014,-15,26,1
2828,-124,-2,990,-20,27,2
2829,-172,-28,973,-21,8,-3
2830,-104,-46,994,-19,-17,-9
2831,46,-39,1007,-12,-28,-12
2832,158,-24,1014,-10,-16,-11
2833,135,-1,1000,-12,9,-4
2834,-5,7,1005,-15,30,2
2835,-147,-10,998,-22,26,3
2836,-171,-31,976,-21,2,-5
2837,-66,-47,991,-15,-20,-10
2838,81,-38,1010,-11,-27,-11
2839,168,-20,998,-9,-10,-11
2840,98,1,1013,-12,16,-3
2841,-45,12,1001,-19,29,1
2842,-159,-23,998,-22,19,-2
2843,-158,-34,970,-20,-6,-5
2844,-31,-49,995,-16,-25,-12
2845,117,-33,1007,-10,-26,-13
2846,160,-10,1011,-10,-4,-7
2847,76,6,1007,-13,21,-2
2848,-91,-2,1000,-19,30,3
2849,-166,-22,981,-20,14,-2
2850,-144,-45,976,-17,-11,-7
2851,7,-37,1000,-12,-27,-14
2852,139,-31,1015,-11,-21,-11
2853,151,-2,1003,-11,2,-6
2854,35,6,1015,-17,23,0
2855,-113,-2,986,-20,27,2
2856,-180,-30,978,-21,10,-3
2857,-101,-43,989,-20,-17,-9
2858,40,-45,1005,-12,-27,-13
2859,161,-18,1008,-10,-16,-11
2860,134,-1,1011,-12,10,-4
2861,-3,4,996,-16,30,2
2862,-134,-12,1004,-21,25,1
2863,-182,-38,968,-21,4,-4
2864,-67,-48,1004,-15,-22,-11
2865,88,-37,1004,-11,-29,-13
2866,155,-17,1007,-8,-10,-9
2867,121,4,1003,-12,13,-4
2868,-55,9,1010,-16,31,2
2869,-154,-12,989,-22,19,0
2870,-166,-49,976,-20,-3,-5
2871,-33,-43,992,-13,-25,-12
2872,116,-36,1009,-10,-27,-13
2873,158,-4,1007,-9,-4,-9
2874,81,6,1013,-14,20,-1
2875,-83,0,998,-19,30,1
2876,-174,-26,987,-23,15,-1
2877,-143,-42,967,-21,-10,-6
2878,7,-45,1004,-15,-27,-13
2879,140,-25,1013,-10,-23,-13
2880,149,-1,1005,-11,2,-7
2881,44,3,1019,-15,24,-1
2882,-114,-6,985,-22,29,3
2883,-182,-29,972,-21,11,-2
2884,-103,-46,995,-19,-16,-9
2885,26,-38,995,-14,-27,-12
2886,161,-23,1022,-10,-18,-13
2887,135,-6,1004,-13,9,-5
2888,3,12,1005,-15,29,1
2889,-132,-16,998,-22,24,0
2890,-186,-36,973,-21,4,-3
2891,-70,-48,995,-16,-21,-10
2892,68,-38,1007,-11,-28,-13
2893,168,-16,1009,-8,-14,-10
2894,116,2,1008,-11,13,-5
2895,-37,12,1003,-18,30,2
2896,-149,-17,991,-22,22,0
2897,-171,-45,982,-21,-1,-5
2898,-39,-50,992,-15,-24,-10
2899,111,-32,1001,-8,-26,-14
2900,160,-10,1016,-8,-5,-9
2901,87,14,1010,-12,19,-1
2902,-75,-5,998,-20,30,1
2903,-170,-20,989,-21,16,-1
2904,-145,-50,971,-20,-10,-6
2905,-3,-44,989,-11,-28,-13
2906,130,-23,1027,-10,-23,-12
2907,157,-1,1002,-10,1,-8
2908,45,5,1013,-15,23,0
2909,-99,0,993,-21,28,1
2910,-183,-32,978,-22,12,-1
2911,-115,-45,983,-17,-16,-8
2912,20,-43,1011,-13,-29,-11
2913,161,-21,1014,-9,-20,-11
2914,145,-3,1009,-10,6,-5
2915,10,14,998,-17,27,1
2916,-127,-10,1007,-21,26,1
2917,-192,-33,965,-22,5,-2
2918,-79,-50,992,-16,-21,-11
2919,63,-44,1014,-11,-29,-15
2920,165,-18,1006,-9,-13,-10
2921,129,3,1000,-12,13,-5
2922,-32,14,1010,-18,30,3
2923,-149,-13,990,-21,22,1
2924,-171,-39,979,-20,0,-7
2925,-48,-52,994,-15,-25,-10
2926,95,-35,1002,-10,-27,-13
2927,170,-14,1010,-9,-8,-10
2928,90,7,1009,-14,19,-1
2929,-69,5,1002,-18,31,2
2930,-162,-17,994,-21,18,-1
2931,-153,-45,970,-20,-6,-5
2932,-17,-50,992,-14,-26,-12
2933,128,-30,1016,-10,-27,-13
2934,153,-7,1008,-10,-1,-6
2935,64,7,1012,-13,22,-1
2936,-97,0,1000,-20,28,1
2937,-174,-26,974,-20,13,-2
2938,-126,-45,984,-19,-13,-8
2939,18,-45,1005,-14,-27,-14
2940,146,-25,1008,-9,-20,-12
2941,148,-3,1015,-10,5,-6
2942,20,4,1001,-15,27,0
2943,-124,-9,990,-19,25,2
2944,-175,-29,980,-21,6,-3
2945,-93,-46,984,-17,-16,-10
2946,55,-40,1015,-12,-28,-12
2947,156,-18,1003,-9,-14,-11
2948,127,4,1003,-13,11,-4
2949,-20,2,1003,-16,28,2
2950,-145,-10,995,-22,22,0
2951,-168,-40,977,-20,0,-4
2952,-55,-47,992,-15,-23,-10
2953,90,-34,1006,-10,-27,-12
2954,164,-10,1002,-8,-9,-10
2955,95,10,1012,-12,17,-3
2956,-57,7,1004,-19,28,-1
2957,-159,-28,988,-23,19,-1
2958,-152,-50,973,-20,-6,-6
2959,-27,-47,993,-14,-26,-10
2960,124,-26,1009,-9,-24,-13
2961,159,-6,1014,-9,-1,-7
2962,67,14,1004,-15,22,-2
2963,-87,-3,1005,-20,29,1
2964,-176,-30,974,-22,14,-1
2965,-130,-45,979,-18,-12,-6
2966,11,-43,1002,-11,-27,-14
2967,145,-28,1014,-9,-22,-12
2968,148,-5,1007,-9,3,-7
2969,31,6,1010,-14,26,0
2970,-121,0,989,-20,27,1
2971,-177,-29,977,-21,8,-4
2972,-105,-44,995,-20,-17,-8
2973,48,-39,1001,-12,-29,-12
2974,160,-28,1023,-9,-16,-12
2975,136,-7,992,-13,8,-5
2976,-15,9,1011,-13,30,2
2977,-133,-9,994,-21,22,-1
2978,-185,-37,982,-20,3,-2
2979,-58,-39,980,-15,-22,-11
2980,73,-40,1020,-9,-27,-12
2981,170,-8,998,-8,-13,-9
2982,102,0,1012,-14,15,-3
2983,-44,5,1004,-21,29,1
2984,-158,-21,997,-21,20,1
2985,-160,-47,965,-20,-5,-6
2986,-33,-51,1002,-13,-25,-12
2987,116,-31,1001,-8,-27,-12
2988,156,-2,1014,-8,-3,-8
2989,79,14,1008,-14,19,-2
2990,-80,1,1004,-20,30,2
2991,-166,-31,984,-22,14,-1
2992,-139,-49,975,-19,-11,-6
2993,0,-49,1002,-11,-27,-12
2994,135,-30,1011,-9,-23,-11
2995,152,0,1016,-9,3,-7
2996,48,7,1006,-14,24,0
2997,-118,0,993,-21,28,3
2998,-172,-28,976,-20,9,-3
2999,-106,-47,985,-18,-17,-9
3000,33,-40,1010,-12,-28,-12
3001,154,-26,1015,-8,-17,-12
3002,135,-7,996,-12,8,-4
3003,0,13,1007,-14,28,1
3004,-129,-10,1002,-20,24,1
3005,-174,-28,969,-20,4,-3
3006,-76,-41,991,-16,-19,-10
3007,67,-43,1016,-11,-27,-13
3008,156,-17,999,-10,-13,-9
3009,116,3,1009,-12,13,-5
3010,-35,5,1013,-18,29,0
3011,-143,-18,986,-21,21,0
3012,-167,-38,976,-20,-2,-5
3013,-48,-50,997,-16,-24,-11
3014,101,-31,1001,-9,-27,-13
3015,156,-10,1011,-9,-7,-9
3016,87,12,1013,-13,18,-4
3017,-64,3,1001,-20,29,1
3018,-160,-29,986,-21,16,-2
3019,-143,-44,973,-19,-6,-6
3020,-9,-46,993,-13,-25,-12
3021,123,-28,1015,-12,-21,-12
3022,147,0,1004,-10,1,-8
3023,50,7,1016,-14,23,-1
3024,-95,-11,987,-21,26,3
3025,-173,-23,979,-21,12,-2
3026,-107,-43,984,-17,-14,-9
3027,20,-39,1006,-12,-26,-11
3028,142,-22,1012,-10,-19,-11
3029,144,-2,1010,-12,5,-7
3030,3,1,994,-17,27,0
3031,-124,-7,1005,-19,25,0
3032,-166,-35,974,-21,5,-5
3033,-85,-41,990,-16,-18,-9
3034,64,-36,1017,-13,-29,-13
3035,147,-16,999,-10,-11,-10
3036,114,0,1006,-11,12,-4
3037,-27,11,1009,-17,28,-2
3038,-138,-18,991,-22,22,0
3039,-161,-36,980,-21,0,-4
3040,-47,-50,992,-22,-27,-11
3041,88,-38,1006,-11,-28,-13
3042,152,-3,1006,-8,-7,-9
3043,89,5,1017,-15,16,-3
3044,-59,2,1001,-18,28,1
3045,-160,-25,989,-22,16,0
3046,-136,-43,974,-20,-9,-7
3047,-24,-44,995,-11,-24,-11
3048,126,-25,1011,-9,-24,-12
3049,139,-10,1010,-11,1,-7
3050,57,12,1009,-12,21,-1
3051,-83,-8,995,-21,26,2
3052,-170,-29,979,-20,13,-2
3053,-116,-38,976,-18,-14,-6
3054,10,-47,1010,-14,-25,-12
3055,144,-23,1010,-10,-20,-11
3056,135,-4,1003,-12,6,-5
3057,21,2,1009,-15,26,-1
3058,-111,-6,992,-19,26,1
3059,-172,-38,980,-21,8,-3
3060,-88,-42,989,-15,-17,-9
3061,50,-34,1006,-12,-25,-11
3062,150,-22,1017,-9,-15,-9
3063,119,0,988,-12,10,-2
3064,-15,4,1016,-15,27,1
3065,-129,-17,993,-20,21,1
3066,-170,-37,977,-17,0,-3
3067,-49,-37,991,-14,-22,-10
3068,80,-31,1011,-10,-25,-11
3069,144,-13,997,-11,-9,-7
3070,88,2,1013,-14,15,-3
3071,-44,-1,1000,-19,25,0
3072,-137,-16,992,-17,17,0
3073,-144,-43,973,-19,-4,-7
3074,-24,-40,992,-13,-24,-11
3075,108,-28,1015,-10,-23,-12
3076,131,-12,1003,-12,-2,-7
3077,65,4,1013,-12,18,-3
3078,-78,-2,1000,-18,24,0
3079,-156,-23,973,-20,13,-1
3080,-112,-43,991,-18,-10,-7
3081,-2,-38,993,-14,-23,-11
3082,128,-26,1014,-9,-18,-11
3083,140,-6,1009,-12,4,-7
3084,22,4,1005,-15,24,1
3085,-99,-5,984,-20,24,0
3086,-163,-33,994,-20,8,-4
3087,-96,-40,968,-17,-14,-8
3088,35,-33,1023,-11,-26,-12
3089,146,-19,1006,-11,-17,-11
3090,121,-1,1003,-13,8,-5
3091,-3,-1,995,-17,25,0
3092,-131,-10,1014,-22,23,0
3093,-155,-40,966,-21,2,-6
3094,-74,-44,996,-16,-17,-10
3095,78,-33,1005,-12,-27,-13
3096,141,-15,1002,-10,-10,-10
3097,107,4,1006,-14,13,-5
3098,-45,6,1012,-20,29,1
3099,-142,-18,986,-21,20,-1
3100,-147,-45,980,-21,-3,-5
3101,-35,-44,984,-13,-22,-11
3102,89,-37,1012,-11,-24,-10
3103,147,-1,1010,-10,-5,-8
3104,80,-1,1011,-14,19,-2
3105,-68,-2,999,-18,29,2
3106,-153,-25,986,-20,16,-2
3107,-133,-41,972,-17,-7,-7
3108,-11,-37,1004,-13,-25,-11
3109,119,-28,1010,-11,-21,-10
3110,143,-6,1012,-10,0,-7
3111,47,4,1001,-16,22,-1
3112,-95,-4,1004,-20,27,0
3113,-164,-33,969,-19,9,-3
3114,-107,-43,991,-17,-13,-8
3115,21,-43,1004,-11,-26,-12
3116,133,-19,1013,-9,-18,-10
3117,136,-7,1001,-12,4,-6
3118,6,6,1002,-17,26,1
3119,-115,-6,1007,-20,24,0
3120,-164,-38,971,-21,5,-2
3121,-84,-47,994,-15,-16,-7
3122,61,-38,1003,-12,-27,-11
3123,138,-24,1005,-9,-12,-10
3124,109,4,1006,-10,11,-3
3125,-19,16,1012,-16,26,1
3126,-139,-20,990,-20,21,1
3127,-150,-41,983,-19,-1,-5
3128,-47,-48,982,-15,-21,-10
3129,83,-33,1013,-9,-24,-10
3130,141,-12,1006,-10,-7,-6
3131,75,3,1014,-12,17,-2
3132,-49,5,994,-17,25,1
3133,-139,-19,998,-19,15,-2
3134,-131,-47,968,-17,-5,-4
3135,-22,-36,997,-13,-23,-10
3136,108,-39,1017,-11,-20,-9
3137,122,-8,1006,-9,2,-4
3138,48,-2,1004,-13,17,1
3139,-64,5,1001,-16,23,0
3140,-142,-23,980,-21,11,1
3141,-103,-38,988,-17,-12,-6
3142,2,-42,995,-14,-22,-12
3143,113,-33,1021,-10,-17,-7
3144,110,-4,992,-11,3,-2
3145,21,6,1006,-13,21,0
3146,-76,-6,1001,-20,20,2
3147,-139,-35,990,-25,6,9
3148,-65,-78,981,-26,-15,17
3149,26,-90,1006,-18,-19,25
3150,75,-52,1001,-6,-7,25
3151,71,-16,997,-6,6,31
3152,5,-1,1006,-13,13,42
3153,-66,1,1000,-19,13,50
3154,-103,-27,996,-21,0,46
3155,-52,-40,981,-15,-11,37
3156,4,-22,1001,-10,-12,26
3157,61,3,994,-12,-8,23
3158,57,6,1018,-18,1,23
3159,23,-3,998,-20,6,21
3160,-50,-18,1008,-21,9,23
3161,-72,-40,985,-19,0,21
3162,-43,-46,992,-14,-6,14
3163,19,-31,995,-11,-7,7
3164,47,-17,1003,-12,-3,7
3165,49,-5,998,-13,4,12
3166,-15,-12,1004,-19,8,22
3167,-66,-16,987,-19,5,29
3168,-70,-32,1007,-19,-3,23
3169,-25,-27,987,-14,-8,12
3170,39,-28,1009,-11,-8,2
3171,72,-6,986,-11,-2,2
3172,32,-2,1009,-14,7,8
3173,-28,-10,1002,-16,9,17
3174,-91,-15,1001,-20,5,23
3175,-63,-27,988,-17,-5,19
3176,-10,-27,1005,-13,-9,4
3177,55,-23,990,-12,-7,-7
3178,70,-15,1002,-12,0,-6
3179,17,0,1003,-15,10,5
3180,-55,-14,1011,-20,12,17
3181,-91,-32,989,-21,3,22
3182,-55,-42,997,-16,-7,14
3183,21,-22,995,-11,-12,-1
3184,60,-20,998,-12,-5,-8
3185,63,-10,1002,-14,4,-3
3186,-1,-4,1003,-15,11,9
3187,-68,-21,1005,-19,10,21
3188,-86,-36,980,-22,0,23
3189,-43,-39,993,-13,-10,12
3190,35,-20,1005,-11,-10,-4
3191,66,-10,1003,-11,-1,-8
3192,51,-10,1000,-13,6,-1
3193,-14,-18,1006,-18,11,14
3194,-79,-21,988,-18,7,25
3195,-84,-30,991,-18,-2,24
3196,-32,-34,1002,-14,-10,11
3197,45,-22,1000,-11,-10,-4
3198,75,-14,997,-12,-2,-5
3199,40,-9,1000,-15,9,4
3200,-34,-5,1007,-17,12,18
3201,-88,-25,993,-21,8,27
3202,-64,-44,993,-20,3,24
3203,-2,-46,1006,-13,-4,13
3204,51,-37,990,-12,0,6
3205,64,-12,994,-13,7,11
3206,13,-7,1007,-16,13,21
3207,-47,-16,1009,-18,11,32
3208,-87,-18,984,-17,3,35
3209,-55,-40,1008,-18,-6,27
3210,10,-31,982,-13,-10,14
3211,52,-17,1000,-10,-4,9
3212,67,2,1000,-15,0,10
3213,1,-2,1004,-18,9,19
3214,-54,-13,1002,-17,7,28
3215,-87,-19,995,-20,-2,28
3216,-38,-29,978,-15,-9,13
3217,14,-34,1009,-12,-9,2
3218,67,-3,997,-11,-4,-1
3219,55,0,1005,-13,5,5
3220,-19,-10,998,-19,10,15
3221,-71,-18,999,-19,7,22
3222,-75,-33,984,-19,-2,18
3223,-33,-34,1002,-14,-9,7
3224,46,-16,999,-11,-9,-6
3225,69,-9,1003,-11,0,-9
3226,43,-5,996,-15,8,1
3227,-38,-8,1009,-19,11,11
3228,-94,-17,985,-20,5,18
3229,-75,-37,996,-20,-6,15
3230,-5,-26,1003,-13,-14,0
3231,62,-17,1000,-10,-8,-13
3232,79,-13,985,-13,1,-13
3233,19,-17,1011,-13,12,-1
3234,-50,-3,1003,-18,13,13
3235,-108,-40,996,-22,4,18
3236,-60,-44,983,-16,-10,12
3237,13,-27,1007,-10,-14,-2
3238,72,-10,989,-9,-7,-11
3239,69,-3,1007,-14,5,-9
3240,0,-12,1002,-18,13,6
3241,-73,-10,1013,-18,12,19
3242,-102,-41,972,-23,0,19
3243,-46,-51,992,-13,-11,8
3244,38,-10,1007,-7,-13,-7
3245,73,-12,998,-10,-2,-12
3246,58,-3,1000,-14,9,-3
3247,-21,-3,1012,-17,13,11
3248,-91,-25,990,-23,8,18
3249,-89,-43,980,-19,-4,17
3250,-25,-42,1003,-12,-13,5
3251,56,-18,1006,-9,-11,-7
3252,73,-17,990,-11,-1,-4
3253,38,-8,1008,-16,8,7
3254,-32,-6,999,-18,12,17
3255,-89,-26,989,-20,7,20
3256,-70,-42,992,-19,-4,16
3257,-7,-40,1007,-11,-9,8
3258,59,-24,998,-10,-5,3
3259,69,-16,988,-13,4,7
3260,19,-7,1003,-14,11,16
3261,-40,-2,1014,-17,10,21
3262,-92,-19,985,-19,5,21
3263,-58,-33,1002,-16,-5,16
3264,0,-33,999,-14,-9,6
3265,63,-25,989,-11,-6,1
3266,65,-3,1001,-12,2,3
3267,5,2,1011,-15,11,9
3268,-57,-1,1004,-19,9,16
3269,-90,-27,994,-20,2,16
3270,-38,-39,984,-16,-8,6
3271,25,-20,1002,-9,-9,-6
3272,62,-2,995,-11,-3,-10
3273,58,0,1003,-15,4,-5
3274,-19,6,1011,-18,13,4
3275,-81,-14,994,-24,11,8
3276,-89,-40,981,-22,-1,3
3277,-25,-45,995,-14,-12,-8
3278,74,-21,1014,-7,-12,-12
3279,89,-5,996,-10,0,-9
3280,28,-2,1012,-14,15,-8
3281,-58,-5,994,-17,16,-1
3282,-126,-19,989,-20,8,0
3283,-77,-36,983,-19,-10,-8
3284,19,-33,1015,-13,-18,-12
3285,111,-32,996,-13,-14,-11
3286,99,-8,1005,-12,4,-6
3287,3,-7,1000,-16,19,-1
3288,-110,-5,1000,-18,21,0
3289,-143,-21,976,-21,2,-5
3290,-59,-37,1002,-16,-18,-11
3291,63,-40,1003,-14,-23,-11
3292,132,-17,1000,-9,-10,-10
3293,95,-5,1006,-13,12,-6
3294,-38,0,1005,-18,26,0
3295,-135,-15,990,-21,19,-1
3296,-144,-35,979,-19,-3,-4
3297,-31,-43,1000,-15,-23,-11
3298,91,-34,996,-12,-23,-11
3299,149,-8,1010,-9,-5,-10
3300,72,2,1012,-16,19,-4
3301,-75,-4,996,-18,27,0
3302,-147,-27,993,-19,13,-2
3303,-138,-41,967,-17,-5,-6
3304,-8,-42,1000,-11,-25,-11
3305,124,-17,1010,-10,-23,-12
3306,136,-3,1010,-13,1,-7
3307,48,4,1013,-15,21,-1
3308,-98,-5,988,-21,25,1
3309,-165,-36,978,-22,10,-4
3310,-112,-42,985,-16,-14,-7
3311,24,-37,1004,-12,-26,-13
3312,136,-28,1009,-8,-19,-11
3313,132,2,1005,-11,4,-6
3314,17,2,1004,-17,25,0
3315,-121,-6,993,-19,25,1
3316,-168,-34,977,-22,6,-2
3317,-80,-46,989,-16,-17,-10
3318,55,-42,1014,-13,-26,-12
3319,154,-17,1006,-9,-15,-10
3320,115,-3,1002,-9,11,-6
3321,-24,9,1007,-17,27,0
3322,-132,-11,997,-21,20,0
3323,-166,-40,980,-21,1,-3
3324,-56,-45,993,-15,-21,-10
3325,93,-35,1006,-11,-26,-14
3326,150,-16,1007,-9,-7,-9
3327,92,8,1005,-12,16,-3
3328,-58,3,1007,-18,28,0
3329,-151,-24,993,-19,17,-1
3330,-147,-38,965,-18,-5,-5
3331,-23,-46,998,-14,-25,-12
3332,116,-29,1014,-11,-26,-11
3333,148,-11,1001,-11,-1,-7
3334,65,4,1023,-13,21,-2
3335,-86,-9,993,-20,26,1
3336,-169,-30,972,-18,15,-2
3337,-118,-39,990,-15,-12,-8
3338,6,-37,1001,-11,-25,-11
3339,139,-19,1010,-9,-19,-11
3340,138,-4,1012,-11,3,-6
3341,34,0,1004,-16,25,-2
3342,-119,-13,989,-19,26,2
3343,-172,-30,981,-18,7,-3
3344,-94,-46,988,-15,-16,-9
3345,39,-37,1008,-10,-26,-12
3346,151,-16,1015,-9,-16,-11
3347,131,2,997,-13,9,-6
3348,-16,6,1006,-16,27,0
3349,-134,-15,993,-22,22,1
3350,-165,-44,977,-20,3,-6
3351,-62,-47,993,-15,-20,-9
3352,78,-34,1004,-10,-27,-12
3353,153,-16,1005,-7,-10,-11
3354,101,6,1006,-13,14,-3
3355,-49,8,1011,-19,30,1
3356,-147,-21,989,-21,20,-1
3357,-157,-42,976,-19,-4,-4
3358,-30,-47,987,-14,-25,-10
3359,106,-34,1012,-10,-24,-13
3360,149,-11,1011,-10,-4,-8
3361,74,7,1006,-13,20,-2
3362,-78,-1,1002,-17,28,2
3363,-167,-25,981,-20,15,-1
3364,-126,-41,976,-18,-10,-8
3365,-3,-47,1003,-13,-27,-12
3366,126,-21,1012,-11,-22,-12
3367,152,-8,1008,-10,1,-8
3368,32,2,1009,-15,23,0
3369,-99,-6,993,-19,26,0
3370,-172,-32,978,-19,11,-2
3371,-106,-41,983,-17,-15,-7
3372,33,-43,1011,-11,-28,-12
3373,141,-19,1011,-7,-17,-10
3374,129,-3,1002,-9,6,-6
3375,2,6,1005,-24,28,2
3376,-123,-13,994,-26,30,5
3377,-169,-31,978,-19,4,-4
3378,-72,-44,991,-14,-19,-10
3379,64,-39,1010,-12,-27,-10
3380,152,-14,1000,-11,-11,-7
3381,105,0,1009,-12,11,-4
3382,-28,5,1009,-18,27,0
3383,-141,-15,991,-21,20,0
3384,-157,-48,975,-19,-1,-5
3385,-39,-42,992,-14,-23,-10
3386,97,-38,1006,-9,-25,-10
3387,143,-4,1004,-8,-5,-7
3388,77,11,1015,-13,18,-3
3389,-60,-4,998,-20,27,-2
3390,-157,-21,989,-21,15,0
3391,-130,-45,972,-19,-9,-6
3392,-14,-43,1002,-12,-24,-11
3393,124,-26,1012,-10,-22,-12
3394,132,-8,1010,-12,0,-7
3395,48,2,1009,-14,20,-1
3396,-92,-2,992,-18,24,0
3397,-157,-26,978,-20,11,-1
3398,-107,-39,990,-18,-13,-7
3399,14,-40,1005,-15,-25,-10
3400,141,-28,1009,-9,-18,-11
3401,120,-8,1007,-12,7,-4
3402,10,-2,991,-17,23,-1
3403,-103,1,1009,-17,24,0
3404,-157,-34,970,-22,5,-3
3405,-84,-32,996,-14,-17,-8
3406,59,-49,1008,-12,-26,-13
3407,138,-17,1005,-10,-11,-8
3408,106,-4,999,-12,9,-3
3409,-23,5,1010,-16,25,-3
3410,-122,-8,996,-20,20,0
3411,-155,-37,977,-20,0,-3
3412,-51,-43,995,-17,-20,-10
3413,85,-40,1005,-11,-25,-11
3414,138,-10,1001,-9,-8,-8
3415,87,-2,1016,-13,15,-3
3416,-54,9,1002,-17,26,0
3417,-145,-21,990,-21,15,0
3418,-139,-32,976,-19,-6,-6
3419,-19,-53,989,-16,-24,-10
3420,111,-25,1015,-8,-23,-12
3421,141,-13,1011,-12,-1,-7
3422,59,4,1010,-12,21,-3
3423,-82,1,995,-19,27,1
3424,-162,-21,978,-22,13,-2
3425,-115,-41,988,-20,-11,-8
3426,11,-41,997,-14,-25,-11
3427,134,-33,1015,-11,-18,-12
3428,138,-5,1010,-10,4,-7
3429,25,8,1000,-16,25,0
3430,-112,-4,994,-17,24,1
3431,-169,-29,983,-20,7,-4
3432,-94,-43,980,-18,-16,-9
3433,51,-40,1020,-12,-27,-12
3434,147,-20,1003,-10,-15,-11
3435,122,-4,1001,-12,10,-5
3436,-9,10,1008,-16,28,0
3437,-141,-16,992,-23,24,0
3438,-163,-33,981,-20,0,-6
3439,-58,-51,993,-18,-22,-10
3440,79,-30,1002,-11,-25,-13
3441,156,-18,1011,-9,-10,-10
3442,100,2,1005,-12,15,-3
3443,-64,5,1007,-19,29,2
3444,-144,-19,990,-20,18,-4
3445,-156,-42,980,-21,-3,-5
3446,-26,-45,979,-14,-24,-11
3447,115,-33,1022,-10,-24,-13
3448,147,-9,1004,-11,-2,-8
3449,68,11,1008,-14,21,-2
3450,-77,0,1004,-20,28,-1
3451,-172,-25,981,-21,14,-1
3452,-130,-50,970,-19,-11,-9
3453,2,-45,1006,-13,-27,-13
3454,134,-21,1013,-9,-21,-12
3455,153,-2,1005,-10,3,-7
3456,31,7,1012,-15,25,0
3457,-108,-6,993,-20,26,-1
3458,-171,-32,974,-22,8,-3
3459,-105,-43,990,-18,-15,-8
3460,43,-40,1007,-11,-28,-13
3461,146,-20,1009,-11,-15,-11
3462,131,-6,1007,-12,8,-6
3463,-5,4,1000,-15,26,0
3464,-134,-13,1002,-22,25,1
3465,-171,-36,967,-20,3,-3
3466,-63,-42,1002,-15,-20,-8
3467,81,-32,1005,-12,-27,-13
3468,151,-15,1002,-11,-10,-9
3469,107,1,1012,-13,13,-4
3470,-47,7,1002,-19,29,1
3471,-147,-24,994,-21,19,-1
3472,-155,-38,978,-18,-4,-4
3473,-30,-45,992,-14,-24,-11
3474,107,-32,1003,-10,-24,-12
3475,153,-10,1011,-9,-4,-8
3476,81,9,1013,-14,18,-3
3477,-79,0,996,-19,30,3
3478,-163,-19,986,-21,14,-1
3479,-131,-43,974,-20,-9,-7
3480,-6,-47,997,-13,-26,-11
3481,138,-23,1015,-10,-22,-13
3482,147,-10,1012,-11,2,-8
3483,41,13,1005,-13,23,0
3484,-105,-12,991,-21,27,0
3485,-175,-34,977,-19,11,-2
3486,-107,-43,983,-16,-14,-8
3487,36,-36,1009,-12,-27,-14
3488,146,-18,1011,-10,-18,-12
3489,143,4,1004,-13,5,-6
3490,0,0,1004,-19,27,1
3491,-135,-13,995,-20,25,1
3492,-176,-40,973,-21,4,-4
3493,-76,-46,998,-16,-19,-9
3494,78,-39,1008,-12,-29,-13
3495,158,-9,1004,-9,-13,-10
3496,121,11,1007,-12,12,-3
3497,-45,11,1008,-20,29,2
3498,-149,-22,984,-23,21,-1
3499,-169,-46,989,-19,-2,-5
3500,-36,-53,984,-14,-24,-12
3501,104,-39,1010,-8,-26,-13
3502,161,-7,1006,-7,-6,-7
3503,83,10,1013,-13,21,-2
3504,-69,9,1001,-17,29,1
3505,-169,-22,988,-20,17,0
3506,-143,-43,971,-22,-8,-7
3507,-6,-52,993,-15,-26,-12
3508,127,-27,1016,-9,-24,-13
3509,157,-8,1007,-11,0,-8
3510,53,6,1013,-13,24,0
3511,-98,-1,992,-22,28,0
3512,-176,-30,979,-20,12,-2
3513,-118,-41,978,-19,-13,-8
3514,23,-33,1007,-15,-28,-14
3515,153,-26,1016,-11,-19,-13
3516,141,-1,1006,-12,7,-5
3517,14,2,1006,-17,27,-1
3518,-127,-20,995,-20,26,1
3519,-178,-32,971,-20,5,-4
3520,-86,-48,988,-15,-19,-9
3521,58,-30,1014,-10,-27,-13
3522,160,-15,1009,-10,-14,-11
3523,124,6,1003,-11,10,-5
3524,-29,6,1005,-19,29,3
3525,-144,-13,993,-22,23,0
3526,-168,-50,977,-22,0,-6
3527,-56,-50,997,-14,-24,-9
3528,96,-35,1002,-10,-26,-13
3529,161,-12,1006,-8,-9,-10
3530,94,11,1009,-12,18,-2
3531,-65,4,1005,-19,31,0
3532,-157,-18,991,-22,17,-1
3533,-154,-51,968,-21,-7,-5
3534,-16,-47,998,-14,-27,-13
3535,125,-31,1010,-10,-25,-13
3536,153,-2,1007,-10,-1,-8
3537,64,5,1016,-14,21,0
3538,-93,0,1000,-20,29,2
3539,-170,-29,970,-21,13,-1
3540,-131,-38,985,-16,-12,-7
3541,14,-44,1001,-14,-28,-13
3542,145,-21,1011,-10,-22,-12
3543,145,-8,1010,-13,2,-6
3544,27,5,1009,-15,26,0
3545,-119,-13,988,-19,26,0
3546,-180,-29,975,-20,7,-3
3547,-88,-46,992,-17,-18,-9
3548,46,-33,1007,-11,-26,-12
3549,159,-22,1007,-9,-15,-11
3550,130,2,1013,-10,10,-6
3551,-21,2,995,-17,29,2
3552,-138,-12,1000,-20,23,0
3553,-172,-34,977,-21,1,-3
3554,-65,-45,990,-15,-22,-9
3555,94,-33,1007,-11,-28,-13
3556,155,-15,1006,-11,-9,-9
3557,103,5,1005,-13,15,-3
3558,-50,6,1010,-19,29,1
3559,-161,-28,985,-20,21,0
3560,-154,-38,981,-19,-5,-5
3561,-23,-50,988,-14,-25,-12
3562,113,-21,1013,-7,-24,-12
3563,158,-3,1009,-11,-4,-9
3564,69,11,1014,-14,21,-4
3565,-88,-4,995,-20,29,2
3566,-172,-25,982,-21,15,-2
3567,-130,-57,978,-19,-11,-8
3568,3,-35,996,-11,-27,-10
3569,136,-23,1017,-10,-22,-14
3570,154,-3,1011,-10,3,-7
3571,36,13,1011,-16,26,2
3572,-113,-11,987,-21,27,0
3573,-170,-31,979,-21,9,-3
3574,-109,-50,985,-17,-14,-7
3575,36,-37,1005,-12,-28,-13
3576,164,-28,1013,-8,-18,-13
3577,128,6,1002,-10,8,-4
3578,4,12,1002,-16,27,0
3579,-138,-14,1001,-21,25,0
3580,-180,-32,963,-21,3,-3
3581,-71,-51,1003,-15,-22,-11
3582,72,-39,1005,-10,-27,-13
3583,160,-9,1004,-10,-12,-10
3584,114,5,1006,-12,13,-5
3585,-47,3,1007,-18,29,2
3586,-149,-14,995,-21,18,0
3587,-170,-46,967,-20,-4,-4
3588,-38,-47,1003,-15,-25,-11
3589,112,-37,1005,-9,-27,-13
3590,158,-7,1001,-9,-5,-8
3591,87,12,1020,-14,18,-2
3592,-70,-4,997,-19,29,1
3593,-174,-22,987,-21,17,0
3594,-139,-45,973,-20,-9,-7
3595,-11,-48,997,-13,-26,-12
3596,129,-22,1009,-9,-24,-12
3597,160,-5,1015,-10,0,-8
3598,51,8,1009,-12,26,1
3599,-97,-11,991,-21,28,1
3600,-176,-29,978,-20,13,-3
3601,-123,-43,983,-18,-14,-6
3602,27,-34,1004,-12,-29,-13
3603,151,-23,1018,-9,-19,-11
3604,145,-4,1006,-10,5,-6
3605,11,7,1003,-15,27,2
3606,-125,-12,994,-20,26,2
3607,-184,-34,978,-20,7,-3
3608,-84,-44,985,-15,-18,-11
3609,63,-37,1016,-11,-27,-14
3610,157,-17,1008,-9,-13,-9
3611,127,-1,1001,-12,12,-5
3612,-29,7,1010,-17,30,2
3613,-144,-13,992,-22,23,1
3614,-170,-37,977,-20,0,-5
3615,-57,-48,996,-16,-23,-9
3616,100,-34,1007,-10,-27,-15
3617,153,-12,1001,-10,-9,-10
3618,97,7,1016,-14,17,-2
3619,-60,-1,1003,-19,28,0
3620,-165,-18,988,-20,18,0
3621,-144,-46,976,-20,-6,-6
3622,-30,-44,990,-13,-23,-10
3623,130,-25,1010,-11,-26,-12
3624,149,-3,1011,-12,-2,-8
3625,63,1,1007,-15,22,-2
3626,-85,-7,1003,-18,29,1
3627,-174,-29,968,-19,15,-1
3628,-115,-29,984,-17,-14,-8
3629,7,-40,1008,-16,-27,-12
3630,144,-22,1006,-10,-21,-12
3631,143,-10,1014,-11,4,-7
3632,25,5,1007,-15,25,1
3633,-116,-14,981,-21,25,2
3634,-174,-30,985,-20,7,-4
3635,-86,-48,985,-18,-18,-9
3636,53,-35,1011,-11,-26,-14
3637,152,-15,1013,-9,-14,-9
3638,122,5,1003,-12,10,-5
3639,-16,2,1002,-17,28,0
3640,-142,-12,1002,-23,24,2
3641,-168,-42,969,-21,-1,-4
3642,-60,-47,999,-15,-23,-10
3643,93,-36,1006,-13,-28,-12
3644,154,-19,999,-8,-9,-9
3645,100,12,1015,-13,16,-2
3646,-58,1,1000,-19,31,2
3647,-161,-19,994,-18,19,-1
3648,-152,-43,974,-20,-7,-5
3649,-30,-43,991,-13,-25,-11
3650,121,-31,1013,-9,-26,-14
3651,158,-5,1008,-11,-3,-9
3652,68,1,1009,-15,22,-1
3653,-84,1,999,-19,29,2
3654,-175,-32,979,-21,14,-2
3655,-131,-41,976,-17,-11,-8
3656,8,-45,1003,-14,-29,-13
3657,143,-16,1017,-8,-22,-12
3658,153,-3,1007,-11,2,-7
3659,25,5,1016,-16,25,1
3660,-114,-13,984,-23,27,1
3661,-180,-37,978,-21,10,-2
3662,-99,-48,987,-15,-17,-8
3663,45,-36,1009,-10,-29,-13
3664,164,-12,1011,-8,-17,-10
3665,131,4,1009,-13,10,-5
3666,-5,11,997,-19,28,0
3667,-143,-21,999,-21,24,1
3668,-180,-43,967,-23,2,-4
3669,-63,-53,1000,-14,-21,-11
3670,83,-32,1008,-10,-28,-13
3671,162,-8,1002,-9,-10,-10
3672,120,10,1011,-12,15,-4
3673,-54,7,1005,-20,30,3
3674,-158,-17,989,-23,20,-1
3675,-166,-55,979,-24,-3,-5
3676,-35,-48,990,-14,-25,-11
3677,116,-34,1000,-10,-27,-12
3678,165,-3,1017,-9,-5,-9
3679,78,14,1011,-14,21,-2
3680,-86,1,997,-18,31,1
3681,-174,-29,991,-22,16,-2
3682,-136,-46,967,-18,-10,-8
3683,3,-47,1003,-13,-27,-11
3684,133,-23,1011,-10,-23,-12
3685,155,-7,1012,-10,2,-8
3686,45,7,1011,-15,24,0
3687,-115,-3,995,-22,29,2
3688,-171,-24,971,-21,9,-3
3689,-116,-50,989,-20,-15,-8
3690,36,-40,1002,-12,-29,-13
3691,155,-25,1020,-10,-18,-11
3692,139,0,1000,-12,7,-4
3693,3,6,1002,-15,26,2
3694,-133,-12,999,-20,25,0
3695,-182,-32,971,-21,5,-3
3696,-65,-44,991,-14,-22,-11
3697,66,-38,1012,-12,-27,-12
3698,165,-16,1007,-8,-13,-11
3699,113,-1,1002,-13,14,-5
3700,-42,8,1009,-18,31,1
3701,-147,-18,985,-22,22,-1
3702,-168,-45,981,-20,-1,-5
3703,-32,-41,996,-14,-25,-11
3704,104,-33,1006,-9,-24,-13
3705,159,-8,1004,-8,-6,-10
3706,83,14,1018,-14,19,-2
3707,-74,0,999,-19,30,0
3708,-164,-21,988,-22,16,-1
3709,-144,-53,975,-20,-9,-7
3710,-6,-36,993,-11,-27,-12
3711,130,-34,1015,-10,-23,-14
3712,150,-3,1008,-11,1,-8
3713,50,6,1014,-14,23,1
3714,-107,-4,994,-20,28,1
3715,-173,-25,977,-19,10,0
3716,-116,-42,983,-17,-14,-9
3717,26,-42,1009,-13,-28,-14
3718,154,-21,1005,-9,-19,-13
3719,143,-2,1015,-10,7,-6
3720,9,7,999,-16,27,1
3721,-131,-11,994,-20,26,1
3722,-174,-31,973,-22,5,-4
3723,-83,-45,993,-17,-19,-9
3724,63,-38,1010,-10,-28,-14
3725,164,-19,1011,-10,-15,-11
3726,120,8,999,-11,11,-4
3727,-33,4,1003,-18,28,0
3728,-146,-10,1000,-22,21,0
3729,-175,-44,965,-21,-1,-4
3730,-45,-51,1006,-15,-24,-11
3731,106,-40,1002,-11,-28,-13
3732,161,-7,1004,-7,-6,-10
3733,96,7,1010,-15,18,-3
3734,-77,6,1006,-19,30,2
3735,-164,-23,985,-21,15,-1
3736,-147,-47,974,-20,-8,-7
3737,-9,-46,996,-13,-27,-11
3738,131,-21,1014,-10,-23,-11
3739,160,-8,1009,-12,0,-7
3740,50,14,1015,-14,23,1
3741,-101,-9,993,-20,28,1
3742,-169,-35,977,-21,12,-3
3743,-129,-49,977,-18,-14,-6
3744,24,-36,1011,-12,-29,-14
3745,152,-23,1008,-9,-20,-12
3746,143,2,1011,-11,6,-6
3747,16,0,1008,-18,26,0
3748,-133,-15,984,-21,25,0
3749,-176,-40,979,-22,4,-3
3750,-90,-41,988,-16,-19,-10
3751,63,-43,1014,-11,-28,-13
3752,167,-19,1008,-8,-14,-11
3753,120,4,1004,-11,12,-4
3754,-22,15,1000,-17,28,2
3755,-150,-16,1000,-22,22,0
3756,-182,-41,964,-21,0,-4
3757,-49,-48,1005,-15,-25,-10
3758,95,-40,1002,-9,-28,-12
3759,160,-12,1006,-8,-8,-9
3760,105,11,1018,-12,15,-4
3761,-63,4,998,-19,31,2
3762,-168,-21,990,-20,19,0
3763,-158,-39,978,-19,-6,-6
3764,-12,-50,988,-16,-28,-12
3765,122,-32,1016,-8,-26,-12
3766,158,-7,1005,-10,-3,-8
3767,67,12,1016,-12,23,-3
3768,-90,-2,996,-19,30,1
3769,-176,-22,980,-22,14,-2
3770,-131,-54,976,-19,-12,-7
3771,14,-36,1000,-11,-27,-12
3772,148,-26,1019,-11,-22,-14
3773,153,0,1007,-10,4,-7
3774,25,6,1009,-17,28,0
3775,-124,-9,992,-20,28,0
3776,-179,-37,971,-20,7,-3
3777,-104,-45,989,-17,-18,-8
3778,53,-40,1011,-12,-30,-14
3779,158,-18,1011,-8,-16,-11
3780,138,1,1000,-13,10,-5
3781,-8,7,1008,-16,30,-1
3782,-148,-10,991,-23,25,2
3783,-177,-38,975,-21,2,-6
3784,-63,-49,999,-15,-23,-11
3785,88,-41,1004,-11,-29,-12
3786,172,-11,1003,-8,-10,-10
3787,103,10,1015,-13,16,-2
3788,-48,11,999,-19,31,2
3789,-166,-21,992,-23,20,0
3790,-161,-44,975,-21,-5,-5
3791,-28,-47,996,-13,-24,-12
3792,121,-35,1005,-9,-25,-13
3793,158,0,1014,-9,-2,-9
3794,78,7,1010,-16,20,-1
3795,-93,-2,1002,-20,31,2
3796,-173,-27,981,-21,14,-2
3797,-137,-45,973,-19,-12,-7
3798,3,-36,1002,-12,-28,-12
3799,150,-24,1017,-12,-23,-13
3800,148,-3,1012,-11,3,-7
3801,32,3,1007,-16,24,0
3802,-111,-8,995,-22,28,0
3803,-183,-36,971,-22,9,-1
3804,-103,-40,991,-18,-17,-9
3805,43,-40,1006,-12,-29,-12
3806,152,-10,1013,-10,-17,-10
3807,137,0,1005,-12,8,-5
3808,-2,-1,1005,-18,26,0
3809,-142,-15,991,-22,25,2
3810,-175,-35,977,-19,3,-5
3811,-70,-44,987,-15,-20,-10
3812,82,-33,1017,-10,-28,-12
3813,163,-12,1003,-8,-12,-9
3814,109,2,1009,-13,15,-4
3815,-44,2,1001,-18,29,1
3816,-158,-27,993,-22,20,-1
3817,-164,-42,973,-18,-4,-6
3818,-25,-41,1000,-13,-26,-12
3819,109,-27,1007,-9,-25,-13
3820,157,-5,1004,-9,-4,-8
3821,84,2,1018,-13,21,-3
3822,-90,0,999,-18,31,4
3823,-167,-32,981,-22,15,-1
3824,-138,-49,982,-19,-10,-7
3825,-1,-44,987,-13,-27,-11
3826,141,-24,1018,-9,-22,-14
3827,154,1,1015,-10,3,-6
3828,36,17,1005,-14,26,2
3829,-102,-11,997,-21,28,2
3830,-187,-31,971,-22,12,-2
3831,-110,-53,978,-19,-15,-9
3832,34,-40,1014,-12,-29,-14
3833,156,-22,1010,-9,-18,-10
3834,143,1,1009,-10,8,-6
3835,1,4,1003,-17,27,2
3836,-134,-8,992,-20,25,1
3837,-178,-34,977,-22,4,-3
3838,-86,-44,989,-15,-20,-10
3839,76,-40,1016,-11,-29,-14
3840,163,-24,1008,-8,-13,-10
3841,115,1,999,-12,12,-2
3842,-36,5,1014,-15,30,1
3843,-149,-16,986,-21,21,0
3844,-179,-36,972,-19,-2,-4
3845,-41,-47,1003,-16,-26,-13
3846,106,-33,1002,-11,-27,-12
3847,158,-14,1006,-8,-6,-8
3848,96,9,1017,-13,18,-2
3849,-75,-1,1000,-19,30,2
3850,-165,-24,988,-21,17,-1
3851,-154,-47,973,-21,-8,-6
3852,-6,-43,991,-13,-27,-14
3853,132,-24,1018,-9,-24,-12
3854,155,0,1002,-11,0,-8
3855,59,8,1017,-13,24,-1
3856,-104,-13,991,-22,30,3
3857,-180,-28,977,-19,12,-2
3858,-120,-50,980,-18,-15,-8
3859,22,-33,1003,-13,-28,-12
3860,154,-21,1014,-10,-19,-11
3861,140,-1,1009,-10,7,-5
3862,23,1,1005,-17,26,1
3863,-130,-12,993,-18,27,1
3864,-180,-31,969,-20,7,-3
3865,-87,-49,995,-16,-19,-10
3866,55,-31,1007,-10,-28,-11
3867,162,-14,1010,-11,-15,-9
3868,131,-3,1006,-10,11,-5
3869,-22,7,998,-18,29,2
3870,-149,-19,997,-22,23,0
3871,-171,-37,975,-19,1,-5
3872,-58,-45,999,-16,-22,-10
3873,93,-28,999,-10,-26,-12
3874,163,-16,1010,-10,-9,-9
3875,92,7,1009,-13,16,-2
3876,-56,-2,1001,-19,31,2
3877,-157,-26,994,-20,19,-1
3878,-157,-48,970,-19,-6,-4
3879,-18,-44,990,-12,-26,-13
3880,121,-20,1016,-8,-25,-14
3881,155,0,1009,-11,-2,-8
3882,71,0,1013,-14,22,-1
3883,-93,-5,996,-22,29,3
3884,-175,-30,977,-21,13,-2
3885,-126,-50,979,-17,-13,-9
3886,8,-43,1000,-12,-27,-12
3887,152,-16,1016,-8,-21,-13
3888,146,-5,1011,-11,4,-8
3889,28,10,1003,-15,25,0
3890,-116,-8,996,-20,27,2
3891,-184,-38,975,-21,8,-2
3892,-100,-46,988,-17,-19,-9
3893,56,-34,1011,-12,-30,-12
3894,154,-13,1013,-9,-16,-10
3895,135,3,998,-11,10,-5
3896,-17,7,1008,-16,29,1
3897,-134,-19,995,-22,23,0
3898,-182,-40,973,-19,2,-3
3899,-56,-48,992,-15,-24,-12
3900,87,-34,1011,-9,-28,-13
3901,156,-9,998,-9,-10,-8
3902,112,8,1017,-13,15,-3
3903,-52,4,1001,-19,30,2
3904,-165,-18,989,-22,20,0
3905,-150,-49,976,-21,-5,-7
3906,-39,-49,990,-15,-23,-10
3907,122,-31,1002,-10,-27,-14
3908,154,-2,1022,-9,-3,-9
3909,81,4,1005,-15,20,-2
3910,-87,-3,1002,-19,30,2
3911,-177,-27,980,-22,14,-2
3912,-130,-45,977,-18,-12,-8
3913,2,-38,998,-13,-27,-11
3914,143,-19,1020,-10,-22,-12
3915,156,-12,1012,-12,3,-7
3916,34,8,1001,-16,26,1
3917,-119,-14,1000,-19,27,1
3918,-179,-28,968,-19,9,-4
3919,-100,-45,993,-18,-16,-9
3920,45,-32,1003,-11,-27,-13
3921,156,-17,1020,-11,-16,-10
3922,137,0,997,-12,8,-6
3923,-10,4,1007,-17,28,0
3924,-139,-15,994,-21,23,1
3925,-182,-36,969,-23,3,-5
3926,-60,-46,1002,-15,-23,-11
3927,77,-29,1008,-12,-28,-13
3928,165,-15,1003,-9,-10,-10
3929,113,4,1010,-13,15,-3
3930,-57,-2,1003,-19,31,2
3931,-153,-21,989,-21,20,-2
3932,-157,-48,978,-21,-5,-4
3933,-33,-40,992,-13,-25,-11
3934,120,-28,1002,-11,-26,-14
3935,156,-7,1019,-10,-4,-8
3936,75,12,1004,-15,20,0
3937,-83,-7,1002,-20,30,1
3938,-175,-26,987,-21,15,-2
3939,-135,-48,968,-21,-11,-8
3940,8,-45,1000,-12,-27,-13
3941,139,-24,1018,-9,-23,-13
3942,161,2,1007,-10,2,-7
3943,36,13,1011,-14,26,1
3944,-120,-10,990,-22,28,1
3945,-185,-36,969,-21,8,-4
3946,-105,-45,991,-16,-18,-9
3947,33,-42,1004,-13,-30,-12
3948,163,-19,1012,-7,-18,-12
3949,144,0,1010,-11,7,-4
3950,0,13,991,-16,28,1
3951,-141,-7,1009,-20,25,0
3952,-179,-40,963,-22,3,-4
3953,-86,-51,991,-17,-21,-9
3954,79,-37,1016,-10,-30,-13
3955,166,-19,1007,-11,-11,-11
3956,119,6,1001,-11,14,-2
3957,-41,9,1009,-17,30,2
3958,-155,-16,989,-22,21,0
3959,-171,-41,977,-18,-2,-4
3960,-38,-49,998,-16,-25,-12
3961,108,-36,1004,-10,-27,-13
3962,165,-10,1006,-7,-7,-9
3963,83,7,1018,-13,20,0
3964,-72,3,993,-18,30,2
3965,-170,-26,993,-21,16,-1
3966,-148,-42,967,-21,-9,-6
3967,-10,-47,996,-11,-27,-12
3968,136,-26,1013,-10,-26,-12
3969,148,-3,1011,-11,-1,-6
3970,58,3,1014,-14,23,-1
3971,-103,-5,994,-21,29,3
3972,-181,-27,973,-20,12,-2
3973,-118,-43,984,-19,-15,-8
3974,27,-42,1008,-13,-28,-13
3975,151,-20,1008,-10,-19,-11
3976,142,-5,1013,-12,7,-7
3977,10,4,1004,-14,27,2
3978,-130,-14,987,-21,28,1
3979,-179,-28,982,-21,6,-6
3980,-76,-39,986,-16,-20,-10
3981,63,-36,1014,-12,-27,-14
3982,161,-20,1011,-10,-14,-11
3983,119,0,1000,-13,13,-4
3984,-33,-2,1003,-19,30,1
3985,-147,-17,1003,-22,22,1
3986,-169,-39,968,-18,-1,-5
3987,-49,-42,999,-13,-24,-11
3988,103,-32,1012,-9,-28,-13
3989,160,-11,999,-8,-7,-7
3990,89,6,1015,-12,18,-2
3991,-70,0,1007,-18,29,0
3992,-163,-19,985,-22,17,-1
3993,-150,-53,976,-20,-7,-6
3994,-12,-45,993,-11,-26,-12
3995,126,-28,1014,-8,-24,-12
3996,158,1,1006,-9,-1,-7
3997,55,12,1016,-14,23,1
3998,-93,-3,997,-20,28,3
3999,-177,-27,975,-22,12,0
4000,-124,-47,980,-19,-14,-8
4001,20,-44,1006,-13,-29,-12
4002,145,-22,1010,-9,-21,-10
4003,149,-7,1007,-12,5,-6
4004,19,3,1014,-14,26,0
4005,-122,-6,981,-22,26,2
4006,-184,-29,979,-19,7,-5
4007,-89,-41,991,-20,-19,-10
4008,60,-44,1009,-10,-28,-15
4009,157,-14,1008,-7,-16,-11
4010,131,-3,1007,-12,11,-5
4011,-26,1,1001,-16,28,1
4012,-148,-15,998,-21,22,0
4013,-167,-37,978,-19,-1,-6
4014,-58,-47,997,-14,-22,-10
4015,90,-30,1004,-11,-27,-13
4016,166,-14,1008,-9,-8,-10
4017,98,9,1008,-13,17,-2
4018,-62,5,1002,-21,30,2
4019,-161,-24,995,-21,19,-1
4020,-154,-46,972,-18,-6,-5
4021,-23,-45,993,-13,-26,-12
4022,121,-29,1014,-9,-26,-14
4023,159,-4,1004,-9,-3,-7
4024,68,6,1017,-14,22,-1
4025,-87,-3,994,-20,28,2
4026,-176,-26,976,-21,15,-2
4027,-124,-42,981,-19,-12,-8
4028,11,-47,1003,-14,-27,-12
4029,142,-19,1009,-9,-22,-12
4030,151,-10,1015,-10,3,-7
4031,30,9,1003,-16,26,0
4032,-120,-7,990,-20,28,1
4033,-179,-33,977,-19,9,-4
4034,-102,-45,994,-17,-18,-9
4035,47,-32,1000,-12,-30,-14
4036,157,-19,1023,-11,-15,-12
4037,131,-4,994,-13,9,-5
4038,-14,3,1009,-16,27,1
4039,-132,-12,993,-21,23,0
4040,-185,-33,981,-21,3,-3
4041,-64,-48,990,-16,-22,-12
4042,81,-37,1015,-12,-27,-14
4043,167,-10,999,-10,-12,-10
4044,105,10,1014,-13,15,-3
4045,-41,1,1000,-20,30,0
4046,-163,-20,1002,-21,20,0
4047,-161,-46,964,-21,-5,-6
4048,-34,-43,1006,-15,-25,-11
4049,116,-37,1002,-10,-27,-11
4050,155,-5,1009,-9,-3,-8
4051,83,6,1017,-7,17,-4
4052,-88,-1,1001,-16,27,2
4053,-168,-26,974,-19,14,-2
4054,-141,-46,984,-19,-10,-7
4055,3,-39,996,-13,-28,-12
4056,143,-28,1012,-9,-21,-12
4057,147,-6,1010,-11,3,-7
4058,37,8,1009,-14,23,0
4059,-110,-14,993,-21,27,0
4060,-180,-30,972,-21,9,-2
4061,-103,-47,989,-16,-17,-10
4062,41,-42,1007,-12,-29,-14
4063,150,-16,1008,-9,-16,-9
4064,142,-2,1011,-12,8,-6
4065,-2,1,1000,-16,27,3
4066,-135,-15,989,-19,24,1
4067,-180,-42,981,-20,3,-4
4068,-77,-45,988,-14,-20,-7
4069,77,-32,1010,-9,-28,-12
4070,154,-18,1012,-9,-11,-9
4071,121,8,1002,-10,12,-4
4072,-38,6,1005,-19,30,1
4073,-160,-13,995,-22,22,1
4074,-164,-42,974,-20,-4,-6
4075,-43,-46,998,-16,-24,-11
4076,100,-33,1002,-10,-27,-12
4077,165,-6,1009,-9,-7,-10
4078,91,3,1012,-13,19,-1
4079,-82,5,997,-20,31,3
4080,-164,-24,996,-21,15,-1
4081,-143,-45,967,-21,-9,-6
4082,-19,-45,996,-12,-27,-12
4083,136,-27,1018,-8,-24,-15
4084,159,-7,1011,-11,-1,-8
4085,50,11,1006,-13,24,1
4086,-99,0,1001,-21,29,0
4087,-178,-35,973,-22,12,-1
4088,-118,-41,981,-16,-14,-7
4089,23,-47,1011,-13,-28,-13
4090,151,-20,1016,-8,-19,-11
4091,152,-2,1001,-11,6,-5
4092,9,4,1005,-17,28,0
4093,-128,-14,1000,-20,25,1
4094,-171,-26,972,-20,6,-3
4095,-94,-49,993,-18,-17,-10
4096,66,-28,1014,-10,-29,-15
4097,167,-25,1003,-10,-13,-11
4098,120,1,1007,-11,13,-4
4099,-22,9,1004,-19,29,1
4100,-152,-19,994,-23,24,1
4101,-171,-41,974,-20,-1,-4
4102,-52,-45,997,-15,-24,-11
4103,100,-33,1005,-11,-27,-15
4104,161,-8,1003,-9,-6,-8
4105,96,8,1017,-14,19,-2
4106,-70,-5,993,-21,31,1
4107,-159,-19,997,-21,17,-2
4108,-153,-49,968,-21,-6,-5
4109,-18,-39,991,-13,-25,-12
4110,130,-26,1019,-10,-25,-13
4111,148,-2,1007,-10,0,-8
4112,68,0,1008,-14,23,-2
4113,-106,-7,1002,-19,30,2
4114,-174,-26,969,-21,13,-2
4115,-123,-39,986,-17,-13,-9
4116,16,-40,1003,-14,-28,-12
4117,145,-18,1014,-9,-19,-12
4118,150,-5,1011,-11,4,-7
4119,16,4,1008,-17,27,0
4120,-122,-10,988,-21,26,0
4121,-179,-36,976,-20,7,-4
4122,-94,-48,989,-17,-19,-9
4123,55,-29,1012,-9,-28,-13
4124,163,-23,1011,-10,-16,-12
4125,126,6,1001,-10,12,-3
4126,-19,5,1008,-18,28,1
4127,-141,-13,991,-22,24,0
4128,-179,-39,978,-21,1,-3
4129,-53,-43,989,-15,-23,-12
4130,91,-40,1016,-12,-28,-12
4131,165,-16,997,-9,-10,-10
4132,106,9,1014,-12,16,-2
4133,-60,4,1007,-18,32,0
4134,-162,-20,985,-21,19,0
4135,-156,-43,977,-20,-6,-6
4136,-28,-48,998,-13,-25,-12
4137,129,-28,1002,-9,-26,-12
4138,155,-13,1015,-11,-2,-8
4139,70,16,1014,-14,20,0
4140,-84,-11,995,-22,29,2
4141,-183,-29,979,-20,15,0
4142,-126,-46,979,-18,-13,-8
4143,11,-38,1003,-11,-28,-14
4144,142,-25,1012,-9,-21,-11
4145,152,-1,1011,-9,5,-7
4146,28,2,1012,-16,27,0
4147,-121,-3,987,-21,27,2
4148,-176,-35,978,-21,7,-3
4149,-104,-45,994,-17,-18,-9
4150,52,-39,995,-12,-29,-13
4151,153,-21,1022,-9,-14,-11
4152,134,-1,997,-11,9,-3
4153,-11,1,1003,-15,28,1
4154,-143,-11,996,-21,25,1
4155,-177,-31,976,-21,1,-3
4156,-59,-44,995,-14,-23,-12
4157,81,-35,1008,-11,-28,-12
4158,168,-12,1009,-9,-11,-10
4159,105,-3,1004,-14,17,-2
4160,-51,5,1005,-19,29,1
4161,-157,-21,994,-20,20,-2
4162,-161,-37,970,-18,-5,-5
4163,-30,-45,1004,-13,-26,-13
4164,117,-31,1001,-10,-26,-13
4165,156,-7,1012,-12,-4,-9
4166,82,11,1017,-14,19,-2
4167,-89,-5,994,-19,31,3
4168,-171,-31,986,-22,14,-1
4169,-135,-44,967,-19,-11,-6
4170,-2,-41,1007,-13,-26,-12
4171,145,-22,1008,-11,-23,-13
4172,146,-6,1010,-12,4,-7
4173,48,0,1014,-15,24,-2
4174,-118,-5,992,-21,29,1
4175,-175,-34,967,-20,9,-1
4176,-110,-41,992,-19,-15,-10
4177,37,-45,1003,-11,-27,-13
4178,155,-17,1011,-8,-18,-10
4179,141,0,1006,-12,8,-5
4180,0,12,1006,-16,29,1
4181,-135,-11,988,-21,24,1
4182,-181,-36,981,-22,3,-3
4183,-75,-44,983,-16,-23,-9
4184,69,-30,1014,-11,-28,-13
4185,170,-22,1003,-10,-14,-11
4186,114,2,1005,-10,14,-2
4187,-38,2,1005,-19,29,2
4188,-158,-18,992,-20,21,-1
4189,-164,-45,977,-20,-3,-6
4190,-43,-43,993,-14,-23,-10
4191,113,-31,1008,-10,-27,-14
4192,161,-8,1005,-10,-5,-9
4193,82,7,1015,-15,18,-2
4194,-71,0,998,-19,29,1
4195,-174,-27,990,-20,16,0
4196,-140,-45,966,-20,-9,-8
4197,-7,-53,1003,-12,-27,-14
4198,140,-23,1009,-7,-25,-13
4199,151,-3,1010,-10,1,-8
4200,51,11,1015,-13,24,0
4201,-109,-3,996,-19,29,2
4202,-180,-28,970,-21,10,-3
4203,-115,-48,988,-17,-15,-9
4204,27,-46,1004,-13,-30,-13
4205,163,-19,1015,-9,-20,-11
4206,136,-3,1004,-11,8,-5
4207,9,9,1009,-15,28,0
4208,-131,-9,988,-20,27,2
4209,-186,-32,976,-22,5,-3
4210,-75,-50,995,-16,-20,-10
4211,66,-37,1010,-11,-27,-14
4212,165,-20,1009,-11,-13,-10
4213,122,0,1005,-10,13,-4
4214,-33,8,1006,-16,30,2
4215,-159,-14,991,-22,23,1
4216,-164,-40,978,-19,-2,-6
4217,-45,-45,996,-17,-24,-10
4218,100,-37,999,-10,-28,-13
4219,164,-11,1016,-8,-7,-10
4220,91,9,1006,-14,19,-1
4221,-73,5,1008,-20,31,2
4222,-171,-32,985,-22,18,0
4223,-150,-42,973,-18,-7,-5
4224,-3,-43,994,-12,-27,-12
4225,126,-22,1021,-9,-22,-12
4226,165,-3,1005,-12,0,-8
4227,51,5,1012,-16,24,1
4228,-101,-8,993,-21,27,1
4229,-181,-33,976,-21,12,-1
4230,-115,-46,982,-17,-15,-8
4231,17,-44,1006,-12,-28,-12
4232,161,-18,1012,-8,-19,-14
4233,144,4,1016,-11,7,-5
4234,15,9,1000,-18,27,1
4235,-135,-15,998,-21,28,1
4236,-179,-32,970,-21,6,-3
4237,-92,-51,993,-16,-19,-9
4238,68,-37,1013,-9,-30,-13
4239,168,-19,1008,-8,-14,-11
4240,122,6,1004,-10,13,-4
4241,-23,8,1002,-17,29,1
4242,-150,-17,993,-22,24,1
4243,-177,-41,975,-20,0,-4
4244,-49,-41,1000,-12,-23,-10
4245,98,-42,1005,-11,-27,-12
4246,158,-13,1003,-8,-7,-9
4247,103,5,1013,-13,17,-3
4248,-70,8,1000,-19,31,3
4249,-163,-17,989,-21,18,0
4250,-152,-49,972,-21,-8,-6
4251,-19,-39,995,-12,-26,-12
4252,126,-29,1006,-10,-24,-11
4253,158,-6,1021,-11,-1,-7
4254,70,8,998,-14,23,1
4255,-103,-5,1008,-20,30,2
4256,-169,-31,973,-21,11,-2
4257,-134,-43,977,-16,-12,-7
4258,16,-36,1008,-13,-29,-13
4259,151,-20,1010,-11,-21,-12
4260,152,-12,1012,-11,4,-7
4261,24,6,1003,-15,28,2
4262,-123,-16,994,-22,28,0
4263,-181,-32,973,-20,8,-3
4264,-93,-44,991,-17,-18,-9
4265,46,-34,1007,-11,-28,-13
4266,166,-19,1015,-9,-17,-11
4267,133,0,1001,-12,11,-4
4268,-15,6,999,-18,29,1
4269,-143,-14,1000,-22,24,-1
4270,-182,-40,969,-20,2,-5
4271,-60,-45,1002,-14,-23,-11
4272,96,-42,1003,-11,-29,-12
4273,163,-11,1004,-8,-10,-9
4274,108,9,1010,-11,15,-3
4275,-55,8,1006,-19,31,1
4276,-167,-25,988,-22,20,0
4277,-161,-41,977,-18,-7,-5
4278,-18,-50,991,-13,-27,-13
4279,119,-25,1012,-8,-26,-12
4280,159,-5,1003,-10,-4,-8
4281,75,14,1022,-14,21,0
4282,-90,-5,992,-19,30,3
4283,-180,-22,982,-23,15,0
4284,-130,-50,985,-18,-13,-8
4285,5,-39,991,-13,-27,-12
4286,145,-29,1025,-9,-23,-13
4287,157,-7,1003,-8,3,-8
4288,29,8,1017,-15,27,2
4289,-112,-10,986,-20,28,0
4290,-183,-29,979,-21,11,-2
4291,-101,-41,986,-17,-18,-9
4292,40,-32,1013,-12,-28,-13
4293,164,-18,1009,-11,-17,-12
4294,132,-4,1006,-13,9,-5
4295,-1,1,998,-17,27,1
4296,-141,-18,1003,-20,24,2
4297,-181,-38,965,-20,4,-4
4298,-66,-42,1000,-15,-20,-10
4299,79,-32,1013,-11,-29,-12
4300,166,-5,1001,-11,-12,-10
4301,113,2,1005,-11,15,-4
4302,-52,2,1011,-19,31,3
4303,-154,-27,984,-22,21,-1
4304,-164,-44,979,-19,-4,-5
4305,-37,-48,996,-15,-27,-12
4306,122,-29,1000,-8,-27,-15
4307,158,-5,1015,-10,-4,-8
4308,81,16,1011,-14,19,-2
4309,-81,-5,1000,-20,31,0
4310,-174,-23,983,-22,15,0
4311,-144,-44,973,-21,-10,-7
4312,0,-51,997,-14,-29,-14
4313,137,-24,1020,-8,-24,-12
4314,160,-5,1002,-10,2,-7
4315,45,10,1018,-14,25,0
4316,-110,-8,988,-21,28,2
4317,-179,-28,976,-21,11,-4
4318,-115,-45,984,-19,-15,-8
4319,30,-36,1010,-11,-28,-13
4320,160,-20,1007,-9,-19,-12
4321,143,-1,1006,-12,7,-5
4322,4,0,1008,-17,28,0
4323,-136,-13,984,-21,25,1
4324,-182,-40,985,-19,4,-5
4325,-78,-45,983,-15,-22,-11
4326,71,-35,1017,-12,-28,-12
4327,169,-14,1010,-9,-14,-10
4328,114,2,1001,-14,13,-3
4329,-34,10,1005,-18,30,2
4330,-155,-24,998,-22,22,0
4331,-171,-35,964,-20,-3,-3
4332,-42,-53,1006,-15,-25,-12
4333,107,-33,998,-9,-27,-12
4334,162,-7,1008,-8,-5,-8
4335,92,10,1016,-14,19,-2
4336,-80,3,1000,-20,31,2
4337,-166,-20,985,-22,16,-1
4338,-146,-52,976,-21,-8,-6
4339,-3,-45,992,-12,-29,-13
4340,132,-35,1018,-9,-24,-13
4341,156,0,1005,-8,1,-8
4342,49,13,1017,-12,24,0
4343,-103,-3,988,-22,28,0
4344,-180,-24,979,-21,11,-1
4345,-112,-46,982,-20,-15,-9
4346,23,-44,1006,-13,-28,-12
4347,156,-24,1015,-8,-19,-12
4348,145,-6,1004,-11,7,-5
4349,13,6,1006,-17,29,1
4350,-134,-11,993,-20,26,1
4351,-187,-29,977,-22,5,-4
4352,-80,-45,988,-17,-21,-10
4353,67,-37,1016,-12,-29,-12
4354,163,-15,1011,-10,-13,-11
4355,125,4,1001,-12,13,-3
4356,-34,2,1003,-17,31,3
4357,-152,-20,996,-21,21,0
4358,-171,-39,971,-18,1,-5
4359,-53,-43,998,-14,-24,-10
4360,101,-31,1008,-10,-28,-14
4361,164,-13,1001,-9,-7,-10
4362,98,9,1014,-13,19,-3
4363,-75,3,1001,-19,31,2
4364,-163,-20,993,-21,17,-2
4365,-152,-57,968,-21,-7,-5
4366,-19,-39,997,-13,-26,-12
4367,133,-26,1009,-9,-26,-14
4368,152,-4,1015,-11,-1,-7
4369,65,12,1009,-15,22,0
4370,-97,-6,999,-22,29,2
4371,-183,-34,975,-20,12,-2
4372,-121,-40,975,-16,-14,-8
4373,16,-49,1009,-13,-30,-13
4374,150,-18,1009,-7,-20,-10
4375,151,0,1013,-10,5,-7
4376,17,9,1002,-15,28,-1
4377,-124,-7,992,-20,26,3
4378,-184,-34,976,-23,7,-3
4379,-97,-49,983,-18,-18,-9
4380,63,-43,1017,-12,-30,-15
4381,163,-24,1003,-9,-16,-11
4382,132,5,1007,-10,11,-4
4383,-15,4,1004,-17,29,1
4384,-152,-10,995,-20,24,0
4385,-177,-42,969,-22,-1,-4
4386,-62,-47,1002,-14,-23,-11
4387,95,-38,1003,-12,-29,-12
4388,169,-11,1004,-8,-9,-11
4389,104,0,1014,-9,18,-2
4390,-68,10,1005,-5,38,3
4391,-160,-22,988,-16,21,-1
4392,-162,-48,980,-19,-5,-5
4393,-21,-42,981,-13,-26,-12
4394,125,-30,1024,-8,-25,-15
4395,156,-3,1006,-10,-3,-7
4396,72,11,1012,-15,22,-1
4397,-89,-6,998,-21,31,1
4398,-178,-24,982,-22,14,0
4399,-133,-50,971,-18,-12,-7
4400,10,-42,1008,-12,-28,-14
4401,142,-24,1010,-8,-21,-12
4402,149,-3,1011,-9,4,-8
4403,35,9,1013,-16,24,0
4404,-116,-4,986,-20,28,2
4405,-184,-28,977,-22,9,-2
4406,-100,-54,988,-20,-17,-9
4407,43,-42,1010,-10,-27,-12
4408,165,-24,1002,-9,-18,-11
4409,134,5,1018,-10,11,-5
4410,-5,8,991,-17,29,1
4411,-145,-11,1003,-20,25,0
4412,-181,-34,973,-21,3,-5
4413,-70,-46,993,-16,-20,-11
4414,87,-39,1010,-11,-29,-13
4415,159,-14,1005,-8,-10,-8
4416,117,1,1010,-12,13,-4
4417,-54,6,1004,-19,32,3
4418,-155,-10,992,-21,20,-1
4419,-167,-43,974,-21,-4,-6
4420,-31,-49,994,-15,-25,-12
4421,116,-32,1006,-9,-26,-12
4422,158,-7,1011,-9,-5,-9
4423,79,8,1014,-15,20,-2
4424,-80,-2,1002,-19,29,0
4425,-172,-24,981,-20,16,-2
4426,-141,-42,973,-17,-10,-6
4427,2,-43,1003,-12,-26,-14
4428,141,-24,1005,-11,-23,-12
4429,151,-4,1021,-11,3,-7
4430,44,7,1003,-16,26,1
4431,-114,-12,991,-21,29,2
4432,-181,-35,976,-19,11,-4
4433,-101,-43,986,-17,-17,-10
4434,33,-34,1010,-11,-29,-13
4435,162,-16,1013,-9,-20,-13
4436,141,0,1006,-13,8,-6
4437,-6,1,997,-18,29,1
4438,-133,-10,997,-19,25,0
4439,-183,-42,976,-23,5,-4
4440,-72,-46,986,-14,-20,-9
4441,79,-35,1020,-12,-27,-13
4442,166,-14,998,-8,-10,-10
4443,108,5,1005,-12,14,-3
4444,-38,4,1012,-17,28,0
4445,-154,-21,990,-21,21,1
4446,-171,-45,974,-20,-4,-4
4447,-36,-47,997,-14,-25,-12
4448,114,-40,1007,-10,-26,-13
4449,161,-2,1004,-7,-5,-8
4450,85,9,1017,-13,20,-3
4451,-78,4,1001,-18,30,2
4452,-172,-24,978,-22,16,1
4453,-141,-39,981,-20,-10,-8
4454,-5,-48,994,-14,-28,-13
4455,138,-30,1014,-10,-25,-12
4456,154,-15,1008,-10,1,-8
4457,43,4,1014,-13,24,0
4458,-95,-2,990,-19,29,0
4459,-178,-21,978,-19,11,-1
4460,-122,-34,981,-16,-15,-6
4461,28,-38,1009,-13,-30,-13
4462,155,-26,1009,-10,-20,-11
4463,141,-2,1007,-11,6,-5
4464,18,0,999,-17,26,1
4465,-133,-10,1002,-19,27,2
4466,-176,-31,968,-21,4,-4
4467,-88,-38,997,-16,-20,-9
4468,66,-37,1008,-11,-30,-13
4469,157,-15,1009,-10,-14,-11
4470,128,-7,1004,-12,12,-5
4471,-27,7,1007,-16,30,1
4472,-147,-16,992,-21,23,0
4473,-172,-37,981,-19,-2,-4
4474,-50,-53,991,-17,-24,-9
4475,98,-34,1005,-10,-28,-12
4476,164,-13,1003,-8,-10,-10
4477,92,12,1020,-13,18,-3
4478,-56,1,998,-20,30,0
4479,-166,-22,995,-20,18,-1
4480,-147,-42,973,-19,-8,-6
4481,-20,-54,989,-13,-26,-11
4482,124,-28,1014,-8,-24,-12
4483,154,-4,1010,-9,-1,-9
