sequence,AccelerometerX,AccelerometerY,AccelerometerZ,GyroscopeX,GyroscopeY,GyroscopeZ
0,39,-31,1005,-14,-30,-12
1,122,-29,1009,-8,-22,-13
2,136,-5,1004,-5,-3,-8
3,29,4,1003,-13,20,-3
4,-100,-2,1002,-16,27,0
5,-166,-16,972,-16,10,-2
6,-115,-23,983,-20,-10,-6
7,12,-41,1009,-13,-27,-12
8,115,-28,1008,-17,-21,-11
9,147,-11,1003,-8,-4,-9
10,50,4,1006,-12,22,-2
11,-78,-3,999,-19,29,2
12,-161,-5,973,-20,17,0
13,-135,-26,996,-22,-5,-5
14,-16,-37,1002,-14,-24,-12
15,105,-33,1002,-11,-23,-12
16,151,-13,1007,-10,-9,-10
17,69,-3,1009,-12,16,-3
18,-53,-3,995,-17,27,0
19,-153,0,975,-20,21,3
20,-142,-21,995,-19,0,-3
21,-51,-35,999,-18,-22,-10
22,92,-30,1010,-14,-26,-12
23,151,-20,1008,-11,-10,-11
24,89,-9,1003,-13,14,-3
25,-24,3,1002,-13,26,0
26,-147,-1,979,-20,25,2
27,-150,-24,994,-20,3,-4
28,-73,-33,989,-17,-18,-9
29,75,-27,1007,-14,-27,-13
30,141,-26,1014,-12,-15,-10
31,104,-10,1005,-12,9,-3
32,-2,0,994,-17,27,-2
33,-130,-2,991,-18,27,3
34,-154,-22,986,-18,8,-3
35,-93,-27,983,-17,-17,-8
36,55,-27,1008,-13,-28,-13
37,127,-27,1010,-14,-15,-11
38,124,-11,1008,-12,4,-4
39,17,1,1000,-15,23,0
40,-113,-6,995,-20,27,3
41,-162,-19,979,-19,12,-2
42,-109,-21,990,-19,-11,-5
43,33,-30,1002,-16,-28,-13
44,116,-29,1009,-13,-20,-12
45,139,-7,999,-11,-1,-7
46,34,0,1008,-15,23,-1
47,-90,-4,1001,-18,29,2
48,-165,-13,971,-21,15,0
49,-121,-22,991,-19,-8,-7
50,-2,-37,1004,-16,-27,-11
51,109,-27,1007,-14,-22,-12
52,150,-9,1006,-12,-6,-10
53,53,-1,1003,-13,19,-3
54,-67,-7,999,-18,28,1
55,-158,-8,976,-20,20,1
56,-135,-28,991,-21,-3,-4
57,-33,-37,1001,-17,-24,-11
58,101,-27,1001,-14,-26,-11
59,146,-13,1007,-11,-9,-9
60,79,-3,1007,-15,14,-3
61,-43,-5,1000,-17,28,1
62,-149,-1,969,-21,22,2
63,-148,-25,994,-19,1,-3
64,-60,-35,996,-18,-20,-9
65,84,-28,1011,-15,-25,-12
66,142,-21,1007,-13,-14,-11
67,100,-8,1002,-12,11,-4
68,-15,0,999,-16,26,-1
69,-139,-1,984,-21,27,3
70,-156,-29,991,-22,7,-3
71,-87,-32,981,-19,-17,-8
72,65,-25,1009,-12,-30,-13
73,139,-25,1013,-13,-16,-14
74,115,-9,1013,-12,7,-5
75,7,2,991,-16,25,-2
76,-126,-4,991,-18,27,3
77,-162,-25,987,-20,7,-3
78,-103,-32,983,-17,-13,-7
79,46,-32,1005,-14,-26,-12
80,123,-31,1011,-11,-18,-12
81,134,-4,1003,-9,1,-6
82,23,2,1005,-15,22,-1
83,-103,-5,1002,-18,27,3
84,-167,-20,975,-20,15,0
85,-115,-26,984,-18,-10,-7
86,17,-39,1010,-14,-27,-11
87,117,-32,1004,-12,-21,-13
88,146,-11,1007,-10,-3,-8
89,46,4,1003,-13,21,-2
90,-81,-5,1002,-17,28,2
91,-165,-10,970,-19,16,0
92,-131,-24,993,-19,-6,-5
93,-12,-39,1000,-16,-25,-11
94,107,-28,1003,-10,-24,-12
95,155,-13,1008,-8,-8,-9
96,65,-3,1004,-12,19,-2
97,-56,-5,998,-16,29,1
98,-157,-6,976,-19,21,0
99,-142,-27,994,-18,-1,-4
100,-40,-37,999,-15,-24,-11
101,93,-29,1007,-11,-27,-13
102,155,-17,1006,-10,-11,-11
103,83,-5,1004,-14,14,-3
104,-33,0,999,-14,26,0
105,-150,-5,975,-20,23,2
106,-150,-25,991,-18,3,-3
107,-72,-37,991,-16,-18,-9
108,81,-23,1013,-12,-27,-12
109,144,-20,1007,-9,-14,-11
110,102,-5,1004,-10,9,-2
111,-7,1,996,-16,26,0
112,-138,0,989,-19,26,2
113,-155,-25,989,-21,7,-2
114,-95,-30,984,-16,-15,-9
115,61,-31,1006,-11,-29,-13
116,131,-29,1015,-12,-16,-11
117,121,-11,1009,-10,6,-8
118,16,5,998,-14,24,-2
119,-119,-2,992,-19,26,3
120,-162,-23,983,-18,10,-3
121,-104,-29,984,-18,-13,-7
122,33,-32,1007,-12,-28,-12
123,120,-30,1007,-10,-21,-12
124,138,-10,1003,-11,0,-7
125,34,2,1006,-14,23,-3
126,-94,-9,1004,-16,29,2
127,-164,-17,972,-19,15,0
128,-118,-25,987,-16,-9,-6
129,3,-35,1006,-14,-25,-11
130,112,-29,1007,-11,-22,-14
131,149,-9,1005,-11,-5,-8
132,53,1,1006,-12,21,-1
133,-71,-7,999,-16,28,3
134,-161,-9,973,-18,19,1
135,-134,-25,997,-18,-3,-5
136,-25,-37,998,-16,-24,-12
137,101,-29,1002,-11,-26,-13
138,155,-12,1007,-9,-11,-11
139,73,-3,1008,-13,16,-3
140,-44,-1,997,-16,30,1
141,-155,-5,975,-18,23,0
142,-148,-24,994,-18,0,-4
143,-54,-36,997,-14,-20,-9
144,88,-29,1011,-12,-26,-12
145,150,-18,1006,-10,-12,-11
146,96,-9,1006,-10,10,-3
147,-21,3,997,-13,26,0
148,-144,-1,983,-19,24,1
149,-154,-26,990,-19,5,-4
150,-81,-43,984,-16,-17,-7
151,69,-27,1008,-12,-27,-13
152,141,-24,1014,-10,-17,-12
153,115,-7,1009,-10,8,-5
154,0,5,994,-15,26,0
155,-128,-1,989,-17,27,3
156,-161,-28,988,-20,8,-2
157,-101,-33,981,-17,-14,-7
158,51,-31,1009,-13,-28,-12
159,130,-31,1010,-10,-18,-12
160,131,-3,1005,-9,2,-6
161,23,8,1002,-14,24,-2
162,-113,-6,1000,-17,28,1
163,-166,-20,976,-22,13,-2
164,-112,-30,986,-18,-10,-6
165,25,-37,1006,-14,-28,-13
166,119,-30,1008,-10,-22,-11
167,147,-8,1001,-8,-1,-8
168,39,3,1010,-13,25,-1
169,-87,0,1000,-17,28,3
170,-166,-12,974,-21,15,1
171,-128,-24,989,-19,-7,-5
172,-5,-42,1003,-15,-25,-11
173,111,-31,1008,-12,-24,-14
174,150,-14,1003,-10,-7,-9
175,64,0,1007,-13,18,-2
176,-62,-2,1000,-16,29,2
177,-162,-2,973,-20,21,2
178,-140,-27,998,-20,-3,-4
179,-40,-40,996,-17,-23,-10
180,105,-31,1005,-10,-27,-14
181,153,-19,1012,-10,-10,-9
182,83,-6,1004,-12,15,-3
183,-34,-3,998,-14,28,0
184,-154,-2,977,-19,24,2
185,-150,-26,991,-19,1,-4
186,-65,-37,995,-15,-20,-10
187,84,-24,1010,-13,-28,-12
188,146,-20,1008,-10,-14,-10
189,99,-9,1007,-10,10,-3
190,-10,0,995,-16,25,0
191,-137,-1,991,-20,27,3
192,-156,-22,989,-18,6,-2
193,-89,-30,980,-16,-18,-8
194,64,-28,1008,-11,-30,-13
195,134,-23,1018,-13,-16,-12
196,123,-11,1008,-11,8,-6
197,8,6,995,-14,26,0
198,-119,-6,989,-17,27,2
199,-163,-24,984,-17,9,-2
200,-104,-23,984,-17,-12,-8
201,40,-30,1009,-14,-28,-13
202,120,-32,1005,-11,-20,-12
203,136,-8,1002,-10,0,-7
204,33,0,1007,-14,22,-2
205,-99,-5,1003,-17,29,4
206,-166,-17,971,-18,14,-1
207,-119,-25,983,-18,-9,-5
208,8,-40,1011,-11,-26,-11
209,114,-28,1004,-11,-21,-13
210,149,-9,1005,-10,-4,-9
211,50,1,1005,-12,18,-2
212,-79,-4,998,-17,28,2
213,-162,-10,975,-20,17,-2
214,-133,-28,996,-18,-6,-6
215,-20,-41,999,-15,-24,-11
216,104,-32,1006,-9,-25,-13
217,152,-11,1008,-10,-10,-10
218,73,-2,1005,-12,15,-1
219,-46,0,1002,-16,27,2
220,-159,-7,971,-20,23,2
221,-146,-25,993,-19,-2,-4
222,-50,-40,1001,-16,-23,-10
223,93,-30,1005,-11,-27,-13
224,153,-20,1007,-9,-10,-11
225,91,-5,1005,-11,13,-5
226,-26,3,996,-14,26,-1
227,-148,-5,981,-22,24,1
228,-155,-24,989,-19,3,-4
229,-78,-39,991,-16,-18,-9
230,76,-25,1011,-11,-28,-14
231,143,-23,1013,-10,-15,-11
232,111,-10,1007,-11,9,-5
233,-1,2,995,-15,26,-1
234,-131,0,990,-16,27,3
235,-160,-27,989,-18,7,-3
236,-97,-30,982,-17,-15,-8
237,56,-30,1005,-12,-28,-12
238,130,-28,1015,-11,-18,-11
239,128,-7,1006,-10,4,-7
240,21,2,1002,-13,24,-2
241,-117,-2,996,-17,28,4
242,-165,-20,981,-19,11,-2
243,-106,-27,984,-16,-11,-6
244,25,-33,1010,-15,-28,-11
245,118,-29,1004,-12,-23,-12
246,143,-9,1006,-11,-2,-9
247,39,4,1005,-16,22,-1
248,-92,-6,1004,-18,30,2
249,-162,-14,973,-19,15,-1
250,-125,-23,986,-18,-8,-6
251,0,-40,1006,-15,-25,-12
252,111,-31,1010,-13,-21,-12
253,154,-10,1000,-11,-6,-10
254,55,1,1008,-11,18,-2
255,-66,-4,998,-17,27,1
256,-159,-9,973,-21,20,0
257,-136,-28,997,-19,-3,-4
258,-33,-40,999,-17,-24,-11
259,103,-30,1001,-10,-26,-14
260,150,-14,1006,-8,-10,-10
261,78,-2,1008,-12,15,-3
262,-37,-2,1000,-16,28,0
263,-152,-4,971,-18,23,1
264,-148,-25,995,-17,0,-3
265,-59,-38,996,-15,-22,-9
266,86,-28,1013,-13,-27,-14
267,147,-19,1005,-12,-13,-10
268,97,-5,1004,-10,11,-4
269,-15,-3,997,-15,26,-1
270,-143,-2,983,-18,26,2
271,-153,-25,992,-18,6,-4
272,-86,-35,985,-17,-17,-9
273,68,-26,1006,-12,-28,-13
274,138,-24,1016,-10,-17,-13
275,114,-11,1010,-11,7,-6
276,7,3,993,-13,25,-1
277,-128,0,989,-18,27,3
278,-161,-24,987,-18,8,-2
279,-102,-29,985,-17,-14,-7
280,43,-29,1006,-13,-27,-12
281,124,-30,1010,-10,-20,-14
282,133,-6,1004,-9,0,-7
283,31,3,1004,-13,22,-2
284,-106,-6,1001,-18,29,2
285,-163,-17,975,-19,13,-2
286,-115,-27,985,-17,-10,-7
287,15,-32,1006,-14,-28,-12
288,113,-27,1010,-10,-21,-12
289,146,-8,1002,-12,-2,-8
290,45,0,1006,-14,23,-2
291,-83,-5,1000,-15,29,2
292,-164,-12,972,-19,17,0
293,-131,-23,991,-18,-6,-5
294,-13,-40,1001,-14,-25,-11
295,108,-27,1008,-11,-24,-12
296,154,-9,1000,-8,-8,-9
297,63,-1,1008,-13,18,-2
298,-56,-3,1000,-16,28,1
299,-158,-9,972,-19,21,0
300,-141,-27,995,-18,-1,-4
301,-47,-39,996,-15,-23,-10
302,99,-27,1005,-12,-27,-13
303,151,-15,1006,-9,-12,-11
304,87,-3,1007,-12,13,-3
305,-29,0,1000,-15,28,0
306,-153,-4,975,-20,23,3
307,-152,-28,991,-19,2,-4
308,-72,-42,993,-17,-20,-10
309,82,-25,1009,-10,-27,-13
310,148,-21,1012,-9,-14,-11
311,106,-7,1006,-10,10,-7
312,-7,1,995,-14,25,-1
313,-136,-1,988,-19,26,3
314,-159,-27,989,-20,6,-3
315,-94,-35,982,-16,-17,-9
316,63,-29,1005,-12,-30,-14
317,131,-30,1016,-10,-17,-12
318,124,-4,1009,-10,6,-5
319,16,5,996,-14,24,-2
320,-120,-3,993,-17,28,2
321,-164,-26,984,-19,11,-2
322,-106,-29,988,-17,-12,-7
323,35,-35,1004,-14,-28,-11
324,122,-29,1008,-10,-21,-13
325,138,-8,1006,-8,0,-7
326,36,5,1005,-16,23,-2
327,-97,-4,1003,-17,29,1
328,-166,-14,971,-18,14,-2
329,-118,-27,986,-17,-9,-7
330,6,-40,1003,-14,-27,-12
331,112,-31,1008,-12,-23,-12
332,154,-11,1005,-11,-4,-9
333,48,0,1002,-13,21,-2
334,-72,-3,1003,-15,29,0
335,-161,-9,975,-19,18,0
336,-134,-24,992,-19,-5,-4
337,-24,-39,1004,-16,-24,-11
338,104,-29,1001,-12,-25,-13
339,157,-14,1006,-8,-8,-11
340,70,-5,1009,-14,18,-3
341,-48,-1,999,-16,29,0
342,-150,-6,971,-18,21,2
343,-150,-25,992,-13,4,-3
344,-53,-33,998,-16,-19,-8
345,91,-31,1011,-11,-27,-13
346,151,-17,1006,-10,-13,-10
347,93,-8,1003,-12,12,-4
348,-26,-1,1000,-13,26,-1
349,-145,-3,976,-19,24,2
350,-154,-23,994,-18,5,-4
351,-76,-35,985,-17,-17,-10
352,73,-23,1009,-14,-29,-13
353,140,-23,1011,-10,-17,-12
354,106,-12,1010,-10,7,-6
355,4,0,992,-14,26,-2
356,-131,0,986,-17,27,2
357,-156,-21,991,-19,6,-3
358,-98,-31,982,-16,-15,-8
359,52,-29,1005,-12,-29,-13
360,130,-30,1012,-11,-17,-13
361,127,-5,1008,-10,5,-6
362,22,3,995,-13,25,-1
363,-113,-4,1000,-17,29,3
364,-161,-23,981,-21,12,-1
365,-113,-25,983,-18,-10,-6
366,28,-36,1006,-15,-27,-12
367,115,-31,1009,-10,-21,-11
368,143,-7,1001,-9,-2,-7
369,38,3,1006,-14,22,-3
370,-86,-10,1007,-18,29,2
371,-166,-12,968,-20,16,1
372,-122,-26,987,-17,-7,-6
373,-6,-38,1009,-14,-25,-12
374,109,-31,1002,-12,-23,-12
375,153,-11,1007,-10,-5,-9
376,56,-3,1004,-10,18,-3
377,-65,-1,998,-16,28,2
378,-160,-9,974,-20,21,1
379,-141,-21,1000,-18,-3,-4
380,-29,-38,996,-15,-24,-11
381,99,-30,1006,-11,-25,-13
382,154,-15,1007,-10,-9,-10
383,76,-6,1006,-13,16,-2
384,-37,-1,999,-15,28,1
385,-155,-3,973,-19,22,3
386,-145,-23,992,-17,0,-5
387,-63,-41,998,-14,-21,-9
388,88,-28,1009,-11,-27,-13
389,150,-19,1006,-9,-14,-11
390,96,-8,1005,-9,11,-3
391,-16,0,997,-14,25,-1
392,-139,-4,983,-20,24,3
393,-154,-24,991,-18,5,-2
394,-86,-35,983,-17,-18,-9
395,68,-31,1009,-12,-28,-13
396,136,-25,1013,-10,-16,-11
397,115,-5,1012,-10,8,-5
398,9,3,993,-14,26,-2
399,-128,2,989,-17,27,4
400,-159,-24,989,-21,9,-2
401,-102,-33,981,-16,-14,-7
402,45,-30,1005,-11,-28,-12
403,125,-29,1012,-10,-19,-13
404,134,-8,1004,-7,0,-7
405,27,5,1003,-13,23,-2
406,-105,-2,998,-17,28,2
407,-164,-20,980,-19,13,0
408,-113,-25,982,-17,-11,-7
409,20,-39,1008,-14,-27,-12
410,115,-29,1006,-10,-22,-10
411,144,-9,1003,-9,-2,-8
412,47,0,1006,-12,23,-2
413,-88,-1,1002,-15,30,4
414,-159,-10,972,-19,17,0
415,-133,-26,991,-19,-6,-4
416,-10,-38,1001,-14,-25,-11
417,108,-32,1009,-11,-24,-13
418,151,-11,1000,-10,-6,-9
419,65,-2,1007,-12,18,-2
420,-57,-5,1000,-18,27,1
421,-163,-5,972,-18,21,2
422,-139,-24,996,-16,-2,-4
423,-42,-41,997,-16,-23,-11
424,100,-28,1004,-12,-26,-12
425,151,-17,1008,-9,-10,-11
426,85,-5,1009,-12,14,-3
427,-32,0,998,-13,27,0
428,-153,-2,976,-19,24,2
429,-152,-26,991,-20,2,-2
430,-70,-36,996,-16,-20,-9
431,83,-28,1010,-13,-27,-12
432,145,-19,1009,-9,-14,-11
433,105,-6,1004,-11,10,-4
434,-12,1,996,-16,25,1
435,-138,0,987,-17,25,2
436,-159,-28,990,-19,6,-4
437,-92,-30,981,-16,-17,-8
438,64,-30,1006,-11,-28,-13
439,136,-24,1017,-11,-18,-13
440,121,-10,1009,-11,6,-6
441,15,3,996,-13,25,-2
442,-123,-3,990,-18,28,3
443,-162,-25,984,-18,10,-2
444,-105,-32,986,-18,-12,-7
445,40,-30,1002,-14,-28,-12
446,124,-32,1006,-10,-21,-13
447,138,-5,1008,-8,0,-8
448,29,4,1004,-14,22,0
449,-101,-4,1004,-18,30,3
450,-167,-18,974,-20,15,0
451,-118,-24,985,-18,-11,-5
452,11,-39,1005,-12,-27,-12
453,114,-29,1011,-9,-22,-13
454,149,-11,1002,-10,-3,-9
455,50,4,1004,-12,21,-3
456,-80,-4,1001,-17,29,2
457,-165,-10,973,-19,17,0
458,-136,-25,993,-18,-5,-5
459,-16,-40,1002,-15,-26,-11
460,107,-31,1005,-10,-25,-13
461,155,-12,1005,-10,-9,-10
462,68,-2,1008,-14,17,-2
463,-52,0,1001,-14,28,1
464,-158,-5,971,-20,21,1
465,-145,-25,997,-18,-2,-4
466,-44,-40,995,-17,-22,-10
467,93,-30,1010,-11,-25,-12
468,151,-19,1003,-9,-11,-11
469,87,-6,1009,-11,15,-3
470,-29,0,993,-14,28,0
471,-151,0,983,-19,24,1
472,-147,-25,988,-19,2,-4
473,-79,-36,994,-17,-18,-8
474,79,-28,1009,-14,-28,-14
475,141,-25,1014,-10,-15,-11
476,107,-8,1003,-10,9,-4
477,-4,1,999,-15,28,0
478,-132,-1,986,-18,27,2
479,-158,-25,991,-19,7,-1
480,-93,-31,982,-17,-15,-7
481,57,-32,1004,-15,-28,-11
482,130,-27,1014,-12,-17,-12
483,125,-10,1007,-11,5,-5
484,16,6,999,-15,25,0
485,-121,-4,991,-17,27,2
486,-162,-22,981,-20,11,-2
487,-109,-30,988,-17,-11,-7
488,32,-33,1003,-13,-28,-12
489,122,-32,1007,-10,-20,-14
490,139,-4,1007,-9,-1,-8
491,34,2,1005,-15,22,-1
492,-96,-7,1004,-16,29,1
493,-165,-15,972,-18,14,-1
494,-121,-25,986,-18,-10,-7
495,4,-40,1006,-14,-27,-12
496,112,-28,1010,-10,-23,-12
497,148,-10,1002,-11,-4,-9
498,56,-1,1004,-12,20,-2
499,-70,-5,1000,-15,27,2
500,-162,-9,970,-19,18,0
501,-134,-28,999,-18,-4,-6
502,-27,-37,995,-15,-24,-11
503,106,-32,1001,-11,-25,-14
504,150,-16,1011,-9,-10,-10
505,76,-2,1005,-13,16,-2
506,-44,-4,999,-16,28,1
507,-157,-5,973,-19,22,3
508,-146,-22,992,-18,0,-3
509,-53,-41,998,-17,-21,-11
510,91,-27,1010,-11,-25,-13
511,150,-19,1004,-10,-12,-11
512,95,-7,1006,-11,13,-3
513,-22,0,998,-16,26,0
514,-145,-4,983,-20,25,2
515,-154,-24,989,-19,5,-4
516,-79,-37,990,-14,-18,-10
517,71,-27,1008,-11,-28,-12
518,142,-23,1013,-11,-15,-12
519,114,-6,1008,-11,7,-6
520,1,2,994,-15,26,-2
521,-129,1,991,-18,28,3
522,-160,-28,986,-19,8,-2
523,-100,-34,984,-17,-15,-8
524,48,-30,1005,-12,-27,-13
525,131,-25,1014,-10,-17,-13
526,129,-6,1007,-10,2,-6
527,26,8,1000,-15,24,-1
528,-112,-5,997,-17,28,2
529,-165,-24,976,-20,11,-1
530,-113,-29,986,-16,-11,-7
531,23,-36,1006,-14,-28,-12
532,118,-32,1006,-9,-22,-12
533,144,-8,1005,-10,0,-9
534,41,5,1008,-14,22,-1
535,-88,-5,1002,-18,29,2
536,-167,-14,974,-19,16,-2
537,-126,-24,989,-19,-9,-5
538,-4,-40,1004,-15,-27,-13
539,109,-31,1007,-10,-24,-14
540,153,-9,1004,-9,-6,-8
541,60,1,1003,-11,19,-2
542,-69,-6,997,-17,28,2
543,-162,-7,975,-18,20,0
544,-142,-27,995,-17,-3,-5
545,-35,-40,998,-15,-24,-11
546,105,-29,1004,-9,-27,-14
547,150,-13,1011,-9,-10,-10
548,81,-3,1004,-12,15,-3
549,-41,-4,1003,-15,30,0
550,-157,-4,971,-19,22,3
551,-149,-25,995,-18,-1,-4
552,-63,-39,996,-16,-21,-9
553,90,-27,1012,-12,-26,-13
554,148,-19,1005,-12,-13,-12
555,96,-10,1003,-10,11,-4
556,-14,0,997,-14,26,-1
557,-142,-2,985,-19,27,3
558,-154,-22,988,-20,5,-4
559,-84,-37,986,-16,-17,-8
560,64,-23,1005,-12,-29,-13
561,138,-25,1015,-12,-16,-12
562,119,-12,1016,-11,7,-7
563,10,0,990,-14,25,-1
564,-123,-2,991,-17,26,2
565,-165,-25,987,-19,9,-2
566,-99,-26,982,-16,-14,-8
567,41,-29,1008,-13,-27,-13
568,127,-28,1008,-11,-18,-12
569,136,-11,1007,-11,1,-7
570,26,0,1002,-14,23,-1
571,-109,-7,1000,-17,28,3
572,-165,-20,972,-19,14,-2
573,-116,-23,985,-16,-10,-7
574,18,-33,1010,-13,-28,-12
575,115,-29,1007,-10,-21,-12
576,148,-8,1003,-10,-3,-7
577,44,1,1007,-13,21,-2
578,-83,-5,1000,-16,28,2
579,-161,-15,974,-19,17,2
580,-128,-26,994,-18,-6,-5
581,-16,-39,1003,-15,-24,-11
582,113,-28,1004,-11,-25,-13
583,148,-10,1007,-9,-8,-9
584,66,2,1003,-12,17,-3
585,-58,-7,1002,-17,29,1
586,-158,-7,972,-19,21,2
587,-141,-26,994,-19,-1,-4
588,-45,-42,998,-16,-23,-11
589,96,-27,1004,-11,-27,-14
590,152,-19,1008,-11,-10,-11
591,87,1,1004,-11,15,-3
592,-28,-1,1002,-14,27,0
593,-152,-2,972,-20,23,2
594,-149,-28,993,-20,2,-4
595,-72,-42,992,-16,-20,-12
596,78,-27,1011,-11,-28,-13
597,149,-19,1010,-10,-15,-11
598,108,-9,1005,-10,11,-5
599,-5,6,994,-16,27,0
600,-135,-1,990,-19,27,2
601,-157,-29,990,-20,6,-2
602,-94,-33,977,-18,-16,-8
603,61,-35,1010,-13,-28,-15
604,133,-26,1016,-8,-17,-11
605,123,-4,1008,-10,6,-5
606,17,9,1000,-13,25,-1
607,-123,-2,992,-18,28,4
608,-164,-22,982,-19,10,-2
609,-108,-33,989,-19,-12,-7
610,35,-36,1002,-14,-27,-13
611,121,-31,1009,-10,-21,-12
612,144,-4,1001,-7,0,-8
613,30,4,1008,-14,22,-1
614,-98,0,999,-17,28,2
615,-172,-19,974,-20,14,0
616,-119,-26,987,-19,-10,-6
617,3,-43,1005,-15,-28,-11
618,119,-30,1007,-10,-23,-13
619,152,-11,1005,-10,-4,-9
620,52,5,1005,-11,20,-2
621,-80,-1,1000,-16,28,3
622,-165,-8,975,-20,18,1
623,-137,-26,992,-18,-5,-5
624,-20,-39,1001,-15,-25,-13
625,109,-36,1004,-11,-25,-13
626,155,-14,1005,-9,-8,-9
627,72,-2,1010,-12,16,-3
628,-52,-2,998,-17,29,1
629,-157,-6,973,-19,22,2
630,-150,-21,994,-19,-1,-4
631,-51,-41,998,-17,-22,-10
632,93,-25,1008,-11,-27,-13
633,151,-20,1005,-11,-10,-11
634,91,-8,1007,-10,14,-4
635,-25,-1,997,-15,27,1
636,-150,-1,979,-19,25,2
637,-153,-23,994,-20,4,-3
638,-77,-34,989,-16,-16,-9
639,76,-25,1010,-11,-27,-12
640,142,-25,1010,-11,-15,-11
641,109,-13,1008,-11,10,-5
642,0,0,992,-14,27,0
643,-132,-4,991,-17,27,3
644,-161,-24,988,-18,7,-2
645,-97,-29,978,-17,-17,-8
646,54,-28,1009,-10,-28,-14
647,130,-30,1010,-11,-18,-12
648,126,-9,1009,-11,4,-6
649,21,1,1000,-14,24,-1
650,-115,-5,994,-18,29,2
651,-161,-24,980,-19,12,-2
652,-110,-27,985,-17,-11,-8
653,28,-34,1006,-14,-27,-12
654,120,-30,1005,-11,-20,-12
655,142,-6,1003,-9,-1,-6
656,41,2,1008,-15,22,-2
657,-90,-5,1002,-17,29,1
658,-165,-15,970,-20,16,1
659,-123,-27,991,-19,-8,-4
660,-3,-40,1003,-12,-25,-11
661,110,-32,1007,-10,-23,-13
662,155,-10,1005,-8,-5,-9
663,56,4,1001,-11,20,-2
664,-66,-3,1002,-14,28,1
665,-163,-12,972,-19,19,1
666,-139,-24,993,-19,-3,-3
667,-31,-39,998,-16,-25,-11
668,102,-33,1001,-11,-27,-13
669,153,-14,1008,-9,-10,-9
670,77,-2,1011,-11,16,-3
671,-45,-1,997,-16,29,0
672,-154,-6,973,-18,22,2
673,-150,-23,993,-18,0,-3
674,-60,-40,995,-17,-20,-10
675,92,-27,1012,-11,-26,-14
676,151,-19,1005,-11,-12,-11
677,97,-4,1005,-11,11,-4
678,-21,0,1000,-15,25,0
679,-149,-2,979,-20,25,3
680,-150,-28,992,-20,4,-3
681,-84,-39,985,-15,-15,-8
682,73,-27,1006,-10,-40,-17
683,143,-25,1019,-13,-21,-12
684,111,-5,1010,-11,6,-5
685,7,5,994,-15,26,0
686,-127,-3,988,-18,27,3
687,-160,-25,985,-18,6,-2
688,-96,-33,983,-17,-16,-9
689,46,-32,1006,-11,-27,-13
690,130,-25,1010,-12,-18,-13
691,131,-7,1011,-10,3,-7
692,24,6,998,-12,24,-1
693,-111,-3,1001,-17,28,2
694,-163,-22,976,-19,13,-2
695,-114,-27,987,-18,-11,-5
696,24,-39,1005,-15,-27,-12
697,115,-32,1008,-10,-21,-13
698,147,-3,1003,-10,-2,-8
699,39,0,1008,-13,23,-2
700,-88,-3,1004,-17,28,3
701,-166,-12,971,-20,15,0
702,-127,-23,988,-19,-9,-6
703,-3,-42,1007,-14,-26,-12
704,113,-33,1005,-11,-23,-14
705,152,-11,1002,-10,-5,-9
706,60,0,1009,-10,19,-3
707,-66,0,998,-15,28,2
708,-159,-7,972,-20,19,1
709,-139,-25,1001,-18,-2,-5
710,-33,-35,994,-16,-24,-11
711,102,-32,1003,-11,-26,-13
712,153,-18,1009,-9,-11,-10
713,78,-6,1006,-12,15,-3
714,-39,-5,997,-15,28,0
715,-156,0,976,-18,23,2
716,-150,-19,992,-18,0,-3
717,-63,-38,999,-18,-21,-10
718,88,-33,1008,-13,-26,-13
719,148,-21,1009,-10,-12,-10
720,98,-11,1002,-11,10,-4
721,-16,0,997,-14,26,-1
722,-142,-2,984,-20,26,3
723,-158,-22,987,-21,5,-2
724,-87,-34,987,-16,-16,-9
725,67,-26,1006,-12,-29,-13
726,137,-26,1012,-10,-17,-12
727,119,-8,1013,-12,6,-6
728,4,2,991,-14,25,-1
729,-126,-3,990,-16,28,3
730,-164,-24,987,-19,10,-1
731,-103,-29,985,-19,-15,-7
732,44,-31,1005,-15,-28,-13
733,125,-31,1010,-12,-20,-13
734,138,-5,1007,-11,1,-7
735,28,4,1002,-13,22,-2
736,-108,-4,998,-18,29,3
737,-167,-20,980,-21,14,0
738,-117,-27,983,-20,-10,-6
739,18,-38,1005,-14,-28,-12
740,118,-30,1010,-10,-23,-13
741,148,-7,1005,-9,-3,-8
742,44,1,1006,-14,22,-2
743,-88,-1,1003,-16,28,3
744,-161,-14,975,-19,16,0
745,-132,-25,989,-18,-7,-4
746,-9,-38,1005,-14,-27,-12
747,109,-33,1008,-11,-24,-13
748,153,-10,1002,-8,-7,-10
749,64,0,1007,-10,17,-3
750,-61,-3,998,-16,28,1
751,-162,-6,973,-21,20,1
752,-141,-27,997,-18,-3,-5
753,-42,-38,996,-15,-24,-9
754,100,-31,1003,-9,-27,-13
755,157,-15,1009,-10,-11,-9
756,83,-4,1006,-12,16,-2
757,-36,-1,999,-15,29,0
758,-142,22,978,-17,23,3
759,-156,-33,973,-62,-9,-9
760,-65,-63,922,26,-4,0
761,90,-23,785,-70,-31,-14
762,160,-39,755,38,-20,-10
763,103,0,902,-9,-8,-4
764,-1,17,918,-42,32,5
765,-147,-1,913,1,37,1
766,-154,-14,955,-38,8,-3
767,-96,-45,961,-41,-31,-10
768,58,-35,996,28,-30,-15
769,135,-30,1014,-49,-15,-10
770,125,-8,1014,9,12,-8
771,17,7,995,-6,24,0
772,-115,4,993,-37,23,3
773,-166,-20,983,1,12,-2
774,-119,-28,982,-28,-11,-5
775,36,-33,1011,-21,-26,-11
776,128,-35,1014,1,-19,-12
777,144,-10,1004,-20,-4,-6
778,41,1,1004,-2,23,-2
779,-105,-7,1002,-19,30,4
780,-173,-6,975,-26,17,0
781,-123,-27,988,-10,-8,-4
782,10,-34,1003,-19,-29,-12
783,114,-29,1002,-11,-25,-15
784,147,-8,1005,-7,-4,-9
785,40,1,1005,-22,21,-2
786,-85,-16,1005,-14,28,-1
787,-156,-54,966,-19,14,5
788,-114,-35,994,-11,-7,-6
789,36,33,1019,10,-19,-11
790,94,33,907,-41,-25,-76
791,2,41,651,-79,7,-14
792,37,79,465,-91,15,-40
793,-100,58,502,-34,55,33
794,-81,32,602,-28,-26,-19
795,-150,85,588,-103,1,-1
796,-43,-18,635,32,-9,-19
797,81,11,578,-45,5,-19
798,85,-34,613,-9,-13,-18
799,48,-53,763,26,-4,-13
800,-22,-74,891,-59,15,4
801,-20,121,883,108,55,18
802,-66,31,685,-66,-22,43
803,-164,-53,878,-115,-26,30
804,11,-38,552,-7,-49,-13
805,28,-1,335,-177,-46,-15
806,37,65,498,71,6,-2
807,37,1,538,-73,30,1
808,-79,-48,777,-50,28,-7
809,-103,-74,892,55,-8,0
810,-103,0,1004,-80,-29,-7
811,8,19,773,-8,1,-1
812,-24,-122,845,15,17,-17
813,65,-27,593,-25,-12,5
814,56,-85,258,-10,24,-20
815,-114,-45,443,38,-12,-7
816,-131,17,536,-87,6,11
817,-121,-84,661,-17,19,-17
818,102,-40,671,22,-33,-18
819,48,51,789,1,-17,-24
820,66,-11,630,-125,0,-14
821,27,78,671,-9,106,39
822,-124,-35,777,45,21,6
823,-99,-73,665,-94,-52,8
824,-104,-49,772,22,-25,5
825,-31,-5,860,1,23,-15
826,80,-38,953,-60,-3,-8
827,88,18,997,35,-30,-10
828,67,-22,949,-41,-24,-8
829,182,-62,626,56,80,-39
830,-250,-73,423,220,214,-59
831,-181,-330,656,87,2,-17
832,-58,68,740,46,-44,15
833,-73,-124,308,8,-2,-61
834,259,-40,240,-22,-39,-31
835,319,122,338,-64,-26,6
836,0,121,737,1,-29,31
837,-116,-154,622,-127,90,-67
838,-354,-116,625,-38,-27,60
839,-166,-44,237,4,5,-39
840,10,-192,188,-126,-81,-43
841,466,88,482,138,-73,4
842,122,134,660,9,12,28
843,-23,10,685,-56,104,-71
844,-337,-53,422,31,45,48
845,-295,-65,208,32,-20,-38
846,-120,-250,355,-77,-2,-27
847,190,20,672,57,-46,13
848,130,26,581,0,-16,-20
849,78,-101,465,-129,23,-69
850,-91,58,901,174,43,61
851,-233,-38,575,-158,33,-50
852,-197,-156,504,51,3,-3
853,114,187,701,19,-61,70
854,-48,-206,292,-150,-12,-99
855,27,-198,448,167,16,-13
856,71,220,496,-192,-6,53
857,-46,-71,259,59,26,-67
858,16,-46,496,50,-17,15
859,-114,115,330,-134,-1,17
860,-122,-24,325,146,51,-32
861,72,45,417,-134,-24,7
862,20,-21,464,-10,-36,-13
863,102,-42,531,55,4,-19
864,49,-50,727,-120,17,4
865,-85,-20,645,64,34,-5
866,-83,-56,699,-47,-3,-4
867,-127,16,900,-23,-12,-2
868,-38,-1,814,39,-3,-10
869,92,-12,679,-71,-14,-14
870,106,-6,624,19,-9,-6
871,74,-7,588,-13,1,-8
872,-33,-42,752,-47,22,-1
873,-155,-12,913,16,28,4
874,-122,-32,1003,-41,-4,-7
875,-45,-40,998,-7,-19,-10
876,69,-4,995,4,-20,-8
877,152,0,1010,-27,-9,-14
878,77,-9,1006,2,14,-5
879,-27,0,983,-23,20,0
880,-146,-15,973,-24,21,-2
881,-150,-35,963,-11,4,-4
882,-67,-43,968,-25,-17,-8
883,78,-32,1007,-6,-24,-15
884,142,-12,1000,-5,-14,-11
885,105,1,1000,-14,9,-6
886,-17,8,1002,-12,24,-1
887,-141,3,988,-25,23,2
888,-154,-36,989,-22,7,-3
889,-89,-44,988,-13,-15,-6
890,69,-40,1001,-14,-27,-14
891,140,-31,1009,-5,-17,-14
892,115,-4,1005,-9,6,-5
893,5,17,999,-14,25,-1
894,-127,5,997,-17,28,4
895,-164,-20,989,-22,7,-1
896,-99,-35,985,-18,-14,-7
897,49,-42,1004,-12,-28,-13
898,129,-39,1005,-11,-19,-14
899,134,-9,1005,-6,1,-7
900,21,10,1011,-13,23,-1
901,-112,8,999,-17,30,3
902,-166,-13,984,-20,15,-1
903,-112,-26,983,-20,-9,-6
904,22,-44,1003,-14,-27,-12
905,118,-39,1003,-11,-23,-14
906,143,-13,1004,-10,-2,-9
907,41,3,1007,-10,22,-1
908,-89,-2,1004,-16,31,3
909,-163,-7,974,-20,17,0
910,-125,-23,991,-19,-7,-4
911,-10,-40,999,-14,-25,-11
912,110,-32,1005,-11,-24,-13
913,147,-18,1005,-10,-9,-9
914,56,-2,1004,-12,18,-3
915,-58,-6,1005,-16,28,1
916,-158,-2,971,-18,19,1
917,-139,-22,995,-19,-2,-4
918,-36,-37,1000,-16,-24,-11
919,96,-32,1000,-12,-27,-13
920,148,-16,1007,-9,-10,-11
921,79,-8,1013,-13,16,-3
922,-34,0,998,-14,28,1
923,-148,-1,974,-19,24,3
924,-146,-24,992,-18,2,-4
925,-66,-39,990,-16,-19,-9
926,82,-27,1009,-12,-26,-13
927,141,-21,1013,-11,-13,-11
928,100,-5,1004,-10,10,-5
929,-12,1,999,-14,26,0
930,-136,-3,988,-19,25,2
931,-151,-25,988,-19,6,-3
932,-92,-35,980,-16,-16,-8
933,61,-26,1007,-11,-28,-14
934,132,-27,1015,-11,-15,-13
935,118,-7,1009,-10,7,-5
936,13,4,998,-14,26,0
937,-119,-3,989,-16,27,4
938,-161,-25,981,-19,10,-2
939,-100,-30,986,-18,-13,-8
940,37,-31,1005,-13,-26,-12
941,118,-28,1005,-10,-20,-12
942,133,-8,1009,-8,0,-8
943,31,4,1000,-13,23,-1
944,-98,-6,1003,-17,29,1
945,-162,-19,972,-20,14,-2
946,-120,-27,986,-18,-10,-6
947,6,-39,1008,-12,-26,-12
948,111,-32,1010,-10,-22,-14
949,148,-5,1005,-10,-5,-8
950,52,2,1005,-13,20,-3
951,-75,-2,999,-17,29,3
952,-163,-10,972,-19,18,0
953,-135,-28,996,-18,-4,-5
954,-21,-39,1000,-15,-24,-10
955,104,-30,1005,-10,-25,-13
956,152,-9,1005,-9,-10,-10
957,73,1,1009,-11,17,-4
958,-46,-1,999,-17,28,0
959,-158,-7,969,-19,22,1
960,-145,-26,998,-20,-1,-4
961,-52,-43,994,-17,-22,-10
962,88,-27,1011,-10,-26,-12
963,153,-19,1007,-12,-11,-11
964,90,-4,1001,-10,13,-5
965,-22,3,1001,-14,27,-1
966,-145,0,982,-19,23,1
967,-154,-28,988,-21,3,-5
968,-78,-40,991,-16,-17,-9
969,75,-29,1006,-12,-28,-13
970,142,-23,1013,-9,-17,-13
971,110,-10,1009,-10,8,-5
972,0,4,993,-14,26,0
973,-130,0,988,-17,27,3
974,-160,-26,990,-20,7,-3
975,-99,-34,984,-17,-16,-9
976,53,-30,1006,-13,-27,-13
977,126,-28,1011,-12,-17,-12
978,131,-8,1009,-9,3,-6
979,22,3,996,-13,24,-1
980,-112,-2,996,-16,28,4
981,-163,-21,980,-20,13,-2
982,-111,-23,988,-18,-10,-7
983,27,-32,1005,-15,-27,-12
984,118,-31,1007,-10,-21,-12
985,140,-11,1003,-10,-3,-7
986,40,3,1007,-12,21,-2
987,-90,-4,1002,-17,29,1
988,-163,-13,974,-19,16,0
989,-127,-23,988,-18,-8,-6
990,-3,-38,1006,-14,-25,-12
991,108,-32,1006,-10,-22,-13
992,150,-10,1002,-10,-6,-9
993,55,-2,1003,-11,18,-3
994,-63,0,1002,-16,27,1
995,-159,-9,974,-18,20,1
996,-139,-24,996,-18,-2,-5
997,-36,-39,1000,-16,-23,-10
998,99,-29,1001,-9,-26,-13
999,154,-16,1008,-8,-11,-11
1000,79,-5,1008,-12,14,-4
1001,-36,-4,999,-15,27,0
1002,-150,-1,975,-18,22,3
1003,-152,-24,993,-17,1,-5
1004,-63,-35,996,-16,-19,-9
1005,84,-29,1010,-12,-27,-12
1006,145,-22,1008,-9,-13,-12
1007,101,-9,1005,-10,10,-4
1008,-16,0,998,-14,25,0
1009,-138,-1,987,-17,26,3
1010,-158,-24,992,-20,7,-3
1011,-85,-33,981,-18,-17,-8
1012,62,-26,1008,-13,-29,-14
1013,135,-26,1013,-12,-17,-12
1014,122,-13,1011,-12,7,-6
1015,9,2,991,-11,25,-1
1016,-123,-1,993,-20,25,3
1017,-161,-21,983,-18,9,-2
1018,-105,-29,987,-18,-12,-7
1019,42,-31,1007,-15,-27,-13
1020,120,-30,1005,-10,-18,-12
1021,138,-8,1006,-8,1,-8
1022,28,-1,1007,-13,24,-2
1023,-101,-4,998,-17,29,1
1024,-165,-18,978,-20,14,-2
1025,-116,-26,982,-18,-10,-7
1026,10,-35,1006,-14,-27,-11
1027,113,-31,1009,-8,-23,-13
1028,147,-10,1004,-11,-4,-9
1029,48,2,1006,-14,20,-3
1030,-77,-7,1001,-15,29,2
1031,-160,-11,972,-18,19,0
1032,-132,-27,995,-18,-4,-6
1033,-20,-38,1000,-15,-23,-10
1034,107,-25,1003,-13,-24,-12
1035,151,-11,1006,-9,-7,-10
1036,69,-1,1008,-13,16,-3
1037,12,12,979,-42,19,-1
1038,-188,10,631,12,42,7
1039,-146,-72,776,-11,4,-2
1040,-43,-58,423,-16,-51,-13
1041,93,-27,744,65,6,-7
1042,185,19,987,-62,-11,-16
1043,100,-7,1005,60,25,0
1044,-27,21,910,-55,13,1
1045,-158,-12,939,-16,15,8
1046,-192,-29,984,-22,18,-4
1047,-80,-43,888,-37,-13,-8
1048,68,-53,884,13,-36,-14
1049,146,-61,844,-25,-36,-11
1050,131,0,974,9,8,-7
1051,94,170,946,21,33,-7
1052,-31,60,811,-65,32,-81
1053,-324,-114,513,-18,39,-8
1054,-101,69,684,-12,-6,-53
1055,-84,-123,632,25,-29,-21
1056,87,-55,481,16,-23,-34
1057,172,19,533,-18,9,-11
1058,161,154,801,180,46,39
1059,-274,23,754,-58,42,42
1060,-255,-73,571,22,-9,-13
1061,-168,-32,383,-129,-29,12
1062,-1,-172,383,106,-30,-25
1063,207,85,481,-34,-49,-10
1064,174,67,718,-58,8,13
1065,-39,106,559,120,84,-16
1066,-178,151,401,-139,8,17
1067,-240,10,132,64,4,-6
1068,-19,-152,380,-61,-41,-7
1069,-47,-57,527,-401,-131,34
1070,-120,10,522,140,-23,-75
1071,-21,93,211,-244,-8,15
1072,18,54,57,64,14,-6
1073,-267,27,311,32,75,-34
1074,-169,24,596,-163,-23,3
1075,-86,-7,805,124,-5,-24
1076,186,-25,352,-306,-64,56
1077,-50,-97,600,-711,-178,132
1078,137,-243,443,-140,-19,34
1079,23,126,31,-225,-33,117
1080,-154,-8,37,-107,-2,3
1081,-141,5,610,-32,-11,47
1082,-12,-25,742,-72,-31,39
1083,85,246,269,-66,9,24
1084,-29,-17,419,-119,-18,-40
1085,-51,-119,337,31,54,-26
1086,-51,-88,665,-64,-20,-6
1087,-48,-262,442,42,7,-49
1088,69,168,274,-68,-20,63
1089,-174,2,443,-46,43,-63
1090,-147,-145,771,-147,-2,11
1091,-28,156,622,156,-15,-4
1092,113,-99,373,-173,-2,-36
1093,191,19,148,-71,-73,40
1094,44,10,456,10,24,-88
1095,-179,-238,300,-190,24,-17
1096,-82,125,687,164,-11,21
1097,73,-9,325,29,29,20
1098,-29,-214,397,-68,-18,-70
1099,19,-201,626,86,-5,18
1100,101,124,277,-75,-5,-7
1101,-14,-278,225,-32,31,-55
1102,-30,-62,243,118,-22,14
1103,-60,73,278,-130,-16,16
1104,-58,-6,247,52,36,-29
1105,33,60,298,-32,5,10
1106,5,-16,243,-56,-19,-13
1107,64,-40,321,35,-10,-13
1108,33,-60,406,-77,0,-1
1109,-33,-40,369,15,29,-7
1110,-92,-51,377,5,14,-1
1111,-100,27,372,-34,-13,-2
1112,-23,-28,337,25,-7,-11
1113,57,7,395,-34,-9,-9
1114,103,-5,537,-17,-9,-10
1115,61,-11,707,-3,4,-9
1116,-33,-36,806,-40,14,2
1117,-126,-17,800,-5,19,-2
1118,-107,-51,816,-22,5,-4
1119,-59,-27,829,-21,-16,-3
1120,66,-11,837,3,-20,-11
1121,135,-8,822,-18,-13,-13
1122,69,6,804,-10,12,-3
1123,-23,10,833,-16,23,-1
1124,-130,-17,890,-30,20,0
1125,-139,-40,963,-16,2,-1
1126,-69,-48,997,-14,-12,-9
1127,72,-35,1015,-11,-22,-14
1128,131,-13,1002,-3,-12,-10
1129,91,4,1010,-9,6,-6
1130,-3,17,1007,-16,21,-3
1131,-129,2,991,-21,26,1
1132,-150,-30,992,-25,8,-2
1133,-89,-51,982,-17,-15,-8
1134,61,-45,997,-12,-27,-13
1135,122,-33,1007,-10,-16,-12
1136,114,1,1012,-7,5,-8
1137,13,16,999,-14,22,-1
1138,-118,10,996,-19,26,5
1139,-156,-19,987,-22,11,-2
1140,-98,-34,983,-22,-10,-7
1141,34,-49,999,-16,-26,-13
1142,117,-39,1006,-9,-21,-13
1143,134,-11,1005,-8,-1,-8
1144,29,12,1010,-12,23,-2
1145,-96,7,1009,-16,29,2
1146,-159,-8,977,-20,13,-1
1147,-114,-27,983,-17,-9,-6
1148,7,-45,1004,-16,-26,-13
1149,108,-41,1006,-11,-22,-14
1150,142,-14,1005,-10,-6,-9
1151,46,-1,1002,-10,19,-2
1152,-72,0,1005,-13,28,2
1153,-154,-2,971,-20,18,1
1154,-129,-23,993,-18,-2,-6
1155,-22,-39,999,-16,-23,-11
1156,98,-34,1003,-12,-24,-13
1157,144,-20,1006,-11,-11,-10
1158,69,-6,1012,-12,15,-2
1159,-43,-2,999,-14,28,0
1160,-149,-2,970,-18,21,1
1161,-143,-20,993,-17,-1,-5
1162,-52,-38,995,-17,-21,-10
1163,87,-25,1011,-12,-25,-12
1164,142,-23,1009,-12,-12,-12
1165,92,-9,1004,-12,10,-4
1166,-20,-4,999,-14,23,0
1167,-138,0,985,-19,24,1
1168,-150,-27,985,-19,5,-4
1169,-81,-32,989,-16,-16,-9
1170,65,-25,1005,-13,-27,-12
1171,132,-25,1017,-10,-15,-11
1172,113,-12,1012,-12,9,-4
1173,3,1,993,-14,26,0
1174,-121,-3,988,-17,26,3
1175,-159,-24,988,-18,9,0
1176,-100,-26,985,-16,-15,-7
1177,47,-32,1005,-12,-27,-12
1178,119,-27,1012,-11,-18,-13
1179,131,-7,1007,-9,2,-7
1180,27,1,1002,-14,22,-2
1181,-103,-7,995,-17,29,2
1182,-160,-21,978,-19,12,0
1183,-115,-29,980,-19,-11,-6
1184,15,-35,1009,-14,-27,-12
1185,114,-30,1010,-9,-21,-13
1186,142,-9,1004,-9,-2,-8
1187,47,5,1005,-14,22,-3
1188,-82,-9,1001,-17,28,0
1189,-158,-14,970,-20,16,-1
1190,-129,-28,993,-16,-6,-5
1191,-11,-40,1002,-13,-23,-11
1192,106,-29,1007,-12,-22,-12
1193,151,-9,1006,-9,-9,-9
1194,62,-1,1002,-13,17,-2
1195,-53,-5,997,-15,28,1
1196,-158,-9,975,-19,21,2
1197,-138,-23,993,-17,-2,-5
1198,-45,-40,999,-17,-22,-10
1199,94,-29,1006,-11,-26,-13
1200,150,-18,1007,-10,-10,-9
1201,87,-4,1008,-11,15,-4
1202,-29,0,997,-15,27,0
1203,-148,-2,975,-19,24,2
1204,-151,-27,993,-18,3,-4
1205,-72,-41,993,-17,-19,-9
1206,80,-27,1011,-12,-26,-12
1207,143,-23,1010,-10,-13,-10
1208,108,-7,1003,-10,10,-5
1209,-6,1,997,-16,26,0
1210,-135,0,987,-18,27,3
1211,-158,-28,990,-19,7,-2
1212,-92,-33,983,-17,-17,-9
1213,60,-32,1004,-12,-28,-13
1214,133,-26,1016,-9,-16,-12
1215,122,-6,1008,-12,5,-4
1216,16,6,993,-14,24,0
1217,-119,-3,997,-20,27,3
1218,-162,-22,980,-19,9,-2
1219,-106,-31,991,-19,-13,-7
1220,34,-33,1002,-13,-28,-11
1221,122,-31,1009,-9,-21,-13
1222,140,-7,1001,-8,-1,-7
1223,31,6,1006,-13,23,-1
1224,-96,-3,1003,-18,28,1
1225,-168,-17,973,-19,15,-1
1226,-117,-26,984,-17,-9,-6
1227,4,-38,1012,-14,-26,-10
1228,113,-30,1005,-11,-21,-12
1229,146,-11,1004,-11,-4,-8
1230,54,2,1005,-12,19,-3
1231,-75,-5,997,-15,28,0
1232,-161,-6,975,-20,18,0
1233,-137,-27,997,-19,-4,-4
1234,-26,-41,997,-17,-24,-11
1235,106,-33,1004,-11,-26,-13
1236,151,-12,1008,-8,-8,-10
1237,74,-1,1006,-13,17,-3
1238,-47,0,1001,-16,29,0
1239,-154,-3,972,-18,21,1
1240,-144,-26,995,-18,-2,-4
1241,-53,-39,995,-17,-22,-10
1242,89,-31,1011,-13,-26,-13
1243,147,-23,1005,-11,-12,-11
1244,90,-8,1005,-10,11,-3
1245,-19,0,995,-15,26,-1
1246,-144,-1,991,-19,25,3
1247,-152,-24,987,-19,4,-2
1248,-82,-34,986,-17,-16,-8
1249,72,-27,1009,-14,-28,-14
1250,138,-27,1011,-10,-17,-12
1251,117,-8,1013,-11,8,-6
1252,0,2,993,-15,25,-1
1253,-126,-2,990,-17,26,3
1254,-159,-26,990,-20,7,-3
1255,-101,-28,982,-17,-14,-7
1256,52,-30,1008,-12,-28,-13
1257,124,-31,1007,-12,-18,-12
1258,133,-3,1007,-9,3,-6
1259,27,1,1003,-13,23,-1
1260,-111,-6,1000,-16,29,2
1261,-159,-20,976,-18,13,-1
1262,-115,-26,986,-17,-10,-6
1263,19,-33,1007,-14,-27,-12
1264,113,-27,1007,-9,-22,-13
1265,145,-7,1004,-10,-3,-9
1266,46,1,1006,-13,21,-2
1267,-85,-4,1003,-17,29,2
1268,-128,22,902,-6,39,8
1269,-150,-53,709,-74,-35,-12
1270,-21,-66,838,-9,-10,-17
1271,97,-36,486,-12,-10,-14
1272,209,4,709,34,-22,-5
1273,60,21,950,-16,2,10
1274,-42,9,1007,-42,22,-2
1275,-174,1,969,4,55,13
1276,-160,-44,936,-48,-1,-5
1277,-67,-65,883,-9,-37,-13
1278,100,-40,987,-8,-44,-14
1279,168,-1,1017,-23,-7,-9
1280,93,-23,987,-2,30,-4
1281,-25,-1,969,-14,24,3
1282,-146,2,966,-19,9,2
1283,-53,126,994,-17,0,-3
1284,-23,53,892,-90,5,-21
1285,-13,-143,565,21,26,-15
1286,144,89,473,11,-44,-17
1287,123,70,582,-27,-27,-11
1288,-10,-11,789,-8,60,2
1289,-73,25,924,1,47,3
1290,-21,68,851,21,-16,-5
1291,-83,54,713,-11,-54,11
1292,-122,-103,886,-19,23,5
1293,-4,18,760,-67,-24,-1
1294,54,-130,551,8,-13,-6
1295,66,-57,703,-4,-46,-13
1296,11,101,926,-39,30,15
1297,-149,141,862,-11,64,17
1298,-270,-70,706,-41,11,-11
1299,-57,87,603,45,-57,-9
1300,36,-163,216,-132,-25,-11
1301,93,-163,477,118,1,-28
1302,207,97,704,-50,-35,27
1303,-27,211,603,121,8,43
1304,-187,-9,711,191,73,-31
1305,-235,23,688,-272,-39,49
1306,-117,-96,445,215,63,-2
1307,137,-59,477,-191,-91,6
1308,257,6,799,-79,-46,-8
1309,121,-14,823,108,-2,-14
1310,126,81,932,-225,11,51
1311,-301,-65,972,128,44,117
1312,-338,-158,548,-71,-22,-30
1313,-135,-152,443,-108,-109,48
1314,151,46,244,261,-40,-42
1315,199,-108,180,-148,7,-23
1316,215,26,286,-34,-20,14
1317,-74,26,533,66,7,8
1318,-90,-50,712,-78,-7,15
1319,-296,0,761,-58,65,32
1320,-219,-221,533,-62,23,-49
1321,5,-124,889,-47,-118,33
1322,107,-125,738,-64,-33,-44
1323,354,-56,384,40,-27,-8
1324,54,263,575,-181,21,75
1325,-331,29,471,-28,63,-40
1326,-268,-7,431,-209,-16,42
1327,-194,-8,581,27,-34,-2
1328,-72,-214,612,-13,-10,-44
1329,238,40,451,-192,-88,46
1330,125,-68,274,92,16,-90
1331,-164,-161,525,-81,59,-17
1332,-121,199,810,30,9,36
1333,-286,-187,384,-30,49,-51
1334,59,24,180,-76,-50,35
1335,6,-76,83,131,38,-51
1336,-76,-270,288,-123,1,-23
1337,151,19,426,-11,-51,24
1338,-53,-156,185,2,28,-50
1339,13,-37,323,-44,11,2
1340,-34,77,209,22,26,14
1341,-144,-44,229,-24,5,-26
1342,40,9,394,-51,-33,-2
1343,-14,-34,491,19,-7,-14
1344,30,-51,443,-54,-4,-11
1345,69,-55,485,-23,7,-7
1346,-55,-28,479,16,17,-3
1347,-86,-20,495,-31,9,0
1348,-86,26,561,8,9,-6
1349,-48,-19,510,-17,-14,-6
1350,72,-5,501,-17,-23,-12
1351,94,-23,499,-5,-5,-10
1352,47,-8,596,-34,12,-1
1353,-26,-34,822,-16,23,-1
1354,-129,-20,950,-5,21,-1
1355,-110,-23,967,-23,3,-1
1356,-43,-24,931,0,-11,-11
1357,59,-17,908,-18,-22,-10
1358,133,0,914,-11,-15,-11
1359,65,-3,909,-10,11,-4
1360,-28,0,900,-25,24,0
1361,-126,-15,903,-11,24,0
1362,-135,-43,942,-21,0,-3
1363,-62,-45,982,-14,-18,-8
1364,74,-26,1007,-5,-20,-13
1365,127,-10,1004,-15,-12,-10
1366,87,7,1007,-7,7,-5
1367,-14,9,1003,-17,22,-3
1368,-126,2,981,-23,25,2
1369,-141,-34,988,-19,8,-3
1370,-78,-50,979,-20,-16,-9
1371,60,-39,1002,-9,-28,-12
1372,122,-24,1015,-7,-15,-11
1373,105,2,1022,-9,7,-6
1374,9,20,998,-10,25,-2
1375,-119,8,988,-21,26,4
1376,-150,-26,989,-23,8,-1
1377,-96,-43,980,-18,-11,-7
1378,38,-45,1002,-14,-25,-13
1379,112,-38,1013,-7,-18,-13
1380,126,-2,1009,-6,0,-6
1381,27,14,1003,-11,22,-1
1382,-96,9,1000,-18,27,2
1383,-152,-15,974,-22,13,-1
1384,-111,-27,978,-21,-10,-7
1385,11,-47,1009,-17,-27,-12
1386,107,-40,1010,-9,-21,-15
1387,138,-12,1003,-8,-2,-9
1388,45,8,1004,-11,21,-2
1389,-74,3,1001,-15,27,2
1390,-155,-5,970,-21,15,0
1391,-128,-22,989,-20,-5,-5
1392,-20,-40,1008,-16,-23,-11
1393,97,-35,1005,-12,-24,-12
1394,146,-18,1008,-10,-8,-9
1395,66,-2,1004,-12,16,-3
1396,-49,-2,996,-16,27,1
1397,-151,-1,974,-18,20,0
1398,-143,-19,996,-19,-1,-5
1399,-48,-36,997,-17,-22,-11
1400,86,-32,1007,-13,-25,-13
1401,151,-19,1008,-11,-12,-11
1402,88,-10,1004,-11,14,-4
1403,-25,0,994,-15,26,-1
1404,-140,-2,978,-18,23,2
1405,-153,-21,992,-18,2,-3
1406,-79,-35,994,-18,-17,-8
1407,73,-27,1013,-12,-27,-13
1408,141,-21,1008,-11,-16,-11
1409,107,-11,1004,-11,8,-5
1410,0,-2,996,-15,24,-1
1411,-133,0,986,-19,27,3
1412,-158,-22,991,-20,7,-2
1413,-99,-31,983,-17,-15,-8
1414,56,-27,1006,-11,-27,-13
1415,131,-28,1015,-10,-17,-12
1416,127,-10,1008,-12,5,-5
1417,20,0,996,-13,24,-2
1418,-114,-1,991,-18,27,2
1419,-170,-23,986,-20,10,-1
1420,-104,-24,985,-17,-13,-8
1421,30,-35,1008,-15,-28,-11
1422,123,-30,1003,-10,-20,-11
1423,139,-7,1005,-8,1,-9
1424,39,2,1001,-15,23,-1
1425,-100,-5,1005,-16,30,2
1426,-161,-17,975,-20,14,-2
1427,-127,-28,986,-18,-9,-5
1428,7,-38,1006,-14,-26,-12
1429,107,-35,1010,-10,-22,-13
1430,156,-4,998,-10,-5,-9
1431,53,2,1008,-12,20,-4
1432,-71,0,999,-14,27,1
1433,-165,-10,973,-19,18,1
1434,-136,-25,999,-19,-4,-7
1435,-29,-44,997,-15,-24,-12
1436,106,-31,1002,-8,-26,-15
1437,152,-18,1004,-8,-10,-10
1438,73,2,1009,-12,15,-3
1439,-45,-3,998,-16,28,1
1440,-158,-3,975,-20,23,1
1441,-148,-26,991,-19,0,-3
1442,-54,-40,997,-17,-22,-10
1443,89,-30,1009,-10,-26,-12
1444,148,-22,1003,-10,-11,-11
1445,94,-7,1005,-9,13,-4
1446,-23,4,999,-14,27,-1
1447,-143,1,982,-20,25,2
1448,-154,-24,992,-20,5,-3
1449,-81,-41,988,-18,-17,-8
1450,69,-31,1005,-12,-28,-13
1451,139,-25,1013,-9,-15,-12
1452,112,-8,1009,-10,8,-5
1453,0,4,996,-13,26,-1
1454,-126,-2,990,-17,28,3
1455,-159,-24,988,-19,8,-2
1456,-96,-30,984,-19,-16,-8
1457,51,-32,1004,-14,-27,-12
1458,126,-30,1012,-11,-18,-13
1459,128,-9,1005,-10,2,-7
1460,23,5,1002,-14,24,-1
1461,-112,-3,998,-17,30,3
1462,-162,-18,982,-19,13,-1
1463,-111,-26,983,-16,-10,-5
1464,23,-34,1007,-15,-28,-13
1465,119,-33,1009,-11,-22,-12
1466,142,-7,999,-11,-2,-8
1467,42,3,1008,-14,22,-3
1468,-90,-5,1003,-18,30,4
1469,-164,-12,971,-19,14,0
1470,-126,-26,990,-18,-8,-6
1471,-6,-36,1005,-15,-25,-12
1472,109,-33,1004,-10,-22,-13
1473,150,-10,1007,-9,-6,-10
1474,62,0,1002,-12,18,-3
1475,-65,-5,1000,-14,29,1
1476,-156,-5,973,-20,19,1
1477,-140,-25,997,-19,-3,-3
1478,-36,-38,995,-17,-24,-11
1479,94,-32,1007,-12,-26,-13
1480,152,-17,1003,-9,-10,-13
1481,82,-7,1007,-11,15,-3
1482,-33,0,998,-15,26,0
1483,-150,-2,978,-20,22,2
1484,-148,-24,987,-18,2,-4
1485,-69,-38,996,-17,-20,-11
1486,84,-27,1014,-13,-27,-13
1487,140,-22,1005,-10,-13,-10
1488,101,-7,1006,-10,9,-5
1489,-9,0,1001,-15,27,0
1490,-138,0,984,-19,26,3
1491,-155,-25,991,-18,6,-4
1492,-92,-37,984,-16,-18,-8
1493,63,-26,1001,-12,-29,-12
1494,136,-28,1019,-11,-17,-13
1495,121,-8,1009,-8,6,-7
1496,12,4,994,-14,26,-1
1497,-119,-2,994,-17,28,2
1498,-128,19,990,-5,8,5
1499,-117,-56,849,-94,-32,-7
1500,-21,-67,842,150,19,-12
1501,115,-44,650,-19,-20,-13
1502,169,2,620,-5,-7,-11
1503,70,33,664,66,31,-3
1504,-69,-1,789,-54,22,6
1505,-183,-5,850,31,13,-1
1506,-146,-33,939,-28,6,-8
1507,-23,-45,871,-46,-25,-7
1508,118,-43,959,27,-25,-16
1509,153,-18,876,-32,-15,-8
1510,62,5,869,-7,21,-3
1511,-82,14,869,-6,36,-1
1512,-180,-22,904,-40,20,0
1513,-134,-57,987,-3,-8,0
1514,0,-41,1013,-15,-31,-15
1515,206,172,923,43,-49,-55
1516,77,25,735,-79,58,-62
1517,81,70,430,99,12,-50
1518,-116,-19,822,139,66,-19
1519,-154,60,495,-139,18,-15
1520,-15,20,483,159,5,-28
1521,-32,-93,632,-27,-19,-17
1522,72,-35,766,-51,-26,-7
1523,268,128,770,112,-2,-9
1524,49,5,802,-89,70,53
1525,-49,-30,684,238,48,81
1526,-171,-5,716,-181,-32,41
1527,-197,-136,589,3,-3,18
1528,-106,-12,505,46,-13,4
1529,101,-100,323,-179,-57,0
1530,295,209,375,123,-18,-25
1531,47,77,740,-122,20,46
1532,-130,10,690,-56,45,-1
1533,-174,119,584,-24,26,17
1534,-300,16,364,-65,-33,-3
1535,-84,-53,656,0,-19,-14
1536,114,-97,822,25,-35,-15
1537,290,-31,637,230,-46,19
1538,92,31,514,316,196,-1
1539,-119,140,554,-39,2,73
1540,-164,24,322,167,93,0
1541,-260,-100,330,-177,-37,0
1542,19,-88,507,-35,-37,-11
1543,39,-89,417,79,-36,-17
1544,141,-13,555,-41,-16,-31
1545,163,52,742,-84,-4,-2
1546,115,-143,503,65,60,21
1547,-228,-56,456,-220,61,-36
1548,-257,-388,437,-36,25,23
1549,-155,-89,226,-109,-114,72
1550,62,-66,60,-30,-21,-62
1551,267,-88,92,122,-18,-9
1552,170,-53,336,-56,1,-1
1553,-111,-18,636,-35,24,-16
1554,-57,8,512,36,19,1
1555,-102,39,282,84,61,81
1556,-55,93,306,-69,91,1
1557,-78,-237,452,-43,-96,53
1558,29,-24,482,5,-8,2
1559,43,-141,114,4,-4,-32
1560,246,7,206,-26,-15,11
1561,4,-85,122,34,9,131
1562,-235,80,493,-151,2,28
1563,-207,-72,425,-221,-27,91
1564,-209,-86,596,-2,-28,9
1565,-45,-227,790,-146,-68,-14
1566,387,110,934,-43,-66,42
1567,145,168,640,78,20,28
1568,-31,-129,506,-134,67,-74
1569,-199,-53,653,-46,-5,78
1570,-191,63,522,-60,-4,-29
1571,30,-163,207,-92,-15,-39
1572,433,132,486,-16,-61,14
1573,187,83,521,79,8,-15
1574,165,-226,893,-129,10,-67
1575,-77,-73,470,67,10,58
1576,-180,47,387,-15,85,-40
1577,-150,-195,424,30,22,-5
1578,78,114,640,-1,-69,8
1579,116,-82,670,-12,-29,-28
1580,215,65,818,18,6,-10
1581,91,26,880,-48,23,12
1582,-66,-16,765,2,21,-13
1583,-165,-82,878,-50,9,11
1584,-202,-34,968,-25,14,-3
1585,-57,-60,949,-5,-2,-11
1586,89,-6,1061,-24,-39,-11
1587,143,8,994,7,-35,-12
1588,139,21,958,-12,5,-12
1589,-16,14,997,-29,41,2
1590,-132,-13,984,-10,32,1
1591,-152,-46,982,-32,1,-3
1592,-110,-53,1008,-9,-13,-5
1593,18,-38,1005,-9,-22,-14
1594,131,-27,1001,-13,-19,-16
1595,134,8,994,4,-4,-7
1596,41,22,1004,-15,15,-1
1597,-74,-1,1015,-20,34,0
1598,-164,-14,974,-19,24,3
1599,-128,-35,1006,-22,-9,-5
1600,-23,-61,998,-13,-27,-12
1601,104,-36,990,-9,-24,-12
1602,149,-11,1008,-9,-6,-12
1603,69,1,1010,-6,16,-4
1604,-43,15,996,-16,24,1
1605,-151,5,988,-20,23,2
1606,-144,-26,997,-20,2,-3
1607,-58,-48,983,-20,-20,-9
1608,85,-43,1005,-12,-29,-14
1609,139,-33,1007,-10,-14,-11
1610,96,-9,1008,-8,12,-6
1611,-15,12,1002,-13,28,0
1612,-140,14,996,-19,26,2
1613,-148,-19,989,-19,3,-5
1614,-87,-38,976,-19,-16,-8
1615,66,-38,1002,-14,-28,-12
1616,131,-41,1014,-10,-17,-12
1617,117,-12,1008,-11,6,-5
1618,11,8,1003,-12,24,-1
1619,-117,5,997,-17,28,2
1620,-158,-14,982,-19,10,-1
1621,-103,-25,983,-17,-11,-7
1622,35,-34,1006,-17,-28,-12
1623,116,-36,1007,-10,-20,-12
1624,134,-11,1008,-10,0,-7
1625,32,-1,1008,-13,23,-2
1626,-93,-4,1006,-16,28,4
1627,-158,-11,966,-19,14,0
1628,-118,-20,987,-16,-9,-7
1629,4,-36,1005,-15,-26,-12
1630,104,-30,1009,-12,-22,-12
1631,146,-12,1005,-11,-4,-9
1632,51,-4,1006,-14,20,-2
1633,-67,-3,998,-16,28,1
1634,-158,-12,974,-19,20,0
1635,-130,-23,993,-17,-4,-5
1636,-28,-36,998,-15,-22,-10
1637,95,-26,1002,-10,-24,-11
1638,149,-12,1011,-10,-9,-10
1639,72,-2,1009,-16,17,-2
1640,-43,-3,999,-15,28,1
1641,-147,-6,972,-17,21,1
1642,-147,-28,991,-18,0,-3
1643,-57,-34,995,-15,-21,-9
1644,80,-25,1015,-12,-27,-13
1645,145,-14,1006,-12,-12,-12
1646,94,-7,1007,-11,12,-4
1647,-15,0,997,-15,25,-1
1648,-137,-4,981,-19,26,1
1649,-149,-30,992,-18,5,-4
1650,-87,-36,982,-16,-17,-9
1651,66,-25,1012,-11,-27,-14
1652,138,-19,1014,-11,-18,-13
1653,114,-9,1009,-11,7,-6
1654,6,8,992,-15,26,0
1655,-125,-2,988,-16,27,2
1656,-162,-28,986,-19,7,-3
1657,-103,-30,982,-19,-15,-6
1658,47,-31,1010,-12,-27,-12
1659,123,-27,1009,-11,-19,-11
1660,132,-8,1005,-10,2,-7
1661,31,6,1002,-14,22,-2
1662,-109,-2,996,-18,27,3
1663,-160,-18,977,-19,14,-2
1664,-119,-29,990,-17,-9,-6
1665,17,-36,1004,-14,-28,-13
1666,117,-35,1011,-10,-22,-12
1667,146,-6,1003,-9,-4,-8
1668,47,4,1005,-13,21,-2
1669,-84,0,1002,-16,30,2
1670,-164,-12,971,-18,16,1
1671,-132,-24,990,-18,-6,-5
1672,-14,-41,1006,-15,-23,-9
1673,109,-31,1004,-13,-23,-12
1674,153,-13,1003,-10,-8,-9
1675,67,-1,1006,-11,17,-2
1676,-58,-5,1000,-16,27,1
1677,-160,-3,972,-18,22,1
1678,-143,-22,996,-18,-2,-4
1679,-43,-36,999,-15,-22,-10
1680,99,-29,999,-11,-25,-14
1681,153,-19,1007,-11,-11,-11
1682,83,-4,1005,-12,14,-2
1683,-31,-2,997,-15,27,-1
1684,-154,-2,975,-18,23,3
1685,-153,-21,992,-19,2,-3
1686,-65,-40,997,-16,-20,-11
1687,81,-27,1007,-13,-27,-13
1688,148,-21,1007,-13,-14,-12
1689,101,-9,1003,-18,11,-3
1690,-8,0,998,-24,34,4
1691,-141,-1,985,-18,27,3
1692,-155,-26,992,-18,7,-3
1693,-90,-35,982,-17,-16,-9
1694,63,-28,1006,-11,-28,-12
1695,137,-26,1013,-10,-17,-11
1696,119,-8,1011,-11,7,-7
1697,13,3,995,-13,24,-1
1698,-122,-1,992,-19,28,2
1699,-162,-24,986,-21,10,-1
1700,-103,-30,987,-18,-12,-7
1701,41,-32,1007,-15,-29,-12
1702,122,-32,1005,-10,-20,-12
1703,137,-8,1006,-10,0,-7
1704,29,5,1006,-14,24,-1
1705,-101,-2,1000,-18,30,2
1706,-164,-20,978,-19,15,-1
1707,-120,-25,982,-19,-9,-6
1708,11,-36,1009,-14,-27,-13
1709,118,-31,1006,-10,-22,-14
1710,147,-9,1005,-10,-3,-7
1711,54,2,1004,-12,21,-2
1712,-81,-3,1002,-16,28,2
1713,-160,-13,973,-20,17,0
1714,-132,-25,996,-18,-4,-6
1715,-16,-40,999,-17,-25,-11
1716,107,-30,1005,-9,-25,-13
1717,150,-14,1003,-9,-9,-8
1718,66,0,1007,-11,15,-2
1719,-50,-1,1001,-16,27,2
1720,-160,-4,971,-20,23,2
1721,-142,-22,996,-18,-2,-4
1722,-47,-44,997,-17,-23,-11
1723,94,-30,1004,-12,-27,-13
1724,152,-20,1007,-12,-11,-11
1725,91,-4,1006,-10,13,-3
1726,-30,4,997,-16,27,1
1727,-148,0,979,-20,24,1
1728,-152,-25,990,-18,3,-3
1729,-73,-40,988,-18,-18,-8
1730,78,-33,1012,-11,-27,-13
1731,145,-26,1007,-10,-15,-10
1732,108,-8,1001,-10,8,-3
1733,-4,3,1002,-15,26,-1
1734,-133,0,985,-18,27,3
1735,-156,-24,989,-21,6,-2
1736,-97,-34,982,-17,-16,-7
1737,57,-30,1004,-13,-28,-12
1738,131,-29,1014,-11,-19,-12
1739,124,-7,1008,-11,4,-6
1740,20,4,997,-15,25,-1
1741,-115,-1,993,-18,27,3
1742,-165,-21,983,-19,11,-1
1743,-109,-27,987,-16,-12,-7
1744,32,-36,1005,-15,-27,-11
1745,120,-29,1006,-9,-21,-13
1746,141,-10,1005,-8,-1,-8
1747,35,4,1006,-13,22,-2
1748,-94,-4,1003,-16,29,2
1749,-164,-13,974,-19,16,-1
1750,-122,-25,985,-18,-8,-6
1751,4,-39,1011,-14,-25,-13
1752,110,-35,1005,-11,-22,-13
1753,204,29,932,10,-9,-5
1754,-30,-20,719,-17,35,0
1755,-84,-17,796,3,20,0
1756,-153,-6,477,-12,8,0
1757,-127,-16,667,7,23,-5
1758,6,-28,752,-19,-32,-13
1759,106,-44,720,-6,-28,-16
1760,132,0,834,-15,-14,-11
1761,49,-7,890,-20,24,-1
1762,-51,-8,889,-19,31,1
1763,-147,-14,891,-20,15,0
1764,-137,-25,960,-19,-5,-5
1765,-47,-48,993,-18,-23,-9
1766,90,-18,1016,-15,-21,-11
1767,127,-16,989,-16,-9,-10
1768,53,-3,994,-10,12,-8
1769,-46,-66,988,-14,17,1
1770,-118,-21,984,-10,15,4
1771,81,76,853,24,-22,-55
1772,-122,111,593,-61,36,-107
1773,7,15,226,-129,-33,-55
1774,43,-203,430,87,17,-45
1775,9,-33,695,-33,-19,-8
1776,-33,19,514,-118,17,12
1777,-83,-36,371,-28,13,4
1778,68,97,535,60,-13,-18
1779,-109,112,538,-487,-11,31
1780,15,-32,450,169,-29,-10
1781,-154,211,348,-437,-115,10
1782,24,41,373,-103,-3,-35
1783,63,-34,251,216,37,-24
1784,150,-42,383,-320,-16,-6
1785,-99,38,838,174,44,27
1786,-207,195,439,-85,-8,-6
1787,-91,-31,52,-244,4,-9
1788,-8,-222,61,194,-38,-29
1789,22,-168,386,-247,-49,-22
1790,189,-19,536,294,51,16
1791,24,172,434,452,348,-9
1792,108,49,154,-239,-34,35
1793,-140,194,109,659,183,-22
1794,-65,-120,176,-355,-25,47
1795,-16,-82,487,196,-46,-63
1796,152,-112,60,-202,-53,10
1797,113,-53,221,176,10,-37
1798,112,-13,482,-75,42,-4
1799,213,20,159,-2,2,60
1800,-321,-69,489,389,90,-36
1801,-200,-318,354,-103,-10,-55
1802,-124,-43,137,-45,-70,61
1803,86,4,227,-172,-4,-39
1804,189,54,235,-78,-13,-4
1805,77,60,150,66,-18,7
1806,-190,-81,288,-67,42,-16
1807,-87,-77,632,59,22,32
1808,-118,-48,570,101,48,27
1809,9,-72,530,-92,10,-4
1810,23,-133,347,57,-62,27
1811,24,-40,272,-90,28,-8
1812,37,-211,75,26,-5,-35
1813,188,76,132,6,-20,75
1814,-106,-107,248,-137,-16,9
1815,-126,-67,449,-56,26,7
1816,-81,121,434,-125,-6,30
1817,-117,-127,129,-34,-18,-36
1818,273,-166,531,-4,-61,-12
1819,76,-218,601,53,-18,94
1820,26,-56,517,38,77,-72
1821,-247,2,425,-10,31,67
1822,-251,97,549,-2,-8,17
1823,-202,-235,303,-2,-6,-40
1824,327,106,628,56,-11,36
1825,110,132,426,70,-16,49
1826,142,-264,238,-14,92,-57
1827,-119,-161,397,-29,32,87
1828,-159,91,431,-37,-26,3
1829,-221,-253,266,-68,-16,-18
1830,47,20,413,8,-20,-9
1831,195,-47,141,-8,-15,-12
1832,273,77,279,11,-22,-23
1833,129,66,345,0,-2,8
1834,-164,75,163,-20,58,2
1835,-255,-36,239,-67,47,7
1836,-217,-78,260,-14,-11,-4
1837,-16,-105,302,-24,-52,-14
1838,175,-81,302,8,-29,-15
1839,213,9,338,5,1,-9
1840,103,39,356,-17,18,-5
1841,-82,40,302,7,36,6
1842,-232,17,345,-38,29,9
1843,-179,-22,398,-20,8,-6
1844,-35,-89,526,-21,-25,-12
1845,115,-48,611,-14,-40,-12
1846,198,-27,671,6,-19,-14
1847,99,2,732,-9,19,-3
1848,-49,25,774,-17,39,3
1849,-175,13,789,-14,29,-1
1850,-176,-16,761,-25,-1,-3
1851,-74,-39,739,-28,-24,-10
1852,93,-42,785,-17,-30,-16
1853,172,-33,824,-9,-15,-13
1854,111,-15,909,-10,11,-3
1855,-17,-3,973,-12,29,0
1856,-149,0,975,-21,28,3
1857,-170,-15,982,-21,7,-2
1858,-95,-25,996,-18,-20,-9
1859,70,-23,1012,-14,-32,-13
1860,146,-26,1002,-11,-18,-12
1861,122,-15,1000,-10,8,-6
1862,12,-9,993,-15,26,0
1863,-131,-4,976,-15,31,4
1864,-170,-18,997,-20,9,-1
1865,-115,-26,986,-14,-12,-7
1866,47,-20,1005,-11,-29,-14
1867,134,-22,1017,-13,-18,-14
1868,138,-8,1011,-14,2,-7
1869,28,-4,995,-14,23,-2
1870,-113,-12,994,-18,27,1
1871,-171,-28,989,-18,14,-1
1872,-118,-29,990,-17,-10,-6
1873,24,-31,1004,-13,-28,-13
1874,124,-22,1010,-7,-22,-14
1875,147,-3,999,-8,-3,-9
1876,46,5,1004,-14,20,-3
1877,-96,-9,1004,-18,29,2
1878,-171,-23,973,-21,16,0
1879,-129,-29,984,-18,-7,-6
1880,1,-37,1006,-14,-25,-13
1881,115,-30,1005,-11,-23,-13
1882,157,-5,1002,-8,-5,-9
1883,54,7,1004,-11,20,-3
1884,-70,0,1006,-16,29,1
1885,-168,-12,975,-22,18,2
1886,-139,-29,994,-19,-4,-5
1887,-23,-48,1003,-14,-23,-11
1888,106,-31,1001,-9,-27,-13
1889,155,-15,1003,-7,-11,-11
1890,73,5,1013,-10,15,-4
1891,-51,3,997,-17,28,1
1892,-162,0,977,-20,23,2
1893,-148,-28,995,-20,-1,-4
1894,-49,-45,996,-17,-22,-10
1895,95,-34,1003,-13,-28,-13
1896,152,-22,1003,-10,-13,-12
1897,94,0,1007,-10,11,-4
1898,-28,5,1001,-14,28,0
1899,-146,4,982,-20,24,3
1900,-153,-27,992,-19,4,-3
1901,-77,-39,989,-18,-17,-10
1902,76,-34,1007,-12,-27,-13
1903,145,-26,1008,-10,-15,-11
1904,108,-7,1006,-7,7,-6
1905,-1,7,999,-12,25,-2
1906,-132,0,992,-19,28,3
1907,-158,-22,990,-18,9,-1
1908,-97,-31,979,-18,-15,-6
1909,59,-35,1003,-13,-29,-13
1910,131,-26,1013,-11,-18,-11
1911,126,-10,1009,-12,3,-6
1912,18,4,997,-12,23,-1
1913,-118,0,995,-17,27,4
1914,-161,-22,981,-20,10,-2
1915,-110,-28,988,-18,-12,-6
1916,32,-32,1001,-15,-28,-12
1917,120,-29,1007,-11,-20,-14
1918,140,-8,1004,-10,-3,-7
1919,34,4,1007,-13,22,-1
1920,-92,-4,1003,-17,30,2
1921,-166,-14,973,-19,15,0
1922,-117,-26,984,-18,-9,-5
1923,1,-41,1006,-15,-26,-11
1924,111,-31,1006,-9,-23,-13
1925,151,-11,1007,-11,-4,-9
1926,54,3,1001,-11,20,-1
1927,-71,0,1003,-16,28,2
1928,-159,-11,972,-21,18,0
1929,-136,-25,994,-17,-4,-4
1930,-21,-41,998,-16,-24,-11
1931,99,-31,1008,-12,-25,-14
1932,154,-13,1005,-9,-10,-9
1933,69,1,1009,-11,16,-2
1934,-45,0,1001,-15,28,2
1935,-155,-8,973,-19,22,2
1936,-143,-23,995,-18,-1,-3
1937,-51,-42,997,-17,-22,-11
1938,83,-29,1007,-12,-26,-13
1939,151,-22,1006,-9,-11,-11
1940,92,-2,1008,-10,13,-3
1941,-22,0,996,-16,28,1
1942,-142,1,981,-19,25,3
1943,-155,-27,988,-21,5,-3
1944,-80,-38,991,-18,-19,-9
1945,73,-29,1012,-11,-29,-13
1946,141,-21,1005,-12,-16,-12
1947,110,-8,1010,-10,8,-6
1948,0,2,998,-14,25,-1
1949,-132,1,987,-19,27,4
1950,-159,-27,989,-19,7,-3
1951,-101,-33,981,-17,-15,-7
1952,56,-30,1006,-12,-29,-13
1953,132,-25,1016,-8,-17,-13
1954,128,-7,1010,-10,4,-7
1955,21,7,993,-13,24,-3
1956,-118,-4,995,-17,29,2
1957,-166,-22,981,-18,12,-2
1958,-112,-32,987,-18,-10,-7
1959,36,-33,1003,-14,-28,-12
1960,118,-31,1008,-10,-20,-11
1961,142,-5,1004,-9,0,-7
1962,36,0,1006,-14,22,-1
1963,-94,-5,1000,-17,28,1
1964,-168,-18,976,-19,14,-1
1965,-123,-25,986,-18,-10,-6
1966,5,-42,1006,-15,-27,-11
1967,114,-30,1010,-9,-23,-13
1968,148,-9,1001,-10,-4,-9
1969,56,4,1005,-11,20,-3
1970,-76,-3,1001,-16,28,2
1971,-164,-9,974,-19,17,0
1972,-134,-26,991,-19,-5,-5
1973,-20,-42,1006,-16,-25,-11
1974,108,-33,1000,-12,-26,-13
1975,153,-13,1007,-8,-9,-9
1976,71,2,1004,-13,16,-2
1977,-49,-3,1003,-16,27,0
1978,-157,-5,972,-19,21,2
1979,-147,-24,996,-19,0,-4
1980,-16,-27,1013,18,-27,-8
1981,77,-34,977,-64,-20,-24
1982,131,-27,960,15,-16,-11
1983,81,-20,739,36,18,-16
1984,-36,0,854,-47,39,1
1985,-135,12,880,1,25,2
1986,-145,-21,898,-29,-6,-6
1987,-68,-31,946,-32,-15,-8
1988,76,-36,979,-5,-22,-13
1989,130,-21,998,-22,-16,-10
1990,106,-13,991,-14,3,-5
1991,0,0,992,-5,28,0
1992,-126,-1,983,-26,28,3
1993,-157,-28,988,-10,9,-3
1994,-98,-28,978,-19,-16,-8
1995,55,-26,1006,-11,-27,-12
1996,117,-23,1024,-9,-10,-13
1997,102,-6,1006,-15,5,-8
1998,-6,-8,990,-15,16,-4
1999,-115,-59,977,-17,19,7
2000,-125,-43,991,-9,8,1
2001,82,96,870,40,-9,-46
2002,-62,145,598,-142,-17,-76
2003,36,23,226,-213,-41,-50
2004,71,21,528,179,51,-13
2005,24,26,456,34,-34,-10
2006,49,-20,542,-85,74,6
2007,-37,-60,631,245,48,1
2008,-22,-1,586,-181,-6,-5
2009,7,-84,536,30,-74,1
2010,182,-101,595,183,-4,-3
2011,-106,55,842,-17,74,16
2012,-6,-8,568,473,71,-40
2013,-107,24,465,-86,14,7
2014,-182,-29,490,161,25,-22
2015,-175,-29,479,14,23,-11
2016,4,-84,314,0,-15,0
2017,228,-55,263,19,-41,-13
2018,86,148,272,-54,10,12
2019,45,-63,337,47,41,-18
2020,-133,143,365,-35,14,4
2021,-155,30,403,-74,10,-12
2022,-102,-23,289,1,-23,-19
2023,81,-86,249,-23,-48,-12
2024,281,-14,352,348,108,-1
2025,23,209,786,-157,170,6
2026,-44,53,470,173,7,22
2027,-183,111,171,-166,68,47
2028,-170,-42,286,108,40,-15
2029,-59,-134,338,163,-4,-9
2030,114,1,539,-224,-62,21
2031,128,8,886,347,46,1
2032,161,-144,919,-221,-31,20
2033,-59,-213,867,-67,58,-5
2034,-259,-133,557,170,82,-60
2035,-190,-155,405,-210,-37,33
2036,3,6,38,452,41,-17
2037,12,-183,243,107,35,-93
2038,188,69,745,90,3,-18
2039,63,31,892,281,64,-43
2040,-109,-43,806,-120,34,-32
2041,-141,-57,568,7,6,-5
2042,-60,-36,552,120,-4,6
2043,-78,-252,561,-70,39,32
2044,11,-25,584,20,48,7
2045,-36,-80,263,72,8,47
2046,5,90,444,-154,-28,27
2047,-21,-202,304,151,-1,-40
2048,302,157,367,-77,-41,33
2049,36,88,487,39,33,-35
2050,-76,-109,623,65,84,-118
2051,-225,14,381,-43,-42,7
2052,-137,-59,380,31,26,-72
2053,32,-291,402,-20,-7,-58
2054,401,65,693,82,-40,17
2055,153,136,450,78,39,-1
2056,-110,-90,535,-33,51,-77
2057,-262,-49,505,3,9,45
2058,-279,32,464,-6,-3,-49
2059,-6,-232,462,-24,-11,-40
2060,439,99,657,20,-62,21
2061,89,71,498,185,98,8
2062,34,-172,575,-45,51,-51
2063,-205,-165,507,3,-25,65
2064,-200,114,249,17,26,-22
2065,-260,-248,585,-97,47,-35
2066,-24,66,623,25,-28,1
2067,128,-88,394,-12,-82,-26
2068,232,27,366,4,-39,-19
2069,36,20,480,6,69,12
2070,-138,25,585,-38,72,-5
2071,-257,-57,760,-30,1,10
2072,-193,-21,907,-5,-35,-6
2073,-15,-89,898,-27,-12,-16
2074,168,-16,1028,0,-6,-13
2075,197,0,1007,-5,-28,-8
2076,116,7,850,-4,-9,-9
2077,-86,14,760,-16,46,9
2078,-215,13,721,-30,53,5
2079,-168,-52,782,-28,5,-7
2080,-68,-56,891,-12,-39,-9
2081,105,-30,1007,-8,-42,-15
2082,186,-30,1020,-8,-8,-16
2083,109,0,991,-12,16,-1
2084,-23,19,996,-14,24,2
2085,-163,2,1001,-18,26,2
2086,-180,-26,985,-22,12,0
2087,-99,-34,986,-18,-13,-8
2088,78,-46,992,-11,-37,-16
2089,149,-35,992,-9,-24,-12
2090,134,0,1001,-11,6,-6
2091,5,11,1013,-14,31,-2
2092,-127,1,996,-19,30,4
2093,-182,-16,981,-21,10,0
2094,-112,-27,993,-17,-13,-8
2095,40,-37,1000,-17,-28,-15
2096,130,-39,999,-9,-22,-14
2097,145,-6,1008,-6,-5,-7
2098,32,2,1011,-14,22,-1
2099,-107,-1,1009,-15,33,3
2100,-176,-12,978,-21,17,2
2101,-123,-25,987,-18,-9,-6
2102,10,-44,998,-16,-29,-12
2103,120,-34,1005,-11,-23,-14
2104,151,-10,1006,-10,-4,-11
2105,49,3,1008,-11,19,-2
2106,-82,2,1003,-16,28,2
2107,-163,-9,978,-22,19,0
2108,-135,-28,991,-18,-4,-4
2109,-19,-41,993,-15,-25,-12
2110,107,-30,1004,-10,-26,-13
2111,148,-11,1009,-9,-9,-10
2112,68,0,1011,-13,16,-3
2113,-51,0,1005,-15,28,1
2114,-153,-7,971,-20,22,1
2115,-142,-28,988,-19,-1,-5
2116,-49,-39,993,-16,-20,-10
2117,90,-28,1010,-11,-27,-13
2118,146,-19,1009,-9,-12,-11
2119,87,-3,1010,-11,11,-4
2120,-23,3,1000,-16,26,0
2121,-141,-5,982,-19,25,3
2122,-149,-28,982,-17,6,-3
2123,-76,-43,987,-15,-18,-8
2124,72,-29,1012,-11,-28,-13
2125,133,-21,1008,-11,-16,-11
2126,109,-5,1014,-11,8,-6
2127,-2,7,1000,-16,26,0
2128,-125,0,984,-20,27,2
2129,-150,-30,990,-18,8,-2
2130,-98,-34,975,-17,-14,-8
2131,53,-32,1003,-12,-27,-13
2132,125,-27,1022,-12,-17,-11
2133,121,-6,1007,-10,4,-6
2134,22,7,997,-13,23,-1
2135,-108,-3,997,-18,26,2
2136,-161,-20,975,-19,10,-1
2137,-110,-30,989,-18,-10,-7
2138,29,-35,1007,-14,-28,-13
2139,116,-33,1005,-10,-20,-13
2140,137,-6,1005,-9,-2,-8
2141,39,4,1009,-13,21,-2
2142,-90,0,1000,-17,29,2
2143,-160,-17,971,-19,16,2
2144,-125,-26,984,-19,-8,-5
2145,-1,-37,1007,-13,-25,-11
2146,109,-31,1010,-11,-21,-13
2147,148,-7,1004,-11,-5,-10
2148,60,1,1001,-12,18,-3
2149,-71,-3,1001,-15,27,2
2150,-162,-12,971,-20,19,-1
2151,-138,-25,995,-19,-3,-6
2152,-30,-41,1002,-16,-24,-11
2153,100,-29,1005,-10,-25,-14
2154,156,-12,1008,-8,-9,-10
2155,74,-2,1002,-13,15,-3
2156,-45,-3,998,-17,28,0
2157,-156,-10,973,-19,22,1
2158,-150,-24,994,-18,-1,-2
2159,-53,-41,999,-16,-21,-10
2160,88,-30,1008,-10,-26,-12
2161,153,-14,1005,-9,-12,-10
2162,94,-8,1006,-12,13,-4
2163,-23,0,1001,-15,26,-1
2164,-144,-2,977,-19,23,3
2165,-160,-27,991,-19,4,-3
2166,-79,-38,993,-19,-18,-9
2167,72,-28,1010,-10,-27,-14
2168,144,-20,1006,-8,-15,-11
2169,114,-8,1006,-9,8,-5
2170,0,5,994,-14,25,-1
2171,-135,0,989,-19,27,3
2172,-162,-26,994,-19,8,-3
2173,-102,-36,981,-19,-16,-7
2174,60,-31,1004,-10,-29,-12
2175,134,-31,1019,-11,-18,-12
2176,127,-6,1007,-10,4,-6
2177,18,4,996,-13,24,-2
2178,-119,-2,995,-17,27,2
2179,-169,-22,983,-19,10,-1
2180,-109,-32,987,-18,-11,-9
2181,30,-36,1006,-13,-27,-12
2182,125,-32,1003,-10,-20,-12
2183,139,-7,1007,-8,0,-8
2184,34,8,1004,-11,21,-2
2185,-101,-2,1005,-17,29,2
2186,-164,-16,975,-20,15,0
2187,-125,-27,984,-17,-8,-6
2188,9,-41,1008,-13,-27,-13
2189,113,-36,1007,-9,-23,-13
2190,150,-8,1002,-7,-4,-8
2191,53,1,1004,-12,19,-3
2192,-75,0,1003,-15,28,2
2193,-163,-10,972,-21,17,1
2194,-136,-24,995,-19,-5,-5
2195,-19,-42,1002,-14,-23,-12
2196,106,-30,1005,-11,-24,-14
2197,155,-14,1004,-9,-7,-10
2198,67,0,1008,-11,17,-3
2199,-48,-6,1001,-16,28,1
2200,-159,-4,972,-19,23,2
2201,-147,-20,998,-19,-2,-4
2202,-46,-38,998,-16,-23,-10
2203,93,-29,1003,-11,-27,-12
2204,154,-19,1005,-11,-12,-12
2205,87,-6,1009,-10,14,-4
2206,-27,-2,994,-14,26,2
2207,-153,1,982,-17,23,2
2208,-151,-24,990,-18,3,-3
2209,-72,-38,992,-16,-17,-10
2210,81,-31,1013,-12,-27,-12
2211,145,-20,1007,-9,-14,-12
2212,106,-11,1004,-10,9,-6
2213,-9,0,1000,-13,26,0
2214,-135,0,988,-17,26,2
2215,-157,-27,989,-19,7,-2
2216,-90,-33,979,-17,-16,-8
2217,59,-29,1008,-13,-28,-12
2218,138,-26,1014,-10,-17,-13
2219,123,-9,1013,-11,5,-6
2220,31,22,1001,-26,17,-6
2221,-129,-8,997,-7,46,3
2222,-177,-35,966,-58,2,0
2223,-116,-38,862,44,-13,-11
2224,33,-37,906,-66,-42,-9
2225,129,-16,984,8,-1,-11
2226,145,-2,1000,7,-3,-8
2227,38,13,983,-51,17,1
2228,-98,-10,962,-7,22,1
2229,-178,-22,973,-4,22,-1
2230,-120,-32,989,-57,-6,-5
2231,14,-37,1011,20,-24,-12
2232,121,-33,1010,-21,-29,-12
2233,153,-5,1006,-15,-5,-9
2234,48,5,1007,7,26,-4
2235,-93,1,995,-38,30,4
2236,-166,-10,974,-11,19,0
2237,-130,-29,988,-13,-6,-4
2238,-9,-45,998,-28,-28,-12
2239,112,-35,1010,-3,-24,-15
2240,147,-13,1002,-18,-9,-9
2241,71,0,1005,-12,18,-2
2242,-52,-7,1000,-11,30,4
2243,-172,2,972,-24,21,0
2244,-160,-19,989,-15,-2,-8
2245,-58,-27,1003,-21,-26,-10
2246,82,-32,999,-16,-29,-18
2247,169,-84,998,-11,-16,-7
2248,118,-26,1017,-3,8,-1
2249,74,157,964,27,32,-16
2250,-75,82,780,-109,35,-59
2251,-333,-26,370,-134,-18,16
2252,-77,5,576,-131,26,5
2253,54,-10,247,-45,-108,42
2254,145,-34,344,16,-11,-12
2255,85,-35,665,-84,-25,-17
2256,-12,47,773,50,64,-13
2257,-177,8,738,-69,27,-6
2258,-216,-74,709,32,17,-6
2259,-95,-77,639,-17,-29,-10
2260,188,49,655,53,-33,38
2261,65,35,729,45,-1,45
2262,41,48,512,-200,-32,-2
2263,2,112,505,-11,38,14
2264,-199,-29,486,99,57,-2
2265,-166,-95,432,-111,-31,-12
2266,-93,-72,569,47,-22,1
2267,36,4,727,-15,-14,-10
2268,330,-9,773,-45,-15,-10
2269,151,61,732,-12,1,12
2270,-207,-41,753,-42,23,-17
2271,-199,187,579,5,70,18
2272,-150,-67,378,-122,47,-4
2273,-95,-108,506,114,-66,-23
2274,83,-129,402,-88,-52,2
2275,250,-49,532,14,3,-3
2276,139,60,828,17,28,51
2277,-61,-111,756,-201,-30,11
2278,-101,107,787,-20,-4,42
2279,-282,-59,649,2,41,23
2280,-134,-117,504,-228,-46,4
2281,13,-89,300,63,-31,9
2282,229,-27,281,-34,-57,-15
2283,176,-22,460,-70,-41,4
2284,64,70,608,75,40,-12
2285,-116,0,849,-83,41,10
2286,-49,-99,754,239,58,-29
2287,-258,-157,854,616,235,-199
2288,-163,-343,505,181,4,-106
2289,124,30,286,84,-48,4
2290,223,-40,200,-10,-28,-60
2291,125,109,309,11,3,-18
2292,-33,142,319,-79,-27,18
2293,-266,3,295,-75,14,-14
2294,55,74,476,-41,-9,8
2295,-15,-125,659,-9,-41,39
2296,-59,-257,614,146,19,-51
2297,104,-202,476,-211,-89,43
2298,50,108,506,58,17,-19
2299,-80,-105,369,0,25,-25
2300,11,110,493,-81,-4,11
2301,113,58,445,38,13,79
2302,-229,-14,506,-115,-39,4
2303,-74,-247,583,-262,-36,40
2304,-14,50,726,225,-31,24
2305,9,-249,605,-251,-38,-27
2306,353,5,771,51,-28,15
2307,-93,3,657,90,-9,81
2308,-229,-59,808,-254,57,-87
2309,25,-30,575,4,-20,77
2310,-32,56,699,-7,-36,-17
2311,-50,-312,256,-131,-24,-52
2312,477,51,756,87,-40,13
2313,99,117,196,-103,-3,54
2314,-81,-199,85,-22,112,-87
2315,1,-272,320,-189,-23,55
2316,-284,-73,125,100,-14,6
2317,-102,-92,312,-106,6,-60
2318,60,-50,904,-62,-65,-8
2319,194,-43,671,76,-33,-22
2320,153,-43,686,-90,-6,-25
2321,-46,107,1011,47,49,18
2322,-273,-11,917,-35,57,3
2323,-214,-6,790,-67,-3,-4
2324,-100,-79,877,47,-31,-10
2325,117,-31,771,-60,-40,-21
2326,239,-62,968,8,-13,-12
2327,130,40,1037,5,8,-5
2328,-20,-17,958,-37,24,-1
2329,-196,21,872,14,42,5
2330,-237,-14,922,-48,14,5
2331,-56,-45,963,-14,-22,-18
2332,104,-62,990,1,-36,-13
2333,186,6,1006,-19,-25,-11
2334,136,-13,1030,1,13,-10
2335,-32,0,1002,-23,28,2
2336,-184,7,973,-26,27,7
2337,-175,-29,1002,-10,9,-6
2338,-84,-48,985,-26,-18,-6
2339,88,-30,1001,-7,-32,-13
2340,176,-21,1018,-6,-22,-17
2341,120,3,998,-10,9,-5
2342,-18,17,999,-12,31,2
2343,-151,0,994,-24,29,2
2344,-172,-39,982,-21,7,-1
2345,-89,-46,976,-13,-16,-9
2346,74,-34,1016,-11,-28,-14
2347,157,-19,1012,-5,-20,-14
2348,119,0,1000,-8,3,-6
2349,0,14,1007,-15,26,0
2350,-132,0,990,-19,32,3
2351,-167,-29,987,-24,11,-1
2352,-102,-47,978,-18,-14,-9
2353,55,-37,1004,-10,-31,-14
2354,137,-27,1010,-7,-20,-12
2355,131,1,1013,-9,4,-7
2356,19,13,1003,-13,24,-2
2357,-115,2,989,-18,27,4
2358,-166,-28,989,-21,12,-1
2359,-111,-37,980,-19,-10,-6
2360,29,-43,1006,-11,-26,-13
2361,122,-32,1000,-8,-22,-13
2362,138,-3,1009,-7,-3,-7
2363,41,8,1003,-12,22,-2
2364,-98,4,1005,-17,30,3
2365,-161,-14,974,-15,15,-1
2366,-125,-29,978,-15,-3,-5
2367,8,-43,1009,-13,-25,-12
2368,109,-35,1004,-12,-22,-12
2369,147,-8,1004,-7,-4,-9
2370,58,4,1008,-10,20,-2
2371,-75,-1,1003,-16,30,2
2372,-157,-8,973,-19,18,1
2373,-139,-27,991,-19,-4,-4
2374,-21,-43,999,-15,-25,-9
2375,102,-36,1005,-10,-25,-12
2376,152,-15,1005,-8,-9,-9
2377,70,2,1008,-11,17,-2
2378,-50,0,1000,-16,28,0
2379,-160,-3,972,-19,22,2
2380,-146,-25,995,-20,-1,-3
2381,-47,-42,992,-16,-23,-11
2382,89,-35,1007,-11,-27,-13
2383,153,-16,1009,-9,-11,-11
2384,87,-2,1008,-10,13,-4
2385,-28,4,1000,-14,25,0
2386,-147,-2,977,-20,23,3
2387,-152,-26,989,-18,3,-4
2388,-72,-41,991,-18,-18,-9
2389,76,-29,1013,-11,-25,-13
2390,146,-20,1003,-10,-14,-12
2391,107,-5,1007,-10,9,-5
2392,-6,1,995,-14,25,0
2393,-137,0,992,-20,27,2
2394,-158,-28,986,-20,7,-1
2395,-95,-36,984,-16,-16,-8
2396,61,-29,1006,-11,-27,-13
2397,135,-26,1017,-7,-16,-13
2398,122,-9,1011,-10,5,-7
2399,15,4,996,-14,26,-2
2400,-121,-1,988,-18,27,2
2401,-161,-21,989,-19,10,-1
2402,-107,-34,981,-17,-11,-7
2403,37,-31,1006,-11,-27,-12
2404,123,-32,1009,-10,-19,-13
2405,130,-7,1006,-8,1,-8
2406,33,9,1006,-14,21,-2
2407,-101,-4,999,-19,27,1
2408,-164,-20,976,-20,14,0
2409,-117,-28,984,-17,-9,-5
2410,13,-37,1009,-13,-27,-12
2411,112,-34,1004,-9,-22,-12
2412,146,-6,1005,-7,-3,-8
2413,50,5,1004,-13,21,-2
2414,-81,0,1004,-16,30,3
2415,-165,-11,972,-21,17,0
2416,-136,-29,987,-18,-5,-5
2417,-12,-39,1005,-15,-24,-12
2418,107,-34,1005,-11,-24,-13
2419,156,-7,1005,-9,-7,-10
2420,67,1,1005,-13,18,-3
2421,-61,0,999,-17,28,1
2422,-160,-8,975,-21,20,0
2423,-148,-24,997,-18,0,-4
2424,-38,-40,996,-16,-22,-11
2425,96,-32,1006,-10,-26,-14
2426,155,-18,1005,-10,-10,-10
2427,83,-3,1008,-12,15,-4
2428,-34,-1,1000,-14,28,0
2429,-155,0,971,-18,24,3
2430,-152,-23,992,-18,2,-4
2431,-65,-43,998,-16,-21,-10
2432,80,-29,1006,-12,-27,-12
2433,155,-23,1009,-10,-15,-12
2434,100,-6,1004,-9,11,-5
2435,-14,4,996,-15,26,0
2436,-142,1,988,-20,27,3
2437,-158,-26,989,-18,6,-2
2438,-84,-39,985,-16,-18,-10
2439,67,-29,1011,-11,-30,-15
2440,140,-22,1012,-11,-18,-12
2441,119,-8,1008,-12,6,-7
2442,7,4,996,-14,26,-2
2443,-127,-2,987,-18,27,3
2444,-161,-25,988,-20,9,-2
2445,-106,-30,982,-16,-14,-7
2446,47,-30,1007,-12,-28,-13
2447,128,-29,1010,-10,-19,-12
2448,133,-8,1011,-10,3,-5
2449,28,5,999,-13,23,-1
2450,-111,-4,997,-17,28,3
2451,-163,-24,978,-20,13,-2
2452,-114,-33,988,-17,-11,-7
2453,23,-36,1003,-13,-27,-12
2454,119,-33,1006,-10,-21,-14
2455,144,-5,1006,-7,-2,-9
2456,44,5,1005,-15,21,-3
2457,-92,0,1007,-16,29,2
2458,-163,-16,969,-21,14,0
2459,-129,-28,989,-16,-7,-5
2460,-2,-41,1002,-14,-25,-13
2461,111,-32,1011,-10,-23,-13
2462,155,-8,1003,-9,-6,-10
2463,55,3,1004,-11,18,-2
2464,-64,-1,1002,-15,28,1
2465,-165,-12,971,-22,19,2
2466,-135,-25,995,-20,-4,-4
2467,-32,-46,1000,-16,-23,-11
2468,101,-28,1001,-10,-27,-14
2469,151,-13,1008,-8,-10,-11
2470,77,0,1007,-12,16,-3
2471,-45,-1,1002,-15,27,1
2472,-152,-5,973,-19,22,1
2473,-149,-27,994,-19,0,-3
2474,-54,-42,993,-15,-21,-10
2475,87,-31,1009,-9,-27,-12
2476,150,-15,1003,-10,-12,-11
2477,93,-6,1006,-9,11,-4
2478,-18,4,1001,-14,26,0
2479,-146,-1,980,-20,24,2
2480,-151,-28,991,-19,4,-3
2481,-83,-40,989,-16,-18,-9
2482,73,-29,1009,-13,-28,-14
2483,143,-23,1009,-8,-16,-13
2484,112,-5,1007,-9,7,-6
2485,-1,4,998,-14,26,0
2486,-127,2,990,-17,27,2
2487,-160,-30,987,-19,8,-2
2488,-99,-34,981,-17,-16,-8
2489,52,-32,1005,-12,-29,-13
2490,130,-26,1012,-10,-18,-13
2491,128,-9,1012,-10,4,-6
2492,23,6,995,-13,23,-2
2493,-115,0,994,-17,29,3
2494,-164,-24,984,-20,11,-1
2495,-114,-30,987,-18,-11,-6
2496,34,-39,1004,-14,-28,-13
2497,120,-35,1005,-9,-21,-12
2498,141,-6,1005,-6,-1,-8
2499,89,52,999,-31,26,-4
2500,-160,-39,930,-28,34,9
2501,-165,-5,840,-26,9,-5
2502,-131,-64,728,-22,-7,-8
2503,11,-21,847,-22,-26,-12
2504,156,-21,657,-8,-25,-16
2505,142,-23,699,-8,2,-8
2506,45,31,652,-18,22,-2
2507,-93,-6,696,-20,28,1
2508,-184,-8,805,-23,18,-1
2509,-151,-31,974,-25,-8,-9
2510,-23,-69,983,-12,-26,-13
2511,125,-100,976,-11,-28,-6
2512,184,-17,1012,7,-8,-11
2513,217,61,952,40,27,7
2514,-208,111,918,13,37,61
2515,-266,34,445,-26,18,11
2516,-163,-42,645,-24,-35,13
2517,-135,-82,339,-60,-66,12
2518,142,-13,379,-27,-29,-31
2519,212,41,585,9,7,-12
2520,182,25,694,4,37,-1
2521,25,-31,716,-40,18,-1
2522,-113,-22,835,13,12,1
2523,-198,-16,842,-40,6,-5
2524,-94,-98,730,-10,-8,-12
2525,134,-57,602,15,-37,-10
2526,310,41,775,-9,-49,4
2527,-29,17,833,-13,6,6
2528,-38,9,561,-120,51,-24
2529,-198,-22,406,20,47,-23
2530,-93,-80,549,44,0,-17
2531,-44,-11,569,-67,-35,1
2532,92,74,615,56,-1,-5
2533,143,-60,884,-26,9,-17
2534,75,-65,904,28,-18,-6
2535,56,104,948,-40,-16,5
2536,-106,40,926,-84,29,14
2537,-351,-74,519,75,72,-31
2538,-67,-46,619,-212,-3,-4
2539,60,-88,498,74,-79,-41
2540,127,-90,517,-17,-67,-41
2541,151,-59,573,-84,20,-7
2542,-10,8,770,195,93,-4
2543,-106,-31,985,-135,-1,5
2544,-122,-18,971,28,-9,3
2545,-90,-52,815,70,8,-10
2546,11,-53,951,-139,-31,-7
2547,141,-22,932,104,-18,-12
2548,148,-2,995,-56,-22,-3
2549,47,30,967,-33,15,-3
2550,-99,1,958,44,51,3
2551,-184,-8,938,-94,18,2
2552,-162,-58,1004,18,-11,-7
2553,-16,-103,986,-5,-39,-17
2554,131,-55,1016,-30,-34,-15
2555,343,-35,1025,-49,-37,10
2556,-32,3,1002,-7,25,47
2557,-234,-160,644,-73,31,-42
2558,-178,17,374,61,-16,48
2559,-154,74,151,150,42,-47
2560,-53,-223,395,-109,-43,-11
2561,189,37,461,43,-47,-3
2562,349,-55,244,40,-5,-11
2563,78,-100,393,-21,37,42
2564,-224,-89,707,59,102,-31
2565,-244,-238,489,-70,-1,23
2566,-220,56,583,-8,-11,25
2567,-106,-130,533,-4,-11,-57
2568,217,-57,662,9,-50,-1
2569,315,-44,445,-10,-27,57
2570,-20,-87,397,-49,53,-23
2571,-78,-35,713,-82,9,31
2572,-251,7,820,-53,3,65
2573,-276,-230,568,-40,35,-62
2574,-21,-164,741,-22,-76,2
2575,197,147,779,-30,-63,61
2576,-148,-32,631,-25,37,-65
2577,-27,-122,463,-31,22,-20
2578,-6,130,473,-80,-11,78
2579,-230,21,352,-17,25,-50
2580,-96,-224,586,-64,-40,-8
2581,143,261,339,34,-5,56
2582,-56,-151,316,81,33,-59
2583,149,-228,259,-113,-37,-46
2584,10,35,398,42,-25,67
2585,-58,-67,252,-26,65,-59
2586,34,-307,278,-48,-1,-11
2587,30,59,651,52,-43,27
2588,-115,-50,436,-32,-3,-20
2589,27,63,714,-23,7,-3
2590,39,-13,769,-11,9,0
2591,42,-35,567,-19,-6,-18
2592,32,-38,634,-23,-9,3
2593,-51,-4,667,-10,15,-9
2594,-74,-64,630,-33,24,-1
2595,-94,12,776,2,-2,-2
2596,-30,-15,752,-1,-25,-13
2597,75,-25,706,-19,-10,-12
2598,84,7,825,-9,5,-2
2599,58,-1,910,-15,11,-11
2600,-16,-33,970,-18,14,-3
2601,-145,-6,970,-11,15,5
2602,-115,-28,992,-21,1,-9
2603,-30,-60,937,-12,-11,-11
2604,51,-15,944,-4,-17,-6
2605,138,-3,1012,-11,-11,-13
2606,81,-4,1008,-12,13,-5
2607,-32,9,971,-14,23,3
2608,-136,-1,980,-21,20,-1
2609,-133,-35,990,-19,1,-3
2610,-74,-45,981,-20,-16,-4
2611,73,-33,1021,-10,-24,-14
2612,141,-24,1011,-8,-12,-11
2613,96,5,989,-6,11,-3
2614,-12,12,1009,-14,23,-1
2615,-130,5,998,-21,22,0
2616,-150,-27,977,-23,6,-1
2617,-94,-39,996,-19,-14,-8
2618,67,-40,1015,-13,-25,-13
2619,137,-34,1005,-8,-16,-11
2620,112,-8,1005,-6,5,-6
2621,11,10,1004,-10,25,-3
2622,-125,11,986,-18,28,3
2623,-166,-17,992,-22,9,-2
2624,-102,-35,988,-20,-13,-8
2625,45,-40,998,-14,-26,-12
2626,130,-38,1008,-9,-18,-13
2627,132,-12,1009,-8,2,-7
2628,28,7,1000,-10,20,0
2629,-110,0,995,-17,27,3
2630,-168,-12,986,-20,14,0
2631,-113,-27,988,-19,-8,-7
2632,23,-39,1003,-16,-27,-12
2633,119,-39,1004,-10,-23,-12
2634,147,-11,1003,-10,-3,-9
2635,41,0,1006,-14,20,-2
2636,-89,1,1003,-15,29,1
2637,-164,-13,980,-20,16,0
2638,-126,-22,984,-16,-7,-4
2639,-4,-39,1007,-15,-25,-12
2640,113,-35,1008,-11,-24,-14
2641,151,-12,1000,-8,-7,-9
2642,60,-3,1004,-12,18,-2
2643,-67,-2,1004,-14,28,1
2644,-161,-11,971,-20,19,1
2645,-137,-22,998,-19,-2,-4
2646,-34,-41,1000,-15,-23,-10
2647,106,-29,999,-10,-26,-13
2648,152,-16,1009,-11,-10,-10
2649,76,-1,1008,-13,15,-4
2650,-42,-4,1002,-15,28,0
2651,-158,-3,974,-18,23,3
2652,-149,-23,993,-18,1,-4
2653,-55,-43,996,-15,-20,-10
2654,85,-28,1008,-10,-26,-14
2655,152,-17,1007,-10,-12,-12
2656,93,-6,1006,-10,12,-4
2657,-20,-1,999,-16,26,1
2658,-143,-3,984,-20,25,2
2659,-153,-26,989,-18,4,-2
2660,-80,-39,987,-17,-18,-9
2661,73,-27,1007,-12,-27,-13
2662,140,-23,1014,-10,-16,-13
2663,114,-10,1008,-12,6,-7
2664,1,3,997,-15,26,-1
2665,-127,-4,989,-19,28,2
2666,-159,-23,991,-20,9,-2
2667,-98,-34,979,-16,-13,-8
2668,47,-30,1005,-12,-28,-13
2669,129,-29,1013,-10,-18,-13
2670,127,-7,1006,-10,3,-7
2671,25,6,1004,-13,23,0
2672,-110,-4,994,-18,28,3
2673,-163,-22,978,-20,11,-1
2674,-108,-28,988,-18,-11,-6
2675,21,-37,1005,-14,-27,-12
2676,119,-29,1004,-9,-23,-13
2677,140,-8,1007,-10,-3,-8
2678,40,6,1006,-14,21,-3
2679,-89,-6,1003,-17,28,0
2680,-162,-15,974,-19,15,-1
2681,-123,-28,986,-17,-7,-5
2682,-2,-41,1007,-13,-24,-11
2683,108,-30,1007,-12,-23,-12
2684,153,-9,1006,-10,-7,-9
2685,56,2,1003,-11,18,-2
2686,-64,-2,1004,-17,27,1
2687,-158,-10,973,-20,19,1
2688,-141,-29,997,-20,-2,-3
2689,-31,-38,998,-16,-21,-10
2690,97,-34,1004,-11,-24,-12
2691,153,-12,1008,-7,-11,-9
2692,78,0,1011,-12,17,-3
2693,-37,0,999,-16,29,-1
2694,-152,-5,971,-18,24,2
2695,-147,-24,995,-20,0,-4
2696,-64,-43,993,-19,-22,-9
2697,85,-33,1007,-12,-27,-13
2698,151,-21,1006,-10,-13,-11
2699,97,-2,1005,-9,11,-5
2700,-16,8,999,-13,25,0
2701,-144,0,984,-19,25,3
2702,-154,-27,988,-22,5,-2
2703,-84,-40,988,-17,-18,-9
2704,68,-32,1006,-13,-18,-10
2705,141,-26,1015,-8,-12,-10
2706,116,-6,1007,-12,6,-6
2707,4,7,994,-13,25,-1
2708,-125,3,989,-17,26,3
2709,-163,-27,987,-21,8,-2
2710,-98,-32,981,-18,-14,-8
2711,47,-34,1005,-14,-28,-12
2712,127,-29,1011,-11,-19,-13
2713,132,-9,1007,-9,2,-7
2714,23,7,1001,-13,25,-1
2715,-110,-2,997,-18,28,1
2716,-166,-21,981,-19,12,-1
2717,-112,-27,984,-18,-10,-6
2718,19,-37,1007,-14,-27,-12
2719,118,-34,1007,-11,-22,-13
2720,145,-8,1003,-9,-3,-8
2721,46,1,1003,-13,22,-3
2722,-89,-2,1006,-14,30,2
2723,-166,-14,972,-18,16,2
2724,-129,-26,987,-18,-7,-5
2725,-7,-37,1009,-15,-26,-12
2726,109,-33,1006,-12,-24,-13
2727,153,-9,1001,-11,-6,-10
2728,62,-2,1007,-11,19,-3
2729,-64,-2,997,-16,28,0
2730,-159,-7,973,-18,19,1
2731,-141,-21,1001,-18,-3,-4
2732,-37,-35,995,-16,-23,-11
2733,99,-31,1003,-11,-26,-13
2734,152,-17,1006,-10,-11,-11
2735,81,-8,1009,-12,14,-3
2736,-35,-2,996,-17,28,1
2737,-155,-4,975,-19,23,4
2738,-149,-21,992,-17,0,-4
2739,-65,-38,995,-16,-20,-9
2740,87,-28,1010,-11,-26,-12
2741,147,-23,1006,-9,-13,-12
2742,98,-8,1004,-11,10,-5
2743,-13,-2,998,-14,25,0
2744,-142,0,987,-18,25,2
2745,-153,-26,987,-19,6,-2
2746,-85,-34,988,-16,-16,-10
2747,67,-28,1003,-13,-28,-13
2748,139,-24,1018,-10,-16,-11
2749,120,-13,1007,-11,8,-5
2750,8,4,993,-13,26,-1
2751,-124,-2,990,-18,27,3
2752,-165,-26,989,-19,9,-2
2753,-99,-29,982,-17,-13,-6
2754,45,-32,1007,-13,-27,-13
2755,128,-26,1008,-11,-18,-12
2756,132,-8,1007,-11,2,-6
2757,26,4,1000,-14,23,-1
2758,-107,-3,1002,-17,28,2
2759,-162,-18,977,-20,13,-1
2760,-117,-30,985,-18,-9,-6
2761,22,-36,1007,-15,-27,-13
2762,113,-31,1003,-10,-21,-12
2763,144,-7,1002,-10,-2,-8
2764,44,4,1009,-13,21,-2
2765,-83,-3,1001,-17,29,0
2766,-160,-9,973,-20,15,-1
2767,-72,5,1001,1,-6,-10
2768,-73,-62,924,-53,-22,-8
2769,70,-82,824,21,-29,-18
2770,153,15,680,-26,-7,-10
2771,84,4,673,4,18,-4
2772,-33,11,834,-10,31,1
2773,-165,-9,868,-38,23,2
2774,-151,-42,926,3,-2,-5
2775,-56,-51,910,-22,-25,-9
2776,95,-23,936,-9,-26,-14
2777,274,120,806,40,-7,-25
2778,-30,18,876,-184,30,-11
2779,-112,-54,808,113,29,-27
2780,-141,45,752,-46,9,6
2781,-74,-11,847,-71,-1,-26
2782,-79,-27,780,99,17,-28
2783,65,-8,858,-116,-38,-25
2784,122,-19,847,55,2,-16
2785,78,-44,805,22,12,-4
2786,132,38,781,-153,-12,-37
2787,-285,22,897,269,51,-106
2788,-259,-48,675,-253,55,-110
2789,-1,-4,654,331,48,-61
2790,52,-4,640,78,-20,-20
2791,94,29,636,-182,-60,-12
2792,133,84,840,256,39,1
2793,6,-13,792,-213,33,18
2794,5,-27,883,40,16,-7
2795,-58,-56,710,-38,-38,23
2796,-230,-71,680,-26,22,4
2797,-119,41,718,59,20,-5
2798,73,-61,532,23,-24,-6
2799,113,40,420,-41,-22,-34
2800,71,17,421,72,-11,-2
2801,-67,9,699,-78,53,18
2802,-43,-10,696,-4,59,-7
2803,-112,-201,772,189,-3,25
2804,-188,-8,726,349,57,-5
2805,23,-53,725,-320,-100,30
2806,169,35,767,131,73,-1
2807,45,-50,666,29,-23,-36
2808,12,52,408,-145,-32,9
2809,-10,77,464,79,9,16
2810,-227,-46,729,-34,44,-8
2811,-79,-129,894,-91,-20,-3
2812,11,-62,808,111,-39,-14
2813,265,0,876,-113,-28,-19
2814,41,-245,844,245,89,-50
2815,-169,-102,707,52,166,-109
2816,-257,-146,668,-6,-4,-31
2817,-64,174,241,180,30,-16
2818,-62,-29,428,-64,-4,-60
2819,138,-56,619,61,6,-56
2820,109,15,483,63,2,-17
2821,19,40,434,-19,45,-40
2822,-96,-88,760,28,32,-12
2823,-146,17,897,-13,15,-5
2824,16,-80,678,117,25,19
2825,-89,23,425,133,59,11
2826,-68,-252,568,-185,-1,49
2827,120,-24,735,83,-66,51
2828,12,61,590,-132,-3,13
2829,-24,-170,350,-40,6,-34
2830,6,117,621,25,7,39
2831,42,74,591,-54,-3,78
2832,-236,-36,921,-74,-19,-3
2833,-128,-250,601,-89,-19,10
2834,122,91,419,59,-46,51
2835,70,-97,263,-84,-24,-38
2836,69,-161,515,17,8,-4
2837,62,135,927,57,8,36
2838,-62,157,573,-68,30,33
2839,-215,-38,505,-60,27,-69
2840,-232,-226,559,44,19,-18
2841,14,147,968,-25,-56,15
2842,142,-39,846,57,-6,-49
2843,131,-149,483,-35,-5,-30
2844,182,144,710,-44,8,37
2845,-224,65,530,-28,31,52
2846,-298,-104,459,-202,-37,-50
2847,-181,-102,572,57,-32,20
2848,-38,64,297,-89,-44,20
2849,169,-180,244,-5,-22,-77
2850,256,-63,194,-1,-29,12
2851,41,88,259,-41,9,26
2852,-217,2,255,24,70,-20
2853,-199,30,278,-73,25,13
2854,-145,-17,288,-11,-20,-2
2855,53,-57,305,-7,-37,-26
2856,225,-44,408,-31,-29,-13
2857,126,-15,451,15,11,-6
2858,-1,-4,447,-45,20,1
2859,-154,-9,416,-16,22,2
2860,-195,-21,374,-5,18,0
2861,-106,-29,426,-35,-7,-7
2862,71,-22,501,10,-30,-16
2863,180,-12,582,-20,-29,-16
2864,125,1,657,-17,3,-4
2865,-14,10,753,-6,30,0
2866,-139,-13,813,-38,30,2
2867,-178,-47,904,-10,11,0
2868,-97,-43,924,-10,-15,-8
2869,76,-34,896,-9,-25,-16
2870,148,-6,886,-3,-16,-12
2871,113,17,907,-17,1,-6
2872,10,9,919,-18,22,-4
2873,-136,-5,919,-20,32,7
2874,-164,-37,958,-25,14,-1
2875,-98,-63,970,-15,-13,-8
2876,51,-40,990,-11,-32,-12
2877,130,-15,1019,-7,-22,-13
2878,125,9,1022,-9,2,-8
2879,21,20,989,-18,24,-2
2880,-115,5,992,-19,29,3
2881,-158,-32,984,-22,13,-1
2882,-109,-45,976,-22,-9,-6
2883,30,-48,1001,-13,-28,-13
2884,113,-30,1018,-8,-22,-14
2885,133,0,1004,-7,-2,-8
2886,40,15,1012,-12,22,-2
2887,-93,5,1006,-20,32,3
2888,-157,-16,973,-19,18,0
2889,-118,-33,978,-20,-8,-5
2890,-1,-48,1010,-13,-27,-12
2891,105,-39,1011,-10,-23,-12
2892,143,-8,1004,-9,-4,-9
2893,56,7,1005,-9,19,-3
2894,-69,5,1007,-15,28,1
2895,-156,-7,968,-20,19,1
2896,-138,-23,987,-19,-2,-4
2897,-27,-45,1005,-17,-23,-11
2898,93,-38,1001,-11,-24,-13
2899,154,-18,1007,-9,-8,-10
2900,74,0,1009,-9,16,-4
2901,-44,1,1001,-14,28,0
2902,-152,-3,969,-19,22,2
2903,-149,-21,998,-18,-2,-3
2904,-51,-42,996,-16,-22,-9
2905,83,-36,1010,-11,-26,-13
2906,150,-20,1006,-9,-10,-11
2907,92,-9,1007,-11,13,-5
2908,-19,3,997,-12,26,0
2909,-146,0,975,-18,24,3
2910,-153,-23,991,-18,3,-4
2911,-83,-42,996,-17,-18,-9
2912,71,-26,1008,-12,-28,-14
2913,145,-25,1011,-9,-16,-12
2914,109,-6,1008,-9,8,-6
2915,2,0,993,-15,25,0
2916,-132,-1,988,-18,27,3
2917,-162,-22,989,-21,8,-2
2918,-100,-34,981,-19,-14,-8
2919,54,-28,1007,-12,-28,-12
2920,134,-29,1013,-11,-17,-12
2921,125,-9,1013,-11,4,-7
2922,19,2,990,-13,23,-2
2923,-115,0,995,-16,27,4
2924,-164,-22,986,-19,10,0
2925,-113,-27,985,-17,-11,-5
2926,34,-32,1007,-13,-27,-12
2927,120,-35,1009,-10,-21,-13
2928,139,-7,1000,-7,-1,-7
2929,39,3,1004,-13,22,-1
2930,-96,-2,1004,-17,29,2
2931,-166,-15,971,-20,16,0
2932,-123,-23,985,-20,-8,-6
2933,3,-38,1008,-15,-27,-10
2934,111,-32,1005,-11,-23,-14
2935,153,-12,1002,-10,-4,-9
2936,53,-1,1004,-12,19,-3
2937,-71,-3,999,-16,27,1
2938,-164,-10,977,-19,18,2
2939,-134,-23,992,-18,-5,-5
2940,-26,-38,1002,-16,-24,-12
2941,104,-29,1003,-11,-25,-12
2942,153,-14,1005,-7,-10,-11
2943,75,-2,1009,-11,16,-4
2944,-51,-1,1001,-15,27,0
2945,-154,-6,973,-19,23,1
2946,-144,-26,995,-17,0,-4
2947,-53,-38,999,-16,-23,-9
2948,89,-31,1003,-13,-27,-14
2949,153,-19,1008,-11,-12,-11
2950,94,-3,1003,-10,11,-4
2951,-25,0,1003,-14,26,0
2952,-145,0,977,-20,25,2
2953,-155,-27,994,-19,4,-3
2954,-78,-39,988,-15,-17,-11
2955,71,-29,1007,-12,-28,-14
2956,145,-23,1010,-9,-16,-12
2957,108,-8,1007,-13,8,-5
2958,1,5,996,-14,27,-2
2959,-134,0,988,-17,27,3
2960,-157,-25,990,-20,8,-3
2961,-97,-36,981,-17,-15,-8
2962,55,-30,1005,-11,-28,-12
2963,131,-27,1010,-10,-17,-13
2964,127,-6,1011,-10,4,-7
2965,20,6,995,-12,24,-1
2966,-113,-3,997,-18,28,3
2967,-160,-25,982,-20,11,-2
2968,-112,-27,984,-18,-9,-6
2969,33,-34,1006,-14,-28,-13
2970,116,-32,1006,-9,-21,-12
2971,141,-4,1003,-9,-2,-8
2972,38,5,1009,-14,23,-2
2973,-88,0,1005,-16,30,1
2974,-168,-16,969,-20,15,1
2975,-124,-25,987,-18,-9,-6
2976,-5,-45,1005,-14,-24,-11
2977,109,-29,1006,-11,-23,-13
2978,152,-10,1006,-9,-6,-9
2979,59,0,1003,-11,17,-2
2980,-67,-1,1002,-16,27,1
2981,-162,-8,973,-21,19,0
2982,-138,-27,996,-19,-3,-4
2983,-30,-39,994,-14,-23,-11
2984,99,-31,1004,-10,-25,-13
2985,157,-12,1006,-9,-11,-11
2986,75,-2,1007,-14,17,-2
2987,-41,-1,1001,-15,29,1
2988,-153,-6,972,-20,22,1
2989,-148,-28,993,-18,-1,-4
2990,-59,-42,995,-16,-21,-10
2991,89,-29,1012,-11,-27,-13
2992,144,-18,1004,-9,-12,-11
2993,100,-4,1005,-10,12,-4
2994,-20,2,1001,-16,25,-1
2995,-141,0,980,-20,25,1
2996,-152,-30,990,-20,6,-4
2997,-87,-37,985,-17,-17,-9
2998,66,-30,1004,-12,-29,-13
2999,139,-27,1018,-9,-17,-12
3000,114,-7,1007,-12,7,-5
3001,5,7,996,-14,26,-1
3002,-122,-1,992,-17,26,2
3003,-163,-23,987,-20,7,-3
3004,-100,-33,980,-17,-14,-7
3005,44,-35,1008,-15,-28,-11
3006,125,-31,1009,-11,-18,-13
3007,129,-3,1007,-11,2,-6
3008,26,6,1002,-14,22,-3
3009,-108,-5,998,-17,28,1
3010,-162,-19,979,-20,13,-2
3011,-113,-25,984,-17,-9,-6
3012,16,-39,1007,-14,-28,-12
3013,115,-33,1007,-9,-22,-14
3014,153,7,1008,-8,-1,-8
3015,56,2,1003,-55,17,-4
3016,-113,-26,980,34,41,8
3017,-171,-20,909,-34,23,0
3018,-107,-29,909,-10,-12,-5
3019,-6,-23,880,-53,-40,-11
3020,116,-30,863,-25,-22,-14
3021,141,-7,733,7,8,-4
3022,50,-3,758,-14,12,0
3023,-72,-5,796,-17,27,0
3024,-161,-10,904,-12,23,-1
3025,-142,-16,990,-19,4,-5
3026,-35,-40,991,-15,-24,-13
3027,97,-36,994,-7,-30,-15
3028,151,-33,1001,-14,-12,-7
3029,91,-10,1009,-2,17,-4
3030,-28,2,993,-14,29,-2
3031,-62,92,977,32,25,-2
3032,-117,71,846,-105,8,-71
3033,-177,-144,635,-68,-16,-29
3034,12,-1,600,33,-14,-32
3035,257,-21,601,-89,-25,-18
3036,129,21,767,98,20,27
3037,45,-12,609,9,28,8
3038,-161,67,787,-43,16,26
3039,-191,-67,580,-7,29,0
3040,-139,-54,683,-51,-36,5
3041,90,-72,702,9,-46,-12
3042,275,125,886,-55,-37,-10
3043,129,14,978,-76,9,9
3044,-120,-75,730,-62,70,-1
3045,-144,23,626,-16,-15,6
3046,-215,-53,527,-179,-17,-2
3047,-156,-66,571,39,16,-30
3048,40,-25,805,-58,-22,-3
3049,125,-56,918,-23,-41,-25
3050,164,122,1005,74,-17,-15
3051,-52,-34,936,-113,23,11
3052,-159,-83,832,35,111,-15
3053,-191,-29,800,-11,3,-7
3054,-120,-66,491,-53,-26,5
3055,7,-96,489,25,-33,-40
3056,190,-8,498,-33,-37,-10
3057,156,5,636,-11,-25,-8
3058,23,61,585,12,77,1
3059,-144,-44,614,-123,81,12
3060,-207,-183,733,21,-12,-40
3061,-150,-76,544,-173,-7,33
3062,-130,-54,649,240,8,-37
3063,44,-66,475,-138,-54,-25
3064,166,112,525,124,-4,2
3065,75,89,526,-1,28,-7
3066,-59,32,660,-86,27,5
3067,-182,-172,577,-45,4,68
3068,-379,-191,582,57,56,-23
3069,-249,-333,483,69,-19,-24
3070,136,-98,397,20,-119,1
3071,405,41,288,-134,-45,-24
3072,270,74,283,-96,-19,64
3073,36,47,631,-36,26,18
3074,-348,38,753,26,91,-9
3075,-348,-12,509,-85,21,-1
3076,-239,-206,405,-48,-43,-31
3077,115,-127,372,61,-44,-24
3078,332,-106,555,-22,-38,-27
3079,346,71,640,85,13,29
3080,-145,-4,1002,7,92,7
3081,-283,-170,744,-110,29,5
3082,-352,-58,389,-3,-16,57
3083,-210,-99,133,-100,-41,-66
3084,117,-205,296,-12,-59,-29
3085,430,166,390,11,-63,14
3086,128,-30,537,-2,46,-24
3087,-157,-132,703,38,83,-77
3088,-230,-151,453,-25,25,34
3089,-302,114,357,6,15,3
3090,-168,-259,475,-48,-26,-62
3091,175,29,494,20,-85,0
3092,247,70,476,78,-9,35
3093,78,89,464,199,133,83
3094,-129,-218,585,-208,32,63
3095,-233,-39,725,67,-26,76
3096,-238,-13,482,-95,-7,50
3097,-72,-254,641,-75,-27,-54
3098,161,7,457,38,-39,22
3099,295,54,481,-82,-46,30
3100,-1,-5,376,-65,-4,-32
3101,-129,-140,390,-68,22,-26
3102,-143,-50,540,-59,14,52
3103,-155,62,362,-15,23,-20
3104,-21,-245,235,16,-24,-65
3105,146,8,223,-43,-72,27
3106,154,52,295,20,-8,-17
3107,122,2,332,28,25,-29
3108,22,66,401,-55,28,21
3109,-170,17,237,7,31,0
3110,-161,-55,347,-48,4,-7
3111,-81,-74,422,-23,-15,-7
3112,-13,-73,400,27,-17,-11
3113,124,-34,428,-32,-25,-11
3114,142,1,426,18,-7,-11
3115,51,9,409,-17,20,0
3116,-61,30,528,-29,30,1
3117,-154,7,666,-4,20,-2
3118,-125,-43,723,-40,-9,-4
3119,-55,-55,767,-9,-23,-10
3120,83,-38,749,-10,-26,-16
3121,149,-40,767,-23,-11,-12
3122,79,2,846,7,15,-2
3123,-7,16,903,-20,23,-3
3124,-123,5,884,-14,24,1
3125,-167,-5,892,-18,5,0
3126,-87,-28,924,-30,-18,-9
3127,58,-51,963,-11,-28,-13
3128,120,-41,994,-12,-15,-9
3129,130,-17,1022,-10,7,-7
3130,21,0,1000,-7,25,-1
3131,-117,8,991,-16,26,4
3132,-165,-6,992,-17,10,-4
3133,-110,-20,988,-18,-10,-7
3134,26,-35,1001,-14,-24,-10
3135,118,-39,1011,-12,-21,-12
3136,146,-22,1000,-11,-4,-10
3137,41,-7,997,-14,23,-1
3138,-93,0,1006,-16,30,2
3139,-166,-8,979,-18,16,-1
3140,-124,-15,983,-18,-8,-4
3141,-6,-32,1011,-15,-24,-10
3142,116,-31,1010,-16,-23,-14
3143,151,-19,998,-12,-5,-10
3144,59,-3,1005,-12,17,-3
3145,-66,-7,1005,-15,27,1
3146,-159,-7,973,-18,19,0
3147,-139,-22,999,-16,-2,-2
3148,-35,-34,1002,-15,-24,-9
3149,101,-28,999,-13,-26,-13
3150,151,-12,1003,-11,-9,-10
3151,78,-7,1009,-14,15,-2
3152,-35,-6,998,-17,27,0
3153,-152,-5,972,-19,23,3
3154,-146,-20,994,-18,1,-4
3155,-63,-39,993,-18,-19,-10
3156,83,-26,1007,-13,-26,-14
3157,147,-17,1006,-11,-14,-12
3158,100,-5,1004,-9,11,-5
3159,-12,1,998,-15,26,0
3160,-140,-1,988,-21,26,3
3161,-154,-29,992,-20,4,-3
3162,-89,-40,980,-18,-17,-8
3163,65,-30,1007,-12,-28,-13
3164,136,-24,1015,-8,-17,-13
3165,117,-6,1010,-10,5,-6
3166,11,8,996,-13,25,0
3167,-124,-2,991,-19,27,3
3168,-159,-26,985,-21,8,-3
3169,-101,-35,985,-18,-12,-7
3170,43,-36,1003,-14,-27,-13
3171,123,-30,1010,-10,-18,-14
3172,135,-8,1007,-9,1,-7
3173,28,9,1004,-12,23,-1
3174,-102,0,1001,-19,29,2
3175,-166,-20,978,-21,15,0
3176,-115,-28,984,-20,-10,-6
3177,14,-40,1007,-14,-27,-13
3178,113,-33,1006,-11,-22,-12
3179,146,-8,1005,-9,-4,-8
3180,49,4,1006,-12,20,-3
3181,-82,-2,1006,-16,29,2
3182,-162,-12,968,-19,18,1
3183,-134,-27,992,-19,-4,-6
3184,-14,-40,1002,-14,-24,-11
3185,107,-33,1001,-11,-25,-14
3186,154,-10,1007,-8,-9,-9
3187,66,1,1006,-12,17,-3
3188,-54,-1,1001,-17,28,0
3189,-158,-7,971,-18,21,0
3190,-144,-25,996,-19,0,-4
3191,-41,-39,995,-15,-23,-10
3192,93,-29,1004,-12,-27,-12
3193,153,-17,1007,-10,-11,-10
3194,85,-5,1010,-12,15,-3
3195,-29,0,996,-16,27,-1
3196,-151,-3,977,-19,24,2
3197,-154,-28,990,-19,2,-4
3198,-75,-38,993,-16,-18,-9
3199,80,-29,1012,-12,-27,-14
3200,144,-20,1009,-9,-14,-11
3201,107,-8,1003,-9,8,-4
3202,-7,4,1000,-14,27,0
3203,-133,0,986,-18,28,2
3204,-158,-29,989,-20,8,-2
3205,-90,-37,981,-17,-17,-8
3206,57,-31,1006,-10,-29,-12
3207,135,-25,1018,-8,-17,-12
3208,124,-3,1010,-9,6,-6
3209,16,7,995,-14,24,-3
3210,-116,-2,992,-16,28,1
3211,-166,-27,984,-20,11,-2
3212,-110,-34,980,-18,-11,-6
3213,35,-34,1008,-12,-27,-13
3214,119,-31,1005,-9,-21,-14
3215,138,-3,1007,-9,0,-8
3216,37,6,1003,-14,21,-2
3217,-99,-4,1001,-17,28,2
3218,-164,-17,977,-19,15,0
3219,-125,-28,982,-17,-8,-5
3220,4,-41,1006,-12,-27,-12
3221,115,-33,1010,-10,-23,-13
3222,149,-10,1003,-10,-5,-10
3223,56,4,1003,-11,20,-3
3224,-79,0,1003,-15,29,2
3225,-163,-9,969,-20,18,1
3226,-135,-28,996,-18,-4,-4
3227,-23,-41,1001,-16,-23,-10
3228,107,-31,1000,-13,-25,-13
3229,150,-14,1006,-9,-8,-9
3230,72,0,1006,-11,15,-3
3231,-46,-4,1001,-16,28,1
3232,-155,-2,973,-18,22,2
3233,-148,-23,995,-19,-1,-3
3234,-50,-38,996,-16,-21,-10
3235,87,-32,1011,-12,-25,-13
3236,152,-16,1002,-11,-11,-11
3237,91,-10,1009,-10,12,-5
3238,-22,1,996,-14,24,0
3239,-144,0,982,-19,23,2
3240,-152,-26,989,-19,3,-3
3241,-81,-38,993,-17,-16,-9
3242,76,-29,1006,-13,-27,-14
3243,136,-25,1015,-10,-16,-12
3244,112,-4,1006,-10,7,-6
3245,-2,2,995,-15,25,0
3246,-126,0,989,-16,26,2
3247,-160,-25,990,-20,7,-2
3248,-94,-31,981,-18,-16,-8
3249,54,-32,1006,-13,-28,-11
3250,130,-26,1013,-10,-18,-13
3251,127,-10,1011,-10,5,-6
3252,20,6,995,-13,24,-1
3253,-115,-4,997,-17,27,3
3254,-161,-20,982,-19,11,0
3255,-112,-28,985,-18,-10,-6
3256,31,-36,1007,-13,-27,-11
3257,115,-31,1003,-9,-21,-12
3258,141,-5,1004,-7,-1,-8
3259,39,2,1006,-14,22,-1
3260,-89,-2,1002,-17,29,2
3261,-163,-16,973,-19,16,0
3262,-125,-28,987,-19,-6,-4
3263,-2,-36,1005,-14,-25,-11
3264,111,-32,1009,-11,-23,-13
3265,148,-9,1005,-11,-5,-8
3266,58,1,1000,-11,18,-3
3267,-66,-4,1004,-16,28,1
3268,-157,-7,972,-21,19,1
3269,-140,-26,997,-18,-2,-4
3270,-32,-41,999,-15,-23,-11
3271,99,-31,1003,-12,-25,-13
3272,154,-14,1006,-8,-10,-11
3273,77,-2,1012,-12,16,-3
3274,-39,0,995,-18,26,0
3275,-155,-2,976,-19,22,3
3276,-148,-25,990,-20,0,-4
3277,-64,-43,995,-17,-21,-10
3278,88,-30,1010,-12,-28,-14
3279,147,-22,1005,-11,-14,-12
3280,100,0,1003,-8,11,-5
3281,-16,2,999,-15,26,0
3282,-140,0,986,-18,25,3
3283,-159,-28,989,-20,5,-3
3284,-87,-39,985,-18,-17,-9
3285,68,-32,1008,-11,-28,-13
3286,178,6,1011,-48,-29,-10
3287,70,-22,803,-34,22,16
3288,-13,-24,882,172,59,-16
3289,-117,17,643,-114,28,9
3290,-137,-22,671,-26,10,16
3291,-75,-36,784,31,-54,-14
3292,45,-16,726,-84,-16,-5
3293,109,-28,836,-3,-14,-7
3294,113,-13,857,-4,9,-8
3295,12,-2,900,-44,7,1
3296,-102,-10,892,14,32,-1
3297,-154,-26,910,-34,15,0
3298,-98,-18,946,-16,-8,-7
3299,10,-35,987,1,-25,-11
3300,95,-24,1017,-28,-23,-15
3301,125,-48,996,1,-2,-8
3302,55,-10,1005,-9,14,-1
3303,-36,33,1017,-13,23,-1
3304,24,122,849,16,26,3
3305,-286,34,650,-242,-25,-12
3306,-122,-21,531,115,25,-26
3307,124,11,769,6,-89,-38
3308,60,0,470,-28,-6,-39
3309,144,-41,567,126,14,-27
3310,-71,-49,533,-6,61,-12
3311,-144,0,550,-27,17,-11
3312,40,77,516,110,-5,-10
3313,-63,-123,640,-161,-29,-24
3314,-107,-65,474,156,2,-39
3315,145,-72,892,-165,-25,-3
3316,47,91,596,73,-25,-32
3317,-45,-27,418,-37,5,-47
3318,-127,51,449,-116,24,-7
3319,-155,-27,370,187,45,-4
3320,54,9,503,-138,-18,-5
3321,-13,-139,568,-26,-68,6
3322,-37,9,416,169,25,-32
3323,51,-155,116,-231,-10,18
3324,-10,-166,579,179,59,12
3325,-57,-101,545,20,17,-9
3326,-14,-43,525,-225,-41,5
3327,-117,-52,285,145,25,-4
3328,3,58,587,-57,-10,-13
3329,67,-20,893,-61,-16,2
3330,112,37,913,86,5,-15
3331,44,-49,929,-117,6,-6
3332,-102,12,945,31,27,2
3333,-150,-52,918,-22,12,-2
3334,-121,-91,972,-61,-10,-12
3335,0,-115,1005,58,-24,-8
3336,258,2,974,5,-21,-18
3337,192,124,660,12,24,-25
3338,-80,28,649,67,94,-40
3339,-200,-128,817,-84,0,8
3340,-204,-26,913,73,-4,-1
3341,-62,-89,937,-79,0,-22
3342,92,10,1018,41,-17,-15
3343,193,122,799,13,-26,-10
3344,110,-75,663,-98,9,-29
3345,-61,-70,766,38,34,13
3346,-139,-22,871,-58,25,-6
3347,-116,-17,621,-28,8,-11
3348,-126,32,605,23,-22,4
3349,36,-17,573,-74,-37,-22
3350,87,-133,728,8,-6,-23
3351,116,-36,914,-7,-7,-5
3352,100,-10,982,-17,3,-13
3353,252,-6,846,-110,0,56
3354,-234,-77,515,34,42,-33
3355,-332,-325,722,-35,47,-28
3356,68,71,802,-26,-89,12
3357,112,-56,669,-22,-44,-1
3358,191,-107,770,-27,-7,-67
3359,135,-33,776,-1,4,28
3360,-31,97,745,-4,22,5
3361,-110,91,757,-14,58,55
3362,-284,-80,506,220,147,29
3363,-137,-280,539,64,-93,12
3364,119,4,550,-454,-164,53
3365,221,59,296,518,105,-10
3366,178,-193,452,-395,7,-30
3367,90,92,355,-29,-5,43
3368,-186,61,312,324,20,-2
3369,-254,-10,307,-428,-16,5
3370,-151,15,356,228,62,7
3371,21,-58,317,-76,-39,-21
3372,198,-95,342,-149,-81,-17
3373,193,-23,451,213,8,-10
3374,31,-13,463,-181,40,2
3375,-114,13,511,45,57,2
3376,-223,-7,497,26,10,3
3377,-143,-2,488,-136,-37,-5
3378,22,-23,598,96,-3,-15
3379,137,-28,642,-79,-27,-14
3380,177,-22,710,-20,-16,-10
3381,56,-9,732,51,19,-2
3382,-104,-12,785,-85,34,6
3383,-176,-20,855,29,39,-2
3384,-150,-25,928,-20,-5,-2
3385,0,-23,959,-43,-42,-11
3386,120,-21,957,31,-26,-15
3387,159,-3,944,-44,-6,-8
3388,64,1,970,-4,21,-4
3389,-69,-21,981,-6,26,1
3390,-166,-20,961,-43,17,3
3391,-140,-32,991,3,3,-6
3392,-34,-42,987,-20,-22,-11
3393,99,-18,1000,-10,-29,-12
3394,158,0,1009,5,-12,-11
3395,73,5,1011,-25,14,-3
3396,-38,-1,997,-13,31,-1
3397,-155,-20,971,-20,23,0
3398,-149,-36,988,-23,1,-4
3399,-60,-50,995,-7,-18,-10
3400,83,-26,1010,-14,-28,-14
3401,146,-6,1010,-8,-13,-11
3402,102,5,1010,-6,12,-5
3403,-18,9,1003,-20,26,1
3404,-136,-2,985,-19,27,2
3405,-155,-39,988,-20,6,-3
3406,-86,-50,985,-18,-17,-8
3407,68,-31,1008,-6,-29,-13
3408,136,-20,1012,-10,-16,-14
3409,115,4,1014,-7,6,-6
3410,7,9,995,-14,26,-1
3411,-125,4,987,-21,27,2
3412,-157,-29,986,-21,7,-2
3413,-104,-39,981,-20,-15,-8
3414,44,-37,1005,-12,-28,-13
3415,125,-32,1012,-9,-17,-14
3416,132,-3,1011,-10,3,-8
3417,31,12,1000,-11,23,-3
3418,-107,1,996,-19,28,3
3419,-164,-18,978,-19,13,-2
3420,-118,-30,984,-18,-8,-6
3421,14,-41,1006,-13,-27,-12
3422,114,-40,1008,-11,-22,-12
3423,145,-8,1004,-8,-3,-8
3424,48,6,1005,-13,21,-2
3425,-86,0,1004,-16,30,1
3426,-159,-9,970,-20,16,1
3427,-133,-26,987,-19,-5,-5
3428,-9,-42,1004,-14,-24,-12
3429,107,-35,1011,-11,-23,-12
3430,150,-10,1001,-9,-7,-8
3431,65,-2,1006,-11,16,-3
3432,-57,-3,1001,-16,28,1
3433,-160,-6,971,-19,21,2
3434,-140,-26,1000,-18,-2,-3
3435,-44,-39,997,-15,-22,-11
3436,95,-26,1001,-10,-25,-13
3437,152,-15,1011,-9,-11,-11
3438,83,-6,1008,-13,14,-3
3439,-30,-4,996,-16,27,0
3440,-149,-3,977,-19,24,3
3441,-150,-26,990,-19,1,-3
3442,-65,-36,995,-17,-19,-10
3443,80,-28,1009,-12,-28,-13
3444,148,-17,1010,-8,-14,-12
3445,104,-10,1001,-10,10,-5
3446,-10,0,995,-13,25,-1
3447,-136,0,990,-19,26,2
3448,-157,-30,986,-19,6,-3
3449,-90,-35,985,-15,-17,-9
3450,66,-26,1009,-11,-28,-14
3451,133,-25,1015,-10,-17,-12
3452,121,-7,1006,-11,6,-6
3453,7,1,997,-14,25,-1
3454,-117,-3,989,-18,26,2
3455,-166,-28,987,-17,10,0
3456,-104,-26,985,-18,-12,-7
3457,44,-38,1006,-13,-27,-12
3458,123,-29,1007,-10,-19,-12
3459,135,-4,1004,-9,1,-7
3460,30,6,1005,-13,24,-3
3461,-105,-4,999,-18,30,2
3462,-160,-22,975,-19,14,-2
3463,-120,-28,986,-17,-9,-5
3464,13,-37,1004,-14,-28,-11
3465,114,-33,1009,-11,-21,-13
3466,147,-5,1002,-11,-2,-9
3467,51,2,1005,-13,20,-2
3468,-81,-3,1005,-17,28,3
3469,-160,-14,968,-21,17,1
3470,-133,-28,996,-19,-5,-5
3471,-14,-41,1003,-14,-23,-11
3472,104,-32,1003,-10,-24,-13
3473,154,-11,1005,-9,-9,-10
3474,65,1,1009,-12,16,-2
3475,-50,-1,999,-17,29,1
3476,-157,-9,971,-20,23,1
3477,-144,-25,997,-17,-2,-4
3478,-49,-41,995,-16,-22,-10
3479,95,-29,1006,-11,-27,-14
3480,149,-18,1005,-10,-10,-10
3481,89,-2,1006,-11,12,-3
3482,-25,0,999,-15,27,1
3483,-150,-1,978,-18,25,2
3484,-151,-25,991,-20,2,-4
3485,-75,-42,992,-16,-19,-9
3486,75,-30,1008,-12,-28,-12
3487,148,-24,1011,-9,-16,-13
3488,107,-9,1003,-9,8,-5
3489,-1,1,999,-14,26,-1
3490,-131,0,990,-18,26,3
3491,-158,-23,989,-19,7,-2
3492,-95,-34,980,-19,-14,-7
3493,54,-33,1009,-12,-27,-14
3494,131,-27,1009,-11,-18,-14
3495,127,-9,1010,-11,5,-7
3496,22,5,996,-12,22,-1
3497,-115,-1,995,-20,29,4
3498,-164,-18,984,-20,13,-2
3499,-109,-27,985,-18,-10,-7
3500,28,-36,1005,-13,-26,-12
3501,118,-30,1006,-8,-21,-14
3502,140,-9,1005,-7,-1,-9
3503,40,2,1006,-14,22,-3
3504,-93,-3,1006,-17,29,4
3505,-162,-15,971,-19,14,0
3506,-126,-26,986,-18,-7,-5
3507,-1,-39,1009,-15,-26,-12
3508,107,-36,1006,-10,-22,-13
3509,148,-6,1006,-8,-5,-10
3510,55,2,1005,-12,18,-2
3511,-64,-1,1000,-16,27,0
3512,-159,-14,973,-20,18,-1
3513,-137,-23,997,-20,-3,-5
3514,-31,-41,998,-16,-22,-10
3515,101,-28,1002,-11,-25,-14
3516,153,-15,1008,-10,-9,-11
3517,78,-4,1010,-12,16,-4
3518,-41,0,997,-16,28,1
3519,-153,-3,975,-19,22,1
3520,-150,-26,993,-18,1,-5
3521,-61,-40,996,-16,-21,-9
3522,88,-31,1008,-11,-27,-15
3523,144,-19,1006,-10,-13,-12
3524,99,-2,1001,-10,12,-5
3525,-18,1,1002,-14,24,-1
3526,-139,2,982,-20,25,3
3527,-154,-28,991,-18,6,-4
3528,-84,-39,985,-16,-17,-10
3529,69,-30,1007,-12,-28,-12
3530,137,-25,1013,-10,-16,-11
3531,115,-5,1009,-10,7,-6
3532,12,6,994,-15,25,-1
3533,-129,0,989,-18,28,3
3534,-159,-25,987,-19,7,-2
3535,-73,0,965,-21,-15,-9
3536,45,-45,1011,-12,-24,-9
3537,83,-65,1002,-20,-18,-13
3538,108,-18,932,-8,-6,-9
3539,61,24,916,-10,14,-5
3540,-102,12,918,-24,33,5
3541,-153,-25,798,-25,13,-4
3542,-132,-58,665,-14,-10,-4
3543,13,-38,751,-14,-29,-12
3544,107,-37,804,-8,-18,-12
3545,154,3,962,-8,-2,-7
3546,139,135,959,5,24,-17
3547,-182,-17,890,-109,45,-5
3548,-244,-81,525,16,3,-23
3549,-164,-18,454,-93,-13,4
3550,119,10,564,48,-37,-20
3551,115,-44,728,104,21,-36
3552,165,-32,926,18,-1,4
3553,-10,18,699,61,12,33
3554,-114,-4,601,-52,33,9
3555,-185,-51,492,-65,1,8
3556,-107,-98,623,-12,-21,2
3557,21,-22,719,-38,-53,-7
3558,273,100,918,-1,-14,7
3559,-110,50,757,-72,57,42
3560,-68,-34,659,228,8,12
3561,24,119,698,-372,-44,35
3562,-201,-53,571,169,31,18
3563,-28,-44,500,-74,-16,4
3564,-70,-59,504,-242,-30,13
3565,89,-77,668,271,-2,-24
3566,120,-37,691,-238,-41,4
3567,165,49,564,152,69,-8
3568,-210,-38,730,-58,88,0
3569,-179,27,772,-229,-23,-9
3570,-210,-50,568,232,19,7
3571,-62,-40,429,-283,-43,-11
3572,125,-46,398,113,-2,-30
3573,129,-82,532,37,-20,-8
3574,96,16,591,-85,-11,-12
3575,182,33,527,47,72,5
3576,-311,52,535,-373,55,-29
3577,-207,-126,729,314,61,3
3578,-114,19,786,-160,-87,42
3579,30,-106,717,-256,-49,11
3580,208,-49,781,369,23,-21
3581,240,-37,629,-269,-36,22
3582,-27,19,948,25,14,-3
3583,-192,8,873,151,40,5
3584,-221,0,871,-263,11,6
3585,-10,21,952,7,-19,-1
3586,-4,-244,915,-234,-112,126
3587,-95,-183,643,-224,-120,-11
3588,10,-169,517,38,1,59
3589,133,111,251,-175,-36,54
3590,-81,-32,237,-276,-53,46
3591,-50,205,849,-100,-21,57
3592,-177,63,797,-111,4,42
3593,-131,-118,763,-56,-11,-13
3594,206,46,780,-63,-73,24
3595,79,-22,853,67,57,1
3596,-108,-259,724,-54,72,-19
3597,7,-90,569,54,48,39
3598,-156,158,347,19,5,27
3599,-161,-238,476,-86,-105,-78
3600,32,38,647,61,20,25
3601,197,157,585,45,65,63
3602,-96,1,395,-60,-36,-17
3603,1,-194,394,-70,-130,28
3604,-91,83,547,53,16,55
3605,-208,-111,358,-43,154,-60
3606,-82,-178,680,-65,-54,-4
3607,114,192,713,157,-157,39
3608,53,100,625,50,92,15
3609,-97,-130,697,14,149,-42
3610,-42,-65,465,201,41,41
3611,-52,121,498,-42,-126,25
3612,-12,-266,619,-15,3,-73
3613,164,51,685,12,37,20
3614,-159,123,351,-43,-2,69
3615,-210,-37,252,-178,-59,-77
3616,-20,-198,508,44,-66,27
3617,109,233,425,-61,10,18
3618,-79,-195,389,34,77,-71
3619,130,1,309,-5,-43,21
3620,-2,47,283,-24,-43,10
3621,-114,-35,173,29,32,-25
3622,-12,31,403,-54,34,9
3623,-32,-55,331,-1,8,-12
3624,58,-33,257,-6,-33,-9
3625,80,-16,412,-20,-10,-6
3626,-20,-17,408,17,46,-4
3627,-83,-15,485,-37,24,6
3628,-120,7,544,-8,-13,-5
3629,-38,-55,465,-12,-24,-14
3630,42,-19,498,-27,0,-6
3631,100,-1,546,14,5,-10
3632,94,-11,540,-19,-5,-12
3633,-19,-7,636,-21,6,3
3634,-143,15,695,-7,23,1
3635,-111,-36,778,-30,14,-9
3636,-66,-51,898,-11,-8,-6
3637,59,-28,977,-8,-29,-11
3638,152,-28,963,-13,-16,-17
3639,80,-1,908,-4,15,-3
3640,-32,22,922,-22,21,0
3641,-126,-3,942,-18,17,-3
3642,-146,-29,934,-20,4,1
3643,-75,-41,942,-22,-12,-7
3644,74,-49,994,-11,-22,-15
3645,136,-26,973,-4,-15,-10
3646,95,1,1000,-4,6,-4
3647,-6,14,1013,-11,23,-3
3648,-126,7,983,-23,28,3
3649,-154,-21,988,-19,8,-4
3650,-88,-42,989,-17,-15,-9
3651,60,-40,998,-14,-27,-13
3652,126,-32,1006,-6,-15,-11
3653,112,-7,1023,-12,3,-7
3654,17,10,997,-10,22,-2
3655,-117,5,993,-16,28,3
3656,-158,-17,993,-20,10,-1
3657,-100,-33,986,-20,-11,-8
3658,33,-40,998,-16,-27,-11
3659,114,-35,1007,-11,-21,-13
3660,133,-7,1009,-6,0,-10
3661,29,8,1006,-13,22,-2
3662,-98,0,1005,-17,29,2
3663,-156,-15,980,-19,16,-2
3664,-113,-25,980,-17,-7,-6
3665,6,-43,1002,-13,-25,-11
3666,110,-35,1009,-10,-23,-13
3667,143,-8,1003,-11,-5,-9
3668,49,3,1003,-12,19,-3
3669,-73,1,1005,-15,28,1
3670,-154,-11,972,-21,17,0
3671,-131,-25,993,-18,-4,-6
3672,-20,-43,997,-15,-24,-11
3673,97,-34,1002,-9,-25,-13
3674,145,-13,1009,-7,-10,-10
3675,69,-2,1008,-10,16,-5
3676,-46,0,1002,-15,28,0
3677,-151,0,973,-18,22,2
3678,-142,-26,990,-18,-1,-4
3679,-51,-40,997,-16,-22,-10
3680,87,-33,1006,-14,-26,-13
3681,141,-19,1010,-9,-11,-11
3682,91,-6,1003,-10,11,-5
3683,-23,3,1001,-15,26,1
3684,-137,0,978,-18,23,3
3685,-152,-27,992,-18,3,-4
3686,-77,-38,983,-17,-18,-8
3687,69,-30,1011,-12,-28,-13
3688,137,-23,1014,-9,-16,-13
3689,110,-8,1009,-11,10,-6
3690,6,4,993,-14,28,-1
3691,-131,-2,989,-17,28,2
3692,-153,-23,987,-19,7,-3
3693,-102,-33,981,-17,-13,-7
3694,50,-31,1009,-13,-28,-13
3695,124,-32,1012,-11,-19,-13
3696,126,-3,1009,-8,3,-6
3697,25,5,999,-11,22,-2
3698,-108,-4,999,-18,28,2
3699,-160,-21,975,-19,13,-1
3700,-114,-25,988,-18,-10,-5
3701,18,-36,1008,-14,-27,-11
3702,113,-32,1009,-9,-21,-13
3703,142,-6,1002,-10,-3,-8
3704,46,0,1005,-12,21,-4
3705,-80,-4,1003,-15,28,1
3706,-164,-14,964,-20,15,1
3707,-128,-20,994,-17,-7,-6
3708,-14,-41,1004,-14,-25,-13
3709,108,-27,1005,-11,-24,-14
3710,155,-14,1002,-11,-6,-10
3711,62,0,1009,-11,17,-3
3712,-58,-4,991,-30,21,3
3713,-162,-6,978,-19,20,1
3714,-140,-22,996,-19,-2,-4
3715,-42,-38,997,-13,-22,-10
3716,97,-31,1005,-11,-25,-11
3717,151,-19,1007,-10,-10,-11
3718,83,-4,1009,-11,16,-4
3719,-31,-1,997,-17,27,0
3720,-152,-1,980,-17,24,3
3721,-145,-24,991,-19,2,-4
3722,-73,-38,993,-17,-18,-9
3723,84,-27,1012,-12,-26,-12
3724,144,-24,1006,-11,-12,-10
3725,102,-7,1002,-10,10,-4
3726,-7,2,998,-14,24,0
3727,-136,-2,990,-19,26,3
3728,-153,-26,987,-19,6,-1
3729,-92,-33,983,-18,-16,-8
3730,63,-28,1007,-12,-28,-13
3731,134,-27,1012,-9,-18,-12
3732,120,-10,1011,-11,6,-6
3733,12,5,994,-12,25,-1
3734,-120,-2,993,-17,26,2
3735,-162,-22,984,-19,9,-3
3736,-104,-31,986,-18,-13,-9
3737,40,-30,1007,-13,-27,-12
3738,121,-31,1005,-11,-20,-13
3739,137,-4,1004,-8,0,-7
3740,36,0,1002,-13,22,-1
3741,-101,-3,1006,-16,28,1
3742,-163,-20,972,-19,13,-1
3743,-120,-28,984,-17,-8,-5
3744,7,-36,1009,-13,-28,-12
3745,111,-33,1007,-11,-22,-14
3746,149,-10,1002,-9,-4,-9
3747,52,1,1007,-12,20,-2
3748,-75,-3,1001,-18,28,1
3749,-158,-13,971,-20,18,1
3750,-136,-25,999,-16,-4,-5
3751,-22,-40,999,-15,-24,-12
3752,105,-30,1003,-9,-25,-13
3753,153,-13,1006,-8,-9,-10
3754,69,-1,1007,-13,17,-3
3755,-47,-4,1001,-17,28,1
3756,-155,-4,971,-19,22,2
3757,-143,-25,993,-18,-1,-3
3758,-53,-39,999,-16,-22,-10
3759,89,-29,1004,-11,-27,-13
3760,150,-16,1009,-8,-12,-11
3761,92,-4,1003,-10,13,-4
3762,-22,1,1002,-13,27,0
3763,-143,1,979,-20,25,3
3764,-153,-30,992,-18,4,-4
3765,-81,-37,985,-16,-16,-10
3766,70,-27,1010,-11,-29,-13
3767,140,-25,1009,-9,-15,-12
3768,109,-9,1012,-12,8,-5
3769,3,3,994,-15,26,0
3770,-131,-1,991,-18,28,3
3771,-155,-23,989,-21,8,-3
3772,-101,-36,981,-18,-14,-7
3773,50,-33,1007,-12,-28,-13
3774,126,-30,1014,-11,-17,-12
3775,131,-7,1009,-8,4,-6
3776,21,7,999,-13,24,-2
3777,-113,-2,999,-17,28,2
3778,-163,-21,976,-19,13,0
3779,-114,-33,988,-16,-10,-7
3780,23,-33,1004,-12,-28,-13
3781,115,-32,1006,-8,-21,-12
3782,142,-5,1003,-9,-2,-8
3783,43,6,1008,-13,22,-2
3784,-89,-4,1004,-16,29,2
3785,-164,-14,973,-19,17,1
3786,-110,6,973,-22,-6,-8
3787,-4,-46,999,-12,-20,-6
3788,85,-71,988,-35,-33,-11
3789,148,3,902,-9,-7,-9
3790,51,-5,923,-26,6,-2
3791,-52,3,959,-10,27,0
3792,-154,1,953,-21,32,2
3793,-137,-26,991,-19,1,-4
3794,-41,-40,971,-11,-25,-12
3795,87,-34,942,-16,-30,-15
3796,142,-18,978,-4,-8,-13
3797,81,-18,1011,-16,19,-4
3798,-27,-19,989,-11,27,3
3799,-133,-4,981,-9,16,-1
3800,-136,-4,999,-22,0,-4
3801,60,68,909,-38,-21,-3
3802,-56,-14,709,108,38,8
3803,77,-89,575,-72,-40,-12
3804,154,34,602,-29,-43,-5
3805,29,81,691,117,22,-45
3806,-90,125,863,-34,74,-1
3807,-108,29,889,4,29,-33
3808,-141,-60,807,100,-2,-22
3809,-44,-42,895,-75,-53,-17
3810,80,-71,972,26,-8,-14
3811,143,-47,1028,23,20,-6
3812,233,14,969,-124,-27,-51
3813,-184,122,807,67,50,-81
3814,-309,-102,788,-22,77,-105
3815,-154,42,743,4,8,-19
3816,-59,12,566,-85,-33,-15
3817,146,-67,532,-98,-31,0
3818,110,18,684,6,-40,-7
3819,-18,-45,647,-127,-1,2
3820,-150,12,829,83,63,6
3821,57,136,766,-43,52,8
3822,-276,-136,719,-84,-17,-7
3823,-120,21,545,9,-53,-21
3824,51,-10,359,-103,-7,-3
3825,222,-146,377,18,2,-23
3826,89,-76,579,18,-4,-15
3827,-52,-60,620,-41,-32,11
3828,-172,36,829,57,67,-3
3829,-54,95,626,-24,127,-14
3830,-196,-176,725,-151,-13,-28
3831,-11,-145,406,263,-58,-48
3832,87,-20,423,-257,-97,51
3833,91,-137,419,132,79,-33
3834,-5,-70,552,-59,68,5
3835,-45,-46,873,22,-5,-6
3836,-91,-8,972,35,-61,-11
3837,-84,24,897,-68,7,-2
3838,213,-121,837,112,47,14
3839,-33,-172,589,53,74,-70
3840,-117,-303,587,66,-17,-75
3841,-53,-110,318,77,-12,2
3842,97,-98,152,-116,4,-7
3843,-55,-118,329,-54,17,42
3844,42,161,589,20,-48,-4
3845,-83,3,940,-41,-53,3
3846,-23,-7,866,11,46,1
3847,3,-76,637,-66,11,3
3848,3,-74,684,-1,-62,-6
3849,-33,-159,939,-48,-36,1
3850,139,100,1112,4,24,17
3851,-105,-96,899,-56,-63,80
3852,-175,-131,756,-59,22,-94
3853,2,-43,694,-179,-59,34
3854,45,17,386,58,32,-11
3855,-17,-235,503,-158,-15,-22
3856,59,-25,765,127,-1,-5
3857,110,58,784,-36,-39,37
3858,-218,141,738,-48,14,6
3859,-132,-239,723,12,36,-46
3860,-43,-79,655,-96,-12,48
3861,31,99,708,71,-12,-53
3862,-6,-231,546,-45,-56,-14
3863,123,80,586,-86,-17,9
3864,98,-51,536,87,49,22
3865,-173,202,686,-103,64,57
3866,-305,-285,765,-67,-19,-31
3867,-104,24,571,-2,-64,71
3868,5,81,630,-150,-38,-33
3869,-3,-173,544,79,3,-46
3870,258,181,553,-54,-25,37
3871,-16,146,475,-6,51,60
3872,-229,-114,420,86,27,-91
3873,-157,-230,514,-66,5,10
3874,-148,65,484,84,17,27
3875,101,-106,334,59,-6,-64
3876,278,-255,288,-114,-103,2
3877,113,-23,432,71,22,1
3878,-141,-42,658,-10,101,-10
3879,-129,106,788,-63,0,11
3880,-169,-67,520,19,-34,-2
3881,-16,-12,447,-20,-32,-17
3882,151,-68,507,-30,9,-8
3883,140,-17,569,8,14,-16
3884,67,-32,734,-31,-15,3
3885,-102,38,779,7,5,-1
3886,-166,-32,631,-23,38,-1
3887,-147,-6,675,-39,20,-1
3888,13,-30,856,-5,-34,-13
3889,148,-35,960,-15,-45,-19
3890,137,-11,966,-6,2,-6
3891,33,19,914,-7,32,-4
3892,-92,-18,846,-35,23,-1
3893,-173,-31,884,-10,8,3
3894,-132,-24,965,-17,-5,-4
3895,33,-39,1008,-17,-16,-15
3896,116,-27,983,-8,-22,-11
3897,138,10,1003,-13,-15,-9
3898,50,9,1008,-11,16,-6
3899,-101,-1,991,-20,35,5
3900,-163,-20,979,-28,20,1
3901,-122,-47,991,-12,-9,-7
3902,9,-45,988,-12,-26,-10
3903,108,-25,1009,-9,-18,-12
3904,146,0,1021,-5,-2,-11
3905,48,10,1003,-17,16,-2
3906,-81,5,1003,-14,26,3
3907,-160,-15,985,-20,19,1
3908,-124,-37,985,-18,-1,-5
3909,-14,-53,998,-13,-25,-11
3910,102,-34,1012,-11,-28,-13
3911,153,-5,1001,-6,-9,-11
3912,60,9,1005,-11,18,-3
3913,-56,5,1005,-16,28,1
3914,-154,-8,973,-20,20,1
3915,-137,-31,990,-21,0,-3
3916,-42,-50,999,-17,-21,-10
3917,93,-38,1001,-9,-27,-14
3918,146,-18,1004,-7,-12,-10
3919,86,1,1012,-9,12,-3
3920,-31,5,1003,-15,28,1
3921,-147,3,977,-20,24,2
3922,-148,-27,990,-20,2,-4
3923,-72,-45,994,-16,-20,-10
3924,81,-38,1008,-12,-27,-13
3925,142,-24,1009,-10,-13,-12
3926,105,-6,1007,-8,10,-5
3927,-6,5,1001,-13,26,-1
3928,-132,4,990,-20,27,2
3929,-156,-22,990,-19,7,-3
3930,-91,-33,982,-18,-16,-9
3931,59,-34,1007,-11,-30,-14
3932,130,-30,1011,-10,-17,-13
3933,121,-10,1014,-10,5,-7
3934,14,6,996,-12,25,-1
3935,-114,0,988,-17,27,3
3936,-161,-21,985,-19,8,-1
3937,-109,-27,985,-19,-12,-7
3938,36,-36,1002,-15,-27,-12
3939,121,-32,1008,-9,-20,-12
3940,135,-5,1004,-7,-2,-8
3941,37,3,1007,-13,22,-2
3942,-97,-6,1003,-17,30,2
3943,-164,-15,970,-17,16,0
3944,-119,-25,986,-17,-8,-6
3945,3,-40,1006,-13,-26,-13
3946,108,-32,1007,-11,-23,-13
3947,149,-13,1006,-10,-3,-10
3948,53,3,1001,-12,20,-2
3949,-72,-1,1002,-16,28,2
3950,-159,-12,974,-20,16,-1
3951,-137,-26,994,-19,-5,-4
3952,-25,-41,998,-15,-23,-11
3953,101,-35,1007,-11,-26,-13
3954,155,-14,1004,-7,-9,-10
3955,71,-1,1009,-11,17,-3
3956,-45,-3,1000,-15,27,1
3957,-154,-5,974,-18,22,1
3958,-145,-23,992,-20,0,-3
3959,-55,-40,1000,-15,-22,-10
3960,89,-28,1007,-11,-27,-13
3961,147,-22,1006,-10,-11,-10
3962,96,-5,1006,-11,11,-4
3963,-24,-1,997,-14,26,1
3964,-139,-3,979,-19,23,2
3965,-154,-30,993,-19,4,-3
3966,-80,-36,987,-16,-17,-10
3967,69,-31,1010,-13,-28,-13
3968,142,-21,1013,-10,-17,-12
3969,112,-12,1007,-12,7,-6
3970,5,3,997,-14,26,-3
3971,-126,-1,987,-18,25,1
3972,-157,-26,992,-18,8,-3
3973,-99,-29,980,-17,-13,-8
3974,51,-29,1008,-12,-27,-13
3975,127,-29,1013,-10,-17,-11
3976,128,-8,1006,-11,2,-7
3977,23,4,998,-13,22,-2
3978,-110,-4,999,-17,28,1
3979,-162,-21,977,-20,13,-2
3980,-112,-26,989,-19,-10,-6
3981,23,-38,1006,-15,-27,-12
3982,115,-31,1005,-11,-22,-13
3983,144,-7,1004,-10,-2,-7
3984,41,2,1006,-15,22,-1
3985,-89,-6,1002,-17,29,2
3986,-164,-15,973,-19,16,0
3987,-126,-21,988,-18,-7,-5
3988,-5,-39,1004,-14,-26,-12
3989,107,-32,1006,-9,-23,-13
3990,153,-10,1003,-10,-6,-10
3991,59,-1,1006,-12,18,-3
3992,-62,-5,1000,-16,27,0
3993,-159,-4,973,-20,21,0
3994,-140,-25,998,-17,-2,-4
3995,-35,-40,996,-17,-24,-11
3996,99,-31,1002,-10,-26,-13
3997,151,-15,1009,-10,-11,-11
3998,79,-6,1006,-13,15,-4
3999,-37,-1,999,-13,28,0
4000,-149,-1,972,-18,23,3
4001,-148,-24,995,-18,2,-4
4002,-64,-37,994,-17,-20,-10
4003,83,-27,1011,-13,-27,-12
4004,145,-21,1005,-10,-12,-11
4005,100,-9,1005,-10,11,-5
4006,-14,2,997,-13,25,-1
4007,-135,0,989,-19,25,2
4008,-154,-27,989,-21,6,-2
4009,-92,-32,981,-16,-15,-8
4010,65,-27,1009,-13,-28,-14
4011,132,-27,1013,-11,-16,-11
4012,120,-8,1006,-11,6,-5
4013,11,2,996,-14,25,-2
4014,-122,-1,989,-17,27,2
4015,-159,-21,987,-19,9,-2
4016,-105,-26,988,-17,-12,-7
4017,42,-34,1004,-13,-27,-13
4018,123,-31,1006,-10,-19,-12
4019,135,-6,1006,-9,0,-7
4020,35,3,1005,-14,22,-1
4021,-101,-4,1003,-19,28,3
4022,-162,-17,973,-19,15,-1
4023,-118,-26,987,-18,-9,-5
4024,10,-36,1004,-15,-28,-12
4025,112,-31,1010,-11,-23,-12
4026,144,-7,1005,-10,-2,-10
4027,50,0,1001,-13,21,-2
4028,-74,-3,1004,-18,27,3
4029,-162,-9,974,-21,17,1
4030,-132,-26,994,-19,-6,-5
4031,-22,-39,1001,-14,-23,-10
4032,103,-30,1002,-11,-25,-13
4033,154,-14,1010,-9,-9,-10
4034,66,1,1004,-12,17,-2
4035,-49,0,1003,-17,29,1
4036,-156,-9,973,-21,22,2
4037,-125,-5,1002,-19,-1,-3
4038,-48,-46,940,-44,-10,1
4039,55,-42,953,3,-42,-10
4040,151,-13,946,23,3,-8
4041,98,-9,875,-56,2,-10
4042,-13,-13,925,-20,24,4
4043,-144,20,844,14,14,-2
4044,-159,-25,927,-39,14,-2
4045,-91,-31,881,-18,0,-11
4046,66,-36,934,1,-28,-14
4047,139,-28,984,-9,-26,-13
4048,116,-15,1007,-12,10,-7
4049,4,5,1005,-10,36,-2
4050,-120,1,995,-25,29,3
4051,-152,-18,982,-13,2,-3
4052,-109,-32,983,-15,-15,-6
4053,28,-40,1010,-19,-21,-15
4054,107,-64,1013,-8,-19,-11
4055,139,-11,1010,-3,-6,-5
4056,79,42,1011,-12,18,-5
4057,53,69,825,-22,19,45
4058,-298,28,610,192,88,42
4059,-224,-71,446,-48,-10,18
4060,94,11,462,-53,-97,-30
4061,24,-12,637,247,8,-74
4062,93,-9,415,-142,-7,1
4063,-6,1,573,36,71,6
4064,-138,-34,663,159,41,4
4065,-207,-38,823,-210,-46,11
4066,-35,23,646,67,-9,-26
4067,-134,13,591,293,33,-78
4068,30,-121,571,-361,-22,-104
4069,111,5,637,513,45,-74
4070,-32,58,566,-23,-17,-31
4071,-60,3,511,-75,46,-11
4072,-142,-28,394,412,83,2
4073,-98,-11,389,-350,-37,3
4074,122,46,277,222,-35,3
4075,-248,3,626,32,28,-15
4076,53,8,335,-231,-15,-18
4077,-7,-8,71,201,1,24
4078,-45,-35,316,-55,-13,-18
4079,-68,13,271,-92,15,19
4080,-74,-15,385,150,30,-3
4081,44,11,422,-339,-43,-17
4082,-148,137,906,-500,-126,56
4083,-90,-171,751,-199,-115,-166
4084,62,53,910,-93,41,13
4085,17,32,688,246,-4,-26
4086,-75,-159,517,-399,-19,-24
4087,43,-26,521,159,-50,-6
4088,-124,-66,328,-68,-18,-24
4089,-58,-125,502,-36,37,-21
4090,-4,-60,683,152,3,-13
4091,113,-11,877,-176,-33,-15
4092,254,35,816,-173,-59,63
4093,-193,-70,584,-122,-57,71
4094,-356,-247,665,-105,27,-6
4095,-15,78,456,110,-71,60
4096,4,-6,325,-208,-29,-20
4097,156,-160,448,-90,-34,-27
4098,120,0,583,138,12,31
4099,0,-12,573,-117,1,-13
4100,41,12,857,21,18,16
4101,-115,-143,703,24,27,47
4102,-342,-185,608,24,90,-29
4103,-46,-117,614,-28,-65,15
4104,91,106,718,19,-28,24
4105,79,-226,549,-30,-3,-75
4106,148,40,711,45,11,19
4107,117,262,557,-63,4,63
4108,-296,1,580,-209,18,4
4109,-237,-181,647,-187,0,-10
4110,-177,-34,523,7,-61,66
4111,46,18,480,-157,-67,-63
4112,262,-186,690,4,-43,-23
4113,360,260,631,87,-6,67
4114,-198,19,518,-65,104,-18
4115,-322,-193,581,-88,39,-31
4116,-265,81,700,22,-27,81
4117,-109,-70,413,-86,-21,-64
4118,129,-283,557,-8,-38,-29
4119,324,72,245,-103,-111,55
4120,153,-83,260,-152,11,-52
4121,-160,-210,355,41,16,1
4122,-184,184,587,27,38,79
4123,-233,-182,356,-62,59,-82
4124,-11,-152,256,110,-60,1
4125,244,140,238,-27,-70,9
4126,172,-90,173,-1,25,-43
4127,190,48,243,32,22,6
4128,-90,28,221,-83,27,8
4129,-222,-30,228,26,39,-7
4130,-201,-61,338,-51,1,8
4131,-89,-29,248,-19,-21,-16
4132,124,-77,351,7,-32,-21
4133,179,15,405,-32,-28,-9
4134,120,13,403,18,10,-9
4135,22,-3,377,-8,38,-5
4136,-183,2,465,-34,35,10
4137,-189,-27,509,-5,12,-5
4138,-80,-66,499,-30,-16,-11
4139,33,-32,517,1,-28,-8
4140,152,-21,564,-11,-24,-16
4141,157,-10,667,-17,1,-10
4142,9,25,764,-7,27,6
4143,-102,5,826,-18,30,0
4144,-168,-31,800,-24,17,-2
4145,-130,-26,847,-16,-9,-2
4146,14,-44,909,-14,-28,-14
4147,120,-38,956,-11,-25,-14
4148,152,-5,964,-7,-4,-7
4149,50,8,994,-13,22,-2
4150,-68,-3,978,-11,31,1
4151,-164,-5,935,-23,20,2
4152,-139,-31,995,-21,-5,-7
4153,-30,-46,1000,-14,-24,-12
4154,104,-31,997,-9,-24,-14
4155,150,-14,1008,-8,-9,-12
4156,81,-1,1015,-12,13,-4
4157,-39,0,991,-14,26,1
4158,-156,2,972,-18,25,2
4159,-147,-25,995,-21,0,-5
4160,-65,-40,987,-13,-20,-9
4161,85,-31,1007,-14,-27,-12
4162,143,-22,1010,-8,-13,-12
4163,100,-7,1005,-8,12,-4
4164,-13,1,999,-15,26,1
4165,-138,0,993,-16,26,3
4166,-152,-26,991,-22,5,-3
4167,-90,-36,979,-17,-16,-8
4168,67,-27,1008,-11,-28,-12
4169,131,-27,1017,-10,-17,-12
4170,121,-6,1007,-11,5,-5
4171,11,1,999,-15,24,-1
4172,-119,0,991,-18,28,2
4173,-162,-24,984,-19,9,-2
4174,-104,-31,985,-19,-13,-8
4175,41,-33,1006,-14,-27,-13
4176,123,-29,1008,-10,-19,-13
4177,134,-8,1004,-10,0,-7
4178,32,4,1006,-12,22,-1
4179,-101,-8,1000,-19,29,4
4180,-163,-18,974,-19,15,0
4181,-118,-29,983,-17,-9,-5
4182,10,-34,1007,-13,-27,-12
4183,112,-29,1007,-10,-22,-12
4184,150,-6,1006,-9,-3,-8
4185,49,1,1007,-12,21,-2
4186,-78,-2,1001,-15,28,2
4187,-157,-16,973,-21,17,1
4188,-129,-27,991,-18,-4,-4
4189,-23,-40,1002,-15,-23,-10
4190,105,-27,1005,-11,-24,-14
4191,149,-12,1009,-10,-8,-10
4192,70,2,1003,-13,15,-2
4193,-49,-3,1003,-16,27,0
4194,-153,-6,970,-20,21,1
4195,-145,-27,993,-19,-1,-4
4196,-52,-44,998,-16,-21,-11
4197,90,-30,1007,-11,-26,-12
4198,148,-17,1002,-9,-10,-11
4199,88,-5,1008,-11,14,-4
4200,-23,1,1002,-15,26,0
4201,-147,0,976,-19,24,2
4202,-151,-27,992,-20,4,-4
4203,-79,-39,991,-17,-18,-8
4204,72,-29,1004,-13,-28,-12
4205,139,-26,1013,-9,-16,-12
4206,109,-7,1008,-8,8,-6
4207,2,2,996,-13,26,-2
4208,-127,0,990,-17,27,2
4209,-158,-27,990,-20,7,-1
4210,-98,-32,982,-16,-14,-7
4211,50,-32,1005,-12,-26,-12
4212,125,-27,1014,-11,-17,-12
4213,126,-8,1011,-11,2,-8
4214,23,6,996,-13,23,-2
4215,-111,-4,996,-18,28,3
4216,-161,-18,981,-19,12,-1
4217,-114,-27,984,-17,-9,-5
4218,23,-36,1004,-15,-27,-13
4219,116,-36,1012,-10,-21,-12
4220,144,-7,998,-8,-2,-8
4221,40,4,1007,-13,21,-2
4222,-89,-4,1002,-15,28,0
4223,-162,-16,972,-19,16,0
4224,-128,-24,987,-17,-6,-6
4225,-9,-43,1006,-14,-25,-11
4226,111,-30,1005,-11,-22,-13
4227,149,-13,1002,-9,-6,-9
4228,63,4,1006,-10,19,-3
4229,-65,-5,999,-17,28,1
4230,-160,-6,971,-19,20,1
4231,-137,-27,997,-19,-1,-3
4232,-38,-39,999,-16,-21,-10
4233,95,-30,1001,-11,-25,-12
4234,152,-13,1012,-9,-11,-11
4235,82,-7,1007,-12,15,-3
4236,-35,0,996,-14,28,0
4237,-150,-3,975,-19,23,2
4238,-147,-23,995,-18,2,-4
4239,-67,-39,994,-17,-18,-8
4240,83,-30,1008,-13,-27,-14
4241,146,-22,1010,-10,-14,-12
4242,102,-10,1000,-10,9,-5
4243,-12,0,1001,-15,26,0
4244,-133,0,989,-19,26,3
4245,-158,-23,988,-19,6,-3
4246,-90,-32,982,-18,-16,-8
4247,61,-29,1006,-12,-28,-13
4248,133,-29,1013,-10,-17,-14
4249,118,-9,1009,-9,6,-7
4250,18,4,999,-14,22,-2
4251,-120,0,987,-18,27,4
4252,-163,-21,987,-18,9,-3
4253,-108,-31,989,-17,-12,-7
4254,36,-32,1002,-14,-26,-12
4255,121,-32,1008,-11,-19,-12
4256,136,-7,1007,-9,0,-7
4257,36,3,1002,-15,23,-1
4258,-101,-5,1005,-17,30,3
4259,-163,-16,973,-18,15,0
4260,-116,-25,987,-18,-8,-6
4261,5,-37,1008,-14,-25,-12
4262,113,-32,1008,-12,-22,-13
4263,146,-9,1004,-12,-4,-8
4264,52,0,1003,-12,19,-2
4265,-72,-5,1001,-15,26,2
4266,-163,-12,973,-20,18,1
4267,-133,-25,998,-17,-3,-6
4268,-24,-38,1001,-14,-23,-11
4269,132,13,993,-16,-26,-14
4270,152,-39,1009,11,-4,-8
4271,20,-27,997,-11,22,-3
4272,-48,6,918,-32,21,-2
4273,-145,-26,840,29,27,1
4274,-135,2,966,-18,2,-5
4275,-37,-39,819,-24,-18,-11
4276,75,-27,906,7,-24,-14
4277,137,-8,976,-24,-16,-12
4278,70,-24,992,-7,12,-4
4279,-22,-32,1007,-5,25,1
4280,-124,-11,1000,-27,19,1
4281,-129,-15,986,-4,2,-4
4282,59,52,947,-19,-30,-11
4283,-56,80,932,85,16,-13
4284,26,-93,629,66,19,-19
4285,96,-28,629,-31,-30,-18
4286,115,50,757,27,-3,-57
4287,-104,143,858,-21,51,-17
4288,-146,-26,860,-56,38,-19
4289,-129,-39,656,50,5,-19
4290,-24,-54,601,-35,-49,-17
4291,102,61,706,37,-29,-10
4292,93,-17,840,-39,52,-47
4293,-88,-104,727,155,53,-38
4294,-61,45,817,-118,-10,0
4295,-135,-69,508,13,22,-25
4296,-181,-86,718,114,15,-32
4297,-53,7,741,-122,-48,-3
4298,228,-18,791,25,-23,-9
4299,6,40,600,22,19,23
4300,-46,-108,498,-10,18,-37
4301,-43,60,548,-6,14,17
4302,-139,-38,534,-42,34,4
4303,-39,-51,365,14,-36,-24
4304,288,1,287,50,-30,5
4305,-145,138,495,105,107,-12
4306,-53,-163,431,-146,-19,-8
4307,-68,-13,373,79,13,9
4308,-71,0,274,7,-5,-5
4309,-17,30,426,-43,9,-6
4310,164,-66,416,2,-8,16
4311,-80,-136,398,5,13,14
4312,-206,-249,490,-41,2,-59
4313,-146,-69,93,-3,-54,29
4314,134,45,41,-177,-62,15
4315,88,76,140,68,10,-19
4316,91,68,307,93,5,-6
4317,-177,52,441,-28,-3,37
4318,-261,-66,304,166,33,-35
4319,7,-78,220,-70,-25,4
4320,13,156,27,-68,-143,62
4321,-21,-31,335,145,84,-41
4322,-8,-277,289,-335,-40,44
4323,-123,160,582,175,16,34
4324,-189,-22,280,-236,-5,-36
4325,84,112,99,5,-43,16
4326,-13,17,318,-17,-20,111
4327,-130,-111,371,-248,-38,-25
4328,11,-188,433,-3,-31,43
4329,63,79,569,61,-30,26
4330,6,33,685,-35,26,48
4331,-139,122,616,21,57,18
4332,-220,-334,392,3,11,-16
4333,-85,-10,360,-21,-30,34
4334,97,9,588,37,-30,-11
4335,299,106,244,27,9,23
4336,68,-11,608,115,62,-5
4337,-154,-360,509,-55,50,-52
4338,-90,-66,460,8,-11,29
4339,-52,-24,498,-8,1,-17
4340,31,-131,422,-61,-34,-30
4341,143,39,388,50,-39,-2
4342,117,27,286,-37,4,-17
4343,-8,16,321,-17,27,3
4344,-105,-20,537,-18,29,1
4345,-217,-68,574,-58,20,-4
4346,-125,-54,594,18,-6,-1
4347,23,-27,747,-11,-27,-15
4348,145,-45,809,-18,-26,-15
4349,164,29,900,23,-7,-8
4350,35,27,856,-30,16,-6
4351,-80,8,717,-18,33,0
4352,-179,-11,706,-29,22,3
4353,-144,-50,744,-34,-8,-7
4354,-13,-78,818,-4,-25,-11
4355,105,-39,915,-6,-25,-10
4356,146,-8,971,-4,-12,-11
4357,92,3,985,-3,14,-5
4358,-51,27,987,-25,27,3
4359,-156,20,999,-20,25,4
4360,-143,-36,999,-28,3,-6
4361,-70,-55,956,-19,-19,-8
4362,83,-47,969,-5,-27,-12
4363,144,-36,983,-10,-14,-13
4364,102,-4,991,-4,10,-3
4365,-8,24,1006,-11,26,-1
4366,-133,12,1001,-19,26,3
4367,-158,-15,987,-21,7,-2
4368,-91,-32,985,-21,-14,-8
4369,53,-47,1008,-14,-29,-14
4370,129,-45,1003,-11,-19,-13
4371,124,-14,1004,-7,3,-6
4372,15,6,1016,-8,25,-2
4373,-107,5,1004,-17,28,2
4374,-162,-7,975,-18,12,0
4375,-111,-17,986,-18,-10,-7
4376,21,-40,1004,-17,-27,-14
4377,114,-38,1003,-10,-21,-13
4378,141,-16,1003,-10,-2,-7
4379,39,-2,1007,-10,23,-3
4380,-85,-2,999,-13,30,4
4381,-156,-3,975,-18,16,0
4382,-126,-18,993,-17,-7,-6
4383,-12,-36,996,-17,-24,-12
4384,104,-32,1008,-12,-24,-14
4385,146,-18,1009,-10,-7,-10
4386,62,-3,1010,-14,18,-3
4387,-53,-5,1001,-12,29,1
4388,-149,-7,971,-28,23,3
4389,-138,-22,994,-18,-1,-5
4390,-46,-37,996,-16,-22,-10
4391,90,-26,1010,-13,-26,-14
4392,141,-18,1011,-10,-12,-9
4393,82,-4,1004,-13,13,-3
4394,-26,-6,999,-14,26,-1
4395,-141,-6,978,-19,23,2
4396,-145,-29,987,-19,2,-4
4397,-72,-37,990,-16,-16,-8
4398,68,-28,1011,-11,-26,-13
4399,134,-18,1011,-11,-14,-13
4400,105,-6,1011,-10,8,-4
4401,0,4,995,-14,25,0
4402,-125,-2,985,-19,27,4
4403,-152,-27,991,-19,7,-2
4404,-97,-35,981,-17,-14,-8
4405,48,-31,1008,-12,-27,-12
4406,122,-25,1017,-12,-17,-12
4407,126,-3,1010,-10,5,-7
4408,23,4,998,-14,22,-2
4409,-108,-2,996,-16,26,1
4410,-155,-24,978,-19,12,-2
4411,-115,-30,986,-18,-9,-6
4412,20,-36,1007,-13,-26,-11
4413,110,-30,1009,-10,-21,-13
4414,142,-4,1004,-8,-2,-9
4415,42,1,1003,-13,22,-2
4416,-85,-3,1003,-16,27,1
4417,-159,-18,970,-20,14,0
4418,-126,-26,991,-18,-7,-5
4419,-8,-41,1006,-15,-23,-10
4420,106,-32,1008,-12,-22,-13
4421,150,-9,1002,-8,-6,-9
4422,61,0,1005,-11,17,-3
4423,-60,-6,1000,-16,27,0
4424,-156,-7,970,-19,19,1
4425,-141,-25,1000,-19,-2,-4
4426,-41,-41,999,-17,-22,-11
4427,96,-31,1001,-10,-24,-13
4428,148,-16,1007,-9,-10,-10
4429,84,-1,1008,-12,14,-4
4430,-33,-2,998,-16,27,0
4431,-150,0,976,-19,24,3
4432,-149,-25,995,-19,2,-3
4433,-71,-38,993,-17,-19,-10
4434,79,-31,1011,-13,-26,-13
4435,145,-24,1006,-9,-13,-11
4436,102,-7,1005,-9,9,-5
4437,-11,1,995,-13,25,0
4438,-135,4,989,-18,26,3
4439,-158,-22,993,-19,6,-3
4440,-92,-38,980,-18,-16,-9
4441,63,-31,1007,-11,-28,-13
4442,131,-28,1016,-10,-17,-13
4443,121,-6,1007,-10,5,-8
4444,13,4,997,-13,25,-2
4445,-121,-2,991,-17,27,3
4446,-164,-22,988,-20,10,-1
4447,-105,-29,985,-18,-11,-7
4448,38,-34,1006,-15,-27,-11
4449,123,-30,1007,-11,-19,-12
