sequence,AccelerometerX,AccelerometerY,AccelerometerZ,GyroscopeX,GyroscopeY,GyroscopeZ
0,107,-32,1011,-11,-19,-12
1,152,-10,1000,-11,-8,-9
2,56,5,1005,-11,16,-3
3,-62,-5,1000,-16,27,0
4,-161,-12,972,-21,17,1
5,-136,-28,998,-19,-5,-5
6,-33,-40,998,-12,-25,-13
7,102,-27,1000,-22,-16,-8
8,146,-15,1011,-10,-2,-6
9,76,3,1009,-15,14,-3
10,-40,-5,997,-14,27,-1
11,-154,-2,974,-18,23,2
12,-146,-28,990,-22,-1,-4
13,-59,-38,998,-14,-21,-11
14,86,-28,1008,-12,-26,-14
15,147,-15,1007,-10,-13,-12
16,97,-4,1006,-9,11,-4
17,-18,0,997,-15,27,0
18,-143,0,985,-18,25,3
19,-156,-27,989,-18,6,-3
20,-83,-37,989,-18,-17,-9
21,72,-30,1009,-12,-28,-13
22,138,-23,1008,-11,-16,-12
23,113,-7,1011,-11,8,-5
24,3,7,995,-14,26,-1
25,-129,-1,985,-21,28,3
26,-160,-26,992,-18,7,-2
27,-101,-32,978,-18,-15,-7
28,50,-31,1007,-12,-28,-13
29,127,-26,1014,-12,-18,-12
30,128,-7,1010,-9,3,-7
31,26,0,998,-13,23,0
32,-116,0,998,-16,27,4
33,-164,-19,978,-19,12,-1
34,-113,-29,988,-18,-9,-5
35,23,-31,1005,-15,-27,-11
36,119,-32,1006,-10,-21,-14
37,146,-6,1005,-8,-3,-9
38,38,4,1004,-15,22,-2
39,-88,-6,1004,-15,29,1
40,-164,-16,971,-19,15,0
41,-123,-24,984,-19,-9,-5
42,-2,-37,1008,-13,-26,-13
43,108,-30,1008,-11,-22,-13
44,151,-10,1005,-10,-4,-10
45,57,0,1006,-12,18,-3
46,-72,-2,999,-17,28,1
47,-158,-13,974,-20,20,0
48,-139,-25,996,-19,-3,-4
49,-28,-37,995,-15,-23,-12
50,104,-31,1005,-13,-26,-13
51,150,-14,1004,-9,-9,-10
52,76,0,1008,-11,17,-4
53,-41,-5,1002,-15,29,0
54,-159,-4,969,-19,22,2
55,-143,-24,995,-19,1,-4
56,-57,-39,999,-16,-21,-10
57,88,-28,1006,-10,-27,-13
58,152,-18,1006,-10,-12,-12
59,93,-5,1007,-10,11,-4
60,-18,0,996,-16,26,0
61,-147,-3,983,-20,25,3
62,-156,-27,992,-16,4,-4
63,-84,-36,986,-16,-17,-10
64,71,-28,1012,-11,-28,-14
65,146,-17,1012,-9,-16,-12
66,110,-10,1006,-11,7,-5
67,3,5,994,-15,26,-1
68,-130,-4,988,-19,28,2
69,-161,-23,988,-19,8,-2
70,-98,-34,983,-17,-15,-8
71,54,-26,1004,-11,-29,-12
72,132,-24,1013,-11,-18,-13
73,126,-8,1012,-10,4,-7
74,19,4,995,-15,23,-2
75,-112,-5,994,-17,28,2
76,-165,-22,981,-19,13,0
77,-108,-28,986,-18,-11,-7
78,31,-34,1005,-13,-27,-13
79,116,-31,1008,-10,-20,-13
80,145,-2,1004,-9,-1,-9
81,37,0,1007,-15,22,-1
82,-92,-4,998,-17,29,3
83,-166,-17,977,-19,15,0
84,-120,-26,981,-18,-10,-5
85,2,-37,1008,-13,-26,-10
86,111,-29,1008,-12,-22,-12
87,150,-10,1005,-11,-5,-9
88,57,0,1005,-11,19,-2
89,-74,-6,1000,-17,29,2
90,-158,-11,972,-20,18,-1
91,-136,-24,996,-17,-4,-5
92,-25,-39,999,-14,-23,-11
93,104,-26,1004,-12,-24,-14
94,153,-12,1007,-10,-8,-11
95,71,3,1009,-13,15,-3
96,-47,-3,998,-18,29,1
97,-158,-6,973,-19,22,1
98,-145,-25,992,-18,-2,-3
99,-53,-38,998,-16,-22,-11
100,91,-27,1006,-11,-26,-14
101,149,-17,1006,-10,-13,-11
102,91,0,1006,-12,12,-4
103,-27,-2,999,-15,26,-1
104,-148,-1,976,-20,25,2
105,-157,-28,991,-18,4,-2
106,-75,-36,992,-17,-19,-9
107,76,-30,1009,-12,-27,-13
108,144,-17,1013,-9,-14,-12
109,108,-10,1005,-10,7,-4
110,0,2,996,-13,25,-1
111,-134,-4,986,-17,26,2
112,-160,-23,994,-19,7,-3
113,-97,-32,978,-17,-16,-8
114,51,-29,1004,-11,-27,-13
115,136,-28,1017,-10,-17,-13
116,125,-8,1009,-9,4,-6
117,19,7,996,-14,23,-1
118,-118,0,994,-17,27,2
119,-165,-24,984,-19,12,-1
120,-108,-27,986,-18,-11,-7
121,32,-34,1006,-13,-28,-13
122,118,-27,1005,-11,-21,-14
123,139,-4,1004,-11,-1,-9
124,37,2,1007,-14,23,-1
125,-95,-6,1002,-19,29,3
126,-164,-20,974,-19,16,-1
127,-123,-22,985,-18,-8,-7
128,2,-38,1005,-14,-27,-13
129,111,-30,1010,-10,-24,-13
130,150,-8,1004,-10,-5,-9
131,55,4,1002,-11,20,-3
132,-75,-7,1002,-17,29,2
133,-159,-11,969,-20,18,1
134,-136,-28,996,-18,-4,-4
135,-25,-38,996,-16,-25,-11
136,100,-28,1005,-10,-26,-14
137,152,-9,1006,-9,-9,-11
138,70,-1,1009,-14,17,-4
139,-48,-2,999,-18,28,1
140,-157,-10,972,-20,21,1
141,-144,-23,993,-18,-1,-4
142,-55,-41,997,-15,-22,-11
143,93,-26,1009,-10,-26,-14
144,150,-17,1006,-11,-11,-11
145,89,-2,1006,-10,13,-5
146,-26,-1,1002,-15,26,1
147,-147,-1,975,-20,23,3
148,-153,-27,993,-19,3,-3
149,-78,-42,988,-17,-17,-10
150,73,-29,1010,-12,-27,-13
151,144,-20,1011,-8,-14,-12
152,108,-6,1006,-10,9,-4
153,-1,6,997,-14,25,0
154,-134,0,987,-18,27,3
155,-159,-26,989,-19,7,-3
156,-96,-36,982,-17,-16,-9
157,57,-27,1005,-11,-30,-13
158,134,-26,1013,-11,-17,-12
159,126,-3,1013,-11,6,-5
160,18,6,993,-14,24,0
161,-117,-5,993,-18,27,2
162,-162,-22,984,-19,10,-1
163,-110,-31,986,-19,-12,-8
164,33,-35,1005,-14,-28,-13
165,122,-29,1007,-9,-21,-13
166,139,-9,1006,-10,0,-9
167,36,5,1004,-15,22,-1
168,-101,0,1002,-18,29,2
169,-165,-14,973,-20,14,-1
170,-120,-28,983,-17,-8,-5
171,5,-35,1007,-13,-27,-12
172,114,-33,1009,-13,-22,-13
173,151,-9,1004,-12,-4,-9
174,51,1,1004,-12,20,-2
175,-74,-2,1004,-15,27,1
176,-159,-11,975,-20,17,1
177,-135,-24,990,-20,-3,-6
178,-19,-36,1004,-14,-23,-12
179,105,-31,1003,-12,-25,-13
180,154,-11,1005,-8,-8,-10
181,70,-3,1009,-13,16,-3
182,-52,-3,1000,-17,28,0
183,-154,-10,969,-20,22,1
184,-149,-23,998,-18,-1,-3
185,-48,-38,996,-16,-23,-10
186,93,-26,1007,-11,-25,-13
187,152,-14,1006,-11,-10,-10
188,88,-3,1006,-11,13,-4
189,-28,-2,998,-16,25,-2
190,-147,-4,976,-20,23,2
191,-153,-25,992,-19,3,-4
192,-75,-38,993,-15,-19,-10
193,75,-23,1009,-12,-28,-14
194,144,-19,1010,-12,-15,-12
195,107,-5,1006,-11,9,-6
196,-2,1,997,-17,25,-2
197,-132,0,987,-21,26,3
198,-158,-30,992,-20,8,-1
199,-98,-32,978,-18,-16,-8
200,58,-29,1005,-13,-28,-14
201,133,-23,1017,-12,-17,-13
202,121,-9,1008,-12,4,-6
203,19,5,996,-14,23,-1
204,-121,-4,994,-18,28,3
205,-161,-22,981,-21,11,-2
206,-108,-27,988,-18,-11,-7
207,33,-30,1005,-15,-29,-14
208,121,-29,1005,-12,-20,-13
209,138,-6,1005,-10,-1,-8
210,37,8,1007,-14,22,-1
211,-100,-4,998,-18,29,2
212,-166,-16,975,-21,15,0
213,-121,-28,985,-19,-9,-5
214,6,-37,1007,-16,-27,-11
215,113,-30,1009,-10,-22,-12
216,149,-7,1002,-11,-4,-9
217,49,4,1006,-13,20,-2
218,-76,-2,999,-18,28,2
219,-161,-15,973,-22,17,0
220,-133,-26,992,-20,-4,-6
221,-20,-42,1002,-16,-24,-11
222,106,-31,1003,-13,-25,-14
223,152,-9,1006,-10,-8,-10
224,73,0,1008,-13,16,-2
225,-51,-5,1000,-18,29,1
226,-155,-7,973,-18,23,1
227,-148,-30,994,-18,-1,-4
228,-48,-39,995,-15,-22,-11
229,92,-30,1007,-11,-26,-13
230,154,-16,1005,-11,-12,-12
231,87,-3,1008,-13,13,-4
232,-28,1,997,-15,27,1
233,-149,-5,978,-20,24,3
234,-151,-25,994,-20,2,-3
235,-77,-41,990,-17,-19,-10
236,79,-29,1010,-12,-29,-14
237,145,-19,1010,-11,-16,-12
238,105,-2,1003,-10,8,-5
239,-3,2,999,-15,26,0
240,-135,-2,984,-19,27,3
241,-159,-27,990,-20,7,-3
242,-96,-36,981,-18,-16,-9
243,60,-29,1004,-11,-27,-14
244,133,-26,1016,-11,-17,-13
245,122,-10,1010,-11,6,-6
246,15,5,997,-14,25,-2
247,-118,-4,984,-18,27,3
248,-164,-24,990,-18,10,-2
249,-106,-29,982,-17,-12,-8
250,33,-35,1005,-13,-26,-13
251,122,-27,1009,-10,-20,-13
252,137,-3,1006,-9,1,-8
253,38,3,1003,-15,22,-2
254,-101,-4,1004,-16,28,3
255,-165,-20,973,-20,14,0
256,-126,-28,984,-18,-9,-6
257,12,-37,1007,-12,-28,-13
258,111,-29,1011,-10,-22,-13
259,150,-7,1003,-10,-4,-9
260,52,3,1005,-13,20,-2
261,-77,-4,1002,-17,29,2
262,-167,-13,972,-20,17,0
263,-133,-27,990,-19,-6,-6
264,-20,-40,1002,-14,-24,-11
265,104,-25,1002,-10,-26,-13
266,156,-10,1005,-9,-10,-11
267,68,1,1007,-12,16,-2
268,-55,-1,999,-17,28,1
269,-158,-9,972,-19,22,1
270,-148,-27,998,-18,-1,-4
271,-46,-38,994,-15,-23,-11
272,96,-27,1004,-10,-27,-14
273,154,-11,1009,-10,-12,-12
274,89,-5,1009,-13,14,-5
275,-32,-1,998,-16,28,0
276,-152,-5,976,-19,23,2
277,-151,-25,992,-18,1,-4
278,-71,-41,994,-15,-19,-9
279,81,-24,1010,-11,-28,-14
280,147,-20,1010,-11,-14,-12
281,107,-3,1006,-10,8,-4
282,-6,-1,997,-16,27,0
283,-139,-3,986,-18,26,3
284,-159,-31,988,-19,5,-2
285,-92,-34,980,-18,-16,-7
286,63,-31,1006,-11,-28,-13
287,136,-24,1012,-9,-16,-12
288,123,-6,1013,-11,6,-6
289,13,4,994,-14,25,-1
290,-122,-3,991,-19,28,3
291,-164,-28,990,-18,9,-3
292,-110,-32,984,-17,-13,-7
293,40,-31,1006,-13,-29,-13
294,123,-27,1012,-11,-19,-12
295,136,-2,1004,-10,0,-7
296,35,4,1005,-15,23,-3
297,-104,-6,1000,-18,28,2
298,-166,-19,976,-18,13,-1
299,-117,-29,986,-16,-9,-5
300,12,-36,1008,-11,-27,-12
301,117,-26,1006,-10,-24,-13
302,147,-4,1007,-10,-4,-8
303,52,5,1004,-13,21,-3
304,-83,-8,1002,-18,29,2
305,-163,-17,971,-18,16,-1
306,-134,-29,990,-18,-5,-5
307,-12,-39,1003,-13,-25,-13
308,105,-26,1008,-10,-24,-13
309,156,-8,1001,-8,-8,-11
310,65,0,1008,-11,17,-3
311,-58,-4,999,-16,29,0
312,-160,-12,972,-18,22,0
313,-144,-25,997,-18,-2,-5
314,-46,-38,995,-14,-23,-9
315,101,-28,1004,-9,-27,-15
316,154,-12,1007,-9,-12,-11
317,85,1,1007,-12,14,-4
318,-31,-7,999,-16,27,0
319,-153,-3,973,-18,24,2
320,-150,-25,993,-19,2,-3
321,-68,-37,996,-16,-20,-8
322,83,-28,1008,-13,-28,-12
323,147,-15,1008,-10,-13,-11
324,101,-9,1005,-11,11,-4
325,-10,0,998,-15,25,0
326,-140,-3,985,-20,26,2
327,-157,-28,990,-20,5,-4
328,-91,-33,982,-17,-19,-8
329,62,-29,1006,-13,-30,-12
330,137,-24,1013,-10,-18,-13
331,119,-9,1011,-12,6,-7
332,11,5,992,-13,26,-1
333,-123,-2,991,-18,27,2
334,-164,-24,988,-19,10,-2
335,-107,-32,981,-19,-13,-7
336,43,-32,1004,-14,-28,-13
337,125,-27,1012,-11,-19,-12
338,135,-6,1005,-10,1,-7
339,30,1,1003,-13,22,-2
340,-108,-6,999,-17,27,3
341,-161,-18,978,-19,13,-1
342,-120,-28,984,-18,-11,-6
343,17,-33,1006,-11,-28,-12
344,115,-29,1008,-14,-20,-11
345,147,-6,1005,-11,-2,-8
346,46,4,1006,-12,22,-2
347,-83,-6,1000,-17,29,2
348,-167,-17,972,-20,16,1
349,-132,-25,987,-17,-7,-5
350,-10,-40,1004,-15,-25,-12
351,108,-29,1006,-10,-25,-14
352,156,-11,1006,-10,-7,-11
353,64,2,1005,-14,18,-3
354,-61,-4,998,-16,29,2
355,-161,-12,971,-21,21,2
356,-140,-25,998,-19,-3,-4
357,-37,-39,994,-14,-24,-12
358,94,-29,1005,-11,-27,-13
359,157,-13,1005,-8,-11,-11
360,83,-1,1009,-12,16,-3
361,-34,-3,999,-16,27,1
362,-153,-6,974,-19,23,3
363,-149,-27,991,-19,2,-3
364,-67,-43,994,-16,-20,-9
365,88,-23,1014,-10,-27,-14
366,148,-18,1005,-9,-13,-12
367,101,-3,1005,-10,11,-5
368,-12,0,1002,-16,26,0
369,-141,-4,982,-19,25,2
370,-155,-28,991,-21,4,-2
371,-91,-36,983,-17,-17,-8
372,66,-26,1008,-11,-28,-13
373,140,-22,1013,-11,-17,-11
374,115,-7,1011,-10,6,-5
375,10,2,996,-15,25,-1
376,-129,-5,991,-18,27,3
377,-160,-24,985,-18,9,-2
378,-104,-32,985,-17,-14,-7
379,47,-28,1002,-13,-28,-12
380,126,-29,1012,-10,-19,-11
381,133,-5,1006,-9,2,-6
382,28,2,1001,-14,22,-1
383,-109,-5,996,-18,30,2
384,-164,-23,981,-20,13,0
385,-116,-29,986,-18,-11,-5
386,20,-33,1001,-14,-27,-12
387,119,-31,1012,-11,-20,-13
388,144,-3,1000,-10,-2,-7
389,47,0,1004,-13,21,-2
390,-88,-6,1007,-18,29,2
391,-167,-15,968,-21,16,-1
392,-127,-26,990,-17,-8,-5
393,-8,-39,1004,-14,-25,-11
394,108,-29,1007,-9,-22,-13
395,157,-9,1002,-10,-6,-9
396,60,1,1009,-11,19,-2
397,-61,-4,995,-17,28,2
398,-164,-9,978,-20,20,1
399,-139,-26,995,-19,-4,-4
400,-36,-38,997,-13,-24,-12
401,99,-30,1003,-12,-26,-13
402,150,-14,1007,-8,-10,-10
403,83,-3,1011,-12,16,-3
404,-43,-3,996,-16,29,1
405,-150,-4,976,-18,22,1
406,-150,-26,994,-18,0,-4
407,-60,-35,992,-15,-22,-10
408,85,-28,1012,-12,-26,-14
409,149,-15,1006,-9,-12,-12
410,101,-8,1002,-12,11,-4
411,-19,0,1001,-14,26,-2
412,-139,-4,982,-20,25,2
413,-154,-26,989,-19,5,-4
414,-86,-35,987,-17,-17,-8
415,71,-26,1006,-11,-28,-12
416,142,-19,1011,-10,-18,-13
417,115,-9,1008,-10,7,-6
418,2,3,998,-15,25,-1
419,-123,-5,988,-19,27,3
420,-161,-27,991,-20,8,-2
421,-102,-34,980,-16,-15,-7
422,46,-29,1009,-11,-27,-13
423,129,-28,1012,-11,-18,-14
424,130,-7,1009,-9,3,-7
425,27,3,999,-14,23,-2
426,-111,-4,994,-19,28,2
427,-166,-25,980,-19,12,-1
428,-115,-26,983,-15,-11,-7
429,25,-34,1006,-13,-27,-12
430,116,-27,1006,-10,-21,-13
431,142,-6,1004,-9,-1,-8
432,41,4,1005,-14,22,-1
433,-91,-5,1004,-17,30,3
434,-167,-16,971,-19,15,0
435,-126,-26,986,-19,-8,-6
436,-1,-36,1004,-14,-26,-11
437,109,-32,1008,-12,-24,-13
438,152,-7,1006,-10,-7,-8
439,56,3,1001,-13,19,-2
440,-64,-6,1003,-16,29,1
441,-160,-12,973,-21,19,2
442,-140,-25,996,-18,-3,-4
443,-29,-42,997,-16,-23,-11
444,100,-29,1004,-10,-26,-12
445,155,-11,1007,-9,-11,-10
446,77,2,1008,-12,16,-3
447,-42,-3,998,-17,29,1
448,-156,-6,973,-20,22,2
449,-152,-27,995,-17,0,-3
450,-55,-41,995,-15,-21,-10
451,83,-29,1011,-9,-26,-14
452,152,-15,1006,-11,-13,-11
453,98,-6,1008,-11,10,-5
454,-23,1,996,-16,27,0
455,-145,-2,984,-20,25,2
456,-155,-28,989,-20,4,-4
457,-84,-37,988,-17,-17,-9
458,75,-28,1006,-12,-28,-14
459,142,-20,1013,-9,-17,-13
460,115,-8,1003,-12,8,-3
461,-2,6,1001,-16,27,0
462,-130,-2,987,-19,27,3
463,-161,-28,993,-19,8,-1
464,-99,-33,974,-18,-17,-8
465,52,-31,1009,-11,-28,-14
466,132,-23,1012,-9,-17,-12
467,120,-7,1009,-11,4,-6
468,27,4,999,-14,23,-2
469,-117,-5,993,-18,29,3
470,-161,-21,981,-18,12,-1
471,-114,-34,988,-19,-10,-7
472,31,-30,1004,-14,-28,-13
473,117,-30,1004,-9,-20,-12
474,139,-1,1006,-9,-1,-8
475,40,-1,1006,-15,22,-2
476,-89,-4,1003,-17,29,2
477,-166,-22,973,-20,15,-1
478,-129,-24,988,-17,-8,-5
479,3,-39,1003,-15,-26,-12
480,109,-29,1009,-9,-22,-14
481,154,-5,1000,-9,-6,-9
482,55,4,1004,-13,20,-2
483,-73,-5,1001,-18,27,2
484,-162,-16,974,-20,17,1
485,-137,-30,991,-19,-4,-6
486,-26,-40,1000,-13,-23,-12
487,104,-28,1001,-10,-26,-14
488,156,-12,1005,-9,-8,-11
489,76,2,1010,-13,15,-4
490,-50,-4,999,-17,28,1
491,-156,-8,973,-20,22,1
492,-149,-29,995,-19,-1,-3
493,-52,-37,993,-15,-22,-10
494,89,-30,1007,-11,-26,-14
495,152,-13,1006,-9,-12,-12
496,92,-4,1007,-12,13,-3
497,-22,2,999,-15,28,0
498,-149,-5,976,-20,25,2
499,-153,-28,989,-18,3,-3
500,-79,-36,990,-16,-18,-9
501,77,-28,1009,-12,-27,-14
502,146,-20,1011,-8,-15,-11
503,108,-7,1006,-12,9,-4
504,-5,3,996,-15,26,-1
505,-134,-5,992,-19,29,2
506,-157,-28,987,-19,8,-2
507,-96,-34,980,-15,-16,-8
508,60,-28,1005,-11,-29,-14
509,130,-27,1017,-8,-18,-12
510,125,-6,1009,-10,4,-6
511,17,7,1000,-14,23,-1
512,-119,-4,990,-19,27,4
513,-162,-24,986,-19,10,-2
514,-108,-30,986,-18,-11,-7
515,33,-34,1006,-13,-27,-13
516,121,-28,1007,-8,-21,-12
517,136,-3,1005,-8,-1,-6
518,38,3,1004,-14,21,-2
519,-100,-6,1002,-18,29,3
520,-166,-21,972,-20,14,0
521,-122,-27,984,-17,-8,-6
522,9,-38,1010,-15,-25,-12
523,113,-28,1007,-9,-21,-13
524,149,-5,1005,-10,-4,-10
525,51,1,1004,-13,20,-3
526,-77,-4,1000,-16,28,0
527,-162,-15,975,-19,18,0
528,-132,-24,993,-18,-4,-5
529,-17,-41,1002,-15,-24,-10
530,104,-27,1005,-12,-25,-14
531,152,-12,1006,-9,-8,-10
532,70,0,1007,-11,17,-2
533,-54,-5,1000,-16,28,1
534,-160,-6,972,-18,21,1
535,-146,-25,996,-18,-2,-4
536,-48,-42,994,-14,-23,-10
537,93,-29,1010,-11,-27,-14
538,157,-18,1002,-11,-11,-11
539,88,-2,1009,-12,14,-3
540,-30,-1,996,-15,28,0
541,-154,-1,979,-18,24,2
542,-150,-26,989,-18,3,-3
543,-72,-38,993,-15,-18,-9
544,83,-29,1010,-12,-28,-13
545,145,-19,1010,-9,-15,-12
546,106,-6,1003,-9,9,-5
547,-8,0,998,-14,26,-1
548,-140,0,987,-19,26,2
549,-156,-27,989,-18,7,-2
550,-95,-36,982,-16,-15,-7
551,61,-27,1003,-12,-27,-12
552,136,-26,1017,-12,-17,-12
553,122,-9,1010,-11,6,-6
554,18,4,994,-14,26,-2
555,-119,-5,995,-18,28,2
556,-166,-25,983,-20,10,-1
557,-110,-30,985,-19,-13,-8
558,40,-30,1006,-13,-29,-14
559,122,-29,1006,-10,-20,-12
560,139,-4,1006,-9,1,-8
561,34,3,1004,-14,23,-1
562,-100,-7,999,-19,29,1
563,-166,-19,975,-19,14,-1
564,-119,-28,984,-16,-9,-5
565,10,-37,1009,-13,-28,-11
566,115,-27,1006,-9,-24,-13
567,148,-7,1007,-10,-4,-8
568,53,3,1005,-12,21,-2
569,-82,-8,1002,-16,29,2
570,-165,-15,971,-19,17,0
571,-138,-29,994,-18,-5,-5
572,-13,-41,998,-14,-25,-11
573,108,-28,1010,-11,-24,-14
574,155,-9,1005,-9,-7,-9
575,65,0,1006,-12,18,-2
576,-53,-6,998,-17,28,2
577,-164,-8,976,-18,21,2
578,-137,-25,993,-19,-4,-6
579,-46,-38,1001,-15,-24,-11
580,96,-27,1002,-9,-27,-14
581,151,-17,1009,-10,-11,-11
582,87,-5,1008,-11,14,-3
583,-32,-2,995,-16,29,1
584,-152,-1,977,-20,24,2
585,-153,-28,992,-17,2,-3
586,-69,-34,992,-16,-20,-8
587,81,-25,1009,-11,-27,-13
588,146,-16,1009,-10,-13,-11
589,103,-8,1005,-11,10,-5
590,-11,0,998,-14,27,-1
591,-138,-3,988,-19,27,2
592,-153,-28,987,-19,6,-2
593,-93,-34,981,-16,-15,-8
594,64,-23,1009,-11,-28,-14
595,134,-22,1012,-10,-17,-13
596,118,-6,1010,-11,6,-7
597,12,2,996,-16,26,-1
598,-120,-3,991,-18,27,4
599,-162,-29,986,-19,9,-1
600,-108,-30,983,-17,-12,-7
601,39,-32,1006,-13,-28,-13
602,122,-26,1008,-10,-19,-14
603,136,-3,1008,-8,2,-8
604,33,3,1004,-15,24,-1
605,-106,-6,996,-17,29,3
606,-163,-22,981,-19,13,-1
607,-118,-30,985,-16,-9,-6
608,15,-34,1005,-13,-27,-12
609,116,-28,1009,-11,-21,-13
610,147,-4,1004,-9,-3,-9
611,45,3,1001,-14,21,-1
612,-81,-5,1003,-18,28,3
613,-165,-17,971,-20,17,1
614,-129,-31,989,-18,-5,-7
615,-11,-41,1004,-13,-25,-11
616,108,-28,1004,-10,-24,-15
617,151,-5,1007,-8,-8,-10
618,62,2,1003,-13,18,-2
619,-61,-2,999,-16,28,1
620,-158,-14,971,-19,21,1
621,-142,-28,999,-17,-1,-4
622,-40,-40,995,-14,-23,-11
623,99,-30,1005,-9,-26,-14
624,153,-12,1009,-9,-11,-11
625,81,-3,1007,-12,14,-4
626,-35,-2,998,-16,27,-1
627,-153,-4,975,-20,23,2
628,-149,-24,991,-18,1,-3
629,-67,-41,997,-16,-19,-9
630,82,-23,1011,-11,-27,-12
631,147,-18,1006,-11,-14,-12
632,101,-7,1005,-8,9,-5
633,-13,2,995,-14,26,-1
634,-137,-2,990,-19,26,2
635,-155,-26,987,-18,7,-4
636,-92,-34,982,-16,-16,-9
637,63,-26,1005,-12,-28,-15
638,136,-24,1019,-11,-17,-13
639,120,-7,1007,-11,5,-6
640,9,1,996,-15,26,-1
641,-122,-1,987,-19,27,2
642,-164,-25,989,-18,9,-3
643,-105,-26,984,-17,-13,-8
644,39,-33,1007,-14,-27,-11
645,127,-26,1008,-11,-20,-13
646,133,-8,1009,-9,0,-6
647,33,5,1001,-13,23,-1
648,-106,-7,1002,-17,28,3
649,-165,-18,977,-18,14,0
650,-120,-28,987,-17,-10,-6
651,20,-33,1004,-14,-27,-12
652,113,-31,1010,-11,-22,-13
653,149,-3,1003,-10,-4,-10
654,45,0,1005,-15,21,-3
655,-79,-5,1004,-15,29,0
656,-164,-16,972,-19,17,2
657,-132,-27,990,-17,-5,-5
658,-12,-40,1006,-13,-24,-11
659,108,-27,1005,-11,-23,-13
660,156,-4,1004,-11,-8,-10
661,63,2,1007,-13,19,-3
662,-56,-4,997,-18,28,2
663,-163,-13,974,-21,21,1
664,-141,-29,998,-17,-3,-6
665,-38,-42,998,-15,-23,-11
666,98,-26,1002,-9,-26,-13
667,151,-11,1007,-9,-11,-11
668,84,1,1013,-12,14,-4
669,-38,-1,996,-15,29,1
670,-155,-6,977,-20,23,3
671,-148,-32,991,-18,1,-3
672,-64,-42,993,-16,-20,-10
673,86,-26,1011,-12,-27,-13
674,146,-15,1008,-10,-14,-11
675,99,-4,1004,-9,9,-5
676,-10,-1,996,-15,25,-1
677,-138,0,987,-19,26,3
678,-155,-28,986,-21,5,-3
679,-87,-38,986,-15,-16,-9
680,63,-28,1004,-11,-28,-12
681,135,-25,1013,-9,-15,-13
682,119,-8,1009,-10,11,-6
683,10,6,997,-15,25,-1
684,-123,0,984,-22,26,3
685,-162,-26,990,-18,10,-1
686,-104,-29,983,-18,-12,-6
687,44,-33,1005,-15,-27,-13
688,122,-33,1010,-9,-19,-13
689,136,-5,1005,-11,1,-7
690,29,3,1003,-13,24,-2
691,-110,-1,1000,-16,30,2
692,-160,-19,978,-19,14,-2
693,-117,-26,983,-18,-9,-6
694,15,-34,1005,-14,-27,-13
695,120,-32,1009,-10,-22,-14
696,146,-9,1002,-10,-3,-7
697,45,2,1003,-12,21,-3
698,-78,-6,1006,-15,28,0
699,-165,-13,966,-19,17,0
700,-129,-23,994,-16,-6,-6
701,-12,-38,1009,-14,-24,-12
702,104,-27,1000,-11,-23,-12
703,154,-12,1006,-9,-7,-10
704,61,-1,1008,-13,17,-2
705,-54,-6,996,-16,28,1
706,-158,-6,975,-19,20,0
707,-140,-25,998,-17,-3,-5
708,-42,-41,996,-14,-24,-11
709,96,-25,1003,-10,-26,-12
710,150,-15,1009,-9,-10,-11
711,88,-1,1007,-12,14,-3
712,-31,-4,998,-14,27,2
713,-151,-4,976,-18,24,2
714,-150,-25,994,-19,1,-4
715,-69,-38,991,-15,-19,-10
716,80,-23,1012,-11,-28,-12
717,147,-19,1009,-11,-15,-12
718,104,-8,1004,-11,9,-5
719,-6,0,1000,-14,25,0
720,-137,-2,987,-18,27,2
721,-157,-27,989,-20,6,-3
722,-92,-33,983,-16,-16,-8
723,60,-28,1007,-10,-28,-13
724,137,-24,1015,-10,-17,-13
725,123,-11,1010,-10,7,-6
726,10,4,996,-14,25,-1
727,-119,-7,991,-17,27,2
728,-165,-22,986,-18,9,-1
729,-105,-27,986,-18,-12,-7
730,40,-31,1005,-14,-26,-12
731,121,-28,1007,-9,-20,-13
732,140,-5,1005,-10,-1,-7
733,31,0,1003,-15,22,-1
734,-102,-5,1000,-17,29,3
735,-162,-21,975,-18,15,-1
736,-121,-26,981,-16,-8,-7
737,18,-33,1009,-14,-26,-13
738,111,-27,1007,-10,-21,-13
739,145,-5,997,-11,-3,-9
740,48,2,1010,-13,21,-2
741,-81,-8,996,-16,28,3
742,-159,-17,973,-19,17,-1
743,-131,-28,991,-19,-5,-5
744,-16,-37,999,-13,-23,-12
745,109,-26,1005,-12,-23,-15
746,148,-7,1006,-8,-6,-11
747,65,1,1005,-15,18,-3
748,-56,-9,1000,-17,28,-1
749,-157,-10,971,-20,21,2
750,-141,-27,995,-19,-2,-4
751,-42,-40,1000,-15,-23,-11
752,96,-26,1003,-9,-27,-12
753,149,-9,1007,-8,-11,-11
754,86,-4,1006,-12,14,-4
755,-29,-1,1001,-16,27,0
756,-150,-6,973,-20,23,3
757,-150,-29,992,-18,2,-3
758,-71,-39,992,-16,-18,-9
759,80,-26,1011,-11,-26,-14
760,140,-18,1007,-10,-15,-12
761,106,-5,1005,-10,9,-6
762,-7,0,998,-15,26,-1
763,-137,-3,986,-18,26,2
764,-152,-27,990,-18,7,-3
765,-93,-36,983,-16,-15,-8
766,59,-27,1005,-10,-28,-13
767,131,-25,1017,-9,-16,-12
768,122,-8,1009,-12,5,-7
769,14,5,998,-13,24,-3
770,-121,-5,990,-18,26,1
771,-162,-27,983,-20,10,-2
772,-104,-30,988,-17,-12,-8
773,34,-31,1005,-15,-28,-13
774,123,-29,1004,-11,-19,-12
775,138,-5,1011,-8,-1,-6
776,30,6,1000,-14,23,-1
777,-97,-5,1003,-19,28,1
778,-165,-19,973,-21,14,-1
779,-120,-26,985,-18,-10,-7
780,12,-35,1007,-13,-28,-13
781,110,-30,1008,-10,-22,-13
782,148,-7,1004,-13,-4,-9
783,51,0,1003,-11,20,-1
784,-77,-6,1001,-16,27,2
785,-157,-12,973,-19,17,1
786,-135,-24,995,-16,-5,-4
787,-21,-37,1000,-15,-23,-11
788,104,-30,1005,-12,-24,-13
789,150,-10,1003,-8,-9,-10
790,70,0,1008,-12,17,-3
791,-50,-5,1000,-16,28,0
792,-157,-10,969,-20,22,2
793,-147,-23,999,-16,-2,-3
794,-51,-42,994,-16,-24,-10
795,90,-26,1006,-9,-27,-13
796,151,-17,1007,-10,-12,-11
797,87,-1,1007,-11,14,-4
798,-21,-1,999,-17,26,0
799,-147,-5,978,-20,23,2
800,-154,-29,989,-19,2,-2
801,-72,-41,992,-17,-18,-9
802,76,-27,1009,-12,-29,-14
803,145,-18,1007,-10,-16,-12
804,108,-7,1011,-10,8,-5
805,-2,4,992,-15,27,-1
806,-135,-2,990,-20,27,3
807,-156,-30,989,-19,7,-3
808,-96,-34,979,-17,-16,-7
809,60,-29,1003,-11,-28,-14
810,127,-25,1018,-11,-17,-13
811,127,-5,1007,-10,4,-7
812,16,4,997,-13,24,-2
813,-115,-2,994,-18,27,2
814,-165,-27,985,-19,12,-2
815,-107,-29,984,-18,-11,-7
816,35,-34,1007,-15,-28,-13
817,120,-26,1009,-9,-20,-12
818,139,-5,1001,-10,-2,-7
819,37,7,1007,-15,20,-1
820,-98,-7,1004,-19,29,3
821,-166,-16,970,-20,14,-1
822,-119,-25,984,-17,-10,-6
823,4,-41,1009,-15,-26,-12
824,113,-29,1005,-10,-23,-14
825,149,-10,1006,-8,-4,-8
826,53,6,1003,-11,20,-2
827,-75,-6,1001,-17,29,2
828,-161,-10,973,-21,19,1
829,-140,-26,998,-18,-5,-5
830,-21,-39,1000,-15,-26,-11
831,101,-30,1002,-10,-25,-13
832,153,-11,1007,-9,-8,-10
833,70,-3,1008,-12,16,-4
834,-47,-3,1000,-15,28,1
835,-160,-5,971,-19,21,1
836,-148,-22,996,-19,-1,-5
837,-52,-37,992,-16,-21,-10
838,91,-29,1010,-11,-26,-13
839,149,-18,1008,-11,-11,-11
840,92,-9,1004,-11,12,-4
841,-24,-3,999,-13,27,0
842,-147,-1,979,-17,24,3
843,-154,-25,991,-18,3,-3
844,-79,-33,990,-18,-18,-9
845,73,-27,1010,-12,-27,-14
846,141,-23,1010,-10,-15,-12
847,108,-13,1005,-12,9,-5
848,1,1,997,-13,26,-1
849,-135,0,991,-18,27,3
850,-157,-26,987,-19,7,-2
851,-99,-31,984,-15,-16,-8
852,56,-23,1005,-12,-29,-14
853,132,-30,1013,-11,-17,-12
854,126,-7,1013,-11,6,-7
855,20,2,992,-14,23,-2
856,-117,-9,997,-17,29,3
857,-164,-24,979,-20,10,-1
858,-110,-25,989,-17,-10,-7
859,32,-31,1005,-13,-27,-13
860,116,-23,1007,-10,-20,-12
861,145,-5,1003,-9,-1,-9
862,34,2,1007,-15,24,-2
863,-92,-7,1000,-18,28,2
864,-167,-19,974,-18,15,0
865,-124,-28,985,-16,-9,-6
866,-1,-36,1006,-11,-26,-12
867,113,-29,1008,-11,-24,-14
868,151,-9,1002,-10,-6,-9
869,57,2,1004,-12,18,-2
870,-70,-4,999,-16,27,1
871,-161,-12,976,-19,19,0
872,-137,-23,993,-18,-3,-5
873,-30,-39,998,-13,-22,-12
874,103,-30,1004,-11,-26,-15
875,152,-13,1005,-10,-9,-10
876,75,2,1009,-12,17,-3
877,-45,-4,1002,-17,28,0
878,-156,-6,971,-19,21,2
879,-148,-26,995,-18,0,-4
880,-56,-38,996,-17,-21,-11
881,87,-26,1010,-11,-26,-12
882,153,-16,1003,-10,-12,-12
883,91,-4,1003,-10,13,-5
884,-18,0,1001,-14,26,-1
885,-148,-3,980,-18,25,2
886,-154,-27,989,-18,4,-3
887,-84,-36,991,-17,-17,-9
888,75,-26,1008,-13,-27,-14
889,143,-23,1012,-10,-15,-12
890,107,-6,1003,-11,8,-6
891,3,1,1001,-15,25,-2
892,-131,-5,985,-18,27,3
893,-160,-22,989,-19,9,-2
894,-94,-36,983,-19,-14,-9
895,50,-29,1004,-12,-28,-14
896,131,-24,1010,-10,-18,-13
897,129,-7,1015,-11,3,-9
898,21,2,995,-15,24,-1
899,-115,-2,995,-18,28,3
900,-162,-26,985,-19,11,-1
901,-110,-27,983,-17,-11,-6
902,29,-34,1005,-13,-28,-13
903,117,-29,1004,-10,-21,-12
904,144,-7,1003,-8,-2,-8
905,37,2,1004,-15,23,-1
906,-93,-5,1003,-17,29,2
907,-162,-17,972,-18,14,0
908,-125,-28,985,-18,-7,-5
909,3,-37,1009,-14,-26,-12
910,111,-30,1007,-12,-22,-12
911,149,-4,1003,-10,-5,-9
912,58,0,1005,-11,19,-3
913,-69,-7,1000,-15,28,1
914,-162,-9,969,-21,19,1
915,-136,-25,1001,-18,-3,-7
916,-31,-39,1000,-15,-23,-12
917,103,-28,1001,-11,-25,-14
918,154,-14,1009,-10,-9,-9
919,76,-2,1008,-14,16,-2
920,-40,-5,997,-17,28,2
921,-155,-5,973,-20,23,3
922,-148,-23,991,-17,-1,-4
923,-56,-38,998,-15,-22,-9
924,89,-27,1007,-13,-28,-12
925,151,-17,1007,-9,-12,-12
926,95,-5,1006,-12,12,-4
927,-22,0,995,-15,26,1
928,-142,-5,983,-19,25,3
929,-152,-25,992,-19,4,-4
930,-83,-36,983,-16,-17,-9
931,72,-26,1010,-12,-27,-13
932,143,-21,1015,-11,-16,-10
933,113,-9,1008,-10,7,-5
934,2,0,994,-14,25,0
935,-129,-5,988,-17,26,3
936,-161,-28,989,-18,8,-3
937,-99,-31,983,-18,-15,-7
938,50,-29,1006,-11,-28,-12
939,129,-25,1012,-10,-19,-11
940,132,-5,1008,-10,2,-6
941,25,2,1000,-14,23,-1
942,-108,-4,995,-19,27,3
943,-166,-23,979,-19,12,-2
944,-111,-29,985,-17,-11,-6
945,21,-34,1008,-12,-27,-12
946,117,-29,1004,-11,-21,-13
947,141,-6,1005,-9,-1,-8
948,44,3,1008,-13,22,-1
949,-91,-5,1000,-18,29,2
950,-162,-15,972,-20,15,-1
951,-126,-27,989,-16,-8,-5
952,-7,-37,1005,-15,-26,-11
953,109,-31,1006,-11,-23,-13
954,151,-7,1007,-9,-6,-10
955,62,0,1003,-11,19,-1
956,-65,-3,997,-16,29,1
957,-162,-11,976,-20,19,1
958,-137,-26,994,-18,-2,-5
959,-33,-38,1000,-15,-24,-11
960,102,-28,1002,-11,-26,-13
961,150,-16,1011,-10,-9,-11
962,80,-2,1007,-12,16,-2
963,-43,-2,997,-17,28,1
964,-150,-3,973,-20,22,1
965,-153,-26,993,-17,0,-4
966,-60,-36,993,-16,-20,-9
967,84,-30,1013,-12,-26,-13
968,148,-16,1001,-10,-13,-10
969,98,-10,1006,-10,11,-3
970,-15,0,994,-15,27,-1
971,-139,-1,986,-21,26,3
972,-152,-27,990,-19,5,-3
973,-90,-38,984,-17,-17,-7
974,68,-23,1006,-10,-28,-14
975,134,-25,1014,-11,-17,-14
976,119,-9,1010,-12,5,-6
977,6,2,997,-15,25,-1
978,-122,-1,988,-17,27,2
979,-164,-29,988,-19,7,-4
980,-100,-28,982,-16,-13,-8
981,44,-32,1006,-12,-29,-13
982,124,-27,1009,-11,-20,-13
983,131,-6,1006,-9,1,-6
984,28,3,1006,-13,22,-3
985,-109,-6,995,-16,28,3
986,-165,-16,982,-18,14,0
987,-113,-26,985,-18,-9,-6
988,19,-32,1006,-12,-27,-13
989,118,-29,1007,-11,-22,-13
990,145,-8,1004,-9,-3,-9
991,46,1,1005,-13,20,-2
992,-85,-8,999,-16,28,3
993,-164,-15,972,-20,16,1
994,-128,-23,989,-17,-6,-5
995,-12,-36,1004,-15,-24,-11
996,109,-27,1007,-10,-24,-13
997,151,-10,1005,-10,-7,-10
998,61,-1,1003,-12,18,-3
999,-58,-4,1004,-15,28,1
1000,-159,-12,971,-19,21,2
1001,-138,-25,995,-17,-2,-5
1002,-43,-37,1001,-14,-23,-11
1003,97,-24,1002,-10,-26,-15
1004,153,-14,1008,-10,-12,-12
1005,83,-1,1010,-11,12,-4
1006,-31,-5,994,-17,26,1
1007,-151,-6,976,-19,23,2
1008,-148,-24,992,-17,1,-4
1009,-66,-39,995,-16,-19,-9
1010,83,-26,1008,-12,-27,-11
1011,143,-16,1008,-10,-14,-10
1012,103,-9,1002,-11,10,-4
1013,-13,-2,998,-13,26,0
1014,-136,-3,987,-20,25,2
1015,-156,-27,991,-18,7,-3
1016,-87,-30,979,-16,-20,-8
1017,63,-25,1008,-13,-34,-14
1018,135,-22,1014,-19,-23,-13
1019,115,-9,1009,-12,8,-6
1020,15,3,995,-14,24,-1
1021,-123,-8,987,-18,27,4
1022,-162,-26,987,-20,8,-3
1023,-104,-33,985,-16,-11,-7
1024,40,-25,1003,-11,-27,-12
1025,120,-26,1010,-11,-19,-12
1026,137,-2,1006,-10,0,-7
1027,30,0,1003,-14,21,-2
1028,-99,-9,999,-18,28,0
1029,-167,-24,979,-19,14,0
1030,-112,-26,979,-18,-9,-6
1031,9,-36,1007,-13,-27,-13
1032,114,-26,1008,-11,-22,-13
1033,146,-7,1003,-12,-3,-8
1034,52,5,1003,-13,20,-2
1035,-80,-7,1001,-16,29,2
1036,-161,-14,972,-20,16,0
1037,-133,-30,993,-18,-5,-4
1038,-15,-39,1001,-13,-24,-12
1039,107,-32,1003,-10,-24,-14
1040,155,-8,1007,-7,-8,-10
1041,66,3,1004,-13,17,-2
1042,-53,-3,1001,-15,27,-1
1043,-155,-9,970,-19,21,1
1044,-143,-27,995,-18,-1,-4
1045,-42,-41,997,-16,-22,-11
1046,92,-29,1005,-9,-26,-12
1047,153,-13,1004,-10,-10,-11
1048,86,-4,1008,-10,14,-4
1049,-29,2,997,-14,27,0
1050,-150,-4,975,-19,24,2
1051,-149,-30,994,-19,3,-4
1052,-71,-38,992,-16,-19,-10
1053,79,-28,1009,-10,-28,-13
1054,143,-20,1008,-9,-16,-10
1055,104,-6,1004,-10,9,-5
1056,-6,0,995,-15,26,-2
1057,-135,-1,988,-17,26,3
1058,-155,-28,991,-19,6,-2
1059,-95,-35,978,-16,-15,-8
1060,61,-29,1007,-11,-29,-13
1061,132,-27,1014,-9,-18,-13
1062,121,-10,1008,-10,6,-5
1063,16,3,995,-14,25,-1
1064,-117,-3,995,-17,27,2
1065,-161,-23,982,-20,9,-2
1066,-107,-26,989,-17,-12,-7
1067,36,-32,1003,-13,-28,-12
1068,119,-30,1007,-10,-20,-13
1069,141,-5,1003,-8,0,-7
1070,32,3,1007,-15,23,-1
1071,-99,-7,996,-17,29,0
1072,-170,-20,977,-20,14,0
1073,-120,-23,983,-18,-9,-5
1074,5,-37,1006,-15,-27,-12
1075,114,-28,1011,-10,-23,-14
1076,148,-7,1002,-10,-4,-9
1077,51,0,1003,-12,21,-3
1078,-76,-6,1000,-16,28,2
1079,-164,-13,972,-21,18,2
1080,-132,-26,993,-18,-4,-4
1081,-21,-37,1002,-14,-23,-11
1082,102,-28,1003,-11,-25,-13
1083,154,-9,1009,-9,-9,-10
1084,72,-4,1008,-14,16,-3
1085,-48,-4,998,-16,29,0
1086,-156,-10,974,-19,22,2
1087,-149,-23,991,-17,-1,-4
1088,-50,-37,998,-16,-23,-10
1089,91,-26,1006,-11,-27,-13
1090,152,-14,1005,-11,-10,-11
1091,93,-8,1006,-13,13,-4
1092,-27,-3,997,-15,28,-1
1093,-144,-1,981,-18,24,1
1094,-152,-29,993,-18,4,-5
1095,-77,-35,985,-15,-17,-9
1096,73,-29,1012,-12,-25,-13
1097,139,-19,1013,-10,-15,-13
1098,112,-10,1005,-13,7,-6
1099,-2,3,997,-14,27,0
1100,-133,-5,987,-18,28,3
1101,-158,-25,988,-18,7,-3
1102,-100,-34,981,-17,-14,-7
1103,55,-25,1004,-11,-28,-12
1104,130,-27,1014,-11,-17,-12
1105,127,-5,1005,-9,5,-6
1106,21,3,1002,-13,26,-1
1107,-114,-7,990,-17,28,2
1108,-165,-23,982,-18,11,-1
1109,-108,-26,987,-16,-11,-7
1110,29,-32,1006,-14,-27,-12
1111,119,-26,1004,-10,-21,-13
1112,139,-6,1005,-10,-1,-8
1113,39,0,1006,-14,22,-1
1114,-92,-9,1002,-17,30,2
1115,-162,-16,975,-18,15,-1
1116,-125,-24,986,-18,-9,-6
1117,3,-36,1005,-14,-25,-13
1118,108,-30,1007,-12,-22,-13
1119,151,-8,1002,-9,-5,-9
1120,54,0,1006,-12,19,-3
1121,-66,-5,993,-17,27,2
1122,-163,-13,975,-19,19,1
1123,-135,-29,997,-18,-3,-5
1124,-29,-37,1000,-13,-24,-10
1125,100,-26,1002,-10,-25,-14
1126,151,-12,1011,-9,-9,-11
1127,74,1,1007,-13,16,-2
1128,-43,-4,997,-17,28,0
1129,-155,-11,973,-19,23,1
1130,-148,-26,993,-18,-1,-4
1131,-57,-44,998,-18,-21,-10
1132,88,-25,1010,-10,-27,-14
1133,146,-14,1008,-9,-13,-10
1134,95,-1,1006,-11,12,-4
1135,-20,-1,996,-15,27,0
1136,-140,-4,986,-19,26,3
1137,-153,-29,988,-19,4,-4
1138,-80,-36,986,-16,-18,-10
1139,69,-30,1010,-11,-28,-12
1140,137,-22,1010,-9,-16,-12
1141,114,-10,1011,-10,8,-5
1142,2,6,994,-14,26,0
1143,-126,-2,988,-19,27,4
1144,-160,-28,992,-20,8,-2
1145,-99,-30,980,-16,-14,-8
1146,46,-32,1006,-12,-27,-13
1147,125,-26,1012,-11,-18,-11
1148,129,-6,1007,-9,3,-6
1149,26,5,1001,-14,24,-1
1150,-109,-5,995,-19,28,2
1151,-163,-22,979,-20,12,-2
1152,-116,-25,986,-17,-10,-6
1153,20,-34,1005,-13,-27,-12
1154,115,-29,1007,-11,-22,-13
1155,146,-9,1005,-9,-3,-9
1156,46,0,1005,-14,20,-3
1157,-86,-5,1003,-16,28,1
1158,-165,-14,969,-20,16,0
1159,-133,-25,991,-19,-7,-5
1160,-4,-36,1003,-13,-27,-12
1161,109,-32,1006,-11,-23,-14
1162,154,-10,1006,-11,-7,-9
1163,58,-2,1004,-13,17,-3
1164,-59,-5,999,-18,28,0
1165,-161,-10,974,-20,20,2
1166,-139,-22,995,-19,-3,-5
1167,-36,-41,999,-17,-24,-12
1168,98,-25,1002,-12,-26,-12
1169,150,-15,1005,-10,-9,-10
1170,83,-5,1011,-12,14,-4
1171,-35,-5,997,-16,27,1
1172,-154,-7,973,-18,22,2
1173,-146,-26,996,-17,2,-4
1174,-62,-39,994,-15,-19,-10
1175,82,-24,1009,-12,-25,-13
1176,148,-15,1013,-9,-12,-11
1177,98,-6,1005,-9,9,-4
1178,-12,1,993,-17,25,0
1179,-139,-5,991,-18,25,3
1180,-154,-30,989,-18,5,-3
1181,-90,-35,983,-16,-18,-9
1182,67,-26,1006,-11,-29,-14
1183,133,-21,1016,-9,-15,-12
1184,122,-2,1009,-11,7,-6
1185,6,1,997,-14,25,0
1186,-121,-3,989,-18,25,2
1187,-163,-31,988,-19,10,-2
1188,-101,-30,985,-17,-14,-7
1189,42,-31,1004,-11,-26,-12
1190,127,-28,1014,-11,-19,-12
1191,134,-5,1007,-8,2,-7
1192,28,8,1004,-13,24,-2
1193,-104,-6,1001,-18,29,2
1194,-161,-20,972,-20,15,-1
1195,-120,-25,986,-19,-10,-5
1196,18,-39,1007,-13,-28,-13
1197,112,-31,1010,-11,-21,-13
1198,150,-4,1001,-10,-3,-8
1199,45,4,1006,-14,22,-1
1200,-80,-5,999,-16,28,2
1201,-165,-14,970,-19,16,0
1202,-131,-27,995,-17,-6,-6
1203,-13,-40,1000,-14,-25,-12
1204,106,-28,1006,-10,-24,-14
1205,152,-11,1007,-11,-8,-9
1206,63,-1,1006,-13,17,-2
1207,-55,-5,996,-17,28,1
1208,-157,-7,976,-18,22,1
1209,-141,-25,991,-17,-2,-5
1210,-43,-39,998,-15,-23,-11
1211,95,-30,1006,-10,-27,-14
1212,151,-18,1003,-11,-11,-10
1213,88,-4,1009,-12,14,-4
1214,-29,0,998,-14,26,0
1215,-150,0,976,-19,23,3
1216,-148,-26,993,-17,2,-1
1217,-72,-37,991,-15,-18,-8
1218,81,-27,1011,-11,-26,-14
1219,142,-23,1007,-12,-14,-12
1220,106,-9,1007,-11,8,-4
1221,-3,2,996,-15,25,-1
1222,-138,-4,989,-18,26,3
1223,-153,-26,986,-20,6,-2
1224,-98,-33,983,-16,-16,-8
1225,61,-26,1005,-11,-29,-14
1226,130,-27,1016,-10,-17,-13
1227,124,-4,1007,-12,5,-6
1228,14,3,1000,-14,25,-1
1229,-116,-3,989,-19,27,2
1230,-165,-25,985,-20,11,-1
1231,-105,-25,985,-16,-12,-7
1232,33,-35,1005,-14,-28,-12
1233,121,-28,1010,-9,-22,-13
1234,137,-6,1003,-11,0,-9
1235,36,5,1006,-13,22,-2
1236,-94,-7,1002,-17,29,2
1237,-165,-17,971,-20,15,0
1238,-123,-27,984,-19,-9,-5
1239,6,-37,1008,-14,-26,-13
1240,112,-30,1008,-12,-21,-14
1241,150,-7,1004,-11,-4,-9
1242,53,0,1004,-12,19,-3
1243,-73,-5,1001,-17,29,2
1244,-160,-12,969,-20,18,0
1245,-135,-28,999,-19,-4,-4
1246,-23,-41,999,-15,-23,-10
1247,107,-27,1005,-9,-23,-13
1248,151,-10,1005,-9,-9,-10
1249,69,0,1008,-14,16,-3
1250,-44,-5,1000,-16,28,0
1251,-157,-9,971,-19,22,3
1252,-144,-25,994,-18,-1,-4
1253,-54,-42,999,-15,-21,-10
1254,88,-24,1004,-11,-26,-13
1255,153,-16,1006,-10,-12,-12
1256,89,-7,1009,-11,11,-4
1257,-23,0,995,-15,26,0
1258,-142,-5,984,-20,26,2
1259,-154,-27,993,-18,5,-3
1260,-76,-36,985,-14,-18,-11
1261,69,-24,1010,-11,-28,-13
1262,141,-18,1014,-10,-16,-12
1263,112,-10,1007,-11,8,-6
1264,-1,1,996,-14,25,-1
1265,-127,-5,985,-19,26,2
1266,-160,-26,993,-19,8,-3
1267,-96,-32,977,-16,-15,-8
1268,50,-26,1007,-11,-26,-13
1269,130,-29,1013,-14,-18,-13
1270,125,-5,1004,-9,2,-6
1271,24,4,1002,-14,22,-2
1272,-114,-8,993,-18,28,2
1273,-158,-22,980,-19,13,-2
1274,-108,-29,987,-18,-10,-6
1275,24,-34,1007,-13,-26,-12
1276,117,-31,1004,-9,-21,-13
1277,138,-6,1005,-10,-2,-7
1278,41,1,1005,-13,22,-2
1279,-89,-2,1001,-18,28,2
1280,-165,-19,970,-21,15,1
1281,-124,-25,991,-16,-8,-4
1282,-5,-40,1004,-14,-26,-11
1283,108,-29,1007,-10,-22,-13
1284,152,-8,1006,-10,-5,-10
1285,56,4,1002,-12,18,-3
1286,-63,-2,1001,-17,26,1
1287,-158,-10,971,-20,19,-1
1288,-140,-26,997,-18,-2,-5
1289,-33,-42,995,-15,-24,-11
1290,97,-26,1005,-12,-27,-14
1291,154,-16,1005,-10,-9,-10
1292,77,-2,1010,-13,17,-3
1293,-37,-3,996,-16,27,0
1294,-153,-3,977,-17,22,1
1295,-150,-23,990,-20,0,-4
1296,-60,-38,996,-16,-19,-10
1297,85,-27,1009,-12,-28,-12
1298,147,-17,1006,-11,-12,-11
1299,101,-11,1003,-11,11,-5
1300,-15,0,999,-14,26,-1
1301,-137,0,984,-18,25,2
1302,-158,-29,991,-19,6,-4
1303,-86,-31,982,-18,-18,-9
1304,63,-28,1003,-13,-29,-13
1305,141,-22,1016,-10,-18,-12
1306,113,-10,1008,-11,7,-5
1307,9,6,995,-14,25,-2
1308,-125,-5,991,-18,27,3
1309,-161,-23,986,-20,9,-2
1310,-102,-32,984,-20,-13,-7
1311,46,-28,1008,-11,-28,-13
1312,122,-28,1008,-11,-19,-12
1313,133,-3,1006,-8,0,-8
1314,29,1,1003,-13,23,0
1315,-107,-5,997,-18,29,2
1316,-162,-23,974,-20,13,-1
1317,-112,-25,985,-16,-9,-6
1318,15,-33,1007,-13,-27,-12
1319,116,-26,1006,-10,-23,-15
1320,146,-6,1005,-12,-3,-8
1321,47,3,1003,-13,21,-1
1322,-83,-8,1001,-17,29,1
1323,-163,-18,973,-20,16,0
1324,-131,-28,991,-18,-5,-4
1325,-12,-37,1003,-15,-24,-12
1326,104,-27,1008,-11,-24,-12
1327,152,-9,1004,-10,-7,-10
1328,64,3,1007,-12,17,-3
1329,-55,-4,999,-17,28,1
1330,-159,-8,975,-21,20,2
1331,-144,-29,995,-18,-1,-3
1332,-44,-41,997,-14,-24,-11
1333,94,-30,1003,-10,-26,-13
1334,152,-14,1006,-9,-10,-10
1335,89,-1,1010,-11,14,-4
1336,-32,-1,994,-15,28,1
1337,-148,-1,975,-19,23,2
1338,-150,-31,993,-19,2,-3
1339,-71,-38,991,-15,-19,-10
1340,81,-28,1013,-12,-27,-14
1341,147,-17,1009,-10,-14,-13
1342,102,-10,1003,-10,10,-4
1343,-8,2,999,-14,25,0
1344,-139,0,988,-18,26,2
1345,-158,-28,989,-18,7,-3
1346,-92,-38,981,-16,-15,-8
1347,62,-26,1006,-11,-29,-12
1348,137,-28,1011,-11,-16,-12
1349,121,-4,1009,-11,6,-6
1350,14,1,999,-14,24,0
1351,-120,-3,991,-11,25,1
1352,-165,-27,985,-17,11,-1
1353,-104,-26,988,-18,-12,-8
1354,38,-34,1006,-14,-28,-12
1355,117,-28,1003,-10,-18,-13
1356,140,-4,1008,-11,2,-9
1357,31,3,1005,-13,22,-1
1358,-99,-6,999,-17,29,2
1359,-163,-18,979,-19,14,-1
1360,-120,-27,982,-17,-9,-7
1361,10,-34,1006,-14,-28,-13
1362,112,-30,1009,-11,-23,-13
1363,149,-7,1005,-10,-3,-9
1364,52,3,1006,-13,20,-2
1365,-80,-4,1000,-16,28,2
1366,-163,-15,974,-20,17,0
1367,-133,-28,993,-18,-6,-5
1368,-21,-39,999,-14,-24,-12
1369,107,-28,1006,-11,-25,-13
1370,154,-10,1006,-8,-8,-10
1371,68,0,1005,-12,16,-4
1372,-53,-2,1002,-17,28,0
1373,-155,-7,974,-18,23,1
1374,-145,-24,995,-19,-1,-4
1375,-47,-39,999,-16,-22,-10
1376,92,-29,1006,-10,-28,-13
1377,152,-18,1005,-10,-11,-10
1378,89,0,1007,-10,14,-3
1379,-25,0,1000,-15,27,0
1380,-147,-3,976,-20,24,2
1381,-153,-28,989,-19,3,-4
1382,-76,-38,994,-15,-18,-10
1383,78,-26,1008,-11,-28,-13
1384,143,-20,1010,-10,-15,-12
1385,112,-9,1007,-9,9,-5
1386,-2,1,995,-14,26,0
1387,-131,-1,988,-19,29,2
1388,-156,-26,991,-19,7,-4
1389,-99,-32,982,-18,-16,-9
1390,57,-29,1005,-12,-27,-15
1391,129,-25,1018,-11,-18,-12
1392,127,-7,1009,-11,4,-6
1393,20,3,998,-14,25,-2
1394,-115,-5,989,-18,27,2
1395,-163,-26,984,-20,11,-1
1396,-108,-28,984,-16,-11,-7
1397,30,-32,1007,-12,-27,-12
1398,121,-31,1005,-9,-21,-14
1399,139,-1,1006,-8,-1,-7
1400,40,6,1005,-13,22,-2
1401,-96,-6,1003,-18,29,2
1402,-164,-20,973,-19,15,-1
1403,-123,-32,983,-18,-8,-5
1404,4,-37,1008,-14,-26,-12
1405,110,-29,1007,-10,-22,-13
1406,155,-5,1006,-10,-5,-9
1407,51,4,1001,-14,19,-2
1408,-70,-1,1001,-16,28,2
1409,-163,-16,972,-20,18,1
1410,-137,-28,993,-17,-4,-5
1411,-23,-41,994,-14,-24,-11
1412,105,-27,1008,-9,-26,-14
1413,155,-10,1003,-9,-9,-10
1414,74,2,1009,-11,17,-3
1415,-47,-4,997,-18,29,0
1416,-157,-4,974,-18,23,1
1417,-144,-28,993,-20,0,-4
1418,-51,-41,994,-16,-22,-11
1419,89,-29,1008,-12,-27,-13
1420,150,-18,1005,-10,-13,-12
1421,92,-5,1007,-10,12,-4
1422,-23,2,1000,-16,26,-1
1423,-143,-3,978,-20,24,2
1424,-155,-24,991,-20,3,-3
1425,-82,-39,989,-18,-18,-10
1426,75,-29,1009,-11,-27,-12
1427,144,-24,1011,-10,-15,-11
1428,141,-4,1018,0,10,-4
1429,-17,14,954,-26,29,1
1430,-161,-25,961,-23,29,3
1431,-158,-15,860,-12,1,0
1432,-89,-26,977,-7,-9,-6
1433,69,-33,1016,-9,-19,-11
1434,145,-21,1014,-12,-19,-12
1435,115,-12,1004,-11,1,-6
1436,4,5,997,-13,25,-1
1437,-122,-6,999,-16,31,2
1438,-163,-25,990,-25,13,-2
1439,-99,-30,987,-12,-13,-8
1440,41,-34,1005,-16,-32,-14
1441,118,-27,998,-13,-20,-13
1442,128,-2,1000,-8,4,-7
1443,31,8,1007,-16,24,-2
1444,-95,-11,1005,-19,27,1
1445,-155,-15,971,-19,12,-1
1446,-114,-34,983,-21,-9,-7
1447,4,-35,1013,-10,-24,-10
1448,104,-27,1010,-12,-20,-12
1449,140,-4,1006,-12,-4,-11
1450,55,4,1011,-9,18,-3
1451,-75,-7,993,-19,27,2
1452,-157,-14,968,-16,19,-1
1453,-139,-31,993,-18,-3,-6
1454,-36,-30,1003,-15,-25,-11
1455,100,-17,1002,-10,-27,-17
1456,147,-17,993,-10,-10,-10
1457,61,-45,1011,-10,15,-1
1458,-43,-24,1002,-9,24,2
1459,-131,8,971,-8,19,-1
1460,18,130,722,51,-17,-22
1461,-155,25,512,-86,30,-50
1462,-48,-243,268,72,-34,-57
1463,184,57,519,110,-18,-31
1464,141,50,425,-66,12,-7
1465,65,28,526,54,39,-18
1466,-61,-40,474,-5,12,-11
1467,-214,-66,649,-57,-4,10
1468,-46,137,787,40,16,-12
1469,39,-1,426,24,5,-6
1470,-62,-134,658,11,-37,-28
1471,61,18,541,38,2,2
1472,84,31,563,-79,9,-12
1473,-56,-70,612,17,25,-11
1474,-140,23,402,11,-21,2
1475,-111,-33,378,-26,-1,-2
1476,83,-4,658,70,52,-3
1477,-62,-98,834,-30,32,0
1478,0,-174,636,54,-36,-17
1479,165,62,426,1,-15,11
1480,-105,55,368,-41,42,-2
1481,-68,-84,611,53,31,-8
1482,-48,30,708,-71,-29,14
1483,-64,-28,657,29,-16,-18
1484,70,12,522,-4,-2,-7
1485,108,16,549,-44,9,-9
1486,24,-25,762,22,3,-8
1487,-62,-36,892,-49,-6,0
1488,-117,-10,915,0,15,-5
1489,39,-73,879,-2,19,5
1490,-38,23,664,-303,-56,142
1491,-221,-100,640,-18,-67,-20
1492,-71,-198,889,-44,20,23
1493,83,112,525,-21,-43,28
1494,95,57,362,-47,-8,-17
1495,87,71,582,-68,-29,25
1496,-116,-95,684,-37,26,5
1497,-6,-27,558,-105,2,0
1498,-89,-38,610,-172,-69,29
1499,-187,-164,744,-97,-46,-93
1500,46,-70,757,1,-18,9
1501,142,111,517,-13,-33,-9
1502,56,-30,425,-61,6,-25
1503,161,85,693,8,-9,30
1504,-262,114,838,-64,19,14
1505,-282,-289,689,42,30,-67
1506,-40,-140,1061,-56,-42,22
1507,120,16,728,40,-29,-18
1508,218,-9,695,48,-5,-28
1509,143,167,868,-71,12,18
1510,-154,37,884,30,45,1
1511,-22,7,869,-49,10,13
1512,-241,-25,448,-51,3,27
1513,-139,-325,488,-32,23,-78
1514,96,-201,846,0,-53,12
1515,199,119,423,16,-28,-2
1516,121,-35,243,12,14,-24
1517,37,156,481,-2,13,14
1518,-250,39,501,-18,36,11
1519,-153,-17,516,-41,5,-14
1520,-34,-121,689,-41,-21,-4
1521,101,-78,685,-6,-27,-18
1522,173,-65,690,-10,-9,-9
1523,44,30,820,4,15,-1
1524,-107,25,860,-10,22,5
1525,-152,35,928,-17,16,0
1526,-112,-15,918,-22,-4,-3
1527,44,-45,868,-24,-22,-13
1528,140,-56,879,-20,-20,-11
1529,106,-26,897,-5,-1,-8
1530,-10,-15,972,-14,21,-1
1531,-133,-1,981,-12,25,2
1532,-155,0,984,-15,7,1
1533,-49,-20,998,-19,-14,-10
1534,63,-23,999,-9,-19,-9
1535,145,-7,1005,-14,-16,-12
1536,86,-11,1006,-14,8,-8
1537,-38,-10,999,-12,22,1
1538,-140,-18,977,-20,22,1
1539,-139,-32,998,-17,8,-3
1540,-49,-37,995,-15,-15,-8
1541,80,-23,1005,-9,-23,-13
1542,141,-1,1013,-7,-14,-12
1543,78,12,1008,-16,8,-4
1544,-33,0,999,-20,21,0
1545,-140,-14,978,-21,20,2
1546,-136,-40,992,-21,2,-1
1547,-52,-53,994,-16,-17,-8
1548,76,-33,1012,-8,-24,-10
1549,136,-10,1003,-7,-14,-10
1550,82,8,1005,-8,9,-5
1551,-24,12,997,-16,25,-1
1552,-131,2,983,-21,24,1
1553,-136,-36,993,-21,4,-3
1554,-66,-53,987,-17,-16,-9
1555,68,-40,1007,-9,-25,-12
1556,126,-24,1009,-5,-14,-11
1557,93,0,1009,-8,8,-8
1558,-5,17,993,-12,24,-3
1559,-124,8,990,-19,25,2
1560,-140,-23,993,-21,6,-2
1561,-84,-38,985,-20,-15,-8
1562,54,-42,1003,-14,-25,-12
1563,115,-39,1011,-9,-14,-10
1564,111,-8,1006,-7,5,-7
1565,12,14,997,-11,23,-2
1566,-111,6,996,-16,24,1
1567,-145,-12,983,-20,10,-2
1568,-98,-24,991,-20,-11,-6
1569,35,-43,1004,-15,-25,-13
1570,109,-41,1004,-10,-19,-12
1571,123,-14,1001,-8,0,-8
1572,24,5,1003,-12,21,-2
1573,-94,4,1002,-16,25,2
1574,-151,-4,976,-18,12,-2
1575,-107,-21,992,-21,-9,-6
1576,9,-41,1005,-17,-25,-11
1577,107,-41,1007,-13,-21,-13
1578,135,-18,1002,-12,-2,-9
1579,35,0,1002,-11,20,-3
1580,-69,0,1001,-16,25,-2
1581,-153,-1,979,-20,16,0
1582,-115,-16,1000,-18,-5,-6
1583,-17,-41,1002,-18,-22,-11
1584,100,-35,997,-12,-23,-12
1585,138,-24,1007,-11,-7,-11
1586,57,-7,1003,-12,16,-4
1587,-51,-3,996,-14,25,0
1588,-144,0,974,-19,18,0
1589,-130,-16,1000,-18,-2,-4
1590,-40,-34,997,-17,-21,-10
1591,88,-32,1009,-14,-24,-13
1592,135,-26,1003,-13,-9,-11
1593,77,-14,1002,-11,13,-4
1594,-28,0,996,-13,24,-1
1595,-136,2,986,-18,23,0
1596,-136,-19,995,-19,4,-4
1597,-67,-31,987,-16,-18,-8
1598,75,-27,1006,-11,-25,-13
1599,127,-29,1009,-10,-12,-12
1600,91,-12,1007,-11,10,-7
1601,-8,2,991,-15,24,-1
1602,-125,0,988,-16,23,1
1603,-144,-21,997,-20,4,-2
1604,-78,-26,985,-19,-15,-8
1605,57,-30,1004,-12,-26,-12
1606,120,-32,1009,-11,-15,-12
1607,111,-13,1004,-9,4,-7
1608,8,3,999,-12,23,-3
1609,-110,-6,993,-17,25,0
1610,-147,-13,986,-19,9,-4
1611,-91,-22,987,-17,-12,-8
1612,34,-34,1006,-14,-26,-13
1613,110,-37,1007,-11,-18,-12
1614,122,-8,1000,-9,0,-9
1615,23,0,1002,-13,21,-3
1616,-92,-1,1003,-15,25,1
1617,-147,-13,973,-20,12,-1
1618,-104,-21,995,-19,-12,-6
1619,9,-41,1002,-16,-24,-11
1620,106,-34,1006,-11,-20,-13
1621,130,-14,1003,-10,-4,-9
1622,37,0,1002,-12,18,-5
1623,-69,-1,997,-16,26,-1
1624,-150,0,978,-19,18,0
1625,-114,-22,999,-17,-6,-6
1626,-21,-41,1001,-15,-23,-11
1627,96,-31,998,-10,-21,-12
1628,132,-18,1007,-10,-6,-9
1629,59,-7,1006,-13,16,-4
1630,-49,1,996,-15,25,-1
1631,-143,0,973,-17,19,-1
1632,-122,-22,1000,-18,-2,-4
1633,-44,-38,994,-17,-19,-9
1634,86,-33,1013,-13,-22,-12
1635,131,-22,1004,-11,-9,-11
1636,75,-13,1001,-8,12,-4
1637,-27,2,995,-14,23,-1
1638,-134,3,990,-19,23,2
1639,-130,-21,990,-21,3,-5
1640,-66,-35,984,-19,-17,-9
1641,74,-32,1006,-12,-26,-12
1642,120,-30,1010,-11,-12,-11
1643,92,-10,1010,-10,9,-5
1644,-8,4,994,-14,24,-2
1645,-122,1,988,-16,23,2
1646,-138,-19,995,-20,4,-3
1647,-79,-29,990,-18,-15,-7
1648,54,-38,1001,-15,-24,-11
1649,113,-36,1009,-12,-14,-11
1650,139,42,1025,-4,2,-10
1651,-24,-18,933,-10,32,2
1652,-124,-52,863,-14,20,7
1653,-159,-28,612,-3,7,-6
1654,-74,-32,829,-9,-9,-6
1655,56,6,993,-13,-23,-10
1656,124,-12,958,-3,-21,-14
1657,174,98,977,-33,-16,-6
1658,-92,-52,864,53,76,-7
1659,-202,-90,538,47,50,-5
1660,-145,-41,502,-33,6,0
1661,-15,22,591,61,-10,-19
1662,80,-36,830,-35,-54,-25
1663,71,-11,830,-19,-3,-10
1664,152,134,856,53,25,-10
1665,-80,-45,885,-80,32,5
1666,-300,-107,838,6,60,-29
1667,-196,-121,557,72,1,-7
1668,-19,0,692,-76,-52,-13
1669,121,-16,683,77,-11,-22
1670,192,65,836,-24,0,-6
1671,248,112,906,-29,22,13
1672,-307,-107,912,-44,53,-9
1673,-304,-234,883,-87,-5,-15
1674,-183,19,699,18,-19,11
1675,56,-61,575,-7,-19,-24
1676,240,26,667,-24,-37,-14
1677,244,-5,920,56,-4,6
1678,-218,103,875,-66,87,-7
1679,-312,-201,731,-38,41,-22
1680,-185,-65,746,-18,-7,16
1681,69,98,612,2,-47,-12
1682,123,-43,701,-34,-14,-18
1683,110,-80,889,-44,-5,-22
1684,3,48,857,94,22,-7
1685,-42,-52,606,-74,-13,-7
1686,-81,-85,610,2,16,-13
1687,32,10,878,17,16,4
1688,-52,-9,823,4,10,32
1689,-234,-25,490,63,38,-61
1690,-172,-190,768,-5,-15,1
1691,49,42,651,44,-11,-11
1692,87,-56,469,15,3,-28
1693,226,104,460,9,-19,-2
1694,126,-16,579,-10,24,31
1695,-232,13,561,-119,53,-26
1696,-347,-266,663,-37,14,-9
1697,-125,-10,595,18,-46,-1
1698,108,-64,195,-9,-50,-29
1699,286,42,273,31,-24,-18
1700,225,85,395,-21,14,2
1701,119,183,768,-12,48,18
1702,-178,-45,786,-30,35,29
1703,-392,-354,597,-53,38,-82
1704,-218,-232,398,66,-21,12
1705,143,4,466,24,-54,-21
1706,313,-95,304,9,-32,-43
1707,321,172,612,70,2,6
1708,-32,135,765,-46,51,8
1709,-234,73,815,-28,62,0
1710,-279,-77,835,-46,17,9
1711,-168,-132,809,-43,-30,-12
1712,77,-156,872,5,-42,-17
1713,223,-52,947,0,-25,-15
1714,189,17,968,7,2,-7
1715,37,86,1010,12,30,-1
1716,-143,61,993,-29,37,4
1717,-216,28,922,-26,24,4
1718,-137,-52,944,-31,-10,-6
1719,0,-98,967,-26,-36,-14
1720,151,-78,994,-5,-33,-14
1721,158,-43,1006,-7,-6,-10
1722,59,3,1005,0,22,-2
1723,-61,41,984,-9,32,0
1724,-174,42,990,-22,23,4
1725,-137,0,1003,-22,-3,-4
1726,-40,-45,987,-28,-25,-12
1727,94,-59,999,-16,-30,-11
1728,134,-60,1007,-11,-12,-11
1729,91,-34,1009,-9,14,-4
1730,-26,13,990,-6,30,2
1731,-131,23,999,-14,24,2
1732,-140,6,995,-18,4,-3
1733,-72,-8,987,-18,-16,-6
1734,59,-37,1009,-20,-27,-12
1735,116,-53,1004,-15,-16,-11
1736,108,-29,994,-11,4,-6
1737,5,-10,1007,-11,24,-2
1738,-108,1,1005,-10,25,0
1739,-148,-1,978,-14,10,-3
1740,-88,-5,988,-16,-12,-7
1741,26,-28,1010,-16,-25,-12
1742,109,-33,1003,-14,-17,-11
1743,121,-26,1003,-14,1,-7
1744,25,-17,1000,-14,21,-3
1745,-82,-14,997,-14,25,1
1746,-145,-4,973,-16,13,0
1747,-106,-12,1000,-16,-7,-6
1748,0,-28,1000,-15,-23,-10
1749,97,-30,999,-14,-20,-10
1750,130,-15,1006,-12,-4,-9
1751,46,-13,1005,-14,17,-4
1752,-62,-10,994,-16,25,1
1753,-141,-9,976,-17,18,1
1754,-117,-20,999,-15,-4,-5
1755,-27,-33,997,-15,-22,-10
1756,88,-23,1008,-10,-22,-11
1757,130,-15,1006,-10,-8,-10
1758,63,-12,1003,-12,14,-4
1759,-38,0,997,-14,23,-2
1760,-135,-3,980,-19,19,1
1761,-125,-25,995,-19,0,-5
1762,-55,-39,988,-15,-18,-8
1763,77,-26,1010,-11,-25,-13
1764,123,-27,1010,-10,-10,-11
1765,83,-5,1008,-12,10,-4
1766,-13,3,993,-15,24,-1
1767,-125,0,991,-18,24,2
1768,-137,-27,993,-19,5,-3
1769,-71,-33,980,-16,-17,-7
1770,63,-33,1006,-13,-25,-12
1771,115,-28,1015,-10,-13,-11
1772,105,-8,1010,-9,6,-6
1773,2,9,992,-12,23,-2
1774,-112,3,994,-17,24,1
1775,-141,-19,985,-19,8,-2
1776,-89,-29,987,-19,-11,-6
1777,39,-38,1009,-14,-26,-12
1778,110,-38,1006,-13,-16,-12
1779,120,-7,1000,-9,2,-7
1780,17,8,1005,-11,22,-3
1781,-95,5,999,-18,26,0
1782,-149,-12,975,-21,10,-2
1783,-98,-22,988,-19,-10,-6
1784,12,-48,1009,-17,-24,-11
1785,106,-36,1006,-11,-18,-11
1786,133,-15,1001,-8,-1,-7
1787,34,3,1002,-9,19,-3
1788,-75,2,998,-14,26,0
1789,-143,-6,978,-19,16,-1
1790,-116,-22,1002,-19,-7,-5
1791,-13,-40,998,-16,-23,-10
1792,99,-40,1003,-12,-21,-11
1793,133,-20,1004,-9,-5,-9
1794,53,-4,1006,-11,18,-3
1795,-50,-1,996,-15,27,0
1796,-145,3,973,-17,18,1
1797,-123,-17,996,-19,-3,-4
1798,-38,-41,1000,-19,-21,-10
1799,86,-33,1006,-13,-23,-12
1800,135,-27,1004,-9,-9,-11
1801,72,-8,1002,-8,14,-3
1802,-33,3,994,-13,23,-1
1803,-132,3,985,-18,21,0
1804,-132,-20,995,-20,3,-3
1805,-66,-33,986,-19,-18,-8
1806,76,-33,1007,-13,-25,-12
1807,126,-32,1009,-12,-12,-11
1808,93,-14,1003,-10,11,-6
1809,-7,2,996,-13,26,-3
1810,-128,5,986,-16,24,2
1811,-141,-16,994,-17,4,-4
1812,-82,-28,988,-18,-15,-8
1813,57,-32,1003,-14,-26,-13
1814,118,-41,1012,-11,-14,-12
1815,110,-9,1004,-8,4,-7
1816,8,1,998,-12,23,-4
1817,-111,0,997,-16,25,1
1818,-151,-10,982,-19,9,-3
1819,-90,-24,990,-18,-12,-9
1820,33,-37,1009,-15,-25,-11
1821,108,-34,1002,-12,-18,-12
1822,126,-12,1005,-8,0,-9
1823,24,0,1002,-13,21,-4
1824,-91,0,999,-15,26,1
1825,-146,-11,975,-20,12,-3
1826,-110,-21,995,-18,-8,-6
1827,4,-40,1003,-15,-24,-11
1828,108,-36,1004,-12,-21,-13
1829,134,-16,1005,-8,-4,-9
1830,41,0,997,-11,19,-3
1831,-70,-2,1003,-14,26,-1
1832,-147,-2,974,-19,17,0
1833,-121,-23,1001,-19,-3,-5
1834,-22,-39,996,-18,-22,-10
1835,97,-37,1004,-11,-24,-13
1836,138,-21,1003,-8,-8,-10
1837,61,-2,1006,-9,16,-4
1838,-45,2,997,-13,26,-1
1839,-146,4,972,-20,20,1
1840,-131,-19,999,-20,-2,-5
1841,-50,-41,995,-17,-21,-10
1842,88,-34,1012,-13,-25,-13
1843,135,-24,1004,-11,-10,-10
1844,80,-8,1003,-10,12,-4
1845,-23,1,998,-15,26,-3
1846,-137,4,988,-20,23,2
1847,-137,-20,992,-21,3,-5
1848,-73,-37,986,-16,-16,-8
1849,131,-4,924,21,-14,0
1850,72,-38,591,-22,-28,-2
1851,33,-66,859,-44,-3,-2
1852,16,23,423,-3,39,-5
1853,-113,-11,691,-6,23,3
1854,-120,3,971,-27,-19,-5
1855,-92,12,871,-35,-4,1
1856,44,-37,794,1,-12,-18
1857,92,-81,765,-19,-20,-8
1858,99,-36,801,-11,-10,-5
1859,23,-9,826,7,25,-4
1860,66,151,951,-36,28,1
1861,-102,59,570,-28,25,34
1862,-260,-125,680,-42,11,-11
1863,-67,-102,573,-9,-49,-1
1864,137,55,584,-13,-55,-14
1865,235,-33,614,-8,14,-10
1866,74,-41,377,62,49,8
1867,-67,22,627,-32,30,-1
1868,-28,60,441,-89,-12,-40
1869,-258,103,620,-86,-29,-48
1870,-115,-10,678,-123,-25,-43
1871,26,7,562,14,-34,-20
1872,195,-37,488,3,-35,-40
1873,201,216,622,-46,-26,17
1874,-251,-34,812,-11,74,6
1875,-409,-153,712,-51,55,-13
1876,-228,-32,463,5,-35,12
1877,52,-79,466,-25,-42,-30
1878,335,-155,637,57,-39,4
1879,-18,-11,810,116,94,-14
1880,-101,-238,753,-50,34,6
1881,-208,-27,520,13,-8,26
1882,-169,-33,545,-24,-7,-11
1883,-18,11,462,12,5,-8
1884,134,109,655,-53,-20,3
1885,111,-136,655,85,-38,18
1886,-47,-45,730,624,79,-25
1887,-227,-213,608,251,163,-81
1888,-252,-33,213,-46,-12,-7
1889,-13,-5,128,36,14,-27
1890,167,-172,360,89,-54,-23
1891,56,35,528,120,16,-24
1892,-76,-87,880,60,68,-22
1893,-44,-14,704,71,37,0
1894,-39,91,135,-6,-16,23
1895,-94,-88,69,19,18,-49
1896,-116,-238,404,-13,36,-3
1897,16,69,556,-36,-12,3
1898,147,82,107,20,-36,-13
1899,28,58,371,-34,-31,40
1900,-147,-92,226,-57,56,-53
1901,-145,-135,171,6,15,14
1902,30,6,382,-44,-36,6
1903,21,-114,723,35,-23,-34
1904,114,68,996,-17,-5,7
1905,38,44,796,-5,23,34
1906,-213,65,356,10,46,15
1907,-123,-315,348,-98,7,-58
1908,-17,-123,546,111,-23,23
1909,37,49,284,-48,-11,-11
1910,132,-61,192,28,9,-29
1911,107,119,285,10,-2,18
1912,-129,5,309,-39,32,0
1913,-194,-13,384,3,26,-7
1914,-124,-68,504,-51,-7,0
1915,51,-68,470,-20,-25,-14
1916,152,-64,555,1,-20,-10
1917,112,6,704,-17,0,-7
1918,-48,18,739,4,28,4
1919,-152,44,771,-27,17,3
1920,-142,-30,608,-35,-5,-6
1921,0,-44,516,-8,-14,-11
1922,107,-48,620,-22,-18,-11
1923,128,-24,705,-3,-7,-12
1924,46,-4,813,-10,8,-3
1925,-116,28,888,-16,23,4
1926,-148,-6,973,-16,15,-2
1927,-103,-40,974,-27,-4,-6
1928,39,-37,1000,-9,-21,-9
1929,137,-39,1016,-6,-19,-14
1930,112,-18,1000,-8,2,-7
1931,-1,18,954,-9,19,-1
1932,-118,14,942,-21,23,1
1933,-144,-25,939,-21,10,-1
1934,-88,-38,950,-20,-8,-5
1935,56,-45,1003,-15,-24,-12
1936,119,-37,1010,-5,-17,-12
1937,104,0,1009,-7,1,-6
1938,0,21,1004,-10,22,-2
1939,-111,7,996,-18,26,2
1940,-139,-21,982,-24,10,-1
1941,-87,-36,985,-18,-9,-5
1942,44,-49,1004,-13,-23,-11
1943,102,-34,1004,-9,-17,-12
1944,106,0,1012,-6,1,-7
1945,16,17,1011,-13,20,-4
1946,-95,7,1003,-19,25,1
1947,-140,-11,973,-21,13,0
1948,-92,-35,987,-20,-9,-6
1949,19,-52,1001,-14,-24,-11
1950,96,-41,1007,-9,-19,-11
1951,120,-7,1007,-7,-1,-8
1952,27,8,1006,-11,19,-2
1953,-77,11,993,-16,25,-1
1954,-142,-1,978,-20,15,-2
1955,-104,-27,993,-21,-6,-7
1956,-11,-46,1001,-18,-21,-11
1957,97,-38,1001,-11,-21,-12
1958,126,-20,1011,-8,-5,-9
1959,45,0,1003,-10,17,-3
1960,-56,4,995,-13,26,0
1961,-139,3,974,-17,16,1
1962,-115,-20,994,-19,-4,-4
1963,-32,-41,1003,-17,-21,-9
1964,82,-38,1005,-13,-22,-12
1965,131,-26,1009,-10,-8,-10
1966,68,-10,1001,-10,14,-4
1967,-37,5,994,-14,23,-1
1968,-131,4,983,-18,19,0
1969,-130,-21,995,-19,0,-4
1970,-57,-38,991,-18,-17,-9
1971,76,-34,1010,-12,-24,-11
1972,122,-29,1007,-11,-12,-10
1973,85,-13,1004,-10,11,-5
1974,-15,2,992,-13,23,-1
1975,-126,5,986,-16,23,1
1976,-134,-21,994,-19,4,-3
1977,-75,-28,985,-18,-16,-7
1978,64,-30,1004,-13,-24,-11
1979,116,-34,1014,-11,-13,-11
1980,100,-12,1007,-9,7,-7
1981,1,1,992,-12,23,-3
1982,-116,4,991,-16,24,1
1983,-143,-13,988,-20,7,-2
1984,-83,-29,991,-18,-12,-8
1985,41,-37,1007,-13,-24,-10
1986,114,-32,1003,-10,-15,-12
1987,113,-12,1004,-10,3,-6
1988,15,5,995,-13,23,-3
1989,-99,0,1004,-15,26,0
1990,-148,-5,975,-20,11,0
1991,-97,-25,990,-19,-10,-6
1992,17,-42,1009,-15,-24,-12
1993,108,-40,1006,-11,-18,-11
1994,126,-13,1005,-8,0,-9
1995,29,1,998,-11,20,-2
1996,-79,5,998,-15,26,0
1997,-148,-1,977,-20,13,-1
1998,-112,-22,1005,-20,-6,-6
1999,-4,-44,998,-16,-23,-11
2000,97,-40,1002,-12,-21,-13
2001,135,-22,1003,-6,-6,-10
2002,45,-2,1005,-10,18,-3
2003,-58,8,996,-15,26,-1
2004,-148,1,976,-19,19,0
2005,-120,-17,1000,-18,-4,-4
2006,-34,-42,994,-17,-20,-10
2007,92,-36,1009,-11,-22,-13
2008,130,-29,1001,-10,-8,-11
2009,67,-8,1006,-8,15,-5
2010,-38,3,995,-12,23,-3
2011,-142,6,985,-18,20,-1
2012,-127,-18,995,-19,1,-5
2013,-56,-36,991,-19,-17,-10
2014,82,-35,1006,-13,-24,-13
2015,126,-35,1010,-10,-10,-11
2016,83,-12,1001,-10,12,-6
2017,-18,2,993,-14,25,-3
2018,-128,7,990,-15,23,0
2019,-135,-14,995,-19,4,-5
2020,-71,-28,986,-20,-15,-8
2021,63,-36,1003,-15,-25,-12
2022,118,-39,1010,-11,-15,-13
2023,99,-13,1002,-9,6,-6
2024,1,8,996,-12,22,-2
2025,-110,1,994,-17,23,2
2026,-140,-12,985,-20,8,-3
2027,-83,-24,989,-19,-12,-7
2028,41,-41,1007,-16,-24,-12
2029,111,-41,1001,-11,-17,-11
2030,115,-13,1005,-8,2,-8
2031,16,2,999,-7,20,-4
2032,-98,4,1006,-7,16,-3
2033,-145,-3,973,-16,5,-3
2034,-100,-19,995,-19,-11,-6
2035,18,-44,1002,-18,-24,-11
2036,104,-43,1005,-13,-19,-13
2037,133,-19,999,-10,-3,-9
2038,26,0,1002,-9,20,-3
2039,-72,4,995,-13,25,-2
2040,-147,0,979,-19,15,0
2041,-111,-19,1002,-20,-7,-4
2042,8,-24,1010,-19,-22,-11
2043,143,-29,817,-72,-30,-21
2044,35,-32,779,33,11,-9
2045,39,-21,749,-30,37,-2
2046,-55,-14,437,-15,-19,10
2047,-132,11,731,49,30,-3
2048,-94,16,845,-47,8,1
2049,-48,-41,930,10,-5,-15
2050,76,-31,792,-28,-25,-15
2051,106,-38,614,-21,-20,-14
2052,56,-50,798,14,13,-5
2053,-26,-21,974,-35,28,-1
2054,46,178,1013,12,13,2
2055,-90,59,593,120,-13,-46
2056,-94,-182,302,106,68,-79
2057,-105,-94,421,201,-26,-45
2058,160,94,425,0,11,-34
2059,-29,1,442,29,29,-10
2060,16,-12,528,89,6,-24
2061,58,31,551,-110,-22,-9
2062,-174,177,629,8,48,5
2063,8,-95,666,-61,46,-21
2064,19,-96,734,-47,-46,-23
2065,160,-89,697,78,-76,-26
2066,151,-3,804,-49,-42,-7
2067,149,-37,611,28,65,5
2068,-106,108,719,-33,116,19
2069,-105,-134,583,-63,-2,-26
2070,-29,11,534,23,-66,7
2071,44,4,374,-15,-50,-23
2072,193,165,430,86,34,5
2073,130,1,596,51,73,-34
2074,-68,-162,481,-116,-13,8
2075,-248,27,445,95,26,19
2076,-191,-79,570,-58,20,-14
2077,-102,-37,457,10,-5,-9
2078,63,52,597,9,-44,-10
2079,185,-14,488,-24,-23,-27
2080,193,-11,628,9,21,-2
2081,141,56,747,57,39,50
2082,-444,-121,838,34,102,-65
2083,-396,-293,779,20,6,-3
2084,-64,75,382,47,-46,-1
2085,201,-93,295,7,-29,-43
2086,374,73,525,31,-19,-12
2087,251,65,533,78,41,52
2088,-235,-34,900,-69,126,-22
2089,-414,-256,471,-38,21,5
2090,-217,42,169,19,-14,23
2091,-3,-82,173,-24,-47,-23
2092,277,-7,325,27,-30,-16
2093,271,93,486,-9,-9,6
2094,256,194,771,-182,-20,12
2095,-335,12,624,-138,-52,-68
2096,-411,-399,311,-139,47,-109
2097,-175,-71,289,-49,-44,5
2098,69,-80,489,101,-24,-58
2099,270,-1,566,-28,-44,-29
2100,274,132,578,108,3,-1
2101,-22,82,660,-44,35,-9
2102,-140,14,694,-37,34,-3
2103,-214,-59,705,15,29,-1
2104,-139,-87,704,-64,-5,-5
2105,40,-87,832,14,-20,-15
2106,101,-42,901,5,-18,-11
2107,109,5,961,-21,-9,-3
2108,32,32,1045,18,11,-7
2109,-35,22,962,-31,17,-1
2110,-77,25,931,-23,19,1
2111,-94,-14,985,-16,7,-4
2112,-39,-55,972,-36,-15,-8
2113,-4,-61,970,-3,-14,-5
2114,38,-48,1013,-15,-14,-7
2115,66,-35,1002,-12,-2,-9
2116,47,9,991,3,13,-4
2117,-16,36,1005,-17,17,-3
2118,-64,16,1011,-14,12,-5
2119,-102,-9,971,-23,1,-2
2120,-72,-30,997,-28,-12,-5
2121,14,-73,1010,-16,-19,-11
2122,81,-56,988,-12,-10,-8
2123,102,-20,998,-3,4,-7
2124,22,14,1009,-3,18,-4
2125,-62,25,997,-13,17,0
2126,-133,23,981,-19,10,-1
2127,-103,-14,1013,-24,-7,-5
2128,-10,-59,994,-23,-19,-8
2129,89,-62,996,-11,-17,-11
2130,124,-39,1002,-10,-6,-8
2131,49,-11,1006,-5,16,-4
2132,-51,17,999,-9,22,-1
2133,-142,26,984,-19,14,0
2134,-117,-3,1001,-21,-4,-4
2135,-38,-41,996,-21,-19,-7
2136,88,-50,1007,-18,-21,-11
2137,128,-47,1002,-10,-9,-11
2138,68,-20,995,-5,12,-5
2139,-39,10,1002,-8,23,-1
2140,-135,20,989,-15,19,1
2141,-132,-3,995,-21,1,-3
2142,-53,-27,987,-19,-16,-8
2143,76,-37,1004,-16,-24,-11
2144,124,-42,1006,-11,-12,-9
2145,81,-25,1008,-8,9,-6
2146,-13,2,991,-10,22,-2
2147,-128,8,992,-14,22,2
2148,-134,-8,994,-18,4,-3
2149,-72,-24,993,-19,-15,-7
2150,63,-34,1000,-15,-25,-11
2151,110,-40,1008,-12,-12,-10
2152,100,-13,1006,-10,5,-7
2153,0,2,1000,-13,22,-1
2154,-107,2,994,-15,22,1
2155,-138,-11,988,-19,7,-1
2156,-81,-21,986,-19,-11,-6
2157,38,-39,1006,-16,-25,-10
2158,107,-42,1004,-11,-16,-11
2159,112,-9,1001,-8,2,-7
2160,17,0,999,-13,20,-3
2161,-91,2,1006,-15,23,1
2162,-139,-5,973,-19,9,-1
2163,-97,-22,995,-19,-8,-5
2164,12,-43,1004,-16,-22,-10
2165,102,-39,1003,-12,-17,-10
2166,124,-18,1004,-9,-2,-9
2167,30,1,1001,-11,19,-4
2168,-70,1,998,-15,24,-1
2169,-140,1,977,-19,15,-2
2170,-111,-22,1002,-22,-5,-5
2171,-11,-46,998,-17,-21,-11
2172,97,-41,1003,-11,-21,-11
2173,127,-24,1001,-8,-5,-10
2174,50,-2,1010,-9,18,-4
2175,-48,6,995,-13,25,-2
2176,-142,7,974,-18,17,0
2177,-118,-20,1000,-17,-3,-4
2178,-37,-42,996,-19,-20,-9
2179,90,-39,1005,-14,-22,-11
2180,125,-29,1005,-9,-8,-10
2181,68,-9,1000,-9,12,-3
2182,-32,7,992,-11,25,-3
2183,-134,13,991,-19,21,1
2184,-126,-21,993,-21,1,-4
2185,-55,-36,986,-18,-18,-10
2186,73,-37,1005,-13,-26,-13
2187,118,-35,1012,-8,-11,-12
2188,86,-13,1007,-10,10,-5
2189,-17,12,992,-12,24,-4
2190,-118,8,989,-16,23,-1
2191,-137,-15,996,-21,4,-3
2192,-72,-29,985,-20,-14,-8
2193,57,-39,1008,-15,-24,-12
2194,111,-41,1005,-11,-15,-12
2195,102,-11,1004,-9,5,-8
2196,3,9,1000,-12,22,-3
2197,-110,6,994,-17,23,1
2198,-140,-11,987,-20,7,-3
2199,-87,-25,990,-20,-12,-6
2200,35,-44,1006,-15,-25,-12
2201,106,-43,1006,-10,-18,-12
2202,116,-12,1002,-7,1,-9
2203,19,4,999,-11,23,-4
2204,-92,2,1000,-15,25,0
2205,-143,-4,974,-20,10,-2
2206,-98,-21,997,-20,-8,-6
2207,9,-42,1005,-16,-23,-10
2208,105,-40,1005,-12,-18,-12
2209,124,-20,1001,-10,-2,-8
2210,32,0,1001,-10,18,-4
2211,-65,1,1000,-15,25,-1
2212,-144,0,974,-19,15,-1
2213,-108,-18,1005,-20,-5,-6
2214,-16,-46,996,-17,-23,-11
2215,94,-36,1002,-11,-22,-13
2216,128,-24,1004,-9,-6,-10
2217,53,-4,1009,-11,17,-5
2218,-47,5,993,-14,25,-1
2219,-139,9,979,-18,18,0
2220,-118,-22,998,-19,-2,-5
2221,-46,-38,995,-18,-20,-8
2222,86,-39,1008,-14,-24,-13
2223,124,-30,1007,-9,-8,-10
2224,138,4,956,113,17,19
2225,-66,15,511,-140,1,-18
2226,-152,-26,812,10,45,-6
2227,-114,-33,442,-64,0,-13
2228,-65,-17,830,-59,-68,-14
2229,88,-36,924,-10,-12,-9
2230,136,-22,955,92,47,-13
2231,86,2,932,-38,-1,-6
2232,-29,-1,967,-20,-10,-3
2233,-135,7,955,-7,32,-2
2234,-131,-24,930,-48,31,0
2235,-76,-17,981,0,-12,-8
2236,50,-50,988,-22,-47,-14
2237,96,-21,1005,-9,-20,-12
2238,78,-46,988,-5,24,-6
2239,-9,-55,993,-20,24,2
2240,86,171,1056,-36,0,-3
2241,-111,61,406,108,36,79
2242,-79,-77,413,378,133,-16
2243,-256,-11,373,-6,14,-3
2244,-29,-57,221,202,33,-31
2245,108,-97,248,-124,-54,-51
2246,-1,-37,147,119,29,-29
2247,160,-95,266,80,9,-10
2248,-77,-87,236,235,144,-17
2249,-201,53,437,197,61,-74
2250,-236,-98,168,287,35,24
2251,-4,-111,382,1,-18,0
2252,354,17,680,101,10,-4
2253,343,0,472,-77,7,57
2254,-161,-15,412,40,65,2
2255,-336,-140,455,57,48,18
2256,-204,4,224,3,-34,10
2257,251,-117,105,-287,-17,-11
2258,-7,-183,512,-282,-130,-1
2259,33,-237,457,-135,18,-128
2260,32,54,557,79,37,22
2261,50,48,744,74,15,-32
2262,-36,-8,635,-135,-29,4
2263,-29,-35,1026,134,24,0
2264,-147,-205,510,-515,-11,147
2265,-115,-223,609,-318,-137,24
2266,-71,-257,631,-73,-2,28
2267,82,56,408,-237,-114,56
2268,261,23,344,36,-11,7
2269,-1,80,603,-58,28,17
2270,-201,-132,604,-74,22,20
2271,-167,12,643,-33,-12,4
2272,72,-153,698,-46,-20,20
2273,-83,-83,793,-151,-23,-21
2274,47,-316,587,-35,-16,-43
2275,116,67,271,-31,-30,12
2276,30,-11,278,10,9,-12
2277,56,163,514,-45,22,47
2278,-133,11,479,-90,24,-25
2279,-190,-256,734,-62,-22,-1
2280,44,17,754,0,-46,7
2281,147,-85,617,-18,-11,-26
2282,204,57,736,33,-7,-4
2283,130,101,848,-27,15,10
2284,-189,90,440,-73,10,57
2285,-317,-125,459,-58,30,-54
2286,-156,-280,789,-25,-12,3
2287,116,-8,666,42,-70,-7
2288,224,-92,342,-23,-44,-34
2289,257,110,506,16,13,-1
2290,12,92,513,10,61,10
2291,-251,54,606,-49,39,-1
2292,-272,-35,762,-28,-2,7
2293,-127,-100,633,-31,-22,-12
2294,113,-121,564,-38,-34,-15
2295,250,-42,681,25,-27,-17
2296,159,0,782,-1,2,-6
2297,-34,61,923,-3,35,4
2298,-206,47,906,-17,43,3
2299,-200,0,833,-33,10,-2
2300,-84,-55,850,-16,-24,-5
2301,108,-61,936,-25,-41,-14
2302,199,-63,986,-10,-17,-14
2303,111,-14,998,1,17,-4
2304,-36,20,998,-12,28,0
2305,-163,24,973,-15,27,2
2306,-170,-5,988,-22,7,-1
2307,-70,-36,1004,-23,-17,-9
2308,99,-46,1014,-12,-29,-14
2309,151,-36,1000,-14,-19,-10
2310,97,-19,1008,-8,5,-6
2311,-16,-2,997,-7,28,-1
2312,-145,9,981,-17,30,3
2313,-149,-11,996,-20,7,-2
2314,-69,-30,988,-18,-18,-9
2315,70,-30,998,-13,-30,-12
2316,126,-31,1012,-10,-15,-11
2317,102,-14,1012,-12,8,-7
2318,-6,3,987,-13,24,-1
2319,-120,0,990,-17,24,3
2320,-141,-19,994,-18,8,-3
2321,-79,-28,985,-18,-12,-7
2322,51,-33,1008,-13,-25,-12
2323,109,-33,1008,-9,-18,-12
2324,111,-9,1000,-9,2,-8
2325,8,5,1004,-14,23,-3
2326,-102,-1,1000,-17,28,1
2327,-139,-19,981,-20,11,-2
2328,-94,-29,987,-18,-11,-6
2329,25,-42,1011,-14,-25,-11
2330,108,-37,1004,-11,-19,-12
2331,116,-7,1001,-8,-1,-8
2332,27,7,1000,-12,21,-3
2333,-86,2,1001,-16,25,0
2334,-140,-5,974,-21,13,-1
2335,-103,-25,1002,-20,-8,-6
2336,2,-47,999,-18,-23,-10
2337,100,-40,1000,-11,-19,-12
2338,126,-16,1008,-8,-3,-9
2339,40,3,1005,-11,19,-3
2340,-61,6,998,-16,25,-1
2341,-141,0,978,-19,15,0
2342,-112,-21,1003,-20,-5,-5
2343,-20,-46,996,-18,-22,-10
2344,94,-40,1005,-11,-22,-13
2345,128,-25,1002,-9,-6,-9
2346,54,-2,1002,-10,16,-2
2347,-43,10,998,-14,24,-2
2348,-136,6,978,-21,18,1
2349,-119,-21,998,-21,-1,-5
2350,-45,-41,990,-19,-17,-8
2351,80,-39,1009,-14,-23,-11
2352,123,-34,1007,-8,-10,-11
2353,68,-10,1002,-7,13,-5
2354,-22,7,995,-13,25,-2
2355,-126,10,990,-17,21,1
2356,-128,-13,991,-21,1,-3
2357,-64,-32,985,-19,-16,-8
2358,68,-41,1004,-14,-24,-12
2359,110,-33,1011,-11,-12,-10
2360,90,-16,1005,-9,7,-6
2361,-6,9,994,-12,23,-2
2362,-118,6,990,-15,24,1
2363,-135,-15,993,-19,5,-3
2364,-73,-26,990,-18,-14,-7
2365,46,-40,1006,-12,-23,-11
2366,107,-41,1002,-11,-17,-11
2367,104,-16,1002,-8,3,-7
2368,3,5,1003,-11,22,-3
2369,-98,4,999,-17,24,0
2370,-137,-3,981,-18,8,-2
2371,-88,-22,987,-20,-12,-6
2372,25,-42,1009,-17,-24,-11
2373,101,-45,1003,-12,-16,-11
2374,115,-17,1000,-8,0,-9
2375,21,2,1001,-9,20,-3
2376,-80,6,998,-14,24,1
2377,-140,-1,978,-20,13,-1
2378,-101,-18,1001,-19,-8,-6
2379,0,-44,1001,-17,-23,-10
2380,101,-44,997,-13,-20,-12
2381,121,-24,1003,-8,-5,-8
2382,38,0,1002,-10,16,-4
2383,-62,3,999,-15,24,-2
2384,-138,7,974,-18,15,-1
2385,-112,-18,1002,-18,-5,-5
2386,-21,-43,999,-17,-20,-10
2387,91,-42,1001,-12,-21,-13
2388,127,-29,1004,-9,-7,-10
2389,55,-7,1001,-9,15,-3
2390,-37,10,995,-12,23,-3
2391,-135,8,982,-19,18,0
2392,-121,-20,996,-21,-2,-5
2393,-47,-41,995,-18,-18,-9
2394,81,-42,1002,-15,-23,-12
2395,118,-32,1008,-9,-10,-10
2396,75,-12,1002,-9,11,-6
2397,-24,11,994,-11,25,-4
2398,-122,12,991,-17,21,0
2399,-129,-13,998,-19,3,-5
2400,-63,-35,984,-21,-15,-9
2401,63,-42,1005,-15,-24,-12
2402,113,-39,1010,-12,-12,-11
2403,91,-13,1007,-9,8,-6
2404,-2,9,991,-10,22,-3
2405,-112,14,994,-15,22,1
2406,-132,-12,991,-21,6,-4
2407,-79,-27,989,-19,-11,-8
2408,46,-43,1006,-16,-24,-11
2409,119,-23,1013,-11,-15,-11
2410,127,-14,837,-130,-6,-22
2411,-30,-14,784,132,52,7
2412,-103,8,811,-137,28,-6
2413,-138,-13,766,34,-2,13
2414,-82,-24,842,38,-7,-3
2415,36,-27,686,-79,-32,5
2416,105,-47,570,67,3,-13
2417,105,-24,756,-50,4,-1
2418,8,9,828,14,13,-6
2419,-93,-2,959,5,20,-1
2420,-135,-5,984,-54,16,-1
2421,-107,-56,963,12,-2,-2
2422,15,-53,934,-20,-33,-12
2423,249,86,919,9,-49,-9
2424,152,92,414,104,55,-76
2425,-93,-178,332,77,76,-37
2426,-167,107,495,124,24,-30
2427,-85,14,412,-112,20,-18
2428,-53,-116,371,160,12,-14
2429,50,-86,370,-22,-24,-19
2430,297,156,469,-5,-17,-1
2431,-204,8,713,17,67,4
2432,-89,-108,572,-37,3,-18
2433,-70,110,386,54,-12,3
2434,75,11,250,-38,-1,-5
2435,144,183,239,9,55,5
2436,-149,22,811,-110,7,-11
2437,-104,53,275,106,-19,-5
2438,-14,155,117,-2,-59,-12
2439,72,55,341,-115,28,-12
2440,206,116,110,95,59,21
2441,-295,-51,578,-51,41,-7
2442,-368,-218,614,-123,-51,-18
2443,-231,-60,228,80,12,5
2444,53,-9,146,-51,8,-23
2445,158,-93,153,-37,-31,-8
2446,224,-3,453,16,-31,-18
2447,105,-200,341,-57,-32,50
2448,-265,-34,448,263,155,40
2449,-377,-178,365,-15,51,-48
2450,-30,96,194,112,-76,22
2451,45,-1,241,182,2,-17
2452,167,-193,212,-39,13,-64
2453,278,111,216,75,-1,12
2454,174,65,178,-67,-32,12
2455,-298,9,250,-243,-44,-12
2456,-425,-171,206,79,88,-82
2457,-197,8,40,-36,-29,17
2458,164,8,329,60,-56,-45
2459,304,-41,160,61,-52,26
2460,98,-18,511,-31,57,-31
2461,-209,-172,512,-77,52,7
2462,-200,198,311,41,0,28
2463,-144,-57,24,-85,-21,-16
2464,13,49,470,-72,-42,10
2465,-45,128,354,-82,-33,-10
2466,-65,-274,288,-68,-3,-89
2467,-31,-71,446,69,-32,21
2468,8,88,298,25,9,-25
2469,49,-30,371,28,35,-20
2470,3,161,484,12,25,16
2471,-25,-4,465,-48,5,17
2472,-79,-25,320,-37,4,-3
2473,-189,-232,761,-62,-3,-33
2474,48,-75,801,8,-32,9
2475,143,-49,702,-11,-11,-17
2476,118,-5,467,38,1,-17
2477,3,156,523,-4,19,16
2478,-167,65,604,-34,36,-2
2479,-180,2,774,-26,9,-2
2480,-20,-89,864,-49,-27,-10
2481,82,-115,852,-14,-27,-13
2482,153,-73,858,-6,-8,-7
2483,91,-14,919,-5,15,-8
2484,-79,39,952,9,30,4
2485,-168,54,949,-13,18,3
2486,-146,7,901,-26,-3,-6
2487,7,-31,863,-24,-21,-9
2488,111,-66,924,-25,-22,-12
2489,149,-53,978,-7,-7,-11
2490,51,-25,989,-8,15,-2
2491,-106,9,1001,-12,27,3
2492,-160,1,991,-13,16,-2
2493,-116,-3,976,-18,-3,-3
2494,16,-19,1004,-18,-23,-9
2495,117,-36,1012,-15,-25,-15
2496,136,-26,993,-12,-6,-9
2497,32,-8,1003,-12,19,-2
2498,-94,-9,1014,-17,28,0
2499,-155,-17,976,-21,14,-1
2500,-112,-20,988,-15,-7,-4
2501,15,-34,1010,-13,-24,-12
2502,110,-30,1006,-9,-19,-11
2503,133,-6,1002,-9,-4,-8
2504,29,3,1004,-14,15,-4
2505,-76,0,997,-17,23,0
2506,-148,-13,977,-23,17,-1
2507,-110,-33,1003,-18,-3,-4
2508,0,-49,999,-14,-22,-11
2509,99,-36,993,-7,-22,-12
2510,128,-5,1008,-5,-7,-10
2511,42,8,1010,-12,16,-4
2512,-58,9,997,-17,24,-1
2513,-139,-1,975,-23,16,0
2514,-110,-32,1000,-20,-2,-3
2515,-23,-54,992,-17,-19,-8
2516,86,-40,1006,-9,-21,-11
2517,125,-21,1005,-8,-9,-11
2518,53,6,1001,-9,12,-4
2519,-41,17,999,-14,24,-2
2520,-132,12,989,-22,19,0
2521,-113,-25,994,-22,-1,-5
2522,-49,-51,988,-19,-19,-8
2523,77,-45,1005,-11,-24,-12
2524,115,-37,1008,-7,-10,-11
2525,73,-4,1006,-9,10,-6
2526,-23,16,995,-11,24,-2
2527,-121,15,988,-18,21,1
2528,-124,-18,998,-22,3,-4
2529,-67,-36,982,-19,-14,-7
2530,62,-49,1002,-13,-24,-12
2531,106,-45,1011,-9,-11,-11
2532,88,-12,1002,-7,7,-4
2533,0,11,1000,-9,21,-4
2534,-111,12,995,-16,23,1
2535,-132,-5,986,-19,6,-2
2536,-76,-26,991,-20,-14,-6
2537,40,-47,1006,-17,-24,-10
2538,105,-48,1001,-11,-15,-11
2539,103,-18,1003,-7,3,-7
2540,10,7,1002,-10,20,-2
2541,-93,7,1004,-14,23,0
2542,-136,4,975,-18,9,-3
2543,-86,-21,992,-19,-11,-6
2544,18,-44,1007,-16,-24,-11
2545,99,-46,1005,-12,-18,-11
2546,113,-24,1001,-9,0,-8
2547,24,0,998,-10,20,-4
2548,-73,5,996,-13,24,-1
2549,-135,1,977,-19,13,-2
2550,-100,-15,1001,-17,-6,-5
2551,-6,-42,1000,-19,-21,-11
2552,90,-42,999,-12,-20,-12
2553,119,-29,1005,-8,-6,-10
2554,41,-5,1005,-10,16,-5
2555,-57,6,994,-12,24,-1
2556,-132,8,978,-16,15,-2
2557,-111,-17,1004,-20,-4,-5
2558,-29,-39,995,-19,-20,-9
2559,82,-38,1011,-14,-21,-12
2560,119,-32,1002,-10,-6,-12
2561,61,-11,998,-8,14,-5
2562,-34,4,996,-12,23,-3
2563,-128,13,986,-17,18,0
2564,-118,-18,995,-19,1,-4
2565,-54,-33,989,-17,-17,-8
2566,71,-39,1005,-13,-24,-12
2567,117,-37,1010,-9,-11,-12
2568,78,-12,1004,-9,10,-6
2569,-12,8,995,-10,24,-4
2570,-118,6,988,-17,21,0
2571,-73,63,876,2,14,-2
2572,-115,-108,295,16,-8,9
2573,27,-46,670,-26,-58,-16
2574,100,-44,400,-51,-10,-7
2575,138,-28,439,89,46,7
2576,4,-5,578,-54,-10,1
2577,-123,37,411,-31,-11,3
2578,-173,-7,404,18,39,-6
2579,-118,-78,643,-59,14,1
2580,63,-48,655,-5,-49,-14
2581,369,159,700,-37,-53,-18
2582,86,3,196,38,85,42
2583,-55,-199,206,26,56,-10
2584,-167,-73,255,-50,1,15
2585,-107,-80,189,40,-16,-2
2586,103,-25,191,82,30,20
2587,-289,-29,591,-40,81,13
2588,-16,-23,409,92,-15,-19
2589,-61,33,210,-5,-81,-2
2590,79,63,421,7,19,20
2591,34,205,216,31,97,8
2592,-109,-58,101,-231,50,14
2593,-91,-274,112,252,73,-13
2594,8,102,203,-22,134,61
2595,-91,-35,323,78,55,65
2596,62,98,198,412,74,55
2597,22,-80,612,-420,-58,14
2598,99,25,334,-70,-35,-2
2599,-256,-24,484,10,-9,153
2600,-277,-107,423,-239,16,25
2601,-31,-48,-19,158,-1,78
2602,56,62,178,-241,-105,39
2603,55,-285,286,42,13,-23
2604,221,150,143,115,33,34
2605,-77,-9,308,-233,-64,52
2606,-389,-45,72,109,48,-79
2607,-265,-106,124,-134,-26,39
2608,7,105,280,-1,-5,12
2609,87,31,366,89,8,24
2610,2,-232,487,21,11,-37
2611,-53,-3,92,37,9,46
2612,-32,201,139,53,49,13
2613,-51,25,256,-58,42,24
2614,-186,-41,659,68,38,-10
2615,-178,-222,463,31,7,-28
2616,2,43,416,-43,-36,21
2617,142,-107,438,65,7,-25
2618,221,-18,289,-21,-9,-18
2619,70,110,490,12,0,12
2620,-143,76,597,17,40,-8
2621,-198,32,654,-73,30,12
2622,-162,-39,766,-1,3,-5
2623,20,-125,680,-34,-40,-14
2624,152,-98,737,-6,-29,-11
2625,151,-10,853,29,8,-7
2626,60,26,915,-19,28,-4
2627,-103,51,970,1,29,4
2628,-188,34,953,-14,11,2
2629,-123,-11,982,-44,-7,-5
2630,9,-62,982,-12,-17,-10
2631,114,-65,980,-22,-25,-10
2632,154,-50,990,-6,-14,-11
2633,36,-10,987,0,17,-2
2634,-76,19,989,-20,32,2
2635,-149,22,980,-12,23,-2
2636,-121,2,1000,-20,-6,-3
2637,-11,-32,1001,-23,-26,-10
2638,97,-48,1014,-12,-22,-13
2639,127,-38,1001,-16,-8,-9
2640,50,-19,995,-10,15,-4
2641,-49,-2,994,-10,24,-1
2642,-132,10,973,-17,19,0
2643,-119,-8,999,-16,0,-3
2644,-41,-25,1004,-18,-19,-8
2645,81,-32,1015,-16,-24,-11
2646,119,-27,1000,-12,-12,-9
2647,70,-17,998,-13,11,-4
2648,-22,-6,992,-12,24,-3
2649,-123,-1,984,-15,21,2
2650,-125,-18,997,-19,1,-4
2651,-64,-33,995,-16,-16,-7
2652,62,-24,1006,-14,-23,-10
2653,113,-28,1008,-10,-12,-10
2654,90,-8,1008,-9,7,-7
2655,-8,1,986,-14,21,-2
2656,-113,2,985,-17,22,1
2657,-131,-26,1001,-20,4,-2
2658,-79,-32,984,-19,-13,-5
2659,48,-37,1010,-12,-23,-10
2660,109,-37,1004,-10,-14,-10
2661,100,-3,1003,-8,5,-6
2662,8,15,996,-11,21,-1
2663,-110,6,995,-18,23,1
2664,-135,-12,988,-21,9,-2
2665,-89,-33,992,-21,-11,-6
2666,31,-46,1007,-16,-24,-10
2667,106,-47,1003,-11,-16,-11
2668,113,-10,998,-7,1,-7
2669,18,8,997,-13,19,-3
2670,-93,12,1005,-14,25,0
2671,-140,-1,977,-21,12,0
2672,-98,-20,997,-21,-9,-7
2673,11,-51,1003,-16,-23,-12
2674,102,-50,1002,-11,-17,-13
2675,122,-20,1000,-8,-2,-9
2676,28,2,997,-10,16,-4
2677,-70,15,1000,-13,23,-2
2678,-145,10,979,-20,14,-1
2679,-106,-19,1006,-21,-4,-6
2680,-12,-50,1001,-18,-21,-11
2681,96,-49,994,-13,-21,-12
2682,125,-29,1006,-6,-5,-11
2683,45,-2,1002,-9,16,-4
2684,-57,9,998,-14,24,-1
2685,-141,14,979,-18,17,0
2686,-116,-17,1005,-21,-4,-4
2687,-31,-46,993,-18,-21,-10
2688,86,-45,1008,-12,-22,-12
2689,127,-35,1002,-9,-9,-12
2690,63,-7,999,-6,13,-7
2691,-35,12,998,-12,23,-3
2692,-133,14,989,-18,20,-1
2693,-119,-18,999,-21,0,-4
2694,-52,-39,986,-19,-17,-8
2695,75,-40,1004,-13,-25,-13
2696,115,-37,1009,-8,-12,-12
2697,75,-17,1007,-8,10,-7
2698,-16,12,993,-10,24,-3
2699,-118,14,993,-16,21,0
2700,-124,-11,996,-22,3,-3
2701,-68,-31,988,-22,-15,-7
2702,59,-41,1003,-18,-25,-11
2703,107,-46,1005,-11,-12,-13
2704,97,-15,1003,-2,12,-7
2705,0,7,999,-14,24,-2
2706,-107,11,998,-12,24,0
2707,-135,-7,987,-21,7,-3
2708,-79,-21,990,-20,-11,-6
2709,37,-45,1006,-16,-25,-11
2710,104,-48,1002,-12,-16,-12
2711,108,-15,1002,-8,2,-8
2712,18,4,1001,-11,21,-3
2713,-88,8,1002,-15,24,0
2714,-137,-1,977,-20,11,-3
2715,-94,-19,997,-20,-9,-5
2716,15,-43,1003,-15,-24,-10
2717,166,-9,1010,-137,-18,-44
2718,67,-28,434,128,48,24
2719,-7,-2,570,-110,7,-9
2720,-85,-67,532,-1,0,10
2721,-155,1,419,-5,13,2
2722,-103,-9,494,-55,8,7
2723,16,-51,505,33,-16,-8
2724,227,176,646,-51,-37,-12
2725,95,19,663,-11,10,14
2726,-112,-122,395,-53,31,8
2727,-117,-67,359,-43,-10,-4
2728,-111,-21,291,-9,-19,3
2729,145,-101,545,15,6,-8
2730,30,141,604,-92,24,19
2731,-29,-135,698,82,-24,-38
2732,-1,68,609,-99,-56,8
2733,8,18,381,-13,14,-4
2734,98,7,617,72,66,-3
2735,8,-116,632,-48,50,-2
2736,-98,-146,392,93,-17,-25
2737,-170,72,372,-10,-20,10
2738,-13,16,266,11,27,-21
2739,132,7,488,1,-3,-10
2740,388,9,738,-11,-39,23
2741,-116,85,487,-23,81,33
2742,-274,-150,555,4,106,-9
2743,-207,91,334,90,5,29
2744,75,96,383,37,-54,-13
2745,37,58,344,75,-18,-11
2746,230,-25,700,22,26,-28
2747,89,82,603,4,32,6
2748,-20,131,538,0,15,16
2749,-202,-54,254,0,39,-12
2750,-216,-73,262,35,32,-32
2751,-43,9,717,-26,-30,16
2752,179,-49,644,6,-38,-30
2753,260,57,407,69,-11,34
2754,19,6,727,-15,68,-28
2755,-204,-119,701,3,47,3
2756,-103,77,766,-3,0,24
2757,-140,-80,425,-36,1,-16
2758,79,15,477,-13,-36,-4
2759,89,-58,573,-35,-17,-6
2760,49,-36,753,2,1,-10
2761,34,-9,1033,-21,4,3
2762,-57,1,972,-23,18,-8
2763,-76,-6,879,-2,18,4
2764,-72,5,962,-32,-2,-4
2765,-37,-35,963,-17,-13,-6
2766,23,-41,973,-11,-19,-5
2767,52,-37,1010,-26,-11,-8
2768,69,-19,969,-3,5,-8
2769,15,-6,968,-15,20,-1
2770,-55,8,1002,-21,18,-1
2771,-96,4,976,-13,7,-3
2772,-76,-22,997,-23,-6,-4
2773,-33,-39,999,-17,-18,-6
2774,70,-39,1014,-13,-17,-11
2775,94,-38,1002,-15,-2,-7
2776,43,-9,996,-7,13,-3
2777,-25,10,1006,-13,18,-4
2778,-112,16,981,-17,16,-1
2779,-108,-8,997,-17,0,-3
2780,-48,-32,992,-21,-15,-8
2781,62,-42,1004,-15,-21,-11
2782,106,-40,1009,-13,-10,-9
2783,74,-19,1012,-10,9,-6
2784,-10,8,986,-9,23,-2
2785,-114,12,990,-15,21,1
2786,-122,-9,995,-19,2,-4
2787,-71,-26,988,-19,-13,-7
2788,56,-38,1001,-18,-22,-10
2789,98,-43,1015,-13,-12,-10
2790,95,-19,1007,-9,4,-6
2791,2,4,995,-12,20,-2
2792,-103,9,996,-15,22,0
2793,-132,-11,985,-20,8,-3
2794,-80,-21,991,-20,-10,-5
2795,32,-42,1005,-17,-24,-10
2796,99,-45,1010,-12,-16,-11
2797,110,-18,998,-8,1,-7
2798,19,6,1002,-10,21,-3
2799,-84,5,1001,-14,24,0
2800,-139,-4,973,-18,11,-1
2801,-97,-19,994,-20,-9,-5
2802,6,-46,1009,-16,-23,-10
2803,99,-41,1006,-11,-19,-12
2804,124,-17,1001,-10,-3,-7
2805,35,1,999,-9,18,-4
2806,-69,1,997,-14,24,-1
2807,-140,2,972,-19,15,0
2808,-109,-21,1007,-20,-4,-5
2809,-15,-42,1000,-18,-23,-10
2810,94,-39,1002,-12,-20,-11
2811,130,-24,1004,-9,-5,-10
2812,53,-2,1001,-10,17,-3
2813,-50,5,997,-15,25,0
2814,-139,7,975,-20,19,0
2815,-123,-19,1002,-20,-2,-4
2816,-39,-45,995,-17,-21,-9
2817,82,-39,1012,-11,-23,-11
2818,130,-29,1000,-9,-9,-10
2819,69,-8,1002,-9,12,-6
2820,-25,9,993,-13,23,-2
2821,-137,11,982,-18,21,1
2822,-127,-17,999,-21,1,-4
2823,-64,-41,991,-21,-17,-9
2824,76,-39,1006,-14,-24,-13
2825,127,-36,1008,-9,-11,-12
2826,83,-11,1006,-8,10,-6
2827,-10,13,993,-12,23,-3
2828,-128,8,990,-18,22,1
2829,-136,-12,996,-20,3,-4
2830,-77,-35,986,-20,-16,-7
2831,60,-39,1005,-16,-25,-11
2832,114,-44,1007,-12,-13,-13
2833,101,-12,1006,-6,5,-7
2834,2,9,993,-12,21,-3
2835,-113,8,999,-15,24,1
2836,-145,-10,987,-21,8,-2
2837,-86,-28,991,-21,-12,-8
2838,41,-43,1009,-17,-25,-13
2839,106,-45,1001,-10,-17,-12
2840,118,-14,1001,-7,1,-9
2841,17,6,1000,-10,21,-3
2842,-96,8,1002,-15,24,-1
2843,-142,0,979,-21,10,-3
2844,-100,-24,993,-21,-9,-7
2845,15,-44,1004,-17,-24,-12
2846,106,-45,1005,-12,-19,-13
2847,128,-21,999,-9,-2,-10
2848,31,1,1000,-9,19,-5
2849,-76,6,999,-14,26,-1
2850,-147,2,979,-20,15,-1
2851,-108,-16,1004,-19,-6,-5
2852,-10,-43,997,-17,-23,-11
2853,104,-41,1001,-11,-23,-13
2854,129,-27,1003,-7,-7,-10
2855,48,-4,1004,-8,16,-4
2856,-53,4,999,-14,24,-1
2857,-110,72,999,-20,17,0
2858,-28,18,611,-61,5,-6
2859,-48,-95,126,59,-4,1
2860,94,-37,448,-69,2,-20
2861,84,-94,772,-82,-22,10
2862,75,15,548,88,16,-2
2863,-37,17,553,8,19,-5
2864,-146,-15,544,-46,57,8
2865,11,118,415,49,3,-21
2866,61,89,543,-518,-100,-76
2867,-46,-142,517,-96,-131,-27
2868,-102,99,628,-142,-43,-18
2869,66,-86,376,-15,21,46
2870,79,200,34,-417,36,39
2871,-109,0,361,123,-2,23
2872,-3,2,342,-93,-69,26
2873,-155,137,-17,-322,-10,49
2874,-44,94,310,316,81,-25
2875,-151,-79,698,-287,-51,16
2876,209,-109,597,140,66,14
2877,-10,231,240,-136,39,-42
2878,-134,-70,398,-13,46,8
2879,-113,-275,544,8,-35,35
2880,-109,18,534,-116,-37,-24
2881,-10,6,399,-98,-24,-19
2882,229,-87,356,-61,7,21
2883,-46,80,459,-633,55,-42
2884,-96,-12,99,205,13,-18
2885,-122,-86,146,-5,-134,31
2886,69,209,-96,-144,75,19
2887,104,344,79,177,100,43
2888,-112,86,531,-468,-109,-31
2889,-133,79,270,7,-166,26
2890,79,84,300,-184,5,-7
2891,96,-170,297,-291,22,12
2892,-68,-239,445,188,-34,-9
2893,-183,-140,183,-234,-75,-34
2894,-127,133,746,139,12,12
2895,-91,46,595,38,73,-12
2896,151,83,606,-123,-53,-26
2897,298,110,565,123,-60,-8
2898,26,-33,429,-38,53,46
2899,-193,-266,369,-51,127,-62
2900,-163,-295,502,-33,6,6
2901,-158,-68,470,-3,-69,4
2902,-86,-132,201,11,-33,-33
2903,250,84,324,-27,-17,-12
2904,202,59,234,25,12,-6
2905,-9,96,312,-18,20,-8
2906,-144,11,461,-52,17,3
2907,-229,-55,590,-16,23,-1
2908,-121,-127,558,-50,-1,-1
2909,21,-104,666,18,-26,-14
2910,167,-67,690,10,-31,-12
2911,142,21,645,-6,-5,-4
2912,38,80,647,17,27,-5
2913,-64,64,560,-30,31,-4
2914,-173,34,517,-29,22,5
2915,-138,-42,654,-29,-8,-5
2916,-19,-109,782,-40,-23,-11
2917,96,-96,918,1,-19,-9
2918,119,-42,1009,-9,-12,-9
2919,87,2,1021,-2,9,-7
2920,-31,58,980,-1,27,2
2921,-137,60,1010,-24,25,3
2922,-132,-2,988,-31,3,-4
2923,-71,-48,932,-30,-17,-5
2924,57,-79,915,-20,-25,-9
2925,120,-81,924,-5,-10,-11
2926,107,-28,966,-2,9,-6
2927,-5,25,999,-5,24,-1
2928,-108,39,1012,-11,22,-1
2929,-147,19,981,-24,8,-1
2930,-92,-5,988,-24,-10,-5
2931,31,-53,1011,-25,-25,-12
2932,115,-74,997,-15,-18,-9
2933,122,-43,992,-7,0,-6
2934,22,-5,1010,-7,22,-3
2935,-94,16,1006,-8,25,1
2936,-153,21,983,-19,13,0
2937,-106,-1,1003,-21,-8,-5
2938,10,-37,1003,-18,-24,-10
2939,113,-52,994,-16,-19,-11
2940,129,-36,1001,-10,-3,-8
2941,35,-19,1005,-10,17,-3
2942,-75,0,998,-13,26,1
2943,-154,12,981,-15,18,1
2944,-113,-3,1005,-18,-5,-5
2945,-14,-31,996,-18,-22,-8
2946,102,-36,993,-12,-23,-11
2947,128,-31,1006,-12,-6,-10
2948,52,-17,1004,-12,16,-4
2949,-55,-2,997,-13,25,0
2950,-147,6,980,-17,18,1
2951,-120,-15,1000,-18,-3,-3
2952,-37,-36,990,-17,-19,-9
2953,89,-30,1010,-14,-23,-13
2954,129,-27,1003,-10,-9,-12
2955,65,-11,1002,-11,13,-5
2956,-33,2,1001,-15,23,-2
2957,-135,5,989,-17,21,-1
2958,-125,-23,992,-20,1,-5
2959,-57,-35,987,-17,-18,-8
2960,75,-36,1003,-14,-25,-12
2961,116,-33,1010,-8,-13,-11
2962,82,-7,1011,-9,9,-6
2963,-13,8,992,-15,24,-4
2964,-122,8,992,-17,23,0
2965,-135,-22,994,-20,4,-4
2966,-71,-34,983,-19,-15,-8
2967,60,-44,1004,-15,-24,-13
2968,110,-38,1011,-9,-13,-13
2969,101,-11,1006,-9,4,-8
2970,0,12,1001,-11,22,-3
2971,-110,9,995,-17,23,-1
2972,-135,-11,986,-20,9,-5
2973,-81,-28,989,-20,-11,-7
2974,33,-47,1003,-15,-25,-13
2975,105,-45,1006,-10,-19,-14
2976,110,-13,1000,-7,2,-10
2977,18,10,1002,-10,21,-5
2978,-88,10,1006,-16,24,-1
2979,-138,-3,977,-21,11,-2
2980,-97,-23,992,-21,-10,-6
2981,15,-48,1008,-18,-25,-10
2982,99,-46,1005,-11,-18,-11
2983,125,-18,1001,-10,-3,-11
2984,34,4,1004,-8,18,-5
2985,-69,10,995,-14,24,0
2986,-142,4,978,-21,14,-1
2987,-107,-25,1001,-21,-6,-6
2988,-14,-45,998,-18,-22,-10
2989,97,-45,1000,-11,-21,-12
2990,128,-26,1005,-6,-7,-10
2991,52,0,1005,-9,16,-4
2992,-52,9,998,-13,26,-1
2993,-82,90,944,-5,42,-2
2994,-103,-48,256,-191,-18,-6
2995,-91,-84,415,-64,-56,-23
2996,72,-86,453,-91,38,-17
2997,138,-38,362,-40,-39,-7
2998,75,-4,400,-6,-12,-7
2999,-33,-9,607,-80,15,-4
3000,-175,14,782,28,40,9
3001,17,173,761,-25,-12,-4
3002,-5,2,573,-40,-14,6
3003,-113,-130,277,-20,19,-4
3004,32,-75,447,12,2,-6
3005,206,6,434,-11,-41,-34
3006,38,-15,380,-77,-15,-27
3007,-135,-161,352,-103,48,9
3008,-150,57,181,42,49,-6
3009,-88,126,336,-58,-37,-17
3010,48,134,373,-63,-64,1
3011,-16,60,385,43,-16,-19
3012,86,-142,334,-24,49,18
3013,16,105,468,30,86,-5
3014,-92,27,403,-19,-36,-8
3015,-119,10,832,-35,-39,14
3016,-30,-315,379,400,86,-33
3017,-2,-129,584,58,129,-246
3018,-18,-437,173,-28,-128,-107
3019,105,24,231,214,-19,-67
3020,242,-85,293,71,59,-42
3021,-1,-172,469,-1,231,5
3022,-357,-94,557,186,92,-94
3023,-314,-99,678,115,48,-6
3024,13,-18,685,163,-32,-14
3025,172,132,469,71,42,25
3026,139,15,475,-28,17,-23
3027,-149,-265,503,134,32,20
3028,-187,183,443,-68,10,43
3029,-251,85,81,42,60,1
3030,124,157,319,-202,-123,29
3031,-110,12,382,-9,7,-50
3032,-59,-486,531,-87,-33,-48
3033,44,-127,704,-41,-134,40
3034,51,-25,416,-67,20,-23
3035,96,-58,367,34,57,-11
3036,46,110,174,-31,-10,19
3037,-207,25,141,-85,-4,-5
3038,-152,31,266,19,4,-1
3039,-22,-76,332,-105,-19,-11
3040,115,-96,278,-26,-44,-23
3041,143,-68,421,19,-14,-6
3042,47,-8,551,-54,11,-8
3043,-75,7,587,40,38,0
3044,-163,48,521,-31,22,4
3045,-132,0,440,-28,-13,-6
3046,38,-17,451,-4,-25,-11
3047,113,-42,476,-41,-16,-6
3048,113,-34,596,13,4,-8
3049,36,-40,708,-21,13,-3
3050,-123,-1,803,-20,21,6
3051,-140,-15,891,-3,13,0
3052,-96,-23,925,-25,-8,-6
3053,31,-9,964,-8,-22,-6
3054,115,-17,978,-6,-18,-12
3055,110,-16,936,-20,-2,-9
3056,13,0,872,-9,21,-1
3057,-106,-7,871,-28,24,1
3058,-139,-35,898,-20,9,-2
3059,-93,-35,929,-11,-8,-4
3060,37,-31,1009,-16,-21,-11
3061,109,-20,1016,-2,-14,-11
3062,108,5,1007,-12,0,-6
3063,15,18,1000,-17,18,-4
3064,-101,1,999,-18,23,2
3065,-141,-25,981,-25,10,-1
3066,-98,-40,998,-19,-7,-4
3067,27,-46,1011,-13,-23,-11
3068,100,-36,1007,-11,-18,-11
3069,116,1,1003,-3,0,-7
3070,27,20,1002,-13,19,-4
3071,-82,11,1000,-19,24,-1
3072,-148,-11,975,-22,13,0
3073,-100,-32,991,-23,-8,-5
3074,7,-55,1009,-15,-23,-10
3075,98,-47,1002,-9,-19,-11
3076,129,-9,1000,-7,-1,-9
3077,37,12,1002,-7,19,-3
3078,-73,17,995,-13,25,1
3079,-146,2,982,-23,14,0
3080,-114,-27,1003,-23,-5,-4
3081,-12,-50,1003,-18,-22,-10
3082,98,-52,1003,-12,-20,-13
3083,131,-21,1003,-6,-6,-8
3084,53,3,1000,-10,15,-3
3085,-60,12,1001,-13,25,-1
3086,-146,9,976,-21,17,0
3087,-120,-17,1007,-23,-3,-5
3088,-33,-49,997,-20,-21,-8
3089,95,-46,1002,-11,-23,-12
3090,135,-32,1004,-7,-7,-11
3091,61,0,999,-7,14,-5
3092,-40,11,1000,-14,24,-3
3093,-146,15,980,-18,19,0
3094,-129,-14,997,-21,-1,-3
3095,-46,-42,999,-21,-20,-9
3096,84,-43,1005,-14,-25,-12
3097,129,-36,1004,-11,-12,-11
3098,77,-13,997,-6,10,-6
3099,-28,12,999,-11,24,-3
3100,-131,16,990,-18,22,0
3101,-133,-10,998,-20,3,-3
3102,-63,-37,985,-20,-16,-9
3103,71,-39,1004,-13,-26,-14
3104,122,-41,1006,-10,-14,-13
3105,92,-15,1009,-8,7,-8
3106,-9,9,993,-10,24,-4
3107,-123,15,989,-16,23,1
3108,-138,-12,1001,-19,6,-4
3109,-78,-29,984,-20,-15,-8
3110,56,-46,1004,-15,-25,-13
3111,112,-45,1009,-12,-14,-12
3112,100,-13,1000,-8,4,-7
3113,5,7,999,-10,20,-4
3114,-109,10,997,-15,24,0
3115,-138,-5,986,-19,9,-4
3116,-87,-27,992,-21,-12,-8
3117,39,-46,1002,-16,-26,-12
3118,105,-47,1005,-9,-17,-13
3119,113,-16,996,-6,1,-9
3120,18,11,1006,-10,20,-5
3121,-84,12,1001,-14,25,-2
3122,-142,0,981,-19,12,-2
3123,-96,-21,989,-21,-9,-6
3124,15,-51,1007,-17,-23,-12
3125,104,-50,1002,-13,-19,-13
3126,123,-23,1002,-7,-2,-10
3127,32,2,1000,-10,18,-5
3128,-74,12,1001,-12,26,0
3129,-138,21,984,-20,14,0
3130,24,33,724,24,-13,-1
3131,-163,-87,280,-58,17,-7
3132,31,-157,425,38,-32,-20
3133,105,-36,258,37,-23,-14
3134,134,24,546,-27,9,-9
3135,47,79,790,31,44,-1
3136,1,148,802,-19,26,0
3137,-131,35,467,134,36,11
3138,-191,-78,454,56,19,-57
3139,-164,-88,447,307,57,-46
3140,74,-12,395,114,-11,-27
3141,199,49,269,-39,-21,-30
3142,3,102,567,157,25,-7
3143,43,115,584,383,253,-10
3144,-333,95,532,-195,326,32
3145,-91,-158,241,295,-37,-4
3146,4,-111,336,-330,-61,22
3147,319,-38,73,355,-25,-20
3148,337,99,433,-89,41,-5
3149,136,-33,382,-102,17,-12
3150,-88,82,162,327,61,16
3151,-351,-68,393,-299,-11,18
3152,-227,-179,406,-11,64,-58
3153,49,-180,466,12,-16,-9
3154,238,-127,402,-4,-95,-26
3155,446,3,497,69,-60,-30
3156,12,-122,928,-80,72,54
3157,-364,-30,614,-54,122,-52
3158,-376,-104,389,-112,-29,20
3159,-120,0,477,-51,-90,0
3160,83,-152,374,46,-33,-42
3161,329,72,604,-26,-4,-8
3162,321,151,583,-55,-26,49
3163,-184,106,348,-53,46,-34
3164,-43,-460,458,-95,67,-36
3165,-166,-98,380,-6,-32,33
3166,-64,-139,258,7,-41,-25
3167,133,7,279,-29,-46,-28
3168,259,68,102,47,-18,-4
3169,105,75,275,-39,38,-8
3170,-126,58,246,-24,48,6
3171,-255,-64,315,-10,25,1
3172,-225,-101,297,-65,4,0
3173,-49,-93,322,31,-19,-10
3174,143,-52,388,-7,-37,-18
3175,210,-19,468,-3,-21,-7
3176,103,82,520,31,16,-2
3177,-32,56,432,-38,34,-5
3178,-154,18,405,-23,36,5
3179,-189,-24,423,-30,10,4
3180,-64,-78,501,-42,-25,-10
3181,56,-107,638,-2,-28,-9
3182,118,-38,743,-5,-17,-7
3183,124,1,843,-1,2,-10
3184,22,25,890,5,25,-1
3185,-101,46,946,-20,27,5
3186,-149,17,963,-24,17,-1
3187,-100,-44,934,-29,-10,-3
3188,-10,-73,887,-22,-26,-7
3189,102,-69,888,-5,-21,-13
3190,133,-39,921,-5,-4,-9
3191,46,7,956,-4,19,0
3192,-53,36,996,-9,25,-1
3193,-141,31,985,-21,17,2
3194,-123,-4,993,-25,-2,-2
3195,-46,-47,1003,-23,-18,-9
3196,87,-65,1006,-16,-24,-12
3197,129,-54,995,-5,-10,-9
3198,71,-16,1007,-6,13,-4
3199,-26,17,1007,-9,25,-3
3200,-136,31,993,-17,23,1
3201,-137,6,1006,-20,1,-3
3202,-64,-31,988,-21,-18,-7
3203,73,-47,997,-18,-24,-12
3204,121,-55,1006,-12,-13,-9
3205,95,-29,1007,-7,7,-6
3206,-12,5,993,-8,24,0
3207,-126,21,989,-12,24,3
3208,-137,0,1002,-17,5,-4
3209,-80,-15,979,-21,-12,-6
3210,60,-39,1002,-17,-25,-12
3211,116,-49,1008,-12,-15,-12
3212,101,-23,1002,-9,5,-6
3213,5,-1,997,-12,23,-2
3214,-115,5,1005,-15,25,2
3215,-139,-1,982,-18,9,-2
3216,-89,-19,989,-21,-10,-7
3217,39,-39,1006,-18,-26,-11
3218,108,-45,1002,-12,-17,-12
3219,112,-19,998,-9,1,-7
3220,14,2,1010,-11,20,-3
3221,-91,5,1001,-14,25,1
3222,-148,-5,978,-20,12,-1
3223,-95,-17,991,-18,-9,-6
3224,13,-47,1000,-14,-24,-10
3225,103,-36,1004,-11,-18,-12
3226,120,-17,1004,-10,-3,-10
3227,27,3,1000,-10,18,-4
3228,-76,4,1000,-14,25,-1
3229,-145,1,979,-20,15,-1
3230,-105,-26,996,-21,-7,-5
3231,-6,-45,1000,-18,-22,-11
3232,95,-42,1000,-11,-21,-12
3233,128,-20,1004,-8,-6,-11
3234,44,0,1006,-9,16,-5
3235,-56,7,995,-14,24,-1
3236,-137,6,979,-18,16,0
3237,-114,-25,996,-19,-3,-5
3238,-30,-47,997,-18,-20,-10
3239,91,-40,1004,-10,-22,-12
3240,127,-27,1004,-9,-7,-11
3241,64,0,1004,-9,14,-6
3242,-40,11,1000,-12,24,-3
3243,-136,11,979,-20,21,-1
3244,-123,-22,996,-21,1,-4
3245,-49,-46,995,-19,-18,-10
3246,80,-41,1005,-15,-24,-13
3247,123,-32,1003,-9,-10,-12
3248,76,-6,1000,-8,10,-8
3249,-21,15,1000,-12,24,-4
3250,-124,13,985,-19,21,0
3251,-130,-17,999,-20,2,-5
3252,-65,-44,982,-20,-16,-10
3253,64,-42,1006,-13,-24,-13
3254,119,-36,1011,-10,-13,-12
3255,89,-9,1009,-8,7,-8
3256,-2,16,990,-11,22,-3
3257,-116,12,991,-18,23,2
3258,-137,-11,996,-21,4,-3
3259,-80,-35,983,-20,-14,-8
3260,52,-46,1009,-14,-24,-13
3261,112,-44,1005,-11,-15,-13
3262,104,-13,1008,-7,5,-8
3263,11,9,996,-10,22,-3
3264,-106,14,997,-16,25,1
3265,-138,-5,985,-19,9,-2
3266,-92,-27,992,-22,-12,-6
3267,37,-31,1008,-17,-26,-11
3268,199,10,875,29,-43,0
3269,-8,-70,325,-82,30,-12
3270,-22,-83,483,128,24,-20
3271,-123,-24,296,-36,26,-16
3272,-81,49,478,9,6,-4
3273,52,215,787,-4,0,-24
3274,-53,36,347,-93,-8,31
3275,50,-128,446,-7,-26,-19
3276,12,-83,381,-9,-23,-9
3277,144,131,310,13,24,0
3278,26,106,542,-5,44,9
3279,-201,-11,694,-84,19,-9
3280,-162,-104,238,-61,-21,5
3281,-37,-25,156,87,-61,-14
3282,250,56,297,-160,-24,-22
3283,273,267,270,-13,-15,23
3284,184,83,540,-64,18,-19
3285,-185,-49,82,-51,22,2
3286,-244,-82,43,70,29,-5
3287,115,4,214,-132,-38,9
3288,9,-72,287,67,-31,21
3289,-86,42,506,-26,-5,-62
3290,65,-141,564,34,1,2
3291,89,77,466,104,14,-8
3292,136,-58,479,-99,3,-21
3293,37,-234,337,-39,-24,44
3294,-277,-96,169,-320,41,-98
3295,-239,-143,440,35,-31,6
3296,92,144,332,-126,-105,-4
3297,179,38,304,-1,-35,-46
3298,319,143,343,93,42,2
3299,57,108,246,-27,76,91
3300,-9,-61,311,13,127,-72
3301,-235,-385,268,-55,36,9
3302,23,-50,399,12,-69,8
3303,110,-130,331,25,-61,-43
3304,162,0,161,-12,-15,-26
3305,140,76,147,61,35,6
3306,-26,84,320,-68,48,1
3307,-244,20,367,-25,39,6
3308,-273,-76,436,-17,18,-1
3309,-107,-138,309,-67,-25,-7
3310,123,-110,399,30,-48,-16
3311,235,-58,420,-13,-32,-16
3312,162,26,461,16,9,-3
3313,-44,114,464,-7,41,6
3314,-172,53,411,-53,34,3
3315,-200,-11,335,-24,12,2
3316,-108,-69,407,-42,-16,-2
3317,84,-101,632,-24,-39,-14
3318,162,-94,802,-2,-24,-10
3319,125,0,914,-12,2,-3
3320,6,39,941,11,33,-4
3321,-126,46,909,-15,37,5
3322,-176,29,862,-27,14,4
3323,-88,-30,840,-20,-15,-9
3324,37,-78,820,-28,-30,-11
3325,114,-64,822,-10,-18,-10
3326,124,-34,917,-5,-1,-8
3327,26,1,987,-7,20,-3
3328,-96,24,999,-9,29,3
3329,-146,18,986,-20,16,0
3330,-104,-11,996,-24,-6,-4
3331,4,-45,1000,-18,-26,-10
3332,97,-51,1008,-15,-24,-11
3333,124,-31,1008,-8,-3,-9
3334,36,-10,1000,-9,22,-2
3335,-65,2,995,-13,25,1
3336,-135,6,972,-14,16,1
3337,-113,-7,994,-18,-3,-3
3338,-24,-32,1000,-19,-20,-8
3339,83,-40,1005,-13,-22,-11
3340,120,-29,1004,-11,-8,-10
3341,56,-10,1005,-10,16,-4
3342,-36,0,998,-14,26,-2
3343,-131,5,971,-17,18,1
3344,-122,-13,997,-17,-3,-3
3345,-48,-34,1002,-19,-19,-8
3346,76,-35,1010,-14,-22,-11
3347,116,-26,1004,-11,-10,-9
3348,75,-9,1005,-10,11,-5
3349,-21,0,996,-14,21,-2
3350,-121,8,979,-18,22,0
3351,-129,-21,999,-20,4,-4
3352,-65,-35,989,-19,-16,-9
3353,64,-33,1004,-12,-24,-11
3354,119,-28,1013,-9,-13,-10
3355,89,-11,1005,-10,9,-6
3356,-5,9,989,-13,23,-1
3357,-117,8,986,-18,23,0
3358,-135,-20,999,-22,5,-3
3359,-81,-36,980,-20,-13,-6
3360,53,-37,1005,-15,-24,-12
3361,112,-36,1015,-11,-15,-12
3362,104,-10,1003,-8,5,-7
3363,3,10,994,-12,21,-1
3364,-111,8,992,-17,23,1
3365,-141,-14,991,-19,7,-3
3366,-90,-29,988,-20,-12,-6
3367,39,-44,1007,-15,-25,-12
3368,108,-46,1002,-10,-16,-12
3369,113,-8,1000,-7,2,-7
3370,19,7,998,-11,21,-4
3371,-98,9,1005,-14,25,0
3372,-147,-6,978,-20,11,-1
3373,-100,-28,992,-19,-13,-7
3374,19,-47,1009,-16,-26,-11
3375,104,-44,1005,-11,-18,-11
3376,126,-17,995,-7,-1,-9
3377,26,7,1004,-7,19,-5
3378,-82,15,998,-14,25,0
3379,-147,4,983,-19,12,-2
3380,-107,-21,998,-21,-7,-4
3381,1,-48,1003,-18,-22,-12
3382,103,-46,1003,-10,-21,-13
3383,128,-24,1001,-8,-5,-10
3384,39,3,1001,-7,17,-5
3385,-66,11,999,-13,24,-2
3386,-147,9,980,-19,17,-2
3387,-114,-16,1003,-21,-5,-6
3388,-19,-48,1000,-19,-21,-12
3389,95,-49,999,-11,-22,-13
3390,129,-29,1003,-7,-7,-11
3391,52,-5,1005,-9,15,-6
3392,-48,12,998,-13,25,-2
3393,-139,12,977,-19,19,0
3394,-123,-13,1001,-20,-1,-4
3395,-39,-44,997,-19,-20,-10
3396,84,-48,1005,-13,-22,-14
3397,126,-34,1000,-10,-10,-12
3398,69,-9,1001,-7,11,-6
3399,-29,12,998,-11,23,-3
3400,-132,18,985,-18,21,0
3401,-129,-13,999,-21,2,-4
3402,-58,-40,989,-21,-17,-9
3403,71,-44,1006,-13,-25,-12
3404,122,-38,1006,-8,-13,-12
3405,83,-15,1003,-6,8,-6
3406,-10,11,993,-11,23,-3
3407,-92,85,1007,-18,19,-6
3408,-167,-41,840,-42,15,2
3409,-93,-105,800,5,-16,-3
3410,44,-55,530,-30,-29,-18
3411,140,-58,677,9,-15,-12
3412,146,93,930,0,12,-18
3413,-3,61,890,-36,18,7
3414,-136,-41,690,-38,7,3
3415,-140,57,831,-60,3,-8
3416,-132,-6,577,-41,1,3
3417,5,-151,643,-45,-23,-8
3418,100,-55,811,18,-35,-16
3419,148,2,756,2,-6,-7
3420,64,79,713,-11,24,-3
3421,94,88,569,289,160,-28
3422,-454,67,846,-261,138,19
3423,-205,-154,403,114,2,-13
3424,-23,-60,57,48,-19,3
3425,178,-72,160,-59,-90,-23
3426,278,135,122,67,7,-2
3427,108,23,303,-89,28,3
3428,-177,-5,703,8,56,0
3429,-268,-82,838,27,10,1
3430,-146,-73,690,-86,-11,-6
3431,44,-22,429,227,33,61
3432,41,12,663,19,65,-32
3433,36,-218,506,-9,-52,4
3434,22,125,409,54,26,28
3435,-21,49,190,-43,30,-9
3436,54,73,242,3,21,5
3437,20,140,516,181,32,128
3438,-211,-165,427,-76,63,-60
3439,-73,-427,287,50,-44,8
3440,126,87,560,34,-33,25
3441,145,-16,548,-11,-11,-20
3442,184,186,525,-11,12,3
3443,-34,134,305,-28,30,19
3444,-189,73,452,-61,34,-2
3445,-179,-71,700,-40,-3,2
3446,-52,-131,667,-53,-35,-16
3447,165,-151,656,-39,-39,-13
3448,197,-66,808,21,-10,-15
3449,93,12,886,-2,16,-1
3450,-96,92,954,3,39,8
3451,-221,78,966,-8,25,3
3452,-155,7,851,-31,-5,-6
3453,16,-57,827,-30,-23,-10
3454,136,-85,901,-18,-26,-13
3455,175,-82,936,-13,-8,-14
3456,43,-36,972,-1,22,-3
3457,-131,33,1007,-8,33,5
3458,-163,18,1004,-14,16,-2
3459,-127,4,972,-20,-7,-2
3460,35,-6,1001,-19,-25,-8
3461,134,-47,1025,-18,-22,-14
3462,131,-43,997,-14,-4,-7
3463,21,-17,992,-14,18,-2
3464,-106,-13,1000,-14,27,0
3465,-156,-15,982,-14,16,2
3466,-105,-9,985,-16,-9,-3
3467,36,-19,1015,-14,-25,-11
3468,113,-25,1003,-12,-21,-11
3469,117,-4,1001,-10,-1,-7
3470,27,1,1003,-18,19,-2
3471,-97,-11,999,-19,25,1
3472,-148,-29,977,-19,13,0
3473,-102,-32,992,-17,-7,-4
3474,23,-40,1008,-13,-23,-11
3475,101,-27,1006,-8,-21,-10
3476,121,3,1005,-8,-3,-9
3477,31,14,1000,-15,20,-4
3478,-81,2,1002,-19,26,0
3479,-144,-16,975,-22,14,1
3480,-106,-39,990,-21,-5,-5
3481,2,-55,1006,-13,-21,-10
3482,94,-39,1003,-9,-19,-10
3483,131,-5,1001,-5,-4,-9
3484,41,15,1000,-7,17,-3
3485,-68,18,996,-17,25,1
3486,-140,-2,980,-23,16,0
3487,-115,-30,1002,-22,-4,-4
3488,-21,-58,997,-20,-22,-8
3489,99,-51,1001,-9,-22,-13
3490,130,-21,1001,-4,-6,-9
3491,55,9,1003,-9,15,-4
3492,-52,16,1001,-13,25,0
3493,-143,11,975,-20,18,1
3494,-119,-19,1003,-22,-3,-4
3495,-39,-51,1001,-19,-20,-10
3496,89,-47,1001,-13,-22,-12
3497,129,-38,1003,-8,-9,-11
3498,67,-2,1003,-6,13,-5
3499,-36,11,996,-11,25,-2
3500,-138,21,981,-18,21,2
3501,-126,-14,1000,-21,2,-4
3502,-53,-41,992,-20,-17,-8
3503,78,-47,1007,-13,-24,-12
3504,125,-40,1005,-8,-11,-11
3505,79,-15,1000,-7,10,-5
3506,-18,12,998,-10,23,-2
3507,-131,16,995,-17,22,2
3508,-129,-10,994,-19,3,-3
3509,-71,-33,987,-20,-15,-8
3510,67,-45,1002,-14,-24,-13
3511,116,-45,1008,-9,-14,-12
3512,95,-20,1005,-9,6,-7
3513,-8,10,994,-10,24,-3
3514,-115,13,988,-16,23,1
3515,-140,-11,998,-20,7,-2
3516,-79,-28,987,-20,-13,-7
3517,51,-41,1004,-16,-24,-13
3518,109,-47,1006,-10,-15,-13
3519,105,-16,1003,-7,3,-7
3520,9,6,999,-10,21,-4
3521,-108,12,999,-15,24,-1
3522,-138,-6,987,-19,10,-3
3523,-94,-25,988,-19,-9,-6
3524,32,-44,1007,-16,-25,-12
3525,106,-48,1003,-11,-17,-13
3526,116,-15,1000,-7,0,-9
3527,19,5,1000,-11,20,-4
3528,-90,9,1005,-13,25,0
3529,-141,-1,976,-20,12,-1
3530,-100,-24,995,-20,-8,-6
3531,11,-45,1004,-15,-23,-12
3532,98,-46,1005,-11,-19,-13
3533,125,-21,1000,-7,-3,-11
3534,33,1,1001,-9,17,-5
3535,-73,12,998,-15,24,-1
3536,-140,3,982,-20,16,-1
3537,-109,-19,1002,-20,-7,-6
3538,-10,-48,999,-18,-22,-11
3539,96,-48,1001,-11,-20,-13
3540,127,-27,1002,-8,-6,-9
3541,48,1,1000,-9,15,-5
3542,-51,10,1004,-12,26,-3
3543,-140,13,973,-19,17,-1
3544,-118,-17,1005,-21,-3,-4
3545,-27,-46,998,-18,-20,-10
3546,84,-47,1004,-13,-20,-11
3547,129,-33,1001,-9,-8,-11
3548,61,-7,1005,-8,14,-4
3549,-34,12,993,-12,23,-2
3550,-132,15,986,-17,21,0
3551,-60,100,964,-12,0,-7
3552,-63,-98,676,-29,-15,-13
3553,-24,-125,524,-53,-18,-1
3554,87,-81,419,13,-24,-21
3555,99,-55,366,11,-4,-9
3556,30,73,751,-13,28,-3
3557,-42,201,903,-34,25,-15
3558,-172,16,583,-14,32,-1
3559,-109,-112,436,16,-37,-22
3560,72,-21,374,-74,-48,-26
3561,-26,69,523,50,9,0
3562,-29,-11,578,-106,24,-9
3563,28,18,696,53,6,-18
3564,-64,46,628,35,-23,1
3565,-26,132,679,-50,-6,16
3566,-80,15,814,582,59,41
3567,-48,-76,469,-12,96,29
3568,55,-89,169,-103,-114,-22
3569,124,-76,30,97,-8,-17
3570,53,4,284,-113,-36,-8
3571,0,157,613,120,90,2
3572,37,54,758,103,75,31
3573,-353,-52,583,104,69,-84
3574,-326,-279,394,103,-65,-59
3575,39,3,-57,-12,33,-28
3576,246,-43,254,51,15,-46
3577,270,-5,400,39,-81,-36
3578,305,267,657,-19,-20,5
3579,-209,41,518,-48,140,68
3580,-538,-147,132,-148,110,-76
3581,-344,-286,-23,-3,-124,-7
3582,89,-18,271,-32,-144,-10
3583,339,-73,218,39,20,-53
3584,399,178,469,41,46,-12
3585,336,191,598,-94,10,52
3586,-201,128,358,89,47,50
3587,-75,-427,359,-179,27,-81
3588,-128,-298,380,-84,2,16
3589,26,-117,47,156,-26,-27
3590,217,-189,302,-57,-129,-51
3591,239,73,373,18,-26,4
3592,-50,136,279,43,114,11
3593,-275,165,283,-130,79,6
3594,-343,-52,264,-28,-9,11
3595,-226,-138,373,-43,-58,-5
3596,146,-197,312,-69,-36,-18
3597,352,-95,491,59,-3,-27
3598,254,-12,536,-11,-5,-3
3599,-6,142,593,26,24,6
3600,-235,83,503,24,54,2
3601,-285,25,478,-75,37,6
3602,-156,-52,450,-14,-13,-4
3603,102,-93,450,-19,-54,-18
3604,247,-99,533,-30,-41,-16
3605,160,-30,643,15,15,-5
3606,0,22,759,-18,36,-3
3607,-164,31,840,-4,34,3
3608,-223,18,915,-11,9,4
3609,-111,-9,960,-39,-18,-8
3610,80,-47,954,-12,-28,-14
3611,158,-51,897,-19,-24,-11
3612,135,-31,853,-14,-4,-7
3613,8,-17,832,-5,24,-4
3614,-135,2,869,-19,37,7
3615,-175,-1,940,-13,16,0
3616,-91,-16,978,-19,-16,-8
3617,50,-19,1006,-19,-29,-9
3618,123,-26,1012,-7,-18,-11
3619,123,-15,1009,-15,1,-8
3620,18,-7,987,-14,18,-3
3621,-111,-9,999,-16,26,2
3622,-147,-22,991,-21,14,-2
3623,-102,-29,992,-13,-5,-6
3624,23,-28,1013,-12,-24,-11
3625,104,-29,1015,-11,-21,-13
3626,126,-2,995,-6,-2,-8
3627,26,8,998,-15,21,-3
3628,-84,-2,1003,-17,25,0
3629,-145,-21,975,-20,13,-1
3630,-109,-33,991,-21,-7,-4
3631,-1,-44,1012,-12,-22,-10
3632,102,-34,1002,-11,-19,-12
3633,126,-5,997,-8,-4,-9
3634,41,12,1001,-10,15,-4
3635,-67,5,1001,-17,24,-1
3636,-145,-4,976,-21,17,0
3637,-118,-30,1007,-21,-4,-5
3638,-17,-53,999,-18,-22,-8
3639,93,-47,995,-10,-21,-11
3640,133,-18,1006,-4,-6,-10
3641,53,5,1004,-8,15,-4
3642,-50,15,997,-14,24,-2
3643,-144,14,979,-18,18,0
3644,-125,-20,1001,-21,-3,-4
3645,-33,-52,1000,-21,-20,-9
3646,85,-51,999,-12,-23,-11
3647,132,-32,1003,-7,-10,-12
3648,71,-8,1003,-7,13,-7
3649,-40,18,996,-11,25,-1
3650,-137,19,985,-19,21,0
3651,-128,-15,1003,-23,1,-4
3652,-54,-42,987,-19,-18,-8
3653,78,-46,1006,-15,-24,-14
3654,126,-42,1006,-9,-12,-12
3655,78,-13,996,-6,10,-6
3656,-19,14,999,-12,23,-3
3657,-127,17,996,-18,21,1
3658,-133,-11,993,-21,4,-3
3659,-72,-32,988,-20,-15,-8
3660,66,-41,1001,-15,-26,-12
3661,118,-42,1009,-10,-13,-12
3662,92,-15,1006,-9,6,-7
3663,-5,11,996,-10,22,-4
3664,-114,13,991,-15,22,0
3665,-140,-8,996,-21,7,-3
3666,-76,-26,990,-19,-14,-8
3667,48,-44,1001,-15,-23,-12
3668,109,-41,1000,-9,-16,-12
3669,107,-16,1008,-7,3,-8
3670,11,11,997,-10,20,-4
3671,-106,11,1005,-14,25,0
3672,-136,-4,983,-19,10,-3
3673,-88,-26,990,-19,-9,-7
3674,29,-44,1004,-16,-24,-12
3675,101,-47,1005,-10,-17,-13
3676,115,-16,998,-9,0,-11
3677,23,5,1003,-11,19,-6
3678,-84,12,1005,-15,23,-2
3679,-140,0,978,-21,11,-3
3680,-97,-19,992,-20,-7,-6
3681,7,-50,1004,-17,-21,-11
3682,98,-48,1002,-11,-19,-14
3683,121,-24,1000,-8,-3,-11
3684,35,3,1001,-9,17,-6
3685,-62,12,1003,-14,24,-2
3686,-136,7,979,-20,16,-2
3687,-109,-19,1001,-21,-4,-5
3688,-16,-47,998,-20,-21,-10
3689,91,-48,996,-13,-21,-12
3690,128,-27,1007,-8,-7,-11
3691,52,-3,1008,-9,15,-4
3692,-44,11,996,-13,24,-3
3693,-137,13,977,-19,17,0
3694,-121,-16,998,-21,-2,-4
3695,-37,-47,997,-19,-20,-10
3696,110,-21,1013,-16,-23,-12
3697,210,-6,986,-18,-15,0
3698,-67,-28,833,142,69,2
3699,-89,-65,724,-51,29,7
3700,-119,-13,689,69,22,-4
3701,-69,14,744,34,-9,-7
3702,-12,31,891,-64,-19,-1
3703,192,42,979,23,2,-5
3704,119,-103,835,-125,-14,16
3705,-225,-47,758,116,52,-2
3706,-237,-87,612,-65,26,4
3707,-96,13,294,75,13,2
3708,36,20,401,-19,-14,-18
3709,48,118,406,2,-37,2
3710,56,99,607,3,0,-2
3711,50,-27,820,-54,29,-3
3712,-43,-89,807,-4,44,9
3713,-116,-67,485,-414,-10,-54
3714,-339,-190,426,40,-14,-5
3715,-49,47,88,-7,-42,3
3716,113,45,116,13,-8,-32
3717,249,154,358,60,-6,-11
3718,149,37,513,-54,16,33
3719,-101,50,841,-146,54,-33
3720,-225,-308,364,-36,35,-39
3721,-127,39,172,-66,-31,13
3722,-11,-123,40,61,-32,-27
3723,213,94,323,7,-35,4
3724,167,229,374,34,17,48
3725,-128,-73,347,-71,34,-94
3726,-224,14,249,-60,-22,28
3727,-46,117,119,1,-15,-3
3728,56,-176,57,-77,-5,-34
3729,81,67,611,32,-20,5
3730,-36,16,343,-20,-5,0
3731,-26,31,262,-51,14,-2
3732,-34,-50,554,28,22,-1
3733,0,-65,510,-51,-4,-14
3734,27,-49,437,-3,-2,-3
3735,-6,26,613,8,9,-7
3736,-14,0,661,-43,9,-5
3737,-55,2,749,-6,5,-1
3738,-82,-27,885,-26,-12,-1
3739,16,-43,751,-23,-10,-10
3740,73,-37,711,-5,2,-8
3741,44,-3,695,-14,5,-5
3742,25,0,808,-4,7,-9
3743,-89,2,898,-16,12,0
3744,-118,-3,971,-21,7,0
3745,-58,-44,1005,-17,-5,-9
3746,30,-43,1005,-15,-16,-6
3747,103,-24,998,-10,-11,-9
3748,82,-17,1006,-6,5,-9
3749,0,13,980,-12,16,-2
3750,-106,17,971,-17,19,1
3751,-125,-19,1002,-21,5,-3
3752,-75,-42,989,-22,-11,-6
3753,51,-51,1008,-13,-18,-9
3754,109,-40,1014,-9,-12,-10
3755,93,-12,996,-6,4,-6
3756,-1,16,991,-9,19,-2
3757,-115,16,991,-17,21,2
3758,-129,-11,1004,-21,7,-3
3759,-82,-32,982,-21,-11,-5
3760,51,-47,1011,-15,-23,-10
3761,111,-50,1007,-9,-14,-10
3762,101,-11,996,-5,5,-6
3763,7,16,995,-11,20,-2
3764,-110,17,998,-15,25,2
3765,-135,-5,991,-21,7,-1
3766,-90,-27,994,-22,-10,-6
3767,39,-48,1005,-16,-23,-11
3768,107,-50,1002,-10,-16,-12
3769,109,-16,995,-7,0,-6
3770,17,8,1004,-10,19,-3
3771,-92,9,1005,-17,24,1
3772,-146,5,982,-21,12,-1
3773,-90,-21,993,-22,-8,-6
3774,12,-49,1008,-17,-22,-11
3775,103,-48,997,-10,-19,-11
3776,124,-23,1004,-7,-2,-9
3777,27,2,995,-10,18,-2
3778,-81,14,1000,-12,25,2
3779,-149,10,982,-20,15,0
3780,-105,-20,997,-21,-5,-4
3781,3,-48,1004,-17,-23,-10
3782,97,-48,999,-14,-21,-10
3783,129,-26,1001,-7,-5,-8
3784,39,-5,1003,-9,17,-4
3785,-62,12,996,-14,25,-1
3786,-140,7,982,-19,17,-1
3787,-112,-16,1003,-20,-4,-4
3788,-21,-42,997,-18,-20,-10
3789,91,-44,1003,-11,-22,-12
3790,128,-32,1000,-10,-8,-9
3791,58,-6,1006,-9,14,-5
3792,-45,8,998,-14,24,0
3793,-139,16,980,-19,18,1
3794,-117,-16,1000,-19,-1,-5
3795,-43,-43,995,-20,-18,-10
3796,83,-42,1003,-14,-23,-12
3797,124,-32,1002,-9,-10,-12
3798,70,-5,1002,-8,11,-5
3799,-31,8,998,-12,23,-2
3800,-129,12,989,-20,22,0
3801,-126,-19,997,-21,2,-3
3802,-58,-38,984,-17,-16,-9
3803,71,-40,1005,-13,-24,-11
3804,118,-37,1009,-8,-13,-12
3805,80,-9,1009,-9,9,-6
3806,-10,12,991,-13,22,-3
3807,-121,10,993,-16,23,1
3808,-132,-16,994,-20,5,-2
3809,-72,-33,987,-18,-14,-7
3810,61,-43,1003,-14,-23,-12
3811,109,-42,1008,-11,-13,-12
3812,98,-10,1003,-7,4,-8
3813,2,12,1001,-11,21,-4
3814,-108,14,998,-15,23,-1
3815,-137,-8,986,-20,8,-4
3816,-80,-31,991,-20,-11,-6
3817,35,-47,1004,-16,-24,-12
3818,102,-48,1000,-10,-17,-13
3819,109,-15,1004,-5,0,-9
3820,20,11,1000,-10,20,-5
3821,-89,10,1007,-16,24,0
3822,-143,0,975,-20,10,-2
3823,-94,-23,992,-20,-9,-7
3824,13,-52,1004,-17,-25,-12
3825,98,-48,1004,-11,-19,-12
3826,125,-19,1002,-9,-2,-10
3827,31,4,998,-9,19,-4
3828,-71,14,999,-12,24,-1
3829,-140,7,980,-21,14,0
3830,-106,-21,1001,-20,-5,-6
3831,-7,-48,996,-19,-21,-11
3832,93,-49,1001,-12,-20,-12
3833,126,-28,1002,-8,-5,-10
3834,45,0,1007,-7,17,-6
3835,-55,16,996,-12,24,-2
3836,-136,16,979,-18,17,-1
3837,-117,-14,999,-20,-2,-4
3838,-33,-46,996,-19,-19,-9
3839,175,-5,996,47,-43,-2
3840,44,-79,356,-162,-4,-45
3841,42,-38,525,49,9,-7
3842,-48,-29,257,177,18,-44
3843,-142,-57,308,-206,20,8
3844,-111,55,543,60,-1,-22
3845,-53,-70,539,-24,-22,-10
3846,73,-59,421,-39,-35,-13
3847,170,62,578,73,-1,-36
3848,96,181,422,-196,-16,-12
3849,-130,-180,328,155,3,-25
3850,-248,18,342,-325,-53,-1
3851,67,108,335,176,60,37
3852,-42,149,345,8,120,166
3853,-3,-165,2,-273,-32,119
3854,86,-31,130,328,-15,49
3855,350,190,179,-365,-58,55
3856,-283,138,270,-40,103,22
3857,-183,56,272,60,19,-1
3858,133,291,67,-183,-33,16
3859,-223,-93,474,512,226,-20
3860,-159,-159,414,-114,97,27
3861,-20,-147,346,146,-81,1
3862,134,-64,119,-97,14,16
3863,99,-81,600,73,7,-15
3864,144,96,724,36,28,27
3865,-158,-165,371,193,-1,30
3866,-233,-48,285,188,93,-87
3867,-228,-82,315,-85,-22,-9
3868,271,126,526,206,-19,-24
3869,211,-255,426,25,-49,18
3870,81,-25,614,40,79,-14
3871,-176,-229,297,-142,-42,39
3872,-37,383,426,-91,-6,38
3873,-264,14,555,-18,-14,11
3874,-131,-59,521,-114,9,-106
3875,28,-179,223,-29,-26,11
3876,383,336,48,103,-35,-1
3877,9,0,149,-110,-2,19
3878,-105,-95,526,77,67,-78
3879,-151,-77,175,-23,28,51
3880,102,222,93,-3,31,21
3881,-45,40,150,82,-3,-22
3882,1,-208,355,-75,-49,-51
3883,61,-55,346,32,-10,17
3884,-135,148,178,49,38,-14
3885,-25,-30,336,-4,18,-9
3886,-13,124,314,-31,9,15
3887,-110,-62,198,-38,7,-3
3888,-53,-48,295,-61,-3,-12
3889,57,-126,340,-28,-29,-7
3890,117,-55,346,24,-28,-13
3891,93,-61,426,-7,1,-6
3892,-18,43,725,16,29,-2
3893,-129,56,740,-20,33,6
3894,-134,40,700,-28,-1,-2
3895,-71,-35,567,-17,-20,-7
3896,66,-64,524,-31,-21,-11
3897,111,-73,536,-5,-12,-12
3898,88,-33,566,-8,-2,-8
3899,0,4,649,-23,15,-3
3900,-124,35,777,4,33,3
3901,-130,12,867,-28,13,-1
3902,-74,-25,927,-17,-13,-6
3903,49,-38,987,-13,-30,-9
3904,114,-49,989,-16,-18,-12
3905,98,-31,957,-7,8,-8
3906,-3,4,950,-13,22,-2
3907,-111,4,906,-12,21,1
3908,-139,-11,889,-14,9,0
3909,-82,-15,907,-21,-9,-4
3910,46,-38,958,-13,-22,-10
3911,105,-38,996,-14,-19,-11
3912,105,-11,1000,-7,0,-7
3913,10,5,1004,-9,19,-3
3914,-101,-1,1005,-19,26,2
3915,-139,-9,972,-18,11,-1
3916,-89,-27,985,-17,-9,-5
3917,29,-42,1007,-15,-25,-11
3918,98,-38,1005,-9,-16,-11
3919,118,-9,1012,-9,-1,-9
3920,19,8,1007,-11,19,-3
3921,-84,8,1001,-16,25,1
3922,-137,-9,981,-21,14,-1
3923,-97,-30,993,-19,-5,-6
3924,3,-54,997,-15,-23,-11
3925,93,-41,1003,-10,-20,-12
3926,118,-12,1008,-7,-5,-8
3927,35,9,1004,-10,17,-5
3928,-64,12,1000,-16,25,0
3929,-135,2,973,-19,17,-1
3930,-107,-27,995,-22,-3,-5
3931,-22,-52,996,-16,-20,-10
3932,87,-44,1001,-11,-22,-11
3933,121,-26,1009,-7,-7,-10
3934,50,1,1004,-8,14,-4
3935,-42,15,998,-13,24,-3
3936,-129,14,975,-19,18,-1
3937,-118,-20,995,-21,-1,-4
3938,-43,-45,996,-19,-18,-11
3939,75,-46,1011,-15,-23,-12
3940,120,-31,1004,-9,-11,-11
3941,68,-6,1005,-6,12,-5
3942,-24,12,993,-11,23,-2
3943,-123,14,988,-18,20,1
3944,-125,-18,992,-21,2,-3
3945,-61,-41,987,-20,-16,-9
3946,65,-42,1007,-14,-24,-12
3947,113,-41,1011,-9,-11,-11
3948,86,-13,1008,-10,8,-7
3949,-6,12,990,-10,22,-2
3950,-116,16,988,-16,22,2
3951,-129,-15,995,-20,3,-2
3952,-76,-33,987,-18,-14,-6
3953,50,-42,1003,-14,-24,-11
3954,107,-45,1010,-9,-14,-11
3955,99,-15,1004,-5,4,-7
3956,5,14,996,-12,20,-3
3957,-102,9,999,-16,23,-1
3958,-140,-7,985,-19,8,-2
3959,-86,-24,991,-20,-11,-7
3960,31,-46,1008,-16,-23,-11
3961,102,-45,1003,-12,-17,-12
3962,115,-15,996,-7,1,-10
3963,21,9,1003,-10,20,-5
3964,-85,10,999,-16,25,0
3965,-142,-1,980,-20,11,-3
3966,-95,-21,994,-20,-9,-6
3967,10,-47,1010,-17,-22,-10
3968,102,-48,1002,-12,-18,-13
3969,122,-20,1004,-7,-2,-10
3970,34,4,998,-9,18,-5
3971,-73,12,997,-13,23,0
3972,-137,5,978,-20,13,-1
3973,-110,-24,1005,-21,-5,-4
3974,-8,-47,997,-18,-22,-11
3975,93,-48,1002,-12,-21,-12
3976,129,-26,1002,-7,-6,-11
3977,46,-1,1000,-9,15,-4
3978,-53,11,1001,-13,25,-1
3979,-141,8,975,-19,17,-1
3980,-115,-18,1005,-20,-4,-6
3981,-32,-47,995,-18,-21,-10
3982,85,-48,1004,-13,-21,-11
3983,128,-33,1002,-9,-8,-9
3984,62,-9,998,-6,14,-5
3985,-35,15,996,-11,23,-2
3986,-133,13,984,-19,19,0
3987,-128,-11,997,-22,0,-3
3988,9,65,990,-50,-17,-12
3989,80,-92,597,75,61,11
3990,49,-134,227,-95,-40,-6
3991,46,-39,392,124,1,-9
3992,-25,-22,372,-8,42,-5
3993,-45,66,563,-90,61,5
3994,5,137,763,104,-34,-27
3995,-86,92,497,-117,-47,6
3996,-50,-132,287,-41,11,-8
3997,44,-133,440,48,40,-28
3998,105,-84,602,-27,-30,-12
3999,238,188,574,90,-16,1
4000,-79,117,700,-113,30,18
4001,-204,-107,560,-152,50,-8
4002,-123,-53,497,60,-34,-3
4003,28,-36,225,-94,-117,-14
4004,110,-27,269,16,-10,-22
4005,158,73,556,8,44,0
4006,71,66,828,-49,29,-4
4007,98,-193,642,117,-17,42
4008,-373,-150,562,533,138,-82
4009,-392,-309,311,-128,14,-95
4010,41,-139,190,190,-52,-32
4011,257,-81,139,197,-26,-63
4012,374,21,302,16,-20,-51
4013,193,222,574,77,45,-5
4014,11,216,549,31,80,14
4015,-312,-79,408,25,55,-29
4016,-431,-335,443,154,53,-170
4017,-193,-274,427,89,-30,-39
4018,267,-50,287,167,-36,-53
4019,282,-88,115,-16,-29,-73
4020,206,181,504,101,5,-12
4021,47,361,487,-36,60,24
4022,-142,-10,72,-213,38,37
4023,-158,-275,302,-9,41,-90
4024,-146,-231,186,-95,-73,11
4025,179,-114,411,54,-72,-21
4026,195,-103,313,39,-29,-50
4027,231,108,298,-29,3,1
4028,-54,165,152,30,50,9
4029,-328,165,147,-68,53,6
4030,-334,-18,333,-41,20,9
4031,-159,-149,311,-45,-23,-11
4032,158,-206,299,-35,-53,-20
4033,289,-119,410,35,-37,-19
4034,202,-35,453,0,3,-4
4035,-18,105,463,27,50,4
4036,-215,112,394,-7,54,5
4037,-246,67,360,-47,13,3
4038,-124,-19,393,-20,-19,-5
4039,93,-88,457,-27,-37,-16
4040,208,-115,626,-23,-26,-15
4041,143,-70,757,2,7,-5
4042,0,-5,859,-12,23,-2
4043,-149,29,895,-2,35,4
4044,-198,38,935,-13,19,2
4045,-112,22,944,-29,-13,-6
4046,66,-24,914,-14,-34,-13
4047,146,-57,845,-22,-26,-11
4048,134,-47,826,-10,0,-9
4049,24,-34,847,-7,27,-4
4050,-127,-10,922,-17,29,4
4051,-166,0,983,-9,13,-1
4052,-103,0,1000,-16,-8,-6
4053,40,-7,1003,-12,-23,-10
4054,119,-20,1011,-15,-10,-8
4055,132,-15,1000,-18,1,-8
4056,28,-18,1000,-15,22,-4
4057,-100,-18,1000,-15,29,1
4058,-159,-24,988,-21,15,0
4059,-101,-24,994,-16,-11,-4
4060,11,-28,1009,-11,-25,-9
4061,110,-21,1005,-10,-20,-12
4062,134,-4,1000,-7,0,-10
4063,29,7,995,-13,18,-4
4064,-82,-2,1000,-19,23,1
4065,-147,-23,981,-21,15,-1
4066,-114,-33,994,-20,-3,-4
4067,-2,-48,1004,-14,-21,-11
4068,104,-31,997,-7,-22,-13
4069,131,-3,1003,-6,-7,-9
4070,45,13,1004,-9,17,-4
4071,-68,9,1003,-17,26,0
4072,-144,0,977,-23,17,0
4073,-119,-34,1005,-20,-4,-3
4074,-26,-59,995,-17,-21,-10
4075,97,-47,1000,-9,-22,-14
4076,131,-23,1002,-6,-7,-10
4077,57,8,1007,-8,13,-4
4078,-41,19,1001,-14,22,-2
4079,-141,14,981,-21,20,0
4080,-122,-23,999,-23,1,-3
4081,-45,-53,994,-20,-18,-9
4082,85,-51,999,-13,-24,-13
4083,124,-36,1005,-7,-10,-12
4084,71,-6,1001,-6,11,-6
4085,-25,24,999,-11,24,-1
4086,-129,22,993,-19,22,1
4087,-128,-14,996,-22,3,-3
4088,-64,-42,984,-21,-16,-8
4089,72,-48,1000,-13,-26,-11
4090,116,-46,1009,-9,-13,-11
4091,90,-12,1008,-5,8,-7
4092,-11,15,995,-10,23,-3
4093,-119,18,991,-16,22,1
4094,-133,-9,1000,-20,6,-3
4095,-72,-30,983,-20,-15,-8
4096,53,-47,1003,-15,-24,-12
4097,108,-47,1007,-11,-15,-12
4098,95,-15,1004,-7,4,-7
4099,5,8,994,-10,21,-5
4100,-108,12,1003,-16,24,0
4101,-130,-2,984,-20,7,-2
4102,-84,-23,988,-20,-11,-6
4103,38,-43,1006,-15,-25,-11
4104,96,-47,1002,-11,-16,-12
4105,112,-16,1000,-8,-1,-9
4106,16,4,1003,-9,20,-4
4107,-89,8,1006,-14,24,-1
4108,-137,2,976,-19,12,-2
4109,-95,-22,993,-19,-8,-6
4110,11,-46,1004,-18,-22,-10
4111,96,-43,1005,-12,-17,-12
4112,122,-19,1000,-8,-2,-10
4113,34,6,1002,-9,18,-4
4114,-67,10,999,-13,24,-1
4115,-137,4,976,-20,14,-1
4116,-104,-22,1005,-20,-5,-6
4117,-15,-44,997,-18,-22,-10
4118,94,-46,998,-11,-22,-12
4119,123,-25,1007,-7,-5,-11
4120,49,0,1006,-10,16,-5
4121,-49,9,1000,-14,24,-3
4122,-136,7,978,-19,16,-2
4123,-122,-15,1000,-20,-2,-3
4124,-36,-46,994,-19,-20,-10
4125,83,-46,1006,-13,-22,-12
4126,124,-30,1000,-8,-9,-11
4127,68,-5,1000,-9,12,-5
4128,-28,11,998,-11,23,-3
4129,-131,14,984,-18,20,-1
4130,-125,-17,1000,-20,1,-5
4131,-57,-41,989,-19,-17,-8
4132,72,-45,1006,-13,-24,-11
4133,118,-35,1008,-10,-13,-11
4134,83,-10,1003,-9,9,-5
4135,-11,12,994,-11,22,-3
4136,-120,16,991,-17,23,0
4137,-131,-13,1000,-21,4,-3
4138,-73,-34,981,-20,-14,-7
4139,58,-45,1003,-15,-24,-11
4140,111,-46,1010,-11,-13,-11
4141,170,92,1023,1,8,-5
4142,-2,10,926,-50,23,3
4143,-238,-127,977,-25,26,-8
4144,-174,-37,764,-11,7,2
4145,-36,-42,599,-21,-32,-9
4146,103,-19,566,22,-36,-17
4147,145,26,725,-30,-14,-5
4148,98,26,877,-7,25,-5
4149,82,64,987,-11,29,-3
4150,-187,-272,927,-392,6,44
4151,-310,-72,686,-449,-18,-22
4152,-165,-110,249,135,-9,8
4153,130,-60,102,-130,-71,-2
4154,239,-37,297,20,-58,-36
4155,252,173,514,66,-26,4
4156,162,141,832,-101,68,7
4157,-230,-203,533,-12,82,32
4158,-451,-268,356,-61,33,-112
4159,-315,-352,115,-47,-94,-15
4160,105,-45,247,49,-68,-20
4161,302,-101,327,-1,-12,-62
4162,410,190,553,60,-25,-16
4163,344,346,593,-6,8,41
4164,-294,24,232,93,120,50
4165,-289,-278,22,-167,68,-95
4166,-201,-351,290,-27,-63,28
4167,75,-40,325,38,-72,-11
4168,180,-139,232,-21,-54,-60
4169,289,91,294,66,-17,-12
4170,61,176,280,-13,49,13
4171,-229,160,365,-15,70,1
4172,-343,9,132,-62,33,9
4173,-283,-109,332,-75,-3,0
4174,-5,-206,272,-19,-45,-17
4175,239,-145,373,-20,-58,-22
4176,273,-62,443,15,-20,-11
4177,108,84,540,20,32,-2
4178,-93,110,515,-11,46,-1
4179,-239,89,397,-20,35,6
4180,-213,9,407,-45,-2,1
4181,-59,-81,506,-40,-30,-14
4182,144,-120,570,-31,-41,-15
4183,182,-100,642,-6,-18,-9
4184,111,-32,718,8,16,-6
4185,-12,19,759,5,34,-1
4186,-176,61,848,-10,37,7
4187,-183,50,933,-26,9,-1
4188,-74,-9,945,-28,-20,-8
4189,76,-55,880,-24,-33,-9
4190,138,-74,858,-18,-22,-11
4191,128,-61,876,-7,5,-8
4192,0,-19,913,-3,29,2
4193,-124,20,981,-6,31,4
4194,-158,20,990,-15,14,-1
4195,-93,15,989,-17,-9,-4
4196,28,-20,1017,-21,-27,-10
4197,121,-46,1009,-19,-22,-14
4198,130,-46,991,-14,-1,-7
4199,24,-22,1000,-11,23,-1
4200,-91,-16,1011,-13,27,1
4201,-148,0,976,-13,14,0
4202,-113,0,997,-12,-5,-3
4203,3,-19,1009,-16,-22,-11
4204,106,-27,997,-14,-21,-11
4205,131,-17,996,-12,-6,-9
4206,41,-15,1010,-13,15,-4
4207,-62,-15,994,-13,25,1
4208,-147,-7,975,-18,19,3
4209,-117,-18,1006,-17,-3,-4
4210,-27,-33,995,-14,-21,-9
4211,93,-26,998,-10,-21,-12
4212,127,-16,1010,-11,-6,-10
4213,61,-4,1003,-12,14,-6
4214,-44,1,997,-15,25,-1
4215,-139,2,983,-18,19,1
4216,-125,-26,996,-17,0,-3
4217,-46,-43,993,-17,-17,-9
4218,81,-34,1007,-12,-23,-11
4219,124,-25,1007,-7,-11,-10
4220,76,-3,999,-9,11,-5
4221,-23,12,1002,-13,24,-1
4222,-129,7,986,-19,23,2
4223,-132,-25,993,-21,3,-4
4224,-67,-43,985,-19,-17,-8
4225,67,-38,1001,-11,-24,-12
4226,118,-36,1014,-8,-12,-11
4227,90,-4,1008,-8,8,-7
4228,-6,14,994,-12,24,-4
4229,-117,11,989,-17,22,1
4230,-139,-19,995,-20,6,-2
4231,-75,-36,983,-19,-13,-7
4232,51,-45,1007,-12,-25,-10
4233,110,-41,1004,-9,-15,-11
4234,107,-6,1006,-6,3,-7
4235,6,14,1000,-10,21,-2
4236,-104,13,1000,-17,24,0
4237,-139,-11,983,-21,9,-2
4238,-90,-31,984,-21,-11,-6
4239,28,-49,1010,-14,-25,-11
4240,104,-43,1006,-8,-17,-12
4241,115,-14,1001,-8,1,-10
4242,27,11,1002,-10,20,-4
4243,-89,7,1006,-15,24,-1
4244,-142,0,974,-19,11,-2
4245,-101,-25,992,-21,-9,-5
4246,3,-48,1008,-17,-22,-11
4247,101,-46,1002,-12,-19,-13
4248,124,-18,1004,-6,-4,-9
4249,36,3,999,-9,16,-5
4250,-66,11,1000,-13,25,-2
4251,-139,4,977,-21,18,-1
4252,-112,-17,1002,-20,-4,-5
4253,-18,-48,999,-20,-22,-11
4254,93,-49,1000,-12,-21,-13
4255,125,-26,1004,-8,-6,-11
4256,58,-5,1006,-7,15,-6
4257,-41,13,996,-12,24,-3
4258,-140,13,979,-17,19,0
4259,-120,-17,998,-20,-2,-5
4260,-44,-46,999,-18,-19,-10
4261,83,-44,1006,-13,-24,-12
4262,123,-34,1005,-10,-9,-10
4263,78,-7,1000,-6,10,-6
4264,-27,12,996,-12,25,-2
4265,-126,15,988,-19,21,0
4266,-129,-16,998,-19,1,-4
4267,-62,-41,983,-19,-18,-9
4268,67,-41,1008,-14,-25,-11
4269,119,-39,1010,-10,-13,-11
4270,89,-16,1005,-8,9,-6
4271,-6,11,990,-10,24,-5
4272,-121,14,993,-16,22,0
4273,-137,-8,996,-20,4,-5
4274,-80,-31,985,-20,-15,-8
4275,53,-43,1003,-14,-25,-11
4276,113,-45,1009,-11,-14,-13
4277,106,-13,1002,-5,6,-7
4278,10,7,995,-11,21,-3
4279,-104,10,1001,-16,24,1
4280,-105,86,999,-10,9,-1
4281,-67,-61,716,-86,-10,-13
4282,-61,-132,482,62,-1,-1
4283,63,-82,472,-38,-15,-18
4284,126,-64,331,1,8,-12
4285,92,50,682,48,8,-9
4286,-51,67,807,-40,8,0
4287,-48,140,828,-4,29,-4
4288,-6,-22,731,-97,-10,-53
4289,-107,-120,563,-131,-27,-77
4290,-73,-134,602,167,-24,-53
4291,131,-50,544,-77,-46,-29
4292,187,23,432,31,3,-37
4293,37,128,424,94,24,-8
4294,-29,150,517,-164,30,6
4295,-118,201,448,-8,39,15
4296,-244,-143,515,-49,-4,-69
4297,-73,-168,160,-114,-42,1
4298,239,-28,28,225,-27,-33
4299,378,36,169,-154,-47,-24
4300,47,-88,441,42,32,43
4301,-148,52,684,4,68,4
4302,-276,-58,692,-174,26,21
4303,-100,-86,684,71,-12,1
4304,64,-34,669,-102,-69,-8
4305,176,-43,774,-4,-50,-9
4306,377,-102,788,53,9,-7
4307,-57,134,660,-86,40,-4
4308,-319,-161,590,100,60,-44
4309,-201,-44,542,-88,-8,17
4310,-59,18,428,36,-26,-18
4311,84,-6,487,73,-35,-28
4312,239,26,726,-132,-35,-5
4313,211,13,547,56,26,49
4314,-133,-4,357,-66,74,-60
4315,-305,-359,409,0,41,-11
4316,-142,88,244,4,-32,24
4317,-53,-95,229,-47,-44,-36
4318,146,0,315,79,-55,-29
4319,116,47,212,-68,0,9
4320,-9,80,340,31,49,-6
4321,-115,7,525,-54,40,0
4322,-218,-61,401,-54,12,2
4323,-178,-123,490,37,7,4
4324,-12,-92,654,-46,-23,-11
4325,133,-59,731,37,-30,-14
4326,154,16,765,13,-12,-5
4327,65,82,802,-28,13,-1
4328,-33,47,671,5,34,-4
4329,-134,2,619,-45,25,6
4330,-157,-44,633,-24,0,-1
4331,-55,-82,727,-21,-24,-9
4332,58,-90,832,-19,-28,-9
4333,97,-32,932,6,-12,-7
4334,120,12,959,-4,4,-11
4335,5,38,957,-7,24,1
4336,-102,51,983,-13,25,4
4337,-133,0,998,-32,8,-3
4338,-90,-46,987,-23,-9,-4
4339,-3,-71,985,-16,-22,-8
4340,100,-68,1002,-14,-19,-12
4341,120,-34,988,1,-2,-7
4342,35,16,1003,-3,18,-2
4343,-58,30,1014,-14,24,0
4344,-131,28,976,-16,16,1
4345,-112,-5,1000,-27,-5,-2
4346,-31,-55,1000,-23,-22,-9
4347,84,-67,1005,-13,-21,-12
4348,122,-49,994,-9,-5,-9
4349,57,-15,1006,-3,14,-4
4350,-27,14,997,-9,21,-2
4351,-129,27,976,-18,19,1
4352,-123,4,1002,-21,1,-3
4353,-57,-34,995,-21,-17,-9
4354,70,-46,1001,-16,-24,-12
4355,115,-46,1008,-11,-12,-9
4356,80,-27,1003,-8,9,-6
4357,-8,5,992,-9,24,-2
4358,-121,17,990,-14,22,2
4359,-129,-3,1002,-18,2,-3
4360,-75,-25,983,-21,-15,-7
4361,55,-33,1005,-16,-24,-10
4362,110,-43,1017,-12,-14,-11
4363,100,-22,1005,-9,6,-7
4364,1,0,989,-11,23,-3
4365,-109,5,994,-16,23,0
4366,-138,-10,991,-19,7,-2
4367,-84,-20,986,-19,-12,-6
4368,37,-36,1012,-16,-24,-12
4369,105,-40,1002,-11,-17,-11
4370,111,-13,999,-8,1,-7
4371,19,0,998,-13,19,-4
4372,-97,1,1003,-17,24,-1
4373,-140,-5,977,-20,10,-2
4374,-96,-24,993,-19,-9,-6
4375,19,-41,1010,-16,-24,-9
4376,101,-41,1007,-11,-18,-10
4377,120,-15,998,-7,-1,-9
4378,28,2,999,-10,18,-4
4379,-79,8,1000,-14,24,0
4380,-145,0,978,-20,13,0
4381,-101,-23,1000,-21,-6,-7
4382,-5,-48,1004,-17,-20,-9
4383,96,-41,996,-12,-21,-11
4384,129,-22,1006,-7,-6,-11
4385,41,0,1002,-10,18,-4
4386,-58,11,996,-14,24,-2
4387,-140,2,979,-18,18,-2
4388,-118,-19,1002,-13,-5,-6
4389,-26,-45,997,-19,-22,-11
4390,84,-43,1004,-11,-22,-13
4391,128,-27,1002,-9,-7,-12
4392,59,-6,1002,-9,15,-5
4393,-38,14,992,-12,24,-2
4394,-132,10,986,-18,19,1
4395,-123,-20,998,-20,0,-3
4396,-52,-41,992,-18,-17,-8
4397,79,-44,1010,-12,-22,-13
4398,119,-34,1002,-8,-11,-12
4399,75,-5,1000,-5,10,-7
4400,-23,11,998,-11,23,-2
4401,-121,12,991,-18,20,0
4402,-128,-15,996,-21,2,-3
4403,-66,-37,985,-19,-16,-10
4404,63,-41,1002,-12,-24,-13
4405,110,-39,1006,-10,-12,-13
4406,88,-13,1008,-8,7,-8
4407,0,9,995,-10,22,-4
4408,-112,15,992,-16,22,0
4409,-130,-8,994,-19,6,-4
4410,-78,-28,988,-21,-14,-8
4411,42,-47,1002,-16,-24,-12
4412,102,-49,1003,-12,-15,-12
4413,105,-18,1002,-6,2,-7
4414,15,6,999,-9,19,-4
4415,-95,11,1004,-14,24,0
4416,-137,0,983,-21,10,-2
4417,-91,-20,992,-20,-10,-6
4418,22,-48,1005,-17,-24,-10
4419,96,-47,1005,-12,-17,-12
4420,121,-24,994,-8,-1,-10
4421,25,1,1001,-8,19,-4
4422,-72,15,1000,-13,24,0
4423,-141,3,978,-19,13,-1
4424,-103,-19,1000,-21,-6,-5
4425,-3,-49,1001,-18,-21,-11
4426,92,-49,1000,-13,-20,-12
4427,125,-28,1001,-8,-5,-10
4428,42,-3,1005,-9,16,-5
4429,-58,11,996,-12,24,-1
4430,-136,11,982,-19,16,0
4431,-114,-13,1000,-21,-4,-4
4432,40,27,828,-30,2,-7
4433,-25,-108,378,-67,-19,2
4434,76,-45,620,3,-23,-18
4435,58,-54,383,43,17,-14
4436,-7,3,443,-109,48,6
4437,-65,45,468,88,14,-6
4438,29,99,581,-84,-37,10
4439,-203,56,336,101,56,45
4440,-87,-143,316,164,47,2
4441,113,-92,431,-121,-34,-7
4442,147,-72,487,108,-12,-12
4443,77,57,577,-5,3,3
4444,87,38,541,-96,33,12
4445,-258,117,633,153,105,7
4446,-297,-25,304,-224,-24,-11
4447,16,-41,30,157,-63,-15
4448,132,-129,255,-75,-42,-22
4449,141,72,465,6,3,-21
4450,178,242,421,235,36,38
4451,-217,95,458,26,129,13
4452,-216,-139,656,-77,-21,32
4453,0,-108,817,39,-12,13
4454,-28,-225,732,28,-17,16
4455,-73,-131,759,138,22,-69
4456,196,-65,316,-52,-67,1
4457,113,105,144,43,9,-7
4458,-19,69,277,-6,40,-13
4459,41,183,628,-14,26,17
4460,-200,-54,594,-206,-51,49
4461,-361,-215,347,-130,19,-139
4462,-157,-197,179,-5,-23,-1
