sequence,AccelerometerX,AccelerometerY,AccelerometerZ,GyroscopeX,GyroscopeY,GyroscopeZ
0,-159,-104,994,-19,-77,-17
1,361,-115,1090,11,-78,-8
2,503,-71,1040,15,-12,4
3,238,20,1001,20,55,12
4,-207,102,974,-1,69,25
5,-513,45,879,-37,29,13
6,-359,-63,926,-33,-50,-14
7,120,-114,1068,-1,-87,-13
8,481,-94,1079,15,-49,-2
9,413,-30,998,12,26,6
10,15,79,1003,24,70,20
11,-413,82,921,-32,56,24
12,-488,-15,879,-36,-11,-2
13,-149,-95,1007,-14,-77,-16
14,368,-114,1092,9,-78,-9
15,496,-67,1027,16,-11,2
16,225,36,1012,27,54,12
17,-210,94,967,-8,69,26
18,-512,40,872,-38,28,12
19,-351,-55,936,-29,-49,-12
20,135,-116,1073,-8,-89,-13
21,479,-103,1059,15,-47,-2
22,405,-14,1011,25,28,7
23,6,78,1004,12,70,21
24,-415,75,908,-28,55,22
25,-483,-5,887,-34,-14,-4
26,-125,-96,1013,-20,-78,-15
27,371,-123,1080,4,-74,-9
28,494,-65,1035,21,-8,3
29,215,31,1011,20,55,13
30,-223,85,958,-9,70,24
31,-512,42,878,-30,25,11
32,-344,-54,943,-31,-51,-13
33,147,-125,1071,-9,-88,-14
34,482,-96,1059,19,-46,-1
35,402,-9,1015,22,28,8
36,-2,69,993,8,70,20
37,-428,77,914,-24,55,21
38,-480,-3,897,-32,-18,-4
39,-121,-109,1008,-25,-78,-16
40,376,-116,1081,17,-74,-11
41,494,-48,1036,20,-8,4
42,207,27,1009,18,56,13
43,-228,90,957,-5,69,25
44,-512,54,884,-31,23,10
45,-333,-65,943,-37,-53,-11
46,155,-125,1064,-3,-86,-13
47,483,-82,1067,22,-44,-1
48,392,-18,1010,15,30,7
49,-15,65,986,13,71,19
50,-427,86,923,-18,53,22
51,-474,-14,892,-41,-17,-3
52,-106,-110,1008,-18,-79,-16
53,383,-105,1086,17,-74,-8
54,492,-59,1031,13,-5,3
55,194,25,997,22,57,13
56,-236,97,967,-4,68,25
57,-510,35,881,-39,23,10
58,-327,-76,940,-30,-54,-14
59,165,-117,1079,2,-87,-13
60,484,-86,1059,16,-43,0
61,386,-19,1001,17,31,7
62,-25,77,994,16,71,20
63,-432,81,928,-28,51,22
64,-469,-25,883,-41,-18,-5
65,-93,-103,1020,-12,-80,-17
66,390,-105,1089,13,-72,-7
67,483,-61,1019,10,-2,4
68,183,37,1001,28,59,13
69,-243,101,969,-6,67,25
70,-510,29,874,-41,21,10
71,-318,-70,950,-25,-55,-13
72,181,-113,1084,-1,-88,-14
73,483,-95,1049,12,-41,-1
74,374,-9,1005,26,33,7
75,-36,85,994,11,70,20
76,-438,71,915,-31,51,22
77,-462,-19,886,-33,-20,-4
78,-77,-97,1030,-15,-81,-15
79,395,-117,1079,6,-71,-7
80,481,-58,1020,19,-2,3
81,171,45,1009,28,60,14
82,-256,89,957,-17,68,24
83,-514,29,876,-34,18,8
84,-306,-65,960,-27,-58,-13
85,196,-123,1077,-5,-88,-11
86,484,-93,1045,19,-38,-1
87,373,0,1011,25,33,8
88,-51,77,990,6,72,21
89,-443,69,913,-27,49,20
90,-460,-15,897,-30,-22,-6
91,-67,-105,1033,-21,-81,-15
92,403,-120,1070,11,-70,-7
93,478,-43,1031,24,1,4
94,167,40,1001,17,60,15
95,-264,85,954,-10,68,25
96,-511,41,886,-31,17,6
97,-299,-71,963,-32,-57,-15
98,202,-129,1071,-6,-88,-12
99,484,-78,1050,23,-37,-2
100,366,0,1014,17,35,7
101,-58,66,970,7,72,21
102,-445,80,925,-22,48,21
103,-453,-19,900,-37,-23,-5
104,-54,-117,1021,-20,-82,-16
105,402,-105,1080,19,-70,-6
106,475,-37,1030,15,0,4
107,155,32,988,14,61,14
108,-273,92,961,-2,67,25
109,-506,36,890,-34,14,7
110,-291,-88,959,-33,-59,-14
111,212,-119,1076,5,-86,-11
112,489,-76,1056,18,-35,0
113,353,-9,998,15,36,9
114,-66,79,982,16,72,22
115,-454,75,919,-30,47,20
116,-444,-35,895,-39,-25,-7
117,-41,-109,1033,-13,-83,-15
118,409,-100,1084,16,-68,-7
119,473,-54,1020,9,3,4
120,142,42,988,25,61,14
121,-279,102,963,-7,66,25
122,-507,19,880,-42,14,6
123,-285,-81,965,-23,-61,-14
124,229,-106,1084,3,-87,-12
125,488,-85,1046,12,-33,-1
126,347,-6,989,20,37,8
127,-78,94,994,13,72,21
128,-456,64,911,-37,46,19
129,-435,-36,891,-34,-27,-6
130,-29,-102,1041,-11,-83,-15
131,415,-111,1077,8,-66,-5
132,463,-47,1021,19,3,5
133,133,56,994,26,62,15
134,-288,86,954,-19,65,25
135,-508,18,875,-33,11,6
136,-273,-70,980,-24,-62,-14
137,241,-119,1083,-3,-86,-11
138,488,-82,1043,18,-31,1
139,336,7,999,22,38,9
140,-90,80,988,5,70,20
141,-459,58,898,-30,44,18
142,-433,-29,914,-29,-28,-8
143,-14,-113,1038,-18,-85,-15
144,423,-112,1073,14,-65,-5
145,458,-36,1024,22,5,5
146,124,55,992,19,63,14
147,-300,83,946,-17,65,24
148,-506,21,885,-30,10,6
149,-263,-80,987,-30,-63,-15
150,249,-125,1068,-1,-87,-12
151,493,-75,1051,21,-32,0
152,329,11,999,20,39,9
153,-102,77,978,3,72,23
154,-467,62,901,-29,42,19
155,-424,-27,916,-31,-31,-7
156,-3,-116,1039,-18,-86,-15
157,426,-108,1073,19,-63,-5
158,458,-32,1026,16,7,5
159,113,48,989,15,64,14
160,-309,85,940,-14,64,24
161,-502,26,891,-30,8,5
162,-253,-88,986,-32,-63,-15
163,258,-125,1070,5,-86,-12
164,491,-66,1057,24,-30,0
165,319,6,997,15,41,9
166,-115,76,974,5,72,22
167,-472,68,900,-26,41,18
168,-417,-41,917,-38,-32,-8
169,8,-121,1034,-13,-86,-15
170,431,-91,1093,22,-62,-4
171,455,-38,1018,8,7,7
172,102,48,985,20,65,14
173,-320,98,946,-11,62,24
174,-501,15,888,-39,6,4
175,-246,-99,975,-28,-65,-16
176,276,-110,1086,11,-86,-12
177,497,-71,1055,13,-27,1
178,313,-2,981,17,43,10
179,-123,96,986,12,72,23
180,-473,66,890,-36,39,19
181,-415,-45,910,-35,-33,-10
182,18,-109,1046,-7,-86,-15
183,439,-99,1094,13,-62,-4
184,451,-47,1002,10,10,5
185,96,61,996,28,66,16
186,-331,95,940,-19,63,24
187,-500,5,874,-38,5,3
188,-240,-87,994,-22,-66,-15
189,287,-113,1086,4,-85,-10
190,496,-81,1040,11,-26,1
191,303,13,994,27,44,10
192,-130,96,986,1,72,23
193,-483,51,884,-37,41,17
194,-408,-49,911,-31,-34,-10
195,29,-107,1062,-6,-88,-16
196,443,-109,1083,8,-60,-5
197,447,-38,1005,22,11,5
198,85,73,1001,25,67,16
199,-336,84,930,-26,61,24
200,-501,6,880,-30,4,3
201,-227,-79,994,-22,-69,-16
202,293,-121,1088,-1,-83,-10
203,496,-79,1047,17,-24,1
204,299,20,992,24,44,10
205,-143,85,979,-2,71,22
206,-489,52,875,-29,38,17
207,-397,-40,928,-28,-36,-8
208,39,-118,1055,-14,-87,-15
209,450,-104,1081,16,-60,-5
210,442,-19,1018,21,12,6
211,77,62,995,14,65,16
212,-350,82,928,-18,61,23
213,-501,17,884,-30,3,3
214,-220,-90,989,-28,-70,-14
215,302,-122,1089,5,-84,-10
216,500,-68,1048,21,-25,2
217,294,18,998,21,45,10
218,-150,83,968,1,72,23
219,-487,63,879,-27,38,17
220,-392,-46,933,-36,-37,-8
221,50,-130,1047,-14,-86,-15
222,451,-101,1087,22,-58,-4
223,442,-27,1018,15,12,7
224,73,52,980,14,68,17
225,-356,86,925,-14,60,22
226,-491,10,895,-36,0,1
227,-205,-104,982,-29,-69,-14
228,306,-112,1092,13,-81,-11
229,500,-68,1053,12,-23,2
230,280,6,989,20,47,11
231,-163,90,972,6,71,22
232,-492,57,887,-32,36,14
233,-385,-60,917,-39,-39,-10
234,59,-112,1058,-1,-85,-15
235,459,-91,1099,15,-56,-4
236,437,-30,1002,13,14,6
237,57,72,990,21,69,16
238,-366,98,927,-20,59,23
239,-497,-3,879,-41,0,2
240,-200,-98,998,-20,-70,-15
241,323,-114,1093,5,-81,-10
242,499,-74,1047,14,-21,3
243,272,21,992,26,48,11
244,-166,101,972,0,70,23
245,-499,54,881,-36,35,14
246,-379,-54,920,-32,-41,-9
247,72,-111,1061,-5,-87,-14
248,463,-104,1092,11,-56,-4
249,432,-40,997,16,16,6
250,54,74,1000,25,68,18
251,-373,82,917,-27,59,23
252,-497,-10,878,-37,0,0
253,-194,-91,1001,-14,-73,-16
254,332,-121,1094,1,-81,-10
255,498,-74,1039,16,-19,2
256,265,32,1006,29,50,11
257,-174,91,967,-6,70,24
258,-504,51,880,-32,35,14
259,-380,-50,923,-33,-42,-12
260,84,-121,1066,-8,-87,-14
261,466,-108,1086,14,-54,-4
262,430,-24,1006,24,19,5
263,47,75,998,17,68,17
264,-381,89,911,-23,59,22
265,-495,6,888,-34,-3,-1
266,-181,-95,999,-23,-73,-16
267,337,-121,1090,4,-80,-10
268,499,-62,1045,19,-17,1
269,261,27,1003,22,50,11
270,-183,90,962,-3,70,23
271,-505,53,879,-32,33,13
272,-370,-50,930,-33,-43,-10
273,90,-121,1061,-8,-87,-15
274,469,-99,1086,17,-53,-3
275,423,-18,1012,17,19,7
276,38,69,989,12,69,18
277,-389,85,917,-21,58,24
278,-493,2,886,-36,-6,0
279,-170,-104,999,-24,-75,-15
280,342,-128,1087,8,-79,-8
281,501,-59,1052,22,-16,2
282,250,21,998,18,53,11
283,-192,87,963,0,70,23
284,-509,57,880,-29,31,13
285,-367,-58,928,-38,-45,-11
286,104,-127,1060,-5,-87,-15
287,474,-92,1086,22,-50,-4
288,422,-24,1007,13,22,6
289,30,68,989,16,69,17
290,-398,94,917,-18,57,21
291,-488,-3,886,-40,-7,-1
292,-163,-103,1002,-21,-75,-16
293,352,-110,1085,12,-78,-9
294,503,-62,1052,16,-16,2
295,243,17,990,19,53,11
296,-197,103,968,4,69,24
297,-511,53,882,-42,30,13
298,-360,-66,922,-33,-46,-12
299,110,-113,1068,0,-87,-14
300,478,-93,1089,13,-51,-2
301,421,-33,996,14,23,6
302,26,82,996,20,69,17
303,-402,92,924,-25,57,21
304,-490,-14,880,-43,-8,-2
305,-162,-98,1001,-15,-76,-15
306,358,-113,1102,8,-80,-9
307,499,-75,1032,13,-13,4
308,238,27,1000,27,53,12
309,-201,98,975,-4,67,25
310,-510,33,864,-40,30,13
311,-360,-60,934,-27,-49,-13
312,118,-115,1076,-2,-87,-15
313,478,-103,1071,14,-50,-2
314,412,-19,1007,23,25,8
315,21,81,1003,17,69,19
316,-406,74,907,-30,57,23
317,-488,-7,886,-33,-10,-3
318,-148,-92,1011,-18,-78,-16
319,359,-123,1089,4,-77,-9
320,495,-64,1036,21,-12,3
321,232,40,1014,22,54,12
322,-207,90,957,-9,70,23
323,-512,43,875,-32,28,12
324,-349,-52,938,-28,-49,-11
325,127,-122,1070,-9,-87,-13
326,477,-99,1070,17,-47,-2
327,409,-10,1014,24,24,8
328,12,73,995,10,69,20
329,-411,79,906,-22,56,23
330,-485,0,896,-35,-12,-2
331,-138,-103,1009,-25,-77,-16
332,363,-123,1081,7,-76,-9
333,495,-55,1039,22,-10,4
334,227,29,1008,17,54,13
335,-215,84,950,-8,69,23
336,-513,48,882,-27,26,9
337,-343,-64,939,-35,-52,-10
338,133,-125,1066,-5,-87,-13
339,478,-89,1069,22,-47,-3
340,409,-17,1014,15,27,7
341,2,66,985,13,70,18
342,-414,87,917,-20,55,22
343,-479,-7,897,-40,-12,-2
344,-131,-112,1001,-24,-77,-17
345,369,-111,1089,15,-74,-8
346,494,-54,1042,17,-9,4
347,216,21,996,14,55,12
348,-221,97,959,4,69,24
349,-510,48,883,-43,24,10
350,-342,-70,933,-31,-51,-13
351,142,-114,1074,-3,-87,-14
352,482,-84,1075,20,-46,-2
353,403,-25,997,10,28,9
354,-3,75,991,18,70,18
355,-421,86,924,-25,55,20
356,-478,-20,883,-42,-14,-3
357,-124,-103,1011,-12,-78,-15
358,373,-104,1096,10,-76,-10
359,493,-66,1027,14,-8,3
360,208,33,999,26,57,12
361,-221,104,966,-4,68,24
362,-511,34,876,-43,26,12
363,-333,-69,936,-29,-51,-13
364,153,-112,1083,-2,-88,-13
365,479,-98,1068,11,-44,-2
366,393,-24,994,20,30,7
367,-11,82,998,16,68,20
368,-421,73,915,-29,53,21
369,-473,-22,886,-34,-16,-3
370,-113,-95,1016,-14,-79,-16
371,383,-112,1090,7,-74,-9
372,485,-60,1029,17,-6,4
373,201,41,1006,25,56,13
374,-234,91,960,-11,68,23
375,-512,34,877,-35,24,9
376,-325,-64,941,-27,-54,-13
377,157,-120,1078,-8,-87,-13
378,482,-97,1056,15,-43,-2
379,389,-5,1011,24,28,8
380,-17,80,992,10,70,21
381,-428,72,913,-28,54,20
382,-471,-12,893,-35,-18,-4
383,-99,-98,1025,-20,-78,-15
384,381,-114,1079,6,-73,-8
385,488,-52,1029,22,-5,4
386,197,40,1006,18,58,14
387,-239,88,952,-11,68,23
388,-509,37,879,-31,22,9
389,-324,-60,951,-30,-53,-12
390,170,-126,1076,-8,-87,-13
391,481,-90,1054,22,-41,-2
392,388,-7,1014,21,32,8
393,-27,70,985,8,71,21
394,-431,76,915,-27,52,21
395,-466,-10,902,-33,-19,-5
396,-94,-113,1014,-25,-80,-15
397,383,-114,1082,16,-72,-9
398,486,-46,1034,17,-4,4
399,190,26,996,16,57,15
400,-245,87,952,-6,68,24
401,-509,41,888,-32,19,8
402,-316,-72,953,-33,-55,-13
403,175,-124,1069,-3,-87,-14
404,483,-75,1063,24,-40,-2
405,378,-7,1012,13,32,7
406,-32,71,975,13,71,20
407,-434,87,927,-21,50,20
408,-462,-22,892,-44,-20,-5
409,-82,-115,1015,-16,-80,-16
410,388,-105,1089,19,-72,-7
411,482,-53,1031,14,-3,4
412,178,30,991,21,58,14
413,-251,101,959,-4,67,24
414,-507,33,887,-41,19,8
415,-310,-76,949,-30,-55,-13
416,185,-111,1082,2,-88,-12
417,481,-83,1062,12,-40,-1
418,374,-22,992,16,34,8
419,-44,81,990,19,71,20
420,-436,76,924,-30,50,20
421,-459,-37,882,-42,-20,-5
422,-76,-99,1032,-7,-83,-16
423,397,-102,1087,9,-71,-7
424,479,-59,1020,13,0,4
425,169,43,995,29,59,14
426,-252,102,965,-11,68,26
427,-510,19,876,-42,17,7
428,-303,-75,957,-22,-57,-13
429,196,-112,1086,-1,-86,-11
430,481,-93,1050,12,-38,-1
431,366,-11,998,23,33,8
432,-50,87,992,16,71,22
433,-438,68,912,-35,48,19
434,-451,-29,890,-32,-23,-7
435,-61,-94,1045,-11,-82,-16
436,400,-111,1073,7,-70,-8
437,473,-50,1023,18,0,5
438,159,51,996,24,59,16
439,-264,85,952,-16,67,24
440,-509,23,879,-33,16,7
441,-290,-67,969,-26,-58,-13
442,206,-119,1080,-7,-87,-11
443,480,-85,1051,18,-37,0
444,361,0,1001,21,34,9
445,-62,78,985,9,72,22
446,-446,61,905,-30,49,20
447,-445,-19,902,-30,-24,-6
448,-49,-103,1039,-20,-81,-15
449,402,-112,1068,11,-67,-7
450,472,-35,1032,23,1,4
451,148,44,989,16,61,14
452,-271,79,948,-13,67,24
453,-503,29,887,-31,13,8
454,-289,-76,974,-30,-59,-14
455,218,-133,1067,-5,-86,-12
456,482,-73,1057,24,-33,-1
457,350,4,1003,16,36,10
458,-72,67,970,6,72,20
459,-450,73,915,-24,46,19
460,-438,-24,907,-35,-26,-6
461,-39,-115,1031,-19,-82,-16
462,405,-99,1077,19,-68,-7
463,468,-35,1037,16,2,5
464,139,32,975,15,62,14
465,-281,93,956,-4,66,24
466,-504,27,889,-38,13,6
467,-275,-91,968,-32,-60,-14
468,225,-116,1078,9,-85,-12
469,489,-67,1065,18,-34,0
470,344,-9,988,10,38,8
471,-85,87,977,16,72,20
472,-451,76,918,-31,43,20
473,-435,-41,901,-41,-26,-6
474,-28,-113,1035,-11,-84,-17
475,413,-96,1091,18,-66,-6
476,464,-48,1015,10,5,5
477,129,46,981,26,63,16
478,-292,100,962,-10,65,24
479,-503,10,876,-42,11,5
480,-269,-80,979,-21,-62,-14
481,241,-107,1086,4,-86,-12
482,490,-82,1051,10,-31,0
483,334,-4,983,22,38,9
484,-90,93,993,11,73,22
485,-459,58,901,-39,45,19
486,-432,-40,902,-30,-29,-10
487,-12,-101,1048,-10,-84,-15
488,421,-106,1083,12,-65,-5
489,460,-47,1006,13,6,4
490,124,62,997,30,63,15
491,-297,92,950,-22,64,25
492,-504,8,879,-37,11,5
493,-262,-77,985,-23,-63,-13
494,249,-116,1085,-1,-85,-12
495,487,-88,1044,13,-30,-1
496,329,8,991,26,39,10
497,-102,89,986,6,72,22
498,-463,56,895,-33,44,18
499,-424,-28,917,-29,-30,-7
500,-3,-108,1047,-15,-86,-16
501,424,-109,1076,11,-64,-6
502,455,-32,1019,20,7,6
503,113,55,992,16,64,16
504,-308,79,935,-19,64,23
505,-503,15,887,-32,9,4
506,-252,-84,988,-29,-63,-15
507,259,-125,1076,2,-85,-13
508,489,-72,1050,22,-29,0
509,321,15,996,21,41,9
510,-112,81,971,1,73,21
511,-470,67,897,-27,41,16
512,-417,-33,922,-35,-31,-8
513,8,-121,1041,-17,-84,-15
514,428,-105,1087,19,-61,-5
515,453,-36,1019,13,8,6
516,106,49,984,18,65,15
517,-319,86,936,-13,64,24
518,-499,19,892,-33,6,4
519,-247,-90,988,-31,-64,-14
520,266,-118,1076,8,-84,-11
521,494,-63,1058,21,-28,0
522,318,9,990,15,42,9
523,-123,83,968,4,73,21
524,-473,68,903,-29,41,16
525,-412,-49,911,-40,-32,-7
526,13,-120,1043,-7,-85,-16
527,438,-93,1092,20,-61,-6
528,450,-36,1011,12,9,6
529,94,58,986,24,66,16
530,-325,98,942,-16,62,24
531,-501,9,883,-40,7,4
532,-236,-96,986,-27,-66,-14
533,278,-112,1087,12,-84,-11
534,496,-73,1054,12,-26,2
535,305,4,983,20,43,10
536,-130,93,977,6,72,22
537,-478,59,894,-35,39,17
538,-402,-52,914,-34,-33,-9
539,25,-108,1053,-7,-86,-16
540,441,-100,1091,15,-60,-4
541,447,-39,1009,15,9,5
542,88,63,983,21,68,17
543,-336,92,941,-19,62,24
544,-500,2,881,-41,5,3
545,-226,-91,988,-21,-68,-16
546,289,-110,1096,5,-84,-11
547,495,-82,1040,9,-24,0
548,296,13,987,25,44,10
549,-142,100,986,3,71,23
550,-482,51,880,-37,38,16
551,-400,-48,919,-31,-35,-9
552,38,-109,1060,-9,-86,-16
553,448,-109,1084,9,-59,-5
554,442,-34,1009,19,12,6
555,81,71,994,23,67,16
556,-346,84,928,-25,61,23
557,-502,2,879,-34,5,2
558,-220,-81,1002,-21,-69,-15
559,301,-117,1084,2,-82,-10
560,497,-77,1041,16,-23,2
561,290,24,998,26,45,11
562,-150,89,975,-3,71,23
563,-488,52,878,-30,38,17
564,-395,-44,927,-31,-37,-9
565,51,-121,1054,-14,-87,-16
566,451,-108,1083,17,-58,-7
567,442,-23,1010,23,13,6
568,72,68,996,16,66,18
569,-355,84,918,-21,61,23
570,-497,10,890,-34,2,1
571,-209,-95,998,-27,-71,-15
572,309,-127,1081,2,-82,-10
573,497,-67,1047,22,-23,1
574,286,19,1000,19,46,11
575,-160,84,959,0,71,22
576,-492,65,890,-24,36,15
577,-388,-48,923,-39,-38,-8
578,58,-122,1052,-10,-87,-15
579,458,-94,1090,19,-57,-5
580,441,-23,1017,16,14,7
581,63,55,981,12,69,17
582,-364,90,927,-15,61,23
583,-495,5,891,-36,-1,1
584,-204,-108,987,-29,-70,-15
585,316,-111,1092,12,-80,-10
586,500,-60,1055,15,-21,1
587,277,12,985,17,49,10
588,-163,95,973,6,71,22
589,-495,61,888,-34,36,15
590,-381,-64,919,-37,-40,-11
591,66,-119,1060,-2,-87,-15
592,462,-93,1093,16,-55,-2
593,434,-32,1006,13,17,7
594,54,65,985,21,67,17
595,-371,96,927,-18,59,23
596,-496,2,885,-39,-2,0
597,-194,-99,992,-20,-72,-17
598,327,-110,1101,9,-81,-10
599,499,-71,1047,11,-20,2
600,267,16,987,24,50,10
601,-177,102,975,5,70,23
602,-499,49,873,-39,35,15
603,-378,-60,925,-32,-41,-10
604,79,-113,1065,-1,-88,-16
605,468,-104,1087,13,-54,-5
606,429,-29,1003,20,18,6
607,50,77,997,18,69,18
608,-382,87,921,-26,59,23
609,-495,-3,881,-35,-4,0
610,-183,-93,997,-21,-73,-14
611,337,-120,1094,6,-79,-10
612,502,-73,1043,17,-19,1
613,259,27,1000,24,52,11
614,-180,92,969,-6,69,23
615,-506,46,871,-36,34,14
616,-375,-49,932,-30,-44,-12
617,92,-121,1062,-9,-87,-14
618,472,-104,1084,17,-53,-4
619,425,-18,1009,22,21,8
620,42,72,998,13,68,18
621,-388,82,913,-25,60,23
622,-495,3,887,-32,-5,-1
623,-171,-98,1004,-25,-73,-14
624,345,-128,1089,5,-78,-10
625,501,-64,1041,22,-16,2
626,254,32,1008,22,51,12
627,-191,88,961,-5,70,24
628,-506,48,871,-33,32,13
629,-369,-47,943,-29,-46,-11
630,98,-127,1056,-9,-87,-15
631,473,-96,1082,20,-51,-3
632,424,-16,1012,18,21,7
633,35,64,988,12,69,19
634,-398,84,914,-18,59,22
635,-489,2,890,-35,-9,-2
636,-165,-100,1002,-26,-75,-15
637,349,-118,1086,8,-77,-9
638,500,-54,1049,20,-16,1
639,244,24,1000,17,53,11
640,-198,89,959,-3,70,24
641,-508,55,878,-31,29,11
642,-360,-58,939,-35,-47,-13
643,110,-128,1054,-6,-86,-16
644,476,-88,1088,23,-52,-2
645,418,-21,1007,12,24,8
646,24,71,987,18,70,18
647,-406,93,922,-20,57,23
648,-487,-9,888,-42,-10,-1
649,-157,-107,998,-22,-76,-15
650,357,-113,1096,13,-77,-10
651,500,-67,1043,13,-15,3
652,234,20,993,22,54,12
653,-204,101,968,2,69,24
654,-512,46,875,-40,28,12
655,-356,-65,930,-31,-49,-11
656,122,-111,1072,-1,-88,-14
657,480,-98,1077,14,-49,-2
658,413,-29,999,16,25,8
659,12,82,998,20,69,18
660,-408,80,919,-28,55,23
661,-488,-17,882,-39,-11,-1
662,-144,-95,1009,-12,-77,-16
663,366,-112,1098,6,-76,-8
664,494,-69,1031,16,-11,3
665,225,38,1005,29,54,12
666,-210,100,967,-7,69,24
667,-511,29,865,-41,28,12
668,-349,-61,939,-25,-50,-12
669,131,-114,1076,-3,-87,-14
670,478,-106,1062,11,-47,-1
671,403,-16,1005,25,26,6
672,5,88,1002,16,68,19
673,-415,75,908,-30,54,22
674,-478,-9,889,-32,-13,-3
675,-125,-94,1014,-19,-76,-16
676,372,-122,1087,5,-75,-9
677,489,-62,1032,21,-8,4
678,213,35,1008,22,56,13
679,-221,89,956,-9,68,24
680,-511,36,871,-32,25,10
681,-339,-56,947,-29,-53,-14
682,148,-123,1077,-7,-87,-13
683,479,-98,1058,14,-45,-2
684,396,-7,1014,29,28,9
685,-5,75,993,2,68,20
686,-423,72,908,-22,56,21
687,-477,-6,894,-37,-16,-4
688,-114,-107,1012,-22,-78,-15
689,375,-121,1084,11,-72,-7
690,491,-50,1035,21,-7,3
691,206,35,1006,19,55,14
692,-232,86,947,-9,70,23
693,-511,45,882,-27,23,10
694,-329,-62,950,-34,-52,-12
695,156,-125,1069,-7,-86,-14
696,481,-85,1061,22,-44,-2
697,391,-7,1015,19,29,7
698,-17,63,977,7,71,21
699,-429,80,920,-21,52,21
700,-469,-12,896,-39,-18,-3
701,-97,-113,1012,-20,-79,-16
702,378,-106,1083,17,-72,-8
703,485,-49,1040,15,-5,4
704,190,26,992,17,57,12
705,-241,99,955,-3,68,23
706,-509,38,882,-37,21,8
707,-319,-78,948,-31,-54,-12
708,170,-115,1076,2,-86,-13
709,481,-83,1068,16,-41,-1
710,382,-21,994,15,34,8
711,-33,75,985,17,71,20
712,-432,80,925,-27,50,21
713,-461,-27,886,-40,-19,-5
714,-85,-104,1021,-12,-79,-15
715,387,-96,1095,15,-72,-5
716,484,-56,1019,8,-2,4
717,174,34,999,26,58,13
718,-249,98,961,-7,67,25
719,-507,23,881,-42,19,9
720,-307,-78,945,-26,-55,-14
721,189,-110,1090,2,-87,-13
722,484,-91,1058,14,-38,-2
723,370,-15,989,20,33,10
724,-47,94,997,18,70,22
725,-434,70,908,-38,48,21
726,-455,-28,892,-33,-23,-5
727,-67,-95,1037,-10,-80,-15
728,399,-111,1080,5,-69,-6
729,472,-58,1019,16,-1,3
730,164,47,1000,27,58,14
731,-263,89,953,-14,67,24
732,-505,20,878,-34,17,7
733,-296,-69,964,-25,-58,-13
734,204,-110,1088,0,-86,-13
735,485,-87,1045,13,-36,-1
736,358,1,1005,25,34,8
737,-59,81,984,6,71,20
738,-445,61,909,-33,48,19
739,-445,-30,892,-31,-24,-6
740,-48,-102,1043,-12,-82,-14
741,404,-116,1077,9,-67,-5
742,469,-45,1021,21,1,4
743,147,53,999,23,61,13
744,-271,86,948,-17,66,24
745,-503,22,882,-33,14,7
746,-280,-73,974,-27,-58,-13
747,222,-125,1079,-5,-86,-11
748,483,-78,1048,22,-33,-1
749,343,6,1004,22,36,8
750,-78,72,973,4,72,22
751,-452,64,909,-25,45,18
752,-436,-26,913,-31,-27,-7
753,-25,-115,1033,-19,-83,-15
754,410,-104,1078,21,-65,-6
755,461,-31,1031,17,5,4
756,132,38,978,13,62,15
757,-292,89,950,-9,65,24
758,-503,28,888,-35,12,5
759,-265,-93,976,-34,-61,-13
760,241,-123,1079,4,-86,-12
761,486,-70,1061,21,-31,-1
762,333,-4,988,14,38,10
763,-98,82,974,13,72,22
764,-462,76,908,-27,44,18
765,-423,-44,909,-40,-28,-6
766,-11,-115,1040,-11,-84,-15
767,422,-93,1092,20,-63,-5
768,457,-45,1015,5,6,6
769,117,45,980,22,63,15
770,-306,98,956,-13,64,23
771,-499,8,879,-41,9,3
772,-254,-88,985,-22,-63,-15
773,260,-109,1084,8,-85,-10
774,491,-71,1054,12,-28,2
775,315,2,985,20,42,10
776,-112,94,982,12,72,20
777,-468,62,902,-36,41,17
778,-411,-51,906,-34,-32,-8
779,8,-104,1051,-5,-83,-15
780,432,-99,1092,10,-61,-6
781,452,-49,1005,12,8,5
782,97,61,986,29,65,16
783,-280,-15,989,-18,61,23
784,-367,-954,53,-187,22,51
785,-475,647,1076,638,-56,-31
786,250,470,545,-258,-106,-43
787,262,174,1121,19,-41,-7
788,525,54,931,-141,-26,-26
789,150,198,928,16,65,24
790,-245,-43,1114,-229,90,34
791,-392,-548,621,-162,10,-3
792,-202,-199,1236,133,-32,-2
793,131,-321,889,-76,-45,-4
794,307,-157,1019,149,-30,-1
795,100,200,970,127,26,19
796,-182,199,1108,29,35,-6
797,-170,-362,328,-169,-8,-9
798,-237,452,1188,407,-30,-5
799,189,423,1017,-217,-64,21
800,369,-10,906,-70,-17,1
801,184,37,1031,-102,35,-11
802,-57,-68,1014,-78,55,16
803,-336,-357,778,-174,29,38
804,-381,-350,855,51,-12,-12
805,34,-295,1150,38,-72,-15
806,329,-215,994,104,-48,6
807,321,89,985,139,2,-4
808,8,356,1047,130,40,5
809,-221,367,970,-26,28,-3
810,-374,137,804,-99,6,-19
811,-81,128,1138,-25,-59,4
812,329,-69,1091,-140,-60,12
813,391,-252,994,-86,10,6
814,174,-237,968,-32,53,13
815,-240,-162,953,6,64,27
816,-513,-149,798,8,27,7
817,-349,-92,938,72,-54,-14
818,122,-12,1099,71,-96,-9
819,463,80,1122,72,-55,-5
820,392,155,1021,31,8,3
821,118,260,986,9,58,12
822,-304,181,954,-92,72,7
823,-465,-47,888,-115,9,2
824,-203,-196,1006,-66,-60,-6
825,237,-275,1045,-31,-66,-13
826,462,-231,1003,23,-23,6
827,231,-70,977,55,45,21
828,-193,87,991,60,63,14
829,-465,97,887,4,23,10
830,-332,85,947,15,-47,-6
831,128,42,1085,-8,-85,-12
832,473,-33,1094,-27,-47,-2
833,401,-13,1011,-13,25,8
834,29,45,998,-20,70,18
835,-388,-19,886,-63,61,21
836,-497,-122,862,-40,-2,0
837,-190,-182,1006,-1,-75,-16
838,337,-155,1087,41,-81,-9
839,490,-32,1042,58,-19,3
840,262,106,1002,49,47,11
841,-166,186,985,4,68,19
842,-492,114,889,-48,33,9
843,-254,-173,993,-95,-45,-50
844,113,-421,828,3,-47,-63
845,237,251,1105,164,-54,119
846,345,250,1220,-17,-6,27
847,61,7,802,-107,57,-49
848,-289,-47,954,-24,40,11
849,-318,-16,1002,-42,-12,30
850,-111,-217,928,-65,-47,-17
851,267,-243,1011,25,-50,-11
852,391,-34,1089,69,-13,15
853,97,16,1103,23,49,4
854,-182,-108,725,-14,56,-38
855,-467,241,977,133,2,52
856,-268,288,1115,-31,-60,15
857,226,-201,884,-140,-72,-60
858,446,-16,1105,75,-37,27
859,400,149,1168,-23,27,31
860,-234,-475,841,-199,82,-5
861,-331,-630,126,111,46,-60
862,-314,653,972,337,-78,60
863,15,479,1034,-38,-69,33
864,257,10,648,-227,-53,-45
865,550,36,1146,127,-12,-23
866,312,318,967,-128,57,57
867,-321,-444,788,-261,104,4
868,-441,-496,401,51,44,-30
869,-438,197,1101,132,-57,40
870,51,-154,1112,-89,-84,3
871,463,-240,759,17,-52,-39
872,135,-637,337,-36,4,-7
873,107,27,455,487,3,-23
874,-41,505,404,76,-39,-1
875,-230,506,1094,266,-14,29
876,-130,366,398,-211,2,-6
877,99,-428,508,-199,-74,39
878,438,457,638,315,-57,53
879,255,696,812,-152,33,14
880,-24,-140,558,-315,55,-22
881,132,-209,483,-150,41,-59
882,-214,79,1220,-7,69,12
883,-67,-562,692,-317,-10,59
884,-1,-434,1039,90,15,-23
885,-37,-194,893,47,11,-11
886,-22,-67,869,85,-11,44
887,-284,-87,769,10,8,4
888,-188,261,1256,242,-52,-44
889,127,80,941,-126,-77,-4
890,325,153,1028,127,-43,26
891,451,192,1213,-55,2,30
892,76,-96,429,-173,77,-4
893,-232,204,1225,101,76,-26
894,-475,-311,412,-259,15,14
895,-331,0,1004,154,-49,6
896,136,-70,885,-118,-80,-11
897,476,-109,1169,50,-48,4
898,325,-224,786,-89,36,11
899,-20,187,1114,187,61,2
900,-328,-385,1154,-193,53,60
901,-808,-618,-103,161,-40,213
902,-185,862,1070,505,-106,-23
903,355,-23,128,-239,-151,-118
904,614,490,1183,276,-83,-56
905,422,281,898,-123,57,10
906,150,261,650,-109,65,37
907,-216,302,960,-74,104,44
908,-339,265,1109,-246,71,-45
909,-153,-390,1264,-282,-30,-4
910,90,-551,455,-115,0,8
911,36,-178,1331,80,4,-10
912,-42,-1412,328,-296,5,145
913,-339,415,795,775,-21,204
914,-112,529,662,-65,-48,-164
915,16,75,614,196,-100,-97
916,359,454,975,129,-70,1
917,314,501,1269,78,-8,59
918,243,302,635,-143,33,50
919,-86,176,667,-108,74,0
920,-205,-23,988,-212,61,36
921,-375,-272,1086,-226,26,62
922,207,40,653,89,-59,-64
923,107,183,1362,-42,3,-28
924,264,-764,555,-361,32,14
925,-62,-407,849,137,34,96
926,-505,37,1072,145,33,-12
927,-156,-195,752,-42,-42,-78
928,-93,39,1196,198,-65,32
929,321,196,1063,23,-69,19
930,365,205,1096,58,-18,-17
931,168,224,901,-10,35,-8
932,-75,254,914,-76,63,-6
933,-210,-170,1256,-145,30,2
934,-218,-812,68,-174,-14,39
935,-129,367,1155,404,-14,-29
936,170,222,608,-161,-56,0
937,168,3,920,-54,6,0
938,72,22,984,4,16,16
939,-158,219,1024,-1,14,-7
940,-198,-339,910,-218,-10,2
941,46,-257,880,75,-27,0
942,232,-49,1198,53,-36,7
943,200,-117,968,-13,25,-4
944,-2,52,902,70,42,12
945,-294,252,1009,62,23,23
946,-337,50,886,-102,-18,-9
947,82,-288,581,-123,-61,-40
948,208,-594,568,147,-18,-80
949,28,539,249,349,-13,92
950,-58,736,896,84,-21,66
951,23,115,272,-317,35,-99
952,-187,101,1184,34,-13,-16
953,32,121,724,-150,11,3
954,70,-185,1298,-151,-52,39
955,209,-590,345,-155,30,-18
956,252,-100,1340,151,14,9
957,-183,-273,749,-115,62,45
958,-349,-145,865,120,28,-5
959,-466,121,1085,116,-32,-17
960,12,85,964,29,-100,-5
961,354,36,1073,12,-69,6
962,477,162,1123,75,-11,5
963,280,205,1005,-58,41,14
964,-97,122,991,-56,90,-2
965,-457,-27,824,-126,50,13
966,-460,-167,949,-64,-24,4
967,-59,-334,1014,-63,-78,-27
968,377,-280,1039,65,-70,-13
969,450,-91,1013,75,-4,14
970,125,93,985,84,57,13
971,-272,186,977,37,56,8
972,-469,165,902,-4,8,-3
973,-214,92,1019,-27,-63,-9
974,267,-38,1069,-55,-80,-7
975,470,-96,1055,-34,-23,0
976,302,-74,996,-21,43,9
977,-118,-47,959,-20,72,19
978,-456,-70,859,-26,42,17
979,-416,-96,921,5,-30,-4
980,-12,-121,1049,17,-84,-16
981,402,-57,1095,58,-65,-6
982,424,61,1023,43,1,5
983,127,158,992,20,56,13
984,-279,143,944,-38,63,13
985,-706,-418,753,-163,5,-52
986,-6,-612,449,149,-63,-127
987,195,520,1006,247,-112,111
988,401,398,1208,32,-43,108
989,228,189,564,-165,20,-25
990,102,136,1171,34,51,-73
991,-197,-159,884,-252,56,-37
992,-286,-626,734,-70,39,-30
993,-125,270,905,219,-51,89
994,166,274,1330,-28,-46,18
995,222,-413,660,-251,16,-34
996,104,-235,872,146,32,-43
997,-275,271,1228,104,15,68
998,-368,-33,892,-99,-5,22
999,-81,-980,84,-176,-51,-137
1000,192,340,1033,642,-140,-10
1001,603,539,475,-50,-59,141
1002,182,494,1333,127,27,61
1003,-76,151,385,-186,72,-41
1004,-97,176,725,-13,14,-49
1005,-117,343,1066,-65,19,-65
1006,-42,-657,652,-449,34,-78
1007,165,152,894,271,-27,101
1008,156,421,1250,-104,15,76
1009,-245,-780,868,-419,51,-11
1010,-152,-584,161,304,6,-40
1011,-222,622,697,382,-93,17
1012,177,350,775,27,-97,13
1013,285,149,684,-90,-58,3
1014,351,403,1147,262,-3,-2
1015,225,5,1029,-291,2,55
1016,-4,-452,160,-7,87,22
1017,-157,597,718,290,4,-33
1018,-165,422,1012,-83,-43,-35
1019,266,215,768,-240,-13,-14
1020,53,-438,847,-191,25,17
1021,373,-147,411,41,3,41
1022,37,398,1043,31,64,30
1023,-416,-180,994,-214,61,-4
1024,-371,-883,-7,-211,-7,-17
1025,-202,244,1375,433,-50,2
1026,323,-197,749,-262,-94,1
1027,382,-233,860,152,-1,2
1028,184,501,1238,222,36,-12
1029,-105,350,958,-116,22,8
1030,-312,-400,442,-238,41,-9
1031,-333,26,700,200,-16,-13
1032,100,267,1115,-22,-105,17
1033,320,-62,891,-122,-6,11
1034,307,11,971,26,21,-2
1035,105,-55,1116,-74,21,21
1036,-553,-1113,273,-214,68,259
1037,-487,924,850,886,-76,195
1038,-34,-50,-85,-514,-90,-71
1039,204,483,1149,474,-105,-52
1040,615,421,755,-144,-79,-22
1041,380,238,1083,5,22,11
1042,158,211,662,-107,98,40
1043,-229,296,647,-133,84,-3
1044,-340,346,1588,-124,67,-24
1045,-151,-969,28,-494,-6,7
1046,37,133,1538,314,-31,9
1047,143,-1120,676,-475,12,62
1048,-144,-46,530,561,-10,230
1049,-112,546,786,84,-16,-66
1050,-368,262,713,165,-20,-115
1051,50,369,753,28,-107,-38
1052,279,311,1127,61,-73,33
1053,432,520,916,-20,-5,73
1054,258,109,780,-268,52,65
1055,16,339,1210,-20,98,-36
1056,-342,-399,941,-431,66,-29
1057,-361,-1458,317,-165,18,159
1058,-296,62,604,499,-74,302
1059,415,199,877,-40,-75,-142
1060,189,21,535,202,6,-133
1061,67,519,957,87,-8,-31
1062,-112,263,1127,-18,-8,10
1063,-70,280,509,-23,7,15
1064,-3,226,892,-97,-9,48
1065,218,240,1619,-118,-4,5
1066,261,-1217,327,-423,22,76
1067,-139,361,1188,499,61,47
1068,-76,124,663,-295,28,-108
1069,-430,-427,551,-46,20,0
1070,-285,-14,1112,87,-52,-15
1071,196,62,1330,80,-101,-19
1072,461,-203,660,-106,-20,-3
1073,511,-380,748,23,20,78
1074,-206,298,1017,260,104,34
1075,-504,475,665,-35,26,-76
1076,-485,251,1013,-15,-43,-79
1077,272,-247,861,-218,-84,3
1078,183,-149,879,14,-40,77
1079,445,150,989,47,9,-16
1080,49,12,1098,-89,54,-10
1081,-142,-397,766,-147,54,25
1082,-477,-84,770,91,7,54
1083,-253,40,1176,62,-38,-51
1084,157,-228,938,-59,-85,-18
1085,361,69,1132,144,-29,4
1086,368,188,1053,14,6,14
1087,8,165,909,-27,64,11
1088,-376,27,917,-87,52,8
1089,-371,-26,1004,-21,-20,-7
1090,175,-992,228,-224,-65,29
1091,13,180,1089,493,-9,-1
1092,303,577,820,0,-46,-21
1093,-43,181,958,-69,33,-4
1094,-46,222,816,-62,30,-25
1095,-245,137,1061,-76,-21,-5
1096,63,-160,914,-153,-19,34
1097,107,-313,1033,-97,-23,5
1098,429,-412,926,2,-15,-13
1099,76,-669,232,-38,77,-9
1100,-322,263,627,422,78,22
1101,-578,801,632,232,-60,35
1102,-307,185,432,-302,-43,-100
1103,225,223,1239,163,-105,-28
1104,430,59,608,-276,-69,59
1105,578,115,1166,99,25,100
1106,76,146,871,-237,95,7
1107,-161,-511,930,-187,75,-23
1108,-571,-317,698,9,57,28
1109,-469,-255,1079,27,-52,-29
1110,149,-380,938,40,-101,-26
1111,362,0,1053,173,-46,9
1112,340,184,1116,111,-9,8
1113,37,305,961,37,33,-24
1114,-218,212,926,-20,43,-30
1115,-263,196,960,-48,-4,8
1116,-23,31,1099,-107,-46,19
1117,250,-175,1020,-98,-26,-9
1118,271,-170,1023,-34,7,-3
1119,32,-188,924,-42,45,25
1120,-287,-142,884,8,45,18
1121,-408,-149,888,18,-9,-6
1122,-183,-160,1080,60,-67,-12
1123,349,-350,784,-15,-71,-69
1124,296,58,971,276,-23,17
1125,192,677,1083,152,2,75
1126,-70,360,931,-135,35,5
1127,-237,229,776,-73,47,-44
1128,-184,3,1112,-187,-17,-10
1129,95,-542,878,-187,-45,2
1130,228,-374,903,65,-3,2
1131,284,143,1058,131,6,33
1132,-89,-213,1065,-146,50,23
1133,-432,-285,438,82,57,-21
1134,-369,317,1111,188,-56,-9
1135,-14,2,1096,-69,-87,14
1136,290,-74,914,11,-57,-10
1137,436,105,1152,104,-28,5
1138,263,183,972,-35,23,21
1139,-83,91,955,-42,80,-19
1140,-351,115,878,-57,48,-16
1141,-306,-61,1024,-102,-18,10
1142,-17,-159,999,-51,-49,0
1143,299,-161,1087,-8,-38,-13
1144,341,-115,946,-15,4,28
1145,9,0,1016,32,56,26
1146,-351,-388,890,-125,35,14
1147,-6,-515,25,246,-24,-47
1148,-67,558,533,340,-165,51
1149,457,500,695,174,-107,85
1150,368,446,631,-120,0,51
1151,229,191,996,46,37,-7
1152,105,239,638,-133,29,-14
1153,-73,-667,285,-287,63,17
1154,-241,580,519,661,-17,11
1155,157,503,475,-338,-53,2
1156,430,168,758,-48,-39,12
1157,208,384,522,-148,41,-17
1158,175,282,888,-141,96,-8
1159,-188,-546,895,-443,66,58
1160,-428,-838,464,-89,42,-4
1161,-417,-272,820,178,-24,-47
1162,136,-688,567,-94,-88,-27
1163,178,-320,274,294,-13,26
1164,82,675,704,419,-42,-3
1165,-8,539,1008,96,-41,-34
1166,-109,-15,329,-147,-1,-20
1167,-148,481,893,272,-31,-2
1168,41,-544,452,-443,-56,166
1169,-34,-212,129,570,14,410
1170,-37,813,495,-191,22,107
1171,-73,7,456,-29,-35,-44
1172,260,397,255,-27,-63,-181
1173,23,265,1174,-48,57,-102
1174,352,176,612,-307,42,21
1175,0,-107,1395,-201,50,101
1176,74,-265,548,-137,82,-5
1177,-56,-1267,25,-285,43,142
1178,-511,432,1157,561,12,141
1179,-312,-481,-226,-401,-19,-50
1180,-374,412,1537,539,-63,-64
1181,326,73,678,-260,-117,-9
1182,375,103,1142,197,-60,22
1183,430,-668,513,-172,15,140
1184,-98,410,880,423,65,221
1185,-294,899,999,-77,52,-21
1186,-441,-124,455,-321,-25,-94
1187,366,329,1154,154,-68,-78
1188,258,93,1063,-273,-3,64
1189,448,-733,998,-206,31,89
1190,-309,-711,224,-72,49,224
1191,-256,525,1584,431,43,-68
1192,-438,-293,58,-360,2,-130
1193,-244,146,1275,313,-74,-28
1194,366,191,1180,-81,-100,51
1195,358,143,937,17,-16,-5
1196,396,-1,956,-93,34,-24
1197,-15,38,988,-22,75,22
1198,-434,0,1008,-77,57,21
1199,-425,-235,792,-90,-14,-15
1200,-61,-199,1036,28,-73,-9
1201,364,-169,1031,20,-64,9
1202,376,-64,1064,57,6,-5
1203,78,65,989,60,47,4
1204,-248,218,974,33,46,25
1205,-399,107,860,-61,1,13
1206,-176,-10,1006,-29,-57,-13
1207,262,-90,1114,-35,-69,-16
1208,426,-100,1049,-12,-15,1
1209,261,-31,963,-4,43,16
1210,-155,15,958,-10,68,26
1211,-482,-44,875,-38,34,11
1212,-379,-110,927,-1,-40,-17
1213,66,-88,1068,31,-89,-12
1214,455,-59,1064,27,-56,2
1215,425,34,1024,34,16,8
1216,51,146,1020,19,68,11
1217,-339,124,941,-43,57,15
1218,-466,14,866,-55,0,8
1219,-194,-106,999,-43,-66,-11
1220,307,-201,1075,-24,-76,-15
1221,465,-134,1037,27,-17,1
1222,244,8,998,36,46,16
1223,-165,82,964,8,64,27
1224,-484,63,875,-15,30,14
1225,-360,-14,947,-19,-44,-15
1226,97,-76,1070,-5,-87,-16
1227,461,-68,1075,11,-52,-2
1228,421,-2,1017,9,20,11
1229,28,57,997,-5,70,19
1230,-386,47,916,-29,58,18
1231,-477,-28,880,-35,-6,0
1232,-173,-126,991,-20,-72,-14
1233,332,-147,1078,12,-77,-9
1234,483,-68,1052,33,-16,2
1235,235,50,1010,32,50,12
1236,-179,122,959,4,66,23
1237,-486,86,885,-34,28,15
1238,-130,-462,1142,-84,-46,9
1239,-122,-462,295,-17,-72,109
1240,391,496,1351,417,-40,-95
1241,204,263,742,-140,-17,-42
1242,103,170,835,-40,39,22
1243,-177,316,1249,0,39,21
1244,-250,89,762,-179,0,-7
1245,-54,-384,1022,-175,-36,13
1246,168,-330,1001,9,-20,-12
1247,334,-247,1050,16,-10,5
1248,3,-178,906,24,54,21
1249,-208,45,929,101,33,17
1250,-438,134,954,47,-8,7
1251,-200,67,975,7,-61,-28
1252,266,52,1074,32,-83,-8
1253,475,98,1109,4,-29,9
1254,347,51,968,-56,42,20
1255,236,-79,592,-108,51,-1
1256,-317,-610,441,-26,136,-91
1257,-406,137,428,292,4,81
1258,-809,820,511,368,-89,95
1259,74,500,678,-345,-103,-101
1260,738,-307,936,-120,-123,22
1261,287,141,270,4,30,64
1262,299,430,1304,67,48,53
1263,-157,-269,455,-440,71,-2
1264,-209,-594,880,-30,43,0
1265,-258,-404,828,51,-3,8
1266,5,-740,337,-74,-22,-31
1267,49,279,857,515,-24,32
1268,-120,906,1362,176,-35,0
1269,-10,-185,603,-341,-31,-52
1270,-42,-77,842,96,-19,-74
1271,103,274,1228,126,-39,3
1272,402,107,930,-132,-43,93
1273,197,99,903,-18,73,-9
1274,28,110,1103,-94,56,-24
1275,-321,-204,959,-157,63,3
1276,-455,-206,749,-27,-3,11
1277,-282,-131,1023,6,-61,-23
1278,330,-387,962,-41,-87,0
1279,375,-62,1124,150,-23,2
1280,283,-441,580,-70,18,-4
1281,-87,196,796,368,53,-14
1282,-285,601,843,69,5,-42
1283,-445,276,894,-27,-12,-9
1284,-84,-184,462,-229,-52,27
1285,134,71,1377,106,-87,61
1286,540,343,576,-4,-52,26
1287,297,250,1059,-42,36,37
1288,-175,-1048,9,-423,112,153
1289,-504,423,925,593,5,117
1290,72,80,-39,-329,-44,-106
1291,35,408,1156,259,-32,-71
1292,368,112,876,-260,-11,-30
1293,223,-23,744,-50,21,44
1294,-86,259,1127,20,83,32
1295,-308,-781,309,-378,18,20
1296,-382,-449,1207,288,3,11
1297,-270,-1053,-163,-124,-77,203
1298,-97,1045,1026,954,-132,92
1299,589,29,-303,-499,-67,-112
1300,286,216,813,416,-61,-114
1301,254,552,690,53,21,-71
1302,-84,165,684,-136,53,-19
1303,-9,250,648,33,39,43
1304,-186,709,960,-140,24,23
1305,107,-1252,427,-566,41,284
1306,-4,821,497,849,44,542
1307,-290,880,760,-600,17,100
1308,-99,-892,-33,-405,-60,-58
1309,364,-68,894,138,-54,-61
1310,157,247,1274,149,-10,44
1311,387,-306,547,-331,11,-11
1312,209,-85,1058,225,57,3
1313,-166,90,1158,-13,87,49
1314,-660,-1052,-126,-203,40,407
1315,-597,1450,1648,1051,-69,314
1316,-151,-402,-330,-830,-90,-36
1317,153,451,1045,637,-139,-49
1318,769,624,1026,-88,-116,24
1319,427,331,1216,2,-2,13
1320,296,-14,477,-166,79,-36
1321,139,-540,432,-188,94,88
1322,-468,783,1091,342,136,121
1323,-570,287,970,-504,9,-75
1324,-31,-95,750,38,-62,-95
1325,527,-57,1255,-214,-40,-29
1326,-28,-598,659,-225,41,88
1327,42,-370,890,64,36,-13
1328,-487,-264,1038,58,22,-61
1329,-127,-231,991,83,-45,-35
1330,185,-85,904,80,-73,34
1331,247,352,1284,232,-21,-11
1332,229,188,928,-109,-2,-19
1333,-61,238,963,69,48,-33
1334,-237,271,950,-86,18,-9
1335,-199,-37,950,-139,-14,13
1336,43,-211,1053,-97,-44,2
1337,249,-249,1053,-24,-24,-16
1338,283,-234,1000,-16,16,10
1339,-27,-102,876,45,52,32
1340,-353,32,966,45,36,10
1341,-411,-29,900,4,-18,-16
1342,-95,25,1037,60,-78,-14
1343,360,61,1102,30,-79,2
1344,465,36,1025,-5,-7,17
1345,234,139,998,8,54,14
1346,360,-323,965,-116,75,22
1347,-837,-148,309,2,103,74
1348,-590,415,1200,205,-22,-60
1349,-119,140,720,-142,-107,-86
1350,335,-135,1238,-49,-58,-69
1351,551,-99,916,-58,-50,68
1352,183,160,1072,77,68,-19
1353,-77,-242,890,-214,56,1
1354,-434,-196,841,79,43,12
1355,-328,-63,1103,14,-35,-13
1356,58,-146,984,21,-62,-22
1357,356,16,993,75,-47,15
1358,275,195,1060,57,12,11
1359,-24,106,993,-49,50,-12
1360,-293,18,881,-33,28,0
1361,-252,34,1011,-13,-16,8
1362,26,-153,955,-80,-51,6
1363,284,-162,1067,15,-31,-4
1364,290,-63,1034,24,14,6
1365,-12,18,993,21,52,13
1366,-278,32,867,-3,34,21
1367,-385,23,932,2,-9,8
1368,-128,-88,1006,-19,-66,-9
1369,306,-69,1083,30,-67,-6
1370,425,17,1058,29,-11,10
1371,220,57,989,-3,45,21
1372,-185,51,960,-21,66,20
1373,-483,-11,892,-40,27,11
1374,-337,-103,909,-25,-47,-6
1375,99,-120,1056,20,-86,-4
1376,430,-81,1083,24,-52,7
1377,377,-12,1024,26,14,16
1378,20,100,1008,32,58,12
1379,-323,90,914,-26,47,17
1380,-468,19,858,-38,-7,8
1381,-174,4,1038,0,-75,-20
1382,345,-99,1107,-40,-80,-6
1383,425,-33,1000,13,-17,5
1384,272,113,1036,8,35,6
1385,-150,45,921,-68,67,14
1386,-434,-100,860,-74,31,8
1387,-323,-126,962,-3,-43,-8
1388,89,-174,1050,-9,-74,-11
1389,430,-159,1029,31,-45,0
1390,356,40,1044,77,19,13
1391,-11,140,998,15,64,15
1392,-365,126,920,-20,47,11
1393,-429,72,891,-33,-17,0
1394,-94,-53,1033,-46,-71,-12
1395,374,-180,1059,-38,-67,-7
1396,460,-96,1041,27,-3,6
1397,190,4,1011,8,59,16
1398,-242,18,931,-16,68,21
1399,-533,19,870,-8,23,9
1400,-337,-44,962,-13,-56,-12
1401,160,-120,1058,-3,-92,-13
1402,505,-76,1078,35,-48,0
1403,403,32,1018,25,29,17
1404,6,106,994,2,71,18
1405,-407,83,918,-35,58,13
1406,-486,-4,885,-45,-9,0
1407,-145,-111,1015,-32,-77,-13
1408,371,-176,1060,-6,-76,-10
1409,488,-84,1046,37,-10,8
1410,217,28,1008,24,53,16
1411,-212,94,957,4,68,17
1412,-516,71,878,-22,26,7
1413,-337,-16,951,-24,-52,-9
1414,142,-103,1062,-17,-87,-12
1415,485,-94,1072,11,-46,0
1416,401,-11,1020,15,27,11
1417,0,55,980,1,71,17
1418,-414,63,918,-20,56,17
1419,-483,-16,891,-38,-13,-1
1420,-133,-107,1002,-18,-78,-12
1421,376,-126,1076,11,-76,-8
1422,496,-59,1052,26,-9,6
1423,209,40,998,20,57,16
1424,-221,104,965,-2,70,19
1425,-516,52,879,-37,27,11
1426,-337,-47,939,-33,-51,-11
1427,145,-126,1071,-15,-87,-13
1428,493,-121,1068,11,-46,0
1429,395,-23,1009,24,29,12
1430,-11,67,994,14,70,19
1431,-426,74,906,-23,54,19
1432,-485,-2,889,-31,-15,-2
1433,-120,-90,1012,-18,-80,-14
1434,396,-120,1085,5,-78,-6
1435,395,-983,545,-209,-11,23
1436,-13,286,455,822,67,25
1437,-224,829,727,-101,15,3
1438,-444,22,680,101,-16,3
1439,-313,575,536,94,-46,-52
1440,21,512,1424,-21,-110,18
1441,646,-753,224,-505,-74,84
1442,130,395,1090,453,71,89
1443,140,724,545,-207,39,-4
1444,-42,-403,548,-345,35,-47
1445,-143,-134,361,57,109,-77
1446,-383,-272,646,-267,-12,19
1447,75,-365,869,119,-17,54
1448,40,-29,1083,-15,-5,-27
1449,95,-273,627,-14,-9,2
1450,0,107,1156,174,5,36
1451,-382,44,530,-84,16,-18
1452,-33,154,1193,146,-64,-26
1453,166,-94,888,-113,-49,14
1454,172,-748,891,-52,-18,132
1455,-263,138,-61,588,21,361
1456,-123,1208,887,164,-56,27
1457,-163,-536,-215,-380,-26,-158
1458,218,391,676,366,-96,-183
1459,287,72,1071,-42,-53,21
1460,128,-280,-143,-196,71,259
1461,17,968,1135,344,40,150
1462,-70,-210,180,-490,10,-34
1463,-47,84,859,143,44,-129
1464,-153,357,881,-41,6,-162
1465,42,-582,860,-362,-18,27
1466,-105,-491,195,22,32,414
1467,-130,1326,1370,427,-11,148
1468,260,-150,395,-620,-85,-115
1469,473,-1057,-5,-158,23,-41
1470,-159,673,1223,599,56,31
1471,-76,-275,53,-529,-5,2
1472,-162,-172,977,223,37,42
1473,29,217,941,-31,-28,-36
1474,39,33,1009,8,-31,11
1475,175,-76,831,-84,22,-26
1476,-195,46,929,87,3,-10
1477,-49,118,974,-55,-10,14
1478,-171,-178,955,-95,3,6
1479,128,8,1136,77,-51,0
1480,352,-35,989,-57,-17,5
1481,132,9,967,1,56,14
1482,15,-381,1269,-47,44,7
1483,-680,-647,57,-57,25,232
1484,-420,1167,1547,595,-60,11
1485,72,-640,509,-658,-106,-113
1486,380,-157,626,353,-85,91
1487,509,644,1610,196,-28,26
1488,129,-288,141,-357,35,35
1489,57,5,1040,202,60,-23
1490,-391,257,958,21,59,-44
1491,-230,266,933,-74,-12,-36
1492,8,-70,1099,-167,-32,1
1493,218,73,1084,49,-16,15
1494,326,24,991,-167,-5,54
1495,-2,-164,872,-98,78,3
1496,-300,-238,1076,-63,35,-19
1497,-307,-282,767,-15,-7,-8
1498,-139,-117,1081,54,-50,0
1499,283,-194,968,19,-58,-4
1500,339,65,1123,130,-8,3
1501,59,203,990,25,36,-8
1502,29,-73,1160,-18,27,-7
1503,-422,-267,236,-134,26,55
1504,-322,634,1284,413,-29,-55
1505,166,28,934,-333,-85,-34
1506,257,-191,759,-49,-27,42
1507,347,281,1288,121,13,6
1508,119,-91,732,-211,46,8
1509,-382,-218,947,-69,60,15
1510,-366,-109,943,24,-3,-31
1511,-148,-123,994,3,-59,0
1512,276,-213,1051,-20,-69,-14
1513,445,-8,986,106,-3,-1
1514,111,211,1090,47,44,15
1515,-192,62,912,-73,47,1
1516,-377,24,909,5,18,7
1517,-13,-1171,180,-232,-41,71
1518,-111,715,1156,766,-37,-10
1519,251,336,462,-371,-88,-83
1520,139,108,880,161,-7,-35
1521,274,480,1050,-59,7,-4
1522,-105,90,840,-181,25,36
1523,-47,99,1013,-86,51,22
1524,-175,-374,992,-276,-2,-6
1525,294,-997,461,-88,-13,8
1526,-61,24,1012,363,45,14
1527,-97,313,969,28,10,0
1528,-276,106,787,-4,-8,14
1529,-324,280,1050,60,-21,-45
1530,92,120,1036,-56,-100,-12
1531,447,-64,986,-86,-49,30
1532,419,-79,1010,-39,30,32
1533,215,0,1207,-8,60,8
1534,-264,-184,829,-123,88,6
1535,-557,-25,912,67,38,4
1536,-427,-92,825,-51,-60,-3
1537,-8,-223,1064,12,-93,-19
1538,473,-122,1092,74,-75,-13
1539,497,62,1066,81,-7,3
1540,272,95,1014,27,59,-1
1541,26,-763,171,-221,109,-165
1542,-737,487,710,702,32,-60
1543,-333,555,298,-206,-61,71
1544,-354,570,1203,194,-87,-21
1545,393,198,696,-334,-107,34
1546,627,-290,1027,-170,-36,88
1547,407,-166,673,-36,77,-38
1548,-153,-71,917,-46,79,-15
1549,-227,-109,786,-52,45,63
1550,-341,-331,671,-132,8,6
1551,-209,-322,1038,125,-29,-26
1552,221,-56,998,55,-60,-7
1553,36,140,1011,137,-7,-7
1554,69,4,862,-46,-25,-9
1555,-103,-2,881,100,1,-13
1556,-118,303,1158,50,-17,8
1557,106,-21,1033,-102,-46,9
1558,338,36,1019,51,-23,1
1559,190,152,980,-27,36,11
1560,-15,77,970,-103,68,5
1561,-366,-100,964,-107,46,-10
1562,-341,-104,893,-15,-17,-5
1563,-38,-137,1043,-49,-60,6
1564,308,-277,971,-26,-48,3
1565,380,-27,1087,103,2,12
1566,66,136,1003,10,51,10
1567,-239,102,959,-16,45,12
1568,-411,75,834,-37,7,11
1569,-337,-871,560,-256,-59,-12
1570,108,31,518,711,-72,-28
1571,260,787,472,-53,-85,42
1572,-129,-419,143,-114,-12,103
1573,69,161,420,271,14,138
1574,-89,294,612,38,-5,111
1575,-144,-182,-209,39,-58,62
1576,39,704,985,225,-51,-19
1577,346,-264,510,-324,-29,-18
1578,432,-38,292,130,-11,74
1579,65,699,1162,179,68,12
1580,-174,-328,477,-465,69,-13
1581,-139,77,703,154,17,-71
1582,-287,321,1182,-96,18,-24
1583,64,26,1167,-203,-21,34
1584,242,-207,1030,-216,-4,56
1585,208,36,863,28,36,18
1586,99,-171,1157,-192,43,12
1587,-355,-609,668,-150,74,10
1588,-423,-234,997,148,-12,4
1589,-133,-228,1033,12,-67,-10
1590,211,-146,1023,127,-65,-4
1591,282,60,1063,142,-42,8
1592,116,193,1023,105,-2,-4
1593,-79,95,985,13,22,-26
1594,-220,21,787,52,2,-20
1595,-138,293,965,93,-36,8
1596,94,296,1167,-73,-44,17
1597,281,83,1000,-159,-16,27
1598,333,220,1236,10,26,-1
1599,88,58,680,-255,74,3
1600,-227,-153,1126,-140,84,-4
1601,-391,-429,885,-159,16,10
1602,-146,-856,1012,-69,-26,16
1603,-153,-461,344,257,-52,66
1604,409,650,1370,358,-62,-95
1605,56,-53,532,-167,3,-56
1606,99,-873,463,-55,13,275
1607,-431,1288,994,1209,-17,323
1608,-128,200,-373,-796,-113,-3
1609,192,-280,244,197,-95,-57
1610,713,1056,1225,268,-100,-41
1611,475,135,811,-326,23,24
1612,318,-743,62,-251,114,133
1613,-390,876,1462,448,94,59
1614,-359,560,743,-418,61,-83
1615,-166,-457,572,-454,12,-85
1616,69,151,1644,156,-20,-32
1617,264,-271,391,-428,-7,40
1618,-12,-436,947,-4,67,44
1619,-123,-363,1040,-62,16,-6
1620,-340,-714,549,-47,10,18
1621,-339,-10,1260,333,-37,-57
1622,314,-105,1082,4,-104,-13
1623,252,-150,702,98,-21,85
1624,215,565,1428,353,6,-7
1625,-115,148,742,-238,0,-16
1626,-106,88,844,191,30,-81
1627,-208,195,891,-75,-26,0
1628,72,194,939,-71,-29,46
1629,228,160,1253,-71,-5,62
1630,177,-96,578,-217,28,0
1631,170,103,1403,47,29,-21
1632,-214,-410,650,-294,73,18
1633,-434,-381,865,71,20,14
1634,-268,-323,982,-27,-57,0
1635,87,-233,1076,143,-68,-21
1636,366,-25,1065,128,-47,4
1637,257,141,1004,123,-4,21
1638,9,204,1033,45,30,-5
1639,-252,127,925,31,36,-34
1640,-285,70,803,5,-14,-6
1641,-101,323,1031,37,-57,26
1642,311,121,1342,-109,-48,17
1643,209,-65,636,-171,-3,53
1644,312,199,1352,96,35,-14
1645,-135,-191,871,-288,67,7
1646,-364,-290,655,-56,34,0
1647,-242,-215,1203,63,-32,-1
1648,-63,-154,869,-37,-49,-19
1649,401,-183,1084,60,-55,-23
1650,205,229,1008,160,16,13
1651,36,275,1067,-48,33,-6
1652,-285,-7,871,-93,33,0
1653,-259,92,965,6,-19,-11
1654,378,-680,1325,-161,-55,34
1655,75,-629,-331,122,-12,241
1656,-78,1118,1330,659,62,-68
1657,-258,115,235,-377,-52,-175
1658,-34,69,401,249,-34,-209
1659,-104,693,1033,125,-38,-40
1660,65,155,429,-361,-33,76
1661,381,22,1121,-108,-12,169
1662,195,296,1064,-107,51,32
1663,388,-245,1193,-262,42,-30
1664,-202,-637,493,-219,111,6
1665,-326,-932,626,-35,58,82
1666,-712,-376,554,240,-27,126
1667,-62,41,635,124,-97,-121
1668,99,552,1375,410,-109,-32
1669,365,94,534,-274,-64,-17
1670,282,242,1212,275,-22,-24
1671,190,478,867,-39,15,6
1672,-101,36,610,-196,58,25
1673,210,51,629,-147,12,-31
1674,-265,-693,597,-264,83,-46
1675,-57,653,189,569,32,45
1676,-529,1089,1129,163,-78,-58
1677,384,-242,-4,-659,-11,-194
1678,-277,-217,1184,77,9,-5
1679,-53,-175,464,-152,-21,11
1680,286,-143,1361,31,-74,26
1681,198,-444,398,-152,56,-18
1682,318,-192,1142,144,6,20
1683,-293,74,1170,63,74,26
1684,-305,-315,807,-80,17,-14
1685,-437,-186,741,108,-40,19
1686,13,531,890,294,-88,-14
1687,214,447,1286,-12,-83,25
1688,496,-219,638,-267,-20,-20
1689,284,39,1156,99,35,-9
1690,139,185,619,-29,71,0
1691,-377,198,1298,-53,56,45
1692,-601,-508,639,-320,34,-13
1693,-35,-187,1095,211,-90,-36
1694,160,43,1213,-22,-59,-6
1695,506,-372,762,-98,-15,6
1696,218,-590,512,10,37,83
1697,-459,281,803,380,74,5
1698,-284,736,873,145,-56,-97
1699,-224,183,867,-117,-63,-53
1700,381,-262,654,-111,-53,29
1701,90,51,772,18,-19,111
1702,359,418,536,80,5,18
1703,86,382,1116,-45,30,-27
1704,-136,-779,186,-463,84,-16
1705,-451,-88,995,262,4,13
1706,62,-33,800,-61,-37,-5
1707,-79,-283,908,-93,-30,20
1708,406,-255,845,123,-21,-27
1709,-26,364,1109,209,14,37
1710,-176,92,809,-163,32,-21
1711,-219,-62,935,63,-18,-17
1712,-54,214,1073,57,-38,0
1713,175,34,1029,-107,-55,27
1714,748,-763,871,-181,-9,-5
1715,-98,-255,232,555,100,-35
1716,-293,791,734,181,3,-82
1717,-451,-119,407,-260,18,-76
1718,-330,297,665,168,-56,-63
1719,41,-538,443,-286,-110,90
1720,247,396,665,431,-51,111
1721,306,454,801,-272,-58,78
1722,302,-350,628,-66,33,-2
1723,-59,-75,200,-113,57,23
1724,-182,506,1078,201,17,-92
1725,42,-588,241,-443,29,-9
1726,-74,337,1105,337,17,39
1727,29,-26,783,-367,-11,14
1728,21,-189,908,60,24,5
1729,-60,-35,955,-79,15,-8
1730,-289,-135,776,-29,-10,3
1731,-90,-162,1065,-33,-29,4
1732,107,-34,976,89,-52,-39
1733,433,-29,1256,21,-28,-8
1734,301,-1170,185,-122,61,167
1735,-426,1529,1700,1365,30,54
1736,-350,-263,-641,-899,-47,-143
1737,-339,296,665,624,-75,-228
1738,219,-434,566,-281,-135,-38
1739,210,364,1201,513,-61,140
1740,383,70,883,-267,-14,171
1741,-63,-30,600,286,1,57
1742,204,608,1269,138,-11,-70
1743,-154,-675,133,-262,12,-123
1744,-27,490,1241,435,6,-98
1745,-109,-45,974,-337,-11,56
1746,102,-42,990,152,-2,57
1747,36,350,1253,15,-22,29
1748,15,-179,661,-123,11,-34
1749,12,86,1035,114,-2,-53
1750,-194,-47,850,-154,18,-16
1751,-19,56,1058,25,-13,47
1752,96,144,1156,-89,-30,70
1753,218,88,973,-74,6,20
1754,181,105,1081,-75,21,-11
1755,6,-32,794,-140,57,-33
1756,-235,139,957,-68,55,-10
1757,-239,123,911,-185,21,26
1758,-61,210,1037,-151,-23,51
1759,232,243,1211,-222,-13,51
1760,390,-82,1089,-304,35,37
1761,65,-196,1010,-187,77,20
1762,-238,-474,904,-218,68,15
1763,-450,-577,810,-70,30,5
1764,-323,-511,810,31,-36,-19
1765,134,-385,1050,126,-78,-20
1766,383,-37,1154,189,-45,7
1767,249,261,983,149,16,16
1768,98,-14,1229,46,41,22
1769,-278,-723,-232,-129,27,18
1770,-398,1471,1136,1547,-57,57
1771,-145,-85,-685,-1200,-64,137
1772,-102,1017,1159,725,-121,21
1773,607,532,772,-560,-82,89
1774,429,-115,302,-246,19,112
1775,235,800,1265,82,84,59
1776,-240,-431,566,-761,106,19
1777,82,-677,861,-2,25,23
1778,-508,-1341,271,-345,16,154
1779,7,498,1010,1122,-61,63
1780,324,-183,-356,-565,-32,-140
1781,-355,715,824,708,27,-33
1782,26,714,839,-291,-22,75
1783,-175,35,689,-86,-53,123
1784,208,654,994,156,-13,53
1785,292,-484,793,-604,-12,83
1786,416,-2,1043,281,23,-25
1787,5,225,610,-247,85,-13
1788,-463,-294,1067,-131,76,19
1789,-314,-543,337,-159,-21,61
1790,-416,-134,1306,209,-47,-23
1791,369,-371,1045,-73,-88,-44
1792,469,-114,866,183,-32,27
1793,180,454,1203,201,49,22
1794,-67,291,949,-102,43,29
1795,-308,-507,339,-283,27,-22
1796,-352,-50,984,491,-2,21
1797,74,739,-1,40,-105,117
1798,-48,773,1280,113,-31,88
1799,571,80,564,-493,-2,-3
1800,189,-181,1164,-39,17,68
1801,-134,16,781,-91,79,-7
1802,-238,-546,1060,-235,11,-11
1803,-272,-602,559,49,4,26
1804,126,-351,1286,87,-58,1
1805,210,-559,453,6,-15,16
1806,113,386,926,455,17,-12
1807,-100,1017,1173,196,7,34
1808,-289,169,598,-358,17,62
1809,-257,-35,818,-79,-31,85
1810,290,170,1094,26,-92,-5
1811,498,-62,1071,-131,-7,14
1812,188,-403,729,-181,66,2
1813,5,-26,1102,158,48,31
1814,-581,-69,895,-137,69,25
1815,-421,-355,669,-16,-37,-12
1816,-65,93,1199,196,-97,-3
1817,436,-15,1106,-41,-69,-15
1818,336,-825,576,-157,6,92
1819,-27,119,296,548,48,203
1820,-147,1045,719,71,38,8
1821,-370,373,742,-107,-8,14
1822,-180,386,787,-152,-54,-6
1823,254,210,1323,-70,-74,29
1824,585,-883,478,-460,-13,35
1825,-37,-372,338,217,73,107
1826,156,308,1032,135,37,-62
1827,-527,0,645,-58,61,-6
1828,-493,-417,866,-80,-24,14
1829,209,-572,418,115,-86,2
1830,58,986,870,625,-40,-56
1831,304,562,540,-335,-10,59
1832,171,417,764,23,23,37
1833,-49,-179,730,-291,26,-2
1834,-170,-327,-3,-71,44,1
1835,-151,282,1044,60,-34,29
1836,-100,-225,815,-140,-35,-4
1837,429,-1174,233,-215,-29,-6
1838,98,666,1396,744,25,-8
1839,100,21,322,-461,15,35
1840,-437,-26,774,212,58,48
1841,-383,445,1111,21,-53,-25
1842,48,113,935,-77,-87,-14
1843,481,43,1012,-65,-41,-6
1844,470,178,1082,9,2,24
1845,98,-110,1115,-208,81,15
1846,-375,-284,773,-68,81,-7
1847,-346,-639,1366,-70,14,27
1848,-50,-385,-83,547,-98,239
1849,-226,1318,1278,1072,-167,87
1850,336,-348,-172,-1003,-77,-43
1851,587,314,589,495,-82,-16
1852,179,1180,738,287,-10,2
1853,180,371,13,-455,48,-7
1854,20,225,490,-125,71,26
1855,-34,432,1150,-228,74,-20
1856,-124,-1046,160,-613,41,60
1857,30,1030,1235,675,17,-38
1858,-256,-257,13,-797,51,-37
1859,-81,-363,1012,95,-11,4
1860,-315,-524,565,-225,-24,36
1861,-123,-1306,1012,-36,-44,-48
1862,316,265,466,1018,-92,37
1863,288,1385,1332,268,-52,11
1864,275,-244,202,-509,38,28
1865,-156,835,882,516,6,-13
1866,-269,660,1476,-60,9,-68
1867,50,-859,-325,-461,-52,18
1868,-44,1521,1473,800,-10,67
1869,163,476,388,-921,13,14
1870,408,-865,753,-322,2,-8
1871,114,372,324,315,75,3
1872,-175,167,1112,-361,48,-13
1873,-468,-1026,-44,-272,43,36
1874,-356,-42,1168,162,-41,-38
1875,52,-527,863,-94,-67,-37
1876,480,-243,1078,195,-56,16
1877,272,343,919,247,22,21
1878,16,267,1323,6,46,-17
1879,-298,-1162,-296,-356,59,-41
1880,-525,1609,1535,1634,-62,-1
1881,58,98,-223,-1048,-114,44
1882,8,-80,604,243,-2,-29
1883,417,1249,1770,339,-102,30
1884,344,-168,67,-693,-2,73
1885,-70,470,1120,241,123,-44
1886,-44,538,1168,-350,-2,-30
1887,-14,-607,696,-519,40,20
1888,-136,-366,1083,23,32,10
1889,26,-618,1080,-203,-11,-26
1890,235,-1230,785,-92,38,10
1891,-303,-424,-391,624,57,13
1892,-251,1569,1449,1421,-79,25
1893,-310,-92,-566,-1028,-53,61
1894,-286,921,1005,808,-110,-34
1895,604,880,680,-181,-175,76
1896,670,317,406,-180,-33,96
1897,315,824,1088,-35,116,54
1898,14,572,738,-533,89,-42
1899,64,-227,1373,-409,92,-39
1900,-346,-1107,-247,-445,90,52
1901,-462,988,1092,1032,-31,11
1902,119,-790,-286,-835,-26,-15
1903,-193,667,1296,630,0,-7
1904,45,-368,-2,-521,-47,30
1905,-165,-79,114,270,-16,19
1906,246,706,671,308,-45,-20
1907,251,554,769,-140,-26,32
1908,268,95,926,-213,43,-9
1909,229,-174,740,-132,48,8
1910,-297,-153,919,-138,77,22
1911,-422,-459,756,-104,31,12
1912,-410,-180,856,76,-41,-9
1913,-65,-252,1028,-6,-87,-42
1914,549,-1000,404,-162,-71,-58
1915,116,375,652,913,43,10
1916,2,1038,385,90,-18,83
1917,-497,664,1178,12,73,-39
1918,-89,443,140,-176,0,-100
1919,-217,674,1123,-59,-77,6
1920,284,251,1290,-367,-26,41
1921,426,-771,581,-483,-18,5
1922,222,-488,1058,102,73,-38
1923,-27,-486,942,-169,84,-16
1924,-475,-716,734,50,71,10
1925,-694,-631,230,30,-23,8
1926,-151,89,1191,449,-148,-32
1927,617,597,939,201,-107,-31
1928,348,363,707,3,-23,46
1929,330,358,904,32,41,29
1930,-8,619,893,-21,52,-8
1931,-330,218,900,-232,49,-4
1932,-267,-244,985,-225,-6,-8
1933,-54,-359,1008,-84,-43,4
1934,291,-545,810,-116,-38,-13
1935,298,-353,1100,128,20,9
1936,-20,-152,842,45,51,33
1937,-413,70,1022,151,31,-1
1938,-368,203,909,66,-35,-17
1939,0,306,1108,74,-74,-6
1940,433,152,1028,-85,-69,-3
1941,479,84,1112,-21,12,-5
1942,121,93,1034,-80,75,8
1943,-309,-66,912,-123,64,14
1944,-518,-189,822,-71,16,9
1945,-306,-284,936,-37,-57,-18
1946,186,-439,1058,10,-89,-19
1947,414,-676,552,0,-29,-48
1948,-151,633,938,1048,66,-9
1949,38,834,560,-332,18,59
1950,-432,251,349,122,35,17
1951,-466,989,201,87,-40,-58
1952,132,797,1207,-230,-127,-40
1953,841,-429,773,-665,-35,68
1954,260,-507,743,-110,62,22
1955,166,-440,1252,-88,75,-30
1956,-256,-1240,493,-250,117,16
1957,-698,-284,163,402,51,81
1958,-517,39,822,54,-95,-35
1959,63,60,1209,244,-132,-30
1960,470,567,970,178,-97,-7
1961,413,528,1025,38,-6,4
1962,431,-527,902,-376,16,81
1963,-440,165,548,1043,126,178
1964,-349,1582,841,441,-31,9
1965,-167,-412,-529,-967,-76,-72
1966,276,815,582,433,-79,-49
1967,357,1074,761,-187,-40,64
1968,529,286,352,-577,47,52
1969,-13,-463,1090,-401,119,21
1970,-269,-775,283,-260,65,-25
1971,-410,-748,1019,-48,43,-80
1972,-311,-810,386,31,9,-123
1973,3,-481,963,202,-88,-73
1974,263,-849,1059,65,-56,4
1975,90,-19,276,501,-7,-17
1976,-17,1279,1562,514,-55,-20
1977,-91,289,341,-260,-13,40
1978,-150,-1390,277,-186,-48,67
1979,62,1244,1128,1573,-49,71
1980,344,943,574,-623,-107,-20
1981,183,-360,40,-247,45,-38
1982,90,1242,872,276,33,-4
1983,-235,620,912,-491,27,30
1984,137,510,520,-364,26,-15
1985,83,-460,1723,-650,39,13
1986,270,-694,-161,-49,28,34
1987,-57,715,1534,326,60,1
1988,-467,-802,-288,-453,83,-3
1989,-251,338,1041,297,-53,51
1990,-486,-237,622,-203,-36,-18
1991,308,-1117,734,-29,-105,-87
1992,501,526,581,738,-57,26
1993,409,894,1277,-28,12,49
1994,5,-502,139,-340,93,50
1995,-324,1142,1478,540,36,-23
1996,-447,206,791,-555,0,-26
1997,-91,-66,721,-23,-60,-1
1998,275,234,1443,-106,-82,36
1999,428,-428,895,-291,8,-11
2000,241,-504,993,-71,60,-19
2001,-155,-397,906,48,68,37
2002,-441,-1501,-124,-318,51,-6
2003,-562,1632,1468,2309,-69,6
2004,-42,581,142,-1047,-131,75
2005,-218,365,498,449,-61,35
2006,662,1279,1066,143,-149,15
2007,431,84,623,-392,-42,94
2008,282,848,770,127,113,10
2009,-176,728,1196,-514,70,-30
2010,214,-85,1159,-439,52,-58
2011,128,-1348,-192,-749,76,22
2012,-221,1605,1137,2483,19,36
2013,84,54,261,-1739,-23,-3
2014,-602,691,687,601,84,-41
2015,-72,759,333,-508,-106,-32
2016,-11,-142,821,-155,-97,34
2017,509,-17,732,-118,-5,-41
2018,482,-528,850,-206,-18,12
2019,189,-499,951,-6,92,6
2020,-204,-336,723,2,96,13
2021,-907,-779,409,-95,34,79
2022,-462,55,-96,959,-92,135
2023,130,961,498,272,-176,-56
2024,140,-67,-330,-163,-53,-11
2025,572,1062,1092,418,-94,4
2026,597,480,1170,-234,0,56
2027,144,346,40,-173,137,5
2028,-273,808,1124,-59,103,-28
2029,-242,-29,986,-600,49,-82
2030,-159,-891,419,-449,14,16
2031,68,-261,585,97,-30,26
2032,-65,-842,555,-71,55,-60
2033,143,198,306,400,-46,83
2034,-598,1105,1005,449,26,21
2035,-231,288,392,-424,-42,-99
2036,421,-30,748,90,-127,73
2037,224,840,1032,74,7,27
2038,585,-274,1111,-473,7,22
2039,74,-562,466,-107,99,17
2040,-423,79,1314,136,77,-5
2041,-493,-476,591,-260,22,-10
2042,-415,-460,770,98,-63,-29
2043,132,-8,1283,210,-105,-17
2044,443,-588,789,-161,-61,47
2045,110,104,351,421,22,72
2046,184,975,852,235,32,-30
2047,-140,591,758,13,9,14
2048,-403,559,472,-127,50,-12
2049,-229,330,1475,-197,-51,-14
2050,621,-349,509,-328,-98,47
2051,166,-187,1287,-33,73,17
2052,128,-720,761,-239,53,-42
2053,-164,-446,964,111,34,48
2054,-603,-116,708,99,58,15
2055,-258,-184,1082,49,-84,-14
2056,134,-37,947,148,-97,-16
2057,464,118,1468,169,-37,-3
2058,281,-29,214,-163,11,83
2059,40,694,1124,362,52,20
2060,-259,641,1123,-108,37,6
2061,-457,-358,86,-500,-2,32
2062,-76,-167,939,220,-66,-35
2063,422,45,492,-108,-60,15
2064,412,-514,1034,-171,9,12
2065,50,-204,842,178,68,5
2066,-260,234,1027,72,56,-1
2067,-543,-58,791,-70,4,8
2068,-192,153,887,92,-78,5
2069,245,226,1203,10,-74,-22
2070,510,-68,1096,-121,-33,-23
2071,360,-107,868,-30,48,10
2072,82,-597,547,-218,77,-2
2073,-371,608,674,872,89,37
2074,-385,800,585,-301,-63,49
2075,-342,631,882,179,-72,36
2076,379,422,633,-289,-114,-43
2077,631,157,1125,-82,-72,2
2078,627,-338,520,-371,73,37
2079,-208,-469,942,-97,120,-4
2080,-463,-541,751,-60,63,-16
2081,-535,-482,615,57,0,-69
2082,-185,-393,1261,212,-82,-36
2083,208,-865,-112,-19,-111,23
2084,24,1522,1019,1437,-41,-19
2085,300,487,-57,-805,-3,-12
2086,-122,146,609,354,5,-21
2087,-124,-747,67,-278,-12,30
2088,-138,1105,938,918,-49,76
2089,362,992,603,-551,-99,31
2090,117,243,622,-206,45,-22
2091,428,1176,1136,-1,24,-22
2092,141,67,753,-787,59,-30
2093,-223,-846,1253,-372,115,15
2094,-273,-1097,-185,-182,35,31
2095,-347,1251,1706,1208,-36,-135
2096,267,-710,-587,-870,-47,-58
2097,103,983,1288,794,-26,71
2098,-79,640,586,-376,-13,-33
2099,79,240,1045,8,-16,-59
2100,61,159,742,-176,-6,40
2101,-6,-1278,899,-440,-35,49
2102,146,734,563,1275,16,-5
2103,1,1301,1014,-118,13,-68
2104,30,-401,-33,-539,17,-5
2105,-81,1135,876,439,3,16
2106,-592,717,1124,-411,20,-8
2107,256,-501,745,-522,-100,-12
2108,323,-1153,983,-160,-12,36
2109,194,-889,-181,145,43,-40
2110,303,450,1471,422,14,7
2111,-453,-73,-192,-203,94,66
2112,-518,437,1687,349,-8,-31
2113,-260,-573,-190,-302,-82,-21
2114,240,780,1594,555,-99,-7
2115,452,-232,530,-502,-23,79
2116,330,31,1007,232,20,43
2117,133,437,1415,62,51,10
2118,-241,-224,505,-286,69,-9
2119,-454,-18,1066,143,10,2
2120,-222,141,987,-23,-57,29
2121,122,-164,1034,-117,-70,-9
2122,434,78,1046,106,-40,-6
2123,348,297,1132,-13,27,31
2124,-143,39,852,-165,69,14
2125,-318,72,1012,-13,30,11
2126,-388,-60,819,-164,-17,4
2127,37,-176,1174,-44,-72,-29
2128,416,-339,893,-108,-41,2
2129,323,-128,1129,86,25,4
2130,30,-186,932,-54,60,11
2131,-253,-1558,-4,-454,55,-20
2132,-533,1521,1236,2931,-33,3
2133,-134,954,280,-1071,-130,128
2134,-503,310,61,179,-47,126
2135,530,1515,877,326,-176,45
2136,530,24,522,-630,-85,180
2137,532,878,514,178,51,106
2138,-104,973,1293,-500,119,61
2139,191,281,411,-575,72,-39
2140,14,-1218,670,-768,58,22
2141,-153,336,707,641,93,45
2142,-55,-528,404,-701,38,-59
2143,-300,-173,680,398,68,0
2144,-266,-1128,-405,-455,-12,17
2145,-628,1182,1197,1341,-109,41
2146,300,535,247,-643,-144,-1
2147,175,555,954,446,-25,51
2148,331,157,659,-331,-15,99
2149,163,-69,289,136,10,195
2150,254,1030,403,129,56,78
2151,-694,283,497,-485,85,51
2152,-130,-94,985,-166,-50,-44
2153,168,-416,711,-241,-46,55
2154,17,-369,1090,-19,13,-38
2155,361,-853,657,-201,10,-45
2156,-117,-70,1013,340,55,17
2157,-174,-629,477,-207,15,10
2158,-358,125,424,515,-42,81
2159,68,1047,659,229,-76,22
2160,76,720,1497,-85,-44,14
2161,528,155,460,-261,-4,7
2162,252,462,1192,57,16,48
2163,-78,-45,849,-375,89,27
2164,-270,-686,788,-277,49,-9
2165,-445,-482,881,62,15,-23
2166,-131,-479,800,-4,-50,-72
2167,51,-679,696,13,-57,-11
2168,294,-616,518,228,-31,73
2169,415,880,135,700,29,22
2170,-403,1481,1595,350,29,39
2171,-162,37,-7,-835,-11,34
2172,-102,454,1330,268,-49,115
2173,375,190,690,-394,-62,-30
2174,462,-477,1101,-183,13,-28
2175,-19,-598,559,-204,120,-4
2176,-87,-160,1156,169,38,-29
2177,-559,-340,594,-156,58,-12
2178,-519,-511,692,94,-41,-59
2179,69,-369,1130,184,-161,-8
2180,394,-159,429,112,-50,3
2181,482,768,918,403,1,-39
2182,224,1024,1528,84,15,21
2183,-290,-24,381,-484,71,22
2184,-406,7,673,53,29,2
2185,-50,80,734,-131,-83,-1
2186,221,-227,1118,-87,-43,0
2187,324,-925,158,-290,33,-19
2188,72,26,1176,418,19,-10
2189,-195,120,842,-94,40,41
2190,-412,-304,563,-72,25,16
2191,-253,315,1291,317,-79,-12
2192,235,246,1085,-114,-82,-20
2193,461,44,956,-4,-8,-11
2194,272,-438,973,-166,22,66
2195,-88,-49,282,104,74,161
2196,-196,541,802,203,-22,-60
2197,-204,620,991,66,-7,-23
2198,-93,-512,612,-402,-72,-6
2199,182,-82,185,301,-37,3
2200,636,625,767,39,-36,-15
2201,76,55,644,-195,75,34
2202,-256,-130,588,-161,84,17
2203,-560,-311,706,-40,22,-42
2204,-223,-114,481,34,-80,-8
2205,230,-113,678,-33,-63,32
2206,404,-987,757,-175,-47,-34
2207,247,428,649,867,76,-23
2208,-126,1163,795,-2,32,23
2209,-206,506,926,-96,11,86
2210,-560,505,379,-206,22,8
2211,-59,220,1362,-135,-126,-19
2212,744,-539,442,-423,-76,7
2213,223,-323,1043,46,75,-8
2214,140,-514,970,-126,77,-38
2215,-364,-712,785,12,75,-17
2216,-144,-958,125,159,15,-99
2217,-622,1503,806,1639,-123,-23
2218,142,868,211,-847,-139,152
2219,161,430,550,387,-96,198
2220,9,1423,470,160,-88,96
2221,347,816,715,-345,-36,20
2222,648,277,125,-445,10,49
2223,-59,221,975,-418,118,-6
2224,136,-739,1002,-492,64,4
2225,113,-1393,754,-399,86,0
2226,-321,-619,-30,517,162,-138
2227,-109,1156,1200,794,105,-145
2228,-902,-51,-399,-503,-19,83
2229,-581,1001,1517,481,-235,81
2230,135,702,1228,-270,-172,100
2231,683,146,417,-177,-118,-7
2232,789,29,1314,-107,24,13
2233,399,-1438,168,-562,63,-37
2234,113,1375,1222,1748,117,-13
2235,-522,1069,382,-738,70,8
2236,-549,-226,127,-253,18,147
2237,-515,1120,1191,257,-99,77
2238,131,483,1609,-346,-140,-40
2239,1070,-1059,477,-543,-60,-31
2240,98,-849,-201,131,92,-27
2241,-132,1178,1557,842,76,-16
2242,-414,-417,-328,-816,8,61
2243,-431,648,1473,561,-27,-20
2244,175,-828,399,-600,-81,-40
2245,482,495,853,726,-42,-6
2246,222,800,901,-282,31,65
2247,-124,-356,805,-197,71,1
2248,-323,-9,188,-19,21,-31
2249,-297,529,1319,182,-35,6
2250,166,-346,1025,-410,-71,21
2251,360,-606,502,-34,-19,-25
2252,199,-1388,477,-156,35,-49
2253,-7,921,437,1534,34,46
2254,-75,1074,358,-497,39,156
2255,-861,203,78,-237,69,82
2256,-137,1009,1043,129,-126,9
2257,342,-529,683,-723,-130,82
2258,713,209,1045,317,-26,-16
2259,358,-7,1037,-386,63,-6
2260,-39,-548,980,-151,105,9
2261,-306,-510,668,-67,77,44
2262,-752,-1256,-425,-91,46,-90
2263,-238,1175,1119,1491,-184,25
2264,431,680,215,-716,-92,129
2265,-73,743,1097,437,19,50
2266,414,961,657,-237,-42,72
2267,115,271,737,-327,24,72
2268,-61,135,943,-169,50,6
2269,54,-765,769,-531,6,-39
2270,219,-1096,25,97,62,-182
2271,-325,660,412,707,40,161
2272,-27,827,614,-82,-32,206
2273,-447,350,1066,-87,-17,-54
2274,-50,220,192,-44,-61,8
2275,136,675,1058,80,-93,-15
2276,550,-388,739,-449,-26,-8
2277,482,-490,754,-54,45,29
2278,-5,-132,1228,72,83,15
2279,-185,-647,420,-223,77,20
2280,-599,-104,558,300,65,51
2281,-501,490,733,163,-99,11
2282,26,131,1207,-74,-118,-24
2283,571,-72,714,-26,-61,-24
2284,588,446,1186,163,-19,-4
2285,303,-225,833,-319,84,31
2286,-276,-427,157,-10,116,45
2287,-683,607,801,293,19,-1
2288,-460,68,885,-237,-71,3
2289,94,-971,222,-235,-66,25
2290,721,645,704,620,-127,21
2291,438,981,1286,3,54,15
2292,13,-705,-56,-609,105,-13
2293,-292,442,1088,453,26,47
2294,-642,258,809,-313,33,-17
2295,-61,-1123,556,-354,-79,-31
2296,178,-323,976,340,-62,24
2297,543,458,1098,214,-25,-22
2298,178,-170,1103,-202,48,18
2299,-244,-46,428,103,64,8
2300,-377,814,1272,298,1,14
2301,-352,-143,725,-469,-48,-15
2302,292,-258,865,91,-75,-20
2303,404,201,1364,58,-28,5
2304,379,-569,989,-264,16,2
2305,32,-519,-44,153,106,21
2306,-647,670,864,310,50,26
2307,-355,812,807,154,-90,19
2308,-70,-22,618,-466,-44,-20
2309,322,156,765,272,-91,-36
2310,724,-226,849,-350,-56,12
2311,161,-476,-33,139,141,54
2312,-324,490,851,103,64,-22
2313,-439,247,579,47,-4,31
2314,-370,53,551,-235,-11,-13
2315,40,59,895,155,-117,-44
2316,740,60,925,-182,-78,11
2317,326,-370,659,-115,90,30
2318,-83,-73,1077,80,60,-6
2319,-335,-989,465,-218,56,10
2320,-486,602,835,841,7,38
2321,98,745,590,-254,-154,25
2322,258,647,1426,204,-48,18
2323,496,328,665,-342,-6,-49
2324,324,302,1201,43,9,-2
2325,-32,-214,602,-447,103,66
2326,-439,-536,846,-97,57,-8
2327,-458,-634,889,-66,-18,-62
2328,-21,-518,846,135,-58,-90
2329,203,-1093,793,-81,-71,-6
2330,239,564,191,1248,-3,14
2331,-51,1491,881,158,-2,20
2332,-196,98,195,-397,45,59
2333,-222,884,352,289,-65,-26
2334,-71,1236,1045,-4,-59,14
2335,760,258,484,-760,-39,45
2336,199,-541,1069,-345,57,21
2337,138,-1531,69,-374,104,-56
2338,-273,272,1483,594,76,-43
2339,-389,-380,-175,-480,44,34
2340,-663,-380,1011,222,-47,3
2341,60,-510,1578,77,-137,-48
2342,350,-821,-86,131,-88,-48
2343,326,1679,1570,1228,-29,10
2344,349,482,76,-717,3,90
2345,-244,548,740,304,67,52
2346,-459,1408,1112,-1,37,-65
2347,268,354,1222,-625,-100,-47
2348,401,-528,904,-421,19,63
2349,63,-439,1019,-151,67,5
2350,-33,-864,1271,-215,56,-81
2351,-80,-1496,89,-148,97,-125
2352,-336,1324,1292,1585,135,-151
2353,-957,990,256,-406,-98,-96
2354,230,645,1350,165,-256,67
2355,485,999,1147,-80,-76,18
2356,156,465,655,-235,-9,35
2357,830,144,1184,-291,-5,61
2358,-140,-1494,436,-628,97,16
2359,-450,526,1003,902,112,-103
2360,-325,-261,362,-537,-50,-79
2361,12,210,708,457,-49,68
2362,207,502,860,-205,-41,29
2363,44,115,1230,54,2,-53
2364,126,-967,831,-420,5,-16
2365,-293,265,101,914,20,-32
2366,98,1531,1304,502,-89,106
2367,-83,-5,-643,-851,33,102
2368,82,704,1500,352,-24,-71
2369,421,-67,193,-512,-24,23
2370,0,603,1114,144,59,32
2371,-406,-181,828,-498,39,-1
2372,-33,-741,822,-170,-25,-54
2373,-64,-653,802,-28,-5,3
2374,210,-397,1072,127,-24,-47
2375,234,-820,1134,-60,14,-6
2376,-221,-457,-376,486,44,-50
2377,-100,1705,1402,1528,-70,49
2378,-311,87,-493,-1157,-12,145
2379,-347,785,713,648,-59,17
2380,363,1328,1051,-112,-144,64
2381,622,393,480,-529,-38,62
2382,619,583,1285,-158,97,39
2383,-111,-403,772,-733,111,4
2384,-81,-753,1026,-152,90,9
2385,-559,-613,600,-211,118,-56
2386,-589,-744,642,13,29,-172
2387,-200,-727,656,136,-77,-222
2388,69,-1020,249,-58,-139,-174
2389,291,803,349,1769,-78,52
2390,-57,741,31,-448,-84,155
2391,-282,435,478,405,-19,135
2392,274,1212,552,141,-67,37
2393,196,686,1099,-205,-58,70
2394,568,878,218,-179,35,4
2395,132,835,1007,-395,97,-4
2396,59,22,939,-581,105,-32
2397,-194,-963,629,-733,63,25
2398,-411,-429,1032,601,102,51
2399,-29,-559,-544,-408,-65,-79
2400,-114,279,1439,670,-68,-36
2401,326,-558,-85,-450,-28,-22
2402,112,672,1303,719,-20,44
2403,-196,605,563,-290,17,-43
2404,134,101,965,4,-33,18
2405,-61,290,990,-71,-6,52
2406,215,-46,1218,-145,-24,-30
2407,213,-400,889,-181,40,6
2408,17,-488,581,-69,36,-16
2409,-309,-499,308,159,69,4
2410,-643,537,468,264,4,79
2411,-186,663,1339,148,-125,0
2412,306,-312,203,-429,-71,-71
2413,529,216,1145,371,-39,4
2414,580,-243,163,-389,44,2
2415,-305,54,922,192,114,56
2416,-585,293,985,-11,37,22
2417,-363,-463,276,-278,-27,-60
2418,-198,-131,1009,193,-93,0
2419,601,17,972,41,-80,12
2420,461,-193,905,-82,8,-5
2421,135,73,945,153,69,-6
2422,-263,254,1088,-7,67,42
2423,-583,59,779,-57,7,13
2424,-258,-66,891,-53,-64,-17
2425,241,-26,1178,28,-88,-9
2426,545,-81,1105,-38,-43,-5
2427,347,-99,966,-14,53,6
2428,-105,59,925,9,78,31
2429,-519,144,972,6,35,20
2430,-469,-19,890,-83,-27,-16
2431,4,-984,553,-209,-102,-29
2432,543,565,795,892,-48,9
2433,518,845,566,-213,-33,-1
2434,207,494,1065,42,81,42
2435,-356,451,695,-218,104,-10
2436,-446,172,889,-122,-20,-32
2437,-122,-500,486,-395,-33,29
2438,49,-622,922,-38,-44,-30
2439,525,-799,898,-11,-37,-31
2440,141,-495,607,137,69,-3
2441,-183,370,1042,351,38,59
2442,-337,-961,406,-369,-23,-60
2443,-314,1046,361,1548,17,-99
2444,-76,1230,441,-313,-130,82
2445,256,312,697,-5,-114,131
2446,321,1095,519,109,-3,31
2447,156,821,788,-304,10,-8
2448,560,389,582,-482,21,-17
2449,-378,-647,937,-599,140,2
2450,-118,-852,505,-137,23,-1
2451,-155,-1303,743,-314,-6,-125
2452,-122,248,694,1041,116,-183
2453,-340,779,732,-73,-75,-63
2454,-95,397,790,188,-80,78
2455,2,836,923,-13,-51,-3
2456,-86,512,736,-38,-66,1
2457,903,292,1008,-254,-74,22
2458,333,-405,1032,-288,78,59
2459,-89,-1283,603,-341,84,-66
2460,-81,532,487,1189,84,-112
2461,-314,1310,885,-11,5,-12
2462,-507,-231,-99,-531,-1,119
2463,-362,903,1436,329,-113,38
2464,288,579,1388,-229,-131,-30
2465,922,-332,651,-428,-40,-26
2466,276,-1380,750,-254,88,21
2467,-72,32,545,581,96,4
2468,-605,261,858,-205,57,31
2469,-604,-6,451,163,-25,13
2470,0,145,1387,-44,-123,-23
2471,409,-528,-71,-21,-58,-44
2472,594,943,1642,465,-40,11
2473,68,-369,135,-586,100,30
2474,-233,516,1281,457,50,0
2475,-435,156,633,-406,3,30
2476,-229,-42,1032,47,-45,-26
2477,286,-242,1076,-214,-67,-5
2478,412,-336,861,26,-12,4
2479,240,-14,1132,8,46,22
2480,-231,-255,806,-65,71,29
2481,-507,66,921,122,16,-8
2482,-385,-852,799,-290,-53,-25
2483,72,214,-186,1116,-84,-75
2484,573,1560,1355,805,-140,148
2485,6,-110,-606,-1062,80,190
2486,-59,1188,889,634,18,-15
2487,29,593,266,-589,-14,64
2488,-83,350,259,-321,39,40
2489,-37,248,1510,-268,-18,28
2490,402,-1540,-309,-678,4,-48
2491,-1,-733,-151,524,83,-127
2492,-35,1046,668,1086,-11,120
2493,-133,264,-431,-835,41,201
2494,-830,1058,1135,505,11,-51
2495,37,598,442,-397,-126,4
2496,480,386,976,-53,-127,27
2497,671,-100,1164,-343,23,42
2498,406,-1033,516,-443,86,-6
2499,-249,-503,131,379,148,-90
2500,-393,553,230,226,24,96
2501,-728,429,865,26,-21,107
2502,-174,-104,705,-199,-126,-44
2503,540,295,1061,291,-117,-23
2504,601,350,946,-157,-5,-34
2505,421,-213,645,-180,60,27
2506,-196,-56,837,-8,116,77
2507,-205,-726,212,-252,26,-27
2508,-242,225,361,600,-79,24
2509,325,1039,604,172,-92,25
2510,287,364,938,-270,-53,-16
2511,564,-96,328,-125,46,47
2512,-149,644,1170,90,69,21
2513,-317,-366,698,-441,47,-22
2514,-178,-1095,249,-195,4,-40
2515,-420,-327,927,359,-24,15
2516,481,263,790,122,-120,-6
2517,256,160,1117,40,21,-7
2518,194,-293,357,-142,37,-36
2519,-224,514,1195,361,27,41
2520,-400,505,838,-145,5,46
2521,-136,-283,854,-242,-41,-56
2522,230,-109,940,82,-75,1
2523,484,97,1266,-7,-11,8
2524,214,-417,584,-234,55,8
2525,-230,-89,1076,190,68,24
2526,-504,64,919,-37,24,18
2527,-358,-166,898,-8,-55,-19
2528,135,-52,953,65,-86,-14
2529,475,151,1178,112,-59,4
2530,477,54,912,-81,28,3
2531,-1,156,977,39,74,12
2532,-420,171,988,-67,62,22
2533,-509,-24,881,-82,-17,1
2534,-155,-202,959,-94,-74,-18
2535,392,-229,1080,22,-80,-13
2536,551,-119,1055,11,-13,0
2537,222,-1023,433,-183,58,5
2538,-81,446,680,854,117,48
2539,-381,1004,569,-146,-29,30
2540,-463,211,950,-59,-39,50
2541,40,-4,142,-306,-74,-43
2542,598,632,1110,331,-130,12
2543,737,103,426,-454,25,53
2544,-5,-378,903,-190,132,4
2545,-384,-438,793,-68,69,-1
2546,-438,-314,778,-20,19,-41
2547,-543,-414,763,15,-19,-46
2548,223,-364,884,92,-129,-41
2549,341,-896,700,-72,-74,-40
2550,254,405,72,1187,55,-129
2551,69,1403,644,281,-37,38
2552,-140,127,-69,-324,67,156
2553,-451,1074,214,338,-34,43
2554,-200,1252,1206,-75,-100,16
2555,783,357,386,-724,-74,8
2556,545,153,1264,-205,65,48
2557,3,-1359,252,-827,72,-63
2558,-111,1233,1236,1460,79,-77
2559,-675,36,-223,-990,29,-31
2560,-315,107,895,328,-54,105
2561,-98,203,530,-330,-64,-28
2562,316,155,1021,213,-78,-108
2563,719,-198,446,-342,-9,59
2564,-66,-42,1017,96,82,72
2565,-275,-205,990,-119,45,-21
2566,-540,-1492,58,-363,-20,-91
2567,-11,1248,1158,1745,-51,-36
2568,208,1279,674,-441,-139,76
2569,269,-121,432,-224,15,132
2570,-112,1321,1039,422,25,19
2571,-232,744,1583,-293,-30,-52
2572,473,-1010,-625,-752,-29,-37
2573,-184,1220,1692,803,29,63
2574,302,-390,-316,-1010,11,27
2575,82,-1046,704,-62,49,-47
2576,-218,-126,112,314,74,2
2577,-86,-278,521,-246,-15,58
2578,-676,-482,819,209,4,21
2579,-78,87,836,62,-95,-81
2580,323,-17,972,99,-84,-15
2581,574,423,1180,258,-38,31
2582,345,280,696,-159,59,82
2583,-230,463,1307,112,86,5
2584,-411,221,921,-186,21,-42
2585,-297,100,575,-122,-27,-13
2586,-20,321,1493,-10,-73,25
2587,414,-1046,819,-503,-51,5
2588,371,-414,778,286,39,-28
2589,45,140,1193,-5,53,24
2590,-275,-204,605,-68,56,58
2591,-497,-1434,-145,-358,10,-53
2592,-213,1452,778,2623,-77,-22
2593,201,964,419,-995,-155,161
2594,-149,108,-86,-31,-7,119
2595,599,1352,505,279,-69,20
2596,180,261,472,-617,10,109
2597,212,883,408,3,83,-16
2598,-144,221,1592,-670,67,1
2599,237,-1012,-112,-511,59,-62
2600,-36,1223,873,2287,-20,95
2601,45,143,-457,-1811,79,111
2602,-457,599,739,529,53,-24
2603,-34,490,567,-509,-117,37
2604,-220,31,872,-32,-5,-14
2605,332,-417,551,-322,-47,-38
2606,424,-637,764,-74,-49,6
2607,263,-426,975,83,90,-4
2608,-13,-493,751,-15,70,1
2609,-289,-451,409,-5,28,35
2610,-343,428,519,692,-12,47
2611,-148,1131,622,-16,-90,26
2612,153,368,1117,-195,-120,-48
2613,747,197,696,-100,-38,7
2614,441,380,964,-59,44,64
2615,115,-899,318,-521,107,4
2616,-564,-274,716,237,89,24
2617,-624,270,683,70,10,7
2618,-298,-410,857,-192,-85,-52
2619,315,-330,762,141,-103,-7
2620,690,64,948,156,-48,-14
2621,231,61,784,13,66,4
2622,-47,405,984,120,61,28
2623,-524,257,813,-77,57,7
2624,-444,50,797,-120,-47,-2
2625,87,-71,1143,-15,-80,-12
2626,503,-208,1004,-123,-59,-10
2627,438,-195,1072,23,28,0
2628,44,-172,894,-50,78,29
2629,-460,-21,977,83,63,21
2630,-522,-61,820,-29,-13,2
2631,-183,-13,1011,83,-79,-15
2632,369,28,1147,33,-94,-7
2633,507,48,1022,17,-7,8
2634,167,-58,602,-52,48,42
2635,-155,390,1009,170,46,6
2636,-423,72,538,-227,38,-2
2637,-312,-163,1044,-15,-57,6
2638,199,-354,666,-119,-66,-40
2639,403,25,1373,224,-30,-2
2640,365,-128,720,-179,29,24
2641,-116,108,1199,191,77,17
2642,-504,75,654,-135,36,12
2643,-388,37,1134,81,-45,-15
2644,-27,-78,875,-92,-78,1
2645,501,-128,1195,42,-70,-19
2646,481,-28,905,-2,14,7
2647,127,300,1121,89,72,16
2648,-329,123,946,-136,64,22
2649,-435,-906,489,-294,5,-1
2650,-158,50,627,653,-54,-7
2651,224,809,653,-36,-107,-8
2652,640,313,1177,5,-58,18
2653,345,198,723,-213,66,-32
2654,-64,341,1111,76,73,9
2655,-322,-181,670,-411,45,62
2656,-566,-558,715,-74,20,-18
2657,-147,-471,1013,15,-78,-48
2658,324,-479,918,45,-81,-26
2659,335,-563,1248,112,1,1
2660,257,-417,55,417,1,-34
2661,-395,1592,967,1258,20,37
2662,-342,396,-186,-802,15,94
2663,-337,617,277,447,-99,59
2664,-55,1446,637,151,-96,36
2665,645,565,457,-610,-113,59
2666,752,470,676,-238,10,67
2667,211,187,881,-556,169,-12
2668,-3,-836,970,-478,85,25
2669,-480,-1578,362,-462,127,20
2670,-232,442,663,1260,144,-68
2671,-668,256,327,-327,-56,-206
2672,74,356,918,414,-210,23
2673,343,876,744,-48,-79,53
2674,-193,482,271,-62,-30,-30
2675,725,379,649,-178,-52,-33
2676,316,-487,716,-405,32,80
2677,-57,-450,730,11,82,-15
2678,26,-636,1282,-102,43,-24
2679,-199,-1356,296,20,71,94
2680,-249,1550,1591,1687,28,67
2681,-443,736,-98,-931,-41,56
2682,-302,239,830,151,-68,75
2683,74,1405,1192,209,-120,62
2684,456,626,979,-389,-84,49
2685,1088,-605,1090,-505,18,46
2686,-107,-792,-311,-99,143,11
2687,-331,1186,1715,836,75,-11
2688,-657,-563,-602,-834,37,34
2689,-474,723,1301,555,-64,-4
2690,273,-1015,405,-627,-113,-9
2691,432,392,994,741,-65,-52
2692,461,951,997,-52,23,18
2693,-26,-319,777,-301,78,49
2694,-349,350,520,200,44,12
2695,-395,744,1323,-20,-23,0
2696,-40,-63,937,-358,-66,-22
2697,434,-834,857,-251,-54,4
2698,394,-231,713,220,35,21
2699,57,33,1170,-91,46,13
2700,-402,-1491,68,-431,77,-7
2701,-590,734,185,1666,-6,-23
2702,124,1399,914,23,-138,101
2703,-225,22,-143,-543,-38,99
2704,451,1157,833,442,-103,-20
2705,494,709,867,-463,-32,82
2706,369,332,406,-348,90,23
2707,-198,-220,1334,-420,85,8
2708,-114,-1183,190,-370,64,-19
2709,-389,-1214,-366,23,51,-80
2710,-339,1133,1091,1486,-59,42
2711,346,274,-257,-869,-31,108
2712,-326,881,1316,634,-24,-52
2713,89,795,397,-294,-33,-20
2714,118,485,793,-84,-43,58
2715,237,218,1083,-272,-18,50
2716,315,-859,648,-494,30,7
2717,-57,-740,902,1,80,9
2718,-214,-372,343,385,41,34
2719,1,910,578,474,-53,30
2720,-532,642,358,-71,59,36
2721,-294,586,1022,-1,-86,-56
2722,537,425,877,-26,-122,48
2723,379,638,823,-124,15,19
2724,486,-405,998,-439,49,19
2725,-147,-675,845,-143,101,34
2726,-312,-811,324,-122,76,-51
2727,-672,-287,420,323,0,-6
2728,-74,500,817,213,-124,28
2729,331,-6,1400,-70,-102,-16
2730,566,-400,315,-67,-4,-71
2731,158,850,1146,497,49,23
2732,-27,615,809,-272,22,74
2733,-405,-249,366,-305,71,-13
2734,-490,6,1116,65,-33,-16
2735,249,-193,1290,-155,-104,-20
2736,384,-605,645,-138,-1,2
2737,348,-46,1078,201,25,25
2738,-55,-279,592,-126,73,20
2739,-614,-810,579,-18,31,42
2740,93,979,99,723,-62,29
2741,-410,1072,1285,61,-72,-9
2742,623,-843,-286,-756,-66,-14
2743,505,650,1089,552,-10,83
2744,-106,545,673,-268,93,-53
2745,59,-772,659,-431,36,25
2746,-608,-394,684,148,50,83
2747,-418,-168,420,-27,-69,3
2748,450,-419,1005,40,-89,-108
2749,257,114,862,265,-11,51
2750,410,234,1007,9,5,43
2751,-172,297,887,50,83,-18
2752,-378,313,755,-55,11,6
2753,-393,51,1001,-92,-15,2
2754,108,-121,1119,-77,-94,-18
2755,469,-250,876,-77,-42,7
2756,374,-200,1174,17,37,-1
2757,8,-198,870,-18,69,20
2758,-459,14,972,98,51,23
2759,-505,34,813,-9,-11,6
2760,-125,28,1010,60,-94,-11
2761,375,147,1135,43,-85,-24
2762,594,200,1106,0,-11,-14
2763,279,157,1053,-76,63,12
2764,-239,60,930,-106,86,30
2765,-556,-151,843,-129,41,-1
2766,-420,-290,898,-42,-48,-28
2767,81,-613,1140,-33,-83,-9
2768,42,-1066,-317,34,-84,247
2769,327,804,962,932,-31,-25
2770,309,809,258,-217,57,-131
2771,-159,604,855,114,36,-42
2772,-311,905,733,-105,59,-4
2773,-263,-288,248,-481,-41,69
2774,111,-92,758,42,-48,99
2775,333,-44,453,-266,-16,-91
2776,107,-458,1108,-71,44,-41
2777,60,-559,448,-162,36,20
2778,-520,-1075,447,-1,44,154
2779,-214,279,562,593,-82,134
2780,275,343,506,-67,-66,-185
2781,270,710,747,435,-32,-30
2782,365,996,1166,-145,-13,48
2783,37,267,982,-232,72,33
2784,-254,260,647,-169,42,13
2785,-390,-343,1194,-307,-7,-25
2786,63,-1036,918,-225,-24,-27
2787,-129,-1003,281,169,-55,259
2788,438,1100,1094,922,-71,-52
2789,418,45,-237,-549,77,-152
2790,-341,693,1007,463,58,21
2791,-429,1010,1010,-132,-16,41
2792,-88,259,649,-262,-48,-23
2793,191,-245,914,-280,-45,16
2794,475,-1159,420,-289,-22,71
2795,186,-140,1367,352,61,-49
2796,-114,-138,505,-151,79,-47
2797,-467,55,911,182,28,68
2798,-359,-502,1241,-128,-37,90
2799,-450,17,49,350,-98,104
2800,770,986,1403,333,-121,-185
2801,573,143,305,-328,12,-35
2802,297,240,1157,76,66,130
2803,-395,294,572,-208,87,96
2804,-354,39,1104,-68,26,-98
2805,-442,-410,545,-229,-23,-9
2806,175,-302,1073,-6,-97,5
2807,469,-460,1029,-29,-27,-12
2808,229,-154,956,124,44,-14
2809,43,80,960,69,43,32
2810,-296,-401,835,-44,52,81
2811,-618,60,338,233,-8,30
2812,30,850,1422,270,-104,-94
2813,280,-17,603,-314,-51,31
2814,486,183,903,38,-17,45
2815,380,234,1315,-29,37,-28
2816,-446,-18,538,-233,109,27
2817,-309,-301,1067,-100,-5,-19
2818,-360,-274,752,-28,-42,5
2819,146,-239,1212,15,-64,-46
2820,500,-446,833,-48,-43,7
2821,542,-726,932,74,33,57
2822,-236,1,38,510,111,87
2823,-195,1315,1012,362,-1,-51
2824,-752,309,-110,-403,29,16
2825,-196,955,1096,227,-119,-29
2826,650,249,1407,-444,-171,76
2827,694,-1054,-105,-463,59,24
2828,55,218,1240,437,90,-32
2829,-226,-243,424,-442,63,27
2830,-575,-364,895,85,53,35
2831,-562,-185,752,-6,-52,-33
2832,278,-185,1189,116,-138,-44
2833,475,13,999,75,-25,14
2834,403,252,1063,109,11,-9
2835,30,244,1070,-20,61,20
2836,-455,196,845,-56,64,25
2837,-397,43,979,-79,-36,-13
2838,17,-243,946,-103,-77,-10
2839,562,-1011,165,-191,-25,-97
2840,5,498,608,763,19,56
2841,92,855,735,-195,29,122
2842,-437,279,1090,-53,56,-48
2843,-374,132,390,-171,-47,-17
2844,48,142,1257,-9,-78,-4
2845,445,-542,838,-334,-43,-10
2846,438,-471,847,59,14,-1
2847,98,-172,1117,51,76,28
2848,-320,-129,829,17,70,30
2849,-610,11,819,87,11,4
2850,-343,167,1028,99,-73,-5
2851,252,107,1101,-8,-113,-12
2852,594,86,1079,23,-46,-17
2853,486,151,1095,-20,44,-3
2854,-23,53,989,-86,86,30
2855,-489,-12,882,-73,69,27
2856,-569,-164,849,-76,-6,-10
2857,-190,-313,950,-33,-92,-23
2858,295,-945,497,-137,-103,-133
2859,623,-285,331,588,43,-133
2860,-49,1347,575,271,16,260
2861,-105,933,1153,-22,48,124
2862,-488,339,345,-363,31,-61
2863,-279,-424,783,-173,-69,-133
2864,456,-354,887,3,-74,6
2865,117,-354,447,-165,-13,96
2866,451,-75,886,284,14,-21
2867,-11,-57,417,-209,68,11
2868,-472,-6,1055,220,48,12
2869,-391,71,456,-137,-30,10
2870,-99,121,1278,195,-75,-23
2871,409,4,863,-157,-67,-14
2872,505,26,1264,108,-7,14
2873,36,-155,1052,-103,76,3
2874,-189,-396,76,-103,32,38
2875,-473,597,1088,447,-15,32
2876,-143,-98,57,-438,-58,-25
2877,323,-77,1104,174,-81,-13
2878,379,-65,803,-81,0,-10
2879,417,188,1248,131,11,31
2880,-148,-154,541,-250,109,18
2881,-470,78,1093,170,38,-7
2882,-492,-97,888,-158,-35,6
2883,-50,-199,1012,59,-84,-19
2884,477,-87,1002,16,-74,0
2885,524,1,1111,61,3,11
2886,137,46,989,-5,76,6
2887,-298,222,989,54,71,9
2888,-502,189,862,-75,14,3
2889,-280,4,957,-71,-56,-8
2890,216,-103,1110,-62,-81,-15
2891,515,-117,1038,-34,-33,-3
2892,340,-1,1069,-5,47,18
2893,-355,-602,766,-287,98,103
2894,-417,-69,289,808,-70,170
2895,135,941,272,53,-167,-76
2896,-322,-89,-56,-224,48,-23
2897,264,422,359,21,-97,106
2898,498,117,737,13,-49,189
2899,49,296,129,5,133,111
2900,-120,764,931,-70,16,-25
2901,-157,-503,829,-493,25,-24
2902,-250,-342,804,68,27,20
2903,84,-58,888,-81,-73,18
2904,320,-544,906,-117,-5,-26
2905,213,-354,781,113,57,17
2906,-225,321,1320,228,30,15
2907,-373,-12,702,-152,21,0
2908,-297,98,945,137,-33,-13
2909,100,250,1161,19,-100,-5
2910,532,43,1094,-79,-38,-8
2911,362,96,941,-31,47,-5
2912,13,122,1176,-59,57,17
2913,-374,-147,810,-164,69,20
2914,-517,-181,783,-35,2,-22
2915,-118,-636,1282,-49,-69,-8
2916,-262,-776,-60,157,-111,246
2917,491,1405,1085,955,-64,-76
2918,449,295,-327,-611,17,-158
2919,193,600,778,336,40,-44
2920,-137,598,1087,-187,93,26
2921,-511,-411,-400,-547,21,117
2922,-48,334,1056,279,-47,6
2923,34,-172,383,-432,-22,-80
2924,377,-1215,1163,-181,-16,12
2925,-153,-121,256,542,4,276
2926,113,1090,1097,313,18,-131
2927,-223,-477,-76,-468,42,-102
2928,-477,23,402,128,-44,140
2929,279,760,1345,406,-102,15
2930,452,123,163,-456,-10,-38
2931,247,-29,1032,30,46,59
2932,-59,118,1325,-56,53,28
2933,-460,-120,728,-167,50,-49
2934,-312,-420,787,-102,-27,-25
2935,423,-972,364,-101,-80,96
2936,50,224,983,512,26,-30
2937,188,520,702,10,0,-81
2938,-167,-84,563,-173,45,77
2939,-187,457,861,232,-5,50
2940,-239,267,536,-230,-37,23
2941,-146,-40,1382,-13,-41,-47
2942,548,-265,734,-218,-72,-27
2943,282,180,1314,190,27,6
2944,238,-218,846,-298,59,18
2945,60,-765,892,-81,70,50
2946,-556,-791,-272,312,58,70
2947,-310,1052,929,673,-53,-40
2948,-162,534,91,-341,-120,18
2949,432,457,1475,149,-66,-12
2950,506,-170,80,-435,-27,49
2951,123,760,1020,384,56,3
2952,-234,422,924,-388,66,23
2953,-260,-986,360,-479,21,-18
2954,-363,-297,1109,263,-24,0
2955,158,-167,824,-142,-51,-47
2956,349,-493,1058,8,-34,12
2957,172,-53,757,148,36,19
2958,-78,62,1097,107,27,-7
2959,-357,-584,135,-74,45,-55
2960,-207,1057,971,633,-66,68
2961,1,920,1033,-193,-88,77
2962,430,63,793,-314,-33,-59
2963,505,84,1091,-6,14,3
2964,17,67,1087,-210,67,29
2965,-273,-661,711,-312,73,15
2966,-454,-443,781,79,29,-15
2967,-371,-421,914,18,-54,-65
2968,259,-336,1133,148,-88,-36
2969,408,109,1060,179,-39,21
2970,256,349,1043,126,24,-1
2971,-90,422,1044,1,51,8
2972,-384,273,862,-77,19,16
2973,-349,-38,1108,-100,-36,-20
2974,300,-1040,64,-292,-66,-113
2975,301,546,967,645,-49,73
2976,424,701,669,-200,34,83
2977,-164,-157,1164,-145,75,-60
2978,-476,-419,-12,-46,54,-52
2979,-278,511,1186,236,-70,44
2980,-142,-738,522,-399,-67,20
2981,517,126,896,400,-83,-26
2982,466,158,498,-129,9,6
2983,179,-3,1050,66,37,23
2984,-337,60,589,-61,92,4
2985,-428,278,1119,101,6,0
2986,-295,-132,792,-226,-63,14
2987,165,-185,1162,89,-78,-28
2988,534,-63,1101,-5,-36,-2
2989,338,-116,967,-16,37,17
2990,-111,-18,924,29,79,11
2991,-483,86,956,39,41,13
2992,-434,73,910,-10,-37,-4
2993,62,53,990,-2,-86,-13
2994,495,127,1158,14,-57,-8
2995,506,6,1050,-86,24,-2
2996,29,46,1028,-24,87,16
2997,-386,118,849,-75,68,27
2998,-633,-242,1019,-162,16,28
2999,-608,-439,2,249,-144,189
3000,362,997,721,1057,-186,-2
3001,325,-359,-90,-689,-37,8
3002,69,351,-30,288,57,142
3003,287,351,758,237,42,165
3004,-425,-163,-35,-146,49,163
3005,-409,948,965,349,23,8
3006,-57,-116,388,-511,-79,17
3007,317,275,815,163,-41,11
3008,354,575,1073,-203,18,85
3009,278,52,828,-284,53,21
3010,-27,-186,1105,-228,93,-17
3011,-436,-496,738,-238,70,-11
3012,-271,-500,909,-31,-25,0
3013,-79,-484,1052,1,-37,-21
3014,313,-354,931,108,-33,12
3015,203,118,1112,188,6,10
3016,-53,83,1001,79,45,-13
3017,-195,-825,89,-216,-1,195
3018,-248,1475,1064,1067,-80,51
3019,246,498,-10,-800,-49,-79
3020,566,-60,877,178,-33,-12
3021,207,-756,46,-392,2,505
3022,-205,1676,856,1267,73,241
3023,5,87,-479,-1335,25,-135
3024,-168,-996,516,-125,-15,-113
3025,292,-7,1396,276,-57,112
3026,-161,-132,321,-336,12,119
3027,542,-194,1168,213,9,-155
3028,-14,308,902,121,46,30
3029,-580,-1206,20,-392,41,337
3030,-228,1302,1160,1046,-100,68
3031,174,267,178,-724,-81,-281
3032,529,-446,472,164,-10,14
3033,226,587,812,-58,-9,235
3034,266,359,983,100,40,-73
3035,-122,-28,233,-316,96,-39
3036,-322,11,1173,-29,15,15
3037,-485,-284,1068,-141,-8,10
3038,-192,-405,775,-83,-53,-90
3039,672,-609,1323,99,-89,-31
3040,433,-702,-2,-89,12,183
3041,-52,914,1426,743,99,-70
3042,-430,504,400,-348,55,-102
3043,-447,188,935,147,-19,-41
3044,-267,240,569,-296,-99,135
3045,374,257,1271,110,-84,-45
3046,572,-188,854,-304,-23,-53
3047,265,-332,1183,-59,68,-10
3048,235,-579,921,-77,72,49
3049,-321,-1154,-181,-75,81,174
3050,-717,785,942,820,2,39
3051,-260,321,-27,-409,-73,-51
3052,-38,865,1321,492,-126,-71
3053,824,462,946,-380,-107,17
3054,527,228,908,-61,55,53
3055,72,-43,1029,-274,82,2
3056,-225,-775,1030,-263,84,-18
3057,-291,-980,26,12,41,-6
3058,-489,550,987,716,-34,-33
3059,158,281,274,-336,-102,29
3060,248,463,1156,271,-50,-8
3061,108,499,901,-137,-2,-43
3062,215,234,929,-115,-3,6
3063,-71,-283,632,-292,30,48
3064,-80,-324,1161,-9,12,-12
3065,62,-610,971,-147,0,-9
3066,7,-282,950,169,12,-3
3067,-8,115,979,119,10,28
3068,-223,92,891,14,6,26
3069,-297,143,960,65,-28,-28
3070,15,183,1111,28,-66,-26
3071,378,109,1051,-41,-55,1
3072,484,40,1021,-45,8,18
3073,115,-11,1065,-66,78,17
3074,-350,-127,926,-83,70,5
3075,-518,-96,865,-7,12,-1
3076,-317,-140,850,-20,-59,-6
3077,199,-256,1037,-3,-96,-12
3078,525,-136,1103,93,-44,-13
3079,276,-202,1109,52,34,-15
3080,147,-707,-36,-82,68,-116
3081,-351,1000,871,748,41,118
3082,-517,1112,523,-216,8,132
3083,-287,-460,471,-445,-94,-131
3084,346,-10,668,326,-77,-63
3085,538,108,1004,-255,-50,71
3086,366,-410,553,-116,39,47
3087,-173,0,935,93,90,-4
3088,-436,-25,907,10,46,2
3089,-352,-236,679,-146,-42,4
3090,-71,-104,1029,171,-68,-5
3091,436,78,1292,54,-72,-5
3092,362,-82,937,-21,11,6
3093,86,168,1010,89,54,1
3094,-315,103,945,-43,47,16
3095,-439,79,785,-14,-7,6
3096,-104,29,1027,-27,-73,-9
3097,302,-95,1197,-23,-69,-1
3098,476,-169,947,-49,-6,2
3099,201,0,1059,58,58,12
3100,-219,-18,888,-56,64,15
3101,-478,-37,883,22,26,4
3102,-389,-26,945,2,-46,-9
3103,154,-47,1078,25,-98,-9
3104,495,-33,1078,8,-45,0
3105,419,31,998,21,28,6
3106,43,96,1021,-4,74,-3
3107,-373,83,913,-31,67,0
3108,-475,20,883,-44,1,-6
3109,-187,-74,1003,-46,-67,-8
3110,329,-120,1071,-23,-72,-3
3111,484,-178,1062,-17,-9,-3
3112,110,-405,931,-76,60,30
3113,-327,-127,934,165,44,55
3114,-419,318,935,142,-2,27
3115,-285,172,993,-43,-62,-7
3116,298,42,1002,-7,-94,0
3117,476,249,1199,68,-32,21
3118,402,140,958,-116,40,9
3119,14,8,957,-102,90,2
3120,-431,34,913,-62,63,3
3121,-499,-93,894,-96,-3,-19
3122,-155,-285,993,-71,-67,-25
3123,358,-258,987,3,-75,6
3124,506,-57,1175,77,-3,-5
3125,160,20,963,-11,64,7
3126,-271,-505,516,-130,66,55
3127,-508,-266,764,324,32,53
3128,-411,-648,-438,-131,-96,334
3129,-277,1589,913,1227,-116,166
3130,674,346,-514,-1002,-82,-96
3131,734,360,715,362,-94,-53
3132,777,591,1103,-185,93,-7
3133,-363,-344,26,-587,198,113
3134,-363,-852,1091,-16,49,103
3135,-650,45,-311,405,-18,330
3136,443,691,1148,64,-131,-245
3137,528,-345,-211,-167,-28,-160
3138,291,717,1180,225,30,71
3139,-46,-714,-29,-487,31,215
3140,-314,993,998,546,33,-110
3141,-200,-387,154,-586,27,-103
3142,-30,-816,1066,35,-74,127
3143,-78,-73,289,131,-45,251
3144,341,1174,1538,549,-10,-242
3145,274,-766,-37,-719,1,-60
3146,-242,456,1154,462,54,137
3147,-275,306,631,-321,-10,-13
3148,-55,-226,735,-12,-38,-61
3149,334,-150,844,-149,-23,11
3150,271,72,1228,116,5,36
3151,-62,-223,957,-194,59,-42
3152,-308,-112,745,80,45,-14
3153,-310,213,1122,50,-36,11
3154,210,-1017,736,-273,-58,34
3155,-68,6,292,494,-10,56
3156,439,982,1206,222,-35,-141
3157,-56,389,534,-207,53,-12
3158,-78,429,1031,-58,12,30
3159,-204,-145,1049,-250,-14,43
3160,-304,-355,533,-186,1,-15
3161,307,-448,1148,3,-72,-81
3162,254,-165,1034,82,-6,23
3163,541,-761,1172,-149,31,33
3164,-345,-469,67,344,89,96
3165,-264,1143,1139,481,19,-79
3166,-584,398,98,-309,-21,-45
3167,-227,680,1166,145,-96,-35
3168,607,265,1327,-306,-139,53
3169,647,-163,778,-216,10,-15
3170,559,-1333,227,-358,92,-13
3171,-406,362,715,722,148,40
3172,-614,237,455,-368,29,16
3173,-762,134,823,240,-57,-24
3174,90,263,1018,-113,-141,-47
3175,631,169,1220,60,-114,1
3176,765,-95,778,-217,12,-21
3177,175,-78,1053,36,107,14
3178,-380,-57,992,-95,90,43
3179,-625,-267,718,-69,24,-4
3180,-431,-127,1006,81,-56,-31
3181,282,-143,1016,14,-117,-10
3182,535,4,1159,88,-40,-3
3183,371,105,970,28,43,0
3184,-225,-252,942,-73,65,8
3185,-353,-253,108,91,44,-7
3186,-353,868,1187,301,-60,38
3187,14,-162,755,-355,-76,-17
3188,503,-205,593,70,-41,-46
3189,326,257,881,55,6,18
3190,117,-19,1222,-65,57,31
3191,-449,-325,455,-196,73,12
3192,-447,65,1131,232,-19,-22
3193,-106,-148,920,-177,-81,1
3194,318,-271,964,102,-64,-8
3195,513,104,1147,101,-13,1
3196,181,90,1041,-1,57,12
3197,-256,79,915,-8,68,7
3198,-481,158,880,23,16,2
3199,-271,45,1008,-60,-57,-7
3200,221,-143,990,-62,-79,-10
3201,506,-42,1167,38,-29,-10
3202,364,-102,944,-64,48,0
3203,-104,-31,989,22,81,22
3204,-500,40,873,-1,49,13
3205,-484,5,916,-7,-28,-16
3206,-47,-98,976,-33,-88,-17
3207,457,76,1177,92,-78,3
3208,451,-346,1007,-123,3,6
3209,208,-484,-119,154,66,-53
3210,-325,1279,1203,752,64,68
3211,-418,-668,-253,-824,-3,12
3212,-427,716,1224,741,-55,-47
3213,35,1,216,-544,-88,-12
3214,489,101,1005,267,-113,50
3215,361,204,917,-138,19,94
3216,56,-11,823,-15,47,9
3217,-45,206,1107,-29,24,-3
3218,-528,-457,304,-365,42,26
3219,-211,331,1083,384,-76,110
3220,462,-212,-143,-442,-47,2
3221,171,165,1127,270,-3,20
3222,281,-278,606,-309,41,26
3223,-152,-163,976,144,56,44
3224,-559,68,996,-46,22,-26
3225,65,-500,600,-108,-55,-41
3226,43,99,1284,340,-28,-22
3227,265,157,1096,-103,-33,61
3228,244,62,847,56,29,16
3229,-297,357,1043,9,45,3
3230,-263,72,970,-106,-15,-16
3231,-92,-136,833,-103,-38,32
3232,37,-18,1155,34,-54,-4
3233,530,-297,1020,-141,-37,13
3234,204,-201,963,59,53,11
3235,-94,93,1047,86,51,8
3236,-389,-6,869,-62,40,26
3237,-489,7,857,36,-21,-2
3238,-18,55,1089,27,-96,-18
3239,425,-67,1100,-29,-69,-3
3240,531,-51,985,14,4,18
3241,208,137,1068,33,66,22
3242,-295,55,940,-70,82,10
3243,-558,-18,843,-37,24,-1
3244,-361,-13,954,-14,-60,-6
3245,203,-158,1065,-46,-95,-12
3246,571,-191,1040,12,-40,-7
3247,423,-8,1070,47,41,9
3248,-42,70,995,4,87,15
3249,-478,92,872,-9,61,10
3250,-547,75,883,-14,-15,-10
3251,-125,5,1025,-39,-88,-17
3252,449,-34,1062,-22,-82,-17
3253,594,2,1131,-7,-2,-8
3254,240,-41,1000,-73,77,14
3255,-291,-118,923,-51,90,25
3256,-636,-94,765,-12,33,2
3257,-402,-44,976,36,-63,-31
3258,156,-38,1142,20,-105,-15
3259,533,53,961,2,-56,-7
3260,517,78,1194,9,26,-4
3261,45,-546,1116,-152,92,62
3262,-546,-337,-235,183,54,172
3263,-225,1020,1136,432,-47,-115
3264,-176,127,-13,-408,-63,-81
3265,433,238,1383,151,-75,13
3266,466,-355,218,-381,-16,97
3267,295,404,1188,333,50,-64
3268,-212,-88,417,-422,117,-15
3269,-583,-427,1082,-7,18,27
3270,-423,-308,695,-45,-54,-8
3271,158,-48,1174,172,-75,-69
3272,531,-119,1000,-54,-66,27
3273,420,12,1061,92,31,13
3274,-84,258,1070,67,90,-13
3275,-427,174,881,-62,30,22
3276,-412,38,842,-75,-24,16
3277,-8,-212,1119,-40,-65,-18
3278,371,-606,492,-169,-69,1
3279,411,125,1277,383,13,-18
3280,114,457,854,-53,61,27
3281,-354,131,974,-83,50,25
3282,-484,-63,776,-93,2,0
3283,-123,-357,672,-72,-58,-33
3284,190,-126,1076,130,-81,-9
3285,547,174,1011,27,-29,20
3286,235,143,1150,18,57,4
3287,-185,-54,799,-142,61,6
3288,-436,125,995,86,32,11
3289,-379,-53,867,-142,-41,3
3290,72,-324,967,-30,-84,-22
3291,467,-180,1131,64,-50,-8
3292,417,-3,1068,65,23,3
3293,91,-66,1014,-1,66,19
3294,-214,-668,155,-138,75,-37
3295,-723,740,840,636,13,53
3296,-296,881,702,-175,-100,53
3297,379,-548,385,-382,-107,-117
3298,630,-25,541,290,-34,6
3299,429,506,1032,-75,43,59
3300,-113,-356,856,-280,101,-15
3301,-533,-269,579,32,72,12
3302,-565,196,1155,156,-43,-3
3303,33,-288,797,-242,-97,-15
3304,375,-149,1061,167,-56,-5
3305,442,-128,1201,26,-14,2
3306,247,-659,-20,20,63,-104
3307,-359,1414,948,971,78,92
3308,-443,80,92,-754,13,113
3309,-321,-378,-73,92,-57,-106
3310,161,1379,1267,627,-106,-31
3311,577,-251,235,-880,-85,71
3312,340,81,730,238,58,49
3313,-29,10,396,-427,84,-8
3314,-266,-319,1118,-5,26,-10
3315,-377,-1332,210,-361,-2,-31
3316,-286,1600,1652,1723,-41,-47
3317,322,774,480,-967,-110,5
3318,230,-1453,121,-352,9,70
3319,-78,1384,1007,1313,31,-2
3320,-118,75,557,-728,-62,-21
3321,87,-85,328,298,7,36
3322,-255,899,-62,-138,28,32
3323,5,333,1027,-69,-69,36
3324,587,189,447,-319,-36,-16
3325,283,79,790,-175,77,6
3326,-166,-7,995,-71,64,34
3327,-368,-328,658,-324,48,-14
3328,-509,-1467,70,-230,-21,-5
3329,9,1464,1433,1777,-89,-26
3330,396,840,468,-952,-101,-40
3331,272,-1589,-84,-423,33,72
3332,-84,917,422,1105,34,38
3333,-275,852,1456,-81,-33,-73
3334,126,-534,-157,-408,-35,-4
3335,-208,1112,1230,409,-6,70
3336,-142,-77,719,-543,-15,74
3337,438,284,1059,144,-72,-18
3338,302,125,870,-230,18,-16
3339,166,71,572,-77,65,11
3340,-315,108,1521,-192,78,26
3341,-375,-674,576,-351,12,-22
3342,34,-167,1032,176,-53,5
3343,105,-279,1148,-124,-9,-14
3344,368,-474,766,13,-7,26
3345,-159,102,1055,183,53,20
3346,-375,194,1069,59,14,-36
3347,-164,-66,710,-73,-46,8
3348,31,344,1191,206,-60,9
3349,442,228,1078,-144,-50,-1
3350,339,-51,1064,-84,32,-11
3351,15,195,1058,14,64,0
3352,-281,5,799,-201,45,25
3353,-378,-581,1120,-111,14,9
3354,-288,-954,-352,-46,-46,-33
3355,136,1507,1328,1259,-111,-14
3356,502,33,182,-926,-14,56
3357,25,13,664,207,47,-29
3358,253,1133,1620,384,-6,11
3359,-334,24,-17,-690,64,7
3360,-395,472,1388,311,-10,-61
3361,151,-326,426,-659,-68,40
3362,180,-389,1316,84,-3,-10
3363,393,-803,572,-312,10,-25
3364,38,-519,1152,224,72,0
3365,-152,-1265,-356,-190,60,43
3366,-548,1353,992,1767,-78,67
3367,-34,625,134,-869,-68,-9
3368,-405,43,175,241,-58,2
3369,760,1039,916,250,-178,86
3370,472,337,194,-464,-5,102
3371,164,464,481,136,103,31
3372,54,655,1013,-383,48,-68
3373,-198,-684,1007,-535,86,-26
3374,-175,-607,436,-81,29,29
3375,-201,-352,1180,-28,-8,-42
3376,128,-972,625,-167,10,-30
3377,-133,-327,767,274,12,6
3378,-261,125,1167,206,-25,-14
3379,-51,40,884,46,-48,-3
3380,37,380,928,182,-54,-5
3381,433,539,1261,57,-53,-6
3382,393,269,957,-168,31,4
3383,183,-397,367,-283,69,-25
3384,-366,69,804,302,81,43
3385,-337,830,189,108,-24,39
3386,-720,181,1280,-267,-32,-75
3387,599,-1029,-199,-283,-127,-41
3388,392,549,1018,445,-39,61
3389,336,-180,595,-349,71,-20
3390,87,-529,911,-39,45,11
3391,-567,427,768,342,76,57
3392,-548,236,1305,-128,-31,-35
3393,-60,-448,392,-146,-96,3
3394,421,340,1424,284,-83,-8
3395,593,20,1009,-193,-5,3
3396,238,-180,915,-39,70,1
3397,-312,174,969,89,87,19
3398,-522,88,1004,-97,18,7
3399,-400,-320,709,-131,-51,-7
3400,175,-69,1161,138,-94,-19
3401,539,-48,1143,-30,-50,-7
3402,428,-83,913,10,36,4
3403,-57,182,1037,69,79,24
3404,-498,198,977,-31,48,23
3405,-503,-39,814,-92,-25,-13
3406,-8,-752,540,-189,-85,-39
3407,50,687,966,796,-52,7
3408,554,858,669,-258,-42,42
3409,165,-358,331,-289,65,8
3410,-335,213,657,211,80,-44
3411,-181,290,556,-146,-34,-20
3412,-284,-269,821,-159,-8,54
3413,27,-389,871,-77,-54,-33
3414,480,-120,1076,115,-68,-10
3415,273,-171,780,-83,56,13
3416,-78,38,950,154,47,16
3417,-410,185,896,-35,28,34
3418,-451,75,867,-1,-25,-19
3419,53,77,1096,5,-95,-27
3420,492,71,1064,-30,-58,0
3421,512,-195,1125,-84,23,5
3422,-6,-992,21,-131,94,50
3423,-489,1454,828,1346,34,-4
3424,-259,508,-169,-942,9,-28
3425,-337,538,760,321,-53,-50
3426,162,924,1245,-205,-126,-27
3427,633,-239,839,-482,-26,13
3428,376,-1526,66,-413,41,39
3429,-151,1380,1253,1619,94,-9
3430,-247,267,63,-978,29,-13
3431,-457,287,544,289,-22,32
3432,-279,923,626,-104,-66,-37
3433,555,25,735,-269,-114,-28
3434,712,-390,563,-290,1,33
3435,-6,-239,1000,21,121,4
3436,-295,-1118,900,-382,43,-1
3437,-406,290,506,1231,54,-89
3438,-370,1627,1280,575,-64,-157
3439,248,-44,-99,-830,-128,-19
3440,232,932,1105,525,-25,45
3441,-18,1243,1427,-97,5,32
3442,498,-1055,-332,-870,-28,2
3443,-40,1087,1397,839,71,32
3444,-324,-369,-302,-1036,42,-5
3445,-35,-977,862,0,-5,-33
3446,-12,-382,152,102,1,-30
3447,298,125,1219,111,-29,50
3448,-197,-687,213,-161,64,39
3449,-329,372,1357,404,-10,-60
3450,-314,-876,675,-307,-41,-3
3451,89,456,188,699,-78,14
3452,380,1360,1217,167,-91,86
3453,274,-425,900,-588,24,65
3454,222,552,463,356,28,-17
3455,88,702,1550,-108,34,-77
3456,-229,-762,-247,-519,89,-50
3457,-317,549,1355,395,-8,102
3458,-365,-811,-121,-493,-17,-7
3459,207,-65,1276,234,-68,-92
3460,570,-288,557,-82,-27,87
3461,-157,364,1083,263,60,19
3462,-145,167,1109,-93,21,-36
3463,-343,-43,646,-15,-9,8
3464,-129,542,1199,153,-61,-1
3465,456,39,1002,-270,-66,37
3466,298,224,1061,48,20,-11
3467,149,-99,1250,-261,46,-7
3468,-230,-336,534,-94,70,20
3469,-399,-48,1076,-17,12,7
3470,-214,-1135,467,-401,-29,-18
3471,-21,173,-300,1385,-53,-101
3472,446,1589,1426,1166,-111,96
3473,-119,-77,-700,-1245,38,152
3474,-137,1109,723,818,-16,-35
3475,51,639,81,-456,-69,67
3476,-40,-192,-312,-429,6,28
3477,64,1264,980,426,-19,62
3478,662,-131,357,-1149,-9,-4
3479,82,-159,-327,776,118,-66
3480,219,1159,714,493,9,114
3481,-636,53,-695,-1188,148,64
3482,-501,500,1018,130,-26,-110
3483,-205,-565,437,-573,-146,63
3484,207,-254,917,90,-68,-112
3485,327,-1018,851,-411,-7,-24
3486,-168,-185,32,886,-20,127
3487,196,711,540,624,15,-90
3488,-264,147,-432,-371,94,-75
3489,-481,1111,1131,433,22,-57
3490,274,-491,204,-749,-48,-24
3491,-48,721,682,749,-28,50
3492,347,1033,-148,-400,-12,197
3493,-552,1080,1548,25,53,-14
3494,426,-614,675,-935,-54,-49
3495,-33,-867,543,-120,6,50
3496,-382,-441,1259,-34,101,-128
3497,-211,-1274,153,-212,-20,-294
3498,-37,8,816,862,-61,-19
3499,541,444,132,-1,-63,98
3500,-346,1326,1337,665,68,-27
3501,55,457,-11,-542,-12,-65
3502,-166,149,418,14,-42,18
3503,93,246,590,-79,-4,-10
3504,348,-88,757,-268,-42,46
3505,135,-185,974,-17,58,-12
3506,-19,-592,560,-282,61,-29
3507,-294,-291,719,179,36,47
3508,-516,-148,953,-34,-13,-12
3509,-118,-446,828,49,-68,-25
3510,272,80,1146,211,-85,-14
3511,492,349,1213,161,-30,-5
3512,291,265,930,-73,48,9
3513,-201,287,1004,43,67,13
3514,-467,245,945,-112,23,-1
3515,-313,-126,892,-146,-39,-15
3516,144,-316,991,-84,-83,-3
3517,471,-238,1078,37,-37,6
3518,409,-252,867,-42,39,-11
3519,-109,-110,1048,97,79,19
3520,-457,114,884,75,38,35
3521,-488,145,928,24,-20,-1
3522,-114,102,917,-3,-88,-15
3523,447,196,1261,39,-91,-13
3524,578,86,1032,-92,-2,3
3525,252,25,1027,-63,68,14
3526,-358,-612,806,-253,73,45
3527,-165,108,369,588,30,14
3528,-64,690,371,116,-103,-30
3529,337,-183,34,-312,-77,10
3530,284,658,911,432,-24,-4
3531,187,730,938,-154,32,-37
3532,320,-170,277,-395,42,25
3533,-624,-6,806,-27,100,32
3534,-411,-206,894,-158,-22,-57
3535,-73,-857,577,-213,-61,-30
3536,182,-195,1166,282,-55,-18
3537,560,-133,983,-37,-35,11
3538,158,-1161,335,-226,42,-85
3539,-186,1110,647,1777,112,-59
3540,-348,1118,322,-438,-46,62
3541,-334,302,270,38,-63,99
3542,-143,1225,408,165,-69,3
3543,240,494,927,-409,-110,-1
3544,982,67,241,-396,-35,26
3545,162,-1290,-400,-555,128,-52
3546,-381,1615,1183,1720,87,-37
3547,-179,368,-339,-1436,-18,-21
3548,-471,-388,374,-4,88,57
3549,-216,-980,188,-492,-76,-25
3550,239,92,762,732,-67,-91
3551,421,403,624,-238,5,47
3552,-120,120,569,121,34,56
3553,-130,668,1070,23,-13,-29
3554,-340,-596,810,-388,24,-21
3555,255,-652,-415,219,-84,-80
3556,231,1765,1444,1691,-43,66
3557,225,424,-243,-1333,56,117
3558,-207,246,663,222,47,40
3559,-524,-420,341,-260,-1,-68
3560,128,567,-193,686,-70,-68
3561,342,1319,825,-264,-82,52
3562,12,-319,702,-782,88,37
3563,520,-1161,707,-175,-33,18
3564,-143,336,278,520,95,-5
3565,-255,227,848,-389,49,4
3566,-474,-981,30,-228,2,39
3567,-332,597,1521,586,-78,-53
3568,338,-755,214,-487,-76,-16
3569,401,406,1291,664,-41,-3
3570,426,475,940,-169,14,30
3571,-106,-81,718,-66,103,27
3572,-471,416,1238,170,37,-19
3573,-316,32,651,-219,-42,1
3574,-30,107,1193,70,-61,7
3575,381,-69,1047,-166,-73,22
3576,423,-203,1025,-31,16,0
3577,23,-45,1069,13,67,-10
3578,-242,-70,751,-64,42,29
3579,-467,3,1011,50,9,25
3580,-251,-63,888,-55,-58,-18
3581,309,25,1165,52,-93,-15
3582,467,145,1098,8,-14,8
3583,308,315,904,-25,45,19
3584,-168,76,1213,-139,71,30
3585,-529,-161,500,-165,44,-3
3586,-297,-119,1233,-2,-51,-32
3587,89,-388,836,-112,-74,-1
3588,608,-1401,-347,-341,-29,-66
3589,230,1611,1015,2835,23,41
3590,-26,755,115,-1380,22,150
3591,-723,316,-41,256,75,27
3592,-83,1336,427,100,-79,-23
3593,-234,311,479,-586,-106,154
3594,706,1025,737,-1,-51,96
3595,422,-491,1059,-1114,-4,44
3596,179,252,36,1371,111,-113
3597,56,1132,990,76,11,50
3598,-692,-232,-847,-1067,142,101
3599,-615,684,1020,211,-48,-7
3600,-109,-133,671,-400,-143,41
3601,475,-93,710,-48,-67,-115
3602,594,-743,626,-241,5,11
3603,22,-593,91,248,16,125
3604,-94,751,537,625,61,-38
3605,-527,526,-25,-213,40,-78
3606,-319,770,934,173,-56,-17
3607,333,464,714,-257,-47,124
3608,224,359,906,-128,-34,1
3609,279,-406,848,-367,38,-42
3610,-32,-1082,327,-255,84,-23
3611,-498,-254,864,370,28,24
3612,-104,195,487,66,-46,-8
3613,-119,26,1329,34,-42,-1
3614,399,-117,438,-31,-59,-23
3615,305,681,1366,331,2,-15
3616,31,231,775,-301,60,29
3617,-141,-365,622,-154,20,7
3618,-575,-92,850,86,37,-1
3619,8,111,1078,6,-95,-15
3620,270,-270,1177,-114,-54,-6
3621,584,-809,474,-187,28,-76
3622,-221,-40,413,434,74,64
3623,-203,1483,934,458,23,73
3624,-580,-29,780,-605,-10,-81
3625,30,-164,216,104,-70,14
3626,235,333,1241,-29,-71,9
3627,592,-1044,336,-450,-14,-56
3628,250,-174,532,336,88,39
3629,-279,808,1460,310,48,55
3630,-415,-754,-185,-587,32,-12
3631,-589,117,695,499,-18,1
3632,116,575,1343,17,-134,-11
3633,572,-313,832,-269,-65,-14
3634,501,70,864,185,42,-9
3635,71,403,1350,35,57,27
3636,-404,-62,682,-239,77,27
3637,-513,25,871,40,12,-12
3638,-264,-185,1109,-133,-80,-9
3639,337,-402,876,-38,-87,-16
3640,509,-76,1207,127,-9,-6
3641,222,-547,751,-135,24,-10
3642,-85,-100,-86,285,83,-27
3643,-635,903,579,289,36,44
3644,-301,925,975,115,-61,64
3645,210,-394,-322,-618,-109,-155
3646,167,205,1043,465,-1,-75
3647,773,-29,212,-365,-34,89
3648,-151,23,519,48,90,68
3649,-389,-66,713,-129,65,-18
3650,-286,-304,886,-25,-20,-19
3651,-320,-226,736,-45,-59,-8
3652,400,-103,1221,121,-83,-3
3653,499,-74,887,-17,-9,18
3654,95,389,1163,178,52,-16
3655,-135,-532,592,-404,47,13
3656,-184,79,640,809,46,3
3657,-176,957,618,-77,-2,27
3658,-1,759,758,50,-115,63
3659,349,304,720,-385,-73,-39
3660,46,-505,-14,-294,-9,5
3661,425,389,891,296,54,26
3662,-323,271,445,-257,69,48
3663,-437,-427,691,-262,48,-42
3664,-332,-616,553,5,-25,-20
3665,1,-358,1292,74,-78,-29
3666,475,-639,-167,444,0,-15
3667,-40,1527,1020,1870,89,25
3668,58,420,-134,-943,23,93
3669,-307,426,280,493,-43,72
3670,-338,1462,397,336,-75,-34
3671,408,665,442,-514,-147,-14
3672,784,474,354,-217,-8,82
3673,60,-1241,52,-944,104,-18
3674,168,1570,1387,2098,66,15
3675,-38,488,-25,-1538,4,-89
3676,-242,296,35,32,172,-75
3677,-555,717,404,-454,-25,56
3678,-93,-794,1021,-524,-93,23
3679,377,-1546,524,-246,-1,-95
3680,36,-188,575,593,27,-104
3681,262,349,1169,57,-5,-31
3682,-570,-651,575,-177,51,32
3683,-104,-1166,62,96,-85,-113
3684,-28,1649,1722,1680,-119,-7
3685,501,700,-116,-893,-51,113
3686,150,-367,798,82,21,133
3687,-240,291,92,4,48,-26
3688,-92,1044,1079,507,-62,-66
3689,167,-511,206,-794,-35,-7
3690,-56,499,750,441,58,47
3691,207,1008,1391,-357,-24,103
3692,229,-421,897,-620,44,-1
3693,153,-80,931,-11,67,-9
3694,-261,-292,979,-276,58,2
3695,-409,-953,826,-240,24,-27
3696,-295,-767,645,90,-18,-35
3697,1,-306,1099,214,-83,-31
3698,483,-28,1375,198,-64,4
3699,273,180,577,93,36,14
3700,-68,-310,970,9,40,-27
3701,-390,204,-358,586,37,-8
3702,-63,1298,932,532,-93,92
3703,-372,-643,-875,-922,-3,69
3704,192,1407,1658,817,-87,-32
3705,660,-176,314,-922,-77,113
3706,74,803,875,364,90,32
3707,-23,881,1629,-409,55,-3
3708,-102,-1253,-103,-786,27,-3
3709,-245,-298,1321,209,40,-7
3710,-195,-1352,223,-614,5,-119
3711,2,725,575,2054,-38,-25
3712,246,1024,456,-436,-55,136
3713,-526,270,78,16,54,68
3714,-39,1127,530,279,-98,-50
3715,-40,523,751,-287,-63,112
3716,431,896,392,-57,-42,78
3717,-133,-235,584,-885,1,166
3718,451,328,254,1285,26,95
3719,0,576,-239,-564,44,-89
3720,-430,-72,-243,-256,167,-94
3721,-304,-53,711,-335,-13,2
3722,-460,-214,819,10,0,117
3723,-132,-214,766,-200,-53,-134
3724,505,-780,652,-68,-81,-39
3725,301,-352,16,-76,28,19
3726,5,2,820,711,65,-1
3727,-160,1016,315,215,-11,42
3728,-592,1176,1139,239,-5,15
3729,235,361,139,-542,-65,-10
3730,354,320,1260,34,-58,91
3731,345,239,792,-259,22,-20
3732,133,-577,851,-358,68,-28
3733,-315,-613,735,-59,97,12
3734,-141,-782,435,-97,24,-81
3735,-839,-642,497,164,3,-36
3736,307,281,848,399,-161,-30
3737,387,566,1311,157,-58,26
3738,199,-37,236,-226,27,-43
3739,360,395,870,249,-3,-35
3740,-344,427,794,-125,79,76
3741,-501,-260,745,-259,-18,2
3742,132,-595,204,-43,-52,-22
3743,350,580,943,329,-59,-11
3744,396,94,1139,-220,17,34
3745,-58,-749,-28,-251,79,9
3746,-482,426,1159,419,34,-17
3747,-257,-4,652,-240,-41,33
3748,-84,-390,827,-69,-51,-17
3749,376,162,1097,272,-64,-15
3750,347,64,794,-123,-5,36
3751,85,-39,868,48,62,17
3752,-135,335,1032,67,26,-2
3753,-461,73,859,-140,25,13
3754,-216,-190,878,-89,-53,-22
3755,252,-126,1172,54,-80,-14
3756,434,-188,1042,-38,-12,7
3757,437,-413,374,-86,44,-20
3758,-333,338,1027,352,90,21
3759,-487,298,684,-172,28,24
3760,-412,-69,779,-27,-50,-17
3761,11,44,977,-4,-95,-14
3762,579,-122,1278,-24,-68,-7
3763,471,-161,644,-69,23,4
3764,91,443,1196,192,74,10
3765,-351,-290,992,-334,66,41
3766,-194,-548,218,144,-6,-18
3767,-198,813,878,417,-85,49
3768,410,571,673,-141,-115,30
3769,558,396,820,-128,-21,-22
3770,183,197,758,-63,79,-40
3771,170,116,916,-237,28,47
3772,-587,-882,102,-437,96,54
3773,-483,-276,212,542,-14,-62
3774,-60,414,625,-26,-133,7
3775,190,-790,166,-112,-50,-22
3776,371,311,-99,810,-31,-109
3777,100,1404,1111,443,-57,27
3778,-17,366,242,-368,89,67
3779,-342,846,510,163,-6,0
3780,-254,1121,930,-176,-39,-41
3781,442,-613,519,-987,-65,-23
3782,268,418,507,1038,53,-34
3783,106,1639,732,243,27,12
3784,-27,-394,-84,-1155,70,50
3785,-270,-36,96,90,24,21
3786,-706,461,806,24,-41,-31
3787,514,-1000,157,-569,-99,-107
3788,259,-621,597,216,3,53
3789,190,-1436,-275,-253,19,-55
3790,222,1484,1485,2262,65,-36
3791,-322,1130,84,-785,7,-12
3792,-460,-293,154,-71,12,93
3793,-289,1499,905,635,-112,73
3794,114,969,1408,-310,-136,55
3795,925,-1013,-407,-874,-55,50
3796,257,1073,1313,719,92,20
3797,243,658,1004,-746,77,21
3798,-406,-1024,-82,-518,101,-15
3799,-188,1651,1599,1577,27,-51
3800,-268,-139,-271,-1402,-44,2
3801,81,174,941,368,-22,43
3802,-17,-634,807,-523,-34,-41
3803,122,-33,198,487,8,-79
3804,328,962,1082,127,-30,66
3805,-421,-551,305,-445,56,71
3806,-27,-318,455,61,-46,-64
3807,81,818,1262,528,-30,-46
3808,386,-460,376,-599,-17,54
3809,178,393,734,487,50,67
3810,-502,390,1106,-345,60,-20
3811,-277,-613,561,-183,-27,-55
3812,-113,251,1087,188,-53,21
3813,270,-97,1035,-198,-70,24
3814,554,-370,975,-47,-11,-2
3815,66,-1138,881,-178,93,-34
3816,-302,430,100,996,52,-15
3817,-60,1434,1140,337,-45,122
3818,-667,-950,-651,-917,76,97
3819,-315,1318,1557,933,-123,-18
3820,523,318,966,-635,-170,107
3821,337,422,232,168,23,49
3822,507,1192,1643,-41,2,29
3823,134,-934,-72,-934,92,23
3824,-243,-96,1499,187,87,8
3825,-475,-1253,376,-577,45,-36
3826,-314,-455,-352,795,-19,-145
3827,268,1513,1220,1602,-130,131
3828,79,166,-549,-1249,16,158
3829,-313,933,790,730,-23,-60
3830,209,852,248,-288,-81,15
3831,118,439,306,-168,-30,60
3832,360,996,1172,-114,27,88
3833,181,-846,950,-1112,21,3
3834,301,25,50,994,74,-62
3835,-26,1102,1006,244,38,71
3836,-455,-133,-435,-825,79,102
3837,-500,389,601,165,-34,-4
3838,-288,85,746,-202,-135,24
3839,628,-221,666,-143,-103,-88
3840,655,-424,818,-58,21,5
3841,275,-220,960,54,65,48
3842,-392,-1096,37,-97,68,111
3843,-337,1001,598,1213,-39,-35
3844,-182,617,-282,-494,-1,-34
3845,-255,863,1097,313,-79,14
3846,633,890,963,-264,-65,97
3847,257,286,711,-369,21,67
3848,239,60,960,-147,60,-31
3849,-178,-845,939,-617,72,-23
3850,-402,-875,391,263,106,17
3851,-122,-157,-113,43,-109,10
3852,44,468,1221,503,-40,-34
3853,326,-152,317,-354,-52,-33
3854,269,504,1019,477,-7,27
3855,-73,881,1188,-83,61,-6
3856,-129,-167,566,-380,-4,27
3857,-244,-439,507,-100,4,-26
3858,44,-568,359,33,-27,-44
3859,359,425,613,262,-55,61
3860,257,339,1125,-56,18,20
3861,3,-647,505,-339,73,-35
3862,-433,-33,598,327,35,-2
3863,-396,555,908,54,-47,35
3864,129,-319,642,-251,-71,-22
3865,315,-192,816,106,-45,-8
3866,505,296,1098,149,-10,-2
3867,66,-130,922,-243,85,13
3868,-315,-63,735,121,53,18
3869,-495,210,1137,2,9,15
3870,-321,-304,797,-141,-59,-13
3871,238,-220,1031,78,-96,-33
3872,532,116,1164,141,-38,11
3873,411,53,1025,-63,37,17
3874,-87,32,921,17,81,25
3875,-552,263,1023,41,54,12
3876,-449,-28,796,-151,-40,-15
3877,-41,-122,1072,13,-87,-9
3878,505,-88,1058,-24,-75,-1
3879,541,-113,1041,-19,13,-1
3880,101,109,1023,57,77,10
3881,-323,246,1045,-25,68,25
3882,-423,-872,392,-389,-9,-7
3883,-167,455,926,929,-17,12
3884,147,912,729,-224,-138,-3
3885,545,540,1154,136,-73,20
3886,376,19,521,-429,54,-44
3887,-173,-203,191,-56,73,-7
3888,-88,487,840,165,8,74
3889,-648,286,782,-162,50,9
3890,-60,-634,671,-331,-75,-66
3891,258,-390,905,134,-72,2
3892,430,72,1196,64,7,-4
3893,194,-967,761,-389,20,22
3894,-47,-14,-11,1009,90,-69
3895,-468,1479,1101,959,-12,-9
3896,-102,285,-16,-694,-125,28
3897,-64,706,242,500,-135,58
3898,99,1516,579,199,-61,56
3899,659,700,487,-558,-103,49
3900,499,344,441,-352,55,22
3901,-31,-1048,308,-884,134,-135
3902,159,944,1007,1439,81,-50
3903,-264,731,402,-890,18,38
3904,-169,-79,555,-137,47,50
3905,6,188,261,-405,-39,-26
3906,-269,-536,307,-115,15,-44
3907,195,-425,669,-186,-42,-41
3908,-258,-659,400,7,14,-42
3909,26,-1399,347,-181,-66,-151
3910,249,900,925,1895,-15,-85
3911,127,1593,960,0,-55,47
3912,135,-315,28,-597,27,116
3913,-222,1085,709,680,-2,36
3914,-429,1134,1419,-77,-28,-11
3915,356,-844,-502,-918,-69,-69
3916,71,1260,1450,810,0,17
3917,449,775,814,-944,18,70
3918,232,-1256,1382,-634,62,10
3919,94,59,109,544,118,-94
3920,-509,1346,1315,457,38,-130
3921,-500,-344,19,-786,-13,-22
3922,-303,-793,1415,4,-72,7
3923,54,-257,-100,315,-78,-85
3924,792,1215,1742,444,-100,-23
3925,416,-1055,-60,-818,80,86
3926,-228,1000,965,808,89,-16
3927,-509,278,1192,-438,17,-30
3928,-171,-400,78,-22,-22,-9
3929,-14,595,1279,98,-70,57
3930,330,-363,1187,-326,-41,-6
3931,410,-215,880,80,9,-32
3932,-116,84,1005,-3,66,9
3933,-154,-24,1025,-11,22,38
3934,-440,-250,533,-160,6,32
3935,-232,44,1374,224,-60,-45
3936,378,-48,1029,-113,-80,-11
3937,493,-320,1088,40,-3,13
3938,136,-983,-466,-159,82,-43
3939,-173,1673,1608,1514,-1,65
3940,-457,29,-207,-1211,64,88
3941,-642,-102,563,239,-14,-104
3942,468,1221,1569,394,-198,14
3943,464,-58,134,-761,6,92
3944,182,778,1571,365,39,4
3945,298,-878,70,-862,29,6
3946,-316,-79,1181,326,114,-10
3947,-464,-653,166,-459,31,-9
3948,-430,-1726,-549,-235,-54,-154
3949,248,1402,948,2464,-123,-21
3950,412,815,294,-928,-103,194
3951,-194,174,-21,152,52,50
3952,268,1247,685,226,-52,-49
3953,-107,427,636,-355,-32,46
3954,210,1013,579,-16,35,5
3955,107,443,1533,-633,14,44
3956,279,-1358,-165,-831,21,-60
3957,66,747,575,1329,71,4
3958,-384,280,64,-865,70,87
3959,-418,-146,821,133,-22,22
3960,-482,14,398,-190,-15,-43
3961,139,26,1081,164,-140,-64
3962,810,-1045,-3,-370,-46,-132
3963,185,763,653,1040,70,85
3964,61,1039,727,-377,23,176
3965,-641,354,905,-26,97,-66
3966,-433,259,280,-201,-36,-55
3967,49,184,1241,-53,-128,7
3968,438,-541,883,-398,-34,14
3969,434,-944,48,-293,19,-38
3970,121,-73,843,915,91,-19
3971,29,716,234,-65,33,77
3972,-685,1053,1188,377,48,58
3973,-284,154,-3,-599,-34,-22
3974,80,515,1241,304,-139,14
3975,491,251,910,-384,-46,-45
3976,646,-677,749,-316,32,15
3977,3,-462,977,16,99,42
3978,-305,-221,980,6,80,-20
3979,-602,-405,685,-39,44,-42
3980,-151,-880,366,-118,-82,-122
3981,-165,-329,497,384,-93,131
3982,576,1419,450,901,-110,118
3983,-176,1185,1432,-161,52,-40
3984,523,-91,-183,-611,9,-43
3985,-244,439,1113,125,20,44
3986,-308,68,815,-274,35,-4
3987,177,-1367,-98,-487,-29,-33
3988,6,115,847,499,-8,15
3989,379,244,1324,-89,-2,17
3990,-265,-983,220,-305,78,0
3991,-343,90,806,435,-12,-13
3992,-300,305,677,8,-43,22
3993,96,259,836,93,-84,-3
3994,449,58,721,-113,-52,-26
3995,391,301,1122,134,14,-11
3996,107,222,1129,-138,66,32
3997,-261,-180,535,-198,62,25
3998,-543,-26,1171,48,18,-1
3999,-254,-433,736,-198,-61,-22
4000,139,-358,1149,121,-86,-22
4001,588,-105,927,81,-37,9
4002,359,113,1164,105,40,22
4003,-99,-19,799,-42,73,10
4004,-568,293,840,139,56,15
4005,-419,620,1015,39,-52,-9
4006,29,80,1126,-233,-97,-4
4007,489,-410,807,-200,-49,-20
4008,304,-502,478,-84,-45,-132
4009,-77,139,666,398,169,-185
4010,-551,241,173,-130,112,13
4011,-329,1003,696,580,-96,155
4012,-341,-576,386,-734,-47,-97
4013,66,386,512,620,-81,-90
4014,840,561,662,-288,-143,95
4015,252,-173,566,-155,106,27
4016,35,-62,613,-59,96,-47
4017,-473,138,1026,56,9,18
4018,-458,-455,389,-318,47,27
4019,-192,-78,633,186,-102,-11
4020,207,-453,1083,-120,-101,-12
4021,439,-373,462,366,40,-43
4022,205,1185,744,431,-32,16
4023,52,678,844,-200,48,70
4024,-452,481,510,-171,62,-25
4025,-412,363,1371,-69,-80,-53
4026,490,-332,607,-420,-69,-2
4027,234,-808,794,-212,13,37
4028,129,-746,171,219,59,-45
4029,-30,495,744,295,27,36
4030,-572,-811,113,-297,50,10
4031,-249,257,113,921,-25,-122
4032,-168,1399,790,407,-134,16
4033,331,505,320,-307,-61,99
4034,304,921,383,92,-48,61
4035,170,996,562,-184,22,-31
4036,492,227,621,-631,58,-44
4037,-352,-1414,187,-707,82,-60
4038,-209,1313,1061,1701,78,-126
4039,-220,496,169,-865,-35,-72
4040,237,67,678,114,-58,116
4041,-91,565,552,-195,11,2
4042,-104,121,848,-39,8,-88
4043,316,-544,116,-430,-50,45
4044,-330,-547,790,116,44,40
4045,244,-1034,98,-126,-22,-62
4046,106,209,1167,480,-21,2
4047,-82,-993,166,-310,38,-30
4048,129,781,654,1175,-2,-46
4049,-297,1334,881,0,-23,55
4050,-350,232,252,-347,12,63
4051,-183,111,916,-20,-89,-14
4052,237,344,372,110,-81,5
4053,805,1042,1472,-89,-70,84
4054,196,-754,-9,-748,137,32
4055,-28,434,1161,325,67,11
4056,-498,-777,-56,-640,66,13
4057,-401,-380,1202,138,2,-51
4058,-182,-891,343,-173,-53,3
4059,308,-137,1324,359,-84,-42
4060,387,20,1045,50,-16,-8
4061,72,131,823,157,48,2
4062,-189,630,1129,170,24,21
4063,-322,298,811,-161,-7,26
4064,-147,235,1149,9,-45,-28
4065,353,132,954,-163,-69,-10
4066,425,-100,1227,-122,8,17
4067,125,-286,767,-146,70,24
4068,-312,-1508,13,-339,63,-16
4069,-491,1193,942,1699,-8,11
4070,-62,770,334,-802,-78,72
4071,-252,286,520,77,-32,-1
4072,828,-13,490,-278,-96,-40
4073,358,549,1132,325,20,78
4074,2,712,874,-326,101,20
4075,-276,-485,894,-429,39,-23
4076,-428,-361,856,-35,24,2
4077,-227,-608,837,-167,-38,-42
4078,140,-1429,154,-243,-72,-71
4079,219,585,367,1498,-4,1
4080,228,1229,610,-110,11,73
4081,-348,368,406,-147,37,41
4082,-235,1005,512,193,-26,-45
4083,-122,849,1013,-212,-50,52
4084,377,378,1029,-382,-70,34
4085,133,-663,1091,-630,9,62
4086,-435,-332,-164,553,59,92
4087,301,690,311,324,-48,-133
4088,-346,-131,-320,-424,104,-16
4089,-562,733,1108,226,29,2
4090,72,243,651,-252,-97,71
4091,-46,314,556,-54,-36,-72
4092,528,-291,722,-247,0,-4
4093,304,-377,766,-97,20,72
4094,-382,-395,681,-97,75,-32
4095,-211,-754,214,168,64,-40
4096,-205,577,525,449,-119,72
4097,19,1069,965,274,-57,34
4098,309,318,708,-416,-2,-70
4099,399,281,837,146,-19,6
4100,-69,164,788,-242,66,55
4101,-314,-618,356,-286,40,70
4102,-93,136,600,173,-38,-64
4103,-176,-105,1094,-46,-26,-21
4104,291,-831,7,-241,-41,-2
4105,350,475,1368,537,-15,22
4106,10,344,880,-143,59,42
4107,-309,-261,710,-159,39,-3
4108,-474,394,995,263,-11,-5
4109,0,258,1179,-113,-89,-26
4110,435,-315,807,-210,-58,20
4111,498,-64,1089,99,19,4
4112,41,-7,1156,-61,77,4
4113,-329,-248,785,-89,59,12
4114,-521,-3,838,97,9,27
4115,-282,12,1013,-4,-68,-5
4116,245,-249,1022,-44,-95,-26
4117,517,32,1102,151,-31,-11
4118,411,231,1131,27,31,12
4119,-37,102,908,-68,79,39
4120,-538,81,892,-31,63,18
4121,-547,-37,951,-63,-31,-21
4122,-40,-215,961,-54,-98,-21
4123,499,-158,1068,35,-75,2
4124,593,-113,1053,16,3,6
4125,123,-46,1018,23,82,14
4126,-377,105,944,49,74,23
4127,-589,125,873,-7,5,13
4128,-302,-9,908,-30,-73,-7
4129,272,-69,1137,3,-98,-17
4130,571,-42,1075,6,-37,-13
4131,421,-9,1024,-7,44,6
4132,-90,56,956,-7,85,35
4133,-530,31,885,-36,55,18
4134,-541,-72,885,-39,-26,-21
4135,-37,-93,1038,13,-99,-26
4136,503,-49,1090,12,-77,-6
4137,566,-14,1035,8,11,2
4138,130,98,1022,5,75,16
4139,-382,105,966,-38,76,17
4140,-551,-76,900,-48,7,-3
4141,-347,-1012,-172,-232,-66,163
4142,205,459,1025,726,-155,-4
4143,806,589,278,-139,-18,-156
4144,144,52,970,-29,81,68
4145,-137,58,-5,-131,64,134
4146,-251,595,755,197,35,-42
4147,-630,-93,568,-360,8,6
4148,114,-484,1107,-83,-96,-48
4149,283,-39,982,104,-49,27
4150,472,-206,1093,-82,0,-36
4151,167,-355,726,-20,65,41
4152,-344,220,1023,166,66,38
4153,-582,37,929,-45,3,-31
4154,-187,-22,981,26,-70,-20
4155,313,243,1061,90,-96,13
4156,496,-623,1079,-225,-22,55
4157,-70,13,-24,330,58,132
4158,125,1023,1204,210,3,-159
4159,-419,-593,33,-550,73,29
4160,-339,412,899,382,-35,57
4161,79,21,589,-332,-99,-4
4162,356,-178,1147,84,-7,-19
4163,456,-298,774,-214,8,-1
4164,-44,141,1112,210,51,28
4165,-378,-170,831,-210,76,4
4166,-475,-153,917,128,-19,-8
4167,-113,71,1006,-4,-89,3
4168,355,-58,1046,14,-58,-18
4169,528,71,1138,62,-16,-15
4170,211,194,990,3,59,23
4171,-184,-329,1315,-130,89,48
4172,-794,-408,-262,46,-6,205
4173,-15,1078,1284,509,-94,-130
4174,264,-789,71,-690,-59,-48
4175,365,472,985,480,-51,115
4176,570,263,1041,-188,37,-32
4177,-130,-20,611,-54,84,26
4178,-380,-32,853,-142,49,22
4179,-543,-65,1009,16,-12,2
4180,-76,-270,990,-87,-78,-44
4181,404,-339,902,9,-75,1
4182,562,73,1194,140,-3,19
4183,146,-30,926,-54,73,14
4184,-370,101,1037,86,75,8
4185,-496,147,833,-13,3,12
4186,-321,125,997,-13,-65,-8
4187,308,-124,1027,-84,-93,-15
4188,543,-42,1113,34,-27,-6
4189,379,-32,1055,-39,48,-2
4190,-269,-619,549,-177,86,138
4191,-464,418,1016,439,19,24
4192,-422,45,448,-311,-42,-66
4193,-19,-49,1059,182,-92,3
4194,601,96,1105,-77,-75,-2
4195,442,185,961,41,20,18
4196,169,10,1053,-130,75,16
4197,-256,-230,1060,-43,79,22
4198,-655,-220,469,-137,21,23
4199,-197,-82,1077,249,-60,-77
4200,141,-15,670,-126,-80,32
4201,471,42,1200,97,-39,-1
4202,391,-15,958,-19,35,-5
4203,-158,240,1089,86,75,11
4204,-410,17,772,-166,28,24
4205,-425,-10,946,29,-27,-1
4206,21,-124,1074,-55,-82,-28
4207,436,-114,1062,2,-61,-10
4208,466,-7,1009,6,14,3
4209,54,71,1048,20,68,14
4210,-391,67,856,-73,59,17
4211,-522,40,905,-10,-4,-21
4212,-131,-90,1062,-43,-77,-32
4213,620,-1308,59,-255,-77,100
4214,54,1069,939,1123,43,-21
4215,267,718,91,-538,5,-91
4216,-501,439,953,138,97,-28
4217,-294,593,864,-227,-61,34
4218,-161,0,1040,-239,-72,-2
4219,339,-617,848,-307,-35,-35
4220,462,-728,984,-64,-22,-16
4221,544,-902,1073,-11,52,29
4222,-360,-591,-246,379,127,89
4223,-389,1027,981,514,9,-25
4224,-674,517,285,-158,-14,-2
4225,-162,79,603,-52,-84,-52
4226,294,473,762,188,-153,47
4227,685,876,718,-118,-47,41
