sequence,AccelerometerX,AccelerometerY,AccelerometerZ,GyroscopeX,GyroscopeY,GyroscopeZ
0,99,-43,980,-16,331,-6
1,109,-47,957,12,360,-30
2,102,-30,966,30,394,-43
3,102,-14,975,58,433,-47
4,76,0,999,71,467,-50
5,64,-1,993,102,503,-61
6,71,-9,983,128,535,-91
7,-662,711,1462,139,528,-117
8,-806,806,1660,-172,193,-75
9,193,-190,899,-327,-7,0
10,262,-340,761,-194,75,-31
11,189,-294,805,-60,179,-57
12,138,-300,863,68,278,-110
13,-401,340,1361,126,305,-168
14,-187,206,1206,-47,160,-172
15,276,-323,916,-101,127,-148
16,172,-203,839,26,222,-135
17,-165,173,1092,68,264,-126
18,-151,180,1111,-15,200,-131
19,56,-131,965,-47,170,-112
20,152,-87,897,10,217,-102
21,-79,64,1090,47,256,-110
22,-59,119,1032,18,225,-100
23,45,10,984,-18,212,-94
24,44,-71,946,-10,234,-93
25,-76,61,1028,12,249,-78
26,-46,40,1054,-8,233,-76
27,12,-65,998,-6,223,-85
28,79,-14,956,26,239,-90
29,-23,11,1017,37,253,-107
30,-39,62,1005,28,234,-106
31,-14,0,965,10,223,-99
32,-3,-35,1000,15,224,-98
33,-45,19,1012,30,227,-101
34,0,-15,1027,34,222,-114
35,9,-5,986,50,219,-131
36,6,3,974,62,222,-135
37,-23,20,983,60,218,-139
38,-60,23,998,56,210,-135
39,-42,0,985,51,203,-127
40,-41,-13,1014,54,202,-129
41,-31,-10,994,67,201,-131
42,-6,2,974,71,196,-134
43,-19,2,966,76,193,-132
44,-63,31,976,76,192,-119
45,-101,51,1005,64,184,-105
46,-105,14,1008,54,177,-91
47,-89,1,986,52,171,-82
48,-60,-26,961,54,161,-82
49,-57,-12,931,61,149,-78
50,-79,15,931,64,135,-70
51,-130,27,957,62,118,-61
52,-178,54,960,58,100,-49
53,-180,38,973,52,73,-44
54,-169,-1,949,51,49,-43
55,-130,-18,912,64,22,-45
56,-123,-14,875,74,-12,-44
57,-150,4,867,80,-52,-33
58,-190,27,862,79,-102,-10
59,-227,29,869,70,-158,18
60,-223,15,868,66,-218,41
61,-204,-9,877,72,-276,57
62,-164,-30,863,87,-330,65
63,-142,0,852,104,-381,68
64,-149,12,859,112,-428,71
65,-172,44,882,111,-474,74
66,-199,52,900,100,-520,80
67,-187,41,927,91,-568,84
68,-164,21,939,89,-611,84
69,-119,4,924,95,-650,80
70,-103,31,921,107,-684,76
71,-107,65,921,107,-718,74
72,-123,80,941,96,-748,73
73,-147,98,947,81,-776,74
74,-148,99,984,65,-805,72
75,-130,96,1031,51,-831,66
76,870,976,1706,4,-793,39
77,887,1259,1766,-317,-353,-160
78,-481,-111,638,-465,-64,-344
79,-353,-362,476,-365,-244,-254
80,-256,-399,667,-315,-395,-19
81,-105,-446,757,-284,-525,182
82,116,-70,1351,-228,-588,265
83,405,201,1553,-203,-460,137
84,-33,-167,1083,-174,-299,-60
85,-137,-345,714,-94,-318,-53
86,-96,-283,808,-40,-399,64
87,146,-121,1101,-6,-438,136
88,117,20,1187,29,-383,101
89,73,-49,1082,69,-313,29
90,-66,-132,912,117,-305,1
91,35,-61,925,140,-335,56
92,73,49,969,148,-337,73
93,127,78,1069,142,-304,70
94,46,112,935,137,-258,65
95,89,31,1013,126,-237,75
96,78,29,940,133,-230,99
97,153,28,1018,133,-226,125
98,162,70,949,137,-212,121
99,152,87,979,124,-189,121
100,152,102,909,107,-162,106
101,136,92,989,90,-129,91
102,141,122,937,76,-101,84
103,129,90,1015,57,-80,72
104,148,107,940,48,-70,58
105,164,120,973,30,-62,42
106,192,133,936,9,-44,19
107,169,125,969,-16,-16,1
108,176,112,935,-37,20,-11
109,151,77,985,-51,53,-15
110,174,68,964,-59,81,-8
111,169,43,975,-59,106,-8
112,207,59,943,-64,128,-4
113,192,62,952,-69,156,-5
114,215,59,965,-77,190,-4
115,160,54,961,-81,233,-3
116,175,29,990,-86,269,0
117,138,17,987,-80,302,-1
118,162,-2,970,-75,336,-8
119,154,2,930,-69,376,-27
120,161,-5,933,-67,420,-40
121,156,9,931,-65,470,-47
122,141,9,976,-69,524,-47
123,122,10,975,-70,577,-48
124,100,-7,982,-65,631,-54
125,100,-20,938,-51,681,-70
126,99,-8,928,-40,732,-84
127,102,9,914,-36,783,-87
128,83,18,936,-43,833,-76
129,5,94,955,-54,881,-53
130,-1529,1358,1790,-171,756,39
131,-736,490,1522,-603,91,384
132,236,-104,921,-635,-50,440
133,264,-357,796,-505,81,214
134,314,-211,849,-418,240,74
135,282,-402,853,-333,387,-79
136,182,-417,900,-241,520,-142
137,235,-237,812,-158,637,-156
138,-434,-22,1381,-101,698,-167
139,-716,383,1424,-168,406,59
140,162,-128,1005,-234,159,242
141,286,-228,767,-115,255,98
142,157,-97,811,-5,412,-35
143,-160,103,1074,36,498,-125
144,-438,153,1299,-29,371,-71
145,89,-84,897,-74,238,59
146,159,-232,924,-10,294,-6
147,45,-20,929,73,378,-95
148,-160,124,1060,63,382,-119
149,-70,20,1059,14,299,-86
150,-51,-52,876,23,268,-33
151,24,2,926,45,285,-35
152,-130,27,1001,61,292,-72
153,-63,67,988,55,268,-54
154,-6,35,951,33,241,-48
155,-13,-25,938,35,235,-38
156,-76,87,900,31,231,-15
157,-119,29,1000,7,204,-2
158,-135,12,944,4,169,18
159,-76,24,971,4,147,26
160,-68,-41,945,17,136,-6
161,-73,35,947,33,126,-24
162,-80,37,928,25,109,-37
163,-139,7,962,21,83,-37
164,-163,69,922,19,54,-22
165,-167,13,977,10,23,-27
166,-154,40,941,20,-7,-39
167,-127,31,922,14,-34,-57
168,-97,40,904,11,-60,-80
169,-141,72,883,2,-87,-88
170,-141,70,874,-22,-122,-80
171,-205,75,909,-45,-161,-67
172,-210,83,925,-64,-209,-44
173,-224,97,950,-84,-264,-31
174,-216,88,966,-94,-322,-24
175,-214,113,945,-109,-384,-14
176,-215,108,948,-133,-449,-3
177,-250,84,930,-152,-516,10
178,-257,83,947,-171,-582,29
179,-242,53,966,-182,-647,33
180,-226,39,974,-182,-708,30
181,-184,41,957,-181,-766,19
182,-151,18,962,-176,-818,6
183,-145,26,921,-173,-864,5
184,-136,5,925,-173,-907,11
185,-150,-25,933,-165,-947,20
186,-135,-19,950,-153,-982,31
187,-109,-41,956,-133,-1013,28
188,-85,-41,969,-109,-1039,24
189,-47,-21,948,-89,-1059,22
190,-44,-30,947,-75,-1072,22
191,311,-330,1293,-71,-1069,39
192,1369,-1213,1912,57,-798,164
193,-282,-59,1033,392,-336,239
194,-528,167,739,489,-379,23
195,6,624,1178,424,-487,-66
196,315,461,1349,108,-466,82
197,-155,66,803,-47,-460,99
198,-41,57,790,-48,-505,105
199,129,1,916,-53,-517,104
200,172,-6,1094,-57,-479,128
201,226,118,905,-55,-420,164
202,231,-56,1050,-60,-368,149
203,190,17,822,-26,-322,158
204,264,32,912,-23,-276,176
205,288,18,925,-17,-226,150
206,246,94,979,-14,-161,161
207,322,114,950,-28,-101,155
208,233,50,1011,-36,-41,131
209,274,94,868,-37,15,132
210,309,33,939,-54,74,103
211,332,40,897,-61,141,90
212,328,68,923,-79,220,88
213,356,17,957,-98,304,66
214,285,-12,922,-98,395,49
215,361,-44,935,-88,482,31
216,317,-125,947,-59,573,-19
217,334,-94,878,-16,660,-45
218,312,-65,866,8,744,-60
219,292,-48,930,22,822,-55
220,243,45,925,23,895,-30
221,239,19,1002,6,955,-19
222,150,56,940,7,1009,-22
223,142,62,939,-3,1052,-28
224,125,45,931,-18,1086,-49
225,102,50,961,-28,1119,-59
226,-469,-302,1221,-44,1132,-80
227,-1599,-807,1849,205,481,-215
228,568,150,1183,350,-324,-98
229,537,-59,957,272,-145,-27
230,167,161,810,286,12,41
231,481,252,726,235,151,41
232,132,-93,1035,221,267,-108
233,289,172,832,233,388,-54
234,216,43,925,145,494,-61
235,163,-34,1081,151,599,-82
236,-657,801,1312,73,596,4
237,-105,274,1364,-205,319,169
238,187,9,810,-237,268,208
239,359,6,800,-214,429,141
240,97,51,912,-189,590,4
241,-409,208,1334,-207,595,25
242,-146,145,1053,-299,440,167
243,235,-221,1044,-299,426,156
244,63,-141,838,-206,546,47
245,-299,-276,1132,-150,574,-37
246,-114,-389,1002,-9,425,-83
247,183,-144,946,80,407,-60
248,28,-16,891,101,478,-66
249,-240,46,1081,87,465,-50
250,-64,113,929,66,388,1
251,0,-84,972,63,361,-3
252,33,40,855,96,373,-15
253,-116,107,966,85,375,-19
254,-126,78,964,54,325,3
255,-149,69,934,39,280,42
256,-45,8,911,37,255,53
257,-110,27,946,47,246,30
258,-66,74,936,53,228,18
259,-92,39,932,40,202,0
260,-90,62,927,41,173,3
261,-153,65,907,40,149,10
262,-156,65,985,34,119,8
263,-187,54,935,39,92,-4
264,-117,33,960,34,64,-18
265,-119,34,893,36,40,-44
266,-108,27,901,31,15,-53
267,-146,83,856,14,-18,-55
268,-194,62,913,-7,-59,-43
269,-206,97,877,-34,-106,-24
270,-200,47,920,-57,-152,-16
271,-162,46,861,-67,-200,-15
272,-145,53,881,-78,-245,-14
273,-135,45,846,-88,-291,-14
274,-165,72,857,-105,-339,1
275,-176,73,864,-124,-390,21
276,-219,63,909,-137,-443,38
277,-209,83,925,-142,-497,47
278,-198,85,951,-145,-547,41
279,-163,111,954,-151,-595,31
280,-156,100,940,-160,-638,21
281,-134,93,933,-172,-677,20
282,-155,72,933,-187,-712,27
283,-138,44,976,-195,-745,42
284,-142,22,996,-199,-775,47
285,-100,11,1022,-197,-801,47
286,-82,15,1015,-195,-822,43
287,-71,-6,1023,-199,-841,41
288,-76,-3,989,-204,-855,48
289,-91,-32,1014,-209,-869,60
290,-102,-46,1026,-204,-880,75
291,-61,-86,1123,-195,-889,83
292,1159,-1175,1876,-138,-785,109
293,289,-500,1425,254,-326,169
294,-644,109,780,427,-220,37
295,-481,91,679,439,-395,-107
296,-140,17,952,352,-499,-38
297,-27,-47,1004,257,-576,57
298,-72,64,1142,187,-632,179
299,325,431,1391,111,-620,193
300,79,205,1325,41,-514,65
301,-26,87,842,24,-481,62
302,-16,-2,913,-21,-525,134
303,7,-77,874,-33,-558,222
304,-44,8,860,-42,-576,300
305,64,-68,910,-35,-582,303
306,-9,-40,896,2,-565,267
307,201,73,938,22,-537,236
308,277,76,1098,31,-461,152
309,316,125,1058,49,-346,93
310,243,42,928,45,-258,73
311,228,-71,935,55,-202,95
312,200,-5,861,76,-155,131
313,310,-43,970,84,-109,142
314,296,47,935,97,-51,135
315,327,88,959,86,13,140
316,303,94,930,70,79,124
317,246,87,939,55,149,119
318,252,97,896,41,216,112
319,229,54,978,30,284,90
320,228,62,906,26,345,73
321,238,69,921,17,404,55
322,227,68,899,5,456,43
323,199,97,922,-15,506,50
324,195,118,944,-39,552,59
325,150,110,984,-58,596,65
326,136,114,969,-76,634,64
327,123,68,961,-85,666,43
328,125,68,918,-84,695,20
329,119,66,919,-93,722,4
330,126,66,950,-106,745,-5
331,83,90,968,-124,769,-4
332,89,76,1007,-135,790,-6
333,52,55,1010,-139,807,-20
334,63,30,993,-136,821,-39
335,58,22,957,-126,836,-68
336,-1111,117,1498,-134,763,-79
337,-784,-274,1520,-89,-57,41
338,429,-76,1019,-28,-283,161
339,276,-314,754,64,-136,35
340,245,-70,864,136,11,3
341,378,-192,804,193,136,-139
342,198,-320,1039,257,255,-227
343,339,41,693,310,362,-201
344,-92,52,1233,292,453,-230
345,-697,828,1414,166,299,-140
346,32,93,1043,-101,45,46
347,424,-112,790,-56,84,27
348,177,-22,832,55,250,-42
349,0,463,1067,60,337,-74
350,-269,298,1273,-85,254,-82
351,219,-14,848,-162,172,49
352,169,-25,858,-129,247,53
353,-47,83,1101,-100,292,-8
354,-125,170,1015,-141,257,-16
355,169,-93,1031,-172,219,-23
356,32,-87,895,-103,243,-40
357,8,146,1010,-82,255,-41
358,-54,26,1015,-113,236,-87
359,-45,-9,1038,-106,233,-75
360,-30,45,973,-93,235,-72
361,-29,-69,1085,-88,234,-93
362,-4,-10,922,-73,230,-94
363,34,-78,1017,-75,229,-96
364,-54,-98,970,-53,225,-94
365,-127,-31,1043,-34,218,-69
366,-108,-77,986,-23,200,-80
367,-109,-64,982,-1,192,-92
368,-49,-8,908,11,183,-98
369,-77,-42,981,18,165,-114
370,-70,47,913,27,136,-105
371,-90,51,917,14,105,-97
372,-94,40,892,4,67,-91
373,-139,47,887,-8,29,-72
374,-103,27,900,-16,-11,-61
375,-125,24,905,-9,-56,-63
376,-80,17,882,-3,-102,-62
377,-87,16,875,4,-152,-66
378,-106,25,856,16,-206,-58
379,-149,33,861,16,-266,-48
380,-181,35,907,18,-334,-44
381,-211,54,919,24,-406,-48
382,-194,82,968,26,-482,-65
383,-203,88,967,21,-559,-90
384,-177,110,960,9,-642,-103
385,-184,124,943,-11,-723,-111
386,-199,94,973,-40,-805,-104
387,-205,98,962,-63,-883,-86
388,-187,55,1012,-87,-960,-74
389,-161,65,1013,-99,-1033,-66
390,-135,49,1033,-114,-1098,-59
391,-99,36,1005,-130,-1159,-56
392,161,232,1270,-145,-1202,-47
393,1502,360,1899,-274,-932,-93
394,-468,-76,744,-297,-358,-175
395,-552,-258,636,-155,-475,-264
396,-348,-227,643,-83,-674,-198
397,145,-439,1051,-99,-791,-21
398,139,-547,1076,-48,-820,125
399,33,-326,1038,65,-769,242
400,-193,-98,832,160,-774,192
401,-91,69,1160,195,-816,130
402,134,363,1162,134,-792,82
403,33,97,1202,32,-729,9
404,-104,34,799,20,-734,0
405,-49,-12,881,10,-792,45
406,33,-12,867,20,-842,85
407,37,115,1016,11,-850,142
408,160,188,1046,-14,-812,151
409,38,80,1082,-36,-747,115
410,85,76,884,-27,-704,110
411,100,-19,939,-20,-677,101
412,189,-6,903,-1,-646,115
413,198,44,919,-1,-596,141
414,268,33,975,-10,-526,146
415,183,53,961,-11,-441,137
416,236,18,949,-12,-359,130
417,199,-10,919,-1,-281,105
418,248,7,911,8,-210,101
419,254,34,888,6,-135,91
420,274,42,935,-7,-57,90
421,228,80,885,-23,21,95
422,240,59,978,-43,84,102
423,196,72,956,-48,127,108
424,229,83,1009,-57,157,118
425,226,95,959,-63,183,103
426,206,67,959,-73,218,84
427,206,86,897,-85,253,63
428,195,54,965,-102,295,41
429,224,37,976,-110,342,24
430,230,-58,1061,-100,394,-9
431,224,-106,988,-60,447,-57
432,185,-100,909,-12,496,-97
433,197,-83,872,20,540,-112
434,190,-42,918,35,584,-94
435,208,18,965,27,630,-54
436,176,53,1025,9,677,-25
437,131,66,1007,0,724,-17
438,120,51,972,-3,774,-33
439,143,37,946,4,826,-61
440,147,34,952,5,885,-78
441,170,36,963,-5,944,-80
442,102,31,980,-17,1005,-76
443,100,36,992,-26,1054,-72
444,90,31,1045,-31,1105,-80
445,100,20,1041,-40,1142,-91
446,99,75,1014,-45,1181,-104
447,101,76,1017,-58,1219,-125
448,70,81,1001,-80,1254,-135
449,45,64,998,-104,1288,-129
450,23,46,1015,-117,1318,-122
451,11,40,1037,-124,1343,-118
452,-530,-335,1211,-137,1350,-127
453,-1764,-1632,1765,209,791,-410
454,499,-80,1357,661,-35,-626
455,771,-92,1048,535,102,-364
456,58,143,843,519,279,-102
457,269,373,724,498,373,33
458,59,39,1066,478,452,-64
459,191,224,949,501,546,-32
460,-33,469,1046,414,641,-33
461,-342,662,1495,222,574,-55
462,-20,286,832,-30,421,42
463,361,32,844,-120,473,78
464,45,-5,830,-74,582,8
465,-134,374,1055,-106,620,75
466,-110,252,1030,-234,534,109
467,62,-10,1007,-278,485,158
468,136,127,737,-274,522,148
469,-7,16,1082,-280,562,73
470,-174,121,937,-283,525,67
471,-62,27,1030,-322,464,105
472,32,-130,877,-292,430,70
473,-46,-70,933,-236,437,49
474,1,9,880,-209,414,23
475,-137,-98,1028,-196,368,10
476,-147,-125,918,-154,302,43
477,-166,-237,1064,-87,252,17
478,-21,-129,970,-9,247,-54
479,-74,-66,968,20,275,-108
480,-12,-32,966,28,262,-122
481,-66,41,962,30,236,-100
482,-6,123,926,18,220,-72
483,-126,117,981,-8,213,-71
484,-134,115,974,-36,193,-51
485,-150,35,948,-67,166,-37
486,-96,-51,925,-71,131,-18
487,-116,-61,855,-60,101,4
488,-98,-74,889,-48,63,24
489,-190,-50,854,-33,16,40
490,-208,-30,890,-26,-43,64
491,-260,-2,861,-21,-108,71
492,-247,35,889,-19,-181,75
493,-240,126,868,-28,-258,62
494,-242,123,926,-57,-339,38
495,-246,159,891,-91,-425,24
496,-277,156,918,-134,-518,22
497,-305,138,916,-173,-617,24
498,-339,122,953,-207,-716,32
499,-315,96,959,-226,-817,33
500,-304,73,998,-234,-914,23
501,-260,66,984,-236,-1003,11
502,-235,44,973,-237,-1086,-6
503,-215,23,943,-235,-1160,-8
504,-219,-10,948,-230,-1225,-3
505,-199,-37,957,-213,-1281,6
506,-190,-77,972,-190,-1327,11
507,-137,-77,993,-155,-1366,9
508,-130,-92,989,-123,-1394,0
509,-79,-94,972,-87,-1418,0
510,-97,-90,946,-56,-1431,3
511,-92,-116,962,-33,-1440,14
512,-87,-108,974,-3,-1444,26
513,-39,-122,1002,30,-1432,42
514,-32,-101,988,68,-1412,48
515,106,-157,1146,97,-1386,53
516,1210,-1016,1889,154,-1217,115
517,257,-343,1328,419,-736,263
518,-630,100,687,571,-608,130
519,-394,102,705,593,-729,-38
520,32,82,1075,519,-780,2
521,530,441,1665,363,-742,95
522,152,360,1289,120,-576,172
523,-96,73,793,47,-518,146
524,-147,-86,818,54,-585,169
525,-3,41,810,39,-646,294
526,29,11,1000,-8,-682,376
527,25,80,1028,-26,-689,397
528,37,201,1045,-42,-672,365
529,56,116,1040,-65,-658,278
530,-20,99,931,-67,-652,219
531,58,84,888,-78,-662,201
532,52,28,960,-83,-669,175
533,113,96,1002,-74,-659,162
534,144,74,1052,-66,-634,118
535,161,30,1046,-41,-608,56
536,153,25,943,-6,-585,21
537,217,-29,967,15,-570,3
538,209,-7,937,27,-547,15
539,240,-13,960,24,-510,37
540,231,-16,988,28,-463,34
541,207,-29,985,38,-422,47
542,231,-33,952,46,-397,62
543,246,-32,978,62,-376,64
544,267,-8,939,73,-348,70
545,274,-13,980,72,-311,70
546,241,-7,956,79,-270,68
547,228,-13,977,81,-238,75
548,223,-15,986,89,-211,77
549,229,-15,985,101,-191,80
550,262,22,950,106,-173,81
551,262,24,960,108,-148,67
552,273,53,933,101,-114,59
553,258,55,954,91,-71,52
554,259,46,959,84,-30,49
555,243,50,970,79,4,52
556,278,52,967,80,29,49
557,276,78,944,72,53,46
558,293,93,929,58,82,39
559,283,95,943,41,120,22
560,265,107,937,18,164,15
561,252,98,951,1,204,9
562,248,86,976,-11,235,5
563,257,90,959,-22,260,5
564,272,95,945,-34,282,-3
565,263,93,928,-47,311,-15
566,255,90,937,-66,348,-23
567,229,75,945,-81,389,-29
568,212,56,968,-91,425,-26
569,197,37,986,-96,452,-22
570,199,15,982,-95,468,-20
571,205,21,961,-91,481,-20
572,203,17,954,-89,499,-24
573,194,2,972,-91,523,-27
574,166,8,971,-90,553,-25
575,155,-9,992,-87,579,-24
576,139,-24,997,-79,597,-20
577,149,-27,986,-69,606,-14
578,162,-7,963,-56,614,-17
579,161,10,961,-53,628,-22
580,150,25,959,-57,649,-25
581,123,39,971,-60,675,-31
582,106,38,984,-65,696,-31
583,92,45,997,-68,710,-33
584,90,46,983,-74,717,-39
585,96,71,946,-85,729,-49
586,72,71,922,-104,744,-61
587,75,72,931,-127,760,-67
588,35,92,956,-152,781,-61
589,34,99,988,-180,791,-55
590,16,100,1005,-203,807,-51
591,16,60,989,-230,808,-50
592,122,-103,1102,-233,816,-65
593,147,-223,1177,-142,838,-143
594,83,-46,1096,-60,854,-196
595,-43,57,989,-88,846,-150
596,-104,107,964,-139,817,-80
597,-50,87,1053,-180,786,-45
598,-15,39,1117,-190,766,-54
599,-11,139,1078,-198,753,-54
600,-19,171,1068,-256,739,-35
601,-44,166,1076,-326,725,-2
602,-28,118,1087,-386,719,28
603,-61,78,1133,-422,711,36
604,-77,123,1110,-443,701,33
605,-71,154,1068,-510,686,49
606,-61,127,1054,-586,664,64
607,-138,-51,1135,-642,647,71
608,-1203,-1581,1547,-500,514,125
609,-518,-233,1249,22,136,323
610,-17,242,1081,3,62,293
611,-140,415,855,-145,85,189
612,56,323,954,-324,100,128
613,44,298,954,-471,105,25
614,25,323,923,-607,115,43
615,96,352,824,-758,128,84
616,-13,295,967,-866,153,119
617,-135,31,904,-959,169,214
618,-599,-1072,1316,-818,78,387
619,-150,7,1000,-394,-101,596
620,119,419,928,-400,-83,549
621,76,502,732,-530,-6,419
622,87,306,828,-677,69,336
623,-336,-415,1006,-726,87,303
624,-487,-441,1124,-483,-43,397
625,74,314,963,-351,-148,386
626,188,396,876,-461,-80,309
627,0,156,843,-580,0,309
628,-310,-204,1112,-572,-32,317
629,-193,67,1071,-469,-136,334
630,6,328,1004,-531,-148,337
631,-78,186,1017,-643,-112,327
632,-251,69,1050,-682,-119,349
633,-109,148,1051,-693,-176,344
634,-2,170,1009,-727,-196,352
635,-29,191,959,-791,-187,387
636,94,-145,1245,-812,-190,369
637,306,-33,1219,-697,-132,246
638,370,177,982,-645,0,110
639,130,190,864,-682,97,79
640,-136,8,1020,-733,84,71
641,23,-94,1102,-734,1,63
642,69,19,1039,-729,-7,108
643,-31,135,941,-768,17,120
644,-125,-44,1012,-811,18,101
645,-103,-103,1051,-789,4,79
646,-57,1,988,-770,0,58
647,-5,-44,911,-790,8,40
648,-24,-161,926,-791,7,37
649,-17,-183,944,-753,-6,43
650,0,-189,979,-728,-11,41
651,-25,-210,969,-709,-6,35
652,-27,-221,945,-681,-3,23
653,25,-201,932,-650,-2,9
654,19,-220,919,-624,4,7
655,-20,-225,901,-598,0,13
656,-19,-236,936,-566,-8,13
657,-19,-255,992,-536,-8,15
658,-31,-259,985,-506,-3,5
659,-23,-279,942,-479,-3,-7
660,-6,-251,869,-442,-2,-13
661,1,-268,854,-401,5,-18
662,2,-295,862,-345,5,-35
663,-9,-295,895,-276,5,-68
664,-19,-296,921,-204,10,-115
665,-41,-272,922,-134,21,-166
666,-23,-245,903,-69,27,-216
667,1,-232,920,-15,32,-256
668,-3,-235,929,27,35,-271
669,-9,-238,947,48,27,-260
670,-33,-250,990,59,15,-227
671,-54,-255,1012,58,1,-177
672,-43,-255,994,59,-13,-126
673,7,-250,961,67,-19,-87
674,58,-243,922,92,-18,-61
675,79,-276,921,125,-10,-47
676,86,-293,911,166,1,-49
677,35,-323,930,211,10,-64
678,-15,-351,926,257,13,-91
679,-61,-363,891,322,16,-127
680,-53,-359,850,400,19,-171
681,-41,-350,838,473,27,-208
682,-18,-355,848,544,27,-243
683,-16,-363,881,619,22,-267
684,-44,-344,906,677,17,-272
685,-56,-335,935,718,9,-272
686,-66,-309,935,760,5,-262
687,-48,-272,918,803,3,-254
688,0,-229,914,843,0,-245
689,20,-209,922,879,4,-238
690,32,-198,939,902,7,-229
691,-4,-184,971,921,9,-222
692,-27,-176,995,931,7,-219
693,-45,-162,975,938,6,-222
694,-27,-147,941,958,7,-227
695,0,-112,929,979,9,-238
696,15,-107,946,993,14,-249
697,19,-118,976,1002,15,-260
698,2,-119,1007,1000,16,-267
699,-21,-122,1012,997,16,-266
700,-36,-96,986,997,16,-266
701,-29,-89,972,998,15,-269
702,-1,-64,965,1003,15,-271
703,-1,-78,970,1007,15,-273
704,10,-76,954,1016,14,-275
705,-26,-90,975,1019,14,-271
706,-47,-92,981,1027,7,-263
707,-50,-71,973,1041,3,-265
708,-22,-63,955,1052,2,-272
709,10,-44,940,1070,6,-289
710,25,-61,941,1087,12,-307
711,20,-94,934,1108,15,-319
712,-10,-86,940,1137,14,-323
713,-37,-102,949,1157,10,-329
714,-57,-97,966,1179,6,-335
715,-38,-56,941,1202,3,-344
716,-3,-34,947,1215,2,-359
717,200,1113,1575,1164,7,-326
718,143,1417,1680,484,-59,-37
719,-147,-26,225,265,-32,-83
720,140,-652,-74,460,-25,-302
721,322,137,984,513,51,-315
722,113,166,1729,367,59,-203
723,-233,-72,1270,373,-18,-176
724,185,-503,623,521,-49,-275
725,179,-376,965,607,-3,-397
726,111,-143,1089,602,23,-380
727,-122,-271,1207,660,13,-425
728,-17,-225,1086,762,-24,-434
729,-70,-280,899,824,-30,-416
730,50,-194,1002,858,-21,-409
731,-120,-42,1008,888,-12,-414
732,-47,-61,1066,907,-25,-387
733,-110,64,949,941,-33,-382
734,-80,0,1022,961,-31,-378
735,-141,97,956,1002,-33,-391
736,-84,102,1080,1023,-45,-389
737,-77,59,888,1051,-57,-408
738,24,151,1018,1087,-61,-454
739,64,168,943,1089,-56,-479
740,57,227,1006,1061,-48,-466
741,39,246,906,1029,-43,-438
742,-3,217,1001,993,-35,-406
743,-17,271,923,970,-36,-378
744,-2,230,991,943,-40,-369
745,44,284,923,920,-43,-370
746,40,285,960,886,-33,-372
747,47,317,926,842,-29,-362
748,-8,350,978,795,-25,-341
749,-5,335,951,746,-31,-314
750,-25,340,955,700,-33,-310
751,20,342,924,663,-37,-316
752,22,354,925,619,-34,-328
753,51,406,934,566,-36,-324
754,15,441,932,496,-33,-302
755,14,459,952,417,-28,-269
756,-42,450,946,346,-19,-243
757,-34,419,942,273,-18,-226
758,-12,401,917,213,-25,-217
759,30,370,933,152,-24,-206
760,48,381,926,89,-16,-181
761,30,390,950,17,-4,-145
762,-23,381,955,-60,7,-101
763,-59,356,977,-130,10,-53
764,-62,299,947,-190,8,-19
765,-19,259,943,-238,4,10
766,13,247,931,-275,4,32
767,15,247,964,-310,7,47
768,2,289,980,-343,8,63
769,-14,261,994,-380,9,75
770,0,238,982,-414,4,94
771,39,217,953,-453,5,126
772,99,215,944,-505,7,177
773,102,263,944,-553,28,230
774,84,314,974,-621,53,287
775,22,368,968,-701,75,359
776,-25,365,955,-794,90,448
777,-54,350,945,-895,97,546
778,-57,327,933,-992,104,640
779,-15,339,931,-1087,112,717
780,11,345,941,-1182,121,773
781,27,332,928,-1270,132,817
782,18,340,922,-1357,147,858
783,-9,326,946,-1436,158,893
784,-32,313,985,-1504,167,917
785,-12,294,980,-1561,178,922
786,26,260,972,-1606,192,900
787,57,266,957,-1640,212,862
788,57,252,955,-1679,233,823
789,31,238,946,-1714,250,795
790,-22,219,966,-1738,255,788
791,-43,181,982,-1749,247,787
792,-21,138,964,-1742,239,767
793,-119,56,994,-1720,239,727
794,-1764,-1643,1702,-1514,-13,573
795,-416,-548,1513,-722,-837,305
796,837,-88,1020,-666,-846,286
797,368,139,651,-658,-640,339
798,436,233,656,-699,-480,469
799,414,92,749,-714,-354,402
800,633,-320,1380,-687,-207,435
801,853,-220,1264,-576,21,465
802,392,-110,1302,-495,205,378
803,-5,261,446,-469,277,384
804,108,260,742,-561,314,419
805,-122,-217,1145,-605,335,392
806,-974,-325,1816,-570,161,245
807,125,13,1263,-646,-89,119
808,147,15,699,-710,-46,220
809,152,320,472,-688,10,391
810,-59,-12,999,-727,29,457
811,-26,-272,1482,-666,-14,347
812,-43,80,1011,-664,-3,362
813,113,1,888,-688,-2,344
814,-5,53,792,-673,11,364
815,24,22,943,-691,9,390
816,48,-224,1220,-697,-10,316
817,-32,-107,1019,-684,9,306
818,-55,-125,868,-675,13,264
819,-43,-194,904,-634,0,218
820,-51,-149,849,-591,0,220
821,21,-259,987,-567,-11,199
822,-2,-230,924,-513,-10,170
823,3,-218,886,-472,-4,158
824,-7,-254,906,-424,-9,126
825,-79,-272,927,-371,-6,114
826,-59,-269,896,-316,-13,96
827,-53,-298,917,-247,-16,64
828,-7,-251,793,-163,-16,42
829,36,-249,831,-81,-11,8
830,16,-305,858,-1,-3,-28
831,-39,-298,913,75,5,-62
832,-59,-323,912,149,5,-111
833,-85,-315,871,232,6,-154
834,-44,-272,809,322,2,-192
835,4,-299,819,415,0,-225
836,32,-272,826,496,1,-245
837,5,-288,900,564,5,-264
838,-36,-293,941,618,4,-286
839,-84,-275,935,667,2,-307
840,-62,-265,911,720,-5,-326
841,-49,-234,897,769,-7,-333
842,18,-209,892,814,-8,-331
843,38,-205,948,840,0,-321
844,5,-189,1006,847,9,-301
845,-52,-181,1054,842,11,-290
846,-96,-155,1051,821,7,-284
847,-96,-119,1007,807,-3,-279
848,-49,-81,1006,793,-9,-271
849,2,-68,1011,770,-8,-265
850,19,-42,1041,747,0,-254
851,-6,-47,1076,712,9,-249
852,-58,-69,1083,676,10,-244
853,-102,-54,1032,656,7,-235
854,-84,-42,992,646,0,-229
855,-62,-28,978,647,-3,-226
856,4,-39,973,646,-4,-227
857,31,-56,975,652,1,-228
858,16,-70,971,658,6,-225
859,-9,-85,982,664,3,-224
860,-39,-85,978,681,0,-229
861,-35,-39,1000,695,-4,-247
862,443,887,1767,640,17,-252
863,-38,900,1734,286,51,-161
864,-321,24,752,213,-18,-247
865,-186,-428,519,304,-100,-439
866,10,-260,819,371,-139,-493
867,319,-184,1125,359,-127,-469
868,219,-98,1241,352,-48,-489
869,138,-162,1020,411,6,-506
870,79,-304,990,473,5,-489
871,146,-187,963,550,-3,-447
872,168,-189,1007,609,13,-422
873,178,-104,1040,649,52,-415
874,29,-91,958,681,93,-399
875,-79,-47,1086,700,100,-372
876,-289,22,1154,729,50,-331
877,-210,-84,1038,768,-24,-298
878,-88,-77,876,810,-59,-330
879,15,-61,947,834,-61,-378
880,63,65,986,815,-41,-393
881,-13,83,1052,769,-18,-386
882,-82,53,961,759,-13,-379
883,-70,79,1004,768,-25,-371
884,-20,72,970,775,-40,-359
885,4,119,956,764,-43,-343
886,30,157,939,745,-37,-342
887,-4,162,992,725,-26,-340
888,-34,199,984,707,-19,-316
889,-46,174,1015,690,-24,-295
890,-24,168,978,679,-33,-276
891,12,175,946,661,-38,-270
892,67,194,938,635,-33,-282
893,39,239,957,601,-20,-292
894,20,251,981,569,-12,-290
895,-42,247,1009,543,-10,-277
896,-46,238,982,520,-19,-250
897,-41,223,964,499,-26,-231
898,0,231,933,473,-27,-222
899,12,272,925,438,-22,-217
900,10,298,956,399,-15,-214
901,-28,316,980,360,-12,-201
902,-58,305,985,321,-14,-174
903,-56,290,980,292,-22,-149
904,-24,273,957,262,-26,-129
905,13,265,928,226,-23,-122
906,43,297,932,186,-17,-119
907,36,324,949,142,-9,-112
908,21,333,995,94,-4,-95
909,-8,319,990,52,-1,-65
910,4,292,978,6,-3,-27
911,21,281,936,-42,-5,9
912,62,291,916,-104,-1,37
913,86,344,918,-178,9,61
914,78,376,944,-261,22,92
915,49,403,959,-351,33,141
916,14,396,968,-447,38,202
917,11,369,943,-543,39,268
918,29,364,912,-646,39,334
919,66,366,891,-754,42,390
920,96,407,890,-873,51,439
921,82,453,894,-1005,65,493
922,59,467,907,-1143,78,553
923,-9,471,925,-1277,90,619
924,-27,465,915,-1406,92,688
925,-29,445,889,-1528,91,739
926,25,428,891,-1641,95,768
927,69,451,907,-1749,117,774
928,80,444,940,-1854,150,775
929,42,418,971,-1946,187,780
930,4,384,1023,-2016,219,799
931,5,335,1045,-2066,245,815
932,44,275,1032,-2093,279,811
933,-603,-422,1254,-2112,301,779
934,-1752,-1704,1820,-1373,-300,707
935,424,391,1327,-498,-1051,643
936,658,-79,1013,-563,-835,491
937,133,446,704,-593,-629,473
938,733,216,930,-683,-452,442
939,412,-226,1190,-646,-238,292
940,343,365,789,-600,-57,379
941,333,92,784,-653,45,332
942,331,95,996,-654,138,331
943,247,268,680,-674,240,421
944,472,-90,1165,-715,323,421
945,160,106,871,-642,422,400
946,242,117,930,-652,499,465
947,-125,84,981,-652,547,412
948,-1600,-257,1643,-598,354,227
949,-357,182,1195,-598,-117,-78
950,418,71,903,-727,-167,15
951,244,216,557,-750,-66,295
952,78,234,942,-791,8,502
953,-93,-169,1457,-788,-16,438
954,-44,38,1261,-790,-46,409
955,228,125,805,-821,-31,409
956,57,-52,862,-824,18,417
957,-94,99,803,-802,44,449
958,-180,-231,1260,-835,8,368
959,-41,-187,1142,-842,-37,279
960,33,-137,885,-851,-25,278
961,132,-212,824,-829,-10,252
962,-13,-178,851,-776,16,256
963,2,-271,955,-752,10,233
964,-39,-339,1105,-733,-6,182
965,-31,-299,931,-695,-4,170
966,-20,-295,851,-654,0,148
967,-2,-289,833,-584,5,117
968,-29,-309,818,-509,13,90
969,6,-328,898,-442,7,50
970,-49,-373,882,-365,7,7
971,-43,-359,889,-292,5,-20
972,-70,-370,861,-207,6,-63
973,-48,-375,824,-109,8,-96
974,-26,-317,789,-6,10,-141
975,-6,-366,834,97,14,-191
976,-6,-325,798,198,16,-240
977,-24,-347,883,281,17,-284
978,-51,-379,899,358,12,-323
979,-70,-359,910,426,11,-341
980,-37,-365,861,502,7,-359
981,-17,-331,845,581,6,-365
982,14,-316,828,652,8,-362
983,5,-336,894,710,9,-358
984,-19,-313,949,749,8,-349
985,-52,-346,1013,768,2,-338
986,-62,-309,983,786,-2,-322
987,-52,-285,924,809,-3,-303
988,-5,-245,903,844,-4,-286
989,4,-219,925,868,-3,-268
990,24,-216,967,881,0,-255
991,-11,-196,1020,882,3,-244
992,-29,-200,1035,879,2,-239
993,-38,-180,1003,879,3,-236
994,-7,-146,956,887,5,-230
995,26,-125,943,900,8,-230
996,50,-117,953,911,13,-229
997,51,-134,975,917,18,-229
998,19,-137,1001,916,18,-221
999,-12,-157,1011,913,11,-208
1000,-31,-152,982,918,4,-191
1001,-19,-126,927,938,-2,-180
1002,21,-98,914,961,-5,-175
1003,47,-83,929,983,-4,-175
1004,57,-95,972,997,1,-170
1005,19,-84,998,1005,6,-163
1006,-25,-76,1009,1014,7,-154
1007,14,23,1050,1022,3,-150
1008,361,1617,1873,873,36,-105
1009,-306,778,1388,346,35,-53
1010,-332,-153,333,394,-51,-197
1011,-148,-582,222,530,-166,-340
1012,367,-43,990,568,-194,-333
1013,669,167,1330,451,-68,-370
1014,188,-157,1109,402,133,-492
1015,64,-88,727,481,163,-527
1016,-105,-214,1290,517,90,-460
1017,-76,14,1132,591,-1,-348
1018,-27,-186,1037,645,-20,-335
1019,8,-215,853,704,-5,-354
1020,-110,-73,981,711,6,-314
1021,-56,-122,1093,711,-6,-289
1022,-176,-116,1105,745,-17,-276
1023,-38,-170,928,783,-41,-241
1024,-1,-137,986,823,-49,-259
1025,59,-49,1003,850,-32,-273
1026,-25,-10,1010,857,-13,-276
1027,-37,15,1052,872,-13,-258
1028,-124,12,973,891,-24,-225
1029,-37,37,986,903,-37,-196
1030,-48,81,963,915,-37,-203
1031,5,111,983,909,-29,-202
1032,3,195,954,899,-22,-210
1033,-6,168,992,877,-17,-199
1034,-60,237,922,857,-17,-174
1035,-55,209,1021,832,-24,-147
1036,-57,215,945,808,-27,-127
1037,-8,245,982,783,-27,-113
1038,3,265,915,758,-24,-117
1039,15,320,954,716,-20,-115
1040,23,371,916,665,-14,-110
1041,-14,358,988,608,-10,-92
1042,-10,401,941,551,-12,-57
1043,-11,350,972,482,-14,-21
1044,37,389,901,415,-15,9
1045,51,408,914,333,-9,30
1046,87,440,907,243,3,51
1047,48,489,930,143,18,84
1048,38,492,945,39,30,135
1049,-25,488,961,-67,34,195
1050,-14,461,926,-168,34,259
1051,-1,459,906,-272,34,312
1052,43,474,890,-386,39,361
1053,53,490,881,-511,52,408
1054,59,521,902,-648,68,466
1055,9,524,918,-784,87,534
1056,-23,510,959,-917,96,612
1057,-66,475,917,-1041,99,686
1058,-36,442,891,-1160,96,748
1059,-22,433,851,-1279,98,784
1060,3,407,877,-1397,110,810
1061,-6,422,881,-1509,125,839
1062,-38,393,967,-1611,136,876
1063,-56,372,1007,-1692,142,916
1064,-25,328,1023,-1756,154,937
1065,45,284,994,-1804,179,919
1066,77,252,994,-1839,224,876
1067,75,228,979,-1868,269,832
1068,15,206,999,-1890,303,807
1069,-38,180,1016,-1898,311,810
1070,-129,89,1057,-1895,308,816
1071,-1736,-1651,1724,-1652,54,728
1072,-413,-424,1527,-601,-891,549
1073,836,-34,1281,-521,-907,470
1074,309,240,768,-532,-662,416
1075,405,239,773,-602,-463,432
1076,353,182,767,-620,-320,282
1077,211,-16,999,-625,-180,304
1078,362,254,643,-650,-56,391
1079,416,-258,1306,-669,60,373
1080,366,-68,862,-536,173,362
1081,395,24,1085,-511,277,375
1082,259,-33,774,-473,353,346
1083,40,135,801,-483,428,444
1084,-120,-36,976,-516,457,467
1085,-1411,-505,1715,-416,232,209
1086,92,155,1072,-371,-164,9
1087,476,49,808,-474,-136,140
1088,215,174,696,-452,-41,327
1089,208,369,710,-479,33,485
1090,-75,-185,1389,-490,65,424
1091,-262,71,1301,-437,6,303
1092,128,102,983,-489,-22,268
1093,96,-11,867,-485,12,228
1094,-45,157,739,-454,55,286
1095,-162,-16,984,-481,40,240
1096,-171,-170,1245,-480,-31,110
1097,29,-110,948,-488,-57,94
1098,163,-179,1000,-489,-40,95
1099,44,-186,834,-421,-6,102
1100,66,-104,826,-362,19,113
1101,42,-189,993,-315,26,42
1102,-50,-210,954,-261,28,-20
1103,7,-126,910,-233,23,-81
1104,-41,-275,983,-194,22,-162
1105,-45,-189,862,-136,26,-200
1106,-22,-200,902,-82,31,-245
1107,7,-280,889,-10,29,-298
1108,22,-170,840,61,37,-317
1109,25,-264,896,111,38,-348
1110,-55,-266,918,164,32,-377
1111,-70,-251,923,198,18,-388
1112,-73,-319,965,234,3,-410
1113,-52,-263,901,285,-3,-408
1114,-2,-262,870,325,-5,-399
1115,-6,-255,897,368,-7,-398
1116,-42,-263,914,400,-11,-384
1117,-30,-315,1006,420,-22,-372
1118,-38,-317,1014,447,-23,-351
1119,-17,-286,949,480,-17,-318
1120,8,-247,914,519,-10,-300
1121,24,-224,902,560,-2,-282
1122,28,-199,948,585,5,-272
1123,0,-210,1020,600,7,-269
1124,-32,-191,1012,604,5,-263
1125,-51,-166,1011,599,1,-254
1126,-50,-147,992,603,-2,-243
1127,-35,-105,969,609,-4,-230
1128,12,-82,976,612,-5,-223
1129,27,-73,988,608,-4,-222
1130,11,-77,1014,599,-1,-217
1131,-2,-108,1024,592,-6,-210
1132,-30,-112,996,593,-7,-189
1133,-15,-89,969,610,-7,-174
1134,4,-96,964,623,-4,-170
1135,46,-102,952,640,1,-167
1136,70,-126,954,659,6,-161
1137,50,-151,952,680,8,-149
1138,21,-149,936,708,8,-136
1139,78,-20,1117,737,8,-128
1140,240,1479,1912,599,33,-78
1141,-275,397,1278,245,36,-59
1142,-156,-189,522,297,-28,-203
1143,-80,-439,443,382,-60,-350
1144,160,-304,723,413,-60,-380
1145,437,41,1244,411,-18,-409
1146,104,97,1573,375,66,-386
1147,-96,36,995,398,31,-291
1148,-90,-390,837,463,-16,-281
1149,23,-160,786,550,-22,-307
1150,109,-34,1205,582,-4,-328
1151,22,-38,1170,608,1,-334
1152,-70,-17,977,638,-11,-292
1153,-9,-139,879,662,-24,-290
1154,-61,-19,1030,677,-20,-284
1155,-45,6,1006,677,-15,-262
1156,-54,-34,1066,687,-18,-277
1157,-17,30,952,708,-28,-270
1158,-1,2,954,706,-28,-263
1159,16,67,1007,704,-21,-261
1160,-75,72,998,704,-13,-246
1161,-34,58,1020,705,-20,-226
1162,-61,59,1000,715,-29,-216
1163,13,49,965,715,-34,-203
1164,35,115,945,709,-29,-212
1165,34,128,982,692,-21,-219
1166,5,190,962,675,-16,-217
1167,-13,189,1022,650,-16,-207
1168,-43,187,970,635,-22,-191
1169,-24,205,981,610,-27,-176
1170,10,194,935,588,-29,-181
1171,38,250,943,554,-25,-182
1172,57,301,934,508,-18,-178
1173,30,303,982,452,-10,-163
1174,-4,354,940,391,-6,-121
1175,-15,328,977,329,-5,-79
1176,-16,336,937,266,-8,-42
1177,13,351,936,201,-8,-12
1178,54,383,908,127,-5,6
1179,37,425,927,43,7,32
1180,37,453,929,-52,16,69
1181,-25,454,956,-149,24,113
1182,-32,456,940,-235,25,165
1183,-51,432,939,-321,23,202
1184,-14,422,909,-402,19,222
1185,5,449,881,-490,20,236
1186,38,462,903,-583,26,248
1187,10,462,930,-673,40,269
1188,-6,456,946,-764,45,303
1189,-26,420,957,-848,47,341
1190,-30,382,940,-925,44,379
1191,1,356,899,-1003,39,401
1192,40,350,888,-1085,41,412
1193,42,360,886,-1174,48,425
1194,28,367,927,-1269,55,446
1195,-21,356,946,-1354,59,474
1196,-41,335,955,-1431,56,509
1197,-29,301,943,-1496,53,533
1198,19,272,937,-1553,58,539
1199,70,283,920,-1607,74,529
1200,61,256,945,-1656,100,520
1201,18,251,976,-1696,120,528
1202,-1287,-1108,1581,-1657,45,537
1203,-148,-1047,1799,-582,-493,398
1204,310,291,1091,-200,-375,342
1205,10,233,525,-221,-271,199
1206,-61,301,558,-294,-218,246
1207,409,477,626,-417,-191,222
1208,-14,-179,953,-498,-136,233
1209,306,594,517,-578,-104,430
1210,131,113,949,-713,-47,436
1211,267,25,948,-730,4,474
1212,604,-250,1456,-648,113,422
1213,654,-307,1408,-402,244,195
1214,-32,388,646,-381,349,254
1215,47,359,556,-484,368,355
1216,-383,-45,998,-561,372,359
1217,-1040,-242,1853,-523,139,197
1218,71,-76,1425,-594,-146,57
1219,290,217,705,-675,-95,205
1220,69,261,433,-653,-30,362
1221,215,135,899,-660,13,464
1222,-46,-182,1474,-620,24,397
1223,-55,-29,1184,-624,-4,379
1224,107,110,839,-647,-6,346
1225,-1,-87,813,-616,31,343
1226,-108,107,765,-577,49,352
1227,-124,-160,1185,-580,16,258
1228,-69,-170,1046,-570,-19,170
1229,32,-68,940,-573,-13,166
1230,11,-221,889,-548,-1,147
1231,-62,-117,930,-502,7,158
1232,22,-171,936,-470,-4,145
1233,27,-235,1007,-433,-4,118
1234,45,-101,832,-382,6,112
1235,15,-210,926,-349,12,86
1236,-41,-181,948,-303,12,49
1237,-82,-217,973,-272,9,25
1238,-20,-234,963,-240,3,-12
1239,-41,-218,892,-184,10,-35
1240,15,-229,820,-118,18,-53
1241,-17,-212,883,-51,24,-93
1242,-56,-243,891,6,24,-129
1243,-76,-262,957,49,15,-176
1244,-81,-283,963,97,10,-220
1245,-58,-279,896,149,11,-241
1246,-18,-233,882,209,13,-258
1247,-27,-272,860,269,19,-273
1248,-20,-225,894,315,17,-282
1249,-56,-282,956,341,7,-299
1250,-53,-314,988,362,-6,-300
1251,-53,-300,987,381,-13,-281
1252,-20,-333,973,398,-15,-256
1253,-6,-261,912,433,-9,-224
1254,8,-277,919,458,-6,-199
1255,8,-251,957,481,-5,-186
1256,-13,-244,996,490,-4,-171
1257,-28,-260,1029,491,-10,-169
1258,-50,-207,997,499,-13,-169
1259,-33,-182,945,520,-11,-175
1260,-6,-140,923,551,-5,-192
1261,5,-131,924,583,4,-216
1262,18,-124,946,612,9,-241
1263,2,-120,971,632,9,-267
1264,4,-154,979,649,8,-285
1265,-7,-144,977,671,6,-294
1266,5,-143,953,694,10,-302
1267,13,-129,935,722,17,-312
1268,26,-136,930,752,21,-322
1269,16,-151,931,779,23,-330
1270,-17,-147,941,808,21,-326
1271,-50,-163,962,831,14,-317
1272,-64,-142,974,853,7,-306
1273,-27,-113,977,871,3,-299
1274,23,-88,975,884,5,-295
1275,60,-74,970,896,14,-288
1276,92,1249,1684,828,4,-226
1277,72,1018,1582,320,-75,-25
1278,-83,-61,498,255,-54,-113
1279,9,-517,310,363,-62,-281
1280,161,-246,683,424,-30,-320
1281,510,-94,1252,403,30,-349
1282,-28,87,1633,375,88,-342
1283,-66,-75,956,427,9,-269
1284,-14,-443,821,516,-34,-337
1285,101,-125,849,601,-13,-397
1286,10,-138,1195,597,16,-395
1287,-53,-126,1189,640,3,-376
1288,-114,-133,969,716,-22,-338
1289,66,-192,914,751,-34,-326
1290,-22,-38,980,769,-18,-331
1291,-33,-8,1000,764,-6,-303
1292,-113,70,1071,772,-12,-301
1293,-116,18,1028,790,-27,-275
1294,-77,27,917,797,-37,-246
1295,0,73,1000,794,-39,-242
1296,-23,89,948,786,-29,-244
1297,41,163,983,765,-26,-245
1298,2,163,972,751,-23,-254
1299,-2,185,994,729,-22,-231
1300,-31,226,966,711,-23,-216
1301,-30,165,1001,690,-25,-204
1302,-11,245,927,669,-28,-191
1303,27,209,973,635,-27,-197
1304,41,260,926,603,-22,-202
1305,24,313,965,558,-16,-195
1306,6,296,972,513,-13,-180
1307,-39,329,983,467,-14,-148
1308,-14,306,936,420,-17,-121
1309,-6,297,948,373,-16,-110
1310,31,330,917,320,-12,-103
1311,44,333,942,262,-7,-98
1312,23,387,939,200,0,-80
1313,-19,384,965,135,4,-51
1314,-41,389,963,75,3,-18
1315,-53,359,950,22,2,12
1316,-7,351,939,-26,-1,35
1317,11,358,937,-80,2,49
1318,44,376,932,-139,8,72
1319,22,408,934,-210,16,98
1320,-2,394,962,-284,25,138
1321,-32,392,954,-356,31,186
1322,-24,340,956,-427,33,228
1323,-10,316,925,-488,34,265
1324,16,310,930,-553,39,297
1325,29,313,922,-621,46,326
1326,3,332,945,-693,51,367
1327,-30,332,953,-766,52,417
1328,-57,311,967,-841,50,464
1329,-45,288,932,-904,46,499
1330,-14,273,930,-970,44,523
1331,12,277,912,-1031,47,536
1332,26,286,920,-1099,51,552
1333,17,311,920,-1170,55,573
1334,-18,292,951,-1240,56,602
1335,-31,269,959,-1302,55,634
1336,-30,238,959,-1351,53,656
1337,21,220,955,-1395,56,660
1338,44,219,956,-1434,69,642
1339,57,218,952,-1473,86,625
1340,21,227,959,-1510,101,616
1341,-393,-106,1151,-1544,102,615
1342,-1358,-1797,1829,-1179,-228,492
1343,788,-139,1552,-312,-540,295
1344,297,-50,708,-294,-217,276
1345,-76,412,378,-254,-148,193
1346,337,361,507,-323,-78,276
1347,301,81,737,-401,-10,232
1348,185,314,752,-444,65,385
1349,298,314,584,-549,139,495
1350,447,-133,1420,-594,222,451
1351,-302,-309,1581,-433,279,335
1352,-189,49,1730,-388,77,70
1353,249,170,722,-464,-12,9
1354,127,322,455,-495,64,227
1355,-216,341,776,-542,78,354
1356,-437,-186,1613,-575,-37,264
1357,88,128,1216,-619,-110,263
1358,217,47,918,-657,-59,303
1359,115,91,653,-604,-5,345
1360,-37,149,857,-570,35,385
1361,-34,-191,1279,-562,11,300
1362,-96,-71,1084,-558,-4,248
1363,81,-91,838,-546,-2,225
1364,6,-168,827,-490,21,187
1365,-35,-54,819,-415,35,176
1366,-45,-183,983,-380,26,98
1367,-5,-175,1037,-340,8,21
1368,15,-151,873,-313,12,-2
1369,28,-204,971,-291,14,-23
1370,-52,-180,942,-252,14,-32
1371,-18,-183,951,-223,7,-37
1372,13,-170,935,-186,4,-71
1373,-6,-163,892,-142,14,-89
1374,-31,-159,905,-107,19,-127
1375,-83,-210,992,-72,16,-182
1376,-97,-245,950,-46,13,-222
1377,-77,-244,984,-14,9,-258
1378,-64,-287,895,30,11,-283
1379,-36,-238,877,77,17,-293
1380,-31,-265,905,118,14,-318
1381,-56,-309,939,155,5,-334
1382,-56,-290,942,184,-1,-338
1383,-73,-379,974,210,-9,-340
1384,-56,-341,925,248,-18,-320
1385,-26,-353,900,292,-18,-300
1386,31,-354,882,345,-17,-285
1387,53,-338,904,391,-12,-268
1388,66,-395,955,434,-6,-259
1389,40,-366,966,473,-2,-250
1390,13,-365,947,511,4,-241
1391,-8,-335,944,551,7,-239
1392,-12,-279,913,594,11,-241
1393,13,-251,912,634,13,-248
1394,18,-216,919,672,16,-257
1395,-1,-230,938,708,19,-251
1396,-13,-210,950,742,15,-235
1397,-31,-179,961,772,11,-217
1398,-9,-145,967,793,10,-201
1399,18,-126,984,809,11,-191
1400,71,-108,972,825,17,-179
1401,92,-90,970,840,28,-167
1402,77,-88,969,853,35,-149
1403,53,-91,992,868,38,-130
1404,-339,972,1598,842,12,-93
1405,-67,1361,1772,437,-105,-26
1406,58,85,630,225,-74,-102
1407,277,-299,368,237,-45,-236
1408,276,-193,450,219,24,-298
1409,295,-252,786,169,81,-327
1410,-206,232,1775,146,62,-261
1411,-127,100,1371,170,-41,-90
1412,68,-401,760,245,-77,-125
1413,166,-355,627,339,-35,-267
1414,174,-207,1080,369,25,-375
1415,43,-115,1458,419,27,-416
1416,-109,-232,1086,526,-15,-363
1417,60,-286,839,610,-46,-345
1418,21,-246,961,677,-32,-405
1419,-3,-151,1118,728,-6,-417
1420,-59,-106,1149,768,-10,-415
1421,-45,-242,1004,828,-36,-405
1422,44,-105,844,866,-51,-393
1423,100,-51,1030,871,-39,-420
1424,7,7,1044,879,-14,-432
1425,-57,64,1035,878,-11,-395
1426,-57,-5,982,885,-29,-363
1427,-43,55,956,895,-39,-338
1428,24,108,939,888,-36,-338
1429,10,132,1005,878,-24,-351
1430,-25,237,952,862,-18,-335
1431,-55,226,984,829,-19,-309
1432,-96,263,955,797,-22,-278
1433,-96,281,948,757,-26,-247
1434,-66,276,950,714,-28,-236
1435,-59,308,939,668,-26,-235
1436,-15,341,922,613,-26,-230
1437,-34,370,945,551,-23,-226
1438,-45,390,932,481,-20,-205
1439,-76,392,952,411,-19,-180
1440,-73,389,969,347,-21,-155
1441,-77,378,943,286,-22,-138
1442,-33,374,922,228,-22,-131
1443,-23,388,909,167,-16,-130
1444,-19,409,922,100,-11,-118
1445,-46,421,954,32,-11,-91
1446,-75,405,978,-29,-12,-56
1447,-58,395,970,-82,-16,-26
1448,-36,350,949,-129,-16,-16
1449,-10,346,913,-174,-8,-19
1450,14,359,930,-222,-1,-18
1451,-4,361,943,-275,4,-1
1452,-14,374,971,-325,5,36
1453,-38,342,980,-367,4,74
1454,-25,299,978,-399,6,102
1455,-8,286,946,-427,11,121
1456,10,256,948,-459,16,130
1457,21,280,930,-491,18,140
1458,13,295,953,-527,19,156
1459,7,310,985,-561,15,180
1460,-12,306,1003,-596,12,206
1461,9,279,966,-628,11,219
1462,36,260,947,-659,16,216
1463,61,250,930,-690,24,212
1464,77,282,948,-724,30,213
1465,70,299,956,-766,32,230
1466,46,285,971,-815,33,257
1467,22,271,970,-858,34,283
1468,17,226,958,-899,36,301
1469,35,205,948,-935,36,310
1470,43,179,939,-973,41,314
1471,43,186,958,-1004,46,320
1472,-2,219,958,-1035,51,334
1473,-50,205,980,-1077,49,355
1474,-87,186,962,-1114,45,373
1475,-74,155,949,-1146,42,390
1476,-39,136,937,-1173,35,393
1477,-18,127,945,-1196,33,396
1478,7,158,931,-1222,29,400
1479,-412,-154,1189,-1252,22,398
1480,-705,-1739,1928,-938,-213,240
1481,569,-165,1318,-337,-290,118
1482,169,-190,435,-308,-73,126
1483,-153,235,226,-197,-41,98
1484,308,285,467,-214,13,209
1485,244,-111,682,-254,63,200
1486,234,282,730,-266,129,374
1487,-301,-548,1554,-329,148,385
1488,-120,-226,1766,-238,-70,110
1489,216,272,559,-308,-73,172
1490,194,329,567,-344,-11,218
1491,163,328,614,-327,49,316
1492,32,-33,1326,-388,84,408
1493,-46,-7,1704,-412,-1,294
1494,44,110,956,-488,-26,305
1495,128,292,708,-536,-12,337
1496,-49,48,955,-539,13,364
1497,-17,54,1145,-553,2,374
1498,52,1,1293,-591,-17,320
1499,31,-9,886,-613,-3,314
1500,9,115,842,-626,3,319
1501,9,-145,1054,-629,5,295
1502,-113,-107,1099,-624,9,283
1503,-45,-67,988,-621,-8,246
1504,-3,-133,913,-609,-8,217
1505,-7,-31,879,-591,3,217
1506,10,-196,1006,-577,5,190
1507,-32,-171,1022,-556,9,165
1508,-104,-159,947,-538,11,142
1509,-74,-217,946,-514,0,106
1510,-97,-173,911,-477,-1,88
1511,-38,-212,907,-441,-6,67
1512,-12,-205,930,-406,-8,43
1513,-1,-226,930,-369,-5,26
1514,-14,-270,928,-333,-2,9
1515,-51,-270,944,-287,3,-7
1516,-69,-287,924,-240,-2,-26
1517,-41,-273,913,-189,-5,-47
1518,-3,-270,882,-138,-2,-68
1519,13,-280,895,-91,4,-85
1520,3,-315,915,-38,10,-98
1521,-36,-335,908,19,10,-101
1522,-61,-309,903,81,5,-111
1523,-57,-305,914,138,0,-127
1524,-42,-284,902,194,1,-149
1525,1,-263,895,251,5,-172
1526,13,-260,892,300,10,-190
1527,1,-253,905,351,12,-200
1528,-25,-252,924,399,10,-204
1529,-46,-226,944,444,4,-209
1530,-40,-184,954,481,1,-219
1531,-23,-156,939,512,2,-235
1532,18,-128,929,540,6,-251
1533,27,-133,935,566,12,-262
1534,10,-145,957,593,13,-262
1535,-9,-139,964,619,11,-259
1536,-33,-143,972,641,9,-252
1537,-31,-115,969,661,9,-248
1538,-17,-117,970,681,10,-250
1539,23,-112,949,699,12,-251
1540,39,-103,942,719,15,-248
1541,26,-136,942,735,16,-239
1542,-4,-129,966,758,13,-226
1543,-23,-126,970,778,5,-212
1544,-13,-104,973,796,-1,-204
1545,-4,-74,962,811,0,-206
1546,19,-84,946,829,5,-217
1547,24,-63,932,850,10,-228
1548,10,-85,954,870,12,-234
1549,159,871,1531,854,16,-209
1550,56,1451,1779,384,-11,-91
1551,-238,232,626,128,-12,-192
1552,-29,-120,389,135,-50,-419
1553,11,-33,562,100,-44,-511
1554,252,-303,555,30,-37,-525
1555,237,24,852,-3,-1,-512
1556,360,343,1614,-33,87,-484
1557,-225,247,1631,-34,93,-364
1558,-136,-81,871,51,-25,-178
1559,-75,-304,530,114,-54,-193
1560,120,-53,854,137,-18,-288
1561,13,21,1306,143,27,-374
1562,-84,20,1330,176,9,-339
1563,-94,-141,868,245,-39,-290
1564,-14,-254,880,304,-38,-322
1565,-35,-23,998,350,-11,-369
1566,-20,-130,1219,368,-15,-372
1567,5,-91,999,422,-38,-368
1568,94,-113,960,458,-36,-379
1569,109,-62,943,476,-17,-404
1570,33,18,1079,483,1,-387
1571,-37,-12,1016,502,-1,-349
1572,-61,16,1068,526,-14,-304
1573,-44,21,942,550,-21,-262
1574,-30,41,977,549,-15,-237
1575,-10,137,943,538,-9,-219
1576,-49,150,1009,522,-6,-198
1577,-44,221,981,506,-10,-165
1578,-93,206,1002,484,-12,-133
1579,-46,223,949,457,-17,-100
1580,-40,261,965,423,-20,-80
1581,17,265,931,385,-18,-72
1582,27,347,945,336,-13,-69
1583,40,375,948,282,-6,-62
1584,-6,396,957,222,-1,-46
1585,-19,414,956,161,-1,-21
1586,-33,391,954,100,-4,1
1587,5,408,932,36,-6,18
1588,27,406,911,-31,-4,16
1589,65,421,931,-103,3,15
1590,43,451,921,-171,16,21
1591,21,417,974,-245,23,38
1592,-20,392,946,-315,22,58
1593,-3,325,957,-380,23,73
1594,16,282,925,-440,21,81
1595,26,252,946,-497,22,93
1596,30,264,946,-551,22,111
1597,-3,273,977,-604,24,136
1598,-40,255,962,-658,24,170
1599,-65,216,959,-719,23,214
1600,-56,177,933,-768,21,254
1601,-30,157,958,-811,20,288
1602,-3,144,959,-851,22,314
1603,5,140,960,-882,25,344
1604,-15,154,955,-916,31,378
1605,-58,149,979,-955,34,414
1606,-86,127,968,-992,31,449
1607,-438,-177,1159,-1024,19,472
1608,-630,-1727,1882,-749,-200,294
1609,685,-442,1285,-174,-274,126
1610,208,-214,439,-115,-49,265
1611,-110,144,279,-26,-1,331
1612,213,249,445,-28,54,499
1613,158,-59,796,-74,108,544
1614,-304,-173,1427,-35,135,601
1615,-128,-109,1735,25,-34,392
1616,404,155,1269,-33,-98,318
1617,106,489,519,-65,-4,478
1618,192,513,686,-144,60,627
1619,-73,287,1072,-192,107,661
1620,-314,76,1617,-203,27,571
1621,229,313,1259,-277,-69,480
1622,216,247,953,-346,-15,519
1623,66,464,632,-354,52,599
1624,-101,298,1043,-403,78,600
1625,-201,69,1358,-428,19,467
1626,14,180,1224,-495,-33,406
1627,182,92,962,-547,-19,390
1628,23,110,838,-529,27,410
1629,-2,184,840,-508,52,417
1630,-118,-6,1166,-509,38,322
1631,-54,58,1056,-517,3,234
1632,37,3,975,-549,-4,189
1633,17,-79,973,-549,1,155
1634,-47,-31,938,-528,8,152
1635,12,-109,1004,-515,6,122
1636,-3,-105,976,-486,7,78
1637,30,-93,893,-463,18,59
1638,-3,-155,955,-444,23,20
1639,-55,-197,980,-423,16,-8
1640,-53,-224,988,-419,4,-23
1641,-21,-271,1025,-413,-8,-35
1642,-16,-272,914,-383,-4,-22
1643,34,-239,905,-352,0,-6
1644,11,-267,927,-318,5,-4
1645,-12,-281,962,-297,3,3
1646,-24,-302,1003,-284,-3,3
1647,-45,-334,1003,-269,-8,14
1648,-29,-283,947,-247,-9,29
1649,-13,-301,940,-215,-6,33
1650,10,-266,906,-177,-1,36
1651,27,-262,922,-145,3,32
1652,17,-293,951,-115,2,24
1653,-1,-286,948,-82,-1,23
1654,-5,-300,937,-40,-3,16
1655,-2,-247,916,11,0,6
1656,-2,-222,925,53,7,-8
1657,16,-231,926,89,9,-21
1658,17,-213,912,135,10,-24
1659,2,-203,928,169,9,-21
1660,-43,-220,960,201,6,-19
1661,-77,-193,956,233,-1,-20
1662,-55,-166,960,264,-8,-33
1663,-32,-138,945,293,-6,-53
1664,-18,-138,931,323,2,-76
1665,-11,-134,916,356,2,-96
1666,-22,-145,929,389,0,-104
1667,-30,-158,951,419,-8,-104
1668,-25,-144,975,446,-14,-101
1669,9,-139,987,465,-14,-99
1670,44,-114,976,485,-7,-103
1671,74,-117,942,507,6,-110
1672,72,-143,936,528,18,-112
1673,17,-161,935,559,20,-102
1674,-17,-170,950,594,12,-93
1675,-49,-162,956,622,6,-90
1676,-47,-133,963,646,2,-93
1677,-33,-112,955,668,4,-106
1678,-7,-100,950,689,7,-122
1679,-10,-63,950,704,11,-134
1680,-38,-48,977,712,8,-146
1681,-56,-43,1015,706,0,-153
1682,-70,-9,1040,701,-8,-156
1683,-49,76,1050,684,-13,-175
1684,139,539,1453,642,-5,-216
1685,156,1362,1880,399,15,-191
1686,-83,600,983,122,6,-188
1687,19,237,566,-18,4,-321
1688,-13,226,584,-164,35,-393
1689,154,45,639,-294,62,-382
1690,-146,-352,814,-428,92,-348
1691,-680,-1702,1080,-142,-16,-109
1692,58,176,1252,468,-233,140
1693,595,613,1682,412,-92,-81
1694,-13,463,814,254,106,-271
1695,115,49,746,105,118,-333
1696,-193,-2,715,31,93,-365
1697,-144,45,925,-26,29,-190
1698,-133,39,951,-75,-99,-65
1699,61,145,1252,-55,-130,-46
1700,218,288,942,-66,-68,-152
1701,206,7,1097,-112,21,-299
1702,-25,-10,793,-114,56,-314
1703,-77,-34,1027,-144,31,-214
1704,-48,-24,1032,-125,-26,-141
1705,-1,-25,1114,-91,-41,-106
1706,133,-1,929,-68,-19,-150
1707,27,-215,1070,-39,10,-216
1708,19,-63,928,23,10,-192
1709,-26,-53,1146,56,-3,-163
1710,-35,-29,1035,107,-13,-144
1711,-57,-16,1023,142,-10,-137
1712,47,-54,984,177,-6,-169
1713,-33,-29,1017,207,7,-195
1714,30,35,981,220,2,-184
1715,-53,40,1043,231,-5,-176
1716,-35,100,1004,251,-14,-145
1717,-56,101,1018,255,-13,-131
1718,-19,65,1012,266,-6,-130
1719,-31,102,953,271,3,-127
1720,15,102,994,261,4,-124
1721,-37,135,964,254,1,-111
1722,-13,184,984,235,-8,-74
1723,-46,192,984,218,-13,-53
1724,-35,201,1024,203,-15,-32
1725,-31,217,971,187,-10,-27
1726,4,195,985,164,-2,-39
1727,-6,237,922,138,6,-48
1728,-4,251,962,99,6,-42
1729,-24,293,941,59,-2,-20
1730,-22,319,989,16,-14,15
1731,3,330,987,-26,-17,33
1732,2,294,994,-66,-5,35
1733,18,297,926,-99,12,30
1734,-4,301,948,-135,25,23
1735,-19,325,925,-176,22,34
1736,-16,346,954,-235,10,64
1737,12,317,950,-297,-1,96
1738,13,293,984,-346,3,125
1739,21,278,977,-383,16,140
1740,7,247,992,-418,27,146
1741,12,259,937,-447,30,150
1742,-12,256,951,-489,28,150
1743,-18,265,944,-540,18,156
1744,-31,246,960,-596,8,172
1745,-566,-276,1381,-634,-32,163
1746,-54,-754,1897,-462,-231,25
1747,400,-101,1141,-340,-174,61
1748,-6,101,610,-250,-76,95
1749,-39,150,567,-153,-64,132
1750,173,189,720,-133,-35,202
1751,60,-29,872,-123,1,251
1752,99,176,785,-120,39,352
1753,133,100,961,-152,79,360
1754,226,-25,1144,-149,129,330
1755,-193,56,1348,-161,170,292
1756,-257,10,1431,-182,45,77
1757,78,151,941,-230,-33,-7
1758,187,220,759,-266,4,97
1759,-9,148,924,-278,36,195
1760,-155,182,1117,-293,11,239
1761,-14,102,1218,-331,-41,220
1762,145,152,1052,-363,-47,233
1763,120,190,898,-384,-7,290
1764,34,115,978,-402,23,314
1765,-101,69,1099,-412,23,294
1766,-18,3,1133,-438,-4,254
1767,68,0,1027,-460,-12,225
1768,93,-5,903,-454,9,232
1769,51,2,894,-447,25,238
1770,-25,-48,1031,-448,21,221
1771,-23,-94,1082,-460,-5,197
1772,31,-91,1089,-481,-19,191
1773,70,-91,990,-487,-13,205
1774,64,-38,931,-476,3,228
1775,43,-36,937,-462,18,226
1776,-6,-54,994,-455,21,200
1777,-23,-64,1014,-458,12,167
1778,-17,-117,1042,-470,1,138
1779,-8,-125,1012,-476,0,125
1780,3,-139,990,-473,5,122
1781,27,-146,959,-458,11,113
1782,22,-155,950,-441,18,101
1783,25,-165,946,-426,20,86
1784,-24,-191,974,-423,16,69
1785,-45,-238,998,-418,4,58
1786,-50,-266,1017,-414,-6,58
1787,-11,-269,977,-397,-8,62
1788,4,-246,922,-367,-1,73
1789,23,-243,898,-336,5,78
1790,12,-259,908,-305,6,79
1791,-10,-303,932,-273,1,79
1792,-19,-342,972,-230,-5,81
1793,15,-359,1015,-186,-1,90
1794,12,-367,981,-151,14,101
1795,-42,-348,863,-115,15,125
1796,-90,-282,719,-66,-2,155
1797,-116,-231,654,-7,-35,167
1798,-78,-331,800,71,-78,145
1799,129,-396,1108,188,-85,91
1800,141,-291,1088,276,-17,43
1801,-23,-123,878,335,28,7
1802,-19,-66,829,383,18,-55
1803,77,-74,923,416,15,-92
1804,54,-111,1016,439,28,-110
1805,0,-77,1002,457,32,-126
1806,-25,-87,989,467,32,-145
1807,-31,-96,966,489,34,-161
1808,-19,-98,956,509,36,-170
1809,23,-119,968,531,38,-191
1810,25,-139,955,554,47,-216
1811,16,-170,934,582,55,-233
1812,-32,-198,937,611,56,-246
1813,-82,-212,946,645,49,-247
1814,-102,-195,932,679,34,-242
1815,-75,-173,916,707,17,-241
1816,-26,-121,899,727,4,-236
1817,-24,-122,915,735,-4,-224
1818,-44,-122,939,744,-15,-200
1819,-85,-116,969,749,-33,-166
1820,-97,-74,990,752,-51,-133
1821,-85,-22,1016,742,-66,-110
1822,-36,17,1015,726,-73,-95
1823,22,49,1030,706,-73,-87
1824,118,25,1097,686,-63,-78
1825,148,30,1103,677,-30,-73
1826,357,679,1563,657,17,-87
1827,97,1377,1852,380,76,-95
1828,-201,353,865,144,47,-131
1829,-7,5,589,75,-22,-244
1830,22,5,650,-5,-42,-318
1831,207,-111,682,-106,-53,-332
1832,109,-30,743,-172,-49,-342
1833,178,24,728,-229,-42,-300
1834,417,-29,1333,-291,9,-290
1835,-61,-1023,1750,-24,136,-285
1836,-329,380,1263,401,100,-111
1837,-51,-59,927,375,22,-138
1838,-56,84,597,333,9,-180
1839,203,-10,722,227,20,-242
1840,-103,-87,824,153,18,-326
1841,-201,203,1033,106,-35,-242
1842,-80,263,1266,54,-103,-192
1843,26,199,1215,53,-86,-246
1844,49,185,777,52,-28,-315
1845,146,11,903,9,6,-383
1846,33,82,860,1,31,-384
1847,-15,132,1084,-26,32,-291
1848,-122,157,1138,-15,6,-208
1849,-168,70,1073,21,-21,-140
1850,-66,65,882,55,-30,-136
1851,-24,-40,1011,81,-19,-199
1852,0,31,963,116,0,-238
1853,-23,56,1106,125,7,-246
1854,-57,16,1034,152,-3,-232
1855,-91,62,982,169,-11,-199
1856,-36,53,985,182,-15,-197
1857,-85,44,1025,193,-9,-206
1858,-15,135,981,205,-13,-196
1859,-4,131,1005,195,-19,-196
1860,14,199,936,177,-18,-172
1861,-9,252,945,141,-7,-149
1862,-26,248,999,108,-1,-127
1863,-73,293,987,74,-2,-80
1864,-27,256,982,31,-9,-41
1865,-18,265,948,0,-12,-26
1866,37,315,922,-49,-7,-8
1867,15,320,929,-108,7,-12
1868,-8,339,961,-163,12,-6
1869,-23,332,963,-221,7,18
1870,7,301,998,-267,1,32
1871,12,262,963,-307,8,35
1872,32,233,954,-343,22,32
1873,-3,263,931,-380,31,25
1874,-34,282,948,-432,24,36
1875,-25,283,946,-498,4,57
1876,-18,239,972,-550,-4,71
1877,-5,231,978,-586,0,85
1878,-502,-435,1491,-600,-28,78
1879,-101,-652,1823,-388,-178,9
1880,211,-71,964,-273,-129,15
1881,6,59,547,-181,-56,20
1882,-5,70,576,-100,-30,76
1883,174,94,721,-70,11,154
1884,70,-54,884,-49,54,222
1885,128,71,1007,-47,104,317
1886,-305,-119,1513,-54,88,245
1887,-35,58,1218,-53,-29,100
1888,238,264,852,-109,-22,117
1889,155,130,857,-140,36,185
1890,-128,234,984,-151,60,260
1891,-109,102,1294,-195,3,240
1892,79,91,1214,-238,-42,212
1893,191,263,893,-275,-8,285
1894,93,204,900,-299,38,326
1895,-123,208,1024,-315,44,318
1896,-103,121,1170,-359,0,269
1897,60,49,1198,-413,-34,230
1898,118,107,1000,-447,-16,262
1899,100,105,933,-463,14,296
1900,20,76,990,-462,28,286
1901,0,61,1032,-468,21,256
1902,31,28,1063,-494,7,222
1903,25,-6,1042,-513,3,210
1904,12,-11,996,-530,5,218
1905,19,-24,1019,-536,5,218
1906,29,-38,985,-527,7,213
1907,49,-29,950,-515,17,209
1908,34,-45,967,-502,22,191
1909,-16,-59,966,-495,21,174
1910,-34,-85,1003,-497,9,153
1911,-44,-140,1025,-495,-4,132
1912,12,-130,984,-488,-5,130
1913,40,-141,959,-471,1,128
1914,48,-155,942,-446,11,125
1915,33,-130,940,-427,20,118
1916,-6,-186,973,-419,18,99
1917,-48,-210,1001,-414,8,89
1918,-40,-241,1006,-409,-3,89
1919,-8,-245,989,-393,-4,94
1920,31,-206,942,-367,3,105
1921,34,-217,937,-348,12,108
1922,28,-205,945,-326,16,104
1923,-21,-231,967,-317,16,109
1924,-46,-267,1003,-306,6,121
1925,-64,-258,1007,-290,0,142
1926,-33,-232,982,-272,-1,163
1927,-6,-204,957,-253,4,170
1928,22,-214,924,-232,11,178
1929,24,-231,901,-201,8,184
1930,0,-234,887,-162,0,196
1931,-32,-251,905,-119,-12,201
1932,-48,-247,929,-76,-25,198
1933,-22,-240,937,-36,-29,184
1934,14,-227,948,11,-22,156
1935,36,-223,936,57,-6,124
1936,48,-241,928,105,14,98
1937,9,-252,925,158,29,79
1938,-27,-267,942,218,35,66
1939,-33,-245,945,271,36,51
1940,-5,-226,953,311,42,34
1941,16,-203,952,342,50,18
1942,24,-192,951,373,61,4
1943,16,-183,933,401,66,-1
1944,-21,-157,926,428,64,0
1945,-65,-144,951,449,51,-5
1946,-95,-95,977,457,33,-13
1947,-86,-28,990,447,14,-36
1948,-62,30,1019,411,-4,-73
1949,-55,55,1020,358,-20,-107
1950,-54,36,1016,305,-41,-124
1951,-77,31,1006,258,-67,-117
1952,-98,35,1021,220,-100,-91
1953,-107,75,1017,181,-129,-64
1954,-99,97,1034,128,-154,-52
1955,30,15,1145,75,-172,-63
1956,253,-111,1263,96,-131,-137
1957,250,158,1099,150,-16,-274
1958,113,201,972,79,71,-356
1959,-64,-136,998,-15,84,-326
1960,-145,-276,1021,44,32,-210
1961,-77,49,981,110,-33,-122
1962,20,229,964,39,-53,-108
1963,118,-23,1072,-49,-34,-150
1964,136,-170,1105,-12,10,-223
1965,35,29,976,40,47,-253
1966,-50,6,938,-3,42,-222
1967,-112,-126,988,-23,9,-161
1968,-45,-83,1006,15,-26,-120
1969,39,64,1013,30,-34,-144
1970,70,89,988,-5,-14,-202
1971,74,-47,1013,-31,11,-258
1972,8,-85,986,6,26,-288
1973,-55,-4,932,49,22,-282
1974,-67,38,935,61,4,-269
1975,-53,-5,976,69,-7,-266
1976,10,38,989,97,-9,-283
1977,21,70,988,111,4,-314
1978,5,55,958,112,16,-337
1979,-31,-2,957,122,20,-336
1980,-69,-38,957,163,14,-316
1981,-96,49,959,205,3,-294
1982,-70,81,966,211,-2,-294
1983,-35,57,996,207,-2,-307
1984,-21,60,999,212,5,-326
1985,-34,37,987,221,11,-338
1986,-75,46,959,232,11,-331
1987,-101,23,968,248,5,-312
1988,-108,47,987,267,-5,-294
1989,-86,100,1000,275,-11,-288
1990,-39,130,1010,262,-12,-300
1991,-22,132,1032,238,-9,-312
1992,1,111,1043,214,-10,-316
1993,-10,113,1036,196,-14,-307
1994,-14,133,1030,180,-17,-287
1995,-6,157,1058,160,-22,-273
1996,10,184,1060,131,-19,-267
1997,51,218,1058,93,-15,-270
1998,70,203,1055,53,-2,-271
1999,52,159,1038,24,7,-253
2000,23,132,1011,10,8,-214
2001,-4,125,1012,5,1,-157
2002,-7,165,1029,-6,-10,-107
2003,20,171,1054,-29,-12,-81
2004,63,197,1045,-59,-5,-70
2005,53,198,1039,-88,11,-71
2006,28,172,1034,-115,17,-69
2007,0,150,1040,-140,10,-57
2008,11,126,1064,-158,-3,-35
2009,23,144,1058,-185,-7,-7
2010,22,171,1018,-201,7,14
2011,0,189,991,-214,22,23
2012,-42,193,998,-229,27,22
2013,-55,158,1040,-246,14,11
2014,-28,133,1053,-277,-5,12
2015,7,101,1054,-302,-16,32
2016,28,95,1022,-316,-14,59
2017,22,96,976,-313,0,86
2018,11,113,955,-303,15,99
2019,-15,104,983,-298,21,97
2020,-35,75,999,-297,14,85
2021,-18,49,1028,-305,1,78
2022,-6,19,1021,-319,-10,87
2023,18,14,1014,-318,-8,110
2024,10,21,958,-305,3,130
2025,7,35,931,-279,17,139
2026,-21,56,930,-252,24,128
2027,-55,37,978,-239,16,104
2028,-46,17,1016,-240,0,78
2029,-17,-3,1040,-246,-12,67
2030,12,-2,1013,-244,-14,70
2031,16,12,970,-249,-3,85
2032,20,17,936,-225,8,89
2033,6,40,955,-206,12,79
2034,-8,13,993,-202,7,61
2035,-5,-5,1036,-206,-2,45
2036,6,-18,1049,-226,-12,41
2037,25,-34,1027,-240,-12,50
2038,21,-15,973,-238,-5,60
2039,31,-10,945,-225,3,60
2040,18,2,956,-208,6,46
2041,5,-21,1011,-210,3,23
2042,0,-39,1060,-223,-4,-2
2043,14,-57,1060,-246,-9,-17
2044,31,-58,1024,-261,-7,-19
2045,30,-49,988,-266,-1,-20
2046,55,-56,962,-260,5,-26
2047,54,-70,985,-254,9,-32
2048,30,-85,1011,-257,10,-38
2049,19,-123,1048,-271,3,-39
2050,-1,-142,1038,-290,-1,-31
2051,7,-156,1003,-300,-3,-18
2052,14,-156,963,-294,-2,-6
2053,40,-170,945,-280,3,2
2054,48,-174,946,-260,5,3
2055,31,-208,986,-248,7,-4
2056,5,-236,999,-236,7,-9
2057,-27,-252,983,-224,6,-9
2058,-21,-263,945,-203,3,-15
2059,-23,-262,922,-168,4,-20
2060,14,-269,898,-127,4,-32
2061,14,-273,911,-84,7,-45
2062,9,-305,938,-45,9,-59
2063,-14,-325,958,-10,10,-65
2064,-38,-344,945,29,8,-63
2065,-36,-331,911,72,4,-57
2066,-15,-320,893,119,2,-53
2067,22,-332,889,169,-2,-48
2068,34,-326,896,217,-3,-43
2069,18,-349,923,262,-4,-32
2070,-5,-349,933,310,-7,-16
2071,-35,-330,913,357,-10,-4
2072,-16,-316,897,411,-15,-3
2073,6,-289,902,467,-11,-11
2074,44,-294,900,520,-1,-20
2075,42,-294,907,572,5,-16
2076,17,-291,909,622,8,-5
2077,-6,-301,920,667,6,4
2078,-41,-277,906,721,5,5
2079,-28,-256,914,771,2,-4
2080,-7,-242,917,814,0,-18
2081,27,-226,909,857,4,-24
2082,47,-215,907,895,5,-21
2083,27,-207,925,935,8,-9
2084,7,-191,946,968,6,2
2085,-27,-165,937,1005,7,4
2086,-15,-119,935,1036,8,-4
2087,-10,-102,948,1063,10,-13
2088,24,-76,943,1083,12,-19
2089,23,-61,934,1100,12,-17
2090,46,94,1052,1116,15,-10
2091,248,1768,1884,931,37,19
2092,-208,826,1163,344,74,83
2093,51,126,245,294,28,140
2094,5,-151,58,314,4,83
2095,239,-70,375,261,27,84
2096,-54,253,972,205,45,29
2097,-263,660,1868,99,1,71
2098,-140,364,994,18,-43,108
2099,27,-439,583,25,-68,26
2100,138,-56,426,38,-40,-71
2101,253,59,1360,-39,26,-159
2102,-9,-53,1411,-28,44,-212
2103,-107,-29,1003,35,1,-133
2104,93,-245,670,63,-42,-151
2105,27,-107,997,79,-23,-233
2106,42,44,1093,92,9,-248
2107,-113,-76,1298,112,5,-251
2108,-119,-77,902,190,-28,-224
2109,-27,-122,874,219,-41,-234
2110,101,15,1005,233,-28,-299
2111,-33,9,1086,242,2,-321
2112,3,73,1037,247,-2,-280
2113,-121,7,1014,259,-16,-244
2114,-41,30,932,276,-26,-192
2115,-39,112,1005,276,-20,-180
2116,-4,33,1034,282,-12,-181
2117,-20,157,957,289,-4,-158
2118,19,92,1018,278,-3,-133
2119,-61,110,955,270,1,-97
2120,-53,168,1002,255,1,-44
2121,-83,93,999,237,-3,-20
2122,-69,135,1003,236,-7,5
2123,-40,138,943,222,-8,8
2124,-10,135,985,206,-5,-3
2125,-24,215,933,187,-1,-2
2126,-18,186,1008,149,1,13
2127,-67,225,981,128,-1,36
2128,-53,205,1004,102,-6,63
2129,-34,202,963,85,-9,66
2130,-15,197,973,72,-5,59
2131,27,234,932,49,0,53
2132,7,255,988,19,4,56
2133,-1,274,959,-15,3,79
2134,-23,281,1001,-53,2,104
2135,-10,262,976,-83,-1,122
2136,-7,254,967,-115,3,132
2137,26,261,932,-146,4,131
2138,38,277,943,-181,5,127
2139,53,337,939,-230,5,138
2140,46,349,971,-291,5,152
2141,31,346,963,-349,8,170
2142,33,320,961,-404,12,187
2143,44,294,947,-454,11,196
2144,54,284,933,-501,12,201
2145,84,313,938,-554,12,207
2146,73,334,935,-617,13,208
2147,64,344,946,-687,18,218
2148,32,336,954,-761,19,227
2149,25,306,960,-828,16,236
2150,14,306,943,-891,4,248
2151,28,246,987,-956,-13,253
2152,-168,-1493,1847,-874,-52,204
2153,61,-232,1491,-314,-112,156
2154,-209,79,555,-343,-90,234
2155,-472,466,302,-362,-239,237
2156,373,-125,1092,-471,-324,381
2157,728,-464,1477,-419,-173,454
2158,-251,213,886,-275,15,538
2159,-146,451,542,-324,-66,476
2160,280,85,1302,-448,-112,444
2161,309,32,1069,-456,-16,509
2162,150,181,1142,-454,43,454
2163,116,360,940,-483,53,421
2164,113,249,1042,-600,64,468
2165,364,234,1095,-629,90,427
2166,222,237,1070,-659,166,414
2167,198,413,882,-728,208,430
2168,227,246,1075,-803,240,399
2169,-175,100,1292,-836,287,366
2170,-719,132,1569,-876,176,232
2171,-379,202,1055,-951,22,138
2172,-130,379,637,-992,-30,124
2173,56,307,716,-1033,-50,199
2174,53,-13,1222,-1086,-25,271
2175,-146,-41,1432,-1092,16,265
2176,-256,48,988,-1102,20,176
2177,-47,104,766,-1112,-6,131
2178,-14,-15,802,-1118,-7,171
2179,-2,-154,1059,-1122,-14,212
2180,5,-192,1094,-1110,-17,192
2181,-21,-208,945,-1080,-2,158
2182,-52,-156,793,-1038,4,125
2183,-85,-254,876,-998,1,120
2184,-84,-298,940,-955,-10,113
2185,-44,-310,972,-909,-18,95
2186,8,-313,848,-852,-15,75
2187,29,-279,822,-786,-7,61
2188,12,-333,844,-720,-3,41
2189,-28,-370,950,-654,3,16
2190,-48,-368,924,-584,4,-25
2191,-40,-372,836,-498,9,-74
2192,-5,-343,771,-393,17,-128
2193,0,-382,771,-283,24,-183
2194,10,-388,821,-175,29,-242
2195,-13,-436,873,-82,32,-298
2196,-34,-460,895,7,33,-343
2197,-54,-447,853,98,33,-377
2198,-36,-464,801,196,29,-407
2199,-2,-430,787,298,23,-428
2200,23,-451,818,390,21,-438
2201,33,-447,871,464,18,-439
2202,2,-451,935,518,19,-429
2203,-42,-463,959,562,18,-411
2204,-73,-417,932,602,15,-390
2205,-69,-399,895,646,10,-365
2206,-37,-344,898,684,3,-339
2207,-9,-325,935,713,3,-311
2208,6,-319,977,729,4,-282
2209,-25,-272,998,734,6,-250
2210,-52,-258,1016,730,1,-221
2211,-66,-223,997,728,-4,-194
2212,-28,-185,975,732,-5,-170
2213,35,-152,961,741,-3,-153
2214,61,-140,965,747,6,-138
2215,75,-140,976,753,14,-123
2216,45,-148,994,758,19,-112
2217,10,-151,998,767,18,-101
2218,-21,-141,962,776,15,-91
2219,-8,-128,947,794,13,-91
2220,9,-116,941,813,13,-98
2221,14,-132,936,831,16,-109
2222,1,-146,923,863,18,-119
2223,-36,-154,924,895,18,-127
2224,-69,-164,941,928,13,-140
2225,-87,-149,942,965,8,-153
2226,-65,-131,927,991,4,-172
2227,-40,-124,921,1020,2,-194
2228,-26,-117,916,1054,3,-209
2229,-22,-119,921,1080,1,-219
2230,-35,-103,938,1109,-2,-219
2231,-48,-102,976,1127,-8,-217
2232,-43,-60,978,1145,-13,-213
2233,-15,-12,967,1152,-13,-217
2234,114,113,1058,1158,-8,-225
2235,481,1724,1884,959,26,-146
2236,-55,792,1235,315,31,49
2237,-123,25,177,351,19,-20
2238,-71,-445,38,461,-3,-177
2239,115,-44,709,498,29,-202
2240,28,487,1809,407,19,-174
2241,-203,-9,1505,323,-29,-89
2242,105,-149,529,428,-69,-128
2243,180,-484,791,474,-32,-286
2244,231,-4,981,475,25,-313
2245,25,-96,1405,468,36,-303
2246,-57,-270,1081,550,-2,-254
2247,-74,-187,882,651,-16,-233
2248,68,-304,977,700,-12,-260
2249,-94,-101,1069,737,1,-254
2250,-37,-125,1024,769,-11,-224
2251,-77,-125,1048,811,-24,-229
2252,-38,-49,976,845,-25,-195
2253,-61,-92,981,859,-19,-178
2254,-23,-29,1053,880,-20,-162
2255,-35,-4,968,904,-23,-134
2256,61,25,1002,907,-24,-116
2257,18,111,940,910,-14,-106
2258,26,152,972,882,-4,-75
2259,-24,248,968,851,-1,-45
2260,-49,210,1001,816,-1,-5
2261,-44,278,913,783,-3,25
2262,-8,263,967,739,-5,31
2263,4,312,902,698,0,34
2264,29,373,963,633,4,42
2265,15,371,924,565,8,55
2266,-32,414,961,490,12,87
2267,-37,414,940,415,13,120
2268,-69,372,954,340,11,144
2269,-18,422,902,271,9,159
2270,-23,394,928,192,13,159
2271,3,439,910,113,14,163
2272,-26,447,924,28,17,177
2273,-26,432,950,-55,16,204
2274,-60,441,967,-131,17,233
2275,-28,390,955,-208,17,253
2276,-17,388,921,-277,19,256
2277,20,381,906,-351,28,257
2278,14,380,897,-430,34,262
2279,1,405,923,-508,33,291
2280,-29,404,954,-582,31,335
2281,-31,388,1002,-649,25,375
2282,-28,352,952,-700,27,396
2283,19,317,929,-753,34,396
2284,36,295,897,-805,44,387
2285,36,284,906,-862,52,395
2286,22,303,932,-919,51,425
2287,-3,295,995,-968,41,469
2288,5,294,1003,-1008,32,509
2289,6,248,967,-1045,34,522
2290,39,230,908,-1083,38,515
2291,51,241,900,-1128,47,504
2292,60,245,927,-1180,50,505
2293,38,287,949,-1234,50,525
2294,18,270,985,-1287,49,562
2295,-1,243,967,-1332,46,596
2296,2,206,929,-1374,45,619
2297,31,183,904,-1413,46,620
2298,44,189,921,-1454,51,616
2299,-742,-670,1375,-1487,25,602
2300,-160,-1428,1935,-682,-320,330
2301,451,334,991,-137,-232,242
2302,100,94,445,-222,-118,234
2303,-243,395,360,-281,-112,336
2304,377,612,503,-426,-118,425
2305,-14,-77,865,-555,-104,403
2306,571,275,1001,-613,-75,560
2307,896,-749,1709,-499,84,381
2308,310,184,1127,-236,282,257
2309,-72,666,479,-334,334,353
2310,-391,77,1066,-513,302,360
2311,-818,35,1666,-540,79,214
2312,138,-69,1446,-649,-94,173
2313,234,262,694,-690,-35,207
2314,0,360,618,-702,18,340
2315,-87,90,1019,-767,1,368
2316,-57,-174,1623,-736,-26,250
2317,-33,122,802,-708,20,254
2318,-26,221,827,-742,31,252
2319,-74,20,850,-751,9,238
2320,-67,-67,1145,-773,-10,240
2321,73,-152,1150,-762,-17,173
2322,-96,-137,883,-729,20,151
2323,-48,35,761,-697,14,129
2324,-78,-235,967,-669,2,85
2325,9,-153,978,-626,-4,70
2326,34,-198,982,-598,2,43
2327,37,-230,894,-552,14,14
2328,-57,-148,865,-505,25,-4
2329,-68,-287,951,-465,18,-38
2330,-98,-231,952,-411,9,-69
2331,-38,-223,897,-361,8,-86
2332,-15,-250,868,-306,12,-114
2333,-4,-192,872,-247,15,-129
2334,-28,-271,900,-206,11,-149
2335,-32,-278,975,-165,3,-165
2336,-59,-305,924,-123,-1,-171
2337,-29,-303,924,-76,-2,-174
2338,-32,-279,872,-15,4,-187
2339,1,-309,878,41,3,-201
2340,8,-287,881,98,3,-222
2341,-13,-345,930,145,2,-232
2342,-28,-344,939,188,0,-235
2343,-67,-346,955,234,0,-231
2344,-58,-323,897,282,-5,-226
2345,-38,-274,910,330,-6,-224
2346,2,-280,906,372,-6,-226
2347,16,-248,942,404,-3,-222
2348,15,-262,976,424,-4,-216
2349,-26,-264,994,443,-4,-204
2350,-53,-212,953,463,-8,-187
2351,-47,-198,954,484,-13,-178
2352,-20,-150,954,507,-17,-175
2353,22,-152,964,521,-17,-175
2354,54,-137,954,539,-12,-171
2355,26,-149,960,555,-7,-160
2356,8,-154,966,581,-5,-148
2357,-28,-137,967,609,-4,-145
2358,-16,-114,957,632,-4,-150
2359,-8,-114,961,655,-2,-166
2360,16,-110,931,680,4,-184
2361,21,-117,921,708,6,-200
2362,-6,-134,935,740,10,-211
2363,-43,-149,959,768,6,-215
2364,-69,-134,944,801,0,-226
2365,-56,-109,944,829,-5,-242
2366,-41,-93,942,853,-6,-264
2367,-7,-82,936,880,-6,-291
2368,39,-65,946,908,-9,-314
2369,45,-69,983,915,-6,-317
2370,26,-54,1010,919,-1,-300
2371,339,678,1501,896,12,-272
2372,154,1634,1883,491,40,-147
2373,-373,349,781,184,1,-214
2374,-231,-93,323,236,-100,-482
2375,-125,-96,481,239,-171,-616
2376,456,-22,1025,179,-191,-647
2377,500,308,1341,111,-67,-732
2378,318,-39,1047,81,78,-774
2379,100,-106,806,92,99,-726
2380,189,-202,943,139,93,-640
2381,181,-123,1075,193,122,-581
2382,-103,-27,1396,256,119,-497
2383,-331,-204,1077,353,34,-355
2384,-210,-227,899,430,-43,-265
2385,-136,-270,838,474,-69,-275
2386,-13,-190,1125,490,-43,-319
2387,-74,-136,1128,520,-3,-371
2388,-117,-312,1084,578,-13,-375
2389,-32,-155,907,646,-45,-348
2390,41,-158,1029,669,-50,-342
2391,46,-54,988,692,-26,-343
2392,-29,-19,1081,711,-4,-323
2393,-35,-63,1026,745,-12,-288
2394,-54,8,1017,776,-25,-236
2395,16,27,925,788,-31,-206
2396,30,101,964,780,-26,-208
2397,48,178,949,767,-10,-206
2398,-1,183,1018,743,4,-198
2399,-48,209,1004,729,6,-170
2400,-75,187,989,714,-4,-131
2401,-33,210,949,690,-18,-110
2402,-19,222,924,662,-21,-114
2403,38,270,922,623,-19,-129
2404,20,317,955,575,-10,-148
2405,5,324,984,531,0,-147
2406,-53,347,978,483,0,-129
2407,-37,321,973,441,-9,-106
2408,-28,330,927,405,-13,-95
2409,12,337,925,358,-12,-95
2410,22,369,909,310,-7,-100
2411,9,406,938,248,1,-88
2412,-27,422,947,188,6,-68
2413,-70,412,993,128,4,-38
2414,-70,396,958,74,-3,-7
2415,-45,356,945,21,-8,16
2416,-6,349,902,-30,-12,29
2417,36,362,921,-94,-10,40
2418,48,393,927,-163,-1,57
2419,37,398,987,-233,11,87
2420,13,394,976,-305,22,122
2421,14,348,975,-379,27,161
2422,36,317,922,-451,30,205
2423,48,286,915,-521,39,245
2424,59,316,919,-588,48,281
2425,4,350,945,-666,55,322
2426,-10,358,953,-757,52,370
2427,-42,331,955,-851,44,417
2428,-13,304,928,-939,36,464
2429,15,305,909,-1023,31,494
2430,55,309,915,-1108,28,504
2431,78,345,904,-1201,33,509
2432,80,369,907,-1299,45,516
2433,61,363,922,-1394,61,532
2434,37,362,951,-1480,78,552
2435,33,349,968,-1557,95,569
2436,32,333,986,-1619,114,572
2437,31,317,982,-1668,131,563
2438,23,290,966,-1714,148,548
2439,-1571,-1438,1671,-1615,2,517
2440,-11,-681,1817,-636,-635,489
2441,269,197,1111,-448,-469,470
2442,-125,458,532,-456,-390,323
2443,-38,352,608,-554,-359,343
2444,261,359,684,-676,-364,253
2445,17,-26,925,-732,-325,259
2446,469,223,735,-838,-308,390
2447,753,-701,1684,-807,-169,313
2448,194,-15,871,-551,23,274
2449,82,365,766,-605,69,301
2450,147,3,810,-669,68,267
2451,183,98,930,-702,104,330
2452,547,-125,1133,-706,138,287
2453,266,-119,1132,-669,212,239
2454,176,243,802,-697,254,305
2455,162,-7,979,-747,276,264
2456,183,47,1010,-741,312,242
2457,183,86,1010,-758,350,241
2458,161,-35,1138,-775,380,195
2459,-716,-184,1371,-771,338,147
2460,-632,-156,1273,-750,110,75
2461,-176,100,906,-756,1,64
2462,-45,176,675,-786,7,139
2463,-112,190,744,-843,16,205
2464,-260,-114,1114,-886,-17,182
2465,-158,-194,1209,-876,-65,165
2466,50,-104,1097,-868,-47,152
2467,19,-118,900,-850,1,115
2468,-73,-60,816,-838,25,121
2469,-115,-252,934,-826,4,101
2470,-82,-320,978,-763,-24,83
2471,-4,-192,895,-713,-23,69
2472,9,-282,887,-678,-8,33
2473,-41,-260,838,-619,3,14
2474,-74,-316,895,-569,-4,-4
2475,-83,-373,945,-508,-18,-29
2476,-82,-303,910,-436,-19,-51
2477,-38,-321,866,-375,-14,-89
2478,-14,-305,854,-296,-4,-130
2479,4,-298,834,-209,6,-167
2480,13,-333,865,-132,11,-206
2481,-17,-332,885,-55,15,-233
2482,-35,-365,920,9,12,-250
2483,-31,-369,912,74,9,-263
2484,-21,-369,869,147,11,-265
2485,19,-346,836,226,11,-268
2486,23,-347,850,300,13,-269
2487,29,-351,868,365,13,-267
2488,1,-355,942,412,10,-265
2489,-23,-368,964,450,5,-260
2490,-36,-352,950,489,2,-250
2491,-19,-326,890,539,4,-240
2492,-1,-283,868,592,8,-234
2493,14,-262,887,641,7,-232
2494,11,-267,942,676,4,-234
2495,-1,-241,982,696,3,-229
2496,-11,-246,1007,707,-1,-221
2497,-13,-216,978,722,-2,-208
2498,8,-180,942,743,-1,-192
2499,45,-146,925,768,5,-182
2500,54,-123,959,787,13,-173
2501,55,-123,991,792,20,-167
2502,18,-123,1025,784,21,-160
2503,-14,-110,1023,777,19,-152
2504,-35,-91,1007,770,14,-144
2505,-30,-75,975,767,11,-140
2506,0,-53,958,771,10,-142
2507,14,-59,966,774,10,-147
2508,9,-83,982,780,12,-148
2509,-13,-88,973,788,11,-142
2510,-40,-98,975,801,9,-137
2511,-54,-73,974,817,3,-138
2512,-32,-64,961,828,2,-150
2513,1,-61,953,845,4,-161
2514,7,-44,945,861,9,-171
2515,2,-69,962,873,9,-176
2516,-19,-52,968,887,5,-171
2517,-38,-32,997,895,1,-165
2518,-34,0,1020,895,-4,-161
2519,-14,35,1018,890,-4,-161
2520,30,72,987,878,-1,-164
2521,28,63,982,868,7,-168
2522,341,1229,1730,796,26,-133
2523,-26,1123,1662,325,39,-18
2524,-218,76,584,216,18,-63
2525,-70,-316,413,261,-16,-218
2526,-20,-162,620,276,-1,-276
2527,160,-382,601,266,6,-313
2528,-20,-37,1136,278,30,-325
2529,3,338,1703,282,-9,-221
2530,-32,43,1363,301,-57,-124
2531,88,-106,697,385,-55,-148
2532,40,-263,635,411,-6,-226
2533,170,-17,998,414,31,-268
2534,-75,34,1299,421,30,-248
2535,-7,64,1155,457,-23,-157
2536,-11,1,908,509,-44,-163
2537,52,-45,862,532,-23,-204
2538,8,162,944,516,0,-226
2539,-9,59,1159,496,-1,-213
2540,-67,128,991,512,-19,-173
2541,37,113,985,508,-26,-154
2542,37,101,892,499,-13,-170
2543,43,195,953,466,5,-156
2544,15,198,973,433,13,-148
2545,-46,220,1064,401,10,-103
2546,-53,240,947,376,0,-41
2547,-53,162,977,347,-3,-14
2548,-22,234,906,328,-1,-5
2549,-2,227,972,288,3,-2
2550,18,269,968,250,3,1
2551,-10,293,979,202,4,18
2552,-10,286,947,152,6,38
2553,-51,297,986,106,6,56
2554,-27,273,937,59,3,77
2555,-5,289,950,12,2,90
2556,33,309,938,-42,5,108
2557,21,335,936,-111,11,135
2558,21,380,950,-188,17,174
2559,-37,369,947,-275,24,222
2560,-28,374,956,-362,25,277
2561,-42,336,931,-443,28,318
2562,4,329,923,-524,30,356
2563,17,359,898,-608,36,388
2564,20,342,917,-701,39,419
2565,-5,387,900,-800,43,460
2566,-26,356,934,-899,44,508
2567,-41,349,942,-991,42,552
2568,-34,335,963,-1074,42,582
2569,10,321,936,-1154,47,586
2570,40,333,929,-1231,59,573
2571,41,309,902,-1308,72,563
2572,-230,106,1040,-1382,83,567
2573,-1399,-1753,1834,-1128,-177,499
2574,658,-142,1625,-199,-517,316
2575,228,113,864,-212,-240,339
2576,-216,544,477,-262,-208,296
2577,147,448,576,-406,-190,385
2578,153,279,726,-546,-189,321
2579,93,242,855,-638,-169,429
2580,620,-334,1139,-711,-124,478
2581,558,-493,1653,-401,27,224
2582,95,291,704,-243,135,220
2583,103,429,752,-409,151,347
2584,70,204,730,-513,147,417
2585,351,-12,1071,-569,165,472
2586,517,-160,1288,-480,219,352
2587,178,50,1089,-447,287,337
2588,-279,301,946,-528,292,390
2589,-742,-62,1559,-596,129,246
2590,-231,209,1212,-694,-36,209
2591,-31,179,882,-775,-37,253
2592,-35,214,749,-763,-21,301
2593,-71,198,938,-777,-18,344
2594,71,-110,1249,-754,-22,277
2595,-19,114,1033,-731,13,279
2596,-36,162,895,-762,14,297
2597,9,49,975,-793,-8,275
2598,37,60,1041,-822,-10,289
2599,60,-71,1110,-840,-4,250
2600,-14,-12,1012,-843,16,218
2601,-128,-3,910,-848,26,198
2602,-116,-71,992,-851,8,160
2603,-124,-70,1008,-846,-2,138
2604,-48,-105,972,-841,-10,117
2605,-12,-86,929,-827,-9,100
2606,-27,-123,926,-813,-4,98
2607,-26,-174,969,-796,-12,88
2608,-31,-197,992,-772,-15,83
2609,-20,-193,935,-744,-14,80
2610,9,-181,922,-713,-12,74
2611,32,-203,904,-681,-7,69
2612,43,-213,930,-651,-2,68
2613,28,-240,956,-628,-1,63
2614,-10,-277,975,-599,1,58
2615,-48,-255,939,-562,3,45
2616,-54,-255,925,-524,3,27
2617,-51,-238,902,-482,4,1
2618,-24,-266,890,-429,3,-37
2619,17,-261,875,-362,10,-86
2620,-10,-280,892,-298,24,-132
2621,-54,-307,909,-236,30,-172
2622,-88,-316,919,-178,26,-206
2623,-51,-318,917,-121,21,-236
2624,-35,-320,891,-66,22,-257
2625,2,-317,861,-11,23,-270
2626,8,-343,881,44,23,-283
2627,-11,-360,910,96,21,-284
2628,-39,-387,938,137,14,-278
2629,-66,-383,933,190,7,-264
2630,-54,-348,914,233,-1,-248
2631,-22,-332,907,276,-7,-234
2632,3,-324,904,318,-6,-222
2633,40,-310,924,354,-7,-205
2634,24,-309,950,384,-10,-183
2635,5,-294,963,410,-15,-159
2636,-14,-264,964,434,-18,-144
2637,16,-226,963,463,-17,-141
2638,40,-190,937,493,-10,-153
2639,73,-186,925,523,4,-168
2640,77,-191,925,560,20,-178
2641,33,-209,936,594,26,-178
2642,5,-221,945,631,25,-176
2643,-31,-217,956,665,23,-173
2644,-19,-191,944,694,19,-179
2645,-3,-190,938,725,20,-193
2646,15,-192,918,753,23,-204
2647,11,-186,916,784,26,-209
2648,-19,-203,935,815,23,-205
2649,-48,-209,949,843,17,-195
2650,-69,-186,959,872,10,-187
2651,-52,-161,955,894,5,-184
2652,-23,-143,944,913,0,-187
2653,5,-139,933,936,2,-188
2654,23,-119,931,952,4,-182
2655,-7,-128,947,970,3,-169
2656,-26,-121,973,989,-2,-153
2657,-43,-94,985,1001,-7,-144
2658,-13,-55,985,1010,-11,-144
2659,5,-24,963,1015,-10,-150
2660,35,-30,966,1019,-7,-159
2661,38,-9,967,1024,-1,-161
2662,11,-13,983,1025,2,-158
2663,-17,-1,1011,1027,-2,-152
2664,-56,45,1020,1022,-6,-151
2665,-23,121,1057,999,-13,-171
2666,22,169,1099,950,-11,-207
2667,185,327,1287,888,3,-244
2668,447,1678,1928,694,72,-262
2669,-248,885,1389,321,63,-234
2670,-269,289,541,249,-55,-327
2671,-227,-16,462,185,-148,-451
2672,-46,7,652,86,-205,-448
2673,37,6,715,-2,-249,-447
2674,340,182,1262,-60,-229,-451
2675,484,479,1220,-109,-83,-543
2676,225,15,1031,-143,47,-612
2677,78,49,661,-131,72,-509
2678,98,0,852,-147,64,-360
2679,227,62,1004,-137,84,-290
2680,179,205,1140,-111,161,-292
2681,135,35,982,-92,224,-330
2682,-147,97,1048,-53,242,-338
2683,-483,114,1232,-29,151,-217
2684,-468,27,1142,2,-18,-48
2685,-209,-90,836,48,-103,-25
2686,-38,-124,862,60,-107,-125
2687,191,23,1083,60,-51,-265
2688,84,-67,1093,67,29,-382
2689,17,-8,1003,80,38,-361
2690,-64,13,967,91,2,-270
2691,-24,50,1006,107,-24,-184
2692,-39,186,996,111,-18,-128
2693,-20,119,1044,109,-5,-98
2694,-71,198,961,113,0,-62
2695,-22,180,981,102,-10,-17
2696,0,219,953,84,-15,15
2697,14,289,967,42,-7,49
2698,3,269,944,-15,0,73
2699,-30,292,987,-72,3,99
2700,-33,279,942,-129,1,125
2701,-30,270,984,-184,-10,149
2702,-32,294,934,-236,-20,170
2703,-11,282,949,-288,-31,197
2704,-1,323,920,-341,-35,222
2705,-18,295,968,-426,-37,252
2706,134,-162,1316,-459,-19,258
2707,5,-551,1523,-235,14,112
2708,-9,56,1024,-84,8,111
2709,-192,184,740,-144,-37,236
2710,-138,123,812,-202,-106,353
2711,217,-73,1127,-210,-137,390
2712,132,-107,1227,-140,-92,378
2713,-99,237,931,-142,-80,418
2714,-60,176,1004,-212,-120,423
2715,38,82,1092,-238,-133,413
2716,89,179,1094,-251,-126,409
2717,119,181,1067,-284,-117,393
2718,43,243,975,-335,-107,413
2719,114,177,1016,-373,-95,423
2720,110,129,1058,-377,-62,416
2721,58,219,996,-394,-33,439
2722,98,198,1022,-433,-30,440
2723,168,164,1067,-474,-17,441
2724,183,176,1029,-509,10,446
2725,188,151,1012,-540,40,443
2726,156,152,994,-568,76,446
2727,143,107,1005,-590,111,447
2728,133,113,1005,-601,140,438
2729,138,136,1014,-625,165,433
2730,149,132,1003,-659,189,421
2731,181,137,998,-693,219,410
2732,174,132,975,-718,260,396
2733,-251,19,1227,-742,288,363
2734,-707,-34,1492,-757,170,232
2735,-390,63,1106,-800,32,143
2736,-60,175,743,-815,3,157
2737,-32,240,687,-810,13,244
2738,-143,202,845,-835,7,288
2739,-240,3,1225,-870,-45,240
2740,-54,-82,1279,-905,-68,224
2741,-5,-32,1074,-914,-27,227
2742,-44,10,815,-891,2,231
2743,-47,57,770,-866,-1,249
2744,-17,-70,981,-862,-19,233
2745,-6,-150,1077,-863,-31,220
2746,10,-123,1048,-865,-27,218
2747,-31,-164,983,-859,-19,198
2748,-86,-113,889,-831,-10,194
2749,-62,-143,917,-806,-14,176
2750,-24,-187,983,-777,-18,147
2751,-15,-163,928,-742,-10,133
2752,12,-190,923,-716,-2,110
2753,-33,-196,926,-685,3,89
2754,-61,-218,964,-663,-1,74
2755,-56,-249,983,-644,-10,56
2756,-25,-252,944,-608,-11,47
2757,25,-232,888,-573,-9,44
2758,34,-246,895,-529,-1,39
2759,27,-249,913,-485,5,32
2760,4,-260,968,-462,5,23
2761,-15,-293,1007,-445,-1,14
2762,-21,-280,974,-425,-3,13
2763,-4,-272,928,-399,-3,8
2764,12,-260,890,-360,2,2
2765,16,-263,894,-320,7,-2
2766,22,-290,931,-285,8,-11
2767,-13,-311,966,-257,7,-14
2768,-29,-321,967,-229,2,-16
2769,-47,-319,947,-196,-1,-16
2770,-33,-299,903,-158,-3,-21
2771,7,-292,902,-115,-4,-28
2772,20,-309,914,-74,-2,-34
2773,18,-323,919,-36,1,-38
2774,-10,-327,922,10,3,-40
2775,-51,-326,930,58,2,-48
2776,-68,-299,919,108,-2,-68
2777,-54,-279,912,159,-2,-102
2778,-12,-251,910,206,2,-137
2779,-4,-258,907,250,9,-168
2780,-5,-270,917,295,13,-186
2781,-23,-277,924,340,13,-197
2782,-49,-279,944,379,8,-198
2783,-47,-263,946,413,2,-202
2784,-27,-265,942,446,0,-209
2785,12,-232,921,479,0,-214
2786,27,-245,925,508,5,-218
2787,23,-272,929,541,8,-211
2788,2,-265,934,578,10,-197
2789,-15,-280,948,615,7,-181
2790,-27,-260,949,647,4,-170
2791,-5,-244,942,676,2,-167
2792,39,-230,924,703,1,-168
2793,47,-221,918,733,8,-168
2794,32,-235,921,766,12,-165
2795,-2,-229,925,804,12,-160
2796,-31,-219,942,845,11,-161
2797,-42,-187,942,881,6,-170
2798,-24,-148,941,912,7,-194
2799,8,-125,933,938,12,-218
2800,22,-127,941,958,19,-233
2801,18,-135,940,982,23,-238
2802,-10,-137,948,1004,22,-231
2803,-37,-121,955,1029,18,-226
2804,-47,-103,977,1044,12,-225
2805,-36,-66,969,1056,8,-235
2806,0,-28,972,1059,7,-251
2807,-3,24,994,1048,9,-277
2808,6,31,1059,1014,7,-313
2809,5,-1,1074,970,8,-331
2810,-42,23,1059,941,9,-333
2811,-78,100,1034,914,4,-342
2812,-75,106,1041,872,0,-363
2813,-48,103,1046,839,0,-394
2814,-68,96,1024,818,8,-422
2815,-73,104,992,800,9,-444
2816,-91,67,995,781,1,-448
2817,-96,66,1006,781,-9,-436
2818,-92,126,1021,776,-20,-429
2819,-50,159,1049,751,-25,-442
2820,2,198,1065,714,-23,-473
2821,354,565,1473,662,-7,-503
2822,445,1440,1925,408,55,-442
2823,-110,839,1139,63,33,-314
2824,-332,371,516,-86,-35,-358
2825,-320,231,544,-204,-109,-362
2826,-89,67,762,-341,-163,-300
2827,481,-741,1473,-292,-117,-369
2828,169,-330,1088,154,92,-602
2829,-27,138,785,238,162,-572
2830,-123,168,781,116,129,-394
2831,-200,111,1101,-6,100,-187
2832,-169,81,1398,20,-39,-11
2833,81,251,1193,66,-82,20
2834,-5,140,724,10,-16,-51
2835,-43,-16,769,-54,14,-104
2836,54,33,756,-92,39,-118
2837,-201,-246,1194,-129,55,-89
2838,-44,-87,1347,63,-68,-5
2839,225,298,1234,126,-64,6
2840,27,63,750,75,30,-37
2841,-64,-30,729,53,78,-53
2842,-42,175,835,40,98,-49
2843,-231,194,1213,-10,32,46
2844,43,350,1095,-45,-82,203
2845,140,176,1015,-62,-54,178
2846,98,122,867,-48,39,99
2847,-124,205,950,-63,89,74
2848,-231,47,1038,-96,22,99
2849,-2,89,1020,-71,-77,117
2850,267,78,1007,-55,-51,75
2851,29,56,998,-42,23,23
2852,-61,69,1009,-22,16,7
2853,42,40,1026,-12,-18,-8
2854,128,57,1011,-6,-1,6
2855,1,79,953,0,37,13
2856,-40,95,1028,-2,22,-4
2857,45,99,961,-9,-8,-9
2858,70,74,977,-29,-1,12
2859,-21,73,1005,-39,-4,20
2860,34,16,1030,-46,-23,26
2861,94,-24,1002,-35,-14,23
2862,83,-33,1020,-4,14,16
2863,38,27,982,19,32,8
2864,26,62,1015,15,28,-3
2865,31,57,954,-2,15,8
2866,4,56,991,-23,6,33
2867,0,14,1011,-36,-11,42
2868,52,-40,1010,-34,-14,52
2869,92,-7,1000,-13,-1,60
2870,52,22,1014,2,16,62
2871,28,80,983,1,20,61
2872,-10,65,976,-20,10,58
2873,-15,17,978,-36,-7,58
2874,-2,1,1000,-38,-19,69
2875,36,-30,1014,-34,-24,83
2876,73,21,999,-20,-16,102
2877,61,60,994,-13,-2,118
2878,14,74,1000,-18,2,118
2879,-31,74,991,-36,-7,115
2880,-44,9,1035,-54,-21,110
2881,-42,-20,1040,-57,-32,109
2882,-17,-43,971,-43,-37,117
2883,56,-7,953,-17,-33,136
2884,75,67,984,-1,-16,164
2885,39,90,1027,-18,-2,177
2886,-37,66,1031,-42,-3,162
2887,-70,-15,1027,-56,-19,139
2888,-51,-62,998,-51,-37,129
2889,-51,-78,990,-30,-48,137
2890,-69,-17,1002,-3,-64,145
2891,-74,48,1038,7,-82,142
2892,-89,68,1020,-7,-102,134
2893,-116,57,1022,-28,-121,131
2894,-143,0,1034,-43,-144,133
2895,-199,-42,1047,-37,-174,139
2896,-235,-57,1028,-20,-219,143
2897,-228,-19,1051,-1,-273,140
2898,-221,37,1032,9,-322,134
2899,-199,57,1042,0,-367,127
2900,-188,70,1019,-17,-399,130
2901,-194,28,1042,-31,-427,139
2902,-211,-7,1037,-35,-454,154
2903,-221,-29,1036,-26,-494,161
2904,-182,-22,1034,-18,-544,162
2905,-155,-4,1028,-9,-585,159
2906,-110,12,1015,-6,-618,157
2907,-97,29,997,-13,-637,159
2908,-86,17,1008,-22,-647,164
2909,-100,10,1016,-23,-658,164
2910,-81,-6,1018,-24,-675,158
2911,-49,-7,1011,-18,-697,149
2912,-6,2,998,-15,-714,144
2913,40,9,982,-17,-722,142
2914,59,15,958,-23,-708,146
2915,75,20,979,-20,-692,142
2916,74,6,1006,-23,-673,137
2917,76,0,978,-20,-654,126
2918,98,-2,971,-23,-645,126
2919,136,8,959,-22,-636,125
2920,177,5,970,-24,-614,127
2921,196,14,950,-24,-581,127
2922,197,0,967,-23,-541,129
2923,188,-17,968,-20,-505,140
2924,181,-23,971,-13,-475,155
2925,208,0,964,-3,-452,163
2926,224,30,960,-3,-424,167
2927,258,33,947,-6,-390,157
2928,272,24,949,-13,-347,146
2929,271,7,953,-14,-303,136
2930,266,-11,988,-12,-262,130
2931,246,-17,963,-7,-229,127
2932,257,-4,957,-3,-201,117
2933,282,21,946,-1,-170,101
2934,307,20,952,-8,-132,84
2935,324,25,938,-13,-84,65
2936,318,3,956,-19,-33,52
2937,295,-13,963,-15,15,49
2938,273,-10,962,-7,56,49
2939,285,-2,957,-1,92,47
2940,280,23,947,0,128,40
2941,296,27,942,-5,168,26
2942,285,32,941,-10,215,13
2943,267,24,959,-15,261,6
2944,238,10,984,-14,301,6
2945,204,2,980,-12,329,7
2946,191,11,963,-6,348,9
2947,197,27,959,-9,368,2
2948,209,25,962,-15,396,-11
2949,201,23,947,-19,431,-20
2950,187,8,962,-20,464,-26
2951,147,0,997,-15,489,-19
2952,128,0,998,-10,502,-14
2953,126,11,985,-5,512,-10
2954,126,8,957,-6,520,-8
2955,149,28,961,-5,541,-12
2956,137,45,953,-11,571,-20
2957,121,30,978,-19,596,-25
2958,98,21,1010,-16,610,-25
2959,62,4,1011,-14,617,-23
2960,49,19,983,-11,614,-24
2961,40,15,975,-13,617,-26
2962,45,5,971,-16,625,-34
2963,29,11,974,-9,638,-45
2964,6,31,986,5,654,-65
2965,-26,31,997,11,664,-77
2966,-43,38,991,24,670,-88
2967,-30,77,982,35,671,-99
2968,-23,106,976,37,676,-109
2969,-4,125,968,24,682,-110
2970,9,125,977,-3,692,-102
2971,-7,78,1005,-25,704,-91
2972,-38,16,1015,-29,715,-91
2973,-72,-30,996,-14,723,-111
2974,-83,-29,966,15,728,-137
2975,-79,-6,950,38,733,-153
2976,-74,13,965,46,738,-155
2977,-1515,-290,1714,65,607,-181
2978,-537,-34,1443,144,-45,-205
2979,318,-215,904,113,-93,-106
2980,38,-189,739,217,7,-60
2981,134,0,824,257,86,26
2982,123,-118,859,298,171,-42
2983,-43,-17,1015,340,257,-57
2984,-406,740,1153,254,257,-36
2985,-267,211,1261,-37,92,-29
2986,180,-34,699,-117,45,72
2987,119,-92,865,-74,166,96
2988,-138,167,1010,-20,232,61
2989,-363,350,1115,-103,169,115
2990,104,-4,920,-210,72,184
2991,36,-118,897,-180,126,180
2992,-87,105,958,-147,184,174
2993,-238,59,1114,-196,142,166
2994,-15,-127,995,-214,78,200
2995,42,-97,931,-167,108,184
2996,-69,-117,1072,-122,141,122
2997,-183,-163,1020,-75,93,97
2998,107,-170,987,-18,51,82
2999,65,-132,982,40,96,46
3000,-65,62,1082,58,120,61
3001,-12,41,1051,27,94,86
3002,96,-63,1051,30,93,96
3003,93,36,984,65,138,84
3004,31,50,1092,63,166,58
3005,19,57,1014,53,160,64
3006,49,25,1011,40,167,86
3007,24,4,1019,42,186,83
3008,-35,23,1057,48,200,82
3009,39,17,1014,49,201,76
3010,39,-16,1029,59,212,56
3011,31,23,974,74,226,48
3012,-17,40,988,67,226,47
3013,-38,29,970,57,208,56
3014,-57,16,964,53,192,69
3015,-44,0,979,59,182,63
3016,-62,3,976,68,171,46
3017,-36,32,955,78,156,32
3018,-58,21,941,78,137,20
3019,-81,43,906,75,112,25
3020,-119,57,894,65,78,39
3021,-138,39,921,54,36,53
3022,-140,36,902,53,-1,57
3023,-103,42,910,52,-40,50
3024,-107,57,891,52,-75,35
3025,-107,79,880,47,-111,31
3026,-126,97,855,29,-152,31
3027,-161,90,869,10,-196,41
3028,-185,85,875,-10,-245,60
3029,-204,47,895,-21,-304,79
3030,-209,76,891,-23,-374,95
3031,-219,92,908,-33,-451,100
3032,-231,100,899,-50,-533,97
3033,-256,118,886,-72,-615,97
3034,-262,107,897,-96,-698,96
3035,-274,96,931,-117,-781,91
3036,-254,83,946,-129,-860,85
3037,-210,83,960,-120,-935,66
3038,-167,88,973,-132,-1000,52
3039,837,947,1712,-176,-989,14
3040,866,1113,1762,-459,-560,-207
3041,-424,-157,608,-577,-260,-371
3042,-423,-414,420,-456,-439,-254
3043,-212,-575,758,-367,-614,-29
3044,738,-1189,1641,-236,-645,175
3045,-75,-674,1089,64,-441,275
3046,-466,-174,654,230,-467,218
3047,-150,179,1033,226,-601,112
3048,262,347,1342,69,-570,94
3049,-22,32,999,-22,-465,-10
3050,-96,-155,835,6,-479,-19
3051,7,-3,862,45,-540,36
3052,186,35,1150,52,-553,80
3053,102,150,968,53,-514,97
3054,71,73,991,34,-484,110
3055,-17,57,882,38,-480,116
3056,35,88,1019,25,-480,140
3057,66,75,992,18,-464,118
3058,54,47,1031,4,-443,96
3059,64,65,887,-9,-441,90
3060,140,-8,998,-17,-441,77
3061,175,39,941,-17,-417,78
3062,184,-2,1021,-23,-383,80
3063,176,-9,981,-16,-353,82
3064,124,-24,999,-6,-331,94
3065,181,-17,965,9,-320,96
3066,168,-3,995,18,-305,84
3067,196,12,943,18,-279,74
3068,179,6,964,13,-248,52
3069,192,4,956,9,-215,46
3070,172,1,987,11,-183,48
3071,187,-14,1004,19,-159,51
3072,169,-14,983,29,-142,55
3073,201,2,967,37,-127,57
3074,187,10,958,41,-107,43
3075,204,23,959,34,-76,34
3076,174,35,954,27,-41,23
3077,173,21,988,23,-11,20
3078,144,35,982,23,13,22
3079,169,28,999,23,24,20
3080,169,48,964,25,37,12
3081,175,42,965,17,55,1
3082,169,47,944,9,81,-10
3083,157,36,965,-3,112,-15
3084,157,30,972,-7,142,-12
3085,144,18,1002,-3,168,-7
3086,164,13,984,0,184,2
3087,164,18,973,5,197,1
3088,178,23,957,2,212,-4
3089,169,31,961,1,238,-13
3090,162,32,964,-7,270,-20
3091,140,23,984,-11,298,-24
3092,133,14,995,-6,322,-24
3093,137,17,983,-4,336,-24
3094,156,33,968,3,351,-32
3095,158,37,952,3,373,-47
3096,169,46,954,-1,405,-61
3097,146,49,954,-1,446,-73
3098,143,30,985,-3,488,-82
3099,119,11,973,10,533,-98
3100,135,-6,972,33,578,-122
3101,141,-2,945,56,624,-151
3102,141,-11,939,76,671,-167
3103,136,11,929,88,715,-169
3104,114,21,957,88,759,-156
3105,92,37,977,86,800,-138
3106,59,31,993,84,838,-133
3107,60,27,980,85,869,-142
3108,59,35,974,89,900,-157
3109,59,44,974,83,927,-163
3110,37,67,987,66,951,-151
3111,-4,84,1005,36,970,-127
3112,-36,99,1040,1,979,-105
3113,-335,345,1196,-31,982,-90
3114,-1687,1449,1901,-266,668,33
3115,-245,101,1232,-649,55,336
3116,128,-162,898,-589,31,265
3117,119,-358,828,-473,129,65
3118,161,-345,876,-385,233,-60
3119,105,-459,968,-286,320,-178
3120,133,-492,922,-174,401,-183
3121,174,-323,908,-66,473,-177
3122,156,-415,967,50,542,-165
3123,97,-176,829,160,595,-123
3124,-261,-284,1064,252,609,-112
3125,-668,268,1323,343,435,-151
3126,-78,289,1160,190,208,-47
3127,161,-128,863,138,180,27
3128,98,-58,903,230,253,46
3129,75,98,914,300,324,18
3130,-177,203,1200,284,346,-46
3131,-110,248,1005,184,294,-54
3132,40,-55,947,99,264,-34
3133,24,-77,880,123,272,-22
3134,-62,14,913,156,291,0
3135,-58,92,972,157,278,-15
3136,-144,149,1007,129,243,-28
3137,-23,117,892,83,201,-17
3138,-44,51,912,56,181,-25
3139,-81,68,883,58,168,-12
3140,-140,95,932,46,147,-1
3141,-151,59,975,38,107,-10
3142,-190,37,919,42,59,-11
3143,-154,54,925,42,-2,-10
3144,-236,26,911,45,-73,-19
3145,-239,60,893,45,-152,-8
3146,-294,50,915,36,-238,-7
3147,-313,23,960,29,-335,-4
3148,-341,62,953,26,-433,-3
3149,-313,22,1001,22,-535,-14
3150,-323,60,958,25,-638,-22
3151,-307,53,975,16,-744,-20
3152,-329,39,941,12,-850,-16
3153,-355,43,959,5,-957,2
3154,-356,30,954,7,-1065,13
3155,-375,5,1005,14,-1172,15
3156,-333,26,969,23,-1279,14
3157,-309,15,980,27,-1383,6
3158,-291,24,939,32,-1480,2
3159,-291,10,931,31,-1574,10
3160,-278,-1,917,30,-1661,23
3161,-276,-15,938,35,-1740,39
3162,-224,-19,959,47,-1808,50
3163,-137,-17,980,59,-1857,46
3164,20,45,1010,71,-1864,51
3165,254,270,1260,63,-1821,43
3166,1290,1212,1929,-83,-1548,-49
3167,288,474,1231,-390,-982,-247
3168,-240,-296,578,-401,-856,-252
3169,-123,-353,553,-288,-932,-107
3170,109,-458,775,-220,-964,90
3171,110,-406,743,-141,-966,241
3172,134,-312,835,-85,-942,347
3173,328,-102,1035,-36,-887,353
3174,465,66,1374,-19,-735,262
3175,391,17,1123,10,-533,130
3176,211,-210,992,61,-424,79
3177,176,-217,793,122,-408,137
3178,173,-158,827,167,-403,188
3179,234,-57,880,204,-399,202
3180,246,105,1029,211,-376,209
3181,290,186,1071,188,-345,197
3182,202,143,1080,165,-312,164
3183,195,117,994,150,-300,145
3184,186,29,936,138,-290,113
3185,247,18,888,135,-275,88
3186,279,34,875,125,-249,75
3187,352,41,931,113,-212,68
3188,343,86,944,103,-161,64
3189,388,109,990,91,-103,63
3190,353,107,980,82,-45,50
3191,356,95,945,73,11,40
3192,347,102,876,63,66,18
3193,340,84,882,48,119,0
3194,323,111,867,31,175,-5
3195,308,117,928,-3,230,-2
3196,291,144,948,-29,281,-3
3197,265,143,997,-58,329,-4
3198,254,135,953,-83,368,-16
3199,228,122,927,-102,402,-33
3200,223,115,895,-124,431,-47
3201,196,105,923,-147,457,-52
3202,189,113,935,-171,482,-49
3203,179,111,990,-189,508,-47
3204,176,93,1013,-203,533,-54
3205,163,64,985,-212,557,-69
3206,172,44,943,-212,577,-85
3207,154,22,923,-209,599,-97
3208,161,16,940,-210,623,-95
3209,145,16,964,-208,651,-87
3210,151,26,1011,-204,680,-78
3211,122,18,1012,-197,713,-79
3212,114,-4,998,-184,743,-94
3213,90,-2,945,-164,768,-118
3214,104,-21,943,-146,795,-137
3215,104,-31,950,-128,830,-141
3216,84,-17,968,-118,863,-130
3217,84,2,995,-103,900,-125
3218,61,1,1017,-92,936,-133
3219,69,-17,984,-71,971,-151
3220,76,-21,966,-49,1008,-171
3221,79,-14,955,-31,1043,-179
3222,60,-9,973,-27,1075,-169
3223,29,0,976,-25,1106,-148
3224,2,8,1015,-28,1128,-127
3225,-12,29,1046,-30,1148,-112
3226,-2,38,1070,-37,1164,-112
3227,7,72,1054,-47,1179,-116
3228,-5,75,1052,-67,1190,-116
3229,-20,72,1055,-93,1196,-107
3230,-68,71,1057,-120,1200,-91
3231,-82,66,1085,-145,1196,-77
3232,-815,637,1407,-175,1163,-62
3233,-1642,603,1787,-479,568,179
3234,-17,-136,1094,-570,-84,462
3235,142,-292,924,-458,-35,238
3236,64,-277,931,-335,76,15
3237,247,-444,868,-234,200,-151
3238,146,-453,1026,-121,321,-297
3239,214,-457,876,17,434,-304
3240,209,-408,940,124,528,-297
3241,231,-335,919,254,609,-267
3242,165,-239,802,358,685,-205
3243,221,-130,887,422,744,-155
3244,34,-151,818,490,802,-114
3245,-567,667,1316,502,814,-47
3246,-958,953,1588,170,459,33
3247,130,-128,953,-100,152,174
3248,222,-44,755,-9,220,123
3249,177,-243,947,91,331,16
3250,178,-85,788,185,436,-51
3251,94,-174,987,234,538,-99
3252,-38,-43,919,295,604,-103
3253,-552,450,1318,239,538,-55
3254,-162,61,1012,80,310,27
3255,67,-67,834,86,249,54
3256,127,-60,766,161,295,-3
3257,8,-77,841,216,343,-58
3258,-171,225,943,244,356,-61
3259,-377,260,1107,152,265,-38
3260,-120,95,944,55,141,11
3261,-37,-37,873,53,105,24
3262,-5,-12,874,93,103,3
3263,-89,47,869,121,98,-18
3264,-102,23,895,125,78,-27
3265,-204,72,886,125,42,-28
3266,-206,69,927,113,-13,-12
3267,-258,87,945,97,-82,-10
3268,-236,104,975,83,-164,-7
3269,-246,133,932,59,-256,-7
3270,-264,134,957,25,-356,-3
3271,-307,135,906,-10,-462,12
3272,-346,108,947,-43,-574,34
3273,-364,109,941,-61,-695,47
3274,-371,69,997,-81,-816,54
3275,-336,74,979,-90,-941,46
3276,-326,63,978,-96,-1064,33
3277,-301,69,943,-105,-1184,22
3278,-309,33,959,-117,-1300,14
3279,-299,25,929,-121,-1407,14
3280,-274,1,965,-115,-1503,7
3281,-231,-12,962,-97,-1585,-6
3282,-178,-16,962,-74,-1648,-23
3283,-99,-14,923,-42,-1696,-42
3284,-84,-29,911,-16,-1725,-51
3285,-43,-27,885,9,-1739,-48
3286,-50,-53,898,36,-1737,-40
3287,-4,-49,918,69,-1723,-30
3288,47,-57,931,99,-1696,-29
3289,165,-40,962,130,-1636,-24
3290,181,8,955,147,-1551,-28
3291,266,55,1007,149,-1454,-24
3292,280,116,1037,120,-1334,-22
3293,351,231,1188,80,-1192,-23
3294,1096,898,1889,-47,-942,-50
3295,658,581,1542,-306,-454,-175
3296,34,-133,782,-377,-210,-209
3297,66,-257,698,-326,-225,-74
3298,155,-301,806,-290,-238,111
3299,153,-336,817,-256,-238,255
3300,73,-291,878,-211,-219,343
3301,115,-207,912,-161,-195,358
3302,104,-177,984,-114,-157,312
3303,181,-87,954,-66,-109,251
3304,200,-47,974,-28,-54,180
3305,220,-9,939,6,0,127
3306,186,25,921,32,49,103
3307,177,21,941,53,86,96
3308,141,45,945,74,114,97
3309,180,87,989,90,136,101
3310,250,168,1076,85,163,100
3311,303,245,1108,49,196,110
3312,251,207,1009,3,235,106
3313,220,106,939,-28,273,83
3314,197,35,894,-34,313,62
3315,245,-15,929,-32,358,43
3316,257,-9,934,-25,412,28
3317,283,-7,941,-18,474,14
3318,280,27,929,-13,533,-2
3319,260,44,925,-15,589,-10
3320,234,54,918,-24,641,-6
3321,189,57,957,-41,687,4
3322,156,72,970,-48,727,10
3323,141,79,989,-58,758,4
3324,120,50,970,-67,782,-9
3325,117,52,952,-74,801,-18
3326,99,49,935,-83,814,-23
3327,73,36,952,-93,829,-20
3328,48,50,975,-104,840,-14
3329,52,35,1010,-113,850,-10
3330,48,47,1020,-112,862,-15
3331,61,35,1028,-111,874,-29
3332,83,49,1019,-111,887,-42
3333,71,61,1009,-116,903,-48
3334,52,40,1009,-125,918,-45
3335,22,33,1030,-129,934,-37
3336,25,24,1042,-129,948,-32
3337,32,22,1062,-124,965,-39
3338,48,20,1062,-114,982,-50
3339,62,27,1052,-112,1001,-61
3340,54,36,1030,-112,1021,-66
3341,-300,300,1204,-117,1036,-58
3342,-1731,1030,1880,-335,687,98
3343,-164,-195,1181,-573,-18,431
3344,248,-180,956,-451,-11,320
3345,202,-357,926,-313,141,70
3346,380,-335,879,-192,309,-93
3347,244,-374,956,-81,460,-243
3348,306,-447,892,25,589,-255
3349,4,-380,909,114,697,-229
3350,-252,-680,1122,295,655,-264
3351,137,-171,974,473,571,-250
3352,-139,477,1343,452,571,-140
3353,-242,393,1139,237,397,5
3354,290,159,803,109,323,128
3355,236,-44,802,154,432,88
3356,-75,298,1078,183,526,63
3357,-192,455,1112,67,500,60
3358,27,0,1097,-66,432,61
3359,165,27,826,-53,458,68
3360,118,-12,966,-30,536,26
3361,-83,157,983,-29,554,-5
3362,-136,148,1023,-84,501,39
3363,11,-2,908,-119,445,64
3364,-20,-27,952,-94,447,47
3365,-9,31,931,-63,455,15
3366,-74,12,1057,-60,440,-32
3367,-18,-4,958,-51,408,-48
3368,-29,-34,946,-41,390,-52
3369,-55,-37,948,-20,377,-62
3370,-158,-23,962,2,359,-62
3371,-107,-12,977,11,324,-67
3372,-126,-66,978,32,296,-87
3373,-65,-29,942,62,277,-101
3374,-79,-15,943,79,265,-130
3375,-102,7,946,97,252,-143
3376,-150,58,952,94,239,-136
3377,-175,24,1002,73,215,-124
3378,-190,33,957,76,191,-111
3379,-142,26,969,73,169,-104
3380,-144,-2,925,74,149,-109
3381,-137,29,900,79,126,-100
3382,-178,44,858,66,94,-82
3383,-243,40,884,53,44,-54
3384,-286,84,864,40,-18,-24
3385,-302,47,915,21,-86,-11
3386,-303,89,912,20,-158,-12
3387,-308,79,928,6,-231,-18
3388,-292,81,902,-6,-312,-26
3389,-317,83,890,-22,-392,-19
3390,-324,53,887,-42,-479,-3
3391,-360,32,903,-50,-567,9
3392,-348,11,903,-51,-657,21
3393,-335,17,931,-45,-747,19
3394,-313,20,920,-37,-835,8
3395,-294,26,900,-33,-920,-3
3396,-283,39,883,-34,-1001,-7
3397,-290,20,890,-37,-1078,-1
3398,-286,17,902,-39,-1152,11
3399,-277,0,927,-37,-1222,18
3400,-241,8,949,-30,-1287,23
3401,-217,18,953,-26,-1344,22
3402,-191,13,945,-27,-1395,20
3403,-194,34,926,-31,-1442,28
3404,-201,11,941,-41,-1485,42
3405,-212,10,957,-46,-1524,58
3406,-205,-2,975,-50,-1560,71
3407,-173,4,993,-48,-1595,72
3408,-148,19,1002,-53,-1625,74
3409,-110,32,1010,-58,-1650,74
3410,-69,71,1027,-80,-1662,81
3411,-38,94,1084,-111,-1654,90
3412,9,97,1139,-147,-1628,92
3413,616,547,1596,-186,-1545,84
3414,1238,1059,1911,-349,-1137,-117
3415,95,18,1088,-473,-662,-347
3416,-56,-398,666,-408,-654,-239
3417,-79,-401,635,-352,-736,7
3418,119,-485,726,-304,-794,223
3419,30,-511,775,-227,-817,342
3420,131,-434,837,-131,-805,410
3421,208,-426,943,-41,-770,392
3422,343,-478,1089,102,-704,309
3423,349,-232,1009,255,-615,219
3424,470,-3,1159,306,-528,204
3425,376,141,1123,290,-439,238
3426,332,135,1080,266,-373,262
3427,210,26,944,271,-328,235
3428,182,-6,901,292,-304,220
3429,219,36,841,306,-287,202
3430,241,22,935,299,-273,185
3431,279,157,891,279,-255,193
3432,322,158,1011,232,-228,190
3433,325,162,1003,198,-193,170
3434,315,141,996,168,-148,149
3435,350,87,930,149,-110,113
3436,334,75,900,138,-69,84
3437,380,93,847,125,-26,67
3438,375,97,883,109,24,49
3439,384,149,891,89,83,46
3440,382,174,958,59,146,41
3441,367,165,970,33,210,23
3442,338,159,942,6,267,2
3443,348,142,901,-21,320,-25
3444,314,110,876,-42,374,-49
3445,328,119,873,-67,424,-54
3446,308,118,917,-93,479,-57
3447,305,119,958,-117,535,-53
3448,278,118,977,-137,596,-56
3449,287,77,973,-148,651,-74
3450,261,67,915,-151,707,-93
3451,257,37,899,-157,760,-107
3452,238,22,890,-153,812,-115
3453,211,22,922,-156,867,-107
3454,187,38,961,-157,914,-101
3455,164,30,1007,-158,962,-105
3456,165,18,986,-152,1007,-117
3457,154,11,962,-141,1049,-135
3458,150,24,946,-129,1093,-156
3459,138,40,961,-127,1134,-167
3460,109,45,969,-131,1175,-169
3461,84,49,1008,-137,1211,-164
3462,65,63,1040,-145,1246,-165
3463,61,67,1059,-153,1272,-172
3464,62,91,1047,-168,1291,-178
3465,39,83,1045,-190,1303,-177
3466,4,85,1043,-219,1310,-165
3467,-39,79,1044,-248,1309,-148
3468,-63,59,1076,-271,1301,-132
3469,-91,53,1108,-289,1289,-122
3470,-859,-636,1402,-295,1243,-140
3471,-1589,-1509,1856,192,602,-322
3472,413,118,1378,584,51,-355
3473,410,-54,1026,491,161,-245
3474,-78,243,903,448,259,-70
3475,159,336,897,374,288,-16
3476,-105,-36,1172,319,315,-98
3477,98,331,931,305,350,-46
3478,55,106,1016,207,390,-84
3479,79,79,995,174,420,-114
3480,-12,266,800,125,452,-61
3481,192,47,950,39,476,-48
3482,-31,135,843,24,521,-40
3483,113,143,896,-22,567,18
3484,61,94,905,-60,601,-21
3485,55,103,939,-74,638,-15
3486,58,189,816,-116,663,-12
3487,18,64,998,-158,676,-39
3488,-63,136,805,-172,682,-30
3489,-34,112,961,-214,676,-22
3490,-89,55,913,-216,661,-48
3491,-104,102,950,-223,640,-43
3492,-48,125,896,-238,609,-66
3493,-188,51,974,-246,573,-85
3494,-395,286,1059,-267,491,-48
3495,-603,-110,1291,-306,326,22
3496,-367,-157,1025,-204,172,81
3497,-271,-80,946,-137,111,5
3498,-171,-128,898,-112,57,-102
3499,-189,-91,896,-103,9,-153
3500,-135,-109,906,-102,-52,-169
3501,-250,-107,907,-92,-117,-157
3502,-231,-41,897,-80,-189,-109
3503,-301,-52,953,-67,-264,-83
3504,-287,-3,979,-41,-342,-56
3505,-292,26,967,-24,-418,-47
3506,-257,16,996,-12,-494,-52
3507,-296,58,939,-2,-565,-46
3508,-264,29,975,-12,-640,-36
3509,-317,10,950,-8,-708,-32
3510,-286,1,990,-11,-777,-17
3511,-272,-14,984,-4,-847,-23
3512,-244,-34,1007,8,-911,-31
3513,-213,9,945,18,-971,-39
3514,-209,-14,968,23,-1026,-49
3515,-219,1,911,29,-1079,-47
3516,-237,-10,935,29,-1126,-35
3517,-219,-22,938,38,-1172,-29
3518,-212,-17,954,51,-1213,-23
3519,-157,-13,931,64,-1249,-26
3520,-137,-9,929,71,-1275,-31
3521,-108,11,888,76,-1295,-25
3522,-100,-6,883,77,-1306,-13
3523,-95,-12,888,81,-1306,4
3524,-64,-15,901,87,-1299,21
3525,-21,-15,920,98,-1280,28
3526,-2,-7,916,108,-1252,30
3527,119,13,901,113,-1216,31
3528,105,15,875,109,-1152,43
3529,111,27,885,104,-1088,61
3530,101,35,889,90,-1020,79
3531,103,39,922,73,-952,90
3532,117,75,931,60,-882,94
3533,147,80,953,35,-817,95
3534,174,103,960,9,-751,102
3535,165,139,965,-31,-684,117
3536,161,137,981,-81,-617,140
3537,132,133,1013,-128,-552,164
3538,308,280,1278,-172,-490,188
3539,942,831,1927,-278,-348,174
3540,468,533,1617,-437,-133,118
3541,-38,-49,842,-495,-85,105
3542,-111,-256,656,-460,-113,90
3543,85,-479,878,-417,-135,107
3544,256,-797,1127,-258,-123,29
3545,227,-639,1123,3,-88,-83
3546,160,-304,866,127,-68,-58
3547,98,-198,828,154,-60,33
3548,163,-50,749,168,-53,126
3549,209,-1,831,161,-32,178
3550,268,56,923,163,3,203
3551,435,291,1218,130,60,235
3552,452,345,1276,61,142,235
3553,221,233,1056,6,209,201
3554,150,113,828,-9,249,142
3555,168,-18,818,-4,279,73
3556,222,8,799,3,313,47
3557,245,26,880,-12,351,48
3558,295,88,985,-35,391,59
3559,297,152,1047,-63,441,75
3560,321,95,1074,-90,489,62
3561,236,28,999,-77,537,11
3562,239,-10,912,-50,576,-37
3563,209,-30,876,-28,617,-69
3564,210,-45,905,-8,659,-64
3565,193,-33,921,4,706,-44
3566,207,-34,991,22,753,-35
3567,180,21,970,37,801,-30
3568,182,54,980,36,847,-29
3569,163,80,940,26,889,-30
3570,153,96,943,1,928,-20
3571,138,98,958,-32,966,-9
3572,108,77,1005,-59,1002,3
3573,119,76,1027,-84,1036,5
3574,112,71,1072,-97,1071,-5
3575,108,98,1043,-113,1103,-17
3576,108,110,1036,-142,1132,-23
3577,93,104,1020,-169,1159,-23
3578,57,95,1033,-199,1184,-17
3579,37,75,1041,-223,1205,-10
3580,-755,-531,1305,-233,1198,-29
3581,-1614,-1501,1795,199,568,-307
3582,630,38,1413,574,-62,-431
3583,641,-50,1051,466,95,-218
3584,149,237,871,449,248,8
3585,325,379,787,396,353,92
3586,26,5,1120,353,439,-5
3587,212,263,893,351,531,27
3588,144,102,1020,269,623,-7
3589,205,4,1041,238,689,-54
3590,89,218,808,203,767,-26
3591,312,75,954,115,825,-21
3592,-93,227,924,78,889,-23
3593,-647,817,1399,-84,791,107
3594,-206,194,1077,-361,480,263
3595,179,-9,923,-372,429,306
3596,185,-11,779,-328,540,172
3597,230,-101,970,-300,650,26
3598,-23,6,858,-256,743,-64
3599,-559,-74,1258,-269,689,-24
3600,-392,-358,1001,-168,414,70
3601,102,-177,932,-27,320,70
3602,138,-98,770,42,396,-52
3603,65,-121,880,86,472,-155
3604,-78,158,880,115,501,-212
3605,-368,191,1141,54,407,-177
3606,-144,124,891,1,265,-68
3607,-112,14,903,8,226,-46
3608,-68,26,840,42,231,-98
3609,-152,100,957,41,238,-155
3610,-118,76,962,14,217,-185
3611,-204,58,930,-8,182,-176
3612,-143,65,851,-25,133,-134
3613,-240,3,836,-41,79,-107
3614,-228,20,812,-47,15,-69
3615,-284,-14,807,-56,-59,-52
3616,-261,-20,841,-55,-147,-37
3617,-311,27,808,-50,-241,-28
3618,-287,38,853,-60,-343,-29
3619,-340,93,822,-71,-447,-39
3620,-335,93,879,-95,-551,-42
3621,-357,108,881,-113,-658,-57
3622,-342,83,943,-131,-763,-67
3623,-312,111,934,-144,-867,-84
3624,-287,90,986,-158,-965,-101
3625,-256,99,932,-168,-1062,-112
3626,-250,81,956,-189,-1150,-114
3627,-243,56,939,-203,-1232,-113
3628,-255,27,975,-212,-1305,-105
3629,-220,4,975,-210,-1367,-104
3630,-195,-21,1001,-197,-1419,-113
3631,-148,-4,986,-178,-1458,-123
3632,-124,-34,981,-164,-1486,-133
3633,-95,-32,954,-146,-1501,-131
3634,-98,-54,955,-130,-1502,-120
3635,-74,-81,981,-108,-1494,-105
3636,-63,-89,998,-79,-1474,-91
3637,588,-545,1452,-57,-1428,-74
3638,1580,-1238,1907,110,-994,124
3639,-457,75,859,419,-404,240
3640,-656,113,579,526,-465,-105
3641,-330,120,642,518,-594,-235
3642,106,-76,1024,403,-642,-135
3643,55,49,1102,307,-664,26
3644,452,532,1480,150,-615,179
3645,229,328,1252,33,-466,93
3646,14,78,944,-4,-414,88
3647,44,120,707,-42,-440,192
3648,37,-89,914,-84,-470,252
3649,-11,35,767,-80,-487,305
3650,44,0,943,-94,-489,306
3651,141,74,1009,-81,-479,237
3652,209,190,1119,-81,-431,172
3653,261,143,1022,-97,-376,100
3654,123,47,981,-100,-346,72
3655,146,76,845,-102,-341,101
3656,155,15,1009,-105,-336,94
3657,216,17,1013,-88,-315,78
3658,242,-8,1054,-72,-283,58
3659,263,-48,1002,-46,-261,27
3660,182,-42,925,-30,-248,32
3661,276,-25,929,-19,-230,32
3662,248,-21,982,-11,-180,17
3663,244,0,961,-10,-125,25
3664,218,-2,973,-6,-86,23
3665,245,-5,975,-4,-57,32
3666,232,31,934,-1,-27,38
3667,264,29,966,-1,5,36
3668,229,41,939,-8,45,35
3669,234,46,972,-18,87,39
3670,201,30,973,-27,130,36
3671,181,4,989,-29,171,38
3672,185,7,940,-26,207,29
3673,203,-9,954,-23,244,19
3674,215,2,923,-21,281,14
3675,229,-4,964,-23,328,13
3676,219,-1,957,-20,385,13
3677,201,-10,978,-9,446,14
3678,187,0,954,4,509,10
3679,178,0,944,20,571,6
3680,204,30,905,29,633,2
3681,199,24,914,31,701,-3
3682,206,40,903,30,772,1
3683,180,44,921,23,847,7
3684,184,45,949,17,921,13
3685,161,41,974,15,1000,11
3686,192,49,983,11,1074,-1
3687,196,74,982,2,1147,-14
3688,190,83,977,-19,1217,-18
3689,154,99,974,-48,1282,-14
3690,113,97,985,-80,1340,-2
3691,79,99,1017,-116,1388,9
3692,54,91,1052,-150,1430,17
3693,52,104,1062,-181,1461,15
3694,-470,-248,1243,-224,1471,4
3695,-1815,-1701,1807,145,855,-282
3696,493,19,1441,713,-129,-508
3697,803,-16,1110,550,13,-222
3698,91,277,879,490,185,72
3699,312,506,803,409,306,239
3700,34,124,1104,349,385,108
3701,193,280,1001,326,476,129
3702,149,303,873,214,566,110
3703,242,37,1125,139,651,42
3704,35,234,712,81,722,73
3705,302,127,991,-27,792,105
3706,98,76,836,-58,865,66
3707,-212,480,1146,-123,917,144
3708,-490,605,1246,-324,710,265
3709,18,34,1083,-470,473,440
3710,250,179,681,-461,519,390
3711,160,-102,971,-463,644,187
3712,28,-23,839,-419,754,42
3713,-1017,-689,1373,-335,681,-3
3714,-56,-406,1022,-4,312,-14
3715,310,-93,939,90,334,-63
3716,225,-10,704,127,463,-131
3717,151,-21,771,141,558,-183
3718,-176,348,950,143,597,-205
3719,-512,393,1220,17,445,-115
3720,-50,142,877,-103,254,30
3721,51,-46,823,-72,244,24
3722,51,54,777,-11,299,-62
3723,-165,214,979,-30,330,-141
3724,-280,-4,1102,-84,283,-149
3725,-313,-48,1010,-80,211,-71
3726,-125,-94,914,-43,180,-55
3727,-165,-127,865,-6,179,-103
3728,-114,-45,879,11,164,-119
3729,-194,-75,935,14,130,-128
3730,-205,28,932,19,80,-98
3731,-223,67,872,4,31,-74
3732,-221,24,894,-18,-19,-60
3733,-240,67,830,-32,-70,-38
3734,-209,14,880,-46,-125,-22
3735,-228,23,836,-50,-188,-18
3736,-222,45,827,-57,-260,-2
3737,-255,67,805,-67,-346,4
3738,-306,90,852,-83,-437,11
3739,-334,125,821,-103,-530,12
3740,-334,119,907,-127,-626,-4
3741,-325,129,907,-144,-721,-21
3742,-292,118,946,-168,-813,-41
3743,-250,128,926,-184,-902,-66
3744,-253,100,931,-209,-983,-76
3745,-227,98,914,-227,-1058,-73
3746,-260,47,941,-242,-1121,-68
3747,-226,31,953,-243,-1180,-61
3748,-221,11,988,-234,-1227,-65
3749,-175,-18,980,-218,-1269,-78
3750,-145,-2,968,-198,-1299,-91
3751,-118,-40,964,-183,-1318,-97
3752,-118,-56,956,-166,-1329,-92
3753,-107,-74,973,-145,-1333,-76
3754,-87,-108,1004,-121,-1324,-64
3755,-51,-93,1019,-86,-1309,-55
3756,802,-807,1556,-63,-1250,-34
3757,1403,-1171,1848,167,-749,184
3758,-690,176,771,448,-271,229
3759,-682,83,525,534,-412,-129
3760,-393,105,686,533,-547,-227
3761,69,-99,1014,428,-618,-123
3762,-138,-32,967,348,-662,41
3763,141,299,1121,246,-713,217
3764,506,618,1746,129,-660,192
3765,211,405,1323,5,-494,121
3766,-46,132,777,-45,-459,128
3767,-56,-161,894,-70,-513,181
3768,-89,-49,744,-61,-554,263
3769,11,-123,889,-72,-589,286
3770,-27,-114,870,-38,-605,235
3771,140,59,1014,-15,-602,209
3772,320,127,1144,-18,-551,130
3773,219,64,1164,-8,-473,70
3774,179,48,911,1,-435,97
3775,143,-94,970,9,-421,119
3776,174,-55,893,55,-412,135
3777,257,-32,985,72,-390,142
3778,317,-11,1003,84,-355,117
3779,247,31,960,86,-313,115
3780,300,34,942,78,-276,111
3781,227,-9,982,79,-228,94
3782,268,27,938,83,-177,105
3783,270,6,972,82,-125,90
3784,282,-11,949,84,-74,78
3785,281,28,890,86,-19,76
3786,316,21,923,78,36,72
3787,265,52,927,72,96,78
3788,280,81,960,57,157,91
3789,251,56,971,48,220,80
3790,245,65,963,45,277,73
3791,243,60,919,41,332,54
3792,250,29,922,35,383,31
3793,232,75,876,32,437,27
3794,241,70,940,14,487,28
3795,208,94,955,3,539,28
3796,202,97,975,-14,590,28
3797,198,95,967,-24,637,10
3798,173,77,948,-29,685,-14
3799,187,78,906,-36,728,-36
3800,164,66,907,-48,771,-49
3801,138,73,913,-62,809,-46
3802,112,86,949,-83,843,-37
3803,99,79,981,-104,872,-32
3804,92,104,995,-122,895,-32
3805,93,103,996,-143,914,-40
3806,85,103,986,-169,931,-49
3807,66,125,972,-203,945,-46
3808,36,103,989,-240,954,-36
3809,4,100,1010,-274,958,-21
3810,-1,83,1032,-304,957,-14
3811,5,81,1065,-326,953,-19
3812,-7,-19,1155,-344,949,-33
3813,-1650,-1590,1780,-181,758,-144
3814,-466,-432,1567,433,48,-273
3815,522,-13,1173,417,-31,-179
3816,114,172,882,378,76,-55
3817,135,268,914,303,152,66
3818,142,189,1006,250,199,-17
3819,67,114,1114,216,256,-31
3820,217,295,864,142,315,-6
3821,165,68,1122,58,378,-45
3822,129,194,813,25,438,-14
3823,188,202,985,-60,505,25
3824,221,35,914,-98,574,11
3825,86,158,941,-121,653,58
3826,259,141,891,-164,710,58
3827,109,14,991,-185,776,38
3828,-143,368,1036,-215,819,71
3829,-1175,-208,1604,-296,592,128
3830,-16,-126,1047,-156,192,223
3831,229,-25,948,-122,233,140
3832,142,-53,910,-99,340,-3
3833,181,-26,848,-83,430,-110
3834,191,-67,900,-63,505,-204
3835,111,-97,846,-35,558,-216
3836,-151,-284,921,-2,574,-165
3837,-327,-339,1083,143,473,-131
3838,-69,70,996,235,370,-111
3839,14,254,974,189,357,-96
3840,-104,318,1011,108,345,-92
3841,-65,302,962,17,325,-91
3842,-71,179,927,-47,308,-90
3843,-113,105,898,-81,290,-58
3844,-141,94,887,-110,258,-22
3845,-181,-14,937,-126,212,-13
3846,-219,-16,928,-125,152,-7
3847,-203,0,951,-116,84,-11
3848,-219,12,927,-110,14,-40
3849,-229,61,898,-120,-57,-54
3850,-245,37,908,-134,-132,-69
3851,-284,22,957,-136,-211,-79
3852,-296,35,952,-131,-293,-83
3853,-277,7,995,-126,-382,-97
3854,-280,39,971,-113,-475,-110
3855,-286,31,960,-113,-571,-115
3856,-300,25,950,-112,-672,-120
3857,-337,14,944,-112,-773,-113
3858,-320,5,958,-111,-875,-106
3859,-328,-15,990,-102,-972,-113
3860,-282,-11,976,-86,-1068,-121
3861,-246,-3,965,-76,-1156,-136
3862,-225,-22,949,-63,-1236,-144
3863,-219,-20,927,-56,-1308,-141
3864,-210,-42,934,-49,-1371,-133
3865,-201,-59,938,-30,-1423,-126
3866,-165,-53,969,-8,-1462,-120
3867,-119,-75,959,21,-1489,-127
3868,-72,-47,942,51,-1502,-131
3869,-40,-50,913,70,-1501,-130
3870,-29,-62,921,89,-1487,-119
3871,-40,-39,917,107,-1460,-99
3872,79,-80,930,117,-1423,-79
3873,62,-51,945,147,-1353,-60
3874,109,-50,961,159,-1283,-49
3875,162,0,955,173,-1203,-42
3876,156,35,965,160,-1116,-36
3877,179,82,977,139,-1022,-21
3878,180,97,1022,97,-914,-2
3879,208,118,1078,52,-797,23
3880,222,153,1107,3,-674,42
3881,251,139,1113,-47,-555,54
3882,262,148,1097,-96,-441,73
3883,260,140,1087,-150,-335,101
3884,295,154,1160,-201,-237,136
3885,325,87,1273,-248,-139,166
3886,269,-170,1256,-225,-46,141
3887,159,-184,1108,-130,19,79
3888,101,-99,968,-76,55,67
3889,67,-55,904,-79,73,100
3890,55,-29,857,-90,80,136
3891,62,-48,877,-98,82,155
3892,47,-45,887,-101,86,171
3893,80,-53,926,-95,91,183
3894,124,-71,982,-77,99,174
3895,158,-87,1020,-32,116,141
3896,186,-37,995,22,132,101
3897,155,14,952,50,149,83
3898,128,47,924,56,156,95
3899,103,53,957,50,158,107
3900,122,33,993,51,156,103
3901,124,49,1033,62,151,82
3902,131,69,1024,61,144,54
3903,140,86,1009,51,134,33
3904,124,100,981,30,122,27
3905,120,71,1014,8,111,17
3906,121,42,1054,-2,101,3
3907,125,19,1068,-1,92,-12
3908,116,42,1045,-2,83,-16
3909,102,67,1001,-14,72,-11
3910,112,71,966,-38,58,-7
3911,117,45,961,-52,46,-5
3912,127,-17,992,-53,44,-13
3913,127,-32,1015,-35,53,-27
3914,124,-18,1002,-16,67,-31
3915,113,28,977,-11,77,-30
3916,132,41,953,-21,89,-29
3917,177,29,941,-30,107,-31
3918,192,24,933,-35,135,-33
3919,194,-4,970,-32,172,-37
3920,181,2,982,-14,214,-45
3921,180,3,992,-2,262,-54
3922,169,40,968,10,312,-68
3923,168,65,938,15,366,-86
3924,192,72,903,9,423,-100
3925,189,66,891,-2,479,-100
3926,187,48,911,-16,537,-90
3927,180,15,954,-21,598,-85
3928,185,-14,988,-10,658,-95
3929,175,13,995,5,713,-112
3930,151,49,963,12,766,-133
3931,130,75,924,2,811,-144
3932,106,94,910,-21,850,-140
3933,89,61,951,-45,887,-132
3934,79,29,1005,-57,921,-134
3935,68,0,1047,-53,954,-147
3936,53,39,1033,-43,980,-165
3937,16,76,990,-48,1001,-171
3938,9,94,956,-71,1013,-163
3939,-16,88,953,-106,1019,-146
3940,-26,42,997,-138,1019,-124
3941,-43,-11,1060,-150,1016,-116
3942,-67,-43,1094,-143,1011,-123
3943,-1594,-1245,1677,-52,847,-210
3944,-745,-600,1569,444,81,-451
3945,622,-37,1176,456,-92,-341
3946,82,62,849,414,31,-132
3947,20,236,854,372,85,39
3948,45,199,897,338,125,8
3949,-56,-19,1131,326,178,-31
3950,119,245,864,296,234,-9
3951,100,-15,1121,227,296,-63
3952,82,72,849,225,351,-73
3953,122,155,915,162,410,-40
3954,134,0,880,117,463,-45
3955,-12,85,901,97,518,3
3956,46,186,917,58,561,48
3957,-744,594,1464,-38,485,76
3958,-256,330,1095,-256,174,256
3959,113,25,899,-318,107,252
3960,88,-103,869,-251,199,83
3961,70,-31,823,-194,292,-20
3962,92,-169,947,-152,371,-102
3963,-378,55,1119,-101,378,-86
3964,-297,98,1061,-151,198,71
3965,8,-179,909,-147,74,125
3966,48,-166,795,-50,106,56
3967,-34,-38,854,19,156,-28
3968,-275,56,1056,25,118,-62
3969,-241,22,966,-14,-6,7
3970,-38,-120,889,-11,-76,45
3971,-27,-141,902,59,-72,1
3972,-77,22,938,109,-59,-36
3973,-109,60,1002,98,-89,-59
3974,-107,-2,944,74,-142,-43
3975,-67,11,869,72,-174,1
3976,-90,5,955,81,-186,4
3977,-140,56,972,88,-199,-2
3978,-90,62,986,77,-219,-6
3979,-63,4,963,74,-239,-7
3980,-77,-10,914,85,-261,19
3981,-96,-4,906,99,-291,58
3982,-173,-21,931,113,-331,86
3983,-208,21,945,124,-384,107
3984,-232,19,998,127,-444,104
3985,-228,27,1004,129,-513,85
3986,-219,76,981,124,-588,72
3987,-209,60,989,108,-667,59
3988,-236,83,982,86,-750,64
3989,-237,94,988,61,-834,81
3990,-238,93,1031,34,-916,88
3991,-36,293,1312,9,-988,89
3992,778,990,1925,-113,-880,-13
3993,23,368,1233,-315,-554,-220
3994,-356,-229,672,-330,-576,-205
3995,-299,-256,652,-275,-757,-39
3996,-191,-351,780,-247,-904,147
3997,-85,-229,971,-200,-1022,256
3998,270,136,1481,-175,-1013,237
3999,187,61,1254,-188,-859,74
4000,-45,-247,886,-152,-781,-18
4001,-45,-306,705,-71,-817,19
4002,132,-244,929,4,-851,95
4003,252,-68,1084,50,-817,132
4004,246,3,1137,67,-716,113
4005,125,-48,961,91,-626,65
4006,51,-116,892,131,-591,56
4007,187,-44,863,168,-581,83
4008,201,26,985,175,-541,105
4009,220,102,968,162,-482,109
4010,166,107,974,137,-415,97
4011,152,53,947,122,-363,79
4012,136,40,944,120,-330,86
4013,187,11,945,120,-310,98
4014,193,40,973,123,-291,106
4015,199,91,958,117,-269,108
4016,176,91,977,104,-243,94
4017,142,91,974,86,-218,85
4018,128,82,981,73,-202,74
4019,130,70,991,63,-196,57
4020,132,71,972,52,-194,41
4021,161,87,964,39,-189,21
4022,146,100,941,15,-181,9
4023,146,101,952,-16,-177,15
4024,133,103,980,-40,-165,11
4025,156,74,1009,-51,-145,-2
4026,157,56,996,-50,-120,-13
4027,159,17,966,-49,-102,-14
4028,169,19,933,-45,-88,-8
4029,180,32,936,-47,-68,3
4030,187,41,968,-51,-35,10
4031,178,41,995,-52,5,8
4032,175,17,993,-43,50,-4
4033,162,5,983,-34,83,-3
4034,160,-3,960,-28,96,9
4035,181,8,957,-23,108,11
4036,193,44,961,-22,128,3
4037,184,48,988,-30,159,-5
4038,147,38,984,-40,190,-10
4039,133,27,986,-37,212,-8
4040,130,25,987,-34,222,-7
4041,131,30,983,-32,227,-6
4042,145,45,964,-33,236,-13
4043,145,57,952,-41,250,-24
4044,141,57,974,-53,270,-32
4045,132,51,983,-58,296,-35
4046,131,28,988,-61,321,-33
4047,138,30,986,-58,339,-30
4048,139,26,969,-56,353,-29
4049,154,40,951,-58,369,-33
4050,150,65,941,-66,391,-37
4051,153,69,970,-75,420,-43
4052,145,69,985,-81,460,-49
4053,145,41,984,-91,499,-62
4054,146,26,970,-86,542,-75
4055,152,7,936,-79,588,-95
4056,172,-7,916,-68,635,-106
4057,166,13,904,-64,682,-100
4058,155,30,941,-71,731,-81
4059,125,52,972,-81,780,-61
4060,104,49,984,-95,828,-55
4061,93,48,976,-98,871,-69
4062,80,35,961,-98,912,-92
4063,95,49,938,-100,952,-112
4064,88,58,948,-112,990,-118
4065,62,66,964,-133,1023,-106
4066,29,81,995,-154,1049,-90
4067,14,79,1024,-175,1069,-80
4068,16,101,1052,-198,1081,-80
4069,16,112,1059,-221,1091,-84
4070,-494,-83,1255,-254,1083,-96
4071,-1525,-889,1865,-85,451,-107
4072,409,75,1144,134,-216,41
4073,328,-208,955,126,-64,3
4074,-41,43,845,162,31,-9
4075,372,17,861,149,111,-56
4076,52,-246,1101,167,195,-206
4077,259,53,853,193,270,-151
4078,197,-38,907,149,343,-164
4079,181,-76,983,162,406,-163
4080,54,170,743,163,468,-93
4081,258,22,1009,120,518,-77
4082,20,79,836,141,579,-74
4083,144,188,919,113,628,-4
4084,90,145,896,74,661,-33
4085,-381,459,1250,29,675,-8
4086,-610,720,1308,-194,456,101
4087,-50,-51,1111,-354,239,199
4088,15,16,805,-294,249,128
4089,58,-60,977,-274,301,-1
4090,96,-154,888,-240,340,-126
4091,0,-93,954,-205,372,-168
4092,53,-97,820,-185,372,-165
4093,-94,-127,934,-159,362,-151
4094,-87,-15,840,-117,330,-98
4095,-287,-262,1047,-93,279,-72
4096,-307,-121,1060,27,182,-18
4097,-282,88,970,73,100,-24
4098,-183,81,912,68,27,-76
4099,-274,98,890,46,-43,-88
4100,-207,93,930,9,-124,-81
4101,-327,76,961,-20,-210,-80
4102,-283,73,982,-46,-307,-60
4103,-325,89,986,-67,-411,-67
4104,-296,71,1011,-80,-520,-66
4105,-334,102,945,-101,-634,-62
4106,-336,57,984,-124,-750,-55
4107,-402,62,923,-136,-872,-43
4108,-396,53,988,-153,-998,-31
4109,-419,25,963,-155,-1125,-41
4110,-391,24,996,-156,-1251,-48
4111,-354,40,940,-156,-1379,-64
4112,-351,-5,959,-155,-1500,-78
4113,-331,22,887,-156,-1619,-76
4114,-339,-40,923,-156,-1729,-72
4115,-308,-35,900,-144,-1836,-67
4116,-300,-53,940,-128,-1933,-65
4117,-231,-66,921,-104,-2025,-73
4118,-194,-39,942,-79,-2098,-90
4119,-3,-11,911,-63,-2142,-90
4120,-14,19,961,-59,-2141,-95
4121,86,63,1009,-59,-2107,-91
4122,246,1,1196,-86,-2039,-99
4123,1291,-755,1900,-56,-1804,-69
4124,505,-223,1394,192,-1250,17
4125,-258,217,805,317,-1027,-139
4126,-104,141,681,307,-1055,-260
4127,202,32,900,212,-1035,-171
4128,236,-83,904,115,-997,-45
4129,198,-14,900,50,-938,109
4130,282,60,884,0,-876,187
4131,226,-25,982,-20,-805,198
4132,322,153,868,-29,-729,226
4133,319,69,968,-68,-642,215
4134,304,60,903,-75,-559,208
4135,257,115,898,-89,-476,216
4136,300,47,956,-96,-406,192
4137,237,83,955,-78,-337,167
4138,342,98,944,-72,-279,158
4139,323,50,972,-68,-227,130
4140,347,70,937,-56,-179,135
4141,366,13,966,-55,-138,126
4142,353,-36,1026,-30,-99,103
4143,325,2,969,-3,-60,92
4144,353,-2,988,7,-25,72
4145,316,23,919,15,13,50
4146,369,54,899,6,52,44
4147,375,57,896,-10,100,26
4148,381,49,932,-25,156,25
4149,388,48,950,-37,220,26
4150,390,-1,1018,-36,286,10
4151,354,17,948,-23,349,0
4152,342,4,933,-18,406,-10
4153,316,10,878,-11,454,-17
4154,304,35,874,-11,500,-6
4155,313,11,924,-13,543,-2
4156,286,1,999,-7,588,-3
4157,294,24,1015,6,630,-9
4158,254,30,1005,14,670,-28
4159,223,60,925,18,707,-39
4160,233,74,896,11,742,-48
4161,244,62,903,0,781,-49
4162,242,45,939,-12,825,-42
4163,245,7,1000,-17,872,-47
4164,216,-4,1005,-6,921,-65
4165,191,15,970,7,966,-84
4166,171,33,938,13,1005,-102
4167,172,62,908,10,1041,-106
4168,163,74,902,-10,1075,-97
