sequence,AccelerometerX,AccelerometerY,AccelerometerZ,GyroscopeX,GyroscopeY,GyroscopeZ
0,-304,-56,959,-38,-60,-10
1,201,-159,1056,-16,-90,-14
2,495,-127,1041,23,-39,2
3,384,-10,1018,35,35,10
4,-32,98,999,14,73,15
5,-435,110,927,-18,52,15
6,-470,26,909,-40,-22,3
7,-94,-110,1001,-34,-78,-13
8,395,-145,1070,-3,-72,-6
9,494,-78,1033,21,-5,7
10,207,33,1013,21,62,11
11,-240,106,966,-1,71,17
12,-525,75,885,-31,23,12
13,-345,-46,931,-45,-54,-8
14,147,-152,1045,-16,-88,-16
15,494,-129,1076,16,-48,0
16,414,-35,1008,28,28,9
17,8,94,1008,27,73,13
18,-412,119,923,-16,57,18
19,-500,32,888,-41,-11,3
20,-159,-103,990,-33,-79,-14
21,367,-152,1082,1,-79,-7
22,510,-109,1035,19,-15,6
23,255,25,1009,41,55,9
24,-199,119,981,5,73,14
25,-516,81,883,-29,30,14
26,-381,-26,922,-36,-45,-6
27,93,-128,1048,-14,-91,-15
28,477,-140,1081,8,-54,-2
29,435,-52,999,27,18,6
30,55,93,1012,35,70,11
31,-363,110,929,-20,59,18
32,-508,32,885,-32,-3,5
33,-210,-79,996,-29,-73,-13
34,311,-153,1077,-6,-86,-10
35,497,-121,1025,18,-23,4
36,301,20,1008,48,46,10
37,-141,113,985,10,75,14
38,-486,82,896,-22,39,15
39,-419,-3,926,-26,-37,-2
40,24,-120,1041,-22,-89,-14
41,444,-154,1060,8,-64,-3
42,455,-58,1014,34,9,7
43,112,76,1006,39,67,11
44,-304,101,944,-9,66,17
45,-513,55,893,-17,7,9
46,-257,-55,981,-31,-64,-9
47,240,-158,1065,-15,-87,-12
48,485,-121,1027,20,-31,2
49,350,10,1017,39,39,9
50,-76,100,987,13,73,12
51,-456,91,917,-17,46,14
52,-450,18,916,-28,-29,-1
53,-50,-110,1022,-31,-82,-13
54,407,-158,1054,0,-69,-5
55,477,-72,1021,30,1,8
56,174,56,1021,34,60,11
57,-267,104,954,-4,69,12
58,-519,64,891,-22,16,10
59,-305,-40,959,-29,-60,-6
60,182,-158,1047,-19,-86,-14
61,493,-137,1050,21,-41,3
62,390,-12,1016,42,32,8
63,-18,96,996,23,71,10
64,-435,103,916,-10,53,14
65,-477,28,911,-26,-19,3
66,-110,-101,1000,-29,-79,-12
67,387,-161,1066,2,-74,-9
68,497,-90,1030,29,-10,8
69,219,43,1017,41,58,9
70,-229,108,962,7,70,10
71,-516,82,888,-15,26,11
72,-340,-23,946,-30,-51,-5
73,134,-142,1043,-19,-87,-13
74,478,-146,1066,20,-48,0
75,407,-40,1009,44,23,9
76,12,81,996,40,73,10
77,-399,97,918,6,58,13
78,-486,38,903,-7,-7,5
79,-158,-83,1005,-15,-73,-9
80,345,-152,1068,10,-78,-8
81,485,-104,1035,37,-17,6
82,253,27,999,55,49,7
83,-181,110,970,28,72,6
84,-491,79,897,-3,31,8
85,-361,-8,939,-13,-44,-1
86,79,-117,1048,-1,-84,-9
87,442,-151,1059,19,-55,1
88,407,-66,1013,50,15,9
89,57,74,981,53,63,2
90,-322,105,946,5,57,2
91,-473,32,896,-18,0,2
92,-195,-54,1004,-8,-67,-3
93,254,-157,1063,2,-79,-9
94,399,-165,1033,32,-25,6
95,211,-60,975,59,23,10
96,-129,62,954,66,46,-9
97,-389,59,929,19,17,-15
98,-326,-2,956,23,-43,4
99,-21,-27,1082,35,-87,20
100,297,-97,1039,20,-81,13
101,377,-79,994,44,-29,0
102,165,18,969,51,26,-9
103,-131,84,943,28,43,-9
104,-321,107,954,20,14,-4
105,-194,71,990,1,-35,7
106,115,14,1066,-17,-57,15
107,313,-41,1027,-23,-30,13
108,268,-23,995,-14,19,-1
109,9,15,970,-22,52,-13
110,-253,1,911,-36,49,-8
111,-298,-15,939,-13,5,6
112,-97,-37,1055,-12,-39,16
113,197,-132,1040,-20,-45,11
114,276,-109,1002,27,-13,-1
115,105,-45,982,35,25,-6
116,-160,-20,916,32,35,-6
117,-326,15,930,51,6,-4
118,-186,-1,1003,37,-45,6
119,108,-45,1057,28,-67,13
120,319,-46,1031,40,-44,10
121,260,18,1009,55,4,-3
122,-13,39,966,24,39,-16
123,-252,39,932,20,31,-13
124,-276,39,944,11,-7,3
125,-74,35,1004,-2,-46,22
126,231,3,1084,-17,-48,24
127,313,-21,1032,-8,-11,7
128,151,5,986,-4,30,-14
129,-137,-23,941,-32,48,-25
130,-307,-38,887,-22,23,-11
131,-220,-8,981,-11,-22,15
132,30,-38,1094,-30,-51,28
133,272,-91,1039,-16,-43,11
134,258,-50,986,21,-4,-6
135,-8,-32,952,9,35,-13
136,-236,-33,918,8,26,-6
137,-293,-10,947,27,-11,4
138,-106,-16,1049,22,-54,14
139,210,-71,1047,16,-66,18
140,307,-54,1008,56,-28,8
141,160,-7,1000,57,15,-10
142,-85,-64,996,30,34,-23
143,-270,-132,909,42,17,-11
144,-256,-58,904,89,-26,11
145,-23,-8,1055,80,-61,33
146,214,-55,1073,60,-56,44
147,233,-52,1057,102,-22,24
148,64,-71,1002,109,3,-22
149,-92,-169,901,94,5,-55
150,-211,-181,880,133,-10,-33
151,-172,-72,996,170,-36,28
152,6,-1,1111,162,-62,62
153,153,-33,1072,162,-57,36
154,168,-90,994,187,-39,-16
155,24,-143,923,199,-22,-48
156,-145,-170,919,208,-13,-41
157,-215,-118,956,230,-38,8
158,-87,-24,1038,253,-71,54
159,118,20,1081,252,-80,49
160,192,-23,1038,253,-63,6
161,107,-90,970,265,-42,-36
162,-66,-120,920,282,-29,-48
163,-227,-105,907,292,-36,-20
164,-178,-32,966,302,-71,31
165,18,45,1072,306,-95,59
166,187,53,1084,302,-91,38
167,194,5,1010,300,-63,-9
168,46,-53,945,305,-45,-45
169,-141,-77,893,307,-36,-45
170,-209,-30,913,312,-52,1
171,-106,72,1021,317,-85,50
172,123,126,1100,300,-97,58
173,215,96,1055,287,-81,22
174,146,40,973,283,-54,-27
175,-22,-8,908,271,-36,-49
176,-171,-8,880,266,-33,-29
177,-149,75,960,261,-57,25
178,13,174,1070,247,-81,61
179,189,193,1102,216,-77,45
180,205,147,1003,193,-52,-3
181,74,90,929,174,-26,-43
182,-75,58,883,152,-12,-45
183,-160,98,908,138,-16,-5
184,-86,200,1017,119,-43,45
185,129,274,1088,82,-55,60
186,222,255,1061,38,-34,26
187,169,192,957,6,-5,-23
188,13,143,907,-26,17,-51
189,-116,135,884,-56,26,-35
190,-124,206,940,-87,14,17
191,11,314,1056,-125,-8,59
192,185,348,1096,-178,-3,50
193,218,289,1001,-235,23,4
194,101,222,910,-266,52,-41
195,-27,183,893,-307,70,-51
196,-128,195,906,-350,72,-16
197,-68,284,1002,-388,54,41
198,116,359,1078,-441,44,63
199,221,343,1044,-494,66,32
200,190,269,951,-544,95,-21
201,50,198,902,-587,121,-54
202,-86,174,901,-633,133,-41
203,-118,220,936,-678,127,10
204,-3,294,1027,-718,110,57
205,180,325,1064,-762,111,50
206,236,274,1013,-815,140,4
207,135,189,930,-863,172,-42
208,-21,143,895,-906,192,-51
209,143,-533,1649,-1014,211,-24
210,-642,-1824,799,-1024,162,65
211,-191,-958,1318,-229,69,27
212,-386,-474,658,-371,85,-34
213,-98,-602,539,-319,4,-23
214,-21,-672,386,-100,-49,53
215,-39,-434,1020,111,-35,6
216,95,-441,1162,115,1,-84
217,55,-608,583,155,18,-56
218,175,-581,632,322,-7,5
219,52,236,1617,405,-17,41
220,57,408,966,162,7,59
221,-491,703,702,169,28,30
222,-373,994,1241,104,-63,-19
223,355,408,907,-83,-115,17
224,258,228,1053,-87,-16,11
225,473,-246,1232,-149,7,-22
226,223,-349,990,-100,62,30
227,-302,-129,926,-54,102,27
228,-414,-311,726,-72,32,17
229,-514,-254,832,4,-33,8
230,-35,-157,1151,45,-102,-41
231,501,-53,1071,43,-80,-4
232,456,173,984,61,3,15
233,154,267,1105,23,54,5
234,-323,192,953,-28,55,24
235,-498,75,874,-47,6,12
236,-170,-166,959,-53,-61,-17
237,266,-271,1023,-23,-74,-14
238,458,-227,1062,14,-21,0
239,261,-48,1038,42,42,14
240,-190,129,950,36,63,30
241,-461,147,897,10,22,24
242,-362,52,938,-7,-40,-6
243,75,-57,1051,-11,-82,-23
244,464,-110,1061,-5,-57,-8
245,431,-60,1032,11,15,11
246,26,10,996,14,65,20
247,-405,29,925,4,53,18
248,-487,-3,900,-3,-11,1
249,-139,-96,959,0,-75,-17
250,334,-137,1048,15,-82,-12
251,509,-87,1054,36,-21,-1
252,244,25,1028,50,47,9
253,-235,99,958,42,66,18
254,-476,83,910,23,18,11
255,-362,-34,929,4,-48,-14
256,96,-150,1027,14,-86,-22
257,477,-175,1037,37,-58,-10
258,418,-82,1008,94,15,5
259,39,59,996,120,61,12
260,-382,111,954,95,48,8
261,-486,59,933,67,-9,-7
262,-178,-40,970,42,-73,-14
263,254,-151,1057,41,-83,-6
264,432,-185,1014,73,-39,12
265,282,-32,987,145,16,3
266,-66,67,1003,139,48,-27
267,-352,50,923,102,28,-30
268,-396,35,941,96,-24,-10
269,-132,-1,1031,72,-76,11
270,236,-100,1034,55,-86,16
271,413,-95,1012,100,-48,6
272,254,-30,1006,121,15,-17
273,-38,-66,1063,102,39,-33
274,-324,-158,909,104,26,-35
275,-350,-109,882,150,-28,-20
276,-103,-66,1023,143,-70,13
277,195,-117,1071,116,-72,49
278,257,-101,1080,175,-42,45
279,114,-103,1042,205,-16,-11
280,-74,-211,920,196,-14,-66
281,-207,-249,856,239,-22,-64
282,-189,-164,959,273,-48,-4
283,-48,-83,1095,283,-75,49
284,125,-78,1124,295,-82,47
285,157,-121,1015,334,-69,-2
286,29,-173,931,358,-51,-49
287,-130,-223,894,368,-47,-57
288,-207,-191,939,399,-61,-16
289,-124,-100,1036,431,-95,34
290,83,-41,1079,446,-115,49
291,180,-44,1066,466,-103,20
292,116,-103,978,476,-81,-25
293,-52,-155,925,498,-69,-53
294,-190,-159,900,518,-77,-39
295,-187,-94,943,540,-102,8
296,-28,-5,1051,553,-133,46
297,159,31,1099,562,-135,44
298,187,0,1047,566,-113,6
299,62,-65,945,575,-90,-38
300,-78,-117,893,587,-85,-54
301,-192,-92,886,607,-94,-23
302,-151,5,987,622,-121,27
303,38,83,1097,616,-148,52
304,167,73,1084,612,-138,29
305,162,1,995,619,-116,-16
306,37,-62,916,628,-98,-51
307,-99,-95,888,635,-92,-49
308,-171,-34,893,646,-107,-3
309,-87,83,1038,656,-136,41
310,105,132,1120,639,-148,47
311,186,80,1062,630,-129,11
312,115,13,966,637,-106,-32
313,-3,-34,879,632,-94,-52
314,-145,-29,851,636,-95,-31
315,-147,77,941,648,-117,19
316,2,184,1089,627,-141,53
317,165,201,1130,607,-138,41
318,189,132,1021,585,-110,-3
319,75,67,913,583,-93,-41
320,-65,45,851,576,-83,-47
321,-150,92,854,561,-90,-13
322,-97,223,997,550,-116,38
323,107,306,1140,507,-130,57
324,201,281,1112,466,-109,31
325,148,206,975,437,-80,-17
326,25,145,845,416,-70,-44
327,-100,164,816,394,-62,-35
328,-106,262,909,356,-75,12
329,18,383,1083,316,-93,57
330,193,417,1160,260,-87,58
331,211,361,1037,211,-55,13
332,95,276,888,171,-28,-31
333,-30,236,809,137,-21,-51
334,-94,280,857,95,-20,-27
335,-43,384,997,46,-34,29
336,147,469,1136,-13,-38,64
337,227,440,1110,-78,-13,42
338,155,350,950,-125,18,-11
339,24,269,843,-164,32,-56
340,-74,252,822,-207,39,-58
341,-76,311,913,-253,33,-11
342,39,409,1076,-306,20,51
343,198,438,1143,-369,29,63
344,208,364,1032,-423,58,20
345,84,272,881,-456,83,-36
346,-19,212,842,-493,92,-66
347,-96,212,865,-539,93,-45
348,-58,295,999,-568,83,15
349,113,363,1113,-628,72,60
350,208,346,1093,-671,94,46
351,158,259,951,-711,122,-7
352,30,175,857,-741,136,-53
353,-75,146,861,-769,143,-60
354,-109,186,913,-804,140,-23
355,0,258,1048,-834,123,25
356,174,285,1110,-867,123,34
357,220,222,1039,-898,150,0
358,110,133,901,-922,174,-48
359,-20,87,858,-943,189,-77
360,-145,82,875,-977,191,-74
361,-105,125,975,-992,170,-42
362,66,174,1090,-1003,151,-13
363,199,155,1069,-1012,163,-20
364,171,80,967,-1030,189,-51
365,18,22,888,-1044,208,-80
366,-130,-7,886,-1067,214,-91
367,-171,5,925,-1077,200,-73
368,-42,47,1024,-1069,174,-39
369,161,69,1084,-1063,167,-25
370,217,24,1029,-1068,191,-40
371,97,-34,951,-1075,216,-65
372,-81,-69,889,-1089,227,-86
373,-222,-100,916,-1093,217,-86
374,-4,-1226,1805,-1202,205,-50
375,-416,-1895,587,-950,118,49
376,-233,-858,1048,-90,95,-52
377,-323,-310,813,-310,87,-129
378,-133,-1014,222,-450,13,-68
379,-296,-941,322,10,-45,23
380,-17,-764,1109,247,-65,-64
381,259,-612,1134,346,-27,-134
382,4,-377,990,342,4,-83
383,239,427,1346,425,-60,50
384,-151,906,1342,435,-5,20
385,-342,460,918,209,-56,-61
386,0,160,579,222,-105,-47
387,62,408,910,252,-72,4
388,149,376,1174,33,-29,50
389,319,235,1228,-79,-32,73
390,279,205,1045,-17,12,-6
391,93,144,843,-67,40,-66
392,-71,34,837,-146,59,-87
393,-174,-177,1204,-200,70,-37
394,-302,-378,1016,-182,14,32
395,155,-275,949,-32,-34,16
396,111,-282,1024,-54,7,0
397,87,-274,817,18,14,17
398,-213,-3,1035,131,22,9
399,-375,21,968,82,-9,-29
400,-99,-57,941,80,-73,-10
401,154,-61,997,120,-80,19
402,286,-1,1040,143,-48,21
403,199,8,1076,133,-9,-17
404,-13,-57,1041,139,11,-46
405,-202,-147,909,128,3,-49
406,-284,-145,858,151,-22,-31
407,-162,-70,1026,153,-59,10
408,110,-92,1109,127,-80,44
409,236,-93,1078,174,-58,41
410,166,-101,1015,208,-30,-6
411,-21,-172,931,205,-18,-55
412,-195,-228,899,220,-21,-65
413,-241,-168,938,260,-51,-23
414,-104,-97,1045,276,-84,29
415,110,-76,1090,296,-96,43
416,183,-98,1052,335,-81,13
417,85,-170,964,351,-63,-31
418,-79,-212,913,374,-53,-55
419,-222,-215,919,396,-63,-40
420,-168,-159,984,429,-97,7
421,21,-99,1075,458,-122,36
422,175,-87,1093,493,-120,27
423,158,-126,1015,512,-98,-10
424,0,-183,947,530,-84,-47
425,-174,-207,901,552,-82,-51
426,-218,-160,928,576,-105,-16
427,-96,-80,1019,605,-137,32
428,129,-20,1091,627,-152,48
429,203,-13,1073,649,-136,22
430,102,-71,979,653,-111,-24
431,-67,-125,902,664,-103,-53
432,-199,-122,868,680,-108,-37
433,-164,-37,949,703,-136,12
434,0,50,1066,710,-162,53
435,183,83,1114,714,-162,50
436,189,56,1030,710,-138,9
437,51,-14,921,702,-114,-38
438,-86,-52,865,705,-110,-52
439,-163,-15,882,715,-117,-19
440,-104,96,1003,717,-144,35
441,92,192,1098,703,-161,61
442,194,190,1095,679,-147,37
443,154,132,974,658,-120,-14
444,29,76,882,640,-102,-49
445,-78,73,850,624,-94,-43
446,-101,155,906,613,-102,5
447,-1,287,1051,585,-123,53
448,165,361,1133,545,-122,56
449,200,330,1058,483,-96,15
450,95,245,898,442,-68,-30
451,-4,221,854,420,-57,-52
452,-106,271,856,363,-55,-27
453,-88,383,949,310,-67,29
454,82,511,1116,246,-84,65
455,211,511,1099,164,-65,51
456,203,444,981,104,-32,4
457,88,387,869,44,-7,-38
458,-15,371,840,-23,7,-46
459,-63,428,865,-88,9,-6
460,18,558,1027,-154,0,48
461,188,623,1130,-247,6,63
462,240,558,1044,-341,38,26
463,141,465,903,-397,68,-28
464,39,409,833,-464,85,-61
465,-62,400,846,-537,97,-46
466,-33,467,936,-614,95,11
467,110,548,1094,-686,91,57
468,241,533,1099,-768,111,46
469,214,434,971,-838,145,-7
470,87,338,864,-898,168,-59
471,-37,277,837,-960,184,-73
472,-92,296,884,-1012,188,-38
473,-11,359,1007,-1066,178,13
474,178,381,1098,-1123,177,26
475,244,318,1041,-1171,202,-8
476,159,229,927,-1216,232,-59
477,14,156,851,-1267,254,-90
478,-129,132,843,-1307,264,-88
479,-109,163,938,-1335,247,-56
480,49,199,1052,-1354,228,-25
481,205,185,1082,-1371,235,-27
482,191,118,967,-1403,265,-51
483,37,34,884,-1434,288,-76
484,-141,-13,854,-1442,295,-88
485,-87,-278,1165,-1469,279,-73
486,-641,-1807,1464,-1659,212,6
487,-210,-1416,988,-419,85,-2
488,-395,-155,511,-543,120,-164
489,72,-615,427,-659,115,-309
490,-209,-981,-177,-485,97,-210
491,-925,-971,265,-62,10,-203
492,-31,-814,1353,297,-144,-399
493,225,-664,1273,223,-62,-315
494,163,-863,383,212,19,-223
495,245,-972,581,441,-28,-197
496,338,-434,1102,677,-26,-113
497,-296,116,1379,642,-22,-31
498,-234,618,1368,539,-100,56
499,-331,652,1282,422,-89,33
500,-34,415,1102,455,-170,-21
501,631,122,714,344,-174,8
502,370,321,1002,412,-38,16
503,-53,220,1017,149,44,-25
504,-238,91,1151,102,-27,-35
505,-105,22,865,176,-55,-68
506,6,70,840,161,-67,-17
507,196,142,1052,119,-40,31
508,164,57,1180,33,-13,41
509,-33,-19,1016,114,-1,-16
510,-87,-68,863,131,-23,-69
511,-150,-132,868,115,-30,-66
512,-84,-138,928,86,-35,0
513,27,-50,1164,134,-51,58
514,146,-49,1135,160,-49,39
515,117,-130,1004,183,-40,-19
516,7,-239,874,203,-26,-65
517,-159,-272,884,235,-21,-55
518,-254,-196,994,276,-40,-9
519,-141,-146,1067,289,-82,36
520,96,-130,1101,334,-105,41
521,189,-160,1031,366,-89,14
522,97,-223,977,384,-66,-24
523,-72,-276,929,409,-57,-43
524,-238,-281,915,460,-68,-29
525,-193,-217,975,515,-107,12
526,-9,-161,1060,549,-136,42
527,159,-150,1104,583,-136,34
528,156,-183,1031,616,-118,-2
529,7,-241,957,647,-103,-39
530,-161,-273,887,689,-105,-47
531,-232,-240,900,732,-126,-16
532,-136,-147,1012,779,-164,35
533,86,-87,1106,804,-184,53
534,176,-94,1089,837,-173,27
535,111,-140,989,862,-151,-20
536,-34,-203,898,878,-144,-50
537,-171,-209,848,914,-144,-41
538,-178,-125,935,957,-169,7
539,-48,-13,1067,986,-202,52
540,139,26,1130,995,-209,49
541,161,-6,1045,1005,-191,7
542,49,-69,918,1011,-172,-37
543,-67,-114,848,1026,-168,-53
544,-148,-80,860,1052,-173,-25
545,-122,32,978,1074,-201,32
546,66,150,1109,1083,-224,63
547,176,160,1120,1063,-208,42
548,137,94,975,1048,-184,-5
549,18,38,867,1041,-172,-44
550,-76,23,815,1040,-170,-47
551,-115,107,859,1045,-180,-4
552,-27,258,1039,1036,-203,50
553,145,349,1151,1000,-204,65
554,194,313,1073,945,-178,33
555,103,235,912,919,-156,-19
556,14,193,806,884,-145,-50
557,-81,225,805,860,-144,-36
558,-66,357,934,824,-153,15
559,87,486,1111,765,-165,61
560,210,524,1137,698,-146,60
561,193,457,1008,631,-113,14
562,76,377,846,569,-92,-36
563,-30,350,789,517,-85,-55
564,-78,412,822,466,-88,-24
565,4,561,1014,409,-97,34
566,179,642,1158,318,-95,63
567,244,584,1093,229,-62,39
568,147,489,927,163,-32,-15
569,33,419,796,99,-19,-57
570,-61,406,792,33,-12,-54
571,-32,497,918,-28,-15,-3
572,101,603,1116,-100,-20,54
573,235,607,1152,-190,-3,61
574,211,515,1004,-262,32,13
575,81,414,854,-329,52,-43
576,-28,354,790,-389,61,-71
577,-57,369,854,-444,66,-42
578,15,456,1007,-490,61,23
579,198,520,1149,-548,64,65
580,245,471,1097,-619,92,42
581,139,360,935,-679,122,-20
582,7,261,819,-729,131,-69
583,-80,224,803,-768,138,-71
584,-51,274,927,-790,136,-22
585,75,346,1083,-825,124,42
586,221,348,1143,-866,134,56
587,203,273,1019,-899,163,11
588,75,187,894,-944,185,-44
589,-33,84,799,-992,194,-73
590,-107,89,856,-973,197,-52
591,-65,168,1012,-976,177,2
592,111,216,1122,-994,161,39
593,179,182,1094,-1012,179,24
594,110,83,946,-1034,202,-22
595,-25,-2,856,-1048,209,-61
596,-136,-28,833,-1048,209,-71
597,-146,7,928,-1039,193,-47
598,-13,56,1063,-1028,164,-10
599,166,66,1140,-1014,161,-2
600,179,0,1034,-1015,185,-28
601,42,-86,905,-1010,204,-64
602,-94,-142,859,-1004,206,-85
603,-195,-156,882,-975,193,-80
604,-135,-96,1013,-931,164,-44
605,56,-61,1115,-904,139,-12
606,161,-98,1081,-874,148,-15
607,119,-162,986,-851,167,-45
608,-40,-238,900,-828,177,-76
609,-182,-266,895,-788,169,-83
610,-205,-244,938,-739,142,-60
611,-77,-196,1058,-686,108,-20
612,107,-177,1118,-632,95,-4
613,153,-228,1055,-601,109,-19
614,25,-291,964,-555,125,-52
615,-129,-336,905,-513,123,-73
616,-252,-346,915,-460,101,-63
617,-204,-297,992,-391,64,-24
618,-8,-247,1109,-337,31,8
619,141,-270,1094,-282,32,9
620,116,-313,1023,-224,48,-17
621,-47,-357,946,-173,55,-50
622,-216,-385,916,-122,46,-60
623,-262,-360,938,-63,11,-36
624,-134,-293,1038,8,-28,9
625,89,-253,1116,62,-47,31
626,153,-275,1083,118,-35,14
627,46,-317,992,169,-20,-23
628,-123,-342,920,220,-23,-49
629,-258,-338,897,267,-40,-41
630,-209,-283,964,325,-78,3
631,-22,-201,1087,385,-110,42
632,149,-170,1124,429,-114,43
633,143,-203,1025,466,-95,7
634,-1,-248,946,509,-83,-34
635,-166,-276,889,550,-88,-45
636,-235,-243,908,596,-109,-14
637,-136,-143,1017,644,-146,37
638,88,-78,1113,669,-165,58
639,180,-87,1080,694,-154,35
640,113,-124,984,724,-132,-10
641,-37,-180,908,743,-125,-46
642,-173,-194,862,774,-128,-37
643,-172,-114,930,812,-152,10
644,-36,-1,1068,839,-183,57
645,143,32,1125,839,-185,57
646,166,-4,1036,847,-167,15
647,59,-65,928,863,-146,-33
648,-55,-114,869,871,-142,-51
649,-152,-86,868,894,-148,-25
650,-119,25,985,917,-171,32
651,59,122,1104,919,-195,63
652,167,129,1101,905,-182,44
653,136,69,987,898,-161,-7
654,19,2,887,899,-146,-48
655,-86,-20,844,897,-146,-50
656,-138,49,875,908,-158,-5
657,-43,179,1035,909,-180,50
658,128,251,1133,885,-187,67
659,184,219,1076,854,-163,29
660,92,138,931,834,-143,-25
661,0,86,838,822,-135,-55
662,-108,106,828,814,-137,-40
663,-91,212,939,803,-149,15
664,52,331,1096,767,-168,65
665,180,367,1136,731,-155,61
666,181,294,1017,680,-126,12
667,62,211,865,655,-108,-39
668,-48,189,818,633,-104,-58
669,-94,237,841,600,-111,-25
670,-19,372,1010,575,-122,36
671,157,461,1145,515,-123,70
672,227,429,1111,454,-96,45
673,141,339,949,405,-66,-11
674,23,279,810,364,-55,-53
675,-76,287,802,333,-52,-52
676,-55,385,912,283,-60,-2
677,71,508,1093,223,-67,55
678,216,548,1167,144,-54,66
679,203,480,1025,67,-19,22
680,75,395,864,6,0,-34
681,-41,364,790,-36,5,-65
682,-74,414,848,-94,7,-35
683,-3,535,990,-172,-2,30
684,179,625,1136,-246,2,74
685,238,596,1102,-338,30,53
686,152,499,931,-406,61,-8
687,27,423,814,-469,74,-61
688,-53,406,796,-534,82,-65
689,-23,463,907,-599,82,-13
690,99,557,1068,-669,79,51
691,240,581,1145,-741,94,65
692,226,514,1023,-828,129,23
693,103,389,849,-896,157,-38
694,-4,332,798,-948,167,-70
695,-63,337,857,-996,177,-50
696,-9,402,983,-1048,168,10
697,157,464,1100,-1101,167,55
698,226,435,1080,-1167,191,41
699,163,334,929,-1228,220,-13
700,26,229,826,-1279,237,-60
701,-75,195,822,-1311,245,-69
702,-88,232,902,-1343,242,-33
703,25,292,1039,-1379,225,12
704,187,309,1111,-1417,229,16
705,206,218,999,-1475,254,-25
706,83,114,857,-1479,278,-73
707,-36,73,847,-1505,290,-102
708,-136,40,859,-1532,292,-97
709,-84,83,973,-1530,271,-58
710,90,110,1074,-1528,254,-27
711,196,89,1046,-1527,268,-33
712,146,7,939,-1545,293,-61
713,-13,-62,868,-1550,310,-88
714,-158,-97,874,-1558,309,-95
715,-198,-80,915,-1540,289,-72
716,-54,-45,1017,-1518,256,-32
717,347,-264,1299,-1514,249,-21
718,-277,-1802,1670,-1655,287,13
719,-453,-1659,1030,-676,167,-9
720,-682,-331,612,-557,145,-190
721,-189,-555,213,-688,131,-372
722,-373,-967,-321,-577,132,-357
723,-1022,-1268,59,-202,-6,-397
724,298,-1124,1281,402,-220,-569
725,571,-531,1558,469,-73,-380
726,77,-544,600,193,78,-259
727,-64,-921,290,348,24,-258
728,-343,-234,1041,683,-53,-205
729,101,426,1699,629,-207,-95
730,362,639,1293,411,-108,79
731,-123,636,1076,297,-55,-12
732,405,457,1248,404,-132,-48
733,321,104,428,84,-60,-2
734,-261,478,832,236,65,-27
735,-203,537,1276,-119,-10,7
736,81,237,1138,-182,-63,21
737,343,328,934,-67,-25,17
738,274,425,872,-167,24,6
739,241,162,1164,-346,80,-29
740,-214,-387,1123,-397,117,-19
741,-385,-491,858,-174,37,21
742,-227,-587,985,-211,-12,10
743,61,-715,823,-135,-31,-1
744,319,-381,907,98,-24,29
745,-16,90,1151,197,28,4
746,-207,228,945,121,12,-16
747,-274,331,883,110,-28,11
748,-100,282,1012,44,-59,10
749,221,95,1082,-51,-60,11
750,352,43,1119,-30,-20,1
751,286,2,1005,-63,26,1
752,-75,-23,943,-72,66,18
753,-420,-88,923,-98,43,22
754,-393,-172,955,-95,-24,-5
755,-12,-198,982,-57,-70,-13
756,410,-114,1010,1,-63,11
757,411,4,1019,28,6,27
758,59,120,1016,38,56,9
759,-337,134,991,-3,47,-4
760,-447,78,912,-46,-10,4
761,-171,-46,948,-79,-67,1
762,270,-192,1033,-78,-77,-8
763,463,-184,1034,-15,-26,5
764,277,-22,1022,39,35,14
765,-122,89,972,28,58,16
766,-442,107,925,-19,31,12
767,-423,36,961,-58,-36,-6
768,7,-74,1007,-68,-85,-16
769,424,-102,1045,-29,-66,0
770,464,-23,1004,-5,3,27
771,154,86,1037,-9,61,23
772,-297,55,967,-45,66,5
773,-512,52,928,-54,12,7
774,-264,-46,936,-71,-59,-1
775,208,-146,1011,-52,-79,-10
776,503,-118,1056,-17,-34,-1
777,364,-32,1033,-3,37,12
778,-57,63,998,-5,74,23
779,-418,97,929,-24,50,23
780,-468,12,898,-42,-13,2
781,-72,-101,989,-35,-72,-19
782,368,-131,1047,-19,-66,-7
783,493,-66,1038,0,-4,9
784,203,32,1023,4,60,19
785,-272,83,966,-11,68,25
786,-502,68,916,-28,21,13
787,-312,-39,921,-43,-49,-11
788,151,-132,1019,-30,-80,-14
789,506,-114,1068,-13,-42,-1
790,398,-28,1039,-4,31,12
791,-17,78,1008,-6,74,25
792,-392,113,943,-29,53,27
793,-470,32,895,-50,-2,5
794,-141,-97,960,-48,-63,-21
795,314,-114,1068,-35,-71,-15
796,488,-65,1056,-29,-16,10
797,278,52,1029,-22,50,21
798,-126,140,1027,-36,76,35
799,-340,136,968,-76,48,40
800,-378,20,856,-86,5,6
801,-118,-71,966,-71,-47,-32
802,216,-67,1115,-65,-60,-10
803,347,81,1167,-83,-24,21
804,274,202,1123,-125,28,26
805,-19,310,1024,-165,63,37
806,-266,288,929,-215,43,48
807,-272,157,960,-249,-4,35
808,-87,88,1113,-270,-34,3
809,149,132,1197,-304,-24,-23
810,220,210,1141,-358,11,-19
811,77,299,1024,-401,35,7
812,-95,327,1000,-451,31,27
813,-218,217,995,-503,10,20
814,-141,86,1035,-536,-14,-14
815,53,18,1100,-558,-23,-38
816,213,62,1131,-580,-5,-29
817,191,154,1073,-613,21,0
818,-1,210,987,-647,38,24
819,-199,169,959,-682,30,21
820,-228,49,962,-709,6,-11
821,-77,-69,1007,-718,-18,-38
822,171,-86,1083,-720,-21,-40
823,268,2,1099,-724,6,-17
824,143,111,1024,-750,37,14
825,-67,145,939,-776,45,29
826,-239,90,920,-800,33,17
827,-184,-32,966,-813,4,-16
828,14,-117,1047,-814,-15,-33
829,217,-59,1109,-816,-3,-25
830,229,68,1087,-831,27,-4
831,57,145,981,-862,53,19
832,-163,140,908,-889,54,24
833,-235,24,917,-909,30,0
834,-124,-118,990,-913,1,-26
835,123,-148,1087,-907,-9,-29
836,240,-67,1099,-911,12,-12
837,166,40,1030,-925,45,8
838,-24,75,911,-947,62,23
839,-192,17,853,-961,57,18
840,-178,-130,905,-959,30,-7
841,-16,-265,1006,-943,4,-25
842,177,-247,1083,-919,6,-14
843,212,-138,1054,-914,34,7
844,68,-69,930,-918,62,22
845,-112,-77,819,-912,69,23
846,-237,-213,784,-892,52,2
847,-185,-417,868,-850,15,-31
848,27,-511,977,-787,-11,-42
849,154,-451,1016,-734,0,-22
850,130,-333,942,-700,24,0
851,-23,-272,799,-665,37,13
852,-170,-298,707,-620,31,9
853,-192,-432,750,-562,6,-15
854,-48,-579,900,-490,-27,-34
855,146,-581,1016,-416,-31,-23
856,205,-444,1015,-362,-8,4
857,79,-323,879,-323,22,19
858,-78,-289,744,-279,29,22
859,-223,-370,693,-225,14,9
860,-167,-529,817,-160,-18,-18
861,45,-613,985,-83,-44,-25
862,206,-532,1038,-17,-32,-1
863,182,-366,962,33,-1,19
864,15,-271,810,70,20,28
865,-156,-295,719,111,17,27
866,-205,-418,744,162,-5,8
867,-61,-545,919,230,-35,-14
868,170,-533,1057,295,-42,-6
869,232,-394,1023,345,-16,25
870,100,-233,908,375,11,45
871,-83,-178,787,402,17,51
872,-246,-252,740,430,4,39
873,-203,-382,843,480,-26,1
874,10,-458,1016,531,-51,-21
875,202,-394,1078,573,-43,-5
876,198,-229,1002,599,-13,23
877,25,-124,871,615,3,38
878,-175,-136,777,628,2,43
879,-249,-241,791,656,-23,22
880,-118,-373,930,700,-56,-15
881,134,-394,1076,742,-63,-22
882,222,-283,1060,771,-39,-2
883,116,-153,941,787,-13,21
884,-86,-104,817,800,-8,33
885,-248,-165,756,819,-21,29
886,-190,-298,853,855,-55,-4
887,20,-395,1002,900,-73,-30
888,231,-344,1076,938,-63,-21
889,224,-206,997,966,-31,4
890,43,-115,865,982,-7,27
891,-152,-117,780,1000,-13,39
892,-230,-216,801,1029,-33,24
893,-101,-333,940,1068,-64,-9
894,153,-346,1043,1110,-68,-21
895,242,-244,1026,1141,-42,-4
896,145,-115,929,1165,-13,21
897,-69,-62,835,1176,-5,45
898,-231,-104,806,1191,-21,49
899,-193,-205,885,1217,-52,16
900,3,-274,991,1250,-70,-17
901,204,-232,1027,1283,-57,-19
902,215,-117,985,1300,-30,4
903,40,-28,901,1314,-9,35
904,-143,-9,855,1316,-14,56
905,-247,-82,845,1329,-39,37
906,-130,-184,920,1353,-65,-2
907,71,-147,1021,1386,-76,-23
908,-134,1459,1751,1197,-53,-44
909,-164,627,1190,774,-112,26
910,-793,529,428,951,-178,51
911,-244,817,1165,929,-275,-39
912,558,-52,241,627,-314,81
913,259,414,785,634,-113,151
914,166,936,1775,607,-69,52
915,214,74,1305,326,-165,-21
916,291,-276,306,520,-120,-119
917,5,75,685,707,-80,-103
918,-179,35,872,482,-11,-44
919,-298,94,1425,415,-48,13
920,-60,-64,1184,445,-130,17
921,222,-114,817,545,-154,5
922,179,-81,901,639,-107,-33
923,16,-229,940,520,-71,-47
924,-199,-247,1077,555,-65,-49
925,-177,-247,1010,599,-105,-41
926,-59,-197,981,655,-147,-11
927,190,-188,1006,688,-142,8
928,159,-185,1069,704,-118,13
929,-5,-200,1059,744,-99,-22
930,-157,-226,969,764,-117,-55
931,-204,-239,889,797,-137,-61
932,-76,-195,878,810,-158,-20
933,72,-64,1052,858,-168,33
934,182,0,1142,878,-162,40
935,85,-12,1062,907,-148,-1
936,-48,-93,921,928,-143,-58
937,-136,-140,828,935,-154,-76
938,-132,-106,867,949,-159,-38
939,-50,5,1016,957,-176,26
940,128,84,1126,972,-190,59
941,169,72,1082,990,-178,32
942,65,-3,958,1016,-162,-33
943,-69,-96,865,1028,-161,-77
944,-148,-114,849,1036,-167,-69
945,-120,-39,931,1053,-182,-13
946,0,63,1046,1056,-206,47
947,150,117,1114,1067,-206,60
948,146,75,1044,1078,-190,16
949,11,-18,914,1101,-175,-44
950,-80,-84,845,1118,-183,-75
951,-130,-66,851,1137,-196,-55
952,-64,28,949,1147,-209,8
953,84,135,1098,1142,-224,58
954,168,154,1123,1136,-209,53
955,110,86,1012,1142,-189,1
956,-12,1,869,1161,-184,-55
957,-82,-27,817,1174,-192,-73
958,-101,44,839,1177,-202,-34
959,-11,175,1015,1164,-216,29
960,141,266,1144,1134,-220,65
961,179,248,1111,1114,-196,42
962,272,337,1092,1131,-164,-16
963,460,471,1188,1163,-84,-64
964,387,335,1030,1009,39,-15
965,216,291,940,951,142,89
966,122,365,965,874,162,215
967,174,344,988,749,149,314
968,156,321,1014,651,166,362
969,-24,266,1045,580,195,367
970,-148,142,870,507,200,377
971,-163,171,729,506,185,401
972,-49,356,807,524,164,440
973,153,549,1011,490,138,497
974,243,547,1146,385,145,547
975,112,367,1067,267,180,561
976,-101,156,853,213,193,550
977,-192,105,667,227,177,535
978,-135,296,749,279,143,540
979,15,560,974,279,111,561
980,182,652,1177,191,98,588
981,171,506,1124,72,121,582
982,-15,255,915,2,144,540
983,-172,129,713,10,133,486
984,-191,240,711,64,99,436
985,-94,507,902,92,59,410
986,121,670,1093,29,32,398
987,201,638,1146,-66,41,387
988,109,433,1013,-157,67,340
989,-89,198,781,-193,71,272
990,-200,190,687,-148,45,204
991,-169,395,793,-104,0,153
992,-31,636,1011,-123,-40,116
993,147,657,1129,-221,-50,87
994,162,508,1086,-303,-30,61
995,8,327,918,-334,-10,17
996,-137,164,731,-365,-26,-22
997,-171,229,681,-351,-63,-46
998,-82,492,909,-333,-95,-51
999,38,622,1068,-441,-107,-40
1000,100,560,1097,-549,-97,-38
1001,73,403,1037,-613,-93,-39
1002,-40,165,798,-688,-99,-44
1003,-111,189,736,-636,-113,-73
1004,-139,357,784,-631,-127,-99
1005,-71,543,933,-682,-153,-89
1006,69,644,1088,-788,-172,-60
1007,127,497,1106,-925,-160,-52
1008,56,261,910,-1002,-151,-50
1009,203,245,1104,-968,-127,-67
1010,304,230,1244,-968,-38,-84
1011,296,163,1082,-998,57,-38
1012,339,133,990,-1031,92,40
1013,445,160,1070,-1028,115,55
1014,318,92,991,-1032,173,5
1015,0,85,878,-1015,215,-63
1016,-190,190,987,-1004,203,-107
1017,-140,153,925,-1100,169,-95
1018,3,130,838,-1113,154,-54
1019,182,281,1037,-1075,164,-27
1020,212,303,1143,-1113,184,-29
1021,82,197,1011,-1131,204,-61
1022,-82,128,818,-1146,208,-108
1023,-144,132,768,-1164,199,-127
1024,-53,192,863,-1203,181,-105
1025,94,278,1083,-1243,177,-65
1026,215,282,1176,-1263,190,-56
1027,153,195,1009,-1272,212,-87
1028,1,128,852,-1271,224,-133
1029,-100,95,790,-1306,222,-165
1030,-109,102,841,-1351,221,-161
1031,-8,168,1036,-1377,212,-130
1032,186,188,1129,-1390,203,-100
1033,210,142,1050,-1378,221,-107
1034,81,89,912,-1360,243,-144
1035,-66,41,834,-1388,247,-178
1036,-138,17,833,-1425,250,-194
1037,-81,45,947,-1447,242,-180
1038,73,86,1077,-1441,223,-139
1039,205,74,1082,-1424,227,-117
1040,139,35,974,-1401,249,-130
1041,-29,5,879,-1410,266,-162
1042,-142,-15,861,-1450,266,-201
1043,-144,-43,902,-1485,260,-225
1044,-12,-35,1002,-1484,240,-208
1045,168,2,1072,-1450,230,-173
1046,415,-172,1298,-1445,248,-174
1047,87,-1695,1454,-1360,354,-121
1048,-929,-490,1542,-579,277,26
1049,-707,-89,436,-927,105,-128
1050,-264,-20,224,-847,45,-257
1051,-224,-609,222,-755,27,-229
1052,-22,-654,907,-476,-36,-166
1053,431,-281,1744,-390,-37,-157
1054,285,72,1318,-529,77,-140
1055,38,-85,617,-604,125,-90
1056,-179,-4,519,-503,86,-28
1057,-372,20,687,-443,0,-58
1058,129,-231,1278,-426,-82,-128
1059,187,-171,1430,-447,3,-59
1060,15,72,1104,-506,63,-37
1061,-1,105,906,-556,47,-34
1062,-111,188,829,-562,25,27
1063,-231,104,761,-579,-15,43
1064,-8,-164,1077,-573,-58,-5
1065,226,-68,1337,-553,-26,-27
1066,224,95,1132,-598,37,-30
1067,81,94,916,-641,59,-9
1068,-117,144,894,-643,45,30
1069,-230,141,929,-665,10,34
1070,-154,-54,985,-693,-15,-1
1071,36,-136,1071,-686,-16,-37
1072,210,-53,1116,-674,4,-46
1073,202,13,1065,-694,36,-22
1074,10,48,960,-714,48,14
1075,-181,43,887,-732,35,29
1076,-207,-50,881,-739,10,5
1077,-80,-193,940,-728,-10,-30
1078,163,-237,1053,-694,-11,-45
1079,242,-171,1102,-678,19,-32
1080,128,-73,1033,-682,51,-6
1081,-75,-39,892,-694,55,21
1082,-236,-67,796,-693,37,25
1083,-193,-187,834,-677,3,-4
1084,3,-301,984,-638,-22,-33
1085,209,-277,1112,-603,-8,-35
1086,206,-169,1095,-591,31,-20
1087,31,-90,955,-595,57,1
1088,-152,-68,818,-601,49,19
1089,-238,-128,758,-589,19,12
1090,-146,-272,862,-556,-19,-20
1091,106,-340,1070,-511,-36,-38
1092,218,-273,1149,-481,-6,-26
1093,134,-149,1051,-481,34,-9
1094,-52,-99,875,-488,47,5
1095,-205,-111,748,-478,31,14
1096,-219,-214,757,-450,-8,-2
1097,-37,-358,946,-404,-47,-28
1098,185,-369,1148,-358,-41,-27
1099,208,-237,1127,-342,3,-8
1100,40,-131,951,-349,35,2
1101,-123,-106,794,-345,31,12
1102,-239,-161,723,-318,1,11
1103,-156,-307,844,-282,-40,-12
1104,100,-414,1074,-232,-59,-25
1105,230,-341,1159,-198,-29,-14
1106,164,-195,1032,-190,15,-1
1107,-32,-130,852,-187,30,11
1108,-199,-148,741,-171,13,21
1109,-220,-252,767,-136,-23,8
1110,-34,-403,961,-91,-55,-19
1111,199,-417,1127,-47,-46,-24
1112,227,-302,1087,-18,-5,-9
1113,72,-186,926,-8,23,8
1114,-104,-146,795,7,21,26
1115,-234,-210,728,29,-4,30
1116,-153,-348,849,73,-38,3
1117,79,-438,1049,125,-52,-25
1118,230,-388,1109,167,-26,-19
1119,172,-252,1018,188,8,2
1120,-7,-170,857,201,21,23
1121,-190,-171,754,219,6,40
1122,-226,-267,763,253,-23,23
1123,-64,-405,937,304,-50,-14
1124,175,-431,1097,356,-44,-28
1125,223,-329,1067,389,-10,-9
1126,80,-210,938,407,11,14
1127,-95,-167,794,424,8,37
1128,-248,-205,732,452,-14,40
1129,-170,-339,824,497,-44,4
1130,48,-447,1016,556,-57,-29
1131,220,-404,1085,602,-38,-25
1132,182,-283,998,633,-8,3
1133,0,-188,858,653,2,30
1134,-179,-177,748,680,-8,45
1135,-234,-268,752,717,-35,26
1136,-93,-412,902,772,-60,-16
1137,154,-441,1057,833,-61,-33
1138,222,-343,1040,876,-34,-13
1139,111,-228,921,901,-10,16
1140,-76,-166,794,923,-10,40
1141,-226,-204,734,952,-26,42
1142,-172,-322,829,1001,-55,9
1143,29,-421,977,1060,-71,-25
1144,211,-373,1043,1113,-56,-22
1145,190,-249,968,1146,-28,2
1146,17,-159,850,1168,-11,29
1147,-154,-136,777,1191,-21,48
1148,-217,-219,793,1224,-43,31
1149,-81,-334,920,1272,-66,-10
1150,153,-341,1013,1326,-66,-27
1151,223,-254,995,1363,-39,-10
1152,131,-145,917,1387,-17,21
1153,-74,-74,839,1407,-12,52
1154,-215,-90,809,1423,-29,55
1155,-174,-184,858,1449,-53,15
1156,-1,-252,946,1495,-70,-25
1157,-406,1294,1691,1379,-68,-58
1158,-54,807,1528,863,-175,-3
1159,-587,216,309,1024,-215,51
1160,-206,902,1132,1099,-254,-49
1161,646,-77,338,780,-311,34
1162,215,304,444,776,-140,160
1163,28,1081,1784,611,-30,17
1164,138,118,1370,476,-178,-43
1165,382,-20,495,685,-142,-107
1166,73,95,618,681,-70,-117
1167,-158,241,828,545,-35,-97
1168,-293,149,1246,376,-49,-43
1169,-165,190,1264,433,-106,-22
1170,214,-68,834,462,-151,6
1171,277,98,834,604,-108,-1
1172,92,43,998,507,-53,-40
1173,-145,-53,1083,441,-51,-55
1174,-195,-128,960,447,-74,-69
1175,-94,-73,942,512,-114,-45
1176,103,-50,945,501,-120,-10
1177,192,-54,1108,504,-100,14
1178,84,-74,1107,519,-73,-15
1179,-83,-147,1001,540,-75,-58
1180,-176,-176,870,574,-92,-85
1181,-143,-182,840,580,-113,-68
1182,-35,-86,998,605,-130,-12
1183,149,-35,1153,607,-132,21
1184,146,-55,1138,650,-118,3
1185,33,-118,977,695,-105,-47
1186,-90,-186,865,724,-113,-83
1187,-174,-194,824,738,-120,-79
1188,-121,-126,956,749,-141,-35
1189,18,-40,1123,769,-161,12
1190,161,-51,1135,797,-160,22
1191,125,-85,1027,859,-142,-11
1192,-15,-141,917,894,-133,-53
1193,-136,-185,849,902,-141,-68
1194,-173,-133,882,926,-158,-44
1195,-78,-24,1018,943,-184,6
1196,107,38,1100,951,-197,44
1197,169,47,1099,980,-180,37
1198,79,15,988,1007,-159,-3
1199,-61,-47,877,1015,-157,-46
1200,-144,-58,811,1027,-170,-52
1201,-119,28,868,1038,-191,-16
1202,6,151,1041,1035,-214,37
1203,156,192,1146,1015,-209,60
1204,153,153,1075,1020,-184,35
1205,14,88,924,1036,-167,-13
1206,-68,31,815,1039,-175,-51
1207,-114,50,800,1032,-187,-45
1208,-61,170,953,1014,-204,2
1209,110,261,1119,978,-217,50
1210,189,260,1140,961,-192,53
1211,121,202,1010,966,-165,14
1212,-2,135,844,965,-157,-33
1213,-75,118,790,947,-165,-52
1214,-83,193,844,924,-175,-24
1215,19,312,1027,881,-191,31
1216,250,453,1230,849,-184,58
1217,468,616,1357,797,-111,24
1218,288,349,908,718,-23,-9
1219,228,420,953,684,23,4
1220,122,282,873,554,74,55
1221,-24,369,789,499,111,135
1222,-19,528,941,397,94,218
1223,125,628,1136,285,62,290
1224,150,450,1096,124,81,333
1225,-30,203,821,40,119,334
1226,-208,184,764,61,117,328
1227,-189,283,747,49,77,345
1228,-72,507,896,23,34,380
1229,134,658,1075,-62,14,415
1230,205,586,1129,-176,33,419
1231,89,361,993,-258,58,401
1232,-63,182,747,-275,61,370
1233,-189,225,705,-250,40,336
1234,-135,449,847,-247,1,310
1235,0,615,1015,-307,-36,300
1236,161,649,1130,-388,-47,285
1237,179,454,1062,-474,-27,247
1238,45,232,920,-494,-7,185
1239,-73,125,830,-441,-2,95
1240,-54,265,948,-364,-17,11
1241,80,389,1069,-373,-30,-29
1242,294,324,1117,-433,-20,-41
1243,384,271,1165,-467,31,-41
1244,233,137,969,-495,96,-30
1245,-41,147,845,-491,119,-32
1246,-164,184,830,-518,109,-54
1247,-105,276,929,-547,78,-42
1248,56,333,1009,-595,63,-7
1249,209,387,1146,-624,77,10
1250,186,321,1065,-658,107,-12
1251,47,233,895,-676,127,-47
1252,-81,213,810,-699,127,-75
1253,-105,225,825,-749,118,-74
1254,-30,318,985,-795,102,-36
1255,151,366,1115,-843,96,-4
1256,213,337,1122,-874,121,-15
1257,131,258,973,-886,149,-55
1258,-7,194,835,-913,159,-96
1259,-87,191,813,-950,158,-116
1260,-67,231,878,-1001,151,-97
1261,50,310,1062,-1043,137,-58
1262,207,338,1153,-1071,145,-44
1263,199,262,1033,-1091,173,-68
1264,48,192,885,-1101,196,-113
1265,-52,139,810,-1135,198,-146
1266,-110,133,836,-1176,196,-151
1267,-44,190,993,-1210,186,-121
1268,123,231,1114,-1235,171,-83
1269,209,199,1077,-1237,188,-79
1270,136,126,948,-1227,212,-110
1271,-23,70,849,-1239,224,-147
1272,-116,39,848,-1275,224,-164
1273,-118,67,910,-1304,216,-150
1274,8,108,1045,-1321,199,-112
1275,178,117,1095,-1317,194,-85
1276,193,74,1024,-1299,216,-97
1277,45,27,908,-1297,236,-126
1278,-80,-9,847,-1319,241,-153
1279,-151,-15,880,-1339,239,-161
1280,-69,5,977,-1354,222,-133
1281,106,40,1083,-1343,206,-88
1282,202,41,1058,-1324,220,-72
1283,114,14,960,-1311,244,-90
1284,-57,-5,880,-1321,253,-128
1285,-167,-27,872,-1347,251,-168
1286,-99,-81,1010,-1376,238,-184
1287,307,-1461,1585,-1434,259,-140
1288,-499,-835,1562,-490,215,40
1289,-352,-307,599,-737,144,-89
1290,-285,123,673,-668,104,-208
1291,-205,-435,338,-687,55,-166
1292,-489,-482,451,-461,-1,-111
1293,-52,-383,1430,-325,-48,-200
1294,294,-154,1370,-366,-5,-233
1295,271,-269,611,-427,62,-171
1296,142,-261,784,-321,51,-98
1297,109,17,1162,-261,15,-41
1298,17,66,1035,-322,25,-9
1299,-258,-151,847,-370,49,-13
1300,-248,-228,908,-318,12,-40
1301,95,-52,1070,-278,-41,-43
1302,235,-13,1068,-308,-11,-10
1303,104,9,1073,-327,26,16
1304,-57,160,1042,-339,30,19
1305,-173,203,962,-384,24,15
1306,-193,68,862,-419,-4,4
1307,-6,-58,978,-405,-37,-14
1308,215,-9,1238,-401,-31,-16
1309,233,108,1197,-441,18,-5
1310,39,180,988,-491,50,12
1311,-159,193,894,-520,46,22
1312,-238,111,908,-539,12,10
1313,-137,-41,992,-553,-24,-15
1314,103,-103,1115,-551,-30,-31
1315,225,-9,1163,-560,-3,-28
1316,178,105,1064,-590,35,-9
1317,-30,125,935,-620,48,15
1318,-197,93,885,-640,32,24
1319,-187,-6,936,-650,2,1
1320,-14,-122,1031,-654,-21,-26
1321,185,-112,1114,-647,-10,-28
1322,224,-9,1115,-655,23,-10
1323,75,71,1013,-683,51,16
1324,-103,96,920,-706,50,32
1325,-235,28,857,-724,29,22
1326,-164,-105,926,-724,-4,-11
1327,62,-177,1064,-710,-22,-29
1328,219,-115,1138,-705,2,-19
1329,191,-3,1091,-719,37,2
1330,11,62,958,-744,55,22
1331,-173,55,858,-762,47,29
1332,-227,-58,832,-768,18,7
1333,-93,-192,966,-755,-15,-21
1334,144,-207,1126,-738,-19,-26
1335,237,-100,1150,-741,16,-6
1336,108,4,1029,-762,50,11
1337,-59,48,893,-781,57,20
1338,-219,-5,806,-791,42,17
1339,-194,-145,850,-785,7,-10
1340,1,-263,1028,-761,-23,-30
1341,208,-220,1165,-747,-9,-17
1342,207,-90,1123,-755,31,5
1343,39,-8,955,-775,58,17
1344,-147,-8,815,-784,57,19
1345,-237,-104,769,-778,30,3
1346,-150,-251,887,-754,-9,-23
1347,115,-310,1116,-723,-30,-27
1348,227,-208,1186,-715,0,-3
1349,130,-72,1059,-731,41,13
1350,-46,-16,870,-748,54,14
1351,-216,-56,749,-750,44,9
1352,-217,-190,782,-729,5,-11
1353,-36,-336,989,-699,-32,-30
1354,200,-334,1184,-680,-31,-17
1355,209,-183,1145,-674,11,7
1356,50,-78,947,-686,45,11
1357,-135,-77,775,-696,48,7
1358,-237,-169,721,-670,24,-3
1359,-164,-339,852,-644,-20,-25
1360,99,-431,1089,-597,-46,-27
1361,222,-351,1170,-576,-22,-6
1362,145,-202,1033,-568,24,8
1363,-42,-134,835,-568,41,7
1364,-203,-180,700,-553,32,4
1365,-208,-326,745,-515,-4,-12
1366,-34,-488,952,-464,-42,-30
1367,186,-499,1131,-413,-43,-20
1368,207,-363,1085,-388,-6,4
1369,49,-229,906,-373,26,12
1370,-118,-212,740,-356,27,12
1371,-224,-315,677,-314,9,4
1372,-145,-488,824,-258,-28,-21
1373,93,-594,1039,-191,-49,-29
1374,212,-527,1100,-141,-30,-8
1375,149,-364,976,-106,4,10
1376,-26,-281,795,-76,20,18
1377,-172,-316,676,-40,13,18
1378,-198,-449,701,19,-12,3
1379,-34,-614,910,93,-44,-24
1380,168,-634,1073,168,-45,-20
1381,204,-497,1033,221,-16,7
1382,58,-346,875,259,9,26
1383,-86,-300,733,292,10,31
1384,-212,-387,653,340,-4,25
1385,-161,-544,774,415,-31,-4
1386,55,-643,998,495,-55,-25
1387,196,-581,1069,562,-41,-7
1388,154,-415,965,606,-12,20
1389,-18,-303,795,641,1,31
1390,-168,-319,678,681,-8,33
1391,-220,-431,677,739,-29,15
1392,-87,-578,869,818,-58,-17
1393,155,-603,1059,890,-68,-22
1394,216,-467,1043,946,-41,5
1395,84,-309,896,978,-15,25
1396,-79,-249,739,1011,-13,33
1397,-223,-311,648,1051,-26,31
1398,-175,-438,758,1116,-54,4
1399,37,-540,982,1186,-78,-20
1400,218,-477,1081,1246,-67,-8
1401,200,-304,1003,1282,-33,15
1402,-2,-182,820,1301,-12,28
1403,-179,-186,702,1322,-21,34
1404,-223,-284,700,1366,-48,24
1405,-89,-406,883,1425,-77,-4
1406,179,-419,1081,1481,-81,-16
1407,240,-293,1055,1514,-50,2
1408,102,-142,911,1530,-19,22
1409,-86,-79,779,1540,-19,37
1410,-236,-134,716,1558,-35,46
1411,-173,-244,828,1595,-69,18
1412,44,-315,1016,1642,-87,-13
1413,231,-241,1085,1673,-66,-11
1414,191,-91,982,1682,-33,8
1415,11,8,867,1682,-16,31
1416,-171,17,807,1679,-29,51
1417,-214,-70,835,1688,-54,40
1418,-67,-163,965,1712,-76,2
1419,167,-144,1060,1735,-72,-18
1420,238,-53,1042,1738,-43,-3
1421,129,59,960,1731,-17,31
1422,-232,331,1008,1719,-11,59
1423,-878,1763,1884,1319,-80,-13
1424,-450,591,1133,931,-241,35
1425,-550,445,26,1116,-300,28
1426,451,913,1256,1055,-315,-28
1427,1236,-11,383,749,-302,161
1428,252,442,613,781,-13,148
1429,-367,1180,1872,694,61,-108
1430,-149,-161,845,327,-184,-155
1431,365,12,292,680,-153,-148
1432,39,388,759,623,-48,-97
1433,146,545,1347,498,-38,-64
1434,-100,147,1384,213,-38,-30
1435,-157,36,925,384,-41,-81
1436,-44,-69,664,433,-98,-73
1437,-66,5,541,455,-91,-74
1438,73,288,1204,448,-79,-88
1439,146,135,1451,279,-75,-48
1440,182,-150,963,237,-44,-33
1441,38,-54,947,424,-37,-45
1442,-75,-85,791,385,-37,-76
1443,-238,-104,832,333,-50,-87
1444,-117,87,1123,377,-79,-85
1445,74,18,1176,285,-97,-41
1446,186,-56,1003,322,-72,-15
1447,148,-28,984,390,-49,-25
1448,-37,-41,959,396,-42,-52
1449,-183,-104,862,363,-52,-84
1450,-174,-36,938,409,-87,-97
1451,-5,19,1029,412,-107,-75
1452,159,-12,1079,394,-97,-32
1453,163,-48,1078,415,-68,-17
1454,20,-98,1039,445,-54,-35
1455,-135,-169,892,469,-66,-70
1456,-217,-187,819,508,-99,-104
1457,-109,-91,938,567,-132,-115
1458,64,-36,1096,566,-143,-87
1459,172,-82,1153,552,-122,-41
1460,97,-141,1070,573,-91,-24
1461,-67,-184,952,629,-92,-37
1462,-203,-193,812,668,-118,-63
1463,-195,-116,847,717,-150,-86
1464,-62,5,1024,745,-176,-75
1465,143,15,1142,716,-179,-29
1466,183,-50,1112,717,-149,0
1467,61,-73,1015,773,-125,-10
1468,-95,-101,879,804,-128,-37
1469,-206,-98,795,821,-145,-50
1470,-152,-18,896,837,-175,-34
1471,22,68,1077,834,-201,12
1472,183,73,1165,828,-193,39
1473,154,30,1074,854,-162,21
1474,1,-19,940,886,-147,-16
1475,-104,-73,819,892,-157,-44
1476,-149,-63,811,898,-170,-37
1477,-81,31,968,908,-194,9
1478,115,115,1152,903,-209,54
1479,195,94,1158,902,-190,53
1480,101,32,999,936,-163,11
1481,-38,-39,852,956,-160,-36
1482,-99,-74,788,963,-173,-48
1483,-97,-8,866,971,-184,-19
1484,12,118,1073,972,-200,38
1485,164,169,1189,957,-201,65
1486,172,128,1090,967,-177,37
1487,41,57,907,995,-157,-14
1488,-50,9,795,998,-164,-46
1489,-111,32,802,998,-171,-39
1490,-72,149,946,986,-185,10
1491,100,278,1143,968,-202,59
1492,474,551,1386,987,-160,51
1493,459,486,1200,938,-50,3
1494,303,350,947,841,35,5
1495,154,340,1035,782,112,18
1496,-101,150,684,586,164,33
1497,-173,224,717,580,143,75
1498,1,515,1078,552,71,154
1499,188,535,1233,416,45,225
1500,142,368,1088,307,91,234
1501,-103,159,827,220,140,189
1502,-230,60,645,204,135,151
1503,-174,193,670,232,82,170
1504,23,521,992,268,27,238
1505,238,698,1232,178,15,310
1506,219,561,1216,37,57,330
1507,14,260,886,-92,99,298
1508,-187,93,636,-110,97,251
1509,-203,202,618,-71,56,224
1510,-100,495,887,-41,2,253
1511,153,726,1150,-100,-37,307
1512,261,707,1218,-217,-18,330
1513,126,457,1045,-345,31,299
1514,-98,174,693,-422,43,245
1515,-218,155,593,-379,9,196
1516,-149,413,750,-330,-43,174
1517,16,714,1080,-341,-84,186
1518,183,763,1193,-465,-90,196
1519,186,567,1094,-579,-61,170
1520,16,284,823,-653,-40,121
1521,-146,167,649,-636,-52,58
1522,-163,312,751,-587,-90,9
1523,155,613,1323,-557,-106,-38
1524,357,479,1370,-642,-54,-64
1525,247,189,994,-675,0,-80
1526,339,278,1075,-549,25,-121
1527,179,153,886,-643,72,-137
1528,-54,7,610,-734,124,-157
1529,-103,263,1031,-681,114,-151
1530,81,322,1216,-790,73,-100
1531,244,227,1067,-814,82,-73
1532,169,261,996,-741,127,-101
1533,35,214,916,-769,142,-131
1534,-48,131,797,-830,133,-141
1535,-102,161,831,-849,140,-146
1536,-58,265,1026,-872,131,-121
1537,128,310,1125,-919,109,-79
1538,222,272,1084,-937,124,-74
1539,131,223,964,-930,157,-110
1540,-25,159,850,-959,169,-144
1541,-101,136,806,-998,163,-161
1542,-91,191,895,-1037,158,-154
1543,31,253,1060,-1074,145,-122
1544,184,258,1119,-1095,142,-101
1545,201,210,1056,-1092,165,-118
1546,49,155,903,-1095,187,-153
1547,-64,111,816,-1126,192,-182
1548,-114,111,827,-1168,190,-196
1549,-47,161,969,-1196,182,-178
1550,114,201,1110,-1216,167,-142
1551,212,184,1097,-1212,177,-131
1552,143,137,981,-1206,200,-155
1553,-21,85,854,-1224,212,-190
1554,-118,56,815,-1257,214,-220
1555,-103,63,884,-1292,213,-231
1556,12,95,1057,-1300,203,-203
1557,180,110,1126,-1296,191,-164
1558,179,90,1043,-1282,208,-161
1559,7,89,915,-1280,225,-198
1560,-146,118,826,-1325,224,-270
1561,-168,92,835,-1406,221,-378
1562,-17,75,938,-1450,224,-467
1563,134,122,1105,-1442,222,-511
1564,170,170,1096,-1465,224,-558
1565,-15,150,1034,-1506,219,-657
1566,-203,94,904,-1564,171,-762
1567,769,-757,1544,-1651,160,-841
1568,325,-1884,1365,-1410,591,-543
1569,-1799,-788,1130,-501,541,-296
1570,-510,266,34,-587,-116,-421
1571,651,221,901,-553,-184,-347
1572,389,-419,1281,-654,21,-97
1573,-51,-437,1095,-583,111,14
1574,-172,110,1176,-562,52,-51
1575,79,109,885,-677,53,-67
1576,33,-200,604,-680,20,38
1577,152,-232,830,-575,0,101
1578,281,-91,1561,-520,22,81
1579,-37,287,1264,-627,90,64
1580,-234,148,677,-724,95,57
1581,-390,33,666,-710,17,70
1582,-129,-61,1006,-655,-44,57
1583,175,35,1315,-652,-42,29
1584,187,67,1122,-711,27,0
1585,100,114,1067,-739,61,-29
1586,-100,287,988,-764,61,-10
1587,-199,191,859,-825,35,24
1588,-195,28,916,-847,-9,18
1589,44,-75,1112,-837,-22,-19
1590,234,-2,1225,-850,-1,-32
1591,218,40,1049,-893,45,-11
1592,40,74,959,-913,65,12
1593,-144,128,940,-925,53,26
1594,-217,22,889,-957,31,18
1595,-165,-124,927,-961,2,-10
1596,80,-196,1047,-942,-9,-35
1597,227,-117,1143,-932,11,-26
1598,181,-34,1041,-950,46,0
1599,-12,3,925,-963,62,21
1600,-186,0,850,-971,49,22
1601,-205,-103,827,-970,21,3
1602,-85,-234,938,-952,-8,-20
1603,152,-266,1089,-928,-12,-20
1604,222,-153,1146,-917,16,0
1605,95,-39,1007,-933,51,16
1606,-75,-6,864,-946,57,23
1607,-236,-61,764,-945,40,13
1608,-193,-188,822,-928,5,-10
1609,3,-297,1028,-900,-27,-25
1610,206,-269,1161,-882,-15,-8
1611,190,-114,1121,-882,23,12
1612,22,-13,943,-904,48,15
1613,-160,-30,790,-914,49,11
1614,-243,-128,735,-901,23,-5
1615,-122,-281,886,-873,-17,-24
1616,134,-346,1135,-843,-34,-23
1617,241,-257,1179,-833,-5,3
1618,125,-102,1042,-841,33,15
1619,-56,-35,850,-853,49,10
1620,-218,-98,718,-854,39,1
1621,-207,-234,761,-825,6,-15
1622,1,-375,1002,-788,-28,-27
1623,215,-368,1201,-761,-27,-10
1624,213,-215,1132,-759,12,13
1625,31,-83,934,-771,41,17
1626,-152,-81,754,-776,45,9
1627,-228,-196,697,-758,24,-4
1628,-137,-356,844,-715,-11,-21
1629,137,-444,1122,-678,-33,-24
1630,246,-364,1190,-655,-11,-1
1631,137,-196,1033,-653,28,18
1632,-57,-111,826,-655,44,16
1633,-198,-160,690,-647,36,11
1634,-189,-302,734,-614,9,-4
1635,-16,-452,968,-567,-22,-21
1636,205,-474,1181,-526,-25,-14
1637,207,-333,1123,-510,10,14
1638,22,-186,913,-505,39,23
1639,-136,-146,751,-497,38,18
1640,-225,-261,673,-480,21,8
1641,-152,-425,811,-435,-9,-14
1642,88,-531,1080,-377,-34,-27
1643,215,-477,1165,-339,-17,-7
1644,130,-310,1019,-316,14,17
1645,-60,-203,814,-299,30,17
1646,-184,-241,679,-287,21,12
1647,-204,-388,691,-254,-2,-4
1648,-48,-561,904,-194,-34,-26
1649,171,-603,1129,-122,-40,-24
1650,212,-476,1097,-75,-14,4
1651,44,-315,895,-45,15,18
1652,-105,-260,737,-15,16,15
1653,-212,-350,636,4,3,8
1654,-153,-516,754,52,-23,-10
1655,66,-648,1010,127,-50,-25
1656,218,-605,1124,204,-38,-8
1657,157,-427,1007,256,-6,18
1658,-34,-294,805,289,8,23
1659,-180,-304,675,313,0,19
1660,-209,-433,644,334,-18,9
1661,-73,-604,849,409,-45,-15
1662,171,-658,1094,498,-57,-23
1663,227,-530,1092,563,-32,2
1664,66,-343,914,604,-3,22
1665,-102,-268,735,624,-3,25
1666,-222,-334,628,646,-18,22
1667,-162,-486,708,700,-41,4
1668,45,-604,994,786,-63,-21
1669,242,-563,1138,855,-54,-12
1670,188,-382,1032,895,-21,16
1671,-7,-240,832,915,-4,27
1672,-173,-235,687,932,-9,30
1673,-218,-337,642,967,-30,23
1674,-93,-483,838,1038,-57,-2
1675,166,-528,1116,1106,-69,-15
1676,245,-408,1122,1146,-43,6
1677,93,-224,958,1160,-12,29
1678,-90,-151,766,1168,-7,32
1679,-224,-207,646,1188,-21,35
1680,-185,-331,726,1239,-49,17
1681,22,-449,993,1301,-75,-10
1682,232,-414,1163,1344,-69,-6
1683,195,-242,1047,1359,-31,19
1684,12,-99,879,1361,-8,29
1685,-168,-96,717,1364,-11,32
1686,-226,-195,687,1393,-37,28
1687,-111,-322,868,1441,-71,5
1688,164,-354,1119,1490,-82,-9
1689,239,-238,1128,1507,-53,7
1690,107,-71,963,1501,-18,22
1691,-94,-3,810,1491,-13,31
1692,-225,-51,728,1502,-31,40
1693,-192,-161,818,1524,-63,26
1694,17,-258,1024,1561,-91,-4
1695,221,-199,1142,1574,-76,-5
1696,191,-44,1047,1579,-39,13
1697,4,60,893,1551,-18,22
1698,-159,74,823,1546,-26,34
1699,-235,-7,830,1542,-54,31
1700,-97,-128,974,1557,-84,3
1701,149,-136,1086,1578,-87,-10
1702,218,-7,1078,1574,-58,6
1703,130,104,1001,1552,-34,23
1704,-70,138,911,1523,-23,38
1705,-233,108,863,1511,-38,38
1706,-231,68,923,1506,-71,10
1707,-415,1642,1809,1325,-94,-63
1708,-261,519,959,737,-214,5
1709,-461,486,375,1045,-255,-2
1710,73,914,1307,1034,-296,-127
1711,437,-15,307,642,-314,-6
1712,311,-206,145,635,-194,41
1713,314,914,1639,885,29,-112
1714,-135,454,1542,522,-84,-16
1715,369,-535,-169,277,-168,-6
1716,174,334,1089,948,-88,-125
1717,-186,179,1098,620,-7,-169
1718,-220,-274,968,387,-90,-81
1719,-254,-65,1075,641,-112,-98
1720,-30,-195,983,630,-135,-75
1721,170,-230,873,660,-169,-12
1722,253,-186,1085,733,-113,-21
1723,-57,-190,1205,734,-89,-45
1724,-119,-331,881,718,-119,-97
1725,-183,-300,897,812,-146,-110
1726,-106,-243,905,840,-150,-92
1727,57,-233,1064,831,-173,-40
1728,150,-130,1175,910,-166,-34
1729,123,-153,1082,948,-150,-68
1730,-40,-173,925,998,-154,-104
1731,-122,-208,803,1010,-151,-124
1732,-170,-138,880,1027,-164,-98
1733,-72,-33,1007,1036,-189,-55
1734,118,39,1143,1052,-204,-24
1735,191,50,1089,1091,-190,-41
1736,111,4,962,1118,-170,-76
1737,-27,-21,851,1124,-160,-106
1738,-143,-30,811,1113,-162,-111
1739,-146,65,913,1121,-187,-82
1740,-9,145,1049,1102,-213,-41
1741,148,174,1136,1096,-213,-15
1742,168,144,1057,1098,-186,-33
1743,28,72,918,1098,-163,-64
1744,-96,46,814,1105,-170,-85
1745,-147,62,794,1102,-194,-84
1746,-84,179,922,1108,-225,-60
1747,110,278,1121,1083,-234,-29
1748,178,254,1160,1028,-203,-11
1749,108,167,1020,1011,-170,-22
1750,-23,96,864,1019,-162,-43
1751,-120,74,745,1031,-177,-56
1752,-134,154,769,1035,-205,-49
1753,-7,327,1039,1030,-230,-26
1754,168,330,1215,951,-222,1
1755,184,217,1112,909,-183,10
1756,62,156,944,940,-154,-3
1757,-45,107,797,942,-154,-21
1758,-108,114,737,927,-167,-25
1759,249,549,1200,961,-162,-14
1760,478,663,1370,847,-75,2
1761,376,525,1106,681,24,32
1762,295,500,1242,664,87,14
1763,-40,72,825,426,122,-36
1764,-245,-99,541,438,108,-112
1765,-258,132,719,522,57,-152
1766,-102,432,1071,535,-5,-133
1767,164,519,1171,439,-28,-93
1768,207,473,1210,368,10,-94
1769,62,267,1056,258,64,-149
1770,-163,0,759,177,76,-219
1771,-265,-70,575,200,46,-282
1772,-170,145,755,282,-6,-278
1773,59,501,1146,314,-61,-210
1774,291,596,1286,213,-59,-141
1775,251,449,1185,95,4,-132
1776,-16,168,898,-21,57,-170
1777,-212,-38,633,-60,50,-221
1778,-221,53,601,-3,3,-236
1779,-57,391,897,76,-54,-185
1780,213,691,1244,47,-83,-102
1781,330,664,1282,-87,-48,-53
1782,167,371,1018,-226,15,-64
1783,-109,92,684,-291,35,-103
1784,-212,56,566,-266,-2,-129
1785,-134,318,745,-193,-60,-110
1786,74,660,1093,-183,-101,-56
1787,263,771,1269,-290,-96,-2
1788,253,571,1126,-442,-48,9
1789,38,248,811,-541,-12,-14
1790,-158,121,613,-543,-26,-49
1791,-194,238,648,-502,-71,-63
1792,-99,569,942,-458,-120,-47
1793,125,782,1172,-529,-143,-15
1794,209,694,1155,-666,-125,-2
1795,140,424,941,-784,-91,-18
1796,-24,212,780,-832,-81,-58
1797,50,206,978,-788,-72,-124
1798,179,281,1194,-717,-20,-171
1799,259,405,1240,-670,31,-142
1800,357,366,1099,-754,62,-78
1801,335,246,944,-820,106,-66
1802,103,145,804,-846,151,-108
1803,-113,133,765,-867,161,-165
1804,-185,316,1025,-851,139,-183
1805,-53,349,1109,-943,105,-150
1806,137,263,959,-1007,101,-112
1807,215,275,960,-973,132,-116
1808,160,275,1010,-972,157,-137
1809,-2,219,930,-1023,169,-164
1810,-104,180,865,-1060,170,-191
1811,-95,181,854,-1098,159,-191
1812,44,212,963,-1126,140,-158
1813,203,256,1117,-1138,144,-134
1814,203,232,1124,-1153,173,-148
1815,38,147,942,-1173,195,-183
1816,-76,96,798,-1196,189,-216
1817,-108,87,784,-1217,185,-233
1818,-39,133,925,-1244,184,-215
1819,108,199,1146,-1251,174,-180
1820,199,181,1147,-1266,180,-164
1821,123,127,985,-1261,199,-187
1822,-34,100,830,-1263,206,-226
1823,-116,87,782,-1306,205,-263
1824,-75,76,851,-1357,212,-297
1825,47,104,1067,-1368,213,-296
1826,198,127,1174,-1358,203,-263
1827,182,107,1051,-1359,215,-254
1828,-45,163,933,-1348,228,-305
1829,-210,100,827,-1431,208,-394
1830,-173,19,767,-1497,184,-478
1831,24,99,967,-1471,198,-550
1832,148,126,1092,-1509,228,-598
1833,167,78,1065,-1542,240,-643
1834,53,56,1018,-1549,224,-701
1835,-124,38,949,-1564,186,-764
1836,-164,-38,946,-1583,150,-814
1837,1392,-1489,1772,-1705,269,-767
1838,-174,-1861,1420,-1049,817,-376
1839,-1779,-444,980,-424,472,-352
1840,-212,83,-67,-493,-149,-511
1841,359,231,870,-429,-214,-409
1842,513,-570,1283,-514,-31,-147
1843,-119,-493,1305,-448,142,63
1844,-407,121,1063,-462,69,7
1845,252,11,878,-590,0,-36
1846,162,-126,871,-576,10,76
1847,154,-35,884,-503,45,105
1848,55,100,1436,-502,45,63
1849,-207,305,1116,-599,84,50
1850,-206,92,713,-676,50,51
1851,-275,-40,749,-651,-11,66
1852,179,-94,1176,-597,-39,42
1853,226,120,1345,-613,-1,41
1854,89,157,1000,-694,69,28
1855,-111,160,990,-722,65,9
1856,-233,230,899,-748,39,14
1857,-160,24,865,-785,1,21
1858,-50,-70,1038,-776,-27,9
1859,241,-42,1217,-767,-13,-10
1860,226,123,1206,-807,33,-5
1861,42,154,944,-865,71,10
1862,-136,151,896,-889,57,22
1863,-235,101,886,-905,28,18
1864,-115,-79,982,-923,-7,2
1865,85,-108,1120,-922,-18,-6
1866,240,-32,1155,-929,14,-4
1867,164,105,1102,-962,47,9
1868,-30,145,931,-1000,68,24
1869,-199,113,875,-1029,52,29
1870,-218,20,890,-1044,17,10
1871,-41,-102,1016,-1050,-12,-6
1872,139,-88,1148,-1049,-11,-1
1873,214,1,1149,-1072,21,11
1874,66,111,1052,-1110,53,17
1875,-90,141,909,-1146,61,17
1876,-228,58,817,-1172,44,8
1877,-185,-74,875,-1177,5,-11
1878,44,-171,1075,-1171,-25,-19
1879,195,-121,1194,-1177,-8,1
1880,176,6,1119,-1205,29,16
1881,-5,94,965,-1239,54,10
1882,-162,76,818,-1269,54,0
1883,-222,-35,778,-1276,29,-13
1884,-104,-191,925,-1269,-10,-30
1885,145,-252,1149,-1256,-25,-22
1886,213,-151,1190,-1262,1,6
1887,90,-20,1030,-1288,38,13
1888,-79,38,857,-1312,50,2
1889,-209,-41,732,-1326,40,-13
1890,-167,-203,784,-1313,13,-30
1891,19,-344,1007,-1283,-18,-35
1892,217,-343,1171,-1262,-16,-14
1893,181,-201,1120,-1263,17,12
1894,3,-81,911,-1275,40,15
1895,-169,-72,752,-1280,43,3
1896,-207,-195,686,-1277,26,-15
1897,-94,-376,833,-1240,-2,-31
1898,142,-465,1101,-1195,-19,-28
1899,228,-398,1158,-1167,-2,-3
1900,89,-219,1016,-1157,27,18
1901,-87,-124,809,-1157,36,14
1902,-199,-171,675,-1157,30,3
1903,-141,-319,702,-1140,11,-9
1904,34,-487,933,-1090,-6,-22
1905,215,-518,1163,-1038,-11,-11
1906,196,-395,1107,-1011,12,13
1907,-3,-249,909,-990,33,25
1908,-170,-186,738,-965,33,19
1909,-183,-302,639,-969,21,11
1910,-80,-501,717,-938,9,21
1911,111,-589,990,-863,-9,41
1912,222,-558,1174,-794,-20,60
1913,143,-427,1054,-764,-1,86
1914,-98,-297,836,-739,14,97
1915,-203,-281,647,-710,0,97
1916,-120,-421,593,-690,-24,119
1917,37,-580,790,-640,-39,157
1918,193,-634,1131,-566,-46,181
1919,208,-554,1184,-502,-39,191
1920,-8,-388,939,-468,-24,205
1921,-190,-277,745,-438,-37,209
1922,-207,-379,675,-429,-66,220
1923,-145,-710,764,-425,-93,252
1924,43,-878,834,-305,-122,297
1925,180,-664,962,-118,-141,371
1926,139,-409,962,-52,-152,448
1927,8,-329,808,-60,-166,492
1928,-53,-386,728,-37,-173,508
1929,5,-518,686,11,-152,525
1930,93,-620,808,102,-126,563
1931,183,-683,897,176,-125,613
1932,207,-584,969,262,-143,665
1933,82,-373,1007,322,-157,698
1934,-24,-283,892,312,-160,697
1935,-160,-356,787,298,-146,677
1936,-177,-468,726,320,-133,638
1937,-69,-507,941,387,-144,584
1938,54,-518,1124,420,-148,529
1939,50,-446,1079,440,-133,482
1940,-123,-298,896,475,-114,430
1941,-224,-243,747,483,-115,384
1942,-194,-367,652,468,-121,355
1943,-55,-538,762,496,-122,332
1944,140,-621,1040,570,-120,303
1945,199,-538,1157,650,-105,281
1946,43,-371,1020,676,-88,267
1947,-137,-266,811,672,-91,247
1948,-202,-325,665,669,-103,229
1949,-87,-485,627,696,-105,230
1950,60,-598,816,778,-95,243
1951,185,-597,1095,876,-92,249
1952,151,-487,1130,930,-98,257
1953,-40,-345,946,941,-103,266
1954,-214,-282,772,949,-117,264
1955,-187,-364,649,960,-139,259
1956,-8,-514,620,1013,-140,276
1957,250,-588,828,1119,-117,311
1958,274,-511,1099,1228,-88,349
1959,101,-381,1102,1266,-93,369
1960,-107,-307,903,1246,-128,380
1961,-220,-291,775,1249,-157,384
1962,-117,-386,682,1274,-173,380
1963,72,-496,675,1363,-164,391
1964,277,-484,883,1472,-137,417
1965,267,-369,1061,1540,-105,453
1966,38,-260,1038,1544,-100,478
1967,-153,-231,860,1522,-131,479
1968,-155,-264,750,1530,-158,465
1969,-4,-340,737,1574,-156,452
1970,215,-384,818,1645,-128,452
1971,282,-334,956,1710,-89,468
1972,171,-209,1054,1735,-63,480
1973,-65,-112,1000,1714,-68,479
1974,-171,-123,834,1687,-88,460
1975,-116,-180,741,1697,-96,430
1976,49,-249,803,1741,-81,399
1977,150,-231,1021,1788,-55,379
1978,100,-143,1140,1790,-48,349
1979,-55,-13,1085,1750,-48,314
1980,-210,83,925,1698,-50,269
1981,-235,32,774,1664,-54,208
1982,-131,-104,772,1674,-51,142
1983,46,-177,1012,1717,-47,84
1984,126,-117,1215,1719,-33,53
1985,52,46,1134,1673,-21,42
1986,-131,131,925,1614,-11,25
1987,-224,101,775,1592,-17,1
1988,-184,-19,770,1611,-39,-22
1989,11,-159,982,1641,-68,-38
1990,238,-151,1173,1655,-66,-30
1991,227,26,1113,1634,-32,-3
1992,30,142,932,1596,-5,18
1993,-132,140,836,1573,-7,30
1994,-224,49,838,1576,-32,23
1995,-126,-71,966,1586,-62,-15
1996,54,125,1165,1601,-63,-44
1997,-290,1787,1904,1300,-23,-84
1998,-496,395,653,809,-200,-30
1999,-576,733,386,1077,-288,-161
2000,105,680,1060,928,-279,-347
2001,491,109,125,635,-279,-331
2002,437,180,542,626,-120,-382
2003,439,974,1898,650,32,-456
2004,122,24,1041,327,-114,-281
2005,118,164,241,589,-95,-356
2006,-195,184,645,477,-44,-506
2007,-111,140,1002,430,-48,-503
2008,-187,134,1280,291,-59,-361
2009,-100,143,1223,344,-70,-302
2010,180,-1,894,338,-125,-259
2011,172,17,758,427,-87,-271
2012,26,18,925,384,-39,-313
2013,-205,8,1136,341,-47,-335
2014,-121,-86,1007,306,-75,-341
2015,8,-86,934,358,-104,-325
2016,210,-47,980,404,-97,-315
2017,192,-55,1092,391,-64,-308
2018,9,-62,1089,404,-48,-337
2019,-124,-121,965,400,-62,-378
2020,-202,-151,840,418,-77,-398
2021,-89,-141,871,433,-96,-388
2022,52,-58,1090,462,-109,-350
2023,176,-37,1167,471,-100,-328
2024,112,-57,1058,501,-89,-342
2025,-31,-93,935,537,-84,-380
2026,-137,-157,824,533,-93,-404
2027,-163,-138,872,555,-106,-408
2028,-81,-53,1052,579,-123,-376
2029,76,-16,1150,580,-137,-334
2030,124,-35,1080,601,-131,-326
2031,30,-63,970,648,-119,-349
2032,-105,-99,873,659,-125,-375
2033,-180,-107,847,672,-139,-385
2034,-144,-37,948,685,-156,-376
2035,-13,19,1074,688,-176,-344
2036,128,29,1118,691,-179,-324
2037,128,22,1057,720,-164,-338
2038,-15,-26,933,742,-150,-365
2039,-118,-65,837,743,-157,-389
2040,-156,-55,856,758,-168,-392
2041,-84,13,991,763,-187,-368
2042,90,74,1122,765,-205,-336
2043,160,76,1136,772,-195,-329
2044,81,23,1004,789,-175,-351
2045,-66,-30,879,807,-173,-378
2046,-147,-69,803,811,-181,-388
2047,-137,-31,874,820,-194,-373
2048,-19,53,1076,833,-215,-335
2049,135,81,1170,832,-222,-303
2050,144,41,1089,845,-207,-308
2051,13,-21,919,878,-193,-335
2052,-92,-63,813,897,-200,-357
2053,-141,-72,805,905,-209,-364
2054,-94,-4,973,930,-219,-347
2055,53,62,1148,939,-240,-312
2056,155,53,1146,948,-241,-296
2057,104,14,1016,980,-225,-318
2058,-47,-34,860,1011,-218,-352
2059,-137,-73,780,1021,-226,-379
2060,-124,-30,840,1036,-236,-387
2061,-13,70,1070,1050,-250,-366
2062,163,125,1190,1042,-265,-334
2063,201,101,1110,1048,-252,-331
2064,179,158,1015,1085,-227,-363
2065,264,492,1115,1135,-172,-413
2066,103,532,912,947,-57,-504
2067,-54,607,958,801,78,-622
2068,-256,561,1145,570,123,-648
2069,-240,314,910,335,44,-554
2070,-70,372,986,314,-46,-477
2071,4,412,1057,246,-62,-497
2072,-59,183,784,125,-16,-572
2073,-205,60,594,110,19,-622
2074,-200,242,802,163,-17,-577
2075,99,528,1184,147,-110,-424
2076,383,596,1227,42,-129,-286
2077,326,480,1130,-68,-44,-260
2078,19,201,836,-182,40,-309
2079,-225,-33,564,-186,45,-337
2080,-250,97,598,-80,-33,-278
2081,24,529,1011,7,-131,-156
2082,384,794,1343,-75,-154,-48
2083,432,670,1259,-257,-67,-27
2084,143,273,908,-419,35,-77
2085,-137,27,642,-455,51,-118
2086,-188,15,585,-405,-10,-93
2087,-28,343,833,-265,-93,0
2088,275,715,1210,-266,-134,101
2089,432,723,1370,-414,-85,142
2090,264,323,1044,-555,6,92
2091,-84,42,681,-509,34,21
2092,-182,91,722,-379,-10,-42
2093,-8,314,1009,-247,-59,-89
2094,179,491,1129,-194,-69,-111
2095,267,520,1121,-201,-50,-116
2096,208,380,968,-263,-28,-137
2097,101,245,865,-301,-10,-170
2098,27,250,851,-340,18,-199
2099,-97,271,918,-403,46,-198
2100,-47,362,1100,-455,25,-166
2101,184,315,1068,-514,-2,-140
2102,281,327,1023,-508,26,-159
2103,185,314,977,-522,70,-203
2104,11,262,916,-571,83,-234
2105,-94,217,839,-615,81,-258
2106,-91,237,858,-649,74,-267
2107,30,326,1017,-677,57,-250
2108,192,388,1160,-721,56,-225
2109,199,343,1088,-766,82,-234
2110,38,268,912,-791,110,-275
2111,-74,220,783,-822,108,-318
2112,-103,218,786,-860,100,-346
2113,-21,285,973,-900,97,-341
2114,137,341,1156,-951,90,-316
2115,216,303,1141,-994,103,-309
2116,138,236,978,-1007,126,-341
2117,-33,188,826,-1021,137,-393
2118,-108,158,774,-1054,135,-447
2119,-64,177,847,-1094,140,-489
2120,63,239,1081,-1120,143,-495
2121,184,243,1181,-1164,141,-471
2122,173,180,1066,-1196,151,-468
2123,-11,183,921,-1183,160,-516
2124,-169,178,830,-1220,148,-596
2125,-160,95,748,-1291,124,-668
2126,43,185,923,-1275,131,-726
2127,223,260,1145,-1323,167,-769
2128,214,187,1099,-1403,204,-803
2129,47,123,1001,-1434,199,-849
2130,-141,108,929,-1438,153,-900
2131,-217,82,874,-1445,100,-946
2132,-114,77,851,-1459,71,-969
2133,63,130,965,-1456,82,-966
2134,207,156,1100,-1495,104,-953
2135,167,88,1065,-1547,122,-952
2136,-11,48,973,-1548,106,-968
2137,-153,44,885,-1541,70,-986
2138,-163,29,842,-1537,47,-989
2139,-21,50,875,-1551,49,-964
2140,582,-264,1318,-1593,76,-922
2141,1590,-1822,1483,-1734,400,-697
2142,196,-699,1039,-762,933,-285
2143,-946,154,394,-761,862,-222
2144,-814,-256,829,-790,546,-218
2145,-1253,-1154,1064,-725,145,-120
2146,12,-423,926,-481,-160,13
2147,420,142,1419,-504,-75,154
2148,359,373,1036,-615,42,127
2149,481,-52,530,-662,44,99
2150,-29,41,963,-568,89,114
2151,-189,82,1419,-577,113,88
2152,-219,152,1100,-693,46,114
2153,-159,-47,586,-739,26,127
2154,83,19,1140,-662,6,74
2155,148,224,1318,-679,37,52
2156,-14,170,1023,-777,66,74
2157,-241,207,935,-818,51,62
2158,-144,132,953,-851,27,35
2159,-81,72,977,-865,7,25
2160,127,-35,1003,-876,4,14
2161,239,19,1243,-878,24,15
2162,134,177,1185,-923,67,26
2163,-41,201,947,-987,84,37
2164,-235,140,824,-1030,61,49
2165,-173,-35,875,-1043,17,50
2166,-9,-50,1071,-1019,-12,37
2167,179,-22,1142,-1030,9,22
2168,169,38,1145,-1062,52,11
2169,-14,114,1039,-1096,82,3
2170,-129,150,907,-1131,75,5
2171,-241,51,818,-1167,46,12
2172,-147,-84,887,-1171,4,2
2173,85,-113,1113,-1152,-23,-3
2174,215,-54,1187,-1169,6,9
2175,139,41,1111,-1203,52,12
2176,-56,111,957,-1236,74,2
2177,-188,90,833,-1264,67,-8
2178,-239,-12,802,-1278,32,-20
2179,-80,-157,940,-1274,-14,-29
2180,138,-183,1174,-1265,-27,-13
2181,200,-66,1185,-1282,4,14
2182,59,53,1022,-1319,43,13
2183,-102,87,865,-1350,56,-7
2184,-215,-3,764,-1364,43,-27
2185,-179,-147,840,-1359,5,-41
2186,46,-270,1045,-1347,-31,-38
2187,199,-240,1192,-1340,-23,-7
2188,175,-100,1098,-1353,13,13
2189,8,-19,904,-1372,44,4
2190,-142,-59,759,-1385,49,-15
2191,-169,-210,730,-1373,31,-33
2192,-50,-376,893,-1336,-1,-40
2193,167,-442,1085,-1300,-15,-19
2194,222,-351,1115,-1276,7,15
2195,82,-211,955,-1271,39,28
2196,-70,-157,792,-1268,53,17
2197,-196,-233,681,-1252,48,-5
2198,-145,-386,742,-1210,25,-25
2199,19,-506,966,-1154,-4,-28
2200,189,-493,1112,-1114,-6,-1
2201,150,-330,1067,-1091,19,29
2202,-20,-190,878,-1088,38,30
2203,-158,-186,727,-1084,40,10
2204,-187,-290,682,-1059,29,-14
2205,-86,-447,828,-1011,5,-29
2206,131,-529,1081,-962,-16,-22
2207,206,-450,1139,-931,-2,11
2208,76,-278,998,-920,23,33
2209,-87,-184,805,-917,35,24
2210,-184,-245,673,-910,32,2
2211,-138,-391,707,-874,16,-16
2212,21,-539,935,-817,-5,-25
2213,198,-562,1144,-769,-13,-8
2214,162,-429,1090,-743,11,23
2215,-27,-277,898,-730,28,32
2216,-181,-242,720,-720,27,14
2217,-192,-356,642,-699,16,-6
2218,-153,-591,791,-646,-5,-22
2219,34,-872,1140,-542,-49,-32
2220,157,-737,1062,-463,-55,23
2221,-12,-394,844,-410,-47,95
2222,-97,-270,764,-396,-78,116
2223,-150,-510,645,-380,-103,129
2224,-71,-718,639,-271,-110,143
2225,102,-744,829,-123,-102,179
2226,214,-645,943,-34,-105,257
2227,204,-558,872,8,-114,347
2228,51,-466,865,45,-135,408
2229,-17,-411,832,85,-146,425
2230,-35,-473,718,133,-138,441
2231,38,-594,650,207,-122,462
2232,234,-692,825,308,-105,500
2233,264,-631,998,400,-84,552
2234,164,-468,976,444,-79,600
2235,-75,-306,911,454,-94,618
2236,-180,-327,878,438,-111,580
2237,-182,-441,864,456,-110,506
2238,-140,-482,872,504,-99,418
2239,-29,-466,1016,539,-92,331
2240,0,-406,1088,544,-79,253
2241,-115,-345,944,544,-55,187
2242,-222,-283,789,557,-52,131
2243,-227,-336,688,575,-59,87
2244,-104,-469,742,617,-70,57
2245,93,-586,934,680,-80,35
2246,211,-579,1108,736,-68,27
2247,133,-427,1073,764,-41,30
2248,-74,-314,866,770,-30,27
2249,-180,-322,681,780,-41,16
2250,-118,-441,613,830,-54,13
2251,42,-563,768,917,-57,25
2252,169,-590,1037,1005,-56,47
2253,199,-504,1132,1046,-57,74
2254,38,-360,989,1056,-50,96
2255,-120,-268,807,1065,-54,101
2256,-173,-316,637,1093,-71,100
2257,-33,-446,616,1156,-81,121
2258,123,-519,852,1249,-78,157
2259,200,-483,1135,1319,-70,179
2260,157,-373,1135,1331,-70,193
2261,-44,-252,908,1326,-70,204
2262,-159,-209,743,1333,-80,201
2263,-107,-304,617,1365,-94,208
2264,31,-427,676,1440,-92,237
2265,170,-438,1004,1525,-85,258
2266,215,-339,1216,1558,-80,263
2267,60,-208,1070,1534,-70,266
2268,-111,-100,830,1518,-72,256
2269,-177,-123,680,1518,-82,243
2270,-79,-243,671,1557,-87,243
2271,60,-333,895,1619,-87,249
2272,184,-290,1176,1658,-83,247
2273,150,-134,1194,1643,-68,246
2274,-50,14,966,1600,-60,241
2275,-181,34,765,1571,-66,219
2276,-158,-69,696,1572,-75,199
2277,-53,-190,829,1611,-77,189
2278,153,-216,1140,1646,-79,185
2279,187,-107,1216,1637,-67,192
2280,51,68,1078,1594,-54,192
2281,-129,149,878,1545,-52,174
2282,-199,64,749,1519,-57,144
2283,-119,-81,796,1534,-64,125
2284,30,-162,1033,1567,-69,115
2285,192,-117,1212,1570,-72,116
2286,152,31,1124,1538,-54,128
2287,-45,141,947,1494,-42,122
2288,-172,113,814,1467,-44,101
2289,-153,-29,786,1464,-52,90
2290,-51,-146,924,1499,-58,87
2291,164,-152,1131,1522,-67,85
2292,219,-56,1137,1512,-54,100
2293,58,69,993,1486,-28,109
2294,-127,98,865,1463,-27,102
2295,-185,5,785,1460,-37,94
2296,-122,-114,843,1484,-44,90
2297,29,-130,1011,1528,-52,81
2298,-2,1501,1808,1366,14,27
2299,-669,365,1042,784,-105,-12
2300,-787,467,319,1021,-246,-59
2301,-213,871,1189,962,-322,-212
2302,321,63,297,635,-336,-168
2303,432,-38,323,622,-231,-112
2304,813,1025,1745,665,7,-247
2305,25,126,1287,387,15,-187
2306,13,71,268,513,-81,-173
2307,-91,101,749,505,-107,-295
2308,-94,254,1108,455,-50,-360
2309,-49,-117,1055,346,-75,-267
2310,-34,167,1138,468,-104,-218
2311,226,-53,1034,425,-101,-202
2312,149,-47,843,490,-96,-177
2313,45,-90,909,482,-59,-206
2314,-139,-10,1138,498,-53,-212
2315,-189,-124,950,432,-82,-214
2316,-38,-131,919,475,-113,-185
2317,134,-12,1011,523,-111,-150
2318,191,-27,1100,518,-90,-123
2319,39,9,1059,537,-73,-133
2320,-100,-50,964,541,-77,-169
2321,-154,-73,841,544,-101,-180
2322,-118,-45,860,541,-104,-166
2323,-6,49,1063,540,-113,-124
2324,125,81,1145,527,-122,-97
2325,135,56,1075,552,-108,-110
2326,6,23,928,574,-97,-147
2327,-71,-42,849,570,-103,-163
2328,-136,-38,847,557,-106,-155
2329,-91,19,1017,555,-113,-133
2330,52,48,1121,550,-137,-104
2331,152,24,1082,579,-133,-103
2332,106,-14,1005,623,-116,-129
2333,-40,-86,907,630,-110,-153
2334,-135,-137,864,630,-112,-158
2335,-148,-102,917,640,-127,-146
2336,-35,-49,1059,659,-147,-116
2337,122,-19,1109,681,-158,-95
2338,153,-28,1086,722,-146,-104
2339,39,-74,972,745,-131,-129
2340,-72,-109,863,759,-132,-141
2341,-147,-103,843,769,-137,-133
2342,-103,-28,950,786,-154,-101
2343,44,46,1103,794,-176,-62
2344,170,75,1132,810,-174,-47
2345,129,43,1028,829,-151,-61
2346,-6,-2,898,846,-141,-76
2347,-110,-23,828,855,-143,-72
2348,-130,18,859,851,-152,-41
2349,-47,119,1020,853,-171,7
2350,136,180,1143,842,-185,40
2351,182,178,1100,848,-167,29
2352,76,132,967,848,-143,-10
2353,-33,64,825,831,-139,-39
2354,-102,57,805,827,-141,-34
2355,-62,145,928,822,-152,10
2356,58,253,1102,800,-167,55
2357,187,281,1151,768,-163,56
2358,150,242,1026,753,-137,14
2359,20,160,875,738,-124,-37
2360,-72,118,803,731,-125,-52
2361,-87,157,864,718,-129,-22
2362,-13,253,1005,691,-141,35
2363,152,337,1135,654,-146,69
2364,191,343,1110,628,-130,45
2365,88,278,969,599,-103,-10
2366,-23,188,827,574,-103,-53
2367,-82,174,794,565,-104,-49
2368,14,287,942,550,-106,0
2369,274,583,1252,533,-87,43
2370,274,511,1109,415,-30,45
2371,157,466,918,364,-4,15
2372,36,446,929,327,1,-20
2373,-115,341,760,209,12,-42
2374,-181,412,814,157,20,-49
2375,-151,538,1013,67,7,-35
2376,4,548,1102,-45,-20,-16
2377,87,418,1011,-144,-24,-17
2378,36,317,946,-183,-17,-53
2379,-47,222,895,-212,-20,-95
2380,-50,177,838,-223,-29,-121
2381,38,247,909,-198,-29,-122
2382,162,349,1054,-199,-28,-98
2383,255,337,1114,-235,-23,-72
2384,236,226,1023,-271,-11,-70
2385,193,139,936,-276,11,-90
2386,93,131,893,-242,36,-112
2387,2,194,910,-248,50,-87
2388,-6,224,958,-311,49,-31
2389,127,304,1110,-328,39,18
2390,184,287,1089,-350,54,32
2391,87,289,990,-345,81,3
2392,-73,253,900,-378,87,-34
2393,-115,175,824,-434,71,-46
2394,-65,190,832,-451,60,-11
2395,56,328,1030,-459,53,43
2396,200,401,1172,-494,59,66
2397,203,347,1105,-537,85,33
2398,70,245,906,-552,107,-27
2399,-24,181,798,-574,109,-62
2400,-83,183,812,-607,109,-53
2401,-44,263,970,-647,105,-6
2402,76,351,1143,-691,95,33
2403,171,332,1124,-728,103,19
2404,140,271,987,-735,120,-31
2405,15,228,855,-756,133,-76
2406,-66,197,806,-806,137,-99
2407,-86,230,864,-861,138,-101
2408,4,289,1038,-905,128,-91
2409,161,317,1149,-932,118,-92
2410,201,272,1083,-947,135,-127
2411,76,204,927,-967,155,-176
2412,-38,147,807,-1007,160,-214
2413,-98,132,804,-1054,165,-234
2414,-54,180,947,-1086,163,-232
2415,66,249,1129,-1107,151,-218
2416,176,235,1126,-1127,151,-220
2417,133,185,997,-1137,165,-254
2418,-7,144,864,-1155,174,-298
2419,-104,113,790,-1199,173,-335
2420,-53,121,844,-1237,178,-364
2421,52,152,1019,-1256,194,-375
2422,161,167,1139,-1260,194,-361
2423,158,131,1075,-1272,195,-358
2424,-5,138,966,-1271,196,-394
2425,-185,118,875,-1307,176,-453
2426,-191,33,782,-1376,149,-497
2427,1,85,918,-1364,151,-530
2428,146,120,1070,-1379,183,-550
2429,176,119,1100,-1407,203,-566
2430,61,97,1019,-1449,194,-594
2431,-125,95,965,-1462,161,-637
2432,-220,63,870,-1494,123,-675
2433,-152,36,851,-1511,104,-691
2434,6,46,926,-1502,114,-684
2435,1168,-908,1691,-1581,169,-658
2436,1022,-1807,1120,-1369,604,-362
2437,-655,-452,1165,-553,863,-141
2438,-1743,-342,896,-720,433,-212
2439,-388,-383,610,-667,-137,-215
2440,61,-214,913,-599,-148,37
2441,193,-231,1215,-561,-4,80
2442,592,-72,1102,-544,4,-4
2443,379,13,823,-569,73,15
2444,76,-93,1081,-559,116,43
2445,-212,122,1047,-552,94,97
2446,-306,-12,774,-618,50,133
2447,-221,-108,957,-594,1,83
2448,91,-26,1122,-554,4,30
2449,133,65,1139,-576,31,20
2450,16,82,999,-617,56,22
2451,-87,156,998,-634,47,22
2452,-200,184,949,-671,31,23
2453,-112,-2,893,-701,8,10
2454,24,-56,1031,-682,-13,-3
2455,212,-17,1162,-684,3,-5
2456,202,66,1154,-715,38,9
2457,-4,136,988,-754,66,23
2458,-151,141,913,-782,58,20
2459,-219,53,892,-804,31,5
2460,-99,-81,945,-808,2,-8
2461,105,-101,1097,-797,-12,-8
2462,221,-30,1155,-805,13,2
2463,142,75,1101,-834,49,11
2464,-71,123,946,-867,68,14
2465,-207,91,863,-894,55,5
2466,-208,-12,879,-902,17,-9
2467,-33,-112,1001,-901,-16,-15
2468,146,-92,1155,-896,-18,-2
2469,188,17,1151,-921,15,10
2470,29,113,1032,-954,48,6
2471,-134,131,902,-989,54,-4
2472,-227,43,835,-1010,33,-17
2473,-155,-85,912,-1014,-10,-29
2474,85,-155,1092,-1009,-36,-24
2475,205,-79,1189,-1014,-18,-2
2476,154,44,1099,-1045,23,5
2477,-30,102,951,-1081,48,-5
2478,-185,68,841,-1106,44,-14
2479,-193,-57,836,-1118,12,-25
2480,-38,-187,980,-1110,-26,-30
2481,164,-194,1138,-1099,-30,-13
2482,208,-84,1152,-1109,2,4
2483,64,18,1004,-1138,38,2
2484,-97,37,871,-1165,49,-10
2485,-209,-59,788,-1175,33,-24
2486,-136,-204,860,-1162,-1,-35
2487,65,-297,1037,-1137,-27,-31
2488,203,-249,1147,-1125,-14,-9
2489,160,-115,1084,-1136,21,4
2490,-16,-35,918,-1153,46,-2
2491,-166,-74,786,-1170,45,-15
2492,-181,-198,754,-1156,23,-29
2493,-46,-346,903,-1120,-9,-35
2494,160,-392,1095,-1083,-19,-21
2495,221,-297,1128,-1067,6,4
2496,73,-171,983,-1071,37,11
2497,-88,-120,818,-1077,48,4
2498,-196,-209,698,-1072,39,-9
2499,-139,-355,760,-1026,15,-23
2500,41,-475,978,-972,-11,-25
2501,199,-456,1131,-934,-8,-5
2502,167,-307,1083,-917,21,16
2503,-15,-197,882,-921,43,15
2504,-168,-201,720,-913,41,3
2505,-188,-320,675,-883,25,-11
2506,-78,-469,829,-823,-1,-20
2507,138,-537,1082,-767,-20,-16
2508,214,-448,1151,-735,-1,7
2509,77,-289,999,-728,27,22
2510,-93,-205,792,-729,36,15
2511,-199,-269,650,-707,27,2
2512,-144,-412,706,-658,7,-9
2513,27,-548,949,-592,-16,-17
2514,206,-543,1158,-544,-18,-4
2515,181,-403,1109,-524,8,18
2516,0,-256,897,-523,32,22
2517,-163,-243,708,-511,31,13
2518,-181,-360,632,-476,17,5
2519,-90,-512,789,-408,-6,-3
2520,142,-588,1089,-344,-24,-4
2521,221,-511,1170,-310,-11,15
2522,84,-327,1016,-301,18,30
2523,-96,-222,798,-298,31,22
2524,-205,-277,646,-279,23,10
2525,-161,-425,685,-228,1,1
2526,0,-557,949,-162,-24,-7
2527,194,-557,1176,-114,-32,0
2528,175,-404,1113,-96,-4,21
2529,-6,-237,902,-97,21,23
2530,-155,-210,723,-92,22,10
2531,-188,-327,657,-60,8,0
2532,-105,-488,801,-5,-17,-8
2533,120,-561,1097,56,-39,-8
2534,214,-484,1175,82,-27,12
2535,97,-306,1018,88,3,30
2536,-89,-195,811,85,17,20
2537,-195,-254,672,99,12,6
2538,-170,-407,707,145,-10,-4
2539,-11,-554,934,208,-37,-13
2540,184,-566,1155,256,-46,-5
2541,189,-427,1101,279,-21,20
2542,10,-266,899,285,5,24
2543,-131,-244,720,293,9,13
2544,-184,-364,652,328,-3,3
2545,-110,-522,788,393,-26,-6
2546,105,-609,1046,460,-49,-7
2547,209,-540,1141,503,-42,13
2548,116,-351,1010,519,-11,31
2549,-75,-234,808,527,4,24
2550,-176,-282,664,546,0,11
2551,-170,-418,689,598,-18,3
2552,-27,-558,908,666,-47,-8
2553,164,-572,1121,725,-59,0
2554,190,-422,1094,751,-37,25
2555,19,-246,909,758,-8,31
2556,-112,-212,748,763,-4,18
2557,-187,-315,655,795,-14,8
2558,-133,-468,776,856,-37,-1
2559,77,-550,1033,923,-65,-6
2560,202,-482,1136,961,-59,15
2561,135,-291,1019,973,-27,35
2562,-39,-172,834,975,-8,27
2563,-145,-216,693,986,-9,15
2564,-168,-349,693,1032,-25,7
2565,-38,-487,903,1093,-54,-3
2566,165,-494,1114,1145,-67,9
2567,205,-339,1106,1165,-43,33
2568,60,-153,930,1162,-12,39
2569,-69,-109,781,1161,-1,27
2570,-179,-206,691,1176,-8,20
2571,-156,-353,803,1226,-34,6
2572,48,-448,1032,1283,-66,0
2573,184,-361,1138,1313,-61,26
2574,138,-163,1037,1312,-30,45
2575,-18,-49,863,1297,-9,36
2576,-153,-90,740,1294,-10,25
2577,-217,-236,726,1323,-29,12
2578,-100,-383,911,1378,-67,-5
2579,129,-396,1094,1423,-85,7
2580,193,-240,1085,1438,-62,36
2581,78,-71,946,1430,-31,40
2582,-58,-20,804,1422,-19,28
2583,-198,-119,720,1426,-26,15
2584,-165,-279,831,1468,-57,0
2585,38,-351,1032,1514,-89,-1
2586,203,-266,1093,1540,-80,29
2587,206,-64,1049,1541,-43,51
2588,27,71,885,1523,-17,51
2589,-133,32,791,1505,-19,40
2590,-198,-108,818,1513,-38,27
2591,-85,-211,975,1544,-69,11
2592,152,-186,1096,1564,-78,23
2593,213,-30,1070,1559,-53,50
2594,99,110,983,1536,-23,55
2595,-66,128,889,1508,-12,48
2596,-231,30,847,1492,-22,35
2597,-163,-95,917,1503,-55,14
2598,54,-149,1031,1521,-77,8
2599,229,-65,1071,1528,-61,27
2600,207,60,1041,1515,-26,38
2601,14,118,954,1491,-4,42
2602,-190,69,872,1472,-5,44
2603,-273,20,876,1469,-36,29
2604,-725,1596,1820,1282,-106,-35
2605,17,867,1323,746,-223,18
2606,-400,442,411,905,-225,63
2607,135,940,1315,948,-254,-35
2608,766,-104,302,584,-269,72
2609,157,256,432,645,-66,126
2610,-197,1063,1683,553,17,-23
2611,-47,129,1308,253,-148,-54
2612,438,-142,454,527,-144,-108
2613,231,213,871,561,-61,-119
2614,-19,133,964,395,4,-81
2615,-310,-17,1140,277,-19,-46
2616,-330,-12,1067,399,-70,-84
2617,5,-183,794,408,-133,-60
2618,250,-42,903,494,-119,-19
2619,225,5,1175,450,-60,-5
2620,-10,-119,1145,432,-45,-19
2621,-124,-229,905,505,-66,-84
2622,-173,-212,846,578,-91,-113
2623,-86,-201,868,562,-100,-79
2624,31,-130,1090,556,-113,-13
2625,122,-94,1217,585,-106,5
2626,102,-138,1061,627,-98,-24
2627,-16,-143,923,692,-94,-74
2628,-101,-178,843,693,-95,-98
2629,-169,-148,883,696,-109,-72
2630,-82,-50,1030,701,-134,-25
2631,93,22,1136,708,-146,7
2632,162,35,1085,730,-130,-2
2633,102,17,972,754,-111,-36
2634,-34,-8,903,759,-103,-68
2635,-125,-26,846,748,-110,-73
2636,-125,45,902,745,-131,-47
2637,8,136,1043,727,-150,-8
2638,142,176,1126,711,-146,13
2639,149,152,1066,703,-120,1
2640,25,99,954,707,-102,-31
2641,-69,52,855,698,-105,-56
2642,-134,50,806,691,-120,-54
2643,-91,153,930,685,-144,-24
2644,82,238,1121,645,-157,12
2645,158,213,1147,608,-134,21
2646,99,150,1026,613,-107,-1
2647,-20,93,890,619,-99,-32
2648,-99,64,811,612,-108,-44
2649,-123,110,818,593,-122,-22
2650,-19,229,1033,569,-145,22
2651,151,260,1185,527,-146,50
2652,163,195,1115,513,-111,38
2653,26,125,938,529,-92,2
2654,-62,67,821,525,-99,-34
2655,-116,53,806,504,-110,-38
2656,-62,119,947,488,-126,2
2657,98,200,1142,464,-139,54
2658,192,201,1162,454,-118,66
2659,119,144,1027,463,-90,27
2660,-16,72,862,469,-85,-22
2661,-95,26,817,458,-93,-46
2662,-91,61,873,443,-104,-24
2663,12,150,1055,426,-114,35
2664,168,207,1165,408,-115,72
2665,178,185,1108,409,-89,51
2666,52,118,949,413,-71,-2
2667,-42,52,818,410,-75,-43
2668,-101,56,835,401,-80,-40
2669,-38,133,963,384,-89,9
2670,94,226,1118,363,-100,66
2671,200,261,1144,354,-86,71
2672,144,227,1025,347,-58,24
2673,10,153,878,334,-48,-30
2674,-74,112,824,316,-52,-49
2675,-81,159,877,291,-58,-18
2676,10,266,1027,264,-67,43
2677,173,346,1138,230,-67,76
2678,198,344,1098,210,-43,49
2679,78,288,964,187,-20,-9
2680,-27,207,830,154,-18,-50
2681,-89,198,814,120,-21,-45
2682,-37,283,929,85,-28,9
2683,94,381,1090,38,-35,65
2684,205,420,1151,-2,-21,70
2685,153,374,1027,-34,8,21
2686,18,293,885,-63,19,-34
2687,-65,232,809,-105,18,-59
2688,-68,250,858,-149,15,-30
2689,12,341,1002,-196,8,34
2690,175,418,1144,-245,8,75
2691,198,402,1111,-282,33,52
2692,86,325,955,-310,57,-6
2693,-25,245,836,-346,59,-53
2694,-66,206,810,-389,60,-55
2695,-15,256,918,-432,58,-5
2696,99,348,1088,-473,55,56
2697,205,381,1161,-514,65,70
2698,156,335,1032,-543,91,25
2699,14,254,890,-569,104,-34
2700,-61,186,807,-608,103,-63
2701,-62,182,853,-642,104,-39
2702,7,265,1008,-686,100,25
2703,160,331,1127,-718,98,68
2704,181,330,1107,-745,115,52
2705,81,260,965,-750,137,-7
2706,-42,177,833,-797,137,-54
2707,-80,138,802,-816,140,-59
2708,-40,187,913,-863,141,-19
2709,58,279,1079,-889,136,29
2710,169,290,1144,-925,137,32
2711,149,241,1024,-935,155,-11
2712,21,182,897,-944,168,-63
2713,-65,126,812,-985,169,-87
2714,-90,129,847,-1025,175,-82
2715,-29,183,996,-1067,171,-57
2716,129,219,1120,-1089,158,-39
2717,192,192,1094,-1093,166,-53
2718,109,143,965,-1085,187,-91
2719,-35,78,848,-1111,196,-119
2720,-90,48,812,-1145,199,-124
2721,-60,76,910,-1180,202,-111
2722,47,132,1081,-1189,194,-86
2723,172,139,1131,-1191,187,-69
2724,155,102,1023,-1183,200,-83
2725,-2,71,893,-1184,214,-110
2726,-90,35,821,-1221,216,-128
2727,-106,25,863,-1259,222,-142
2728,-31,50,1010,-1277,224,-139
2729,116,64,1107,-1267,204,-111
2730,179,64,1067,-1246,206,-99
2731,55,79,965,-1240,224,-124
2732,-140,51,871,-1280,222,-175
2733,-165,-4,856,-1332,207,-226
2734,868,-1100,1723,-1415,266,-264
2735,-823,-1661,1138,-965,434,-93
2736,-685,-186,1296,-396,152,-104
2737,-77,55,490,-723,16,-103
2738,6,-32,814,-715,35,10
2739,-184,-500,477,-677,26,110
2740,1,-180,996,-448,-12,37
2741,118,-106,1389,-460,19,-43
2742,192,-120,906,-518,59,-31
2743,140,-248,675,-483,49,55
2744,116,-60,1106,-404,36,101
2745,-4,124,1252,-426,50,105
2746,-214,49,882,-509,59,91
2747,-252,-111,745,-511,29,67
2748,-118,-170,942,-450,-13,55
2749,162,-49,1089,-412,-18,44
2750,170,-52,1093,-431,22,40
2751,18,53,1073,-442,56,26
2752,-82,148,1027,-474,48,20
2753,-167,83,865,-525,25,50
2754,-163,-77,814,-534,-9,81
2755,50,-102,1046,-484,-44,62
2756,271,37,1219,-474,-8,30
2757,136,126,1158,-523,57,16
2758,-53,171,1006,-573,74,7
2759,-170,180,954,-615,45,33
2760,-205,111,884,-660,7,69
2761,-82,-16,943,-663,-32,71
2762,179,24,1160,-644,-34,36
2763,223,143,1242,-670,25,4
2764,40,188,1137,-737,71,-14
2765,-121,219,976,-788,74,-11
2766,-232,200,882,-833,44,5
2767,-203,77,859,-865,-2,7
2768,11,-40,1040,-864,-40,-1
2769,212,14,1247,-870,-25,3
2770,192,130,1219,-917,29,-4
2771,15,184,1038,-976,65,-19
2772,-163,165,876,-1014,68,-26
2773,-243,64,804,-1035,36,-32
2774,-152,-101,892,-1036,-15,-41
2775,117,-179,1138,-1024,-40,-33
2776,218,-85,1222,-1034,-10,-10
2777,130,32,1079,-1070,34,-10
2778,-35,63,891,-1101,57,-22
2779,-188,-1,784,-1110,51,-30
2780,-181,-142,807,-1098,13,-39
2781,-12,-283,979,-1074,-27,-38
2782,181,-259,1161,-1051,-28,-16
2783,175,-126,1130,-1058,8,0
2784,27,-24,955,-1081,39,-4
2785,-133,-24,811,-1095,46,-16
2786,-207,-131,757,-1087,27,-31
2787,-126,-284,853,-1053,-12,-42
2788,110,-343,1074,-1015,-37,-30
2789,206,-251,1159,-1002,-19,-5
2790,128,-94,1064,-1013,18,6
2791,-43,-12,890,-1037,39,-3
2792,-177,-75,759,-1047,36,-15
2793,-168,-198,778,-1021,8,-24
2794,-5,-330,956,-986,-24,-27
2795,176,-334,1155,-959,-30,-9
2796,183,-194,1140,-961,0,12
2797,22,-66,979,-980,30,13
2798,-122,-41,816,-1003,34,0
2799,-192,-146,728,-996,23,-12
2800,-122,-299,822,-957,-4,-24
2801,87,-393,1058,-918,-29,-23
2802,193,-341,1183,-899,-19,-5
2803,124,-184,1079,-911,12,12
2804,-61,-85,885,-927,28,7
2805,-167,-117,738,-936,24,-7
2806,-148,-256,706,-909,9,-19
2807,-9,-396,893,-857,-12,-25
2808,159,-441,1139,-815,-22,-17
2809,195,-343,1180,-809,-5,5
2810,15,-197,991,-821,21,17
2811,-129,-135,806,-830,21,5
2812,-181,-216,672,-820,11,-9
2813,-89,-375,703,-772,2,-16
2814,85,-494,964,-704,-10,-18
2815,196,-485,1193,-660,-10,-5
2816,147,-362,1140,-659,4,16
2817,-61,-243,917,-666,17,24
2818,-183,-227,733,-663,9,13
2819,-150,-337,597,-626,3,3
2820,0,-502,690,-551,3,6
2821,148,-560,1032,-461,4,10
2822,203,-511,1244,-420,-4,17
2823,59,-412,1073,-432,4,35
2824,-140,-307,846,-428,8,34
2825,-238,-344,642,-402,-5,14
2826,-94,-492,540,-329,-25,21
2827,111,-618,731,-225,-25,69
2828,206,-590,1127,-127,-12,105
2829,173,-501,1249,-101,-19,108
2830,-23,-435,960,-109,-20,117
2831,-224,-366,734,-85,-31,124
2832,-182,-396,613,-34,-61,126
2833,32,-597,570,38,-74,166
2834,226,-667,827,163,-56,228
2835,231,-556,1206,261,-37,255
2836,87,-457,1182,266,-43,250
2837,-109,-424,835,254,-56,255
2838,-211,-403,646,295,-76,257
2839,-64,-493,593,361,-89,271
2840,100,-628,677,459,-84,319
2841,191,-606,1009,570,-72,347
2842,170,-501,1252,617,-69,333
2843,-15,-386,1051,607,-63,317
2844,-215,-329,721,609,-66,307
2845,-188,-371,564,650,-89,297
2846,-35,-502,627,729,-97,309
2847,123,-568,942,823,-92,325
2848,169,-526,1216,883,-83,311
2849,64,-370,1161,890,-68,285
2850,-131,-240,862,875,-60,264
2851,-215,-254,612,882,-71,245
2852,-101,-397,565,928,-88,242
2853,23,-529,808,1025,-88,246
2854,162,-538,1170,1101,-87,236
2855,154,-412,1206,1121,-71,226
2856,-28,-247,954,1109,-55,220
2857,-166,-180,716,1104,-57,202
2858,-148,-287,586,1127,-70,188
2859,-61,-456,668,1203,-75,187
2860,109,-515,1036,1299,-82,180
2861,199,-439,1238,1336,-76,177
2862,91,-259,1069,1329,-55,187
2863,-94,-124,813,1310,-45,178
2864,-164,-167,643,1317,-49,150
2865,-113,-330,628,1364,-59,133
2866,-10,-461,870,1449,-68,123
2867,162,-444,1175,1511,-75,120
2868,171,-282,1149,1517,-58,137
2869,1,-97,920,1498,-38,142
2870,-109,-64,727,1484,-37,121
2871,-150,-185,654,1507,-40,96
2872,-94,-342,787,1567,-53,76
2873,96,-391,1068,1635,-71,70
2874,190,-276,1162,1656,-62,92
2875,110,-72,1018,1640,-36,114
2876,-48,26,833,1614,-22,104
2877,-156,-40,710,1611,-23,84
2878,-144,-173,798,1645,-38,57
2879,-31,-269,982,1693,-60,39
2880,150,-216,1122,1717,-70,50
2881,164,-44,1068,1704,-43,74
2882,12,89,929,1677,-15,70
2883,-135,87,827,1652,-14,54
2884,-226,-31,801,1655,-33,39
2885,-136,-138,935,1679,-70,16
2886,113,-135,1068,1702,-86,13
2887,197,-22,1082,1696,-59,27
2888,131,92,1013,1676,-26,29
2889,-48,134,924,1648,-9,31
2890,-191,91,858,1628,-23,34
2891,-165,-11,869,1630,-56,24
2892,-618,1064,1521,1580,-84,-18
2893,-39,1356,1667,889,-198,-38
2894,-284,296,482,962,-234,79
2895,-194,1102,907,1090,-244,-14
2896,757,62,553,698,-259,16
2897,273,121,29,687,-152,186
2898,-189,1057,1371,619,2,66
2899,-8,830,1773,379,-114,-36
2900,320,-236,197,343,-169,-84
2901,312,294,708,635,-76,-136
2902,0,269,876,390,-20,-123
2903,-149,112,1159,242,-20,-60
2904,-366,154,1147,237,-35,-54
2905,-43,13,997,288,-102,-55
2906,273,-33,741,319,-132,-21
2907,251,78,1047,358,-49,-31
2908,-21,17,1155,272,-18,-35
2909,-153,-142,1000,269,-45,-73
2910,-151,-172,867,336,-68,-100
2911,-49,-143,863,353,-86,-73
2912,105,-96,1058,345,-86,-19
2913,129,-54,1203,358,-65,-7
2914,64,-127,1083,395,-59,-51
2915,-40,-170,897,447,-70,-97
2916,-112,-198,844,468,-67,-110
2917,-140,-157,904,458,-75,-73
2918,-41,-65,1076,463,-93,-23
2919,129,-6,1150,486,-102,-6
2920,161,1,1062,529,-91,-34
2921,68,-27,954,553,-77,-75
2922,-64,-70,869,542,-71,-95
2923,-178,-69,871,535,-76,-83
2924,-130,9,982,533,-99,-42
2925,21,64,1077,532,-121,-4
2926,163,98,1098,551,-118,0
2927,129,72,1025,560,-94,-28
2928,-10,12,927,557,-84,-62
2929,-137,-23,861,551,-88,-74
2930,-162,-9,886,543,-104,-52
2931,-68,66,988,540,-130,-6
2932,115,128,1117,535,-139,23
2933,157,125,1110,541,-120,11
2934,61,69,995,549,-101,-26
2935,-56,7,878,549,-101,-57
2936,-132,-20,821,539,-106,-52
2937,-94,36,907,531,-120,-10
2938,35,126,1084,521,-138,34
2939,165,150,1170,519,-133,41
2940,125,103,1050,536,-112,8
2941,-10,32,915,546,-101,-33
2942,-95,-33,825,543,-107,-53
2943,-130,-26,859,535,-112,-29
2944,-57,52,1012,532,-129,23
2945,119,124,1150,527,-142,58
2946,165,111,1121,542,-130,40
2947,70,57,982,563,-111,-7
2948,-48,-20,859,565,-109,-44
2949,-106,-57,825,561,-112,-44
2950,-76,-1,921,557,-118,-4
2951,37,97,1086,558,-134,45
2952,171,135,1163,564,-136,56
2953,147,105,1060,581,-118,23
2954,9,35,915,591,-105,-26
2955,-66,-32,826,586,-107,-49
2956,-89,-22,850,586,-107,-26
2957,-31,84,1007,587,-117,27
2958,124,171,1143,579,-129,66
2959,173,190,1122,585,-119,53
2960,93,144,988,589,-98,0
2961,-30,64,859,585,-93,-46
2962,-76,23,815,570,-96,-47
2963,-63,98,899,565,-99,-4
2964,40,219,1078,547,-110,53
2965,165,278,1151,534,-112,72
2966,155,258,1063,526,-91,30
2967,27,179,913,515,-76,-30
2968,-44,101,819,495,-78,-59
2969,-83,107,835,476,-81,-38
2970,-36,219,997,459,-86,20
2971,107,306,1116,421,-97,66
2972,188,330,1117,405,-83,57
2973,130,282,999,390,-60,0
2974,7,186,859,367,-51,-52
2975,-57,144,824,344,-52,-61
2976,-55,207,883,317,-53,-19
2977,40,327,1053,279,-61,43
2978,179,393,1138,235,-59,68
2979,191,381,1089,209,-34,31
2980,73,300,927,178,-15,-28
2981,-8,236,819,142,-10,-61
2982,-75,250,829,104,-10,-47
2983,-26,342,954,55,-15,9
2984,102,440,1106,-1,-23,61
2985,199,472,1124,-46,-6,57
2986,148,409,1009,-87,20,3
2987,25,317,860,-126,30,-50
2988,-53,271,818,-169,32,-64
2989,-63,306,867,-219,30,-27
2990,28,398,1014,-274,24,35
2991,181,470,1142,-327,25,68
2992,205,437,1092,-370,53,39
2993,86,357,943,-402,76,-20
2994,-12,275,819,-444,77,-60
2995,-73,248,813,-491,78,-55
2996,-20,310,930,-538,78,1
2997,103,394,1100,-587,73,59
2998,210,419,1143,-626,88,66
2999,155,355,1013,-660,116,17
3000,23,270,863,-689,126,-38
3001,-69,208,814,-730,126,-60
3002,-74,210,858,-779,127,-31
3003,3,296,1013,-815,120,31
3004,163,359,1141,-857,117,68
3005,192,337,1086,-884,138,44
3006,77,263,938,-905,158,-12
3007,-36,195,821,-940,160,-54
3008,-104,185,811,-982,164,-60
3009,-65,255,934,-1030,164,-37
3010,53,299,1073,-1087,152,-17
3011,200,304,1127,-1107,151,-30
3012,179,255,1014,-1118,173,-77
3013,34,189,874,-1144,191,-123
3014,-66,143,797,-1187,198,-149
3015,-79,147,856,-1234,201,-154
3016,7,186,1000,-1268,199,-137
3017,175,227,1132,-1285,192,-115
3018,207,192,1079,-1295,204,-123
3019,86,142,936,-1299,224,-151
3020,-59,87,816,-1324,229,-179
3021,-95,67,806,-1356,234,-198
3022,-34,78,934,-1385,239,-194
3023,81,121,1097,-1396,236,-161
3024,194,113,1116,-1396,230,-131
3025,139,87,977,-1384,245,-135
3026,-20,76,871,-1388,258,-161
3027,-109,49,817,-1426,259,-193
3028,-89,27,876,-1461,267,-219
3029,-5,46,1035,-1473,266,-211
3030,161,58,1083,-1471,251,-169
3031,184,73,1037,-1454,257,-146
3032,798,-775,1630,-1497,303,-166
3033,-777,-1645,1342,-1129,446,0
3034,-1074,-247,1470,-649,213,-14
3035,-576,-86,110,-1047,40,-117
3036,-83,-116,525,-890,12,-121
3037,66,-806,543,-804,-12,-8
3038,445,-442,1134,-537,-29,14
3039,365,-51,1527,-534,63,-25
3040,61,140,996,-653,155,-35
3041,-141,-150,448,-653,124,31
3042,-332,-81,565,-558,40,59
3043,86,-205,1275,-488,-40,5
3044,292,-31,1470,-524,22,34
3045,59,114,1080,-599,108,53
3046,43,72,1052,-647,112,41
3047,42,131,1021,-657,121,81
3048,-81,117,847,-682,133,99
3049,-118,-42,776,-694,98,51
3050,-9,-99,1002,-653,43,19
3051,160,78,1234,-641,39,30
3052,123,110,1224,-695,97,60
3053,-30,87,1113,-759,154,63
3054,-153,26,966,-781,180,25
3055,-123,0,803,-769,161,-34
3056,-40,-55,713,-726,126,-85
3057,-18,-92,907,-684,94,-125
3058,21,-49,1166,-656,85,-148
3059,-5,10,1211,-675,120,-159
3060,-101,18,1058,-713,182,-185
3061,-175,-74,857,-722,212,-250
3062,-118,-133,739,-675,185,-331
3063,55,-118,793,-603,144,-394
3064,135,-66,1046,-555,137,-428
3065,77,-54,1224,-555,174,-440
3066,6,-17,1197,-583,232,-454
3067,-106,-32,1008,-607,288,-495
3068,-108,-117,805,-601,304,-559
3069,-22,-162,726,-544,269,-618
3070,97,-141,859,-477,232,-651
3071,119,-104,1124,-447,230,-657
3072,20,-94,1207,-464,269,-645
3073,-100,-93,1077,-492,317,-641
3074,-174,-121,872,-510,342,-671
3075,-136,-207,724,-486,316,-716
3076,0,-219,743,-425,257,-738
3077,95,-173,946,-370,217,-725
3078,42,-132,1162,-371,219,-692
3079,-52,-122,1145,-405,249,-653
3080,-162,-119,964,-437,277,-636
3081,-185,-167,789,-446,272,-649
3082,-90,-230,718,-413,214,-665
3083,55,-204,840,-360,150,-648
3084,101,-128,1085,-342,125,-603
3085,12,-97,1202,-376,144,-550
3086,-105,-100,1100,-429,179,-503
3087,-175,-120,899,-461,195,-489
3088,-151,-179,741,-457,161,-500
3089,12,-202,759,-414,91,-499
3090,96,-153,952,-377,42,-464
3091,57,-106,1168,-389,40,-412
3092,-52,-92,1189,-436,69,-361
3093,-168,-116,1022,-486,103,-332
3094,-175,-167,814,-503,101,-337
3095,-75,-208,706,-471,49,-352
3096,72,-196,813,-420,-15,-346
3097,96,-147,1050,-394,-43,-311
3098,12,-123,1196,-419,-27,-265
3099,-122,-132,1133,-467,15,-230
3100,-187,-174,926,-501,43,-231
3101,-160,-225,739,-485,22,-255
3102,11,-236,720,-429,-42,-271
3103,98,-198,898,-378,-91,-259
3104,62,-163,1120,-368,-97,-225
3105,-55,-158,1174,-400,-67,-189
3106,-184,-182,1043,-437,-23,-174
3107,-196,-238,826,-447,-18,-191
3108,-110,-275,689,-402,-63,-218
3109,45,-262,758,-337,-129,-227
3110,87,-216,978,-295,-163,-204
3111,-13,-198,1141,-298,-155,-162
3112,-137,-207,1110,-332,-120,-132
3113,-233,-253,922,-355,-95,-130
3114,-214,-310,722,-335,-119,-153
3115,-67,-315,663,-272,-189,-171
3116,29,-276,807,-206,-254,-161
3117,17,-233,1036,-179,-279,-127
3118,-101,-217,1125,-195,-267,-83
3119,-216,-242,1010,-229,-238,-58
3120,-256,-293,815,-234,-238,-67
3121,-172,-328,664,-192,-291,-92
3122,-15,-316,702,-122,-368,-97
3123,61,-260,916,-68,-418,-73
3124,-4,-231,1099,-62,-420,-31
3125,-102,-231,1115,-90,-394,7
3126,-182,-305,965,-113,-366,17
3127,232,-598,1145,-56,-360,-20
3128,782,-486,1211,91,-260,-106
3129,819,-286,1103,140,-81,-181
3130,510,-382,1006,114,42,-187
3131,161,-452,850,146,64,-85
3132,-125,-315,676,212,20,63
3133,-164,-334,731,239,-43,130
3134,18,-488,987,277,-76,111
3135,188,-431,1087,343,-42,78
3136,136,-204,1062,379,17,41
3137,-28,-126,980,363,48,9
3138,-154,-131,853,360,36,19
3139,-283,-152,731,381,1,42
3140,-194,-249,821,409,-49,27
3141,51,-346,1052,445,-83,6
3142,205,-289,1150,466,-56,16
3143,157,-129,1083,468,-13,18
3144,-7,-58,929,449,12,5
3145,-166,-100,795,448,10,2
3146,-230,-217,753,469,-21,-1
3147,-78,-357,913,509,-65,-11
3148,173,-372,1126,547,-76,2
3149,259,-245,1138,563,-39,24
3150,135,-113,983,559,6,24
3151,-49,-89,829,560,24,14
3152,-209,-189,753,576,12,9
3153,-185,-322,826,617,-27,2
3154,25,-408,1000,661,-64,8
3155,215,-341,1121,696,-53,30
3156,216,-187,1061,709,-10,39
3157,42,-98,896,710,23,33
3158,-157,-134,788,720,27,26
3159,-241,-251,769,744,-3,21
3160,-135,-353,875,794,-50,14
3161,127,-359,1058,835,-70,25
3162,221,-247,1111,861,-42,44
3163,132,-109,1004,866,2,40
3164,-46,-74,861,864,23,30
3165,-217,-163,774,868,11,38
3166,-216,-298,787,896,-39,52
3167,-4,-368,920,957,-90,56
3168,250,-286,1088,1011,-80,54
3169,224,-155,1087,1029,-18,43
3170,59,-105,960,1020,26,30
3171,-125,-157,874,1000,23,76
3172,-217,-289,782,984,-28,181
3173,-99,-365,778,1015,-109,269
3174,256,-351,973,1088,-149,295
3175,415,-207,1104,1157,-81,252
3176,196,-82,1074,1170,18,196
3177,-56,-188,966,1132,44,213
3178,-150,-298,876,1121,6,337
3179,-123,-212,753,1139,-50,459
3180,-37,-285,708,1135,-120,530
3181,291,-490,998,1188,-180,589
3182,490,-196,1158,1308,-107,588
3183,181,78,1077,1316,20,508
3184,-74,-284,958,1233,55,504
3185,-126,-400,798,1277,19,623
3186,-76,-154,693,1340,-37,700
3187,-414,303,1064,1339,-79,710
3188,-721,1514,1626,904,-234,666
3189,179,1429,1598,610,-171,638
3190,-249,1007,1012,498,9,555
3191,510,244,925,349,69,665
3192,472,155,396,388,144,912
3193,-424,553,459,352,221,1002
3194,-598,912,1127,106,69,929
3195,-214,472,1298,-180,-141,868
3196,409,-77,755,-190,-88,831
3197,-72,67,786,-31,20,795
3198,-407,247,991,13,24,709
3199,-387,160,879,-93,-103,659
3200,-143,144,897,-26,-199,580
3201,91,66,864,-38,-216,485
3202,230,214,1507,45,-202,359
3203,349,-100,1331,75,-106,130
3204,25,-171,857,257,-75,-24
3205,186,-92,844,372,-100,-125
3206,370,-209,998,273,-91,-94
3207,139,-204,1055,273,-4,-30
3208,-114,-122,1204,292,5,-13
3209,-236,-156,1117,347,-46,-67
3210,-157,-365,762,376,-76,-116
3211,-164,-307,746,469,-95,-101
3212,-25,-85,1042,502,-105,-60
3213,85,-52,1251,443,-105,0
3214,143,-160,1057,452,-85,17
3215,110,-94,982,556,-85,-5
3216,-39,-79,887,575,-74,-53
3217,-205,-118,864,540,-80,-76
3218,-197,-36,970,556,-114,-61
3219,2,-8,1061,550,-134,-17
3220,166,2,1047,559,-123,25
3221,178,39,1054,582,-96,23
3222,61,16,1028,581,-80,-12
3223,-63,-66,901,577,-80,-51
3224,-162,-90,835,595,-96,-55
3225,-103,0,920,616,-121,-31
3226,54,71,1092,596,-131,-2
3227,167,54,1132,575,-114,15
3228,145,18,1056,588,-88,6
3229,32,-12,960,610,-82,-17
3230,-79,-51,845,613,-84,-33
3231,-160,-11,801,618,-97,-30
3232,-130,137,957,620,-127,-9
3233,86,209,1160,575,-146,11
3234,189,143,1147,542,-119,14
3235,109,83,1011,554,-83,6
3236,-3,55,890,562,-74,-4
3237,-122,47,792,548,-76,1
3238,-168,121,808,527,-98,22
3239,-66,265,1054,500,-134,48
3240,157,278,1229,446,-136,53
3241,180,175,1090,425,-96,34
3242,52,111,934,442,-65,7
3243,-61,77,828,438,-65,-9
3244,-137,82,790,416,-78,-6
3245,-100,195,933,397,-105,20
3246,117,285,1186,355,-121,40
3247,219,201,1174,313,-93,35
3248,122,123,995,329,-54,16
3249,-25,78,853,336,-46,-13
3250,-126,57,796,314,-55,-26
3251,-114,101,876,287,-75,-6
3252,32,203,1094,262,-96,35
3253,200,210,1204,234,-86,52
3254,188,144,1071,232,-51,34
3255,44,79,906,247,-29,-6
3256,-59,37,831,236,-30,-36
3257,-115,53,856,218,-39,-26
3258,-47,148,1014,195,-56,20
3259,139,221,1146,168,-64,58
3260,209,214,1125,158,-37,54
3261,129,166,989,154,-7,17
3262,-18,110,869,141,3,-24
3263,-118,96,839,121,-3,-36
3264,-121,170,895,98,-20,-5
3265,13,268,1049,60,-41,44
3266,184,312,1142,24,-34,65
3267,202,273,1077,-4,-1,45
3268,61,215,935,-18,25,9
3269,-52,166,851,-49,28,-19
3270,-133,178,843,-76,18,-15
3271,-80,270,947,-117,-3,22
3272,105,350,1111,-165,-17,55
3273,215,324,1130,-213,8,54
3274,160,247,1009,-233,42,28
3275,4,188,886,-249,58,-7
3276,-102,154,836,-283,53,-26
3277,-122,195,865,-319,37,-7
3278,2,285,1031,-357,20,36
3279,179,312,1147,-402,24,58
3280,197,251,1087,-430,57,41
3281,70,184,938,-442,80,1
3282,-41,133,844,-467,81,-31
3283,-120,131,847,-499,77,-27
3284,-65,200,952,-536,63,19
3285,98,274,1112,-571,52,65
3286,207,274,1119,-602,72,64
3287,153,221,995,-618,101,23
3288,25,168,881,-639,113,-22
3289,-85,144,858,-671,118,-38
3290,-108,173,893,-714,111,-5
3291,-6,264,1024,-750,99,54
3292,172,313,1114,-792,99,75
3293,198,277,1046,-820,126,46
3294,95,222,929,-847,146,-5
3295,-18,180,866,-881,156,-37
3296,-116,165,863,-926,162,-27
3297,-67,223,952,-965,151,27
3298,86,293,1076,-1008,140,71
3299,207,300,1078,-1050,156,65
3300,166,255,968,-1082,182,23
3301,48,206,889,-1122,199,-21
3302,-71,174,875,-1165,213,-32
3303,-103,183,894,-1221,212,3
3304,-10,261,999,-1258,200,58
3305,170,302,1071,-1306,200,75
3306,206,274,1010,-1350,224,45
3307,257,104,1112,-1392,248,-5
3308,80,-1544,1857,-1513,326,10
3309,-754,-1378,1643,-844,243,83
3310,-703,-204,710,-822,114,8
3311,-323,164,573,-834,40,-65
3312,36,-647,345,-1059,-20,14
3313,241,-654,816,-621,-41,82
3314,307,-187,1435,-469,16,23
3315,48,48,1300,-555,101,-20
3316,-155,-78,503,-633,100,13
3317,-243,-416,381,-545,17,64
3318,70,-318,1212,-382,-48,63
3319,238,-262,1345,-397,-5,64
3320,37,-90,963,-426,62,60
3321,-180,-25,758,-408,63,33
3322,-255,-98,790,-398,10,45
3323,-202,-258,782,-363,-38,70
3324,-35,-422,941,-297,-59,40
3325,180,-359,1118,-213,-34,-6
3326,169,-237,1014,-192,8,-12
3327,-13,-153,838,-177,24,11
3328,-163,-159,782,-153,3,32
3329,-221,-199,856,-116,-27,22
3330,-83,-345,924,-81,-50,-10
3331,154,-359,996,-18,-52,-23
3332,274,-219,1040,24,-21,-7
3333,227,-61,1018,32,13,21
3334,6,47,931,28,31,52
3335,-187,52,903,15,21,57
3336,-201,-24,953,16,-6,29
3337,-34,-86,1029,19,-30,9
3338,166,-41,1103,21,-26,14
3339,218,100,1123,4,4,27
3340,62,239,1062,-33,32,39
3341,-142,278,997,-90,35,45
3342,-275,185,950,-136,9,31
3343,-187,75,1013,-158,-28,-1
3344,49,12,1109,-173,-43,-19
3345,206,68,1157,-198,-23,-14
3346,182,176,1110,-236,10,0
3347,-17,235,1019,-283,28,11
3348,-209,186,941,-325,19,10
3349,-229,43,936,-351,-13,-11
3350,-61,-87,1019,-356,-40,-34
3351,186,-104,1112,-354,-38,-37
3352,265,-8,1105,-364,-4,-19
3353,132,85,1020,-385,28,5
3354,-73,110,938,-408,34,21
3355,-230,28,888,-426,17,16
3356,-164,-130,936,-426,-14,-10
3357,33,-226,1027,-407,-31,-26
3358,220,-183,1076,-387,-15,-19
3359,209,-68,1049,-383,16,-1
3360,25,2,938,-388,38,18
3361,-179,-17,860,-393,34,25
3362,-232,-141,856,-385,6,3
3363,-94,-300,940,-357,-22,-20
3364,148,-324,1046,-315,-29,-22
3365,240,-223,1053,-287,-2,-6
3366,128,-101,975,-278,28,12
3367,-80,-51,868,-273,39,26
3368,-248,-114,820,-262,21,20
3369,-195,-259,880,-236,-13,-6
3370,0,-358,993,-190,-36,-23
3371,203,-300,1061,-152,-27,-15
3372,212,-159,1026,-129,4,4
3373,37,-57,926,-127,29,18
3374,-168,-51,843,-115,26,22
3375,-240,-156,847,-103,-1,6
3376,-122,-299,936,-77,-32,-18
3377,128,-322,1053,-35,-42,-21
3378,229,-219,1062,-6,-20,-6
3379,144,-88,991,-4,13,8
3380,-66,-27,882,3,27,19
3381,-232,-92,822,3,11,15
3382,-204,-242,879,33,-22,-9
3383,-12,-349,987,65,-49,-27
3384,202,-313,1073,111,-43,-21
3385,222,-176,1026,127,-8,-2
3386,51,-80,914,138,17,11
3387,-140,-82,832,142,18,18
3388,-236,-197,828,167,-6,7
3389,-131,-345,921,207,-40,-18
3390,119,-382,1027,257,-52,-24
3391,230,-288,1039,295,-28,-9
3392,165,-146,962,314,5,9
3393,-44,-89,868,329,18,21
3394,-209,-151,808,343,5,20
3395,-197,-285,851,381,-24,-1
3396,-10,-391,959,430,-50,-20
3397,193,-356,1031,482,-44,-15
3398,228,-218,1004,514,-13,4
3399,60,-110,904,533,14,21
3400,-133,-109,839,544,12,32
3401,-246,-209,818,573,-10,19
3402,-143,-340,899,619,-44,-9
3403,98,-385,995,675,-56,-20
3404,228,-300,1011,718,-34,-6
3405,175,-175,950,748,-2,14
3406,-32,-127,859,769,13,30
3407,-214,-186,803,796,-1,32
3408,-223,-307,816,842,-34,10
3409,-32,-414,910,903,-61,-14
3410,192,-392,981,966,-56,-10
3411,246,-261,975,1013,-25,11
3412,90,-168,895,1041,4,33
3413,-112,-150,826,1073,6,46
3414,-257,-219,773,1109,-18,34
3415,-177,-328,825,1170,-53,7
3416,-505,1164,1710,1102,-101,-34
3417,130,1117,1530,672,-172,9
3418,-228,351,644,694,-163,76
3419,-99,750,1034,908,-170,11
3420,484,144,577,532,-214,83
3421,94,155,329,509,-92,146
3422,-96,954,1520,543,-6,26
3423,102,398,1634,172,-127,-23
3424,429,-303,398,231,-102,-60
3425,164,179,877,612,-30,-53
3426,-98,196,885,314,10,-41
3427,-319,-9,1034,114,-9,-19
3428,-281,36,1148,225,-52,-20
3429,97,-62,984,262,-117,12
3430,288,-15,940,336,-94,22
3431,226,-35,1013,284,-26,-6
3432,-26,-159,1052,244,-16,-26
3433,-173,-225,922,312,-24,-52
3434,-238,-171,934,384,-58,-41
3435,-80,-157,958,380,-90,-4
3436,139,-152,1084,375,-97,35
3437,146,-133,1128,432,-70,27
3438,16,-173,1025,465,-63,-15
3439,-107,-221,910,509,-71,-59
3440,-184,-254,835,531,-82,-57
3441,-141,-166,943,562,-108,-1
3442,6,-59,1101,577,-127,46
3443,141,-29,1153,595,-127,46
3444,133,-67,1020,632,-108,3
3445,19,-108,913,660,-97,-44
3446,-119,-137,865,671,-98,-58
3447,-179,-103,894,671,-113,-26
3448,-93,-2,1029,685,-139,27
3449,111,46,1116,687,-152,50
3450,186,29,1072,706,-134,28
3451,103,-18,985,725,-111,-19
3452,-38,-82,897,729,-106,-53
3453,-167,-103,856,742,-111,-49
3454,-153,-43,914,754,-137,-8
3455,-11,54,1063,757,-163,37
3456,169,81,1141,757,-163,45
3457,171,46,1047,770,-135,20
3458,36,1,941,788,-115,-21
3459,-94,-35,851,789,-118,-44
3460,-158,-12,835,791,-131,-29
3461,-97,112,968,792,-158,16
3462,118,208,1131,764,-172,48
3463,219,198,1130,738,-147,44
3464,140,152,998,742,-112,15
3465,-8,114,865,735,-101,-15
3466,-127,110,803,719,-106,-27
3467,-137,185,859,694,-127,-4
3468,1,316,1050,659,-154,34
3469,205,361,1180,605,-146,50
3470,224,310,1078,569,-105,36
3471,89,250,913,551,-73,11
3472,-45,222,817,518,-69,-13
3473,-131,246,804,475,-78,-11
3474,-84,362,941,428,-104,20
3475,138,476,1133,365,-117,48
3476,252,465,1154,296,-85,45
3477,181,395,988,253,-43,21
3478,21,349,851,215,-24,-9
3479,-82,334,787,154,-26,-26
3480,-97,388,848,86,-40,-7
3481,40,512,1052,22,-59,29
3482,226,552,1192,-57,-47,45
3483,240,475,1076,-124,-3,28
3484,96,395,889,-163,30,-3
3485,-24,358,808,-218,35,-33
3486,-90,356,812,-291,33,-32
3487,-37,440,973,-358,19,6
3488,160,502,1139,-431,14,46
3489,250,456,1127,-492,48,47
3490,177,375,967,-524,85,14
3491,28,295,839,-566,102,-27
3492,-71,252,804,-624,105,-44
3493,-80,290,891,-675,98,-18
3494,51,366,1066,-730,84,33
3495,209,381,1158,-776,94,57
3496,213,313,1052,-812,129,31
3497,72,230,883,-833,153,-11
3498,-42,177,821,-870,158,-43
3499,-115,163,839,-914,159,-37
3500,-59,224,987,-948,143,7
3501,119,281,1123,-985,129,48
3502,205,243,1097,-1014,152,42
3503,128,173,953,-1023,178,2
3504,-15,105,847,-1042,189,-40
3505,-114,73,836,-1075,189,-54
3506,-119,110,903,-1102,181,-31
3507,14,175,1065,-1126,163,7
3508,180,183,1120,-1147,163,15
3509,194,124,1026,-1151,186,-13
3510,57,72,897,-1148,207,-48
3511,-50,45,855,-1185,218,-65
3512,-136,26,857,-1204,220,-58
3513,-75,95,1005,-1214,204,-27
3514,114,120,1098,-1228,184,0
3515,213,100,1062,-1223,200,-5
3516,140,48,946,-1224,228,-29
3517,-28,4,874,-1239,244,-51
3518,-151,-24,861,-1264,246,-58
3519,-156,6,927,-1270,231,-39
3520,-5,49,1057,-1275,204,-4
3521,751,-917,1776,-1349,231,9
3522,-364,-1491,1127,-820,287,63
3523,-523,-402,1301,-467,198,-22
3524,-654,-122,450,-728,129,-116
3525,-417,-345,430,-721,50,-117
3526,-401,-769,235,-547,-36,-31
3527,144,-641,1180,-264,-107,-68
3528,642,-290,1571,-224,-30,-102
3529,367,-26,930,-308,96,-74
3530,20,-143,569,-305,110,-1
3531,-173,-32,863,-222,32,92
3532,-180,-16,1046,-223,-14,126
3533,-54,-177,1072,-248,-10,78
3534,25,-108,1050,-217,19,8
3535,98,51,1073,-213,36,-22
3536,-4,120,988,-249,36,17
3537,-120,128,899,-273,19,56
3538,-195,95,965,-285,-6,35
3539,-96,-2,1020,-294,-13,-15
3540,80,-69,1032,-295,-17,-37
3541,195,-53,1076,-296,-2,-20
3542,194,68,1132,-308,23,9
3543,-2,178,1028,-346,42,35
3544,-194,128,881,-382,38,30
3545,-251,-11,859,-385,7,-4
3546,-90,-140,981,-363,-25,-38
3547,159,-161,1112,-346,-25,-42
3548,235,-84,1099,-346,12,-26
3549,94,-7,1010,-360,41,-6
3550,-94,23,905,-370,42,11
3551,-241,-59,800,-365,17,5
3552,-199,-220,844,-334,-21,-27
3553,22,-307,1010,-282,-40,-57
3554,204,-244,1108,-248,-17,-58
3555,178,-134,1037,-243,22,-44
3556,-7,-75,911,-238,37,-20
3557,-193,-73,823,-230,18,-1
3558,-227,-185,798,-206,-18,-13
3559,-78,-320,923,-161,-48,-39
3560,171,-318,1081,-112,-45,-50
3561,246,-195,1094,-92,-6,-37
3562,100,-85,971,-93,24,-9
3563,-91,-36,861,-92,21,19
3564,-238,-81,811,-80,-9,26
3565,-169,-221,882,-56,-43,3
3566,52,-295,1038,-15,-58,-20
3567,228,-212,1101,12,-34,-20
3568,201,-78,1044,18,5,-5
3569,-3,0,915,11,21,17
3570,-206,-12,842,12,6,29
3571,-248,-133,858,22,-28,11
3572,-87,-260,969,56,-58,-18
3573,163,-254,1082,90,-54,-28
3574,240,-148,1069,104,-21,-18
3575,102,-42,965,102,7,2
3576,-106,-17,873,106,8,20
3577,-255,-100,837,117,-16,17
3578,-169,-247,898,146,-49,-11
3579,59,-329,1008,188,-62,-31
3580,240,-274,1055,226,-41,-25
3581,215,-157,1004,245,-5,-5
3582,6,-89,886,257,11,18
3583,-206,-126,814,276,0,29
3584,-229,-238,830,310,-32,9
3585,-66,-368,925,358,-58,-19
3586,181,-374,1020,414,-55,-26
3587,249,-259,1018,457,-24,-9
3588,103,-149,922,478,4,15
3589,-105,-122,830,498,4,33
3590,-251,-195,792,531,-17,26
3591,-163,-323,865,581,-49,-7
3592,57,-400,976,639,-63,-29
3593,239,-328,1016,689,-44,-19
3594,210,-199,970,725,-12,4
3595,17,-131,866,744,6,26
3596,-201,-163,794,773,-3,35
3597,-241,-264,796,819,-34,17
3598,-78,-388,895,882,-62,-15
3599,162,-384,992,948,-61,-22
3600,-32,1034,1618,865,-34,-23
3601,-299,699,1334,533,-76,0
3602,-512,407,729,630,-150,36
3603,-337,516,921,624,-188,-6
3604,388,99,602,462,-247,87
3605,437,213,862,440,-126,155
3606,289,652,1589,358,-15,64
3607,125,28,1184,208,-69,-26
3608,124,-166,679,383,-65,-97
3609,-102,-87,701,408,-38,-92
3610,-228,34,925,336,-21,-31
3611,-206,-31,1205,218,-57,33
3612,43,-34,1248,329,-102,30
3613,234,-169,896,393,-113,6
3614,142,-115,885,471,-71,-28
3615,-26,-200,923,388,-41,-43
3616,-217,-249,988,404,-48,-27
3617,-149,-198,1015,480,-85,-2
3618,15,-103,1068,548,-125,18
3619,187,-101,1048,553,-115,9
3620,142,-150,1005,554,-85,-10
3621,-50,-169,959,593,-71,-34
3622,-204,-163,928,622,-84,-36
3623,-208,-124,918,642,-113,-15
3624,-46,-52,980,652,-140,27
3625,175,39,1102,662,-144,50
3626,216,54,1093,660,-116,31
3627,79,12,991,662,-92,-14
3628,-66,-32,878,679,-91,-49
3629,-181,-24,837,682,-100,-39
3630,-141,76,930,671,-122,6
3631,29,177,1097,642,-142,47
3632,198,186,1131,621,-135,48
3633,179,145,1021,620,-105,17
3634,28,87,898,611,-86,-20
3635,-114,61,844,597,-85,-37
3636,-166,95,869,576,-101,-19
3637,-64,199,1021,553,-126,21
3638,163,238,1139,517,-135,44
3639,228,198,1088,502,-104,29
3640,105,130,958,493,-73,-2
3641,-50,81,855,482,-67,-30
3642,-176,67,832,464,-75,-33
3643,-129,141,940,446,-101,-2
3644,61,219,1104,416,-123,33
3645,239,219,1147,392,-104,39
3646,203,168,1030,386,-66,13
3647,38,110,891,378,-47,-20
3648,-108,87,843,364,-46,-39
3649,-150,129,869,338,-60,-24
3650,-42,241,1017,305,-84,19
3651,179,308,1153,264,-88,43
3652,245,289,1101,238,-53,30
3653,116,233,950,217,-22,-3
3654,-26,198,841,189,-12,-32
3655,-145,213,825,145,-19,-35
3656,-98,302,942,97,-37,-3
3657,82,389,1104,36,-52,37
3658,243,409,1141,-11,-32,42
3659,205,352,1015,-51,6,12
3660,47,283,871,-90,26,-24
3661,-89,253,827,-139,29,-43
3662,-121,285,872,-200,19,-24
3663,-4,373,1027,-256,3,18
3664,209,426,1149,-315,5,41
3665,257,383,1083,-357,42,24
3666,123,312,937,-394,73,-17
3667,-22,263,840,-442,84,-50
3668,-123,252,828,-503,84,-53
3669,-78,322,954,-562,72,-24
3670,98,385,1104,-621,59,6
3671,243,379,1121,-667,78,2
3672,188,318,1000,-697,112,-39
3673,25,242,858,-739,131,-79
3674,-98,205,827,-789,135,-100
3675,-115,233,887,-846,131,-90
3676,0,290,1040,-895,117,-57
3677,201,316,1132,-936,117,-38
3678,240,266,1055,-957,145,-55
3679,89,204,904,-986,173,-89
3680,-42,160,832,-1026,182,-117
3681,-124,149,848,-1079,187,-123
3682,-54,185,980,-1122,181,-101
3683,122,228,1112,-1151,167,-69
3684,241,209,1075,-1169,181,-60
3685,151,179,963,-1184,211,-82
3686,-27,146,848,-1223,227,-121
3687,-140,134,839,-1275,230,-168
3688,-114,120,905,-1328,228,-205
3689,45,137,1046,-1354,216,-200
3690,223,163,1095,-1374,215,-174
3691,431,-158,1276,-1384,241,-195
3692,431,-1735,1685,-1111,384,-174
3693,-1282,-669,1467,-517,380,-15
3694,-892,-160,449,-844,61,-121
3695,-246,-49,374,-830,-17,-146
3696,-75,-650,551,-748,-18,-57
3697,361,-517,860,-508,-57,-11
3698,594,-238,1478,-440,0,-26
3699,226,98,1339,-521,120,-35
3700,-127,12,571,-595,129,26
3701,-320,-105,456,-530,45,112
3702,-126,-198,1099,-440,-32,105
3703,181,-84,1450,-446,-14,69
3704,99,19,1079,-519,61,36
3705,-74,122,887,-526,81,1
3706,-170,224,909,-537,44,12
3707,-224,82,871,-573,-1,41
3708,-133,-80,985,-572,-26,25
3709,89,-71,1185,-555,-21,-26
3710,236,26,1154,-580,14,-41
3711,146,64,992,-612,44,-9
3712,-52,127,940,-627,45,24
3713,-205,128,955,-651,26,27
3714,-227,-24,925,-673,3,-5
3715,-81,-167,952,-667,-18,-40
3716,144,-177,1071,-633,-20,-50
3717,236,-90,1114,-643,4,-28
3718,90,-23,986,-647,36,1
3719,-107,-5,875,-661,38,13
3720,-254,-94,827,-646,16,-5
3721,-184,-261,871,-628,-20,-33
3722,39,-367,976,-577,-43,-42
3723,213,-314,1073,-538,-27,-31
3724,196,-199,1029,-515,9,-13
3725,-11,-156,867,-507,30,3
3726,-200,-200,758,-477,18,8
3727,-224,-339,769,-429,-17,-8
3728,-51,-491,906,-364,-50,-25
3729,165,-497,1020,-293,-48,-21
3730,226,-372,1022,-245,-16,-6
3731,65,-266,897,-210,13,5
3732,-121,-251,769,-178,14,14
3733,-249,-341,709,-121,-10,9
3734,-157,-499,813,-48,-49,-11
3735,80,-575,972,35,-67,-22
3736,221,-492,1019,103,-47,-8
3737,170,-347,946,152,-15,4
3738,-34,-272,813,191,4,11
3739,-204,-325,697,241,-9,13
3740,-213,-458,720,317,-41,-1
3741,-20,-595,891,406,-69,-21
3742,193,-584,1009,491,-67,-15
3743,231,-441,982,556,-36,3
3744,56,-310,848,601,-6,13
3745,-124,-291,734,646,-7,18
3746,-229,-390,679,713,-28,18
3747,-103,-526,814,805,-59,0
3748,147,-570,987,893,-70,-3
3749,238,-440,1009,962,-45,19
3750,147,-261,915,1003,-17,35
3751,-55,-190,797,1035,-7,43
3752,-200,-251,708,1077,-16,43
3753,-181,-392,746,1158,-38,34
3754,15,-475,913,1242,-67,33
3755,236,-436,1010,1311,-69,61
3756,246,-280,957,1355,-38,97
3757,59,-162,832,1391,-13,116
3758,-111,-171,750,1429,-14,130
3759,-209,-271,732,1483,-32,136
3760,-124,-361,851,1555,-60,122
3761,-166,1354,1694,1471,-41,52
3762,-412,434,876,723,-119,2
3763,-716,219,335,1114,-213,52
3764,-223,941,1213,1135,-282,-50
3765,628,-139,221,780,-347,69
3766,451,-9,218,801,-154,188
3767,116,1311,1816,732,30,34
3768,111,124,1270,442,-152,14
3769,487,-61,349,722,-127,-55
3770,33,317,873,720,-29,-111
3771,-231,283,826,494,-5,-107
3772,-385,5,1056,370,-46,-43
3773,-279,321,1316,490,-110,-41
3774,220,-87,818,448,-169,7
3775,389,187,896,532,-111,26
3776,211,99,1029,402,-33,-13
3777,-58,-5,1093,371,-27,-33
3778,-166,-88,882,424,-42,-68
3779,-163,59,953,470,-80,-62
3780,24,31,876,408,-96,-25
3781,173,107,1147,389,-83,16
3782,128,117,1137,381,-55,7
3783,-4,14,970,388,-43,-28
3784,-102,41,866,420,-54,-63
3785,-132,3,794,385,-64,-64
3786,-75,148,986,366,-82,-15
3787,127,200,1136,314,-89,26
3788,187,205,1155,301,-67,28
3789,116,131,982,307,-40,-5
3790,-12,84,865,300,-31,-42
3791,-133,62,803,273,-33,-52
3792,-142,143,921,242,-52,-25
3793,3,233,1098,199,-76,19
3794,188,228,1153,169,-68,34
3795,196,190,1041,166,-34,17
3796,56,131,919,154,-11,-19
3797,-91,87,850,129,-9,-43
3798,-172,97,867,101,-21,-36
3799,-101,171,993,69,-49,3
3800,129,228,1128,43,-60,35
3801,215,185,1100,24,-34,30
3802,125,125,983,28,-2,-1
3803,-33,67,885,14,6,-34
3804,-139,40,840,-1,1,-45
3805,-117,95,921,-23,-17,-13
3806,43,175,1081,-50,-35,31
3807,211,194,1164,-72,-25,46
3808,178,147,1037,-74,9,19
3809,30,99,922,-76,26,-24
3810,-96,63,849,-97,26,-48
3811,-150,84,870,-125,18,-27
3812,-67,196,1022,-160,-3,20
3813,154,246,1133,-191,-12,52
3814,221,227,1082,-213,14,38
3815,123,189,966,-220,43,-5
3816,-20,134,872,-256,52,-39
3817,-130,130,857,-296,56,-38
3818,-102,209,952,-337,41,2
3819,61,300,1072,-381,23,44
3820,231,342,1119,-421,35,49
3821,201,328,1000,-456,69,18
3822,54,289,895,-502,91,-24
3823,-91,274,856,-564,100,-40
3824,-138,303,890,-632,94,-19
3825,-29,389,1006,-696,79,27
3826,193,432,1109,-763,77,47
3827,244,399,1046,-816,108,30
3828,134,332,924,-869,140,-7
3829,-17,274,863,-931,155,-35
3830,-130,249,858,-997,165,-33
3831,-78,273,952,-1058,156,2
3832,90,310,1075,-1110,144,34
3833,233,289,1077,-1150,158,34
3834,161,254,973,-1185,190,2
3835,-33,259,897,-1234,214,-53
3836,115,-233,1158,-1299,212,-132
3837,138,-1775,1703,-1000,321,-129
3838,-1064,-715,1432,-478,258,-46
3839,-324,-75,699,-755,7,-94
3840,40,53,667,-812,-7,-19
3841,-21,-286,578,-746,-3,46
3842,112,-37,715,-555,-17,33
3843,27,-22,1438,-559,14,-20
3844,6,10,1273,-653,44,-48
3845,113,-55,675,-687,22,5
3846,171,0,854,-629,11,68
3847,216,145,1345,-621,29,76
3848,-58,249,1194,-719,64,83
3849,-347,206,844,-787,72,48
3850,-350,153,910,-786,24,-20
3851,-108,63,995,-801,-17,-43
3852,199,-116,1086,-824,-30,-24
3853,306,-4,1170,-818,9,-10
3854,182,164,1127,-855,56,-8
3855,-65,151,891,-909,70,12
3856,-247,-7,754,-913,48,22
3857,-196,-158,935,-885,7,-4
3858,40,-252,1098,-871,-12,-28
3859,216,-233,1069,-862,10,-21
3860,181,-111,962,-847,45,-5
3861,9,-66,899,-836,59,8
3862,-185,-102,837,-824,49,18
3863,-232,-254,803,-803,22,4
3864,-95,-392,913,-753,-9,-23
3865,161,-396,1026,-700,-12,-28
3866,236,-301,1026,-662,13,-5
3867,91,-191,925,-640,43,19
3868,-96,-148,841,-617,46,28
3869,-259,-207,785,-589,27,18
3870,-198,-363,814,-548,-8,-7
3871,13,-459,963,-486,-35,-21
3872,213,-387,1069,-432,-23,-9
3873,197,-242,1026,-406,11,9
3874,1,-154,865,-391,33,22
3875,-198,-178,773,-366,25,23
3876,-244,-301,777,-328,-6,4
3877,-94,-451,902,-272,-42,-15
3878,148,-470,1043,-213,-49,-12
3879,236,-342,1056,-168,-21,5
3880,102,-213,928,-151,11,16
3881,-92,-188,792,-126,18,20
3882,-244,-286,728,-86,1,11
3883,-177,-450,818,-22,-35,-12
3884,46,-550,978,49,-61,-20
3885,216,-483,1045,108,-45,-3
3886,191,-327,976,149,-13,12
3887,5,-242,831,178,9,17
3888,-184,-287,719,222,3,17
3889,-225,-430,720,286,-23,2
3890,-67,-575,881,374,-57,-14
3891,165,-584,1018,451,-65,-4
3892,226,-436,1006,512,-40,20
3893,79,-292,879,550,-9,28
3894,-90,-261,749,590,-2,26
3895,-221,-367,672,648,-16,18
3896,-140,-526,780,736,-45,2
3897,83,-604,966,826,-68,5
3898,240,-507,1022,900,-59,39
3899,181,-319,937,949,-31,70
3900,-7,-218,796,984,-14,83
3901,-155,-271,686,1029,-21,87
3902,-175,-407,693,1106,-40,91
3903,2,-504,907,1198,-64,90
3904,221,-478,1048,1264,-71,103
3905,247,-323,989,1304,-42,128
3906,56,-174,843,1335,-13,142
3907,-103,-149,745,1369,-18,151
3908,-191,-267,713,1417,-37,159
3909,-114,-374,859,1489,-58,147
3910,113,-383,1028,1548,-71,121
3911,220,-272,1021,1578,-45,115
3912,117,-118,931,1595,-10,113
3913,-85,-62,838,1608,2,105
3914,-520,451,1087,1633,-1,84
3915,-765,1627,1897,1072,-98,-38
3916,-478,-164,307,900,-252,67
3917,-433,840,504,1266,-271,14
3918,757,501,1093,979,-364,-16
3919,947,-225,35,760,-251,189
3920,167,590,944,858,49,114
3921,-442,1077,1891,615,12,-76
3922,-17,-463,382,508,-203,-78
3923,393,138,502,834,-137,-92
3924,75,541,1196,710,-47,-69
3925,4,168,1139,383,-18,-21
3926,-286,19,1078,458,-51,-39
3927,-198,130,1087,607,-103,-84
3928,38,-179,427,494,-131,-42
3929,100,203,965,602,-102,-10
3930,198,248,1365,404,-82,8
3931,185,-11,1191,361,-59,13
3932,41,-5,879,505,-44,-40
3933,-99,49,869,539,-53,-91
3934,-155,-34,711,427,-66,-95
3935,-116,137,997,440,-94,-64
3936,78,247,1273,390,-96,-23
3937,166,126,1082,324,-78,7
3938,142,119,954,384,-54,-7
3939,0,126,876,370,-37,-40
3940,-130,83,815,320,-44,-55
3941,-149,179,900,307,-66,-49
3942,-8,273,1104,253,-86,-24
3943,189,246,1122,211,-78,0
3944,209,205,1036,198,-44,-2
3945,58,187,960,191,-11,-26
3946,-79,123,861,149,-12,-49
3947,-169,129,832,122,-28,-49
3948,-92,232,977,91,-51,-19
3949,130,291,1127,36,-63,15
3950,230,261,1114,1,-30,21
3951,149,225,1006,-13,6,-3
3952,-6,174,895,-34,17,-40
3953,-115,147,820,-70,14,-56
3954,-128,217,889,-111,0,-33
3955,30,298,1057,-166,-22,12
3956,199,324,1164,-209,-9,32
3957,200,265,1043,-232,26,12
3958,57,216,914,-250,47,-27
3959,-56,193,849,-284,52,-54
3960,-128,196,856,-345,50,-44
3961,-57,283,1005,-396,33,0
3962,154,344,1126,-447,27,33
3963,232,321,1085,-485,55,23
3964,155,268,955,-507,87,-12
3965,3,226,867,-551,102,-48
3966,-112,206,849,-610,108,-57
3967,-101,242,932,-665,98,-26
3968,63,293,1061,-714,84,16
3969,224,299,1129,-750,95,26
3970,207,239,997,-780,127,-1
3971,64,174,895,-810,153,-37
3972,-77,140,869,-852,162,-54
3973,-135,128,889,-903,159,-37
3974,-39,189,1013,-929,141,7
3975,173,228,1096,-959,135,29
3976,237,204,1043,-984,161,13
3977,143,158,939,-1010,193,-22
3978,-30,115,881,-1047,210,-47
3979,-162,105,879,-1087,212,-44
3980,10,-1052,1623,-1118,198,-11
3981,-180,-1542,1508,-519,116,58
3982,-94,-550,976,-471,135,-47
3983,-232,24,1038,-494,166,-172
3984,-77,-659,347,-527,97,-119
3985,-441,-293,311,-282,34,-10
3986,-351,-294,1088,-165,-29,-119
3987,114,-219,1485,-177,-39,-176
3988,94,-207,773,-231,21,-91
3989,176,-193,820,-187,5,-50
3990,254,91,1292,-142,-13,3
3991,116,307,1096,-225,23,80
3992,-238,103,799,-305,35,91
3993,-265,-2,925,-266,1,22
3994,-25,110,1178,-255,-31,-29
3995,120,50,1108,-319,-17,-10
3996,132,59,1044,-343,5,10
3997,5,278,1103,-348,19,5
3998,-134,295,1015,-425,23,-8
3999,-223,69,847,-469,2,-15
4000,-98,-70,934,-449,-33,-37
4001,197,-80,1212,-437,-40,-57
4002,280,-12,1147,-464,5,-42
4003,124,51,952,-488,44,-13
4004,-107,62,906,-497,41,5
4005,-233,-2,904,-501,17,2
4006,-183,-178,886,-494,-13,-24
4007,8,-301,957,-450,-26,-61
4008,210,-258,1072,-403,-10,-77
4009,204,-153,1022,-388,25,-58
4010,21,-110,895,-382,38,-23
4011,-171,-122,833,-364,24,-1
4012,-208,-220,835,-334,-5,-15
4013,-100,-360,882,-289,-29,-42
4014,127,-392,990,-225,-32,-56
4015,203,-290,1044,-179,-8,-45
4016,87,-159,977,-161,15,-14
4017,-110,-114,845,-154,14,13
4018,-263,-168,786,-128,-12,16
4019,-186,-297,854,-85,-47,-13
4020,28,-391,978,-26,-63,-41
4021,215,-334,1046,26,-45,-44
4022,205,-206,1006,52,-11,-27
4023,19,-131,895,63,4,3
4024,-181,-153,799,83,-9,25
4025,-217,-250,817,125,-39,10
4026,-75,-389,922,177,-61,-23
4027,167,-401,1025,232,-60,-35
4028,236,-287,1011,277,-30,-20
4029,105,-169,934,300,-6,5
4030,-97,-129,834,317,-6,25
4031,-246,-186,792,353,-25,22
4032,-162,-319,872,399,-55,-11
4033,49,-391,985,455,-70,-34
4034,229,-316,1029,501,-52,-25
4035,196,-167,993,528,-22,-1
4036,4,-75,890,540,-7,18
4037,-191,-90,813,556,-14,26
4038,-214,-196,841,589,-42,7
4039,-41,-310,951,636,-63,-22
4040,176,-289,1040,678,-57,-31
4041,223,-171,1039,703,-32,-11
4042,77,-33,963,711,-10,16
4043,-110,12,869,711,-12,35
4044,-234,-69,820,723,-31,30
4045,-142,-219,866,764,-51,19
4046,43,-272,971,825,-65,38
4047,268,-179,1081,868,-60,91
4048,144,1176,1640,731,14,133
4049,-728,833,1076,408,-36,65
4050,-656,504,669,417,-171,-22
4051,-325,639,1077,371,-215,-51
4052,111,306,746,185,-264,87
4053,299,217,918,148,-236,193
4054,440,584,1503,134,-129,157
4055,-136,253,1167,2,-109,154
4056,-420,-24,571,-11,-232,164
4057,-180,37,859,34,-320,158
4058,-17,199,1115,-16,-253,151
4059,-5,-14,977,-94,-207,197
4060,78,46,1118,-78,-248,232
4061,50,-2,1141,-72,-281,219
4062,-229,-54,976,-37,-313,204
4063,-305,-74,889,-27,-361,192
4064,-220,-71,901,-34,-392,214
4065,-37,-63,939,-53,-394,247
4066,209,-30,1132,-37,-385,274
4067,153,3,1168,-19,-363,270
4068,-85,-6,999,-2,-386,247
