sequence,AccelerometerX,AccelerometerY,AccelerometerZ,GyroscopeX,GyroscopeY,GyroscopeZ
0,-8,-19,999,-13,1,-7
1,-6,-21,998,-13,4,-6
2,-6,-21,1000,-11,3,-6
3,-5,-21,998,-18,4,-4
4,-6,-20,999,-16,2,-5
5,-8,-20,999,-15,1,-6
6,-7,-22,1000,-16,0,-5
7,-6,-21,998,-16,1,-6
8,-4,-21,999,-15,2,-4
9,-6,-20,1001,-14,0,-6
10,-7,-21,999,-14,2,-5
11,-7,-20,999,-15,0,-5
12,-7,-20,1000,-16,0,-5
13,-7,-20,999,-14,2,-5
14,-8,-22,997,-14,1,-6
15,-6,-20,999,-15,1,-6
16,-7,-20,998,-15,0,-6
17,-8,-21,998,-13,1,-7
18,-8,-22,997,-15,1,-5
19,-7,-22,998,-14,0,-5
20,-8,-23,998,-15,0,-6
21,-7,-21,997,-13,2,-6
22,-7,-20,997,-15,1,-6
23,-8,-21,998,-16,0,-5
24,-8,-21,999,-14,1,-6
25,-7,-21,998,-15,1,-6
26,-6,-20,998,-15,1,-5
27,-7,-21,999,-14,1,-5
28,-6,-19,998,-14,2,-4
29,-6,-21,1000,-14,1,-7
30,-9,-22,1000,-15,1,-5
31,-8,-22,999,-13,-1,-5
32,-6,-22,998,-14,1,-6
33,-8,-20,999,-15,1,-7
34,-6,-21,998,-15,1,-6
35,-8,-21,998,-14,0,-6
36,-7,-21,1000,-15,2,-5
37,-6,-20,1000,-15,1,-5
38,-8,-22,1000,-16,-1,-6
39,-6,-21,1000,-14,0,-6
40,-7,-20,999,-16,1,-6
41,-10,-21,999,-15,1,-6
42,-8,-21,999,-15,0,-6
43,-9,-20,999,-15,0,-6
44,-8,-20,999,-15,-1,-6
45,-7,-22,999,-15,1,-5
46,-7,-22,998,-15,2,-7
47,-6,-20,999,-14,0,-6
48,-6,-20,998,-13,1,-4
49,-8,-20,999,-13,1,-6
50,-8,-20,997,-15,1,-5
51,-6,-19,999,-14,1,-4
52,-8,-20,998,-14,1,-6
53,-7,-21,999,-14,1,-6
54,-6,-21,999,-15,0,-7
55,-8,-23,997,-14,0,-7
56,-8,-20,999,-14,1,-6
57,-8,-20,998,-14,1,-6
58,-7,-21,997,-15,0,-5
59,-8,-21,999,-16,0,-6
60,-5,-21,999,-15,-1,-6
61,-7,-22,1000,-15,-1,-6
62,-8,-23,1000,-16,0,-6
63,-7,-20,1000,-16,1,-5
64,-7,-19,999,-16,1,-6
65,-8,-20,999,-15,1,-6
66,-9,-21,999,-15,-1,-6
67,-8,-21,1000,-16,2,-6
68,-7,-21,998,-14,2,-5
69,-7,-19,998,-15,1,-6
70,-7,-20,999,-16,0,-5
71,-6,-20,1000,-14,0,-5
72,-7,-20,999,-17,1,-6
73,-7,-22,999,-16,2,-5
74,-6,-22,999,-16,1,-6
75,-7,-21,999,-15,0,-7
76,-5,-21,998,-15,1,-6
77,-6,-22,998,-14,1,-6
78,-6,-22,999,-15,0,-7
79,-6,-21,998,-15,1,-6
80,-7,-21,999,-13,0,-6
81,-8,-23,997,-14,2,-6
82,-7,-23,999,-14,2,-6
83,-8,-21,1000,-12,2,-7
84,-8,-21,999,-14,1,-6
85,-7,-21,999,-14,0,-7
86,-9,-21,1000,-15,0,-6
87,-7,-23,998,-15,0,-6
88,-5,-21,1001,-14,1,-5
89,-6,-22,1000,-14,2,-5
90,-7,-22,999,-15,1,-6
91,-9,-22,999,-13,0,-6
92,-7,-21,1000,-14,-1,-6
93,-6,-22,1000,-15,0,-6
94,-5,-23,1000,-15,1,-6
95,-6,-20,999,-14,1,-6
96,-6,-20,1000,-15,1,-7
97,-6,-20,999,-16,0,-6
98,-8,-22,1000,-14,1,-5
99,-8,-21,998,-14,1,-5
100,-8,-22,999,-15,0,-5
101,-7,-21,997,-13,1,-6
102,-6,-21,999,-13,1,-7
103,-7,-21,999,-13,0,-7
104,-7,-20,998,-16,0,-5
105,-9,-19,999,-15,0,-6
106,-7,-22,998,-14,0,-7
107,-7,-21,1000,-16,-1,-6
108,-8,-22,1000,-15,0,-6
109,-9,-24,999,-13,0,-7
110,-7,-23,1000,-14,-1,-7
111,-6,-22,1000,-13,1,-6
112,-6,-22,999,-14,1,-5
113,-6,-21,999,-14,1,-6
114,-6,-20,997,-16,2,-6
115,-7,-21,999,-14,1,-6
116,-6,-23,999,-14,1,-6
117,-5,-21,998,-14,1,-5
118,-6,-21,998,-14,1,-6
119,-7,-21,999,-16,1,-5
120,-7,-23,998,-15,1,-7
121,-8,-22,998,-15,2,-6
122,-6,-21,1000,-15,2,-6
123,-7,-21,998,-14,1,-6
124,-6,-22,999,-14,2,-6
125,-7,-23,998,-15,1,-6
126,-7,-23,999,-13,1,-7
127,-8,-21,998,-14,2,-6
128,-8,-21,999,-15,1,-5
129,-6,-21,999,-14,1,-5
130,-6,-21,1000,-13,1,-5
131,-8,-22,1000,-14,1,-6
132,-8,-21,999,-15,1,-6
133,-8,-19,999,-15,0,-6
134,-8,-21,999,-14,1,-6
135,-7,-20,999,-15,1,-6
136,-6,-20,998,-13,1,-5
137,-8,-23,1000,-15,1,-5
138,-7,-21,999,-16,0,-6
139,-8,-19,999,-14,1,-6
140,-8,-21,998,-15,2,-6
141,-8,-20,1000,-14,1,-6
142,-8,-20,999,-14,1,-6
143,-7,-21,999,-15,0,-6
144,-8,-21,999,-13,1,-6
145,-6,-22,999,-13,2,-7
146,-6,-22,999,-15,1,-7
147,-7,-21,999,-14,0,-6
148,-5,-23,998,-14,0,-6
149,-6,-21,999,-14,0,-6
150,-6,-20,998,-15,1,-6
151,-9,-21,998,-14,0,-6
152,-6,-20,998,-15,1,-6
153,-5,-21,999,-14,2,-6
154,-6,-23,998,-15,0,-5
155,-6,-23,998,-16,0,-6
156,-6,-22,998,-16,1,-5
157,-7,-22,999,-16,1,-4
158,-6,-22,998,-13,0,-5
159,-4,-21,997,-14,0,-6
160,-6,-21,997,-15,-1,-6
161,-9,-20,998,-14,1,-6
162,-8,-20,999,-16,0,-7
163,-8,-22,998,-15,1,-7
164,-6,-21,999,-14,2,-6
165,-7,-20,998,-16,1,-5
166,-8,-21,999,-15,0,-6
167,-9,-22,998,-15,0,-5
168,-7,-22,998,-14,1,-5
169,-7,-22,998,-15,0,-6
170,-6,-21,998,-15,0,-6
171,-8,-21,999,-14,2,-6
172,-8,-23,999,-14,1,-6
173,-8,-21,998,-16,1,-7
174,-7,-21,998,-14,0,-7
175,-7,-20,998,-14,1,-5
176,-7,-23,1000,-16,1,-5
177,-6,-21,1000,-13,0,-6
178,-7,-21,998,-14,0,-7
179,-8,-20,998,-15,-1,-6
180,-6,-21,998,-15,0,-6
181,-9,-22,998,-15,0,-6
182,-8,-22,998,-15,0,-6
183,-6,-20,999,-15,1,-7
184,-9,-20,1000,-14,1,-6
185,-8,-21,998,-13,1,-6
186,-7,-20,999,-14,1,-6
187,-8,-19,1000,-13,0,-6
188,-6,-19,1000,-15,0,-6
189,-5,-22,999,-15,1,-5
190,-8,-21,1000,-16,0,-6
191,-6,-20,999,-13,2,-6
192,-7,-21,1000,-13,2,-6
193,-6,-21,998,-14,0,-6
194,-7,-22,999,-15,0,-7
195,-7,-22,1001,-14,0,-7
196,-7,-21,1000,-15,1,-6
197,-8,-21,999,-14,1,-6
198,-7,-22,998,-13,1,-6
199,-8,-22,1001,-14,1,-6
200,-7,-21,999,-13,1,-6
201,-8,-23,999,-14,2,-6
202,-9,-19,1000,-14,1,-6
203,-9,-21,999,-15,1,-6
204,-7,-21,999,-15,1,-7
205,-8,-21,999,-14,2,-5
206,-7,-22,998,-14,1,-6
207,-7,-21,997,-15,1,-6
208,-7,-19,999,-14,-1,-7
209,-10,-20,1000,-14,0,-7
210,-9,-22,1000,-14,0,-6
211,-7,-22,998,-14,1,-6
212,-6,-22,999,-13,1,-6
213,-7,-20,999,-14,1,-5
214,-6,-22,999,-14,1,-6
215,-8,-21,996,-15,-1,-7
216,-8,-22,998,-15,0,-7
217,-7,-21,999,-15,0,-5
218,-7,-22,1000,-14,1,-7
219,-8,-22,999,-14,1,-6
220,-8,-21,999,-14,1,-6
221,-7,-22,1000,-15,0,-6
222,-7,-21,999,-14,1,-5
223,-7,-20,999,-15,1,-6
224,-8,-20,1000,-15,1,-7
225,-8,-21,1000,-14,1,-6
226,-8,-21,999,-15,-1,-6
227,-8,-20,998,-14,0,-6
228,-6,-21,998,-14,2,-5
229,-6,-22,998,-16,1,-5
230,-8,-22,998,-15,0,-6
231,-7,-22,998,-13,2,-6
232,-5,-20,999,-15,1,-6
233,-6,-21,998,-15,0,-6
234,-6,-20,1000,-15,1,-6
235,-9,-20,999,-15,0,-6
236,-7,-21,999,-16,0,-7
237,-8,-20,998,-14,1,-6
238,-8,-20,1000,-14,0,-6
239,-6,-21,998,-15,0,-7
240,-6,-22,999,-15,0,-6
241,-5,-20,1000,-15,1,-6
242,-7,-21,999,-15,0,-7
243,-8,-21,998,-14,0,-7
244,-7,-22,999,-14,1,-6
245,-8,-21,999,-15,-1,-5
246,-8,-22,998,-14,0,-6
247,-8,-21,999,-14,0,-7
248,-7,-21,999,-16,2,-5
249,-7,-22,998,-15,1,-6
250,-9,-22,998,-16,1,-6
251,-8,-22,997,-14,1,-6
252,-6,-23,998,-15,0,-5
253,-7,-23,999,-14,0,-6
254,-7,-22,999,-15,0,-6
255,-7,-23,998,-14,1,-6
256,-8,-22,998,-14,0,-4
257,-8,-23,998,-15,1,-5
258,-8,-23,999,-14,0,-5
259,-7,-21,999,-14,0,-6
260,-6,-19,998,-15,1,-5
261,-4,-19,999,-14,0,-5
262,-7,-20,999,-14,0,-6
263,-6,-22,999,-15,1,-7
264,-5,-21,999,-13,1,-6
265,-6,-21,999,-14,-1,-7
266,-7,-22,999,-15,-1,-5
267,-6,-20,999,-14,1,-6
268,-6,-22,1001,-15,1,-6
269,-6,-21,999,-14,1,-6
270,-5,-20,1001,-13,0,-7
271,-5,-20,999,-15,1,-6
272,-6,-20,1000,-15,0,-5
273,-6,-20,999,-15,0,-6
274,-5,-20,1000,-14,0,-6
275,-8,-22,999,-15,0,-6
276,-7,-20,1000,-16,0,-7
277,-5,-19,1000,-16,2,-5
278,-7,-20,999,-16,0,-5
279,-5,-22,1001,-16,1,-5
280,-6,-20,998,-15,1,-6
281,-7,-20,999,-15,2,-7
282,-7,-20,999,-15,1,-5
283,-6,-20,999,-14,1,-6
284,-7,-21,997,-15,1,-6
285,-7,-21,999,-15,1,-5
286,-8,-20,999,-17,1,-5
287,-6,-22,998,-15,1,-6
288,-7,-20,999,-15,0,-6
289,-6,-22,997,-15,0,-5
290,-6,-22,997,-15,0,-6
291,-6,-22,997,-14,1,-6
292,-8,-22,998,-15,1,-6
293,-7,-20,998,-14,0,-6
294,-6,-21,996,-14,1,-5
295,-6,-21,998,-15,1,-6
296,-6,-21,1000,-15,1,-6
297,-7,-22,999,-15,2,-5
298,-5,-21,999,-15,0,-6
299,-7,-21,998,-15,1,-7
300,-8,-21,997,-16,1,-6
301,-7,-22,999,-15,1,-6
302,-8,-20,999,-13,1,-7
303,-8,-21,1000,-14,1,-6
304,-5,-21,998,-15,2,-6
305,-7,-20,999,-15,1,-6
306,-7,-21,998,-14,1,-6
307,-8,-22,1000,-15,0,-6
308,-7,-20,998,-16,1,-6
309,-5,-21,999,-15,0,-7
310,-8,-19,999,-15,0,-6
311,-9,-21,998,-15,1,-6
312,-9,-22,1000,-14,0,-5
313,-8,-20,999,-14,1,-5
314,-7,-21,998,-16,2,-6
315,-6,-22,999,-14,2,-5
316,-6,-21,998,-15,2,-5
317,-7,-21,998,-16,1,-7
318,-8,-20,999,-15,1,-6
319,-8,-21,999,-13,1,-6
320,-8,-22,998,-15,2,-6
321,-8,-19,999,-14,0,-4
322,-8,-20,1000,-15,-1,-5
323,-8,-22,997,-15,-1,-6
324,-7,-20,999,-15,0,-6
325,-8,-21,999,-16,2,-6
326,-9,-21,1000,-15,1,-6
327,-7,-19,999,-13,1,-6
328,-6,-22,1000,-15,1,-7
329,-7,-20,1000,-14,0,-7
330,-7,-20,1000,-13,1,-5
331,-9,-21,1000,-14,0,-6
332,-6,-18,1000,-14,0,-6
333,-7,-19,1000,-15,1,-5
334,-8,-20,998,-15,1,-5
335,-8,-22,1000,-15,1,-5
336,-7,-20,999,-15,0,-6
337,-7,-21,1000,-15,1,-5
338,-8,-20,999,-17,1,-6
339,-7,-20,999,-15,0,-6
340,-6,-22,999,-15,0,-6
341,-8,-21,999,-13,-1,-6
342,-7,-21,1000,-14,-1,-6
343,-8,-21,999,-10,1,-7
344,-6,-20,997,-9,1,-7
345,-6,-20,998,-16,0,-5
346,-7,-20,1000,-14,0,-5
347,-5,-20,999,-14,1,-5
348,-7,-20,999,-15,1,-6
349,-7,-21,1000,-14,0,-5
350,-8,-20,999,-14,0,-6
351,-7,-20,999,-15,1,-7
352,-7,-19,999,-15,1,-6
353,-8,-19,999,-15,1,-6
354,-7,-21,999,-14,1,-6
355,-7,-20,998,-15,1,-6
356,-7,-22,1000,-16,1,-7
357,-7,-21,998,-15,-1,-7
358,-6,-20,999,-15,0,-6
359,-8,-20,998,-15,0,-6
360,-5,-21,1000,-14,0,-7
361,-5,-21,999,-16,0,-6
362,-6,-20,998,-17,0,-6
363,-9,-22,999,-15,0,-6
364,-5,-21,999,-15,1,-5
365,-6,-21,999,-14,1,-6
366,-8,-21,998,-15,0,-7
367,-6,-19,998,-15,0,-6
368,-7,-21,999,-14,1,-6
369,-7,-21,1000,-15,2,-6
370,-6,-22,999,-15,0,-6
371,-8,-22,998,-14,0,-8
372,-6,-23,999,-16,0,-7
373,-8,-21,998,-15,0,-7
374,-9,-21,999,-15,0,-5
375,-7,-22,999,-13,1,-4
376,-8,-23,999,-15,1,-5
377,-7,-22,998,-15,1,-5
378,-7,-20,1000,-15,1,-5
379,-8,-21,1000,-13,1,-5
380,-7,-20,997,-16,0,-6
381,-8,-22,999,-15,1,-6
382,-6,-21,1000,-16,1,-5
383,-7,-22,998,-15,0,-6
384,-8,-21,999,-15,0,-7
385,-8,-22,999,-15,0,-6
386,-5,-20,998,-14,0,-6
387,-6,-20,999,-15,1,-5
388,-7,-20,1000,-15,0,-7
389,-7,-19,999,-15,1,-6
390,-7,-21,997,-13,0,-6
391,-6,-21,999,-14,1,-7
392,-8,-21,999,-14,1,-6
393,-7,-21,999,-14,1,-6
394,-8,-22,999,-14,0,-7
395,-8,-22,999,-14,1,-6
396,-5,-21,998,-14,0,-7
397,-9,-21,998,-14,0,-7
398,-7,-22,998,-16,1,-6
399,-6,-21,998,-15,2,-7
400,-6,-21,998,-15,2,-7
401,-8,-20,998,-13,0,-6
402,-6,-21,999,-15,0,-6
403,-10,-21,998,-17,0,-6
404,-8,-20,999,-15,0,-6
405,-7,-20,998,-15,0,-8
406,-8,-21,998,-14,1,-7
407,-6,-19,1000,-14,0,-7
408,-7,-21,999,-16,1,-6
409,-6,-21,999,-16,1,-5
410,-7,-19,999,-15,1,-7
411,-9,-20,999,-14,2,-6
412,-6,-20,1001,-15,1,-6
413,-8,-20,1000,-14,2,-6
414,-5,-21,998,-14,1,-7
415,-6,-21,1000,-14,0,-7
416,-7,-20,1000,-15,0,-6
417,-8,-20,1000,-14,-1,-7
418,-6,-19,998,-15,0,-6
419,-7,-21,999,-15,1,-7
420,-7,-20,1000,-15,1,-6
421,-7,-21,1000,-14,0,-6
422,-7,-20,998,-15,1,-7
423,-8,-22,999,-14,0,-7
424,-6,-23,998,-15,1,-5
425,-6,-21,999,-15,1,-6
426,-6,-24,1000,-14,1,-5
427,-6,-22,998,-16,2,-6
428,-7,-22,999,-16,2,-6
429,-9,-21,997,-15,1,-6
430,-7,-21,999,-15,2,-6
431,-7,-22,998,-15,2,-6
432,-8,-21,999,-14,2,-5
433,-7,-21,998,-12,2,-5
434,-6,-19,997,-15,2,-6
435,-6,-21,998,-14,1,-8
436,-6,-20,998,-15,2,-6
437,-7,-20,998,-15,0,-6
438,-6,-19,998,-14,1,-6
439,-5,-22,999,-15,0,-7
440,-6,-20,998,-14,1,-7
441,-7,-22,998,-15,1,-6
442,-6,-21,998,-14,2,-5
443,-9,-20,999,-15,1,-5
444,-7,-22,998,-15,0,-6
445,-7,-21,998,-14,1,-6
446,-5,-22,997,-15,0,-6
447,-6,-24,999,-15,-1,-6
448,-7,-21,999,-14,1,-6
449,-7,-23,999,-15,0,-5
450,-6,-21,1000,-12,0,-5
451,-9,-20,998,-16,-1,-6
452,-6,-21,997,-15,0,-7
453,-5,-22,998,-15,1,-6
454,-7,-22,999,-16,0,-5
455,-7,-21,998,-15,1,-5
456,-8,-20,998,-16,0,-4
457,-10,-21,998,-14,1,-4
458,-8,-22,998,-15,1,-6
459,-8,-22,998,-14,1,-6
460,-8,-20,999,-15,1,-5
461,-8,-20,998,-16,0,-6
462,-7,-21,999,-15,0,-5
463,-6,-21,998,-15,0,-6
464,-11,-20,998,-15,1,-6
465,-7,-22,999,-15,0,-6
466,-7,-21,998,-15,0,-5
467,-9,-21,999,-14,1,-7
468,-8,-22,997,-14,0,-7
469,-8,-23,999,-17,0,-6
470,-9,-20,1000,-15,1,-6
471,-10,-21,1000,-15,0,-6
472,-7,-21,999,-15,-1,-6
473,-8,-21,998,-15,1,-7
474,-8,-19,998,-14,0,-7
475,-8,-21,999,-13,0,-5
476,-9,-21,999,-14,1,-5
477,-7,-21,999,-14,1,-6
478,-8,-19,998,-15,1,-6
479,-6,-20,999,-16,1,-7
480,-7,-21,999,-16,1,-6
481,-6,-22,998,-14,1,-6
482,-6,-20,997,-15,1,-6
483,-6,-20,997,-13,1,-6
484,-6,-20,998,-15,0,-6
485,-6,-21,998,-15,1,-7
486,-8,-20,998,-14,2,-5
487,-8,-22,999,-16,2,-5
488,-8,-21,999,-14,0,-6
489,-5,-22,998,-14,0,-5
490,-7,-21,999,-15,0,-5
491,-8,-21,998,-14,1,-7
492,-6,-22,999,-13,0,-6
493,-7,-22,1000,-14,1,-7
494,-10,-22,997,-15,0,-6
495,-6,-21,998,-16,1,-7
496,-7,-21,999,-14,1,-5
497,-9,-21,999,-15,0,-5
498,-6,-21,999,-15,1,-5
499,-6,-21,999,-15,1,-5
500,-7,-21,1000,-14,-1,-6
501,-8,-21,999,-15,0,-6
502,-6,-21,999,-15,2,-5
503,-8,-21,999,-15,2,-6
504,-8,-22,998,-16,1,-6
505,-8,-21,1000,-15,-1,-6
506,-8,-21,1000,-14,1,-6
507,-7,-21,999,-14,1,-6
508,-7,-21,1000,-14,1,-5
509,-8,-19,998,-16,0,-5
510,-10,-22,999,-14,0,-5
511,-7,-21,999,-16,0,-5
512,-9,-21,998,-15,0,-7
513,-8,-21,999,-14,-1,-7
514,-8,-19,999,-16,0,-6
515,-7,-20,998,-14,-1,-6
516,-7,-22,998,-16,0,-6
517,-8,-21,998,-15,0,-7
518,-6,-20,997,-14,1,-6
519,-8,-19,1000,-15,1,-6
520,-7,-22,998,-15,1,-6
521,-7,-22,998,-14,0,-6
522,-7,-22,998,-15,1,-6
523,-7,-21,997,-15,1,-5
524,-6,-21,999,-15,0,-5
525,-6,-22,999,-16,0,-6
526,-7,-22,999,-15,0,-7
527,-7,-21,999,-16,0,-8
528,-9,-21,1000,-14,1,-7
529,-6,-22,998,-14,0,-7
530,-8,-21,999,-16,1,-6
531,-8,-22,998,-15,3,-5
532,-7,-21,998,-15,0,-6
533,-5,-21,998,-15,0,-5
534,-6,-22,998,-14,0,-6
535,-8,-21,1000,-14,0,-8
536,-6,-22,999,-14,2,-7
537,-6,-20,998,-14,1,-7
538,-7,-19,999,-15,1,-6
539,-8,-21,999,-15,0,-5
540,-7,-21,998,-15,1,-6
541,-6,-20,999,-15,1,-6
542,-6,-22,999,-14,2,-5
543,-7,-21,999,-14,2,-6
544,-5,-21,1001,-13,2,-7
545,-6,-21,1000,-14,0,-6
546,-6,-20,999,-14,0,-5
547,-6,-22,999,-13,0,-6
548,-6,-21,1001,-15,1,-5
549,-7,-20,1000,-13,0,-4
550,-9,-21,1000,-15,0,-6
551,-7,-23,1000,-15,2,-6
552,-7,-21,1000,-15,1,-6
553,-6,-20,999,-14,1,-6
554,-6,-20,1000,-13,2,-6
555,-7,-19,999,-16,1,-4
556,-8,-21,1000,-16,1,-5
557,-8,-22,999,-14,2,-5
558,-8,-21,999,-16,1,-6
559,-6,-21,999,-15,0,-6
560,-7,-21,999,-16,0,-6
561,-7,-21,998,-16,1,-5
562,-7,-21,1000,-15,1,-4
563,-8,-19,1001,-15,1,-5
564,-7,-18,999,-15,2,-5
565,-7,-20,1000,-17,2,-5
566,-8,-20,1000,-15,2,-6
567,-8,-22,998,-14,1,-7
568,-6,-20,998,-14,0,-6
569,-8,-19,999,-15,0,-7
570,-7,-20,1000,-14,1,-7
571,-6,-20,999,-14,0,-7
572,-7,-22,1000,-16,1,-5
573,-9,-22,999,-15,2,-5
574,-6,-23,1000,-15,2,-6
575,-6,-21,999,-15,1,-7
576,-6,-22,999,-16,1,-5
577,-6,-22,998,-15,0,-5
578,-7,-21,997,-16,-1,-6
579,-7,-20,998,-16,0,-5
580,-6,-22,998,-14,0,-6
581,-7,-22,997,-15,0,-6
582,-8,-21,998,-15,1,-5
583,-6,-21,998,-14,0,-5
584,-7,-22,999,-15,0,-5
585,-7,-23,998,-13,0,-6
586,-8,-23,999,-14,0,-6
587,-6,-22,999,-14,0,-6
588,-8,-22,998,-15,0,-6
589,-8,-21,999,-16,0,-6
590,-8,-20,999,-13,1,-6
591,-8,-20,997,-16,0,-6
592,-9,-19,999,-15,1,-5
593,-6,-22,999,-15,0,-7
594,-10,-22,1001,-15,0,-6
595,-8,-21,1000,-15,1,-6
596,-7,-21,1000,-14,2,-5
597,-8,-20,998,-14,0,-6
598,-7,-20,999,-13,0,-6
599,-6,-22,998,-15,2,-6
600,-7,-22,998,-14,1,-6
601,-7,-22,997,-16,1,-6
602,-6,-22,999,-16,2,-6
603,-8,-19,998,-14,0,-6
604,-8,-20,998,-15,0,-6
605,-7,-20,998,-14,1,-6
606,-9,-21,999,-13,2,-6
607,-7,-21,998,-15,1,-5
608,-8,-20,999,-13,0,-5
609,-9,-21,999,-14,0,-6
610,-7,-20,998,-14,1,-6
611,-7,-20,999,-14,1,-5
612,-6,-19,999,-15,1,-6
613,-5,-21,999,-14,2,-6
614,-7,-20,1000,-14,0,-6
615,-7,-21,999,-14,0,-7
616,-8,-19,1000,-14,0,-6
617,-9,-18,999,-14,0,-7
618,-7,-22,999,-15,2,-6
619,-8,-21,999,-14,1,-5
620,-6,-20,1000,-15,0,-6
621,-6,-21,999,-14,1,-7
622,-8,-21,996,-14,0,-7
623,-8,-21,998,-15,0,-6
624,-7,-20,997,-13,2,-6
625,-6,-20,1000,-13,2,-6
626,-6,-20,999,-15,1,-7
627,-6,-21,1000,-15,1,-6
628,-8,-20,997,-14,0,-6
629,-8,-21,998,-15,0,-6
630,-8,-22,999,-17,1,-6
631,-7,-22,999,-15,0,-6
632,-6,-18,999,-15,0,-6
633,-7,-21,999,-15,1,-7
634,-6,-21,999,-13,0,-5
635,-7,-22,997,-14,0,-6
636,-6,-21,999,-14,0,-7
637,-5,-20,999,-14,1,-6
638,-6,-22,1000,-14,1,-6
639,-7,-22,998,-16,0,-6
640,-7,-22,998,-15,0,-5
641,-6,-21,998,-15,1,-5
642,-6,-21,998,-14,2,-5
643,-7,-21,998,-15,1,-7
644,-6,-21,998,-15,1,-6
645,-7,-19,999,-13,0,-6
646,-7,-21,999,-13,1,-6
647,-6,-21,1000,-15,0,-5
648,-6,-21,1000,-14,0,-6
649,-7,-22,998,-14,1,-6
650,-8,-22,998,-15,0,-5
651,-8,-22,998,-13,1,-5
652,-5,-23,998,-14,1,-6
653,-7,-22,998,-14,1,-6
654,-7,-23,998,-15,0,-6
655,-5,-22,1000,-14,1,-7
656,-7,-22,999,-15,0,-7
657,-7,-23,998,-14,2,-6
658,-6,-22,997,-13,0,-7
659,-8,-21,999,-15,0,-6
660,-7,-21,1000,-16,1,-6
661,-7,-20,999,-14,1,-6
662,-4,-21,998,-14,1,-5
663,-8,-22,999,-14,0,-6
664,-8,-22,1000,-15,0,-6
665,-8,-19,999,-15,1,-6
666,-8,-19,1000,-14,1,-7
667,-8,-19,997,-14,0,-7
668,-7,-21,998,-14,0,-6
669,-7,-21,998,-15,1,-6
670,-5,-22,997,-14,1,-6
671,-8,-21,998,-15,1,-6
672,-7,-20,1000,-16,0,-7
673,-7,-18,1000,-15,0,-6
674,-5,-20,1000,-15,0,-5
675,-7,-20,999,-14,0,-6
676,-8,-21,999,-13,2,-5
677,-6,-20,1001,-16,1,-4
678,-9,-21,1001,-14,0,-5
679,-6,-21,998,-15,0,-6
680,-6,-19,999,-14,1,-7
681,-6,-20,999,-17,0,-5
682,-8,-19,999,-23,-3,-7
683,-7,-20,999,-14,-1,-6
684,-6,-23,999,-14,2,-7
685,-7,-20,1000,-16,1,-7
686,-7,-20,1000,-13,1,-6
687,-6,-22,999,-16,1,-6
688,-5,-22,999,-14,3,-5
689,-7,-20,1000,-14,2,-6
690,-8,-20,998,-17,0,-5
691,-7,-22,1000,-14,0,-5
692,-6,-20,1000,-15,0,-6
693,-8,-22,997,-14,1,-7
694,-6,-20,999,-15,-1,-6
695,-5,-21,999,-16,1,-6
696,-5,-22,998,-16,0,-6
697,-6,-22,999,-15,1,-6
698,-6,-22,1000,-15,1,-5
699,-8,-21,998,-15,1,-7
700,-7,-22,1000,-15,1,-5
701,-6,-20,1000,-16,1,-6
702,-7,-21,999,-16,1,-5
703,-8,-21,997,-15,1,-5
704,-9,-21,998,-15,1,-5
705,-8,-20,997,-14,0,-7
706,-7,-21,999,-14,0,-6
707,-8,-21,999,-14,1,-6
708,-8,-22,999,-14,0,-6
709,-6,-21,999,-15,0,-7
710,-8,-22,999,-15,0,-5
711,-9,-21,998,-15,1,-5
712,-6,-23,998,-14,0,-5
713,-9,-21,999,-14,0,-6
714,-8,-22,999,-14,0,-6
715,-8,-21,998,-14,-1,-6
716,-7,-21,999,-14,0,-5
717,-7,-21,1000,-13,1,-5
718,-6,-23,1001,-15,0,-6
719,-8,-23,999,-14,0,-6
720,-8,-22,998,-15,1,-6
721,-8,-20,998,-15,1,-7
722,-7,-21,998,-15,0,-6
723,-6,-22,997,-15,-1,-7
724,-8,-22,998,-14,-1,-7
725,-8,-20,997,-15,0,-6
726,-6,-21,998,-14,1,-7
727,-8,-22,999,-15,0,-6
728,-7,-20,998,-15,1,-6
729,-7,-20,998,-15,1,-6
730,-5,-21,999,-15,1,-6
731,-7,-21,998,-16,0,-6
732,-6,-20,998,-15,1,-6
733,-6,-22,998,-14,1,-6
734,-6,-20,998,-15,1,-6
735,-7,-20,1000,-15,0,-6
736,-7,-21,999,-14,1,-6
737,-7,-21,999,-13,1,-6
738,-8,-22,1000,-15,1,-6
739,-9,-23,998,-16,1,-6
740,-8,-19,999,-15,1,-5
741,-6,-22,998,-14,1,-6
742,-7,-21,999,-13,1,-6
743,-6,-22,1000,-16,1,-6
744,-7,-21,998,-15,0,-6
745,-6,-20,999,-14,0,-7
746,-5,-20,1000,-15,0,-6
747,-8,-20,998,-15,0,-6
748,-6,-19,999,-15,1,-6
749,-7,-21,999,-15,0,-7
750,-7,-21,999,-15,0,-5
751,-6,-23,999,-15,0,-6
752,-8,-20,999,-14,1,-6
753,-8,-21,1000,-13,1,-6
754,-7,-20,998,-14,1,-6
755,-7,-21,1000,-14,0,-6
756,-6,-20,999,-14,0,-6
757,-8,-23,998,-14,1,-6
758,-6,-20,999,-13,1,-7
759,-8,-22,1000,-15,0,-6
760,-7,-21,1000,-14,1,-7
761,-7,-21,999,-15,0,-6
762,-8,-22,999,-15,1,-6
763,-7,-22,1000,-16,1,-4
764,-7,-20,999,-15,1,-5
765,-8,-20,999,-16,1,-6
766,-10,-22,999,-15,0,-7
767,-7,-23,999,-15,0,-5
768,-7,-22,999,-15,1,-4
769,-6,-21,999,-16,1,-4
770,-9,-21,1000,-15,1,-6
771,-8,-21,999,-14,0,-6
772,-7,-21,1000,-15,0,-6
773,-7,-20,998,-15,0,-6
774,-7,-21,1002,-14,-1,-6
775,-7,-19,999,-14,0,-6
776,-8,-21,999,-14,1,-6
777,-8,-21,999,-14,1,-7
778,-7,-22,998,-14,1,-5
779,-8,-20,999,-14,1,-6
780,-7,-22,998,-14,1,-6
781,-7,-22,998,-14,1,-6
782,-8,-22,998,-15,1,-6
783,-7,-22,999,-15,0,-6
784,-7,-22,998,-13,0,-6
785,-7,-21,997,-15,1,-6
786,-8,-21,997,-14,1,-6
787,-7,-21,1000,-16,-1,-6
788,-5,-22,1000,-16,0,-6
789,-6,-21,999,-14,1,-5
790,-8,-21,999,-15,2,-5
791,-7,-20,998,-15,2,-6
792,-7,-21,998,-14,0,-6
793,-8,-21,999,-14,1,-7
794,-9,-20,1000,-14,1,-5
795,-6,-21,1000,-14,1,-6
796,-6,-21,1000,-15,1,-6
797,-7,-22,999,-14,2,-6
798,-5,-22,1000,-15,1,-6
799,-8,-21,999,-15,-1,-6
800,-7,-21,998,-15,0,-7
801,-8,-21,999,-15,0,-6
802,-7,-19,999,-15,1,-6
803,-6,-19,1000,-14,1,-5
804,-5,-20,999,-14,1,-6
805,-7,-23,1000,-14,1,-6
806,-6,-22,999,-16,1,-7
807,-7,-20,999,-16,1,-6
808,-5,-20,999,-14,2,-5
809,-6,-21,999,-15,0,-6
810,-6,-20,999,-14,0,-5
811,-7,-21,999,-14,1,-6
812,-6,-21,999,-14,0,-7
813,-9,-20,999,-15,1,-7
814,-8,-22,999,-14,1,-5
815,-6,-20,996,-15,0,-6
816,-6,-22,998,-14,2,-5
817,-8,-22,999,-14,1,-7
818,-8,-21,997,-14,2,-6
819,-7,-22,998,-15,1,-7
820,-7,-22,998,-17,0,-6
821,-6,-21,999,-15,1,-6
822,-6,-22,998,-16,0,-6
823,-6,-23,999,-13,1,-6
824,-7,-22,1000,-14,2,-6
825,-8,-22,999,-14,1,-6
826,-8,-22,999,-14,0,-6
827,-7,-23,998,-14,0,-6
828,-7,-20,998,-14,2,-6
829,-8,-23,999,-15,2,-6
830,-5,-21,999,-15,0,-6
831,-6,-20,998,-16,0,-6
832,-8,-21,999,-15,2,-6
833,-7,-19,999,-16,1,-6
834,-7,-18,1000,-15,-1,-6
835,-7,-19,999,-15,0,-6
836,-7,-20,998,-14,0,-6
837,-7,-21,1000,-14,1,-5
838,-8,-19,1000,-16,1,-6
839,-8,-20,999,-15,1,-5
840,-8,-19,999,-15,1,-7
841,-8,-20,1000,-15,2,-5
842,-8,-20,1000,-15,1,-6
843,-8,-20,1000,-14,2,-7
844,-7,-21,999,-14,1,-8
845,-9,-19,1000,-14,0,-8
846,-9,-21,997,-14,-1,-7
847,-7,-23,998,-14,-1,-8
848,-8,-20,998,-14,0,-8
849,-8,-19,999,-15,1,-5
850,-6,-21,999,-14,2,-6
851,-7,-21,997,-15,0,-7
852,-6,-21,999,-15,-1,-7
853,-8,-21,998,-14,0,-6
854,-6,-20,998,-16,0,-6
855,-8,-22,998,-15,0,-6
856,-6,-22,1000,-15,2,-6
857,-5,-21,998,-15,0,-6
858,-8,-20,999,-15,1,-6
859,-7,-21,998,-14,0,-6
860,-6,-21,999,-15,0,-6
861,-6,-22,1000,-15,0,-7
862,-5,-21,999,-15,1,-6
863,-7,-22,1000,-15,1,-6
864,-5,-20,998,-16,1,-6
865,-5,-23,999,-15,1,-6
866,-6,-22,999,-14,0,-6
867,-6,-22,998,-16,0,-6
868,-6,-21,997,-15,-1,-6
869,-5,-22,998,-17,0,-6
870,-6,-21,999,-15,1,-6
871,-5,-22,998,-15,0,-6
872,-6,-21,999,-15,0,-6
873,-7,-20,999,-13,1,-7
874,-6,-21,999,-14,0,-6
875,-7,-20,998,-15,1,-6
876,-8,-21,998,-15,0,-6
877,-7,-20,999,-15,0,-6
878,-7,-22,997,-14,0,-6
879,-7,-21,997,-15,2,-6
880,-7,-22,999,-14,2,-6
881,-8,-22,999,-15,1,-6
882,-7,-19,999,-14,0,-7
883,-8,-21,999,-14,0,-7
884,-6,-22,999,-13,0,-6
885,-7,-21,999,-13,1,-5
886,-7,-22,998,-14,1,-6
887,-5,-21,999,-13,1,-7
888,-7,-22,999,-14,0,-7
889,-7,-19,998,-15,-1,-7
890,-10,-22,999,-15,1,-6
891,-8,-20,999,-17,1,-5
892,-8,-21,999,-14,2,-6
893,-10,-21,999,-16,1,-7
894,-7,-22,1000,-14,0,-7
895,-8,-21,998,-15,0,-7
896,-8,-21,998,-15,1,-6
897,-7,-22,998,-14,0,-6
898,-9,-22,998,-15,0,-8
899,-8,-21,999,-14,1,-7
900,-7,-22,999,-13,0,-6
901,-6,-21,998,-16,1,-6
902,-8,-20,997,-15,0,-6
903,-8,-22,999,-13,1,-7
904,-8,-22,998,-16,2,-6
905,-5,-21,998,-14,2,-6
906,-7,-19,997,-16,1,-6
907,-9,-20,1000,-15,1,-6
908,-8,-20,999,-14,1,-6
909,-9,-20,998,-15,0,-7
910,-9,-21,998,-14,1,-6
911,-7,-21,999,-14,1,-5
912,-7,-20,1000,-15,2,-5
913,-8,-20,999,-15,1,-6
914,-9,-21,999,-16,1,-6
915,-8,-21,998,-14,0,-6
916,-6,-21,999,-15,1,-7
917,-5,-22,999,-14,1,-5
918,-6,-20,1000,-14,0,-5
919,-5,-21,999,-15,1,-7
920,-8,-22,999,-15,0,-7
921,-6,-21,999,-14,-1,-6
922,-6,-21,998,-15,-1,-7
923,-7,-21,999,-15,1,-7
924,-7,-21,999,-15,1,-6
925,-6,-21,997,-14,1,-6
926,-8,-21,997,-14,0,-7
927,-8,-22,999,-15,2,-6
928,-6,-21,999,-17,1,-6
929,-7,-21,999,-16,0,-6
930,-6,-22,999,-16,1,-5
931,-6,-21,998,-15,1,-5
932,-6,-21,999,-16,1,-5
933,-5,-22,999,-14,1,-6
934,-7,-22,1000,-13,0,-7
935,-7,-20,998,-15,0,-7
936,-8,-22,999,-15,0,-6
937,-7,-21,997,-14,1,-5
938,-8,-22,999,-14,1,-6
939,-7,-24,999,-15,0,-6
940,-9,-20,999,-15,0,-6
941,-9,-21,998,-15,0,-7
942,-7,-21,999,-16,1,-6
943,-7,-23,999,-16,1,-7
944,-6,-21,1000,-14,0,-7
945,-9,-19,999,-13,1,-6
946,-5,-21,998,-14,1,-7
947,-6,-21,999,-14,1,-7
948,-6,-21,999,-14,1,-6
949,-6,-22,997,-15,1,-5
950,-7,-21,999,-15,1,-6
951,-9,-22,1000,-16,0,-5
952,-6,-22,999,-14,1,-6
953,-6,-21,999,-14,0,-5
954,-8,-21,999,-14,1,-7
955,-7,-20,999,-14,0,-6
956,-7,-21,998,-15,1,-6
957,-7,-21,998,-15,2,-6
958,-6,-22,998,-15,1,-6
959,-7,-23,998,-14,1,-6
960,-7,-20,997,-15,0,-7
961,-8,-20,998,-14,0,-5
962,-7,-21,1000,-14,0,-6
963,-8,-21,997,-15,0,-7
964,-6,-21,998,-14,0,-6
965,-8,-21,999,-15,0,-5
966,-8,-23,998,-14,1,-7
967,-8,-23,999,-14,1,-6
968,-7,-21,998,-14,2,-6
969,-7,-21,999,-14,1,-6
970,-7,-22,998,-15,0,-7
971,-7,-20,999,-15,0,-6
972,-8,-20,1000,-13,1,-6
973,-7,-22,1000,-15,1,-6
974,-7,-20,1000,-14,2,-5
975,-6,-19,999,-13,1,-6
976,-7,-20,1000,-15,-1,-5
977,-7,-20,999,-14,0,-7
978,-6,-21,999,-15,0,-6
979,-6,-21,1000,-16,1,-5
980,-6,-21,999,-15,0,-5
981,-4,-20,998,-15,0,-6
982,-4,-19,999,-16,0,-7
983,-5,-20,999,-14,0,-5
984,-6,-20,997,-14,1,-6
985,-7,-19,999,-13,1,-6
986,-7,-21,1000,-14,1,-6
987,-7,-19,999,-14,1,-6
988,-7,-21,997,-14,0,-6
989,-5,-21,997,-16,0,-5
990,-6,-22,997,-14,2,-6
991,-7,-21,998,-14,3,-6
992,-6,-21,998,-15,1,-7
993,-7,-23,998,-15,1,-6
994,-5,-21,998,-14,2,-6
995,-7,-22,999,-14,1,-6
996,-7,-22,998,-15,0,-5
997,-7,-21,998,-14,-1,-6
998,-6,-20,999,-16,0,-6
999,-7,-20,998,-14,0,-5
1000,-7,-21,998,-16,1,-6
1001,-6,-22,1000,-14,1,-6
1002,-7,-22,1000,-15,1,-6
1003,-9,-22,998,-14,1,-6
1004,-7,-21,998,-14,2,-7
1005,-7,-21,1000,-14,1,-5
1006,-6,-22,999,-15,1,-5
1007,-6,-20,998,-15,1,-6
1008,-8,-20,999,-15,1,-5
1009,-8,-19,998,-14,1,-6
1010,-9,-21,999,-15,1,-6
1011,-7,-21,999,-15,0,-6
1012,-8,-21,998,-16,1,-5
1013,-7,-19,999,-15,1,-6
1014,-7,-20,998,-15,2,-6
1015,-8,-21,999,-14,2,-6
1016,-7,-22,999,-13,1,-7
1017,-8,-21,998,-19,3,-4
1018,-9,-22,999,-15,1,-6
1019,-9,-23,999,-14,1,-6
1020,-8,-20,999,-15,1,-5
1021,-8,-21,999,-16,2,-4
1022,-8,-22,1000,-15,1,-5
1023,-8,-23,999,-13,2,-7
1024,-7,-20,1000,-16,2,-7
1025,-6,-21,997,-15,0,-7
1026,-7,-22,998,-14,1,-6
1027,-8,-21,998,-14,1,-5
1028,-8,-23,1000,-15,2,-6
1029,-6,-21,999,-15,1,-7
1030,-6,-21,1000,-16,0,-6
1031,-8,-21,998,-14,1,-6
1032,-8,-22,1000,-16,0,-5
1033,-7,-20,998,-15,-1,-6
1034,-8,-21,1000,-14,1,-6
1035,-7,-20,999,-15,1,-5
1036,-7,-21,999,-16,1,-6
1037,-9,-22,999,-15,0,-6
1038,-7,-21,998,-16,-1,-7
1039,-7,-21,998,-13,0,-6
1040,-8,-21,999,-15,0,-6
1041,-8,-21,1000,-15,0,-6
1042,-7,-22,999,-16,0,-5
1043,-7,-22,999,-15,0,-6
1044,-7,-20,999,-15,-1,-6
1045,-6,-21,999,-15,-1,-6
1046,-8,-21,1000,-14,0,-6
1047,-6,-20,999,-15,1,-7
1048,-7,-19,997,-14,0,-7
1049,-7,-21,999,-14,0,-6
1050,-8,-22,1000,-15,-1,-6
1051,-8,-22,999,-15,0,-6
1052,-7,-22,999,-15,0,-6
1053,-9,-22,998,-13,0,-6
1054,-6,-21,999,-14,1,-6
1055,-7,-21,1000,-14,2,-6
1056,-7,-20,999,-13,1,-7
1057,-9,-21,999,-14,-1,-7
1058,-7,-21,998,-15,0,-7
1059,-5,-21,999,-15,0,-7
1060,-5,-21,999,-16,2,-7
1061,-5,-21,998,-14,1,-6
1062,-5,-23,999,-14,-1,-7
1063,-7,-22,999,-15,1,-8
1064,-9,-22,1000,-14,1,-7
1065,-5,-22,999,-15,0,-6
1066,-6,-22,999,-14,0,-6
1067,-6,-21,999,-13,1,-6
1068,-5,-23,999,-16,1,-5
1069,-7,-21,998,-14,1,-7
1070,-5,-21,997,-15,0,-6
1071,-5,-20,1000,-15,0,-7
1072,-6,-21,1000,-15,0,-7
1073,-6,-21,999,-15,0,-4
1074,-6,-22,999,-14,0,-5
1075,-8,-23,999,-14,1,-7
1076,-7,-22,1000,-16,0,-6
1077,-6,-19,1000,-13,1,-6
1078,-6,-20,1000,-14,0,-7
1079,-6,-20,1001,-13,0,-7
1080,-6,-20,999,-16,0,-5
1081,-7,-21,998,-15,0,-7
1082,-7,-21,999,-15,1,-5
1083,-6,-19,997,-14,1,-5
1084,-5,-21,997,-13,1,-6
1085,-8,-22,997,-15,1,-5
1086,-7,-21,998,-15,2,-6
1087,-7,-21,997,-13,2,-6
1088,-7,-22,998,-13,0,-7
1089,-7,-24,998,-14,-1,-6
1090,-7,-22,997,-14,1,-6
1091,-8,-21,999,-15,1,-6
1092,-6,-22,996,-16,0,-6
1093,-5,-22,999,-15,1,-7
1094,-5,-22,998,-14,1,-6
1095,-4,-20,998,-15,1,-5
1096,-7,-21,998,-16,2,-6
1097,-9,-23,998,-14,1,-6
1098,-6,-21,998,-14,1,-7
1099,-7,-22,999,-13,1,-7
1100,-5,-21,1000,-14,1,-6
1101,-7,-20,999,-13,1,-6
1102,-7,-20,998,-16,2,-6
1103,-6,-20,999,-14,2,-6
1104,-6,-21,1000,-13,1,-7
1105,-6,-22,999,-15,0,-6
1106,-7,-21,999,-15,0,-6
1107,-8,-20,999,-16,1,-6
1108,-6,-21,1000,-14,0,-7
1109,-10,-21,998,-15,0,-6
1110,-7,-21,999,-14,0,-7
1111,-6,-20,999,-17,1,-6
1112,-7,-22,999,-15,0,-6
1113,-6,-22,1000,-16,0,-6
1114,-7,-22,999,-15,0,-6
1115,-7,-20,999,-15,0,-6
1116,-8,-20,998,-16,1,-5
1117,-7,-18,998,-15,1,-7
1118,-7,-20,999,-15,1,-6
1119,-8,-20,999,-14,1,-7
1120,-8,-20,998,-15,0,-7
1121,-8,-22,999,-14,0,-7
1122,-8,-22,998,-14,0,-6
1123,-11,-22,1000,-16,-1,-6
1124,-7,-21,1000,-14,1,-5
1125,-7,-22,998,-13,0,-7
1126,-7,-22,998,-14,1,-6
1127,-7,-22,1000,-13,2,-8
1128,-6,-20,1000,-14,1,-5
1129,-8,-20,1000,-15,0,-6
1130,-8,-20,1000,-15,1,-7
1131,-6,-19,1000,-15,1,-5
1132,-8,-20,999,-15,1,-6
1133,-7,-20,1000,-15,2,-6
1134,-7,-19,998,-15,2,-6
1135,-6,-20,998,-14,0,-6
1136,-6,-19,998,-15,0,-8
1137,-7,-22,1000,-15,1,-5
1138,-7,-22,998,-14,1,-6
1139,-7,-20,998,-15,0,-6
1140,-5,-22,997,-15,1,-6
1141,-7,-23,999,-15,1,-5
1142,-6,-23,998,-14,1,-7
1143,-8,-20,999,-14,0,-7
1144,-7,-22,998,-15,1,-6
1145,-7,-21,998,-14,0,-6
1146,-6,-20,999,-13,0,-6
1147,-7,-21,999,-14,1,-6
1148,-7,-20,999,-15,0,-6
1149,-8,-21,999,-16,0,-6
1150,-7,-21,999,-14,-1,-6
1151,-8,-19,999,-14,0,-7
1152,-8,-21,1000,-14,1,-6
1153,-6,-23,997,-13,1,-6
1154,-7,-21,998,-13,2,-5
1155,-10,-21,998,-14,1,-6
1156,-9,-22,999,-15,1,-6
1157,-7,-22,999,-15,1,-6
1158,-7,-20,999,-16,1,-6
1159,-10,-19,999,-14,2,-6
1160,-8,-21,998,-14,1,-6
1161,-7,-21,999,-13,0,-6
1162,-7,-21,998,-13,0,-6
1163,-7,-20,998,-15,0,-6
1164,-4,-21,998,-16,0,-7
1165,-8,-22,1000,-14,-1,-7
1166,-6,-21,999,-16,1,-6
1167,-6,-21,997,-13,1,-6
1168,-6,-23,998,-14,0,-6
1169,-6,-22,998,-14,1,-6
1170,-7,-21,1000,-14,1,-7
1171,-7,-23,999,-15,2,-6
1172,-7,-21,1000,-14,1,-6
1173,-6,-20,999,-15,0,-5
1174,-6,-22,999,-14,1,-6
1175,-7,-22,998,-15,2,-5
1176,-7,-21,999,-15,1,-6
1177,-8,-22,1000,-14,0,-6
1178,-6,-22,998,-14,0,-6
1179,-7,-22,998,-14,0,-6
1180,-6,-21,997,-14,-1,-6
1181,-5,-21,1000,-15,-1,-5
1182,-7,-22,999,-13,0,-5
1183,-7,-21,999,-14,0,-5
1184,-6,-21,998,-16,1,-6
1185,-8,-22,999,-14,1,-6
1186,-8,-21,999,-15,1,-6
1187,-6,-22,999,-15,0,-6
1188,-7,-21,998,-14,-1,-7
1189,-6,-24,999,-14,1,-6
1190,-6,-20,998,-15,0,-6
1191,-6,-21,998,-13,1,-6
1192,-7,-21,998,-14,1,-6
1193,-7,-19,999,-15,0,-5
1194,-9,-20,1000,-16,-1,-6
1195,-8,-22,999,-14,0,-6
1196,-8,-21,999,-15,0,-7
1197,-7,-21,999,-15,1,-6
1198,-8,-22,998,-14,0,-6
1199,-7,-21,1000,-14,2,-6
1200,-9,-20,1000,-15,1,-6
1201,-6,-21,999,-13,0,-7
1202,-8,-22,999,-15,1,-5
1203,-7,-21,1000,-14,0,-6
1204,-5,-21,999,-15,1,-6
1205,-6,-22,999,-15,1,-6
1206,-7,-21,998,-15,1,-6
1207,-7,-20,999,-14,1,-6
1208,-8,-20,999,-15,1,-6
1209,-6,-22,999,-14,1,-6
1210,-7,-22,999,-14,1,-6
1211,-7,-19,1000,-15,1,-6
1212,-6,-19,999,-15,0,-6
1213,-6,-20,999,-15,0,-7
1214,-7,-21,999,-14,1,-7
1215,-8,-22,1000,-14,1,-7
1216,-8,-21,997,-13,0,-6
1217,-7,-20,999,-13,0,-6
1218,-8,-19,999,-16,0,-7
1219,-5,-21,999,-15,0,-6
1220,-8,-22,998,-15,0,-6
1221,-7,-20,997,-14,2,-7
1222,-7,-22,999,-15,2,-7
1223,-7,-22,998,-16,1,-8
1224,-6,-21,999,-14,0,-7
1225,-5,-21,999,-15,-1,-7
1226,-5,-21,998,-15,0,-7
1227,-8,-22,998,-14,1,-7
1228,-7,-21,998,-15,1,-6
1229,-8,-21,998,-16,2,-7
1230,-7,-22,998,-15,1,-6
1231,-7,-22,1001,-14,0,-7
1232,-6,-23,1000,-15,-1,-7
1233,-7,-21,998,-16,1,-5
1234,-6,-21,1000,-15,2,-7
1235,-8,-19,998,-16,-1,-7
1236,-7,-21,1000,-15,0,-6
1237,-5,-22,999,-16,1,-6
1238,-6,-22,998,-15,1,-6
1239,-6,-22,999,-14,1,-6
1240,-6,-23,999,-15,2,-7
1241,-8,-21,998,-14,1,-6
1242,-8,-22,999,-16,1,-6
1243,-8,-20,999,-14,1,-7
1244,-5,-21,1000,-14,2,-5
1245,-6,-21,999,-15,1,-6
1246,-7,-23,999,-13,1,-6
1247,-8,-21,998,-15,1,-7
1248,-7,-21,997,-16,0,-7
1249,-9,-20,998,-14,1,-6
1250,-8,-20,998,-15,3,-6
1251,-7,-21,998,-13,2,-6
1252,-8,-21,999,-13,3,-6
1253,-6,-21,998,-14,1,-6
1254,-8,-22,999,-14,1,-7
1255,-7,-22,1000,-15,0,-7
1256,-7,-22,999,-16,0,-6
1257,-7,-20,998,-13,1,-6
1258,-7,-22,999,-13,1,-6
1259,-8,-21,998,-14,1,-6
1260,-7,-20,998,-16,1,-6
1261,-7,-19,1000,-14,0,-6
1262,-7,-21,1001,-14,1,-6
1263,-7,-20,1000,-15,1,-6
1264,-7,-19,999,-15,1,-7
1265,-7,-20,1000,-15,0,-6
1266,-8,-21,1000,-14,-1,-6
1267,-8,-23,999,-14,-1,-6
1268,-7,-21,999,-14,0,-6
1269,-7,-21,1000,-14,1,-7
1270,-6,-21,998,-14,0,-6
1271,-7,-21,1000,-14,1,-6
1272,-7,-21,998,-15,1,-6
1273,-7,-20,998,-14,1,-7
1274,-6,-20,998,-16,1,-7
1275,-7,-22,999,-13,1,-6
1276,-5,-21,998,-14,1,-5
1277,-6,-20,999,-14,1,-5
1278,-7,-22,999,-14,1,-5
1279,-7,-21,998,-14,2,-7
1280,-8,-21,999,-15,0,-6
1281,-7,-22,998,-15,0,-6
1282,-6,-21,999,-14,0,-6
1283,-6,-21,997,-15,1,-5
1284,-3,-22,998,-16,1,-5
1285,-6,-22,999,-14,1,-6
1286,-7,-20,997,-15,0,-7
1287,-5,-18,998,-15,0,-5
1288,-5,-21,998,-15,1,-6
1289,-6,-21,998,-16,1,-7
1290,-7,-20,998,-15,0,-6
1291,-7,-20,998,-14,1,-6
1292,-5,-20,998,-15,1,-5
1293,-6,-22,999,-14,1,-5
1294,-8,-21,999,-14,1,-6
1295,-7,-20,998,-13,1,-5
1296,-8,-22,999,-14,2,-5
1297,-7,-22,999,-14,-1,-6
1298,-9,-22,998,-14,1,-6
1299,-7,-20,1000,-15,2,-7
1300,-6,-21,1000,-15,1,-7
1301,-7,-21,998,-14,1,-6
1302,-9,-21,999,-13,1,-7
1303,-8,-23,999,-15,1,-5
1304,-9,-22,1000,-15,0,-5
1305,-8,-22,1000,-15,0,-6
1306,-8,-22,999,-15,1,-5
1307,-6,-20,1000,-15,1,-6
1308,-7,-22,997,-14,1,-6
1309,-8,-22,998,-14,0,-6
1310,-8,-21,1000,-16,-1,-6
1311,-9,-21,999,-14,0,-6
1312,-8,-21,1000,-14,1,-6
1313,-9,-20,999,-16,0,-6
1314,-8,-21,997,-15,1,-6
1315,-7,-20,998,-14,1,-5
1316,-6,-20,1000,-14,0,-6
1317,-9,-21,998,-13,1,-7
1318,-7,-20,1000,-15,1,-7
1319,-9,-18,999,-14,0,-5
1320,-7,-19,1000,-14,2,-5
1321,-7,-21,1000,-16,1,-5
1322,-6,-20,1001,-15,1,-7
1323,-8,-21,999,-14,1,-7
1324,-7,-22,999,-15,1,-6
1325,-5,-22,1000,-15,1,-6
1326,-6,-21,1000,-16,0,-6
1327,-7,-22,998,-14,0,-6
1328,-7,-20,998,-15,1,-6
1329,-8,-22,999,-15,1,-6
1330,-9,-21,999,-14,2,-6
1331,-8,-22,1000,-15,0,-7
1332,-8,-23,999,-15,0,-6
1333,-7,-22,999,-14,0,-5
1334,-8,-21,997,-15,0,-6
1335,-7,-20,998,-15,0,-7
1336,-7,-21,998,-15,2,-6
1337,-9,-22,998,-14,0,-5
1338,-8,-22,998,-16,0,-6
1339,-7,-23,999,-14,0,-7
1340,-8,-22,999,-15,0,-6
1341,-9,-20,998,-15,1,-7
1342,-6,-22,998,-14,1,-7
1343,-7,-20,998,-14,1,-8
1344,-7,-23,1000,-13,1,-8
1345,-7,-22,999,-14,1,-6
1346,-7,-22,999,-14,1,-6
1347,-7,-21,998,-14,1,-6
1348,-8,-21,1000,-14,1,-5
1349,-6,-22,1000,-14,2,-6
1350,-5,-22,998,-14,1,-6
1351,-7,-22,999,-14,8,-3
1352,-8,-20,998,-14,1,-6
1353,-6,-21,1001,-12,1,-6
1354,-7,-21,998,-16,1,-6
1355,-4,-22,999,-14,-1,-7
1356,-7,-22,1000,-13,1,-6
1357,-6,-20,999,-15,1,-7
1358,-8,-22,999,-12,1,-6
1359,-6,-23,998,-14,0,-5
1360,-8,-22,998,-15,-1,-5
1361,-7,-22,998,-14,-1,-6
1362,-6,-22,1000,-17,0,-7
1363,-7,-21,1000,-16,1,-7
1364,-7,-22,1000,-15,0,-7
1365,-7,-20,999,-16,0,-6
1366,-7,-21,999,-14,0,-6
1367,-7,-21,998,-16,0,-5
1368,-7,-20,999,-12,1,-6
1369,-7,-22,1000,-14,0,-6
1370,-6,-22,998,-15,0,-6
1371,-8,-21,999,-14,1,-6
1372,-6,-21,998,-17,1,-6
1373,-9,-21,998,-15,0,-6
1374,-7,-19,999,-15,1,-5
1375,-8,-22,999,-15,2,-5
1376,-6,-21,999,-15,0,-6
1377,-6,-21,999,-15,-1,-7
1378,-8,-21,1000,-14,0,-7
1379,-8,-22,999,-15,0,-6
1380,-7,-21,999,-16,0,-6
1381,-5,-22,999,-14,2,-6
1382,-6,-22,998,-15,0,-6
1383,-5,-22,1000,-15,1,-7
1384,-7,-22,1000,-15,1,-6
1385,-8,-22,997,-15,1,-5
1386,-6,-21,999,-12,1,-6
1387,-7,-23,996,-12,0,-7
1388,-5,-21,998,-13,1,-6
1389,-8,-22,1000,-13,1,-5
1390,-7,-21,998,-14,0,-6
1391,-8,-20,998,-15,1,-5
1392,-8,-22,999,-14,1,-6
1393,-8,-20,998,-13,0,-6
1394,-7,-21,999,-15,1,-5
1395,-8,-21,1000,-15,0,-5
1396,-7,-20,998,-15,0,-7
1397,-5,-20,999,-14,0,-6
1398,-5,-21,999,-14,0,-5
1399,-6,-23,998,-14,2,-6
1400,-5,-20,1000,-14,1,-6
1401,-7,-21,1000,-14,2,-6
1402,-6,-21,1000,-15,2,-6
1403,-9,-19,999,-16,1,-5
1404,-7,-21,998,-14,0,-6
1405,-9,-22,999,-15,1,-6
1406,-7,-21,1000,-16,-1,-6
1407,-6,-21,1000,-14,-1,-6
1408,-7,-21,999,-14,1,-6
1409,-6,-20,998,-14,1,-6
1410,-8,-21,999,-14,1,-6
1411,-8,-19,998,-16,1,-6
1412,-7,-22,998,-14,0,-6
1413,-7,-19,998,-14,1,-6
1414,-8,-21,1000,-14,1,-7
1415,-6,-22,999,-16,1,-6
1416,-7,-20,999,-16,1,-5
1417,-6,-22,1000,-15,1,-6
1418,-7,-22,999,-14,1,-6
1419,-8,-21,999,-15,1,-7
1420,-7,-23,999,-15,0,-7
1421,-6,-22,998,-15,1,-6
1422,-6,-23,998,-14,1,-6
1423,-6,-23,999,-16,2,-5
1424,-8,-22,1000,-15,2,-6
1425,-6,-21,999,-13,2,-5
1426,-6,-21,998,-15,1,-6
1427,-6,-23,997,-16,2,-6
1428,-7,-21,998,-15,1,-5
1429,-7,-21,998,-14,1,-6
1430,-6,-21,999,-14,1,-6
1431,-7,-22,998,-15,0,-6
1432,-6,-21,998,-15,0,-6
1433,-8,-20,1000,-14,1,-6
1434,-8,-20,1000,-13,1,-5
1435,-8,-20,999,-14,0,-6
1436,-7,-21,997,-13,-1,-6
1437,-6,-22,997,-13,0,-6
1438,-7,-21,997,-15,0,-6
1439,-7,-22,1000,-15,0,-6
1440,-8,-21,999,-15,2,-6
1441,-6,-20,999,-14,1,-5
1442,-9,-21,999,-15,0,-6
1443,-8,-22,999,-14,0,-7
1444,-9,-21,998,-13,2,-6
1445,-7,-21,998,-15,2,-5
1446,-9,-22,998,-14,1,-5
1447,-5,-20,998,-15,1,-5
1448,-6,-21,999,-15,2,-6
1449,-6,-19,998,-15,1,-6
1450,-6,-20,998,-14,1,-7
1451,-7,-19,999,-17,2,-6
1452,-8,-20,998,-15,1,-6
1453,-8,-21,998,-14,1,-6
1454,-8,-21,997,-15,0,-6
1455,-8,-19,998,-16,0,-5
1456,-8,-20,998,-15,1,-7
1457,-6,-21,997,-14,0,-6
1458,-9,-21,998,-15,1,-7
1459,-8,-21,999,-15,1,-6
1460,-7,-21,999,-13,1,-6
1461,-8,-19,998,-13,1,-6
1462,-8,-22,999,-15,0,-7
1463,-7,-22,999,-15,1,-6
1464,-8,-23,998,-14,1,-6
1465,-8,-22,999,-13,1,-7
1466,-7,-22,999,-15,0,-6
1467,-7,-21,998,-15,1,-6
1468,-8,-23,998,-14,0,-7
1469,-9,-24,999,-14,1,-6
1470,-9,-23,998,-14,1,-6
1471,-8,-20,997,-14,1,-7
1472,-7,-22,999,-14,1,-7
1473,-8,-22,1000,-15,0,-6
1474,-6,-20,999,-15,0,-6
1475,-8,-21,999,-16,1,-6
1476,-8,-20,999,-15,0,-6
1477,-6,-19,998,-14,1,-7
1478,-8,-20,999,-15,-1,-7
1479,-8,-20,998,-14,0,-7
1480,-6,-21,998,-15,1,-5
1481,-8,-21,999,-13,0,-7
1482,-6,-21,999,-13,1,-7
1483,-7,-19,1002,-15,0,-6
1484,-7,-21,1000,-15,0,-6
1485,-6,-19,999,-14,1,-6
1486,-6,-20,998,-16,0,-6
1487,-9,-21,997,-14,0,-6
1488,-8,-21,999,-14,0,-7
1489,-7,-21,999,-14,1,-7
1490,-7,-20,997,-14,0,-7
1491,-8,-20,998,-14,0,-6
1492,-6,-22,1001,-14,1,-5
1493,-7,-23,1001,-16,0,-6
1494,-6,-21,999,-15,1,-7
1495,-7,-21,997,-15,0,-6
1496,-7,-19,999,-13,0,-5
1497,-6,-21,1000,-14,1,-6
1498,-6,-21,999,-16,1,-6
1499,-8,-22,996,-14,1,-7
1500,-8,-21,997,-15,1,-6
1501,-7,-21,999,-15,1,-7
1502,-8,-20,1000,-14,0,-7
1503,-7,-21,999,-14,0,-7
1504,-6,-19,999,-14,-1,-8
1505,-6,-22,999,-16,0,-6
1506,-7,-23,998,-15,1,-6
1507,-8,-21,1001,-13,1,-6
1508,-6,-21,1002,-15,1,-6
1509,-6,-21,999,-14,0,-6
1510,-6,-20,999,-15,0,-6
1511,-7,-21,999,-15,0,-7
1512,-6,-21,998,-14,-2,-6
1513,-8,-21,999,-16,-1,-5
1514,-6,-21,997,-15,0,-6
1515,-8,-23,998,-14,0,-6
1516,-5,-23,999,-14,0,-6
1517,-5,-21,1000,-14,0,-6
1518,-7,-20,999,-14,1,-6
1519,-7,-20,999,-15,1,-6
1520,-8,-21,999,-14,1,-6
1521,-7,-21,998,-14,2,-7
1522,-6,-23,998,-13,1,-6
1523,-7,-23,998,-14,0,-7
1524,-4,-22,998,-14,1,-7
1525,-6,-19,1000,-15,1,-5
1526,-8,-21,1000,-17,0,-6
1527,-7,-21,1001,-14,1,-7
1528,-6,-23,1001,-15,1,-7
1529,-5,-25,999,-15,1,-6
1530,-5,-20,997,-13,1,-6
1531,-6,-21,998,-14,1,-6
1532,-8,-21,1000,-15,0,-6
1533,-6,-21,999,-14,1,-7
1534,-8,-22,998,-15,1,-7
1535,-7,-20,997,-14,0,-6
1536,-5,-21,999,-15,0,-6
1537,-9,-23,997,-14,0,-6
1538,-8,-21,999,-14,1,-6
1539,-8,-21,1000,-14,0,-5
1540,-7,-19,999,-14,0,-6
1541,-7,-18,998,-16,1,-6
1542,-9,-21,999,-16,1,-8
1543,-9,-20,1001,-15,0,-7
1544,-7,-21,999,-14,-1,-6
1545,-6,-19,1000,-12,0,-6
1546,-8,-21,1000,-15,1,-6
1547,-6,-20,1000,-14,0,-6
1548,-8,-19,999,-15,1,-5
1549,-8,-22,1001,-16,2,-6
1550,-4,-23,999,-14,1,-7
1551,-5,-21,999,-15,1,-7
1552,-4,-20,1000,-16,1,-6
1553,-6,-20,1000,-15,2,-4
1554,-8,-21,1001,-14,0,-6
1555,-7,-21,999,-14,-2,-6
1556,-7,-23,1002,-15,0,-6
1557,-6,-22,1000,-15,0,-6
1558,-7,-22,998,-14,1,-6
1559,-5,-21,1000,-15,1,-6
1560,-6,-19,999,-14,1,-7
1561,-8,-20,998,-15,2,-5
1562,-8,-22,999,-15,1,-6
1563,-9,-22,998,-16,0,-7
1564,-7,-21,998,-16,0,-6
1565,-7,-22,999,-15,1,-6
1566,-9,-19,998,-13,0,-6
1567,-9,-21,998,-15,1,-5
1568,-10,-21,998,-16,0,-5
1569,-9,-20,999,-15,1,-6
1570,-6,-21,999,-15,0,-6
1571,-8,-22,998,-14,1,-6
1572,-5,-20,999,-15,0,-7
1573,-7,-22,999,-14,0,-5
1574,-7,-20,998,-15,1,-5
1575,-7,-21,998,-15,-1,-6
1576,-8,-21,1000,-15,0,-6
1577,-7,-22,998,-14,1,-7
1578,-5,-22,999,-15,1,-7
1579,-5,-21,999,-14,-1,-7
1580,-7,-20,999,-14,0,-6
1581,-8,-21,999,-15,0,-6
1582,-9,-21,999,-14,1,-4
1583,-7,-21,998,-13,0,-5
1584,-4,-22,997,-14,1,-8
1585,-5,-20,999,-15,0,-7
1586,-7,-20,1000,-16,1,-7
1587,-9,-20,999,-15,1,-6
1588,-8,-20,999,-15,-1,-5
1589,-8,-21,999,-16,1,-6
1590,-7,-19,998,-16,2,-6
1591,-7,-19,1000,-14,0,-7
1592,-6,-19,999,-15,0,-7
1593,-7,-20,999,-16,-1,-6
1594,-9,-20,998,-15,0,-6
1595,-8,-22,998,-15,0,-6
1596,-9,-22,999,-17,0,-6
1597,-6,-21,998,-15,-1,-6
1598,-5,-22,1000,-16,1,-6
1599,-6,-22,999,-16,0,-6
1600,-6,-20,999,-16,1,-5
1601,-7,-20,999,-15,1,-6
1602,-8,-19,999,-15,0,-7
1603,-9,-18,1003,-16,0,-6
1604,-10,-19,999,-16,0,-5
1605,-8,-18,998,-16,-1,-6
1606,-7,-20,1001,-16,0,-6
1607,-6,-20,1001,-17,-1,-6
1608,-6,-24,998,-17,-1,-6
1609,-7,-23,999,-17,-2,-7
1610,-8,-22,998,-16,-2,-6
1611,-8,-21,998,-14,0,-7
1612,-5,-20,999,-16,0,-7
1613,-6,-21,1000,-16,0,-7
1614,-8,-24,997,-16,0,-5
1615,-8,-24,999,-16,0,-5
1616,-9,-21,997,-16,1,-5
1617,-9,-22,998,-15,-1,-6
1618,-8,-18,1001,-15,0,-7
1619,-9,-18,1000,-15,0,-6
1620,-8,-17,1000,-16,-2,-7
1621,-8,-20,999,-17,-1,-6
1622,-11,-22,997,-18,0,-5
1623,-8,-22,999,-18,-1,-7
1624,-6,-21,1000,-17,-2,-6
1625,-6,-21,998,-16,0,-6
1626,-3,-21,998,-17,1,-6
1627,-5,-20,1000,-16,0,-6
1628,-5,-21,997,-15,0,-6
1629,-7,-21,1001,-16,0,-5
1630,-6,-22,998,-18,0,-5
1631,-4,-22,999,-18,1,-5
1632,-6,-23,997,-17,0,-6
1633,-6,-22,998,-15,0,-6
1634,-7,-22,998,-15,1,-6
1635,-7,-24,998,-14,0,-7
1636,-7,-23,997,-17,-1,-6
1637,-5,-25,997,-16,0,-6
1638,-3,-23,999,-16,0,-6
1639,-6,-24,998,-15,1,-6
1640,-5,-21,999,-14,1,-5
1641,-5,-22,999,-16,0,-6
1642,-4,-21,999,-16,0,-7
1643,-5,-23,999,-15,0,-6
1644,-4,-21,999,-16,1,-6
1645,-4,-23,999,-15,1,-5
1646,-5,-22,999,-16,0,-5
1647,-4,-23,998,-16,1,-6
1648,-5,-26,998,-15,0,-7
1649,-6,-24,999,-14,0,-6
1650,-6,-22,998,-16,1,-6
1651,-8,-20,1000,-15,1,-7
1652,-7,-22,998,-16,1,-6
1653,-8,-20,1000,-14,0,-6
1654,-9,-22,999,-14,1,-6
1655,-11,-22,997,-14,1,-5
1656,-10,-21,998,-15,1,-6
1657,-7,-20,1000,-15,1,-5
1658,-10,-20,998,-15,1,-7
1659,-9,-19,999,-14,1,-6
1660,-8,-20,999,-14,2,-6
1661,-4,-22,998,-15,0,-5
1662,-1,-26,999,-15,-1,-7
1663,-2,-23,998,-15,1,-6
1664,-3,-23,998,-14,1,-5
1665,-7,-19,999,-14,3,-6
1666,-12,-18,998,-15,2,-7
1667,-11,-19,999,-16,0,-6
1668,-6,-21,1000,-16,0,-7
1669,-6,-22,997,-16,-1,-7
1670,-3,-24,998,-15,0,-7
1671,-7,-21,1000,-14,0,-6
1672,-9,-19,998,-14,0,-6
1673,-10,-18,999,-13,-1,-6
1674,-9,-17,1000,-14,1,-7
1675,-7,-19,1000,-14,0,-6
1676,-6,-21,999,-15,1,-6
1677,-7,-23,1000,-14,1,-5
1678,-10,-24,998,-14,2,-6
1679,-11,-21,1000,-14,1,-5
1680,-10,-20,1000,-13,0,-7
1681,-9,-20,999,-14,1,-8
1682,-8,-20,998,-15,1,-7
1683,-6,-21,999,-14,-1,-6
1684,-8,-22,998,-14,-1,-6
1685,-9,-24,998,-14,0,-6
1686,-10,-23,999,-15,1,-6
1687,-9,-20,999,-13,1,-7
1688,-8,-20,999,-15,0,-7
1689,-7,-21,998,-19,-2,-6
1690,-5,-22,998,-26,-7,-7
1691,-4,-22,998,-18,-1,-6
1692,-4,-23,998,-15,1,-7
1693,-4,-23,999,-12,2,-7
1694,-5,-22,999,-15,2,-5
1695,-5,-20,999,-13,1,-5
1696,-6,-20,998,-15,0,-6
1697,-5,-21,998,-16,-1,-6
1698,-6,-22,1000,-14,1,-6
1699,-8,-24,999,-15,2,-6
1700,-6,-21,999,-14,1,-6
1701,-10,-23,998,-14,1,-6
1702,-6,-22,998,-15,0,-6
1703,-6,-22,998,-15,0,-5
1704,-6,-20,998,-16,0,-6
1705,-6,-21,997,-17,1,-6
1706,-8,-23,996,-15,0,-6
1707,-8,-22,999,-15,1,-6
1708,-8,-21,998,-14,0,-7
1709,-7,-20,1000,-14,0,-7
1710,-9,-20,999,-13,2,-7
1711,-6,-19,999,-13,1,-6
1712,-8,-19,999,-15,2,-7
1713,-7,-20,999,-15,0,-5
1714,-7,-22,999,-15,1,-6
1715,-8,-22,997,-14,1,-6
1716,-8,-22,998,-14,2,-6
1717,-6,-21,1000,-14,2,-6
1718,-6,-21,999,-13,1,-7
1719,-6,-21,999,-15,0,-6
1720,-10,-19,998,-15,1,-7
1721,-7,-22,999,-15,1,-5
1722,-5,-22,999,-13,0,-6
1723,-8,-22,999,-16,0,-5
1724,-6,-21,999,-15,0,-7
1725,-6,-21,999,-13,1,-7
1726,-5,-18,999,-14,1,-6
1727,-7,-21,999,-13,-1,-8
1728,-7,-21,998,-15,0,-6
1729,-8,-22,1000,-16,1,-6
1730,-7,-24,1000,-15,1,-7
1731,-6,-21,999,-16,3,-6
1732,-6,-22,999,-15,1,-6
1733,-7,-21,999,-15,0,-7
1734,-6,-19,1000,-14,1,-6
1735,-7,-19,997,-14,0,-6
1736,-7,-20,999,-15,1,-6
1737,-8,-21,1000,-15,0,-6
1738,-7,-21,998,-15,1,-6
1739,-6,-20,998,-13,0,-5
1740,-5,-22,998,-14,2,-6
1741,-6,-21,999,-14,1,-6
1742,-6,-20,999,-14,2,-6
1743,-8,-21,998,-16,1,-5
1744,-7,-20,999,-14,2,-6
1745,-8,-21,999,-14,0,-6
1746,-7,-22,999,-12,-1,-6
1747,-8,-22,997,-13,0,-6
1748,-5,-21,998,-15,0,-6
1749,-7,-21,999,-15,0,-6
1750,-8,-20,999,-14,1,-6
1751,-8,-22,999,-14,2,-6
1752,-7,-22,999,-15,0,-6
1753,-8,-21,998,-15,1,-6
1754,-9,-22,999,-14,0,-6
1755,-6,-22,999,-15,1,-5
1756,-7,-20,999,-15,1,-6
1757,-6,-19,998,-16,-1,-7
1758,-7,-23,999,-16,0,-7
1759,-7,-20,999,-16,2,-6
1760,-7,-21,1000,-13,2,-6
1761,-7,-22,1000,-13,1,-6
1762,-7,-21,999,-15,0,-5
1763,-7,-21,999,-13,-1,-6
1764,-7,-21,999,-15,0,-6
1765,-5,-21,998,-15,1,-6
1766,-7,-21,999,-14,0,-6
1767,-5,-22,997,-14,0,-6
1768,-5,-20,999,-15,1,-5
1769,-6,-21,998,-16,1,-6
1770,-6,-19,999,-16,-1,-7
1771,-5,-22,998,-14,1,-6
1772,-6,-21,999,-15,1,-6
1773,-6,-22,998,-14,1,-7
1774,-6,-21,998,-13,0,-6
1775,-8,-22,998,-14,1,-5
1776,-7,-22,998,-14,1,-6
1777,-7,-22,999,-16,1,-5
1778,-7,-21,999,-16,0,-6
1779,-7,-22,1000,-15,1,-7
1780,-8,-22,998,-15,0,-7
1781,-8,-21,999,-13,0,-6
1782,-8,-20,998,-13,0,-5
1783,-9,-22,998,-15,1,-5
1784,-7,-20,998,-15,0,-6
1785,-6,-19,999,-14,0,-6
1786,-7,-20,997,-13,1,-6
1787,-8,-20,999,-13,1,-6
1788,-6,-21,999,-15,1,-6
1789,-7,-19,997,-15,2,-6
1790,-7,-20,999,-16,-1,-7
1791,-7,-22,996,-15,-1,-6
1792,-6,-25,997,-15,1,-6
1793,-4,-24,997,-14,2,-7
1794,-7,-24,999,-13,3,-7
1795,-11,-19,1005,-13,0,-6
1796,-12,-14,998,-14,1,-6
1797,-13,-13,996,-15,0,-6
1798,-9,-16,1004,-15,1,-6
1799,-7,-22,1001,-15,0,-6
1800,-4,-24,993,-17,0,-6
1801,-4,-24,1004,-15,1,-6
1802,-6,-23,998,-15,0,-7
1803,-6,-20,993,-15,1,-7
1804,-4,-20,1001,-15,1,-6
1805,-5,-19,999,-15,1,-6
1806,-7,-22,995,-15,1,-6
1807,-6,-25,997,-16,1,-7
1808,-5,-27,999,-15,0,-6
1809,-7,-22,996,-14,1,-7
1810,-8,-19,1001,-13,1,-6
1811,-7,-17,999,-13,0,-6
1812,-7,-17,998,-14,1,-7
1813,-7,-21,999,-15,1,-7
1814,-9,-22,998,-14,2,-6
1815,-9,-24,997,-15,0,-6
1816,-9,-24,998,-14,1,-6
1817,-8,-22,997,-14,1,-6
1818,-7,-20,999,-14,1,-6
1819,-7,-18,1001,-13,1,-7
1820,-8,-18,1000,-14,0,-5
1821,-8,-19,1000,-14,0,-6
1822,-8,-22,998,-16,0,-6
1823,-6,-25,1000,-16,0,-6
1824,-8,-23,997,-15,2,-5
1825,-7,-21,997,-15,1,-6
1826,-5,-20,997,-13,1,-7
1827,-5,-18,998,-14,1,-7
1828,-7,-19,999,-15,2,-6
1829,-6,-22,998,-16,2,-6
1830,-7,-23,998,-15,1,-7
1831,-9,-22,998,-15,1,-7
1832,-7,-23,999,-15,1,-6
1833,-6,-22,998,-14,0,-7
1834,-8,-19,1000,-15,0,-6
1835,-7,-20,999,-15,1,-7
1836,-7,-21,998,-16,-1,-6
1837,-6,-20,999,-15,0,-6
1838,-5,-24,999,-16,1,-6
1839,-5,-22,998,-15,2,-7
1840,-5,-22,999,-14,2,-7
1841,-7,-22,998,-13,1,-6
1842,-7,-21,998,-14,2,-6
1843,-6,-20,999,-14,2,-6
1844,-6,-21,999,-15,2,-6
1845,-7,-23,997,-15,1,-5
1846,-8,-21,999,-14,2,-6
1847,-9,-21,1000,-16,3,-7
1848,-7,-21,1000,-15,0,-6
1849,-7,-22,999,-14,1,-5
1850,-7,-20,998,-15,1,-5
1851,-7,-21,999,-15,0,-6
1852,-5,-20,999,-14,1,-6
1853,-6,-22,999,-14,0,-5
1854,-7,-20,998,-15,1,-6
1855,-6,-22,998,-14,2,-5
1856,-8,-19,999,-14,2,-6
1857,-9,-21,999,-14,1,-6
1858,-9,-19,999,-15,2,-5
1859,-9,-20,997,-15,1,-6
1860,-7,-23,997,-14,1,-6
1861,-7,-22,999,-14,2,-7
1862,-6,-22,999,-16,1,-6
1863,-8,-22,999,-13,1,-7
1864,-8,-21,999,-15,2,-7
1865,-8,-20,999,-14,2,-6
1866,-8,-20,999,-15,-1,-7
1867,-7,-19,998,-14,1,-6
1868,-6,-21,1000,-16,1,-6
1869,-6,-21,998,-16,1,-6
1870,-6,-22,1000,-15,1,-6
1871,-7,-22,1000,-15,1,-6
1872,-7,-22,999,-15,0,-5
1873,-5,-22,998,-14,-1,-5
1874,-5,-23,997,-15,0,-5
1875,-7,-19,997,-13,2,-5
1876,-6,-22,998,-15,1,-6
1877,-7,-22,999,-14,0,-6
1878,-7,-21,998,-14,1,-6
1879,-7,-23,999,-15,0,-6
1880,-6,-22,999,-15,1,-7
1881,-7,-18,998,-16,2,-6
1882,-6,-20,999,-15,1,-7
1883,-7,-18,998,-16,1,-6
1884,-7,-21,998,-15,0,-6
1885,-7,-22,999,-15,1,-6
1886,-7,-22,999,-16,2,-6
1887,-7,-21,998,-14,2,-6
1888,-7,-21,1000,-15,0,-7
1889,-5,-22,1000,-16,1,-6
1890,-8,-21,998,-16,2,-7
1891,-9,-20,999,-16,1,-6
1892,-8,-22,1001,-15,-1,-7
1893,-9,-22,998,-14,0,-6
1894,-9,-22,999,-14,1,-7
1895,-8,-21,997,-14,1,-5
1896,-6,-21,999,-14,0,-6
1897,-7,-21,999,-14,1,-6
1898,-8,-22,999,-13,1,-6
1899,-7,-21,997,-15,0,-6
1900,-6,-20,999,-15,2,-5
1901,-7,-21,999,-15,1,-6
1902,-8,-21,1000,-14,0,-6
1903,-7,-20,999,-13,2,-5
1904,-7,-22,999,-14,1,-6
1905,-8,-20,997,-14,2,-6
1906,-8,-22,999,-12,1,-7
1907,-6,-22,999,-14,1,-6
1908,-6,-22,997,-15,-1,-6
1909,-6,-22,998,-15,0,-5
1910,-6,-20,1000,-15,0,-5
1911,-5,-21,998,-14,0,-6
1912,-8,-22,999,-15,1,-6
1913,-7,-20,999,-16,1,-5
1914,-7,-22,997,-14,1,-5
1915,-6,-23,998,-14,1,-6
1916,-6,-23,1000,-15,0,-5
1917,-5,-21,998,-14,1,-6
1918,-5,-22,998,-14,-1,-7
1919,-7,-19,998,-13,1,-7
1920,-6,-21,998,-16,1,-6
1921,-5,-20,999,-15,1,-6
1922,-6,-20,997,-13,1,-6
1923,-4,-20,999,-15,0,-7
1924,-7,-24,999,-16,-1,-8
1925,-7,-20,1000,-16,1,-7
1926,-7,-22,998,-15,1,-6
1927,-6,-22,999,-14,1,-7
1928,-7,-22,998,-14,1,-7
1929,-7,-22,999,-15,1,-5
1930,-6,-19,1000,-14,1,-6
1931,-6,-22,1001,-15,0,-6
1932,-7,-21,999,-16,0,-5
1933,-7,-22,1000,-15,1,-6
1934,-4,-22,999,-16,1,-7
1935,-6,-22,997,-15,0,-6
1936,-6,-21,999,-13,0,-6
1937,-7,-19,998,-14,1,-6
1938,-7,-19,1000,-15,1,-5
1939,-8,-21,1001,-15,1,-5
1940,-6,-22,999,-15,1,-7
1941,-8,-22,997,-16,0,-7
1942,-7,-22,999,-15,1,-8
1943,-7,-22,999,-15,2,-6
1944,-6,-21,999,-14,1,-6
1945,-7,-21,998,-15,0,-6
1946,-6,-20,1000,-15,-1,-5
1947,-8,-21,999,-15,0,-6
1948,-8,-22,999,-16,0,-6
1949,-8,-22,999,-14,0,-6
1950,-5,-19,1001,-15,0,-6
1951,-3,-18,996,-15,-1,-5
1952,1,-23,991,-15,-1,-6
1953,0,-25,1006,-14,2,-6
1954,-11,-18,1012,-14,3,-6
1955,-19,-13,992,-14,1,-6
1956,-16,-16,993,-16,-1,-5
1957,-8,-20,1006,-16,0,-5
1958,-2,-25,995,-16,0,-6
1959,-4,-27,996,-14,0,-7
1960,-4,-24,1004,-13,0,-5
1961,-9,-21,997,-15,2,-6
1962,-13,-16,995,-14,1,-6
1963,-13,-17,1002,-14,0,-6
1964,-8,-21,996,-14,0,-6
1965,-4,-23,997,-14,0,-6
1966,-4,-26,999,-16,0,-6
1967,-5,-27,998,-15,0,-6
1968,-9,-23,996,-13,1,-6
1969,-10,-19,1000,-13,1,-6
1970,-8,-16,996,-15,1,-6
1971,-8,-18,999,-16,2,-7
1972,-4,-19,999,-17,0,-6
1973,-6,-23,999,-15,1,-6
1974,-6,-25,998,-15,0,-6
1975,-8,-25,998,-14,1,-7
1976,-7,-23,996,-14,0,-6
1977,-5,-20,999,-13,0,-6
1978,-3,-17,1002,-15,1,-6
1979,-2,-19,998,-16,2,-5
1980,-4,-21,998,-16,1,-6
1981,-5,-24,999,-15,0,-7
1982,-7,-26,998,-15,1,-5
1983,-5,-24,998,-15,0,-5
1984,-4,-22,998,-13,0,-6
1985,-2,-20,999,-14,-1,-6
1986,-3,-19,999,-15,0,-7
1987,-6,-20,1000,-14,1,-7
1988,-6,-22,997,-16,1,-6
1989,-8,-25,999,-15,0,-6
1990,-6,-26,997,-15,0,-6
1991,-6,-24,998,-14,0,-6
1992,-5,-23,999,-14,2,-7
1993,-6,-19,999,-14,1,-6
1994,-7,-19,998,-16,0,-6
1995,-9,-21,998,-14,1,-6
1996,-8,-22,998,-15,0,-5
1997,-8,-22,998,-15,1,-6
1998,-6,-22,999,-15,-1,-7
1999,-5,-21,999,-14,0,-7
2000,-7,-20,1001,-12,2,-6
2001,-9,-20,1001,-15,1,-8
2002,-9,-19,999,-14,1,-7
2003,-8,-18,999,-16,1,-5
2004,-7,-22,1000,-14,-1,-5
2005,-8,-21,1000,-15,0,-6
2006,-6,-21,996,-15,2,-7
2007,-8,-21,999,-14,1,-5
2008,-7,-21,997,-15,0,-4
2009,-7,-18,996,-16,0,-6
2010,-8,-21,999,-13,1,-6
2011,-6,-21,999,-14,0,-7
2012,-9,-23,998,-15,0,-6
2013,-6,-21,999,-14,-1,-6
2014,-6,-23,1000,-14,0,-6
2015,-6,-21,998,-14,1,-5
2016,-8,-20,999,-13,0,-5
2017,-9,-20,1002,-14,0,-7
2018,-8,-18,996,-15,1,-5
2019,-7,-22,995,-15,1,-7
2020,-6,-25,1002,-15,0,-7
2021,-7,-25,1000,-14,1,-7
2022,-7,-22,994,-14,1,-7
2023,-7,-18,1000,-14,2,-6
2024,-8,-19,999,-14,1,-6
2025,-4,-19,998,-14,0,-6
2026,-7,-21,999,-16,0,-6
2027,-6,-22,1003,-15,0,-6
2028,-6,-24,997,-16,1,-7
2029,-6,-23,1000,-16,1,-6
2030,-6,-20,1002,-13,0,-6
2031,-8,-19,1000,-5,-3,-9
2032,-8,-18,997,-14,0,-7
2033,-5,-19,998,-17,-1,-7
2034,-8,-22,1000,-15,1,-7
2035,-9,-23,999,-15,1,-6
2036,-6,-24,999,-14,1,-6
2037,-8,-21,999,-14,0,-6
2038,-7,-20,997,-15,0,-5
2039,-6,-21,1000,-15,1,-6
2040,-6,-19,998,-15,1,-6
2041,-6,-21,998,-15,1,-7
2042,-7,-23,998,-15,0,-7
2043,-7,-24,999,-15,0,-6
2044,-6,-23,998,-14,0,-7
2045,-5,-22,998,-13,1,-6
2046,-6,-21,998,-15,2,-6
2047,-8,-20,999,-14,0,-8
2048,-7,-19,998,-13,0,-7
2049,-9,-20,998,-14,2,-7
2050,-7,-20,1000,-13,2,-6
2051,-6,-22,997,-14,0,-6
2052,-7,-22,999,-14,1,-6
2053,-7,-22,998,-14,1,-6
2054,-7,-20,999,-15,-1,-6
2055,-7,-19,998,-14,0,-6
2056,-9,-21,1001,-14,0,-6
2057,-5,-22,1000,-14,0,-7
2058,-6,-23,999,-16,1,-7
2059,-7,-21,1000,-15,0,-7
2060,-6,-22,1000,-15,1,-7
2061,-8,-21,998,-14,2,-7
2062,-5,-20,998,-14,1,-6
2063,-6,-21,998,-15,1,-6
2064,-7,-21,998,-15,-1,-5
2065,-6,-22,998,-14,0,-6
2066,-8,-21,999,-14,1,-6
2067,-7,-22,997,-15,0,-6
2068,-9,-21,998,-13,1,-6
2069,-8,-21,999,-14,1,-6
2070,-9,-22,997,-16,1,-5
2071,-8,-20,999,-14,0,-6
2072,-8,-19,999,-14,0,-6
2073,-10,-21,999,-15,0,-5
2074,-7,-23,997,-14,2,-7
2075,-6,-21,999,-15,0,-7
2076,-7,-21,998,-15,0,-6
2077,-7,-21,1000,-13,1,-6
2078,-8,-21,998,-14,2,-6
2079,-7,-22,998,-15,1,-7
2080,-6,-22,999,-16,1,-7
2081,-6,-20,1000,-15,1,-7
2082,-8,-20,1000,-16,0,-6
2083,-8,-21,1000,-14,1,-7
2084,-6,-21,1000,-16,-1,-5
2085,-6,-21,1000,-14,1,-6
2086,-6,-22,998,-14,1,-7
2087,-6,-20,1000,-14,1,-6
2088,-8,-20,1001,-14,1,-6
2089,-6,-22,998,-16,0,-7
2090,-6,-22,999,-14,0,-6
2091,-6,-21,999,-13,1,-5
2092,-5,-21,1000,-14,2,-6
2093,-6,-22,999,-15,0,-6
2094,-7,-21,998,-16,1,-6
2095,-7,-22,998,-15,0,-6
2096,-8,-22,998,-14,0,-6
2097,-6,-22,998,-15,0,-5
2098,-6,-23,1000,-15,1,-5
2099,-8,-22,999,-15,1,-6
2100,-5,-22,998,-16,1,-5
2101,-5,-21,998,-15,1,-6
2102,-6,-22,998,-14,0,-6
2103,-5,-21,999,-16,1,-6
2104,-7,-22,999,-14,0,-6
2105,-10,-19,999,-14,1,-7
2106,-7,-21,1000,-14,0,-6
2107,-5,-20,1000,-15,0,-6
2108,-5,-20,1000,-14,0,-6
2109,-8,-21,998,-15,0,-5
2110,-8,-21,1000,-15,1,-7
2111,-7,-21,999,-14,1,-7
2112,-5,-22,998,-14,1,-6
2113,-7,-21,999,-14,1,-6
2114,-6,-20,999,-15,1,-7
2115,-7,-20,998,-14,-1,-5
2116,-7,-20,999,-14,0,-6
2117,-7,-20,999,-15,0,-7
2118,-5,-21,999,-14,0,-6
2119,-7,-22,998,-13,1,-7
2120,-7,-22,998,-15,0,-6
2121,-8,-23,998,-13,0,-7
2122,-7,-21,997,-14,1,-7
2123,-7,-21,999,-15,1,-6
2124,-6,-21,1000,-12,1,-6
2125,-8,-21,998,-14,0,-6
2126,-9,-21,999,-14,-1,-6
2127,-6,-22,999,-15,0,-6
2128,-5,-22,1000,-15,1,-6
2129,-6,-21,999,-14,2,-7
2130,-6,-21,999,-14,1,-6
2131,-8,-20,999,-15,1,-7
2132,-5,-19,999,-16,1,-6
2133,-8,-21,1000,-16,1,-5
2134,-7,-21,999,-14,1,-6
2135,-7,-22,999,-14,2,-6
2136,-7,-23,999,-15,1,-6
2137,-5,-22,999,-15,1,-7
2138,-7,-22,999,-14,1,-6
2139,-7,-20,1000,-15,0,-6
2140,-8,-22,1000,-15,0,-6
2141,-8,-21,1000,-16,1,-6
2142,-5,-20,999,-14,2,-6
2143,-10,-21,999,-14,2,-6
2144,-7,-21,999,-13,0,-7
2145,-6,-21,998,-15,1,-6
2146,-8,-20,999,-15,1,-6
2147,-6,-21,999,-15,0,-6
2148,-9,-22,998,-16,2,-6
2149,-6,-21,997,-14,1,-5
2150,-7,-21,997,-13,2,-6
2151,-8,-22,997,-13,1,-6
2152,-6,-22,999,-16,0,-7
2153,-7,-23,998,-14,0,-6
2154,-8,-22,998,-16,0,-5
2155,-9,-23,999,-15,1,-7
2156,-6,-20,998,-14,1,-7
2157,-6,-22,998,-14,1,-7
2158,-7,-23,1000,-14,1,-5
2159,-6,-23,998,-13,1,-6
2160,-7,-23,998,-15,0,-7
2161,-7,-22,998,-14,0,-7
2162,-6,-20,999,-15,0,-6
2163,-8,-21,998,-13,1,-7
2164,-7,-22,998,-16,1,-6
2165,-8,-19,998,-15,0,-5
2166,-7,-22,999,-13,0,-5
2167,-6,-22,999,-15,0,-6
2168,-8,-21,1000,-15,1,-5
2169,-9,-20,998,-15,1,-6
2170,-8,-21,998,-14,0,-6
2171,-8,-21,997,-15,1,-6
2172,-7,-22,999,-14,0,-6
2173,-8,-24,999,-15,0,-6
2174,-7,-21,999,-14,0,-6
2175,-7,-23,998,-14,1,-6
2176,-10,-21,997,-15,0,-6
2177,-7,-20,998,-15,1,-6
2178,-7,-20,999,-13,1,-6
2179,-7,-21,998,-14,0,-5
2180,-6,-22,999,-15,1,-7
2181,-7,-22,1000,-14,0,-6
2182,-7,-21,998,-15,0,-7
2183,-7,-20,999,-15,0,-7
2184,-10,-20,999,-14,1,-6
2185,-7,-19,999,-15,1,-6
2186,-8,-22,1000,-14,2,-5
2187,-7,-21,1000,-16,1,-6
2188,-8,-20,998,-14,2,-7
2189,-6,-20,998,-15,0,-6
2190,-7,-22,1001,-15,0,-7
2191,-6,-23,1000,-14,0,-7
2192,-5,-20,999,-14,0,-7
2193,-5,-21,998,-15,1,-5
2194,-6,-21,1000,-15,1,-7
2195,-7,-21,999,-14,1,-7
2196,-7,-20,1000,-14,-1,-6
2197,-7,-20,999,-15,2,-6
2198,-6,-21,998,-13,1,-6
2199,-7,-21,999,-14,0,-6
2200,-7,-20,1000,-15,-1,-6
2201,-6,-21,999,-13,0,-5
2202,-7,-23,998,-15,0,-6
2203,-8,-22,998,-15,1,-6
2204,-6,-22,997,-15,1,-6
2205,-6,-23,998,-13,1,-6
2206,-5,-22,998,-14,-2,-6
2207,-7,-21,999,-16,0,-6
2208,-6,-22,997,-15,2,-5
2209,-8,-22,998,-15,0,-6
2210,-6,-21,998,-16,1,-7
2211,-7,-21,998,-14,0,-7
2212,-7,-22,999,-14,1,-6
2213,-8,-22,998,-13,1,-6
2214,-6,-22,999,-14,2,-5
2215,-7,-20,998,-14,0,-6
2216,-9,-21,998,-14,1,-6
2217,-5,-23,997,-15,1,-7
2218,-7,-22,998,-15,1,-6
2219,-7,-22,998,-14,0,-6
2220,-6,-21,999,-15,0,-5
2221,-6,-21,999,-14,1,-6
2222,-7,-21,999,-14,1,-7
2223,-6,-22,1000,-14,0,-7
2224,-6,-21,1000,-15,0,-7
2225,-7,-21,999,-14,1,-6
2226,-7,-21,1000,-14,1,-6
2227,-8,-21,999,-13,1,-5
2228,-5,-21,999,-14,1,-6
2229,-7,-21,998,-14,0,-6
2230,-6,-23,998,-15,1,-6
2231,-7,-22,1000,-15,0,-6
2232,-7,-21,998,-14,0,-6
2233,-6,-20,1000,-16,0,-6
2234,-9,-22,998,-16,0,-5
2235,-7,-22,999,-15,0,-6
2236,-6,-20,999,-14,0,-6
2237,-7,-20,999,-14,1,-6
2238,-7,-22,998,-15,1,-6
2239,-6,-21,997,-13,0,-7
2240,-8,-21,1000,-15,1,-6
2241,-5,-21,998,-13,0,-6
2242,-6,-21,999,-14,0,-5
2243,-8,-22,997,-15,1,-5
2244,-5,-22,998,-16,1,-6
2245,-7,-22,998,-16,1,-7
2246,-8,-21,999,-15,2,-7
2247,-5,-22,999,-15,0,-6
2248,-6,-23,997,-16,1,-7
2249,-6,-21,998,-15,1,-7
2250,-7,-20,999,-15,1,-5
2251,-7,-22,998,-16,-1,-7
2252,-6,-21,997,-15,-1,-6
2253,-6,-22,999,-15,-1,-6
2254,-7,-22,1000,-15,0,-7
2255,-9,-21,999,-15,-1,-7
2256,-8,-21,999,-16,0,-6
2257,-8,-21,998,-14,2,-6
2258,-7,-22,998,-15,2,-6
2259,-7,-22,999,-15,0,-7
2260,-6,-22,1000,-14,0,-6
2261,-6,-21,999,-15,0,-5
2262,-6,-20,998,-15,1,-7
2263,-7,-21,998,-14,0,-6
2264,-7,-21,1000,-14,1,-6
2265,-6,-21,1000,-15,1,-4
2266,-7,-21,999,-15,1,-5
2267,-6,-20,999,-14,1,-6
2268,-6,-21,999,-15,-1,-6
2269,-6,-22,999,-14,1,-6
2270,-5,-21,999,-13,1,-5
2271,-7,-20,1000,-15,-1,-6
2272,-6,-21,1000,-14,1,-7
2273,-8,-21,999,-14,1,-5
2274,-6,-21,999,-15,1,-5
2275,-5,-21,1000,-15,0,-6
2276,-7,-20,1000,-14,1,-7
2277,-8,-21,999,-15,1,-5
2278,-8,-21,999,-14,0,-7
2279,-7,-21,998,-13,1,-6
2280,-7,-22,999,-15,1,-6
2281,-6,-21,1000,-15,1,-6
2282,-6,-21,1000,-15,1,-6
2283,-7,-21,999,-16,1,-6
2284,-7,-21,998,-15,0,-7
2285,-6,-21,998,-14,0,-6
2286,-7,-24,997,-16,1,-6
2287,-7,-23,996,-16,1,-6
2288,-7,-23,995,-14,0,-7
2289,-7,-22,997,-14,-1,-6
2290,-8,-23,996,-14,1,-6
2291,-9,-22,996,-13,2,-5
2292,-8,-22,996,-14,0,-7
2293,-7,-21,996,-16,0,-6
2294,-7,-21,995,-16,1,-6
2295,-9,-23,998,-14,2,-7
2296,-8,-23,1000,-15,1,-6
2297,-7,-22,1002,-13,-1,-7
2298,-5,-21,1002,-14,1,-7
2299,-6,-19,1000,-13,0,-6
2300,-7,-18,998,-13,1,-6
2301,-8,-19,999,-16,2,-7
2302,-7,-21,1002,-16,0,-6
2303,-8,-23,1002,-14,0,-6
2304,-3,-23,1001,-15,1,-5
2305,-2,-22,1000,-16,1,-6
2306,-4,-20,1000,-14,0,-6
2307,-4,-18,1000,-14,1,-5
2308,-9,-20,1000,-14,1,-6
2309,-9,-21,1000,-14,1,-7
2310,-5,-21,1000,-15,0,-6
2311,-5,-22,999,-14,0,-7
2312,-4,-22,999,-14,1,-6
2313,-6,-21,1000,-13,2,-7
2314,-5,-20,997,-15,2,-6
2315,-7,-19,999,-14,2,-5
2316,-7,-20,999,-15,0,-6
2317,-8,-23,998,-15,0,-6
2318,-7,-23,998,-15,-1,-6
2319,-7,-24,997,-15,1,-5
2320,-7,-22,997,-14,1,-6
2321,-8,-22,997,-15,1,-7
2322,-8,-21,997,-17,0,-6
2323,-8,-20,996,-16,0,-6
2324,-7,-20,997,-15,1,-5
2325,-8,-20,999,-15,1,-5
2326,-8,-21,999,-14,0,-6
2327,-8,-22,997,-15,0,-6
2328,-8,-21,999,-13,2,-6
2329,-8,-20,999,-15,0,-6
2330,-8,-21,998,-16,1,-6
2331,-6,-21,999,-15,0,-6
2332,-5,-23,998,-18,0,-6
2333,-5,-22,1000,-15,0,-6
2334,-5,-21,998,-14,1,-5
2335,-6,-22,998,-16,0,-6
2336,-6,-22,1000,-13,0,-6
2337,-7,-20,1000,-14,1,-6
2338,-3,-21,998,-15,1,-6
2339,-5,-21,1000,-16,0,-6
2340,-5,-21,998,-14,0,-6
2341,-6,-22,998,-14,1,-5
2342,-8,-23,998,-15,0,-7
2343,-8,-20,997,-15,1,-5
2344,-6,-22,997,-15,0,-6
2345,-6,-23,996,-14,-1,-7
2346,-6,-23,998,-15,0,-6
2347,-6,-22,997,-15,0,-6
2348,-6,-23,998,-14,0,-6
2349,-7,-22,998,-13,1,-6
2350,-7,-21,999,-14,0,-7
2351,-6,-21,997,-13,1,-6
2352,-7,-20,998,-15,1,-7
2353,-7,-23,999,-14,1,-6
2354,-9,-22,1000,-15,2,-6
2355,-8,-20,999,-15,1,-5
2356,-6,-22,998,-14,2,-6
2357,-6,-22,998,-13,0,-7
2358,-7,-19,1000,-15,0,-6
2359,-7,-20,1001,-13,0,-7
2360,-7,-21,999,-16,-1,-6
2361,-6,-20,1000,-15,2,-5
2362,-7,-21,998,-14,2,-5
2363,-9,-20,1000,-14,2,-6
2364,-7,-19,999,-14,0,-7
2365,-7,-21,1000,-13,0,-5
2366,-5,-23,1001,-12,-3,-7
2367,-7,-20,1000,-12,1,-5
2368,-4,-20,998,-16,1,-6
2369,-7,-21,999,-13,0,-6
2370,-8,-22,998,-14,0,-7
2371,-7,-22,997,-17,1,-6
2372,-6,-21,999,-13,1,-6
2373,-7,-20,998,-14,0,-7
2374,-6,-20,997,-14,0,-6
2375,-8,-20,999,-14,0,-6
2376,-7,-22,997,-16,0,-5
2377,-8,-23,999,-14,1,-6
2378,-6,-23,997,-15,1,-7
2379,-7,-21,998,-16,0,-6
2380,-5,-22,998,-14,-1,-5
2381,-8,-21,999,-14,0,-6
2382,-8,-22,999,-14,1,-7
2383,-6,-23,999,-15,0,-6
2384,-7,-23,996,-15,0,-7
2385,-7,-22,998,-14,1,-7
2386,-7,-22,999,-15,1,-6
2387,-6,-22,998,-15,0,-7
2388,-6,-23,1000,-14,1,-5
2389,-7,-22,999,-15,1,-5
2390,-6,-21,1000,-14,-1,-6
2391,-6,-21,997,-13,0,-7
2392,-8,-21,999,-14,0,-7
2393,-7,-22,998,-15,0,-6
2394,-7,-22,997,-15,1,-5
2395,-6,-22,997,-13,0,-5
2396,-6,-21,999,-13,0,-6
2397,-6,-23,998,-13,1,-6
2398,-6,-21,998,-14,1,-6
2399,-7,-21,1000,-16,-1,-7
2400,-7,-22,998,-15,1,-7
2401,-8,-22,998,-15,0,-6
2402,-6,-22,997,-13,1,-6
2403,-9,-21,998,-14,2,-7
2404,-6,-20,999,-15,1,-6
2405,-4,-21,999,-15,1,-6
2406,-7,-21,998,-14,-1,-7
2407,-8,-19,999,-14,1,-7
2408,-6,-20,1000,-14,1,-7
2409,-8,-20,1000,-15,0,-7
2410,-8,-23,999,-15,0,-6
2411,-8,-23,1000,-15,1,-7
2412,-6,-23,999,-15,0,-5
2413,-7,-23,999,-15,1,-5
2414,-7,-21,999,-14,1,-7
2415,-6,-20,998,-14,1,-6
2416,-6,-20,999,-15,2,-5
2417,-8,-20,999,-16,0,-5
2418,-7,-20,999,-15,1,-5
2419,-7,-22,1000,-15,1,-6
2420,-6,-21,998,-15,0,-7
2421,-5,-22,998,-14,0,-6
2422,-8,-20,998,-15,0,-5
2423,-7,-20,1000,-16,0,-6
2424,-6,-20,997,-15,0,-7
2425,-5,-21,998,-15,1,-6
2426,-8,-21,999,-15,1,-7
2427,-8,-24,998,-14,-1,-6
2428,-5,-21,997,-16,0,-4
2429,-7,-22,999,-15,-1,-6
2430,-7,-22,998,-15,0,-5
2431,-8,-22,998,-14,0,-5
2432,-8,-21,997,-16,1,-6
2433,-7,-22,997,-17,1,-6
2434,-6,-20,999,-16,-1,-6
2435,-6,-21,997,-14,-1,-7
2436,-7,-23,998,-14,0,-5
2437,-5,-22,999,-14,1,-6
2438,-4,-22,998,-14,0,-6
2439,-7,-21,998,-15,0,-6
2440,-7,-23,998,-14,1,-6
2441,-5,-21,999,-15,1,-7
2442,-7,-19,998,-17,-1,-6
2443,-6,-21,999,-14,1,-6
2444,-5,-22,998,-14,0,-6
2445,-6,-21,999,-13,0,-5
2446,-7,-20,998,-14,0,-7
2447,-8,-21,1000,-15,1,-7
2448,-5,-19,1000,-14,1,-6
2449,-8,-21,997,-14,0,-6
2450,-6,-19,999,-14,1,-6
2451,-8,-22,997,-14,0,-6
2452,-6,-22,1000,-14,1,-5
2453,-6,-22,998,-14,0,-5
2454,-7,-22,998,-14,0,-7
2455,-5,-21,998,-16,1,-7
2456,-7,-20,998,-15,0,-5
2457,-7,-21,999,-15,0,-6
2458,-6,-23,998,-16,0,-7
2459,-7,-22,999,-15,1,-6
2460,-6,-21,998,-14,0,-6
2461,-8,-20,999,-14,0,-7
2462,-7,-20,998,-14,0,-6
2463,-7,-21,999,-14,1,-6
2464,-8,-20,999,-15,1,-6
2465,-7,-21,998,-15,0,-6
2466,-8,-23,999,-16,1,-6
2467,-6,-21,999,-14,1,-7
2468,-6,-21,998,-14,1,-6
2469,-6,-20,999,-16,0,-7
2470,-9,-22,1000,-15,0,-7
2471,-6,-21,998,-14,0,-6
2472,-8,-22,998,-14,1,-6
2473,-6,-20,999,-13,1,-7
2474,-6,-21,999,-16,2,-5
2475,-6,-22,999,-15,0,-6
2476,-5,-22,999,-16,2,-6
2477,-7,-22,1000,-15,1,-7
2478,-6,-21,998,-13,0,-7
2479,-7,-20,998,-13,1,-6
2480,-6,-21,997,-14,0,-7
2481,-8,-20,998,-15,1,-6
2482,-5,-19,997,-15,-1,-5
2483,-5,-21,1000,-15,2,-6
2484,-7,-22,997,-14,1,-6
2485,-9,-24,998,-15,0,-6
2486,-6,-24,999,-15,1,-6
2487,-9,-23,999,-15,1,-6
2488,-7,-21,1000,-15,1,-5
2489,-7,-22,999,-17,1,-6
2490,-6,-21,999,-16,0,-6
2491,-8,-22,999,-14,1,-5
2492,-6,-21,1000,-14,0,-5
2493,-6,-21,1000,-15,1,-5
2494,-6,-19,1000,-15,1,-7
2495,-8,-20,999,-14,1,-7
2496,-7,-20,1001,-15,1,-6
2497,-8,-20,999,-15,1,-6
2498,-7,-21,1000,-14,1,-7
2499,-7,-22,1000,-15,1,-6
2500,-5,-22,1000,-14,0,-6
2501,-6,-22,1001,-15,1,-6
2502,-9,-22,998,-16,0,-6
2503,-7,-22,998,-15,0,-6
2504,-5,-22,998,-15,1,-6
2505,-7,-22,999,-15,0,-6
2506,-7,-22,998,-13,1,-6
2507,-7,-23,999,-14,1,-5
2508,-8,-21,998,-14,1,-6
2509,-7,-21,997,-17,0,-6
2510,-7,-23,999,-17,1,-6
2511,-6,-22,999,-15,1,-6
2512,-7,-20,999,-15,1,-5
2513,-8,-21,998,-14,1,-6
2514,-6,-22,998,-15,0,-8
2515,-7,-23,999,-14,1,-7
2516,-5,-21,997,-14,0,-6
2517,-5,-20,997,-15,0,-7
2518,-6,-21,996,-14,1,-7
2519,-8,-22,997,-15,0,-7
2520,-6,-23,997,-15,0,-7
2521,-9,-22,998,-14,0,-7
2522,-6,-22,998,-15,0,-7
2523,-7,-22,998,-15,-1,-6
2524,-6,-21,999,-15,0,-6
2525,-7,-22,998,-13,0,-6
2526,-5,-22,999,-13,1,-6
2527,-6,-23,999,-13,1,-7
2528,-6,-22,998,-14,0,-6
2529,-7,-21,999,-15,-2,-6
2530,-8,-22,999,-14,1,-5
2531,-5,-22,997,-14,1,-7
2532,-5,-21,998,-15,2,-6
2533,-6,-19,997,-16,0,-6
2534,-8,-21,998,-15,0,-7
2535,-7,-24,1000,-14,1,-6
2536,-6,-21,998,-14,1,-6
2537,-7,-20,1001,-13,0,-6
2538,-7,-20,1001,-14,2,-6
2539,-6,-20,999,-15,1,-5
2540,-6,-21,999,-14,1,-7
2541,-5,-20,998,-15,1,-6
2542,-6,-21,998,-15,1,-6
2543,-6,-20,999,-14,1,-6
2544,-7,-20,998,-16,0,-6
2545,-6,-21,998,-15,1,-6
2546,-5,-21,998,-15,2,-5
2547,-7,-21,998,-15,1,-5
2548,-6,-23,998,-14,1,-6
2549,-7,-23,998,-15,1,-6
2550,-7,-19,999,-14,2,-5
2551,-5,-21,999,-14,1,-6
2552,-6,-21,999,-15,0,-6
2553,-7,-23,998,-13,1,-5
2554,-6,-20,997,-16,1,-6
2555,-7,-20,997,-14,-1,-7
2556,-7,-22,998,-14,1,-6
2557,-6,-22,997,-15,-1,-6
2558,-7,-21,998,-16,0,-6
2559,-8,-21,998,-16,1,-6
2560,-7,-21,999,-15,1,-6
2561,-6,-20,999,-13,0,-7
2562,-7,-22,997,-13,-1,-7
2563,-8,-22,998,-15,0,-6
2564,-5,-21,1000,-14,0,-6
2565,-8,-21,999,-14,0,-6
2566,-7,-21,1000,-14,0,-7
2567,-5,-22,999,-14,1,-5
2568,-7,-21,999,-14,2,-6
2569,-7,-20,999,-14,1,-7
2570,-7,-19,1000,-14,1,-6
2571,-8,-21,999,-14,0,-6
2572,-7,-20,1000,-14,1,-6
2573,-5,-21,999,-15,1,-5
2574,-6,-22,1000,-15,0,-5
2575,-8,-21,999,-15,0,-7
2576,-6,-21,999,-15,-1,-6
2577,-7,-22,1000,-15,0,-7
2578,-5,-21,999,-16,1,-6
2579,-8,-22,1001,-13,0,-6
2580,-5,-21,999,-14,1,-7
2581,-5,-22,1000,-14,1,-7
2582,-7,-22,998,-14,1,-5
2583,-7,-20,997,-13,1,-5
2584,-7,-20,999,-15,0,-5
2585,-7,-20,998,-15,0,-6
2586,-9,-21,998,-15,0,-6
2587,-7,-21,1000,-15,0,-6
2588,-5,-21,999,-14,1,-6
2589,-7,-22,999,-14,1,-6
2590,-6,-21,998,-15,0,-6
2591,-7,-22,1000,-14,0,-6
2592,-7,-21,998,-15,0,-7
2593,-7,-21,1001,-14,0,-6
2594,-6,-20,999,-16,1,-6
2595,-9,-21,998,-15,2,-5
2596,-6,-21,1000,-14,0,-7
2597,-6,-22,998,-14,0,-7
2598,-6,-20,1000,-16,1,-7
2599,-7,-21,1000,-15,1,-6
2600,-8,-20,998,-14,1,-6
2601,-8,-21,998,-14,-1,-7
2602,-8,-19,998,-14,0,-5
2603,-9,-21,999,-13,0,-6
2604,-6,-22,999,-15,1,-6
2605,-6,-21,998,-14,1,-7
2606,-5,-22,997,-14,0,-6
2607,-4,-21,999,-15,1,-7
2608,-6,-21,997,-15,1,-7
2609,-8,-21,998,-14,0,-6
2610,-7,-22,998,-15,1,-5
2611,-7,-21,999,-13,1,-7
2612,-7,-21,997,-14,0,-7
2613,-6,-21,998,-13,-1,-6
2614,-8,-21,998,-15,1,-6
2615,-8,-21,1000,-15,-1,-7
2616,-8,-20,997,-14,1,-5
2617,-6,-22,999,-15,1,-5
2618,-6,-21,998,-14,0,-6
2619,-5,-22,1000,-14,0,-6
2620,-6,-23,998,-13,0,-6
2621,-5,-22,998,-14,1,-6
2622,-6,-21,999,-15,1,-6
2623,-6,-21,999,-16,1,-6
2624,-9,-22,1001,-13,0,-7
2625,-8,-23,999,-15,3,-7
2626,-7,-22,997,-15,1,-6
2627,-8,-22,999,-14,1,-6
2628,-8,-22,998,-15,1,-6
2629,-8,-21,998,-15,0,-6
2630,-6,-22,997,-15,1,-6
2631,-6,-21,999,-14,-1,-6
2632,-8,-20,998,-16,0,-6
2633,-6,-22,997,-15,1,-7
2634,-7,-22,999,-14,1,-7
2635,-8,-22,999,-14,1,-6
2636,-5,-20,999,-14,0,-6
2637,-6,-21,998,-15,0,-6
2638,-7,-20,998,-15,1,-6
2639,-4,-21,1000,-14,0,-6
2640,-5,-21,999,-14,1,-6
2641,-7,-20,998,-16,1,-6
2642,-6,-20,999,-14,2,-6
2643,-7,-19,998,-15,1,-6
2644,-5,-21,999,-15,1,-6
2645,-6,-23,998,-14,0,-6
2646,-6,-21,999,-13,0,-6
2647,-6,-23,998,-14,0,-7
2648,-6,-20,999,-15,1,-6
2649,-8,-20,999,-14,1,-6
2650,-6,-20,998,-14,-1,-6
2651,-7,-19,999,-14,0,-7
2652,-7,-19,1000,-15,1,-6
2653,-5,-22,998,-15,1,-5
2654,-6,-21,998,-13,0,-5
2655,-7,-21,1000,-14,0,-5
2656,-6,-21,999,-16,1,-5
2657,-7,-21,998,-14,1,-7
2658,-6,-23,998,-14,1,-7
2659,-7,-22,997,-15,1,-6
2660,-6,-21,999,-17,2,-6
2661,-6,-21,998,-15,1,-6
2662,-7,-23,999,-16,0,-5
2663,-8,-21,998,-15,1,-6
2664,-6,-22,998,-15,2,-6
2665,-8,-22,999,-15,1,-7
2666,-9,-23,998,-15,0,-5
2667,-8,-22,996,-14,0,-7
2668,-8,-21,997,-14,1,-6
2669,-7,-22,998,-14,2,-6
2670,-10,-22,999,-14,2,-6
2671,-8,-23,998,-14,0,-6
2672,-4,-23,998,-16,1,-6
2673,-6,-21,999,-16,1,-6
2674,-8,-21,998,-16,0,-7
2675,-7,-20,998,-14,1,-6
2676,-9,-20,998,-14,0,-6
2677,-6,-20,998,-15,1,-6
2678,-6,-21,999,-14,2,-5
2679,-6,-19,1000,-14,0,-6
2680,-7,-20,999,-15,1,-6
2681,-6,-20,998,-15,1,-5
2682,-8,-19,1000,-14,-1,-7
2683,-6,-21,999,-15,1,-6
2684,-5,-19,999,-15,1,-6
2685,-6,-22,999,-15,1,-7
2686,-7,-20,998,-15,1,-7
2687,-7,-20,997,-15,0,-6
2688,-5,-20,998,-14,1,-6
2689,-6,-21,998,-14,1,-7
2690,-5,-21,999,-13,0,-7
2691,-6,-22,999,-16,1,-6
2692,-6,-22,999,-17,1,-5
2693,-6,-21,997,-15,0,-5
2694,-7,-20,998,-14,0,-7
2695,-7,-22,999,-15,0,-6
2696,-5,-23,998,-15,0,-6
2697,-7,-22,998,-15,2,-6
2698,-8,-22,999,-14,1,-6
2699,-7,-21,1000,-14,0,-5
2700,-7,-21,999,-14,0,-6
2701,-6,-20,999,-15,0,-7
2702,-5,-21,998,-15,1,-8
2703,-4,-21,998,-15,3,-6
2704,-5,-21,998,-9,4,-7
2705,-7,-20,998,-10,-2,-6
2706,-6,-22,998,-14,0,-6
2707,-8,-22,999,-14,1,-7
2708,-6,-23,999,-14,1,-6
2709,-7,-23,998,-14,1,-7
2710,-6,-21,998,-16,1,-5
2711,-7,-22,997,-15,1,-6
2712,-6,-20,999,-16,0,-5
2713,-8,-21,1000,-14,1,-7
2714,-7,-20,999,-13,1,-6
2715,-8,-21,999,-15,2,-6
2716,-7,-20,999,-14,1,-6
2717,-7,-19,998,-16,1,-6
2718,-5,-21,998,-16,0,-6
2719,-6,-21,999,-13,1,-7
2720,-6,-21,1000,-13,1,-6
2721,-5,-21,1000,-15,0,-7
2722,-7,-21,999,-14,0,-6
2723,-5,-22,1000,-15,0,-6
2724,-5,-21,999,-13,1,-6
2725,-7,-20,998,-15,0,-6
2726,-8,-21,998,-15,2,-7
2727,-6,-21,999,-16,1,-6
2728,-7,-20,1000,-14,0,-6
2729,-7,-23,998,-15,1,-6
2730,-7,-21,999,-13,1,-6
2731,-6,-21,999,-15,1,-6
2732,-5,-21,998,-14,0,-7
2733,-5,-22,998,-14,0,-5
2734,-7,-20,999,-14,1,-6
2735,-6,-22,998,-15,0,-7
2736,-6,-23,999,-15,1,-6
2737,-6,-22,999,-14,-1,-6
2738,-5,-22,998,-17,0,-7
2739,-7,-21,1000,-14,1,-6
2740,-6,-21,999,-14,1,-5
2741,-8,-22,998,-17,0,-5
2742,-10,-20,1000,-16,1,-6
2743,-7,-21,997,-15,2,-7
2744,-6,-21,998,-14,1,-7
2745,-6,-21,998,-14,1,-6
2746,-6,-20,998,-15,1,-6
2747,-8,-21,998,-14,1,-6
2748,-6,-21,999,-15,1,-6
2749,-7,-22,997,-16,-1,-6
2750,-7,-22,999,-15,1,-6
2751,-7,-23,1000,-14,1,-7
2752,-8,-21,998,-14,1,-7
2753,-7,-21,1000,-14,1,-6
2754,-7,-21,1000,-15,2,-6
2755,-7,-22,1000,-13,-1,-7
2756,-7,-21,998,-14,0,-7
2757,-7,-19,998,-14,0,-6
2758,-8,-21,999,-13,2,-6
2759,-8,-20,999,-14,1,-7
2760,-8,-20,998,-12,0,-7
2761,-4,-19,999,-15,0,-6
2762,-5,-22,999,-14,2,-7
2763,-6,-22,999,-14,0,-6
2764,-4,-23,999,-14,-1,-6
2765,-7,-22,999,-14,0,-7
2766,-7,-21,999,-15,2,-6
2767,-6,-22,999,-13,1,-6
2768,-7,-19,999,-14,0,-7
2769,-6,-22,998,-15,1,-6
2770,-7,-21,999,-15,1,-6
2771,-9,-22,998,-15,1,-6
2772,-7,-20,998,-15,-1,-6
2773,-7,-23,997,-13,0,-7
2774,-7,-21,998,-14,1,-7
2775,-7,-22,1000,-14,-1,-6
2776,-8,-20,997,-15,0,-7
2777,-6,-20,997,-14,1,-6
2778,-5,-20,999,-15,0,-6
2779,-7,-22,998,-14,1,-5
2780,-5,-21,999,-15,1,-5
2781,-8,-21,1000,-16,1,-5
2782,-5,-22,999,-14,0,-6
2783,-6,-20,998,-15,0,-6
2784,-7,-20,1000,-14,1,-6
2785,-7,-20,999,-14,1,-7
2786,-5,-20,997,-14,0,-5
2787,-6,-21,998,-15,0,-6
2788,-6,-22,997,-14,0,-6
2789,-8,-23,998,-14,1,-7
2790,-6,-23,999,-16,1,-6
2791,-6,-22,998,-15,-1,-6
2792,-6,-20,999,-16,-1,-7
2793,-9,-20,999,-15,0,-6
2794,-7,-21,998,-14,0,-6
2795,-8,-22,999,-16,1,-6
2796,-4,-24,999,-14,0,-8
2797,-5,-21,999,-14,0,-6
2798,-8,-22,998,-16,1,-6
2799,-7,-19,998,-14,0,-7
2800,-6,-21,999,-15,0,-6
2801,-6,-21,1001,-13,0,-6
2802,-8,-21,998,-15,1,-6
2803,-6,-22,999,-13,0,-7
2804,-7,-22,1000,-13,1,-7
2805,-5,-22,998,-16,0,-6
2806,-7,-22,999,-15,0,-7
2807,-8,-22,998,-15,1,-6
2808,-7,-23,998,-16,1,-7
2809,-6,-21,999,-16,1,-5
2810,-8,-22,998,-15,1,-5
2811,-7,-21,998,-16,0,-7
2812,-7,-21,1000,-15,1,-7
2813,-7,-20,999,-15,1,-6
2814,-8,-22,999,-15,0,-6
2815,-9,-23,1000,-14,0,-6
2816,-8,-22,998,-15,1,-6
2817,-5,-23,998,-14,2,-6
2818,-6,-21,999,-15,1,-6
2819,-7,-21,998,-15,1,-6
2820,-6,-22,998,-15,1,-5
2821,-7,-22,999,-15,2,-5
2822,-6,-20,999,-14,1,-6
2823,-9,-21,999,-16,1,-8
2824,-6,-22,1000,-14,1,-7
2825,-6,-22,999,-14,1,-5
2826,-7,-22,998,-14,1,-5
2827,-6,-22,999,-14,2,-6
2828,-5,-21,1000,-14,1,-6
2829,-8,-21,998,-15,1,-6
2830,-8,-21,998,-15,0,-7
2831,-8,-21,998,-15,0,-6
2832,-6,-22,998,-15,0,-6
2833,-5,-22,999,-15,1,-6
2834,-7,-20,998,-15,1,-6
2835,-6,-22,1001,-15,1,-7
2836,-8,-21,999,-15,1,-6
2837,-6,-21,999,-16,1,-5
2838,-7,-21,1000,-15,1,-5
2839,-8,-22,998,-14,1,-6
2840,-8,-20,999,-15,0,-6
2841,-7,-21,998,-15,1,-6
2842,-6,-21,1000,-14,1,-6
2843,-9,-22,1000,-15,2,-4
2844,-7,-21,999,-14,0,-6
2845,-8,-21,1000,-14,1,-6
2846,-7,-21,998,-14,1,-7
2847,-8,-21,997,-15,1,-6
2848,-7,-23,998,-14,0,-6
2849,-8,-22,997,-14,1,-6
2850,-5,-21,998,-15,0,-7
2851,-5,-23,998,-15,0,-6
2852,-5,-19,999,-15,0,-6
2853,-8,-22,999,-14,0,-7
2854,-6,-22,999,-14,1,-6
2855,-6,-24,998,-14,1,-6
2856,-5,-22,998,-15,1,-6
2857,-6,-21,1000,-15,0,-7
2858,-6,-22,1000,-15,0,-7
2859,-7,-20,999,-12,1,-7
2860,-6,-21,999,-14,0,-6
2861,-6,-22,1000,-15,0,-6
2862,-8,-24,999,-15,0,-7
2863,-6,-22,999,-14,0,-6
2864,-8,-21,998,-14,0,-6
2865,-8,-21,998,-14,1,-6
2866,-7,-20,999,-16,0,-5
2867,-6,-23,999,-15,1,-5
2868,-5,-21,998,-14,1,-5
2869,-5,-22,997,-14,1,-6
2870,-6,-22,997,-15,1,-5
2871,-7,-22,999,-14,1,-7
2872,-6,-24,999,-14,0,-6
2873,-5,-22,998,-15,1,-5
2874,-6,-22,998,-14,1,-6
2875,-6,-20,998,-15,1,-5
2876,-7,-19,999,-15,1,-6
2877,-6,-21,999,-15,0,-6
2878,-6,-22,998,-17,2,-5
2879,-6,-23,998,-15,2,-6
2880,-7,-22,999,-13,1,-6
2881,-6,-22,998,-13,0,-6
2882,-8,-19,1000,-14,2,-6
2883,-8,-22,999,-14,1,-7
2884,-9,-20,1000,-15,1,-6
2885,-8,-20,999,-15,1,-5
2886,-8,-22,998,-15,0,-7
2887,-6,-22,999,-15,0,-7
2888,-6,-21,998,-15,0,-6
2889,-6,-21,999,-13,0,-6
2890,-6,-20,999,-15,0,-6
2891,-8,-20,999,-14,1,-6
2892,-7,-20,997,-15,1,-6
2893,-8,-22,999,-13,0,-7
2894,-7,-20,998,-14,0,-7
2895,-6,-21,999,-14,2,-7
2896,-7,-20,998,-14,0,-7
2897,-6,-19,999,-13,0,-7
2898,-7,-20,999,-14,0,-7
2899,-8,-20,997,-15,1,-6
2900,-6,-22,998,-15,0,-7
2901,-7,-22,999,-14,0,-6
2902,-7,-21,1000,-16,0,-6
2903,-7,-20,1000,-14,-1,-7
2904,-7,-20,998,-16,-1,-7
2905,-8,-20,999,-15,0,-7
2906,-6,-20,999,-15,1,-6
2907,-8,-21,999,-15,-1,-6
2908,-7,-22,1000,-15,2,-5
2909,-8,-21,1000,-15,2,-5
2910,-6,-21,1000,-15,2,-4
2911,-7,-19,998,-15,1,-5
2912,-6,-21,999,-15,1,-6
2913,-7,-22,1000,-15,1,-6
2914,-6,-22,999,-16,0,-5
2915,-5,-21,999,-15,0,-6
2916,-6,-21,1000,-16,0,-6
2917,-7,-22,999,-15,0,-6
2918,-8,-20,999,-16,1,-7
2919,-8,-20,998,-14,0,-7
2920,-7,-20,998,-14,1,-6
2921,-5,-22,999,-16,2,-6
2922,-8,-22,999,-16,1,-6
2923,-6,-21,1000,-14,0,-7
2924,-4,-21,999,-14,0,-7
2925,-6,-21,997,-13,0,-6
2926,-7,-22,998,-15,0,-6
2927,-5,-21,999,-13,0,-7
2928,-6,-19,998,-14,1,-6
2929,-6,-20,999,-16,1,-7
2930,-6,-21,998,-16,0,-5
2931,-7,-21,998,-14,0,-5
2932,-5,-22,998,-16,2,-6
2933,-6,-21,999,-15,1,-6
2934,-7,-21,998,-15,0,-6
2935,-7,-21,997,-15,1,-6
2936,-6,-22,998,-17,1,-6
2937,-7,-20,999,-15,1,-7
2938,-6,-19,999,-17,0,-6
2939,-6,-22,998,-14,1,-6
2940,-7,-22,998,-14,1,-7
2941,-7,-22,999,-15,-1,-7
2942,-8,-21,1000,-13,0,-7
2943,-5,-20,999,-16,1,-6
2944,-4,-21,1000,-15,1,-6
2945,-6,-21,999,-14,1,-6
2946,-7,-21,1000,-14,0,-6
2947,-7,-22,998,-12,1,-7
2948,-5,-22,998,-14,-1,-7
2949,-5,-22,999,-15,0,-6
2950,-5,-21,999,-15,0,-7
2951,-6,-23,998,-15,0,-6
2952,-4,-22,998,-15,1,-6
2953,-6,-23,998,-16,1,-7
2954,-8,-22,997,-14,0,-6
2955,-6,-22,999,-15,0,-5
2956,-7,-21,999,-14,0,-5
2957,-9,-20,999,-15,0,-7
2958,-8,-21,997,-14,2,-6
2959,-6,-20,998,-14,1,-5
2960,-7,-20,998,-15,1,-5
2961,-6,-21,998,-14,0,-6
2962,-7,-21,998,-15,0,-6
2963,-8,-20,999,-15,1,-6
2964,-6,-20,999,-14,-1,-6
2965,-5,-21,999,-14,0,-5
2966,-7,-20,1001,-15,2,-6
2967,-7,-20,999,-16,2,-6
2968,-7,-21,1000,-15,2,-6
2969,-7,-23,999,-14,2,-6
2970,-5,-19,998,-13,1,-7
2971,-8,-20,998,-15,1,-7
2972,-6,-21,998,-15,0,-5
2973,-6,-21,998,-14,0,-7
2974,-6,-22,999,-14,1,-7
2975,-9,-21,999,-15,1,-7
2976,-8,-22,996,-14,0,-6
2977,-8,-21,998,-14,0,-7
2978,-7,-21,1000,-14,0,-7
2979,-7,-20,999,-16,0,-6
2980,-5,-22,997,-15,-1,-5
2981,-6,-22,999,-14,1,-6
2982,-8,-20,999,-14,1,-6
2983,-8,-20,999,-15,-1,-6
2984,-6,-21,999,-14,-1,-6
2985,-7,-22,1000,-16,0,-6
2986,-4,-20,1000,-14,1,-6
2987,-6,-20,999,-14,0,-6
2988,-7,-20,999,-15,1,-6
2989,-8,-19,999,-14,1,-5
2990,-8,-22,1000,-15,1,-6
2991,-7,-20,999,-15,1,-5
2992,-6,-20,1001,-12,1,-6
2993,-6,-20,998,-15,1,-6
2994,-5,-19,998,-15,2,-7
2995,-7,-22,1000,-14,2,-6
2996,-7,-21,999,-16,1,-5
2997,-8,-21,999,-15,1,-6
2998,-6,-23,999,-14,0,-6
2999,-7,-23,998,-15,2,-6
3000,-6,-22,999,-15,2,-7
3001,-6,-22,998,-15,1,-6
3002,-7,-22,998,-15,0,-6
3003,-8,-21,998,-14,-1,-5
3004,-7,-22,998,-15,-1,-5
3005,-8,-22,998,-15,0,-6
3006,-7,-20,999,-16,0,-7
3007,-5,-21,998,-14,1,-7
3008,-7,-20,998,-15,1,-6
3009,-7,-22,998,-14,1,-5
3010,-6,-22,998,-15,1,-6
3011,-7,-21,999,-16,1,-5
3012,-7,-22,1000,-15,1,-6
3013,-7,-22,1000,-15,0,-7
3014,-8,-21,999,-15,1,-6
3015,-9,-22,999,-15,1,-5
3016,-9,-21,998,-14,0,-6
3017,-9,-21,999,-14,0,-7
3018,-7,-21,999,-15,0,-6
3019,-5,-24,998,-14,0,-6
3020,-6,-23,998,-14,1,-6
3021,-6,-22,998,-15,2,-6
3022,-5,-22,999,-14,0,-6
3023,-6,-21,998,-14,0,-5
3024,-5,-22,998,-14,0,-6
3025,-7,-22,998,-14,2,-6
3026,-8,-22,998,-16,2,-7
3027,-6,-19,998,-14,1,-6
3028,-5,-21,998,-14,0,-7
3029,-6,-19,999,-15,1,-7
3030,-7,-21,1000,-15,0,-5
3031,-5,-19,998,-15,0,-6
3032,-5,-21,1001,-14,3,-7
3033,-6,-22,1000,-14,1,-6
3034,-7,-21,999,-16,1,-6
3035,-6,-20,1000,-14,1,-6
3036,-5,-21,999,-16,2,-6
3037,-4,-20,997,-16,1,-5
3038,-6,-20,999,-19,2,-4
3039,-6,-21,999,-18,6,-5
3040,-7,-20,1000,-17,1,-8
3041,-6,-19,1001,-14,2,-6
3042,-6,-21,999,-15,1,-7
3043,-7,-22,999,-15,0,-6
3044,-5,-21,998,-15,2,-6
3045,-7,-20,999,-14,0,-6
3046,-7,-21,998,-14,0,-6
3047,-5,-20,999,-13,1,-5
3048,-7,-21,997,-13,0,-7
3049,-6,-22,997,-14,0,-5
3050,-7,-21,998,-16,1,-5
3051,-7,-20,996,-15,1,-5
3052,-7,-22,999,-14,1,-6
3053,-6,-21,998,-14,1,-6
3054,-7,-21,998,-14,-1,-7
3055,-6,-20,999,-13,0,-7
3056,-7,-20,1000,-15,0,-5
3057,-9,-19,998,-15,1,-6
3058,-8,-20,999,-15,1,-6
3059,-9,-21,1001,-14,1,-7
3060,-8,-20,998,-14,1,-5
3061,-6,-20,998,-13,0,-7
3062,-5,-21,1000,-15,1,-7
3063,-4,-19,998,-13,1,-7
3064,-7,-21,999,-16,0,-7
3065,-8,-21,998,-14,0,-7
3066,-5,-21,998,-14,0,-7
3067,-6,-21,999,-14,1,-6
3068,-6,-20,998,-14,1,-6
3069,-7,-20,999,-15,0,-5
3070,-5,-24,999,-14,0,-6
3071,-5,-20,999,-14,1,-5
3072,-7,-20,998,-14,3,-5
3073,-8,-21,1000,-14,1,-5
3074,-5,-22,999,-14,2,-5
3075,-6,-21,999,-14,1,-6
3076,-5,-21,1000,-16,1,-5
3077,-7,-21,998,-17,1,-7
3078,-6,-21,998,-15,1,-6
3079,-5,-22,999,-14,1,-6
3080,-8,-20,998,-15,2,-6
3081,-7,-20,998,-14,0,-6
3082,-8,-21,999,-15,0,-7
3083,-8,-22,999,-14,1,-7
3084,-6,-21,1001,-14,0,-6
3085,-6,-20,998,-15,0,-6
3086,-7,-21,999,-15,0,-6
3087,-8,-21,1001,-13,0,-5
3088,-5,-18,1000,-14,1,-7
3089,-8,-20,999,-14,1,-7
3090,-5,-19,999,-13,1,-7
3091,-6,-20,1000,-13,0,-7
3092,-6,-21,998,-15,0,-6
3093,-7,-22,999,-15,0,-7
3094,-6,-22,1000,-14,0,-6
3095,-5,-21,999,-14,0,-7
3096,-4,-21,1001,-14,0,-6
3097,-5,-20,999,-15,0,-7
3098,-6,-21,998,-15,1,-6
3099,-9,-22,998,-16,1,-6
3100,-7,-20,996,-15,1,-5
3101,-8,-20,997,-15,0,-6
3102,-8,-22,999,-15,0,-6
3103,-8,-21,997,-15,1,-5
3104,-7,-21,999,-14,0,-6
3105,-7,-22,999,-14,0,-6
3106,-6,-20,997,-15,1,-6
3107,-7,-21,997,-15,0,-7
3108,-5,-21,999,-14,1,-6
3109,-5,-20,998,-16,0,-6
3110,-8,-21,999,-13,1,-6
3111,-8,-21,999,-16,2,-6
3112,-7,-20,999,-14,1,-6
3113,-7,-22,1000,-15,1,-7
3114,-9,-23,999,-16,0,-7
3115,-7,-22,998,-14,0,-6
3116,-5,-20,998,-15,0,-5
3117,-7,-21,999,-15,-1,-6
3118,-6,-21,998,-15,1,-7
3119,-6,-20,997,-15,0,-6
3120,-5,-21,996,-15,0,-5
3121,-7,-20,997,-13,1,-5
3122,-7,-21,998,-13,0,-6
3123,-8,-21,998,-15,1,-6
3124,-7,-20,999,-15,1,-7
3125,-6,-19,997,-15,-1,-7
3126,-8,-20,998,-16,-1,-5
3127,-6,-22,999,-15,-1,-7
3128,-6,-21,997,-15,1,-6
3129,-5,-22,998,-14,1,-6
3130,-6,-21,997,-13,1,-6
3131,-7,-23,999,-14,0,-5
3132,-6,-21,998,-15,0,-7
3133,-8,-21,997,-14,-1,-6
3134,-6,-22,999,-15,1,-8
3135,-8,-22,999,-15,1,-6
3136,-6,-21,997,-16,1,-6
3137,-5,-21,999,-15,2,-6
3138,-7,-21,998,-14,2,-6
3139,-7,-21,1000,-15,1,-6
3140,-7,-22,1000,-13,0,-6
3141,-8,-21,1000,-15,1,-6
3142,-6,-21,998,-15,1,-6
3143,-9,-20,1000,-14,1,-5
3144,-6,-21,1000,-15,0,-6
3145,-6,-21,998,-16,1,-6
3146,-5,-22,999,-15,0,-7
3147,-8,-20,998,-13,0,-6
3148,-8,-22,998,-14,0,-6
3149,-7,-23,998,-15,1,-6
3150,-6,-22,998,-15,1,-7
3151,-5,-21,998,-14,0,-6
3152,-7,-21,998,-14,1,-6
3153,-8,-21,998,-16,2,-5
3154,-6,-21,997,-15,0,-7
3155,-6,-21,998,-15,1,-6
3156,-6,-20,1000,-15,1,-8
3157,-8,-21,998,-15,2,-8
3158,-8,-20,999,-15,1,-6
3159,-6,-22,999,-15,0,-7
3160,-6,-23,998,-14,0,-7
3161,-6,-21,998,-15,0,-7
3162,-5,-19,999,-15,1,-7
3163,-8,-21,999,-15,1,-8
3164,-7,-22,999,-16,1,-7
3165,-7,-22,998,-14,1,-6
3166,-5,-22,998,-14,1,-5
3167,-7,-22,999,-14,1,-6
3168,-7,-22,999,-14,1,-7
3169,-6,-24,998,-14,1,-6
3170,-6,-19,999,-15,1,-6
3171,-8,-22,998,-15,1,-7
3172,-8,-23,999,-16,1,-7
3173,-6,-22,999,-16,2,-6
3174,-7,-21,999,-14,0,-6
3175,-7,-21,997,-13,1,-7
3176,-6,-21,998,-14,0,-7
3177,-7,-19,997,-14,1,-6
3178,-8,-20,999,-16,0,-6
3179,-9,-22,999,-15,1,-7
3180,-9,-19,998,-14,1,-5
3181,-7,-22,997,-14,1,-6
3182,-8,-20,998,-14,2,-6
3183,-7,-21,998,-14,2,-6
3184,-7,-20,999,-15,0,-7
3185,-6,-21,997,-13,1,-7
3186,-7,-21,998,-15,0,-7
3187,-7,-19,998,-15,0,-6
3188,-8,-20,996,-14,0,-6
3189,-6,-21,998,-14,1,-7
3190,-5,-22,1002,-15,1,-7
3191,-7,-21,999,-14,1,-6
3192,-6,-22,999,-15,0,-5
3193,-7,-21,999,-14,0,-6
3194,-8,-22,1000,-15,0,-7
3195,-6,-22,999,-15,1,-7
3196,-6,-20,998,-17,1,-6
3197,-8,-22,998,-15,0,-5
3198,-5,-21,999,-15,0,-6
3199,-9,-21,998,-15,1,-6
3200,-5,-23,1000,-14,2,-7
3201,-5,-22,999,-14,2,-6
3202,-8,-23,997,-13,2,-7
3203,-6,-22,997,-14,0,-6
3204,-6,-20,998,-15,1,-6
3205,-8,-21,999,-15,0,-7
3206,-5,-21,998,-16,0,-7
3207,-7,-21,999,-15,1,-6
3208,-8,-21,999,-16,0,-6
3209,-8,-21,998,-15,1,-6
3210,-8,-21,998,-15,0,-6
3211,-4,-21,999,-15,1,-6
3212,-6,-22,997,-14,1,-6
3213,-8,-20,998,-14,2,-5
3214,-6,-22,999,-14,1,-7
3215,-6,-20,998,-17,1,-5
3216,-6,-22,1000,-14,2,-5
3217,-7,-21,998,-15,1,-5
3218,-6,-21,998,-13,2,-6
3219,-5,-23,999,-14,1,-6
3220,-8,-20,999,-15,1,-6
3221,-9,-22,999,-15,0,-6
3222,-7,-21,998,-14,0,-6
3223,-7,-22,998,-14,1,-6
3224,-6,-21,998,-15,0,-5
3225,-8,-22,998,-15,1,-6
3226,-7,-20,999,-14,0,-6
3227,-7,-20,999,-14,0,-6
3228,-6,-23,998,-15,1,-6
3229,-7,-22,999,-15,1,-6
3230,-8,-21,998,-16,1,-6
3231,-7,-21,997,-15,0,-5
3232,-4,-21,998,-15,2,-5
3233,-6,-21,1000,-16,0,-7
3234,-7,-22,999,-15,1,-6
3235,-7,-21,998,-16,1,-4
3236,-6,-21,999,-14,0,-6
3237,-6,-22,997,-14,-1,-6
3238,-8,-23,999,-15,1,-6
3239,-7,-23,998,-15,1,-7
3240,-7,-21,998,-15,0,-7
3241,-6,-20,999,-14,1,-6
3242,-6,-22,1002,-14,1,-6
3243,-9,-20,998,-14,1,-6
3244,-7,-22,998,-14,0,-6
3245,-7,-21,998,-13,0,-6
3246,-6,-20,999,-15,2,-5
3247,-7,-21,999,-15,1,-7
3248,-6,-20,998,-16,2,-6
3249,-9,-23,999,-16,1,-7
3250,-9,-22,999,-15,1,-6
3251,-7,-22,998,-13,1,-7
3252,-7,-22,999,-15,1,-6
3253,-7,-22,998,-15,1,-5
3254,-7,-22,997,-15,1,-5
3255,-6,-21,999,-15,1,-7
3256,-6,-22,999,-13,1,-6
3257,-8,-21,998,-14,1,-6
3258,-7,-22,998,-16,0,-6
3259,-6,-21,998,-15,1,-7
3260,-6,-22,999,-15,0,-6
3261,-7,-22,998,-15,2,-5
3262,-8,-22,999,-13,0,-7
3263,-6,-21,998,-14,0,-6
3264,-5,-21,998,-14,0,-6
3265,-7,-20,998,-15,1,-6
3266,-7,-20,998,-14,1,-6
3267,-8,-23,999,-13,2,-7
3268,-6,-22,1001,-15,0,-6
3269,-8,-22,999,-14,0,-5
3270,-4,-22,999,-15,2,-6
3271,-7,-21,998,-15,1,-7
3272,-8,-23,999,-14,1,-7
3273,-5,-21,998,-14,0,-7
3274,-8,-20,999,-15,0,-7
3275,-7,-23,997,-15,0,-7
3276,-7,-21,999,-14,1,-6
3277,-5,-20,997,-14,0,-7
3278,-7,-19,998,-16,0,-6
3279,-7,-20,999,-15,1,-6
3280,-5,-22,999,-16,1,-6
3281,-6,-21,1000,-13,0,-7
3282,-5,-21,999,-14,1,-7
3283,-6,-21,998,-14,1,-6
3284,-6,-20,998,-14,0,-6
3285,-5,-21,999,-13,0,-7
3286,-5,-22,999,-15,1,-7
3287,-7,-22,999,-15,0,-7
3288,-5,-22,999,-14,0,-7
3289,-7,-22,998,-14,0,-6
3290,-5,-22,999,-15,1,-6
3291,-8,-21,999,-14,1,-6
3292,-5,-21,998,-16,1,-5
3293,-5,-22,999,-14,1,-6
3294,-6,-22,999,-14,0,-7
3295,-5,-21,999,-14,1,-7
3296,-7,-20,998,-15,1,-7
3297,-8,-21,999,-15,1,-6
3298,-8,-22,997,-14,1,-7
3299,-8,-21,999,-12,1,-7
3300,-6,-21,999,-15,0,-6
3301,-6,-21,999,-15,1,-7
3302,-6,-21,999,-16,0,-7
3303,-7,-22,998,-16,2,-6
3304,-9,-20,999,-15,0,-6
3305,-6,-21,1000,-14,1,-7
3306,-6,-22,997,-14,2,-6
3307,-8,-21,1000,-15,1,-7
3308,-7,-19,1000,-15,-1,-7
3309,-7,-22,999,-14,1,-5
3310,-7,-22,999,-15,0,-6
3311,-7,-21,999,-16,0,-5
3312,-8,-21,998,-15,2,-6
3313,-7,-22,999,-15,1,-6
3314,-7,-20,999,-15,0,-6
3315,-7,-21,999,-15,0,-7
3316,-6,-22,999,-14,1,-7
3317,-7,-21,999,-14,0,-6
3318,-6,-20,999,-15,0,-6
3319,-7,-21,999,-15,0,-6
3320,-8,-22,998,-16,1,-6
3321,-7,-20,999,-14,2,-6
3322,-5,-21,999,-13,1,-7
3323,-7,-21,999,-15,0,-7
3324,-6,-23,998,-15,0,-7
3325,-8,-22,999,-14,2,-6
3326,-8,-23,999,-14,1,-7
3327,-5,-23,999,-15,1,-6
3328,-8,-21,997,-14,0,-6
3329,-7,-22,998,-15,1,-5
3330,-8,-22,998,-15,1,-6
3331,-7,-22,998,-16,1,-6
3332,-7,-22,999,-15,1,-6
3333,-8,-21,998,-16,0,-6
3334,-8,-19,999,-14,0,-6
3335,-5,-18,999,-13,1,-6
3336,-5,-21,999,-14,0,-6
3337,-6,-21,999,-14,1,-6
3338,-7,-20,998,-14,1,-5
3339,-7,-20,999,-15,0,-6
3340,-7,-21,999,-14,0,-6
3341,-8,-21,998,-14,0,-6
3342,-8,-21,999,-14,1,-5
3343,-7,-21,998,-13,0,-6
3344,-6,-20,999,-14,1,-5
3345,-6,-22,999,-15,-1,-7
3346,-5,-20,996,-13,1,-6
3347,-9,-22,998,-15,1,-6
3348,-6,-20,1000,-13,0,-6
3349,-7,-20,999,-14,1,-6
3350,-7,-22,998,-15,1,-6
3351,-8,-20,1000,-15,1,-6
3352,-5,-21,999,-16,0,-6
3353,-9,-21,999,-13,0,-6
3354,-9,-21,999,-14,1,-5
3355,-7,-21,998,-16,1,-5
3356,-5,-22,997,-14,2,-5
3357,-6,-22,998,-15,1,-6
3358,-8,-21,998,-14,0,-6
3359,-7,-20,999,-15,0,-6
3360,-7,-21,998,-15,0,-7
3361,-7,-21,998,-14,1,-7
3362,-8,-22,1001,-14,0,-6
3363,-6,-19,999,-16,1,-6
3364,-7,-20,999,-16,0,-6
3365,-8,-20,999,-15,0,-5
3366,-8,-22,999,-15,1,-6
3367,-7,-21,998,-15,1,-5
3368,-5,-21,999,-15,1,-6
3369,-4,-20,999,-15,0,-7
3370,-6,-21,999,-13,1,-7
3371,-6,-21,999,-16,0,-5
3372,-6,-22,998,-15,0,-6
3373,-6,-21,997,-18,-2,-6
3374,-6,-21,999,-16,-1,-6
3375,-7,-21,1000,-19,0,-6
3376,-6,-20,999,-12,1,-6
3377,-7,-22,998,-16,1,-6
3378,-7,-21,999,-15,0,-6
3379,-7,-24,998,-14,0,-6
3380,-6,-21,998,-15,0,-6
3381,-6,-22,999,-16,1,-6
3382,-7,-20,998,-14,1,-6
3383,-7,-21,998,-15,0,-6
3384,-8,-21,999,-16,0,-5
3385,-6,-22,998,-15,1,-5
3386,-7,-22,998,-14,2,-6
3387,-7,-22,998,-15,1,-6
3388,-6,-21,998,-16,0,-7
3389,-7,-22,998,-15,1,-6
3390,-6,-21,999,-15,1,-6
3391,-6,-22,1000,-16,0,-7
3392,-5,-22,999,-15,-1,-6
3393,-5,-22,999,-14,1,-7
3394,-8,-21,998,-15,1,-5
3395,-8,-22,999,-14,0,-6
3396,-8,-22,999,-15,-1,-6
3397,-7,-22,997,-14,0,-7
3398,-6,-22,999,-16,-1,-5
3399,-7,-23,998,-14,1,-6
3400,-7,-23,999,-14,1,-6
3401,-7,-18,999,-14,0,-5
3402,-7,-22,1000,-15,0,-7
3403,-6,-23,999,-16,0,-7
3404,-6,-23,997,-15,1,-5
3405,-8,-21,998,-15,0,-6
3406,-8,-22,998,-14,1,-6
3407,-6,-22,999,-15,2,-6
3408,-8,-22,999,-15,0,-7
3409,-8,-23,998,-15,0,-6
3410,-7,-22,999,-14,-1,-6
3411,-7,-21,999,-16,0,-5
3412,-8,-22,998,-15,1,-7
3413,-6,-22,998,-15,-1,-6
3414,-7,-20,999,-15,1,-6
3415,-7,-22,999,-15,0,-5
3416,-8,-21,1000,-15,1,-5
3417,-7,-22,999,-16,0,-6
3418,-8,-20,999,-15,-1,-6
3419,-6,-21,998,-14,-1,-7
3420,-7,-20,1000,-15,0,-6
3421,-7,-21,999,-14,1,-7
3422,-7,-22,998,-15,1,-6
3423,-6,-21,997,-15,2,-5
3424,-7,-22,999,-14,1,-7
3425,-6,-20,999,-14,-1,-7
3426,-7,-21,998,-15,2,-5
3427,-6,-20,1001,-14,2,-5
3428,-5,-21,999,-16,1,-6
3429,-8,-22,999,-14,0,-7
3430,-5,-22,998,-14,1,-5
3431,-8,-22,999,-14,2,-5
3432,-7,-21,997,-16,0,-6
3433,-6,-21,999,-15,0,-7
3434,-6,-22,998,-14,0,-7
3435,-6,-22,998,-15,0,-6
3436,-6,-22,1000,-15,0,-6
3437,-7,-21,998,-16,1,-6
3438,-6,-21,997,-14,1,-6
3439,-6,-21,997,-14,0,-5
3440,-7,-21,1000,-13,1,-6
3441,-7,-20,998,-13,1,-5
3442,-7,-20,999,-13,2,-6
3443,-5,-21,1000,-15,2,-7
3444,-6,-22,998,-15,2,-7
3445,-7,-22,1000,-15,1,-5
3446,-6,-21,998,-14,1,-5
3447,-6,-20,999,-16,1,-5
3448,-6,-20,1000,-16,0,-6
3449,-7,-22,999,-15,1,-6
3450,-7,-21,999,-15,1,-6
3451,-8,-21,1000,-14,0,-7
3452,-7,-20,999,-16,0,-6
3453,-7,-21,997,-15,0,-7
3454,-7,-20,1000,-15,0,-7
3455,-6,-21,997,-15,0,-6
3456,-6,-22,1000,-14,1,-6
3457,-8,-20,998,-14,0,-7
3458,-8,-20,998,-15,1,-6
3459,-8,-20,998,-14,2,-7
3460,-5,-21,999,-16,1,-6
3461,-8,-21,999,-14,1,-7
3462,-7,-21,998,-15,0,-6
3463,-8,-22,999,-14,1,-6
3464,-8,-22,997,-14,2,-6
3465,-7,-22,999,-13,0,-6
3466,-8,-20,999,-15,1,-6
3467,-8,-20,998,-15,1,-6
3468,-8,-20,998,-13,0,-5
3469,-8,-22,999,-14,1,-7
3470,-7,-22,999,-16,1,-6
3471,-8,-22,998,-15,-1,-6
3472,-6,-22,998,-14,0,-7
3473,-6,-20,1000,-15,0,-6
3474,-8,-19,1001,-14,0,-6
3475,-9,-19,1000,-15,0,-7
3476,-6,-22,999,-16,1,-6
3477,-8,-22,997,-13,1,-7
3478,-8,-21,999,-13,1,-7
3479,-8,-22,998,-14,1,-6
3480,-6,-20,998,-15,0,-6
3481,-6,-22,997,-14,0,-6
3482,-6,-22,998,-14,1,-6
3483,-6,-21,998,-14,1,-7
3484,-5,-21,1000,-15,0,-7
3485,-7,-22,999,-14,1,-6
3486,-7,-19,998,-13,1,-6
3487,-8,-23,1000,-15,0,-6
3488,-8,-21,997,-15,0,-5
3489,-7,-21,999,-15,0,-5
3490,-6,-20,999,-15,0,-6
3491,-6,-18,999,-14,-1,-7
3492,-6,-20,998,-14,1,-6
3493,-7,-23,1001,-15,1,-5
3494,-7,-21,998,-15,1,-6
3495,-6,-21,998,-13,0,-5
3496,-7,-21,997,-14,1,-6
3497,-6,-21,999,-15,0,-6
3498,-6,-20,1001,-16,1,-7
3499,-8,-22,1000,-14,2,-6
3500,-6,-23,999,-13,0,-7
3501,-6,-21,997,-14,0,-5
3502,-5,-22,1000,-16,1,-6
3503,-7,-20,998,-14,1,-6
3504,-8,-22,998,-15,1,-6
3505,-7,-23,999,-13,1,-6
3506,-6,-23,1000,-14,1,-6
3507,-8,-22,997,-15,-1,-5
3508,-6,-21,999,-14,0,-7
3509,-7,-21,998,-14,1,-6
3510,-6,-21,998,-13,1,-7
3511,-6,-22,999,-15,1,-6
3512,-6,-22,999,-15,1,-6
3513,-6,-21,999,-14,1,-6
3514,-6,-22,998,-15,0,-6
3515,-7,-22,997,-16,0,-6
3516,-6,-22,998,-15,1,-7
3517,-6,-20,1000,-16,2,-7
3518,-7,-23,998,-14,1,-6
3519,-8,-22,999,-16,0,-6
3520,-8,-20,999,-14,-1,-7
3521,-8,-22,999,-14,1,-6
3522,-7,-21,999,-15,0,-6
3523,-7,-21,999,-13,1,-5
3524,-6,-22,998,-15,2,-5
3525,-8,-22,998,-15,2,-5
3526,-8,-20,998,-14,2,-7
3527,-8,-22,998,-15,1,-6
3528,-7,-24,1000,-15,0,-6
3529,-7,-21,998,-14,1,-6
3530,-6,-20,997,-14,1,-6
3531,-8,-21,999,-14,1,-6
3532,-6,-20,999,-17,2,-6
3533,-6,-20,999,-15,2,-6
3534,-6,-20,998,-15,2,-6
3535,-7,-21,999,-14,0,-6
3536,-8,-23,999,-15,0,-6
3537,-7,-21,1000,-15,1,-6
3538,-6,-22,999,-15,2,-7
3539,-8,-23,998,-16,2,-7
3540,-7,-21,999,-15,1,-7
3541,-5,-23,998,-15,2,-6
3542,-5,-22,998,-14,1,-5
3543,-8,-20,999,-15,1,-7
3544,-7,-19,998,-13,1,-6
3545,-6,-22,998,-14,-1,-5
3546,-5,-21,999,-14,2,-6
3547,-8,-23,999,-15,2,-6
3548,-7,-22,998,-14,2,-5
3549,-8,-21,999,-14,2,-4
3550,-7,-22,1000,-14,1,-5
3551,-6,-21,999,-15,0,-6
3552,-7,-20,1001,-16,1,-7
3553,-8,-21,998,-15,1,-6
3554,-7,-21,999,-15,0,-6
3555,-8,-21,998,-15,0,-6
3556,-8,-23,998,-14,-1,-8
3557,-7,-23,998,-14,1,-6
3558,-6,-21,999,-15,1,-5
3559,-5,-20,998,-14,1,-6
3560,-7,-19,998,-13,0,-6
3561,-6,-20,998,-15,0,-5
3562,-7,-22,999,-16,0,-6
3563,-7,-22,999,-14,0,-6
3564,-8,-22,998,-14,0,-6
3565,-7,-22,998,-15,0,-6
3566,-5,-20,1000,-12,2,-6
3567,-7,-20,1000,-15,1,-5
3568,-8,-20,1001,-14,1,-6
3569,-7,-21,999,-15,0,-6
3570,-7,-21,998,-15,1,-7
3571,-7,-21,998,-14,1,-6
3572,-8,-22,997,-13,2,-6
3573,-7,-22,998,-16,1,-6
3574,-6,-22,999,-14,1,-6
3575,-6,-22,1000,-15,1,-5
3576,-6,-21,1000,-14,0,-6
3577,-5,-21,999,-13,0,-6
3578,-6,-23,1000,-15,1,-7
3579,-7,-22,998,-14,0,-8
3580,-7,-21,999,-15,0,-6
3581,-6,-20,998,-15,1,-7
3582,-6,-22,998,-14,2,-7
3583,-7,-21,1000,-15,1,-6
3584,-7,-20,999,-14,0,-6
3585,-5,-20,998,-15,0,-6
3586,-7,-21,998,-14,-1,-7
3587,-7,-22,999,-15,0,-7
3588,-7,-22,997,-14,1,-6
3589,-7,-22,998,-14,0,-6
3590,-8,-21,999,-15,0,-7
3591,-7,-21,998,-15,0,-5
3592,-5,-22,998,-14,1,-7
3593,-5,-23,999,-13,1,-6
3594,-7,-23,1000,-15,2,-6
3595,-6,-22,999,-16,0,-7
3596,-5,-24,1000,-16,0,-6
3597,-7,-22,999,-15,1,-7
3598,-8,-20,998,-15,2,-7
3599,-9,-23,1000,-15,1,-6
3600,-6,-21,999,-15,1,-6
3601,-5,-21,999,-15,0,-6
3602,-7,-21,1000,-15,1,-7
3603,-7,-21,998,-16,0,-6
3604,-8,-22,1000,-15,2,-6
3605,-6,-23,998,-15,1,-7
3606,-6,-22,998,-14,0,-6
3607,-8,-22,1000,-13,1,-7
3608,-8,-20,1000,-14,1,-6
3609,-8,-20,999,-15,1,-5
3610,-8,-22,998,-15,1,-6
3611,-7,-21,996,-14,0,-6
3612,-7,-22,998,-15,0,-6
3613,-7,-20,1001,-14,1,-6
3614,-8,-23,998,-16,-1,-7
3615,-6,-22,999,-16,1,-5
3616,-8,-21,998,-14,1,-6
3617,-8,-21,998,-12,0,-5
3618,-8,-21,997,-15,1,-5
3619,-8,-20,999,-15,1,-5
3620,-7,-22,997,-15,1,-5
3621,-5,-21,999,-14,0,-6
3622,-7,-22,1000,-13,2,-6
3623,-7,-20,999,-14,0,-6
3624,-5,-21,999,-15,0,-5
3625,-6,-19,999,-15,1,-7
3626,-7,-20,997,-15,1,-6
3627,-6,-21,999,-15,0,-6
3628,-6,-22,999,-16,0,-5
3629,-6,-23,999,-14,0,-5
3630,-8,-22,999,-14,0,-6
3631,-7,-22,999,-13,0,-6
3632,-8,-23,999,-15,0,-7
3633,-6,-23,999,-15,1,-7
3634,-6,-22,998,-14,2,-7
3635,-7,-20,997,-15,0,-6
3636,-6,-22,998,-14,1,-6
3637,-6,-22,999,-14,0,-6
3638,-6,-22,999,-15,1,-6
3639,-8,-20,998,-14,2,-6
3640,-6,-20,999,-14,1,-6
3641,-7,-25,998,-14,1,-6
3642,-8,-23,997,-15,1,-6
3643,-7,-21,998,-14,1,-6
3644,-8,-20,997,-16,1,-5
3645,-7,-22,998,-15,0,-5
3646,-5,-23,998,-15,0,-6
3647,-5,-20,999,-15,1,-7
3648,-6,-21,999,-16,1,-5
3649,-7,-22,998,-15,0,-5
3650,-5,-22,999,-14,-1,-6
3651,-7,-21,999,-15,0,-7
3652,-7,-22,1000,-15,1,-5
3653,-8,-21,999,-14,0,-5
3654,-7,-22,999,-14,1,-6
3655,-6,-21,999,-15,1,-6
3656,-7,-22,1000,-16,0,-6
3657,-7,-21,999,-14,0,-6
3658,-6,-21,999,-14,-1,-6
3659,-8,-21,999,-14,0,-6
3660,-7,-22,997,-15,1,-5
3661,-7,-22,999,-15,2,-6
3662,-6,-22,999,-15,1,-7
3663,-5,-21,999,-14,0,-6
3664,-7,-20,998,-16,0,-6
3665,-8,-21,999,-16,0,-7
3666,-6,-21,999,-15,1,-7
3667,-8,-22,1000,-15,0,-6
3668,-8,-22,1000,-15,-1,-6
3669,-6,-22,999,-15,0,-7
3670,-7,-20,997,-15,0,-6
3671,-6,-22,998,-15,0,-6
3672,-6,-22,1000,-15,1,-7
3673,-8,-21,1000,-14,0,-6
3674,-5,-21,999,-16,1,-5
3675,-8,-22,998,-15,0,-6
3676,-6,-22,999,-14,0,-6
3677,-7,-20,998,-15,1,-6
3678,-6,-22,999,-14,0,-6
3679,-6,-20,999,-14,0,-6
3680,-6,-20,998,-15,1,-6
3681,-5,-20,999,-15,0,-6
3682,-6,-21,997,-15,-1,-6
3683,-6,-24,997,-14,1,-5
3684,-6,-23,998,-15,1,-6
3685,-7,-22,999,-16,0,-6
3686,-6,-20,998,-14,1,-6
3687,-7,-22,999,-15,0,-6
3688,-7,-20,1001,-15,0,-5
3689,-6,-22,997,-14,1,-5
3690,-7,-22,998,-16,2,-6
3691,-8,-22,999,-15,1,-6
3692,-5,-22,997,-16,2,-6
3693,-6,-23,997,-12,1,-6
3694,-7,-21,1000,-13,1,-6
3695,-7,-21,999,-15,1,-6
3696,-8,-21,998,-14,1,-7
3697,-9,-22,998,-15,0,-7
3698,-7,-22,999,-15,1,-6
3699,-7,-22,998,-15,0,-7
3700,-8,-23,999,-16,0,-6
3701,-6,-20,999,-14,0,-6
3702,-7,-21,1000,-14,0,-6
3703,-7,-21,1000,-14,1,-7
3704,-7,-21,998,-14,1,-6
3705,-8,-23,1000,-14,2,-6
3706,-6,-21,998,-16,1,-5
3707,-7,-20,999,-15,1,-6
3708,-6,-21,999,-13,0,-6
3709,-8,-22,1001,-13,0,-6
3710,-8,-22,999,-13,0,-7
3711,-6,-24,998,-17,0,-7
3712,-5,-23,998,-5,1,-8
3713,-6,-21,999,-20,0,-6
3714,-6,-20,999,-14,0,-6
3715,-7,-23,998,-17,0,-5
3716,-6,-23,1000,-14,0,-5
3717,-6,-22,1000,-15,0,-5
3718,-5,-23,999,-16,1,-6
3719,-6,-22,1000,-13,1,-7
3720,-7,-20,1000,-14,1,-6
3721,-7,-21,998,-15,0,-7
3722,-6,-22,998,-15,1,-6
3723,-7,-21,998,-15,2,-6
3724,-6,-22,999,-15,2,-5
3725,-5,-19,999,-13,1,-7
3726,-6,-19,999,-15,0,-6
3727,-6,-22,999,-14,1,-6
3728,-7,-22,998,-16,1,-6
3729,-7,-23,1000,-17,0,-6
3730,-8,-20,998,-16,1,-7
3731,-6,-22,999,-15,1,-7
3732,-6,-20,1000,-14,1,-6
3733,-6,-20,999,-14,1,-5
3734,-7,-21,999,-14,0,-6
3735,-5,-22,999,-16,0,-7
3736,-6,-20,997,-13,0,-7
3737,-7,-21,1000,-15,0,-6
3738,-7,-22,1000,-14,0,-6
3739,-8,-22,997,-15,1,-5
3740,-6,-20,998,-13,0,-6
3741,-6,-21,999,-14,-1,-6
3742,-7,-19,1000,-15,1,-6
3743,-6,-20,1000,-15,1,-6
3744,-6,-21,998,-16,1,-6
3745,-6,-22,999,-15,2,-6
3746,-7,-20,996,-14,1,-7
3747,-8,-23,997,-16,0,-6
3748,-4,-22,997,-14,0,-6
3749,-6,-21,999,-16,1,-6
3750,-5,-22,999,-16,1,-6
3751,-6,-22,999,-14,0,-5
3752,-6,-20,999,-15,0,-6
3753,-8,-21,998,-16,0,-6
3754,-9,-22,998,-15,0,-6
3755,-7,-22,999,-17,1,-6
3756,-6,-20,999,-14,1,-6
3757,-6,-20,998,-15,1,-6
3758,-6,-20,999,-15,1,-6
3759,-6,-21,998,-14,0,-8
3760,-7,-22,998,-16,1,-7
3761,-8,-23,998,-16,2,-6
3762,-6,-22,999,-14,1,-5
3763,-7,-21,997,-15,0,-7
3764,-8,-23,998,-15,1,-6
3765,-5,-19,997,-16,0,-6
3766,-6,-22,998,-13,1,-5
3767,-7,-21,998,-14,0,-6
3768,-8,-21,997,-15,1,-6
3769,-6,-21,999,-14,3,-6
3770,-7,-22,998,-15,1,-6
3771,-7,-23,998,-15,0,-7
3772,-8,-22,999,-14,0,-6
3773,-7,-22,999,-15,1,-6
3774,-6,-21,998,-14,1,-5
3775,-7,-20,999,-16,1,-6
3776,-6,-24,996,-14,1,-6
3777,-7,-21,999,-15,1,-5
3778,-8,-22,998,-14,-1,-5
3779,-8,-23,998,-13,1,-5
3780,-5,-22,998,-14,1,-6
3781,-5,-21,998,-14,0,-6
3782,-6,-21,999,-15,0,-5
3783,-5,-20,998,-15,2,-5
3784,-7,-21,999,-14,0,-7
3785,-6,-21,998,-13,0,-6
3786,-7,-22,999,-15,0,-5
3787,-8,-23,998,-15,2,-6
3788,-7,-20,998,-16,1,-6
3789,-6,-21,998,-15,2,-6
3790,-7,-19,999,-15,1,-6
3791,-6,-20,999,-15,1,-6
3792,-6,-22,998,-14,0,-7
3793,-8,-20,998,-15,0,-6
3794,-6,-21,997,-14,1,-6
3795,-8,-22,998,-15,1,-6
3796,-5,-21,999,-17,1,-5
3797,-5,-20,998,-14,1,-5
3798,-6,-22,997,-14,2,-5
3799,-5,-21,998,-16,1,-6
3800,-4,-23,999,-13,1,-5
3801,-5,-21,999,-15,1,-5
3802,-8,-22,997,-15,1,-6
3803,-7,-23,1000,-16,1,-6
3804,-5,-24,1000,-15,1,-6
3805,-6,-22,999,-15,0,-5
3806,-8,-22,998,-14,0,-6
3807,-8,-21,1000,-15,0,-5
3808,-6,-22,998,-14,1,-5
3809,-5,-23,1000,-16,0,-6
3810,-6,-22,1001,-14,0,-6
3811,-9,-22,999,-15,1,-7
3812,-9,-19,997,-15,1,-6
3813,-5,-21,999,-14,2,-5
3814,-4,-22,1001,-14,-1,-6
3815,-5,-21,998,-16,0,-6
3816,-8,-21,999,-15,1,-5
3817,-8,-23,997,-16,1,-6
3818,-8,-22,999,-16,0,-6
3819,-7,-22,998,-15,0,-5
3820,-6,-21,999,-14,1,-6
3821,-8,-22,1000,-16,2,-7
3822,-7,-22,998,-14,0,-7
3823,-7,-21,998,-14,0,-6
3824,-7,-23,998,-14,1,-6
3825,-6,-22,999,-15,2,-7
3826,-7,-22,998,-15,0,-7
3827,-6,-20,998,-12,0,-7
3828,-7,-23,1000,-16,0,-6
3829,-6,-20,999,-15,-1,-7
3830,-5,-21,999,-16,0,-6
3831,-8,-22,1000,-15,0,-6
3832,-7,-22,999,-14,1,-6
3833,-6,-22,999,-15,0,-6
3834,-6,-22,998,-13,0,-6
3835,-6,-23,999,-14,0,-6
3836,-6,-21,999,-14,0,-7
3837,-7,-18,998,-13,0,-7
3838,-7,-19,1000,-14,1,-7
3839,-8,-21,999,-14,1,-6
3840,-7,-22,999,-15,-1,-5
3841,-7,-22,999,-15,0,-7
3842,-8,-22,999,-14,0,-6
3843,-4,-19,997,-14,0,-6
3844,-4,-21,1000,-14,1,-7
3845,-6,-21,1000,-15,1,-7
3846,-5,-20,1000,-15,1,-6
3847,-6,-22,998,-15,1,-6
3848,-7,-22,998,-14,0,-5
3849,-9,-23,998,-14,1,-6
3850,-8,-24,999,-14,1,-6
3851,-8,-22,998,-15,0,-6
3852,-7,-22,997,-15,1,-7
3853,-7,-22,999,-14,0,-6
3854,-8,-19,999,-15,1,-5
3855,-9,-22,999,-15,1,-6
3856,-7,-22,1000,-15,1,-6
3857,-8,-22,999,-15,1,-6
3858,-6,-21,998,-14,-2,-7
3859,-7,-20,997,-13,0,-8
3860,-8,-21,998,-16,1,-6
3861,-7,-22,999,-16,1,-5
3862,-7,-20,999,-15,0,-6
3863,-6,-20,999,-14,1,-7
3864,-4,-22,999,-13,0,-6
3865,-8,-20,997,-15,-1,-6
3866,-7,-21,999,-15,-1,-6
3867,-6,-20,999,-13,0,-6
3868,-7,-20,998,-14,1,-6
3869,-7,-21,998,-14,2,-7
3870,-6,-20,999,-14,0,-7
3871,-5,-21,999,-15,0,-6
3872,-7,-21,999,-14,0,-6
3873,-7,-22,998,-15,-1,-7
3874,-7,-22,1000,-14,1,-6
3875,-6,-22,997,-15,1,-6
3876,-7,-21,998,-15,1,-6
3877,-5,-21,998,-15,2,-5
3878,-5,-21,997,-15,1,-5
3879,-7,-21,997,-15,1,-6
3880,-6,-21,998,-15,1,-6
3881,-8,-22,998,-15,1,-6
3882,-8,-21,999,-16,1,-6
3883,-7,-22,998,-15,0,-6
3884,-6,-21,999,-16,-1,-6
3885,-7,-20,998,-15,0,-6
3886,-6,-23,999,-15,0,-6
3887,-8,-21,999,-14,1,-6
3888,-7,-22,999,-13,1,-6
3889,-7,-21,999,-16,0,-6
3890,-6,-21,999,-15,1,-5
3891,-6,-21,999,-14,0,-6
3892,-6,-21,999,-15,-1,-5
3893,-8,-20,999,-16,1,-5
3894,-6,-19,998,-14,2,-6
3895,-6,-20,1000,-15,1,-6
3896,-6,-22,999,-15,0,-6
3897,-7,-23,1000,-14,0,-7
3898,-7,-21,1000,-14,0,-6
3899,-6,-20,1000,-14,0,-6
3900,-7,-19,1000,-15,0,-7
3901,-8,-19,999,-15,1,-6
3902,-7,-21,998,-14,1,-6
3903,-7,-20,998,-15,1,-6
3904,-6,-19,998,-16,2,-6
3905,-7,-22,997,-14,1,-7
3906,-7,-21,998,-14,2,-5
3907,-8,-21,994,-13,1,-6
3908,-6,-23,997,-14,0,-7
3909,-5,-21,999,-15,0,-8
3910,-6,-21,996,-14,0,-7
3911,-6,-22,997,-16,0,-7
3912,-8,-22,1000,-16,0,-6
3913,-5,-22,999,-15,0,-6
3914,-7,-22,997,-16,0,-5
3915,-8,-21,1001,-14,1,-7
3916,-6,-22,996,-15,1,-5
3917,-6,-20,1000,-16,0,-5
3918,-7,-22,999,-14,1,-6
3919,-7,-20,998,-16,0,-5
3920,-7,-23,999,-15,1,-5
3921,-8,-22,1000,-14,0,-6
3922,-7,-22,999,-16,2,-6
3923,-6,-21,999,-15,0,-5
3924,-7,-20,1002,-16,0,-6
3925,-7,-20,1000,-15,0,-5
3926,-7,-21,1000,-14,1,-6
3927,-8,-21,997,-16,1,-5
3928,-6,-23,999,-16,1,-6
3929,-6,-23,999,-14,1,-5
3930,-7,-20,998,-15,0,-7
3931,-9,-21,998,-13,-1,-7
3932,-10,-21,999,-14,1,-5
3933,-8,-21,998,-14,0,-5
3934,-8,-23,998,-16,1,-7
3935,-5,-20,998,-15,2,-7
3936,-7,-21,999,-14,0,-6
3937,-7,-21,998,-15,1,-5
3938,-7,-21,997,-13,2,-6
3939,-7,-22,997,-14,2,-6
3940,-7,-23,998,-15,1,-7
3941,-8,-22,998,-15,1,-7
3942,-6,-22,998,-16,1,-6
3943,-6,-22,999,-14,1,-5
3944,-7,-23,999,-14,0,-4
3945,-7,-22,999,-14,2,-4
3946,-7,-22,999,-14,1,-5
3947,-8,-20,999,-15,0,-5
3948,-6,-20,998,-14,0,-5
3949,-6,-20,998,-15,1,-6
3950,-6,-20,1000,-14,1,-7
3951,-6,-21,998,-15,0,-6
3952,-6,-20,998,-15,-1,-6
3953,-8,-20,1000,-14,0,-6
3954,-6,-19,999,-15,1,-5
3955,-6,-20,998,-14,2,-6
3956,-5,-19,1001,-14,1,-7
3957,-5,-20,999,-16,0,-5
3958,-7,-22,997,-14,2,-5
3959,-8,-23,1001,-15,1,-5
3960,-6,-23,999,-14,0,-5
3961,-5,-20,994,-14,0,-6
3962,-7,-21,1000,-16,1,-6
3963,-8,-20,1001,-14,1,-6
3964,-6,-20,994,-15,1,-6
3965,-8,-20,999,-15,1,-6
3966,-7,-22,1002,-16,0,-6
3967,-7,-21,996,-14,0,-6
3968,-6,-23,997,-15,1,-7
3969,-8,-22,1002,-14,1,-5
3970,-7,-21,999,-15,0,-6
3971,-9,-18,997,-15,0,-6
3972,-7,-21,999,-14,0,-7
3973,-8,-23,999,-15,1,-6
3974,-8,-21,998,-16,1,-6
3975,-7,-22,998,-15,2,-7
3976,-8,-22,999,-15,1,-7
3977,-6,-21,1001,-14,0,-6
3978,-5,-22,1001,-15,2,-6
3979,-6,-20,1000,-15,1,-7
3980,-7,-22,1000,-16,0,-6
3981,-6,-21,998,-14,1,-5
3982,-5,-22,999,-15,1,-6
3983,-7,-21,999,-15,1,-6
3984,-6,-20,999,-15,2,-6
3985,-5,-20,998,-15,0,-6
3986,-8,-22,998,-14,1,-6
3987,-8,-22,998,-16,2,-7
3988,-6,-21,997,-16,1,-5
3989,-6,-21,998,-16,2,-6
3990,-7,-21,998,-15,1,-5
3991,-6,-21,998,-15,2,-6
3992,-6,-22,997,-14,0,-6
3993,-5,-23,999,-15,-1,-6
3994,-5,-21,998,-16,1,-7
3995,-7,-20,998,-14,1,-6
3996,-7,-24,999,-14,1,-6
3997,-9,-23,999,-15,2,-6
3998,-6,-23,1000,-14,2,-6
3999,-6,-21,998,-14,1,-6
4000,-7,-20,998,-15,0,-6
4001,-6,-20,1000,-13,2,-6
4002,-4,-22,998,-14,1,-7
4003,-7,-20,999,-14,0,-6
4004,-9,-22,1000,-15,1,-6
4005,-7,-20,999,-15,0,-6
4006,-7,-21,999,-15,0,-6
4007,-7,-23,999,-16,0,-6
4008,-5,-21,998,-14,-1,-6
4009,-6,-20,999,-13,1,-5
4010,-6,-20,1000,-14,0,-5
4011,-6,-23,998,-14,1,-5
4012,-6,-21,1000,-15,0,-6
4013,-6,-22,998,-14,1,-7
4014,-8,-21,999,-13,1,-7
4015,-7,-19,999,-15,1,-6
4016,-7,-20,999,-14,1,-7
4017,-6,-22,999,-16,0,-6
4018,-7,-21,999,-16,0,-6
4019,-9,-23,1001,-13,1,-7
4020,-7,-21,1000,-15,2,-6
4021,-8,-22,998,-15,0,-5
4022,-8,-22,999,-13,2,-6
4023,-7,-21,997,-15,0,-7
4024,-8,-21,998,-15,1,-7
4025,-5,-20,999,-15,0,-6
4026,-7,-23,999,-14,0,-5
4027,-8,-22,998,-14,1,-6
4028,-7,-22,999,-15,1,-7
4029,-8,-24,999,-14,1,-6
4030,-7,-22,998,-14,1,-6
4031,-6,-20,1000,-16,1,-6
4032,-5,-21,999,-16,1,-6
4033,-7,-22,999,-14,1,-6
4034,-5,-21,999,-16,1,-7
4035,-7,-21,1000,-15,1,-6
4036,-6,-21,999,-14,1,-6
4037,-8,-22,999,-15,1,-5
4038,-6,-21,999,-14,1,-5
4039,-7,-21,1000,-15,1,-6
4040,-10,-20,1000,-14,0,-7
4041,-7,-22,999,-14,1,-5
4042,-7,-20,999,-15,1,-5
4043,-9,-23,1001,-14,1,-6
4044,-6,-22,998,-14,1,-6
4045,-7,-22,998,-14,2,-7
4046,-8,-22,1001,-14,1,-6
4047,-8,-20,998,-13,2,-6
4048,-7,-20,1000,-14,1,-7
4049,-6,-18,998,-15,-1,-6
4050,-6,-22,994,-15,0,-6
4051,-7,-23,1001,-14,1,-6
4052,-7,-24,999,-14,2,-6
4053,-7,-23,994,-14,5,-5
4054,-8,-22,1001,-17,4,-5
4055,-7,-22,1000,-15,0,-6
4056,-7,-21,996,-15,0,-6
4057,-8,-19,1001,-13,1,-7
4058,-8,-20,998,-14,1,-6
4059,-8,-21,996,-15,0,-6
4060,-6,-20,1001,-16,1,-5
4061,-7,-22,999,-13,1,-6
4062,-7,-20,996,-15,1,-7
4063,-6,-21,1000,-15,0,-8
4064,-7,-21,1001,-14,0,-6
4065,-6,-23,998,-14,2,-6
4066,-7,-22,1001,-14,1,-6
4067,-8,-20,998,-16,1,-6
4068,-7,-21,997,-15,0,-6
4069,-5,-21,998,-14,1,-5
4070,-6,-20,997,-13,1,-5
4071,-7,-21,997,-14,2,-5
4072,-7,-21,999,-12,0,-7
4073,-6,-21,998,-15,1,-7
4074,-7,-24,997,-15,2,-7
4075,-6,-22,1000,-14,1,-7
4076,-6,-22,998,-14,0,-6
4077,-6,-19,997,-15,0,-5
4078,-7,-21,999,-14,0,-6
4079,-8,-21,998,-14,-1,-7
4080,-8,-22,999,-14,-1,-6
4081,-6,-22,999,-14,0,-6
4082,-7,-23,999,-15,2,-5
4083,-6,-21,999,-14,0,-6
4084,-7,-21,999,-14,0,-7
4085,-7,-20,997,-15,1,-8
4086,-10,-18,999,-14,0,-7
4087,-7,-20,999,-14,1,-6
4088,-7,-19,1000,-15,0,-7
4089,-5,-22,1000,-14,1,-6
4090,-8,-22,998,-15,0,-5
4091,-8,-21,999,-16,0,-6
4092,-7,-20,998,-15,0,-5
4093,-6,-21,999,-15,0,-5
4094,-6,-22,998,-15,1,-6
4095,-6,-22,999,-15,0,-5
4096,-8,-21,999,-15,1,-6
4097,-8,-23,999,-14,1,-7
4098,-7,-23,999,-12,1,-6
4099,-5,-22,1000,-14,2,-6
4100,-6,-21,999,-14,0,-6
4101,-5,-20,998,-14,0,-7
4102,-6,-21,1001,-14,2,-6
4103,-7,-23,999,-15,1,-6
4104,-8,-21,998,-14,2,-6
4105,-4,-22,1000,-15,0,-7
4106,-5,-22,1001,-16,0,-6
4107,-6,-23,996,-16,0,-6
4108,-7,-22,997,-15,1,-6
4109,-8,-20,1003,-15,0,-6
4110,-8,-21,995,-16,0,-6
4111,-6,-23,994,-16,0,-6
4112,-8,-22,1002,-15,3,-6
4113,-7,-21,997,-15,0,-6
4114,-5,-21,994,-14,1,-7
4115,-6,-21,1005,-13,2,-7
4116,-5,-19,1001,-14,0,-6
4117,-6,-19,992,-15,2,-5
4118,-6,-22,1004,-14,0,-6
4119,-7,-23,1003,-15,0,-6
4120,-5,-22,993,-16,0,-7
4121,-7,-22,999,-15,0,-8
4122,-6,-22,1004,-15,0,-7
4123,-8,-19,996,-15,1,-6
4124,-5,-21,996,-15,1,-5
4125,-6,-21,1004,-14,2,-6
4126,-6,-20,999,-15,2,-6
4127,-6,-22,994,-15,1,-6
4128,-6,-24,1001,-15,0,-6
4129,-6,-22,1001,-15,0,-6
4130,-8,-21,995,-15,0,-6
4131,-6,-22,998,-14,0,-7
4132,-8,-20,1004,-15,1,-6
4133,-8,-21,995,-15,0,-6
4134,-7,-24,993,-15,0,-6
4135,-8,-22,1004,-15,0,-7
4136,-7,-22,999,-15,1,-6
4137,-6,-21,995,-15,1,-5
4138,-7,-22,1003,-14,0,-6
4139,-7,-21,1002,-14,1,-6
4140,-8,-20,993,-16,1,-6
4141,-6,-20,1001,-14,1,-6
4142,-7,-21,1003,-14,0,-8
4143,-6,-20,992,-14,0,-6
4144,-7,-24,998,-15,0,-6
4145,-7,-21,1005,-14,0,-6
4146,-5,-20,995,-16,0,-6
4147,-6,-20,996,-16,0,-6
4148,-5,-21,1004,-15,0,-6
4149,-7,-20,995,-15,2,-6
4150,-6,-22,995,-16,2,-6
4151,-7,-21,1006,-16,1,-6
4152,-7,-23,996,-14,1,-6
4153,-5,-22,995,-14,0,-6
4154,-8,-20,1005,-15,-1,-6
4155,-6,-20,995,-16,1,-5
4156,-6,-21,995,-14,1,-6
4157,-8,-22,1003,-15,1,-6
4158,-7,-22,995,-14,2,-6
4159,-7,-24,997,-14,2,-6
4160,-8,-21,1003,-15,1,-7
4161,-8,-22,995,-15,1,-6
4162,-6,-22,997,-14,1,-7
4163,-7,-18,1002,-14,1,-6
4164,-6,-19,996,-14,1,-6
4165,-6,-21,999,-14,1,-7
4166,-6,-20,1002,-17,1,-6
4167,-7,-22,998,-15,2,-7
4168,-5,-20,999,-13,1,-7
4169,-6,-21,1000,-14,0,-6
4170,-6,-20,996,-15,0,-5
4171,-6,-22,999,-17,0,-6
4172,-7,-21,999,-15,-1,-7
4173,-7,-21,996,-15,1,-6
4174,-7,-22,999,-15,0,-7
4175,-8,-23,999,-17,0,-7
4176,-6,-21,998,-14,0,-6
4177,-8,-22,998,-14,0,-6
4178,-5,-21,999,-14,1,-5
4179,-6,-23,996,-14,0,-7
4180,-5,-22,999,-15,0,-6
4181,-8,-21,997,-14,0,-6
4182,-8,-21,997,-13,1,-6
4183,-6,-22,998,-15,0,-6
4184,-6,-22,998,-15,1,-6
4185,-4,-20,999,-14,1,-6
4186,-6,-20,1000,-15,0,-7
4187,-8,-19,999,-14,0,-7
4188,-7,-21,998,-15,0,-5
4189,-9,-22,1000,-15,0,-7
4190,-7,-23,998,-14,0,-6
4191,-7,-22,1000,-15,0,-6
4192,-6,-23,997,-15,0,-6
4193,-5,-24,1000,-14,1,-6
4194,-6,-20,999,-14,0,-7
4195,-6,-20,999,-14,1,-7
4196,-6,-20,1000,-16,1,-7
4197,-6,-23,1000,-14,1,-7
4198,-7,-21,997,-15,1,-6
4199,-8,-23,1000,-15,1,-6
4200,-5,-21,999,-14,3,-6
4201,-7,-22,997,-15,1,-6
4202,-6,-21,999,-15,1,-7
4203,-7,-20,997,-15,-1,-6
4204,-5,-20,999,-15,1,-6
4205,-7,-23,998,-15,-1,-5
4206,-7,-23,998,-14,1,-7
4207,-7,-22,998,-14,1,-7
4208,-8,-22,998,-14,0,-6
4209,-6,-21,999,-14,0,-7
4210,-7,-21,999,-16,0,-7
4211,-5,-20,1000,-13,2,-7
4212,-8,-22,998,-16,0,-6
4213,-7,-22,1000,-13,0,-6
4214,-7,-20,999,-14,1,-5
4215,-7,-23,999,-15,0,-5
4216,-6,-20,999,-13,0,-6
4217,-6,-21,998,-13,0,-5
4218,-5,-20,998,-13,1,-6
4219,-5,-21,998,-15,1,-6
4220,-6,-20,1000,-15,0,-7
4221,-7,-22,997,-13,0,-6
4222,-5,-21,999,-16,1,-6
4223,-8,-22,998,-15,1,-5
4224,-6,-21,997,-14,0,-5
4225,-7,-22,999,-16,0,-6
4226,-7,-21,998,-15,0,-5
4227,-6,-21,998,-15,0,-6
4228,-5,-23,998,-16,0,-6
4229,-7,-22,998,-15,1,-6
4230,-8,-22,998,-13,0,-7
4231,-8,-21,999,-15,0,-5
4232,-6,-21,999,-15,1,-6
4233,-7,-20,998,-14,2,-6
4234,-6,-20,999,-15,1,-6
4235,-6,-20,1000,-14,0,-4
4236,-6,-22,1000,-15,0,-6
4237,-7,-23,999,-15,2,-5
4238,-7,-24,999,-14,1,-7
4239,-7,-21,1000,-14,1,-7
4240,-7,-21,999,-15,1,-7
4241,-7,-21,1000,-15,1,-5
4242,-5,-21,999,-14,0,-5
4243,-9,-20,999,-14,0,-5
4244,-6,-20,999,-14,1,-6
4245,-5,-22,1000,-15,0,-6
4246,-6,-22,999,-15,0,-6
4247,-6,-22,1000,-14,1,-7
4248,-5,-20,998,-14,1,-7
4249,-6,-19,1001,-15,2,-7
4250,-8,-22,998,-16,0,-6
4251,-7,-22,1000,-14,1,-6
4252,-7,-21,997,-14,0,-7
4253,-6,-22,998,-14,2,-7
4254,-7,-20,997,-14,2,-5
4255,-7,-21,1000,-14,0,-6
4256,-7,-21,996,-14,1,-5
4257,-6,-19,1000,-14,1,-5
4258,-7,-21,997,-15,0,-6
4259,-9,-22,998,-16,0,-6
4260,-7,-20,997,-14,0,-5
4261,-8,-23,998,-15,0,-6
4262,-9,-22,999,-15,1,-5
4263,-7,-22,998,-13,-1,-7
4264,-8,-20,998,-15,1,-7
4265,-9,-22,997,-13,0,-6
4266,-9,-21,998,-14,0,-7
4267,-8,-23,996,-14,1,-5
4268,-7,-21,1000,-14,0,-6
4269,-8,-22,996,-14,-2,-6
4270,-7,-19,1001,-15,-1,-6
4271,-6,-21,997,-14,0,-5
4272,-7,-19,999,-16,1,-7
4273,-8,-19,999,-15,0,-6
4274,-7,-21,998,-15,0,-6
4275,-8,-21,999,-16,-1,-7
4276,-7,-21,999,-14,-1,-6
4277,-6,-21,998,-14,1,-6
4278,-7,-21,1000,-14,1,-6
4279,-7,-21,1000,-14,0,-6
4280,-7,-20,998,-15,1,-6
4281,-6,-22,1000,-15,0,-5
4282,-5,-21,1000,-16,1,-5
4283,-7,-22,997,-15,1,-6
4284,-5,-21,1001,-15,0,-6
4285,-7,-21,999,-14,0,-6
4286,-6,-20,998,-15,0,-6
4287,-7,-21,999,-15,1,-5
4288,-8,-20,1001,-16,1,-6
4289,-7,-22,998,-14,1,-6
4290,-6,-22,998,-15,1,-6
4291,-8,-21,998,-14,0,-6
4292,-6,-22,996,-14,1,-7
4293,-8,-21,1000,-16,1,-6
4294,-7,-22,998,-15,1,-6
4295,-7,-20,998,-15,0,-6
4296,-5,-23,998,-16,2,-6
4297,-8,-21,998,-16,1,-6
4298,-7,-19,998,-16,0,-7
4299,-7,-21,999,-13,1,-6
4300,-6,-22,999,-13,1,-6
4301,-7,-22,997,-14,0,-7
4302,-6,-21,998,-14,1,-5
4303,-7,-20,998,-14,1,-5
4304,-6,-22,999,-13,0,-7
4305,-5,-23,996,-13,-1,-7
4306,-4,-26,1003,-15,0,-7
4307,-8,-21,1004,-14,-1,-6
4308,-8,-17,998,-14,0,-6
4309,-7,-18,993,-15,0,-6
4310,-4,-20,1006,-15,0,-6
4311,-5,-23,1001,-13,0,-7
4312,-8,-23,996,-15,1,-6
4313,-10,-22,1003,-14,1,-6
4314,-9,-22,1001,-13,0,-7
4315,-8,-19,994,-14,0,-6
4316,-7,-19,1002,-15,0,-6
4317,-6,-21,1002,-15,0,-6
4318,-7,-22,995,-14,0,-6
4319,-5,-23,999,-16,0,-6
4320,-8,-24,1000,-15,1,-5
4321,-8,-21,996,-16,1,-6
4322,-6,-20,999,-16,0,-6
4323,-7,-21,998,-13,0,-6
4324,-8,-21,997,-15,-1,-5
4325,-8,-22,999,-16,1,-6
4326,-7,-20,1000,-16,1,-6
4327,-6,-21,995,-15,0,-6
4328,-8,-23,998,-15,0,-7
4329,-7,-22,1001,-17,0,-7
4330,-7,-21,997,-15,0,-6
4331,-7,-21,996,-13,0,-6
4332,-8,-20,1001,-14,0,-6
4333,-9,-22,998,-14,1,-7
4334,-8,-22,995,-15,1,-6
4335,-8,-24,1004,-15,0,-6
4336,-6,-22,1001,-15,0,-6
4337,-5,-20,995,-15,0,-6
4338,-6,-21,1001,-14,0,-6
4339,-9,-20,1002,-16,0,-6
4340,-9,-19,994,-14,0,-6
4341,-7,-21,1000,-16,0,-5
4342,-7,-23,1000,-16,0,-6
4343,-6,-23,996,-16,0,-6
4344,-8,-21,998,-16,0,-7
4345,-7,-20,1000,-15,0,-7
4346,-7,-20,997,-14,0,-6
4347,-8,-20,998,-15,0,-7
4348,-7,-20,999,-14,0,-7
4349,-8,-21,1000,-14,-1,-6
4350,-6,-21,999,-16,0,-7
4351,-7,-22,998,-14,1,-7
4352,-8,-20,999,-14,1,-6
4353,-9,-23,1000,-14,0,-7
4354,-6,-22,999,-15,1,-6
4355,-7,-21,998,-15,1,-5
4356,-7,-20,999,-15,0,-6
4357,-7,-22,1000,-16,0,-7
4358,-8,-23,999,-15,0,-6
4359,-8,-22,999,-14,1,-6
4360,-7,-22,998,-15,2,-6
4361,-7,-21,999,-14,1,-6
4362,-8,-21,998,-15,1,-7
4363,-7,-20,999,-13,0,-7
4364,-6,-22,999,-15,1,-5
4365,-6,-21,998,-14,0,-6
4366,-6,-22,999,-15,-1,-6
4367,-6,-19,999,-15,0,-7
4368,-7,-20,999,-16,0,-6
4369,-6,-21,1001,-16,2,-6
4370,-7,-19,999,-15,2,-7
4371,-8,-21,998,-13,1,-6
4372,-7,-21,999,-15,1,-6
4373,-6,-21,999,-16,1,-6
4374,-6,-20,999,-15,1,-7
4375,-6,-22,997,-15,1,-6
4376,-7,-22,1000,-13,1,-6
4377,-7,-22,999,-16,0,-6
4378,-6,-21,997,-16,1,-5
4379,-7,-24,998,-14,1,-6
4380,-6,-22,1001,-15,0,-6
4381,-6,-22,997,-14,2,-7
4382,-7,-20,997,-15,1,-6
4383,-6,-21,1000,-16,1,-7
4384,-5,-21,1001,-15,1,-7
4385,-6,-20,996,-16,1,-6
4386,-6,-21,999,-16,1,-4
4387,-8,-22,1000,-16,0,-6
4388,-8,-21,997,-15,-1,-7
4389,-5,-22,997,-19,-1,-6
4390,-6,-21,1000,-14,0,-6
4391,-5,-20,997,-15,0,-7
4392,-8,-21,996,-14,0,-7
4393,-8,-20,1002,-13,-1,-5
4394,-7,-21,1000,-17,0,-6
4395,-7,-21,995,-14,0,-7
4396,-6,-22,1000,-14,0,-7
4397,-8,-22,1000,-14,1,-6
4398,-7,-21,997,-13,1,-6
4399,-7,-22,998,-15,0,-7
4400,-6,-21,1000,-16,1,-6
4401,-7,-20,998,-14,2,-7
4402,-6,-23,996,-16,1,-6
4403,-7,-22,999,-16,0,-7
4404,-6,-22,999,-16,2,-7
4405,-8,-21,999,-14,0,-7
4406,-5,-20,997,-15,0,-6
4407,-7,-22,998,-15,1,-7
4408,-8,-21,999,-14,1,-6
4409,-10,-20,997,-13,1,-6
4410,-9,-22,998,-16,1,-6
4411,-9,-22,1000,-15,1,-6
4412,-5,-21,999,-15,-1,-6
4413,-6,-21,998,-14,0,-7
4414,-7,-21,999,-15,1,-7
4415,-5,-22,999,-16,0,-7
4416,-6,-21,998,-14,1,-6
4417,-6,-21,997,-13,1,-6
4418,-7,-22,998,-14,1,-6
4419,-8,-22,999,-14,0,-5
4420,-7,-21,999,-14,0,-6
4421,-5,-21,999,-15,0,-5
4422,-8,-20,999,-15,1,-5
4423,-7,-20,998,-16,0,-7
4424,-5,-20,999,-17,0,-7
4425,-6,-21,998,-15,0,-6
4426,-6,-22,999,-15,1,-7
4427,-7,-23,1000,-14,0,-6
4428,-8,-21,1000,-14,0,-7
4429,-7,-21,998,-14,0,-7
4430,-6,-21,998,-15,0,-6
4431,-5,-21,1000,-14,2,-6
4432,-8,-22,1000,-14,1,-7
4433,-6,-22,999,-14,1,-6
4434,-7,-22,999,-15,1,-6
4435,-9,-23,999,-16,1,-5
4436,-7,-22,998,-14,1,-5
4437,-7,-22,997,-13,2,-6
4438,-6,-21,1000,-14,1,-5
4439,-9,-20,999,-15,2,-6
4440,-6,-20,999,-14,0,-6
4441,-7,-21,998,-15,0,-6
4442,-7,-22,1000,-15,0,-7
4443,-9,-21,998,-15,1,-7
4444,-7,-21,998,-14,0,-6
4445,-5,-19,1000,-14,-1,-7
4446,-7,-20,998,-15,1,-6
4447,-8,-21,999,-15,2,-6
4448,-6,-22,999,-14,1,-5
4449,-8,-20,999,-15,1,-6
4450,-9,-21,999,-14,2,-6
4451,-7,-21,1001,-15,0,-6
4452,-8,-20,998,-14,-1,-5
4453,-9,-21,997,-15,1,-5
4454,-6,-22,998,-15,-1,-6
4455,-7,-22,999,-14,-1,-7
4456,-7,-22,998,-13,-1,-7
4457,-6,-21,996,-15,0,-6
4458,-5,-22,997,-14,1,-8
4459,-8,-23,998,-13,0,-7
4460,-6,-19,998,-13,0,-7
4461,-7,-19,999,-16,2,-5
4462,-7,-19,1000,-16,1,-7
4463,-6,-20,999,-17,1,-7
4464,-6,-22,999,-14,1,-6
4465,-6,-22,998,-14,0,-6
4466,-8,-21,999,-14,0,-7
4467,-8,-21,999,-15,-1,-7
4468,-5,-20,998,-14,0,-6
4469,-7,-21,999,-14,1,-6
4470,-7,-21,998,-16,0,-6
4471,-6,-20,999,-15,0,-6
4472,-7,-21,1000,-14,0,-6
4473,-8,-20,998,-14,0,-6
4474,-6,-23,999,-14,1,-7
4475,-5,-21,999,-15,-1,-7
4476,-6,-21,999,-15,-1,-6
4477,-7,-20,998,-16,1,-5
4478,-6,-21,998,-15,1,-6
4479,-6,-22,998,-14,2,-6
4480,-6,-23,998,-16,1,-6
4481,-7,-21,999,-13,0,-6
4482,-6,-22,1001,-13,1,-7
4483,-8,-22,999,-15,1,-5
4484,-7,-22,999,-14,1,-6
4485,-6,-23,997,-15,-1,-5
4486,-6,-21,998,-15,1,-6
4487,-7,-21,999,-15,0,-5
4488,-8,-21,998,-15,1,-6
4489,-8,-22,998,-15,1,-7
4490,-7,-22,997,-15,0,-6
4491,-5,-23,999,-15,0,-6
4492,-6,-22,998,-14,0,-6
4493,-7,-20,999,-15,0,-7
4494,-6,-20,998,-15,2,-6
4495,-7,-20,999,-15,0,-6
4496,-7,-21,1000,-14,1,-7
4497,-7,-23,998,-14,1,-7
4498,-6,-23,1000,-14,1,-5
4499,-6,-21,1000,-14,2,-5
4500,-6,-22,999,-15,1,-6
4501,-8,-19,999,-15,0,-6
4502,-7,-20,1000,-14,2,-6
4503,-7,-20,998,-14,1,-5
4504,-7,-21,999,-16,0,-6
4505,-7,-22,998,-16,-1,-6
4506,-7,-22,998,-15,-1,-7
4507,-7,-20,999,-13,0,-7
4508,-7,-21,994,-14,-1,-6
4509,-8,-23,1010,-15,1,-7
4510,-6,-20,990,-16,0,-7
4511,-7,-24,1003,-15,2,-6
4512,-6,-20,998,-15,-1,-7
4513,-9,-18,1011,-14,0,-6
4514,-6,-20,977,-13,1,-6
4515,-6,-25,1008,-14,1,-7
4516,-3,-23,1008,-14,-1,-6
4517,-5,-23,988,-15,1,-6
4518,-8,-22,992,-14,1,-7
4519,-8,-22,1017,-15,0,-6
4520,-5,-18,988,-15,1,-5
4521,-7,-22,991,-15,2,-7
4522,-6,-20,1011,-15,0,-7
4523,-9,-24,995,-14,0,-6
4524,-7,-20,991,-14,2,-7
4525,-6,-24,1007,-15,1,-5
4526,-5,-20,998,-14,-1,-6
4527,-6,-21,993,-15,-1,-6
4528,-6,-19,1005,-16,0,-5
4529,-6,-21,999,-15,-1,-6
4530,-5,-22,995,-15,1,-6
4531,-6,-23,1000,-15,1,-6
4532,-5,-22,999,-14,0,-6
4533,-6,-22,998,-15,1,-6
4534,-6,-19,999,-13,0,-5
4535,-6,-21,999,-15,-2,-7
4536,-5,-19,999,-15,0,-6
4537,-8,-20,1000,-14,0,-6
4538,-6,-22,997,-16,1,-5
4539,-7,-22,999,-14,1,-6
4540,-6,-24,1000,-15,1,-6
4541,-7,-22,997,-14,2,-5
4542,-8,-20,999,-16,1,-6
4543,-9,-21,999,-15,1,-6
4544,-8,-20,999,-13,0,-8
4545,-7,-21,998,-15,0,-6
4546,-6,-23,1000,-16,0,-7
4547,-7,-22,998,-16,1,-6
4548,-7,-22,999,-15,1,-7
4549,-6,-22,998,-15,1,-7
4550,-6,-20,998,-13,0,-7
4551,-7,-20,999,-14,1,-6
4552,-7,-20,998,-15,0,-6
4553,-5,-22,998,-15,1,-7
4554,-7,-22,998,-15,0,-6
4555,-5,-22,999,-14,2,-6
4556,-8,-23,998,-15,0,-6
4557,-6,-22,999,-13,1,-7
4558,-8,-21,999,-14,1,-6
4559,-7,-22,998,-15,2,-5
4560,-7,-20,998,-15,1,-6
4561,-7,-22,999,-15,1,-7
4562,-9,-22,999,-15,-1,-6
4563,-7,-21,999,-14,1,-6
4564,-6,-22,1000,-13,1,-6
4565,-7,-21,999,-14,0,-7
4566,-7,-20,999,-15,0,-7
4567,-5,-21,999,-14,0,-6
4568,-5,-21,998,-16,0,-6
4569,-7,-22,999,-14,1,-7
4570,-7,-23,998,-14,1,-6
4571,-6,-22,999,-14,1,-7
4572,-7,-22,999,-15,1,-6
4573,-7,-22,999,-16,0,-6
4574,-8,-20,998,-14,0,-6
4575,-7,-21,998,-15,0,-6
4576,-6,-21,997,-15,1,-6
4577,-5,-22,999,-13,0,-7
4578,-6,-21,999,-14,1,-7
4579,-7,-23,999,-16,1,-6
4580,-6,-23,997,-17,1,-5
4581,-6,-21,998,-15,2,-6
4582,-7,-20,1000,-15,0,-7
4583,-7,-22,998,-14,0,-6
4584,-8,-23,999,-16,1,-6
4585,-7,-23,999,-16,0,-7
4586,-7,-22,998,-15,1,-6
4587,-8,-20,1000,-15,1,-5
4588,-7,-21,998,-15,0,-5
4589,-7,-20,1000,-15,-1,-6
4590,-5,-20,998,-12,1,-6
4591,-8,-23,998,-16,1,-5
4592,-7,-21,998,-16,0,-6
4593,-7,-21,999,-15,3,-6
4594,-4,-20,999,-15,1,-5
4595,-6,-21,999,-15,1,-6
4596,-7,-20,999,-15,2,-7
4597,-6,-20,999,-14,1,-7
4598,-8,-20,998,-15,1,-6
4599,-7,-21,999,-14,2,-6
4600,-8,-22,998,-15,1,-6
4601,-7,-22,998,-15,0,-6
4602,-9,-21,999,-13,2,-4
4603,-8,-21,999,-14,1,-6
4604,-9,-21,999,-14,0,-6
4605,-8,-20,1000,-15,1,-4
4606,-6,-21,998,-15,1,-5
4607,-6,-20,999,-14,0,-5
4608,-8,-24,1000,-15,-1,-6
4609,-7,-21,998,-14,-1,-6
4610,-9,-22,999,-15,0,-7
4611,-7,-20,1000,-15,1,-6
4612,-5,-22,997,-15,1,-6
4613,-6,-20,999,-16,1,-5
4614,-7,-21,998,-14,0,-6
4615,-8,-21,1000,-13,2,-6
4616,-7,-21,999,-14,1,-7
4617,-8,-20,998,-16,0,-6
4618,-8,-21,998,-15,1,-8
4619,-7,-22,998,-14,1,-6
4620,-7,-21,999,-14,1,-6
4621,-6,-21,999,-14,0,-5
4622,-7,-21,998,-16,1,-6
4623,-5,-21,997,-15,1,-7
4624,-5,-20,999,-15,-1,-6
4625,-6,-21,999,-14,-1,-7
4626,-8,-22,998,-15,1,-7
4627,-7,-22,999,-15,1,-7
4628,-5,-22,999,-15,0,-7
4629,-7,-20,999,-14,1,-7
4630,-4,-23,999,-15,1,-7
4631,-7,-20,998,-15,0,-7
4632,-8,-22,998,-15,0,-7
4633,-6,-22,998,-15,0,-7
4634,-6,-23,998,-13,-1,-6
4635,-7,-21,1000,-15,0,-5
4636,-6,-23,999,-13,1,-6
4637,-5,-23,999,-15,1,-6
4638,-6,-19,999,-14,1,-7
4639,-6,-21,998,-15,1,-7
4640,-8,-21,999,-16,2,-7
4641,-6,-22,997,-15,1,-7
4642,-7,-21,998,-15,1,-7
4643,-5,-20,997,-14,2,-7
4644,-6,-22,998,-14,3,-6
4645,-6,-23,998,-13,1,-5
4646,-6,-21,1000,-14,1,-6
4647,-8,-21,999,-17,1,-7
4648,-7,-21,999,-15,0,-8
4649,-5,-21,998,-14,1,-6
4650,-6,-21,998,-15,0,-7
4651,-7,-21,999,-16,0,-7
4652,-4,-21,998,-15,2,-6
4653,-7,-22,998,-14,1,-6
4654,-8,-21,999,-14,1,-6
4655,-9,-22,998,-15,2,-6
4656,-7,-22,999,-15,0,-6
4657,-6,-22,998,-15,0,-6
4658,-7,-20,999,-14,1,-6
4659,-7,-22,1000,-14,0,-7
4660,-7,-22,1000,-12,1,-6
4661,-8,-22,999,-15,1,-6
4662,-6,-22,998,-15,0,-6
4663,-8,-20,997,-14,1,-5
4664,-6,-22,998,-14,1,-6
4665,-8,-22,999,-14,1,-5
4666,-6,-21,998,-14,1,-6
4667,-7,-19,999,-15,0,-7
4668,-5,-22,998,-15,0,-6
4669,-6,-20,998,-15,1,-7
4670,-6,-22,998,-15,1,-7
4671,-5,-21,999,-14,1,-6
4672,-5,-21,999,-14,0,-6
4673,-6,-23,998,-15,0,-6
4674,-8,-20,998,-15,2,-5
4675,-7,-22,998,-15,0,-6
4676,-5,-20,999,-15,-1,-7
4677,-5,-21,999,-14,1,-7
4678,-5,-21,998,-15,1,-6
4679,-7,-22,1000,-14,0,-7
4680,-6,-22,1000,-13,0,-7
4681,-6,-22,999,-15,1,-7
4682,-7,-20,997,-13,1,-5
4683,-7,-21,999,-13,1,-6
4684,-4,-19,999,-15,0,-6
4685,-6,-21,998,-13,0,-7
4686,-5,-21,999,-14,1,-6
4687,-6,-21,999,-16,0,-6
4688,-8,-22,999,-15,1,-6
4689,-7,-21,998,-14,0,-6
4690,-8,-21,998,-14,1,-5
4691,-8,-20,999,-14,1,-6
4692,-7,-21,997,-15,0,-5
4693,-8,-22,998,-14,0,-7
4694,-8,-22,999,-14,1,-6
4695,-7,-20,1000,-14,1,-7
4696,-6,-22,999,-13,1,-7
4697,-6,-22,999,-14,0,-6
4698,-7,-22,998,-15,1,-7
4699,-6,-21,997,-15,0,-5
4700,-6,-22,999,-15,-1,-6
4701,-8,-22,997,-14,1,-6
4702,-8,-22,998,-14,1,-6
4703,-7,-21,998,-15,1,-7
4704,-8,-21,1000,-15,1,-7
4705,-8,-22,999,-15,2,-6
4706,-6,-22,998,-15,1,-5
4707,-7,-20,998,-14,2,-6
4708,-7,-20,998,-16,1,-6
4709,-7,-22,998,-15,1,-5
4710,-5,-24,1000,-15,0,-6
4711,-8,-21,1001,-14,0,-6
4712,-9,-20,1000,-14,1,-7
4713,-7,-21,998,-15,1,-6
4714,-7,-21,999,-15,1,-7
4715,-9,-22,999,-15,0,-6
4716,-6,-21,999,-16,1,-6
4717,-7,-21,999,-14,1,-7
4718,-7,-20,998,-15,0,-7
4719,-7,-20,998,-14,0,-7
4720,-9,-21,999,-15,0,-6
4721,-6,-23,1000,-15,0,-6
4722,-8,-22,998,-14,0,-6
4723,-7,-21,998,-14,0,-6
4724,-7,-22,999,-15,-1,-6
4725,-7,-22,999,-14,1,-6
4726,-5,-19,998,-11,1,-7
4727,-6,-21,998,-5,1,-7
4728,-6,-20,998,-18,-1,-7
4729,-7,-21,999,-14,1,-7
4730,-8,-23,999,-15,0,-6
4731,-5,-21,999,-13,0,-6
4732,-6,-22,999,-16,0,-7
4733,-6,-20,998,-14,0,-7
4734,-7,-21,998,-15,-1,-7
4735,-6,-22,997,-14,1,-6
4736,-5,-21,999,-14,2,-5
4737,-5,-21,1000,-13,1,-7
4738,-6,-21,998,-14,0,-6
4739,-8,-20,999,-15,1,-6
4740,-7,-20,997,-15,1,-6
4741,-6,-20,996,-14,1,-5
4742,-8,-21,998,-16,1,-5
4743,-6,-21,999,-15,2,-6
4744,-5,-21,996,-13,1,-6
4745,-6,-22,998,-16,0,-6
4746,-5,-20,999,-15,1,-6
4747,-7,-20,997,-15,1,-6
4748,-7,-21,998,-15,0,-7
4749,-6,-21,1000,-14,2,-6
4750,-6,-21,999,-16,0,-5
4751,-7,-21,999,-14,1,-6
4752,-7,-21,998,-12,1,-6
4753,-7,-21,1000,-14,0,-6
4754,-7,-21,997,-14,1,-6
4755,-7,-23,999,-16,1,-6
4756,-7,-21,998,-16,-1,-5
4757,-7,-22,999,-15,0,-5
4758,-7,-22,998,-15,1,-6
4759,-5,-22,1000,-13,1,-6
4760,-6,-20,999,-14,1,-6
4761,-7,-21,998,-16,-1,-6
4762,-6,-21,996,-14,1,-6
4763,-6,-22,998,-15,2,-6
4764,-5,-23,998,-14,0,-7
4765,-6,-23,999,-13,0,-7
4766,-8,-21,999,-14,2,-6
4767,-6,-21,1000,-14,2,-6
4768,-7,-20,999,-14,1,-7
4769,-7,-21,999,-15,1,-5
4770,-9,-19,1000,-14,0,-6
4771,-7,-21,999,-14,1,-6
4772,-7,-20,1000,-13,1,-6
4773,-7,-20,998,-14,2,-7
4774,-6,-21,1000,-16,2,-6
4775,-8,-21,998,-15,1,-6
4776,-10,-21,999,-15,2,-6
4777,-8,-21,1000,-14,2,-6
4778,-8,-20,1000,-14,1,-6
4779,-8,-22,999,-16,1,-6
4780,-7,-20,999,-15,0,-7
4781,-6,-21,1000,-15,0,-6
4782,-8,-21,997,-14,1,-5
4783,-7,-21,999,-13,0,-6
4784,-7,-21,1000,-14,0,-6
4785,-7,-22,998,-13,0,-6
4786,-9,-21,998,-14,0,-6
4787,-8,-22,997,-14,2,-6
4788,-6,-21,999,-15,0,-5
4789,-6,-21,998,-14,0,-6
4790,-6,-20,998,-14,1,-7
