sequence,AccelerometerX,AccelerometerY,AccelerometerZ,GyroscopeX,GyroscopeY,GyroscopeZ
0,-316,-34,938,-6,-4,3
1,-314,-34,938,-5,-5,4
2,-313,-35,939,-4,-5,3
3,-316,-35,937,-3,-6,3
4,-313,-36,936,-5,-6,4
5,-314,-35,938,-9,-7,5
6,-314,-32,940,-3,-8,6
7,-312,-35,940,-8,-8,4
8,-312,-34,938,-5,-8,5
9,-311,-35,940,-5,-11,5
10,-313,-34,939,-8,-9,4
11,-312,-33,939,-5,-10,4
12,-312,-33,939,-8,-10,5
13,-309,-33,940,-3,-10,5
14,-310,-32,940,-8,-11,3
15,-310,-35,941,-3,-11,4
16,-310,-35,942,-6,-9,3
17,-310,-36,941,-3,-10,4
18,-309,-35,941,-7,-8,5
19,-309,-35,940,-5,-9,5
20,-310,-35,941,-7,-9,5
21,-310,-35,941,-4,-8,5
22,-310,-35,941,-5,-9,5
23,-309,-34,940,-5,-8,5
24,-310,-34,941,-6,-7,4
25,-308,-33,942,-6,-7,4
26,-307,-34,942,-4,-8,4
27,-309,-34,940,-6,-7,4
28,-307,-34,939,-4,-6,5
29,-311,-34,939,-6,-5,4
30,-311,-35,940,-4,-5,4
31,-309,-34,941,-5,-6,4
32,-310,-34,941,-5,-4,5
33,-310,-34,940,-6,-6,3
34,-311,-34,940,-4,-5,3
35,-311,-34,939,-5,-5,4
36,-311,-33,939,-5,-6,5
37,-311,-34,941,-4,-6,5
38,-310,-35,941,-5,-6,5
39,-311,-36,940,-5,-6,3
40,-311,-35,942,-5,-7,5
41,-312,-33,941,-5,-6,5
42,-311,-36,939,-5,-6,4
43,-311,-34,940,-5,-6,5
44,-312,-35,940,-5,-6,6
45,-314,-36,941,-5,-7,5
46,-312,-35,941,-5,-6,5
47,-312,-34,939,-5,-8,5
48,-313,-34,940,-4,-7,6
49,-312,-34,939,-5,-7,5
50,-311,-35,939,-6,-7,6
51,-312,-36,939,-6,-8,4
52,-311,-36,938,-5,-7,5
53,-309,-35,941,-6,-7,6
54,-309,-34,941,-5,-7,6
55,-309,-35,942,-7,-7,5
56,-307,-34,942,-4,-5,5
57,-307,-34,943,-4,-6,4
58,-307,-36,942,-3,-5,5
59,-308,-36,942,-5,-4,5
60,-305,-36,943,-4,-4,5
61,-306,-35,942,-4,-4,5
62,-308,-36,943,-4,-1,6
63,-306,-33,941,-5,-2,5
64,-310,-36,943,-4,-1,5
65,-310,-33,942,-4,1,5
66,-309,-36,942,-4,0,5
67,-309,-36,940,-4,1,4
68,-308,-34,941,-3,1,5
69,-310,-34,941,-4,1,5
70,-310,-33,940,-4,2,6
71,-311,-34,941,-6,1,5
72,-313,-35,939,-4,0,5
73,-312,-34,938,-5,1,5
74,-315,-36,938,-5,-1,5
75,-314,-34,938,-5,-1,5
76,-313,-34,936,-4,-2,4
77,-316,-32,937,-3,-2,5
78,-316,-34,936,-6,-2,6
79,-317,-33,938,-4,-4,6
80,-315,-34,939,-5,-6,4
81,-315,-34,937,-4,-5,5
82,-314,-34,937,-6,-7,6
83,-311,-34,937,-3,-8,6
84,-312,-35,940,-6,-8,5
85,-310,-36,940,-3,-9,5
86,-309,-35,941,-5,-9,5
87,-307,-35,942,-4,-7,6
88,-306,-35,943,-7,-7,6
89,-306,-34,943,-6,-7,5
90,-306,-34,944,-3,-6,6
91,-305,-35,943,-4,-6,6
92,-305,-35,942,-3,-3,7
93,-306,-35,943,-6,-3,6
94,-306,-35,941,-2,-2,5
95,-305,-35,943,-6,-2,6
96,-305,-35,943,-1,0,7
97,-307,-34,942,-4,0,6
98,-306,-34,943,-3,1,5
99,-305,-34,942,-5,2,6
100,-307,-34,941,-3,3,6
101,-307,-35,941,-2,4,6
102,-307,-35,941,-4,5,5
103,-309,-36,941,-2,5,6
104,-309,-32,942,-5,6,6
105,-309,-33,941,-1,6,6
106,-309,-35,941,-4,5,5
107,-309,-34,939,-2,7,6
108,-308,-35,941,-5,7,7
109,-310,-33,940,-2,6,6
110,-312,-34,939,-3,7,7
111,-309,-33,940,-4,7,6
112,-311,-34,939,-3,7,7
113,-312,-34,939,-6,7,6
114,-314,-35,938,-1,7,6
115,-313,-36,938,-3,5,6
116,-315,-32,937,-4,6,6
117,-316,-33,937,-5,3,5
118,-317,-33,937,-3,3,5
119,-320,-33,937,-4,3,5
120,-320,-35,936,-4,1,4
121,-320,-35,936,-5,0,4
122,-320,-35,936,-5,-2,5
123,-320,-34,935,-3,-5,5
124,-318,-33,935,-4,-6,5
125,-320,-32,936,-4,-6,5
126,-319,-32,935,-6,-10,5
127,-321,-34,937,-4,-11,5
128,-318,-33,936,-7,-11,5
129,-317,-35,936,-7,-13,5
130,-318,-35,937,-6,-15,3
131,-315,-35,937,-7,-17,4
132,-316,-34,937,-5,-17,4
133,-313,-33,938,-7,-18,4
134,-314,-35,939,-5,-18,4
135,-312,-34,941,-6,-19,4
136,-312,-36,940,-5,-19,3
137,-310,-35,942,-7,-20,5
138,-307,-32,941,-5,-19,4
139,-307,-33,942,-4,-18,5
140,-305,-35,942,-6,-19,5
141,-304,-35,943,-7,-17,5
142,-303,-34,943,-6,-17,4
143,-302,-33,945,-6,-14,4
144,-304,-35,944,-6,-12,5
145,-301,-35,944,-6,-12,6
146,-303,-35,945,-6,-10,5
147,-303,-35,945,-5,-7,6
148,-302,-36,946,-6,-6,5
149,-302,-35,944,-5,-5,6
150,-302,-36,944,-6,-2,5
151,-302,-36,944,-4,-2,4
152,-302,-35,943,-5,0,5
153,-303,-35,942,-4,0,6
154,-303,-37,943,-6,2,6
155,-306,-35,942,-4,3,6
156,-307,-34,942,-5,3,5
157,-308,-33,943,-3,4,6
158,-309,-34,941,-4,5,6
159,-308,-36,942,-3,6,7
160,-309,-37,941,-4,6,7
161,-310,-35,941,-5,6,7
162,-311,-35,941,-3,6,6
163,-309,-35,942,-4,6,7
164,-310,-34,940,-2,6,6
165,-310,-35,941,-5,7,7
166,-310,-35,941,-3,7,6
167,-311,-33,939,-5,6,5
168,-312,-35,940,-4,6,6
169,-310,-36,938,-2,7,7
170,-312,-33,939,-3,6,6
171,-314,-34,938,-3,6,7
172,-311,-35,939,-2,5,7
173,-314,-34,938,-2,4,6
174,-314,-33,939,-1,4,5
175,-314,-33,939,-3,4,6
176,-314,-33,939,-2,3,6
177,-315,-33,938,-4,2,6
178,-317,-34,938,-3,2,6
179,-315,-33,938,-4,1,6
180,-314,-35,937,-3,0,5
181,-312,-32,938,-5,-1,6
182,-313,-33,938,-4,-2,6
183,-313,-34,938,-5,-2,5
184,-315,-32,937,-5,-3,5
185,-315,-34,937,-4,-3,6
186,-314,-33,938,-5,-4,4
187,-315,-33,938,-6,-4,6
188,-315,-35,939,-5,-5,6
189,-314,-35,938,-4,-4,6
190,-311,-34,939,-5,-6,6
191,-310,-33,939,-4,-6,6
192,-309,-33,939,-5,-7,7
193,-309,-34,940,-4,-6,6
194,-312,-34,941,-4,-6,6
195,-311,-34,941,-5,-7,5
196,-309,-35,939,-4,-8,4
197,-310,-35,939,-6,-7,5
198,-309,-34,939,-3,-7,5
199,-311,-34,941,-7,-7,5
200,-312,-34,940,-3,-6,6
201,-311,-35,940,-3,-8,5
202,-310,-34,939,-4,-6,6
203,-311,-33,940,-5,-7,5
204,-311,-34,941,-4,-7,6
205,-310,-35,941,-5,-7,5
206,-310,-36,941,-5,-6,4
207,-311,-37,939,-5,-6,6
208,-310,-37,939,-6,-5,5
209,-309,-35,941,-3,-5,4
210,-309,-36,940,-6,-5,5
211,-308,-32,940,-4,-6,4
212,-309,-32,942,-4,-5,4
213,-312,-33,941,-5,-6,4
214,-312,-35,941,-6,-4,6
215,-312,-34,941,-6,-5,4
216,-312,-33,939,-4,-5,6
217,-313,-35,939,-5,-6,6
218,-314,-35,941,-5,-5,6
219,-312,-33,941,-5,-5,6
220,-310,-35,941,-6,-6,5
221,-310,-34,941,-4,-5,6
222,-308,-35,940,-5,-4,5
223,-308,-34,941,-5,-5,5
224,-309,-35,941,-5,-5,5
225,-309,-35,939,-5,-4,4
226,-311,-35,942,-5,-3,5
227,-311,-35,941,-5,-3,5
228,-310,-34,941,-4,-3,5
229,-309,-33,941,-5,-3,6
230,-309,-32,941,-5,-3,5
231,-310,-33,941,-4,-3,5
232,-310,-33,940,-5,-3,5
233,-309,-33,941,-4,-2,5
234,-310,-35,941,-5,-3,5
235,-311,-36,940,-4,-3,4
236,-311,-35,940,-5,-3,5
237,-313,-37,939,-3,-3,6
238,-312,-35,938,-5,-4,6
239,-315,-35,939,-4,-3,5
240,-313,-34,939,-6,-3,6
241,-314,-34,938,-5,-6,6
242,-314,-34,939,-4,-6,5
243,-313,-34,937,-6,-5,4
244,-314,-34,938,-7,-7,4
245,-314,-34,938,-5,-8,5
246,-313,-33,938,-4,-7,5
247,-313,-33,939,-4,-8,5
248,-312,-34,939,-6,-9,4
249,-311,-35,939,-6,-10,4
250,-312,-36,938,-6,-11,5
251,-314,-37,938,-5,-11,5
252,-311,-35,940,-6,-12,4
253,-311,-36,938,-7,-12,4
254,-311,-33,938,-4,-12,5
255,-313,-34,941,-6,-13,4
256,-311,-35,938,-5,-13,6
257,-312,-37,939,-7,-12,5
258,-309,-35,940,-5,-13,5
259,-311,-35,940,-6,-13,6
260,-309,-35,939,-8,-13,5
261,-311,-34,940,-5,-12,5
262,-311,-34,941,-7,-13,5
263,-309,-35,938,-5,-13,5
264,-308,-35,942,-5,-13,3
265,-307,-37,944,-5,-12,4
266,-307,-38,937,-5,-12,6
267,-310,-32,942,-4,-11,5
268,-309,-34,940,-7,-10,4
269,-311,-30,941,-6,-9,5
270,-306,-32,944,-5,-9,4
271,-306,-31,941,-7,-9,5
272,-307,-37,941,-7,-10,5
273,-308,-38,942,-6,-8,5
274,-308,-39,938,-5,-8,5
275,-309,-37,942,-5,-8,5
276,-311,-34,943,-6,-6,6
277,-311,-32,938,-4,-8,5
278,-312,-34,939,-4,-8,5
279,-312,-32,940,-6,-8,5
280,-309,-35,940,-4,-9,4
281,-310,-36,941,-7,-8,6
282,-307,-37,942,-5,-8,6
283,-308,-35,941,-7,-8,6
284,-306,-38,941,-3,-7,6
285,-304,-38,941,-6,-7,6
286,-303,-35,944,-3,-6,5
287,-304,-36,943,-6,-4,5
288,-304,-36,943,-4,-4,6
289,-302,-33,943,-4,-3,6
290,-304,-33,942,-4,0,5
291,-308,-35,942,-3,1,5
292,-307,-35,943,-5,1,5
293,-305,-34,943,-4,1,5
294,-308,-35,941,-5,2,5
295,-308,-36,941,-2,4,5
296,-308,-35,941,-5,3,5
297,-308,-37,940,-2,3,6
298,-309,-36,941,-4,3,5
299,-310,-35,940,-3,4,7
300,-310,-34,941,-4,5,6
301,-311,-34,940,-5,5,6
302,-311,-35,941,-3,4,6
303,-311,-36,940,-4,5,5
304,-310,-38,940,-1,6,5
305,-311,-35,940,-5,4,5
306,-310,-34,939,-1,4,5
307,-314,-35,940,-7,5,7
308,-312,-33,938,-1,5,6
309,-313,-35,940,-4,5,6
310,-313,-34,939,-5,3,5
311,-316,-34,939,-3,2,6
312,-317,-34,938,-5,3,5
313,-315,-34,938,-1,1,5
314,-315,-34,937,-5,0,5
315,-318,-34,937,-3,0,5
316,-316,-32,936,-4,-3,6
317,-314,-33,937,-4,-5,5
318,-314,-35,938,-6,-5,5
319,-316,-34,937,-5,-6,6
320,-315,-35,938,-5,-6,6
321,-313,-35,940,-5,-7,6
322,-311,-35,940,-4,-8,5
323,-311,-35,939,-4,-8,5
324,-309,-33,939,-3,-8,4
325,-311,-31,940,-6,-8,5
326,-310,-32,941,-3,-9,5
327,-308,-32,941,-6,-9,4
328,-307,-34,942,-5,-9,4
329,-306,-34,942,-3,-8,6
330,-308,-35,942,-5,-6,4
331,-309,-34,941,-3,-6,4
332,-309,-36,940,-5,-5,5
333,-309,-33,941,-4,-4,5
334,-309,-35,940,-5,-5,6
335,-310,-36,941,-5,-4,6
336,-312,-35,941,-3,-5,4
337,-309,-35,941,-6,-5,5
338,-308,-33,939,-5,-4,6
339,-309,-33,939,-4,-4,6
340,-308,-36,941,-5,-5,4
341,-310,-34,939,-7,-4,6
342,-308,-34,940,-2,-3,6
343,-309,-32,941,-6,-3,6
344,-308,-33,940,-2,-2,6
345,-308,-33,940,-8,-2,6
346,-308,-33,942,-6,0,5
347,-307,-35,943,-1,0,5
348,-308,-33,941,-9,-2,4
349,-311,-35,940,1,1,6
350,-309,-34,941,-10,0,6
351,-308,-33,941,1,1,5
352,-311,-36,940,-6,0,5
353,-310,-35,940,-3,0,6
354,-312,-37,940,-4,0,6
355,-311,-35,941,-4,2,6
356,-310,-36,941,-3,1,6
357,-310,-34,940,-4,0,6
358,-310,-34,940,-2,0,7
359,-310,-38,940,-6,-1,6
360,-311,-36,941,-2,0,7
361,-310,-34,940,-5,0,7
362,-311,-34,940,-2,2,5
363,-312,-32,939,-5,2,6
364,-310,-33,941,-3,1,5
365,-311,-34,939,-4,2,4
366,-310,-36,940,-4,2,5
367,-312,-32,940,-2,1,6
368,-312,-34,940,-4,1,5
369,-314,-35,939,-2,1,7
370,-314,-34,940,-4,0,7
371,-315,-34,939,-3,0,6
372,-312,-34,938,-4,0,5
373,-313,-35,939,-3,-1,5
374,-315,-32,939,-3,0,6
375,-313,-34,938,-4,-1,5
376,-313,-32,938,-5,-2,6
377,-312,-32,940,-5,-1,5
378,-312,-32,938,-3,-2,6
379,-314,-33,939,-5,-3,6
380,-314,-34,939,-3,-2,6
381,-313,-34,939,-6,-4,7
382,-314,-36,938,-4,-4,5
383,-313,-35,938,-4,-4,5
384,-313,-33,939,-5,-6,4
385,-315,-33,939,-3,-5,5
386,-317,-33,938,-6,-7,5
387,-316,-33,939,-3,-9,6
388,-315,-35,936,-5,-7,5
389,-313,-34,939,-5,-8,6
390,-316,-35,939,-5,-10,6
391,-314,-36,939,-6,-10,5
392,-313,-37,939,-4,-11,6
393,-314,-35,939,-5,-11,6
394,-312,-35,939,-5,-10,5
395,-311,-34,940,-5,-12,4
396,-309,-34,940,-4,-11,5
397,-308,-33,939,-6,-10,5
398,-309,-35,941,-5,-12,5
399,-308,-36,942,-6,-10,5
400,-308,-38,942,-6,-9,5
401,-307,-36,944,-3,-9,5
402,-307,-35,943,-6,-8,5
403,-305,-32,943,-4,-7,4
404,-307,-35,942,-5,-7,4
405,-308,-34,942,-6,-5,5
406,-307,-36,941,-4,-5,4
407,-309,-37,941,-5,-6,5
408,-307,-35,941,-5,-3,4
409,-308,-33,942,-7,-2,5
410,-309,-34,941,-3,-2,5
411,-311,-34,940,-6,-2,5
412,-311,-35,939,-2,-2,6
413,-313,-35,940,-6,-2,4
414,-314,-35,939,-4,-2,5
415,-311,-35,940,-7,-3,6
416,-313,-35,938,-5,-3,6
417,-311,-36,938,-4,-3,5
418,-313,-35,939,-3,-4,5
419,-313,-34,938,-3,-4,5
420,-311,-33,939,-4,-4,6
421,-313,-34,940,-4,-4,5
422,-313,-33,939,-5,-4,4
423,-313,-34,940,-5,-5,4
424,-309,-35,940,-5,-5,5
425,-309,-36,940,-6,-5,5
426,-308,-35,941,-5,-5,6
427,-309,-34,941,-6,-4,5
428,-307,-33,942,-5,-4,6
429,-305,-35,942,-5,-3,5
430,-306,-33,942,-4,-1,5
431,-307,-35,943,-5,1,6
432,-309,-34,943,-2,-1,4
433,-311,-34,941,-4,-1,6
434,-309,-33,939,-3,0,5
435,-312,-35,940,-5,-1,5
436,-313,-33,939,-4,0,5
437,-313,-33,938,-4,0,6
438,-315,-32,937,-3,0,6
439,-313,-35,939,-5,0,5
440,-313,-33,938,-5,-1,5
441,-314,-33,938,-4,-3,5
442,-313,-34,937,-8,-5,6
443,-315,-33,939,-3,-4,7
444,-313,-34,939,-6,-7,6
445,-314,-34,939,-3,-6,4
446,-310,-35,941,-4,-4,6
447,-311,-35,941,-3,-5,6
448,-307,-34,941,-4,-4,6
449,-305,-33,942,-5,-4,6
450,-308,-35,942,-5,-4,7
451,-305,-36,944,-6,-1,6
452,-307,-34,944,-3,0,6
453,-307,-34,941,-6,0,6
454,-310,-36,941,-4,1,6
455,-310,-36,942,-5,0,4
456,-309,-35,940,-2,1,6
457,-310,-34,942,-4,1,5
458,-311,-34,940,-4,2,5
459,-311,-36,940,-3,2,5
460,-308,-35,942,-3,3,6
461,-307,-35,941,-3,3,5
462,-309,-33,943,-3,5,6
463,-310,-33,941,-4,5,6
464,-309,-35,942,-5,4,6
465,-310,-38,940,-2,5,6
466,-310,-35,941,-2,6,6
467,-311,-36,941,-1,6,6
468,-309,-34,942,-2,6,5
469,-310,-34,940,-2,8,6
470,-309,-31,940,-4,7,6
471,-310,-32,941,-2,8,6
472,-309,-34,940,-3,8,6
473,-310,-35,940,-4,7,6
474,-309,-36,939,-4,8,6
475,-310,-37,939,-4,8,7
476,-311,-36,940,-3,8,6
477,-312,-34,941,-3,7,7
478,-312,-33,940,-3,9,7
479,-309,-32,940,-2,8,6
480,-311,-34,940,-3,8,6
481,-311,-32,938,-4,8,6
482,-311,-35,939,-2,9,7
483,-312,-34,939,-4,7,5
484,-310,-33,941,-2,8,7
485,-311,-34,941,-4,9,6
486,-311,-34,941,-3,8,8
487,-314,-35,939,-4,9,5
488,-311,-33,940,-3,9,5
489,-313,-36,939,-2,8,7
490,-315,-34,939,-4,9,7
491,-317,-34,937,-3,8,5
492,-317,-33,936,-2,8,5
493,-317,-36,936,-2,8,5
494,-317,-33,937,-3,5,6
495,-318,-35,937,-1,5,6
496,-318,-34,935,-3,5,6
497,-316,-34,936,-1,3,6
498,-315,-34,937,-5,2,6
499,-315,-33,939,-2,2,6
500,-314,-35,939,-4,0,6
501,-314,-32,940,-1,0,5
502,-313,-34,939,-5,-1,5
503,-314,-32,940,-3,-1,6
504,-314,-34,940,-4,-1,6
505,-315,-34,936,-6,-1,6
506,-315,-32,938,-6,-1,5
507,-315,-33,936,-5,-1,4
508,-316,-33,938,-2,-3,5
509,-314,-33,938,-7,-4,6
510,-312,-35,938,-3,-3,6
511,-313,-33,940,-7,-4,5
512,-313,-35,939,-4,-4,5
513,-313,-34,939,-5,-5,6
514,-311,-33,940,-4,-6,4
515,-313,-36,940,-6,-5,4
516,-312,-36,939,-4,-5,5
517,-311,-35,940,-4,-3,5
518,-311,-34,941,-6,-3,5
519,-311,-33,939,-2,-4,6
520,-313,-35,941,-6,-4,6
521,-312,-35,939,-4,-4,6
522,-314,-34,940,-7,-4,6
523,-312,-35,941,-2,-3,5
524,-309,-35,941,-7,-2,5
525,-308,-36,942,-4,-2,6
526,-306,-36,941,-5,-2,5
527,-309,-34,942,-4,-1,5
528,-307,-34,943,-6,-1,5
529,-307,-36,942,-5,0,6
530,-310,-37,941,-5,0,6
531,-311,-34,940,-3,2,6
532,-309,-35,939,-4,3,6
533,-310,-35,942,-6,3,6
534,-310,-35,940,-2,3,6
535,-308,-35,941,-5,4,6
536,-307,-35,941,0,4,7
537,-309,-33,941,-5,4,7
538,-309,-35,942,-2,5,6
539,-310,-35,942,-4,7,7
540,-308,-36,942,-1,8,6
541,-309,-36,940,-3,9,6
542,-309,-36,942,-3,9,6
543,-307,-36,940,-1,9,6
544,-307,-34,942,-1,10,6
545,-308,-35,940,-1,11,6
546,-310,-33,941,-2,11,6
547,-310,-33,941,-1,14,7
548,-309,-34,942,-4,14,7
549,-311,-33,942,0,14,6
550,-309,-32,940,-2,16,6
551,-310,-33,940,-1,16,8
552,-312,-35,941,-3,16,8
553,-313,-35,939,-1,17,7
554,-312,-34,939,-3,15,6
555,-315,-32,939,-1,16,7
556,-315,-31,939,-2,16,6
557,-316,-31,937,-2,14,7
558,-317,-35,938,-2,16,8
559,-315,-34,939,-3,15,6
560,-315,-35,937,-3,14,7
561,-314,-35,937,-4,16,7
562,-314,-36,938,-1,14,6
563,-314,-31,939,-3,14,7
564,-316,-30,939,-2,14,8
565,-317,-30,939,-5,14,7
566,-317,-31,939,-3,14,7
567,-315,-34,939,-4,14,7
568,-317,-35,937,-4,14,5
569,-317,-35,938,-3,13,5
570,-316,-34,936,-4,12,5
571,-318,-35,936,-4,11,6
572,-319,-32,936,-4,11,6
573,-320,-34,935,-1,10,6
574,-319,-33,934,-2,8,6
575,-320,-34,935,-2,8,7
576,-321,-33,936,-2,6,6
577,-320,-31,936,-1,5,6
578,-321,-29,936,-3,4,6
579,-321,-27,936,-4,3,6
580,-322,-31,936,-5,1,6
581,-321,-34,937,-5,1,4
582,-322,-35,934,-7,-1,5
583,-323,-35,934,-5,-3,5
584,-322,-34,934,-4,-4,5
585,-324,-35,934,-5,-6,5
586,-323,-33,934,-5,-9,6
587,-323,-32,936,-7,-10,5
588,-321,-30,937,-4,-12,5
589,-320,-30,936,-7,-14,5
590,-316,-33,939,-5,-13,5
591,-315,-33,938,-8,-14,5
592,-315,-32,940,-5,-15,4
593,-314,-32,938,-9,-13,4
594,-313,-31,940,-6,-14,5
595,-313,-32,940,-7,-14,5
596,-313,-33,939,-8,-14,4
597,-313,-33,940,-6,-14,4
598,-318,-35,939,-8,-14,5
599,-316,-33,939,-7,-13,4
600,-316,-35,937,-8,-13,4
601,-316,-35,937,-5,-15,4
602,-315,-36,939,-8,-15,3
603,-316,-35,938,-3,-15,4
604,-314,-35,938,-8,-15,5
605,-314,-33,940,-6,-15,3
606,-312,-33,939,-8,-15,5
607,-313,-34,939,-8,-14,5
608,-312,-34,940,-8,-14,5
609,-314,-33,939,-6,-14,5
610,-314,-33,939,-6,-15,4
611,-312,-34,939,-5,-14,4
612,-313,-34,940,-7,-14,5
613,-313,-33,940,-7,-14,4
614,-313,-33,939,-5,-14,4
615,-315,-35,938,-8,-14,3
616,-317,-33,938,-4,-14,3
617,-316,-34,937,-8,-15,2
618,-317,-33,939,-4,-15,4
619,-316,-33,936,-7,-17,4
620,-315,-32,938,-3,-16,4
621,-315,-33,938,-9,-17,3
622,-316,-33,939,-5,-17,5
623,-314,-36,940,-8,-18,4
624,-313,-33,940,-4,-18,4
625,-311,-36,940,-8,-18,5
626,-310,-33,940,-8,-18,5
627,-311,-32,941,-7,-16,5
628,-309,-33,940,-6,-16,5
629,-312,-33,941,-6,-15,5
630,-309,-34,942,-7,-14,3
631,-311,-33,941,-4,-14,4
632,-309,-33,941,-8,-14,5
633,-311,-31,942,-5,-13,4
634,-311,-35,941,-7,-12,4
635,-309,-35,940,-5,-12,4
636,-312,-33,942,-9,-11,3
637,-311,-35,940,-5,-11,4
638,-310,-35,939,-6,-11,5
639,-314,-33,940,-4,-10,5
640,-314,-34,941,-7,-9,4
641,-315,-35,939,-5,-9,4
642,-314,-36,938,-7,-10,4
643,-316,-36,938,-7,-11,4
644,-315,-35,938,-5,-12,4
645,-315,-34,938,-6,-12,5
646,-316,-35,937,-4,-13,4
647,-316,-36,938,-7,-13,4
648,-316,-34,939,-4,-14,5
649,-314,-35,939,-7,-13,4
650,-315,-34,939,-4,-15,4
651,-312,-34,940,-6,-14,4
652,-312,-35,940,-4,-13,4
653,-311,-37,939,-6,-13,5
654,-310,-35,941,-5,-12,4
655,-311,-33,940,-6,-11,5
656,-309,-32,942,-6,-11,4
657,-313,-33,941,-6,-11,5
658,-313,-34,941,-6,-10,5
659,-314,-34,941,-5,-12,4
660,-312,-33,939,-6,-12,5
661,-314,-36,939,-6,-12,4
662,-314,-36,939,-6,-12,4
663,-316,-35,939,-4,-12,4
664,-311,-35,937,-6,-12,5
665,-313,-34,939,-5,-12,5
666,-310,-36,939,-7,-12,5
667,-310,-34,940,-5,-12,5
668,-313,-34,941,-6,-13,4
669,-311,-33,941,-5,-12,5
670,-310,-33,941,-9,-11,5
671,-309,-35,941,-5,-11,4
672,-310,-36,942,-8,-11,4
673,-308,-34,942,-5,-11,5
674,-311,-35,942,-7,-10,5
675,-309,-33,941,-4,-9,5
676,-307,-34,942,-7,-9,4
677,-310,-33,940,-5,-8,5
678,-310,-33,939,-7,-9,5
679,-310,-33,943,-6,-7,5
680,-309,-34,939,-8,-8,6
681,-310,-34,941,-3,-7,5
682,-312,-34,940,-1,-6,5
683,-313,-33,938,-3,-7,5
684,-313,-34,939,-13,-8,3
685,-315,-35,938,0,-7,4
686,-315,-34,938,-9,-9,4
687,-315,-34,938,-1,-9,5
688,-317,-35,936,-8,-9,5
689,-316,-35,937,-3,-10,6
690,-316,-34,938,-7,-12,4
691,-317,-35,938,-7,-11,5
692,-316,-35,938,-7,-14,5
693,-316,-34,937,-7,-15,4
694,-316,-35,938,-6,-15,5
695,-317,-34,938,-7,-16,5
696,-315,-31,938,-7,-17,6
697,-312,-33,938,-7,-17,4
698,-314,-32,939,-7,-19,4
699,-315,-33,938,-7,-18,4
700,-314,-34,940,-8,-18,4
701,-311,-36,938,-4,-19,4
702,-313,-35,939,-7,-19,4
703,-312,-34,938,-5,-19,4
704,-313,-34,937,-11,-20,5
705,-312,-31,940,-6,-21,4
706,-310,-33,939,-8,-20,3
707,-311,-34,941,-7,-21,3
708,-310,-34,940,-9,-20,4
709,-310,-36,939,-7,-20,4
710,-308,-34,940,-6,-21,4
711,-307,-36,940,-7,-21,3
712,-307,-34,943,-5,-19,5
713,-308,-35,942,-10,-19,5
714,-307,-34,943,-6,-18,5
715,-307,-33,942,-8,-17,6
716,-308,-33,942,-5,-16,6
717,-306,-34,941,-8,-17,5
718,-306,-36,941,-6,-16,4
719,-309,-36,943,-10,-16,4
720,-307,-36,941,-6,-14,5
721,-305,-34,942,-6,-13,4
722,-306,-36,942,-5,-12,5
723,-307,-34,941,-5,-12,4
724,-306,-35,942,-5,-10,3
725,-306,-34,942,-6,-10,5
726,-307,-37,941,-7,-8,5
727,-307,-36,942,-5,-8,5
728,-308,-35,941,-6,-7,4
729,-308,-34,941,-4,-5,4
730,-308,-33,942,-7,-5,4
731,-311,-33,941,-4,-5,4
732,-310,-33,940,-6,-5,4
733,-311,-34,939,-4,-5,4
734,-311,-34,940,-6,-4,5
735,-311,-34,940,-5,-6,5
736,-312,-35,938,-6,-4,6
737,-313,-34,939,-6,-5,5
738,-310,-35,938,-5,-5,5
739,-311,-35,939,-7,-6,6
740,-313,-33,939,-7,-6,5
741,-312,-34,940,-6,-7,4
742,-313,-36,942,-5,-6,5
743,-313,-34,941,-5,-9,5
744,-313,-34,940,-5,-8,5
745,-313,-33,939,-7,-7,5
746,-312,-34,939,-7,-9,5
747,-315,-35,939,-6,-9,4
748,-314,-35,938,-5,-9,4
749,-314,-35,939,-5,-10,4
750,-315,-36,938,-7,-10,4
751,-316,-32,938,-5,-11,5
752,-316,-35,938,-6,-13,4
753,-315,-33,937,-4,-13,4
754,-317,-33,938,-7,-14,4
755,-317,-33,938,-5,-15,4
756,-316,-34,937,-8,-16,5
757,-317,-37,937,-6,-17,5
758,-315,-35,938,-7,-19,5
759,-313,-35,940,-5,-17,3
760,-310,-32,941,-9,-19,4
761,-310,-31,941,-5,-19,5
762,-309,-33,941,-8,-20,4
763,-311,-33,940,-6,-19,4
764,-309,-33,942,-8,-20,4
765,-309,-34,941,-7,-19,4
766,-310,-34,940,-8,-19,4
767,-310,-33,941,-6,-20,4
768,-306,-34,941,-6,-18,3
769,-309,-33,942,-9,-18,4
770,-309,-34,941,-6,-19,3
771,-307,-34,941,-8,-19,3
772,-308,-37,940,-7,-19,3
773,-309,-37,940,-8,-18,4
774,-309,-36,940,-6,-17,4
775,-310,-36,941,-7,-17,4
776,-309,-37,940,-5,-16,3
777,-310,-35,941,-6,-18,4
778,-308,-34,941,-6,-18,4
779,-309,-36,942,-7,-16,3
780,-308,-36,942,-8,-17,3
781,-309,-37,942,-6,-16,4
782,-306,-37,941,-8,-17,4
783,-306,-37,942,-3,-16,5
784,-305,-37,942,-7,-14,4
785,-305,-38,943,-4,-14,4
786,-305,-37,943,-7,-14,5
787,-304,-36,941,-3,-12,5
788,-302,-35,942,-6,-11,6
789,-305,-35,945,-4,-9,6
790,-303,-35,944,-6,-9,6
791,-302,-34,944,-6,-8,5
792,-301,-35,944,-5,-7,5
793,-300,-35,944,-6,-5,6
794,-302,-35,946,-4,-4,6
795,-300,-36,946,-5,-3,6
796,-300,-35,944,-3,-1,7
797,-300,-35,946,-5,-1,6
798,-299,-34,945,-2,3,5
799,-302,-34,945,-5,5,6
800,-302,-34,945,-3,6,6
801,-300,-36,945,-4,8,5
802,-302,-36,944,-1,10,6
803,-303,-35,944,-4,12,6
804,-304,-34,943,-1,12,6
805,-305,-35,941,-4,13,6
806,-307,-36,942,-2,14,6
807,-309,-36,940,-4,14,6
808,-312,-36,939,-3,15,5
809,-312,-37,940,-4,15,4
810,-313,-35,938,-2,14,5
811,-315,-37,938,-3,14,6
812,-315,-36,936,-1,11,6
813,-315,-35,937,-1,11,6
814,-316,-34,937,-3,10,5
815,-318,-33,935,-2,9,6
816,-317,-34,937,-4,8,5
817,-318,-33,937,-2,7,5
818,-316,-34,936,-4,4,6
819,-316,-34,937,-2,4,5
820,-317,-35,937,-4,2,4
821,-317,-34,936,-2,0,5
822,-316,-35,938,-4,0,5
823,-313,-33,937,-3,-2,5
824,-314,-34,937,-4,-2,6
825,-313,-33,938,-5,-2,6
826,-311,-34,940,-4,-3,5
827,-312,-35,940,-4,-4,7
828,-311,-36,940,-3,-3,6
829,-310,-34,940,-3,-4,5
830,-310,-35,941,-3,-4,4
831,-308,-36,942,-4,-3,6
832,-307,-36,942,-3,-3,5
833,-307,-34,943,-3,-2,5
834,-305,-34,943,-4,-2,5
835,-305,-37,942,-3,-1,5
836,-303,-38,944,-2,-1,5
837,-301,-37,945,-2,2,6
838,-302,-36,945,-4,3,6
839,-300,-36,945,-3,6,7
840,-300,-36,947,-4,9,6
841,-299,-35,947,-1,11,7
842,-302,-37,946,-2,12,5
843,-301,-37,945,1,17,6
844,-300,-36,947,-1,17,7
845,-301,-37,946,-1,19,7
846,-303,-35,945,0,22,7
847,-302,-35,944,0,23,7
848,-303,-36,944,2,25,7
849,-306,-34,943,0,27,7
850,-304,-35,944,0,27,7
851,-306,-35,942,1,28,8
852,-306,-35,942,2,29,8
853,-307,-35,941,2,30,7
854,-308,-37,942,3,32,6
855,-309,-35,940,2,32,7
856,-310,-36,941,2,32,8
857,-311,-33,941,1,33,6
858,-311,-33,939,-1,33,6
859,-314,-32,940,1,33,6
860,-314,-34,939,-1,33,6
861,-316,-33,938,1,33,5
862,-319,-34,937,-1,33,6
863,-321,-33,935,0,32,6
864,-320,-33,934,0,30,6
865,-321,-35,934,-1,27,6
866,-324,-33,934,0,28,7
867,-326,-31,935,-2,24,6
868,-327,-30,931,0,22,5
869,-328,-31,931,-3,19,5
870,-329,-31,930,-1,14,4
871,-330,-33,928,-3,12,5
872,-330,-32,931,-3,8,4
873,-333,-31,929,-4,4,4
874,-334,-30,929,-4,0,5
875,-332,-31,928,-3,-3,6
876,-333,-29,928,-4,-8,5
877,-330,-33,930,-6,-10,5
878,-329,-32,930,-5,-14,4
879,-327,-32,930,-4,-18,3
880,-325,-31,933,-5,-20,3
881,-321,-32,935,-6,-22,4
882,-319,-35,936,-8,-25,4
883,-317,-33,938,-7,-25,3
884,-314,-33,941,-8,-26,3
885,-310,-33,941,-8,-25,4
886,-311,-33,941,-8,-25,4
887,-308,-34,943,-7,-25,4
888,-306,-34,942,-6,-24,4
889,-306,-36,943,-9,-21,2
890,-306,-35,942,-5,-21,4
891,-305,-34,942,-8,-20,4
892,-307,-33,943,-5,-18,4
893,-307,-34,945,-7,-17,4
894,-307,-34,942,-6,-16,5
895,-308,-34,942,-7,-15,4
896,-308,-33,943,-7,-14,4
897,-306,-35,942,-6,-14,3
898,-309,-36,941,-8,-12,5
899,-306,-35,942,-5,-11,4
900,-306,-35,942,-7,-10,4
901,-305,-35,942,-5,-9,5
902,-307,-35,941,-8,-8,4
903,-304,-37,943,-6,-6,4
904,-304,-35,944,-5,-5,4
905,-303,-36,943,-4,-5,5
906,-305,-35,944,-4,-3,5
907,-304,-35,946,-4,-2,5
908,-303,-35,945,-4,-1,5
909,-303,-36,946,-5,1,6
910,-305,-35,944,-5,4,5
911,-304,-35,944,-3,4,5
912,-308,-35,942,-4,5,5
913,-309,-36,941,-3,8,5
914,-313,-35,942,-4,6,5
915,-314,-33,940,-4,8,4
916,-313,-34,939,-5,8,5
917,-316,-33,937,-5,6,5
918,-318,-33,938,-4,6,5
919,-317,-34,937,-4,5,3
920,-319,-35,933,-3,3,2
921,-321,-35,930,-5,1,0
922,-321,-33,930,-1,-1,-3
923,-321,-29,929,3,-6,-9
924,-320,-25,932,5,-9,-18
925,-318,-20,936,9,-12,-27
926,-315,-21,941,9,-14,-36
927,-311,-21,940,11,-14,-45
928,-304,-26,945,9,-15,-49
929,-302,-30,950,11,-13,-49
930,-303,-37,945,6,-9,-46
931,-304,-40,942,7,-7,-40
932,-303,-44,942,4,-6,-34
933,-307,-46,941,6,-3,-29
934,-312,-43,939,6,-2,-26
935,-318,-35,938,6,-2,-22
936,-316,-32,939,4,-2,-17
937,-320,-32,939,-2,-3,-13
938,-324,-36,933,-2,-2,-7
939,-324,-41,932,-5,-4,-3
940,-323,-42,933,-3,-6,0
941,-324,-41,929,-6,-8,3
942,-322,-40,931,-3,-11,3
943,-320,-34,936,-4,-13,5
944,-317,-30,936,-4,-14,6
945,-316,-33,939,-5,-15,6
946,-313,-33,940,-6,-16,7
947,-308,-34,942,-5,-15,6
948,-305,-32,942,-7,-15,5
949,-305,-34,942,-5,-13,6
950,-307,-36,943,-5,-13,5
951,-304,-35,943,-4,-10,5
952,-302,-34,944,-3,-9,6
953,-305,-35,945,-4,-7,6
954,-304,-35,944,-6,-7,5
955,-306,-33,942,-4,-5,5
956,-304,-34,943,-5,-4,5
957,-305,-37,942,-5,-3,5
958,-307,-35,943,-2,-1,6
959,-305,-34,944,-3,-1,5
960,-307,-34,943,-4,1,6
961,-309,-34,942,-3,1,5
962,-309,-35,943,-3,3,5
963,-307,-32,942,-3,3,5
964,-309,-31,941,-5,4,6
965,-310,-34,940,-5,5,5
966,-310,-33,939,-5,5,5
967,-311,-33,939,-4,6,4
968,-313,-32,938,-5,5,4
969,-315,-33,937,-3,6,4
970,-318,-31,936,-5,5,5
971,-316,-32,935,-4,3,5
972,-318,-33,934,-5,3,4
973,-321,-36,933,-4,1,5
974,-323,-34,934,-3,-1,5
975,-320,-34,934,-5,-4,4
976,-323,-34,934,-4,-5,5
977,-323,-34,935,-6,-7,4
978,-321,-35,934,-4,-9,3
979,-319,-33,934,-6,-10,4
980,-320,-33,936,-4,-12,4
981,-317,-36,937,-8,-14,4
982,-318,-34,937,-5,-13,4
983,-318,-33,937,-4,-15,5
984,-313,-35,938,-4,-16,4
985,-312,-36,938,-5,-16,5
986,-311,-36,939,-7,-17,4
987,-311,-36,941,-3,-17,4
988,-309,-35,943,-6,-16,4
989,-308,-36,941,-3,-15,5
990,-309,-36,941,-6,-15,4
991,-309,-35,941,-2,-12,5
992,-308,-36,942,-4,-13,5
993,-307,-36,944,-4,-11,6
994,-306,-35,943,-3,-11,5
995,-304,-35,944,-3,-10,4
996,-304,-35,944,-1,-7,4
997,-303,-34,943,-5,-7,4
998,-301,-33,944,-1,-6,5
999,-301,-34,946,-5,-3,5
1000,-301,-33,945,0,-1,5
1001,-300,-37,945,-5,1,4
1002,-300,-36,945,1,4,5
1003,-301,-33,945,-4,6,5
1004,-302,-34,945,1,8,6
1005,-301,-34,946,-2,11,5
1006,-300,-35,945,-1,12,6
1007,-303,-34,945,-3,14,6
1008,-304,-34,944,-1,16,7
1009,-304,-34,942,-1,18,6
1010,-304,-35,943,-1,19,6
1011,-304,-34,945,-1,22,6
1012,-303,-34,944,-3,23,7
1013,-304,-34,944,1,24,7
1014,-305,-35,943,-3,27,6
1015,-305,-33,943,0,28,6
1016,-308,-35,942,-3,27,7
1017,-310,-34,942,-1,27,6
1018,-311,-32,941,-4,30,7
1019,-313,-33,938,3,29,7
1020,-317,-32,936,-6,28,6
1021,-318,-34,936,4,28,6
1022,-318,-34,937,-2,27,7
1023,-320,-34,935,-1,26,6
1024,-322,-33,935,0,25,5
1025,-324,-32,935,-4,23,6
1026,-322,-33,933,2,20,6
1027,-323,-33,934,-5,19,6
1028,-322,-33,934,2,16,6
1029,-323,-33,936,-4,15,6
1030,-319,-34,934,2,15,6
1031,-324,-33,935,-6,12,5
1032,-323,-33,935,1,10,5
1033,-323,-33,933,-5,9,5
1034,-325,-32,933,-1,6,4
1035,-324,-31,934,-5,5,4
1036,-325,-32,934,-2,4,5
1037,-326,-32,933,-6,0,5
1038,-327,-30,933,-4,-1,4
1039,-327,-33,931,-6,-3,4
1040,-327,-32,932,-4,-6,4
1041,-327,-29,933,-5,-9,4
1042,-327,-29,932,-7,-11,4
1043,-326,-30,932,-6,-14,4
1044,-325,-30,934,-8,-16,4
1045,-325,-29,935,-6,-18,4
1046,-323,-30,936,-8,-19,3
1047,-323,-32,934,-8,-19,3
1048,-321,-32,935,-9,-23,4
1049,-320,-32,935,-10,-23,3
1050,-320,-32,936,-9,-25,3
1051,-321,-33,937,-9,-28,3
1052,-320,-32,938,-9,-28,3
1053,-320,-34,935,-11,-28,2
1054,-319,-33,936,-10,-29,2
1055,-317,-33,936,-12,-30,1
1056,-317,-33,937,-9,-31,2
1057,-315,-33,939,-12,-32,3
1058,-314,-33,939,-8,-32,3
1059,-311,-33,939,-12,-33,3
1060,-312,-34,939,-8,-31,2
1061,-312,-34,942,-10,-32,2
1062,-311,-34,939,-8,-32,3
1063,-312,-36,941,-11,-32,2
1064,-308,-34,941,-8,-31,2
1065,-308,-37,942,-9,-30,3
1066,-308,-38,942,-10,-30,3
1067,-307,-38,942,-7,-29,3
1068,-306,-37,943,-9,-26,3
1069,-304,-36,943,-6,-26,3
1070,-303,-38,944,-9,-25,4
1071,-301,-37,944,-6,-24,2
1072,-302,-36,944,-7,-22,4
1073,-302,-37,943,-5,-20,3
1074,-300,-37,944,-8,-19,4
1075,-300,-36,946,-7,-16,6
1076,-298,-37,945,-6,-13,6
1077,-299,-39,945,-4,-11,5
1078,-301,-38,944,-4,-9,6
1079,-297,-38,945,-4,-5,6
1080,-297,-34,945,-2,-4,6
1081,-297,-34,947,-4,-2,7
1082,-296,-36,949,-3,1,8
1083,-292,-35,951,-4,4,6
1084,-291,-37,951,-3,9,5
1085,-291,-39,949,-3,13,7
1086,-297,-37,947,-1,16,8
1087,-295,-36,948,0,19,7
1088,-300,-36,946,-2,22,6
1089,-302,-35,946,0,24,6
1090,-303,-35,944,-2,26,6
1091,-304,-35,944,1,28,7
1092,-307,-35,941,-1,29,7
1093,-308,-36,943,2,31,7
1094,-309,-35,941,0,33,7
1095,-310,-35,941,2,33,7
1096,-312,-34,939,-1,34,8
1097,-313,-34,939,1,33,7
1098,-313,-33,940,-1,33,7
1099,-314,-34,939,3,34,7
1100,-316,-34,938,-2,32,8
1101,-316,-33,937,1,32,9
1102,-316,-33,936,-2,31,9
1103,-317,-32,937,1,31,7
1104,-319,-34,937,-1,30,8
1105,-320,-33,935,0,30,8
1106,-318,-32,935,0,29,8
1107,-320,-33,934,-1,28,8
1108,-320,-32,935,2,27,7
1109,-320,-32,934,-2,26,6
1110,-322,-32,935,0,24,7
1111,-323,-34,935,-2,22,8
1112,-321,-30,935,0,21,7
1113,-325,-34,934,-2,20,7
1114,-325,-31,934,-3,17,6
1115,-327,-32,932,-3,15,5
1116,-326,-31,931,-2,14,6
1117,-328,-31,932,-3,10,5
1118,-329,-30,931,-4,8,6
1119,-329,-31,930,-5,6,6
1120,-330,-30,930,-3,3,6
1121,-331,-30,931,-6,-1,4
1122,-329,-30,930,-5,-2,4
1123,-330,-31,932,-6,-7,5
1124,-329,-31,933,-5,-10,5
1125,-329,-31,933,-6,-12,5
1126,-326,-30,934,-6,-14,5
1127,-324,-32,934,-7,-15,4
1128,-321,-34,935,-8,-16,4
1129,-321,-34,935,-7,-18,3
1130,-319,-34,937,-9,-19,4
1131,-318,-34,938,-8,-20,4
1132,-314,-34,938,-8,-21,4
1133,-316,-32,939,-7,-21,5
1134,-316,-35,938,-9,-21,3
1135,-315,-35,940,-9,-21,4
1136,-314,-36,941,-8,-21,4
1137,-313,-36,941,-8,-20,3
1138,-312,-35,941,-8,-20,4
1139,-313,-36,940,-7,-19,4
1140,-309,-35,941,-8,-18,4
1141,-309,-33,940,-5,-18,4
1142,-309,-33,941,-7,-16,4
1143,-310,-36,943,-5,-15,5
1144,-309,-34,942,-8,-15,4
1145,-307,-36,943,-4,-14,3
1146,-307,-35,942,-5,-13,5
1147,-306,-34,943,-5,-11,5
1148,-305,-35,944,-4,-9,4
1149,-305,-36,943,-6,-9,5
1150,-305,-36,942,-2,-7,6
1151,-305,-34,943,-4,-5,5
1152,-306,-34,942,-3,-4,5
1153,-309,-34,941,-6,-1,5
1154,-307,-36,941,-4,-1,5
1155,-308,-37,942,-5,0,5
1156,-309,-34,941,-4,2,6
1157,-310,-36,941,-4,2,4
1158,-312,-34,942,-3,3,4
1159,-314,-35,941,-3,3,6
1160,-314,-33,939,-4,4,4
1161,-312,-34,940,-3,4,5
1162,-314,-33,940,-6,4,6
1163,-312,-33,940,-2,4,6
1164,-313,-33,940,-5,4,6
1165,-312,-34,940,-3,5,6
1166,-311,-33,939,-4,5,6
1167,-312,-34,939,-4,5,6
1168,-312,-34,940,-2,4,6
1169,-311,-34,940,-5,5,6
1170,-312,-33,940,-3,6,7
1171,-310,-35,940,-5,4,6
1172,-309,-34,942,-1,6,6
1173,-307,-34,940,-3,7,6
1174,-309,-36,942,-2,8,6
1175,-309,-35,941,-4,8,5
1176,-309,-35,940,-2,10,5
1177,-306,-37,942,-3,11,6
1178,-309,-35,942,-1,13,7
1179,-309,-35,942,-2,14,7
1180,-310,-34,942,-1,15,6
1181,-310,-33,941,-2,16,4
1182,-310,-33,940,-1,16,5
1183,-312,-35,941,0,17,5
1184,-311,-37,939,-1,18,5
1185,-311,-36,940,-1,18,4
1186,-311,-36,940,-2,20,5
1187,-313,-36,940,-1,20,6
1188,-312,-35,939,-2,20,6
1189,-315,-34,937,0,21,5
1190,-315,-35,940,-1,21,5
1191,-316,-32,939,-1,20,7
1192,-318,-34,938,-1,21,6
1193,-316,-35,937,1,20,5
1194,-317,-34,937,-1,20,6
1195,-319,-35,937,2,20,7
1196,-318,-34,937,-1,18,6
1197,-318,-32,937,1,18,5
1198,-320,-31,938,0,17,6
1199,-320,-32,938,0,17,7
1200,-318,-30,938,-1,17,6
1201,-319,-31,938,0,17,5
1202,-317,-33,937,1,16,5
1203,-318,-31,936,-2,16,4
1204,-318,-33,936,1,12,1
1205,-319,-30,935,3,12,-3
1206,-320,-29,935,5,9,-12
1207,-318,-27,935,7,7,-22
1208,-316,-24,936,12,5,-32
1209,-312,-23,938,13,4,-42
1210,-312,-20,944,16,5,-49
1211,-308,-24,942,14,5,-52
1212,-306,-24,944,17,7,-52
1213,-306,-30,945,12,10,-51
1214,-307,-36,943,12,12,-47
1215,-308,-44,945,8,15,-43
1216,-312,-42,943,10,18,-37
1217,-313,-43,938,8,20,-30
1218,-318,-41,937,5,20,-25
1219,-324,-43,936,6,20,-20
1220,-325,-37,935,4,20,-19
1221,-325,-33,933,8,19,-17
1222,-330,-30,935,3,18,-12
1223,-329,-34,931,1,16,-10
1224,-330,-37,933,-1,14,-5
1225,-328,-40,930,-1,12,-4
1226,-330,-38,931,0,10,-2
1227,-328,-36,932,-2,8,1
1228,-327,-32,930,0,6,4
1229,-327,-31,934,-3,4,4
1230,-324,-33,933,-1,4,5
1231,-326,-30,934,-4,0,4
1232,-324,-30,934,-1,0,4
1233,-321,-30,934,-4,-1,4
1234,-323,-29,935,-3,-2,4
1235,-323,-32,934,-3,-3,4
1236,-320,-32,933,-4,-5,4
1237,-322,-34,935,-2,-5,4
1238,-323,-32,935,-4,-6,4
1239,-323,-33,933,-3,-8,4
1240,-325,-32,936,-5,-9,3
1241,-323,-34,935,-4,-9,3
1242,-322,-35,936,-5,-11,3
1243,-322,-34,936,-6,-12,3
1244,-321,-33,936,-5,-13,3
1245,-322,-34,936,-6,-14,4
1246,-321,-33,936,-5,-15,4
1247,-317,-35,937,-6,-14,3
1248,-316,-33,940,-5,-16,5
1249,-315,-34,941,-7,-16,5
1250,-314,-34,941,-6,-14,6
1251,-313,-33,940,-7,-14,5
1252,-310,-33,940,-6,-12,6
1253,-308,-33,943,-5,-11,4
1254,-308,-33,942,-6,-10,4
1255,-308,-32,942,-6,-8,4
1256,-307,-33,943,-4,-6,5
1257,-308,-34,944,-5,-5,4
1258,-307,-35,942,-6,-3,4
1259,-309,-36,942,-5,-2,4
1260,-307,-34,941,-5,1,4
1261,-309,-35,942,-3,1,4
1262,-310,-34,940,-3,3,5
1263,-310,-35,940,-3,5,5
1264,-310,-35,940,-4,6,5
1265,-312,-37,940,-1,7,6
1266,-312,-35,941,-5,7,5
1267,-314,-35,939,-1,8,5
1268,-313,-34,939,-3,10,6
1269,-311,-35,941,-2,10,6
1270,-311,-36,941,-1,12,6
1271,-311,-33,942,-2,13,7
1272,-311,-35,942,0,14,7
1273,-309,-33,942,-2,14,7
1274,-310,-34,942,1,15,7
1275,-310,-35,940,-2,17,7
1276,-311,-36,941,2,18,8
1277,-312,-34,941,-4,20,8
1278,-315,-35,939,2,21,7
1279,-315,-34,939,-2,21,7
1280,-314,-33,939,2,23,8
1281,-317,-33,938,-1,22,8
1282,-318,-33,936,0,22,7
1283,-319,-35,937,-1,22,7
1284,-320,-34,936,-1,22,7
1285,-322,-34,936,1,20,7
1286,-325,-34,934,-1,20,7
1287,-323,-31,935,1,19,7
1288,-324,-31,935,-3,18,8
1289,-324,-30,935,0,18,8
1290,-324,-30,935,-5,17,7
1291,-323,-32,936,0,17,9
1292,-323,-34,936,-3,15,7
1293,-322,-33,935,0,15,7
1294,-322,-31,936,-5,14,8
1295,-324,-32,936,-2,14,8
1296,-324,-29,935,-3,12,7
1297,-325,-33,934,-2,12,7
1298,-326,-32,934,-4,10,6
1299,-327,-33,935,-4,7,6
1300,-326,-31,934,-3,8,6
1301,-329,-31,932,-5,6,6
1302,-327,-30,932,-3,5,6
1303,-330,-31,933,-6,4,5
1304,-325,-32,933,-4,1,6
1305,-326,-32,932,-5,1,6
1306,-325,-32,933,-4,-1,5
1307,-327,-33,932,-6,-3,5
1308,-327,-31,934,-6,-5,5
1309,-326,-33,933,-5,-5,6
1310,-325,-34,933,-4,-5,6
1311,-326,-34,935,-2,-7,5
1312,-325,-33,932,-5,-8,5
1313,-325,-30,934,-5,-11,5
1314,-327,-33,933,-5,-11,5
1315,-325,-32,934,-5,-12,5
1316,-325,-32,934,-4,-14,5
1317,-326,-32,933,-7,-15,5
1318,-324,-32,934,-7,-16,5
1319,-324,-32,936,-7,-18,4
1320,-324,-35,934,-6,-19,4
1321,-324,-34,933,-6,-19,4
1322,-323,-34,934,-5,-21,6
1323,-322,-33,936,-5,-22,6
1324,-321,-31,935,-6,-22,4
1325,-319,-31,938,-6,-22,5
1326,-317,-32,938,-8,-23,6
1327,-316,-32,939,-5,-23,5
1328,-315,-33,939,-8,-21,4
1329,-316,-32,940,-7,-22,5
1330,-314,-33,940,-8,-21,5
1331,-312,-32,940,-7,-18,4
1332,-313,-33,941,-6,-19,3
1333,-312,-33,941,-7,-18,4
1334,-313,-32,941,-9,-16,4
1335,-311,-33,941,-6,-16,4
1336,-311,-34,941,-7,-13,4
1337,-312,-34,941,-5,-13,4
1338,-313,-33,940,-8,-12,3
1339,-315,-33,939,-6,-12,3
1340,-316,-35,941,-8,-11,3
1341,-317,-34,939,-6,-11,4
1342,-315,-35,937,-7,-10,3
1343,-317,-35,938,-4,-7,3
1344,-316,-34,938,-7,-9,3
1345,-316,-34,938,-5,-9,4
1346,-318,-33,938,-9,-8,4
1347,-319,-33,937,-4,-9,3
1348,-318,-35,937,-5,-8,4
1349,-318,-34,937,-5,-8,4
1350,-317,-34,937,-5,-8,5
1351,-317,-35,936,-4,-8,5
1352,-319,-35,936,-3,-8,4
1353,-319,-35,937,-9,-6,6
1354,-320,-33,938,2,-9,4
1355,-318,-34,938,-3,-8,5
1356,-319,-34,938,-2,-8,3
1357,-320,-32,937,-8,-10,4
1358,-319,-33,936,1,-9,5
1359,-320,-34,938,-10,-8,5
1360,-321,-34,936,-1,-10,5
1361,-318,-32,935,-9,-11,4
1362,-322,-32,936,-2,-11,5
1363,-321,-33,936,-6,-12,5
1364,-321,-31,937,-4,-12,4
1365,-320,-31,937,-6,-12,5
1366,-320,-32,937,-7,-13,4
1367,-321,-31,935,-4,-15,4
1368,-319,-32,937,-7,-15,4
1369,-322,-32,936,-7,-15,6
1370,-322,-31,938,-8,-16,5
1371,-319,-30,938,-6,-15,4
1372,-318,-31,938,-8,-16,4
1373,-316,-30,937,-7,-16,4
1374,-319,-32,937,-7,-17,3
1375,-320,-33,937,-8,-18,4
1376,-318,-34,936,-7,-18,4
1377,-319,-33,937,-8,-18,3
1378,-319,-34,936,-8,-19,4
1379,-318,-35,938,-10,-20,4
1380,-315,-35,938,-8,-19,3
1381,-316,-32,938,-7,-20,3
1382,-316,-33,939,-6,-19,4
1383,-314,-33,939,-8,-18,6
1384,-314,-33,940,-8,-18,5
1385,-313,-33,941,-7,-18,5
1386,-314,-35,941,-7,-17,3
1387,-314,-34,939,-5,-17,4
1388,-313,-34,940,-7,-15,4
1389,-311,-35,941,-4,-14,5
1390,-311,-33,940,-6,-14,6
1391,-310,-33,943,-5,-12,4
1392,-309,-34,941,-7,-12,5
1393,-308,-35,941,-6,-11,4
1394,-312,-36,942,-5,-9,4
1395,-311,-35,941,-5,-7,4
1396,-309,-35,942,-4,-6,5
1397,-308,-35,942,-5,-5,6
1398,-308,-34,942,-2,-3,6
1399,-309,-34,943,-6,-2,5
1400,-308,-33,943,-2,-1,6
1401,-309,-34,942,-4,1,6
1402,-307,-35,943,-3,3,6
1403,-308,-33,942,-4,4,6
1404,-309,-33,943,-3,6,7
1405,-309,-32,943,-2,7,5
1406,-309,-34,942,-4,9,5
1407,-313,-33,941,-3,10,5
1408,-311,-33,941,-3,10,5
1409,-311,-35,940,-1,11,6
1410,-315,-34,939,-4,12,7
1411,-315,-35,937,-1,13,7
1412,-316,-32,939,-5,14,7
1413,-316,-33,938,-3,13,6
1414,-315,-33,938,-3,14,7
1415,-316,-34,936,-3,14,6
1416,-319,-34,939,-1,14,5
1417,-318,-35,936,-4,14,6
1418,-321,-32,936,-1,14,7
1419,-321,-32,935,-5,11,7
1420,-322,-34,935,-1,12,7
1421,-322,-33,933,-4,11,6
1422,-322,-34,935,-1,10,6
1423,-324,-33,934,-4,9,7
1424,-323,-32,933,-3,8,7
1425,-323,-33,934,-3,6,6
1426,-321,-34,935,-3,6,6
1427,-321,-35,936,-2,4,7
1428,-322,-33,935,-4,4,6
1429,-320,-36,936,0,4,5
1430,-319,-32,936,-4,3,6
1431,-319,-33,937,0,3,7
1432,-317,-35,937,-5,2,7
1433,-317,-34,938,-2,3,6
1434,-318,-33,938,-3,2,5
1435,-318,-32,938,-3,3,7
1436,-318,-34,938,-4,3,6
1437,-316,-31,939,-3,3,6
1438,-316,-31,938,-3,4,7
1439,-318,-32,938,-4,5,6
1440,-317,-32,938,-2,5,5
1441,-318,-33,938,-4,6,5
1442,-317,-34,938,-1,6,5
1443,-319,-33,937,-3,5,6
1444,-320,-32,937,-2,5,6
1445,-319,-33,937,-3,4,5
1446,-319,-34,936,-2,4,5
1447,-318,-32,936,-3,5,6
1448,-320,-33,938,-5,4,6
1449,-319,-34,937,-1,3,4
1450,-320,-34,938,-5,4,5
1451,-320,-32,939,-3,3,6
1452,-321,-31,938,-4,3,5
1453,-320,-32,938,-3,3,5
1454,-317,-34,938,-5,2,5
1455,-319,-34,936,-4,3,5
1456,-320,-33,935,-4,2,6
1457,-319,-34,934,-4,1,5
1458,-321,-34,936,-3,2,6
1459,-322,-32,936,-4,1,5
1460,-321,-33,935,-3,0,6
1461,-320,-31,936,-6,0,4
1462,-321,-32,936,-3,1,4
1463,-320,-32,937,-6,-1,5
1464,-321,-33,936,-1,-1,5
1465,-318,-33,938,-6,-2,7
1466,-317,-34,939,-4,-3,6
1467,-318,-34,938,-6,-1,5
1468,-315,-32,939,-3,-1,5
1469,-315,-32,938,-4,0,6
1470,-315,-32,940,-3,-1,4
1471,-316,-34,938,-4,0,5
1472,-316,-34,940,-5,0,5
1473,-317,-34,939,-3,3,5
1474,-318,-32,939,-6,3,5
1475,-319,-31,937,-3,2,5
1476,-318,-32,937,-7,3,6
1477,-319,-33,937,-3,3,5
1478,-320,-33,938,-6,4,5
1479,-321,-33,937,-2,4,6
1480,-320,-33,936,-4,4,4
1481,-325,-34,935,-4,3,6
1482,-321,-32,935,-5,2,5
1483,-324,-34,935,-3,1,5
1484,-323,-33,935,-3,0,6
1485,-325,-32,934,-5,0,6
1486,-325,-32,934,-4,-2,5
1487,-324,-31,934,-5,-3,4
1488,-323,-35,936,-4,-3,4
1489,-323,-30,934,-7,-4,5
1490,-322,-33,934,-4,-5,6
1491,-321,-34,936,-5,-5,5
1492,-319,-32,936,-3,-6,5
1493,-317,-32,937,-5,-6,4
1494,-317,-32,939,-4,-6,4
1495,-317,-34,939,-7,-6,4
1496,-317,-33,941,-5,-6,5
1497,-317,-34,939,-4,-5,3
1498,-316,-35,938,-6,-5,3
1499,-319,-32,937,-3,-4,5
1500,-318,-34,939,-5,-4,5
1501,-318,-34,938,-4,-4,5
1502,-320,-32,936,-6,-5,4
1503,-320,-32,938,-4,-3,5
1504,-319,-30,938,-6,-4,5
1505,-317,-33,938,-5,-4,5
1506,-319,-31,937,-7,-4,6
1507,-318,-35,937,-5,-4,5
1508,-317,-34,938,-7,-4,5
1509,-319,-37,938,-5,-3,6
1510,-318,-35,938,-5,-4,6
1511,-318,-34,938,-5,-3,5
1512,-316,-32,937,-5,-2,6
1513,-319,-33,938,-4,-3,5
1514,-317,-32,939,-2,-2,4
1515,-320,-31,938,-5,-3,5
1516,-318,-31,938,-2,-2,5
1517,-319,-33,938,-7,-2,6
1518,-320,-35,937,-5,-2,5
1519,-320,-34,937,-6,-2,4
1520,-320,-33,937,-3,-3,4
1521,-319,-33,937,-6,-3,5
1522,-319,-32,936,-5,-2,5
1523,-322,-33,937,-5,-3,5
1524,-321,-32,936,-5,-3,6
1525,-322,-33,935,-3,-4,5
1526,-323,-32,936,-5,-4,5
1527,-324,-33,936,-4,-4,5
1528,-323,-31,936,-7,-6,4
1529,-324,-32,937,-4,-6,4
1530,-324,-34,936,-5,-8,5
1531,-325,-33,934,-4,-9,6
1532,-324,-33,935,-7,-10,5
1533,-324,-33,937,-6,-10,5
1534,-321,-33,935,-6,-12,4
1535,-322,-34,936,-7,-11,6
1536,-321,-34,937,-7,-12,5
1537,-317,-32,937,-5,-12,5
1538,-317,-33,938,-4,-13,5
1539,-316,-33,938,-5,-12,6
1540,-315,-33,940,-5,-12,6
1541,-313,-35,941,-6,-11,5
1542,-313,-32,941,-6,-10,5
1543,-313,-34,941,-5,-10,5
1544,-313,-35,941,-5,-8,6
1545,-312,-34,940,-7,-7,6
1546,-314,-33,941,-3,-5,6
1547,-315,-32,940,-7,-5,5
1548,-314,-33,939,-4,-4,5
1549,-316,-35,940,-7,-3,6
1550,-315,-33,939,-5,-2,5
1551,-315,-35,938,-4,-1,5
1552,-314,-34,939,-4,-1,5
1553,-316,-33,938,-5,-1,5
1554,-315,-33,938,-5,0,5
1555,-319,-33,937,-4,-1,6
1556,-319,-34,939,-3,1,6
1557,-316,-35,938,-4,1,5
1558,-318,-33,938,-5,1,4
1559,-318,-32,937,-3,2,6
1560,-318,-33,938,-5,1,6
1561,-318,-32,937,-3,2,6
1562,-320,-33,935,-4,2,6
1563,-321,-31,934,-3,0,5
1564,-324,-33,935,-6,-1,5
1565,-324,-33,935,-4,0,4
1566,-326,-32,934,-4,-2,4
1567,-326,-31,934,-4,-2,5
1568,-327,-32,934,-8,-3,5
1569,-327,-33,933,-4,-6,4
1570,-328,-34,932,-2,-8,4
1571,-327,-32,932,-6,-9,5
1572,-325,-31,935,-4,-11,5
1573,-326,-32,934,-6,-12,4
1574,-323,-33,935,-5,-12,4
1575,-322,-32,934,-8,-13,4
1576,-323,-33,935,-6,-15,5
1577,-320,-34,935,-6,-16,4
1578,-321,-34,937,-4,-16,5
1579,-321,-34,936,-8,-16,5
1580,-320,-33,936,-6,-17,4
1581,-320,-30,937,-7,-16,5
1582,-318,-33,937,-5,-17,4
1583,-318,-32,939,-7,-17,4
1584,-319,-33,938,-7,-16,4
1585,-317,-35,937,-7,-17,3
1586,-318,-34,938,-9,-16,4
1587,-318,-35,938,-7,-17,5
1588,-317,-34,938,-5,-16,5
1589,-318,-34,938,-5,-16,4
1590,-317,-34,938,-7,-15,4
1591,-315,-34,940,-6,-15,4
1592,-315,-34,940,-6,-15,4
1593,-314,-34,941,-4,-14,4
1594,-313,-35,940,-5,-13,3
1595,-311,-34,939,-4,-12,4
1596,-312,-33,941,-7,-10,5
1597,-310,-34,942,-4,-10,5
1598,-313,-34,942,-6,-8,6
1599,-310,-34,942,-4,-6,5
1600,-310,-31,942,-7,-5,5
1601,-311,-34,942,-3,-4,5
1602,-312,-34,943,-5,-3,4
1603,-312,-33,940,-3,-1,6
1604,-313,-34,941,-5,-1,5
1605,-311,-33,940,-4,2,5
1606,-314,-35,940,-5,2,5
1607,-314,-35,940,-3,4,5
1608,-314,-35,939,-3,5,5
1609,-316,-35,938,-3,5,5
1610,-317,-34,939,-4,6,7
1611,-319,-33,938,-3,5,7
1612,-318,-32,938,-3,5,5
1613,-318,-32,937,-5,4,6
1614,-320,-34,936,-3,4,5
1615,-319,-34,935,-5,3,6
1616,-319,-33,936,0,4,6
1617,-319,-34,936,-4,4,6
1618,-320,-31,937,-1,3,6
1619,-318,-31,938,-5,3,6
1620,-319,-35,937,-3,4,6
1621,-318,-35,936,-4,3,7
1622,-317,-33,939,-2,2,6
1623,-317,-34,939,-3,3,5
1624,-318,-34,938,-3,3,6
1625,-320,-32,938,0,3,6
1626,-317,-33,937,-3,4,5
1627,-318,-32,940,-4,4,6
1628,-318,-33,938,-4,3,6
1629,-317,-31,937,-2,4,5
1630,-316,-32,938,-4,3,5
1631,-317,-33,937,-4,3,6
1632,-318,-34,939,-4,3,5
1633,-316,-32,938,-4,4,6
1634,-315,-35,940,-4,4,8
1635,-317,-36,939,-2,5,6
1636,-313,-34,938,-4,5,6
1637,-316,-33,937,-4,5,7
1638,-317,-33,938,-3,6,6
1639,-319,-33,939,-4,6,6
1640,-317,-34,937,-4,7,7
1641,-316,-34,938,-4,8,6
1642,-316,-35,937,-3,10,6
1643,-317,-33,939,-3,8,5
1644,-318,-33,937,0,8,5
1645,-319,-32,938,-3,8,6
1646,-318,-32,938,-2,9,7
1647,-319,-32,939,-5,9,7
1648,-320,-31,937,-2,9,6
1649,-320,-34,937,-3,10,6
1650,-320,-34,936,-2,9,5
1651,-324,-32,936,-1,8,5
1652,-321,-32,935,-2,8,5
1653,-321,-34,937,-1,8,5
1654,-323,-34,936,-5,7,6
1655,-324,-34,935,-2,5,6
1656,-324,-32,935,-4,6,6
1657,-325,-31,934,-1,5,7
1658,-323,-31,935,-4,4,7
1659,-322,-30,936,-1,3,7
1660,-321,-32,934,-8,3,5
1661,-322,-32,936,-3,1,5
1662,-323,-32,935,-5,1,5
1663,-322,-33,936,-3,1,5
1664,-323,-31,936,-6,0,5
1665,-323,-32,936,-4,-1,5
1666,-323,-32,936,-3,-1,4
1667,-324,-33,935,-5,-3,5
1668,-322,-32,935,-3,-3,5
1669,-323,-31,935,-5,-5,6
1670,-323,-33,935,-3,-4,5
1671,-322,-32,935,-4,-5,6
1672,-322,-32,937,-3,-5,5
1673,-320,-33,936,-4,-7,5
1674,-319,-32,937,-3,-6,6
1675,-320,-33,937,-4,-5,6
1676,-317,-33,938,-3,-7,6
1677,-318,-33,938,-5,-6,5
1678,-320,-32,938,-4,-5,6
1679,-317,-32,937,-6,-7,5
1680,-318,-33,937,-4,-6,5
1681,-321,-33,937,-5,-5,5
1682,-319,-31,938,-5,-5,6
1683,-319,-31,939,-5,-5,6
1684,-317,-32,938,-4,-5,5
1685,-320,-32,938,-4,-5,6
1686,-319,-33,937,-6,-3,5
1687,-320,-34,938,-3,-4,4
1688,-321,-33,938,-7,-5,4
1689,-319,-32,936,-3,-3,4
1690,-321,-32,936,-16,-2,6
1691,-322,-32,936,-5,-4,5
1692,-320,-33,935,-6,-4,4
1693,-321,-33,936,0,-5,4
1694,-324,-34,935,-12,-4,4
1695,-325,-32,937,1,-5,6
1696,-322,-30,935,-9,-6,5
1697,-322,-32,937,-1,-7,4
1698,-321,-31,936,-7,-7,6
1699,-324,-31,935,-2,-8,5
1700,-323,-33,935,-7,-8,6
1701,-323,-34,936,-5,-9,4
1702,-322,-32,937,-6,-9,5
1703,-321,-33,937,-6,-11,4
1704,-322,-31,936,-4,-10,4
1705,-321,-32,935,-6,-11,5
1706,-320,-31,938,-6,-12,6
1707,-320,-32,938,-6,-10,4
1708,-319,-32,938,-5,-10,4
1709,-319,-31,937,-5,-11,4
1710,-318,-33,937,-5,-11,6
1711,-319,-33,939,-6,-11,4
1712,-317,-34,939,-6,-10,4
1713,-319,-32,938,-7,-10,3
1714,-319,-33,937,-5,-11,5
1715,-318,-35,939,-7,-9,5
1716,-317,-35,938,-5,-9,4
1717,-317,-34,938,-8,-10,3
1718,-319,-34,936,-4,-9,4
1719,-319,-33,936,-7,-9,4
1720,-320,-33,937,-3,-10,5
1721,-321,-32,937,-5,-8,5
1722,-322,-33,936,-5,-8,5
1723,-321,-33,938,-5,-10,4
1724,-321,-34,936,-6,-9,5
1725,-322,-32,936,-6,-10,5
1726,-319,-34,934,-5,-10,4
1727,-322,-34,937,-4,-10,5
1728,-320,-32,936,-6,-11,5
1729,-319,-32,938,-4,-12,4
1730,-318,-32,938,-7,-12,4
1731,-316,-34,939,-5,-10,5
1732,-317,-33,938,-6,-11,4
1733,-316,-32,940,-4,-9,5
1734,-314,-33,938,-6,-10,4
1735,-315,-33,939,-5,-8,5
1736,-318,-34,940,-6,-7,5
1737,-315,-33,938,-4,-8,4
1738,-317,-32,939,-5,-8,5
1739,-320,-33,938,-6,-7,5
1740,-317,-32,937,-5,-8,4
1741,-319,-33,938,-6,-7,4
1742,-320,-32,938,-4,-6,5
1743,-320,-34,938,-6,-7,5
1744,-318,-35,936,-5,-6,5
1745,-318,-33,938,-8,-7,5
1746,-319,-34,937,-6,-6,5
1747,-317,-34,937,-4,-6,5
1748,-316,-35,938,-5,-6,5
1749,-316,-33,938,-4,-7,5
1750,-318,-32,937,-5,-6,4
1751,-320,-34,937,-3,-5,5
1752,-318,-33,938,-6,-5,4
1753,-319,-35,938,-5,-6,5
1754,-319,-34,937,-8,-6,5
1755,-320,-33,937,-4,-6,5
1756,-318,-33,938,-4,-5,5
1757,-320,-33,938,-2,-6,5
1758,-319,-33,937,-4,-7,5
1759,-318,-34,938,-4,-6,5
1760,-320,-32,938,-6,-6,5
1761,-319,-33,936,-6,-6,5
1762,-320,-32,936,-5,-6,4
1763,-320,-33,936,-5,-7,5
1764,-317,-33,938,-2,-7,4
1765,-318,-30,939,-6,-7,5
1766,-318,-32,938,-3,-6,5
1767,-318,-32,938,-7,-7,4
1768,-318,-31,938,-4,-5,4
1769,-316,-33,938,-6,-6,5
1770,-316,-32,938,-4,-7,4
1771,-318,-33,938,-6,-5,5
1772,-317,-32,938,-5,-6,5
1773,-317,-33,939,-4,-5,5
1774,-315,-34,938,-6,-4,5
1775,-318,-33,937,-5,-3,4
1776,-317,-36,937,-6,-3,4
1777,-316,-35,939,-3,-4,4
1778,-316,-33,938,-6,-4,5
1779,-320,-34,937,-4,-4,5
1780,-317,-35,938,-6,-3,6
1781,-318,-34,938,-3,-3,5
1782,-317,-33,937,-5,-3,4
1783,-316,-36,937,-6,-2,6
1784,-318,-34,936,-7,-2,4
1785,-320,-34,935,-3,-3,5
1786,-320,-35,937,-3,-3,6
1787,-323,-34,937,-2,-3,5
1788,-321,-32,937,-5,-4,6
1789,-320,-35,935,-4,-3,5
1790,-321,-35,935,-3,-3,6
1791,-322,-35,936,-6,-4,6
1792,-321,-35,937,-4,-3,6
1793,-320,-33,936,-6,-6,5
1794,-317,-33,937,-1,-6,6
1795,-319,-32,938,-5,-5,6
1796,-316,-31,938,-3,-6,6
1797,-316,-33,938,-5,-5,5
1798,-314,-33,938,-4,-3,5
1799,-314,-33,938,-4,-4,5
1800,-314,-33,941,-4,-3,5
1801,-314,-34,941,-4,-2,6
1802,-314,-34,941,-6,-1,6
1803,-313,-32,940,-4,1,5
1804,-312,-33,942,-5,2,4
1805,-314,-36,940,-3,3,7
1806,-313,-36,940,-6,4,6
1807,-314,-34,939,-3,5,6
1808,-314,-35,939,-4,6,7
1809,-316,-34,940,-3,7,6
1810,-316,-35,940,-4,7,5
1811,-317,-34,938,-4,7,6
1812,-318,-33,938,-1,9,6
1813,-318,-33,938,-4,8,6
1814,-319,-34,936,0,10,5
1815,-319,-33,937,-3,9,6
1816,-321,-33,937,-2,8,7
1817,-320,-33,936,-3,8,5
1818,-321,-32,936,-1,9,5
1819,-322,-30,935,-4,8,6
1820,-321,-32,937,-4,7,6
1821,-322,-33,936,-2,7,5
1822,-320,-32,935,-3,6,6
1823,-321,-32,935,-1,6,7
1824,-319,-33,936,-5,5,6
1825,-321,-32,936,-1,5,6
1826,-323,-32,935,-5,4,5
1827,-323,-33,937,-3,4,6
1828,-321,-32,936,-4,3,7
1829,-322,-31,936,-2,4,6
1830,-322,-34,936,-4,3,7
1831,-321,-34,935,-4,1,7
1832,-322,-33,936,-3,1,6
1833,-321,-33,935,-3,1,5
1834,-322,-30,935,-2,2,5
1835,-323,-31,936,-5,0,6
1836,-323,-31,937,-4,0,6
1837,-322,-31,935,-5,-1,7
1838,-321,-31,936,-4,-1,6
1839,-321,-32,937,-5,-1,7
1840,-320,-33,938,-3,-1,6
1841,-319,-32,938,-5,-2,7
1842,-320,-32,936,-4,-1,6
1843,-318,-31,936,-5,-2,6
1844,-320,-33,938,-4,-1,6
1845,-320,-33,938,-3,-1,5
1846,-321,-33,938,-5,-2,5
1847,-320,-34,934,-3,0,4
1848,-320,-33,936,-6,-1,5
1849,-323,-33,936,-5,-2,4
1850,-322,-33,935,-6,-2,5
1851,-323,-32,935,-2,-3,4
1852,-322,-33,937,-6,-3,4
1853,-324,-32,935,-4,-3,5
1854,-322,-32,937,-6,-5,6
1855,-322,-34,936,-5,-6,5
1856,-320,-33,936,-5,-5,5
1857,-320,-34,935,-4,-6,6
1858,-320,-34,938,-4,-6,4
1859,-322,-34,934,-6,-6,5
1860,-321,-32,935,-5,-6,5
1861,-322,-32,936,-5,-8,5
1862,-321,-32,935,-5,-8,5
1863,-320,-33,937,-6,-8,5
1864,-320,-32,937,-5,-8,5
1865,-319,-33,936,-8,-7,5
1866,-319,-34,936,-3,-7,3
1867,-318,-34,937,-7,-7,4
1868,-316,-34,937,-5,-8,5
1869,-318,-34,939,-4,-7,5
1870,-318,-33,938,-4,-6,5
1871,-318,-31,937,-5,-5,5
1872,-317,-33,939,-5,-6,6
1873,-317,-33,937,-3,-5,6
1874,-317,-34,939,-5,-5,5
1875,-319,-32,937,-4,-7,5
1876,-321,-34,936,-7,-6,4
1877,-321,-35,936,-4,-5,5
1878,-321,-33,937,-7,-5,5
1879,-320,-33,937,-4,-5,6
1880,-320,-32,937,-6,-4,5
1881,-321,-33,936,-4,-6,6
1882,-319,-34,938,-5,-6,5
1883,-321,-33,938,-4,-5,5
1884,-320,-33,937,-6,-6,7
1885,-319,-32,937,-5,-6,5
1886,-318,-32,937,-4,-7,4
1887,-317,-30,939,-5,-5,5
1888,-316,-32,938,-4,-5,4
1889,-316,-32,940,-6,-5,4
1890,-317,-34,938,-3,-4,5
1891,-317,-32,939,-6,-4,4
1892,-316,-32,937,-3,-3,5
1893,-318,-35,937,-7,-3,5
1894,-320,-32,937,-4,-3,4
1895,-319,-32,935,-6,-3,5
1896,-319,-31,936,-4,-3,6
1897,-321,-31,936,-6,-3,6
1898,-320,-33,936,-3,-3,6
1899,-320,-33,937,-7,-4,5
1900,-322,-36,937,-4,-5,6
1901,-320,-34,937,-6,-3,6
1902,-321,-33,936,-5,-4,6
1903,-317,-34,936,-4,-4,6
1904,-320,-33,938,-3,-3,6
1905,-318,-33,938,-3,-3,5
1906,-316,-33,939,-6,-3,6
1907,-317,-32,939,-2,-3,6
1908,-317,-32,938,-6,-3,5
1909,-318,-33,937,-2,-2,5
1910,-319,-34,937,-5,-1,5
1911,-321,-33,936,-3,-1,5
1912,-320,-34,937,-5,-1,5
1913,-321,-32,936,-3,-1,4
1914,-319,-31,938,-5,-2,5
1915,-323,-33,936,-5,-2,5
1916,-322,-33,935,-4,-2,4
1917,-323,-34,936,-5,-2,5
1918,-321,-33,935,-3,-3,5
1919,-323,-33,937,-5,-3,5
1920,-323,-31,936,-2,-5,4
1921,-321,-31,937,-3,-4,5
1922,-323,-31,936,-3,-4,5
1923,-322,-31,936,-6,-5,5
1924,-320,-33,936,-5,-5,5
1925,-322,-32,938,-4,-5,5
1926,-322,-31,936,-5,-6,4
1927,-319,-31,936,-4,-7,5
1928,-322,-31,938,-6,-7,3
1929,-321,-29,935,-5,-6,4
1930,-321,-31,937,-6,-6,5
1931,-320,-32,937,-3,-7,6
1932,-321,-32,937,-5,-7,6
1933,-321,-33,936,-5,-7,6
1934,-322,-32,937,-6,-7,5
1935,-320,-33,935,-5,-7,5
1936,-320,-33,936,-5,-9,5
1937,-322,-31,937,-8,-8,5
1938,-319,-31,938,-4,-9,5
1939,-319,-33,937,-6,-8,5
1940,-321,-32,935,-4,-9,4
1941,-321,-31,935,-7,-9,4
1942,-321,-33,935,-6,-8,3
1943,-323,-32,935,-5,-9,3
1944,-321,-33,935,-6,-11,4
1945,-321,-34,936,-6,-11,4
1946,-321,-34,937,-6,-11,4
1947,-319,-32,937,-5,-10,4
1948,-318,-32,937,-6,-11,5
1949,-317,-33,937,-5,-13,5
1950,-319,-32,939,-7,-12,5
1951,-318,-32,938,-7,-11,4
1952,-318,-35,938,-5,-10,4
1953,-317,-33,939,-5,-10,4
1954,-316,-33,939,-6,-10,4
1955,-317,-33,939,-6,-9,5
1956,-315,-34,938,-4,-9,5
1957,-317,-33,940,-5,-8,6
1958,-317,-34,938,-6,-8,5
1959,-318,-32,939,-5,-6,4
1960,-316,-33,939,-5,-7,5
1961,-317,-32,940,-4,-7,5
1962,-316,-34,939,-4,-6,5
1963,-316,-32,939,-4,-5,5
1964,-314,-33,940,-6,-4,6
1965,-313,-32,939,-4,-3,6
1966,-312,-34,939,-4,-3,6
1967,-314,-33,941,-3,-1,6
1968,-313,-35,940,-5,1,6
1969,-313,-34,939,-4,2,6
1970,-313,-33,940,-3,2,6
1971,-314,-33,940,-3,3,6
1972,-314,-32,940,-4,4,6
1973,-317,-34,939,-3,4,5
1974,-317,-34,939,-4,5,6
1975,-317,-33,937,-5,6,5
1976,-318,-33,937,-2,6,5
1977,-319,-34,936,-5,6,6
1978,-319,-35,937,-4,5,6
1979,-320,-34,939,-4,7,6
1980,-321,-34,938,-3,7,5
1981,-319,-33,937,-2,7,6
1982,-320,-33,936,-4,6,6
1983,-319,-33,936,-3,6,6
1984,-321,-33,936,-5,7,7
1985,-321,-32,937,-2,5,6
1986,-321,-33,937,-4,6,6
1987,-321,-33,935,-1,6,6
1988,-320,-32,935,-4,5,5
1989,-321,-32,935,-2,5,5
1990,-321,-34,936,-4,4,6
1991,-320,-34,936,-2,4,6
1992,-319,-33,937,-4,3,6
1993,-320,-31,938,-4,5,7
1994,-319,-33,937,-3,4,6
1995,-320,-32,938,-2,4,6
1996,-320,-32,938,-5,4,5
1997,-321,-33,937,-4,2,5
1998,-321,-32,937,-3,3,6
1999,-323,-33,935,-4,2,5
2000,-325,-32,935,-3,2,6
2001,-323,-33,935,-4,1,7
2002,-323,-34,936,-2,2,6
2003,-324,-32,935,-4,0,6
2004,-323,-31,934,-1,-1,6
2005,-322,-31,934,-5,-1,6
2006,-321,-32,936,-2,-1,6
2007,-321,-34,935,-5,-3,6
2008,-321,-33,936,-3,-2,6
2009,-320,-34,936,-6,-2,6
2010,-319,-34,938,-4,-1,6
2011,-316,-34,937,-5,-2,5
2012,-317,-34,938,-3,-1,5
2013,-315,-33,940,-5,-1,6
2014,-315,-32,941,-3,1,5
2015,-315,-32,940,-3,1,5
2016,-315,-32,939,-5,2,3
2017,-317,-33,940,-4,3,4
2018,-316,-33,938,-6,4,6
2019,-318,-32,937,-3,3,5
2020,-319,-33,938,-4,4,4
2021,-320,-32,936,-3,5,5
2022,-322,-33,935,-5,4,6
2023,-324,-34,935,-5,5,6
2024,-325,-36,934,-4,2,5
2025,-327,-34,933,-3,2,6
2026,-326,-34,932,-4,1,5
2027,-326,-34,933,-3,-1,4
2028,-327,-33,934,-4,-1,4
2029,-327,-33,934,-7,-3,5
2030,-326,-33,933,1,-3,5
2031,-324,-32,934,-5,-4,6
2032,-325,-31,934,0,-6,5
2033,-326,-32,936,-12,-8,5
2034,-326,-32,935,3,-8,6
2035,-324,-31,936,-13,-9,6
2036,-320,-31,937,1,-9,5
2037,-322,-31,938,-12,-10,4
2038,-321,-33,936,-2,-10,5
2039,-321,-33,936,-10,-11,5
2040,-322,-32,935,-5,-10,6
2041,-322,-33,936,-7,-10,4
2042,-319,-32,938,-6,-11,5
2043,-321,-32,938,-4,-10,5
2044,-320,-31,938,-7,-10,6
2045,-321,-32,938,-4,-9,4
2046,-319,-31,938,-9,-9,4
2047,-317,-32,938,-3,-8,5
2048,-317,-33,938,-9,-7,3
2049,-315,-33,938,-4,-8,4
2050,-318,-33,938,-8,-7,4
2051,-319,-33,938,-3,-5,4
2052,-319,-32,939,-6,-5,4
2053,-321,-34,937,-3,-5,5
2054,-320,-35,936,-7,-6,6
2055,-321,-33,936,-5,-6,5
2056,-323,-33,935,-7,-6,4
2057,-322,-33,936,-6,-6,5
2058,-323,-34,936,-6,-7,5
2059,-323,-31,935,-7,-7,4
2060,-323,-32,935,-5,-7,5
2061,-322,-33,935,-7,-8,4
2062,-323,-34,935,-6,-8,4
2063,-323,-33,935,-6,-10,4
2064,-323,-32,934,-5,-10,5
2065,-323,-32,934,-8,-10,5
2066,-323,-31,936,-6,-11,4
2067,-321,-31,936,-6,-13,5
2068,-323,-33,935,-6,-13,4
2069,-324,-35,935,-6,-13,3
2070,-323,-33,934,-5,-14,5
2071,-321,-32,936,-6,-15,3
2072,-320,-35,936,-6,-15,4
2073,-320,-33,937,-6,-15,4
2074,-318,-33,938,-7,-13,5
2075,-318,-33,939,-5,-14,4
2076,-318,-34,938,-6,-14,4
2077,-318,-34,939,-6,-15,4
2078,-317,-32,938,-7,-14,4
2079,-316,-31,937,-5,-13,5
2080,-317,-32,937,-4,-12,5
2081,-315,-34,939,-6,-12,5
2082,-315,-33,938,-6,-12,5
2083,-316,-33,939,-5,-9,5
2084,-314,-32,938,-5,-9,4
2085,-315,-31,940,-5,-8,6
2086,-314,-32,940,-5,-8,5
2087,-316,-33,938,-6,-7,4
2088,-316,-33,940,-5,-7,5
2089,-315,-34,938,-5,-6,4
2090,-315,-33,939,-4,-5,4
2091,-317,-34,939,-6,-4,5
2092,-317,-35,939,-3,-3,5
2093,-321,-32,939,-6,-3,4
2094,-318,-31,938,-2,-3,4
2095,-318,-34,937,-6,-2,3
2096,-317,-34,939,-4,-3,4
2097,-321,-34,937,-6,-3,5
2098,-320,-32,936,-3,-3,4
2099,-322,-33,936,-3,-2,4
2100,-322,-32,936,-4,-3,5
2101,-323,-32,935,-4,-4,5
2102,-324,-30,934,-5,-4,6
2103,-324,-30,935,-4,-6,5
2104,-324,-34,934,-7,-7,4
2105,-326,-33,935,-2,-8,4
2106,-325,-32,933,-7,-10,5
2107,-324,-34,935,-4,-9,4
2108,-323,-33,935,-8,-11,4
2109,-322,-33,935,-4,-12,5
2110,-322,-33,936,-7,-13,6
2111,-322,-32,937,-5,-13,5
2112,-322,-33,937,-6,-14,5
2113,-320,-34,937,-6,-14,5
2114,-315,-33,937,-5,-13,6
2115,-316,-34,938,-7,-12,5
2116,-313,-33,940,-5,-13,5
2117,-313,-33,941,-7,-12,4
2118,-312,-34,941,-3,-11,5
2119,-310,-34,941,-6,-10,5
2120,-313,-34,941,-3,-8,5
2121,-312,-33,940,-7,-7,6
2122,-312,-35,941,-5,-5,6
2123,-317,-35,940,-6,-5,5
2124,-314,-33,940,-5,-3,5
2125,-316,-33,940,-4,0,5
2126,-315,-34,939,-4,-1,5
2127,-317,-32,939,-3,-1,4
2128,-317,-32,938,-5,0,5
2129,-318,-33,937,-5,0,5
2130,-318,-34,938,-5,0,4
2131,-318,-33,937,-2,1,5
2132,-317,-33,938,-3,1,6
2133,-319,-34,937,-2,2,5
2134,-319,-33,938,-4,1,5
2135,-315,-33,939,-3,2,5
2136,-318,-31,939,-4,2,6
2137,-317,-33,941,-4,2,6
2138,-319,-32,939,-4,3,6
2139,-320,-34,938,-5,2,4
2140,-317,-33,938,-3,3,5
2141,-319,-34,938,-3,3,6
2142,-320,-34,937,-2,4,6
2143,-319,-33,936,-5,3,5
2144,-321,-33,938,-3,4,6
2145,-320,-32,936,-4,3,5
2146,-322,-33,934,-2,3,5
2147,-323,-33,935,-4,1,5
2148,-322,-32,935,-3,1,5
2149,-320,-33,933,-5,1,5
2150,-321,-34,937,-4,-1,5
2151,-322,-32,935,-3,0,5
2152,-321,-30,936,-3,-1,5
2153,-321,-32,936,-2,-3,5
2154,-319,-33,937,-4,-2,4
2155,-320,-32,937,-3,-1,4
2156,-321,-33,936,-5,-3,5
2157,-320,-32,936,-3,-2,5
2158,-320,-33,937,-4,-3,6
2159,-320,-32,937,-5,-3,5
2160,-321,-32,936,-5,-3,5
2161,-321,-33,937,-5,-3,5
2162,-321,-31,936,-3,-4,6
2163,-322,-32,938,-5,-3,6
2164,-320,-33,938,-4,-3,5
2165,-319,-34,938,-6,-4,4
2166,-320,-32,939,-4,-4,5
2167,-318,-31,939,-6,-3,5
2168,-319,-31,938,-4,-3,6
2169,-317,-32,937,-4,-2,6
2170,-320,-33,936,-4,-3,6
2171,-318,-32,938,-4,-3,5
2172,-318,-33,936,-5,-1,5
2173,-317,-35,938,-4,-2,6
2174,-318,-33,937,-4,-3,5
2175,-318,-32,937,-3,-2,5
2176,-319,-31,937,-8,-2,5
2177,-322,-31,937,-4,-1,5
2178,-320,-33,937,-7,-1,5
2179,-320,-33,936,-2,-2,5
2180,-320,-33,936,-6,-2,5
2181,-320,-34,936,-3,-1,5
2182,-319,-34,936,-7,-2,5
2183,-321,-33,937,-4,0,5
2184,-322,-33,936,-6,-2,6
2185,-321,-32,935,-5,-2,6
2186,-320,-35,936,-4,-3,5
2187,-322,-33,935,-4,-3,5
2188,-321,-34,937,-5,-3,5
2189,-320,-34,936,-4,-2,5
2190,-321,-34,936,-3,-3,6
2191,-324,-34,936,-5,-4,6
2192,-323,-33,936,-3,-4,5
2193,-319,-32,936,-4,-6,5
2194,-320,-30,936,-3,-6,5
2195,-322,-31,936,-5,-5,5
2196,-322,-31,938,-7,-6,5
2197,-318,-32,936,-2,-7,5
2198,-318,-31,937,-5,-6,6
2199,-321,-31,937,-2,-5,6
2200,-319,-31,938,-6,-6,5
2201,-316,-32,937,-3,-5,6
2202,-318,-32,938,-7,-5,4
2203,-317,-31,938,-4,-4,5
2204,-318,-31,939,-7,-4,6
2205,-316,-32,938,-3,-3,5
2206,-316,-32,939,-8,-4,5
2207,-315,-33,939,-4,-3,5
2208,-317,-33,937,-6,-1,4
2209,-319,-31,938,-4,-1,5
2210,-319,-34,937,-6,0,5
2211,-321,-34,938,-6,-1,4
2212,-322,-34,935,-6,-2,6
2213,-322,-33,935,-6,-2,5
2214,-323,-32,934,-4,-3,5
2215,-323,-32,935,-6,-4,5
2216,-325,-34,935,-3,-4,5
2217,-325,-34,935,-6,-4,4
2218,-326,-32,934,-2,-5,5
2219,-326,-32,935,-6,-7,5
2220,-326,-31,932,-3,-8,6
2221,-326,-33,933,-6,-10,4
2222,-324,-32,935,-4,-10,5
2223,-324,-34,935,-5,-10,5
2224,-323,-31,935,-5,-12,4
2225,-322,-32,935,-5,-12,5
2226,-319,-33,936,-5,-12,4
2227,-321,-34,937,-5,-12,5
2228,-321,-33,937,-6,-12,6
2229,-320,-32,936,-5,-12,4
2230,-318,-33,936,-6,-13,5
2231,-318,-33,936,-6,-13,6
2232,-319,-31,939,-7,-11,4
2233,-318,-33,939,-4,-12,4
2234,-317,-34,938,-6,-13,4
2235,-317,-33,939,-3,-11,5
2236,-316,-34,939,-7,-10,5
2237,-315,-32,940,-5,-10,5
2238,-315,-34,939,-7,-9,5
2239,-317,-32,938,-5,-8,5
2240,-316,-33,939,-7,-8,4
2241,-315,-34,939,-5,-6,5
2242,-316,-33,939,-6,-7,5
2243,-318,-35,938,-6,-6,4
2244,-317,-33,937,-6,-5,5
2245,-320,-34,939,-7,-6,5
2246,-319,-33,936,-5,-6,5
2247,-318,-33,937,-7,-5,6
2248,-321,-32,936,-5,-5,5
2249,-320,-35,937,-6,-6,5
2250,-320,-37,936,-5,-5,5
2251,-321,-33,936,-6,-5,4
2252,-317,-34,937,-4,-5,5
2253,-318,-35,936,-5,-5,5
2254,-318,-35,936,-4,-5,6
2255,-320,-33,937,-5,-6,5
2256,-318,-33,939,-6,-5,5
2257,-316,-31,939,-4,-6,5
2258,-316,-33,939,-5,-5,5
2259,-317,-34,939,-5,-5,5
2260,-318,-35,939,-6,-5,5
2261,-315,-34,939,-5,-2,5
2262,-316,-32,939,-7,-3,5
2263,-316,-35,938,-3,-1,5
2264,-320,-34,938,-4,-1,5
2265,-319,-34,937,-4,-1,5
2266,-318,-34,938,-5,-2,5
2267,-320,-32,938,-5,-2,5
2268,-319,-33,936,-4,-1,5
2269,-322,-33,936,-4,-1,5
2270,-322,-31,935,-3,-1,4
2271,-324,-34,936,-4,-2,5
2272,-324,-33,935,-3,-2,5
2273,-322,-32,934,-4,-3,5
2274,-323,-34,934,-3,-5,4
2275,-324,-34,935,-4,-5,5
2276,-323,-32,936,-5,-4,6
2277,-323,-32,935,-4,-6,6
2278,-322,-31,936,-5,-7,5
2279,-320,-32,936,-4,-6,6
2280,-320,-32,935,-6,-7,6
2281,-320,-34,937,-4,-6,5
2282,-320,-34,937,-5,-7,4
2283,-321,-34,936,-6,-8,6
2284,-319,-34,937,-6,-8,5
2285,-318,-33,936,-6,-7,5
2286,-320,-32,936,-5,-8,5
2287,-320,-31,935,-6,-7,5
2288,-321,-32,937,-6,-8,5
2289,-321,-31,937,-5,-8,5
2290,-321,-31,935,-5,-8,6
2291,-321,-33,935,-8,-9,5
2292,-322,-33,935,-5,-9,5
2293,-320,-33,934,-8,-8,4
2294,-321,-33,937,-5,-10,3
2295,-321,-33,936,-5,-11,4
2296,-321,-32,936,-5,-10,5
2297,-321,-34,936,-6,-11,5
2298,-323,-33,937,-7,-11,5
2299,-321,-33,937,-7,-11,4
2300,-321,-34,937,-6,-11,4
2301,-318,-33,936,-4,-12,3
2302,-321,-33,936,-7,-12,5
2303,-319,-34,936,-4,-14,4
2304,-320,-32,937,-6,-13,4
2305,-321,-31,938,-3,-13,4
2306,-321,-32,936,-6,-14,3
2307,-320,-33,937,-5,-13,3
2308,-321,-32,937,-6,-15,3
2309,-320,-34,936,-6,-15,4
2310,-320,-35,936,-5,-15,4
2311,-318,-36,937,-6,-15,4
2312,-318,-33,938,-7,-16,4
2313,-318,-35,939,-5,-15,5
2314,-317,-33,940,-6,-14,5
2315,-314,-35,938,-6,-14,5
2316,-314,-32,941,-5,-15,5
2317,-313,-35,940,-5,-13,5
2318,-312,-33,940,-4,-12,5
2319,-314,-36,941,-7,-10,5
2320,-314,-33,941,-5,-10,5
2321,-311,-34,940,-6,-9,5
2322,-311,-33,942,-3,-7,5
2323,-312,-33,940,-6,-5,5
2324,-312,-33,941,-2,-4,5
2325,-313,-33,940,-7,-5,4
2326,-311,-33,941,-3,-3,5
2327,-313,-33,940,-5,-2,6
2328,-314,-33,940,-5,0,6
2329,-311,-36,940,-4,0,6
2330,-311,-36,942,-4,3,7
2331,-312,-35,940,-4,4,7
2332,-310,-33,940,-2,5,6
2333,-313,-33,941,-4,7,6
2334,-313,-33,939,-2,8,7
2335,-314,-34,939,-4,8,6
2336,-313,-33,938,-2,10,8
2337,-317,-34,937,-4,10,6
2338,-317,-35,937,-2,10,7
2339,-321,-34,937,-4,10,5
2340,-319,-34,936,-3,10,7
2341,-320,-33,937,-3,10,7
2342,-322,-32,936,-4,10,6
2343,-321,-34,937,-1,10,7
2344,-322,-33,936,-3,9,6
2345,-321,-32,937,-1,8,6
2346,-321,-33,936,-4,8,7
2347,-320,-32,936,-1,9,6
2348,-319,-33,938,-3,8,5
2349,-321,-33,938,-3,8,7
2350,-322,-33,937,-3,7,6
2351,-320,-31,936,-1,6,7
2352,-322,-29,936,-4,5,6
2353,-324,-32,935,-2,5,5
2354,-325,-32,935,-3,3,5
2355,-324,-32,935,-2,3,7
2356,-325,-32,935,-4,3,6
2357,-322,-33,936,-3,2,6
2358,-323,-32,936,-2,1,6
2359,-322,-32,935,-4,1,7
2360,-323,-31,937,-3,0,5
2361,-323,-30,936,-3,0,6
2362,-321,-31,937,-4,-2,5
2363,-321,-32,937,-7,-1,5
2364,-319,-31,935,-3,-2,5
2365,-322,-33,937,-6,-2,6
2366,-321,-33,937,0,-2,6
2367,-320,-30,936,-2,-3,4
2368,-321,-33,934,-2,-4,5
2369,-321,-32,935,-10,-5,5
2370,-321,-32,935,2,-4,5
2371,-321,-33,936,-10,-5,6
2372,-322,-31,936,-1,-5,4
2373,-320,-34,935,-9,-5,4
2374,-320,-34,936,-4,-5,6
2375,-318,-32,936,-5,-6,6
2376,-318,-34,937,-5,-5,5
2377,-316,-35,936,-4,-4,6
2378,-318,-33,939,-6,-5,5
2379,-317,-33,937,-3,-4,6
2380,-317,-33,938,-6,-4,5
2381,-318,-33,938,-3,-3,4
2382,-314,-31,937,-4,-4,4
2383,-317,-33,937,-2,-3,5
2384,-319,-33,937,-5,-2,5
2385,-319,-33,938,-4,-3,5
2386,-320,-32,937,-3,-3,4
2387,-318,-31,937,-2,-3,5
2388,-319,-32,938,-3,-3,5
2389,-320,-31,938,-5,-4,4
2390,-320,-32,937,-5,-2,4
2391,-319,-34,937,-3,-4,5
2392,-319,-34,937,-5,-3,6
2393,-320,-33,937,-4,-2,5
2394,-318,-32,938,-6,-2,5
2395,-318,-32,938,-4,-3,6
2396,-317,-33,938,-5,-3,5
2397,-318,-33,938,-4,-1,5
2398,-318,-32,939,-6,-1,6
2399,-318,-33,937,-6,-2,6
2400,-322,-31,937,-6,-3,5
2401,-320,-32,938,-4,-1,4
2402,-318,-34,936,-5,-1,5
2403,-321,-32,937,-5,-2,5
2404,-322,-32,936,-7,-2,4
2405,-324,-31,935,-5,-2,4
2406,-322,-34,935,-6,-3,5
2407,-323,-33,934,-5,-2,5
2408,-327,-35,935,-5,-4,4
2409,-326,-33,933,-5,-6,4
2410,-327,-32,934,-6,-6,3
2411,-327,-31,934,-5,-7,4
2412,-328,-32,934,-4,-10,5
2413,-325,-32,933,-7,-11,4
2414,-330,-35,934,-5,-11,4
2415,-327,-33,932,-9,-13,4
2416,-328,-31,935,-5,-15,4
2417,-326,-34,933,-7,-16,4
2418,-325,-32,933,-6,-18,4
2419,-326,-32,935,-9,-19,4
2420,-323,-33,935,-7,-20,3
2421,-320,-33,936,-7,-20,4
2422,-319,-32,934,-7,-20,4
2423,-320,-32,938,-6,-20,5
2424,-320,-34,937,-7,-22,4
2425,-319,-36,938,-7,-20,4
2426,-317,-34,938,-7,-20,5
2427,-316,-35,940,-6,-19,4
2428,-314,-33,939,-7,-19,4
2429,-315,-33,939,-8,-19,4
2430,-314,-34,940,-7,-18,5
2431,-314,-34,940,-5,-17,4
2432,-314,-34,941,-5,-16,5
2433,-314,-33,939,-9,-16,4
2434,-312,-33,940,-3,-13,5
2435,-312,-34,940,-8,-13,5
2436,-311,-34,940,-5,-12,5
2437,-313,-34,941,-8,-12,4
2438,-313,-32,941,-4,-9,4
2439,-313,-35,941,-7,-10,4
2440,-313,-34,941,-5,-7,5
2441,-314,-34,940,-6,-6,5
2442,-312,-34,939,-5,-6,5
2443,-314,-36,939,-6,-5,5
2444,-313,-34,939,-6,-4,5
2445,-315,-33,938,-4,-3,5
2446,-316,-32,938,-7,-3,5
2447,-315,-33,940,-5,-2,5
2448,-317,-33,939,-6,-1,5
2449,-316,-33,938,-4,-1,5
2450,-316,-33,939,-5,-1,5
2451,-317,-34,937,-4,2,5
2452,-319,-33,937,-5,0,4
2453,-321,-35,938,-4,0,5
2454,-319,-34,937,-4,0,6
2455,-320,-33,937,-5,0,5
2456,-322,-34,936,-3,-1,5
2457,-322,-35,935,-5,-1,6
2458,-322,-34,938,-3,-2,5
2459,-322,-32,937,-4,-1,6
2460,-319,-32,935,-3,-1,5
2461,-321,-31,936,-6,-3,5
2462,-320,-30,936,-3,-2,4
2463,-321,-33,937,-5,-4,5
2464,-320,-33,936,-4,-4,6
2465,-321,-33,936,-5,-4,6
2466,-319,-34,936,-5,-3,5
2467,-320,-31,937,-5,-4,4
2468,-321,-32,935,-4,-6,4
2469,-321,-32,936,-4,-5,5
2470,-320,-35,934,-5,-8,6
2471,-319,-33,935,-5,-8,5
2472,-322,-34,938,-6,-7,5
2473,-321,-32,935,-6,-7,6
2474,-318,-33,937,-5,-7,6
2475,-319,-32,937,-6,-7,5
2476,-316,-32,939,-5,-7,6
2477,-317,-33,938,-5,-8,5
2478,-316,-33,938,-5,-6,4
2479,-316,-32,938,-6,-5,4
2480,-317,-33,939,-5,-5,5
2481,-315,-34,940,-7,-5,6
2482,-314,-33,940,-5,-3,5
2483,-320,-32,939,-5,-3,4
2484,-317,-32,939,-4,-4,5
2485,-317,-33,939,-4,-3,5
2486,-319,-34,939,-6,-3,4
2487,-321,-34,939,-5,-3,4
2488,-321,-36,937,-5,-3,5
2489,-319,-33,936,-3,-3,6
2490,-317,-34,936,-5,-4,4
2491,-319,-32,935,-3,-3,5
2492,-321,-34,936,-5,-3,5
2493,-319,-33,938,-3,-4,5
2494,-321,-32,938,-4,-3,6
2495,-318,-33,937,-5,-3,6
2496,-319,-33,936,-4,-4,5
2497,-319,-33,937,-6,-4,6
2498,-317,-34,938,-4,-2,7
2499,-317,-36,940,-5,-4,6
2500,-316,-33,938,-5,-2,5
2501,-317,-31,938,-5,-3,5
2502,-316,-33,938,-4,-2,5
2503,-316,-34,939,-3,-1,5
2504,-314,-31,939,-5,-1,6
2505,-317,-31,938,-3,-1,5
2506,-320,-32,938,-7,0,5
2507,-319,-33,937,-5,-1,5
2508,-319,-33,938,-4,0,6
2509,-320,-35,936,-4,1,5
2510,-320,-34,937,-4,-1,6
2511,-319,-34,936,-4,0,5
2512,-320,-34,937,-4,-1,5
2513,-319,-34,938,-4,-2,5
2514,-315,-33,939,-5,-1,6
2515,-318,-32,938,-6,-1,6
2516,-319,-32,938,-2,0,6
2517,-320,-32,936,-3,-1,5
2518,-319,-36,938,-3,0,6
2519,-316,-34,938,-3,0,6
2520,-316,-31,939,-2,1,5
2521,-317,-33,938,-4,0,6
2522,-318,-33,939,-4,0,5
2523,-316,-33,939,-3,1,6
2524,-317,-34,939,-4,2,6
2525,-318,-33,938,-2,2,5
2526,-319,-35,936,-4,3,5
2527,-319,-32,937,-2,3,6
2528,-319,-34,936,-4,3,5
2529,-320,-33,937,-3,4,6
2530,-319,-33,936,-6,2,6
2531,-322,-34,936,-4,2,6
2532,-323,-31,935,-6,1,6
2533,-323,-34,935,-3,0,6
2534,-323,-33,936,-5,1,6
2535,-322,-33,936,-5,1,6
2536,-323,-32,935,-3,-2,5
2537,-323,-32,935,-4,-2,5
2538,-322,-31,936,-3,-2,5
2539,-324,-33,937,-5,-4,5
2540,-323,-33,934,-2,-3,5
2541,-323,-33,936,-6,-3,5
2542,-320,-34,935,-3,-5,5
2543,-320,-34,936,-7,-4,5
2544,-321,-33,938,-1,-5,5
2545,-322,-34,936,-6,-5,6
2546,-320,-32,937,-3,-5,5
2547,-320,-32,936,-5,-5,5
2548,-320,-32,936,-5,-5,5
2549,-320,-31,935,-4,-5,5
2550,-321,-32,937,-6,-5,4
2551,-319,-34,936,-5,-6,5
2552,-320,-34,937,-7,-6,5
2553,-319,-33,938,-4,-6,6
2554,-318,-33,938,-8,-5,6
2555,-318,-33,938,-3,-4,5
2556,-319,-34,937,-8,-5,5
2557,-319,-33,937,-4,-5,6
2558,-319,-32,937,-5,-4,5
2559,-321,-33,936,-5,-5,4
2560,-320,-32,936,-4,-5,5
2561,-321,-31,937,-6,-5,5
2562,-321,-32,936,-4,-5,5
2563,-321,-33,934,-7,-8,4
2564,-321,-34,935,-3,-6,5
2565,-320,-32,937,-6,-7,3
2566,-321,-33,934,-3,-8,5
2567,-320,-33,936,-7,-7,4
2568,-321,-30,938,-4,-8,5
2569,-319,-32,937,-6,-8,5
2570,-321,-34,937,-6,-7,6
2571,-320,-36,938,-5,-8,4
2572,-318,-35,938,-4,-7,6
2573,-318,-34,938,-5,-6,6
2574,-320,-32,937,-7,-8,6
2575,-318,-33,937,-3,-7,5
2576,-319,-32,937,-5,-7,5
2577,-321,-34,937,-4,-7,5
2578,-319,-32,937,-6,-8,5
2579,-320,-33,937,-4,-7,5
2580,-320,-34,936,-8,-8,5
2581,-320,-34,938,-5,-7,5
2582,-318,-35,936,-6,-9,4
2583,-318,-34,938,-5,-8,3
2584,-317,-32,938,-3,-8,3
2585,-319,-36,936,-6,-9,6
2586,-317,-41,937,-5,-10,8
2587,-318,-37,939,-6,-8,7
2588,-315,-31,938,-2,-7,5
2589,-318,-25,940,-5,-7,5
2590,-318,-22,939,-4,-5,5
2591,-318,-28,941,-9,-6,5
2592,-317,-35,939,-7,-5,5
2593,-318,-39,936,-6,-5,3
2594,-316,-39,937,-4,-5,2
2595,-317,-38,936,-5,-6,4
2596,-317,-33,939,-4,-5,6
2597,-318,-32,939,-5,-5,7
2598,-318,-31,940,-5,-4,6
2599,-320,-29,939,-5,-3,5
2600,-318,-33,937,-8,-4,4
2601,-319,-35,936,-5,-4,5
2602,-320,-35,936,-5,-4,5
2603,-320,-34,937,-5,-4,6
2604,-317,-31,937,-1,-3,5
2605,-321,-32,936,-4,-3,5
2606,-318,-30,935,-3,-5,6
2607,-319,-30,938,-5,-3,6
2608,-319,-32,938,-5,-4,6
2609,-320,-35,938,-6,-5,6
2610,-317,-33,938,-4,-4,4
2611,-321,-33,937,-6,-5,5
2612,-319,-34,935,-7,-5,7
2613,-319,-34,937,-5,-5,6
2614,-322,-32,936,-6,-7,5
2615,-323,-32,935,-3,-6,7
2616,-321,-31,934,-7,-5,6
2617,-322,-33,936,-4,-7,5
2618,-320,-33,937,-7,-8,6
2619,-320,-33,935,-5,-8,5
2620,-319,-32,936,-6,-9,6
2621,-318,-32,938,-5,-10,5
2622,-317,-34,938,-5,-9,6
2623,-318,-34,937,-6,-7,7
2624,-318,-34,937,-4,-8,6
2625,-317,-35,938,-5,-8,6
2626,-316,-33,938,-4,-7,6
2627,-316,-32,940,-7,-6,6
2628,-314,-34,940,-6,-6,6
2629,-316,-32,940,-7,-6,6
2630,-316,-32,940,-3,-5,6
2631,-316,-33,938,-6,-5,6
2632,-316,-33,938,-5,-4,6
2633,-317,-33,940,-5,-2,7
2634,-317,-32,939,-6,-2,6
2635,-316,-32,940,-5,-2,7
2636,-314,-31,939,-6,0,6
2637,-313,-33,939,-4,1,4
2638,-314,-33,941,-7,1,5
2639,-315,-34,939,-4,2,5
2640,-317,-35,938,-7,2,5
2641,-317,-34,937,-5,2,6
2642,-319,-34,937,-5,3,5
2643,-322,-35,938,-3,2,6
2644,-323,-34,936,-5,2,5
2645,-325,-33,936,-5,1,5
2646,-327,-32,934,-4,0,5
2647,-326,-33,933,-5,-1,4
2648,-328,-33,932,-5,-2,4
2649,-328,-32,932,-7,-4,5
2650,-327,-33,934,-3,-5,5
2651,-327,-33,934,-5,-7,4
2652,-324,-31,934,-5,-9,5
2653,-322,-32,935,-7,-10,5
2654,-324,-34,934,-5,-11,5
2655,-323,-34,936,-6,-11,3
2656,-321,-35,936,-7,-12,5
2657,-319,-33,935,-6,-12,6
2658,-320,-34,936,-6,-12,6
2659,-320,-33,937,-3,-11,5
2660,-317,-32,938,-7,-12,6
2661,-316,-32,937,-5,-12,6
2662,-317,-34,939,-7,-12,5
2663,-318,-35,937,-5,-12,4
2664,-315,-33,939,-6,-12,5
2665,-315,-35,939,-7,-11,5
2666,-314,-34,941,-5,-12,6
2667,-315,-37,940,-7,-10,5
2668,-315,-35,942,-6,-8,5
2669,-312,-33,941,-5,-8,5
2670,-315,-33,939,-5,-7,7
2671,-312,-33,942,-4,-5,7
2672,-312,-34,942,-5,-5,5
2673,-313,-33,942,-3,-2,6
2674,-312,-34,942,-5,-1,7
2675,-313,-36,940,-1,0,6
2676,-313,-35,940,-4,3,7
2677,-314,-33,940,-4,3,7
2678,-314,-35,940,-6,5,7
2679,-316,-34,939,-5,5,6
2680,-313,-34,940,-2,5,6
2681,-313,-34,940,-5,8,6
2682,-313,-35,940,0,7,6
2683,-315,-32,941,-5,7,7
2684,-314,-34,939,0,8,5
2685,-314,-34,940,-4,10,6
2686,-316,-35,940,-2,10,7
2687,-314,-35,941,-2,12,7
2688,-315,-34,939,-2,12,6
2689,-318,-33,937,-2,13,5
2690,-317,-33,938,-2,12,5
2691,-319,-34,938,-1,14,7
2692,-321,-33,937,-4,14,7
2693,-322,-34,937,-2,13,6
2694,-323,-33,936,-2,12,6
2695,-325,-33,934,-2,12,6
2696,-325,-32,935,-1,10,6
2697,-324,-32,934,-1,9,6
2698,-327,-32,932,-3,8,6
2699,-326,-30,932,-2,8,7
2700,-325,-31,934,-2,5,6
2701,-325,-30,933,-2,5,6
2702,-324,-31,935,1,5,6
2703,-323,-32,935,-11,4,7
2704,-322,-32,937,-2,2,7
2705,-320,-31,937,-5,1,6
2706,-319,-31,938,-4,1,5
2707,-319,-32,937,-1,2,6
2708,-315,-33,941,-8,2,7
2709,-314,-32,940,0,4,8
2710,-319,-33,938,-10,5,8
2711,-318,-37,936,-1,5,7
2712,-319,-35,937,-7,5,8
2713,-321,-30,936,2,6,7
2714,-321,-29,937,-6,5,7
2715,-325,-26,935,-1,5,7
2716,-326,-29,935,-6,3,6
2717,-324,-30,935,-3,2,6
2718,-322,-36,934,-5,2,6
2719,-324,-37,934,-5,2,6
2720,-320,-33,934,-3,0,5
2721,-323,-33,935,-6,0,6
2722,-322,-33,934,-3,-1,6
2723,-324,-33,935,-7,-2,8
2724,-324,-32,935,-4,-3,6
2725,-325,-29,935,-4,-3,6
2726,-323,-32,933,-4,-3,5
2727,-325,-30,934,-3,-3,6
2728,-321,-34,934,-5,-5,6
2729,-324,-32,936,-4,-4,4
2730,-325,-32,935,-6,-5,4
2731,-324,-34,934,-4,-5,6
2732,-326,-33,934,-7,-6,6
2733,-322,-35,935,-3,-8,6
2734,-323,-35,935,-7,-9,5
2735,-324,-33,935,-4,-9,6
2736,-325,-32,936,-6,-9,7
2737,-324,-31,934,-4,-10,7
2738,-325,-31,933,-5,-11,6
2739,-325,-32,934,-6,-12,6
2740,-324,-32,935,-5,-12,7
2741,-325,-31,934,-8,-14,5
2742,-323,-31,933,-4,-15,5
2743,-324,-31,935,-10,-16,5
2744,-322,-32,935,-6,-17,6
2745,-321,-31,937,-8,-17,5
2746,-318,-35,937,-6,-17,5
2747,-316,-33,938,-7,-16,5
2748,-315,-34,939,-5,-17,5
2749,-316,-32,939,-7,-16,7
2750,-316,-34,940,-8,-14,6
2751,-316,-32,940,-4,-13,6
2752,-317,-31,940,-7,-14,6
2753,-318,-32,939,-5,-12,5
2754,-319,-30,938,-9,-12,7
2755,-320,-33,939,-5,-12,6
2756,-318,-35,939,-8,-12,6
2757,-321,-32,936,-6,-11,6
2758,-321,-31,937,-8,-12,4
2759,-321,-30,938,-7,-11,5
2760,-318,-33,936,-8,-12,4
2761,-315,-36,938,-7,-12,5
2762,-314,-36,938,-6,-11,5
2763,-315,-33,941,-5,-9,5
2764,-312,-35,941,-5,-9,4
2765,-313,-35,942,-7,-7,6
2766,-312,-37,940,-7,-7,6
2767,-314,-35,939,-7,-5,5
2768,-317,-35,939,-3,-3,5
2769,-318,-33,940,-6,-4,4
2770,-318,-31,938,-4,-2,5
2771,-320,-33,939,-7,-1,4
2772,-320,-33,937,-4,-2,4
2773,-319,-32,935,-5,-3,4
2774,-320,-34,937,-6,-3,6
2775,-320,-33,937,-5,-2,5
2776,-317,-33,938,-4,-2,4
2777,-316,-33,939,-3,-2,4
2778,-317,-31,937,-4,-2,5
2779,-319,-32,938,-5,-3,6
2780,-315,-35,938,-6,-2,6
2781,-318,-34,938,-4,-2,5
2782,-320,-34,939,-6,-1,3
2783,-319,-32,935,-6,0,4
2784,-317,-32,939,-5,-1,6
2785,-319,-34,937,-7,-2,6
2786,-321,-36,934,-6,-2,6
2787,-323,-33,937,-6,-1,5
2788,-321,-30,936,-5,-2,3
2789,-323,-28,934,-5,-3,4
2790,-322,-32,934,-7,-5,5
2791,-325,-35,934,-7,-6,6
2792,-323,-35,932,-3,-5,5
2793,-325,-34,935,-6,-7,5
2794,-326,-32,934,-5,-8,7
2795,-325,-33,935,-7,-9,6
2796,-324,-33,934,-6,-10,7
2797,-322,-32,935,-6,-10,6
2798,-322,-33,935,-6,-11,6
2799,-321,-31,935,-4,-12,5
2800,-320,-31,936,-6,-13,6
2801,-319,-31,939,-7,-13,6
2802,-315,-34,936,-7,-12,6
2803,-314,-34,941,-8,-12,5
2804,-309,-34,944,-6,-11,6
2805,-309,-33,943,-6,-7,6
2806,-305,-32,945,-5,-6,5
2807,-305,-32,945,-6,-2,6
2808,-304,-37,947,-6,-1,4
2809,-304,-37,946,-4,3,5
2810,-304,-36,945,-6,6,5
2811,-306,-37,944,-4,9,6
2812,-308,-36,943,-3,11,7
2813,-309,-34,941,-4,13,5
2814,-314,-31,940,-3,15,5
2815,-317,-30,939,-5,16,6
2816,-319,-34,937,-3,16,6
2817,-323,-34,936,-6,16,5
2818,-321,-33,936,-3,16,5
2819,-324,-32,935,-3,15,5
2820,-325,-33,931,-4,14,4
2821,-327,-31,933,-4,13,6
2822,-327,-35,931,-6,10,7
2823,-327,-36,932,-3,10,6
2824,-327,-34,933,-5,9,4
2825,-324,-31,934,-3,8,5
2826,-320,-31,936,-4,7,7
2827,-320,-33,936,-4,5,6
2828,-320,-34,937,-3,5,5
2829,-320,-34,938,-5,5,7
2830,-321,-34,937,-3,6,7
2831,-322,-34,934,-3,5,7
2832,-326,-34,933,-5,3,8
2833,-328,-32,932,-3,2,7
2834,-329,-32,932,-6,1,7
2835,-332,-31,930,-3,0,6
2836,-330,-29,931,-6,-2,5
2837,-333,-29,931,-4,-4,7
2838,-334,-31,930,-6,-7,6
2839,-333,-33,931,-5,-9,7
2840,-332,-34,929,-8,-12,7
2841,-334,-32,931,-5,-15,6
2842,-332,-31,930,-6,-16,6
2843,-335,-30,930,-9,-20,6
2844,-332,-32,929,-5,-22,7
2845,-333,-31,930,-8,-24,7
2846,-328,-32,931,-7,-27,6
2847,-325,-32,933,-9,-29,7
2848,-318,-32,938,-7,-29,6
2849,-310,-32,941,-5,-28,8
2850,-307,-33,944,-8,-27,7
2851,-305,-35,948,-5,-23,5
2852,-298,-34,948,-7,-21,5
2853,-299,-34,948,-4,-16,5
2854,-299,-34,948,-6,-12,4
2855,-300,-35,948,-5,-9,5
2856,-301,-34,947,-4,-4,5
2857,-303,-32,946,-4,0,4
2858,-305,-33,944,-3,3,3
2859,-310,-33,943,-5,6,3
2860,-312,-34,942,-5,8,4
2861,-315,-35,939,-3,9,5
2862,-317,-36,937,-3,10,5
2863,-318,-38,935,-2,9,4
2864,-321,-36,934,-4,10,4
2865,-322,-34,935,-2,9,4
2866,-322,-34,936,-4,9,5
2867,-325,-34,936,-2,9,5
2868,-323,-35,934,-4,7,5
2869,-323,-35,934,0,8,5
2870,-324,-35,934,-1,7,5
2871,-325,-31,936,-3,5,7
2872,-322,-30,936,-2,5,6
2873,-323,-31,936,-4,4,7
2874,-323,-31,935,0,3,5
2875,-321,-32,939,-4,2,4
2876,-319,-32,939,-2,3,4
2877,-319,-32,938,-5,3,4
2878,-320,-33,936,-3,2,5
2879,-322,-31,936,-5,2,6
2880,-323,-30,935,-4,2,5
2881,-327,-31,934,-4,3,6
2882,-327,-30,935,-5,-1,5
2883,-330,-31,933,-4,-1,5
2884,-331,-33,931,-6,-3,6
2885,-330,-32,930,-4,-5,4
2886,-334,-32,930,-6,-6,4
2887,-331,-32,929,-5,-9,5
2888,-334,-33,930,-5,-10,6
2889,-332,-31,930,-5,-13,6
2890,-331,-33,931,-6,-17,6
2891,-327,-32,932,-7,-19,6
2892,-325,-31,933,-6,-20,6
2893,-320,-33,936,-7,-22,6
2894,-320,-31,938,-8,-21,5
2895,-316,-30,939,-5,-21,4
2896,-312,-29,942,-7,-21,3
2897,-309,-33,944,-5,-17,4
2898,-307,-36,943,-9,-16,3
2899,-308,-37,942,-4,-12,2
2900,-304,-29,947,-5,-9,2
2901,-307,-27,946,-2,-5,-1
2902,-307,-25,946,-4,-3,-1
2903,-310,-33,941,-9,0,-1
2904,-313,-39,938,-6,1,0
2905,-316,-46,934,-6,3,1
2906,-322,-43,934,-1,3,1
2907,-326,-34,932,-3,1,2
2908,-328,-28,933,-2,1,3
2909,-328,-31,932,-4,-1,5
2910,-329,-35,932,-3,-3,4
2911,-325,-37,934,-2,-4,3
2912,-323,-38,934,-2,-6,2
2913,-318,-36,938,-1,-7,3
2914,-314,-35,940,-3,-5,5
2915,-313,-30,943,1,-5,6
2916,-312,-28,941,-2,-4,5
2917,-314,-26,942,-1,-1,4
2918,-314,-26,940,-4,-1,4
2919,-316,-30,940,-4,1,3
2920,-321,-33,937,-5,2,4
2921,-326,-32,936,-5,0,2
2922,-329,-29,934,-5,0,3
2923,-331,-30,932,-5,-2,3
2924,-332,-29,930,-5,-3,4
2925,-332,-28,931,-6,-5,4
2926,-333,-29,929,-6,-9,3
2927,-333,-31,929,-9,-11,3
2928,-334,-32,928,-9,-14,2
2929,-337,-34,927,-8,-17,2
2930,-337,-33,927,-9,-21,3
2931,-340,-32,924,-8,-25,5
2932,-341,-32,925,-11,-30,5
2933,-341,-33,925,-9,-33,6
2934,-339,-30,927,-10,-38,6
2935,-339,-29,928,-9,-42,6
2936,-338,-31,929,-11,-46,6
2937,-335,-32,929,-12,-49,6
2938,-332,-31,931,-11,-53,5
2939,-329,-31,933,-11,-54,4
2940,-322,-32,936,-10,-55,4
2941,-321,-29,935,-13,-57,4
2942,-318,-28,937,-11,-56,3
2943,-318,-31,938,-14,-57,4
2944,-317,-33,938,-12,-56,3
2945,-314,-35,940,-14,-55,3
2946,-312,-38,939,-13,-55,2
2947,-311,-37,940,-13,-54,2
2948,-310,-37,941,-12,-52,3
2949,-310,-35,943,-11,-52,4
2950,-310,-33,942,-12,-51,3
2951,-312,-32,940,-11,-50,2
2952,-310,-31,942,-11,-49,2
2953,-310,-33,940,-10,-46,2
2954,-311,-33,941,-10,-45,3
2955,-309,-32,940,-11,-45,3
2956,-311,-32,941,-10,-45,1
2957,-311,-34,941,-11,-43,1
2958,-308,-34,940,-10,-42,2
2959,-310,-37,944,-11,-41,2
2960,-307,-36,942,-9,-39,3
2961,-312,-36,940,-8,-38,2
2962,-310,-34,939,-8,-37,4
2963,-315,-33,938,-8,-36,3
2964,-318,-30,938,-10,-36,3
2965,-320,-32,937,-9,-37,3
2966,-318,-34,935,-11,-38,3
2967,-320,-35,936,-9,-39,3
2968,-319,-34,936,-9,-38,4
2969,-317,-34,936,-10,-40,4
2970,-318,-32,937,-8,-41,4
2971,-317,-31,937,-11,-42,4
2972,-318,-32,937,-12,-43,4
2973,-316,-32,938,-14,-43,4
2974,-314,-34,940,-11,-43,4
2975,-311,-38,938,-12,-43,5
2976,-310,-38,939,-11,-42,5
2977,-306,-39,941,-11,-42,6
2978,-305,-38,944,-11,-40,7
2979,-301,-35,945,-9,-38,5
2980,-297,-33,946,-10,-34,6
2981,-297,-35,949,-7,-33,6
2982,-295,-35,950,-9,-29,6
2983,-292,-37,950,-6,-24,6
2984,-294,-36,950,-8,-21,6
2985,-293,-37,949,-6,-17,6
2986,-294,-35,949,-6,-13,6
2987,-298,-35,947,-5,-9,7
2988,-300,-33,947,-4,-6,6
2989,-303,-32,946,-6,-3,5
2990,-307,-30,943,-4,0,5
2991,-313,-31,941,-7,0,5
2992,-313,-33,938,-3,0,5
2993,-313,-36,938,-8,1,4
2994,-315,-37,937,-4,0,3
2995,-316,-38,934,-4,1,5
2996,-318,-36,935,-4,0,5
2997,-323,-34,934,-5,-2,6
2998,-323,-31,934,-3,-4,7
2999,-322,-32,935,-5,-6,6
3000,-322,-32,934,-4,-7,5
3001,-321,-31,934,-7,-8,5
3002,-323,-35,936,-7,-11,6
3003,-321,-37,936,-6,-11,6
3004,-319,-34,935,-6,-13,6
3005,-317,-33,936,-4,-14,6
3006,-317,-32,936,-5,-15,6
3007,-318,-32,940,-5,-14,8
3008,-317,-32,938,-8,-17,7
3009,-317,-32,938,-6,-17,8
3010,-316,-33,939,-8,-17,7
3011,-315,-35,939,-6,-18,6
3012,-314,-35,939,-6,-18,6
3013,-314,-34,939,-6,-18,6
3014,-311,-33,938,-7,-19,7
3015,-313,-32,940,-7,-18,6
3016,-314,-33,940,-6,-16,5
3017,-313,-32,939,-7,-17,5
3018,-314,-29,938,-6,-17,5
3019,-314,-32,940,-8,-18,5
3020,-314,-33,938,-7,-17,3
3021,-316,-35,938,-7,-18,4
3022,-314,-35,939,-7,-17,5
3023,-314,-35,940,-6,-19,4
3024,-313,-35,940,-7,-18,3
3025,-310,-35,942,-7,-18,4
3026,-306,-36,942,-6,-18,3
3027,-302,-36,945,-6,-14,3
3028,-300,-34,946,-6,-13,4
3029,-298,-34,949,-5,-10,3
3030,-293,-32,952,-4,-6,2
3031,-293,-32,952,-7,-2,2
3032,-294,-34,951,-5,2,3
3033,-295,-35,950,-6,6,2
3034,-295,-35,949,-5,10,3
3035,-297,-35,947,-6,13,2
3036,-301,-36,946,-3,17,3
3037,-305,-37,945,-5,18,3
3038,-305,-35,940,-8,21,3
3039,-310,-33,941,-6,22,3
3040,-313,-34,938,-2,21,3
3041,-316,-34,937,-4,23,4
3042,-318,-36,936,1,22,4
3043,-321,-36,934,-7,18,4
3044,-324,-34,934,3,18,5
3045,-322,-34,936,-6,15,6
3046,-321,-38,936,2,15,7
3047,-319,-39,937,-6,14,7
3048,-317,-36,936,2,13,7
3049,-314,-35,938,-2,11,8
3050,-312,-38,939,0,13,9
3051,-312,-38,940,-2,11,10
3052,-309,-37,942,0,13,9
3053,-310,-33,941,0,14,8
3054,-310,-31,942,-1,15,8
3055,-311,-31,941,0,15,9
3056,-311,-30,939,-2,16,8
3057,-313,-31,940,0,17,8
3058,-315,-33,939,-3,16,7
3059,-319,-33,936,-1,16,8
3060,-318,-33,937,-5,16,8
3061,-325,-31,936,-1,16,7
3062,-323,-32,932,-5,13,7
3063,-326,-32,934,-3,11,6
3064,-328,-30,932,-3,9,6
3065,-327,-31,932,-3,7,7
3066,-325,-32,932,-3,5,6
3067,-322,-34,933,-6,3,7
3068,-321,-33,934,-3,2,6
3069,-318,-31,935,-5,1,6
3070,-317,-32,936,-2,0,6
3071,-314,-31,938,-6,-2,5
3072,-310,-31,941,-4,0,4
3073,-309,-32,941,-5,1,5
3074,-307,-33,944,-4,1,5
3075,-308,-34,943,-5,4,5
3076,-308,-34,943,-4,3,4
3077,-309,-33,943,-5,7,4
3078,-311,-34,940,-7,7,6
3079,-313,-34,940,-4,9,6
3080,-312,-34,940,-5,9,4
3081,-315,-37,939,-3,9,4
3082,-314,-38,936,-5,10,4
3083,-316,-35,937,-4,9,5
3084,-318,-35,935,-5,10,6
3085,-320,-34,934,-5,7,6
3086,-323,-33,935,-2,6,5
3087,-324,-33,934,-4,4,5
3088,-324,-33,932,-4,2,6
3089,-326,-35,932,-6,1,6
3090,-325,-33,933,-2,-1,6
3091,-326,-33,933,-6,-3,5
3092,-324,-34,932,-2,-5,6
3093,-325,-33,933,-4,-7,6
3094,-324,-32,935,-2,-8,6
3095,-324,-32,935,-4,-10,6
3096,-322,-31,934,-3,-12,6
3097,-320,-31,936,-4,-13,5
3098,-320,-33,936,-5,-14,5
3099,-320,-33,935,-5,-16,6
3100,-320,-33,935,-7,-17,5
3101,-321,-33,935,-4,-18,6
3102,-326,-28,934,-9,-21,4
3103,-327,-29,932,-6,-21,5
3104,-326,-29,932,-8,-24,5
3105,-328,-30,932,-8,-27,4
3106,-325,-32,933,-10,-27,5
3107,-325,-31,931,-8,-30,4
3108,-328,-34,931,-9,-33,4
3109,-327,-33,931,-9,-35,3
3110,-327,-31,932,-9,-37,4
3111,-328,-32,933,-10,-40,4
3112,-327,-31,933,-10,-43,5
3113,-323,-30,935,-10,-45,4
3114,-320,-31,934,-11,-47,4
3115,-319,-32,935,-11,-49,3
3116,-318,-34,936,-12,-50,3
3117,-321,-33,934,-13,-52,3
3118,-322,-33,936,-12,-52,3
3119,-324,-31,935,-11,-53,3
3120,-328,-28,934,-14,-55,2
3121,-328,-28,934,-12,-58,2
3122,-324,-28,935,-15,-61,2
3123,-325,-31,934,-15,-63,1
3124,-320,-35,935,-15,-64,0
3125,-316,-37,938,-14,-66,1
3126,-314,-35,937,-15,-68,0
3127,-310,-36,939,-14,-66,1
3128,-308,-35,940,-13,-66,1
3129,-305,-35,944,-13,-65,2
3130,-302,-34,945,-12,-64,3
3131,-300,-35,946,-14,-62,1
3132,-297,-36,945,-12,-60,2
3133,-298,-38,948,-13,-56,1
3134,-297,-37,948,-13,-54,3
3135,-299,-35,947,-10,-52,3
3136,-301,-36,946,-12,-50,3
3137,-303,-34,945,-11,-49,3
3138,-303,-34,944,-15,-47,3
3139,-307,-36,942,-10,-45,3
3140,-310,-35,940,-12,-44,4
3141,-309,-35,939,-7,-44,3
3142,-314,-37,939,-12,-46,2
3143,-312,-33,938,-9,-45,2
3144,-315,-36,938,-11,-44,2
3145,-315,-34,938,-9,-46,3
3146,-316,-37,937,-9,-47,2
3147,-316,-35,936,-11,-48,3
3148,-317,-36,937,-9,-49,3
3149,-315,-35,936,-11,-50,3
3150,-318,-33,936,-10,-52,3
3151,-317,-36,935,-12,-54,3
3152,-318,-36,935,-9,-55,3
3153,-319,-37,937,-11,-57,3
3154,-316,-36,936,-8,-59,4
3155,-317,-35,936,-12,-60,3
3156,-312,-33,937,-9,-63,3
3157,-309,-33,941,-10,-63,3
3158,-305,-32,943,-11,-62,3
3159,-299,-33,947,-10,-62,2
3160,-295,-33,949,-12,-61,1
3161,-291,-34,950,-9,-57,2
3162,-286,-33,951,-14,-55,2
3163,-286,-35,953,-10,-50,2
3164,-287,-35,953,-13,-46,1
3165,-287,-36,951,-11,-43,1
3166,-290,-35,952,-11,-38,1
3167,-290,-35,950,-12,-34,0
3168,-294,-36,948,-9,-31,1
3169,-294,-38,949,-11,-30,1
3170,-297,-39,946,-10,-26,1
3171,-298,-38,945,-10,-25,2
3172,-299,-36,946,-7,-23,2
3173,-298,-38,944,-9,-21,2
3174,-296,-39,945,-7,-21,2
3175,-296,-37,946,-7,-19,4
3176,-299,-39,944,-7,-15,4
3177,-301,-39,941,-4,-17,3
3178,-303,-36,943,-5,-15,5
3179,-306,-35,941,-6,-14,4
3180,-307,-37,941,-6,-15,4
3181,-310,-33,940,-4,-15,5
3182,-310,-32,939,-5,-15,3
3183,-310,-34,938,-5,-17,2
3184,-311,-34,938,-6,-17,3
3185,-311,-35,938,-6,-19,4
3186,-312,-35,937,-6,-19,4
3187,-314,-34,937,-5,-21,4
3188,-313,-33,937,-3,-23,5
3189,-313,-33,937,-8,-25,5
3190,-314,-33,937,-5,-26,4
3191,-310,-36,938,-8,-29,5
3192,-306,-35,941,-4,-29,5
3193,-305,-36,942,-6,-30,4
3194,-300,-33,943,-7,-30,5
3195,-298,-34,946,-6,-29,4
3196,-296,-30,947,-6,-27,3
3197,-296,-32,948,-8,-25,4
3198,-295,-33,948,-8,-21,3
3199,-294,-36,948,-7,-20,3
3200,-293,-40,946,-6,-20,2
3201,-295,-38,947,-6,-16,2
3202,-295,-37,947,-8,-14,3
3203,-296,-36,945,-6,-12,4
3204,-301,-37,945,-7,-11,3
3205,-305,-35,942,-6,-10,3
3206,-305,-34,939,-7,-11,2
3207,-309,-35,939,-7,-11,3
3208,-309,-34,940,-7,-13,2
3209,-307,-34,941,-8,-13,3
3210,-306,-35,940,-8,-13,3
3211,-299,-34,945,-10,-12,3
3212,-294,-35,947,-6,-11,2
3213,-288,-37,952,-8,-9,3
3214,-287,-38,952,-5,-5,3
3215,-284,-38,953,-8,-1,3
3216,-285,-39,953,-6,4,3
3217,-286,-39,951,-6,6,2
3218,-289,-40,951,-4,12,1
3219,-291,-39,948,-4,14,2
3220,-292,-39,946,-4,15,3
3221,-295,-38,945,-2,19,3
3222,-298,-40,944,-2,20,3
3223,-301,-40,942,0,21,3
3224,-301,-38,943,0,22,3
3225,-304,-37,942,1,23,4
3226,-302,-38,940,0,22,3
3227,-304,-37,942,0,24,4
3228,-305,-37,942,1,23,4
3229,-304,-37,943,1,23,4
3230,-302,-36,943,2,24,5
3231,-302,-34,942,-1,24,6
3232,-304,-33,943,0,24,6
3233,-304,-36,943,-1,27,6
3234,-306,-34,943,-1,26,6
3235,-306,-35,940,-2,26,6
3236,-311,-35,940,-1,26,7
3237,-312,-36,938,0,25,6
3238,-315,-37,938,0,25,5
3239,-314,-35,938,0,22,6
3240,-315,-34,936,0,20,7
3241,-319,-34,935,0,18,6
3242,-318,-34,936,-1,17,6
3243,-319,-34,936,0,15,6
3244,-317,-35,935,0,12,6
3245,-319,-37,935,-3,11,6
3246,-317,-36,934,-3,7,7
3247,-316,-36,937,-2,6,8
3248,-315,-34,937,-5,5,7
3249,-308,-33,940,-2,3,7
3250,-307,-33,942,-3,3,7
3251,-305,-33,943,-4,2,6
3252,-302,-35,944,-3,3,5
3253,-299,-35,946,-4,5,5
3254,-295,-35,947,0,7,5
3255,-295,-36,949,-4,8,6
3256,-293,-36,949,-2,13,5
3257,-296,-37,948,-3,15,6
3258,-297,-34,948,-4,17,6
3259,-297,-34,946,-2,19,4
3260,-299,-33,945,-4,19,5
3261,-303,-36,943,-2,21,5
3262,-305,-36,943,-4,24,5
3263,-307,-36,942,-2,22,5
3264,-306,-34,942,-2,23,5
3265,-306,-33,941,-2,24,5
3266,-309,-32,940,-2,23,6
3267,-312,-33,940,-3,24,6
3268,-313,-34,938,-1,23,4
3269,-312,-35,937,-3,21,4
3270,-313,-37,935,0,21,5
3271,-315,-38,935,-3,19,6
3272,-317,-38,937,1,17,5
3273,-312,-38,937,-2,15,6
3274,-311,-34,938,0,13,5
3275,-311,-34,939,-2,13,6
3276,-310,-34,940,-1,12,7
3277,-306,-34,941,-1,13,7
3278,-308,-33,940,-2,13,6
3279,-308,-32,940,-1,13,4
3280,-310,-33,941,-5,13,5
3281,-312,-33,940,-2,13,5
3282,-312,-35,940,-4,13,5
3283,-314,-34,938,-2,11,5
3284,-316,-35,936,-3,10,5
3285,-319,-32,935,-3,9,5
3286,-323,-33,933,-2,7,5
3287,-325,-34,932,-2,3,4
3288,-328,-36,931,-1,-1,4
3289,-328,-34,929,-5,-4,4
3290,-328,-35,930,-2,-6,4
3291,-327,-36,930,-7,-11,5
3292,-327,-32,931,-4,-15,6
3293,-325,-31,932,-8,-17,5
3294,-326,-31,933,-4,-22,5
3295,-322,-30,933,-5,-25,4
3296,-323,-32,934,-8,-28,4
3297,-322,-34,933,-6,-32,4
3298,-317,-37,932,-8,-33,5
3299,-315,-36,937,-4,-34,5
3300,-309,-33,941,-8,-36,5
3301,-306,-33,945,-5,-36,4
3302,-299,-32,948,-8,-33,6
3303,-295,-31,949,-5,-33,5
3304,-292,-35,951,-7,-29,3
3305,-293,-35,950,-8,-26,3
3306,-290,-37,949,-7,-24,3
3307,-293,-39,948,-8,-20,2
3308,-294,-39,948,-5,-16,3
3309,-297,-37,946,-6,-15,3
3310,-300,-36,946,-4,-13,3
3311,-302,-37,946,-7,-12,4
3312,-300,-39,943,-5,-10,3
3313,-301,-39,945,-5,-7,3
3314,-300,-38,945,-4,-7,4
3315,-300,-37,945,-3,-5,4
3316,-297,-34,945,-4,-4,4
3317,-297,-34,946,-2,-3,4
3318,-297,-34,949,-6,-1,5
3319,-293,-37,948,-2,2,4
3320,-294,-36,947,-6,5,4
3321,-296,-39,946,-3,7,4
3322,-298,-37,947,-5,9,5
3323,-299,-36,945,-3,12,5
3324,-297,-36,945,-2,14,4
3325,-303,-35,944,0,15,5
3326,-304,-35,943,-2,15,6
3327,-305,-36,941,-3,16,6
3328,-305,-37,941,-3,17,7
3329,-308,-37,940,-3,16,6
3330,-306,-37,940,0,18,7
3331,-307,-36,942,-1,17,6
3332,-305,-34,943,-1,18,7
3333,-306,-34,943,-3,19,7
3334,-304,-35,944,1,18,6
3335,-302,-37,944,-2,19,6
3336,-301,-38,944,-1,20,6
3337,-302,-37,944,-1,23,7
3338,-302,-37,943,0,23,6
3339,-305,-36,944,1,25,6
3340,-305,-35,941,0,24,6
3341,-307,-34,941,1,26,7
3342,-307,-33,942,-2,27,7
3343,-308,-33,940,1,25,5
3344,-311,-33,938,-1,26,6
3345,-313,-34,937,-1,25,6
3346,-316,-35,937,1,24,6
3347,-318,-34,938,0,24,6
3348,-317,-32,937,2,22,7
3349,-316,-31,935,-1,20,5
3350,-316,-32,938,1,19,5
3351,-314,-32,941,-4,19,5
3352,-310,-35,940,0,18,4
3353,-308,-36,940,-4,18,3
3354,-306,-36,942,-1,18,5
3355,-309,-34,942,-3,19,5
3356,-309,-31,940,-1,20,4
3357,-312,-28,940,-1,18,3
3358,-314,-30,939,-3,19,3
3359,-315,-32,935,0,18,1
3360,-317,-33,934,-4,16,1
3361,-320,-32,931,0,14,-1
3362,-326,-28,925,1,8,-7
3363,-323,-22,922,11,2,-20
3364,-322,-13,932,13,-4,-40
3365,-323,-6,939,24,-8,-59
3366,-315,-3,943,23,-11,-77
3367,-311,-9,942,25,-13,-89
3368,-306,-26,942,20,-14,-95
3369,-302,-51,942,25,-14,-101
3370,-294,-50,944,27,-13,-105
3371,-303,-42,946,30,-9,-105
3372,-296,-43,937,29,-10,-104
3373,-293,-45,952,31,-7,-103
3374,-298,-38,965,26,0,-96
3375,-297,-31,952,17,8,-82
3376,-301,-42,948,19,12,-68
3377,-306,-47,945,3,12,-52
3378,-309,-64,935,14,16,-37
3379,-319,-63,938,1,18,-29
3380,-318,-50,933,14,18,-21
3381,-319,-37,933,4,18,-12
3382,-322,-38,936,5,16,-5
3383,-323,-35,935,1,14,-1
3384,-322,-33,937,1,12,0
3385,-318,-30,937,1,11,2
3386,-315,-36,936,-2,10,1
3387,-314,-37,940,2,9,4
3388,-309,-36,940,-3,7,5
3389,-307,-36,941,2,9,6
3390,-307,-37,944,-6,9,5
3391,-301,-35,946,1,11,6
3392,-299,-32,947,-4,13,6
3393,-298,-33,948,0,17,7
3394,-300,-34,947,-4,18,7
3395,-299,-37,947,0,21,6
3396,-296,-35,946,-2,23,6
3397,-299,-36,946,2,26,6
3398,-302,-36,945,0,28,5
3399,-303,-35,946,1,31,6
3400,-303,-33,946,1,32,6
3401,-303,-34,945,-2,35,6
3402,-305,-35,944,2,37,5
3403,-305,-34,943,-2,37,5
3404,-307,-33,944,1,39,5
3405,-306,-34,941,-1,39,6
3406,-311,-35,937,3,41,5
3407,-313,-36,939,0,40,6
3408,-313,-35,939,1,40,6
3409,-311,-37,938,0,39,5
3410,-313,-36,939,3,40,6
3411,-309,-36,939,1,39,6
3412,-310,-35,941,2,40,7
3413,-309,-34,941,1,41,6
3414,-309,-37,942,1,42,6
3415,-310,-34,941,3,42,5
3416,-311,-35,941,2,42,5
3417,-314,-36,939,2,42,4
3418,-313,-35,941,1,42,2
3419,-315,-32,938,5,43,1
3420,-317,-32,937,7,42,-4
3421,-319,-29,936,8,40,-6
3422,-321,-27,936,9,39,-12
3423,-320,-26,936,9,37,-17
3424,-322,-26,936,10,37,-21
3425,-319,-28,935,9,34,-24
3426,-321,-33,933,13,32,-26
3427,-319,-34,935,13,30,-31
3428,-322,-32,934,15,28,-33
3429,-324,-32,935,15,27,-35
3430,-322,-32,938,16,26,-34
3431,-321,-33,937,13,25,-30
3432,-326,-36,936,10,25,-26
3433,-327,-38,931,9,25,-23
3434,-328,-39,930,9,20,-21
3435,-327,-36,929,11,19,-22
3436,-330,-32,933,10,15,-20
3437,-331,-27,932,9,13,-20
3438,-329,-24,932,5,12,-17
3439,-328,-29,934,4,10,-14
3440,-327,-37,935,0,7,-10
3441,-327,-37,934,0,7,-7
3442,-324,-35,933,-2,5,-4
3443,-321,-37,933,-3,3,-1
3444,-320,-38,936,-4,3,3
3445,-319,-37,936,-3,1,4
3446,-319,-32,938,-4,2,6
3447,-319,-30,937,-3,2,5
3448,-320,-30,937,-4,0,5
3449,-320,-30,937,-5,1,5
3450,-320,-31,937,-5,0,4
3451,-321,-31,935,-6,-2,3
3452,-323,-34,936,-4,-1,4
3453,-324,-34,935,-5,-3,3
3454,-323,-35,935,-5,-5,4
3455,-326,-34,933,-4,-4,5
3456,-328,-34,932,-6,-8,4
3457,-328,-31,931,-6,-10,4
3458,-330,-33,928,-6,-12,3
3459,-329,-34,930,-6,-16,4
3460,-328,-35,932,-6,-17,5
3461,-328,-35,932,-5,-20,4
3462,-327,-34,932,-5,-24,5
3463,-326,-34,932,-6,-26,5
3464,-327,-33,932,-6,-29,5
3465,-325,-31,934,-8,-30,5
3466,-325,-32,932,-8,-31,5
3467,-324,-33,933,-7,-33,5
3468,-321,-32,935,-9,-36,4
3469,-323,-33,934,-8,-37,6
3470,-323,-31,935,-11,-39,6
3471,-321,-31,938,-7,-41,6
3472,-318,-29,938,-11,-40,6
3473,-313,-31,940,-9,-41,5
3474,-310,-33,940,-13,-41,4
3475,-308,-34,942,-9,-39,3
3476,-306,-34,942,-12,-39,4
3477,-305,-36,944,-8,-37,4
3478,-305,-37,944,-8,-34,4
3479,-305,-38,945,-10,-32,4
3480,-304,-38,943,-7,-30,4
3481,-303,-37,943,-9,-28,4
3482,-306,-37,944,-7,-27,5
3483,-306,-37,943,-7,-25,3
3484,-305,-37,943,-6,-23,4
3485,-305,-37,944,-7,-23,5
3486,-302,-35,944,-4,-20,5
3487,-300,-36,945,-6,-18,6
3488,-297,-37,948,-5,-16,6
3489,-295,-36,949,-4,-13,6
3490,-294,-38,950,-4,-8,5
3491,-292,-37,949,-5,-5,6
3492,-292,-36,950,-2,-2,7
3493,-294,-36,949,-2,4,7
3494,-296,-39,947,-3,6,8
3495,-299,-38,947,-1,10,8
3496,-302,-37,945,-2,12,9
3497,-306,-34,943,0,14,10
3498,-309,-34,941,-1,15,9
3499,-313,-31,939,-1,16,10
3500,-314,-30,939,-1,16,9
3501,-319,-28,940,-2,17,9
3502,-318,-24,939,-2,16,7
3503,-315,-21,941,-2,15,6
3504,-316,-23,944,-5,16,5
3505,-316,-37,937,-8,14,3
3506,-316,-41,937,-4,13,4
3507,-315,-46,934,-7,13,4
3508,-316,-42,937,-2,13,5
3509,-318,-39,935,-4,12,7
3510,-318,-32,938,0,11,5
3511,-312,-23,943,-2,12,5
3512,-267,22,999,1,14,0
3513,-254,-4,958,-10,30,-8
3514,-279,-23,971,-12,41,-13
3515,-266,-65,946,-14,46,-8
3516,-294,-80,943,-9,55,-4
3517,-302,-86,934,-1,56,-1
3518,-323,-51,936,7,57,0
3519,-326,-29,926,10,56,3
3520,-344,-18,927,3,52,4
3521,-360,-27,916,3,46,5
3522,-358,-28,914,2,38,3
3523,-365,-26,916,3,30,2
3524,-361,-36,906,0,21,1
3525,-365,-37,916,4,12,0
3526,-349,-34,917,4,3,-1
3527,-342,-32,923,2,-4,0
3528,-335,-40,927,1,-9,1
3529,-328,-41,930,-1,-12,2
3530,-318,-33,937,4,-15,2
3531,-307,-31,940,2,-15,2
3532,-304,-32,946,3,-15,1
3533,-296,-32,949,0,-14,0
3534,-289,-26,955,3,-8,-2
3535,-283,-27,956,1,-3,-3
3536,-282,-27,959,2,4,-6
3537,-279,-28,959,0,11,-9
3538,-276,-28,961,2,18,-10
3539,-277,-32,960,3,27,-12
3540,-283,-36,955,3,33,-15
3541,-290,-36,953,4,40,-17
3542,-291,-31,949,5,44,-19
3543,-300,-29,946,8,48,-22
3544,-310,-30,940,7,49,-23
3545,-319,-29,938,12,50,-26
3546,-322,-24,932,10,49,-32
3547,-329,-26,930,13,45,-38
3548,-335,-26,928,14,42,-45
3549,-336,-23,928,18,38,-51
3550,-335,-21,928,19,33,-57
3551,-333,-24,932,17,31,-58
3552,-336,-29,929,16,28,-58
3553,-336,-33,926,14,24,-54
3554,-334,-42,927,12,20,-51
3555,-337,-48,927,12,16,-48
3556,-336,-47,925,15,15,-44
3557,-333,-41,929,14,11,-41
3558,-331,-36,935,14,9,-36
3559,-333,-35,934,6,8,-27
3560,-329,-39,935,6,7,-19
3561,-327,-41,935,-2,7,-9
3562,-330,-47,929,-2,6,0
3563,-333,-51,925,-5,4,5
3564,-331,-46,928,-2,2,8
3565,-327,-34,932,-1,-1,9
3566,-326,-26,937,1,-3,7
3567,-319,-23,938,-2,-4,7
3568,-315,-25,941,-5,-4,6
3569,-308,-29,944,-5,-3,7
3570,-305,-36,944,-8,-1,5
3571,-304,-41,943,-2,1,5
3572,-302,-41,945,-6,4,5
3573,-302,-37,946,-2,8,5
3574,-302,-36,948,-3,12,6
3575,-304,-33,946,-1,15,6
3576,-304,-28,947,-4,18,6
3577,-306,-29,944,-3,21,5
3578,-311,-32,942,-3,24,4
3579,-313,-35,940,-3,25,4
3580,-314,-35,938,-2,26,5
3581,-319,-37,936,-2,27,5
3582,-321,-37,935,-1,27,5
3583,-322,-35,935,1,26,4
3584,-321,-35,936,0,25,6
3585,-320,-31,936,-1,24,6
3586,-321,-32,937,1,25,6
3587,-320,-35,936,-2,24,5
3588,-316,-32,938,0,23,5
3589,-315,-33,939,-2,23,6
3590,-316,-34,939,1,25,6
3591,-314,-33,942,-1,26,6
3592,-310,-30,943,-2,26,6
3593,-307,-29,945,0,30,6
3594,-309,-31,944,-2,31,5
3595,-308,-35,943,0,34,4
3596,-311,-34,940,-3,35,6
3597,-318,-33,938,-2,37,6
3598,-322,-36,937,-3,38,6
3599,-327,-34,934,0,36,5
3600,-330,-34,931,-1,34,6
3601,-335,-34,927,-1,33,5
3602,-338,-34,926,0,31,6
3603,-338,-30,927,-1,26,5
3604,-339,-30,926,0,24,5
3605,-336,-28,927,-3,19,5
3606,-332,-30,931,0,15,6
3607,-329,-29,932,-5,13,6
3608,-327,-32,935,-2,13,6
3609,-325,-31,936,-6,11,7
3610,-320,-32,937,-3,11,6
3611,-318,-33,938,-4,11,6
3612,-320,-35,937,-3,10,6
3613,-319,-35,938,-3,11,6
3614,-318,-34,940,-6,13,6
3615,-319,-33,939,-3,12,5
3616,-319,-32,936,-2,14,5
3617,-321,-34,937,-1,15,5
3618,-321,-32,938,-3,15,5
3619,-324,-33,935,-1,15,5
3620,-326,-35,935,-3,13,5
3621,-330,-34,931,0,13,5
3622,-333,-33,930,0,12,4
3623,-334,-34,928,-1,10,6
3624,-337,-32,926,-3,7,6
3625,-338,-32,928,-2,5,6
3626,-335,-29,927,-2,1,6
3627,-336,-31,930,-2,-2,5
3628,-333,-31,930,-3,-5,6
3629,-330,-30,931,-4,-7,5
3630,-328,-29,934,-3,-8,5
3631,-329,-28,933,-6,-10,5
3632,-326,-31,934,-4,-10,4
3633,-323,-31,935,-7,-12,5
3634,-323,-31,936,-4,-11,5
3635,-321,-34,938,-7,-11,4
3636,-318,-31,939,-5,-12,4
3637,-317,-33,938,-7,-10,3
3638,-320,-33,938,-6,-9,4
3639,-321,-31,936,-6,-9,3
3640,-322,-33,935,-8,-9,4
3641,-326,-33,935,-7,-9,4
3642,-326,-32,933,-8,-9,4
3643,-329,-35,932,-6,-11,3
3644,-330,-32,931,-9,-13,4
3645,-331,-32,929,-6,-15,4
3646,-332,-34,930,-8,-17,5
3647,-331,-33,932,-5,-18,5
3648,-328,-33,933,-8,-21,5
3649,-324,-32,934,-8,-21,6
3650,-324,-32,935,-8,-21,6
3651,-323,-32,936,-8,-21,7
3652,-322,-32,937,-10,-22,6
3653,-319,-30,939,-10,-23,6
3654,-317,-29,941,-10,-21,6
3655,-312,-30,944,-12,-20,7
3656,-307,-30,944,-9,-18,6
3657,-307,-35,946,-12,-16,5
3658,-303,-36,944,-9,-13,5
3659,-302,-39,946,-11,-9,6
3660,-302,-39,947,-7,-5,5
3661,-300,-38,947,-7,-1,5
3662,-300,-37,948,-7,3,7
3663,-299,-36,950,-7,7,6
3664,-300,-33,950,-7,12,6
3665,-299,-31,950,-4,17,5
3666,-301,-32,948,-6,20,5
3667,-304,-37,945,-5,24,5
3668,-310,-41,942,-7,27,4
3669,-313,-44,940,0,30,2
3670,-315,-43,936,0,33,4
3671,-321,-40,935,3,33,5
3672,-321,-35,936,3,33,5
3673,-324,-32,934,3,33,6
3674,-327,-31,934,3,30,6
3675,-330,-31,933,2,32,6
3676,-329,-31,933,3,29,5
3677,-329,-34,932,2,28,4
3678,-331,-34,932,3,28,5
3679,-330,-37,931,1,26,5
3680,-330,-32,931,4,25,5
3681,-333,-29,932,2,23,4
3682,-333,-27,929,3,21,6
3683,-335,-29,930,-1,19,5
3684,-333,-26,930,1,17,5
3685,-334,-29,932,-2,14,5
3686,-333,-34,931,-2,12,5
3687,-334,-32,928,-1,10,4
3688,-337,-31,929,-3,7,5
3689,-337,-29,926,-2,4,6
3690,-338,-27,928,-4,3,7
3691,-339,-28,929,-3,-1,8
3692,-339,-29,929,-5,-3,7
3693,-338,-29,929,-3,-6,5
3694,-335,-32,929,-6,-9,5
3695,-333,-31,929,-6,-11,4
3696,-334,-35,929,-5,-12,5
3697,-329,-35,930,-8,-15,7
3698,-328,-36,931,-4,-16,7
3699,-328,-35,932,-7,-18,7
3700,-327,-35,933,-4,-18,6
3701,-322,-33,936,-5,-18,7
3702,-319,-32,938,-5,-18,6
3703,-315,-33,939,-7,-18,6
3704,-311,-34,941,-6,-15,5
3705,-308,-35,943,-5,-13,6
3706,-306,-36,945,-4,-10,5
3707,-304,-35,947,-3,-6,7
3708,-300,-35,947,-4,-2,6
3709,-300,-34,947,0,2,7
3710,-301,-34,949,-5,8,8
3711,-300,-32,947,-11,11,8
3712,-303,-32,948,-7,14,6
3713,-305,-30,949,0,19,6
3714,-304,-31,948,-6,23,7
3715,-304,-31,946,-1,26,6
3716,-307,-31,946,-5,30,6
3717,-309,-32,942,0,33,6
3718,-315,-34,941,-5,36,6
3719,-321,-35,939,1,38,7
3720,-324,-36,934,-3,37,8
3721,-329,-34,934,0,38,6
3722,-331,-34,931,-3,36,6
3723,-335,-33,928,0,35,8
3724,-337,-33,928,-2,33,7
3725,-341,-33,926,0,30,7
3726,-342,-30,927,-2,27,8
3727,-343,-29,927,0,24,8
3728,-343,-29,926,-3,20,7
3729,-342,-30,926,-2,18,7
3730,-341,-32,926,-3,14,6
3731,-342,-33,925,-3,10,6
3732,-342,-33,926,-3,7,6
3733,-341,-32,927,-4,4,7
3734,-341,-32,928,-1,0,6
3735,-338,-33,928,-4,-1,6
3736,-337,-30,928,-1,-5,6
3737,-336,-32,929,-5,-7,6
3738,-335,-29,930,-2,-8,5
3739,-333,-32,930,-4,-11,5
3740,-328,-33,932,-3,-12,4
3741,-327,-33,934,-4,-13,5
3742,-325,-35,936,-4,-14,6
3743,-322,-32,936,-5,-13,5
3744,-317,-31,939,-3,-12,5
3745,-315,-30,939,-4,-11,5
3746,-312,-32,941,-4,-9,5
3747,-313,-32,942,-4,-6,4
3748,-315,-30,941,-4,-4,5
3749,-315,-29,940,-5,-3,5
3750,-313,-29,942,-4,0,5
3751,-315,-30,944,-5,2,5
3752,-313,-30,942,-7,5,5
3753,-312,-32,944,-7,7,6
3754,-311,-33,943,-5,11,5
3755,-312,-35,942,-4,12,5
3756,-314,-35,941,-3,15,5
3757,-316,-36,941,-3,17,5
3758,-317,-37,940,-4,20,5
3759,-316,-36,938,2,21,6
3760,-317,-34,938,-2,22,5
3761,-321,-33,937,0,24,5
3762,-322,-32,936,0,25,5
3763,-324,-33,936,1,27,6
3764,-327,-34,934,0,27,5
3765,-327,-33,934,1,26,5
3766,-330,-34,932,1,26,5
3767,-334,-34,929,0,24,5
3768,-335,-34,929,3,22,5
3769,-336,-34,927,1,20,5
3770,-339,-34,928,3,18,5
3771,-343,-31,928,0,16,6
3772,-340,-30,927,2,13,6
3773,-341,-29,928,1,10,5
3774,-340,-28,929,1,8,4
3775,-339,-30,929,0,5,4
3776,-337,-32,927,-2,1,5
3777,-336,-31,927,0,1,6
3778,-336,-31,928,-2,-2,5
3779,-336,-29,930,2,-4,5
3780,-335,-28,931,-1,-7,5
3781,-334,-24,930,-1,-8,4
3782,-334,-23,932,-5,-10,4
3783,-332,-26,934,-2,-10,4
3784,-329,-30,934,-5,-11,5
3785,-326,-34,935,-6,-12,4
3786,-325,-34,935,-7,-11,5
3787,-323,-34,936,-7,-11,3
3788,-321,-33,937,-5,-11,4
3789,-322,-31,937,-5,-10,5
3790,-322,-28,939,-4,-10,5
3791,-320,-29,939,-8,-9,4
3792,-319,-29,940,-6,-7,4
3793,-315,-32,940,-8,-5,4
3794,-313,-35,941,-5,-3,4
3795,-313,-34,942,-8,-2,5
3796,-313,-34,943,-6,2,5
3797,-313,-33,942,-8,4,4
3798,-312,-32,942,-6,7,4
3799,-314,-35,941,-4,9,3
3800,-315,-35,940,-5,12,4
3801,-315,-35,940,-1,14,2
3802,-318,-34,938,-3,15,2
3803,-318,-32,938,1,17,2
3804,-320,-34,937,-2,18,3
3805,-322,-34,937,0,20,3
3806,-322,-36,937,-2,21,3
3807,-325,-33,934,1,21,2
3808,-327,-32,934,-1,19,2
3809,-328,-34,934,0,21,2
3810,-330,-33,933,0,20,2
3811,-334,-32,932,-1,19,2
3812,-335,-31,930,1,17,2
3813,-336,-32,930,-1,15,2
3814,-337,-31,930,1,15,1
3815,-336,-31,929,-2,13,3
3816,-338,-32,929,-1,11,3
3817,-338,-31,926,-3,7,3
3818,-340,-31,925,0,5,2
3819,-338,-30,926,-2,1,0
3820,-340,-28,927,1,-2,-2
3821,-340,-27,926,1,-5,-8
3822,-336,-24,928,3,-8,-13
3823,-335,-22,931,6,-10,-18
3824,-333,-22,932,5,-11,-22
3825,-332,-24,934,5,-13,-22
3826,-331,-29,933,1,-15,-24
3827,-329,-35,931,3,-15,-22
3828,-330,-40,932,0,-15,-21
3829,-333,-38,929,3,-16,-19
3830,-334,-37,931,-1,-18,-16
3831,-334,-35,932,1,-18,-12
3832,-337,-31,931,-2,-18,-9
3833,-338,-29,930,-1,-19,-5
3834,-339,-29,930,-6,-21,-2
3835,-339,-32,929,-7,-22,2
3836,-339,-33,929,-9,-24,4
3837,-338,-35,926,-9,-27,6
3838,-335,-35,928,-6,-29,5
3839,-334,-32,931,-9,-30,5
3840,-332,-29,933,-8,-32,6
3841,-326,-28,937,-9,-32,5
3842,-322,-29,939,-8,-32,4
3843,-319,-28,941,-9,-31,3
3844,-314,-32,944,-9,-29,3
3845,-311,-32,944,-8,-27,2
3846,-308,-33,945,-9,-23,3
3847,-308,-35,944,-10,-19,2
3848,-308,-36,944,-10,-15,2
3849,-310,-35,943,-6,-13,1
3850,-313,-34,942,-7,-10,2
3851,-313,-35,939,-4,-7,0
3852,-315,-34,939,-7,-5,1
3853,-317,-33,939,-5,-2,3
3854,-318,-34,938,-5,-1,2
3855,-319,-35,939,-3,1,1
3856,-319,-34,936,-4,1,1
3857,-321,-34,938,-3,3,0
3858,-322,-34,937,-4,3,2
3859,-325,-34,936,-4,3,2
3860,-323,-32,937,-4,4,2
3861,-322,-33,936,-4,4,2
3862,-323,-33,935,-2,5,2
3863,-326,-33,934,-3,3,2
3864,-327,-35,934,-3,5,2
3865,-327,-33,934,-3,4,3
3866,-328,-33,934,-3,4,3
3867,-329,-35,934,-3,4,4
3868,-327,-34,934,-3,3,2
3869,-327,-34,933,-1,3,2
3870,-329,-33,932,-3,2,3
3871,-328,-33,934,-2,2,5
3872,-325,-31,936,-5,2,5
3873,-326,-33,935,-3,2,5
3874,-327,-34,933,-6,1,4
3875,-330,-32,934,-3,1,4
3876,-327,-32,933,-5,0,4
3877,-328,-31,933,-2,0,4
3878,-330,-33,931,-5,0,4
3879,-330,-31,932,-4,0,4
3880,-330,-30,932,-6,-2,4
3881,-332,-32,932,-4,-3,3
3882,-330,-33,932,-4,-2,4
3883,-329,-32,933,-6,-5,4
3884,-329,-32,934,-3,-5,4
3885,-328,-29,935,-6,-5,3
3886,-327,-30,935,-3,-5,4
3887,-327,-31,935,-7,-6,3
3888,-324,-32,935,-5,-6,2
3889,-325,-34,935,-6,-6,2
3890,-323,-34,936,-3,-5,1
3891,-325,-37,936,-5,-4,0
3892,-326,-34,934,-3,-6,0
3893,-328,-32,933,-2,-5,0
3894,-330,-31,931,-3,-7,-1
3895,-333,-29,930,0,-8,-5
3896,-334,-26,930,0,-10,-10
3897,-334,-24,930,4,-12,-16
3898,-332,-19,930,4,-15,-22
3899,-331,-19,933,6,-16,-26
3900,-327,-21,934,5,-17,-31
3901,-327,-25,937,7,-18,-35
3902,-325,-27,936,5,-17,-38
3903,-322,-32,939,5,-18,-40
3904,-319,-33,938,7,-15,-40
3905,-318,-37,938,6,-15,-39
3906,-317,-39,938,6,-13,-37
3907,-315,-40,940,6,-12,-35
3908,-314,-42,941,5,-9,-35
3909,-316,-38,942,8,-7,-34
3910,-315,-35,943,6,-3,-32
3911,-316,-33,943,6,-1,-27
3912,-317,-34,940,3,2,-21
3913,-319,-39,940,4,3,-18
3914,-320,-41,937,2,5,-16
3915,-322,-39,934,4,5,-14
3916,-325,-37,934,1,5,-13
3917,-327,-32,933,7,5,-13
3918,-329,-31,933,5,4,-15
3919,-328,-29,935,7,5,-16
3920,-329,-29,935,4,4,-18
3921,-327,-28,935,5,5,-19
3922,-326,-29,934,6,5,-19
3923,-326,-33,935,2,3,-17
3924,-326,-39,935,4,4,-15
3925,-325,-40,934,2,5,-15
3926,-326,-35,934,8,3,-14
3927,-326,-32,933,4,3,-14
3928,-326,-29,933,7,3,-15
3929,-326,-28,936,6,2,-17
3930,-322,-27,938,7,2,-20
3931,-321,-29,939,6,4,-21
3932,-319,-31,943,7,5,-20
3933,-317,-33,942,6,8,-16
3934,-319,-37,940,2,11,-13
3935,-320,-40,937,2,12,-7
3936,-323,-44,936,-1,13,-4
3937,-325,-41,936,2,15,-2
3938,-327,-35,935,1,14,0
3939,-331,-31,933,3,15,3
3940,-330,-27,932,-1,14,4
3941,-334,-29,931,-2,12,6
3942,-334,-31,930,-2,12,6
3943,-335,-31,929,-3,11,5
3944,-337,-33,930,0,9,4
3945,-336,-35,931,-3,7,3
3946,-336,-32,929,-1,5,5
3947,-334,-32,931,-3,4,6
3948,-335,-34,931,-1,2,5
3949,-335,-34,930,-2,0,5
3950,-332,-31,929,-3,-1,7
3951,-333,-32,932,-3,-2,7
3952,-330,-32,932,-3,-3,7
3953,-329,-31,934,-4,-4,8
3954,-329,-31,934,-4,-5,8
3955,-325,-28,936,-3,-5,8
3956,-320,-29,937,-4,-5,8
3957,-316,-34,940,-4,-3,8
3958,-309,-36,945,-7,-1,7
3959,-304,-36,949,-2,3,8
3960,-303,-37,949,-3,8,7
3961,-301,-34,951,-1,13,8
3962,-302,-31,949,-3,17,8
3963,-304,-34,947,-3,22,8
3964,-307,-33,946,-4,26,8
3965,-308,-33,943,-2,30,9
3966,-311,-33,942,-1,35,9
3967,-316,-33,940,1,38,8
3968,-318,-33,938,-1,39,9
3969,-321,-32,938,0,40,8
3970,-323,-31,936,-1,43,8
3971,-328,-32,933,1,44,8
3972,-330,-32,933,1,43,7
3973,-334,-31,934,3,43,7
3974,-334,-31,931,1,42,6
3975,-338,-29,928,0,39,5
3976,-340,-31,927,3,38,5
3977,-345,-32,924,1,36,5
3978,-347,-30,922,3,30,4
3979,-350,-30,921,4,27,1
3980,-353,-27,918,5,21,-1
3981,-355,-26,919,4,16,-3
3982,-355,-26,919,5,12,-6
3983,-355,-26,922,6,6,-8
3984,-354,-27,922,6,4,-9
3985,-349,-26,924,2,-1,-7
3986,-351,-31,922,1,-7,-6
3987,-352,-31,921,-2,-10,-5
3988,-352,-34,922,-3,-14,-2
3989,-352,-34,921,-4,-20,0
3990,-351,-31,920,-4,-24,1
3991,-350,-28,919,-5,-30,3
3992,-351,-29,923,-5,-33,4
3993,-350,-28,922,-8,-37,5
3994,-348,-29,924,-8,-41,5
3995,-344,-29,926,-9,-45,5
3996,-342,-29,926,-7,-47,7
3997,-339,-29,927,-11,-51,7
3998,-335,-32,931,-7,-53,6
3999,-333,-31,934,-10,-53,5
4000,-325,-29,935,-7,-53,5
4001,-320,-27,940,-9,-52,4
4002,-315,-27,941,-10,-50,4
4003,-314,-32,942,-10,-48,4
4004,-312,-32,941,-12,-45,3
4005,-313,-35,942,-9,-43,3
4006,-314,-37,941,-8,-41,1
4007,-314,-37,940,-7,-36,2
4008,-315,-34,939,-9,-35,4
4009,-318,-33,940,-8,-32,5
4010,-318,-30,939,-8,-30,4
4011,-319,-27,939,-7,-29,3
4012,-319,-29,941,-8,-27,2
4013,-318,-29,939,-9,-26,3
4014,-317,-31,939,-9,-24,3
4015,-316,-36,937,-8,-22,2
4016,-313,-38,940,-7,-19,3
4017,-313,-38,942,-5,-17,4
4018,-311,-36,944,-4,-13,4
4019,-311,-35,943,-4,-13,3
4020,-311,-33,943,-4,-9,3
4021,-313,-33,942,-5,-6,4
4022,-314,-35,941,-4,-2,5
4023,-315,-37,939,-5,0,5
4024,-316,-35,939,-2,1,5
4025,-319,-36,937,-4,2,5
4026,-321,-33,936,-3,3,6
4027,-324,-32,936,-5,3,7
4028,-326,-29,936,-2,4,7
4029,-327,-30,935,-2,4,6
4030,-328,-30,933,-4,5,6
4031,-332,-29,933,-2,5,6
4032,-332,-31,932,-6,3,6
4033,-334,-32,933,-4,3,5
4034,-334,-32,932,-5,2,5
4035,-333,-32,933,-4,1,5
4036,-331,-30,933,-6,0,4
4037,-332,-29,933,-5,-1,4
4038,-331,-30,934,-2,-3,3
4039,-331,-30,934,-4,-2,4
4040,-329,-34,932,-5,-3,4
4041,-326,-33,933,-7,-3,4
4042,-328,-33,932,-6,-3,5
4043,-331,-34,932,-4,-3,5
4044,-331,-35,931,-4,-3,5
4045,-331,-34,931,-2,-6,5
4046,-332,-35,932,-4,-8,6
4047,-331,-33,931,-3,-7,6
4048,-329,-33,932,-5,-8,6
4049,-327,-32,934,-4,-8,7
4050,-325,-31,936,-3,-9,6
4051,-325,-31,935,-5,-10,7
4052,-323,-33,938,-4,-9,7
4053,-321,-33,939,-2,-7,8
4054,-318,-30,940,-6,-6,8
4055,-317,-28,943,3,-6,5
4056,-317,-26,942,-6,-4,6
4057,-318,-25,943,-4,2,6
4058,-319,-28,942,-4,3,4
4059,-316,-30,941,-10,4,3
4060,-320,-35,936,-2,6,3
4061,-321,-38,936,-11,6,4
4062,-324,-40,936,1,9,7
4063,-328,-34,933,-7,8,6
4064,-328,-32,933,2,9,7
4065,-330,-33,932,-5,8,6
4066,-331,-31,931,-3,6,7
4067,-335,-30,930,-4,4,8
4068,-337,-31,929,-4,4,7
4069,-337,-32,929,-3,1,6
4070,-336,-31,929,-5,0,6
4071,-337,-30,930,-4,-1,7
4072,-333,-32,929,-4,-4,5
4073,-335,-33,929,-5,-5,6
4074,-334,-31,931,-4,-7,6
4075,-335,-30,930,-6,-8,6
4076,-334,-28,931,-4,-9,5
4077,-334,-30,932,-7,-11,7
4078,-332,-31,933,-5,-13,6
4079,-330,-32,934,-5,-12,4
4080,-326,-35,933,-6,-14,6
4081,-325,-34,936,-5,-14,5
4082,-321,-34,936,-5,-12,4
4083,-319,-31,938,-3,-11,5
4084,-318,-31,940,-4,-10,4
4085,-316,-31,942,-5,-7,4
4086,-314,-33,942,-6,-6,4
4087,-315,-33,943,-6,-2,4
4088,-317,-34,941,-3,-1,5
4089,-315,-36,940,-4,2,5
4090,-313,-38,940,-1,4,6
4091,-313,-36,942,-2,6,5
4092,-311,-34,942,-1,9,7
4093,-311,-32,942,-1,12,6
4094,-309,-31,944,-2,16,5
4095,-307,-32,946,1,19,6
4096,-308,-32,945,-3,22,4
4097,-305,-35,946,0,27,5
4098,-306,-35,946,0,31,5
4099,-304,-35,946,1,35,6
4100,-304,-37,945,-1,40,6
4101,-305,-38,946,2,44,7
4102,-307,-38,946,4,49,7
4103,-310,-36,944,2,54,7
4104,-316,-33,941,4,56,8
4105,-320,-32,938,5,59,8
4106,-325,-32,935,4,60,9
4107,-329,-31,934,4,59,9
4108,-334,-31,931,3,59,9
4109,-335,-33,929,4,59,9
4110,-339,-33,927,4,57,9
4111,-342,-32,927,5,55,10
4112,-344,-29,927,5,52,10
4113,-346,-28,925,4,49,10
4114,-346,-27,923,4,47,10
4115,-353,-28,924,3,43,9
4116,-350,-26,922,2,39,9
4117,-354,-29,921,1,35,8
4118,-354,-30,920,1,31,9
4119,-353,-30,920,0,25,8
4120,-353,-28,921,-1,21,9
4121,-352,-27,921,2,16,9
4122,-350,-26,921,-1,13,9
4123,-351,-26,922,-2,8,9
4124,-347,-24,924,-4,5,8
4125,-349,-27,925,-4,1,7
4126,-346,-28,926,-5,-2,8
4127,-344,-30,927,-4,-4,7
4128,-342,-30,927,-6,-7,6
4129,-340,-31,930,-7,-8,5
4130,-337,-30,930,-5,-9,5
4131,-334,-30,931,-6,-12,6
4132,-329,-32,933,-4,-13,7
4133,-326,-32,936,-7,-11,6
4134,-325,-32,937,-6,-11,5
4135,-323,-32,937,-5,-10,5
4136,-323,-34,938,-4,-7,4
4137,-322,-34,937,-3,-7,5
4138,-321,-32,937,-3,-5,7
4139,-322,-33,939,-5,-3,6
4140,-321,-32,938,-4,-2,6
4141,-319,-33,938,-3,1,6
4142,-321,-33,940,-3,3,5
4143,-320,-34,938,-4,5,5
4144,-323,-31,938,-2,6,6
4145,-324,-33,938,-4,9,6
4146,-325,-32,936,-2,11,5
4147,-324,-33,938,-2,11,6
4148,-323,-33,936,-4,12,7
4149,-324,-31,936,-2,13,6
4150,-324,-30,936,-2,14,6
4151,-327,-32,935,0,16,6
4152,-326,-30,936,-1,17,7
4153,-334,-33,932,-1,18,7
4154,-333,-30,932,0,17,7
4155,-334,-27,931,-1,16,7
4156,-333,-21,934,-1,17,7
4157,-324,-8,943,-2,17,6
4158,-305,17,961,-7,20,3
4159,-278,28,982,-14,29,-2
4160,-280,-22,959,-24,40,-8
4161,-281,-67,946,-15,50,-11
4162,-286,-85,943,-5,59,-7
4163,-308,-91,934,0,65,-1
4164,-329,-88,925,5,67,6
4165,-343,-58,924,10,67,11
4166,-355,-36,915,12,61,14
4167,-381,-19,911,11,56,13
4168,-396,-11,903,10,47,10
4169,-398,-1,905,8,35,8
4170,-396,-9,900,3,24,8
4171,-403,-30,895,1,11,5
4172,-396,-39,895,0,-1,5
4173,-382,-36,903,2,-14,4
4174,-376,-29,907,1,-23,5
4175,-373,-28,911,2,-32,7
4176,-361,-21,920,-1,-39,7
4177,-349,-10,929,-4,-46,7
4178,-339,-12,934,-8,-47,6
4179,-333,-19,937,-9,-47,4
4180,-320,-22,944,-9,-47,2
4181,-309,-23,947,-12,-44,1
4182,-305,-31,948,-12,-40,2
4183,-307,-36,949,-14,-34,2
4184,-300,-33,949,-11,-28,3
4185,-299,-28,952,-13,-21,2
4186,-305,-30,948,-11,-15,3
4187,-312,-34,945,-12,-11,3
4188,-313,-29,944,-10,-8,2
4189,-317,-30,941,-11,-4,2
4190,-326,-33,935,-11,-1,3
4191,-332,-35,933,-8,1,3
4192,-332,-31,933,-8,-1,3
4193,-336,-32,931,-9,0,3
4194,-339,-38,927,-9,0,3
4195,-342,-36,926,-8,-2,3
4196,-341,-32,927,-6,-4,2
4197,-341,-32,927,-7,-4,3
4198,-344,-35,926,-7,-6,3
4199,-342,-33,925,-7,-10,3
4200,-339,-30,928,-4,-11,2
4201,-342,-31,926,-8,-13,1
4202,-345,-31,925,-6,-15,3
4203,-341,-30,926,-5,-18,3
4204,-339,-32,927,-5,-19,1
4205,-340,-33,928,-4,-20,2
4206,-339,-35,928,-6,-22,3
4207,-337,-32,930,-3,-24,1
4208,-337,-32,930,-6,-24,2
4209,-337,-32,929,-6,-25,2
4210,-339,-31,931,-6,-26,1
4211,-336,-28,933,-6,-28,0
4212,-332,-29,932,-4,-29,0
4213,-332,-31,931,-7,-28,-1
4214,-328,-34,935,-5,-28,1
4215,-324,-35,935,-7,-29,1
4216,-321,-34,939,-5,-28,2
4217,-324,-36,938,-4,-27,1
4218,-322,-33,937,-5,-23,1
4219,-318,-29,938,-1,-22,2
4220,-321,-28,939,-3,-21,0
4221,-324,-25,935,-1,-20,-2
4222,-328,-25,935,-3,-20,-5
4223,-330,-22,933,-1,-21,-10
4224,-334,-23,929,0,-22,-17
4225,-337,-21,925,4,-25,-26
4226,-339,-18,929,8,-27,-36
4227,-340,-16,927,8,-29,-47
4228,-337,-17,929,13,-33,-56
4229,-339,-16,929,12,-35,-63
4230,-335,-19,929,13,-38,-68
4231,-333,-25,939,12,-37,-71
4232,-335,-31,935,11,-37,-71
4233,-334,-35,931,10,-36,-70
4234,-330,-37,934,10,-37,-64
4235,-330,-44,932,8,-35,-57
4236,-332,-47,932,3,-34,-49
4237,-334,-47,932,5,-34,-42
4238,-330,-48,932,2,-34,-32
4239,-333,-47,933,2,-34,-24
4240,-336,-47,928,-2,-34,-14
4241,-335,-41,930,-2,-33,-6
4242,-334,-38,931,-5,-33,1
4243,-336,-36,929,-5,-34,4
4244,-335,-32,931,-4,-37,4
4245,-335,-26,934,-3,-39,3
4246,-333,-24,934,-8,-37,3
4247,-331,-23,936,-8,-38,2
4248,-329,-26,936,-10,-38,2
4249,-328,-29,935,-8,-39,0
4250,-330,-32,935,-9,-39,0
4251,-329,-36,934,-9,-38,-1
4252,-328,-34,934,-7,-38,0
4253,-325,-31,936,-10,-37,1
4254,-324,-33,937,-9,-37,2
4255,-325,-33,938,-13,-37,1
4256,-321,-32,939,-8,-36,1
4257,-315,-29,941,-11,-34,1
4258,-312,-32,942,-7,-31,1
4259,-311,-34,943,-9,-27,1
4260,-307,-35,948,-10,-25,2
4261,-305,-33,947,-7,-20,1
4262,-306,-36,946,-9,-16,1
4263,-305,-36,945,-6,-12,2
4264,-307,-36,945,-9,-9,2
4265,-307,-34,945,-6,-4,2
4266,-309,-37,943,-6,0,2
4267,-312,-35,942,-4,4,3
4268,-312,-33,942,-4,7,4
4269,-313,-35,942,-3,9,3
4270,-314,-35,940,-4,12,4
4271,-317,-35,939,-4,14,4
4272,-318,-34,939,-1,17,4
4273,-319,-35,938,-3,18,3
4274,-320,-35,938,-3,19,3
4275,-324,-34,938,1,21,2
4276,-324,-31,936,0,21,1
4277,-326,-32,934,2,21,0
4278,-330,-32,933,2,22,0
4279,-331,-31,932,3,21,-1
4280,-331,-30,932,1,20,-2
4281,-333,-29,932,0,19,-3
4282,-334,-31,931,2,19,-3
4283,-335,-34,929,0,17,-1
4284,-335,-33,931,2,17,-1
4285,-337,-34,929,-1,15,1
4286,-334,-34,930,0,15,2
4287,-333,-32,931,-2,14,4
4288,-336,-32,932,-2,12,6
4289,-332,-29,933,-2,11,7
4290,-331,-33,933,-1,11,7
4291,-329,-32,934,-1,12,8
4292,-327,-32,936,-4,12,8
4293,-325,-33,937,-2,12,7
4294,-327,-33,936,-2,13,7
4295,-322,-31,938,-2,13,6
4296,-322,-30,939,-2,14,6
4297,-318,-33,940,-2,16,7
4298,-317,-32,940,-2,19,7
4299,-315,-33,941,-2,21,6
4300,-318,-31,942,-3,24,6
4301,-318,-35,940,-2,25,6
4302,-319,-36,939,-2,29,6
4303,-319,-33,937,0,30,5
4304,-324,-33,936,0,31,7
4305,-324,-33,935,2,33,7
4306,-326,-32,935,0,34,7
4307,-326,-32,935,2,34,5
4308,-328,-30,935,0,36,7
4309,-330,-33,934,0,35,7
4310,-329,-33,933,1,35,8
4311,-330,-33,933,0,36,7
4312,-331,-32,932,2,35,8
4313,-332,-33,931,0,35,6
4314,-334,-30,932,2,35,8
4315,-334,-32,933,1,33,7
4316,-336,-31,930,1,33,6
4317,-336,-30,932,1,32,7
4318,-335,-31,931,0,30,7
4319,-333,-30,931,1,31,7
4320,-334,-31,931,0,29,5
4321,-331,-30,933,2,30,6
4322,-331,-31,933,2,30,6
4323,-332,-32,932,1,29,7
4324,-333,-29,933,1,30,7
4325,-333,-30,933,-1,29,6
4326,-335,-31,932,2,29,5
4327,-336,-28,930,-2,28,6
4328,-335,-30,931,1,27,6
4329,-336,-32,931,-2,27,6
4330,-338,-33,929,1,26,5
4331,-341,-31,929,0,25,6
4332,-343,-29,928,-1,23,5
4333,-344,-29,927,0,21,6
4334,-346,-28,928,-1,19,5
4335,-346,-28,925,1,18,4
4336,-345,-26,926,-2,14,4
4337,-346,-27,928,-1,11,5
4338,-344,-27,927,-3,10,2
4339,-342,-29,928,-3,8,1
4340,-339,-30,929,-3,6,0
4341,-339,-30,927,-3,4,0
4342,-335,-29,929,-3,3,0
4343,-333,-30,933,-3,2,-2
4344,-332,-30,934,-3,2,-2
4345,-329,-28,934,-1,2,-2
4346,-326,-31,934,0,4,-3
4347,-326,-28,936,-1,4,-3
4348,-324,-32,937,-3,7,-4
4349,-323,-33,940,-3,9,-4
4350,-321,-33,940,1,10,-6
4351,-320,-32,939,1,13,-8
4352,-319,-31,940,1,14,-9
4353,-319,-31,941,2,17,-11
4354,-320,-29,940,4,19,-13
4355,-324,-28,939,5,21,-15
4356,-325,-31,936,5,24,-15
4357,-325,-31,935,4,27,-15
4358,-328,-33,933,4,27,-16
4359,-333,-33,932,6,27,-18
4360,-333,-33,933,8,27,-19
4361,-335,-30,933,8,27,-19
4362,-338,-31,931,5,27,-17
4363,-341,-29,930,6,26,-16
4364,-342,-35,927,7,25,-14
4365,-345,-35,927,6,23,-12
4366,-348,-35,924,5,21,-12
4367,-347,-35,923,4,20,-10
4368,-349,-34,924,5,17,-9
4369,-350,-32,923,3,14,-7
4370,-350,-30,925,1,12,-5
4371,-352,-28,924,2,9,-4
4372,-352,-31,923,0,6,-2
4373,-352,-30,924,0,2,0
4374,-354,-32,924,-4,-2,1
4375,-351,-31,923,-2,-4,3
4376,-351,-31,924,-3,-6,4
4377,-349,-31,924,-3,-12,6
4378,-347,-29,925,-5,-13,5
4379,-346,-29,928,-6,-15,7
4380,-343,-27,929,-5,-17,7
4381,-339,-27,929,-7,-19,7
4382,-338,-27,930,-5,-20,6
4383,-335,-30,933,-9,-20,5
4384,-333,-30,931,-7,-19,5
4385,-330,-31,934,-6,-20,5
4386,-330,-29,934,-8,-19,5
4387,-329,-34,934,-6,-18,5
4388,-325,-33,935,-6,-17,5
4389,-326,-32,937,-6,-16,4
4390,-325,-32,937,-2,-13,4
4391,-323,-32,939,-5,-10,5
4392,-323,-33,938,-4,-9,5
4393,-322,-32,938,-9,-8,3
4394,-325,-33,938,-3,-5,5
4395,-326,-32,938,-7,-4,6
4396,-327,-33,936,-6,-2,5
4397,-328,-34,934,-2,0,3
4398,-329,-33,934,-5,1,5
4399,-330,-35,933,-1,3,5
4400,-330,-34,933,-6,3,6
4401,-332,-32,932,0,4,5
4402,-333,-33,934,-5,4,5
4403,-333,-31,933,0,5,5
4404,-333,-31,931,-4,3,4
4405,-333,-33,933,-1,5,6
4406,-335,-30,932,-5,6,6
4407,-335,-31,933,-1,5,6
4408,-334,-31,932,-4,5,5
4409,-333,-30,933,-2,4,6
4410,-336,-28,932,-3,6,7
4411,-336,-30,932,-4,6,6
4412,-338,-33,932,-2,6,6
4413,-336,-32,931,-3,5,6
4414,-337,-32,932,-4,4,6
4415,-337,-31,930,-4,3,7
4416,-334,-31,931,-3,3,7
4417,-334,-31,932,-2,4,7
4418,-334,-29,932,-5,2,6
4419,-334,-29,933,-5,3,6
4420,-333,-30,935,-4,2,6
4421,-333,-30,933,-3,3,6
4422,-333,-31,934,-2,3,6
4423,-331,-29,934,-4,2,6
4424,-331,-31,933,-5,5,6
4425,-332,-31,933,-4,4,6
4426,-331,-33,933,-2,5,6
4427,-332,-31,934,-5,7,6
4428,-332,-31,932,-4,7,7
4429,-334,-30,931,-3,8,6
4430,-335,-31,932,-4,7,6
4431,-337,-28,930,-3,7,6
4432,-340,-29,929,-5,7,5
4433,-343,-29,928,-2,6,5
4434,-342,-29,928,-3,4,5
4435,-342,-27,927,-4,4,6
4436,-344,-29,927,-5,0,5
4437,-344,-30,927,-4,-1,4
4438,-342,-30,926,-3,-1,3
4439,-341,-30,927,-4,-4,4
4440,-340,-31,928,-4,-5,3
4441,-337,-31,931,-3,-6,2
4442,-334,-32,932,-6,-6,3
4443,-334,-33,932,-4,-6,4
4444,-330,-32,935,-3,-5,5
4445,-327,-32,935,-4,-4,5
4446,-326,-32,936,-4,-3,5
4447,-327,-34,936,-4,-1,5
4448,-327,-33,937,-3,1,4
4449,-323,-32,936,-3,2,5
4450,-324,-32,937,-5,5,4
4451,-324,-33,939,-2,7,5
4452,-324,-32,938,-2,8,6
4453,-327,-31,936,-3,10,5
4454,-325,-33,937,-3,12,6
4455,-329,-31,935,-3,13,6
4456,-328,-29,934,-1,15,5
4457,-332,-29,934,-3,17,5
4458,-332,-31,933,-3,17,6
4459,-334,-31,931,-2,18,5
4460,-335,-30,931,-1,17,5
4461,-338,-30,931,-2,19,5
4462,-339,-30,930,-3,18,3
4463,-340,-32,929,-2,17,5
4464,-341,-30,927,-3,16,6
4465,-342,-30,927,-1,15,5
4466,-342,-30,928,-3,13,6
4467,-341,-31,928,-3,11,5
4468,-342,-30,927,-2,11,5
4469,-343,-32,927,-4,9,6
4470,-341,-32,927,-2,9,6
4471,-342,-32,927,-5,7,6
4472,-342,-30,926,-2,6,7
4473,-342,-33,926,-3,5,8
4474,-343,-32,927,-3,2,7
4475,-342,-33,926,-3,2,7
4476,-340,-32,929,-3,2,8
4477,-340,-32,928,-1,1,6
4478,-340,-31,928,-3,-2,7
4479,-337,-30,929,-3,-1,7
4480,-341,-29,928,-6,-2,7
4481,-342,-30,929,-2,-3,8
4482,-342,-29,928,-3,-3,7
4483,-342,-30,928,-3,-6,7
4484,-342,-32,925,-4,-7,7
4485,-342,-31,925,-4,-7,6
4486,-343,-31,926,-3,-9,7
4487,-346,-28,925,-5,-11,7
4488,-345,-28,928,-2,-13,7
4489,-341,-27,929,-5,-14,7
4490,-339,-25,931,-5,-14,6
4491,-336,-28,934,-7,-15,5
4492,-331,-30,936,-4,-15,6
4493,-326,-31,936,-5,-13,5
4494,-321,-33,938,-8,-11,5
4495,-318,-33,939,-6,-8,5
4496,-320,-34,940,-6,-5,5
4497,-318,-32,939,-4,-1,5
4498,-321,-29,939,-5,1,5
4499,-320,-30,940,-3,4,6
4500,-320,-31,941,-4,7,6
4501,-321,-32,942,-2,11,5
4502,-318,-32,940,-2,13,5
4503,-321,-32,938,-4,15,6
4504,-324,-33,937,-4,20,7
4505,-326,-31,937,-3,21,6
4506,-328,-30,935,-2,24,6
4507,-331,-30,934,-1,26,6
4508,-332,-31,932,-3,26,6
4509,-336,-30,931,-2,27,5
4510,-336,-32,931,-2,26,5
4511,-338,-31,929,-1,26,4
4512,-340,-31,929,0,27,4
4513,-340,-32,929,-1,25,5
4514,-340,-31,929,-1,25,5
4515,-342,-31,929,-1,25,4
4516,-341,-31,930,0,24,3
4517,-342,-32,929,0,23,4
4518,-341,-32,928,-1,22,4
4519,-340,-33,928,-1,21,5
4520,-343,-32,928,0,21,5
4521,-343,-32,927,2,20,5
4522,-345,-30,928,-1,18,4
4523,-344,-27,927,1,17,4
4524,-347,-28,926,-1,14,3
4525,-348,-26,924,4,12,2
4526,-350,-26,924,1,11,-1
4527,-349,-26,921,1,7,-4
4528,-351,-24,922,2,4,-7
4529,-350,-25,922,4,0,-9
4530,-351,-25,923,4,-3,-14
4531,-352,-23,923,3,-6,-16
4532,-349,-24,927,4,-8,-17
4533,-348,-26,928,4,-9,-17
4534,-348,-29,925,3,-12,-17
4535,-349,-33,925,0,-13,-13
4536,-346,-35,925,-3,-15,-10
4537,-347,-38,925,-1,-16,-8
4538,-346,-35,924,-1,-16,-5
4539,-346,-31,927,-1,-17,-3
4540,-347,-30,927,-4,-20,0
4541,-346,-28,928,-5,-20,3
4542,-341,-31,931,-6,-20,3
4543,-339,-32,929,-7,-22,4
4544,-338,-31,931,-5,-21,5
4545,-331,-29,934,-6,-21,4
4546,-331,-27,937,-5,-19,5
4547,-327,-30,938,-7,-18,5
4548,-325,-29,938,-4,-15,4
4549,-323,-30,939,-8,-14,4
4550,-322,-33,939,-8,-9,4
4551,-324,-32,938,-7,-8,2
4552,-324,-33,937,-5,-5,3
4553,-326,-31,937,-4,-1,3
4554,-326,-33,936,-5,1,3
4555,-331,-29,936,-3,2,3
4556,-329,-30,934,-5,5,3
4557,-333,-31,934,-4,7,3
4558,-334,-31,935,-3,7,2
4559,-332,-30,933,-2,8,3
4560,-335,-32,930,-4,8,2
4561,-338,-32,930,-6,8,3
4562,-341,-32,930,-2,8,4
4563,-343,-31,928,-4,8,4
4564,-345,-30,927,-1,7,3
4565,-345,-30,927,-3,5,4
4566,-347,-32,926,-4,2,5
4567,-348,-31,925,-4,1,4
4568,-347,-31,925,-5,0,5
4569,-347,-30,923,-2,-3,4
4570,-349,-29,924,-6,-6,5
4571,-350,-29,924,-3,-7,4
4572,-348,-29,925,-4,-9,5
4573,-347,-29,926,-6,-10,5
4574,-348,-28,926,-5,-13,4
4575,-346,-30,927,-6,-15,4
4576,-345,-30,926,-4,-16,5
4577,-344,-29,927,-6,-18,5
4578,-341,-31,928,-4,-20,5
4579,-341,-29,928,-7,-20,5
4580,-340,-30,928,-6,-21,6
4581,-340,-30,930,-7,-20,6
4582,-339,-29,931,-7,-22,6
4583,-339,-29,929,-6,-23,6
4584,-335,-30,932,-7,-21,5
4585,-336,-30,934,-8,-21,5
4586,-332,-30,934,-9,-20,5
4587,-329,-30,935,-8,-19,6
4588,-327,-30,934,-7,-19,6
4589,-326,-30,936,-5,-15,5
4590,-323,-31,937,-6,-14,4
4591,-324,-29,937,-7,-11,4
4592,-324,-29,939,-5,-10,3
4593,-322,-30,939,-4,-6,4
4594,-322,-32,940,-3,-4,4
4595,-322,-32,940,-7,0,4
4596,-322,-35,940,-3,3,4
4597,-324,-33,939,-5,6,3
4598,-324,-34,938,-3,10,3
4599,-326,-33,938,-2,11,3
4600,-326,-33,935,-1,14,4
4601,-328,-32,934,-4,15,3
4602,-330,-32,935,-3,18,4
4603,-332,-34,934,1,19,4
4604,-332,-31,933,-2,20,4
4605,-334,-30,933,1,20,4
4606,-335,-33,932,-2,22,4
4607,-337,-32,930,1,21,4
4608,-339,-31,929,1,21,3
4609,-343,-31,928,1,21,2
4610,-345,-29,928,0,18,3
4611,-345,-26,925,2,17,1
4612,-346,-26,925,1,16,-1
4613,-347,-26,924,2,13,-2
4614,-350,-25,922,-1,9,-4
4615,-351,-26,923,2,7,-5
4616,-350,-26,925,3,5,-8
4617,-347,-26,924,1,3,-8
4618,-348,-26,924,2,0,-9
4619,-347,-26,926,-2,-3,-10
4620,-347,-30,926,3,-5,-10
4621,-346,-31,929,-3,-5,-9
4622,-345,-33,928,1,-5,-6
4623,-343,-32,928,-8,-6,-2
4624,-342,-36,926,-3,-6,1
4625,-343,-34,927,-9,-9,5
4626,-342,-34,926,-3,-9,6
4627,-341,-32,927,-6,-10,5
4628,-341,-30,927,-3,-10,6
4629,-340,-27,928,-8,-12,6
4630,-336,-30,931,-4,-11,5
4631,-332,-29,934,-6,-10,5
4632,-328,-30,935,-7,-8,5
4633,-327,-32,936,-4,-7,4
4634,-327,-32,938,-6,-5,4
4635,-326,-32,939,-2,-3,4
4636,-326,-33,937,-6,0,4
4637,-327,-32,937,-2,3,4
4638,-328,-32,937,-6,4,3
4639,-331,-33,933,-1,8,2
4640,-333,-34,933,-5,8,3
