sequence,AccelerometerX,AccelerometerY,AccelerometerZ,GyroscopeX,GyroscopeY,GyroscopeZ
0,-9,-20,997,-13,0,-6
1,-8,-18,997,-10,-1,-7
2,-8,-19,997,-15,4,-4
3,-8,-18,999,-15,1,-6
4,-6,-19,996,-15,-1,-7
5,-7,-19,998,-15,2,-4
6,-6,-20,1000,-14,-1,-7
7,-6,-20,1000,-12,0,-6
8,-7,-17,999,-15,-4,-7
9,-7,-19,1000,-17,-3,-8
10,-7,-18,999,-17,1,-7
11,-8,-18,998,-13,1,-7
12,-7,-20,998,-14,1,-6
13,-7,-17,998,-12,0,-5
14,-7,-18,1000,-14,1,-5
15,-6,-18,998,-14,0,-6
16,-8,-19,998,-15,0,-6
17,-6,-18,999,-16,1,-6
18,-7,-18,997,-15,1,-6
19,-7,-19,998,-16,0,-6
20,-8,-20,995,-13,1,-6
21,-7,-19,996,-15,2,-6
22,-6,-20,997,-16,2,-6
23,-9,-20,1000,-15,2,-6
24,-7,-19,997,-13,2,-6
25,-8,-20,998,-13,2,-7
26,-9,-18,998,-13,2,-6
27,-8,-19,997,-14,2,-6
28,-6,-18,997,-14,0,-5
29,-6,-19,998,-13,0,-7
30,-7,-19,997,-15,-1,-7
31,-8,-18,997,-12,1,-6
32,-7,-19,998,-16,2,-4
33,-9,-19,997,-14,2,-6
34,-8,-20,998,-15,0,-6
35,-6,-21,998,-13,0,-7
36,-7,-21,999,-15,1,-6
37,-7,-19,997,-15,-1,-6
38,-8,-19,997,-14,0,-6
39,-7,-19,999,-14,2,-7
40,-7,-19,997,-13,2,-6
41,-6,-20,997,-15,0,-6
42,-5,-19,997,-13,0,-8
43,-8,-18,998,-14,1,-5
44,-7,-20,998,-14,1,-6
45,-8,-21,997,-13,1,-5
46,-8,-19,996,-14,1,-6
47,-7,-20,997,-15,1,-6
48,-10,-20,997,-14,0,-6
49,-8,-20,997,-13,1,-6
50,-8,-17,997,-14,-1,-6
51,-9,-17,998,-14,1,-7
52,-8,-17,996,-12,0,-7
53,-8,-18,999,-16,1,-5
54,-8,-16,997,-12,1,-6
55,-8,-17,997,-13,0,-6
56,-6,-18,997,-17,0,-6
57,-6,-19,996,-13,1,-6
58,-8,-18,997,-15,3,-6
59,-8,-19,997,-12,2,-6
60,-7,-20,998,-12,2,-6
61,-5,-20,998,-15,1,-6
62,-6,-20,999,-13,1,-5
63,-7,-20,999,-12,0,-6
64,-9,-19,998,-15,1,-5
65,-7,-19,997,-14,1,-7
66,-9,-20,998,-14,1,-6
67,-7,-19,999,-14,2,-6
68,-8,-20,997,-13,1,-6
69,-8,-19,998,-15,1,-6
70,-9,-19,997,-14,1,-6
71,-7,-18,997,-15,1,-7
72,-5,-20,998,-14,1,-6
73,-6,-19,998,-14,2,-6
74,-7,-19,999,-15,1,-5
75,-7,-17,998,-14,1,-5
76,-8,-19,999,-13,1,-8
77,-6,-21,997,-15,1,-7
78,-6,-20,997,-15,1,-7
79,-7,-19,999,-14,1,-7
80,-8,-19,998,-14,1,-6
81,-8,-20,997,-13,1,-5
82,-7,-18,998,-14,2,-6
83,-6,-19,997,-13,0,-6
84,-5,-20,997,-13,1,-5
85,-8,-20,997,-16,2,-6
86,-8,-18,997,-13,1,-6
87,-6,-18,998,-13,0,-6
88,-8,-19,996,-14,1,-5
89,-7,-18,996,-13,1,-5
90,-9,-18,997,-14,2,-6
91,-7,-20,998,-14,2,-7
92,-7,-19,998,-14,1,-6
93,-8,-19,998,-14,1,-6
94,-6,-19,998,-14,1,-6
95,-6,-20,995,-13,0,-6
96,-6,-19,999,-14,1,-6
97,-7,-20,1000,-15,0,-6
98,-6,-20,998,-15,2,-6
99,-7,-18,997,-15,1,-6
100,-7,-19,998,-14,1,-7
101,-7,-19,998,-13,2,-5
102,-7,-20,998,-15,0,-6
103,-8,-19,997,-14,2,-5
104,-7,-18,996,-16,0,-7
105,-7,-20,999,-15,1,-6
106,-6,-19,998,-15,2,-5
107,-9,-20,997,-14,1,-6
108,-6,-20,999,-13,2,-6
109,-8,-19,997,-15,2,-5
110,-7,-19,996,-13,1,-6
111,-7,-19,998,-12,1,-6
112,-7,-19,998,-14,1,-7
113,-7,-19,997,-15,1,-6
114,-5,-20,996,-14,1,-6
115,-6,-19,997,-15,1,-6
116,-5,-20,998,-13,1,-5
117,-6,-19,998,-14,0,-6
118,-8,-19,997,-15,1,-5
119,-7,-22,997,-14,0,-6
120,-8,-19,997,-14,0,-7
121,-7,-19,996,-14,1,-6
122,-7,-19,996,-13,1,-6
123,-6,-19,998,-13,1,-6
124,-8,-19,997,-14,1,-7
125,-9,-19,997,-15,1,-6
126,-8,-19,998,-14,1,-7
127,-8,-19,998,-14,1,-6
128,-9,-17,998,-14,2,-6
129,-8,-19,997,-13,0,-6
130,-8,-19,998,-13,1,-5
131,-7,-19,999,-14,0,-5
132,-7,-18,998,-15,0,-6
133,-6,-19,997,-14,1,-6
134,-7,-19,998,-15,2,-7
135,-7,-18,996,-15,1,-6
136,-8,-19,999,-16,1,-6
137,-6,-19,998,-15,1,-6
138,-6,-18,998,-16,2,-7
139,-8,-20,998,-13,1,-6
140,-7,-19,998,-14,1,-6
141,-8,-18,997,-15,0,-6
142,-8,-20,997,-13,1,-6
143,-7,-19,997,-14,0,-6
144,-7,-21,1000,-14,0,-7
145,-8,-18,999,-15,1,-7
146,-7,-18,998,-14,2,-6
147,-8,-18,998,-15,1,-6
148,-7,-17,997,-15,2,-5
149,-7,-19,997,-15,2,-5
150,-7,-18,998,-15,1,-6
151,-8,-19,997,-14,2,-5
152,-8,-19,996,-14,1,-6
153,-8,-18,998,-14,2,-7
154,-7,-18,998,-13,1,-6
155,-10,-19,997,-14,1,-5
156,-8,-19,997,-15,1,-6
157,-7,-18,998,-13,1,-7
158,-7,-20,997,-13,2,-6
159,-7,-18,997,-13,3,-6
160,-9,-20,997,-14,3,-6
161,-5,-22,998,-14,2,-6
162,-6,-20,997,-12,1,-6
163,-8,-18,998,-14,1,-6
164,-8,-18,996,-15,1,-6
165,-7,-18,997,-15,0,-6
166,-7,-19,998,-15,1,-6
167,-8,-20,997,-13,2,-6
168,-7,-19,999,-14,1,-6
169,-7,-18,997,-15,0,-7
170,-8,-17,998,-14,0,-5
171,-8,-18,997,-15,3,-7
172,-8,-18,998,-14,0,-6
173,-7,-18,997,-16,0,-5
174,-6,-18,998,-13,1,-7
175,-8,-19,998,-14,0,-7
176,-6,-21,997,-14,0,-6
177,-6,-17,997,-14,1,-6
178,-7,-20,998,-13,1,-6
179,-8,-17,997,-14,1,-6
180,-4,-19,996,-15,0,-6
181,-8,-20,998,-14,0,-6
182,-8,-20,996,-13,1,-6
183,-6,-18,996,-15,1,-6
184,-9,-19,998,-15,1,-6
185,-8,-19,998,-13,1,-7
186,-10,-21,998,-15,1,-7
187,-7,-20,998,-13,1,-6
188,-7,-19,997,-14,1,-7
189,-6,-19,997,-14,1,-8
190,-6,-19,998,-13,1,-7
191,-6,-18,999,-14,0,-6
192,-8,-19,998,-12,0,-6
193,-7,-19,998,-14,1,-6
194,-8,-20,998,-14,2,-6
195,-8,-19,997,-14,1,-6
196,-6,-19,1000,-13,1,-5
197,-8,-19,997,-16,-1,-5
198,-8,-19,998,-14,0,-6
199,-5,-20,998,-14,1,-7
200,-7,-19,997,-12,1,-7
201,-8,-19,998,-16,1,-6
202,-7,-19,999,-13,1,-7
203,-8,-17,998,-15,2,-6
204,-6,-19,999,-14,1,-6
205,-7,-19,998,-15,1,-6
206,-7,-19,999,-14,1,-5
207,-6,-20,997,-14,2,-5
208,-7,-18,997,-13,2,-6
209,-8,-19,996,-14,1,-6
210,-8,-18,997,-14,0,-7
211,-7,-19,998,-14,1,-6
212,-6,-19,998,-13,1,-6
213,-7,-19,998,-14,0,-6
214,-7,-19,998,-15,1,-5
215,-8,-18,998,-14,2,-6
216,-7,-19,999,-13,2,-6
217,-8,-18,997,-14,2,-6
218,-8,-18,998,-13,2,-6
219,-6,-20,998,-14,2,-6
220,-8,-19,998,-14,1,-6
221,-6,-18,997,-12,1,-6
222,-6,-19,997,-14,2,-7
223,-6,-19,998,-14,1,-5
224,-8,-19,1000,-14,1,-5
225,-7,-18,996,-14,0,-6
226,-5,-20,997,-14,0,-6
227,-8,-18,998,-13,1,-7
228,-7,-19,998,-14,0,-6
229,-7,-18,996,-14,0,-5
230,-6,-20,996,-15,1,-5
231,-7,-19,998,-14,1,-6
232,-6,-18,997,-14,0,-6
233,-8,-19,996,-14,0,-6
234,-7,-18,997,-15,1,-5
235,-8,-19,997,-15,1,-6
236,-7,-18,997,-14,0,-7
237,-7,-19,997,-14,1,-7
238,-9,-19,998,-14,2,-6
239,-6,-19,998,-14,1,-6
240,-6,-20,997,-13,1,-5
241,-8,-20,999,-14,1,-5
242,-9,-20,996,-14,2,-6
243,-8,-18,998,-13,1,-7
244,-8,-19,998,-14,1,-6
245,-8,-19,997,-14,1,-6
246,-7,-21,999,-15,1,-6
247,-7,-20,998,-15,1,-6
248,-7,-21,997,-14,1,-6
249,-6,-21,996,-16,1,-6
250,-6,-18,996,-14,1,-6
251,-8,-18,999,-14,1,-6
252,-6,-19,998,-13,1,-6
253,-8,-20,998,-12,1,-5
254,-9,-21,997,-15,1,-6
255,-7,-19,997,-14,1,-5
256,-8,-19,997,-15,1,-6
257,-6,-19,997,-14,1,-5
258,-5,-21,997,-13,1,-6
259,-8,-18,998,-13,2,-7
260,-6,-18,997,-13,1,-6
261,-7,-19,998,-14,1,-7
262,-8,-20,998,-14,1,-6
263,-7,-20,997,-16,0,-6
264,-7,-20,998,-14,-1,-6
265,-8,-19,998,-14,0,-6
266,-6,-19,998,-14,1,-6
267,-6,-20,996,-14,1,-7
268,-6,-19,998,-14,3,-5
269,-9,-19,997,-13,3,-6
270,-8,-18,997,-14,2,-6
271,-6,-18,998,-14,2,-8
272,-5,-19,998,-13,1,-7
273,-6,-20,998,-13,1,-6
274,-6,-18,998,-15,1,-6
275,-6,-18,998,-14,1,-6
276,-7,-20,997,-13,0,-6
277,-8,-19,999,-15,1,-7
278,-7,-19,998,-14,2,-6
279,-8,-18,998,-14,1,-5
280,-8,-19,998,-13,1,-6
281,-9,-20,997,-14,1,-6
282,-9,-18,997,-14,1,-7
283,-8,-18,997,-16,1,-6
284,-8,-20,998,-14,2,-6
285,-6,-20,999,-16,1,-6
286,-8,-18,999,-13,2,-6
287,-7,-19,998,-14,2,-6
288,-7,-20,997,-14,1,-6
289,-8,-20,998,-13,2,-6
290,-7,-19,998,-13,1,-6
291,-7,-19,999,-14,0,-6
292,-6,-16,1000,-15,1,-6
293,-6,-19,998,-13,1,-6
294,-8,-20,998,-14,1,-6
295,-7,-18,998,-14,2,-7
296,-6,-19,998,-15,1,-7
297,-8,-18,998,-14,2,-6
298,-7,-19,996,-14,1,-6
299,-6,-19,996,-13,1,-7
300,-7,-19,997,-14,1,-6
301,-7,-18,997,-14,1,-8
302,-7,-19,997,-14,1,-7
303,-8,-19,997,-13,1,-7
304,-6,-20,998,-14,1,-6
305,-7,-19,997,-14,1,-5
306,-7,-18,998,-14,0,-6
307,-8,-19,996,-14,0,-7
308,-7,-19,997,-16,1,-6
309,-6,-17,998,-14,1,-6
310,-8,-19,997,-13,0,-5
311,-6,-20,999,-13,1,-6
312,-6,-19,999,-14,1,-6
313,-5,-19,997,-13,2,-7
314,-8,-19,999,-16,0,-6
315,-6,-20,1000,-15,1,-7
316,-6,-19,997,-12,1,-6
317,-7,-19,997,-15,2,-6
318,-7,-19,997,-14,2,-4
319,-8,-18,996,-14,1,-5
320,-8,-18,998,-14,0,-6
321,-8,-18,998,-15,1,-6
322,-5,-18,998,-15,1,-7
323,-7,-20,998,-14,0,-5
324,-7,-19,998,-14,1,-6
325,-8,-18,997,-14,1,-6
326,-8,-19,998,-13,1,-6
327,-9,-18,998,-14,-2,-7
328,-8,-19,998,-15,1,-7
329,-7,-20,996,-13,1,-7
330,-9,-18,997,-14,2,-6
331,-7,-17,998,-12,1,-6
332,-7,-19,1000,-14,1,-7
333,-7,-19,996,-14,1,-5
334,-6,-22,996,-15,1,-6
335,-9,-18,997,-14,0,-6
336,-8,-18,999,-14,1,-6
337,-7,-18,999,-14,1,-6
338,-7,-17,997,-14,1,-6
339,-9,-19,997,-14,0,-6
340,-6,-19,997,-14,2,-7
341,-6,-18,997,-14,1,-7
342,-8,-19,997,-13,1,-7
343,-7,-19,997,-14,1,-6
344,-7,-20,998,-15,2,-7
345,-6,-19,999,-17,2,-5
346,-5,-19,996,-28,3,-4
347,-7,-20,999,-14,2,-6
348,-6,-20,997,-15,1,-5
349,-8,-17,998,-15,0,-6
350,-5,-20,999,-13,1,-6
351,-6,-20,997,-14,2,-6
352,-8,-18,999,-14,0,-6
353,-10,-19,998,-13,0,-7
354,-8,-20,998,-15,0,-7
355,-9,-19,998,-13,1,-6
356,-7,-19,997,-14,2,-7
357,-7,-19,998,-14,0,-6
358,-6,-19,998,-14,0,-7
359,-8,-19,997,-14,2,-6
360,-8,-19,999,-15,1,-6
361,-7,-21,999,-13,1,-4
362,-8,-20,997,-14,1,-5
363,-10,-19,997,-14,1,-6
364,-7,-18,997,-14,1,-6
365,-6,-18,998,-13,0,-5
366,-8,-18,999,-13,0,-6
367,-7,-18,998,-13,-1,-6
368,-8,-19,997,-14,0,-6
369,-7,-21,998,-13,1,-5
370,-5,-20,997,-14,1,-6
371,-8,-19,997,-14,1,-6
372,-7,-18,996,-14,0,-5
373,-6,-19,998,-16,1,-5
374,-7,-18,998,-14,2,-7
375,-8,-19,997,-14,1,-6
376,-7,-18,997,-14,0,-6
377,-6,-20,997,-13,1,-6
378,-8,-19,998,-14,1,-6
379,-8,-20,998,-13,2,-6
380,-7,-19,996,-15,2,-6
381,-7,-19,998,-13,1,-7
382,-7,-19,997,-15,1,-7
383,-8,-18,998,-15,1,-6
384,-7,-20,997,-14,1,-6
385,-6,-18,998,-14,1,-7
386,-7,-19,999,-15,0,-6
387,-6,-18,997,-14,1,-7
388,-8,-19,997,-15,2,-7
389,-7,-20,997,-14,2,-6
390,-7,-20,997,-14,2,-6
391,-9,-20,998,-14,0,-5
392,-8,-21,997,-15,1,-6
393,-6,-17,996,-14,0,-5
394,-6,-17,998,-14,0,-6
395,-8,-18,998,-14,2,-6
396,-6,-18,999,-14,1,-6
397,-6,-19,998,-14,0,-6
398,-8,-16,998,-14,0,-5
399,-8,-18,998,-15,1,-6
400,-8,-20,998,-16,1,-7
401,-6,-20,997,-13,2,-6
402,-7,-20,999,-13,1,-7
403,-7,-21,1000,-14,1,-6
404,-7,-19,998,-14,1,-6
405,-8,-18,999,-15,1,-7
406,-7,-19,997,-14,1,-6
407,-8,-19,997,-14,2,-6
408,-6,-18,997,-13,0,-7
409,-7,-18,997,-14,1,-6
410,-8,-18,997,-14,1,-7
411,-8,-19,999,-15,1,-6
412,-8,-18,998,-14,1,-6
413,-8,-19,998,-13,1,-7
414,-9,-20,999,-13,1,-7
415,-7,-18,998,-14,1,-6
416,-7,-17,996,-13,1,-6
417,-7,-18,996,-13,1,-6
418,-7,-19,998,-12,0,-6
419,-8,-19,999,-13,1,-6
420,-7,-20,997,-14,1,-6
421,-8,-20,997,-14,1,-6
422,-7,-17,998,-15,1,-6
423,-6,-20,998,-15,2,-6
424,-8,-19,997,-14,1,-6
425,-6,-18,998,-13,0,-7
426,-8,-19,998,-14,1,-8
427,-9,-20,997,-13,2,-7
428,-6,-21,998,-13,2,-5
429,-7,-19,997,-16,1,-6
430,-8,-21,996,-15,2,-5
431,-7,-19,996,-14,1,-6
432,-7,-18,998,-13,1,-6
433,-8,-19,998,-14,1,-6
434,-7,-17,997,-14,0,-6
435,-7,-19,998,-14,1,-6
436,-9,-19,996,-15,0,-6
437,-6,-19,997,-14,1,-7
438,-7,-18,998,-14,0,-7
439,-7,-21,998,-14,1,-6
440,-7,-18,997,-14,0,-7
441,-7,-18,998,-15,1,-6
442,-9,-19,999,-14,0,-7
443,-7,-16,998,-15,1,-6
444,-7,-20,998,-13,1,-7
445,-6,-19,998,-14,2,-6
446,-8,-18,997,-14,1,-6
447,-7,-19,998,-12,1,-7
448,-7,-19,998,-13,0,-6
449,-7,-18,998,-15,1,-6
450,-8,-19,998,-15,1,-7
451,-8,-19,997,-14,0,-6
452,-5,-18,997,-15,0,-6
453,-7,-20,999,-14,1,-7
454,-9,-18,998,-14,1,-7
455,-9,-18,996,-14,1,-6
456,-7,-19,998,-13,1,-7
457,-7,-19,998,-15,0,-7
458,-8,-18,998,-14,1,-6
459,-9,-19,998,-13,1,-6
460,-7,-19,997,-13,0,-7
461,-7,-19,997,-14,0,-6
462,-7,-19,999,-15,1,-6
463,-8,-15,998,-13,1,-6
464,-7,-19,996,-13,1,-7
465,-7,-19,999,-14,1,-5
466,-7,-17,997,-13,0,-7
467,-6,-18,998,-13,1,-6
468,-8,-18,997,-16,1,-7
469,-9,-17,996,-15,0,-6
470,-6,-19,998,-15,1,-7
471,-8,-19,998,-13,0,-7
472,-8,-19,999,-14,1,-6
473,-6,-19,999,-14,1,-6
474,-6,-18,998,-13,1,-7
475,-6,-19,997,-14,0,-6
476,-8,-18,997,-14,1,-6
477,-8,-19,999,-15,1,-6
478,-9,-20,997,-14,0,-6
479,-8,-20,998,-14,0,-7
480,-7,-20,997,-13,1,-7
481,-8,-20,998,-14,-1,-6
482,-6,-18,996,-13,1,-6
483,-8,-20,998,-12,1,-6
484,-7,-19,996,-13,1,-5
485,-8,-20,999,-14,1,-7
486,-8,-20,996,-13,1,-6
487,-8,-20,997,-14,1,-7
488,-6,-20,999,-14,1,-6
489,-7,-19,995,-14,1,-7
490,-7,-20,999,-13,1,-7
491,-8,-20,999,-13,0,-7
492,-7,-18,998,-13,1,-7
493,-9,-19,997,-14,1,-5
494,-7,-19,998,-14,1,-5
495,-9,-20,997,-13,1,-6
496,-7,-20,997,-14,0,-7
497,-7,-19,998,-14,0,-6
498,-8,-18,998,-14,0,-6
499,-8,-20,997,-14,-1,-7
500,-6,-18,998,-15,0,-6
501,-7,-19,998,-15,1,-6
502,-8,-19,999,-15,1,-5
503,-8,-18,1000,-14,1,-5
504,-7,-18,999,-14,1,-5
505,-5,-19,1000,-12,1,-6
506,-9,-20,998,-13,1,-7
507,-8,-20,997,-14,0,-6
508,-5,-19,997,-13,1,-6
509,-8,-20,997,-14,0,-5
510,-7,-20,998,-14,1,-6
511,-7,-18,998,-15,1,-6
512,-9,-18,1000,-15,-1,-6
513,-8,-20,997,-13,0,-5
514,-6,-22,998,-14,0,-6
515,-7,-19,997,-13,1,-6
516,-8,-17,999,-13,1,-6
517,-7,-19,998,-15,0,-6
518,-7,-17,998,-14,2,-6
519,-9,-19,996,-13,2,-6
520,-8,-20,997,-13,1,-6
521,-7,-19,998,-14,2,-6
522,-7,-18,998,-15,1,-5
523,-7,-19,998,-13,0,-6
524,-8,-20,998,-15,1,-7
525,-5,-19,998,-15,1,-5
526,-8,-17,997,-12,2,-6
527,-6,-20,999,-14,1,-6
528,-9,-20,996,-13,1,-7
529,-8,-18,996,-14,0,-7
530,-8,-20,998,-13,0,-6
531,-8,-21,998,-14,1,-6
532,-6,-20,998,-14,2,-4
533,-7,-18,999,-14,1,-6
534,-5,-21,998,-14,1,-6
535,-7,-19,997,-14,0,-7
536,-8,-21,998,-14,1,-6
537,-7,-20,996,-13,1,-5
538,-9,-18,998,-13,0,-6
539,-8,-20,998,-13,1,-6
540,-6,-20,997,-13,0,-6
541,-7,-20,998,-15,1,-5
542,-7,-19,997,-13,0,-6
543,-8,-18,997,-13,0,-7
544,-6,-20,998,-15,1,-6
545,-7,-19,998,-13,1,-6
546,-7,-20,997,-13,1,-6
547,-8,-19,999,-14,1,-6
548,-8,-19,999,-15,1,-6
549,-7,-19,998,-14,0,-6
550,-6,-19,998,-13,1,-6
551,-7,-20,999,-13,1,-7
552,-7,-19,997,-14,2,-5
553,-6,-20,997,-15,0,-5
554,-8,-19,997,-13,1,-5
555,-8,-20,999,-14,0,-6
556,-8,-19,998,-15,-1,-6
557,-6,-20,998,-15,1,-6
558,-7,-19,998,-14,1,-6
559,-8,-18,998,-13,1,-6
560,-7,-20,997,-13,1,-6
561,-8,-20,997,-13,0,-6
562,-9,-19,996,-14,1,-7
563,-8,-20,997,-15,0,-4
564,-7,-19,999,-14,2,-6
565,-5,-19,997,-13,1,-6
566,-8,-18,997,-15,0,-7
567,-6,-19,998,-14,0,-7
568,-8,-19,998,-14,1,-6
569,-8,-18,998,-13,1,-7
570,-8,-21,999,-14,0,-6
571,-6,-17,998,-14,0,-7
572,-7,-18,998,-13,1,-6
573,-7,-19,998,-13,1,-7
574,-7,-21,999,-14,0,-7
575,-6,-19,999,-12,-1,-6
576,-8,-19,998,-13,1,-7
577,-7,-20,998,-13,1,-6
578,-8,-21,998,-12,1,-6
579,-8,-18,997,-14,1,-6
580,-8,-19,998,-14,1,-6
581,-8,-19,997,-14,1,-6
582,-5,-18,998,-14,1,-7
583,-6,-19,997,-14,0,-6
584,-6,-20,998,-15,0,-6
585,-7,-18,997,-14,1,-5
586,-8,-19,996,-14,1,-6
587,-8,-20,997,-13,1,-6
588,-7,-18,998,-14,2,-6
589,-7,-19,998,-14,2,-6
590,-6,-19,998,-14,1,-7
591,-7,-17,997,-13,1,-7
592,-8,-19,997,-12,1,-6
593,-9,-18,997,-14,1,-5
594,-8,-20,998,-14,0,-6
595,-8,-20,997,-13,1,-6
596,-8,-19,997,-14,1,-5
597,-6,-19,997,-13,0,-5
598,-8,-19,998,-14,0,-5
599,-7,-20,998,-14,1,-5
600,-8,-21,999,-14,2,-5
601,-8,-19,998,-15,1,-5
602,-8,-19,998,-13,1,-6
603,-8,-20,998,-14,1,-6
604,-5,-18,998,-14,1,-6
605,-8,-19,999,-13,1,-6
606,-7,-17,998,-14,1,-7
607,-6,-18,997,-14,2,-6
608,-6,-19,997,-13,1,-6
609,-8,-18,997,-15,1,-7
610,-9,-20,998,-14,1,-6
611,-8,-18,997,-15,0,-7
612,-7,-18,999,-14,2,-6
613,-8,-19,998,-15,1,-5
614,-8,-19,996,-16,0,-5
615,-6,-18,999,-12,-1,-6
616,-5,-19,997,-14,1,-6
617,-9,-18,998,-14,1,-7
618,-7,-19,998,-14,1,-6
619,-7,-20,998,-14,2,-5
620,-8,-18,997,-13,2,-7
621,-8,-19,999,-15,1,-7
622,-8,-19,996,-14,2,-5
623,-7,-19,997,-15,2,-5
624,-6,-19,997,-14,1,-7
625,-7,-20,998,-15,0,-6
626,-7,-20,998,-13,1,-6
627,-6,-20,998,-12,1,-6
628,-7,-18,997,-15,1,-5
629,-5,-19,999,-13,1,-5
630,-8,-20,997,-13,1,-5
631,-8,-19,998,-13,1,-6
632,-5,-18,998,-13,0,-6
633,-6,-19,998,-13,0,-5
634,-6,-20,998,-12,0,-5
635,-6,-19,999,-13,1,-4
636,-6,-17,1000,-14,2,-6
637,-8,-18,997,-15,1,-6
638,-6,-20,998,-14,1,-6
639,-6,-18,997,-14,2,-6
640,-9,-18,998,-14,0,-6
641,-9,-19,998,-14,0,-6
642,-7,-18,998,-15,0,-6
643,-7,-19,997,-14,1,-6
644,-7,-18,998,-13,0,-6
645,-6,-18,998,-14,0,-5
646,-8,-19,997,-14,0,-7
647,-8,-20,999,-14,0,-6
648,-8,-17,997,-14,-1,-6
649,-8,-17,996,-13,0,-6
650,-7,-18,998,-13,2,-6
651,-9,-20,996,-14,0,-7
652,-8,-20,997,-13,0,-6
653,-6,-20,997,-14,1,-7
654,-5,-19,998,-13,1,-5
655,-6,-19,996,-15,1,-6
656,-7,-19,998,-15,1,-6
657,-8,-19,997,-14,-1,-5
658,-6,-21,998,-14,1,-6
659,-8,-21,997,-15,1,-6
660,-6,-19,997,-13,1,-6
661,-8,-19,997,-13,0,-6
662,-8,-19,998,-13,0,-6
663,-8,-17,997,-14,1,-6
664,-8,-20,999,-14,2,-6
665,-8,-20,998,-13,1,-6
666,-8,-19,997,-13,0,-6
667,-7,-20,997,-15,1,-7
668,-7,-20,996,-14,2,-6
669,-6,-20,998,-14,2,-6
670,-8,-19,998,-15,2,-6
671,-5,-20,997,-14,2,-6
672,-7,-20,997,-14,1,-7
673,-7,-19,998,-14,1,-7
674,-6,-18,998,-14,2,-6
675,-7,-18,998,-14,1,-7
676,-6,-19,998,-15,1,-6
677,-6,-18,997,-14,2,-6
678,-7,-21,998,-13,0,-5
679,-6,-19,998,-18,2,-5
680,-7,-19,996,-17,3,-5
681,-6,-18,999,-13,1,-6
682,-6,-18,998,-15,0,-6
683,-8,-19,997,-15,1,-6
684,-6,-20,996,-14,1,-6
685,-6,-19,998,-15,1,-7
686,-8,-18,997,-12,2,-6
687,-8,-19,998,-13,2,-7
688,-9,-21,996,-13,1,-6
689,-7,-20,998,-14,1,-6
690,-6,-20,998,-14,1,-6
691,-8,-19,996,-13,2,-6
692,-7,-18,998,-14,2,-6
693,-8,-19,997,-14,1,-7
694,-6,-18,998,-13,1,-6
695,-8,-17,1000,-14,1,-5
696,-9,-20,998,-14,0,-6
697,-8,-19,996,-13,1,-6
698,-6,-19,997,-13,1,-7
699,-9,-18,997,-12,1,-6
700,-8,-18,996,-13,0,-6
701,-7,-19,998,-14,1,-6
702,-6,-20,996,-14,1,-6
703,-7,-18,996,-14,0,-6
704,-7,-20,998,-14,1,-5
705,-9,-20,998,-13,2,-5
706,-7,-18,997,-14,0,-6
707,-6,-20,997,-13,1,-6
708,-6,-19,998,-14,0,-6
709,-7,-18,999,-13,1,-5
710,-8,-18,998,-15,0,-7
711,-6,-20,996,-14,2,-7
712,-7,-21,998,-12,1,-6
713,-7,-20,998,-13,1,-6
714,-7,-17,998,-13,0,-6
715,-6,-19,998,-13,1,-6
716,-5,-18,997,-14,1,-6
717,-7,-19,997,-15,0,-7
718,-6,-20,996,-13,1,-6
719,-7,-18,996,-13,0,-5
720,-8,-18,999,-12,1,-6
721,-6,-19,997,-13,1,-5
722,-6,-19,996,-13,1,-7
723,-7,-19,997,-14,1,-6
724,-8,-19,998,-13,1,-5
725,-7,-19,998,-14,0,-5
726,-8,-19,998,-13,1,-5
727,-6,-18,1000,-13,0,-6
728,-6,-20,999,-14,0,-6
729,-8,-18,999,-15,1,-5
730,-8,-19,997,-14,1,-5
731,-8,-19,999,-13,0,-6
732,-8,-20,999,-14,0,-6
733,-7,-20,998,-14,0,-6
734,-8,-18,999,-14,0,-6
735,-8,-18,1000,-14,-1,-6
736,-6,-19,998,-15,1,-8
737,-6,-20,998,-15,1,-6
738,-6,-20,996,-14,1,-6
739,-7,-20,998,-13,0,-5
740,-8,-18,997,-15,1,-6
741,-7,-19,998,-14,1,-6
742,-5,-18,998,-15,1,-6
743,-6,-20,998,-14,1,-6
744,-7,-21,999,-15,0,-6
745,-5,-19,997,-14,1,-6
746,-6,-19,998,-14,1,-6
747,-8,-19,999,-13,2,-6
748,-5,-18,998,-14,1,-6
749,-5,-17,997,-13,2,-7
750,-4,-17,997,-13,1,-4
751,-7,-18,999,-13,1,-6
752,-8,-19,996,-13,0,-6
753,-7,-19,997,-14,1,-5
754,-9,-19,997,-13,0,-6
755,-8,-19,996,-12,1,-5
756,-6,-19,998,-13,0,-6
757,-7,-17,998,-13,0,-7
758,-8,-21,998,-15,1,-6
759,-8,-19,998,-13,2,-7
760,-8,-17,998,-14,1,-6
761,-7,-19,999,-14,1,-6
762,-6,-19,997,-13,2,-6
763,-7,-19,998,-14,2,-6
764,-6,-20,998,-13,1,-6
765,-8,-20,998,-14,1,-7
766,-7,-18,1000,-14,2,-7
767,-6,-18,998,-14,2,-7
768,-7,-18,998,-14,1,-7
769,-6,-19,998,-14,0,-7
770,-7,-19,998,-13,1,-7
771,-8,-18,998,-15,1,-6
772,-7,-19,997,-14,2,-6
773,-8,-17,998,-14,0,-6
774,-7,-19,1000,-13,2,-6
775,-9,-18,998,-14,1,-7
776,-9,-19,997,-13,0,-6
777,-6,-19,998,-13,0,-7
778,-7,-18,998,-14,2,-7
779,-7,-19,998,-15,1,-6
780,-7,-18,997,-15,1,-6
781,-8,-19,997,-15,1,-6
782,-7,-18,998,-14,1,-7
783,-6,-20,998,-14,1,-6
784,-7,-19,998,-14,2,-5
785,-7,-19,998,-13,2,-7
786,-8,-18,997,-14,1,-6
787,-8,-21,998,-14,1,-6
788,-6,-19,998,-14,0,-7
789,-7,-19,999,-13,1,-7
790,-7,-20,996,-14,1,-6
791,-8,-19,997,-14,1,-6
792,-8,-20,997,-13,1,-7
793,-8,-18,998,-13,1,-7
794,-8,-19,998,-13,2,-6
795,-8,-19,998,-14,1,-6
796,-6,-19,997,-14,1,-6
797,-8,-18,997,-12,1,-5
798,-8,-19,997,-14,0,-5
799,-7,-19,996,-13,1,-6
800,-8,-18,997,-15,0,-7
801,-6,-19,998,-15,1,-6
802,-7,-20,997,-14,1,-5
803,-8,-18,999,-13,1,-7
804,-7,-18,999,-15,1,-7
805,-6,-18,998,-14,1,-6
806,-8,-19,998,-13,1,-7
807,-6,-20,997,-13,1,-7
808,-7,-19,997,-13,1,-6
809,-8,-22,997,-14,1,-6
810,-7,-19,997,-12,2,-6
811,-7,-17,996,-12,2,-7
812,-9,-19,997,-14,1,-6
813,-7,-20,997,-14,0,-5
814,-7,-19,998,-14,0,-6
815,-8,-19,997,-15,1,-6
816,-9,-18,999,-14,2,-5
817,-9,-18,997,-15,1,-4
818,-9,-19,997,-14,0,-6
819,-8,-19,997,-14,0,-6
820,-7,-19,997,-14,1,-5
821,-8,-19,996,-14,1,-6
822,-8,-20,997,-14,2,-6
823,-7,-19,998,-14,1,-5
824,-7,-18,999,-14,0,-6
825,-8,-19,997,-15,1,-5
826,-6,-20,998,-13,0,-8
827,-8,-19,998,-15,0,-6
828,-8,-21,996,-14,1,-6
829,-8,-19,997,-14,1,-6
830,-7,-19,998,-14,2,-5
831,-7,-19,997,-14,2,-5
832,-7,-19,996,-14,2,-6
833,-8,-20,997,-14,1,-5
834,-7,-17,997,-14,1,-6
835,-9,-19,998,-13,2,-7
836,-6,-20,999,-12,1,-7
837,-6,-19,999,-15,1,-5
838,-6,-19,996,-15,1,-5
839,-6,-19,998,-15,1,-5
840,-6,-19,996,-14,2,-5
841,-8,-19,999,-14,1,-6
842,-7,-19,997,-14,1,-7
843,-8,-17,996,-13,1,-7
844,-6,-19,996,-13,1,-6
845,-6,-21,997,-14,2,-7
846,-7,-18,998,-14,1,-7
847,-9,-18,998,-12,2,-6
848,-8,-19,997,-14,1,-6
849,-7,-19,998,-15,1,-7
850,-7,-18,997,-14,1,-7
851,-6,-19,997,-15,1,-5
852,-7,-20,998,-14,1,-6
853,-9,-19,998,-13,1,-6
854,-8,-19,998,-14,0,-6
855,-6,-19,998,-13,1,-7
856,-7,-21,997,-14,0,-6
857,-6,-19,997,-13,1,-6
858,-8,-19,996,-14,1,-5
859,-8,-18,997,-15,1,-6
860,-6,-20,998,-13,0,-6
861,-9,-18,998,-14,1,-6
862,-8,-18,997,-14,0,-6
863,-8,-19,996,-15,1,-5
864,-7,-19,996,-15,1,-6
865,-7,-19,998,-15,0,-6
866,-6,-20,998,-12,1,-7
867,-8,-21,998,-14,1,-6
868,-8,-19,997,-14,1,-6
869,-6,-18,997,-14,1,-6
870,-6,-20,996,-13,1,-6
871,-8,-20,998,-14,1,-6
872,-8,-19,998,-14,2,-7
873,-7,-20,998,-15,0,-7
874,-6,-20,998,-14,1,-6
875,-9,-19,998,-14,1,-6
876,-7,-17,997,-13,0,-7
877,-7,-19,997,-14,0,-7
878,-7,-19,998,-14,1,-6
879,-6,-20,997,-14,1,-5
880,-7,-19,998,-13,1,-7
881,-7,-19,997,-13,1,-7
882,-7,-19,999,-14,1,-6
883,-8,-19,998,-14,1,-6
884,-8,-21,998,-13,0,-6
885,-8,-19,998,-15,0,-6
886,-9,-20,996,-13,0,-6
887,-8,-20,997,-14,0,-7
888,-7,-20,996,-14,1,-6
889,-9,-18,998,-14,1,-6
890,-5,-20,997,-14,0,-5
891,-6,-18,997,-13,-1,-6
892,-7,-20,997,-14,0,-6
893,-7,-17,997,-14,0,-7
894,-7,-18,998,-13,1,-6
895,-8,-19,997,-14,2,-6
896,-9,-20,996,-15,1,-5
897,-7,-19,996,-14,0,-6
898,-7,-19,998,-14,0,-6
899,-10,-20,998,-14,1,-7
900,-6,-19,998,-14,1,-6
901,-6,-18,998,-14,1,-6
902,-8,-19,998,-12,0,-6
903,-8,-19,998,-14,0,-5
904,-7,-18,998,-15,1,-6
905,-8,-20,998,-15,1,-5
906,-9,-19,998,-13,1,-6
907,-7,-20,999,-13,1,-5
908,-4,-18,998,-15,1,-6
909,-6,-19,996,-14,0,-5
910,-6,-19,999,-15,0,-5
911,-6,-19,996,-14,1,-6
912,-8,-20,998,-14,0,-7
913,-9,-21,998,-15,1,-7
914,-9,-19,997,-14,1,-6
915,-8,-18,997,-14,1,-5
916,-6,-18,999,-14,1,-5
917,-7,-18,997,-15,1,-5
918,-5,-18,998,-16,0,-6
919,-5,-19,997,-14,1,-7
920,-6,-19,998,-14,2,-7
921,-7,-19,999,-15,1,-6
922,-7,-18,996,-14,2,-6
923,-5,-20,997,-14,1,-5
924,-8,-19,998,-13,1,-6
925,-5,-19,998,-13,0,-7
926,-8,-18,998,-14,1,-7
927,-9,-19,999,-14,2,-7
928,-7,-19,997,-14,2,-6
929,-7,-20,997,-15,1,-6
930,-8,-18,998,-14,0,-6
931,-6,-19,997,-14,1,-7
932,-6,-18,997,-13,1,-7
933,-8,-17,998,-14,0,-5
934,-7,-18,996,-14,0,-6
935,-7,-20,997,-14,1,-6
936,-7,-20,998,-13,1,-6
937,-7,-18,998,-13,2,-6
938,-6,-18,997,-14,2,-5
939,-5,-19,997,-14,2,-7
940,-8,-19,998,-15,1,-5
941,-10,-20,999,-14,0,-5
942,-8,-19,998,-14,1,-5
943,-8,-18,998,-13,0,-6
944,-7,-20,999,-14,0,-5
945,-6,-20,998,-14,0,-6
946,-8,-20,998,-15,1,-6
947,-5,-19,999,-13,2,-6
948,-5,-19,998,-13,2,-7
949,-7,-19,998,-14,1,-6
950,-7,-20,997,-14,1,-6
951,-7,-19,997,-15,0,-6
952,-7,-20,998,-14,-1,-7
953,-7,-18,998,-15,1,-6
954,-8,-18,997,-13,2,-6
955,-7,-20,997,-14,1,-6
956,-7,-18,997,-14,1,-6
957,-7,-19,997,-14,1,-5
958,-7,-18,998,-15,1,-5
959,-6,-19,997,-14,1,-6
960,-8,-20,998,-13,1,-6
961,-8,-18,998,-14,0,-6
962,-8,-19,997,-14,1,-5
963,-8,-19,998,-15,2,-6
964,-8,-19,996,-15,1,-6
965,-7,-19,997,-14,0,-6
966,-6,-19,996,-15,0,-6
967,-6,-18,998,-14,0,-7
968,-7,-19,998,-15,1,-7
969,-7,-18,998,-14,1,-6
970,-7,-17,997,-15,1,-5
971,-8,-17,997,-14,1,-6
972,-8,-19,997,-13,1,-5
973,-9,-18,996,-14,2,-6
974,-7,-19,996,-14,1,-7
975,-7,-19,997,-13,2,-7
976,-5,-20,998,-15,2,-6
977,-5,-20,997,-14,1,-5
978,-8,-20,997,-13,0,-6
979,-7,-19,999,-14,2,-6
980,-6,-19,998,-14,2,-6
981,-7,-19,996,-14,0,-6
982,-7,-18,996,-14,1,-5
983,-8,-19,998,-12,1,-5
984,-7,-18,998,-14,1,-6
985,-6,-20,997,-14,0,-6
986,-5,-18,997,-14,0,-6
987,-6,-19,997,-14,1,-6
988,-7,-18,996,-13,1,-6
989,-6,-19,995,-13,1,-6
990,-6,-19,997,-14,0,-5
991,-9,-20,997,-15,0,-7
992,-8,-20,997,-15,1,-7
993,-9,-19,998,-13,0,-6
994,-10,-18,998,-14,1,-5
995,-8,-19,996,-14,1,-6
996,-7,-17,996,-13,2,-6
997,-8,-18,997,-12,2,-7
998,-7,-19,996,-15,2,-5
999,-8,-19,998,-14,2,-6
1000,-6,-19,998,-16,2,-5
1001,-7,-19,998,-14,1,-6
1002,-7,-19,997,-14,1,-7
1003,-6,-18,997,-15,2,-7
1004,-6,-20,996,-15,2,-6
1005,-9,-19,997,-13,1,-6
1006,-7,-19,998,-13,2,-6
1007,-6,-20,998,-16,0,-6
1008,-8,-19,997,-15,1,-6
1009,-6,-20,996,-13,1,-5
1010,-6,-19,996,-13,2,-5
1011,-8,-19,997,-14,3,-6
1012,-7,-20,995,-15,1,-6
1013,-7,-19,997,-15,0,-5
1014,-6,-18,998,-14,2,-6
1015,-8,-20,997,-15,2,-6
1016,-9,-21,998,-14,1,-6
1017,-7,-18,997,-15,0,-5
1018,-7,-18,999,-22,6,-2
1019,-8,-19,998,-15,2,-5
1020,-7,-19,998,-16,0,-7
1021,-8,-20,998,-14,0,-6
1022,-7,-19,998,-15,1,-6
1023,-6,-19,998,-16,2,-5
1024,-9,-19,997,-13,1,-5
1025,-8,-21,998,-14,0,-5
1026,-7,-21,998,-13,1,-7
1027,-7,-20,996,-13,1,-7
1028,-8,-19,997,-14,0,-6
1029,-6,-18,998,-14,0,-7
1030,-7,-19,997,-13,1,-7
1031,-7,-19,998,-14,1,-7
1032,-8,-20,997,-14,1,-6
1033,-7,-20,998,-13,1,-7
1034,-7,-20,998,-13,0,-7
1035,-8,-19,997,-12,1,-6
1036,-7,-19,996,-14,1,-5
1037,-8,-18,998,-13,1,-6
1038,-9,-19,997,-15,0,-5
1039,-8,-19,998,-14,1,-5
1040,-8,-19,998,-15,1,-5
1041,-7,-20,997,-14,0,-6
1042,-8,-19,996,-13,2,-6
1043,-7,-19,997,-12,1,-7
1044,-7,-19,999,-13,2,-6
1045,-6,-19,997,-13,2,-5
1046,-6,-18,998,-14,2,-6
1047,-8,-19,999,-13,2,-7
1048,-8,-21,996,-14,0,-6
1049,-7,-20,998,-13,1,-6
1050,-6,-20,999,-13,0,-6
1051,-8,-19,999,-13,0,-6
1052,-7,-20,998,-13,1,-6
1053,-8,-18,998,-13,1,-6
1054,-7,-19,998,-16,0,-6
1055,-6,-20,998,-14,1,-6
1056,-8,-19,998,-12,1,-6
1057,-6,-20,996,-13,1,-7
1058,-7,-18,998,-13,1,-6
1059,-6,-18,997,-13,0,-6
1060,-10,-18,997,-13,1,-5
1061,-8,-19,996,-15,2,-7
1062,-7,-20,996,-14,1,-6
1063,-9,-20,998,-14,0,-6
1064,-8,-18,998,-14,2,-6
1065,-5,-20,993,-14,1,-5
1066,-6,-22,1003,-13,1,-6
1067,-9,-14,1001,-13,1,-5
1068,-6,-23,990,-15,1,-6
1069,-9,-16,998,-14,1,-6
1070,-6,-18,1000,-13,2,-5
1071,-6,-18,993,-13,1,-6
1072,-6,-19,999,-13,1,-6
1073,-7,-19,1000,-14,2,-6
1074,-6,-20,993,-14,0,-6
1075,-10,-19,999,-12,1,-6
1076,-7,-17,998,-15,0,-6
1077,-7,-20,993,-15,1,-5
1078,-7,-20,999,-14,1,-6
1079,-6,-18,1001,-14,0,-6
1080,-7,-20,996,-12,1,-6
1081,-7,-19,999,-14,1,-6
1082,-9,-20,1002,-13,1,-7
1083,-9,-18,996,-13,1,-6
1084,-8,-18,1000,-15,2,-6
1085,-7,-19,997,-13,2,-6
1086,-6,-18,997,-15,0,-7
1087,-7,-18,999,-14,1,-7
1088,-6,-20,999,-14,1,-6
1089,-7,-18,996,-13,0,-6
1090,-10,-20,999,-14,2,-6
1091,-9,-17,998,-14,1,-6
1092,-8,-19,996,-15,1,-6
1093,-6,-17,998,-15,0,-6
1094,-7,-18,997,-14,1,-6
1095,-6,-19,999,-15,2,-6
1096,-6,-20,997,-15,1,-6
1097,-9,-20,998,-13,1,-6
1098,-6,-19,998,-14,1,-5
1099,-7,-20,998,-14,2,-6
1100,-7,-19,998,-14,1,-6
1101,-7,-18,998,-14,1,-5
1102,-7,-19,999,-14,0,-6
1103,-7,-18,998,-14,-1,-6
1104,-8,-19,999,-14,-1,-6
1105,-5,-20,996,-15,1,-6
1106,-5,-19,999,-15,0,-5
1107,-8,-17,996,-13,-1,-6
1108,-7,-19,998,-13,1,-6
1109,-8,-20,997,-14,1,-6
1110,-7,-19,998,-15,0,-7
1111,-8,-19,999,-14,0,-7
1112,-7,-19,996,-15,2,-8
1113,-9,-20,997,-13,2,-6
1114,-7,-20,998,-13,1,-6
1115,-7,-19,997,-15,2,-7
1116,-5,-19,997,-15,0,-6
1117,-7,-19,997,-12,0,-7
1118,-7,-20,998,-15,2,-6
1119,-7,-18,998,-14,1,-5
1120,-8,-19,997,-14,0,-6
1121,-6,-20,996,-15,1,-6
1122,-7,-20,998,-14,2,-5
1123,-8,-19,997,-14,1,-7
1124,-8,-19,998,-14,-1,-6
1125,-7,-19,997,-13,1,-6
1126,-7,-19,998,-13,2,-7
1127,-6,-20,998,-14,1,-7
1128,-5,-19,999,-14,1,-6
1129,-8,-19,997,-13,2,-6
1130,-6,-16,998,-13,2,-6
1131,-8,-17,998,-15,2,-6
1132,-7,-19,997,-14,1,-5
1133,-7,-19,999,-15,0,-5
1134,-8,-18,999,-14,2,-5
1135,-7,-18,998,-14,1,-6
1136,-7,-20,998,-14,2,-6
1137,-8,-19,998,-13,2,-6
1138,-8,-19,998,-14,1,-6
1139,-8,-20,996,-14,1,-6
1140,-7,-21,998,-14,1,-5
1141,-7,-20,997,-16,0,-5
1142,-7,-19,996,-14,1,-5
1143,-7,-20,997,-14,1,-6
1144,-7,-18,998,-14,0,-6
1145,-6,-18,997,-13,1,-6
1146,-6,-17,996,-15,1,-6
1147,-8,-18,998,-15,1,-6
1148,-7,-19,999,-16,2,-5
1149,-10,-18,997,-14,0,-6
1150,-6,-19,998,-12,0,-6
1151,-8,-19,998,-14,0,-7
1152,-7,-19,998,-14,1,-6
1153,-6,-19,998,-14,0,-5
1154,-6,-19,999,-14,0,-7
1155,-6,-18,998,-14,1,-6
1156,-8,-20,998,-13,0,-5
1157,-6,-20,998,-14,1,-6
1158,-4,-19,998,-15,1,-7
1159,-7,-19,997,-14,0,-7
1160,-6,-21,998,-14,1,-5
1161,-6,-20,998,-14,1,-6
1162,-6,-19,997,-13,-1,-7
1163,-6,-18,997,-15,2,-6
1164,-7,-20,997,-12,2,-6
1165,-8,-22,997,-13,0,-6
1166,-8,-20,998,-14,0,-6
1167,-8,-19,997,-14,2,-7
1168,-9,-19,998,-13,2,-6
1169,-7,-19,998,-13,1,-6
1170,-6,-17,998,-14,1,-7
1171,-9,-19,997,-15,1,-6
1172,-8,-18,997,-14,1,-6
1173,-8,-19,998,-15,2,-6
1174,-7,-18,998,-14,1,-7
1175,-7,-17,997,-14,0,-5
1176,-8,-19,997,-15,1,-6
1177,-8,-18,996,-13,1,-8
1178,-7,-20,997,-14,1,-7
1179,-7,-19,997,-15,0,-7
1180,-6,-19,997,-16,1,-6
1181,-7,-18,998,-15,0,-7
1182,-8,-18,998,-15,0,-6
1183,-8,-18,998,-15,1,-6
1184,-6,-19,998,-13,1,-6
1185,-6,-20,997,-13,2,-6
1186,-8,-20,998,-15,1,-5
1187,-7,-19,998,-14,0,-6
1188,-6,-19,997,-13,1,-5
1189,-7,-19,996,-15,1,-6
1190,-7,-19,996,-14,3,-6
1191,-7,-20,997,-14,2,-6
1192,-7,-19,997,-13,2,-7
1193,-6,-20,997,-14,1,-5
1194,-8,-18,997,-14,0,-5
1195,-9,-17,998,-13,2,-5
1196,-8,-17,999,-14,2,-6
1197,-7,-18,998,-15,1,-6
1198,-8,-18,997,-13,2,-6
1199,-8,-18,997,-14,1,-7
1200,-8,-18,997,-15,1,-6
1201,-7,-18,999,-14,1,-7
1202,-8,-18,998,-15,1,-8
1203,-8,-19,998,-15,1,-6
1204,-6,-18,998,-14,1,-7
1205,-7,-19,998,-15,0,-5
1206,-7,-19,998,-13,0,-7
1207,-7,-18,998,-14,1,-6
1208,-7,-20,998,-14,1,-5
1209,-6,-18,998,-15,1,-6
1210,-8,-18,998,-15,0,-7
1211,-8,-19,997,-14,1,-6
1212,-6,-18,1000,-12,1,-5
1213,-7,-18,998,-15,1,-7
1214,-9,-19,996,-14,1,-6
1215,-8,-21,998,-15,2,-5
1216,-8,-21,998,-15,1,-5
1217,-5,-22,994,-15,2,-6
1218,-8,-18,1002,-14,2,-6
1219,-7,-20,996,-14,2,-6
1220,-7,-18,994,-15,2,-5
1221,-7,-21,1002,-15,1,-6
1222,-7,-16,999,-14,0,-6
1223,-8,-18,992,-14,0,-5
1224,-7,-20,1000,-14,1,-6
1225,-6,-20,997,-13,1,-6
1226,-7,-20,994,-14,0,-7
1227,-8,-19,1000,-14,1,-6
1228,-8,-18,999,-15,1,-5
1229,-8,-20,996,-13,0,-6
1230,-7,-21,999,-15,-1,-5
1231,-6,-22,999,-16,2,-5
1232,-7,-20,996,-15,1,-5
1233,-7,-20,1000,-15,0,-6
1234,-5,-21,996,-15,0,-6
1235,-8,-20,997,-13,3,-5
1236,-7,-19,997,-13,2,-5
1237,-8,-19,996,-15,2,-6
1238,-9,-19,997,-15,0,-6
1239,-8,-21,999,-12,1,-6
1240,-7,-18,998,-13,1,-6
1241,-8,-20,998,-15,2,-6
1242,-6,-18,998,-13,1,-6
1243,-6,-18,996,-15,1,-7
1244,-8,-18,996,-14,1,-5
1245,-7,-19,997,-14,2,-6
1246,-7,-18,998,-15,1,-7
1247,-7,-19,997,-15,2,-6
1248,-7,-18,998,-14,0,-6
1249,-8,-18,999,-14,0,-6
1250,-7,-18,999,-15,1,-6
1251,-6,-18,999,-14,2,-6
1252,-5,-18,998,-14,1,-5
1253,-5,-18,997,-14,0,-5
1254,-7,-21,1000,-15,1,-6
1255,-8,-17,1019,-12,0,-6
1256,-6,-14,1001,-14,1,-6
1257,-6,-19,970,-15,2,-5
1258,-7,-18,998,-15,1,-6
1259,-5,-28,1002,-15,-1,-6
1260,-3,-28,979,-14,1,-5
1261,-9,-29,1002,-14,0,-5
1262,-12,-18,1010,-11,0,-6
1263,-11,-11,987,-13,2,-5
1264,-9,-3,1006,-13,0,-6
1265,-7,-10,1001,-15,1,-6
1266,-6,-17,984,-17,2,-6
1267,-6,-25,995,-16,1,-5
1268,-8,-30,1001,-14,0,-6
1269,-8,-28,997,-13,2,-6
1270,-7,-16,1003,-11,0,-6
1271,-7,-12,997,-12,0,-6
1272,-7,-9,993,-12,1,-7
1273,-6,-13,1001,-15,1,-6
1274,-9,-21,1004,-16,1,-6
1275,-10,-28,997,-14,1,-7
1276,-7,-27,994,-13,0,-7
1277,-5,-21,1001,-11,0,-6
1278,0,-15,1004,-13,1,-5
1279,-2,-16,997,-15,1,-5
1280,-6,-14,996,-15,1,-6
1281,-9,-18,996,-16,2,-5
1282,-12,-26,996,-15,2,-5
1283,-10,-26,998,-15,0,-5
1284,-6,-24,996,-13,2,-6
1285,-3,-19,1000,-12,1,-6
1286,-4,-15,998,-12,2,-5
1287,-7,-15,995,-12,1,-5
1288,-12,-16,996,-14,1,-7
1289,-12,-21,1000,-13,1,-6
1290,-10,-21,993,-15,1,-6
1291,-7,-20,998,-14,0,-6
1292,-6,-17,999,-13,0,-6
1293,-9,-16,993,-13,1,-6
1294,-8,-15,994,-14,1,-5
1295,-11,-18,1000,-16,1,-6
1296,-9,-20,996,-15,1,-6
1297,-6,-22,997,-14,1,-7
1298,-4,-21,999,-14,-1,-5
1299,-5,-20,994,-12,1,-5
1300,-7,-19,998,-13,2,-6
1301,-9,-17,999,-14,2,-5
1302,-8,-18,1000,-13,0,-6
1303,-7,-19,997,-14,0,-7
1304,-7,-20,1000,-14,0,-6
1305,-6,-21,997,-13,0,-6
1306,-3,-20,998,-13,1,-6
1307,-5,-19,1000,-12,2,-5
1308,-6,-21,998,-14,1,-5
1309,-7,-19,997,-13,2,-6
1310,-8,-19,999,-13,1,-6
1311,-7,-20,996,-14,0,-6
1312,-6,-17,997,-14,0,-6
1313,-5,-18,997,-13,1,-6
1314,-6,-19,998,-14,1,-5
1315,-10,-18,998,-14,2,-5
1316,-9,-19,996,-13,1,-6
1317,-10,-19,996,-14,0,-6
1318,-9,-18,998,-13,1,-7
1319,-7,-19,997,-14,2,-7
1320,-7,-18,996,-13,1,-6
1321,-8,-17,999,-12,1,-6
1322,-8,-18,998,-13,1,-6
1323,-11,-18,997,-14,2,-6
1324,-9,-18,999,-14,1,-7
1325,-8,-18,998,-14,0,-6
1326,-6,-17,995,-14,0,-6
1327,-5,-17,998,-14,2,-6
1328,-8,-18,1000,-14,2,-6
1329,-8,-19,999,-15,1,-6
1330,-7,-19,998,-14,2,-6
1331,-9,-20,1000,-14,1,-6
1332,-7,-20,998,-15,0,-6
1333,-7,-18,999,-12,0,-7
1334,-6,-18,1000,-14,1,-7
1335,-7,-18,999,-14,1,-6
1336,-8,-20,997,-13,2,-5
1337,-8,-21,998,-14,2,-6
1338,-10,-20,997,-14,2,-7
1339,-4,-20,997,-13,1,-7
1340,-5,-20,997,-14,1,-6
1341,-7,-18,998,-14,1,-6
1342,-6,-16,998,-12,2,-6
1343,-7,-17,997,-14,0,-6
1344,-9,-18,996,-13,1,-6
1345,-9,-19,997,-13,1,-6
1346,-8,-19,997,-14,0,-5
1347,-9,-18,996,-14,1,-7
1348,-6,-17,998,-13,0,-6
1349,-6,-17,999,-14,1,-6
1350,-7,-19,998,-14,2,-6
1351,-8,-19,996,-15,2,-5
1352,-9,-20,999,-16,1,-5
1353,-9,-19,998,-27,4,-2
1354,-7,-19,999,-17,3,-5
1355,-5,-20,998,-13,1,-6
1356,-7,-19,998,-13,1,-7
1357,-8,-20,998,-15,1,-7
1358,-6,-20,997,-15,0,-6
1359,-7,-20,998,-15,0,-7
1360,-7,-18,1000,-13,0,-7
1361,-6,-18,1000,-13,1,-6
1362,-6,-19,997,-12,1,-6
1363,-5,-18,997,-13,2,-6
1364,-7,-19,998,-14,0,-5
1365,-6,-19,997,-13,1,-6
1366,-7,-19,998,-13,0,-6
1367,-5,-18,996,-14,1,-6
1368,-6,-18,995,-12,1,-6
1369,-8,-21,992,-14,1,-6
1370,-7,-20,992,-15,2,-5
1371,-7,-20,992,-14,1,-6
1372,-6,-17,994,-14,1,-6
1373,-7,-17,997,-14,2,-6
1374,-11,-17,1002,-14,0,-5
1375,-12,-16,1003,-15,2,-7
1376,-11,-16,1003,-16,0,-5
1377,-9,-17,997,-15,-1,-6
1378,-3,-22,992,-15,0,-7
1379,0,-23,990,-14,0,-7
1380,0,-24,992,-14,0,-6
1381,-6,-22,997,-13,1,-7
1382,-12,-20,1002,-12,3,-5
1383,-14,-16,1001,-13,3,-6
1384,-14,-13,1001,-13,-1,-6
1385,-8,-11,1000,-16,-2,-7
1386,-5,-17,1002,-16,1,-6
1387,-5,-23,1001,-16,1,-5
1388,-7,-29,1000,-14,1,-7
1389,-8,-27,1000,-12,1,-7
1390,-5,-23,999,-11,1,-7
1391,-4,-16,1000,-12,1,-6
1392,-2,-15,1002,-13,0,-6
1393,-6,-16,1001,-13,0,-7
1394,-10,-20,999,-13,3,-7
1395,-8,-22,999,-15,2,-6
1396,-7,-21,997,-13,1,-6
1397,-8,-17,998,-13,0,-6
1398,-5,-16,999,-13,1,-6
1399,-5,-14,998,-13,1,-7
1400,-7,-18,996,-14,1,-5
1401,-8,-20,994,-13,1,-6
1402,-9,-22,993,-14,2,-5
1403,-10,-25,991,-13,0,-5
1404,-8,-19,994,-13,1,-5
1405,-9,-17,996,-14,1,-5
1406,-8,-13,996,-14,1,-5
1407,-6,-13,995,-15,0,-6
1408,-7,-17,996,-15,1,-6
1409,-8,-20,997,-15,1,-5
1410,-6,-24,998,-16,1,-6
1411,-8,-25,995,-13,2,-6
1412,-8,-22,997,-12,1,-6
1413,-8,-18,999,-14,0,-6
1414,-5,-14,998,-14,0,-6
1415,-7,-14,998,-15,0,-6
1416,-7,-17,1000,-14,-1,-6
1417,-6,-18,999,-15,0,-7
1418,-5,-22,1000,-15,-1,-6
1419,-4,-22,999,-12,1,-5
1420,-6,-22,999,-13,2,-6
1421,-7,-20,998,-16,2,-6
1422,-10,-19,998,-13,0,-6
1423,-10,-18,997,-15,0,-6
1424,-8,-18,998,-15,0,-6
1425,-5,-20,997,-13,0,-6
1426,-5,-21,998,-14,1,-7
1427,-5,-20,997,-13,1,-6
1428,-6,-20,998,-13,2,-6
1429,-8,-16,996,-13,1,-6
1430,-9,-15,996,-13,1,-5
1431,-9,-15,994,-13,0,-5
1432,-8,-16,993,-13,2,-6
1433,-8,-16,995,-14,1,-7
1434,-7,-19,997,-14,1,-5
1435,-9,-15,998,-14,0,-6
1436,-9,-17,996,-14,1,-6
1437,-10,-19,997,-13,0,-6
1438,-8,-19,998,-14,1,-6
1439,-5,-20,998,-13,1,-7
1440,-5,-22,999,-13,1,-7
1441,-6,-22,999,-14,1,-6
1442,-6,-20,999,-15,1,-6
1443,-8,-20,999,-14,1,-6
1444,-8,-18,999,-12,1,-6
1445,-6,-16,998,-13,1,-7
1446,-5,-16,998,-14,0,-6
1447,-5,-18,998,-14,1,-5
1448,-6,-20,998,-15,2,-6
1449,-5,-19,996,-15,2,-5
1450,-7,-22,997,-14,1,-5
1451,-7,-20,997,-15,0,-7
1452,-5,-19,998,-14,1,-7
1453,-7,-19,997,-13,1,-6
1454,-7,-17,997,-15,2,-5
1455,-7,-18,998,-15,2,-5
1456,-8,-18,998,-15,0,-6
1457,-9,-19,996,-14,1,-6
1458,-8,-21,996,-15,1,-6
1459,-11,-20,997,-14,1,-7
1460,-8,-21,997,-14,1,-6
1461,-7,-20,997,-14,1,-6
1462,-9,-18,998,-14,2,-7
1463,-9,-19,998,-15,2,-5
1464,-9,-18,999,-14,2,-6
1465,-8,-20,1000,-14,1,-6
1466,-7,-18,999,-14,0,-6
1467,-8,-18,1001,-13,0,-7
1468,-6,-17,999,-14,0,-6
1469,-7,-17,999,-13,0,-6
1470,-6,-19,999,-15,1,-5
1471,-6,-20,998,-15,1,-6
1472,-5,-20,997,-14,1,-6
1473,-4,-19,1000,-15,0,-6
1474,-7,-19,1001,-14,1,-5
1475,-6,-18,999,-14,1,-6
1476,-8,-19,998,-14,1,-5
1477,-8,-21,999,-13,2,-6
1478,-7,-21,998,-14,0,-7
1479,-6,-19,997,-14,-1,-7
1480,-5,-20,996,-13,1,-7
1481,-7,-19,997,-14,1,-7
1482,-9,-17,995,-14,2,-6
1483,-9,-18,997,-14,1,-6
1484,-8,-16,996,-13,1,-6
1485,-9,-18,996,-13,0,-5
1486,-8,-18,998,-14,1,-5
1487,-7,-18,997,-12,1,-6
1488,-7,-19,997,-13,1,-5
1489,-9,-17,997,-15,1,-5
1490,-8,-19,997,-13,1,-6
1491,-7,-18,999,-13,2,-6
1492,-5,-19,997,-14,0,-7
1493,-8,-20,995,-15,0,-6
1494,-5,-20,999,-14,-1,-6
1495,-8,-18,997,-14,1,-6
1496,-6,-20,997,-13,0,-5
1497,-6,-19,997,-13,1,-5
1498,-8,-19,997,-15,1,-6
1499,-6,-19,999,-15,0,-5
1500,-5,-20,996,-13,0,-6
1501,-4,-20,997,-14,0,-6
1502,-5,-20,998,-14,2,-7
1503,-6,-18,999,-14,0,-5
1504,-8,-19,997,-15,1,-4
1505,-6,-19,998,-13,1,-5
1506,-7,-17,996,-15,1,-6
1507,-9,-17,996,-12,1,-6
1508,-7,-18,999,-12,2,-5
1509,-8,-18,996,-16,0,-7
1510,-8,-18,996,-14,1,-6
1511,-8,-17,998,-14,1,-6
1512,-8,-19,997,-15,1,-6
1513,-8,-20,998,-14,2,-5
1514,-7,-17,999,-14,1,-6
1515,-8,-17,998,-14,0,-7
1516,-6,-20,998,-13,0,-6
1517,-7,-20,996,-14,0,-6
1518,-8,-21,998,-12,0,-5
1519,-7,-19,998,-13,1,-6
1520,-8,-19,998,-13,1,-6
1521,-8,-19,999,-14,1,-7
1522,-7,-20,998,-15,1,-6
1523,-5,-18,999,-14,1,-5
1524,-6,-19,997,-14,1,-5
1525,-8,-18,997,-13,1,-5
1526,-9,-18,997,-12,3,-5
1527,-7,-18,998,-16,1,-6
1528,-8,-18,998,-15,1,-6
1529,-6,-19,998,-14,1,-6
1530,-5,-19,998,-14,1,-6
1531,-6,-18,998,-13,0,-6
1532,-7,-19,999,-15,1,-6
1533,-7,-20,1000,-13,2,-5
1534,-7,-18,998,-13,1,-6
1535,-8,-19,998,-14,1,-7
1536,-9,-17,996,-15,1,-6
1537,-8,-19,999,-14,2,-5
1538,-7,-18,997,-15,1,-6
1539,-8,-20,998,-14,1,-6
1540,-6,-20,998,-13,0,-7
1541,-7,-21,998,-15,0,-5
1542,-6,-20,999,-14,0,-5
1543,-7,-18,998,-15,1,-5
1544,-7,-18,998,-14,1,-7
1545,-9,-17,997,-14,1,-7
1546,-8,-18,998,-16,1,-6
1547,-8,-18,997,-14,0,-6
1548,-7,-19,999,-13,0,-6
1549,-7,-18,996,-13,0,-7
1550,-8,-17,998,-14,2,-6
1551,-8,-19,999,-13,0,-5
1552,-7,-19,997,-14,0,-5
1553,-7,-21,997,-15,0,-5
1554,-6,-20,997,-14,0,-6
1555,-5,-20,999,-15,0,-6
1556,-7,-20,998,-14,1,-7
1557,-4,-19,998,-14,1,-6
1558,-7,-19,997,-15,1,-6
1559,-6,-21,997,-15,-1,-5
1560,-6,-19,997,-15,1,-6
1561,-7,-19,998,-13,1,-6
1562,-8,-19,996,-14,1,-6
1563,-8,-17,997,-14,0,-5
1564,-7,-18,1000,-14,0,-5
1565,-6,-18,998,-14,2,-6
1566,-7,-18,998,-14,1,-5
1567,-8,-19,997,-13,1,-6
1568,-6,-19,998,-15,1,-6
1569,-5,-19,998,-14,1,-5
1570,-6,-20,1000,-13,1,-5
1571,-6,-20,997,-14,2,-6
1572,-7,-19,998,-14,1,-6
1573,-8,-19,996,-14,1,-6
1574,-9,-19,999,-13,1,-6
1575,-9,-19,997,-15,0,-6
1576,-8,-19,998,-14,1,-6
1577,-6,-19,997,-13,1,-6
1578,-7,-17,998,-14,1,-6
1579,-7,-18,999,-13,1,-6
1580,-9,-19,996,-15,0,-6
1581,-7,-21,999,-13,1,-6
1582,-8,-19,998,-14,2,-6
1583,-8,-18,999,-15,2,-6
1584,-7,-16,999,-13,2,-6
1585,-8,-17,1000,-13,0,-5
1586,-6,-18,998,-14,1,-5
1587,-9,-19,1000,-13,3,-6
1588,-8,-18,997,-13,2,-7
1589,-8,-20,999,-13,0,-6
1590,-6,-19,999,-14,1,-5
1591,-8,-20,997,-14,1,-6
1592,-8,-19,997,-14,1,-5
1593,-8,-21,997,-14,0,-5
1594,-8,-19,998,-14,1,-5
1595,-8,-18,996,-13,1,-6
1596,-6,-20,998,-14,1,-6
1597,-8,-20,996,-13,2,-6
1598,-7,-19,998,-12,2,-6
1599,-6,-18,996,-14,1,-6
1600,-8,-18,1000,-13,0,-5
1601,-7,-20,998,-14,0,-6
1602,-7,-19,999,-14,1,-7
1603,-7,-18,997,-13,1,-6
1604,-7,-18,997,-14,1,-5
1605,-8,-18,997,-15,1,-6
1606,-7,-19,999,-14,1,-6
1607,-7,-20,998,-15,0,-7
1608,-7,-20,998,-15,1,-5
1609,-7,-19,998,-12,2,-6
1610,-7,-20,998,-15,1,-6
1611,-8,-19,999,-14,1,-6
1612,-7,-19,998,-14,0,-6
1613,-6,-17,998,-13,1,-5
1614,-8,-18,997,-12,2,-7
1615,-6,-21,999,-15,1,-6
1616,-7,-22,997,-15,1,-6
1617,-9,-20,999,-15,1,-5
1618,-7,-19,997,-15,2,-5
1619,-7,-19,997,-13,1,-6
1620,-7,-19,997,-15,0,-6
1621,-7,-20,998,-14,1,-7
1622,-7,-19,995,-13,2,-6
1623,-9,-20,999,-14,1,-7
1624,-7,-18,997,-13,1,-7
1625,-7,-17,997,-15,1,-6
1626,-9,-18,997,-14,1,-7
1627,-9,-19,997,-14,0,-7
1628,-8,-18,997,-13,0,-6
1629,-6,-21,999,-13,0,-7
1630,-7,-22,998,-14,1,-6
1631,-6,-20,999,-14,0,-6
1632,-7,-19,997,-14,1,-6
1633,-8,-18,998,-15,2,-6
1634,-7,-19,998,-15,0,-6
1635,-7,-19,998,-15,0,-6
1636,-6,-20,997,-15,0,-6
1637,-6,-18,999,-14,0,-6
1638,-7,-20,997,-14,0,-7
1639,-6,-19,998,-13,-1,-6
1640,-6,-19,998,-13,2,-6
1641,-8,-18,999,-15,1,-7
1642,-7,-18,998,-12,0,-6
1643,-7,-19,998,-14,1,-6
1644,-8,-20,997,-14,0,-6
1645,-7,-19,996,-14,1,-6
1646,-8,-20,998,-15,1,-5
1647,-9,-18,997,-13,1,-4
1648,-7,-18,999,-15,1,-5
1649,-7,-18,995,-14,2,-5
1650,-8,-17,997,-13,2,-7
1651,-8,-19,997,-14,1,-6
1652,-7,-19,997,-14,1,-7
1653,-7,-17,997,-13,1,-8
1654,-6,-19,998,-14,1,-7
1655,-7,-21,998,-14,0,-5
1656,-8,-18,996,-14,0,-5
1657,-7,-20,998,-13,1,-6
1658,-9,-20,997,-14,1,-7
1659,-8,-20,1000,-15,1,-6
1660,-8,-21,997,-13,1,-5
1661,-6,-19,998,-13,0,-7
1662,-7,-20,995,-13,2,-5
1663,-10,-19,999,-14,1,-6
1664,-7,-19,996,-14,0,-7
1665,-7,-19,997,-14,0,-6
1666,-5,-19,998,-14,1,-6
1667,-5,-19,996,-15,1,-6
1668,-6,-18,996,-15,1,-7
1669,-7,-17,997,-14,1,-6
1670,-7,-19,999,-14,1,-6
1671,-7,-19,998,-13,1,-7
1672,-8,-20,997,-13,0,-7
1673,-9,-20,997,-14,1,-7
1674,-8,-19,998,-14,1,-6
1675,-8,-20,999,-13,0,-6
1676,-6,-19,998,-12,0,-5
1677,-7,-18,996,-14,2,-6
1678,-7,-19,996,-12,1,-6
1679,-10,-18,997,-13,2,-7
1680,-8,-19,997,-13,-1,-6
1681,-8,-20,997,-14,1,-5
1682,-6,-20,997,-13,2,-5
1683,-8,-21,998,-14,1,-4
1684,-7,-19,997,-13,1,-5
1685,-7,-19,997,-15,2,-6
1686,-7,-18,998,-15,1,-6
1687,-7,-20,996,-13,-4,-8
1688,-8,-19,998,-15,1,-6
1689,-7,-20,997,-15,0,-6
1690,-7,-20,996,-14,0,-6
1691,-7,-19,997,-13,1,-6
1692,-8,-19,999,-14,1,-5
1693,-6,-19,997,-14,3,-5
1694,-9,-19,996,-14,2,-5
1695,-9,-19,997,-14,1,-6
1696,-6,-19,997,-14,1,-5
1697,-6,-19,996,-13,1,-7
1698,-7,-19,997,-13,1,-5
1699,-7,-20,998,-13,1,-6
1700,-7,-19,997,-14,0,-6
1701,-8,-18,997,-14,-1,-6
1702,-7,-21,996,-15,1,-6
1703,-6,-19,998,-15,0,-6
1704,-6,-19,997,-14,0,-6
1705,-7,-18,997,-14,1,-6
1706,-7,-18,997,-15,1,-5
1707,-8,-18,997,-15,2,-5
1708,-7,-20,996,-13,0,-6
1709,-9,-18,997,-14,0,-7
1710,-8,-19,997,-14,0,-6
1711,-8,-19,996,-14,0,-6
1712,-8,-20,997,-14,1,-6
1713,-6,-21,997,-15,1,-5
1714,-6,-21,997,-14,1,-5
1715,-7,-20,997,-16,0,-6
1716,-9,-20,998,-15,-1,-6
1717,-6,-19,1000,-15,1,-7
1718,-7,-17,1001,-14,2,-6
1719,-8,-18,999,-14,2,-6
1720,-7,-18,1001,-13,0,-6
1721,-8,-20,998,-16,0,-6
1722,-7,-22,998,-15,0,-5
1723,-7,-21,997,-14,-1,-5
1724,-6,-18,999,-14,0,-5
1725,-6,-19,998,-13,0,-6
1726,-6,-19,998,-13,1,-5
1727,-7,-19,998,-13,1,-6
1728,-9,-18,997,-14,1,-7
1729,-8,-19,997,-14,1,-6
1730,-9,-17,998,-14,0,-6
1731,-8,-19,998,-14,0,-6
1732,-8,-20,995,-15,1,-7
1733,-8,-19,997,-14,1,-6
1734,-7,-19,999,-13,1,-5
1735,-8,-20,998,-13,0,-6
1736,-6,-18,997,-14,1,-7
1737,-4,-19,996,-14,0,-6
1738,-7,-17,998,-14,1,-5
1739,-10,-19,998,-13,0,-7
1740,-8,-18,997,-14,2,-6
1741,-8,-19,999,-14,1,-7
1742,-6,-19,998,-14,0,-6
1743,-5,-20,999,-14,0,-6
1744,-6,-18,999,-13,1,-6
1745,-7,-20,999,-12,2,-6
1746,-6,-21,997,-14,1,-6
1747,-7,-18,997,-13,1,-6
1748,-8,-17,997,-14,0,-6
1749,-9,-18,998,-14,1,-6
1750,-5,-20,997,-14,2,-6
1751,-9,-20,998,-13,0,-7
1752,-7,-20,998,-14,1,-5
1753,-8,-18,999,-13,2,-6
1754,-8,-19,997,-13,1,-6
1755,-8,-19,997,-15,1,-6
1756,-7,-18,998,-13,1,-6
1757,-7,-19,998,-14,0,-6
1758,-7,-18,997,-15,0,-5
1759,-9,-18,998,-14,2,-6
1760,-9,-19,996,-14,1,-7
1761,-7,-18,997,-13,0,-6
1762,-9,-18,995,-13,0,-7
1763,-6,-19,997,-14,1,-6
1764,-8,-18,997,-14,1,-6
1765,-8,-20,998,-14,2,-6
1766,-7,-18,996,-15,0,-5
1767,-6,-19,999,-13,1,-6
1768,-7,-19,998,-14,1,-6
1769,-6,-18,997,-15,1,-6
1770,-6,-17,998,-13,1,-6
1771,-9,-18,998,-13,0,-6
1772,-5,-19,998,-15,1,-7
1773,-7,-20,999,-13,1,-7
1774,-8,-20,998,-15,1,-6
1775,-7,-19,998,-15,1,-5
1776,-7,-20,997,-15,2,-5
1777,-8,-21,998,-14,2,-6
1778,-8,-19,998,-13,1,-6
1779,-8,-20,999,-14,1,-6
1780,-8,-19,998,-12,1,-6
1781,-7,-19,997,-14,0,-6
1782,-8,-21,997,-14,1,-6
1783,-8,-20,997,-13,1,-7
1784,-8,-19,995,-14,0,-6
1785,-7,-18,996,-12,1,-5
1786,-7,-19,998,-14,0,-6
1787,-7,-19,997,-13,1,-6
1788,-6,-18,997,-14,0,-6
1789,-7,-18,996,-14,1,-7
1790,-5,-16,997,-14,0,-5
1791,-7,-18,997,-13,1,-5
1792,-7,-18,998,-15,1,-6
1793,-7,-20,998,-14,1,-6
1794,-6,-19,998,-13,0,-6
1795,-5,-20,997,-14,1,-5
1796,-5,-18,998,-13,2,-5
1797,-7,-19,998,-15,1,-6
1798,-7,-20,996,-14,1,-6
1799,-7,-20,997,-13,2,-6
1800,-9,-18,996,-15,3,-5
1801,-8,-19,999,-14,1,-6
1802,-8,-20,997,-15,0,-6
1803,-6,-20,997,-13,0,-7
1804,-6,-18,999,-12,1,-6
1805,-8,-18,997,-13,2,-6
1806,-7,-18,997,-14,2,-6
1807,-6,-19,999,-15,1,-7
1808,-7,-20,998,-14,1,-7
1809,-5,-17,998,-14,1,-6
1810,-6,-18,997,-15,1,-6
1811,-8,-20,997,-13,1,-5
1812,-8,-19,996,-13,2,-6
1813,-9,-19,997,-15,2,-6
1814,-10,-19,998,-14,2,-7
1815,-8,-19,997,-15,1,-6
1816,-7,-21,997,-14,1,-6
1817,-5,-20,998,-13,2,-6
1818,-7,-19,998,-14,1,-6
1819,-7,-20,998,-14,2,-6
1820,-7,-19,998,-14,0,-6
1821,-4,-20,998,-15,1,-6
1822,-6,-20,999,-14,0,-6
1823,-6,-18,998,-14,1,-7
1824,-7,-19,998,-14,1,-7
1825,-7,-18,999,-14,2,-7
1826,-6,-19,998,-14,1,-7
1827,-7,-18,999,-14,1,-7
1828,-8,-20,998,-14,1,-6
1829,-9,-17,999,-14,1,-5
1830,-7,-20,999,-15,1,-6
1831,-7,-20,997,-14,1,-6
1832,-6,-20,998,-14,1,-7
1833,-9,-20,997,-13,1,-6
1834,-5,-17,997,-15,0,-6
1835,-7,-17,998,-15,1,-6
1836,-6,-17,998,-13,2,-6
1837,-7,-18,997,-14,1,-6
1838,-8,-19,997,-13,1,-6
1839,-7,-18,997,-15,1,-6
1840,-9,-19,998,-14,2,-6
1841,-6,-18,997,-15,2,-5
1842,-8,-19,998,-15,2,-5
1843,-7,-18,997,-14,1,-6
1844,-7,-20,997,-14,0,-7
1845,-9,-18,996,-14,0,-7
1846,-8,-19,998,-14,0,-7
1847,-7,-19,996,-15,1,-6
1848,-6,-18,998,-15,1,-6
1849,-7,-18,998,-13,1,-6
1850,-5,-19,997,-14,2,-6
1851,-9,-19,997,-14,0,-6
1852,-6,-19,997,-13,1,-7
1853,-7,-20,997,-14,1,-7
1854,-6,-20,997,-14,0,-5
1855,-9,-17,997,-13,0,-7
1856,-6,-19,996,-14,0,-6
1857,-6,-19,997,-15,2,-6
1858,-6,-20,999,-14,1,-6
1859,-8,-19,998,-15,0,-6
1860,-7,-20,998,-14,1,-6
1861,-6,-19,999,-17,0,-6
1862,-7,-21,998,-14,0,-5
1863,-5,-19,997,-13,1,-6
1864,-7,-19,995,-16,2,-6
1865,-7,-20,998,-14,1,-6
1866,-9,-18,998,-15,1,-6
1867,-6,-20,997,-14,1,-6
1868,-8,-20,997,-15,1,-6
1869,-9,-18,997,-14,1,-6
1870,-8,-19,997,-15,0,-6
1871,-7,-17,998,-14,1,-6
1872,-8,-19,997,-15,0,-6
1873,-7,-19,998,-13,1,-7
1874,-7,-19,996,-14,0,-6
1875,-7,-19,995,-14,0,-6
1876,-5,-19,996,-14,2,-6
1877,-8,-19,999,-14,1,-7
1878,-6,-20,998,-13,0,-6
1879,-7,-18,999,-14,0,-6
1880,-6,-17,998,-13,1,-6
1881,-7,-20,998,-15,1,-5
1882,-7,-20,998,-14,1,-7
1883,-7,-19,997,-13,0,-6
1884,-5,-19,997,-15,1,-6
1885,-6,-20,997,-14,0,-7
1886,-6,-20,997,-14,0,-6
1887,-7,-19,997,-12,1,-6
1888,-8,-19,997,-14,1,-6
1889,-7,-18,998,-13,2,-6
1890,-6,-18,999,-14,0,-5
1891,-6,-19,999,-14,1,-6
1892,-7,-19,998,-14,1,-7
1893,-5,-19,997,-13,1,-6
1894,-7,-19,998,-15,0,-6
1895,-8,-20,998,-12,0,-6
1896,-8,-20,998,-14,1,-6
1897,-9,-20,998,-13,1,-5
1898,-10,-19,998,-15,0,-6
1899,-8,-18,998,-13,1,-6
1900,-8,-20,997,-12,2,-5
1901,-5,-19,997,-13,2,-6
1902,-6,-18,999,-14,2,-6
1903,-7,-19,998,-14,2,-7
1904,-6,-18,997,-14,1,-6
1905,-6,-18,998,-14,2,-7
1906,-8,-20,998,-14,1,-5
1907,-8,-19,996,-14,1,-6
1908,-5,-18,999,-14,1,-7
1909,-8,-21,998,-14,1,-6
1910,-7,-20,997,-13,1,-6
1911,-7,-20,998,-14,0,-6
1912,-8,-21,997,-14,0,-7
1913,-5,-18,999,-14,0,-6
1914,-6,-18,997,-15,1,-7
1915,-7,-19,998,-14,0,-8
1916,-8,-19,997,-13,1,-6
1917,-5,-18,995,-15,1,-5
1918,-7,-18,997,-15,1,-6
1919,-7,-19,997,-13,1,-7
1920,-5,-19,997,-15,0,-6
1921,-7,-19,997,-16,1,-6
1922,-7,-19,999,-13,1,-6
1923,-8,-20,998,-13,1,-6
1924,-8,-20,997,-14,2,-8
1925,-8,-19,997,-15,-1,-7
1926,-7,-18,999,-15,-1,-6
1927,-7,-18,999,-15,2,-6
1928,-8,-18,999,-15,2,-6
1929,-9,-18,998,-15,2,-5
1930,-6,-18,996,-14,1,-6
1931,-6,-20,1001,-13,1,-6
1932,-7,-19,998,-13,1,-5
1933,-6,-21,996,-13,1,-6
1934,-6,-17,997,-12,1,-7
1935,-7,-20,996,-13,1,-7
1936,-6,-21,997,-13,0,-7
1937,-8,-19,999,-13,2,-7
1938,-8,-19,998,-13,1,-7
1939,-7,-21,995,-14,1,-6
1940,-9,-19,998,-13,1,-6
1941,-8,-22,997,-14,1,-6
1942,-9,-19,998,-14,0,-6
1943,-8,-18,998,-15,0,-7
1944,-7,-22,998,-15,1,-7
1945,-7,-19,999,-13,0,-6
1946,-8,-19,999,-14,1,-6
1947,-7,-18,998,-14,1,-6
1948,-8,-19,998,-14,2,-5
1949,-7,-20,997,-13,0,-6
1950,-7,-20,998,-14,1,-5
1951,-8,-20,999,-14,1,-6
1952,-7,-19,999,-14,0,-5
1953,-6,-20,998,-13,1,-6
1954,-5,-19,998,-13,1,-5
1955,-8,-19,998,-15,0,-5
1956,-6,-19,998,-14,1,-5
1957,-6,-19,998,-14,0,-6
1958,-6,-19,997,-14,0,-6
1959,-5,-19,996,-14,2,-6
1960,-6,-18,998,-15,1,-6
1961,-4,-19,997,-13,1,-5
1962,-7,-19,996,-14,0,-6
1963,-8,-19,997,-14,0,-6
1964,-7,-21,997,-12,0,-6
1965,-8,-21,996,-14,0,-6
1966,-8,-19,998,-12,1,-5
1967,-9,-20,998,-14,0,-7
1968,-4,-19,997,-14,1,-7
1969,-7,-19,996,-14,0,-6
1970,-7,-19,998,-14,1,-6
1971,-8,-18,998,-14,1,-6
1972,-7,-20,997,-12,1,-6
1973,-9,-20,997,-14,1,-6
1974,-5,-19,998,-14,-1,-7
1975,-9,-19,998,-14,1,-7
1976,-5,-19,997,-15,1,-6
1977,-7,-19,996,-12,2,-5
1978,-9,-18,996,-15,2,-6
1979,-7,-20,998,-14,2,-6
1980,-8,-19,998,-13,2,-5
1981,-8,-18,998,-13,2,-6
1982,-6,-18,998,-14,0,-6
1983,-7,-18,998,-14,0,-7
1984,-6,-20,997,-14,0,-6
1985,-8,-19,997,-15,1,-6
1986,-9,-19,999,-15,0,-6
1987,-10,-19,998,-13,1,-6
1988,-6,-20,998,-13,1,-7
1989,-7,-18,997,-14,1,-5
1990,-11,-19,998,-13,1,-6
1991,-8,-17,999,-14,1,-7
1992,-6,-18,998,-14,1,-7
1993,-8,-18,998,-13,1,-6
1994,-7,-18,996,-14,1,-6
1995,-7,-18,997,-13,0,-6
1996,-7,-19,998,-14,0,-5
1997,-7,-19,998,-13,1,-6
1998,-6,-18,998,-13,0,-6
1999,-7,-20,999,-14,1,-7
2000,-5,-19,998,-15,0,-6
2001,-7,-19,998,-14,1,-6
2002,-5,-20,995,-14,0,-7
2003,-8,-21,998,-14,1,-7
2004,-8,-19,997,-14,2,-5
2005,-7,-20,997,-15,1,-5
2006,-7,-19,998,-13,2,-7
2007,-7,-20,996,-14,2,-6
2008,-6,-20,998,-14,2,-5
2009,-8,-20,998,-13,1,-6
2010,-8,-20,997,-13,1,-6
2011,-7,-19,997,-14,1,-7
2012,-7,-19,997,-15,1,-6
2013,-7,-17,996,-14,0,-6
2014,-8,-20,998,-14,1,-5
2015,-8,-18,997,-13,1,-7
2016,-8,-19,998,-14,0,-6
2017,-9,-19,998,-13,1,-6
2018,-9,-20,998,-15,1,-5
2019,-7,-18,999,-15,1,-7
2020,-6,-18,999,-13,1,-7
2021,-6,-18,998,-14,1,-7
2022,-8,-19,998,-14,1,-6
2023,-6,-19,998,-14,1,-6
2024,-5,-21,997,-14,1,-6
2025,-6,-21,997,-15,1,-6
2026,-6,-19,999,-15,0,-6
2027,-5,-20,998,-13,1,-7
2028,-6,-20,997,-14,2,-7
2029,-8,-18,998,-14,1,-7
2030,-8,-20,997,-14,1,-7
2031,-7,-20,998,-15,1,-6
2032,-5,-19,998,-18,-1,-4
2033,-6,-18,996,-10,-4,-8
2034,-7,-19,998,-15,0,-6
2035,-8,-19,999,-13,0,-7
2036,-5,-18,998,-14,3,-6
2037,-7,-19,997,-14,2,-5
2038,-7,-19,998,-13,2,-6
2039,-7,-19,997,-15,2,-6
2040,-8,-17,998,-14,0,-7
2041,-9,-19,999,-14,1,-5
2042,-7,-17,998,-15,2,-5
2043,-9,-18,999,-13,0,-7
2044,-6,-19,998,-14,-1,-8
2045,-7,-19,998,-15,1,-6
2046,-5,-19,998,-14,1,-5
2047,-8,-20,998,-14,1,-6
2048,-7,-21,998,-14,1,-6
2049,-8,-21,998,-14,1,-5
2050,-9,-19,999,-14,2,-6
2051,-7,-18,998,-13,0,-6
2052,-4,-20,998,-15,1,-6
2053,-5,-19,997,-13,1,-6
2054,-8,-19,998,-12,1,-6
2055,-10,-19,997,-15,1,-5
2056,-6,-19,998,-15,1,-6
2057,-6,-21,998,-14,1,-6
2058,-6,-19,995,-13,2,-6
2059,-10,-19,996,-13,1,-5
2060,-7,-18,999,-14,2,-6
2061,-7,-20,996,-16,2,-7
2062,-7,-20,996,-15,2,-5
2063,-7,-19,997,-13,1,-6
2064,-7,-17,996,-13,1,-7
2065,-7,-19,996,-14,1,-7
2066,-9,-19,998,-13,2,-6
2067,-7,-21,997,-15,1,-6
2068,-7,-18,999,-13,0,-6
2069,-6,-19,996,-14,0,-7
2070,-7,-20,998,-14,1,-6
2071,-8,-19,997,-15,1,-7
2072,-8,-17,998,-15,0,-7
2073,-6,-19,999,-15,0,-6
2074,-7,-21,998,-15,0,-7
2075,-7,-19,997,-12,1,-6
2076,-6,-19,998,-14,1,-7
2077,-6,-18,998,-14,1,-6
2078,-7,-18,997,-13,0,-6
2079,-6,-20,997,-14,2,-6
2080,-8,-19,998,-14,1,-7
2081,-5,-18,999,-16,0,-5
2082,-7,-19,998,-13,1,-6
2083,-7,-19,997,-14,0,-6
2084,-6,-18,998,-13,0,-6
2085,-6,-19,997,-15,0,-5
2086,-8,-18,997,-14,0,-7
2087,-7,-20,996,-15,0,-7
2088,-7,-18,997,-14,1,-5
2089,-8,-19,998,-15,1,-5
2090,-8,-21,997,-15,0,-7
2091,-8,-18,996,-14,-1,-7
2092,-9,-17,998,-15,0,-7
2093,-8,-19,997,-15,1,-7
2094,-8,-19,998,-13,1,-6
2095,-7,-19,998,-14,1,-6
2096,-6,-19,998,-13,2,-6
2097,-7,-18,998,-13,0,-5
2098,-6,-20,997,-16,1,-5
2099,-7,-18,997,-15,1,-6
2100,-6,-18,1000,-13,2,-6
2101,-9,-20,998,-14,1,-6
2102,-8,-19,997,-13,1,-7
2103,-7,-20,996,-15,0,-6
2104,-7,-18,997,-14,2,-6
2105,-5,-20,996,-14,1,-7
2106,-6,-20,998,-14,1,-6
2107,-8,-19,997,-13,1,-7
2108,-5,-20,998,-14,0,-8
2109,-7,-20,997,-15,1,-7
2110,-8,-19,996,-14,0,-7
2111,-6,-22,999,-14,1,-6
2112,-8,-19,997,-15,2,-6
2113,-4,-19,998,-14,1,-6
2114,-6,-19,997,-14,1,-6
2115,-9,-19,997,-14,0,-6
2116,-8,-19,998,-15,0,-7
2117,-8,-19,998,-15,1,-7
2118,-7,-18,997,-13,1,-6
2119,-8,-18,998,-14,0,-5
2120,-8,-19,998,-13,0,-5
2121,-8,-19,999,-14,1,-5
2122,-6,-19,998,-14,0,-5
2123,-4,-19,999,-14,0,-6
2124,-7,-18,998,-12,0,-6
2125,-6,-18,999,-13,1,-7
2126,-7,-19,999,-13,1,-8
2127,-7,-20,999,-14,2,-6
2128,-8,-20,999,-14,2,-6
2129,-6,-19,997,-13,1,-6
2130,-6,-19,999,-15,1,-7
2131,-5,-17,997,-14,1,-6
2132,-5,-19,998,-14,1,-5
2133,-7,-20,999,-13,1,-6
2134,-8,-19,997,-14,0,-6
2135,-7,-19,996,-13,1,-6
2136,-7,-19,999,-14,1,-5
2137,-6,-19,997,-14,1,-6
2138,-6,-20,998,-14,0,-6
2139,-6,-20,999,-14,1,-7
2140,-7,-19,1000,-14,0,-7
2141,-8,-19,997,-15,1,-6
2142,-7,-19,998,-13,1,-7
2143,-6,-19,999,-13,1,-6
2144,-6,-20,997,-12,1,-7
2145,-7,-19,998,-13,1,-6
2146,-6,-20,997,-14,1,-6
2147,-6,-19,998,-14,2,-6
2148,-7,-18,998,-15,1,-5
2149,-8,-18,995,-14,1,-6
2150,-7,-18,996,-14,1,-6
2151,-8,-18,999,-14,0,-6
2152,-8,-18,997,-13,1,-6
2153,-8,-19,997,-14,0,-6
2154,-7,-19,998,-14,2,-6
2155,-9,-18,998,-14,1,-6
2156,-5,-19,998,-13,0,-7
2157,-5,-19,999,-13,2,-6
2158,-6,-19,997,-15,1,-7
2159,-6,-18,998,-14,1,-6
2160,-8,-18,997,-15,1,-5
2161,-7,-19,997,-14,1,-5
2162,-7,-19,998,-14,2,-6
2163,-8,-19,998,-13,2,-7
2164,-8,-21,998,-14,0,-5
2165,-7,-20,997,-13,2,-6
2166,-6,-18,996,-14,0,-5
2167,-6,-20,998,-13,2,-5
2168,-7,-20,998,-14,1,-6
2169,-6,-17,998,-14,2,-6
2170,-8,-19,997,-13,2,-6
2171,-9,-18,999,-14,0,-6
2172,-6,-17,998,-14,1,-7
2173,-5,-18,997,-15,1,-6
2174,-8,-19,998,-15,1,-6
2175,-8,-19,997,-13,1,-6
2176,-6,-17,996,-14,1,-6
2177,-6,-17,997,-15,1,-6
2178,-6,-21,998,-15,2,-6
2179,-8,-19,997,-12,1,-6
2180,-7,-19,997,-13,0,-4
2181,-8,-19,997,-13,1,-5
2182,-7,-19,998,-15,1,-6
2183,-7,-20,998,-14,1,-7
2184,-6,-18,996,-15,0,-6
2185,-6,-18,996,-14,0,-7
2186,-8,-18,997,-14,0,-5
2187,-8,-19,997,-15,0,-6
2188,-7,-20,996,-14,0,-6
2189,-7,-20,996,-14,2,-6
2190,-8,-19,996,-14,1,-7
2191,-6,-17,995,-15,1,-6
2192,-7,-18,999,-14,1,-6
2193,-7,-20,997,-14,2,-6
2194,-7,-19,999,-15,1,-7
2195,-10,-16,997,-14,1,-7
2196,-8,-19,997,-13,0,-6
2197,-7,-21,998,-14,2,-5
2198,-6,-21,997,-14,1,-5
2199,-4,-21,998,-15,0,-6
2200,-6,-19,997,-14,2,-6
2201,-7,-17,999,-14,0,-5
2202,-8,-19,997,-14,2,-6
2203,-7,-19,998,-13,0,-6
2204,-7,-19,999,-15,0,-6
2205,-6,-18,997,-13,2,-6
2206,-5,-19,997,-15,2,-6
2207,-7,-20,997,-15,1,-6
2208,-6,-20,996,-15,1,-5
2209,-10,-18,997,-14,1,-6
2210,-7,-20,999,-13,1,-6
2211,-8,-18,997,-16,1,-6
2212,-8,-20,999,-15,0,-6
2213,-7,-19,998,-14,0,-6
2214,-6,-18,996,-14,0,-6
2215,-8,-20,999,-14,1,-5
2216,-8,-21,999,-13,1,-6
2217,-8,-20,1000,-14,0,-6
2218,-7,-21,999,-14,0,-6
2219,-8,-20,1000,-13,1,-6
2220,-7,-20,998,-13,2,-6
2221,-7,-21,998,-15,1,-6
2222,-7,-19,999,-13,2,-6
2223,-7,-18,999,-13,2,-6
2224,-6,-20,998,-13,2,-6
2225,-6,-19,998,-15,1,-4
2226,-7,-18,997,-14,2,-5
2227,-6,-19,997,-13,2,-6
2228,-7,-19,998,-13,0,-5
2229,-6,-20,997,-15,2,-5
2230,-8,-18,997,-14,1,-5
2231,-8,-19,997,-15,0,-6
2232,-8,-18,997,-14,1,-6
2233,-6,-17,996,-14,1,-5
2234,-8,-17,995,-13,1,-5
2235,-9,-19,995,-12,1,-6
2236,-9,-20,996,-15,0,-6
2237,-8,-20,995,-13,0,-6
2238,-8,-19,996,-15,1,-6
2239,-7,-18,996,-15,1,-5
2240,-6,-18,997,-15,0,-6
2241,-6,-20,997,-15,1,-5
2242,-9,-20,997,-14,0,-6
2243,-10,-19,998,-15,1,-6
2244,-8,-18,998,-14,2,-6
2245,-5,-18,998,-14,1,-7
2246,-6,-18,998,-14,2,-6
2247,-5,-20,999,-14,1,-5
2248,-7,-17,998,-14,1,-5
2249,-7,-20,998,-14,0,-6
2250,-6,-18,997,-15,0,-7
2251,-5,-19,999,-16,1,-6
2252,-7,-20,997,-13,0,-6
2253,-8,-20,998,-15,-1,-5
2254,-7,-16,997,-14,1,-6
2255,-8,-20,998,-13,0,-6
2256,-7,-19,997,-15,1,-6
2257,-7,-20,998,-13,2,-6
2258,-7,-19,996,-13,1,-5
2259,-7,-18,997,-14,0,-6
2260,-7,-18,996,-14,1,-5
2261,-7,-19,997,-15,1,-5
2262,-7,-19,997,-13,1,-5
2263,-7,-19,996,-15,1,-6
2264,-6,-19,998,-14,0,-6
2265,-8,-18,996,-14,1,-6
2266,-8,-19,998,-14,2,-6
2267,-7,-19,996,-14,0,-6
2268,-6,-17,998,-15,1,-7
2269,-7,-19,998,-15,2,-7
2270,-6,-17,999,-13,1,-6
2271,-7,-18,998,-15,1,-6
2272,-7,-19,998,-15,1,-6
2273,-7,-19,999,-16,0,-6
2274,-8,-21,999,-14,0,-6
2275,-7,-20,999,-14,0,-6
2276,-7,-20,999,-14,0,-5
2277,-5,-19,998,-15,0,-6
2278,-7,-18,998,-14,2,-7
2279,-7,-20,998,-14,0,-7
2280,-6,-20,998,-14,0,-7
2281,-4,-19,998,-14,1,-6
2282,-9,-19,998,-14,1,-6
2283,-8,-20,996,-14,1,-7
2284,-8,-19,998,-14,1,-6
2285,-8,-20,997,-14,1,-5
2286,-6,-20,998,-13,1,-6
2287,-9,-19,997,-15,2,-6
2288,-9,-21,997,-15,1,-6
2289,-7,-19,998,-14,2,-7
2290,-7,-18,997,-14,1,-6
2291,-7,-19,999,-14,1,-6
2292,-8,-20,997,-14,2,-7
2293,-9,-19,998,-14,0,-6
2294,-6,-20,998,-14,1,-5
2295,-6,-19,998,-14,1,-7
2296,-8,-20,999,-13,1,-5
2297,-9,-18,998,-13,0,-5
2298,-7,-20,997,-13,1,-6
2299,-8,-21,997,-14,0,-6
2300,-7,-21,998,-14,2,-6
2301,-8,-18,998,-14,1,-5
2302,-8,-18,998,-13,1,-6
2303,-7,-18,997,-13,2,-6
2304,-7,-18,997,-14,1,-7
2305,-9,-18,996,-14,0,-6
2306,-7,-19,997,-15,1,-7
2307,-8,-18,997,-14,1,-6
2308,-8,-19,999,-14,0,-5
2309,-6,-21,997,-13,0,-6
2310,-6,-18,997,-12,0,-7
2311,-7,-20,997,-14,0,-7
2312,-8,-19,998,-15,0,-7
2313,-8,-19,997,-15,1,-6
2314,-8,-18,998,-13,1,-7
2315,-8,-18,996,-15,0,-5
2316,-5,-20,997,-16,1,-6
2317,-7,-19,999,-13,0,-6
2318,-8,-19,998,-12,0,-5
2319,-8,-20,997,-13,2,-6
2320,-10,-19,997,-14,1,-6
2321,-9,-19,997,-13,1,-6
2322,-6,-19,997,-15,0,-7
2323,-7,-19,997,-14,1,-6
2324,-5,-21,998,-14,1,-7
2325,-7,-19,997,-14,1,-7
2326,-6,-20,998,-15,2,-6
2327,-7,-18,998,-14,1,-7
2328,-6,-19,997,-14,2,-7
2329,-6,-19,997,-13,1,-7
2330,-9,-20,996,-15,1,-6
2331,-7,-19,996,-14,1,-7
2332,-7,-20,996,-14,1,-6
2333,-6,-18,997,-14,0,-6
2334,-7,-19,996,-15,1,-7
2335,-8,-21,997,-14,0,-7
2336,-5,-19,995,-14,1,-6
2337,-7,-19,996,-14,2,-5
2338,-7,-18,997,-15,1,-5
2339,-7,-19,997,-14,2,-6
2340,-6,-20,997,-14,1,-6
2341,-8,-19,1000,-14,1,-7
2342,-7,-17,998,-13,0,-6
2343,-8,-18,999,-14,1,-7
2344,-8,-20,998,-13,2,-7
2345,-8,-20,999,-14,1,-6
2346,-6,-20,996,-14,1,-6
2347,-6,-20,997,-14,1,-6
2348,-6,-19,997,-14,1,-6
2349,-7,-18,998,-13,1,-7
2350,-8,-18,1000,-13,0,-5
2351,-8,-18,999,-14,0,-6
2352,-8,-18,999,-14,1,-6
2353,-9,-18,999,-14,2,-5
2354,-7,-20,999,-15,1,-5
2355,-8,-20,998,-13,0,-7
2356,-5,-20,997,-14,1,-6
2357,-6,-20,997,-14,2,-6
2358,-5,-17,999,-12,1,-6
2359,-9,-17,996,-13,1,-7
2360,-8,-17,997,-14,-1,-6
2361,-9,-18,997,-14,0,-6
2362,-7,-19,996,-14,2,-7
2363,-5,-19,996,-14,0,-6
2364,-6,-20,999,-15,0,-7
2365,-7,-20,998,-15,0,-8
2366,-7,-19,996,-13,0,-6
2367,-5,-19,997,-12,1,-6
2368,-8,-18,997,-17,-5,-7
2369,-8,-18,997,-14,1,-5
2370,-8,-17,999,-15,1,-6
2371,-8,-19,999,-13,0,-7
2372,-8,-19,1000,-14,0,-7
2373,-5,-18,998,-14,1,-7
2374,-8,-18,999,-14,1,-8
2375,-5,-18,999,-15,2,-7
2376,-5,-20,998,-14,0,-5
2377,-5,-18,997,-13,0,-5
2378,-6,-19,998,-13,0,-6
2379,-7,-20,997,-14,1,-6
2380,-8,-20,997,-13,0,-7
2381,-8,-19,998,-14,1,-5
2382,-7,-18,998,-14,1,-6
2383,-8,-19,998,-14,0,-6
2384,-9,-20,997,-13,1,-6
2385,-7,-22,998,-14,0,-6
2386,-8,-19,996,-14,1,-6
2387,-7,-21,996,-15,1,-5
2388,-7,-18,998,-15,0,-5
2389,-7,-19,997,-12,1,-6
2390,-6,-21,997,-13,1,-6
2391,-8,-19,998,-13,1,-7
2392,-6,-19,997,-14,0,-5
2393,-5,-18,996,-15,0,-5
2394,-5,-19,996,-14,0,-6
2395,-7,-19,998,-13,2,-6
2396,-7,-17,997,-14,1,-6
2397,-6,-17,997,-15,1,-6
2398,-6,-20,998,-13,0,-6
2399,-8,-20,997,-13,1,-6
2400,-7,-17,998,-15,0,-6
2401,-7,-18,1000,-14,1,-6
2402,-9,-18,997,-12,1,-6
2403,-8,-18,997,-14,0,-6
2404,-5,-20,998,-13,2,-6
2405,-7,-19,998,-14,0,-7
2406,-9,-20,997,-13,2,-6
2407,-5,-19,997,-15,2,-6
2408,-7,-19,996,-14,2,-7
2409,-8,-19,996,-14,1,-7
2410,-7,-19,996,-13,1,-6
2411,-7,-18,997,-14,0,-6
2412,-8,-18,996,-15,1,-6
2413,-8,-19,998,-13,0,-5
2414,-8,-20,998,-15,1,-5
2415,-6,-20,997,-16,1,-5
2416,-8,-17,997,-15,2,-6
2417,-8,-18,998,-14,1,-7
2418,-7,-22,997,-13,0,-7
2419,-8,-19,996,-13,0,-6
2420,-7,-19,998,-13,1,-6
2421,-8,-17,998,-14,0,-5
2422,-5,-18,998,-15,0,-6
2423,-5,-19,998,-14,0,-7
2424,-6,-18,999,-13,1,-4
2425,-6,-20,997,-14,0,-6
2426,-7,-17,998,-14,0,-7
2427,-8,-20,997,-13,1,-6
2428,-6,-20,999,-13,0,-7
2429,-6,-19,997,-14,0,-8
2430,-6,-17,998,-14,1,-5
2431,-7,-17,997,-14,1,-5
2432,-6,-19,999,-13,2,-7
2433,-6,-19,997,-14,1,-7
2434,-7,-20,997,-15,1,-7
2435,-7,-19,998,-14,1,-6
2436,-7,-18,998,-14,1,-6
2437,-7,-18,997,-12,1,-6
2438,-5,-17,998,-14,0,-7
2439,-6,-19,999,-13,1,-6
2440,-8,-19,998,-14,1,-7
2441,-8,-18,998,-15,1,-6
2442,-8,-19,998,-13,0,-5
2443,-6,-19,997,-14,1,-6
2444,-5,-18,998,-14,1,-6
2445,-7,-20,998,-15,-1,-6
2446,-7,-20,998,-16,1,-6
2447,-7,-20,996,-16,1,-6
2448,-8,-20,998,-13,2,-6
2449,-7,-20,999,-13,1,-5
2450,-7,-21,998,-14,2,-5
2451,-8,-18,999,-13,0,-6
2452,-7,-21,998,-14,0,-6
2453,-6,-19,999,-14,1,-7
2454,-6,-19,999,-15,0,-6
2455,-9,-19,999,-14,1,-6
2456,-8,-19,998,-13,2,-8
2457,-7,-18,998,-14,3,-6
2458,-8,-19,997,-14,2,-6
2459,-9,-17,998,-15,0,-5
2460,-9,-19,998,-15,1,-7
2461,-8,-19,998,-12,1,-6
2462,-8,-18,998,-13,1,-5
2463,-7,-19,997,-14,1,-5
2464,-7,-19,997,-13,1,-6
2465,-7,-19,997,-15,1,-6
2466,-7,-18,996,-14,2,-6
2467,-8,-19,997,-14,2,-6
2468,-6,-19,997,-14,1,-6
2469,-8,-19,996,-14,1,-7
2470,-6,-19,998,-13,1,-6
2471,-7,-19,998,-14,0,-6
2472,-7,-19,999,-13,2,-5
2473,-7,-20,999,-12,1,-4
2474,-7,-20,999,-14,1,-6
2475,-4,-17,999,-14,1,-5
2476,-6,-20,998,-13,1,-7
2477,-6,-21,998,-13,1,-7
2478,-7,-20,999,-14,1,-6
2479,-8,-18,996,-15,0,-5
2480,-10,-19,999,-15,0,-5
2481,-8,-19,999,-13,1,-6
2482,-8,-18,998,-13,0,-7
2483,-8,-19,998,-12,0,-7
2484,-7,-19,998,-13,0,-7
2485,-9,-20,998,-14,1,-6
2486,-8,-18,998,-14,1,-7
2487,-8,-16,998,-14,1,-6
2488,-7,-20,997,-13,2,-6
2489,-7,-18,998,-14,1,-6
2490,-6,-18,999,-14,1,-6
2491,-7,-18,997,-13,1,-6
2492,-9,-20,995,-14,0,-6
2493,-7,-20,997,-11,0,-6
2494,-8,-19,997,-15,0,-4
2495,-7,-20,996,-15,0,-6
2496,-7,-19,999,-14,0,-7
2497,-7,-18,997,-13,0,-7
2498,-6,-20,996,-14,2,-5
2499,-6,-20,998,-14,2,-5
2500,-7,-20,999,-15,1,-6
2501,-8,-21,998,-13,2,-6
2502,-7,-19,998,-13,1,-6
2503,-9,-19,998,-12,1,-6
2504,-8,-19,997,-13,1,-6
2505,-6,-18,997,-14,1,-6
2506,-7,-20,997,-15,1,-6
2507,-9,-20,997,-14,1,-6
2508,-7,-20,997,-15,1,-5
2509,-6,-19,997,-14,1,-6
2510,-6,-18,998,-14,2,-7
2511,-7,-20,996,-16,1,-6
2512,-7,-20,995,-14,2,-5
2513,-7,-17,996,-14,1,-4
2514,-7,-17,998,-14,1,-5
2515,-8,-17,998,-15,2,-7
2516,-7,-19,997,-14,2,-6
2517,-8,-17,997,-15,1,-5
2518,-8,-17,998,-14,2,-6
2519,-8,-17,997,-13,1,-6
2520,-6,-18,997,-14,1,-6
2521,-7,-19,999,-14,0,-6
2522,-6,-20,997,-13,0,-6
2523,-7,-18,997,-14,1,-7
2524,-7,-19,997,-13,1,-6
2525,-8,-18,996,-14,1,-6
2526,-9,-19,996,-14,1,-6
2527,-6,-19,997,-13,1,-6
2528,-8,-20,998,-14,1,-6
2529,-8,-19,998,-14,1,-5
2530,-5,-19,998,-14,1,-5
2531,-6,-19,997,-14,2,-6
2532,-8,-19,998,-14,1,-6
2533,-8,-21,999,-14,0,-6
2534,-8,-21,996,-13,1,-6
2535,-6,-20,997,-14,1,-6
2536,-7,-18,997,-15,0,-6
2537,-6,-18,998,-14,1,-6
2538,-8,-19,997,-15,0,-6
2539,-10,-19,998,-13,0,-6
2540,-8,-20,996,-14,1,-5
2541,-7,-20,997,-16,1,-6
2542,-9,-19,997,-15,1,-6
2543,-8,-20,997,-14,1,-6
2544,-5,-20,998,-14,0,-6
2545,-6,-19,997,-13,2,-6
2546,-7,-20,996,-14,1,-7
2547,-7,-21,996,-12,0,-6
2548,-8,-20,997,-14,-1,-7
2549,-6,-21,996,-14,0,-6
2550,-7,-20,999,-14,1,-7
2551,-8,-20,998,-14,2,-7
2552,-8,-20,998,-14,2,-6
2553,-8,-17,1000,-13,1,-7
2554,-8,-18,997,-15,0,-6
2555,-6,-19,997,-15,1,-6
2556,-5,-18,998,-14,2,-6
2557,-6,-18,998,-14,2,-6
2558,-8,-19,998,-14,1,-6
2559,-7,-20,997,-14,1,-6
2560,-6,-18,996,-14,1,-5
2561,-6,-18,998,-13,1,-5
2562,-7,-20,996,-13,0,-5
2563,-9,-18,999,-14,1,-7
2564,-7,-20,997,-12,1,-6
2565,-7,-21,997,-14,0,-6
2566,-8,-19,997,-14,0,-7
2567,-7,-18,997,-13,1,-7
2568,-6,-18,998,-14,1,-6
2569,-7,-19,997,-14,1,-6
2570,-8,-19,997,-13,0,-7
2571,-8,-19,998,-13,2,-5
2572,-5,-18,997,-13,1,-6
2573,-8,-18,998,-14,1,-6
2574,-6,-18,998,-14,2,-5
2575,-7,-19,996,-14,2,-5
2576,-6,-21,998,-14,2,-6
2577,-6,-20,999,-13,1,-7
2578,-9,-21,997,-13,1,-7
2579,-9,-20,996,-12,0,-6
2580,-7,-18,997,-13,0,-6
2581,-8,-18,998,-14,0,-6
2582,-7,-19,997,-13,0,-6
2583,-4,-19,999,-14,1,-6
2584,-8,-20,1000,-14,1,-7
2585,-5,-21,997,-12,1,-7
2586,-7,-21,998,-15,1,-6
2587,-7,-17,996,-14,1,-6
2588,-6,-19,996,-15,1,-5
2589,-7,-21,997,-16,1,-5
2590,-8,-18,997,-13,1,-6
2591,-6,-20,998,-15,0,-7
2592,-8,-19,1000,-13,0,-6
2593,-7,-18,998,-14,0,-6
2594,-7,-18,998,-15,1,-6
2595,-7,-20,999,-14,1,-6
2596,-7,-19,998,-16,1,-6
2597,-7,-20,997,-14,2,-5
2598,-8,-19,999,-14,1,-6
2599,-6,-20,998,-14,0,-5
2600,-6,-18,998,-13,0,-6
2601,-7,-19,996,-12,1,-5
2602,-5,-19,1000,-14,0,-6
2603,-8,-19,999,-14,0,-5
2604,-7,-19,998,-14,0,-5
2605,-8,-19,996,-14,1,-7
2606,-8,-19,997,-15,1,-6
2607,-8,-20,997,-15,0,-7
2608,-7,-19,999,-14,0,-6
2609,-7,-20,999,-14,2,-6
2610,-9,-19,999,-14,1,-6
2611,-8,-20,999,-15,1,-6
2612,-10,-17,999,-14,1,-6
2613,-8,-20,997,-14,2,-7
2614,-6,-19,998,-14,1,-6
2615,-6,-20,997,-14,2,-6
2616,-7,-20,999,-13,2,-5
2617,-8,-19,999,-14,0,-6
2618,-8,-18,998,-14,2,-6
2619,-9,-18,997,-14,1,-5
2620,-9,-19,998,-13,2,-7
2621,-9,-18,998,-14,1,-6
2622,-8,-20,997,-13,0,-6
2623,-8,-19,997,-14,1,-5
2624,-7,-21,997,-15,0,-6
2625,-5,-20,996,-13,2,-5
2626,-6,-19,996,-14,1,-6
2627,-7,-19,996,-14,1,-7
2628,-8,-17,997,-14,1,-6
2629,-8,-17,997,-14,1,-6
2630,-7,-18,995,-14,1,-6
2631,-8,-18,995,-15,-1,-7
2632,-9,-18,997,-14,0,-6
2633,-8,-17,997,-15,0,-6
2634,-7,-19,997,-14,0,-4
2635,-7,-19,997,-14,1,-5
2636,-8,-18,998,-15,1,-6
2637,-7,-19,998,-14,1,-7
2638,-7,-17,997,-13,1,-6
2639,-9,-20,997,-13,2,-6
2640,-8,-20,998,-15,2,-6
2641,-8,-20,998,-14,1,-7
2642,-7,-18,998,-14,1,-6
2643,-6,-20,998,-14,1,-5
2644,-9,-19,996,-14,0,-6
2645,-6,-19,997,-14,2,-6
2646,-8,-19,999,-14,2,-6
2647,-7,-21,998,-13,2,-5
2648,-9,-19,998,-12,1,-6
2649,-9,-19,998,-13,0,-6
2650,-6,-19,997,-14,0,-6
2651,-7,-19,996,-14,0,-6
2652,-7,-20,997,-13,1,-5
2653,-7,-19,996,-14,1,-6
2654,-6,-20,996,-14,1,-6
2655,-7,-20,998,-15,1,-6
2656,-9,-18,997,-15,0,-6
2657,-8,-18,998,-13,0,-6
2658,-9,-19,997,-14,2,-6
2659,-7,-19,997,-15,2,-6
2660,-5,-20,997,-15,2,-6
2661,-5,-19,997,-15,2,-6
2662,-8,-20,999,-13,1,-6
2663,-7,-19,998,-15,0,-7
2664,-6,-19,998,-14,1,-6
2665,-8,-19,997,-14,1,-6
2666,-7,-17,999,-13,1,-6
2667,-9,-19,999,-13,2,-5
2668,-7,-18,999,-14,1,-5
2669,-6,-20,998,-15,1,-5
2670,-7,-21,998,-16,1,-6
2671,-8,-19,996,-13,0,-5
2672,-9,-19,996,-13,2,-5
2673,-6,-18,996,-13,2,-6
2674,-8,-18,996,-13,1,-6
2675,-7,-18,998,-13,0,-6
2676,-5,-20,998,-12,0,-6
2677,-7,-18,997,-14,1,-6
2678,-6,-17,999,-14,1,-6
2679,-6,-18,997,-13,3,-6
2680,-7,-19,998,-13,2,-5
2681,-7,-19,997,-13,0,-7
2682,-7,-18,999,-14,0,-6
2683,-7,-19,999,-15,1,-5
2684,-7,-19,998,-15,0,-6
2685,-7,-19,997,-14,1,-5
2686,-7,-20,996,-14,2,-5
2687,-8,-20,998,-14,2,-6
2688,-8,-18,998,-15,1,-6
2689,-8,-18,999,-16,2,-6
2690,-7,-20,998,-13,1,-5
2691,-6,-19,999,-13,2,-5
2692,-6,-19,998,-14,0,-7
2693,-6,-19,998,-14,1,-5
2694,-6,-19,998,-14,0,-6
2695,-5,-21,999,-13,1,-7
2696,-6,-20,998,-13,1,-6
2697,-7,-19,998,-13,0,-6
2698,-6,-21,996,-13,0,-6
2699,-9,-18,997,-13,-1,-7
2700,-7,-18,997,-14,1,-5
2701,-6,-18,997,-13,3,-6
2702,-7,-19,998,-14,3,-5
2703,-7,-18,999,-15,1,-5
2704,-8,-19,998,-14,1,-6
2705,-6,-19,997,-14,2,-7
2706,-7,-20,998,-14,1,-7
2707,-6,-20,998,-13,1,-6
2708,-5,-19,997,-14,1,-5
2709,-6,-21,997,-14,1,-6
2710,-8,-18,997,-14,1,-6
2711,-7,-19,996,-15,0,-7
2712,-5,-19,997,-14,0,-5
2713,-6,-20,997,-16,-1,-6
2714,-5,-20,995,-14,1,-7
2715,-6,-19,996,-14,2,-6
2716,-6,-20,998,-15,2,-6
2717,-6,-20,997,-13,0,-6
2718,-5,-19,997,-14,1,-6
2719,-5,-18,996,-14,2,-6
2720,-6,-20,995,-12,0,-6
2721,-5,-18,996,-14,1,-7
2722,-8,-18,998,-13,0,-6
2723,-7,-18,997,-12,0,-6
2724,-8,-19,998,-14,-1,-7
2725,-9,-19,996,-15,0,-6
2726,-6,-21,997,-16,1,-6
2727,-7,-21,995,-15,1,-6
2728,-6,-19,997,-15,0,-7
2729,-4,-20,997,-14,0,-6
2730,-7,-20,998,-14,0,-6
2731,-10,-19,998,-14,1,-5
2732,-8,-18,999,-14,1,-6
2733,-9,-18,998,-13,2,-6
2734,-9,-19,999,-14,1,-5
2735,-7,-20,998,-13,0,-5
2736,-7,-20,997,-13,1,-6
2737,-7,-21,998,-13,0,-6
2738,-7,-20,996,-14,0,-5
2739,-6,-19,997,-14,1,-6
2740,-5,-17,998,-14,2,-6
2741,-7,-18,998,-14,1,-6
2742,-8,-18,998,-14,0,-8
2743,-9,-20,998,-14,0,-6
2744,-9,-20,997,-14,1,-5
2745,-8,-20,998,-13,1,-6
2746,-7,-20,996,-14,0,-6
2747,-6,-20,997,-14,2,-6
2748,-6,-20,998,-14,0,-7
2749,-6,-19,997,-14,1,-7
2750,-8,-19,997,-15,1,-6
2751,-9,-18,999,-14,1,-6
2752,-9,-17,997,-15,1,-6
2753,-10,-18,998,-14,0,-6
2754,-9,-18,1000,-14,0,-6
2755,-7,-17,999,-15,1,-7
2756,-6,-20,999,-14,1,-7
2757,-5,-19,998,-13,1,-7
2758,-6,-21,999,-14,0,-7
2759,-7,-21,1000,-13,1,-6
2760,-8,-20,1000,-13,2,-6
2761,-7,-18,999,-13,1,-7
2762,-7,-18,998,-14,0,-6
2763,-7,-18,998,-14,1,-5
2764,-9,-19,1000,-13,0,-4
2765,-5,-20,999,-15,0,-6
2766,-6,-21,996,-15,1,-6
2767,-6,-22,998,-15,1,-6
2768,-8,-19,998,-14,2,-6
2769,-7,-21,996,-13,2,-6
2770,-8,-19,997,-15,2,-5
2771,-8,-18,997,-15,0,-6
2772,-8,-18,996,-12,1,-7
2773,-7,-17,997,-14,1,-6
2774,-7,-19,996,-14,0,-5
2775,-6,-18,996,-15,0,-5
2776,-6,-18,998,-15,0,-6
2777,-8,-19,997,-14,1,-6
2778,-5,-18,997,-14,1,-7
2779,-7,-20,996,-12,1,-5
2780,-8,-18,998,-14,-1,-6
2781,-8,-18,997,-14,0,-6
2782,-7,-19,997,-15,0,-6
2783,-7,-18,998,-14,0,-7
2784,-6,-19,999,-13,1,-6
2785,-7,-18,998,-15,1,-6
2786,-6,-19,997,-15,1,-6
2787,-9,-19,998,-15,1,-5
2788,-7,-22,998,-14,2,-5
2789,-6,-19,999,-14,1,-5
2790,-6,-18,998,-14,0,-5
2791,-7,-18,999,-15,1,-7
2792,-7,-18,997,-14,1,-5
2793,-7,-18,997,-14,1,-6
2794,-5,-18,996,-15,2,-6
2795,-7,-18,997,-14,1,-7
2796,-6,-18,998,-12,0,-5
2797,-7,-20,997,-14,1,-5
2798,-7,-19,998,-14,0,-6
2799,-9,-19,998,-15,1,-6
2800,-9,-20,997,-14,0,-5
2801,-8,-18,997,-13,2,-6
2802,-7,-17,996,-13,1,-5
2803,-6,-19,997,-13,2,-6
2804,-8,-17,997,-14,2,-5
2805,-8,-17,997,-15,-1,-6
2806,-7,-19,998,-14,0,-6
2807,-7,-20,997,-13,1,-6
2808,-7,-20,997,-13,0,-6
2809,-7,-19,997,-14,3,-7
2810,-6,-20,998,-13,1,-5
2811,-6,-19,999,-15,0,-7
2812,-7,-19,998,-16,0,-7
2813,-6,-19,997,-16,1,-7
2814,-8,-20,997,-13,0,-6
2815,-8,-19,998,-14,1,-6
2816,-7,-20,999,-14,1,-5
2817,-6,-18,998,-14,0,-6
2818,-5,-21,998,-13,1,-5
2819,-8,-19,998,-13,0,-6
2820,-6,-19,999,-15,2,-6
2821,-8,-19,998,-13,1,-6
2822,-7,-18,998,-14,1,-6
2823,-7,-17,997,-13,1,-6
2824,-6,-18,996,-14,1,-5
2825,-8,-18,998,-15,2,-6
2826,-9,-18,999,-14,1,-6
2827,-7,-21,997,-14,1,-7
2828,-6,-19,998,-13,1,-7
2829,-7,-21,996,-14,1,-6
2830,-6,-20,997,-15,0,-6
2831,-6,-19,996,-14,0,-5
2832,-8,-20,996,-14,0,-6
2833,-6,-18,998,-13,1,-5
2834,-8,-19,997,-14,1,-6
2835,-6,-19,998,-13,0,-6
2836,-5,-19,998,-14,1,-5
2837,-7,-19,999,-13,1,-6
2838,-7,-19,997,-14,1,-6
2839,-7,-17,997,-14,0,-8
2840,-6,-19,999,-14,-1,-7
2841,-7,-19,997,-15,1,-6
2842,-7,-20,997,-14,1,-5
2843,-5,-19,997,-15,1,-5
2844,-6,-18,997,-14,1,-6
2845,-7,-19,996,-13,1,-6
2846,-6,-19,997,-15,1,-6
2847,-7,-19,996,-15,1,-6
2848,-6,-18,997,-14,0,-7
2849,-8,-19,999,-15,0,-6
2850,-8,-18,999,-14,1,-6
2851,-8,-19,998,-14,1,-6
2852,-7,-18,997,-15,0,-6
2853,-7,-18,996,-14,2,-6
2854,-7,-20,996,-13,2,-6
2855,-8,-21,999,-14,1,-6
2856,-6,-21,998,-14,1,-6
2857,-6,-19,997,-14,1,-6
2858,-7,-19,997,-15,2,-6
2859,-7,-21,998,-14,2,-6
2860,-6,-19,999,-13,1,-6
2861,-8,-19,997,-13,0,-6
2862,-7,-20,997,-13,1,-6
2863,-7,-21,997,-15,0,-6
2864,-7,-18,997,-15,1,-6
2865,-5,-20,997,-15,0,-7
2866,-5,-19,996,-14,0,-6
2867,-7,-18,996,-15,1,-5
2868,-7,-18,997,-13,1,-6
2869,-8,-19,998,-15,1,-7
2870,-8,-20,999,-14,1,-7
2871,-8,-19,997,-12,1,-6
2872,-7,-22,996,-13,0,-7
2873,-7,-19,999,-13,1,-7
2874,-6,-17,996,-13,1,-6
2875,-8,-17,997,-14,0,-5
2876,-8,-18,997,-13,0,-6
2877,-8,-20,998,-13,1,-5
2878,-9,-19,997,-14,0,-6
2879,-6,-18,999,-13,1,-6
2880,-4,-20,997,-14,0,-5
2881,-6,-20,997,-13,0,-5
2882,-5,-20,998,-14,0,-6
2883,-10,-20,998,-14,1,-6
2884,-9,-19,997,-14,1,-6
2885,-8,-19,998,-14,-1,-6
2886,-7,-19,998,-13,0,-7
2887,-7,-21,998,-15,1,-6
2888,-7,-19,998,-13,0,-5
2889,-9,-21,998,-13,0,-5
2890,-7,-19,998,-14,0,-5
2891,-7,-19,999,-13,1,-5
2892,-7,-19,998,-14,1,-5
2893,-7,-18,997,-15,0,-6
2894,-9,-19,998,-13,1,-6
2895,-6,-20,997,-15,2,-5
2896,-10,-19,996,-13,2,-7
2897,-9,-18,996,-13,1,-7
2898,-8,-19,997,-14,1,-6
2899,-6,-18,999,-14,1,-6
2900,-8,-18,999,-15,1,-6
2901,-6,-21,998,-13,1,-6
2902,-6,-20,998,-13,1,-7
2903,-8,-19,999,-14,3,-6
2904,-8,-19,997,-14,1,-6
2905,-8,-19,998,-14,1,-5
2906,-9,-18,998,-14,1,-6
2907,-7,-19,998,-14,0,-6
2908,-6,-19,996,-14,1,-5
2909,-8,-20,996,-12,0,-6
2910,-8,-19,997,-14,-1,-7
2911,-6,-20,998,-13,0,-6
2912,-8,-18,998,-15,2,-6
2913,-7,-19,997,-14,0,-6
2914,-9,-19,997,-15,-1,-7
2915,-6,-20,997,-14,0,-7
2916,-8,-20,998,-14,1,-6
2917,-9,-18,998,-13,1,-6
2918,-6,-19,998,-13,0,-7
2919,-7,-21,998,-14,0,-6
2920,-5,-20,997,-16,0,-5
2921,-5,-18,997,-14,1,-6
2922,-6,-19,996,-14,2,-5
2923,-8,-19,997,-13,1,-6
2924,-7,-18,997,-14,1,-6
2925,-8,-18,998,-14,1,-5
2926,-7,-19,996,-14,1,-5
2927,-8,-19,996,-14,0,-5
2928,-6,-21,998,-13,0,-6
2929,-7,-19,997,-13,2,-7
2930,-8,-19,998,-15,1,-6
2931,-8,-18,997,-14,0,-7
2932,-8,-18,998,-15,0,-6
2933,-7,-20,997,-15,0,-6
2934,-6,-20,997,-15,2,-6
2935,-6,-19,998,-14,1,-6
2936,-8,-19,997,-14,0,-7
2937,-7,-19,998,-13,0,-7
2938,-6,-20,997,-13,1,-7
2939,-8,-19,998,-14,1,-6
2940,-8,-18,997,-14,1,-6
2941,-6,-18,997,-14,0,-5
2942,-8,-19,998,-15,1,-5
2943,-7,-18,997,-14,0,-5
2944,-7,-19,997,-14,1,-7
2945,-7,-21,997,-14,1,-5
2946,-7,-19,996,-14,0,-5
2947,-7,-19,999,-13,1,-6
2948,-6,-18,999,-13,0,-6
2949,-9,-17,997,-13,2,-7
2950,-6,-18,997,-13,1,-8
2951,-7,-18,997,-12,1,-6
2952,-7,-19,998,-12,1,-5
2953,-6,-18,996,-12,0,-7
2954,-6,-18,996,-14,2,-6
2955,-8,-18,997,-16,1,-6
2956,-8,-19,998,-14,1,-5
2957,-7,-19,998,-14,1,-6
2958,-8,-19,999,-14,2,-7
2959,-7,-18,998,-13,1,-8
2960,-6,-18,997,-15,1,-6
2961,-7,-19,998,-14,0,-6
2962,-6,-19,996,-14,1,-6
2963,-9,-19,998,-15,0,-7
2964,-5,-21,998,-13,1,-6
2965,-7,-19,998,-14,0,-7
2966,-6,-18,997,-15,1,-6
2967,-7,-19,997,-13,1,-7
2968,-8,-19,997,-15,0,-7
2969,-8,-18,997,-14,0,-6
2970,-7,-19,998,-15,1,-6
2971,-6,-22,996,-14,2,-6
2972,-7,-20,997,-14,1,-6
2973,-8,-19,996,-14,0,-7
2974,-6,-19,996,-14,0,-6
2975,-6,-20,997,-14,0,-6
2976,-8,-19,998,-14,0,-6
2977,-5,-19,999,-13,0,-8
2978,-6,-18,998,-14,0,-7
2979,-7,-19,998,-14,1,-6
2980,-8,-20,998,-14,1,-6
2981,-7,-18,998,-13,2,-6
2982,-7,-20,998,-13,0,-6
2983,-9,-20,998,-13,1,-7
2984,-8,-18,999,-13,2,-7
2985,-7,-18,998,-13,0,-6
2986,-7,-19,999,-14,0,-6
2987,-7,-19,999,-14,0,-7
2988,-6,-19,996,-14,1,-6
2989,-7,-18,997,-14,1,-6
2990,-8,-19,999,-15,0,-6
2991,-7,-19,998,-15,1,-6
2992,-7,-19,998,-15,1,-5
2993,-8,-19,996,-15,1,-6
2994,-8,-18,998,-15,1,-7
2995,-10,-18,998,-14,1,-6
2996,-7,-19,998,-13,1,-6
2997,-7,-18,999,-14,1,-6
2998,-7,-20,998,-15,1,-6
2999,-9,-20,997,-15,0,-6
3000,-9,-17,998,-14,1,-6
3001,-8,-20,997,-13,2,-6
3002,-7,-18,997,-14,1,-6
3003,-10,-20,998,-15,1,-6
3004,-9,-20,997,-14,0,-6
3005,-7,-19,998,-14,0,-8
3006,-7,-19,999,-14,-1,-6
3007,-7,-18,998,-14,0,-6
3008,-7,-18,998,-14,1,-5
3009,-9,-19,1000,-14,1,-5
3010,-7,-19,996,-13,2,-6
3011,-5,-18,997,-13,1,-6
3012,-6,-19,998,-13,1,-6
3013,-6,-19,996,-14,1,-6
3014,-7,-19,998,-14,1,-7
3015,-6,-20,998,-14,2,-6
3016,-8,-18,1000,-12,2,-6
3017,-9,-18,997,-13,1,-6
3018,-7,-19,997,-12,1,-6
3019,-7,-18,998,-13,1,-6
3020,-6,-19,996,-14,0,-7
3021,-7,-19,998,-14,1,-7
3022,-5,-21,998,-15,1,-6
3023,-7,-20,997,-15,1,-6
3024,-7,-18,997,-13,0,-6
3025,-7,-20,997,-13,0,-7
3026,-6,-19,997,-13,1,-7
3027,-6,-19,997,-14,0,-6
3028,-6,-18,997,-15,0,-5
3029,-5,-19,999,-12,1,-5
3030,-6,-19,999,-14,1,-6
3031,-7,-20,998,-14,1,-6
3032,-6,-20,996,-14,1,-6
3033,-7,-19,996,-15,1,-6
3034,-7,-18,997,-14,1,-6
3035,-7,-19,996,-15,1,-6
3036,-7,-19,997,-15,2,-4
3037,-6,-19,998,-15,1,-6
3038,-6,-19,997,-14,2,-6
3039,-8,-17,996,-16,2,-5
3040,-7,-18,997,-10,-4,-8
3041,-8,-18,997,-13,-1,-7
3042,-8,-20,998,-15,0,-6
3043,-6,-19,998,-13,2,-7
3044,-5,-19,999,-14,1,-6
3045,-6,-19,999,-14,1,-6
3046,-6,-19,997,-13,0,-6
3047,-7,-19,998,-16,1,-6
3048,-8,-20,997,-13,1,-7
3049,-8,-20,996,-15,1,-6
3050,-6,-20,998,-12,0,-7
3051,-5,-18,997,-13,0,-5
3052,-8,-20,1000,-16,1,-6
3053,-7,-17,997,-15,2,-6
3054,-8,-17,999,-15,1,-5
3055,-10,-19,998,-13,1,-5
3056,-9,-19,997,-14,2,-6
3057,-8,-19,997,-16,1,-7
3058,-9,-20,998,-14,1,-6
3059,-8,-20,997,-13,1,-7
3060,-6,-19,996,-13,0,-6
3061,-6,-18,997,-14,1,-7
3062,-6,-16,999,-14,0,-6
3063,-8,-19,999,-13,2,-7
3064,-10,-19,999,-15,0,-6
3065,-7,-20,998,-14,1,-5
3066,-8,-20,997,-13,-1,-5
3067,-7,-19,999,-14,1,-5
3068,-7,-18,998,-13,0,-7
3069,-8,-20,997,-14,0,-7
3070,-5,-21,998,-14,1,-6
3071,-6,-20,999,-14,2,-6
3072,-7,-21,998,-14,1,-6
3073,-9,-19,1000,-13,1,-6
3074,-7,-19,999,-14,0,-6
3075,-8,-18,999,-13,1,-5
3076,-5,-18,999,-14,1,-5
3077,-5,-18,998,-13,1,-6
3078,-7,-19,998,-13,1,-5
3079,-5,-18,998,-13,2,-6
3080,-8,-20,997,-15,1,-6
3081,-9,-21,999,-13,1,-6
3082,-10,-20,997,-13,1,-6
3083,-7,-20,998,-14,0,-5
3084,-6,-20,997,-15,0,-5
3085,-7,-19,996,-14,0,-6
3086,-7,-20,997,-14,1,-5
3087,-6,-19,998,-14,2,-6
3088,-6,-21,996,-15,1,-6
3089,-8,-19,998,-15,1,-5
3090,-8,-20,998,-15,0,-6
3091,-6,-18,999,-14,1,-6
3092,-7,-20,998,-14,1,-6
3093,-6,-19,999,-13,0,-7
3094,-7,-19,999,-14,0,-5
3095,-7,-18,997,-13,1,-6
3096,-6,-19,999,-15,2,-5
3097,-7,-18,1000,-13,0,-6
3098,-6,-19,999,-12,1,-5
3099,-6,-20,997,-13,1,-5
3100,-6,-19,996,-12,1,-6
3101,-7,-20,997,-13,1,-6
3102,-8,-18,996,-14,2,-6
3103,-8,-18,999,-14,1,-5
3104,-9,-17,997,-14,1,-6
3105,-7,-16,998,-14,0,-6
3106,-7,-18,995,-14,1,-6
3107,-7,-17,996,-13,-1,-6
3108,-6,-18,996,-15,0,-6
3109,-7,-20,996,-13,0,-6
3110,-6,-19,997,-14,1,-5
3111,-9,-19,996,-13,1,-6
3112,-6,-19,995,-14,1,-6
3113,-9,-19,997,-14,1,-5
3114,-8,-18,996,-13,1,-6
3115,-7,-17,997,-13,0,-7
3116,-8,-17,997,-14,0,-7
3117,-8,-19,998,-13,1,-6
3118,-5,-20,996,-14,1,-6
3119,-5,-21,995,-14,1,-6
3120,-5,-19,996,-12,2,-5
3121,-5,-16,998,-14,0,-7
3122,-5,-14,1000,-15,1,-5
3123,-6,-15,1002,-14,1,-7
3124,-8,-18,999,-15,1,-6
3125,-11,-20,997,-15,1,-7
3126,-12,-23,997,-14,1,-6
3127,-7,-24,995,-13,1,-5
3128,0,-21,997,-15,0,-5
3129,0,-18,999,-13,1,-5
3130,-1,-15,999,-12,1,-5
3131,-9,-14,999,-14,2,-6
3132,-16,-17,1000,-13,2,-5
3133,-16,-16,999,-15,2,-7
3134,-12,-16,995,-15,1,-7
3135,-5,-20,995,-15,-1,-6
3136,0,-22,996,-15,-1,-7
3137,-2,-19,996,-13,2,-7
3138,-5,-20,996,-13,2,-6
3139,-11,-18,996,-13,2,-5
3140,-11,-17,997,-13,2,-7
3141,-11,-17,996,-15,1,-6
3142,-7,-15,997,-14,1,-6
3143,-4,-19,997,-14,0,-6
3144,-6,-22,996,-14,0,-6
3145,-4,-22,997,-15,2,-5
3146,-7,-26,999,-16,1,-6
3147,-7,-20,997,-13,0,-6
3148,-7,-18,999,-14,2,-6
3149,-6,-16,999,-14,2,-7
3150,-7,-16,999,-13,1,-6
3151,-6,-19,998,-15,2,-6
3152,-8,-20,999,-13,1,-7
3153,-8,-21,998,-14,-1,-6
3154,-8,-20,997,-14,1,-6
3155,-6,-19,996,-14,-1,-6
3156,-7,-16,997,-15,2,-7
3157,-6,-15,998,-13,1,-7
3158,-7,-16,998,-14,1,-5
3159,-10,-19,997,-14,1,-7
3160,-10,-22,997,-13,2,-6
3161,-8,-22,995,-15,2,-5
3162,-7,-20,998,-13,0,-6
3163,-8,-18,999,-13,1,-6
3164,-6,-16,998,-13,1,-6
3165,-4,-16,998,-15,1,-6
3166,-5,-21,998,-15,0,-6
3167,-7,-22,999,-14,2,-6
3168,-8,-23,999,-15,3,-6
3169,-7,-21,998,-13,1,-7
3170,-6,-18,999,-14,2,-7
3171,-7,-18,999,-13,0,-7
3172,-5,-18,999,-14,1,-6
3173,-6,-19,1000,-15,1,-7
3174,-7,-19,997,-14,1,-7
3175,-6,-19,998,-13,0,-6
3176,-6,-21,999,-13,1,-6
3177,-7,-20,997,-13,2,-7
3178,-5,-20,998,-14,1,-7
3179,-7,-18,1000,-14,0,-6
3180,-6,-18,997,-13,0,-6
3181,-6,-19,996,-14,2,-6
3182,-5,-19,996,-14,1,-6
3183,-6,-20,996,-14,1,-6
3184,-7,-21,997,-14,0,-6
3185,-7,-18,997,-13,1,-7
3186,-7,-18,997,-14,1,-6
3187,-7,-19,996,-13,1,-5
3188,-8,-18,997,-13,1,-5
3189,-9,-19,996,-15,1,-6
3190,-7,-18,998,-15,0,-5
3191,-8,-19,998,-13,-1,-6
3192,-8,-18,997,-14,2,-6
3193,-8,-19,997,-14,1,-7
3194,-9,-18,998,-14,1,-5
3195,-8,-19,998,-13,2,-6
3196,-5,-19,998,-14,1,-6
3197,-6,-20,997,-15,0,-6
3198,-7,-20,998,-14,1,-6
3199,-5,-21,997,-13,0,-5
3200,-7,-19,999,-14,1,-6
3201,-6,-21,998,-13,1,-6
3202,-6,-20,997,-13,1,-5
3203,-5,-19,997,-14,1,-6
3204,-9,-19,996,-13,0,-5
3205,-7,-20,998,-13,2,-6
3206,-6,-20,997,-14,1,-6
3207,-7,-18,996,-13,0,-6
3208,-6,-19,996,-13,1,-6
3209,-6,-18,998,-14,1,-6
3210,-6,-19,998,-14,-1,-6
3211,-9,-18,996,-13,0,-5
3212,-7,-18,997,-14,1,-6
3213,-9,-19,997,-14,0,-7
3214,-8,-20,998,-14,1,-7
3215,-9,-20,996,-13,1,-6
3216,-7,-18,997,-14,1,-6
3217,-7,-18,997,-15,0,-7
3218,-6,-20,998,-14,1,-6
3219,-8,-20,998,-14,1,-6
3220,-7,-20,999,-14,2,-7
3221,-6,-18,998,-14,0,-8
3222,-6,-21,998,-14,1,-7
3223,-4,-19,998,-14,0,-7
3224,-5,-17,998,-16,1,-6
3225,-7,-20,997,-15,2,-6
3226,-6,-20,997,-14,2,-5
3227,-6,-19,998,-15,2,-6
3228,-8,-19,999,-13,1,-6
3229,-6,-21,997,-14,0,-6
3230,-7,-21,999,-15,0,-6
3231,-6,-20,998,-14,1,-6
3232,-8,-18,997,-14,0,-6
3233,-8,-18,1000,-14,1,-6
3234,-7,-18,997,-13,1,-6
3235,-6,-18,997,-13,1,-7
3236,-7,-19,997,-14,1,-6
3237,-9,-19,997,-14,1,-7
3238,-6,-20,996,-13,1,-6
3239,-9,-20,996,-14,2,-5
3240,-7,-18,997,-13,1,-6
3241,-8,-19,997,-12,0,-6
3242,-5,-16,998,-12,1,-6
3243,-5,-19,998,-14,0,-6
3244,-7,-19,996,-15,1,-7
3245,-7,-19,997,-13,2,-6
3246,-8,-19,998,-14,1,-5
3247,-8,-19,998,-13,1,-5
3248,-6,-17,999,-14,1,-6
3249,-6,-19,998,-14,1,-6
3250,-6,-20,998,-14,1,-6
3251,-7,-19,998,-15,0,-6
3252,-6,-20,999,-15,2,-5
3253,-7,-20,998,-15,1,-5
3254,-7,-20,999,-13,1,-7
3255,-6,-18,998,-13,1,-7
3256,-6,-19,997,-13,0,-6
3257,-7,-20,998,-13,1,-6
3258,-6,-18,997,-13,1,-6
3259,-7,-20,998,-14,1,-5
3260,-7,-18,996,-13,1,-5
3261,-8,-18,996,-14,1,-5
3262,-7,-19,996,-14,0,-6
3263,-7,-19,996,-14,1,-6
3264,-7,-19,997,-14,1,-6
3265,-8,-17,996,-13,2,-6
3266,-7,-18,998,-13,2,-5
3267,-10,-18,998,-14,0,-6
3268,-8,-19,997,-14,0,-7
3269,-8,-20,996,-13,0,-6
3270,-10,-18,996,-14,0,-5
3271,-7,-17,998,-15,1,-6
3272,-9,-19,998,-15,0,-6
3273,-7,-18,999,-15,0,-6
3274,-6,-19,998,-14,0,-7
3275,-6,-20,999,-15,1,-6
3276,-7,-19,999,-14,1,-7
3277,-8,-19,999,-14,1,-6
3278,-5,-19,998,-14,1,-6
3279,-6,-22,999,-14,1,-6
3280,-6,-19,999,-13,1,-7
3281,-5,-21,998,-15,2,-5
3282,-5,-20,999,-16,1,-5
3283,-6,-19,997,-14,1,-5
3284,-7,-20,997,-14,1,-6
3285,-8,-20,997,-15,1,-7
3286,-7,-21,997,-14,2,-6
3287,-7,-18,998,-13,1,-5
3288,-5,-18,996,-14,0,-6
3289,-7,-18,997,-14,1,-6
3290,-8,-19,997,-14,1,-7
3291,-7,-18,997,-14,0,-5
3292,-8,-19,996,-13,1,-6
3293,-7,-19,999,-15,1,-7
3294,-7,-18,998,-14,1,-6
3295,-7,-19,996,-15,0,-6
3296,-8,-19,996,-14,0,-6
3297,-9,-19,997,-14,0,-7
3298,-7,-18,997,-14,0,-6
3299,-7,-20,998,-12,1,-5
3300,-7,-20,998,-14,2,-6
3301,-7,-18,998,-14,1,-7
3302,-7,-19,998,-13,0,-6
3303,-5,-20,999,-13,1,-6
3304,-6,-18,999,-13,2,-6
3305,-7,-19,997,-14,1,-6
3306,-8,-20,996,-13,0,-5
3307,-7,-19,997,-14,1,-6
3308,-6,-19,997,-14,1,-7
3309,-6,-20,997,-15,1,-6
3310,-8,-18,996,-13,0,-6
3311,-7,-20,996,-13,1,-6
3312,-8,-22,996,-11,2,-5
3313,-8,-19,998,-14,1,-6
3314,-7,-18,997,-15,0,-7
3315,-7,-19,998,-14,1,-6
3316,-8,-19,996,-14,1,-5
3317,-9,-21,996,-14,2,-6
3318,-9,-18,997,-14,1,-6
3319,-8,-17,998,-14,1,-7
3320,-8,-17,998,-14,0,-7
3321,-9,-20,999,-13,1,-5
3322,-7,-17,997,-14,0,-7
3323,-8,-20,998,-14,1,-7
3324,-7,-20,998,-13,1,-6
3325,-6,-19,997,-14,0,-6
3326,-6,-19,1000,-14,1,-6
3327,-8,-18,997,-14,0,-7
3328,-8,-20,997,-13,0,-7
3329,-8,-19,999,-12,1,-5
3330,-8,-21,996,-13,1,-6
3331,-8,-20,997,-13,0,-7
3332,-6,-19,998,-14,0,-7
3333,-7,-20,998,-14,1,-6
3334,-7,-19,999,-14,1,-6
3335,-7,-18,998,-14,0,-6
3336,-7,-19,998,-13,2,-7
3337,-7,-18,998,-13,2,-5
3338,-5,-18,997,-14,2,-6
3339,-7,-19,996,-13,1,-6
3340,-7,-19,995,-15,1,-5
3341,-8,-19,995,-14,1,-6
3342,-7,-18,995,-13,1,-6
3343,-7,-18,996,-14,0,-5
3344,-7,-18,998,-14,1,-6
3345,-7,-18,999,-14,1,-6
3346,-6,-17,998,-14,0,-5
3347,-7,-19,997,-13,1,-6
3348,-7,-20,997,-13,0,-6
3349,-7,-19,996,-15,-1,-7
3350,-7,-19,997,-14,1,-6
3351,-6,-20,998,-13,2,-6
3352,-6,-18,998,-14,2,-6
3353,-7,-17,999,-13,0,-5
3354,-5,-19,999,-14,1,-5
3355,-5,-18,998,-13,1,-6
3356,-6,-19,999,-15,1,-5
3357,-5,-19,997,-14,1,-6
3358,-5,-19,998,-14,0,-6
3359,-6,-19,999,-14,1,-6
3360,-9,-20,999,-13,0,-7
3361,-8,-19,996,-14,0,-5
3362,-9,-20,996,-14,-1,-7
3363,-7,-21,997,-13,0,-7
3364,-6,-19,996,-13,0,-6
3365,-8,-19,995,-14,0,-5
3366,-7,-18,998,-15,0,-6
3367,-8,-19,998,-15,0,-6
3368,-7,-20,996,-14,0,-6
3369,-6,-19,997,-15,-1,-6
3370,-7,-19,998,-13,1,-6
3371,-7,-20,997,-15,1,-6
3372,-7,-19,997,-13,0,-6
3373,-8,-18,997,-15,1,-7
3374,-7,-19,997,-12,0,-7
3375,-6,-19,998,-16,8,-4
3376,-8,-18,997,-13,5,-4
3377,-8,-19,997,-15,1,-6
3378,-8,-19,998,-15,1,-6
3379,-5,-19,998,-15,-1,-7
3380,-6,-20,999,-14,1,-6
3381,-7,-20,998,-15,0,-5
3382,-8,-20,999,-15,1,-7
3383,-9,-20,996,-13,0,-6
3384,-8,-19,999,-13,1,-6
3385,-8,-18,997,-13,2,-7
3386,-8,-19,998,-14,1,-7
3387,-8,-17,998,-14,3,-5
3388,-6,-19,999,-14,1,-6
3389,-8,-19,998,-13,1,-6
3390,-8,-20,999,-13,0,-6
3391,-8,-19,999,-13,0,-6
3392,-8,-20,998,-14,1,-6
3393,-6,-21,997,-14,1,-5
3394,-6,-19,998,-13,1,-6
3395,-5,-18,998,-14,1,-6
3396,-8,-17,998,-14,1,-7
3397,-7,-19,997,-14,1,-6
3398,-6,-20,999,-15,0,-6
3399,-5,-19,999,-13,0,-6
3400,-7,-20,996,-16,0,-6
3401,-7,-19,996,-14,1,-6
3402,-7,-20,999,-12,1,-7
3403,-8,-19,999,-14,0,-6
3404,-4,-19,998,-15,1,-6
3405,-6,-19,999,-13,0,-7
3406,-5,-19,998,-14,0,-6
3407,-6,-20,998,-14,1,-6
3408,-6,-19,997,-14,1,-6
3409,-6,-20,997,-13,0,-6
3410,-5,-20,998,-12,0,-6
3411,-6,-19,997,-13,2,-6
3412,-8,-19,997,-13,1,-5
3413,-7,-20,998,-14,1,-6
3414,-7,-19,996,-14,1,-5
3415,-8,-19,997,-13,1,-7
3416,-7,-19,997,-15,1,-6
3417,-5,-19,997,-13,1,-5
3418,-6,-18,997,-14,0,-6
3419,-6,-18,996,-14,1,-7
3420,-6,-19,998,-13,1,-6
3421,-8,-19,997,-14,2,-5
3422,-8,-19,997,-13,1,-6
3423,-8,-18,997,-13,0,-6
3424,-7,-18,997,-14,0,-8
3425,-7,-19,998,-14,0,-7
3426,-6,-17,997,-15,0,-7
3427,-8,-19,997,-15,2,-5
3428,-8,-20,998,-14,1,-6
3429,-8,-19,997,-13,1,-6
3430,-9,-18,998,-14,1,-6
3431,-7,-20,997,-13,0,-6
3432,-9,-20,999,-14,0,-6
3433,-9,-18,998,-13,1,-6
3434,-6,-19,998,-14,1,-6
3435,-9,-18,997,-14,1,-6
3436,-7,-18,997,-14,0,-5
3437,-6,-19,998,-14,1,-6
3438,-8,-19,996,-12,2,-6
3439,-7,-21,997,-13,1,-5
3440,-6,-20,998,-14,2,-6
3441,-7,-19,996,-15,2,-6
3442,-7,-19,998,-14,1,-6
3443,-7,-19,998,-13,1,-6
3444,-7,-18,996,-14,0,-5
3445,-7,-19,997,-14,0,-6
3446,-8,-20,997,-14,-1,-6
3447,-6,-19,997,-15,1,-6
3448,-10,-20,996,-15,1,-7
3449,-5,-20,997,-14,0,-6
3450,-6,-21,997,-14,1,-5
3451,-9,-20,997,-14,0,-6
3452,-6,-20,997,-14,0,-6
3453,-8,-20,998,-15,2,-6
3454,-6,-20,998,-14,1,-6
3455,-7,-20,997,-14,1,-6
3456,-8,-20,998,-14,2,-5
3457,-7,-19,999,-14,1,-6
3458,-7,-19,997,-14,2,-6
3459,-7,-20,999,-15,2,-6
3460,-7,-18,998,-14,1,-6
3461,-7,-19,999,-13,1,-6
3462,-9,-20,998,-14,2,-6
3463,-5,-19,998,-14,1,-5
3464,-6,-19,998,-15,1,-5
3465,-5,-19,997,-14,-1,-6
3466,-7,-21,998,-13,0,-5
3467,-8,-19,998,-15,1,-6
3468,-6,-19,999,-14,1,-7
3469,-8,-20,998,-14,2,-6
3470,-6,-19,997,-13,0,-8
3471,-6,-19,998,-13,0,-6
3472,-6,-17,997,-14,0,-6
3473,-6,-21,998,-13,1,-7
3474,-8,-17,996,-13,1,-6
3475,-9,-19,998,-14,1,-5
3476,-7,-20,998,-14,1,-6
3477,-9,-19,999,-15,2,-6
3478,-8,-19,998,-13,2,-7
3479,-7,-20,997,-12,1,-5
3480,-7,-18,999,-15,1,-6
3481,-8,-20,999,-14,0,-6
3482,-7,-18,999,-15,0,-7
3483,-6,-19,1000,-13,1,-6
3484,-7,-19,999,-14,1,-6
3485,-8,-19,998,-14,1,-6
3486,-7,-19,998,-14,1,-6
3487,-7,-21,997,-14,-1,-6
3488,-8,-17,998,-14,0,-5
3489,-6,-17,997,-15,1,-6
3490,-7,-18,997,-14,1,-6
3491,-6,-17,997,-13,1,-6
3492,-7,-20,998,-15,0,-5
3493,-7,-20,997,-14,2,-6
3494,-7,-19,998,-13,2,-5
3495,-8,-20,997,-13,1,-6
3496,-6,-19,999,-14,0,-5
3497,-7,-19,998,-15,0,-7
3498,-8,-19,997,-12,1,-7
3499,-7,-19,997,-14,0,-6
3500,-7,-20,998,-13,1,-6
3501,-7,-19,997,-14,-1,-5
3502,-8,-19,997,-13,0,-5
3503,-7,-20,996,-13,1,-5
3504,-9,-18,998,-14,1,-5
3505,-9,-20,999,-13,1,-6
3506,-8,-18,998,-15,1,-6
3507,-9,-17,998,-14,1,-7
3508,-6,-18,998,-13,2,-6
3509,-8,-18,997,-13,2,-6
3510,-6,-20,997,-14,1,-6
3511,-6,-19,998,-14,0,-5
3512,-5,-19,998,-13,2,-6
3513,-8,-20,999,-13,2,-6
3514,-8,-18,996,-14,1,-5
3515,-7,-18,997,-13,1,-5
3516,-8,-19,999,-16,2,-5
3517,-7,-19,996,-15,1,-6
3518,-8,-18,997,-15,0,-7
3519,-7,-19,999,-15,2,-6
3520,-7,-19,996,-14,1,-6
3521,-7,-20,996,-13,1,-6
3522,-5,-18,997,-13,1,-7
3523,-7,-20,997,-14,1,-7
3524,-8,-18,998,-14,1,-6
3525,-7,-19,997,-14,0,-6
3526,-8,-19,996,-16,0,-5
3527,-7,-21,998,-15,0,-6
3528,-8,-19,997,-14,0,-6
3529,-7,-17,998,-14,1,-5
3530,-7,-20,998,-12,0,-6
3531,-8,-20,998,-14,0,-5
3532,-5,-19,999,-14,0,-5
3533,-9,-19,1000,-14,0,-6
3534,-7,-18,998,-15,1,-5
3535,-6,-18,997,-13,1,-5
3536,-6,-19,997,-13,2,-5
3537,-6,-19,997,-15,1,-6
3538,-5,-20,997,-12,1,-6
3539,-7,-20,997,-13,1,-6
3540,-6,-18,996,-14,1,-5
3541,-8,-18,999,-14,1,-7
3542,-6,-17,996,-15,2,-6
3543,-7,-18,999,-14,1,-6
3544,-5,-18,998,-12,1,-6
3545,-7,-18,997,-14,1,-6
3546,-8,-19,997,-13,0,-7
3547,-7,-19,997,-14,1,-6
3548,-7,-20,997,-14,2,-6
3549,-8,-19,999,-15,1,-6
3550,-7,-19,998,-16,0,-6
3551,-7,-19,997,-15,1,-6
3552,-10,-19,997,-14,0,-7
3553,-8,-18,998,-16,1,-7
3554,-8,-19,997,-14,1,-6
3555,-8,-17,998,-15,0,-6
3556,-6,-17,998,-14,1,-7
3557,-6,-20,998,-15,0,-6
3558,-6,-19,995,-14,2,-6
3559,-8,-21,998,-13,1,-5
3560,-8,-19,999,-12,1,-5
3561,-6,-19,997,-13,1,-4
3562,-7,-20,998,-14,2,-6
3563,-7,-17,998,-13,2,-7
3564,-8,-19,997,-13,1,-7
3565,-9,-19,998,-14,2,-7
3566,-6,-18,999,-15,0,-7
3567,-5,-21,997,-15,0,-6
3568,-7,-20,999,-15,0,-7
3569,-8,-19,997,-13,1,-6
3570,-6,-18,997,-15,1,-6
3571,-7,-18,997,-13,1,-7
3572,-6,-19,998,-12,1,-4
3573,-7,-19,997,-14,0,-5
3574,-7,-20,997,-14,1,-6
3575,-9,-18,997,-14,1,-6
3576,-7,-18,994,-14,1,-6
3577,-8,-19,995,-13,2,-6
3578,-8,-18,999,-14,1,-6
3579,-3,-19,997,-14,0,-5
3580,-3,-21,993,-14,0,-5
3581,0,-20,995,-13,1,-7
3582,-2,-18,998,-12,2,-7
3583,-5,-13,1002,-11,2,-6
3584,-7,-11,1006,-12,1,-6
3585,-12,-13,1001,-15,1,-6
3586,-17,-18,999,-17,1,-6
3587,-19,-30,997,-17,0,-6
3588,-12,-34,996,-16,-1,-6
3589,-4,-29,998,-12,-2,-7
3590,2,-21,998,-11,0,-6
3591,1,-15,998,-11,1,-6
3592,-9,-11,999,-13,2,-6
3593,-22,-13,1003,-14,3,-6
3594,-25,-16,1000,-16,1,-6
3595,-17,-19,997,-16,-2,-6
3596,-1,-22,996,-14,-3,-6
3597,6,-21,996,-15,-1,-8
3598,4,-20,997,-14,0,-6
3599,-6,-19,999,-14,2,-5
3600,-13,-18,999,-13,3,-5
3601,-15,-15,996,-12,1,-5
3602,-10,-16,996,-14,1,-6
3603,-5,-18,997,-13,0,-6
3604,0,-20,996,-14,1,-7
3605,-2,-24,995,-14,0,-5
3606,-5,-24,993,-13,0,-6
3607,-8,-24,993,-14,1,-5
3608,-7,-21,994,-15,1,-5
3609,-6,-18,993,-13,1,-5
3610,-6,-17,995,-13,1,-6
3611,-7,-18,997,-16,1,-7
3612,-9,-18,995,-14,0,-6
3613,-11,-21,997,-15,0,-5
3614,-9,-21,999,-13,0,-7
3615,-8,-21,998,-14,-1,-6
3616,-7,-18,999,-15,0,-6
3617,-7,-14,998,-13,0,-6
3618,-5,-14,999,-13,0,-5
3619,-7,-16,999,-14,1,-6
3620,-10,-18,1001,-15,-1,-6
3621,-8,-20,1000,-15,0,-7
3622,-8,-18,998,-15,0,-6
3623,-8,-18,998,-14,0,-6
3624,-6,-18,999,-14,1,-6
3625,-6,-17,999,-15,2,-7
3626,-6,-19,999,-13,1,-6
3627,-3,-23,1000,-15,2,-7
3628,-5,-24,996,-15,0,-6
3629,-7,-25,998,-13,2,-6
3630,-9,-26,997,-13,1,-6
3631,-8,-20,998,-12,2,-5
3632,-7,-17,996,-12,1,-6
3633,-6,-17,998,-14,0,-6
3634,-5,-16,999,-15,0,-6
3635,-6,-18,998,-16,1,-6
3636,-6,-19,997,-13,0,-6
3637,-6,-21,997,-14,0,-5
3638,-7,-18,998,-14,1,-7
3639,-6,-17,998,-14,1,-6
3640,-8,-16,999,-14,0,-7
3641,-6,-17,999,-14,0,-6
3642,-8,-18,999,-14,1,-5
3643,-7,-20,997,-15,1,-5
3644,-5,-20,998,-13,-1,-6
3645,-6,-18,1000,-14,0,-6
3646,-8,-18,1000,-13,1,-6
3647,-6,-19,1001,-13,1,-7
3648,-5,-19,999,-14,2,-6
3649,-7,-18,998,-12,0,-5
3650,-7,-19,996,-14,0,-6
3651,-8,-21,999,-13,0,-5
3652,-6,-19,997,-13,1,-6
3653,-7,-19,998,-13,1,-5
3654,-5,-20,998,-14,1,-6
3655,-8,-17,998,-13,1,-6
3656,-9,-19,997,-14,1,-6
3657,-9,-19,996,-14,1,-6
3658,-6,-19,997,-13,1,-6
3659,-10,-19,997,-14,0,-6
3660,-9,-20,996,-14,0,-6
3661,-9,-22,996,-14,0,-7
3662,-8,-20,997,-14,0,-7
3663,-10,-19,995,-14,0,-6
3664,-7,-19,997,-14,1,-5
3665,-6,-19,995,-14,2,-6
3666,-6,-20,999,-14,0,-5
3667,-7,-20,998,-13,1,-5
3668,-8,-20,997,-14,0,-6
3669,-9,-20,997,-15,0,-5
3670,-9,-18,996,-13,0,-6
3671,-6,-19,999,-13,0,-6
3672,-6,-20,999,-15,2,-7
3673,-8,-19,998,-14,0,-5
3674,-8,-19,998,-13,1,-6
3675,-7,-18,998,-12,1,-5
3676,-7,-18,997,-13,0,-5
3677,-9,-18,998,-12,1,-5
3678,-7,-16,998,-15,1,-6
3679,-8,-16,997,-13,1,-5
3680,-8,-18,998,-15,0,-6
3681,-7,-18,996,-14,1,-6
3682,-5,-18,998,-12,1,-7
3683,-8,-18,997,-14,1,-6
3684,-7,-19,997,-14,0,-6
3685,-7,-17,997,-13,0,-5
3686,-8,-18,998,-15,0,-6
3687,-7,-20,996,-15,0,-6
3688,-7,-20,995,-15,1,-6
3689,-7,-21,997,-13,0,-6
3690,-7,-20,997,-13,1,-6
3691,-6,-18,999,-13,1,-6
3692,-6,-17,997,-15,1,-6
3693,-6,-18,999,-13,0,-6
3694,-6,-20,998,-15,1,-5
3695,-7,-19,997,-14,0,-5
3696,-9,-19,1000,-14,1,-6
3697,-6,-18,1000,-13,0,-6
3698,-9,-20,999,-14,1,-7
3699,-8,-20,998,-14,2,-6
3700,-6,-19,1000,-13,2,-6
3701,-9,-19,998,-15,2,-5
3702,-8,-18,997,-13,2,-6
3703,-7,-20,999,-13,1,-5
3704,-8,-18,998,-13,1,-6
3705,-6,-20,999,-15,2,-6
3706,-8,-18,997,-14,1,-5
3707,-7,-20,997,-15,2,-5
3708,-7,-18,996,-14,1,-7
3709,-10,-19,995,-8,1,-8
3710,-7,-19,997,-15,1,-6
3711,-6,-20,999,-12,1,-6
3712,-7,-19,996,-15,1,-6
3713,-8,-18,997,-15,1,-6
3714,-9,-20,997,-13,-1,-5
3715,-5,-19,998,-15,1,-6
3716,-5,-20,997,-13,2,-6
3717,-6,-17,997,-14,0,-6
3718,-5,-19,997,-14,0,-6
3719,-8,-20,997,-14,1,-6
3720,-8,-19,997,-15,1,-6
3721,-7,-20,997,-13,0,-6
3722,-9,-19,998,-13,1,-7
3723,-8,-18,998,-14,1,-6
3724,-9,-19,998,-12,0,-5
3725,-7,-19,998,-14,1,-6
3726,-7,-18,998,-16,1,-5
3727,-8,-18,998,-14,1,-6
3728,-8,-19,996,-15,1,-5
3729,-9,-17,998,-17,1,-6
3730,-8,-21,997,-15,1,-6
3731,-9,-18,998,-13,2,-6
3732,-8,-19,998,-14,2,-6
3733,-9,-18,996,-14,1,-6
3734,-6,-19,998,-14,1,-6
3735,-7,-18,997,-14,0,-7
3736,-6,-19,998,-13,1,-7
3737,-7,-20,996,-15,3,-6
3738,-6,-19,996,-15,1,-5
3739,-6,-18,996,-14,0,-6
3740,-7,-18,997,-13,0,-6
3741,-6,-19,997,-13,1,-6
3742,-7,-20,997,-15,0,-5
3743,-8,-21,997,-14,0,-6
3744,-6,-19,997,-13,2,-7
3745,-6,-19,998,-14,1,-7
3746,-8,-18,998,-14,0,-7
3747,-7,-19,997,-15,1,-7
3748,-5,-19,999,-14,0,-6
3749,-6,-21,997,-13,0,-7
3750,-7,-19,997,-15,0,-6
3751,-6,-19,998,-15,1,-6
3752,-6,-18,998,-14,1,-6
3753,-5,-18,997,-13,1,-7
3754,-8,-18,998,-13,1,-7
3755,-7,-18,998,-12,0,-5
3756,-7,-19,999,-13,1,-5
3757,-5,-18,999,-15,0,-6
3758,-7,-19,998,-15,2,-5
3759,-8,-19,998,-13,1,-6
3760,-7,-19,999,-14,2,-6
3761,-6,-20,998,-16,1,-7
3762,-7,-20,998,-11,1,-7
3763,-7,-20,999,-13,2,-7
3764,-7,-20,999,-14,2,-7
3765,-7,-19,996,-13,2,-6
3766,-8,-19,998,-14,1,-7
3767,-8,-20,996,-14,2,-6
3768,-6,-19,996,-15,1,-6
3769,-8,-19,997,-15,0,-6
3770,-7,-20,996,-13,0,-5
3771,-5,-19,997,-13,1,-5
3772,-8,-18,998,-14,0,-5
3773,-7,-17,997,-14,1,-6
3774,-6,-17,998,-13,0,-4
3775,-6,-19,997,-13,2,-6
3776,-6,-20,998,-14,2,-6
3777,-7,-19,997,-14,0,-6
3778,-7,-19,998,-14,0,-6
3779,-8,-18,997,-14,1,-5
3780,-8,-18,997,-14,0,-6
3781,-9,-20,998,-13,0,-5
3782,-7,-20,998,-14,2,-5
3783,-8,-21,998,-15,0,-6
3784,-7,-18,997,-14,1,-6
3785,-7,-19,997,-14,0,-6
3786,-9,-18,998,-13,1,-5
3787,-9,-19,996,-14,1,-6
3788,-8,-19,996,-14,0,-6
3789,-8,-20,996,-14,1,-5
3790,-8,-19,997,-15,1,-6
3791,-5,-20,996,-15,0,-6
3792,-8,-18,996,-13,0,-6
3793,-7,-18,997,-14,1,-6
3794,-8,-19,995,-14,0,-6
3795,-5,-19,998,-13,1,-6
3796,-6,-19,996,-13,1,-6
3797,-5,-20,998,-14,1,-5
3798,-6,-20,997,-13,1,-7
3799,-6,-19,999,-14,2,-6
3800,-6,-17,997,-14,1,-6
3801,-6,-18,998,-13,0,-6
3802,-10,-18,999,-13,1,-7
3803,-6,-17,998,-15,0,-7
3804,-6,-19,998,-15,1,-6
3805,-9,-19,997,-14,2,-7
3806,-6,-20,998,-14,2,-6
3807,-7,-22,996,-13,0,-6
3808,-8,-21,998,-14,0,-6
3809,-7,-21,999,-13,1,-5
3810,-7,-19,998,-12,1,-6
3811,-7,-20,998,-13,1,-5
3812,-7,-19,996,-14,1,-4
3813,-6,-20,997,-13,1,-6
3814,-8,-20,998,-13,1,-5
3815,-7,-20,998,-14,2,-5
3816,-7,-19,998,-13,2,-5
3817,-8,-18,999,-14,1,-5
3818,-5,-19,998,-14,1,-5
3819,-8,-18,999,-15,1,-5
3820,-6,-19,999,-13,1,-6
3821,-8,-18,998,-13,2,-6
3822,-7,-17,998,-14,1,-7
3823,-6,-19,1000,-13,1,-6
3824,-7,-19,998,-14,2,-6
3825,-7,-19,999,-13,0,-7
3826,-7,-19,999,-14,1,-6
3827,-7,-18,999,-13,1,-6
3828,-7,-19,998,-13,3,-6
3829,-8,-19,998,-15,1,-6
3830,-9,-20,998,-15,1,-7
3831,-8,-20,996,-14,1,-6
3832,-8,-18,997,-14,1,-6
3833,-7,-18,996,-15,2,-6
3834,-7,-19,997,-14,1,-5
3835,-7,-20,997,-14,0,-7
3836,-7,-19,996,-13,0,-7
3837,-6,-19,996,-15,1,-6
3838,-8,-20,997,-13,1,-5
3839,-8,-19,996,-14,0,-7
3840,-9,-17,996,-14,2,-6
3841,-6,-18,997,-15,1,-6
3842,-6,-18,996,-14,1,-7
3843,-7,-21,997,-14,1,-6
3844,-4,-19,997,-14,1,-7
3845,-6,-21,996,-15,2,-7
3846,-6,-18,997,-15,2,-6
3847,-6,-19,996,-14,1,-6
3848,-6,-18,997,-14,1,-5
3849,-6,-19,998,-14,0,-6
3850,-7,-17,998,-14,1,-5
3851,-8,-20,997,-15,1,-6
3852,-7,-20,998,-14,0,-6
3853,-6,-21,999,-13,2,-6
3854,-8,-19,997,-14,1,-6
3855,-8,-20,998,-14,0,-7
3856,-9,-20,997,-13,2,-7
3857,-7,-20,997,-14,0,-6
3858,-6,-18,996,-14,0,-6
3859,-7,-19,997,-12,1,-6
3860,-5,-19,998,-13,1,-5
3861,-6,-19,997,-14,1,-6
3862,-6,-19,996,-13,2,-7
3863,-7,-19,998,-14,1,-6
3864,-7,-19,997,-14,1,-7
3865,-5,-19,997,-13,2,-6
3866,-7,-19,996,-15,1,-6
3867,-6,-20,997,-12,0,-7
3868,-6,-19,998,-13,0,-5
3869,-8,-19,998,-14,1,-5
3870,-7,-18,997,-15,0,-7
3871,-7,-19,998,-14,1,-6
3872,-8,-19,997,-14,1,-7
3873,-6,-19,997,-12,1,-6
3874,-7,-19,997,-13,0,-6
3875,-9,-18,997,-13,1,-6
3876,-7,-17,997,-13,0,-6
3877,-9,-19,997,-16,0,-6
3878,-6,-19,998,-15,0,-6
3879,-8,-20,997,-15,1,-5
3880,-6,-19,999,-13,0,-7
3881,-8,-18,998,-13,1,-7
3882,-7,-20,998,-13,2,-6
3883,-6,-20,997,-13,2,-6
3884,-7,-20,997,-14,1,-6
3885,-8,-19,998,-13,0,-6
3886,-7,-17,997,-14,2,-6
3887,-5,-18,997,-13,0,-6
3888,-6,-17,996,-15,2,-6
3889,-7,-17,995,-14,1,-6
3890,-8,-18,996,-15,1,-6
3891,-8,-18,995,-14,1,-7
3892,-8,-17,995,-16,1,-6
3893,-11,-19,997,-16,2,-6
3894,-9,-19,997,-13,2,-6
3895,-9,-20,996,-14,2,-6
3896,-11,-21,997,-15,1,-6
3897,-9,-20,996,-14,1,-6
3898,-6,-20,997,-14,1,-6
3899,-7,-19,997,-13,1,-6
3900,-6,-15,997,-14,2,-6
3901,-9,-17,997,-15,2,-5
3902,-9,-18,999,-13,1,-6
3903,-8,-19,999,-15,1,-7
3904,-8,-19,999,-15,1,-7
3905,-7,-19,1001,-16,-1,-7
3906,-5,-21,1000,-15,0,-6
3907,-8,-19,999,-15,1,-6
3908,-5,-21,1000,-13,0,-5
3909,-8,-20,1000,-14,1,-6
3910,-7,-21,999,-14,2,-6
3911,-7,-19,998,-13,2,-6
3912,-7,-19,997,-15,1,-6
3913,-6,-19,998,-15,1,-6
3914,-9,-19,998,-13,2,-6
3915,-10,-18,999,-13,1,-4
3916,-8,-20,998,-14,2,-5
3917,-8,-18,998,-13,0,-7
3918,-6,-19,998,-12,1,-6
3919,-8,-19,998,-13,1,-6
3920,-7,-18,997,-13,2,-7
3921,-9,-20,997,-14,1,-6
3922,-7,-19,996,-14,1,-7
3923,-8,-19,997,-13,2,-7
3924,-6,-18,997,-14,2,-6
3925,-6,-18,998,-12,-1,-6
3926,-5,-18,998,-13,1,-6
3927,-3,-17,998,-13,1,-5
3928,-4,-17,999,-14,0,-6
3929,-4,-20,998,-13,0,-7
3930,-7,-21,998,-11,1,-6
3931,-11,-19,998,-14,2,-7
3932,-7,-21,996,-14,1,-6
3933,-7,-22,996,-13,0,-6
3934,-7,-21,997,-13,0,-6
3935,-4,-22,996,-13,0,-5
3936,-4,-20,995,-15,1,-6
3937,-5,-18,997,-14,1,-6
3938,-7,-18,996,-13,1,-6
3939,-10,-19,998,-13,1,-6
3940,-8,-17,998,-14,1,-5
3941,-8,-17,997,-14,-1,-7
3942,-7,-17,998,-14,0,-6
3943,-10,-18,998,-14,2,-6
3944,-7,-20,998,-16,1,-6
3945,-8,-18,995,-14,2,-5
3946,-6,-19,997,-13,0,-6
3947,-8,-19,995,-14,1,-7
3948,-8,-19,997,-13,2,-6
3949,-9,-19,997,-14,1,-7
3950,-7,-19,998,-14,0,-6
3951,-6,-19,995,-13,1,-6
3952,-7,-18,998,-14,1,-5
3953,-8,-20,998,-12,1,-7
3954,-7,-20,997,-12,1,-6
3955,-8,-20,999,-14,2,-6
3956,-4,-19,997,-14,0,-6
3957,-9,-19,998,-13,1,-5
3958,-8,-20,998,-15,1,-6
3959,-8,-18,996,-14,2,-6
3960,-7,-20,998,-14,1,-5
3961,-6,-18,997,-13,1,-6
3962,-8,-19,997,-12,1,-6
3963,-8,-19,998,-14,1,-6
3964,-5,-17,998,-13,1,-7
3965,-6,-19,997,-13,1,-7
3966,-6,-19,998,-12,1,-7
3967,-7,-21,998,-13,1,-6
3968,-7,-19,997,-12,0,-6
3969,-6,-20,997,-14,1,-6
3970,-6,-19,997,-14,1,-6
3971,-7,-19,998,-12,2,-6
3972,-7,-20,998,-13,1,-6
3973,-7,-19,998,-14,0,-7
3974,-7,-21,995,-14,1,-6
3975,-6,-21,995,-15,2,-6
3976,-8,-20,998,-14,1,-6
3977,-9,-19,997,-15,0,-6
3978,-7,-20,998,-13,-1,-6
3979,-8,-17,997,-14,1,-6
3980,-9,-20,997,-14,1,-6
3981,-5,-19,998,-13,1,-6
3982,-7,-20,998,-14,1,-5
3983,-7,-20,998,-14,1,-6
3984,-8,-19,998,-12,1,-7
3985,-7,-19,999,-13,1,-6
3986,-6,-17,998,-12,0,-7
3987,-7,-17,998,-12,2,-6
3988,-7,-20,998,-14,2,-6
3989,-6,-18,998,-14,1,-6
3990,-7,-18,998,-14,2,-6
3991,-6,-19,999,-15,1,-7
3992,-6,-19,998,-13,1,-6
3993,-8,-18,999,-13,0,-6
3994,-8,-18,999,-15,0,-5
3995,-8,-19,997,-13,0,-6
3996,-8,-19,997,-13,1,-6
3997,-7,-18,997,-15,2,-5
3998,-8,-18,997,-15,1,-6
3999,-8,-19,998,-14,1,-6
4000,-8,-19,995,-13,0,-6
4001,-8,-18,999,-13,0,-6
4002,-9,-19,999,-13,1,-5
4003,-8,-18,998,-14,1,-5
4004,-6,-19,997,-15,2,-6
4005,-5,-19,999,-15,1,-6
4006,-7,-20,998,-14,2,-6
4007,-6,-20,997,-14,2,-5
4008,-7,-20,998,-15,1,-5
4009,-8,-18,998,-14,1,-5
4010,-8,-20,999,-14,0,-6
4011,-7,-18,997,-14,2,-4
4012,-8,-19,999,-13,1,-5
4013,-9,-18,996,-14,0,-5
4014,-8,-19,996,-13,2,-5
4015,-7,-20,999,-14,1,-5
4016,-7,-19,996,-13,0,-5
4017,-7,-18,996,-15,1,-5
4018,-8,-19,998,-14,0,-6
4019,-8,-21,997,-14,0,-6
4020,-6,-18,997,-15,2,-6
4021,-6,-19,998,-15,1,-7
4022,-8,-18,998,-14,1,-6
4023,-9,-19,996,-13,1,-6
4024,-8,-18,995,-14,1,-6
4025,-9,-19,996,-14,0,-5
4026,-7,-19,996,-14,1,-6
4027,-10,-20,997,-14,2,-6
4028,-7,-18,998,-14,1,-6
4029,-7,-16,998,-14,1,-7
4030,-8,-16,998,-14,1,-6
4031,-8,-16,998,-15,1,-6
4032,-7,-17,995,-13,0,-6
4033,-8,-20,996,-15,0,-7
4034,-7,-19,997,-15,-1,-6
4035,-7,-18,996,-13,1,-6
4036,-7,-18,998,-14,1,-5
4037,-6,-17,998,-14,1,-5
4038,-8,-19,995,-15,0,-6
4039,-7,-18,997,-14,0,-5
4040,-7,-18,996,-14,1,-5
4041,-9,-19,997,-13,1,-5
4042,-7,-20,998,-13,3,-5
4043,-9,-18,998,-13,0,-6
4044,-7,-19,998,-13,0,-6
4045,-7,-19,998,-13,0,-6
4046,-7,-18,998,-12,1,-6
4047,-7,-18,997,-13,1,-6
4048,-8,-19,997,-16,1,-6
4049,-8,-20,999,-14,0,-6
4050,-9,-20,997,-14,0,-6
4051,-11,-19,998,-24,3,-3
4052,-8,-19,998,-14,1,-6
4053,-6,-19,998,-14,1,-6
4054,-7,-19,997,-15,0,-6
4055,-9,-20,999,-11,1,-6
4056,-8,-20,999,-13,0,-6
4057,-8,-19,999,-13,1,-6
4058,-8,-19,998,-14,2,-6
4059,-8,-18,998,-14,1,-7
4060,-6,-19,997,-14,1,-6
4061,-6,-19,998,-14,0,-7
4062,-6,-20,998,-14,1,-6
4063,-5,-20,996,-13,1,-6
4064,-6,-19,996,-13,1,-5
4065,-6,-19,998,-15,1,-6
4066,-9,-19,997,-14,1,-7
4067,-10,-19,997,-13,1,-7
4068,-6,-20,998,-13,1,-6
4069,-9,-19,998,-13,1,-7
4070,-7,-19,998,-13,1,-6
4071,-8,-19,998,-13,1,-6
4072,-7,-19,998,-14,1,-7
4073,-8,-19,997,-15,1,-5
4074,-9,-19,997,-14,0,-6
4075,-8,-18,997,-13,2,-7
4076,-10,-18,998,-14,1,-6
4077,-8,-18,999,-14,0,-6
4078,-7,-18,998,-14,1,-5
4079,-9,-17,999,-13,0,-6
4080,-7,-19,998,-14,0,-6
4081,-8,-19,996,-15,2,-6
4082,-8,-18,997,-15,2,-5
4083,-9,-20,996,-15,2,-5
4084,-6,-19,997,-15,2,-5
4085,-8,-20,997,-14,1,-5
4086,-7,-19,998,-13,1,-5
4087,-8,-19,997,-13,1,-6
4088,-6,-18,996,-13,1,-6
4089,-7,-20,997,-14,1,-6
4090,-6,-19,997,-14,1,-7
4091,-7,-18,998,-13,0,-6
4092,-6,-19,996,-14,1,-6
4093,-7,-21,998,-14,1,-6
4094,-7,-21,997,-13,0,-7
4095,-7,-18,996,-14,1,-6
4096,-7,-19,996,-12,0,-7
4097,-5,-20,997,-13,0,-6
4098,-6,-17,996,-12,1,-6
4099,-7,-20,998,-14,0,-6
4100,-6,-18,998,-14,0,-7
4101,-8,-19,997,-15,3,-5
4102,-6,-20,997,-15,1,-6
4103,-7,-20,998,-13,-1,-5
4104,-7,-19,999,-13,1,-6
4105,-6,-19,997,-14,0,-6
4106,-7,-18,998,-14,1,-5
4107,-7,-19,998,-16,0,-6
4108,-6,-18,996,-13,1,-7
4109,-8,-19,998,-14,1,-6
4110,-6,-19,997,-13,2,-4
4111,-5,-19,997,-14,1,-5
4112,-6,-19,997,-15,1,-5
4113,-6,-18,997,-12,1,-6
4114,-7,-19,997,-14,1,-6
4115,-7,-20,997,-14,2,-6
4116,-7,-19,998,-13,2,-7
4117,-6,-19,998,-15,2,-6
4118,-8,-19,998,-14,2,-6
4119,-6,-20,997,-13,2,-6
4120,-7,-21,997,-14,1,-5
4121,-8,-20,997,-13,1,-7
4122,-6,-19,998,-13,0,-6
4123,-7,-18,997,-14,1,-6
4124,-6,-18,999,-14,1,-6
4125,-8,-18,997,-13,2,-7
4126,-8,-18,996,-15,2,-6
4127,-10,-21,999,-14,2,-5
4128,-6,-19,998,-13,1,-6
4129,-6,-19,999,-14,2,-7
4130,-6,-19,996,-13,0,-6
4131,-7,-18,998,-14,2,-5
4132,-7,-17,996,-14,2,-6
4133,-8,-19,997,-12,0,-6
4134,-6,-18,997,-15,0,-5
4135,-7,-17,998,-15,0,-7
4136,-7,-21,997,-15,1,-6
4137,-6,-17,997,-15,0,-6
4138,-7,-19,997,-14,1,-6
4139,-6,-19,997,-14,1,-7
4140,-7,-19,996,-15,2,-7
4141,-8,-20,995,-14,2,-7
4142,-8,-18,998,-15,1,-6
4143,-6,-19,997,-13,0,-6
4144,-4,-19,997,-13,0,-6
4145,-4,-20,996,-14,0,-6
4146,-6,-18,997,-13,0,-6
4147,-7,-19,997,-15,1,-5
4148,-5,-17,998,-15,2,-6
4149,-8,-17,1001,-13,1,-7
4150,-8,-17,996,-15,2,-6
4151,-9,-21,998,-15,2,-4
4152,-5,-23,998,-13,1,-5
4153,-5,-21,999,-15,0,-6
4154,-4,-22,997,-13,1,-6
4155,-6,-17,998,-12,1,-6
4156,-9,-15,999,-15,0,-6
4157,-11,-16,999,-14,1,-6
4158,-11,-18,999,-13,1,-6
4159,-9,-20,998,-14,1,-6
4160,-9,-20,998,-15,0,-6
4161,-8,-20,998,-14,1,-7
4162,-6,-20,996,-14,1,-7
4163,-10,-20,997,-13,1,-6
4164,-7,-18,998,-12,1,-6
4165,-9,-16,998,-13,2,-5
4166,-9,-18,999,-12,0,-8
4167,-6,-18,998,-13,1,-6
4168,-6,-20,999,-15,1,-5
4169,-7,-21,998,-13,0,-5
4170,-7,-20,998,-13,1,-5
4171,-7,-20,998,-14,0,-6
4172,-6,-20,997,-13,1,-7
4173,-6,-18,998,-14,2,-6
4174,-6,-18,998,-14,2,-5
4175,-6,-19,996,-13,0,-7
4176,-6,-19,997,-13,1,-6
4177,-8,-18,997,-13,2,-5
4178,-5,-19,997,-14,1,-6
4179,-7,-22,996,-14,1,-5
4180,-7,-21,997,-14,1,-7
4181,-7,-20,997,-13,1,-7
4182,-8,-19,996,-15,1,-6
4183,-8,-17,996,-15,2,-6
4184,-7,-17,998,-13,0,-7
4185,-6,-19,999,-13,0,-6
4186,-6,-20,996,-14,0,-6
4187,-7,-19,997,-14,0,-6
4188,-6,-18,997,-13,1,-6
4189,-7,-17,995,-13,1,-6
4190,-8,-20,996,-14,0,-7
4191,-8,-21,997,-14,1,-7
4192,-6,-19,998,-13,0,-5
4193,-6,-20,996,-13,1,-6
4194,-6,-19,997,-14,-1,-6
4195,-9,-20,998,-13,0,-6
4196,-5,-18,997,-13,0,-6
4197,-6,-19,995,-14,1,-5
4198,-6,-20,998,-13,1,-6
4199,-6,-22,996,-14,2,-6
4200,-8,-20,996,-14,1,-7
4201,-6,-18,995,-14,1,-6
4202,-7,-19,997,-14,1,-7
4203,-6,-19,997,-14,0,-7
4204,-7,-19,997,-14,0,-6
4205,-5,-17,997,-13,1,-6
4206,-5,-19,997,-14,1,-5
4207,-6,-19,997,-15,1,-6
4208,-7,-19,998,-14,2,-6
4209,-6,-18,999,-15,1,-6
4210,-6,-17,998,-14,0,-6
4211,-6,-18,997,-13,1,-7
4212,-7,-19,999,-15,0,-7
4213,-8,-19,998,-14,1,-6
4214,-8,-18,998,-13,1,-6
4215,-8,-17,998,-13,2,-8
4216,-9,-19,998,-16,1,-7
4217,-7,-18,997,-15,1,-7
4218,-7,-18,997,-13,1,-6
4219,-8,-18,997,-14,1,-5
4220,-6,-18,998,-13,1,-6
4221,-7,-20,998,-14,1,-6
4222,-7,-20,998,-14,0,-6
4223,-9,-19,998,-15,1,-6
4224,-8,-16,997,-15,1,-6
4225,-8,-19,998,-14,1,-5
4226,-5,-18,996,-13,2,-5
4227,-7,-20,999,-14,1,-6
4228,-5,-20,997,-13,0,-6
4229,-7,-20,997,-15,1,-6
4230,-7,-19,998,-14,1,-6
4231,-8,-19,997,-13,2,-6
4232,-7,-18,996,-14,1,-5
4233,-8,-20,997,-13,2,-5
4234,-8,-20,997,-14,2,-5
4235,-8,-19,997,-14,1,-6
4236,-6,-19,998,-13,0,-6
4237,-7,-18,997,-13,0,-6
4238,-8,-19,997,-13,-1,-6
4239,-7,-18,997,-14,1,-6
4240,-8,-18,997,-14,1,-6
4241,-8,-20,998,-15,2,-6
4242,-7,-20,998,-14,0,-6
4243,-8,-20,997,-13,1,-6
4244,-9,-18,999,-13,2,-6
4245,-7,-19,998,-13,2,-7
4246,-6,-19,997,-13,0,-6
4247,-7,-18,998,-13,2,-7
4248,-8,-18,996,-14,1,-7
4249,-7,-18,997,-15,1,-5
4250,-7,-19,998,-13,2,-6
4251,-7,-18,997,-14,2,-6
4252,-6,-19,998,-12,1,-5
4253,-7,-19,997,-12,0,-6
4254,-5,-19,998,-13,1,-6
4255,-6,-18,997,-13,1,-6
4256,-6,-20,997,-14,1,-5
4257,-6,-16,997,-13,1,-7
4258,-7,-20,997,-14,1,-6
4259,-6,-18,998,-15,1,-6
4260,-7,-20,997,-14,1,-5
4261,-6,-19,997,-14,1,-6
4262,-6,-18,998,-15,0,-7
4263,-5,-19,998,-14,1,-6
4264,-6,-18,997,-14,2,-7
4265,-6,-19,996,-13,1,-6
4266,-6,-18,996,-14,1,-6
4267,-6,-18,997,-14,1,-6
4268,-5,-18,997,-14,2,-6
4269,-6,-19,996,-13,1,-7
4270,-6,-17,996,-14,2,-6
4271,-7,-18,997,-15,1,-5
4272,-6,-19,998,-14,1,-6
4273,-7,-18,998,-14,0,-6
4274,-8,-19,997,-14,1,-7
4275,-7,-20,998,-15,2,-6
4276,-6,-18,998,-14,1,-5
4277,-8,-19,999,-15,1,-6
4278,-9,-19,997,-14,1,-7
4279,-7,-18,998,-13,0,-7
4280,-6,-20,998,-14,1,-7
4281,-6,-19,997,-14,1,-7
4282,-7,-19,996,-13,1,-5
4283,-5,-19,997,-13,1,-7
4284,-7,-18,999,-13,1,-7
4285,-5,-18,997,-14,1,-6
4286,-8,-20,998,-13,1,-6
4287,-10,-19,998,-13,0,-7
4288,-9,-19,997,-13,0,-5
4289,-8,-18,998,-14,0,-4
4290,-6,-20,998,-14,0,-5
4291,-7,-21,997,-14,1,-6
4292,-7,-20,998,-14,1,-6
4293,-9,-20,998,-14,1,-7
4294,-8,-19,998,-12,1,-6
4295,-6,-19,997,-14,2,-6
4296,-6,-18,997,-14,0,-5
4297,-6,-18,997,-13,1,-5
4298,-7,-19,998,-14,1,-7
4299,-8,-18,997,-14,1,-7
4300,-8,-19,997,-14,1,-7
4301,-8,-19,997,-13,0,-7
4302,-8,-21,997,-13,1,-7
4303,-7,-19,997,-13,1,-7
4304,-8,-18,998,-14,0,-6
4305,-7,-19,998,-13,1,-6
4306,-8,-20,997,-14,1,-5
4307,-8,-19,997,-13,2,-4
4308,-6,-18,997,-15,3,-5
4309,-7,-19,996,-13,1,-6
4310,-7,-19,999,-14,1,-6
4311,-5,-19,997,-15,-1,-6
4312,-7,-18,996,-14,2,-6
4313,-7,-18,997,-14,2,-6
4314,-7,-19,997,-14,0,-6
4315,-9,-19,996,-13,-1,-7
4316,-7,-18,998,-14,0,-6
4317,-7,-16,998,-14,1,-6
4318,-6,-19,998,-14,1,-6
4319,-7,-18,999,-14,1,-6
4320,-9,-18,999,-14,1,-7
4321,-8,-18,998,-13,2,-6
4322,-7,-19,999,-14,1,-7
4323,-6,-18,996,-14,0,-7
4324,-7,-18,999,-14,0,-7
4325,-6,-20,998,-14,1,-6
4326,-7,-19,996,-14,-1,-6
4327,-7,-18,998,-15,1,-7
4328,-6,-18,997,-15,0,-6
4329,-6,-19,999,-15,1,-7
4330,-7,-18,997,-15,1,-7
4331,-8,-19,997,-13,1,-6
4332,-6,-18,997,-13,1,-6
4333,-8,-18,998,-14,0,-6
4334,-8,-18,998,-15,1,-6
4335,-6,-18,996,-14,2,-5
4336,-5,-18,998,-14,1,-5
4337,-8,-19,999,-13,1,-7
4338,-7,-18,998,-14,0,-6
4339,-5,-19,998,-14,1,-5
4340,-8,-19,998,-14,1,-6
4341,-8,-18,999,-12,0,-7
4342,-6,-21,998,-13,0,-5
4343,-6,-19,998,-14,1,-6
4344,-8,-19,998,-14,1,-6
4345,-10,-20,998,-15,1,-5
4346,-8,-18,997,-14,1,-6
4347,-6,-20,998,-15,1,-6
4348,-8,-18,998,-14,0,-6
4349,-9,-19,997,-14,2,-6
4350,-8,-21,998,-14,0,-5
4351,-6,-19,996,-14,1,-5
4352,-8,-19,997,-12,2,-6
4353,-9,-18,996,-12,1,-6
4354,-7,-18,997,-14,1,-7
4355,-7,-20,998,-15,1,-6
4356,-5,-20,997,-13,0,-6
4357,-8,-19,998,-13,1,-6
4358,-7,-19,997,-13,2,-6
4359,-8,-18,998,-15,1,-7
4360,-5,-19,998,-14,1,-7
4361,-6,-18,998,-15,1,-7
4362,-8,-19,996,-15,1,-6
4363,-7,-19,997,-13,1,-6
4364,-7,-20,999,-15,3,-6
4365,-7,-20,998,-14,1,-6
4366,-7,-19,999,-14,1,-6
4367,-9,-19,998,-14,0,-6
4368,-8,-19,998,-15,1,-6
4369,-6,-19,998,-12,0,-7
4370,-8,-20,997,-13,1,-7
4371,-6,-19,999,-14,1,-5
4372,-7,-19,997,-13,1,-7
4373,-7,-18,997,-14,1,-7
4374,-7,-18,998,-13,1,-6
4375,-9,-20,999,-13,1,-6
4376,-5,-19,996,-15,0,-7
4377,-7,-19,997,-15,1,-6
4378,-6,-18,997,-13,-1,-7
4379,-6,-19,996,-13,2,-6
4380,-6,-20,997,-14,1,-6
4381,-8,-18,997,-15,0,-7
4382,-7,-18,996,-14,1,-6
4383,-7,-19,996,-13,2,-7
4384,-7,-19,997,-15,1,-6
4385,-5,-18,998,-14,0,-5
4386,-6,-17,998,-13,0,-5
4387,-8,-17,997,-14,0,-5
4388,-6,-20,997,-14,0,-6
4389,-6,-18,996,-15,0,-7
4390,-7,-19,997,-14,10,-2
4391,-8,-19,997,-13,2,-5
4392,-8,-18,997,-14,1,-6
4393,-5,-20,996,-14,2,-5
4394,-6,-19,998,-14,-1,-6
4395,-8,-20,999,-14,0,-6
4396,-6,-19,1001,-13,1,-6
4397,-7,-19,998,-14,1,-6
4398,-7,-18,999,-15,1,-6
4399,-8,-20,997,-14,1,-6
4400,-7,-18,998,-14,1,-6
4401,-7,-19,999,-12,1,-6
4402,-7,-18,997,-14,2,-5
4403,-8,-20,996,-13,1,-5
4404,-6,-17,998,-14,0,-6
4405,-8,-19,998,-13,0,-7
4406,-7,-19,999,-14,1,-6
4407,-6,-19,998,-14,2,-5
4408,-8,-20,997,-15,0,-5
4409,-7,-19,997,-13,1,-6
4410,-8,-19,997,-16,2,-8
4411,-7,-20,998,-14,2,-7
4412,-4,-19,997,-15,2,-6
4413,-7,-19,997,-14,1,-6
4414,-5,-19,997,-14,1,-7
4415,-6,-20,998,-15,3,-6
4416,-9,-20,998,-14,2,-7
4417,-7,-19,998,-14,2,-7
4418,-9,-17,997,-15,2,-6
4419,-6,-18,995,-15,1,-5
4420,-6,-20,996,-14,1,-6
4421,-6,-19,998,-15,1,-6
4422,-8,-19,998,-13,1,-6
4423,-9,-19,998,-13,1,-6
4424,-7,-20,997,-14,1,-6
4425,-10,-20,998,-13,1,-6
4426,-8,-19,997,-15,2,-4
4427,-8,-19,998,-14,0,-5
4428,-9,-19,999,-14,0,-5
4429,-6,-17,998,-14,1,-6
4430,-6,-18,998,-14,1,-5
4431,-6,-19,997,-14,1,-5
4432,-6,-19,997,-13,0,-6
4433,-6,-21,997,-13,0,-6
4434,-7,-19,998,-14,-1,-6
4435,-8,-19,998,-13,0,-8
4436,-6,-19,996,-13,0,-6
4437,-9,-20,997,-13,0,-6
4438,-8,-19,998,-13,1,-7
4439,-7,-17,999,-14,1,-5
4440,-7,-19,998,-14,3,-7
4441,-7,-19,997,-14,1,-5
4442,-10,-19,998,-14,1,-5
4443,-9,-19,998,-14,2,-6
4444,-7,-19,999,-14,2,-6
4445,-8,-20,995,-15,1,-5
4446,-8,-20,998,-14,1,-6
4447,-6,-19,998,-12,2,-7
4448,-6,-20,997,-13,1,-5
4449,-6,-17,998,-15,2,-5
4450,-6,-18,997,-14,0,-5
4451,-7,-18,998,-14,0,-8
4452,-6,-19,998,-13,1,-5
4453,-6,-20,999,-14,2,-4
4454,-7,-19,1000,-13,1,-6
4455,-9,-20,998,-14,1,-6
4456,-9,-20,998,-16,1,-6
4457,-7,-19,997,-14,1,-5
4458,-7,-20,997,-14,2,-6
4459,-10,-19,997,-14,1,-7
4460,-7,-20,996,-15,1,-6
4461,-7,-20,997,-15,0,-4
4462,-8,-17,996,-13,0,-5
4463,-7,-19,998,-14,0,-6
4464,-6,-20,998,-13,1,-6
4465,-5,-19,997,-14,1,-6
4466,-6,-17,998,-13,2,-6
4467,-7,-18,998,-13,0,-7
4468,-7,-19,997,-15,1,-7
4469,-7,-18,997,-15,2,-6
4470,-7,-18,997,-15,2,-5
4471,-7,-18,998,-13,-1,-5
4472,-8,-17,997,-14,1,-6
4473,-8,-19,997,-14,0,-6
4474,-7,-19,998,-13,1,-6
4475,-8,-19,997,-13,1,-7
4476,-8,-19,998,-12,0,-6
4477,-8,-19,998,-14,0,-5
4478,-7,-20,998,-14,2,-6
4479,-8,-19,998,-14,2,-6
4480,-8,-19,997,-14,1,-7
4481,-8,-19,998,-14,0,-6
4482,-6,-20,999,-14,0,-7
4483,-6,-19,998,-15,1,-7
4484,-6,-19,997,-14,1,-6
4485,-6,-17,996,-15,1,-6
4486,-8,-18,997,-14,-1,-6
4487,-9,-20,997,-13,1,-6
4488,-6,-19,997,-14,1,-5
4489,-7,-19,996,-15,1,-6
4490,-7,-20,998,-14,0,-7
4491,-9,-18,996,-14,1,-6
4492,-7,-21,997,-14,1,-6
4493,-7,-19,997,-13,2,-6
4494,-7,-18,995,-13,1,-6
4495,-7,-19,998,-15,2,-5
4496,-9,-20,998,-14,0,-6
4497,-7,-20,997,-13,2,-6
4498,-8,-19,997,-14,1,-7
4499,-8,-20,997,-14,1,-6
4500,-7,-19,998,-13,1,-6
4501,-8,-18,995,-14,1,-6
4502,-8,-18,997,-14,0,-6
4503,-6,-18,999,-13,1,-6
4504,-6,-20,998,-15,0,-5
4505,-6,-18,998,-16,1,-6
4506,-6,-19,996,-13,0,-5
4507,-6,-21,997,-16,0,-6
4508,-7,-20,997,-14,3,-5
4509,-7,-20,996,-13,1,-6
4510,-6,-20,997,-15,0,-6
4511,-6,-19,998,-14,1,-7
4512,-8,-19,997,-16,2,-7
4513,-6,-18,998,-14,2,-7
4514,-7,-20,997,-13,1,-6
4515,-9,-20,997,-14,0,-6
4516,-9,-17,998,-15,1,-6
4517,-7,-18,997,-13,1,-7
4518,-6,-20,997,-12,2,-6
4519,-6,-18,999,-13,1,-7
4520,-8,-18,998,-14,1,-6
4521,-7,-18,996,-14,1,-5
4522,-7,-17,996,-14,1,-7
4523,-7,-19,998,-14,0,-6
4524,-6,-18,996,-14,1,-6
4525,-6,-21,998,-12,1,-5
4526,-7,-19,997,-14,1,-5
4527,-7,-18,996,-13,1,-6
4528,-7,-18,998,-15,2,-5
4529,-6,-19,997,-14,0,-5
4530,-7,-18,997,-15,0,-6
4531,-6,-19,998,-14,1,-6
4532,-7,-20,998,-13,1,-7
4533,-5,-20,998,-15,0,-6
4534,-9,-19,996,-14,0,-5
4535,-6,-21,998,-13,0,-6
4536,-8,-20,997,-13,1,-6
4537,-7,-19,998,-14,1,-7
4538,-7,-20,998,-13,1,-5
4539,-8,-19,998,-12,1,-6
4540,-8,-20,997,-13,1,-6
4541,-7,-18,996,-13,1,-6
4542,-7,-18,998,-13,1,-6
4543,-6,-18,998,-14,1,-6
4544,-6,-18,998,-14,0,-6
4545,-6,-19,997,-14,1,-6
4546,-8,-19,997,-13,1,-6
4547,-8,-19,998,-13,0,-7
4548,-8,-19,997,-15,0,-7
4549,-6,-20,996,-15,0,-6
4550,-7,-19,996,-14,1,-6
4551,-6,-19,996,-14,3,-6
4552,-5,-17,997,-14,2,-6
4553,-7,-19,997,-13,1,-7
4554,-9,-19,997,-14,1,-6
4555,-9,-18,997,-14,2,-6
4556,-7,-20,998,-14,0,-6
4557,-8,-19,998,-15,-1,-7
4558,-8,-20,1000,-13,1,-7
4559,-7,-20,999,-14,0,-6
4560,-6,-18,998,-14,0,-6
4561,-7,-19,997,-13,1,-6
4562,-8,-20,997,-15,1,-6
4563,-8,-20,998,-12,1,-5
4564,-9,-19,998,-13,1,-7
4565,-7,-19,996,-14,1,-5
4566,-8,-21,997,-13,2,-6
4567,-6,-20,996,-13,1,-7
4568,-8,-21,996,-15,0,-5
4569,-7,-20,997,-14,1,-6
4570,-8,-21,998,-14,1,-7
4571,-7,-21,996,-13,0,-6
4572,-7,-20,998,-13,1,-6
4573,-7,-19,996,-14,1,-6
4574,-6,-19,998,-13,0,-6
4575,-8,-19,997,-14,1,-7
4576,-7,-17,996,-15,1,-6
4577,-7,-18,996,-13,0,-6
4578,-7,-18,997,-15,0,-5
4579,-8,-18,998,-13,1,-7
4580,-7,-18,996,-13,1,-6
4581,-8,-19,998,-15,1,-6
4582,-7,-19,998,-14,2,-7
4583,-8,-19,999,-15,2,-7
4584,-8,-19,999,-15,1,-6
4585,-8,-19,998,-14,1,-6
4586,-6,-18,998,-14,2,-6
4587,-6,-19,998,-14,1,-6
4588,-6,-21,998,-13,1,-6
4589,-5,-20,997,-13,0,-6
4590,-6,-18,997,-13,0,-7
4591,-7,-18,998,-14,1,-6
4592,-6,-18,997,-15,1,-6
4593,-8,-18,997,-11,2,-6
4594,-7,-18,997,-15,1,-6
4595,-6,-20,997,-14,1,-6
4596,-7,-19,996,-13,1,-6
4597,-7,-20,996,-13,1,-6
4598,-5,-19,998,-14,1,-6
4599,-7,-20,996,-15,1,-5
4600,-6,-18,998,-14,0,-5
4601,-6,-19,998,-14,2,-7
4602,-6,-18,997,-14,2,-6
4603,-8,-19,998,-13,2,-6
4604,-8,-19,997,-14,0,-5
4605,-8,-19,998,-14,0,-6
4606,-7,-19,996,-14,1,-5
4607,-5,-19,998,-14,0,-6
4608,-6,-18,997,-13,1,-7
4609,-6,-20,997,-14,1,-6
4610,-5,-20,997,-14,2,-6
4611,-7,-18,999,-15,2,-6
4612,-9,-19,998,-14,1,-6
4613,-7,-18,998,-14,1,-6
4614,-8,-20,998,-14,0,-5
4615,-10,-20,998,-14,0,-7
4616,-8,-20,999,-14,1,-7
4617,-8,-18,996,-13,2,-6
4618,-8,-19,998,-12,1,-5
4619,-8,-18,998,-13,1,-7
4620,-6,-18,999,-15,1,-7
4621,-8,-20,997,-14,1,-6
4622,-6,-18,999,-14,0,-6
4623,-8,-19,998,-15,1,-6
4624,-7,-21,998,-15,1,-7
4625,-6,-19,996,-14,0,-6
4626,-8,-19,997,-15,0,-7
4627,-7,-18,998,-14,1,-6
4628,-8,-18,999,-14,1,-8
4629,-7,-19,997,-13,0,-8
4630,-8,-18,999,-13,1,-7
4631,-6,-20,998,-14,1,-8
4632,-5,-19,997,-14,1,-6
4633,-8,-19,997,-13,2,-6
4634,-9,-19,998,-14,1,-7
4635,-7,-19,996,-13,0,-7
4636,-6,-19,996,-13,1,-5
4637,-8,-19,998,-14,1,-6
4638,-8,-19,998,-14,1,-5
4639,-7,-18,998,-14,1,-7
4640,-8,-17,998,-15,2,-7
4641,-6,-18,997,-13,0,-7
4642,-8,-19,997,-14,1,-6
4643,-6,-19,998,-15,2,-6
4644,-6,-18,999,-15,2,-7
4645,-7,-18,997,-14,2,-6
4646,-7,-18,998,-13,1,-7
4647,-6,-19,997,-13,1,-7
4648,-7,-20,998,-15,0,-6
4649,-7,-18,999,-15,2,-6
4650,-9,-16,998,-13,0,-7
4651,-9,-18,999,-14,0,-7
4652,-6,-19,998,-13,1,-6
4653,-7,-18,997,-14,1,-7
4654,-7,-20,997,-13,2,-6
4655,-6,-21,996,-13,0,-5
4656,-8,-19,998,-14,-1,-5
4657,-6,-20,999,-14,1,-6
4658,-6,-19,997,-15,1,-6
4659,-8,-19,997,-13,2,-5
4660,-7,-19,998,-12,1,-6
4661,-4,-19,998,-14,1,-6
4662,-6,-18,996,-14,0,-6
4663,-8,-18,996,-14,0,-6
4664,-7,-18,998,-13,0,-5
4665,-7,-19,996,-14,1,-6
4666,-6,-18,998,-14,2,-6
4667,-9,-20,998,-15,1,-5
4668,-6,-20,996,-14,1,-6
4669,-8,-19,997,-13,1,-6
4670,-7,-18,998,-14,0,-5
4671,-8,-18,998,-15,1,-6
4672,-7,-20,998,-15,1,-7
4673,-8,-19,997,-14,1,-7
4674,-8,-19,996,-14,0,-6
4675,-9,-18,999,-13,0,-6
4676,-6,-17,998,-13,1,-6
4677,-7,-17,997,-13,1,-6
4678,-8,-18,998,-14,0,-6
4679,-9,-20,998,-14,1,-6
4680,-6,-18,998,-13,0,-5
4681,-6,-19,999,-14,2,-6
4682,-8,-20,998,-14,2,-6
4683,-6,-19,998,-14,1,-6
4684,-8,-19,999,-14,1,-6
4685,-7,-20,998,-16,2,-6
4686,-6,-20,997,-13,1,-7
4687,-6,-19,998,-13,0,-7
4688,-6,-19,998,-15,1,-6
4689,-8,-21,999,-13,0,-7
4690,-7,-19,997,-13,0,-6
4691,-10,-20,999,-15,0,-6
4692,-7,-20,997,-14,1,-6
4693,-6,-19,996,-14,0,-8
4694,-7,-19,996,-14,1,-7
4695,-7,-19,996,-14,2,-5
4696,-7,-19,998,-15,2,-6
4697,-7,-21,998,-14,2,-5
4698,-6,-20,997,-14,1,-6
4699,-7,-19,998,-14,1,-5
4700,-7,-19,998,-15,1,-5
4701,-8,-18,995,-13,1,-6
4702,-5,-18,998,-14,2,-6
4703,-7,-18,997,-14,0,-6
4704,-6,-20,997,-14,2,-6
4705,-7,-19,996,-15,1,-6
4706,-6,-19,996,-14,0,-7
4707,-6,-19,996,-14,-1,-7
4708,-8,-18,998,-13,0,-7
4709,-8,-18,998,-13,0,-7
4710,-6,-19,998,-14,1,-7
4711,-7,-19,998,-13,1,-6
4712,-6,-19,997,-14,1,-5
4713,-9,-19,999,-15,2,-6
4714,-7,-19,998,-13,2,-6
4715,-6,-20,997,-12,1,-5
4716,-7,-18,998,-14,1,-5
4717,-7,-17,999,-13,2,-6
4718,-6,-16,998,-14,1,-5
4719,-7,-18,996,-14,0,-6
4720,-8,-20,998,-15,1,-6
4721,-7,-20,997,-14,1,-7
4722,-7,-19,998,-14,1,-7
4723,-9,-19,999,-14,-2,-7
4724,-8,-20,999,-17,-3,-7
4725,-7,-20,998,-14,0,-6
4726,-6,-20,997,-12,2,-5
4727,-7,-18,998,-14,1,-6
4728,-9,-20,997,-13,1,-7
4729,-8,-20,997,-13,2,-6
4730,-8,-19,996,-15,0,-7
4731,-8,-18,997,-13,1,-6
4732,-6,-18,997,-15,1,-7
4733,-7,-20,996,-14,1,-5
4734,-7,-20,997,-14,1,-6
4735,-6,-19,997,-15,1,-6
4736,-7,-19,996,-15,1,-6
4737,-7,-17,998,-15,2,-7
4738,-8,-19,998,-15,0,-6
4739,-8,-19,999,-13,0,-5
4740,-8,-18,998,-16,2,-5
4741,-6,-20,999,-14,0,-5
4742,-5,-20,997,-13,0,-6
4743,-8,-20,996,-15,1,-5
4744,-7,-18,997,-14,1,-6
4745,-4,-18,997,-13,0,-5
4746,-4,-20,998,-15,1,-5
4747,-4,-19,996,-15,1,-7
4748,-4,-18,999,-13,2,-5
4749,-8,-18,998,-14,2,-5
4750,-7,-18,999,-14,1,-6
4751,-8,-14,997,-14,1,-6
4752,-7,-15,1005,-14,0,-5
4753,-13,-20,1010,-16,0,-5
4754,-13,-25,993,-14,1,-6
4755,-4,-21,984,-15,2,-6
4756,0,-28,986,-14,0,-6
4757,3,-24,1003,-12,1,-6
4758,-3,-15,1005,-11,2,-5
4759,-16,-11,1008,-11,2,-7
4760,-18,-5,997,-13,0,-6
4761,-18,-7,991,-16,0,-6
4762,-8,-19,993,-16,-1,-7
4763,0,-30,999,-15,-2,-7
4764,1,-32,1000,-13,-1,-6
4765,-4,-25,1003,-13,1,-5
4766,-12,-13,990,-12,3,-6
4767,-16,-11,991,-12,3,-6
4768,-10,-12,1005,-15,1,-6
4769,-7,-19,1005,-15,0,-6
4770,-2,-21,993,-16,-1,-6
4771,-5,-24,997,-15,1,-5
4772,-3,-21,995,-14,1,-6
4773,-3,-21,994,-14,2,-7
4774,-6,-17,1002,-13,2,-7
4775,-8,-16,1000,-13,1,-8
4776,-8,-15,997,-15,1,-6
4777,-9,-18,995,-13,1,-6
4778,-6,-20,993,-15,2,-6
4779,-9,-24,994,-15,2,-6
4780,-7,-24,1000,-12,1,-6
4781,-9,-24,996,-14,2,-6
4782,-8,-19,994,-11,1,-5
4783,-8,-14,998,-12,1,-5
4784,-7,-14,997,-15,1,-6
4785,-6,-15,999,-15,0,-6
4786,-6,-19,999,-15,0,-7
4787,-10,-22,996,-14,1,-6
4788,-7,-19,998,-13,-1,-5
4789,-6,-20,998,-14,0,-6
4790,-8,-17,999,-13,1,-6
4791,-8,-15,999,-13,0,-7
4792,-7,-14,997,-15,1,-6
4793,-4,-19,996,-15,1,-6
4794,-7,-26,1001,-15,2,-7
4795,-11,-28,1003,-16,0,-5
4796,-10,-24,997,-13,1,-6
4797,-8,-17,995,-13,1,-6
4798,-4,-15,993,-12,1,-5
4799,-1,-14,999,-13,1,-5
4800,-4,-18,1001,-14,1,-6
4801,-10,-21,1000,-14,1,-6
4802,-10,-20,996,-13,1,-5
4803,-13,-18,995,-14,1,-6
4804,-9,-18,995,-14,-1,-7
4805,-6,-18,999,-14,1,-7
4806,-3,-19,1000,-13,0,-5
4807,-5,-20,999,-14,1,-5
4808,-8,-20,996,-13,1,-5
4809,-10,-21,997,-14,2,-5
4810,-11,-19,999,-14,1,-6
4811,-9,-16,999,-14,0,-6
4812,-4,-16,1001,-13,0,-5
4813,-4,-17,998,-15,-1,-6
4814,-6,-17,1000,-13,1,-6
4815,-7,-21,996,-14,1,-6
4816,-10,-24,998,-15,1,-7
4817,-8,-21,999,-13,1,-7
4818,-6,-20,999,-14,1,-4
4819,-6,-18,998,-14,1,-6
4820,-6,-19,998,-13,0,-6
4821,-8,-17,998,-15,1,-6
4822,-7,-19,996,-13,1,-6
4823,-8,-20,998,-14,1,-7
4824,-8,-20,998,-14,0,-6
