sequence,AccelerometerX,AccelerometerY,AccelerometerZ,GyroscopeX,GyroscopeY,GyroscopeZ
0,104,-47,1000,-12,-25,-12
1,147,-38,1003,-8,-5,-11
2,65,-6,1014,-4,19,-5
3,-52,10,1002,-12,27,0
4,-156,20,974,-16,19,0
5,-135,-9,996,-20,-6,-6
6,-46,-44,994,-20,-24,-11
7,93,-45,1005,-18,-27,-12
8,148,-47,1009,-11,-5,-11
9,83,-13,999,-6,16,-4
10,-26,10,1001,-4,34,1
11,-145,22,991,-17,24,1
12,-147,-6,995,-20,-2,-5
13,-69,-36,986,-20,-22,-11
14,74,-45,1005,-13,-27,-14
15,141,-50,1013,-10,-13,-13
16,103,-20,1003,-10,12,-5
17,-2,9,992,-9,27,-2
18,-131,23,988,-14,25,3
19,-160,-2,991,-20,3,-3
20,-86,-25,986,-21,-17,-10
21,58,-49,1010,-17,-26,-14
22,123,-55,1006,-12,-15,-12
23,128,-23,1005,-8,7,-8
24,15,5,1001,-7,25,-3
25,-114,19,991,-14,27,1
26,-159,1,983,-20,8,-4
27,-107,-14,982,-21,-15,-7
28,35,-49,1012,-17,-29,-13
29,118,-57,1008,-13,-18,-13
30,139,-28,1004,-8,4,-6
31,32,0,1002,-9,24,-4
32,-96,14,1002,-12,27,2
33,-156,9,969,-18,10,-1
34,-119,-11,991,-20,-10,-8
35,7,-50,1005,-18,-26,-11
36,110,-53,1003,-14,-21,-12
37,142,-32,1005,-8,-3,-9
38,54,-2,1010,-7,21,-3
39,-73,11,1001,-13,29,1
40,-155,17,972,-18,17,1
41,-131,-9,995,-19,-7,-6
42,-25,-49,993,-20,-27,-12
43,101,-49,1002,-13,-25,-14
44,147,-40,1003,-8,-6,-11
45,73,-9,1007,-8,21,-4
46,-47,16,1006,-10,29,-1
47,-151,24,973,-18,19,2
48,-141,-6,996,-22,-4,-4
49,-53,-45,992,-22,-24,-11
50,92,-48,1004,-14,-25,-13
51,148,-47,1009,-9,-10,-11
52,90,-18,996,-6,15,-4
53,-22,10,1000,-10,28,-1
54,-143,24,989,-16,23,2
55,-153,-3,992,-21,2,-5
56,-72,-35,987,-20,-20,-10
57,73,-43,1004,-15,-28,-12
58,142,-56,1013,-12,-12,-12
59,112,-26,1006,-8,12,-5
60,-5,10,989,-9,28,-1
61,-129,21,988,-13,24,2
62,-161,2,991,-19,3,-4
63,-89,-20,988,-21,-17,-10
64,58,-47,1010,-17,-27,-14
65,125,-55,1007,-10,-16,-14
66,129,-23,1004,-6,6,-6
67,18,3,998,-10,26,-2
68,-114,14,997,-15,27,2
69,-161,5,974,-18,7,-4
70,-106,-13,986,-20,-15,-9
71,24,-44,1013,-17,-27,-13
72,115,-55,1006,-13,-17,-12
73,143,-27,1007,-9,3,-8
74,36,-4,1005,-9,24,-2
75,-91,14,999,-11,26,1
76,-160,9,975,-18,11,-2
77,-128,-9,989,-21,-10,-7
78,1,-49,1003,-19,-27,-13
79,112,-48,1002,-15,-20,-14
80,142,-34,1005,-8,-3,-8
81,55,-7,1011,-9,20,-3
82,-70,9,1002,-12,29,0
83,-153,15,973,-18,18,-3
84,-135,-6,997,-19,-7,-5
85,-25,-45,994,-19,-26,-11
86,99,-48,1006,-12,-22,-13
87,146,-38,1003,-9,-5,-10
88,69,-12,1006,-8,18,-3
89,-42,13,1005,-10,27,0
90,-151,20,978,-19,19,2
91,-140,-6,991,-21,-2,-6
92,-56,-45,997,-20,-22,-12
93,85,-44,1003,-16,-26,-12
94,146,-48,1011,-9,-9,-13
95,90,-18,1003,-8,13,-3
96,-22,9,991,-11,27,-3
97,-139,23,991,-18,23,0
98,-153,-4,995,-21,1,-4
99,-78,-31,980,-22,-21,-10
100,68,-47,1010,-14,-28,-14
101,135,-53,1007,-12,-13,-12
102,115,-21,1007,-7,10,-6
103,2,4,994,-9,25,-1
104,-125,24,987,-15,24,1
105,-162,0,989,-20,6,-4
106,-95,-19,987,-20,-16,-10
107,47,-48,1011,-17,-27,-13
108,121,-57,1006,-11,-16,-14
109,129,-24,1004,-5,5,-7
110,26,2,1003,-10,25,-1
111,-107,19,998,-15,28,1
112,-161,9,972,-19,9,-3
113,-109,-14,986,-21,-14,-8
114,21,-50,1008,-17,-29,-13
115,115,-59,1008,-13,-20,-14
116,141,-31,1005,-9,2,-8
117,39,0,1003,-6,24,-3
118,-85,16,1002,-10,28,1
119,-157,14,971,-18,13,-2
120,-124,-6,992,-21,-9,-7
121,-7,-51,1006,-23,-27,-12
122,108,-53,995,-14,-23,-13
123,149,-41,1009,-9,-3,-10
124,59,-8,1007,-8,21,-2
125,-61,13,1004,-10,30,0
126,-155,24,975,-18,18,-1
127,-139,-1,994,-19,-6,-5
128,-32,-45,997,-22,-26,-12
129,96,-50,1005,-16,-23,-14
130,151,-48,1001,-11,-7,-12
131,78,-17,1006,-8,17,-4
132,-41,12,999,-10,28,2
133,-146,26,984,-16,20,1
134,-146,-2,995,-19,-2,-5
135,-62,-36,986,-20,-23,-11
136,86,-47,1007,-17,-29,-13
137,142,-52,1012,-11,-12,-11
138,96,-21,999,-7,14,-3
139,-12,8,995,-10,29,-2
140,-140,22,983,-15,24,2
141,-150,-1,992,-19,2,-4
142,-80,-25,989,-20,-20,-11
143,65,-43,1004,-15,-27,-12
144,133,-53,1012,-13,-13,-14
145,116,-25,1007,-7,8,-6
146,8,4,991,-9,26,-2
147,-120,16,993,-15,26,1
148,-160,2,984,-19,5,-4
149,-96,-17,987,-21,-15,-9
150,38,-46,1012,-18,-28,-14
151,119,-54,1006,-12,-17,-14
152,134,-26,1005,-7,5,-8
153,26,3,1004,-8,25,-3
154,-102,12,999,-14,29,1
155,-158,9,972,-17,11,-3
156,-115,-12,987,-20,-13,-6
157,9,-52,1008,-18,-26,-13
158,114,-53,1006,-12,-19,-13
159,143,-30,1005,-8,0,-8
160,47,-3,1006,-7,23,-2
161,-82,13,1002,-11,27,1
162,-159,16,968,-20,16,-1
163,-129,-9,999,-20,-8,-8
164,-17,-50,993,-21,-27,-12
165,107,-50,1001,-12,-23,-14
166,151,-41,1006,-8,-4,-10
167,60,-6,1011,-8,22,-2
168,-50,13,999,-12,28,0
169,-162,21,979,-17,18,0
170,-138,-6,990,-22,-6,-6
171,-42,-48,1000,-19,-23,-13
172,93,-49,1002,-14,-25,-13
173,149,-48,1008,-11,-9,-13
174,87,-18,999,-6,16,-3
175,-34,14,997,-8,29,0
176,-142,23,989,-17,23,0
177,-150,-2,995,-19,1,-4
178,-70,-33,980,-21,-21,-10
179,76,-48,1011,-16,-28,-15
180,140,-54,1009,-10,-12,-11
181,103,-23,1005,-8,13,-4
182,-5,10,992,-9,27,-2
183,-134,25,987,-15,23,2
184,-155,0,988,-19,2,-5
185,-88,-23,991,-21,-18,-10
186,57,-46,1008,-18,-28,-13
187,129,-58,1008,-11,-15,-14
188,120,-22,1004,-6,7,-6
189,12,5,999,-9,25,-2
190,-115,17,995,-13,26,2
191,-162,6,978,-20,8,-3
192,-102,-15,993,-21,-15,-8
193,34,-51,1005,-17,-28,-12
194,119,-54,1008,-12,-18,-14
195,136,-29,1005,-9,3,-9
196,30,1,1002,-10,25,-2
197,-94,14,1002,-14,26,1
198,-159,12,972,-19,12,-2
199,-120,-11,992,-20,-11,-8
200,6,-50,1006,-18,-27,-13
201,108,-52,998,-14,-21,-13
202,149,-33,1007,-8,-3,-10
203,46,-6,1006,-7,21,-3
204,-70,14,1002,-12,26,1
205,-157,18,976,-18,14,-2
206,-132,-9,993,-22,-9,-5
207,-20,-49,998,-21,-26,-13
208,101,-50,1000,-12,-24,-14
209,151,-43,1006,-8,-6,-10
210,70,-10,1005,-7,19,-4
211,-48,12,1002,-10,28,0
212,-152,26,982,-16,19,0
213,-142,-5,993,-19,-4,-5
214,-48,-36,994,-21,-23,-12
215,91,-50,1012,-15,-25,-13
216,145,-50,1000,-11,-11,-11
217,88,-23,1004,-6,15,-4
218,-26,10,997,-8,27,-1
219,-143,26,989,-16,23,0
220,-147,0,997,-21,2,-5
221,-75,-28,986,-22,-20,-10
222,76,-45,1004,-18,-27,-14
223,133,-54,1013,-11,-12,-13
224,108,-27,1005,-8,11,-5
225,0,5,993,-7,27,-2
226,-129,22,987,-14,25,2
227,-157,1,988,-19,5,-5
228,-89,-18,988,-21,-17,-9
229,50,-43,1011,-18,-27,-13
230,123,-57,1006,-13,-16,-12
231,125,-28,1002,-8,4,-7
232,18,3,1001,-9,24,-2
233,-113,7,995,-12,27,1
234,-158,7,977,-15,9,-3
235,-106,-10,986,-20,-16,-7
236,23,-44,1009,-17,-29,-11
237,115,-52,1008,-13,-18,-12
238,140,-27,1005,-9,2,-8
239,34,-3,1003,-6,23,-2
240,-88,8,1001,-10,27,2
241,-158,10,972,-18,13,-2
242,-121,-11,991,-19,-9,-8
243,-5,-45,1005,-18,-26,-13
244,112,-48,998,-13,-22,-13
245,141,-33,1008,-9,-2,-9
246,58,-6,1005,-9,20,-3
247,-67,4,1008,-12,30,-1
248,-156,14,967,-17,17,-1
249,-133,-7,998,-18,-7,-7
250,-26,-41,994,-18,-27,-13
251,96,-46,1003,-14,-24,-14
252,148,-42,1005,-11,-6,-12
253,71,-13,1005,-10,18,-3
254,-41,12,997,-10,27,-1
255,-151,19,988,-16,19,0
256,-142,-11,990,-20,-3,-5
257,-57,-39,992,-19,-23,-12
258,85,-43,1006,-14,-26,-13
259,144,-45,1009,-9,-10,-12
260,91,-16,999,-7,15,-4
261,-20,12,999,-11,27,-2
262,-139,21,985,-17,24,2
263,-151,-10,996,-20,1,-3
264,-78,-29,982,-20,-21,-9
265,69,-47,1008,-13,-27,-14
266,133,-51,1009,-10,-13,-13
267,113,-19,1007,-7,11,-6
268,2,12,994,-9,26,-2
269,-124,21,986,-14,25,1
270,-155,-2,990,-20,4,-4
271,-92,-23,988,-20,-18,-10
272,44,-46,1008,-17,-28,-13
273,125,-57,1007,-11,-17,-14
274,126,-23,1006,-6,6,-6
275,27,5,996,-9,25,-1
276,-111,15,1006,-15,28,2
277,-160,6,970,-19,9,-2
278,-108,-13,984,-21,-14,-8
279,20,-49,1012,-17,-27,-13
280,114,-55,1004,-11,-18,-13
281,143,-25,1007,-8,1,-10
282,36,-1,1004,-8,23,-2
283,-82,15,1000,-11,27,0
284,-160,9,973,-20,12,-1
285,-128,-8,991,-20,-10,-8
286,-2,-53,999,-17,-25,-13
287,105,-52,1000,-12,-22,-12
288,149,-35,1006,-7,-3,-9
289,57,-4,1012,-8,21,-3
290,-64,15,1002,-13,28,1
291,-153,20,976,-18,18,0
292,-136,-7,995,-20,-7,-6
293,-31,-47,993,-19,-25,-12
294,94,-48,1008,-14,-24,-13
295,150,-47,999,-10,-5,-11
296,80,-11,1008,-6,18,-4
297,-40,17,999,-11,27,-1
298,-149,27,986,-17,20,0
299,-142,-7,993,-20,-2,-6
300,-64,-39,992,-20,-22,-11
301,88,-50,1006,-15,-27,-14
302,142,-52,1012,-10,-11,-13
303,97,-19,1000,-8,14,-4
304,-17,10,998,-11,30,-2
305,-139,25,989,-15,23,0
306,-154,0,990,-21,2,-5
307,-80,-31,985,-20,-20,-11
308,67,-45,1008,-17,-28,-12
309,131,-54,1007,-12,-13,-14
310,114,-27,1008,-8,10,-6
311,8,7,996,-8,26,-1
312,-124,19,984,-14,25,3
313,-159,1,990,-18,6,-4
314,-97,-17,987,-20,-15,-8
315,44,-45,1009,-19,-26,-13
316,120,-58,1006,-13,-16,-13
317,134,-24,1005,-8,3,-7
318,23,2,1004,-10,25,-2
319,-107,14,999,-12,27,0
320,-165,5,970,-18,8,-3
321,-110,-7,986,-21,-14,-8
322,16,-45,1012,-18,-28,-13
323,116,-52,1005,-13,-19,-14
324,140,-35,1006,-10,2,-8
325,42,-2,1004,-8,22,-2
326,-84,10,1000,-11,27,1
327,-157,14,971,-17,14,0
328,-125,-6,996,-20,-9,-6
329,-8,-44,997,-19,-26,-14
330,109,-49,1001,-14,-22,-15
331,146,-40,1006,-9,-4,-10
332,59,-8,1009,-9,20,-2
333,-60,9,1004,-11,29,1
334,-156,17,970,-16,17,-1
335,-134,-8,997,-19,-6,-6
336,-35,-43,993,-19,-25,-12
337,98,-43,1006,-14,-23,-13
338,148,-43,1003,-10,-6,-11
339,76,-16,1002,-8,18,-4
340,-36,8,1002,-11,27,-2
341,-149,21,985,-16,21,1
342,-148,-9,989,-19,-1,-6
343,-62,-39,993,-21,-21,-12
344,82,-41,1001,-17,-24,-12
345,147,-48,1013,-19,-25,-16
346,100,-18,1002,-13,7,-7
347,-18,10,993,-10,30,-1
348,-135,21,991,-16,24,2
349,-158,-6,996,-20,1,-4
350,-77,-26,985,-21,-20,-10
351,64,-44,1009,-15,-27,-13
352,135,-53,1014,-10,-14,-12
353,118,-21,1002,-8,9,-5
354,2,10,997,-9,26,-2
355,-125,18,990,-15,25,1
356,-158,-3,986,-20,6,-4
357,-97,-18,987,-21,-16,-9
358,43,-48,1013,-18,-29,-14
359,121,-52,1006,-12,-17,-14
360,127,-22,1004,-7,5,-7
361,27,5,1004,-10,25,-3
362,-105,11,1000,-14,28,1
363,-158,7,968,-18,10,-3
364,-115,-16,988,-21,-13,-8
365,16,-48,1008,-17,-28,-16
366,115,-52,1008,-13,-18,-13
367,144,-27,1005,-7,2,-9
368,45,-1,1008,-8,23,-2
369,-78,13,999,-13,27,1
370,-157,10,972,-19,13,-2
371,-123,-10,998,-20,-9,-8
372,-11,-54,995,-20,-27,-13
373,105,-46,1001,-13,-23,-13
374,148,-37,1008,-9,-4,-11
375,58,-5,1008,-8,20,-3
376,-56,12,1001,-13,29,1
377,-155,18,980,-18,18,0
378,-136,-7,990,-20,-6,-5
379,-40,-45,998,-20,-24,-12
380,93,-47,1005,-13,-23,-13
381,148,-43,1003,-10,-7,-12
382,81,-13,1002,-7,17,-3
383,-37,15,1001,-11,27,0
384,-148,23,985,-18,21,-1
385,-148,-8,993,-21,0,-5
386,-63,-40,985,-20,-22,-11
387,80,-44,1010,-15,-28,-13
388,145,-49,1011,-9,-10,-14
389,98,-20,1004,-7,14,-5
390,-11,11,996,-12,27,-1
391,-136,22,989,-15,23,1
392,-157,-4,992,-19,2,-5
393,-82,-26,986,-22,-20,-11
394,63,-42,1006,-16,-28,-13
395,132,-55,1010,-13,-12,-13
396,117,-24,1009,-7,9,-5
397,7,5,989,-8,25,-2
398,-122,16,993,-15,26,1
399,-162,0,985,-19,8,-3
400,-97,-20,988,-22,-16,-9
401,40,-47,1010,-18,-29,-13
402,119,-54,1004,-12,-19,-13
403,133,-24,1007,-7,4,-8
404,26,1,999,-11,25,-1
405,-107,15,1005,-14,28,2
406,-156,3,968,-21,10,-2
407,-118,-13,986,-20,-13,-8
408,17,-46,1008,-18,-28,-13
409,111,-54,1009,-14,-19,-14
410,148,-31,1001,-10,1,-9
411,42,-2,1009,-9,23,-4
412,-80,12,995,-11,27,0
413,-162,9,975,-18,15,-1
414,-130,-8,993,-20,-9,-8
415,-11,-46,999,-18,-26,-13
416,109,-49,999,-13,-23,-13
417,145,-38,1005,-10,-5,-9
418,65,-10,1010,-10,21,-4
419,-60,9,1003,-12,28,1
420,-157,20,972,-17,19,1
421,-137,-6,999,-21,-4,-6
422,-39,-43,990,-21,-23,-12
423,96,-45,1005,-14,-24,-13
424,151,-42,1006,-11,-7,-11
425,78,-11,999,-8,17,-3
426,-35,6,1003,-11,27,-2
427,-147,20,985,-16,20,0
428,-146,-9,993,-20,0,-5
429,-66,-37,992,-20,-22,-11
430,80,-43,1009,-14,-27,-14
431,144,-49,1007,-11,-12,-12
432,98,-21,1002,-7,13,-5
433,-12,10,994,-10,28,-2
434,-137,19,993,-15,26,2
435,-158,-4,990,-19,2,-4
436,-82,-29,988,-21,-19,-10
437,65,-46,1007,-17,-26,-14
438,129,-53,1010,-11,-13,-12
439,121,-23,1007,-7,10,-6
440,8,5,996,-10,27,-2
441,-122,17,986,-14,25,1
442,-163,0,986,-18,7,-5
443,-101,-21,988,-21,-16,-9
444,43,-46,1009,-16,-29,-13
445,122,-56,1007,-12,-19,-14
446,136,-22,1004,-8,4,-7
447,27,2,999,-11,26,-2
448,-108,14,1001,-13,30,1
449,-162,4,972,-18,11,-2
450,-115,-15,985,-19,-13,-8
451,17,-53,1011,-19,-29,-12
452,118,-51,1009,-13,-19,-14
453,143,-27,1006,-9,0,-7
454,43,0,1006,-9,22,-3
455,-83,12,1001,-11,28,1
456,-160,14,972,-18,14,-1
457,-129,-9,995,-20,-9,-8
458,-10,-45,998,-19,-26,-12
459,111,-52,1001,-13,-24,-14
460,149,-35,1003,-9,-5,-10
461,61,-4,1013,-9,19,-3
462,-62,10,1004,-13,30,0
463,-160,21,971,-16,17,0
464,-139,-4,994,-20,-8,-7
465,-38,-43,995,-20,-26,-12
466,97,-46,1004,-14,-24,-14
467,150,-43,1005,-10,-7,-12
468,80,-11,1002,-8,17,-2
469,-41,11,1004,-11,29,0
470,-151,24,983,-15,22,1
471,-149,-4,994,-20,-2,-5
472,-64,-37,991,-20,-23,-12
473,85,-43,1008,-14,-27,-13
474,148,-49,1008,-10,-11,-12
475,97,-22,1003,-7,14,-5
476,-11,8,994,-9,28,-1
477,-142,20,989,-14,26,2
478,-156,-2,992,-19,2,-4
479,-83,-32,988,-20,-20,-10
480,69,-45,1005,-16,-28,-13
481,135,-55,1017,-11,-13,-12
482,120,-21,1004,-9,9,-4
483,5,6,994,-9,24,-1
484,-126,17,988,-14,26,3
485,-163,-1,988,-19,6,-3
486,-94,-19,988,-21,-17,-9
487,42,-45,1009,-17,-28,-13
488,127,-52,1006,-12,-17,-13
489,133,-26,1005,-7,6,-8
490,26,3,1000,-10,25,-2
491,-107,11,1000,-13,29,2
492,-164,8,973,-18,11,-2
493,-114,-11,983,-21,-14,-8
494,18,-47,1011,-17,-27,-14
495,117,-55,1007,-14,-20,-13
496,144,-27,1006,-8,0,-8
497,41,-3,1005,-8,22,-2
498,-88,12,999,-12,27,1
499,-162,11,970,-18,13,0
500,-125,-8,996,-20,-9,-8
501,-5,-48,1003,-18,-27,-13
502,108,-48,998,-12,-23,-14
503,147,-36,1008,-8,-5,-9
504,56,-5,1011,-9,20,-4
505,-61,9,1002,-12,30,0
506,-156,17,975,-17,18,0
507,-135,-5,991,-19,-7,-6
508,-33,-45,1000,-20,-26,-12
509,97,-47,1000,-15,-23,-12
510,151,-45,1007,-10,-5,-11
511,77,-16,1003,-8,18,-3
512,-42,10,1002,-11,27,-1
513,-152,21,983,-17,20,0
514,-145,-6,993,-21,-2,-5
515,-61,-38,992,-21,-22,-12
516,88,-46,1006,-14,-25,-13
517,146,-50,1012,-10,-10,-11
518,96,-22,997,-7,13,-4
519,-17,7,997,-9,28,-2
520,-141,23,987,-17,22,2
521,-155,-3,992,-21,1,-5
522,-76,-28,985,-19,-21,-12
523,68,-44,1010,-15,-28,-14
524,139,-54,1011,-12,-12,-12
525,114,-26,1009,-7,11,-4
526,6,5,990,-10,26,-1
527,-130,17,990,-14,25,1
528,-161,3,987,-18,5,-5
529,-96,-18,991,-21,-17,-10
530,48,-46,1007,-17,-28,-15
531,124,-56,1009,-12,-17,-14
532,130,-27,1003,-8,5,-7
533,21,2,1002,-9,25,-2
534,-109,13,1001,-13,28,2
535,-162,7,969,-18,12,-1
536,-111,-11,989,-20,-14,-8
537,20,-45,1011,-18,-29,-13
538,116,-53,1007,-13,-19,-14
539,144,-31,1007,-9,1,-9
540,38,-3,1006,-8,24,-2
541,-92,11,993,-13,28,2
542,-157,9,975,-17,13,-2
543,-128,-6,990,-21,-9,-7
544,0,-46,1001,-19,-26,-15
545,108,-47,1004,-14,-21,-14
546,146,-35,1003,-8,-3,-10
547,55,-6,1012,-8,21,-4
548,-66,8,1002,-12,28,0
549,-156,13,974,-17,17,-1
550,-133,-8,994,-20,-7,-6
551,-34,-40,993,-20,-26,-13
552,103,-47,1007,-13,-25,-13
553,149,-42,1002,-10,-6,-12
554,73,-13,1004,-7,18,-3
555,-41,9,1005,-10,27,0
556,-155,19,978,-16,20,0
557,-146,-4,992,-17,-3,-6
558,-59,-41,998,-19,-23,-12
559,89,-43,1005,-13,-26,-13
560,150,-48,1006,-10,-12,-12
561,94,-18,1004,-7,13,-5
562,-19,8,992,-10,28,0
563,-145,24,991,-15,25,2
564,-156,-6,991,-20,1,-3
565,-77,-32,986,-20,-20,-11
566,68,-44,1004,-15,-27,-13
567,142,-51,1017,-12,-12,-13
568,115,-23,1002,-9,10,-6
569,-3,9,993,-11,26,-1
570,-129,18,986,-15,25,2
571,-165,-1,990,-18,5,-3
572,-95,-21,985,-22,-18,-9
573,52,-47,1011,-18,-28,-13
574,128,-55,1007,-12,-16,-13
575,132,-23,1000,-7,6,-7
576,18,4,1004,-9,25,-2
577,-110,16,994,-14,28,2
578,-166,1,975,-17,10,-3
579,-108,-10,986,-18,-14,-7
580,27,-49,1012,-17,-29,-13
581,118,-55,1005,-12,-18,-14
582,143,-30,1006,-7,3,-8
583,38,0,1004,-8,24,-2
584,-91,11,998,-12,28,1
585,-160,11,973,-17,12,-1
586,-126,-10,988,-20,-11,-8
587,0,-48,1004,-16,-27,-13
588,112,-52,999,-14,-23,-13
589,151,-35,1004,-8,-3,-10
590,52,-5,1011,-8,22,-2
591,-69,8,999,-14,29,0
592,-159,13,975,-16,17,0
593,-134,-6,993,-20,-8,-4
594,-26,-43,996,-20,-26,-12
595,104,-49,1001,-15,-25,-14
596,149,-42,1009,-11,-6,-11
597,71,-13,1003,-9,19,-4
598,-46,8,1007,-10,30,0
599,-155,22,976,-17,20,1
600,-144,-8,994,-20,-3,-5
601,-50,-37,995,-20,-23,-11
602,89,-45,1006,-16,-27,-14
603,148,-43,1003,-10,-10,-12
604,89,-19,1005,-8,14,-5
605,-23,7,993,-10,27,-2
606,-145,20,990,-17,23,1
607,-153,-1,993,-20,1,-4
608,-75,-33,984,-20,-21,-12
609,74,-42,1006,-13,-27,-14
610,139,-50,1016,-10,-13,-11
611,109,-21,1001,-9,12,-5
612,-3,6,994,-9,27,-1
613,-130,22,986,-14,24,2
614,-160,-6,988,-19,6,-3
615,-89,-23,989,-19,-17,-10
616,53,-48,1009,-17,-27,-12
617,126,-51,1005,-10,-14,-12
618,126,-23,1005,-7,7,-7
619,18,2,1001,-9,26,-2
620,-116,11,994,-15,27,2
621,-162,2,977,-21,8,-3
622,-106,-16,985,-21,-15,-8
623,28,-48,1012,-17,-29,-15
624,115,-54,1008,-11,-19,-14
625,141,-29,1006,-7,3,-8
626,34,0,1000,-9,24,-3
627,-94,15,1003,-12,27,1
628,-161,9,968,-20,12,-1
629,-123,-12,990,-20,-10,-6
630,3,-48,1005,-19,-27,-12
631,113,-49,1003,-15,-21,-14
632,147,-35,1007,-9,-2,-9
633,48,-4,1005,-9,21,-3
634,-69,8,1004,-13,28,0
635,-157,15,975,-18,17,-1
636,-136,-7,993,-20,-8,-7
637,-24,-42,1000,-18,-26,-13
638,98,-45,999,-13,-24,-12
639,153,-39,1004,-9,-6,-10
640,69,-12,1010,-8,19,-2
641,-49,11,1001,-11,28,0
642,-152,17,974,-18,18,0
643,-143,-6,994,-19,-4,-6
644,-51,-41,994,-18,-24,-12
645,91,-42,1008,-17,-25,-14
646,152,-43,1004,-10,-9,-12
647,89,-16,1000,-7,15,-4
648,-23,11,996,-11,27,-1
649,-146,21,991,-17,23,1
650,-152,-4,993,-19,1,-4
651,-75,-36,983,-19,-21,-11
652,75,-44,1007,-15,-28,-13
653,142,-50,1010,-12,-13,-13
654,106,-18,1006,-10,12,-5
655,-3,8,990,-11,27,-3
656,-137,19,989,-16,23,1
657,-157,-4,987,-19,3,-4
658,-90,-26,991,-20,-17,-9
659,58,-45,1005,-15,-27,-12
660,127,-53,1009,-13,-15,-14
661,125,-20,1006,-8,6,-6
662,17,3,996,-11,26,-3
663,-116,13,995,-14,28,1
664,-164,2,978,-19,10,-3
665,-105,-15,985,-20,-14,-9
666,31,-50,1010,-17,-29,-14
667,116,-53,1006,-11,-18,-13
668,144,-28,1006,-8,3,-8
669,32,0,1003,-9,24,-1
670,-98,14,999,-12,27,2
671,-156,8,974,-17,10,-4
672,-126,-11,987,-20,-11,-8
673,3,-46,1003,-19,-28,-13
674,111,-53,1008,-14,-22,-14
675,146,-33,1003,-9,-3,-8
676,52,-5,1010,-7,21,-1
677,-72,12,999,-11,27,1
678,-161,18,971,-18,15,1
679,-133,-8,996,-12,-5,-6
680,-24,-47,996,-19,-27,-13
681,103,-49,1002,-14,-25,-13
682,151,-43,1005,-10,-5,-12
683,70,-13,1010,-8,18,-3
684,-47,7,1002,-11,29,0
685,-155,21,979,-16,19,0
686,-142,-4,990,-19,-5,-6
687,-52,-40,998,-20,-24,-12
688,91,-44,1005,-16,-26,-14
689,149,-49,1006,-11,-9,-13
690,90,-21,1000,-5,14,-3
691,-26,8,999,-12,28,1
692,-148,22,987,-16,25,2
693,-154,-1,994,-18,1,-5
694,-70,-30,984,-20,-22,-12
695,76,-44,1009,-15,-28,-14
696,143,-50,1013,-12,-14,-12
697,108,-27,1004,-10,13,-6
698,-7,5,991,-10,28,-1
699,-134,19,988,-15,25,2
700,-160,-1,993,-18,2,-5
701,-90,-23,985,-20,-18,-9
702,59,-44,1009,-16,-28,-14
703,131,-52,1008,-13,-16,-13
704,126,-22,1005,-8,6,-6
705,17,1,995,-9,26,-2
706,-121,13,998,-14,26,2
707,-163,0,974,-19,8,-2
708,-106,-16,991,-20,-15,-8
709,36,-48,1007,-17,-29,-13
710,119,-50,1007,-12,-18,-13
711,142,-25,1006,-9,3,-8
712,33,-1,1007,-9,24,-3
713,-100,11,996,-13,28,2
714,-164,5,974,-18,10,-2
715,-119,-10,986,-19,-12,-7
716,8,-50,1005,-18,-27,-13
717,111,-49,1006,-13,-21,-14
718,153,-31,1008,-8,-1,-9
719,48,0,1004,-9,21,-3
720,-76,10,1003,-14,28,0
721,-158,11,972,-18,15,-3
722,-134,-12,991,-21,-8,-7
723,-18,-48,997,-18,-27,-13
724,106,-48,1003,-12,-24,-14
725,148,-36,1002,-8,-6,-10
726,67,-6,1013,-9,20,-2
727,-54,11,1002,-10,28,0
728,-153,17,976,-17,18,2
729,-142,-9,994,-20,-5,-5
730,-46,-46,996,-20,-24,-11
731,95,-48,1003,-15,-25,-14
732,146,-45,1008,-9,-7,-12
733,87,-12,999,-6,16,-4
734,-31,11,999,-9,26,-1
735,-149,24,987,-17,22,1
736,-150,-4,995,-21,1,-5
737,-68,-36,986,-20,-22,-12
738,76,-45,1004,-14,-28,-14
739,142,-51,1014,-10,-12,-13
740,103,-21,1006,-8,13,-5
741,-9,9,992,-9,30,-1
742,-136,20,987,-15,25,1
743,-159,0,992,-20,2,-6
744,-86,-25,988,-21,-18,-10
745,63,-46,1009,-16,-28,-13
746,133,-55,1012,-11,-15,-12
747,121,-22,1004,-7,7,-6
748,15,5,998,-8,25,-1
749,-123,19,991,-14,27,2
750,-161,1,982,-20,7,-3
751,-99,-17,988,-21,-15,-8
752,37,-45,1010,-18,-28,-13
753,124,-55,1008,-11,-17,-14
754,134,-30,1004,-8,4,-8
755,31,3,1003,-8,23,-3
756,-102,13,999,-14,28,1
757,-163,11,971,-18,13,-2
758,-117,-11,985,-22,-12,-8
759,13,-48,1009,-20,-29,-14
760,112,-55,1004,-13,-19,-13
761,149,-35,1005,-9,1,-9
762,42,-5,1006,-8,21,-2
763,-81,11,999,-12,28,1
764,-161,16,974,-16,14,-2
765,-129,-11,996,-20,-8,-8
766,-13,-42,994,-19,-26,-13
767,106,-49,1002,-14,-23,-13
768,152,-39,1005,-9,-6,-9
769,59,-9,1012,-9,20,-2
770,-58,11,1001,-11,29,0
771,-158,13,978,-17,19,-1
772,-137,-3,989,-17,-5,-5
773,-40,-45,995,-18,-24,-12
774,98,-42,1007,-14,-25,-13
775,150,-44,1003,-9,-8,-10
776,81,-14,1002,-8,17,-3
777,-41,7,1001,-12,28,-1
778,-149,22,981,-18,21,0
779,-145,-9,993,-21,-1,-5
780,-61,-38,990,-19,-22,-12
781,81,-44,1007,-15,-27,-13
782,144,-49,1009,-9,-12,-12
783,97,-19,1004,-7,14,-4
784,-13,9,992,-11,27,-2
785,-140,19,987,-15,23,1
786,-153,-3,995,-19,0,-4
787,-84,-27,985,-19,-20,-9
788,64,-45,1004,-16,-27,-13
789,134,-52,1016,-12,-14,-13
790,119,-21,1003,-8,9,-6
791,7,4,994,-8,26,-1
792,-127,19,990,-13,25,2
793,-160,-1,985,-20,6,-3
794,-101,-20,990,-21,-16,-10
795,45,-48,1010,-16,-29,-13
796,126,-54,1004,-12,-17,-14
797,135,-26,1005,-6,3,-8
798,26,5,1003,-10,25,-2
799,-107,14,1000,-14,29,1
800,-164,7,972,-18,11,-1
801,-115,-15,986,-21,-13,-7
802,19,-49,1012,-17,-29,-14
803,118,-53,1005,-13,-20,-14
804,148,-28,1007,-8,1,-8
805,41,0,1003,-8,24,-3
806,-89,15,1002,-12,27,1
807,-161,13,972,-17,14,-2
808,-128,-12,994,-21,-8,-7
809,-7,-50,1001,-20,-27,-14
810,106,-51,998,-13,-21,-14
811,153,-34,1011,-7,-3,-10
812,58,-2,1009,-8,21,-3
813,-65,13,1004,-13,29,1
814,-157,18,974,-17,17,0
815,-141,-6,991,-21,-6,-6
816,-32,-45,996,-20,-26,-12
817,99,-50,1008,-13,-25,-14
818,150,-43,999,-11,-6,-12
819,77,-13,1008,-8,18,-4
820,-44,12,1000,-11,26,0
821,-149,23,983,-17,20,2
822,-149,-7,993,-19,-1,-5
823,-60,-40,993,-20,-22,-10
824,91,-47,1007,-14,-27,-13
825,142,-50,1005,-10,-12,-12
826,95,-18,1000,-7,14,-3
827,-18,7,998,-10,29,-1
828,-143,23,987,-15,25,2
829,-152,0,996,-20,0,-5
830,-79,-33,984,-19,-22,-10
831,68,-42,1006,-15,-28,-12
832,141,-56,1014,-11,-13,-13
833,114,-29,1009,-6,10,-6
834,2,7,987,-9,26,-2
835,-129,21,991,-16,25,1
836,-161,0,990,-21,4,-4
837,-94,-20,988,-19,-16,-10
838,50,-45,1010,-16,-28,-12
839,129,-56,1007,-12,-18,-13
840,128,-27,1003,-7,6,-7
841,22,0,997,-9,27,-2
842,-112,12,1002,-14,28,0
843,-165,5,972,-19,9,-1
844,-107,-9,989,-20,-14,-7
845,25,-45,1011,-17,-29,-14
846,115,-51,1005,-12,-20,-13
847,146,-26,1007,-9,2,-8
848,35,-6,1004,-10,24,-2
849,-90,10,997,-13,27,1
850,-162,4,974,-17,12,-2
851,-125,-7,989,-20,-10,-8
852,2,-46,1004,-18,-27,-13
853,108,-46,1004,-13,-22,-14
854,151,-33,1005,-9,-3,-8
855,54,-8,1008,-9,20,-2
856,-75,7,1002,-13,28,1
857,-156,9,973,-18,16,-2
858,-137,-6,992,-20,-8,-6
859,-25,-44,996,-19,-27,-12
860,104,-47,1002,-14,-24,-13
861,150,-39,1005,-10,-5,-10
862,71,-12,1006,-9,20,-4
863,-51,8,1004,-11,29,0
864,-155,15,979,-17,19,1
865,-144,-5,988,-20,-4,-5
866,-50,-40,999,-19,-24,-11
867,97,-43,1008,-16,-26,-13
868,145,-46,1000,-11,-10,-12
869,87,-17,1003,-7,16,-4
870,-26,7,999,-9,28,-1
871,-144,21,988,-16,23,1
872,-150,-5,993,-21,0,-5
873,-75,-35,986,-20,-22,-11
874,75,-44,1004,-15,-28,-12
875,143,-50,1015,-10,-13,-13
876,109,-22,1005,-8,12,-5
877,-3,6,990,-11,28,-1
878,-136,21,987,-15,24,2
879,-161,-3,993,-20,4,-5
880,-88,-25,988,-20,-18,-10
881,57,-48,1004,-15,-28,-13
882,131,-54,1015,-13,-15,-13
883,127,-23,1002,-8,8,-5
884,16,4,999,-9,25,-3
885,-121,14,995,-15,27,1
886,-166,0,978,-18,8,-3
887,-103,-17,987,-20,-14,-7
888,31,-47,1011,-18,-30,-13
889,122,-51,1008,-12,-20,-14
890,140,-31,1002,-9,5,-8
891,34,3,1005,-9,24,-3
892,-97,11,1002,-14,28,2
893,-166,10,967,-17,11,-1
894,-120,-10,988,-20,-11,-7
895,8,-48,1008,-17,-26,-13
896,113,-51,1000,-13,-20,-13
897,150,-31,1007,-9,-1,-8
898,48,-4,1008,-8,23,-1
899,-76,7,999,-12,29,1
900,-161,11,975,-18,16,-2
901,-133,-8,992,-21,-6,-7
902,-17,-44,1001,-20,-26,-12
903,106,-45,997,-13,-24,-13
904,147,-37,1010,-11,-5,-10
905,68,-12,1008,-9,20,-3
906,-55,8,1003,-10,28,0
907,-153,16,973,-16,18,1
908,-143,-6,996,-19,-5,-7
909,-42,-39,995,-20,-26,-11
910,92,-44,1008,-16,-25,-13
911,154,-45,1002,-11,-9,-12
912,82,-18,1001,-8,15,-3
913,-32,10,999,-10,28,-1
914,-148,19,989,-18,23,0
915,-149,-6,988,-20,0,-5
916,-70,-39,988,-19,-22,-12
917,84,-42,1003,-14,-28,-14
918,143,-51,1012,-11,-11,-12
919,105,-17,1004,-8,13,-5
920,-11,4,995,-11,29,-1
921,-139,23,983,-13,25,2
922,-158,-1,996,-20,2,-3
923,-86,-26,985,-20,-20,-10
924,66,-48,1007,-15,-28,-13
925,132,-52,1011,-11,-14,-14
926,121,-26,1003,-6,8,-6
927,13,4,993,-9,26,-2
928,-124,20,996,-13,26,1
929,-159,1,978,-19,6,-4
930,-100,-21,990,-19,-16,-9
931,40,-43,1008,-17,-28,-12
932,125,-55,1007,-11,-17,-14
933,134,-30,1004,-7,4,-8
934,30,0,1004,-10,26,-2
935,-104,10,999,-13,28,1
936,-162,9,972,-19,9,-3
937,-115,-7,985,-20,-14,-8
938,14,-49,1011,-18,-27,-13
939,112,-52,1007,-12,-20,-13
940,151,-33,1006,-9,0,-9
941,42,-3,1005,-8,23,-2
942,-81,13,1001,-11,28,0
943,-162,11,978,-18,15,-1
944,-130,-5,991,-20,-7,-7
945,-11,-48,1001,-19,-27,-13
946,108,-48,999,-13,-24,-13
947,151,-38,1006,-9,-4,-10
948,61,-9,1010,-10,20,-4
949,-58,11,999,-10,28,0
950,-155,14,980,-18,19,-1
951,-143,-5,989,-21,-5,-5
952,-36,-43,998,-20,-24,-13
953,93,-46,1005,-16,-25,-14
954,152,-43,1004,-10,-8,-11
955,80,-15,1004,-8,18,-3
956,-38,8,1000,-8,28,0
957,-151,23,984,-16,22,1
958,-149,-7,994,-20,-1,-5
959,-65,-39,986,-21,-21,-12
960,85,-41,1008,-14,-26,-15
961,146,-47,1008,-9,-12,-11
962,100,-18,1002,-7,13,-4
963,-12,9,997,-11,29,-2
964,-139,17,984,-15,25,2
965,-157,-4,997,-21,2,-4
966,-83,-30,985,-22,-22,-11
967,62,-44,1003,-14,-28,-12
968,135,-48,1016,-14,-14,-13
969,118,-22,1007,-8,9,-6
970,9,5,991,-9,25,-2
971,-128,17,992,-15,26,2
972,-159,-2,981,-19,5,-4
973,-100,-20,991,-20,-16,-9
974,44,-45,1008,-17,-28,-13
975,121,-53,1008,-10,-16,-13
976,135,-25,1000,-8,5,-6
977,26,5,1003,-9,26,-1
978,-104,14,1001,-14,27,0
979,-162,4,971,-18,9,-3
980,-114,-12,983,-20,-13,-8
981,13,-52,1013,-18,-27,-14
982,116,-53,1004,-12,-18,-13
983,142,-30,1008,-8,0,-8
984,49,0,1005,-7,21,-3
985,-81,11,999,-11,27,0
986,-161,13,970,-19,15,0
987,-129,-12,998,-20,-8,-7
988,-11,-51,996,-18,-26,-14
989,107,-50,1002,-11,-21,-13
990,154,-35,1007,-7,-4,-10
991,58,-4,1010,-8,21,-3
992,-60,12,1003,-14,28,1
993,-158,12,979,-17,18,0
994,-140,-8,987,-18,-5,-5
995,-35,-48,999,-20,-25,-11
996,101,-47,1005,-13,-25,-14
997,153,-45,1003,-9,-7,-11
998,79,-11,1007,-7,17,-3
999,-42,11,1002,-11,28,-1
1000,-150,21,978,-17,22,0
1001,-150,-7,996,-19,0,-7
1002,-60,-40,991,-19,-22,-12
1003,90,-46,1006,-16,-26,-13
1004,146,-48,1008,-11,-12,-11
1005,98,-17,1005,-8,15,-4
1006,-17,8,994,-11,28,-1
1007,-142,24,988,-14,24,1
1008,-156,-5,996,-20,1,-4
1009,-80,-29,982,-20,-20,-10
1010,70,-42,1009,-15,-28,-13
1011,137,-56,1013,-11,-13,-13
1012,114,-22,1003,-7,11,-5
1013,3,6,997,-10,26,-1
1014,-130,18,985,-13,25,2
1015,-160,-1,984,-19,5,-4
1016,-97,-20,991,-19,-18,-9
1017,46,-44,1009,-15,-29,-12
1018,124,-56,1007,-10,-9,-12
1019,133,-22,1004,-7,5,-7
1020,19,3,1002,-9,27,-1
1021,-105,13,999,-14,28,-1
1022,-163,2,972,-18,9,-2
1023,-108,-10,985,-20,-14,-7
1024,19,-50,1012,-20,-27,-13
1025,117,-51,1006,-12,-19,-14
1026,140,-30,1002,-8,1,-8
1027,39,0,1007,-7,22,-2
1028,-89,13,998,-12,27,1
1029,-161,11,972,-18,14,-1
1030,-123,-11,993,-20,-10,-7
1031,-7,-48,1001,-19,-26,-13
1032,108,-49,997,-13,-22,-13
1033,148,-34,1011,-8,-4,-10
1034,58,-7,1007,-8,21,-3
1035,-65,11,1003,-10,29,0
1036,-156,17,975,-17,16,-1
1037,-135,-9,995,-20,-6,-6
1038,-30,-43,994,-19,-25,-11
1039,96,-46,1005,-15,-23,-13
1040,148,-43,1001,-10,-7,-12
1041,77,-14,1002,-7,16,-3
1042,-42,9,1003,-11,27,-1
1043,-150,21,981,-17,19,1
1044,-143,-5,993,-20,-2,-5
1045,-59,-37,994,-20,-21,-12
1046,87,-41,1007,-16,-27,-14
1047,144,-51,1006,-11,-11,-12
1048,91,-20,1000,-8,15,-4
1049,-15,6,996,-11,27,-2
1050,-143,20,988,-16,22,1
1051,-150,-3,992,-21,0,-4
1052,-82,-30,989,-19,-20,-9
1053,69,-42,1002,-13,-28,-13
1054,133,-53,1016,-12,-13,-12
1055,116,-24,1007,-7,10,-6
1056,2,3,992,-9,27,-1
1057,-124,20,989,-15,25,2
1058,-165,-2,990,-20,5,-3
1059,-93,-18,985,-20,-16,-9
1060,43,-47,1011,-17,-26,-13
1061,125,-54,1008,-13,-17,-13
1062,134,-25,1005,-8,5,-6
1063,23,3,999,-10,27,0
1064,-107,10,1002,-15,28,1
1065,-161,5,971,-19,10,-4
1066,-114,-13,984,-20,-12,-8
1067,21,-49,1011,-17,-28,-14
1068,115,-55,1008,-11,-20,-13
1069,145,-27,1004,-11,2,-7
1070,41,0,1005,-7,23,-2
1071,-86,13,1002,-12,29,1
1072,-163,10,969,-20,14,-2
1073,-127,-9,996,-20,-10,-8
1074,-1,-47,1001,-20,-27,-15
1075,108,-50,999,-13,-21,-13
1076,150,-34,1008,-9,-4,-10
1077,56,-8,1010,-9,22,-3
1078,-63,13,1001,-13,29,1
1079,-158,16,975,-17,17,-1
1080,-136,-5,992,-21,-8,-6
1081,-33,-48,998,-20,-26,-12
1082,98,-47,1003,-14,-24,-14
1083,153,-45,1006,-11,-6,-12
1084,74,-12,1003,-6,17,-4
1085,-43,9,1003,-11,26,0
1086,-152,23,981,-16,19,0
1087,-148,-9,992,-20,-3,-6
1088,-56,-38,991,-20,-22,-12
1089,86,-46,1009,-15,-26,-13
1090,146,-51,1002,-10,-12,-11
1091,95,-19,1006,-6,14,-3
1092,-18,10,995,-9,29,0
1093,-144,22,986,-17,25,2
1094,-154,-4,998,-20,1,-5
1095,-82,-32,981,-21,-21,-9
1096,70,-42,1003,-14,-27,-13
1097,136,-56,1016,-9,-14,-12
1098,116,-20,1003,-8,9,-4
1099,4,5,990,-10,27,-2
1100,-128,23,993,-14,25,2
1101,-161,-1,983,-20,6,-4
1102,-98,-23,989,-21,-16,-9
1103,51,-46,1009,-18,-29,-13
1104,123,-53,1006,-12,-16,-13
1105,131,-22,1004,-8,5,-7
1106,24,5,1003,-10,25,-1
1107,-110,13,998,-13,28,1
1108,-164,3,974,-20,8,-2
1109,-110,-12,984,-20,-14,-7
1110,20,-49,1012,-18,-29,-13
1111,118,-51,1008,-13,-20,-13
1112,143,-29,1006,-10,1,-8
1113,36,-2,1002,-8,23,-3
1114,-88,14,1001,-11,27,0
1115,-159,8,972,-17,12,-2
1116,-123,-8,992,-20,-9,-7
1117,-4,-49,1003,-18,-26,-13
1118,110,-49,999,-13,-23,-13
1119,148,-38,1007,-7,-5,-10
1120,55,-5,1008,-7,20,-3
1121,-67,8,1004,-13,30,1
1122,-154,17,972,-16,18,-1
1123,-138,-8,995,-20,-4,-6
1124,-29,-41,997,-19,-26,-12
1125,95,-51,1002,-14,-25,-13
1126,153,-41,1006,-11,-9,-11
1127,75,-14,1003,-7,18,-3
1128,-43,13,1004,-9,28,0
1129,-146,24,982,-18,19,2
1130,-148,-3,993,-19,-2,-4
1131,-59,-41,990,-21,-22,-11
1132,87,-45,1011,-15,-28,-13
1133,139,-51,1006,-10,-12,-11
1134,97,-18,1002,-5,13,-6
1135,-19,8,997,-11,28,0
1136,-136,24,985,-14,24,1
1137,-154,-6,996,-19,2,-4
1138,-82,-26,984,-22,-21,-9
1139,72,-43,1006,-15,-27,-12
1140,134,-56,1015,-11,-13,-12
1141,114,-20,1003,-9,9,-4
1142,6,5,992,-9,24,-2
1143,-128,20,989,-15,25,2
1144,-159,0,986,-20,6,-3
1145,-98,-20,992,-23,-16,-9
1146,46,-49,1007,-19,-28,-13
1147,124,-56,1006,-12,-16,-14
1148,131,-20,1004,-8,5,-7
1149,25,3,1004,-11,25,-3
1150,-107,15,995,-13,29,1
1151,-166,6,974,-19,10,-2
1152,-110,-12,984,-20,-14,-8
1153,17,-52,1009,-17,-28,-14
1154,119,-55,1006,-11,-20,-14
1155,142,-29,1009,-9,1,-7
1156,41,-5,1001,-8,23,-2
1157,-87,13,1005,-11,28,-1
1158,-156,15,972,-18,12,-2
1159,-128,-8,995,-20,-8,-7
1160,-5,-49,998,-19,-26,-12
1161,107,-51,1000,-14,-23,-12
1162,147,-37,1006,-9,-5,-9
1163,55,-11,1010,-9,21,-2
1164,-61,10,1004,-13,27,1
1165,-156,17,969,-17,17,-1
1166,-138,-6,994,-20,-7,-7
1167,-31,-45,996,-19,-26,-12
1168,91,-45,1003,-14,-24,-13
1169,154,-41,1005,-10,-6,-11
1170,74,-18,1005,-7,17,-3
1171,-40,11,998,-10,26,0
1172,-144,20,989,-17,20,0
1173,-146,-6,991,-20,-1,-4
1174,-56,-34,990,-21,-21,-11
1175,83,-43,1008,-16,-26,-14
1176,140,-45,1006,-11,-11,-11
1177,98,-22,1001,-7,13,-5
1178,-18,7,994,-10,28,-2
1179,-134,18,989,-14,24,2
1180,-154,-2,994,-18,1,-5
1181,-83,-26,985,-19,-20,-11
1182,68,-44,1007,-15,-28,-14
1183,127,-54,1012,-12,-13,-13
1184,120,-22,1005,-9,8,-5
1185,7,2,998,-9,25,-2
1186,-125,16,984,-15,25,1
1187,-157,-2,990,-19,7,-4
1188,-97,-17,988,-19,-15,-9
1189,42,-44,1009,-16,-28,-12
1190,124,-53,1008,-11,-18,-13
1191,131,-27,1004,-6,4,-7
1192,29,2,1000,-9,24,-1
1193,-105,9,1003,-14,27,2
1194,-158,8,970,-19,9,-2
1195,-115,-13,986,-19,-13,-7
1196,18,-45,1009,-17,-28,-13
1197,115,-55,1008,-13,-20,-14
1198,144,-27,1003,-8,1,-9
1199,43,-3,1010,-9,21,-2
1200,-84,11,997,-11,28,2
1201,-162,13,972,-17,14,0
1202,-127,-10,993,-21,-9,-6
1203,-11,-49,999,-18,-26,-13
1204,107,-48,996,-12,-23,-13
1205,150,-38,1010,-9,-4,-10
1206,60,-4,1010,-8,20,-2
1207,-60,11,1000,-12,28,1
1208,-155,17,978,-18,17,0
1209,-137,-8,991,-19,-7,-6
1210,-37,-44,992,-21,-25,-12
1211,94,-48,1008,-13,-25,-12
1212,149,-44,1004,-11,-8,-12
1213,80,-13,1003,-6,15,-4
1214,-40,11,1002,-8,27,0
1215,-147,22,984,-17,22,0
1216,-146,-5,993,-19,0,-5
1217,-64,-37,991,-18,-23,-11
1218,83,-42,1006,-15,-27,-14
1219,141,-51,1010,-10,-12,-13
1220,97,-21,1004,-8,14,-5
1221,-12,9,991,-11,28,-1
1222,-136,21,990,-15,24,1
1223,-152,0,992,-20,2,-2
1224,-84,-27,986,-21,-20,-10
1225,64,-45,1012,-16,-28,-13
1226,134,-56,1009,-12,-14,-13
1227,116,-22,1009,-6,9,-6
1228,11,4,995,-9,26,-1
1229,-126,14,990,-15,26,1
1230,-155,-1,985,-18,6,-3
1231,-102,-15,990,-20,-14,-9
1232,44,-44,1007,-18,-27,-14
1233,118,-55,1008,-11,-17,-14
1234,133,-24,1003,-7,2,-8
1235,29,0,1005,-10,24,-3
1236,-102,14,1000,-11,28,1
1237,-161,8,972,-19,10,-2
1238,-115,-10,988,-19,-12,-8
1239,14,-46,1006,-17,-27,-13
1240,114,-52,1009,-16,-19,-14
1241,144,-33,1005,-9,1,-9
1242,42,-4,1006,-8,22,-4
1243,-79,11,1000,-11,27,1
1244,-159,14,974,-17,13,-3
1245,-126,-9,993,-20,-8,-8
1246,-17,-44,999,-19,-25,-13
1247,107,-46,998,-13,-22,-13
1248,147,-41,1009,-10,-4,-9
1249,60,-11,1005,-8,20,-3
1250,-54,7,1007,-11,28,0
1251,-153,20,972,-16,16,0
1252,-140,-1,994,-18,-5,-5
1253,-38,-40,997,-20,-25,-13
1254,89,-48,1008,-14,-23,-13
1255,150,-45,997,-11,-8,-11
1256,81,-22,1006,-7,17,-4
1257,-35,10,998,-8,28,-1
1258,-144,18,988,-17,22,0
1259,-144,-5,996,-20,-1,-6
1260,-69,-30,986,-19,-22,-12
1261,81,-39,1008,-15,-27,-14
1262,137,-53,1010,-10,-11,-13
1263,104,-21,1006,-9,12,-5
1264,-8,1,995,-11,27,-2
1265,-133,23,987,-14,23,1
1266,-155,-3,992,-20,2,-5
1267,-87,-22,988,-18,-19,-10
1268,60,-44,1008,-15,-28,-14
1269,130,-56,1011,-14,-15,-15
1270,119,-22,1000,-7,8,-5
1271,13,3,1001,-8,25,-2
1272,-118,11,991,-13,26,1
1273,-160,5,980,-17,7,-4
1274,-100,-13,989,-20,-16,-9
1275,32,-43,1011,-17,-27,-13
1276,122,-51,1005,-12,-18,-13
1277,134,-28,1008,-8,3,-8
1278,34,-1,1000,-8,25,-3
1279,-100,11,1002,-11,28,1
1280,-158,9,970,-18,9,-2
1281,-119,-9,989,-19,-12,-7
1282,11,-46,1007,-16,-27,-12
1283,110,-48,1004,-14,-19,-12
1284,147,-30,1006,-7,-1,-9
1285,45,-6,1009,-9,22,-3
1286,-77,8,999,-12,27,1
1287,-159,12,977,-17,15,-2
1288,-127,-6,993,-19,-9,-6
1289,-24,-43,996,-18,-26,-12
1290,108,-44,1000,-14,-24,-14
1291,148,-40,1006,-10,-6,-10
1292,69,-8,1006,-9,19,-3
1293,-54,5,1005,-13,30,-1
1294,-154,19,975,-17,19,-1
1295,-140,-8,994,-19,-4,-5
1296,-45,-39,992,-18,-22,-12
1297,94,-43,1009,-15,-24,-15
1298,146,-44,1003,-9,-9,-13
1299,84,-16,1002,-7,15,-4
1300,-31,10,998,-10,27,-2
1301,-147,20,989,-16,21,1
1302,-146,-8,996,-20,-1,-5
1303,-69,-34,984,-18,-21,-10
1304,79,-42,1006,-15,-27,-13
1305,137,-48,1016,-11,-12,-12
1306,106,-23,1004,-9,12,-5
1307,-5,7,992,-11,27,-2
1308,-133,19,983,-13,24,3
1309,-156,-1,991,-19,4,-4
1310,-88,-23,989,-22,-18,-9
1311,56,-43,1009,-17,-26,-12
1312,127,-55,1009,-11,-15,-12
1313,126,-21,1003,-6,7,-6
1314,15,0,1002,-11,26,-2
1315,-117,13,995,-15,28,2
1316,-160,4,975,-19,8,-3
1317,-103,-13,989,-19,-15,-9
1318,29,-48,1012,-18,-29,-13
1319,118,-54,1009,-13,-17,-14
1320,137,-27,1004,-7,4,-8
1321,36,0,1004,-9,24,-2
1322,-91,12,997,-12,25,1
1323,-158,8,971,-18,10,-2
1324,-122,-11,995,-20,-11,-8
1325,1,-47,1004,-17,-26,-13
1326,110,-48,999,-12,-20,-14
1327,143,-34,1010,-9,-2,-9
1328,52,-6,1007,-9,21,-4
1329,-69,7,1005,-14,30,0
1330,-153,14,971,-16,16,0
1331,-132,-8,996,-18,-7,-7
1332,-25,-42,998,-18,-26,-13
1333,100,-46,1003,-12,-23,-13
1334,150,-39,1005,-10,-4,-12
1335,69,-16,1006,-10,18,-3
1336,-46,10,1003,-12,28,-1
1337,-150,20,980,-17,19,0
1338,-139,-5,999,-19,-4,-7
1339,-51,-39,988,-20,-23,-12
1340,87,-41,1009,-15,-25,-14
1341,144,-51,1008,-10,-9,-13
1342,87,-21,1000,-7,14,-5
1343,-18,7,994,-10,26,-2
1344,-141,21,990,-14,24,0
1345,-150,-3,994,-17,1,-4
1346,-73,-30,982,-20,-21,-10
1347,70,-44,1009,-15,-27,-12
1348,135,-52,1010,-12,-13,-11
1349,111,-19,1009,-8,11,-5
1350,4,5,989,-9,25,-2
1351,-128,20,988,-12,22,0
1352,-156,-2,989,-18,-3,-6
1353,-94,-18,987,-26,-26,-11
1354,51,-44,1010,-17,-26,-13
1355,119,-57,1007,-10,-16,-13
1356,129,-25,1000,-8,6,-8
1357,23,0,1004,-9,25,-2
1358,-111,16,999,-14,27,1
1359,-157,6,975,-18,8,-4
1360,-110,-11,983,-20,-14,-8
1361,22,-47,1011,-18,-29,-13
1362,116,-55,1007,-13,-19,-14
1363,143,-29,1005,-9,1,-8
1364,35,0,1005,-9,24,-3
1365,-86,9,998,-10,28,0
1366,-153,12,973,-18,13,-1
1367,-128,-10,994,-20,-8,-6
1368,-4,-44,997,-19,-26,-14
1369,106,-49,1006,-14,-21,-13
1370,142,-35,997,-8,-4,-9
1371,60,-7,1018,-8,20,-3
1372,-59,10,998,-12,28,0
1373,-156,18,972,-17,17,1
1374,-129,-7,996,-18,-6,-7
1375,-40,-45,997,-20,-23,-11
1376,97,-46,1000,-15,-24,-14
1377,144,-49,1008,-11,-6,-12
1378,77,-10,998,-7,16,-4
1379,-35,8,1002,-8,26,-2
1380,-146,27,986,-15,21,1
1381,-144,-5,994,-20,-1,-5
1382,-63,-36,990,-20,-21,-12
1383,82,-46,1008,-17,-27,-13
1384,139,-50,1009,-11,-11,-13
1385,99,-25,1006,-7,14,-6
1386,-10,8,991,-11,27,0
1387,-135,24,990,-13,23,2
1388,-153,-1,993,-20,1,-4
1389,-83,-25,989,-19,-18,-10
1390,64,-44,1007,-16,-27,-13
1391,127,-58,1009,-12,-13,-12
1392,121,-26,1005,-7,8,-6
1393,9,5,996,-9,25,-2
1394,-118,19,993,-14,25,2
1395,-159,3,983,-19,7,-3
1396,-100,-13,986,-20,-16,-9
1397,39,-49,1009,-17,-27,-14
1398,119,-54,1009,-10,-17,-14
1399,134,-29,1000,-8,4,-6
1400,29,-1,1009,-10,26,-1
1401,-101,13,999,-12,27,2
1402,-160,12,971,-16,10,-3
1403,-115,-10,988,-20,-12,-9
1404,10,-45,1009,-17,-27,-13
1405,113,-54,1004,-12,-20,-13
1406,143,-33,1005,-11,0,-8
1407,45,-4,1005,-7,22,-3
1408,-76,8,1003,-12,28,0
1409,-161,14,969,-18,15,-1
1410,-128,-7,997,-20,-7,-7
1411,-17,-46,996,-19,-25,-12
1412,103,-46,998,-13,-23,-13
1413,149,-41,1005,-11,-4,-9
1414,63,-10,1011,-9,21,-3
1415,-53,11,999,-12,29,0
1416,-156,17,977,-17,19,0
1417,-136,-4,996,-20,-6,-5
1418,-47,-42,993,-20,-23,-11
1419,98,-43,1008,-14,-25,-14
1420,145,-45,1007,-10,-9,-11
1421,86,-14,998,-7,15,-4
1422,-30,6,997,-12,27,-1
1423,-145,23,988,-15,22,0
1424,-146,-6,994,-21,0,-7
1425,-70,-33,985,-19,-20,-11
1426,77,-41,1008,-14,-26,-13
1427,142,-53,1013,-11,-12,-12
1428,102,-23,1005,-9,11,-5
1429,-5,6,991,-9,26,-3
1430,-132,22,989,-16,23,1
1431,-158,0,988,-20,3,-3
1432,-86,-20,994,-21,-17,-10
1433,55,-45,1007,-16,-27,-13
1434,125,-52,1007,-12,-15,-13
1435,126,-26,1005,-7,7,-6
1436,16,3,997,-8,25,-2
1437,-115,14,998,-13,26,1
1438,-160,1,976,-18,9,-3
1439,-103,-12,988,-21,-15,-9
1440,28,-46,1009,-16,-29,-13
1441,119,-51,1008,-12,-18,-14
1442,139,-30,1007,-10,3,-8
1443,32,0,1000,-11,25,-2
1444,-96,11,1003,-11,26,1
1445,-157,9,968,-18,12,-3
1446,-121,-12,994,-20,-10,-6
1447,2,-47,1001,-18,-26,-12
1448,110,-51,1002,-13,-21,-14
1449,145,-32,1007,-7,-3,-9
1450,50,-3,1007,-9,20,-3
1451,-69,8,1002,-11,28,-1
1452,-160,16,972,-17,17,0
1453,-131,-8,991,-20,-7,-6
1454,-26,-48,1000,-19,-26,-12
1455,99,-44,1002,-12,-25,-12
1456,151,-43,1005,-11,-5,-11
1457,69,-11,1007,-8,18,-2
1458,-45,12,999,-12,27,0
1459,-150,19,984,-16,19,0
1460,-142,-8,992,-18,-2,-5
1461,-52,-38,992,-18,-23,-13
1462,92,-45,1008,-15,-27,-14
1463,144,-47,1005,-11,-11,-10
1464,90,-18,1000,-7,13,-4
1465,-23,8,999,-9,28,-2
1466,-142,23,988,-16,23,1
1467,-152,-3,995,-20,1,-5
1468,-76,-32,987,-21,-20,-10
1469,72,-46,1004,-16,-27,-13
1470,134,-51,1012,-12,-13,-12
1471,110,-23,1008,-10,12,-6
1472,3,7,994,-9,26,-2
1473,-128,16,986,-15,24,3
1474,-160,0,993,-18,4,-3
1475,-91,-22,988,-20,-16,-11
1476,48,-45,1009,-17,-27,-13
1477,125,-53,1005,-10,-16,-14
1478,126,-24,1003,-6,6,-8
1479,24,3,1000,-9,24,-1
1480,-109,13,1000,-14,26,1
1481,-162,4,972,-18,7,-2
1482,-107,-14,983,-21,-13,-7
1483,19,-50,1012,-18,-27,-14
1484,118,-53,1005,-12,-19,-13
1485,140,-30,1007,-7,3,-8
1486,42,0,1001,-9,25,-3
1487,-89,13,1004,-11,27,0
1488,-159,14,969,-19,11,-1
1489,-124,-9,992,-22,-9,-6
1490,-4,-48,1002,-20,-27,-13
1491,107,-55,999,-14,-23,-13
1492,146,-36,1003,-8,-4,-10
1493,53,-10,1016,-9,21,-2
1494,-64,15,1000,-11,29,1
1495,-155,17,975,-18,16,-1
1496,-135,-3,992,-19,-7,-8
1497,-33,-47,996,-20,-26,-12
1498,101,-49,1003,-14,-23,-13
1499,145,-48,1005,-10,-7,-11
1500,77,-13,1000,-6,17,-4
1501,-42,11,1004,-9,28,-1
1502,-147,26,983,-16,20,1
1503,-145,-5,995,-22,-2,-5
1504,-60,-39,990,-21,-23,-12
1505,83,-45,1007,-16,-27,-13
1506,144,-51,1009,-11,-12,-13
1507,94,-21,1003,-7,13,-5
1508,-15,9,994,-9,27,-1
1509,-138,25,988,-15,24,1
1510,-154,-2,995,-19,0,-5
1511,-81,-24,985,-21,-20,-9
1512,69,-48,1007,-16,-27,-13
1513,132,-56,1015,-10,-13,-13
1514,115,-27,1004,-7,10,-6
1515,5,6,993,-8,26,-4
1516,-124,17,989,-14,25,1
1517,-160,6,986,-19,6,-3
1518,-98,-15,991,-21,-16,-9
1519,44,-47,1009,-17,-27,-14
1520,123,-56,1005,-10,-16,-14
1521,131,-26,1003,-8,5,-7
1522,27,1,1005,-11,27,-2
1523,-105,12,996,-14,28,2
1524,-164,9,973,-19,10,-1
1525,-109,-9,989,-21,-13,-7
1526,16,-51,1009,-18,-26,-13
1527,111,-53,1005,-14,-19,-13
1528,143,-31,1005,-9,1,-9
1529,41,-3,1006,-9,23,-2
1530,-83,12,1000,-11,27,0
1531,-159,13,973,-17,14,-2
1532,-128,-9,993,-21,-9,-7
1533,-8,-44,1001,-18,-26,-12
1534,106,-50,999,-15,-22,-13
1535,149,-39,1008,-9,-5,-10
1536,60,-12,1011,-10,20,-3
1537,-59,8,1001,-12,28,-1
1538,-154,19,978,-15,18,-1
1539,-135,-3,991,-18,-5,-7
1540,-36,-41,997,-19,-25,-11
1541,94,-47,1006,-15,-24,-13
1542,149,-46,1002,-11,-7,-10
1543,80,-17,1002,-6,17,-4
1544,-38,10,999,-10,27,0
1545,-148,21,986,-17,20,1
1546,-146,-4,993,-19,-2,-4
1547,-61,-33,988,-20,-22,-10
1548,79,-45,1007,-16,-26,-13
1549,140,-53,1012,-10,-10,-12
1550,101,-21,1006,-8,12,-4
1551,-10,8,990,-11,27,-2
1552,-138,23,987,-15,23,2
1553,-156,-1,994,-18,3,-4
1554,-86,-28,984,-20,-19,-10
1555,62,-47,1010,-15,-27,-13
1556,130,-56,1013,-11,-13,-13
1557,118,-22,998,-7,8,-5
1558,11,6,999,-8,25,-3
1559,-122,16,992,-14,26,0
1560,-162,0,980,-19,7,-3
1561,-100,-15,988,-19,-15,-9
1562,38,-50,1012,-18,-29,-13
1563,122,-55,1004,-11,-18,-11
1564,135,-25,1006,-8,3,-7
1565,31,2,1002,-9,26,-3
1566,-100,14,1000,-13,27,1
1567,-160,10,972,-19,9,-2
1568,-120,-8,990,-22,-13,-8
1569,13,-52,1005,-19,-27,-14
1570,112,-57,1004,-13,-21,-13
1571,145,-32,1006,-7,-1,-8
1572,47,-2,1005,-8,23,-3
1573,-79,13,1002,-12,29,1
1574,-157,16,973,-18,15,-1
1575,-126,-8,997,-21,-9,-6
1576,-17,-50,997,-21,-26,-11
1577,105,-50,996,-15,-23,-13
1578,149,-40,1010,-9,-5,-10
1579,63,-11,1007,-8,20,-3
1580,-54,14,1003,-10,29,0
1581,-151,17,980,-18,18,-1
1582,-140,-2,989,-19,-4,-5
1583,-43,-41,996,-20,-23,-12
1584,94,-48,1011,-15,-24,-14
1585,144,-49,997,-11,-7,-11
1586,83,-18,1002,-5,16,-5
1587,-33,10,1000,-9,27,-1
1588,-141,24,988,-16,23,0
1589,-148,-2,999,-19,-1,-6
1590,-71,-33,985,-19,-22,-10
1591,79,-44,1005,-15,-27,-14
1592,135,-52,1009,-10,-12,-13
1593,106,-25,1006,-8,13,-5
1594,-6,3,991,-10,27,-2
1595,-129,21,983,-14,24,2
1596,-157,-2,995,-19,2,-5
1597,-86,-20,986,-22,-19,-10
1598,59,-43,1010,-17,-27,-13
1599,127,-55,1009,-11,-15,-14
1600,120,-28,1003,-7,8,-6
1601,17,1,998,-9,24,-3
1602,-116,14,998,-14,25,1
1603,-159,7,976,-19,7,-3
1604,-100,-15,989,-20,-14,-9
1605,32,-46,1009,-18,-29,-12
1606,118,-54,1006,-13,-18,-13
1607,135,-30,1006,-10,3,-8
1608,35,0,1002,-9,25,-3
1609,-102,12,998,-13,28,2
1610,-158,9,971,-19,10,-2
1611,-122,-13,989,-20,-12,-7
1612,8,-49,1002,-18,-27,-12
1613,111,-49,1007,-13,-20,-13
1614,148,-32,1003,-7,-1,-9
1615,45,-6,1004,-8,23,-2
1616,-74,9,1005,-12,27,1
1617,-157,13,974,-18,15,-1
1618,-131,-7,989,-18,-7,-7
1619,-18,-44,1001,-19,-26,-13
1620,102,-45,998,-12,-22,-13
1621,145,-37,1006,-8,-4,-9
1622,72,-9,1010,-7,18,-4
1623,-53,9,1003,-12,30,1
1624,-152,16,976,-16,19,0
1625,-141,-8,997,-20,-4,-5
1626,-48,-41,992,-20,-23,-12
1627,92,-43,1010,-13,-25,-13
1628,146,-46,1005,-11,-9,-9
1629,87,-16,996,-7,15,-2
1630,-32,9,1001,-10,27,0
1631,-145,21,986,-16,23,0
1632,-146,-3,994,-21,1,-4
1633,-72,-35,985,-19,-21,-10
1634,76,-42,1006,-15,-27,-12
1635,136,-53,1009,-12,-12,-13
1636,104,-23,1006,-8,12,-4
1637,-6,9,992,-9,28,-1
1638,-130,20,985,-15,23,1
1639,-155,0,992,-18,2,-5
1640,-91,-23,990,-21,-18,-10
1641,61,-44,1007,-15,-27,-14
1642,124,-57,1009,-12,-15,-13
1643,125,-20,1002,-6,5,-6
1644,18,3,1002,-10,25,-2
1645,-116,19,995,-14,27,2
1646,-159,4,977,-20,8,-3
1647,-105,-14,987,-21,-15,-10
1648,32,-48,1009,-18,-28,-14
1649,119,-57,1009,-12,-18,-14
1650,138,-30,1006,-8,3,-7
1651,34,1,1003,-8,25,-2
1652,-95,13,1001,-13,28,2
1653,-160,12,971,-19,11,-2
1654,-120,-8,995,-21,-10,-8
1655,5,-51,1001,-19,-26,-13
1656,113,-55,1004,-14,-21,-14
1657,147,-34,1006,-9,-3,-8
1658,47,-2,1007,-8,21,-3
1659,-70,11,1004,-11,29,-1
1660,-160,15,973,-17,16,-2
1661,-131,-5,992,-20,-7,-6
1662,-25,-48,1001,-20,-26,-12
1663,100,-47,998,-14,-24,-13
1664,148,-45,1007,-10,-4,-11
1665,69,-11,1005,-7,20,-3
1666,-48,9,1004,-10,28,0
1667,-153,21,978,-16,20,0
1668,-147,-6,994,-18,-3,-6
1669,-48,-39,994,-20,-23,-13
1670,87,-45,1009,-15,-26,-13
1671,147,-47,1002,-11,-9,-11
1672,92,-20,1003,-7,15,-4
1673,-26,9,995,-9,28,-1
1674,-142,20,989,-15,22,1
1675,-149,-4,995,-21,1,-4
1676,-73,-33,983,-20,-21,-10
1677,71,-42,1004,-15,-29,-14
1678,140,-49,1017,-12,-13,-13
1679,112,-23,1001,-9,12,-5
1680,-3,5,993,-10,26,-2
1681,-130,16,983,-15,24,2
1682,-160,-2,991,-18,4,-5
1683,-89,-21,989,-21,-17,-9
1684,54,-44,1013,-16,-27,-12
1685,129,-54,1006,-12,-16,-13
1686,123,-27,1003,-6,6,-6
1687,16,5,1002,-10,24,-1
1688,-114,10,995,-13,26,0
1689,-163,8,970,-20,9,-2
1690,-103,-14,989,-12,-15,-10
1691,27,-45,1013,-17,-29,-13
1692,117,-54,1004,-12,-18,-13
1693,137,-26,1006,-8,3,-8
1694,36,-5,1004,-8,23,-3
1695,-91,12,995,-12,28,1
1696,-161,9,973,-17,12,-2
1697,-121,-8,989,-20,-10,-7
1698,2,-46,1002,-19,-27,-13
1699,111,-48,1002,-13,-22,-13
1700,145,-34,1007,-8,-1,-9
1701,53,-6,1006,-8,21,-4
1702,-74,7,1004,-12,29,1
1703,-156,16,973,-17,17,0
1704,-133,-8,996,-21,-8,-6
1705,-25,-43,990,-19,-26,-12
1706,100,-48,1005,-14,-24,-13
1707,151,-43,1002,-11,-6,-11
1708,66,-12,1004,-8,19,-4
1709,-44,10,1007,-10,28,-1
1710,-154,21,978,-16,19,0
1711,-141,-4,989,-21,-4,-5
1712,-49,-41,999,-19,-23,-12
1713,87,-42,1005,-15,-25,-13
1714,148,-46,1004,-9,-11,-12
1715,87,-17,1002,-6,15,-3
1716,-23,5,996,-10,28,0
1717,-142,20,992,-14,24,2
1718,-151,-4,993,-19,2,-4
1719,-69,-33,985,-21,-20,-11
1720,70,-39,1007,-14,-28,-12
1721,138,-50,1010,-13,-14,-14
1722,111,-27,1010,-9,11,-6
1723,-2,6,988,-9,27,-1
1724,-129,23,986,-15,24,1
1725,-158,-5,994,-20,4,-3
1726,-90,-22,986,-20,-17,-8
1727,53,-47,1011,-17,-29,-14
1728,127,-49,1009,-11,-18,-13
1729,126,-23,1002,-8,6,-6
1730,21,5,1000,-11,25,-2
1731,-116,11,997,-15,27,2
1732,-162,4,972,-18,8,-3
1733,-110,-13,988,-20,-16,-9
1734,27,-48,1009,-18,-30,-14
1735,120,-55,1008,-12,-19,-14
1736,142,-24,1006,-8,3,-7
1737,36,1,1004,-10,26,-1
1738,-93,11,999,-11,29,0
1739,-161,8,972,-20,11,-3
1740,-124,-13,988,-21,-11,-8
1741,5,-48,1003,-18,-28,-12
1742,114,-53,1004,-13,-20,-13
1743,148,-32,1000,-8,-2,-9
1744,53,-2,1010,-9,21,-3
1745,-72,10,1002,-13,30,0
1746,-160,12,974,-18,16,-1
1747,-134,-8,994,-19,-8,-6
1748,-21,-50,996,-20,-27,-12
1749,104,-48,998,-12,-24,-15
1750,151,-39,1009,-8,-5,-11
1751,68,-9,1006,-10,19,-4
1752,-48,14,1005,-10,29,-1
1753,-155,19,975,-18,19,0
1754,-142,-8,992,-20,-3,-5
1755,-53,-48,994,-19,-22,-10
1756,93,-45,1008,-14,-26,-13
1757,146,-45,1005,-9,-10,-11
1758,91,-18,999,-8,14,-3
1759,-26,13,1000,-10,27,-1
1760,-144,23,988,-16,23,1
1761,-153,-7,995,-20,0,-4
1762,-72,-35,986,-19,-22,-11
1763,70,-43,1004,-14,-29,-13
1764,141,-51,1013,-11,-12,-13
1765,110,-24,1007,-8,13,-6
1766,-2,12,989,-9,27,-1
1767,-130,20,989,-15,22,2
1768,-161,0,989,-21,3,-4
1769,-93,-23,986,-22,-17,-9
1770,54,-48,1010,-18,-28,-12
1771,128,-58,1008,-13,-16,-13
1772,124,-21,1003,-6,6,-5
1773,18,3,1001,-9,26,-1
1774,-116,16,996,-12,27,1
1775,-163,6,975,-19,8,-2
1776,-108,-14,988,-20,-14,-9
1777,31,-48,1008,-17,-29,-14
1778,119,-55,1006,-12,-19,-13
1779,140,-28,1006,-8,2,-7
1780,36,-3,1007,-8,24,-2
1781,-95,13,995,-13,26,1
1782,-163,8,972,-19,11,-2
1783,-119,-10,989,-21,-11,-8
1784,5,-51,1002,-18,-27,-15
1785,116,-48,1004,-12,-22,-14
1786,149,-33,1008,-9,-2,-9
1787,49,-4,1006,-8,22,-3
1788,-75,9,1003,-11,30,1
1789,-159,16,975,-17,16,-1
1790,-130,-10,995,-20,-8,-6
1791,-19,-41,997,-19,-27,-12
1792,102,-50,1000,-14,-24,-14
1793,149,-37,1004,-10,-5,-10
1794,66,-12,1006,-9,19,-3
1795,-51,13,1000,-12,28,-1
1796,-155,17,981,-18,19,0
1797,-141,-4,991,-18,-4,-7
1798,-48,-45,995,-19,-22,-12
1799,93,-42,1007,-17,-26,-13
1800,145,-46,1004,-11,-10,-11
1801,87,-18,998,-7,15,-4
1802,-32,8,1003,-11,28,0
1803,-144,28,986,-16,22,0
1804,-148,-5,995,-21,1,-5
1805,-69,-34,986,-19,-21,-10
1806,73,-45,1006,-16,-26,-14
1807,138,-54,1013,-11,-12,-13
1808,107,-22,1004,-9,12,-5
1809,-5,10,991,-9,27,-1
1810,-128,20,985,-14,24,2
1811,-160,-1,992,-18,3,-5
1812,-89,-23,987,-23,-17,-10
1813,52,-45,1010,-18,-27,-13
1814,129,-56,1007,-11,-15,-13
1815,123,-25,1005,-6,8,-7
1816,14,2,998,-10,25,-3
1817,-118,16,995,-15,26,1
1818,-159,4,981,-18,7,-3
1819,-105,-13,986,-20,-15,-8
1820,32,-48,1011,-16,-29,-14
1821,120,-54,1007,-12,-19,-14
1822,138,-29,1004,-9,2,-8
1823,33,-3,1002,-10,23,-3
1824,-98,13,1002,-10,27,1
1825,-159,11,968,-17,10,-1
1826,-118,-9,989,-20,-11,-7
1827,6,-48,1007,-19,-26,-13
1828,112,-52,1002,-14,-21,-14
1829,145,-36,1006,-8,-2,-9
1830,49,-5,1008,-8,21,-2
1831,-74,9,1000,-11,27,0
1832,-158,17,973,-19,15,-1
1833,-130,-4,996,-18,-8,-6
1834,-20,-44,996,-19,-27,-13
1835,101,-46,996,-13,-25,-13
1836,150,-42,1011,-9,-5,-10
1837,66,-11,1005,-11,20,-3
1838,-54,8,1005,-10,29,-1
1839,-157,19,972,-17,18,0
1840,-143,-7,993,-19,-5,-5
1841,-44,-38,995,-19,-24,-11
1842,93,-45,1009,-15,-25,-14
1843,148,-44,1004,-9,-8,-11
1844,86,-19,1000,-7,15,-4
1845,-31,9,1000,-13,28,-1
1846,-147,23,990,-14,22,1
1847,-148,-6,990,-21,0,-6
1848,-67,-36,990,-19,-21,-11
1849,74,-41,1005,-15,-29,-13
1850,142,-52,1010,-11,-12,-13
1851,103,-24,1007,-8,12,-5
1852,-6,7,989,-10,28,-1
1853,-133,21,990,-14,25,1
1854,-158,-2,992,-19,3,-5
1855,-90,-25,989,-21,-18,-10
1856,59,-47,1006,-18,-27,-13
1857,128,-57,1013,-12,-14,-14
1858,126,-21,1002,-6,7,-6
1859,14,4,995,-7,25,-3
1860,-120,17,993,-14,27,2
1861,-159,1,982,-20,8,-3
1862,-105,-15,985,-21,-16,-8
1863,38,-44,1013,-16,-28,-13
1864,121,-57,1004,-10,-17,-14
1865,136,-24,1007,-6,3,-7
1866,32,0,1003,-9,25,-2
1867,-102,15,999,-12,28,1
1868,-157,7,968,-18,11,-1
1869,-121,-10,991,-20,-12,-8
1870,13,-48,1005,-19,-28,-14
1871,111,-55,1007,-13,-20,-15
1872,145,-34,1006,-7,-1,-9
1873,46,-5,1006,-8,21,-2
1874,-76,10,1000,-12,27,1
1875,-160,14,974,-18,15,0
1876,-132,-5,993,-20,-8,-7
1877,-16,-47,995,-20,-26,-12
1878,106,-51,1004,-14,-25,-13
1879,150,-41,1002,-7,-4,-11
1880,65,-13,1010,-9,21,-3
1881,-56,11,1003,-10,29,-1
1882,-155,20,973,-17,18,1
1883,-140,-4,993,-18,-7,-6
1884,-44,-43,998,-20,-25,-12
1885,94,-45,1004,-15,-26,-14
1886,151,-50,1005,-10,-9,-12
1887,83,-15,999,-6,17,-3
1888,-34,8,1004,-10,27,-2
1889,-146,24,985,-17,22,1
1890,-152,-3,995,-19,-1,-4
1891,-64,-34,984,-19,-21,-13
1892,75,-44,1008,-14,-26,-13
1893,144,-51,1008,-11,-13,-12
1894,103,-27,1005,-7,12,-5
1895,-7,7,992,-9,28,-1
1896,-135,22,984,-14,24,0
1897,-160,-3,994,-18,3,-4
1898,-84,-23,984,-21,-20,-9
1899,61,-43,1007,-15,-28,-14
1900,133,-57,1012,-13,-13,-13
1901,120,-24,1004,-8,9,-6
1902,14,5,996,-9,26,-3
1903,-125,17,992,-13,26,2
1904,-161,3,982,-19,8,-3
1905,-105,-16,987,-21,-14,-9
1906,40,-44,1013,-17,-28,-13
1907,126,-57,1004,-12,-17,-13
1908,135,-28,1004,-7,5,-7
1909,27,2,1005,-10,26,-1
1910,-100,12,1000,-13,27,1
1911,-165,11,971,-18,10,-1
1912,-115,-9,985,-20,-13,-7
1913,12,-52,1011,-17,-28,-13
1914,113,-54,1001,-13,-20,-14
1915,148,-30,1009,-8,0,-9
1916,46,-3,1002,-7,22,-2
1917,-79,15,1001,-11,27,-1
1918,-158,15,976,-19,14,0
1919,-131,-8,991,-21,-8,-6
1920,-12,-48,997,-19,-26,-13
1921,107,-51,998,-14,-23,-14
1922,149,-41,1008,-7,-5,-10
1923,62,-6,1011,-8,20,-4
1924,-57,11,1001,-13,30,1
1925,-155,21,977,-18,19,0
1926,-141,-6,988,-19,-5,-6
1927,-38,-47,1000,-19,-25,-13
1928,98,-48,1003,-16,-25,-14
1929,149,-47,1004,-10,-8,-10
1930,84,-14,999,-6,17,-2
1931,-34,9,1004,-9,27,-1
1932,-151,23,984,-16,21,1
1933,-147,-4,993,-20,0,-5
1934,-62,-37,993,-18,-21,-11
1935,82,-42,1002,-13,-26,-13
1936,143,-51,1010,-9,-10,-14
1937,104,-23,1003,-7,14,-5
1938,-16,7,990,-9,28,-1
1939,-135,23,988,-14,24,0
1940,-159,-4,996,-19,3,-4
1941,-83,-22,979,-18,-19,-10
1942,66,-50,1013,-15,-28,-13
1943,134,-52,1010,-12,-15,-12
1944,121,-29,1002,-8,9,-5
1945,8,8,998,-8,26,-3
1946,-126,17,991,-15,25,3
1947,-160,0,983,-18,7,-4
1948,-102,-20,990,-20,-15,-9
1949,45,-43,1011,-16,-28,-14
1950,125,-58,1006,-12,-18,-14
1951,132,-22,1007,-5,5,-7
1952,28,0,999,-9,25,-2
1953,-107,13,1000,-12,28,1
1954,-163,7,970,-19,9,-3
1955,-114,-13,987,-19,-14,-9
1956,18,-46,1010,-17,-28,-13
1957,116,-52,1008,-13,-19,-13
1958,144,-29,1005,-8,3,-9
1959,41,-4,1006,-8,23,-1
1960,-84,11,999,-12,27,0
1961,-161,11,972,-18,14,-1
1962,-127,-8,993,-20,-9,-7
1963,-7,-49,999,-18,-27,-14
1964,108,-47,996,-13,-23,-14
1965,148,-35,1009,-8,-5,-10
1966,60,-8,1006,-9,20,-2
1967,-60,8,1005,-12,30,0
1968,-157,16,972,-17,18,0
1969,-139,-5,994,-19,-8,-6
1970,-36,-44,996,-20,-26,-12
1971,95,-44,1005,-15,-23,-14
1972,153,-44,1003,-11,-7,-11
1973,79,-17,1002,-8,17,-4
1974,-37,10,998,-11,26,-1
1975,-148,19,986,-16,20,-1
1976,-147,-5,991,-21,-2,-4
1977,-61,-40,988,-18,-22,-12
1978,83,-39,1006,-13,-27,-14
1979,142,-50,1012,-10,-10,-12
1980,97,-18,1002,-7,14,-5
1981,-14,10,997,-11,29,-2
1982,-139,23,986,-16,25,3
1983,-154,-6,994,-20,2,-4
1984,-81,-29,984,-19,-19,-11
1985,64,-46,1007,-14,-28,-14
1986,131,-51,1011,-11,-13,-12
1987,118,-23,1006,-7,9,-5
1988,9,7,993,-10,24,-1
1989,-128,18,989,-14,25,2
1990,-161,1,984,-18,5,-3
1991,-96,-25,989,-23,-15,-9
1992,41,-50,1009,-16,-29,-13
1993,125,-55,1003,-10,-17,-13
1994,129,-24,1009,-7,5,-7
1995,29,6,999,-8,25,-2
1996,-105,17,1000,-14,28,1
1997,-161,7,974,-19,9,-3
1998,-116,-15,985,-20,-14,-7
1999,19,-54,1009,-17,-27,-13
2000,114,-55,1010,-14,-19,-13
2001,146,-29,1004,-7,0,-9
2002,38,0,1005,-8,23,-4
2003,-83,15,1002,-11,27,0
2004,-155,12,975,-19,14,-1
2005,-129,-8,990,-19,-9,-6
2006,-7,-47,1001,-18,-26,-12
2007,112,-52,1002,-12,-22,-15
2008,144,-37,1000,-9,-4,-10
2009,61,-9,1014,-8,21,-4
2010,-61,8,1002,-11,30,0
2011,-158,21,971,-16,18,-1
2012,-137,-7,993,-18,-6,-6
2013,-35,-45,995,-20,-25,-12
2014,98,-46,1002,-14,-25,-13
2015,148,-44,1006,-10,-7,-12
2016,81,-16,1003,-9,17,-3
2017,-40,9,1001,-8,27,-1
2018,-152,23,985,-16,20,1
2019,-144,-7,994,-18,-1,-6
2020,-62,-39,989,-18,-22,-12
2021,86,-43,1007,-14,-27,-14
2022,145,-51,1011,-9,-11,-13
2023,97,-22,999,-6,13,-4
2024,-16,12,995,-9,28,-1
2025,-136,23,987,-15,23,0
2026,-157,-2,994,-20,2,-4
2027,-78,-30,983,-21,-20,-11
2028,63,-45,1010,-17,-28,-13
2029,134,-54,1007,-12,-14,-14
2030,117,-23,1008,-8,9,-6
2031,6,5,992,-6,25,-1
2032,-122,21,991,-2,29,1
2033,-162,0,984,-16,10,-3
2034,-99,-17,989,-21,-15,-9
2035,44,-47,1012,-16,-29,-13
2036,124,-56,1003,-14,-18,-13
2037,132,-27,1006,-6,4,-7
2038,27,2,1003,-7,24,-3
2039,-104,15,1000,-13,27,1
2040,-162,6,974,-17,9,-3
2041,-111,-12,987,-20,-13,-8
2042,15,-49,1009,-17,-28,-13
2043,115,-52,1007,-12,-19,-13
2044,145,-30,1006,-7,1,-8
2045,40,-5,1003,-7,24,-3
2046,-85,11,1001,-10,28,1
2047,-157,13,971,-18,14,-1
2048,-128,-11,994,-21,-8,-7
2049,-7,-48,997,-19,-26,-13
2050,104,-50,1002,-13,-22,-13
2051,150,-36,1007,-8,-5,-11
2052,57,-7,1008,-8,20,-2
2053,-57,15,1002,-11,29,0
2054,-158,16,979,-17,17,0
2055,-139,-5,989,-22,-7,-5
2056,-38,-49,998,-20,-26,-11
2057,100,-45,1005,-14,-26,-14
2058,150,-45,1002,-9,-8,-10
2059,81,-11,1003,-6,17,-4
2060,-40,12,1002,-11,28,1
2061,-151,25,984,-17,20,1
2062,-149,-9,993,-20,-1,-4
2063,-61,-41,990,-19,-22,-12
2064,88,-46,1005,-15,-27,-15
2065,144,-47,1010,-10,-11,-12
2066,97,-18,998,-7,13,-5
2067,-15,9,998,-10,28,-2
2068,-142,27,987,-16,22,2
2069,-155,-3,994,-20,2,-5
2070,-79,-30,986,-21,-20,-11
2071,65,-46,1007,-15,-28,-12
2072,135,-51,1012,-11,-13,-13
2073,115,-25,1009,-8,9,-6
2074,7,8,989,-8,26,-2
2075,-128,19,994,-15,25,1
2076,-158,4,985,-18,5,-3
2077,-99,-21,988,-21,-15,-10
2078,43,-45,1009,-17,-29,-14
2079,119,-57,1004,-10,-19,-14
2080,136,-24,1005,-7,5,-9
2081,23,0,1003,-11,26,-1
2082,-104,15,999,-12,28,1
2083,-163,8,972,-21,10,-3
2084,-113,-11,985,-20,-14,-8
2085,20,-48,1013,-17,-28,-14
2086,114,-54,1006,-14,-18,-13
2087,145,-29,1007,-9,0,-8
2088,41,-4,1004,-9,22,-4
2089,-84,11,999,-10,27,1
2090,-160,12,973,-18,14,-1
2091,-128,-8,994,-21,-8,-7
2092,-6,-46,998,-19,-27,-12
2093,108,-52,999,-13,-21,-14
2094,146,-37,1008,-8,-4,-9
2095,58,-7,1007,-9,20,-3
2096,-61,10,1005,-11,30,0
2097,-153,17,973,-16,19,-2
2098,-135,-6,996,-19,-5,-6
2099,-36,-43,994,-20,-25,-12
2100,97,-44,1009,-13,-23,-14
2101,150,-44,997,-10,-7,-11
2102,74,-16,1008,-6,18,-4
2103,-35,9,1001,-10,27,-1
2104,-149,20,984,-17,21,1
2105,-144,-1,990,-18,-2,-6
2106,-62,-38,994,-19,-22,-13
2107,86,-43,1003,-15,-26,-13
2108,144,-50,1011,-11,-11,-12
2109,97,-21,1003,-9,14,-4
2110,-15,5,992,-11,28,0
2111,-140,24,985,-15,25,1
2112,-157,-5,998,-19,1,-4
2113,-81,-23,983,-18,-20,-10
2114,66,-43,1011,-16,-27,-13
2115,133,-53,1009,-13,-13,-13
2116,115,-24,1005,-7,9,-6
2117,7,4,994,-10,25,-2
2118,-129,16,988,-16,26,1
2119,-161,0,987,-18,6,-5
2120,-97,-21,989,-21,-17,-10
2121,41,-44,1007,-17,-29,-13
2122,128,-53,1011,-11,-16,-14
2123,131,-23,1005,-7,5,-6
2124,24,3,997,-10,25,-2
2125,-108,11,1005,-14,27,1
2126,-165,5,969,-19,8,-2
2127,-111,-14,986,-20,-13,-8
2128,17,-49,1014,-17,-28,-13
2129,114,-50,1003,-13,-19,-13
2130,148,-29,1006,-8,2,-9
2131,35,0,1006,-9,22,-2
2132,-83,10,999,-12,26,1
2133,-159,12,975,-18,14,-1
2134,-125,-8,991,-20,-9,-6
2135,-9,-49,1003,-19,-27,-14
2136,108,-51,997,-12,-24,-15
2137,146,-36,1008,-8,-3,-10
2138,59,-5,1010,-9,21,-4
2139,-60,8,1003,-13,29,0
2140,-153,22,976,-15,17,-1
2141,-139,-9,993,-21,-5,-6
2142,-35,-44,999,-19,-26,-12
2143,94,-47,1005,-14,-25,-13
2144,149,-43,1002,-10,-7,-12
2145,78,-17,1005,-6,18,-2
2146,-38,11,999,-10,28,1
2147,-148,22,985,-17,22,2
2148,-148,-4,996,-18,0,-5
2149,-60,-38,989,-20,-21,-12
2150,83,-45,1004,-16,-27,-14
2151,147,-51,1011,-11,-12,-12
2152,97,-21,1003,-7,11,-5
2153,-15,9,996,-9,29,-1
2154,-138,24,987,-13,24,1
2155,-152,-2,997,-19,1,-4
2156,-80,-27,982,-20,-20,-11
2157,64,-45,1010,-16,-28,-13
2158,132,-53,1008,-11,-13,-13
2159,115,-24,1007,-7,9,-6
2160,12,5,993,-9,26,-1
2161,-126,18,993,-13,26,2
2162,-159,2,980,-19,7,-3
2163,-98,-16,992,-20,-16,-8
2164,41,-43,1004,-18,-28,-12
2165,120,-56,1009,-12,-17,-12
2166,135,-28,1002,-7,5,-8
2167,24,-1,1002,-10,28,-2
2168,-101,14,1001,-12,27,1
2169,-164,6,970,-18,9,-3
2170,-112,-7,987,-19,-13,-7
2171,14,-49,1010,-17,-28,-13
2172,114,-48,1006,-13,-18,-13
2173,142,-33,1004,-10,0,-8
2174,44,-5,1007,-8,22,-3
2175,-82,9,999,-12,26,0
2176,-157,14,971,-18,14,-3
2177,-124,-6,997,-22,-8,-7
2178,-12,-47,997,-20,-26,-13
2179,105,-51,999,-14,-23,-14
2180,149,-37,1009,-10,-5,-11
2181,61,-8,1006,-9,21,-3
2182,-56,13,1005,-12,29,0
2183,-155,16,975,-16,17,0
2184,-137,-5,990,-19,-5,-5
2185,-38,-45,998,-19,-23,-11
2186,96,-42,1003,-11,-22,-12
2187,147,-43,1004,-11,-7,-10
2188,81,-15,1001,-8,16,-4
2189,-37,8,1002,-10,28,-1
2190,-145,22,982,-16,20,1
2191,-146,-7,997,-19,-1,-6
2192,-64,-37,984,-19,-21,-13
2193,79,-44,1007,-14,-28,-14
2194,145,-49,1009,-10,-10,-12
2195,98,-22,1003,-8,16,-3
2196,-10,7,991,-10,27,0
2197,-139,20,988,-14,24,1
2198,-152,-1,991,-19,1,-5
2199,-84,-28,986,-19,-20,-10
2200,61,-43,1008,-16,-29,-14
2201,132,-54,1015,-12,-13,-13
2202,117,-24,1000,-7,9,-5
2203,14,1,999,-10,26,-2
2204,-122,17,993,-14,25,1
2205,-157,4,980,-17,7,-4
2206,-99,-19,988,-21,-15,-9
2207,37,-46,1008,-18,-30,-12
2208,123,-55,1006,-10,-17,-13
2209,135,-24,1006,-7,5,-7
2210,30,0,1001,-9,25,-2
2211,-99,13,1002,-14,28,1
2212,-164,6,967,-17,11,-2
2213,-115,-6,988,-20,-13,-8
2214,12,-49,1009,-18,-27,-13
2215,109,-54,1003,-12,-20,-14
2216,149,-33,1007,-9,-1,-8
2217,44,-4,1003,-8,22,-3
2218,-80,14,999,-12,28,1
2219,-158,13,975,-18,15,-2
2220,-130,-8,995,-21,-8,-9
2221,-13,-46,994,-20,-26,-13
2222,107,-47,1004,-13,-24,-13
2223,150,-37,1005,-10,-4,-10
2224,62,-11,1007,-7,21,-3
2225,-54,10,1003,-12,27,0
2226,-156,21,974,-16,19,0
2227,-136,-9,991,-18,-4,-5
2228,-45,-39,997,-20,-24,-13
2229,94,-47,1007,-15,-25,-14
2230,149,-44,1004,-11,-9,-11
2231,81,-18,1001,-7,15,-2
2232,-29,7,997,-10,26,-1
2233,-147,23,990,-16,21,1
2234,-147,-4,991,-20,0,-6
2235,-69,-35,991,-19,-22,-11
2236,79,-43,1004,-14,-29,-13
2237,141,-52,1011,-11,-11,-12
2238,103,-22,1008,-8,12,-5
2239,-10,6,991,-9,27,-2
2240,-131,23,984,-16,25,0
2241,-159,-4,996,-19,2,-6
2242,-84,-22,985,-20,-18,-11
2243,61,-48,1011,-16,-28,-14
2244,125,-51,1008,-11,-14,-13
2245,121,-24,1007,-6,8,-5
2246,13,3,995,-8,26,0
2247,-119,15,995,-14,26,3
2248,-160,2,981,-19,8,-3
2249,-104,-17,987,-20,-14,-9
2250,34,-44,1009,-18,-28,-13
2251,119,-53,1010,-11,-19,-14
2252,133,-28,1004,-8,2,-7
2253,30,1,1003,-10,24,-2
2254,-101,10,1000,-13,27,1
2255,-160,7,968,-18,10,-2
2256,-117,-10,991,-20,-11,-7
2257,9,-46,1005,-16,-26,-13
2258,114,-49,1006,-12,-19,-14
2259,143,-33,1003,-7,-1,-9
2260,45,-4,1007,-8,21,-3
2261,-77,8,1006,-11,27,0
2262,-159,15,971,-18,16,0
2263,-127,-8,995,-20,-9,-8
2264,-22,-46,998,-19,-26,-13
2265,103,-46,1000,-12,-23,-13
2266,147,-40,1005,-9,-5,-11
2267,66,-8,1008,-8,19,-5
2268,-54,8,1002,-11,29,-1
2269,-154,17,976,-17,19,1
2270,-137,-8,996,-20,-4,-6
2271,-47,-44,993,-19,-24,-13
2272,93,-43,1007,-14,-25,-14
2273,145,-42,1007,-10,-8,-11
2274,83,-15,999,-8,15,-3
2275,-28,6,998,-8,29,-1
2276,-144,24,986,-15,23,1
2277,-145,-7,995,-20,1,-5
2278,-72,-36,984,-19,-21,-11
2279,77,-43,1006,-14,-28,-14
2280,143,-50,1013,-10,-12,-13
2281,103,-21,1007,-8,13,-5
2282,0,11,989,-9,26,-2
2283,-135,15,987,-14,24,1
2284,-156,-1,989,-19,4,-4
2285,-89,-28,994,-19,-16,-10
2286,59,-43,1004,-16,-29,-14
2287,124,-56,1011,-12,-14,-13
2288,128,-20,1002,-6,7,-6
2289,13,2,1001,-11,26,-2
2290,-113,17,993,-14,26,0
2291,-162,0,979,-20,9,-3
2292,-102,-16,981,-20,-16,-7
2293,26,-53,1014,-19,-27,-14
2294,121,-54,1007,-10,-18,-14
2295,137,-29,1004,-8,3,-8
2296,34,4,1006,-7,24,-3
2297,-94,13,1000,-13,27,1
2298,-162,14,971,-19,12,-1
2299,-120,-13,994,-20,-11,-8
2300,4,-50,1001,-18,-27,-13
2301,110,-54,1002,-13,-21,-12
2302,149,-33,1011,-6,-2,-10
2303,50,-7,1008,-9,22,-3
2304,-72,13,1002,-11,28,1
2305,-158,15,975,-17,16,0
2306,-134,-8,993,-20,-8,-6
2307,-22,-46,996,-20,-28,-13
2308,101,-47,1003,-14,-24,-13
2309,152,-41,1006,-10,-4,-12
2310,70,-12,1007,-8,19,-3
2311,-52,10,1001,-11,29,1
2312,-149,22,980,-16,19,0
2313,-145,-9,992,-21,-4,-6
2314,-49,-36,992,-19,-26,-12
2315,87,-44,1012,-15,-26,-13
2316,145,-47,1000,-10,-9,-11
2317,91,-19,1005,-6,14,-4
2318,-23,11,992,-10,27,-2
2319,-141,24,991,-16,24,1
2320,-147,-3,993,-19,-1,-6
2321,-78,-31,984,-20,-22,-11
2322,78,-40,1004,-15,-29,-15
2323,134,-54,1016,-12,-13,-12
2324,108,-20,1003,-8,11,-5
2325,0,4,997,-8,27,-2
2326,-130,22,985,-13,25,1
2327,-159,-1,991,-19,4,-4
2328,-91,-21,988,-21,-18,-10
2329,49,-47,1009,-17,-28,-12
2330,125,-56,1009,-12,-17,-13
2331,127,-29,1003,-8,5,-7
2332,23,5,1000,-10,26,-2
2333,-109,12,1001,-14,27,1
2334,-161,8,973,-18,9,-2
2335,-111,-11,985,-20,-14,-7
2336,23,-47,1014,-17,-29,-13
2337,117,-54,1006,-14,-20,-13
2338,140,-30,1007,-8,2,-8
2339,39,-3,1004,-7,24,-3
2340,-90,13,999,-11,29,2
2341,-160,12,973,-18,12,0
2342,-121,-7,993,-20,-10,-7
2343,-1,-46,1001,-19,-26,-13
2344,109,-50,1004,-14,-22,-14
2345,144,-40,1005,-9,-2,-10
2346,56,-6,1009,-7,22,-3
2347,-65,9,1002,-10,30,1
2348,-157,19,973,-17,17,-1
2349,-135,-3,993,-19,-8,-7
2350,-27,-43,993,-21,-27,-13
2351,100,-47,1005,-14,-25,-12
2352,152,-46,1003,-10,-6,-10
2353,73,-17,1003,-8,18,-3
2354,-41,10,1000,-9,27,0
2355,-150,22,983,-17,21,0
2356,-143,-2,990,-19,-2,-5
2357,-57,-38,993,-20,-23,-12
2358,83,-41,1008,-16,-26,-13
2359,141,-50,1006,-11,-10,-12
2360,93,-19,1005,-8,14,-5
2361,-18,7,992,-9,28,-1
2362,-139,20,989,-14,24,2
2363,-151,-2,994,-18,2,-4
2364,-80,-28,981,-19,-21,-9
2365,66,-42,1011,-13,-27,-13
2366,134,-52,1014,-9,-15,-14
2367,115,-24,1002,-12,13,-4
2368,7,2,997,-16,34,2
2369,-126,20,988,-14,26,1
2370,-161,-3,985,-20,7,-3
2371,-99,-16,992,-20,-14,-10
2372,47,-47,1010,-19,-27,-13
2373,125,-54,1006,-12,-17,-14
2374,129,-25,1001,-6,4,-7
2375,25,2,1005,-11,24,-3
2376,-107,11,999,-13,27,0
2377,-162,4,972,-18,9,-3
2378,-110,-12,987,-19,-14,-8
2379,18,-45,1009,-16,-27,-12
2380,118,-51,1009,-13,-18,-13
2381,139,-30,1005,-9,3,-9
2382,40,-1,1004,-8,23,-2
2383,-85,10,1001,-13,29,0
2384,-161,13,971,-19,14,-1
2385,-124,-10,996,-21,-9,-7
2386,-8,-47,1000,-20,-26,-14
2387,109,-48,998,-14,-22,-14
2388,144,-35,1006,-8,-4,-10
2389,59,-9,1009,-8,21,-4
2390,-56,15,1005,-12,29,1
2391,-157,15,969,-17,17,0
2392,-135,-4,994,-19,-6,-8
2393,-36,-48,997,-20,-24,-12
2394,93,-42,1003,-13,-23,-13
2395,150,-48,1003,-11,-7,-12
2396,76,-10,1003,-6,18,-3
2397,-39,9,999,-11,27,0
2398,-147,24,987,-17,20,0
2399,-144,-8,993,-20,-1,-5
2400,-61,-36,987,-20,-22,-11
2401,79,-43,1008,-15,-26,-12
2402,144,-50,1009,-10,-11,-11
2403,96,-22,1003,-6,14,-4
2404,-14,8,994,-11,28,0
2405,-138,22,987,-16,23,1
2406,-156,-3,992,-20,1,-4
2407,-78,-24,988,-21,-19,-9
2408,64,-47,1010,-16,-28,-13
2409,131,-53,1008,-10,-14,-12
2410,117,-23,1006,-8,8,-6
2411,6,4,995,-9,26,-1
2412,-123,19,991,-14,24,3
2413,-158,0,983,-19,7,-4
2414,-95,-15,989,-20,-17,-9
2415,41,-45,1012,-17,-29,-14
2416,120,-56,1005,-11,-17,-14
2417,134,-26,1005,-8,3,-7
2418,24,-1,1005,-11,25,-2
2419,-102,12,997,-15,26,1
2420,-158,6,972,-20,8,-4
2421,-116,-11,988,-20,-12,-8
2422,15,-49,1005,-19,-27,-14
2423,117,-53,1008,-14,-18,-14
2424,140,-29,1002,-8,0,-7
2425,44,-3,1008,-7,21,-3
2426,-77,11,1001,-12,27,1
2427,-161,17,969,-18,16,-1
2428,-126,-8,998,-21,-9,-7
2429,-18,-50,996,-19,-27,-12
2430,106,-47,999,-14,-23,-12
2431,151,-43,1007,-8,-4,-10
2432,63,-7,1008,-7,21,-3
2433,-57,12,1003,-12,28,0
2434,-154,20,975,-16,17,-1
2435,-139,-8,992,-19,-5,-6
2436,-41,-41,995,-18,-23,-11
2437,93,-50,1010,-14,-24,-13
2438,146,-43,1001,-12,-8,-11
2439,87,-18,1001,-7,16,-4
2440,-36,12,1001,-10,28,1
2441,-143,23,987,-18,22,1
2442,-149,-6,995,-20,1,-5
2443,-65,-32,984,-18,-22,-11
2444,75,-44,1006,-15,-27,-14
2445,140,-51,1010,-9,-12,-13
2446,104,-24,1005,-8,12,-5
2447,-8,8,991,-10,29,-3
2448,-131,22,987,-15,23,2
2449,-157,1,996,-20,4,-4
2450,-85,-25,986,-20,-18,-10
2451,56,-46,1011,-17,-27,-14
2452,127,-55,1010,-11,-14,-12
2453,124,-24,1000,-7,7,-6
2454,16,3,1001,-9,26,-1
2455,-114,16,995,-13,26,3
2456,-162,6,975,-20,8,-2
2457,-104,-11,990,-20,-16,-8
2458,31,-49,1011,-19,-29,-13
2459,118,-57,1003,-12,-19,-13
2460,135,-29,1008,-7,3,-6
2461,32,-1,1002,-9,24,-2
2462,-97,14,1000,-11,27,1
2463,-157,12,970,-17,12,-2
2464,-119,-9,990,-20,-11,-7
2465,6,-47,1003,-18,-27,-13
2466,111,-54,1003,-14,-20,-14
2467,145,-36,1006,-7,-3,-9
2468,51,-5,1007,-8,20,-3
2469,-72,8,1003,-12,27,0
2470,-156,16,971,-18,16,-1
2471,-132,-7,997,-19,-7,-7
2472,-24,-46,997,-19,-25,-13
2473,101,-45,1002,-13,-22,-13
2474,152,-43,1002,-8,-5,-10
2475,67,-10,1007,-9,19,-3
2476,-46,8,1001,-10,28,0
2477,-157,22,979,-17,18,1
2478,-140,-3,993,-20,-3,-6
2479,-50,-40,995,-19,-22,-13
2480,92,-45,1006,-15,-26,-14
2481,144,-46,1006,-12,-10,-12
2482,88,-17,1001,-6,15,-3
2483,-22,5,999,-10,28,0
2484,-146,21,983,-16,24,2
2485,-149,-4,995,-19,0,-4
2486,-72,-32,984,-18,-22,-11
2487,71,-40,1006,-14,-29,-12
2488,139,-50,1013,-10,-13,-14
2489,112,-25,1007,-8,13,-6
2490,0,7,989,-9,27,-1
2491,-131,19,990,-14,25,2
2492,-159,0,987,-19,5,-3
2493,-91,-21,987,-20,-17,-9
2494,52,-44,1010,-17,-28,-12
2495,123,-54,1004,-11,-16,-13
2496,126,-22,1008,-7,5,-6
2497,18,0,997,-11,26,-2
2498,-113,12,999,-14,28,2
2499,-160,2,974,-18,9,-3
2500,-110,-11,985,-20,-14,-9
2501,29,-46,1009,-16,-28,-15
2502,118,-53,1013,-12,-18,-14
2503,141,-28,1001,-10,1,-8
2504,35,-5,1007,-8,24,-4
2505,-92,11,996,-13,27,3
2506,-159,8,971,-17,14,-2
2507,-123,-4,997,-19,-10,-8
2508,-1,-47,1000,-19,-26,-12
2509,111,-47,1002,-13,-21,-14
2510,146,-39,1005,-9,-3,-9
2511,56,-5,1008,-9,21,-4
2512,-69,5,1003,-13,29,0
2513,-156,21,974,-16,16,-1
2514,-131,-5,994,-18,-8,-7
2515,-27,-41,999,-20,-25,-12
2516,99,-48,996,-13,-24,-13
2517,146,-45,1010,-8,-5,-11
2518,71,-17,1004,-8,18,-3
2519,-45,8,1002,-10,27,0
2520,-148,21,981,-16,18,0
2521,-144,-6,996,-19,-1,-4
2522,-54,-38,991,-20,-21,-13
2523,90,-43,1011,-15,-26,-13
2524,143,-48,1003,-11,-10,-12
2525,91,-23,1000,-8,15,-5
2526,-19,7,996,-10,27,-1
2527,-141,19,987,-15,21,2
2528,-148,-1,992,-19,0,-6
2529,-76,-29,987,-20,-21,-10
2530,74,-40,1004,-15,-27,-13
2531,133,-53,1016,-11,-11,-12
2532,112,-23,1004,-9,9,-5
2533,0,3,991,-9,26,-2
2534,-127,17,989,-14,24,2
2535,-159,0,987,-19,6,-5
2536,-91,-18,988,-19,-15,-11
2537,47,-44,1010,-17,-28,-12
2538,124,-52,1007,-13,-16,-13
2539,130,-28,1002,-7,5,-7
2540,21,2,1001,-10,27,-1
2541,-111,12,1003,-13,26,1
2542,-160,7,967,-19,9,-4
2543,-108,-12,986,-19,-14,-8
2544,21,-46,1009,-18,-28,-12
2545,114,-53,1008,-12,-18,-14
2546,144,-29,1004,-10,3,-8
2547,34,-3,1004,-8,24,-2
2548,-85,9,1000,-13,25,1
2549,-159,9,972,-18,12,-2
2550,-124,-9,994,-19,-9,-7
2551,-3,-44,1001,-19,-27,-13
2552,109,-48,998,-13,-24,-14
2553,145,-35,1006,-7,-5,-9
2554,56,-6,1010,-8,21,-3
2555,-62,9,1003,-12,29,0
2556,-157,16,972,-18,17,0
2557,-136,-6,996,-18,-6,-6
2558,-30,-43,993,-19,-26,-12
2559,100,-44,1009,-13,-23,-13
2560,146,-43,1001,-10,-5,-10
2561,75,-17,1001,-9,17,-3
2562,-42,6,1003,-10,27,-1
2563,-147,21,981,-16,19,1
2564,-145,-6,993,-20,-2,-5
2565,-59,-37,995,-20,-21,-11
2566,83,-43,1003,-15,-27,-12
2567,146,-48,1013,-10,-12,-12
2568,94,-20,999,-9,13,-3
2569,-14,8,995,-11,29,-2
2570,-140,21,987,-17,23,1
2571,-153,-3,992,-20,0,-5
2572,-80,-30,987,-22,-21,-11
2573,71,-44,1007,-15,-28,-13
2574,133,-55,1012,-12,-13,-12
2575,118,-20,1006,-7,10,-4
2576,5,6,995,-10,26,-1
2577,-127,18,987,-13,26,1
2578,-162,0,984,-19,6,-3
2579,-95,-18,989,-19,-17,-10
2580,44,-49,1010,-17,-28,-14
2581,124,-51,1006,-11,-16,-13
2582,134,-28,1007,-8,6,-8
2583,24,4,1001,-11,26,-2
2584,-109,13,1001,-15,28,1
2585,-160,9,971,-18,10,-3
2586,-112,-14,988,-22,-14,-6
2587,21,-49,1006,-17,-29,-14
2588,115,-58,1011,-14,-19,-14
2589,142,-26,1002,-8,1,-8
2590,40,-1,1006,-6,23,-2
2591,-85,15,1002,-12,27,0
2592,-159,9,972,-18,14,-1
2593,-126,-7,993,-21,-8,-7
2594,-11,-52,998,-20,-26,-13
2595,110,-49,999,-13,-22,-14
2596,148,-36,1008,-10,-4,-11
2597,59,-7,1009,-9,20,-3
2598,-60,10,1002,-11,27,1
2599,-154,18,972,-17,17,1
2600,-139,-7,996,-20,-7,-6
2601,-34,-43,994,-20,-26,-12
2602,98,-46,1005,-14,-24,-14
2603,148,-47,1003,-9,-7,-11
2604,79,-19,1003,-6,17,-5
2605,-36,9,999,-10,28,0
2606,-151,25,986,-16,21,1
2607,-141,-1,996,-20,-1,-5
2608,-67,-34,992,-22,-21,-11
2609,83,-43,1004,-16,-26,-13
2610,144,-55,1014,-11,-11,-12
2611,95,-26,998,-10,13,-4
2612,-10,6,996,-10,28,-2
2613,-138,23,988,-15,25,2
2614,-156,4,994,-19,1,-4
2615,-80,-24,989,-20,-20,-12
2616,61,-43,1008,-16,-28,-14
2617,133,-51,1012,-12,-13,-12
2618,119,-27,1007,-8,8,-6
2619,10,2,991,-8,26,-1
2620,-123,17,993,-13,26,2
2621,-165,1,983,-20,5,-3
2622,-97,-16,990,-19,-16,-10
2623,41,-44,1007,-17,-29,-14
2624,124,-50,1008,-13,-19,-14
2625,135,-30,1005,-7,2,-7
2626,24,0,998,-12,24,-2
2627,-102,13,1002,-13,27,1
2628,-163,4,972,-19,10,-3
2629,-115,-10,983,-20,-13,-8
2630,19,-48,1014,-16,-28,-13
2631,115,-50,1006,-14,-19,-13
2632,147,-30,1006,-8,1,-9
2633,39,-3,1006,-8,24,-2
2634,-82,9,998,-13,28,1
2635,-160,10,973,-17,15,-1
2636,-127,-9,995,-20,-8,-7
2637,-10,-41,999,-18,-27,-13
2638,108,-51,999,-13,-23,-14
2639,150,-36,1006,-8,-3,-10
2640,59,-6,1011,-9,22,-3
2641,-59,10,1001,-11,30,0
2642,-157,17,975,-16,18,0
2643,-137,-5,994,-20,-5,-6
2644,-36,-45,997,-19,-25,-13
2645,98,-46,1006,-15,-25,-13
2646,149,-46,1000,-11,-8,-12
2647,79,-12,1004,-5,17,-4
2648,-40,8,998,-10,28,0
2649,-150,27,985,-16,21,1
2650,-145,-5,994,-20,-2,-6
2651,-66,-37,989,-20,-22,-11
2652,85,-44,1003,-15,-28,-13
2653,142,-53,1012,-9,-12,-12
2654,99,-19,1000,-6,12,-4
2655,-15,6,994,-10,28,-1
2656,-137,24,984,-14,23,2
2657,-155,-4,994,-19,3,-3
2658,-82,-25,985,-19,-20,-11
2659,62,-47,1008,-16,-27,-14
2660,134,-55,1012,-12,-14,-14
2661,116,-26,1004,-6,9,-6
2662,10,7,991,-8,26,-1
2663,-125,18,995,-13,25,2
2664,-159,3,979,-20,6,-3
2665,-101,-14,990,-20,-15,-8
2666,44,-46,1010,-17,-29,-14
2667,121,-55,1006,-12,-17,-12
2668,135,-25,1003,-8,5,-7
2669,29,0,1004,-10,26,-3
2670,-106,13,1001,-13,29,2
2671,-160,7,969,-17,10,-2
2672,-118,-9,990,-21,-13,-7
2673,18,-46,1008,-17,-28,-13
2674,111,-53,1006,-13,-19,-14
2675,145,-30,1007,-9,0,-9
2676,43,-4,1005,-8,24,-4
2677,-85,11,1000,-10,29,0
2678,-157,14,975,-17,14,-2
2679,-127,-11,993,-20,-8,-7
2680,-13,-45,998,-19,-27,-13
2681,109,-53,999,-14,-24,-14
2682,145,-39,1005,-7,-4,-9
2683,61,-7,1009,-9,21,-2
2684,-56,7,1006,-13,29,-1
2685,-158,17,970,-16,18,0
2686,-138,-4,993,-19,-6,-7
2687,-35,-46,997,-20,-24,-12
2688,97,-44,1006,-14,-24,-14
2689,152,-47,1005,-9,-6,-12
2690,77,-16,1001,-8,18,-4
2691,-35,10,997,-9,27,-1
2692,-151,21,986,-17,22,2
2693,-141,-4,997,-19,-2,-5
2694,-64,-41,988,-19,-22,-11
2695,84,-39,1006,-14,-28,-13
2696,148,-52,1014,-11,-13,-12
2697,98,-21,1001,-7,13,-5
2698,-12,11,994,-10,29,-1
2699,-137,22,986,-15,26,1
2700,-155,-3,993,-20,3,-4
2701,-81,-29,988,-24,-22,-10
2702,64,-47,1006,-18,-28,-13
2703,133,-52,1012,-12,-14,-13
2704,119,-23,1006,-6,9,-5
2705,12,4,996,-11,25,-3
2706,-126,19,989,-15,25,2
2707,-162,1,985,-18,5,-3
2708,-100,-17,985,-21,-15,-9
2709,43,-48,1011,-17,-28,-13
2710,123,-53,1005,-12,-17,-13
2711,134,-27,1005,-6,4,-7
2712,30,1,1004,-10,27,-2
2713,-107,12,998,-14,28,2
2714,-161,7,971,-18,9,-3
2715,-112,-8,985,-19,-14,-8
2716,15,-47,1011,-17,-26,-13
2717,116,-52,1004,-13,-19,-14
2718,141,-29,1007,-10,0,-8
2719,42,-2,1001,-8,21,-2
2720,-84,12,1004,-13,28,0
2721,-158,11,973,-20,14,-1
2722,-127,-10,993,-19,-9,-7
2723,-9,-49,1000,-18,-26,-13
2724,109,-45,1000,-14,-23,-13
2725,151,-37,1008,-9,-3,-11
2726,60,-9,1010,-9,21,-2
2727,-63,11,999,-11,29,1
2728,-157,16,976,-15,18,-1
2729,-137,-7,994,-19,-7,-5
2730,-33,-42,995,-19,-26,-12
2731,97,-48,1005,-15,-24,-14
2732,151,-41,1005,-10,-6,-11
2733,77,-14,999,-8,17,-4
2734,-39,11,1004,-11,29,-1
2735,-148,21,982,-17,20,2
2736,-147,-8,993,-20,-1,-4
2737,-60,-36,989,-20,-21,-11
2738,83,-43,1007,-14,-26,-13
2739,146,-49,1004,-9,-12,-13
2740,97,-23,1006,-6,13,-6
2741,-13,8,994,-10,29,-3
2742,-139,20,989,-15,24,1
2743,-156,0,993,-19,1,-4
2744,-80,-28,985,-21,-19,-11
2745,66,-44,1008,-14,-26,-14
2746,136,-55,1013,-11,-14,-13
2747,117,-23,1006,-7,8,-6
2748,9,4,997,-7,26,-2
2749,-129,22,989,-13,26,2
2750,-162,0,986,-19,6,-3
2751,-97,-19,991,-20,-17,-10
2752,43,-46,1005,-16,-29,-14
2753,129,-52,1007,-12,-18,-14
2754,133,-25,1003,-8,5,-6
2755,26,6,1000,-10,25,-1
2756,-108,10,1003,-14,29,2
2757,-164,7,971,-20,9,-3
2758,-113,-14,985,-21,-15,-8
2759,21,-47,1012,-16,-29,-14
2760,116,-53,1005,-13,-19,-13
2761,146,-30,1004,-7,2,-8
2762,39,-4,1006,-8,23,-2
2763,-84,15,998,-12,27,0
2764,-161,10,975,-19,13,-1
2765,-128,-7,991,-21,-8,-6
2766,-4,-47,1003,-19,-25,-14
2767,107,-50,1000,-14,-22,-14
2768,148,-36,1004,-9,-4,-11
2769,57,-7,1009,-8,21,-2
2770,-63,9,1005,-12,28,1
2771,-152,16,973,-16,16,-1
2772,-139,-7,992,-20,-6,-5
2773,-36,-41,994,-18,-24,-12
2774,100,-45,1007,-14,-25,-15
2775,150,-41,1002,-11,-7,-11
2776,79,-11,1004,-7,17,-4
2777,-43,7,1004,-10,28,0
2778,-149,18,978,-17,20,1
2779,-147,-8,994,-19,-2,-5
2780,-63,-37,994,-19,-23,-10
2781,89,-43,1006,-14,-28,-13
2782,145,-47,1007,-9,-10,-12
2783,93,-19,1002,-6,14,-4
2784,-19,7,995,-11,28,0
2785,-142,19,985,-17,23,2
2786,-155,-5,995,-19,2,-4
2787,-79,-30,985,-19,-21,-12
2788,72,-43,1004,-13,-28,-14
2789,136,-50,1013,-11,-12,-13
2790,116,-21,1009,-8,11,-5
2791,4,5,988,-8,28,-2
2792,-128,18,991,-14,26,1
2793,-162,0,988,-19,6,-3
2794,-92,-21,987,-20,-16,-9
2795,50,-44,1010,-18,-29,-12
2796,128,-55,1008,-12,-17,-14
2797,134,-24,1002,-8,5,-7
2798,20,3,1000,-10,25,-1
2799,-108,16,999,-13,28,0
2800,-167,6,973,-18,9,-3
2801,-108,-11,982,-20,-15,-8
2802,22,-48,1016,-17,-29,-12
2803,117,-54,1004,-13,-18,-12
2804,142,-32,1006,-9,1,-9
2805,38,-3,1003,-7,24,-2
2806,-88,14,999,-11,27,2
2807,-159,12,974,-19,12,-3
2808,-125,-7,992,-20,-10,-8
2809,0,-45,1002,-18,-27,-14
2810,109,-53,1002,-13,-20,-12
2811,149,-35,1006,-7,-1,-9
2812,54,-9,1009,-8,22,-3
2813,-68,10,1001,-11,28,1
2814,-160,16,975,-16,17,0
2815,-136,-5,991,-19,-6,-6
2816,-26,-43,1001,-19,-24,-13
2817,100,-48,1000,-15,-24,-13
2818,152,-41,1005,-10,-6,-11
2819,71,-13,1006,-9,20,-2
2820,-44,12,1003,-9,27,-1
2821,-152,21,979,-17,19,0
2822,-147,-6,993,-19,-4,-5
2823,-54,-40,991,-19,-22,-11
2824,89,-45,1008,-16,-25,-14
2825,144,-48,1004,-10,-10,-12
2826,94,-19,1005,-4,14,-5
2827,-23,11,994,-8,28,-1
2828,-142,25,989,-15,23,1
2829,-151,-6,996,-19,2,-4
2830,-78,-32,984,-20,-22,-11
2831,73,-46,1004,-15,-29,-14
2832,138,-55,1018,-9,-14,-13
2833,109,-22,1003,-8,11,-5
2834,0,7,993,-9,26,-2
2835,-133,23,985,-13,25,2
2836,-160,1,992,-18,4,-4
2837,-92,-22,986,-21,-18,-10
2838,53,-46,1009,-16,-28,-14
2839,130,-56,1008,-11,-17,-14
2840,128,-27,1005,-6,6,-6
2841,22,4,998,-8,26,-3
2842,-120,17,999,-13,28,1
2843,-164,8,974,-19,10,-3
2844,-106,-11,989,-20,-14,-8
2845,30,-49,1009,-17,-29,-13
2846,118,-57,1005,-13,-18,-13
2847,142,-28,1006,-8,3,-7
2848,33,-2,1005,-7,24,-2
2849,-95,14,999,-11,27,1
2850,-161,9,973,-17,11,-2
2851,-122,-9,990,-20,-11,-7
2852,6,-48,1005,-20,-27,-13
2853,109,-54,1004,-14,-20,-13
2854,146,-33,1004,-8,-2,-8
2855,51,-5,1011,-8,20,-3
2856,-75,11,1000,-13,28,0
2857,-159,16,974,-17,16,0
2858,-135,-6,996,-20,-8,-6
2859,-22,-45,996,-20,-27,-12
2860,102,-51,1004,-13,-24,-14
2861,150,-44,1004,-9,-5,-10
2862,70,-9,1007,-8,19,-3
2863,-50,10,1003,-10,29,-1
2864,-154,23,979,-18,19,0
2865,-141,-4,992,-18,-3,-7
2866,-50,-41,996,-19,-24,-13
2867,93,-47,1007,-15,-25,-15
2868,146,-50,998,-11,-9,-11
2869,88,-17,1001,-7,14,-4
2870,-29,9,1000,-10,28,-2
2871,-145,26,986,-15,24,1
2872,-148,-2,995,-20,1,-5
2873,-70,-33,984,-20,-23,-11
2874,74,-40,1006,-14,-28,-13
2875,142,-55,1012,-11,-11,-12
2876,105,-25,1005,-9,12,-4
2877,-1,6,992,-8,27,-3
2878,-133,23,987,-13,24,0
2879,-160,1,991,-17,3,-4
2880,-87,-19,991,-21,-19,-9
2881,56,-47,1007,-18,-27,-13
2882,131,-55,1010,-13,-16,-14
2883,122,-26,1002,-7,7,-6
2884,16,2,998,-9,25,-1
2885,-117,15,995,-15,28,1
2886,-160,5,979,-17,8,-3
2887,-103,-15,987,-20,-16,-9
2888,33,-46,1010,-17,-29,-14
2889,119,-56,1008,-12,-18,-14
2890,137,-30,1001,-10,4,-7
2891,34,-3,1006,-9,25,-1
2892,-95,11,998,-12,28,2
2893,-165,7,972,-17,11,-2
2894,-119,-8,986,-20,-12,-8
2895,7,-49,1009,-18,-26,-13
2896,112,-49,1005,-13,-21,-13
2897,147,-34,1006,-8,-1,-10
2898,47,-4,1004,-9,22,-3
2899,-75,10,1003,-11,29,-1
2900,-159,14,975,-17,17,-1
2901,-134,-8,992,-20,-7,-6
2902,-16,-45,998,-18,-26,-12
2903,100,-49,998,-13,-23,-13
2904,152,-35,1008,-9,-4,-10
2905,65,-12,1009,-8,19,-4
2906,-57,15,999,-10,29,0
2907,-151,18,977,-16,18,-1
2908,-142,-4,994,-21,-4,-5
2909,-43,-41,992,-19,-25,-11
2910,94,-47,1009,-14,-24,-14
2911,148,-46,1004,-11,-9,-10
2912,84,-15,1000,-7,15,-4
2913,-34,9,1002,-11,28,-1
2914,-144,22,985,-16,23,1
2915,-151,-3,996,-19,1,-5
2916,-69,-34,985,-20,-22,-12
2917,79,-39,1009,-14,-28,-14
2918,141,-52,1011,-10,-13,-13
2919,101,-21,1004,-8,13,-5
2920,-9,4,993,-11,28,-1
2921,-140,24,987,-13,24,2
2922,-156,-3,989,-20,3,-3
2923,-89,-24,990,-19,-19,-10
2924,62,-43,1007,-16,-28,-13
2925,133,-55,1008,-12,-14,-14
2926,120,-22,1006,-6,8,-5
2927,12,7,994,-9,27,-2
2928,-122,16,992,-13,27,1
2929,-161,0,981,-19,8,-3
2930,-103,-16,986,-20,-14,-8
2931,41,-48,1013,-17,-29,-13
2932,117,-52,1004,-10,-17,-13
2933,138,-24,1009,-9,3,-9
2934,30,-1,1003,-8,26,-2
2935,-102,16,999,-11,27,1
2936,-158,7,974,-19,9,-2
2937,-121,-13,987,-19,-13,-7
2938,11,-48,1003,-18,-28,-13
2939,116,-56,1012,-13,-21,-14
2940,145,-27,1004,-7,0,-8
2941,48,-3,1005,-6,22,-3
2942,-80,12,1002,-11,29,1
2943,-158,15,967,-18,15,0
2944,-130,-9,997,-20,-8,-7
2945,-17,-50,998,-20,-27,-12
2946,109,-48,996,-12,-23,-13
2947,149,-41,1007,-9,-5,-10
2948,62,-5,1009,-7,21,-2
2949,-56,9,1005,-12,29,0
2950,-158,20,974,-18,18,0
2951,-139,-3,994,-21,-6,-6
2952,-37,-41,996,-20,-25,-13
2953,93,-46,1007,-14,-24,-14
2954,149,-47,1000,-8,-8,-11
2955,83,-19,1004,-6,16,-4
2956,-37,12,1000,-10,27,-1
2957,-149,26,990,-16,22,2
2958,-143,-3,992,-22,0,-5
2959,-67,-38,990,-20,-21,-11
2960,83,-45,1002,-15,-26,-14
2961,143,-54,1013,-9,-10,-13
2962,104,-21,1002,-8,14,-4
2963,-12,8,994,-10,29,-1
2964,-137,22,986,-15,24,1
2965,-156,-2,997,-20,2,-4
2966,-86,-29,984,-21,-19,-9
2967,64,-41,1008,-15,-30,-13
2968,134,-56,1013,-12,-14,-13
2969,117,-24,1005,-7,8,-6
2970,13,4,994,-10,25,-2
2971,-126,14,993,-14,27,2
2972,-161,4,978,-18,7,-2
2973,-104,-18,995,-21,-17,-10
2974,44,-45,1006,-16,-29,-13
2975,121,-56,1007,-12,-17,-13
2976,136,-25,1003,-8,5,-7
2977,27,2,1004,-11,25,-2
2978,-103,19,998,-14,29,1
2979,-167,5,974,-18,10,-3
2980,-114,-13,984,-20,-15,-8
2981,14,-51,1009,-18,-29,-12
2982,119,-51,1006,-12,-20,-14
2983,146,-30,1005,-8,1,-9
2984,44,1,1006,-8,23,-2
2985,-83,13,1000,-12,27,0
2986,-165,11,973,-18,14,-1
2987,-127,-10,993,-21,-10,-7
2988,-8,-52,1001,-19,-26,-14
2989,108,-51,1000,-12,-22,-14
2990,150,-37,1009,-7,-5,-10
2991,63,-4,1010,-6,20,-3
2992,-66,12,1004,-13,31,1
2993,-157,16,973,-18,17,0
2994,-142,-7,995,-19,-7,-5
2995,-32,-45,993,-20,-26,-12
2996,99,-50,1010,-14,-24,-14
2997,151,-44,999,-10,-6,-10
2998,79,-11,1005,-7,17,-3
2999,-38,9,1000,-10,28,-1
3000,-152,24,983,-17,21,1
3001,-147,-5,991,-20,-2,-6
3002,-64,-42,993,-20,-24,-12
3003,84,-44,1003,-15,-27,-13
3004,148,-53,1012,-11,-11,-12
3005,96,-20,1004,-7,15,-4
3006,-15,11,991,-9,29,0
3007,-139,24,991,-15,25,0
3008,-156,-2,995,-20,1,-4
3009,-80,-28,983,-20,-19,-10
3010,67,-45,1009,-15,-27,-15
3011,134,-54,1014,-12,-13,-12
3012,118,-26,1001,-8,10,-6
3013,5,4,999,-6,28,-1
3014,-125,19,987,-15,25,1
3015,-161,1,986,-19,6,-4
3016,-98,-12,991,-19,-16,-10
3017,46,-45,1008,-18,-28,-12
3018,123,-54,1009,-12,-16,-13
3019,130,-27,1001,-8,5,-7
3020,23,-1,1003,-11,25,-4
3021,-109,10,1000,-13,28,0
3022,-160,9,970,-18,9,-2
3023,-113,-11,988,-20,-13,-8
3024,21,-47,1009,-17,-28,-13
3025,117,-53,1007,-14,-19,-14
3026,141,-29,1005,-9,2,-8
3027,39,-5,1004,-9,22,-2
3028,-85,9,1002,-12,28,0
3029,-160,10,971,-17,14,-1
3030,-124,-8,994,-22,-8,-6
3031,-6,-44,1001,-19,-26,-13
3032,106,-48,998,-14,-22,-14
3033,151,-37,1009,-9,-5,-10
3034,56,-9,1010,-9,20,-2
3035,-62,12,1000,-12,29,0
3036,-156,12,975,-16,18,-1
3037,-140,-3,991,-19,-7,-5
3038,-32,-42,995,-19,-27,-12
3039,98,-46,1007,-17,-23,-13
3040,148,-41,1002,-19,-12,-11
3041,78,-16,1002,-8,17,-4
3042,-42,8,1006,-9,27,-1
3043,-152,22,980,-16,19,0
3044,-149,-7,990,-19,-2,-7
3045,-58,-38,994,-19,-23,-12
3046,86,-44,1007,-13,-27,-13
3047,146,-47,1006,-10,-11,-12
3048,96,-18,1005,-6,15,-4
3049,-19,8,992,-10,28,-1
3050,-143,21,990,-16,24,1
3051,-154,-7,996,-20,1,-4
3052,-80,-31,982,-20,-21,-11
3053,71,-42,1010,-14,-28,-14
3054,136,-52,1013,-12,-13,-13
3055,116,-19,1005,-9,10,-5
3056,0,7,993,-10,26,-1
3057,-126,21,988,-15,25,2
3058,-163,-1,988,-19,6,-3
3059,-93,-22,989,-20,-16,-9
3060,47,-46,1009,-17,-27,-14
3061,122,-54,1007,-10,-17,-13
3062,132,-21,1004,-9,3,-7
3063,26,3,1002,-11,25,-2
3064,-113,14,995,-15,28,2
3065,-164,5,974,-19,10,-3
3066,-111,-16,986,-21,-13,-8
3067,26,-48,1011,-16,-28,-13
3068,121,-51,1006,-13,-19,-12
3069,140,-30,1008,-8,1,-8
3070,40,-2,1004,-6,24,-3
3071,-90,15,1002,-12,28,0
3072,-162,9,970,-17,13,-2
3073,-125,-9,993,-21,-10,-7
3074,-4,-50,1001,-17,-26,-12
3075,112,-50,1001,-13,-22,-14
3076,149,-34,1009,-9,-4,-10
3077,53,-3,1005,-9,21,-2
3078,-66,12,1005,-12,29,0
3079,-162,15,975,-18,17,0
3080,-135,-9,988,-20,-7,-6
3081,-27,-51,1002,-19,-27,-13
3082,102,-44,1002,-13,-24,-13
3083,152,-44,1001,-8,-6,-11
3084,74,-8,1010,-8,18,-4
3085,-48,9,1002,-13,29,0
3086,-154,23,976,-17,20,-1
3087,-144,-12,998,-21,-4,-6
3088,-53,-38,992,-19,-22,-12
3089,88,-49,1008,-15,-24,-14
3090,147,-45,1006,-9,-11,-11
3091,89,-19,1001,-6,13,-4
3092,-23,13,994,-10,27,-1
3093,-147,22,990,-17,24,2
3094,-152,-2,993,-20,2,-4
3095,-80,-34,985,-20,-20,-10
3096,73,-41,1009,-12,-29,-14
3097,137,-54,1011,-11,-12,-13
3098,114,-21,1007,-8,11,-6
3099,-2,6,993,-9,28,-2
3100,-129,21,985,-15,25,1
3101,-160,-4,990,-19,5,-3
3102,-90,-21,987,-20,-16,-10
3103,55,-46,1010,-18,-27,-15
3104,129,-53,1006,-12,-16,-15
3105,124,-21,1003,-7,6,-6
3106,22,4,1001,-11,26,-2
3107,-117,17,998,-16,28,2
3108,-161,5,975,-20,9,-2
3109,-108,-17,988,-19,-17,-8
3110,27,-49,1008,-18,-29,-12
3111,119,-55,1008,-13,-19,-13
3112,137,-26,1008,-7,3,-8
3113,39,-2,1004,-11,24,-2
3114,-95,13,998,-12,29,1
3115,-160,8,972,-19,11,-1
3116,-120,-11,991,-20,-10,-8
3117,4,-52,1002,-17,-27,-14
3118,111,-50,1005,-13,-22,-13
3119,146,-33,1006,-8,-3,-9
3120,52,-2,1008,-9,22,-3
3121,-68,12,1003,-11,28,1
3122,-157,17,975,-17,17,-1
3123,-131,-9,994,-20,-7,-6
3124,-23,-44,997,-19,-26,-13
3125,100,-51,1000,-14,-24,-13
3126,151,-41,1007,-10,-6,-10
3127,71,-12,1007,-8,18,-3
3128,-46,14,1000,-10,27,-1
3129,-153,20,979,-16,19,0
3130,-146,-5,990,-21,-2,-6
3131,-51,-42,996,-21,-23,-12
3132,91,-46,1008,-16,-25,-13
3133,147,-51,1003,-12,-10,-12
3134,91,-18,1002,-6,14,-4
3135,-31,9,999,-10,28,-1
3136,-144,25,989,-15,23,0
3137,-151,-5,994,-19,1,-4
3138,-73,-32,981,-20,-21,-10
3139,77,-45,1009,-15,-28,-14
3140,142,-52,1013,-9,-12,-12
3141,107,-23,1001,-10,12,-5
3142,-4,9,995,-9,28,-3
3143,-132,20,989,-15,25,2
3144,-159,-1,988,-18,4,-5
3145,-89,-23,992,-21,-19,-10
3146,59,-48,1007,-17,-29,-13
3147,130,-57,1008,-10,-14,-13
3148,125,-25,1003,-7,8,-5
3149,13,6,1000,-9,25,-2
3150,-117,17,993,-13,28,2
3151,-162,5,979,-17,8,-2
3152,-103,-16,987,-20,-16,-9
3153,34,-46,1011,-18,-29,-14
3154,119,-57,1007,-11,-19,-13
3155,138,-29,1009,-8,3,-8
3156,32,-1,1003,-8,25,-2
3157,-100,12,1002,-12,27,1
3158,-161,10,970,-19,10,-4
3159,-120,-10,989,-20,-12,-8
3160,10,-46,1006,-18,-27,-12
3161,114,-51,1006,-13,-21,-15
3162,148,-33,1002,-8,-1,-8
3163,45,-5,1008,-7,23,-2
3164,-75,9,1000,-12,28,0
3165,-163,12,972,-17,16,-1
3166,-130,-6,992,-20,-9,-6
3167,-17,-47,999,-19,-26,-13
3168,105,-45,998,-12,-22,-14
3169,150,-43,1007,-8,-4,-10
3170,65,-9,1008,-9,21,-3
3171,-55,9,1006,-11,29,1
3172,-156,20,972,-16,19,-1
3173,-141,-6,995,-20,-5,-5
3174,-41,-40,995,-21,-24,-11
3175,93,-44,1006,-17,-25,-13
3176,152,-46,1003,-12,-9,-11
3177,81,-19,1003,-8,16,-4
3178,-31,8,996,-10,27,-2
3179,-150,18,991,-17,22,1
3180,-147,-3,990,-18,-1,-6
3181,-68,-34,992,-18,-21,-11
3182,80,-41,1004,-15,-28,-13
3183,140,-53,1012,-10,-11,-12
3184,103,-20,1004,-9,12,-4
3185,-11,5,993,-10,28,-1
3186,-132,22,987,-14,25,2
3187,-157,-7,995,-20,2,-3
3188,-87,-21,986,-19,-19,-10
3189,63,-47,1011,-17,-27,-14
3190,129,-54,1008,-12,-13,-13
3191,121,-25,1005,-7,7,-6
3192,12,3,996,-8,25,-2
3193,-121,15,992,-14,26,2
3194,-158,4,984,-18,6,-3
3195,-102,-16,987,-20,-16,-9
3196,38,-47,1009,-15,-28,-13
3197,124,-56,1009,-12,-18,-14
3198,134,-28,1000,-8,4,-8
3199,30,2,1006,-8,26,-1
3200,-106,12,999,-14,28,2
3201,-159,9,972,-19,11,-2
3202,-115,-15,987,-20,-13,-8
3203,17,-45,1010,-17,-27,-13
3204,114,-56,1004,-14,-20,-13
3205,145,-31,1009,-9,0,-8
3206,44,-6,1006,-8,22,-2
3207,-80,9,1000,-11,28,0
3208,-161,11,974,-19,14,0
3209,-128,-5,993,-21,-9,-7
3210,-12,-48,999,-18,-26,-12
3211,110,-47,998,-12,-24,-13
3212,148,-39,1011,-9,-6,-10
3213,63,-10,1006,-10,19,-3
3214,-57,9,1004,-12,28,1
3215,-158,18,973,-17,17,-1
3216,-138,-7,994,-19,-6,-6
3217,-37,-44,993,-18,-26,-12
3218,100,-44,1008,-14,-26,-15
3219,151,-44,1006,-10,-7,-12
3220,79,-16,1001,-8,17,-3
3221,-39,11,1004,-10,28,-1
3222,-151,21,985,-16,22,2
3223,-145,-8,990,-20,0,-4
3224,-61,-39,993,-19,-23,-11
3225,79,-41,1006,-16,-27,-13
3226,146,-49,1008,-10,-11,-13
3227,96,-20,1005,-9,13,-5
3228,-12,6,994,-12,28,-1
3229,-140,19,986,-16,25,1
3230,-157,0,995,-20,3,-3
3231,-79,-24,985,-20,-19,-11
3232,65,-45,1007,-15,-26,-13
3233,134,-52,1011,-12,-14,-13
3234,117,-24,1007,-6,9,-7
3235,9,6,992,-9,25,-1
3236,-128,17,986,-15,27,2
3237,-156,1,989,-19,6,-5
3238,-102,-15,988,-21,-16,-8
3239,47,-46,1008,-17,-29,-13
3240,121,-59,1011,-12,-17,-13
3241,133,-24,1000,-8,5,-6
3242,30,-1,1005,-8,25,-3
3243,-108,13,999,-11,29,2
3244,-159,7,971,-18,11,-3
3245,-117,-11,990,-20,-13,-9
3246,17,-48,1007,-18,-28,-12
3247,116,-52,1010,-15,-20,-13
3248,141,-30,1006,-9,1,-8
3249,46,-1,1002,-9,23,-3
3250,-83,8,1003,-11,28,1
3251,-161,14,970,-17,13,-1
3252,-126,-9,995,-19,-9,-7
3253,-12,-46,996,-20,-26,-12
3254,110,-45,1000,-12,-22,-12
3255,151,-37,1008,-9,-4,-10
3256,55,-8,1006,-9,22,-2
3257,-60,9,1007,-12,29,0
3258,-156,14,973,-16,19,-1
3259,-136,-3,993,-17,-5,-5
3260,-31,-43,997,-21,-25,-13
3261,93,-44,1005,-14,-24,-13
3262,153,-45,1001,-10,-6,-10
3263,76,-17,1005,-7,17,-4
3264,-40,10,999,-9,27,-1
3265,-148,20,985,-16,20,0
3266,-146,-7,991,-20,-2,-5
3267,-59,-36,994,-20,-21,-12
3268,85,-42,1004,-16,-26,-14
3269,140,-49,1009,-9,-10,-11
3270,99,-21,1003,-7,13,-6
3271,-17,6,994,-9,27,-2
3272,-139,21,989,-15,23,2
3273,-155,-5,994,-20,1,-5
3274,-79,-26,983,-20,-21,-11
3275,67,-42,1009,-16,-28,-13
3276,136,-52,1012,-11,-13,-13
3277,114,-22,1010,-7,11,-4
3278,4,3,991,-10,26,-1
3279,-125,17,990,-13,27,2
3280,-162,-2,985,-20,5,-3
3281,-97,-17,992,-19,-18,-9
3282,44,-44,1007,-18,-28,-13
3283,122,-53,1008,-10,-16,-14
3284,133,-26,1003,-6,5,-8
3285,23,2,1005,-8,25,-2
3286,-107,12,995,-15,28,1
3287,-162,6,974,-19,10,-2
3288,-112,-11,984,-19,-14,-8
3289,21,-48,1008,-17,-29,-15
3290,117,-52,1010,-13,-20,-13
3291,143,-28,1001,-9,1,-7
3292,39,-3,1006,-8,24,-2
3293,-86,9,997,-12,26,2
3294,-160,13,974,-16,14,-1
3295,-128,-14,993,-21,-9,-8
3296,-8,-48,1000,-18,-26,-15
3297,110,-49,1000,-13,-22,-14
3298,146,-35,1007,-7,-2,-10
3299,58,-5,1011,-8,20,-3
3300,-62,11,1000,-12,27,0
3301,-160,18,975,-17,17,0
3302,-136,-8,994,-20,-6,-7
3303,-37,-45,995,-19,-25,-12
3304,99,-48,1005,-12,-24,-14
3305,149,-46,1007,-10,-6,-11
3306,76,-11,999,-7,17,-4
3307,-40,12,1004,-10,27,0
3308,-147,23,982,-17,20,1
3309,-141,-5,992,-21,-1,-5
3310,-59,-38,992,-20,-23,-12
3311,83,-46,1005,-16,-28,-14
3312,145,-49,1007,-11,-11,-11
3313,96,-18,1005,-7,13,-4
3314,-17,7,994,-11,28,-1
3315,-137,23,985,-15,23,0
3316,-153,-4,995,-21,1,-5
3317,-79,-29,985,-20,-20,-11
3318,66,-47,1008,-16,-27,-14
3319,134,-55,1011,-12,-12,-12
3320,116,-24,1006,-6,10,-5
3321,7,7,992,-9,26,-1
3322,-127,19,990,-14,25,1
3323,-156,1,985,-19,6,-4
3324,-98,-16,990,-22,-15,-9
3325,46,-47,1010,-17,-28,-13
3326,124,-58,1004,-12,-18,-12
3327,131,-26,1001,-8,4,-6
3328,25,0,1009,-8,25,-2
3329,-107,13,996,-14,28,2
3330,-164,10,972,-19,11,-2
3331,-113,-11,989,-21,-14,-7
3332,16,-47,1004,-18,-28,-13
3333,116,-57,1011,-13,-18,-14
3334,146,-32,1004,-9,1,-9
3335,39,-4,1005,-8,24,-3
3336,-81,15,1000,-11,26,0
3337,-161,11,974,-18,14,-1
3338,-127,-6,992,-20,-9,-7
3339,-11,-48,1001,-18,-26,-12
3340,108,-50,998,-14,-23,-13
3341,146,-38,1007,-8,-4,-10
3342,61,-9,1007,-8,20,-3
3343,-61,7,1005,-12,30,-1
3344,-158,17,973,-16,18,0
3345,-139,-4,993,-20,-5,-6
3346,-38,-42,995,-19,-24,-12
3347,95,-44,1008,-15,-24,-13
3348,149,-46,1003,-12,-7,-10
3349,78,-17,1000,-8,17,-5
3350,-38,11,1002,-9,26,-1
3351,-148,23,983,-16,21,1
3352,-146,-4,994,-20,-3,-4
3353,-62,-36,990,-20,-23,-12
3354,83,-43,1008,-14,-27,-13
3355,144,-53,1009,-10,-11,-12
3356,100,-22,1002,-8,14,-4
3357,-13,6,992,-9,28,-1
3358,-140,24,988,-14,23,1
3359,-157,-2,993,-19,2,-4
3360,-82,-26,986,-20,-19,-10
3361,65,-44,1007,-15,-27,-15
3362,133,-54,1015,-11,-14,-15
3363,117,-24,1000,-7,10,-5
3364,7,6,996,-8,26,-1
3365,-124,19,988,-12,26,2
3366,-161,0,984,-19,7,-3
3367,-97,-15,989,-20,-16,-9
3368,43,-46,1010,-18,-29,-12
3369,123,-54,1004,-11,-18,-14
3370,131,-28,1007,-7,5,-8
3371,29,0,998,-9,26,-2
3372,-108,11,1000,-13,28,1
3373,-161,10,968,-19,10,-2
3374,-113,-13,986,-19,-13,-8
3375,18,-47,1008,-20,-41,-18
3376,114,-51,1005,-14,-21,-14
3377,146,-30,1005,-8,1,-10
3378,40,-3,1005,-8,23,-3
3379,-82,10,1002,-11,27,1
3380,-162,12,968,-18,13,-1
3381,-124,-8,997,-20,-11,-6
3382,-14,-47,994,-19,-28,-12
3383,107,-51,1001,-12,-24,-14
3384,150,-40,1005,-10,-4,-9
3385,59,-7,1008,-8,22,-3
3386,-57,10,1003,-12,28,0
3387,-158,19,976,-15,16,-1
3388,-138,-8,989,-20,-5,-6
3389,-36,-46,1001,-18,-24,-12
3390,97,-47,1004,-15,-23,-12
3391,148,-41,1003,-11,-7,-11
3392,77,-17,1002,-5,16,-3
3393,-36,13,998,-10,28,-1
3394,-146,21,986,-18,22,0
3395,-147,-7,997,-19,-1,-6
3396,-66,-38,984,-20,-22,-11
3397,81,-45,1004,-15,-26,-13
3398,141,-53,1014,-11,-11,-11
3399,100,-20,1002,-8,11,-4
3400,-12,10,993,-9,28,-2
3401,-139,23,988,-16,23,1
3402,-155,-3,993,-20,1,-6
3403,-85,-29,989,-22,-19,-9
3404,61,-44,1006,-18,-29,-13
3405,128,-56,1011,-11,-16,-14
3406,117,-21,1005,-6,8,-6
3407,10,8,999,-9,27,-2
3408,-121,18,992,-15,25,2
3409,-160,2,982,-19,7,-2
3410,-98,-18,988,-20,-16,-9
3411,39,-49,1010,-18,-29,-14
3412,120,-57,1006,-12,-17,-13
3413,134,-28,1003,-7,4,-8
3414,28,0,1003,-9,24,-2
3415,-103,16,1001,-12,27,1
3416,-159,9,973,-19,9,-3
3417,-119,-10,985,-20,-12,-8
3418,15,-50,1010,-19,-28,-14
3419,113,-55,1005,-13,-19,-14
3420,141,-31,1004,-9,-1,-9
3421,46,-4,1006,-8,20,-5
3422,-77,13,1003,-12,28,0
3423,-156,16,969,-18,15,-2
3424,-127,-8,1000,-21,-8,-8
3425,-18,-46,995,-19,-25,-13
3426,104,-48,1000,-12,-23,-14
3427,150,-43,1004,-9,-4,-11
3428,61,-12,1011,-7,20,-3
3429,-53,11,1000,-12,28,0
3430,-158,23,978,-16,18,1
3431,-138,-3,995,-19,-6,-6
3432,-45,-43,994,-19,-24,-13
3433,93,-47,1008,-15,-24,-14
3434,147,-48,1002,-10,-8,-13
3435,81,-16,999,-6,15,-4
3436,-30,6,1000,-9,27,-2
3437,-146,27,988,-15,22,0
3438,-146,-5,993,-20,-1,-4
3439,-67,-31,988,-19,-22,-11
3440,73,-43,1006,-15,-27,-13
3441,140,-50,1011,-13,-12,-12
3442,103,-28,1007,-9,13,-6
3443,-6,6,990,-9,28,-2
3444,-131,20,986,-14,24,2
3445,-158,1,993,-19,3,-5
3446,-85,-22,987,-21,-18,-10
3447,57,-45,1010,-16,-27,-13
3448,127,-57,1006,-13,-15,-12
3449,127,-22,1004,-6,7,-6
3450,14,2,998,-9,24,-2
3451,-115,18,998,-13,26,2
3452,-158,1,975,-19,8,-3
3453,-107,-13,989,-19,-15,-8
3454,32,-47,1009,-18,-28,-12
3455,117,-53,1010,-11,-18,-13
3456,138,-30,1006,-8,3,-6
3457,33,0,1004,-9,25,-2
3458,-96,10,999,-13,27,2
3459,-160,12,971,-17,10,-3
3460,-119,-11,993,-21,-12,-8
3461,6,-48,1002,-18,-26,-13
3462,113,-49,1001,-16,-19,-14
3463,149,-34,1008,-9,-1,-9
3464,48,-5,1005,-8,23,-3
3465,-71,9,1006,-13,28,-1
3466,-157,14,973,-17,17,0
3467,-132,-6,993,-19,-8,-6
3468,-22,-45,998,-20,-26,-13
3469,100,-44,1002,-13,-24,-13
3470,150,-41,1003,-10,-4,-10
3471,66,-12,1011,-8,21,-2
3472,-46,9,997,-12,28,2
3473,-150,20,981,-17,18,-1
3474,-140,-8,991,-19,-4,-6
3475,-49,-36,994,-18,-23,-12
3476,91,-44,1007,-14,-25,-14
3477,142,-46,1008,-10,-10,-11
3478,89,-18,1000,-7,14,-5
3479,-25,6,996,-10,28,-2
3480,-143,20,987,-16,24,2
3481,-150,-5,997,-20,-1,-6
3482,-72,-32,984,-19,-21,-11
3483,72,-42,1006,-14,-26,-14
3484,132,-53,1013,-12,-11,-12
3485,112,-23,1007,-8,12,-5
3486,-1,4,991,-9,26,-4
3487,-125,18,989,-13,24,0
3488,-159,-3,988,-18,4,-3
3489,-90,-17,988,-20,-16,-10
3490,52,-47,1012,-17,-26,-14
3491,122,-55,1006,-12,-17,-13
3492,128,-23,1004,-7,8,-7
3493,17,0,1000,-10,27,-2
3494,-108,13,1000,-15,27,3
3495,-161,3,973,-18,8,-2
3496,-105,-12,985,-20,-14,-8
3497,24,-49,1013,-18,-29,-13
3498,117,-53,1002,-13,-18,-13
3499,141,-30,1009,-9,1,-8
3500,35,-3,1002,-9,23,-3
3501,-90,9,999,-12,26,0
3502,-155,8,970,-19,13,-3
3503,-126,-10,995,-19,-10,-7
3504,0,-46,998,-18,-26,-13
3505,108,-50,1007,-13,-20,-13
3506,145,-33,998,-8,-3,-9
3507,55,-6,1013,-8,21,-4
3508,-66,12,1001,-13,28,0
3509,-156,20,975,-17,17,0
3510,-132,-11,993,-21,-8,-6
3511,-31,-48,998,-19,-26,-12
3512,98,-45,1004,-14,-24,-13
3513,149,-44,1005,-10,-5,-11
3514,74,-13,1003,-5,18,-3
3515,-43,14,1001,-10,27,0
3516,-147,19,983,-17,20,0
3517,-142,-7,997,-20,-1,-6
3518,-61,-40,987,-21,-22,-11
3519,85,-41,1008,-15,-27,-14
3520,142,-51,1007,-10,-12,-11
3521,93,-20,1003,-8,13,-4
3522,-12,11,991,-10,27,-2
3523,-138,24,989,-15,24,2
3524,-151,-3,991,-21,1,-3
3525,-79,-30,992,-20,-19,-11
3526,67,-44,1003,-15,-27,-12
3527,130,-56,1013,-11,-12,-13
3528,115,-25,1004,-7,8,-6
3529,6,6,993,-8,26,-1
3530,-124,22,989,-16,24,1
3531,-162,1,986,-19,6,-5
3532,-93,-17,987,-21,-15,-8
3533,38,-51,1010,-17,-28,-12
3534,122,-56,1005,-11,-18,-13
3535,132,-30,1008,-8,5,-6
3536,22,5,999,-10,25,-2
3537,-104,11,1005,-13,26,2
3538,-159,11,969,-17,9,-2
3539,-112,-13,985,-20,-14,-7
3540,19,-46,1007,-20,-27,-13
3541,111,-52,1009,-14,-19,-12
3542,145,-29,1001,-10,0,-8
3543,40,-7,1010,-8,22,-2
3544,-81,13,997,-10,27,1
3545,-156,11,976,-18,14,-2
3546,-128,-8,993,-19,-9,-6
3547,-13,-49,1001,-18,-26,-12
3548,111,-47,1002,-12,-23,-14
3549,143,-40,1005,-7,-4,-10
3550,61,-8,1008,-10,20,-4
3551,-60,7,1005,-12,28,1
3552,-151,17,972,-16,17,0
3553,-137,-6,995,-20,-6,-6
3554,-40,-41,996,-19,-25,-13
3555,98,-46,1007,-14,-24,-13
3556,147,-45,1003,-11,-8,-12
3557,79,-12,1002,-8,17,-3
3558,-34,12,997,-11,27,-2
3559,-148,21,985,-19,21,1
3560,-145,-9,991,-21,-1,-4
3561,-66,-39,988,-20,-23,-10
3562,81,-45,1005,-14,-28,-13
3563,138,-47,1012,-9,-12,-12
3564,103,-19,1007,-8,13,-5
3565,-9,8,989,-10,27,-2
3566,-135,20,987,-15,23,2
3567,-156,-5,993,-18,2,-4
3568,-88,-27,985,-21,-18,-10
3569,61,-44,1011,-16,-27,-12
3570,124,-54,1010,-12,-14,-12
3571,122,-20,1002,-6,8,-4
3572,13,2,1001,-11,25,-1
3573,-115,17,994,-15,26,2
3574,-160,3,980,-19,7,-3
3575,-100,-13,984,-20,-16,-9
3576,31,-49,1014,-18,-29,-14
3577,117,-53,1004,-12,-18,-13
3578,136,-30,1010,-9,3,-8
3579,34,3,997,-8,23,-4
3580,-97,12,1006,-12,27,2
3581,-157,12,969,-20,11,-1
3582,-119,-13,994,-21,-10,-7
3583,5,-49,999,-17,-25,-13
3584,108,-51,1005,-14,-21,-13
3585,145,-33,1001,-9,-2,-9
3586,49,-4,1010,-7,22,-2
3587,-73,15,1000,-11,28,1
3588,-155,13,975,-17,16,-1
3589,-128,-4,994,-20,-7,-6
3590,-23,-45,997,-19,-25,-12
3591,102,-45,1003,-12,-23,-14
3592,147,-42,1002,-9,-5,-9
3593,66,-8,1007,-7,18,-2
3594,-49,9,1002,-10,28,-1
3595,-150,23,978,-15,19,1
3596,-138,-7,994,-20,-4,-5
3597,-52,-37,995,-20,-22,-11
3598,91,-46,1009,-17,-25,-13
3599,141,-47,1006,-11,-10,-12
3600,92,-20,999,-7,14,-3
3601,-23,7,998,-8,28,-1
3602,-143,22,982,-16,23,0
3603,-148,-3,999,-19,1,-4
3604,-72,-28,982,-19,-22,-10
3605,71,-45,1006,-16,-27,-13
3606,137,-52,1015,-12,-13,-12
3607,108,-25,1003,-8,12,-5
3608,0,5,992,-8,26,-2
3609,-130,17,987,-13,24,2
3610,-157,0,989,-18,4,-4
3611,-92,-19,988,-21,-17,-10
3612,51,-47,1012,-17,-26,-13
3613,123,-53,1004,-13,-16,-14
3614,125,-23,1005,-8,5,-5
3615,19,2,999,-8,25,-2
3616,-110,15,998,-13,27,1
3617,-161,5,971,-19,8,-3
3618,-104,-14,989,-20,-15,-8
3619,23,-51,1009,-17,-29,-12
3620,115,-54,1008,-12,-19,-12
3621,141,-28,1006,-7,2,-8
3622,34,0,1004,-8,24,-2
3623,-88,11,1000,-11,27,1
3624,-158,10,971,-18,12,-2
3625,-124,-10,995,-21,-11,-6
3626,0,-51,1001,-18,-27,-14
3627,112,-52,1001,-14,-22,-14
3628,143,-33,1003,-7,-3,-9
3629,54,-4,1013,-8,21,-3
3630,-65,11,999,-11,28,0
3631,-157,20,974,-18,16,-1
3632,-131,-8,994,-22,-7,-7
3633,-32,-47,996,-20,-26,-12
3634,98,-43,1002,-14,-25,-13
3635,147,-48,1007,-12,-6,-11
3636,72,-13,1002,-9,18,-3
3637,-41,11,998,-11,28,0
3638,-151,26,987,-17,20,1
3639,-143,-7,990,-21,-2,-5
3640,-53,-40,992,-20,-21,-11
3641,86,-44,1007,-15,-26,-13
3642,144,-52,1009,-9,-10,-11
3643,91,-19,1003,-7,14,-3
3644,-16,9,993,-11,27,0
3645,-138,22,988,-16,23,1
3646,-155,-2,995,-20,1,-5
3647,-80,-27,986,-22,-20,-11
3648,69,-48,1008,-16,-27,-14
3649,129,-54,1009,-12,-12,-11
3650,113,-24,1006,-6,10,-5
3651,4,8,994,-8,27,-1
3652,-123,18,989,-16,26,1
3653,-163,1,987,-19,8,-3
3654,-91,-16,989,-19,-16,-9
3655,45,-46,1011,-18,-28,-13
3656,121,-56,1005,-12,-18,-13
3657,132,-24,1007,-7,5,-7
3658,22,2,1001,-8,25,-3
3659,-109,15,998,-12,28,2
3660,-158,5,974,-18,9,-3
3661,-113,-10,987,-19,-13,-7
3662,23,-46,1006,-18,-27,-13
3663,113,-54,1010,-12,-18,-15
3664,142,-29,1002,-8,1,-8
3665,37,-3,1008,-7,22,-2
3666,-83,12,1001,-13,26,0
3667,-161,12,972,-19,14,-2
3668,-123,-5,995,-20,-10,-6
3669,-11,-48,1000,-20,-27,-13
3670,108,-47,999,-12,-22,-13
3671,145,-44,1008,-8,-4,-9
3672,59,-7,1007,-7,20,-3
3673,-57,9,1003,-11,28,0
3674,-154,22,974,-17,17,-1
3675,-137,-4,994,-20,-7,-7
3676,-35,-43,997,-19,-25,-14
3677,93,-50,1007,-15,-24,-13
3678,148,-44,1003,-11,-7,-12
3679,82,-20,1002,-7,17,-5
3680,-38,8,1000,-9,27,-1
3681,-147,20,987,-15,21,0
3682,-143,-4,994,-19,0,-6
3683,-68,-31,989,-18,-22,-11
3684,82,-40,1006,-15,-26,-13
3685,142,-52,1014,-11,-10,-12
3686,97,-22,1001,-8,14,-4
3687,-9,6,991,-9,28,-3
3688,-137,17,985,-15,24,1
3689,-155,-1,990,-20,1,-4
3690,-83,-22,992,-20,-20,-11
3691,63,-42,1008,-15,-26,-13
3692,127,-53,1007,-12,-13,-12
3693,121,-23,1007,-7,8,-5
3694,11,1,994,-10,26,-1
3695,-124,15,996,-14,26,1
3696,-159,2,977,-18,7,-4
3697,-103,-13,990,-20,-16,-9
3698,37,-45,1006,-18,-28,-14
3699,120,-51,1010,-11,-16,-14
3700,135,-25,1003,-8,5,-7
3701,26,0,1002,-9,25,-2
3702,-100,11,1002,-13,27,0
3703,-159,8,969,-18,11,-3
3704,-114,-8,990,-20,-12,-7
3705,12,-49,1006,-18,-27,-13
3706,111,-48,1005,-13,-19,-14
3707,142,-32,1007,-9,-1,-9
3708,44,-2,1007,-6,22,-3
3709,-74,9,1002,-13,27,0
3710,-159,15,973,-18,16,-2
3711,-129,-8,995,-21,-8,-7
3712,-21,-47,999,-16,-25,-12
3713,104,-46,999,-10,-24,-13
3714,149,-41,1006,-11,-5,-10
3715,66,-9,1006,-8,19,-3
3716,-51,10,1002,-10,26,0
3717,-153,21,975,-17,16,-1
3718,-139,-8,999,-20,-4,-4
3719,-46,-43,988,-21,-24,-12
3720,90,-46,1009,-14,-25,-13
3721,147,-46,1004,-10,-9,-12
3722,86,-19,1002,-6,16,-5
3723,-28,9,996,-10,27,-1
3724,-143,21,990,-15,23,0
3725,-150,-4,994,-20,0,-4
3726,-71,-33,983,-20,-22,-11
3727,73,-40,1011,-14,-28,-15
3728,137,-52,1008,-12,-12,-14
3729,106,-22,1008,-7,12,-5
3730,-2,7,991,-8,26,-1
3731,-132,19,984,-14,25,3
3732,-155,0,993,-18,3,-4
3733,-94,-21,988,-22,-16,-10
3734,54,-46,1008,-19,-27,-14
3735,124,-55,1007,-12,-16,-13
3736,127,-21,1004,-6,6,-6
3737,19,3,1001,-10,25,-3
3738,-114,14,999,-13,27,1
3739,-163,7,970,-19,8,-3
3740,-103,-16,992,-20,-15,-10
3741,25,-48,1007,-18,-29,-13
3742,118,-56,1006,-13,-19,-13
3743,140,-30,1008,-9,3,-8
3744,36,0,1004,-9,23,-3
3745,-92,18,996,-12,26,0
3746,-158,10,975,-19,12,-2
3747,-122,-5,990,-22,-11,-7
3748,1,-51,1005,-18,-26,-14
3749,111,-50,1001,-11,-22,-13
3750,148,-37,1007,-8,-2,-10
3751,51,-6,1006,-7,21,-1
3752,-68,13,1009,-12,28,0
3753,-156,20,971,-18,15,-1
3754,-138,-7,994,-20,-8,-7
3755,-25,-44,999,-21,-27,-14
3756,99,-52,1005,-15,-24,-14
3757,149,-39,999,-9,-6,-12
3758,71,-17,1008,-9,17,-3
3759,-45,12,997,-9,28,0
3760,-149,23,985,-17,19,0
3761,-143,-6,993,-20,-3,-6
3762,-53,-39,994,-21,-23,-12
3763,86,-44,1004,-16,-26,-13
3764,140,-46,1011,-10,-11,-12
3765,94,-20,1000,-7,16,-5
3766,-19,8,995,-10,28,0
3767,-139,23,986,-15,22,0
3768,-153,-4,997,-20,1,-6
3769,-78,-29,982,-20,-20,-10
3770,68,-44,1009,-14,-27,-14
3771,130,-53,1011,-11,-13,-13
3772,115,-25,1003,-7,10,-7
3773,0,7,992,-10,24,-2
3774,-125,20,992,-13,24,1
3775,-154,3,983,-21,5,-4
3776,-98,-19,991,-21,-16,-8
3777,49,-51,1008,-18,-28,-15
3778,120,-61,1006,-11,-18,-12
3779,131,-24,1000,-5,5,-6
3780,22,4,1007,-8,26,-4
3781,-111,18,999,-12,28,0
3782,-160,9,973,-18,8,-3
3783,-110,-10,991,-21,-15,-8
3784,18,-54,1006,-18,-29,-14
3785,116,-55,1010,-12,-20,-13
3786,140,-32,1005,-8,2,-7
3787,36,0,1006,-8,23,-3
3788,-83,12,999,-13,28,1
3789,-158,13,973,-19,14,-2
3790,-123,-7,997,-21,-10,-7
3791,-7,-49,998,-19,-26,-13
3792,107,-51,1002,-13,-24,-13
3793,145,-38,1003,-8,-4,-11
3794,55,-8,1010,-9,22,-4
3795,-60,12,1003,-12,28,-2
3796,-151,19,972,-16,16,-1
3797,-135,-5,997,-18,-6,-5
3798,-35,-45,993,-20,-25,-12
3799,94,-44,1009,-15,-25,-14
3800,144,-45,1003,-10,-8,-11
3801,77,-13,1000,-7,17,-4
3802,-35,5,1001,-10,26,-2
3803,-150,23,986,-15,21,1
3804,-142,-7,996,-20,-1,-5
3805,-64,-33,986,-20,-22,-11
3806,83,-41,1006,-15,-27,-13
3807,139,-50,1012,-10,-11,-12
3808,98,-22,1007,-7,12,-5
3809,-10,8,989,-10,26,-2
3810,-135,19,984,-15,22,0
3811,-152,-4,998,-20,1,-6
3812,-84,-24,985,-22,-19,-10
3813,62,-44,1011,-17,-26,-13
3814,125,-53,1011,-11,-13,-13
3815,116,-23,1000,-6,9,-6
3816,13,5,998,-9,26,-3
3817,-120,16,995,-14,27,2
3818,-156,0,979,-19,8,-3
3819,-102,-17,987,-21,-15,-7
3820,36,-48,1010,-17,-28,-13
3821,121,-54,1006,-13,-17,-13
3822,136,-26,1005,-8,3,-7
3823,29,-1,1003,-9,24,-2
3824,-99,11,999,-12,28,0
3825,-161,8,970,-18,11,-1
3826,-115,-9,991,-20,-12,-7
3827,8,-51,1007,-19,-26,-12
3828,112,-48,999,-13,-20,-13
3829,144,-33,1008,-8,0,-10
3830,47,-5,1005,-7,22,-2
3831,-79,7,998,-12,29,1
3832,-154,20,974,-17,16,-2
3833,-130,-9,998,-21,-9,-7
3834,-20,-42,996,-19,-27,-13
3835,101,-49,1000,-14,-24,-13
3836,146,-41,1004,-9,-5,-10
3837,68,-11,1010,-7,19,-5
3838,-48,13,1000,-10,27,-1
3839,-151,19,978,-17,18,0
3840,-137,-5,993,-19,-4,-5
3841,-48,-45,995,-19,-22,-12
3842,94,-45,1006,-16,-25,-14
3843,145,-49,1009,-9,-9,-13
3844,84,-16,995,-7,15,-5
3845,-27,12,1002,-10,28,-2
3846,-142,23,983,-15,21,0
3847,-150,-4,999,-20,0,-5
3848,-70,-32,983,-21,-21,-10
3849,71,-45,1009,-14,-27,-13
3850,135,-52,1010,-11,-12,-12
3851,105,-24,1011,-8,12,-5
3852,-1,6,989,-9,27,-2
3853,-130,18,989,-13,25,0
3854,-155,0,988,-20,5,-5
3855,-90,-21,990,-22,-17,-9
3856,53,-46,1007,-18,-27,-12
3857,122,-57,1009,-11,-16,-12
3858,127,-25,1002,-7,6,-7
3859,18,-1,999,-9,25,-1
3860,-114,16,999,-14,27,2
3861,-158,5,973,-19,9,-3
3862,-104,-12,989,-20,-14,-8
3863,25,-51,1005,-18,-27,-13
3864,115,-53,1012,-12,-18,-13
3865,144,-29,1003,-9,1,-6
3866,31,-1,1003,-9,24,-1
3867,-91,12,999,-12,27,0
3868,-160,11,973,-18,12,-1
3869,-123,-9,991,-20,-10,-7
3870,-2,-48,1003,-18,-26,-13
3871,110,-50,1002,-14,-22,-14
3872,146,-37,1004,-7,-2,-9
3873,52,-6,1011,-10,20,-2
3874,-66,11,1003,-12,27,-1
3875,-156,16,970,-17,17,-2
3876,-134,-2,997,-20,-8,-6
3877,-29,-46,996,-20,-24,-12
3878,100,-47,1004,-13,-23,-13
3879,149,-44,1005,-11,-6,-11
3880,73,-9,1002,-7,16,-3
3881,-42,7,1001,-10,27,-1
3882,-146,22,982,-16,20,1
3883,-143,-6,993,-21,-3,-5
3884,-57,-38,995,-21,-22,-12
3885,84,-40,1002,-16,-26,-13
3886,141,-53,1012,-12,-10,-12
3887,96,-20,1001,-8,12,-5
3888,-19,7,993,-11,28,-2
3889,-136,23,985,-14,23,1
3890,-154,-6,995,-19,0,-4
3891,-75,-22,986,-19,-20,-10
3892,68,-46,1007,-14,-27,-13
3893,133,-53,1010,-11,-13,-12
3894,113,-25,1004,-8,10,-5
3895,6,2,993,-9,25,-2
3896,-124,19,994,-13,25,1
3897,-159,3,982,-19,5,-4
3898,-93,-18,991,-22,-16,-8
3899,44,-46,1009,-18,-27,-13
3900,117,-57,1006,-12,-16,-13
3901,129,-25,1009,-7,5,-7
3902,22,0,1001,-11,26,-3
3903,-107,15,1001,-15,27,2
3904,-158,6,975,-19,9,-2
3905,-112,-13,984,-21,-13,-8
3906,18,-46,1008,-18,-27,-13
3907,113,-52,1010,-13,-19,-13
3908,140,-31,1001,-9,1,-8
3909,39,-2,1007,-9,23,-3
3910,-81,12,1000,-12,27,1
3911,-156,12,970,-19,14,-2
3912,-125,-7,999,-20,-9,-7
3913,-13,-47,997,-21,-26,-12
3914,108,-46,999,-13,-24,-14
3915,145,-37,1007,-10,-4,-9
3916,59,-9,1007,-8,20,-3
3917,-56,7,1007,-11,27,-1
3918,-152,20,974,-16,16,-1
3919,-133,-8,994,-20,-7,-7
3920,-41,-43,995,-20,-23,-13
3921,95,-45,1008,-14,-23,-13
3922,145,-46,1003,-11,-6,-12
3923,78,-15,998,-8,16,-3
3924,-30,8,999,-11,26,-2
3925,-144,22,987,-16,20,1
3926,-142,-3,996,-21,0,-5
3927,-69,-35,986,-20,-20,-12
3928,76,-44,1005,-15,-27,-13
3929,140,-53,1011,-11,-12,-12
3930,101,-21,1006,-9,14,-5
3931,-6,9,991,-9,27,-1
3932,-133,20,985,-16,23,2
3933,-155,0,990,-20,2,-3
3934,-83,-26,992,-21,-19,-9
3935,58,-46,1005,-16,-27,-13
3936,128,-56,1009,-12,-15,-14
3937,118,-23,1002,-6,7,-7
3938,17,1,999,-9,25,-1
3939,-117,15,996,-14,26,2
3940,-160,4,979,-20,8,-4
3941,-100,-16,985,-21,-15,-9
3942,30,-46,1013,-18,-29,-14
3943,119,-53,1005,-13,-19,-12
3944,139,-30,1005,-8,4,-8
3945,28,-2,1003,-10,24,-2
3946,-95,13,1000,-13,26,2
3947,-160,7,972,-19,11,-2
3948,-115,-9,989,-18,-12,-7
3949,8,-48,1006,-17,-26,-14
3950,111,-51,1001,-12,-20,-14
3951,142,-34,1005,-9,-1,-9
3952,47,-4,1007,-7,22,-5
3953,-75,9,1003,-11,29,0
3954,-153,17,973,-17,15,-1
3955,-131,-9,994,-20,-8,-6
3956,-19,-45,996,-19,-26,-13
3957,101,-49,1003,-13,-22,-14
3958,148,-40,1004,-8,-6,-10
3959,67,-13,1006,-9,19,-2
3960,-51,11,1004,-11,27,-1
3961,-147,20,979,-17,19,1
3962,-140,-7,995,-20,-3,-6
3963,-50,-37,993,-19,-21,-11
3964,89,-44,1009,-15,-25,-14
3965,143,-50,1004,-9,-10,-12
3966,86,-18,999,-6,15,-3
3967,-19,4,1001,-11,27,-2
3968,-145,24,985,-15,24,2
3969,-146,-3,994,-20,-1,-6
3970,-74,-32,987,-20,-21,-11
3971,73,-40,1002,-12,-27,-12
3972,137,-51,1015,-12,-11,-13
3973,109,-21,1007,-7,11,-6
3974,-1,7,989,-8,26,-1
3975,-129,21,989,-14,24,1
3976,-160,-2,987,-19,4,-3
3977,-86,-18,991,-19,-18,-10
3978,46,-47,1009,-17,-27,-13
3979,126,-52,1007,-12,-16,-13
3980,126,-27,1004,-6,5,-7
3981,18,4,998,-9,26,-3
3982,-110,12,1000,-13,27,0
3983,-162,7,974,-19,8,-3
3984,-104,-13,984,-21,-15,-8
3985,24,-49,1012,-16,-27,-14
3986,116,-53,1006,-12,-18,-12
3987,143,-29,1007,-8,3,-8
3988,32,-1,1003,-8,24,-2
3989,-85,14,998,-11,26,1
3990,-161,12,973,-18,12,-2
3991,-123,-10,991,-20,-9,-6
3992,-4,-49,1003,-18,-25,-12
3993,107,-50,998,-12,-21,-12
3994,147,-37,1006,-9,-2,-10
3995,54,-6,1013,-9,21,-2
3996,-66,12,999,-14,29,0
3997,-156,15,975,-18,17,-1
3998,-132,-2,994,-18,-7,-6
3999,-29,-43,996,-19,-25,-12
4000,96,-45,1008,-13,-24,-13
4001,148,-46,999,-11,-6,-11
4002,74,-14,1006,-7,18,-4
4003,-40,9,998,-10,27,-1
4004,-151,22,985,-16,20,1
4005,-138,-5,995,-21,-2,-6
4006,-58,-36,991,-18,-22,-12
4007,87,-44,1006,-14,-26,-15
4008,143,-50,1007,-8,-12,-13
4009,91,-19,1004,-7,15,-3
4010,-17,10,993,-9,28,-1
4011,-141,20,989,-15,24,1
4012,-148,-2,992,-19,1,-4
4013,-83,-27,989,-20,-21,-10
4014,66,-44,1005,-15,-28,-13
4015,132,-56,1015,-11,-13,-12
4016,111,-20,1006,-7,9,-6
4017,9,5,995,-10,25,-3
4018,-126,16,991,-14,26,2
4019,-158,4,983,-19,6,-3
4020,-94,-15,992,-21,-15,-9
4021,41,-47,1009,-18,-28,-14
4022,121,-55,1006,-14,-16,-14
4023,128,-29,1005,-7,5,-7
4024,24,0,1004,-8,25,-2
4025,-102,13,1001,-13,27,1
4026,-161,8,973,-18,10,-3
4027,-109,-9,987,-21,-14,-6
4028,16,-50,1009,-18,-27,-13
4029,111,-52,1003,-14,-19,-13
4030,147,-31,1008,-9,0,-10
4031,37,-4,1003,-7,22,-2
4032,-78,13,1001,-11,27,1
4033,-161,9,974,-18,15,0
4034,-128,-7,993,-19,-8,-7
4035,-9,-44,999,-19,-26,-13
4036,106,-47,1001,-14,-22,-14
4037,149,-39,1004,-10,-5,-10
4038,62,-7,1010,-7,21,-4
4039,-58,12,1003,-13,30,0
4040,-154,19,974,-17,19,-1
4041,-138,-8,992,-20,-7,-6
4042,-40,-46,994,-20,-24,-13
4043,96,-44,1009,-15,-24,-14
4044,147,-46,999,-10,-7,-11
4045,79,-14,1003,-7,17,-5
4046,-37,7,999,-11,27,-2
4047,-148,23,984,-15,21,1
4048,-141,-8,997,-20,-1,-5
4049,-64,-31,986,-19,-21,-12
4050,81,-43,1006,-16,-26,-13
4051,139,-50,1012,-10,-11,-12
4052,101,-24,1004,-9,12,-5
4053,-11,8,991,-9,27,-1
4054,-137,20,985,-21,17,1
4055,-152,1,997,-20,-2,-5
4056,-83,-26,983,-23,-19,-10
4057,64,-43,1012,-14,-27,-14
4058,131,-53,1011,-12,-14,-13
4059,113,-22,1001,-8,9,-6
4060,14,3,998,-8,25,-1
4061,-122,13,992,-14,26,2
4062,-156,6,979,-19,6,-3
4063,-100,-15,991,-20,-15,-9
4064,36,-45,1011,-16,-28,-12
4065,121,-54,1006,-12,-18,-13
4066,132,-26,1006,-8,4,-6
4067,30,0,1004,-8,26,-2
4068,-99,10,998,-13,28,0
4069,-161,5,971,-20,10,-3
4070,-116,-13,990,-21,-14,-8
4071,9,-49,1002,-17,-27,-13
4072,112,-51,1005,-13,-20,-13
4073,144,-31,1008,-7,-1,-9
4074,45,-6,1006,-9,21,-3
4075,-76,11,1004,-11,28,0
4076,-156,13,973,-18,14,-1
4077,-129,-8,995,-19,-9,-6
4078,-18,-48,997,-18,-27,-12
4079,103,-48,1000,-12,-24,-13
4080,146,-40,1007,-9,-4,-11
4081,67,-9,1007,-8,19,-3
4082,-53,13,1003,-10,28,0
4083,-151,20,976,-16,18,0
4084,-138,-8,993,-21,-5,-6
4085,-43,-44,997,-19,-23,-13
4086,87,-47,1005,-14,-25,-13
4087,146,-48,1003,-11,-8,-10
4088,83,-15,1002,-8,16,-4
4089,-29,11,996,-11,26,-1
4090,-142,25,994,-17,22,1
4091,-145,-7,992,-20,0,-6
4092,-71,-33,988,-20,-21,-11
4093,78,-43,1004,-15,-28,-13
4094,137,-55,1013,-10,-12,-12
4095,104,-22,1004,-8,12,-4
4096,-3,5,991,-10,27,-2
4097,-135,23,986,-15,24,2
4098,-155,0,989,-18,3,-4
4099,-90,-23,992,-20,-17,-9
4100,58,-44,1006,-17,-28,-12
4101,128,-56,1008,-12,-15,-12
4102,124,-26,1003,-7,7,-6
4103,16,0,999,-12,25,-1
4104,-116,16,994,-14,26,1
4105,-165,3,978,-20,8,-4
4106,-102,-12,987,-19,-15,-10
4107,34,-46,1011,-17,-28,-13
4108,119,-50,1008,-13,-18,-12
4109,138,-30,1008,-9,3,-8
4110,31,-2,1001,-9,26,-2
4111,-97,12,997,-12,27,1
4112,-159,8,977,-17,10,-2
4113,-119,-8,989,-21,-11,-9
4114,6,-47,1007,-19,-26,-15
4115,111,-52,1002,-14,-19,-13
4116,144,-33,1004,-8,-1,-8
4117,50,-5,1011,-8,21,-2
4118,-77,10,1003,-13,29,2
4119,-154,16,971,-19,16,-1
4120,-130,-10,995,-20,-7,-7
4121,-23,-46,995,-19,-26,-12
4122,105,-49,1002,-13,-23,-14
4123,149,-42,1004,-11,-5,-10
4124,66,-11,1004,-6,20,-2
4125,-49,10,1006,-11,27,0
4126,-154,23,974,-18,19,1
4127,-139,-6,993,-20,-4,-6
4128,-49,-40,998,-20,-23,-12
4129,90,-48,1004,-16,-25,-13
4130,144,-49,1006,-10,-8,-11
4131,87,-23,1001,-6,15,-5
4132,-26,12,996,-9,29,-2
4133,-143,23,993,-16,23,0
4134,-150,0,994,-20,0,-5
4135,-72,-30,987,-20,-21,-11
4136,71,-44,1007,-15,-28,-14
4137,140,-54,1012,-12,-12,-12
4138,108,-28,1007,-9,12,-6
4139,-1,6,989,-8,27,-2
4140,-128,21,990,-14,24,2
4141,-157,1,988,-19,5,-5
4142,-94,-19,990,-20,-16,-10
4143,51,-46,1008,-17,-28,-14
4144,124,-58,1006,-11,-14,-12
4145,128,-24,1006,-5,5,-6
4146,20,0,999,-8,25,-2
4147,-113,15,996,-12,28,2
4148,-163,7,976,-17,9,-3
4149,-105,-12,988,-21,-15,-10
4150,29,-47,1009,-18,-28,-13
4151,118,-54,1007,-14,-18,-12
4152,143,-32,1005,-8,3,-8
4153,32,-1,1002,-9,23,-2
4154,-89,13,1001,-10,28,2
4155,-160,10,971,-18,12,-1
4156,-122,-7,991,-21,-11,-8
4157,1,-47,1002,-19,-27,-13
4158,114,-48,1002,-15,-21,-13
4159,147,-37,1004,-9,-3,-10
4160,51,-6,1010,-8,21,-2
4161,-66,12,1001,-12,29,1
4162,-159,14,974,-16,18,-1
4163,-132,-5,994,-20,-8,-7
4164,-27,-46,998,-19,-26,-13
4165,99,-50,1001,-13,-23,-14
4166,148,-44,1007,-10,-6,-11
4167,72,-12,1005,-7,19,-3
4168,-45,12,1003,-9,27,0
4169,-150,23,981,-17,19,-1
4170,-145,-6,996,-19,-3,-5
4171,-52,-40,992,-21,-24,-12
4172,87,-46,1007,-14,-25,-14
4173,145,-48,1005,-11,-8,-13
4174,92,-19,1006,-5,15,-5
4175,-23,6,992,-10,29,0
4176,-140,24,991,-14,23,2
4177,-151,-4,995,-20,1,-5
4178,-77,-27,983,-22,-22,-10
4179,75,-43,1007,-15,-28,-13
4180,134,-54,1014,-12,-12,-13
4181,111,-24,1004,-9,11,-6
4182,-2,4,992,-8,27,-2
4183,-128,19,991,-14,23,0
4184,-157,0,983,-18,3,-3
4185,-92,-17,994,-20,-17,-10
4186,54,-45,1009,-18,-29,-14
4187,123,-53,1006,-11,-15,-13
4188,128,-27,1004,-7,4,-7
4189,19,1,1000,-10,25,-3
4190,-111,9,996,-15,27,1
4191,-158,7,973,-19,9,-3
4192,-107,-10,988,-21,-16,-8
4193,24,-46,1008,-18,-29,-13
4194,113,-51,1009,-12,-18,-13
4195,141,-28,1004,-10,2,-8
4196,37,-1,1006,-8,23,-2
4197,-92,13,996,-14,27,2
4198,-159,12,976,-19,13,-2
4199,-122,-9,988,-20,-10,-7
4200,0,-50,1004,-18,-26,-14
4201,111,-47,1000,-12,-22,-13
4202,142,-34,1006,-8,-4,-10
4203,53,-6,1008,-8,20,-3
4204,-69,8,1007,-12,29,1
4205,-155,16,969,-17,16,-1
4206,-133,-7,998,-18,-7,-6
4207,-30,-45,998,-20,-26,-11
4208,99,-47,1002,-14,-24,-15
4209,150,-44,1007,-10,-5,-11
4210,74,-14,1002,-9,19,-2
4211,-44,8,1002,-10,28,0
4212,-152,23,982,-16,18,0
4213,-142,-4,991,-20,-2,-5
4214,-54,-39,994,-21,-23,-12
4215,88,-44,1006,-15,-26,-13
4216,145,-47,1005,-10,-10,-13
4217,91,-22,1003,-8,15,-4
4218,-21,8,991,-9,28,-1
4219,-140,23,993,-17,23,2
4220,-151,-3,993,-19,0,-4
4221,-76,-27,983,-21,-21,-11
4222,72,-43,1006,-16,-27,-13
4223,133,-53,1013,-12,-11,-12
4224,115,-22,1005,-8,11,-6
4225,0,3,995,-9,28,-3
4226,-128,18,985,-14,25,2
4227,-161,0,990,-19,4,-2
4228,-93,-18,989,-21,-16,-9
4229,47,-47,1008,-17,-27,-13
4230,126,-52,1007,-11,-16,-13
4231,131,-23,1003,-7,6,-6
4232,24,3,1000,-10,25,-3
4233,-111,13,1000,-13,28,1
4234,-157,6,972,-19,9,-3
4235,-113,-12,984,-21,-15,-8
4236,24,-46,1008,-19,-29,-13
4237,114,-58,1008,-14,-17,-14
4238,143,-29,1002,-9,2,-7
4239,35,-1,1007,-8,23,-2
4240,-87,16,996,-13,26,1
4241,-160,8,972,-18,13,-1
4242,-123,-8,992,-19,-9,-8
4243,-6,-54,1004,-20,-26,-13
4244,111,-48,997,-13,-22,-13
4245,145,-37,1009,-8,-3,-9
4246,60,-5,1008,-8,22,-4
4247,-68,9,1005,-13,29,1
4248,-155,20,969,-17,16,-1
4249,-137,-8,997,-20,-7,-6
4250,-27,-44,997,-19,-27,-13
4251,97,-49,1003,-12,-24,-13
4252,153,-43,1006,-9,-6,-11
4253,72,-12,1003,-8,19,-3
4254,-43,10,1000,-10,29,-1
4255,-152,23,984,-18,18,1
4256,-143,-4,991,-20,-2,-5
4257,-57,-42,996,-20,-22,-12
4258,88,-45,1006,-16,-26,-13
4259,144,-50,1009,-10,-10,-12
4260,91,-20,1000,-6,14,-3
4261,-19,11,996,-10,28,-1
4262,-141,23,990,-13,24,2
4263,-151,0,994,-20,0,-5
4264,-80,-31,985,-22,-21,-11
4265,71,-45,1008,-14,-28,-14
4266,137,-54,1014,-12,-13,-12
4267,112,-22,1004,-7,11,-5
4268,0,8,993,-9,27,-1
4269,-127,21,985,-14,26,2
4270,-159,0,989,-20,5,-3
4271,-92,-21,988,-22,-17,-11
4272,49,-49,1010,-18,-28,-15
4273,127,-54,1004,-12,-16,-13
4274,127,-25,1006,-7,4,-7
4275,21,1,1000,-10,26,-1
4276,-112,12,1000,-12,27,2
4277,-165,9,971,-18,8,-2
4278,-105,-14,990,-19,-15,-9
4279,23,-46,1009,-16,-29,-13
4280,118,-54,1004,-12,-19,-14
4281,143,-32,1012,-9,2,-8
4282,34,1,1002,-8,24,-2
4283,-87,13,998,-13,28,1
4284,-160,9,977,-17,11,-2
4285,-124,-6,987,-21,-9,-6
4286,0,-48,1004,-20,-26,-13
4287,110,-52,1001,-13,-21,-13
4288,150,-35,1002,-6,-4,-10
4289,53,-6,1007,-8,22,-4
4290,-70,12,1006,-11,29,0
4291,-155,14,970,-17,17,-1
4292,-133,-8,994,-21,-7,-5
4293,-28,-43,996,-20,-26,-11
4294,101,-49,1002,-14,-24,-15
4295,149,-45,1003,-10,-7,-10
4296,72,-10,1004,-6,18,-2
4297,-43,12,1003,-10,28,1
4298,-151,23,979,-18,19,1
4299,-145,-8,996,-19,-4,-6
4300,-53,-41,989,-19,-22,-13
4301,86,-45,1007,-14,-26,-13
4302,147,-47,1004,-9,-10,-11
4303,92,-19,1003,-7,14,-3
4304,-19,8,995,-10,27,0
4305,-146,25,990,-14,23,1
4306,-151,-2,994,-20,0,-6
4307,-78,-32,984,-19,-21,-11
4308,70,-43,1005,-13,-28,-13
4309,138,-54,1015,-11,-13,-13
4310,115,-24,1004,-7,10,-4
4311,1,8,992,-8,26,0
4312,-130,21,988,-15,25,2
4313,-159,0,987,-19,5,-5
4314,-95,-19,990,-20,-18,-10
4315,55,-51,1008,-17,-28,-15
4316,124,-57,1007,-12,-16,-14
4317,132,-26,1001,-5,5,-7
4318,18,4,1002,-10,26,-1
4319,-111,19,997,-13,27,2
4320,-163,8,973,-19,9,-2
4321,-105,-12,985,-20,-14,-9
4322,25,-51,1013,-18,-29,-11
4323,116,-55,1004,-12,-19,-14
4324,139,-32,1005,-9,1,-8
4325,35,4,1008,-7,24,-3
4326,-90,13,995,-11,28,1
4327,-159,15,976,-17,11,-3
4328,-124,-8,990,-21,-11,-8
4329,-1,-49,1001,-19,-26,-13
4330,113,-52,1002,-14,-22,-12
4331,145,-39,1008,-8,-3,-8
4332,54,-4,1006,-8,21,-3
4333,-70,11,1008,-12,27,0
4334,-158,19,969,-17,16,-1
4335,-133,-6,996,-20,-8,-6
4336,-29,-45,997,-19,-27,-12
4337,98,-46,1002,-14,-25,-13
4338,152,-45,1005,-11,-6,-11
4339,70,-10,1008,-7,19,-3
4340,-43,9,1000,-10,28,-2
4341,-153,22,980,-17,19,0
4342,-143,-2,993,-21,-4,-4
4343,-54,-39,992,-19,-22,-11
4344,88,-46,1009,-17,-25,-14
4345,142,-49,1004,-11,-10,-12
4346,91,-20,1002,-6,14,-5
4347,-22,6,999,-9,27,-2
4348,-143,25,988,-14,24,2
4349,-153,-5,991,-18,1,-4
4350,-75,-30,987,-21,-21,-10
4351,71,-43,1002,-14,-28,-13
4352,136,-50,1017,-11,-12,-14
4353,109,-25,1005,-11,12,-4
4354,1,5,988,-9,27,-2
4355,-131,21,988,-14,24,1
4356,-158,1,986,-19,5,-4
4357,-93,-20,989,-21,-17,-11
4358,51,-45,1008,-16,-28,-14
4359,126,-54,1005,-10,-16,-13
4360,130,-27,1005,-7,6,-6
4361,21,3,998,-9,27,-2
4362,-112,16,999,-14,28,0
4363,-163,8,973,-17,9,-2
4364,-107,-12,985,-20,-14,-8
4365,26,-49,1011,-18,-29,-13
4366,116,-50,1008,-12,-20,-13
4367,143,-31,1006,-8,2,-9
4368,34,0,1004,-8,24,-3
4369,-92,15,1000,-12,28,1
4370,-160,10,972,-19,11,-1
4371,-123,-11,989,-21,-11,-6
4372,2,-47,1003,-20,-27,-13
4373,111,-55,1002,-14,-22,-15
4374,150,-34,1008,-8,-3,-9
4375,54,-5,1010,-7,22,-2
4376,-73,10,1003,-13,30,0
4377,-155,15,971,-17,17,-1
4378,-139,-6,993,-20,-7,-5
4379,-23,-43,996,-19,-27,-14
4380,103,-48,1002,-13,-25,-13
4381,150,-40,1002,-10,-6,-11
4382,73,-11,1009,-8,19,-5
4383,-48,11,1002,-9,28,-1
4384,-152,21,978,-17,18,0
4385,-143,-6,996,-18,-4,-6
4386,-53,-38,992,-19,-22,-12
4387,90,-45,1011,-16,-25,-12
4388,147,-49,1006,-12,-11,-12
4389,89,-20,1003,-3,17,-4
4390,-21,8,995,8,31,-3
4391,-144,24,990,-16,24,2
4392,-149,0,996,-20,1,-4
4393,-79,-34,984,-22,-21,-11
4394,73,-39,1006,-14,-28,-14
4395,137,-58,1013,-12,-13,-13
4396,111,-22,1005,-8,12,-4
4397,0,2,994,-9,27,-2
4398,-129,21,983,-14,25,1
4399,-162,0,992,-20,4,-2
4400,-87,-15,983,-22,-17,-9
4401,53,-47,1014,-17,-27,-13
4402,130,-52,1002,-12,-16,-12
4403,124,-26,1006,-7,7,-6
4404,22,0,997,-9,26,-1
4405,-118,12,1001,-15,28,2
4406,-161,8,971,-18,9,-2
4407,-108,-14,990,-20,-16,-9
4408,30,-49,1009,-17,-29,-13
4409,118,-52,1009,-12,-18,-14
4410,140,-25,1006,-9,3,-9
4411,35,-4,1003,-8,24,-2
4412,-96,12,999,-12,27,2
4413,-158,10,971,-19,9,-2
4414,-122,-12,992,-20,-12,-7
4415,4,-47,1002,-17,-26,-13
4416,110,-50,1004,-14,-20,-12
4417,147,-33,1007,-8,-2,-9
4418,47,-4,1006,-9,21,-2
4419,-73,9,1004,-14,29,1
4420,-157,12,974,-19,16,-1
4421,-132,-9,992,-21,-8,-7
4422,-21,-41,1000,-19,-25,-13
4423,102,-47,1000,-12,-23,-14
4424,148,-42,1002,-11,-5,-10
4425,68,-10,1006,-8,20,-3
4426,-48,9,1004,-11,27,-1
4427,-153,19,977,-17,19,0
4428,-140,-6,994,-19,-2,-4
4429,-51,-41,996,-19,-23,-11
4430,92,-44,1002,-16,-26,-12
4431,145,-44,1010,-11,-9,-11
4432,91,-15,999,-9,15,-4
4433,-26,6,995,-10,28,-2
4434,-142,23,987,-16,22,1
4435,-150,-6,994,-21,0,-6
4436,-71,-32,984,-19,-22,-11
4437,74,-41,1007,-15,-28,-13
4438,141,-50,1013,-10,-13,-14
4439,105,-25,1006,-7,12,-5
4440,-2,9,988,-9,27,-2
4441,-133,18,992,-14,25,2
4442,-157,0,987,-19,3,-5
4443,-89,-24,989,-22,-17,-9
4444,55,-45,1009,-17,-27,-12
4445,124,-57,1009,-11,-15,-13
4446,123,-23,1001,-6,6,-6
4447,17,2,1002,-9,25,-2
4448,-115,18,996,-14,27,2
4449,-163,3,972,-20,9,-3
4450,-104,-14,985,-19,-14,-9
