sequence,AccelerometerX,AccelerometerY,AccelerometerZ,GyroscopeX,GyroscopeY,GyroscopeZ
0,-467,0,899,-28,-11,-2
1,-78,-93,1025,-24,-81,-12
2,398,-115,1097,4,-84,-4
3,494,-60,1044,20,-20,4
4,194,33,1012,12,58,16
5,-255,82,928,-10,79,24
6,-524,48,869,-24,34,10
7,-316,-52,955,-27,-49,-9
8,168,-116,1078,0,-92,-9
9,492,-104,1077,-1,-60,2
10,407,-17,1028,29,20,10
11,-21,60,967,-4,75,20
12,-430,81,899,-8,65,21
13,-482,7,890,-31,-4,1
14,-112,-88,1021,-13,-79,-13
15,384,-116,1090,1,-87,-4
16,502,-68,1050,15,-23,6
17,225,26,1013,16,51,15
18,-235,80,932,-7,79,23
19,-518,54,868,-23,42,13
20,-342,-44,946,-26,-44,-9
21,135,-110,1065,-6,-92,-10
22,486,-104,1087,8,-63,2
23,422,-27,1025,20,12,9
24,6,62,972,6,75,19
25,-406,84,906,-13,68,21
26,-491,9,884,-28,3,2
27,-150,-82,1016,-16,-73,-13
28,356,-111,1098,0,-88,-5
29,501,-83,1048,13,-31,5
30,255,22,1010,17,48,13
31,-202,76,937,-6,79,22
32,-508,56,877,-22,44,13
33,-363,-29,943,-24,-36,-8
34,98,-110,1058,-10,-91,-11
35,471,-109,1085,7,-67,2
36,433,-34,1030,20,7,7
37,33,57,971,8,72,17
38,-376,83,914,-13,71,21
39,-494,13,880,-27,11,3
40,-179,-71,1010,-18,-69,-11
41,325,-120,1096,-4,-93,-5
42,499,-86,1054,15,-35,4
43,277,19,1011,17,41,11
44,-172,73,942,-4,81,22
45,-492,60,882,-20,49,15
46,-388,-21,930,-24,-31,-6
47,65,-104,1062,-11,-89,-11
48,453,-113,1079,8,-71,0
49,447,-36,1038,19,1,7
50,67,53,974,8,69,18
51,-343,80,915,-13,73,22
52,-503,24,882,-28,15,4
53,-210,-64,995,-18,-64,-12
54,283,-119,1093,-4,-93,-7
55,493,-89,1052,13,-41,3
56,314,11,1017,18,37,11
57,-135,63,945,-2,80,20
58,-473,65,896,-17,54,16
59,-416,-12,918,-25,-24,-4
60,19,-102,1047,-12,-86,-11
61,433,-110,1089,6,-77,-1
62,462,-40,1035,18,-4,6
63,111,35,988,8,64,15
64,-309,79,918,-7,75,23
65,-509,32,873,-25,22,7
66,-251,-62,984,-21,-59,-11
67,242,-111,1091,-3,-92,-8
68,487,-88,1056,11,-47,3
69,350,-3,1018,19,30,11
70,-90,68,952,-1,78,21
71,-458,69,895,-19,59,18
72,-441,-7,911,-27,-17,-4
73,-30,-98,1034,-13,-84,-12
74,415,-110,1095,5,-81,-2
75,480,-52,1038,16,-12,7
76,152,30,999,13,60,16
77,-286,86,926,-10,77,22
78,-515,37,867,-25,28,8
79,-287,-49,967,-22,-54,-10
80,205,-109,1081,-3,-93,-9
81,496,-98,1070,9,-54,3
82,378,-9,1023,20,26,8
83,-56,66,963,4,76,21
84,-449,82,898,-15,63,20
85,-464,-7,895,-28,-11,-2
86,-78,-88,1028,-16,-80,-12
87,402,-114,1099,5,-84,-2
88,494,-69,1041,12,-17,6
89,188,36,1011,17,57,14
90,-257,81,923,-8,77,23
91,-520,45,870,-23,35,10
92,-315,-42,957,-24,-48,-10
93,174,-111,1074,-7,-93,-9
94,492,-102,1080,10,-59,3
95,403,-17,1022,18,20,8
96,-23,62,971,6,76,19
97,-434,77,901,-17,65,20
98,-480,2,889,-23,-3,0
99,-114,-84,1021,-16,-78,-12
100,385,-120,1093,4,-85,-4
101,504,-72,1049,16,-25,5
102,220,33,1009,17,54,13
103,-230,75,934,-7,78,22
104,-521,53,866,-25,39,11
105,-339,-39,948,-20,-43,-10
106,140,-110,1075,-8,-92,-10
107,485,-108,1084,11,-62,1
108,417,-22,1025,18,12,6
109,4,64,975,8,74,19
110,-409,80,899,-15,67,21
111,-490,15,886,-25,3,0
112,-143,-85,1019,-17,-75,-12
113,361,-116,1096,0,-89,-3
114,500,-74,1053,16,-29,4
115,248,23,1007,14,48,12
116,-208,77,939,-3,78,23
117,-512,56,872,-24,44,12
118,-355,-33,941,-21,-37,-9
119,108,-109,1068,-11,-92,-9
120,472,-108,1084,12,-67,1
121,430,-21,1032,19,7,7
122,27,50,972,6,71,19
123,-380,84,906,-12,69,22
124,-495,19,878,-25,9,3
125,-170,-84,1012,-19,-70,-12
126,330,-114,1099,-1,-91,-5
127,497,-82,1051,15,-34,3
128,277,13,1013,16,42,12
129,-180,74,933,0,80,23
130,-495,63,880,-22,47,14
131,-380,-24,935,-23,-32,-6
132,70,-105,1058,-11,-91,-11
133,455,-107,1087,7,-71,0
134,444,-37,1037,16,2,8
135,62,47,973,8,69,18
136,-346,84,912,-10,71,22
137,-498,20,879,-28,14,4
138,-205,-77,999,-15,-64,-12
139,293,-112,1096,-2,-93,-6
140,493,-85,1054,15,-40,3
141,306,9,1017,17,37,10
142,-142,70,938,1,79,22
143,-477,71,892,-19,52,16
144,-407,-21,919,-27,-25,-5
145,26,-97,1053,-8,-87,-11
146,433,-108,1093,4,-75,-2
147,456,-50,1034,19,-4,6
148,99,42,987,9,65,17
149,-311,80,910,-8,76,23
150,-506,23,872,-28,20,6
151,-241,-59,990,-17,-60,-11
152,255,-110,1095,-3,-94,-6
153,488,-89,1059,10,-45,3
154,339,6,1018,19,32,10
155,-103,68,946,-2,78,22
156,-459,68,894,-17,57,15
157,-432,-17,911,-27,-20,-4
158,-19,-95,1044,-10,-83,-11
159,419,-113,1093,2,-79,-1
160,472,-50,1037,20,-8,5
161,140,44,997,11,61,16
162,-287,86,914,-9,76,23
163,-512,36,867,-26,27,7
164,-270,-58,975,-23,-57,-11
165,215,-111,1091,-4,-92,-9
166,490,-100,1067,10,-50,3
167,365,-2,1027,19,27,9
168,-64,63,950,0,74,23
169,-448,74,888,-15,61,18
170,-453,-7,902,-27,-12,-3
171,-56,-89,1036,-14,-81,-12
172,404,-112,1101,3,-82,-2
173,483,-56,1040,16,-14,4
174,175,40,1007,14,57,15
175,-264,78,917,-10,77,23
176,-522,47,867,-24,33,7
177,-299,-47,964,-22,-52,-9
178,184,-114,1084,-7,-91,-8
179,488,-98,1077,11,-56,3
180,393,-7,1028,19,21,10
181,-36,59,961,3,75,20
182,-433,77,891,-17,64,18
183,-469,1,891,-24,-7,-2
184,-95,-93,1025,-18,-78,-10
185,391,-113,1101,4,-83,-2
186,494,-64,1050,14,-21,6
187,206,25,1010,14,54,15
188,-244,76,920,-6,78,23
189,-518,48,863,-24,37,10
190,-323,-51,954,-23,-45,-8
191,155,-114,1076,-8,-91,-8
192,485,-101,1085,13,-59,2
193,409,-18,1028,17,17,8
194,-10,63,964,7,75,20
195,-420,82,894,-17,66,20
196,-478,6,891,-27,0,0
197,-124,-92,1024,-16,-77,-12
198,372,-117,1098,2,-87,-3
199,497,-68,1054,16,-25,5
200,229,26,1007,14,51,14
201,-228,86,929,-1,78,23
202,-513,59,864,-27,41,12
203,-344,-39,945,-22,-41,-8
204,126,-104,1072,-8,-92,-10
205,480,-103,1092,10,-63,1
206,420,-27,1032,17,11,8
207,9,59,964,6,75,20
208,-397,81,898,-14,68,21
209,-487,7,882,-29,4,0
210,-152,-85,1020,-17,-73,-12
211,347,-111,1098,1,-90,-6
212,502,-78,1055,14,-32,5
213,255,23,1006,15,45,13
214,-199,84,936,-3,80,22
215,-499,47,866,-26,45,14
216,-367,-33,941,-23,-35,-8
217,91,-108,1068,-9,-92,-11
218,466,-116,1084,8,-67,0
219,431,-29,1033,22,6,7
220,38,53,969,5,71,19
221,-369,82,909,-12,71,23
222,-496,19,879,-27,12,2
223,-180,-75,1011,-17,-69,-11
224,314,-113,1099,-3,-91,-6
225,495,-84,1058,12,-35,2
226,284,18,1012,17,41,12
227,-165,73,933,-4,79,22
228,-484,61,881,-20,50,15
229,-386,-23,929,-26,-29,-7
230,58,-102,1066,-10,-89,-10
231,444,-109,1087,4,-70,1
232,443,-32,1035,19,0,6
233,70,50,973,5,67,18
234,-338,81,903,-8,74,22
235,-498,25,882,-27,15,4
236,-208,-66,1002,-17,-62,-10
237,283,-120,1094,-6,-92,-5
238,488,-88,1054,13,-40,3
239,312,8,1018,18,35,11
240,-135,64,935,-4,80,21
241,-468,64,892,-18,52,16
242,-411,-17,918,-28,-23,-5
243,19,-104,1053,-10,-86,-11
244,431,-113,1094,4,-76,-1
245,454,-42,1038,20,-5,7
246,107,38,981,9,63,17
247,-310,87,916,-7,75,22
248,-505,27,870,-27,21,5
249,-245,-66,989,-22,-60,-11
250,246,-118,1095,-3,-93,-7
251,488,-85,1059,11,-46,4
252,342,5,1023,19,32,9
253,-98,65,939,-3,78,21
254,-459,77,893,-14,58,18
255,-434,-15,912,-31,-20,-5
256,-22,-97,1043,-9,-84,-10
257,416,-106,1092,5,-80,-2
258,475,-52,1042,18,-10,6
259,140,40,998,11,62,15
260,-285,86,915,-9,76,23
261,-513,36,870,-27,28,8
262,-275,-56,975,-23,-55,-11
263,212,-110,1090,-2,-92,-8
264,489,-95,1069,10,-52,2
265,371,-4,1022,21,27,11
266,-67,68,953,-3,76,21
267,-447,77,893,-16,61,18
268,-455,-11,898,-30,-13,-4
269,-62,-92,1034,-12,-82,-11
270,403,-115,1099,2,-83,-1
271,486,-64,1044,16,-16,5
272,175,38,1006,16,58,15
273,-262,82,916,-10,77,25
274,-520,38,862,-26,33,10
275,-303,-51,965,-25,-52,-10
276,187,-112,1082,-3,-93,-8
277,491,-101,1079,10,-56,3
278,390,-8,1025,17,22,8
279,-36,65,963,2,76,20
280,-434,71,885,-17,65,21
281,-474,0,894,-27,-6,0
282,-96,-87,1027,-15,-79,-11
283,390,-113,1101,2,-84,-2
284,497,-65,1046,16,-22,4
285,207,36,1009,15,53,13
286,-246,78,925,-7,78,24
287,-519,51,864,-25,39,12
288,-326,-41,955,-24,-46,-10
289,156,-117,1074,-7,-92,-9
290,485,-104,1090,12,-59,1
291,407,-18,1024,18,15,9
292,-8,64,966,5,74,20
293,-420,82,890,-17,67,20
294,-483,6,887,-27,-1,-1
295,-122,-86,1025,-18,-77,-10
296,373,-114,1100,3,-86,-4
297,498,-72,1050,14,-27,3
298,236,27,1004,15,51,14
299,-226,78,932,-6,78,23
300,-512,50,861,-25,41,11
301,-344,-41,948,-22,-40,-8
302,126,-118,1069,-9,-92,-11
303,476,-106,1091,12,-63,1
304,419,-20,1031,18,11,8
305,12,57,965,6,72,18
306,-398,85,902,-13,68,19
307,-484,10,881,-28,6,0
308,-151,-85,1020,-18,-72,-11
309,347,-112,1098,1,-89,-4
310,496,-73,1055,13,-31,4
311,254,19,1007,16,45,12
312,-199,80,934,-2,80,23
313,-501,56,864,-25,44,14
314,-359,-33,944,-22,-36,-7
315,97,-108,1065,-9,-90,-10
316,465,-101,1089,8,-66,1
317,430,-28,1030,16,6,8
318,36,56,969,7,70,18
319,-373,89,906,-12,71,21
320,-491,12,881,-30,9,1
321,-179,-80,1014,-18,-69,-12
322,321,-112,1098,-1,-90,-6
323,495,-85,1054,13,-35,4
324,280,18,1008,17,40,12
325,-174,76,932,-4,80,23
326,-491,59,877,-21,47,15
327,-384,-27,936,-23,-30,-7
328,64,-102,1060,-10,-88,-11
329,452,-110,1092,6,-72,0
330,443,-38,1030,20,2,7
331,66,52,974,7,68,18
332,-340,84,909,-10,73,21
333,-499,19,875,-28,15,4
334,-210,-70,1005,-16,-64,-12
335,290,-112,1099,-3,-93,-6
336,491,-90,1056,10,-40,4
337,309,14,1016,21,36,11
338,-136,74,936,-3,80,22
339,-474,64,888,-18,53,15
340,-408,-18,921,-26,-25,-5
341,26,-101,1059,-10,-87,-11
342,430,-114,1090,3,-76,-2
343,455,-43,1038,21,-4,5
344,100,48,984,10,64,17
345,-313,82,912,-10,75,22
346,-502,29,872,-27,20,6
347,-236,-57,993,-19,-60,-10
348,253,-115,1094,-6,-92,-7
349,488,-90,1059,10,-45,4
350,332,5,1020,20,33,9
351,-107,64,940,-5,78,21
352,-459,70,894,-14,56,17
353,-429,-15,911,-33,-20,-5
354,-8,-99,1047,-8,-83,-11
355,414,-112,1095,0,-79,-2
356,469,-46,1041,21,-8,4
357,131,41,992,7,61,16
358,-291,82,910,-8,75,23
359,-506,35,870,-27,25,6
360,-264,-58,981,-21,-55,-10
361,225,-116,1092,-4,-91,-7
362,483,-94,1064,10,-48,3
363,359,-1,1021,21,29,10
364,-76,67,955,-2,76,21
365,-449,74,887,-15,60,18
366,-447,-4,908,-28,-16,-3
367,-42,-99,1034,-15,-82,-11
368,406,-111,1098,5,-80,-2
369,479,-55,1041,16,-13,4
370,162,29,1004,12,58,14
371,-277,88,915,-9,77,23
372,-513,40,866,-24,30,8
373,-287,-56,967,-25,-54,-9
374,199,-109,1087,-3,-91,-9
375,490,-97,1071,10,-54,2
376,381,-5,1028,18,25,10
377,-54,66,955,1,76,21
378,-444,80,890,-17,63,19
379,-463,-9,899,-28,-10,-3
380,-76,-97,1028,-16,-81,-12
381,397,-111,1101,5,-84,-2
382,493,-65,1042,14,-19,5
383,192,35,1006,17,57,16
384,-257,87,922,-11,76,24
385,-518,44,865,-24,34,10
386,-313,-47,962,-24,-50,-9
387,173,-113,1080,-6,-92,-8
388,492,-106,1083,11,-58,2
389,398,-16,1026,18,20,9
390,-29,64,960,4,75,19
391,-431,81,893,-17,63,19
392,-473,0,892,-25,-4,-1
393,-105,-87,1021,-18,-78,-12
394,386,-115,1103,4,-85,-4
395,497,-72,1051,13,-23,4
396,212,34,1005,19,54,14
397,-238,85,927,-9,77,24
398,-519,44,861,-25,40,10
399,-330,-43,955,-22,-45,-10
400,148,-111,1077,-8,-93,-9
401,484,-108,1085,9,-61,2
402,409,-19,1030,18,14,8
403,-6,67,966,7,74,21
404,-413,76,890,-19,66,20
405,-486,9,891,-24,1,-2
406,-128,-84,1020,-19,-76,-12
407,370,-120,1102,4,-87,-3
408,498,-73,1053,14,-26,4
409,237,25,1006,15,50,13
410,-222,78,932,-6,79,23
411,-513,51,861,-25,42,13
412,-343,-38,949,-22,-39,-9
413,126,-112,1074,-9,-92,-9
414,478,-107,1085,11,-64,1
415,420,-17,1033,16,10,7
416,13,57,963,7,74,20
417,-401,81,900,-15,68,21
418,-487,15,883,-26,6,1
419,-153,-88,1021,-20,-73,-12
420,347,-116,1098,3,-89,-4
421,500,-76,1054,14,-30,4
422,253,24,1010,15,46,13
423,-195,72,925,-4,79,23
424,-506,63,874,-23,46,14
425,-363,-29,937,-21,-36,-8
426,101,-109,1071,-11,-92,-10
427,460,-103,1086,10,-66,0
428,431,-33,1036,15,6,7
429,32,50,969,7,72,20
430,-375,83,900,-13,71,22
431,-491,13,882,-27,10,2
432,-174,-78,1013,-18,-68,-10
433,322,-112,1098,-1,-91,-6
434,494,-77,1058,15,-35,3
435,276,15,1009,13,42,13
436,-179,77,931,-2,79,22
437,-490,60,876,-24,47,13
438,-376,-30,935,-21,-31,-7
439,70,-107,1063,-13,-89,-10
440,453,-107,1091,7,-70,-1
441,439,-37,1032,18,3,6
442,57,53,971,10,69,17
443,-350,85,907,-11,73,22
444,-495,15,880,-29,13,3
445,-196,-73,1007,-18,-66,-12
446,299,-110,1097,-2,-92,-6
447,491,-86,1055,12,-37,4
448,297,11,1013,15,38,11
449,-154,71,935,-3,79,21
450,-474,59,886,-22,51,16
451,-398,-21,927,-23,-26,-5
452,44,-98,1062,-12,-88,-11
453,440,-112,1089,6,-74,0
454,447,-37,1035,18,-2,7
455,84,49,976,9,67,17
456,-324,84,911,-13,75,22
457,-500,22,873,-29,17,5
458,-221,-67,997,-19,-62,-11
459,269,-112,1100,-4,-91,-6
460,485,-90,1054,13,-41,3
461,321,8,1018,20,34,11
462,-121,70,939,-2,79,21
463,-466,63,891,-21,55,16
464,-413,-14,919,-26,-23,-6
465,12,-95,1053,-13,-85,-11
466,425,-113,1089,4,-76,-1
467,457,-39,1039,17,-5,6
468,111,43,986,8,63,17
469,-304,79,914,-10,75,23
470,-506,27,869,-27,22,6
471,-243,-62,988,-19,-58,-11
472,244,-114,1095,-4,-91,-6
473,484,-91,1061,12,-46,2
474,340,8,1022,20,31,10
475,-97,65,945,-1,78,22
476,-457,73,892,-18,58,17
477,-430,-8,909,-26,-18,-4
478,-14,-101,1046,-16,-84,-11
479,413,-110,1094,6,-78,-2
480,469,-50,1039,16,-9,5
481,141,37,996,11,60,16
482,-288,83,912,-10,77,23
483,-506,34,870,-25,26,6
484,-267,-56,984,-22,-55,-10
485,218,-113,1089,-4,-91,-8
486,486,-88,1068,11,-50,2
487,361,-2,1023,19,27,9
488,-72,63,947,0,75,21
489,-450,75,891,-17,61,17
490,-446,-12,902,-27,-14,-4
491,-48,-96,1039,-14,-80,-11
492,404,-108,1100,6,-81,-3
493,482,-54,1041,15,-15,5
494,164,34,1002,15,58,15
495,-275,85,915,-10,76,22
496,-511,41,865,-23,29,9
497,-288,-57,969,-25,-52,-9
498,196,-113,1086,-3,-91,-8
499,489,-96,1074,9,-54,2
500,378,-9,1027,20,24,9
501,-52,63,950,2,74,21
502,-445,79,890,-17,62,20
503,-457,-7,896,-28,-11,-3
504,-74,-88,1033,-15,-80,-13
505,396,-111,1100,6,-82,-3
506,490,-63,1047,11,-17,5
507,185,37,1004,16,57,15
508,-258,84,921,-9,77,21
509,-515,38,861,-24,35,9
510,-308,-50,963,-25,-49,-9
511,178,-112,1085,-3,-92,-9
512,489,-101,1082,10,-57,3
513,390,-11,1024,19,21,8
514,-31,69,962,1,73,20
515,-435,80,888,-19,64,20
516,-470,0,893,-26,-6,-2
517,-98,-87,1027,-18,-78,-12
518,388,-115,1102,3,-84,-4
519,497,-70,1048,12,-22,4
520,206,38,1010,18,55,14
521,-242,76,920,-11,75,23
522,-515,45,860,-22,37,10
523,-324,-39,960,-22,-46,-10
524,158,-111,1073,-6,-92,-8
525,490,-100,1088,9,-60,2
526,404,-16,1025,17,17,9
527,-9,63,964,3,74,22
528,-420,77,895,-19,66,21
529,-480,2,886,-26,-1,-1
530,-119,-88,1022,-19,-76,-12
531,373,-118,1102,3,-85,-3
532,494,-69,1050,13,-25,6
533,223,34,1008,15,51,15
534,-228,76,926,-7,77,23
535,-512,51,862,-25,41,12
536,-334,-36,958,-21,-42,-8
537,136,-121,1070,-11,-92,-9
538,479,-104,1088,13,-61,0
539,410,-17,1031,16,13,8
540,2,59,963,5,73,20
541,-408,81,898,-18,68,20
542,-485,11,888,-26,3,0
543,-138,-91,1023,-19,-74,-11
544,356,-113,1104,3,-87,-5
545,496,-72,1050,15,-29,4
546,243,27,1006,14,49,13
547,-215,83,930,-6,79,23
548,-504,55,865,-27,42,13
549,-348,-34,948,-21,-39,-7
550,117,-115,1071,-9,-92,-9
551,471,-100,1091,12,-65,1
552,424,-23,1033,16,9,8
553,18,54,962,5,73,19
554,-391,89,902,-12,70,20
555,-486,8,883,-31,6,1
556,-158,-87,1021,-17,-71,-13
557,339,-114,1096,-1,-89,-4
558,497,-78,1058,14,-30,5
559,260,17,1007,14,45,11
560,-196,77,930,-4,80,23
561,-501,58,870,-24,45,14
562,-364,-35,941,-22,-35,-8
563,92,-107,1069,-11,-91,-10
564,467,-105,1088,8,-67,1
565,435,-32,1031,18,4,6
566,40,57,966,9,71,18
567,-370,88,903,-12,69,22
568,-490,14,883,-29,9,3
569,-181,-75,1015,-16,-68,-11
570,322,-115,1097,-2,-90,-4
571,497,-82,1055,15,-35,4
572,276,19,1007,15,42,11
573,-173,80,936,-1,78,21
574,-492,56,874,-25,48,14
575,-383,-27,932,-22,-30,-7
576,66,-100,1071,-10,-90,-11
577,450,-112,1090,6,-71,0
578,439,-36,1034,18,1,7
579,56,52,970,7,69,17
580,-347,79,902,-11,72,22
581,-493,18,878,-27,13,4
582,-199,-69,1010,-15,-65,-14
583,299,-113,1102,-3,-91,-6
584,489,-85,1055,14,-37,4
585,296,18,1012,18,38,12
586,-149,74,935,-3,80,23
587,-477,62,881,-20,50,15
588,-396,-21,927,-24,-26,-7
589,45,-106,1060,-11,-87,-11
590,438,-111,1090,3,-73,1
591,444,-34,1036,21,-1,6
592,83,45,973,7,67,18
593,-325,81,909,-9,75,23
594,-499,28,878,-29,16,4
595,-216,-65,999,-19,-62,-12
596,273,-116,1096,-4,-92,-7
597,489,-87,1056,10,-41,3
598,315,9,1018,19,35,11
599,-128,65,937,-3,79,22
600,-469,65,888,-17,54,15
601,-412,-15,922,-27,-24,-6
602,16,-101,1057,-12,-86,-12
603,428,-111,1091,4,-77,0
604,457,-40,1036,18,-5,5
605,105,42,984,8,64,17
606,-310,85,912,-10,74,23
607,-504,29,873,-27,22,6
608,-241,-65,989,-21,-60,-11
609,254,-115,1096,-4,-92,-6
610,484,-85,1061,11,-45,2
611,336,1,1017,19,33,9
612,-99,65,939,-1,78,22
613,-459,72,893,-18,57,18
614,-424,-15,912,-28,-21,-5
615,-11,-99,1047,-10,-85,-11
616,416,-108,1092,7,-77,-2
617,467,-46,1041,17,-9,6
618,130,41,993,12,61,16
619,-292,84,908,-10,76,23
620,-507,32,869,-27,24,7
621,-262,-64,979,-23,-56,-11
622,227,-112,1095,-2,-93,-8
623,486,-94,1064,10,-48,3
624,356,-2,1020,19,28,11
625,-81,72,952,0,75,22
626,-453,72,886,-18,59,17
627,-441,-11,909,-27,-15,-4
628,-38,-89,1037,-14,-83,-11
629,410,-110,1098,3,-81,-2
630,477,-56,1043,17,-11,5
631,156,39,1000,13,60,15
632,-278,86,917,-10,78,23
633,-512,35,863,-25,29,7
634,-283,-53,969,-22,-54,-11
635,205,-108,1091,-5,-91,-8
636,491,-100,1072,6,-53,3
637,376,-2,1027,20,25,10
638,-59,69,956,1,76,22
639,-445,74,887,-17,62,19
640,-457,-6,899,-28,-12,-3
641,-65,-91,1034,-17,-81,-12
642,402,-120,1099,2,-83,-3
643,484,-61,1043,17,-16,5
644,183,40,1008,16,57,15
645,-261,80,915,-11,77,23
646,-517,42,862,-25,33,8
647,-304,-50,965,-22,-51,-11
648,190,-114,1085,-5,-93,-7
649,487,-102,1081,10,-55,3
650,388,-5,1027,21,22,7
651,-36,67,965,2,75,22
652,-441,75,888,-19,65,20
653,-470,2,892,-26,-7,-3
654,-92,-95,1025,-17,-79,-12
655,392,-117,1103,4,-84,-3
656,493,-61,1046,14,-20,4
657,203,32,1009,16,55,14
658,-247,77,919,-8,79,24
659,-523,54,861,-24,37,11
660,-318,-42,960,-24,-47,-8
661,162,-112,1078,-7,-92,-9
662,483,-100,1085,10,-59,1
663,402,-13,1028,17,18,9
664,-18,61,963,2,75,21
665,-424,83,889,-16,67,20
666,-478,5,891,-28,-2,-2
667,-116,-90,1029,-17,-78,-12
668,376,-117,1097,4,-85,-4
669,497,-66,1055,16,-25,4
670,221,25,1002,14,52,14
671,-232,84,927,-4,78,22
672,-513,49,860,-26,39,10
673,-333,-44,953,-23,-43,-9
674,142,-114,1076,-9,-91,-9
675,484,-104,1090,8,-61,2
676,417,-20,1029,17,13,9
677,-3,60,966,5,74,20
678,-410,84,895,-16,67,21
679,-484,5,885,-28,2,0
680,-136,-87,1026,-18,-74,-11
681,363,-112,1098,2,-88,-4
682,500,-72,1057,19,-30,2
683,240,22,1001,17,49,12
684,-214,87,931,-5,79,23
685,-510,53,860,-24,42,14
686,-351,-37,950,-28,-37,-9
687,116,-108,1069,-4,-91,-10
688,475,-104,1092,3,-65,1
689,422,-30,1029,23,9,6
690,18,61,966,3,72,19
691,-391,86,904,-11,70,21
692,-486,8,882,-32,6,1
693,-159,-75,1020,-14,-70,-10
694,344,-115,1099,-4,-89,-3
695,496,-78,1057,16,-31,4
696,258,21,1005,13,45,12
697,-194,77,932,-3,79,24
698,-502,51,866,-25,45,14
699,-364,-31,941,-22,-34,-7
700,91,-104,1070,-10,-90,-9
701,465,-113,1088,6,-68,1
702,430,-31,1033,22,7,8
703,39,56,967,4,71,18
704,-368,81,905,-10,70,22
705,-493,19,880,-31,11,2
706,-178,-75,1014,-17,-68,-11
707,317,-119,1099,-5,-92,-5
708,493,-83,1053,16,-33,3
709,280,18,1010,12,41,11
710,-170,73,930,-3,79,21
711,-488,57,880,-22,48,14
712,-382,-18,933,-24,-29,-7
713,67,-104,1065,-11,-89,-11
714,448,-112,1086,5,-70,-1
715,441,-32,1036,19,1,7
716,62,49,969,5,68,18
717,-345,82,907,-8,73,22
718,-497,22,879,-30,15,4
719,-202,-70,1005,-16,-63,-11
720,294,-115,1099,-6,-92,-5
721,488,-82,1055,14,-38,4
722,302,12,1014,17,38,11
723,-147,69,934,-3,79,22
724,-473,65,886,-18,49,16
725,-399,-21,926,-28,-26,-6
726,37,-104,1060,-8,-87,-11
727,433,-106,1090,4,-73,0
728,451,-40,1032,19,-3,5
729,91,43,976,7,65,17
730,-321,85,909,-8,74,22
731,-499,24,876,-29,18,5
732,-229,-72,992,-22,-61,-11
733,268,-113,1097,-3,-92,-6
734,487,-86,1056,11,-42,4
735,326,1,1017,19,34,11
736,-119,72,943,-1,78,22
737,-464,68,888,-17,55,17
738,-418,-17,914,-27,-23,-6
739,5,-97,1053,-11,-84,-11
740,423,-110,1095,4,-76,-2
741,466,-50,1037,17,-6,5
742,118,42,990,12,63,16
743,-301,84,909,-10,75,22
744,-507,34,875,-24,23,6
745,-253,-65,983,-21,-58,-11
746,237,-110,1098,-4,-92,-7
747,487,-94,1058,8,-47,3
748,348,-2,1018,19,32,11
749,-92,75,950,1,77,22
750,-455,66,888,-18,59,18
751,-436,-9,914,-25,-18,-4
752,-30,-91,1039,-12,-83,-11
753,412,-110,1098,4,-80,-1
754,475,-53,1039,16,-11,6
755,149,42,1001,13,60,16
756,-282,85,912,-9,77,24
757,-510,31,865,-27,28,8
758,-279,-56,975,-22,-55,-12
759,214,-115,1093,-5,-91,-8
760,487,-99,1067,9,-52,3
761,369,-2,1025,21,26,9
762,-62,65,956,0,77,21
763,-450,74,886,-16,61,19
764,-453,-6,902,-29,-13,-3
765,-58,-94,1031,-15,-81,-10
766,400,-113,1101,3,-81,-2
767,484,-60,1043,17,-14,4
768,171,39,1007,14,57,16
769,-265,82,918,-9,75,25
770,-517,40,865,-26,32,9
771,-299,-51,965,-23,-51,-10
772,190,-114,1083,-4,-91,-7
773,487,-103,1076,9,-55,2
774,388,-3,1027,21,22,8
775,-42,61,963,1,75,22
776,-439,78,887,-18,64,20
777,-471,2,895,-28,-8,-2
778,-84,-93,1028,-18,-81,-11
779,392,-114,1099,4,-83,-3
780,494,-65,1048,14,-21,5
781,198,36,1012,16,56,14
782,-251,78,919,-10,77,23
783,-516,51,860,-23,36,11
784,-318,-49,959,-26,-48,-9
785,164,-114,1076,-5,-91,-8
786,485,-97,1086,11,-60,3
787,403,-16,1023,17,18,9
788,-21,57,964,4,74,20
789,-427,82,892,-16,66,20
790,-475,4,892,-27,-3,-1
791,-114,-93,1024,-18,-79,-12
792,377,-113,1097,6,-85,-4
793,498,-65,1053,13,-24,6
794,220,27,1008,16,52,13
795,-234,82,927,-5,78,22
796,-514,49,859,-26,40,10
797,-330,-47,953,-22,-44,-9
798,141,-108,1075,-6,-91,-9
799,482,-104,1090,11,-62,1
800,411,-20,1031,17,13,8
801,-2,65,967,7,75,19
802,-415,82,891,-19,67,21
803,-482,3,886,-27,2,1
804,-133,-89,1019,-17,-75,-11
805,366,-110,1101,3,-88,-3
806,500,-73,1052,14,-28,5
807,238,24,1006,15,49,13
808,-221,84,933,-3,78,22
809,-509,51,862,-27,41,13
810,-346,-43,946,-21,-40,-8
811,122,-105,1071,-8,-93,-10
812,480,-105,1091,9,-64,0
813,421,-26,1031,18,10,8
814,18,60,964,6,74,19
815,-394,84,896,-15,69,22
816,-490,9,884,-30,6,0
817,-152,-83,1020,-15,-72,-12
818,347,-112,1101,1,-89,-4
819,499,-80,1051,14,-31,5
820,258,25,1010,17,45,13
821,-199,78,929,-5,80,22
822,-502,51,863,-26,45,14
823,-365,-27,942,-22,-35,-8
824,97,-108,1067,-10,-92,-10
825,463,-111,1090,9,-69,0
826,433,-29,1032,19,6,6
827,40,57,968,7,71,19
828,-372,82,907,-15,71,23
829,-491,13,874,-27,11,2
830,-179,-72,1019,-18,-68,-12
831,318,-121,1095,-3,-92,-6
832,496,-77,1058,14,-35,4
833,274,20,1008,15,42,12
834,-172,70,932,-3,79,22
835,-491,62,881,-23,47,14
836,-379,-26,929,-24,-30,-7
837,70,-103,1064,-12,-90,-8
838,448,-108,1086,7,-70,0
839,441,-31,1036,19,3,6
840,62,54,974,7,67,18
841,-347,78,907,-13,73,20
842,-495,17,876,-30,14,4
843,-198,-74,1007,-18,-65,-10
844,295,-118,1096,-4,-92,-6
845,489,-77,1057,14,-38,2
846,301,10,1013,16,37,12
847,-147,68,935,-3,80,23
848,-476,67,889,-19,51,17
849,-397,-23,924,-26,-25,-6
850,38,-101,1060,-11,-87,-11
851,437,-110,1089,4,-75,-2
852,450,-37,1037,19,-2,6
853,87,43,976,7,65,17
854,-322,84,912,-8,74,22
855,-501,24,876,-27,18,4
856,-226,-71,994,-19,-61,-12
857,266,-112,1093,-3,-92,-7
858,487,-83,1059,13,-42,3
859,319,5,1019,17,33,12
860,-123,72,941,-2,78,22
861,-466,68,890,-19,54,16
862,-414,-21,912,-26,-22,-5
863,9,-95,1048,-11,-84,-12
864,429,-110,1096,2,-78,-1
865,463,-48,1036,18,-5,7
866,112,42,988,11,63,17
867,-307,85,912,-10,75,23
868,-506,28,871,-27,22,7
869,-250,-63,984,-20,-59,-11
870,246,-113,1093,-3,-92,-7
871,487,-92,1059,9,-46,4
872,347,3,1021,20,31,9
873,-93,68,951,-1,77,22
874,-462,69,889,-18,58,17
875,-437,-15,907,-29,-19,-5
876,-23,-94,1041,-11,-83,-11
877,414,-116,1096,3,-80,0
878,476,-52,1040,17,-10,6
879,145,42,1002,14,60,15
880,-281,81,916,-10,77,23
881,-513,34,867,-24,27,7
882,-271,-53,974,-24,-56,-11
883,215,-109,1090,-2,-92,-8
884,485,-96,1066,10,-51,1
885,365,-2,1026,20,27,9
886,-71,66,954,0,76,20
887,-448,70,885,-17,61,19
888,-452,-4,903,-24,-14,-3
889,-50,-91,1035,-14,-82,-11
890,404,-110,1100,5,-80,-1
891,484,-53,1043,16,-14,5
892,171,38,1006,13,58,16
893,-270,80,914,-12,77,24
894,-516,44,866,-25,31,8
895,-292,-50,967,-24,-52,-9
896,191,-119,1079,-5,-91,-7
897,489,-98,1077,10,-54,3
898,387,-10,1026,20,24,9
899,-44,62,962,1,76,22
900,-444,78,889,-15,63,19
901,-463,-1,897,-27,-9,-2
902,-80,-88,1026,-17,-79,-11
903,396,-113,1096,3,-84,-4
904,495,-59,1049,14,-20,5
905,195,30,1006,14,56,14
906,-255,79,922,-10,77,22
907,-519,43,860,-24,35,9
908,-314,-49,964,-23,-49,-10
909,170,-116,1077,-5,-91,-8
910,488,-98,1087,10,-59,3
911,397,-12,1024,18,20,8
912,-24,63,963,5,76,21
913,-434,83,891,-17,65,20
914,-476,3,892,-25,-4,-1
915,-108,-91,1024,-20,-77,-11
916,381,-112,1100,5,-85,-4
917,498,-68,1050,14,-24,4
918,217,29,1005,16,54,15
919,-239,85,928,-7,78,22
920,-518,50,862,-24,39,9
921,-332,-43,953,-23,-45,-10
922,144,-110,1072,-9,-92,-9
923,491,-100,1090,9,-61,2
924,412,-22,1028,17,15,9
925,-4,65,966,7,75,19
926,-414,82,893,-17,67,20
927,-486,2,884,-28,2,-1
928,-134,-88,1024,-16,-77,-13
929,371,-114,1101,2,-87,-4
930,502,-75,1055,15,-28,5
931,237,28,1005,16,51,12
932,-216,82,931,-6,79,23
933,-513,52,864,-26,42,12
934,-347,-40,948,-22,-40,-9
935,122,-104,1070,-8,-91,-9
936,479,-108,1090,8,-65,1
937,422,-25,1028,18,11,8
938,14,60,964,6,74,20
939,-395,78,902,-16,67,21
940,-491,10,884,-27,6,1
941,-154,-81,1020,-17,-73,-11
942,346,-114,1099,0,-90,-5
943,500,-80,1053,14,-30,5
944,255,26,1007,15,46,13
945,-199,80,936,-5,79,23
946,-503,55,868,-27,45,13
947,-363,-31,940,-23,-35,-8
948,100,-108,1069,-11,-92,-9
949,467,-108,1090,8,-67,1
950,428,-26,1035,18,5,7
951,36,54,964,5,70,18
952,-374,77,901,-13,69,22
953,-492,13,884,-28,9,2
954,-172,-80,1016,-17,-69,-12
955,323,-118,1095,-2,-91,-5
956,496,-76,1055,15,-33,4
957,276,24,1009,15,41,13
958,-178,73,936,-2,79,23
959,-489,59,880,-23,47,14
960,-377,-25,934,-24,-31,-7
961,75,-109,1065,-12,-90,-11
962,452,-109,1087,7,-70,-1
963,439,-34,1033,18,2,8
964,56,49,973,7,69,18
965,-355,83,907,-10,72,21
966,-495,19,879,-28,13,3
967,-195,-75,1009,-15,-65,-11
968,304,-111,1099,-4,-91,-5
969,491,-79,1055,14,-37,4
970,293,13,1012,14,39,12
971,-152,69,930,-4,79,23
972,-478,70,890,-21,51,16
973,-392,-28,928,-26,-27,-7
974,47,-104,1059,-11,-88,-11
975,437,-106,1091,6,-73,0
976,449,-38,1035,18,-1,7
977,79,45,973,10,67,17
978,-332,91,910,-9,75,21
979,-498,21,878,-30,16,4
980,-216,-68,1000,-17,-62,-9
981,275,-112,1095,-4,-93,-5
982,491,-87,1057,11,-42,4
983,313,5,1015,15,35,11
984,-130,73,941,0,79,22
985,-470,67,887,-18,53,15
986,-411,-24,916,-26,-23,-5
987,18,-93,1057,-10,-85,-11
988,432,-109,1089,3,-76,0
989,458,-47,1034,20,-5,5
990,103,44,982,8,64,16
991,-310,85,911,-7,75,23
992,-506,25,875,-30,21,5
993,-241,-62,990,-19,-60,-11
994,250,-111,1094,-6,-93,-7
995,486,-97,1057,10,-44,3
996,337,8,1020,19,32,10
997,-104,72,942,-1,77,20
998,-462,62,890,-19,58,17
999,-430,-9,917,-26,-19,-4
1000,-12,-98,1046,-12,-84,-11
1001,418,-115,1092,1,-78,0
1002,471,-48,1036,19,-8,5
1003,133,40,995,10,61,16
1004,-294,84,916,-7,77,23
1005,-510,35,868,-27,25,7
1006,-263,-58,976,-22,-56,-11
1007,228,-112,1095,-3,-92,-7
1008,489,-94,1065,10,-50,3
1009,357,-2,1024,21,29,10
1010,-80,62,949,-3,77,22
1011,-454,72,887,-17,60,18
1012,-442,-5,906,-27,-16,-3
1013,-40,-93,1041,-14,-83,-12
1014,410,-113,1098,3,-81,-2
1015,480,-50,1044,16,-13,5
1016,158,34,997,12,60,17
1017,-275,78,913,-10,77,24
1018,-518,42,870,-16,30,6
1019,-283,-54,973,-17,-53,-10
1020,204,-114,1090,-2,-91,-7
1021,485,-95,1064,9,-54,1
1022,376,-4,1026,17,25,9
1023,-59,67,962,4,76,21
1024,-445,78,888,-21,62,18
1025,-454,-3,900,-23,-11,-3
1026,-63,-96,1028,-20,-80,-13
1027,400,-113,1098,7,-82,-5
1028,487,-58,1048,13,-16,4
1029,180,30,1003,17,58,14
1030,-266,86,914,-8,76,23
1031,-517,44,867,-24,34,9
1032,-298,-52,967,-23,-51,-9
1033,185,-111,1083,-4,-91,-8
1034,486,-95,1075,10,-56,3
1035,390,-13,1025,18,22,9
1036,-40,72,962,5,76,21
1037,-438,74,884,-20,64,20
1038,-465,0,899,-26,-9,-1
1039,-91,-92,1027,-18,-79,-12
1040,394,-115,1100,6,-84,-3
1041,493,-67,1046,13,-20,5
1042,199,28,1007,15,56,14
1043,-250,83,923,-8,77,24
1044,-521,47,865,-22,37,10
1045,-317,-49,957,-23,-49,-9
1046,165,-108,1075,-4,-92,-9
1047,490,-102,1086,8,-59,2
1048,400,-21,1028,19,19,8
1049,-24,65,967,5,74,21
1050,-428,75,886,-19,65,20
1051,-477,2,891,-25,-4,0
1052,-111,-88,1023,-18,-78,-11
1053,385,-115,1109,5,-86,-3
1054,499,-68,1049,14,-24,5
1055,218,34,1007,17,53,14
1056,-235,83,925,-9,77,24
1057,-518,45,857,-26,38,11
1058,-334,-39,960,-22,-44,-9
1059,148,-114,1074,-8,-92,-10
1060,486,-108,1086,11,-60,2
1061,411,-20,1023,16,14,7
1062,-5,66,965,8,74,19
1063,-415,81,897,-17,66,21
1064,-484,10,887,-26,0,0
1065,-124,-86,1021,-17,-77,-11
1066,370,-116,1100,3,-86,-4
1067,496,-70,1051,15,-28,4
1068,232,34,1011,16,50,13
1069,-224,76,929,-7,79,22
1070,-512,47,860,-25,41,12
1071,-343,-37,948,-21,-40,-8
1072,130,-117,1075,-9,-92,-10
1073,482,-106,1093,11,-63,1
1074,415,-17,1029,19,12,7
1075,7,58,962,4,73,18
1076,-401,85,897,-14,68,21
1077,-490,10,886,-28,5,0
1078,-142,-89,1023,-18,-74,-12
1079,356,-118,1099,1,-89,-4
1080,495,-74,1048,14,-29,4
1081,248,28,1011,14,48,13
1082,-213,75,931,-5,79,22
1083,-507,51,865,-25,44,12
1084,-350,-34,948,-22,-38,-8
1085,108,-115,1067,-10,-92,-9
1086,472,-99,1092,13,-66,1
1087,429,-23,1032,15,8,7
1088,21,53,960,5,73,18
1089,-388,88,904,-13,69,20
1090,-489,15,884,-27,8,1
1091,-160,-87,1017,-18,-72,-11
1092,339,-114,1100,0,-89,-5
1093,497,-77,1051,16,-33,4
1094,260,23,1007,13,44,13
1095,-197,81,932,-2,80,24
1096,-498,58,871,-24,46,14
1097,-365,-37,940,-22,-33,-7
1098,91,-102,1069,-11,-90,-10
1099,461,-103,1090,11,-68,0
1100,432,-31,1033,15,5,8
1101,39,54,963,6,71,19
1102,-369,83,906,-12,70,20
1103,-491,12,885,-28,10,2
1104,-176,-80,1013,-15,-68,-11
1105,316,-114,1090,-3,-91,-4
1106,498,-81,1062,15,-35,4
1107,273,20,1011,16,43,12
1108,-173,77,934,-2,80,22
1109,-488,57,875,-23,48,15
1110,-379,-28,933,-23,-30,-7
1111,72,-103,1065,-11,-89,-10
1112,452,-114,1085,6,-71,0
1113,440,-32,1036,18,2,8
1114,52,54,970,8,70,18
1115,-348,83,903,-12,72,23
1116,-496,16,880,-29,12,4
1117,-191,-75,1012,-17,-66,-12
1118,302,-111,1099,-3,-92,-5
1119,489,-85,1049,13,-36,3
1120,292,20,1013,17,40,13
1121,-155,81,938,-2,80,22
1122,-481,58,882,-23,50,15
1123,-390,-21,927,-21,-27,-7
1124,52,-98,1062,-11,-89,-11
1125,440,-114,1089,5,-72,1
1126,442,-31,1038,18,0,7
1127,74,43,968,4,66,18
1128,-333,78,908,-9,73,22
1129,-500,24,885,-28,16,4
1130,-215,-68,1001,-18,-63,-11
1131,283,-117,1096,-5,-93,-5
1132,488,-85,1049,14,-39,3
1133,310,17,1019,16,35,11
1134,-132,66,939,-3,79,23
1135,-471,64,889,-20,53,16
1136,-407,-25,915,-29,-25,-7
1137,29,-103,1062,-11,-87,-11
1138,431,-108,1094,5,-75,1
1139,454,-41,1036,19,-4,6
1140,97,40,973,7,64,17
1141,-318,84,913,-7,74,22
1142,-499,31,880,-27,18,6
1143,-230,-66,997,-21,-59,-12
1144,263,-116,1090,-3,-92,-8
1145,489,-82,1056,12,-44,4
1146,325,8,1021,17,34,11
1147,-114,64,939,-2,78,21
1148,-464,67,889,-18,55,16
1149,-418,-18,918,-27,-22,-5
1150,3,-100,1051,-10,-85,-11
1151,422,-106,1093,6,-77,-1
1152,462,-42,1037,19,-6,6
1153,118,41,984,7,62,17
1154,-303,89,912,-8,75,22
1155,-504,31,872,-27,23,6
1156,-248,-66,981,-21,-58,-10
1157,241,-112,1101,-3,-92,-7
1158,485,-91,1059,10,-46,3
1159,345,-3,1019,19,31,11
1160,-98,73,946,1,77,21
1161,-455,71,888,-18,59,19
1162,-430,-17,914,-29,-18,-5
1163,-18,-92,1045,-12,-84,-12
1164,417,-112,1093,2,-79,-1
1165,472,-54,1041,16,-9,5
1166,139,40,997,13,61,15
1167,-292,83,914,-10,77,22
1168,-512,32,870,-25,26,6
1169,-269,-57,979,-21,-56,-11
1170,222,-110,1089,-2,-92,-7
1171,491,-96,1063,9,-51,3
1172,363,0,1024,21,29,10
1173,-77,67,952,0,76,22
1174,-453,72,891,-18,61,19
1175,-447,-8,902,-29,-15,-3
1176,-45,-91,1039,-13,-82,-11
1177,410,-114,1100,3,-81,-2
1178,480,-60,1039,16,-12,6
1179,158,40,998,14,59,14
1180,-274,83,917,-10,75,24
1181,-515,33,867,-25,30,10
1182,-285,-51,977,-24,-54,-10
1183,205,-109,1088,-5,-91,-9
1184,488,-97,1066,9,-54,2
1185,373,-2,1024,21,26,9
1186,-56,66,959,1,77,22
1187,-449,68,888,-18,63,18
1188,-458,-5,904,-25,-11,-4
1189,-63,-93,1034,-17,-81,-11
1190,399,-117,1097,5,-82,-2
1191,486,-54,1045,15,-16,6
1192,178,36,1007,15,57,15
1193,-264,77,914,-11,77,23
1194,-514,42,866,-21,33,9
1195,-299,-49,965,-23,-51,-9
1196,190,-116,1082,-5,-93,-7
1197,489,-95,1078,11,-55,1
1198,388,-10,1022,18,23,8
1199,-40,61,964,3,76,22
1200,-440,78,888,-17,64,18
1201,-463,2,896,-27,-8,-2
1202,-87,-93,1029,-20,-79,-14
1203,393,-114,1099,3,-84,-3
1204,487,-59,1046,13,-18,4
1205,199,31,1007,14,55,14
1206,-254,82,922,-8,78,23
1207,-518,43,864,-24,37,7
1208,-309,-52,959,-24,-49,-9
1209,167,-106,1082,-3,-91,-9
1210,491,-98,1081,10,-59,2
1211,398,-13,1025,17,18,10
1212,-26,62,964,4,75,19
1213,-431,76,889,-19,65,19
1214,-472,1,892,-27,-6,0
1215,-101,-95,1023,-18,-79,-12
1216,383,-114,1101,5,-84,-4
1217,495,-67,1052,14,-23,5
1218,209,31,1007,15,55,15
1219,-240,86,922,-9,78,23
1220,-514,48,862,-25,38,12
1221,-324,-47,957,-24,-45,-9
1222,154,-115,1074,-7,-90,-9
1223,487,-101,1091,11,-59,2
1224,406,-18,1025,16,16,9
1225,-15,66,960,5,74,20
1226,-421,80,890,-19,66,20
1227,-480,-1,891,-27,-2,-1
1228,-119,-88,1021,-19,-78,-13
1229,380,-110,1103,4,-86,-5
1230,495,-73,1051,13,-24,4
1231,221,32,1009,17,53,13
1232,-229,82,925,-6,77,23
1233,-516,48,864,-23,40,11
1234,-333,-39,953,-21,-43,-9
1235,140,-111,1073,-8,-92,-10
1236,483,-105,1092,9,-62,1
1237,412,-21,1029,17,14,8
1238,0,63,963,6,74,20
1239,-410,81,895,-18,67,21
1240,-486,5,886,-26,3,0
1241,-133,-86,1021,-18,-76,-12
1242,365,-117,1103,3,-88,-4
1243,499,-72,1052,15,-29,4
1244,236,31,1003,17,49,13
1245,-214,78,928,-7,77,23
1246,-510,57,863,-24,42,13
1247,-347,-38,951,-24,-39,-9
1248,123,-114,1071,-10,-92,-10
1249,474,-107,1088,10,-64,2
1250,421,-24,1030,18,11,7
1251,12,60,966,6,73,19
1252,-399,76,898,-16,68,22
1253,-487,14,886,-27,5,2
1254,-150,-83,1020,-18,-74,-11
1255,351,-121,1097,0,-88,-4
1256,500,-68,1060,16,-30,5
1257,251,23,1008,13,47,13
1258,-205,76,929,-2,79,23
1259,-508,59,863,-25,44,13
1260,-351,-37,942,-21,-36,-8
1261,105,-110,1075,-11,-90,-9
1262,470,-108,1082,9,-66,-1
1263,430,-24,1036,19,7,7
1264,27,55,966,6,72,18
1265,-381,85,896,-12,69,21
1266,-489,17,889,-28,8,2
1267,-163,-87,1020,-18,-70,-11
1268,336,-113,1092,0,-88,-3
1269,494,-68,1055,14,-32,4
1270,267,15,1006,13,43,13
1271,-191,82,937,-2,80,23
1272,-500,58,871,-24,45,13
1273,-366,-37,938,-24,-33,-7
1274,87,-105,1069,-8,-89,-10
1275,464,-107,1088,7,-67,-1
1276,434,-27,1035,19,6,7
1277,38,55,966,6,71,19
1278,-365,88,905,-11,71,22
1279,-491,14,877,-30,11,2
1280,-176,-81,1012,-16,-68,-11
1281,316,-111,1102,-2,-90,-5
1282,492,-84,1054,13,-35,3
1283,276,13,1007,16,41,11
1284,-174,78,934,-2,80,22
1285,-487,58,879,-23,48,15
1286,-376,-31,930,-24,-31,-8
1287,72,-102,1066,-9,-89,-10
1288,455,-107,1087,5,-70,-1
1289,440,-31,1034,19,2,7
1290,51,59,970,7,69,18
1291,-351,82,907,-13,71,22
1292,-494,15,880,-30,14,3
1293,-194,-72,1009,-17,-66,-11
1294,302,-115,1098,-3,-91,-5
1295,490,-88,1054,13,-37,3
1296,293,17,1013,19,38,11
1297,-157,72,932,-2,80,22
1298,-478,63,886,-19,50,16
1299,-393,-15,928,-26,-27,-6
1300,51,-100,1062,-10,-87,-12
1301,444,-110,1090,3,-72,0
1302,445,-39,1028,19,1,7
1303,76,52,976,8,67,17
1304,-335,77,904,-13,74,22
1305,-499,22,877,-28,15,4
1306,-213,-63,1007,-16,-64,-11
1307,283,-122,1095,-4,-92,-5
1308,490,-80,1058,14,-41,4
1309,308,15,1014,16,35,10
1310,-133,66,934,-6,80,23
1311,-475,69,893,-19,54,17
1312,-405,-24,918,-31,-24,-7
1313,28,-101,1060,-9,-86,-10
1314,430,-109,1089,4,-75,-2
1315,452,-46,1032,19,-3,6
1316,93,46,986,9,65,16
1317,-315,80,906,-8,74,22
1318,-502,28,871,-30,19,5
1319,-229,-67,994,-19,-60,-11
1320,266,-118,1098,-4,-92,-6
1321,485,-81,1064,11,-43,3
1322,329,7,1019,20,32,11
1323,-115,66,932,-4,78,22
1324,-467,71,890,-16,55,17
1325,-417,-17,917,-29,-22,-6
1326,5,-104,1052,-10,-85,-12
1327,423,-107,1094,3,-78,-1
1328,463,-41,1034,19,-6,6
1329,115,40,985,10,63,16
1330,-303,89,915,-7,76,22
1331,-503,30,870,-28,22,6
1332,-247,-66,986,-21,-59,-11
1333,243,-113,1093,-2,-92,-7
1334,486,-86,1057,9,-47,3
1335,341,-1,1022,18,31,11
1336,-99,67,946,-2,77,22
1337,-458,72,893,-15,58,18
1338,-430,-17,909,-29,-20,-4
1339,-16,-96,1045,-12,-83,-11
1340,417,-106,1098,3,-80,-2
1341,473,-56,1039,17,-8,6
1342,134,44,996,13,62,17
1343,-290,84,907,-12,75,22
1344,-508,28,868,-25,25,8
1345,-267,-56,985,-22,-57,-12
1346,224,-113,1090,-3,-92,-8
1347,487,-96,1064,8,-50,3
1348,359,-3,1022,23,29,8
1349,-77,70,948,-1,76,21
1350,-451,74,895,-17,60,19
1351,-443,-12,904,-27,-16,-3
1352,-40,-90,1039,-10,-82,-12
1353,407,-111,1100,3,-81,-3
1354,481,-59,1039,21,-12,5
1355,155,39,1002,13,60,16
1356,-277,85,915,-10,76,23
1357,-510,34,866,-27,28,7
1358,-286,-55,972,-22,-52,-10
1359,205,-112,1088,-2,-91,-8
1360,489,-99,1073,7,-54,1
1361,372,-3,1027,23,26,9
1362,-61,72,955,-4,75,22
1363,-444,70,884,-15,63,19
1364,-459,-3,900,-30,-12,-2
1365,-61,-92,1035,-13,-82,-11
1366,402,-118,1100,2,-82,-2
1367,483,-60,1043,18,-14,5
1368,176,37,1006,13,57,16
1369,-265,78,915,-9,77,23
1370,-512,44,869,-24,33,8
1371,-297,-52,966,-24,-53,-10
1372,190,-112,1087,-5,-92,-8
1373,484,-96,1077,10,-55,2
1374,385,-9,1024,18,22,10
1375,-45,62,962,1,76,21
1376,-438,73,887,-16,64,19
1377,-462,4,897,-25,-9,-2
1378,-82,-93,1025,-18,-79,-11
1379,395,-116,1098,6,-83,-5
1380,491,-58,1049,15,-18,4
1381,192,34,1009,13,56,14
1382,-255,81,917,-9,77,24
1383,-520,49,862,-25,36,9
1384,-311,-51,962,-23,-50,-10
1385,174,-116,1080,-7,-91,-9
1386,486,-102,1081,10,-57,1
1387,397,-13,1028,18,20,9
1388,-30,64,961,5,76,21
1389,-432,80,889,-18,65,20
1390,-477,6,895,-26,-5,-1
1391,-103,-91,1022,-18,-79,-12
1392,385,-113,1102,4,-84,-4
1393,494,-66,1048,14,-22,5
1394,213,21,1005,14,54,13
1395,-243,84,927,-5,78,22
1396,-517,51,865,-25,37,10
1397,-326,-51,953,-21,-46,-9
1398,151,-108,1076,-6,-92,-10
1399,490,-101,1090,12,-61,1
1400,406,-16,1030,15,16,9
1401,-11,67,962,7,75,19
1402,-420,82,891,-18,66,20
1403,-480,2,884,-27,0,0
1404,-122,-89,1026,-18,-77,-12
1405,375,-116,1106,4,-86,-4
1406,498,-75,1049,13,-26,5
1407,225,30,1010,17,51,13
1408,-227,83,925,-6,78,23
1409,-514,52,861,-28,40,11
1410,-336,-35,954,-20,-42,-8
1411,137,-109,1074,-9,-92,-10
1412,482,-107,1089,11,-62,1
1413,414,-25,1026,15,13,7
1414,1,63,965,9,74,17
1415,-410,81,897,-16,68,21
1416,-485,6,887,-27,3,0
1417,-136,-84,1019,-17,-74,-12
1418,362,-116,1101,1,-87,-4
1419,499,-77,1052,16,-27,4
1420,241,29,1007,14,49,14
1421,-215,82,932,-3,79,23
1422,-509,52,861,-27,43,12
1423,-348,-37,946,-22,-39,-8
1424,122,-109,1075,-10,-93,-9
1425,479,-104,1090,12,-64,1
1426,420,-18,1032,17,11,7
1427,17,57,961,5,72,19
1428,-393,77,896,-15,68,22
1429,-492,8,884,-28,7,0
1430,-148,-81,1025,-15,-74,-12
1431,348,-114,1100,0,-88,-4
1432,498,-75,1053,17,-31,5
1433,255,30,1006,14,46,13
1434,-203,74,928,-6,79,23
1435,-503,54,870,-24,43,13
1436,-357,-29,944,-22,-35,-7
1437,105,-117,1065,-13,-91,-10
1438,465,-103,1088,10,-66,1
1439,429,-27,1031,16,7,7
1440,31,55,968,5,73,20
1441,-381,85,901,-12,69,21
1442,-488,14,881,-29,8,0
1443,-170,-79,1017,-16,-70,-12
1444,329,-113,1097,-2,-90,-5
1445,498,-74,1057,16,-32,4
1446,266,17,1006,12,44,13
1447,-184,77,932,-2,79,21
1448,-498,61,874,-25,47,13
1449,-370,-38,937,-25,-33,-7
1450,85,-106,1071,-10,-90,-10
1451,457,-106,1088,7,-68,1
1452,434,-31,1032,19,4,7
1453,44,52,966,5,70,18
1454,-362,83,905,-10,70,22
1455,-491,15,884,-30,10,2
1456,-183,-81,1015,-17,-67,-13
1457,311,-109,1098,-2,-90,-5
1458,495,-78,1055,14,-36,3
1459,282,14,1010,15,40,12
1460,-169,75,935,-4,79,23
1461,-484,58,884,-23,49,16
1462,-380,-33,927,-25,-30,-6
1463,65,-102,1065,-9,-89,-10
1464,451,-107,1089,5,-71,0
1465,440,-37,1034,19,1,7
1466,59,55,973,10,68,18
1467,-345,85,905,-11,72,22
1468,-493,14,875,-29,15,4
1469,-200,-67,1011,-17,-66,-11
1470,298,-111,1098,-3,-91,-5
1471,490,-86,1055,12,-37,4
1472,293,16,1011,17,38,11
1473,-152,74,933,-4,79,22
1474,-478,56,886,-21,50,14
1475,-393,-22,928,-24,-27,-6
1476,48,-97,1062,-10,-88,-11
1477,440,-111,1087,5,-72,0
1478,445,-34,1033,19,-2,6
1479,77,51,979,8,66,18
1480,-329,81,905,-12,74,23
1481,-499,23,878,-25,16,4
1482,-215,-66,1001,-18,-63,-10
1483,280,-117,1096,-4,-92,-5
1484,487,-88,1057,12,-41,3
1485,311,12,1015,21,35,12
1486,-134,71,938,-2,79,22
1487,-470,66,889,-19,52,16
1488,-409,-19,918,-27,-24,-4
1489,26,-101,1057,-11,-87,-11
1490,430,-109,1091,5,-74,-1
1491,452,-41,1036,18,-3,6
1492,97,47,984,8,65,17
1493,-316,78,904,-11,75,22
1494,-503,29,878,-27,18,5
1495,-231,-65,994,-20,-60,-11
1496,261,-116,1095,-2,-92,-7
1497,484,-83,1057,10,-44,2
1498,327,5,1016,18,34,10
1499,-114,68,942,-3,78,23
1500,-464,70,890,-17,56,16
1501,-417,-17,913,-27,-21,-5
1502,4,-99,1050,-12,-86,-11
1503,423,-112,1091,5,-76,-3
1504,467,-42,1040,17,-6,6
1505,116,40,989,10,62,17
1506,-300,82,908,-10,75,22
1507,-504,33,872,-26,22,7
1508,-253,-66,984,-20,-59,-11
1509,244,-110,1098,-3,-92,-8
1510,483,-89,1061,12,-46,3
1511,343,1,1022,19,31,11
1512,-95,69,946,0,78,22
1513,-455,69,886,-18,59,17
1514,-432,-15,911,-27,-18,-5
1515,-19,-99,1047,-10,-83,-13
1516,412,-105,1095,5,-79,-2
1517,472,-50,1041,17,-9,5
1518,138,38,992,11,60,17
1519,-290,85,914,-9,76,23
1520,-507,27,870,-27,25,7
1521,-264,-59,978,-22,-55,-10
1522,223,-110,1092,-1,-91,-9
1523,485,-94,1065,9,-49,2
1524,358,-3,1023,20,29,10
1525,-81,69,952,0,76,21
1526,-450,72,888,-17,59,18
1527,-441,-8,908,-28,-16,-3
1528,-42,-93,1038,-12,-83,-11
1529,411,-112,1099,4,-81,-2
1530,476,-60,1043,15,-12,5
1531,153,38,1001,15,60,15
1532,-277,82,913,-13,77,23
1533,-512,31,864,-26,28,9
1534,-283,-53,974,-22,-55,-11
1535,210,-108,1093,-2,-93,-9
1536,487,-101,1067,8,-53,3
1537,372,0,1023,21,26,10
1538,-61,64,954,-1,75,21
1539,-448,69,888,-17,63,19
1540,-452,-9,904,-27,-13,-3
1541,-59,-89,1035,-13,-81,-12
1542,399,-112,1097,5,-81,-2
1543,484,-60,1042,14,-16,5
1544,171,40,1006,16,58,15
1545,-267,81,918,-12,76,24
1546,-513,42,865,-22,32,8
1547,-294,-49,966,-24,-52,-11
1548,193,-118,1087,-4,-91,-8
1549,486,-99,1079,7,-54,2
1550,381,-10,1023,19,24,9
1551,-50,60,954,2,74,21
1552,-441,76,887,-17,64,19
1553,-459,0,897,-27,-10,-2
1554,-73,-90,1035,-16,-80,-11
1555,395,-114,1100,5,-83,-3
1556,490,-58,1047,13,-19,6
1557,185,36,1005,15,57,14
1558,-256,77,916,-10,76,23
1559,-519,44,864,-23,34,9
1560,-307,-53,965,-26,-50,-10
1561,179,-111,1084,-5,-92,-7
1562,485,-98,1078,9,-56,1
1563,394,-11,1025,18,21,10
1564,-36,65,962,4,76,21
1565,-436,78,889,-20,65,18
1566,-469,4,895,-26,-8,-1
1567,-93,-93,1022,-17,-79,-12
1568,388,-118,1103,3,-82,-3
1569,495,-63,1051,14,-20,5
1570,198,30,1006,13,56,15
1571,-249,82,918,-7,78,22
1572,-515,48,858,-24,35,10
1573,-317,-47,961,-23,-47,-9
1574,169,-111,1084,-4,-93,-9
1575,485,-95,1086,11,-59,2
1576,400,-20,1023,17,19,9
1577,-24,64,962,4,74,19
1578,-429,78,887,-17,65,19
1579,-478,-1,891,-27,-3,0
1580,-107,-86,1026,-13,-79,-12
1581,384,-109,1102,4,-85,-4
1582,496,-68,1049,14,-23,6
1583,214,36,1010,16,54,14
1584,-240,86,925,-7,77,23
1585,-517,44,862,-27,38,11
1586,-328,-47,955,-21,-44,-9
1587,150,-115,1074,-6,-91,-10
1588,487,-108,1089,11,-60,2
1589,404,-18,1032,20,15,8
1590,-9,66,964,6,75,19
1591,-418,83,895,-16,67,20
1592,-480,6,888,-28,-2,-2
1593,-120,-84,1023,-20,-77,-11
1594,374,-113,1103,3,-86,-4
1595,494,-75,1051,11,-26,4
1596,223,31,1005,16,52,13
1597,-228,78,926,-7,77,23
1598,-513,46,862,-25,41,12
1599,-337,-37,957,-22,-42,-8
1600,140,-111,1074,-7,-92,-9
1601,481,-104,1089,9,-62,2
1602,412,-15,1026,18,13,7
1603,1,64,966,6,72,19
1604,-411,77,893,-18,67,19
1605,-484,4,888,-27,2,0
1606,-133,-84,1025,-18,-74,-11
1607,363,-120,1102,3,-86,-4
1608,498,-73,1052,15,-27,4
1609,234,34,1004,16,48,14
1610,-219,77,929,-7,78,23
1611,-511,57,865,-22,42,11
1612,-342,-34,948,-23,-40,-9
1613,127,-114,1074,-8,-92,-9
1614,477,-106,1089,9,-63,0
1615,421,-23,1033,17,11,8
1616,11,55,963,5,74,20
1617,-402,82,895,-14,67,20
1618,-488,11,886,-27,4,0
1619,-145,-84,1021,-19,-73,-11
1620,354,-114,1102,2,-89,-5
1621,498,-72,1055,15,-30,3
1622,250,23,1004,16,48,13
1623,-205,79,931,-4,79,23
1624,-508,59,866,-23,44,13
1625,-352,-37,949,-22,-37,-9
1626,110,-111,1069,-10,-91,-9
1627,470,-106,1087,10,-65,1
1628,423,-27,1032,16,8,8
1629,21,56,963,8,72,19
1630,-386,83,901,-15,69,23
1631,-488,15,883,-25,6,1
1632,-156,-86,1021,-19,-71,-13
1633,339,-108,1103,2,-89,-5
1634,496,-78,1052,12,-32,4
1635,260,18,1006,14,45,12
1636,-196,81,929,-4,79,22
1637,-500,56,874,-26,44,14
1638,-363,-35,940,-22,-34,-7
1639,97,-107,1067,-11,-91,-10
1640,465,-101,1089,10,-66,0
1641,434,-30,1030,15,5,7
1642,36,54,968,7,72,18
1643,-372,85,905,-14,70,21
1644,-490,11,884,-27,11,3
1645,-173,-78,1015,-17,-68,-11
1646,327,-110,1096,-2,-90,-6
1647,496,-83,1056,13,-34,4
1648,272,19,1006,16,42,11
1649,-181,79,941,-1,79,22
1650,-493,50,867,-25,47,14
1651,-376,-27,940,-20,-31,-6
1652,81,-103,1068,-11,-91,-11
1653,460,-111,1085,8,-71,1
1654,431,-27,1038,17,4,7
1655,51,54,962,7,70,19
1656,-360,83,908,-12,71,23
1657,-493,11,874,-29,12,2
1658,-180,-76,1018,-16,-68,-11
1659,312,-114,1098,-3,-91,-5
1660,494,-83,1057,15,-35,4
1661,280,23,1009,16,40,13
1662,-167,76,934,-2,79,23
1663,-488,58,882,-23,49,15
1664,-382,-25,928,-24,-29,-7
1665,67,-106,1070,-11,-90,-11
1666,452,-110,1082,7,-70,0
1667,439,-35,1037,18,1,8
1668,61,53,973,8,69,18
1669,-348,80,899,-12,71,21
1670,-496,24,881,-27,13,4
1671,-194,-73,1005,-17,-64,-10
1672,299,-116,1103,-2,-92,-4
1673,491,-78,1059,15,-38,4
1674,292,19,1007,15,39,12
1675,-154,69,937,-3,79,23
1676,-480,66,887,-20,50,15
1677,-393,-23,919,-24,-27,-7
1678,49,-109,1065,-12,-88,-11
1679,443,-109,1092,7,-72,-1
1680,446,-34,1028,16,-1,6
1681,79,42,974,7,66,17
1682,-335,82,913,-8,73,21
1683,-496,25,871,-27,16,3
1684,-208,-69,1005,-18,-63,-10
1685,281,-111,1100,-4,-92,-6
1686,489,-80,1050,12,-40,3
1687,309,12,1014,15,36,11
1688,-139,70,942,1,81,21
1689,-471,61,884,-22,53,15
1690,-404,-21,922,-23,-24,-5
1691,28,-101,1059,-10,-86,-12
1692,434,-106,1088,4,-73,-1
1693,451,-39,1035,21,-2,7
1694,93,45,983,4,65,17
1695,-320,86,903,-5,74,23
1696,-500,27,873,-32,17,6
1697,-229,-72,996,-15,-60,-11
1698,265,-111,1096,-7,-92,-7
1699,486,-89,1060,14,-42,3
1700,321,5,1017,17,33,11
1701,-123,71,936,-1,78,20
1702,-462,63,892,-21,54,17
1703,-416,-16,921,-26,-22,-6
1704,14,-97,1053,-10,-85,-11
1705,423,-109,1088,3,-77,-1
1706,456,-43,1037,19,-6,6
1707,108,46,989,7,63,17
1708,-307,82,908,-9,74,23
1709,-502,22,874,-30,22,6
1710,-243,-64,992,-17,-59,-11
1711,250,-112,1095,-6,-93,-7
1712,486,-92,1055,12,-45,2
1713,334,5,1021,20,32,11
1714,-101,75,946,0,78,23
1715,-461,66,889,-19,57,17
1716,-424,-13,911,-28,-21,-5
1717,-4,-92,1052,-11,-84,-11
1718,417,-116,1091,2,-78,-3
1719,466,-51,1039,20,-7,5
1720,121,47,992,10,62,16
1721,-295,74,905,-9,75,23
1722,-506,33,877,-25,23,8
1723,-257,-55,984,-19,-58,-11
1724,236,-114,1091,-6,-92,-6
1725,484,-88,1064,12,-48,2
1726,349,2,1020,20,30,9
1727,-90,65,948,-2,78,23
1728,-459,68,888,-18,58,18
1729,-437,-11,909,-27,-18,-4
1730,-27,-93,1045,-12,-84,-11
1731,414,-117,1093,3,-80,-2
1732,472,-50,1037,17,-11,5
1733,142,43,1002,11,60,16
1734,-285,80,914,-8,75,23
1735,-514,36,870,-26,27,7
1736,-271,-59,973,-22,-55,-10
1737,217,-112,1090,-6,-91,-6
1738,485,-94,1069,9,-50,2
1739,359,-1,1024,22,27,9
1740,-71,60,948,-3,76,22
1741,-452,74,889,-15,61,18
1742,-444,-2,907,-27,-16,-3
1743,-48,-94,1037,-12,-81,-12
1744,405,-109,1099,3,-81,-3
1745,483,-55,1039,16,-13,5
1746,160,31,999,12,59,16
1747,-275,87,918,-7,76,23
1748,-512,43,870,-24,29,8
1749,-286,-61,970,-25,-53,-11
1750,204,-112,1089,-4,-91,-8
1751,485,-93,1070,6,-53,3
1752,373,-11,1025,19,25,10
1753,-59,67,955,1,76,21
1754,-446,75,885,-17,62,18
1755,-452,-5,901,-28,-12,-3
1756,-63,-89,1032,-14,-80,-12
1757,400,-109,1106,2,-82,-3
1758,486,-65,1042,12,-15,6
1759,172,35,1001,14,58,15
1760,-264,86,916,-10,76,24
1761,-515,39,867,-24,33,9
1762,-296,-55,968,-24,-51,-10
1763,188,-110,1086,-5,-92,-8
1764,490,-100,1077,9,-54,2
1765,386,-7,1025,21,25,9
1766,-48,66,956,1,76,21
1767,-438,76,889,-17,62,19
1768,-466,0,901,-25,-10,-2
1769,-79,-92,1027,-15,-81,-12
1770,398,-117,1099,3,-84,-3
1771,488,-68,1044,13,-19,5
1772,186,36,1010,17,57,14
1773,-255,83,920,-11,76,23
1774,-518,41,862,-24,35,9
1775,-308,-44,962,-22,-50,-10
1776,179,-113,1085,-7,-91,-8
1777,489,-103,1082,10,-57,3
1778,392,-11,1021,20,22,9
1779,-33,67,965,4,74,20
1780,-433,77,887,-20,64,20
1781,-474,-1,891,-26,-6,-2
1782,-93,-92,1025,-17,-79,-12
1783,391,-117,1106,3,-84,-3
1784,491,-64,1049,15,-20,5
1785,203,36,1006,16,55,14
1786,-248,80,921,-11,78,23
1787,-516,47,862,-24,36,11
1788,-319,-44,963,-23,-47,-9
1789,165,-119,1075,-9,-92,-9
1790,486,-97,1086,12,-58,2
1791,401,-11,1027,16,18,10
1792,-21,62,965,4,75,19
1793,-429,78,890,-18,65,19
1794,-475,0,892,-26,-3,0
1795,-104,-92,1023,-18,-78,-11
1796,383,-116,1100,5,-85,-4
1797,494,-62,1051,15,-22,5
1798,212,33,1007,17,53,14
1799,-239,82,924,-8,78,23
1800,-519,50,859,-27,38,10
1801,-324,-47,960,-22,-46,-9
1802,155,-118,1077,-8,-91,-9
1803,485,-101,1086,12,-60,2
1804,404,-12,1031,14,16,9
1805,-11,60,961,5,75,20
1806,-423,85,891,-17,66,21
1807,-479,7,894,-29,-2,0
1808,-116,-91,1027,-18,-78,-13
1809,372,-113,1098,4,-86,-4
1810,499,-68,1052,12,-25,6
1811,223,28,1008,15,52,13
1812,-233,78,927,-7,79,23
1813,-513,47,860,-24,39,11
1814,-339,-42,955,-22,-42,-9
1815,143,-112,1072,-8,-91,-10
1816,482,-99,1091,13,-62,1
1817,411,-18,1031,15,14,7
1818,-2,63,967,7,74,19
1819,-412,82,894,-18,67,20
1820,-481,0,880,-28,1,0
1821,-132,-85,1024,-18,-76,-12
1822,366,-114,1102,3,-87,-4
1823,496,-75,1052,13,-28,5
1824,235,30,1006,15,50,14
1825,-221,85,927,-5,79,24
1826,-512,54,860,-27,42,13
1827,-343,-40,954,-22,-40,-9
1828,128,-112,1071,-10,-92,-10
1829,482,-107,1090,10,-64,1
1830,416,-23,1028,15,12,8
1831,8,61,964,8,73,19
1832,-403,78,899,-17,69,22
1833,-488,5,882,-28,4,0
1834,-141,-87,1022,-14,-75,-12
1835,358,-113,1103,1,-88,-3
1836,498,-75,1052,15,-29,4
1837,248,29,1005,17,48,13
1838,-210,84,932,-4,80,22
1839,-509,54,860,-26,43,13
1840,-352,-32,947,-19,-38,-9
1841,115,-113,1072,-12,-92,-10
1842,474,-109,1091,10,-65,2
1843,421,-25,1031,16,10,7
1844,20,57,961,8,72,19
1845,-392,80,899,-14,68,22
1846,-486,15,885,-27,8,1
1847,-154,-81,1021,-15,-71,-12
1848,341,-114,1099,-1,-89,-4
1849,496,-72,1052,15,-31,4
1850,257,28,1007,14,45,11
1851,-199,74,928,-4,80,22
1852,-503,51,868,-27,44,13
1853,-358,-32,947,-22,-35,-8
1854,100,-110,1066,-11,-91,-10
1855,466,-104,1087,12,-66,1
1856,423,-25,1030,17,7,7
1857,31,55,967,6,72,19
1858,-381,85,905,-15,70,22
1859,-489,14,880,-28,8,2
1860,-163,-82,1018,-18,-71,-12
1861,329,-117,1100,0,-89,-5
1862,499,-76,1058,15,-33,3
1863,263,20,1006,13,43,12
1864,-188,77,931,-3,80,23
1865,-496,60,873,-24,45,15
1866,-368,-33,940,-23,-34,-7
1867,88,-111,1070,-11,-90,-11
1868,458,-104,1086,10,-67,0
1869,435,-31,1034,17,4,8
1870,39,56,966,8,70,18
1871,-367,84,904,-12,71,21
1872,-492,16,883,-29,12,2
1873,-180,-81,1014,-18,-67,-12
1874,321,-110,1100,-2,-90,-5
1875,492,-78,1055,15,-34,3
1876,277,15,1007,14,41,12
1877,-177,77,934,-1,80,21
1878,-492,58,876,-25,48,14
1879,-376,-31,933,-22,-30,-6
1880,78,-104,1064,-10,-89,-10
1881,455,-108,1088,6,-70,0
1882,440,-34,1032,17,3,7
1883,53,55,970,6,69,18
1884,-354,86,908,-13,71,23
1885,-495,15,878,-29,12,3
1886,-193,-75,1008,-16,-66,-11
1887,308,-113,1103,-3,-92,-5
1888,492,-88,1054,12,-37,3
1889,290,16,1011,18,39,10
1890,-157,78,933,-2,81,23
1891,-483,62,884,-23,49,15
1892,-389,-22,932,-23,-29,-8
1893,56,-102,1063,-10,-89,-12
1894,450,-114,1084,5,-72,0
1895,443,-35,1034,18,0,5
1896,71,52,975,7,66,17
1897,-341,81,908,-10,73,22
1898,-498,19,876,-28,14,4
1899,-204,-70,1003,-17,-63,-10
1900,291,-114,1101,-5,-92,-6
1901,489,-87,1056,12,-39,4
1902,301,16,1014,19,37,11
1903,-145,73,937,-4,80,22
1904,-472,60,884,-21,52,16
1905,-398,-16,926,-24,-27,-6
1906,38,-104,1059,-11,-88,-11
1907,440,-110,1091,5,-74,1
1908,448,-35,1034,18,-1,7
1909,88,48,979,9,65,17
1910,-327,80,909,-9,75,22
1911,-502,24,874,-28,17,4
1912,-221,-66,999,-19,-62,-11
1913,271,-116,1093,-4,-92,-6
1914,489,-83,1057,13,-42,3
1915,317,11,1018,18,36,11
1916,-125,66,940,-3,78,22
1917,-469,68,890,-17,54,16
1918,-411,-14,921,-27,-25,-5
1919,19,-100,1050,-12,-87,-11
1920,430,-106,1094,4,-77,-2
1921,458,-46,1035,17,-3,6
1922,105,39,985,8,64,18
1923,-312,80,913,-10,75,22
1924,-505,28,870,-26,20,5
1925,-237,-66,990,-20,-59,-10
1926,250,-113,1098,-2,-92,-8
1927,487,-84,1059,13,-44,3
1928,332,7,1017,17,32,11
1929,-109,69,941,-1,79,21
1930,-461,72,893,-19,55,16
1931,-422,-17,916,-26,-21,-5
1932,-3,-101,1049,-13,-85,-11
1933,418,-110,1092,4,-77,-1
1934,467,-48,1039,15,-8,7
1935,119,44,992,13,62,16
1936,-299,86,910,-8,76,23
1937,-503,28,873,-27,23,8
1938,-255,-59,983,-20,-57,-11
1939,238,-110,1092,-4,-91,-9
1940,485,-91,1061,9,-47,4
1941,345,0,1020,19,30,10
1942,-94,68,948,-1,77,21
1943,-456,74,894,-17,58,18
1944,-436,-11,908,-28,-18,-4
1945,-24,-94,1042,-12,-83,-11
1946,415,-111,1096,5,-80,-2
1947,472,-56,1040,15,-9,6
1948,144,41,998,13,61,16
1949,-287,83,912,-10,75,23
1950,-512,30,867,-24,27,7
1951,-273,-55,980,-21,-55,-11
1952,219,-112,1093,-3,-92,-9
1953,491,-95,1066,8,-50,3
1954,365,0,1023,20,29,10
1955,-75,68,951,-2,77,21
1956,-451,71,890,-17,60,17
1957,-449,-7,905,-27,-14,-4
1958,-50,-93,1034,-13,-82,-13
1959,407,-116,1097,2,-81,-3
1960,481,-57,1043,16,-13,5
1961,164,37,1003,14,59,15
1962,-271,80,913,-11,77,23
1963,-515,40,865,-25,30,7
1964,-287,-49,968,-21,-54,-11
1965,200,-114,1092,-4,-91,-7
1966,486,-101,1073,8,-54,2
1967,380,-4,1028,23,25,9
1968,-53,58,954,0,75,21
1969,-443,74,888,-15,62,17
1970,-460,-1,898,-27,-11,-2
1971,-69,-89,1030,-16,-80,-10
1972,397,-115,1100,5,-82,-3
1973,490,-58,1044,15,-18,6
1974,187,38,1011,16,56,16
1975,-260,80,917,-10,77,24
1976,-517,47,863,-23,33,8
1977,-301,-53,963,-25,-51,-10
1978,181,-117,1080,-6,-91,-8
1979,487,-99,1080,10,-55,2
1980,390,-9,1026,19,21,9
1981,-38,61,959,2,76,21
1982,-437,83,889,-15,65,19
1983,-466,1,897,-26,-9,-2
1984,-88,-94,1026,-18,-79,-11
1985,392,-112,1101,5,-84,-3
1986,495,-66,1050,12,-20,5
1987,199,28,1006,13,55,14
1988,-252,83,920,-8,76,23
1989,-517,44,861,-24,37,10
1990,-317,-45,962,-24,-47,-10
1991,168,-114,1080,-6,-91,-10
1992,485,-95,1084,10,-58,2
1993,403,-17,1029,18,20,9
1994,-24,66,963,5,75,19
1995,-431,80,890,-18,66,19
1996,-476,-2,891,-26,-4,-2
1997,-112,-91,1024,-16,-77,-12
1998,383,-114,1100,4,-85,-4
1999,500,-71,1053,13,-23,6
2000,214,33,1008,17,54,14
2001,-237,84,924,-7,77,23
2002,-516,48,862,-25,39,10
2003,-332,-40,954,-22,-44,-9
2004,150,-113,1076,-8,-92,-10
2005,487,-104,1090,8,-60,1
2006,409,-21,1025,17,16,9
2007,-6,65,966,6,74,20
2008,-420,78,892,-19,67,21
2009,-480,0,888,-26,0,0
2010,-129,-85,1024,-15,-76,-12
2011,374,-113,1101,3,-87,-3
2012,499,-70,1053,16,-26,5
2013,231,33,1005,17,51,13
2014,-221,80,927,-8,78,24
2015,-516,48,866,-26,42,13
2016,-341,-39,952,-23,-41,-10
2017,129,-112,1070,-8,-91,-9
2018,481,-111,1091,8,-64,1
2019,417,-21,1031,18,13,7
2020,6,58,965,7,74,19
2021,-403,79,897,-17,67,21
2022,-489,14,885,-26,4,1
2023,-143,-82,1020,-17,-75,-12
2024,357,-112,1101,1,-88,-4
2025,499,-77,1053,13,-29,4
2026,251,24,1005,16,48,13
2027,-211,75,932,-5,79,22
2028,-507,55,863,-25,44,12
2029,-357,-30,945,-23,-37,-9
2030,111,-116,1065,-10,-94,-11
2031,472,-102,1093,15,-67,-1
2032,425,-26,1031,19,10,6
2033,25,60,965,3,72,19
2034,-391,82,900,-6,72,20
2035,-490,13,883,-34,7,1
2036,-163,-78,1022,-14,-72,-11
2037,335,-119,1095,-4,-89,-5
2038,502,-75,1055,17,-33,5
2039,262,20,1007,14,44,12
2040,-191,73,930,-3,81,22
2041,-499,63,877,-20,47,13
2042,-370,-30,939,-26,-34,-7
2043,88,-107,1063,-6,-92,-9
2044,462,-104,1087,7,-68,0
2045,434,-30,1032,19,4,7
2046,40,51,968,3,70,18
2047,-367,82,905,-10,71,21
2048,-495,13,880,-32,11,3
2049,-182,-83,1012,-14,-67,-10
2050,315,-111,1099,-1,-91,-6
2051,494,-79,1055,14,-35,4
2052,280,17,1008,14,42,12
2053,-171,79,935,-1,81,23
2054,-487,58,875,-23,49,15
2055,-380,-26,936,-24,-30,-7
2056,63,-101,1064,-10,-89,-11
2057,449,-109,1086,5,-71,1
2058,442,-37,1032,19,1,8
2059,59,50,972,5,68,19
2060,-344,80,908,-8,73,22
2061,-498,25,883,-29,14,5
2062,-203,-73,1002,-16,-65,-11
2063,294,-111,1096,-4,-91,-6
2064,493,-84,1056,14,-39,3
2065,299,14,1016,16,37,11
2066,-145,76,935,-2,80,22
2067,-477,60,888,-22,51,17
2068,-399,-26,923,-27,-27,-6
2069,43,-100,1061,-7,-88,-10
2070,439,-113,1091,2,-74,0
2071,446,-41,1032,19,-2,5
2072,85,51,979,7,66,16
2073,-326,81,909,-9,74,23
2074,-502,21,875,-28,17,4
2075,-222,-64,999,-19,-62,-11
2076,273,-116,1096,-5,-93,-7
2077,489,-87,1058,14,-41,3
2078,316,11,1017,19,35,11
2079,-124,67,938,-5,78,23
2080,-470,64,888,-17,55,17
2081,-414,-16,919,-27,-22,-6
2082,12,-100,1051,-11,-85,-11
2083,429,-114,1091,5,-76,-1
2084,459,-41,1037,19,-4,5
2085,109,44,987,7,63,17
2086,-306,82,914,-9,75,23
2087,-505,30,870,-26,20,6
2088,-244,-63,985,-20,-59,-10
2089,246,-119,1097,-4,-92,-7
2090,489,-95,1056,10,-46,2
2091,341,4,1024,22,32,10
2092,-97,64,943,-3,77,22
2093,-461,70,889,-17,58,17
2094,-436,-10,914,-27,-20,-5
2095,-14,-99,1042,-13,-83,-13
2096,411,-108,1098,5,-79,-3
2097,470,-48,1036,15,-9,6
2098,137,37,994,11,61,17
2099,-289,78,911,-11,76,23
2100,-506,33,874,-25,26,9
2101,-268,-61,980,-22,-55,-9
2102,220,-114,1089,-2,-92,-7
2103,487,-90,1062,9,-49,2
2104,361,2,1026,21,29,10
2105,-76,64,948,-1,77,22
2106,-451,81,893,-16,60,19
2107,-445,-12,906,-29,-16,-4
2108,-41,-95,1036,-15,-82,-10
2109,406,-110,1100,5,-80,-2
2110,479,-58,1042,15,-13,5
2111,161,29,998,13,60,16
2112,-279,88,917,-9,77,23
2113,-514,38,864,-25,29,7
2114,-284,-56,969,-22,-54,-9
2115,201,-105,1090,-3,-92,-8
2116,491,-99,1071,7,-54,1
2117,383,-8,1025,20,27,9
2118,-54,69,958,2,78,20
2119,-444,76,889,-20,62,19
2120,-464,-4,901,-26,-11,-3
2121,-71,-96,1024,-16,-80,-12
2122,401,-114,1104,5,-84,-2
2123,491,-63,1045,14,-16,5
2124,189,34,1007,18,57,13
2125,-262,89,922,-9,77,23
2126,-519,42,861,-25,33,8
2127,-310,-47,964,-24,-51,-11
2128,177,-108,1081,-7,-92,-9
2129,495,-105,1082,9,-57,2
2130,393,-12,1024,18,22,9
2131,-33,64,962,3,75,21
2132,-435,75,892,-17,66,20
2133,-474,-1,893,-26,-7,-3
2134,-99,-87,1024,-16,-79,-12
2135,391,-114,1104,4,-84,-2
2136,493,-67,1046,16,-22,5
2137,206,34,1010,16,54,14
2138,-243,79,920,-8,78,24
2139,-522,47,862,-25,38,10
2140,-322,-42,957,-22,-47,-10
2141,161,-112,1076,-8,-93,-9
2142,485,-104,1086,10,-59,2
2143,405,-17,1027,15,17,8
2144,-11,61,966,4,75,21
2145,-424,73,888,-16,66,20
2146,-482,8,892,-26,-2,-1
2147,-119,-87,1021,-18,-78,-12
2148,377,-115,1100,3,-86,-4
2149,497,-66,1054,16,-24,5
2150,227,28,1007,13,52,15
2151,-230,80,929,-7,79,23
2152,-518,51,861,-26,40,12
2153,-337,-40,950,-21,-42,-9
2154,136,-115,1077,-11,-94,-10
2155,481,-107,1085,13,-62,1
2156,415,-20,1029,16,12,9
2157,1,58,965,6,73,20
2158,-410,82,897,-15,66,21
2159,-486,14,888,-26,3,0
2160,-138,-86,1019,-18,-75,-12
2161,359,-113,1101,1,-87,-5
2162,499,-68,1053,15,-28,5
2163,245,19,1003,12,49,14
2164,-215,77,930,-4,80,23
2165,-507,51,864,-27,42,12
2166,-355,-38,950,-19,-38,-8
2167,116,-110,1071,-10,-92,-10
2168,476,-100,1088,12,-65,2
2169,425,-23,1033,16,8,8
2170,22,53,962,7,73,18
2171,-388,89,902,-14,69,22
2172,-487,16,883,-28,7,2
2173,-162,-86,1019,-19,-71,-11
2174,340,-112,1099,-1,-90,-4
2175,497,-81,1057,16,-33,4
2176,262,12,1004,14,46,11
2177,-195,81,933,-1,81,24
2178,-498,58,869,-25,45,14
2179,-368,-28,940,-20,-34,-7
2180,92,-106,1069,-13,-91,-10
2181,461,-107,1087,10,-67,1
2182,434,-33,1033,18,5,8
2183,39,54,966,7,72,18
2184,-370,85,907,-14,71,22
2185,-494,14,883,-30,10,2
2186,-181,-78,1011,-15,-68,-13
2187,319,-112,1096,-3,-91,-6
2188,497,-83,1055,14,-34,4
2189,277,17,1006,14,41,11
2190,-168,79,933,0,80,22
2191,-491,61,882,-26,48,14
2192,-383,-24,929,-23,-30,-7
2193,66,-100,1067,-12,-90,-11
2194,452,-113,1087,6,-71,0
2195,442,-37,1033,17,0,8
2196,61,52,973,6,69,18
2197,-344,78,907,-11,72,22
2198,-499,20,877,-30,14,4
2199,-204,-68,1008,-18,-65,-13
2200,297,-119,1093,-5,-93,-5
2201,490,-81,1055,15,-39,4
2202,301,11,1013,16,37,10
2203,-144,71,935,-1,80,22
2204,-478,65,884,-19,52,15
2205,-401,-20,925,-25,-25,-5
2206,39,-100,1057,-11,-88,-11
2207,437,-112,1088,4,-74,-1
2208,450,-39,1036,19,-2,7
2209,91,45,977,6,64,17
2210,-325,80,910,-9,75,22
2211,-505,28,876,-28,18,5
2212,-222,-66,992,-17,-62,-11
2213,264,-114,1098,-4,-93,-5
2214,488,-87,1052,14,-42,2
2215,326,10,1020,19,33,11
2216,-120,66,937,0,79,22
2217,-463,69,893,-18,55,16
2218,-420,-15,918,-29,-22,-5
2219,5,-104,1050,-12,-85,-11
2220,424,-109,1093,4,-76,-1
2221,462,-44,1035,19,-6,7
2222,114,40,989,8,63,17
2223,-304,86,914,-9,76,22
2224,-507,30,870,-28,21,7
2225,-250,-64,986,-19,-58,-10
2226,246,-113,1097,-4,-92,-7
2227,488,-90,1061,10,-46,4
2228,346,0,1023,19,31,10
2229,-97,68,944,-2,78,21
2230,-462,71,891,-17,59,17
2231,-432,-14,911,-29,-19,-5
2232,-21,-94,1045,-11,-84,-12
2233,417,-112,1095,1,-79,-2
2234,478,-55,1039,17,-10,6
2235,141,36,996,11,60,17
2236,-285,84,913,-6,77,22
2237,-511,38,868,-26,27,7
2238,-272,-59,975,-22,-55,-11
2239,217,-106,1092,-2,-94,-9
2240,492,-99,1065,7,-51,3
2241,366,-2,1026,21,28,10
2242,-70,66,953,-1,75,21
2243,-452,71,890,-15,61,18
2244,-451,-3,905,-28,-15,-3
2245,-53,-94,1029,-14,-82,-12
2246,408,-111,1101,3,-81,-1
2247,487,-61,1044,17,-13,6
2248,168,37,1006,13,59,15
2249,-270,88,918,-10,77,23
2250,-517,34,863,-25,31,8
2251,-296,-49,970,-23,-53,-11
2252,197,-114,1085,-4,-92,-9
2253,488,-103,1073,9,-55,2
2254,381,-8,1024,20,25,9
2255,-49,63,961,2,75,21
2256,-444,78,891,-14,63,19
2257,-464,0,895,-26,-10,-2
2258,-77,-89,1028,-15,-81,-11
2259,397,-117,1105,3,-84,-2
2260,491,-58,1044,16,-19,5
2261,193,37,1006,15,57,14
2262,-255,78,927,-9,78,23
2263,-522,44,862,-24,35,10
2264,-309,-51,956,-23,-49,-10
2265,176,-113,1086,-4,-92,-8
2266,492,-103,1083,9,-57,2
2267,393,-7,1020,20,21,8
2268,-28,63,967,2,74,21
2269,-434,77,890,-16,65,19
2270,-476,7,892,-27,-5,-1
2271,-96,-90,1027,-18,-79,-13
2272,386,-116,1101,4,-84,-3
2273,493,-67,1048,12,-22,4
2274,209,28,1009,16,53,14
2275,-244,80,925,-8,78,23
2276,-519,51,861,-22,38,11
2277,-326,-43,957,-24,-46,-9
2278,155,-114,1073,-6,-92,-8
2279,485,-98,1087,10,-60,1
2280,411,-18,1029,17,16,8
2281,-8,58,962,4,75,20
2282,-423,84,892,-17,66,20
2283,-482,5,891,-28,-1,0
2284,-123,-91,1023,-18,-78,-12
2285,374,-112,1100,4,-87,-4
2286,500,-68,1053,14,-26,5
2287,228,26,1003,15,52,12
2288,-225,81,930,-6,78,23
2289,-518,51,862,-24,41,11
2290,-339,-40,951,-22,-43,-8
2291,132,-109,1071,-8,-92,-10
2292,484,-105,1090,10,-63,1
2293,417,-22,1033,16,11,7
2294,5,56,960,6,74,19
2295,-404,88,900,-15,68,22
2296,-488,5,883,-26,4,0
2297,-144,-84,1021,-17,-74,-12
2298,353,-110,1104,2,-85,-4
2299,503,-77,1056,12,-30,4
2300,246,23,1004,17,49,13
2301,-207,80,933,-2,79,24
2302,-506,50,868,-26,43,13
2303,-357,-35,945,-21,-37,-9
2304,111,-111,1066,-11,-92,-11
2305,474,-105,1088,11,-65,1
2306,427,-29,1033,16,8,8
2307,23,58,965,9,73,19
2308,-386,87,906,-14,68,21
2309,-492,6,877,-29,7,3
2310,-166,-74,1022,-17,-71,-11
2311,336,-114,1097,-3,-91,-6
2312,498,-83,1055,15,-32,4
2313,267,25,1007,16,44,12
2314,-187,77,933,-3,80,23
2315,-498,57,873,-25,47,14
2316,-371,-26,938,-22,-32,-9
2317,88,-108,1068,-13,-90,-10
2318,461,-111,1086,8,-68,2
2319,435,-31,1035,18,4,7
2320,47,54,967,6,70,18
2321,-363,77,904,-12,71,23
2322,-497,20,881,-28,12,1
2323,-183,-76,1012,-17,-68,-12
2324,312,-116,1099,-3,-91,-5
2325,496,-80,1055,15,-35,3
2326,286,16,1011,14,41,12
2327,-163,72,935,-1,80,23
2328,-485,59,878,-21,48,15
2329,-390,-20,932,-23,-29,-6
2330,63,-103,1064,-11,-90,-12
2331,446,-110,1087,7,-71,-1
2332,442,-37,1036,18,2,8
2333,67,51,975,7,68,17
2334,-340,78,904,-10,73,22
2335,-498,25,878,-28,15,3
2336,-206,-71,1003,-17,-64,-13
2337,290,-114,1098,-3,-92,-6
2338,488,-80,1059,14,-38,2
2339,307,8,1013,17,37,12
2340,-141,71,937,-2,81,23
2341,-475,66,886,-19,51,16
2342,-405,-19,924,-27,-26,-6
2343,32,-107,1053,-9,-88,-12
2344,438,-111,1091,3,-75,-1
2345,453,-39,1034,18,-2,6
2346,94,39,979,6,65,17
2347,-320,88,915,-9,75,22
2348,-500,29,876,-28,18,5
2349,-231,-68,993,-19,-61,-11
2350,267,-113,1095,-3,-92,-7
2351,490,-88,1057,11,-43,4
2352,327,3,1022,18,34,12
2353,-118,67,936,-3,79,23
2354,-469,69,890,-16,55,17
2355,-423,-18,918,-29,-23,-5
2356,4,-97,1048,-11,-86,-11
2357,426,-109,1094,4,-77,-2
2358,468,-52,1037,16,-5,8
2359,116,38,993,10,63,17
2360,-302,84,911,-8,76,23
2361,-511,33,871,-25,23,6
2362,-256,-62,981,-21,-58,-12
2363,241,-108,1099,-3,-92,-8
2364,490,-95,1062,7,-47,3
2365,352,-1,1021,21,31,10
2366,-91,68,949,1,78,22
2367,-458,70,891,-11,60,17
2368,-439,-12,908,-27,-18,-6
2369,-28,-96,1041,-13,-83,-12
2370,416,-109,1098,5,-80,-2
2371,474,-58,1038,18,-10,6
2372,148,43,1001,13,60,15
2373,-287,90,915,-9,77,22
2374,-513,31,866,-30,27,7
2375,-275,-53,974,-19,-56,-11
2376,214,-114,1094,-8,-93,-7
2377,488,-103,1067,11,-51,3
2378,368,-2,1023,19,28,10
2379,-67,64,950,2,77,22
2380,-450,74,891,-19,62,18
2381,-452,-2,904,-25,-14,-4
2382,-54,-90,1035,-16,-82,-11
2383,405,-114,1102,4,-81,-2
2384,484,-58,1041,16,-13,5
2385,172,36,1007,14,59,15
2386,-266,78,914,-9,78,22
2387,-523,42,868,-24,31,7
2388,-294,-51,967,-22,-53,-12
2389,195,-114,1087,-7,-92,-8
2390,487,-100,1073,10,-54,1
2391,389,-6,1028,19,24,9
2392,-50,66,961,3,77,22
2393,-442,76,883,-18,63,19
2394,-465,2,898,-25,-9,-2
2395,-81,-91,1029,-16,-81,-12
2396,398,-117,1103,5,-84,-3
2397,492,-61,1046,15,-18,5
2398,193,27,1007,14,57,14
2399,-256,80,922,-7,78,23
2400,-522,47,862,-25,35,10
2401,-311,-53,959,-23,-50,-9
2402,171,-110,1082,-3,-92,-9
2403,493,-98,1079,11,-58,2
2404,399,-6,1029,18,21,8
2405,-30,60,958,3,76,19
2406,-432,78,890,-18,66,20
2407,-476,2,896,-28,-5,-1
2408,-101,-99,1021,-16,-79,-11
2409,385,-115,1103,7,-84,-3
2410,495,-64,1049,14,-22,6
2411,212,25,1005,16,55,15
2412,-243,89,928,-6,78,22
2413,-516,47,859,-25,38,11
2414,-328,-42,959,-24,-46,-7
2415,152,-109,1077,-7,-93,-10
2416,491,-103,1087,10,-62,1
2417,405,-20,1027,17,18,10
2418,-12,60,964,3,75,20
2419,-421,81,891,-17,67,20
2420,-485,0,887,-27,0,0
2421,-122,-89,1024,-18,-78,-11
2422,377,-113,1101,3,-87,-4
2423,500,-71,1052,12,-25,5
2424,228,27,1004,18,52,14
2425,-227,87,928,-7,79,23
2426,-520,52,863,-24,42,12
2427,-341,-41,953,-23,-41,-10
2428,135,-109,1070,-8,-91,-10
2429,484,-112,1092,8,-63,1
2430,419,-23,1029,19,13,7
2431,3,61,965,7,74,19
2432,-406,84,901,-16,67,22
2433,-488,8,881,-27,4,1
2434,-142,-77,1021,-17,-74,-12
2435,361,-113,1105,2,-88,-5
2436,499,-77,1049,12,-28,4
2437,246,25,1004,16,48,13
2438,-209,78,931,-6,79,23
2439,-511,50,865,-26,44,13
2440,-354,-34,945,-22,-38,-8
2441,113,-109,1073,-9,-93,-10
2442,473,-107,1090,9,-65,0
2443,428,-26,1027,15,9,8
2444,23,63,969,8,74,19
2445,-387,82,898,-16,70,21
2446,-492,13,881,-26,8,1
2447,-160,-81,1021,-17,-72,-13
2448,340,-120,1096,-2,-89,-5
2449,499,-77,1057,16,-32,3
2450,265,19,1004,14,44,12
2451,-194,73,932,-2,80,22
2452,-498,62,873,-24,46,14
2453,-367,-27,937,-22,-34,-8
2454,90,-106,1068,-12,-92,-10
2455,463,-104,1087,9,-68,0
2456,432,-31,1037,16,6,7
2457,42,50,968,7,71,19
2458,-368,77,904,-13,69,21
2459,-496,12,876,-28,11,3
2460,-180,-78,1018,-17,-69,-12
2461,315,-114,1097,-2,-91,-5
2462,497,-76,1054,16,-36,4
2463,280,20,1011,15,40,12
2464,-171,76,933,-2,80,21
2465,-488,63,881,-23,49,15
2466,-383,-28,934,-24,-30,-6
2467,65,-110,1060,-11,-89,-11
2468,450,-106,1092,7,-70,0
2469,444,-38,1033,17,1,8
2470,65,47,971,8,68,19
2471,-349,85,911,-8,73,22
2472,-495,17,877,-29,13,3
2473,-201,-72,1005,-15,-65,-12
2474,294,-111,1096,-4,-93,-8
2475,492,-82,1054,12,-39,3
2476,301,12,1017,15,38,10
2477,-150,73,936,-3,81,22
2478,-479,61,887,-21,51,16
2479,-401,-25,922,-29,-26,-7
2480,41,-98,1059,-9,-87,-12
2481,440,-109,1090,4,-74,-1
2482,453,-45,1032,18,-2,7
2483,82,53,981,9,66,18
2484,-325,82,907,-9,73,22
2485,-502,21,874,-28,16,5
2486,-224,-65,1002,-18,-63,-12
2487,274,-115,1097,-2,-93,-6
2488,488,-86,1056,11,-42,3
2489,321,6,1016,19,35,10
2490,-124,71,939,-1,79,21
2491,-471,65,893,-18,54,17
2492,-416,-19,917,-27,-24,-6
2493,14,-93,1052,-10,-86,-11
2494,428,-113,1092,4,-78,-1
2495,459,-44,1034,17,-3,6
2496,111,43,990,9,63,16
2497,-308,80,910,-11,75,23
2498,-505,29,873,-25,21,6
2499,-246,-60,988,-21,-59,-10
2500,250,-109,1098,-2,-93,-7
2501,487,-91,1059,9,-45,3
2502,340,4,1018,19,32,10
2503,-99,74,947,-2,78,21
2504,-456,64,887,-18,58,17
2505,-429,-12,913,-26,-19,-4
2506,-14,-95,1048,-12,-83,-12
2507,417,-116,1095,4,-78,-2
2508,470,-48,1038,17,-8,7
2509,133,43,997,13,61,16
2510,-291,79,911,-12,77,24
2511,-509,39,873,-23,25,7
2512,-264,-56,978,-21,-57,-11
2513,229,-117,1090,-4,-93,-7
2514,483,-91,1064,9,-49,3
2515,361,-4,1024,18,28,9
2516,-80,64,953,0,78,22
2517,-455,72,887,-18,59,17
2518,-443,-6,902,-23,-15,-3
2519,-43,-95,1039,-15,-82,-11
2520,411,-113,1099,5,-81,-3
2521,484,-54,1041,16,-13,6
2522,161,32,1005,13,59,15
2523,-277,83,912,-9,77,23
2524,-518,45,866,-25,30,8
2525,-288,-61,972,-24,-55,-10
2526,204,-110,1091,-4,-92,-8
2527,486,-96,1070,9,-52,2
2528,381,-12,1021,19,25,9
2529,-54,66,960,2,76,22
2530,-447,80,887,-18,63,19
2531,-459,-3,902,-25,-12,-3
2532,-72,-93,1028,-14,-80,-12
2533,404,-109,1098,6,-84,-3
2534,488,-59,1050,14,-17,5
2535,183,29,1002,13,58,15
2536,-262,86,920,-8,77,22
2537,-518,43,864,-26,33,8
2538,-304,-57,959,-24,-51,-10
2539,180,-106,1088,-4,-91,-9
2540,490,-103,1080,9,-56,1
2541,393,-14,1023,19,23,10
2542,-36,73,966,5,76,20
2543,-434,78,883,-19,65,19
2544,-470,0,896,-28,-7,-2
2545,-93,-89,1025,-15,-80,-12
2546,392,-113,1102,3,-84,-4
2547,495,-74,1046,13,-20,5
2548,204,37,1008,18,55,16
2549,-247,82,920,-9,78,23
2550,-519,41,860,-25,37,10
2551,-321,-36,962,-20,-48,-9
2552,165,-114,1074,-7,-92,-10
2553,491,-105,1085,9,-60,2
2554,404,-12,1026,19,19,8
2555,-13,59,963,4,76,20
2556,-427,81,896,-16,66,21
2557,-484,3,886,-26,-2,-1
2558,-117,-87,1027,-16,-78,-12
2559,380,-117,1100,2,-87,-3
2560,501,-70,1052,14,-25,6
2561,223,34,1007,16,53,13
2562,-230,78,925,-8,78,22
2563,-520,56,864,-23,41,11
2564,-335,-42,948,-26,-43,-9
2565,141,-114,1078,-7,-92,-8
2566,483,-105,1091,10,-61,2
2567,412,-18,1029,18,13,8
2568,2,64,965,5,74,21
2569,-413,80,893,-16,67,21
2570,-485,10,888,-26,3,0
2571,-134,-87,1024,-17,-75,-12
2572,361,-118,1095,2,-88,-4
2573,498,-68,1054,16,-28,4
2574,243,24,1005,15,47,13
2575,-216,78,931,-6,78,23
2576,-514,59,866,-24,43,11
2577,-348,-36,947,-23,-40,-10
2578,117,-113,1068,-9,-92,-11
2579,475,-104,1089,9,-64,0
2580,426,-25,1032,18,11,10
2581,19,54,966,5,73,19
2582,-395,86,900,-12,69,21
2583,-487,12,880,-28,5,1
2584,-156,-82,1021,-16,-72,-11
2585,342,-110,1098,1,-88,-5
2586,501,-76,1055,13,-31,5
2587,256,20,1010,12,45,13
2588,-195,76,929,-3,80,23
2589,-502,56,870,-26,45,14
2590,-366,-37,942,-23,-34,-8
2591,95,-105,1071,-9,-91,-11
2592,465,-102,1086,8,-67,0
2593,432,-29,1031,17,5,8
2594,37,54,966,6,72,19
2595,-372,84,905,-10,70,21
2596,-491,11,878,-31,10,2
2597,-178,-79,1015,-14,-68,-12
2598,322,-110,1100,-4,-90,-5
2599,496,-83,1053,15,-34,4
2600,277,19,1012,15,42,12
2601,-179,77,931,-3,80,22
2602,-490,55,875,-24,47,15
2603,-379,-28,933,-22,-30,-7
2604,72,-103,1067,-10,-90,-11
2605,458,-108,1086,7,-70,0
2606,436,-32,1034,19,3,7
2607,57,54,972,7,69,17
2608,-351,83,906,-12,72,22
2609,-499,10,874,-30,13,4
2610,-194,-74,1014,-16,-66,-12
2611,299,-112,1096,-5,-91,-5
2612,493,-85,1053,13,-38,4
2613,292,17,1013,17,39,12
2614,-154,75,934,-3,79,22
2615,-478,62,883,-20,50,15
2616,-395,-24,929,-26,-27,-7
2617,47,-97,1059,-11,-88,-10
2618,441,-113,1086,4,-74,1
2619,448,-36,1037,19,1,6
2620,80,49,979,7,67,18
2621,-335,81,908,-11,73,21
2622,-498,22,875,-27,17,4
2623,-218,-65,999,-18,-63,-12
2624,278,-119,1098,-4,-93,-6
2625,491,-86,1056,11,-40,2
2626,315,15,1017,19,35,10
2627,-127,64,936,-5,78,22
2628,-470,69,888,-17,54,17
2629,-416,-13,921,-27,-24,-6
2630,19,-100,1053,-12,-87,-11
2631,429,-114,1091,3,-76,0
2632,459,-45,1038,17,-5,6
2633,105,41,984,10,63,17
2634,-311,77,908,-9,75,22
2635,-507,33,874,-25,20,5
2636,-242,-62,990,-19,-59,-11
2637,255,-111,1094,-3,-92,-5
2638,486,-87,1061,11,-45,3
2639,339,1,1021,18,32,11
2640,-106,67,943,-2,78,24
2641,-464,70,891,-18,56,16
2642,-426,-13,912,-28,-21,-5
2643,-9,-98,1045,-12,-84,-10
2644,418,-111,1096,4,-78,0
2645,470,-48,1038,17,-7,5
2646,130,37,993,11,61,16
2647,-294,87,915,-7,77,23
2648,-509,39,872,-26,25,6
2649,-261,-64,978,-24,-56,-11
2650,230,-107,1096,-4,-92,-8
2651,487,-94,1062,7,-49,2
2652,358,-8,1020,19,29,10
2653,-85,66,947,0,77,21
2654,-451,70,892,-17,59,18
2655,-446,-10,911,-27,-17,-3
2656,-39,-91,1039,-10,-83,-12
2657,413,-107,1097,3,-80,-2
2658,479,-54,1042,16,-11,5
2659,154,37,1000,13,60,15
2660,-278,84,916,-10,76,24
2661,-513,33,867,-27,29,8
2662,-282,-58,971,-23,-54,-11
2663,207,-111,1091,-3,-92,-9
2664,490,-101,1072,8,-52,3
2665,370,-2,1023,21,27,10
2666,-61,68,953,-1,76,21
2667,-446,80,895,-16,62,20
2668,-456,-5,898,-29,-12,-4
2669,-59,-93,1035,-14,-82,-11
2670,403,-113,1101,4,-81,-1
2671,488,-66,1039,13,-15,6
2672,175,38,1006,17,58,16
2673,-265,85,919,-10,77,24
2674,-521,39,863,-24,34,9
2675,-300,-49,968,-23,-53,-11
2676,190,-112,1084,-4,-91,-9
2677,491,-101,1077,8,-55,3
2678,390,-8,1022,19,22,9
2679,-39,68,962,1,76,20
2680,-441,74,888,-16,64,19
2681,-469,0,895,-26,-9,-3
2682,-85,-91,1027,-18,-80,-13
2683,396,-120,1102,6,-83,-2
2684,494,-63,1048,15,-19,4
2685,199,33,1006,15,56,14
2686,-252,79,922,-9,77,23
2687,-523,52,861,-22,37,9
2688,-314,-42,958,-24,-49,-9
2689,172,-115,1084,-7,-91,-8
2690,486,-101,1083,10,-57,2
2691,400,-17,1024,18,19,10
2692,-23,57,965,4,76,21
2693,-434,76,889,-18,66,20
2694,-476,3,891,-25,-4,-2
2695,-108,-91,1028,-16,-79,-11
2696,382,-112,1099,4,-85,-5
2697,502,-65,1048,13,-24,6
2698,218,30,1008,14,54,14
2699,-239,79,927,-6,77,24
2700,-521,53,861,-26,39,11
2701,-329,-45,956,-23,-46,-9
2702,145,-111,1075,-8,-92,-11
2703,486,-107,1085,11,-60,0
2704,415,-19,1029,16,14,8
2705,-8,62,969,8,76,20
2706,-418,81,890,-20,66,19
2707,-479,10,890,-22,0,-1
2708,-129,-90,1021,-19,-76,-12
2709,368,-113,1100,2,-88,-4
2710,502,-69,1057,15,-27,5
2711,231,23,1000,12,51,14
2712,-224,80,932,-2,78,23
2713,-515,53,867,-30,42,12
2714,-344,-42,949,-20,-41,-9
2715,127,-110,1071,-11,-92,-10
2716,480,-101,1091,13,-63,2
2717,420,-23,1027,13,12,8
2718,11,60,966,9,74,21
2719,-404,85,900,-17,69,21
2720,-488,6,885,-26,4,0
2721,-149,-85,1019,-18,-73,-13
2722,356,-114,1101,2,-89,-6
2723,504,-82,1056,13,-30,3
2724,248,26,1007,17,47,12
2725,-207,80,926,-4,79,23
2726,-508,54,867,-25,44,14
2727,-358,-30,947,-21,-36,-9
2728,107,-107,1070,-11,-91,-10
2729,472,-107,1089,10,-66,1
2730,425,-27,1031,16,7,7
2731,27,59,966,8,73,19
2732,-386,79,901,-17,69,21
2733,-489,8,880,-27,8,2
2734,-161,-77,1022,-16,-71,-13
2735,333,-113,1096,-2,-89,-6
2736,499,-77,1049,15,-32,5
2737,263,26,1010,14,45,12
2738,-187,76,934,-3,79,21
2739,-498,57,876,-26,45,13
2740,-370,-31,938,-22,-32,-8
2741,89,-107,1066,-12,-91,-10
2742,460,-110,1086,9,-68,0
2743,435,-31,1032,18,5,6
2744,44,57,972,9,71,18
2745,-367,79,903,-14,70,22
2746,-493,20,881,-27,11,4
2747,-181,-74,1013,-16,-68,-12
2748,318,-120,1098,-3,-91,-5
2749,494,-78,1059,16,-35,4
2750,284,16,1007,15,42,12
2751,-171,72,929,-2,81,22
2752,-490,64,881,-23,48,15
2753,-388,-26,932,-24,-30,-6
2754,62,-109,1062,-11,-89,-11
2755,450,-109,1085,8,-71,-1
2756,446,-33,1034,19,1,6
2757,66,50,973,6,69,18
2758,-346,86,911,-8,73,23
2759,-500,26,875,-30,15,4
2760,-204,-71,1006,-19,-64,-12
2761,291,-116,1093,-4,-91,-6
2762,494,-86,1057,13,-38,4
2763,308,8,1018,16,37,11
2764,-145,69,933,0,81,23
2765,-477,66,889,-20,53,17
2766,-405,-22,922,-27,-26,-5
2767,35,-105,1057,-11,-87,-11
2768,439,-105,1093,5,-75,0
2769,453,-39,1032,17,-3,7
2770,91,46,978,7,66,17
2771,-325,86,911,-10,76,23
2772,-502,23,875,-30,17,6
2773,-230,-69,999,-17,-61,-12
2774,269,-115,1094,-4,-91,-7
2775,487,-88,1057,13,-43,3
2776,321,4,1016,17,34,11
2777,-122,72,937,-1,80,22
2778,-465,68,895,-19,54,17
2779,-416,-19,920,-27,-23,-4
2780,7,-95,1048,-10,-85,-11
2781,429,-107,1094,3,-77,-2
2782,463,-54,1032,17,-4,6
2783,109,42,990,9,64,16
2784,-305,83,911,-10,75,23
2785,-505,23,868,-29,21,6
2786,-252,-62,987,-17,-58,-11
2787,247,-111,1100,-3,-92,-7
2788,488,-90,1059,10,-47,4
2789,341,3,1020,21,31,10
2790,-96,70,947,-1,77,21
2791,-460,70,892,-18,58,17
2792,-434,-14,909,-28,-18,-5
2793,-18,-96,1045,-12,-84,-11
2794,418,-116,1095,1,-79,-1
2795,473,-48,1038,19,-8,6
2796,136,41,996,10,61,16
2797,-291,80,911,-8,77,24
2798,-516,38,873,-26,26,7
2799,-266,-59,975,-21,-57,-11
2800,221,-116,1092,-4,-92,-8
2801,490,-94,1063,10,-50,2
2802,364,0,1023,20,28,10
2803,-78,66,953,-2,78,21
2804,-450,71,890,-18,60,18
2805,-452,-6,902,-28,-16,-3
2806,-43,-93,1037,-13,-82,-10
2807,407,-117,1100,3,-80,-2
2808,481,-55,1039,19,-13,5
2809,164,38,1005,13,60,15
2810,-278,78,912,-12,78,23
2811,-513,42,862,-21,30,8
2812,-286,-49,973,-24,-53,-11
2813,201,-116,1089,-5,-91,-9
2814,491,-99,1071,9,-53,3
2815,375,-1,1027,21,27,10
2816,-53,59,953,-1,76,20
2817,-445,78,889,-15,63,18
2818,-463,-2,902,-27,-11,-3
2819,-66,-98,1030,-17,-82,-13
2820,400,-113,1097,5,-83,-3
2821,492,-60,1047,14,-17,5
2822,185,30,1005,15,58,15
2823,-263,83,923,-8,78,23
2824,-520,44,862,-23,33,9
2825,-305,-52,965,-23,-51,-10
2826,184,-109,1079,-5,-92,-7
2827,488,-97,1078,11,-56,2
2828,395,-16,1028,17,22,10
2829,-36,66,961,4,76,20
2830,-439,78,886,-19,64,19
2831,-471,-2,896,-27,-6,-1
2832,-94,-91,1029,-18,-80,-11
2833,391,-111,1103,6,-84,-3
2834,497,-68,1044,13,-21,5
2835,203,32,1008,17,55,13
2836,-252,86,923,-9,77,23
2837,-521,47,865,-27,37,10
2838,-319,-48,958,-22,-47,-9
2839,163,-111,1074,-6,-92,-9
2840,488,-105,1087,10,-59,3
2841,405,-19,1026,19,18,9
2842,-19,63,963,5,75,19
2843,-428,79,894,-17,66,20
2844,-480,0,885,-28,-3,-1
2845,-114,-89,1024,-16,-77,-11
2846,382,-112,1104,2,-85,-3
2847,502,-73,1049,14,-24,5
2848,216,35,1010,15,54,14
2849,-235,82,923,-7,77,23
2850,-517,50,863,-25,39,12
2851,-332,-41,951,-22,-44,-9
2852,149,-113,1077,-10,-93,-9
2853,485,-105,1095,11,-61,3
2854,409,-20,1021,17,16,8
2855,-6,66,966,6,75,20
2856,-417,76,891,-18,67,21
2857,-484,10,893,-24,0,0
2858,-130,-83,1025,-17,-76,-12
2859,370,-119,1096,1,-87,-3
2860,498,-70,1052,15,-28,5
2861,237,31,1005,16,50,14
2862,-221,77,930,-6,80,24
2863,-518,54,866,-26,43,12
2864,-343,-38,949,-21,-40,-10
2865,125,-112,1070,-11,-92,-10
2866,482,-104,1086,11,-64,1
2867,423,-20,1034,17,11,8
2868,11,61,966,6,74,19
2869,-399,78,899,-15,68,20
2870,-490,11,883,-26,4,1
2871,-147,-85,1019,-18,-73,-12
2872,354,-118,1102,-1,-89,-4
2873,498,-73,1053,17,-28,5
2874,252,24,1010,14,47,14
2875,-208,76,928,-5,80,22
2876,-506,58,866,-23,44,13
2877,-356,-32,948,-23,-37,-8
2878,104,-113,1068,-11,-92,-10
2879,470,-106,1090,9,-66,0
2880,429,-27,1030,17,8,8
2881,28,52,968,6,72,19
2882,-386,84,904,-14,70,22
2883,-490,17,883,-27,7,2
2884,-167,-83,1014,-18,-72,-11
2885,333,-114,1096,0,-91,-4
2886,500,-77,1057,14,-33,5
2887,267,15,1008,13,44,11
2888,-191,78,932,-1,80,23
2889,-500,61,873,-24,46,14
2890,-371,-30,935,-23,-33,-7
2891,87,-105,1067,-12,-91,-11
2892,461,-106,1089,8,-68,0
2893,437,-35,1030,16,5,8
2894,41,56,971,7,71,18
2895,-364,81,901,-11,71,21
2896,-495,15,879,-30,10,3
2897,-186,-75,1016,-14,-68,-13
2898,316,-113,1096,-2,-92,-5
2899,495,-80,1058,15,-35,5
2900,284,15,1008,14,40,11
2901,-169,78,933,0,81,22
2902,-488,59,880,-24,48,15
2903,-384,-27,931,-23,-29,-8
2904,62,-101,1063,-10,-88,-11
2905,453,-112,1086,5,-72,0
2906,444,-40,1033,18,2,7
2907,62,52,975,8,69,16
2908,-346,85,910,-10,73,21
2909,-498,20,878,-29,14,4
2910,-203,-71,1003,-16,-64,-12
2911,297,-116,1097,-3,-92,-7
2912,492,-84,1059,13,-38,3
2913,300,10,1014,17,38,11
2914,-149,76,938,-3,80,23
2915,-480,58,882,-19,52,15
2916,-399,-20,928,-24,-26,-6
2917,38,-101,1060,-11,-87,-11
2918,442,-115,1087,3,-75,0
2919,450,-34,1035,19,-1,7
2920,86,46,978,8,66,17
2921,-328,79,908,-10,74,23
2922,-504,24,880,-28,17,4
2923,-228,-66,996,-19,-62,-11
2924,272,-117,1095,-4,-93,-6
2925,489,-87,1054,13,-43,3
2926,321,10,1015,17,34,11
2927,-123,72,941,-1,80,22
2928,-470,70,892,-18,55,15
2929,-418,-15,917,-28,-23,-5
2930,14,-102,1053,-12,-85,-12
2931,426,-115,1092,4,-76,-1
2932,461,-47,1034,21,-4,5
2933,111,44,991,10,63,16
2934,-311,83,906,-9,76,23
2935,-504,31,872,-28,20,7
2936,-243,-65,992,-19,-59,-10
2937,248,-115,1098,-3,-93,-8
2938,488,-89,1058,11,-46,3
2939,340,3,1022,19,32,11
2940,-101,68,942,-2,79,22
2941,-465,70,891,-15,57,17
2942,-429,-15,916,-27,-20,-5
2943,-11,-98,1044,-12,-84,-11
2944,418,-106,1095,6,-79,-2
2945,473,-49,1039,14,-8,5
2946,131,39,993,11,61,15
2947,-296,84,917,-9,77,23
2948,-508,32,869,-25,25,8
2949,-267,-63,975,-22,-57,-11
2950,230,-112,1093,-2,-94,-8
2951,487,-91,1065,11,-49,2
2952,361,-5,1020,19,29,10
2953,-80,72,951,0,77,21
2954,-454,79,888,-18,60,19
2955,-446,-12,905,-28,-15,-3
2956,-41,-97,1039,-13,-82,-12
2957,408,-110,1100,3,-81,-3
2958,484,-61,1042,15,-13,5
2959,157,38,1002,15,60,15
2960,-277,86,912,-9,77,23
2961,-515,29,867,-27,29,8
2962,-287,-54,975,-21,-54,-10
2963,205,-107,1088,-3,-92,-7
2964,492,-97,1071,8,-54,1
2965,376,-3,1023,21,26,9
2966,-54,67,960,1,76,21
2967,-449,78,890,-18,62,18
2968,-456,-9,899,-26,-11,-3
2969,-66,-89,1030,-15,-80,-12
2970,404,-117,1100,5,-82,-1
2971,490,-66,1045,14,-16,4
2972,178,40,1011,18,58,15
2973,-263,80,917,-11,77,24
2974,-520,42,862,-25,34,10
2975,-307,-48,965,-24,-52,-10
2976,186,-114,1084,-4,-91,-8
2977,491,-95,1082,12,-57,2
2978,390,-5,1025,18,22,9
2979,-39,65,959,3,77,21
2980,-438,72,889,-19,65,20
2981,-472,0,896,-26,-8,-2
2982,-84,-94,1029,-18,-80,-12
2983,391,-117,1102,4,-85,-3
2984,492,-68,1043,14,-19,5
2985,200,36,1010,17,56,14
2986,-250,81,923,-9,77,23
2987,-520,47,863,-24,37,10
2988,-318,-40,961,-23,-48,-10
2989,165,-115,1075,-7,-92,-8
2990,488,-103,1087,12,-59,2
2991,406,-16,1026,17,18,8
2992,-23,61,963,5,76,20
2993,-434,80,892,-18,66,20
2994,-475,5,888,-25,-4,-1
2995,-111,-89,1023,-17,-79,-11
2996,383,-113,1104,6,-85,-4
2997,497,-66,1049,14,-23,5
2998,218,30,1010,17,53,15
2999,-236,77,921,-8,79,23
3000,-520,55,860,-23,39,12
3001,-335,-44,956,-23,-44,-9
3002,147,-115,1076,-8,-92,-10
3003,483,-102,1085,10,-61,0
3004,412,-20,1030,16,14,7
3005,-3,57,963,7,75,20
3006,-417,80,893,-16,67,21
3007,-483,8,891,-25,1,0
3008,-131,-86,1022,-17,-76,-12
3009,366,-112,1097,2,-88,-4
3010,502,-73,1051,14,-27,5
3011,234,25,1011,16,51,13
3012,-220,80,928,-6,78,22
3013,-514,56,865,-26,41,13
3014,-344,-42,947,-24,-42,-8
3015,125,-108,1069,-8,-91,-9
3016,478,-102,1094,9,-64,1
3017,421,-32,1029,16,11,8
3018,9,64,964,8,74,19
3019,-399,81,893,-15,67,21
3020,-488,8,887,-28,5,1
3021,-149,-85,1025,-16,-73,-12
3022,352,-112,1099,1,-89,-5
3023,500,-80,1050,13,-30,4
3024,251,24,1006,18,47,13
3025,-205,82,930,-5,79,24
3026,-508,56,871,-25,43,13
3027,-358,-34,941,-22,-36,-9
3028,107,-107,1069,-11,-92,-10
3029,473,-111,1089,8,-66,1
3030,428,-27,1036,17,7,6
3031,31,54,964,8,72,19
3032,-384,81,904,-15,69,22
3033,-493,16,880,-25,8,1
3034,-169,-76,1018,-17,-72,-12
3035,331,-114,1102,-1,-91,-4
3036,501,-83,1054,12,-33,4
3037,268,21,1009,14,44,13
3038,-183,75,930,-5,81,23
3039,-499,59,872,-28,48,16
3040,-375,-28,936,-28,-32,-8
3041,82,-106,1071,-8,-91,-10
3042,457,-108,1088,7,-70,0
3043,438,-32,1032,16,4,5
3044,49,54,969,12,71,18
3045,-360,82,907,-16,72,22
3046,-498,21,882,-25,12,2
3047,-187,-75,1013,-21,-68,-12
3048,311,-117,1095,1,-91,-5
3049,494,-80,1054,12,-37,3
3050,292,17,1010,16,39,12
3051,-162,74,934,-3,81,22
3052,-487,63,884,-20,49,13
3053,-390,-21,928,-25,-29,-7
3054,57,-108,1059,-14,-89,-9
3055,446,-110,1087,6,-72,0
3056,445,-36,1036,17,0,6
3057,71,45,974,7,68,18
3058,-342,86,910,-11,73,23
3059,-499,25,875,-28,14,5
3060,-208,-74,1002,-19,-63,-11
3061,287,-115,1098,-2,-92,-6
3062,490,-82,1057,15,-39,3
3063,308,11,1017,19,37,11
3064,-139,69,931,-1,79,23
3065,-475,68,887,-18,52,17
3066,-406,-20,928,-27,-25,-7
3067,33,-105,1054,-11,-87,-11
3068,435,-108,1091,6,-75,0
3069,455,-44,1030,17,-2,6
3070,95,45,984,10,65,17
3071,-323,87,913,-9,75,24
3072,-504,21,874,-29,17,5
3073,-233,-66,991,-19,-62,-11
3074,265,-111,1095,0,-93,-7
3075,489,-88,1059,11,-43,2
3076,326,4,1016,20,34,10
3077,-117,70,940,-3,79,22
3078,-468,71,894,-17,56,17
3079,-420,-18,913,-28,-23,-6
3080,1,-97,1052,-10,-85,-11
3081,424,-110,1093,3,-78,-1
3082,468,-49,1036,18,-6,7
3083,116,44,989,11,64,17
3084,-300,83,913,-11,75,22
3085,-508,26,872,-25,23,6
3086,-252,-62,985,-21,-58,-12
3087,239,-112,1097,-2,-93,-7
3088,486,-90,1060,11,-48,3
3089,347,4,1020,20,31,10
3090,-93,67,949,-5,77,21
3091,-454,67,892,-17,58,18
3092,-437,-12,911,-27,-19,-4
3093,-24,-95,1040,-13,-83,-12
3094,416,-118,1092,5,-79,-1
3095,474,-51,1043,18,-9,6
3096,139,41,998,12,61,15
3097,-284,82,911,-12,77,23
3098,-514,41,870,-23,27,7
3099,-271,-51,976,-24,-57,-11
3100,222,-115,1095,-5,-93,-8
3101,487,-98,1063,8,-50,2
3102,364,-3,1020,22,29,9
3103,-74,64,957,-1,78,22
3104,-454,73,886,-16,60,18
3105,-451,-4,904,-25,-15,-3
3106,-52,-93,1036,-14,-81,-12
3107,407,-116,1099,3,-81,-3
3108,482,-54,1042,17,-13,5
3109,169,36,1003,14,59,17
3110,-275,82,912,-12,77,24
3111,-518,42,870,-22,31,8
3112,-288,-55,972,-24,-53,-10
3113,198,-117,1085,-3,-92,-7
3114,490,-94,1071,9,-54,2
3115,380,-7,1024,19,25,10
3116,-50,60,957,3,76,21
3117,-446,79,890,-17,63,18
3118,-464,1,898,-27,-11,-2
3119,-70,-98,1027,-18,-80,-11
3120,398,-114,1103,6,-82,-2
3121,488,-62,1047,14,-17,5
3122,189,27,1006,17,57,15
3123,-263,86,919,-8,78,24
3124,-520,47,862,-22,35,9
3125,-307,-50,965,-25,-51,-10
3126,180,-109,1084,-4,-92,-8
3127,489,-99,1078,8,-57,2
3128,397,-15,1029,18,21,8
3129,-33,63,963,1,76,20
3130,-437,77,884,-17,65,20
3131,-474,-4,897,-27,-6,-1
3132,-97,-92,1026,-17,-79,-13
3133,391,-109,1100,7,-84,-4
3134,499,-66,1046,13,-20,6
3135,208,33,1012,19,56,13
3136,-246,86,925,-9,79,23
3137,-517,47,859,-25,36,11
3138,-325,-43,956,-23,-48,-10
3139,158,-110,1077,-6,-92,-9
3140,491,-105,1092,7,-60,1
3141,401,-17,1027,18,17,9
3142,-15,62,960,5,75,21
3143,-428,81,891,-19,66,21
3144,-478,1,890,-26,-1,-1
3145,-117,-85,1023,-18,-78,-11
3146,380,-111,1106,5,-87,-3
3147,500,-76,1045,12,-24,5
3148,221,39,1007,18,53,13
3149,-234,79,924,-10,77,23
3150,-517,45,859,-24,41,11
3151,-337,-39,958,-21,-44,-11
3152,143,-112,1073,-8,-93,-10
3153,486,-105,1088,10,-62,2
3154,412,-22,1026,16,14,9
3155,0,66,968,9,74,21
3156,-413,80,893,-19,69,20
3157,-485,8,885,-24,2,-1
3158,-133,-82,1023,-18,-76,-12
3159,365,-117,1099,1,-87,-3
3160,502,-76,1055,14,-27,5
3161,238,30,1007,16,50,12
3162,-217,76,930,-6,79,21
3163,-515,55,863,-26,43,12
3164,-346,-36,947,-21,-39,-8
3165,121,-112,1072,-11,-91,-10
3166,478,-106,1090,11,-64,1
3167,422,-19,1030,15,10,8
3168,17,61,964,8,74,19
3169,-401,78,899,-18,69,22
3170,-490,13,887,-27,6,0
3171,-151,-86,1021,-19,-74,-11
3172,345,-115,1098,1,-89,-5
3173,501,-73,1053,16,-30,5
3174,254,23,1007,14,45,13
3175,-202,78,934,-3,78,22
3176,-504,55,867,-26,44,13
3177,-361,-33,942,-21,-36,-8
3178,102,-109,1068,-12,-91,-11
3179,464,-103,1090,10,-66,1
3180,431,-28,1034,17,5,8
3181,29,54,967,8,73,18
3182,-381,83,899,-10,70,21
3183,-492,14,884,-29,8,3
3184,-171,-83,1014,-17,-69,-12
3185,328,-113,1101,-3,-91,-7
3186,498,-77,1055,17,-33,4
3187,273,14,1009,13,43,12
3188,-185,78,931,-1,81,23
3189,-497,60,877,-25,46,13
3190,-373,-32,937,-23,-32,-7
3191,75,-102,1063,-12,-91,-11
3192,459,-108,1086,7,-69,-1
3193,441,-34,1030,17,4,8
3194,47,54,971,5,71,18
3195,-356,83,904,-11,71,22
3196,-498,17,882,-30,12,3
3197,-193,-74,1008,-15,-67,-12
3198,309,-114,1099,-3,-92,-6
3199,492,-84,1055,14,-35,3
3200,291,14,1010,17,38,12
3201,-160,79,936,-2,80,22
3202,-484,64,883,-21,51,15
3203,-392,-22,925,-25,-28,-7
3204,50,-97,1064,-9,-88,-11
3205,451,-117,1087,4,-73,0
3206,447,-38,1036,19,0,7
3207,73,52,971,6,67,16
3208,-339,82,910,-10,74,22
3209,-505,22,878,-28,16,4
3210,-212,-71,1001,-17,-64,-12
3211,282,-112,1102,-3,-93,-6
3212,493,-87,1052,13,-40,4
3213,312,13,1016,19,36,12
3214,-137,75,939,-2,80,22
3215,-470,58,887,-20,52,15
3216,-410,-17,922,-27,-26,-6
3217,28,-100,1055,-12,-88,-10
3218,434,-114,1090,4,-75,0
3219,452,-43,1033,20,-3,5
3220,100,47,986,9,65,17
3221,-320,84,910,-10,76,22
3222,-503,27,872,-27,19,6
3223,-231,-64,993,-20,-61,-12
3224,260,-114,1096,-2,-93,-7
3225,488,-89,1058,9,-44,3
3226,331,6,1018,21,34,11
3227,-112,64,944,-6,78,23
3228,-466,66,889,-16,56,16
3229,-424,-11,918,-27,-23,-7
3230,-1,-100,1046,-11,-85,-11
3231,422,-113,1094,4,-78,-1
3232,465,-42,1037,18,-7,7
3233,121,41,987,8,64,17
3234,-299,89,915,-8,76,23
3235,-511,33,871,-27,23,5
3236,-253,-63,985,-22,-58,-11
3237,237,-116,1093,-3,-93,-8
3238,484,-88,1059,9,-48,3
3239,356,-3,1026,20,31,12
3240,-92,65,946,-1,78,21
3241,-460,74,893,-14,59,18
3242,-437,-10,910,-27,-19,-3
3243,-30,-97,1037,-14,-83,-10
3244,415,-110,1097,4,-80,-3
3245,479,-52,1043,15,-10,5
3246,146,36,1000,12,60,16
3247,-284,84,915,-9,77,23
3248,-512,36,867,-25,28,7
3249,-277,-64,971,-23,-56,-10
3250,214,-113,1093,-1,-92,-8
3251,487,-94,1071,10,-52,3
3252,372,-5,1021,21,27,9
3253,-65,67,957,0,76,22
3254,-451,82,891,-17,62,18
3255,-452,-11,903,-29,-14,-3
3256,-60,-92,1033,-14,-82,-12
3257,405,-108,1099,3,-83,-1
3258,488,-65,1041,14,-15,6
3259,171,31,1002,15,59,14
3260,-268,87,920,-9,78,22
3261,-518,36,864,-24,33,10
3262,-298,-49,965,-23,-52,-11
3263,189,-107,1086,-2,-92,-9
3264,490,-101,1078,7,-55,3
3265,387,-10,1025,21,24,9
3266,-47,70,962,1,76,22
3267,-444,72,884,-19,64,20
3268,-464,-2,899,-26,-10,-3
3269,-83,-89,1030,-18,-80,-13
3270,398,-120,1102,4,-84,-3
3271,494,-64,1048,14,-18,5
3272,195,36,1004,16,57,15
3273,-254,84,924,-11,76,25
3274,-522,43,862,-25,37,10
3275,-315,-48,960,-24,-50,-10
3276,171,-109,1084,-5,-92,-9
3277,491,-107,1079,8,-58,1
3278,397,-11,1025,20,19,8
3279,-24,61,967,3,75,20
3280,-431,73,887,-19,65,20
3281,-481,7,894,-24,-4,-2
3282,-103,-90,1022,-17,-79,-13
3283,384,-117,1101,3,-85,-3
3284,498,-69,1051,14,-23,4
3285,215,31,1009,15,55,15
3286,-239,78,924,-7,79,24
3287,-520,50,859,-24,39,11
3288,-329,-36,958,-22,-46,-9
3289,149,-115,1076,-8,-93,-10
3290,488,-103,1087,11,-60,2
3291,411,-16,1029,19,15,8
3292,-5,58,963,2,75,20
3293,-419,83,895,-16,67,19
3294,-484,7,888,-27,0,-1
3295,-127,-91,1022,-19,-77,-11
3296,369,-114,1098,3,-86,-4
3297,501,-69,1051,14,-26,4
3298,234,26,1007,16,50,15
3299,-226,81,930,-6,79,23
3300,-512,54,865,-26,41,11
3301,-342,-39,949,-24,-40,-9
3302,128,-110,1071,-10,-92,-10
3303,481,-103,1090,8,-63,0
3304,419,-22,1030,17,12,8
3305,8,55,966,6,74,20
3306,-403,84,896,-13,68,22
3307,-487,8,885,-28,4,1
3308,-144,-88,1021,-18,-73,-11
3309,355,-109,1098,3,-90,-4
3310,501,-74,1056,14,-29,4
3311,250,21,1006,16,48,14
3312,-208,80,930,-4,79,22
3313,-507,55,869,-25,45,13
3314,-357,-39,945,-24,-37,-8
3315,108,-109,1071,-9,-94,-10
3316,477,-104,1089,10,-66,0
3317,430,-32,1028,17,9,7
3318,25,59,966,7,73,19
3319,-385,87,905,-12,70,21
3320,-493,10,881,-28,7,1
3321,-168,-79,1016,-16,-71,-12
3322,334,-112,1100,1,-90,-5
3323,501,-83,1051,14,-34,4
3324,267,23,1010,18,44,12
3325,-189,77,933,-6,80,22
3326,-495,57,872,-23,45,14
3327,-372,-27,937,-24,-32,-9
3328,83,-104,1064,-10,-91,-10
3329,459,-108,1094,7,-69,0
3330,433,-35,1032,18,5,7
3331,46,55,967,7,70,19
3332,-360,80,904,-13,72,22
3333,-497,18,881,-29,12,4
3334,-188,-70,1013,-17,-68,-11
3335,312,-117,1098,-3,-92,-4
3336,492,-84,1050,14,-35,2
3337,289,18,1012,16,40,12
3338,-165,75,934,-1,80,23
3339,-487,57,879,-23,49,14
3340,-388,-26,931,-22,-29,-7
3341,54,-99,1065,-12,-88,-10
3342,450,-113,1084,6,-72,0
3343,445,-31,1036,18,1,6
3344,71,47,974,7,67,17
3345,-339,82,912,-10,73,23
3346,-502,26,874,-29,15,3
3347,-210,-72,1002,-18,-64,-12
3348,282,-117,1099,-4,-93,-7
3349,490,-87,1057,14,-39,4
3350,307,11,1014,15,37,10
3351,-137,67,935,-1,79,22
3352,-475,68,887,-18,53,15
3353,-407,-16,925,-25,-25,-7
3354,29,-104,1056,-13,-87,-11
3355,431,-108,1089,5,-74,0
3356,457,-39,1038,17,-2,5
3357,100,40,981,10,65,16
3358,-319,84,910,-8,75,22
3359,-506,27,877,-29,18,5
3360,-236,-69,989,-19,-61,-11
3361,261,-113,1093,-3,-93,-7
3362,489,-84,1058,13,-44,3
3363,334,2,1020,17,34,12
3364,-110,69,946,-3,80,23
3365,-464,70,887,-19,56,17
3366,-426,-15,915,-30,-22,-4
3367,-2,-101,1044,-11,-84,-11
3368,424,-112,1093,3,-78,0
3369,468,-48,1040,17,-6,7
3370,125,39,990,10,62,15
3371,-299,86,911,-7,76,22
3372,-510,32,873,-26,24,7
3373,-261,-60,980,-20,-58,-11
3374,232,-110,1095,-3,-93,-8
3375,490,-96,1061,9,-48,3
3376,357,-5,1022,16,30,10
3377,-83,69,949,1,78,21
3378,-456,74,889,-20,60,18
3379,-446,-9,909,-21,-17,-4
3380,-37,-92,1039,-17,-83,-12
3381,414,-115,1099,10,-81,-2
3382,481,-61,1038,12,-11,5
3383,154,40,1003,18,61,17
3384,-281,83,915,-12,77,24
3385,-514,37,868,-24,28,8
3386,-285,-53,971,-25,-55,-11
3387,206,-114,1087,-4,-92,-8
3388,490,-102,1073,8,-53,3
3389,375,-6,1024,20,27,9
3390,-57,68,954,3,76,22
3391,-449,77,888,-19,62,19
3392,-460,-6,899,-25,-13,-3
3393,-62,-89,1035,-16,-82,-11
3394,401,-115,1103,6,-83,-2
3395,488,-62,1040,13,-16,5
3396,179,40,1010,17,58,15
3397,-265,76,913,-14,78,23
3398,-519,42,866,-23,33,10
3399,-305,-47,965,-22,-53,-10
3400,186,-116,1079,-5,-93,-8
3401,489,-98,1078,10,-56,3
3402,393,-9,1026,18,22,9
3403,-33,66,965,4,76,21
3404,-441,78,890,-19,65,19
3405,-471,4,896,-25,-7,-2
3406,-94,-88,1024,-18,-80,-12
3407,395,-121,1099,4,-85,-3
3408,494,-66,1050,14,-21,4
3409,204,28,1009,17,55,14
3410,-248,77,921,-8,79,23
3411,-524,54,863,-21,38,10
3412,-319,-47,956,-26,-48,-9
3413,161,-110,1080,-5,-92,-8
3414,491,-101,1088,11,-61,2
3415,406,-14,1026,17,18,9
3416,-18,62,962,5,76,20
3417,-426,78,891,-18,66,21
3418,-485,9,890,-25,0,-1
3419,-115,-94,1025,-19,-78,-12
3420,377,-117,1097,6,-86,-4
3421,501,-71,1049,13,-25,5
3422,229,26,1007,16,52,14
3423,-235,87,929,-6,79,23
3424,-518,55,860,-26,40,11
3425,-342,-39,950,-23,-43,-10
3426,138,-110,1073,-9,-93,-11
3427,487,-106,1091,10,-62,1
3428,418,-24,1029,18,13,8
3429,6,57,965,7,75,19
3430,-412,84,895,-16,69,21
3431,-488,8,883,-25,3,-1
3432,-138,-86,1021,-17,-76,-13
3433,359,-107,1102,3,-88,-5
3434,503,-75,1054,12,-29,4
3435,242,25,1006,16,50,14
3436,-212,82,929,-4,80,23
3437,-511,54,865,-25,44,13
3438,-353,-38,947,-21,-39,-9
3439,112,-112,1069,-9,-91,-10
3440,477,-107,1088,9,-66,1
3441,427,-30,1027,16,9,8
3442,21,60,965,8,75,19
3443,-389,86,905,-14,70,22
3444,-491,11,885,-27,7,2
3445,-161,-81,1017,-18,-72,-12
3446,339,-111,1097,1,-90,-5
3447,501,-84,1053,13,-32,3
3448,265,22,1011,17,46,13
3449,-192,75,932,-5,80,22
3450,-501,56,872,-22,46,14
3451,-374,-27,935,-23,-33,-9
3452,89,-102,1070,-9,-91,-11
3453,462,-110,1086,7,-68,0
3454,437,-33,1033,17,3,8
3455,45,55,968,7,72,18
3456,-363,82,904,-12,72,21
3457,-497,14,878,-28,12,2
3458,-186,-70,1016,-17,-68,-12
3459,315,-115,1101,-4,-92,-5
3460,493,-83,1051,12,-35,5
3461,287,23,1011,17,40,11
3462,-165,69,936,-4,81,23
3463,-487,57,883,-22,49,15
3464,-389,-23,930,-23,-29,-8
3465,58,-104,1061,-12,-89,-11
3466,445,-106,1087,7,-72,0
3467,444,-33,1032,19,1,7
3468,71,49,974,7,67,18
3469,-338,80,909,-12,73,22
3470,-501,25,878,-27,15,3
3471,-206,-76,997,-19,-64,-12
3472,285,-116,1102,-5,-92,-6
3473,491,-83,1056,14,-40,3
3474,309,9,1012,17,37,11
3475,-142,71,937,-1,79,22
3476,-470,68,889,-19,52,17
3477,-407,-11,923,-24,-25,-5
3478,27,-103,1055,-13,-87,-12
3479,437,-114,1091,6,-76,-1
3480,457,-41,1036,18,-3,6
3481,98,39,980,8,65,17
3482,-318,85,910,-8,76,22
3483,-506,30,875,-28,19,6
3484,-235,-69,992,-19,-60,-11
3485,257,-108,1098,-1,-93,-7
3486,489,-88,1056,12,-43,3
3487,337,1,1021,17,33,11
3488,-110,72,945,1,79,22
3489,-463,71,889,-20,56,16
3490,-430,-18,914,-27,-21,-6
3491,-12,-99,1044,-13,-84,-11
3492,423,-111,1096,5,-79,-1
3493,470,-50,1037,15,-8,5
3494,130,41,996,12,61,15
3495,-292,86,915,-10,76,24
3496,-508,31,866,-26,25,8
3497,-263,-60,979,-22,-57,-11
3498,229,-108,1093,-3,-92,-7
3499,489,-91,1062,10,-49,3
3500,360,-3,1022,18,30,8
3501,-77,68,952,0,78,22
3502,-454,73,891,-19,61,18
3503,-445,-14,908,-27,-16,-4
3504,-44,-94,1033,-13,-84,-13
3505,410,-111,1099,6,-81,-3
3506,485,-60,1039,17,-12,6
3507,159,43,1002,14,59,16
3508,-278,85,916,-10,77,22
3509,-517,41,870,-25,31,9
3510,-291,-51,967,-23,-54,-11
3511,204,-114,1085,-6,-92,-9
3512,494,-106,1074,10,-54,3
3513,382,-8,1024,19,26,9
3514,-53,67,961,1,77,21
3515,-447,72,885,-19,64,18
3516,-466,0,900,-26,-11,-2
3517,-76,-86,1030,-16,-81,-13
3518,405,-117,1099,3,-84,-3
3519,491,-62,1045,16,-18,6
3520,192,37,1009,13,57,14
3521,-253,79,920,-10,77,23
3522,-524,42,859,-25,35,9
3523,-315,-46,964,-23,-49,-9
3524,173,-116,1077,-7,-92,-7
3525,492,-101,1082,11,-58,2
3526,400,-9,1025,19,21,9
3527,-24,60,966,3,75,20
3528,-437,82,893,-15,66,19
3529,-478,6,894,-27,-5,-1
3530,-108,-91,1022,-19,-79,-11
3531,387,-116,1097,4,-84,-4
3532,502,-70,1050,12,-22,5
3533,218,30,1011,16,53,15
3534,-243,79,926,-7,79,23
3535,-522,52,861,-24,40,11
3536,-332,-42,955,-24,-45,-9
3537,148,-118,1072,-7,-93,-9
3538,489,-95,1094,12,-61,2
3539,411,-22,1025,15,15,8
3540,0,57,965,6,74,20
3541,-419,85,897,-15,67,21
3542,-484,8,890,-27,1,-1
3543,-134,-89,1022,-17,-76,-12
3544,363,-113,1098,2,-87,-4
3545,505,-72,1053,14,-27,6
3546,243,23,1007,15,50,14
3547,-219,81,930,-4,80,23
3548,-514,53,866,-24,42,12
3549,-352,-39,945,-23,-39,-8
3550,117,-107,1069,-7,-92,-10
3551,480,-104,1088,9,-64,2
3552,430,-30,1031,18,10,9
3553,18,61,969,7,74,20
3554,-392,85,905,-15,69,21
3555,-492,11,881,-28,6,2
3556,-162,-82,1018,-18,-72,-11
3557,340,-113,1099,0,-90,-5
3558,502,-81,1052,13,-33,5
3559,262,18,1007,16,46,13
3560,-194,82,936,-5,81,22
3561,-501,56,870,-22,45,14
3562,-369,-35,938,-22,-34,-8
3563,89,-104,1066,-10,-91,-11
3564,465,-105,1088,6,-69,0
3565,437,-36,1031,15,5,7
3566,45,57,967,6,71,18
3567,-367,83,910,-13,71,22
3568,-498,12,878,-29,11,2
3569,-186,-74,1012,-17,-68,-12
3570,313,-116,1099,-3,-92,-6
3571,496,-89,1056,13,-37,3
3572,287,16,1014,19,41,12
3573,-163,78,934,-2,81,22
3574,-488,62,881,-21,49,14
3575,-392,-24,930,-25,-29,-7
3576,56,-101,1063,-12,-89,-11
3577,448,-115,1088,4,-73,-1
3578,448,-36,1033,19,1,6
3579,75,49,974,9,68,18
3580,-338,81,909,-13,74,22
3581,-501,23,876,-28,15,4
3582,-215,-68,999,-17,-64,-12
3583,281,-116,1100,-2,-93,-6
3584,489,-86,1056,13,-40,3
3585,317,13,1016,17,36,12
3586,-130,68,938,-2,80,21
3587,-473,67,888,-20,54,16
3588,-413,-13,920,-25,-24,-6
3589,19,-101,1055,-12,-87,-11
3590,428,-113,1089,6,-76,0
3591,464,-45,1036,17,-4,6
3592,110,39,990,10,65,18
3593,-312,82,912,-9,76,23
3594,-507,36,874,-27,20,5
3595,-248,-60,986,-21,-59,-10
3596,245,-116,1092,-4,-93,-8
3597,489,-90,1059,10,-46,3
3598,346,0,1023,17,32,11
3599,-97,62,943,-1,79,22
3600,-461,77,896,-17,58,17
3601,-434,-12,909,-27,-20,-5
3602,-24,-97,1044,-15,-85,-10
3603,411,-109,1098,5,-80,-2
3604,478,-53,1038,16,-10,5
3605,146,37,997,13,61,16
3606,-287,85,915,-7,77,23
3607,-513,39,871,-26,27,8
3608,-277,-61,973,-23,-56,-11
3609,215,-114,1086,-4,-92,-8
3610,490,-98,1068,10,-51,4
3611,372,-12,1022,20,27,9
3612,-62,71,958,2,78,22
3613,-456,77,892,-18,62,19
3614,-456,-3,905,-26,-14,-2
3615,-66,-90,1029,-14,-82,-11
3616,408,-116,1101,5,-84,-3
3617,491,-64,1045,14,-15,5
3618,176,33,1005,17,59,15
3619,-264,87,920,-7,78,25
3620,-520,42,862,-24,34,10
3621,-304,-50,966,-25,-52,-11
3622,185,-108,1085,-4,-93,-9
3623,494,-102,1079,8,-58,3
3624,393,-12,1023,20,23,8
3625,-34,66,962,0,77,21
3626,-443,78,891,-17,65,20
3627,-474,-3,893,-28,-6,-3
3628,-97,-88,1026,-18,-80,-12
3629,394,-114,1097,5,-85,-2
3630,500,-69,1046,12,-21,5
3631,205,33,1005,18,56,14
3632,-245,84,928,-8,77,23
3633,-525,47,864,-24,38,10
3634,-327,-43,954,-23,-47,-10
3635,158,-110,1076,-7,-93,-8
3636,488,-105,1085,10,-61,2
3637,413,-13,1029,16,17,8
3638,-14,64,965,4,76,20
3639,-422,77,892,-18,67,20
3640,-484,5,889,-24,-1,-1
3641,-125,-89,1024,-18,-78,-12
3642,374,-116,1101,3,-88,-4
3643,502,-68,1052,13,-26,5
3644,236,30,1003,16,51,13
3645,-225,80,932,-7,79,23
3646,-519,55,864,-24,42,10
3647,-342,-38,949,-22,-42,-10
3648,126,-116,1071,-12,-93,-9
3649,482,-107,1089,11,-64,1
3650,424,-22,1029,17,11,7
3651,10,58,967,8,75,20
3652,-399,86,899,-16,69,21
3653,-493,15,880,-26,6,-1
3654,-147,-88,1017,-19,-74,-13
3655,349,-114,1101,1,-89,-5
3656,501,-79,1056,15,-30,3
3657,260,18,1004,15,47,14
3658,-205,82,936,-2,80,23
3659,-506,58,864,-25,45,13
3660,-364,-29,942,-21,-36,-8
3661,97,-110,1068,-13,-93,-10
3662,471,-107,1086,11,-67,2
3663,434,-30,1035,16,6,8
3664,37,50,967,6,71,20
3665,-376,87,904,-10,72,22
3666,-497,19,880,-28,10,3
3667,-177,-83,1014,-17,-69,-11
3668,318,-108,1099,-1,-91,-7
3669,498,-80,1055,14,-35,3
3670,284,12,1009,15,42,11
3671,-170,76,935,0,81,22
3672,-488,59,883,-22,49,14
3673,-387,-30,930,-24,-29,-6
3674,61,-102,1061,-10,-90,-11
3675,446,-103,1090,7,-71,0
3676,448,-41,1034,17,1,7
3677,68,50,972,5,69,18
3678,-345,87,914,-9,74,22
3679,-496,14,873,-31,15,5
3680,-211,-66,1001,-16,-63,-12
3681,290,-114,1095,-3,-93,-6
3682,492,-86,1056,14,-39,5
3683,308,10,1014,16,37,12
3684,-135,71,938,-1,79,23
3685,-475,69,890,-19,54,17
3686,-412,-22,919,-27,-24,-7
3687,22,-96,1056,-11,-88,-11
3688,432,-115,1087,3,-75,-1
3689,462,-49,1034,19,-3,6
3690,102,48,985,8,66,16
3691,-314,83,913,-8,76,22
3692,-506,29,874,-26,20,6
3693,-246,-58,985,-19,-61,-13
3694,254,-115,1097,-5,-94,-7
3695,490,-96,1056,12,-46,3
3696,341,8,1021,20,34,10
3697,-101,64,946,-2,77,22
3698,-466,72,894,-17,58,18
3699,-436,-13,907,-27,-19,-5
3700,-17,-96,1048,-11,-84,-11
3701,420,-116,1094,2,-80,-1
3702,478,-55,1034,19,-8,5
3703,140,46,1004,13,62,16
3704,-285,78,907,-10,76,24
3705,-519,43,875,-24,26,8
3706,-274,-60,972,-23,-56,-12
3707,218,-116,1095,-4,-92,-7
3708,489,-98,1060,8,-52,3
3709,375,-7,1026,21,28,10
3710,-67,64,956,0,78,22
3711,-453,76,887,-12,62,18
3712,-454,0,906,-29,-13,-3
3713,-58,-90,1028,-18,-81,-10
3714,408,-112,1100,0,-81,-2
3715,489,-57,1042,19,-15,6
3716,176,32,1009,7,60,15
3717,-268,83,917,-4,77,24
3718,-521,42,865,-29,32,8
3719,-302,-52,964,-21,-52,-11
3720,189,-115,1081,-6,-93,-10
3721,490,-97,1079,11,-57,2
3722,394,-10,1026,18,23,10
3723,-37,63,959,3,76,21
3724,-441,85,892,-14,65,18
3725,-470,3,897,-28,-7,-3
3726,-95,-91,1021,-16,-80,-13
3727,394,-114,1101,2,-86,-4
3728,497,-69,1043,15,-20,5
3729,206,29,1009,14,56,15
3730,-248,84,925,-6,79,24
3731,-521,47,864,-25,38,10
3732,-324,-47,955,-22,-47,-11
3733,158,-109,1075,-6,-93,-10
3734,493,-101,1087,11,-60,2
3735,409,-20,1029,16,18,10
3736,-12,65,965,5,75,20
3737,-424,80,893,-18,66,20
3738,-487,0,888,-25,-1,-2
3739,-125,-88,1020,-17,-77,-12
3740,373,-114,1101,3,-87,-4
3741,505,-76,1052,12,-27,5
3742,231,26,1007,17,52,12
3743,-224,83,927,-5,79,23
3744,-517,52,869,-25,41,11
3745,-342,-38,944,-21,-42,-10
3746,128,-105,1072,-10,-92,-10
3747,483,-107,1090,10,-62,2
3748,424,-24,1029,15,10,8
3749,11,60,966,6,74,19
3750,-395,76,903,-16,68,22
3751,-495,7,881,-26,6,2
3752,-152,-80,1017,-15,-74,-11
3753,351,-113,1098,-2,-89,-4
3754,500,-78,1052,17,-30,4
3755,256,27,1010,16,47,13
3756,-201,80,937,-3,80,21
3757,-507,54,868,-25,44,12
3758,-366,-28,944,-23,-36,-8
3759,98,-112,1064,-12,-92,-11
3760,467,-114,1087,8,-68,0
3761,434,-33,1030,18,6,7
3762,40,57,968,9,71,20
3763,-374,86,902,-12,71,21
3764,-497,17,880,-27,9,2
3765,-181,-72,1015,-17,-69,-13
3766,320,-120,1098,-3,-93,-7
3767,496,-80,1055,15,-34,3
3768,286,13,1010,15,42,11
3769,-170,70,934,-3,81,23
3770,-491,64,880,-20,48,16
3771,-389,-25,928,-24,-29,-6
3772,57,-102,1066,-11,-91,-10
3773,449,-109,1085,6,-73,-1
3774,452,-33,1036,19,1,6
3775,69,48,976,6,70,18
3776,-338,78,907,-10,75,22
3777,-502,28,881,-29,15,5
3778,-216,-73,1000,-19,-63,-11
3779,282,-115,1096,-3,-93,-7
3780,493,-80,1058,13,-40,5
3781,316,3,1017,17,36,12
3782,-132,73,939,-2,80,22
3783,-475,69,891,-20,53,15
3784,-414,-15,918,-28,-25,-5
3785,19,-101,1051,-11,-86,-11
3786,432,-115,1091,3,-76,-1
3787,461,-45,1039,18,-4,6
3788,108,39,987,9,65,18
3789,-309,87,913,-7,76,23
3790,-509,32,874,-27,22,5
3791,-244,-69,982,-20,-59,-12
3792,245,-106,1099,-3,-94,-7
3793,491,-96,1055,9,-47,3
3794,349,-3,1018,18,32,10
3795,-97,69,947,0,79,21
3796,-457,70,890,-18,59,17
3797,-436,-13,910,-27,-20,-5
3798,-27,-94,1039,-10,-85,-13
3799,416,-107,1096,3,-81,-2
3800,476,-58,1040,16,-9,5
3801,147,41,1002,11,62,16
3802,-285,84,916,-9,77,23
3803,-515,36,866,-25,28,8
3804,-279,-55,972,-22,-56,-11
3805,211,-111,1088,-5,-93,-9
3806,491,-97,1071,8,-51,2
3807,373,-5,1021,21,27,10
3808,-62,70,955,1,77,21
3809,-452,73,892,-17,62,17
3810,-461,-3,900,-27,-13,-4
3811,-67,-88,1032,-15,-81,-12
3812,405,-121,1096,2,-84,-2
3813,491,-62,1042,16,-18,5
3814,185,36,1009,15,58,16
3815,-263,81,923,-9,77,24
3816,-524,46,861,-24,34,8
3817,-309,-48,963,-24,-52,-10
3818,181,-113,1078,-3,-93,-9
3819,492,-104,1081,8,-57,3
3820,398,-13,1025,19,22,9
3821,-31,67,967,4,76,21
3822,-438,76,886,-17,66,20
3823,-474,4,895,-25,-6,-2
3824,-101,-89,1024,-18,-80,-12
3825,392,-117,1101,5,-85,-5
3826,498,-65,1049,13,-22,5
3827,215,31,1005,18,55,14
3828,-242,81,930,-8,79,24
3829,-524,52,860,-24,40,11
3830,-331,-40,956,-24,-47,-9
3831,148,-118,1072,-7,-92,-9
3832,491,-102,1086,10,-61,1
3833,414,-15,1029,18,15,10
3834,-7,63,967,5,75,19
3835,-420,85,897,-16,67,20
3836,-486,12,889,-27,1,0
3837,-132,-89,1022,-20,-78,-13
3838,370,-117,1100,2,-88,-4
3839,502,-75,1053,14,-27,4
3840,240,23,1009,15,52,13
3841,-221,78,930,-4,79,23
3842,-517,61,864,-25,44,12
3843,-349,-36,946,-22,-40,-9
3844,119,-112,1069,-11,-94,-10
3845,477,-105,1088,11,-65,2
3846,432,-31,1032,15,10,9
3847,19,55,966,8,73,19
3848,-393,84,902,-15,70,22
3849,-494,9,883,-29,5,2
3850,-163,-82,1017,-16,-73,-12
3851,341,-110,1099,-1,-90,-6
3852,502,-76,1053,15,-32,4
3853,271,17,1007,14,44,13
3854,-191,77,934,-1,81,23
3855,-501,59,874,-24,46,14
3856,-376,-33,938,-24,-34,-8
3857,79,-104,1064,-9,-91,-11
3858,464,-106,1086,7,-70,1
3859,439,-36,1034,18,4,8
3860,48,51,969,7,70,18
3861,-361,82,907,-10,73,24
3862,-500,14,879,-31,13,4
3863,-192,-73,1012,-16,-67,-12
3864,309,-112,1100,-3,-92,-5
3865,494,-90,1055,13,-36,3
3866,295,17,1015,19,41,12
3867,-157,77,933,-3,81,23
3868,-484,59,884,-22,50,16
3869,-398,-19,928,-26,-27,-6
3870,49,-100,1060,-10,-89,-11
3871,444,-112,1088,2,-74,0
3872,451,-38,1036,20,0,6
3873,81,48,976,6,67,17
3874,-329,81,909,-10,73,23
3875,-506,22,874,-28,17,4
3876,-221,-65,996,-19,-64,-12
3877,273,-113,1096,-3,-93,-6
3878,490,-87,1055,10,-42,4
3879,322,12,1021,18,36,11
3880,-121,69,938,-4,80,22
3881,-471,67,890,-19,55,16
3882,-420,-17,918,-28,-23,-6
3883,4,-97,1050,-10,-86,-12
3884,428,-116,1092,4,-77,0
3885,466,-48,1036,18,-5,7
3886,118,44,993,9,63,17
3887,-301,79,908,-11,76,23
3888,-513,40,876,-24,23,7
3889,-258,-59,983,-21,-59,-11
3890,240,-120,1089,-5,-93,-7
3891,488,-88,1064,11,-48,2
3892,355,-5,1018,16,31,10
3893,-86,64,951,-1,79,22
3894,-461,77,893,-17,59,18
3895,-444,-10,905,-27,-17,-4
3896,-34,-95,1038,-15,-84,-12
3897,413,-112,1097,4,-80,-2
3898,481,-53,1039,14,-11,6
3899,158,34,1002,13,60,16
3900,-283,84,916,-11,78,22
3901,-518,38,864,-25,29,9
3902,-290,-57,974,-25,-55,-10
3903,202,-112,1083,-3,-92,-9
3904,492,-100,1074,10,-54,2
3905,380,-7,1024,18,25,11
3906,-52,67,961,2,77,21
3907,-448,78,888,-20,62,19
3908,-464,0,901,-27,-12,-2
3909,-74,-95,1027,-17,-82,-12
3910,400,-111,1101,5,-83,-3
3911,496,-64,1045,11,-19,6
3912,191,27,1002,15,58,15
3913,-261,84,924,-9,78,23
3914,-519,45,863,-23,34,10
3915,-316,-46,965,-24,-50,-10
3916,173,-110,1073,-6,-93,-9
3917,493,-100,1086,9,-58,1
3918,402,-19,1021,17,21,9
3919,-28,68,968,7,77,20
3920,-432,79,893,-19,65,20
3921,-481,0,887,-26,-4,-1
3922,-108,-91,1026,-19,-79,-13
3923,390,-118,1099,5,-86,-4
3924,500,-73,1053,13,-22,5
3925,215,32,1003,17,55,13
3926,-238,84,929,-7,78,23
3927,-519,48,859,-27,39,12
3928,-338,-35,958,-19,-44,-10
3929,148,-111,1073,-11,-93,-10
3930,490,-107,1085,11,-61,1
3931,413,-16,1028,17,15,8
3932,0,64,964,7,75,19
3933,-416,77,899,-18,68,21
3934,-487,11,885,-25,2,-1
3935,-139,-86,1025,-17,-77,-12
3936,365,-121,1093,2,-88,-5
3937,506,-74,1054,16,-28,5
3938,245,29,1008,16,49,12
3939,-212,76,930,-4,80,23
3940,-518,58,867,-27,42,12
3941,-355,-32,940,-24,-40,-9
3942,113,-108,1070,-12,-94,-10
3943,476,-108,1088,8,-66,2
3944,430,-27,1031,15,8,9
3945,20,56,970,6,73,18
3946,-386,77,894,-12,70,21
3947,-497,22,886,-26,8,2
3948,-168,-78,1018,-16,-72,-13
3949,339,-116,1096,-2,-90,-4
3950,496,-75,1060,15,-31,4
3951,274,14,1005,12,44,12
3952,-185,72,933,-1,81,23
3953,-497,63,881,-23,47,14
3954,-376,-27,931,-24,-34,-8
3955,77,-109,1067,-11,-90,-11
3956,457,-107,1088,8,-69,1
3957,438,-33,1033,18,3,8
3958,54,47,967,6,72,17
3959,-354,87,914,-7,72,21
3960,-497,22,879,-31,11,3
3961,-195,-78,1003,-18,-66,-11
3962,301,-117,1098,-3,-92,-6
3963,494,-86,1052,13,-37,4
3964,297,13,1017,17,40,12
3965,-152,72,930,-1,80,22
3966,-482,66,886,-18,52,15
3967,-398,-22,926,-26,-27,-6
3968,41,-102,1062,-8,-88,-11
3969,440,-110,1087,5,-73,0
3970,457,-43,1033,18,-2,7
3971,84,50,981,10,66,17
3972,-326,86,909,-9,75,24
3973,-505,27,878,-28,19,7
3974,-228,-69,994,-19,-61,-11
3975,266,-112,1100,-2,-93,-7
3976,491,-91,1052,10,-42,4
3977,327,4,1016,19,35,10
3978,-116,74,945,1,79,23
3979,-466,73,890,-18,56,17
3980,-427,-17,914,-27,-22,-5
3981,0,-94,1050,-12,-85,-11
3982,422,-106,1097,4,-77,-1
3983,470,-58,1030,15,-7,6
3984,122,41,998,12,63,17
3985,-295,85,912,-11,76,23
3986,-512,30,870,-26,24,6
3987,-263,-58,983,-20,-57,-12
3988,235,-111,1091,-5,-94,-7
3989,486,-98,1064,11,-49,3
3990,361,-2,1020,19,29,9
3991,-80,67,951,0,78,22
3992,-454,69,891,-18,60,18
3993,-448,-6,906,-25,-17,-2
3994,-44,-92,1037,-13,-84,-12
3995,411,-117,1096,5,-81,-2
3996,483,-54,1043,16,-12,5
3997,164,37,1001,15,59,14
3998,-276,80,916,-11,77,23
3999,-521,45,867,-23,31,8
4000,-292,-50,966,-23,-55,-11
4001,197,-108,1091,-4,-93,-8
4002,493,-103,1067,8,-55,3
4003,384,-7,1029,19,25,9
4004,-48,60,960,0,77,20
4005,-447,74,893,-18,64,19
4006,-469,-2,894,-24,-10,-4
4007,-82,-87,1030,-15,-81,-11
4008,397,-112,1097,4,-83,-3
4009,497,-61,1048,13,-19,5
4010,198,34,1010,15,57,16
4011,-253,77,918,-12,78,25
4012,-524,47,870,-23,35,9
4013,-316,-51,959,-23,-49,-10
4014,166,-116,1080,-5,-93,-10
4015,491,-102,1079,12,-59,2
4016,403,-12,1024,18,18,9
4017,-24,61,967,6,75,20
4018,-427,82,892,-17,65,19
4019,-480,10,896,-27,-4,-2
4020,-111,-91,1017,-18,-78,-12
4021,382,-113,1102,3,-85,-3
4022,498,-69,1053,12,-24,6
4023,223,23,1006,14,53,14
4024,-238,84,928,-4,80,23
4025,-519,52,859,-26,38,12
4026,-341,-43,957,-24,-43,-8
4027,139,-113,1071,-9,-93,-10
4028,488,-106,1092,12,-63,2
4029,416,-25,1032,18,13,8
4030,4,60,960,7,74,20
4031,-410,88,902,-13,67,21
4032,-490,9,884,-28,4,-2
4033,-138,-84,1021,-18,-75,-11
4034,359,-114,1098,2,-89,-5
4035,507,-80,1054,13,-29,5
4036,253,21,1006,16,49,13
4037,-212,80,933,-3,81,22
4038,-509,58,870,-24,43,13
4039,-359,-35,941,-22,-37,-8
4040,105,-105,1067,-9,-92,-11
4041,474,-107,1090,9,-66,0
4042,431,-33,1029,15,8,8
4043,29,57,971,7,73,19
4044,-383,82,902,-13,71,22
4045,-496,11,878,-29,8,2
4046,-174,-77,1022,-16,-70,-12
4047,330,-115,1097,0,-91,-6
4048,498,-87,1053,15,-34,4
4049,272,17,1011,16,42,12
4050,-177,78,934,-2,80,23
4051,-497,58,876,-24,48,14
4052,-378,-25,939,-21,-31,-9
4053,73,-100,1067,-9,-91,-12
4054,453,-114,1084,3,-71,0
4055,441,-33,1030,23,3,8
4056,61,52,970,1,69,18
4057,-350,80,908,-6,73,20
4058,-497,19,877,-32,14,3
4059,-200,-66,1004,-14,-64,-11
4060,299,-119,1094,-6,-93,-6
4061,493,-80,1060,14,-38,4
4062,301,16,1015,18,39,12
4063,-148,68,930,-5,80,23
4064,-481,66,890,-17,51,15
4065,-404,-20,924,-30,-27,-6
4066,37,-102,1059,-9,-88,-10
4067,435,-115,1087,1,-74,-1
4068,454,-41,1035,21,-3,6
4069,91,51,987,9,66,18
4070,-323,83,906,-9,75,22
4071,-507,26,872,-27,18,5
4072,-236,-61,998,-18,-61,-12
4073,265,-119,1094,-4,-93,-6
4074,491,-86,1059,12,-43,5
4075,333,0,1017,19,34,10
4076,-109,65,944,-3,79,23
4077,-467,73,895,-16,57,16
4078,-425,-11,915,-27,-22,-4
4079,-9,-100,1046,-11,-85,-11
4080,422,-111,1093,5,-78,-3
4081,474,-46,1040,17,-6,5
4082,131,39,993,11,62,16
4083,-297,88,914,-7,76,23
4084,-514,37,871,-25,25,8
4085,-268,-59,978,-23,-56,-10
4086,227,-113,1094,-3,-92,-10
4087,490,-94,1062,9,-49,3
4088,363,-10,1020,20,30,9
4089,-75,67,953,0,78,21
4090,-456,77,889,-19,60,18
4091,-451,-10,906,-26,-17,-3
4092,-48,-90,1038,-14,-82,-11
4093,407,-109,1095,4,-83,-2
4094,487,-58,1045,16,-12,6
4095,168,36,1003,14,60,15
4096,-272,83,914,-9,76,25
4097,-520,41,867,-23,31,8
4098,-296,-53,964,-24,-53,-12
4099,196,-111,1086,-4,-92,-9
4100,492,-100,1076,7,-54,3
4101,390,-14,1024,20,25,9
4102,-48,66,957,0,77,20
4103,-443,79,894,-15,63,19
4104,-470,-3,896,-27,-8,-2
4105,-88,-86,1026,-17,-81,-11
4106,400,-120,1099,2,-84,-3
4107,495,-69,1049,13,-19,6
4108,197,29,1005,16,58,14
4109,-251,79,925,-11,77,24
4110,-523,46,857,-23,37,10
4111,-322,-44,955,-24,-48,-11
4112,169,-107,1081,-5,-93,-9
4113,489,-104,1088,8,-59,2
4114,404,-15,1025,18,19,9
4115,-20,69,969,3,77,20
4116,-428,69,887,-20,66,21
4117,-484,7,892,-23,-2,-1
4118,-114,-87,1024,-19,-78,-12
4119,382,-116,1099,4,-87,-4
4120,499,-66,1052,15,-24,4
4121,229,30,1006,15,53,14
4122,-230,80,933,-7,79,23
4123,-520,56,863,-23,40,10
4124,-337,-41,946,-22,-43,-10
4125,133,-112,1073,-9,-92,-9
4126,484,-109,1089,11,-62,1
4127,420,-23,1032,17,13,8
4128,4,55,966,6,75,20
4129,-407,82,896,-13,69,21
4130,-489,13,884,-27,4,0
4131,-147,-85,1021,-18,-75,-12
4132,356,-113,1100,2,-88,-4
4133,501,-77,1053,13,-29,4
4134,255,20,1008,14,48,13
4135,-207,75,932,-5,80,23
4136,-508,60,867,-23,43,13
4137,-357,-34,942,-23,-38,-9
4138,102,-109,1067,-10,-91,-11
4139,473,-105,1088,9,-66,2
4140,434,-29,1030,16,8,8
4141,33,56,968,8,73,20
4142,-379,83,904,-14,71,22
4143,-496,19,884,-28,9,2
4144,-175,-82,1011,-18,-71,-12
4145,326,-111,1100,1,-91,-4
4146,501,-81,1055,14,-34,4
4147,277,14,1010,15,43,11
4148,-180,77,936,0,83,21
4149,-494,63,878,-23,48,14
4150,-383,-31,930,-24,-31,-7
4151,70,-103,1067,-11,-91,-10
4152,455,-109,1084,6,-71,0
4153,444,-40,1035,18,2,9
4154,58,51,971,7,70,18
4155,-347,81,906,-12,73,22
4156,-498,17,879,-27,14,3
4157,-201,-74,1008,-17,-66,-13
4158,297,-112,1094,-2,-93,-6
4159,496,-88,1052,11,-38,3
4160,305,13,1013,18,39,11
4161,-149,77,938,-2,80,22
4162,-479,64,889,-21,52,16
4163,-405,-21,922,-26,-27,-5
4164,32,-102,1051,-11,-89,-12
4165,440,-114,1093,5,-76,-1
4166,457,-47,1033,19,-2,7
4167,97,47,985,11,66,17
4168,-323,86,912,-11,75,23
4169,-509,25,870,-29,19,4
4170,-236,-61,994,-18,-61,-12
4171,259,-113,1098,-4,-92,-7
4172,492,-95,1055,9,-44,5
4173,335,6,1022,19,34,10
4174,-109,68,943,-3,79,22
4175,-465,69,892,-17,56,17
4176,-434,-12,914,-27,-21,-6
4177,-7,-93,1046,-11,-85,-11
4178,422,-114,1091,2,-80,-2
4179,473,-50,1036,18,-8,6
4180,135,42,994,12,62,16
4181,-295,84,912,-10,77,23
4182,-514,36,870,-25,25,7
4183,-267,-53,979,-21,-57,-12
4184,227,-116,1091,-5,-92,-7
4185,490,-94,1068,9,-49,3
4186,363,-4,1019,20,29,10
4187,-72,61,952,-1,78,22
4188,-456,76,892,-17,62,19
4189,-447,-10,901,-26,-15,-4
4190,-49,-93,1037,-13,-83,-11
4191,407,-115,1099,5,-82,-3
4192,488,-56,1041,14,-14,5
4193,168,36,1006,11,61,16
4194,-270,79,914,-9,77,23
4195,-521,44,867,-24,30,8
4196,-294,-56,966,-25,-54,-11
4197,197,-113,1085,-3,-93,-10
4198,491,-98,1073,11,-53,2
4199,388,-9,1026,19,24,10
4200,-48,67,960,2,77,22
4201,-443,80,886,-17,64,18
4202,-467,1,902,-26,-10,-2
4203,-81,-92,1026,-16,-80,-12
4204,396,-111,1101,5,-84,-4
4205,497,-68,1045,13,-19,5
4206,198,30,1008,16,56,14
4207,-257,83,925,-10,79,23
4208,-521,47,863,-25,34,10
4209,-319,-47,959,-24,-50,-11
4210,168,-112,1074,-6,-93,-10
4211,492,-101,1087,8,-59,3
4212,405,-22,1028,16,18,10
4213,-20,65,964,7,77,20
4214,-430,81,890,-16,66,20
4215,-483,2,890,-26,-3,0
4216,-117,-90,1024,-17,-79,-13
4217,385,-116,1100,6,-87,-3
4218,504,-71,1052,13,-25,5
4219,225,27,1006,16,53,13
4220,-231,84,929,-6,78,22
4221,-519,49,862,-27,40,13
4222,-340,-37,955,-23,-42,-9
4223,135,-108,1071,-9,-92,-11
4224,490,-109,1087,9,-62,2
4225,418,-25,1028,18,13,7
4226,3,61,966,7,74,18
4227,-410,79,901,-16,67,21
4228,-490,12,884,-26,3,-1
4229,-144,-84,1019,-15,-75,-13
4230,359,-113,1101,-1,-88,-3
4231,503,-77,1055,15,-29,5
4232,248,25,1009,16,48,13
4233,-209,80,932,-7,80,23
4234,-510,51,867,-26,43,12
4235,-358,-33,945,-21,-37,-10
4236,106,-109,1069,-10,-92,-10
4237,475,-111,1087,10,-68,1
4238,429,-24,1031,20,8,7
4239,28,59,966,6,72,20
4240,-381,83,904,-12,70,23
4241,-493,19,881,-28,8,2
4242,-168,-76,1018,-19,-71,-11
4243,330,-119,1096,-2,-91,-4
4244,499,-82,1053,13,-33,4
4245,275,18,1011,18,44,12
4246,-181,69,931,-4,81,22
4247,-497,62,880,-22,48,13
4248,-382,-24,934,-23,-31,-9
4249,73,-110,1065,-11,-91,-11
4250,455,-109,1089,7,-71,0
4251,446,-41,1032,19,2,6
4252,59,49,973,8,70,18
4253,-352,84,909,-10,74,22
4254,-503,22,877,-29,13,3
4255,-206,-70,1004,-17,-65,-12
4256,297,-115,1101,-3,-93,-5
4257,494,-86,1054,13,-38,4
4258,306,9,1011,15,37,10
4259,-143,72,934,1,81,22
4260,-478,66,889,-20,51,16
4261,-405,-15,929,-25,-26,-6
4262,28,-98,1056,-10,-88,-12
4263,438,-110,1087,4,-76,-1
4264,461,-46,1035,17,-1,7
4265,98,41,983,8,66,17
4266,-320,85,911,-11,76,22
4267,-511,26,874,-30,19,5
4268,-236,-65,987,-17,-61,-12
4269,257,-110,1099,-5,-94,-7
4270,495,-92,1055,10,-45,4
4271,337,4,1020,20,33,10
4272,-111,70,944,-1,80,22
4273,-464,74,896,-17,57,18
4274,-434,-18,911,-29,-21,-6
4275,-11,-103,1045,-12,-85,-11
4276,418,-111,1096,4,-79,-1
4277,474,-60,1036,15,-9,6
4278,134,42,998,15,62,16
4279,-292,86,913,-10,76,24
4280,-513,36,873,-25,25,7
4281,-269,-52,981,-20,-57,-11
4282,225,-111,1090,-3,-93,-7
4283,489,-95,1063,7,-49,3
4284,366,-3,1023,20,29,9
4285,-72,66,951,1,77,21
4286,-453,69,891,-21,61,18
4287,-454,-6,906,-26,-14,-4
4288,-52,-92,1031,-14,-83,-12
4289,409,-113,1100,4,-82,-2
4290,488,-59,1039,15,-14,6
4291,170,38,1006,14,59,13
4292,-270,85,922,-10,77,24
4293,-516,42,863,-26,30,10
4294,-299,-50,964,-25,-54,-11
4295,192,-112,1083,-6,-93,-9
4296,493,-103,1078,11,-55,2
4297,386,-8,1026,20,24,10
4298,-39,66,961,2,76,21
4299,-446,74,890,-17,64,18
4300,-469,1,898,-25,-9,-3
4301,-87,-89,1027,-19,-81,-11
4302,394,-121,1094,4,-85,-3
4303,499,-65,1048,16,-19,5
4304,203,37,1010,15,56,16
4305,-249,79,925,-11,77,23
4306,-526,55,865,-25,37,9
4307,-323,-46,956,-26,-49,-11
4308,165,-120,1074,-6,-93,-9
4309,491,-103,1085,11,-59,2
4310,409,-18,1027,20,18,9
4311,-13,58,965,4,77,22
4312,-430,82,896,-17,67,21
4313,-486,12,890,-25,-2,-1
4314,-124,-89,1020,-19,-79,-12
4315,379,-114,1099,4,-88,-5
4316,504,-67,1050,13,-24,4
4317,232,30,1010,14,53,14
4318,-230,75,927,-6,79,24
4319,-518,57,862,-24,43,12
4320,-345,-41,948,-22,-42,-9
4321,129,-112,1069,-11,-94,-11
4322,485,-97,1094,11,-64,1
4323,424,-25,1031,15,13,8
4324,12,60,962,7,75,21
4325,-404,87,902,-15,69,20
4326,-489,8,885,-27,4,1
4327,-154,-83,1016,-19,-75,-11
4328,351,-119,1099,-1,-91,-5
4329,501,-77,1058,16,-30,5
4330,258,16,1004,13,47,13
4331,-200,76,932,0,81,23
4332,-507,63,871,-24,45,14
4333,-366,-33,938,-22,-36,-7
4334,94,-103,1071,-12,-93,-10
4335,468,-108,1090,8,-67,1
4336,436,-40,1028,17,7,7
4337,39,53,968,6,72,19
4338,-371,87,906,-12,72,22
4339,-500,17,878,-29,9,2
4340,-184,-77,1016,-15,-69,-13
4341,320,-114,1097,-2,-92,-5
4342,502,-90,1052,12,-36,4
4343,286,15,1011,14,42,13
4344,-168,80,934,0,81,22
4345,-491,58,883,-25,49,16
4346,-391,-24,928,-24,-31,-7
4347,57,-99,1063,-11,-91,-12
4348,448,-114,1086,3,-72,0
4349,446,-37,1035,19,1,8
4350,71,51,977,6,68,18
4351,-335,79,908,-10,74,23
4352,-503,23,877,-29,16,3
4353,-218,-67,999,-17,-65,-12
4354,284,-115,1098,-2,-94,-6
4355,491,-89,1053,12,-40,2
4356,319,11,1019,19,37,11
4357,-127,73,942,-2,79,24
4358,-474,65,886,-19,55,16
4359,-416,-14,922,-28,-25,-7
4360,14,-101,1050,-10,-87,-11
4361,430,-117,1090,2,-76,-1
4362,464,-46,1042,19,-3,6
4363,114,36,984,7,64,17
4364,-307,79,910,-8,76,22
4365,-511,32,876,-24,21,4
4366,-249,-55,988,-21,-60,-11
4367,241,-114,1092,-3,-93,-7
4368,492,-87,1060,11,-48,3
4369,349,2,1019,20,32,10
4370,-91,58,948,-4,78,23
4371,-462,72,894,-15,59,18
4372,-439,-12,907,-29,-19,-4
4373,-28,-97,1042,-12,-84,-11
4374,413,-113,1095,1,-81,-2
4375,479,-50,1038,18,-9,7
4376,149,36,1002,12,62,17
4377,-282,88,916,-8,76,23
4378,-516,45,868,-25,28,7
4379,-283,-56,971,-25,-56,-11
4380,214,-114,1093,-3,-93,-8
4381,490,-97,1073,7,-52,2
4382,381,-15,1021,19,27,10
4383,-60,61,952,1,78,22
4384,-451,81,891,-16,64,19
4385,-463,-2,902,-27,-12,-3
4386,-70,-90,1033,-14,-82,-12
4387,401,-112,1097,3,-82,-3
4388,499,-67,1044,9,-18,5
4389,188,32,1005,15,58,14
4390,-262,83,923,-8,79,22
4391,-523,44,863,-28,34,9
4392,-313,-51,957,-20,-52,-8
4393,177,-113,1079,-12,-93,-9
4394,496,-101,1088,16,-57,2
4395,401,-21,1024,13,21,9
4396,-28,67,964,10,77,21
4397,-436,84,894,-21,65,20
4398,-478,1,888,-23,-5,-2
4399,-114,-88,1021,-20,-80,-13
4400,390,-114,1103,6,-87,-4
4401,505,-73,1049,12,-23,6
4402,218,31,1007,15,55,14
4403,-239,83,925,-8,80,23
4404,-522,49,865,-25,39,10
4405,-337,-38,957,-20,-45,-10
4406,142,-105,1073,-9,-93,-10
4407,487,-106,1086,10,-62,2
4408,416,-25,1024,15,14,9
4409,0,66,970,9,75,20
4410,-415,76,896,-19,67,20
4411,-490,9,885,-26,2,1
4412,-139,-82,1022,-19,-76,-12
4413,365,-121,1094,2,-89,-4
4414,502,-73,1055,16,-29,4
4415,246,29,1009,15,49,13
4416,-213,81,931,-5,80,24
4417,-512,54,865,-25,43,13
4418,-356,-35,943,-22,-39,-10
4419,114,-109,1072,-12,-93,-10
4420,478,-112,1086,10,-66,1
4421,429,-28,1029,17,9,8
4422,25,58,970,6,73,19
4423,-387,79,899,-12,70,20
4424,-495,16,884,-28,7,2
4425,-168,-79,1018,-16,-72,-13
4426,336,-117,1093,-2,-92,-4
4427,499,-70,1058,17,-32,4
4428,277,16,1007,12,43,12
4429,-183,75,936,-1,81,24
4430,-499,59,875,-25,48,14
4431,-378,-26,934,-22,-33,-6
4432,72,-106,1063,-10,-90,-11
4433,458,-112,1086,9,-71,-1
4434,442,-35,1033,18,3,8
4435,55,44,971,7,71,19
4436,-352,86,910,-8,73,22
4437,-501,26,879,-30,13,3
4438,-200,-76,1004,-16,-66,-11
4439,298,-114,1096,-3,-94,-6
4440,495,-82,1055,15,-38,3
4441,301,8,1013,15,39,10
4442,-147,70,934,1,80,22
4443,-482,63,886,-23,52,17
4444,-403,-27,925,-24,-27,-6
4445,34,-102,1057,-10,-89,-11
4446,437,-106,1093,6,-75,0
4447,459,-41,1030,17,-1,6
4448,90,50,986,9,67,16
4449,-319,83,907,-11,76,22
4450,-507,28,882,-29,19,6
4451,-234,-66,990,-18,-62,-12
4452,262,-111,1095,-5,-94,-6
4453,490,-91,1055,11,-43,4
4454,337,-2,1021,18,34,11
4455,-114,69,943,1,80,21
4456,-467,71,895,-16,56,16
4457,-430,-15,911,-26,-21,-5
