sequence,AccelerometerX,AccelerometerY,AccelerometerZ,GyroscopeX,GyroscopeY,GyroscopeZ
0,-52,45,990,-5,70,18
1,-416,47,910,-10,51,16
2,-465,-19,883,-18,-16,-6
3,-104,-77,1030,-8,-76,-4
4,357,-70,1093,3,-76,7
5,463,-20,1012,6,-11,3
6,208,27,1024,3,52,8
7,-210,60,963,-10,68,20
8,-496,18,861,-14,32,8
9,-365,-45,937,-11,-43,-8
10,111,-88,1075,-4,-85,2
11,446,-50,1069,3,-54,7
12,408,4,1012,11,17,1
13,37,38,1003,-2,69,14
14,-373,54,924,-10,61,19
15,-493,-9,863,-17,2,-1
16,-201,-70,1005,-13,-69,-6
17,305,-72,1101,3,-83,7
18,475,-29,1025,3,-26,5
19,279,21,1018,8,43,4
20,-147,52,976,-7,72,18
21,-463,34,881,-13,41,13
22,-409,-38,908,-17,-30,-7
23,13,-80,1064,-4,-85,-2
24,408,-60,1076,1,-65,8
25,432,-13,1011,10,3,3
26,110,31,1004,-1,62,12
27,-287,59,950,-8,66,21
28,-487,1,864,-18,15,3
29,-285,-51,974,-11,-55,-7
30,204,-79,1094,-3,-87,5
31,453,-42,1037,5,-40,7
32,349,9,1015,7,31,2
33,-45,45,993,-6,70,17
34,-415,48,908,-11,52,17
35,-467,-24,880,-19,-16,-5
36,-112,-71,1028,-9,-76,-4
37,359,-69,1092,2,-78,7
38,462,-25,1017,6,-12,2
39,211,24,1021,6,54,7
40,-207,63,966,-8,70,22
41,-499,18,864,-14,31,8
42,-366,-41,933,-14,-45,-9
43,100,-78,1077,-7,-86,1
44,452,-59,1069,5,-55,8
45,408,6,1011,7,17,1
46,38,42,1005,3,68,12
47,-369,45,921,-12,60,20
48,-495,-10,864,-15,3,-1
49,-205,-67,1010,-11,-71,-8
50,305,-76,1098,0,-83,7
51,469,-26,1030,9,-25,5
52,282,22,1011,3,42,4
53,-144,53,981,-4,73,21
54,-469,32,887,-17,40,14
55,-410,-34,904,-12,-29,-7
56,9,-80,1064,-8,-85,-1
57,406,-67,1073,3,-65,8
58,434,-5,1015,8,2,1
59,107,30,1000,0,62,10
60,-277,60,951,-7,65,22
61,-494,4,868,-18,16,4
62,-286,-56,968,-10,-56,-8
63,199,-78,1102,-4,-88,4
64,452,-47,1030,5,-40,6
65,353,16,1014,9,29,2
66,-42,40,991,-6,70,17
67,-412,46,913,-9,52,17
68,-465,-24,881,-18,-15,-4
69,-112,-76,1027,-10,-76,-4
70,353,-67,1094,2,-76,8
71,463,-20,1014,7,-11,3
72,214,26,1026,4,53,8
73,-210,60,965,-8,69,22
74,-497,22,862,-15,31,10
75,-365,-47,936,-15,-43,-6
76,100,-83,1076,-5,-86,1
77,447,-54,1066,6,-55,8
78,406,2,1011,7,16,2
79,38,39,1003,-1,67,13
80,-364,51,927,-11,59,19
81,-494,-6,865,-17,3,0
82,-207,-71,1005,-11,-68,-7
83,299,-71,1100,-3,-83,5
84,467,-31,1026,6,-26,5
85,284,17,1014,3,41,4
86,-143,53,980,-4,73,19
87,-460,33,885,-15,41,13
88,-412,-37,907,-15,-29,-7
89,0,-77,1060,-6,-83,-1
90,407,-62,1074,2,-66,8
91,434,-9,1015,9,2,3
92,116,32,1003,-1,62,10
93,-274,62,949,-5,67,21
94,-494,3,868,-18,17,3
95,-291,-57,964,-9,-55,-8
96,192,-75,1098,-3,-87,4
97,451,-49,1035,3,-40,6
98,359,14,1012,9,30,2
99,-40,50,996,-5,70,17
100,-409,41,909,-10,54,18
101,-468,-20,883,-18,-15,-4
102,-125,-70,1025,-9,-75,-5
103,359,-74,1093,0,-77,8
104,465,-21,1018,8,-13,3
105,220,25,1018,6,52,6
106,-202,63,974,-7,70,23
107,-501,18,862,-16,34,8
108,-369,-47,929,-14,-44,-7
109,94,-79,1077,-6,-85,1
110,449,-62,1072,5,-56,7
111,411,7,1011,7,15,0
112,47,43,1003,0,68,14
113,-360,44,926,-11,60,20
114,-497,-4,869,-17,5,0
115,-214,-69,1003,-11,-67,-7
116,293,-75,1102,-2,-87,6
117,470,-32,1022,8,-27,5
118,292,19,1014,4,41,4
119,-134,48,979,-3,72,19
120,-455,31,891,-15,43,13
121,-419,-29,904,-15,-27,-7
122,-6,-77,1061,-8,-85,-1
123,397,-66,1075,2,-66,9
124,439,-7,1012,9,0,2
125,128,29,1005,0,59,9
126,-267,62,951,-7,68,21
127,-490,8,866,-19,17,4
128,-301,-55,966,-14,-54,-7
129,181,-79,1094,-4,-86,4
130,448,-48,1036,4,-43,7
131,364,13,1017,8,29,3
132,-29,46,997,-7,71,16
133,-405,45,910,-9,53,16
134,-473,-15,881,-18,-11,-3
135,-129,-78,1019,-10,-75,-4
136,349,-72,1098,3,-77,7
137,468,-17,1021,5,-13,3
138,227,19,1021,3,51,7
139,-201,61,971,-6,69,20
140,-496,20,860,-17,34,9
141,-373,-47,928,-16,-43,-8
142,88,-82,1077,-4,-87,0
143,448,-56,1066,4,-56,8
144,413,3,1016,9,13,2
145,46,40,1000,0,68,13
146,-356,55,929,-9,61,20
147,-494,-6,869,-16,4,0
148,-219,-67,999,-10,-66,-7
149,285,-72,1098,-3,-84,6
150,470,-35,1034,7,-28,6
151,294,10,1008,3,41,4
152,-125,55,982,-3,73,19
153,-453,33,894,-13,43,14
154,-423,-31,898,-14,-25,-7
155,-17,-69,1060,-6,-83,-2
156,398,-65,1077,1,-69,8
157,440,-8,1013,9,1,2
158,134,28,1010,-1,61,9
159,-258,55,950,-8,68,21
160,-493,7,869,-18,20,5
161,-309,-56,958,-10,-53,-8
162,174,-80,1096,-4,-87,3
163,451,-50,1038,4,-43,7
164,371,8,1016,8,27,2
165,-18,48,1000,-3,70,16
166,-403,43,910,-11,54,18
167,-477,-16,881,-17,-11,-3
168,-139,-70,1015,-11,-74,-5
169,349,-73,1099,0,-78,8
170,466,-25,1022,7,-17,4
171,233,25,1020,6,50,7
172,-190,55,970,-5,69,21
173,-498,23,867,-15,34,9
174,-378,-41,925,-12,-40,-8
175,80,-81,1073,-8,-87,0
176,444,-58,1073,6,-56,9
177,415,4,1012,6,14,2
178,57,37,998,0,67,14
179,-349,55,936,-11,62,19
180,-492,-8,861,-17,6,0
181,-224,-67,1003,-9,-65,-7
182,275,-77,1099,-4,-84,4
183,468,-37,1025,9,-30,5
184,299,21,1015,2,39,3
185,-120,52,978,-5,73,19
186,-446,35,897,-15,43,14
187,-427,-27,897,-13,-24,-6
188,-21,-79,1053,-10,-82,-2
189,389,-67,1081,3,-69,8
190,439,-9,1012,7,0,1
191,139,22,1010,0,59,9
192,-261,62,955,-6,68,21
193,-492,9,863,-16,21,5
194,-315,-56,959,-12,-53,-8
195,169,-79,1092,-5,-87,3
196,452,-47,1038,6,-44,7
197,371,10,1018,6,26,3
198,-15,43,1001,-5,70,16
199,-405,47,909,-11,57,18
200,-478,-18,879,-17,-10,-3
201,-143,-76,1014,-13,-74,-5
202,344,-71,1096,3,-77,7
203,471,-24,1024,6,-17,3
204,238,21,1022,6,53,6
205,-191,63,969,-6,70,20
206,-491,22,867,-18,34,10
207,-381,-46,924,-13,-40,-9
208,75,-83,1072,-5,-87,0
209,441,-56,1071,6,-57,8
210,416,3,1016,6,13,1
211,57,37,998,1,68,13
212,-347,57,933,-13,62,20
213,-494,-9,866,-15,8,1
214,-229,-64,1000,-11,-65,-6
215,271,-71,1096,-1,-86,7
216,467,-39,1032,7,-31,5
217,301,17,1012,6,37,4
218,-114,52,981,-6,72,18
219,-446,35,898,-13,45,14
220,-431,-30,896,-14,-24,-5
221,-36,-75,1055,-7,-80,-2
222,391,-70,1078,1,-70,8
223,442,-9,1011,7,-2,3
224,148,30,1008,3,59,8
225,-246,58,954,-9,67,22
226,-496,13,870,-15,20,5
227,-320,-57,950,-14,-51,-9
228,164,-79,1093,-1,-88,3
229,453,-53,1047,1,-45,7
230,377,9,1012,9,25,1
231,-9,51,1003,-4,68,16
232,-402,45,910,-12,58,18
233,-483,-12,874,-16,-9,-4
234,-152,-71,1019,-11,-75,-5
235,344,-77,1095,1,-78,6
236,472,-23,1025,6,-18,4
237,242,24,1015,6,50,6
238,-186,54,975,-8,70,22
239,-497,23,863,-14,35,10
240,-382,-41,925,-14,-40,-9
241,74,-83,1072,-7,-85,1
242,438,-55,1072,5,-58,9
243,416,4,1012,7,10,1
244,61,35,997,-2,67,12
245,-345,54,937,-10,62,21
246,-493,-6,862,-18,7,0
247,-230,-68,999,-11,-64,-7
248,270,-79,1099,-1,-86,5
249,465,-39,1028,8,-29,5
250,304,20,1013,6,38,5
251,-112,51,981,-5,73,19
252,-443,38,900,-12,47,15
253,-435,-25,893,-17,-25,-6
254,-33,-76,1055,-7,-82,-3
255,387,-69,1079,1,-69,7
256,447,-10,1009,7,-3,2
257,151,21,1012,0,58,8
258,-249,57,956,-8,69,21
259,-494,14,868,-17,22,6
260,-323,-58,951,-15,-51,-8
261,160,-76,1092,-1,-87,4
262,452,-49,1047,3,-47,7
263,381,5,1015,10,25,1
264,-5,50,1000,-5,70,16
265,-402,51,910,-12,56,18
266,-482,-21,872,-18,-8,-2
267,-157,-73,1017,-9,-73,-5
268,338,-74,1094,2,-80,6
269,474,-27,1021,5,-18,4
270,248,24,1020,5,50,7
271,-187,57,974,-5,71,20
272,-492,24,869,-16,37,10
273,-388,-37,924,-15,-39,-7
274,65,-84,1070,-6,-87,0
275,440,-55,1072,4,-60,8
276,421,-1,1013,6,9,2
277,64,36,998,-2,67,12
278,-338,62,938,-9,62,21
279,-490,-10,864,-22,8,0
280,-238,-63,998,-10,-63,-8
281,262,-74,1098,-4,-87,6
282,466,-43,1029,8,-30,6
283,307,19,1014,5,38,3
284,-99,54,983,-4,72,19
285,-438,34,901,-13,47,15
286,-438,-24,897,-17,-22,-7
287,-42,-77,1047,-6,-82,-4
288,385,-70,1081,1,-70,9
289,442,-12,1012,10,-3,2
290,161,29,1012,0,56,8
291,-249,58,956,-7,69,21
292,-493,10,863,-17,21,4
293,-324,-46,951,-12,-51,-8
294,151,-81,1090,-5,-86,2
295,453,-57,1048,4,-48,6
296,379,12,1017,9,26,1
297,0,41,1000,-3,69,16
298,-398,51,914,-12,56,18
299,-489,-16,868,-16,-7,-2
300,-160,-72,1021,-12,-74,-6
301,335,-77,1095,2,-80,8
302,472,-24,1024,7,-20,5
303,247,28,1018,5,50,6
304,-177,49,975,-7,69,20
305,-493,29,870,-16,38,11
306,-388,-37,919,-14,-37,-9
307,63,-82,1069,-9,-88,-1
308,432,-58,1071,6,-58,8
309,425,-1,1016,6,8,1
310,67,35,1001,0,66,12
311,-331,56,936,-11,63,20
312,-490,-2,865,-17,8,2
313,-242,-68,996,-12,-63,-7
314,255,-77,1100,-1,-86,5
315,460,-37,1027,7,-33,5
316,314,12,1013,6,36,5
317,-98,51,983,-5,74,18
318,-434,40,901,-12,46,15
319,-441,-25,894,-17,-21,-5
320,-54,-75,1046,-8,-80,-4
321,380,-66,1081,2,-72,8
322,449,-15,1011,5,-3,3
323,166,22,1017,2,56,9
324,-242,59,957,-7,67,22
325,-492,13,861,-15,25,7
326,-334,-52,946,-16,-50,-8
327,147,-76,1091,-1,-86,2
328,451,-50,1048,2,-48,7
329,393,9,1017,9,22,2
330,7,43,1002,0,70,14
331,-398,50,914,-11,59,18
332,-489,-19,874,-18,-7,-2
333,-168,-75,1011,-12,-72,-4
334,332,-68,1098,3,-81,8
335,474,-30,1029,6,-21,4
336,255,23,1014,6,49,4
337,-178,63,979,-5,69,21
338,-488,25,868,-18,37,11
339,-392,-39,915,-13,-35,-7
340,48,-78,1071,-7,-87,-1
341,433,-62,1074,3,-60,9
342,424,-3,1013,8,8,2
343,77,35,996,-1,66,12
344,-322,55,942,-10,64,21
345,-494,-5,865,-17,11,1
346,-254,-60,990,-6,-62,-7
347,242,-74,1098,-2,-85,6
348,462,-39,1030,7,-34,6
349,321,18,1015,6,34,3
350,-85,46,983,-8,73,19
351,-427,37,909,-8,48,16
352,-448,-25,886,-21,-21,-5
353,-68,-73,1042,-4,-79,-4
354,376,-75,1085,-3,-74,8
355,450,-14,1013,12,-4,2
356,181,26,1016,-1,56,8
357,-231,60,961,-4,67,20
358,-501,13,864,-16,26,5
359,-339,-45,943,-13,-49,-9
360,130,-79,1090,-6,-86,2
361,453,-55,1053,3,-49,7
362,395,12,1016,9,22,3
363,13,40,1004,-2,68,15
364,-387,50,916,-10,59,18
365,-492,-8,868,-17,-3,-1
366,-180,-74,1011,-9,-72,-5
367,325,-76,1097,0,-79,6
368,476,-24,1027,8,-22,4
369,264,21,1014,3,47,5
370,-168,54,979,-4,72,21
371,-483,31,874,-16,39,12
372,-396,-38,913,-15,-34,-7
373,39,-81,1072,-8,-85,-1
374,422,-60,1068,2,-62,8
375,428,-1,1014,8,6,2
376,86,33,1001,-2,65,12
377,-308,55,940,-9,64,20
378,-492,4,870,-18,13,4
379,-266,-63,981,-12,-60,-7
380,230,-76,1101,-2,-87,3
381,457,-38,1028,4,-36,5
382,336,7,1011,7,33,2
383,-68,53,990,-3,72,18
384,-424,44,905,-10,51,16
385,-456,-25,888,-17,-19,-4
386,-87,-72,1036,-9,-77,-3
387,367,-70,1086,1,-76,8
388,460,-17,1017,6,-9,2
389,195,25,1021,4,55,8
390,-219,62,961,-9,70,22
391,-498,18,866,-15,29,8
392,-356,-51,937,-16,-47,-8
393,119,-80,1081,-3,-86,2
394,454,-59,1062,5,-52,8
395,405,2,1016,6,20,1
396,27,43,1004,-1,69,13
397,-380,52,919,-12,59,19
398,-495,-13,868,-16,-1,-1
399,-193,-70,1008,-10,-70,-6
400,311,-73,1098,0,-81,7
401,478,-30,1028,8,-24,5
402,273,20,1013,4,44,5
403,-156,60,980,-3,72,20
404,-471,28,880,-16,40,12
405,-409,-36,905,-13,-30,-7
406,17,-73,1065,-7,-85,-2
407,417,-65,1073,2,-64,8
408,430,-7,1010,8,4,0
409,105,33,1005,-2,62,10
410,-288,56,945,-6,65,22
411,-495,2,867,-19,14,2
412,-277,-54,975,-9,-57,-8
413,212,-77,1099,-5,-89,5
414,454,-44,1031,4,-38,6
415,344,14,1014,9,32,2
416,-49,47,993,-5,70,16
417,-417,43,910,-12,53,16
418,-463,-22,883,-19,-15,-5
419,-106,-73,1033,-7,-77,-3
420,360,-74,1088,1,-75,8
421,462,-20,1016,7,-10,3
422,208,26,1023,7,54,6
423,-208,62,968,-9,69,21
424,-501,20,860,-14,31,8
425,-363,-46,937,-15,-46,-8
426,106,-86,1079,-6,-85,2
427,446,-54,1063,4,-53,8
428,408,7,1012,6,16,2
429,37,39,1002,-2,69,15
430,-371,55,923,-12,59,18
431,-495,-10,865,-15,2,-2
432,-202,-68,1007,-11,-69,-5
433,303,-73,1098,0,-83,7
434,471,-30,1028,7,-27,3
435,285,19,1013,4,43,4
436,-143,51,979,-6,74,19
437,-464,36,889,-13,42,13
438,-413,-33,902,-15,-28,-6
439,2,-80,1065,-9,-85,-1
440,407,-64,1073,5,-65,8
441,436,-9,1008,7,2,2
442,118,29,1006,-1,61,11
443,-277,60,947,-7,67,21
444,-495,9,868,-15,17,5
445,-295,-58,968,-14,-55,-8
446,194,-80,1096,-2,-87,4
447,453,-42,1035,4,-41,8
448,361,5,1015,6,30,2
449,-34,47,997,-4,71,16
450,-408,48,910,-9,54,17
451,-472,-23,879,-17,-14,-4
452,-128,-68,1023,-10,-76,-5
453,351,-70,1094,1,-78,8
454,468,-23,1019,5,-13,4
455,222,24,1025,7,53,6
456,-201,62,970,-8,70,20
457,-495,20,862,-15,34,10
458,-374,-45,929,-14,-42,-8
459,88,-78,1073,-6,-86,1
460,449,-56,1071,2,-57,8
461,412,2,1014,7,15,2
462,50,42,1001,-1,68,13
463,-361,51,931,-11,61,19
464,-494,-12,868,-17,5,-1
465,-218,-65,999,-10,-67,-6
466,286,-71,1101,0,-84,5
467,470,-36,1028,5,-29,5
468,292,19,1010,6,40,5
469,-127,53,985,-5,71,20
470,-450,31,889,-15,43,14
471,-423,-29,899,-16,-27,-7
472,-16,-76,1060,-5,-85,-3
473,396,-70,1076,-1,-68,9
474,436,-7,1012,8,1,3
475,132,29,1008,0,59,9
476,-260,57,953,-5,68,21
477,-495,7,870,-16,19,4
478,-308,-54,956,-13,-52,-7
479,174,-80,1094,-3,-88,4
480,450,-50,1039,4,-43,7
481,374,13,1017,8,28,1
482,-17,42,1001,-6,69,16
483,-406,45,909,-11,55,17
484,-479,-13,876,-16,-11,-4
485,-141,-75,1018,-10,-74,-4
486,345,-72,1098,3,-78,8
487,470,-21,1022,5,-16,4
488,236,24,1018,7,52,6
489,-193,58,975,-7,70,21
490,-497,22,863,-14,35,8
491,-382,-42,925,-15,-40,-9
492,76,-84,1076,-7,-88,2
493,439,-56,1069,5,-57,7
494,418,1,1014,8,11,1
495,58,37,999,-2,67,15
496,-345,54,933,-10,63,20
497,-495,-5,866,-17,7,1
498,-226,-67,997,-10,-65,-7
499,268,-75,1098,-2,-85,6
500,467,-34,1031,9,-29,5
501,305,12,1012,4,38,4
502,-113,54,980,-4,73,19
503,-440,41,900,-13,45,14
504,-431,-33,892,-19,-24,-6
505,-37,-76,1055,-5,-82,-4
506,389,-69,1081,0,-70,8
507,443,-12,1012,10,-2,4
508,154,27,1015,2,57,9
509,-249,63,953,-5,68,22
510,-495,11,864,-15,22,6
511,-323,-54,952,-14,-52,-8
512,152,-77,1091,-3,-87,4
513,452,-51,1045,4,-47,7
514,384,6,1015,7,26,3
515,-1,46,1003,-3,69,16
516,-398,47,912,-11,58,19
517,-489,-15,871,-17,-6,-3
518,-160,-71,1017,-10,-72,-6
519,334,-73,1095,0,-81,6
520,475,-28,1027,6,-20,4
521,250,24,1018,3,49,5
522,-180,62,980,-7,70,20
523,-489,23,868,-18,38,10
524,-387,-40,922,-14,-37,-8
525,59,-79,1068,-7,-86,0
526,434,-64,1072,2,-60,9
527,421,-4,1013,8,9,2
528,69,36,999,-2,66,12
529,-328,58,939,-9,63,21
530,-490,-1,867,-19,9,1
531,-244,-60,991,-10,-64,-8
532,252,-75,1101,-4,-86,4
533,463,-40,1031,6,-33,6
534,315,17,1009,6,36,3
535,-89,50,987,-4,74,18
536,-432,36,903,-13,47,15
537,-448,-23,892,-16,-22,-5
538,-58,-79,1042,-7,-80,-4
539,376,-73,1084,1,-74,8
540,453,-10,1013,11,-5,2
541,173,25,1018,2,57,9
542,-232,62,959,-6,69,21
543,-496,17,865,-15,25,6
544,-342,-48,941,-14,-49,-8
545,140,-83,1088,-5,-87,3
546,450,-59,1055,4,-49,7
547,397,6,1013,9,21,0
548,14,41,1002,-1,69,16
549,-391,50,916,-10,59,19
550,-493,-10,868,-14,-5,-3
551,-178,-71,1011,-11,-73,-6
552,330,-72,1099,0,-81,8
553,474,-22,1025,7,-22,4
554,264,22,1016,3,48,5
555,-170,51,978,-7,73,21
556,-481,29,872,-16,38,12
557,-398,-37,911,-13,-33,-8
558,41,-82,1072,-8,-87,-1
559,425,-57,1068,4,-61,8
560,426,-7,1014,8,7,1
561,84,33,1002,-1,65,12
562,-307,60,942,-6,64,21
563,-491,2,867,-19,13,2
564,-261,-58,987,-9,-59,-7
565,231,-79,1097,-3,-88,4
566,458,-40,1026,5,-35,6
567,333,10,1016,8,33,2
568,-71,43,986,-4,72,18
569,-424,44,910,-8,50,15
570,-456,-25,886,-19,-18,-5
571,-85,-72,1038,-8,-78,-3
572,369,-69,1085,1,-74,7
573,459,-17,1017,10,-8,2
574,191,23,1018,5,55,7
575,-220,65,964,-7,70,21
576,-498,15,862,-13,29,7
577,-353,-51,938,-15,-48,-7
578,119,-77,1083,-4,-87,2
579,451,-55,1063,6,-53,7
580,401,4,1012,8,20,2
581,26,44,1004,-3,68,14
582,-380,49,920,-10,59,18
583,-493,-13,868,-17,-1,-2
584,-194,-70,1005,-11,-71,-6
585,318,-74,1097,0,-82,7
586,477,-28,1033,8,-24,4
587,272,20,1010,4,46,4
588,-155,59,978,-5,72,21
589,-475,31,882,-17,41,13
590,-405,-37,905,-16,-32,-7
591,19,-74,1068,-5,-86,-2
592,416,-67,1071,0,-65,9
593,431,-6,1011,9,3,2
594,101,32,1001,-2,63,12
595,-287,55,946,-7,66,21
596,-493,1,863,-18,14,3
597,-277,-56,978,-9,-57,-7
598,212,-78,1096,-3,-87,5
599,452,-44,1031,6,-38,6
600,346,18,1020,10,32,3
601,-50,46,992,-6,71,18
602,-414,43,909,-10,53,16
603,-466,-16,883,-21,-15,-4
604,-107,-78,1027,-8,-77,-4
605,362,-75,1091,0,-76,7
606,461,-19,1018,9,-11,3
607,211,25,1023,4,53,8
608,-207,59,966,-8,69,21
609,-504,20,863,-15,33,8
610,-361,-44,933,-16,-46,-8
611,104,-82,1077,-5,-86,1
612,450,-54,1066,5,-54,8
613,415,5,1013,7,16,2
614,37,39,1004,0,69,14
615,-370,53,927,-12,60,18
616,-493,-8,865,-17,3,-1
617,-207,-67,1005,-12,-69,-6
618,299,-74,1099,-1,-84,5
619,472,-30,1026,7,-26,4
620,287,20,1014,5,43,4
621,-139,53,981,-5,74,19
622,-461,32,887,-16,41,13
623,-417,-31,902,-12,-28,-7
624,-4,-79,1060,-8,-84,-1
625,404,-63,1072,2,-67,8
626,434,-8,1013,8,1,2
627,122,26,1004,-1,60,10
628,-273,61,953,-5,67,21
629,-495,5,866,-17,17,3
630,-294,-54,968,-10,-55,-7
631,187,-76,1093,-3,-86,4
632,456,-43,1040,4,-42,7
633,359,12,1011,7,30,3
634,-28,47,997,-4,70,17
635,-411,47,912,-12,54,18
636,-473,-26,875,-16,-13,-5
637,-134,-71,1025,-10,-76,-4
638,353,-69,1091,2,-79,7
639,472,-21,1020,5,-15,4
640,224,26,1020,7,53,6
641,-198,61,973,-6,69,20
642,-499,24,865,-16,34,10
643,-376,-44,927,-14,-42,-8
644,87,-80,1073,-6,-85,2
645,449,-61,1074,6,-56,7
646,413,4,1012,7,12,2
647,52,44,1000,2,67,15
648,-355,54,931,-13,61,21
649,-495,-10,865,-16,5,-1
650,-224,-65,1003,-11,-65,-6
651,282,-76,1099,-3,-84,6
652,467,-33,1028,7,-29,5
653,296,16,1011,2,40,3
654,-119,49,985,-2,72,18
655,-452,35,894,-15,44,14
656,-426,-30,898,-14,-25,-6
657,-21,-75,1055,-9,-83,-2
658,393,-70,1080,2,-69,8
659,438,-11,1010,9,1,1
660,140,28,1011,1,58,9
661,-257,56,949,-9,67,22
662,-494,11,864,-13,19,4
663,-315,-50,959,-14,-53,-8
664,171,-79,1092,-5,-86,4
665,450,-48,1043,2,-45,8
666,376,10,1013,8,26,3
667,-13,45,1002,-5,70,16
668,-405,44,913,-10,56,17
669,-482,-16,870,-16,-9,-3
670,-149,-72,1018,-12,-74,-5
671,348,-75,1094,2,-78,8
672,475,-21,1026,5,-17,3
673,243,24,1019,5,51,6
674,-190,58,976,-8,69,21
675,-495,25,864,-14,36,11
676,-384,-41,923,-17,-39,-8
677,71,-86,1069,-7,-87,0
678,439,-55,1071,4,-58,9
679,420,1,1012,6,10,2
680,65,37,1001,0,67,13
681,-341,55,936,-10,64,20
682,-493,-2,867,-21,9,1
683,-237,-61,999,-10,-66,-9
684,263,-75,1093,-1,-86,4
685,465,-37,1032,3,-32,4
686,310,12,1012,10,37,4
687,-107,54,982,-9,73,18
688,-439,37,901,-8,46,14
689,-435,-32,889,-19,-23,-4
690,-47,-73,1051,-5,-80,-2
691,384,-69,1083,-3,-72,7
692,446,-12,1009,10,-4,3
693,160,27,1015,1,57,9
694,-244,63,955,-7,68,21
695,-496,9,864,-14,23,5
696,-328,-59,951,-16,-51,-8
697,150,-80,1089,-3,-87,2
698,454,-50,1046,2,-48,7
699,390,4,1014,10,24,2
700,0,52,1007,-1,69,15
701,-396,49,910,-11,58,19
702,-488,-14,869,-18,-7,-2
703,-168,-67,1012,-9,-74,-6
704,338,-74,1098,-2,-80,7
705,473,-31,1029,6,-20,4
706,254,23,1015,5,48,5
707,-178,61,977,-7,71,21
708,-490,24,868,-16,37,11
709,-392,-38,918,-15,-37,-7
710,53,-76,1073,-4,-87,-1
711,434,-63,1071,3,-60,9
712,427,-2,1014,9,8,2
713,75,39,1001,0,66,11
714,-322,54,941,-7,63,20
715,-494,0,866,-19,11,2
716,-253,-62,988,-10,-62,-7
717,247,-79,1099,-4,-88,6
718,459,-45,1030,5,-33,5
719,320,20,1014,7,35,2
720,-84,49,982,-4,73,18
721,-429,41,908,-10,48,15
722,-449,-18,892,-17,-22,-6
723,-65,-75,1040,-8,-79,-3
724,375,-72,1087,-1,-74,8
725,456,-12,1013,7,-6,2
726,178,21,1016,2,57,8
727,-233,60,961,-5,69,20
728,-497,15,861,-15,25,6
729,-342,-50,943,-13,-49,-7
730,135,-77,1085,-4,-87,2
731,454,-56,1055,5,-51,6
732,398,10,1017,7,23,2
733,16,42,1005,-2,68,15
734,-388,50,911,-11,59,19
735,-495,-8,870,-16,-2,-1
736,-179,-76,1009,-13,-72,-6
737,325,-72,1097,1,-80,6
738,477,-25,1029,8,-22,4
739,267,18,1011,4,45,6
740,-168,56,979,-4,72,20
741,-481,31,874,-17,39,12
742,-400,-37,910,-15,-33,-7
743,34,-81,1073,-8,-86,-1
744,425,-61,1073,5,-62,7
745,429,-2,1013,7,5,0
746,86,28,996,-2,66,11
747,-309,62,947,-6,65,20
748,-489,0,863,-19,12,1
749,-266,-61,983,-9,-59,-8
750,225,-75,1100,-3,-88,4
751,461,-40,1028,6,-35,6
752,331,12,1014,6,33,3
753,-68,47,988,-2,72,16
754,-425,44,907,-12,50,16
755,-456,-25,885,-17,-19,-5
756,-82,-72,1037,-8,-78,-5
757,369,-71,1089,0,-74,8
758,461,-18,1010,7,-8,3
759,194,24,1021,4,55,8
760,-225,61,963,-6,70,21
761,-498,20,862,-16,27,7
762,-356,-51,939,-15,-48,-8
763,122,-76,1082,-4,-87,1
764,454,-56,1059,3,-53,8
765,404,3,1012,6,20,3
766,26,48,1006,0,70,15
767,-381,49,917,-15,58,19
768,-497,-13,865,-15,-1,-1
769,-191,-69,1008,-12,-71,-6
770,317,-76,1096,1,-82,7
771,474,-31,1031,7,-23,4
772,271,23,1011,6,46,5
773,-158,58,978,-5,71,20
774,-477,28,879,-15,41,11
775,-405,-37,911,-13,-31,-7
776,26,-80,1066,-8,-86,0
777,417,-67,1075,3,-61,9
778,431,-3,1014,8,5,2
779,94,31,998,-1,64,10
780,-296,57,946,-8,65,21
781,-493,5,866,-18,13,3
782,-272,-58,980,-12,-58,-8
783,218,-79,1099,-3,-88,4
784,454,-41,1029,4,-38,6
785,346,11,1013,9,32,2
786,-58,45,991,-6,72,17
787,-422,41,911,-11,51,16
788,-463,-19,882,-18,-16,-3
789,-95,-73,1031,-8,-78,-4
790,364,-76,1090,-2,-76,8
791,462,-16,1017,10,-9,3
792,204,23,1020,3,54,7
793,-214,62,967,-6,69,21
794,-499,22,860,-16,31,8
795,-361,-46,931,-16,-47,-8
796,111,-84,1082,-5,-87,1
797,450,-53,1065,5,-54,8
798,405,5,1009,7,16,1
799,29,36,1005,-1,69,14
800,-379,55,923,-13,60,19
801,-497,-12,864,-15,0,-2
802,-199,-69,1011,-10,-70,-6
803,311,-73,1096,-2,-82,7
804,477,-28,1032,8,-26,5
805,278,21,1013,3,45,4
806,-153,54,978,-4,73,20
807,-472,30,881,-17,40,14
808,-408,-35,910,-14,-30,-7
809,13,-84,1067,-9,-87,-2
810,414,-64,1075,3,-65,8
811,430,-7,1011,9,3,2
812,103,30,1002,1,62,10
813,-289,62,948,-6,67,20
814,-490,5,867,-19,15,3
815,-281,-55,975,-9,-58,-7
816,209,-76,1096,-4,-87,5
817,457,-43,1033,3,-40,6
818,347,8,1015,6,30,2
819,-49,48,994,-4,72,17
820,-419,43,911,-12,53,17
821,-468,-26,879,-17,-17,-4
822,-107,-73,1032,-7,-77,-3
823,360,-70,1090,3,-78,9
824,469,-20,1017,8,-12,2
825,212,28,1022,7,54,7
826,-209,64,967,-9,68,23
827,-503,15,862,-17,32,8
828,-364,-49,931,-16,-46,-8
829,104,-81,1082,-6,-87,2
830,451,-59,1065,4,-54,7
831,409,2,1011,7,17,2
832,32,40,1005,1,68,14
833,-372,50,924,-14,61,20
834,-494,-7,864,-14,2,0
835,-203,-65,1009,-12,-70,-6
836,304,-73,1098,0,-83,6
837,472,-30,1031,6,-26,5
838,282,20,1010,4,43,4
839,-145,53,979,-7,72,19
840,-469,26,884,-16,41,13
841,-411,-31,908,-15,-29,-7
842,11,-76,1063,-9,-85,-1
843,409,-70,1072,4,-65,8
844,434,-3,1013,10,3,1
845,105,34,1002,-1,62,10
846,-284,57,947,-7,65,21
847,-492,11,869,-16,16,4
848,-283,-57,972,-14,-58,-8
849,208,-80,1099,-3,-87,4
850,451,-44,1034,2,-38,6
851,349,11,1014,9,31,1
852,-47,47,992,-4,70,18
853,-417,44,908,-9,54,16
854,-465,-21,881,-19,-16,-4
855,-108,-72,1029,-8,-76,-3
856,357,-73,1088,0,-76,8
857,466,-15,1023,7,-13,3
858,209,27,1022,3,54,8
859,-212,57,967,-9,68,21
860,-498,20,863,-13,31,8
861,-363,-44,928,-17,-43,-8
862,103,-84,1082,-3,-87,0
863,448,-54,1063,3,-54,7
864,412,5,1017,8,17,2
865,36,41,1003,-2,68,13
866,-370,55,922,-13,59,19
867,-493,-10,867,-17,2,-2
868,-201,-73,1007,-11,-70,-6
869,301,-69,1097,1,-82,6
870,475,-31,1028,7,-26,4
871,282,17,1012,4,43,4
872,-150,57,981,-5,72,19
873,-467,29,879,-14,42,14
874,-406,-37,908,-15,-30,-6
875,14,-77,1062,-6,-85,0
876,409,-63,1073,3,-65,9
877,428,-9,1015,8,3,2
878,104,32,1000,-1,62,9
879,-287,60,946,-7,65,22
880,-490,3,867,-19,15,4
881,-280,-55,974,-12,-57,-9
882,208,-77,1096,-3,-89,4
883,454,-45,1033,3,-39,7
884,348,12,1015,9,30,3
885,-52,47,991,-7,70,18
886,-417,45,911,-11,52,16
887,-462,-23,882,-19,-16,-5
888,-104,-70,1030,-8,-77,-3
889,362,-70,1090,2,-75,7
890,460,-23,1019,7,-12,2
891,206,28,1019,7,54,8
892,-212,63,968,-9,69,22
893,-498,15,861,-14,28,6
894,-359,-49,936,-16,-45,-8
895,108,-84,1078,-6,-86,1
896,450,-60,1068,4,-53,7
897,404,8,1009,7,19,1
898,34,43,1005,-1,68,14
899,-376,51,925,-10,60,19
900,-494,-6,863,-16,2,-1
901,-197,-67,1007,-11,-71,-5
902,313,-77,1099,-1,-83,7
903,473,-32,1028,7,-24,5
904,273,22,1015,4,45,4
905,-153,49,976,-5,71,19
906,-472,30,882,-14,41,13
907,-406,-34,906,-15,-30,-7
908,21,-78,1070,-8,-86,-1
909,412,-60,1073,2,-65,8
910,429,-2,1014,9,3,2
911,101,32,999,-1,63,11
912,-293,57,946,-8,66,21
913,-494,3,868,-18,12,2
914,-276,-57,977,-11,-59,-8
915,212,-81,1095,-4,-87,5
916,457,-44,1033,5,-39,7
917,341,16,1016,8,32,2
918,-57,42,986,-6,71,16
919,-417,47,912,-8,51,16
920,-462,-19,883,-17,-16,-5
921,-97,-78,1034,-7,-77,-4
922,364,-68,1091,0,-75,7
923,461,-16,1014,10,-9,4
924,198,26,1024,5,54,7
925,-221,60,960,-7,70,21
926,-497,19,866,-16,28,8
927,-356,-51,934,-17,-47,-8
928,118,-81,1084,-3,-85,0
929,450,-56,1061,1,-52,7
930,404,4,1013,8,19,2
931,28,42,1005,1,69,13
932,-381,50,918,-13,60,19
933,-493,-8,869,-16,-1,0
934,-195,-73,1009,-11,-70,-6
935,318,-74,1096,-2,-82,6
936,478,-27,1032,8,-24,5
937,271,17,1009,3,46,4
938,-159,61,981,-3,72,19
939,-480,31,877,-17,40,12
940,-402,-41,910,-13,-32,-7
941,27,-75,1073,-8,-86,-1
942,420,-63,1070,4,-63,7
943,431,-4,1014,10,5,1
944,89,40,997,-3,65,12
945,-302,58,945,-8,66,22
946,-493,-2,865,-20,13,4
947,-267,-61,983,-10,-59,-6
948,229,-77,1097,-4,-87,5
949,457,-43,1031,7,-35,6
950,333,9,1013,6,34,4
951,-71,52,987,-3,71,19
952,-423,40,910,-12,48,16
953,-451,-23,886,-18,-18,-5
954,-80,-69,1040,-9,-78,-5
955,373,-75,1087,-1,-74,7
956,456,-16,1015,8,-6,3
957,183,28,1018,4,55,7
958,-226,55,962,-10,68,22
959,-498,14,862,-13,27,7
960,-347,-48,943,-14,-49,-8
961,132,-82,1083,-5,-86,0
962,452,-53,1060,4,-50,8
963,398,10,1012,8,21,1
964,18,47,1002,-3,69,15
965,-391,50,918,-12,59,19
966,-492,-11,867,-16,-4,-2
967,-183,-67,1010,-11,-72,-6
968,329,-79,1097,0,-81,7
969,477,-24,1030,6,-23,5
970,262,20,1012,5,47,4
971,-169,57,978,-5,70,20
972,-486,31,872,-15,39,12
973,-393,-36,913,-14,-34,-7
974,43,-79,1074,-7,-86,0
975,426,-61,1069,4,-60,8
976,427,1,1015,8,7,3
977,79,30,1001,-2,64,12
978,-318,55,939,-9,64,19
979,-493,1,867,-18,10,2
980,-249,-66,989,-11,-61,-8
981,244,-78,1099,-1,-86,5
982,457,-35,1032,6,-34,6
983,321,13,1012,6,35,2
984,-86,46,985,-4,72,17
985,-430,43,904,-13,47,15
986,-446,-24,890,-18,-21,-6
987,-61,-78,1044,-8,-80,-4
988,379,-67,1086,2,-73,8
989,449,-12,1014,6,-5,2
990,169,24,1015,3,56,9
991,-240,62,957,-8,68,20
992,-494,12,865,-14,24,6
993,-333,-58,947,-15,-51,-7
994,146,-76,1089,0,-87,3
995,449,-50,1048,3,-47,9
996,390,6,1016,9,23,3
997,4,45,1001,-2,69,15
998,-396,50,916,-12,57,17
999,-488,-17,873,-16,-6,-3
1000,-166,-70,1012,-11,-73,-6
1001,335,-75,1095,1,-79,7
1002,477,-29,1030,5,-20,4
1003,247,23,1016,6,50,5
1004,-180,58,978,-5,69,20
1005,-491,24,865,-16,36,11
1006,-388,-38,921,-13,-36,-8
1007,59,-79,1073,-8,-88,-1
1008,437,-62,1072,4,-60,9
1009,419,-1,1013,7,9,3
1010,64,35,997,-1,66,13
1011,-331,55,939,-9,62,21
1012,-494,-6,864,-18,9,0
1013,-237,-60,999,-8,-63,-7
1014,261,-72,1099,-3,-86,7
1015,463,-42,1025,5,-35,6
1016,309,21,1013,0,36,4
1017,-104,51,981,-5,73,18
1018,-438,37,902,-12,44,14
1019,-436,-23,894,-19,-22,-7
1020,-38,-76,1050,-3,-81,-3
1021,386,-70,1082,-5,-72,8
1022,442,-10,1011,13,-2,2
1023,149,27,1014,-5,59,9
1024,-249,57,953,-2,68,22
1025,-494,14,867,-20,21,6
1026,-320,-54,953,-10,-51,-8
1027,162,-81,1093,-4,-87,2
1028,452,-46,1041,6,-46,7
1029,377,13,1018,7,26,2
1030,-8,43,1000,-4,70,15
1031,-402,46,911,-11,57,18
1032,-482,-15,876,-18,-10,-4
1033,-146,-77,1012,-11,-73,-5
1034,342,-71,1096,-1,-78,7
1035,469,-22,1025,10,-19,3
1036,243,23,1019,4,51,6
1037,-190,62,971,-6,72,20
1038,-494,23,866,-14,36,9
1039,-378,-41,925,-12,-39,-7
1040,74,-85,1074,-8,-87,1
1041,444,-57,1071,7,-59,7
1042,416,6,1016,6,13,2
1043,56,30,998,-2,66,13
1044,-348,57,935,-9,62,19
1045,-493,-4,864,-17,8,-1
1046,-222,-68,999,-12,-66,-7
1047,274,-72,1098,0,-85,5
1048,469,-37,1031,8,-31,5
1049,295,14,1010,3,39,5
1050,-119,56,983,-4,73,19
1051,-448,39,894,-14,43,13
1052,-423,-32,897,-17,-25,-7
1053,-20,-74,1060,-6,-83,-3
1054,393,-68,1074,2,-68,8
1055,438,-11,1012,7,0,1
1056,131,28,1007,0,60,9
1057,-263,56,952,-8,67,20
1058,-491,13,870,-15,18,5
1059,-303,-60,957,-14,-53,-7
1060,177,-76,1097,-1,-87,3
1061,450,-48,1037,2,-43,7
1062,365,6,1017,9,29,2
1063,-24,49,998,-2,70,16
1064,-405,50,908,-11,55,18
1065,-475,-19,877,-17,-12,-4
1066,-133,-72,1024,-11,-75,-5
1067,354,-74,1093,1,-76,8
1068,468,-27,1020,5,-13,4
1069,228,24,1021,7,52,7
1070,-200,62,969,-7,70,22
1071,-497,19,866,-14,33,9
1072,-372,-43,926,-14,-42,-8
1073,89,-77,1076,-7,-85,1
1074,448,-59,1070,4,-56,7
1075,412,3,1014,6,15,1
1076,47,38,1001,-2,68,14
1077,-356,51,929,-12,60,20
1078,-493,-10,862,-15,6,-1
1079,-216,-68,1007,-12,-68,-7
1080,293,-76,1098,-2,-85,7
1081,470,-31,1030,8,-26,4
1082,287,21,1008,3,42,3
1083,-133,53,981,-4,73,20
1084,-462,34,890,-17,44,13
1085,-413,-31,903,-14,-27,-7
1086,-1,-74,1062,-9,-84,-1
1087,402,-69,1073,2,-65,8
1088,431,-6,1013,10,2,1
1089,116,32,1005,-1,61,11
1090,-274,52,947,-7,67,22
1091,-492,6,866,-17,16,4
1092,-291,-55,969,-12,-55,-8
1093,193,-84,1099,-5,-87,3
1094,452,-44,1032,4,-40,6
1095,356,16,1014,7,29,2
1096,-40,46,995,-4,70,16
1097,-413,46,908,-11,52,16
1098,-468,-20,882,-18,-13,-4
1099,-115,-79,1025,-9,-77,-4
1100,360,-73,1092,1,-76,9
1101,463,-21,1018,5,-11,3
1102,213,23,1022,5,53,7
1103,-211,62,968,-7,70,21
1104,-500,19,861,-16,32,7
1105,-361,-44,934,-15,-46,-8
1106,102,-82,1078,-6,-85,0
1107,450,-56,1067,5,-54,7
1108,410,6,1011,6,16,1
1109,38,39,1004,0,69,15
1110,-373,54,924,-13,60,21
1111,-493,-6,865,-16,2,-1
1112,-204,-74,1008,-13,-69,-6
1113,305,-74,1095,0,-84,7
1114,471,-30,1027,8,-26,4
1115,282,13,1013,3,42,4
1116,-146,59,978,-3,72,20
1117,-469,33,881,-17,41,11
1118,-406,-36,908,-12,-30,-7
1119,13,-74,1064,-8,-85,-1
1120,411,-62,1074,3,-65,8
1121,430,-9,1013,5,3,2
1122,105,33,999,-1,63,10
1123,-289,57,945,-7,65,20
1124,-491,-1,870,-19,14,4
1125,-280,-59,976,-12,-57,-8
1126,210,-77,1096,-3,-88,5
1127,452,-42,1034,4,-38,7
1128,340,14,1013,7,33,2
1129,-54,48,987,-4,71,18
1130,-420,46,912,-12,51,15
1131,-460,-27,881,-18,-17,-5
1132,-98,-71,1035,-9,-77,-4
1133,362,-73,1088,0,-75,7
1134,462,-23,1019,6,-10,2
1135,195,25,1018,6,54,7
1136,-215,62,966,-9,69,20
1137,-499,15,861,-14,29,7
1138,-357,-46,938,-14,-48,-8
1139,115,-81,1082,-6,-86,0
1140,449,-57,1061,5,-53,6
1141,408,7,1012,7,18,1
1142,29,45,1006,1,69,13
1143,-381,47,921,-14,59,20
1144,-494,-8,865,-14,0,-3
1145,-193,-68,1009,-13,-70,-5
1146,316,-78,1097,0,-83,9
1147,474,-27,1032,7,-23,4
1148,269,21,1008,5,45,5
1149,-154,54,982,-5,71,22
1150,-477,32,879,-16,40,12
1151,-398,-36,906,-13,-32,-7
1152,29,-77,1073,-9,-86,-1
1153,415,-62,1070,5,-62,8
1154,428,-4,1016,8,5,2
1155,91,32,998,0,64,10
1156,-298,56,943,-7,65,20
1157,-492,5,872,-17,13,2
1158,-266,-60,980,-13,-59,-7
1159,225,-78,1097,-4,-87,5
1160,454,-43,1031,5,-35,6
1161,335,13,1013,6,33,3
1162,-71,45,986,-3,71,16
1163,-421,45,910,-10,50,16
1164,-454,-19,886,-18,-19,-5
1165,-84,-76,1040,-8,-78,-4
1166,370,-69,1088,1,-74,8
1167,455,-15,1012,5,-9,3
1168,188,21,1020,4,55,8
1169,-225,64,961,-9,69,21
1170,-498,17,863,-15,28,6
1171,-348,-55,939,-17,-48,-7
1172,126,-77,1086,-3,-85,2
1173,450,-57,1057,4,-52,7
1174,396,6,1015,8,21,2
1175,19,47,1007,0,69,15
1176,-385,51,913,-12,59,18
1177,-494,-8,872,-15,-3,-1
1178,-182,-75,1007,-14,-72,-6
1179,324,-76,1097,2,-81,7
1180,478,-30,1030,4,-22,4
1181,261,15,1009,7,47,4
1182,-168,62,980,-5,70,20
1183,-481,28,872,-16,39,11
1184,-396,-38,917,-14,-35,-8
1185,40,-76,1070,-7,-86,-1
1186,427,-60,1072,4,-62,7
1187,425,-2,1013,8,6,2
1188,80,32,1000,-1,65,11
1189,-313,56,939,-9,64,20
1190,-491,-4,867,-17,10,3
1191,-254,-59,992,-8,-61,-8
1192,239,-73,1095,-2,-86,5
1193,459,-46,1028,5,-34,6
1194,320,19,1017,7,34,4
1195,-84,48,980,-4,71,17
1196,-430,41,908,-11,47,14
1197,-447,-24,887,-17,-21,-6
1198,-63,-73,1045,-7,-79,-2
1199,371,-71,1086,-1,-71,8
1200,450,-18,1012,6,-5,2
1201,174,30,1018,3,56,8
1202,-236,57,956,-8,68,20
1203,-493,13,869,-15,25,7
1204,-339,-49,943,-15,-50,-9
1205,142,-78,1087,-3,-87,3
1206,452,-56,1051,5,-49,7
1207,390,8,1011,9,23,1
1208,11,44,1007,-1,67,15
1209,-395,49,912,-11,58,19
1210,-488,-10,870,-17,-6,-2
1211,-168,-70,1012,-11,-72,-6
1212,333,-77,1099,1,-79,7
1213,473,-23,1028,7,-20,4
1214,254,22,1013,4,49,5
1215,-175,54,978,-5,71,20
1216,-487,29,870,-16,37,11
1217,-390,-43,916,-14,-35,-9
1218,55,-83,1076,-7,-87,-1
1219,432,-57,1071,6,-60,9
1220,421,3,1014,8,10,2
1221,69,36,1001,-1,66,12
1222,-327,56,936,-8,62,19
1223,-489,0,867,-18,9,0
1224,-240,-67,995,-11,-62,-7
1225,255,-79,1095,-3,-86,5
1226,460,-37,1029,8,-31,5
1227,309,13,1012,5,36,3
1228,-100,51,981,-3,73,18
1229,-435,41,906,-10,46,13
1230,-434,-29,893,-17,-23,-6
1231,-44,-72,1050,-6,-80,-3
1232,381,-67,1080,-1,-71,8
1233,444,-14,1010,7,-2,2
1234,158,24,1012,0,57,9
1235,-245,60,956,-5,68,22
1236,-497,13,865,-16,24,5
1237,-323,-58,949,-13,-51,-7
1238,153,-76,1092,-3,-86,4
1239,452,-49,1046,5,-47,7
1240,379,6,1015,7,26,2
1241,-7,51,1002,-1,69,16
1242,-396,49,911,-13,56,19
1243,-485,-17,874,-17,-8,-3
1244,-157,-70,1016,-11,-74,-6
1245,344,-75,1095,1,-80,7
1246,471,-26,1024,6,-17,5
1247,243,24,1019,5,51,6
1248,-185,56,972,-5,69,21
1249,-493,27,870,-16,35,10
1250,-384,-41,920,-13,-39,-8
1251,68,-81,1073,-7,-88,0
1252,443,-58,1074,6,-58,9
1253,420,0,1010,6,11,2
1254,63,37,1000,1,67,12
1255,-342,55,936,-11,62,21
1256,-496,-6,866,-17,8,0
1257,-234,-59,1000,-11,-66,-9
1258,269,-78,1096,-3,-86,5
1259,464,-39,1029,8,-31,6
1260,304,17,1012,5,38,5
1261,-109,52,980,-5,72,18
1262,-445,36,904,-13,45,15
1263,-430,-28,896,-16,-23,-6
1264,-32,-74,1057,-8,-82,-3
1265,391,-73,1079,1,-69,8
1266,442,-6,1012,7,-2,3
1267,147,30,1011,0,59,8
1268,-252,54,954,-10,68,20
1269,-495,10,867,-13,20,5
1270,-313,-53,955,-14,-53,-8
1271,166,-80,1093,-3,-87,4
1272,451,-48,1044,3,-45,6
1273,376,10,1014,9,26,2
1274,-12,43,1000,-3,69,17
1275,-403,53,913,-12,56,18
1276,-479,-17,871,-17,-10,-5
1277,-146,-70,1022,-11,-74,-6
1278,343,-76,1094,1,-79,7
1279,470,-23,1024,4,-18,3
1280,236,22,1019,6,50,6
1281,-191,56,973,-9,70,20
1282,-495,28,866,-14,35,9
1283,-377,-42,923,-15,-39,-9
1284,76,-84,1074,-7,-86,0
1285,443,-57,1070,5,-57,8
1286,416,3,1013,7,12,2
1287,55,39,1001,0,68,13
1288,-350,53,931,-12,62,19
1289,-489,-7,866,-16,5,-1
1290,-223,-68,1004,-12,-67,-5
1291,277,-77,1093,-1,-85,5
1292,470,-33,1029,6,-30,5
1293,296,15,1015,5,40,5
1294,-122,54,978,-4,74,19
1295,-451,43,897,-13,44,13
1296,-426,-28,899,-16,-25,-6
1297,-16,-76,1057,-8,-82,-2
1298,397,-68,1076,0,-69,9
1299,441,-18,1012,6,0,2
1300,137,27,1007,2,61,10
1301,-262,58,954,-7,68,21
1302,-493,8,863,-16,20,4
1303,-312,-51,962,-12,-52,-8
1304,175,-78,1092,-1,-87,4
1305,453,-41,1042,2,-44,6
1306,370,9,1014,9,27,2
1307,-19,46,996,-5,70,16
1308,-404,47,914,-11,56,17
1309,-478,-25,876,-18,-11,-3
1310,-141,-72,1020,-10,-75,-5
1311,346,-76,1095,3,-78,6
1312,471,-28,1021,6,-16,4
1313,230,31,1021,7,51,7
1314,-193,62,972,-9,69,21
1315,-496,23,865,-15,35,9
1316,-374,-38,929,-15,-41,-8
1317,83,-82,1072,-7,-87,0
1318,444,-62,1073,4,-57,9
1319,413,0,1010,8,14,0
1320,50,38,1001,1,68,13
1321,-352,49,929,-12,61,19
1322,-491,-3,868,-13,5,-1
1323,-219,-65,999,-11,-67,-8
1324,287,-73,1100,-2,-84,7
1325,465,-29,1029,7,-29,4
1326,292,18,1007,4,40,4
1327,-128,50,981,-6,73,19
1328,-453,34,895,-14,42,15
1329,-418,-31,898,-15,-26,-7
1330,-11,-79,1064,-6,-82,-2
1331,399,-72,1074,2,-68,8
1332,434,-7,1011,10,2,2
1333,126,31,1006,1,61,10
1334,-268,58,952,-7,66,20
1335,-492,11,868,-16,17,3
1336,-292,-52,960,-12,-54,-8
1337,183,-79,1099,-3,-87,5
1338,452,-49,1037,2,-42,6
1339,363,9,1016,10,28,2
1340,-33,39,997,-6,71,17
1341,-408,46,909,-10,54,18
1342,-478,-17,880,-15,-13,-4
1343,-126,-75,1020,-11,-76,-5
1344,353,-68,1094,2,-76,7
1345,465,-19,1018,6,-15,4
1346,228,23,1026,7,54,7
1347,-203,64,972,-9,70,22
1348,-500,22,858,-15,33,8
1349,-371,-46,932,-16,-43,-9
1350,87,-83,1073,-5,-87,0
1351,450,-56,1069,3,-57,9
1352,412,0,1015,14,15,2
1353,47,37,999,-1,68,14
1354,-360,54,928,-6,61,21
1355,-497,-6,865,-22,4,0
1356,-212,-71,1000,-8,-66,-6
1357,288,-70,1100,-2,-83,6
1358,473,-32,1029,6,-28,5
1359,289,15,1010,3,39,4
1360,-137,56,982,-4,73,18
1361,-456,34,890,-16,43,14
1362,-414,-34,899,-17,-27,-6
1363,-4,-75,1062,-7,-83,-2
1364,405,-66,1078,0,-67,7
1365,433,-12,1013,11,3,4
1366,118,32,1003,-2,61,10
1367,-270,59,950,-6,66,20
1368,-493,5,865,-18,17,4
1369,-293,-55,967,-10,-54,-7
1370,189,-76,1098,-4,-87,4
1371,453,-50,1033,4,-41,7
1372,359,11,1017,8,29,3
1373,-37,50,992,-4,71,17
1374,-412,45,910,-10,54,17
1375,-467,-23,880,-17,-13,-5
1376,-119,-71,1021,-9,-76,-4
1377,354,-73,1093,2,-77,8
1378,466,-20,1019,9,-13,3
1379,217,26,1023,6,52,6
1380,-208,60,968,-8,69,19
1381,-495,19,861,-16,33,9
1382,-369,-47,932,-14,-45,-6
1383,99,-83,1077,-6,-86,1
1384,449,-56,1069,6,-55,8
1385,408,3,1014,6,15,3
1386,42,41,1002,2,68,13
1387,-369,50,927,-11,61,21
1388,-493,-6,864,-17,4,0
1389,-206,-65,1005,-11,-68,-7
1390,293,-78,1100,-2,-84,6
1391,469,-33,1027,7,-26,5
1392,284,23,1014,4,41,4
1393,-142,51,978,-3,72,18
1394,-460,35,886,-14,42,11
1395,-415,-27,904,-14,-28,-7
1396,3,-79,1065,-7,-86,-2
1397,404,-64,1074,2,-66,9
1398,430,-8,1010,7,2,1
1399,116,25,1007,-3,61,10
1400,-281,57,948,-5,68,20
1401,-491,6,866,-16,15,3
1402,-289,-54,971,-11,-55,-8
1403,197,-80,1096,-4,-87,5
1404,453,-44,1033,6,-41,7
1405,354,12,1017,6,30,3
1406,-40,44,994,-5,70,17
1407,-412,51,911,-7,53,16
1408,-467,-22,879,-18,-13,-5
1409,-118,-73,1027,-10,-76,-5
1410,355,-73,1090,1,-77,7
1411,467,-18,1020,6,-12,3
1412,218,22,1021,6,53,7
1413,-207,61,971,-7,69,20
1414,-497,21,861,-15,31,8
1415,-366,-51,931,-16,-46,-8
1416,97,-82,1079,-3,-86,2
1417,447,-57,1065,2,-56,7
1418,411,0,1015,8,15,3
1419,40,43,1003,0,68,13
1420,-368,51,922,-13,59,18
1421,-493,-7,868,-15,2,-1
1422,-207,-69,1004,-12,-68,-6
1423,297,-71,1097,-1,-83,7
1424,472,-36,1032,5,-28,4
1425,285,15,1008,5,43,5
1426,-143,56,981,-6,72,19
1427,-461,27,886,-15,42,13
1428,-413,-33,907,-13,-27,-6
1429,-1,-75,1059,-8,-84,-1
1430,407,-65,1077,2,-67,9
1431,432,-5,1014,10,2,2
1432,117,28,1003,-2,60,10
1433,-275,64,952,-7,67,20
1434,-493,5,862,-20,17,3
1435,-295,-59,972,-12,-55,-7
1436,193,-79,1095,-3,-87,4
1437,454,-50,1033,3,-41,7
1438,355,12,1017,11,30,2
1439,-36,45,993,-5,70,17
1440,-413,42,912,-9,52,18
1441,-469,-18,880,-19,-14,-4
1442,-115,-67,1021,-9,-75,-4
1443,354,-71,1095,0,-77,7
1444,463,-22,1016,7,-12,1
1445,216,28,1022,5,53,7
1446,-205,57,969,-9,68,22
1447,-497,19,863,-14,32,10
1448,-366,-43,931,-15,-43,-8
1449,98,-87,1075,-6,-86,1
1450,449,-55,1068,7,-54,9
1451,406,7,1013,8,16,2
1452,40,42,1006,-2,68,12
1453,-364,51,924,-12,60,18
1454,-494,-6,869,-16,3,-1
1455,-207,-67,1006,-11,-68,-6
1456,299,-79,1096,-2,-84,7
1457,471,-31,1031,8,-27,5
1458,285,20,1010,2,42,4
1459,-144,51,981,-1,73,19
1460,-462,34,886,-14,41,13
1461,-412,-30,904,-14,-27,-6
1462,1,-77,1064,-8,-84,-2
1463,406,-63,1071,1,-66,9
1464,433,-4,1012,8,2,3
1465,116,29,1006,-3,61,10
1466,-281,57,950,-7,67,21
1467,-493,7,866,-18,17,4
1468,-293,-60,966,-12,-56,-8
1469,195,-83,1100,-5,-87,4
1470,453,-47,1029,6,-41,7
1471,355,8,1015,9,29,3
1472,-40,48,995,-2,71,18
1473,-412,50,909,-10,53,17
1474,-470,-16,884,-16,-14,-4
1475,-116,-71,1025,-9,-75,-4
1476,354,-70,1093,0,-77,9
1477,465,-23,1021,7,-13,3
1478,217,21,1019,4,54,7
1479,-206,59,967,-7,69,20
1480,-497,19,862,-16,32,9
1481,-368,-48,934,-13,-44,-6
1482,96,-82,1074,-5,-87,1
1483,451,-53,1070,6,-55,9
1484,409,3,1012,5,17,2
1485,41,41,1000,2,67,12
1486,-365,57,929,-12,59,20
1487,-494,-12,863,-18,4,0
1488,-208,-69,1008,-9,-70,-6
1489,297,-75,1095,-1,-82,6
1490,472,-37,1028,9,-26,6
1491,284,23,1013,3,41,4
1492,-136,52,979,-2,72,19
1493,-464,33,889,-15,42,12
1494,-412,-34,905,-15,-29,-7
1495,0,-72,1064,-9,-84,-3
1496,404,-65,1074,2,-67,9
1497,433,-9,1013,7,2,2
1498,116,33,1006,-1,62,10
1499,-275,55,948,-6,67,21
1500,-492,3,868,-17,17,4
1501,-292,-57,966,-11,-56,-8
1502,197,-80,1096,-3,-88,3
1503,451,-51,1034,5,-40,7
1504,354,12,1015,8,31,2
1505,-39,45,993,-4,71,16
1506,-410,48,909,-10,53,18
1507,-468,-18,884,-16,-15,-5
1508,-117,-74,1025,-10,-75,-4
1509,358,-72,1091,2,-77,9
1510,467,-25,1017,5,-13,3
1511,215,25,1021,4,54,7
1512,-206,56,967,-9,69,21
1513,-499,22,865,-14,32,9
1514,-364,-45,928,-16,-42,-7
1515,103,-87,1078,-6,-87,2
1516,448,-55,1068,7,-54,8
1517,411,5,1010,6,17,2
1518,39,42,1005,1,68,13
1519,-369,52,925,-11,60,18
1520,-493,-5,865,-14,3,-2
1521,-205,-67,1009,-13,-69,-6
1522,299,-77,1098,-2,-83,7
1523,471,-30,1028,8,-25,4
1524,285,16,1010,3,42,4
1525,-141,54,984,-2,74,18
1526,-464,31,886,-15,41,11
1527,-412,-31,905,-13,-29,-7
1528,5,-73,1066,-8,-83,-2
1529,406,-65,1071,1,-66,7
1530,431,-5,1010,8,3,2
1531,114,29,1002,-2,62,11
1532,-277,59,947,-6,65,21
1533,-489,10,867,-17,16,3
1534,-289,-59,973,-12,-54,-7
1535,197,-79,1097,-6,-87,5
1536,450,-46,1031,4,-41,6
1537,357,4,1015,7,29,2
1538,-44,50,992,-3,71,16
1539,-411,47,910,-10,52,17
1540,-465,-21,886,-18,-15,-4
1541,-116,-70,1023,-8,-77,-3
1542,357,-67,1095,1,-76,7
1543,464,-24,1018,5,-12,4
1544,210,24,1022,4,53,7
1545,-211,61,966,-9,69,20
1546,-496,14,864,-16,30,8
1547,-366,-45,933,-12,-45,-8
1548,101,-81,1077,-6,-86,2
1549,451,-55,1069,6,-54,8
1550,405,5,1010,7,17,2
1551,40,45,1001,0,69,15
1552,-371,53,926,-13,59,21
1553,-496,-10,864,-17,2,-1
1554,-203,-66,1010,-10,-69,-6
1555,303,-77,1094,-2,-84,6
1556,473,-33,1034,8,-27,4
1557,278,19,1009,4,44,3
1558,-143,57,979,-4,72,21
1559,-467,33,888,-17,42,12
1560,-414,-33,903,-14,-28,-8
1561,10,-74,1066,-8,-86,0
1562,410,-70,1075,1,-66,9
1563,430,-6,1011,10,2,2
1564,114,33,1002,-1,62,10
1565,-282,60,950,-6,68,21
1566,-494,5,866,-17,15,2
1567,-285,-51,972,-9,-56,-7
1568,201,-85,1098,-6,-87,5
1569,454,-50,1030,5,-41,8
1570,353,16,1016,7,30,2
1571,-42,43,994,-7,71,17
1572,-413,47,909,-9,53,17
1573,-468,-18,881,-16,-14,-4
1574,-111,-70,1029,-8,-76,-4
1575,357,-72,1091,0,-76,6
1576,465,-20,1017,7,-12,4
1577,216,25,1021,4,54,8
1578,-208,58,967,-7,69,21
1579,-500,22,863,-15,31,8
1580,-361,-46,932,-12,-45,-8
1581,100,-83,1077,-5,-86,1
1582,447,-56,1065,6,-53,8
1583,410,7,1012,8,15,2
1584,39,43,1003,1,69,13
1585,-367,53,926,-11,60,19
1586,-494,-5,865,-16,2,-1
1587,-206,-71,1009,-11,-69,-8
1588,299,-77,1101,-1,-84,6
1589,472,-31,1025,10,-26,6
1590,283,17,1012,2,42,5
1591,-139,54,980,-2,72,19
1592,-463,37,886,-16,42,12
1593,-414,-31,907,-13,-28,-8
1594,5,-79,1063,-7,-86,-1
1595,404,-62,1073,3,-65,8
1596,437,-9,1013,8,3,2
1597,113,29,1008,0,61,10
1598,-278,60,947,-5,68,21
1599,-490,9,866,-19,16,4
1600,-293,-59,971,-12,-56,-8
1601,197,-82,1096,-3,-88,3
1602,450,-44,1035,5,-40,7
1603,353,11,1016,7,29,3
1604,-36,49,995,-4,72,17
1605,-412,54,913,-12,53,17
1606,-470,-26,877,-18,-14,-5
1607,-117,-70,1029,-9,-76,-4
1608,356,-74,1092,0,-78,8
1609,464,-28,1017,5,-13,3
1610,214,28,1024,6,53,6
1611,-204,60,966,-8,68,20
1612,-497,18,864,-17,33,9
1613,-367,-44,931,-14,-44,-9
1614,97,-78,1076,-5,-87,0
1615,449,-56,1069,4,-53,8
1616,410,4,1013,6,16,1
1617,41,41,1000,2,68,13
1618,-367,51,928,-13,61,20
1619,-494,-8,864,-15,3,-1
1620,-208,-67,1004,-11,-70,-7
1621,298,-76,1100,-1,-84,7
1622,472,-37,1030,7,-28,5
1623,285,20,1011,5,41,4
1624,-138,55,982,-2,74,21
1625,-462,34,889,-14,42,14
1626,-417,-28,901,-14,-27,-8
1627,-2,-75,1064,-8,-85,-2
1628,403,-71,1071,1,-68,9
1629,437,-11,1010,8,2,3
1630,123,30,1006,1,60,9
1631,-271,55,947,-8,66,21
1632,-495,10,868,-16,18,3
1633,-296,-54,965,-13,-55,-8
1634,189,-81,1095,-3,-87,6
1635,451,-49,1039,3,-42,6
1636,362,9,1012,10,28,1
1637,-26,44,999,-4,69,16
1638,-411,48,912,-10,54,17
1639,-471,-18,876,-17,-14,-5
1640,-130,-71,1023,-11,-74,-4
1641,353,-77,1093,2,-77,7
1642,468,-16,1021,6,-14,4
1643,223,23,1023,5,53,7
1644,-198,57,970,-9,69,21
1645,-499,26,864,-12,34,9
1646,-374,-47,926,-16,-41,-8
1647,92,-83,1077,-5,-87,0
1648,444,-59,1068,6,-56,8
1649,416,3,1011,8,14,2
1650,48,37,1001,-1,68,14
1651,-359,54,930,-9,62,20
1652,-492,-2,866,-16,5,0
1653,-217,-71,1000,-9,-67,-7
1654,286,-75,1098,-1,-83,7
1655,470,-29,1031,9,-28,5
1656,292,12,1008,2,39,4
1657,-126,53,986,-4,74,19
1658,-453,39,893,-16,44,13
1659,-423,-35,897,-16,-25,-6
1660,-16,-75,1061,-6,-83,-1
1661,396,-67,1071,1,-69,8
1662,438,-11,1012,7,0,3
1663,132,30,1012,0,60,9
1664,-261,61,951,-5,67,21
1665,-495,9,868,-18,19,4
1666,-307,-56,960,-13,-54,-8
1667,174,-77,1093,-4,-88,3
1668,451,-48,1040,4,-44,5
1669,371,5,1015,9,27,2
1670,-17,46,999,-2,69,17
1671,-406,48,910,-10,56,18
1672,-476,-14,881,-17,-10,-3
1673,-143,-71,1017,-10,-74,-4
1674,349,-73,1094,2,-77,7
1675,471,-27,1023,5,-16,4
1676,235,24,1021,6,51,6
1677,-194,59,974,-5,71,21
1678,-496,21,862,-18,34,10
1679,-378,-40,924,-12,-40,-7
1680,73,-78,1072,-9,-86,-1
1681,444,-61,1073,6,-58,7
1682,415,2,1011,7,13,3
1683,56,41,1001,-1,68,14
1684,-346,52,934,-10,60,20
1685,-496,-4,865,-17,8,0
1686,-227,-59,1002,-8,-65,-7
1687,272,-78,1094,-4,-84,6
1688,463,-38,1029,10,-28,5
1689,303,18,1010,5,38,4
1690,-113,48,981,-1,73,18
1691,-444,40,903,-15,46,13
1692,-429,-26,891,-10,-25,-4
1693,-37,-73,1055,-13,-81,-2
1694,391,-71,1080,7,-70,8
1695,439,-10,1009,4,-3,2
1696,151,25,1013,3,57,8
1697,-250,60,956,-8,68,22
1698,-496,12,866,-16,21,6
1699,-319,-54,951,-16,-51,-8
1700,157,-79,1094,-2,-86,3
1701,451,-53,1041,4,-47,7
1702,383,8,1015,8,25,3
1703,-8,44,1002,-2,70,16
1704,-399,45,909,-12,56,18
1705,-484,-13,878,-16,-8,-3
1706,-156,-74,1017,-11,-73,-5
1707,339,-75,1094,2,-79,7
1708,470,-22,1027,6,-18,3
1709,248,17,1016,6,49,5
1710,-183,58,977,-5,71,20
1711,-492,27,866,-19,37,9
1712,-385,-45,922,-14,-38,-7
1713,61,-80,1069,-8,-86,0
1714,436,-57,1073,5,-59,7
1715,422,-6,1013,10,8,1
1716,67,37,999,0,67,12
1717,-333,58,938,-7,63,20
1718,-493,-1,864,-19,8,0
1719,-242,-62,993,-8,-62,-7
1720,252,-75,1099,-5,-86,7
1721,462,-41,1025,6,-33,6
1722,316,12,1017,4,36,4
1723,-97,51,983,-5,73,17
1724,-432,41,905,-12,46,16
1725,-445,-25,891,-16,-20,-5
1726,-57,-77,1046,-9,-80,-4
1727,380,-66,1084,-1,-73,7
1728,451,-17,1012,7,-5,2
1729,172,25,1017,4,57,8
1730,-235,62,957,-6,70,21
1731,-496,11,864,-17,25,6
1732,-341,-51,945,-12,-49,-8
1733,138,-78,1086,-5,-86,2
1734,456,-54,1055,5,-49,7
1735,392,10,1014,9,22,2
1736,13,45,1004,-2,70,15
1737,-392,49,916,-13,57,18
1738,-492,-9,871,-16,-5,-3
1739,-178,-73,1008,-13,-72,-6
1740,332,-73,1100,0,-81,6
1741,474,-32,1024,7,-21,5
1742,262,22,1017,5,47,5
1743,-172,55,978,-6,71,21
1744,-485,26,870,-17,38,12
1745,-397,-34,917,-12,-33,-8
1746,41,-82,1068,-9,-86,0
1747,426,-60,1073,5,-61,9
1748,426,-1,1013,7,6,1
1749,86,33,997,-2,64,12
1750,-312,58,943,-7,65,21
1751,-493,-4,868,-19,12,1
1752,-257,-57,985,-9,-59,-8
1753,230,-79,1096,-3,-86,5
1754,456,-44,1030,7,-35,6
1755,332,18,1018,6,34,2
1756,-70,46,983,-6,72,18
1757,-425,44,911,-10,48,15
1758,-455,-23,885,-17,-19,-5
1759,-82,-74,1040,-8,-79,-2
1760,367,-69,1086,0,-75,7
1761,460,-16,1013,8,-8,3
1762,192,23,1021,3,55,9
1763,-227,59,963,-7,69,21
1764,-500,17,861,-15,28,5
1765,-352,-48,937,-16,-49,-7
1766,124,-82,1080,-5,-86,3
1767,454,-57,1060,6,-52,6
1768,404,6,1013,8,20,3
1769,24,46,1008,-1,70,14
1770,-383,49,917,-13,59,18
1771,-494,-3,868,-17,0,-1
1772,-193,-72,1012,-14,-70,-6
1773,316,-79,1096,2,-82,6
1774,474,-26,1028,6,-25,4
1775,272,13,1012,3,46,5
1776,-155,54,979,-2,72,21
1777,-476,35,882,-17,40,12
1778,-406,-38,908,-13,-30,-7
1779,21,-76,1067,-7,-85,0
1780,414,-60,1069,4,-64,8
1781,433,-8,1015,7,4,2
1782,98,31,998,1,62,10
1783,-291,59,944,-7,66,21
1784,-492,6,869,-18,14,4
1785,-280,-62,974,-11,-57,-7
1786,212,-76,1098,-3,-88,5
1787,452,-46,1032,6,-38,6
1788,346,9,1015,6,30,3
1789,-52,50,991,-4,72,17
1790,-418,45,910,-13,52,15
1791,-462,-23,883,-16,-17,-4
1792,-105,-70,1031,-10,-77,-2
1793,361,-70,1090,0,-77,8
1794,466,-21,1018,7,-10,2
1795,209,24,1022,4,55,7
1796,-211,60,966,-7,68,21
1797,-501,20,863,-15,30,8
1798,-359,-46,932,-14,-46,-8
1799,104,-80,1078,-5,-87,2
1800,453,-60,1071,4,-53,8
1801,409,4,1010,6,17,1
1802,38,49,1001,2,67,14
1803,-367,52,924,-14,60,20
1804,-496,-10,862,-15,3,-2
1805,-201,-66,1011,-10,-70,-6
1806,303,-77,1094,-4,-82,8
1807,473,-32,1029,8,-26,5
1808,283,21,1012,4,43,4
1809,-144,52,980,-4,73,19
1810,-468,33,885,-15,41,12
1811,-411,-30,905,-13,-29,-7
1812,5,-76,1065,-10,-84,0
1813,405,-70,1075,2,-66,9
1814,432,-12,1012,8,3,1
1815,116,28,1003,0,63,12
1816,-279,57,947,-6,66,21
1817,-492,7,866,-16,16,3
1818,-289,-55,971,-11,-55,-6
1819,193,-76,1098,-4,-88,3
1820,453,-43,1034,6,-41,6
1821,361,14,1016,7,30,3
1822,-37,44,995,-4,71,17
1823,-416,45,911,-11,54,16
1824,-470,-19,879,-17,-14,-5
1825,-119,-75,1025,-11,-77,-4
1826,355,-74,1093,3,-77,7
1827,468,-19,1022,5,-13,3
1828,221,22,1023,6,53,7
1829,-206,61,969,-6,71,20
1830,-498,25,859,-15,33,8
1831,-372,-46,933,-16,-44,-8
1832,93,-85,1075,-7,-86,0
1833,448,-57,1068,7,-56,7
1834,413,1,1016,5,15,3
1835,47,38,1005,1,69,14
1836,-363,57,926,-10,61,19
1837,-495,-4,865,-15,4,1
1838,-212,-68,1005,-13,-68,-6
1839,287,-76,1094,1,-84,6
1840,476,-33,1032,6,-28,6
1841,288,17,1013,3,42,4
1842,-131,50,977,-4,73,19
1843,-458,38,893,-14,43,14
1844,-420,-34,900,-16,-27,-6
1845,-7,-77,1060,-6,-82,-1
1846,399,-61,1078,2,-66,9
1847,438,-14,1010,7,1,2
1848,126,30,1007,2,62,11
1849,-266,63,952,-9,68,21
1850,-492,5,865,-18,17,3
1851,-302,-53,963,-13,-54,-7
1852,183,-79,1095,-4,-88,5
1853,451,-52,1035,3,-42,7
1854,368,11,1018,9,29,2
1855,-26,48,996,-5,69,18
1856,-408,47,913,-10,54,18
1857,-474,-23,874,-17,-11,-4
1858,-134,-67,1025,-8,-75,-4
1859,350,-75,1089,2,-78,7
1860,472,-29,1021,5,-14,4
1861,228,28,1023,7,52,5
1862,-197,57,970,-9,69,20
1863,-499,23,865,-13,34,8
1864,-376,-41,926,-15,-42,-8
1865,87,-83,1075,-5,-88,2
1866,450,-57,1073,5,-56,7
1867,414,-2,1008,7,13,1
1868,49,40,1001,1,67,13
1869,-355,51,931,-11,62,20
1870,-495,-8,862,-16,6,0
1871,-219,-60,1002,-9,-68,-6
1872,286,-78,1099,-3,-85,7
1873,467,-35,1029,6,-27,4
1874,293,19,1012,4,40,3
1875,-127,50,983,-6,73,19
1876,-456,40,896,-13,44,14
1877,-421,-32,894,-18,-27,-8
1878,-13,-77,1064,-5,-83,-1
1879,397,-71,1073,-1,-69,9
1880,439,-9,1012,9,-1,2
1881,135,29,1008,-1,60,11
1882,-262,59,951,-6,68,22
1883,-494,16,872,-17,19,5
1884,-308,-58,956,-13,-53,-7
1885,178,-80,1094,-3,-87,4
1886,450,-51,1039,1,-43,7
1887,372,6,1013,10,27,2
1888,-21,47,996,-3,70,17
1889,-408,49,911,-11,56,17
1890,-475,-15,876,-17,-11,-3
1891,-140,-70,1022,-11,-75,-5
1892,350,-75,1095,1,-79,7
1893,471,-20,1020,6,-16,3
1894,233,18,1020,5,51,6
1895,-193,55,969,-6,70,20
1896,-498,28,864,-15,35,10
1897,-381,-46,928,-17,-41,-8
1898,79,-85,1072,-5,-87,1
1899,443,-51,1074,7,-56,9
1900,416,0,1014,6,12,2
1901,54,37,997,1,68,13
1902,-349,59,935,-10,61,20
1903,-492,-8,862,-19,6,1
1904,-226,-68,1003,-10,-65,-7
1905,279,-76,1097,-3,-85,7
1906,468,-38,1026,7,-29,5
1907,297,16,1014,6,39,4
1908,-120,53,979,-5,73,18
1909,-449,39,897,-14,44,14
1910,-428,-30,899,-15,-24,-7
1911,-22,-76,1053,-6,-83,-2
1912,392,-65,1080,0,-70,10
1913,439,-15,1013,10,0,3
1914,141,28,1006,0,60,10
1915,-256,59,951,-7,68,22
1916,-489,7,869,-17,19,4
1917,-314,-54,955,-11,-52,-8
1918,169,-78,1094,-4,-87,4
1919,454,-52,1041,5,-45,8
1920,375,13,1015,9,26,1
1921,-15,45,1000,-4,70,16
1922,-406,48,911,-12,57,17
1923,-484,-20,876,-17,-11,-4
1924,-149,-72,1016,-10,-76,-4
1925,347,-74,1094,2,-78,7
1926,474,-26,1021,6,-17,4
1927,242,26,1020,7,51,7
1928,-189,63,975,-8,71,21
1929,-498,21,863,-17,35,10
1930,-384,-35,924,-14,-39,-8
1931,72,-83,1076,-9,-87,-1
1932,445,-63,1072,6,-58,8
1933,417,1,1012,5,12,1
1934,62,35,1001,-1,67,13
1935,-344,55,932,-11,62,20
1936,-494,0,864,-16,8,-1
1937,-231,-68,998,-12,-65,-7
1938,272,-77,1099,-3,-86,6
1939,465,-37,1029,7,-30,5
1940,302,17,1012,6,38,4
1941,-109,53,982,-4,72,20
1942,-444,36,896,-13,45,13
1943,-432,-24,897,-15,-24,-7
1944,-34,-78,1054,-8,-81,-2
1945,387,-69,1079,1,-70,8
1946,441,-9,1012,9,-2,2
1947,151,27,1012,2,58,9
1948,-250,59,957,-8,67,21
1949,-494,13,866,-17,21,5
1950,-319,-55,952,-16,-52,-8
1951,158,-81,1091,-3,-86,4
1952,452,-48,1043,4,-46,8
1953,380,5,1017,9,26,2
1954,-4,43,1002,-4,69,15
1955,-401,53,910,-11,57,18
1956,-484,-18,872,-18,-8,-4
1957,-156,-70,1020,-13,-74,-4
1958,340,-73,1093,1,-79,7
1959,475,-25,1024,5,-18,4
1960,245,20,1018,6,51,6
1961,-186,54,973,-7,70,21
1962,-494,29,867,-16,36,10
1963,-386,-44,921,-13,-38,-7
1964,65,-77,1070,-6,-86,0
1965,441,-56,1074,4,-59,7
1966,423,-4,1015,7,10,0
1967,64,36,1001,0,67,11
1968,-335,58,936,-9,64,21
1969,-495,-4,865,-17,9,2
1970,-241,-65,994,-10,-63,-7
1971,264,-77,1101,-3,-86,5
1972,464,-41,1025,8,-31,6
1973,312,13,1011,7,36,4
1974,-98,51,983,-5,73,18
1975,-438,41,904,-10,46,14
1976,-438,-26,894,-17,-23,-7
1977,-48,-68,1050,-7,-81,-3
1978,384,-72,1082,0,-71,9
1979,450,-15,1014,8,-4,3
1980,163,25,1013,2,58,9
1981,-242,56,956,-9,69,23
1982,-493,10,864,-16,25,7
1983,-331,-53,948,-16,-50,-7
1984,148,-79,1088,-2,-87,2
1985,452,-52,1053,4,-49,7
1986,387,11,1008,10,25,3
1987,6,49,1005,-4,69,16
1988,-398,50,915,-11,58,18
1989,-486,-12,869,-17,-7,-3
1990,-166,-71,1017,-12,-74,-5
1991,339,-79,1096,0,-79,8
1992,475,-28,1023,8,-20,4
1993,253,20,1016,6,49,6
1994,-179,56,975,-5,71,20
1995,-492,26,870,-15,38,10
1996,-390,-35,920,-13,-37,-9
1997,54,-76,1071,-8,-88,0
1998,433,-63,1071,5,-60,8
1999,423,1,1013,7,10,1
2000,78,31,996,-3,66,12
2001,-328,57,940,-7,64,19
2002,-493,0,868,-18,11,2
2003,-249,-67,988,-10,-62,-7
2004,248,-76,1099,-3,-89,5
2005,461,-37,1029,9,-33,6
2006,320,17,1011,6,35,3
2007,-89,51,986,-2,73,18
2008,-437,42,905,-11,48,15
2009,-442,-21,889,-17,-21,-4
2010,-62,-75,1046,-9,-80,-3
2011,378,-71,1084,0,-73,8
2012,451,-18,1011,7,-6,3
2013,174,21,1016,2,57,8
2014,-234,59,959,-7,69,21
2015,-501,18,865,-14,26,5
2016,-337,-53,942,-14,-49,-8
2017,138,-79,1087,-6,-86,3
2018,453,-47,1054,5,-50,7
2019,394,7,1012,8,22,2
2020,10,46,1004,-1,69,15
2021,-390,52,918,-14,57,19
2022,-491,-16,868,-18,-4,-3
2023,-176,-76,1016,-11,-74,-6
2024,328,-72,1099,1,-81,8
2025,474,-30,1026,8,-22,4
2026,262,23,1013,4,47,5
2027,-172,60,975,-4,72,20
2028,-484,33,878,-17,39,10
2029,-396,-39,914,-13,-35,-8
2030,43,-77,1071,-9,-85,-1
2031,430,-64,1070,-1,-62,8
2032,428,-7,1011,5,6,1
2033,81,35,999,-4,65,10
2034,-312,53,938,-5,65,21
2035,-491,0,869,-23,11,3
2036,-260,-61,986,-7,-59,-7
2037,236,-72,1099,-4,-88,4
2038,459,-41,1031,6,-35,5
2039,326,15,1013,10,34,3
2040,-74,49,984,-6,72,19
2041,-430,42,910,-9,50,16
2042,-451,-25,886,-21,-20,-7
2043,-79,-68,1040,-3,-78,-2
2044,373,-74,1084,-3,-74,9
2045,455,-17,1015,9,-7,3
2046,186,31,1020,1,55,8
2047,-226,61,959,-7,69,20
2048,-498,15,862,-16,26,7
2049,-351,-49,942,-13,-48,-8
2050,129,-85,1083,-6,-86,1
2051,452,-54,1059,5,-51,8
2052,398,6,1009,8,22,2
2053,21,45,1007,2,69,15
2054,-388,49,919,-14,59,18
2055,-492,-11,867,-16,-1,-3
2056,-185,-67,1015,-11,-72,-6
2057,321,-78,1092,0,-81,7
2058,474,-22,1031,9,-23,4
2059,264,22,1011,3,46,4
2060,-164,52,981,-6,71,20
2061,-480,32,875,-17,39,11
2062,-395,-41,912,-12,-33,-8
2063,33,-80,1072,-7,-84,0
2064,417,-62,1067,4,-62,8
2065,429,-4,1014,7,5,2
2066,90,34,997,0,65,11
2067,-304,58,943,-9,64,19
2068,-492,6,870,-17,12,2
2069,-264,-56,981,-11,-58,-7
2070,225,-80,1099,-2,-88,5
2071,456,-43,1029,5,-37,6
2072,336,13,1016,8,33,3
2073,-66,44,986,-6,72,17
2074,-421,49,910,-11,50,16
2075,-458,-23,884,-18,-17,-5
2076,-90,-75,1036,-8,-79,-4
2077,366,-66,1091,0,-75,8
2078,459,-19,1013,7,-8,2
2079,197,19,1020,5,55,6
2080,-222,62,963,-9,69,21
2081,-500,17,861,-14,29,8
2082,-357,-53,940,-17,-48,-8
2083,114,-84,1073,-4,-86,1
2084,454,-51,1066,6,-53,7
2085,404,6,1013,8,18,1
2086,29,43,1003,-3,69,14
2087,-383,57,922,-11,60,19
2088,-492,-9,865,-17,0,-2
2089,-196,-72,1009,-13,-69,-6
2090,313,-77,1096,-2,-82,6
2091,473,-31,1027,7,-25,5
2092,275,14,1014,5,45,3
2093,-156,57,978,-2,72,19
2094,-472,32,883,-17,40,12
2095,-403,-35,909,-13,-29,-6
2096,18,-72,1066,-6,-86,-2
2097,416,-65,1073,1,-63,8
2098,430,-5,1016,7,5,2
2099,98,33,1000,-2,63,12
2100,-293,56,947,-7,65,21
2101,-493,1,867,-18,14,2
2102,-277,-58,973,-9,-58,-8
2103,212,-81,1097,-3,-87,5
2104,454,-46,1036,8,-38,7
2105,343,15,1011,7,31,2
2106,-54,52,995,-2,71,17
2107,-419,46,906,-11,51,17
2108,-463,-19,882,-16,-17,-5
2109,-106,-69,1033,-9,-77,-5
2110,367,-76,1088,1,-77,9
2111,463,-20,1015,5,-10,3
2112,209,25,1021,2,54,7
2113,-211,56,965,-7,68,22
2114,-501,20,864,-14,31,7
2115,-361,-48,932,-15,-46,-8
2116,110,-79,1082,-4,-87,2
2117,453,-58,1066,6,-52,7
2118,407,8,1010,7,18,1
2119,34,47,1005,0,68,15
2120,-375,50,923,-15,61,18
2121,-496,-7,865,-16,2,-2
2122,-203,-70,1007,-12,-70,-6
2123,304,-83,1099,0,-83,7
2124,474,-32,1029,8,-27,5
2125,278,19,1011,5,44,4
2126,-144,53,982,-4,74,19
2127,-469,35,884,-16,41,12
2128,-413,-31,903,-13,-29,-7
2129,11,-76,1066,-8,-85,0
2130,412,-64,1074,3,-66,8
2131,433,-9,1014,7,4,1
2132,112,30,1005,-1,62,12
2133,-285,58,949,-9,66,21
2134,-494,3,861,-16,17,2
2135,-289,-60,975,-12,-57,-8
2136,197,-84,1095,-4,-88,4
2137,454,-44,1033,8,-40,6
2138,357,14,1017,7,29,3
2139,-41,48,995,-5,71,17
2140,-416,52,909,-11,54,16
2141,-470,-19,880,-19,-15,-4
2142,-119,-73,1025,-10,-77,-3
2143,357,-72,1095,2,-76,8
2144,468,-27,1018,5,-13,3
2145,216,23,1024,7,54,6
2146,-206,61,965,-8,69,21
2147,-499,24,864,-15,32,8
2148,-369,-46,932,-15,-44,-9
2149,96,-79,1074,-5,-86,1
2150,450,-54,1071,5,-56,9
2151,414,1,1012,6,15,2
2152,45,43,1003,1,68,13
2153,-366,53,929,-13,60,19
2154,-496,-13,865,-16,4,-2
2155,-211,-71,1002,-13,-69,-6
2156,295,-74,1097,1,-84,5
2157,472,-36,1028,7,-26,5
2158,287,21,1015,5,40,4
2159,-135,60,980,-4,73,19
2160,-457,34,893,-16,43,13
2161,-420,-25,904,-16,-27,-6
2162,-6,-71,1064,-8,-84,-2
2163,403,-73,1073,0,-68,8
2164,436,-13,1009,7,1,1
2165,126,27,1009,1,62,10
2166,-270,58,946,-6,67,21
2167,-496,6,870,-17,18,3
2168,-299,-53,963,-13,-54,-7
2169,185,-77,1092,1,-87,4
2170,456,-49,1039,2,-41,6
2171,367,12,1012,10,29,2
2172,-28,49,999,-4,70,17
2173,-409,45,911,-12,56,16
2174,-476,-17,874,-17,-14,-4
2175,-132,-74,1023,-11,-77,-5
2176,353,-79,1093,0,-78,8
2177,467,-23,1019,8,-15,4
2178,231,24,1020,8,52,7
2179,-197,59,972,-7,71,21
2180,-501,28,864,-13,35,9
2181,-374,-40,926,-14,-42,-9
2182,85,-80,1077,-9,-86,2
2183,446,-59,1070,4,-57,9
2184,415,2,1013,5,13,1
2185,52,36,1001,0,68,12
2186,-353,49,929,-12,60,20
2187,-497,-5,867,-17,7,0
2188,-221,-69,1001,-11,-66,-7
2189,281,-78,1098,-1,-86,7
2190,468,-33,1031,8,-28,5
2191,301,16,1012,4,39,4
2192,-123,50,981,-4,73,19
2193,-452,38,896,-14,45,13
2194,-426,-28,897,-15,-26,-7
2195,-23,-78,1057,-9,-84,-2
2196,393,-70,1077,1,-68,8
2197,443,-11,1014,8,-2,2
2198,140,20,1008,1,60,9
2199,-257,62,953,-6,69,20
2200,-496,11,865,-16,20,4
2201,-315,-58,956,-12,-52,-8
2202,166,-72,1099,-3,-87,3
2203,452,-50,1040,4,-47,7
2204,379,7,1013,8,27,3
2205,-15,48,1003,-3,70,17
2206,-401,45,911,-12,56,16
2207,-483,-16,874,-17,-8,-3
2208,-151,-71,1017,-12,-76,-5
2209,346,-75,1093,1,-80,8
2210,472,-22,1025,8,-17,3
2211,242,21,1019,3,49,6
2212,-187,59,973,-6,70,22
2213,-496,24,863,-17,37,10
2214,-383,-43,928,-12,-39,-8
2215,68,-83,1070,-8,-86,1
2216,443,-60,1072,5,-59,8
2217,420,-1,1015,7,11,2
2218,61,40,998,0,68,12
2219,-342,56,935,-10,62,18
2220,-495,-4,867,-17,7,1
2221,-234,-64,994,-11,-64,-8
2222,267,-74,1097,-3,-86,6
2223,464,-43,1029,9,-31,4
2224,307,16,1011,4,37,2
2225,-110,52,982,-4,74,18
2226,-443,35,897,-13,46,14
2227,-436,-25,893,-15,-21,-6
2228,-42,-73,1055,-8,-83,-2
2229,389,-70,1079,3,-71,8
2230,446,-9,1010,8,-2,3
2231,155,24,1012,1,57,9
2232,-248,60,960,-7,68,22
2233,-497,7,865,-16,22,6
2234,-327,-51,951,-12,-52,-8
2235,157,-82,1090,-5,-87,4
2236,453,-57,1046,6,-47,8
2237,383,12,1017,11,25,1
2238,-3,45,1004,-2,69,16
2239,-401,48,911,-12,58,18
2240,-488,-13,871,-17,-7,-3
2241,-161,-72,1017,-12,-73,-5
2242,339,-76,1095,2,-80,7
2243,473,-25,1022,6,-19,5
2244,253,22,1020,8,49,6
2245,-183,55,977,-6,69,20
2246,-493,28,867,-16,37,10
2247,-385,-39,920,-14,-37,-8
2248,60,-83,1074,-7,-87,0
2249,436,-59,1072,5,-59,8
2250,420,2,1014,7,9,3
2251,65,35,1000,0,67,12
2252,-330,56,939,-10,63,20
2253,-492,0,863,-16,8,1
2254,-241,-67,997,-12,-62,-7
2255,255,-77,1099,-2,-86,5
2256,461,-42,1025,3,-32,6
2257,315,17,1016,7,36,4
2258,-97,53,983,-7,73,18
2259,-433,37,902,-11,46,15
2260,-442,-22,895,-16,-21,-5
2261,-53,-79,1046,-8,-81,-3
2262,382,-66,1085,1,-73,8
2263,448,-12,1011,8,-4,2
2264,168,23,1016,2,56,9
2265,-244,66,958,-7,68,21
2266,-494,10,864,-15,24,6
2267,-336,-53,950,-14,-51,-7
2268,145,-79,1086,-3,-87,4
2269,457,-53,1049,3,-48,7
2270,390,8,1014,11,23,2
2271,9,48,1003,-1,69,16
2272,-397,52,915,-14,58,18
2273,-490,-17,866,-17,-6,-3
2274,-169,-72,1015,-12,-74,-5
2275,332,-71,1094,2,-79,6
2276,480,-34,1024,4,-23,4
2277,257,25,1018,7,49,4
2278,-175,60,975,-6,70,20
2279,-491,27,872,-17,37,11
2280,-393,-39,919,-14,-34,-7
2281,48,-79,1070,-8,-87,0
2282,432,-61,1073,4,-60,8
2283,427,-7,1013,6,8,3
2284,78,33,997,0,66,13
2285,-323,58,943,-8,62,21
2286,-491,-7,863,-17,11,2
2287,-251,-57,991,-9,-61,-6
2288,247,-73,1099,-4,-87,5
2289,459,-44,1026,5,-33,5
2290,319,16,1014,7,33,3
2291,-84,50,986,-5,71,19
2292,-432,39,905,-11,48,16
2293,-449,-26,892,-16,-20,-5
2294,-60,-75,1044,-10,-78,-2
2295,377,-75,1085,1,-72,9
2296,452,-15,1011,9,-5,2
2297,175,28,1019,3,57,9
2298,-236,62,958,-8,70,21
2299,-499,18,865,-13,26,6
2300,-341,-49,944,-16,-49,-7
2301,136,-80,1085,-6,-89,3
2302,454,-55,1053,5,-51,7
2303,396,4,1016,7,21,2
2304,14,41,1006,1,68,15
2305,-394,52,918,-12,60,19
2306,-492,-11,867,-14,-4,-2
2307,-177,-69,1015,-11,-74,-6
2308,329,-74,1098,3,-81,7
2309,477,-23,1026,5,-22,4
2310,265,22,1012,4,47,5
2311,-170,54,981,-6,71,20
2312,-488,29,871,-15,38,11
2313,-397,-40,916,-14,-34,-7
2314,41,-86,1068,-7,-85,0
2315,429,-64,1072,5,-62,7
2316,429,0,1010,8,7,3
2317,82,37,999,-1,65,10
2318,-315,60,943,-7,65,20
2319,-490,0,864,-19,12,3
2320,-261,-59,992,-11,-61,-7
2321,236,-78,1095,-3,-87,5
2322,458,-43,1028,5,-34,7
2323,326,12,1016,6,33,3
2324,-76,42,981,-3,71,16
2325,-429,43,912,-8,50,15
2326,-451,-24,887,-19,-19,-6
2327,-75,-72,1039,-6,-77,-4
2328,373,-65,1086,2,-73,7
2329,456,-17,1014,6,-7,3
2330,183,26,1020,3,56,7
2331,-230,61,960,-8,69,21
2332,-495,14,865,-15,25,8
2333,-345,-51,943,-15,-48,-8
2334,129,-83,1083,-4,-86,2
2335,455,-52,1057,5,-50,7
2336,397,5,1015,6,22,1
2337,19,50,1004,1,69,15
2338,-386,52,915,-13,59,18
2339,-492,-10,872,-17,-3,-1
2340,-185,-68,1008,-12,-71,-6
2341,327,-73,1096,1,-82,7
2342,478,-35,1030,6,-23,5
2343,265,20,1012,6,46,5
2344,-167,57,976,-3,72,20
2345,-483,29,880,-17,40,11
2346,-399,-36,907,-12,-33,-7
2347,33,-73,1074,-8,-86,-1
2348,427,-68,1074,3,-62,8
2349,427,-3,1013,7,6,2
2350,88,35,998,0,65,11
2351,-307,56,944,-8,64,21
2352,-495,0,867,-19,12,2
2353,-264,-57,983,-9,-58,-7
2354,228,-78,1100,-3,-87,5
2355,457,-47,1028,5,-35,6
2356,335,17,1019,7,34,3
2357,-69,47,987,-6,71,17
2358,-426,42,908,-10,49,15
2359,-456,-18,885,-18,-18,-5
2360,-83,-71,1038,-9,-79,-4
2361,369,-75,1088,0,-75,9
2362,459,-19,1015,7,-7,3
2363,192,25,1020,4,56,8
2364,-222,55,963,-7,70,22
2365,-499,21,863,-13,28,8
2366,-353,-46,940,-14,-48,-8
2367,124,-81,1082,-3,-84,1
2368,455,-53,1060,7,-51,7
2369,403,8,1013,12,20,1
2370,24,44,1010,-7,69,16
2371,-386,51,920,-8,59,19
2372,-495,-12,864,-21,-1,-2
2373,-187,-75,1011,-10,-70,-6
2374,316,-76,1094,1,-83,6
2375,474,-30,1028,6,-23,4
2376,271,19,1014,5,46,5
2377,-158,56,978,-6,72,20
2378,-477,32,878,-13,40,12
2379,-404,-32,913,-16,-31,-7
2380,26,-79,1067,-7,-86,0
2381,418,-62,1071,2,-62,10
2382,431,-4,1014,9,5,4
2383,92,23,998,-4,63,12
2384,-297,58,947,-6,66,22
2385,-491,3,869,-18,14,2
2386,-272,-63,977,-10,-59,-7
2387,218,-72,1099,-3,-88,5
2388,457,-41,1029,4,-38,7
2389,338,11,1012,7,31,3
2390,-61,51,988,-5,72,18
2391,-418,45,914,-12,50,16
2392,-462,-23,881,-18,-16,-5
2393,-94,-75,1037,-10,-79,-4
2394,365,-71,1089,1,-77,7
2395,460,-22,1012,8,-9,3
2396,204,26,1024,5,55,7
2397,-220,64,963,-8,69,21
2398,-500,14,862,-14,30,6
2399,-358,-47,938,-13,-46,-8
2400,113,-81,1079,-5,-87,2
2401,457,-56,1065,7,-53,9
2402,405,5,1010,5,19,0
2403,31,43,1005,0,69,13
2404,-378,52,922,-14,60,19
2405,-495,-12,867,-15,0,-1
2406,-196,-67,1008,-11,-71,-6
2407,311,-73,1097,0,-82,7
2408,473,-34,1030,8,-25,5
2409,277,20,1013,5,45,6
2410,-153,58,976,-2,72,20
2411,-473,30,882,-17,40,13
2412,-410,-34,908,-14,-29,-8
2413,18,-77,1066,-8,-86,-2
2414,415,-68,1075,3,-65,9
2415,433,-6,1010,8,4,3
2416,103,31,1003,0,63,12
2417,-290,55,946,-8,66,19
2418,-493,4,868,-14,15,3
2419,-283,-53,974,-11,-58,-8
2420,208,-80,1099,-4,-87,5
2421,455,-45,1031,2,-39,7
2422,347,9,1017,10,30,2
2423,-47,42,991,-5,72,16
2424,-417,48,910,-10,52,16
2425,-466,-20,880,-18,-16,-5
2426,-103,-72,1031,-8,-77,-4
2427,360,-72,1090,1,-76,7
2428,465,-22,1017,6,-11,2
2429,212,27,1024,4,54,8
2430,-213,57,966,-8,69,21
2431,-501,22,863,-15,31,8
2432,-367,-46,935,-15,-44,-8
2433,108,-89,1076,-5,-87,1
2434,453,-54,1068,8,-54,8
2435,408,4,1014,6,17,1
2436,35,39,1000,0,68,14
2437,-374,56,927,-13,60,19
2438,-494,-8,864,-17,2,-2
2439,-206,-69,1009,-10,-69,-7
2440,300,-74,1100,-2,-83,7
2441,475,-32,1026,8,-27,5
2442,283,15,1012,3,43,5
2443,-145,61,981,-2,74,19
2444,-463,31,885,-18,40,13
2445,-413,-31,906,-13,-29,-7
2446,7,-80,1062,-9,-84,-2
2447,409,-68,1073,2,-67,9
2448,431,-6,1011,9,2,2
2449,114,25,1003,-1,62,10
2450,-280,62,950,-6,65,20
2451,-495,8,866,-17,17,3
2452,-292,-56,970,-14,-56,-8
2453,198,-79,1095,-4,-88,5
2454,453,-46,1032,4,-41,7
2455,359,7,1015,6,29,2
2456,-40,45,994,-3,70,18
2457,-415,50,915,-13,54,17
2458,-472,-25,879,-16,-14,-5
2459,-120,-72,1023,-8,-77,-4
2460,356,-71,1092,0,-76,9
2461,469,-26,1020,5,-13,3
2462,219,28,1019,6,53,6
2463,-206,64,968,-8,70,21
2464,-501,19,863,-16,32,9
2465,-372,-41,934,-13,-44,-8
2466,92,-86,1072,-8,-87,1
2467,453,-61,1074,6,-57,9
2468,415,4,1010,8,16,2
2469,46,44,999,1,69,14
2470,-361,53,932,-13,61,20
2471,-500,-4,865,-16,6,0
2472,-216,-65,1002,-13,-68,-7
2473,292,-77,1100,-1,-85,6
2474,471,-37,1027,7,-27,4
2475,291,16,1011,5,41,4
2476,-130,55,982,-5,72,20
2477,-457,31,888,-14,43,14
2478,-420,-30,899,-15,-26,-7
2479,-10,-75,1065,-7,-84,-3
2480,400,-72,1076,1,-68,8
2481,435,-7,1011,9,1,2
2482,130,32,1003,0,61,10
2483,-268,57,954,-8,67,21
2484,-492,9,870,-16,18,2
2485,-299,-53,961,-14,-55,-8
2486,182,-83,1094,-3,-87,4
2487,456,-47,1038,2,-42,7
2488,366,14,1016,8,29,2
2489,-27,42,997,-5,70,16
2490,-410,49,909,-10,56,17
2491,-476,-14,878,-17,-13,-4
2492,-133,-77,1022,-11,-76,-6
2493,351,-69,1095,4,-77,6
2494,471,-23,1020,5,-15,3
2495,232,20,1021,7,50,7
2496,-198,62,973,-7,70,20
2497,-498,23,862,-16,34,9
2498,-377,-43,928,-15,-42,-7
2499,83,-83,1073,-7,-87,0
2500,446,-58,1072,4,-58,7
2501,420,4,1015,7,13,1
2502,52,35,998,0,68,13
2503,-354,58,933,-10,61,19
2504,-494,-4,862,-16,6,0
2505,-227,-68,1003,-10,-67,-6
2506,278,-74,1096,-1,-85,5
2507,469,-33,1030,7,-29,5
2508,295,12,1009,4,39,3
2509,-115,57,987,-4,72,19
2510,-452,37,893,-14,45,14
2511,-430,-34,897,-16,-26,-6
2512,-25,-73,1060,-7,-83,-2
2513,392,-68,1075,2,-69,8
2514,443,-14,1012,8,0,2
2515,142,30,1012,2,60,9
2516,-254,59,949,-8,70,21
2517,-495,10,868,-16,20,6
2518,-321,-55,954,-13,-52,-8
2519,169,-79,1093,-4,-88,2
2520,452,-52,1044,3,-46,7
2521,378,7,1013,9,26,2
2522,-8,48,1000,-1,70,15
2523,-406,46,913,-11,57,18
2524,-482,-18,872,-15,-8,-3
2525,-155,-71,1020,-12,-75,-5
2526,346,-76,1096,1,-80,7
2527,477,-29,1021,5,-17,4
2528,243,24,1019,6,51,6
2529,-188,59,976,-6,70,20
2530,-496,23,865,-16,37,11
2531,-389,-36,922,-14,-38,-6
2532,67,-79,1070,-7,-88,0
2533,440,-63,1075,6,-58,8
2534,419,2,1014,8,10,1
2535,66,39,999,0,67,13
2536,-337,53,935,-11,63,21
2537,-492,-5,867,-19,8,1
2538,-234,-66,994,-12,-63,-6
2539,259,-79,1102,-4,-86,5
2540,465,-37,1025,8,-31,4
2541,310,21,1014,6,37,4
2542,-104,52,982,-3,73,19
2543,-438,39,900,-12,46,15
2544,-440,-23,896,-17,-22,-6
2545,-43,-79,1048,-8,-82,-2
2546,383,-69,1082,-1,-70,8
2547,448,-16,1012,8,-3,2
2548,162,26,1016,2,56,9
2549,-242,60,956,-8,69,21
2550,-499,15,867,-14,23,5
2551,-328,-53,950,-15,-51,-7
2552,149,-82,1091,-5,-87,3
2553,453,-52,1045,1,-49,7
2554,389,9,1018,9,23,2
2555,4,40,1002,-4,69,17
2556,-399,51,913,-11,57,18
2557,-488,-12,870,-17,-6,-3
2558,-163,-77,1015,-12,-72,-5
2559,336,-70,1096,1,-81,6
2560,477,-23,1029,7,-21,4
2561,254,20,1017,4,49,6
2562,-179,61,978,-5,71,20
2563,-492,27,868,-18,38,12
2564,-392,-42,917,-13,-35,-7
2565,52,-80,1069,-6,-86,0
2566,433,-61,1071,4,-60,9
2567,426,-2,1016,8,7,2
2568,76,37,996,-1,67,12
2569,-323,61,942,-9,65,20
2570,-494,0,868,-19,10,2
2571,-254,-64,987,-11,-61,-7
2572,244,-77,1097,-3,-87,6
2573,465,-43,1031,4,-34,5
2574,323,12,1014,7,34,3
2575,-87,52,988,-4,73,18
2576,-429,42,904,-10,48,15
2577,-452,-24,889,-16,-20,-4
2578,-69,-72,1042,-8,-78,-4
2579,377,-68,1085,-1,-73,8
2580,453,-16,1013,7,-5,3
2581,184,26,1019,1,55,9
2582,-230,62,960,-9,69,22
2583,-503,10,864,-14,27,5
2584,-343,-53,945,-17,-49,-8
2585,129,-82,1082,-3,-86,2
2586,454,-56,1058,4,-50,7
2587,397,6,1013,9,23,3
2588,16,49,1002,-2,70,15
2589,-388,54,918,-10,58,18
2590,-495,-11,866,-17,-3,-2
2591,-181,-66,1012,-11,-71,-5
2592,328,-78,1099,0,-82,7
2593,474,-32,1024,7,-23,4
2594,268,18,1014,5,47,4
2595,-168,56,977,-7,71,22
2596,-484,28,877,-14,39,11
2597,-400,-41,915,-15,-34,-7
2598,38,-75,1070,-7,-87,0
2599,423,-63,1068,1,-62,8
2600,428,-3,1015,8,7,1
2601,90,38,1001,-1,64,12
2602,-307,55,946,-6,65,20
2603,-493,1,868,-17,11,3
2604,-268,-60,979,-13,-59,-7
2605,226,-86,1098,-3,-87,5
2606,456,-42,1029,5,-36,5
2607,335,16,1015,10,33,1
2608,-67,45,987,-5,72,18
2609,-424,46,909,-9,51,16
2610,-459,-20,885,-17,-19,-6
2611,-84,-71,1038,-8,-79,-2
2612,367,-69,1086,1,-75,8
2613,464,-19,1012,6,-9,3
2614,199,21,1026,2,55,8
2615,-224,60,963,-9,69,21
2616,-500,15,859,-13,29,7
2617,-356,-48,941,-15,-46,-6
2618,121,-83,1079,-3,-86,1
2619,451,-54,1066,7,-52,7
2620,406,8,1013,6,19,2
2621,29,45,1003,0,69,15
2622,-383,56,924,-14,61,18
2623,-494,-11,866,-15,-1,-3
2624,-195,-76,1012,-12,-72,-6
2625,315,-80,1091,-1,-81,7
2626,477,-27,1029,8,-25,5
2627,275,15,1012,4,44,5
2628,-156,58,982,-3,74,19
2629,-474,38,880,-16,39,11
2630,-403,-39,909,-13,-31,-7
2631,18,-74,1066,-8,-84,-2
2632,419,-62,1070,4,-65,8
2633,432,-10,1013,7,5,2
2634,101,33,1006,-1,64,11
2635,-290,58,944,-7,66,20
2636,-495,4,871,-17,14,4
2637,-279,-57,974,-13,-57,-8
2638,207,-78,1097,-4,-87,5
2639,455,-44,1034,4,-39,6
2640,350,12,1014,7,31,2
2641,-52,51,989,-3,71,17
2642,-418,45,912,-11,52,15
2643,-468,-23,881,-17,-17,-5
2644,-107,-74,1030,-12,-78,-4
2645,367,-74,1091,1,-76,7
2646,463,-23,1017,9,-9,2
2647,211,28,1025,6,55,6
2648,-213,61,963,-9,70,21
2649,-504,21,861,-15,30,7
2650,-366,-47,933,-15,-45,-9
2651,102,-76,1077,-7,-87,1
2652,454,-60,1067,4,-54,8
2653,409,5,1012,6,16,2
2654,39,44,1004,1,69,15
2655,-373,51,925,-14,60,20
2656,-496,-10,864,-15,3,-1
2657,-208,-65,1008,-10,-70,-6
2658,303,-76,1096,-1,-84,6
2659,474,-35,1031,7,-26,4
2660,283,20,1009,4,42,4
2661,-142,51,980,-4,73,19
2662,-467,37,888,-16,41,14
2663,-414,-31,903,-15,-28,-7
2664,5,-79,1065,-9,-84,-1
2665,405,-65,1074,2,-66,8
2666,435,-7,1011,7,2,2
2667,115,31,1003,0,62,11
2668,-276,56,949,-8,66,20
2669,-491,7,865,-18,14,4
2670,-292,-57,969,-11,-55,-8
2671,197,-87,1097,-4,-86,4
2672,451,-43,1035,5,-40,6
2673,358,13,1015,8,29,1
2674,-41,45,994,-3,70,18
2675,-417,50,910,-11,54,17
2676,-469,-20,878,-17,-14,-5
2677,-120,-75,1026,-11,-75,-4
2678,357,-75,1094,0,-77,6
2679,469,-23,1014,7,-13,3
2680,221,23,1025,4,53,8
2681,-207,59,968,-6,69,21
2682,-502,24,862,-17,32,9
2683,-372,-44,931,-15,-44,-8
2684,96,-82,1076,-7,-86,1
2685,448,-58,1071,7,-55,8
2686,417,3,1015,6,15,2
2687,43,40,1001,1,69,14
2688,-367,55,924,-11,61,19
2689,-496,-5,865,-17,5,-1
2690,-214,-68,1002,-10,-67,-7
2691,293,-75,1099,-2,-86,6
2692,473,-30,1031,9,-27,4
2693,294,13,1009,2,41,4
2694,-135,57,986,-1,73,19
2695,-457,34,887,-16,43,13
2696,-418,-33,901,-13,-27,-6
2697,-9,-72,1067,-8,-84,-1
2698,403,-70,1071,0,-68,9
2699,436,-8,1015,9,0,3
2700,126,28,1005,0,60,10
2701,-266,61,950,-6,66,22
2702,-497,9,866,-19,18,4
2703,-305,-56,963,-10,-53,-7
2704,185,-75,1093,-4,-88,4
2705,456,-52,1041,1,-42,7
2706,368,10,1016,12,29,1
2707,-26,47,994,-9,71,17
2708,-410,51,911,-5,56,18
2709,-478,-22,876,-23,-12,-4
2710,-137,-69,1023,-4,-75,-5
2711,353,-77,1091,-6,-79,6
2712,477,-25,1023,10,-15,4
2713,229,27,1019,2,53,8
2714,-196,57,969,-6,72,21
2715,-501,23,866,-17,34,9
2716,-377,-42,927,-15,-42,-7
2717,83,-79,1072,-6,-86,1
2718,448,-61,1068,5,-58,9
2719,415,6,1015,10,13,2
2720,53,41,1003,-3,68,13
2721,-354,53,931,-10,62,20
2722,-496,-3,866,-18,6,0
2723,-222,-68,1000,-10,-66,-7
2724,282,-79,1099,-3,-85,6
2725,468,-35,1028,8,-28,5
2726,300,16,1008,6,39,4
2727,-124,56,984,-4,74,19
2728,-454,37,895,-13,46,14
2729,-427,-26,897,-18,-26,-7
2730,-21,-75,1059,-8,-84,-3
2731,396,-71,1074,-1,-69,8
2732,441,-10,1012,10,0,3
2733,137,26,1012,-2,60,10
2734,-260,61,950,-5,69,21
2735,-494,10,868,-16,19,5
2736,-311,-58,961,-15,-53,-8
2737,173,-79,1091,-3,-87,3
2738,452,-49,1040,4,-45,5
2739,374,9,1017,9,28,1
2740,-18,47,997,-4,69,15
2741,-408,49,910,-9,56,17
2742,-477,-15,878,-18,-10,-3
2743,-146,-71,1019,-10,-74,-4
2744,349,-73,1097,1,-80,7
2745,472,-22,1020,6,-16,5
2746,237,18,1019,4,52,7
2747,-193,60,970,-6,70,20
2748,-498,30,867,-16,36,10
2749,-381,-44,925,-16,-41,-8
2750,76,-79,1077,-5,-86,0
2751,444,-61,1066,4,-57,8
2752,419,-4,1014,8,12,2
2753,54,41,1002,0,68,13
2754,-346,55,929,-10,62,19
2755,-495,-5,866,-17,6,1
2756,-232,-65,1002,-10,-66,-8
2757,274,-73,1097,-3,-86,6
2758,466,-34,1031,7,-31,6
2759,306,15,1010,4,38,4
2760,-114,55,984,-6,73,20
2761,-447,37,899,-13,46,14
2762,-430,-31,896,-16,-25,-7
2763,-33,-76,1054,-6,-82,-2
2764,390,-69,1080,1,-70,9
2765,442,-19,1007,11,-1,1
2766,145,32,1016,2,59,8
2767,-252,61,952,-6,68,21
2768,-497,10,865,-16,21,6
2769,-320,-51,956,-16,-52,-8
2770,164,-83,1091,-2,-86,3
2771,452,-51,1043,2,-45,8
2772,380,10,1014,10,26,2
2773,-12,47,1002,-3,70,16
2774,-404,43,910,-12,57,17
2775,-485,-15,875,-16,-11,-4
2776,-148,-66,1018,-12,-74,-5
2777,346,-77,1095,-1,-78,7
2778,478,-23,1029,6,-18,4
2779,239,25,1016,5,51,6
2780,-193,55,974,-8,70,20
2781,-498,23,866,-14,35,10
2782,-384,-43,923,-14,-39,-8
2783,72,-80,1076,-6,-87,-1
2784,443,-60,1069,4,-58,8
2785,423,5,1011,7,12,1
2786,59,40,1001,-1,68,13
2787,-342,54,934,-11,63,19
2788,-499,-2,867,-16,8,0
2789,-232,-62,1000,-11,-65,-8
2790,267,-82,1097,-2,-86,6
2791,464,-39,1028,7,-30,6
2792,308,18,1016,6,37,4
2793,-109,48,978,-5,74,19
2794,-443,42,903,-13,44,14
2795,-435,-25,893,-15,-23,-5
2796,-36,-78,1053,-10,-80,-2
2797,387,-65,1083,3,-69,7
2798,449,-13,1009,7,-2,2
2799,152,22,1011,1,59,9
2800,-253,62,957,-8,69,21
2801,-494,10,863,-16,21,6
2802,-325,-55,954,-14,-51,-7
2803,158,-80,1093,-2,-88,2
2804,452,-49,1041,6,-47,5
2805,383,5,1014,8,25,1
2806,-3,49,1007,0,69,14
2807,-405,48,907,-12,57,17
2808,-484,-15,872,-17,-7,-3
2809,-158,-69,1017,-11,-75,-6
2810,343,-76,1095,3,-79,7
2811,476,-25,1027,6,-19,4
2812,246,22,1020,4,50,6
2813,-185,57,974,-5,71,22
2814,-495,30,867,-18,36,10
2815,-388,-46,922,-13,-38,-8
2816,64,-81,1069,-7,-87,-1
2817,441,-57,1072,7,-59,8
2818,425,-5,1013,6,9,2
2819,65,42,1001,2,67,12
2820,-336,57,935,-11,63,19
2821,-494,-9,865,-17,9,2
2822,-242,-62,998,-9,-64,-7
2823,263,-76,1094,-3,-86,5
2824,468,-44,1026,6,-31,5
2825,310,19,1018,4,36,2
2826,-104,48,979,-3,73,19
2827,-440,42,903,-13,46,15
2828,-438,-25,890,-16,-22,-6
2829,-44,-71,1049,-7,-81,-3
2830,385,-70,1082,1,-71,8
2831,444,-11,1012,6,-4,2
2832,160,26,1013,2,58,8
2833,-245,59,959,-8,67,20
2834,-496,10,866,-15,22,5
2835,-329,-55,947,-14,-50,-9
2836,154,-79,1092,-3,-87,4
2837,452,-57,1046,4,-47,8
2838,385,8,1014,8,26,2
2839,-1,50,1006,-2,68,17
2840,-401,47,911,-13,56,17
2841,-486,-12,874,-14,-6,-3
2842,-159,-69,1016,-13,-74,-5
2843,341,-79,1096,1,-79,7
2844,473,-24,1026,4,-19,4
2845,247,21,1016,6,50,5
2846,-183,52,975,-6,72,21
2847,-495,28,868,-14,37,10
2848,-385,-40,921,-14,-37,-8
2849,60,-83,1073,-6,-86,1
2850,438,-59,1069,5,-60,8
2851,421,0,1015,8,10,1
2852,68,34,997,-1,67,12
2853,-333,56,939,-9,63,21
2854,-495,0,866,-17,10,0
2855,-241,-67,995,-12,-62,-6
2856,256,-76,1101,-1,-87,7
2857,462,-37,1026,6,-32,6
2858,313,13,1011,6,37,4
2859,-99,55,986,-5,72,18
2860,-436,40,904,-10,48,14
2861,-440,-24,891,-20,-23,-5
2862,-50,-74,1050,-7,-82,-2
2863,383,-74,1078,-1,-71,8
2864,449,-12,1016,9,-3,3
2865,165,20,1012,0,57,9
2866,-246,63,959,-7,69,21
2867,-495,13,862,-14,22,5
2868,-333,-54,951,-14,-50,-8
2869,146,-81,1087,-3,-86,2
2870,455,-49,1051,2,-49,7
2871,389,6,1016,9,23,2
2872,5,46,1003,-2,67,15
2873,-397,55,914,-12,57,18
2874,-490,-17,872,-19,-5,-3
2875,-167,-72,1017,-10,-73,-5
2876,335,-74,1092,-1,-81,6
2877,479,-35,1028,6,-20,3
2878,255,23,1019,6,49,5
2879,-179,60,974,-5,70,20
2880,-491,29,872,-15,38,11
2881,-390,-37,917,-13,-36,-8
2882,51,-75,1072,-7,-86,0
2883,434,-62,1070,1,-60,8
2884,428,-2,1017,7,7,1
2885,74,34,996,-3,67,13
2886,-323,59,942,-6,64,20
2887,-495,0,868,-19,9,1
2888,-252,-62,986,-10,-60,-7
2889,246,-74,1098,-5,-87,6
2890,461,-46,1029,6,-34,5
2891,322,12,1013,4,37,4
2892,-86,52,987,-5,73,18
2893,-431,38,908,-11,49,15
2894,-448,-22,889,-17,-19,-5
2895,-65,-68,1041,-7,-80,-3
2896,378,-73,1086,-1,-73,9
2897,455,-16,1011,6,-4,3
2898,176,24,1018,1,55,8
2899,-233,58,964,-7,70,22
2900,-499,18,865,-16,27,8
2901,-346,-51,940,-16,-50,-8
2902,137,-82,1088,-5,-86,2
2903,453,-55,1053,4,-50,8
2904,398,7,1013,8,21,1
2905,13,46,1007,0,69,16
2906,-391,50,918,-12,58,19
2907,-492,-9,868,-16,-3,-2
2908,-178,-70,1014,-12,-72,-5
2909,329,-79,1095,1,-83,6
2910,475,-28,1026,9,-22,4
2911,265,21,1016,4,49,6
2912,-168,55,979,-4,71,20
2913,-486,32,875,-14,40,11
2914,-395,-32,913,-13,-32,-8
2915,40,-81,1070,-8,-87,1
2916,425,-62,1070,4,-61,7
2917,432,-3,1011,8,7,3
2918,86,32,1002,-2,64,12
2919,-310,56,942,-6,65,20
2920,-494,5,867,-18,11,2
2921,-264,-62,987,-9,-61,-8
2922,230,-76,1097,-4,-87,4
2923,458,-42,1028,6,-36,7
2924,335,7,1017,6,32,3
2925,-72,50,986,-5,73,17
2926,-425,43,908,-10,50,15
2927,-455,-23,888,-19,-18,-3
2928,-86,-74,1035,-9,-78,-3
2929,369,-66,1091,0,-75,8
2930,461,-17,1015,6,-8,3
2931,193,25,1022,4,56,7
2932,-223,63,962,-8,69,19
2933,-497,17,863,-15,29,8
2934,-354,-52,938,-16,-46,-8
2935,122,-81,1081,-5,-87,2
2936,453,-51,1061,4,-51,8
2937,403,1,1012,6,20,1
2938,25,47,1004,0,68,14
2939,-383,54,916,-13,60,18
2940,-494,-13,867,-15,-2,-2
2941,-193,-70,1008,-14,-71,-5
2942,318,-74,1097,2,-82,7
2943,478,-31,1030,8,-25,4
2944,272,23,1014,5,46,6
2945,-160,59,980,-5,73,22
2946,-476,27,883,-17,38,11
2947,-403,-36,909,-14,-31,-7
2948,22,-75,1068,-9,-85,0
2949,422,-68,1073,3,-64,8
2950,428,-7,1014,6,5,2
2951,99,33,998,0,64,10
2952,-293,60,950,-9,64,20
2953,-495,2,865,-16,15,3
2954,-277,-57,976,-12,-59,-8
2955,216,-78,1101,-4,-88,6
2956,454,-49,1028,3,-38,6
2957,345,13,1019,10,32,3
2958,-52,48,991,-5,72,18
2959,-419,43,910,-10,53,17
2960,-468,-18,884,-17,-17,-6
2961,-105,-71,1030,-9,-77,-4
2962,363,-74,1090,1,-76,8
2963,464,-21,1017,6,-12,2
2964,212,25,1019,5,54,6
2965,-211,55,967,-11,70,21
2966,-503,19,863,-13,31,8
2967,-362,-44,933,-17,-44,-8
2968,104,-82,1078,-5,-86,1
2969,450,-58,1065,4,-55,7
2970,410,6,1010,10,18,1
2971,38,41,1004,-2,69,15
2972,-372,52,926,-11,60,20
2973,-497,-5,864,-17,3,-2
2974,-199,-72,1004,-12,-69,-5
2975,302,-76,1098,-2,-82,7
2976,471,-34,1028,9,-26,4
2977,282,20,1012,5,42,4
2978,-146,56,978,-4,74,19
2979,-465,33,886,-14,42,12
2980,-413,-31,907,-15,-29,-7
2981,7,-78,1065,-7,-84,-2
2982,410,-64,1074,1,-66,9
2983,435,-8,1014,9,3,2
2984,115,27,1002,-1,62,10
2985,-283,58,953,-5,66,20
2986,-494,7,863,-17,16,5
2987,-295,-57,967,-12,-55,-8
2988,194,-80,1098,-3,-89,4
2989,459,-45,1035,5,-40,8
2990,359,9,1013,7,32,3
2991,-38,50,996,-4,70,17
2992,-413,50,908,-11,55,16
2993,-476,-19,880,-18,-12,-4
2994,-120,-72,1028,-10,-78,-5
2995,357,-74,1091,1,-76,8
2996,470,-26,1019,7,-13,3
2997,225,25,1024,4,52,8
2998,-205,63,966,-5,70,22
2999,-501,24,867,-16,32,8
3000,-373,-48,927,-15,-43,-8
3001,90,-79,1076,-6,-87,0
3002,452,-58,1072,6,-56,7
3003,414,0,1010,7,15,2
3004,45,46,1005,1,68,13
3005,-360,50,923,-12,60,19
3006,-497,-5,868,-17,4,-1
3007,-218,-71,1004,-11,-67,-7
3008,292,-78,1095,0,-85,6
3009,472,-33,1032,8,-29,5
3010,293,15,1011,5,41,4
3011,-129,62,983,-2,73,19
3012,-460,37,892,-17,43,12
3013,-422,-31,898,-15,-27,-8
3014,-13,-72,1060,-7,-84,-3
3015,402,-76,1075,1,-67,8
3016,439,-8,1013,10,0,1
3017,132,30,1005,3,60,9
3018,-265,58,952,-7,68,22
3019,-499,11,867,-16,19,5
3020,-308,-53,961,-13,-53,-8
3021,179,-79,1094,-3,-87,4
3022,455,-50,1040,3,-45,6
3023,372,10,1014,9,28,2
3024,-24,47,1001,-3,70,16
3025,-410,48,913,-13,56,17
3026,-480,-16,874,-15,-11,-4
3027,-141,-72,1019,-12,-76,-4
3028,354,-78,1095,2,-80,8
3029,476,-24,1025,5,-17,3
3030,236,28,1021,7,51,6
3031,-194,57,974,-10,70,21
3032,-499,26,864,-15,36,9
3033,-383,-39,926,-14,-41,-9
3034,79,-85,1075,-6,-88,0
3035,445,-57,1068,4,-57,9
3036,421,2,1011,6,11,2
3037,56,36,1003,1,67,13
3038,-351,56,933,-10,63,19
3039,-494,-1,863,-15,5,-1
3040,-230,-66,1000,-5,-65,-7
3041,273,-77,1097,-1,-85,6
3042,467,-34,1030,9,-31,5
3043,304,14,1012,2,38,3
3044,-113,53,982,-4,73,19
3045,-446,40,897,-11,46,12
3046,-433,-27,897,-19,-23,-6
3047,-33,-73,1053,-6,-82,-3
3048,388,-66,1076,-1,-70,7
3049,445,-13,1013,11,-2,2
3050,149,27,1014,-2,57,9
3051,-257,58,951,-4,69,21
3052,-496,12,868,-19,20,4
3053,-323,-54,953,-10,-53,-8
3054,162,-81,1092,-5,-87,3
3055,456,-53,1043,5,-46,7
3056,384,1,1015,8,25,2
3057,-10,49,1001,-1,71,15
3058,-403,52,914,-11,56,17
3059,-487,-16,873,-19,-7,-2
3060,-156,-71,1015,-12,-74,-5
3061,342,-71,1096,0,-81,6
3062,475,-29,1026,5,-19,3
3063,247,22,1017,5,50,5
3064,-187,56,974,-7,69,20
3065,-497,24,867,-17,36,10
3066,-385,-45,922,-12,-38,-8
3067,62,-80,1071,-7,-87,-2
3068,443,-59,1073,7,-58,7
3069,423,0,1012,8,10,3
3070,63,40,999,1,67,12
3071,-335,60,938,-11,62,21
3072,-495,-3,867,-19,8,1
3073,-238,-64,995,-11,-64,-7
3074,263,-79,1101,-3,-85,6
3075,464,-45,1026,5,-31,5
3076,309,16,1015,6,37,3
3077,-104,52,981,-3,73,18
3078,-441,35,901,-12,46,14
3079,-440,-25,890,-16,-23,-6
3080,-43,-71,1052,-8,-81,-3
3081,385,-69,1080,0,-72,9
3082,449,-15,1012,7,-3,2
3083,161,28,1016,3,58,8
3084,-243,56,953,-8,69,22
3085,-498,10,867,-14,23,5
3086,-331,-50,950,-14,-51,-8
3087,152,-83,1088,-3,-87,4
3088,457,-54,1052,3,-48,7
3089,385,15,1014,9,25,2
3090,1,41,1002,-3,70,15
3091,-401,54,913,-12,58,18
3092,-490,-9,868,-15,-7,-3
3093,-164,-73,1016,-13,-74,-6
3094,340,-74,1100,2,-80,7
3095,476,-26,1019,6,-21,4
3096,254,21,1023,5,49,6
3097,-183,55,976,-6,72,20
3098,-490,27,864,-15,37,11
3099,-392,-35,921,-15,-35,-8
3100,59,-88,1071,-6,-88,0
3101,434,-56,1071,6,-60,8
3102,421,0,1012,7,9,2
3103,71,35,999,-2,66,13
3104,-335,63,941,-9,63,20
3105,-490,-4,863,-21,9,1
3106,-244,-63,996,-10,-62,-7
3107,255,-79,1096,-3,-86,5
3108,463,-43,1023,7,-32,4
3109,317,13,1016,8,36,4
3110,-97,51,985,-3,73,18
3111,-436,41,899,-11,47,15
3112,-443,-22,896,-16,-22,-5
3113,-53,-75,1048,-8,-80,-3
3114,384,-64,1082,-2,-74,8
3115,450,-20,1011,7,-3,1
3116,169,22,1019,1,58,9
3117,-241,61,953,-8,69,19
3118,-498,11,867,-16,23,5
3119,-335,-54,944,-13,-50,-7
3120,146,-82,1090,-3,-87,3
3121,455,-52,1050,5,-48,7
3122,391,7,1011,8,24,2
3123,5,49,1008,-1,68,15
3124,-398,53,916,-13,58,17
3125,-489,-14,871,-18,-5,-3
3126,-168,-70,1017,-12,-74,-6
3127,337,-75,1097,1,-80,7
3128,476,-30,1023,5,-20,5
3129,255,21,1016,7,48,5
3130,-178,57,980,-6,70,21
3131,-491,25,869,-14,38,11
3132,-389,-38,921,-13,-37,-7
3133,54,-81,1069,-6,-85,-1
3134,437,-61,1073,5,-61,8
3135,421,-4,1013,7,8,2
3136,72,42,994,0,66,12
3137,-325,58,940,-11,62,21
3138,-498,-3,868,-17,9,0
3139,-246,-57,991,-11,-62,-9
3140,253,-78,1099,-4,-87,4
3141,463,-42,1030,6,-32,5
3142,318,19,1012,7,36,3
3143,-93,51,983,-6,73,19
3144,-434,43,904,-12,47,15
3145,-444,-25,889,-16,-22,-6
3146,-56,-72,1049,-8,-80,-3
3147,381,-76,1082,1,-72,7
3148,452,-11,1014,9,-4,3
3149,169,31,1016,1,57,10
3150,-238,57,956,-6,70,21
3151,-497,20,867,-16,24,6
3152,-336,-52,945,-17,-49,-8
3153,146,-82,1088,-5,-85,4
3154,450,-50,1053,4,-48,6
3155,392,6,1012,8,23,1
3156,8,45,1003,-1,69,16
3157,-399,51,912,-11,58,19
3158,-491,-14,867,-18,-6,-4
3159,-169,-75,1018,-12,-74,-5
3160,333,-76,1094,2,-78,6
3161,476,-23,1028,8,-20,3
3162,258,22,1018,4,48,5
3163,-182,59,976,-5,71,21
3164,-493,33,870,-18,39,12
3165,-393,-39,918,-13,-37,-7
3166,51,-83,1071,-9,-86,0
3167,434,-63,1069,5,-60,8
3168,428,-3,1016,7,7,2
3169,73,32,998,0,66,11
3170,-324,58,936,-9,64,20
3171,-496,1,870,-17,9,1
3172,-250,-61,990,-10,-62,-7
3173,246,-71,1101,-4,-86,6
3174,463,-41,1027,4,-34,6
3175,325,9,1013,6,35,3
3176,-90,51,986,-5,73,18
3177,-434,42,905,-12,48,15
3178,-445,-28,890,-16,-21,-6
3179,-62,-75,1044,-8,-80,-3
3180,381,-69,1086,2,-73,7
3181,450,-15,1012,7,-4,3
3182,174,26,1016,5,56,8
3183,-237,64,958,-10,70,21
3184,-499,16,864,-16,25,7
3185,-338,-55,944,-16,-51,-8
3186,140,-82,1089,-3,-86,2
3187,456,-56,1055,3,-50,8
3188,391,3,1011,11,24,2
3189,9,49,1005,-1,69,14
3190,-396,49,913,-12,57,18
3191,-492,-10,872,-17,-5,-2
3192,-167,-68,1013,-10,-73,-5
3193,334,-77,1095,0,-80,7
3194,479,-34,1026,5,-21,3
3195,255,22,1015,6,48,5
3196,-178,57,979,-5,72,21
3197,-491,26,872,-18,38,11
3198,-395,-38,915,-12,-35,-8
3199,53,-80,1072,-6,-88,0
3200,430,-64,1073,2,-60,10
3201,428,0,1014,8,8,2
3202,75,39,998,0,67,11
3203,-323,54,942,-8,64,20
3204,-495,0,867,-18,11,1
3205,-253,-63,989,-10,-61,-7
3206,246,-77,1101,-4,-88,5
3207,464,-42,1027,7,-34,6
3208,326,15,1014,7,35,2
3209,-85,48,983,-5,73,18
3210,-435,39,906,-11,48,14
3211,-449,-20,890,-17,-21,-5
3212,-64,-75,1046,-9,-80,-3
3213,376,-69,1084,0,-74,8
3214,453,-15,1012,8,-5,1
3215,175,22,1019,3,57,7
3216,-232,60,961,-7,70,21
3217,-499,15,861,-15,26,7
3218,-341,-53,946,-15,-49,-8
3219,136,-82,1088,-3,-87,2
3220,449,-50,1053,7,-49,6
3221,398,9,1016,6,20,3
3222,12,45,1002,-2,69,16
3223,-389,51,916,-12,58,18
3224,-491,-16,868,-17,-4,-4
3225,-173,-75,1014,-12,-73,-4
3226,330,-76,1097,3,-80,7
3227,474,-27,1025,7,-21,5
3228,259,22,1018,6,48,5
3229,-175,56,975,-4,72,20
3230,-488,34,874,-16,38,12
3231,-394,-37,917,-15,-35,-7
3232,47,-80,1072,-6,-86,-1
3233,431,-56,1072,5,-62,8
3234,427,-8,1012,6,8,2
3235,80,29,998,0,66,12
3236,-319,59,941,-9,65,21
3237,-494,-3,867,-19,12,2
3238,-259,-60,990,-10,-61,-8
3239,240,-73,1097,-4,-88,5
3240,466,-40,1027,4,-35,6
3241,326,15,1015,7,35,3
3242,-81,50,986,-7,74,17
3243,-428,42,910,-11,49,16
3244,-452,-27,888,-17,-20,-4
3245,-71,-74,1040,-7,-79,-3
3246,376,-75,1088,-1,-74,7
3247,454,-18,1015,8,-5,3
3248,182,28,1015,5,58,9
3249,-230,67,964,-9,69,22
3250,-500,16,864,-15,26,5
3251,-344,-53,942,-15,-48,-8
3252,132,-78,1087,-4,-86,2
3253,456,-59,1055,2,-51,8
3254,397,4,1014,9,23,1
3255,15,44,1003,-1,69,15
3256,-391,52,917,-12,59,21
3257,-495,-11,866,-18,-3,-3
3258,-180,-69,1012,-10,-72,-5
3259,330,-76,1100,-1,-82,5
3260,481,-31,1028,7,-22,2
3261,265,24,1014,5,48,6
3262,-167,57,979,-7,73,20
3263,-486,26,870,-16,38,11
3264,-399,-32,916,-13,-33,-7
3265,42,-79,1068,-9,-86,-2
3266,428,-67,1075,2,-63,9
3267,430,-2,1013,10,6,2
3268,86,33,1001,-2,64,11
3269,-312,60,942,-7,64,20
3270,-493,2,866,-19,11,1
3271,-263,-58,985,-10,-60,-7
3272,231,-80,1097,-5,-88,5
3273,463,-48,1027,4,-36,6
3274,332,17,1018,7,33,3
3275,-73,44,986,-5,73,19
3276,-426,46,910,-10,51,18
3277,-455,-20,885,-19,-19,-5
3278,-79,-75,1040,-8,-78,-4
3279,369,-71,1085,-1,-74,8
3280,458,-15,1014,8,-7,3
3281,192,23,1023,2,55,8
3282,-226,64,961,-8,69,20
3283,-499,15,861,-15,28,7
3284,-349,-49,943,-17,-48,-6
3285,121,-85,1080,-6,-85,2
3286,452,-56,1060,5,-52,7
3287,403,10,1017,9,19,1
3288,22,39,1000,-1,69,15
3289,-384,58,920,-10,60,20
3290,-495,-12,866,-18,-1,-1
3291,-192,-75,1011,-11,-71,-7
3292,321,-73,1098,0,-83,6
3293,477,-29,1029,7,-24,5
3294,272,19,1016,6,45,5
3295,-162,57,977,-5,73,20
3296,-481,34,879,-17,40,12
3297,-401,-39,909,-15,-32,-8
3298,29,-80,1069,-6,-85,0
3299,418,-63,1072,2,-63,7
3300,432,-9,1013,9,5,2
3301,94,36,1002,-2,63,11
3302,-301,58,944,-7,65,20
3303,-494,3,867,-18,13,2
3304,-275,-60,979,-9,-58,-8
3305,221,-75,1099,-3,-88,4
3306,456,-45,1032,5,-37,6
3307,340,5,1014,7,33,3
3308,-62,53,991,-7,72,19
3309,-421,45,910,-12,50,17
3310,-462,-27,883,-18,-17,-5
3311,-97,-67,1033,-7,-77,-5
3312,366,-73,1088,-1,-75,8
3313,464,-21,1016,6,-9,4
3314,199,26,1023,5,55,7
3315,-217,62,965,-11,70,21
3316,-503,18,863,-14,29,8
3317,-361,-50,933,-17,-47,-8
3318,113,-79,1083,-4,-86,2
3319,454,-60,1064,4,-54,6
3320,409,3,1011,8,17,1
3321,30,48,1005,0,69,15
3322,-376,47,920,-13,60,20
3323,-499,-6,868,-14,1,-1
3324,-197,-69,1008,-13,-70,-6
3325,315,-80,1097,0,-83,5
3326,476,-33,1030,7,-26,4
3327,279,20,1013,4,45,5
3328,-153,54,983,-5,73,21
3329,-474,31,879,-15,41,12
3330,-410,-28,911,-12,-29,-7
3331,17,-79,1063,-10,-86,-2
3332,416,-67,1072,3,-65,9
3333,434,-6,1013,8,3,2
3334,109,29,1000,0,62,10
3335,-289,58,948,-7,67,20
3336,-494,4,868,-15,15,3
3337,-283,-57,972,-11,-57,-7
3338,205,-81,1099,-3,-87,4
3339,456,-41,1035,7,-39,6
3340,353,12,1016,8,30,3
3341,-45,48,995,-3,71,17
3342,-418,49,910,-13,52,15
3343,-467,-20,881,-18,-15,-5
3344,-112,-75,1030,-11,-77,-4
3345,360,-74,1089,1,-76,7
3346,468,-19,1020,6,-12,4
3347,214,25,1022,8,55,7
3348,-211,65,968,-9,69,21
3349,-502,23,863,-14,32,8
3350,-366,-43,935,-17,-45,-8
3351,101,-84,1075,-7,-87,1
3352,454,-58,1070,6,-56,8
3353,413,1,1013,6,17,1
3354,40,35,1002,2,69,14
3355,-372,59,928,-11,61,20
3356,-493,-9,865,-16,4,-1
3357,-212,-68,1005,-11,-69,-6
3358,297,-70,1099,1,-85,5
3359,478,-35,1028,6,-28,4
3360,285,17,1012,6,42,3
3361,-137,54,978,-6,72,19
3362,-461,32,891,-14,42,14
3363,-420,-33,904,-18,-27,-8
3364,0,-78,1061,-8,-84,-2
3365,405,-67,1076,1,-67,9
3366,439,-17,1010,11,2,1
3367,121,30,1007,0,61,10
3368,-274,64,951,-5,68,21
3369,-494,8,862,-18,16,5
3370,-300,-49,966,-11,-54,-8
3371,185,-81,1094,-5,-87,3
3372,459,-53,1036,3,-42,7
3373,358,11,1017,9,29,2
3374,-29,46,996,-4,70,16
3375,-408,48,910,-11,55,18
3376,-479,-19,881,-14,-13,-6
3377,-131,-73,1020,-7,-75,-4
3378,354,-71,1096,5,-77,9
3379,472,-27,1019,1,-15,2
3380,230,24,1020,11,53,6
3381,-204,65,975,-11,70,22
3382,-501,19,860,-15,34,9
3383,-376,-39,928,-14,-43,-8
3384,85,-83,1074,-9,-86,0
3385,453,-62,1071,7,-57,7
3386,414,4,1013,5,13,1
3387,51,40,999,3,69,14
3388,-356,56,935,-14,62,21
3389,-496,-7,863,-13,6,-1
3390,-226,-61,1005,-13,-67,-7
3391,278,-74,1099,-2,-86,5
3392,471,-39,1024,6,-29,5
3393,301,19,1014,6,40,3
3394,-118,50,981,-6,74,19
3395,-453,41,899,-13,45,14
3396,-428,-28,896,-16,-24,-6
3397,-24,-79,1056,-10,-83,-2
3398,392,-70,1079,4,-69,8
3399,445,-12,1013,6,-2,2
3400,145,26,1010,3,59,11
3401,-257,61,955,-8,69,21
3402,-496,16,867,-14,20,4
3403,-322,-53,955,-14,-52,-8
3404,165,-84,1092,-4,-87,3
3405,454,-47,1047,5,-46,8
3406,382,7,1014,9,26,2
3407,-6,43,1002,-3,69,16
3408,-405,50,909,-10,57,17
3409,-483,-20,872,-16,-7,-3
3410,-154,-74,1017,-12,-74,-4
3411,343,-73,1093,3,-79,6
3412,475,-28,1025,5,-18,3
3413,246,23,1020,7,52,7
3414,-187,60,975,-5,70,19
3415,-497,29,867,-15,37,11
3416,-387,-39,924,-16,-38,-7
3417,64,-80,1071,-8,-88,-1
3418,440,-60,1071,3,-59,8
3419,425,-6,1013,5,9,2
3420,67,35,999,0,68,13
3421,-335,59,939,-8,63,20
3422,-493,-6,864,-19,9,1
3423,-244,-61,994,-8,-62,-7
3424,256,-70,1101,-2,-86,5
3425,466,-42,1025,6,-33,5
3426,315,13,1016,5,36,3
3427,-98,53,984,-5,73,18
3428,-434,37,902,-13,47,14
3429,-449,-26,897,-17,-20,-5
3430,-57,-75,1045,-8,-80,-3
3431,383,-72,1083,1,-72,8
3432,454,-15,1012,10,-4,2
3433,172,27,1016,4,58,9
3434,-238,64,959,-6,69,22
3435,-500,13,866,-15,25,6
3436,-340,-49,944,-16,-50,-7
3437,140,-80,1085,-4,-86,2
3438,460,-59,1056,3,-50,8
3439,394,6,1013,8,24,2
3440,13,45,1004,-1,69,15
3441,-393,53,919,-11,59,19
3442,-496,-13,865,-17,-4,-2
3443,-175,-72,1012,-13,-73,-5
3444,332,-77,1099,1,-81,6
3445,481,-30,1024,7,-21,4
3446,265,24,1013,6,48,5
3447,-170,55,977,-5,71,20
3448,-487,31,876,-15,38,11
3449,-401,-35,913,-12,-34,-9
3450,38,-79,1073,-10,-87,-2
3451,427,-64,1072,4,-62,9
3452,430,-3,1011,7,7,3
3453,89,33,1002,-1,65,11
3454,-305,54,943,-7,65,21
3455,-496,4,863,-18,12,1
3456,-267,-59,981,-11,-60,-8
3457,228,-82,1101,-4,-88,5
3458,458,-42,1031,6,-36,6
3459,339,13,1015,9,32,1
3460,-63,48,988,-4,72,18
3461,-425,51,908,-11,52,15
3462,-460,-24,885,-19,-18,-6
3463,-94,-76,1036,-11,-77,-4
3464,369,-77,1089,0,-75,9
3465,464,-23,1018,7,-10,3
3466,203,25,1022,6,56,7
3467,-219,63,964,-9,69,21
3468,-507,25,863,-14,30,7
3469,-363,-46,933,-16,-46,-8
3470,112,-82,1081,-5,-88,2
3471,456,-54,1063,5,-53,7
3472,414,1,1013,4,18,2
3473,33,41,1007,2,69,14
3474,-377,58,925,-13,60,19
3475,-498,-12,862,-17,1,-1
3476,-206,-70,1009,-12,-72,-8
3477,306,-74,1098,-1,-84,7
3478,477,-31,1028,8,-26,5
3479,285,17,1013,3,42,4
3480,-144,56,980,-3,73,20
3481,-468,35,885,-17,42,13
3482,-414,-34,905,-15,-29,-7
3483,-2,-77,1061,-9,-83,-1
3484,408,-67,1078,2,-66,9
3485,439,-13,1013,8,1,2
3486,121,29,1002,3,62,10
3487,-275,60,953,-7,67,21
3488,-496,7,866,-16,17,4
3489,-299,-55,966,-12,-55,-8
3490,186,-76,1098,-3,-88,4
3491,456,-51,1033,3,-42,8
3492,368,10,1019,8,30,2
3493,-29,47,994,-4,69,17
3494,-408,45,910,-12,54,17
3495,-483,-20,880,-16,-11,-4
3496,-133,-70,1021,-10,-77,-5
3497,352,-75,1093,2,-78,7
3498,474,-27,1022,5,-15,3
3499,231,31,1022,6,52,7
3500,-198,62,970,-8,70,21
3501,-498,22,862,-17,35,8
3502,-380,-39,929,-14,-42,-8
3503,82,-83,1073,-8,-87,0
3504,449,-62,1072,6,-58,8
3505,418,0,1011,7,12,1
3506,59,39,1000,1,68,13
3507,-353,57,935,-10,62,21
3508,-497,-6,863,-16,6,-1
3509,-228,-63,1001,-10,-65,-7
3510,272,-74,1098,-2,-87,6
3511,469,-38,1028,9,-31,4
3512,307,17,1011,3,38,4
3513,-111,53,984,-4,73,19
3514,-445,36,900,-13,46,14
3515,-438,-27,896,-16,-22,-7
3516,-37,-75,1053,-10,-83,-3
3517,387,-70,1082,1,-71,7
3518,448,-12,1010,8,-3,2
3519,159,27,1017,3,57,10
3520,-249,57,953,-8,70,21
3521,-498,19,866,-15,22,6
3522,-328,-53,947,-16,-52,-8
3523,156,-85,1088,-5,-87,2
3524,451,-49,1051,5,-48,7
3525,392,1,1011,7,24,1
3526,0,47,1006,0,71,16
3527,-398,54,913,-12,57,19
3528,-486,-13,869,-16,-6,-3
3529,-170,-71,1016,-11,-73,-6
3530,337,-79,1094,1,-81,7
3531,477,-27,1027,6,-21,4
3532,258,17,1013,5,49,5
3533,-180,56,979,-4,72,20
3534,-490,31,873,-17,39,11
3535,-392,-41,915,-13,-35,-7
3536,44,-77,1068,-8,-87,0
3537,433,-59,1073,5,-61,8
3538,425,0,1016,6,7,2
3539,77,36,999,-1,66,13
3540,-316,61,942,-9,65,20
3541,-494,-3,863,-18,11,2
3542,-259,-62,989,-9,-60,-7
3543,238,-75,1097,-2,-86,4
3544,461,-43,1027,4,-36,5
3545,330,10,1016,8,35,3
3546,-74,50,987,-4,73,18
3547,-430,47,909,-12,49,15
3548,-457,-25,888,-16,-20,-5
3549,-80,-73,1032,-8,-80,-3
3550,372,-70,1091,2,-75,9
3551,462,-23,1013,5,-7,2
3552,194,28,1023,6,56,8
3553,-226,64,964,-9,69,22
3554,-501,15,862,-14,29,7
3555,-360,-45,942,-14,-48,-9
3556,120,-85,1078,-6,-89,2
3557,459,-59,1062,6,-54,7
3558,408,7,1015,8,19,1
3559,30,41,1003,-1,69,14
3560,-380,56,924,-12,60,20
3561,-499,-12,865,-17,0,-2
3562,-197,-69,1007,-11,-71,-5
3563,313,-75,1100,-1,-83,7
3564,478,-36,1028,8,-25,5
3565,282,23,1016,6,44,5
3566,-150,55,979,-5,72,21
3567,-474,30,884,-15,40,13
3568,-414,-30,906,-15,-29,-8
3569,15,-74,1066,-7,-87,-1
3570,412,-66,1073,2,-65,9
3571,435,-3,1014,8,3,2
3572,112,29,1000,-2,63,12
3573,-284,57,949,-6,66,22
3574,-496,5,868,-20,16,3
3575,-287,-57,966,-9,-56,-7
3576,196,-80,1101,-2,-87,4
3577,457,-49,1033,5,-40,5
3578,357,17,1017,10,30,3
3579,-41,44,993,-6,71,16
3580,-414,51,911,-9,54,17
3581,-472,-13,879,-18,-15,-4
3582,-121,-75,1025,-10,-76,-6
3583,359,-74,1093,1,-77,7
3584,471,-24,1020,8,-14,3
3585,225,22,1018,4,53,7
3586,-205,63,969,-8,71,21
3587,-503,22,863,-15,33,9
3588,-371,-44,928,-16,-43,-8
3589,90,-83,1077,-5,-87,0
3590,453,-58,1069,4,-56,7
3591,417,2,1012,7,14,2
3592,49,38,1003,0,69,13
3593,-359,58,933,-9,62,20
3594,-496,-3,860,-19,6,0
3595,-220,-69,1003,-11,-67,-6
3596,285,-73,1098,-1,-85,5
3597,470,-36,1027,6,-28,5
3598,293,8,1010,4,40,4
3599,-123,55,984,-2,74,18
3600,-454,38,894,-13,45,15
3601,-427,-31,894,-16,-27,-6
3602,-24,-71,1061,-6,-84,-3
3603,395,-67,1077,1,-70,7
3604,444,-13,1012,10,-1,3
3605,142,24,1011,0,60,10
3606,-259,60,950,-6,68,22
3607,-496,11,869,-15,20,4
3608,-317,-58,955,-14,-51,-8
3609,167,-78,1093,-1,-87,4
3610,457,-48,1046,3,-46,8
3611,380,2,1012,8,28,1
3612,-11,49,1004,-2,70,17
3613,-407,49,910,-12,57,18
3614,-486,-21,868,-19,-8,-3
3615,-157,-65,1021,-11,-76,-5
3616,346,-77,1096,1,-79,7
3617,474,-27,1024,5,-17,4
3618,244,27,1020,8,50,6
3619,-184,59,973,-8,70,21
3620,-496,24,867,-16,37,10
3621,-385,-42,922,-14,-38,-8
3622,62,-81,1071,-7,-87,0
3623,438,-66,1073,5,-58,8
3624,425,-1,1015,9,9,3
3625,65,40,998,1,68,12
3626,-333,58,939,-9,64,20
3627,-496,-1,867,-16,9,1
3628,-243,-58,994,-11,-62,-7
3629,255,-79,1096,-1,-86,5
3630,465,-44,1030,5,-32,4
3631,317,13,1014,6,37,2
3632,-94,49,982,-5,72,18
3633,-437,39,907,-11,48,15
3634,-445,-25,891,-17,-21,-6
3635,-62,-72,1046,-8,-80,-3
3636,380,-73,1085,0,-73,7
3637,455,-14,1014,7,-6,2
3638,178,26,1016,3,56,8
3639,-236,61,962,-8,69,20
3640,-500,16,862,-14,26,6
3641,-341,-51,945,-16,-50,-8
3642,136,-83,1085,-3,-85,3
3643,458,-54,1056,5,-50,7
3644,398,9,1013,7,23,3
3645,14,39,1007,-2,69,15
3646,-391,53,917,-12,58,18
3647,-491,-8,866,-16,-4,-2
3648,-182,-73,1010,-13,-72,-6
3649,329,-79,1095,3,-82,7
3650,477,-28,1030,8,-23,5
3651,266,19,1013,5,47,6
3652,-167,57,980,-4,71,20
3653,-486,33,877,-16,39,11
3654,-399,-35,912,-14,-34,-7
3655,33,-78,1067,-7,-88,0
3656,423,-61,1072,4,-63,8
3657,434,-6,1015,7,6,2
3658,87,32,999,-1,65,11
3659,-303,60,945,-7,65,22
3660,-494,2,867,-18,13,3
3661,-275,-64,981,-11,-59,-9
3662,224,-81,1095,-2,-88,5
3663,457,-43,1031,6,-38,6
3664,344,9,1014,8,33,2
3665,-58,55,992,-1,72,18
3666,-423,50,906,-11,52,16
3667,-463,-24,885,-18,-17,-5
3668,-102,-69,1031,-10,-77,-4
3669,367,-75,1091,0,-77,7
3670,466,-27,1019,6,-9,3
3671,209,25,1022,6,55,8
3672,-216,59,961,-8,69,21
3673,-505,19,866,-14,31,9
3674,-365,-46,931,-15,-46,-8
3675,104,-75,1077,-5,-89,1
3676,457,-61,1067,4,-54,8
3677,413,6,1013,9,17,1
3678,35,44,1004,3,70,14
3679,-371,51,925,-14,60,19
3680,-501,-6,862,-15,3,-1
3681,-206,-71,1005,-12,-69,-6
3682,304,-78,1099,-1,-84,7
3683,473,-36,1027,8,-26,6
3684,286,21,1012,6,44,4
3685,-143,58,982,-4,74,20
3686,-462,32,887,-16,42,14
3687,-420,-26,905,-13,-27,-7
3688,0,-74,1062,-10,-85,-2
3689,407,-75,1073,1,-68,9
3690,436,-8,1012,8,1,2
3691,122,27,1006,0,61,9
3692,-275,55,950,-8,68,22
3693,-494,9,867,-15,18,4
3694,-299,-54,961,-12,-54,-7
3695,185,-77,1099,-3,-88,4
3696,456,-48,1036,3,-42,6
3697,366,11,1016,8,28,3
3698,-27,46,997,-5,71,17
3699,-411,48,908,-12,55,18
3700,-479,-15,878,-16,-12,-4
3701,-129,-79,1022,-14,-75,-4
3702,354,-77,1093,2,-78,7
3703,473,-20,1023,7,-15,3
3704,231,23,1023,5,53,6
3705,-200,57,971,-8,71,21
3706,-499,27,866,-15,33,10
3707,-377,-43,924,-16,-40,-7
3708,83,-80,1077,-6,-88,1
3709,448,-58,1072,4,-58,7
3710,422,0,1011,6,12,0
3711,53,35,1001,-1,67,13
3712,-351,51,932,-13,61,20
3713,-497,-3,865,-11,5,-2
3714,-231,-65,1001,-6,-65,-7
3715,274,-77,1097,-8,-86,5
3716,475,-33,1030,15,-28,6
3717,305,15,1014,-2,37,4
3718,-112,52,981,1,74,19
3719,-449,43,900,-17,46,14
3720,-434,-33,891,-17,-24,-6
3721,-38,-75,1054,-8,-81,-1
3722,389,-72,1078,-1,-71,8
3723,450,-17,1012,10,-2,2
3724,152,26,1013,0,59,8
3725,-251,63,959,-5,69,22
3726,-498,13,864,-18,22,4
3727,-327,-51,952,-11,-51,-8
3728,153,-77,1088,-6,-88,2
3729,454,-51,1045,5,-47,7
3730,384,1,1013,7,24,2
3731,0,46,1006,0,68,17
3732,-401,50,913,-13,58,18
3733,-490,-19,869,-15,-6,-3
3734,-165,-71,1018,-12,-73,-5
3735,339,-78,1094,0,-80,7
3736,477,-29,1027,7,-20,5
3737,251,26,1017,4,50,6
3738,-178,64,977,-2,72,20
3739,-495,29,869,-20,38,10
3740,-390,-39,915,-12,-37,-9
3741,56,-82,1075,-11,-86,-1
3742,435,-67,1072,5,-61,8
3743,425,-3,1012,7,9,1
3744,74,38,998,1,66,11
3745,-321,55,939,-9,62,21
3746,-497,0,867,-17,9,2
3747,-251,-57,992,-10,-61,-7
3748,246,-76,1096,-4,-89,5
3749,461,-40,1031,6,-33,7
3750,327,12,1016,5,34,4
3751,-84,48,986,-3,73,19
3752,-430,40,908,-12,50,16
3753,-451,-23,886,-17,-20,-5
3754,-73,-76,1040,-8,-80,-3
3755,375,-74,1088,3,-74,8
3756,457,-13,1013,7,-6,3
3757,186,28,1018,4,56,9
3758,-227,56,960,-11,69,21
3759,-505,21,866,-14,27,7
3760,-347,-51,937,-18,-49,-8
3761,128,-83,1088,-4,-86,2
3762,453,-54,1057,4,-51,7
3763,402,4,1013,6,20,2
3764,18,43,1005,1,71,15
3765,-385,53,917,-12,59,18
3766,-495,-6,869,-14,-1,-2
3767,-186,-73,1009,-14,-71,-5
3768,322,-73,1097,2,-82,7
3769,478,-27,1029,3,-23,5
3770,272,15,1012,6,46,5
3771,-163,57,982,-2,72,20
3772,-477,28,877,-17,40,12
3773,-404,-32,911,-13,-31,-7
3774,24,-79,1069,-6,-86,-1
3775,421,-65,1071,3,-64,8
3776,429,-1,1015,9,5,2
3777,99,28,999,-3,64,11
3778,-296,62,948,-5,68,21
3779,-494,3,867,-19,14,3
3780,-277,-60,976,-12,-57,-7
3781,211,-79,1097,-4,-88,3
3782,458,-47,1029,4,-38,6
3783,349,11,1013,10,33,4
3784,-52,51,995,-5,72,17
3785,-418,44,908,-10,52,17
3786,-470,-18,886,-18,-15,-3
3787,-109,-73,1026,-11,-79,-5
3788,366,-70,1093,2,-78,8
3789,468,-26,1015,6,-10,3
3790,217,21,1022,5,54,6
3791,-213,66,968,-7,70,20
3792,-501,16,860,-16,32,9
3793,-371,-44,931,-14,-44,-8
3794,102,-79,1079,-6,-87,0
3795,450,-60,1066,4,-53,8
3796,415,3,1015,7,16,3
3797,39,44,1003,1,69,14
3798,-370,51,924,-11,61,18
3799,-497,-8,867,-17,3,-1
3800,-217,-68,1004,-13,-68,-7
3801,296,-72,1099,-2,-85,6
3802,472,-36,1027,9,-27,5
3803,289,16,1014,5,42,4
3804,-134,58,981,-3,73,20
3805,-460,29,888,-16,42,13
3806,-420,-28,900,-13,-27,-7
3807,-7,-79,1057,-10,-84,-1
3808,399,-70,1078,2,-68,9
3809,438,-7,1009,9,2,3
3810,133,29,1006,1,62,10
3811,-268,62,954,-8,68,21
3812,-495,8,866,-18,18,4
3813,-307,-50,962,-11,-53,-7
3814,180,-82,1095,-5,-89,4
3815,456,-49,1039,6,-44,7
3816,373,15,1016,9,28,3
3817,-20,44,997,-3,71,17
3818,-408,48,910,-12,55,18
3819,-481,-14,877,-16,-11,-4
3820,-145,-75,1021,-11,-75,-6
3821,352,-75,1093,2,-79,8
3822,473,-25,1024,6,-16,3
3823,239,25,1020,6,52,7
3824,-195,60,974,-6,70,21
3825,-503,25,866,-17,35,9
3826,-382,-38,922,-15,-41,-7
3827,74,-83,1077,-8,-88,0
3828,447,-61,1070,6,-58,8
3829,419,1,1012,4,11,2
3830,59,33,1000,0,69,12
3831,-347,60,936,-9,63,20
3832,-496,-2,865,-18,9,1
3833,-235,-64,1000,-11,-65,-7
3834,264,-77,1098,-2,-86,5
3835,469,-40,1024,7,-31,4
3836,310,17,1016,6,38,3
3837,-105,51,981,-5,73,19
3838,-446,44,903,-12,46,15
3839,-439,-29,894,-17,-23,-7
3840,-41,-79,1048,-8,-81,-2
3841,385,-67,1084,3,-72,8
3842,454,-17,1008,8,-3,3
3843,163,24,1018,4,60,10
3844,-245,65,959,-8,69,21
3845,-500,12,861,-15,24,5
3846,-336,-49,949,-17,-51,-6
3847,149,-79,1089,-5,-89,3
3848,459,-57,1049,4,-49,8
3849,392,8,1017,9,23,3
3850,8,43,1002,0,69,14
3851,-399,54,916,-11,60,18
3852,-493,-17,872,-17,-5,-2
3853,-174,-71,1011,-11,-73,-6
3854,334,-72,1095,3,-80,7
3855,481,-30,1030,6,-20,4
3856,259,24,1016,7,49,6
3857,-178,63,981,-6,73,20
3858,-489,24,871,-16,39,11
3859,-398,-37,916,-14,-34,-7
3860,43,-81,1069,-7,-86,-2
3861,431,-65,1073,6,-63,8
3862,426,-3,1012,8,6,2
3863,84,33,997,0,66,12
3864,-317,61,944,-8,64,21
3865,-497,0,867,-17,11,3
3866,-261,-56,986,-11,-61,-7
3867,235,-76,1098,-2,-87,5
3868,462,-46,1029,4,-36,5
3869,330,14,1016,9,34,2
3870,-74,43,986,-6,72,18
3871,-426,41,911,-10,51,17
3872,-456,-23,883,-18,-19,-5
3873,-80,-74,1038,-6,-79,-3
3874,374,-73,1092,1,-75,7
3875,457,-16,1011,7,-7,1
3876,195,28,1023,6,56,8
3877,-225,61,961,-9,70,23
3878,-502,19,864,-14,29,7
3879,-355,-50,939,-16,-48,-8
3880,120,-85,1079,-5,-87,2
3881,456,-57,1060,6,-53,7
3882,405,7,1014,6,19,2
3883,24,44,1011,-1,68,14
3884,-385,54,919,-12,59,19
3885,-495,-6,866,-16,0,0
3886,-193,-72,1008,-13,-71,-6
3887,315,-80,1098,-1,-82,7
3888,477,-28,1031,8,-23,5
3889,280,19,1012,3,45,5
3890,-157,57,977,-3,73,22
3891,-475,35,881,-16,41,13
3892,-410,-34,907,-15,-30,-8
3893,14,-79,1069,-8,-85,-1
3894,414,-64,1069,2,-65,9
3895,434,-6,1014,10,3,2
3896,106,25,1004,-3,63,10
3897,-286,59,948,-5,67,21
3898,-494,8,869,-19,15,3
3899,-290,-61,969,-11,-56,-8
3900,205,-74,1099,-3,-89,6
3901,455,-47,1029,5,-39,6
3902,358,8,1018,10,31,2
3903,-44,54,995,-3,72,17
3904,-417,47,906,-9,52,16
3905,-471,-20,886,-18,-14,-3
3906,-120,-70,1024,-10,-76,-4
3907,361,-71,1092,1,-78,8
3908,473,-25,1020,6,-12,3
3909,224,23,1018,5,54,7
3910,-208,63,973,-7,70,21
3911,-504,22,862,-16,34,7
3912,-373,-44,931,-15,-44,-7
3913,92,-81,1075,-6,-87,0
3914,454,-56,1070,7,-56,7
3915,415,0,1012,6,14,1
3916,47,38,1003,3,68,14
3917,-364,60,931,-14,60,21
3918,-500,-10,861,-16,6,-1
3919,-219,-65,1007,-11,-68,-6
3920,293,-73,1097,-1,-85,6
3921,471,-40,1028,7,-28,5
3922,297,15,1011,5,40,3
3923,-130,56,981,-4,72,20
3924,-456,30,890,-16,43,13
3925,-424,-26,901,-13,-27,-6
3926,-15,-72,1060,-11,-84,-2
3927,402,-76,1076,3,-69,9
3928,441,-6,1011,8,0,2
3929,135,31,1009,1,60,10
3930,-263,56,949,-9,67,21
3931,-500,11,870,-16,19,5
3932,-313,-53,960,-14,-53,-8
3933,177,-79,1090,-3,-87,4
3934,455,-49,1040,4,-44,7
3935,375,9,1014,10,29,1
3936,-17,49,1003,-3,70,17
3937,-410,49,907,-12,55,18
3938,-483,-16,876,-16,-11,-4
3939,-145,-71,1020,-11,-75,-5
3940,352,-79,1095,2,-80,5
3941,473,-25,1021,6,-16,3
3942,244,28,1020,6,52,8
3943,-196,59,974,-7,71,21
3944,-504,25,866,-14,36,9
3945,-384,-35,923,-15,-40,-7
3946,70,-83,1073,-7,-88,1
3947,447,-58,1071,4,-59,8
3948,419,0,1013,8,11,1
3949,59,31,999,-1,67,12
3950,-341,57,935,-9,62,20
3951,-499,0,867,-17,9,0
3952,-236,-68,996,-12,-65,-7
3953,265,-72,1101,0,-86,5
3954,463,-38,1027,6,-32,4
3955,314,15,1011,7,37,3
3956,-105,53,982,-6,74,19
3957,-444,36,900,-12,47,15
3958,-438,-25,897,-18,-23,-6
3959,-44,-78,1046,-7,-81,-3
3960,387,-70,1081,1,-72,8
3961,448,-14,1014,8,-3,2
3962,160,25,1013,2,59,8
3963,-247,64,957,-5,69,21
3964,-494,15,865,-16,23,6
3965,-330,-49,950,-15,-51,-8
3966,148,-77,1090,-3,-89,2
3967,458,-53,1048,1,-49,7
3968,388,5,1016,8,24,2
3969,5,44,1002,-3,68,16
3970,-399,52,912,-9,58,19
3971,-491,-18,873,-18,-6,-3
3972,-169,-72,1011,-9,-74,-5
3973,337,-71,1097,0,-80,6
3974,480,-30,1027,7,-19,3
3975,255,23,1016,4,49,6
3976,-179,64,980,-3,71,20
3977,-491,25,872,-21,38,10
3978,-395,-39,918,-14,-34,-9
3979,49,-83,1068,-8,-87,0
3980,433,-64,1072,5,-61,8
3981,428,-3,1014,9,7,0
3982,76,34,996,0,66,11
3983,-317,58,944,-7,62,21
3984,-498,1,870,-20,11,3
3985,-259,-58,986,-10,-61,-8
3986,244,-74,1101,-3,-88,5
3987,463,-49,1029,4,-33,6
3988,330,11,1011,8,35,2
3989,-82,50,986,-4,72,18
3990,-430,38,906,-11,49,15
3991,-455,-19,889,-16,-20,-5
3992,-73,-74,1038,-9,-80,-3
3993,374,-74,1087,1,-74,6
3994,458,-18,1012,7,-7,1
3995,190,26,1019,4,55,8
3996,-232,64,963,-8,70,22
3997,-504,15,865,-15,27,6
3998,-350,-47,938,-16,-49,-7
3999,128,-82,1084,-4,-87,2
4000,457,-58,1055,4,-52,6
4001,404,8,1013,8,20,1
4002,20,42,1008,-2,69,16
4003,-388,52,915,-10,59,18
4004,-499,-6,869,-17,-2,-3
4005,-187,-73,1012,-11,-72,-6
4006,323,-76,1094,-1,-82,7
4007,477,-31,1026,8,-23,4
4008,277,18,1013,5,45,5
4009,-165,58,980,-3,72,21
4010,-482,31,876,-17,40,12
4011,-403,-32,912,-15,-32,-7
4012,26,-81,1067,-9,-86,0
4013,421,-68,1069,4,-64,9
4014,431,-4,1014,10,5,2
4015,98,30,1000,-1,63,11
4016,-299,64,947,-4,66,22
4017,-495,7,867,-20,14,3
4018,-276,-57,979,-12,-59,-7
4019,212,-77,1095,-4,-87,5
4020,460,-43,1031,4,-37,5
4021,345,9,1015,7,32,2
4022,-53,49,990,-4,71,17
4023,-421,44,909,-11,52,15
4024,-462,-27,881,-18,-17,-4
4025,-104,-70,1032,-8,-77,-3
4026,362,-72,1091,0,-77,8
4027,467,-20,1017,8,-10,3
4028,210,26,1021,4,55,7
4029,-216,61,965,-9,69,21
4030,-503,19,864,-15,29,8
4031,-365,-47,932,-15,-45,-7
4032,103,-78,1079,-4,-87,1
4033,456,-59,1066,3,-53,7
4034,409,1,1013,6,16,1
4035,34,45,1003,1,69,13
4036,-373,58,927,-12,60,18
4037,-497,-12,863,-17,2,-1
4038,-207,-68,1006,-11,-70,-5
4039,304,-74,1099,-2,-83,6
4040,476,-36,1030,6,-26,6
4041,280,22,1011,3,43,4
4042,-143,56,979,-2,73,19
4043,-466,31,889,-17,41,13
4044,-420,-29,904,-13,-28,-8
4045,5,-80,1061,-8,-86,-1
4046,409,-69,1073,4,-66,10
4047,437,-8,1014,8,2,1
4048,118,32,1005,0,62,10
4049,-277,58,945,-8,66,22
4050,-496,11,872,-16,16,4
4051,-299,-55,963,-14,-55,-8
4052,191,-80,1098,-6,-91,3
4053,456,-52,1036,3,-44,6
4054,367,8,1014,11,29,3
4055,-30,47,999,-7,70,17
4056,-415,44,906,-3,52,16
4057,-477,-16,882,-20,-14,-4
4058,-133,-70,1023,-5,-76,-3
4059,360,-77,1091,-5,-76,7
4060,476,-20,1024,9,-12,2
4061,231,28,1020,2,51,6
4062,-201,57,971,-6,70,21
4063,-509,25,864,-18,34,10
4064,-380,-42,925,-14,-41,-9
4065,84,-88,1074,-8,-87,1
4066,451,-55,1070,8,-58,6
4067,424,3,1012,6,12,1
4068,53,38,999,0,69,11
4069,-355,57,935,-10,62,19
4070,-496,0,865,-17,6,1
4071,-229,-66,999,-12,-65,-6
4072,280,-74,1096,-3,-87,6
4073,472,-40,1029,6,-30,6
4074,305,7,1011,4,40,4
4075,-118,52,982,-5,74,20
4076,-450,39,900,-14,44,14
4077,-431,-22,894,-15,-23,-6
4078,-32,-76,1053,-9,-83,-3
4079,394,-69,1078,1,-71,8
4080,447,-9,1016,7,-1,4
4081,150,19,1008,-2,59,10
4082,-252,57,954,-6,69,21
4083,-498,12,863,-16,22,5
4084,-324,-61,953,-13,-52,-9
4085,160,-77,1092,-2,-88,3
4086,455,-50,1047,4,-48,7
4087,384,3,1014,7,26,3
4088,-4,51,1003,-1,70,16
4089,-404,54,910,-13,57,19
4090,-487,-15,874,-16,-8,-4
4091,-161,-72,1016,-12,-74,-6
4092,344,-77,1095,1,-80,8
4093,479,-30,1026,5,-19,4
4094,252,20,1016,5,50,6
4095,-186,61,974,-5,71,21
4096,-497,24,869,-16,38,10
4097,-389,-39,919,-13,-36,-8
4098,59,-78,1070,-7,-87,0
4099,438,-62,1074,5,-60,8
4100,427,-4,1014,6,9,1
4101,70,34,999,0,66,12
4102,-330,58,938,-11,64,21
4103,-494,-4,864,-19,10,1
4104,-251,-59,990,-12,-63,-7
4105,254,-79,1099,-3,-88,5
4106,465,-47,1031,7,-32,6
4107,321,15,1013,9,36,4
4108,-87,52,983,-6,73,18
4109,-435,38,907,-12,48,15
4110,-451,-23,888,-17,-20,-6
4111,-63,-73,1041,-8,-80,-3
4112,381,-76,1084,0,-74,8
4113,458,-15,1013,7,-6,3
4114,181,29,1019,6,57,8
4115,-239,60,962,-8,70,21
4116,-503,15,859,-14,26,7
4117,-347,-45,942,-16,-50,-8
4118,134,-84,1086,-5,-88,2
4119,460,-60,1053,2,-51,8
4120,401,9,1017,8,22,2
4121,18,44,1009,-2,69,15
4122,-390,54,916,-13,60,19
4123,-499,-9,865,-18,-2,-2
4124,-184,-71,1012,-12,-72,-6
4125,325,-79,1101,0,-82,6
4126,480,-29,1025,8,-24,3
4127,272,20,1015,4,47,4
4128,-164,53,980,-4,73,21
4129,-484,36,877,-15,40,12
4130,-404,-36,908,-17,-32,-7
4131,28,-82,1068,-8,-86,1
4132,420,-62,1072,4,-63,9
4133,431,-4,1013,8,6,3
4134,95,27,1000,-2,64,12
4135,-298,57,945,-4,65,21
4136,-494,4,868,-19,14,3
4137,-276,-63,974,-9,-57,-8
4138,217,-76,1103,-2,-88,4
4139,456,-43,1026,7,-37,7
4140,341,13,1015,8,32,2
4141,-58,49,991,-4,71,17
4142,-422,50,908,-10,52,16
4143,-464,-20,882,-19,-17,-5
4144,-100,-76,1030,-10,-77,-5
4145,364,-72,1091,0,-75,8
4146,464,-22,1016,6,-9,3
4147,208,21,1021,4,56,8
4148,-216,66,968,-7,70,22
4149,-502,21,860,-15,32,8
4150,-364,-47,934,-14,-46,-8
4151,108,-80,1078,-5,-88,1
4152,455,-56,1067,5,-54,7
4153,413,4,1012,5,17,1
4154,33,44,1002,2,69,14
4155,-375,55,924,-13,61,19
4156,-499,-7,864,-17,3,-1
4157,-202,-72,1008,-11,-70,-6
4158,307,-74,1099,0,-83,7
4159,477,-37,1028,8,-28,5
4160,283,18,1013,6,43,3
4161,-145,59,981,-3,75,18
4162,-467,31,887,-17,42,13
4163,-417,-29,904,-14,-28,-7
4164,2,-75,1066,-9,-85,-2
4165,408,-71,1072,1,-67,7
4166,440,-10,1013,7,1,2
4167,118,27,1005,1,63,10
4168,-277,59,950,-6,67,20
4169,-499,10,866,-18,18,3
4170,-302,-52,963,-11,-55,-8
4171,190,-80,1096,-4,-89,4
4172,453,-53,1034,4,-42,5
4173,369,10,1015,8,29,2
4174,-32,50,996,-4,70,17
4175,-412,43,908,-12,55,17
4176,-480,-18,882,-15,-12,-4
4177,-132,-69,1020,-12,-76,-4
4178,359,-73,1096,1,-78,7
4179,471,-23,1024,6,-14,4
4180,234,28,1022,7,51,6
4181,-203,55,969,-8,71,21
4182,-502,21,862,-14,33,9
4183,-376,-40,924,-14,-41,-7
4184,85,-86,1079,-8,-87,2
4185,450,-58,1067,8,-57,8
4186,421,1,1015,7,13,1
4187,49,37,999,1,69,13
4188,-357,59,933,-10,61,20
4189,-496,-3,863,-16,7,0
4190,-223,-66,1003,-11,-66,-7
4191,277,-75,1100,-3,-86,5
4192,473,-34,1025,8,-29,4
4193,304,16,1014,4,40,3
4194,-123,53,981,-3,74,18
4195,-450,36,895,-13,45,14
4196,-436,-28,899,-15,-25,-6
4197,-25,-80,1052,-7,-83,-3
4198,395,-67,1079,3,-70,9
4199,442,-12,1012,9,-2,2
4200,149,26,1011,0,58,10
4201,-258,65,954,-7,69,23
4202,-495,14,865,-19,21,5
4203,-320,-55,955,-14,-52,-7
4204,163,-79,1090,-4,-88,3
4205,456,-51,1044,5,-48,7
4206,380,4,1017,8,27,2
4207,-11,43,1000,-2,70,16
4208,-404,52,913,-11,56,18
4209,-487,-17,875,-17,-8,-3
4210,-157,-69,1017,-11,-75,-5
4211,344,-71,1093,0,-80,8
4212,479,-30,1027,7,-18,4
4213,245,22,1018,5,49,6
4214,-186,62,978,-4,71,21
4215,-498,29,868,-17,38,10
4216,-387,-43,920,-14,-39,-8
4217,64,-81,1072,-6,-88,0
4218,441,-62,1073,6,-58,7
4219,423,-4,1010,6,9,0
4220,66,37,999,0,69,12
4221,-338,58,938,-10,64,21
4222,-496,-7,864,-19,8,1
4223,-242,-63,996,-10,-62,-7
4224,262,-73,1096,-3,-87,7
4225,464,-42,1028,6,-32,6
4226,316,13,1013,4,38,3
4227,-99,52,983,-3,73,19
4228,-443,36,904,-14,46,15
4229,-443,-25,893,-16,-21,-6
4230,-53,-71,1047,-9,-81,-3
4231,385,-77,1082,0,-72,9
4232,455,-14,1013,9,-4,3
4233,167,27,1015,3,57,7
4234,-238,60,955,-7,69,22
4235,-503,19,865,-15,26,7
4236,-337,-52,946,-16,-50,-8
4237,146,-83,1087,-5,-86,2
4238,458,-53,1055,3,-49,7
4239,397,6,1013,10,23,2
4240,6,48,1003,-2,71,16
4241,-399,49,914,-12,59,18
4242,-496,-9,869,-16,-5,-2
4243,-173,-66,1014,-11,-72,-5
4244,335,-82,1093,-2,-80,7
4245,479,-27,1027,8,-21,3
4246,259,21,1019,5,49,5
4247,-175,54,973,-5,70,20
4248,-491,32,874,-15,38,11
4249,-397,-37,914,-14,-34,-9
4250,46,-80,1075,-7,-87,1
4251,431,-58,1074,2,-62,9
4252,431,-6,1006,8,7,2
4253,83,37,1005,-2,65,13
4254,-320,56,937,-9,64,20
4255,-495,1,868,-17,11,2
4256,-260,-64,986,-10,-62,-7
4257,240,-80,1098,-4,-88,4
4258,461,-38,1030,7,-35,6
4259,330,11,1017,6,34,3
4260,-76,52,985,-4,72,18
4261,-430,49,908,-10,50,15
4262,-455,-28,885,-20,-20,-5
4263,-77,-74,1042,-8,-79,-3
4264,374,-74,1084,0,-75,7
4265,460,-20,1016,8,-7,2
4266,190,26,1022,2,56,8
4267,-228,66,962,-7,69,22
4268,-502,19,862,-16,29,6
4269,-347,-51,940,-16,-49,-8
4270,124,-78,1082,-3,-87,1
4271,459,-55,1059,3,-51,7
4272,403,0,1011,6,21,1
4273,22,45,1006,0,68,15
4274,-387,53,917,-13,59,18
4275,-499,-12,866,-17,-2,-2
4276,-188,-70,1010,-11,-72,-6
4277,324,-73,1094,-1,-82,6
4278,479,-32,1028,9,-25,4
4279,272,21,1016,5,46,4
4280,-161,60,977,-2,73,20
4281,-482,31,879,-17,40,12
4282,-406,-34,910,-12,-29,-7
4283,25,-80,1066,-9,-86,-2
4284,424,-68,1069,5,-64,9
4285,436,-7,1015,7,5,1
4286,97,33,997,2,64,9
4287,-297,60,947,-6,65,22
4288,-497,5,869,-16,14,3
4289,-277,-56,978,-10,-59,-8
4290,219,-78,1097,-5,-88,5
4291,457,-47,1035,3,-38,6
4292,344,13,1013,8,31,4
4293,-59,47,986,-5,72,18
4294,-421,40,911,-13,52,16
4295,-462,-20,881,-16,-18,-5
4296,-99,-72,1031,-9,-76,-3
4297,369,-78,1089,2,-76,8
4298,464,-18,1016,8,-10,3
4299,201,31,1021,7,55,7
4300,-217,60,966,-9,69,22
4301,-504,24,863,-15,30,9
4302,-360,-48,933,-17,-45,-8
4303,115,-88,1083,-5,-87,1
4304,452,-55,1064,6,-53,8
4305,408,3,1011,7,19,0
4306,32,43,1008,1,70,14
4307,-379,52,918,-13,60,18
4308,-498,-6,866,-14,2,-2
4309,-203,-67,1009,-13,-70,-6
4310,309,-79,1096,-1,-83,6
4311,478,-29,1029,7,-25,4
4312,280,16,1011,4,43,5
4313,-149,58,982,-3,73,20
4314,-471,34,883,-16,40,12
4315,-412,-32,907,-14,-30,-7
4316,11,-79,1064,-7,-85,-2
4317,410,-68,1076,4,-66,6
4318,435,-8,1012,10,4,2
4319,113,31,1001,0,63,10
4320,-285,62,949,-6,66,20
4321,-497,8,867,-18,16,3
4322,-289,-57,970,-12,-56,-8
4323,199,-78,1096,-3,-88,4
4324,455,-45,1033,3,-40,6
4325,358,7,1017,7,31,2
4326,-43,46,994,-4,71,17
4327,-415,52,912,-10,54,16
4328,-474,-22,876,-19,-14,-4
4329,-119,-74,1027,-9,-77,-5
4330,362,-73,1093,2,-77,7
4331,472,-23,1018,5,-12,3
4332,225,23,1022,6,54,7
4333,-208,63,967,-7,71,22
4334,-507,19,863,-16,33,9
4335,-376,-48,932,-13,-44,-8
4336,94,-82,1071,-5,-87,1
4337,457,-56,1072,6,-57,9
4338,417,1,1010,7,16,1
4339,46,43,1002,1,70,13
4340,-365,57,931,-12,60,20
4341,-497,-7,863,-17,4,-1
4342,-221,-68,1004,-11,-68,-7
4343,295,-77,1095,-2,-85,6
4344,474,-37,1032,9,-28,6
4345,292,16,1008,5,42,4
4346,-128,58,982,-3,73,20
4347,-459,34,893,-16,43,14
4348,-424,-30,900,-14,-26,-7
4349,-13,-72,1059,-8,-84,-3
4350,403,-69,1076,0,-68,10
4351,443,-10,1011,9,0,2
4352,136,27,1013,-1,60,9
4353,-268,57,949,-8,69,21
4354,-496,10,870,-16,17,5
4355,-309,-53,955,-12,-54,-7
4356,179,-83,1092,-3,-87,4
4357,457,-50,1042,5,-45,6
4358,373,9,1014,8,27,2
4359,-22,47,1001,-2,70,17
4360,-410,45,909,-12,56,19
4361,-488,-19,873,-15,-10,-4
4362,-141,-73,1021,-10,-75,-6
4363,351,-76,1096,3,-79,6
4364,476,-22,1021,7,-16,2
4365,237,27,1023,5,53,6
4366,-193,58,974,-6,71,21
4367,-502,27,865,-16,36,8
4368,-383,-40,921,-15,-41,-9
4369,76,-80,1077,-7,-88,2
4370,444,-60,1069,4,-58,8
4371,422,0,1012,9,11,2
4372,58,35,1002,-1,69,14
4373,-347,51,930,-10,63,20
4374,-497,-3,863,-17,7,0
4375,-233,-64,1003,-11,-65,-8
4376,271,-75,1093,-1,-86,6
4377,471,-31,1031,6,-31,6
4378,307,16,1011,4,38,4
4379,-110,50,981,-6,72,18
4380,-447,43,901,-12,45,14
4381,-433,-30,896,-17,-23,-6
4382,-36,-76,1050,-8,-80,-2
4383,388,-68,1083,1,-69,8
4384,451,-20,1011,7,-2,3
4385,152,26,1015,3,59,9
4386,-249,61,954,-9,68,21
4387,-498,13,863,-14,22,5
4388,-326,-52,956,-10,-53,-7
4389,162,-82,1092,-3,-89,2
4390,457,-47,1046,6,-47,7
4391,388,4,1016,4,24,2
4392,-2,46,999,1,71,17
4393,-406,56,918,-12,58,19
4394,-488,-21,866,-18,-8,-3
4395,-162,-72,1018,-10,-74,-5
4396,342,-73,1096,-1,-81,6
4397,482,-31,1027,8,-20,4
4398,247,26,1017,3,52,5
4399,-184,58,972,-3,72,21
4400,-496,29,869,-20,37,11
4401,-394,-39,919,-10,-36,-8
4402,62,-78,1073,-10,-88,0
4403,437,-62,1074,6,-60,9
4404,430,-3,1012,4,9,2
4405,70,38,1000,2,67,13
4406,-332,56,937,-11,64,19
4407,-498,-6,865,-18,9,0
4408,-252,-58,993,-10,-62,-7
4409,255,-77,1097,-4,-87,5
4410,465,-44,1031,8,-33,5
4411,318,15,1014,6,36,3
4412,-88,53,986,-3,74,19
4413,-438,41,903,-14,48,16
4414,-451,-21,888,-15,-21,-5
4415,-59,-73,1045,-10,-79,-3
4416,377,-77,1083,3,-73,8
4417,455,-18,1013,7,-6,2
4418,181,26,1020,3,57,9
4419,-238,61,957,-7,70,22
4420,-501,15,865,-14,26,6
4421,-345,-46,942,-14,-50,-8
4422,138,-81,1083,-5,-89,2
4423,460,-52,1057,5,-50,7
4424,396,10,1012,8,23,1
4425,15,43,1010,-2,68,16
4426,-393,51,914,-14,59,21
4427,-497,-12,867,-16,-3,-4
4428,-180,-75,1013,-12,-73,-6
4429,326,-79,1095,2,-81,7
4430,481,-27,1027,8,-24,4
4431,269,22,1016,7,47,5
4432,-169,58,979,-2,73,20
4433,-485,36,876,-16,39,11
4434,-403,-34,912,-12,-34,-8
4435,39,-82,1069,-9,-87,0
4436,426,-65,1069,3,-63,9
4437,431,-8,1014,8,5,2
4438,88,25,1000,-1,65,11
4439,-310,56,943,-5,64,20
4440,-494,5,867,-17,14,3
4441,-266,-60,981,-9,-60,-6
4442,226,-75,1102,-4,-88,5
4443,460,-42,1029,4,-35,6
4444,336,12,1014,7,34,4
4445,-70,51,988,-7,72,19
4446,-423,44,908,-11,51,14
4447,-458,-26,890,-19,-19,-6
4448,-86,-79,1031,-9,-79,-4
4449,371,-72,1089,1,-75,7
4450,464,-19,1017,9,-9,3
4451,195,22,1019,4,56,6
4452,-224,67,963,-8,70,21
4453,-505,21,864,-14,29,8
4454,-354,-51,937,-15,-46,-8
4455,119,-81,1083,-4,-87,1
4456,459,-57,1061,4,-54,7
4457,407,0,1012,8,19,2
4458,25,47,1006,2,69,16
4459,-383,55,923,-12,58,20
4460,-498,-13,861,-17,1,-1
4461,-197,-65,1014,-11,-72,-7
4462,314,-75,1094,-1,-84,6
4463,483,-34,1031,6,-25,4
4464,278,18,1012,5,45,4
4465,-152,55,980,-5,73,19
4466,-479,33,882,-16,42,13
4467,-411,-33,908,-15,-30,-7
4468,15,-75,1065,-8,-87,-1
4469,419,-68,1073,2,-64,8
4470,435,-7,1016,7,3,1
4471,105,31,999,1,63,11
4472,-288,57,948,-9,67,21
4473,-495,2,866,-18,14,4
4474,-286,-59,972,-11,-56,-8
4475,207,-83,1097,-3,-86,4
4476,456,-45,1033,6,-40,7
4477,352,13,1017,10,31,2
4478,-48,52,994,-4,71,18
4479,-421,45,907,-11,53,16
4480,-468,-20,881,-17,-15,-4
4481,-112,-72,1026,-11,-77,-3
4482,365,-81,1088,0,-77,7
4483,470,-21,1022,6,-11,3
4484,217,23,1023,7,55,7
4485,-210,61,969,-7,71,21
4486,-507,29,860,-14,33,10
4487,-372,-41,930,-15,-45,-7
4488,101,-85,1076,-6,-87,2
4489,457,-58,1068,5,-55,8
4490,413,3,1013,6,16,1
4491,44,35,1004,2,69,13
4492,-370,54,927,-10,62,20
4493,-500,-1,863,-15,3,-1
4494,-210,-67,1008,-12,-70,-7
4495,296,-73,1096,0,-85,6
4496,477,-31,1029,7,-28,5
4497,291,15,1013,3,41,5
4498,-136,52,984,-3,72,20
4499,-464,34,885,-15,43,12
4500,-421,-29,905,-14,-26,-6
4501,-5,-82,1059,-7,-85,-1
4502,405,-64,1076,3,-67,8
4503,442,-11,1010,8,2,0
4504,129,28,1006,1,60,10
4505,-273,65,953,-5,69,21
4506,-495,6,864,-18,17,4
4507,-306,-55,965,-12,-55,-8
4508,183,-79,1095,-5,-87,3
4509,460,-48,1037,4,-44,8
4510,370,6,1016,6,29,3
4511,-27,41,994,-3,71,16
4512,-414,53,913,-11,55,17
4513,-480,-22,875,-17,-11,-4
4514,-136,-70,1019,-10,-76,-4
4515,355,-69,1095,1,-80,7
4516,476,-25,1021,7,-15,3
4517,233,25,1023,5,53,7
4518,-201,62,971,-7,69,20
4519,-502,20,864,-17,36,8
4520,-380,-44,924,-13,-40,-8
4521,84,-82,1075,-6,-88,1
4522,448,-61,1076,4,-58,7
4523,419,-1,1011,9,12,2
4524,54,41,1002,1,67,14
4525,-355,59,933,-9,62,20
4526,-497,-7,864,-18,6,0
4527,-228,-64,1001,-9,-66,-7
4528,281,-76,1096,-4,-85,7
4529,474,-42,1029,6,-30,5
4530,299,17,1010,5,39,3
4531,-118,52,985,-2,74,19
4532,-453,35,894,-13,44,14
4533,-432,-24,895,-16,-24,-6
4534,-26,-77,1053,-7,-82,-2
4535,397,-72,1081,2,-70,8
4536,442,-13,1011,9,-2,2
4537,147,29,1011,1,59,9
4538,-258,61,955,-7,68,21
4539,-498,9,866,-17,21,5
4540,-321,-50,953,-13,-53,-8
4541,165,-78,1093,-4,-87,3
4542,455,-55,1043,3,-45,8
4543,377,8,1015,10,26,1
4544,-7,42,1007,-2,69,17
4545,-409,51,909,-11,57,18
4546,-487,-14,869,-16,-10,-4
4547,-154,-73,1018,-11,-75,-5
4548,344,-72,1097,1,-79,7
4549,479,-26,1022,7,-19,3
4550,250,24,1022,6,49,6
4551,-186,57,976,-8,70,21
4552,-499,29,868,-15,36,10
4553,-391,-37,923,-13,-37,-8
4554,65,-85,1066,-8,-88,0
4555,437,-58,1074,5,-59,8
4556,426,-2,1012,7,9,1
4557,69,35,1002,0,67,12
4558,-340,58,936,-10,64,19
4559,-492,-1,863,-18,8,1
4560,-247,-63,995,-10,-64,-6
4561,260,-77,1098,-1,-86,5
4562,468,-36,1028,7,-31,6
4563,315,10,1013,6,36,3
4564,-102,47,982,-4,74,19
4565,-440,47,907,-13,47,16
4566,-443,-27,889,-17,-23,-5
4567,-50,-75,1049,-7,-81,-3
4568,383,-70,1082,1,-72,9
4569,453,-17,1012,6,-3,3
4570,166,23,1015,3,57,8
4571,-243,63,956,-6,69,22
4572,-502,16,867,-16,24,6
4573,-339,-50,949,-15,-51,-8
4574,145,-76,1088,-4,-88,2
4575,458,-53,1051,4,-49,7
4576,394,4,1013,6,24,1
4577,6,46,1007,0,69,15
4578,-397,51,913,-14,59,19
4579,-492,-14,869,-14,-5,-3
4580,-172,-75,1014,-12,-73,-5
4581,338,-74,1098,1,-80,8
4582,475,-28,1024,8,-21,4
4583,259,23,1017,7,48,5
4584,-176,65,975,-6,73,21
4585,-491,30,871,-16,38,9
4586,-397,-38,918,-12,-36,-8
4587,47,-75,1069,-8,-86,1
4588,435,-65,1070,2,-62,9
4589,431,-5,1014,8,6,1
4590,79,36,1002,0,66,12
4591,-318,55,938,-9,64,21
4592,-494,0,866,-17,11,3
4593,-258,-61,984,-10,-60,-8
4594,241,-76,1101,-4,-89,5
4595,459,-44,1030,6,-34,5
4596,330,18,1011,7,34,3
4597,-80,50,986,-6,72,18
4598,-431,42,906,-11,50,16
4599,-454,-21,888,-15,-20,-6
4600,-73,-78,1038,-10,-79,-3
4601,376,-75,1087,2,-73,8
4602,456,-17,1014,8,-5,3
4603,186,25,1021,6,56,7
4604,-233,62,960,-9,70,22
4605,-501,20,864,-14,27,7
4606,-348,-48,940,-17,-49,-8
