sequence,AccelerometerX,AccelerometerY,AccelerometerZ,GyroscopeX,GyroscopeY,GyroscopeZ
0,-144,50,973,-12,21,2
1,-166,45,981,-15,2,0
2,-78,17,996,-18,-19,-6
3,74,9,1013,-16,-26,-8
4,178,18,1001,-16,-15,-7
5,144,31,1000,-17,9,-1
6,29,44,1007,-18,25,2
7,-120,57,984,-9,25,2
8,-174,47,994,-19,9,1
9,-116,19,992,-16,-13,-5
10,45,17,1000,-12,-25,-8
11,158,14,1002,-19,-18,-8
12,166,22,1003,-11,2,-5
13,63,44,1007,-11,20,0
14,-86,58,992,-14,26,4
15,-171,42,986,-12,15,2
16,-146,25,978,-17,-6,-3
17,7,18,1010,-15,-25,-7
18,131,11,1015,-15,-23,-8
19,181,16,1004,-15,-3,-5
20,103,43,990,-12,19,-1
21,-54,46,1001,-13,27,4
22,-161,43,990,-14,16,1
23,-162,35,981,-16,-2,-2
24,-31,21,1002,-18,-23,-6
25,97,7,1007,-14,-23,-7
26,185,24,998,-12,-10,-5
27,123,38,1006,-13,13,-2
28,-15,49,1016,-12,26,2
29,-140,47,974,-13,21,2
30,-169,45,979,-14,4,-1
31,-79,15,1002,-17,-18,-5
32,74,8,1008,-16,-25,-7
33,176,21,1002,-16,-16,-7
34,146,28,1002,-12,8,-2
35,27,47,1006,-12,24,-1
36,-124,55,983,-15,25,4
37,-171,43,995,-13,8,-1
38,-116,20,991,-17,-14,-4
39,48,15,998,-16,-26,-7
40,161,15,1004,-14,-17,-8
41,167,23,1003,-15,1,-3
42,64,45,1002,-9,21,0
43,-87,59,993,-13,27,4
44,-167,41,984,-15,13,2
45,-146,28,977,-14,-8,-4
46,8,21,1012,-19,-24,-6
47,128,11,1014,-16,-21,-7
48,181,21,1000,-14,-5,-5
49,100,43,991,-13,18,-1
50,-49,51,1001,-10,28,3
51,-161,43,989,-13,18,2
52,-157,38,977,-16,-1,-1
53,-36,21,1003,-18,-21,-8
54,97,5,1005,-16,-23,-9
55,183,20,1002,-13,-9,-6
56,123,41,1001,-12,11,-2
57,-14,47,1019,-11,26,1
58,-140,51,974,-14,22,2
59,-169,46,974,-15,3,1
60,-75,16,1004,-15,-18,-6
61,67,7,1010,-16,-24,-7
62,181,20,1000,-16,-15,-8
63,146,28,998,-11,9,-2
64,29,44,1008,-9,25,0
65,-120,53,983,-13,26,3
66,-171,46,992,-14,9,0
67,-118,19,994,-18,-13,-5
68,48,15,998,-17,-26,-9
69,158,11,1002,-15,-17,-8
70,162,19,1006,-13,2,-4
71,63,44,1006,-11,20,0
72,-85,54,991,-12,26,3
73,-168,43,982,-15,13,-1
74,-143,26,985,-14,-7,-4
75,11,21,1010,-17,-25,-8
76,126,9,1013,-17,-23,-8
77,181,22,1000,-11,-4,-5
78,95,43,991,-11,18,0
79,-50,57,998,-12,26,3
80,-161,37,995,-15,17,1
81,-159,38,976,-17,-2,-2
82,-29,20,1004,-16,-21,-7
83,102,11,1009,-15,-23,-8
84,181,22,1000,-13,-10,-5
85,124,41,1006,-13,14,-2
86,-16,48,1015,-14,27,3
87,-145,49,975,-12,21,2
88,-163,41,976,-16,2,0
89,-80,16,1005,-15,-18,-6
90,75,8,1007,-16,-25,-8
91,176,19,1004,-13,-15,-8
92,142,35,999,-13,7,-1
93,26,42,1006,-12,24,0
94,-124,57,987,-14,24,4
95,-173,42,994,-15,7,0
96,-112,20,993,-16,-15,-5
97,47,14,995,-15,-26,-7
98,159,16,1005,-15,-17,-8
99,163,21,1004,-14,4,-4
100,61,38,1005,-11,22,0
101,-87,56,989,-11,27,3
102,-172,44,987,-13,13,0
103,-139,28,982,-15,-6,-5
104,8,22,1013,-18,-24,-7
105,132,9,1013,-16,-23,-7
106,180,15,1000,-13,-3,-5
107,95,41,990,-11,19,-1
108,-55,53,1001,-13,27,4
109,-165,42,991,-13,16,0
110,-159,39,978,-16,-5,-2
111,-29,24,1005,-18,-23,-7
112,101,8,1009,-17,-22,-9
113,187,23,1001,-15,-10,-5
114,125,38,1007,-13,13,-1
115,-12,48,1012,-11,26,1
116,-145,45,975,-13,19,2
117,-162,44,976,-13,4,-1
118,-76,18,1003,-18,-18,-6
119,74,8,1007,-16,-24,-8
120,178,18,1001,-16,-15,-8
121,146,33,999,-13,7,-3
122,26,45,1004,-11,24,0
123,-119,56,986,-14,25,2
124,-172,45,992,-14,8,1
125,-114,19,991,-17,-14,-5
126,45,16,999,-17,-25,-7
127,159,12,1002,-13,-18,-9
128,165,23,1004,-15,3,-4
129,59,42,1004,-11,21,0
130,-86,58,986,-13,26,2
131,-174,42,989,-16,14,1
132,-145,30,981,-15,-8,-3
133,11,19,1016,-17,-25,-7
134,132,9,1013,-17,-21,-9
135,175,16,998,-12,-3,-5
136,101,42,992,-11,19,-2
137,-55,53,1003,-12,27,3
138,-164,46,990,-13,16,0
139,-157,37,980,-16,-2,-1
140,-31,19,1003,-19,-22,-6
141,100,6,1010,-17,-23,-9
142,181,21,1003,-13,-9,-6
143,119,37,1007,-14,14,-1
144,-14,44,1014,-13,28,2
145,-146,46,973,-11,22,3
146,-162,46,978,-14,3,-1
147,-75,18,1005,-15,-17,-5
148,74,13,1009,-17,-24,-8
149,177,17,1001,-15,-13,-7
150,143,29,1000,-12,9,-2
151,29,44,1006,-12,25,1
152,-121,56,986,-14,25,3
153,-170,46,992,-16,7,0
154,-110,21,993,-15,-13,-4
155,48,16,995,-15,-26,-8
156,161,18,1004,-15,-18,-8
157,165,23,1007,-15,3,-3
158,63,40,1003,-12,20,0
159,-91,58,992,-12,26,3
160,-167,41,985,-15,12,1
161,-144,27,981,-16,-8,-2
162,12,21,1013,-16,-26,-7
163,132,14,1012,-16,-21,-9
164,179,17,1001,-12,-1,-6
165,98,44,987,-12,18,0
166,-54,53,999,-10,26,4
167,-162,40,992,-14,17,1
168,-158,37,979,-17,-3,-2
169,-29,19,1006,-16,-22,-7
170,100,6,1007,-17,-23,-8
171,184,20,1002,-12,-11,-6
172,122,40,1004,-12,14,-1
173,-18,48,1014,-13,26,3
174,-139,45,977,-14,21,3
175,-169,42,976,-16,3,1
176,-75,17,1000,-16,-18,-7
177,74,9,1014,-15,-24,-8
178,174,23,1000,-15,-15,-5
179,142,36,999,-12,7,-2
180,27,38,1010,-14,25,0
181,-119,56,979,-14,25,3
182,-171,43,995,-14,9,0
183,-115,19,996,-17,-13,-5
184,48,16,994,-16,-26,-8
185,157,15,1002,-14,-18,-8
186,161,24,1007,-14,1,-2
187,64,39,1002,-11,21,0
188,-87,54,990,-13,27,4
189,-170,44,984,-16,13,2
190,-144,28,984,-15,-7,-4
191,10,22,1005,-17,-25,-7
192,127,15,1013,-15,-22,-7
193,185,17,1005,-15,-3,-5
194,98,41,985,-13,18,0
195,-49,52,998,-13,27,2
196,-164,43,993,-14,18,2
197,-158,40,979,-15,-1,-2
198,-36,20,1002,-19,-22,-7
199,98,6,1011,-16,-24,-9
200,186,20,999,-13,-10,-7
201,127,36,1005,-13,14,-2
202,-13,47,1015,-12,26,2
203,-145,51,976,-11,21,1
204,-164,45,975,-15,3,-1
205,-81,17,1002,-16,-17,-5
206,73,9,1009,-18,-25,-7
207,179,14,1003,-16,-16,-7
208,149,29,999,-12,8,-3
209,29,41,1007,-13,26,2
210,-118,58,985,-13,26,2
211,-175,45,993,-15,9,-1
212,-119,20,993,-16,-13,-5
213,45,15,1001,-16,-25,-7
214,156,14,1000,-17,-19,-8
215,167,20,1002,-14,2,-3
216,67,42,1004,-12,20,-1
217,-85,59,993,-13,27,3
218,-168,41,988,-14,13,1
219,-149,30,978,-13,-7,-3
220,8,22,1006,-15,-24,-8
221,124,10,1018,-17,-21,-8
222,180,19,1004,-12,-4,-5
223,103,39,989,-11,16,-2
224,-47,50,1001,-12,26,2
225,-161,45,985,-11,18,2
226,-160,39,985,-14,-2,-2
227,-37,21,1002,-18,-22,-6
228,96,4,1007,-17,-23,-8
229,182,17,998,-14,-10,-6
230,128,38,1008,-13,13,-1
231,-9,42,1012,-13,25,3
232,-140,54,977,-13,22,2
233,-165,44,979,-14,4,-1
234,-83,18,997,-16,-18,-5
235,69,9,1007,-18,-25,-8
236,175,18,1009,-16,-16,-8
237,145,28,999,-13,6,-3
238,36,42,1005,-15,24,0
239,-114,54,986,-12,25,2
240,-173,46,992,-13,7,-1
241,-122,22,994,-18,-13,-5
242,40,18,1006,-15,-25,-7
243,152,16,1001,-15,-19,-8
244,169,21,1000,-13,2,-5
245,70,40,1003,-10,21,-1
246,-83,54,1000,-14,26,4
247,-168,40,985,-14,13,0
248,-145,31,978,-15,-7,-2
249,-3,26,1002,-17,-24,-7
250,121,7,1019,-15,-22,-9
251,180,20,1008,-14,-5,-6
252,106,41,993,-12,16,-1
253,-44,47,1001,-11,27,2
254,-155,46,982,-14,19,2
255,-162,39,981,-17,-2,-1
256,-49,21,1004,-17,-22,-6
257,98,5,1010,-17,-24,-9
258,186,19,997,-13,-10,-7
259,130,39,1003,-12,13,-2
260,0,45,1019,-11,26,2
261,-138,51,978,-13,23,4
262,-171,43,979,-15,4,1
263,-91,20,1000,-17,-16,-6
264,67,13,999,-17,-27,-9
265,171,17,1007,-16,-17,-8
266,154,26,1005,-14,6,-4
267,39,42,1004,-11,23,0
268,-108,58,981,-11,26,3
269,-176,43,988,-15,10,0
270,-129,24,993,-17,-12,-4
271,33,17,1012,-18,-26,-7
272,147,12,999,-14,-20,-8
273,174,18,998,-13,-1,-4
274,79,44,997,-13,20,0
275,-78,57,1000,-13,28,4
276,-163,46,993,-14,14,1
277,-155,32,973,-15,-6,-1
278,-7,20,1000,-15,-24,-8
279,116,7,1018,-18,-22,-7
280,181,22,1003,-13,-7,-4
281,113,40,999,-13,16,0
282,-34,49,1005,-14,28,2
283,-157,45,973,-13,20,2
284,-158,41,982,-15,0,-4
285,-59,17,1010,-17,-19,-7
286,87,10,1004,-17,-25,-9
287,185,18,1001,-15,-12,-7
288,135,36,1003,-13,11,-2
289,5,44,1008,-11,25,2
290,-132,52,985,-12,24,2
291,-173,44,990,-15,6,0
292,-95,20,991,-17,-15,-6
293,60,10,1003,-18,-25,-7
294,166,17,1005,-15,-17,-8
295,159,22,1006,-13,4,-3
296,44,44,1003,-13,21,1
297,-98,59,985,-13,25,3
298,-168,41,987,-14,11,0
299,-135,25,987,-16,-10,-3
300,22,20,1015,-16,-25,-6
301,143,8,1009,-15,-21,-9
302,173,22,994,-14,-2,-4
303,87,43,995,-11,19,-2
304,-65,55,1005,-12,28,3
305,-165,40,987,-14,15,2
306,-153,35,978,-17,-4,-1
307,-21,15,1005,-18,-22,-6
308,108,12,1006,-15,-24,-9
309,185,22,1003,-14,-10,-6
310,113,42,1007,-12,16,-1
311,-20,50,1006,-13,27,3
312,-151,41,976,-13,21,3
313,-164,43,977,-15,1,-2
314,-70,17,1003,-17,-19,-5
315,79,8,1007,-16,-23,-9
316,178,21,999,-16,-14,-8
317,143,34,1001,-13,9,-2
318,19,47,1005,-11,24,1
319,-125,58,985,-13,25,2
320,-170,45,995,-16,7,-1
321,-114,20,987,-17,-13,-5
322,52,12,1001,-16,-25,-8
323,160,13,1003,-15,-17,-7
324,162,24,998,-14,4,-3
325,59,43,1007,-13,21,-1
326,-92,59,988,-12,25,2
327,-169,40,985,-15,13,0
328,-143,25,980,-17,-8,-4
329,10,20,1010,-18,-24,-7
330,132,9,1014,-18,-22,-9
331,178,19,998,-13,-3,-5
332,98,45,993,-12,17,-1
333,-53,53,996,-11,26,4
334,-165,41,990,-11,17,0
335,-154,39,982,-15,-2,-2
336,-33,17,1002,-18,-22,-6
337,102,7,1006,-15,-25,-8
338,185,21,1000,-14,-10,-6
339,122,41,1002,-11,13,-1
340,-15,47,1018,-12,26,2
341,-141,53,979,-12,21,1
342,-166,43,978,-15,3,0
343,-77,18,997,-19,-18,-6
344,71,7,1008,-17,-24,-8
345,179,15,1005,-16,-16,-9
346,145,26,1002,-19,7,-1
347,31,44,1002,-26,26,3
348,-117,62,989,-13,23,3
349,-173,49,991,-13,9,0
350,-120,23,992,-19,-13,-5
351,40,14,1008,-14,-25,-7
352,152,13,996,-18,-19,-7
353,169,16,998,-13,2,-4
354,68,41,1006,-11,20,-1
355,-82,55,996,-13,27,3
356,-166,42,989,-14,15,0
357,-148,36,977,-15,-6,-2
358,2,24,1006,-16,-26,-7
359,118,7,1016,-17,-22,-8
360,176,19,1008,-15,-7,-5
361,107,39,996,-12,15,-1
362,-41,45,1000,-10,27,2
363,-156,48,980,-12,20,2
364,-157,41,986,-15,1,-1
365,-50,19,1005,-18,-22,-6
366,88,9,1006,-15,-23,-8
367,184,21,1000,-14,-11,-7
368,130,39,1004,-12,12,-2
369,-3,40,1009,-14,25,1
370,-134,48,983,-12,21,2
371,-166,38,988,-14,5,-1
372,-91,19,988,-15,-15,-6
373,67,11,1007,-15,-25,-8
374,165,20,1005,-13,-17,-7
375,150,27,1004,-13,6,-2
376,42,45,1004,-12,23,0
377,-105,52,983,-14,25,3
378,-169,45,986,-15,10,1
379,-133,21,994,-17,-11,-4
380,33,20,1013,-15,-26,-8
381,143,11,1004,-16,-21,-7
382,173,18,996,-12,-1,-5
383,81,42,995,-9,19,1
384,-72,56,1003,-11,28,4
385,-166,41,990,-14,16,1
386,-149,33,975,-17,-5,-3
387,-12,21,1006,-18,-23,-6
388,109,10,1009,-17,-22,-8
389,178,20,1005,-16,-7,-6
390,111,40,1002,-14,14,-1
391,-31,46,1008,-10,28,3
392,-147,46,971,-14,20,2
393,-157,43,979,-15,2,-1
394,-63,22,1007,-16,-19,-6
395,79,11,1007,-19,-25,-7
396,180,18,1001,-15,-12,-7
397,135,32,999,-14,10,-2
398,15,37,1004,-10,25,1
399,-122,50,986,-11,24,2
400,-166,44,994,-15,6,1
401,-105,23,986,-16,-15,-5
402,57,18,1005,-17,-26,-9
403,159,17,1001,-16,-17,-7
404,159,20,1004,-13,4,-3
405,56,37,1006,-13,21,0
406,-93,57,988,-12,25,3
407,-163,38,983,-13,12,0
408,-143,33,987,-15,-7,-2
409,20,21,1011,-18,-25,-7
410,126,10,1012,-17,-19,-9
411,174,16,999,-13,-2,-4
412,95,42,995,-13,18,-1
413,-60,52,997,-11,26,3
414,-163,45,988,-14,17,1
415,-148,35,985,-15,-3,-2
416,-35,19,1000,-17,-21,-5
417,100,9,1006,-17,-23,-8
418,182,22,1005,-14,-9,-7
419,120,42,1005,-12,14,0
420,-15,46,1013,-13,26,2
421,-144,46,979,-13,21,3
422,-163,42,978,-14,3,1
423,-77,16,998,-18,-17,-5
424,76,10,1010,-16,-24,-8
425,173,20,1003,-16,-15,-6
426,147,34,997,-15,8,-2
427,26,44,1009,-10,25,2
428,-117,60,983,-13,26,4
429,-171,41,994,-18,8,0
430,-116,19,994,-17,-13,-5
431,42,13,1005,-17,-24,-9
432,158,17,1000,-13,-18,-10
433,163,20,1001,-13,1,-3
434,67,49,1005,-11,20,-1
435,-82,51,994,-14,27,3
436,-168,42,986,-14,15,1
437,-143,24,979,-15,-7,-5
438,2,19,1003,-16,-23,-8
439,123,9,1015,-16,-21,-8
440,181,21,1006,-15,-5,-7
441,104,42,992,-11,17,-1
442,-43,53,994,-10,26,3
443,-160,44,986,-13,18,1
444,-158,36,981,-16,-1,-2
445,-47,16,1003,-17,-21,-7
446,94,6,1004,-15,-23,-9
447,183,20,1002,-13,-9,-7
448,129,40,1004,-14,13,-1
449,-3,48,1014,-12,25,1
450,-139,52,983,-12,22,2
451,-167,44,981,-16,4,-1
452,-92,17,994,-15,-16,-5
453,70,10,1008,-17,-27,-8
454,168,14,1006,-14,-17,-8
455,151,27,1004,-13,5,-2
456,45,45,1005,-12,23,3
457,-111,63,984,-11,26,3
458,-172,46,987,-14,9,0
459,-128,21,997,-18,-13,-4
460,33,15,1010,-15,-25,-8
461,148,11,1000,-16,-20,-9
462,172,15,999,-12,0,-5
463,78,44,997,-11,21,0
464,-75,57,1000,-12,27,3
465,-170,43,993,-14,15,0
466,-151,35,970,-16,-5,-3
467,-8,17,1003,-16,-24,-7
468,112,7,1015,-15,-22,-9
469,179,17,1006,-14,-7,-5
470,118,38,996,-10,15,-2
471,-35,48,1008,-11,27,4
472,-152,53,969,-13,20,3
473,-161,42,987,-15,2,-2
474,-60,23,1006,-17,-20,-6
475,86,5,1006,-17,-24,-9
476,185,15,1001,-15,-11,-6
477,134,30,1000,-12,12,-1
478,15,45,1006,-10,25,1
479,-131,56,987,-13,23,3
480,-169,51,990,-14,5,0
481,-101,19,991,-17,-14,-5
482,55,15,1001,-16,-26,-8
483,165,12,1007,-17,-18,-8
484,158,21,1006,-15,5,-4
485,51,39,1002,-13,21,0
486,-96,59,987,-12,26,1
487,-167,43,987,-14,12,0
488,-138,31,985,-17,-9,-3
489,21,23,1015,-18,-26,-8
490,135,9,1007,-18,-22,-8
491,176,18,994,-15,-3,-5
492,92,41,992,-10,19,-1
493,-63,53,1004,-13,28,3
494,-165,44,989,-14,16,1
495,-154,37,977,-15,-3,-2
496,-21,25,1005,-18,-22,-6
497,104,6,1008,-18,-23,-8
498,181,21,1000,-16,-9,-6
499,117,39,1006,-12,14,-2
500,-23,42,1008,-15,28,1
501,-146,47,973,-14,20,2
502,-164,45,977,-14,2,-1
503,-72,19,1006,-18,-19,-6
504,81,7,1007,-17,-24,-8
505,175,19,1002,-13,-13,-5
506,143,30,998,-13,9,-3
507,21,41,1008,-12,24,1
508,-123,57,982,-14,24,3
509,-172,44,995,-15,7,0
510,-110,19,996,-18,-15,-5
511,46,18,997,-17,-26,-7
512,162,15,1004,-16,-19,-9
513,161,18,1006,-15,3,-3
514,60,44,1006,-9,22,-1
515,-86,54,990,-13,26,3
516,-173,39,991,-13,14,1
517,-141,30,976,-17,-7,-4
518,11,19,1010,-16,-24,-8
519,127,10,1018,-15,-22,-8
520,182,20,1004,-14,-4,-5
521,100,43,991,-11,18,-1
522,-55,54,998,-13,27,4
523,-161,41,988,-14,18,0
524,-154,34,982,-16,-3,-1
525,-33,20,1003,-17,-22,-5
526,95,5,1006,-17,-24,-8
527,184,23,1000,-14,-9,-6
528,121,40,1005,-10,15,-1
529,-10,48,1017,-13,27,1
530,-140,50,979,-14,20,0
531,-166,44,979,-16,4,-2
532,-82,15,996,-17,-18,-6
533,70,9,1012,-14,-25,-10
534,174,17,1001,-14,-14,-7
535,145,29,1002,-12,8,-3
536,33,41,1008,-11,24,1
537,-115,59,982,-11,25,4
538,-169,48,989,-14,9,1
539,-128,21,997,-20,-12,-3
540,45,18,1006,-17,-26,-8
541,152,9,1000,-17,-17,-7
542,166,23,997,-12,1,-5
543,73,39,1003,-11,19,-1
544,-83,61,998,-14,27,4
545,-169,44,985,-15,15,2
546,-145,33,980,-16,-6,-4
547,0,20,1002,-18,-24,-5
548,122,8,1015,-17,-22,-8
549,181,15,1013,-14,-4,-5
550,107,40,993,-10,17,0
551,-41,54,996,-11,27,4
552,-158,46,984,-13,19,2
553,-161,41,981,-14,0,-1
554,-46,23,1005,-18,-22,-6
555,91,6,1004,-17,-24,-9
556,184,21,1000,-14,-11,-7
557,129,37,1001,-14,13,-2
558,-1,44,1011,-12,25,1
559,-137,50,983,-13,22,1
560,-169,43,986,-15,4,-1
561,-91,19,990,-17,-17,-4
562,67,15,1005,-17,-26,-8
563,167,17,1006,-15,-16,-8
564,154,28,1003,-12,6,-3
565,45,38,1005,-13,23,0
566,-107,57,986,-11,25,2
567,-171,40,984,-15,9,-1
568,-132,27,992,-16,-11,-5
569,30,20,1015,-17,-25,-6
570,143,16,1004,-16,-20,-8
571,172,18,997,-14,0,-4
572,82,39,996,-10,19,-1
573,-71,52,1001,-15,28,2
574,-167,37,990,-12,16,1
575,-148,35,975,-14,-5,-2
576,-13,21,1003,-17,-23,-7
577,108,11,1012,-16,-22,-8
578,183,21,1005,-17,-9,-5
579,109,39,1003,-13,14,-1
580,-27,46,1006,-13,27,3
581,-148,43,975,-14,20,1
582,-160,45,981,-14,1,-1
583,-62,18,1004,-18,-20,-7
584,88,9,1009,-17,-24,-8
585,176,22,998,-15,-13,-6
586,139,32,1000,-13,11,-2
587,9,41,1008,-12,25,2
588,-128,55,981,-14,23,3
589,-163,41,995,-15,8,-1
590,-106,18,993,-16,-13,-4
591,59,19,996,-16,-26,-8
592,165,18,1006,-14,-17,-7
593,155,24,1006,-15,4,-3
594,52,44,1001,-12,22,-1
595,-97,56,989,-12,26,2
596,-166,45,985,-13,12,1
597,-136,24,986,-16,-9,-4
598,21,19,1011,-16,-25,-7
599,128,10,1010,-15,-20,-9
600,179,20,1003,-13,-2,-5
601,90,42,992,-12,20,1
602,-57,58,995,-13,27,3
603,-163,41,997,-15,17,1
604,-154,38,977,-16,-3,-3
605,-24,18,1003,-18,-22,-6
606,102,4,1010,-17,-24,-9
607,179,22,998,-13,-9,-6
608,122,40,1004,-12,14,-1
609,-20,46,1017,-12,27,3
610,-144,51,974,-12,20,3
611,-160,44,978,-14,3,-1
612,-78,20,1000,-19,-19,-5
613,73,10,1007,-18,-25,-8
614,176,18,1007,-15,-15,-8
615,140,31,998,-14,7,-2
616,31,39,1007,-11,25,0
617,-115,56,985,-12,27,2
618,-173,44,991,-14,7,0
619,-117,21,993,-16,-14,-5
620,40,18,1005,-16,-24,-8
621,154,16,997,-14,-18,-7
622,169,19,1000,-14,2,-4
623,68,44,1003,-10,21,0
624,-81,58,998,-12,28,2
625,-166,42,987,-15,14,0
626,-147,30,975,-15,-6,-3
627,5,19,1005,-18,-25,-7
628,118,10,1014,-16,-21,-8
629,181,19,1006,-12,-5,-5
630,104,43,996,-12,17,0
631,-45,49,994,-10,27,4
632,-155,41,986,-14,19,1
633,-156,36,985,-16,-1,-2
634,-47,20,1001,-17,-22,-6
635,93,6,1006,-17,-25,-9
636,180,19,1001,-13,-10,-7
637,127,40,1003,-14,11,0
638,0,43,1011,-11,25,2
639,-138,48,983,-13,22,2
640,-165,47,980,-16,5,-1
641,-91,18,994,-17,-16,-6
642,65,10,1003,-16,-25,-8
643,167,17,1005,-13,-16,-8
644,154,25,1004,-14,5,-3
645,42,44,1002,-14,22,2
646,-107,57,981,-13,25,3
647,-170,41,989,-15,9,0
648,-132,25,990,-16,-11,-3
649,33,19,1012,-16,-25,-8
650,145,14,1005,-14,-20,-8
651,169,20,994,-12,-1,-3
652,84,42,996,-10,20,0
653,-72,51,1000,-11,29,5
654,-168,46,986,-12,16,1
655,-148,33,973,-16,-5,-3
656,-14,22,1007,-17,-22,-6
657,110,8,1009,-17,-22,-8
658,181,21,1009,-14,-7,-7
659,110,41,999,-11,16,-2
660,-30,47,1004,-13,28,2
661,-151,45,976,-14,20,1
662,-161,41,978,-14,0,-1
663,-60,20,1006,-18,-20,-7
664,81,9,1011,-16,-24,-8
665,178,21,997,-15,-13,-7
666,138,38,1003,-13,12,-2
667,10,44,1009,-11,24,2
668,-125,55,984,-14,22,2
669,-168,44,996,-16,7,-1
670,-104,19,991,-16,-15,-5
671,59,13,1000,-16,-26,-8
672,162,13,1005,-15,-17,-8
673,157,24,1003,-13,4,-3
674,54,42,1006,-11,21,0
675,-96,61,989,-12,26,5
676,-167,43,984,-16,12,2
677,-140,24,987,-15,-8,-3
678,19,22,1012,-17,-26,-6
679,134,10,1009,-15,-20,-7
680,174,19,1001,-14,-1,-5
681,92,42,990,0,21,-1
682,-56,54,998,-13,27,2
683,-164,45,991,-12,16,1
684,-151,43,982,-14,-3,-4
685,-27,17,1003,-18,-23,-7
686,101,11,1003,-16,-24,-8
687,181,14,1003,-15,-9,-7
688,118,38,1007,-15,14,-2
689,-19,41,1011,-12,27,2
690,-140,50,977,-13,22,0
691,-162,43,981,-14,3,0
692,-74,25,997,-16,-18,-5
693,76,8,1011,-19,-24,-8
694,174,18,1002,-16,-14,-7
695,142,29,999,-12,8,-2
696,26,41,1007,-11,24,0
697,-118,58,985,-11,25,1
698,-169,43,992,-13,7,0
699,-118,17,995,-16,-13,-4
700,47,16,1006,-16,-26,-7
701,151,16,999,-16,-18,-8
702,167,17,999,-13,1,-5
703,68,45,1005,-10,21,0
704,-86,57,992,-14,26,3
705,-166,43,989,-13,13,0
706,-143,27,977,-17,-8,-4
707,2,23,1000,-17,-26,-9
708,125,9,1017,-15,-22,-9
709,176,21,1008,-13,-3,-5
710,105,44,991,-11,17,-1
711,-44,50,1000,-9,27,3
712,-157,45,981,-14,18,1
713,-160,41,984,-15,0,-2
714,-42,19,1005,-18,-22,-7
715,91,4,1004,-19,-25,-8
716,186,20,998,-13,-11,-7
717,131,36,1003,-12,12,-2
718,-4,46,1012,-13,26,2
719,-137,51,982,-11,22,2
720,-167,44,986,-16,5,-1
721,-90,17,994,-16,-17,-5
722,69,12,1002,-16,-25,-8
723,168,18,1009,-15,-16,-7
724,150,25,1000,-12,6,-2
725,40,42,1008,-11,22,1
726,-106,56,983,-13,26,4
727,-170,43,985,-15,10,1
728,-129,24,995,-16,-10,-5
729,30,18,1011,-16,-24,-8
730,147,14,1002,-16,-20,-8
731,170,19,997,-14,0,-4
732,80,41,996,-11,20,-1
733,-74,50,1000,-14,27,3
734,-166,41,993,-14,14,0
735,-148,33,973,-15,-5,-2
736,-7,22,1004,-16,-23,-7
737,112,11,1010,-17,-21,-7
738,179,23,1007,-15,-7,-7
739,113,36,1000,-12,15,-1
740,-30,46,1006,-13,26,3
741,-149,43,976,-14,20,1
742,-160,43,981,-15,1,-2
743,-58,19,1005,-18,-21,-6
744,82,6,1009,-15,-22,-7
745,179,22,1002,-16,-12,-7
746,132,34,1001,-10,10,-2
747,13,46,1004,-11,25,1
748,-128,53,989,-14,23,4
749,-169,44,994,-16,6,0
750,-104,14,987,-18,-14,-5
751,54,16,1003,-16,-26,-8
752,163,17,1002,-15,-16,-8
753,162,27,1005,-14,3,-4
754,51,44,1003,-13,21,-1
755,-94,57,989,-13,26,4
756,-168,40,986,-14,13,2
757,-139,28,983,-15,-8,-3
758,14,19,1012,-16,-26,-7
759,131,14,1014,-16,-22,-8
760,177,16,998,-16,-4,-4
761,93,43,994,-13,18,0
762,-54,51,997,-14,27,3
763,-162,42,990,-12,17,1
764,-153,37,978,-16,-2,-2
765,-30,18,1005,-16,-21,-6
766,101,8,1006,-17,-23,-8
767,182,19,998,-13,-8,-6
768,120,41,1007,-12,13,-1
769,-14,43,1013,-12,27,2
770,-143,53,976,-10,21,2
771,-163,44,978,-15,3,0
772,-78,19,999,-15,-17,-5
773,75,7,1007,-18,-24,-6
774,174,16,1004,-15,-15,-8
775,146,26,1003,-12,8,-2
776,29,41,1002,-12,25,2
777,-113,62,984,-13,25,3
778,-171,46,990,-13,8,1
779,-122,25,992,-18,-13,-4
780,43,14,1007,-17,-25,-7
781,149,13,1000,-18,-19,-7
782,165,21,999,-12,0,-3
783,74,42,1005,-11,21,-1
784,-83,58,994,-14,27,4
785,-166,47,985,-14,15,0
786,-145,32,981,-17,-6,-2
787,-4,21,1002,-15,-24,-6
788,123,7,1017,-17,-22,-9
789,178,17,1011,-13,-5,-4
790,106,42,993,-13,16,-1
791,-37,48,999,-12,27,3
792,-157,42,983,-11,19,2
793,-159,45,984,-14,-1,-2
794,-47,19,1004,-17,-22,-7
795,90,8,1005,-17,-24,-9
796,182,22,1000,-16,-12,-7
797,128,37,1003,-13,12,-2
798,1,42,1012,-12,25,3
799,-138,51,984,-12,23,2
800,-165,39,985,-14,4,0
801,-90,16,996,-17,-16,-6
802,64,12,1002,-17,-25,-8
803,169,20,1007,-11,-16,-8
804,153,26,1005,-14,7,-3
805,41,43,1000,-12,23,1
806,-107,55,987,-14,26,4
807,-171,40,989,-17,11,1
808,-131,26,990,-15,-10,-4
809,33,19,1016,-17,-24,-8
810,143,13,1004,-15,-20,-7
811,172,20,995,-13,-1,-4
812,82,45,997,-12,20,0
813,-74,53,1002,-12,28,5
814,-167,40,988,-15,15,1
815,-149,33,977,-16,-4,-2
816,-13,20,1003,-18,-23,-7
817,111,9,1012,-15,-22,-9
818,183,23,1005,-14,-8,-6
819,110,40,1001,-12,14,-1
820,-27,45,1006,-13,27,1
821,-149,45,975,-14,20,2
822,-162,46,979,-15,1,-1
823,-62,13,1007,-19,-21,-7
824,82,11,1009,-17,-24,-8
825,180,22,998,-15,-13,-6
826,137,33,1000,-12,9,-2
827,12,44,1008,-11,25,0
828,-124,54,982,-14,23,2
829,-168,44,996,-15,7,0
830,-106,19,989,-17,-15,-5
831,59,15,998,-17,-26,-9
832,162,14,1002,-14,-17,-8
833,159,24,1007,-15,3,-3
834,59,44,1001,-11,20,0
835,-97,59,990,-13,25,3
836,-166,41,987,-14,11,0
837,-141,24,982,-14,-8,-4
838,15,21,1009,-17,-25,-8
839,128,9,1015,-16,-21,-8
840,178,19,1001,-13,-3,-5
841,94,43,989,-15,18,1
842,-57,54,1000,-13,27,3
843,-164,42,993,-14,17,1
844,-153,34,976,-17,-3,-2
845,-31,17,1007,-15,-22,-7
846,101,9,1003,-16,-24,-8
847,183,19,1001,-12,-10,-7
848,121,41,1004,-12,13,-2
849,-15,46,1016,-14,26,2
850,-141,48,974,-12,21,1
851,-166,46,975,-17,3,0
852,-75,16,1001,-16,-17,-7
853,73,7,1008,-18,-26,-7
854,175,20,1002,-15,-15,-9
855,150,28,1001,-12,8,-2
856,25,43,1007,-11,25,1
857,-114,59,983,-11,24,3
858,-173,44,994,-15,7,0
859,-119,21,993,-17,-14,-3
860,45,15,1003,-18,-26,-7
861,157,14,1002,-16,-19,-7
862,168,20,999,-14,1,-2
863,69,50,1007,-12,21,-1
864,-80,58,996,-14,27,3
865,-169,42,988,-14,13,1
866,-145,30,977,-15,-7,-2
867,0,19,1007,-16,-24,-6
868,119,8,1017,-16,-23,-9
869,181,19,1010,-15,-6,-5
870,103,43,994,-12,17,-1
871,-40,52,1000,-11,26,2
872,-158,45,981,-14,19,2
873,-161,42,983,-18,0,-1
874,-45,18,1005,-18,-21,-7
875,90,7,1008,-17,-24,-8
876,184,18,996,-14,-12,-5
877,130,34,1007,-12,12,-2
878,-1,44,1008,-11,26,2
879,-135,50,980,-12,22,3
880,-167,45,988,-14,5,-2
881,-92,18,990,-16,-17,-6
882,65,19,1002,-18,-27,-8
883,169,15,1010,-15,-17,-9
884,152,27,1004,-13,6,-3
885,46,38,1001,-12,23,0
886,-108,55,985,-11,26,3
887,-170,42,987,-13,9,0
888,-132,25,992,-17,-11,-4
889,30,22,1013,-19,-26,-7
890,147,11,1008,-15,-20,-9
891,175,18,993,-14,-2,-4
892,79,45,998,-11,20,0
893,-67,54,1005,-11,27,2
894,-167,41,989,-14,15,1
895,-150,35,973,-14,-6,-3
896,-9,19,1006,-17,-23,-7
897,110,7,1013,-17,-21,-8
898,181,23,1004,-14,-7,-6
899,113,38,1002,-14,15,-1
900,-29,46,1006,-13,27,3
901,-148,49,971,-14,20,1
902,-158,42,981,-14,1,-2
903,-62,19,1007,-17,-19,-6
904,83,8,1003,-18,-25,-8
905,179,19,1003,-14,-13,-6
906,135,31,1000,-11,10,-1
907,15,44,1005,-12,24,1
908,-126,53,986,-13,23,2
909,-169,45,995,-15,7,0
910,-104,18,990,-16,-13,-5
911,55,15,1000,-16,-25,-7
912,162,14,1005,-17,-17,-7
913,159,20,1002,-14,4,-3
914,52,41,1006,-11,22,0
915,-95,57,987,-12,25,3
916,-165,44,989,-14,12,1
917,-141,31,982,-17,-9,-3
918,13,22,1010,-17,-25,-7
919,134,9,1015,-16,-21,-8
920,175,17,998,-15,-2,-4
921,97,40,989,-11,17,-2
922,-58,48,1001,-11,26,4
923,-164,45,990,-14,17,2
924,-155,37,979,-16,-3,-1
925,-28,19,1005,-17,-23,-5
926,102,8,1002,-17,-23,-7
927,186,18,1003,-13,-10,-7
928,119,36,1003,-13,13,-1
929,-16,45,1009,-10,27,1
930,-141,49,978,-11,21,1
931,-165,44,978,-15,2,0
932,-73,21,997,-16,-18,-5
933,74,13,1011,-17,-25,-7
934,171,22,1001,-16,-15,-6
935,146,25,1000,-13,8,-1
936,29,42,1006,-12,24,0
937,-118,59,987,-11,24,3
938,-166,44,990,-13,8,0
939,-119,24,996,-16,-14,-4
940,42,19,1006,-18,-26,-7
941,152,13,999,-16,-18,-7
942,165,20,1001,-14,1,-3
943,69,40,1002,-11,20,-1
944,-80,54,1001,-13,26,2
945,-166,44,986,-13,15,1
946,-144,33,975,-13,-5,-3
947,1,25,1007,-17,-25,-7
948,116,9,1016,-18,-22,-8
949,180,17,1008,-15,-6,-6
950,108,39,995,-13,18,0
951,-42,49,999,-11,27,3
952,-151,44,979,-12,19,0
953,-158,40,986,-14,0,-1
954,-52,17,1004,-16,-21,-5
955,92,8,1005,-17,-26,-9
956,181,19,1003,-15,-11,-6
957,130,37,996,-12,12,-3
958,4,42,1014,-11,25,1
959,-131,49,978,-14,21,2
960,-170,46,990,-14,6,0
961,-89,19,989,-15,-16,-6
962,60,11,1002,-15,-25,-8
963,170,19,1007,-13,-17,-8
964,154,27,1008,-15,6,-3
965,46,45,1000,-11,23,0
966,-105,56,986,-11,26,3
967,-169,43,989,-14,11,-1
968,-134,23,987,-17,-10,-4
969,28,17,1016,-18,-25,-9
970,144,10,1010,-18,-20,-8
971,173,19,991,-13,-1,-4
972,86,44,995,-12,21,-1
973,-65,55,1000,-12,28,3
974,-169,44,987,-10,17,1
975,-150,37,974,-18,-4,-2
976,-18,18,1003,-18,-24,-6
977,108,8,1008,-16,-21,-8
978,182,16,1003,-15,-8,-7
979,115,39,1004,-11,14,-2
980,-25,48,1007,-12,27,1
981,-152,50,970,-12,21,1
982,-161,47,982,-14,1,-1
983,-68,18,1002,-17,-18,-6
984,78,9,1005,-16,-24,-9
985,181,15,1004,-13,-14,-7
986,138,34,998,-13,9,-2
987,20,43,1003,-10,24,0
988,-124,57,987,-13,24,2
989,-169,45,994,-14,6,-2
990,-108,19,988,-15,-15,-6
991,50,16,1005,-16,-25,-8
992,161,13,1003,-15,-19,-8
993,162,21,998,-13,4,-4
994,61,41,1007,-11,21,-1
995,-90,59,994,-13,27,4
996,-169,40,982,-15,13,1
997,-143,30,984,-15,-7,-3
998,7,23,1007,-18,-26,-6
999,127,8,1014,-16,-22,-8
1000,180,19,1006,-14,-3,-4
1001,95,44,990,-10,18,0
1002,-46,47,1000,-10,26,2
1003,-161,43,984,-12,18,2
1004,-158,44,984,-16,-1,-2
1005,-36,20,1005,-17,-21,-7
1006,95,9,1003,-17,-24,-8
1007,188,21,1000,-14,-11,-7
1008,126,35,1007,-12,14,-1
1009,-8,41,1007,-12,26,3
1010,-137,47,982,-12,22,0
1011,-167,41,981,-16,3,0
1012,-84,21,992,-14,-18,-4
1013,70,11,1008,-18,-26,-7
1014,169,20,1007,-16,-16,-6
1015,149,29,1000,-8,8,-3
1016,36,41,1002,-10,23,0
1017,-109,55,981,-9,26,3
1018,-170,40,990,-15,9,0
1019,-127,23,990,-16,-12,-5
1020,36,13,1012,-15,-25,-8
1021,150,13,1002,-17,-19,-8
1022,168,22,993,-12,2,-3
1023,77,43,999,-11,19,-1
1024,-77,57,1002,-15,27,3
1025,-165,41,985,-14,14,0
1026,-150,31,979,-18,-5,-2
1027,-9,18,1004,-17,-24,-6
1028,113,5,1015,-17,-22,-8
1029,179,19,1005,-13,-7,-5
1030,113,42,1002,-10,16,-1
1031,-35,54,1006,-11,28,1
1032,-152,50,976,-14,20,0
1033,-162,43,983,-16,1,-3
1034,-58,15,1006,-19,-20,-6
1035,86,6,1007,-17,-24,-8
1036,183,21,1002,-15,-12,-8
1037,135,32,1003,-14,10,-2
1038,8,45,1008,-13,24,2
1039,-131,55,986,-14,22,3
1040,-167,46,994,-15,5,0
1041,-100,20,989,-17,-16,-5
1042,55,19,1001,-18,-25,-7
1043,164,12,1005,-16,-18,-8
1044,160,21,1007,-14,3,-3
1045,54,41,1001,-10,22,0
1046,-98,61,989,-12,26,3
1047,-168,44,985,-13,11,1
1048,-142,29,986,-16,-9,-3
1049,17,23,1013,-17,-26,-7
1050,137,7,1012,-17,-21,-9
1051,178,18,996,-12,-3,-6
1052,92,40,991,-11,16,-2
1053,-58,53,1002,-12,28,4
1054,-165,44,988,-14,17,1
1055,-156,39,978,-16,-3,-2
1056,-24,21,1007,-18,-23,-6
1057,102,6,1004,-17,-24,-8
1058,182,20,1003,-14,-9,-6
1059,123,35,1007,-13,14,-1
1060,-18,47,1012,-11,27,3
1061,-143,49,975,-12,20,2
1062,-166,43,979,-13,2,0
1063,-74,17,1001,-16,-19,-6
1064,76,8,1008,-17,-24,-7
1065,177,19,1006,-15,-14,-7
1066,143,30,1001,-13,9,-1
1067,26,44,1003,-11,25,1
1068,-119,55,987,-12,25,3
1069,-174,43,991,-16,7,0
1070,-114,23,992,-19,-14,-5
1071,47,13,1003,-17,-25,-8
1072,155,15,999,-13,-17,-9
1073,168,22,999,-13,3,-4
1074,63,46,1005,-12,22,0
1075,-86,60,994,-11,26,3
1076,-166,42,985,-15,14,0
1077,-144,29,977,-17,-7,-3
1078,4,22,1006,-16,-24,-7
1079,126,6,1015,-18,-21,-8
1080,183,18,1005,-13,-4,-5
1081,104,39,991,-10,17,0
1082,-49,50,1000,-11,27,3
1083,-158,42,984,-12,17,1
1084,-161,43,983,-17,-1,-2
1085,-39,21,1003,-19,-22,-7
1086,95,5,1005,-16,-24,-9
1087,183,20,1002,-13,-11,-7
1088,125,34,1002,-12,15,0
1089,-7,45,1017,-12,28,3
1090,-134,51,979,-14,22,2
1091,-168,45,982,-15,5,-1
1092,-87,21,992,-16,-17,-6
1093,65,9,1007,-18,-25,-8
1094,169,15,1005,-16,-17,-8
1095,151,25,1005,-11,7,-2
1096,39,44,1002,-11,23,1
1097,-107,56,982,-13,26,4
1098,-172,45,988,-16,10,1
1099,-125,24,992,-17,-11,-5
1100,32,16,1012,-16,-24,-7
1101,148,16,1000,-17,-19,-7
1102,171,20,997,-14,0,-3
1103,76,42,999,-10,20,0
1104,-74,56,1002,-14,27,4
1105,-164,42,988,-16,13,1
1106,-151,35,976,-17,-7,-2
1107,-3,21,1003,-18,-24,-7
1108,110,12,1017,-16,-22,-8
1109,181,18,1006,-14,-7,-5
1110,110,35,1001,-12,16,-1
1111,-37,48,999,-13,27,2
1112,-152,43,976,-12,19,1
1113,-156,41,985,-13,0,-2
1114,-57,21,1004,-17,-19,-5
1115,87,16,1005,-16,-24,-7
1116,182,16,1002,-16,-11,-7
1117,131,38,998,-11,12,-2
1118,9,39,1009,-14,24,2
1119,-130,50,985,-14,24,1
1120,-170,41,985,-15,6,0
1121,-95,20,985,-15,-15,-6
1122,60,12,1003,-16,-26,-7
1123,167,20,1003,-14,-17,-8
1124,156,26,1003,-14,5,-3
1125,50,43,1004,-13,21,1
1126,-102,53,984,-13,25,2
1127,-169,39,984,-13,11,0
1128,-138,26,992,-14,-9,-4
1129,28,20,1013,-16,-25,-8
1130,140,13,1009,-16,-19,-7
1131,174,22,995,-12,-1,-5
1132,86,41,998,-13,20,-1
1133,-70,56,1003,-13,27,4
1134,-168,44,990,-15,15,2
1135,-151,32,979,-16,-5,-3
1136,-18,22,1005,-17,-25,-6
1137,109,11,1011,-17,-22,-8
1138,183,21,1008,-14,-8,-7
1139,115,42,1003,-11,14,0
1140,-25,46,1007,-14,28,2
1141,-149,48,974,-14,20,2
1142,-162,38,979,-16,0,-1
1143,-64,20,1007,-17,-20,-5
1144,81,9,1008,-17,-25,-8
1145,182,23,1002,-13,-13,-7
1146,140,32,1001,-12,10,-1
1147,18,48,1006,-11,25,2
1148,-124,52,982,-15,24,3
1149,-173,43,996,-13,7,0
1150,-105,19,989,-16,-15,-4
1151,51,13,999,-16,-26,-8
1152,164,14,1003,-14,-17,-8
1153,159,24,1008,-13,5,-4
1154,59,48,1000,-13,21,0
1155,-94,56,992,-13,27,4
1156,-169,43,984,-17,12,0
1157,-140,24,981,-17,-7,-4
1158,13,21,1017,-18,-24,-7
1159,134,5,1012,-18,-20,-7
1160,176,20,1000,-14,-2,-5
1161,95,39,991,-11,18,-1
1162,-60,56,1000,-12,26,3
1163,-161,42,992,-13,15,1
1164,-155,37,978,-16,-3,-2
1165,-27,21,1004,-18,-22,-7
1166,101,4,1006,-15,-22,-8
1167,183,22,1001,-15,-9,-5
1168,123,36,1004,-14,13,0
1169,-17,47,1013,-10,25,2
1170,-144,51,974,-12,20,0
1171,-162,44,978,-14,2,-2
1172,-75,16,1001,-17,-18,-6
1173,77,11,1007,-16,-25,-8
1174,176,15,1004,-15,-14,-8
1175,142,30,999,-11,9,-3
1176,27,43,1005,-13,26,2
1177,-118,57,985,-14,25,2
1178,-170,44,992,-16,9,1
1179,-111,20,991,-17,-14,-5
1180,46,15,1004,-16,-26,-7
1181,154,16,998,-14,-18,-8
1182,164,20,1002,-14,3,-3
1183,62,43,1004,-11,22,0
1184,-85,58,995,-13,26,3
1185,-165,41,984,-14,12,0
1186,-144,31,979,-16,-9,-2
1187,6,22,1007,-17,-26,-7
1188,122,11,1016,-16,-21,-7
1189,181,16,1005,-14,-5,-6
1190,98,43,990,-11,17,-1
1191,-47,48,1000,-12,26,3
1192,-159,44,987,-13,18,2
1193,-158,38,984,-16,-2,-1
1194,-37,19,1004,-17,-22,-6
1195,100,8,1007,-16,-24,-7
1196,180,21,997,-14,-10,-5
1197,126,40,1007,-14,13,-1
1198,-13,46,1014,-13,25,2
1199,-140,48,976,-13,22,2
1200,-166,42,983,-15,5,1
1201,-85,17,994,-17,-17,-6
1202,75,11,1006,-16,-26,-8
1203,172,17,1008,-13,-16,-7
1204,145,33,1002,-13,7,-2
1205,37,41,1005,-12,23,0
1206,-112,54,987,-14,24,3
1207,-174,45,985,-14,9,0
1208,-126,19,996,-18,-13,-5
1209,40,17,1011,-18,-25,-7
1210,152,13,1000,-17,-18,-6
1211,172,21,994,-14,0,-3
1212,72,44,1001,-10,21,0
1213,-78,58,999,-14,28,3
1214,-170,43,986,-16,14,1
1215,-149,30,976,-15,-6,-3
1216,-4,20,1002,-16,-22,-8
1217,116,4,1015,-16,-21,-7
1218,180,21,1009,-14,-6,-3
1219,111,40,995,-12,16,-1
1220,-40,51,999,-11,27,3
1221,-151,45,980,-14,19,2
1222,-161,44,984,-15,1,-1
1223,-51,19,1004,-17,-21,-6
1224,89,9,1007,-18,-24,-8
1225,183,17,1002,-14,-13,-7
1226,131,36,998,-13,12,-2
1227,2,45,1013,-12,25,2
1228,-133,51,981,-12,24,3
1229,-168,46,993,-15,6,0
1230,-95,20,987,-16,-16,-5
1231,61,11,1005,-16,-26,-8
1232,167,15,1006,-15,-19,-9
1233,154,26,1005,-12,5,-3
1234,48,44,1003,-11,22,0
1235,-100,58,987,-11,26,4
1236,-169,43,984,-14,11,0
1237,-132,26,988,-17,-11,-4
1238,26,20,1018,-15,-25,-7
1239,141,10,1003,-16,-21,-9
1240,173,17,997,-12,-2,-5
1241,88,43,996,-11,17,-1
1242,-66,51,1003,-12,27,3
1243,-163,45,990,-14,16,1
1244,-151,34,977,-15,-4,-1
1245,-15,22,1003,-16,-23,-7
1246,107,8,1011,-17,-21,-8
1247,179,24,1004,-15,-7,-7
1248,117,35,1004,-14,14,-2
1249,-27,46,1008,-10,28,2
1250,-146,46,972,-12,21,2
1251,-159,43,981,-13,1,-1
1252,-66,20,1005,-16,-18,-5
1253,80,11,1007,-17,-24,-9
1254,177,18,1002,-15,-13,-7
1255,135,34,999,-14,8,-1
1256,16,42,1005,-11,25,1
1257,-123,55,986,-13,25,2
1258,-170,45,998,-16,6,0
1259,-105,22,989,-15,-13,-4
1260,51,14,1002,-18,-24,-7
1261,157,14,1004,-15,-17,-9
1262,163,22,1004,-13,4,-3
1263,51,45,1005,-11,22,1
1264,-90,58,987,-12,25,3
1265,-168,39,988,-14,12,0
1266,-138,28,978,-15,-8,-4
1267,13,22,1012,-16,-25,-8
1268,130,9,1014,-16,-21,-9
1269,173,18,1000,-13,-2,-4
1270,97,42,988,-10,19,-1
1271,-55,49,1003,-12,27,4
1272,-163,46,986,-13,16,2
1273,-154,34,982,-18,-3,-1
1274,-32,20,1002,-17,-21,-6
1275,101,8,1006,-16,-24,-8
1276,186,20,998,-13,-10,-7
1277,117,40,1007,-12,14,-1
1278,-11,47,1013,-12,25,2
1279,-142,45,978,-13,21,2
1280,-164,47,978,-16,3,0
1281,-79,17,1000,-17,-17,-6
1282,73,10,1008,-17,-26,-9
1283,172,18,1002,-16,-15,-7
1284,146,31,1002,-14,9,-2
1285,26,40,1004,-11,25,1
1286,-114,59,982,-12,25,2
1287,-170,41,993,-15,8,-1
1288,-118,24,994,-17,-13,-4
1289,42,16,1007,-17,-26,-7
1290,153,13,999,-15,-17,-7
1291,167,20,999,-13,2,-3
1292,68,44,1001,-11,20,0
1293,-81,55,999,-13,26,3
1294,-170,43,987,-13,13,2
1295,-147,32,978,-15,-6,-2
1296,4,19,1005,-16,-25,-6
1297,119,6,1015,-16,-21,-8
1298,179,21,1007,-15,-4,-6
1299,105,41,997,-11,17,-1
1300,-38,51,996,-12,28,2
1301,-156,45,982,-12,19,0
1302,-155,38,982,-16,0,-2
1303,-47,16,1005,-17,-20,-5
1304,91,7,1002,-15,-24,-7
1305,182,18,1004,-14,-11,-7
1306,129,37,1002,-11,12,-2
1307,-1,44,1008,-12,25,1
1308,-135,53,982,-11,23,2
1309,-169,42,987,-14,6,-1
1310,-89,20,989,-14,-16,-5
1311,63,9,1003,-18,-25,-7
1312,170,17,1010,-14,-16,-8
1313,153,25,1004,-14,5,-3
1314,41,45,1003,-12,23,1
1315,-107,58,986,-12,26,3
1316,-167,41,987,-14,9,0
1317,-133,25,988,-15,-10,-3
1318,32,18,1020,-17,-25,-7
1319,143,12,1006,-16,-21,-9
1320,168,21,991,-11,-1,-5
1321,85,45,999,-10,20,0
1322,-70,54,1005,-14,27,4
1323,-166,44,986,-14,16,1
1324,-148,32,979,-17,-5,-2
1325,-16,19,1008,-16,-22,-5
1326,110,7,1005,-18,-22,-7
1327,181,22,1009,-14,-9,-6
1328,112,40,1001,-12,13,-1
1329,-29,45,1008,-13,27,3
1330,-150,50,974,-13,21,3
1331,-162,41,983,-14,1,-1
1332,-61,16,1003,-17,-17,-7
1333,79,9,1010,-17,-23,-7
1334,181,15,998,-14,-13,-7
1335,137,31,1001,-14,10,-1
1336,16,46,1006,-11,25,2
1337,-124,59,983,-13,25,1
1338,-168,42,995,-16,8,0
1339,-107,21,990,-17,-13,-4
1340,53,13,1002,-18,-25,-7
1341,162,15,1004,-15,-15,-9
1342,160,22,1005,-14,4,-3
1343,57,43,1004,-11,23,1
1344,-92,57,991,-12,28,3
1345,-167,44,985,-13,12,0
1346,-139,28,986,-14,-8,-3
1347,13,19,1007,-17,-24,-7
1348,127,7,1016,-16,-19,-8
1349,178,16,1003,-13,-2,-5
1350,94,44,990,-11,18,0
1351,-53,52,998,-11,28,2
1352,-163,47,988,-15,19,2
1353,-154,38,980,-19,-1,-3
1354,-35,15,1003,-26,-19,-2
1355,99,6,1005,-22,-24,-8
1356,182,19,998,-14,-9,-6
1357,125,40,1006,-13,15,-3
1358,-10,49,1014,-11,27,3
1359,-141,56,975,-15,22,3
1360,-165,43,981,-16,4,-1
1361,-82,18,996,-16,-16,-5
1362,69,6,1003,-18,-24,-7
1363,174,13,1008,-15,-15,-8
1364,146,31,1002,-11,7,-2
1365,36,46,1001,-10,25,0
1366,-114,63,988,-10,26,3
1367,-173,49,988,-16,9,0
1368,-123,24,991,-19,-12,-4
1369,41,17,1013,-16,-25,-8
1370,148,9,998,-16,-18,-8
1371,168,17,995,-11,1,-4
1372,72,42,1001,-11,21,0
1373,-81,57,1002,-12,28,4
1374,-162,45,985,-15,14,1
1375,-147,34,976,-17,-5,-2
1376,-4,18,1008,-19,-24,-7
1377,115,6,1013,-18,-22,-8
1378,178,18,1007,-12,-5,-5
1379,106,40,999,-13,17,-2
1380,-38,54,1002,-11,28,3
1381,-154,45,976,-13,20,1
1382,-158,43,983,-15,1,-1
1383,-52,15,1007,-18,-19,-6
1384,87,2,1004,-17,-24,-8
1385,180,18,1004,-13,-11,-6
1386,126,33,1001,-12,13,-1
1387,6,45,1006,-12,24,1
1388,-131,54,987,-13,23,3
1389,-166,44,991,-16,6,0
1390,-98,19,988,-17,-14,-5
1391,62,11,1003,-16,-25,-8
1392,161,11,1002,-15,-16,-7
1393,156,26,1003,-12,6,-3
1394,45,43,1004,-11,23,0
1395,-100,62,986,-12,26,4
1396,-164,43,985,-16,10,1
1397,-135,26,985,-15,-9,-4
1398,26,18,1014,-17,-25,-8
1399,133,9,1013,-17,-19,-7
1400,174,18,1000,-12,-1,-4
1401,88,43,992,-11,20,-1
1402,-62,53,1002,-12,28,3
1403,-163,44,989,-14,16,1
1404,-150,38,982,-17,-4,-2
1405,-20,18,1005,-16,-23,-6
1406,102,7,1007,-16,-23,-8
1407,179,21,1003,-14,-9,-6
1408,115,39,1006,-12,13,-1
1409,-21,47,1014,-12,27,2
1410,-143,51,977,-13,20,1
1411,-158,44,979,-16,2,0
1412,-70,20,1001,-18,-17,-5
1413,78,8,1011,-18,-24,-7
1414,170,17,1003,-14,-13,-8
1415,139,27,998,-12,9,-4
1416,24,43,1006,-11,24,1
1417,-120,61,982,-13,24,2
1418,-167,43,991,-14,8,0
1419,-114,21,994,-17,-12,-4
1420,47,15,1007,-16,-24,-8
1421,150,11,997,-16,-18,-7
1422,162,19,999,-13,2,-4
1423,60,44,999,-10,20,0
1424,-86,62,997,-13,26,4
1425,-164,40,983,-15,12,0
1426,-140,29,978,-15,-7,-3
1427,8,20,1005,-19,-24,-7
1428,117,4,1015,-17,-22,-8
1429,179,18,1007,-14,-5,-5
1430,96,42,996,-11,17,-1
1431,-42,51,996,-12,25,2
1432,-157,48,981,-14,17,1
1433,-152,41,983,-16,-1,-1
1434,-40,19,1004,-18,-21,-6
1435,92,6,1005,-16,-23,-9
1436,178,19,1001,-15,-10,-7
1437,126,35,1000,-13,13,-3
1438,-4,48,1012,-14,24,2
1439,-135,52,981,-13,22,2
1440,-163,45,989,-15,5,-1
1441,-90,17,989,-17,-16,-5
1442,65,13,1002,-17,-25,-8
1443,162,14,1009,-16,-16,-7
1444,148,26,1003,-11,6,-3
1445,44,43,1000,-12,23,-1
1446,-104,58,985,-13,26,4
1447,-163,46,986,-13,10,0
1448,-129,25,990,-18,-9,-4
1449,27,19,1016,-17,-24,-7
1450,138,6,1005,-17,-19,-8
1451,166,20,997,-13,0,-4
1452,82,42,993,-10,19,0
1453,-68,57,1002,-15,26,3
1454,-161,45,992,-14,15,1
1455,-147,35,976,-18,-5,-1
1456,-12,19,1006,-18,-22,-7
1457,108,6,1009,-15,-22,-9
1458,175,16,1003,-14,-8,-6
1459,112,38,1004,-13,15,-1
1460,-25,47,1011,-11,27,2
1461,-148,53,970,-11,20,1
1462,-154,46,982,-15,1,-1
1463,-67,18,1004,-18,-19,-5
1464,81,9,1010,-17,-24,-7
1465,179,15,1000,-15,-12,-6
1466,131,30,999,-12,12,-1
1467,22,45,1007,-10,24,0
1468,-128,58,986,-15,24,4
1469,-168,50,989,-15,6,0
1470,-103,20,995,-18,-14,-5
1471,50,15,1003,-17,-24,-8
1472,160,13,997,-14,-17,-7
1473,158,16,1007,-16,3,-4
1474,52,46,1002,-11,21,0
1475,-91,60,991,-11,26,2
1476,-162,43,989,-16,12,-1
1477,-138,34,979,-15,-7,-2
1478,16,20,1009,-17,-23,-7
1479,125,4,1018,-18,-19,-7
1480,173,18,1000,-14,-4,-4
1481,94,40,993,-11,17,-1
1482,-55,53,997,-11,27,4
1483,-156,46,987,-12,16,1
1484,-153,40,983,-15,-1,-3
1485,-34,18,1006,-17,-22,-7
1486,97,6,1003,-17,-24,-9
1487,178,20,1001,-14,-9,-6
1488,118,37,1000,-13,13,-1
1489,-9,44,1013,-13,26,2
1490,-135,50,980,-13,22,2
1491,-165,44,978,-14,3,0
1492,-77,17,995,-18,-17,-6
1493,69,9,1008,-19,-25,-8
1494,167,19,1005,-15,-17,-8
1495,144,29,1000,-13,7,-4
1496,33,45,1004,-11,23,-1
1497,-112,59,983,-12,24,3
1498,-167,43,985,-14,8,1
1499,-120,20,1001,-16,-12,-3
1500,37,17,1010,-17,-25,-7
1501,147,9,1002,-15,-20,-9
1502,165,21,999,-12,0,-4
1503,68,42,999,-10,20,0
1504,-79,58,1004,-13,27,2
1505,-164,43,991,-17,15,2
1506,-143,31,974,-17,-5,-2
1507,-2,20,1005,-17,-23,-8
1508,114,5,1017,-17,-22,-8
1509,177,20,1008,-15,-6,-5
1510,105,43,1000,-10,15,-1
1511,-34,51,1004,-11,27,1
1512,-154,49,976,-12,19,2
1513,-157,41,983,-15,-1,-1
1514,-53,18,1009,-16,-19,-6
1515,89,5,1006,-16,-24,-6
1516,178,17,998,-14,-12,-7
1517,130,36,1005,-11,11,-1
1518,3,48,1005,-10,24,1
1519,-130,54,986,-13,23,2
1520,-165,48,989,-16,6,0
1521,-96,15,991,-19,-15,-6
1522,64,9,1000,-16,-26,-9
1523,162,13,1007,-15,-16,-8
1524,153,24,1003,-14,6,-3
1525,46,42,1004,-10,22,0
1526,-102,63,983,-11,25,3
1527,-166,42,986,-14,10,1
1528,-132,26,984,-16,-8,-3
1529,27,18,1018,-18,-25,-7
1530,138,9,1008,-15,-20,-7
1531,172,19,998,-13,-2,-4
1532,86,40,995,-11,19,-1
1533,-64,56,999,-10,27,3
1534,-163,48,991,-14,15,1
1535,-152,35,979,-16,-4,-1
1536,-18,16,1004,-18,-23,-6
1537,106,5,1008,-18,-22,-7
1538,176,19,1002,-13,-8,-7
1539,115,41,1006,-12,13,-2
1540,-21,50,1006,-11,26,2
1541,-145,52,975,-13,19,1
1542,-159,43,977,-15,2,-1
1543,-70,18,1001,-17,-18,-5
1544,80,6,1009,-17,-24,-7
1545,176,16,1002,-15,-13,-6
1546,138,32,996,-11,9,-3
1547,21,42,1008,-12,24,1
1548,-123,61,984,-14,24,3
1549,-167,47,993,-17,7,0
1550,-110,21,993,-18,-15,-4
1551,49,14,1003,-17,-25,-7
1552,158,8,1000,-15,-16,-8
1553,160,21,1001,-13,4,-3
1554,59,40,1002,-11,22,1
1555,-91,60,995,-11,26,3
1556,-166,43,986,-15,11,0
1557,-138,31,980,-16,-7,-3
1558,10,20,1008,-17,-24,-7
1559,123,6,1015,-17,-20,-8
1560,176,16,1006,-13,-4,-5
1561,95,42,989,-13,17,0
1562,-49,55,998,-12,27,3
1563,-158,43,986,-13,18,1
1564,-156,40,986,-15,-1,-2
1565,-31,18,1003,-18,-22,-7
1566,95,4,1007,-17,-23,-7
1567,179,17,999,-13,-10,-6
1568,121,39,1005,-12,13,-2
1569,-13,48,1014,-11,26,1
1570,-138,53,978,-15,21,3
1571,-161,46,985,-14,3,-1
1572,-78,16,992,-17,-18,-5
1573,70,9,1009,-17,-25,-8
1574,167,14,1006,-14,-16,-5
1575,146,24,1002,-12,7,-2
1576,34,43,1003,-12,24,1
1577,-110,62,980,-11,25,4
1578,-165,48,987,-13,8,1
1579,-123,22,994,-17,-13,-4
1580,38,15,1008,-17,-25,-7
1581,146,10,1001,-17,-17,-7
1582,163,16,997,-13,0,-5
1583,73,43,1001,-11,20,-1
1584,-78,60,997,-14,27,4
1585,-162,44,989,-14,14,0
1586,-145,36,973,-13,-6,-3
1587,-3,17,1004,-17,-23,-6
1588,114,7,1014,-15,-22,-8
1589,174,17,1007,-15,-6,-5
1590,109,40,998,-11,16,-2
1591,-42,51,1002,-10,25,3
1592,-151,53,974,-12,18,1
1593,-153,43,986,-14,-1,-1
1594,-55,20,1004,-18,-20,-6
1595,87,5,1006,-18,-24,-8
1596,182,15,1002,-14,-10,-8
1597,129,37,1001,-14,12,-2
1598,4,47,1009,-9,24,2
1599,-131,57,987,-14,22,3
1600,-166,47,990,-16,6,-1
1601,-93,18,990,-18,-16,-6
1602,63,7,1003,-17,-25,-7
1603,165,17,1004,-15,-17,-8
1604,150,25,1007,-13,5,-4
1605,46,46,1004,-11,24,1
1606,-104,61,984,-14,25,3
1607,-168,43,985,-14,10,-1
1608,-135,22,992,-16,-9,-3
1609,26,15,1012,-17,-25,-7
1610,138,6,1010,-16,-18,-7
1611,175,18,996,-13,-1,-5
1612,85,46,994,-11,20,0
1613,-66,57,1000,-12,27,4
1614,-164,47,991,-14,15,1
1615,-151,37,976,-17,-5,-3
1616,-15,15,1006,-18,-23,-6
1617,107,5,1009,-18,-22,-8
1618,180,14,1004,-14,-8,-6
1619,115,40,1005,-12,15,-3
1620,-29,51,1007,-10,26,3
1621,-148,53,973,-13,20,2
1622,-158,44,982,-16,1,-1
1623,-64,16,1003,-18,-20,-5
1624,83,2,1009,-18,-25,-8
1625,176,13,1001,-16,-14,-6
1626,136,33,999,-10,9,-1
1627,17,44,1007,-12,25,1
1628,-127,59,984,-13,24,2
1629,-167,45,993,-15,6,-1
1630,-103,18,992,-20,-14,-4
1631,53,13,999,-17,-25,-8
1632,156,13,1000,-14,-17,-7
1633,159,21,1007,-13,4,-4
1634,52,44,1002,-9,21,0
1635,-92,58,987,-13,25,2
1636,-164,43,988,-15,11,0
1637,-141,31,982,-15,-8,-3
1638,16,17,1010,-20,-25,-8
1639,127,7,1015,-15,-20,-8
1640,175,19,999,-16,-3,-4
1641,93,41,991,-11,18,-1
1642,-59,52,1002,-14,26,3
1643,-162,47,986,-14,16,1
1644,-152,40,985,-16,-3,-1
1645,-30,20,1003,-18,-22,-6
1646,100,6,1005,-16,-22,-9
1647,183,20,1001,-14,-10,-6
1648,117,38,1005,-15,13,0
1649,-11,49,1013,-13,26,1
1650,-146,46,974,-14,21,1
1651,-161,46,978,-16,2,-1
1652,-75,13,1000,-19,-18,-6
1653,75,9,1012,-16,-25,-7
1654,176,15,1002,-16,-16,-7
1655,140,30,1003,-11,7,-3
1656,26,44,1005,-11,23,0
1657,-121,60,985,-12,25,2
1658,-165,48,991,-14,7,-1
1659,-117,18,994,-16,-13,-5
1660,51,15,1003,-15,-25,-8
1661,159,9,1000,-15,-17,-6
1662,165,23,1001,-13,3,-4
1663,63,45,1002,-11,21,1
1664,-85,61,997,-12,26,3
1665,-167,45,985,-16,13,1
1666,-142,32,977,-16,-7,-3
1667,9,18,1006,-17,-24,-7
1668,122,3,1017,-19,-21,-9
1669,178,20,1005,-14,-4,-5
1670,97,42,992,-11,17,-1
1671,-51,55,997,-11,27,3
1672,-157,47,986,-14,17,1
1673,-156,41,983,-17,-1,-1
1674,-35,18,1003,-19,-23,-5
1675,96,3,1005,-16,-22,-8
1676,179,17,1000,-14,-10,-6
1677,121,39,1003,-11,13,-1
1678,-10,48,1016,-13,26,2
1679,-139,51,978,-12,21,3
1680,-163,46,978,-15,3,-1
1681,-79,15,996,-17,-17,-6
1682,67,7,1008,-16,-25,-8
1683,173,17,1003,-15,-16,-8
1684,144,30,1002,-12,7,-3
1685,33,46,1004,-12,23,0
1686,-112,57,982,-12,25,3
1687,-170,48,989,-13,7,0
1688,-122,22,998,-17,-8,-1
1689,43,17,1006,-21,-24,-7
1690,150,11,1001,-14,-18,-7
1691,167,17,1000,-15,2,-3
1692,67,41,1003,-12,21,1
1693,-84,57,998,-12,26,3
1694,-168,43,990,-16,14,1
1695,-147,31,976,-15,-5,-3
1696,1,19,1004,-16,-25,-6
1697,119,10,1018,-17,-23,-7
1698,178,17,1011,-12,-6,-6
1699,108,43,993,-11,16,-1
1700,-43,54,1001,-11,26,2
1701,-153,48,983,-14,18,1
1702,-158,39,983,-17,0,-1
1703,-43,16,1005,-18,-21,-6
1704,93,4,1008,-16,-23,-8
1705,180,20,1000,-14,-10,-7
1706,124,37,1000,-13,13,-2
1707,-5,48,1015,-11,25,2
1708,-134,53,980,-10,21,4
1709,-165,48,982,-14,4,0
1710,-86,19,993,-15,-15,-6
1711,66,11,1007,-17,-25,-8
1712,169,17,1003,-13,-16,-7
1713,150,25,1003,-12,7,-3
1714,39,44,1002,-11,22,2
1715,-107,57,981,-11,25,3
1716,-170,45,989,-15,9,1
1717,-126,23,993,-17,-12,-4
1718,36,18,1010,-17,-24,-7
1719,145,11,1002,-17,-19,-7
1720,168,20,996,-12,1,-4
1721,76,41,1001,-11,20,-1
1722,-77,58,1000,-14,27,3
1723,-166,42,988,-13,15,2
1724,-144,34,977,-17,-7,-2
1725,-4,18,1002,-18,-22,-6
1726,114,8,1016,-14,-21,-8
1727,176,14,1011,-15,-6,-5
1728,108,42,996,-10,16,1
1729,-33,51,997,-12,26,3
1730,-154,48,981,-14,20,1
1731,-154,44,983,-16,-1,-1
1732,-51,17,1003,-18,-20,-6
1733,83,6,1008,-18,-23,-8
1734,180,15,1001,-14,-11,-7
1735,128,34,1001,-11,11,-2
1736,2,47,1007,-11,25,2
1737,-131,56,987,-13,23,2
1738,-166,46,985,-15,5,0
1739,-93,20,991,-17,-15,-5
1740,64,10,1005,-17,-25,-8
1741,162,12,1006,-14,-17,-7
1742,151,24,1003,-13,5,-2
1743,40,41,1004,-11,22,0
1744,-100,57,987,-11,24,3
1745,-170,46,984,-16,10,1
1746,-129,26,993,-18,-10,-5
1747,30,18,1016,-17,-24,-7
1748,141,12,996,-15,-20,-9
1749,172,17,998,-13,-1,-4
1750,79,42,996,-12,20,0
1751,-69,55,1001,-11,26,4
1752,-161,42,989,-14,15,2
1753,-152,29,975,-16,-5,-1
1754,-12,19,1001,-14,-22,-6
1755,111,5,1014,-15,-21,-8
1756,180,19,1011,-13,-8,-5
1757,112,40,995,-11,14,-2
1758,-31,55,1003,-12,26,2
1759,-152,44,974,-15,19,2
1760,-164,43,981,-14,0,-1
1761,-54,14,1003,-18,-20,-6
1762,83,3,1007,-17,-23,-8
1763,180,15,1000,-15,-13,-7
1764,134,34,1001,-11,10,-3
1765,4,53,1007,-11,24,2
1766,-128,54,985,-15,22,1
1767,-172,50,989,-14,7,1
1768,-96,17,985,-20,-16,-4
1769,64,7,1003,-16,-25,-8
1770,164,10,1009,-16,-16,-7
1771,155,27,1001,-14,6,-2
1772,48,48,1006,-11,23,0
1773,-105,64,985,-12,26,3
1774,-166,47,984,-15,10,0
1775,-134,26,994,-17,-10,-3
1776,27,15,1014,-21,-26,-5
1777,143,6,1004,-15,-21,-9
1778,172,14,994,-12,-2,-5
1779,85,42,996,-11,19,0
1780,-68,57,1000,-12,28,2
1781,-165,47,989,-15,15,0
1782,-150,37,975,-17,-5,-3
1783,-13,20,1004,-17,-22,-6
1784,107,6,1011,-17,-22,-8
1785,180,16,1008,-14,-8,-7
1786,112,37,1000,-11,15,-2
1787,-29,50,1002,-11,27,3
1788,-147,49,977,-13,18,0
1789,-161,43,980,-14,2,-2
1790,-61,20,1008,-18,-19,-5
1791,81,4,1009,-17,-24,-9
1792,178,15,1002,-15,-12,-6
1793,135,32,994,-13,10,-1
1794,9,45,1010,-11,25,3
1795,-128,56,987,-13,22,3
1796,-167,42,986,-15,6,-1
1797,-97,24,992,-16,-15,-5
1798,58,11,1003,-19,-25,-7
1799,166,14,1003,-13,-15,-9
1800,157,22,1008,-14,7,-2
1801,48,47,1005,-13,23,0
1802,-95,58,983,-12,26,3
1803,-168,44,988,-15,11,2
1804,-137,25,990,-17,-9,-2
1805,26,14,1016,-16,-25,-7
1806,139,10,1006,-16,-21,-8
1807,170,18,995,-13,-1,-3
1808,84,49,993,-12,19,0
1809,-67,55,1003,-12,26,4
1810,-167,47,986,-14,15,2
1811,-150,29,977,-18,-4,-3
1812,-17,17,1002,-17,-22,-6
1813,111,6,1009,-17,-23,-9
1814,181,19,1005,-13,-8,-5
1815,114,42,1002,-12,16,-1
1816,-29,51,1003,-13,28,2
1817,-152,50,975,-13,22,2
1818,-159,39,978,-17,2,-2
1819,-64,15,1009,-18,-21,-7
1820,86,4,1007,-16,-25,-8
1821,178,18,1003,-13,-13,-8
1822,139,35,999,-10,11,-2
1823,9,51,1008,-10,26,3
1824,-130,55,983,-14,22,3
1825,-168,47,991,-15,6,0
1826,-102,18,991,-18,-15,-3
1827,57,11,999,-17,-25,-8
1828,167,8,1008,-15,-17,-8
1829,158,24,1007,-12,5,-2
1830,50,47,1002,-11,22,1
1831,-99,63,987,-12,26,3
1832,-172,48,984,-17,11,0
1833,-133,24,986,-16,-9,-4
1834,19,16,1016,-18,-26,-7
1835,141,5,1006,-17,-21,-8
1836,176,15,996,-12,-2,-5
1837,87,41,992,-12,19,-1
1838,-63,58,1003,-13,26,3
1839,-165,47,990,-12,14,0
1840,-152,38,974,-17,-5,-3
1841,-14,21,1005,-16,-23,-8
1842,106,4,1009,-18,-23,-8
1843,184,20,1007,-15,-9,-5
1844,114,38,1002,-11,15,0
1845,-25,49,1006,-13,26,2
1846,-149,46,977,-13,21,1
1847,-162,44,978,-13,2,-1
1848,-63,21,1006,-19,-19,-5
1849,81,7,1010,-15,-24,-6
1850,180,18,1001,-15,-13,-7
1851,138,29,1000,-13,10,-3
1852,12,46,1009,-11,25,0
1853,-130,55,986,-13,24,3
1854,-168,48,991,-14,7,-1
1855,-104,21,990,-18,-15,-5
1856,57,13,999,-17,-26,-7
1857,159,11,1007,-14,-16,-7
1858,154,23,1006,-13,5,-3
1859,50,38,1004,-11,21,0
1860,-101,57,986,-10,26,3
1861,-172,43,982,-13,11,2
1862,-133,28,991,-15,-11,-4
1863,24,23,1012,-17,-25,-7
1864,143,12,1010,-17,-20,-8
1865,171,13,995,-13,0,-5
1866,85,41,992,-10,20,-1
1867,-65,48,1000,-14,28,2
1868,-170,47,993,-13,16,2
1869,-149,34,973,-15,-5,-3
1870,-15,22,1004,-16,-24,-7
1871,106,12,1012,-16,-23,-8
1872,183,20,1006,-14,-9,-7
1873,113,43,1001,-11,14,-1
1874,-28,50,1007,-13,26,4
1875,-148,47,976,-14,20,2
1876,-159,40,981,-14,1,1
1877,-63,19,1004,-17,-20,-6
1878,81,4,1012,-17,-25,-8
1879,179,18,1001,-14,-14,-6
1880,135,34,997,-11,10,-2
1881,10,45,1012,-11,25,1
1882,-126,54,981,-14,24,3
1883,-171,47,993,-15,6,0
1884,-100,19,987,-18,-15,-6
1885,55,10,1002,-16,-25,-6
1886,163,13,1004,-15,-17,-7
1887,154,20,1004,-13,5,-2
1888,52,45,1006,-11,21,1
1889,-99,59,982,-12,25,4
1890,-168,47,984,-13,11,-1
1891,-135,24,989,-17,-9,-2
1892,23,19,1015,-16,-24,-7
1893,139,5,1003,-16,-19,-8
1894,172,14,998,-11,-1,-4
1895,89,44,993,-11,19,0
1896,-63,56,1000,-12,27,3
1897,-164,46,991,-13,15,1
1898,-151,35,974,-16,-5,-2
1899,-18,20,1003,-17,-21,-6
1900,108,6,1012,-17,-21,-9
1901,180,19,1007,-13,-8,-6
1902,117,38,1003,-12,15,-2
1903,-27,49,1005,-11,27,2
1904,-150,49,977,-12,21,1
1905,-162,42,977,-16,2,-2
1906,-65,18,1006,-18,-19,-5
1907,81,8,1007,-16,-25,-9
1908,178,16,1000,-14,-13,-8
1909,135,33,1000,-11,10,-2
1910,16,47,1009,-12,24,2
1911,-128,55,986,-13,23,3
1912,-167,44,992,-16,6,0
1913,-98,17,989,-17,-15,-5
1914,56,12,999,-17,-24,-8
1915,165,16,1005,-14,-17,-7
1916,155,25,1006,-13,4,-4
1917,49,45,1001,-12,22,0
1918,-96,60,985,-12,26,3
1919,-167,42,984,-15,11,0
1920,-138,23,990,-17,-10,-3
1921,21,16,1012,-17,-24,-8
1922,136,4,1006,-16,-20,-8
1923,175,19,996,-9,-1,-5
1924,83,45,994,-11,20,-1
1925,-66,59,1000,-13,27,3
1926,-164,48,991,-15,15,2
1927,-151,32,975,-18,-5,-2
1928,-15,16,1003,-17,-23,-7
1929,108,5,1014,-16,-21,-8
1930,180,18,1003,-13,-7,-5
1931,111,41,1003,-12,14,0
1932,-28,53,1004,-12,26,2
1933,-151,46,976,-14,20,2
1934,-160,44,978,-15,0,-1
1935,-63,15,1009,-18,-21,-6
1936,84,6,1007,-15,-25,-9
1937,181,15,1000,-14,-13,-7
1938,140,36,1000,-10,11,-2
1939,8,46,1010,-12,24,1
1940,-128,59,985,-12,23,2
1941,-169,44,992,-16,6,0
1942,-102,18,985,-16,-15,-5
1943,60,9,1005,-17,-26,-7
1944,166,12,1005,-15,-17,-8
1945,155,23,1004,-13,6,-4
1946,52,47,1006,-10,22,0
1947,-103,61,984,-12,24,3
1948,-167,49,984,-14,11,-1
1949,-136,25,994,-18,-9,-3
1950,22,18,1013,-18,-24,-7
1951,142,6,1003,-17,-20,-8
1952,172,16,996,-12,-1,-5
1953,84,44,995,-10,19,-1
1954,-66,59,1005,-12,27,2
1955,-167,50,989,-16,13,1
1956,-153,33,974,-17,-5,-2
1957,-10,18,1004,-18,-24,-8
1958,107,6,1011,-17,-22,-8
1959,178,19,1008,-13,-8,-6
1960,114,41,1002,-12,13,-1
1961,-31,52,1002,-13,26,2
1962,-151,48,976,-13,19,1
1963,-158,42,981,-16,0,-1
1964,-62,17,1009,-19,-21,-6
1965,84,4,1003,-17,-25,-9
1966,181,17,1005,-15,-12,-7
1967,136,36,999,-12,10,-3
1968,5,48,1008,-11,25,2
1969,-126,53,986,-14,23,2
1970,-169,46,989,-15,5,1
1971,-97,18,985,-18,-15,-6
1972,59,6,1004,-17,-25,-8
1973,165,16,1010,-14,-17,-8
1974,154,24,1001,-13,5,-4
1975,46,45,1006,-12,23,2
1976,-104,60,983,-12,26,4
1977,-168,45,982,-13,10,0
1978,-134,26,995,-16,-10,-4
1979,29,19,1012,-19,-25,-8
1980,145,8,1003,-17,-20,-10
1981,170,17,992,-12,-1,-4
1982,82,44,1002,-10,20,0
1983,-71,58,1002,-14,27,4
1984,-165,46,987,-15,14,2
1985,-148,29,975,-15,-6,-3
1986,-13,22,1002,-17,-24,-7
1987,114,5,1014,-15,-22,-8
1988,178,20,1010,-14,-5,-6
1989,111,44,998,-13,13,-2
1990,-34,49,997,-13,26,3
1991,-154,47,980,-15,20,1
1992,-158,36,981,-16,-2,-1
1993,-53,15,1006,-17,-21,-6
1994,85,5,1003,-15,-25,-8
1995,181,20,1002,-13,-11,-7
1996,134,39,1004,-12,12,-3
1997,0,47,1012,-12,24,2
1998,-131,56,984,-15,22,2
1999,-171,42,985,-16,5,0
2000,-92,17,987,-19,-16,-5
2001,63,6,1005,-17,-25,-8
2002,167,19,1008,-14,-15,-8
2003,154,29,1002,-13,6,-3
2004,43,47,1003,-9,23,0
2005,-107,60,986,-13,26,3
2006,-174,44,985,-17,10,0
2007,-126,21,995,-19,-12,-5
2008,30,13,1010,-17,-25,-8
2009,150,8,1000,-16,-20,-9
2010,173,19,997,-11,-1,-4
2011,78,46,998,-9,20,-1
2012,-77,62,1004,-12,27,3
2013,-166,45,988,-17,14,1
2014,-148,30,971,-16,-6,-3
2015,-6,15,1004,-17,-24,-7
2016,115,6,1018,-16,-23,-8
2017,179,10,1008,-14,-6,-6
2018,112,42,995,-9,16,-1
2019,-40,55,997,-11,27,4
2020,-156,48,986,-15,18,0
2021,-161,41,979,-16,-1,-2
2022,-47,16,1004,-19,-21,-6
2023,90,1,1004,-16,-24,-8
2024,182,17,1001,-12,-11,-7
2025,129,38,1003,-13,12,-2
2026,-1,49,1017,-11,26,3
2027,-136,52,979,-12,22,2
2028,-169,43,981,-16,4,-1
2029,-86,20,991,-15,-16,-6
2030,63,7,1007,-13,-26,-8
2031,172,18,1005,-11,-16,-8
2032,146,29,1004,-16,7,-3
2033,37,43,1006,-9,24,0
2034,-109,59,981,-15,26,3
2035,-171,45,991,-15,9,1
2036,-127,23,991,-14,-11,-3
2037,38,16,1009,-21,-25,-7
2038,151,13,998,-12,-18,-7
2039,166,19,997,-15,1,-3
2040,75,45,1004,-10,20,-1
2041,-83,61,1001,-12,27,4
2042,-164,42,983,-17,14,-1
2043,-148,28,979,-15,-5,-3
2044,0,21,1003,-18,-25,-7
2045,120,4,1019,-20,-21,-8
2046,179,19,1006,-11,-4,-6
2047,104,44,996,-11,16,0
2048,-42,55,997,-13,26,2
2049,-160,42,985,-16,18,1
2050,-156,38,982,-15,-1,-2
2051,-43,16,1006,-17,-21,-6
2052,90,3,1002,-14,-23,-8
2053,183,16,1002,-15,-12,-7
2054,128,38,1005,-13,13,-1
2055,-6,51,1013,-12,26,1
2056,-138,52,984,-13,21,0
2057,-166,43,975,-16,4,1
2058,-82,17,995,-18,-17,-5
2059,67,4,1011,-18,-25,-8
2060,169,15,1005,-16,-15,-7
2061,151,25,1000,-14,7,-2
2062,30,43,1003,-10,25,1
2063,-109,63,984,-11,25,2
2064,-169,47,990,-15,9,0
2065,-123,25,996,-20,-14,-5
2066,41,11,1002,-18,-25,-6
2067,154,9,1001,-15,-19,-8
2068,170,18,998,-14,-1,-3
2069,69,44,1003,-9,21,0
2070,-84,59,998,-13,28,3
2071,-167,47,985,-14,13,1
2072,-146,31,981,-17,-7,-3
2073,1,20,1003,-17,-25,-7
2074,125,5,1019,-18,-22,-8
2075,179,13,1003,-14,-4,-6
2076,102,40,991,-11,17,-2
2077,-45,57,995,-11,26,2
2078,-161,46,990,-12,17,1
2079,-159,43,980,-16,-2,-1
2080,-38,19,1006,-17,-21,-6
2081,94,8,1006,-16,-24,-8
2082,182,16,1001,-12,-11,-6
2083,124,39,1006,-12,11,-1
2084,-11,46,1015,-12,26,2
2085,-138,52,976,-12,21,2
2086,-167,43,979,-16,3,-1
2087,-84,18,997,-16,-17,-6
2088,73,6,1010,-18,-24,-9
2089,174,17,1004,-14,-15,-8
2090,145,29,999,-12,7,-3
2091,32,44,1005,-11,24,-1
2092,-116,57,986,-12,25,3
2093,-174,48,989,-17,8,0
2094,-116,18,995,-18,-14,-5
2095,43,9,999,-16,-26,-7
2096,153,10,997,-15,-19,-7
2097,169,16,1002,-13,0,-4
2098,66,46,1004,-9,21,1
2099,-85,62,990,-14,26,5
2100,-167,45,988,-16,13,1
2101,-144,28,977,-17,-8,-4
2102,3,22,1011,-19,-24,-7
2103,127,4,1015,-16,-21,-9
2104,180,15,1005,-14,-3,-5
2105,105,42,987,-11,17,0
2106,-52,57,1002,-11,27,4
2107,-155,51,988,-15,17,1
2108,-159,37,983,-17,-1,-1
2109,-33,18,1007,-17,-23,-6
2110,98,7,1005,-17,-23,-8
2111,185,20,1000,-11,-10,-7
2112,121,39,1008,-11,14,0
2113,-11,55,1014,-12,25,1
2114,-141,50,979,-14,19,3
2115,-164,47,976,-15,1,-1
2116,-77,16,1000,-17,-19,-5
2117,72,4,1009,-19,-26,-9
2118,173,17,1005,-15,-15,-7
2119,145,33,997,-11,7,-2
2120,27,43,1006,-11,23,1
2121,-119,63,985,-13,25,2
2122,-175,46,992,-17,7,0
2123,-114,22,992,-18,-13,-4
2124,44,13,1001,-18,-25,-8
2125,156,12,998,-14,-17,-9
2126,163,17,1004,-15,4,-3
2127,60,43,1003,-10,21,1
2128,-88,58,989,-11,26,3
2129,-171,45,984,-15,13,1
2130,-144,29,982,-17,-8,-5
2131,10,16,1008,-18,-26,-8
2132,123,9,1014,-15,-22,-8
2133,182,10,1001,-13,-4,-6
2134,99,42,991,-11,19,0
2135,-54,55,998,-12,28,3
2136,-159,45,996,-12,16,0
2137,-160,35,979,-15,-1,-1
2138,-29,17,1001,-16,-22,-7
2139,99,1,1012,-17,-23,-8
2140,181,20,1002,-12,-11,-6
2141,123,37,1007,-13,13,-2
2142,-17,47,1015,-11,27,3
2143,-143,50,974,-13,20,2
2144,-162,46,978,-15,2,-1
2145,-76,20,1003,-17,-19,-5
2146,74,8,1011,-17,-26,-8
2147,177,14,1000,-17,-16,-6
2148,144,31,998,-13,9,-2
2149,28,46,1006,-9,25,0
2150,-125,55,985,-12,24,3
2151,-167,49,991,-16,7,-1
2152,-112,19,995,-17,-12,-4
2153,52,17,996,-17,-26,-7
2154,162,11,1005,-17,-18,-7
2155,166,25,1006,-15,3,-5
2156,56,39,1004,-10,21,-1
2157,-93,60,987,-10,25,2
2158,-169,42,984,-15,12,2
2159,-144,29,984,-15,-8,-3
2160,15,21,1012,-18,-26,-8
2161,133,10,1010,-16,-21,-8
2162,179,19,998,-15,-1,-5
2163,94,41,992,-11,19,-1
2164,-64,56,1003,-10,27,4
2165,-164,46,991,-13,16,1
2166,-154,34,976,-16,-4,-3
2167,-27,16,1005,-15,-23,-6
2168,108,6,1008,-17,-24,-9
2169,178,17,1006,-15,-8,-7
2170,118,42,1001,-12,14,-1
2171,-23,49,1010,-13,27,2
2172,-149,47,975,-13,21,1
2173,-162,41,976,-15,2,-1
2174,-67,15,1006,-18,-20,-6
2175,81,6,1009,-15,-25,-8
2176,180,19,999,-14,-12,-6
2177,140,35,1000,-13,9,-2
2178,12,45,1006,-11,26,1
2179,-124,58,986,-13,24,2
2180,-169,46,992,-17,7,0
2181,-107,19,986,-16,-14,-5
2182,55,8,1003,-18,-26,-9
2183,165,12,1004,-15,-16,-8
2184,156,22,1008,-13,4,-3
2185,53,46,1002,-13,21,0
2186,-97,60,987,-12,26,3
2187,-168,50,981,-13,13,1
2188,-139,27,991,-19,-8,-3
2189,27,14,1016,-16,-25,-9
2190,136,4,1009,-18,-21,-7
2191,176,19,993,-12,-2,-5
2192,88,38,1000,-9,20,-1
2193,-67,59,1001,-12,26,4
2194,-167,45,991,-15,14,3
2195,-151,34,977,-16,-5,-3
2196,-17,17,1001,-17,-22,-7
2197,111,9,1012,-16,-23,-9
2198,180,17,1011,-15,-8,-5
2199,116,40,1000,-11,14,-2
2200,-29,49,1003,-12,27,3
2201,-152,46,978,-14,20,3
2202,-163,42,980,-16,0,0
2203,-60,16,1005,-17,-21,-6
2204,81,8,1006,-18,-24,-7
2205,183,14,999,-12,-12,-8
2206,132,35,1000,-12,11,-1
2207,6,50,1011,-9,26,1
2208,-130,54,985,-14,24,2
2209,-172,44,991,-16,8,-1
2210,-97,18,984,-17,-15,-6
2211,62,7,1008,-17,-25,-9
2212,167,16,1005,-14,-17,-8
2213,152,26,1002,-11,6,-2
2214,46,46,1007,-12,22,1
2215,-103,59,981,-11,26,3
2216,-169,47,985,-14,10,1
2217,-137,20,995,-18,-10,-3
2218,28,17,1010,-19,-25,-8
2219,147,6,1002,-17,-19,-8
2220,172,23,997,-12,-1,-5
2221,83,41,999,-12,21,-1
2222,-72,62,1002,-11,28,2
2223,-168,46,986,-14,15,1
2224,-152,35,978,-15,-5,-4
2225,-6,17,1004,-18,-24,-7
2226,114,4,1015,-15,-22,-9
2227,183,14,1010,-15,-8,-4
2228,114,39,1001,-12,16,-1
2229,-34,52,994,-13,25,3
2230,-155,50,980,-14,20,1
2231,-161,44,983,-14,1,-1
2232,-54,17,1002,-20,-21,-4
2233,86,5,1006,-15,-24,-8
2234,183,13,1000,-13,-11,-7
2235,134,35,1000,-12,11,-2
2236,2,47,1012,-11,25,2
2237,-137,52,987,-11,22,2
2238,-168,47,983,-14,5,-1
2239,-94,17,990,-15,-15,-5
2240,62,10,1006,-17,-24,-7
2241,172,13,1009,-14,-18,-7
2242,151,30,1003,-13,6,-3
2243,42,47,1005,-12,23,1
2244,-108,59,985,-13,25,3
2245,-172,48,988,-16,9,0
2246,-130,18,994,-16,-12,-4
2247,31,18,1011,-17,-25,-7
2248,150,6,1001,-17,-20,-8
2249,171,23,997,-11,0,-4
2250,76,44,1004,-9,19,0
2251,-75,59,1000,-13,27,3
2252,-168,42,988,-13,14,1
2253,-149,30,977,-16,-6,-3
2254,-4,16,1003,-17,-24,-8
2255,116,7,1016,-15,-22,-8
2256,181,17,1010,-12,-6,-6
2257,107,41,987,-12,16,0
2258,-40,54,998,-12,26,2
2259,-157,48,987,-13,18,2
2260,-160,37,982,-16,0,0
2261,-46,19,1003,-18,-21,-7
2262,91,2,1006,-17,-23,-9
2263,183,19,997,-13,-10,-8
2264,128,41,1005,-11,13,-1
2265,-8,46,1015,-13,26,3
2266,-136,54,980,-12,22,2
2267,-165,42,979,-16,4,0
2268,-84,22,993,-17,-16,-5
2269,69,4,1011,-16,-26,-8
2270,173,15,1005,-16,-16,-6
2271,146,29,1000,-12,8,-2
2272,36,45,1005,-10,24,1
2273,-117,57,985,-14,26,3
2274,-169,49,986,-15,8,0
2275,-120,18,998,-19,-13,-3
2276,43,16,999,-18,-25,-7
2277,151,11,1002,-15,-18,-9
2278,169,22,1000,-11,1,-5
2279,66,43,1005,-11,21,0
2280,-83,62,995,-13,25,2
2281,-168,43,986,-16,14,2
2282,-146,30,975,-17,-7,-4
2283,7,16,1011,-18,-24,-8
2284,123,6,1018,-16,-21,-8
2285,181,16,1004,-12,-4,-5
2286,102,43,988,-11,18,0
2287,-48,58,999,-10,27,2
2288,-161,44,986,-15,17,1
2289,-160,41,982,-17,-2,-1
2290,-37,15,1003,-17,-21,-6
2291,96,6,1007,-17,-24,-7
2292,187,14,1000,-12,-10,-7
2293,125,39,1005,-10,14,-2
2294,-11,52,1016,-11,27,2
2295,-143,51,974,-12,21,2
2296,-166,46,976,-17,2,0
2297,-78,16,999,-16,-17,-7
2298,69,7,1014,-18,-25,-9
2299,178,15,1001,-15,-16,-8
2300,147,30,1001,-11,8,-4
2301,27,46,1004,-10,25,1
2302,-119,58,984,-12,26,2
2303,-172,45,996,-16,7,-1
2304,-117,21,991,-17,-13,-4
2305,47,12,1001,-18,-24,-7
2306,157,9,1001,-17,-17,-7
2307,163,18,1002,-12,2,-4
2308,62,43,1006,-11,21,0
2309,-89,61,991,-12,26,4
2310,-165,44,985,-14,14,1
2311,-144,28,980,-15,-6,-2
2312,11,20,1009,-18,-24,-7
2313,130,3,1019,-17,-21,-9
2314,178,18,998,-13,-3,-4
2315,98,41,989,-12,17,-1
2316,-52,54,1001,-12,26,2
2317,-165,45,988,-14,17,2
2318,-157,40,979,-17,-2,-3
2319,-31,15,1008,-18,-22,-7
2320,99,9,1004,-17,-24,-7
2321,182,14,1001,-15,-9,-6
2322,121,40,1009,-11,14,-1
2323,-16,47,1014,-13,26,3
2324,-143,51,974,-12,22,0
2325,-163,47,981,-17,2,-1
2326,-75,17,1001,-18,-17,-6
2327,70,8,1009,-15,-23,-8
2328,176,16,1003,-16,-14,-7
2329,142,31,999,-12,8,-3
2330,27,48,1005,-11,23,1
2331,-120,56,986,-14,25,2
2332,-170,46,995,-14,8,0
2333,-112,19,990,-17,-14,-5
2334,49,14,1003,-14,-25,-8
2335,158,12,1001,-17,-17,-8
2336,162,21,1004,-14,2,-3
2337,62,43,1003,-11,20,1
2338,-90,61,992,-12,26,3
2339,-164,44,980,-15,12,0
2340,-142,29,984,-19,-7,-3
2341,12,20,1011,-18,-25,-8
2342,128,7,1013,-18,-22,-7
2343,179,14,1000,-14,-4,-6
2344,95,42,991,-11,18,-1
2345,-53,58,999,-12,27,2
2346,-160,43,994,-14,16,2
2347,-156,43,978,-16,-2,-1
2348,-29,17,1001,-18,-20,-6
2349,99,3,1009,-18,-22,-8
2350,178,17,998,-13,-8,-5
2351,119,39,1008,-13,13,-2
2352,-14,51,1014,-13,25,4
2353,-143,50,973,-11,20,3
2354,-160,44,978,-16,2,-2
2355,-72,13,1002,-17,-18,-6
2356,73,9,1008,-18,-24,-8
2357,176,17,1005,-17,-14,-7
2358,140,33,997,-12,8,-3
2359,26,44,1008,-9,22,0
2360,-120,58,984,-13,23,2
2361,-171,45,996,-15,6,1
2362,-109,15,991,-16,-15,-4
2363,45,12,996,-17,-25,-6
2364,160,10,1005,-16,-16,-7
2365,160,22,1005,-23,4,-1
2366,56,47,1004,-6,14,-4
2367,-88,60,988,-9,24,2
2368,-168,45,987,-15,13,1
2369,-142,26,981,-18,-8,-3
2370,13,14,1014,-16,-26,-8
2371,130,7,1012,-16,-21,-8
2372,177,14,1000,-13,-3,-5
2373,97,45,993,-8,18,-1
2374,-52,56,1002,-11,26,3
2375,-164,49,988,-13,17,2
2376,-154,34,980,-17,-4,-2
2377,-31,16,1005,-20,-23,-7
2378,101,3,1006,-17,-24,-8
2379,183,15,1001,-13,-10,-7
2380,119,41,1007,-12,13,-2
2381,-14,48,1010,-11,26,3
2382,-141,53,978,-13,21,2
2383,-164,46,975,-15,3,-1
2384,-73,17,1002,-19,-18,-6
2385,74,7,1008,-16,-24,-7
2386,179,15,1002,-15,-14,-7
2387,144,27,998,-12,9,-1
2388,23,48,1005,-8,25,2
2389,-120,58,985,-14,25,2
2390,-174,48,996,-17,8,0
2391,-111,19,992,-19,-14,-5
2392,44,14,999,-17,-25,-7
2393,162,13,1005,-14,-18,-8
2394,160,19,1004,-14,3,-3
2395,58,47,1007,-9,21,0
2396,-89,57,986,-13,26,3
2397,-167,50,986,-16,13,1
2398,-144,26,979,-16,-7,-3
2399,14,20,1013,-16,-24,-7
2400,131,4,1014,-18,-22,-7
2401,174,15,999,-12,-5,-4
2402,99,40,991,-11,17,-1
2403,-57,58,1001,-10,27,3
2404,-161,48,990,-15,15,1
2405,-153,38,979,-18,-3,-2
2406,-33,19,1004,-17,-22,-6
2407,98,5,1006,-16,-23,-8
2408,181,16,998,-13,-11,-6
2409,119,39,1008,-13,14,-1
2410,-13,46,1011,-12,25,1
2411,-143,52,974,-13,20,2
2412,-161,42,976,-16,2,-1
2413,-72,18,1008,-16,-18,-7
2414,74,4,1007,-17,-24,-7
2415,173,13,1001,-15,-15,-7
2416,143,29,1000,-12,8,-3
2417,20,46,1003,-10,24,2
2418,-115,59,985,-14,23,2
2419,-172,48,995,-14,8,1
2420,-106,19,991,-17,-14,-6
2421,46,9,1001,-16,-25,-7
2422,155,12,999,-14,-17,-8
2423,162,22,1004,-14,3,-5
2424,60,43,1006,-10,20,-1
2425,-90,60,987,-13,24,2
2426,-165,46,988,-13,12,0
2427,-141,29,980,-16,-7,-3
2428,10,21,1011,-17,-26,-7
2429,131,5,1016,-16,-21,-7
2430,174,17,1000,-13,-2,-5
2431,96,41,989,-12,18,0
2432,-57,56,1003,-12,28,4
2433,-162,46,990,-15,16,2
2434,-155,41,979,-17,-1,-2
2435,-32,20,1007,-19,-22,-8
2436,97,2,1005,-16,-23,-8
2437,179,20,1001,-12,-10,-6
2438,122,37,1007,-10,14,-1
2439,-17,53,1013,-11,26,2
2440,-138,50,975,-14,21,2
2441,-162,49,975,-14,3,0
2442,-72,17,1003,-18,-18,-6
2443,73,5,1009,-18,-23,-7
2444,173,18,1002,-14,-15,-7
2445,141,27,998,-13,8,-3
2446,24,44,1008,-10,25,1
2447,-120,55,981,-13,25,3
2448,-172,48,996,-12,8,1
2449,-111,22,991,-17,-14,-5
2450,45,12,1002,-18,-25,-9
2451,158,11,999,-16,-20,-10
2452,163,16,1003,-15,2,-3
2453,65,44,1006,-10,20,0
2454,-86,56,990,-12,27,5
2455,-169,44,987,-14,13,0
2456,-144,27,978,-16,-7,-3
2457,5,17,1011,-17,-25,-7
2458,128,7,1017,-17,-23,-8
2459,178,19,1005,-13,-3,-5
2460,102,42,990,-11,17,-1
2461,-52,55,999,-10,27,3
2462,-160,44,989,-14,17,2
2463,-159,35,982,-14,-2,-2
2464,-33,16,1003,-18,-22,-5
2465,96,4,1006,-16,-24,-8
2466,180,20,1002,-14,-11,-6
2467,123,43,1003,-12,14,0
2468,-11,48,1016,-12,26,4
2469,-138,52,978,-13,21,3
2470,-164,46,975,-17,2,0
2471,-76,17,1000,-18,-18,-6
2472,69,7,1010,-17,-25,-7
2473,175,16,1000,-15,-15,-7
2474,147,31,1001,-13,7,-2
2475,27,50,1002,-10,24,2
2476,-114,59,986,-14,26,3
2477,-168,46,992,-16,8,0
2478,-115,22,991,-18,-14,-6
2479,48,8,1002,-17,-25,-9
2480,150,12,1002,-16,-18,-8
2481,167,18,999,-14,0,-4
2482,62,43,1006,-9,19,0
2483,-86,62,995,-14,26,3
2484,-168,44,985,-13,14,1
2485,-143,29,980,-17,-7,-4
2486,2,19,1008,-19,-23,-6
2487,122,7,1017,-17,-21,-8
2488,172,16,1007,-15,-3,-4
2489,102,43,992,-12,17,0
2490,-48,51,996,-12,26,3
2491,-158,48,988,-14,18,1
2492,-155,41,986,-16,0,-2
2493,-40,17,1001,-20,-21,-5
2494,98,4,1007,-17,-24,-8
2495,180,17,997,-13,-11,-5
2496,123,41,1005,-11,12,-1
2497,-8,49,1014,-10,26,2
2498,-138,57,982,-13,21,2
2499,-161,48,979,-15,4,0
2500,-82,19,995,-16,-16,-6
2501,70,6,1007,-17,-25,-9
2502,173,12,1007,-14,-14,-8
2503,145,29,998,-12,7,-3
2504,34,42,1008,-13,23,0
2505,-111,62,981,-11,26,2
2506,-169,49,991,-16,9,0
2507,-118,21,995,-18,-12,-5
2508,39,16,1010,-17,-25,-8
2509,152,10,992,-17,-20,-9
2510,165,14,1003,-13,2,-4
2511,69,44,1003,-10,20,1
2512,-80,55,997,-15,27,4
2513,-167,46,988,-13,13,0
2514,-148,31,977,-15,-7,-4
2515,0,19,1006,-17,-25,-7
2516,114,8,1019,-16,-20,-7
2517,178,16,1008,-14,-5,-5
2518,105,39,995,-12,17,-1
2519,-43,55,995,-11,27,3
2520,-155,49,982,-13,18,1
2521,-159,43,985,-17,-2,-1
2522,-43,18,1006,-20,-22,-5
2523,94,2,1003,-16,-24,-7
2524,182,21,1001,-13,-10,-5
2525,129,33,999,-13,12,-2
2526,-2,49,1014,-10,24,1
2527,-134,49,979,-13,23,2
2528,-167,50,986,-13,5,1
2529,-85,15,990,-18,-15,-4
2530,64,10,1005,-18,-25,-6
2531,169,12,1009,-16,-15,-8
2532,146,26,1001,-12,8,-3
2533,36,41,1002,-11,23,0
2534,-108,61,984,-11,25,2
2535,-168,47,988,-13,10,1
2536,-122,27,989,-15,-11,-3
2537,33,16,1018,-18,-23,-8
2538,144,8,999,-16,-19,-8
2539,171,18,997,-13,-1,-4
2540,74,48,998,-9,20,0
2541,-73,61,1003,-14,26,3
2542,-163,47,989,-14,14,0
2543,-151,32,976,-18,-7,-2
2544,-5,14,1003,-17,-24,-7
2545,112,2,1015,-15,-21,-8
2546,177,19,1005,-13,-6,-6
2547,111,42,1000,-9,16,-2
2548,-36,52,1000,-12,28,2
2549,-154,50,977,-13,19,3
2550,-158,46,983,-15,-1,0
2551,-54,17,1006,-19,-21,-7
2552,88,5,1007,-17,-24,-7
2553,179,14,999,-13,-11,-6
2554,136,36,1002,-12,11,-3
2555,4,48,1007,-11,25,2
2556,-131,58,985,-12,22,1
2557,-163,46,989,-16,6,0
2558,-96,21,990,-17,-14,-5
2559,60,9,999,-20,-26,-8
2560,167,12,1008,-16,-17,-7
2561,150,24,1004,-13,5,-2
2562,47,44,1003,-10,22,-1
2563,-102,59,983,-11,27,2
2564,-167,43,985,-13,10,1
2565,-130,29,989,-17,-9,-4
2566,23,18,1019,-18,-24,-7
2567,137,10,1003,-16,-20,-8
2568,173,17,998,-11,-1,-4
2569,83,42,992,-13,19,0
2570,-67,56,1001,-13,27,3
2571,-162,46,993,-12,14,0
2572,-155,37,973,-15,-3,-2
2573,-13,21,1006,-16,-23,-7
2574,103,3,1012,-16,-21,-9
2575,179,21,1004,-14,-7,-6
2576,114,39,1001,-11,14,-1
2577,-26,52,1008,-11,25,3
2578,-146,49,974,-14,19,3
2579,-156,42,980,-15,1,-2
2580,-61,17,1006,-18,-19,-7
2581,79,7,1009,-17,-24,-8
2582,180,14,999,-15,-12,-7
2583,136,34,1000,-11,10,-1
2584,13,47,1004,-11,25,2
2585,-127,56,986,-13,24,2
2586,-170,44,993,-17,7,1
2587,-104,20,985,-18,-15,-3
2588,57,9,1002,-17,-27,-7
2589,161,12,1003,-13,-16,-7
2590,158,23,1002,-14,4,-4
2591,54,42,1008,-12,22,0
2592,-95,61,982,-10,26,2
2593,-165,45,985,-15,11,0
2594,-139,27,990,-15,-8,-4
2595,19,19,1010,-18,-26,-7
2596,133,7,1010,-17,-21,-8
2597,170,16,1002,-12,-2,-3
2598,90,43,992,-12,19,-1
2599,-62,55,1000,-11,27,3
2600,-164,47,989,-15,16,1
2601,-151,41,977,-16,-4,-3
2602,-22,17,1004,-17,-22,-6
2603,101,5,1006,-18,-23,-8
2604,180,20,1005,-13,-9,-7
2605,116,37,1004,-14,13,-2
2606,-20,50,1009,-11,27,2
2607,-142,48,976,-13,20,2
2608,-160,43,980,-14,1,-1
2609,-70,18,1002,-16,-18,-6
2610,77,7,1011,-19,-24,-8
2611,178,22,1002,-16,-13,-8
2612,138,33,997,-14,9,-2
2613,19,49,1005,-11,24,1
2614,-123,55,987,-14,24,3
2615,-166,45,990,-14,8,1
2616,-107,15,994,-17,-14,-4
2617,52,13,1000,-16,-25,-7
2618,157,11,1002,-14,-16,-8
2619,161,19,1005,-11,4,-4
2620,56,47,1005,-11,21,0
2621,-91,63,989,-12,26,4
2622,-167,44,987,-15,13,1
2623,-138,28,983,-16,-6,-4
2624,12,17,1010,-18,-25,-8
2625,128,9,1013,-17,-21,-8
2626,174,12,1001,-14,-3,-5
2627,93,44,989,-10,18,-2
2628,-55,54,1002,-12,27,2
2629,-163,48,989,-13,17,0
2630,-152,39,979,-17,-3,-1
2631,-30,17,1003,-17,-22,-7
2632,98,3,1006,-18,-24,-7
2633,182,15,999,-12,-9,-7
2634,120,41,1007,-13,13,0
2635,-17,51,1012,-12,27,3
2636,-139,52,974,-13,21,2
2637,-165,47,977,-14,4,-1
2638,-75,14,997,-17,-17,-5
2639,75,4,1013,-17,-23,-8
2640,173,15,1000,-16,-15,-7
2641,144,32,1000,-12,8,-2
2642,27,45,1006,-11,23,1
2643,-122,61,982,-14,24,4
2644,-166,45,992,-15,8,0
2645,-115,21,998,-19,-13,-4
2646,45,14,1000,-19,-25,-8
2647,156,12,1003,-14,-17,-7
2648,161,19,1003,-13,2,-4
2649,62,47,1003,-9,22,-1
2650,-87,61,995,-12,26,3
2651,-168,46,986,-16,12,1
2652,-143,28,978,-17,-8,-3
2653,11,15,1010,-18,-24,-7
2654,125,4,1015,-18,-21,-8
2655,176,14,1006,-12,-3,-5
2656,97,39,989,-12,18,-1
2657,-51,56,999,-10,26,4
2658,-157,45,985,-14,17,1
2659,-158,43,985,-16,-3,-2
2660,-32,17,1003,-17,-23,-6
2661,96,3,1004,-16,-23,-8
2662,182,15,1001,-14,-10,-6
2663,121,40,1004,-12,15,-1
2664,-9,47,1016,-12,26,2
2665,-141,54,977,-12,22,2
2666,-162,51,978,-16,2,-1
2667,-77,16,998,-18,-17,-5
2668,68,7,1009,-19,-23,-6
2669,173,13,1002,-16,-15,-7
2670,144,28,1002,-10,8,-4
2671,30,46,1006,-12,25,0
2672,-114,60,981,-12,25,3
2673,-169,45,993,-15,8,1
2674,-115,21,994,-17,-14,-5
2675,41,12,1002,-16,-23,-8
2676,154,12,999,-15,-18,-8
2677,166,17,1002,-13,2,-5
2678,61,47,1004,-11,21,1
2679,-82,60,997,-13,27,2
2680,-168,45,986,-14,13,1
2681,-147,31,975,-16,-7,-3
2682,5,18,1007,-18,-25,-7
2683,122,5,1016,-17,-22,-8
2684,180,14,1003,-14,-5,-6
2685,99,42,993,-10,16,-1
2686,-46,55,996,-11,27,2
2687,-159,49,988,-12,18,1
2688,-158,41,982,-17,-2,-2
2689,-39,18,1002,-18,-23,-6
2690,96,1,1005,-17,-25,-9
2691,183,16,1000,-15,-11,-7
2692,123,38,1005,-12,12,-2
2693,-10,52,1015,-12,24,3
2694,-138,59,977,-11,20,1
2695,-167,48,980,-15,3,-1
2696,-80,16,994,-20,-17,-6
2697,71,2,1013,-19,-25,-7
2698,172,18,1002,-15,-15,-6
2699,147,26,1001,-13,9,-2
2700,31,44,1007,-11,25,1
2701,-117,60,981,-12,25,3
2702,-168,49,992,-12,8,0
2703,-120,22,996,-26,-13,-2
2704,41,14,1001,-19,-26,-7
2705,155,8,1001,-14,-18,-8
2706,167,20,1001,-11,3,-3
2707,63,44,1003,-11,21,0
2708,-82,59,995,-11,28,4
2709,-168,43,987,-15,13,1
2710,-142,33,975,-15,-7,-3
2711,1,17,1009,-17,-25,-7
2712,121,8,1016,-18,-21,-8
2713,172,11,1005,-13,-4,-5
2714,104,42,994,-10,16,-2
2715,-49,54,997,-13,27,3
2716,-158,50,986,-13,18,0
2717,-154,40,984,-15,0,-1
2718,-41,20,1004,-18,-21,-6
2719,94,5,1004,-18,-24,-9
2720,182,13,1003,-13,-11,-7
2721,127,36,1002,-13,12,-1
2722,-13,47,1014,-11,26,3
2723,-137,55,981,-10,21,2
2724,-164,45,977,-14,3,1
2725,-81,22,997,-15,-17,-5
2726,71,6,1012,-17,-26,-7
2727,169,16,1006,-15,-15,-7
2728,143,29,995,-13,7,-2
2729,29,43,1009,-11,24,1
2730,-114,58,982,-12,24,1
2731,-167,45,990,-16,7,0
2732,-116,20,997,-17,-12,-5
2733,40,14,1001,-16,-23,-8
2734,156,13,994,-17,-18,-9
2735,160,20,1004,-13,2,-3
2736,67,48,1004,-10,20,0
2737,-84,59,994,-14,27,2
2738,-167,48,986,-13,14,0
2739,-143,29,979,-16,-7,-3
2740,3,17,1006,-16,-24,-8
2741,126,5,1018,-17,-23,-8
2742,177,13,1006,-13,-4,-6
2743,99,43,992,-9,18,-1
2744,-46,55,998,-12,27,4
2745,-160,49,990,-12,18,2
2746,-156,39,981,-16,-1,-2
2747,-35,18,1002,-18,-22,-7
2748,94,5,1006,-16,-24,-8
2749,179,16,995,-14,-10,-7
2750,124,40,1007,-11,14,0
2751,-12,51,1015,-11,27,3
2752,-139,49,978,-14,21,1
2753,-164,50,978,-14,4,-1
2754,-78,13,1001,-19,-18,-6
2755,70,7,1010,-17,-24,-8
2756,170,11,1004,-15,-15,-6
2757,146,30,1002,-11,8,-2
2758,29,42,1003,-11,23,1
2759,-119,60,983,-13,25,3
2760,-169,45,997,-14,7,0
2761,-114,18,990,-17,-15,-4
2762,45,12,1000,-15,-26,-7
2763,160,11,1003,-14,-18,-9
2764,165,23,1005,-11,4,-4
2765,63,45,1002,-10,21,0
2766,-86,59,994,-12,26,3
2767,-170,44,984,-15,13,1
2768,-142,25,980,-16,-7,-3
2769,9,17,1011,-17,-25,-8
2770,127,7,1016,-17,-21,-9
2771,180,18,1000,-10,-4,-5
2772,96,45,991,-11,18,-1
2773,-53,56,999,-10,26,4
2774,-165,48,990,-13,17,2
2775,-159,37,980,-18,-4,-3
2776,-30,18,1004,-18,-22,-7
2777,100,1,1006,-17,-24,-9
2778,184,16,1002,-13,-8,-6
2779,124,42,1004,-10,15,-2
2780,-18,54,1014,-13,26,2
2781,-143,55,976,-11,21,1
2782,-167,44,974,-17,2,0
2783,-75,12,1002,-17,-19,-6
2784,76,2,1009,-16,-24,-8
2785,175,13,1002,-14,-15,-8
2786,143,30,999,-11,8,-4
2787,23,49,1005,-11,24,1
2788,-123,57,987,-12,23,3
2789,-170,52,994,-14,8,-1
2790,-113,17,989,-19,-14,-6
2791,47,12,999,-15,-26,-8
2792,163,11,1004,-15,-18,-7
2793,159,22,1002,-14,3,-3
2794,63,45,1010,-12,21,0
2795,-94,59,985,-14,26,2
2796,-169,44,984,-14,12,0
2797,-138,26,985,-15,-8,-4
2798,10,18,1016,-17,-24,-7
2799,136,6,1010,-15,-22,-9
2800,176,14,1003,-14,-3,-6
2801,96,46,990,-11,19,0
2802,-59,58,1003,-12,28,3
2803,-163,46,993,-13,17,0
2804,-155,32,976,-16,-2,-2
2805,-23,15,1005,-16,-22,-6
2806,103,5,1005,-19,-23,-6
2807,184,17,1004,-12,-10,-6
2808,118,43,1006,-10,14,-1
2809,-21,50,1005,-13,27,1
2810,-147,49,976,-12,20,2
2811,-165,43,976,-15,1,0
2812,-66,15,1004,-17,-20,-6
2813,80,4,1010,-17,-24,-7
2814,178,18,1001,-15,-13,-6
2815,142,33,997,-10,9,-4
2816,12,43,1009,-12,24,2
2817,-126,57,984,-13,24,3
2818,-169,44,992,-15,7,-1
2819,-105,20,994,-17,-14,-6
2820,54,7,997,-17,-25,-8
2821,164,12,1006,-13,-17,-8
2822,157,20,1005,-14,4,-3
2823,56,47,1006,-10,21,-1
2824,-96,60,986,-12,24,3
2825,-170,46,980,-16,11,1
2826,-138,24,995,-18,-9,-3
2827,16,18,1013,-19,-24,-7
2828,141,5,1004,-16,-22,-8
2829,176,13,1000,-13,-2,-4
2830,86,42,992,-12,19,-1
2831,-63,58,999,-12,27,4
2832,-164,47,996,-16,16,2
2833,-154,37,971,-17,-5,-3
2834,-17,19,1004,-18,-23,-7
2835,106,4,1011,-17,-23,-10
2836,178,18,1007,-12,-8,-7
2837,121,37,1000,-10,13,-1
2838,-27,51,1002,-11,27,3
2839,-151,48,975,-11,19,1
2840,-160,39,982,-17,1,1
2841,-64,19,1005,-18,-20,-5
2842,83,6,1007,-18,-24,-9
2843,181,15,1000,-14,-13,-7
2844,135,39,1000,-11,12,-2
2845,11,49,1007,-12,24,2
2846,-131,54,991,-13,24,2
2847,-168,46,984,-15,6,0
2848,-95,16,988,-17,-15,-6
2849,58,11,1008,-17,-26,-8
2850,166,11,1006,-13,-17,-8
2851,156,29,1006,-12,6,-3
2852,46,45,1005,-10,23,2
2853,-104,65,984,-12,26,2
2854,-170,41,985,-14,10,1
2855,-135,25,991,-17,-11,-3
2856,31,13,1016,-20,-24,-7
2857,148,10,998,-15,-20,-9
2858,173,17,994,-12,-1,-5
2859,80,42,1000,-11,19,-1
2860,-75,61,1003,-12,28,3
2861,-164,44,983,-16,15,1
2862,-153,34,979,-17,-6,-2
2863,-4,16,998,-18,-22,-7
2864,115,6,1018,-15,-21,-8
2865,181,18,1012,-14,-6,-5
2866,109,41,996,-10,15,0
2867,-39,53,999,-9,26,3
2868,-155,50,980,-14,19,2
2869,-161,40,985,-18,-1,0
2870,-47,15,1003,-17,-22,-5
2871,90,4,1004,-14,-26,-8
2872,186,15,1000,-12,-11,-8
2873,127,41,1004,-11,13,-2
2874,-2,51,1016,-13,26,2
2875,-136,55,981,-13,22,2
2876,-170,47,981,-17,5,0
2877,-88,18,991,-18,-15,-6
2878,66,6,1009,-17,-26,-8
2879,169,14,1006,-13,-16,-7
2880,152,26,1002,-11,6,-2
2881,36,46,1005,-11,22,2
2882,-111,60,985,-11,25,2
2883,-172,50,988,-15,8,0
2884,-127,23,994,-15,-14,-5
2885,40,18,1010,-15,-25,-8
2886,151,9,996,-16,-20,-7
2887,168,17,999,-12,2,-4
2888,68,44,1004,-12,21,0
2889,-81,61,996,-12,27,4
2890,-166,44,986,-14,14,1
2891,-148,30,979,-16,-6,-4
2892,2,20,1002,-16,-25,-8
2893,122,4,1019,-18,-22,-9
2894,176,16,1007,-15,-4,-6
2895,106,41,988,-12,16,-1
2896,-49,51,996,-11,27,2
2897,-159,48,986,-11,17,1
2898,-160,38,983,-15,-2,-1
2899,-40,18,1004,-18,-20,-7
2900,94,3,1006,-16,-24,-9
2901,185,18,997,-14,-10,-7
2902,124,39,1005,-13,14,-1
2903,-10,52,1016,-12,26,1
2904,-139,54,980,-14,20,2
2905,-167,43,974,-16,4,-1
2906,-83,17,1001,-17,-17,-5
2907,71,5,1009,-17,-26,-9
2908,171,17,1006,-15,-14,-7
2909,149,28,1002,-13,8,-2
2910,29,46,1005,-12,24,2
2911,-114,64,986,-11,24,4
2912,-170,49,992,-15,8,0
2913,-119,20,993,-18,-13,-5
2914,43,11,1003,-19,-24,-8
2915,155,10,999,-16,-17,-9
2916,165,20,1001,-13,2,-4
2917,64,43,1007,-11,20,1
2918,-86,60,992,-12,26,3
2919,-167,44,986,-14,14,1
2920,-145,34,980,-16,-6,-3
2921,6,19,1009,-20,-24,-7
2922,127,8,1018,-16,-22,-9
2923,175,16,1002,-13,-3,-3
2924,102,42,988,-11,17,-1
2925,-51,51,1002,-13,26,3
2926,-162,47,987,-14,17,2
2927,-156,39,984,-16,-2,-1
2928,-32,18,1004,-18,-21,-6
2929,97,8,1004,-16,-23,-8
2930,184,17,1001,-15,-11,-7
2931,122,41,1007,-12,13,-1
2932,-12,49,1013,-11,26,1
2933,-140,49,977,-14,22,1
2934,-166,48,978,-14,3,-1
2935,-76,14,998,-17,-17,-6
2936,72,6,1012,-17,-24,-8
2937,175,18,1004,-15,-16,-7
2938,145,32,997,-11,7,-3
2939,25,44,1007,-10,24,1
2940,-119,57,984,-13,25,3
2941,-168,48,994,-15,7,-1
2942,-115,22,989,-18,-14,-5
2943,45,14,999,-17,-26,-9
2944,158,8,1001,-16,-18,-8
2945,160,20,1002,-13,2,-4
2946,61,42,1008,-10,21,-1
2947,-88,59,990,-13,26,2
2948,-169,43,986,-13,14,0
2949,-141,33,985,-16,-6,-4
2950,7,19,1013,-19,-25,-7
2951,130,7,1014,-15,-22,-9
2952,176,11,999,-12,-2,-5
2953,96,42,993,-11,19,1
2954,-51,54,997,-12,27,4
2955,-164,45,993,-14,17,2
2956,-155,41,978,-15,-4,-2
2957,-28,20,1004,-18,-21,-7
2958,99,6,1008,-17,-22,-9
2959,181,16,1000,-14,-9,-6
2960,121,36,1004,-11,14,-3
2961,-16,47,1010,-11,27,2
2962,-144,51,978,-11,21,1
2963,-162,48,977,-14,1,-3
2964,-76,18,1000,-16,-18,-6
2965,76,10,1014,-17,-24,-8
2966,177,15,1000,-15,-15,-6
2967,140,29,998,-11,8,-2
2968,25,43,1007,-13,24,1
2969,-123,57,988,-12,24,2
2970,-171,47,994,-14,7,0
2971,-111,19,988,-17,-15,-5
2972,51,12,1003,-16,-27,-7
2973,161,12,1001,-14,-18,-8
2974,162,22,1006,-12,4,-5
2975,60,42,1006,-12,22,-1
2976,-94,62,990,-11,26,2
2977,-170,44,982,-15,13,0
2978,-142,28,988,-15,-7,-3
2979,15,17,1013,-18,-25,-6
2980,133,6,1012,-16,-21,-8
2981,180,20,1000,-12,-3,-5
2982,93,42,988,-12,18,0
2983,-57,55,1000,-11,26,2
2984,-166,44,993,-14,15,1
2985,-158,40,974,-16,-4,-2
2986,-21,18,1004,-16,-22,-6
2987,101,6,1010,-18,-23,-8
2988,183,18,1003,-14,-9,-7
2989,119,40,1004,-11,13,-2
2990,-22,51,1009,-12,26,3
2991,-145,54,974,-12,21,1
2992,-160,44,976,-15,3,-1
2993,-73,17,1004,-18,-19,-6
2994,77,6,1007,-15,-25,-9
2995,178,12,1004,-14,-14,-7
2996,140,32,995,-12,9,-2
2997,18,47,1007,-11,25,1
2998,-125,59,986,-13,25,2
2999,-170,45,991,-15,7,-1
3000,-105,20,991,-16,-15,-5
3001,52,12,1001,-17,-25,-7
3002,161,11,1003,-12,-17,-9
3003,156,23,1004,-14,5,-2
3004,54,44,1010,-12,21,0
3005,-93,58,986,-12,26,3
3006,-170,44,983,-15,11,1
3007,-140,30,993,-16,-8,-4
3008,17,14,1012,-19,-25,-7
3009,134,10,1008,-18,-23,-8
3010,171,17,1000,-13,-1,-6
3011,94,44,992,-10,19,-2
3012,-61,57,999,-13,27,3
3013,-164,48,992,-15,16,1
3014,-152,36,979,-18,-3,-2
3015,-27,20,1002,-17,-22,-5
3016,105,6,1010,-17,-22,-9
3017,180,18,1005,-15,-8,-7
3018,115,43,1005,-10,14,-1
3019,-23,52,1006,-12,27,1
3020,-146,50,978,-13,19,2
3021,-157,41,975,-15,0,-1
3022,-63,15,1003,-17,-19,-5
3023,80,6,1013,-16,-24,-6
3024,174,17,1001,-16,-15,-6
3025,136,33,996,-11,8,-3
3026,15,48,1013,-9,24,2
3027,-126,61,983,-14,23,3
3028,-169,45,991,-16,7,0
3029,-103,20,995,-18,-15,-6
3030,51,11,998,-17,-24,-7
3031,162,14,1003,-13,-17,-8
3032,156,19,1008,-12,5,-2
3033,54,49,1003,-12,21,1
3034,-97,58,985,-13,26,3
3035,-169,47,987,-15,12,1
3036,-136,25,985,-18,-9,-4
3037,19,19,1013,-17,-25,-9
3038,134,6,1010,-12,-20,-7
3039,176,17,995,-16,-3,-6
3040,90,41,995,-7,19,-1
3041,-66,56,1000,-13,28,3
3042,-160,45,992,-15,15,1
3043,-155,35,975,-12,-4,-2
3044,-21,23,1005,-20,-23,-6
3045,107,2,1012,-14,-22,-9
3046,177,22,1001,-14,-7,-6
3047,118,35,1007,-12,14,-1
3048,-26,45,1008,-11,27,2
3049,-146,48,969,-15,20,2
3050,-158,41,982,-12,2,-2
3051,-69,19,1005,-16,-18,-6
3052,82,8,1007,-18,-23,-8
3053,177,17,1003,-15,-12,-8
3054,135,35,998,-13,9,-2
3055,18,43,1007,-12,23,1
3056,-128,58,986,-12,23,1
3057,-170,43,991,-16,6,0
3058,-105,20,994,-18,-16,-5
3059,53,9,998,-17,-25,-7
3060,160,11,1004,-14,-17,-8
3061,162,21,1007,-12,5,-4
3062,52,43,1002,-11,23,0
3063,-92,62,989,-10,27,3
3064,-169,45,987,-14,12,1
3065,-140,29,984,-17,-9,-4
3066,18,17,1017,-18,-25,-7
3067,136,7,1009,-16,-22,-8
3068,171,16,993,-11,-2,-4
3069,92,45,995,-10,19,-1
3070,-65,56,1000,-11,27,3
3071,-164,48,990,-12,16,1
3072,-150,34,979,-18,-5,-3
3073,-23,21,1006,-16,-22,-6
3074,104,4,1004,-17,-24,-9
3075,181,19,1009,-11,-9,-8
3076,116,39,1002,-11,15,-1
3077,-22,49,1010,-12,26,2
3078,-149,51,977,-12,20,1
3079,-164,46,977,-16,1,-1
3080,-63,20,1006,-17,-19,-6
3081,79,4,1008,-18,-24,-7
3082,178,17,1002,-15,-13,-8
3083,139,32,998,-12,9,-2
3084,15,47,1007,-11,25,1
3085,-125,58,985,-13,24,2
3086,-168,45,995,-16,7,-1
3087,-108,18,991,-18,-15,-4
3088,57,10,997,-16,-26,-8
3089,164,6,1006,-14,-18,-8
3090,159,23,1005,-11,5,-3
3091,52,45,1004,-12,21,1
3092,-98,59,988,-12,25,3
3093,-170,45,982,-15,11,2
3094,-137,27,986,-15,-9,-3
3095,18,18,1015,-17,-24,-6
3096,137,8,1011,-16,-20,-8
3097,178,16,996,-11,-2,-5
3098,88,41,995,-10,19,0
3099,-58,55,1002,-12,26,2
3100,-165,48,990,-11,16,0
3101,-154,38,975,-15,-4,-4
3102,-21,18,1007,-16,-23,-7
3103,105,4,1008,-17,-22,-10
3104,177,19,1003,-14,-7,-6
3105,123,37,1008,-11,14,-2
3106,-24,52,1007,-11,27,3
3107,-146,55,973,-12,21,1
3108,-159,45,985,-14,2,-2
3109,-68,18,1002,-18,-20,-5
3110,81,7,1005,-17,-25,-9
3111,180,17,1004,-14,-13,-8
3112,138,36,997,-11,10,-2
3113,14,51,1004,-10,24,1
3114,-126,55,987,-13,24,1
3115,-173,46,996,-14,7,1
3116,-100,19,987,-18,-15,-5
3117,55,11,1006,-18,-24,-8
3118,162,12,1003,-15,-16,-10
3119,156,24,1003,-13,5,-4
3120,52,47,1005,-11,23,0
3121,-99,63,987,-13,26,2
3122,-166,44,985,-14,12,0
3123,-139,26,989,-17,-8,-3
3124,20,17,1012,-20,-25,-7
3125,134,2,1012,-15,-22,-7
3126,172,18,995,-13,-3,-5
3127,91,45,988,-11,18,-2
3128,-63,57,1006,-10,26,2
3129,-165,43,989,-14,14,1
3130,-151,33,978,-15,-5,-3
3131,-21,15,1004,-18,-23,-6
3132,103,5,1012,-17,-22,-8
3133,182,17,1001,-14,-8,-7
3134,114,38,1006,-11,15,-1
3135,-20,52,1009,-12,26,2
3136,-148,48,973,-12,20,1
3137,-157,46,976,-15,1,-1
3138,-65,18,1008,-18,-19,-5
3139,83,8,1006,-15,-24,-9
3140,178,16,1002,-14,-13,-7
3141,140,33,1001,-11,8,-2
3142,16,48,1003,-10,25,2
3143,-120,59,985,-14,25,1
3144,-171,49,996,-15,8,-1
3145,-103,20,986,-19,-16,-5
3146,56,10,1000,-16,-25,-9
3147,160,14,1005,-14,-17,-7
3148,160,22,1001,-13,3,-3
3149,53,44,1005,-11,22,0
3150,-96,61,991,-13,25,5
3151,-164,45,982,-15,12,0
3152,-139,24,986,-16,-9,-3
3153,14,19,1013,-19,-25,-7
3154,134,7,1009,-17,-21,-8
3155,173,17,1002,-12,-2,-5
3156,91,42,991,-11,18,0
3157,-62,58,999,-12,27,3
3158,-163,43,995,-13,15,0
3159,-151,37,977,-15,-3,-3
3160,-23,17,1003,-18,-23,-7
3161,102,3,1010,-15,-23,-9
3162,175,16,1002,-13,-7,-7
3163,116,37,1001,-11,14,-4
3164,-25,47,1014,-12,27,3
3165,-148,56,975,-14,19,2
3166,-157,39,976,-15,1,-1
3167,-70,20,1003,-16,-18,-6
3168,79,7,1012,-16,-24,-8
3169,177,14,1003,-15,-13,-8
3170,137,29,998,-11,9,-1
3171,16,44,1002,-10,25,1
3172,-121,54,989,-13,25,2
3173,-173,47,990,-14,7,1
3174,-105,24,991,-16,-13,-6
3175,51,10,1005,-16,-24,-6
3176,156,16,1000,-15,-17,-7
3177,159,21,1004,-14,3,-4
3178,56,46,1007,-11,21,-1
3179,-92,59,987,-14,26,4
3180,-162,43,984,-16,12,0
3181,-138,28,985,-16,-8,-4
3182,13,20,1010,-18,-25,-7
3183,130,5,1014,-17,-22,-9
3184,174,20,1004,-12,-3,-6
3185,94,44,988,-12,18,-1
3186,-53,55,1002,-13,27,2
3187,-161,47,988,-14,16,2
3188,-152,37,984,-16,-3,-3
3189,-29,17,1004,-17,-21,-7
3190,101,2,1005,-16,-23,-8
3191,181,22,1003,-13,-9,-7
3192,117,34,1003,-11,12,-2
3193,-16,51,1015,-12,23,1
3194,-144,51,973,-13,19,2
3195,-161,45,980,-16,1,-1
3196,-71,16,1000,-18,-19,-5
3197,74,4,1008,-17,-24,-8
3198,174,15,1005,-16,-15,-8
3199,140,31,999,-12,8,-2
3200,27,48,1002,-10,24,0
3201,-120,58,986,-13,25,3
3202,-169,47,992,-15,8,1
3203,-116,18,993,-17,-13,-4
3204,48,14,1003,-16,-25,-8
3205,152,10,1001,-16,-18,-7
3206,163,19,1002,-13,2,-4
3207,62,42,1004,-9,20,-1
3208,-87,62,996,-11,27,4
3209,-164,45,987,-15,13,1
3210,-141,31,977,-15,-7,-3
3211,7,19,1007,-18,-25,-6
3212,122,6,1017,-17,-22,-7
3213,175,14,1005,-14,-4,-6
3214,97,42,991,-11,16,0
3215,-51,54,999,-12,26,3
3216,-157,51,983,-13,17,1
3217,-152,41,984,-19,-2,-1
3218,-37,20,1005,-19,-21,-6
3219,97,6,1007,-17,-24,-8
3220,178,12,1000,-14,-9,-7
3221,123,35,1004,-13,14,-2
3222,-8,46,1014,-11,25,2
3223,-138,58,975,-12,20,1
3224,-163,46,982,-16,4,-1
3225,-84,21,997,-17,-17,-5
3226,68,8,1002,-20,-26,-8
3227,172,13,1009,-15,-16,-9
3228,145,27,1002,-13,8,-3
3229,33,43,1003,-12,24,0
3230,-110,58,983,-11,25,1
3231,-170,44,988,-15,8,1
3232,-120,25,992,-18,-12,-5
3233,36,13,1010,-17,-24,-7
3234,151,11,999,-16,-19,-8
3235,169,14,998,-12,1,-4
3236,72,45,999,-10,20,0
3237,-81,57,1000,-14,27,4
3238,-163,46,987,-15,14,-1
3239,-147,30,975,-17,-7,-2
3240,-1,21,1006,-17,-24,-7
3241,117,1,1014,-16,-20,-7
3242,175,20,1009,-13,-6,-5
3243,106,41,999,-12,14,0
3244,-40,53,1000,-12,26,2
3245,-156,48,980,-17,19,1
3246,-156,38,982,-16,-2,-2
3247,-52,15,1007,-18,-22,-6
3248,90,5,1005,-17,-25,-8
3249,182,17,1001,-13,-11,-6
3250,127,36,1001,-12,12,-1
3251,0,50,1009,-10,24,1
3252,-134,58,985,-13,23,2
3253,-167,45,989,-16,5,0
3254,-90,19,989,-15,-16,-6
3255,65,9,1005,-18,-25,-7
3256,165,12,1005,-14,-16,-7
3257,152,24,1004,-11,7,-2
3258,43,49,1002,-12,23,0
3259,-101,61,983,-12,25,3
3260,-168,43,984,-15,9,0
3261,-126,24,990,-17,-10,-3
3262,27,16,1018,-16,-24,-6
3263,139,7,1003,-16,-21,-8
3264,176,17,997,-11,0,-5
3265,81,46,997,-9,20,0
3266,-69,58,998,-13,27,3
3267,-164,47,993,-14,16,2
3268,-148,34,974,-17,-4,-3
3269,-15,15,1007,-18,-23,-7
3270,109,0,1011,-17,-21,-9
3271,176,19,1002,-13,-8,-6
3272,115,40,1003,-10,13,-1
3273,-30,50,1008,-11,26,2
3274,-147,55,972,-11,20,1
3275,-158,44,979,-14,1,-2
3276,-65,17,1005,-18,-19,-6
3277,84,5,1008,-17,-24,-8
3278,179,14,998,-16,-13,-7
3279,134,30,1000,-13,9,-1
3280,14,47,1006,-10,24,2
3281,-126,60,985,-14,23,4
3282,-167,51,993,-15,7,0
3283,-106,21,993,-20,-14,-5
3284,53,12,998,-19,-25,-7
3285,159,7,1004,-16,-17,-8
3286,157,18,1004,-15,4,-3
3287,54,42,1005,-9,21,-1
3288,-93,61,987,-12,26,4
3289,-165,44,989,-15,11,2
3290,-136,31,981,-13,-8,-3
3291,14,18,1012,-20,-25,-7
3292,130,7,1014,-17,-21,-8
3293,173,16,1005,-13,-2,-5
3294,95,43,988,-11,17,-1
3295,-57,55,1000,-9,26,3
3296,-157,46,990,-13,17,1
3297,-151,40,982,-16,-2,-2
3298,-31,16,1003,-16,-22,-6
3299,96,6,1006,-16,-22,-8
3300,180,20,1000,-12,-10,-6
3301,119,38,1008,-12,14,-2
3302,-16,50,1013,-11,26,1
3303,-140,49,980,-9,21,2
3304,-160,43,978,-16,3,0
3305,-76,17,995,-16,-16,-6
3306,74,10,1009,-16,-23,-9
3307,170,15,1006,-14,-14,-7
3308,140,32,998,-10,8,-2
3309,28,44,1004,-12,23,1
3310,-113,58,984,-11,25,1
3311,-168,47,987,-16,8,0
3312,-113,22,995,-17,-14,-6
3313,38,14,1012,-15,-24,-8
3314,149,11,996,-16,-17,-8
3315,164,18,999,-12,1,-4
3316,65,45,1004,-9,20,-1
3317,-78,59,996,-13,26,3
3318,-163,45,989,-13,13,1
3319,-143,31,979,-16,-7,-2
3320,1,20,1002,-17,-23,-8
3321,117,5,1015,-17,-20,-8
3322,170,21,1010,-14,-5,-4
3323,105,40,995,-11,15,-1
3324,-41,49,1002,-12,26,3
3325,-150,47,975,-14,19,0
3326,-153,42,986,-16,1,-2
3327,-51,21,1009,-18,-20,-6
3328,87,6,1004,-17,-23,-8
3329,176,16,1002,-14,-10,-7
3330,123,34,1001,-11,12,-1
3331,5,41,1006,-12,24,1
3332,-131,54,984,-13,23,2
3333,-160,44,991,-14,4,-1
3334,-90,22,989,-17,-16,-5
3335,62,10,1002,-16,-26,-8
3336,160,14,1007,-13,-15,-8
3337,148,26,1002,-14,4,-3
3338,45,41,1000,-12,22,0
3339,-100,60,986,-11,25,3
3340,-163,44,986,-14,10,-1
3341,-127,26,990,-17,-9,-4
3342,25,17,1013,-17,-25,-8
3343,137,11,1007,-15,-20,-7
3344,167,16,998,-12,-2,-4
3345,82,45,990,-10,20,-1
3346,-64,56,999,-14,27,2
3347,-164,44,992,-13,16,0
3348,-144,36,974,-15,-4,-3
3349,-17,21,1009,-17,-21,-6
3350,102,6,1007,-17,-20,-8
3351,177,19,1002,-11,-7,-6
3352,111,39,1007,-13,15,-1
3353,-24,50,1011,-13,27,3
3354,-144,52,975,-14,20,2
3355,-159,42,978,-17,1,0
3356,-67,16,1004,-16,-19,-6
3357,76,5,1009,-17,-24,-6
3358,172,17,1002,-15,-13,-7
3359,134,31,1000,-13,8,-2
3360,18,49,1004,-11,24,1
3361,-121,58,982,-12,24,2
3362,-167,47,992,-15,8,0
3363,-109,17,995,-18,-14,-5
3364,47,14,1002,-16,-24,-8
3365,157,8,999,-16,-18,-8
3366,161,19,1004,-13,4,-4
3367,59,47,1003,-10,20,0
3368,-89,58,994,-13,25,2
3369,-165,46,987,-16,12,0
3370,-138,31,977,-18,-7,-2
3371,11,18,1007,-18,-24,-7
3372,123,3,1015,-18,-21,-8
3373,175,17,1003,-12,-4,-5
3374,95,45,993,-13,16,0
3375,-51,56,995,-11,25,3
3376,-155,49,984,-5,17,-1
3377,-153,43,985,-11,1,-1
3378,-36,18,1004,-20,-21,-6
3379,93,0,1007,-17,-23,-8
3380,182,19,1000,-14,-11,-6
3381,118,37,1005,-12,12,-2
3382,-8,50,1010,-12,26,1
3383,-138,56,981,-13,20,3
3384,-160,50,986,-14,4,-1
3385,-84,15,992,-19,-16,-5
3386,73,7,1005,-17,-24,-7
3387,164,13,1006,-15,-15,-8
3388,144,23,999,-12,7,-2
3389,36,41,1002,-12,22,1
3390,-111,65,982,-10,25,3
3391,-166,46,986,-12,9,1
3392,-124,25,994,-18,-12,-4
3393,34,13,1011,-18,-24,-7
3394,145,4,1003,-17,-19,-8
3395,167,18,995,-11,0,-4
3396,72,46,996,-8,20,0
3397,-72,57,1001,-11,26,3
3398,-168,48,990,-13,14,1
3399,-140,34,974,-15,-6,-2
3400,-7,17,1011,-18,-23,-5
3401,111,2,1006,-17,-22,-7
3402,176,17,1007,-11,-7,-5
3403,112,39,1003,-10,14,-2
3404,-38,49,1005,-10,28,2
3405,-145,53,973,-13,20,1
3406,-156,40,983,-17,1,-1
3407,-60,19,1007,-17,-20,-6
3408,86,4,1008,-16,-24,-8
3409,176,19,1002,-14,-12,-7
3410,131,34,1000,-11,11,-2
3411,11,48,1005,-10,25,2
3412,-129,57,986,-12,24,3
3413,-164,45,995,-17,6,-1
3414,-101,16,987,-18,-16,-5
3415,57,15,1000,-16,-25,-8
3416,158,13,1003,-15,-16,-7
3417,156,23,1005,-12,5,-3
3418,51,46,1002,-11,22,0
3419,-92,59,989,-13,26,3
3420,-165,42,986,-15,12,-1
3421,-134,27,982,-16,-8,-3
3422,19,17,1013,-17,-25,-7
3423,127,5,1014,-16,-19,-7
3424,174,19,1001,-14,-2,-4
3425,91,45,989,-11,19,-1
3426,-58,56,998,-11,26,3
3427,-156,44,988,-14,16,1
3428,-150,38,984,-14,-1,-2
3429,-29,17,1003,-18,-22,-7
3430,97,4,1006,-16,-23,-9
3431,183,16,1003,-14,-9,-7
3432,115,44,1005,-13,14,-2
3433,-16,46,1012,-13,26,1
3434,-139,55,980,-14,20,2
3435,-159,45,979,-16,3,-1
3436,-74,19,996,-18,-17,-5
3437,73,6,1010,-17,-25,-7
3438,165,16,1003,-15,-14,-7
3439,141,29,1001,-12,7,-3
3440,27,45,1007,-11,22,0
3441,-112,61,982,-13,24,2
3442,-163,44,992,-15,8,-1
3443,-117,18,993,-15,-13,-5
3444,41,14,1007,-18,-25,-6
3445,148,8,1001,-17,-18,-7
3446,159,19,994,-13,1,-4
3447,68,46,1003,-8,18,-2
3448,-76,57,998,-13,25,2
3449,-164,49,987,-17,13,1
3450,-137,30,978,-17,-6,-3
3451,-4,19,1007,-18,-23,-7
3452,114,5,1009,-17,-22,-7
3453,178,12,1014,-14,-5,-6
3454,102,43,996,-11,16,-2
3455,-39,49,998,-11,27,2
3456,-152,51,982,-12,18,1
3457,-157,44,980,-15,0,-1
3458,-49,18,1007,-18,-21,-7
3459,88,5,1010,-18,-24,-8
3460,175,18,1000,-13,-11,-7
3461,131,30,1000,-14,12,-2
3462,0,49,1011,-11,25,3
3463,-126,57,981,-13,21,1
3464,-160,45,995,-15,6,-1
3465,-96,22,990,-17,-15,-5
3466,62,9,998,-18,-26,-8
3467,161,10,1006,-14,-16,-8
3468,145,26,1001,-14,4,-2
3469,49,43,1005,-11,22,-1
3470,-102,58,982,-11,25,2
3471,-167,48,986,-13,11,0
3472,-130,26,992,-18,-9,-4
3473,20,20,1012,-17,-25,-7
3474,141,6,1006,-16,-21,-9
3475,168,17,1002,-11,-1,-6
3476,81,44,992,-12,19,0
3477,-62,54,999,-15,26,3
3478,-163,44,992,-13,16,0
3479,-148,34,977,-16,-5,-3
3480,-16,15,1005,-17,-24,-6
3481,100,7,1007,-17,-22,-7
3482,178,19,999,-12,-9,-7
3483,115,36,1009,-12,15,-1
3484,-25,49,1007,-12,27,2
3485,-141,51,979,-11,21,1
3486,-158,42,978,-18,2,-2
3487,-72,15,999,-18,-18,-6
3488,80,4,1010,-17,-24,-8
3489,171,16,1003,-14,-13,-8
3490,136,33,996,-11,9,-2
3491,22,46,1008,-11,25,2
3492,-118,62,984,-13,23,2
3493,-168,44,987,-17,7,0
3494,-110,17,997,-19,-14,-5
3495,48,12,1002,-18,-24,-7
3496,153,10,999,-14,-16,-9
3497,159,17,1001,-14,2,-4
3498,58,47,1002,-10,21,1
3499,-86,64,994,-13,26,3
3500,-166,42,987,-15,12,1
3501,-138,30,978,-15,-7,-3
3502,5,19,1007,-19,-24,-7
3503,120,5,1013,-16,-20,-9
3504,175,15,1006,-14,-5,-5
3505,95,45,994,-12,17,-1
3506,-48,52,1000,-10,26,2
3507,-154,51,983,-15,16,1
3508,-157,41,983,-17,-2,-2
3509,-38,15,1007,-22,-21,-8
3510,95,2,1005,-16,-25,-9
3511,178,16,997,-11,-10,-7
3512,123,39,1007,-12,14,-2
3513,-11,50,1010,-11,25,3
3514,-134,55,977,-12,21,1
3515,-162,47,993,-14,5,0
3516,-86,20,986,-19,-15,-5
3517,71,5,1006,-16,-25,-8
3518,166,16,1006,-13,-16,-6
3519,145,26,1003,-12,7,-2
3520,39,44,1003,-12,23,0
3521,-110,61,983,-12,27,3
3522,-164,44,987,-12,9,0
3523,-126,27,993,-16,-10,-3
3524,32,17,1013,-18,-24,-7
3525,142,7,1004,-16,-19,-8
3526,167,17,997,-12,-1,-4
3527,78,46,993,-10,20,-1
3528,-72,58,1002,-13,27,3
3529,-164,44,991,-14,14,1
3530,-145,34,975,-16,-5,-2
3531,-7,14,1007,-18,-22,-6
3532,107,5,1011,-16,-22,-8
3533,176,20,1000,-14,-8,-5
3534,109,41,1007,-11,15,-2
3535,-34,53,1006,-11,27,1
3536,-148,52,973,-14,19,1
3537,-155,42,982,-16,0,-2
3538,-60,15,1006,-18,-19,-6
3539,85,5,1008,-15,-24,-8
3540,173,13,1001,-15,-13,-7
3541,131,36,999,-11,10,-2
3542,17,48,1005,-8,24,0
3543,-130,62,986,-12,24,3
3544,-165,45,992,-16,5,0
3545,-101,23,993,-18,-15,-5
3546,55,10,999,-17,-25,-7
3547,156,11,1001,-14,-16,-7
3548,157,16,1007,-16,5,-4
3549,48,43,1001,-10,21,-1
3550,-90,61,993,-10,26,1
3551,-167,48,989,-15,13,1
3552,-134,32,981,-15,-8,-4
3553,14,21,1012,-20,-25,-7
3554,124,6,1014,-17,-20,-8
3555,172,14,1001,-13,-2,-5
3556,93,41,993,-13,16,-1
3557,-54,50,998,-9,26,3
3558,-157,48,986,-13,17,1
3559,-149,42,985,-15,-1,-2
3560,-31,20,1003,-18,-20,-6
3561,96,3,1004,-21,-22,-7
3562,177,18,999,-12,-10,-6
3563,117,38,1005,-12,14,-3
3564,-15,47,1010,-11,25,2
3565,-138,55,980,-10,20,3
3566,-156,44,984,-16,2,0
3567,-78,18,994,-17,-18,-5
3568,73,6,1006,-17,-24,-8
3569,167,18,1008,-14,-14,-7
3570,141,28,1000,-12,8,-4
3571,32,44,1002,-10,23,1
3572,-112,62,984,-13,24,3
3573,-165,48,985,-16,9,-1
3574,-120,18,995,-18,-13,-5
3575,38,12,1007,-17,-24,-7
3576,145,6,1000,-15,-18,-9
3577,164,21,997,-12,1,-4
3578,69,47,999,-9,21,0
3579,-76,60,1000,-14,26,3
3580,-165,44,988,-17,13,1
3581,-141,32,973,-17,-7,-3
3582,0,14,1007,-17,-22,-7
3583,111,6,1012,-15,-21,-8
3584,177,17,1009,-12,-6,-6
3585,104,42,1000,-11,17,-2
3586,-38,51,1000,-10,27,3
3587,-151,52,977,-13,19,1
3588,-154,42,984,-16,0,-1
3589,-50,17,1007,-20,-19,-6
3590,85,2,1008,-18,-22,-8
3591,180,16,1001,-15,-11,-6
3592,125,35,999,-11,11,-2
3593,3,49,1007,-11,25,1
3594,-131,54,987,-13,23,2
3595,-163,44,991,-17,6,0
3596,-93,17,991,-17,-16,-5
3597,66,9,1001,-16,-25,-7
3598,160,13,1005,-13,-16,-7
3599,149,26,1003,-11,5,-2
3600,41,44,1005,-11,23,1
3601,-101,63,981,-12,24,3
3602,-164,43,987,-17,10,1
3603,-130,28,987,-16,-8,-5
3604,26,14,1014,-19,-25,-8
3605,135,6,1008,-16,-19,-8
3606,169,18,998,-11,-2,-4
3607,83,44,992,-11,19,-1
3608,-66,56,998,-13,26,4
3609,-162,50,991,-13,14,1
3610,-150,36,979,-17,-3,-2
3611,-18,16,1002,-17,-22,-6
3612,103,0,1008,-16,-22,-7
3613,175,19,1002,-14,-8,-4
3614,116,37,1009,-12,14,-1
3615,-24,52,1010,-10,27,2
3616,-145,53,975,-13,20,1
3617,-157,43,979,-15,2,-2
3618,-67,20,999,-17,-19,-6
3619,79,5,1012,-17,-24,-8
3620,173,15,1003,-17,-14,-7
3621,138,29,1000,-15,8,-2
3622,18,44,1003,-9,24,2
3623,-118,60,986,-10,23,3
3624,-166,48,993,-15,7,0
3625,-111,21,992,-16,-14,-4
3626,50,16,1005,-16,-24,-7
3627,157,9,1003,-15,-16,-8
3628,160,21,998,-14,3,-3
3629,60,42,1005,-12,20,0
3630,-92,60,991,-11,25,2
3631,-166,43,987,-13,12,-1
3632,-138,32,979,-16,-8,-3
3633,10,19,1010,-18,-25,-6
3634,124,10,1014,-15,-22,-8
3635,173,14,1002,-14,-4,-5
3636,95,45,994,-12,18,-1
3637,-49,52,996,-11,27,2
3638,-160,44,985,-12,16,1
3639,-151,38,982,-14,-2,-2
3640,-36,13,1006,-19,-21,-6
3641,96,3,1003,-16,-24,-8
3642,181,22,1000,-13,-10,-5
3643,120,40,1005,-13,12,-1
3644,-10,50,1011,-11,25,2
3645,-136,52,979,-14,21,2
3646,-162,43,982,-15,3,-1
3647,-79,16,995,-16,-18,-5
3648,70,5,1006,-17,-24,-7
3649,168,15,1007,-14,-15,-6
3650,145,28,1002,-12,7,-3
3651,31,47,1002,-11,24,1
3652,-109,58,981,-12,24,2
3653,-165,45,986,-14,9,1
3654,-121,18,994,-17,-12,-5
3655,36,15,1013,-16,-24,-7
3656,147,8,998,-16,-18,-8
3657,165,19,997,-11,1,-4
3658,73,45,998,-10,20,0
3659,-77,63,1003,-13,26,3
3660,-161,45,988,-15,14,1
3661,-146,34,977,-17,-5,-2
3662,-3,16,1000,-19,-24,-7
3663,109,2,1015,-16,-21,-9
3664,177,15,1009,-15,-7,-6
3665,105,42,996,-11,16,0
3666,-31,54,1002,-9,26,3
3667,-151,50,980,-14,19,2
3668,-155,46,985,-17,0,-2
3669,-51,19,1005,-18,-21,-6
3670,86,4,1006,-18,-23,-8
3671,178,15,1001,-14,-11,-6
3672,130,34,999,-11,10,-3
3673,3,48,1009,-12,25,1
3674,-132,59,984,-12,22,2
3675,-164,46,989,-14,5,-2
3676,-93,15,991,-18,-15,-6
3677,61,8,1000,-17,-25,-8
3678,167,13,1007,-15,-17,-8
3679,149,22,1004,-11,5,-3
3680,46,48,1001,-11,21,-1
3681,-103,64,986,-13,26,4
3682,-166,49,984,-15,12,0
3683,-134,26,991,-18,-9,-3
3684,27,13,1016,-19,-25,-7
3685,137,2,1004,-17,-19,-7
3686,171,14,998,-13,-1,-5
3687,84,40,991,-8,20,-1
3688,-68,57,1002,-10,27,3
3689,-163,52,989,-14,15,1
3690,-149,40,980,-16,-4,-2
3691,-17,19,1002,-18,-23,-6
3692,107,3,1005,-18,-22,-9
3693,181,15,1007,-14,-8,-6
3694,112,37,1001,-13,14,0
3695,-27,50,1013,-11,26,2
3696,-145,49,975,-12,20,3
3697,-161,49,980,-16,1,0
3698,-61,16,1002,-19,-19,-6
3699,80,4,1013,-17,-24,-7
3700,178,17,997,-14,-14,-7
3701,135,30,1000,-13,10,-1
3702,18,46,1008,-9,24,1
3703,-126,58,985,-15,22,2
3704,-164,51,994,-15,7,-1
3705,-107,17,995,-18,-14,-5
3706,53,12,997,-15,-24,-8
3707,157,9,1003,-16,-16,-8
3708,156,22,1002,-13,3,-4
3709,54,41,1002,-12,22,0
3710,-93,61,991,-14,26,3
3711,-164,48,984,-16,9,-1
3712,-136,28,982,-15,-8,-4
3713,15,20,1009,-17,-25,-7
3714,127,7,1014,-19,-20,-8
3715,173,13,1001,-11,-2,-5
3716,95,41,992,-12,17,-2
3717,-57,57,997,-12,27,3
3718,-163,47,989,-13,18,1
3719,-150,37,983,-18,-3,-2
3720,-30,17,1001,-17,-23,-6
3721,98,0,1005,-18,-23,-8
3722,176,16,1003,-12,-9,-5
3723,120,41,999,-11,14,-3
3724,-15,42,1018,-13,25,2
3725,-139,56,974,-10,21,2
3726,-161,45,978,-16,4,-1
3727,-74,18,998,-17,-17,-5
3728,70,6,1008,-17,-24,-9
3729,172,17,1006,-17,-15,-8
3730,138,26,999,-12,8,-1
3731,26,46,1005,-11,23,0
3732,-117,55,983,-12,24,3
3733,-167,48,990,-15,7,0
3734,-115,21,995,-19,-14,-5
3735,44,14,1004,-16,-26,-8
3736,152,13,999,-16,-18,-8
3737,165,18,1001,-13,2,-5
3738,63,43,1002,-10,20,0
3739,-84,59,993,-14,27,3
3740,-166,40,988,-14,12,0
3741,-145,30,978,-15,-7,-2
3742,5,20,1000,-17,-24,-6
3743,119,6,1020,-16,-20,-9
3744,176,19,1007,-13,-3,-4
3745,99,40,993,-11,18,0
3746,-48,54,997,-11,27,3
3747,-159,45,985,-14,18,1
3748,-151,42,981,-15,0,-1
3749,-42,17,1007,-18,-20,-6
3750,96,5,1006,-16,-24,-9
3751,177,17,1001,-15,-10,-6
3752,120,38,1004,-12,13,-2
3753,-10,46,1011,-13,25,3
3754,-134,52,981,-13,21,2
3755,-163,44,984,-16,4,0
3756,-82,17,994,-17,-16,-7
3757,68,8,1005,-17,-25,-8
3758,165,16,1007,-15,-15,-7
3759,147,29,1003,-14,6,-3
3760,34,42,1005,-11,23,1
3761,-108,63,981,-11,26,3
3762,-168,38,990,-16,9,1
3763,-124,26,991,-18,-12,-3
3764,35,15,1012,-19,-24,-7
3765,147,9,1001,-15,-19,-9
3766,164,17,996,-14,0,-4
3767,75,46,996,-11,20,-1
3768,-76,57,1003,-14,27,3
3769,-166,47,986,-14,14,0
3770,-144,31,975,-17,-6,-2
3771,-5,19,1008,-16,-22,-6
3772,112,4,1012,-16,-22,-9
3773,178,20,1009,-14,-5,-6
3774,106,43,999,-11,15,0
3775,-35,51,1002,-10,27,3
3776,-150,51,976,-12,19,1
3777,-155,40,982,-15,0,-1
3778,-53,17,1008,-18,-21,-6
3779,86,0,1004,-16,-23,-8
3780,178,16,1000,-13,-11,-8
3781,130,32,1003,-10,11,-3
3782,4,51,1007,-11,24,1
3783,-128,59,987,-12,22,2
3784,-165,48,989,-16,5,1
3785,-96,17,987,-17,-15,-5
3786,60,8,1003,-17,-25,-8
3787,164,6,1007,-15,-16,-7
3788,153,23,1002,-11,4,-2
3789,46,46,1005,-9,22,0
3790,-101,63,984,-11,26,2
3791,-167,49,982,-13,11,1
3792,-129,25,991,-18,-10,-3
3793,23,20,1015,-17,-25,-7
3794,137,6,1003,-15,-20,-8
3795,173,15,999,-13,-1,-6
3796,84,43,993,-10,19,-1
3797,-67,58,998,-10,26,3
3798,-165,46,993,-17,16,1
3799,-149,37,976,-15,-5,-2
3800,-16,17,1003,-19,-22,-6
3801,105,5,1012,-17,-22,-9
3802,181,16,1002,-13,-8,-5
3803,114,38,1005,-13,14,-1
3804,-28,51,1005,-10,26,4
3805,-149,52,976,-14,20,1
3806,-155,40,980,-17,0,-2
3807,-66,18,1006,-18,-20,-6
3808,80,4,1010,-17,-25,-7
3809,174,19,1003,-16,-12,-7
3810,136,33,997,-12,9,-2
3811,15,41,1007,-11,24,1
3812,-125,56,987,-12,23,2
3813,-170,45,990,-16,7,0
3814,-104,18,990,-17,-13,-4
3815,52,14,1000,-17,-25,-7
3816,158,14,1002,-16,-17,-8
3817,155,25,1008,-14,5,-4
3818,52,45,1002,-13,23,0
3819,-97,59,987,-13,26,2
3820,-165,42,987,-14,11,-1
3821,-138,26,984,-16,-9,-3
3822,16,18,1015,-16,-25,-6
3823,132,8,1010,-16,-21,-8
3824,174,19,999,-12,-2,-6
3825,91,44,993,-11,18,-1
3826,-61,57,1000,-13,26,4
3827,-163,48,988,-13,16,1
3828,-150,37,981,-15,-2,-2
3829,-23,16,1004,-18,-23,-4
3830,101,3,1002,-15,-24,-8
3831,182,19,1007,-12,-9,-6
3832,117,39,1005,-11,13,-1
3833,-19,53,1009,-10,26,2
3834,-145,49,979,-13,21,2
3835,-162,46,976,-16,1,-1
3836,-65,18,1001,-19,-19,-5
3837,77,6,1013,-17,-24,-9
3838,172,17,1000,-14,-13,-7
3839,140,28,1000,-12,10,-3
3840,20,44,1005,-10,25,1
3841,-124,59,986,-15,23,3
3842,-166,46,995,-15,7,-1
3843,-109,23,992,-20,-14,-4
3844,51,15,999,-16,-25,-8
3845,159,11,1004,-15,-16,-7
3846,158,22,1003,-13,3,-3
3847,54,44,1006,-13,21,0
3848,-90,59,988,-11,25,3
3849,-169,42,985,-14,12,1
3850,-135,29,982,-15,-7,-4
3851,13,18,1015,-18,-24,-7
3852,132,12,1008,-17,-20,-8
3853,177,16,1003,-13,-1,-5
3854,90,44,990,-12,19,1
3855,-58,53,999,-11,27,3
3856,-159,44,993,-13,17,1
3857,-155,37,977,-15,-3,-1
3858,-22,19,1003,-17,-24,-9
3859,97,4,1011,-17,-23,-8
3860,179,22,1000,-13,-8,-6
3861,122,35,1008,-12,13,-2
3862,-22,48,1011,-10,26,4
3863,-144,50,972,-12,20,2
3864,-159,43,980,-15,2,-2
3865,-72,18,1002,-18,-19,-6
3866,77,6,1008,-16,-24,-8
3867,176,18,1004,-13,-15,-6
3868,136,35,998,-11,10,-1
3869,23,47,1007,-10,26,1
3870,-126,57,984,-14,25,2
3871,-169,44,994,-18,7,1
3872,-106,17,990,-18,-14,-5
3873,47,13,1002,-16,-26,-7
3874,162,10,1004,-14,-18,-8
3875,159,22,1003,-12,4,-4
3876,56,50,1004,-11,20,0
3877,-90,59,992,-11,26,2
3878,-169,45,982,-16,13,-1
3879,-138,28,984,-19,-9,-2
3880,16,14,1013,-18,-25,-7
3881,129,5,1010,-15,-21,-7
3882,177,17,999,-12,-2,-5
3883,94,45,995,-9,19,0
3884,-57,58,999,-11,27,3
3885,-160,48,991,-14,15,0
3886,-155,38,979,-16,-3,-2
3887,-27,16,1004,-19,-21,-7
3888,104,1,1006,-18,-23,-8
3889,180,20,1002,-14,-10,-5
3890,121,37,1006,-12,14,-1
3891,-18,50,1013,-10,27,2
3892,-144,52,974,-13,20,1
3893,-162,47,976,-15,2,-1
3894,-73,16,1003,-17,-19,-6
3895,74,5,1008,-17,-25,-7
3896,177,16,1003,-13,-13,-7
3897,142,35,997,-11,9,-2
3898,23,47,1006,-11,24,1
3899,-127,61,983,-14,24,3
3900,-168,43,995,-15,7,-1
3901,-109,18,993,-17,-14,-4
3902,53,11,998,-16,-26,-8
3903,163,8,1003,-14,-18,-8
3904,157,24,1005,-12,4,-3
3905,57,50,1006,-12,20,0
3906,-95,59,989,-13,27,3
3907,-170,45,983,-13,13,1
3908,-138,25,987,-18,-9,-3
3909,14,14,1013,-17,-24,-7
3910,132,6,1008,-14,-20,-9
3911,178,17,1002,-12,-2,-5
3912,88,45,989,-10,18,-1
3913,-58,60,999,-12,26,2
3914,-164,43,994,-14,15,0
3915,-156,35,976,-17,-4,-1
3916,-21,12,1003,-18,-23,-7
3917,101,3,1007,-17,-23,-8
3918,183,18,1002,-12,-8,-6
3919,119,41,1006,-11,14,-2
3920,-25,51,1010,-11,27,2
3921,-145,54,977,-13,20,1
3922,-161,44,977,-16,1,-1
3923,-70,18,1003,-18,-19,-5
3924,83,4,1011,-19,-25,-8
3925,175,16,1002,-14,-14,-7
3926,140,36,997,-12,8,-2
3927,20,45,1010,-10,24,1
3928,-128,57,985,-13,23,3
3929,-169,44,990,-16,7,0
3930,-101,18,995,-18,-14,-5
3931,51,13,995,-18,-27,-6
3932,162,12,1002,-14,-17,-8
3933,157,22,1008,-13,5,-2
3934,49,48,1002,-11,21,1
3935,-94,61,986,-12,26,2
3936,-169,48,985,-15,12,1
3937,-136,26,984,-19,-9,-4
3938,22,18,1018,-17,-25,-8
3939,136,6,1010,-16,-22,-7
3940,175,16,996,-14,-2,-5
3941,91,42,994,-11,18,-1
3942,-62,57,1001,-14,27,3
3943,-158,45,990,-13,15,1
3944,-157,36,978,-18,-3,-1
3945,-16,20,1001,-16,-23,-6
3946,107,5,1014,-16,-21,-7
3947,176,21,1000,-13,-7,-5
3948,113,42,1009,-10,15,-1
3949,-22,48,1007,-14,27,2
3950,-153,49,972,-13,20,3
3951,-157,41,979,-17,0,-3
3952,-65,15,1012,-18,-18,-4
3953,82,10,1002,-16,-25,-8
3954,177,13,1003,-14,-12,-8
3955,137,33,999,-12,10,-3
3956,13,44,1005,-9,25,0
3957,-126,61,989,-14,24,2
3958,-174,43,990,-15,8,0
3959,-99,21,988,-16,-15,-6
3960,58,7,1004,-17,-26,-8
3961,162,13,1004,-14,-18,-9
3962,157,23,1006,-13,5,-3
3963,45,43,1004,-9,22,0
3964,-100,58,988,-12,24,2
3965,-163,43,982,-15,10,0
3966,-135,29,991,-17,-10,-3
3967,25,18,1018,-19,-25,-8
3968,142,7,1003,-17,-20,-8
3969,170,18,995,-13,-2,-5
3970,85,46,996,-10,19,0
3971,-71,59,1002,-12,29,2
3972,-166,46,987,-17,15,0
3973,-152,33,976,-16,-5,-2
3974,-11,20,1002,-17,-23,-6
3975,110,6,1013,-16,-22,-8
3976,180,18,1010,-14,-7,-6
3977,112,43,998,-12,15,-1
3978,-32,52,1001,-12,27,1
3979,-151,49,976,-13,20,1
3980,-161,43,982,-16,1,-3
3981,-57,15,1005,-20,-20,-6
3982,82,2,1007,-17,-24,-8
3983,179,16,1000,-13,-11,-7
3984,132,35,1002,-11,12,-1
3985,3,48,1010,-11,26,1
3986,-130,57,986,-13,22,3
3987,-168,47,984,-16,5,-1
3988,-97,18,989,-18,-15,-6
3989,65,7,1005,-17,-25,-9
3990,165,14,1009,-14,-17,-8
3991,154,27,1001,-11,5,-4
3992,43,43,1006,-10,23,1
3993,-105,62,983,-13,25,2
3994,-172,44,986,-14,9,1
3995,-132,24,995,-17,-11,-5
3996,35,11,1011,-19,-27,-7
3997,146,9,1001,-15,-20,-7
3998,169,18,997,-12,-1,-5
3999,81,46,1004,-10,20,-1
4000,-76,62,1003,-11,28,3
4001,-165,45,986,-14,13,1
4002,-149,30,979,-16,-5,-3
4003,-7,16,1001,-18,-24,-6
4004,119,5,1014,-16,-22,-8
4005,182,13,1011,-14,-4,-6
4006,110,47,992,-13,16,-1
4007,-40,55,997,-11,27,4
4008,-157,51,986,-15,20,1
4009,-165,42,984,-16,-1,-1
4010,-45,16,1003,-18,-23,-7
4011,89,0,1007,-19,-24,-8
4012,186,12,997,-15,-10,-7
4013,129,36,1007,-12,12,-2
4014,-6,51,1013,-11,25,2
4015,-137,55,981,-13,22,1
4016,-168,45,978,-15,4,-1
4017,-86,16,996,-15,-17,-7
4018,66,6,1010,-17,-25,-8
4019,174,13,1004,-15,-15,-8
4020,150,26,1001,-12,6,-4
4021,36,45,1005,-12,24,1
4022,-114,60,984,-13,25,3
4023,-171,49,994,-15,8,-1
4024,-126,19,992,-18,-14,-5
4025,43,19,1003,-17,-25,-8
4026,154,9,1003,-17,-18,-9
4027,168,22,998,-13,1,-4
4028,68,37,1008,-9,21,-1
4029,-86,62,991,-12,27,3
4030,-168,41,983,-13,14,1
4031,-150,32,982,-15,-5,-3
4032,4,18,1007,-18,-25,-8
4033,128,9,1020,-16,-23,-9
4034,180,17,1000,-14,-3,-4
4035,99,43,990,-11,18,-1
4036,-45,49,999,-10,26,3
4037,-168,46,988,-13,18,2
4038,-156,37,983,-16,-4,-3
4039,-33,16,1003,-17,-21,-6
4040,96,8,1003,-16,-23,-8
4041,187,17,1001,-11,-10,-8
4042,118,39,1007,-11,13,-2
4043,-15,49,1010,-14,26,2
4044,-144,48,981,-13,22,2
4045,-168,44,972,-15,2,-1
4046,-73,18,1001,-19,-19,-7
4047,75,5,1013,-17,-24,-8
4048,176,19,1002,-15,-15,-6
4049,149,31,999,-12,7,-2
4050,21,45,1006,-10,26,1
4051,-126,60,985,-12,23,2
4052,-168,45,996,-9,10,0
4053,-113,20,988,-18,-14,-5
4054,50,10,999,-17,-26,-7
4055,165,12,1003,-11,-16,-8
4056,161,24,1007,-14,3,-3
4057,60,46,1004,-8,22,0
4058,-95,61,987,-14,27,2
4059,-171,43,981,-18,12,1
4060,-147,27,985,-16,-8,-4
4061,14,16,1017,-17,-26,-7
4062,136,6,1009,-15,-21,-7
4063,182,16,994,-12,-1,-5
4064,92,41,996,-12,19,0
4065,-62,58,1000,-13,27,3
4066,-167,44,991,-14,16,1
4067,-159,37,973,-18,-3,-2
4068,-18,18,1003,-16,-23,-6
4069,107,3,1009,-17,-22,-8
4070,181,20,1010,-13,-8,-5
4071,117,40,1000,-13,15,-1
4072,-26,48,1003,-13,27,2
4073,-151,51,978,-11,21,1
4074,-163,40,981,-15,1,-1
4075,-61,18,1004,-15,-19,-6
4076,81,7,1008,-18,-25,-9
4077,182,16,1000,-14,-13,-8
4078,139,31,1002,-12,12,-1
4079,9,47,1007,-12,26,2
4080,-132,53,987,-14,23,2
4081,-168,44,987,-16,6,-1
4082,-100,18,985,-16,-15,-5
4083,58,10,1005,-15,-27,-8
4084,168,16,1011,-12,-17,-8
4085,155,24,1000,-13,6,-4
4086,45,47,1005,-12,23,1
4087,-104,58,988,-13,26,2
4088,-172,46,980,-15,10,1
4089,-133,20,995,-18,-11,-4
4090,30,20,1012,-16,-25,-7
4091,143,9,1000,-16,-20,-8
4092,174,19,995,-12,0,-5
4093,78,44,1004,-11,19,0
4094,-74,57,998,-13,27,3
4095,-167,41,989,-13,13,1
4096,-155,35,974,-15,-7,-2
4097,-2,19,1003,-15,-23,-8
4098,119,8,1019,-16,-21,-7
4099,179,16,1007,-14,-6,-4
4100,112,43,992,-13,15,-1
4101,-38,50,998,-13,26,3
4102,-163,51,982,-14,19,2
4103,-160,36,983,-16,-1,-1
4104,-46,20,1006,-16,-20,-6
4105,94,4,1006,-16,-25,-8
4106,186,15,1001,-12,-11,-6
4107,130,39,1005,-12,13,-2
4108,-1,48,1017,-11,26,1
4109,-142,53,982,-13,22,2
4110,-168,45,974,-15,5,-1
4111,-83,16,1000,-15,-16,-6
4112,67,5,1011,-15,-26,-10
4113,177,13,999,-15,-17,-8
4114,149,27,1001,-10,7,-3
4115,31,45,1003,-11,24,1
4116,-115,59,985,-13,24,3
4117,-175,47,992,-13,9,0
4118,-122,20,992,-18,-14,-4
4119,44,16,1001,-16,-25,-8
4120,157,10,998,-16,-18,-8
4121,169,21,1006,-14,1,-3
4122,66,43,1005,-11,21,0
4123,-87,62,990,-13,27,3
4124,-168,44,985,-14,13,0
4125,-149,28,981,-16,-7,-2
4126,8,19,1012,-19,-25,-6
4127,130,4,1015,-14,-23,-8
4128,178,17,1001,-13,-3,-4
4129,100,43,990,-10,18,-1
4130,-56,57,1001,-11,29,3
4131,-162,45,992,-15,17,2
4132,-161,37,977,-17,-3,-3
4133,-29,16,1001,-18,-22,-7
4134,103,4,1012,-15,-23,-8
4135,186,16,1003,-13,-10,-7
4136,121,41,1003,-11,12,-2
4137,-18,49,1012,-11,27,1
4138,-148,55,977,-12,21,2
4139,-162,42,975,-16,2,-1
4140,-73,15,1005,-19,-19,-6
4141,77,4,1012,-15,-25,-9
4142,182,11,999,-16,-13,-8
4143,138,33,999,-10,9,-2
4144,20,47,1009,-10,24,2
4145,-126,58,986,-13,25,3
4146,-173,46,991,-15,8,-1
4147,-104,20,990,-19,-15,-4
4148,52,7,1001,-18,-25,-8
4149,167,14,1004,-12,-17,-8
4150,159,21,1007,-13,4,-4
4151,52,45,1004,-10,21,0
4152,-101,60,983,-10,27,3
4153,-173,47,984,-15,12,0
4154,-138,23,992,-17,-9,-4
4155,21,17,1014,-17,-25,-8
4156,143,5,1003,-16,-21,-8
4157,179,18,998,-10,-1,-5
4158,89,45,995,-10,20,-1
4159,-71,62,1002,-12,27,2
4160,-164,47,993,-14,15,0
4161,-155,34,971,-17,-5,-3
4162,-13,17,1004,-16,-23,-7
4163,112,4,1014,-15,-23,-8
4164,179,14,1013,-12,-7,-6
4165,118,37,995,-8,15,-1
4166,-39,53,1001,-11,29,4
4167,-148,49,981,-15,18,2
4168,-165,45,982,-16,0,-1
4169,-53,19,1004,-18,-22,-7
4170,86,4,1006,-15,-25,-8
4171,181,14,998,-13,-10,-6
4172,130,33,1003,-14,13,-2
4173,1,48,1015,-9,25,1
4174,-133,51,983,-13,22,1
4175,-168,47,980,-15,6,0
4176,-91,18,990,-15,-15,-5
4177,59,6,1011,-17,-26,-8
4178,170,15,1004,-14,-15,-7
4179,150,23,1002,-11,5,-5
4180,40,46,1007,-12,24,0
4181,-112,60,984,-10,26,3
4182,-172,47,990,-15,10,0
4183,-126,20,993,-19,-12,-4
4184,33,14,1002,-15,-25,-8
4185,154,8,1000,-17,-20,-8
4186,170,17,1001,-12,0,-2
4187,75,47,1003,-11,20,0
4188,-79,61,999,-13,27,3
4189,-166,47,985,-14,14,1
4190,-151,29,975,-18,-6,-3
4191,3,19,1010,-16,-25,-6
4192,122,5,1016,-16,-23,-7
4193,182,14,1004,-15,-5,-5
4194,104,40,991,-12,17,-1
4195,-47,56,997,-10,26,3
4196,-160,47,988,-14,18,1
4197,-161,42,982,-15,-2,-2
4198,-36,19,1001,-17,-23,-7
4199,96,5,1005,-17,-24,-9
4200,182,18,1005,-14,-11,-7
4201,125,38,1003,-13,13,-2
4202,-9,49,1014,-12,27,2
4203,-142,49,978,-11,21,1
4204,-170,45,976,-13,2,0
4205,-76,19,999,-17,-17,-6
4206,68,5,1010,-17,-25,-8
4207,179,15,1002,-14,-16,-8
4208,146,28,1000,-12,8,-2
4209,24,48,1004,-11,24,1
4210,-121,56,989,-13,26,2
4211,-173,46,992,-15,8,0
4212,-109,18,990,-17,-14,-4
4213,49,10,1000,-18,-25,-8
4214,160,13,1004,-15,-18,-7
4215,163,23,1005,-14,3,-3
4216,57,45,1006,-11,22,1
4217,-93,61,985,-10,26,2
4218,-168,47,984,-16,12,1
4219,-142,29,985,-17,-8,-3
4220,15,15,1016,-16,-24,-7
4221,139,8,1009,-16,-20,-9
4222,175,17,993,-12,-2,-5
4223,93,43,993,-11,19,-2
4224,-63,59,1003,-11,26,3
4225,-165,48,989,-13,16,2
4226,-157,35,978,-17,-3,-1
4227,-19,20,999,-16,-22,-6
4228,110,7,1016,-18,-23,-8
4229,182,15,1009,-15,-8,-6
4230,120,41,1000,-12,14,0
4231,-25,49,1003,-13,28,2
4232,-154,51,981,-14,20,3
4233,-160,41,977,-15,1,-1
4234,-61,19,1006,-19,-20,-6
4235,82,5,1006,-16,-26,-9
4236,183,17,1004,-14,-13,-7
4237,136,30,999,-11,10,-1
4238,7,49,1014,-10,26,2
4239,-129,52,986,-15,21,1
4240,-174,49,978,-15,6,0
4241,-92,18,993,-18,-16,-6
4242,58,11,1004,-18,-25,-7
4243,167,13,1005,-16,-18,-9
4244,156,24,1004,-14,7,-3
4245,42,44,1007,-12,25,3
4246,-108,61,981,-12,26,3
4247,-172,43,991,-15,10,1
4248,-132,25,995,-16,-11,-3
4249,32,12,1009,-16,-25,-9
4250,150,15,1001,-13,-19,-8
4251,170,15,995,-13,0,-4
4252,76,47,1005,-10,19,-1
4253,-77,55,998,-15,26,3
4254,-168,43,985,-13,14,-1
4255,-150,30,978,-15,-6,-3
4256,-7,22,1003,-16,-24,-6
4257,126,6,1019,-17,-24,-9
4258,179,19,1005,-13,-6,-4
4259,106,45,992,-13,16,0
4260,-40,50,998,-12,26,4
4261,-162,47,987,-12,19,2
4262,-160,41,981,-17,-2,-3
4263,-42,15,1006,-17,-22,-7
4264,92,5,1003,-16,-25,-8
4265,185,19,1000,-11,-10,-7
4266,128,39,1008,-10,13,-2
4267,-9,50,1015,-9,26,3
4268,-141,53,978,-12,20,3
4269,-169,44,978,-18,4,-1
4270,-80,16,996,-17,-16,-5
4271,69,5,1013,-19,-24,-8
4272,179,13,1002,-14,-16,-8
4273,146,29,1000,-10,8,-2
4274,29,48,1005,-12,25,1
4275,-122,59,984,-12,27,2
4276,-174,47,996,-16,8,0
4277,-117,16,989,-20,-14,-5
4278,43,13,1000,-16,-25,-8
4279,163,10,1002,-15,-18,-8
4280,163,23,1003,-13,2,-3
4281,61,44,1007,-11,21,-1
4282,-94,62,989,-10,28,3
4283,-170,45,983,-13,14,0
4284,-144,28,982,-17,-7,-4
4285,10,21,1014,-17,-24,-7
4286,139,4,1010,-16,-22,-8
4287,174,17,996,-13,-3,-5
4288,97,45,993,-10,19,-1
4289,-59,57,1003,-11,28,2
4290,-165,46,994,-13,17,0
4291,-157,32,973,-17,-4,-2
4292,-23,18,1003,-17,-23,-7
4293,101,4,1010,-15,-23,-9
4294,182,19,1008,-14,-9,-6
4295,122,37,1005,-11,14,-2
4296,-24,54,1003,-12,29,3
4297,-147,51,976,-11,20,0
4298,-167,47,979,-14,2,-2
4299,-62,19,1004,-18,-20,-6
4300,79,4,1008,-17,-22,-7
4301,178,18,1000,-15,-13,-6
4302,141,33,999,-12,10,-1
4303,7,47,1011,-11,25,2
4304,-128,52,986,-14,23,2
4305,-172,47,985,-15,7,-1
4306,-100,21,988,-18,-15,-5
4307,57,9,1003,-17,-24,-7
4308,165,13,1010,-15,-17,-9
4309,157,24,1005,-14,5,-4
4310,46,42,1003,-12,22,0
4311,-103,59,983,-13,25,2
4312,-171,49,987,-12,10,0
4313,-133,26,990,-17,-10,-4
4314,27,15,1012,-19,-26,-7
4315,143,9,1000,-17,-21,-8
4316,174,15,995,-14,-1,-4
4317,79,44,1001,-11,19,0
4318,-75,59,1002,-11,29,3
4319,-165,45,990,-15,16,0
4320,-152,33,977,-14,-4,-2
4321,-6,18,1001,-17,-23,-7
4322,113,4,1019,-17,-22,-8
4323,184,18,1006,-12,-6,-7
4324,111,39,995,-11,15,-2
4325,-39,54,997,-9,26,2
4326,-158,49,987,-12,17,1
4327,-164,41,983,-14,-2,-3
4328,-46,19,1003,-18,-21,-5
4329,93,6,1007,-18,-25,-8
4330,183,17,997,-14,-11,-6
4331,130,39,1005,-11,13,-2
4332,-4,46,1018,-11,26,3
4333,-140,54,978,-12,22,3
4334,-168,44,974,-15,4,0
4335,-83,16,999,-16,-18,-5
4336,68,11,1007,-17,-25,-9
4337,175,19,1005,-16,-16,-8
4338,148,28,996,-12,7,-3
4339,33,45,1005,-11,24,1
4340,-116,57,983,-13,26,2
4341,-172,46,996,-15,9,1
4342,-117,21,992,-18,-13,-5
4343,41,16,1004,-15,-25,-8
4344,156,14,999,-16,-18,-8
4345,166,19,1004,-15,2,-4
4346,62,47,1007,-10,20,1
4347,-88,56,990,-14,26,4
4348,-168,46,985,-14,13,0
4349,-146,26,980,-16,-8,-2
4350,9,20,1012,-17,-26,-8
4351,132,8,1014,-16,-22,-10
4352,176,18,997,-12,-4,-6
4353,103,46,992,-11,18,-1
4354,-56,56,999,-13,28,3
4355,-162,47,990,-15,15,1
4356,-158,35,975,-16,-3,-3
4357,-32,18,1005,-16,-22,-7
4358,104,3,1006,-16,-23,-10
4359,178,20,1006,-11,-10,-6
4360,123,35,1005,-12,12,-2
4361,-16,51,1013,-12,27,3
4362,-148,52,972,-14,21,2
4363,-163,47,976,-15,2,-1
4364,-64,15,1007,-18,-19,-5
4365,74,8,1006,-15,-24,-8
4366,183,13,1004,-13,-13,-7
4367,136,30,1000,-11,10,-1
4368,18,47,1002,-11,24,2
4369,-126,56,994,-14,24,2
4370,-172,47,989,-16,6,-1
4371,-100,16,987,-16,-14,-6
4372,54,12,1003,-16,-23,-7
4373,162,15,1007,-15,-16,-7
4374,160,24,1004,-14,5,-3
4375,50,42,1006,-13,22,1
4376,-101,62,986,-13,26,3
4377,-169,43,984,-14,10,0
4378,-137,25,991,-17,-10,-4
4379,21,18,1016,-17,-24,-6
4380,147,9,1005,-16,-20,-9
4381,173,15,992,-13,-1,-4
4382,87,45,998,-9,20,-1
4383,-68,57,1005,-15,27,2
4384,-168,47,984,-14,16,1
4385,-152,32,976,-16,-5,-3
4386,-14,20,1000,-16,-24,-6
4387,111,3,1013,-20,-23,-9
4388,183,13,1011,-28,-12,-7
4389,111,41,997,-7,15,-1
4390,-32,48,996,-13,27,2
4391,-154,50,982,-12,20,1
4392,-166,42,982,-15,-1,-2
4393,-52,19,1004,-20,-22,-6
4394,85,2,1004,-16,-24,-8
4395,180,17,1000,-15,-13,-6
4396,133,35,1005,-14,11,-3
4397,0,48,1014,-10,25,2
4398,-132,55,984,-13,21,2
4399,-171,44,978,-14,5,0
4400,-90,18,990,-17,-16,-5
4401,65,6,1008,-17,-25,-7
4402,170,19,1006,-15,-16,-8
4403,154,26,1000,-13,6,-3
4404,35,46,1004,-9,24,2
4405,-113,61,981,-12,27,3
4406,-170,44,993,-15,9,-1
4407,-126,20,992,-17,-12,-4
4408,37,14,1003,-15,-25,-8
4409,155,11,1001,-14,-18,-9
4410,166,22,1000,-12,0,-3
4411,73,47,1005,-9,21,-1
4412,-82,60,997,-13,28,3
4413,-171,44,983,-16,14,2
4414,-146,30,980,-14,-7,-2
4415,0,18,1009,-17,-25,-7
4416,126,6,1015,-16,-23,-10
4417,180,15,1004,-13,-3,-5
4418,100,46,987,-11,16,0
4419,-45,57,998,-10,26,3
4420,-166,46,992,-14,19,1
4421,-160,40,979,-15,-1,-1
4422,-35,16,1002,-17,-21,-5
4423,95,2,1005,-15,-24,-8
4424,181,18,1000,-14,-10,-7
4425,125,41,1008,-9,14,-3
4426,-15,49,1010,-13,26,3
4427,-142,55,977,-14,22,1
4428,-167,43,976,-15,4,0
4429,-75,16,1000,-19,-19,-5
4430,78,0,1015,-19,-24,-8
4431,177,18,997,-13,-15,-8
4432,143,31,1000,-13,8,-2
4433,21,48,1005,-10,24,0
4434,-129,57,986,-14,25,3
4435,-167,44,992,-16,7,1
4436,-110,18,992,-18,-13,-4
4437,51,12,1000,-17,-25,-6
4438,163,13,1004,-15,-16,-7
4439,158,22,1006,-12,5,-3
4440,57,45,1007,-12,21,1
4441,-95,59,986,-11,25,2
4442,-170,46,978,-16,11,1
4443,-141,24,994,-16,-9,-3
4444,21,14,1014,-17,-26,-7
4445,137,4,1004,-18,-22,-8
4446,180,19,995,-11,-2,-5
4447,86,43,998,-10,20,-1
4448,-64,60,997,-12,27,2
4449,-165,46,992,-14,15,1
4450,-155,36,973,-17,-6,-3
4451,-13,14,1001,-19,-22,-7
4452,109,5,1015,-16,-22,-8
4453,180,17,1007,-16,-9,-5
4454,114,38,997,-10,14,0
4455,-29,52,1001,-12,27,3
4456,-153,51,978,-14,21,1
4457,-163,44,982,-15,2,-1
4458,-56,18,1006,-19,-21,-6
4459,87,3,1007,-17,-25,-8
4460,182,17,1000,-13,-10,-7
4461,136,36,1001,-13,12,-1
4462,7,48,1016,-10,26,2
4463,-134,55,982,-12,22,2
4464,-168,47,983,-18,4,-1
4465,-93,19,990,-17,-16,-6
4466,60,6,1003,-17,-24,-8
4467,171,14,1010,-13,-16,-7
4468,154,23,1000,-10,6,-3
4469,41,46,1004,-11,25,1
4470,-109,58,985,-10,26,2
4471,-175,47,988,-15,9,1
4472,-128,25,993,-18,-12,-3
4473,33,12,1006,-17,-25,-7
4474,149,10,1001,-16,-19,-8
4475,175,15,995,-13,-2,-3
4476,75,42,1005,-10,19,0
4477,-78,59,998,-11,25,2
4478,-166,45,986,-15,14,1
4479,-148,32,974,-16,-6,-3
4480,-3,20,1007,-17,-23,-6
4481,121,7,1018,-17,-22,-8
4482,180,16,1006,-14,-4,-5
4483,105,43,988,-10,17,-1
4484,-44,52,998,-13,26,3
4485,-160,46,988,-15,18,0
4486,-159,42,980,-15,-1,-2
4487,-42,19,1003,-17,-22,-6
4488,98,5,1009,-16,-25,-8
4489,184,18,999,-14,-11,-5
4490,126,41,1007,-12,13,-2
4491,-10,48,1015,-13,24,3
4492,-140,53,976,-14,20,2
4493,-166,41,975,-16,4,-1
4494,-79,17,1001,-15,-17,-6
4495,69,4,1011,-18,-24,-8
4496,176,19,1003,-14,-15,-7
4497,145,30,1002,-13,8,-2
4498,27,45,1006,-12,25,1
4499,-119,58,985,-13,24,2
4500,-174,42,995,-16,8,1
4501,-116,18,989,-16,-15,-5
4502,47,11,997,-15,-26,-8
4503,157,14,1005,-15,-17,-6
4504,163,25,1003,-12,4,-4
4505,62,44,1007,-11,21,0
4506,-93,62,986,-9,26,4
4507,-173,45,982,-16,13,1
4508,-139,22,990,-16,-8,-3
4509,13,19,1012,-17,-25,-6
4510,139,4,1010,-17,-21,-8
4511,179,16,998,-13,-2,-5
4512,91,43,993,-10,19,0
4513,-60,60,999,-11,27,2
4514,-170,46,995,-13,16,2
4515,-156,38,971,-17,-5,-2
4516,-19,15,1001,-17,-22,-8
4517,109,5,1015,-15,-24,-9
4518,185,16,1007,-13,-8,-6
4519,117,41,1001,-10,14,-1
4520,-30,50,1004,-11,26,2
4521,-149,52,978,-12,20,1
4522,-168,42,978,-17,1,-1
4523,-61,20,1009,-17,-20,-6
4524,83,2,1005,-17,-24,-8
4525,181,18,1000,-14,-12,-6
4526,140,32,1002,-11,11,-3
4527,4,47,1013,-10,25,1
4528,-131,53,984,-13,24,2
4529,-172,46,985,-15,8,0
4530,-96,21,989,-18,-15,-5
4531,61,9,1003,-18,-26,-8
4532,167,14,1010,-15,-16,-8
4533,152,22,1002,-13,6,-3
4534,43,44,1005,-11,23,1
4535,-103,60,982,-12,25,3
4536,-171,51,990,-14,9,0
4537,-130,20,992,-18,-12,-5
4538,28,18,1010,-17,-24,-7
4539,149,9,1000,-18,-19,-8
4540,172,14,999,-12,1,-4
4541,77,41,1000,-8,19,-1
4542,-74,62,1003,-11,28,4
4543,-167,47,988,-14,15,1
4544,-154,33,975,-15,-6,-3
4545,-4,19,1002,-17,-24,-7
4546,119,6,1021,-16,-22,-10
4547,182,19,1006,-13,-6,-7
4548,109,43,992,-10,16,-1
4549,-42,52,998,-12,28,2
4550,-162,47,985,-14,19,2
4551,-161,39,981,-16,-1,-1
4552,-45,20,1004,-20,-21,-7
4553,96,8,1006,-17,-25,-7
4554,182,20,998,-13,-9,-5
4555,129,38,1006,-12,13,-2
4556,-7,49,1017,-14,26,3
4557,-140,49,976,-14,22,2
4558,-167,44,974,-17,5,-1
4559,-82,17,998,-17,-17,-6
4560,70,6,1009,-16,-26,-9
4561,175,18,1004,-14,-15,-8
4562,149,26,998,-10,6,-3
4563,30,48,1006,-11,25,3
4564,-118,57,985,-15,26,2
4565,-176,47,994,-16,7,-1
4566,-114,21,994,-18,-14,-6
4567,40,11,998,-16,-25,-7
4568,157,9,1001,-16,-19,-7
4569,170,16,1007,-12,2,-5
4570,61,45,1005,-10,21,0
4571,-86,60,989,-12,26,3
4572,-168,46,985,-12,14,0
4573,-147,29,982,-14,-8,-4
4574,12,19,1010,-16,-26,-8
4575,131,4,1018,-17,-22,-9
4576,176,16,993,-12,-3,-5
4577,99,43,991,-11,20,-1
4578,-57,56,1002,-13,28,3
4579,-163,48,989,-13,16,2
4580,-154,37,978,-17,-2,-3
4581,-27,20,1004,-17,-21,-6
4582,104,6,1009,-18,-23,-8
4583,179,17,999,-13,-9,-5
4584,120,39,1008,-11,14,-1
4585,-21,48,1005,-12,25,2
4586,-146,51,977,-13,20,1
4587,-167,44,975,-15,1,0
