sequence,AccelerometerX,AccelerometerY,AccelerometerZ,GyroscopeX,GyroscopeY,GyroscopeZ
0,-17,20,1003,-15,-24,-7
1,108,14,1018,-15,-22,-9
2,184,21,1009,-14,-9,-5
3,124,39,997,-12,15,-1
4,-23,48,1008,-12,26,3
5,-148,46,975,-13,20,1
6,-164,37,979,-14,0,0
7,-67,19,1003,-15,-19,-4
8,77,10,1008,-13,-23,-8
9,182,20,999,-20,-15,-7
10,140,38,998,-11,12,1
11,19,45,1012,-15,24,2
12,-125,52,983,-12,24,3
13,-171,42,990,-16,6,0
14,-107,16,987,-18,-14,-5
15,51,11,1003,-14,-26,-7
16,162,17,1003,-15,-17,-8
17,161,27,1011,-13,4,-3
18,60,44,1000,-9,21,1
19,-95,58,988,-13,27,5
20,-169,39,986,-15,13,2
21,-149,27,988,-18,-8,-2
22,15,18,1013,-18,-25,-7
23,131,9,1013,-15,-20,-7
24,179,21,997,-15,-4,-5
25,96,41,995,-12,19,0
26,-55,54,1004,-14,27,3
27,-167,40,989,-14,15,1
28,-157,37,975,-15,-4,-1
29,-28,20,1005,-17,-23,-5
30,99,12,1009,-18,-24,-8
31,185,21,1007,-14,-10,-5
32,126,40,1004,-12,12,-1
33,-15,48,1009,-14,26,4
34,-143,46,975,-14,21,2
35,-167,42,979,-15,2,-1
36,-78,19,1003,-17,-20,-7
37,73,9,1012,-15,-25,-9
38,179,15,1002,-14,-13,-7
39,146,33,998,-12,7,-1
40,32,38,1009,-10,24,1
41,-120,56,985,-14,24,3
42,-169,46,994,-15,8,0
43,-116,19,990,-17,-14,-4
44,42,18,998,-16,-25,-8
45,161,15,1005,-15,-18,-9
46,167,20,1005,-13,2,-2
47,65,44,1003,-9,20,2
48,-86,58,993,-13,26,4
49,-170,40,988,-14,13,1
50,-147,28,979,-15,-7,-3
51,3,22,1014,-18,-25,-8
52,128,11,1015,-15,-22,-8
53,181,17,996,-12,-3,-5
54,105,40,996,-13,18,-1
55,-53,54,1001,-11,27,4
56,-160,42,991,-14,16,1
57,-161,36,978,-17,-2,0
58,-38,23,1002,-18,-22,-5
59,98,10,1009,-16,-23,-8
60,182,20,1003,-13,-10,-6
61,126,38,1005,-13,12,-1
62,-6,44,1016,-11,26,1
63,-140,47,977,-12,21,3
64,-168,45,977,-15,4,-1
65,-82,17,1000,-18,-17,-6
66,64,11,1012,-17,-25,-6
67,175,20,996,-15,-16,-7
68,149,30,1006,-12,8,-3
69,37,45,1005,-14,23,0
70,-111,53,983,-14,25,3
71,-175,45,997,-15,10,-1
72,-124,17,989,-17,-14,-4
73,36,16,1000,-14,-25,-7
74,152,17,1003,-15,-19,-7
75,168,24,1003,-12,1,-4
76,74,44,1009,-11,20,-1
77,-79,59,992,-12,27,3
78,-167,39,987,-15,14,0
79,-151,26,978,-13,-7,-2
80,-3,19,1005,-15,-25,-5
81,122,12,1017,-15,-21,-8
82,181,19,1007,-11,-4,-4
83,110,45,991,-11,17,0
84,-42,53,996,-13,28,2
85,-158,41,993,-14,18,2
86,-162,39,980,-17,-1,-1
87,-50,17,1001,-18,-21,-7
88,89,6,1008,-16,-24,-9
89,182,19,1001,-13,-11,-6
90,132,40,1004,-12,12,-2
91,0,48,1017,-12,26,2
92,-135,51,977,-14,22,3
93,-166,44,978,-16,4,-1
94,-90,18,994,-18,-17,-6
95,60,6,1008,-17,-26,-8
96,173,19,1007,-14,-16,-7
97,155,31,1002,-11,6,-3
98,45,44,1006,-13,24,1
99,-109,58,986,-14,27,4
100,-173,44,989,-14,9,0
101,-126,19,993,-18,-12,-4
102,31,15,1004,-17,-24,-7
103,153,10,1001,-15,-20,-8
104,172,18,1003,-13,0,-5
105,79,48,1002,-10,21,0
106,-77,59,1000,-13,26,3
107,-167,43,989,-16,15,1
108,-156,30,972,-15,-5,-3
109,-5,19,1006,-17,-25,-7
110,113,6,1017,-16,-24,-8
111,182,18,1006,-13,-6,-6
112,115,38,993,-10,15,-1
113,-39,54,997,-11,27,4
114,-152,46,986,-14,18,1
115,-167,41,984,-16,1,-2
116,-52,18,1004,-16,-22,-6
117,88,6,1002,-18,-25,-8
118,183,19,1001,-14,-12,-7
119,136,38,1005,-13,12,-3
120,5,43,1018,-13,26,2
121,-133,51,981,-13,21,3
122,-169,46,982,-17,6,0
123,-93,22,991,-17,-17,-5
124,58,12,1006,-15,-27,-6
125,169,17,1008,-17,-17,-7
126,156,22,1005,-13,6,-3
127,46,44,1000,-11,23,1
128,-103,54,987,-13,27,2
129,-174,46,989,-14,9,-1
130,-134,25,991,-17,-11,-4
131,28,18,1010,-16,-25,-8
132,141,15,1003,-16,-20,-7
133,179,18,997,-14,-2,-3
134,81,40,1001,-12,20,0
135,-71,55,1001,-14,28,4
136,-161,37,989,-14,15,1
137,-159,30,972,-14,-4,-2
138,-12,23,1003,-15,-24,-7
139,110,9,1019,-16,-21,-8
140,181,21,1007,-14,-6,-4
141,121,38,996,-13,15,-1
142,-31,50,1002,-12,27,3
143,-151,43,980,-14,19,3
144,-164,43,985,-12,2,-1
145,-58,19,1003,-17,-20,-5
146,83,7,1006,-17,-26,-8
147,183,19,1003,-13,-13,-6
148,136,37,1003,-12,11,-1
149,9,46,1013,-11,24,2
150,-130,52,986,-12,22,3
151,-172,45,984,-15,5,0
152,-97,17,989,-15,-15,-6
153,56,11,1008,-17,-25,-8
154,165,17,1006,-14,-18,-7
155,160,28,1002,-13,4,-3
156,48,46,1007,-13,23,1
157,-97,58,984,-13,26,3
158,-173,44,985,-13,12,1
159,-141,24,991,-18,-9,-3
160,25,17,1013,-15,-26,-8
161,142,8,1003,-16,-21,-8
162,171,22,994,-13,-2,-5
163,90,39,1003,-13,18,-1
164,-68,56,1001,-12,28,3
165,-166,44,988,-13,16,1
166,-157,34,977,-16,-4,-3
167,-19,22,1001,-17,-24,-6
168,109,9,1015,-18,-24,-8
169,181,18,1010,-14,-7,-6
170,122,39,999,-12,14,-2
171,-24,52,1001,-11,26,2
172,-150,45,981,-11,21,2
173,-167,40,981,-16,2,-1
174,-63,21,1005,-15,-20,-6
175,78,5,1004,-17,-25,-8
176,184,18,1003,-15,-13,-7
177,140,33,1002,-13,10,-2
178,12,43,1010,-12,25,1
179,-124,52,987,-12,23,3
180,-173,47,989,-15,6,1
181,-106,20,987,-16,-14,-4
182,53,9,1004,-18,-25,-7
183,162,17,1007,-15,-18,-7
184,164,23,1006,-14,4,-3
185,56,43,1003,-12,23,1
186,-97,55,985,-12,26,3
187,-170,46,987,-13,12,0
188,-142,23,988,-16,-9,-3
189,15,23,1015,-17,-25,-8
190,139,8,1008,-19,-22,-8
191,171,18,991,-12,-2,-4
192,94,41,998,-12,20,-1
193,-58,57,1008,-13,28,3
194,-167,42,987,-13,15,3
195,-157,34,976,-15,-4,-3
196,-25,19,1003,-16,-22,-8
197,102,12,1009,-16,-21,-8
198,183,19,1009,-15,-9,-6
199,122,39,1002,-11,13,-1
200,-17,47,1004,-12,26,4
201,-146,46,979,-15,21,1
202,-164,44,978,-14,3,-1
203,-71,18,1003,-16,-19,-6
204,74,5,1008,-15,-26,-8
205,178,19,1002,-14,-14,-5
206,145,34,1000,-12,9,-2
207,19,43,1009,-13,25,2
208,-120,52,985,-13,24,1
209,-172,44,992,-15,8,1
210,-114,19,987,-18,-13,-4
211,49,10,1002,-14,-26,-9
212,158,16,1006,-16,-17,-8
213,160,25,1005,-15,3,-3
214,60,44,1008,-12,22,1
215,-93,60,986,-12,26,4
216,-166,41,986,-14,12,2
217,-147,26,987,-18,-9,-4
218,9,19,1014,-19,-26,-6
219,132,9,1010,-17,-22,-9
220,178,18,1000,-14,-3,-4
221,101,43,993,-13,18,0
222,-53,53,1001,-14,28,3
223,-162,44,990,-14,17,1
224,-154,33,980,-15,-3,-2
225,-33,23,999,-18,-21,-5
226,99,5,1010,-16,-23,-9
227,180,20,1004,-13,-9,-5
228,124,41,1004,-13,14,-1
229,-11,47,1013,-12,27,1
230,-143,48,977,-15,21,1
231,-167,45,977,-15,3,-1
232,-76,16,1004,-18,-18,-5
233,69,7,1010,-17,-25,-7
234,176,21,1000,-15,-15,-7
235,151,30,1000,-13,8,-4
236,26,47,1008,-13,24,1
237,-115,54,985,-14,25,3
238,-174,42,996,-14,9,0
239,-118,22,992,-16,-13,-4
240,41,15,998,-14,-23,-8
241,152,16,1003,-15,-17,-8
242,166,22,1001,-15,2,-3
243,70,42,1008,-11,21,-1
244,-82,57,990,-14,27,3
245,-166,41,989,-14,13,2
246,-147,25,982,-15,-6,-3
247,-5,22,1010,-14,-24,-7
248,123,10,1017,-16,-21,-10
249,178,15,1003,-15,-5,-5
250,109,46,988,-11,17,-1
251,-42,54,1001,-12,27,2
252,-157,44,992,-13,17,2
253,-162,38,976,-16,-1,-1
254,-42,17,1005,-17,-21,-7
255,89,4,1006,-16,-24,-8
256,183,21,998,-13,-12,-7
257,131,39,1009,-12,12,-1
258,-4,47,1014,-12,27,3
259,-132,50,980,-13,22,2
260,-168,44,978,-14,4,0
261,-91,16,996,-16,-17,-5
262,66,9,1009,-18,-25,-7
263,172,17,1006,-14,-15,-7
264,153,29,1000,-13,6,-2
265,43,38,1008,-14,24,1
266,-109,57,985,-13,26,3
267,-169,44,990,-16,9,0
268,-130,22,995,-17,-12,-4
269,32,20,1005,-16,-25,-7
270,149,13,1002,-16,-19,-9
271,168,19,999,-14,-1,-4
272,82,42,1002,-10,18,0
273,-71,53,999,-12,27,3
274,-167,42,988,-15,15,1
275,-152,29,975,-14,-5,-2
276,-8,24,1003,-17,-25,-8
277,114,9,1017,-18,-24,-9
278,177,20,1010,-14,-7,-5
279,114,40,994,-12,14,-2
280,-35,50,1002,-11,27,3
281,-154,43,979,-14,20,2
282,-163,41,984,-16,0,-2
283,-54,19,1005,-17,-20,-6
284,81,13,1003,-16,-23,-7
285,183,20,1003,-13,-13,-7
286,133,37,1004,-12,11,-2
287,6,42,1011,-12,24,2
288,-128,48,987,-13,23,2
289,-172,45,986,-16,6,1
290,-96,18,987,-15,-15,-5
291,57,14,1003,-16,-25,-8
292,164,19,1008,-13,-17,-7
293,158,26,1002,-13,5,-3
294,48,43,1006,-14,22,2
295,-98,56,986,-13,26,3
296,-171,43,986,-15,11,1
297,-138,26,993,-17,-11,-4
298,22,18,1013,-17,-25,-8
299,142,9,1005,-16,-20,-8
300,172,19,994,-11,-1,-5
301,90,42,1001,-11,18,0
302,-63,55,1003,-13,27,4
303,-166,43,989,-15,16,2
304,-155,34,976,-15,-5,-4
305,-21,19,1004,-15,-23,-7
306,106,11,1010,-16,-23,-9
307,183,20,1011,-14,-9,-6
308,118,41,1000,-12,15,-1
309,-23,47,1002,-15,28,3
310,-147,46,977,-12,22,3
311,-166,42,982,-13,1,0
312,-68,18,1002,-18,-19,-6
313,77,8,1009,-17,-24,-8
314,177,21,1004,-15,-13,-6
315,146,32,1000,-14,9,-3
316,17,42,1008,-11,24,3
317,-125,57,987,-13,24,3
318,-169,44,994,-16,7,0
319,-111,19,988,-17,-14,-5
320,50,11,997,-18,-25,-7
321,161,16,1005,-13,-17,-9
322,162,21,1004,-13,5,-4
323,60,43,1004,-12,22,1
324,-89,60,989,-12,27,2
325,-168,43,985,-16,12,0
326,-142,28,986,-15,-7,-3
327,8,19,1010,-18,-25,-8
328,134,10,1015,-17,-22,-8
329,177,15,998,-11,-3,-5
330,99,41,989,-13,19,-1
331,-50,53,1006,-12,29,3
332,-164,41,991,-13,18,3
333,-159,36,976,-16,-2,-1
334,-32,22,1006,-16,-21,-6
335,96,7,1005,-15,-23,-8
336,182,22,1001,-14,-9,-6
337,125,40,1007,-13,13,-2
338,-12,47,1011,-13,25,2
339,-139,48,978,-12,20,2
340,-165,44,978,-14,4,1
341,-80,18,1000,-18,-18,-5
342,69,9,1009,-16,-24,-7
343,173,23,1001,-15,-15,-7
344,148,31,999,-1,7,-5
345,27,41,1007,-10,23,1
346,-117,55,987,-13,25,2
347,-172,43,992,-15,9,0
348,-121,19,992,-18,-13,-5
349,39,17,1002,-15,-24,-8
350,155,17,1000,-16,-19,-9
351,168,23,1003,-15,2,-3
352,70,42,1006,-11,21,-1
353,-80,58,995,-16,26,4
354,-166,40,983,-14,13,1
355,-149,28,982,-16,-7,-3
356,0,18,1004,-17,-25,-7
357,118,8,1019,-16,-22,-9
358,181,19,1005,-13,-6,-5
359,107,44,992,-13,15,-1
360,-40,54,1000,-12,27,3
361,-158,45,986,-15,20,2
362,-163,40,984,-16,-1,0
363,-46,18,998,-17,-22,-5
364,88,6,1007,-16,-24,-8
365,182,19,1002,-15,-11,-5
366,132,39,1005,-13,12,-1
367,-1,46,1016,-13,27,2
368,-132,52,983,-13,22,2
369,-168,48,980,-15,4,0
370,-91,19,991,-18,-16,-5
371,64,8,1011,-20,-26,-7
372,168,14,1006,-15,-18,-8
373,155,27,1003,-13,6,-2
374,45,40,1006,-12,24,1
375,-107,62,985,-12,27,4
376,-170,42,988,-14,9,1
377,-128,20,993,-17,-12,-4
378,25,21,1006,-17,-24,-8
379,149,12,998,-17,-20,-8
380,173,17,999,-14,-1,-3
381,76,42,1002,-12,19,1
382,-68,54,998,-13,27,3
383,-169,40,989,-16,16,3
384,-155,33,973,-16,-5,-2
385,-8,19,1007,-15,-23,-8
386,110,10,1017,-16,-23,-8
387,181,18,1009,-14,-6,-5
388,116,38,995,-10,15,-2
389,-37,50,998,-11,25,3
390,-148,46,984,-12,19,0
391,-165,40,984,-15,1,0
392,-58,23,1000,-17,-21,-5
393,86,7,1008,-16,-26,-9
394,181,17,1002,-13,-13,-6
395,136,38,1003,-11,11,-2
396,11,43,1015,-10,25,2
397,-131,52,983,-14,23,2
398,-169,47,982,-17,5,-1
399,-100,19,990,-17,-14,-4
400,57,12,1005,-18,-25,-8
401,168,15,1006,-15,-17,-8
402,157,26,1005,-14,5,-3
403,51,42,1006,-11,23,1
404,-98,56,985,-11,27,3
405,-171,43,987,-15,10,1
406,-136,28,992,-18,-10,-4
407,23,15,1013,-16,-26,-8
408,141,14,999,-15,-21,-8
409,177,18,999,-11,-3,-5
410,91,40,1001,-11,18,0
411,-66,54,998,-13,27,3
412,-164,40,992,-15,15,0
413,-155,32,974,-17,-4,-3
414,-20,21,999,-16,-22,-6
415,107,11,1016,-17,-23,-8
416,179,22,1013,-14,-8,-5
417,122,41,995,-10,14,-2
418,-29,52,1001,-12,27,3
419,-150,44,980,-14,20,0
420,-165,40,980,-14,2,-1
421,-68,18,1000,-16,-19,-6
422,80,5,1008,-17,-25,-8
423,181,21,1000,-14,-13,-6
424,140,41,1000,-11,10,-2
425,16,48,1016,-13,24,1
426,-128,51,986,-14,23,3
427,-170,43,985,-16,7,1
428,-103,16,989,-16,-14,-5
429,52,12,1003,-15,-25,-7
430,166,17,1005,-12,-17,-8
431,159,26,1004,-14,4,-3
432,57,46,1007,-12,21,0
433,-93,55,985,-12,25,2
434,-170,42,984,-14,12,1
435,-141,24,991,-18,-9,-5
436,18,18,1014,-17,-25,-7
437,136,10,1005,-16,-21,-8
438,176,20,993,-14,-3,-4
439,91,41,999,-10,19,-1
440,-62,56,999,-12,26,3
441,-164,43,991,-15,15,0
442,-157,33,975,-17,-5,-2
443,-24,19,1001,-17,-24,-5
444,106,9,1014,-17,-22,-9
445,179,15,1008,-14,-7,-6
446,125,41,1002,-12,14,-2
447,-19,51,1004,-12,27,2
448,-150,48,978,-13,20,2
449,-164,45,980,-14,1,0
450,-69,19,1006,-18,-18,-6
451,75,8,1006,-16,-24,-7
452,178,16,1003,-13,-14,-6
453,142,34,1000,-11,8,-2
454,17,43,1008,-10,25,2
455,-122,54,990,-13,25,3
456,-174,45,990,-16,7,0
457,-109,20,988,-18,-14,-6
458,52,15,1003,-15,-25,-8
459,162,16,1008,-15,-18,-7
460,166,23,1005,-14,3,-3
461,59,40,1004,-12,21,1
462,-93,54,988,-10,27,3
463,-168,42,983,-12,12,0
464,-145,26,988,-16,-8,-4
465,13,19,1015,-16,-25,-8
466,135,14,1005,-16,-21,-8
467,179,22,995,-12,-2,-5
468,98,41,994,-13,18,-1
469,-60,52,1006,-15,27,3
470,-162,43,991,-13,17,3
471,-156,30,974,-16,-4,-2
472,-27,23,1003,-15,-22,-6
473,101,12,1010,-15,-23,-7
474,182,21,1010,-14,-8,-6
475,122,42,1004,-12,13,0
476,-16,47,1004,-11,26,2
477,-142,44,980,-12,21,1
478,-166,41,980,-15,2,0
479,-69,20,1005,-17,-20,-7
480,74,10,1011,-16,-25,-9
481,176,25,1001,-15,-15,-6
482,149,31,999,-13,9,-3
483,19,44,1013,-11,24,2
484,-118,54,983,-15,22,3
485,-170,41,993,-16,8,0
486,-114,21,989,-16,-13,-5
487,49,11,1001,-19,-25,-8
488,158,18,1009,-13,-18,-9
489,161,24,1002,-13,4,-3
490,63,44,1006,-13,22,1
491,-92,58,983,-10,26,4
492,-168,46,983,-14,12,0
493,-147,26,988,-17,-8,-3
494,7,22,1016,-16,-25,-7
495,136,12,1003,-18,-22,-9
496,179,17,999,-12,-2,-4
497,97,42,996,-10,18,0
498,-58,51,1004,-14,28,3
499,-164,40,992,-15,17,0
500,-162,36,974,-17,-3,-2
501,-26,22,999,-16,-21,-7
502,101,9,1014,-16,-22,-7
503,183,19,1009,-14,-10,-5
504,125,35,999,-12,14,-2
505,-15,49,1008,-14,28,3
506,-146,46,979,-13,22,1
507,-167,42,981,-14,2,-1
508,-69,19,1006,-17,-20,-7
509,75,8,1006,-16,-25,-8
510,180,19,1005,-14,-13,-8
511,145,35,999,-14,9,-2
512,20,43,1010,-12,24,1
513,-121,52,990,-13,23,3
514,-172,45,988,-15,8,1
515,-108,18,987,-17,-14,-4
516,48,14,1002,-16,-27,-7
517,160,21,1005,-16,-17,-7
518,164,23,1005,-13,4,-4
519,57,44,1006,-12,21,1
520,-91,55,983,-12,25,3
521,-169,43,986,-15,12,1
522,-144,25,989,-17,-9,-2
523,15,23,1014,-18,-24,-8
524,140,10,1006,-17,-21,-9
525,173,17,992,-13,-3,-4
526,94,43,997,-13,19,-1
527,-59,52,1007,-12,28,4
528,-161,45,989,-15,17,1
529,-157,32,973,-15,-3,-3
530,-24,23,1005,-14,-21,-6
531,102,10,1010,-20,-23,-7
532,182,16,1010,-15,-9,-6
533,120,40,1000,-11,14,-1
534,-22,48,1000,-12,26,3
535,-147,46,982,-12,20,1
536,-168,43,980,-17,2,0
537,-64,20,1005,-16,-20,-5
538,76,11,1005,-17,-25,-8
539,178,20,1001,-14,-15,-7
540,145,36,1002,-12,9,-2
541,12,41,1009,-14,24,2
542,-122,52,987,-11,23,2
543,-173,40,986,-14,8,1
544,-106,24,987,-17,-13,-5
545,53,12,1003,-16,-25,-7
546,163,19,1008,-16,-19,-7
547,161,30,1003,-15,2,-3
548,57,40,1007,-13,22,1
549,-100,58,982,-13,26,3
550,-169,38,991,-14,11,0
551,-140,26,992,-15,-8,-3
552,20,17,1009,-18,-23,-8
553,143,14,1005,-16,-21,-8
554,178,18,996,-14,-2,-4
555,90,44,999,-11,19,0
556,-63,57,1005,-14,27,3
557,-167,46,989,-14,15,2
558,-157,28,971,-17,-5,-2
559,-18,20,1004,-17,-22,-6
560,107,10,1016,-17,-24,-9
561,185,17,1010,-15,-8,-6
562,122,42,997,-11,14,-1
563,-26,53,998,-12,28,2
564,-152,45,982,-13,20,1
565,-169,40,983,-18,2,0
566,-60,20,1005,-19,-20,-6
567,77,5,1005,-17,-25,-7
568,186,19,1000,-12,-13,-7
569,143,35,1003,-12,10,-2
570,7,45,1015,-10,25,2
571,-125,53,985,-12,23,1
572,-174,45,982,-16,7,1
573,-105,21,989,-17,-16,-4
574,57,5,1012,-19,-26,-8
575,165,14,1006,-15,-17,-8
576,157,28,1001,-12,6,-2
577,51,40,1009,-11,23,1
578,-104,58,985,-12,27,4
579,-171,48,990,-14,11,1
580,-139,23,994,-17,-10,-2
581,21,16,1005,-17,-25,-8
582,149,12,998,-16,-20,-10
583,174,15,1000,-13,-1,-4
584,87,44,1008,-10,20,-1
585,-66,55,999,-13,28,4
586,-167,42,987,-13,16,1
587,-160,33,977,-14,-5,-3
588,-9,23,1004,-16,-25,-8
589,112,11,1016,-15,-24,-8
590,184,19,1007,-14,-7,-5
591,120,38,993,-12,16,0
592,-33,51,994,-12,26,4
593,-156,43,992,-13,19,3
594,-167,38,982,-16,0,-1
595,-53,20,1001,-18,-21,-7
596,88,7,1004,-16,-24,-7
597,183,17,1001,-13,-11,-6
598,142,38,1005,-13,13,-1
599,3,48,1016,-12,27,3
600,-135,48,982,-13,23,2
601,-171,44,976,-16,4,0
602,-90,16,993,-17,-16,-5
603,61,7,1014,-16,-25,-9
604,174,20,1003,-16,-16,-7
605,157,33,997,-13,7,-2
606,42,40,1006,-13,24,0
607,-110,58,990,-13,26,3
608,-172,41,988,-16,10,1
609,-130,20,992,-18,-12,-4
610,35,13,1003,-16,-26,-7
611,152,11,1001,-14,-18,-8
612,172,24,1002,-13,1,-4
613,76,42,1010,-12,20,0
614,-77,62,992,-13,26,3
615,-168,43,984,-15,13,2
616,-155,30,984,-14,-6,-2
617,-7,21,1011,-19,-26,-6
618,126,5,1012,-17,-23,-9
619,180,15,1005,-14,-3,-5
620,110,43,991,-11,17,-1
621,-44,52,1002,-11,28,4
622,-161,44,992,-12,18,1
623,-166,38,975,-14,0,0
624,-41,20,1004,-18,-22,-6
625,93,9,1008,-17,-24,-8
626,184,20,1005,-15,-11,-6
627,132,40,1006,-12,12,-2
628,-7,44,1011,-13,26,2
629,-138,49,977,-14,21,1
630,-169,44,975,-14,4,0
631,-81,19,1002,-16,-18,-5
632,64,10,1010,-17,-23,-7
633,176,22,1002,-13,-14,-8
634,152,32,1003,-14,7,-2
635,29,43,1006,-12,25,1
636,-117,54,988,-15,26,2
637,-174,40,993,-17,9,-1
638,-119,20,989,-15,-13,-5
639,37,14,998,-16,-26,-7
640,156,17,1007,-15,-19,-7
641,166,24,1004,-13,2,-3
642,68,45,1007,-12,21,1
643,-84,58,990,-12,26,3
644,-168,40,982,-13,14,1
645,-150,28,986,-15,-8,-3
646,6,18,1016,-15,-24,-6
647,130,9,1008,-18,-23,-8
648,179,17,998,-13,-5,-5
649,104,42,993,-10,17,1
650,-53,52,1001,-14,28,4
651,-161,43,995,-12,17,2
652,-162,31,973,-17,-2,0
653,-34,20,999,-17,-22,-6
654,98,5,1013,-15,-23,-8
655,184,20,1008,-12,-10,-5
656,128,39,1002,-13,13,0
657,-13,50,1009,-12,28,2
658,-143,47,977,-15,22,2
659,-168,43,977,-17,3,-1
660,-74,17,1006,-17,-18,-5
661,68,6,1009,-18,-24,-7
662,180,18,1002,-13,-13,-7
663,144,35,999,-13,9,-3
664,26,47,1010,-11,24,0
665,-123,54,989,-14,25,3
666,-171,48,988,-16,9,0
667,-113,17,989,-17,-13,-4
668,46,12,999,-20,-26,-8
669,161,16,1009,-14,-19,-8
670,168,23,1002,-12,5,-4
671,61,43,1006,-12,22,1
672,-90,60,985,-12,27,3
673,-171,44,986,-14,13,2
674,-147,28,987,-15,-8,-3
675,15,19,1015,-19,-24,-7
676,143,13,1002,-16,-21,-8
677,173,20,994,-13,-1,-3
678,98,43,1002,-12,19,0
679,-65,54,1002,-13,29,5
680,-161,43,986,-13,17,1
681,-161,29,978,-17,-4,-2
682,-27,22,998,-13,-23,-8
683,109,5,1016,-6,-23,-9
684,180,18,1014,-13,-8,-6
685,121,42,998,-8,15,-1
686,-20,52,1002,-17,27,1
687,-152,47,981,-11,21,2
688,-168,41,982,-17,1,-1
689,-64,14,1005,-18,-20,-7
690,75,10,1007,-12,-24,-8
691,180,20,1001,-15,-12,-7
692,144,35,1004,-10,10,-2
693,12,46,1013,-10,24,3
694,-126,53,987,-15,23,3
695,-171,41,983,-14,8,0
696,-104,15,986,-18,-15,-5
697,55,8,1006,-18,-25,-8
698,167,14,1007,-15,-16,-8
699,161,31,1001,-13,5,-4
700,55,44,1008,-10,24,0
701,-101,59,984,-14,26,4
702,-171,46,987,-16,11,0
703,-137,19,994,-13,-10,-4
704,21,18,1009,-18,-24,-8
705,147,13,999,-17,-19,-8
706,177,18,999,-14,-1,-4
707,85,41,1005,-13,20,0
708,-66,56,999,-13,29,3
709,-165,45,990,-14,16,2
710,-159,30,974,-15,-5,-3
711,-14,21,1005,-15,-23,-8
712,113,7,1019,-17,-22,-9
713,179,17,1008,-13,-6,-6
714,118,39,992,-13,15,0
715,-30,51,1000,-13,27,4
716,-154,47,985,-14,19,2
717,-165,44,984,-16,1,-2
718,-53,18,1004,-16,-20,-7
719,83,5,1002,-17,-25,-8
720,185,16,1002,-13,-12,-6
721,134,36,1006,-12,12,-1
722,5,47,1014,-12,26,2
723,-134,51,983,-12,24,3
724,-168,48,980,-15,5,1
725,-91,18,990,-17,-18,-5
726,59,7,1013,-16,-25,-8
727,167,15,1003,-17,-17,-7
728,155,31,1000,-13,5,-2
729,41,41,1007,-11,25,1
730,-106,58,985,-11,27,2
731,-172,48,992,-15,10,0
732,-133,19,993,-18,-11,-4
733,29,15,1003,-17,-25,-8
734,155,10,1003,-17,-19,-9
735,171,21,1000,-14,-1,-4
736,77,39,1007,-9,19,1
737,-78,61,996,-13,29,3
738,-167,39,985,-16,15,0
739,-153,29,980,-15,-5,-3
740,-7,23,1008,-19,-24,-7
741,122,9,1016,-15,-22,-8
742,181,15,1006,-14,-4,-6
743,108,43,990,-12,17,0
744,-44,54,999,-12,27,3
745,-160,43,995,-14,19,1
746,-164,40,976,-16,0,0
747,-43,21,1002,-17,-21,-5
748,92,6,1009,-17,-24,-7
749,180,19,999,-14,-10,-6
750,133,39,1007,-13,11,-3
751,-5,47,1018,-13,26,3
752,-138,51,976,-13,22,3
753,-166,42,974,-17,4,1
754,-87,18,1002,-17,-17,-5
755,64,3,1010,-17,-24,-8
756,176,18,1004,-15,-16,-8
757,151,34,1000,-11,7,-2
758,32,48,1006,-12,23,1
759,-114,56,988,-14,25,3
760,-175,50,993,-15,8,1
761,-121,19,990,-20,-14,-4
762,41,11,1000,-17,-26,-7
763,155,11,1004,-13,-18,-8
764,168,23,1003,-13,3,-3
765,68,42,1009,-11,21,0
766,-85,59,990,-12,27,2
767,-167,44,982,-16,14,0
768,-152,29,984,-17,-7,-2
769,5,22,1012,-20,-24,-6
770,132,5,1011,-18,-21,-8
771,178,15,996,-12,-4,-6
772,106,42,994,-11,18,0
773,-50,56,1001,-11,28,3
774,-165,46,993,-15,17,2
775,-161,36,975,-16,-3,-3
776,-35,22,1004,-17,-21,-5
777,101,4,1009,-18,-24,-9
778,181,16,1008,-13,-9,-6
779,128,36,1004,-11,12,-1
780,-13,52,1012,-13,27,4
781,-144,47,974,-12,21,1
782,-169,47,981,-14,3,0
783,-74,19,1004,-18,-18,-6
784,64,4,1009,-16,-24,-9
785,182,19,1004,-17,-14,-7
786,143,32,1001,-11,10,-2
787,26,47,1005,-11,25,1
788,-123,53,990,-14,25,3
789,-173,48,992,-15,8,0
790,-111,17,987,-16,-14,-3
791,47,16,1002,-15,-25,-8
792,160,17,1004,-15,-17,-8
793,162,22,1006,-12,4,-3
794,59,41,1005,-10,22,1
795,-95,59,986,-11,27,3
796,-168,44,985,-17,12,1
797,-145,26,990,-17,-8,-3
798,12,19,1013,-18,-25,-7
799,135,8,1006,-15,-21,-7
800,178,16,995,-13,-2,-4
801,98,44,998,-10,19,-1
802,-59,57,1002,-11,28,4
803,-161,42,994,-13,16,1
804,-161,35,971,-17,-3,-3
805,-23,18,1001,-16,-22,-8
806,108,4,1017,-15,-23,-8
807,183,17,1010,-12,-8,-4
808,122,43,998,-11,14,0
809,-19,51,1007,-13,27,3
810,-149,53,975,-13,22,2
811,-168,47,980,-16,2,-1
812,-64,19,1006,-19,-20,-6
813,75,2,1006,-17,-25,-7
814,183,16,998,-15,-13,-7
815,139,31,1004,-13,10,-2
816,16,48,1011,-8,24,2
817,-127,54,988,-14,24,2
818,-175,54,986,-16,7,0
819,-108,19,987,-18,-15,-5
820,51,9,1004,-17,-25,-8
821,161,11,1009,-15,-17,-7
822,158,20,1005,-13,4,-4
823,56,39,1004,-12,21,0
824,-98,62,982,-11,26,4
825,-170,47,988,-14,10,0
826,-136,24,992,-17,-8,-4
827,19,20,1011,-18,-24,-6
828,144,8,1001,-18,-21,-8
829,172,17,998,-14,-1,-3
830,89,40,1001,-12,19,0
831,-65,55,1001,-13,28,3
832,-162,41,989,-14,16,1
833,-154,32,973,-16,-4,-1
834,-17,23,1001,-16,-23,-7
835,106,5,1019,-15,-22,-9
836,181,19,1009,-15,-7,-5
837,117,41,994,-13,15,0
838,-30,49,1001,-12,27,2
839,-150,46,984,-13,19,2
840,-163,40,984,-16,0,-1
841,-53,19,1006,-18,-22,-7
842,78,2,1003,-16,-24,-8
843,178,20,999,-13,-12,-7
844,136,35,1008,-14,11,-2
845,2,46,1015,-11,26,3
846,-128,52,985,-14,22,2
847,-166,49,981,-14,5,0
848,-96,18,993,-17,-15,-5
849,57,7,1010,-18,-24,-8
850,164,15,1006,-15,-16,-8
851,156,32,1002,-11,6,-3
852,44,40,1006,-13,23,2
853,-103,63,984,-12,26,3
854,-169,46,993,-17,10,1
855,-129,25,991,-20,-11,-4
856,30,14,1005,-17,-25,-7
857,150,11,1000,-18,-21,-6
858,169,17,999,-12,-1,-3
859,80,44,1003,-9,20,-1
860,-73,59,999,-14,27,3
861,-167,45,983,-15,14,1
862,-150,32,980,-15,-6,-3
863,-7,20,1002,-18,-24,-7
864,117,4,1020,-15,-22,-9
865,180,12,1004,-12,-6,-5
866,110,43,992,-12,17,0
867,-36,52,1000,-12,27,2
868,-159,47,988,-16,21,1
869,-168,42,980,-15,0,-2
870,-48,19,1004,-16,-22,-6
871,85,5,1006,-16,-25,-7
872,183,15,999,-12,-13,-6
873,128,35,1008,-12,12,-1
874,-2,47,1017,-12,26,3
875,-137,50,976,-13,21,2
876,-170,47,978,-14,4,-1
877,-88,18,999,-18,-16,-5
878,62,4,1010,-17,-25,-8
879,173,16,1003,-16,-17,-8
880,149,29,1002,-12,7,-2
881,39,47,1005,-11,24,2
882,-114,56,986,-16,24,3
883,-169,48,995,-13,8,0
884,-120,18,991,-17,-13,-4
885,37,13,999,-15,-25,-7
886,151,12,1001,-15,-18,-7
887,168,18,1004,-14,1,-5
888,72,45,1004,-11,20,1
889,-82,60,993,-14,27,3
890,-166,42,981,-15,14,1
891,-148,28,982,-17,-6,-3
892,1,20,1009,-17,-25,-7
893,123,7,1015,-15,-22,-7
894,183,17,1002,-12,-5,-5
895,102,43,991,-11,19,0
896,-47,57,1001,-11,27,4
897,-162,46,992,-13,18,2
898,-162,41,976,-17,-1,-2
899,-37,18,1001,-16,-20,-7
900,96,6,1009,-17,-23,-9
901,180,16,1002,-14,-11,-6
902,128,41,1006,-11,12,-2
903,-10,48,1012,-14,26,3
904,-142,52,978,-12,20,2
905,-166,45,977,-17,3,-2
906,-81,16,1002,-20,-18,-5
907,68,4,1007,-15,-25,-7
908,174,16,1005,-15,-16,-7
909,146,32,997,-12,6,-1
910,28,45,1005,-11,23,2
911,-118,60,990,-14,25,2
912,-171,48,993,-15,9,0
913,-116,22,986,-18,-12,-4
914,42,11,1000,-17,-25,-7
915,155,11,1004,-14,-18,-7
916,165,21,1006,-14,3,-3
917,66,44,1005,-13,20,0
918,-90,61,989,-12,26,3
919,-165,46,981,-17,13,0
920,-149,28,987,-16,-6,-3
921,10,20,1013,-19,-24,-8
922,131,10,1009,-15,-21,-8
923,176,20,998,-12,-3,-5
924,100,43,993,-12,19,-1
925,-54,57,1003,-12,28,3
926,-162,44,991,-14,15,1
927,-159,39,975,-15,-2,-2
928,-30,19,1001,-17,-22,-6
929,97,7,1011,-16,-23,-7
930,183,16,1010,-13,-10,-5
931,125,40,999,-12,13,-2
932,-13,47,1009,-12,26,2
933,-144,52,977,-13,22,2
934,-165,41,980,-15,2,-2
935,-74,18,1002,-17,-19,-6
936,71,2,1011,-17,-25,-7
937,179,16,999,-15,-14,-8
938,142,34,1000,-12,9,-3
939,23,50,1007,-9,23,1
940,-124,57,989,-12,24,3
941,-169,51,989,-15,8,0
942,-112,15,991,-19,-12,-5
943,45,10,997,-17,-25,-7
944,161,11,1011,-14,-18,-7
945,161,24,1004,-12,4,-3
946,57,44,1007,-12,22,0
947,-89,61,987,-12,26,2
948,-170,46,982,-15,11,2
949,-142,24,990,-14,-9,-4
950,14,17,1016,-17,-24,-6
951,134,9,1002,-17,-21,-9
952,175,14,1000,-11,-3,-5
953,94,42,996,-12,18,-1
954,-59,57,1004,-12,27,3
955,-161,45,989,-12,15,1
956,-158,35,974,-17,-4,-2
957,-21,19,1001,-16,-22,-6
958,102,8,1014,-18,-22,-8
959,175,17,1010,-13,-8,-5
960,122,38,999,-11,13,-1
961,-21,51,1003,-14,27,3
962,-144,45,979,-13,21,1
963,-165,46,983,-17,1,-1
964,-66,19,1002,-18,-21,-5
965,74,7,1008,-16,-24,-8
966,178,18,1002,-14,-13,-8
967,141,34,1000,-12,10,-1
968,19,44,1012,-12,24,1
969,-125,55,987,-13,25,3
970,-166,48,984,-13,8,0
971,-103,18,989,-17,-13,-5
972,50,12,1001,-17,-26,-9
973,159,17,1008,-13,-17,-8
974,156,23,1006,-13,4,-4
975,54,42,1003,-12,22,0
976,-94,59,987,-12,25,3
977,-165,44,985,-15,10,2
978,-134,24,994,-17,-10,-3
979,15,17,1012,-18,-24,-7
980,138,11,1000,-14,-20,-8
981,174,20,999,-11,-1,-4
982,87,43,998,-10,19,1
983,-63,61,1003,-12,28,2
984,-161,40,994,-14,15,-1
985,-157,33,971,-16,-5,-2
986,-17,18,1002,-17,-21,-6
987,109,6,1020,-16,-22,-8
988,177,17,1008,-15,-7,-3
989,118,43,993,-12,14,0
990,-30,53,1002,-13,27,2
991,-148,46,981,-15,19,1
992,-165,42,981,-18,2,-2
993,-58,17,1007,-19,-20,-6
994,80,4,1004,-17,-24,-7
995,180,17,1000,-11,-11,-8
996,136,40,1004,-14,11,-2
997,8,50,1016,-11,24,2
998,-130,54,985,-13,22,3
999,-171,47,980,-16,5,0
1000,-96,17,992,-17,-16,-5
1001,55,5,1006,-17,-25,-8
1002,165,15,1006,-15,-17,-7
1003,157,27,1003,-13,5,-2
1004,48,45,1005,-14,24,1
1005,-102,61,983,-12,28,3
1006,-171,49,989,-15,10,1
1007,-134,20,992,-19,-11,-3
1008,27,17,1007,-17,-25,-7
1009,146,13,997,-17,-19,-8
1010,173,21,1002,-14,-1,-5
1011,82,40,1002,-13,19,-1
1012,-71,61,997,-12,28,3
1013,-163,43,991,-14,15,1
1014,-155,31,975,-15,-5,-2
1015,-12,22,1002,-18,-23,-6
1016,111,5,1016,-17,-22,-8
1017,180,16,1012,-18,-8,-6
1018,114,42,987,-12,13,-1
1019,-35,52,1001,-10,26,3
1020,-153,45,989,-14,19,1
1021,-165,42,981,-15,1,0
1022,-54,18,1002,-17,-21,-5
1023,83,2,1005,-18,-26,-9
1024,183,20,999,-12,-11,-8
1025,132,40,1004,-12,12,-1
1026,2,48,1018,-12,26,2
1027,-132,54,980,-12,22,3
1028,-169,47,976,-17,4,1
1029,-92,14,995,-17,-15,-5
1030,59,7,1010,-18,-25,-8
1031,169,13,1006,-14,-16,-7
1032,153,27,1002,-11,7,-3
1033,40,42,1003,-12,23,1
1034,-108,65,988,-11,25,2
1035,-172,48,990,-15,10,1
1036,-128,20,994,-19,-11,-4
1037,34,14,1003,-17,-25,-8
1038,148,11,1001,-13,-18,-7
1039,168,19,1001,-13,0,-4
1040,75,41,1006,-10,19,0
1041,-77,62,994,-13,26,3
1042,-165,42,987,-14,13,2
1043,-151,35,977,-15,-6,-3
1044,-6,17,1005,-19,-23,-6
1045,118,8,1019,-15,-23,-8
1046,180,15,1005,-13,-6,-6
1047,108,38,991,-10,17,0
1048,-41,55,1000,-10,28,3
1049,-156,45,992,-13,19,2
1050,-164,45,979,-15,0,-2
1051,-44,19,1004,-18,-21,-7
1052,90,7,1009,-18,-23,-8
1053,183,16,1000,-13,-11,-7
1054,128,37,1005,-10,12,-3
1055,-2,48,1020,-12,27,2
1056,-136,51,975,-13,22,1
1057,-165,47,977,-15,4,-1
1058,-80,17,1002,-17,-17,-6
1059,60,8,1006,-16,-24,-7
1060,175,15,1005,-16,-16,-8
1061,145,27,1003,-11,8,-3
1062,35,43,1001,-10,24,1
1063,-112,58,990,-13,26,3
1064,-171,49,996,-14,9,2
1065,-119,22,988,-16,-13,-4
1066,39,12,1001,-19,-25,-7
1067,150,12,1001,-15,-17,-6
1068,169,21,1004,-14,1,-4
1069,66,42,1007,-12,20,1
1070,-80,63,991,-13,25,5
1071,-162,43,983,-13,13,3
1072,-151,26,985,-16,-6,-3
1073,3,18,1010,-17,-24,-7
1074,126,3,1013,-17,-22,-9
1075,178,17,1001,-12,-4,-6
1076,106,47,989,-10,18,0
1077,-43,55,1000,-13,26,2
1078,-159,45,995,-14,16,3
1079,-159,41,976,-17,-1,-2
1080,-35,13,1004,-19,-20,-7
1081,94,5,1008,-15,-22,-8
1082,180,18,1002,-13,-10,-5
1083,128,40,1007,-13,14,-1
1084,-11,51,1013,-12,27,3
1085,-140,52,975,-12,22,3
1086,-165,43,978,-18,3,0
1087,-82,17,1003,-16,-18,-5
1088,70,5,1006,-18,-25,-8
1089,176,15,1003,-14,-13,-6
1090,147,31,1000,-11,8,-1
1091,29,47,1004,-11,24,2
1092,-121,59,991,-14,24,3
1093,-172,47,994,-15,8,-1
1094,-116,19,991,-18,-14,-5
1095,43,12,997,-16,-25,-7
1096,157,11,1006,-15,-18,-7
1097,167,22,1007,-15,2,-3
1098,63,44,1004,-11,21,1
1099,-86,61,989,-13,25,2
1100,-170,39,987,-11,13,0
1101,-147,26,982,-16,-7,-3
1102,10,13,1017,-20,-24,-6
1103,131,12,1007,-16,-21,-7
1104,180,16,998,-12,-3,-5
1105,100,48,993,-10,19,1
1106,-52,56,1005,-15,28,5
1107,-163,44,990,-15,16,1
1108,-160,35,976,-17,-3,-2
1109,-27,16,1003,-16,-22,-7
1110,96,7,1011,-16,-22,-8
1111,181,16,1006,-13,-10,-6
1112,124,41,1006,-11,14,0
1113,-16,47,1009,-12,26,2
1114,-145,52,974,-12,22,2
1115,-162,41,981,-16,3,0
1116,-76,20,1006,-18,-18,-4
1117,73,6,1006,-15,-26,-9
1118,180,17,1004,-15,-13,-7
1119,145,34,999,-13,9,-2
1120,21,44,1008,-10,24,1
1121,-122,56,988,-12,24,3
1122,-171,48,991,-16,7,0
1123,-108,22,987,-17,-14,-5
1124,47,9,1000,-17,-26,-8
1125,160,16,1007,-15,-17,-8
1126,162,23,1009,-14,4,-5
1127,57,42,1000,-10,22,0
1128,-91,61,988,-11,25,2
1129,-171,42,984,-15,13,1
1130,-142,29,988,-17,-9,-2
1131,15,15,1017,-17,-26,-8
1132,135,10,1004,-16,-20,-8
1133,177,14,997,-13,-3,-4
1134,93,44,997,-10,20,-1
1135,-58,53,1003,-14,28,3
1136,-162,49,992,-14,16,1
1137,-162,34,972,-16,-3,-2
1138,-24,22,1001,-18,-22,-7
1139,104,2,1020,-17,-23,-9
1140,180,18,1003,-14,-8,-5
1141,122,41,1003,-12,14,-2
1142,-24,51,1003,-12,27,2
1143,-149,47,977,-13,20,2
1144,-163,41,981,-15,2,-1
1145,-69,19,1005,-16,-19,-5
1146,79,7,1007,-16,-25,-9
1147,177,14,999,-13,-12,-7
1148,138,36,1001,-11,10,-2
1149,15,46,1012,-12,24,1
1150,-126,51,987,-12,23,3
1151,-171,47,986,-15,5,1
1152,-99,14,992,-19,-15,-5
1153,52,8,1003,-16,-25,-7
1154,160,15,1007,-14,-17,-7
1155,157,28,1005,-12,5,-3
1156,55,42,1007,-13,21,1
1157,-98,59,982,-12,26,2
1158,-167,46,989,-13,12,-1
1159,-136,27,992,-18,-9,-5
1160,19,16,1010,-17,-24,-7
1161,142,10,1000,-16,-20,-8
1162,174,15,999,-13,-1,-3
1163,90,42,999,-9,18,0
1164,-70,61,1005,-14,30,5
1165,-163,50,985,-14,15,0
1166,-156,32,977,-16,-4,-3
1167,-17,23,997,-17,-24,-6
1168,106,4,1021,-17,-22,-7
1169,185,13,1007,-14,-8,-6
1170,114,38,999,-11,15,0
1171,-24,50,998,-10,27,2
1172,-151,48,988,-13,21,2
1173,-163,46,980,-16,1,-2
1174,-59,21,1006,-16,-19,-6
1175,79,6,1003,-16,-24,-7
1176,182,15,1002,-13,-12,-5
1177,138,34,1004,-13,11,-1
1178,7,44,1012,-11,26,2
1179,-127,51,988,-14,21,2
1180,-171,47,979,-16,7,0
1181,-97,21,991,-16,-14,-6
1182,55,9,1008,-19,-24,-7
1183,164,17,1008,-16,-17,-8
1184,157,26,1004,-12,5,-2
1185,46,41,1006,-12,23,2
1186,-101,59,986,-12,26,4
1187,-170,45,989,-14,9,1
1188,-136,23,994,-16,-11,-4
1189,27,20,1005,-16,-26,-8
1190,142,16,1001,-17,-19,-7
1191,169,16,1000,-13,-1,-4
1192,82,44,1002,-11,18,-1
1193,-72,59,1001,-13,27,4
1194,-164,40,984,-15,14,2
1195,-151,31,977,-16,-6,-3
1196,-7,17,1002,-16,-24,-7
1197,110,9,1022,-14,-21,-8
1198,183,18,1004,-13,-6,-6
1199,111,42,995,-13,17,0
1200,-33,54,998,-11,26,4
1201,-154,40,988,-13,18,1
1202,-163,40,983,-15,1,-2
1203,-51,17,1004,-17,-20,-5
1204,86,5,1004,-17,-24,-9
1205,182,18,1000,-13,-13,-6
1206,135,40,1006,-12,11,-2
1207,-1,50,1018,-11,27,2
1208,-133,50,978,-14,21,2
1209,-171,42,980,-14,6,0
1210,-91,16,992,-16,-16,-5
1211,62,4,1012,-15,-25,-7
1212,170,19,1003,-14,-16,-8
1213,153,29,1002,-12,6,-3
1214,40,46,1004,-10,23,0
1215,-112,62,984,-12,27,3
1216,-172,49,991,-15,9,1
1217,-128,21,991,-18,-13,-2
1218,34,9,1004,-15,-24,-8
1219,152,7,999,-15,-19,-8
1220,173,17,1002,-14,0,-4
1221,74,44,1003,-10,19,0
1222,-76,62,999,-11,26,3
1223,-164,46,983,-15,13,1
1224,-155,32,980,-18,-6,-3
1225,-4,19,1006,-18,-25,-7
1226,117,5,1018,-18,-22,-8
1227,181,17,1005,-14,-5,-6
1228,108,40,992,-12,17,-1
1229,-38,56,999,-11,28,4
1230,-158,46,992,-14,20,2
1231,-162,42,981,-16,0,-2
1232,-48,18,1003,-17,-21,-6
1233,90,7,1004,-18,-25,-8
1234,184,14,1001,-14,-12,-6
1235,131,40,1007,-12,12,-2
1236,-1,47,1012,-12,26,3
1237,-135,57,983,-13,23,2
1238,-168,47,976,-15,5,1
1239,-92,15,995,-17,-15,-5
1240,67,4,1015,-19,-25,-9
1241,169,15,1001,-14,-16,-7
1242,148,31,999,-11,7,-3
1243,39,41,1008,-9,23,2
1244,-111,63,988,-12,26,3
1245,-170,47,989,-18,10,0
1246,-121,22,995,-16,-13,-5
1247,36,13,998,-17,-26,-7
1248,154,10,1002,-16,-18,-8
1249,168,18,1005,-12,1,-4
1250,72,44,1004,-12,19,-1
1251,-77,61,995,-11,27,3
1252,-167,45,985,-13,14,2
1253,-148,27,980,-15,-7,-3
1254,-2,22,1011,-16,-25,-7
1255,120,7,1014,-17,-22,-8
1256,181,15,1002,-14,-4,-5
1257,107,42,991,-11,17,-1
1258,-43,55,999,-12,26,3
1259,-161,46,993,-13,19,1
1260,-162,43,977,-15,0,-1
1261,-38,18,1000,-19,-21,-6
1262,94,6,1011,-18,-23,-9
1263,180,20,999,-12,-10,-6
1264,132,38,1005,-12,13,-2
1265,-6,44,1017,-11,26,3
1266,-143,54,973,-13,21,2
1267,-161,45,979,-14,2,-2
1268,-87,19,1001,-17,-19,-5
1269,65,7,1009,-18,-26,-8
1270,173,13,1002,-14,-16,-7
1271,141,31,1001,-12,8,-3
1272,35,43,1003,-12,21,1
1273,-117,56,988,-12,26,4
1274,-169,50,990,-16,9,0
1275,-116,23,994,-17,-13,-4
1276,40,13,997,-16,-26,-7
1277,151,13,1003,-15,-18,-8
1278,165,19,1006,-13,2,-5
1279,65,40,1004,-13,20,1
1280,-79,62,990,-13,25,3
1281,-166,40,988,-15,14,1
1282,-145,31,982,-15,-7,-2
1283,4,19,1014,-17,-24,-7
1284,125,8,1010,-15,-22,-9
1285,176,18,1002,-13,-3,-4
1286,105,42,989,-11,18,-1
1287,-49,56,1001,-11,27,4
1288,-159,46,995,-14,15,1
1289,-158,39,976,-17,-2,-1
1290,-35,20,1002,-17,-21,-6
1291,93,9,1007,-14,-22,-9
1292,180,18,1006,-14,-10,-6
1293,128,40,1002,-12,13,-2
1294,-12,46,1013,-12,26,2
1295,-135,49,976,-11,21,1
1296,-165,42,977,-16,3,-1
1297,-78,18,1002,-16,-17,-6
1298,68,8,1013,-17,-24,-8
1299,175,19,1000,-15,-15,-6
1300,148,33,998,-13,8,-2
1301,30,43,1007,-11,24,1
1302,-118,55,986,-13,24,3
1303,-165,45,996,-14,8,1
1304,-117,20,988,-17,-13,-3
1305,44,15,998,-16,-26,-7
1306,158,13,1005,-16,-17,-7
1307,159,24,1004,-13,4,-3
1308,64,41,1009,-14,21,0
1309,-83,59,990,-11,26,2
1310,-165,41,984,-14,14,1
1311,-144,30,984,-16,-7,-2
1312,9,19,1018,-17,-25,-7
1313,128,8,1009,-16,-22,-7
1314,175,19,996,-14,-3,-5
1315,100,42,995,-10,17,0
1316,-52,55,1001,-12,28,3
1317,-161,43,991,-14,16,1
1318,-156,37,976,-16,-3,0
1319,-33,21,1003,-17,-22,-6
1320,99,3,1009,-17,-22,-9
1321,176,18,1006,-14,-9,-7
1322,125,41,1005,-11,12,-2
1323,-14,46,1010,-13,27,3
1324,-141,53,974,-13,21,3
1325,-162,41,977,-17,2,1
1326,-77,17,1006,-18,-18,-6
1327,73,4,1007,-17,-25,-8
1328,175,17,1004,-14,-14,-7
1329,145,33,998,-12,7,-2
1330,25,49,1007,-10,24,1
1331,-119,60,985,-12,25,2
1332,-169,45,996,-17,8,1
1333,-110,17,988,-17,-13,-4
1334,45,9,998,-17,-26,-7
1335,159,9,1005,-15,-18,-7
1336,160,21,1009,-11,4,-2
1337,63,47,1002,-11,21,1
1338,-89,62,991,-12,25,5
1339,-167,47,983,-14,12,2
1340,-143,28,986,-16,-9,-2
1341,10,18,1015,-18,-26,-7
1342,129,8,1010,-18,-22,-8
1343,178,13,997,-14,-3,-5
1344,98,44,993,-10,18,0
1345,-55,59,1000,-12,27,4
1346,-162,46,995,-15,17,1
1347,-160,37,974,-17,-3,-3
1348,-30,21,1001,-17,-21,-7
1349,99,4,1015,-17,-23,-9
1350,178,16,1003,-15,-9,-7
1351,124,38,1001,-14,12,-2
1352,-17,47,1008,-16,24,2
1353,-145,50,974,-20,19,2
1354,-162,43,978,-11,2,0
1355,-75,19,1006,-20,-19,-5
1356,72,5,1007,-17,-24,-8
1357,176,18,1001,-10,-13,-7
1358,143,37,1000,-14,9,-2
1359,21,46,1008,-8,25,1
1360,-122,59,989,-14,24,2
1361,-168,45,993,-20,7,0
1362,-113,20,988,-15,-12,-3
1363,48,11,997,-16,-25,-7
1364,159,13,1008,-13,-17,-8
1365,161,26,1004,-12,4,-4
1366,58,44,1007,-12,21,0
1367,-89,61,984,-11,25,2
1368,-168,44,986,-15,12,1
1369,-142,26,989,-19,-9,-3
1370,11,16,1013,-17,-23,-6
1371,136,8,1004,-16,-20,-8
1372,175,16,999,-13,-2,-4
1373,95,46,993,-10,18,-1
1374,-57,58,1001,-13,26,3
1375,-163,46,994,-14,17,1
1376,-154,35,974,-18,-4,-1
1377,-25,15,1001,-17,-22,-6
1378,101,1,1013,-14,-22,-9
1379,179,16,1008,-14,-8,-6
1380,120,38,1000,-10,13,-1
1381,-20,51,1008,-11,27,2
1382,-147,52,978,-13,21,2
1383,-162,45,978,-15,2,-1
1384,-71,19,1004,-19,-20,-4
1385,73,6,1009,-16,-26,-8
1386,179,10,1000,-15,-14,-8
1387,141,32,1001,-12,9,-2
1388,19,43,1009,-11,24,1
1389,-123,57,988,-12,25,3
1390,-170,47,989,-14,8,2
1391,-109,20,988,-16,-13,-4
1392,52,9,1002,-17,-25,-7
1393,156,15,1006,-14,-17,-7
1394,160,21,1007,-13,4,-5
1395,56,41,1006,-12,22,0
1396,-94,60,984,-12,26,5
1397,-164,45,984,-14,11,0
1398,-144,26,994,-16,-8,-4
1399,15,20,1013,-18,-24,-7
1400,136,7,1005,-16,-21,-9
1401,176,19,999,-12,-3,-5
1402,92,43,993,-11,18,0
1403,-59,57,1003,-12,27,2
1404,-162,44,992,-16,16,1
1405,-156,38,973,-16,-4,-2
1406,-24,19,1000,-17,-23,-6
1407,102,11,1014,-17,-22,-8
1408,183,17,1009,-16,-8,-5
1409,123,39,999,-10,13,-1
1410,-21,47,1003,-11,26,3
1411,-146,49,981,-11,21,2
1412,-164,42,979,-15,1,-1
1413,-68,20,1006,-17,-20,-6
1414,78,6,1005,-17,-24,-8
1415,178,19,1001,-12,-12,-7
1416,142,35,1000,-13,10,-1
1417,14,45,1012,-10,25,3
1418,-125,54,987,-13,24,2
1419,-168,43,989,-14,8,-1
1420,-107,19,988,-17,-14,-5
1421,53,10,1001,-18,-26,-8
1422,163,13,1009,-16,-18,-8
1423,158,23,1003,-15,5,-3
1424,57,43,1006,-12,22,0
1425,-96,58,985,-13,26,4
1426,-172,46,983,-14,12,1
1427,-138,24,994,-17,-9,-4
1428,22,19,1014,-17,-25,-8
1429,137,10,1001,-17,-20,-8
1430,178,15,1000,-13,-2,-5
1431,88,39,997,-11,18,1
1432,-62,59,999,-13,27,4
1433,-161,47,997,-14,16,1
1434,-159,38,971,-15,-4,-1
1435,-19,21,1002,-17,-24,-7
1436,106,6,1018,-17,-22,-8
1437,179,19,1009,-14,-8,-5
1438,123,38,996,-10,14,0
1439,-29,52,1007,-11,27,4
1440,-147,49,976,-12,19,2
1441,-163,41,983,-14,2,-1
1442,-64,21,1007,-18,-19,-5
1443,80,5,1009,-17,-24,-8
1444,175,17,998,-14,-12,-7
1445,137,34,1002,-12,10,-1
1446,16,44,1014,-11,24,2
1447,-129,52,985,-13,23,3
1448,-167,46,985,-15,6,-1
1449,-104,19,991,-16,-13,-4
1450,52,11,1000,-17,-26,-9
1451,164,15,1009,-15,-18,-8
1452,159,22,1004,-13,4,-3
1453,51,43,1005,-11,22,0
1454,-95,58,986,-13,27,2
1455,-172,46,986,-14,10,-1
1456,-140,25,991,-18,-11,-4
1457,20,15,1012,-16,-25,-8
1458,142,10,1002,-17,-22,-8
1459,174,20,995,-12,-2,-4
1460,89,42,1000,-12,19,0
1461,-67,56,1002,-13,28,4
1462,-164,45,992,-15,15,1
1463,-159,34,975,-17,-5,-2
1464,-17,18,998,-17,-22,-7
1465,108,6,1019,-17,-22,-8
1466,177,19,1009,-13,-7,-5
1467,121,40,996,-12,14,-1
1468,-26,52,1002,-11,27,3
1469,-153,48,978,-12,20,3
1470,-161,43,984,-16,2,-2
1471,-62,17,1003,-16,-20,-6
1472,80,7,1006,-17,-25,-8
1473,180,16,1004,-14,-12,-6
1474,139,38,1001,-11,11,-3
1475,10,44,1013,-13,24,2
1476,-128,54,989,-14,23,2
1477,-170,44,983,-16,6,1
1478,-101,20,987,-16,-15,-4
1479,57,11,1006,-17,-26,-6
1480,167,14,1006,-15,-17,-7
1481,156,26,1004,-10,5,-5
1482,48,43,1005,-11,23,0
1483,-103,60,986,-12,26,2
1484,-168,46,984,-15,9,-1
1485,-135,23,998,-16,-12,-3
1486,24,18,1006,-17,-25,-7
1487,144,10,1003,-17,-20,-8
1488,171,17,997,-12,0,-4
1489,85,44,1003,-9,19,-1
1490,-69,61,1005,-14,28,4
1491,-165,44,986,-15,14,1
1492,-151,33,976,-16,-5,-2
1493,-9,19,1003,-16,-23,-6
1494,109,5,1017,-17,-22,-8
1495,181,18,1011,-14,-7,-6
1496,113,41,994,-11,15,-2
1497,-34,54,998,-11,26,3
1498,-152,46,986,-14,19,1
1499,-163,39,983,-16,1,-2
1500,-55,20,1004,-17,-20,-6
1501,84,5,1005,-16,-24,-8
1502,183,19,1002,-14,-11,-7
1503,136,37,1002,-13,11,-3
1504,1,45,1014,-11,25,1
1505,-129,53,983,-15,22,2
1506,-168,42,979,-15,5,1
1507,-93,18,990,-18,-16,-5
1508,56,5,1011,-17,-25,-7
1509,167,17,1006,-15,-17,-8
1510,152,23,1003,-14,5,-2
1511,46,47,1004,-11,23,1
1512,-105,57,985,-13,25,3
1513,-168,52,990,-14,11,1
1514,-133,21,993,-17,-11,-3
1515,33,14,1006,-19,-26,-8
1516,146,6,997,-15,-19,-7
1517,171,17,1000,-12,0,-4
1518,80,41,1007,-12,20,1
1519,-74,61,997,-11,27,3
1520,-167,45,989,-13,14,1
1521,-152,34,978,-15,-6,-2
1522,-10,23,1004,-16,-23,-7
1523,115,7,1018,-17,-22,-8
1524,180,14,1010,-15,-6,-5
1525,114,40,987,-12,15,-1
1526,-33,52,1000,-11,28,3
1527,-157,47,988,-13,19,2
1528,-163,42,980,-16,0,-1
1529,-49,19,1002,-19,-21,-6
1530,83,5,1006,-16,-25,-9
1531,184,17,999,-13,-11,-7
1532,132,36,1007,-13,11,-1
1533,0,49,1019,-12,25,2
1534,-136,51,980,-13,22,2
1535,-166,47,977,-17,3,0
1536,-91,18,992,-17,-17,-5
1537,60,8,1013,-18,-24,-7
1538,173,15,1002,-16,-16,-7
1539,149,28,1001,-13,8,-3
1540,39,46,1006,-11,23,1
1541,-111,62,987,-13,26,2
1542,-171,48,991,-16,10,1
1543,-128,17,991,-20,-12,-4
1544,36,15,1002,-16,-26,-8
1545,152,9,1002,-16,-18,-8
1546,168,21,1002,-13,1,-3
1547,70,41,1009,-10,19,0
1548,-78,59,992,-13,26,3
1549,-169,44,988,-14,14,2
1550,-149,29,978,-15,-6,-3
1551,-2,20,1011,-18,-24,-7
1552,121,10,1015,-15,-22,-9
1553,177,18,1003,-12,-5,-4
1554,107,45,990,-12,17,-1
1555,-47,53,999,-12,27,4
1556,-155,43,992,-15,15,0
1557,-164,35,979,-16,-2,-1
1558,-41,18,1004,-16,-22,-7
1559,91,2,1008,-17,-24,-8
1560,178,20,1000,-12,-9,-5
1561,131,36,1007,-13,12,-1
1562,-6,49,1015,-13,26,2
1563,-139,50,975,-13,22,2
1564,-166,43,976,-16,4,0
1565,-82,16,1003,-15,-19,-5
1566,63,8,1006,-15,-24,-9
1567,175,16,1005,-13,-16,-7
1568,148,31,1002,-12,8,-2
1569,31,44,1003,-10,25,1
1570,-118,54,988,-13,25,4
1571,-174,48,998,-15,9,2
1572,-116,20,986,-18,-13,-5
1573,40,11,1000,-16,-25,-8
1574,155,13,1005,-13,-17,-7
1575,166,18,1004,-13,3,-4
1576,66,45,1007,-11,21,0
1577,-92,59,988,-12,26,4
1578,-166,43,982,-15,13,0
1579,-145,28,987,-18,-6,-3
1580,5,19,1013,-18,-26,-6
1581,131,9,1011,-16,-22,-7
1582,175,18,994,-13,-3,-4
1583,98,45,995,-9,17,0
1584,-48,55,1006,-13,26,3
1585,-161,47,992,-15,16,2
1586,-158,39,973,-16,-5,-2
1587,-32,18,1007,-16,-22,-6
1588,98,5,1010,-16,-23,-8
1589,180,19,1007,-13,-10,-6
1590,125,37,1003,-11,12,-1
1591,-19,52,1006,-12,27,3
1592,-143,50,977,-15,21,2
1593,-167,44,980,-14,3,0
1594,-72,17,1005,-17,-19,-6
1595,72,6,1006,-17,-25,-8
1596,177,20,1002,-13,-13,-7
1597,147,31,1003,-12,9,-2
1598,23,49,1008,-9,25,3
1599,-125,55,985,-14,24,3
1600,-172,45,991,-16,8,1
1601,-110,18,988,-15,-13,-4
1602,48,8,999,-17,-26,-8
1603,162,16,1010,-13,-17,-9
1604,162,23,1008,-12,4,-3
1605,56,45,1001,-10,22,1
1606,-95,56,990,-13,25,3
1607,-172,47,985,-17,11,2
1608,-142,22,990,-18,-10,-4
1609,19,17,1015,-16,-26,-8
1610,140,8,1004,-15,-21,-8
1611,178,20,995,-12,-1,-6
1612,90,43,1001,-10,21,0
1613,-66,59,1004,-13,28,3
1614,-163,45,988,-13,15,1
1615,-160,34,975,-15,-5,-1
1616,-15,18,1000,-18,-24,-7
1617,107,6,1018,-17,-22,-8
1618,180,18,1012,-13,-7,-5
1619,119,40,995,-11,15,0
1620,-26,53,1000,-12,28,4
1621,-151,47,982,-14,21,3
1622,-164,40,981,-14,1,-2
1623,-61,19,1005,-17,-21,-5
1624,82,6,1005,-17,-25,-7
1625,182,17,1002,-13,-12,-7
1626,139,33,1002,-12,9,-2
1627,7,46,1015,-11,25,2
1628,-127,51,983,-13,23,2
1629,-172,47,982,-15,7,0
1630,-98,20,989,-17,-15,-6
1631,53,6,1008,-18,-26,-9
1632,169,17,1009,-15,-18,-8
1633,152,24,1002,-15,5,-1
1634,49,47,1005,-10,23,0
1635,-105,59,984,-12,26,3
1636,-170,47,989,-14,11,0
1637,-133,23,994,-15,-11,-4
1638,27,16,1008,-17,-25,-8
1639,148,10,1000,-17,-21,-8
1640,170,17,999,-12,-1,-4
1641,81,44,1008,-10,18,-1
1642,-74,54,999,-14,28,4
1643,-162,44,987,-15,15,1
1644,-156,29,976,-16,-5,-1
1645,-10,22,1005,-16,-24,-7
1646,116,8,1016,-15,-22,-8
1647,178,17,1010,-15,-7,-4
1648,114,42,989,-11,15,-1
1649,-34,50,1001,-14,26,4
1650,-159,46,985,-14,19,1
1651,-165,38,983,-16,0,-2
1652,-46,18,1002,-16,-21,-7
1653,85,7,1005,-15,-24,-8
1654,186,22,1000,-12,-11,-6
1655,135,39,1008,-12,12,-1
1656,-1,48,1013,-12,27,2
1657,-137,50,981,-14,22,2
1658,-168,41,979,-16,5,0
1659,-90,19,992,-16,-16,-4
1660,63,8,1009,-17,-24,-8
1661,173,16,1007,-12,-16,-7
1662,152,30,998,-14,8,-2
1663,38,46,1003,-11,24,1
1664,-109,59,991,-14,23,3
1665,-173,43,992,-16,10,1
1666,-124,18,990,-20,-12,-6
1667,34,15,1005,-17,-26,-8
1668,152,14,999,-13,-18,-8
1669,169,20,1002,-15,1,-5
1670,73,46,1008,-12,21,0
1671,-83,59,995,-13,27,2
1672,-163,40,986,-15,13,1
1673,-150,31,978,-16,-5,-3
1674,0,21,1012,-17,-25,-7
1675,120,6,1015,-16,-22,-7
1676,177,16,1003,-13,-3,-6
1677,106,42,991,-12,17,-1
1678,-45,55,1002,-11,27,3
1679,-158,48,989,-13,18,3
1680,-161,39,979,-15,-1,-1
1681,-39,16,1004,-18,-21,-7
1682,91,4,1005,-15,-23,-8
1683,182,18,1004,-14,-11,-6
1684,127,38,1005,-10,13,-1
1685,-6,47,1015,-13,26,3
1686,-137,50,974,-12,21,1
1687,-167,43,977,-17,2,-2
1688,-83,16,1001,-18,-17,-5
1689,65,5,1010,-15,-24,-9
1690,177,17,1001,-6,-13,-8
1691,148,28,1001,-4,9,-1
1692,31,46,1004,-3,24,2
1693,-113,58,989,-17,25,3
1694,-173,49,996,-15,9,1
1695,-119,19,987,-14,-14,-4
1696,41,11,1002,-20,-27,-8
1697,151,9,1000,-11,-19,-7
1698,167,25,1006,-13,1,-5
1699,68,40,1005,-14,21,1
1700,-88,64,991,-11,28,4
1701,-164,44,987,-17,13,1
1702,-151,25,982,-14,-7,-3
1703,6,18,1016,-17,-25,-7
1704,130,7,1010,-16,-23,-9
1705,176,17,998,-11,-4,-4
1706,104,44,990,-13,18,-1
1707,-51,55,1008,-12,27,4
1708,-164,46,988,-14,16,3
1709,-158,33,977,-18,-3,-2
1710,-35,20,1003,-16,-22,-6
1711,98,7,1007,-17,-24,-9
1712,183,18,1007,-16,-10,-7
1713,124,37,1004,-12,13,-1
1714,-11,51,1008,-12,26,2
1715,-144,46,979,-12,20,2
1716,-168,46,978,-15,2,-1
1717,-75,17,1005,-19,-19,-5
1718,68,6,1005,-17,-26,-8
1719,179,16,1005,-17,-15,-7
1720,150,30,998,-15,8,-2
1721,26,44,1005,-9,25,2
1722,-123,57,991,-12,24,5
1723,-172,48,993,-16,8,2
1724,-113,23,986,-17,-13,-4
1725,48,15,1002,-17,-24,-7
1726,161,16,1008,-15,-17,-8
1727,160,19,1004,-12,4,-3
1728,61,42,1003,-11,21,0
1729,-92,57,991,-12,26,3
1730,-165,45,982,-14,12,1
1731,-144,25,987,-15,-8,-3
1732,15,20,1016,-17,-24,-7
1733,134,10,1009,-16,-21,-7
1734,176,18,992,-12,-3,-5
1735,91,45,997,-12,19,-1
1736,-54,56,1005,-13,27,2
1737,-163,44,988,-16,16,1
1738,-156,33,975,-18,-4,-2
1739,-23,14,1003,-17,-20,-6
1740,101,10,1010,-16,-22,-8
1741,180,18,1010,-13,-9,-6
1742,122,40,1002,-11,14,-1
1743,-21,49,999,-12,27,4
1744,-147,50,981,-13,21,1
1745,-163,41,982,-17,2,-1
1746,-67,18,1002,-18,-20,-5
1747,76,4,1006,-15,-25,-8
1748,178,19,1003,-13,-13,-6
1749,142,34,999,-14,9,-2
1750,15,46,1012,-12,25,3
1751,-128,58,986,-15,23,3
1752,-167,45,988,-16,7,0
1753,-105,19,986,-19,-15,-4
1754,54,7,1001,-17,-26,-8
1755,159,15,1010,-14,-17,-7
1756,158,21,1002,-12,3,-3
1757,56,45,1003,-9,22,1
1758,-98,57,984,-11,26,3
1759,-171,50,986,-13,11,1
1760,-138,24,994,-18,-9,-4
1761,18,18,1010,-17,-23,-8
1762,142,11,1004,-17,-22,-9
1763,175,13,993,-13,-2,-5
1764,86,42,1003,-9,19,0
1765,-66,56,1003,-14,27,3
1766,-170,42,987,-16,16,2
1767,-154,34,978,-17,-5,-1
1768,-18,20,1002,-19,-23,-6
1769,108,6,1015,-16,-23,-8
1770,183,16,1013,-15,-7,-6
1771,118,42,996,-10,15,-1
1772,-30,47,995,-11,27,2
1773,-152,47,987,-14,20,1
1774,-166,40,982,-15,1,-1
1775,-58,17,1001,-16,-20,-7
1776,85,5,1007,-16,-24,-9
1777,180,16,997,-13,-11,-7
1778,135,39,1002,-13,11,-2
1779,6,45,1018,-12,26,2
1780,-132,54,982,-15,22,2
1781,-165,44,977,-17,5,0
1782,-96,21,994,-16,-15,-5
1783,56,7,1007,-18,-26,-8
1784,170,15,1005,-13,-16,-7
1785,154,27,1005,-13,6,-2
1786,44,45,1005,-13,22,2
1787,-106,61,985,-12,26,3
1788,-170,48,989,-15,10,1
1789,-133,22,994,-17,-10,-3
1790,29,15,1004,-16,-24,-6
1791,148,13,999,-17,-20,-8
1792,173,21,1001,-12,0,-4
1793,75,44,1005,-12,20,0
1794,-72,63,997,-13,27,3
1795,-166,43,987,-14,14,1
1796,-154,30,974,-14,-5,-1
1797,-6,19,1004,-18,-23,-7
1798,117,7,1019,-17,-23,-8
1799,181,20,1005,-14,-5,-6
1800,116,40,991,-12,17,-1
1801,-40,55,1000,-12,27,5
1802,-155,49,987,-14,18,1
1803,-164,34,984,-15,0,-2
1804,-48,18,998,-18,-21,-6
1805,89,4,1008,-16,-25,-9
1806,183,21,1000,-12,-12,-7
1807,129,40,1005,-11,12,-1
1808,-1,48,1016,-12,25,2
1809,-139,47,982,-14,21,1
1810,-170,44,973,-15,3,0
1811,-85,14,999,-18,-16,-6
1812,59,3,1011,-17,-24,-8
1813,174,19,1005,-14,-17,-8
1814,149,27,1001,-11,7,-3
1815,32,47,1008,-11,24,1
1816,-112,54,986,-14,24,2
1817,-174,46,994,-14,8,0
1818,-121,21,989,-18,-13,-5
1819,36,12,1002,-18,-25,-9
1820,154,13,1000,-13,-19,-8
1821,165,19,1005,-12,1,-3
1822,71,46,1009,-8,20,1
1823,-85,61,992,-12,26,5
1824,-166,47,982,-15,14,3
1825,-149,30,984,-16,-6,-2
1826,0,20,1008,-18,-25,-6
1827,129,6,1012,-16,-22,-8
1828,179,13,1000,-13,-5,-5
1829,106,44,992,-10,17,0
1830,-45,55,1000,-11,26,2
1831,-160,47,994,-13,17,1
1832,-163,39,976,-16,-3,-2
1833,-34,19,1002,-17,-22,-6
1834,95,6,1010,-17,-23,-8
1835,180,18,1002,-13,-9,-6
1836,130,36,1009,-11,12,-1
1837,-12,51,1009,-13,27,4
1838,-139,51,977,-13,21,2
1839,-163,41,979,-15,2,-1
1840,-83,18,1002,-18,-19,-5
1841,69,5,1009,-16,-23,-8
1842,172,15,1004,-14,-14,-6
1843,145,33,997,-10,8,-1
1844,28,46,1007,-11,25,1
1845,-120,59,989,-15,25,2
1846,-174,44,993,-16,9,0
1847,-114,19,988,-18,-14,-4
1848,45,9,997,-17,-25,-6
1849,160,13,1009,-13,-17,-7
1850,161,22,1005,-11,3,-3
1851,63,47,1004,-11,21,0
1852,-93,60,989,-13,26,3
1853,-169,47,982,-15,13,1
1854,-140,26,991,-19,-9,-3
1855,7,16,1012,-18,-25,-6
1856,136,7,1005,-15,-21,-8
1857,179,12,998,-13,-3,-4
1858,96,44,995,-11,19,1
1859,-59,60,1007,-12,27,3
1860,-163,51,990,-13,16,2
1861,-163,36,971,-17,-3,-1
1862,-24,21,1002,-17,-21,-7
1863,103,4,1016,-19,-22,-6
1864,181,14,1007,-15,-8,-4
1865,127,38,1001,-10,13,-1
1866,-25,53,1003,-12,27,3
1867,-145,52,977,-13,21,1
1868,-167,43,983,-16,2,-1
1869,-71,22,1003,-18,-20,-6
1870,78,4,1009,-17,-26,-9
1871,178,17,996,-13,-13,-6
1872,141,32,1004,-13,9,-2
1873,14,46,1014,-10,25,2
1874,-128,55,983,-12,23,3
1875,-172,47,984,-15,6,1
1876,-105,21,992,-16,-15,-5
1877,54,11,1002,-17,-27,-8
1878,164,14,1006,-16,-17,-6
1879,159,26,1006,-13,4,-3
1880,54,40,1005,-13,23,0
1881,-102,61,985,-12,26,3
1882,-170,43,986,-14,11,1
1883,-137,24,996,-15,-11,-4
1884,22,17,1008,-18,-25,-7
1885,143,11,1000,-16,-21,-8
1886,174,18,999,-13,-1,-5
1887,85,44,1001,-11,18,0
1888,-68,59,1000,-15,27,2
1889,-165,42,991,-15,14,1
1890,-158,28,971,-14,-6,-2
1891,-14,20,999,-15,-24,-7
1892,114,7,1023,-15,-21,-8
1893,181,19,1009,-14,-6,-6
1894,116,40,992,-11,14,-2
1895,-30,51,1001,-11,28,3
1896,-154,48,987,-12,19,2
1897,-164,42,978,-15,1,-2
1898,-54,19,1007,-18,-20,-5
1899,83,4,1003,-16,-25,-8
1900,185,15,999,-13,-12,-7
1901,136,37,1005,-11,11,-2
1902,1,49,1015,-12,25,2
1903,-131,54,983,-12,21,2
1904,-170,45,978,-16,3,1
1905,-92,17,993,-17,-16,-4
1906,59,9,1012,-17,-25,-8
1907,169,17,1007,-15,-17,-8
1908,152,28,998,-12,6,-3
1909,42,42,1005,-10,25,0
1910,-110,60,988,-14,26,4
1911,-169,47,988,-14,9,0
1912,-123,21,998,-19,-14,-4
1913,31,12,1000,-17,-26,-8
1914,149,15,998,-14,-18,-9
1915,172,19,1003,-13,0,-5
1916,69,46,1008,-8,19,0
1917,-72,58,990,-13,26,2
1918,-169,45,990,-14,14,2
1919,-151,35,974,-16,-7,-2
1920,0,18,1010,-19,-24,-8
1921,123,8,1015,-17,-22,-9
1922,178,12,998,-13,-5,-6
1923,110,41,993,-10,16,0
1924,-44,52,1002,-12,26,4
1925,-161,49,990,-12,16,0
1926,-161,38,979,-17,-1,-3
1927,-39,18,1003,-16,-22,-6
1928,94,7,1004,-18,-24,-7
1929,178,14,1001,-13,-11,-7
1930,131,39,1010,-11,13,-1
1931,-9,46,1009,-12,27,3
1932,-141,53,974,-12,22,1
1933,-163,43,979,-15,2,-1
1934,-82,18,1003,-16,-17,-6
1935,70,9,1009,-16,-24,-8
1936,175,16,1004,-14,-15,-8
1937,148,34,1000,-11,9,-2
1938,29,42,1007,-11,25,2
1939,-118,54,987,-12,26,3
1940,-172,46,992,-18,8,1
1941,-114,18,989,-18,-13,-4
1942,44,10,999,-15,-26,-7
1943,158,15,1004,-13,-18,-8
1944,164,24,1010,-12,3,-4
1945,61,47,1003,-12,20,2
1946,-91,61,985,-14,26,3
1947,-166,42,983,-17,13,-1
1948,-147,24,987,-17,-8,-3
1949,12,17,1015,-17,-25,-7
1950,135,4,1008,-15,-21,-8
1951,176,22,993,-11,-3,-3
1952,99,43,998,-14,19,0
1953,-63,58,1007,-13,28,4
1954,-162,44,990,-15,15,1
1955,-159,34,974,-15,-4,-2
1956,-23,19,1000,-16,-22,-7
1957,102,5,1014,-17,-22,-8
1958,181,21,1013,-13,-7,-6
1959,122,40,996,-12,14,-1
1960,-21,52,1004,-14,26,3
1961,-148,44,979,-13,21,2
1962,-165,41,981,-16,2,-1
1963,-66,14,1005,-17,-20,-6
1964,77,9,1008,-16,-25,-7
1965,179,18,999,-16,-13,-7
1966,141,37,1004,-12,10,-2
1967,10,47,1011,-12,23,2
1968,-127,55,983,-12,23,2
1969,-169,42,986,-15,7,0
1970,-104,17,988,-17,-15,-5
1971,57,9,1004,-17,-26,-8
1972,165,18,1008,-14,-18,-7
1973,156,28,1003,-14,5,-3
1974,52,41,1004,-12,22,1
1975,-101,64,985,-12,26,4
1976,-173,43,989,-16,11,0
1977,-136,23,995,-17,-10,-3
1978,26,16,1005,-17,-25,-7
1979,145,14,1002,-15,-20,-8
1980,174,17,999,-13,-2,-4
1981,86,42,1005,-11,19,0
1982,-70,61,997,-12,28,4
1983,-169,43,990,-16,14,2
1984,-151,32,975,-15,-6,-2
1985,-11,15,999,-18,-22,-7
1986,117,10,1020,-16,-22,-9
1987,182,16,1009,-14,-7,-5
1988,114,46,992,-11,16,-1
1989,-38,53,997,-11,28,3
1990,-157,45,992,-14,18,2
1991,-165,39,978,-15,0,-1
1992,-48,18,1006,-18,-20,-6
1993,88,5,1006,-15,-25,-9
1994,181,15,998,-14,-11,-7
1995,133,39,1007,-13,12,-3
1996,0,50,1014,-12,26,2
1997,-135,54,979,-13,23,3
1998,-170,47,977,-15,5,0
1999,-89,17,999,-17,-17,-5
2000,64,2,1009,-18,-26,-7
2001,172,14,1005,-15,-16,-7
2002,151,28,1001,-13,7,-2
2003,37,45,1003,-10,25,0
2004,-114,57,988,-13,26,3
2005,-172,48,995,-14,10,1
2006,-124,22,990,-19,-13,-4
2007,36,13,998,-17,-25,-8
2008,155,11,1005,-19,-19,-7
2009,170,20,1003,-13,1,-4
2010,70,43,1008,-10,18,0
2011,-83,61,990,-13,25,3
2012,-167,47,985,-16,13,1
2013,-150,28,985,-16,-6,-3
2014,3,22,1014,-19,-25,-7
2015,132,5,1012,-17,-22,-8
2016,180,13,995,-13,-4,-5
2017,102,39,995,-10,18,0
2018,-51,57,1003,-11,27,4
2019,-161,46,992,-14,17,1
2020,-162,40,976,-15,-3,-2
2021,-36,21,1002,-18,-23,-4
2022,96,6,1011,-17,-24,-8
2023,183,15,1010,-13,-10,-6
2024,126,35,1003,-12,12,-1
2025,-12,48,1006,-10,27,2
2026,-145,50,978,-13,22,2
2027,-167,45,980,-17,3,-2
2028,-77,20,1002,-16,-18,-6
2029,71,7,1010,-15,-24,-8
2030,183,16,1003,-15,-14,-7
2031,146,34,996,-16,9,-1
2032,21,45,1013,-8,27,4
2033,-123,55,989,-12,25,2
2034,-177,47,990,-19,7,2
2035,-109,20,983,-15,-13,-4
2036,47,10,1007,-20,-27,-8
2037,164,15,1004,-11,-19,-7
2038,163,22,1008,-12,3,-3
2039,59,43,1004,-13,21,0
2040,-96,57,986,-9,26,3
2041,-170,45,984,-16,11,0
2042,-144,24,991,-18,-10,-4
2043,21,18,1013,-16,-26,-7
2044,138,10,1002,-17,-21,-8
2045,178,19,995,-11,-3,-6
2046,91,42,1003,-13,18,-1
2047,-66,60,1003,-14,26,3
2048,-166,42,988,-16,16,2
2049,-159,30,976,-17,-5,-2
2050,-18,16,1000,-16,-23,-7
2051,110,6,1018,-16,-23,-9
2052,186,20,1012,-15,-7,-6
2053,116,37,992,-12,14,-1
2054,-31,59,998,-12,28,3
2055,-156,44,986,-17,20,2
2056,-166,42,982,-16,-1,-2
2057,-58,15,1004,-18,-21,-6
2058,89,6,1006,-16,-25,-9
2059,185,15,1000,-12,-13,-7
2060,139,40,1005,-13,11,-1
2061,2,46,1016,-14,25,3
2062,-136,53,982,-13,22,2
2063,-170,46,977,-17,5,0
2064,-93,18,992,-18,-15,-6
2065,60,5,1012,-16,-25,-9
2066,173,13,1003,-16,-17,-7
2067,154,27,999,-10,7,-3
2068,42,44,1006,-11,23,1
2069,-114,62,984,-14,25,3
2070,-172,47,996,-18,9,0
2071,-128,22,992,-20,-12,-4
2072,35,14,998,-15,-26,-7
2073,156,8,1001,-15,-19,-8
2074,170,20,1004,-14,1,-3
2075,75,44,1006,-11,19,0
2076,-82,59,992,-14,27,4
2077,-170,46,984,-16,15,2
2078,-155,27,981,-17,-6,-2
2079,0,20,1011,-19,-25,-8
2080,125,9,1014,-18,-21,-7
2081,182,16,998,-14,-4,-4
2082,108,39,993,-15,17,-1
2083,-49,55,1004,-11,26,3
2084,-163,46,991,-16,17,1
2085,-163,36,972,-17,-3,-2
2086,-34,21,1003,-17,-22,-7
2087,98,7,1009,-17,-25,-9
2088,184,20,1007,-12,-10,-6
2089,129,37,1006,-12,13,-2
2090,-15,49,1006,-12,28,1
2091,-143,49,982,-14,21,2
2092,-169,46,977,-17,2,1
2093,-75,17,1002,-17,-21,-7
2094,70,6,1012,-17,-25,-7
2095,179,17,999,-15,-14,-6
2096,147,31,1001,-13,8,-2
2097,21,49,1010,-11,24,2
2098,-124,56,989,-14,25,3
2099,-169,46,986,-15,8,0
2100,-111,19,989,-18,-14,-5
2101,48,12,999,-20,-27,-7
2102,164,12,1009,-15,-17,-7
2103,162,25,1006,-13,5,-2
2104,58,44,1004,-12,22,2
2105,-96,59,988,-12,26,3
2106,-173,45,983,-15,12,1
2107,-141,23,991,-15,-9,-4
2108,18,18,1009,-18,-25,-7
2109,141,11,1001,-17,-21,-7
2110,178,18,997,-13,-3,-5
2111,87,44,1003,-10,19,0
2112,-65,58,999,-11,29,3
2113,-166,44,990,-13,16,3
2114,-162,34,974,-17,-5,-3
2115,-16,20,1002,-17,-23,-7
2116,110,9,1021,-17,-23,-8
2117,182,19,1008,-14,-8,-6
2118,120,40,993,-10,14,-2
2119,-31,53,999,-12,27,2
2120,-155,46,991,-14,20,2
2121,-167,39,982,-16,0,-1
2122,-52,16,1002,-18,-21,-5
2123,85,4,1006,-16,-25,-8
2124,180,16,999,-12,-12,-7
2125,138,37,1005,-13,12,-2
2126,1,46,1019,-13,25,3
2127,-132,54,977,-14,21,2
2128,-169,43,977,-18,5,0
2129,-93,16,998,-18,-16,-6
2130,58,4,1006,-18,-24,-8
2131,174,15,1008,-16,-17,-8
2132,150,25,997,-11,6,-1
2133,42,46,1005,-10,23,2
2134,-114,60,984,-13,27,3
2135,-175,48,997,-16,9,0
2136,-122,21,987,-18,-13,-4
2137,34,13,996,-16,-24,-6
2138,159,11,1004,-14,-18,-9
2139,166,19,1005,-12,2,-4
2140,74,45,1003,-13,21,1
2141,-81,57,994,-12,27,4
2142,-167,46,983,-13,14,2
2143,-153,32,983,-17,-6,-2
2144,3,23,1014,-17,-25,-8
2145,128,11,1011,-14,-22,-7
2146,182,18,995,-12,-4,-4
2147,104,41,995,-11,18,1
2148,-50,56,1005,-12,28,5
2149,-160,44,993,-14,16,2
2150,-165,39,976,-16,-3,-2
2151,-31,21,1001,-18,-22,-6
2152,101,7,1012,-17,-24,-7
2153,183,19,1011,-13,-9,-6
2154,128,40,1001,-13,13,-1
2155,-16,46,1004,-12,28,3
2156,-146,48,976,-14,21,2
2157,-169,44,981,-17,2,-1
2158,-74,19,1001,-18,-20,-6
2159,76,4,1007,-17,-25,-9
2160,179,16,1002,-14,-13,-6
2161,141,34,1001,-12,9,-1
2162,17,45,1012,-10,24,1
2163,-130,53,986,-14,24,3
2164,-176,46,980,-17,8,0
2165,-104,16,990,-16,-14,-5
2166,53,6,1004,-16,-26,-7
2167,164,15,1006,-14,-18,-7
2168,162,25,1008,-10,2,-3
2169,52,42,1006,-11,23,2
2170,-101,62,984,-12,25,3
2171,-177,45,992,-15,10,1
2172,-134,23,993,-16,-11,-4
2173,22,14,1005,-16,-24,-6
2174,147,10,1001,-16,-20,-8
2175,177,17,1000,-13,-1,-2
2176,83,46,1003,-12,19,0
2177,-71,61,1000,-13,28,3
2178,-166,44,987,-15,15,0
2179,-157,29,974,-15,-6,-3
2180,-7,19,1006,-17,-25,-7
2181,114,5,1017,-16,-24,-8
2182,186,19,1005,-13,-8,-6
2183,116,44,990,-11,15,-1
2184,-38,62,999,-10,26,3
2185,-158,48,992,-17,18,2
2186,-165,40,977,-16,-1,-2
2187,-46,15,1000,-18,-21,-6
2188,90,2,1008,-17,-24,-8
2189,186,15,999,-13,-11,-7
2190,131,40,1008,-12,12,0
2191,-5,52,1011,-11,25,3
2192,-139,51,982,-14,22,3
2193,-170,48,972,-17,4,0
2194,-87,14,999,-17,-16,-6
2195,64,3,1014,-18,-25,-9
2196,176,14,1002,-15,-18,-8
2197,152,28,999,-10,7,-4
2198,29,48,1008,-9,26,2
2199,-120,59,985,-12,26,4
2200,-173,47,994,-16,10,0
2201,-122,21,990,-18,-14,-4
2202,42,11,998,-18,-26,-9
2203,160,6,1006,-15,-19,-8
2204,167,24,1006,-13,3,-2
2205,68,42,1005,-11,21,-1
2206,-89,59,990,-13,26,3
2207,-172,48,984,-14,13,2
2208,-147,28,988,-15,-7,-4
2209,9,16,1016,-19,-24,-7
2210,133,7,1004,-15,-21,-8
2211,181,17,996,-13,-3,-5
2212,101,39,997,-11,19,-2
2213,-59,59,1003,-12,29,3
2214,-164,43,992,-16,16,1
2215,-164,37,972,-13,-4,-2
2216,-23,18,998,-17,-23,-6
2217,104,6,1018,-16,-23,-8
2218,182,20,1012,-14,-8,-6
2219,125,42,994,-10,13,-2
2220,-19,51,1003,-12,26,2
2221,-152,48,982,-14,21,2
2222,-168,43,981,-17,1,-1
2223,-66,17,1002,-18,-19,-6
2224,76,8,1007,-17,-24,-9
2225,185,18,999,-14,-14,-6
2226,141,36,1006,-10,10,-1
2227,10,49,1014,-13,24,2
2228,-130,49,985,-16,22,4
2229,-172,49,978,-15,6,0
2230,-102,15,993,-20,-16,-5
2231,57,6,1006,-17,-26,-8
2232,167,12,1008,-14,-17,-7
2233,159,29,1002,-11,5,-3
2234,45,44,1006,-12,23,2
2235,-101,64,983,-12,25,4
2236,-177,44,992,-16,11,1
2237,-128,20,991,-18,-11,-5
2238,25,11,1003,-19,-24,-7
2239,154,12,999,-15,-19,-9
2240,174,20,1002,-12,1,-3
2241,78,49,1005,-11,19,0
2242,-75,61,997,-14,27,3
2243,-170,43,986,-16,15,1
2244,-156,26,976,-16,-6,-2
2245,-11,18,1008,-16,-26,-7
2246,121,7,1018,-16,-24,-7
2247,182,12,1002,-12,-4,-6
2248,112,42,992,-11,17,-1
2249,-43,59,1001,-11,27,4
2250,-157,47,993,-15,19,2
2251,-165,37,977,-16,0,-1
2252,-48,19,1002,-18,-21,-6
2253,97,2,1009,-18,-26,-9
2254,180,18,1003,-11,-10,-6
2255,132,38,1005,-10,13,-2
2256,-1,51,1018,-12,27,1
2257,-140,51,974,-14,21,3
2258,-169,45,973,-15,3,0
2259,-81,15,1007,-17,-19,-6
2260,69,7,1005,-18,-24,-6
2261,177,15,1003,-15,-15,-7
2262,151,31,1001,-12,8,-2
2263,29,47,1007,-12,24,1
2264,-119,54,986,-15,25,3
2265,-175,44,993,-17,8,1
2266,-114,19,986,-18,-15,-5
2267,46,11,998,-16,-27,-7
2268,159,15,1008,-14,-17,-7
2269,165,25,1006,-14,4,-3
2270,64,44,1005,-12,22,1
2271,-96,61,986,-14,26,4
2272,-171,44,985,-16,12,1
2273,-144,26,991,-19,-9,-3
2274,11,12,1012,-17,-24,-6
2275,139,10,1006,-15,-21,-7
2276,176,10,996,-14,-3,-4
2277,89,51,997,-10,19,0
2278,-59,58,1004,-14,28,3
2279,-167,52,990,-14,17,2
2280,-159,33,971,-17,-3,-1
2281,-22,17,1002,-16,-21,-6
2282,105,3,1019,-15,-22,-8
2283,183,18,1011,-14,-8,-6
2284,121,39,995,-10,14,-2
2285,-28,56,1000,-11,28,3
2286,-151,49,984,-11,21,1
2287,-169,45,982,-16,2,-1
2288,-60,21,1004,-21,-21,-6
2289,82,3,1006,-17,-25,-8
2290,182,16,998,-12,-12,-7
2291,139,33,1004,-13,11,-2
2292,7,46,1016,-11,25,2
2293,-130,53,983,-14,22,3
2294,-172,49,976,-16,5,0
2295,-95,21,992,-16,-16,-5
2296,59,9,1009,-17,-26,-9
2297,171,14,1004,-15,-16,-6
2298,155,29,1004,-13,7,-3
2299,43,43,1004,-13,24,1
2300,-107,58,983,-13,26,4
2301,-174,47,993,-16,10,1
2302,-129,20,991,-18,-11,-4
2303,32,15,1003,-15,-25,-9
2304,148,12,1001,-17,-19,-8
2305,171,23,1003,-11,1,-4
2306,76,45,1008,-11,19,1
2307,-79,58,994,-13,26,3
2308,-166,41,986,-16,14,1
2309,-154,28,979,-17,-7,-3
2310,-4,20,1011,-17,-24,-7
2311,127,7,1016,-17,-22,-8
2312,181,16,1000,-12,-5,-4
2313,111,44,989,-11,17,0
2314,-47,55,1003,-12,26,4
2315,-159,44,991,-13,17,2
2316,-163,37,975,-17,0,-1
2317,-35,17,1002,-18,-22,-7
2318,95,8,1009,-17,-24,-7
2319,182,19,1003,-13,-10,-6
2320,129,38,1004,-12,13,-1
2321,-12,47,1012,-11,25,3
2322,-146,50,974,-14,21,2
2323,-168,40,978,-16,3,-1
2324,-76,19,1005,-17,-19,-5
2325,68,6,1008,-16,-24,-8
2326,180,18,1005,-13,-13,-8
2327,145,32,1001,-12,9,-2
2328,23,49,1003,-9,24,1
2329,-120,53,992,-14,25,2
2330,-178,47,993,-16,9,0
2331,-108,14,982,-18,-14,-4
2332,42,10,1004,-16,-27,-7
2333,164,14,1006,-15,-19,-8
2334,161,27,1004,-13,4,-3
2335,62,47,1007,-13,22,0
2336,-96,61,986,-12,27,4
2337,-168,46,983,-14,12,1
2338,-143,24,992,-20,-8,-3
2339,13,17,1014,-16,-24,-7
2340,141,3,1001,-16,-21,-8
2341,180,15,996,-12,-1,-3
2342,92,43,997,-9,19,1
2343,-63,62,1008,-12,27,2
2344,-167,43,992,-15,15,2
2345,-160,35,973,-16,-4,-1
2346,-21,15,1000,-18,-24,-7
2347,106,5,1018,-15,-23,-8
2348,186,17,1010,-14,-7,-6
2349,118,44,994,-13,15,-1
2350,-24,52,1003,-13,27,2
2351,-153,48,981,-14,19,2
2352,-171,42,983,-15,1,-1
2353,-58,21,1004,-18,-20,-6
2354,79,6,1004,-18,-24,-7
2355,184,19,1001,-14,-12,-8
2356,138,33,1006,-13,11,-1
2357,6,49,1018,-13,25,3
2358,-132,49,982,-14,23,2
2359,-173,47,979,-16,5,1
2360,-96,17,988,-17,-16,-4
2361,58,5,1011,-15,-26,-8
2362,168,17,1007,-13,-18,-7
2363,157,30,1000,-11,4,-3
2364,44,45,1007,-12,24,1
2365,-112,62,987,-11,26,4
2366,-171,45,992,-24,9,2
2367,-130,23,991,-24,-12,-2
2368,30,15,1002,-16,-25,-6
2369,154,9,1000,-13,-19,-8
2370,170,19,1002,-17,0,-3
2371,77,46,1003,-6,20,0
2372,-79,59,995,-16,27,3
2373,-166,44,987,-16,14,1
2374,-153,31,976,-14,-4,-3
2375,-3,19,1014,-21,-24,-8
2376,127,7,1013,-14,-22,-8
2377,181,14,1004,-12,-4,-6
2378,108,44,991,-12,17,0
2379,-44,55,1000,-11,28,3
2380,-155,49,992,-13,18,1
2381,-167,39,975,-17,0,0
2382,-38,19,1002,-18,-22,-7
2383,97,4,1009,-17,-24,-8
2384,179,18,1001,-13,-12,-6
2385,133,39,1008,-13,12,-2
2386,-10,43,1012,-12,27,3
2387,-140,54,976,-12,22,1
2388,-167,43,978,-17,2,-2
2389,-82,21,1002,-16,-18,-6
2390,71,7,1009,-18,-25,-8
2391,174,18,1004,-16,-15,-7
2392,150,29,998,-13,7,-3
2393,29,42,1007,-12,24,1
2394,-119,55,986,-13,24,3
2395,-173,45,992,-16,7,1
2396,-112,23,989,-17,-13,-5
2397,44,11,997,-17,-25,-7
2398,161,17,1008,-13,-18,-7
2399,161,21,1005,-14,3,-3
2400,65,40,1006,-11,21,1
2401,-91,58,988,-11,25,4
2402,-167,42,983,-15,12,1
2403,-145,28,991,-16,-9,-3
2404,10,18,1013,-18,-25,-7
2405,138,10,1009,-17,-22,-9
2406,174,15,992,-12,-3,-5
2407,94,44,998,-11,18,-1
2408,-58,55,1004,-12,27,4
2409,-168,47,991,-14,16,3
2410,-154,32,969,-16,-4,-3
2411,-27,20,1004,-16,-22,-7
2412,106,8,1014,-15,-23,-8
2413,181,17,1009,-14,-9,-6
2414,123,39,999,-11,15,-1
2415,-25,51,1001,-12,27,3
2416,-146,46,982,-14,19,1
2417,-165,38,984,-15,1,-1
2418,-62,19,1003,-18,-21,-6
2419,81,3,1006,-14,-24,-9
2420,181,19,1000,-12,-13,-6
2421,141,40,1004,-11,10,-2
2422,9,50,1012,-11,25,2
2423,-128,53,986,-15,22,3
2424,-168,43,981,-16,4,1
2425,-99,16,990,-17,-15,-5
2426,53,5,1006,-18,-26,-7
2427,167,15,1006,-13,-17,-8
2428,153,30,1005,-13,6,-3
2429,45,48,1003,-11,22,1
2430,-101,60,987,-13,26,2
2431,-174,47,990,-16,11,1
2432,-134,21,990,-17,-12,-3
2433,31,12,1009,-18,-24,-8
2434,146,9,998,-14,-19,-7
2435,174,20,996,-12,0,-5
2436,80,44,1010,-10,21,-1
2437,-78,63,993,-12,26,4
2438,-162,45,985,-16,15,1
2439,-155,33,980,-16,-6,-2
2440,-11,23,999,-17,-24,-5
2441,121,1,1020,-18,-23,-8
2442,178,17,1006,-14,-6,-4
2443,113,39,990,-11,15,-1
2444,-36,50,1002,-12,27,2
2445,-159,47,989,-14,17,1
2446,-161,39,982,-17,-1,-3
2447,-47,18,1003,-19,-22,-8
2448,85,5,1003,-17,-25,-9
2449,186,14,1002,-12,-12,-9
2450,127,35,1007,-12,12,-1
2451,-1,47,1014,-11,24,2
2452,-136,44,979,-13,22,2
2453,-170,43,973,-15,4,-1
2454,-84,17,997,-16,-17,-6
2455,64,7,1010,-17,-24,-8
2456,173,13,1005,-18,-16,-6
2457,151,30,1000,-11,6,-2
2458,31,43,1003,-13,24,1
2459,-115,59,989,-13,25,2
2460,-170,45,997,-14,9,0
2461,-124,23,985,-16,-13,-5
2462,41,10,1004,-15,-25,-9
2463,155,13,999,-15,-19,-7
2464,164,23,1006,-11,2,-3
2465,72,47,1008,-12,20,0
2466,-88,62,993,-14,27,4
2467,-165,48,981,-14,12,1
2468,-150,29,986,-16,-7,-3
2469,6,20,1013,-17,-25,-7
2470,130,3,1010,-16,-23,-8
2471,182,16,999,-12,-4,-5
2472,103,41,991,-12,18,0
2473,-51,58,1005,-12,27,4
2474,-159,49,991,-13,16,2
2475,-164,40,973,-17,-2,-2
2476,-29,15,1003,-16,-22,-7
2477,97,6,1009,-18,-24,-8
2478,181,17,1001,-13,-11,-7
2479,129,36,1008,-11,13,-2
2480,-15,50,1005,-12,28,2
2481,-143,54,978,-12,21,3
2482,-169,41,978,-17,3,0
2483,-79,15,1005,-19,-18,-6
2484,72,5,1006,-18,-24,-8
2485,176,14,1006,-15,-13,-7
2486,144,34,1000,-12,9,-2
2487,22,44,1006,-11,24,3
2488,-123,57,987,-13,24,2
2489,-175,45,991,-14,7,1
2490,-109,20,986,-17,-14,-6
2491,48,8,1002,-17,-26,-7
2492,163,15,1009,-15,-17,-8
2493,164,22,1005,-12,3,-4
2494,57,47,1006,-13,22,1
2495,-91,60,987,-12,26,3
2496,-175,45,982,-13,12,2
2497,-140,25,990,-16,-10,-3
2498,13,15,1016,-15,-25,-8
2499,138,11,1004,-17,-22,-9
2500,178,16,997,-13,-4,-4
2501,96,43,998,-9,19,0
2502,-62,56,1003,-10,27,4
2503,-162,48,991,-14,16,2
2504,-158,35,973,-16,-4,-3
2505,-20,22,998,-16,-23,-8
2506,107,9,1019,-18,-22,-9
2507,181,16,1007,-13,-7,-6
2508,121,39,999,-11,14,-2
2509,-24,51,1000,-12,27,4
2510,-150,48,981,-13,21,2
2511,-166,44,981,-14,2,-2
2512,-64,18,1005,-18,-20,-6
2513,80,8,1006,-18,-26,-7
2514,178,16,1001,-13,-12,-7
2515,138,34,1000,-12,11,-2
2516,11,42,1016,-12,25,3
2517,-128,55,981,-13,23,3
2518,-167,43,985,-15,7,0
2519,-102,20,990,-17,-14,-5
2520,53,8,1007,-17,-26,-8
2521,166,14,1008,-14,-18,-8
2522,153,28,1002,-11,5,-2
2523,50,44,1007,-13,23,1
2524,-105,60,986,-13,27,3
2525,-171,46,989,-15,10,2
2526,-134,22,997,-15,-10,-4
2527,22,15,1009,-16,-25,-8
2528,146,10,1002,-14,-19,-9
2529,170,19,998,-13,-1,-5
2530,83,45,1004,-10,18,0
2531,-68,63,1002,-14,26,2
2532,-162,43,987,-15,14,1
2533,-156,32,973,-16,-6,-2
2534,-11,18,1003,-17,-23,-7
2535,112,6,1016,-15,-22,-9
2536,184,16,1007,-13,-7,-5
2537,116,42,995,-11,15,-1
2538,-37,55,997,-10,26,3
2539,-155,49,989,-16,18,2
2540,-166,37,982,-17,0,0
2541,-54,21,999,-18,-21,-6
2542,89,4,1006,-17,-25,-8
2543,183,20,1000,-13,-11,-6
2544,133,37,1004,-13,12,-1
2545,2,45,1019,-13,24,2
2546,-136,52,981,-13,21,2
2547,-168,46,976,-16,5,0
2548,-90,17,996,-17,-16,-5
2549,60,13,1011,-16,-25,-7
2550,175,14,1003,-15,-17,-7
2551,152,32,1003,-11,5,-2
2552,42,43,1003,-11,23,1
2553,-112,58,987,-13,26,3
2554,-171,44,993,-16,9,0
2555,-129,23,990,-18,-12,-4
2556,33,13,1004,-17,-25,-8
2557,151,10,999,-14,-20,-7
2558,170,19,1002,-14,0,-4
2559,71,44,1005,-11,20,0
2560,-79,63,996,-12,27,3
2561,-164,45,986,-15,13,0
2562,-151,32,978,-15,-6,-3
2563,1,18,1007,-16,-23,-7
2564,118,6,1017,-16,-22,-7
2565,181,14,1001,-13,-5,-6
2566,103,41,989,-11,17,0
2567,-44,57,1003,-10,25,2
2568,-161,48,991,-14,17,2
2569,-159,39,976,-15,-2,-1
2570,-42,19,1007,-18,-21,-6
2571,91,3,1005,-17,-25,-8
2572,181,16,1000,-13,-10,-6
2573,129,38,1010,-12,12,-2
2574,-5,49,1013,-12,25,3
2575,-136,51,975,-14,22,2
2576,-166,46,977,-17,3,0
2577,-83,22,1000,-16,-18,-6
2578,69,7,1011,-18,-25,-8
2579,173,17,1005,-16,-15,-7
2580,149,34,998,-12,8,-2
2581,30,44,1007,-11,24,2
2582,-118,56,988,-14,25,4
2583,-170,45,995,-15,8,0
2584,-117,19,990,-17,-13,-5
2585,40,16,998,-17,-25,-7
2586,157,16,1004,-14,-19,-9
2587,162,23,1007,-13,2,-5
2588,66,47,1002,-12,19,1
2589,-81,60,989,-13,25,3
2590,-171,41,985,-16,13,2
2591,-144,29,984,-16,-7,-4
2592,8,18,1014,-17,-24,-7
2593,128,9,1011,-15,-22,-8
2594,180,16,997,-12,-3,-5
2595,97,42,992,-12,18,0
2596,-57,59,1004,-12,26,3
2597,-160,43,994,-14,15,1
2598,-158,33,973,-16,-3,-1
2599,-33,15,1002,-16,-23,-6
2600,101,8,1013,-16,-24,-9
2601,180,18,1007,-13,-9,-7
2602,125,42,1000,-11,14,-2
2603,-20,47,1011,-12,27,2
2604,-143,50,973,-14,21,2
2605,-166,43,977,-17,2,-1
2606,-72,17,1008,-18,-20,-6
2607,71,6,1007,-17,-24,-8
2608,181,15,1000,-14,-14,-8
2609,143,34,1002,-12,8,-1
2610,19,46,1008,-10,24,3
2611,-123,57,987,-13,24,2
2612,-171,46,991,-16,8,0
2613,-110,19,986,-17,-15,-4
2614,53,9,1001,-18,-26,-9
2615,158,12,1007,-13,-17,-8
2616,159,22,1002,-13,5,-4
2617,61,43,1004,-13,22,0
2618,-98,59,985,-11,26,2
2619,-168,48,983,-16,11,1
2620,-144,24,992,-19,-9,-3
2621,15,19,1012,-17,-25,-7
2622,142,8,1003,-16,-22,-7
2623,174,16,995,-12,-3,-5
2624,93,40,999,-12,18,-1
2625,-64,56,1004,-12,28,4
2626,-169,46,990,-15,15,2
2627,-158,36,975,-16,-4,-3
2628,-19,20,1001,-16,-23,-8
2629,104,8,1014,-18,-23,-8
2630,183,16,1011,-16,-9,-5
2631,122,39,995,-9,14,-1
2632,-25,51,998,-11,25,4
2633,-148,48,983,-13,20,2
2634,-167,43,981,-16,2,-1
2635,-60,19,1006,-20,-20,-6
2636,79,4,1003,-17,-25,-7
2637,181,16,1002,-14,-13,-7
2638,141,33,1001,-12,11,-2
2639,6,45,1016,-11,25,3
2640,-126,51,983,-13,22,3
2641,-173,46,982,-15,6,1
2642,-97,22,988,-17,-16,-5
2643,57,8,1009,-17,-25,-9
2644,168,17,1006,-15,-17,-8
2645,156,25,1003,-13,6,-2
2646,48,45,1005,-12,23,1
2647,-104,59,988,-12,26,4
2648,-173,45,989,-14,10,0
2649,-133,26,995,-18,-11,-3
2650,27,11,1003,-18,-23,-8
2651,148,13,1003,-15,-19,-8
2652,173,13,999,-12,-1,-6
2653,79,47,1005,-11,19,-1
2654,-73,57,997,-14,26,3
2655,-166,45,988,-13,15,0
2656,-152,32,974,-17,-6,-2
2657,-12,21,1004,-18,-25,-6
2658,118,5,1020,-17,-22,-9
2659,181,13,1005,-13,-6,-5
2660,111,42,992,-11,15,-2
2661,-36,54,998,-10,26,4
2662,-153,48,992,-14,19,2
2663,-164,40,978,-17,0,-1
2664,-48,18,1006,-18,-21,-7
2665,87,3,1004,-17,-24,-9
2666,182,21,996,-14,-12,-5
2667,135,37,1007,-12,11,-2
2668,-2,48,1017,-12,26,3
2669,-134,52,976,-14,21,1
2670,-167,43,978,-16,4,0
2671,-92,20,996,-17,-17,-5
2672,63,6,1007,-17,-25,-7
2673,172,17,1006,-15,-16,-8
2674,151,29,999,-13,6,-3
2675,39,47,1006,-12,23,0
2676,-115,60,987,-14,27,2
2677,-171,46,994,-16,9,1
2678,-123,17,991,-17,-12,-4
2679,34,12,1000,-16,-25,-7
2680,159,10,1003,-13,-20,-9
2681,165,20,1007,-13,2,-4
2682,71,46,1004,-13,19,-1
2683,-84,59,992,-13,27,3
2684,-167,45,984,-16,13,2
2685,-148,26,984,-15,-6,-2
2686,1,18,1012,-18,-23,-7
2687,125,4,1013,-16,-21,-7
2688,176,17,1002,-12,-3,-6
2689,108,42,990,-13,17,-2
2690,-48,59,1002,-9,29,3
2691,-160,50,994,-15,17,1
2692,-159,41,975,-18,-2,-2
2693,-37,17,1005,-18,-21,-7
2694,93,5,1006,-17,-24,-7
2695,179,18,1007,-14,-10,-7
2696,129,35,1004,-10,12,-2
2697,-12,49,1013,-12,28,3
2698,-139,54,977,-13,22,2
2699,-166,40,979,-16,2,1
2700,-77,22,1003,-17,-19,-5
2701,66,5,1008,-9,-27,-9
2702,178,17,1003,-13,-20,-9
2703,147,31,1001,-9,8,-2
2704,26,48,1005,-14,24,0
2705,-120,58,989,-11,24,3
2706,-171,47,994,-16,8,0
2707,-113,21,987,-19,-13,-4
2708,44,11,998,-13,-24,-8
2709,160,14,1007,-16,-18,-6
2710,162,19,1006,-13,2,-3
2711,62,46,1004,-10,20,1
2712,-90,58,989,-13,26,4
2713,-167,47,983,-14,12,0
2714,-146,29,989,-18,-8,-2
2715,12,19,1016,-19,-26,-7
2716,133,8,1006,-16,-23,-9
2717,174,16,998,-11,-3,-4
2718,97,40,995,-10,18,-1
2719,-59,54,1005,-13,27,2
2720,-161,48,991,-14,16,1
2721,-162,37,974,-14,-2,-2
2722,-24,22,1001,-16,-22,-7
2723,102,7,1013,-17,-23,-8
2724,179,19,1010,-15,-9,-6
2725,123,34,999,-12,13,-1
2726,-23,46,1005,-11,27,3
2727,-148,50,979,-12,21,2
2728,-165,44,983,-15,2,-1
2729,-68,20,1002,-17,-19,-6
2730,74,7,1004,-18,-24,-8
2731,180,17,1002,-14,-13,-7
2732,142,35,1001,-11,12,-2
2733,15,50,1014,-14,23,2
2734,-124,52,988,-14,23,2
2735,-169,45,985,-17,6,0
2736,-106,18,987,-15,-14,-5
2737,53,9,1001,-16,-25,-8
2738,161,15,1010,-13,-16,-6
2739,157,30,1003,-13,6,-3
2740,52,43,1004,-13,22,2
2741,-98,59,987,-12,26,3
2742,-170,43,987,-17,11,1
2743,-134,24,992,-17,-9,-5
2744,19,12,1012,-17,-23,-7
2745,143,11,1000,-16,-21,-8
2746,174,16,998,-14,-1,-3
2747,86,45,996,-10,19,1
2748,-66,56,1006,-14,26,3
2749,-164,44,987,-13,15,-1
2750,-157,32,974,-16,-5,-3
2751,-14,18,1003,-17,-24,-8
2752,111,5,1019,-16,-21,-7
2753,181,15,1008,-15,-7,-4
2754,118,37,996,-10,15,-1
2755,-30,51,1000,-12,27,3
2756,-151,48,980,-13,19,1
2757,-164,45,987,-17,1,-1
2758,-57,22,1003,-19,-21,-4
2759,84,6,1005,-16,-24,-7
2760,183,16,1001,-14,-11,-6
2761,136,34,1004,-13,12,-2
2762,6,48,1013,-11,24,1
2763,-131,52,985,-14,21,2
2764,-169,48,977,-15,4,1
2765,-92,14,992,-19,-17,-5
2766,57,8,1010,-16,-26,-6
2767,169,14,1005,-15,-19,-7
2768,151,25,1004,-13,4,-3
2769,43,45,1003,-11,22,1
2770,-106,61,984,-11,25,2
2771,-172,46,991,-13,10,0
2772,-129,25,992,-16,-11,-4
2773,31,14,1002,-17,-24,-7
2774,150,11,1000,-15,-18,-9
2775,170,19,1001,-14,1,-4
2776,77,43,1005,-11,20,-1
2777,-77,61,1000,-11,27,3
2778,-167,45,986,-16,14,1
2779,-154,31,975,-14,-6,-2
2780,-5,21,1009,-18,-25,-6
2781,116,3,1019,-17,-22,-8
2782,181,20,1005,-12,-6,-6
2783,110,41,992,-13,16,-1
2784,-39,56,998,-10,26,3
2785,-156,49,990,-13,19,2
2786,-162,39,981,-16,2,-1
2787,-45,17,1002,-18,-20,-6
2788,91,2,1006,-18,-24,-8
2789,183,15,1000,-13,-11,-7
2790,131,38,1007,-10,13,-1
2791,-3,50,1017,-13,25,3
2792,-134,53,979,-11,21,2
2793,-166,46,977,-16,4,1
2794,-86,19,998,-16,-15,-6
2795,65,3,1008,-16,-25,-8
2796,173,17,1005,-14,-17,-7
2797,148,28,997,-11,7,-2
2798,36,44,1005,-13,23,1
2799,-111,62,985,-11,24,4
2800,-175,43,995,-14,8,0
2801,-118,22,992,-17,-14,-4
2802,37,8,1000,-16,-25,-7
2803,153,10,1000,-16,-19,-9
2804,168,16,1005,-15,2,-3
2805,73,45,1006,-11,19,0
2806,-82,62,992,-13,27,4
2807,-169,46,985,-15,14,1
2808,-147,27,979,-15,-6,-3
2809,-1,19,1010,-18,-25,-8
2810,122,6,1014,-16,-23,-8
2811,179,14,1001,-11,-4,-5
2812,107,41,988,-11,17,-1
2813,-46,55,1002,-12,26,3
2814,-157,45,994,-14,18,1
2815,-164,40,976,-15,-1,-1
2816,-36,18,1003,-19,-21,-6
2817,91,5,1007,-16,-23,-8
2818,180,20,1001,-11,-10,-6
2819,127,36,1006,-10,14,-2
2820,-10,51,1013,-10,26,3
2821,-139,54,977,-13,21,3
2822,-164,45,975,-17,3,-1
2823,-81,17,1003,-17,-18,-5
2824,69,5,1007,-16,-25,-8
2825,171,15,1004,-15,-15,-7
2826,145,33,999,-9,7,-2
2827,31,44,1006,-10,23,2
2828,-115,58,990,-12,25,2
2829,-171,48,995,-15,9,1
2830,-113,21,987,-18,-13,-5
2831,42,10,999,-18,-25,-7
2832,155,12,1005,-16,-19,-7
2833,165,19,1007,-13,2,-3
2834,64,43,1005,-10,21,0
2835,-84,62,990,-13,26,2
2836,-166,46,986,-14,13,1
2837,-144,27,985,-17,-8,-3
2838,6,14,1017,-18,-25,-7
2839,129,7,1008,-17,-22,-8
2840,177,15,997,-13,-4,-5
2841,102,43,994,-10,17,0
2842,-55,58,1001,-11,27,5
2843,-161,46,991,-13,16,1
2844,-160,40,976,-17,-3,-1
2845,-29,20,1002,-16,-22,-7
2846,97,5,1007,-17,-22,-8
2847,181,18,1005,-14,-9,-8
2848,123,35,1006,-13,13,0
2849,-15,51,1006,-12,27,3
2850,-143,50,976,-14,21,2
2851,-164,45,980,-16,2,0
2852,-76,18,1005,-19,-19,-5
2853,75,9,1007,-17,-23,-7
2854,177,19,1003,-15,-14,-7
2855,144,36,999,-11,8,-3
2856,24,44,1007,-12,24,2
2857,-120,56,988,-13,25,2
2858,-171,44,994,-15,7,1
2859,-110,19,985,-17,-14,-5
2860,50,12,1002,-16,-25,-6
2861,159,12,1006,-15,-16,-7
2862,163,24,1006,-15,3,-3
2863,60,44,1006,-12,22,1
2864,-92,62,990,-12,26,3
2865,-169,42,984,-15,12,1
2866,-145,24,986,-17,-9,-3
2867,17,15,1015,-16,-25,-7
2868,134,4,1009,-16,-21,-8
2869,176,19,993,-10,-3,-3
2870,97,44,997,-11,18,0
2871,-59,60,1002,-12,28,4
2872,-161,47,991,-15,16,2
2873,-154,34,973,-16,-4,-2
2874,-29,19,1003,-17,-22,-7
2875,103,4,1011,-16,-22,-8
2876,179,14,1006,-14,-9,-6
2877,122,39,1004,-11,12,-2
2878,-18,50,1005,-11,27,3
2879,-147,52,978,-12,23,1
2880,-164,41,978,-16,1,-1
2881,-76,20,1006,-17,-20,-6
2882,77,3,1005,-16,-25,-8
2883,176,14,1005,-14,-13,-8
2884,144,30,1002,-12,9,-2
2885,19,48,1009,-9,24,2
2886,-123,56,986,-13,25,3
2887,-171,46,992,-14,7,0
2888,-108,20,985,-18,-14,-5
2889,49,6,1001,-16,-25,-8
2890,158,12,1008,-13,-16,-8
2891,160,24,1005,-13,4,-4
2892,59,44,1004,-12,20,0
2893,-94,59,988,-11,24,4
2894,-169,50,986,-14,12,0
2895,-143,25,987,-16,-8,-3
2896,16,17,1015,-16,-25,-7
2897,138,7,1006,-16,-21,-9
2898,176,17,993,-12,-3,-4
2899,97,41,999,-13,20,-1
2900,-62,56,1003,-12,28,4
2901,-163,50,990,-14,14,1
2902,-155,36,976,-18,-4,-2
2903,-26,19,1003,-18,-21,-6
2904,106,8,1012,-18,-23,-7
2905,179,16,1009,-16,-7,-5
2906,121,38,1000,-13,14,-1
2907,-20,49,1009,-12,27,3
2908,-149,52,972,-12,20,2
2909,-161,40,985,-16,1,-1
2910,-65,20,1005,-18,-20,-6
2911,74,10,1005,-17,-25,-7
2912,183,17,1002,-15,-13,-7
2913,141,33,1001,-12,11,0
2914,17,47,1007,-13,24,2
2915,-125,53,988,-15,23,2
2916,-171,42,989,-16,7,0
2917,-106,20,988,-18,-14,-4
2918,55,10,997,-16,-25,-8
2919,160,11,1012,-14,-16,-5
2920,158,25,1002,-11,4,-2
2921,57,44,1006,-11,21,0
2922,-93,60,983,-13,26,3
2923,-173,48,984,-16,11,3
2924,-137,25,986,-18,-9,-3
2925,15,13,1015,-18,-24,-8
2926,136,9,1005,-16,-20,-9
2927,175,17,996,-11,-2,-4
2928,94,46,996,-11,19,1
2929,-61,58,1004,-14,28,3
2930,-162,47,991,-16,16,1
2931,-157,35,973,-16,-3,-1
2932,-22,17,1004,-19,-23,-6
2933,106,1,1015,-17,-22,-8
2934,179,18,1003,-12,-8,-6
2935,126,37,1001,-11,14,-2
2936,-22,50,1011,-11,27,3
2937,-148,54,973,-15,21,3
2938,-165,42,979,-16,2,-2
2939,-70,19,1009,-18,-19,-6
2940,76,8,1004,-19,-26,-7
2941,180,16,1005,-14,-14,-8
2942,140,33,1000,-13,9,-2
2943,17,45,1006,-11,24,1
2944,-123,55,987,-14,24,3
2945,-173,47,993,-15,7,1
2946,-105,22,985,-16,-14,-5
2947,51,9,1003,-17,-24,-9
2948,159,13,1005,-13,-16,-7
2949,157,22,1005,-14,4,-3
2950,59,43,1005,-11,23,0
2951,-92,56,986,-12,27,4
2952,-166,44,984,-13,12,1
2953,-140,28,989,-17,-8,-4
2954,11,23,1010,-19,-24,-7
2955,133,10,1010,-16,-22,-8
2956,173,15,998,-12,-3,-4
2957,92,43,989,-13,18,0
2958,-53,54,1005,-13,27,2
2959,-162,45,990,-13,16,1
2960,-155,37,974,-16,-3,-1
2961,-26,17,1004,-16,-21,-7
2962,94,6,1010,-16,-22,-7
2963,180,16,1003,-14,-9,-6
2964,120,39,1007,-10,13,-1
2965,-15,50,1010,-12,25,2
2966,-140,52,974,-13,21,0
2967,-162,48,980,-16,3,-1
2968,-75,20,1004,-16,-19,-5
2969,72,8,1010,-17,-24,-8
2970,173,15,1001,-18,-13,-6
2971,143,34,1002,-11,8,-3
2972,25,46,1005,-12,23,1
2973,-120,59,987,-11,23,3
2974,-169,47,996,-14,7,0
2975,-114,18,988,-17,-14,-5
2976,46,13,1003,-17,-26,-9
2977,157,10,1003,-15,-18,-7
2978,159,22,1006,-14,2,-3
2979,66,44,1008,-11,20,1
2980,-90,63,988,-14,26,5
2981,-164,45,985,-15,13,0
2982,-144,28,983,-16,-7,-3
2983,5,18,1009,-18,-24,-7
2984,130,8,1013,-16,-21,-8
2985,178,17,1003,-14,-4,-5
2986,99,41,989,-11,17,1
2987,-50,57,1002,-11,27,3
2988,-160,48,993,-13,16,1
2989,-159,37,978,-15,-3,-1
2990,-33,15,1002,-17,-23,-7
2991,93,1,1006,-17,-23,-7
2992,183,16,1002,-13,-10,-7
2993,125,37,1005,-11,12,-2
2994,-10,51,1014,-12,26,2
2995,-139,51,976,-12,21,1
2996,-165,48,976,-15,3,-1
2997,-77,14,1002,-17,-19,-6
2998,67,8,1011,-16,-23,-8
2999,173,15,1005,-14,-15,-7
3000,147,29,997,-12,8,-3
3001,27,41,1010,-11,24,2
3002,-115,57,982,-12,24,3
3003,-169,44,997,-15,8,-1
3004,-114,19,990,-17,-12,-5
3005,37,19,1001,-16,-26,-7
3006,156,13,1000,-13,-18,-10
3007,162,18,1003,-15,2,-3
3008,69,45,1002,-8,19,0
3009,-80,54,994,-13,27,3
3010,-165,41,986,-14,12,2
3011,-142,32,976,-14,-8,-3
3012,1,21,1010,-16,-23,-7
3013,119,9,1016,-14,-21,-7
3014,180,15,1004,-14,-5,-5
3015,102,41,991,-14,17,0
3016,-44,57,1003,-12,26,4
3017,-155,47,984,-15,17,1
3018,-160,40,985,-16,-1,-1
3019,-40,18,1002,-19,-21,-5
3020,92,3,1004,-18,-23,-7
3021,178,16,1000,-12,-11,-6
3022,126,37,1006,-12,12,-1
3023,-8,49,1015,-12,24,2
3024,-136,54,978,-14,21,2
3025,-163,46,977,-18,4,-2
3026,-85,17,998,-19,-16,-5
3027,69,3,1006,-17,-24,-8
3028,167,17,1006,-14,-15,-6
3029,144,28,998,-11,7,-3
3030,35,46,1008,-10,23,0
3031,-108,56,983,-13,24,2
3032,-174,44,993,-16,8,1
3033,-119,22,995,-17,-12,-5
3034,33,12,1005,-17,-23,-7
3035,152,11,998,-15,-19,-8
3036,166,17,1002,-13,0,-4
3037,71,47,1002,-9,19,0
3038,-74,55,997,-13,26,3
3039,-161,45,989,-20,16,3
3040,-147,30,975,-21,-6,-2
3041,-1,21,1006,-14,-24,-8
3042,115,6,1019,-16,-22,-7
3043,172,19,1006,-14,-5,-4
3044,110,37,991,-10,15,-2
3045,-42,50,1003,-13,26,3
3046,-151,48,984,-14,18,2
3047,-159,37,987,-16,1,-1
3048,-49,22,1005,-18,-21,-7
3049,86,5,999,-16,-25,-8
3050,180,24,1003,-13,-11,-6
3051,129,35,1004,-14,11,-1
3052,-3,48,1014,-13,25,2
3053,-131,48,983,-14,22,2
3054,-166,44,980,-13,6,-1
3055,-87,19,994,-15,-15,-6
3056,61,11,1007,-17,-25,-7
3057,165,17,1007,-15,-17,-7
3058,150,27,1002,-14,5,-4
3059,38,45,1006,-13,22,0
3060,-103,53,983,-12,24,2
3061,-171,46,989,-15,10,0
3062,-124,22,996,-18,-12,-4
3063,28,15,1006,-19,-25,-7
3064,143,12,1000,-16,-20,-8
3065,168,21,999,-13,1,-4
3066,76,45,1001,-11,20,-1
3067,-76,60,1000,-14,27,4
3068,-163,45,988,-14,13,2
3069,-149,28,973,-15,-5,-2
3070,-4,16,1005,-17,-23,-6
3071,114,4,1017,-17,-21,-7
3072,179,20,1007,-13,-7,-7
3073,107,41,998,-13,17,-2
3074,-36,54,1000,-12,27,4
3075,-150,49,979,-14,18,2
3076,-159,41,982,-16,-2,-1
3077,-54,14,1010,-18,-21,-6
3078,85,2,1004,-17,-25,-9
3079,180,17,1001,-15,-11,-7
3080,132,38,1006,-12,12,0
3081,2,51,1009,-11,24,3
3082,-129,53,986,-13,23,2
3083,-170,50,984,-16,6,1
3084,-94,15,991,-18,-14,-5
3085,60,8,1002,-17,-25,-8
3086,162,12,1011,-16,-17,-7
3087,158,27,1001,-11,6,-4
3088,45,44,1007,-11,22,2
3089,-97,61,982,-10,25,3
3090,-172,45,988,-15,10,1
3091,-132,26,994,-19,-11,-3
3092,20,18,1012,-19,-24,-7
3093,142,10,1003,-15,-20,-9
3094,169,14,994,-12,-1,-3
3095,88,43,997,-8,19,-1
3096,-62,57,1004,-12,27,3
3097,-167,51,990,-14,16,1
3098,-153,36,973,-18,-3,-2
3099,-19,19,1004,-17,-22,-7
3100,100,6,1011,-16,-23,-7
3101,180,19,1009,-12,-9,-7
3102,117,35,1003,-13,14,-1
3103,-25,52,1002,-12,26,3
3104,-145,46,980,-14,20,1
3105,-161,44,981,-14,1,-1
3106,-64,19,1007,-17,-20,-6
3107,77,7,1004,-17,-24,-9
3108,178,17,1004,-14,-13,-6
3109,138,33,997,-13,10,-1
3110,14,44,1010,-11,24,1
3111,-124,52,985,-14,22,2
3112,-168,42,990,-16,7,-1
3113,-103,18,990,-15,-14,-6
3114,52,12,997,-17,-25,-8
3115,160,17,1011,-14,-16,-8
3116,155,26,1003,-14,4,-2
3117,50,47,1003,-11,21,-1
3118,-92,59,986,-13,26,2
3119,-166,41,985,-17,12,1
3120,-137,26,987,-16,-9,-4
3121,16,13,1013,-17,-24,-7
3122,133,10,1009,-14,-21,-8
3123,173,19,996,-12,-2,-4
3124,95,42,995,-12,19,-1
3125,-55,57,1005,-13,27,2
3126,-159,49,988,-15,15,0
3127,-153,33,977,-19,-3,-2
3128,-22,17,1001,-16,-21,-6
3129,102,4,1010,-16,-22,-8
3130,178,17,1003,-14,-10,-6
3131,119,38,1006,-13,13,-1
3132,-17,54,1008,-11,26,2
3133,-141,54,973,-13,20,2
3134,-163,46,980,-18,2,0
3135,-71,17,1006,-18,-19,-5
3136,74,3,1007,-18,-23,-8
3137,175,14,1006,-14,-14,-8
3138,143,33,1000,-13,9,-2
3139,20,50,1005,-11,25,0
3140,-117,61,987,-11,25,1
3141,-172,46,998,-16,8,1
3142,-115,22,983,-18,-15,-5
3143,49,9,1005,-17,-27,-8
3144,156,9,1003,-17,-19,-8
3145,159,20,1003,-13,3,-4
3146,63,45,1007,-10,21,-1
3147,-90,58,990,-11,26,3
3148,-166,47,986,-15,13,1
3149,-145,26,984,-18,-8,-2
3150,6,19,1013,-18,-25,-8
3151,125,4,1010,-17,-21,-8
3152,177,12,1004,-13,-4,-5
3153,98,39,990,-13,18,0
3154,-50,54,1000,-12,27,4
3155,-162,45,991,-13,18,0
3156,-159,39,980,-15,-1,-1
3157,-34,13,1001,-18,-23,-6
3158,92,4,1008,-17,-24,-7
3159,183,15,998,-12,-11,-7
3160,121,38,1007,-11,14,-2
3161,-8,50,1015,-11,25,2
3162,-138,54,978,-12,21,2
3163,-162,50,976,-14,4,0
3164,-81,13,1001,-17,-17,-4
3165,69,7,1008,-16,-24,-8
3166,170,12,1006,-15,-15,-6
3167,147,31,997,-11,8,-3
3168,32,46,1008,-11,24,1
3169,-113,58,983,-12,25,3
3170,-172,49,995,-15,9,2
3171,-118,22,989,-18,-13,-4
3172,36,15,1008,-17,-25,-6
3173,156,12,1001,-15,-19,-8
3174,161,19,1004,-11,1,-3
3175,69,43,1002,-9,20,-1
3176,-82,58,999,-12,27,4
3177,-165,45,986,-14,13,2
3178,-148,28,977,-16,-7,-2
3179,0,25,1009,-18,-24,-7
3180,119,9,1016,-17,-22,-7
3181,177,16,1007,-14,-5,-6
3182,109,41,996,-13,17,-1
3183,-42,51,996,-13,26,5
3184,-156,47,987,-15,19,2
3185,-156,39,988,-14,1,-2
3186,-46,23,1001,-18,-22,-6
3187,86,3,1006,-15,-24,-9
3188,183,21,1001,-12,-10,-6
3189,126,36,1006,-13,12,-1
3190,2,47,1011,-10,25,1
3191,-136,52,984,-13,23,3
3192,-162,46,979,-15,5,0
3193,-90,19,994,-16,-16,-4
3194,63,7,1003,-16,-24,-7
3195,163,16,1011,-15,-16,-6
3196,152,28,1003,-12,6,-2
3197,38,43,1003,-13,23,3
3198,-102,60,986,-13,25,4
3199,-168,40,989,-17,10,1
3200,-128,25,991,-18,-10,-4
3201,30,15,1014,-17,-23,-8
3202,142,12,1002,-15,-20,-8
3203,168,17,995,-11,-1,-4
3204,79,46,998,-12,19,0
3205,-72,60,1004,-14,28,3
3206,-163,45,985,-13,15,-1
3207,-148,31,975,-16,-5,-3
3208,-14,18,1004,-15,-23,-7
3209,111,6,1013,-16,-22,-8
3210,178,18,1009,-13,-7,-4
3211,112,43,999,-13,15,0
3212,-26,50,1005,-12,27,3
3213,-149,48,976,-14,19,1
3214,-159,45,981,-16,1,-1
3215,-60,14,1006,-17,-21,-5
3216,78,6,1008,-17,-25,-7
3217,180,16,1000,-16,-14,-8
3218,135,30,1003,-12,11,-2
3219,12,46,1004,-10,24,1
3220,-126,58,986,-11,23,2
3221,-166,49,992,-14,6,-1
3222,-107,20,990,-16,-15,-4
3223,53,12,1000,-17,-25,-8
3224,157,8,1005,-15,-18,-8
3225,157,19,1006,-12,2,-4
3226,54,41,1003,-11,21,1
3227,-93,59,989,-13,25,3
3228,-167,46,986,-13,12,1
3229,-142,29,984,-17,-7,-3
3230,15,20,1013,-18,-24,-8
3231,128,5,1014,-17,-21,-9
3232,173,12,997,-14,-4,-5
3233,95,40,993,-12,19,-1
3234,-55,56,1001,-12,26,3
3235,-161,48,991,-13,16,1
3236,-150,41,978,-17,-2,-1
3237,-32,21,1003,-18,-21,-5
3238,99,9,1007,-16,-23,-9
3239,178,18,1002,-15,-10,-6
3240,120,37,1005,-12,14,-2
3241,-10,43,1014,-13,26,2
3242,-136,50,977,-14,21,3
3243,-160,47,977,-16,2,0
3244,-77,24,999,-16,-18,-5
3245,69,9,1007,-18,-24,-7
3246,173,16,1004,-17,-16,-8
3247,144,29,1000,-13,8,-3
3248,30,44,1007,-13,24,1
3249,-111,57,984,-14,25,3
3250,-171,49,994,-13,8,1
3251,-118,25,992,-16,-14,-4
3252,40,15,1006,-15,-25,-8
3253,150,12,998,-15,-19,-8
3254,167,17,999,-14,1,-5
3255,70,43,1002,-9,20,-1
3256,-80,60,999,-13,27,4
3257,-162,41,988,-13,13,1
3258,-148,31,979,-16,-7,-3
3259,-1,20,1004,-17,-23,-8
3260,116,10,1016,-17,-21,-8
3261,176,18,1010,-15,-5,-5
3262,104,40,993,-12,15,0
3263,-38,52,998,-9,27,3
3264,-152,45,981,-12,19,2
3265,-159,41,982,-16,1,-1
3266,-54,19,1007,-19,-22,-6
3267,87,6,1006,-18,-26,-8
3268,181,15,1002,-13,-11,-7
3269,129,35,1000,-12,10,-3
3270,2,45,1012,-13,24,2
3271,-129,52,987,-12,21,1
3272,-169,43,986,-16,5,0
3273,-93,19,991,-18,-14,-6
3274,59,12,1005,-16,-25,-8
3275,164,12,1007,-14,-17,-8
3276,150,27,1005,-14,5,-2
3277,47,46,1004,-11,23,2
3278,-99,58,983,-13,26,3
3279,-170,44,985,-16,11,0
3280,-132,25,993,-17,-9,-4
3281,24,16,1013,-17,-24,-8
3282,136,12,1005,-15,-21,-8
3283,172,17,999,-13,-3,-5
3284,86,43,994,-10,19,0
3285,-62,52,999,-13,26,4
3286,-163,48,995,-12,16,2
3287,-151,34,975,-14,-4,-3
3288,-20,20,1003,-17,-22,-6
3289,102,5,1011,-16,-23,-8
3290,179,17,1005,-11,-8,-6
3291,117,37,1004,-12,13,-1
3292,-21,50,1011,-13,26,1
3293,-146,54,973,-13,20,2
3294,-158,43,979,-17,1,-1
3295,-72,18,1006,-17,-18,-4
3296,70,7,1006,-16,-24,-7
3297,176,12,1003,-15,-13,-7
3298,137,31,1001,-12,9,-1
3299,24,48,1005,-11,24,2
3300,-117,56,985,-13,25,3
3301,-169,47,994,-13,8,1
3302,-113,20,990,-18,-14,-3
3303,46,15,1002,-16,-26,-8
3304,152,10,1003,-14,-18,-6
3305,159,23,1002,-14,2,-2
3306,62,40,1004,-11,20,0
3307,-83,62,994,-14,25,4
3308,-162,44,988,-17,14,2
3309,-142,33,978,-16,-5,-3
3310,3,20,1009,-18,-25,-7
3311,118,8,1016,-16,-22,-8
3312,176,18,1004,-14,-5,-4
3313,100,41,992,-13,16,0
3314,-43,50,998,-13,27,3
3315,-158,45,985,-14,18,2
3316,-152,41,986,-15,-1,-1
3317,-44,17,1004,-17,-21,-5
3318,92,6,1005,-16,-24,-8
3319,180,18,1002,-14,-11,-6
3320,125,42,1004,-14,13,-2
3321,-1,46,1011,-12,26,2
3322,-133,55,983,-13,22,3
3323,-164,42,985,-16,4,1
3324,-89,17,990,-17,-16,-5
3325,62,9,1006,-19,-24,-7
3326,166,17,1006,-13,-16,-7
3327,150,25,1003,-11,4,-3
3328,41,47,1003,-10,21,1
3329,-105,59,986,-11,25,2
3330,-168,44,983,-16,10,1
3331,-130,22,994,-18,-10,-4
3332,28,15,1013,-18,-26,-7
3333,140,8,1004,-18,-20,-8
3334,170,15,996,-12,-2,-5
3335,84,44,998,-12,18,-1
3336,-68,56,1002,-12,27,4
3337,-165,50,989,-13,15,2
3338,-150,34,977,-16,-5,-3
3339,-16,14,1001,-17,-23,-7
3340,105,2,1012,-16,-22,-8
3341,180,15,1005,-14,-8,-6
3342,114,38,1004,-11,14,0
3343,-27,54,1003,-10,26,3
3344,-147,53,978,-13,20,1
3345,-158,46,980,-16,0,0
3346,-66,17,1005,-20,-20,-5
3347,80,2,1008,-17,-25,-9
3348,176,16,1003,-14,-13,-7
3349,139,28,995,-12,9,-2
3350,17,47,1012,-9,25,1
3351,-121,60,986,-12,24,2
3352,-164,49,994,-17,7,1
3353,-107,19,991,-17,-14,-4
3354,50,12,1002,-17,-26,-7
3355,158,8,999,-16,-16,-7
3356,157,19,1006,-13,3,-3
3357,58,45,1004,-12,21,0
3358,-89,59,987,-12,25,2
3359,-162,47,991,-14,12,0
3360,-141,29,980,-16,-7,-3
3361,8,21,1009,-17,-25,-7
3362,126,4,1014,-18,-20,-7
3363,175,13,1004,-12,-3,-5
3364,98,45,990,-12,16,-1
3365,-50,55,997,-12,26,4
3366,-160,47,991,-12,17,1
3367,-155,38,982,-16,-1,-1
3368,-32,20,1005,-19,-22,-7
3369,93,2,1004,-17,-23,-8
3370,181,20,999,-11,-9,-6
3371,122,34,1007,-11,12,-1
3372,-11,48,1014,-11,27,3
3373,-133,51,977,-10,22,2
3374,-163,47,981,-20,2,-1
3375,-82,18,993,-23,-18,-6
3376,69,7,1008,-16,-24,-8
3377,167,18,1008,-15,-15,-7
3378,147,28,999,-15,7,-3
3379,37,43,1005,-11,23,1
3380,-109,57,983,-15,24,4
3381,-167,46,990,-12,9,0
3382,-124,22,993,-18,-12,-4
3383,32,19,1010,-19,-27,-8
3384,147,9,1000,-16,-19,-7
3385,166,15,996,-14,1,-3
3386,74,42,1001,-11,20,-1
3387,-73,56,1001,-11,27,4
3388,-162,48,988,-15,14,1
3389,-148,35,973,-16,-8,-2
3390,-6,19,1005,-17,-23,-8
3391,110,5,1016,-17,-21,-9
3392,174,18,1006,-13,-6,-5
3393,112,40,1000,-11,14,-1
3394,-34,48,1003,-12,26,4
3395,-147,50,974,-14,18,1
3396,-162,40,985,-15,2,-1
3397,-58,17,1005,-18,-20,-6
3398,85,2,1007,-18,-24,-7
3399,176,16,998,-15,-13,-7
3400,135,32,1002,-12,10,-2
3401,11,46,1009,-11,24,3
3402,-130,57,983,-14,22,2
3403,-163,48,996,-14,7,-1
3404,-103,20,987,-17,-16,-4
3405,59,14,999,-16,-26,-9
3406,161,12,1009,-14,-15,-8
3407,156,18,1006,-14,4,-3
3408,54,43,1002,-11,22,1
3409,-96,55,989,-11,27,2
3410,-165,44,988,-13,12,0
3411,-140,30,984,-16,-9,-4
3412,20,20,1015,-17,-24,-8
3413,134,8,1010,-18,-20,-8
3414,171,15,997,-12,-2,-5
3415,91,39,991,-11,18,-1
3416,-61,55,1004,-12,27,3
3417,-158,45,987,-13,16,2
3418,-153,35,981,-16,-3,-2
3419,-25,20,1006,-17,-22,-8
3420,97,5,1007,-16,-23,-7
3421,177,21,1002,-13,-10,-6
3422,117,37,1005,-13,13,-2
3423,-17,50,1013,-12,26,3
3424,-139,47,974,-13,21,3
3425,-160,47,978,-15,2,-1
3426,-77,15,1004,-17,-17,-5
3427,72,8,1008,-15,-23,-7
3428,173,16,1005,-14,-15,-7
3429,143,32,1000,-11,7,-3
3430,25,45,1005,-11,24,2
3431,-115,58,984,-13,23,2
3432,-166,46,996,-14,7,1
3433,-114,17,990,-17,-13,-5
3434,44,15,1005,-16,-26,-8
3435,152,10,999,-17,-18,-8
3436,159,21,1000,-14,2,-3
3437,71,42,1005,-10,20,0
3438,-83,59,1000,-14,25,4
3439,-163,45,980,-15,13,1
3440,-143,29,982,-16,-7,-3
3441,1,20,1006,-16,-24,-7
3442,119,4,1013,-16,-22,-7
3443,176,14,1009,-12,-4,-5
3444,102,43,992,-11,17,-1
3445,-43,52,998,-12,26,3
3446,-155,50,984,-12,18,2
3447,-157,43,985,-16,0,0
3448,-42,17,1002,-17,-22,-8
3449,89,5,1006,-15,-23,-8
3450,177,18,998,-13,-10,-6
3451,127,35,1006,-12,13,-2
3452,-3,45,1014,-10,25,2
3453,-133,56,982,-12,22,3
3454,-164,46,986,-14,4,0
3455,-93,22,992,-16,-16,-5
3456,66,12,1006,-18,-25,-8
3457,163,13,1009,-14,-16,-7
3458,149,30,1001,-11,5,-3
3459,44,39,1005,-12,22,1
3460,-109,59,985,-11,26,3
3461,-166,47,985,-15,9,0
3462,-130,26,997,-18,-11,-4
3463,28,18,1008,-16,-25,-8
3464,143,9,1007,-16,-20,-8
3465,171,18,995,-13,0,-4
3466,79,40,999,-11,19,0
3467,-66,52,1000,-14,26,3
3468,-166,41,990,-12,16,2
3469,-143,37,972,-16,-6,-3
3470,-15,17,1003,-17,-23,-7
3471,108,10,1012,-17,-22,-10
3472,177,15,1009,-16,-9,-5
3473,111,41,999,-10,14,0
3474,-26,49,1000,-13,27,4
3475,-151,51,980,-14,20,2
3476,-153,40,980,-17,0,-1
3477,-61,16,1008,-17,-21,-6
3478,78,5,1004,-16,-24,-7
3479,178,15,1003,-13,-12,-7
3480,135,37,1002,-12,12,-1
3481,10,49,1006,-12,24,2
3482,-123,58,990,-15,23,3
3483,-168,46,992,-16,7,1
3484,-102,18,985,-18,-14,-4
3485,56,9,1006,-17,-26,-8
3486,158,13,1005,-12,-17,-7
3487,159,28,1004,-12,3,-4
3488,55,44,1008,-10,21,1
3489,-97,65,988,-12,24,3
3490,-162,47,985,-14,11,0
3491,-145,32,990,-17,-8,-3
3492,17,17,1013,-20,-24,-7
3493,134,7,1008,-16,-22,-8
3494,173,19,995,-12,-3,-4
3495,91,44,992,-10,18,-1
3496,-59,57,1005,-12,27,2
3497,-165,47,987,-13,16,2
3498,-154,38,979,-15,-4,-1
3499,-26,15,1007,-16,-23,-6
3500,97,7,1003,-18,-22,-7
3501,183,14,1004,-15,-9,-7
3502,119,41,1006,-11,14,0
3503,-18,49,1007,-13,27,2
3504,-142,52,977,-12,21,1
3505,-165,43,980,-17,2,1
3506,-73,17,1000,-17,-18,-5
3507,71,1,1013,-17,-24,-7
3508,175,14,1001,-15,-14,-5
3509,141,29,1000,-12,8,-2
3510,25,43,1008,-11,25,1
3511,-120,57,987,-13,25,3
3512,-168,44,994,-15,7,1
3513,-111,20,992,-17,-14,-3
3514,44,13,999,-18,-25,-7
3515,156,12,1004,-14,-17,-7
3516,160,21,1003,-15,3,-2
3517,64,47,1004,-11,21,0
3518,-84,63,991,-11,26,3
3519,-164,44,988,-16,13,1
3520,-143,31,981,-18,-7,-3
3521,5,20,1010,-17,-24,-7
3522,125,9,1011,-17,-22,-8
3523,178,17,1004,-13,-4,-5
3524,102,44,988,-11,16,-2
3525,-45,53,1001,-11,26,2
3526,-157,47,985,-14,17,1
3527,-156,38,982,-17,-2,-1
3528,-36,20,1001,-17,-23,-7
3529,92,5,1006,-15,-23,-9
3530,184,19,999,-13,-10,-6
3531,121,39,1007,-12,13,-2
3532,-8,50,1014,-12,25,2
3533,-136,51,980,-13,20,3
3534,-167,45,975,-15,4,0
3535,-83,16,999,-20,-16,-5
3536,68,4,1011,-17,-24,-7
3537,165,17,1002,-15,-14,-6
3538,151,27,1001,-13,7,-3
3539,31,50,1007,-9,24,2
3540,-111,58,982,-13,25,4
3541,-170,45,994,-14,9,0
3542,-123,19,991,-19,-12,-3
3543,36,13,1006,-16,-25,-7
3544,150,11,1004,-17,-18,-7
3545,165,21,997,-14,2,-3
3546,74,45,1005,-9,20,-1
3547,-79,58,998,-14,27,4
3548,-164,44,985,-14,14,1
3549,-149,31,980,-17,-6,-2
3550,-2,19,1002,-19,-24,-7
3551,116,7,1017,-16,-21,-9
3552,180,17,1008,-14,-6,-4
3553,107,42,993,-11,15,0
3554,-39,55,999,-10,27,3
3555,-153,44,983,-16,19,2
3556,-158,42,984,-16,-1,-1
3557,-48,16,1003,-18,-21,-6
3558,91,2,1004,-16,-25,-8
3559,179,20,1001,-12,-10,-5
3560,130,37,1004,-12,11,-2
3561,-2,48,1013,-12,27,2
3562,-130,56,983,-13,23,2
3563,-166,48,987,-18,5,-1
3564,-90,17,989,-18,-16,-5
3565,61,8,1008,-17,-25,-8
3566,167,14,1009,-13,-16,-7
3567,147,26,999,-12,6,-3
3568,47,45,1006,-12,22,0
3569,-108,57,984,-13,25,2
3570,-167,49,988,-14,9,0
3571,-129,23,994,-17,-11,-3
3572,25,20,1012,-16,-25,-8
3573,145,8,1002,-15,-21,-8
3574,168,17,996,-11,-1,-4
3575,80,41,1000,-12,19,0
3576,-69,60,1005,-12,27,2
3577,-164,46,986,-14,15,1
3578,-150,34,976,-14,-5,-2
3579,-12,20,1004,-16,-23,-6
3580,106,5,1011,-16,-21,-8
3581,178,17,1011,-15,-7,-6
3582,109,38,996,-12,15,-2
3583,-30,54,1002,-12,25,3
3584,-148,48,976,-13,21,2
3585,-164,49,984,-15,2,0
3586,-54,15,1004,-18,-20,-6
3587,79,3,1008,-17,-24,-8
3588,179,16,998,-15,-13,-7
3589,136,32,1004,-13,12,-1
3590,11,46,1006,-11,24,2
3591,-128,58,985,-12,22,2
3592,-166,52,994,-14,6,-1
3593,-103,21,985,-19,-15,-3
3594,59,11,1002,-17,-26,-9
3595,161,11,1010,-14,-16,-7
3596,154,23,1003,-13,4,-3
3597,54,42,1003,-12,21,1
3598,-97,63,986,-10,26,2
3599,-166,48,982,-14,11,0
3600,-134,30,993,-16,-9,-4
3601,22,17,1015,-19,-25,-7
3602,140,9,1005,-18,-21,-8
3603,173,17,995,-12,-1,-4
3604,89,39,997,-11,19,0
3605,-61,57,1002,-12,26,3
3606,-165,43,992,-13,16,2
3607,-150,38,973,-16,-5,-3
3608,-16,18,1005,-18,-22,-7
3609,103,10,1007,-16,-23,-8
3610,178,16,1011,-14,-8,-6
3611,118,40,1001,-12,14,-1
3612,-26,55,1004,-13,26,4
3613,-143,47,976,-13,20,2
3614,-163,41,980,-16,1,-1
3615,-66,14,1004,-18,-20,-6
3616,78,3,1011,-18,-24,-8
3617,177,19,1001,-13,-14,-8
3618,140,31,999,-12,10,-2
3619,14,48,1008,-10,25,0
3620,-123,58,986,-14,24,3
3621,-167,43,992,-14,7,0
3622,-109,19,988,-16,-15,-5
3623,52,9,1002,-16,-26,-8
3624,161,13,1004,-14,-17,-7
3625,162,23,1004,-15,3,-3
3626,57,48,1006,-11,21,0
3627,-93,62,992,-11,26,3
3628,-168,46,981,-15,12,0
3629,-142,27,988,-18,-7,-4
3630,14,15,1012,-20,-25,-8
3631,131,4,1010,-18,-20,-7
3632,178,15,996,-13,-2,-4
3633,96,45,995,-11,19,0
3634,-54,60,1000,-12,27,2
3635,-162,47,990,-14,17,2
3636,-158,38,978,-18,-4,-2
3637,-29,15,1003,-19,-23,-7
3638,99,5,1009,-17,-23,-8
3639,178,16,999,-15,-9,-6
3640,123,41,1008,-9,13,-2
3641,-16,48,1013,-11,26,3
3642,-145,52,972,-13,21,2
3643,-160,42,981,-14,2,0
3644,-79,19,1002,-18,-18,-4
3645,73,7,1007,-18,-25,-8
3646,175,15,1005,-15,-14,-6
3647,142,32,1002,-14,9,-1
3648,26,43,1003,-11,24,2
3649,-120,59,989,-14,23,3
3650,-170,46,992,-15,7,0
3651,-116,21,989,-18,-13,-5
3652,45,15,999,-18,-25,-8
3653,155,13,1005,-13,-18,-7
3654,164,20,1000,-15,3,-2
3655,62,45,1006,-12,21,1
3656,-84,59,992,-12,25,2
3657,-169,42,985,-15,12,1
3658,-142,26,979,-16,-7,-3
3659,3,20,1012,-16,-25,-7
3660,125,9,1013,-16,-22,-8
3661,178,15,1004,-13,-3,-4
3662,104,47,990,-10,17,0
3663,-49,56,999,-12,26,3
3664,-161,43,992,-15,17,2
3665,-156,36,977,-16,-2,-1
3666,-36,17,1005,-17,-22,-6
3667,94,3,1007,-15,-23,-7
3668,180,19,1000,-13,-9,-6
3669,124,38,1007,-12,12,-1
3670,-9,51,1013,-13,25,2
3671,-138,51,979,-13,20,1
3672,-166,47,976,-15,3,0
3673,-83,15,997,-17,-17,-5
3674,67,7,1012,-16,-25,-7
3675,171,16,1000,-15,-16,-6
3676,150,29,1000,-12,6,-3
3677,33,43,1009,-11,22,2
3678,-111,62,983,-13,24,2
3679,-169,46,994,-14,8,0
3680,-122,23,989,-17,-13,-4
3681,38,18,1006,-14,-25,-7
3682,150,10,998,-15,-19,-7
3683,161,17,1001,-13,1,-3
3684,74,42,1004,-9,19,0
3685,-77,59,997,-12,26,4
3686,-164,45,985,-15,13,2
3687,-146,31,983,-15,-5,-3
3688,-6,22,1004,-17,-24,-5
3689,117,8,1015,-16,-22,-6
3690,178,16,1010,-13,-4,-5
3691,107,41,990,-13,16,-1
3692,-39,51,996,-12,27,3
3693,-156,47,986,-14,18,1
3694,-158,40,984,-16,-1,-1
3695,-44,16,1002,-16,-19,-6
3696,89,9,1008,-16,-23,-7
3697,183,22,999,-12,-11,-7
3698,129,37,1005,-13,12,-3
3699,-2,45,1014,-11,24,2
3700,-133,49,982,-14,22,3
3701,-165,46,984,-15,6,0
3702,-93,18,992,-18,-15,-4
3703,61,11,1010,-17,-25,-7
3704,168,13,1004,-15,-18,-8
3705,151,30,1004,-13,5,-3
3706,45,42,1003,-13,21,1
3707,-107,59,984,-12,25,3
3708,-170,46,988,-15,9,1
3709,-134,23,992,-18,-11,-4
3710,31,14,1013,-17,-24,-8
3711,141,13,1000,-16,-20,-8
3712,173,20,996,-9,0,-5
3713,82,43,1001,-18,18,0
3714,-74,59,1004,-9,29,4
3715,-166,44,988,-10,15,1
3716,-150,33,974,-20,-5,-2
3717,-9,19,1004,-17,-22,-7
3718,111,6,1012,-14,-22,-8
3719,181,16,1011,-16,-7,-5
3720,112,41,996,-9,15,0
3721,-30,53,1001,-11,27,3
3722,-150,48,979,-16,20,1
3723,-165,41,981,-13,0,-1
3724,-55,19,1005,-20,-22,-6
3725,81,5,1003,-16,-24,-8
3726,182,19,1002,-13,-12,-7
3727,137,36,1002,-14,11,-3
3728,3,46,1011,-10,25,1
3729,-128,54,982,-13,23,1
3730,-169,44,989,-15,7,0
3731,-100,16,987,-15,-15,-5
3732,61,12,1004,-16,-26,-8
3733,165,13,1007,-14,-17,-8
3734,149,23,1005,-12,5,-1
3735,55,44,1002,-12,22,0
3736,-103,56,988,-13,26,4
3737,-168,49,979,-14,11,1
3738,-136,21,995,-18,-10,-4
3739,22,19,1014,-14,-25,-9
3740,141,10,1005,-16,-21,-8
3741,174,15,995,-11,-1,-5
3742,87,44,1000,-10,19,-1
3743,-63,58,1002,-12,27,3
3744,-167,47,989,-14,17,2
3745,-153,36,974,-16,-4,-2
3746,-21,17,1003,-18,-23,-8
3747,104,5,1012,-16,-22,-9
3748,181,16,1008,-12,-8,-6
3749,117,40,1001,-12,14,-1
3750,-24,52,1005,-10,27,3
3751,-148,52,976,-13,20,2
3752,-163,46,983,-16,1,-1
3753,-68,16,1002,-19,-20,-5
3754,78,3,1012,-18,-25,-8
3755,179,17,1001,-13,-12,-7
3756,139,30,1000,-12,11,-2
3757,19,46,1010,-9,25,3
3758,-124,57,986,-13,25,3
3759,-166,47,990,-17,7,-1
3760,-109,16,989,-18,-14,-5
3761,52,14,1001,-16,-25,-8
3762,162,11,1003,-14,-16,-8
3763,158,23,1003,-13,4,-3
3764,60,44,1006,-12,20,1
3765,-90,58,984,-12,25,3
3766,-169,48,985,-14,12,1
3767,-138,27,988,-16,-9,-4
3768,13,19,1018,-18,-24,-7
3769,134,9,1005,-16,-21,-7
3770,175,19,1001,-13,-3,-5
3771,95,42,994,-11,17,-2
3772,-60,56,1001,-14,28,2
3773,-162,45,992,-14,15,1
3774,-158,36,976,-17,-5,-1
3775,-25,16,1003,-16,-23,-6
3776,103,7,1009,-17,-23,-7
3777,177,19,1003,-14,-9,-6
3778,121,42,1006,-11,13,-2
3779,-18,49,1009,-13,26,3
3780,-143,52,971,-13,21,1
3781,-162,42,982,-16,2,-1
3782,-71,18,1004,-17,-19,-5
3783,75,6,1004,-16,-24,-9
3784,181,13,1003,-16,-13,-7
3785,137,31,1001,-12,9,-2
3786,26,46,1002,-10,24,1
3787,-119,57,989,-12,24,2
3788,-173,51,994,-14,8,0
3789,-107,22,985,-17,-14,-6
3790,47,10,1002,-20,-24,-8
3791,155,13,1002,-14,-17,-8
3792,164,20,1005,-13,3,-4
3793,62,43,1005,-13,21,0
3794,-91,61,985,-11,25,4
3795,-163,43,986,-14,12,-1
3796,-145,30,986,-16,-7,-3
3797,11,23,1014,-16,-25,-8
3798,132,5,1014,-17,-21,-8
3799,175,14,995,-12,-3,-4
3800,96,42,993,-12,19,0
3801,-54,55,1002,-12,27,3
3802,-168,46,990,-14,16,2
3803,-152,38,976,-15,-3,-2
3804,-31,18,1007,-15,-22,-6
3805,98,7,1005,-17,-23,-8
3806,182,17,1003,-13,-9,-6
3807,120,34,1006,-12,13,-2
3808,-17,50,1008,-13,28,2
3809,-140,52,978,-13,21,2
3810,-163,41,978,-16,2,0
3811,-76,21,1005,-17,-19,-5
3812,71,4,1007,-18,-25,-8
3813,174,16,1002,-14,-14,-8
3814,143,29,999,-11,8,-2
3815,27,47,1005,-12,24,2
3816,-118,55,989,-11,23,4
3817,-171,45,994,-16,7,0
3818,-112,21,987,-17,-14,-6
3819,46,10,1000,-16,-25,-8
3820,155,12,1004,-15,-17,-7
3821,162,22,1003,-12,3,-3
3822,64,41,1009,-9,21,0
3823,-88,62,988,-13,26,3
3824,-164,45,984,-15,13,-1
3825,-144,30,988,-17,-8,-3
3826,8,17,1010,-18,-25,-7
3827,129,7,1013,-16,-21,-8
3828,177,14,997,-12,-3,-4
3829,98,46,992,-11,17,-1
3830,-52,56,1001,-12,27,3
3831,-164,48,994,-16,16,2
3832,-154,41,976,-19,-5,-2
3833,-30,16,1002,-17,-21,-6
3834,98,6,1007,-19,-23,-8
3835,183,15,1006,-13,-9,-5
3836,123,37,1004,-10,14,-1
3837,-16,46,1008,-13,26,3
3838,-144,54,976,-12,21,2
3839,-163,46,981,-14,3,-1
3840,-76,23,1003,-19,-18,-5
3841,74,6,1011,-19,-25,-9
3842,175,16,1000,-16,-15,-6
3843,144,27,995,-12,9,-4
3844,23,43,1008,-8,25,1
3845,-121,55,984,-13,25,2
3846,-171,48,995,-15,7,0
3847,-108,22,988,-15,-14,-5
3848,47,16,1000,-17,-26,-7
3849,158,15,1005,-16,-17,-7
3850,158,19,1006,-15,5,-2
3851,61,44,1005,-12,23,1
3852,-88,55,987,-13,28,3
3853,-168,46,986,-15,12,0
3854,-142,25,984,-16,-8,-4
3855,9,23,1016,-17,-23,-7
3856,135,8,1007,-16,-21,-9
3857,177,19,998,-13,-3,-5
3858,95,45,994,-12,18,-1
3859,-53,55,1002,-14,27,3
3860,-161,45,992,-14,17,2
3861,-159,37,976,-16,-3,-2
3862,-24,17,1003,-17,-22,-5
3863,99,4,1009,-16,-22,-6
3864,181,17,1010,-13,-10,-6
3865,122,38,1000,-11,13,-1
3866,-19,52,1008,-13,27,2
3867,-142,47,977,-15,21,1
3868,-167,45,981,-17,1,1
3869,-71,13,1000,-20,-21,-6
3870,75,3,1014,-18,-24,-8
3871,177,16,1000,-13,-14,-7
3872,145,33,996,-12,10,-2
3873,22,45,1012,-11,24,2
3874,-124,56,986,-13,23,3
3875,-168,46,991,-15,8,0
3876,-112,19,989,-17,-13,-4
3877,48,10,996,-16,-26,-7
3878,160,11,1007,-14,-18,-8
3879,163,23,1007,-14,4,-2
3880,58,44,1004,-12,21,1
3881,-94,61,988,-11,25,3
3882,-169,45,985,-15,11,1
3883,-145,26,989,-16,-8,-2
3884,13,17,1016,-19,-26,-7
3885,136,8,1008,-16,-22,-7
3886,176,17,994,-11,-1,-5
3887,94,43,996,-11,20,-1
3888,-61,58,1003,-12,28,3
3889,-163,44,989,-16,15,2
3890,-157,35,972,-16,-4,-2
3891,-25,22,1004,-17,-22,-6
3892,105,10,1009,-16,-22,-8
3893,179,18,1009,-15,-9,-6
3894,122,41,1000,-12,13,-2
3895,-26,53,1004,-11,28,2
3896,-146,50,977,-13,21,2
3897,-161,40,981,-17,2,-1
3898,-66,17,1004,-17,-19,-6
3899,77,8,1008,-17,-24,-8
3900,181,17,999,-14,-14,-6
3901,140,33,999,-13,9,-1
3902,15,48,1010,-10,24,2
3903,-126,57,986,-13,24,3
3904,-170,46,987,-15,9,0
3905,-104,21,990,-18,-15,-5
3906,54,9,1002,-19,-25,-8
3907,163,14,1009,-14,-17,-8
3908,160,22,1006,-14,5,-3
3909,54,42,1008,-10,22,1
3910,-97,57,984,-11,25,2
3911,-172,46,983,-15,11,2
3912,-141,27,993,-18,-10,-3
3913,22,18,1014,-17,-25,-8
3914,140,11,1003,-17,-21,-8
3915,175,15,995,-13,-1,-4
3916,85,42,1003,-12,19,1
3917,-65,59,1001,-13,27,4
3918,-167,44,986,-14,16,1
3919,-157,33,974,-16,-4,-2
3920,-17,20,1001,-18,-23,-7
3921,107,9,1014,-16,-22,-9
3922,184,20,1012,-15,-6,-6
3923,117,37,998,-11,16,0
3924,-29,49,997,-11,27,3
3925,-153,46,984,-13,20,2
3926,-165,41,983,-15,1,0
3927,-59,21,1004,-18,-21,-5
3928,82,8,1005,-18,-25,-7
3929,184,14,1003,-14,-12,-6
3930,139,40,998,-13,11,-2
3931,11,45,1012,-12,25,2
3932,-129,55,984,-14,23,3
3933,-172,44,985,-16,7,-1
3934,-96,17,987,-18,-15,-5
3935,57,11,1009,-17,-24,-7
3936,168,15,1007,-15,-18,-7
3937,156,30,1001,-12,5,-1
3938,47,44,1005,-11,23,1
3939,-101,58,986,-12,25,3
3940,-169,44,985,-16,9,1
3941,-134,21,996,-17,-12,-5
3942,26,17,1011,-17,-26,-8
3943,143,10,999,-15,-18,-8
3944,175,19,996,-11,-2,-4
3945,80,46,1005,-11,21,1
3946,-72,59,998,-13,27,2
3947,-164,42,987,-15,14,0
3948,-153,30,976,-17,-6,-2
3949,-10,21,1003,-17,-24,-7
3950,114,4,1017,-18,-23,-8
3951,178,19,1010,-13,-6,-5
3952,118,40,994,-11,14,-1
3953,-37,54,998,-13,27,3
3954,-150,46,986,-14,19,1
3955,-165,40,985,-17,1,-2
3956,-51,17,1000,-19,-22,-6
3957,86,5,1008,-16,-24,-8
3958,182,19,998,-12,-12,-6
3959,133,39,1006,-12,12,-1
3960,1,49,1015,-12,25,2
3961,-132,50,982,-14,22,2
3962,-167,46,976,-15,5,-1
3963,-90,18,996,-18,-16,-5
3964,62,8,1007,-18,-26,-8
3965,171,16,1006,-13,-17,-7
3966,151,29,1002,-14,6,-3
3967,40,45,1006,-11,23,1
3968,-109,60,985,-13,25,4
3969,-173,44,992,-16,10,1
3970,-128,21,992,-16,-12,-3
3971,36,16,1005,-17,-26,-7
3972,153,13,998,-16,-18,-8
3973,171,20,1002,-13,1,-4
3974,77,44,1006,-11,20,0
3975,-80,60,995,-12,27,3
3976,-164,45,986,-15,14,1
3977,-149,29,977,-15,-5,-3
3978,0,19,1005,-17,-24,-6
3979,118,2,1017,-15,-22,-7
3980,181,18,1007,-12,-5,-5
3981,107,43,989,-12,17,0
3982,-40,57,1000,-11,25,3
3983,-158,46,988,-11,18,2
3984,-159,39,980,-17,-2,-2
3985,-44,15,1005,-18,-22,-6
3986,91,8,1006,-17,-24,-8
3987,182,12,1000,-15,-11,-7
3988,129,38,1009,-12,12,-2
3989,-3,46,1010,-13,26,3
3990,-139,55,981,-11,22,3
3991,-164,46,975,-14,4,0
3992,-88,16,999,-19,-17,-4
3993,66,7,1009,-17,-26,-8
3994,170,16,1004,-15,-15,-7
3995,153,29,999,-13,6,-3
3996,34,41,1003,-12,24,2
3997,-112,59,988,-12,26,3
3998,-175,42,994,-14,10,1
3999,-122,23,992,-15,-12,-5
4000,40,13,1000,-15,-26,-8
4001,156,15,1003,-16,-20,-8
4002,166,20,1003,-15,1,-3
4003,70,45,1005,-11,19,0
4004,-84,58,991,-13,26,4
4005,-168,45,987,-15,13,1
4006,-147,27,980,-15,-7,-3
4007,1,22,1010,-18,-24,-7
4008,125,5,1016,-17,-22,-8
4009,176,19,1002,-12,-4,-6
4010,103,41,992,-12,18,-1
4011,-46,58,1001,-8,27,2
4012,-161,42,991,-15,17,1
4013,-161,40,978,-15,-2,-2
4014,-38,18,1001,-18,-21,-7
4015,94,4,1008,-18,-24,-8
4016,183,19,1005,-13,-10,-7
4017,124,42,1003,-13,12,-1
4018,-9,49,1012,-13,25,3
4019,-141,51,979,-13,21,2
4020,-167,43,975,-17,3,0
4021,-76,12,1000,-17,-19,-6
4022,68,7,1014,-17,-25,-7
4023,174,17,1002,-14,-14,-8
4024,147,30,1001,-10,8,-4
4025,30,46,1006,-11,24,2
4026,-123,62,986,-13,23,4
4027,-168,45,997,-15,7,0
4028,-119,19,987,-17,-13,-3
4029,45,11,999,-16,-26,-7
4030,161,10,1007,-14,-18,-8
4031,164,22,1004,-12,4,-4
4032,64,47,1004,-11,20,0
4033,-89,63,993,-13,25,2
4034,-170,43,985,-14,13,1
4035,-144,26,982,-16,-7,-4
4036,8,17,1016,-18,-24,-7
4037,133,7,1011,-17,-20,-9
4038,178,17,997,-13,-2,-5
4039,97,46,992,-11,19,0
4040,-54,60,1001,-14,27,3
4041,-161,45,994,-14,15,0
4042,-162,37,974,-17,-2,-2
4043,-32,17,1002,-18,-21,-7
4044,102,3,1011,-17,-23,-8
4045,180,17,1004,-13,-9,-6
4046,128,38,1004,-11,13,-1
4047,-19,50,1008,-10,28,2
4048,-145,53,976,-13,22,1
4049,-165,46,974,-15,2,-1
4050,-77,22,1006,-17,-19,-5
4051,73,5,1010,-17,-25,-8
4052,175,15,999,-14,-14,-6
4053,144,31,1000,-13,7,-2
4054,20,42,1006,-5,27,2
4055,-121,58,988,-14,23,2
4056,-169,49,992,-13,7,0
4057,-112,24,988,-19,-15,-5
4058,51,14,999,-17,-25,-8
4059,159,13,1006,-14,-18,-7
4060,164,19,1004,-15,4,-3
4061,60,39,1006,-10,21,1
4062,-93,59,987,-10,26,2
4063,-167,49,982,-15,12,0
4064,-143,30,991,-15,-8,-5
4065,10,20,1011,-20,-25,-6
4066,137,7,1008,-16,-22,-9
4067,174,11,999,-11,-2,-4
4068,92,41,993,-11,18,0
4069,-53,54,1000,-11,29,4
4070,-168,48,993,-13,16,2
4071,-153,38,970,-17,-4,-3
4072,-28,24,1003,-17,-22,-5
4073,98,8,1012,-18,-22,-7
4074,179,17,1005,-15,-8,-6
4075,123,35,1003,-13,12,-1
4076,-20,48,1005,-13,26,3
4077,-145,50,980,-12,21,1
4078,-163,44,978,-16,2,-1
4079,-72,20,1005,-16,-20,-6
4080,74,8,1007,-20,-26,-7
4081,177,17,1004,-15,-14,-7
4082,143,32,998,-12,9,-2
4083,20,46,1007,-11,26,2
4084,-124,56,988,-14,23,3
4085,-171,44,989,-15,7,0
4086,-108,19,988,-16,-14,-5
4087,48,11,1001,-19,-26,-7
4088,161,15,1006,-16,-19,-9
4089,163,24,1007,-13,4,-3
4090,56,44,1001,-12,22,1
4091,-91,61,990,-13,26,2
4092,-167,46,985,-15,11,1
4093,-146,27,987,-18,-9,-3
4094,15,17,1017,-18,-26,-8
4095,133,5,1005,-16,-22,-8
4096,178,20,994,-12,-3,-4
4097,94,44,999,-12,19,1
4098,-63,63,1003,-11,27,3
4099,-160,47,990,-15,15,0
4100,-155,33,974,-17,-3,-2
4101,-22,17,1005,-18,-21,-6
4102,105,3,1011,-19,-22,-7
4103,176,17,1007,-13,-9,-6
4104,122,41,1003,-11,14,-2
4105,-22,48,1005,-11,27,4
4106,-147,54,974,-11,21,2
4107,-162,42,981,-15,2,0
4108,-69,19,1005,-19,-19,-5
4109,77,5,1008,-18,-24,-8
4110,177,16,1004,-12,-14,-7
4111,137,31,999,-12,9,-3
4112,20,45,1011,-11,24,2
4113,-127,58,987,-12,23,3
4114,-169,46,992,-15,6,0
4115,-105,20,988,-18,-14,-5
4116,50,9,998,-19,-25,-8
4117,162,10,1007,-14,-18,-7
4118,156,22,1007,-14,5,-4
4119,55,45,1002,-10,22,2
4120,-93,62,986,-11,26,3
4121,-165,46,984,-13,12,1
4122,-141,27,987,-18,-9,-3
4123,16,16,1017,-17,-25,-6
4124,134,7,1005,-16,-22,-9
4125,177,17,998,-11,-2,-4
4126,92,43,993,-11,20,0
4127,-62,58,1006,-12,28,3
4128,-161,49,990,-13,17,2
4129,-158,37,973,-16,-3,-2
4130,-18,21,1002,-16,-22,-8
4131,98,4,1013,-16,-22,-7
4132,181,24,1005,-14,-10,-7
4133,119,38,1003,-13,15,-1
4134,-20,53,1005,-12,27,2
4135,-144,46,976,-14,21,2
4136,-162,46,979,-16,3,-1
4137,-67,14,1005,-18,-19,-4
4138,77,2,1012,-17,-25,-7
4139,179,18,1000,-14,-12,-7
4140,140,37,997,-13,10,-2
4141,17,46,1010,-11,24,2
4142,-126,56,984,-14,24,2
4143,-167,43,991,-17,6,0
4144,-106,20,990,-18,-14,-4
4145,52,8,998,-18,-27,-8
4146,160,15,1005,-15,-17,-7
4147,159,24,1006,-13,5,-3
4148,56,43,1004,-12,21,1
4149,-93,58,987,-13,27,4
4150,-169,44,984,-15,11,1
4151,-144,27,989,-15,-8,-4
4152,18,21,1014,-17,-24,-8
4153,132,11,1007,-16,-20,-7
4154,174,15,997,-12,-4,-5
4155,96,42,997,-9,19,-1
4156,-62,56,1001,-13,28,4
4157,-163,43,991,-13,16,1
4158,-154,31,977,-18,-4,-2
4159,-25,20,1003,-15,-22,-6
4160,101,7,1011,-17,-23,-8
4161,180,23,1008,-14,-10,-6
4162,124,44,1006,-12,14,-2
4163,-19,50,1008,-14,25,2
4164,-142,48,977,-14,20,1
4165,-160,40,978,-14,2,-1
4166,-72,16,1003,-16,-18,-6
4167,75,7,1010,-15,-24,-7
4168,177,16,1001,-13,-13,-8
4169,139,35,998,-13,9,-2
4170,22,48,1005,-11,23,2
4171,-120,59,988,-13,25,2
4172,-166,48,994,-17,8,0
4173,-110,18,988,-18,-13,-4
4174,51,11,1000,-17,-25,-8
4175,159,10,1004,-14,-17,-8
4176,161,21,1005,-12,3,-4
4177,60,42,1005,-10,21,-1
4178,-92,63,988,-11,26,4
4179,-167,47,985,-14,12,0
4180,-144,25,986,-18,-7,-3
4181,10,22,1010,-18,-24,-7
4182,131,4,1011,-19,-22,-8
4183,177,15,998,-14,-3,-4
4184,99,43,993,-10,18,-1
4185,-56,55,998,-10,26,3
4186,-162,48,993,-14,17,2
4187,-156,39,979,-16,-3,-1
4188,-29,18,1002,-17,-22,-6
4189,101,1,1009,-18,-22,-9
4190,179,18,1004,-13,-8,-5
4191,123,40,1005,-10,14,-2
4192,-13,47,1014,-12,27,1
4193,-141,53,974,-12,20,2
4194,-163,46,978,-16,3,0
4195,-77,20,1001,-18,-18,-6
4196,72,8,1010,-16,-24,-8
4197,174,16,1000,-13,-13,-8
4198,142,29,1002,-11,8,-1
4199,26,47,1003,-12,24,2
4200,-120,56,987,-14,24,2
4201,-166,45,992,-15,7,-1
4202,-120,21,991,-18,-13,-3
4203,45,11,1001,-18,-25,-8
4204,155,10,1005,-17,-18,-7
4205,163,16,1003,-12,2,-3
4206,65,43,1003,-9,20,0
4207,-87,62,994,-13,28,4
4208,-168,45,984,-14,14,0
4209,-148,30,982,-17,-8,-2
4210,6,19,1008,-17,-26,-7
4211,128,6,1016,-17,-22,-9
4212,178,17,1002,-14,-3,-4
4213,101,45,991,-12,17,0
4214,-46,51,1001,-12,27,3
4215,-159,45,988,-14,16,2
4216,-157,38,979,-14,-2,-2
4217,-36,18,1005,-17,-21,-7
4218,92,10,999,-15,-22,-8
4219,180,20,1004,-12,-10,-6
4220,126,40,1005,-13,13,-2
4221,-9,48,1014,-12,26,2
4222,-136,50,978,-13,21,2
4223,-167,43,979,-16,4,0
4224,-79,17,996,-16,-17,-6
4225,66,8,1011,-16,-25,-8
4226,173,17,1003,-12,-15,-7
4227,146,32,999,-11,7,-2
4228,36,48,1005,-12,24,2
4229,-114,58,985,-13,25,3
4230,-168,48,991,-15,8,-2
4231,-121,17,994,-19,-11,-4
4232,38,15,1001,-17,-25,-7
4233,153,8,998,-16,-18,-7
4234,167,19,1003,-12,2,-3
4235,70,44,1004,-12,19,0
4236,-79,62,995,-13,29,3
4237,-165,43,990,-15,14,2
4238,-149,34,975,-17,-7,-3
4239,-1,17,1008,-17,-24,-8
4240,118,10,1016,-15,-22,-8
4241,178,16,1006,-14,-4,-3
4242,109,41,992,-11,17,-2
4243,-43,54,998,-13,28,4
4244,-155,45,986,-14,18,1
4245,-160,41,985,-17,0,-1
4246,-47,21,999,-18,-21,-5
4247,89,6,1007,-17,-23,-8
4248,182,18,1002,-11,-10,-7
4249,123,39,1005,-12,13,-2
4250,0,47,1012,-14,25,1
4251,-137,51,984,-11,21,1
4252,-162,46,978,-16,4,0
4253,-86,18,991,-15,-15,-5
4254,62,11,1010,-16,-24,-8
4255,167,16,1004,-15,-16,-7
4256,147,25,1004,-11,6,-2
4257,38,42,1001,-12,23,1
4258,-105,63,988,-12,26,3
4259,-168,42,989,-15,9,2
4260,-126,24,997,-16,-11,-4
4261,32,13,1009,-16,-25,-7
4262,144,11,999,-16,-19,-8
4263,170,17,997,-12,-1,-4
4264,75,44,1002,-10,19,0
4265,-71,60,1002,-12,26,3
4266,-163,42,989,-14,14,2
4267,-146,32,973,-15,-6,-3
4268,-9,19,1004,-18,-22,-6
4269,111,9,1017,-17,-22,-7
4270,177,16,1010,-14,-6,-6
4271,110,41,994,-13,14,-2
4272,-34,53,1000,-12,26,2
4273,-149,48,981,-14,18,1
4274,-159,43,983,-15,1,-1
4275,-55,17,1006,-18,-20,-6
4276,87,4,1006,-17,-24,-8
4277,176,17,1000,-14,-10,-7
4278,135,33,1004,-13,11,-2
4279,3,46,1010,-12,26,3
4280,-126,55,983,-11,22,3
4281,-164,46,985,-16,6,0
4282,-98,21,992,-16,-14,-3
4283,60,7,1002,-18,-26,-8
4284,163,12,1009,-15,-15,-6
4285,151,21,1002,-13,5,-4
4286,50,43,1003,-11,22,0
4287,-98,56,985,-12,25,3
4288,-170,48,986,-14,10,1
4289,-130,26,994,-18,-11,-4
4290,21,17,1014,-17,-24,-6
4291,136,12,1003,-17,-20,-7
4292,173,14,999,-12,0,-5
4293,86,40,995,-10,19,0
4294,-61,57,1003,-13,27,4
4295,-161,44,991,-14,15,2
4296,-152,38,976,-17,-5,-2
4297,-17,19,1001,-17,-24,-8
4298,102,7,1015,-17,-22,-8
4299,176,18,1007,-13,-8,-5
4300,113,37,1000,-10,15,-1
4301,-22,51,1007,-14,26,2
4302,-145,49,974,-13,20,2
4303,-158,42,981,-16,1,0
4304,-68,15,1006,-18,-18,-5
4305,76,7,1007,-15,-24,-8
4306,179,16,999,-14,-14,-7
4307,135,35,998,-11,10,-1
4308,21,46,1011,-9,23,1
4309,-124,56,983,-13,23,2
4310,-169,47,993,-16,6,0
4311,-104,19,990,-18,-14,-4
4312,47,12,996,-17,-25,-8
4313,160,11,1006,-15,-18,-8
4314,158,20,1007,-14,4,-3
4315,57,48,1002,-10,21,0
4316,-90,61,990,-13,25,3
4317,-170,44,987,-15,12,0
4318,-140,28,986,-17,-9,-3
4319,16,14,1014,-18,-25,-7
4320,130,8,1012,-16,-20,-7
4321,178,16,996,-14,-4,-5
4322,95,45,993,-10,19,0
4323,-56,54,1001,-13,26,4
4324,-158,50,992,-14,16,1
4325,-156,37,979,-17,-2,-1
4326,-30,19,1003,-18,-22,-7
4327,100,3,1007,-16,-22,-8
4328,181,18,1002,-13,-8,-6
4329,121,39,1007,-11,13,-2
4330,-18,47,1011,-12,27,2
4331,-140,52,977,-16,19,2
4332,-163,44,978,-15,2,0
4333,-75,17,1002,-15,-18,-6
4334,73,7,1012,-18,-24,-8
4335,174,15,1000,-15,-13,-5
4336,140,29,1000,-11,9,-1
4337,27,47,1008,-10,24,1
4338,-119,57,984,-14,25,2
4339,-167,47,995,-14,9,0
4340,-112,18,993,-18,-12,-4
4341,46,15,1000,-16,-25,-7
4342,155,10,1004,-16,-18,-6
4343,159,24,1004,-13,2,-4
4344,65,43,1003,-12,19,0
4345,-86,57,995,-14,26,4
4346,-164,41,984,-13,14,0
4347,-142,24,983,-15,-7,-2
4348,0,21,1004,-18,-23,-6
4349,122,9,1020,-16,-21,-8
4350,179,21,1004,-14,-5,-6
4351,99,45,991,-12,16,0
4352,-43,51,999,-13,27,2
4353,-161,44,987,-14,18,2
4354,-154,40,979,-15,-3,-2
4355,-40,17,1007,-17,-22,-7
4356,92,6,1005,-17,-24,-7
4357,182,20,1000,-12,-10,-6
4358,124,43,1007,-13,13,-2
4359,-6,45,1012,-14,25,2
4360,-135,54,981,-13,20,2
4361,-162,41,981,-17,4,0
4362,-86,19,995,-18,-16,-5
4363,67,6,1010,-19,-24,-8
4364,169,16,1003,-13,-16,-6
4365,147,30,1002,-12,6,-2
4366,36,45,1004,-11,24,2
4367,-110,60,985,-12,25,3
4368,-165,48,988,-16,9,1
4369,-126,23,996,-18,-11,-4
4370,37,14,1010,-17,-24,-8
4371,145,9,1001,-16,-18,-8
4372,168,17,998,-14,1,-5
4373,76,42,1001,-10,20,-1
4374,-75,59,1000,-12,25,3
4375,-163,41,985,-14,14,1
4376,-149,34,977,-16,-6,-2
4377,-9,18,1007,-17,-23,-5
4378,114,7,1011,-15,-22,-9
4379,177,15,1012,-14,-6,-6
4380,109,39,996,-11,14,-2
4381,-35,50,998,-11,26,3
4382,-151,47,982,-12,18,1
4383,-160,40,984,-16,-1,1
4384,-52,20,1005,-17,-20,-6
4385,83,6,1004,-16,-23,-6
4386,180,20,999,-14,-11,-6
4387,130,37,1004,-11,10,-3
4388,7,44,1010,-15,23,3
4389,-128,51,985,-17,20,1
4390,-165,42,987,-15,7,-1
4391,-98,20,990,-16,-14,-6
4392,58,9,1001,-18,-26,-8
4393,162,18,1011,-8,-16,-9
4394,153,25,1003,-15,5,-4
4395,47,45,1002,-10,23,0
4396,-99,58,987,-13,25,3
4397,-168,42,986,-17,11,1
4398,-132,25,990,-16,-10,-2
4399,21,17,1015,-17,-24,-7
4400,142,9,1004,-17,-21,-9
4401,170,18,998,-12,-2,-5
4402,87,47,997,-12,19,-2
4403,-66,61,1002,-12,28,3
4404,-162,46,993,-14,16,1
4405,-152,33,974,-17,-4,-2
4406,-21,16,1004,-19,-21,-6
4407,108,3,1011,-18,-22,-7
4408,179,18,1007,-12,-8,-7
4409,116,39,1002,-11,14,-1
4410,-22,55,1006,-11,27,3
4411,-146,55,978,-13,20,2
4412,-161,44,979,-19,2,0
4413,-67,17,1006,-18,-18,-5
4414,77,1,1009,-16,-25,-8
4415,178,15,1001,-14,-13,-7
4416,142,30,1001,-11,10,-2
4417,17,48,1007,-9,25,1
4418,-123,58,986,-12,23,2
4419,-166,49,995,-14,7,0
4420,-109,20,988,-16,-14,-4
4421,52,13,1002,-19,-25,-7
4422,161,11,1004,-15,-17,-7
4423,157,20,1003,-13,4,-2
4424,60,44,1007,-12,21,0
4425,-91,57,988,-14,26,3
4426,-162,47,984,-15,11,0
4427,-143,29,987,-17,-7,-3
4428,10,22,1011,-17,-25,-7
4429,131,5,1012,-19,-22,-7
4430,175,15,1000,-13,-2,-5
4431,94,42,992,-12,18,0
4432,-51,53,999,-11,26,2
4433,-164,43,993,-12,18,2
4434,-152,38,978,-17,-4,-2
4435,-35,20,1005,-17,-21,-7
4436,96,6,1006,-18,-23,-7
4437,181,18,1001,-14,-10,-6
4438,121,38,1007,-11,12,-1
4439,-12,44,1013,-12,26,2
4440,-140,53,977,-11,22,1
4441,-165,43,978,-14,4,0
4442,-79,18,998,-17,-17,-6
4443,68,2,1011,-17,-25,-8
4444,174,19,1002,-13,-15,-8
4445,143,28,1001,-15,8,-3
4446,29,46,1005,-11,25,1
4447,-114,60,986,-12,25,1
4448,-170,47,993,-15,9,0
4449,-117,20,993,-17,-13,-4
4450,39,13,1004,-17,-24,-8
4451,151,9,1001,-15,-18,-8
4452,164,20,999,-12,2,-4
4453,67,42,1005,-9,20,0
4454,-82,66,998,-13,27,5
4455,-164,49,987,-14,13,1
4456,-146,29,979,-18,-7,-3
4457,-1,19,1004,-17,-24,-6
4458,121,1,1018,-17,-22,-9
4459,177,14,1009,-14,-6,-7
4460,105,39,990,-11,15,-2
4461,-39,54,1001,-11,25,2
4462,-156,46,985,-14,18,2
4463,-159,43,984,-16,-1,-2
4464,-42,17,1007,-19,-21,-7
4465,86,6,1003,-19,-24,-7
4466,183,15,999,-15,-10,-7
4467,128,36,1008,-12,13,-2
4468,-4,46,1009,-12,24,2
4469,-131,54,985,-12,21,2
4470,-163,46,983,-18,4,1
4471,-90,18,992,-19,-16,-5
4472,65,7,1006,-17,-24,-8
4473,162,14,1007,-14,-16,-7
4474,151,26,1004,-13,5,-2
4475,42,43,1001,-10,22,0
4476,-104,62,985,-11,25,3
4477,-164,46,985,-16,8,1
4478,-131,23,990,-19,-12,-2
4479,29,12,1013,-17,-24,-8
4480,142,8,1004,-17,-19,-7
4481,168,17,992,-13,-1,-5
4482,79,47,1003,-10,18,1
4483,-69,57,1003,-15,27,3
4484,-163,47,986,-15,15,1
4485,-147,31,977,-16,-7,-4
4486,-14,17,1003,-18,-23,-7
4487,109,5,1009,-17,-23,-9
4488,177,16,1011,-12,-5,-6
4489,112,42,1000,-12,15,0
4490,-27,50,1001,-13,27,2
4491,-148,51,979,-12,19,1
4492,-155,47,979,-16,0,0
4493,-61,20,1004,-19,-21,-6
4494,78,4,1007,-17,-25,-8
4495,177,18,1002,-15,-12,-6
4496,137,32,1000,-12,9,-3
4497,12,48,1006,-12,24,2
4498,-125,56,988,-13,23,1
4499,-168,46,990,-15,8,0
4500,-105,19,985,-17,-14,-4
4501,55,12,1001,-17,-26,-8
4502,157,14,1008,-15,-16,-8
4503,160,23,1003,-13,4,-3
4504,55,44,1004,-11,21,0
4505,-93,57,988,-12,24,3
4506,-166,45,983,-14,11,1
4507,-141,25,987,-16,-9,-4
4508,15,20,1013,-16,-25,-6
4509,133,7,1009,-16,-21,-8
4510,172,18,998,-13,-2,-4
4511,91,44,994,-11,18,-1
4512,-56,54,1003,-11,27,4
4513,-165,45,991,-14,17,1
4514,-152,35,976,-16,-4,-1
4515,-26,18,1005,-16,-21,-7
4516,102,5,1005,-16,-23,-8
4517,179,19,1004,-14,-8,-6
4518,120,40,1005,-12,14,0
4519,-19,50,1014,-12,27,3
4520,-143,53,975,-14,20,1
4521,-162,43,978,-16,2,0
4522,-74,19,1002,-18,-18,-6
4523,74,6,1007,-18,-24,-8
4524,175,16,1003,-14,-14,-7
4525,140,32,1000,-15,8,-1
4526,27,44,1007,-12,23,1
4527,-120,60,985,-13,24,4
4528,-169,47,993,-16,7,0
4529,-114,19,994,-18,-13,-4
4530,47,14,1002,-16,-26,-7
4531,154,9,1000,-15,-18,-8
4532,165,23,1003,-11,2,-3
4533,68,46,1006,-11,20,0
4534,-85,65,993,-12,27,4
4535,-165,44,983,-15,13,1
4536,-145,30,981,-16,-7,-2
4537,2,17,1004,-17,-25,-6
4538,122,5,1018,-15,-22,-7
4539,178,15,1005,-14,-4,-4
4540,104,43,990,-11,18,0
4541,-43,52,996,-11,27,4
4542,-160,48,991,-14,18,3
4543,-157,37,980,-15,0,-2
4544,-44,20,1004,-17,-20,-6
4545,92,8,1003,-17,-23,-8
4546,180,20,1001,-13,-10,-6
4547,124,40,1004,-12,12,-2
4548,-6,45,1013,-11,25,3
4549,-136,53,980,-12,21,2
4550,-167,42,982,-15,5,0
4551,-85,19,994,-16,-17,-6
4552,65,8,1006,-16,-25,-8
4553,169,19,1006,-13,-16,-8
4554,148,28,1004,-12,6,-2
4555,39,46,1004,-9,24,0
4556,-108,58,986,-14,26,3
4557,-168,44,986,-14,9,1
4558,-128,21,992,-17,-11,-3
4559,36,12,1013,-17,-24,-8
4560,143,8,999,-17,-18,-6
4561,169,21,996,-11,0,-5
4562,76,43,1000,-10,19,0
4563,-77,62,1000,-12,27,4
4564,-160,48,984,-15,13,0
4565,-151,34,979,-18,-6,-3
4566,-7,17,999,-17,-24,-6
4567,108,0,1010,-18,-21,-8
4568,178,18,1013,-15,-8,-5
4569,109,40,998,-11,14,0
4570,-32,57,1000,-12,26,3
4571,-148,48,982,-12,19,2
4572,-160,45,984,-15,0,-1
4573,-58,13,1003,-19,-21,-6
4574,80,3,1007,-17,-25,-7
4575,176,17,1002,-15,-14,-6
4576,132,36,1001,-11,11,-2
4577,10,46,1010,-11,24,1
4578,-128,56,985,-14,22,2
4579,-164,48,992,-17,6,0
4580,-101,17,989,-17,-14,-4
4581,56,8,1000,-17,-25,-7
4582,158,12,1010,-13,-15,-7
4583,156,23,1006,-11,4,-3
4584,51,44,1001,-12,22,0
4585,-95,60,988,-12,27,2
4586,-166,45,985,-16,12,0
4587,-132,24,988,-17,-9,-3
4588,18,22,1015,-17,-23,-6
4589,136,8,1008,-17,-21,-8
