sequence,AccelerometerX,AccelerometerY,AccelerometerZ,GyroscopeX,GyroscopeY,GyroscopeZ
0,-145,-5,985,-20,14,-1
1,-111,-32,988,-27,-4,-4
2,10,-52,998,-15,-22,-11
3,94,-55,1005,-10,-19,-13
4,133,-17,1003,-9,-10,-11
5,45,12,1005,-7,14,-4
6,-69,21,1007,-8,23,0
7,-150,1,979,-20,17,0
8,-119,-19,984,-23,0,-4
9,-12,-53,1002,-19,-19,-11
10,92,-54,1007,-9,-21,-13
11,138,-23,1000,-8,-9,-11
12,56,11,1006,-5,12,-4
13,-51,18,1004,-12,21,0
14,-141,8,979,-20,19,0
15,-129,-16,998,-21,3,-4
16,-38,-52,995,-19,-15,-8
17,87,-49,1001,-12,-22,-13
18,138,-34,1003,-7,-12,-10
19,75,5,1012,-6,9,-5
20,-33,14,1002,-12,23,0
21,-141,16,977,-18,21,1
22,-136,-18,998,-21,4,-2
23,-60,-46,992,-21,-15,-8
24,75,-55,1002,-14,-23,-11
25,138,-35,1005,-8,-13,-12
26,91,-5,1006,-6,7,-6
27,-16,18,999,-10,20,-1
28,-130,21,985,-19,22,2
29,-142,-11,992,-22,6,-2
30,-79,-43,989,-22,-11,-7
31,60,-51,1005,-15,-23,-11
32,128,-38,1007,-9,-16,-11
33,101,-14,1006,-7,3,-6
34,7,16,996,-11,20,-2
35,-118,23,998,-16,26,3
36,-149,-8,991,-22,9,-1
37,-100,-34,982,-23,-10,-7
38,44,-51,1000,-15,-23,-11
39,116,-43,1012,-10,-18,-12
40,118,-17,1009,-5,-1,-8
41,24,16,999,-8,19,-3
42,-101,21,999,-15,24,3
43,-153,-2,983,-21,13,0
44,-109,-31,991,-24,-5,-6
45,22,-51,998,-18,-22,-12
46,108,-52,1007,-10,-20,-13
47,130,-16,1002,-5,-5,-8
48,37,15,1007,-9,15,-2
49,-85,18,1004,-14,24,2
50,-155,0,979,-21,16,1
51,-117,-23,984,-23,-3,-5
52,-3,-52,1003,-19,-21,-11
53,101,-51,1004,-10,-22,-13
54,139,-19,1003,-6,-8,-9
55,52,9,1003,-8,12,-3
56,-65,18,1007,-13,22,1
57,-146,2,974,-22,18,2
58,-127,-21,994,-23,0,-2
59,-21,-49,997,-19,-18,-9
60,91,-55,1005,-11,-20,-12
61,138,-20,1001,-5,-12,-10
62,62,4,1005,-8,10,-4
63,-41,19,1004,-15,22,-1
64,-143,9,973,-22,21,2
65,-131,-13,996,-23,3,-3
66,-49,-55,997,-21,-16,-9
67,78,-50,999,-13,-22,-13
68,134,-32,1006,-8,-13,-10
69,82,-1,1009,-6,8,-6
70,-21,20,999,-12,21,-2
71,-132,21,982,-18,23,1
72,-140,-14,994,-23,6,-3
73,-72,-49,990,-21,-12,-9
74,63,-51,1007,-12,-23,-13
75,167,92,527,8,-23,-7
76,675,498,1175,14,36,8
77,-204,85,1399,-149,73,10
78,-242,-69,587,-176,59,64
79,-351,-604,577,-123,50,8
80,-542,-488,868,31,-33,61
81,212,-408,1105,95,-90,-31
82,61,-164,1172,142,-20,-52
83,240,411,850,122,-36,8
84,374,572,1317,60,7,-18
85,-158,412,915,-51,60,13
86,-236,93,929,-113,29,33
87,-202,-251,1102,-104,1,-22
88,-125,-424,868,-63,-23,-14
89,144,-315,917,9,-46,-16
90,178,-112,1137,54,-23,-21
91,109,125,944,49,5,-2
92,-41,238,1036,21,30,9
93,-196,187,1031,-20,23,4
94,-145,29,952,-49,-3,-4
95,-23,-137,1000,-44,-26,-15
96,67,-193,999,-20,-36,-15
97,167,-141,980,7,-24,-18
98,54,-35,1011,24,5,-6
99,-54,87,1010,19,17,2
100,-116,102,995,-2,19,-4
101,-123,70,993,-20,3,-1
102,-19,-2,1003,-32,-19,-9
103,83,-81,1010,-29,-26,-17
104,109,-88,982,-18,-18,-9
105,52,-50,1003,-6,2,-7
106,-30,-11,1005,-5,15,-5
107,-110,26,977,-9,18,1
108,-101,35,1009,-16,6,-4
109,-39,-3,1004,-22,-13,-10
110,63,-22,996,-19,-20,-12
111,100,-34,998,-20,-14,-13
112,58,-33,1005,-16,3,-10
113,-8,-20,996,-16,13,-4
114,-80,7,982,-19,19,1
115,-20,18,1017,-20,14,-1
116,-48,-16,997,-25,9,-2
117,6,-27,1004,-24,-4,-5
118,15,-48,993,-20,-5,-11
119,25,-42,982,-13,0,-7
120,6,-14,1000,-11,6,-4
121,-60,0,1000,-14,14,0
122,-73,-8,993,-16,7,-1
123,-71,-20,991,-17,-2,-5
124,13,-28,1000,-15,-14,-9
125,71,-25,1008,-11,-12,-11
126,73,-15,1000,-11,0,-9
127,25,8,1000,-14,12,-4
128,-63,4,995,-17,18,0
129,-117,-21,994,-20,11,-1
130,-89,-32,986,-18,-5,-5
131,6,-41,998,-14,-16,-11
132,81,-35,1003,-9,-15,-11
133,103,-4,1007,-6,-3,-8
134,40,18,1002,-11,12,-5
135,-72,14,1002,-17,20,1
136,-128,-11,986,-23,13,-1
137,-108,-36,985,-22,-1,-4
138,-4,-52,996,-17,-19,-10
139,85,-50,1005,-9,-19,-12
140,124,-12,1000,-5,-7,-10
141,53,22,1008,-8,13,-4
142,-59,20,1009,-16,23,1
143,-141,-1,976,-23,17,1
144,-120,-29,988,-22,-1,-4
145,-28,-59,1003,-18,-17,-10
146,88,-58,1002,-9,-20,-13
147,133,-21,1001,-6,-9,-11
148,67,13,1009,-6,12,-4
149,-40,23,1005,-12,23,1
150,-140,15,977,-20,21,2
151,-135,-21,995,-26,3,-2
152,-49,-55,997,-22,-17,-9
153,76,-59,993,-13,-24,-12
154,139,-27,1006,-5,-13,-10
155,83,2,1013,-6,8,-5
156,-23,18,1004,-11,24,0
157,-132,21,977,-20,23,3
158,-143,-12,998,-23,6,-2
159,-71,-47,991,-21,-14,-9
160,63,-56,1007,-14,-23,-12
161,136,-36,1000,-6,-15,-14
162,101,-8,1007,-4,4,-6
163,-1,17,1000,-9,21,-1
164,-124,24,990,-19,25,3
165,-144,-11,992,-25,8,-2
166,-96,-44,988,-22,-11,-7
167,52,-49,1000,-16,-25,-12
168,121,-41,1013,-7,-18,-13
169,110,-11,1004,-7,1,-7
170,15,15,1006,-11,21,-3
171,-106,23,994,-17,26,2
172,-152,-12,991,-21,12,0
173,-104,-36,980,-21,-7,-6
174,32,-49,1000,-16,-23,-11
175,116,-43,1010,-9,-20,-13
176,123,-17,1010,-8,-4,-7
177,34,21,1000,-9,15,-2
178,-91,19,995,-17,25,3
179,-152,-6,987,-23,15,0
180,-115,-29,986,-23,-4,-4
181,10,-52,995,-18,-21,-11
182,101,-47,1008,-9,-21,-13
183,135,-16,999,-5,-6,-10
184,48,16,1006,-9,16,-3
185,-71,18,1009,-17,27,2
186,-153,0,978,-22,20,1
187,-123,-25,984,-22,-1,-3
188,-13,-54,1003,-18,-21,-10
189,93,-53,1006,-11,-24,-13
190,142,-20,1000,-6,-9,-10
191,58,12,1008,-9,13,-5
192,-51,21,1007,-15,24,0
193,-149,6,975,-24,21,2
194,-133,-23,995,-23,1,-3
195,-38,-57,997,-20,-18,-9
196,84,-52,999,-11,-23,-12
197,142,-23,1002,-5,-13,-11
198,79,5,1012,-7,10,-6
199,-32,18,1001,-14,24,0
200,-136,15,979,-20,24,1
201,-142,-19,1000,-23,6,-3
202,-65,-49,987,-20,-16,-8
203,72,-56,1002,-12,-25,-13
204,133,-31,1005,-6,-16,-12
205,92,-2,1004,-6,5,-6
206,-10,20,1005,-10,20,-3
207,-129,20,981,-21,23,3
208,-143,-11,991,-23,8,-2
209,-89,-49,821,-11,-9,-6
210,536,653,325,25,-10,-5
211,140,26,1451,-119,55,-23
212,-215,128,590,-185,34,54
213,-112,-395,713,-171,51,-7
214,-551,-471,786,-61,13,29
215,-29,-337,1022,6,-53,-5
216,95,-541,955,79,-18,-80
217,-208,-104,847,148,6,-56
218,476,257,1416,134,-76,-35
219,173,565,973,74,18,7
220,-7,487,889,-44,39,9
221,-139,162,1214,-96,24,14
222,-200,-238,940,-117,15,-10
223,-146,-421,772,-79,-12,4
224,28,-362,1109,12,-39,-20
225,144,-189,993,46,-27,-25
226,108,79,940,64,0,-2
227,42,288,1104,43,11,4
228,-89,202,1025,-13,24,-3
229,-138,66,931,-40,15,2
230,-123,-108,1031,-47,-13,-5
231,26,-208,982,-24,-33,-22
232,98,-204,964,11,-24,-13
233,95,-35,1022,32,-11,-7
234,48,57,1021,28,13,-7
235,-67,120,997,13,23,3
236,-139,110,987,-12,13,4
237,-85,18,1019,-27,-7,-10
238,-5,-84,979,-31,-22,-12
239,73,-107,995,-17,-24,-12
240,109,-83,1008,0,-12,-14
241,50,-31,991,6,9,-7
242,-36,44,997,8,22,2
243,-108,69,1002,-7,20,-1
244,-88,46,1004,-18,4,-5
245,-33,18,994,-27,-13,-6
246,130,42,1014,-33,-18,-13
247,134,-22,1004,-40,0,-12
248,53,-37,1007,-39,19,0
249,-79,-82,987,-36,31,-1
250,-176,-80,951,-23,22,0
251,-144,-76,991,-10,0,-1
252,-53,-32,1005,-1,-18,-10
253,99,9,1007,-1,-27,-12
254,153,44,1018,-5,-13,-10
255,88,36,1008,-17,8,-4
256,-17,12,1000,-27,22,-2
257,-140,-29,986,-31,25,3
258,-151,-74,984,-26,7,-1
259,-82,-84,985,-14,-14,-8
260,61,-49,1002,-3,-27,-12
261,133,-3,1013,2,-18,-13
262,113,34,1014,-3,4,-8
263,13,53,1002,-14,22,-1
264,-109,26,993,-25,26,3
265,-156,-34,992,-30,11,-1
266,-103,-74,980,-25,-10,-6
267,28,-76,995,-11,-24,-12
268,117,-54,1010,-2,-20,-13
269,124,4,1015,1,-1,-8
270,38,47,1003,-7,18,-2
271,-88,42,1002,-18,26,2
272,-154,0,983,-27,15,1
273,-119,-41,986,-27,-6,-5
274,3,-72,996,-20,-23,-11
275,97,-68,1001,-9,-23,-14
276,134,-26,1004,-2,-7,-10
277,53,19,1006,-3,15,-4
278,-64,29,1009,-12,25,2
279,-151,17,980,-22,18,1
280,-129,-16,985,-25,-2,-2
281,-23,-57,997,-22,-21,-10
282,91,-68,1008,-12,-23,-13
283,142,-30,999,-7,-12,-10
284,71,0,1004,-5,12,-4
285,-44,22,1004,-9,23,1
286,-145,18,982,-20,22,3
287,-135,-7,1000,-22,3,-2
288,-49,-46,990,-21,-16,-9
289,76,-51,1000,-14,-25,-13
290,143,-35,1005,-7,-16,-13
291,82,-7,1007,-7,10,-5
292,-22,13,1003,-12,24,-1
293,-136,12,981,-17,24,2
294,-142,-10,996,-21,7,-1
295,-71,-44,988,-20,-14,-8
296,65,-47,1008,-13,-24,-13
297,135,-29,1002,-9,-16,-12
298,98,-6,1005,-7,4,-7
299,-6,14,1003,-12,20,-1
300,-124,15,989,-20,24,3
301,-144,-18,989,-21,9,-1
302,-94,-43,987,-19,-11,-7
303,54,-44,1006,-13,-25,-12
304,126,-31,1008,-8,-18,-12
305,108,-7,1004,-7,1,-7
306,15,19,1003,-11,20,-2
307,-106,17,994,-19,25,3
308,-148,-12,989,-24,11,-1
309,-104,-40,982,-23,-9,-6
310,32,-48,998,-14,-24,-12
311,115,-46,1011,-7,-18,-13
312,122,-13,1008,-6,-2,-8
313,30,17,1001,-9,17,-3
314,-91,20,994,-17,24,2
315,-150,-10,985,-24,14,-1
316,-113,-30,988,-23,-4,-6
317,11,-54,999,-17,-22,-10
318,101,-49,1004,-8,-22,-13
319,132,-16,1002,-5,-8,-9
320,48,17,1008,-9,15,-4
321,-72,17,1006,-16,26,2
322,-150,0,979,-22,19,2
323,-121,-28,984,-23,-1,-3
324,-13,-52,1001,-18,-19,-11
325,92,-54,1005,-11,-23,-13
326,140,-21,1002,-5,-9,-11
327,62,7,1006,-7,12,-4
328,-56,17,1001,-13,25,0
329,-141,7,981,-21,19,1
330,-132,-22,992,-23,3,-2
331,-37,-49,993,-19,-16,-9
332,83,-55,1004,-11,-23,-13
333,140,-23,1006,-5,-13,-11
334,77,1,1006,-9,7,-5
335,-32,14,1007,-15,22,0
336,-136,9,976,-20,23,1
337,-140,-14,999,-23,5,-3
338,-60,-49,990,-20,-16,-8
339,73,-50,1004,-13,-24,-13
340,138,-31,1003,-7,-14,-11
341,89,-1,1007,-5,6,-6
342,-7,18,1001,-12,21,-1
343,-129,16,983,-20,24,3
344,-142,-13,992,-23,8,-1
345,-86,-49,991,-19,-11,-8
346,57,-49,1005,-15,-22,-12
347,126,-38,1006,-12,-16,-11
348,105,-7,1002,-8,1,-8
349,317,527,278,-35,-12,16
350,273,378,1533,-120,91,-9
351,-432,138,1016,-205,61,46
352,-205,-200,637,-231,33,76
353,-276,-430,577,-181,-12,27
354,-343,-325,984,-55,-27,38
355,379,-411,1088,26,-44,-139
356,-97,-361,858,43,52,-85
357,63,-380,566,118,6,-85
358,119,-230,1452,216,-36,-9
359,4,525,1241,139,-12,52
360,-138,480,754,41,30,9
361,101,596,1180,-8,-20,-6
362,-144,196,1109,-122,4,18
363,152,-161,845,-126,-9,-40
364,-1,-442,1092,-86,5,-13
365,-71,-335,914,-21,-7,-3
366,-94,-288,888,26,0,-9
367,-127,-51,1044,69,-13,2
368,-24,142,1032,57,-19,3
369,158,221,1017,29,-13,-25
370,98,189,1033,-9,-1,-1
371,17,89,1013,-36,-1,-2
372,-104,-117,985,-49,4,-12
373,-155,-190,960,-27,-8,-1
374,-61,-181,983,1,-19,-10
375,61,-111,1001,25,-17,-18
376,131,41,1007,35,-9,-6
377,88,128,1019,21,5,-6
378,-21,122,1014,-5,12,-4
379,-122,57,981,-26,8,1
380,-125,-45,1000,-34,-6,-7
381,-46,-131,990,-27,-20,-11
382,75,-119,991,-7,-21,-12
383,119,-59,1000,7,-9,-13
384,69,18,1010,12,8,-6
385,-16,75,1001,6,15,-2
386,-115,84,992,-12,13,-1
387,-118,19,1001,-27,-1,-2
388,-56,-51,994,-30,-14,-9
389,63,-83,1002,-21,-20,-12
390,106,-76,995,-10,-11,-12
391,85,-36,997,1,4,-9
392,29,35,1002,0,18,-3
393,16,107,1012,-16,30,1
394,-117,41,1004,-33,29,1
395,-142,-13,987,-39,6,3
396,-78,-99,978,-34,-10,-12
397,44,-118,981,-18,-19,-12
398,120,-76,1017,-3,-11,-9
399,86,-5,994,2,9,-7
400,-34,43,995,-1,23,4
401,-129,56,1017,-14,19,1
402,-144,15,974,-26,4,-3
403,-30,-27,989,-26,-17,-9
404,71,-69,1016,-23,-22,-13
405,135,-58,994,-11,-12,-10
406,81,-29,997,-8,10,-4
407,-51,2,1010,-7,24,1
408,-139,10,985,-13,20,1
409,-134,8,988,-17,3,-4
410,-31,-18,1000,-19,-17,-8
411,77,-33,1004,-15,-23,-13
412,139,-27,1002,-13,-13,-11
413,70,-10,1004,-13,9,-5
414,-39,-5,1008,-15,22,0
415,-145,-7,976,-18,19,0
416,-136,-16,988,-17,3,-4
417,-42,-38,1003,-16,-16,-10
418,81,-37,1005,-11,-21,-13
419,141,-11,1004,-8,-13,-10
420,80,1,1007,-11,7,-5
421,-34,5,1002,-16,20,0
422,-136,-2,983,-21,21,1
423,-138,-28,996,-21,5,-2
424,-56,-53,991,-17,-14,-9
425,73,-47,1002,-9,-22,-13
426,139,-16,1008,-4,-14,-11
427,91,9,1008,-8,7,-5
428,-20,22,1005,-15,21,-1
429,-132,13,978,-21,21,2
430,-144,-27,994,-23,7,-1
431,-73,-59,987,-21,-12,-8
432,59,-56,1005,-10,-23,-12
433,133,-30,1006,-5,-15,-13
434,99,0,1002,-4,4,-6
435,3,27,1005,-11,20,-3
436,-119,25,993,-22,24,3
437,-145,-12,989,-24,10,-1
438,-95,-57,982,-23,-10,-7
439,45,-55,1006,-13,-24,-11
440,124,-45,1005,-8,-20,-12
441,109,-7,1009,-6,-1,-7
442,24,25,1000,-9,18,-2
443,-107,28,1000,-18,27,2
444,-144,-5,991,-25,12,-1
445,-109,-37,980,-22,-6,-5
446,27,-56,997,-14,-23,-12
447,111,-52,1012,-9,-19,-13
448,124,-16,1007,-7,-3,-9
449,38,17,998,-9,16,-4
450,-86,24,1002,-17,25,2
451,-148,-3,981,-22,16,0
452,-113,-27,991,-22,-3,-5
453,3,-49,1001,-18,-22,-10
454,96,-50,1003,-10,-22,-13
455,135,-19,1004,-5,-6,-10
456,51,12,1006,-9,14,-3
457,-64,19,1009,-13,25,1
458,-148,0,975,-21,19,0
459,-123,-21,989,-23,0,-2
460,-19,-52,998,-18,-19,-9
461,88,-52,1007,-10,-23,-13
462,142,-19,1001,-8,-11,-9
463,64,8,1005,-6,11,-5
464,-47,17,1002,-13,23,1
465,-141,7,985,-22,21,2
466,-131,-21,992,-23,4,-3
467,-45,-53,995,-20,-16,-10
468,80,-53,1001,-13,-24,-13
469,138,-24,1002,-7,-14,-10
470,84,2,1012,-7,8,-5
471,-25,17,1003,-12,23,0
472,-134,15,978,-19,23,1
473,-139,-14,996,-21,5,-3
474,-68,-51,993,-21,-14,-8
475,66,-51,1000,-13,-24,-14
476,135,-32,1003,-8,-15,-12
477,95,-7,1006,-5,5,-7
478,-5,23,1003,-11,21,-2
479,-126,21,985,-19,23,2
480,-144,-13,996,-23,8,-1
481,-90,-46,982,-22,-11,-7
482,53,-49,1007,-14,-24,-13
483,130,-37,1006,-8,-19,-12
484,106,-9,1007,-5,0,-7
485,16,21,999,-9,20,-2
486,-116,16,921,-21,27,3
487,230,658,264,65,30,7
488,37,96,1553,-171,64,-19
489,-278,198,649,-171,7,42
490,-85,-329,763,-218,8,2
491,-367,-411,736,-121,-22,7
492,-63,-316,1011,-27,-46,-7
493,281,-512,984,15,-28,-113
494,-189,-402,702,102,37,-51
495,231,-324,1002,179,-29,-79
496,182,338,1582,183,-13,10
497,-60,592,676,76,29,11
498,7,631,1095,-6,16,-2
499,-164,239,1205,-105,6,6
500,-81,-159,819,-136,-4,-2
501,34,-505,959,-90,-21,-16
502,-66,-401,1037,-1,-26,-5
503,110,-272,896,42,-27,-21
504,2,27,1045,84,7,-8
505,31,258,1048,56,4,5
506,16,266,1004,9,17,-6
507,-58,130,1018,-31,12,2
508,-101,-19,978,-49,-9,1
509,-33,-194,998,-39,-22,-20
510,-34,-221,970,-7,-24,-7
511,71,-108,1000,20,-19,-9
512,103,-17,1014,34,0,-15
513,32,98,998,26,18,2
514,-28,136,1013,2,21,-1
515,-104,75,1000,-19,11,-7
516,-96,-7,986,-30,-8,-3
517,-44,-82,1000,-28,-19,-11
518,62,-121,999,-13,-21,-15
519,127,-61,993,-1,-7,-9
520,160,56,1004,2,18,-7
521,33,89,1030,-12,40,-2
522,-109,107,1000,-31,38,10
523,-206,1,975,-45,22,0
524,-153,-73,981,-45,-9,-7
525,4,-118,998,-31,-25,-14
526,139,-101,993,-14,-19,-17
527,141,-53,998,-2,2,-5
528,51,22,1008,1,23,-2
529,-105,42,1001,-10,33,4
530,-178,36,989,-18,17,0
531,-140,-3,980,-26,-7,-6
532,12,-41,1002,-23,-27,-14
533,125,-67,1007,-17,-25,-13
534,152,-55,1010,-10,-4,-9
535,58,-16,998,-6,18,-2
536,-87,9,996,-9,29,3
537,-169,9,994,-14,18,0
538,-140,0,978,-20,-4,-4
539,-1,-22,1003,-19,-23,-12
540,109,-38,1010,-14,-25,-14
541,149,-25,1004,-11,-9,-11
542,67,-7,1005,-11,14,-4
543,-72,-5,1008,-13,27,2
544,-161,-10,976,-18,21,2
545,-136,-20,981,-18,0,-3
546,-19,-34,1006,-15,-20,-9
547,96,-34,1006,-11,-23,-14
548,151,-13,1001,-9,-9,-11
549,70,10,1007,-11,13,-5
550,-49,8,1012,-17,24,1
551,-153,-11,971,-21,21,1
552,-138,-31,987,-20,3,-2
553,-42,-54,999,-16,-17,-8
554,81,-42,1005,-8,-23,-12
555,148,-11,1002,-4,-14,-11
556,77,15,1010,-7,9,-5
557,-30,14,1004,-16,21,-1
558,-141,2,978,-21,25,2
559,-142,-27,995,-22,7,-1
560,-62,-56,995,-20,-14,-8
561,74,-52,1000,-9,-25,-14
562,140,-25,1002,-5,-15,-10
563,96,7,1013,-6,5,-6
564,-7,24,1008,-13,21,-1
565,-130,18,976,-21,25,3
566,-142,-16,994,-23,9,-1
567,-87,-56,990,-22,-11,-7
568,55,-58,1000,-14,-23,-13
569,134,-40,1005,-6,-17,-12
570,107,-5,1006,-3,1,-8
571,10,25,1006,-9,19,-2
572,-113,27,992,-19,26,3
573,-146,-10,992,-25,12,0
574,-104,-43,981,-24,-8,-6
575,39,-56,998,-16,-24,-13
576,120,-48,1012,-8,-20,-13
577,117,-18,1011,-5,-1,-8
578,29,20,1001,-8,19,-3
579,-95,27,994,-16,26,3
580,-151,-4,992,-22,13,1
581,-116,-30,982,-22,-5,-5
582,16,-49,997,-15,-22,-11
583,106,-48,1008,-9,-20,-12
584,130,-16,1007,-6,-5,-9
585,47,12,1006,-7,14,-3
586,-81,18,1001,-13,25,2
587,-152,0,981,-22,17,1
588,-121,-27,988,-21,-1,-4
589,-2,-48,998,-18,-21,-11
590,95,-51,1005,-10,-22,-14
591,136,-16,1003,-6,-9,-11
592,58,12,1005,-9,14,-3
593,-64,16,1012,-13,24,1
594,-146,0,974,-22,18,1
595,-126,-24,989,-22,0,-3
596,-28,-54,999,-18,-18,-10
597,89,-51,1005,-10,-23,-12
598,141,-18,1003,-6,-11,-10
599,68,10,1003,-7,10,-4
600,-38,17,1010,-14,23,1
601,-143,7,976,-22,22,1
602,-135,-20,996,-24,4,-2
603,-50,-55,995,-21,-17,-10
604,75,-54,1000,-11,-24,-12
605,141,-25,1004,-6,-15,-12
606,85,1,1010,-6,7,-6
607,-17,23,1003,-12,22,-1
608,-131,15,978,-20,24,3
609,-142,-18,994,-23,6,-2
610,-43,26,622,-33,-17,-1
611,725,826,755,-47,-17,-6
612,14,-17,1599,-194,66,-15
613,-310,212,566,-217,35,96
614,10,-323,592,-284,10,65
615,-553,-421,808,-142,11,119
616,76,-224,1140,-45,-36,-21
617,-40,-579,1040,-37,23,-108
618,-316,-234,485,52,30,-73
619,201,-617,849,123,-61,-95
620,178,-370,1132,267,-30,-18
621,62,421,1467,221,-3,-5
622,147,614,933,104,1,-3
623,-102,831,1031,25,35,12
624,-243,379,1083,-133,9,37
625,-13,-169,1022,-155,-18,-32
626,67,-546,913,-110,-19,-31
627,-20,-508,876,-26,-26,-1
628,176,-329,1030,57,-24,-27
629,-42,-53,1017,92,16,-3
630,-107,280,977,75,10,23
631,-56,340,1094,28,9,-6
632,-64,193,997,-27,-2,-9
633,47,4,961,-52,-20,-2
634,78,-168,1046,-43,-19,-22
635,48,-238,946,-19,-12,-12
636,-27,-145,973,17,3,0
637,-88,-30,1022,29,9,-7
638,-73,74,992,24,4,-1
639,-9,116,1009,9,0,-4
640,37,73,1023,-10,-7,-9
641,90,18,994,-22,-12,-13
642,38,-47,989,-24,-2,-9
643,-42,-65,996,-19,4,-4
644,-80,-68,986,-14,8,-4
645,-80,-41,995,-5,5,-3
646,-25,-3,1000,0,-3,-5
647,63,21,1010,-5,-8,-11
648,110,47,1005,-9,-5,-11
649,125,96,1006,-23,11,-7
650,-3,28,1012,-40,25,-4
651,-137,-33,981,-46,26,6
652,-192,-120,977,-39,15,1
653,-130,-148,964,-17,-9,-8
654,45,-96,1009,3,-24,-13
655,151,-6,1007,14,-18,-15
656,134,69,1010,7,2,-6
657,32,104,1023,-9,18,-3
658,-124,62,986,-31,26,3
659,-166,-25,988,-40,12,0
660,-120,-105,986,-34,-8,-6
661,32,-121,987,-15,-24,-12
662,137,-79,1004,1,-21,-13
663,129,-9,1008,8,-2,-8
664,41,67,1003,1,19,-3
665,-99,78,1007,-16,29,3
666,-163,30,992,-29,16,1
667,-124,-39,975,-33,-6,-5
668,16,-85,993,-25,-23,-12
669,110,-89,1005,-13,-21,-13
670,132,-48,1011,-3,-5,-10
671,50,16,1000,1,16,-4
672,-83,49,1000,-8,26,3
673,-159,30,991,-20,18,2
674,-123,-1,991,-26,-2,-3
675,1,-44,998,-25,-22,-11
676,98,-64,1001,-15,-23,-13
677,140,-43,1000,-7,-9,-11
678,55,-9,1002,-7,12,-4
679,-64,10,1009,-10,25,1
680,-154,8,981,-16,19,0
681,-130,-3,986,-12,-1,-5
682,-19,-35,999,-8,-20,-12
683,91,-46,1006,-16,-23,-12
684,144,-28,1003,-9,-11,-11
685,69,-1,1003,-12,10,-3
686,-46,5,1003,-12,23,0
687,-142,-1,981,-18,20,1
688,-137,-14,992,-21,4,-2
689,-44,-41,995,-18,-16,-10
690,79,-41,1005,-12,-23,-14
691,139,-15,1003,-9,-14,-11
692,81,3,1007,-8,9,-6
693,-29,8,1004,-14,23,-1
694,-134,4,978,-21,24,2
695,-140,-24,995,-22,6,-1
696,-68,-48,991,-18,-14,-7
697,66,-45,1002,-10,-24,-11
698,136,-24,1004,-7,-16,-12
699,95,0,1009,-8,5,-7
700,-8,21,1003,-12,21,-1
701,-122,16,987,-20,22,3
702,-144,-21,991,-24,9,-1
703,-91,-53,986,-22,-10,-7
704,51,-51,1005,-14,-24,-14
705,120,-33,1005,-6,-18,-12
706,109,-2,1005,-4,1,-7
707,12,25,1003,-11,18,-2
708,-107,25,993,-18,25,3
709,-145,-12,992,-25,10,-1
710,-106,-43,979,-22,-8,-6
711,34,-54,995,-15,-25,-13
712,112,-49,1014,-9,-19,-14
713,121,-11,1009,-7,-3,-8
714,33,22,1003,-8,18,-2
715,-92,23,995,-16,26,2
716,-150,-4,988,-23,15,0
717,-114,-32,987,-25,-4,-5
718,8,-52,998,-18,-23,-11
719,99,-53,1004,-10,-22,-13
720,130,-20,1004,-4,-7,-8
721,51,16,1006,-7,13,-4
722,-70,19,1007,-15,23,1
723,-146,0,977,-21,18,0
724,-122,-20,989,-23,-1,-3
725,-18,-53,996,-18,-20,-9
726,90,-53,1010,-12,-21,-13
727,138,-21,1003,-6,-11,-11
728,49,-1,841,-15,11,4
729,478,838,401,-35,17,47
730,-65,145,1550,-231,104,-1
731,-570,290,460,-281,45,83
732,-221,-484,633,-264,-35,43
733,-518,-488,703,-141,-73,69
734,56,-398,1080,-28,-62,-61
735,296,-694,935,57,1,-223
736,-145,-552,528,140,41,-126
737,461,-361,1064,276,-48,-102
738,283,610,1551,236,8,28
739,-135,761,535,65,65,12
740,-126,793,1184,-13,31,9
741,-332,199,1215,-150,-3,14
742,-19,-295,709,-163,-25,-20
743,154,-679,1037,-83,-33,-27
744,29,-438,1007,12,-28,-7
745,142,-276,899,71,-12,-20
746,-151,138,1084,106,22,3
747,-97,334,1019,50,3,12
748,2,280,1009,8,5,-15
749,21,76,1029,-42,-7,-2
750,62,-63,971,-45,-18,-8
751,29,-243,1002,-28,-12,-23
752,-111,-202,964,7,-9,0
753,-76,-73,998,32,-11,-11
754,-1,1,1014,35,-5,-17
755,46,96,1003,24,0,-1
756,98,113,1022,7,6,-10
757,53,72,1003,-13,8,-14
758,-35,31,982,-23,4,-1
759,-100,-27,1007,-30,0,-6
760,-87,-82,988,-28,-6,-9
761,80,-9,991,-18,-9,-5
762,149,28,1013,-22,13,-7
763,143,76,1035,-31,26,-1
764,-6,46,998,-45,41,5
765,-163,-5,981,-49,36,-1
766,-229,-67,964,-52,11,-2
767,-150,-105,965,-32,-13,-9
768,-3,-131,987,-21,-27,-11
769,142,-89,1018,-1,-23,-13
770,185,-11,1009,10,-2,-12
771,70,53,1000,3,22,-2
772,-77,86,1017,-10,31,2
773,-179,46,978,-30,20,-1
774,-162,-18,987,-36,-2,-6
775,-45,-90,996,-32,-24,-8
776,100,-106,1004,-17,-29,-14
777,170,-73,994,-1,-12,-12
778,98,-12,1014,3,12,-4
779,-27,42,1007,-2,27,1
780,-152,54,977,-14,26,3
781,-161,24,997,-24,5,-1
782,-82,-33,991,-28,-17,-9
783,72,-65,1004,-22,-28,-13
784,149,-61,1003,-13,-18,-12
785,114,-36,1002,-5,6,-8
786,2,0,1002,-6,24,-2
787,-126,24,984,-12,28,4
788,-157,11,998,-17,13,-1
789,-103,-19,988,-21,-10,-7
790,43,-32,1000,-18,-25,-13
791,128,-40,1010,-14,-21,-12
792,119,-27,1008,-9,-1,-7
793,25,0,995,-11,19,-2
794,-106,8,995,-14,27,3
795,-151,-9,991,-18,14,0
796,-119,-22,981,-17,-7,-5
797,25,-33,996,-14,-22,-11
798,108,-34,1018,-10,-21,-12
799,127,-14,1005,-9,-5,-9
800,46,5,1000,-13,16,-4
801,-80,4,999,-18,26,2
802,-142,-14,987,-19,17,1
803,-119,-30,988,-20,-2,-5
804,-3,-43,996,-16,-20,-10
805,94,-39,1010,-10,-22,-13
806,133,-10,1002,-7,-8,-10
807,61,19,1005,-8,13,-4
808,-57,9,1011,-15,25,1
809,-151,-5,974,-22,19,1
810,-130,-32,984,-21,1,-4
811,-30,-58,996,-16,-19,-11
812,84,-48,1009,-9,-23,-13
813,143,-13,1006,-5,-11,-11
814,69,16,1004,-7,12,-4
815,-34,23,1006,-13,23,-1
816,-141,6,982,-24,24,2
817,-138,-24,994,-24,4,-3
818,-53,-59,991,-22,-14,-10
819,75,-56,1004,-11,-23,-13
820,137,-25,1003,-6,-15,-10
821,88,8,1009,-7,8,-6
822,-17,23,1006,-12,23,-1
823,-133,22,982,-21,24,2
824,-142,-13,994,-24,6,-2
825,-79,-54,989,-21,-14,-8
826,60,-54,1004,-14,-24,-13
827,135,-37,1006,-9,-15,-12
828,103,-7,1002,-5,3,-6
829,5,17,1005,-10,20,-1
830,-121,26,988,-18,24,4
831,-146,-11,991,-23,11,0
832,-97,-43,986,-21,-10,-7
833,41,-47,1003,-14,-25,-12
834,127,-40,1007,-8,-19,-12
835,114,-15,1009,-6,0,-8
836,23,18,999,-10,17,-3
837,-97,18,997,-18,25,1
838,-149,-14,989,-24,13,1
839,-115,-29,978,-22,-8,-5
840,26,-48,1004,-16,-23,-13
841,110,-44,1010,-9,-20,-14
842,124,-29,934,-9,-4,-8
843,435,698,259,76,0,10
844,136,167,1302,-208,93,0
845,-472,240,529,-190,58,63
846,-68,-326,648,-259,17,47
847,-401,-503,775,-154,-24,82
848,-144,-286,1106,-8,-41,38
849,274,-517,954,-17,-22,-139
850,-257,-413,630,97,57,-82
851,74,-485,731,186,-27,-91
852,258,269,1731,221,-49,9
853,-83,577,702,97,22,20
854,45,672,1006,19,8,-13
855,-53,370,1288,-87,-4,16
856,-122,-52,849,-134,7,-5
857,136,-466,899,-117,-16,-31
858,-104,-464,1088,-17,-11,2
859,46,-288,851,28,-21,-16
860,-62,-59,1052,76,7,-10
861,-61,229,1049,66,-6,8
862,30,243,993,14,-1,-7
863,67,156,1047,-17,-1,-12
864,5,7,983,-42,-2,3
865,23,-137,991,-39,-5,-20
866,-110,-210,967,-14,-3,-6
867,-79,-110,988,13,-14,-5
868,-26,-61,1009,25,-9,-17
869,43,51,1008,28,-6,-7
870,98,99,1011,10,0,-8
871,57,72,1013,-4,8,-13
872,-12,32,986,-19,5,-4
873,-91,-7,993,-26,5,-5
874,-94,-82,999,-23,-4,-9
875,-47,-80,982,-15,-10,-4
876,56,-40,1007,-5,-10,-9
877,110,10,1016,-1,-1,-11
878,181,118,1008,-13,14,-6
879,41,118,1006,-33,37,0
880,-119,58,1021,-53,33,7
881,-227,-89,961,-61,20,2
882,-195,-171,936,-41,-6,-6
883,-24,-169,1000,-13,-29,-11
884,139,-101,1012,12,-26,-19
885,191,13,1003,20,-6,-9
886,97,128,1026,11,19,-1
887,-72,124,1017,-16,32,3
888,-186,51,975,-38,23,2
889,-179,-46,982,-45,-1,-3
890,-33,-129,992,-33,-26,-14
891,104,-145,992,-12,-29,-14
892,171,-69,998,6,-12,-11
893,102,17,1016,10,15,-5
894,-44,71,1015,0,31,3
895,-167,76,977,-16,26,5
896,-161,29,992,-28,4,-2
897,-54,-49,995,-32,-21,-10
898,84,-87,1007,-24,-28,-14
899,164,-74,998,-11,-18,-13
900,95,-37,1000,-3,8,-5
901,-19,10,1003,-1,25,1
902,-147,35,988,-11,26,3
903,-156,27,999,-18,9,-2
904,-74,-20,988,-23,-14,-7
905,74,-39,1004,-19,-26,-14
906,147,-41,1007,-14,-19,-13
907,100,-33,1004,-12,4,-7
908,-4,-11,1002,-11,21,-1
909,-133,8,981,-15,26,2
910,-150,-6,991,-16,10,-2
911,-92,-28,992,-17,-10,-7
912,52,-27,1008,-14,-23,-12
913,135,-24,1005,-10,-17,-13
914,111,-14,1002,-8,0,-7
915,13,3,1002,-14,17,-2
916,-114,1,994,-20,25,1
917,-150,-26,988,-20,12,0
918,-104,-41,981,-17,-7,-5
919,38,-32,1006,-12,-22,-11
920,119,-26,1011,-8,-19,-12
921,120,-4,1009,-6,-3,-8
922,29,18,997,-13,17,-2
923,-99,14,1000,-19,25,2
924,-151,-22,986,-24,13,0
925,-116,-45,977,-21,-5,-5
926,19,-52,1000,-12,-23,-11
927,106,-41,1013,-7,-19,-13
928,129,-5,1003,-5,-5,-9
929,45,28,1007,-7,14,-4
930,-78,23,1005,-19,23,2
931,-151,-12,978,-24,16,1
932,-122,-35,986,-25,-2,-3
933,-8,-59,1004,-19,-21,-9
934,97,-55,1000,-6,-22,-12
935,135,-13,1004,-3,-8,-9
936,58,23,1008,-7,13,-3
937,-54,27,1016,-14,25,1
938,-146,3,973,-24,21,3
939,-131,-20,987,-24,0,-4
940,-29,-56,1000,-20,-18,-11
941,79,-57,1006,-11,-21,-12
942,145,-22,1000,-7,-13,-11
943,71,4,1009,-5,10,-5
944,-34,23,1003,-11,23,0
945,-141,10,980,-21,22,3
946,-139,-16,1001,-24,4,-3
947,-61,-49,988,-21,-16,-8
948,69,-52,1000,-11,-23,-14
949,139,-30,1007,-8,-15,-12
950,91,0,1008,-8,7,-6
951,-9,14,1003,-11,21,-1
952,-131,15,984,-18,24,2
953,-145,-13,990,-22,8,-2
954,-81,-47,992,-21,-12,-8
955,57,-49,1006,-13,-24,-14
956,128,-35,1003,-10,-17,-12
957,106,-10,1002,-5,3,-7
958,7,17,1004,-10,20,-2
959,-113,19,993,-18,25,2
960,-142,-16,988,-23,11,0
961,-103,-42,983,-20,-9,-7
962,38,-42,1001,-14,-24,-13
963,123,-42,1011,-8,-20,-13
964,114,-14,1006,-6,-1,-8
965,30,20,1002,-10,18,-3
966,-100,17,998,-19,25,3
967,-149,-10,989,-23,13,0
968,-112,-37,981,-22,-6,-5
969,16,-50,999,-15,-23,-11
970,106,-49,1012,-10,-20,-12
971,129,-14,1002,-4,-6,-8
972,192,281,380,38,20,4
973,440,534,996,6,77,13
974,-362,171,1113,-199,71,27
975,-263,-56,525,-268,42,78
976,-125,-453,571,-174,-4,35
977,-396,-426,972,-53,-27,83
978,355,-343,1095,6,-49,-88
979,-34,-521,904,75,58,-105
980,-185,-319,509,130,36,-66
981,53,-55,1497,216,-64,-18
982,35,637,1166,134,-23,42
983,-120,447,731,-2,27,-11
984,241,479,1248,-22,-35,-1
985,-59,30,1091,-122,11,7
986,68,-254,755,-110,2,-29
987,-78,-444,1091,-44,1,-6
988,-116,-277,940,2,-12,-6
989,-92,-187,909,42,-5,-10
990,-30,108,1094,68,-18,-4
991,59,197,1016,27,-16,-4
992,145,195,1001,5,-4,-17
993,27,77,1040,-34,5,2
994,-29,-25,978,-42,0,-9
995,-111,-170,965,-35,1,-9
996,-132,-147,989,-9,-11,-2
997,-29,-108,994,9,-18,-13
998,77,-20,1010,22,-15,-16
999,100,76,1011,16,-7,-5
1000,73,96,1011,4,3,-12
1001,-14,68,1000,-17,7,-8
1002,-104,23,985,-29,5,0
1003,-105,-62,1004,-32,-5,-8
1004,-53,-109,982,-23,-14,-8
1005,56,-75,993,-6,-17,-8
1006,103,-27,1014,1,-6,-13
1007,109,45,1016,0,5,-8
1008,101,151,1003,-14,23,1
1009,-79,88,1008,-41,34,4
1010,-173,-17,996,-55,20,5
1011,-186,-137,955,-48,3,-2
1012,-53,-169,969,-25,-22,-11
1013,91,-139,1012,1,-26,-15
1014,172,-23,1008,18,-12,-14
1015,104,77,1007,12,20,0
1016,-40,125,1026,-5,33,3
1017,-159,67,991,-32,24,2
1018,-168,-6,973,-40,4,-1
1019,-53,-97,995,-38,-23,-10
1020,80,-134,997,-19,-29,-15
1021,161,-89,992,-1,-17,-11
1022,103,-11,1008,4,10,-5
1023,-27,44,1023,2,28,2
1024,-148,65,977,-13,26,3
1025,-164,37,990,-23,7,-1
1026,-61,-26,998,-29,-17,-10
1027,71,-73,1008,-25,-25,-13
1028,155,-62,993,-13,-17,-13
1029,96,-41,1006,-8,6,-6
1030,-14,-3,1002,-6,22,0
1031,-140,19,980,-11,26,4
1032,-151,16,1002,-15,9,-1
1033,-79,-16,989,-20,-11,-8
1034,68,-30,1000,-17,-25,-13
1035,137,-31,1008,-15,-19,-11
1036,107,-23,1009,-12,4,-7
1037,0,-13,1001,-12,21,-2
1038,-129,2,981,-16,25,4
1039,-145,-15,992,-19,10,-1
1040,-91,-34,991,-17,-10,-8
1041,49,-33,1005,-12,-24,-12
1042,132,-18,1008,-9,-20,-13
1043,108,-7,1004,-8,-1,-7
1044,12,9,999,-13,16,-3
1045,-110,3,993,-20,26,2
1046,-147,-25,993,-22,13,0
1047,-102,-48,981,-20,-6,-6
1048,38,-44,1002,-11,-21,-12
1049,118,-29,1014,-7,-18,-13
1050,118,-1,1008,-7,-2,-8
1051,30,26,1001,-12,17,-3
1052,-99,18,996,-19,26,3
1053,-150,-18,987,-25,16,0
1054,-111,-48,981,-22,-4,-5
1055,15,-55,998,-15,-21,-10
1056,108,-42,1011,-7,-21,-13
1057,124,-12,1009,-5,-5,-9
1058,46,29,1000,-9,14,-3
1059,-78,22,1006,-16,25,1
1060,-151,-4,980,-24,16,1
1061,-121,-32,984,-24,-2,-4
1062,-4,-60,1002,-19,-21,-11
1063,91,-57,1000,-9,-22,-13
1064,138,-19,1000,-3,-8,-11
1065,56,16,1008,-6,13,-5
1066,-55,23,1013,-13,25,0
1067,-146,7,976,-22,20,1
1068,-132,-19,987,-24,1,-3
1069,-31,-50,1000,-20,-18,-9
1070,82,-56,1007,-13,-24,-13
1071,144,-26,1002,-7,-13,-10
1072,73,2,1005,-7,10,-5
1073,-34,18,1004,-12,23,-1
1074,-137,10,981,-21,22,2
1075,-141,-16,998,-22,5,-2
1076,-53,-48,993,-21,-16,-9
1077,75,-53,999,-13,-23,-13
1078,140,-25,1004,-7,-15,-11
1079,88,-2,1010,-9,8,-5
1080,-13,15,1001,-13,23,-1
1081,-132,14,982,-19,25,3
1082,-144,-13,995,-21,7,-2
1083,-77,-49,988,-22,-13,-8
1084,56,-46,1005,-13,-24,-13
1085,132,-28,1003,-8,-15,-12
1086,100,-9,1007,-6,4,-6
1087,3,16,1001,-12,19,-2
1088,-119,15,991,-20,25,2
1089,-144,-14,994,-23,11,-1
1090,-101,-46,981,-22,-7,-6
1091,43,-44,1006,-13,-23,-13
1092,122,-36,1009,-7,-20,-13
1093,116,-9,1008,-6,-1,-7
1094,27,20,995,-10,19,-2
1095,-104,19,1003,-19,26,3
1096,-152,-13,989,-25,14,-1
1097,-6,168,292,21,2,4
1098,479,391,799,-33,7,-1
1099,-100,127,1097,-149,35,13
1100,-111,-137,533,-215,40,34
1101,-139,-529,640,-101,31,-11
1102,-426,-496,1012,15,-10,73
1103,273,-379,1039,56,-56,-33
1104,-197,-236,1041,139,23,-20
1105,120,388,931,111,-44,11
1106,223,480,1315,59,-4,-20
1107,-20,406,850,-28,27,-2
1108,-71,142,1027,-109,15,26
1109,-78,-200,1114,-94,9,-32
1110,-155,-389,829,-76,1,2
1111,-26,-279,928,-8,-26,-4
1112,20,-167,1120,44,-24,-21
1113,80,46,933,39,-12,-8
1114,78,201,1033,33,4,1
1115,-11,191,1059,-8,11,-6
1116,-55,60,972,-43,9,-2
1117,-112,-77,971,-42,-2,-4
1118,-100,-165,1012,-31,-19,-10
1119,22,-180,971,-3,-27,-17
1120,59,-92,997,24,-17,-11
1121,104,36,1020,25,-5,-9
1122,49,88,1019,16,13,-9
1123,-52,99,987,-5,17,1
1124,-118,51,996,-24,6,-2
1125,-90,-49,1011,-29,-12,-11
1126,-39,-105,970,-24,-24,-9
1127,71,-95,1012,-5,-22,-14
1128,105,-63,1004,4,-10,-16
1129,66,2,986,10,8,-8
1130,-9,56,1010,5,16,-3
1131,-87,76,997,-8,12,0
1132,-96,27,995,-21,2,-2
1133,-67,-22,993,-26,-11,-6
1134,50,-51,1008,-23,-20,-10
1135,108,-53,999,-16,-12,-8
1136,191,48,1011,-16,10,-1
1137,50,43,1010,-27,40,1
1138,-122,25,1000,-36,41,9
1139,-239,-56,975,-40,23,5
1140,-206,-99,951,-28,-7,-7
1141,-5,-103,998,-12,-35,-14
1142,152,-62,1022,3,-32,-18
1143,193,2,1002,4,-9,-8
1144,103,71,1016,-3,19,-2
1145,-84,60,1012,-18,36,4
1146,-198,15,976,-30,25,4
1147,-177,-42,984,-34,-1,-3
1148,-32,-88,991,-24,-26,-12
1149,114,-86,1003,-10,-30,-14
1150,180,-34,1002,0,-14,-12
1151,99,20,1014,-1,15,-4
1152,-53,41,1012,-12,32,4
1153,-173,30,980,-20,28,4
1154,-163,-6,976,-26,4,-2
1155,-49,-54,997,-25,-19,-10
1156,89,-70,1010,-16,-29,-14
1157,164,-40,1003,-6,-18,-12
1158,99,-4,1004,-5,9,-5
1159,-30,22,1013,-8,26,2
1160,-150,17,980,-18,26,3
1161,-160,-3,991,-23,8,0
1162,-68,-44,992,-22,-15,-7
1163,73,-52,1004,-14,-26,-13
1164,154,-29,1003,-9,-18,-12
1165,98,-10,1007,-8,6,-6
1166,-9,10,1008,-12,23,-1
1167,-140,10,982,-19,26,3
1168,-151,-13,992,-22,8,-2
1169,-85,-45,989,-21,-12,-7
1170,62,-46,1003,-12,-25,-12
1171,141,-27,1008,-7,-18,-12
1172,111,-5,1007,-8,4,-7
1173,4,13,1005,-11,20,-1
1174,-123,15,985,-17,25,4
1175,-151,-19,989,-23,12,-1
1176,-99,-42,986,-18,-9,-6
1177,43,-50,1010,-12,-23,-12
1178,129,-31,1004,-6,-20,-13
1179,118,-7,1004,-5,0,-8
1180,22,17,1004,-10,19,-4
1181,-106,18,999,-18,26,2
1182,-151,-15,985,-25,13,0
1183,-110,-43,981,-23,-7,-6
1184,27,-51,996,-15,-23,-12
1185,115,-41,1010,-7,-19,-14
1186,122,-16,1012,-7,-3,-8
1187,37,22,1000,-9,16,-4
1188,-89,21,998,-17,26,2
1189,-152,-6,989,-23,16,-1
1190,-116,-33,985,-22,-4,-5
1191,8,-53,998,-17,-21,-11
1192,100,-49,1006,-8,-22,-13
1193,133,-17,1006,-5,-8,-10
1194,51,20,1002,-7,13,-3
1195,-69,21,1006,-16,26,1
1196,-148,2,983,-22,19,0
1197,-124,-24,983,-23,-1,-4
1198,-13,-51,1002,-18,-20,-11
1199,87,-58,1004,-10,-22,-13
1200,138,-18,1002,-4,-9,-10
1201,67,9,1006,-7,13,-4
1202,-56,18,1012,-14,25,1
1203,-140,7,977,-23,19,1
1204,-135,-19,991,-25,3,-2
1205,-39,-54,997,-19,-17,-9
1206,83,-56,1008,-12,-23,-13
1207,138,-27,998,-6,-13,-11
1208,77,6,1007,-4,9,-4
1209,-31,17,1008,-12,23,-1
1210,-137,16,978,-20,23,2
1211,-140,-16,995,-24,5,-2
1212,-61,-49,993,-20,-16,-8
1213,66,-51,999,-12,-25,-13
1214,138,-31,1006,-7,-16,-11
1215,95,-4,1009,-8,5,-5
1216,-12,18,1001,-13,21,-1
1217,-121,19,981,-19,25,3
1218,-145,-14,995,-22,8,-2
1219,-85,-43,988,-21,-10,-6
1220,56,-53,1009,-14,-23,-12
1221,131,-35,1004,-10,-16,-12
1222,105,-11,1002,-7,3,-7
1223,11,18,1004,-9,20,-4
1224,-115,17,996,-19,26,3
1225,-146,-8,994,-23,11,-1
1226,-101,-43,981,-22,-9,-7
1227,36,-47,1003,-16,-25,-12
1228,131,12,830,-17,-26,-9
1229,662,736,668,-37,13,12
1230,-37,-4,1613,-153,91,-11
1231,-325,130,636,-184,48,74
1232,-141,-386,648,-205,39,44
1233,-499,-401,804,-81,-4,75
1234,-5,-256,1094,-6,-50,0
1235,145,-430,1030,38,-9,-111
1236,-166,-203,621,83,38,-84
1237,109,-214,1120,146,-40,-91
1238,226,409,1448,132,-43,38
1239,-78,394,696,8,37,13
1240,64,374,1144,-15,5,-12
1241,-133,74,1155,-87,6,16
1242,-64,-145,797,-93,1,-18
1243,35,-365,981,-52,-16,-21
1244,14,-224,1078,5,-21,-6
1245,39,-161,885,25,-5,-9
1246,-59,46,1038,51,5,-1
1247,-70,161,1049,24,-3,5
1248,-36,126,976,0,-1,-12
1249,17,39,1026,-22,-10,-7
1250,59,-25,1001,-26,-19,-10
1251,62,-117,980,-19,-10,-16
1252,-32,-107,993,-3,-1,-2
1253,-75,-45,994,7,1,-3
1254,-71,-21,999,9,2,-8
1255,-50,20,1001,6,-6,-3
1256,49,33,1009,3,-15,-11
1257,83,8,1004,-4,-12,-16
1258,48,-1,996,-7,-4,-7
1259,-5,-8,1003,-10,4,-7
1260,-78,-27,985,-13,8,-4
1261,-79,-34,994,-9,2,-2
1262,-45,-33,1002,-7,-4,-6
1263,51,-13,1008,-3,-11,-13
1264,175,67,1008,-6,-6,-11
1265,120,76,1002,-22,19,-4
1266,-10,44,1018,-34,30,2
1267,-174,-30,979,-46,31,6
1268,-211,-110,959,-39,12,-1
1269,-133,-136,977,-18,-14,-6
1270,60,-91,1010,1,-30,-15
1271,162,-23,1006,11,-21,-13
1272,154,62,1020,11,1,-7
1273,32,97,1017,-7,23,-2
1274,-123,63,993,-28,32,5
1275,-186,-17,985,-39,15,2
1276,-134,-92,975,-36,-10,-7
1277,27,-117,990,-18,-28,-12
1278,130,-84,1010,-3,-26,-13
1279,147,-11,1011,5,-6,-9
1280,58,57,1005,1,17,-2
1281,-89,73,1006,-12,29,5
1282,-171,32,984,-28,20,4
1283,-135,-25,988,-32,-3,-4
1284,-5,-76,995,-26,-25,-10
1285,103,-88,1002,-12,-26,-13
1286,150,-49,997,-1,-10,-10
1287,70,6,1008,-1,15,-5
1288,-62,35,1018,-8,29,1
1289,-154,35,976,-18,21,2
1290,-138,-1,982,-25,1,-2
1291,-34,-43,1001,-23,-20,-10
1292,90,-64,1008,-16,-25,-14
1293,146,-43,997,-11,-12,-11
1294,76,-10,1003,-7,10,-5
1295,-38,11,1010,-11,25,1
1296,-144,12,974,-18,23,3
1297,-143,-4,994,-21,7,-1
1298,-58,-38,1002,-20,-15,-8
1299,76,-46,997,-14,-25,-13
1300,144,-31,1004,-9,-16,-10
1301,91,-7,1007,-8,6,-5
1302,-16,7,1007,-11,21,-1
1303,-131,7,977,-19,24,1
1304,-148,-14,996,-21,7,-1
1305,-77,-42,991,-19,-13,-8
1306,63,-41,1007,-12,-24,-14
1307,134,-24,999,-8,-16,-12
1308,100,0,1009,-6,3,-7
1309,1,13,1008,-14,20,-2
1310,-123,11,979,-21,25,3
1311,-144,-26,991,-22,12,-2
1312,-96,-48,989,-18,-8,-7
1313,48,-44,1004,-12,-24,-13
1314,126,-27,1004,-7,-19,-11
1315,111,-1,1005,-9,0,-5
1316,20,18,1003,-14,18,-2
1317,-104,17,995,-22,27,3
1318,-149,-19,989,-24,14,0
1319,-112,-43,982,-21,-6,-7
1320,29,-52,992,-14,-23,-12
1321,110,-37,1014,-6,-20,-13
1322,126,-7,1011,-5,-5,-9
1323,38,26,1000,-8,16,-2
1324,-83,22,998,-19,25,2
1325,-153,-10,987,-24,16,1
1326,-115,-33,984,-24,-2,-6
1327,7,-57,1001,-17,-20,-11
1328,97,-47,1003,-8,-21,-12
1329,133,-13,1004,-5,-8,-9
1330,55,17,1008,-9,13,-4
1331,-70,21,1006,-15,25,1
1332,-147,0,979,-22,20,0
1333,-124,-27,983,-23,0,-3
1334,-16,-55,1000,-18,-19,-10
1335,87,-52,1005,-10,-23,-14
1336,140,-20,1005,-5,-11,-11
1337,66,11,1005,-7,12,-4
1338,-49,22,1011,-13,23,0
1339,-140,9,977,-21,20,1
1340,-140,-22,990,-25,2,-2
1341,-39,-55,998,-19,-17,-10
1342,78,-54,1003,-13,-24,-14
1343,143,-23,1001,-8,-13,-11
1344,81,2,1012,-7,9,-5
1345,-28,19,1004,-12,23,0
1346,-138,13,980,-22,24,2
1347,-146,-12,999,-22,6,-2
1348,-67,-47,986,-20,-15,-8
1349,69,-55,1003,-12,-24,-13
1350,137,-31,1004,-8,-16,-12
1351,99,0,1009,-7,5,-7
1352,-9,17,1007,-10,21,-2
1353,-132,20,981,-22,23,3
1354,-145,-15,992,-28,7,-1
1355,-90,-43,979,-25,-11,-7
1356,433,616,383,-53,-33,1
1357,286,8,1784,-119,65,-32
1358,-263,210,754,-139,25,51
1359,-59,-252,719,-228,27,48
1360,-347,-424,687,-107,14,40
1361,-286,-302,1090,-26,-18,40
1362,226,-464,1012,24,-34,-106
1363,-278,-344,711,87,37,-53
1364,108,-223,877,156,-38,-108
1365,376,319,1686,169,-46,-8
1366,63,565,642,44,26,27
1367,33,537,1075,-18,31,-4
1368,-216,136,1230,-99,20,12
1369,-230,-158,800,-128,6,6
1370,3,-471,886,-77,-25,-25
1371,-11,-366,1125,8,-35,-17
1372,216,-212,886,41,-32,-21
1373,60,65,1032,80,13,-5
1374,-48,258,1072,42,10,10
1375,-117,218,993,-1,17,-1
1376,-135,89,985,-34,3,-3
1377,-54,-64,1008,-46,-26,-5
1378,107,-190,997,-26,-34,-27
1379,98,-189,964,0,-18,-8
1380,61,-48,1006,24,-2,-4
1381,-26,14,1025,26,15,-5
1382,-128,91,966,14,17,5
1383,-104,98,1014,-4,0,1
1384,-26,11,1020,-19,-17,-12
1385,64,-56,980,-20,-26,-10
1386,106,-68,1000,-10,-18,-12
1387,62,-75,1001,-3,-2,-13
1388,-6,-28,992,4,12,-3
1389,-97,31,987,2,21,2
1390,-37,70,1025,-9,9,-4
1391,37,70,996,-24,5,-6
1392,69,27,1018,-33,2,-7
1393,43,-29,1002,-37,5,-5
1394,-21,-90,979,-30,15,-9
1395,-73,-83,983,-22,15,1
1396,-98,-45,994,-11,12,-5
1397,-56,-20,992,-5,3,-7
1398,-16,18,1005,-8,-4,-5
1399,60,35,1015,-14,-9,-11
1400,69,11,993,-21,-2,-10
1401,22,-8,996,-23,7,-3
1402,-33,-39,999,-23,12,-5
1403,-90,-52,982,-23,12,-1
1404,-87,-60,993,-15,3,-2
1405,-52,-40,994,-8,-8,-7
1406,44,-8,1003,-4,-16,-9
1407,87,13,1009,-4,-9,-9
1408,67,28,1011,-11,3,-6
1409,5,22,998,-19,14,-3
1410,-84,-4,990,-25,17,1
1411,-118,-46,993,-27,7,-1
1412,-81,-62,985,-20,-8,-7
1413,21,-58,993,-10,-19,-11
1414,88,-29,1005,-5,-13,-11
1415,105,10,1014,-2,1,-8
1416,30,45,1002,-10,15,-3
1417,-75,27,998,-19,22,1
1418,-134,-13,986,-26,14,0
1419,-105,-49,991,-27,-5,-4
1420,2,-70,995,-17,-19,-10
1421,83,-58,1003,-7,-19,-12
1422,128,-14,999,-2,-5,-8
1423,49,24,1012,-5,15,-4
1424,-59,33,1002,-15,24,2
1425,-145,10,983,-24,17,1
1426,-121,-22,988,-27,-2,-3
1427,-28,-62,997,-22,-19,-9
1428,85,-65,1002,-12,-23,-13
1429,138,-32,1005,-6,-10,-9
1430,72,6,1005,-4,13,-5
1431,-41,24,1001,-10,24,1
1432,-139,24,983,-20,22,1
1433,-136,-9,1000,-24,3,-4
1434,-56,-45,987,-22,-16,-9
1435,80,-58,1002,-15,-24,-13
1436,138,-37,1003,-8,-14,-11
1437,89,-9,1009,-6,7,-5
1438,-16,11,1001,-10,23,-1
1439,-134,14,981,-17,26,2
1440,-146,-4,995,-20,6,-1
1441,-80,-38,992,-22,-13,-8
1442,62,-49,1005,-16,-24,-14
1443,132,-32,1004,-9,-16,-11
1444,104,-18,1003,-7,4,-6
1445,2,7,1006,-10,19,-2
1446,-118,14,986,-17,26,3
1447,-147,-12,993,-21,11,-1
1448,-98,-35,984,-19,-10,-7
1449,45,-42,1005,-12,-25,-13
1450,124,-33,1010,-9,-19,-13
1451,114,-12,1006,-7,1,-8
1452,27,13,1003,-11,18,-2
1453,-109,12,993,-17,25,3
1454,-148,-13,995,-22,12,-1
1455,-111,-38,980,-21,-8,-5
1456,25,-43,999,-13,-23,-10
1457,116,-41,1013,-8,-19,-13
1458,123,-11,1010,-7,-3,-7
1459,42,19,1000,-10,15,-2
1460,-87,15,999,-17,25,3
1461,-150,-13,982,-22,17,1
1462,-119,-33,986,-21,-3,-4
1463,4,-51,999,-17,-22,-11
1464,97,-49,1003,-9,-22,-13
1465,136,-4,1004,-5,-8,-10
1466,59,18,1006,-8,15,-4
1467,-69,19,1010,-15,26,1
1468,-150,0,973,-24,18,1
1469,-129,-30,987,-23,0,-3
1470,-18,-58,1000,-18,-21,-9
1471,90,-55,1002,-11,-23,-13
1472,142,-15,1006,-7,-10,-11
1473,68,10,1005,-7,11,-4
1474,-46,25,1005,-12,25,0
1475,-143,6,977,-23,21,2
1476,-134,-19,996,-25,4,-3
1477,-44,-58,993,-20,-16,-8
1478,78,-54,1000,-12,-24,-13
1479,145,-27,1007,-5,-15,-12
1480,83,3,1009,-5,9,-5
1481,-22,23,1003,-12,22,0
1482,-134,14,981,-20,24,2
1483,-142,-13,994,-24,5,-1
1484,-68,-54,990,-22,-15,-8
1485,63,-52,1001,-13,-24,-13
1486,362,403,440,-16,-22,3
1487,437,303,1383,-108,74,-8
1488,-260,182,1050,-145,54,27
1489,-221,-128,694,-224,46,89
1490,-256,-420,623,-179,6,54
1491,-438,-327,1030,-23,-17,88
1492,271,-352,1085,-1,-52,-104
1493,-209,-416,835,53,42,-91
1494,-49,-315,513,134,-9,-109
1495,331,2,1623,192,-62,-45
1496,145,551,982,102,-4,43
1497,-4,517,833,12,40,-6
1498,-11,389,1243,-57,9,5
1499,-291,8,1010,-119,20,20
1500,59,-292,776,-117,-13,-35
1501,-46,-468,1116,-38,-16,-12
1502,102,-247,913,17,-32,-12
1503,30,-164,965,51,1,-9
1504,-77,154,1069,69,2,5
1505,-94,209,1001,17,2,8
1506,-9,185,1012,-7,-3,-17
1507,-13,24,1009,-37,-11,0
1508,101,-63,990,-33,-23,-18
1509,45,-191,989,-21,-8,-15
1510,-41,-115,982,5,-2,1
1511,-65,-61,1003,16,1,-7
1512,-80,22,992,20,4,-5
1513,-20,74,1006,8,-6,0
1514,49,52,1024,-4,-9,-14
1515,81,13,990,-14,-10,-11
1516,42,-13,993,-16,-2,-6
1517,-31,-48,1008,-13,5,-6
1518,-85,-62,975,-12,5,-3
1519,-81,-40,995,-4,3,-3
1520,-20,-28,1008,0,-6,-8
1521,59,-1,1002,2,-9,-10
1522,101,31,999,-1,-5,-11
1523,72,74,1012,-11,6,-5
1524,51,98,1010,-30,19,-4
1525,-95,11,986,-47,29,1
1526,-148,-62,1004,-49,16,6
1527,-140,-145,965,-37,0,-8
1528,2,-135,972,-10,-18,-12
1529,105,-63,1012,8,-19,-11
1530,123,23,1009,12,-3,-10
1531,43,77,1008,-1,13,-2
1532,-88,96,1000,-19,21,3
1533,-150,12,995,-34,12,1
1534,-120,-62,980,-38,-5,-5
1535,16,-108,999,-24,-20,-11
1536,110,-91,997,-9,-20,-13
1537,123,-43,1000,3,-3,-7
1538,44,34,1007,4,14,-3
1539,-87,64,1004,-11,26,3
1540,-144,37,993,-22,17,2
1541,-124,-12,981,-29,-4,-4
1542,13,-58,995,-27,-22,-11
1543,105,-77,1008,-17,-20,-13
1544,129,-55,1003,-7,-6,-10
1545,47,-4,999,-3,14,-4
1546,-77,26,1003,-9,24,2
1547,-150,18,990,-16,17,1
1548,-121,0,983,-23,-3,-5
1549,2,-30,1005,-19,-20,-11
1550,93,-49,1006,-16,-21,-13
1551,136,-35,1000,-8,-9,-10
1552,52,-6,1005,-10,11,-4
1553,-69,5,1007,-14,23,2
1554,-146,-1,977,-18,19,0
1555,-127,-16,991,-18,1,-3
1556,-16,-34,998,-16,-19,-9
1557,86,-43,1010,-12,-22,-13
1558,140,-15,997,-9,-10,-9
1559,62,3,1008,-9,11,-4
1560,-49,4,1007,-15,22,-1
1561,-143,-2,976,-21,20,2
1562,-128,-22,991,-20,3,-2
1563,-41,-47,1000,-17,-15,-10
1564,83,-44,1004,-11,-23,-13
1565,142,-17,1001,-6,-14,-11
1566,73,9,1008,-9,8,-4
1567,-29,15,1005,-15,21,0
1568,-138,4,977,-21,22,1
1569,-138,-26,997,-23,5,-3
1570,-63,-53,995,-19,-15,-9
1571,72,-49,999,-11,-24,-13
1572,138,-23,1004,-7,-16,-11
1573,93,2,1012,-6,7,-6
1574,-10,20,1002,-13,21,-2
1575,-125,14,981,-19,22,2
1576,-143,-18,995,-21,9,-2
1577,-87,-55,987,-21,-12,-8
1578,55,-53,1006,-13,-24,-12
1579,129,-33,1005,-6,-18,-12
1580,102,0,1005,-5,2,-6
1581,14,23,1002,-9,19,-2
1582,-114,23,995,-20,25,3
1583,-144,-13,986,-24,13,0
1584,-105,-44,985,-21,-6,-7
1585,38,-52,996,-14,-25,-12
1586,117,-45,1012,-8,-19,-14
1587,120,-13,1009,-5,-1,-8
1588,32,20,1001,-7,18,-2
1589,-94,25,995,-15,27,2
1590,-154,-6,992,-24,15,0
1591,-112,-31,983,-23,-5,-6
1592,15,-55,999,-17,-22,-11
1593,100,-48,1008,-9,-20,-13
1594,132,-13,1005,-4,-6,-11
1595,44,15,1007,-8,14,-4
1596,-76,16,1005,-15,24,3
1597,-148,-4,980,-20,17,0
1598,-121,-23,984,-23,-2,-4
1599,-6,-51,1004,-17,-21,-9
1600,95,-47,1005,-11,-23,-12
1601,138,-18,1000,-6,-9,-10
1602,60,13,1007,-9,14,-5
1603,-59,10,1007,-15,23,0
1604,-144,2,973,-21,19,2
1605,-129,-20,992,-22,1,-2
1606,-34,-51,998,-19,-18,-9
1607,84,-51,1003,-12,-23,-13
1608,137,-21,1002,-8,-13,-11
1609,76,7,1006,-7,9,-5
1610,-36,14,1007,-13,23,0
1611,-135,12,976,-22,22,2
1612,-138,-20,1002,-23,6,-3
1613,-61,-53,991,-21,-16,-9
1614,70,-52,999,-12,-24,-11
1615,143,-27,1007,-7,-15,-11
1616,86,-1,1008,-8,8,-4
1617,373,721,298,-76,-12,28
1618,0,69,1768,-162,79,-12
1619,-446,318,756,-191,24,63
1620,-181,-311,682,-253,13,55
1621,-291,-417,747,-125,-40,31
1622,-160,-281,1121,-51,-48,7
1623,394,-507,980,6,-29,-166
1624,-202,-437,653,64,57,-70
1625,198,-476,646,160,-29,-78
1626,305,131,1741,245,-20,17
1627,-138,567,782,90,39,23
1628,-57,680,917,37,26,2
1629,-122,483,1303,-68,2,10
1630,-186,6,888,-152,-2,1
1631,225,-421,881,-119,-29,-39
1632,-60,-502,1096,-44,-10,2
1633,50,-349,849,19,-22,-12
1634,-67,-137,1025,75,9,-9
1635,-93,195,1046,70,-5,5
1636,0,270,990,31,-4,-4
1637,88,210,1066,-10,-3,-16
1638,15,55,979,-46,-7,5
1639,24,-101,1002,-43,-11,-16
1640,-107,-240,981,-28,-6,-8
1641,-93,-146,961,7,-14,-2
1642,-2,-89,1013,25,-13,-14
1643,50,27,1007,30,-6,-8
1644,104,114,1005,20,1,-3
1645,41,107,1021,0,10,-9
1646,-52,43,997,-20,4,-2
1647,-109,-24,981,-26,-4,-6
1648,-96,-103,997,-23,-13,-10
1649,-2,-114,993,-6,-19,-9
1650,79,-79,1003,10,-11,-12
1651,109,-9,1001,16,0,-12
1652,55,55,1007,13,12,-6
1653,-26,88,1001,-1,17,-3
1654,-66,109,1005,-20,13,-1
1655,0,84,1002,-41,10,-4
1656,-19,-36,1020,-49,7,-4
1657,23,-108,994,-42,5,-2
1658,13,-157,971,-23,12,-12
1659,-7,-95,987,-3,14,-4
1660,-25,-1,1011,5,11,-3
1661,-65,67,975,-4,11,-5
1662,-77,72,1011,-15,3,-2
1663,-52,29,1004,-30,-7,-7
1664,19,-54,994,-33,-11,-9
1665,69,-83,993,-25,-9,-8
1666,58,-89,995,-14,3,-6
1667,13,-44,991,-3,12,-5
1668,-78,8,995,-3,18,1
1669,-105,35,1004,-9,8,-2
1670,-85,22,991,-16,-5,-6
1671,26,7,1001,-19,-17,-10
1672,84,-30,1012,-22,-14,-10
1673,92,-46,1005,-17,-1,-8
1674,25,-37,991,-16,13,-4
1675,-81,-18,989,-12,20,0
1676,-128,-18,997,-12,10,-1
1677,-102,-5,989,-12,-4,-5
1678,15,-9,998,-13,-18,-9
1679,94,-14,1009,-12,-16,-11
1680,113,-7,1009,-14,-4,-9
1681,43,-2,997,-17,13,-4
1682,-71,-14,1002,-19,22,0
1683,-140,-26,980,-21,15,-1
1684,-119,-34,986,-17,0,-5
1685,-6,-38,997,-13,-18,-10
1686,86,-34,1009,-10,-19,-12
1687,130,0,1002,-7,-8,-11
1688,57,18,1004,-11,15,-4
1689,-57,9,1005,-5,23,-2
1690,-145,-10,977,-19,20,1
1691,-123,-35,988,-22,1,-3
1692,-30,-59,996,-19,-17,-10
1693,85,-47,1007,-7,-21,-12
1694,139,-12,1001,-6,-10,-11
1695,69,21,1004,-7,11,-5
1696,-33,22,1005,-13,23,1
1697,-144,10,981,-24,22,1
1698,-134,-25,996,-24,3,-1
1699,-57,-58,990,-21,-15,-7
1700,71,-60,1000,-11,-23,-13
1701,140,-26,1008,-3,-14,-12
1702,87,3,1010,-8,8,-5
1703,-15,26,1000,-11,23,-2
1704,-129,19,988,-20,24,2
1705,-144,-14,990,-24,6,-2
1706,-81,-52,992,-21,-12,-7
1707,58,-59,1005,-14,-23,-12
1708,130,-36,1004,-9,-16,-12
1709,106,-6,1000,-4,4,-7
1710,2,19,1007,-9,20,-2
1711,-113,26,992,-19,26,4
1712,-148,-9,990,-23,10,0
1713,-100,-40,984,-23,-10,-6
1714,43,-50,1001,-16,-25,-11
1715,119,-41,1011,-9,-19,-11
1716,115,-14,1009,-8,0,-8
1717,24,17,998,-9,19,-3
1718,-94,19,997,-18,26,1
1719,-152,-9,990,-21,14,0
1720,-110,-30,984,-22,-7,-7
1721,20,-49,1000,-18,-23,-11
1722,107,-43,1008,-10,-21,-13
1723,127,-16,1008,-7,-5,-9
1724,44,14,1003,-8,15,-3
1725,-79,17,1003,-15,24,2
1726,-152,-6,983,-22,17,0
1727,-118,-25,985,-22,-1,-5
1728,-3,-49,1001,-16,-21,-10
1729,99,-49,1002,-10,-22,-13
1730,134,-16,1006,-5,-7,-11
1731,57,15,1002,-10,14,-4
1732,-61,13,1013,-16,25,1
1733,-147,0,974,-21,19,3
1734,-133,-25,988,-22,1,-3
1735,-26,-51,1001,-17,-21,-11
1736,86,-51,1003,-10,-25,-13
1737,142,-15,1006,-6,-14,-11
1738,71,9,1006,-7,9,-4
1739,-40,19,1000,-12,23,1
1740,-143,9,981,-21,21,3
1741,-137,-22,996,-23,5,-3
1742,-51,-50,897,-23,-16,-8
1743,520,574,451,-14,-24,9
1744,137,-22,1633,-138,53,-22
1745,-240,167,610,-126,20,52
1746,-50,-470,680,-171,34,32
1747,-412,-608,756,-33,1,60
1748,-117,-374,1089,82,-41,44
1749,169,-366,1134,105,-23,-72
1750,-172,244,859,139,0,9
1751,454,641,1214,91,-50,-16
1752,17,480,1113,-29,45,-16
1753,-77,231,827,-104,25,30
1754,-136,-153,1138,-124,19,-2
1755,-194,-475,933,-90,3,-22
1756,-82,-401,801,-15,-23,9
1757,98,-202,1122,50,-33,-23
1758,100,40,1008,65,-13,-15
1759,116,245,981,45,7,1
1760,-31,282,1080,-2,23,-1
1761,-121,122,984,-48,14,0
1762,-111,-77,972,-65,-3,-5
1763,-95,-213,995,-44,-22,-9
1764,64,-209,968,-7,-36,-17
1765,112,-136,1001,20,-18,-14
1766,67,39,1014,33,1,-1
1767,24,132,1017,16,15,-3
1768,-92,127,1006,-9,23,0
1769,-129,58,983,-32,3,1
1770,-67,-46,1009,-38,-15,-12
1771,28,-131,985,-27,-26,-13
1772,83,-119,989,-7,-20,-11
1773,100,-58,1010,6,-3,-12
1774,30,10,997,11,17,-4
1775,-59,74,1005,0,24,2
1776,-117,66,994,-14,14,-3
1777,-80,23,997,-25,-4,-6
1778,-6,-44,1001,-28,-19,-9
1779,75,-79,1001,-21,-18,-13
1780,112,-70,1002,-12,-6,-10
1781,42,-33,986,-5,14,-5
1782,-33,9,1009,-3,22,-2
1783,-109,28,988,-12,20,-2
1784,-101,23,1000,-16,6,-3
1785,-36,-4,999,-22,-11,-8
1786,61,-30,999,-21,-17,-12
1787,111,-34,997,-20,-8,-11
1788,66,-24,1003,-19,10,-6
1789,44,33,1010,-22,23,-2
1790,-88,15,981,-31,34,2
1791,-145,-7,1001,-32,18,3
1792,-142,-76,978,-32,-2,-6
1793,-19,-84,984,-15,-21,-13
1794,103,-54,1003,-7,-24,-12
1795,129,-8,1012,-2,-4,-11
1796,64,27,997,-7,15,-3
1797,-72,49,1006,-16,26,3
1798,-149,3,995,-27,17,1
1799,-135,-43,977,-29,-1,-4
1800,0,-61,995,-20,-22,-10
1801,103,-61,1005,-13,-23,-14
1802,132,-29,1008,-5,-6,-9
1803,53,16,999,-7,15,-1
1804,-76,30,1002,-13,25,3
1805,-147,3,994,-21,17,0
1806,-138,-21,977,-22,-3,-3
1807,5,-43,995,-19,-22,-12
1808,101,-54,1015,-14,-22,-13
1809,135,-24,1004,-8,-8,-9
1810,61,7,1001,-8,13,-5
1811,-73,16,1004,-13,26,2
1812,-153,-2,985,-20,20,1
1813,-132,-24,986,-22,0,-5
1814,-9,-47,998,-19,-21,-11
1815,97,-43,1004,-11,-24,-14
1816,138,-19,1004,-6,-8,-9
1817,64,13,1007,-11,13,-4
1818,-56,11,1010,-16,25,1
1819,-154,-2,975,-23,20,3
1820,-130,-23,986,-21,0,-3
1821,-26,-52,998,-18,-19,-11
1822,88,-48,1006,-10,-22,-13
1823,144,-13,1005,-8,-10,-10
1824,75,6,1007,-8,11,-5
1825,-43,11,1005,-14,23,0
1826,-141,0,982,-24,21,2
1827,-136,-29,997,-22,5,-2
1828,-50,-51,990,-20,-15,-7
1829,78,-52,1001,-13,-24,-12
1830,135,-23,1005,-5,-15,-10
1831,86,5,1006,-9,8,-5
1832,-22,18,1007,-12,22,-2
1833,-134,13,979,-20,24,2
1834,-141,-17,994,-23,5,-1
1835,-75,-50,988,-21,-14,-9
1836,62,-49,1006,-13,-23,-12
1837,136,-28,1000,-8,-14,-11
1838,91,0,1010,-6,5,-6
1839,-1,24,999,-11,19,-2
1840,-127,21,993,-20,25,2
1841,-140,-13,988,-24,9,-1
1842,-94,-47,989,-22,-9,-6
1843,49,-47,1000,-14,-24,-12
1844,121,-39,1007,-9,-19,-11
1845,113,-7,1007,-5,-1,-8
1846,15,22,1002,-11,19,-1
1847,-100,23,996,-19,26,2
1848,-149,-15,992,-24,13,0
1849,-109,-39,978,-22,-8,-6
1850,32,-54,998,-16,-23,-12
1851,112,-45,1012,-10,-20,-15
1852,127,-16,1008,-5,-3,-7
1853,37,17,998,-7,17,-3
1854,-89,18,1001,-17,26,2
1855,-152,-7,987,-22,15,0
1856,-119,-31,985,-23,-4,-4
1857,6,-50,1000,-19,-23,-11
1858,102,-51,1006,-10,-22,-13
1859,132,-17,1001,-5,-8,-10
1860,52,16,1009,-9,14,-4
1861,-66,15,1010,-16,26,1
1862,-151,2,975,-22,20,0
1863,-123,-23,986,-22,-1,-4
1864,-21,-51,1001,-18,-19,-9
1865,91,-51,1003,-10,-21,-12
1866,140,-18,1006,-7,-10,-11
1867,66,8,1000,-8,10,-4
1868,-46,14,1006,-13,25,1
1869,-147,8,979,-23,22,3
1870,-136,-20,996,-24,5,-2
1871,-45,-49,996,-18,-15,-9
1872,78,-50,1001,-11,-24,-12
1873,145,-24,1004,-5,-14,-11
1874,81,3,1010,-6,9,-5
1875,-24,12,999,-13,24,-1
1876,-140,8,980,-21,24,2
1877,-142,-17,993,-20,5,-2
1878,-63,-48,984,-22,-13,-8
1879,624,564,208,12,-1,19
1880,210,77,1564,-135,59,-10
1881,-241,282,701,-165,23,57
1882,-119,-361,644,-250,60,52
1883,-522,-607,682,-54,19,38
1884,-291,-395,1026,2,-48,61
1885,221,-680,961,91,-46,-106
1886,-383,-155,869,200,20,-63
1887,536,415,1346,149,-101,-34
1888,315,717,1141,94,13,-2
1889,34,575,777,-63,46,16
1890,-149,195,1256,-132,35,29
1891,-232,-328,980,-134,23,-23
1892,-229,-523,705,-102,-6,9
1893,-17,-464,1032,18,-49,-20
1894,146,-211,1098,73,-39,-33
1895,140,88,902,77,-5,-5
1896,84,383,1099,66,10,4
1897,-77,304,1068,-16,21,-2
1898,-151,108,920,-58,13,3
1899,-136,-128,1017,-65,-14,-4
1900,2,-258,994,-41,-37,-23
1901,119,-271,946,4,-29,-20
1902,102,-85,1012,38,-10,-8
1903,61,67,1031,37,10,-9
1904,-53,143,1004,23,28,-2
1905,-150,145,983,-11,17,5
1906,-101,56,1016,-30,-8,-9
1907,0,-82,992,-35,-27,-17
1908,76,-129,986,-21,-28,-12
1909,120,-109,1010,-3,-15,-15
1910,60,-60,991,8,8,-11
1911,-38,29,998,12,23,2
1912,-110,75,1000,-1,21,1
1913,-79,83,1010,-17,5,-2
1914,18,110,999,-36,-9,-2
1915,80,33,1008,-50,-8,-7
1916,93,-46,1015,-54,-3,-6
1917,-6,-130,969,-47,15,-1
1918,-80,-144,969,-24,18,-2
1919,-133,-104,982,-5,14,0
1920,-89,-30,995,8,-1,-5
1921,-18,36,1001,6,-13,-7
1922,85,78,1025,-2,-18,-10
1923,115,59,1007,-18,-8,-10
1924,53,15,1000,-29,9,-4
1925,-32,-41,1000,-34,17,-2
1926,-118,-82,975,-30,16,0
1927,-118,-95,981,-17,3,-2
1928,-65,-65,1001,-3,-12,-6
1929,61,-12,1008,2,-20,-11
1930,114,35,1007,2,-11,-9
1931,86,59,1013,-8,4,-5
1932,1,43,1002,-22,18,-2
1933,-104,-5,990,-30,22,2
1934,-137,-66,990,-30,8,-1
1935,-93,-93,977,-20,-10,-7
1936,33,-75,992,-5,-21,-10
1937,109,-31,1013,1,-16,-12
1938,114,25,1020,0,2,-8
1939,31,60,996,-11,19,-3
1940,-89,41,999,-22,25,3
1941,-148,-11,987,-30,12,-1
1942,-113,-60,984,-29,-6,-5
1943,13,-87,994,-20,-22,-12
1944,96,-69,1003,-4,-20,-12
1945,129,-17,1004,1,-6,-9
1946,50,36,1006,-3,15,-4
1947,-71,44,1007,-14,26,1
1948,-148,19,986,-23,17,1
1949,-129,-24,982,-28,-3,-4
1950,-16,-64,996,-20,-22,-11
1951,90,-78,1004,-13,-24,-13
1952,140,-32,1002,-4,-10,-11
1953,72,4,1005,-4,14,-4
1954,-50,27,1008,-9,26,1
1955,-146,23,979,-18,22,3
1956,-137,-8,995,-24,2,-2
1957,-44,-48,994,-22,-19,-9
1958,79,-55,1005,-15,-25,-13
1959,146,-37,1004,-10,-13,-12
1960,81,-13,1006,-6,10,-5
1961,-26,8,1003,-11,25,0
1962,-139,13,982,-17,25,3
1963,-142,-1,1000,-20,5,0
1964,-69,-35,988,-21,-15,-9
1965,70,-44,1005,-15,-25,-13
1966,141,-32,1002,-12,-15,-12
1967,93,-15,1007,-9,6,-4
1968,-2,5,1002,-12,22,-1
1969,-130,7,987,-17,25,3
1970,-144,-12,989,-19,9,-3
1971,-88,-40,992,-20,-10,-7
1972,52,-34,1006,-13,-23,-11
1973,131,-28,1008,-9,-18,-13
1974,107,-7,1001,-6,1,-7
1975,12,11,1001,-11,18,-2
1976,-110,12,996,-19,26,2
1977,-151,-19,988,-24,12,0
1978,-105,-42,979,-20,-8,-7
1979,34,-45,1004,-12,-24,-12
1980,118,-37,1012,-7,-18,-13
1981,122,-8,1008,-4,0,-8
1982,28,23,1001,-10,18,-4
1983,-95,15,998,-19,25,2
1984,-152,-15,986,-24,14,1
1985,-119,-38,985,-24,-5,-5
1986,14,-53,1000,-15,-22,-11
1987,106,-50,1007,-9,-20,-13
1988,134,-9,1005,-3,-6,-9
1989,50,25,1004,-7,15,-3
1990,-77,21,1011,-16,26,0
1991,-154,-1,976,-22,19,1
1992,-127,-31,988,-24,-2,-4
1993,-11,-61,1000,-19,-22,-10
1994,93,-57,1002,-10,-23,-13
1995,142,-18,1001,-6,-10,-10
1996,66,12,1011,-7,15,-4
1997,-58,21,1005,-14,25,1
1998,-148,10,978,-23,19,1
1999,-132,-25,991,-23,3,-3
2000,-38,-50,994,-19,-17,-9
2001,86,-55,1005,-12,-24,-13
2002,142,-23,1002,-5,-13,-11
2003,77,2,1005,-7,10,-5
2004,-32,16,1005,-13,23,1
2005,-144,10,979,-20,23,4
2006,-139,-13,999,-24,4,-2
2007,-60,-50,992,-18,-16,-9
2008,73,-48,998,-12,-25,-12
2009,139,-28,1009,-7,-16,-12
2010,95,-2,1007,-9,7,-6
2011,-12,15,1001,-13,23,-1
2012,-130,15,985,-20,24,2
2013,-151,-9,864,-24,9,2
2014,458,669,312,53,10,17
2015,93,36,1504,-172,52,-13
2016,-310,138,598,-190,5,51
2017,-59,-309,664,-194,12,21
2018,-445,-484,706,-130,-8,32
2019,-89,-299,1021,27,-34,-8
2020,250,-576,1043,43,-20,-122
2021,-251,-337,653,120,36,-57
2022,278,-12,1273,206,-45,-83
2023,276,518,1337,118,-20,18
2024,-16,663,686,23,45,11
2025,-1,433,1182,-71,26,2
2026,-235,1,1149,-139,18,6
2027,-109,-317,747,-122,0,0
2028,-66,-515,963,-62,-24,-13
2029,42,-323,1075,26,-39,-22
2030,125,-186,901,62,-11,-17
2031,65,168,1049,79,8,-1
2032,22,297,1079,33,14,3
2033,-77,235,985,-16,24,-2
2034,-129,66,990,-55,6,3
2035,-104,-101,1008,-52,-20,-9
2036,32,-245,970,-36,-32,-24
2037,58,-214,968,3,-23,-10
2038,118,-79,1020,29,-10,-11
2039,63,29,1011,30,16,-10
2040,-60,126,997,20,26,7
2041,-124,133,1009,-7,13,0
2042,-110,41,1003,-27,-6,-10
2043,-27,-55,984,-31,-25,-10
2044,71,-115,1011,-23,-27,-16
2045,127,-109,990,-6,-14,-16
2046,72,-57,985,9,10,-5
2047,-27,22,1012,13,25,0
2048,-108,62,993,1,22,-1
2049,-114,66,1000,-11,7,-2
2050,-29,57,1001,-27,-12,-7
2051,115,32,1019,-37,-16,-12
2052,113,-37,990,-39,-3,-8
2053,28,-94,993,-34,16,0
2054,-84,-112,988,-20,27,-3
2055,-145,-73,961,-7,17,2
2056,-106,-24,1002,3,0,-3
2057,-35,24,1005,1,-16,-8
2058,93,48,1016,-6,-22,-11
2059,124,42,1012,-16,-9,-11
2060,65,3,998,-24,9,-4
2061,-26,-33,998,-28,20,-2
2062,-127,-62,977,-27,21,1
2063,-131,-75,988,-16,4,-2
2064,-70,-58,985,-7,-12,-7
2065,53,-8,1009,2,-21,-10
2066,124,24,1013,-2,-15,-11
2067,98,39,1013,-11,4,-6
2068,12,36,996,-21,18,-3
2069,-104,-4,995,-28,22,2
2070,-144,-57,988,-28,8,-2
2071,-101,-81,976,-20,-9,-6
2072,30,-64,994,-6,-22,-13
2073,105,-30,1021,1,-18,-13
2074,124,24,1007,0,-1,-8
2075,38,49,1002,-10,18,-2
2076,-85,38,1003,-21,25,2
2077,-150,-12,988,-29,14,-1
2078,-118,-57,977,-29,-4,-6
2079,-3,-78,999,-18,-20,-10
2080,96,-66,1002,-6,-23,-15
2081,133,-16,1001,-1,-6,-9
2082,61,30,1006,-5,16,-2
2083,-67,37,1018,-13,27,1
2084,-147,15,974,-22,18,1
2085,-133,-25,983,-27,-1,-3
2086,-32,-65,999,-22,-22,-10
2087,89,-70,1007,-11,-23,-13
2088,144,-34,996,-4,-11,-10
2089,77,9,1005,-3,12,-4
2090,-37,28,1010,-9,24,1
2091,-144,20,976,-20,21,2
2092,-141,-7,997,-23,4,-4
2093,-59,-48,993,-23,-15,-8
2094,74,-58,1001,-15,-24,-13
2095,146,-33,1002,-9,-15,-11
2096,89,-10,1008,-8,8,-6
2097,-16,11,1005,-11,22,-1
2098,-135,14,981,-17,26,3
2099,-147,-3,994,-20,8,-1
2100,-84,-39,995,-21,-14,-7
2101,60,-47,1003,-12,-23,-13
2102,137,-35,1004,-9,-16,-12
2103,104,-14,1004,-8,4,-6
2104,3,11,1006,-11,21,-1
2105,-117,12,988,-18,25,2
2106,-152,-14,988,-21,12,-1
2107,-101,-38,987,-21,-9,-7
2108,44,-41,1007,-16,-25,-13
2109,126,-28,1006,-8,-20,-13
2110,119,-11,1004,-9,-1,-8
2111,25,14,1004,-11,19,-3
2112,-102,14,994,-19,27,3
2113,-152,-15,990,-23,14,0
2114,-114,-40,977,-20,-6,-5
2115,22,-49,1001,-14,-23,-11
2116,112,-44,1010,-8,-21,-13
2117,129,-11,1010,-4,-4,-8
2118,46,19,1002,-8,16,-4
2119,-83,21,1001,-17,26,1
2120,-154,-10,986,-23,17,1
2121,-123,-33,984,-23,-3,-4
2122,0,-56,1000,-18,-22,-10
2123,97,-50,1002,-9,-23,-13
2124,141,-15,1003,-5,-8,-10
2125,59,19,1009,-7,14,-3
2126,-63,18,1009,-15,25,2
2127,-151,0,977,-21,19,2
2128,-130,-25,983,-23,-1,-3
2129,-26,-55,998,-17,-20,-10
2130,88,-54,1011,-9,-23,-14
2131,143,-15,1000,-6,-10,-11
2132,70,11,1003,-7,11,-5
2133,-43,22,1011,-13,24,1
2134,-143,4,978,-22,22,2
2135,-139,-23,994,-22,4,-2
2136,-52,-54,993,-19,-16,-8
2137,80,-53,1002,-10,-24,-13
2138,142,-25,1003,-6,-15,-11
2139,85,3,1009,-10,9,-4
2140,-22,14,1008,-14,24,-1
2141,-134,9,980,-21,25,2
2142,-148,-15,996,-22,6,-1
2143,-75,-50,990,-20,-15,-7
2144,65,-54,1006,-12,-24,-13
2145,136,-27,1001,-7,-16,-12
2146,106,11,916,-12,8,-2
2147,594,825,326,-29,32,28
2148,-146,-31,1658,-203,108,-9
2149,-495,271,649,-200,22,87
2150,-162,-349,632,-245,-8,68
2151,-477,-409,732,-156,-48,66
2152,-69,-236,1115,-18,-55,-30
2153,305,-566,1037,7,-17,-196
2154,-202,-348,585,69,48,-109
2155,261,-581,706,180,-41,-107
2156,388,108,1734,251,-20,13
2157,-88,543,889,113,42,26
2158,-33,697,873,58,31,-4
2159,-199,525,1278,-65,11,14
2160,-253,110,908,-143,-2,10
2161,207,-372,909,-136,-35,-45
2162,-13,-517,1072,-59,-18,-2
2163,67,-357,864,9,-29,-6
2164,16,-205,1020,60,7,-17
2165,-116,131,1037,79,8,6
2166,-34,271,989,39,0,5
2167,52,246,1063,-4,2,-20
2168,0,93,978,-41,-3,3
2169,38,-50,1012,-51,-13,-12
2170,-72,-233,986,-36,-10,-13
2171,-89,-172,952,0,-17,0
2172,-14,-115,1009,17,-14,-14
2173,34,-11,1011,31,-4,-12
2174,100,104,1001,21,1,-3
2175,53,120,1021,2,9,-8
2176,-33,69,1002,-14,7,-4
2177,-98,6,981,-32,-1,-4
2178,-109,-86,1004,-30,-10,-9
2179,-28,-121,985,-18,-19,-9
2180,73,-96,1000,-3,-13,-11
2181,107,-29,1000,11,0,-11
2182,70,39,1006,8,12,-7
2183,48,115,1010,-4,18,-4
2184,-42,128,996,-27,27,0
2185,-96,41,1032,-48,17,1
2186,-119,-89,980,-53,5,0
2187,-39,-165,965,-36,-6,-10
2188,55,-139,994,-10,-7,-9
2189,99,-59,1004,9,2,-11
2190,50,35,996,9,14,-5
2191,-63,111,1007,-3,22,2
2192,-119,77,1013,-25,14,-1
2193,-120,1,970,-38,1,-2
2194,-17,-65,997,-37,-16,-8
2195,78,-113,1000,-25,-19,-13
2196,104,-102,990,-7,-5,-9
2197,57,-27,996,3,11,-4
2198,-67,32,1012,0,23,2
2199,-125,50,995,-9,15,1
2200,-124,34,984,-21,1,-3
2201,-2,-4,1000,-25,-17,-10
2202,86,-53,1011,-25,-18,-11
2203,121,-60,1000,-17,-6,-10
2204,56,-38,994,-10,10,-5
2205,-64,-15,998,-8,22,1
2206,-141,-1,991,-10,16,1
2207,-120,6,991,-13,0,-5
2208,-8,-6,1002,-16,-17,-11
2209,84,-22,1004,-14,-21,-12
2210,132,-13,1004,-12,-9,-10
2211,63,-11,1005,-16,11,-4
2212,-56,-15,1004,-17,22,1
2213,-144,-23,975,-19,18,1
2214,-132,-30,987,-17,1,-3
2215,-27,-35,997,-14,-18,-9
2216,79,-31,1013,-8,-21,-13
2217,139,1,1001,-7,-11,-10
2218,67,12,1006,-11,11,-5
2219,-39,10,1004,-18,21,-1
2220,-140,-10,981,-24,19,2
2221,-132,-40,993,-22,4,-1
2222,-47,-62,992,-15,-14,-8
2223,78,-46,1002,-7,-21,-13
2224,140,-10,1006,-2,-14,-11
2225,84,20,1009,-6,8,-4
2226,-20,30,1002,-15,23,0
2227,-132,8,983,-24,23,3
2228,-142,-28,991,-26,6,-1
2229,-73,-65,988,-21,-13,-9
2230,64,-60,1004,-10,-23,-13
2231,137,-31,1003,-4,-16,-12
2232,100,5,1010,-3,5,-7
2233,1,31,1003,-11,21,-2
2234,-122,28,989,-21,25,3
2235,-146,-14,990,-25,10,-3
2236,-96,-55,987,-25,-9,-7
2237,47,-59,1004,-15,-23,-12
2238,123,-44,1002,-6,-19,-12
2239,114,-12,1007,-4,0,-8
2240,22,23,1002,-8,19,-3
2241,-108,31,999,-16,27,2
2242,-149,-5,992,-22,13,-1
2243,-112,-38,977,-21,-7,-6
2244,25,-49,999,-16,-23,-12
2245,114,-47,1015,-11,-21,-13
2246,124,-22,1007,-8,-2,-9
2247,40,16,1000,-8,18,-4
2248,-86,17,999,-16,25,3
2249,-153,-5,985,-21,16,0
2250,-121,-29,984,-22,-3,-4
2251,1,-47,1000,-18,-22,-11
2252,100,-48,1004,-10,-23,-13
2253,135,-15,1002,-6,-8,-9
2254,55,10,1005,-10,14,-3
2255,-67,12,1011,-16,26,2
2256,-148,-5,974,-21,20,2
2257,-131,-24,985,-22,0,-2
2258,-20,-48,1003,-17,-19,-10
2259,90,-46,1005,-13,-23,-13
2260,145,-16,1001,-7,-11,-10
2261,70,6,1008,-8,12,-4
2262,-46,12,1006,-14,24,1
2263,-142,0,977,-21,22,2
2264,-142,-23,995,-21,4,-3
2265,-46,-49,991,-18,-16,-9
2266,77,-50,1002,-12,-24,-13
2267,144,-20,1007,-7,-14,-11
2268,87,6,1008,-7,8,-5
2269,-22,14,1004,-14,22,0
2270,-137,16,831,-28,23,5
2271,342,758,278,-45,12,9
2272,-53,-15,1346,-175,44,-24
2273,-389,149,549,-227,4,68
2274,69,-323,674,-201,-32,33
2275,-297,-474,776,-125,-28,57
2276,84,-289,1059,-15,-22,-29
2277,212,-623,996,40,28,-121
2278,-277,-423,584,97,50,-24
2279,165,-234,1115,219,-42,-28
2280,97,529,1499,182,-13,17
2281,-127,631,589,38,33,-6
2282,120,627,1192,-14,-2,5
2283,-138,146,1193,-139,5,5
2284,-6,-272,746,-141,0,-11
2285,-19,-580,1012,-68,-7,-11
2286,-121,-402,1013,6,-22,-6
2287,67,-235,872,65,-20,-18
2288,0,135,1099,91,-1,-5
2289,52,313,1035,44,-2,4
2290,64,270,1009,2,15,-12
2291,-67,88,1017,-47,11,6
2292,-113,-86,981,-49,-8,-4
2293,-50,-261,975,-32,-18,-21
2294,-34,-217,972,6,-23,-5
2295,83,-88,1008,35,-17,-12
2296,107,24,1019,41,3,-12
2297,29,150,996,26,17,5
2298,-60,141,1025,0,19,-1
2299,-118,42,994,-25,4,-8
2300,-95,-47,971,-29,-14,-3
2301,-4,-117,1007,-20,-26,-14
2302,79,-135,1001,-3,-20,-16
2303,121,-51,991,14,-2,-9
2304,44,32,1005,15,17,-5
2305,-39,85,1018,6,21,-2
2306,-111,86,978,-13,15,0
2307,-98,75,1001,-29,-1,-4
2308,26,59,1014,-46,-14,-9
2309,94,-29,1008,-53,-7,-11
2310,105,-66,1000,-46,3,-4
2311,5,-110,991,-36,22,-4
2312,-79,-81,974,-23,25,-1
2313,-148,-39,974,-13,16,0
2314,-109,0,1001,-9,-4,-7
2315,-28,-2,994,-13,-19,-9
2316,90,10,1016,-13,-22,-11
2317,125,-7,1002,-18,-8,-11
2318,65,-16,1000,-18,12,-5
2319,-33,-29,1000,-20,22,0
2320,-131,-26,977,-18,21,2
2321,-126,-44,993,-15,3,-3
2322,-67,-32,992,-12,-14,-7
2323,65,-15,1010,-9,-22,-13
2324,129,2,1008,-6,-13,-11
2325,94,10,999,-11,5,-6
2326,1,11,1006,-17,21,-3
2327,-114,-6,992,-26,25,3
2328,-143,-39,985,-23,9,-1
2329,-98,-56,975,-17,-10,-6
2330,36,-41,1011,-9,-24,-12
2331,120,-22,1009,-4,-18,-12
2332,117,6,1011,-5,0,-7
2333,30,34,1000,-13,18,-1
2334,-96,15,998,-21,25,2
2335,-149,-23,985,-27,14,-1
2336,-117,-47,981,-23,-6,-4
2337,15,-60,997,-14,-24,-12
2338,103,-52,1005,-7,-20,-13
2339,133,-4,1001,-2,-7,-8
2340,52,22,1011,-8,15,-3
2341,-73,22,1008,-17,25,2
2342,-151,-2,975,-22,17,1
2343,-128,-31,984,-24,-1,-5
2344,-15,-61,1001,-18,-22,-10
2345,95,-59,1005,-8,-23,-14
2346,141,-17,1000,-4,-9,-11
2347,68,13,1009,-9,13,-3
2348,-51,21,1009,-14,25,0
2349,-146,8,972,-22,21,1
2350,-137,-18,996,-24,3,-2
2351,-44,-53,998,-21,-18,-8
2352,84,-55,1000,-12,-24,-12
2353,141,-27,1002,-6,-14,-10
2354,80,2,1008,-7,9,-5
2355,-26,13,1006,-13,23,0
2356,-138,14,975,-20,23,2
2357,-143,-16,1001,-22,6,-2
2358,-66,-45,993,-21,-15,-8
2359,68,-50,998,-13,-24,-13
2360,141,-28,1004,-8,-16,-11
2361,97,-5,1015,-9,7,-5
2362,-6,13,999,-12,22,-2
2363,-131,14,982,-20,24,3
2364,-141,-15,996,-22,8,-1
2365,-91,-43,988,-19,-11,-8
2366,55,-43,1005,-14,-24,-11
2367,129,-33,1004,-9,-18,-12
2368,109,-3,1004,-1,2,-8
2369,15,12,1004,-13,16,-4
2370,-116,16,996,-20,25,4
2371,-148,-17,988,-22,11,-2
2372,-108,-44,982,-18,-8,-6
2373,37,-46,998,-16,-24,-12
2374,119,-36,1012,-7,-20,-13
2375,121,-13,1011,-8,-3,-8
2376,31,19,999,-11,19,-2
2377,-95,17,995,-16,26,3
2378,-151,-17,990,-24,15,0
2379,-116,-37,984,-22,-5,-4
2380,17,-52,1000,-16,-23,-12
2381,105,-45,1008,-9,-20,-13
2382,129,-7,1005,-5,-5,-10
2383,49,21,1005,-8,15,-6
2384,-76,18,1010,-16,24,0
2385,-155,-6,973,-23,19,0
2386,-123,-33,986,-23,-1,-5
2387,-9,-57,1003,-17,-21,-10
2388,91,-52,1001,-11,-23,-13
2389,143,-16,1004,-5,-8,-10
2390,61,16,1011,-8,13,-4
2391,-55,20,1004,-13,25,1
2392,-149,3,978,-21,21,1
2393,-131,-21,991,-22,2,-3
2394,-38,-55,998,-20,-18,-9
2395,87,-54,1003,-12,-24,-13
2396,143,-26,1002,-7,-12,-11
2397,81,5,1005,-6,10,-5
2398,-35,14,1005,-12,24,0
2399,-138,13,977,-20,22,1
2400,-141,-19,999,-23,5,-2
2401,-65,-48,990,-20,-16,-9
2402,77,-50,1001,-13,-26,-14
2403,139,-26,1005,-8,-16,-13
2404,95,-6,1011,-9,6,-5
2405,-9,13,1003,-10,23,-1
2406,-133,13,981,-19,25,4
2407,-147,-15,992,-21,8,-1
2408,30,72,563,-15,-13,-2
2409,611,643,643,-15,28,1
2410,-65,44,1414,-215,40,-3
2411,-237,56,546,-173,31,76
2412,-7,-435,577,-216,14,29
2413,-470,-437,864,-73,12,113
2414,227,-332,1113,39,-31,-25
2415,-57,-566,967,38,39,-77
2416,-288,-249,528,155,40,-56
2417,84,-34,1448,199,-72,-43
2418,157,652,1206,121,-35,36
2419,-1,509,734,14,31,-14
2420,207,431,1238,-57,-12,3
2421,-180,-47,1106,-120,29,12
2422,-98,-305,731,-103,12,-16
2423,-121,-499,1032,-44,-14,-15
2424,-24,-292,1011,40,-35,-18
2425,69,-137,900,61,-17,-14
2426,97,204,1101,81,-8,-5
2427,15,266,1040,31,7,6
2428,-53,208,979,-16,13,-4
2429,-131,26,1018,-43,0,1
2430,-62,-121,983,-41,-25,-15
2431,47,-242,974,-19,-28,-20
2432,81,-147,993,21,-20,-10
2433,88,-28,1015,29,-3,-10
2434,-1,73,1011,29,17,-5
2435,-105,133,988,8,16,5
2436,-109,99,1010,-17,1,-4
2437,-46,-1,998,-28,-17,-11
2438,45,-69,992,-28,-25,-9
2439,115,-78,1005,-18,-19,-14
2440,125,20,1001,-11,2,-8
2441,36,71,1000,-20,26,1
2442,-90,83,1018,-39,31,4
2443,-154,-7,999,-54,21,2
2444,-130,-77,955,-49,-2,-7
2445,-1,-120,990,-35,-24,-12
2446,117,-101,1002,-15,-25,-17
2447,118,-68,990,-2,-3,-9
2448,47,10,1015,3,15,-3
2449,-88,48,1001,-7,26,3
2450,-143,43,989,-16,16,-1
2451,-127,0,993,-26,-3,-3
2452,15,-37,1007,-24,-22,-12
2453,118,-60,999,-20,-23,-14
2454,118,-54,999,-11,-6,-8
2455,44,-20,1006,-7,13,-4
2456,-89,0,994,-11,26,1
2457,-149,2,991,-15,18,2
2458,-125,-10,987,-18,-2,-4
2459,14,-18,1002,-15,-21,-12
2460,111,-26,1007,-12,-22,-12
2461,124,-18,1011,-12,-5,-8
2462,51,-2,998,-13,15,-3
2463,-86,-1,994,-18,26,2
2464,-150,-21,993,-20,16,0
2465,-124,-35,983,-19,-2,-4
2466,8,-35,990,-13,-19,-11
2467,101,-30,1014,-10,-19,-12
2468,131,-1,1015,-7,-7,-9
2469,53,20,1002,-12,12,-5
2470,-76,11,998,-19,24,1
2471,-150,-17,988,-23,17,0
2472,-124,-40,985,-23,0,-5
2473,-8,-55,997,-14,-19,-10
2474,94,-44,1003,-6,-22,-13
2475,134,-5,1004,-3,-9,-10
2476,61,21,1004,-9,13,-4
2477,-62,17,1011,-16,23,2
2478,-151,-4,978,-23,19,0
2479,-128,-32,987,-24,1,-3
2480,-28,-64,995,-18,-18,-8
2481,85,-57,1009,-10,-22,-13
2482,146,-17,1007,-5,-12,-10
2483,70,13,1002,-6,10,-4
2484,-37,25,1005,-13,23,1
2485,-142,11,985,-21,21,3
2486,-141,-17,989,-24,4,-3
2487,-52,-59,991,-23,-16,-7
2488,74,-59,1001,-12,-24,-13
2489,141,-33,1003,-7,-15,-12
2490,89,2,1008,-5,7,-6
2491,-22,20,1002,-11,23,-1
2492,-129,22,982,-18,23,3
2493,-145,-14,996,-22,7,-1
2494,-76,-46,988,-23,-14,-8
2495,63,-54,1004,-14,-23,-13
2496,136,-33,1002,-8,-16,-12
2497,100,-6,1005,-6,5,-7
2498,0,18,1004,-10,21,-2
2499,-120,18,987,-18,24,2
2500,-148,-13,989,-21,10,-1
2501,-96,-45,986,-20,-10,-6
2502,46,-47,1007,-12,-23,-12
2503,128,-35,1007,-7,-19,-13
2504,110,-10,1003,-6,1,-8
2505,19,21,1004,-10,19,-4
2506,-107,15,997,-19,26,2
2507,-151,-14,988,-23,13,0
2508,-110,-43,980,-22,-8,-6
2509,31,-50,999,-15,-23,-12
2510,114,-41,1011,-9,-20,-12
2511,125,-11,1011,-6,-3,-8
2512,35,17,1000,-10,17,-2
2513,-90,18,997,-15,25,1
2514,-153,-10,990,-23,14,0
2515,-115,-37,983,-23,-5,-5
2516,9,-51,1000,-17,-21,-10
2517,99,-47,1006,-9,-21,-12
2518,134,-12,1004,-2,-7,-9
2519,56,18,1006,-7,15,-3
2520,-73,20,1012,-17,27,2
2521,-149,0,976,-22,19,0
2522,-127,-33,986,-25,0,-3
2523,-14,-53,998,-18,-21,-10
2524,90,-53,1007,-11,-23,-12
2525,144,-17,1000,-6,-10,-11
2526,66,12,1007,-7,12,-5
2527,-54,23,1004,-15,22,1
2528,-149,4,982,-23,19,1
2529,-136,-21,993,-23,1,-3
2530,-41,-55,996,-19,-17,-9
2531,373,362,232,6,-28,4
2532,548,373,963,-89,67,-9
2533,-258,261,963,-194,50,36
2534,-225,-74,662,-246,56,80
2535,-347,-434,564,-235,19,48
2536,-547,-312,1037,-60,-23,108
2537,312,-334,1074,-40,-75,-96
2538,-209,-400,889,9,41,-104
2539,-48,-293,501,99,-1,-143
2540,327,-661,1074,172,-51,-92
2541,164,322,1474,249,-14,7
2542,56,429,1009,83,11,19
2543,55,736,926,46,25,-9
2544,-317,390,1199,-76,31,42
2545,-132,40,898,-144,-15,-4
2546,102,-438,1015,-110,-23,-46
2547,0,-468,897,-34,-28,-9
2548,126,-318,964,21,-31,-8
2549,48,-113,1060,77,6,-19
2550,-162,153,976,66,13,19
2551,-64,293,1027,30,0,4
2552,-47,177,1059,-9,-1,-16
2553,47,42,945,-42,-21,-2
2554,91,-104,1038,-37,-18,-15
2555,40,-202,985,-18,-13,-18
2556,-49,-137,944,5,-3,2
2557,-95,-54,1019,25,3,-7
2558,-80,24,1000,21,0,-5
2559,21,86,998,14,-6,-6
2560,57,59,1018,-2,-7,-13
2561,77,27,1011,-11,-9,-12
2562,33,-17,982,-16,-2,-9
2563,-65,-48,1005,-15,3,-4
2564,-91,-63,991,-10,1,-5
2565,-64,-48,990,-3,0,-6
2566,7,-24,1005,0,-7,-8
2567,69,8,1006,2,-8,-13
2568,181,98,1005,-7,-2,-13
2569,89,107,999,-28,21,-2
2570,-42,56,1046,-44,29,1
2571,-176,-65,971,-56,30,3
2572,-178,-128,950,-39,12,-2
2573,-76,-147,999,-22,-11,-6
2574,81,-87,1005,1,-18,-15
2575,161,1,985,9,-10,-10
2576,90,86,1023,3,10,-4
2577,-29,83,1017,-15,23,0
2578,-153,31,975,-33,25,3
2579,-163,-42,990,-38,5,-2
2580,-71,-112,994,-28,-16,-10
2581,73,-110,989,-12,-26,-14
2582,154,-55,999,3,-17,-11
2583,105,19,1019,6,7,-6
2584,-4,62,1007,-4,24,-1
2585,-139,69,986,-17,26,3
2586,-161,12,996,-30,9,-1
2587,-90,-57,992,-32,-13,-8
2588,55,-89,996,-22,-25,-11
2589,139,-69,997,-10,-19,-13
2590,116,-34,1010,-1,4,-8
2591,9,22,1006,-1,21,-1
2592,-117,48,995,-12,27,3
2593,-154,16,990,-21,13,-1
2594,-109,-24,985,-26,-7,-6
2595,41,-48,1007,-21,-25,-11
2596,126,-57,1002,-13,-21,-13
2597,123,-37,1002,-9,-1,-9
2598,29,-1,1002,-8,19,-4
2599,-104,13,998,-14,28,2
2600,-155,0,993,-19,16,1
2601,-121,-20,979,-20,-6,-4
2602,25,-33,997,-18,-24,-12
2603,114,-44,1015,-11,-21,-12
2604,127,-23,1006,-9,-4,-7
2605,45,5,1003,-10,15,-4
2606,-81,5,996,-15,26,2
2607,-156,-10,986,-20,18,1
2608,-122,-24,988,-19,-2,-3
2609,0,-41,998,-15,-19,-10
2610,102,-39,1005,-10,-22,-13
2611,135,-12,1008,-8,-8,-11
2612,59,14,1001,-10,13,-5
2613,-68,9,1012,-16,26,1
2614,-153,-8,976,-19,20,0
2615,-128,-31,986,-21,0,-4
2616,-20,-51,999,-16,-20,-11
2617,88,-45,1007,-9,-23,-14
2618,144,-8,1003,-7,-11,-11
2619,68,14,1007,-9,12,-5
2620,-51,19,1008,-14,23,-1
2621,-147,0,981,-24,21,1
2622,-136,-30,986,-23,4,-2
2623,-43,-59,996,-20,-17,-10
2624,81,-53,1005,-10,-24,-14
2625,144,-17,1002,-4,-13,-12
2626,82,10,1008,-6,9,-5
2627,-32,23,1006,-13,24,0
2628,-138,15,980,-22,24,1
2629,-146,-20,996,-26,8,-1
2630,-65,-52,991,-22,-15,-10
2631,70,-60,998,-13,-26,-13
2632,141,-33,1004,-7,-16,-12
2633,94,-1,1012,-6,6,-6
2634,-8,22,1003,-12,21,-1
2635,-127,20,984,-19,24,4
2636,-147,-6,992,-24,9,-1
2637,-87,-50,991,-23,-11,-7
2638,54,-51,1004,-13,-24,-12
2639,132,-36,1002,-9,-18,-12
2640,111,-13,1004,-6,3,-7
2641,11,18,1002,-9,19,-2
2642,-114,20,993,-18,25,3
2643,-149,-12,990,-23,12,-1
2644,-114,-40,882,-41,-11,-3
2645,449,635,157,-146,-40,6
2646,246,69,1063,-130,52,-31
2647,-302,180,628,-198,33,57
2648,-105,-395,760,-220,6,33
2649,-490,-511,712,-97,-16,73
2650,-113,-371,952,-14,-49,7
2651,123,-660,929,72,-19,-128
2652,-212,-418,706,178,24,-95
2653,421,139,1521,212,-60,-97
2654,302,577,1112,142,-14,19
2655,53,840,770,24,48,8
2656,-172,355,1258,-105,37,14
2657,-283,-81,1007,-136,9,3
2658,-141,-509,756,-128,-17,1
2659,-13,-538,1053,-12,-44,-21
2660,178,-345,1019,57,-46,-33
2661,207,-44,918,97,-7,-16
2662,19,308,1095,92,23,10
2663,-64,344,1066,21,28,1
2664,-167,188,942,-30,26,2
2665,-153,0,1006,-55,-6,5
2666,11,-188,1020,-47,-36,-24
2667,128,-287,960,-10,-30,-22
2668,123,-135,984,29,-10,-4
2669,90,28,1046,38,13,-10
2670,55,202,1002,17,37,-3
2671,-78,266,991,-28,50,13
2672,-125,197,1053,-64,30,2
2673,-127,-36,973,-92,4,-8
2674,-53,-185,944,-81,-20,-8
2675,41,-267,988,-40,-29,-13
2676,100,-232,978,0,-13,-15
2677,63,-87,985,30,9,-4
2678,-43,100,1018,33,26,2
2679,-99,168,1031,8,21,0
2680,-120,143,979,-22,4,-2
2681,-30,50,1003,-41,-17,-7
2682,75,-68,1018,-47,-26,-15
2683,98,-145,981,-36,-12,-9
2684,59,-135,987,-14,5,-5
2685,-55,-70,998,0,19,0
2686,-109,-5,994,8,19,0
2687,-114,51,991,2,5,-1
2688,-3,72,1015,-8,-13,-9
2689,89,38,1006,-21,-18,-13
2690,103,-13,1002,-27,-8,-8
2691,44,-47,998,-29,6,-5
2692,-70,-71,992,-26,18,0
2693,-127,-81,985,-15,14,0
2694,-122,-51,979,-5,2,-3
2695,12,-5,1002,0,-14,-11
2696,96,23,1014,-2,-17,-10
2697,115,48,1012,-10,-5,-7
2698,52,39,1004,-21,12,-5
2699,-81,-3,992,-29,19,1
2700,-145,-55,989,-30,13,1
2701,-119,-85,981,-23,-1,-5
2702,1,-77,989,-9,-18,-10
2703,95,-40,1003,8,-17,-13
2704,127,25,1017,12,-9,-12
2705,57,62,1007,-6,11,-4
2706,-70,48,1003,-22,22,2
2707,-150,-4,984,-34,16,0
2708,-126,-58,988,-30,-1,-4
2709,-14,-92,988,-21,-20,-10
2710,90,-76,1001,-6,-21,-12
2711,144,-16,1005,1,-9,-11
2712,67,34,1007,-2,13,-4
2713,-55,52,1014,-9,24,1
2714,-153,22,985,-24,20,1
2715,-137,-23,982,-29,2,-3
2716,-31,-76,998,-23,-18,-10
2717,61,-92,894,-10,-25,-13
2718,428,356,411,38,-20,2
2719,201,162,1601,-74,59,-8
2720,-272,88,735,-127,44,34
2721,-204,-442,666,-114,42,20
2722,-543,-519,894,-9,-9,17
2723,-86,-244,1146,61,-69,-9
2724,293,-182,962,87,-45,-72
2725,170,304,991,100,-24,4
2726,376,453,1161,39,-11,0
2727,-54,251,1069,-40,61,-16
2728,-265,32,816,-85,36,34
2729,-286,-153,1111,-72,2,0
2730,-100,-372,939,-49,-31,-33
2731,95,-216,909,13,-41,-4
2732,259,-24,1089,39,-30,-22
2733,147,72,1024,31,13,-15
2734,2,186,976,11,31,10
2735,-214,142,1023,-26,33,6
2736,-186,-6,995,-44,6,-8
2737,-84,-117,963,-42,-19,-8
2738,80,-137,1011,-21,-34,-17
2739,183,-104,1008,1,-25,-18
2740,148,-16,991,10,5,-8
2741,38,120,1008,4,30,5
2742,-89,142,1019,-26,43,2
2743,-189,51,978,-46,26,5
2744,-185,-56,962,-51,-3,1
2745,-23,-141,1001,-37,-30,-18
2746,115,-157,992,-13,-33,-16
2747,168,-78,997,9,-12,-10
2748,93,24,1016,13,15,-5
2749,-60,82,1009,0,33,4
2750,-167,75,991,-17,27,4
2751,-171,28,986,-30,3,-3
2752,-22,-45,995,-31,-23,-12
2753,94,-93,999,-24,-28,-14
2754,156,-76,998,-11,-15,-11
2755,95,-36,1007,-2,10,-5
2756,-51,9,1002,-3,29,3
2757,-156,25,986,-11,26,2
2758,-153,23,993,-17,6,-2
2759,-35,-13,993,-22,-17,-9
2760,84,-36,1007,-17,-26,-13
2761,147,-31,1003,-14,-16,-12
2762,90,-22,1002,-14,8,-6
2763,-45,-17,1015,-14,23,2
2764,-150,-10,976,-16,22,3
2765,-144,-18,985,-16,6,-2
2766,-47,-27,1000,-14,-15,-8
2767,77,-23,1009,-11,-21,-13
2768,148,-4,1006,-10,-15,-12
2769,84,7,1003,-12,7,-5
2770,-32,6,1006,-17,22,0
2771,-141,-13,981,-23,21,2
2772,-147,-39,989,-21,5,-2
2773,-59,-54,994,-17,-12,-8
2774,72,-43,1002,-9,-23,-12
2775,143,-7,1003,-5,-15,-11
2776,91,18,1009,-8,5,-6
2777,-17,25,1008,-15,20,-1
2778,-134,6,980,-26,23,3
2779,-148,-30,993,-27,6,-2
2780,-75,-65,988,-22,-13,-9
2781,64,-58,1000,-10,-22,-13
2782,138,-24,1005,-4,-15,-12
2783,187,235,344,30,16,1
2784,409,493,1133,-30,68,-4
2785,-293,145,1109,-177,63,21
2786,-287,-313,628,-163,46,50
2787,-359,-697,594,-103,-10,15
2788,-372,-581,946,68,-64,57
2789,430,-237,1290,138,-79,-79
2790,34,-34,955,120,3,-32
2791,343,668,946,132,-26,10
2792,40,551,1337,-2,43,-5
2793,-264,254,807,-91,41,7
2794,-224,-142,990,-113,0,21
2795,-114,-422,1062,-77,-32,-34
2796,78,-448,853,-9,-45,-15
2797,241,-165,1028,57,-30,-17
2798,105,67,1071,64,8,-10
2799,3,260,972,44,27,7
2800,-180,229,1037,-9,33,8
2801,-199,85,993,-42,5,-3
2802,-10,-102,988,-48,-24,-13
2803,83,-212,995,-29,-32,-18
2804,138,-158,989,6,-25,-14
2805,105,-61,1002,22,1,-13
2806,-61,59,1004,20,24,3
2807,-66,178,1013,2,23,4
2808,-15,181,1009,-35,21,-1
2809,20,103,1014,-60,10,0
2810,28,-29,1007,-74,3,-2
2811,2,-152,967,-63,2,-9
2812,-61,-207,952,-36,6,0
2813,-82,-161,1002,-3,5,-4
2814,-79,-73,975,15,4,-6
2815,-28,52,998,18,0,-1
2816,27,115,1029,6,-7,-4
2817,61,96,1015,-14,-6,-8
2818,72,47,996,-33,-3,-7
2819,-1,-32,996,-40,7,-6
2820,-53,-99,992,-35,8,-4
2821,-97,-118,972,-22,8,-1
2822,-80,-84,994,-4,0,-3
2823,-10,-31,1004,5,-10,-8
2824,64,31,1009,4,-11,-9
2825,101,70,1005,-5,-5,-8
2826,45,60,1017,-19,8,-5
2827,-31,8,995,-32,14,-2
2828,-117,-47,980,-35,15,1
2829,-108,-91,997,-27,0,-4
2830,-52,-102,986,-14,-13,-7
2831,62,-56,997,2,-16,-11
2832,116,6,1015,5,-8,-10
2833,80,55,1006,-2,8,-5
2834,-12,65,1007,-15,19,-1
2835,-118,32,986,-30,18,2
2836,-132,-41,992,-34,4,-1
2837,-78,-91,982,-27,-12,-8
2838,49,-90,1005,-14,-22,-11
2839,119,-46,1002,-1,-15,-12
2840,102,2,1005,3,4,-6
2841,9,55,1003,-5,19,-1
2842,-107,56,1000,-19,23,3
2843,-143,4,994,-29,10,0
2844,-104,-48,978,-27,-10,-5
2845,35,-73,996,-20,-24,-13
2846,118,-74,1011,-11,-20,-12
2847,118,-29,1004,-3,0,-9
2848,31,21,1001,-2,20,-4
2849,-92,43,1000,-12,27,2
2850,-150,14,992,-22,13,1
2851,-116,-18,981,-27,-7,-5
2852,14,-55,1000,-23,-24,-11
2853,106,-66,1009,-14,-21,-12
2854,133,-38,1004,-7,-4,-10
2855,50,0,1002,-8,15,-3
2856,-108,9,656,5,27,5
2857,237,492,1024,45,24,10
2858,-75,101,1588,-128,44,3
2859,-270,-198,607,-144,17,20
2860,-117,-594,636,-73,2,-21
2861,-360,-451,1040,61,-33,-10
2862,313,-56,1156,84,-69,-27
2863,222,75,967,87,7,-34
2864,58,453,996,57,12,33
2865,13,336,1190,-25,23,2
2866,-198,31,922,-68,33,-16
2867,-177,-162,892,-74,-6,19
2868,10,-213,1097,-39,-29,-29
2869,128,-288,940,-7,-25,-26
2870,84,-18,950,31,-5,11
2871,5,77,1093,23,9,-9
2872,-98,109,985,6,20,-5
2873,-119,95,973,-21,11,7
2874,-54,2,1028,-32,-9,-15
2875,89,-94,999,-31,-25,-18
2876,93,-99,970,-16,-12,-7
2877,22,-61,1018,-4,0,-7
2878,-41,-14,997,-1,10,-8
2879,-103,33,990,-5,14,3
2880,-68,94,999,-18,2,-1
2881,50,69,1020,-34,-6,-11
2882,94,18,986,-43,-6,-7
2883,39,-59,992,-44,3,-2
2884,-14,-119,1006,-30,8,-10
2885,-112,-116,959,-17,12,-2
2886,-108,-64,986,-1,5,-3
2887,-59,-13,1009,4,-7,-8
2888,55,38,1009,1,-12,-10
2889,114,63,1003,-6,-8,-8
2890,73,45,1018,-17,3,-7
2891,-1,6,996,-29,11,-4
2892,-114,-43,984,-33,15,2
2893,-128,-86,985,-25,6,-3
2894,-78,-96,989,-14,-7,-8
2895,50,-50,993,-1,-18,-10
2896,114,1,1020,4,-12,-10
2897,104,49,1015,-1,2,-6
2898,11,61,998,-14,17,-2
2899,-102,34,998,-28,19,2
2900,-142,-41,994,-35,6,-2
2901,-95,-82,973,-28,-9,-5
2902,30,-95,997,-13,-20,-11
2903,110,-64,1010,-1,-16,-13
2904,119,0,1008,4,-1,-8
2905,35,59,1000,-2,18,-3
2906,-87,58,1007,-16,23,1
2907,-149,13,987,-28,13,0
2908,-116,-40,983,-31,-5,-5
2909,6,-82,998,-24,-21,-11
2910,101,-85,999,-11,-21,-13
2911,134,-35,999,-2,-7,-9
2912,54,21,1011,-1,15,-3
2913,-68,38,1009,-10,27,1
2914,-152,25,978,-20,20,2
2915,-129,-5,989,-24,-2,-2
2916,-17,-50,1002,-23,-21,-11
2917,91,-69,1005,-15,-23,-13
2918,142,-38,993,-6,-10,-10
2919,68,-7,1009,-5,13,-6
2920,-46,17,1011,-10,25,1
2921,-151,17,977,-17,21,2
2922,-164,2,761,-22,-2,-1
2923,323,459,751,16,-22,3
2924,131,25,1569,-114,19,-13
2925,-153,-114,595,-127,10,23
2926,-95,-562,681,-77,30,-20
2927,-455,-392,1076,46,-2,2
2928,101,-85,1085,61,-53,-11
2929,152,19,920,79,-5,-43
2930,23,357,1056,59,-16,29
2931,187,308,1147,-7,-10,-15
2932,-42,45,939,-51,26,-21
2933,-152,-66,917,-61,5,28
2934,-93,-168,1095,-44,-8,-27
2935,-19,-293,912,-18,-15,-19
2936,-4,-46,963,23,-17,14
2937,72,15,1093,22,-16,-21
2938,57,74,993,14,-1,-10
2939,28,131,979,-7,7,8
2940,-51,51,1039,-26,10,-13
2941,-18,-60,989,-34,0,-12
2942,-69,-83,952,-26,-2,-1
2943,-52,-102,1026,-12,-11,-11
2944,0,-81,993,0,-15,-12
2945,39,-4,992,7,-7,-7
2946,50,46,1014,2,-1,-9
2947,113,78,1024,-9,8,-11
2948,101,101,978,-26,27,0
2949,-36,72,1025,-45,35,6
2950,-139,-39,1022,-57,23,1
2951,-201,-120,922,-49,8,-2
2952,-91,-142,959,-26,-14,-7
2953,52,-113,1033,-2,-24,-16
2954,153,-41,990,8,-11,-12
2955,112,66,1000,12,10,-2
2956,-18,107,1035,-5,23,1
2957,-142,57,992,-25,21,0
2958,-171,-9,967,-36,4,0
2959,-56,-86,998,-34,-18,-10
2960,78,-123,999,-19,-23,-15
2961,150,-74,990,-2,-13,-10
2962,104,0,1014,4,9,-6
2963,-31,44,1018,-3,26,1
2964,-148,49,978,-16,24,3
2965,-160,26,992,-25,5,-2
2966,-44,-41,1000,-28,-18,-11
2967,76,-76,999,-20,-25,-13
2968,148,-57,996,-11,-16,-12
2969,95,-29,1011,-6,7,-8
2970,-34,0,1007,-6,23,0
2971,-153,19,981,-12,23,3
2972,-143,11,991,-16,5,-3
2973,-52,-23,996,-21,-16,-8
2974,78,-39,1004,-16,-23,-14
2975,149,-31,1006,-15,-14,-12
2976,90,-17,1000,-12,6,-7
2977,-30,-2,1004,-11,22,-1
2978,-145,0,984,-17,24,2
2979,-145,-16,990,-20,9,-2
2980,-64,-34,991,-18,-13,-8
2981,73,-37,1003,-11,-23,-13
2982,146,-17,1010,-8,-17,-12
2983,93,1,1007,-10,4,-6
2984,-16,12,1004,-15,22,1
2985,-137,1,984,-21,24,2
2986,-148,-26,993,-22,8,-1
2987,-77,-52,990,-19,-12,-7
2988,64,-47,1001,-11,-23,-13
2989,140,-22,1008,-5,-16,-11
2990,103,6,1007,-6,3,-7
2991,-4,22,1008,-11,21,-2
2992,-126,14,985,-19,25,3
2993,-151,-24,990,-25,10,-1
2994,-60,36,155,50,-14,9
2995,506,443,1010,89,-16,-11
2996,-59,-10,958,-232,23,8
2997,-186,-376,481,-135,36,12
2998,-289,-576,723,-25,12,-19
2999,-394,-202,1300,68,-32,21
3000,317,-30,910,76,-50,-49
3001,36,145,989,77,3,-12
3002,181,413,1080,42,-36,25
3003,105,207,1155,-19,15,-34
3004,-77,-42,840,-64,23,0
3005,-224,-51,1019,-49,5,25
3006,-30,-242,1050,-45,-18,-43
3007,-52,-243,895,-6,-15,2
3008,41,18,1014,26,-28,3
3009,101,11,1078,17,-13,-30
3010,68,86,969,14,-1,-2
3011,-19,119,1003,-12,10,7
3012,-37,23,1037,-31,7,-22
3013,-58,-72,970,-34,3,-1
3014,-80,-76,979,-27,-6,-2
3015,-25,-103,1018,-15,-17,-17
3016,55,-65,996,-1,-17,-14
3017,47,0,1010,2,-4,-6
3018,141,82,999,-13,3,-9
3019,159,107,1010,-17,28,-3
3020,10,93,1018,-41,44,9
3021,-155,18,1009,-62,38,9
3022,-209,-81,967,-59,17,-2
3023,-154,-135,937,-43,-7,-2
3024,-8,-145,999,-16,-23,-14
3025,146,-86,1003,4,-20,-17
3026,140,0,993,10,3,-6
3027,33,90,1027,5,19,0
3028,-109,82,1005,-16,24,0
3029,-175,41,978,-31,13,3
3030,-112,-46,986,-36,-10,-5
3031,30,-100,1009,-25,-26,-15
3032,150,-93,989,-11,-23,-13
3033,126,-42,1000,-1,1,-6
3034,24,12,1018,0,21,-2
3035,-118,49,987,-9,28,3
3036,-165,34,994,-20,15,0
3037,-109,-11,991,-28,-7,-6
3038,46,-50,998,-26,-23,-14
3039,143,-57,1001,-16,-22,-14
3040,120,-41,1008,-11,-1,-7
3041,15,-11,1007,-8,19,-3
3042,-122,9,980,-12,26,2
3043,-161,9,997,-14,12,0
3044,-104,-17,991,-19,-9,-7
3045,48,-30,1001,-15,-23,-13
3046,137,-26,1009,-11,-18,-12
3047,114,-18,1003,-11,-1,-8
3048,18,-7,1002,-13,17,-4
3049,-119,5,991,-18,25,3
3050,-155,-21,990,-20,14,0
3051,-110,-41,984,-18,-6,-6
3052,35,-37,1004,-12,-21,-11
3053,127,-20,1010,-8,-20,-12
3054,124,-1,1008,-8,-2,-10
3055,28,19,999,-13,16,-2
3056,-105,11,996,-21,24,3
3057,-158,-24,991,-24,14,1
3058,-116,-53,975,-23,-6,-5
3059,27,-49,996,-11,-21,-12
3060,119,-37,1016,-7,-20,-13
3061,130,-1,1009,-6,-5,-9
3062,39,31,999,-10,17,-3
3063,-90,23,999,-20,26,2
3064,-156,-15,993,-25,15,-1
3065,-122,-49,976,-24,-4,-4
3066,9,-63,997,-17,-22,-11
3067,108,-51,1011,-6,-22,-14
3068,139,-11,1006,-4,-7,-10
3069,52,29,1002,-7,15,-3
3070,-120,27,706,-10,26,3
3071,251,593,319,82,31,6
3072,-107,7,1233,-164,46,1
3073,-261,-165,536,-144,9,27
3074,-8,-598,617,-107,10,-28
3075,-360,-517,959,62,-12,-7
3076,304,-83,1253,89,-63,-19
3077,132,-17,917,84,13,-34
3078,-43,456,965,92,10,30
3079,43,367,1230,-14,4,1
3080,-189,91,935,-55,24,-21
3081,-103,-123,858,-71,-17,20
3082,9,-172,1148,-49,-31,-28
3083,127,-312,920,-13,-24,-31
3084,29,-59,931,24,-6,13
3085,-7,45,1102,24,1,-12
3086,-90,82,987,16,11,-7
3087,-81,96,970,-12,1,7
3088,-38,26,1038,-22,-12,-14
3089,107,-53,1007,-24,-25,-20
3090,87,-74,964,-20,-11,-8
3091,7,-49,1017,-8,3,-6
3092,-38,-34,996,-9,8,-8
3093,-92,-1,990,-6,12,1
3094,-9,51,1002,-11,3,-2
3095,123,53,1030,-23,4,-12
3096,117,26,1000,-28,12,-5
3097,9,16,992,-42,22,2
3098,-89,-43,997,-40,23,-6
3099,-176,-72,949,-33,15,3
3100,-139,-88,982,-22,-1,-2
3101,-40,-92,1003,-10,-16,-12
3102,102,-39,1006,2,-19,-12
3103,146,27,1003,4,-9,-10
3104,75,63,1017,-2,9,-6
3105,-25,62,1004,-20,20,-1
3106,-141,14,984,-34,22,2
3107,-146,-57,988,-35,4,-1
3108,-71,-99,989,-27,-14,-9
3109,66,-87,989,-8,-25,-13
3110,132,-43,1015,2,-15,-12
3111,106,17,1014,4,4,-7
3112,4,58,997,-7,22,-2
3113,-118,56,997,-21,25,2
3114,-151,-3,997,-31,10,-2
3115,-97,-58,973,-31,-10,-7
3116,31,-83,995,-19,-23,-11
3117,120,-76,1013,-8,-19,-14
3118,122,-29,1006,-1,-2,-8
3119,32,32,1000,0,18,-3
3120,-93,44,1006,-12,26,3
3121,-153,19,988,-23,14,0
3122,-119,-19,986,-25,-6,-4
3123,9,-55,998,-21,-24,-11
3124,104,-72,1003,-13,-22,-13
3125,134,-36,1000,-4,-5,-8
3126,53,0,1006,-7,16,-3
3127,-70,18,1010,-12,28,1
3128,-153,14,976,-20,18,3
3129,-128,-4,986,-22,-1,-4
3130,-14,-42,1007,-21,-22,-11
3131,92,-51,1001,-16,-24,-12
3132,143,-28,998,-8,-10,-10
3133,66,-7,1007,-8,13,-4
3134,-53,10,1011,-11,25,1
3135,-145,3,974,-22,21,2
3136,-138,-13,990,-20,3,-2
3137,-35,-39,999,-19,-18,-9
3138,86,-42,1005,-12,-23,-13
3139,144,-19,1001,-7,-13,-11
3140,78,0,1009,-10,9,-5
3141,-36,3,1004,-14,23,-1
3142,-142,0,976,-22,22,1
3143,-142,-22,993,-21,6,-2
3144,81,210,365,0,-22,6
3145,491,338,1359,-34,10,-9
3146,-76,28,1014,-166,35,14
3147,-56,-345,588,-129,53,22
3148,-370,-615,707,-47,44,-10
3149,-522,-293,1100,66,-28,38
3150,296,-181,1062,88,-66,-39
3151,-108,184,1017,103,-1,-12
3152,377,445,1003,57,-53,8
3153,190,327,1233,-13,21,-30
3154,-92,64,822,-75,31,13
3155,-208,-82,1008,-73,17,17
3156,-163,-303,1063,-59,-4,-33
3157,-110,-285,845,-11,-20,4
3158,80,-77,1042,31,-35,-11
3159,137,19,1084,34,-19,-21
3160,126,151,954,24,0,-1
3161,-12,151,1033,-7,19,1
3162,-105,58,1022,-33,14,-10
3163,-104,-59,955,-43,3,-3
3164,-100,-137,999,-29,-14,-8
3165,-9,-134,999,-6,-28,-13
3166,105,-76,993,9,-21,-15
3167,72,8,1003,15,-3,-7
3168,59,83,1028,5,7,-7
3169,4,84,998,-13,20,-7
3170,-81,65,972,-29,18,3
3171,-5,59,1031,-41,5,-3
3172,-8,-32,994,-51,4,-8
3173,3,-69,972,-42,-2,0
3174,-21,-125,995,-29,4,-7
3175,-21,-113,982,-10,6,-10
3176,-2,-38,977,1,6,-4
3177,-25,27,1015,3,8,-6
3178,-42,56,1004,-6,1,-5
3179,-41,58,1001,-18,-3,-4
3180,-17,0,999,-29,-9,-9
3181,27,-56,1001,-28,-10,-9
3182,62,-74,990,-21,-4,-8
3183,32,-57,990,-12,8,-6
3184,-22,-25,1015,-6,15,-3
3185,-95,9,983,-6,12,-1
3186,-90,25,991,-11,-1,-4
3187,-30,4,1012,-16,-13,-7
3188,56,-20,1003,-17,-15,-10
3189,105,-30,1000,-18,-7,-9
3190,59,-31,1002,-16,8,-6
3191,-30,-30,1002,-13,18,-1
3192,-119,-16,976,-13,16,0
3193,-124,-14,1000,-13,2,-2
3194,-42,-17,998,-13,-14,-7
3195,65,-20,999,-13,-18,-11
3196,128,-2,1007,-12,-11,-10
3197,75,-4,1005,-14,8,-6
3198,-23,-5,998,-18,19,-1
3199,-133,-12,980,-21,19,2
3200,-136,-35,1002,-19,3,-3
3201,-66,-47,987,-16,-14,-8
3202,68,-34,998,-9,-21,-11
3203,139,-9,1012,-7,-14,-12
3204,92,10,1011,-8,6,-6
3205,-9,17,997,-16,21,-1
3206,-131,3,983,-23,23,3
3207,-148,-29,991,-23,8,0
3208,-82,-60,990,-19,-12,-8
3209,58,-54,1002,-10,-22,-13
3210,136,-25,1005,-5,-16,-12
3211,108,4,1006,-7,4,-7
3212,3,29,1005,-11,19,-3
3213,-119,22,992,-21,23,2
3214,-151,-19,992,-24,10,-1
3215,-99,-58,982,-23,-10,-7
3216,44,-60,1000,-14,-25,-13
3217,129,-42,1011,-5,-20,-13
3218,95,-11,941,4,2,-7
3219,322,346,585,49,28,14
3220,170,309,1705,-62,78,11
3221,-324,0,892,-167,52,31
3222,-125,-363,630,-137,56,19
3223,-502,-575,792,-27,28,-29
3224,-282,-319,1001,64,-67,-14
3225,313,-270,1079,98,-79,-41
3226,93,285,1045,115,-20,-2
3227,362,417,1039,49,-19,1
3228,50,353,1176,-10,47,-13
3229,-274,96,848,-82,42,30
3230,-205,-106,1006,-81,1,-2
3231,-70,-342,1049,-56,-24,-36
3232,52,-247,849,-8,-33,-2
3233,206,-77,1071,31,-26,-17
3234,68,40,1065,31,10,-10
3235,-65,150,939,13,23,13
3236,-169,131,1031,-12,19,1
3237,-130,7,1010,-34,-7,-11
3238,18,-85,960,-33,-26,-15
3239,97,-116,1014,-17,-28,-18
3240,106,-84,996,-2,-16,-15
3241,26,-29,1002,7,5,-7
3242,-110,39,988,2,15,1
3243,-109,59,1010,-9,7,-4
3244,-42,21,997,-22,-7,-9
3245,37,-5,995,-25,-18,-8
3246,115,-19,1010,-26,-17,-14
3247,83,-38,998,-21,-2,-11
3248,27,19,993,-19,13,1
3249,-62,30,1005,-32,24,0
3250,-120,-8,996,-35,19,0
3251,-102,-61,972,-34,3,-1
3252,-14,-88,990,-23,-12,-14
3253,89,-66,998,-7,-19,-13
3254,94,-20,1000,-3,-6,-8
3255,24,23,1007,-3,9,-4
3256,-78,41,997,-13,17,0
3257,-125,13,1001,-24,12,0
3258,-98,-32,987,-27,-4,-5
3259,27,-60,1000,-19,-17,-11
3260,108,-54,998,-11,-15,-13
3261,98,-28,1005,-6,-1,-8
3262,18,6,1007,-7,13,-4
3263,-95,26,986,-14,20,1
3264,-135,3,996,-21,12,-1
3265,-100,-30,993,-23,-4,-5
3266,33,-49,1001,-18,-17,-12
3267,115,-44,1001,-11,-15,-11
3268,103,-21,1006,-7,-1,-7
3269,19,10,1000,-9,15,-3
3270,-97,20,997,-17,22,2
3271,-141,-4,994,-20,12,1
3272,-104,-35,980,-21,-5,-5
3273,30,-44,1000,-16,-20,-10
3274,112,-41,1010,-11,-18,-12
3275,116,-18,1008,-7,-2,-8
3276,27,12,1001,-10,15,-3
3277,-94,18,993,-16,22,1
3278,-149,-8,998,-22,13,0
3279,-112,-31,982,-22,-5,-5
3280,20,-50,995,-15,-21,-12
3281,106,-44,1012,-9,-19,-12
3282,123,-11,1010,-6,-4,-10
3283,42,18,1000,-8,14,-4
3284,-82,19,996,-16,24,2
3285,-151,-7,989,-24,16,0
3286,-117,-32,986,-25,-4,-4
3287,4,-51,995,-17,-20,-11
3288,96,-54,1007,-8,-19,-14
3289,133,-12,1006,-6,-8,-9
3290,54,13,1002,-9,12,-4
3291,-69,19,1013,-17,23,1
3292,-151,-1,980,-23,19,1
3293,-126,-23,981,-24,0,-4
3294,-15,-56,1000,-17,-20,-10
3295,91,-51,1007,-12,-21,-12
3296,137,-20,1003,-7,-9,-9
3297,67,12,1003,-7,12,-5
3298,-53,18,1011,-15,25,1
3299,-149,8,977,-22,21,2
3300,-67,86,461,12,9,7
3301,482,432,908,72,21,6
3302,-59,123,1235,-204,23,8
3303,-54,-127,519,-180,43,27
3304,-223,-587,694,-72,64,-47
3305,-561,-407,1064,28,-13,1
3306,233,-403,951,55,-69,-21
3307,-99,-57,1061,141,1,-16
3308,209,405,1004,87,-48,13
3309,290,403,1229,43,4,-29
3310,-47,271,908,-38,34,8
3311,-196,45,951,-88,18,27
3312,-106,-245,1122,-68,0,-40
3313,-134,-380,818,-42,-11,0
3314,16,-173,983,24,-32,-3
3315,93,-93,1121,44,-24,-26
3316,78,112,946,42,-4,-1
3317,27,201,1013,20,8,4
3318,-62,127,1067,-17,8,-14
3319,-44,-9,949,-39,-1,-5
3320,-94,-93,976,-32,-8,-6
3321,-45,-152,1031,-20,-25,-15
3322,25,-131,969,4,-24,-15
3323,43,-31,1000,15,-14,-11
3324,58,54,1033,9,-6,-11
3325,61,73,1036,-3,5,-11
3326,-12,75,944,-34,10,-1
3327,-41,75,1014,-29,6,-2
3328,6,36,1018,-44,0,-8
3329,2,20,966,-54,4,0
3330,26,-15,1023,-55,3,-1
3331,-10,-114,991,-51,12,-5
3332,-41,-142,950,-30,15,-3
3333,-47,-95,985,-8,8,-5
3334,-48,-31,1009,5,2,-9
3335,-37,26,989,4,-4,-5
3336,-28,72,1008,-6,-8,-4
3337,24,44,1016,-18,-9,-9
3338,46,-14,1000,-26,-3,-9
3339,46,-45,993,-25,5,-6
3340,7,-61,1001,-21,9,-5
3341,-57,-57,989,-13,11,-2
3342,-98,-32,986,-8,6,-2
3343,-82,0,1002,-6,-6,-5
3344,6,3,1001,-10,-13,-10
3345,68,-1,1008,-14,-11,-10
3346,95,5,1003,-16,-2,-8
3347,40,-13,1000,-20,11,-6
3348,-56,-26,1003,-19,18,1
3349,-128,-33,979,-20,11,1
3350,-105,-35,990,-14,-3,-4
3351,-20,-40,998,-11,-17,-8
3352,79,-20,1011,-8,-17,-11
3353,125,4,1005,-9,-7,-10
3354,59,15,997,-12,11,-4
3355,-44,9,1008,-17,21,1
3356,-138,-14,980,-25,17,1
3357,-132,-40,991,-22,0,-4
3358,-45,-62,992,-17,-17,-9
3359,79,-49,1004,-8,-21,-12
3360,137,-12,1007,-3,-11,-11
3361,80,19,1003,-6,10,-4
3362,-27,27,1006,-13,23,1
3363,-137,16,979,-22,22,1
3364,-147,-24,998,-27,4,-2
3365,-67,-61,987,-21,-17,-9
3366,66,-65,1001,-10,-23,-13
3367,144,-31,1005,-4,-15,-12
3368,98,0,1010,-4,8,-6
3369,-6,29,1002,-10,22,-1
3370,-129,25,987,-20,25,2
3371,-148,-13,992,-25,7,-1
3372,-89,-53,987,-24,-13,-8
3373,57,-57,1008,-16,-24,-13
3374,138,-46,1004,-8,-18,-13
3375,112,-13,1000,-3,3,-7
3376,8,19,1008,-5,14,-5
3377,-117,23,994,-13,26,3
3378,-208,-10,692,-17,9,3
3379,266,399,500,258,6,-4
3380,152,141,1524,-131,0,-7
3381,-177,-126,441,-211,15,17
3382,-90,-510,637,-94,29,-32
3383,-414,-391,1149,38,-10,-4
3384,112,-123,1025,58,-48,-5
3385,204,-20,917,64,-2,-42
3386,-1,324,1077,77,-4,34
3387,157,326,1125,-6,-2,-12
3388,-84,44,948,-50,30,-20
3389,-178,-31,931,-55,0,29
3390,-45,-142,1082,-57,-15,-29
3391,11,-293,939,-21,-14,-21
3392,-8,-65,947,14,-15,17
3393,41,-6,1089,17,-12,-22
3394,8,38,987,20,-2,-11
3395,-13,104,975,-1,2,7
3396,-13,51,1046,-17,0,-18
3397,31,-37,992,-27,-7,-12
3398,-31,-56,973,-26,-1,0
3399,-59,-78,1016,-15,-6,-12
3400,-27,-61,992,-9,-11,-10
3401,-8,-18,991,-5,-9,-6
3402,30,10,1066,-41,-7,-8
3403,83,32,975,-50,-2,-11
3404,30,32,972,-24,6,-4
3405,-26,22,1008,-35,7,-1
3406,-66,-19,1004,-36,6,-6
3407,-1,-25,972,-26,0,-1
3408,56,-16,1003,-24,6,0
3409,66,-22,1041,-23,14,-5
3410,18,-10,969,-25,22,-1
3411,-84,-13,964,-23,24,0
3412,-125,-23,1001,-18,12,-1
3413,-99,-30,987,-20,-1,-5
3414,-47,-41,989,-15,-11,-5
3415,31,-27,1008,-11,-17,-9
3416,97,-25,1016,-8,-9,-11
3417,83,-3,985,-9,4,-6
3418,10,15,1010,-13,16,-2
3419,-60,4,1006,-18,19,-4
3420,-120,-7,966,-22,11,-1
3421,-94,-27,1006,-21,-7,-5
3422,-27,-54,1002,-18,-17,-11
3423,81,-46,998,-11,-18,-12
3424,109,-23,1003,-8,-5,-6
3425,63,-2,1006,-8,12,-5
3426,-19,12,997,-12,20,-2
3427,-126,16,982,-19,19,3
3428,-122,-15,1001,-22,3,-4
3429,-68,-47,987,-21,-14,-10
3430,56,-47,1001,-13,-22,-11
3431,123,-33,1011,-9,-14,-12
3432,100,-14,1000,-9,6,-7
3433,5,19,999,-10,22,0
3434,-114,20,998,-19,25,4
3435,-139,-13,991,-23,9,-2
3436,-102,-38,975,-20,-10,-6
3437,36,-45,1003,-15,-25,-11
3438,120,-42,1017,-9,-18,-13
3439,119,-17,1004,-7,0,-7
3440,25,20,996,-10,18,-1
3441,-103,18,1000,-15,25,1
3442,-150,-8,986,-22,13,0
3443,-114,-30,980,-22,-7,-5
3444,20,-46,1002,-17,-24,-12
3445,113,-46,1009,-11,-22,-13
3446,130,-13,1004,-5,-4,-8
3447,46,14,1002,-9,17,-3
3448,-86,13,1005,-15,26,2
3449,-154,-8,978,-21,18,0
3450,-124,-26,989,-21,-2,-4
3451,2,-47,997,-18,-23,-11
3452,103,-51,1010,-11,-23,-14
3453,142,-15,1000,-7,-9,-9
3454,56,12,1008,-10,15,-4
3455,-64,13,1012,-15,26,1
3456,-157,-1,972,-22,20,2
3457,-167,-63,783,-16,-2,-2
3458,195,271,398,69,-31,-10
3459,169,147,1221,-100,-7,-12
3460,-76,-15,587,-104,14,7
3461,-1,-294,831,-87,24,-18
3462,-352,-303,1153,-14,12,19
3463,34,-167,879,15,-22,-21
3464,56,-149,947,34,-1,-21
3465,-23,201,1097,65,-19,22
3466,170,175,1051,5,-12,-25
3467,-13,79,971,-16,15,-12
3468,-136,67,980,-30,2,23
3469,-55,-94,1049,-46,-5,-32
3470,-61,-214,935,-22,-9,-7
3471,-28,-62,978,3,-18,11
3472,60,-78,1058,8,-19,-28
3473,57,0,987,23,-8,-8
3474,39,108,989,8,1,3
3475,-4,58,1042,-10,10,-18
3476,-27,-3,989,-20,7,-3
3477,-92,-30,963,-25,4,0
3478,-59,-91,1029,-15,-10,-13
3479,-7,-93,988,-7,-16,-10
3480,49,-39,993,3,-11,-10
3481,72,9,1017,8,-3,-13
3482,69,39,1007,0,8,-8
3483,2,58,989,-13,18,0
3484,-4,79,999,-29,20,0
3485,-4,20,1021,-38,19,-3
3486,-42,-21,991,-42,14,2
3487,-37,-60,990,-41,9,-2
3488,-28,-94,982,-28,7,-9
3489,-17,-76,969,-15,6,-3
3490,-3,-25,997,-6,4,-6
3491,-28,4,1003,-7,5,-3
3492,-39,21,1003,-11,2,-2
3493,-61,15,991,-17,-2,-4
3494,1,-8,998,-18,-8,-10
3495,42,-43,1005,-20,-6,-10
3496,54,-40,997,-15,1,-7
3497,33,-24,997,-12,9,-4
3498,-47,-7,1001,-10,14,0
3499,-98,-5,990,-14,7,-2
3500,-94,-4,998,-17,-2,-4
3501,0,-21,999,-17,-14,-9
3502,68,-32,1002,-14,-12,-10
3503,103,-20,1005,-11,-4,-10
3504,44,-8,1000,-12,11,-6
3505,-59,-5,1003,-15,18,-1
3506,-130,-14,985,-18,14,-1
3507,-112,-17,989,-15,-2,-4
3508,-14,-39,999,-16,-18,-9
3509,80,-35,1008,-11,-17,-11
3510,131,-10,1001,-9,-7,-10
3511,59,4,1002,-12,12,-5
3512,-52,6,1008,-16,23,1
3513,-140,-5,979,-22,18,1
3514,-125,-27,986,-20,0,-4
3515,-32,-50,995,-16,-17,-9
3516,82,-48,1009,-10,-21,-12
3517,140,-12,1002,-5,-11,-9
3518,74,14,1004,-7,9,-4
3519,-39,19,1006,-14,22,0
3520,-142,9,980,-21,22,2
3521,-135,-23,996,-24,3,-2
3522,-54,-56,988,-19,-16,-10
3523,78,-52,1004,-10,-24,-13
3524,141,-24,1005,-3,-13,-13
3525,88,5,1003,-7,8,-6
3526,-23,21,1010,-11,24,-1
3527,-138,18,980,-21,23,2
3528,-143,-18,992,-25,6,-2
3529,-77,-54,991,-21,-13,-8
3530,64,-59,1003,-14,-24,-12
3531,141,-35,1006,-7,-16,-13
3532,64,137,507,15,-11,0
3533,224,275,788,-30,6,-6
3534,-223,124,916,-122,46,10
3535,-202,-251,687,-98,25,11
3536,-246,-424,954,-38,-8,-17
3537,-155,-248,1113,6,-47,-2
3538,400,-116,882,61,-50,-53
3539,129,102,1059,53,6,4
3540,153,324,1076,29,4,8
3541,-83,159,1043,-23,48,-8
3542,-281,13,909,-62,27,13
3543,-222,-86,1010,-47,-12,6
3544,61,-229,1021,-34,-38,-41
3545,123,-188,931,-1,-31,-4
3546,191,-8,1036,30,-16,-7
3547,72,11,1043,14,18,-16
3548,-117,93,957,11,30,15
3549,-184,80,1015,-11,19,5
3550,-134,-18,1009,-23,-6,-15
3551,29,-71,972,-17,-28,-6
3552,111,-87,1013,-10,-27,-14
3553,144,-62,1006,4,-10,-15
3554,87,4,993,9,16,-6
3555,-21,91,1011,-2,33,4
3556,-96,80,1009,-22,36,1
3557,-110,44,1006,-38,19,2
3558,-71,-29,978,-46,-1,-3
3559,14,-83,984,-34,-13,-14
3560,74,-97,984,-22,-12,-11
3561,52,-61,992,-9,2,-7
3562,-16,-27,1012,-4,16,-2
3563,-91,14,989,-4,18,0
3564,-103,32,989,-9,9,-1
3565,-49,13,1005,-18,-8,-7
3566,47,-17,1006,-20,-17,-11
3567,105,-28,997,-19,-13,-11
3568,64,-28,995,-18,3,-6
3569,-18,-33,1009,-15,15,-3
3570,-110,-21,977,-15,19,2
3571,-119,-17,997,-13,8,-1
3572,-51,-23,1000,-13,-9,-8
3573,53,-17,999,-11,-17,-10
3574,123,1,1006,-10,-13,-10
3575,77,2,1012,-13,5,-6
3576,-12,2,998,-18,19,-1
3577,-121,-13,981,-23,21,2
3578,-130,-41,999,-21,5,-2
3579,-68,-60,986,-16,-12,-7
3580,59,-43,1002,-8,-20,-11
3581,130,-11,1008,-5,-14,-12
3582,94,16,1008,-6,5,-7
3583,-5,30,1006,-13,19,-2
3584,-121,13,984,-23,22,1
3585,-143,-30,989,-26,7,-2
3586,-83,-65,985,-22,-10,-8
3587,51,-62,1006,-14,-23,-13
3588,131,-34,1004,-4,-17,-13
3589,103,6,1002,-2,3,-6
3590,11,38,1005,-10,18,-2
3591,-114,28,999,-20,24,2
3592,-145,-13,987,-26,12,0
3593,-103,-55,981,-24,-8,-6
3594,40,-57,998,-15,-24,-11
3595,121,-50,1011,-7,-19,-12
3596,117,-13,1007,-4,0,-7
3597,24,31,1001,-7,18,-2
3598,-97,32,999,-17,26,3
3599,-155,-4,992,-24,14,2
3600,-110,-36,979,-25,-7,-5
3601,21,-58,1000,-16,-23,-12
3602,109,-57,1007,-9,-22,-13
3603,127,-18,1007,-3,-4,-8
3604,45,17,1002,-8,15,-2
3605,-88,22,1001,-15,27,3
3606,-149,2,984,-22,16,0
3607,-126,-27,986,-25,-2,-4
3608,6,-50,999,-19,-23,-11
3609,97,-57,1004,-12,-22,-13
3610,138,-19,999,-4,-7,-10
3611,57,8,1008,-9,15,-3
3612,-68,19,1010,-15,26,3
3613,-154,1,977,-21,19,2
3614,-24,38,130,-23,-6,7
3615,149,516,312,-48,0,-12
3616,-47,-2,700,-171,7,-14
3617,218,-176,710,-29,-12,-16
3618,11,-482,1034,-11,9,23
3619,-117,-23,1035,-3,17,-17
3620,10,-107,981,67,24,-14
3621,-198,263,1006,33,10,18
3622,28,195,1038,-29,-19,-7
3623,70,92,1041,-7,-4,-22
3624,58,-97,946,-80,-7,10
3625,41,-112,966,-14,6,-14
3626,-38,-217,1067,-14,9,-14
3627,-89,-30,891,1,8,8
3628,-82,31,1058,22,12,-5
3629,-21,71,1018,-11,-8,-9
3630,54,58,985,-14,-5,-1
3631,85,6,1003,-17,-2,-12
3632,9,-55,1025,-32,4,-6
3633,-9,-93,966,-11,9,-7
3634,-129,-74,974,-11,14,2
3635,-70,-33,1015,0,-2,-4
3636,-49,-6,996,6,-4,-7
3637,40,52,1001,-6,-12,-7
3638,90,65,1022,-10,-8,-11
3639,77,32,998,-25,2,-10
3640,0,1,981,-37,11,-1
3641,-90,-42,999,-32,14,-1
3642,-108,-104,983,-30,6,-4
3643,-82,-94,973,-12,-6,-4
3644,34,-49,1007,4,-16,-11
3645,100,6,1015,4,-12,-11
3646,95,51,1001,0,2,-6
3647,12,72,1008,-15,15,-4
3648,-90,28,1001,-29,19,-1
3649,-133,-45,986,-34,8,-1
3650,-100,-83,971,-29,-7,-5
3651,30,-93,1003,-11,-20,-12
3652,103,-58,1006,0,-15,-12
3653,114,3,1008,2,-1,-8
3654,34,58,1010,-2,16,-3
3655,-83,52,1000,-17,24,2
3656,-146,8,988,-27,14,0
3657,-112,-43,987,-30,-6,-5
3658,10,-83,997,-22,-23,-10
3659,99,-80,1000,-7,-21,-13
3660,130,-31,1002,-1,-6,-10
3661,54,22,1006,-2,16,-4
3662,-72,40,1010,-9,28,1
3663,-152,28,984,-21,19,1
3664,-126,-9,985,-25,-2,-4
3665,-14,-54,997,-23,-21,-11
3666,93,-70,1005,-15,-24,-13
3667,142,-40,996,-6,-9,-10
3668,66,-4,1003,-6,13,-4
3669,-53,21,1009,-10,24,1
3670,-147,18,980,-19,21,1
3671,-136,-2,989,-22,3,-3
3672,-39,-39,1000,-20,-18,-8
3673,82,-52,1009,-15,-26,-12
3674,143,-31,1000,-8,-14,-10
3675,78,-9,1004,-7,8,-6
3676,-36,6,1006,-11,24,0
3677,-141,10,980,-18,23,3
3678,-141,-14,997,-20,6,-3
3679,-59,-36,992,-19,-18,-10
3680,73,-43,1002,-13,-24,-13
3681,144,-22,1003,-8,-16,-14
3682,93,-4,1010,-10,8,-5
3683,-16,8,1004,-13,24,-1
3684,-134,1,978,-21,25,3
3685,-144,-21,990,-21,6,-1
3686,-79,-47,990,-20,-13,-8
3687,62,-43,1007,-13,-23,-14
3688,141,-21,1003,-8,-17,-12
3689,100,0,1005,-7,4,-7
3690,4,18,1006,-12,20,-1
3691,-123,12,988,-21,25,3
3692,-152,-22,989,-23,12,-1
3693,-93,-50,989,-20,-9,-8
3694,46,-48,1004,-14,-24,-12
3695,68,-5,373,-32,1,-5
3696,210,-1,534,70,36,-13
3697,-128,54,549,-105,36,7
3698,-43,-151,779,-19,8,-11
3699,-184,-31,879,-10,-6,16
3700,-85,-4,1056,-32,-11,-12
3701,215,-51,834,3,-10,-26
3702,7,-2,1079,-15,-2,10
3703,128,30,1060,-13,-13,-8
3704,-11,-98,958,-3,33,-19
3705,-160,-46,919,-18,25,18
3706,-166,-2,1049,10,6,-2
3707,4,-38,1006,-6,-14,-27
3708,15,25,957,-6,-16,8
3709,126,60,1059,0,-14,-15
3710,88,-33,1017,-28,5,-16
3711,-15,-1,956,-20,12,7
3712,-117,-40,1006,-24,20,0
3713,-108,-75,1005,-17,7,-11
3714,-72,-50,956,-3,-5,4
3715,26,-15,1021,-4,-18,-11
3716,85,17,1024,-3,-17,-15
3717,104,84,986,-11,-1,-6
3718,11,75,1009,-33,17,-2
3719,-60,0,1023,-38,20,-3
3720,-120,-72,950,-43,12,1
3721,-107,-120,969,-29,-4,-3
3722,-8,-111,1014,-8,-19,-11
3723,84,-61,998,4,-17,-13
3724,115,36,993,10,-7,-7
3725,53,84,1025,-2,13,-3
3726,-40,66,1006,-19,23,-1
3727,-134,18,972,-34,20,2
3728,-129,-52,1005,-36,-1,-4
3729,-45,-110,988,-27,-19,-11
3730,76,-97,987,-9,-22,-12
3731,129,-36,1009,3,-11,-11
3732,83,21,1014,4,9,-6
3733,-21,57,1003,-6,24,0
3734,-134,55,980,-21,23,3
3735,-140,-3,1006,-30,5,-4
3736,-72,-67,983,-29,-16,-9
3737,59,-83,1000,-16,-26,-13
3738,139,-63,1006,-7,-17,-13
3739,101,-22,1001,-2,6,-6
3740,-1,26,1006,-4,23,-1
3741,-125,44,996,-15,26,4
3742,-147,10,989,-23,10,-1
3743,-98,-32,987,-25,-10,-7
3744,50,-54,1011,-21,-26,-13
3745,131,-57,999,-11,-20,-13
3746,115,-32,999,-6,1,-7
3747,17,3,1008,-8,20,-3
3748,-109,20,997,-14,27,3
3749,-153,1,986,-20,13,0
3750,-112,-18,988,-20,-9,-6
3751,33,-38,1000,-16,-24,-12
3752,118,-42,1008,-12,-20,-14
3753,124,-25,1010,-8,-3,-8
3754,33,4,1004,-11,18,-3
3755,-93,8,992,-15,26,3
3756,-157,-8,987,-19,15,0
3757,-116,-26,988,-20,-5,-6
3758,14,-36,999,-15,-21,-11
3759,106,-36,1006,-11,-21,-12
3760,133,-10,1007,-7,-7,-10
3761,49,11,1005,-10,14,-3
3762,-82,6,1000,-17,25,1
3763,-153,-15,981,-22,18,0
3764,-124,-32,986,-20,-2,-3
3765,-4,-51,999,-17,-21,-11
3766,100,-44,1004,-8,-22,-12
3767,140,-10,1006,-5,-8,-9
3768,61,19,1007,-9,13,-4
3769,17,20,344,-13,-63,0
3770,56,182,206,-252,96,-1
3771,-397,199,160,37,38,-9
3772,291,-55,1013,-84,-39,-37
3773,-154,-150,1199,-61,-6,36
3774,225,-270,851,-13,-14,-38
3775,152,-398,851,-11,17,-18
3776,-265,59,1188,99,18,34
3777,67,122,945,28,1,-26
3778,-195,163,1014,13,31,-8
3779,-49,246,990,-5,-22,28
3780,71,39,1067,-62,-19,-36
3781,165,-182,957,-49,-15,-16
3782,-22,-110,954,-20,6,21
3783,46,-157,1062,-20,9,-32
3784,-146,-114,944,20,21,4
3785,-101,83,992,14,3,11
3786,-45,35,1041,1,-1,-18
3787,76,50,1003,0,-11,-8
3788,100,31,976,-21,-7,-1
3789,57,-13,1032,-18,4,-15
3790,34,-15,985,-28,14,-2
3791,-99,9,997,-30,24,3
3792,-125,-36,1008,-28,16,-2
3793,-78,-62,988,-30,1,-7
3794,14,-44,980,-17,-10,-6
3795,95,-9,997,-12,-13,-12
3796,95,-11,1001,-12,-1,-12
3797,0,19,992,-10,14,-1
3798,-94,12,1001,-24,18,1
3799,-120,-41,999,-22,9,-6
3800,-97,-52,966,-20,-5,-4
3801,34,-45,1008,-15,-19,-11
3802,102,-36,1016,-3,-16,-13
3803,105,8,1000,-6,-2,-7
3804,19,34,1006,-11,15,-4
3805,-94,21,995,-18,20,0
3806,-135,-19,990,-26,10,1
3807,-106,-46,983,-23,-4,-6
3808,26,-63,1001,-15,-20,-11
3809,101,-55,1003,-6,-18,-12
3810,119,-6,1002,-1,-4,-8
3811,39,30,1011,-7,13,-4
3812,-79,32,1003,-15,23,1
3813,-147,0,980,-24,15,0
3814,-114,-30,993,-24,-4,-5
3815,0,-65,997,-22,-21,-11
3816,94,-66,998,-11,-21,-11
3817,130,-22,1005,-3,-6,-9
3818,54,12,1006,-7,14,-4
3819,-64,24,1010,-12,24,1
3820,-146,12,977,-20,18,1
3821,-128,-19,989,-24,-2,-5
3822,-20,-53,999,-22,-20,-11
3823,91,-58,1006,-13,-22,-13
3824,137,-29,1003,-7,-11,-11
3825,68,0,1005,-5,12,-5
3826,-50,17,1000,-11,24,1
3827,-146,10,980,-18,21,2
3828,-132,-15,1000,-22,4,-2
3829,-45,-45,992,-20,-16,-8
3830,82,-47,1001,-13,-25,-13
3831,143,-25,1008,-7,-13,-12
3832,81,0,1007,-7,8,-4
3833,-26,10,1004,-11,23,-1
3834,-139,11,978,-20,23,3
3835,-141,-15,998,-20,5,-2
3836,-66,-44,989,-20,-15,-9
3837,70,-48,1004,-13,-23,-12
3838,140,-28,1006,-9,-15,-11
3839,95,-7,1003,-8,6,-6
3840,-10,17,1004,-10,21,-1
3841,-127,8,984,-20,25,4
3842,-145,-18,993,-23,8,-1
3843,-87,-46,989,-21,-10,-8
3844,57,-45,1008,-13,-23,-13
3845,130,-31,1007,-8,-17,-12
3846,108,-4,1002,-6,3,-6
3847,7,19,1002,-11,20,-3
3848,-114,15,996,-20,25,2
3849,-149,-21,988,-24,12,0
3850,-254,-122,402,97,-3,3
3851,247,414,221,23,-9,-39
3852,0,194,463,-40,-34,-29
3853,254,-141,765,-53,0,-21
3854,-27,-394,1082,-104,27,41
3855,-240,-249,1052,49,42,-13
3856,22,-272,824,3,-4,-24
3857,-235,48,1081,85,-3,18
3858,87,280,1022,56,-29,-13
3859,150,156,1035,-19,2,-32
3860,101,184,996,-15,0,14
3861,-1,37,1035,-64,9,1
3862,-62,-181,1027,-67,21,-22
3863,-219,-215,884,-19,15,18
3864,-80,-110,1011,-12,-14,-12
3865,39,-119,1032,20,-20,-22
3866,121,64,971,29,-12,0
3867,139,122,1032,1,6,-7
3868,23,80,1042,-7,24,-10
3869,-94,16,975,-36,23,9
3870,-176,-48,973,-33,13,-3
3871,-123,-97,982,-23,-9,-8
3872,17,-84,983,-13,-23,-9
3873,107,-40,1007,5,-19,-12
3874,155,25,1022,3,-6,-9
3875,67,56,1001,-7,18,-4
3876,-80,54,995,-17,28,3
3877,-163,12,989,-34,17,0
3878,-132,-60,990,-32,-2,-6
3879,-38,-91,980,-20,-20,-9
3880,99,-76,1011,-8,-24,-13
3881,155,-30,1005,2,-10,-13
3882,79,26,1001,0,13,-2
3883,-41,55,1012,-10,26,1
3884,-146,36,985,-22,23,0
3885,-145,-11,988,-30,4,-2
3886,-68,-64,992,-27,-20,-9
3887,78,-82,1008,-17,-28,-14
3888,144,-52,996,-5,-15,-12
3889,98,-8,1009,-1,8,-5
3890,-8,30,1007,-6,23,-1
3891,-134,35,984,-16,26,4
3892,-149,3,989,-23,8,-1
3893,-92,-43,994,-24,-13,-8
3894,61,-54,1000,-18,-25,-13
3895,135,-51,1005,-12,-18,-12
3896,113,-24,1005,-6,3,-7
3897,10,2,1003,-8,20,-2
3898,-114,20,995,-14,26,4
3899,-153,-3,993,-20,12,0
3900,-102,-24,981,-20,-11,-7
3901,37,-40,998,-15,-24,-11
3902,122,-39,1014,-11,-19,-12
3903,123,-22,1008,-8,-1,-7
3904,31,6,997,-9,18,-2
3905,-102,12,995,-16,25,4
3906,-153,-11,992,-20,14,-1
3907,-116,-28,982,-20,-3,-6
3908,19,-40,994,-14,-22,-10
3909,108,-39,1018,-9,-22,-14
3910,129,-9,1003,-8,-7,-9
3911,45,13,1003,-11,17,-3
3912,-83,11,1005,-16,27,1
3913,-155,-10,982,-22,18,1
3914,-124,-29,983,-21,-2,-4
3915,-2,-48,1000,-16,-21,-12
3916,101,-48,1008,-9,-23,-14
3917,136,-9,999,-6,-9,-9
3918,61,12,1007,-10,14,-4
3919,-63,12,1011,-15,25,1
3920,-155,0,972,-22,19,2
3921,-130,-33,987,-23,0,-3
3922,-44,-11,823,-18,-17,-9
3923,4,-182,129,65,-15,-10
3924,183,135,506,-27,-22,-1
3925,0,-203,565,-34,23,-8
3926,164,-1,999,-29,23,-14
3927,-460,-25,1239,14,37,40
3928,151,85,737,-24,-27,-45
3929,-176,-131,1080,-23,10,13
3930,84,145,1033,13,-34,2
3931,230,-123,1004,-52,0,-34
3932,25,-69,965,11,14,-3
3933,-114,8,1007,-9,14,29
3934,-78,-27,1030,-12,20,-39
3935,-169,-59,949,0,11,16
3936,-31,90,1001,-11,-20,-1
3937,112,-63,1063,-16,-17,-32
3938,111,-12,955,-3,-9,0
3939,43,7,999,-20,10,1
3940,-40,-55,1032,-8,18,-18
3941,-125,-19,963,-15,15,9
3942,-118,28,983,-15,3,-2
3943,-43,0,1036,-16,-10,-14
3944,94,4,999,-27,-21,-7
3945,116,-5,983,-23,-8,-10
3946,65,-38,1004,-19,7,-10
3947,-10,-33,994,-21,18,-3
3948,-128,-35,971,-16,22,3
3949,-127,-32,1001,-15,5,-2
3950,-65,-31,993,-11,-11,-7
3951,50,-5,986,-4,-18,-10
3952,111,1,1023,-10,-14,-11
3953,99,13,1018,-11,2,-8
3954,4,6,981,-18,18,-2
3955,-104,-5,998,-23,23,1
3956,-138,-48,995,-24,12,-2
3957,-94,-51,975,-18,-7,-5
3958,31,-46,1003,-10,-20,-10
3959,101,-26,1013,-3,-17,-13
3960,119,12,1002,-4,-3,-8
3961,28,34,1003,-11,16,-3
3962,-85,15,1014,-21,23,-1
3963,-145,-22,973,-27,14,1
3964,-109,-48,982,-25,-5,-5
3965,6,-67,1009,-17,-22,-11
3966,95,-51,1002,-7,-20,-12
3967,133,-7,999,-4,-6,-9
3968,49,30,1012,-6,15,-3
3969,-62,26,1008,-17,23,1
3970,-149,3,973,-25,17,3
3971,-124,-29,993,-24,-1,-3
3972,-24,-65,1000,-19,-18,-10
3973,87,-58,1000,-11,-22,-12
3974,138,-21,1006,-5,-11,-11
3975,70,9,1005,-6,12,-4
3976,-40,26,1005,-13,23,1
3977,-145,16,985,-22,22,2
3978,-135,-15,997,-24,2,-2
3979,-51,-56,992,-22,-17,-9
3980,80,-54,998,-12,-24,-12
3981,140,-33,1008,-7,-14,-12
3982,87,-3,1007,-7,8,-5
3983,-21,14,1003,-11,24,0
3984,-133,20,980,-18,23,2
3985,-145,-10,998,-23,7,-2
3986,-73,-40,989,-22,-13,-7
3987,65,-53,1007,-15,-22,-13
3988,137,-34,1002,-9,-16,-11
3989,102,-13,1006,-8,3,-5
3990,0,13,999,-11,19,-1
3991,-124,17,992,-19,25,3
3992,-146,-12,992,-21,10,-2
3993,-99,-38,982,-20,-10,-7
3994,53,-45,1004,-14,-26,-13
3995,126,-37,1010,-9,-19,-13
3996,117,-14,1008,-7,0,-7
3997,14,14,998,-10,21,-2
3998,-184,64,255,-74,-92,16
3999,120,291,644,-224,-21,-3
4000,-334,-117,170,-65,8,-5
4001,357,-383,842,-87,-45,-23
4002,-127,-444,1215,-25,9,17
4003,155,-133,957,88,-6,-39
4004,168,-179,831,16,14,-17
4005,-315,391,1171,108,34,32
4006,38,296,1038,-10,-1,-13
4007,-167,134,973,-56,25,-16
4008,-26,20,957,-49,-29,27
4009,89,-161,1079,-69,-27,-34
4010,174,-322,953,-31,-10,-24
4011,-20,-118,908,23,14,25
4012,10,-15,1114,9,18,-19
4013,-142,14,963,30,27,-3
4014,-116,176,965,3,10,17
4015,-18,57,1060,-25,-6,-17
4016,79,-22,1012,-19,-16,-14
4017,117,-68,952,-33,-8,-1
4018,30,-84,1030,-11,11,-13
4019,-30,-94,996,-3,16,-3
4020,-146,0,961,-3,22,5
4021,-145,41,1006,-1,6,-3
4022,-11,54,1022,-13,-13,-11
4023,92,32,990,-23,-17,-11
4024,133,10,988,-25,-11,-10
4025,81,-43,1021,-31,4,-10
4026,-54,-71,982,-23,20,1
4027,-148,-56,964,-17,21,2
4028,-127,-54,1010,-9,4,-6
4029,-52,-23,985,-2,-13,-6
4030,86,15,1006,-4,-20,-11
4031,136,32,1024,-7,-12,-13
4032,83,31,1000,-15,6,-6
4033,-26,6,998,-24,20,-1
4034,-139,-30,982,-29,20,1
4035,-132,-73,988,-24,6,-2
4036,-72,-77,982,-13,-11,-7
4037,70,-46,1014,-2,-22,-12
4038,132,0,1007,1,-14,-12
4039,94,37,1002,-4,5,-6
4040,-5,46,1010,-16,18,-3
4041,-121,18,993,-28,23,2
4042,-139,-43,985,-30,9,-2
4043,-92,-80,984,-24,-10,-7
4044,51,-72,999,-11,-24,-12
4045,121,-46,1006,-3,-17,-13
4046,109,4,1013,-1,1,-7
4047,21,49,1003,-7,18,-2
4048,-101,42,993,-19,25,1
4049,-151,-5,991,-28,13,1
4050,-106,-46,987,-28,-7,-5
4051,26,-77,991,-18,-21,-11
4052,109,-62,1005,-6,-19,-13
4053,124,-20,1011,1,-4,-9
4054,38,25,1001,-4,18,-2
4055,-87,31,1004,-15,27,3
4056,-153,12,984,-22,17,0
4057,-121,-21,992,-25,-3,-5
4058,5,-53,993,-22,-22,-11
4059,98,-63,1005,-12,-22,-13
4060,137,-27,1000,-6,-8,-9
4061,55,5,1007,-7,15,-4
4062,-66,18,1007,-11,26,0
4063,-151,9,979,-21,20,2
4064,-125,-14,988,-22,-1,-4
4065,-25,-49,999,-22,-20,-9
4066,91,-51,1008,-14,-24,-14
4067,141,-26,1002,-9,-10,-11
4068,67,-1,1003,-8,11,-5
4069,-43,12,1002,-12,23,-1
4070,-147,4,981,-19,22,2
4071,-135,-17,998,-22,4,-1
4072,-46,-47,995,-19,-16,-9
4073,80,-44,999,-11,-24,-13
4074,143,-26,1008,-8,-14,-11
4075,-120,262,263,59,-31,-18
4076,258,-286,379,68,47,-20
4077,-454,51,-7,-172,28,35
4078,172,-661,656,-14,-12,-31
4079,-211,-20,1357,103,-7,3
4080,-77,53,1095,-19,-37,3
4081,529,199,635,71,-4,-74
4082,-293,189,1329,-22,39,57
4083,234,335,956,-61,-30,-13
4084,-110,-285,990,-58,61,-29
4085,-243,-158,872,-66,-3,41
4086,-110,-219,1087,-4,-14,-8
4087,146,-250,970,27,-17,-64
4088,-27,49,933,31,-11,45
4089,221,253,1122,50,-4,-30
4090,-2,50,1025,-27,34,-16
4091,-113,164,903,-27,21,30
4092,-168,-64,1077,-47,13,-14
4093,-84,-198,962,-43,-16,-23
4094,28,-152,932,-1,-22,8
4095,119,-81,1062,15,-17,-25
4096,106,32,1016,15,2,-10
4097,35,169,980,7,23,3
4098,-129,165,1021,-37,28,2
4099,-107,23,1025,-52,7,-5
4100,-83,-89,957,-58,-5,-4
4101,6,-162,973,-41,-20,-10
4102,104,-155,1001,-7,-21,-16
4103,107,-84,991,9,0,-8
4104,20,46,992,13,19,2
4105,-62,93,1042,1,25,-2
4106,-140,82,970,-22,18,0
4107,-118,34,984,-32,-3,-1
4108,-10,-59,1022,-36,-24,-13
4109,80,-114,991,-26,-24,-14
4110,129,-90,984,-10,-9,-9
4111,58,-41,1014,-2,13,-6
4112,-37,9,1005,1,23,0
4113,-139,47,971,-9,21,3
4114,-133,39,1009,-17,2,-4
4115,-40,-7,1003,-24,-18,-10
4116,75,-48,997,-25,-25,-12
4117,133,-48,1003,-17,-15,-11
4118,80,-48,1008,-11,7,-7
4119,-23,-24,992,-10,22,0
4120,-140,2,984,-12,24,4
4121,-135,4,1007,-15,6,-3
4122,-67,-16,987,-16,-13,-8
4123,66,-17,1005,-14,-24,-12
4124,133,-19,1013,-14,-16,-13
4125,92,-17,1000,-16,6,-7
4126,-9,-13,998,-17,20,0
4127,-129,-11,987,-19,23,1
4128,-142,-31,987,-18,8,-1
4129,-79,-37,985,-15,-10,-6
4130,55,-27,1017,-10,-22,-11
4131,132,-8,1002,-9,-17,-11
4132,101,3,1002,-9,2,-6
4133,1,15,1003,-15,18,-2
4134,-113,-1,997,-22,23,3
4135,-143,-34,985,-23,10,-2
4136,-100,-56,981,-19,-8,-6
4137,42,-43,1001,-10,-23,-12
4138,118,-28,1013,-5,-19,-12
4139,112,5,1010,-5,-1,-7
4140,25,28,1000,-12,19,-3
4141,-101,18,995,-21,25,1
4142,-147,-23,990,-27,13,0
4143,-107,-48,978,-23,-5,-5
4144,25,-62,1001,-15,-22,-11
4145,107,-47,1008,-7,-20,-13
4146,122,-6,1006,-3,-4,-8
4147,40,27,1004,-8,15,-2
4148,-83,27,1006,-18,25,2
4149,-148,-8,979,-23,17,1
4150,-119,-34,988,-24,-3,-4
4151,39,15,671,-21,-27,-5
4152,164,-1,94,101,11,-10
4153,107,232,496,-165,-27,9
4154,36,-301,525,57,22,-18
4155,189,38,1021,-52,14,-9
4156,-530,-34,1279,-2,48,44
4157,258,91,618,29,-24,-63
4158,-275,-130,1174,-77,3,31
4159,139,229,1018,49,-45,-5
4160,213,-193,1007,-69,14,-38
4161,36,-26,931,-13,9,1
4162,-137,-16,1041,12,17,31
4163,-52,-44,1019,-39,12,-49
4164,-203,-93,933,6,18,27
4165,-20,109,1015,4,-20,-5
4166,120,-78,1068,-31,-20,-33
4167,137,22,947,19,-10,3
4168,29,26,1009,-30,13,4
4169,-39,-49,1043,-15,20,-22
4170,-135,-52,934,-10,17,12
4171,-119,-32,996,-19,1,-3
4172,-32,-68,1027,3,-11,-15
4173,94,-29,990,1,-16,-9
4174,93,43,991,-3,-5,-6
4175,49,95,1040,-6,6,-10
4176,-13,66,1001,-36,15,-3
4177,-115,2,968,-43,20,4
4178,-93,-90,1005,-41,6,-6
4179,-52,-134,979,-32,-10,-9
4180,44,-93,965,-3,-16,-8
4181,91,-29,1027,6,-12,-11
4182,74,28,1011,4,3,-7
4183,5,73,983,-5,17,0
4184,-99,63,1013,-25,21,2
4185,-118,-7,1003,-31,6,-2
4186,-85,-67,967,-33,-8,-5
4187,27,-89,997,-20,-23,-10
4188,97,-81,1015,-6,-17,-13
4189,107,-24,998,2,0,-7
4190,23,37,1000,0,19,-1
4191,-77,54,1015,-11,23,1
4192,-142,15,982,-24,14,0
4193,-110,-17,989,-27,-6,-5
4194,6,-61,1005,-26,-22,-10
4195,94,-75,998,-14,-22,-14
4196,127,-38,995,-4,-6,-7
4197,49,3,1011,-6,15,-4
4198,-59,20,1007,-11,26,1
4199,-150,16,975,-17,20,1
4200,-122,0,991,-22,-2,-4
4201,-17,-40,1006,-21,-20,-11
4202,89,-52,1000,-15,-22,-12
4203,138,-33,1003,-9,-9,-10
4204,68,-13,1003,-9,13,-4
4205,-46,4,1002,-11,24,1
4206,-146,9,981,-18,20,2
4207,-136,-9,995,-21,2,-4
4208,-39,-36,996,-17,-17,-10
4209,77,-40,1003,-13,-23,-12
4210,145,-22,1003,-9,-13,-11
4211,80,-9,1007,-9,8,-5
4212,-31,7,1001,-13,24,1
4213,-136,0,980,-20,23,2
4214,-141,-17,996,-18,5,-1
4215,-66,-41,990,-18,-16,-7
4216,72,-39,1006,-13,-24,-13
4217,136,-19,1004,-7,-15,-11
4218,94,0,1007,-7,5,-6
4219,-9,11,1001,-12,20,-2
4220,-128,5,984,-20,23,2
4221,-142,-26,991,-22,8,-1
4222,-87,-53,988,-19,-10,-8
4223,56,-44,1008,-12,-25,-13
4224,132,-29,1007,-7,-17,-12
4225,104,2,1007,-5,3,-7
4226,9,20,1002,-13,21,-1
4227,-115,15,997,-19,26,2
4228,-148,-24,991,-25,11,-1
4229,-103,-47,975,-22,-9,-7
4230,44,-52,1002,-13,-24,-13
4231,118,-40,1014,-7,-19,-13
4232,117,-1,1008,-4,-1,-8
4233,28,24,1002,-10,17,-2
4234,-98,19,997,-17,25,3
4235,-153,-12,988,-24,15,-1
4236,-113,-39,987,-24,-5,-6
4237,19,-56,999,-16,-22,-12
4238,-189,134,133,52,4,-7
4239,365,12,583,55,19,-6
4240,-160,24,429,-67,39,-4
4241,238,-124,871,-56,12,-15
4242,-329,-24,1217,42,35,31
4243,-134,-9,939,-62,-13,-17
4244,125,-148,862,-6,-5,-24
4245,-121,51,1178,34,-6,20
4246,300,49,976,-51,-35,-24
4247,55,-81,996,21,33,-21
4248,-115,49,959,-22,17,36
4249,-147,8,1036,-27,21,-16
4250,-96,-115,975,-2,7,-21
4251,-107,4,944,-23,-20,25
4252,157,-11,1078,1,-23,-34
4253,135,-74,996,-4,-4,-15
4254,55,69,963,-12,9,14
4255,-58,0,1039,-8,24,-13
4256,-144,-12,984,-29,21,-2
4257,-135,2,963,-24,5,9
4258,-35,-45,1022,-17,-14,-17
4259,101,-59,1012,-21,-24,-12
4260,145,-11,967,-4,-8,-8
4261,55,-5,1010,-13,13,-8
4262,-28,13,1018,-15,21,-2
4263,-142,4,957,-19,23,3
4264,-141,-24,990,-24,5,-3
4265,-58,-47,1013,-17,-16,-8
4266,78,-47,994,-12,-22,-13
4267,127,-23,999,-8,-14,-10
4268,90,5,1021,-4,4,-9
4269,-6,15,993,-13,20,-4
4270,-127,11,983,-20,23,4
4271,-143,-20,1005,-23,6,-2
4272,-82,-54,976,-22,-12,-8
4273,51,-46,996,-11,-24,-12
4274,121,-30,1016,-8,-16,-14
4275,109,-8,1011,-7,3,-9
4276,13,23,992,-10,21,-2
4277,-107,14,996,-16,24,2
4278,-147,-15,995,-23,9,-1
4279,-106,-45,977,-22,-9,-6
4280,31,-49,1003,-16,-23,-12
4281,114,-46,1014,-10,-18,-13
4282,125,-14,1001,-7,-1,-8
4283,35,17,1004,-10,18,-1
4284,-89,13,1007,-16,26,2
4285,-153,-10,975,-21,16,-1
4286,-116,-26,989,-21,-3,-5
4287,3,-49,1004,-17,-22,-10
4288,104,-52,1004,-11,-21,-13
4289,138,-15,1001,-4,-6,-8
4290,53,12,1009,-7,15,-4
4291,-64,13,1005,-14,25,0
4292,-153,3,976,-21,17,2
4293,-127,-20,992,-25,-1,-3
4294,-18,-53,1004,-19,-18,-11
4295,92,-51,1001,-12,-21,-14
4296,139,-20,1003,-6,-11,-12
4297,67,7,1010,-6,12,-5
4298,-50,19,1001,-12,25,0
4299,-144,11,979,-20,21,0
4300,-136,-21,1000,-23,3,-3
4301,-46,-47,995,-21,-16,-9
4302,80,-54,996,-12,-23,-12
4303,140,-27,1008,-6,-15,-11
4304,85,-6,1013,-8,10,-4
4305,-26,17,998,-11,23,-1
4306,-134,12,981,-18,22,1
4307,-142,-18,998,-22,5,-2
4308,-71,-47,988,-23,-14,-8
4309,69,-50,1007,-13,-24,-13
4310,135,-33,1006,-8,-16,-12
4311,-68,248,-145,-180,-201,22
4312,173,128,409,-165,-37,4
4313,-291,-85,319,-74,35,-2
4314,211,-113,877,-22,-14,-17
4315,-414,-112,1272,-15,14,32
4316,190,-15,776,-13,-34,-46
4317,131,-151,977,-5,3,-8
4318,-73,216,1140,28,-9,20
4319,185,26,965,-43,4,-26
4320,-137,-51,1004,-16,38,-6
4321,-198,-22,969,-31,-1,38
4322,-44,-90,1033,-20,-9,-40
4323,39,-167,968,-1,-17,-9
4324,57,70,968,14,-15,12
4325,163,15,1091,-1,-1,-32
4326,11,19,970,-2,18,1
4327,-102,79,980,-19,23,15
4328,-139,-67,1032,-25,13,-20
4329,-90,-89,968,-16,-5,-1
4330,23,-72,977,-5,-17,-5
4331,87,-60,1039,9,-15,-19
4332,148,52,983,8,-6,-5
4333,49,116,1018,-8,24,-3
4334,-82,85,1037,-34,30,-1
4335,-128,-8,982,-47,21,1
4336,-136,-97,954,-45,8,-3
4337,-40,-123,1009,-27,-16,-8
4338,107,-100,999,-7,-19,-18
4339,114,-30,958,4,-4,-9
4340,66,60,1021,7,13,-2
4341,-42,63,1030,-12,26,-3
4342,-141,42,949,-26,21,2
4343,-132,-9,1011,-32,0,-1
4344,-48,-80,1004,-28,-20,-13
4345,78,-96,977,-16,-25,-12
4346,139,-52,1005,-3,-13,-9
4347,78,-8,1017,-3,10,-5
4348,-15,30,999,-8,24,-2
4349,-141,44,982,-17,25,4
4350,-144,11,1002,-23,4,-1
4351,-69,-43,989,-25,-14,-8
4352,64,-62,999,-18,-24,-12
4353,137,-52,1004,-11,-17,-12
4354,104,-29,1006,-6,5,-8
4355,-1,4,996,-8,21,-1
4356,-121,26,991,-14,25,3
4357,-149,0,994,-19,10,-1
4358,-96,-28,984,-21,-10,-5
4359,48,-39,1006,-16,-25,-11
4360,127,-43,1012,-11,-19,-13
4361,113,-22,1001,-9,0,-8
4362,18,0,999,-11,20,-3
4363,-109,9,997,-17,26,2
4364,-147,-11,986,-20,13,0
4365,-106,-30,984,-19,-7,-5
4366,31,-33,1003,-13,-23,-10
4367,114,-35,1010,-10,-20,-13
4368,120,-8,1009,-8,-2,-8
4369,34,12,998,-11,16,-2
4370,-92,5,1000,-18,25,1
4371,-151,-19,979,-21,15,1
4372,-115,-29,987,-18,-3,-4
4373,14,-44,1002,-15,-22,-11
4374,101,-40,1005,-9,-22,-12
4375,131,-3,1004,-5,-7,-8
4376,46,13,1009,-12,16,-4
4377,-70,12,1010,-17,25,1
4378,-152,-7,971,-24,17,1
4379,-120,-34,987,-23,-2,-5
4380,-13,-56,1003,-17,-20,-10
4381,93,-48,1005,-10,-22,-13
4382,139,-10,1003,-5,-9,-11
4383,60,15,1011,-7,14,-4
4384,-144,-10,-86,303,145,-29
4385,20,64,376,1,43,-11
4386,-301,-110,361,-108,-8,-6
4387,286,-175,881,37,-31,-29
4388,-167,-119,1262,-74,-2,23
4389,227,29,830,51,-18,-40
4390,82,-84,964,-19,17,-2
4391,-205,209,1135,-10,10,24
4392,23,-14,954,-9,12,-19
4393,-134,-114,993,-51,12,-10
4394,-85,-72,963,-4,-24,26
4395,106,-67,1051,9,-21,-44
4396,125,-94,980,-13,-7,-7
4397,0,130,974,33,11,18
4398,35,39,1071,-28,14,-24
4399,-125,-9,963,-20,20,7
4400,-104,5,978,-16,7,10
4401,-57,-119,1029,-31,-8,-24
4402,62,-101,988,7,-18,-7
4403,101,-43,978,8,-10,-5
4404,75,39,1035,8,9,-12
4405,34,106,1009,-1,24,-3
4406,-106,128,995,-34,33,6
4407,-133,-7,1013,-50,14,-2
4408,-86,-88,981,-44,-4,-8
4409,20,-143,980,-32,-17,-10
4410,96,-97,1004,-5,-12,-14
4411,110,-37,987,1,3,-10
4412,18,45,982,3,19,0
4413,-96,77,1017,-9,26,4
4414,-136,32,995,-27,13,-4
4415,-103,-19,971,-31,-5,-4
4416,9,-61,1009,-27,-24,-11
4417,96,-88,1005,-16,-21,-15
4418,126,-54,988,-2,-4,-7
4419,41,2,1008,-4,17,-1
4420,-70,25,1015,-8,26,0
4421,-144,22,975,-18,19,0
4422,-129,9,988,-24,0,-2
4423,-11,-38,1004,-22,-21,-12
4424,90,-61,1009,-17,-21,-13
4425,137,-37,990,-11,-9,-9
4426,64,-17,1012,-8,14,-5
4427,-48,1,1003,-10,24,1
4428,-143,7,974,-15,20,4
4429,-134,-2,1000,-18,2,-4
4430,-40,-32,996,-18,-18,-9
4431,84,-35,998,-15,-23,-11
4432,137,-25,1007,-11,-14,-10
4433,83,-10,1006,-11,8,-7
4434,-29,-6,998,-16,24,0
4435,-140,3,977,-18,24,3
4436,-139,-18,1004,-22,5,-2
4437,-60,-37,985,-17,-15,-8
4438,68,-36,1009,-11,-23,-12
4439,139,-16,1004,-8,-15,-12
4440,90,-4,1009,-10,7,-6
4441,-10,10,996,-13,21,0
4442,-133,1,986,-20,24,2
4443,-138,-27,993,-21,6,-2
4444,-88,-48,989,-19,-12,-8
4445,57,-40,1003,-12,-22,-12
4446,129,-24,1010,-8,-16,-11
4447,106,0,1004,-6,2,-6
4448,4,20,1001,-11,20,-2
4449,-113,14,997,-20,25,3
4450,-148,-22,988,-25,11,0
4451,-98,-49,980,-21,-10,-7
4452,40,-54,1002,-12,-24,-12
4453,118,-39,1010,-6,-18,-13
4454,116,-7,1010,-6,-1,-9
4455,27,26,999,-9,17,-3
4456,-100,18,995,-18,25,3
4457,-151,-12,988,-24,14,1
4458,-110,-41,984,-23,-5,-5
4459,48,28,786,-23,-32,-10
4460,197,92,35,-37,-128,-51
4461,155,97,578,-194,-14,2
4462,-229,-274,470,-138,25,19
4463,181,-459,694,-108,-18,-19
4464,-434,-520,1191,62,34,50
4465,338,-68,979,72,-36,-67
4466,-102,-215,891,62,28,-13
4467,39,580,1066,136,-10,3
4468,91,348,1206,-35,8,-4
