sequence,AccelerometerX,AccelerometerY,AccelerometerZ,GyroscopeX,GyroscopeY,GyroscopeZ
0,-335,121,952,-26,61,9
1,-452,40,896,-48,0,4
2,-170,-69,997,-42,-63,-6
3,290,-160,1045,-23,-76,-5
4,302,-1050,-582,388,-3,6
5,-250,-400,477,3932,-26,-76
6,-103,1797,1902,1956,-122,49
7,-471,-132,262,-2338,-30,139
8,41,-1051,-492,-1125,-34,-145
9,405,119,991,810,-127,-101
10,616,1044,1560,504,-76,90
11,274,583,1086,-136,80,98
12,-88,266,711,-190,98,0
13,-27,448,713,-52,61,-88
14,-98,481,1340,-102,62,-82
15,-329,-383,1258,-453,69,-12
16,185,-635,743,-242,-24,57
17,19,-519,1043,-44,42,35
18,-75,-650,872,-122,21,4
19,-169,-396,876,75,20,23
20,-450,33,1052,154,-5,-22
21,23,137,937,52,-71,-35
22,271,254,1077,84,-72,33
23,294,420,1062,43,-24,30
24,327,468,1144,-57,17,-4
25,38,298,975,-220,84,-30
26,-262,93,1025,-308,69,14
27,-366,-119,962,-376,17,35
28,-168,-387,995,-411,-24,-12
29,218,-479,913,-325,-42,-6
30,383,-259,967,-153,-11,34
31,114,41,1003,-57,48,20
32,-254,188,1009,-98,60,-2
33,-412,207,926,-160,9,7
34,-227,151,939,-194,-53,5
35,199,-13,1038,-222,-76,-4
36,454,-142,1036,-197,-33,2
37,301,-101,996,-109,31,3
38,-114,0,957,-59,61,7
39,-419,9,879,-75,34,17
40,-448,-80,880,-71,-26,1
41,-79,-189,1009,-41,-87,-22
42,417,-178,1063,29,-87,-8
43,487,-30,1048,68,-16,17
44,241,146,981,56,47,27
45,-155,298,1013,22,74,5
46,-493,149,965,-100,46,-15
47,-353,-30,866,-89,-36,2
48,44,-97,1074,-47,-81,4
49,424,-240,1020,-60,-56,1
50,422,-183,996,14,11,11
51,27,0,1009,50,66,9
52,-327,75,946,10,58,9
53,-469,51,863,-12,2,8
54,-212,16,1016,1,-66,-7
55,290,-61,1081,-10,-87,-8
56,450,-39,1052,18,-27,4
57,295,71,997,19,33,10
58,-73,121,985,-21,70,12
59,-446,41,914,-67,49,9
60,-375,-75,914,-54,-25,-1
61,-9,-149,1027,-22,-74,-8
62,377,-172,1035,12,-61,1
63,406,-63,1022,45,0,13
64,69,91,1011,46,56,6
65,-280,125,958,-12,55,4
66,-430,74,885,-30,4,6
67,-186,-2,1001,-30,-59,-2
68,264,-124,1062,-34,-75,-4
69,422,-109,1033,10,-22,3
70,262,16,1016,26,36,7
71,-123,68,973,-12,68,12
72,-443,33,881,-33,37,11
73,-366,-33,941,-28,-32,-4
74,30,-123,1035,-16,-79,-9
75,402,-123,1042,26,-60,1
76,404,4,1043,47,5,9
77,91,112,998,22,59,7
78,-292,115,944,-29,62,6
79,-456,59,905,-38,6,4
80,-195,-59,990,-47,-59,-3
81,246,-172,1045,-27,-75,-5
82,439,-129,1033,24,-27,5
83,273,10,1018,36,36,10
84,-124,82,974,6,68,9
85,-438,75,893,-20,37,10
86,-374,15,938,-26,-31,-1
87,32,-97,1034,-29,-81,-9
88,403,-117,1054,14,-60,-1
89,415,-13,1037,29,4,10
90,99,72,996,13,60,8
91,-293,86,939,-25,66,9
92,-469,35,895,-36,8,5
93,-217,-80,989,-39,-59,-6
94,244,-161,1039,-9,-79,-6
95,445,-96,1046,33,-30,7
96,287,26,1014,33,33,7
97,-113,-172,465,5,53,-1
98,-1155,-1424,-779,2851,12,-77
99,-353,1670,1771,5375,-294,-79
100,-128,654,1000,-1853,-189,199
101,393,-1421,-641,-2603,-124,23
102,838,-1062,247,248,-54,-170
103,432,625,1224,1115,-48,-1
104,48,752,1264,363,11,60
105,-361,286,676,3,60,-24
106,-401,57,648,116,-1,-63
107,76,633,1119,389,-104,-12
108,86,577,1265,136,-48,10
109,177,283,959,-126,-16,12
110,241,208,824,-89,-11,23
111,53,292,866,-135,61,12
112,-141,416,954,-227,61,2
113,42,302,1193,-327,11,7
114,287,307,1051,-353,33,5
115,298,287,1086,-420,81,1
116,337,-186,1211,-599,148,0
117,-400,-675,1089,-601,185,38
118,-559,-821,842,-495,61,44
119,-483,-913,816,-427,7,26
120,-64,-694,799,-213,-61,5
121,406,-364,1009,-18,-62,-1
122,165,197,1072,131,10,-19
123,-145,545,1136,88,4,-26
124,-169,456,941,-135,-35,-8
125,-145,453,883,-219,-24,13
126,135,353,1124,-341,-44,40
127,462,113,1173,-422,-15,27
128,416,47,964,-404,55,8
129,83,-76,1019,-426,116,10
130,-422,-338,934,-469,100,42
131,-584,-485,654,-304,26,28
132,-416,-508,848,-60,-54,-29
133,223,-455,944,129,-103,-16
134,481,-50,1151,223,-59,28
135,254,184,1061,125,17,-4
136,-65,340,1008,107,30,-39
137,-254,341,913,16,14,-35
138,-227,286,888,-40,-14,2
139,65,211,1141,-91,-41,36
140,297,-2,1098,-148,-24,27
141,351,-119,1004,-96,21,-6
142,52,-209,964,-103,71,12
143,-325,-252,866,-63,63,41
144,-475,-249,861,-12,5,11
145,-276,-272,959,39,-57,-27
146,206,-156,1046,109,-92,-10
147,407,79,1092,138,-48,10
148,230,226,1058,82,7,-2
149,-6,287,929,31,33,-21
150,-233,303,962,-29,39,-21
151,-238,154,984,-117,0,10
152,27,-64,1042,-122,-41,23
153,258,-165,1050,-63,-25,-3
154,245,-232,1006,-61,15,-2
155,22,-216,897,-16,48,29
156,-322,-64,928,39,43,22
157,-413,-72,921,10,-9,-14
158,-136,-107,960,40,-70,-12
159,264,33,1095,100,-83,3
160,420,77,1106,42,-31,8
161,238,156,932,28,27,14
162,-32,306,1024,15,57,-11
163,-320,131,980,-126,52,-13
164,-323,-100,864,-119,-11,16
165,-27,-156,1063,-39,-56,4
166,289,-271,1022,-47,-46,-11
167,346,-232,960,20,3,11
168,41,-4,1003,80,49,18
169,-293,99,964,28,47,3
170,-412,59,888,-3,-5,-3
171,-166,60,999,23,-65,-2
172,283,12,1107,-4,-81,-2
173,438,-44,1025,-12,-20,6
174,273,74,1012,18,40,11
175,-87,115,1008,-33,69,8
176,-429,-4,878,-82,47,9
177,-404,-93,912,-44,-23,2
178,-22,-190,1032,-23,-76,-11
179,374,-204,1026,26,-64,0
180,406,-38,1030,71,-3,11
181,112,127,1013,54,50,8
182,-255,168,960,-3,59,5
183,-444,116,906,-36,10,3
184,-206,12,996,-44,-56,-2
185,230,-124,1060,-46,-75,-3
186,431,-139,1022,-3,-26,4
187,293,-31,1020,20,34,10
188,-99,33,968,-5,70,12
189,-437,28,893,-24,42,11
190,-397,-20,927,-15,-29,-1
191,-8,-101,1035,-8,-79,-9
192,388,-106,1055,27,-66,-4
193,422,9,1043,44,-2,7
194,-176,-1299,-1061,814,2,-55
195,-541,779,1223,6496,-81,-132
196,-316,1201,1061,-100,-235,140
197,-142,-1126,-26,-2942,-75,122
198,508,-1257,-152,-569,-43,-122
199,614,162,975,1028,-130,14
200,573,1031,1132,723,-18,96
201,-143,411,753,-136,111,-57
202,-424,-25,703,81,53,-126
203,-158,335,702,213,-20,-74
204,-261,696,1392,332,-38,10
205,-2,442,950,-182,-51,42
206,379,214,1041,-116,-34,68
207,357,363,899,-126,30,34
208,26,369,904,-268,77,-13
209,-57,302,1043,-365,78,-49
210,-2,198,992,-421,53,-28
211,258,-56,1399,-396,73,28
212,-78,-574,1164,-533,93,50
213,-63,-860,854,-445,65,15
214,-448,-785,849,-327,69,28
215,-380,-498,697,-172,-8,39
216,-194,-366,989,-134,-65,-7
217,121,-128,1001,26,-73,-51
218,436,331,1120,155,-61,-5
219,236,565,1113,61,-12,24
220,115,609,976,-90,25,9
221,-150,549,937,-279,60,-11
222,-335,252,1185,-440,32,-15
223,-48,-149,1021,-574,-39,21
224,189,-320,970,-536,-20,17
225,263,-525,980,-496,8,12
226,150,-437,846,-326,39,35
227,-263,-146,909,-114,56,19
228,-428,-24,876,-78,11,-4
229,-299,0,885,-75,-59,4
230,75,24,1042,-13,-94,-14
231,449,10,1071,14,-70,-17
232,374,47,983,58,5,4
233,124,225,1032,99,43,17
234,-194,251,1018,-61,59,11
235,-448,-53,859,-155,27,-1
236,-236,-159,970,-45,-45,-8
237,168,-172,1086,-12,-74,-5
238,403,-211,964,-11,-31,11
239,290,-52,990,63,29,14
240,-116,121,1028,46,61,7
241,-413,102,922,-20,35,0
242,-349,67,908,-8,-33,2
243,18,17,1046,-13,-78,1
244,403,-98,1072,-37,-58,0
245,397,-57,1014,9,10,2
246,113,82,1021,19,56,7
247,-254,61,932,-50,65,16
248,-486,-14,867,-50,17,10
249,-263,-111,993,-33,-54,-11
250,194,-189,1054,-4,-83,-10
251,442,-105,1026,52,-39,9
252,330,55,1008,56,25,14
253,-42,149,995,14,66,6
254,-403,117,931,-38,48,3
255,-388,46,929,-38,-23,2
256,-30,-74,1028,-47,-71,-1
257,363,-169,1033,-25,-60,0
258,413,-93,1027,22,1,8
259,119,25,1010,23,55,8
260,-253,62,933,-12,63,9
261,-464,40,892,-21,11,8
262,-253,-42,985,-24,-55,-6
263,195,-129,1058,-8,-82,-11
264,436,-71,1049,38,-37,3
265,327,53,1012,29,28,10
266,-40,122,981,-2,67,7
267,-411,91,928,-40,49,7
268,-408,-2,921,-47,-20,1
269,-50,-124,1023,-40,-72,-7
270,362,-167,1033,3,-65,-1
271,424,-65,1035,35,-4,10
272,132,49,1001,31,53,7
273,-245,105,951,-3,62,7
274,-459,79,902,-23,13,8
275,-245,-24,976,-38,-55,-2
276,191,-122,1055,-16,-79,-8
277,441,-95,1046,20,-36,3
278,323,9,1010,21,29,10
279,-50,83,976,1,67,10
280,-416,72,917,-32,48,9
281,-406,-18,924,-40,-22,-2
282,-48,-124,1012,-24,-74,-8
283,366,-132,1055,18,-66,-2
284,431,-44,1031,30,-5,9
285,140,73,998,29,54,7
286,-241,121,958,-11,64,5
287,-463,63,904,-40,15,7
288,-476,-1124,-753,386,-52,-21
289,-310,-333,642,4997,-194,-132
290,477,1806,1941,2507,-255,59
291,-14,-160,560,-2575,-77,219
292,437,-1320,-433,-1477,16,-94
293,-13,-522,532,686,-1,-109
294,-2,961,1259,879,-100,10
295,59,668,1292,210,-51,12
296,-67,65,718,-53,5,-12
297,224,272,771,297,-35,11
298,77,715,1329,351,-24,12
299,-168,421,904,-112,31,-65
300,-69,117,848,-180,-17,-32
301,131,306,855,-80,-1,34
302,72,541,1138,-149,27,81
303,199,492,1154,-339,24,44
304,310,289,1007,-438,53,-28
305,161,311,895,-437,103,-63
306,-31,309,867,-589,133,-43
307,-128,-360,1677,-714,144,-1
308,-327,-920,836,-725,63,50
309,-32,-904,869,-544,31,42
310,-174,-913,885,-435,41,17
311,74,-560,649,-176,-1,49
312,-354,-144,1030,-68,10,21
313,-263,5,1028,-34,-32,-58
314,65,348,936,38,-82,-2
315,159,511,1129,-15,-69,32
316,472,454,1110,-158,-43,31
317,273,459,1013,-241,50,-5
318,-5,275,1099,-370,88,-31
319,-277,-138,956,-502,57,26
320,-397,-358,732,-364,15,35
321,-210,-606,938,-214,-37,-30
322,184,-780,749,16,-68,-22
323,327,-210,1158,300,-38,25
324,93,26,1014,110,20,11
325,-144,172,941,130,28,-13
326,-352,409,970,124,-8,-7
327,-169,365,1082,7,-71,-1
328,224,101,991,-82,-77,6
329,414,126,1067,-9,-26,23
330,385,109,1047,-98,35,16
331,62,-36,974,-132,90,-4
332,-417,-170,925,-114,80,8
333,-460,-248,855,-57,1,18
334,-219,-313,989,-19,-58,-7
335,244,-292,966,70,-78,-11
336,400,-26,1085,138,-29,10
337,131,182,1025,93,29,5
338,-126,276,969,37,35,-8
339,-303,243,927,-24,12,-6
340,-174,119,1014,-68,-33,6
341,178,-57,1067,-87,-55,9
342,344,-125,1035,-44,-14,3
343,229,-117,990,-38,35,7
344,-105,-109,926,-29,59,22
345,-423,-72,900,0,35,12
346,-368,-123,918,2,-33,-13
347,0,-137,1014,49,-80,-10
348,380,-22,1084,80,-68,3
349,394,87,1058,60,-4,8
350,119,200,967,27,46,3
351,-180,249,989,-18,58,-7
352,-408,78,934,-109,21,1
353,-205,-90,942,-79,-43,9
354,159,-186,1084,-43,-63,-4
355,381,-241,992,-20,-25,1
356,267,-107,982,45,30,14
357,-121,45,985,40,62,12
358,-411,62,923,4,33,5
359,-370,20,910,-3,-32,-3
360,13,9,1065,20,-80,-6
361,410,-46,1069,-5,-65,1
362,407,5,1013,21,6,9
363,126,135,1019,14,57,7
364,-243,87,958,-61,66,6
365,-474,-16,870,-65,18,7
366,-254,-113,979,-39,-52,-4
367,187,-213,1047,-16,-79,-8
368,427,-154,1017,44,-36,5
369,307,27,1019,67,26,11
370,-65,134,994,24,62,6
371,-403,124,913,-22,44,6
372,-377,67,936,-29,-24,1
373,-5,-52,1045,-41,-74,-6
374,378,-141,1035,-20,-59,-1
375,410,-60,1032,20,3,7
376,117,29,999,7,56,8
377,-270,41,927,-25,65,10
378,-477,10,893,-22,13,5
379,-403,-967,-463,244,-57,-13
380,-471,-986,120,3889,-172,-104
381,492,1797,1930,3208,-276,10
382,-101,168,720,-2253,-105,230
383,452,-1171,-456,-1722,-27,-52
384,102,-627,437,501,4,-138
385,56,771,1132,836,-84,-9
386,224,767,1417,276,-61,47
387,-36,238,856,-43,27,-3
388,110,201,715,137,7,-30
389,112,639,1178,308,-27,-16
390,-200,466,918,-92,46,-65
391,-200,233,904,-209,13,-31
392,84,275,863,-168,-18,43
393,162,490,1091,-165,15,82
394,226,519,1126,-313,35,49
395,320,282,1030,-472,60,-17
396,330,98,1114,-464,118,-58
397,-12,-419,1165,-583,196,8
398,-645,-913,1077,-590,113,77
399,-242,-1045,719,-398,21,38
400,-267,-781,841,-183,8,12
401,160,-511,852,-11,-29,16
402,43,-65,1057,87,-9,13
403,-215,413,1024,182,9,-49
404,-125,507,1078,1,-52,-17
405,49,396,932,-95,-63,18
406,307,441,1076,-168,-38,39
407,393,343,1185,-297,21,15
408,279,110,1115,-428,78,-14
409,-183,-106,941,-480,100,17
410,-476,-253,880,-446,60,42
411,-404,-513,798,-395,-9,14
412,-194,-622,685,-171,-60,-31
413,279,-475,1035,110,-90,-25
414,378,-154,1057,270,-36,22
415,104,244,1067,204,16,1
416,-180,366,1020,89,22,-32
417,-234,276,904,5,-21,-20
418,-118,250,945,4,-40,6
419,213,255,1224,-39,-55,31
420,416,-14,969,-156,-14,26
421,307,24,998,-42,55,-2
422,-121,-90,1071,-143,87,2
423,-420,-322,753,-124,50,29
424,-458,-234,930,27,-14,9
425,-94,-310,967,1,-76,-23
426,364,-226,1038,109,-76,1
427,336,99,1070,157,-12,10
428,85,290,1076,85,26,-8
429,-135,244,889,-16,33,-23
430,-284,242,923,-19,18,-12
431,-157,125,1098,-97,-33,17
432,234,-123,1014,-116,-52,14
433,299,-134,1048,-27,-2,-4
434,182,-153,980,-52,37,8
435,-145,-166,899,-29,57,31
436,-457,-68,905,30,29,8
437,-310,-120,934,0,-43,-18
438,73,-123,1007,54,-84,-3
439,394,39,1110,101,-62,5
440,357,107,1049,40,1,9
441,69,227,946,31,47,5
442,-198,259,1010,-36,55,-15
443,-371,36,912,-124,17,0
444,-160,-108,972,-71,-43,13
445,194,-201,1075,-48,-58,-6
446,364,-244,985,-12,-17,-1
447,210,-107,978,42,34,20
448,-182,48,988,46,58,13
449,-417,55,906,1,23,-1
450,-310,20,927,9,-41,-6
451,95,14,1063,20,-83,-4
452,430,-29,1079,6,-52,2
453,365,38,1018,15,16,10
454,64,144,1015,1,60,8
455,-297,78,948,-68,62,5
456,-458,-39,871,-69,9,7
457,-199,-151,1002,-44,-59,-6
458,256,-231,1030,-10,-76,-8
459,425,-128,1031,57,-27,7
460,249,43,1016,59,34,12
461,-136,141,986,22,64,7
462,-429,134,907,-18,33,5
463,-326,50,942,-38,-35,0
464,76,-68,1039,-37,-78,-6
465,415,-120,1055,-10,-50,1
466,386,-53,1024,9,13,8
467,51,31,995,7,64,7
468,-338,43,925,-26,60,11
469,-463,-13,886,-31,1,3
470,-185,-97,993,-18,-65,-8
471,289,-133,1055,14,-79,-8
472,452,-56,1050,41,-28,6
473,259,78,1009,43,37,8
474,-480,-999,-755,547,113,-1
475,-925,159,1054,6365,-74,-142
476,-57,990,850,589,-329,110
477,0,-1230,-125,-2842,-162,222
478,752,-1060,-181,-508,-27,-136
479,662,223,1337,1148,-90,-44
480,513,934,899,492,-39,87
481,-231,519,751,43,146,-44
482,-564,289,842,123,43,-129
483,-50,306,616,97,-64,-62
484,-7,787,1362,358,-12,38
485,-4,679,1031,-133,-15,34
486,330,321,1081,-231,-22,43
487,339,377,715,-261,69,6
488,-76,460,857,-329,104,-6
489,240,6,1591,-506,107,-18
490,-97,-858,1082,-572,111,22
491,-81,-744,711,-279,56,51
492,-373,-1002,1079,-274,67,30
493,-287,-656,636,-95,-1,46
494,-343,-278,1021,46,-26,-15
495,-84,-117,972,33,-65,-68
496,319,279,1022,159,-83,5
497,282,544,1129,109,-54,38
498,394,653,1048,-19,1,9
499,124,615,1053,-186,68,-23
500,-159,377,1092,-367,86,-19
501,-327,-1,1039,-509,40,33
502,-263,-293,923,-560,-6,21
503,56,-623,973,-540,-34,-8
504,359,-588,886,-389,-12,19
505,216,-290,899,-130,25,32
506,-145,48,1003,-25,59,4
507,-389,217,961,-58,28,5
508,-341,242,934,-135,-31,0
509,46,127,1038,-176,-78,-12
510,436,34,1067,-179,-56,-2
511,433,39,1065,-170,12,7
512,119,35,1024,-187,70,15
513,-314,2,929,-221,73,24
514,-517,-93,884,-230,19,12
515,-303,-262,865,-219,-53,-9
516,145,-307,966,-101,-91,-13
517,477,-171,1042,42,-57,3
518,361,37,999,89,16,8
519,-37,197,1022,89,60,4
520,-406,151,883,59,43,10
521,-426,179,1008,19,-23,-1
522,-70,-58,983,-93,-80,-11
523,402,-172,1030,-16,-72,-4
524,471,-39,1076,39,-10,9
525,214,39,1009,-3,53,13
526,-221,53,949,-24,78,11
527,-526,46,899,-22,33,8
528,-351,-68,947,-48,-47,-4
529,103,-162,1013,-8,-87,-10
530,472,-109,1074,44,-59,4
531,396,2,1016,35,15,15
532,37,129,1000,31,65,5
533,-354,137,962,-23,61,4
534,-448,44,897,-52,-1,7
535,-152,-61,998,-40,-64,-1
536,310,-158,1051,-23,-73,-7
537,439,-107,1027,18,-18,6
538,210,17,1004,30,44,11
539,-178,79,984,-2,63,11
540,-466,38,883,-32,29,7
541,-312,-29,953,-17,-43,-5
542,112,-94,1042,-5,-81,-8
543,434,-90,1051,18,-48,2
544,361,19,1021,32,17,10
545,21,113,1003,8,61,7
546,-372,90,933,-39,55,7
547,-433,2,900,-45,-9,3
548,-120,-98,1003,-33,-67,-6
549,325,-167,1044,-7,-68,-4
550,440,-82,1029,35,-15,7
551,196,58,1021,38,45,9
552,-194,105,963,-8,64,9
553,-465,70,893,-29,26,7
554,-293,-10,968,-33,-46,-3
555,131,-122,1039,-27,-79,-8
556,437,-116,1041,15,-44,2
557,360,7,1023,31,21,10
558,0,82,1001,0,65,9
559,-391,65,918,-30,54,8
560,-439,4,916,-32,-13,2
561,-110,-101,1003,-28,-71,-5
562,342,-155,1038,1,-69,-3
563,444,-52,1042,42,-12,7
564,196,68,1020,26,48,8
565,-200,115,959,-7,65,8
566,-469,73,902,-34,25,8
567,-290,-32,960,-41,-47,-2
568,136,-138,1035,-23,-78,-8
569,438,-120,1043,21,-43,2
570,354,-5,1020,33,21,10
571,-6,83,989,12,64,8
572,-393,88,927,-21,53,9
573,-606,516,972,-125,-31,11
574,-507,-24,322,-1644,-234,34
575,521,64,1271,833,-122,38
576,249,91,314,-18,-65,76
577,346,466,455,286,-35,-64
578,334,523,1254,122,25,-164
579,-35,-134,233,-151,24,4
580,-30,823,984,383,63,48
581,-351,971,1493,-203,20,0
582,147,-123,561,-474,-13,-34
583,401,331,867,44,6,-9
584,151,435,1459,-180,99,-2
585,-275,-930,807,-662,110,31
586,-300,-757,840,35,35,16
587,-304,-533,1043,-74,-19,11
588,85,-800,716,1,-35,8
589,180,27,1158,216,-25,7
590,-75,407,1087,151,-4,-33
591,-131,415,977,23,-19,-38
592,-72,408,895,50,-44,-19
593,112,374,966,-77,-28,34
594,289,126,1209,-150,-5,37
595,409,-134,1035,-135,24,-9
596,100,-182,998,-107,85,10
597,-371,-270,883,-88,83,39
598,-494,-279,825,-40,15,20
599,-412,-277,942,6,-44,-26
600,118,-227,1012,50,-96,-28
601,529,31,1085,81,-68,11
602,446,251,1053,63,18,7
603,78,330,1032,5,72,3
604,-378,306,984,-51,66,10
605,-481,72,896,-105,1,0
606,-151,-210,951,-95,-62,-9
607,274,-370,1017,-54,-72,-8
608,460,-324,1037,4,-18,1
609,234,-90,1011,50,47,13
610,-187,112,945,48,68,22
611,-482,192,924,22,30,13
612,-370,108,939,-10,-45,-13
613,82,-11,1063,-21,-88,-20
614,484,-70,1071,-20,-61,0
615,465,-36,1020,-13,14,12
616,62,17,1010,-13,75,18
617,-364,14,915,-20,68,19
618,-515,-30,889,-19,5,2
619,-233,-154,941,-10,-63,-16
620,259,-189,1055,24,-89,-12
621,479,-94,1045,68,-34,1
622,320,66,1033,80,37,5
623,-99,177,986,49,69,18
624,-436,163,929,4,42,22
625,-392,-17,917,-33,-25,-6
626,-9,-225,984,0,-75,-18
627,388,-387,956,154,-67,-1
628,427,-83,1123,201,-6,15
629,111,-54,943,121,57,16
630,-302,74,901,189,66,15
631,-495,245,980,182,2,4
632,-226,143,1042,35,-69,-9
633,242,-5,1040,-7,-87,-8
634,481,5,1085,27,-37,7
635,345,49,1003,-9,32,14
636,-38,80,989,-23,77,6
637,-416,-8,914,-71,57,8
638,-434,-118,883,-49,-13,6
639,-94,-212,1019,-19,-70,-12
640,342,-206,1030,44,-71,-8
641,413,-40,1037,79,-11,12
642,132,122,992,64,45,10
643,-207,187,977,16,56,3
644,-421,133,915,-36,14,4
645,-207,18,994,-44,-49,-1
646,211,-106,1057,-43,-71,-3
647,408,-128,1032,-8,-25,5
648,276,-52,1004,8,33,9
649,-104,12,972,1,67,11
650,-425,14,896,-17,38,12
651,-377,-42,924,-16,-29,-2
652,5,-107,1025,2,-77,-10
653,387,-83,1071,37,-63,-1
654,400,21,1039,43,1,8
655,112,129,986,26,54,7
656,-707,-1395,-1108,1253,107,-41
657,-818,517,906,7861,-150,-186
658,299,76,479,-1027,-262,170
659,221,-1034,-116,-2013,-192,184
660,771,-648,317,-382,-53,-111
661,628,55,567,970,-25,-8
662,321,759,1119,591,-56,72
663,-342,460,709,152,111,-97
664,-485,102,858,224,42,-99
665,-46,262,462,205,-103,-38
666,-64,597,1357,548,-45,33
667,83,526,1003,65,-22,31
668,286,123,1039,-82,-64,30
669,255,241,764,-24,46,9
670,-106,280,845,-145,81,-2
671,-30,401,1188,-118,14,3
672,177,266,1051,-269,35,-1
673,211,350,1026,-213,62,-1
674,157,384,876,-370,84,-20
675,-17,197,1119,-490,130,-35
676,-198,-456,1399,-557,129,-22
677,-405,-906,766,-479,40,49
678,-170,-1047,888,-322,17,16
679,34,-1020,816,-93,-21,14
680,227,-370,912,170,-13,46
681,-159,37,1111,162,33,-22
682,-262,449,983,180,-4,-40
683,-236,610,1049,71,-55,16
684,35,483,913,-72,-78,24
685,459,399,1061,-114,-60,38
686,506,296,1160,-210,34,16
687,266,69,1156,-300,93,-6
688,-258,-141,933,-390,106,24
689,-623,-281,868,-381,62,35
690,-461,-484,824,-382,-32,-1
691,50,-544,895,-223,-89,-13
692,435,-285,985,21,-69,6
693,446,103,1081,129,1,5
694,44,367,1037,69,58,4
695,-343,416,983,-62,54,11
696,-420,303,956,-164,-7,4
697,-116,96,1029,-244,-64,-7
698,360,-132,1071,-279,-68,1
699,456,-215,1024,-254,-5,12
700,180,-163,993,-200,61,12
701,-265,-64,946,-178,74,19
702,-502,0,879,-180,24,18
703,-331,-39,918,-202,-49,-3
704,125,-81,1011,-167,-90,-8
705,475,-15,1060,-82,-58,2
706,404,114,1050,-54,15,4
707,19,190,1030,-89,67,12
708,-373,157,961,-173,57,18
709,-451,9,922,-251,-1,4
710,-151,-175,970,-281,-66,-9
711,320,-252,1006,-211,-79,0
712,447,-158,1009,-106,-19,11
713,204,16,999,-39,44,8
714,-207,120,977,-54,62,15
715,-468,107,899,-92,24,11
716,-315,-10,919,-116,-47,-6
717,107,-130,1017,-87,-90,-12
718,429,-220,992,-11,-61,-3
719,367,-123,1006,148,5,-2
720,34,148,1117,68,54,9
721,-343,18,839,-63,53,19
722,-435,48,912,28,-5,-3
723,-141,57,1055,7,-73,-16
724,332,-88,1046,-42,-76,-3
725,451,-50,1010,25,-18,7
726,247,123,1058,39,44,9
727,-169,77,970,-66,72,9
728,-479,-4,874,-49,37,6
729,-337,-54,938,-26,-39,0
730,63,-173,1028,-35,-79,-7
731,426,-181,1034,24,-54,-1
732,376,3,1037,70,12,9
733,27,129,1019,28,60,7
734,-336,124,914,-20,53,8
735,-441,90,914,-24,-4,4
736,-136,-33,1022,-48,-68,-6
737,324,-155,1030,-32,-70,-3
738,438,-79,1037,26,-16,8
739,232,20,1021,13,44,11
740,-187,46,955,-17,69,11
741,-485,43,896,-16,32,5
742,-321,-38,948,-30,-44,-4
743,96,-130,1021,-14,-81,-6
744,439,-90,1064,37,-53,0
745,345,155,1017,35,12,9
746,-777,799,939,-1636,-127,49
747,-96,141,578,-95,-115,118
748,-153,-371,-136,147,20,72
749,-92,548,602,870,-151,-51
750,761,896,1132,138,-66,-185
751,794,64,885,-402,-25,7
752,427,-6,77,-81,90,82
753,-382,1230,1483,193,184,-26
754,-527,464,1035,-454,62,-105
755,34,-276,151,-297,-10,-95
756,-99,409,1816,-147,57,22
757,132,-1072,363,-432,-11,61
758,174,-524,1101,-32,23,-1
759,-298,-409,920,0,69,1
760,-162,-515,638,29,-17,57
761,-425,-13,1175,110,-24,-9
762,-32,-33,1008,84,-68,-84
763,356,213,1110,122,-87,6
764,279,434,1008,71,-34,48
765,272,443,959,10,18,16
766,-60,393,1036,-91,70,-35
767,-266,-23,1012,-163,50,-19
768,-92,-183,953,-102,-11,36
769,-10,-319,976,-78,-15,18
770,195,-512,941,-35,-6,-10
771,113,-240,1027,60,20,16
772,-189,-17,949,71,31,10
773,-279,75,909,75,7,-6
774,-213,175,976,71,-41,-2
775,114,97,1059,16,-71,-12
776,424,26,1056,18,-38,-7
777,344,100,1036,40,22,10
778,61,94,1026,-4,64,21
779,-335,-6,912,-34,66,18
780,-485,-135,893,-10,11,-5
781,-194,-265,941,13,-57,-16
782,237,-271,999,83,-76,-6
783,471,-139,1037,140,-31,4
784,286,65,1023,167,38,7
785,-112,223,1008,147,67,8
786,-429,236,955,75,38,10
787,-383,83,920,8,-26,0
788,-8,-187,986,16,-75,-10
789,401,-169,1113,59,-64,-1
790,453,-620,139,128,10,9
791,-493,-987,-489,4084,106,-95
792,-428,1810,1654,5131,-179,-45
793,-502,698,1038,-1953,-115,175
794,-119,-1347,-653,-2329,-78,-59
795,530,-902,310,342,-128,-135
796,709,831,1403,1061,-122,79
797,363,789,1416,334,19,126
798,-62,199,670,-144,79,10
799,-173,66,584,93,53,-102
800,-187,568,1050,258,5,-85
801,-238,484,1084,-1,-3,-32
802,126,264,1069,-138,-29,44
803,363,323,938,-69,2,68
804,163,364,937,-163,72,35
805,178,91,1242,-314,89,-39
806,-101,-525,1206,-395,117,-22
807,-283,-631,795,-315,54,61
808,-193,-724,991,-235,18,36
809,-44,-651,825,-85,-4,6
810,24,-153,961,128,0,10
811,-128,150,1081,103,-4,-14
812,-160,374,967,83,-24,-17
813,-59,334,1006,-41,-58,7
814,192,268,991,-89,-51,19
815,389,255,1114,-134,-14,21
816,374,203,1089,-211,49,-4
817,14,72,1077,-302,92,-1
818,-428,-75,933,-387,80,27
819,-521,-247,898,-416,8,20
820,-220,-415,882,-380,-56,-7
821,299,-378,954,-218,-82,1
822,492,-132,1017,-51,-24,17
823,252,178,1044,8,45,8
824,-164,337,1016,-61,67,5
825,-446,311,961,-178,31,8
826,-338,154,957,-277,-34,0
827,64,-74,1048,-340,-73,-2
828,439,-217,1037,-314,-51,6
829,412,-179,988,-235,18,12
830,45,-74,976,-173,71,15
831,-355,1,903,-155,63,18
832,-522,-13,853,-142,3,3
833,-272,-75,938,-112,-73,-12
834,161,-34,1082,-64,-107,-8
835,475,-47,1054,-65,-64,4
836,357,33,976,-5,10,7
837,73,170,974,0,50,2
838,-275,117,991,-81,59,-1
839,-402,-41,889,-113,6,8
840,-95,-110,1020,-58,-53,1
841,231,-174,1053,-43,-53,-7
842,349,-130,975,5,-11,5
843,120,21,992,34,37,16
844,-224,82,964,0,48,8
845,-376,34,906,-27,5,-1
846,-178,-12,987,-11,-50,-1
847,218,-50,1073,-6,-72,0
848,400,-48,1027,0,-22,6
849,251,62,1017,17,34,7
850,-93,102,986,-27,61,6
851,-405,37,896,-59,39,9
852,-356,-46,928,-48,-26,0
853,2,-82,1020,-38,-72,-8
854,-421,799,1041,-1731,-226,31
855,632,128,606,-262,-147,116
856,186,-223,-232,231,103,67
857,-336,1269,687,709,-69,-38
858,188,703,504,-115,-9,-273
859,433,52,335,-188,-84,-66
860,311,716,780,-17,36,84
861,67,1266,1504,-244,120,36
862,181,3,835,-403,63,-55
863,142,-69,856,-254,119,4
864,-690,-690,1088,-282,91,104
865,-366,-1205,694,-136,-10,13
866,-300,-771,1022,28,-35,-45
867,170,-597,833,100,-66,-27
868,511,-52,1101,156,-59,40
869,-38,527,1046,150,51,-23
870,-150,556,1059,52,15,-53
871,-261,712,964,5,-12,13
872,34,463,1013,-115,-52,21
873,399,-113,1073,-160,-30,-2
874,286,-302,1084,-111,28,0
875,61,-368,985,-69,69,23
876,-234,-216,916,-26,64,51
877,-377,-191,798,-25,25,40
878,-383,-390,780,30,-26,-14
879,0,-112,1249,97,-80,-55
880,408,-9,998,66,-66,-6
881,409,240,1001,81,4,14
882,110,398,1094,29,54,1
883,-252,226,948,-43,57,15
884,-413,105,949,-54,14,3
885,-113,-177,958,-68,-48,-9
886,232,-329,991,-28,-54,4
887,351,-324,1022,20,-10,2
888,186,-271,982,72,39,13
889,-172,-98,917,109,57,36
890,-382,-55,862,128,21,31
891,-328,-31,915,197,-33,-4
892,46,8,1036,257,-78,-32
893,404,72,1096,290,-64,-3
894,329,153,1051,280,3,23
895,62,325,1000,234,39,29
896,-185,365,1047,36,50,6
897,-381,28,973,-147,23,-14
898,-104,-187,898,-77,-44,5
899,194,-144,1123,3,-55,8
900,330,-241,987,-43,-14,1
901,210,-156,933,47,36,15
902,-228,61,1004,73,57,14
903,-482,-875,-529,302,25,-17
904,-956,-582,291,4996,-83,-141
905,209,1871,1936,3532,-329,13
906,80,169,835,-2784,-153,244
907,581,-1379,-722,-2055,-56,-73
908,524,-651,444,647,-11,-180
909,150,791,1320,909,-17,-60
910,-35,682,1296,210,21,0
911,-265,158,764,-112,39,12
912,-93,254,653,114,-4,1
913,152,725,1326,293,-50,18
914,53,481,1016,-125,9,-36
915,38,175,921,-209,20,-42
916,97,231,800,-176,29,-2
917,-35,350,910,-238,63,45
918,39,427,1188,-331,45,54
919,493,-218,1425,-470,59,20
920,194,-334,925,-341,127,38
921,-336,-598,1062,-391,116,54
922,-532,-869,831,-395,64,43
923,-574,-620,632,-175,-6,18
924,-151,-520,1004,-56,-85,-31
925,463,-261,1014,98,-100,-18
926,339,336,1139,265,-23,6
927,145,530,1092,96,-4,-5
928,-53,534,964,-38,22,-26
929,-271,460,902,-157,27,-35
930,-60,404,950,-265,-14,-15
931,241,165,1272,-367,-8,27
932,231,-110,1044,-441,23,37
933,255,-265,1019,-427,49,17
934,-213,-397,974,-417,90,28
935,-368,-354,768,-324,42,37
936,-398,-292,802,-190,-10,15
937,-258,-329,880,-141,-72,-16
938,358,-169,1092,38,-102,-18
939,384,106,1044,129,-34,6
940,162,292,1042,91,14,-17
941,-60,336,996,40,20,-19
942,-299,287,833,-57,24,-8
943,-235,184,1061,-105,-12,8
944,122,-108,1084,-171,-64,15
945,386,-215,977,-80,-26,1
946,260,-175,1055,-43,29,4
947,7,-209,888,-51,61,31
948,-407,-75,916,26,53,23
949,-475,-59,939,14,-9,-19
950,-115,-114,954,20,-81,-12
951,302,24,1084,97,-87,6
952,440,61,1105,38,-33,8
953,220,155,939,36,27,11
954,-66,301,1033,15,56,-14
955,-322,118,943,-121,49,-11
956,-292,-66,901,-102,-11,18
957,9,-124,1066,-49,-55,3
958,297,-245,1043,-54,-38,-12
959,312,-206,930,8,7,13
960,-7,12,1017,62,48,22
961,-876,1227,1384,-964,-39,28
962,-267,-491,3,-1409,-248,54
963,253,110,255,558,-72,75
964,54,757,447,733,-68,41
965,664,677,506,-206,-97,-130
966,794,36,1060,-22,-6,-51
967,248,436,563,54,128,39
968,-369,1070,1216,-30,149,-48
969,-536,477,851,-361,45,-102
970,191,69,861,-257,14,-90
971,131,-19,1324,-285,29,69
972,-62,-802,768,-222,45,64
973,-80,-702,1167,-74,49,-31
974,-409,-663,673,-29,21,15
975,-201,-482,726,83,-40,54
976,-57,-142,1190,104,-56,-30
977,226,120,1072,134,-59,-63
978,305,531,1153,111,-23,4
979,134,642,979,27,7,26
980,32,538,873,-72,32,12
981,-352,194,1124,-151,55,-12
982,-56,-304,943,-150,-28,-6
983,122,-358,991,-69,-21,24
984,197,-487,937,-47,-2,18
985,217,-371,966,36,24,23
986,-277,-80,1006,70,59,9
987,-382,25,908,74,17,-19
988,-235,185,941,65,-50,5
989,69,143,998,28,-75,-6
990,494,40,1133,16,-52,-19
991,377,92,1054,20,21,1
992,108,96,1001,4,64,21
993,-279,36,912,3,69,35
994,-509,-93,871,22,24,12
995,-292,-315,930,14,-46,-26
996,143,-354,981,109,-84,-23
997,469,-190,1033,194,-54,11
998,386,-191,880,251,18,20
999,-32,189,1107,418,67,10
1000,-404,376,1092,176,47,5
1001,-425,185,887,-32,-13,0
1002,-118,106,976,5,-72,-3
1003,368,38,1148,-16,-80,-1
1004,468,-93,1024,-60,-13,11
1005,235,-6,962,7,51,18
1006,-280,-1166,-859,540,104,0
1007,-1140,-284,648,5206,-19,-122
1008,-208,1832,1937,2440,-269,30
1009,-106,-230,661,-2813,-142,149
1010,571,-1399,-572,-1616,-100,-118
1011,867,-297,592,776,-99,-136
1012,378,878,1550,905,31,1
1013,-181,551,1109,74,99,61
1014,-360,169,672,-77,42,25
1015,-231,368,700,107,8,-47
1016,-25,648,1293,147,-49,-30
1017,239,375,1048,-177,-34,-11
1018,231,256,1040,-171,16,22
1019,122,286,825,-230,62,23
1020,94,41,1165,-372,80,11
1021,-107,-477,1236,-398,106,-3
1022,-35,-700,863,-333,30,28
1023,-86,-597,976,-168,45,43
1024,-160,-462,855,-120,23,26
1025,-155,-147,906,5,2,16
1026,-316,44,1040,4,-14,-24
1027,-78,189,963,19,-60,-33
1028,196,187,1079,-16,-83,20
1029,380,248,963,-61,-38,36
1030,351,351,1112,-104,23,10
1031,119,294,1066,-223,79,-35
1032,-206,143,1047,-321,81,-12
1033,-469,-31,927,-409,39,37
1034,-269,-257,965,-454,-29,16
1035,87,-494,922,-430,-55,-14
1036,389,-421,930,-228,-37,8
1037,285,-95,972,-33,17,24
1038,-80,170,1007,8,54,12
1039,-385,234,941,-69,34,4
1040,-367,176,949,-124,-27,0
1041,-21,44,1009,-146,-77,-7
1042,404,-92,1042,-125,-64,0
1043,430,-97,997,-69,0,13
1044,144,-20,999,-25,56,10
1045,-260,34,974,-52,66,8
1046,-502,-33,865,-69,21,10
1047,-294,-100,943,-41,-52,-4
1048,149,-162,1028,-13,-88,-12
1049,466,-103,1060,39,-50,3
1050,366,48,1016,52,17,14
1051,20,185,1005,32,62,5
1052,-358,175,965,-41,58,1
1053,-438,49,902,-74,-3,5
1054,-126,-69,1006,-58,-64,-2
1055,320,-178,1037,-44,-67,-4
1056,440,-145,1020,1,-15,10
1057,196,-19,1010,27,48,11
1058,-203,58,973,5,64,6
1059,-470,42,888,-18,26,6
1060,-481,585,1161,-106,-55,1
1061,-274,32,282,-2286,-291,27
1062,590,732,1336,734,-74,83
1063,243,-200,-201,110,-16,70
1064,209,1149,568,367,-54,-62
1065,330,375,632,-153,33,-187
1066,28,43,261,-90,45,-24
1067,-24,969,1160,-24,55,33
1068,38,761,1606,-325,41,-15
1069,204,-249,731,-293,81,-37
1070,76,-20,1078,-199,62,79
1071,-473,-850,838,-227,63,73
1072,-422,-870,826,-59,24,-28
1073,-343,-596,862,44,-52,-32
1074,221,-488,989,98,-100,5
1075,458,108,1080,152,-40,3
1076,181,477,1123,120,18,-33
1077,-44,616,1050,49,31,-16
1078,-281,685,935,-40,22,12
1079,-194,268,929,-144,-23,14
1080,103,-211,1066,-148,-40,2
1081,316,-424,1043,-101,-20,-3
1082,248,-433,980,-38,21,17
1083,23,-243,930,11,59,46
1084,-350,-111,874,36,51,29
1085,-495,-86,942,51,1,-22
1086,-187,-1,1014,59,-68,-33
1087,291,87,1025,54,-90,-7
1088,552,136,1066,42,-36,7
1089,344,205,1058,15,47,10
1090,-107,155,1026,-23,80,12
1091,-442,51,915,-41,53,18
1092,-403,-126,868,-37,-12,11
1093,-89,-338,948,-7,-66,-11
1094,352,-376,1038,64,-66,-16
1095,470,-492,811,229,-5,4
1096,186,59,1128,460,53,19
1097,-227,180,1002,240,69,26
1098,-513,176,900,189,31,6
1099,-363,269,1000,168,-53,-21
1100,152,100,983,50,-101,-13
1101,262,-1614,-1296,1126,-28,-23
1102,65,655,1453,4566,-87,-88
1103,17,1573,1811,709,-85,87
1104,-316,-356,140,-2238,14,88
1105,-38,-856,-96,-793,1,-161
1106,320,138,783,556,-90,-54
1107,366,852,1566,386,-25,116
1108,145,469,1105,-133,41,39
1109,193,119,777,-122,60,-69
1110,80,213,926,-65,102,-23
1111,-604,-117,1288,-225,97,40
1112,-219,-477,793,-234,-28,7
1113,-31,-424,951,-41,-22,0
1114,184,-407,976,-20,-34,9
1115,371,-181,985,64,-6,28
1116,-226,220,1089,121,53,-7
1117,-254,290,986,-38,9,-25
1118,-144,249,932,-92,-29,27
1119,34,219,1007,-113,-45,14
1120,449,8,1145,-182,-32,-7
1121,308,-59,1047,-183,39,6
1122,5,0,989,-183,74,22
1123,-325,-36,957,-236,62,36
1124,-508,-112,889,-280,15,13
1125,-203,-226,945,-282,-54,-20
1126,254,-229,978,-185,-79,-4
1127,495,-31,1014,-54,-33,16
1128,316,161,1050,-36,39,11
1129,-130,226,1035,-97,78,8
1130,-465,190,960,-178,43,10
1131,-397,46,926,-237,-26,2
1132,-21,-150,972,-269,-76,-2
1133,426,-271,1029,-214,-66,0
1134,439,-192,989,-105,2,7
1135,124,-10,991,-18,60,10
1136,-284,103,946,-20,63,23
1137,-520,69,859,-46,14,12
1138,-351,-62,929,-42,-61,-17
1139,125,-144,1036,28,-107,-23
1140,513,-68,1115,45,-70,3
1141,418,-3,987,24,9,14
1142,104,156,972,45,58,14
1143,-327,225,1026,-17,68,2
1144,-461,27,888,-107,11,0
1145,-175,-76,968,-44,-57,4
1146,248,-133,1083,-31,-69,-3
1147,428,-171,992,-20,-24,4
1148,214,-43,996,35,38,12
1149,-172,63,989,18,59,9
1150,-425,38,898,-22,27,7
1151,-293,-12,939,-13,-37,-1
1152,103,-55,1053,4,-78,-7
1153,416,-60,1058,11,-46,1
1154,340,41,1016,29,15,8
1155,30,121,1002,-3,57,7
1156,-348,86,937,-48,55,7
1157,-415,-14,911,-57,-4,3
1158,-123,-131,991,-40,-62,-6
1159,309,-183,1034,-4,-67,-3
1160,421,-84,1030,41,-16,11
1161,183,55,1024,40,42,9
1162,-202,113,967,0,60,4
1163,-450,96,904,-21,24,6
1164,-279,11,958,-41,-43,0
1165,-56,480,1198,-110,-88,-3
1166,-19,43,159,-2174,-271,36
1167,510,743,1330,723,-14,97
1168,-58,-404,-273,1,38,53
1169,-106,1186,739,509,-39,-87
1170,259,275,731,-378,-19,-185
1171,178,28,608,-87,3,36
1172,281,871,1318,16,54,99
1173,122,463,1205,-300,47,1
1174,122,-304,653,-231,110,-76
1175,-270,-154,1080,-155,84,54
1176,-654,-757,763,-155,16,76
1177,-296,-692,944,-1,-22,-51
1178,14,-450,952,74,-84,-44
1179,540,-209,1026,111,-81,34
1180,326,367,1077,137,28,17
1181,-118,498,1044,51,48,-38
1182,-267,454,995,-12,22,-21
1183,-279,402,933,-72,-10,21
1184,68,-19,1001,-133,-56,18
1185,390,-329,1082,-108,-28,-7
1186,283,-372,1003,-54,31,0
1187,22,-252,966,3,60,30
1188,-318,-65,883,23,58,38
1189,-489,-70,869,30,11,-2
1190,-235,-79,1026,43,-62,-34
1191,235,8,1057,50,-85,-17
1192,528,91,1038,42,-40,7
1193,386,188,1024,34,34,14
1194,-76,189,1033,-2,85,13
1195,-458,56,940,-31,58,7
1196,-417,-92,885,-21,-13,0
1197,-84,-269,935,2,-66,-5
1198,372,-341,1012,70,-68,-5
1199,417,-185,1036,152,-7,-1
1200,140,32,1006,188,51,6
1201,-232,180,961,167,57,25
1202,-463,189,903,124,17,16
1203,-273,-115,889,101,-50,-13
1204,155,-68,1137,182,-87,-11
1205,458,-43,1110,72,-49,7
1206,407,-149,700,52,19,15
1207,-386,-1572,-1136,2106,160,-38
1208,-725,1449,1751,5379,-130,-99
1209,-288,1413,1667,-854,-159,145
1210,-66,-843,-241,-3146,-71,46
1211,721,-1233,-381,-596,-70,-176
1212,917,608,1035,989,-63,14
1213,218,1242,1661,408,116,114
1214,-135,501,969,-364,141,-16
1215,-304,-56,686,-242,123,-80
1216,-591,-179,1255,-138,41,22
1217,-200,-640,929,-261,-61,38
1218,212,-683,844,-56,-48,-10
1219,337,-330,972,125,-16,21
1220,92,-109,1051,49,31,37
1221,-356,114,988,74,45,-32
1222,-274,289,956,40,-23,-25
1223,39,356,1031,-1,-63,32
1224,366,258,1046,-98,-43,14
1225,388,121,1147,-121,18,-11
1226,63,13,1043,-192,68,7
1227,-284,-16,921,-207,62,34
1228,-444,-146,897,-250,16,29
1229,-231,-351,906,-282,-40,-6
1230,171,-392,985,-152,-69,-17
1231,419,-134,1006,5,-38,3
1232,307,192,1048,50,21,15
1233,-85,306,1026,-51,62,14
1234,-434,257,972,-153,40,0
1235,-373,96,978,-216,-28,-10
1236,10,-78,973,-246,-78,-1
1237,441,-181,1029,-214,-62,9
1238,436,-178,1024,-171,8,8
1239,75,-68,991,-106,68,8
1240,-341,44,932,-84,62,16
1241,-503,50,851,-83,6,13
1242,-293,-73,912,-89,-66,-8
1243,181,-172,1038,-30,-101,-22
1244,495,-104,1073,53,-58,-7
1245,385,72,1037,57,15,12
1246,49,196,963,23,63,20
1247,-345,227,980,-32,64,6
1248,-471,42,939,-106,5,-6
1249,-144,-116,969,-74,-64,-4
1250,295,-166,1044,-33,-72,2
1251,448,-172,1007,-15,-20,13
1252,219,-61,994,27,46,12
1253,-209,60,997,25,66,3
1254,-454,64,891,-11,26,7
1255,-311,18,927,-15,-41,5
1256,101,-40,1046,-5,-84,-7
1257,440,-72,1081,3,-52,-4
1258,363,19,1014,24,15,6
1259,56,121,1004,7,60,10
1260,-334,82,936,-57,61,11
1261,-452,-24,903,-60,5,2
1262,-159,-131,996,-41,-61,-8
1263,284,-183,1033,-2,-74,-5
1264,434,-94,1021,39,-24,11
1265,225,54,1017,47,39,13
1266,-173,125,994,3,63,3
1267,-439,94,898,-26,28,3
1268,-296,27,949,-32,-38,2
1269,99,-89,1036,-38,-76,-4
1270,426,-135,1048,-8,-46,1
1271,350,-25,1029,27,16,8
1272,19,62,1004,4,63,9
1273,-353,56,906,-26,55,11
1274,-446,10,913,-28,-3,4
1275,-174,-31,942,-34,-71,-10
1276,-123,-272,327,-377,-139,12
1277,463,-1335,855,617,-117,16
1278,226,1108,1890,1405,-25,54
1279,-99,521,583,-906,-14,27
1280,-7,-184,291,-225,47,-175
1281,4,310,761,274,-49,-42
1282,187,753,928,199,-34,62
1283,159,1014,1534,-5,29,48
1284,-40,248,825,-446,48,-22
1285,295,320,769,-96,24,-47
1286,97,586,1197,-222,69,-33
1287,-337,-543,1457,-692,130,-6
1288,-162,-1213,449,-441,2,52
1289,-90,-545,1154,107,14,8
1290,29,-689,827,-152,-14,8
1291,74,-427,806,85,6,50
1292,-347,187,1172,206,11,-26
1293,-244,324,937,88,-37,-62
1294,26,415,987,47,-80,18
1295,296,467,1043,19,-66,31
1296,502,312,1154,-124,-11,20
1297,221,59,1106,-177,68,-14
1298,-85,-107,927,-171,76,13
1299,-443,-113,921,-125,54,53
1300,-462,-350,840,-197,-8,7
1301,-130,-537,884,-113,-66,-38
1302,302,-365,1050,79,-80,-17
1303,442,-30,1018,151,-30,15
1304,226,258,1054,134,33,8
1305,-188,345,996,42,59,5
1306,-440,271,948,-29,22,1
1307,-251,96,976,-62,-43,-9
1308,166,-105,1005,-75,-76,-3
1309,438,-214,1042,-34,-36,6
1310,334,-214,988,4,27,8
1311,-43,-267,876,102,71,14
1312,-406,28,1020,180,48,21
1313,-443,-53,874,17,-14,6
1314,-154,-145,942,90,-71,-14
1315,305,51,1115,174,-89,-17
1316,425,130,1159,93,-35,0
1317,228,134,921,32,21,8
1318,-37,306,946,64,52,0
1319,-334,250,1035,-78,55,-7
1320,-240,-481,166,-58,14,1
1321,-845,-955,32,2126,3,-58
1322,401,1693,1766,1935,-300,-17
1323,348,-210,-54,-1882,-88,228
1324,295,-592,-387,-1010,21,-9
1325,481,372,1376,706,39,-203
1326,204,564,902,-74,46,7
1327,-203,583,1145,-50,133,64
1328,-144,255,1305,-181,40,-7
1329,59,-47,611,-170,43,-4
1330,-243,-299,1285,-180,31,60
1331,-253,-653,676,-230,4,0
1332,-158,-449,991,33,-19,-12
1333,-70,-327,849,-13,-40,2
1334,379,-176,1051,88,-60,13
1335,238,218,1077,149,12,-10
1336,140,438,1140,80,34,-17
1337,-137,449,974,-32,51,29
1338,-359,382,943,-89,22,17
1339,-189,-68,995,-228,-24,-11
1340,72,-446,928,-192,-43,-2
1341,350,-392,1008,-12,-33,3
1342,340,-246,1018,20,19,21
1343,-12,-32,981,54,69,27
1344,-408,125,941,39,55,8
1345,-479,152,941,15,-11,-11
1346,-147,82,943,-10,-79,-11
1347,340,-6,1050,-13,-89,-4
1348,529,-59,1088,-16,-24,-1
1349,310,4,1057,-2,49,3
1350,-158,90,994,-24,81,17
1351,-472,83,895,-62,46,21
1352,-465,-61,875,-99,-25,0
1353,-104,-217,977,-74,-87,-20
1354,408,-208,1058,15,-91,-10
1355,498,-52,1044,63,-21,7
1356,234,105,1018,53,48,10
1357,-234,193,973,15,70,11
1358,-524,166,920,-38,25,-3
1359,-373,57,926,-65,-51,-10
1360,41,31,1101,-141,-103,0
1361,489,-211,991,-122,-74,10
1362,470,-89,1015,13,4,5
1363,144,29,1036,-1,65,4
1364,-277,-31,910,-67,75,17
1365,-523,-15,856,-10,24,12
1366,-287,-57,1026,-15,-56,-9
1367,192,-154,1027,-14,-86,-11
1368,432,-48,1046,62,-43,4
1369,315,89,1017,40,16,11
1370,-26,146,970,0,60,5
1371,-369,110,949,-45,48,-1
1372,-334,6,940,-55,-17,2
1373,-2,-102,1016,-51,-62,1
1374,324,-159,1038,-15,-48,-1
1375,347,-94,1017,16,1,8
1376,47,22,998,28,52,8
1377,-511,-267,-373,24,58,15
1378,-577,-1240,435,1447,-38,-38
1379,13,1581,1932,1717,-169,25
1380,64,517,679,-1579,-120,105
1381,560,-569,-2,-880,-16,-116
1382,637,168,1016,555,-3,-26
1383,142,782,874,247,49,81
1384,-179,915,1187,84,120,-33
1385,-500,266,830,-394,69,-91
1386,41,279,709,-116,-12,-66
1387,304,490,1641,-115,-4,42
1388,-66,-554,978,-580,69,22
1389,168,-851,773,-248,35,2
1390,-401,-608,933,-55,71,35
1391,-330,-590,698,-105,-18,26
1392,-176,-465,1041,-20,-51,-8
1393,67,-64,998,168,-69,-45
1394,400,488,1162,212,-58,-5
1395,192,654,1076,28,1,25
1396,26,634,914,-75,27,7
1397,-239,412,1098,-221,41,-10
1398,-191,-107,1032,-342,-13,-6
1399,154,-383,898,-291,-36,21
1400,188,-455,1024,-171,-7,19
1401,207,-452,896,-116,16,13
1402,-148,-198,968,25,49,18
1403,-389,8,904,46,23,-1
1404,-298,90,917,30,-42,-3
1405,-23,103,1024,23,-80,-11
1406,420,56,1090,9,-73,-18
1407,430,99,1068,19,-2,1
1408,190,171,1026,2,50,16
1409,-192,113,966,-57,68,25
1410,-483,-124,827,-77,33,12
1411,-329,-441,834,84,-35,-19
1412,50,-270,1128,125,-84,-19
1413,421,-293,976,70,-61,8
1414,359,4,1022,184,11,13
1415,-10,377,1088,166,46,1
1416,-278,378,972,-1,36,-8
1417,-349,241,881,-55,-1,-11
1418,-115,144,1041,-63,-54,11
1419,300,-89,1086,-123,-66,24
1420,406,-205,1007,-62,-7,9
1421,235,-150,994,-18,49,5
1422,-166,-140,932,-31,74,25
1423,-488,-91,869,12,36,20
1424,-409,-89,924,22,-35,-11
1425,16,-115,1022,44,-88,-15
1426,244,-1260,-930,762,14,-13
1427,-46,778,1399,3727,-95,-95
1428,175,1485,1438,166,-138,102
1429,-122,-346,-241,-2250,17,109
1430,-24,-523,40,-502,38,-178
1431,389,399,1161,469,-76,-41
1432,390,867,1344,24,20,141
1433,117,502,1127,-288,104,25
1434,152,-113,907,-285,96,-79
1435,-284,-196,909,-154,108,51
1436,-751,-481,1059,-227,21,70
1437,-312,-789,729,-189,-48,-51
1438,118,-561,925,86,-85,-16
1439,499,-200,1072,134,-69,32
1440,447,151,1116,147,16,-1
1441,-104,512,1034,113,78,-24
1442,-321,568,1018,-26,30,12
1443,-372,415,909,-142,-13,25
1444,-47,76,1064,-219,-61,-12
1445,399,-321,1079,-272,-55,-10
1446,412,-364,976,-173,11,19
1447,159,-207,984,-73,62,32
1448,-274,-83,916,-85,74,38
1449,-559,-41,898,-84,29,9
1450,-384,-84,910,-85,-55,-22
1451,120,-53,1007,-7,-104,-18
1452,533,34,1077,34,-70,4
1453,462,130,1056,6,14,7
1454,41,203,1052,-25,73,3
1455,-353,160,941,-95,64,9
1456,-489,38,878,-123,2,11
1457,-228,-179,931,-134,-64,-6
1458,241,-330,1021,-55,-87,-15
1459,436,-224,1021,62,-36,0
1460,268,45,1034,75,24,11
1461,-75,140,955,24,56,14
1462,-407,194,929,7,37,8
1463,-352,113,978,-46,-30,-10
1464,32,-55,1025,-58,-75,-10
1465,391,-94,1032,-16,-55,7
1466,413,-42,1048,-4,6,17
1467,103,-14,983,-21,62,8
1468,-309,11,933,-23,68,5
1469,-468,-3,899,-22,8,7
1470,-234,-97,953,-32,-58,-1
1471,211,-144,1057,11,-82,-8
1472,447,-67,1063,48,-37,1
1473,291,74,1015,46,27,6
1474,-45,173,978,15,61,5
1475,-385,138,927,-46,46,9
1476,-382,16,938,-62,-18,1
1477,-277,-52,37,-91,-60,8
1478,193,-1460,691,707,-85,-30
1479,452,1253,1797,1778,-104,27
1480,20,622,592,-1182,-36,139
1481,-78,-283,-42,-719,64,-130
1482,27,266,982,497,-17,-89
1483,45,716,711,116,-67,81
1484,169,1120,1477,162,28,26
1485,-12,438,1118,-476,38,7
1486,553,173,692,-231,31,-30
1487,245,374,1498,-185,108,43
1488,-709,-738,932,-685,146,24
1489,-250,-1216,638,-315,-4,9
1490,-425,-633,910,73,-10,20
1491,179,-567,895,-39,-85,5
1492,379,-309,1073,68,-32,14
1493,-106,406,1018,262,24,-41
1494,-54,695,1132,76,-13,-23
1495,-181,579,854,-89,-18,33
1496,7,493,1056,-111,-40,15
1497,309,5,1229,-306,-34,-10
1498,294,-343,944,-280,19,-7
1499,118,-253,936,-123,50,38
1500,-249,-211,945,-123,55,56
1501,-460,-305,808,-131,19,11
1502,-388,-339,918,-48,-40,-36
1503,62,-215,1005,73,-100,-26
1504,492,51,1042,137,-79,8
1505,450,250,1078,96,5,4
1506,89,307,1052,29,62,-2
1507,-319,271,974,-30,60,8
1508,-437,127,929,-69,2,11
1509,-152,-200,918,-104,-57,1
1510,313,-690,829,81,-63,-14
1511,441,-278,1210,304,-5,-6
1512,238,-162,977,111,50,16
1513,-197,54,900,188,77,27
1514,-547,383,961,185,30,7
1515,-418,311,1027,18,-52,-20
1516,18,99,1016,-44,-100,-15
1517,457,45,1136,10,-85,7
1518,526,-9,966,-52,-10,41
1519,274,72,954,-20,68,22
1520,-207,10,1102,-86,101,-17
1521,-504,-207,764,-107,45,10
1522,-289,-631,36,119,-27,8
1523,-641,-788,-10,3440,3,-100
1524,416,1848,1895,3134,-313,-14
1525,296,369,720,-2249,-68,203
1526,123,-844,-571,-1774,49,-77
1527,367,-152,559,514,-3,-200
1528,206,1179,1290,537,-3,42
1529,-101,970,1358,-90,97,98
1530,118,196,965,-398,56,16
1531,176,-56,866,-127,76,-18
1532,-241,-268,1295,-192,66,55
1533,-472,-788,717,-359,36,16
1534,-260,-657,794,-31,-19,-1
1535,-56,-446,886,9,-54,13
1536,361,-343,1099,63,-64,-5
1537,341,121,1052,199,7,-22
1538,103,594,1111,178,39,-4
1539,-147,657,1018,-22,42,37
1540,-403,477,928,-157,18,14
1541,-211,46,1049,-261,-42,-27
1542,206,-334,1005,-275,-59,-3
1543,425,-345,999,-169,-20,28
1544,340,-300,1000,-135,36,29
1545,-120,-136,977,-91,86,26
1546,-498,3,919,-84,51,12
1547,-502,38,879,-92,-31,-1
1548,-96,23,944,-72,-98,-8
1549,419,-17,1087,-58,-94,-12
1550,546,0,1088,-53,-18,-10
1551,275,125,1048,-41,53,4
1552,-178,223,1002,-87,75,25
1553,-500,142,914,-179,37,25
1554,-449,-93,909,-255,-34,-5
1555,-29,-281,985,-224,-90,-24
1556,436,-270,1004,-95,-82,-4
1557,470,-98,987,-3,-10,14
1558,139,63,1010,33,52,10
1559,-310,122,938,8,62,5
1560,-530,119,902,-2,6,-5
1561,-277,75,981,-48,-73,-5
1562,225,-81,1050,-60,-97,-2
1563,522,-86,1058,1,-47,1
1564,405,4,1013,2,28,6
1565,6,81,1000,-11,75,10
1566,-413,55,904,-53,65,15
1567,-490,-27,912,-50,-4,3
1568,-162,-149,1009,-46,-72,-14
1569,327,-176,1031,9,-80,-7
1570,458,-55,1027,48,-21,13
1571,221,79,1004,37,39,12
1572,-163,139,982,2,65,3
1573,-448,92,926,-38,30,3
1574,-274,3,959,-39,-41,2
1575,117,-95,1038,-35,-72,-2
1576,407,-127,1038,-6,-39,2
1577,320,-38,1009,15,21,7
1578,-28,49,989,9,59,8
1579,-370,54,913,-22,45,10
1580,-393,-4,923,-28,-15,3
1581,-79,-99,1008,-21,-67,-8
1582,341,-115,1058,20,-66,-5
1583,346,63,887,25,-11,7
1584,-169,-852,-476,-52,-4,3
1585,-375,-93,1631,1986,-30,-43
1586,-398,1525,1534,575,-110,101
1587,-195,113,135,-1744,-97,-1
1588,373,-483,232,-71,-56,-133
1589,780,457,971,445,-127,92
1590,507,951,1282,318,62,105
1591,-120,803,1227,-146,138,-2
1592,-295,54,583,-385,78,-140
1593,35,444,893,15,18,-113
1594,-97,557,1235,-276,56,-4
1595,-114,-557,1573,-635,50,38
1596,304,-909,385,-279,8,20
1597,-257,-404,1288,1,72,12
1598,-216,-830,610,-299,2,42
1599,-310,-392,914,55,-9,28
1600,-305,-63,1059,77,-48,-77
1601,367,172,1047,89,-102,-32
1602,367,551,1125,112,-42,55
1603,274,723,980,-19,15,29
1604,84,561,1143,-208,61,-15
1605,-390,72,1043,-366,68,-20
1606,-197,-244,829,-328,-14,30
1607,-111,-417,1031,-243,-31,31
1608,241,-619,851,-215,-35,-8
1609,282,-472,981,-8,1,9
1610,-40,-117,956,121,37,16
1611,-235,145,961,126,26,8
1612,-376,198,934,60,-11,2
1613,-106,101,952,34,-66,-20
1614,299,-154,979,85,-73,-20
1615,466,-98,1079,291,-17,2
1616,296,154,1142,144,40,23
1617,-116,30,912,-16,80,24
1618,-530,77,886,31,53,3
1619,-455,91,1010,12,-35,-15
1620,-38,-109,966,-54,-92,-9
1621,433,-126,1037,38,-78,2
1622,510,-21,1073,48,-9,15
1623,193,82,981,16,59,16
1624,-220,154,1026,1,75,-4
1625,-487,50,858,-62,32,6
1626,-344,-38,958,-41,-41,7
1627,103,-174,1041,-38,-83,-11
1628,448,-175,1026,25,-49,-2
1629,357,-18,1023,48,15,15
1630,28,80,996,24,58,11
1631,-351,50,830,-6,51,5
1632,-832,-1458,-958,1479,110,-35
1633,-444,1370,1762,4868,-273,-118
1634,487,1183,1341,-832,-230,168
1635,362,-857,-500,-2803,-24,116
1636,641,-763,-35,-129,36,-206
1637,508,774,1189,817,5,-57
1638,-173,1115,1362,161,140,57
1639,-415,617,763,-326,107,42
1640,-130,50,1076,-265,27,2
1641,196,-87,1169,-92,6,18
1642,-97,-527,1075,-276,26,21
1643,-138,-866,781,-208,28,-16
1644,-112,-408,837,111,-4,53
1645,-267,-226,987,-10,-13,22
1646,88,-333,1000,3,-49,-57
1647,247,172,1026,220,-31,-13
1648,262,669,1196,188,-9,22
1649,149,583,993,-102,37,23
1650,-259,402,993,-165,54,7
1651,-359,35,1040,-287,7,-19
1652,-42,-319,936,-295,-41,0
1653,220,-392,925,-205,-39,30
1654,393,-404,1013,-145,-5,22
1655,103,-228,998,-44,55,7
1656,-302,48,965,8,60,4
1657,-421,211,925,-14,1,14
1658,-271,192,921,-78,-57,7
1659,118,39,1064,-137,-83,-19
1660,489,-54,1108,-121,-53,-15
1661,407,33,1034,-91,16,8
1662,72,127,1017,-107,66,23
1663,-351,83,946,-184,65,26
1664,-569,-77,883,-235,9,0
1665,-295,-246,899,-207,-71,-22
1666,218,-263,967,-75,-106,-8
1667,524,-154,1025,35,-59,13
1668,362,18,1018,74,22,6
1669,-91,256,1075,48,56,-8
1670,-395,204,897,-59,35,3
1671,-395,140,909,-49,-21,10
1672,-43,-11,1040,-86,-77,-2
1673,410,-203,1063,-86,-67,-5
1674,438,-158,1001,-14,0,5
1675,189,-17,1003,22,54,15
1676,-243,24,948,-22,72,22
1677,-542,1,879,-20,29,6
1678,-340,-56,967,-15,-52,-14
1679,127,-94,1034,14,-92,-10
1680,482,-49,1065,35,-59,8
1681,396,40,1006,31,14,17
1682,47,180,1007,24,62,11
1683,-343,158,998,-51,61,-4
1684,-797,161,-48,-430,-30,2
1685,-296,-1501,576,308,-131,-23
1686,405,1007,1745,1818,-174,30
1687,236,589,562,-973,-103,105
1688,387,-175,441,-253,23,-128
1689,360,135,902,305,-16,-18
1690,-69,529,596,257,41,51
1691,-219,1191,1510,253,62,-24
1692,-316,228,904,-491,-5,-55
1693,463,162,647,-40,-34,-43
1694,266,794,1289,-4,26,47
1695,-7,409,907,-500,134,9
1696,-109,-450,1530,-560,87,-3
1697,-267,-854,448,-293,50,14
1698,-251,-690,1219,-138,-3,33
1699,-41,-1055,751,-319,-16,5
1700,241,-460,870,137,-28,21
1701,-164,219,1116,190,16,-16
1702,-111,420,1007,90,-24,-29
1703,-200,608,957,56,-31,14
1704,-6,534,1014,-63,-63,7
1705,424,193,1134,-192,-48,13
1706,381,-66,1064,-205,18,15
1707,218,-207,1017,-161,62,10
1708,-250,-279,912,-139,83,44
1709,-553,-268,831,-76,38,28
1710,-419,-357,856,-46,-40,-12
1711,-55,-355,945,59,-94,-24
1712,445,-110,1095,182,-90,-11
1713,493,124,1050,163,-19,4
1714,179,315,1034,140,47,4
1715,-201,365,987,49,59,2
1716,-459,237,956,-28,26,1
1717,-214,-97,898,-78,-44,1
1718,221,-311,1014,41,-61,-3
1719,415,-217,1116,33,-23,3
1720,305,-238,931,-1,37,16
1721,-149,22,972,122,75,14
1722,-468,204,962,76,38,7
1723,-427,91,915,-23,-30,-2
1724,-72,25,993,12,-89,-12
1725,448,0,1134,16,-85,-4
1726,492,-70,1005,-25,-9,17
1727,243,102,980,42,55,21
1728,-160,149,1059,-34,81,1
1729,-509,-983,-616,185,89,-10
1730,-1129,-211,656,3387,-42,-90
1731,291,1690,1696,1221,-315,36
1732,363,-440,79,-2428,-87,167
1733,619,-866,-324,-871,-1,-115
1734,751,348,1189,818,2,-120
1735,48,1080,1229,189,113,72
1736,-424,655,1115,-247,157,37
1737,-352,-48,943,-292,36,-32
1738,-27,-112,896,-93,5,1
1739,-42,-519,1228,-223,-16,42
1740,112,-706,692,-138,1,-1
1741,-57,-313,999,117,14,21
1742,-261,-174,925,10,9,8
1743,-25,-151,949,44,-37,-16
1744,75,197,1024,168,-35,-17
1745,352,395,1166,105,-32,4
1746,235,404,1022,-26,32,19
1747,-118,346,1037,-82,58,5
1748,-314,31,975,-214,30,2
1749,-276,-246,885,-192,-13,10
1750,22,-378,948,-121,-48,3
1751,361,-408,1002,-59,-42,6
1752,292,-185,1014,46,16,9
1753,-14,95,1024,70,55,9
1754,-343,260,975,25,39,12
1755,-409,244,910,-52,-14,2
1756,-129,80,986,-101,-68,-17
1757,303,-89,1058,-109,-79,-13
1758,490,-93,1057,-69,-25,5
1759,293,-16,1037,-56,43,12
1760,-159,32,975,-80,78,19
1761,-506,30,915,-105,43,12
1762,-455,-61,885,-127,-32,-7
1763,-62,-154,966,-106,-92,-11
1764,434,-151,1054,-29,-89,-2
1765,490,-51,1029,25,-16,5
1766,181,109,1016,44,50,3
1767,-236,195,982,4,62,3
1768,-501,260,946,-96,21,10
1769,-323,-13,897,-168,-50,3
1770,151,-157,1042,-79,-91,-10
1771,490,-176,1065,-33,-53,4
1772,424,-136,1002,-19,19,18
1773,41,-28,954,17,74,17
1774,-408,71,959,7,69,12
1775,-520,6,893,-35,1,0
1776,-208,-53,972,-7,-75,-9
1777,311,-53,1070,24,-92,-5
1778,501,-39,1065,10,-33,9
1779,290,55,981,26,38,9
1780,-89,173,1021,7,71,2
1781,-426,72,918,-78,49,6
1782,-369,-56,885,-64,-21,7
1783,-6,-127,1052,-30,-72,-8
1784,370,-186,1040,-13,-57,-4
1785,245,188,882,-5,-16,4
1786,-435,40,638,-1321,-77,21
1787,-164,-450,697,735,-9,5
1788,-404,967,770,684,-75,57
1789,-107,486,361,-516,-153,-51
1790,672,471,1248,109,-60,-130
1791,739,188,712,-307,-46,99
1792,451,788,832,122,112,101
1793,-243,1192,1614,-200,156,-13
1794,-129,-244,659,-764,118,-125
1795,-308,-518,964,-341,57,44
1796,-499,-645,907,-250,13,74
1797,74,-1093,981,-127,-49,-42
1798,86,-522,814,81,-22,-1
1799,112,-110,971,116,-15,40
1800,-104,145,1022,97,5,-4
1801,-285,444,1027,94,-11,-48
1802,19,387,1027,-1,-59,-13
1803,345,455,1107,-24,-58,25
1804,400,252,1017,-122,10,25
1805,127,-90,1042,-154,68,7
1806,-297,-175,980,-99,64,12
1807,-455,-282,848,-86,17,25
1808,-250,-392,836,-43,-45,10
1809,145,-389,998,23,-75,-12
1810,374,-205,1107,71,-37,-17
1811,307,88,1045,91,18,-5
1812,-1,346,978,74,50,24
1813,-330,364,948,8,45,26
1814,-378,127,966,-49,-9,-12
1815,-67,-115,1027,-50,-63,-23
1816,341,-236,1003,-16,-64,0
1817,455,-244,972,49,-7,21
1818,235,-340,859,141,58,22
1819,-229,-159,1006,309,85,11
1820,-504,-37,945,232,34,7
1821,-375,-69,866,232,-37,6
1822,5,91,1036,262,-88,-14
1823,398,179,1238,191,-78,-16
1824,312,134,1041,46,-15,15
1825,116,306,922,100,24,13
1826,-68,333,991,-20,46,-7
1827,-259,103,926,-146,45,2
1828,-172,-124,1096,-127,-16,10
1829,164,-236,983,-56,-38,-4
1830,282,-594,367,35,20,9
1831,-452,-1239,-489,2702,132,-31
1832,-327,1744,1880,3624,-195,-29
1833,-241,680,829,-1928,-93,143
1834,-114,-966,-484,-2198,-37,-45
1835,622,-579,342,320,-105,-162
1836,756,969,1314,744,-76,77
1837,209,1035,1510,62,110,106
1838,49,298,823,-357,111,-46
1839,-76,133,667,-117,122,-83
1840,-640,-3,1493,-183,88,29
1841,-381,-743,716,-428,-40,30
1842,87,-707,864,-37,-52,-5
1843,265,-408,1018,72,-33,9
1844,369,-280,974,34,-3,38
1845,-223,153,1055,151,63,-8
1846,-348,337,980,43,12,-35
1847,-131,327,939,-16,-49,25
1848,106,286,1007,-56,-53,16
1849,456,95,1168,-100,-29,-14
1850,301,-45,1058,-151,43,3
1851,-56,-33,948,-129,73,24
1852,-354,-83,934,-164,51,35
1853,-476,-217,872,-204,-1,8
1854,-139,-332,946,-153,-61,-23
1855,297,-244,998,-17,-79,-6
1856,454,38,1043,88,-26,13
1857,246,235,1054,41,41,9
1858,-211,265,1003,-45,69,0
1859,-452,194,954,-109,21,-1
1860,-296,51,939,-157,-43,1
1861,125,-135,1019,-178,-78,2
1862,446,-251,1029,-148,-46,5
1863,348,-159,1010,-58,24,2
1864,-20,-3,981,-9,64,8
1865,-363,75,898,-27,49,20
1866,-475,50,876,-32,-10,7
1867,-194,-55,994,-40,-74,-18
1868,284,-43,1123,-11,-91,-14
1869,481,-46,1025,-32,-36,14
1870,323,58,957,20,30,25
1871,-31,237,1012,14,70,17
1872,-423,77,992,-120,58,-5
1873,-393,-119,840,-102,-15,-2
1874,-64,-126,1044,-21,-69,2
1875,334,-216,1032,-37,-63,-3
1876,417,-147,991,30,-4,8
1877,83,55,1014,64,51,7
1878,-245,130,973,11,53,5
1879,-414,92,882,-23,7,8
1880,-213,38,997,-18,-54,-1
1881,226,-79,1081,-33,-77,-7
1882,421,-87,1033,0,-27,2
1883,288,23,1007,15,33,8
1884,-66,62,973,-21,67,13
1885,-430,26,901,-43,45,11
1886,-391,-54,932,-38,-24,-5
1887,-27,-146,1017,-19,-75,-11
1888,191,328,822,-6,-70,9
1889,249,-1055,475,-848,-37,18
1890,130,-562,1393,1202,2,-18
1891,-256,1171,1389,665,-46,63
1892,-330,309,402,-635,-13,-89
1893,173,65,798,162,-52,-123
1894,342,321,709,32,-89,92
1895,360,1012,1396,270,44,84
1896,-45,663,1331,-353,62,17
1897,103,-22,427,-346,53,-116
1898,175,434,1133,-16,44,-76
1899,-363,-166,1424,-513,116,8
1900,-218,-1162,713,-560,3,47
1901,-45,-642,862,51,8,-12
1902,5,-426,1039,-7,-16,9
1903,108,-339,733,-12,-7,66
1904,-339,192,1149,183,15,-23
1905,-256,318,996,55,-42,-74
1906,117,325,1005,-3,-87,23
1907,337,378,1012,4,-54,51
1908,451,305,1135,-123,9,35
1909,115,-5,1132,-216,74,-18
1910,-193,-166,847,-173,67,0
1911,-481,-113,910,-91,28,53
1912,-346,-358,857,-174,-40,13
1913,40,-515,935,-67,-76,-32
1914,345,-288,1076,119,-60,-18
1915,409,60,1012,159,-11,15
1916,87,341,1028,129,44,24
1917,-292,340,964,2,52,7
1918,-436,156,963,-57,0,-17
1919,-152,-21,993,-49,-65,-14
1920,297,-160,1018,-34,-78,7
1921,477,-219,1012,-7,-21,17
1922,256,-179,975,38,50,12
1923,-98,-272,874,135,80,6
1924,-447,28,997,248,49,8
1925,-415,15,906,69,-22,10
1926,-86,-71,1001,72,-74,-7
1927,320,81,1102,148,-77,-19
1928,380,168,1148,77,-24,-6
1929,191,148,908,0,23,8
1930,-52,260,911,22,56,5
1931,-373,171,1067,-95,47,-2
1932,-211,-175,930,-154,-26,2
1933,93,-203,1017,-6,-46,-2
1934,369,-726,81,108,1,8
1935,-362,-936,-101,3375,99,-56
1936,-180,1827,1890,3281,-184,-7
1937,-225,511,751,-2274,-39,150
1938,-88,-1026,-545,-2032,-10,-71
1939,547,-445,387,419,-82,-127
1940,645,1141,1412,779,-48,100
1941,180,986,1495,-11,105,83
1942,97,144,747,-379,116,-59
1943,-229,-38,862,-100,131,-51
1944,-721,-222,1258,-186,39,54
1945,-367,-795,712,-332,-47,3
1946,142,-698,873,21,-74,-19
1947,491,-322,1012,142,-51,28
1948,320,-31,1133,111,28,22
1949,-196,303,995,113,70,-31
1950,-369,506,994,44,10,0
1951,-259,425,941,-88,-38,31
1952,111,165,1034,-168,-64,-7
1953,456,-121,1134,-178,-36,-17
1954,371,-174,1043,-170,33,8
1955,1,-108,962,-141,75,31
1956,-380,-90,905,-173,59,37
1957,-552,-143,879,-202,6,4
1958,-230,-218,957,-164,-73,-24
1959,287,-122,996,-49,-98,-9
1960,541,72,1066,19,-42,10
1961,339,206,1052,-22,37,7
1962,-147,250,1029,-93,76,1
1963,-470,181,970,-172,37,4
1964,-385,28,910,-240,-36,7
1965,-3,-179,988,-262,-79,-2
1966,422,-318,1014,-200,-67,-2
1967,399,-212,968,-59,0,4
1968,86,-7,974,35,51,8
1969,-282,114,927,26,52,19
1970,-515,167,939,-19,9,8
1971,-251,29,978,-110,-68,-15
1972,254,-84,1052,-41,-93,-11
1973,510,-38,1063,2,-44,11
1974,397,7,976,-22,31,30
1975,-21,109,1008,-13,81,19
1976,-456,35,958,-76,66,-3
1977,-466,-99,860,-72,-11,1
1978,-144,-130,1005,-20,-74,0
1979,356,-185,1038,-4,-80,-5
1980,461,-92,1025,46,-14,5
1981,178,91,1019,57,46,4
1982,-174,173,982,7,58,4
1983,-446,123,893,-39,26,10
1984,-279,26,979,-45,-41,0
1985,141,-119,1058,-52,-74,-9
1986,410,-136,1026,-5,-39,2
1987,338,-28,1007,18,19,12
1988,-13,31,981,-4,63,12
1989,-405,31,915,-22,52,8
1990,-415,-16,937,-22,-17,-3
1991,-84,-87,997,-12,-72,-7
1992,322,-37,985,18,-74,-2
1993,110,-7,585,-511,-56,20
1994,93,-1307,796,277,0,-10
1995,-218,1042,1697,1418,-40,38
1996,-381,636,594,-766,-62,5
1997,0,-18,483,-113,-29,-154
1998,414,235,814,70,-118,46
1999,517,712,1093,207,-8,122
2000,171,989,1547,-61,85,64
2001,-98,104,607,-498,77,-81
2002,264,160,924,-88,47,-120
2003,-252,10,1423,-329,119,14
2004,-461,-961,858,-583,38,56
2005,30,-832,792,-99,-17,-8
2006,-118,-374,998,85,-5,1
2007,181,-306,814,-19,-33,51
2008,-199,73,1073,135,7,1
2009,-304,336,1031,101,-21,-72
2010,99,316,1035,-28,-77,1
2011,268,331,986,-16,-49,49
2012,434,353,1079,-85,2,42
2013,171,96,1216,-220,66,-7
2014,-172,-179,855,-243,74,-10
2015,-437,-131,880,-115,32,45
2016,-368,-300,916,-173,-31,25
2017,20,-500,881,-120,-69,-23
2018,330,-332,1072,73,-52,-23
2019,396,-2,1014,144,-10,8
2020,116,310,1026,131,42,25
2021,-285,356,979,19,52,12
2022,-431,159,952,-62,5,-13
2023,-186,-33,983,-52,-59,-17
2024,262,-157,1017,-24,-78,0
2025,498,-216,1017,4,-27,18
2026,314,-273,904,61,49,15
2027,-82,-222,963,241,85,4
2028,-484,41,1008,193,51,11
2029,-454,-49,840,87,-21,11
2030,-145,22,1000,148,-79,-11
2031,353,124,1162,145,-92,-21
2032,412,104,1110,43,-31,-3
2033,217,171,908,45,20,6
2034,68,-167,289,66,43,-2
2035,-865,-1350,-586,2526,133,-69
2036,-413,1685,1880,3734,-240,-58
2037,176,710,1233,-1748,-140,167
2038,251,-1059,-340,-2320,-3,0
2039,835,-718,119,116,-27,-153
2040,456,928,1231,771,35,55
2041,-408,1033,1479,38,167,71
2042,-314,62,906,-401,50,-43
2043,-192,-189,705,-103,20,-21
2044,-41,-258,1337,-77,-21,41
2045,162,-664,835,-219,-23,4
2046,87,-388,877,75,13,8
2047,-186,-21,996,80,24,22
2048,-218,-60,970,-35,-13,1
2049,-139,60,947,47,-36,-31
2050,234,238,1107,78,-66,-12
2051,427,276,1080,-9,-20,27
2052,206,297,1015,-82,49,16
2053,-139,143,1070,-168,63,-2
2054,-424,-63,929,-237,34,9
2055,-308,-198,907,-226,-27,9
2056,70,-374,934,-215,-66,4
2057,381,-333,985,-85,-42,4
2058,315,-84,1040,30,14,1
2059,-15,175,1028,39,52,7
2060,-334,296,956,-29,36,16
2061,-408,217,939,-126,-14,2
2062,-109,10,1023,-196,-68,-16
2063,317,-152,1038,-190,-73,-8
2064,482,-130,1014,-117,-21,10
2065,273,-31,997,-82,45,16
2066,-185,29,973,-98,76,15
2067,-533,27,917,-114,38,4
2068,-418,-51,908,-115,-43,-7
2069,5,-127,972,-79,-95,-6
2070,451,-142,1059,-18,-80,0
2071,449,-45,1053,15,-12,15
2072,200,217,983,7,48,19
2073,-142,265,960,-40,77,-12
2074,-446,115,960,-112,46,-11
2075,-323,-27,941,-111,-30,16
2076,43,-151,1071,-94,-66,-2
2077,385,-256,986,-63,-45,-10
2078,364,-165,964,9,11,22
2079,-28,-12,992,35,59,19
2080,-380,42,957,15,46,-3
2081,-398,12,899,-4,-15,-1
2082,-88,28,1006,25,-73,2
2083,367,-6,1095,6,-73,-2
2084,413,2,1020,1,-6,4
2085,178,123,1016,16,46,7
2086,-162,123,987,-47,61,6
2087,-449,-9,876,-87,32,10
2088,-288,-126,953,-57,-39,-2
2089,108,-219,1039,-25,-72,-12
2090,405,-172,1016,32,-44,4
2091,331,0,1009,60,16,15
2092,-74,287,936,27,54,8
2093,-866,409,708,-1231,-39,16
2094,-290,-515,600,450,-86,-21
2095,19,771,650,771,-119,72
2096,221,406,171,-440,-158,19
2097,869,592,1399,256,-15,-140
2098,638,12,625,-395,44,73
2099,101,571,510,170,144,54
2100,-541,1324,1570,-6,139,-67
2101,-234,-126,765,-777,54,-141
2102,116,-556,955,-278,8,27
2103,-271,-292,1150,-124,25,84
2104,79,-986,973,-355,10,-50
2105,-95,-696,640,21,10,14
2106,-264,19,963,184,-7,45
2107,-76,-54,1017,-18,-43,-18
2108,-30,200,1014,149,-47,-44
2109,322,530,1198,108,-57,-8
2110,411,466,1036,-41,-5,30
2111,116,379,952,-96,61,26
2112,-282,67,1111,-197,67,-2
2113,-397,-414,805,-202,15,-5
2114,-207,-358,945,-32,-40,8
2115,217,-496,906,-38,-67,12
2116,399,-363,1011,94,-20,10
2117,125,-15,1039,193,37,-8
2118,-178,242,1037,159,44,-2
2119,-361,346,889,109,6,23
2120,-269,252,966,43,-43,2
2121,97,-55,1055,-34,-74,-25
2122,436,-193,1049,33,-49,-9
2123,395,-119,1000,90,13,16
2124,85,-59,977,91,64,28
2125,-365,-46,918,58,65,22
2126,-558,-93,904,57,9,-8
2127,-265,-198,902,95,-74,-18
2128,232,-47,1096,154,-103,-2
2129,515,-39,1100,87,-51,17
2130,295,127,964,103,19,35
2131,0,391,1068,117,48,-6
2132,-247,246,956,-77,56,-36
2133,-365,9,914,-116,14,5
2134,-69,-415,476,-27,-45,28
2135,-123,-1656,-971,1860,9,-61
2136,107,1341,1815,3559,-165,-77
2137,168,960,1390,-890,-73,161
2138,-178,-567,-110,-1924,44,50
2139,106,-454,191,-102,-10,-166
2140,280,670,1165,575,-68,-7
2141,152,750,1432,40,29,104
2142,278,209,915,-243,38,20
2143,286,111,898,-72,89,-36
2144,-357,-79,1265,-178,112,21
2145,-548,-492,768,-264,21,36
2146,-386,-440,859,-73,-29,5
2147,-5,-460,895,-24,-75,-11
2148,542,-385,1035,61,-74,14
2149,325,92,1111,209,19,-6
2150,63,405,1096,101,51,-20
2151,-235,445,950,-37,44,28
2152,-449,383,914,-121,10,22
2153,-111,47,1057,-200,-55,-19
2154,286,-236,1039,-191,-56,-9
2155,451,-227,1002,-122,-11,18
2156,279,-171,991,-95,53,29
2157,-231,-76,969,-94,86,25
2158,-553,-18,923,-99,39,1
2159,-404,-24,905,-104,-44,-6
2160,38,-16,973,-68,-93,-2
2161,521,-21,1078,-49,-73,1
2162,473,47,1059,-33,14,-2
2163,102,155,1051,-38,71,3
2164,-308,175,960,-107,67,20
2165,-521,83,895,-168,17,16
2166,-276,-138,944,-220,-54,-11
2167,190,-285,1023,-171,-86,-15
2168,475,-210,998,-45,-47,4
2169,355,-10,988,28,24,13
2170,-47,115,1003,20,66,13
2171,-455,120,915,-22,49,7
2172,-457,56,932,-32,-24,-8
2173,-102,9,1024,-44,-88,-9
2174,400,-106,1039,-69,-85,3
2175,497,-73,1028,-2,-14,8
2176,233,56,1023,15,51,3
2177,-182,65,987,-40,74,6
2178,-491,12,860,-53,38,15
2179,-349,-48,953,-35,-39,1
2180,73,-172,1038,-39,-80,-15
2181,429,-139,1034,32,-55,-2
2182,363,25,1023,52,10,12
2183,43,121,994,19,54,9
2184,-344,119,942,-25,56,7
2185,-417,45,931,-43,-5,1
2186,-105,-69,1004,-43,-65,-6
2187,317,-131,1033,-15,-65,-1
2188,419,-79,1038,12,-12,8
2189,175,10,1004,12,46,8
2190,-213,70,962,-4,61,8
2191,-479,120,873,-29,22,8
2192,-678,585,718,-1111,-84,8
2193,168,-443,594,344,-137,-57
2194,433,735,569,600,-111,94
2195,294,394,87,-525,-77,60
2196,361,790,1295,263,70,-166
2197,221,163,438,-425,35,33
2198,-58,856,584,119,84,39
2199,-294,1368,1804,-207,85,-48
2200,111,-738,501,-793,33,-37
2201,362,-33,1237,-70,19,92
2202,-402,-838,876,-325,87,36
2203,-233,-1170,733,-91,27,-33
2204,-430,-387,892,87,-24,38
2205,-193,-357,942,72,-67,-19
2206,440,-26,1078,136,-88,-18
2207,263,593,1145,123,-15,-8
2208,285,607,1100,19,17,-18
2209,-44,801,1028,-51,48,26
2210,-367,304,871,-190,29,22
2211,-218,-277,998,-184,-22,-8
2212,-20,-478,1006,-122,-51,-4
2213,319,-598,966,-64,-41,5
2214,358,-373,962,14,8,34
2215,-21,-122,951,54,56,33
2216,-389,42,984,64,47,-2
2217,-470,182,935,47,-15,-13
2218,-119,193,956,24,-88,-7
2219,359,86,1090,2,-88,-6
2220,524,13,1077,-12,-20,-5
2221,292,19,1053,-12,46,5
2222,-116,20,961,-18,75,30
2223,-407,-210,756,20,50,35
2224,-426,-335,898,159,-8,-4
2225,-148,-471,939,142,-70,-33
2226,341,-342,1041,316,-80,-13
2227,387,45,1031,384,-23,9
2228,152,313,1063,334,30,2
2229,-213,440,1051,216,31,5
2230,-366,430,949,64,4,-11
2231,-156,263,1006,-63,-39,-7
2232,211,8,1061,-126,-58,30
2233,437,-87,1051,-73,-19,34
2234,293,-114,1050,-70,46,5
2235,-80,-241,921,-85,80,8
2236,-442,-194,839,-2,51,34
2237,-490,-144,920,22,-19,11
2238,-129,-248,973,20,-80,-23
2239,334,-84,1073,143,-84,-10
2240,407,140,1112,115,-33,7
2241,204,192,986,46,16,1
2242,-69,296,913,37,47,-12
2243,-324,285,1006,-52,43,-11
2244,-173,-688,-143,16,-1,1
2245,-517,-1019,-111,3295,-16,-90
2246,339,1782,1919,3204,-239,-25
2247,217,277,934,-1918,-48,199
2248,127,-899,-394,-1706,50,-28
2249,264,-266,428,423,6,-170
2250,52,1049,1317,638,-3,17
2251,-138,798,1393,-51,53,73
2252,148,114,807,-281,19,14
2253,330,153,887,20,59,-8
2254,-173,-116,1425,-141,80,31
2255,-362,-632,695,-302,38,7
2256,-394,-506,854,-25,-1,12
2257,-144,-385,901,-11,-52,11
2258,348,-351,1020,36,-77,1
2259,304,79,1093,197,-3,-25
2260,205,472,1123,139,24,-9
2261,-91,555,1000,-35,45,34
2262,-388,446,908,-150,33,16
2263,-243,77,1047,-248,-29,-16
2264,99,-277,1023,-260,-55,-8
2265,406,-326,978,-175,-30,13
2266,350,-282,997,-123,26,30
2267,-81,-123,981,-78,73,24
2268,-462,28,950,-80,50,2
2269,-485,70,909,-107,-23,-6
2270,-86,84,955,-119,-94,0
2271,393,28,1091,-130,-88,-2
2272,517,18,1079,-140,-16,-1
2273,257,119,1056,-132,52,3
2274,-172,170,1008,-196,72,17
2275,-499,97,915,-284,38,22
2276,-434,-109,920,-360,-34,-3
2277,-9,-309,958,-319,-89,-18
2278,429,-314,955,-141,-79,0
2279,456,-111,962,25,-10,16
2280,144,102,1010,62,48,13
2281,-229,208,1000,5,68,1
2282,-485,132,912,-63,22,0
2283,-231,55,959,-49,-55,0
2284,182,-58,1072,-61,-77,0
2285,443,-147,1016,-54,-34,6
2286,343,-75,1011,-4,30,8
2287,-61,18,999,-3,69,7
2288,-408,11,886,-33,50,15
2289,-434,-28,910,-21,-16,6
2290,-100,-104,1016,-14,-75,-13
2291,359,-118,1056,23,-74,-7
2292,431,15,1042,52,-14,9
2293,195,133,1004,25,42,10
2294,-175,162,965,-23,65,5
2295,-468,84,932,-61,30,2
2296,-265,-58,961,-65,-42,-1
2297,126,-163,1027,-38,-72,-4
2298,411,-152,1018,6,-39,5
2299,159,-330,-228,-97,33,18
2300,-306,-1128,1011,1127,58,-67
2301,-333,1246,1570,1565,-95,45
2302,-306,671,962,-1117,-93,79
2303,-45,-317,200,-591,-41,-122
2304,640,39,604,322,-141,29
2305,596,908,1261,443,-24,108
2306,169,878,1361,-9,115,23
2307,-214,88,671,-397,86,-72
2308,-15,336,774,20,47,-128
2309,-167,633,1081,-157,37,-37
2310,-69,176,1271,-477,65,22
2311,76,-815,1121,-543,7,39
2312,170,-539,650,-26,43,2
2313,-297,-671,1198,-248,50,12
2314,-245,-836,490,-173,0,50
2315,-348,-163,1100,144,-32,8
2316,-106,-86,981,19,-68,-71
2317,474,253,1097,174,-94,3
2318,242,668,1100,123,-14,46
2319,192,649,1003,-66,12,16
2320,-52,429,1017,-208,60,-20
2321,-361,16,1055,-307,31,-10
2322,-34,-350,895,-291,-31,27
2323,37,-455,1004,-202,-25,21
2324,254,-522,905,-129,-12,-1
2325,137,-307,968,13,22,24
2326,-246,25,946,96,40,14
2327,-339,163,964,49,-2,-6
2328,-239,155,929,14,-54,-4
2329,149,121,1061,2,-83,-13
2330,454,52,1101,-20,-45,-6
2331,360,74,1029,-24,21,10
2332,56,100,1019,-47,60,21
2333,-344,18,921,-95,60,24
2334,-484,-145,881,-94,7,3
2335,-201,-449,825,-43,-59,-20
2336,266,-460,997,257,-80,-18
2337,473,-74,1186,195,-34,8
2338,287,-53,920,113,42,16
2339,-158,295,1020,225,68,-4
2340,-455,457,1002,105,27,-6
2341,-358,246,947,-67,-38,1
2342,6,54,993,-67,-77,1
2343,460,-44,1132,-49,-65,7
2344,465,-158,984,-81,11,17
2345,172,-198,821,-4,70,14
2346,-593,-1634,-1232,1103,142,-6
2347,-1002,954,1620,3597,-118,-75
2348,-70,1196,1375,-520,-205,85
2349,130,-878,-58,-2226,-103,41
2350,775,-786,73,-107,-87,-143
2351,788,629,1223,876,-52,-2
2352,169,883,1416,209,115,78
2353,-346,361,794,-204,142,39
2354,-493,297,670,-98,45,-21
2355,82,395,1197,4,-16,-78
2356,49,-170,1375,-236,11,9
2357,236,-549,700,-253,11,36
2358,22,-397,1109,16,45,25
2359,-386,-453,794,-106,43,16
2360,-284,-379,856,14,-19,9
2361,-178,-177,1063,112,-56,-22
2362,259,73,1022,142,-76,-31
2363,359,216,1130,127,-39,21
2364,160,410,951,79,7,32
2365,-32,488,1028,-16,35,-12
2366,-203,243,971,-174,41,-32
2367,-150,-10,994,-190,-2,8
2368,70,-168,1034,-171,-25,33
2369,221,-312,1030,-159,-10,0
2370,180,-351,958,-124,27,2
2371,-106,-150,950,-28,46,26
2372,-351,31,929,-15,21,7
2373,-345,52,931,-40,-28,-13
2374,-40,31,996,-51,-78,-5
2375,302,-10,1106,-28,-77,6
2376,362,31,1014,-29,-29,23
2377,224,168,1010,-22,22,5
2378,-63,165,971,-117,57,-25
2379,-297,96,925,-155,44,-13
2380,-314,17,992,-174,-5,15
2381,-24,-92,1026,-164,-52,14
2382,363,-56,1087,-164,-40,12
2383,351,-101,921,-210,22,28
2384,84,-58,947,-57,62,14
2385,-300,38,993,-27,63,2
2386,-490,-60,890,-84,10,5
2387,-216,-184,900,-65,-61,0
2388,215,-159,1058,34,-82,-4
2389,444,-80,1067,41,-36,1
2390,296,62,1001,54,29,4
2391,-50,227,1001,40,60,4
2392,-381,183,926,-52,44,8
2393,-390,41,935,-76,-16,3
2394,-32,-108,1038,-67,-69,-8
2395,361,-189,1043,-32,-59,-1
2396,412,-129,990,4,0,16
2397,136,-13,998,25,55,15
2398,-278,42,952,-5,64,8
2399,-480,28,897,-10,12,1
2400,-240,-14,972,-4,-59,-3
2401,205,-62,1062,3,-84,-2
2402,418,97,977,18,-35,7
2403,177,-112,509,-776,67,13
2404,-334,-1221,887,492,42,-67
2405,-248,1123,1358,1311,-94,90
2406,-392,740,604,-762,-71,33
2407,133,91,629,-66,-48,-130
2408,705,256,742,-40,-110,73
2409,557,958,1232,201,60,99
2410,35,1001,1498,-289,131,25
2411,-1,-105,648,-634,120,-102
2412,-208,-291,1187,-215,94,-8
2413,-621,-571,865,-399,35,88
2414,-193,-1061,1017,-391,-33,-25
2415,129,-832,668,-66,-41,-15
2416,205,-112,1033,240,-32,39
2417,63,161,1052,64,-1,17
2418,-278,378,959,100,17,-34
2419,-172,528,1063,36,-40,-17
2420,144,420,1051,-82,-65,15
2421,408,213,1087,-151,-34,14
2422,320,-49,1079,-219,38,3
2423,-77,-233,975,-208,71,18
2424,-366,-208,871,-111,46,33
2425,-403,-232,852,-92,-11,25
2426,-190,-443,822,-79,-65,-5
2427,230,-314,1097,92,-83,-25
2428,400,-38,1072,143,-37,-6
2429,276,211,991,140,18,12
2430,-80,394,1022,99,47,22
2431,-402,289,980,-31,27,10
2432,-319,-12,933,-79,-33,-20
2433,60,-222,987,-8,-77,-15
2434,474,-500,887,140,-53,3
2435,416,-222,1115,244,21,11
2436,18,-182,943,171,75,14
2437,-409,38,926,250,66,11
2438,-547,257,940,217,-9,-2
2439,-232,210,1029,74,-83,-11
2440,263,67,1102,13,-101,-10
2441,460,33,1091,38,-51,14
2442,380,155,962,23,10,33
2443,123,208,987,-29,70,-1
2444,-306,21,980,-127,88,-14
2445,-450,-184,896,-106,13,11
2446,-182,-176,1033,-2,-48,1
2447,175,-231,989,-20,-60,-12
2448,407,-195,952,48,-25,17
2449,150,3,959,88,34,19
2450,-397,-1154,-818,1633,143,-69
2451,-734,1390,1404,4976,-104,-96
2452,21,1298,1575,-386,-201,137
2453,145,-713,-33,-2367,-68,60
2454,673,-825,-32,-282,-2,-172
2455,809,779,1101,811,-47,11
2456,-46,1240,1375,189,133,87
2457,-298,445,855,-425,147,-14
2458,-348,-164,900,-254,54,-39
2459,-219,-244,1163,-122,-3,23
2460,52,-720,983,-271,-17,15
2461,266,-655,806,-41,-13,11
2462,102,-177,1014,103,35,46
2463,-303,-38,1016,-26,52,10
2464,-358,47,901,2,-12,-39
2465,-77,314,1002,70,-64,-4
2466,371,367,1129,-17,-68,22
2467,474,228,1069,-143,0,6
2468,154,127,1109,-163,72,-2
2469,-242,20,987,-246,71,16
2470,-465,-99,868,-248,25,31
2471,-313,-279,865,-274,-32,12
2472,77,-446,980,-237,-72,-14
2473,400,-312,1018,-55,-52,-5
2474,352,57,1014,57,13,10
2475,18,301,1047,31,52,16
2476,-339,307,952,-86,44,15
2477,-470,157,946,-168,-10,-12
2478,-113,-50,1001,-195,-78,-18
2479,343,-144,1025,-173,-82,6
2480,492,-149,1047,-137,-17,9
2481,230,-90,1011,-116,52,6
2482,-259,33,964,-91,71,13
2483,-499,78,889,-104,20,13
2484,-392,-15,864,-138,-55,0
2485,32,-141,1019,-115,-101,-15
2486,457,-151,1068,-28,-82,-11
2487,392,81,1090,20,-6,3
2488,107,230,999,-96,36,18
2489,-161,169,830,-93,50,18
2490,-438,172,1025,-73,23,-3
2491,-178,-126,999,-182,-50,-7
2492,199,-285,984,-111,-64,1
2493,375,-188,999,11,-24,9
2494,288,-101,1000,7,29,19
2495,-155,-1,953,23,68,12
2496,-445,91,939,28,31,-2
2497,-342,54,927,-13,-39,1
2498,16,-1,1015,-4,-80,1
2499,431,-44,1096,1,-65,-1
2500,412,0,1030,7,8,8
2501,119,124,997,10,58,9
2502,-228,108,964,-53,66,9
2503,-483,-16,870,-81,22,9
2504,-324,87,871,-67,-50,-6
2505,81,-779,211,-655,-53,-25
2506,287,-753,1270,1152,-74,-70
2507,231,1297,1536,706,-101,122
2508,-152,412,353,-972,13,37
2509,-80,101,661,122,47,-134
2510,43,405,550,51,-77,46
2511,175,1114,1263,255,-6,48
2512,116,823,1454,-384,35,27
2513,469,-109,749,-506,52,-15
2514,338,99,1303,-107,103,50
2515,-571,-474,994,-507,127,49
2516,-508,-1149,749,-467,39,-18
2517,-458,-826,634,-60,-32,15
2518,38,-427,1038,107,-106,1
2519,515,-222,1083,62,-75,-2
2520,196,426,1033,239,19,-21
2521,6,761,1149,77,15,-14
2522,-218,668,915,-80,19,18
2523,-223,459,999,-177,-22,15
2524,115,-86,1147,-323,-49,-7
2525,314,-470,960,-283,-15,-1
2526,243,-391,958,-100,26,26
2527,-18,-266,942,-59,49,48
2528,-348,-184,853,-32,46,32
2529,-496,-180,883,-12,-7,-11
2530,-186,-133,971,62,-85,-25
2531,316,71,1072,137,-101,-6
2532,506,170,1073,75,-36,2
2533,314,218,1064,43,39,3
2534,-130,234,1010,0,67,13
2535,-429,120,936,-53,33,17
2536,-327,-243,818,-74,-28,5
2537,37,-566,889,129,-64,-22
2538,365,-364,1158,209,-51,-21
2539,374,-296,929,196,8,11
2540,30,91,972,338,55,17
2541,-327,420,1028,272,44,4
2542,-459,367,989,59,-9,-7
2543,-197,196,987,-23,-72,-14
2544,287,108,1124,-14,-91,-1
2545,516,-53,1036,-77,-33,32
2546,377,3,927,-24,45,40
2547,-58,28,1123,-58,91,1
2548,-440,-216,806,-124,68,3
2549,-497,-175,869,18,-9,14
2550,-123,-316,750,14,-76,-6
2551,-156,-1600,-919,1881,-2,-49
2552,183,1454,1807,4647,-226,-92
2553,81,1247,1339,-1280,-116,184
2554,8,-792,-725,-2831,-4,52
2555,266,-750,-170,-106,31,-222
2556,411,819,1196,876,-55,-22
2557,300,1092,1654,188,48,129
2558,149,353,1016,-336,114,4
2559,133,-47,782,-179,118,-70
2560,-423,-197,1201,-154,106,62
2561,-739,-604,867,-304,20,50
2562,-336,-820,731,-121,-53,-52
2563,142,-535,923,108,-97,-3
2564,606,-279,1084,131,-68,37
2565,379,165,1110,202,31,-16
2566,-63,532,1083,129,74,-30
2567,-307,601,980,-11,40,30
2568,-417,470,892,-133,-8,21
2569,-28,37,1081,-215,-63,-20
2570,388,-361,1038,-227,-48,-9
2571,434,-329,993,-83,16,19
2572,173,-185,1011,-59,68,37
2573,-309,-86,914,-93,82,36
2574,-593,-34,919,-93,28,3
2575,-379,-58,910,-93,-61,-22
2576,155,-12,1004,-24,-106,-13
2577,570,49,1080,-4,-66,5
2578,465,133,1081,-33,27,2
2579,2,189,1063,-80,81,3
2580,-388,173,948,-153,62,17
2581,-499,63,893,-218,-4,14
2582,-200,-179,953,-270,-66,-7
2583,281,-333,1021,-206,-83,-13
2584,463,-222,997,-59,-30,2
2585,291,11,995,13,32,12
2586,-126,142,970,-2,66,19
2587,-483,129,899,-45,36,8
2588,-415,31,923,-49,-40,-16
2589,-12,-22,1053,-35,-93,-14
2590,415,-61,1062,-57,-80,8
2591,487,-59,1006,-18,-6,12
2592,177,77,999,15,59,5
2593,-227,81,991,-50,74,5
2594,-472,-20,859,-73,25,12
2595,-302,-74,957,-34,-43,2
2596,134,-176,1059,-33,-82,-12
2597,424,-149,1021,26,-43,1
2598,311,36,1019,59,20,12
2599,-17,129,981,13,56,8
2600,-361,115,929,-27,45,7
2601,-378,41,934,-39,-16,1
2602,-32,-70,1033,-38,-67,-8
2603,339,-122,1040,-14,-58,1
2604,391,-55,1020,12,-1,10
2605,114,30,997,8,52,8
2606,-263,59,942,-15,62,6
2607,-442,19,899,-29,9,6
2608,-224,-60,977,-28,-53,-2
2609,207,-121,1047,-3,-79,-6
2610,386,-23,923,35,-34,5
2611,-32,-920,-659,73,-12,15
2612,-250,-247,1501,2101,-17,-30
2613,-478,1650,1833,716,-90,97
2614,-319,38,79,-1950,-103,8
2615,218,-651,-18,-231,-65,-155
2616,683,438,1065,566,-163,63
2617,651,796,1280,317,2,134
2618,45,717,1204,-20,124,57
2619,-255,89,684,-275,82,-98
2620,33,305,842,24,13,-129
2621,-182,522,1012,-143,50,-42
2622,50,207,1357,-401,61,38
2623,130,-509,1172,-418,39,49
2624,169,-394,762,-102,56,9
2625,-357,-712,1123,-296,68,31
2626,-422,-810,600,-198,7,36
2627,-278,-270,996,96,-41,-8
2628,-19,-126,1027,13,-77,-53
2629,487,176,1079,128,-80,0
2630,224,554,1100,109,-11,33
2631,100,646,971,-29,19,-4
2632,-27,456,994,-191,52,-24
2633,-299,113,1054,-288,39,4
2634,-11,-240,984,-300,-31,21
2635,115,-452,989,-237,-7,7
2636,163,-498,923,-136,7,7
2637,127,-321,923,-14,24,33
2638,-283,-38,954,72,46,14
2639,-369,54,944,27,3,-21
2640,-178,77,940,26,-60,-7
2641,174,157,1060,51,-78,-6
2642,479,101,1103,-13,-41,-6
2643,338,113,1027,-11,35,9
2644,-6,155,1029,-31,69,15
2645,-353,33,918,-97,57,20
2646,-453,-177,850,-89,3,8
2647,-121,-634,770,75,-57,-18
2648,259,-285,1203,273,-72,-13
2649,418,-183,1011,98,-20,13
2650,201,62,973,184,43,12
2651,-214,457,1048,182,52,-3
2652,-407,438,986,3,11,-9
2653,-280,199,899,-92,-41,-11
2654,112,84,1080,-56,-75,12
2655,467,-101,1076,-114,-49,31
2656,414,-182,989,-65,28,15
2657,69,-148,1012,-31,78,4
2658,-411,-1121,-736,498,195,38
2659,-1377,330,1121,5189,-41,-100
2660,127,1774,1731,1060,-336,66
2661,186,-567,12,-3543,-115,175
2662,729,-1424,-893,-1283,-25,-166
2663,1046,261,989,1176,-42,-126
2664,217,1509,1458,689,116,91
2665,-341,887,1085,-244,199,59
2666,-488,85,849,-365,98,-26
2667,-314,-197,987,-125,16,-31
2668,-39,-531,1223,-197,-39,39
2669,146,-885,745,-182,-13,-4
2670,206,-467,934,134,-1,34
2671,-184,-146,1021,62,43,31
2672,-284,-143,924,6,-3,-35
2673,-121,161,944,148,-39,-25
2674,240,492,1147,154,-65,17
2675,420,458,1073,-34,-15,17
2676,191,336,1079,-103,55,-2
2677,-180,110,1028,-204,66,2
2678,-371,-128,904,-226,25,21
2679,-248,-311,882,-201,-22,15
2680,97,-482,953,-182,-53,4
2681,345,-387,1028,-36,-30,-2
2682,229,-62,993,72,23,5
2683,-79,266,1031,88,48,15
2684,-326,334,953,-32,25,16
2685,-379,206,928,-121,-22,-9
2686,-20,14,1040,-144,-75,-23
2687,395,-84,1060,-131,-68,1
2688,466,-81,1039,-116,1,15
2689,176,-39,1015,-119,64,15
2690,-320,15,974,-133,76,15
2691,-528,6,891,-154,19,5
2692,-345,-67,874,-165,-59,-2
2693,119,-138,1015,-132,-101,-4
2694,503,-128,1073,-67,-65,-1
2695,415,20,1042,-18,16,-3
2696,42,161,1013,-19,62,7
2697,-329,177,916,-78,56,22
2698,-512,74,884,-115,-1,6
2699,-233,-125,969,-126,-72,-19
2700,223,-135,1096,-72,-95,-10
2701,455,-95,1023,-86,-49,14
2702,360,-37,940,-13,23,16
2703,-33,132,1008,24,65,6
2704,-387,74,967,-65,48,4
2705,-383,-52,881,-75,-15,4
2706,-54,-78,1017,-14,-68,-3
2707,342,-128,1062,-19,-64,-1
2708,359,3,939,11,-4,8
2709,-480,273,641,-726,-54,24
2710,-249,-1404,760,-204,-57,37
2711,-247,894,1324,1406,-50,37
2712,-298,672,228,-575,-130,-16
2713,628,420,1163,76,-100,-156
2714,782,171,1005,-241,-68,37
2715,465,313,488,34,107,89
2716,60,1154,1780,106,138,27
2717,-339,-56,747,-661,141,-85
2718,-280,-515,799,-301,81,2
2719,-519,-440,1048,-160,-5,85
2720,-23,-800,1036,-224,-42,-24
2721,163,-661,795,-51,-21,-28
2722,129,-68,937,199,-21,31
2723,-26,259,1079,96,2,20
2724,-271,292,963,15,10,-39
2725,-36,331,1061,15,-48,-25
2726,270,333,1074,-50,-52,20
2727,368,222,1066,-121,4,19
2728,166,-11,1038,-207,60,6
2729,-257,-189,941,-195,72,12
2730,-452,-216,890,-125,23,15
2731,-249,-310,860,-110,-44,5
2732,132,-361,960,-33,-68,-6
2733,399,-214,1045,75,-36,-12
2734,308,82,1075,130,22,-5
2735,-12,316,1002,95,57,17
2736,-320,350,946,8,45,25
2737,-402,130,960,-80,-6,-8
2738,-82,-149,998,-85,-60,-25
2739,332,-236,1023,-14,-67,-4
2740,453,-196,1015,30,-6,14
2741,215,-123,974,49,59,20
2742,-263,-23,955,73,80,15
2743,-497,-107,831,96,29,3
2744,-355,-147,875,234,-47,-1
2745,69,-52,1113,193,-96,-6
2746,475,-144,1062,141,-64,-8
2747,369,71,1025,209,13,-5
2748,40,337,1070,180,46,7
2749,-207,337,949,7,46,9
2750,-416,214,914,-63,22,-5
2751,-190,-5,1047,-109,-49,-4
2752,252,-204,1042,-76,-68,1
2753,371,-193,1010,-15,-15,7
2754,278,-152,975,-3,34,18
2755,-144,-91,948,6,71,23
2756,-492,-5,910,35,38,-2
2757,-359,-17,932,18,-41,-10
2758,33,-16,1010,40,-86,1
2759,418,14,1111,48,-67,2
2760,392,41,1031,21,3,10
2761,98,201,987,37,51,10
2762,-188,175,997,-55,60,-7
2763,-414,-23,857,-107,24,7
2764,-283,-1039,-654,300,-4,1
2765,-462,-170,704,4253,-110,-120
2766,537,1797,1900,1662,-246,59
2767,122,-183,250,-2777,-29,221
2768,236,-970,-613,-1347,40,-117
2769,307,96,768,727,4,-178
2770,74,1142,1433,488,16,41
2771,-41,649,1290,-181,70,82
2772,135,75,783,-256,53,-8
2773,186,98,1041,-34,78,-6
2774,-356,-370,1246,-256,65,51
2775,-390,-689,648,-230,27,1
2776,-338,-484,902,34,-26,0
2777,26,-438,919,-19,-69,14
2778,413,-299,1047,94,-63,-4
2779,293,218,1117,227,13,-32
2780,144,546,1112,111,38,4
2781,-198,593,954,-50,52,37
2782,-391,425,934,-157,19,8
2783,-177,-24,1051,-264,-37,-18
2784,217,-317,1021,-233,-53,-5
2785,429,-358,970,-143,-12,20
2786,298,-264,1022,-102,44,36
2787,-176,-110,950,-75,85,25
2788,-509,41,938,-62,47,2
2789,-457,61,891,-90,-34,-2
2790,-41,56,970,-78,-97,-3
2791,450,10,1094,-77,-84,-7
2792,517,18,1095,-79,-2,-6
2793,207,120,1040,-77,64,4
2794,-224,173,977,-123,76,22
2795,-500,82,895,-202,33,22
2796,-417,-145,886,-259,-39,-7
2797,35,-312,985,-193,-94,-24
2798,436,-257,1005,-31,-74,0
2799,429,-65,996,53,-3,13
2800,39,144,1025,69,54,9
2801,-352,195,955,-26,47,6
2802,-445,117,898,-48,-12,-2
2803,-122,36,1010,-44,-76,-8
2804,363,-108,1081,-67,-81,1
2805,481,-133,1024,-29,-15,7
2806,267,-19,1000,9,52,4
2807,-172,45,987,-16,78,10
2808,-501,17,852,-39,41,16
2809,-414,-34,929,-22,-34,-1
2810,19,-132,1036,-21,-89,-16
2811,432,-122,1065,30,-70,-1
2812,431,16,1032,49,-2,10
2813,135,138,1000,30,55,7
2814,-267,143,956,-29,69,4
2815,-474,65,910,-54,16,6
2816,-219,-44,994,-54,-55,-2
2817,210,-158,1038,-38,-76,-6
2818,429,-146,1031,9,-30,7
2819,275,-26,1003,29,32,13
2820,-308,623,786,-93,52,15
2821,-777,-1098,452,-1105,-57,37
2822,-157,-602,1381,1051,-104,8
2823,-125,977,1242,609,-146,41
2824,267,503,565,-397,-134,-77
2825,948,341,1407,63,-67,-100
2826,449,43,426,-230,44,20
2827,139,699,928,207,154,-13
2828,-348,932,1578,-193,105,-28
2829,-84,-249,652,-591,87,-66
2830,-145,-207,1187,-133,44,50
2831,-219,-385,1021,-262,21,34
2832,-3,-883,911,-299,5,-13
2833,-232,-516,667,48,12,16
2834,-110,-180,994,103,-42,19
2835,-42,-185,999,26,-39,-21
2836,117,98,1003,158,-44,-40
2837,292,455,1202,161,-41,5
2838,190,495,1014,-9,4,30
2839,51,485,906,-55,42,13
2840,-252,279,1166,-190,54,-11
2841,-228,-238,883,-296,-1,-5
2842,-14,-397,918,-133,-27,12
2843,191,-407,1012,-70,-33,13
2844,331,-411,935,-28,6,15
2845,-9,-123,981,102,54,11
2846,-301,126,994,111,44,-4
2847,-341,193,910,56,-8,9
2848,-192,168,949,37,-56,-6
2849,278,20,1093,-8,-77,-22
2850,462,-50,1069,7,-22,-2
2851,314,16,1028,24,41,9
2852,-52,52,996,12,77,24
2853,-433,-12,890,-23,59,24
2854,-481,-164,863,-17,-6,-6
2855,-212,-414,835,56,-77,-21
2856,301,-248,1116,273,-105,-2
2857,480,-44,1111,166,-41,16
2858,254,74,976,144,34,4
2859,-122,335,1019,157,52,-6
2860,-361,374,971,30,26,-4
2861,-288,191,946,-84,-24,4
2862,71,3,1037,-83,-64,8
2863,386,-113,1105,-67,-42,7
2864,343,-173,974,-58,17,7
2865,43,-137,964,-14,65,15
2866,-260,-530,171,47,73,26
2867,-1168,-1073,-332,2887,86,-66
2868,-190,1791,1892,3278,-334,-45
2869,288,415,896,-2139,-171,180
2870,465,-1062,-608,-2035,-43,-20
2871,812,-274,467,560,-40,-184
2872,437,1080,1353,707,38,0
2873,-208,840,1276,-57,167,55
2874,-394,418,688,-295,84,37
2875,-41,151,1055,-150,41,-21
2876,19,-142,1368,-148,13,17
2877,-24,-639,780,-327,16,11
2878,-78,-725,917,-50,30,12
2879,-210,-338,840,46,10,46
2880,-212,-357,936,-34,-25,3
2881,-14,-249,1018,90,-42,-50
2882,287,209,1051,211,-50,-12
2883,313,550,1158,146,-13,26
2884,149,564,968,-47,39,21
2885,-194,446,1045,-133,59,3
2886,-376,71,1017,-266,22,-11
2887,-94,-245,908,-255,-34,4
2888,181,-436,952,-194,-40,22
2889,354,-438,1005,-119,-10,18
2890,181,-262,1008,-20,44,6
2891,-247,41,959,44,63,9
2892,-403,216,940,3,15,15
2893,-320,204,927,-60,-45,2
2894,39,66,1029,-101,-84,-24
2895,474,-33,1100,-86,-63,-14
2896,449,35,1046,-65,10,12
2897,143,101,1032,-90,67,19
2898,-320,52,962,-161,75,21
2899,-557,-38,884,-190,23,5
2900,-323,-180,915,-199,-58,-13
2901,171,-240,967,-125,-98,-5
2902,506,-149,1041,-19,-58,8
2903,391,9,1040,19,20,4
2904,-33,151,1008,23,68,2
2905,-392,185,918,-20,47,11
2906,-456,98,894,-51,-13,8
2907,-159,-27,1020,-73,-74,-8
2908,339,-153,1062,-85,-85,-7
2909,479,-135,1021,-12,-25,6
2910,290,23,995,29,41,12
2911,-130,75,982,-21,74,14
2912,-495,20,891,-46,46,11
2913,-383,-45,927,-31,-33,-6
2914,27,-103,1029,-17,-85,-11
2915,424,-107,1056,16,-64,3
2916,413,-6,1018,32,4,13
2917,75,114,1014,27,59,5
2918,-296,107,959,-34,61,1
2919,-431,33,886,-46,6,8
2920,-182,-52,990,-40,-56,1
2921,265,-153,1047,-27,-73,-8
2922,410,-112,1032,19,-23,3
2923,228,25,1007,36,36,10
2924,-140,93,980,0,61,11
2925,-435,51,885,-33,32,8
2926,-310,-19,955,-26,-36,-4
2927,80,-96,1032,-16,-78,-8
2928,408,-97,1052,14,-52,1
2929,300,1093,1506,-468,39,34
2930,-161,-875,-100,-990,97,-49
2931,-348,673,964,1095,-21,20
2932,-420,575,239,-239,-105,112
2933,-203,708,1065,6,-46,-111
2934,665,361,1159,-270,-123,-10
2935,867,288,722,-256,-10,144
2936,286,787,1415,-76,188,32
2937,-156,-397,929,-613,131,-56
2938,-439,-424,718,-134,111,57
2939,-726,-543,856,-205,24,89
2940,-295,-916,715,-55,-70,-28
2941,173,-383,1267,152,-96,-40
2942,354,-82,944,96,-50,9
2943,309,204,1006,124,-9,16
2944,-147,672,1076,97,46,-14
2945,-209,360,929,-56,-2,-5
2946,-109,356,1074,-56,-35,9
2947,247,67,1066,-134,-43,-1
2948,334,-283,966,-118,5,10
2949,61,-192,1044,-58,45,28
2950,-225,-240,938,-53,52,21
2951,-364,-196,865,-21,17,18
2952,-308,-271,772,10,-41,3
2953,98,-182,1126,79,-85,-19
2954,380,12,1106,87,-55,-2
2955,325,143,966,83,6,0
2956,41,313,1047,105,46,6
2957,-295,268,962,25,35,25
2958,-372,10,914,-41,-7,-3
2959,-80,-300,942,1,-59,-24
2960,321,-493,914,187,-62,-9
2961,390,-287,1068,287,-11,2
2962,152,-151,962,287,47,10
2963,-288,155,1019,288,58,11
2964,-491,321,981,149,6,-3
2965,-262,224,972,31,-66,-9
2966,153,140,1048,13,-95,-8
2967,482,82,1164,-1,-61,-2
2968,447,9,937,-56,10,10
2969,137,101,989,-12,81,2
2970,-348,-16,1026,-109,88,3
2971,-493,-201,789,-86,18,15
2972,-313,-178,1022,14,-50,-9
2973,204,-252,986,-3,-83,-15
2974,467,-152,1020,82,-44,16
2975,234,-932,-606,394,58,1
2976,-650,94,905,2728,41,-78
2977,-275,1664,1554,780,-153,48
2978,-156,-158,225,-1732,-70,85
2979,324,-647,221,-629,-36,-125
2980,819,107,1139,480,-72,-31
2981,435,741,1243,138,61,119
2982,-128,504,1061,-197,159,2
2983,-366,-121,905,-249,95,-78
2984,-572,-186,794,-94,36,22
2985,-367,-427,1154,-116,-64,30
2986,296,-671,810,-72,-83,-34
2987,479,-295,1034,171,-28,14
2988,218,72,1067,117,39,29
2989,-179,238,1029,53,55,0
2990,-485,382,915,16,25,-9
2991,-195,317,1005,-68,-59,6
2992,229,89,1031,-138,-71,8
2993,467,-81,1076,-124,-21,-3
2994,338,-142,1053,-107,44,5
2995,-100,-120,950,-92,82,26
2996,-457,-82,896,-77,54,27
2997,-458,-160,875,-104,-15,3
2998,-115,-207,979,-54,-74,-16
2999,381,-111,1045,30,-81,-8
3000,479,113,1062,67,-18,7
3001,210,256,1055,12,51,10
3002,-232,243,985,-76,67,10
3003,-489,141,936,-129,24,4
3004,-275,-56,946,-175,-47,-4
3005,150,-234,993,-162,-79,-2
3006,446,-270,1023,-83,-42,4
3007,327,-134,997,0,23,7
3008,-65,28,986,30,64,10
3009,-406,99,901,14,42,15
3010,-441,70,901,-5,-21,2
3011,-125,-21,1016,-14,-83,-17
3012,347,-41,1088,-15,-89,-9
3013,484,-31,1032,-2,-26,10
3014,271,94,993,22,42,12
3015,-109,132,1004,-34,69,9
3016,-475,16,912,-80,47,6
3017,-353,-98,910,-61,-29,-1
3018,34,-161,1032,-22,-75,-7
3019,399,-173,1029,7,-56,2
3020,375,-48,1014,48,8,12
3021,24,101,1020,45,56,5
3022,-324,123,936,-11,51,3
3023,-406,72,910,-28,-6,5
3024,-129,-19,1003,-35,-64,-2
3025,314,-115,1056,-22,-67,-5
3026,419,-78,1038,7,-13,4
3027,210,25,1009,15,43,9
3028,-178,65,964,-16,66,13
3029,-471,27,893,-35,31,8
3030,-315,-67,948,-33,-42,-6
3031,98,-131,1023,-4,-81,-9
3032,386,262,1078,-2,-55,8
3033,304,-30,304,-1342,7,6
3034,-258,-100,1062,1099,61,-62
3035,-325,924,777,398,-104,113
3036,-434,314,317,-406,-37,-24
3037,38,384,964,196,-51,-144
3038,691,229,759,-140,-165,106
3039,549,815,1192,171,80,118
3040,-79,855,1399,-276,116,13
3041,126,-72,567,-491,38,-112
3042,212,21,1072,-104,106,-75
3043,-805,-381,1248,-430,108,58
3044,-125,-1179,631,-471,-35,10
3045,-107,-605,974,117,-4,-20
3046,143,-191,870,80,-52,24
3047,196,-93,1000,41,-18,49
3048,-379,413,1075,185,29,-42
3049,-106,455,1061,-1,-52,-53
3050,140,319,952,-65,-63,40
3051,378,320,1030,-52,-29,47
3052,349,51,1199,-188,26,5
3053,-39,-308,921,-172,80,-11
3054,-337,-128,917,-41,51,30
3055,-424,-223,849,-84,-8,45
3056,-220,-436,806,-37,-52,0
3057,162,-290,1130,82,-77,-37
3058,408,-125,1047,113,-47,-10
3059,342,212,968,186,13,21
3060,-18,452,1069,135,53,25
3061,-404,267,964,-54,45,6
3062,-404,-3,931,-57,-18,-22
3063,-25,-141,994,-3,-80,-8
3064,406,-269,1000,5,-69,14
3065,441,-299,972,63,0,15
3066,147,-345,889,213,63,2
3067,-307,0,1045,326,69,-1
3068,-495,122,918,180,13,16
3069,-332,113,944,83,-57,5
3070,119,106,1092,74,-97,-23
3071,448,76,1174,54,-66,-11
3072,361,96,950,16,-7,23
3073,163,244,969,37,45,18
3074,-183,180,971,-87,82,-6
3075,-443,-102,997,-152,33,-4
3076,-174,-231,909,-46,-42,2
3077,127,-171,1078,9,-50,-5
3078,356,-234,929,-15,-27,7
3079,198,-97,992,69,26,24
3080,-239,118,1036,80,52,-5
3081,-352,89,922,-2,6,-10
3082,-204,67,899,13,-46,13
3083,154,74,1088,15,-72,7
3084,427,-50,1081,-43,-33,-3
3085,292,7,1019,9,30,-1
3086,-8,91,996,-14,60,10
3087,-354,26,895,-62,51,22
3088,-451,-99,898,-62,-5,3
3089,-129,-221,1001,-23,-68,-20
3090,322,-196,1035,46,-74,-5
3091,437,-39,1027,72,-21,15
3092,221,112,1009,56,40,14
3093,-192,192,1000,16,65,0
3094,-461,135,938,-39,28,-3
3095,-273,18,927,-51,-45,3
3096,128,-92,1035,-43,-75,3
3097,439,-175,1048,-27,-42,2
3098,349,-100,1016,21,23,6
3099,-17,24,1004,24,66,7
3100,-379,47,906,-10,50,15
3101,-447,6,888,-16,-9,6
3102,-139,-70,1011,-9,-72,-13
3103,344,-108,1069,20,-78,-9
3104,446,-20,1038,41,-20,8
3105,240,104,1005,32,42,12
3106,-153,137,984,-17,68,9
3107,-480,65,916,-55,38,2
3108,-315,-50,938,-48,-39,-4
3109,79,-146,1023,-31,-75,-4
3110,423,-168,1039,6,-50,3
3111,366,-54,1008,39,15,11
3112,3,75,1021,35,61,6
3113,-355,91,925,-10,51,7
3114,-428,54,904,-19,-8,7
3115,-129,-36,1012,-24,-69,-5
3116,335,-128,1049,-13,-72,-6
3117,434,-56,1041,29,-16,5
3118,224,57,1020,22,43,9
3119,-172,81,966,-22,67,11
3120,-478,40,890,-37,33,7
3121,-316,-53,956,-37,-43,-6
3122,95,-153,1017,-21,-79,-9
3123,431,-123,1051,35,-52,2
3124,372,5,1020,41,13,11
3125,25,101,1009,22,63,5
3126,-360,107,932,-21,56,7
3127,-435,48,913,-32,-5,5
3128,-137,-71,1001,-41,-66,-4
3129,324,-155,1036,-12,-71,-6
3130,438,-83,1041,29,-16,7
3131,215,31,1019,27,44,9
3132,-185,82,967,-5,67,7
3133,-474,61,895,-22,31,7
3134,-317,-23,954,-33,-43,-3
3135,100,-123,1018,-17,-79,-9
3136,438,-103,1066,26,-50,2
3137,378,0,1012,30,14,9
3138,-102,739,840,-157,60,12
3139,-725,-1213,-528,-633,29,-19
3140,-308,759,1577,1984,-92,-6
3141,-231,1047,823,-354,-176,120
3142,144,38,182,-676,-110,-89
3143,780,337,1233,298,-71,-59
3144,684,371,705,-56,-47,122
3145,189,971,1152,165,153,58
3146,-467,786,1277,-397,143,-35
3147,189,-235,620,-530,42,-109
3148,-50,-138,1407,-149,76,52
3149,-349,-604,872,-439,59,52
3150,33,-1016,968,-278,5,-26
3151,-341,-481,661,74,25,33
3152,-155,-153,965,61,-38,33
3153,-99,-273,1012,-45,-58,-21
3154,31,127,990,197,-46,-59
3155,425,454,1192,115,-60,0
3156,336,507,999,8,0,41
3157,127,561,1004,-44,60,29
3158,-301,245,1164,-224,70,-7
3159,-381,-278,805,-276,14,-7
3160,-165,-340,910,-91,-33,17
3161,157,-477,962,-92,-62,15
3162,421,-524,952,-1,-23,6
3163,167,-208,1011,165,44,-1
3164,-145,123,1025,182,53,7
3165,-359,268,911,116,21,28
3166,-374,227,915,64,-28,-1
3167,5,-27,1023,31,-81,-35
3168,400,-270,982,172,-66,-16
3169,437,-19,1114,234,-8,12
3170,199,12,997,132,52,23
3171,-277,70,946,79,77,19
3172,-563,104,945,45,26,-4
3173,-317,6,963,-10,-62,-14
3174,150,-50,1005,17,-96,-5
3175,512,-45,1094,33,-58,6
3176,425,-4,1006,17,20,15
3177,27,152,1019,36,73,8
3178,-339,105,975,-52,64,0
3179,-473,-25,844,-62,6,12
3180,-217,-108,1007,-34,-63,0
3181,281,-226,1051,-20,-78,-15
3182,442,-136,1009,51,-27,6
3183,247,48,1012,63,33,16
3184,-125,124,995,17,62,9
3185,-452,94,895,-18,38,4
3186,-329,35,969,-18,-36,-5
3187,83,-68,1029,-31,-79,-3
3188,410,-99,1048,1,-49,4
3189,375,-27,1025,12,12,9
3190,37,38,1011,1,62,6
3191,-345,45,917,-22,58,8
3192,-434,-5,901,-28,-3,7
3193,-162,-101,984,-24,-65,-5
3194,296,-148,1049,14,-75,-9
3195,430,-51,1057,49,-22,5
3196,231,82,1002,38,37,10
3197,-141,137,976,-3,64,8
3198,-441,93,917,-38,35,8
3199,-314,-25,950,-54,-35,-2
3200,77,-140,1021,-30,-74,-11
3201,413,-141,1049,13,-49,3
3202,364,-42,1014,26,13,14
3203,22,54,1004,22,63,6
3204,-354,77,931,-12,55,6
3205,-436,27,907,-25,-3,4
3206,-148,-61,985,-22,-67,-5
3207,320,-116,1055,3,-75,-6
3208,438,-58,1058,27,-19,6
3209,232,54,1005,29,42,7
3210,-154,111,979,-8,67,7
3211,-458,69,899,-39,35,10
3212,-333,-42,927,-47,-36,-2
3213,67,-140,1034,-20,-78,-11
3214,420,-138,1057,22,-53,2
3215,377,-23,1014,35,10,13
3216,47,91,1007,29,61,7
3217,-336,98,934,-20,58,7
3218,-446,37,908,-31,-1,4
3219,-158,-60,989,-32,-65,-5
3220,301,-130,1055,-5,-75,-5
3221,441,-88,1040,19,-21,8
3222,243,28,1013,30,41,9
3223,-155,95,991,-4,68,7
3224,-456,52,883,-36,36,9
3225,-337,-30,933,-31,-35,-2
3226,67,-119,1034,-18,-79,-9
3227,420,-131,1058,15,-54,1
3228,377,-16,1018,39,9,10
3229,61,102,1013,25,60,6
3230,-326,93,928,-31,59,8
3231,-448,33,904,-34,2,2
3232,-166,-65,1000,-35,-63,-6
3233,285,-145,1048,-12,-74,-6
3234,438,-98,1035,23,-22,6
3235,221,97,950,41,38,11
3236,-473,-135,10,-477,47,24
3237,-652,-1013,780,985,-36,-26
3238,-244,1510,1733,1407,-162,67
3239,-117,448,285,-1199,-153,32
3240,597,-144,624,-30,-79,-141
3241,823,236,975,171,-84,59
3242,423,548,863,223,84,95
3243,-146,1015,1453,61,143,14
3244,-430,106,676,-486,78,-112
3245,125,186,752,-75,11,-111
3246,122,338,1563,-190,55,22
3247,-184,-604,1073,-584,71,47
3248,111,-773,671,-180,27,-5
3249,-449,-352,1047,12,52,26
3250,-244,-542,680,-204,-34,44
3251,-141,-418,1035,1,-46,-18
3252,58,0,1019,155,-62,-68
3253,466,344,1170,117,-62,3
3254,242,506,992,38,2,47
3255,55,671,938,-10,49,13
3256,-265,386,1218,-236,62,-22
3257,-277,-188,855,-331,1,-8
3258,14,-287,935,-162,-35,25
3259,178,-468,1026,-144,-29,17
3260,332,-537,878,-78,4,10
3261,0,-224,1025,112,52,11
3262,-295,48,932,113,44,4
3263,-355,159,901,83,-6,12
3264,-238,170,966,59,-58,-11
3265,251,47,1085,16,-85,-30
3266,458,13,1080,43,-33,-4
3267,362,-97,897,79,26,14
3268,11,17,1066,212,72,24
3269,-438,3,960,36,63,21
3270,-515,-215,825,-10,-3,-7
3271,-222,-154,978,97,-77,-16
3272,309,-24,1110,116,-103,-2
3273,485,-30,1063,55,-38,8
3274,245,154,974,106,30,16
3275,-40,348,1017,65,50,-1
3276,-304,218,970,-79,51,-21
3277,-330,-8,906,-113,-5,6
3278,7,-89,1054,-51,-57,13
3279,271,-197,1077,-60,-39,-9
3280,324,-241,912,-17,5,2
3281,47,-69,1003,52,47,26
3282,-318,15,951,18,49,12
3283,-405,-23,894,3,-5,-12
3284,-159,-2,981,41,-64,-5
3285,284,32,1107,39,-81,4
3286,425,-1,1040,7,-23,8
3287,230,133,997,40,38,13
3288,-82,197,1033,-25,60,1
3289,-373,15,885,-107,43,3
3290,-345,-94,900,-57,-19,9
3291,6,-199,1055,-40,-67,-7
3292,346,-254,1014,8,-52,-5
3293,351,-84,1003,70,3,13
3294,62,93,1019,64,49,14
3295,-288,132,940,2,52,6
3296,-422,100,907,-11,-1,-1
3297,-153,30,1021,-21,-62,-4
3298,278,-89,1050,-35,-73,-1
3299,432,-89,1033,4,-19,6
3300,264,13,1027,16,40,7
3301,-131,40,974,-23,72,9
3302,-448,11,881,-34,40,10
3303,-379,-40,932,-22,-31,-2
3304,9,-149,1014,-22,-80,-10
3305,396,-140,1061,41,-63,-2
3306,404,8,1042,57,0,10
3307,109,123,992,32,54,8
3308,-262,147,952,-19,63,4
3309,-452,87,906,-41,10,6
3310,-213,-46,996,-55,-54,-3
3311,222,-167,1044,-32,-76,-5
3312,431,-132,1034,19,-29,8
3313,283,-21,1014,25,33,11
3314,-100,46,964,8,67,7
3315,-431,70,910,-9,41,7
3316,-376,14,936,-21,-29,0
3317,-1,-89,1014,-23,-77,-7
3318,385,-97,1067,25,-64,-4
3319,412,-8,1036,27,0,9
3320,119,82,992,17,55,6
3321,-258,104,951,-23,64,7
3322,-458,37,906,-45,13,7
3323,-237,-93,971,-46,-53,-4
3324,202,-167,1042,-6,-78,-8
3325,432,-115,1049,32,-33,7
3326,297,5,1001,36,31,11
3327,-78,105,984,20,66,5
3328,-413,98,919,-22,42,8
3329,-379,21,925,-34,-26,2
3330,-9,-85,1028,-29,-75,-7
3331,381,-132,1057,4,-59,-2
3332,405,-53,1024,24,2,9
3333,118,61,998,26,56,8
3334,-262,85,943,-21,64,10
3335,-466,35,895,-34,12,7
3336,-238,-62,984,-32,-55,-6
3337,205,-138,1052,-5,-80,-8
3338,178,198,178,-255,-44,24
3339,101,-1378,438,319,3,-27
3340,-160,1186,1564,2028,-72,41
3341,-373,787,690,-882,-73,78
3342,-303,-266,52,-341,-9,-180
3343,411,186,1002,368,-174,-10
3344,592,522,995,228,-69,145
3345,293,1012,1459,219,81,94
3346,-117,240,896,-384,50,-37
3347,305,30,558,-53,32,-141
3348,-75,524,1010,-14,72,-64
3349,-288,437,988,-372,117,4
3350,-109,-297,1652,-511,34,46
3351,171,-563,406,-205,15,-2
3352,15,-369,1351,-118,41,23
3353,-290,-966,640,-414,35,44
3354,-210,-500,814,76,-4,16
3355,-430,-20,1079,85,-25,-49
3356,234,17,980,10,-102,-26
3357,377,396,1097,134,-52,43
3358,223,664,1057,46,1,20
3359,246,504,1075,-144,37,-19
3360,-215,169,1007,-249,83,-16
3361,-308,-119,903,-242,14,24
3362,-150,-391,987,-226,-21,22
3363,32,-601,892,-147,-30,-12
3364,341,-462,960,26,-23,7
3365,138,-134,993,133,23,28
3366,-169,143,972,140,46,0
3367,-346,213,963,72,12,-1
3368,-259,197,934,50,-46,-6
3369,144,99,1074,31,-77,-14
3370,422,-26,1062,7,-40,0
3371,369,-30,1015,35,22,12
3372,26,-67,973,29,68,16
3373,-364,-193,841,104,58,17
3374,-498,-41,996,92,-5,4
3375,-235,-240,898,-24,-69,-13
3376,236,-164,1041,127,-94,-14
3377,452,79,1137,159,-49,6
3378,273,175,1007,63,14,27
3379,5,321,943,70,45,6
3380,-263,313,981,-40,52,-25
3381,-324,57,1001,-132,4,-3
3382,-21,-137,969,-104,-50,17
3383,251,-157,1091,-26,-36,-2
3384,317,-259,955,-66,4,1
3385,85,-196,936,26,46,24
3386,-313,13,975,63,52,11
3387,-422,-12,911,3,-2,-11
3388,-187,-40,932,34,-63,-2
3389,223,60,1119,74,-85,1
3390,445,14,1076,5,-35,7
3391,264,118,960,31,31,18
3392,1,255,1031,10,56,-3
3393,-327,68,944,-121,56,-4
3394,-401,-105,880,-87,-5,11
3395,-79,-180,1048,-34,-60,-5
3396,296,-264,1010,-16,-58,-9
3397,387,-161,973,51,-6,13
3398,124,50,1028,76,44,17
3399,-250,137,976,23,54,3
3400,-430,94,899,-14,8,-3
3401,-206,58,984,-1,-57,1
3402,219,-30,1073,-26,-79,0
3403,445,-96,1030,-15,-28,3
3404,309,3,1023,18,34,7
3405,-58,68,998,-16,69,10
3406,-419,10,883,-53,49,13
3407,-430,-63,905,-30,-20,0
3408,-67,-158,1033,-16,-76,-13
3409,362,-172,1033,28,-70,-4
3410,428,-19,1037,66,-9,10
3411,176,129,1012,47,46,9
3412,-214,165,959,-11,65,4
3413,-468,109,929,-38,22,2
3414,-251,-15,967,-54,-50,-1
3415,158,-141,1050,-40,-75,-5
3416,433,-156,1019,2,-37,5
3417,326,-44,1012,26,27,12
3418,-51,47,995,13,65,8
3419,-406,52,903,-14,46,10
3420,-417,21,928,-12,-19,3
3421,-64,-76,1018,-21,-75,-9
3422,368,-119,1050,13,-70,-5
3423,431,-9,1042,41,-7,8
3424,180,93,1007,17,49,10
3425,-215,108,954,-24,66,7
3426,-472,50,907,-46,24,6
3427,-275,-69,967,-47,-48,-2
3428,146,-171,1034,-19,-77,-8
3429,436,-138,1036,29,-41,5
3430,335,-7,1016,38,23,11
3431,-33,91,991,19,64,4
3432,-392,101,925,-15,48,7
3433,-408,43,934,-29,-19,4
3434,-95,53,855,-34,-73,-4
3435,120,-761,-323,-297,-63,4
3436,263,-479,1305,2084,-80,-49
3437,63,1664,1685,1035,-84,129
3438,-296,218,-29,-1810,5,11
3439,-169,-599,-118,44,12,-190
3440,179,570,886,562,-155,38
3441,289,995,1302,361,-39,84
3442,116,772,1410,-89,22,70
3443,218,56,673,-308,26,-33
3444,475,436,988,102,16,-45
3445,-88,535,796,-246,121,-38
3446,-288,332,1045,-433,141,-26
3447,-233,-464,1499,-506,39,13
3448,128,-665,469,-239,8,22
3449,-86,-660,1319,-213,39,16
3450,-84,-1013,614,-310,11,29
3451,-162,-288,916,124,5,38
3452,-489,67,1032,34,-6,-53
3453,142,151,941,14,-99,-30
3454,269,561,1121,112,-59,38
3455,393,607,1101,-60,-17,15
3456,370,403,1108,-195,45,9
3457,-207,107,1027,-290,91,5
3458,-371,-192,874,-280,38,20
3459,-372,-408,921,-259,-14,22
3460,-70,-600,838,-181,-54,-12
3461,381,-498,1002,-5,-60,-4
3462,318,-176,998,124,4,12
3463,62,205,1046,153,46,7
3464,-270,342,978,53,42,15
3465,-416,296,910,-3,-4,1
3466,-136,109,1023,-49,-63,-20
3467,268,-97,1053,-51,-74,-11
3468,476,-206,1000,-11,-24,6
3469,281,-426,830,159,46,13
3470,-151,-59,1121,245,70,22
3471,-503,-163,837,64,39,19
3472,-477,-120,865,160,-33,-4
3473,-70,92,1074,183,-104,-19
3474,408,97,1171,109,-96,-10
3475,389,86,1004,60,-32,19
3476,232,333,997,128,15,14
3477,-24,348,1001,-36,56,-15
3478,-253,132,876,-134,61,-11
3479,-251,-19,1098,-116,-1,17
3480,51,-187,1015,-99,-37,5
3481,206,-279,985,-63,-14,-6
3482,194,-268,911,3,12,18
3483,-64,-107,992,54,37,30
3484,-402,-24,926,40,30,-9
3485,-279,-15,943,45,-38,-19
3486,25,45,1004,61,-78,11
3487,364,81,1119,49,-60,9
3488,358,87,1009,8,1,13
3489,132,240,1025,28,45,0
3490,-141,159,988,-89,61,-14
3491,-408,-48,876,-114,32,13
3492,-260,-155,972,-65,-35,11
3493,97,-292,1029,-44,-62,-18
3494,378,-261,975,38,-36,-3
3495,296,-43,1006,86,16,23
3496,-62,123,1018,59,54,11
3497,-387,141,930,8,38,-5
3498,-360,104,936,-6,-28,-3
3499,-10,35,1033,-21,-75,3
3500,395,-76,1053,-34,-59,3
3501,421,-57,1028,-4,5,7
3502,143,33,1034,0,59,7
3503,-247,26,920,-41,68,11
3504,-499,-21,883,-34,22,9
3505,-296,-123,955,-31,-53,-6
3506,152,-186,1035,12,-83,-13
3507,446,-92,1062,65,-47,1
3508,356,56,1003,58,18,12
3509,6,181,997,29,62,6
3510,-379,169,961,-30,54,2
3511,-415,47,925,-64,-11,2
3512,-91,-71,1015,-45,-66,-3
3513,339,-172,1034,-30,-66,-2
3514,430,-137,1015,9,-7,10
3515,160,-9,1009,30,50,10
3516,-229,56,958,3,62,9
3517,-471,31,890,-12,20,8
3518,-282,-22,957,-10,-52,-3
3519,159,-87,1064,0,-82,-9
3520,444,-80,1048,21,-44,1
3521,350,42,1011,35,21,10
3522,8,133,1002,4,65,8
3523,-383,85,930,-51,56,8
3524,-430,-18,912,-52,-11,0
3525,-101,-123,1012,-33,-68,-8
3526,334,-186,1031,-2,-69,-3
3527,433,-94,1015,41,-11,10
3528,175,58,1024,44,48,10
3529,-214,110,964,-3,63,6
3530,-459,75,904,-24,22,5
3531,-272,2,966,-26,-49,-1
3532,154,-104,1048,-25,-77,-6
3533,438,-115,1037,11,-39,3
3534,343,4,1017,29,24,9
3535,-241,755,669,-296,44,12
3536,-739,-1147,-329,-365,-15,-20
3537,-235,1138,1446,1994,-111,15
3538,-100,750,492,-759,-193,125
3539,160,-10,103,-491,-44,-124
3540,886,402,1446,392,-104,-40
3541,644,332,632,-65,-25,134
3542,-23,1084,1158,235,204,32
3543,-555,683,1218,-440,83,-76
3544,223,-143,411,-435,-1,-135
3545,217,185,1577,-76,90,43
3546,-403,-550,1059,-587,77,67
3547,172,-1084,796,-311,13,-29
3548,-537,-462,783,63,72,29
3549,-227,-263,866,-56,-61,48
3550,-70,-376,1029,-107,-58,-15
3551,-26,111,985,156,-43,-81
3552,547,443,1236,73,-80,-7
3553,366,562,941,-11,13,56
3554,108,677,1008,-68,75,27
3555,-348,107,1109,-288,65,-11
3556,-422,-253,867,-177,12,-12
3557,-131,-317,921,-117,-48,17
3558,237,-592,914,-86,-66,21
3559,443,-439,1011,20,-8,13
3560,91,-170,1067,66,56,-7
3561,-207,97,951,88,52,5
3562,-390,385,917,80,15,33
3563,-313,221,929,-22,-44,-7
3564,115,-25,1075,-22,-78,-40
3565,434,-58,1090,18,-46,-12
3566,455,-42,1007,25,11,16
3567,130,-23,966,36,72,35
3568,-356,-162,861,50,80,29
3569,-551,-393,819,217,16,-5
3570,-382,-235,941,259,-67,-9
3571,143,-263,1006,226,-109,-4
3572,493,-38,1125,286,-71,1
3573,278,233,1095,231,7,-5
3574,-15,422,1073,158,20,-11
3575,-205,350,904,14,17,-20
3576,-236,283,841,-32,3,2
3577,17,217,1164,-97,-30,36
3578,268,-68,1143,-173,-27,16
3579,382,-202,927,-81,15,-15
3580,59,-192,1001,-65,70,21
3581,-286,-258,880,-61,58,49
3582,-504,-252,833,4,17,11
3583,-354,-218,975,68,-53,-37
3584,185,-146,1028,98,-104,-10
3585,434,58,1088,143,-61,18
3586,301,212,1056,92,0,4
3587,63,315,981,46,35,-16
3588,-220,299,952,-37,51,-29
3589,-261,153,951,-108,14,4
3590,-79,-28,1054,-119,-33,29
3591,222,-194,1042,-91,-34,-4
3592,273,-270,988,-52,5,-11
3593,99,-212,930,2,40,27
3594,-238,-74,942,36,45,30
3595,-444,-71,907,18,10,-11
3596,-214,-74,960,46,-58,-18
3597,179,26,1067,83,-87,2
3598,427,61,1101,48,-47,11
3599,290,145,954,33,16,20
3600,32,297,1038,20,51,-6
3601,-278,138,992,-114,59,-19
3602,-364,-88,862,-117,4,14
3603,-110,-134,1028,-38,-49,12
3604,243,-272,1027,-58,-50,-13
3605,368,-248,961,32,-10,4
3606,124,-9,1018,83,39,22
3607,-234,105,984,34,50,8
3608,-419,75,887,-2,9,-2
3609,-227,69,974,17,-54,-4
3610,193,7,1085,-10,-79,-2
3611,449,-55,1035,-12,-35,5
3612,324,52,1019,19,30,12
3613,-13,104,1017,-27,66,8
3614,-398,7,900,-72,55,7
3615,-447,-74,907,-42,-10,3
3616,-118,-180,996,-30,-70,-8
3617,337,-213,1023,23,-73,-5
3618,439,-63,1039,67,-17,8
3619,193,98,1025,57,44,9
3620,-193,172,975,9,62,4
3621,-457,136,912,-28,26,5
3622,-277,25,962,-48,-45,1
3623,138,-112,1037,-46,-76,-5
3624,439,-148,1043,-6,-42,2
3625,352,-60,1011,16,22,10
3626,-13,30,995,9,67,10
3627,-401,41,910,-19,53,12
3628,-449,-9,913,-20,-12,3
3629,-118,-88,994,-11,-74,-9
3630,350,-108,1065,24,-75,-6
3631,451,-24,1042,37,-17,8
3632,215,95,1001,30,46,8
3633,-175,145,990,-13,66,5
3634,-470,68,904,-56,32,6
3635,-304,-52,943,-49,-42,-1
3636,80,40,1020,-29,-76,-7
3637,187,-41,176,-1150,-85,-8
3638,65,909,1483,1300,-13,-19
3639,69,145,-392,-361,-76,149
3640,-323,142,-240,53,1,-16
3641,-313,1374,1254,357,-31,-208
3642,631,-133,0,-285,-189,102
3643,375,1135,1132,14,75,136
3644,-109,1222,1608,-278,86,12
3645,628,-129,767,-430,0,-48
3646,459,56,902,-285,162,23
3647,-987,-714,1106,-332,156,90
3648,-317,-1320,850,-155,7,-24
3649,-489,-676,935,37,-17,-7
3650,123,-609,660,66,-99,8
3651,622,32,1294,163,-56,48
3652,-221,585,1039,125,49,-49
3653,-43,503,1052,33,-10,-65
3654,-124,769,963,-29,-19,46
3655,88,339,913,-160,-47,35
3656,399,-246,1174,-171,-10,-15
3657,136,-364,1036,-112,53,-5
3658,-54,-327,954,-59,53,36
3659,-241,-188,875,-34,37,66
3660,-419,-280,751,-22,10,34
3661,-274,-373,1018,50,-53,-33
3662,182,-54,1146,90,-83,-41
3663,457,124,944,77,-44,15
3664,370,366,1079,68,21,22
3665,-43,336,1046,-5,67,5
3666,-436,153,950,-45,51,-5
3667,-345,-12,927,-45,-24,-1
3668,-4,-281,895,-41,-66,10
3669,337,-498,952,47,-53,-3
3670,372,-666,864,329,-1,-13
3671,73,-121,1099,504,48,6
3672,-264,107,969,340,43,33
3673,-451,268,944,202,1,22
3674,-308,307,1009,106,-63,-26
3675,142,249,1196,67,-103,-32
3676,405,86,1039,-22,-74,12
3677,451,168,954,30,-11,39
3678,215,203,974,-56,66,17
3679,-204,58,1051,-132,103,-16
3680,-435,-228,933,-157,35,-2
3681,-247,-211,890,0,-28,13
3682,49,-217,1066,-24,-52,-2
3683,355,-319,890,9,-36,7
3684,139,-14,1067,135,20,11
3685,-162,160,1027,74,34,-14
3686,-256,121,890,0,2,7
3687,-190,153,936,27,-35,17
3688,151,79,1127,-27,-62,-5
3689,377,-81,1043,-56,-24,-9
3690,268,16,1015,12,31,3
3691,-20,54,980,-42,58,20
3692,-384,-47,895,-72,50,19
3693,-440,-155,907,-45,-10,-10
3694,-95,-215,994,7,-72,-18
3695,343,-161,1031,58,-75,4
3696,449,-8,1036,78,-18,15
3697,191,155,1028,66,46,6
3698,-203,222,1007,5,63,-5
3699,-439,142,909,-51,24,1
3700,-262,34,935,-59,-43,9
3701,132,-128,1049,-69,-71,-1
3702,428,-225,1032,-27,-39,-2
3703,334,-104,1015,35,23,6
3704,-19,19,997,23,64,13
3705,-385,36,889,-9,50,15
3706,-459,15,919,0,-12,-2
3707,-124,-50,1021,-1,-77,-14
3708,350,-83,1053,17,-78,-5
3709,455,-3,1040,40,-20,9
3710,246,107,1001,23,43,13
3711,-168,140,1003,-24,74,4
3712,-475,44,909,-60,37,2
3713,-315,-58,922,-48,-38,3
3714,67,-157,1037,-30,-75,-5
3715,426,-204,1017,5,-51,0
3716,356,-48,1026,57,14,11
3717,9,90,1018,38,60,8
3718,-345,101,915,-12,50,8
3719,-434,71,918,-13,-7,4
3720,-122,-25,1017,-35,-69,-7
3721,328,-127,1044,-15,-70,-6
3722,439,-53,1040,26,-15,8
3723,230,43,1011,15,45,13
3724,-188,62,967,-23,70,9
3725,-481,32,897,-32,32,7
3726,-323,-57,948,-33,-42,-4
3727,90,-151,1016,-13,-80,-7
3728,440,-124,1050,33,-51,3
3729,375,9,1034,43,14,10
3730,28,108,998,21,62,5
3731,-351,123,938,-15,56,5
3732,-438,54,920,-42,-4,7
3733,-141,-78,992,-48,-66,-6
3734,314,-162,1037,-12,-71,-8
3735,441,-87,1052,30,-18,7
3736,220,13,999,22,44,11
3737,-185,81,972,5,67,8
3738,-472,68,902,-23,31,6
3739,-321,-29,941,-34,-41,-4
3740,77,-14,1014,-5,-80,-10
3741,158,243,345,-928,-80,14
3742,121,242,1202,1153,12,-30
3743,-28,593,415,215,-93,113
3744,-192,-39,-38,-366,-43,17
3745,-285,657,922,497,24,-195
3746,352,312,737,-124,-194,57
3747,475,565,745,98,-12,133
3748,-76,1234,1530,17,90,41
3749,210,13,593,-527,-30,-39
3750,502,453,909,-4,40,-75
3751,-181,689,836,-345,150,-40
3752,-160,-83,1323,-599,122,9
3753,-243,-931,1086,-327,35,26
3754,42,-512,637,-150,21,7
3755,-187,-1104,1060,-131,19,28
3756,-1,-561,741,77,-8,64
3757,-371,-154,1064,67,2,-15
3758,-267,-112,917,103,-40,-91
3759,265,548,1093,135,-97,27
3760,312,611,1037,19,-45,40
3761,496,527,1132,-48,6,-11
3762,70,327,1090,-146,82,-1
3763,-301,-58,921,-167,65,19
3764,-384,-203,899,-132,14,38
3765,-286,-537,835,-109,-28,9
3766,106,-623,967,-14,-64,-32
3767,365,-412,1088,63,-43,-6
3768,268,-51,957,108,17,23
3769,-20,271,1025,107,46,21
3770,-349,343,941,48,36,11
3771,-366,255,954,21,-19,-14
3772,-42,72,1031,-4,-72,-20
3773,395,-115,1020,13,-68,0
3774,478,-449,842,143,-2,9
3775,175,-194,1108,319,63,10
3776,-276,-192,945,185,74,21
3777,-535,-94,823,233,27,17
3778,-413,122,997,218,-56,-6
3779,88,108,1116,99,-107,-22
3780,417,57,1127,83,-78,-4
3781,351,181,998,95,-22,21
3782,192,330,1011,60,26,12
3783,-85,224,889,-89,70,-13
3784,-303,85,1030,-108,52,-3
3785,-188,-146,1024,-138,-20,12
3786,114,-219,991,-46,-31,-2
3787,200,-246,985,-37,-9,2
3788,169,-226,913,22,16,30
3789,-215,-32,1011,68,43,13
3790,-375,14,929,42,9,-22
3791,-157,-4,926,28,-53,1
3792,135,87,1044,71,-74,14
3793,411,71,1121,13,-40,4
3794,284,96,997,6,25,6
3795,15,217,1032,3,55,-2
3796,-270,67,926,-107,53,3
3797,-413,-87,882,-89,7,17
3798,-159,-229,1000,-64,-53,-7
3799,262,-302,1016,4,-67,-15
3800,397,-155,1008,74,-21,12
3801,213,49,1017,82,34,22
3802,-183,165,998,39,61,5
3803,-440,152,913,-9,24,-4
3804,-273,84,957,-25,-47,-1
3805,127,-23,1034,-38,-78,2
3806,439,-111,1064,-30,-44,4
3807,366,-74,1025,-2,22,6
3808,9,19,1013,4,69,6
3809,-354,18,892,-32,56,14
3810,-472,-27,890,-24,-1,7
3811,-188,-121,990,-18,-67,-11
3812,294,-153,1055,27,-83,-10
3813,449,-46,1061,56,-29,6
3814,280,100,996,50,32,12
3815,-107,186,988,7,68,6
3816,-447,126,939,-50,43,2
3817,-339,-7,919,-63,-29,0
3818,35,-104,1041,-37,-74,-4
3819,395,-180,1034,-21,-53,1
3820,385,-111,1007,25,8,12
3821,40,33,1017,39,60,8
3822,-318,62,925,-11,55,9
3823,-445,36,892,-12,0,5
3824,-179,-25,998,-12,-65,-5
3825,284,-98,1067,-2,-78,-8
3826,435,-55,1049,28,-24,3
3827,271,67,1009,30,35,10
3828,-112,112,980,-16,69,10
3829,-444,52,899,-49,42,8
3830,-353,-50,934,-49,-29,-3
3831,29,-156,1023,-27,-75,-9
3832,392,-164,1038,21,-58,1
3833,386,-35,1029,49,4,11
3834,63,86,1005,32,57,7
3835,-301,109,941,-12,57,5
3836,-438,70,910,-24,2,4
3837,-177,-32,994,-39,-61,-3
3838,271,-138,1047,-20,-76,-7
3839,430,-91,1043,23,-22,5
3840,261,16,1018,24,37,9
3841,-129,69,966,-5,68,8
3842,-453,89,896,-23,37,8
3843,-744,627,696,-1156,-127,4
3844,-64,285,792,492,-113,-23
3845,383,-271,-239,-96,-154,91
3846,380,445,416,456,-121,59
3847,241,985,1164,104,61,-161
3848,403,-123,303,-8,-58,25
3849,70,825,710,129,58,78
3850,-454,1181,1286,-171,126,-41
3851,27,266,908,-350,-53,-47
3852,641,576,1039,-227,6,-38
3853,282,51,1158,-428,149,49
3854,-410,-895,1024,-309,125,43
3855,-352,-781,909,-145,45,5
3856,-593,-932,698,-93,22,17
3857,-58,-841,622,62,-91,29
3858,303,-221,1416,156,-75,-1
3859,188,151,1016,149,-1,-61
3860,103,709,1035,141,1,-13
3861,-107,908,979,13,10,31
3862,-121,556,895,-103,0,6
3863,-44,120,1186,-173,-23,-20
3864,298,-372,1012,-172,-24,-9
3865,260,-360,1017,-82,20,40
3866,95,-386,926,-67,55,47
3867,-180,-287,927,-13,71,36
3868,-510,-233,830,14,38,4
3869,-415,-146,876,75,-41,-27
3870,17,-4,1035,89,-109,-3
3871,441,34,1110,67,-81,2
3872,449,137,1070,73,0,-26
3873,114,285,1051,68,54,-10
3874,-167,74,806,43,46,39
3875,-374,-81,878,214,17,29
3876,-266,-258,1055,98,-36,-23
3877,136,-546,942,124,-66,-28
3878,303,-207,977,355,-36,9
3879,240,219,1114,345,4,19
3880,-62,311,1044,119,37,11
3881,-359,289,919,29,28,-12
3882,-252,251,1031,4,-34,-17
3883,98,82,1020,-71,-71,8
3884,400,-37,1048,-59,-39,23
3885,364,-93,1029,-64,24,14
3886,18,-110,1016,-45,73,2
3887,-338,-139,865,-45,61,13
3888,-472,-91,877,15,1,16
3889,-229,-177,948,-13,-63,-2
3890,235,-181,1064,70,-87,-16
3891,412,20,1092,113,-39,-3
3892,274,162,1033,64,17,5
3893,-14,233,921,22,48,6
3894,-317,256,966,-24,50,-2
3895,-357,53,1011,-117,-9,-2
3896,29,-159,960,-79,-60,1
3897,286,-155,1067,-13,-41,2
3898,348,-187,981,-28,2,11
3899,69,-121,967,18,53,20
3900,-340,22,951,41,57,5
3901,-401,10,910,4,-7,-3
3902,-170,-26,953,13,-63,3
3903,254,2,1104,43,-81,-4
3904,442,-12,1062,9,-27,-1
3905,251,101,1000,32,35,9
3906,-58,184,989,-13,61,9
3907,-383,63,916,-84,46,8
3908,-377,-86,917,-75,-18,2
3909,-16,-205,1031,-36,-69,-11
3910,342,-218,1026,16,-57,-3
3911,384,-84,1002,55,-2,16
3912,90,68,1009,51,51,12
3913,-282,128,961,12,57,3
3914,-431,94,907,-15,3,0
3915,-186,23,998,-22,-58,-2
3916,248,-78,1051,-26,-78,-3
3917,436,-93,1045,0,-25,3
3918,278,2,1024,16,37,6
3919,-99,58,972,-11,68,9
3920,-432,39,896,-35,43,13
3921,-391,-46,919,-37,-26,1
3922,-17,-154,1018,-19,-76,-12
3923,379,-134,1065,41,-65,-2
3924,413,-11,1028,49,-2,11
3925,127,114,992,36,52,8
3926,-251,147,966,-14,64,6
3927,-453,68,911,-48,13,4
3928,-221,-47,983,-45,-52,-3
3929,203,-145,1042,-25,-76,-5
3930,432,-143,1030,11,-31,6
3931,292,-33,1004,31,32,9
3932,-90,69,989,18,65,7
3933,-414,64,906,-22,39,9
3934,-383,10,926,-21,-26,1
3935,-15,-78,1027,-15,-76,-10
3936,384,-115,1064,14,-65,-3
3937,409,-21,1027,31,1,8
3938,133,89,999,20,54,7
3939,-249,101,955,-28,65,8
3940,-468,31,892,-45,16,5
3941,-243,-73,981,-36,-52,-5
3942,189,-160,1047,-12,-79,-6
3943,435,-122,1029,31,-35,7
3944,303,15,1013,42,28,11
3945,-71,141,990,14,64,7
3946,-736,1016,1081,-1149,-28,4
3947,-229,-415,406,-511,-131,-26
3948,321,-411,25,217,-46,99
3949,258,383,320,287,-40,51
3950,441,995,1037,-19,44,-212
3951,594,12,629,-241,37,-59
3952,-418,517,652,-72,112,123
3953,-893,14,1155,-225,37,-45
3954,-114,-662,721,-141,-80,-23
3955,50,-281,1010,-23,-96,50
3956,717,-747,985,-48,-64,4
3957,279,-227,1126,96,67,-9
3958,-357,162,942,75,68,-24
3959,-311,322,941,57,7,30
3960,-408,526,893,14,-39,29
3961,128,46,1112,-67,-94,-53
3962,486,-59,1174,-57,-44,-22
3963,383,15,942,-53,12,26
3964,124,-57,979,-43,60,48
3965,-435,-82,901,-41,77,36
3966,-545,-250,923,-29,1,-25
3967,-187,-286,981,14,-70,-29
3968,315,-102,979,49,-85,4
3969,581,-18,1051,55,-29,13
3970,275,133,1057,56,62,3
3971,-213,218,1028,27,86,6
3972,-458,178,924,-11,31,22
3973,-337,7,873,-25,-30,11
3974,62,-264,1015,-19,-67,-18
3975,452,-411,1043,40,-46,-14
3976,439,-319,946,148,27,9
3977,117,-157,878,280,77,26
3978,-341,39,914,372,82,34
3979,-615,158,963,367,18,-3
3980,-342,199,1073,226,-69,-36
3981,200,136,1120,94,-108,-9
3982,459,27,1062,35,-65,33
3983,383,174,939,71,0,46
3984,122,306,1079,15,61,-10
3985,-203,49,975,-147,80,-39
3986,-370,-171,867,-114,22,17
3987,-185,-108,1045,-2,-34,24
3988,124,-254,1032,-65,-45,-19
3989,314,-279,896,30,-17,-2
3990,105,21,1027,112,21,27
3991,-183,121,1001,38,33,2
3992,-321,59,903,-3,4,-10
3993,-153,77,975,30,-46,1
3994,215,44,1108,-1,-68,4
3995,382,-34,1013,-28,-19,6
3996,246,61,1027,13,38,6
3997,-84,67,992,-46,61,9
3998,-407,-27,890,-66,40,13
3999,-378,-121,911,-42,-23,-1
4000,-25,-217,1009,-14,-72,-12
4001,367,-197,1035,47,-63,-1
4002,399,-9,1038,85,-3,10
4003,123,156,1023,59,48,7
4004,-243,193,945,-5,58,4
4005,-449,137,930,-38,12,4
4006,-207,0,984,-58,-55,-2
4007,208,-149,1047,-52,-73,-3
4008,436,-171,1018,-2,-29,4
4009,317,-61,1015,25,33,12
4010,-86,25,980,8,69,12
4011,-440,37,901,-8,45,8
4012,-418,3,932,-7,-28,-2
4013,-53,-72,1022,-8,-79,-9
4014,392,-107,1049,17,-71,-5
4015,446,-5,1038,41,-7,8
4016,177,121,1013,25,52,9
4017,-217,130,962,-30,69,6
4018,-487,49,902,-53,24,5
4019,-276,-67,963,-48,-48,-1
4020,145,-184,1033,-33,-76,-7
4021,433,-163,1032,29,-41,3
4022,339,-19,1015,44,23,12
4023,-40,89,997,26,64,9
4024,-395,100,920,-13,46,7
4025,-408,49,928,-21,-19,2
4026,-66,-56,1025,-31,-71,-7
4027,367,-126,1042,-5,-67,-3
4028,428,-42,1036,28,-5,7
4029,169,49,1010,14,51,10
4030,-227,75,949,-20,65,10
4031,-478,36,904,-32,22,6
4032,-278,-76,964,-39,-50,-5
4033,149,-156,1029,-4,-80,-9
4034,447,-102,1050,40,-43,5
4035,341,15,1015,34,23,10
4036,-20,114,991,17,63,6
4037,-392,118,939,-22,49,7
4038,-412,26,923,-44,-16,3
4039,-78,-100,999,-40,-69,-6
4040,357,-151,1050,0,-67,-4
4041,433,-74,1037,26,-6,9
4042,163,32,998,24,50,9
4043,-295,699,909,-1002,21,4
4044,-680,-238,299,-306,91,-106
4045,-83,-351,-258,69,-174,30
4046,95,1145,693,571,-159,153
4047,298,1108,812,-44,-43,-126
4048,1038,-209,-108,-228,-30,-5
4049,427,904,1006,-24,97,107
4050,-438,502,1316,-321,225,-55
4051,-330,-524,851,-256,57,5
4052,-493,-22,890,-136,24,41
4053,-97,-1021,955,-180,-54,4
4054,244,-712,849,33,-17,18
4055,-35,-189,1152,88,-24,-4
4056,-36,-131,850,78,7,-12
4057,-159,455,975,117,-19,42
4058,-135,375,1003,18,-53,-10
4059,281,233,1163,-14,-56,-27
4060,291,340,1070,-53,-4,8
4061,301,23,990,-118,21,22
4062,-121,-6,967,-84,72,40
4063,-462,-258,897,-104,35,13
4064,-353,-409,903,-42,-26,-18
4065,-47,-307,925,14,-72,-4
4066,392,-246,1034,54,-74,11
4067,396,7,1073,80,-5,12
4068,39,248,1050,65,52,0
4069,-257,309,978,14,35,15
4070,-381,258,892,-30,-8,27
4071,-151,-40,967,-59,-56,-10
4072,241,-262,1073,-41,-71,-24
4073,407,-250,1033,-4,-24,4
4074,284,-131,972,27,30,25
4075,-67,-78,900,58,63,35
4076,-407,-121,877,147,50,9
4077,-434,-128,940,157,-14,-28
4078,-87,-198,952,207,-77,-20
4079,359,-84,1001,326,-77,-3
4080,431,146,1110,372,-21,-4
4081,153,328,1134,228,39,-2
4082,-180,331,981,40,51,-6
4083,-360,224,933,-40,25,-7
4084,-245,36,972,-97,-30,11
4085,127,-170,1044,-88,-63,4
4086,379,-238,1039,-29,-30,-8
4087,296,-164,971,13,25,11
4088,-40,-70,961,15,60,26
4089,-418,6,922,31,45,13
4090,-424,-1,937,16,-19,-11
4091,-85,-42,989,24,-79,-10
4092,374,1,1085,57,-79,2
4093,447,35,1048,25,-14,16
4094,192,159,976,29,46,18
4095,-139,203,1046,-20,64,-7
4096,-432,2,883,-110,40,0
4097,-299,-106,922,-53,-32,13
4098,63,-203,1049,-40,-69,-6
4099,394,-246,1005,13,-44,-3
4100,323,-74,1001,66,14,14
4101,-14,95,1016,59,55,12
4102,-353,121,933,4,43,6
4103,-399,73,920,-10,-14,-1
4104,-74,4,1023,-14,-70,-6
4105,361,-86,1049,-20,-67,-1
4106,426,-50,1030,11,-8,7
4107,190,43,1015,7,50,8
4108,-213,57,971,-28,68,10
4109,-484,-8,874,-45,28,9
4110,-308,-91,950,-27,-45,-5
4111,112,-168,1015,-7,-80,-9
4112,444,-129,1056,42,-51,3
4113,357,27,1024,60,15,10
4114,22,157,1014,33,61,6
4115,-363,143,939,-29,54,6
4116,-432,58,915,-44,-7,4
4117,-120,-62,1003,-47,-65,-3
4118,325,-170,1044,-28,-67,-4
4119,436,-125,1016,16,-15,7
4120,203,12,1022,38,47,10
4121,-203,65,970,-5,66,10
4122,-476,40,882,-19,28,8
4123,-315,-12,959,-16,-43,-2
4124,115,-104,1031,-12,-83,-9
4125,444,-103,1058,22,-50,0
4126,375,20,1027,36,15,8
4127,35,109,1010,8,63,8
4128,-363,88,930,-35,58,9
4129,-446,11,911,-43,-2,4
4130,-147,-107,988,-41,-66,-7
4131,310,-177,1036,-3,-75,-8
4132,443,-94,1036,40,-20,8
4133,220,40,1017,40,42,11
4134,-174,100,978,1,64,8
4135,-460,86,893,-20,32,6
4136,-315,4,954,-33,-40,-2
4137,98,-115,1023,-29,-80,-7
4138,433,-118,1060,14,-49,0
4139,375,-15,1024,25,14,9
4140,28,65,998,11,63,6
4141,-359,77,929,-21,57,10
4142,-448,22,912,-33,-2,5
4143,-159,-95,983,-37,-67,-7
4144,305,-145,1043,10,-76,-7
4145,446,-61,1049,37,-23,7
4146,69,1207,1504,-410,18,11
4147,-273,-778,-88,-1244,-98,-20
4148,-299,-221,724,535,10,112
4149,-214,116,115,597,-22,50
4150,-155,672,704,43,-57,-190
4151,640,189,1398,-93,-141,-96
4152,480,-27,261,-64,-28,148
4153,-387,1085,1396,256,102,53
4154,-164,7,791,-432,-43,-52
4155,146,-299,884,-64,-3,-37
4156,30,11,1086,-74,25,88
4157,274,-408,949,-144,1,73
4158,214,-173,1264,12,58,-44
4159,-176,-146,782,5,75,-29
4160,-378,-156,944,18,25,36
4161,-516,196,967,96,-13,15
4162,-160,-66,936,-23,-86,-38
4163,304,-153,1158,43,-108,-20
4164,475,-26,964,73,-57,38
4165,353,205,1024,53,17,24
4166,5,249,982,-3,73,-36
4167,-245,231,950,-43,66,-40
4168,-276,179,968,-55,25,3
4169,-69,48,1059,-101,-12,36
4170,250,-194,997,-117,-20,28
4171,289,-316,1006,-44,18,1
4172,10,-272,995,24,60,4
4173,-290,-147,876,74,50,20
4174,-404,-41,899,118,4,6
4175,-181,-60,942,103,-53,-16
4176,230,-62,1053,131,-74,-10
4177,418,9,1081,173,-32,2
4178,299,113,983,179,21,14
4179,21,236,951,171,65,6
4180,-354,182,1039,71,70,-14
4181,-421,-44,917,-33,0,-3
4182,-156,31,1110,-60,-60,3
4183,256,-284,914,-156,-69,-6
4184,463,-227,985,61,-21,8
4185,215,45,1094,72,40,18
4186,-169,14,972,-29,67,3
4187,-431,6,836,2,33,5
4188,-353,91,971,35,-39,5
4189,69,-79,1058,-54,-84,-8
4190,414,-140,1013,22,-54,-7
4191,387,59,1075,64,6,6
4192,102,105,990,-12,57,14
4193,-291,77,921,-39,67,10
4194,-475,30,915,-38,8,-2
4195,-206,-112,1004,-54,-59,-8
4196,235,-206,998,-14,-78,-4
4197,444,-101,1054,56,-32,9
4198,279,19,1023,34,34,12
4199,-123,95,975,18,68,4
4200,-428,116,917,-7,36,5
4201,-349,54,936,-32,-30,5
4202,26,-87,1027,-46,-75,-4
4203,396,-145,1049,2,-57,-4
4204,394,-38,1044,30,5,6
4205,97,45,987,7,58,10
4206,-280,70,929,-15,62,12
4207,-471,38,905,-26,9,5
4208,-220,-83,992,-38,-58,-9
4209,229,-154,1034,-1,-79,-8
4210,445,-74,1047,42,-33,7
4211,303,34,1014,31,31,10
4212,-86,113,986,8,69,4
4213,-425,99,924,-31,42,5
4214,-372,10,923,-42,-27,3
4215,-7,-113,1014,-40,-72,-6
4216,382,-160,1057,4,-60,-2
4217,405,-73,1024,28,3,8
4218,102,53,999,33,56,7
4219,-264,102,945,-7,60,9
4220,-461,54,891,-31,11,8
4221,-231,-46,996,-29,-56,-8
4222,219,-129,1049,-9,-80,-9
4223,443,-91,1048,29,-32,7
4224,310,19,1000,28,30,9
4225,-69,100,987,7,68,6
4226,-430,81,927,-34,47,8
4227,-390,-8,920,-41,-25,0
4228,-33,-110,1013,-26,-73,-7
4229,378,-146,1057,10,-65,-2
4230,418,-66,1020,30,-1,10
4231,124,72,1012,39,54,7
4232,-248,115,954,-12,62,7
4233,-464,58,893,-36,14,7
4234,-250,-37,981,-32,-54,-4
4235,201,-139,1053,-17,-79,-8
4236,439,-118,1037,21,-34,4
4237,320,8,1007,33,27,10
4238,-49,97,993,12,66,9
4239,-422,77,917,-33,49,9
4240,-406,2,924,-33,-22,0
4241,-47,-101,1018,-28,-74,-8
4242,371,-147,1048,7,-67,-2
4243,432,-56,1020,35,-3,8
4244,152,75,1013,33,52,7
4245,-249,235,1008,-18,65,8
4246,-591,306,415,-1358,-25,-4
4247,-589,461,1146,571,-1,-72
4248,408,-500,-207,-101,-235,82
4249,331,972,789,485,-79,61
4250,515,756,796,-95,-2,-141
4251,679,-255,27,-90,12,39
4252,-169,1153,1248,77,185,45
4253,-431,720,1083,-354,115,-80
4254,-149,-430,1127,-315,2,-35
4255,-18,59,989,-128,26,41
4256,32,-816,939,-224,-13,27
4257,-25,-795,873,-40,36,-15
4258,-127,-321,929,50,6,31
4259,-356,-338,849,54,-10,4
4260,-44,63,1021,137,-62,-14
4261,149,317,1102,74,-59,-10
4262,370,394,1094,49,-39,-6
4263,284,570,1076,-24,28,13
4264,-69,273,974,-118,54,17
4265,-344,-24,941,-134,32,7
4266,-280,-324,925,-119,-15,3
4267,-21,-499,934,-60,-52,-2
4268,342,-407,1017,7,-49,9
4269,291,-188,1011,49,12,17
4270,-18,86,1006,69,43,11
4271,-327,288,972,46,33,12
4272,-377,262,911,-3,-18,6
4273,-74,103,995,-34,-74,-10
4274,331,-78,1084,-46,-72,-12
4275,467,-142,1052,-34,-14,4
