sequence,AccelerometerX,AccelerometerY,AccelerometerZ,GyroscopeX,GyroscopeY,GyroscopeZ
0,252,55,884,41,-14,-30
1,-37,285,1151,16,1,29
2,187,167,1042,-49,6,-26
3,-194,-104,948,-51,36,5
4,-223,-71,925,-51,0,30
5,29,-249,1108,-26,-20,-43
6,58,-177,868,11,-15,-4
7,100,89,1016,20,-9,5
8,120,80,1124,9,14,-26
9,-94,123,922,-21,30,17
10,-152,101,1004,-44,13,8
11,-113,-106,1058,-47,-6,-19
12,18,-129,920,-38,-22,-2
13,96,-118,994,-11,-24,-12
14,119,-69,1056,2,-3,-13
15,51,23,960,-1,20,1
16,-118,92,989,-9,29,4
17,-141,43,1052,-27,9,-6
18,-93,-19,955,-35,-10,-8
19,21,-62,986,-26,-25,-10
20,117,-91,1043,-21,-19,-16
21,134,-77,986,-11,6,-9
22,16,-15,969,-4,27,1
23,-94,34,1022,-8,26,-1
24,-135,16,992,-16,11,-4
25,-116,19,970,-22,-7,-4
26,31,-18,1030,-24,-23,-12
27,111,-63,1008,-23,-13,-13
28,127,-52,980,-16,6,-6
29,43,-35,1014,-12,24,-4
30,-77,-24,1005,-10,30,1
31,-142,3,965,-12,16,0
32,-116,8,993,-15,-4,-6
33,5,-15,1018,-16,-19,-13
34,89,-32,997,-18,-14,-13
35,134,-26,1009,-18,4,-9
36,43,-52,1006,-14,23,-4
37,-106,-97,976,-4,27,6
38,-166,-48,969,3,9,4
39,-133,-21,1001,9,-12,-9
40,0,39,1001,6,-29,-10
41,121,54,1013,-4,-26,-13
42,160,44,1013,-16,-4,-9
43,74,3,1011,-28,20,0
44,-62,-42,994,-31,30,0
45,-164,-70,968,-27,19,1
46,-150,-70,987,-13,-7,-4
47,-53,-56,985,-6,-24,-13
48,94,-4,1018,-1,-26,-15
49,408,163,301,59,-21,-9
50,346,119,1471,0,54,-7
51,-287,291,790,-117,51,35
52,-320,-206,562,-145,73,23
53,-582,-370,801,-37,-5,-27
54,-250,-277,1356,11,-77,-4
55,530,-386,785,36,-86,-93
56,60,110,1005,100,-11,7
57,552,338,1201,49,-21,-6
58,-19,247,1090,-10,86,-13
59,-289,174,714,-63,60,51
60,-349,-53,1229,-72,4,6
61,-139,-281,892,-60,-36,-42
62,-7,-254,843,-12,-49,3
63,288,-90,1177,24,-52,-29
64,204,-40,1003,24,12,-15
65,46,166,917,19,39,15
66,-212,136,1108,-12,35,5
67,-201,17,954,-33,3,-11
68,-138,-88,925,-35,-29,-2
69,57,-123,1055,-15,-49,-19
70,199,-158,1011,-1,-27,-19
71,159,-36,955,17,7,-3
72,-12,61,1045,13,30,2
73,-107,79,1024,-3,26,-5
74,-188,51,936,-19,5,2
75,-109,16,1008,-26,-26,-8
76,62,-95,1039,-28,-38,-19
77,127,-97,960,-17,-19,-9
78,124,-56,1005,-5,2,-7
79,33,-15,1031,-1,21,-6
80,-89,33,974,-5,25,3
81,-147,64,991,-15,8,-2
82,-94,15,1027,-23,-14,-9
83,3,-34,977,-29,-25,-9
84,98,-60,999,-24,-19,-12
85,126,-69,1012,-16,1,-11
86,55,-42,986,-11,21,-1
87,-48,5,998,-9,26,0
88,-128,36,1000,-13,15,-3
89,-108,22,992,-20,-2,-6
90,-52,-7,999,-26,-15,-8
91,80,-32,1017,-27,-17,-12
92,125,-60,992,-22,-4,-9
93,82,-41,988,-15,16,-2
94,15,-4,1004,-14,27,-2
95,-109,10,998,-19,28,1
96,-144,7,993,-23,10,-1
97,-168,2,904,-30,-16,-5
98,29,198,712,-72,-54,-7
99,416,-127,1702,-45,-11,-44
100,-51,-18,713,-57,36,11
101,52,-369,728,-42,34,11
102,-489,-107,1119,29,31,11
103,-182,-82,1023,14,-31,-5
104,148,73,855,39,-39,-37
105,19,229,1135,10,-36,17
106,396,198,1072,-29,-28,-29
107,91,-60,975,-58,39,-1
108,-156,-34,921,-59,40,36
109,-165,-202,1111,-43,23,-20
110,-192,-216,854,-14,1,-6
111,-94,9,967,18,-32,6
112,164,35,1129,15,-41,-37
113,135,69,961,-4,-4,-1
114,109,132,996,-22,14,6
115,-40,-17,1080,-42,29,-11
116,-125,-79,926,-40,20,6
117,-167,-100,951,-29,-3,0
118,-65,-100,1049,-11,-24,-16
119,61,-57,973,-2,-26,-10
120,109,33,985,1,-11,-8
121,102,47,1056,-8,4,-8
122,16,36,994,-22,21,-2
123,-105,0,971,-29,20,2
124,-138,-35,1004,-29,2,-5
125,-70,-82,996,-24,-17,-10
126,-5,-71,971,-13,-22,-7
127,102,-26,1027,-4,-16,-12
128,116,-10,1009,-7,1,-11
129,35,23,982,-7,17,-1
130,-48,24,1013,-17,18,-3
131,-118,-3,987,-25,12,-3
132,-107,-43,990,-22,-4,-3
133,-45,-59,996,-19,-18,-9
134,77,-59,1007,-12,-19,-12
135,104,-39,1002,-6,-5,-10
136,77,-10,1011,-8,13,-5
137,0,4,995,-10,23,-2
138,-100,8,982,-13,20,1
139,-121,-14,1005,-14,4,-4
140,-71,-31,990,-17,-10,-9
141,46,-43,1000,-13,-16,-11
142,101,-46,1009,-8,-6,-10
143,108,-23,1004,-5,10,-6
144,21,-3,997,-6,25,-2
145,-88,4,1002,-8,27,1
146,-137,-1,982,-14,13,-1
147,-96,-12,982,-16,-5,-7
148,8,-35,1012,-14,-18,-12
149,90,-38,1000,-13,-13,-12
150,125,-24,1006,-12,5,-9
151,45,-4,1001,-10,23,-2
152,-61,-1,1003,-14,27,2
153,-149,-29,977,-16,16,-1
154,-146,-50,985,-11,-5,-2
155,-41,-49,992,-8,-22,-11
156,84,-24,948,-1,-25,-16
157,382,230,254,155,-46,-15
158,294,197,1613,-66,44,-6
159,-492,196,287,-142,68,36
160,-303,-411,566,-119,30,-15
161,-553,-345,1194,1,-45,-7
162,102,-333,1128,16,-90,-29
163,550,-233,714,67,-63,-86
164,121,294,1172,103,-4,41
165,381,401,1182,20,19,-25
166,-197,149,906,-47,83,0
167,-409,132,874,-66,30,58
168,-211,-189,1202,-79,-25,-34
169,-13,-393,810,-42,-48,-27
170,135,-132,962,24,-51,10
171,309,-52,1173,28,-20,-42
172,111,38,940,28,36,2
173,-107,235,959,8,47,22
174,-233,84,1097,-29,26,-14
175,-149,-53,925,-39,-14,-3
176,-58,-119,954,-32,-38,-5
177,142,-157,1082,-9,-38,-26
178,192,-132,979,10,-7,-12
179,60,27,962,20,27,4
180,-52,89,1069,11,31,-6
181,-131,77,989,-9,19,-2
182,-159,39,943,-25,-2,2
183,-40,-26,1044,-30,-25,-13
184,103,-114,1013,-26,-26,-16
185,102,-87,954,-12,-3,-4
186,90,-27,1035,-3,15,-7
187,-1,15,1008,-4,27,-7
188,-111,63,970,-11,23,4
189,-132,56,1007,-26,2,-6
190,-58,-8,1023,-38,-14,-9
191,27,-54,970,-41,-16,-6
192,91,-73,1005,-30,-7,-10
193,116,-60,1004,-20,8,-9
194,56,-8,983,-14,26,2
195,-20,30,1013,-18,32,1
196,-101,33,1008,-25,26,0
197,-131,1,981,-35,10,1
198,-105,-52,975,-33,-5,-7
199,18,-81,1002,-23,-14,-9
200,100,-80,985,-14,-9,-11
201,86,-38,989,-4,7,-5
202,22,14,1024,-4,17,-4
203,-93,35,990,-13,20,2
204,-134,18,989,-20,9,-1
205,-101,-16,1001,-25,-10,-9
206,-20,-29,897,-22,-26,-10
207,16,205,653,-63,-58,-8
208,475,-130,1648,-35,-15,-40
209,-109,-12,692,-56,55,12
210,20,-370,705,-44,38,18
211,-511,-101,1156,40,26,14
212,-209,-65,1018,8,-38,-9
213,241,62,838,41,-47,-44
214,51,234,1149,17,-30,17
215,438,217,1067,-36,-21,-27
216,56,-58,985,-58,52,-2
217,-248,-35,914,-63,46,42
218,-222,-215,1090,-46,16,-21
219,-177,-229,866,-10,-11,-14
220,-20,-3,974,18,-42,4
221,248,45,1134,20,-39,-41
222,178,91,968,-4,8,-3
223,38,157,996,-27,33,12
224,-132,-16,1078,-48,36,-8
225,-197,-105,904,-48,16,6
226,-150,-125,954,-26,-17,-2
227,22,-132,1053,-2,-36,-24
228,158,-54,978,8,-23,-13
229,159,57,996,9,4,-5
230,39,81,1064,-9,29,-4
231,-79,50,989,-27,32,1
232,-189,-5,950,-33,17,2
233,-130,-72,1025,-30,-13,-8
234,10,-121,987,-19,-29,-15
235,116,-73,976,-2,-19,-11
236,153,-16,1030,2,3,-9
237,71,25,1013,0,27,-5
238,-65,48,980,-10,34,2
239,-154,37,997,-23,19,-1
240,-120,-38,1000,-26,-3,-9
241,-42,-72,974,-21,-16,-9
242,102,-72,1015,-12,-18,-13
243,140,-61,1014,-1,1,-12
244,79,-1,994,-1,25,-1
245,-27,33,1003,-5,32,0
246,-123,33,998,-14,27,0
247,-179,-24,982,-23,7,0
248,-182,-68,969,-20,-22,2
249,22,-72,1007,-11,-37,-10
250,161,-64,991,-6,-26,-18
251,220,-4,1033,3,-5,-6
252,89,46,1012,-3,25,0
253,-116,29,982,-17,36,6
254,-210,5,983,-22,16,1
255,-175,-34,983,-24,-11,-7
256,1,-63,987,-18,-33,-13
257,127,-65,1017,-10,-29,-14
258,196,-27,1010,-5,-5,-11
259,89,-1,984,-8,26,0
260,289,214,181,131,64,10
261,21,126,1528,-10,74,-2
262,-467,277,466,-164,34,47
263,-335,-430,471,-142,35,1
264,-570,-412,890,44,-51,-57
265,238,-273,1471,12,-112,-25
266,599,-331,672,83,-47,-84
267,114,339,1058,114,21,41
268,277,400,1277,16,21,-1
269,-286,236,960,-20,88,-6
270,-376,64,734,-92,20,48
271,-174,-136,1285,-61,-35,-26
272,148,-384,830,-39,-50,-40
273,160,-176,910,12,-27,12
274,218,-21,1184,38,-1,-21
275,-24,57,951,22,47,-2
276,-211,179,931,2,37,23
277,-253,82,1102,-18,-2,-11
278,15,-59,955,-36,-36,-20
279,90,-134,945,-19,-37,-6
280,165,-107,1076,1,-20,-15
281,126,-99,986,7,15,-10
282,-113,39,936,16,38,13
283,-187,79,1060,3,17,-2
284,-110,44,990,-14,-13,-13
285,-4,7,956,-18,-30,-6
286,112,-34,1054,-24,-31,-16
287,167,-90,1027,-19,-6,-15
288,44,-47,934,-12,23,3
289,-93,1,1021,-10,28,0
290,-136,4,1009,-12,12,-7
291,-114,26,953,-18,-8,-3
292,5,9,1025,-22,-27,-13
293,104,-35,1026,-24,-21,-15
294,135,-42,975,-23,0,-7
295,40,-25,1009,-21,21,-2
296,-60,-23,1018,-20,28,-1
297,-135,-8,959,-20,14,-1
298,-117,5,990,-20,-7,-5
299,0,-17,1024,-22,-22,-12
300,91,-27,990,-24,-14,-10
301,129,-13,1002,-24,0,-7
302,57,-14,1020,-25,20,-3
303,-52,7,989,-28,28,0
304,-140,33,971,-35,19,-1
305,-140,1,1013,-39,-3,-6
306,-58,-49,986,-41,-21,-10
307,64,-86,982,-29,-23,-14
308,141,-87,1007,-20,-10,-11
309,98,-63,999,-11,14,-6
310,-7,-12,991,-5,26,0
311,-126,28,993,-9,21,1
312,-152,26,998,-16,3,-4
313,-91,-1,985,-21,-17,-8
314,55,-29,1013,-23,-26,-13
315,112,-49,907,-23,-19,-10
316,165,230,608,-60,-13,-1
317,306,-174,1665,-32,41,-37
318,-304,77,621,-63,58,28
319,-119,-403,671,-40,31,5
320,-580,-96,1135,39,-6,9
321,-11,-65,1086,5,-72,-14
322,386,15,833,53,-44,-62
323,125,266,1136,12,-11,34
324,412,231,1104,-32,5,-26
325,-103,-50,959,-59,75,1
326,-343,-47,873,-69,39,46
327,-240,-215,1124,-38,-2,-28
328,-91,-263,851,-7,-30,-23
329,76,-12,984,27,-47,5
330,326,74,1151,27,-28,-36
331,136,114,959,-6,31,3
332,-67,172,990,-26,44,18
333,-233,-16,1068,-51,29,-11
334,-194,-116,895,-49,-3,-2
335,-70,-159,964,-22,-35,-9
336,128,-126,1062,-1,-40,-24
337,222,-38,983,12,-13,-10
338,84,87,993,10,23,3
339,-78,102,1062,-14,34,1
340,-177,49,964,-33,21,0
341,-192,-28,958,-38,-8,0
342,-39,-101,1021,-29,-38,-14
343,129,-130,1001,-12,-36,-18
344,165,-70,969,-4,-17,-8
345,84,6,1034,3,8,-7
346,-40,45,1011,-5,28,-1
347,-175,60,956,-18,18,5
348,-144,16,1013,-25,-9,-6
349,-39,-57,1003,-27,-27,-13
350,106,-77,986,-21,-25,-10
351,144,-79,1015,-9,-9,-9
352,90,-44,999,-3,16,-4
353,-34,7,983,-2,28,1
354,-145,44,996,-8,20,0
355,-129,17,1008,-17,-2,-7
356,-55,-20,978,-21,-20,-9
357,81,-49,1014,-16,-25,-12
358,129,-75,1017,-13,-7,-13
359,89,-55,990,-5,15,-5
360,-15,-11,990,-1,25,-2
361,-122,14,1000,-4,21,0
362,-134,11,987,-9,3,-5
363,-72,1,992,-13,-13,-7
364,60,-30,1016,-16,-20,-11
365,106,-52,1004,-12,-8,-10
366,105,-37,996,-7,11,-6
367,6,-16,1006,-7,26,-2
368,-99,2,998,-7,26,1
369,-130,6,977,-12,10,-3
370,-87,2,991,-16,-8,-7
371,17,-18,1011,-17,-19,-10
372,94,-30,1005,-17,-11,-10
373,87,3,1003,-19,4,-6
374,-11,16,999,-25,14,0
375,-78,-1,1001,-28,14,-1
376,-106,-43,969,-30,3,-2
377,-42,-93,700,8,-15,-3
378,679,161,30,648,64,17
379,-56,161,1295,-153,-6,4
380,-322,76,155,-275,41,45
381,-433,-384,369,-109,72,-54
382,-661,-184,1317,61,-53,-44
383,474,-303,1167,7,-113,-41
384,209,-254,736,76,-31,-57
385,241,346,1077,102,-23,45
386,285,207,1368,23,36,-40
387,-160,196,694,-18,79,17
388,-322,87,969,-50,28,45
389,-110,-99,1216,-40,-17,-53
390,-59,-304,728,-28,-24,-1
391,62,-71,1049,13,-42,-1
392,112,-118,1139,20,-20,-30
393,99,43,886,38,15,0
394,-95,109,1024,5,23,10
395,-59,77,1107,-4,4,-22
396,-17,-41,884,-24,-8,-5
397,-80,-36,987,-15,-17,-3
398,30,-108,1080,-10,-21,-17
399,38,-89,938,0,-3,-9
400,-24,-2,979,6,-2,2
401,17,41,1085,6,-6,-18
402,40,25,961,-8,-3,-9
403,-30,69,962,-15,0,1
404,-9,-1,1083,-29,-4,-13
405,-31,-67,963,-32,-2,-6
406,-60,-50,948,-23,-4,1
407,0,-65,1056,-15,-12,-16
408,39,-42,981,-11,-9,-10
409,53,32,975,-8,-4,-5
410,22,47,1043,-19,3,-9
411,-14,23,1000,-31,8,-5
412,-84,1,964,-37,7,0
413,-75,-43,1028,-37,-5,-7
414,-20,-88,986,-33,-16,-9
415,42,-60,972,-17,-14,-8
416,85,-24,1016,-12,-6,-11
417,57,6,1007,-12,8,-6
418,-17,31,985,-18,16,0
419,-96,34,1001,-27,13,-1
420,-89,-21,1009,-32,-2,-5
421,-52,-57,974,-30,-11,-4
422,55,-65,1010,-22,-15,-9
423,104,-59,1004,-13,-6,-10
424,70,-22,988,-7,11,-3
425,-7,17,996,-10,21,-2
426,-94,30,999,-16,22,1
427,-105,-3,999,-20,7,-2
428,-70,-33,984,-21,-8,-7
429,49,-56,1007,-16,-15,-10
430,96,-63,1003,-10,-4,-9
431,80,-28,999,-6,13,-4
432,5,13,997,-6,24,-3
433,-94,29,992,-12,22,1
434,-126,6,991,-20,8,-2
435,-77,-16,995,-22,-8,-5
436,28,-52,1005,-20,-17,-7
437,79,-55,1002,-13,-9,-9
438,97,-33,1004,-9,6,-5
439,12,-1,998,-9,20,-1
440,-84,14,999,-12,22,0
441,-123,6,988,-17,9,-3
442,-86,-13,988,-20,-9,-5
443,9,-49,1004,-17,-19,-10
444,80,-57,1004,-13,-12,-11
445,111,-38,999,-7,1,-8
446,29,-6,1006,-4,16,-3
447,-58,10,1004,-9,22,-2
448,-117,14,981,-14,13,-1
449,-97,8,997,-16,-4,-4
450,-2,147,660,-123,-47,-10
451,526,-62,1097,-175,-6,-63
452,-65,-13,990,-66,39,2
453,-190,-532,437,-99,57,43
454,-416,-354,938,26,26,-40
455,-440,-43,1266,42,-44,40
456,504,123,803,53,-71,-81
457,-114,302,1120,11,-14,34
458,408,364,1074,-40,-40,-12
459,80,-110,1089,-93,41,-38
460,-198,-140,754,-81,29,48
461,-141,-210,1145,-45,10,-18
462,-38,-266,924,-17,-10,-27
463,-48,78,912,20,-16,29
464,150,152,1160,-1,-24,-32
465,74,98,1006,-36,10,-1
466,-7,85,914,-54,21,15
467,-100,-119,1080,-59,20,-13
468,-34,-191,942,-36,4,-8
469,-95,-150,903,-6,-3,4
470,-23,-56,1073,15,-17,-15
471,31,30,1010,13,-10,-8
472,31,104,957,0,0,-2
473,15,72,1065,-19,1,-5
474,40,-7,1005,-32,4,-8
475,-35,-74,933,-31,8,0
476,-70,-87,1030,-18,1,-4
477,-49,-95,997,-8,-5,-10
478,-44,-25,951,3,-6,-3
479,9,19,1032,2,-14,-8
480,63,24,1018,-6,-8,-11
481,66,24,976,-14,1,-4
482,4,2,1016,-17,9,-3
483,-37,-49,1009,-21,11,-5
484,-84,-60,956,-17,8,-2
485,-78,-48,1009,-8,-3,-5
486,-4,-45,1004,-4,-13,-12
487,56,-8,984,0,-10,-8
488,83,19,1011,-4,-1,-6
489,41,10,1013,-11,14,-6
490,-26,-3,984,-16,18,-1
491,-104,-18,985,-17,14,-1
492,-88,-50,1009,-16,1,-6
493,-43,-60,981,-10,-12,-9
494,53,-29,1000,-4,-14,-10
495,93,-16,1018,-5,-6,-10
496,60,6,997,-4,11,-5
497,-20,17,989,-13,19,-2
498,-102,8,993,-19,15,-1
499,-108,-30,999,-20,-1,-6
500,-63,-38,979,-18,-14,-8
501,51,-45,1009,-12,-20,-10
502,92,-35,1012,-11,-9,-9
503,82,0,1000,-11,7,-4
504,2,23,997,-14,16,-3
505,-91,16,995,-22,17,2
506,-117,-14,988,-26,4,-3
507,-64,-43,988,-27,-10,-7
508,37,-67,1002,-19,-18,-11
509,82,-62,1003,-11,-9,-10
510,95,-15,1009,-7,5,-6
511,9,11,1002,-10,21,-3
512,-82,26,997,-15,22,0
513,-121,6,985,-21,7,-4
514,-83,-21,993,-24,-10,-6
515,8,-66,999,-21,-18,-10
516,81,-60,1000,-13,-12,-11
517,106,-35,1003,-8,0,-7
518,22,-2,1000,-8,15,-4
519,-60,16,1008,-11,20,0
520,-122,18,981,-19,10,-2
521,-94,-12,1000,-22,-6,-6
522,-16,-50,997,-22,-21,-11
523,77,-55,1001,-16,-18,-10
524,110,-44,1002,-9,-3,-8
525,45,-11,1001,-9,13,-3
526,-38,9,998,-11,19,-1
527,-120,22,982,-18,11,-1
528,-106,-6,1005,-20,-6,-7
529,-41,-37,994,-22,-17,-10
530,71,-49,1005,-16,-19,-11
531,106,-49,1003,-11,-7,-8
532,66,-24,1001,-10,12,-4
533,-18,1,991,-12,21,-2
534,-114,13,989,-16,16,0
535,-114,-9,1001,-18,-1,-6
536,-62,-28,985,-20,-17,-8
537,55,-37,1010,-16,-20,-11
538,99,-54,1013,-12,-8,-9
539,88,-22,1000,-9,8,-4
540,3,-8,992,-9,20,-3
541,-101,10,998,-12,19,-1
542,-125,-8,984,-17,4,-4
543,-80,-18,990,-16,-13,-7
544,32,-41,1007,-16,-23,-11
545,91,-45,1007,-11,-13,-11
546,109,-29,1001,-9,4,-7
547,20,-2,1004,-10,21,-2
548,-75,0,999,-14,21,0
549,-134,0,979,-17,7,-2
550,-97,-11,991,-18,-10,-6
551,2,-38,1004,-17,-21,-11
552,86,-42,999,-15,-16,-11
553,121,-25,1003,-10,-3,-8
554,45,-14,1005,-12,17,-2
555,-51,0,1005,-13,22,-1
556,-130,2,978,-18,15,-1
557,-29,-91,801,-4,3,0
558,344,379,-81,670,181,50
559,0,630,1766,396,-24,47
560,-142,-202,690,-403,-49,-13
561,-159,-746,400,-206,66,-108
562,-543,-752,417,84,15,-94
563,-17,-149,1522,179,-67,-59
564,241,-24,1141,112,-57,-13
565,66,609,755,104,-8,25
566,442,477,1302,-9,-16,-13
567,-62,264,1093,-57,57,-7
568,-14,-212,706,-128,35,16
569,-274,-345,1159,-41,22,-6
570,-126,-376,885,-13,-17,-8
571,-5,-147,932,42,-22,-11
572,25,111,1103,55,-26,-7
573,154,220,1034,20,-6,-16
574,66,135,991,-19,12,-6
575,-59,68,1023,-35,13,3
576,-23,-116,998,-50,4,-16
577,-100,-184,935,-24,0,-3
578,-69,-96,999,-3,-12,-3
579,31,-32,1025,5,-15,-20
580,29,58,986,5,-10,-3
581,29,106,1017,-12,-5,-9
582,49,39,1044,-32,-1,-15
583,-15,-14,954,-38,4,-2
584,-68,-59,1005,-39,0,-6
585,-56,-86,1014,-32,-9,-12
586,-52,-50,968,-22,-11,-4
587,1,-8,997,-18,-17,-11
588,53,9,1028,-20,-15,-14
589,78,22,984,-26,-9,-10
590,16,8,1007,-37,0,-5
591,-30,-17,1036,-47,2,-4
592,-88,-31,990,-74,-2,-2
593,-83,-35,1021,-95,-12,-3
594,-26,-35,1061,-141,-20,-8
595,59,-16,1019,-218,-17,-7
596,77,-4,908,-196,-2,-7
597,62,8,977,-89,8,-8
598,-6,2,984,-60,11,-3
599,-96,-2,974,-55,11,0
600,-100,-36,1003,-39,-2,-5
601,-67,-50,977,-29,-12,-9
602,44,-40,992,-21,-16,-9
603,113,-32,1020,-14,-8,-9
604,128,-17,999,-15,14,-3
605,0,1,989,-14,28,2
606,-129,2,992,-18,25,3
607,-183,-27,988,-20,7,-3
608,-117,-26,968,-18,-16,-7
609,38,-40,1022,-15,-29,-14
610,127,-36,1008,-10,-19,-13
611,148,-15,1000,-10,2,-7
612,49,4,1012,-12,23,-1
613,-95,-2,1004,-19,30,5
614,-167,-12,968,-22,14,0
615,-137,-27,979,-20,-10,-6
616,-4,-43,1007,-15,-29,-11
617,105,-39,1005,-12,-24,-12
618,157,-21,1012,-10,-4,-10
619,75,0,1006,-12,20,-3
620,-58,1,1001,-16,30,3
621,-161,0,977,-21,19,0
622,-149,-24,994,-20,-4,-5
623,-43,-47,989,-17,-24,-12
624,88,-43,1006,-13,-27,-14
625,158,-27,1006,-9,-10,-10
626,93,-15,1006,-12,18,-3
627,-26,4,1011,-14,29,1
628,-152,6,980,-19,22,2
629,-157,-14,987,-18,-1,-4
630,-84,-38,993,-18,-22,-9
631,77,-39,1009,-15,-28,-14
632,154,-38,1004,-12,-13,-11
633,117,-19,1001,-9,11,-4
634,3,-3,1003,-13,26,0
635,-131,10,989,-17,26,2
636,-166,-11,989,-19,6,-1
637,-107,-27,988,-19,-17,-10
638,45,-33,1006,-15,-30,-12
639,137,-38,1010,-12,-18,-13
640,136,-27,1011,-12,7,-5
641,37,-4,995,-11,26,-1
642,-111,2,990,-15,29,3
643,-169,-9,986,-17,9,-3
644,-131,-15,984,-20,-13,-8
645,22,-38,1008,-17,-29,-13
646,114,-42,1010,-12,-21,-12
647,156,-24,1002,-10,-1,-8
648,60,-6,1007,-13,23,-2
649,-78,0,1003,-16,31,3
650,-124,-51,904,-19,16,0
651,356,207,-144,280,140,29
652,-132,502,1737,73,70,40
653,-147,-112,627,-328,-79,3
654,-80,-759,332,-140,58,-82
655,-549,-724,588,125,18,-119
656,84,90,1712,163,-91,-7
657,320,-38,722,82,-34,-41
658,-30,646,987,95,15,51
659,262,362,1238,-46,-13,25
660,-8,117,1068,-52,55,-40
661,-74,-239,639,-100,21,30
662,-164,-266,1294,-25,3,-17
663,2,-367,844,-6,-11,-22
664,-81,-21,905,50,1,14
665,34,134,1175,36,-20,-15
666,35,154,996,10,4,-14
667,23,123,935,-23,2,3
668,-44,0,1095,-35,-5,-14
669,56,-145,975,-40,-9,-18
670,-52,-150,908,-18,0,-1
671,-55,-45,1053,1,-5,-10
672,0,-16,1032,0,-8,-17
673,-61,75,929,-9,-8,0
674,-3,96,1052,-26,-20,-12
675,63,12,1046,-43,-20,-22
676,38,-35,935,-50,-9,-4
677,16,-41,1045,-54,-11,-6
678,-32,-67,1018,-75,-9,-6
679,-80,-39,926,-49,-4,-2
680,-73,15,992,-41,-15,-5
681,9,19,1034,-41,-22,-12
682,66,128,973,-43,-11,-1
683,85,95,1005,-48,5,2
684,34,-30,1032,-70,14,-5
685,-47,-212,967,-57,19,1
686,-125,-215,942,-25,10,-3
687,-109,-166,993,7,-6,-7
688,-20,-34,993,28,-16,-13
689,59,89,1012,19,-15,-10
690,128,155,1033,1,-6,-9
691,73,109,1020,-31,13,-4
692,-30,9,995,-50,21,0
693,-130,-94,988,-49,16,-1
694,-129,-159,974,-32,-2,-5
695,-66,-147,969,-7,-19,-9
696,65,-59,1011,11,-22,-14
697,134,33,1016,14,-9,-12
698,100,96,1006,2,12,-5
699,-4,91,1012,-19,23,-1
700,-118,30,997,-37,20,1
701,-148,-66,982,-40,4,-2
702,-100,-126,976,-29,-16,-8
703,47,-116,997,-10,-28,-13
704,130,-65,1008,4,-15,-12
705,122,13,1008,7,8,-7
706,35,72,1008,-3,24,-3
707,-104,68,997,-19,26,2
708,-166,11,988,-32,9,0
709,-124,-50,982,-34,-15,-7
710,17,-93,1004,-24,-27,-12
711,115,-92,1004,-11,-20,-12
712,150,-47,1002,0,-1,-8
713,60,10,1003,0,21,-2
714,-81,46,1006,-10,30,3
715,-166,34,981,-20,17,0
716,-140,5,981,-26,-9,-5
717,-16,-49,1010,-25,-28,-13
718,96,-73,1002,-18,-24,-12
719,161,-61,1001,-12,-6,-9
720,82,-29,1007,-5,19,-3
721,-50,7,1009,-6,28,1
722,-155,21,977,-14,18,0
723,-157,16,989,-17,-3,-4
724,-51,-22,998,-22,-24,-10
725,82,-43,1005,-18,-27,-14
726,162,-47,998,-16,-11,-11
727,288,-156,538,10,30,7
728,334,609,292,562,258,54
729,-314,133,1620,-206,-38,35
730,-296,-133,332,-287,-4,15
731,-298,-770,354,-75,53,-84
732,-658,-343,1077,134,-45,-66
733,486,-48,1401,89,-121,-21
734,216,45,743,89,-8,-39
735,307,568,1046,57,-2,50
736,205,260,1354,-31,45,-18
737,-211,44,746,-69,80,2
738,-341,-233,892,-73,19,32
739,-155,-256,1207,-11,-29,-33
740,34,-329,779,2,-31,-15
741,176,55,1053,53,-29,-2
742,187,123,1149,27,0,-18
743,34,180,917,1,36,0
744,-209,112,994,-35,26,14
745,-195,-12,1063,-45,-6,-16
746,-25,-181,918,-48,-29,-16
747,39,-144,979,-16,-35,-10
748,183,-64,1080,-1,-24,-20
749,121,20,985,-2,9,-12
750,-92,121,980,-19,26,9
751,-154,95,1045,-41,7,-10
752,-126,2,965,-59,-16,-10
753,-39,-71,963,-62,-40,-6
754,97,-115,1097,-63,-46,-17
755,158,-109,975,-87,-26,-11
756,51,-17,953,-50,4,1
757,-45,34,1035,-39,14,-4
758,-129,48,987,-49,9,-4
759,-130,38,950,-70,-21,-2
760,-42,-16,1015,-52,-32,-13
761,79,-59,996,-35,-27,-14
762,133,-74,971,-29,-10,-10
763,63,-26,1015,-20,13,-4
764,-13,-17,1010,-19,22,-2
765,-119,2,963,-20,19,0
766,-129,-20,1000,-19,-3,-3
767,-65,-33,1005,-19,-19,-10
768,58,-46,988,-17,-23,-12
769,122,-30,1012,-12,-12,-9
770,107,-21,1012,-12,9,-6
771,14,2,976,-13,23,-3
772,-96,17,999,-17,22,2
773,-152,-9,1007,-22,7,-2
774,-117,-32,972,-21,-13,-6
775,19,-51,1000,-17,-26,-12
776,109,-50,1021,-13,-18,-13
777,140,-32,1000,-11,2,-8
778,51,5,996,-8,22,-2
779,-84,14,1001,-14,26,2
780,-154,0,987,-20,13,-1
781,-89,83,843,-26,-12,-3
782,593,824,632,-117,-8,-22
783,-86,-351,1631,-132,53,-24
784,-272,368,337,-215,28,98
785,55,-289,577,-226,22,-17
786,-666,-556,811,-110,28,59
787,211,-351,1214,-6,-64,-65
788,-43,-629,851,71,-3,-156
789,-243,-257,450,114,28,-94
790,182,-537,1174,226,-50,-129
791,315,617,1321,211,-50,31
792,125,505,638,20,42,39
793,162,712,1265,16,24,-1
794,-304,333,1102,-130,34,30
795,-92,-144,800,-163,6,-19
796,-183,-522,1039,-88,-24,-24
797,-1,-434,937,-37,-34,-18
798,148,-457,912,35,-13,-26
799,89,33,1045,101,-2,1
800,53,262,1063,59,13,4
801,-40,365,1021,23,22,-8
802,-195,238,996,-47,13,14
803,-93,-11,1016,-76,-15,-10
804,17,-260,982,-60,-19,-18
805,75,-285,941,-21,-18,-8
806,124,-193,1022,23,-6,-12
807,46,-10,998,40,17,-7
808,-90,158,983,26,24,9
809,-126,181,1055,0,7,-3
810,-110,94,983,-36,-9,-5
811,17,-36,984,-44,-26,-9
812,82,-150,1028,-38,-23,-15
813,120,-167,979,-18,-5,-9
814,45,-91,973,6,14,-2
815,-70,8,1015,12,21,1
816,-126,72,998,5,11,-2
817,-110,91,982,-11,-8,-4
818,-22,33,1015,-25,-25,-10
819,76,-42,1013,-28,-24,-13
820,118,-87,990,-28,-8,-8
821,57,-84,992,-14,11,-3
822,-37,-59,1005,-4,20,0
823,-115,-2,977,-2,12,-2
824,-119,36,1002,-3,-5,-4
825,-33,27,1006,-11,-20,-10
826,96,7,1001,-21,-21,-10
827,177,-16,1006,-22,-4,-10
828,84,-51,1008,-24,22,-2
829,-46,-50,997,-19,33,5
830,-181,-40,969,-13,26,1
831,-171,-30,985,-9,-1,-3
832,-74,-14,1001,-6,-24,-11
833,83,1,1006,-7,-30,-15
834,167,2,1012,-12,-14,-11
835,126,-5,1008,-17,12,-4
836,-4,-13,995,-21,30,1
837,-137,-25,988,-22,27,3
838,-173,-49,986,-18,7,-3
839,-116,-46,974,-12,-17,-8
840,171,-131,567,38,-8,-6
841,630,307,-326,1813,302,75
842,-215,344,1272,14,-144,45
843,-175,-187,-385,-1177,-23,2
844,-121,-609,93,-311,85,-56
845,-671,-815,436,56,21,-26
846,-53,-398,1579,188,-63,-42
847,133,-247,1300,141,-74,-50
848,49,493,496,142,-35,44
849,567,661,1528,56,-31,-13
850,64,554,1029,-44,63,-2
851,7,-22,736,-144,60,24
852,-298,-294,1228,-93,33,-1
853,-278,-500,829,-56,-6,-4
854,-8,-372,844,18,-31,-15
855,26,-80,1158,74,-36,-7
856,260,206,1002,59,-13,-16
857,130,248,1022,17,27,-8
858,-114,254,1043,-21,30,14
859,-128,13,995,-63,13,-10
860,-162,-194,942,-54,-8,-5
861,-67,-213,980,-24,-30,-1
862,153,-180,1022,6,-28,-27
863,133,-27,970,28,-3,-6
864,53,162,1027,18,17,0
865,-40,144,1055,-13,25,-10
866,-156,95,939,-38,17,5
867,-130,-29,997,-50,-10,-5
868,-30,-153,1027,-41,-29,-17
869,85,-153,962,-21,-24,-8
870,119,-80,993,-2,-8,-11
871,69,13,1035,6,12,-7
872,-23,89,986,-5,21,-1
873,-131,97,981,-24,14,0
874,-121,19,1024,-37,-5,-7
875,-51,-60,977,-42,-22,-10
876,60,-104,992,-30,-25,-12
877,115,-100,1019,-15,-12,-13
878,81,-44,998,-6,10,-6
879,-11,36,988,-5,17,-2
880,-101,62,1011,-17,10,-2
881,-120,37,988,-32,-5,-5
882,-75,-4,997,-45,-20,-6
883,37,-53,1042,-60,-31,-9
884,87,-80,1022,-81,-23,-9
885,101,-45,1090,-124,-6,-5
886,11,9,1098,-295,17,3
887,-67,0,802,-274,27,0
888,-121,22,944,-63,9,-4
889,-89,17,987,-41,-10,-6
890,-11,-23,998,-43,-25,-10
891,63,-46,989,-28,-24,-12
892,115,-33,997,-23,-7,-8
893,12,30,1012,-26,13,-2
894,-33,8,994,-31,15,-1
895,-103,-23,986,-33,9,-2
896,-75,-82,995,-30,-8,-6
897,-26,-94,993,-17,-17,-11
898,56,-66,985,-5,-17,-10
899,99,-8,1005,0,-4,-9
900,65,28,1019,-4,13,-4
901,-23,45,1002,-14,20,0
902,-111,29,982,-24,14,0
903,-125,-29,1002,-30,-3,-4
904,-73,-72,988,-28,-17,-9
905,55,-78,1002,-15,-21,-11
906,132,-22,806,-26,-19,-7
907,460,497,591,-46,-42,-15
908,-1,39,1596,-67,89,-12
909,-424,240,101,-199,58,72
910,-50,-577,623,-122,13,-29
911,-746,-339,1289,25,-23,21
912,478,-406,1098,-4,-96,-65
913,-70,-398,609,101,14,-71
914,182,404,1215,123,-38,6
915,422,322,1297,40,1,-26
916,-149,414,751,-21,71,13
917,-231,166,1020,-104,20,53
918,-194,-142,1232,-84,-11,-46
919,-89,-434,638,-81,-23,-2
920,86,-256,1077,13,-47,-4
921,248,-158,1138,31,-20,-33
922,130,59,856,39,35,-1
923,-107,275,1082,21,38,21
924,-195,160,1092,-28,18,-12
925,-147,-3,861,-53,-4,-3
926,-72,-142,1018,-39,-35,-5
927,142,-202,1056,-22,-37,-24
928,204,-182,929,10,-6,-12
929,21,22,998,26,22,9
930,-53,93,1087,12,26,-8
931,-153,101,937,-6,19,-2
932,-166,80,982,-24,-9,2
933,-1,-46,1062,-33,-33,-21
934,122,-130,972,-24,-26,-13
935,123,-94,958,-10,-4,-1
936,68,-62,1048,1,19,-9
937,-43,-1,988,4,28,0
938,-155,79,956,-3,18,6
939,-124,58,1046,-14,-7,-9
940,-32,-1,994,-27,-22,-10
941,74,-36,983,-29,-21,-7
942,120,-78,1023,-23,-8,-12
943,79,-83,986,-12,14,-5
944,-24,-26,970,-4,24,1
945,-121,17,1010,-6,20,-1
946,-117,18,1006,-11,-1,-7
947,-70,14,971,-16,-15,-7
948,56,-5,1027,-19,-23,-13
949,124,-55,1015,-22,-9,-13
950,176,-84,978,-15,15,-7
951,40,-57,995,-6,35,-1
952,-114,-16,1002,0,34,4
953,-226,17,966,-5,19,1
954,-181,41,973,-11,-9,-5
955,1,23,1035,-19,-33,-13
956,134,-20,1003,-24,-28,-14
957,189,-41,1000,-22,-6,-9
958,134,-94,962,-18,23,-3
959,498,-499,-705,1155,300,50
960,-430,1219,1626,2253,94,94
961,-283,-384,-542,-1960,-143,7
962,-196,-545,138,-371,62,-43
963,-411,-744,64,45,5,-95
964,-232,-360,1566,209,-50,-50
965,619,-228,1273,104,-80,-57
966,-84,307,515,154,16,29
967,450,728,1291,55,-23,12
968,-134,417,1376,-22,71,-17
969,-69,30,451,-118,35,13
970,-256,-332,1251,-83,11,10
971,-32,-424,1001,-13,-29,-33
972,98,-389,765,20,-11,-7
973,61,51,1136,77,-11,-1
974,46,218,1091,49,12,-7
975,-8,239,915,2,27,-6
976,-232,182,1044,-32,12,17
977,13,-33,1049,-60,-23,-26
978,56,-265,912,-48,-21,-14
979,50,-165,981,-3,-14,1
980,114,-106,1068,11,1,-23
981,-32,42,943,20,26,1
982,-152,172,996,4,17,10
983,-90,116,1064,-27,-9,-18
984,0,12,955,-43,-21,-8
985,56,-69,978,-47,-21,-8
986,126,-139,1076,-32,-10,-17
987,51,-104,953,-15,13,-2
988,-83,-9,957,-7,21,3
989,-123,42,1050,-8,8,-5
990,-85,62,974,-21,-9,-5
991,-4,37,988,-34,-26,-8
992,79,-26,1043,-37,-24,-15
993,121,-61,995,-36,-6,-10
994,26,-61,978,-32,14,-1
995,-71,-38,1022,-23,18,0
996,-111,-15,977,-23,7,-3
997,-110,22,975,-26,-11,-2
998,-13,19,1023,-34,-27,-11
999,78,-6,1012,-41,-23,-13
1000,109,-17,992,-45,-9,-9
1001,44,-22,1033,-50,6,-5
1002,-39,-26,1017,-59,14,-3
1003,-120,-7,1005,-97,9,0
1004,-113,2,1081,-171,-8,-5
1005,-40,-6,1072,-276,-21,-9
1006,60,-12,1090,-364,-25,-3
1007,104,-18,739,-338,11,-2
1008,7,71,953,-92,12,-6
1009,-44,46,984,-49,4,-3
1010,-93,-20,990,-54,0,-3
1011,-57,-143,996,-45,-15,-7
1012,-3,-154,975,-20,-17,-11
1013,61,-118,1000,-2,-10,-11
1014,83,-22,1006,15,1,-9
1015,54,56,1012,8,14,-5
1016,-20,105,988,-7,18,-3
1017,-98,77,999,-30,15,0
1018,-112,-13,1004,-39,-3,-6
1019,-4,83,436,-45,-31,-5
1020,598,243,846,-55,-7,-37
1021,-129,52,1149,-147,48,11
1022,-198,-8,337,-155,60,65
1023,-101,-575,482,-94,15,-35
1024,-709,-470,1268,49,-10,60
1025,502,-379,1179,79,-89,-72
1026,-443,-255,711,108,12,-19
1027,405,625,1104,135,-86,2
1028,240,412,1398,26,13,-39
1029,20,420,660,-71,38,21
1030,-59,54,1146,-112,24,30
1031,-186,-296,1118,-102,4,-42
1032,-169,-474,657,-67,-13,19
1033,3,-239,1109,34,-40,-17
1034,63,-139,1067,36,-22,-23
1035,185,160,902,55,3,-7
1036,28,278,1103,19,17,6
1037,-43,197,1053,-35,17,-9
1038,-88,-30,927,-58,10,-1
1039,-175,-144,983,-50,-10,1
1040,-19,-223,1022,-28,-26,-14
1041,68,-186,952,11,-20,-15
1042,59,8,997,26,-7,2
1043,113,105,1074,20,2,-14
1044,0,110,975,-6,18,-2
1045,-93,104,976,-29,13,6
1046,-98,-22,1045,-42,-2,-10
1047,-63,-129,974,-38,-13,-6
1048,-22,-119,956,-18,-17,-3
1049,81,-88,1041,-3,-14,-17
1050,81,-34,993,4,2,-11
1051,41,51,979,6,12,-3
1052,-15,76,1022,-10,15,-6
1053,-78,48,997,-25,10,-2
1054,-92,-15,985,-32,-1,-3
1055,-14,-71,1002,-31,-10,-8
1056,111,-107,1002,-16,-5,-12
1057,95,-98,992,-6,13,-10
1058,69,-30,1009,7,24,-5
1059,-32,23,995,4,34,-3
1060,-135,57,981,-7,28,2
1061,-153,44,994,-18,7,-3
1062,-102,2,982,-27,-13,-8
1063,17,-50,999,-27,-24,-10
1064,100,-80,1012,-20,-16,-11
1065,130,-68,1000,-12,0,-8
1066,53,-32,995,-8,21,-2
1067,-74,3,1011,-3,27,1
1068,-144,27,979,-11,14,-1
1069,-135,20,987,-17,-6,-5
1070,-34,-20,1001,-21,-23,-10
1071,83,-41,1006,-20,-23,-12
1072,403,-381,46,147,59,2
1073,314,546,599,3193,311,97
1074,-249,192,453,-901,-139,37
1075,-307,-439,-157,-966,30,-22
1076,-401,-641,-31,-45,76,-98
1077,-659,-136,1216,210,-64,-94
1078,565,-48,1419,56,-97,-28
1079,64,-29,593,83,-4,-25
1080,455,493,1002,62,-37,34
1081,194,220,1523,-6,50,-23
1082,-101,49,571,-48,75,5
1083,-376,-210,993,-75,36,48
1084,-226,-177,1216,-1,-13,-28
1085,-18,-353,744,-5,-26,-15
1086,158,62,1043,50,-44,-3
1087,209,68,1191,29,-12,-21
1088,148,136,888,4,30,-11
1089,-196,116,991,-23,43,27
1090,-188,35,1090,-32,10,-17
1091,-108,-154,898,-50,-16,-9
1092,-10,-87,968,-14,-35,-5
1093,158,-90,1106,-11,-31,-24
1094,190,-20,972,-2,-1,-14
1095,-12,93,961,-10,26,12
1096,-104,106,1080,-28,23,-6
1097,-140,7,963,-47,6,-4
1098,-134,-13,922,-52,-18,2
1099,30,-86,1076,-47,-41,-17
1100,133,-104,1005,-36,-28,-14
1101,112,-27,959,-39,-5,0
1102,30,24,1049,-41,14,-5
1103,-69,34,1017,-48,19,-2
1104,-147,41,936,-66,3,2
1105,-116,8,1022,-73,-18,-7
1106,3,-47,1035,-85,-30,-14
1107,81,-63,1007,-127,-22,-9
1108,122,-45,1033,-169,-7,-10
1109,56,-30,1026,-179,15,-5
1110,-48,12,1014,-192,22,1
1111,-134,48,1087,-270,10,2
1112,-149,20,1052,-397,-17,-6
1113,-147,16,698,-339,-28,-5
1114,39,-15,977,-62,-34,-16
1115,186,-76,1025,-35,-30,-19
1116,191,-117,972,-25,-1,-8
1117,67,-78,1004,-3,19,-4
1118,-109,-28,999,-7,31,1
1119,-201,10,990,-3,20,-1
1120,-162,28,969,-10,-9,-8
1121,4,24,1020,-16,-30,-14
1122,142,-6,1013,-18,-28,-16
1123,208,49,535,-38,-14,-2
1124,401,233,997,-30,7,-15
1125,-164,135,1270,-88,76,11
1126,-361,-69,276,-150,67,47
1127,-238,-513,632,-63,7,-46
1128,-562,-223,1536,41,-48,7
1129,583,-407,781,21,-94,-86
1130,-70,-64,869,110,8,-17
1131,380,441,1220,78,-43,23
1132,107,262,1184,-2,56,-37
1133,-222,226,711,-53,48,38
1134,-317,64,1129,-82,4,30
1135,-12,-288,1076,-74,-37,-64
1136,-23,-340,728,-32,-29,16
1137,248,-91,1153,26,-41,-19
1138,162,-88,1067,21,14,-24
1139,-12,156,883,27,42,19
1140,-234,175,1072,-10,30,10
1141,-168,55,1049,-31,-3,-19
1142,-68,-96,880,-41,-27,-1
1143,59,-119,1043,-18,-41,-16
1144,216,-153,1038,-6,-23,-20
1145,107,-55,942,12,17,0
1146,-79,68,1026,10,31,7
1147,-135,95,1039,-4,19,-8
1148,-148,50,940,-24,-2,1
1149,-76,10,1004,-29,-27,-7
1150,121,-79,1057,-31,-33,-20
1151,152,-103,958,-22,-10,-8
1152,60,-46,981,-9,16,1
1153,-18,-9,1040,-7,25,-8
1154,-134,31,958,-15,22,3
1155,-143,48,993,-19,-2,-2
1156,-58,1,1031,-27,-22,-14
1157,76,-28,988,-29,-26,-12
1158,113,-49,995,-28,-10,-8
1159,108,-65,1020,-24,10,-9
1160,99,-70,972,-15,25,-4
1161,-23,-43,977,-6,39,2
1162,-136,-26,1028,0,26,-1
1163,-181,11,965,-3,7,-4
1164,-103,19,969,-9,-14,-9
1165,33,13,1028,-14,-26,-12
1166,152,-4,1021,-19,-15,-12
1167,126,-26,972,-22,7,-5
1168,-5,-35,1027,-21,23,1
1169,-128,-50,988,-19,22,0
1170,-168,-42,953,-15,7,0
1171,-75,-32,1003,-8,-19,-9
1172,53,-17,1015,-8,-25,-14
1173,153,5,996,-11,-15,-11
1174,109,19,1012,-12,9,-4
1175,-4,1,1020,-19,24,-1
1176,-131,-22,974,-25,25,3
1177,-167,-41,979,-22,5,-1
1178,75,-213,564,31,-3,-1
1179,571,186,-86,2400,316,76
1180,-186,547,1248,83,-133,50
1181,-218,-309,-284,-1240,-35,-32
1182,-260,-637,57,-281,75,-93
1183,-704,-480,565,96,-12,-85
1184,359,-48,1771,160,-81,-52
1185,81,-221,791,32,-34,-9
1186,232,503,742,105,-37,12
1187,382,304,1506,9,-2,-10
1188,-46,262,901,-53,73,-8
1189,-92,-151,714,-94,45,27
1190,-311,-166,1285,-34,14,2
1191,-109,-352,828,-39,-19,-15
1192,-17,-135,897,36,-26,-7
1193,97,41,1172,29,-34,-7
1194,205,110,997,23,-1,-25
1195,40,105,955,-9,26,7
1196,-98,116,1062,-25,22,1
1197,-90,-61,984,-42,11,-15
1198,-142,-114,913,-36,-10,2
1199,-50,-83,1039,-17,-28,-8
1200,128,-88,1033,-5,-23,-24
1201,74,-4,952,-5,-1,-1
1202,59,84,1043,-4,8,-7
1203,-2,51,1036,-25,15,-12
1204,-109,28,935,-38,12,4
1205,-121,-25,1004,-40,-6,-6
1206,-37,-82,1028,-36,-21,-13
1207,29,-87,953,-27,-22,-7
1208,74,-45,1007,-16,-15,-11
1209,100,-6,1046,-12,0,-12
1210,11,39,975,-18,13,-2
1211,-77,46,999,-29,9,1
1212,-108,15,1008,-38,-1,-5
1213,-79,-34,989,-44,-12,-5
1214,-13,-68,996,-47,-22,-6
1215,73,-66,1026,-50,-20,-11
1216,101,-35,1012,-68,-8,-10
1217,26,20,1060,-111,9,-2
1218,-35,43,1110,-221,15,-3
1219,-100,27,1074,-358,8,3
1220,-107,-18,773,-430,-22,7
1221,-57,-38,933,-100,-7,-10
1222,54,-64,973,-25,-21,-14
1223,94,-64,997,-18,-14,-9
1224,31,1,1009,-7,0,-10
1225,-21,25,986,-21,4,-8
1226,-73,31,993,-23,11,-2
1227,-49,-21,809,-22,-3,-4
1228,408,460,416,-56,-36,-23
1229,63,-111,1534,-68,61,-26
1230,-287,123,225,-160,45,63
1231,-38,-612,535,-82,31,-41
1232,-709,-315,1219,58,-8,0
1233,413,-297,1180,25,-88,-43
1234,-100,-221,704,106,4,-36
1235,153,511,1134,93,-54,34
1236,289,311,1292,6,0,-42
1237,-71,233,787,-46,46,9
1238,-141,74,973,-93,17,44
1239,-62,-217,1225,-73,-6,-54
1240,-78,-384,697,-51,-9,11
1241,-10,-119,1047,18,-26,0
1242,66,-90,1128,23,-14,-27
1243,66,94,897,25,8,0
1244,-32,182,1029,2,13,8
1245,-11,91,1105,-24,4,-18
1246,-3,-53,894,-42,3,-1
1247,-97,-107,995,-23,-5,1
1248,-24,-136,1051,-16,-15,-13
1249,11,-108,953,5,-6,-9
1250,-34,17,974,14,-5,4
1251,50,79,1080,4,-7,-14
1252,67,47,974,-11,0,-10
1253,-26,51,966,-23,7,3
1254,-13,-25,1061,-32,3,-10
1255,-60,-88,964,-31,5,-4
1256,-84,-66,959,-18,-1,3
1257,-27,-59,1039,-7,-11,-13
1258,48,-17,1004,-4,-10,-10
1259,62,34,971,-7,-4,-5
1260,38,38,1034,-15,5,-8
1261,1,9,992,-24,12,-5
1262,-89,-11,970,-31,13,2
1263,-91,-64,1019,-28,0,-8
1264,-54,-79,981,-21,-11,-9
1265,33,-43,984,-10,-16,-9
1266,76,-23,1028,-7,-9,-12
1267,163,-10,1004,-7,6,-10
1268,105,7,978,-9,30,-2
1269,-50,16,1024,-14,38,3
1270,-180,-17,995,-23,29,1
1271,-211,-33,932,-20,6,-4
1272,-88,-47,1002,-17,-23,-10
1273,72,-43,1032,-10,-31,-17
1274,179,-21,982,-8,-15,-10
1275,139,12,1010,-10,12,-3
1276,-19,6,1032,-17,31,1
1277,-148,-7,967,-22,27,2
1278,-186,-23,970,-22,5,-1
1279,-89,-48,1001,-17,-21,-11
1280,61,-60,1003,-13,-30,-15
1281,166,-24,996,-8,-18,-12
1282,124,-1,1022,-9,9,-5
1283,2,10,1016,-13,28,0
1284,-140,11,974,-21,27,4
1285,108,-332,183,135,73,13
1286,180,493,523,3105,276,98
1287,-208,147,566,-865,-201,25
1288,-211,-462,-107,-967,-11,-59
1289,-295,-748,-15,-46,69,-136
1290,-489,-119,1254,210,-52,-115
1291,615,-26,1365,66,-80,-21
1292,30,23,624,87,16,-10
1293,249,510,1025,51,-24,43
1294,57,178,1463,-7,38,-32
1295,-39,18,602,-47,44,-8
1296,-226,-206,983,-60,20,31
1297,-48,-156,1214,9,-8,-34
1298,-2,-297,778,-2,-5,-2
1299,2,92,1023,49,-15,4
1300,11,65,1165,19,-9,-15
1301,91,116,906,-1,6,-12
1302,-81,63,989,-25,13,14
1303,18,10,1104,-29,-2,-22
1304,32,-147,918,-36,0,-8
1305,-86,-54,938,-7,1,6
1306,-29,-57,1101,-8,-6,-15
1307,-1,-11,959,-3,-2,-10
1308,-26,58,960,-12,-3,5
1309,39,54,1087,-20,-11,-17
1310,72,0,980,-31,-2,-10
1311,-8,0,941,-38,4,0
1312,-48,-42,1073,-36,4,-9
1313,-61,-64,980,-33,2,-6
1314,-80,-31,932,-31,-7,2
1315,-8,-14,1046,-25,-21,-10
1316,67,-10,1019,-27,-18,-10
1317,77,16,970,-37,-9,-2
1318,28,26,1026,-40,3,-7
1319,-17,-4,1021,-49,8,-8
1320,-92,-17,953,-56,6,-2
1321,-99,-27,1012,-56,-6,-6
1322,-56,-48,1011,-59,-17,-11
1323,20,-27,1000,-74,-21,-9
1324,89,6,1041,-117,-16,-11
1325,70,30,1061,-167,2,-9
1326,-56,167,1058,-268,7,-1
1327,-105,95,1037,-361,6,-1
1328,-97,-44,1067,-423,-13,-1
1329,-44,-167,726,-265,-1,-1
1330,61,-195,928,-48,-14,-15
1331,107,-155,1017,-6,-18,-12
1332,90,-59,986,9,4,-7
1333,4,49,999,13,18,-5
1334,-91,115,1007,-3,20,0
1335,-132,84,1010,-27,5,-2
1336,-99,1,976,-38,-15,-8
1337,24,-74,1009,-37,-26,-10
1338,107,-123,998,-26,-19,-13
1339,121,-108,994,-9,2,-8
1340,34,-42,899,-10,19,0
1341,201,534,251,-9,-49,-3
1342,3,-51,1670,-103,65,-10
1343,-491,376,-63,-159,32,63
1344,8,-680,524,-122,-3,-48
1345,-547,-224,1326,60,-40,-12
1346,449,-405,1119,-17,-85,-44
1347,229,-324,523,95,13,-72
1348,-65,379,1301,110,-3,58
1349,257,337,1197,18,6,-40
1350,-258,233,805,-23,58,2
1351,-243,214,950,-82,-9,57
1352,0,-168,1282,-95,-28,-63
1353,124,-390,687,-59,-28,-7
1354,74,-135,1036,3,-18,17
1355,139,-140,1167,15,6,-36
1356,-79,19,853,28,39,11
1357,-198,231,1003,10,19,21
1358,-123,81,1144,-18,-13,-27
1359,59,-23,877,-37,-27,-7
1360,73,-88,988,-23,-23,-3
1361,128,-133,1092,-17,-9,-19
1362,55,-130,938,0,19,-3
1363,-160,31,940,10,28,12
1364,-128,60,1101,3,3,-12
1365,-56,38,967,-11,-15,-11
1366,16,42,956,-19,-24,-1
1367,140,-24,1083,-25,-21,-18
1368,112,-96,980,-26,6,-7
1369,-30,-49,935,-17,25,7
1370,-108,-24,1043,-11,18,-5
1371,-117,-23,996,-8,4,-6
1372,-82,26,955,-8,-14,-4
1373,53,28,1051,-14,-25,-14
1374,121,-15,1017,-22,-13,-12
1375,84,-19,970,-25,9,-1
1376,14,-29,1006,-26,20,-3
1377,-77,-48,989,-24,22,-1
1378,-92,-43,973,-16,9,-1
1379,-5,-25,1003,-11,-2,-9
1380,80,-38,1033,-9,-2,-12
1381,60,-19,977,-8,11,-5
1382,11,-5,998,-8,22,-5
1383,-51,1,996,-14,24,-2
1384,-111,2,980,-16,16,1
1385,-108,-9,976,-17,-3,-4
1386,-53,-19,1010,-20,-18,-8
1387,47,-44,997,-17,-20,-10
1388,82,-49,1000,-15,-8,-7
1389,100,-24,1009,-12,6,-6
1390,17,-10,999,-11,20,-3
1391,-80,4,994,-13,20,0
1392,-134,8,986,-17,6,-3
1393,-99,-9,997,-19,-10,-7
1394,150,-154,759,0,-17,-4
1395,611,-102,-132,2461,351,87
1396,-248,720,1317,660,-106,74
1397,-224,-428,-432,-1664,-62,-22
1398,-257,-629,10,-271,94,-76
1399,-742,-536,272,158,4,-96
1400,139,-29,1795,187,-89,-71
1401,172,-291,926,55,-55,-13
1402,182,419,568,125,-30,11
1403,516,412,1497,11,-22,6
1404,33,318,1099,-5,77,-20
1405,-43,-110,547,-110,54,24
1406,-398,-161,1332,-37,36,18
1407,-199,-356,876,-30,-12,-21
1408,-41,-238,827,15,-31,-12
1409,105,28,1164,53,-48,-4
1410,260,121,1061,35,-11,-30
1411,125,133,923,-6,27,1
1412,-126,186,1056,-14,36,13
1413,-110,-13,1017,-56,16,-17
1414,-172,-153,904,-45,-6,2
1415,-87,-119,999,-20,-31,-4
1416,148,-130,1064,-6,-32,-29
1417,121,-29,949,7,-5,-3
1418,66,117,1023,4,11,-1
1419,0,97,1064,-21,21,-14
1420,-125,58,939,-40,18,6
1421,-151,-10,975,-52,-5,-2
1422,-48,-92,1045,-43,-25,-13
1423,53,-114,960,-34,-28,-5
1424,95,-67,991,-22,-17,-9
1425,105,-1,1050,-12,2,-8
1426,18,48,986,-22,16,-1
1427,-104,66,988,-35,14,3
1428,-129,32,1002,-49,-3,-4
1429,-79,-27,991,-54,-16,-5
1430,-6,-79,984,-53,-25,-8
1431,89,-81,1018,-44,-21,-12
1432,118,-50,1006,-38,-5,-10
1433,22,9,1015,-54,13,-1
1434,-51,48,1040,-86,15,-5
1435,-114,44,998,-127,8,-3
1436,-111,21,1005,-168,-10,-3
1437,-44,-24,1027,-192,-26,-10
1438,51,-36,1081,-217,-27,-11
1439,75,-11,1139,-383,-25,-5
1440,64,-34,712,-402,5,4
1441,4,-5,957,-73,21,-5
1442,-60,-17,958,-39,9,-2
1443,-100,-77,1001,-30,0,-7
1444,-80,-70,987,-13,-16,-11
1445,39,-51,994,-14,-21,-12
1446,91,32,706,-9,-20,-4
1447,414,379,706,-38,-46,-14
1448,18,70,1493,-89,66,3
1449,-375,41,172,-151,61,51
1450,-96,-534,682,-76,6,-34
1451,-640,-186,1479,31,-28,22
1452,456,-376,799,2,-81,-70
1453,-30,-148,838,98,4,-31
1454,247,393,1237,79,-45,33
1455,249,248,1124,4,31,-49
1456,-172,205,809,-39,50,30
1457,-302,127,1059,-78,9,41
1458,-70,-245,1103,-76,-23,-62
1459,-76,-328,744,-39,-28,16
1460,154,-105,1109,17,-46,-14
1461,231,-120,1083,19,-6,-34
1462,56,120,889,26,32,16
1463,-152,191,1067,-3,33,11
1464,-176,53,1063,-28,10,-17
1465,-132,-51,866,-41,-15,6
1466,-19,-121,1037,-23,-38,-14
1467,166,-160,1048,-10,-32,-21
1468,169,-75,934,10,0,-5
1469,-1,58,1021,13,24,5
1470,-72,88,1071,-4,22,-8
1471,-154,63,921,-23,12,1
1472,-140,28,1002,-31,-14,-2
1473,20,-80,1057,-34,-34,-18
1474,117,-114,962,-23,-22,-10
1475,108,-62,981,-9,-1,-4
1476,53,-24,1040,-5,17,-10
1477,-53,23,980,-9,26,0
1478,-145,72,972,-18,12,4
1479,-102,22,1040,-27,-9,-10
1480,-25,-33,980,-34,-22,-8
1481,79,-51,992,-29,-22,-9
1482,115,-76,1024,-24,-6,-13
1483,79,-66,978,-17,13,-6
1484,0,-16,981,-8,23,-1
1485,-79,3,1008,-10,20,-3
1486,-68,-5,1000,-12,9,-7
1487,-60,-11,985,-16,0,-6
1488,29,-26,1020,-16,-6,-9
1489,68,-60,1001,-15,4,-9
1490,65,-41,980,-8,16,-3
1491,13,-18,1003,-5,24,-3
1492,-75,-6,1005,-6,24,-2
1493,-130,6,970,-9,12,0
1494,-103,11,990,-14,-6,-5
1495,-3,-16,1010,-18,-17,-11
1496,66,-31,996,-16,-15,-10
1497,115,-28,1005,-16,-2,-9
1498,55,-24,1006,-15,16,-3
1499,-55,-20,996,-13,22,0
1500,-127,-7,975,-14,14,-2
1501,-128,-12,997,-16,-3,-4
1502,-30,-26,995,-15,-20,-10
1503,74,-30,1006,-14,-20,-13
1504,137,-19,1002,-11,-7,-12
1505,76,-12,1009,-12,13,-4
1506,0,-47,965,-13,24,1
1507,369,-460,-458,657,200,42
1508,-248,1127,1581,2366,120,91
1509,-353,-213,-14,-1431,-156,9
1510,-216,-534,171,-511,36,-67
1511,-390,-674,264,28,3,-110
1512,-39,-191,1562,130,-80,-43
1513,651,-128,1117,86,-61,-34
1514,68,347,730,120,32,9
1515,254,516,1218,0,3,21
1516,-235,257,1243,-19,65,-18
1517,-162,-64,573,-109,21,10
1518,-202,-293,1187,-57,-6,4
1519,101,-333,1009,2,-31,-35
1520,141,-243,829,15,-10,-1
1521,62,117,1113,67,2,-1
1522,-28,138,1083,26,25,-8
1523,-108,151,890,-13,24,1
1524,-165,67,1037,-19,0,4
1525,51,-72,1051,-37,-28,-27
1526,110,-172,926,-21,-18,-9
1527,72,-66,1003,6,-2,-2
1528,33,-36,1063,1,16,-11
1529,-96,37,941,9,26,3
1530,-157,99,984,-10,10,4
1531,-27,36,1067,-23,-17,-19
1532,44,-38,957,-28,-20,-9
1533,98,-43,989,-28,-13,-8
1534,84,-70,1061,-19,5,-12
1535,-28,-44,971,-12,24,1
1536,-125,5,959,-14,19,1
1537,-114,22,1026,-13,-1,-7
1538,-26,4,986,-22,-19,-10
1539,49,-1,988,-26,-21,-11
1540,122,-22,1029,-23,-12,-12
1541,70,-34,1001,-25,10,-6
1542,-39,-27,988,-23,20,-1
1543,-115,-13,992,-20,14,-4
1544,-105,-15,991,-23,-3,-6
1545,-60,-7,988,-23,-20,-7
1546,59,0,1022,-25,-28,-13
1547,118,-15,1002,-28,-15,-9
1548,69,-13,994,-28,7,-3
1549,-10,-8,1013,-32,15,-3
1550,-103,-11,992,-39,12,0
1551,-123,-16,984,-44,-5,-2
1552,-90,-11,1013,-54,-21,-6
1553,36,-3,1034,-74,-29,-10
1554,85,12,1057,-119,-19,-9
1555,27,132,1189,-279,-7,-4
1556,17,42,1038,-490,10,1
1557,-66,-35,720,-379,30,5
1558,-84,-107,941,-83,7,-5
1559,-54,-152,962,-38,-16,-12
1560,14,-164,987,-11,-23,-10
1561,73,-62,997,10,-17,-13
1562,105,15,1021,11,2,-9
1563,34,100,1000,0,20,-1
1564,-55,91,1008,-22,21,1
1565,-58,313,68,-59,-45,-2
1566,298,-124,1652,-81,6,-34
1567,-371,346,404,-120,28,38
1568,-83,-594,429,-146,22,-4
1569,-205,-348,938,44,-30,-26
1570,-123,-263,1512,15,-45,22
1571,573,-271,443,74,-31,-107
1572,-328,243,1198,107,22,62
1573,276,546,1188,29,-39,-11
1574,-129,106,1000,-42,49,-36
1575,-143,167,760,-75,-5,58
1576,-42,-122,1299,-83,-16,-30
1577,176,-433,822,-54,-22,-43
1578,-79,-157,892,8,-2,45
1579,86,-22,1171,26,-8,-38
1580,-77,-11,969,19,22,-4
1581,-84,236,910,8,6,21
1582,-67,73,1150,-25,-7,-21
1583,123,-35,958,-37,-21,-14
1584,10,-120,912,-32,-3,8
1585,20,-115,1080,-12,-3,-17
1586,-12,-121,980,-2,11,-5
1587,-115,21,924,14,14,5
1588,-90,68,1075,1,-6,-8
1589,61,62,1026,-9,-19,-18
1590,48,13,933,-23,-9,1
1591,64,-6,1056,-27,-2,-6
1592,39,-97,1010,-29,11,-10
1593,-93,-58,914,-19,22,7
1594,-112,-35,1036,-10,6,-4
1595,-57,-14,1014,-10,-9,-12
1596,29,16,965,-11,-16,-5
1597,66,30,1032,-16,-12,-11
1598,104,-10,1024,-24,3,-11
1599,25,-12,957,-27,19,0
1600,-77,-26,1012,-29,20,1
1601,-100,-58,998,-25,8,-7
1602,-85,-43,963,-19,-5,-3
1603,9,-20,1013,-13,-17,-9
1604,83,-20,1026,-13,-9,-14
1605,129,-6,980,-16,6,-7
1606,84,-7,1001,-18,26,-4
1607,-23,-37,1030,-18,35,-2
1608,-129,-32,962,-16,29,2
1609,-158,-37,973,-11,12,-3
1610,-81,-43,1002,-7,-10,-11
1611,45,-28,993,-7,-17,-11
1612,127,3,995,-5,-8,-10
1613,83,23,1024,-11,10,-5
1614,-3,15,1010,-18,23,-1
1615,-128,-6,972,-24,23,2
1616,-144,-36,998,-23,3,-4
1617,-86,-73,988,-20,-18,-10
1618,51,-57,989,-10,-25,-12
1619,134,-31,1008,-9,-14,-12
1620,111,3,1010,-7,9,-6
1621,14,22,1003,-12,24,-2
1622,94,-141,385,27,54,17
1623,204,563,268,1728,276,80
1624,-393,247,1322,-90,-154,32
1625,-242,-297,130,-708,-35,-20
1626,-206,-749,216,-186,27,-98
1627,-496,-566,864,89,-42,-62
1628,626,-37,1635,174,-85,-45
1629,158,42,748,78,7,-3
1630,195,712,925,89,4,35
1631,29,363,1425,-20,34,-8
1632,-205,147,752,-100,52,-6
1633,-150,-288,895,-91,8,11
1634,-73,-346,1181,-28,-23,-23
1635,105,-386,829,-2,-22,-13
1636,87,-15,985,74,-3,-1
1637,-19,142,1154,38,12,-2
1638,-15,230,934,16,20,-9
1639,-136,137,987,-25,10,6
1640,-47,24,1058,-45,-18,-12
1641,103,-167,974,-40,-19,-19
1642,50,-163,942,-19,-6,-2
1643,20,-98,1059,3,5,-6
1644,-22,-19,989,14,16,-10
1645,-131,91,958,3,13,10
1646,-68,106,1040,-9,-8,-11
1647,34,25,1009,-31,-19,-15
1648,75,-19,956,-34,-15,-5
1649,70,-71,1039,-30,-3,-11
1650,13,-95,1019,-25,13,-6
1651,-98,-37,935,-13,19,3
1652,-114,8,1020,-9,3,-7
1653,-55,18,1013,-15,-17,-11
1654,41,26,979,-19,-22,-10
1655,95,3,1015,-28,-15,-12
1656,79,-28,1012,-28,2,-9
1657,-2,-38,980,-27,13,-3
1658,-101,-27,991,-26,15,-1
1659,-110,-33,1008,-22,0,-6
1660,-80,-20,972,-21,-15,-6
1661,31,6,1014,-20,-26,-11
1662,102,0,1026,-25,-22,-12
1663,90,0,1007,-37,-4,-4
1664,15,6,1006,-54,9,0
1665,-86,-4,1025,-79,12,-1
1666,-128,-16,1054,-134,-1,-2
1667,-101,-13,1139,-291,-16,-3
1668,14,-40,937,-432,-25,-4
1669,80,-23,817,-161,-1,-9
1670,74,146,986,-35,-3,1
1671,47,77,1009,-60,6,1
1672,-58,-50,1011,-64,14,-1
1673,-88,-188,949,-56,1,-1
1674,-92,-194,973,-24,-5,-7
1675,-21,-159,985,4,-15,-10
1676,58,-27,1007,23,-12,-11
1677,114,90,1016,16,-2,-9
1678,51,148,1020,-3,14,-3
1679,-37,215,464,-27,1,0
1680,285,277,1045,-64,-27,-20
1681,-214,-3,1236,-120,46,6
1682,-281,-324,271,-163,36,36
1683,-80,-695,511,0,-15,-49
1684,-415,-243,1600,96,-36,22
1685,602,-228,784,71,-69,-80
1686,-106,158,902,130,28,-4
1687,178,653,1183,52,-31,40
1688,-22,296,1199,-36,39,-44
1689,-167,81,675,-95,19,29
1690,-194,-101,1175,-95,-10,19
1691,149,-412,1018,-61,-39,-65
1692,19,-334,779,-4,-10,25
1693,129,25,1126,45,-12,-14
1694,-9,40,1068,21,24,-17
1695,-82,231,893,7,23,16
1696,-210,149,1064,-33,5,4
1697,21,-20,1055,-48,-27,-26
1698,62,-179,898,-46,-23,1
1699,82,-142,1030,-13,-13,-10
1700,97,-129,1037,-2,5,-14
1701,-49,11,930,15,25,4
1702,-162,105,1018,3,15,5
1703,-85,101,1055,-15,-9,-14
1704,5,8,952,-34,-21,-6
1705,56,-26,1001,-35,-20,-7
1706,133,-106,1056,-33,-8,-15
1707,46,-93,950,-21,18,-2
1708,-87,-23,983,-11,25,6
1709,-116,12,1030,-12,10,-8
1710,-97,31,967,-18,-5,-3
1711,-11,30,998,-22,-21,-7
1712,77,-16,1040,-32,-19,-15
1713,119,-40,984,-33,-2,-10
1714,39,-50,981,-28,17,-2
1715,-23,-59,1020,-21,22,-4
1716,-82,-53,973,-16,17,-2
1717,-39,-37,986,-6,5,-4
1718,-11,-34,1026,-5,-2,-10
1719,52,-15,995,-3,-1,-8
1720,49,-9,982,-6,10,-6
1721,10,0,1010,-9,20,-3
1722,-34,-7,1007,-12,21,-2
1723,-95,-4,958,-14,15,0
1724,-113,-13,1002,-15,-1,-3
1725,-57,-26,1006,-16,-15,-10
1726,40,-30,992,-16,-16,-9
1727,96,-23,1003,-11,-8,-10
1728,91,-22,1012,-11,6,-6
1729,9,-7,985,-15,18,-1
1730,-102,2,987,-17,20,2
1731,-134,-19,1006,-21,4,-3
1732,-98,-29,975,-21,-11,-6
1733,29,-36,1002,-15,-22,-10
1734,103,-36,1019,-13,-15,-11
1735,123,-23,1005,-12,3,-7
1736,37,1,992,-13,20,-1
1737,-88,3,1000,-16,25,2
1738,-50,-73,867,-14,8,-1
1739,449,159,-359,879,188,54
1740,-312,596,1638,798,-45,41
1741,-198,-165,-175,-928,-73,-6
1742,-127,-608,291,-218,57,-74
1743,-467,-817,351,-14,-19,-67
1744,11,-381,1549,212,-52,-35
1745,402,-174,1219,126,-58,-49
1746,-51,526,603,125,2,40
1747,428,722,1393,63,-20,-8
1748,-160,450,1130,-78,59,-8
1749,14,-20,632,-143,25,18
1750,-190,-396,1260,-85,15,-8
1751,-112,-506,858,-59,-20,-16
1752,35,-338,860,43,-15,-6
1753,-24,18,1151,73,-12,-8
1754,71,218,1008,46,-1,-9
1755,77,245,986,20,10,-10
1756,-58,175,1042,-34,7,4
1757,31,-33,1003,-52,-1,-18
1758,-37,-210,947,-40,1,-7
1759,-84,-143,978,-17,-2,4
1760,8,-120,1042,10,-4,-19
1761,-38,0,958,15,1,-2
1762,15,133,1019,8,-5,-5
1763,62,90,1055,-12,-6,-20
1764,24,36,960,-33,2,-2
1765,-9,-23,983,-40,6,-4
1766,-51,-107,1033,-34,6,-8
1767,-73,-106,958,-22,0,-1
1768,-64,-47,975,-6,-8,-8
1769,28,1,1043,-4,-15,-12
1770,63,38,997,-9,-9,-9
1771,62,51,994,-17,0,-7
1772,16,18,1019,-29,8,-8
1773,-58,-29,993,-32,13,-3
1774,-105,-65,968,-32,5,-3
1775,-75,-66,996,-21,-9,-8
1776,11,-55,1002,-13,-21,-11
1777,56,-11,1015,-18,-19,-8
1778,95,32,1035,-36,-8,-7
1779,32,33,1003,-54,11,-3
1780,-52,22,1023,-78,15,1
1781,-110,-7,1088,-139,7,-2
1782,-96,-37,1118,-319,-12,0
1783,-28,-83,720,-330,-24,-3
1784,54,-39,987,-30,-12,-10
1785,107,-5,1003,-13,-10,-9
1786,34,70,1003,-22,8,-4
1787,-56,108,1011,-39,8,2
1788,-96,33,988,-55,5,-1
1789,-88,-118,989,-56,-6,-2
1790,-20,-184,974,-33,-19,-10
1791,75,-140,903,3,-14,-11
1792,680,504,389,33,6,-11
1793,8,-65,1672,-72,99,-26
1794,-225,376,238,-134,50,83
1795,-159,-549,575,-134,72,-15
1796,-923,-322,988,30,7,-24
1797,177,-413,1264,23,-104,-50
1798,-41,-412,734,96,-39,-60
1799,175,409,1067,120,-68,16
1800,681,316,1316,40,-24,-47
1801,-14,400,920,-17,84,14
1802,-183,196,827,-105,47,64
1803,-329,-157,1318,-87,15,-29
1804,-238,-380,657,-79,-17,-10
1805,-16,-290,972,-3,-54,-3
1806,262,-156,1201,37,-53,-37
1807,218,30,884,39,10,-3
1808,66,257,1032,27,32,11
1809,-195,181,1137,-19,35,2
1810,-190,33,865,-51,11,-4
1811,-186,-124,973,-46,-25,-2
1812,40,-178,1065,-24,-52,-21
1813,197,-196,956,1,-29,-22
1814,137,-12,980,22,1,0
1815,28,90,1081,14,22,-3
1816,-82,103,989,-7,28,-3
1817,-210,85,937,-26,9,9
1818,-105,-2,1056,-37,-23,-11
1819,30,-130,999,-36,-35,-17
1820,100,-104,947,-16,-24,-6
1821,137,-72,1032,-5,-4,-12
1822,52,-22,1014,-1,19,-6
1823,-58,59,970,-3,24,4
1824,-140,77,1011,-15,9,-3
1825,-102,14,1015,-29,-11,-8
1826,-25,-35,976,-32,-23,-6
1827,106,-61,1019,-27,-21,-12
1828,206,-106,1000,-15,2,-16
1829,130,-85,978,-5,31,-5
1830,-15,-9,1008,3,42,4
1831,-178,33,1002,-2,38,1
1832,-237,36,947,-12,11,-1
1833,-161,36,1001,-21,-20,-7
1834,42,-15,1022,-25,-37,-16
1835,158,-58,996,-24,-24,-12
1836,189,-63,1007,-17,-2,-7
1837,66,-52,1013,-12,26,-2
1838,-95,-20,985,-11,33,3
1839,-202,0,974,-9,20,1
1840,-166,18,987,-11,-9,-7
1841,-12,-6,1005,-17,-29,-13
1842,108,-18,1006,-16,-27,-12
1843,180,-29,1013,-18,-7,-10
1844,94,-35,1005,-19,20,-3
1845,-56,-28,996,-15,33,5
1846,-166,-19,979,-15,19,1
1847,-172,-14,989,-14,-3,-4
1848,-51,-23,992,-13,-27,-11
1849,86,-17,1006,-11,-28,-13
1850,174,-15,1012,-12,-12,-11
1851,106,-11,1011,-16,16,-2
1852,-14,-13,1010,-18,29,1
1853,-152,-11,972,-18,25,2
1854,-167,-24,986,-17,0,-3
1855,-91,-43,993,-15,-22,-11
1856,97,-70,940,-9,-30,-12
1857,556,131,-198,428,132,23
1858,-47,618,1706,727,30,29
1859,-117,14,372,-646,-72,15
1860,-168,-523,298,-417,99,-33
1861,-506,-737,333,-65,15,-46
1862,-250,-253,1578,133,-70,14
1863,295,-271,1054,74,-73,-61
1864,-135,395,730,126,-10,15
1865,615,582,1301,34,-51,-6
1866,57,399,1213,-49,61,-19
1867,-18,19,594,-128,45,37
1868,-296,-293,1276,-87,28,6
1869,-250,-438,864,-53,-8,-25
1870,-56,-338,807,17,-28,-2
1871,125,-18,1183,68,-46,-20
1872,214,139,1025,49,-7,-15
1873,163,249,955,17,25,-3
1874,-142,198,1089,-26,37,12
1875,-150,6,986,-56,16,-11
1876,-159,-189,912,-51,-9,-4
1877,-53,-191,999,-17,-32,-6
1878,157,-168,1033,8,-27,-26
1879,163,-19,967,27,-2,-8
1880,41,145,1029,20,20,2
1881,-51,136,1056,-8,26,-8
1882,-165,68,935,-35,16,3
1883,-143,-22,992,-43,-10,-3
1884,-3,-144,1036,-37,-31,-21
1885,96,-145,954,-13,-24,-10
1886,135,-65,991,4,-5,-10
1887,66,9,1044,5,19,-8
1888,-44,70,986,-3,26,0
1889,-145,85,978,-18,15,0
1890,-127,16,1021,-31,-8,-7
1891,-43,-57,981,-35,-23,-10
1892,76,-92,996,-27,-23,-12
1893,130,-92,1014,-13,-10,-13
1894,79,-45,994,-4,10,-6
1895,-15,14,1041,-7,20,-1
1896,-127,68,999,-96,5,6
1897,-124,18,999,-69,3,-6
1898,-78,3,949,-78,-18,-4
1899,56,-47,1009,-50,-23,-10
1900,100,-68,1000,-32,-13,-11
1901,101,-50,987,-18,5,-4
1902,12,31,1009,-15,18,-3
1903,-95,115,1004,-32,18,3
1904,-143,62,980,-47,6,2
1905,-101,-42,986,-56,-12,-3
1906,19,-157,996,-42,-25,-13
1907,91,-170,987,-16,-18,-11
1908,134,-105,990,3,0,-8
1909,51,5,1012,14,22,-4
1910,-4,200,539,7,25,7
1911,323,462,794,-38,6,-18
1912,-232,243,1282,-138,44,6
1913,-345,19,202,-216,44,62
1914,-58,-615,487,-128,-20,-49
1915,-590,-657,1216,41,-32,48
1916,647,-392,1234,74,-94,-84
1917,-207,-459,695,116,30,-38
1918,288,674,1058,177,-36,4
1919,137,546,1476,39,22,-18
1920,-193,546,616,-56,47,14
1921,-110,96,1141,-138,3,31
1922,-62,-325,1134,-116,-25,-52
1923,-4,-564,664,-76,-18,8
1924,144,-328,1071,34,-26,-14
1925,0,-137,1101,55,9,-11
1926,40,191,889,64,24,-1
1927,-177,330,1100,21,22,10
1928,-54,238,1046,-34,-11,-14
1929,43,-29,942,-64,-17,-11
1930,25,-184,996,-50,-18,-3
1931,86,-245,1012,-26,-6,-12
1932,20,-193,943,13,16,-7
1933,-138,11,989,29,18,12
1934,-76,130,1056,20,-1,-12
1935,-11,118,985,-4,-11,-8
1936,26,91,990,-25,-17,-1
1937,112,-31,1061,-37,-11,-16
1938,62,-132,967,-34,10,-5
1939,-66,-108,952,-17,22,7
1940,-102,-86,1022,-1,13,-8
1941,-97,-9,978,6,0,-5
1942,-10,63,990,3,-16,-8
1943,57,59,1038,-10,-16,-14
1944,117,30,1006,-23,-5,-8
1945,43,-12,983,-31,15,0
1946,-45,-54,1014,-29,21,-1
1947,-107,-82,975,-25,14,-1
1948,-108,-47,974,-12,-2,-3
1949,-28,-24,1010,-6,-17,-11
1950,92,13,1007,-6,-17,-13
1951,188,53,997,-13,0,-9
1952,85,33,1021,-28,28,-3
1953,-59,-18,1008,-34,35,2
1954,-204,-63,947,-34,26,2
1955,-193,-93,975,-22,-4,-5
1956,-74,-86,1008,-8,-29,-13
1957,100,-36,995,0,-33,-15
1958,184,15,1008,1,-14,-11
1959,136,45,1024,-6,14,-5
1960,-7,40,999,-21,32,3
1961,-158,11,985,-29,29,5
1962,-188,-51,992,-30,3,-2
1963,-117,-86,972,-22,-21,-9
1964,61,-71,1000,-9,-33,-14
1965,156,-43,1025,-2,-20,-14
1966,150,1,1008,-1,8,-5
1967,37,41,995,-9,28,0
1968,-120,37,994,-20,31,4
1969,-186,-8,989,-28,10,0
1970,-85,-101,900,-29,-14,-7
1971,528,-97,-480,691,162,38
1972,-112,689,1639,1164,-2,43
1973,-131,-167,-390,-1163,-97,0
1974,-139,-552,208,-346,84,-54
1975,-485,-802,249,20,14,-65
1976,-107,-149,1684,173,-58,8
1977,368,-251,954,75,-60,-58
1978,-155,481,671,149,2,25
1979,492,610,1376,17,-45,3
1980,-38,358,1183,-45,62,-33
1981,50,-53,542,-131,28,31
1982,-251,-308,1329,-73,26,5
1983,-129,-457,861,-36,-9,-28
1984,-66,-276,832,29,-12,7
1985,15,43,1164,68,-31,-13
1986,143,157,1022,44,-8,-18
1987,147,206,947,9,12,-5
1988,-85,160,1070,-20,24,7
1989,-13,-28,1024,-51,12,-18
1990,-132,-179,898,-40,7,3
1991,-112,-130,1007,-10,-13,-1
1992,54,-136,1042,5,-21,-24
1993,76,-2,955,24,-4,-3
1994,69,123,1022,12,4,-2
1995,49,103,1059,-11,12,-16
1996,-54,47,940,-29,18,3
1997,-127,-5,982,-38,9,-1
1998,-69,-121,1056,-33,-9,-14
1999,-34,-118,937,-18,-13,-5
2000,57,-53,990,-2,-16,-10
2001,91,-3,1058,2,-6,-13
2002,66,48,989,-6,12,-4
2003,-25,68,974,-19,17,-3
2004,-91,32,1024,-28,12,-4
2005,-99,-37,979,-35,-1,-5
2006,-71,-71,974,-31,-11,-6
2007,45,-81,1024,-18,-19,-13
2008,81,-65,998,-10,-8,-10
2009,81,5,993,-5,5,-6
2010,13,41,1025,-13,15,-6
2011,-66,31,999,-23,16,-4
2012,-117,13,968,-33,3,-2
2013,-90,-13,1007,-39,-16,-4
2014,-7,-56,1010,-45,-25,-7
2015,64,-60,1008,-54,-22,-6
2016,107,-21,1045,-63,-10,-8
2017,50,5,1113,-111,10,-5
2018,-59,72,1089,-309,5,5
2019,-168,143,739,-256,22,0
2020,-134,79,1003,-61,-7,-4
2021,-48,-74,997,-80,-31,-6
2022,110,-203,976,-57,-36,-14
2023,171,-211,987,-26,-20,-15
2024,110,-147,984,4,14,-4
2025,-10,-12,1008,19,34,0
2026,-136,88,1003,10,27,3
2027,-170,128,991,-7,7,-1
2028,-101,77,995,-31,-21,-9
2029,47,-12,1019,-41,-32,-12
2030,301,83,96,-7,-34,-10
2031,441,-187,1326,-27,29,-23
2032,-211,305,614,-91,54,38
2033,-218,-324,367,-128,87,25
2034,-436,-212,866,27,-5,-27
2035,-376,-43,1576,6,-56,23
2036,500,-381,457,9,-57,-116
2037,-192,108,1135,90,-8,28
2038,522,259,1177,21,-55,-5
2039,81,62,1062,-2,72,-44
2040,-195,156,706,-40,41,67
2041,-300,49,1293,-52,15,0
2042,-57,-254,871,-53,-20,-52
2043,-134,-135,838,-17,-30,32
2044,256,-58,1203,8,-54,-39
2045,187,-107,988,7,7,-16
2046,54,133,886,10,31,23
2047,-189,80,1154,-13,34,-4
2048,-142,-1,952,-28,7,-12
2049,-170,-56,881,-29,-15,8
2050,17,-79,1099,-14,-43,-22
2051,183,-126,1009,-6,-29,-18
2052,140,-13,920,10,4,0
2053,-6,54,1071,3,22,0
2054,-64,45,1035,-11,23,-9
2055,-183,30,895,-25,13,7
2056,-125,12,1041,-23,-20,-7
2057,42,-95,1041,-28,-33,-20
2058,103,-76,937,-16,-19,-6
2059,118,-34,1013,-8,-2,-7
2060,56,-13,1044,-8,19,-9
2061,-67,28,953,-11,26,4
2062,-149,58,991,-21,11,0
2063,-99,-1,1033,-29,-11,-12
2064,-23,-41,968,-31,-21,-8
2065,82,-49,1013,-26,-20,-11
2066,121,-63,1016,-19,-5,-12
2067,70,-42,974,-13,15,-2
2068,11,5,992,-12,23,-1
2069,-34,15,1013,-15,26,-6
2070,-90,-8,1000,-22,14,-2
2071,-120,-15,979,-22,2,-1
2072,-20,-55,1007,-21,-10,-12
2073,52,-69,986,-15,-8,-9
2074,95,-35,998,-7,1,-7
2075,52,-5,1004,-8,13,-6
2076,-56,25,1003,-10,21,0
2077,-131,13,981,-20,12,-1
2078,-115,-7,990,-22,-5,-6
2079,-9,-46,1006,-22,-21,-9
2080,74,-62,995,-17,-18,-11
2081,127,-44,1000,-10,-5,-9
2082,63,-12,1011,-8,15,-4
2083,-49,4,1001,-10,24,1
2084,-142,7,980,-17,17,-1
2085,-132,0,990,-20,-2,-5
2086,-38,-35,1000,-21,-21,-10
2087,78,-45,1002,-18,-22,-13
2088,144,-39,1004,-11,-7,-9
2089,95,-38,998,-13,14,-3
2090,374,27,-267,197,120,40
2091,-285,835,1523,946,123,52
2092,-313,-42,682,-694,-126,9
2093,-289,-386,301,-554,37,-34
2094,-227,-713,156,-221,-25,-79
2095,-206,-701,1156,114,-48,-1
2096,728,-127,1530,164,-76,-104
2097,-39,35,704,109,22,25
2098,343,873,1053,111,-1,6
2099,-173,467,1416,-40,58,-8
2100,-282,256,574,-120,35,21
2101,-65,-305,1188,-128,-16,-7
2102,-67,-471,975,-68,-36,-31
2103,172,-450,822,-7,-31,-4
2104,172,-121,1074,71,-4,-17
2105,-56,121,1059,57,34,8
2106,-29,270,960,31,29,-3
2107,-251,211,1045,-13,15,4
2108,-43,64,989,-46,-27,-11
2109,85,-176,999,-46,-30,-21
2110,114,-202,973,-22,-18,-5
2111,123,-142,1012,7,7,-10
2112,-20,-34,991,21,30,-5
2113,-170,109,979,15,26,10
2114,-125,135,1030,-6,-1,-11
2115,-31,43,993,-29,-23,-12
2116,66,-27,984,-34,-26,-8
2117,151,-113,1041,-30,-12,-16
2118,70,-114,985,-15,15,-4
2119,-52,-54,974,-3,27,2
2120,-136,4,1003,1,18,-5
2121,-125,48,990,-4,-2,-4
2122,-23,37,992,-13,-22,-11
2123,72,-3,1019,-23,-22,-14
2124,136,-36,1005,-24,-8,-11
2125,54,-62,995,-20,16,-5
2126,-47,-49,1000,-14,23,-2
2127,-129,-22,979,-9,18,-3
2128,-123,1,994,-8,-3,-5
2129,-43,3,1003,-11,-23,-9
2130,77,-1,1007,-14,-24,-13
2131,120,-14,999,-19,-9,-9
2132,67,-22,1010,-19,11,-6
2133,-19,-27,999,-19,20,-4
2134,-115,-19,1028,-27,13,3
2135,-131,-12,957,-64,-6,2
2136,-64,-25,995,-19,-16,-9
2137,60,-10,1003,-22,-24,-10
2138,112,-18,1007,-25,-11,-10
2139,87,-8,1012,-21,7,-7
2140,5,0,978,-23,19,-3
2141,-109,12,992,-24,21,0
2142,-128,-9,996,-31,3,-3
2143,-82,57,986,-36,-15,-4
2144,35,1,1009,-43,-23,-6
2145,101,-58,1017,-42,-13,-9
2146,161,-41,370,-51,-11,2
2147,411,15,1051,-6,14,-23
2148,-229,223,1053,-63,60,10
2149,-358,-84,222,-139,66,57
2150,-269,-391,645,-21,-15,-27
2151,-518,-63,1651,17,-56,35
2152,643,-374,612,6,-82,-116
2153,-101,-36,913,87,16,-11
2154,411,374,1247,50,-48,23
2155,95,137,1144,-8,63,-42
2156,-228,153,671,-52,49,46
2157,-348,78,1209,-62,4,33
2158,0,-259,1016,-63,-34,-71
2159,-59,-255,746,-28,-28,23
2160,259,-25,1179,20,-48,-21
2161,176,-114,1052,4,12,-27
2162,2,119,863,17,39,25
2163,-233,130,1099,-12,31,9
2164,-152,10,1036,-27,0,-22
2165,-90,-86,866,-31,-26,4
2166,66,-81,1062,-11,-41,-19
2167,215,-131,1050,-5,-21,-22
2168,116,-37,914,9,16,2
2169,-72,55,1039,5,30,7
2170,-127,61,1046,-8,20,-10
2171,-158,14,921,-21,1,2
2172,-85,0,1005,-20,-25,-5
2173,116,-73,1072,-22,-34,-21
2174,145,-92,951,-14,-10,-7
2175,72,-29,985,-4,14,2
2176,-4,-10,1043,-4,25,-8
2177,-127,22,955,-10,25,4
2178,-150,42,991,-14,0,-1
2179,-66,0,1028,-22,-21,-15
2180,67,-33,988,-23,-25,-10
2181,105,-47,1001,-21,-11,-8
2182,106,-49,1022,-18,8,-9
2183,25,-30,974,-15,23,-2
2184,-49,6,986,-12,26,1
2185,-79,1,1016,-15,17,-9
2186,-60,-4,992,-19,3,-4
2187,-28,-24,992,-20,-4,-6
2188,20,-54,1002,-17,-2,-12
2189,70,-48,998,-13,5,-7
2190,28,-23,975,-11,16,-5
2191,-54,-4,1014,-9,17,-2
2192,-99,11,994,-12,6,-3
2193,-105,3,972,-18,-4,-4
2194,-21,-26,1009,-20,-17,-8
2195,63,-47,1009,-19,-15,-10
2196,118,-39,987,-14,-4,-8
2197,58,-22,1006,-11,13,-2
2198,-34,-8,1015,-13,21,-1
2199,-125,-3,973,-16,17,0
2200,-125,-7,992,-16,-1,-4
2201,-52,-27,1000,-16,-18,-9
2202,66,-34,999,-15,-22,-11
2203,132,-32,999,-14,-11,-10
2204,167,-90,897,-3,11,-3
2205,296,635,179,121,101,29
2206,-248,98,1705,-160,28,20
2207,-354,61,400,-229,-9,29
2208,-189,-635,473,-126,20,-50
2209,-433,-779,547,9,-46,-11
2210,226,-256,1571,157,-88,-27
2211,412,-155,1032,116,-37,-66
2212,41,560,752,111,26,32
2213,327,684,1396,30,8,-5
2214,-318,351,981,-85,69,2
2215,-144,-70,747,-144,8,19
2216,-160,-420,1220,-78,-21,-19
2217,0,-505,829,-42,-38,-25
2218,205,-279,930,47,-26,-7
2219,113,62,1146,80,8,-11
2220,22,243,971,36,36,2
2221,-125,265,1003,7,34,4
2222,-229,141,1022,-43,2,1
2223,-16,-85,986,-59,-28,-19
2224,63,-244,962,-34,-30,-14
2225,142,-180,1005,-4,-14,-7
2226,138,-96,1021,19,15,-15
2227,-64,50,982,27,37,7
2228,-162,156,1000,5,23,3
2229,-133,102,1018,-18,-2,-10
2230,-39,9,972,-34,-24,-7
2231,85,-83,1009,-35,-27,-13
2232,158,-136,1027,-20,-9,-15
2233,61,-98,967,-5,18,0
2234,-47,-17,1004,6,30,-2
2235,-140,37,1003,3,20,-2
2236,-119,66,985,-7,-1,-4
2237,-41,23,1001,-20,-20,-11
2238,82,-22,1014,-23,-24,-14
2239,133,-66,992,-23,-8,-10
2240,60,-72,1000,-15,16,-5
2241,-30,-48,1002,-8,25,-2
2242,-125,-3,974,-5,21,-1
2243,-129,16,994,-7,0,-5
2244,-58,13,1007,-14,-19,-10
2245,63,0,1006,-18,-22,-12
2246,113,-29,1003,-20,-11,-10
2247,85,-38,1008,-18,9,-7
2248,-9,-37,981,-17,21,-3
2249,-108,-7,984,-15,18,-1
2250,-154,48,1004,-20,0,-3
2251,-121,83,988,-37,-21,-4
2252,32,45,1024,-45,-32,-11
2253,122,-62,1016,-57,-25,-11
2254,153,-116,990,-42,-3,-8
2255,51,-130,978,-26,19,-1
2256,-85,-81,988,-7,26,1
2257,-155,-30,981,0,13,-2
2258,-136,32,952,-5,-7,-4
2259,218,552,384,-52,-50,-20
2260,317,-201,1572,-107,21,-60
2261,-184,367,477,-84,30,56
2262,54,-527,697,-166,45,8
2263,-506,-411,810,1,27,-4
2264,-113,-294,1354,26,-50,10
2265,193,-293,722,66,-33,-67
2266,-209,299,1051,107,-14,25
2267,513,386,1206,27,-52,-29
2268,6,258,1039,-27,49,-16
2269,-25,161,788,-86,25,47
2270,-179,-137,1269,-87,21,-15
2271,-130,-337,793,-66,-1,-18
2272,-154,-236,887,-12,-23,18
2273,95,-115,1169,27,-44,-34
2274,100,-15,943,29,-5,-12
2275,146,195,966,22,5,3
2276,-27,143,1129,-12,20,-4
2277,-51,44,948,-38,16,-4
2278,-166,-87,931,-43,4,8
2279,-105,-140,1050,-21,-21,-10
2280,32,-179,971,-6,-27,-16
2281,88,-50,966,20,-15,-5
2282,103,46,1055,19,-4,-6
2283,65,84,1018,7,15,-9
2284,-68,77,953,-14,19,5
2285,-138,36,1019,-29,7,0
2286,-79,-91,1015,-31,-11,-10
2287,-45,-107,939,-17,-17,-3
2288,76,-77,1020,-1,-22,-11
2289,106,-48,1030,5,-6,-13
2290,58,26,978,7,13,2
2291,-30,68,1002,-5,18,0
2292,-101,38,1011,-18,13,-3
2293,-108,-16,976,-25,-2,-2
2294,-61,-51,994,-21,-16,-8
2295,56,-83,1014,-15,-21,-11
2296,84,-69,989,-4,-7,-8
2297,82,-11,1002,1,6,-5
2298,15,22,1014,-3,18,-3
2299,-73,34,993,-10,18,2
2300,-115,19,984,-21,5,-1
2301,-69,-8,1002,-24,-10,-5
2302,72,-24,998,-25,-16,-12
2303,104,-59,1006,-24,0,-12
2304,111,-36,1018,-17,14,-4
2305,0,-40,990,-15,32,-5
2306,-100,-11,984,-13,31,0
2307,-152,7,995,-16,14,-1
2308,-102,-3,989,-15,-5,-9
2309,-22,-27,988,-17,-18,-8
2310,90,-34,1007,-17,-18,-11
2311,117,-47,998,-15,-2,-9
2312,53,-28,992,-13,16,-3
2313,-35,-10,1012,-12,22,-1
2314,-128,-9,976,-14,16,0
2315,181,5,13,97,52,15
2316,-45,590,1490,175,87,22
2317,-174,-29,924,-343,-91,10
2318,-164,-380,317,-178,20,-30
2319,-166,-785,479,-4,-5,-83
2320,-193,-177,1596,114,-48,25
2321,645,-16,931,89,-60,-66
2322,-159,363,877,85,45,22
2323,149,604,1202,3,-16,33
2324,-115,153,1155,-72,43,-39
2325,-106,-149,651,-109,10,21
2326,-63,-289,1189,-55,-14,3
2327,128,-388,971,-18,-18,-49
2328,-14,-171,829,36,7,23
2329,-2,150,1152,58,1,-9
2330,-68,136,1028,12,17,-13
2331,-23,182,914,-10,5,6
2332,-52,34,1077,-37,-9,-9
2333,108,-104,1016,-40,-18,-22
2334,54,-175,916,-21,0,0
2335,-45,-102,1030,1,12,-4
2336,-35,-58,1024,8,13,-10
2337,-87,50,928,12,11,1
2338,-55,99,1033,-2,-8,-4
2339,66,45,1054,-18,-15,-18
2340,84,-21,949,-28,-5,-5
2341,20,-42,1001,-26,8,-3
2342,-15,-98,1045,-20,15,-8
2343,-98,-65,938,-12,15,0
2344,-104,-8,989,-4,0,-3
2345,-19,3,1035,-6,-16,-15
2346,59,13,977,-11,-16,-10
2347,86,20,1001,-16,-7,-8
2348,52,-13,1033,-24,9,-8
2349,-22,-36,986,-25,19,-1
2350,-110,-33,966,-22,15,1
2351,-99,-47,1013,-17,-2,-8
2352,-45,-38,986,-12,-16,-9
2353,43,-8,999,-10,-17,-9
2354,102,0,1020,-13,-11,-11
2355,69,3,995,-16,8,-5
2356,-14,6,986,-20,19,-1
2357,-100,-3,1004,-22,15,-1
2358,-124,-27,990,-24,1,-3
2359,-137,33,969,-30,-17,-6
2360,6,26,1024,-34,-33,-10
2361,120,-14,1019,-40,-26,-12
2362,156,-82,991,-38,-5,-8
2363,80,-90,985,-25,16,-4
2364,-71,-85,992,-14,27,3
2365,-161,-46,980,-6,17,0
2366,-148,0,983,-8,0,-2
2367,-11,34,1012,-22,-13,-7
2368,96,24,1012,-16,-22,-13
2369,156,10,1008,-20,-6,-10
2370,76,-23,1007,-28,17,-2
2371,-63,-49,996,-25,28,2
2372,-160,-65,970,-18,18,-1
2373,-151,-44,972,-12,-4,-5
2374,-28,-37,967,-5,-25,-11
2375,423,502,279,-40,-41,-20
2376,322,-253,1647,-93,55,-51
2377,-251,454,354,-69,49,72
2378,-61,-581,651,-168,62,17
2379,-744,-275,923,29,17,10
2380,-8,-316,1333,9,-79,-13
2381,178,-316,650,72,-41,-83
2382,-25,337,1133,109,-37,34
2383,598,354,1198,18,-37,-37
2384,-27,229,1002,-27,72,-7
2385,-156,155,799,-85,35,62
2386,-276,-151,1270,-86,17,-26
2387,-154,-367,746,-55,-14,-18
2388,-86,-206,953,3,-43,11
2389,254,-88,1177,30,-52,-43
2390,176,26,922,30,9,-4
2391,72,227,985,12,27,14
2392,-146,121,1127,-21,33,-7
2393,-149,9,894,-43,11,0
2394,-185,-122,965,-40,-17,2
2395,-12,-154,1059,-15,-42,-20
2396,165,-153,973,3,-29,-17
2397,122,-1,976,22,-4,-1
2398,54,84,1077,11,16,-3
2399,-27,95,983,-10,24,-7
2400,-184,68,942,-25,15,10
2401,-124,-10,1047,-35,-15,-7
2402,-13,-120,994,-34,-28,-12
2403,74,-97,956,-14,-24,-3
2404,112,-64,1038,-6,-7,-11
2405,90,-15,1016,1,12,-9
2406,-20,56,961,-4,21,4
2407,-107,70,1021,-17,15,-1
2408,-114,3,1002,-29,-1,-6
2409,-61,-33,966,-32,-15,-4
2410,57,-77,1022,-24,-21,-12
2411,162,-82,1001,-15,-4,-17
2412,150,-71,984,-6,22,-11
2413,38,-11,1016,4,38,1
2414,-108,4,1015,-2,40,-1
2415,-189,13,950,-9,23,-1
2416,-159,13,998,-10,-3,-5
2417,-20,-23,1001,-16,-23,-14
2418,91,-35,987,-15,-20,-12
2419,148,-25,1009,-12,-6,-10
2420,78,-23,1019,-14,17,-5
2421,-41,-16,993,-16,27,2
2422,-155,-5,974,-16,20,2
2423,-143,-15,1000,-16,-3,-6
2424,-62,-32,990,-14,-22,-9
2425,76,-24,1000,-11,-26,-12
2426,153,-29,1008,-13,-11,-12
2427,100,-18,1008,-13,13,-3
2428,-13,-7,997,-16,27,1
2429,-140,-3,990,-18,23,1
2430,-157,-18,991,-17,3,-3
2431,58,-129,505,-13,-12,1
2432,363,833,597,298,123,34
2433,-105,-148,1421,-364,-79,3
2434,-288,32,114,-240,-1,18
2435,-48,-675,326,-122,19,-84
2436,-655,-789,838,55,-12,36
2437,579,-23,1675,169,-101,-47
2438,-62,-253,723,78,5,-37
2439,158,837,872,130,-26,33
2440,269,481,1555,-12,5,-22
2441,-153,298,691,-103,59,-5
2442,3,-171,943,-130,13,37
2443,-199,-395,1197,-70,-3,-36
2444,-78,-523,730,-34,-19,-3
2445,20,-140,1005,70,-23,-5
2446,33,29,1147,55,-10,-18
2447,148,217,931,46,8,-13
2448,14,238,1047,7,16,4
2449,-52,118,1036,-37,12,-9
2450,-33,-99,975,-45,7,-11
2451,-124,-190,935,-30,-2,2
2452,-29,-155,1024,-6,-12,-8
2453,80,-119,999,21,-11,-18
2454,28,47,970,24,5,0
2455,72,133,1058,14,5,-13
2456,8,88,1011,-13,13,-10
2457,-78,45,955,-30,15,6
2458,-92,-56,1023,-35,4,-8
2459,-48,-136,1006,-26,-6,-9
2460,-16,-117,944,-6,-9,-4
2461,61,-53,1018,10,-9,-14
2462,91,13,1024,9,1,-12
2463,32,71,983,1,16,-3
2464,-44,67,1013,-13,17,-6
2465,-95,24,997,-28,11,-4
2466,-97,-46,981,-32,0,-5
2467,-52,-86,994,-25,-13,-10
2468,61,-88,1011,-13,-15,-12
2469,91,-43,990,-2,-5,-9
2470,59,15,1007,0,9,-5
2471,-6,55,1006,-7,17,-4
2472,-125,140,977,-28,16,3
2473,-147,89,998,-53,-3,2
2474,-93,4,1025,-66,-22,-6
2475,55,-134,983,-65,-32,-10
2476,130,-171,991,-41,-20,-10
2477,120,-143,1009,-18,1,-6
2478,38,-42,979,3,20,-3
2479,-98,40,991,1,24,3
2480,-155,79,1002,-10,10,-1
2481,-111,49,990,-25,-11,-6
2482,14,-21,1001,-33,-27,-10
2483,100,-79,1010,-30,-22,-12
2484,145,-102,999,-18,-3,-9
2485,57,-70,988,-9,22,-2
2486,-72,-24,1009,-4,29,2
2487,-154,22,986,-4,15,-2
2488,-81,305,474,-23,-28,-2
2489,407,-59,1157,-96,1,-52
2490,-151,269,768,-43,16,18
2491,-60,-358,425,-146,41,32
2492,-220,-394,801,2,9,-33
2493,-403,-186,1563,33,-25,40
2494,507,-277,554,39,-52,-96
2495,-328,185,1113,97,10,43
2496,355,433,1150,26,-61,1
2497,57,136,1091,-33,42,-51
2498,-59,117,728,-63,14,53
2499,-128,-34,1244,-75,10,-6
2500,51,-376,916,-61,-5,-48
2501,-184,-176,812,-3,1,42
2502,72,-50,1177,21,-32,-32
2503,9,-56,997,22,0,-15
2504,56,181,904,19,2,16
2505,-17,109,1131,-14,7,-14
2506,42,0,989,-27,3,-13
2507,-71,-68,893,-31,5,11
2508,-90,-92,1060,-16,-7,-11
2509,-6,-134,1012,-7,-10,-10
2510,-25,-30,918,7,-5,0
2511,23,48,1069,8,-10,-6
2512,97,49,1046,-4,-4,-17
2513,17,35,928,-17,9,2
2514,-37,30,1023,-24,8,-2
2515,-53,-62,1030,-32,5,-8
2516,-87,-86,934,-22,1,1
2517,-59,-54,997,-11,-10,-5
2518,55,-41,1046,-5,-14,-15
2519,63,-3,971,-5,-5,-6
2520,60,51,1010,-9,3,-4
2521,16,26,1029,-22,13,-8
2522,-70,0,970,-30,16,3
2523,-105,-37,986,-31,5,-3
2524,-65,-65,1004,-25,-7,-9
2525,18,-70,988,-15,-15,-8
2526,62,-36,1001,-8,-9,-9
2527,132,5,1023,-7,1,-11
2528,103,20,989,-14,25,-5
2529,-43,8,1012,-18,35,2
2530,-153,-14,997,-24,24,2
2531,-182,-58,957,-23,5,-5
2532,-91,-67,968,-15,-18,-7
2533,63,-46,1031,-7,-28,-14
2534,164,-16,998,-6,-14,-14
2535,118,19,1002,-7,12,-3
2536,-2,24,1030,-15,27,0
2537,-141,7,977,-22,26,3
2538,-170,-30,973,-25,5,0
2539,-102,-61,994,-20,-20,-10
2540,62,-61,1001,-12,-31,-15
2541,157,-40,994,-6,-18,-11
2542,124,-1,1011,-5,7,-4
2543,17,15,1019,-11,28,-2
2544,-132,24,981,-21,29,4
2545,-173,-6,987,-23,6,-2
2546,-115,-42,989,-24,-17,-10
2547,46,-56,1007,-17,-30,-14
2548,144,-51,1005,-11,-21,-12
2549,141,-30,1003,-8,5,-7
2550,458,161,256,72,68,17
2551,-175,767,1312,-76,153,54
2552,-325,-2,938,-186,-64,16
2553,-359,-160,383,-219,30,3
2554,-209,-672,211,-166,-31,-92
2555,-556,-946,963,76,-42,26
2556,705,-368,1401,214,-110,-179
2557,-61,-167,1113,163,17,-69
2558,459,694,801,151,-31,19
2559,217,819,1526,46,47,-16
2560,-319,476,634,-111,71,37
2561,-105,-28,1156,-153,4,14
2562,-184,-524,1005,-119,-23,-37
2563,-47,-561,743,-41,-32,4
2564,284,-340,1093,49,-37,-28
2565,12,-54,1056,84,21,-4
2566,63,292,928,67,27,7
2567,-162,348,1126,17,30,-1
2568,-162,212,960,-41,0,-2
2569,5,-45,981,-67,-24,-16
2570,84,-235,1012,-50,-28,-16
2571,128,-252,965,-15,-6,-6
2572,75,-171,999,21,20,-9
2573,-122,32,997,35,32,6
2574,-119,162,1020,21,15,-5
2575,-97,136,998,-9,-7,-11
2576,15,74,986,-31,-23,-7
2577,139,-67,1026,-40,-20,-15
2578,88,-152,992,-31,7,-6
2579,1,-128,974,-10,23,0
2580,-102,-60,992,4,24,-4
2581,-130,22,1000,11,8,-2
2582,-73,71,995,3,-12,-9
2583,46,58,1019,-12,-21,-15
2584,116,8,1004,-24,-13,-10
2585,86,-48,999,-26,8,-5
2586,-6,-81,992,-23,21,-3
2587,-100,-58,981,-13,22,0
2588,-127,-43,996,-5,7,-5
2589,-86,0,993,-4,-11,-9
2590,46,22,1010,-6,-21,-12
2591,98,12,1008,-13,-11,-11
2592,93,-4,1015,-19,6,-7
2593,14,-24,988,-22,20,-4
2594,-90,-32,979,-21,20,-1
2595,-126,-42,997,-16,5,-6
2596,-98,-24,986,-13,-11,-7
2597,16,-11,1003,-11,-22,-10
2598,60,32,1017,-15,-16,-10
2599,67,97,1003,-33,-6,-4
2600,32,56,1012,-48,6,-4
2601,-45,-43,999,-59,9,0
2602,-80,-120,966,-47,1,-5
2603,-88,-143,978,-29,-8,-6
2604,-7,-116,986,-7,-18,-9
2605,60,-49,1010,7,-14,-11
2606,111,38,1006,8,0,-7
2607,57,84,1016,-5,16,-4
2608,-42,65,1009,-22,20,0
2609,-133,8,980,-35,12,1
2610,-122,-62,988,-36,-7,-5
2611,-35,-117,992,-24,-20,-10
2612,71,-96,983,-7,-20,-11
2613,137,-36,1012,4,-5,-10
2614,81,22,1015,3,14,-4
2615,-29,55,1009,-8,24,-1
2616,-134,50,986,-22,20,1
2617,-146,-6,996,-30,0,-3
2618,-66,-68,987,-29,-21,-10
2619,235,239,180,-25,-49,-7
2620,640,-188,1318,-89,18,-49
2621,-179,424,594,-63,60,44
2622,-155,-312,317,-193,101,58
2623,-497,-506,510,4,19,-23
2624,-583,-192,1708,48,-65,55
2625,427,-456,585,47,-70,-123
2626,-409,143,937,143,-7,9
2627,732,556,1246,46,-112,9
2628,221,282,1259,-3,58,-60
2629,17,210,537,-96,48,64
2630,-321,-25,1370,-95,42,24
2631,-189,-401,883,-75,-1,-59
2632,-270,-359,708,-25,-21,30
2633,178,-103,1227,49,-71,-33
2634,206,-62,1038,39,-14,-29
2635,221,218,888,34,18,9
2636,-104,242,1150,-1,38,9
2637,-134,80,986,-47,24,-13
2638,-228,-109,878,-53,2,10
2639,-129,-146,1041,-26,-35,-12
2640,146,-209,1032,-11,-43,-26
2641,165,-80,928,22,-12,-7
2642,93,91,1050,19,11,5
2643,32,125,1066,-3,26,-11
2644,-149,85,929,-27,30,11
2645,-190,37,990,-40,-1,1
2646,-54,-104,1042,-41,-28,-18
2647,52,-144,947,-26,-30,-8
2648,107,-86,992,-6,-15,-8
2649,147,-41,1053,2,7,-15
2650,27,23,971,2,27,1
2651,-70,94,994,-4,23,5
2652,-124,59,1024,-24,12,-6
2653,-103,-8,973,-34,-5,-5
2654,29,-52,990,-33,-18,-5
2655,127,-112,1016,-25,-6,-15
2656,120,-108,978,-11,13,-5
2657,1,-40,988,2,30,3
2658,-118,15,1015,1,28,-1
2659,-156,54,973,-7,11,-1
2660,-120,49,998,-16,-11,-5
2661,-13,0,1016,-28,-28,-11
2662,111,-51,1006,-27,-24,-11
2663,137,-82,982,-22,-4,-8
2664,65,-67,1003,-12,17,-2
2665,-32,-32,1007,-5,25,-2
2666,-142,9,969,-8,20,2
2667,-144,23,1002,-12,-1,-2
2668,-69,8,1006,-17,-21,-10
2669,69,-11,999,-22,-26,-12
2670,131,-42,1007,-21,-12,-11
2671,108,-53,1008,-18,9,-5
2672,8,-39,983,-13,25,-1
2673,-118,-15,984,-11,26,1
2674,-154,-6,1004,-11,5,-3
2675,-108,-1,981,-15,-15,-8
2676,40,-7,1004,-15,-26,-12
2677,118,-26,1019,-16,-16,-12
2678,131,-29,1005,-16,4,-7
2679,44,-19,994,-16,22,-1
2680,-98,-19,993,-16,26,3
2681,-161,-20,983,-16,11,-2
2682,-127,-16,982,-15,-10,-8
2683,2,-23,1007,-14,-26,-13
2684,107,-24,1007,-12,-21,-12
2685,150,-18,1009,-13,-3,-9
2686,68,-9,1003,-15,22,-2
2687,-69,-12,1007,-15,30,2
2688,-160,-16,975,-19,16,0
2689,-147,-22,982,-18,-7,-5
2690,-30,-40,1001,-15,-27,-12
2691,90,-36,1006,-12,-24,-14
2692,163,-16,1012,-10,-8,-10
2693,88,-2,1007,-11,16,-3
2694,-41,1,1003,-16,28,2
2695,-155,0,980,-20,21,0
2696,-153,-22,990,-21,-2,-4
2697,-66,-45,987,-18,-24,-11
2698,81,-36,1003,-12,-29,-13
2699,160,-29,1010,-10,-11,-11
2700,109,-5,1003,-12,15,-3
2701,7,-23,997,-14,30,0
2702,453,395,-204,275,168,47
2703,-456,220,1586,47,63,36
2704,-319,156,108,-523,-147,17
2705,-137,-473,255,-233,52,-34
2706,-368,-719,127,-30,-30,-85
2707,-20,-898,1481,164,-60,-4
2708,636,-190,1521,186,-76,-113
2709,-198,87,527,144,30,48
2710,384,952,1153,123,-7,8
2711,-201,582,1431,-22,58,-16
2712,-105,306,358,-130,16,29
2713,-12,-279,1422,-133,-11,-15
2714,-84,-549,877,-84,-25,-28
2715,131,-507,791,-3,-17,3
2716,45,-186,1109,77,0,-17
2717,-101,130,1056,76,21,5
2718,51,330,941,40,18,-12
2719,-182,297,1084,-8,12,5
2720,48,131,999,-60,-26,-13
2721,91,-183,994,-68,-17,-20
2722,23,-245,947,-39,-3,4
2723,35,-223,1037,-6,12,-11
2724,-62,-111,962,24,21,-10
2725,-142,128,974,27,10,9
2726,-13,172,1072,0,-16,-20
2727,20,106,987,-29,-14,-12
2728,83,60,984,-53,-14,-3
2729,72,-96,1055,-56,1,-15
2730,-17,-149,970,-42,14,1
2731,-95,-105,939,-23,13,4
2732,-109,-53,1028,-6,2,-9
2733,-43,19,990,-3,-15,-8
2734,45,81,976,-10,-19,-9
2735,102,69,1031,-27,-11,-11
2736,78,15,1008,-40,9,-3
2737,-18,-70,987,-41,22,-1
2738,-119,-111,977,-33,19,1
2739,-125,-119,987,-14,2,-4
2740,-82,-67,973,3,-14,-8
2741,42,10,1022,9,-22,-11
2742,136,56,1016,0,-14,-13
2743,101,61,998,-15,9,-4
2744,9,37,1013,-27,22,-1
2745,-113,-25,992,-37,23,1
2746,-147,-86,968,-30,6,-2
2747,-113,-100,984,-19,-14,-8
2748,40,-67,1010,-4,-27,-15
2749,129,-24,1003,3,-17,-13
2750,128,34,1008,-1,5,-6
2751,38,56,1010,-12,24,-1
2752,-101,32,994,-25,29,3
2753,-163,-21,983,-30,9,0
2754,-127,-71,981,-28,-14,-8
2755,19,-89,999,-17,-28,-14
2756,116,-72,1004,-7,-19,-12
2757,148,-18,1014,-1,0,-10
2758,65,32,1006,-4,20,-3
2759,-80,42,999,-15,30,4
2760,-167,15,981,-25,16,0
2761,-143,-23,986,-27,-8,-6
2762,-14,-67,1001,-23,-28,-11
2763,97,-78,1000,-14,-25,-13
2764,162,-43,1003,-7,-7,-10
2765,79,-6,1007,-6,21,-3
2766,-58,21,1015,-9,31,3
2767,-160,24,976,-17,19,1
2768,-155,5,982,-22,-4,-5
2769,-42,-43,1000,-22,-25,-11
2770,86,-57,998,-18,-26,-13
2771,163,-56,1006,-13,-10,-11
2772,98,-28,1010,-9,17,-2
2773,-29,-1,1002,-10,30,1
2774,-152,15,980,-13,24,0
2775,-165,7,993,-17,1,-3
2776,-71,-24,996,-20,-23,-11
2777,74,-38,1001,-16,-29,-13
2778,157,-43,1003,-14,-13,-11
2779,117,-32,1009,-11,12,-4
2780,-3,-15,1002,-12,27,1
2781,-143,6,985,-14,25,4
2782,-165,-7,991,-18,3,-3
2783,-105,-21,987,-17,-18,-9
2784,55,-26,1009,-16,-29,-12
2785,147,-35,1012,-14,-17,-13
2786,130,-33,1004,-11,7,-6
2787,26,-11,994,-14,27,-1
2788,-121,0,992,-16,30,3
2789,-174,-17,990,-18,9,-1
2790,-122,-22,978,-19,-14,-7
2791,32,-27,1009,-13,-29,-12
2792,129,-31,1015,-13,-19,-13
2793,151,-26,1005,-13,2,-8
2794,49,-2,998,-11,24,-2
2795,-95,-3,997,-18,29,3
2796,-73,-97,850,1,24,1
2797,257,860,231,119,111,39
2798,-203,-86,1687,-214,-20,7
2799,-311,156,368,-212,-43,14
2800,45,-506,405,-167,1,-78
2801,-337,-746,478,-59,-17,-35
2802,126,-659,1204,148,-41,-32
2803,340,-231,1442,208,-25,-119
2804,-139,310,720,110,12,40
2805,330,721,1245,102,-12,-12
2806,-193,536,1118,-38,47,-5
2807,-59,186,753,-133,13,26
2808,50,-266,1228,-103,-7,-34
2809,-129,-524,839,-81,-10,-4
2810,66,-352,894,8,-18,1
2811,-19,-215,1128,62,4,-20
2812,-60,141,935,59,14,4
2813,72,280,1044,40,5,-11
2814,-27,257,1053,-9,4,-11
2815,37,109,969,-57,-4,-3
2816,5,-126,1019,-57,0,-15
2817,-82,-228,961,-46,3,2
2818,-25,-206,981,-6,0,-9
2819,-59,-113,992,18,2,-10
2820,16,81,1014,25,-6,-6
2821,78,144,1032,8,-7,-16
2822,39,133,989,-23,3,-5
2823,7,71,1001,-47,8,-2
2824,-58,-58,1017,-55,12,-3
2825,-106,-138,964,-48,6,1
2826,-102,-149,956,-25,-9,-6
2827,-7,-112,999,-1,-20,-11
2828,79,-29,1014,12,-17,-12
2829,131,58,1010,9,-3,-11
2830,66,102,1012,-7,17,-3
2831,-55,77,1008,-26,24,3
2832,-146,-13,988,-38,15,-2
2833,-142,-82,973,-37,-5,-6
2834,-24,-128,990,-22,-23,-11
2835,75,-100,1001,-3,-22,-13
2836,150,-27,1005,6,-9,-10
2837,86,46,1011,2,16,-4
2838,-44,66,1016,-11,28,3
2839,-148,41,988,-26,19,1
2840,-149,-11,972,-32,-3,-3
2841,-51,-78,995,-28,-25,-11
2842,75,-92,1006,-16,-26,-13
2843,158,-62,1002,-8,-10,-12
2844,101,-15,1005,-1,15,-6
2845,-22,24,1014,-5,28,1
2846,-137,38,984,-15,22,2
2847,-162,13,991,-22,3,-4
2848,-80,-31,991,-24,-22,-11
2849,64,-60,1000,-19,-28,-13
2850,156,-59,997,-13,-14,-12
2851,115,-42,1011,-11,11,-4
2852,0,-8,1009,-9,29,-1
2853,-135,11,983,-12,24,1
2854,-164,10,989,-15,4,-3
2855,-103,-17,991,-19,-19,-8
2856,52,-25,1014,-19,-28,-12
2857,144,-41,1005,-18,-17,-12
2858,133,-40,999,-14,7,-6
2859,23,-19,999,-14,24,0
2860,-119,0,993,-13,28,2
2861,-166,-9,990,-16,9,-2
2862,-127,-14,978,-17,-14,-8
2863,33,-18,1008,-15,-29,-12
2864,130,-33,1014,-15,-20,-11
2865,147,-28,1008,-16,3,-6
2866,47,-13,996,-13,24,-1
2867,-94,-6,990,-17,28,2
2868,-170,-16,982,-17,12,-1
2869,-141,-17,981,-17,-9,-6
2870,7,-29,1011,-15,-28,-13
2871,105,-35,1013,-12,-23,-13
2872,161,-16,1000,-11,-4,-8
2873,69,-5,1010,-14,21,-2
2874,-73,-9,1007,-18,30,2
2875,-166,-16,973,-18,17,1
2876,-149,-19,981,-17,-7,-7
2877,-29,-43,1004,-15,-27,-13
2878,98,-34,1006,-11,-25,-13
2879,165,-21,1006,-12,-6,-10
2880,91,-3,1011,-12,18,-3
2881,-43,-3,1011,-15,29,2
2882,-152,-1,969,-20,20,1
2883,-163,-22,993,-19,-2,-3
2884,-61,-45,995,-17,-24,-12
2885,80,-40,999,-11,-27,-13
2886,168,-25,1006,-10,-13,-12
2887,261,-134,611,14,27,3
2888,267,934,492,434,208,44
2889,-328,-285,1299,-433,-40,8
2890,-414,3,-79,-282,-8,20
2891,-63,-737,98,-118,1,-127
2892,-552,-963,751,113,-27,-61
2893,585,15,1681,203,-100,-41
2894,12,-346,613,88,-6,-30
2895,107,929,768,171,3,64
2896,176,569,1673,-9,12,-7
2897,-118,344,647,-93,59,-23
2898,-73,-109,887,-122,3,32
2899,-133,-366,1272,-87,-27,-31
2900,-47,-626,756,-38,-20,-17
2901,143,-202,946,69,-14,-3
2902,4,5,1183,67,11,-10
2903,107,295,935,65,23,-10
2904,-107,274,1007,4,27,7
2905,-185,215,1026,-43,2,-1
2906,9,-80,1026,-64,-22,-23
2907,0,-241,914,-50,-20,-6
2908,105,-221,1042,-11,-14,-8
2909,138,-144,1013,18,9,-21
2910,-42,23,977,27,32,10
2911,-120,191,1015,13,18,-3
2912,-100,130,1035,-22,-1,-18
2913,-74,91,922,-46,-16,-2
2914,16,124,1032,-70,-27,-6
2915,117,-5,1056,-86,-16,-12
2916,63,-78,978,-82,4,3
2917,19,-175,964,-68,12,0
2918,-98,-194,995,-37,18,-4
2919,-103,-148,955,-8,4,-1
2920,-90,-58,984,15,-11,-8
2921,30,48,1019,16,-20,-12
2922,116,99,1015,2,-11,-10
2923,93,91,1005,-20,8,-6
2924,11,27,1011,-36,20,-1
2925,-96,-50,986,-41,19,-1
2926,-145,-118,976,-32,4,-2
2927,-105,-122,982,-15,-14,-8
2928,35,-77,998,2,-23,-13
2929,121,-3,1007,10,-16,-12
2930,122,60,1021,2,5,-6
2931,38,76,999,-16,22,-2
2932,-98,45,994,-32,27,3
2933,-158,-32,1003,-39,9,-1
2934,-126,-93,971,-34,-13,-7
2935,18,-106,992,-16,-27,-12
2936,114,-82,1012,-3,-19,-13
2937,148,-13,1013,4,1,-8
2938,61,45,1000,0,22,-3
2939,-84,64,1006,-14,30,3
2940,-166,25,987,-28,16,-1
2941,-139,-26,978,-32,-8,-6
2942,-13,-83,1000,-27,-26,-11
2943,100,-92,1008,-14,-25,-13
2944,161,-58,1004,-6,-4,-9
2945,80,-2,999,-3,21,-1
2946,-54,34,1012,-7,30,3
2947,-160,36,985,-16,17,1
2948,-154,15,985,-23,-4,-4
2949,-47,-42,992,-25,-24,-11
2950,86,-65,1000,-21,-26,-13
2951,158,-61,1004,-12,-11,-10
2952,99,-36,1007,-8,14,-4
2953,-19,-2,1008,-7,29,0
2954,-149,24,982,-12,24,2
2955,-157,14,991,-18,2,-3
2956,-83,-20,996,-20,-22,-10
2957,64,-34,1005,-18,-27,-13
2958,154,-50,1006,-19,-15,-13
2959,122,-40,996,-12,10,-5
2960,6,-16,1002,-10,28,0
2961,-129,8,992,-13,27,2
2962,-170,0,991,-15,7,-2
2963,-110,-14,981,-18,-17,-9
2964,47,-25,1013,-17,-28,-13
2965,137,-36,1012,-15,-18,-12
2966,139,-33,1004,-14,5,-7
2967,36,-18,998,-13,25,-1
2968,-111,-3,986,-15,29,2
2969,-169,-11,986,-17,9,-2
2970,-133,-13,985,-17,-14,-6
2971,17,-30,1009,-16,-29,-12
2972,115,-36,1010,-14,-21,-13
2973,153,-26,1003,-13,-1,-7
2974,61,-5,1004,-13,21,-1
2975,-81,-9,1005,-17,29,3
2976,-170,-10,973,-18,17,0
2977,-140,-15,979,-18,-7,-7
2978,-21,-38,1008,-17,-28,-11
2979,103,-37,1002,-13,-25,-13
2980,163,-23,1012,-13,-6,-9
2981,82,-5,1006,-13,19,-2
2982,-53,-1,1008,-14,29,2
2983,-152,-6,969,-21,19,1
2984,135,195,108,95,35,19
2985,-57,519,1487,99,55,3
2986,-158,-26,610,-396,-83,13
2987,-119,-345,421,-151,21,-32
2988,-77,-703,325,-48,-26,-72
2989,-203,-621,1354,118,-13,24
2990,589,-64,1311,154,-54,-71
2991,-312,97,677,97,38,30
2992,256,860,1148,89,-28,3
2993,-137,365,1352,-46,34,-21
2994,-12,174,559,-129,10,12
2995,14,-315,1239,-101,-4,2
2996,-27,-428,950,-59,-17,-35
2997,14,-407,821,-4,-4,12
2998,-33,-57,1098,73,2,-13
2999,-87,108,1044,38,13,-2
3000,79,271,954,29,3,-11
3001,-56,204,1070,-18,1,-1
3002,78,65,1016,-59,-11,-15
3003,36,-163,965,-52,4,-10
3004,-69,-188,950,-35,8,4
3005,-43,-189,1028,-7,5,-11
3006,-50,-69,960,20,4,-10
3007,-32,89,1003,16,-5,-2
3008,57,134,1056,3,-12,-19
3009,73,90,987,-26,-3,-8
3010,23,44,978,-44,7,1
3011,-33,-80,1051,-47,15,-6
3012,-85,-129,949,-40,11,-2
3013,-95,-99,946,-17,-1,-1
3014,-31,-60,1024,-1,-13,-11
3015,32,1,1001,0,-13,-9
3016,82,63,984,-3,-7,-7
3017,46,59,1030,-18,7,-5
3018,-2,6,1013,-29,13,-3
3019,-84,-37,964,-33,15,0
3020,-113,-81,994,-27,2,-3
3021,-66,-98,991,-14,-13,-9
3022,35,-55,981,-1,-19,-11
3023,105,1,1012,2,-11,-11
3024,94,38,1018,-4,7,-6
3025,11,47,997,-16,19,-2
3026,-104,29,992,-28,19,2
3027,-134,-38,1002,-30,3,-4
3028,-95,-83,972,-24,-13,-7
3029,33,-80,1002,-12,-23,-12
3030,122,-52,1016,-4,-16,-12
3031,120,-10,1004,-2,5,-6
3032,28,36,992,-6,22,-2
3033,-97,41,1006,-17,25,2
3034,-149,0,992,-25,8,-2
3035,-122,-37,969,-27,-12,-6
3036,23,-68,1011,-21,-26,-13
3037,107,-72,1006,-14,-17,-12
3038,141,-42,999,-7,1,-6
3039,56,7,1006,-4,23,-2
3040,-78,24,1006,-14,28,3
3041,-160,14,972,-17,15,-1
3042,-139,-5,984,-23,-8,-6
3043,-12,-47,1007,-21,-26,-12
3044,94,-59,1005,-17,-23,-12
3045,158,-44,1000,-12,-5,-10
3046,76,-13,1008,-8,20,-4
3047,-53,5,1004,-11,27,2
3048,-159,10,981,-16,18,1
3049,-152,0,987,-18,-3,-3
3050,-46,-34,996,-21,-24,-11
3051,88,-43,1002,-16,-26,-13
3052,155,-38,1006,-13,-9,-10
3053,100,-24,1009,-11,16,-4
3054,-29,-6,1007,-11,30,1
3055,-148,12,975,-14,24,1
3056,-158,-4,993,-19,1,-4
3057,-78,-26,996,-20,-21,-10
3058,73,-34,1006,-17,-29,-14
3059,152,-37,1004,-14,-12,-12
3060,119,-27,1001,-12,10,-3
3061,2,-9,1002,-13,27,0
3062,-129,5,985,-16,26,2
3063,-167,-8,992,-18,6,-3
3064,-109,-24,982,-19,-17,-9
3065,46,-30,1002,-15,-29,-13
3066,137,-40,1014,-13,-18,-13
3067,137,-30,1010,-12,6,-6
3068,37,-4,992,-11,25,-2
3069,-106,0,990,-15,29,4
3070,-171,-13,987,-18,10,-1
3071,-127,-19,982,-19,-13,-7
3072,19,-35,1010,-18,-27,-12
3073,111,-40,1005,-12,-21,-13
3074,157,-26,1008,-10,-1,-8
3075,60,-7,1003,-13,21,-1
3076,-79,-2,1006,-15,30,2
3077,-168,-6,976,-18,16,0
3078,-142,-13,979,-19,-8,-5
3079,-22,-41,1004,-16,-29,-12
3080,96,-44,1006,-15,-24,-15
3081,207,-92,899,-6,-5,-9
3082,335,607,-8,285,91,18
3083,-115,172,1777,-90,45,8
3084,-434,106,111,-447,-24,38
3085,-113,-513,432,-161,11,-46
3086,-377,-779,425,-41,-48,-20
3087,31,-506,1505,176,-48,-8
3088,419,-162,1201,140,-56,-90
3089,-75,298,677,112,10,27
3090,438,810,1319,92,-10,-18
3091,-224,435,1134,-71,65,2
3092,-93,153,676,-132,20,24
3093,-186,-361,1279,-107,-8,-11
3094,-102,-495,822,-74,-37,-22
3095,161,-406,902,23,-32,-6
3096,137,-107,1107,74,-2,-21
3097,80,163,997,58,28,-1
3098,-6,321,1004,36,35,0
3099,-248,245,1048,-29,23,8
3100,-109,54,971,-64,-13,-10
3101,1,-205,990,-58,-28,-18
3102,81,-246,977,-32,-24,-6
3103,191,-197,1022,11,-4,-18
3104,60,-48,975,31,27,-5
3105,-96,146,1010,22,33,7
3106,-137,161,1029,-4,16,-10
3107,-145,109,963,-34,-5,-3
3108,-7,5,1000,-49,-29,-9
3109,96,-131,1038,-44,-24,-18
3110,138,-151,962,-30,-4,-5
3111,65,-96,982,-7,20,-1
3112,-58,-21,1028,2,29,-1
3113,-130,68,976,-3,17,1
3114,-140,142,981,-20,-2,-2
3115,-59,66,1018,-39,-22,-11
3116,71,-40,1008,-49,-26,-12
3117,133,-140,980,-39,-10,-10
3118,91,-157,996,-21,10,-4
3119,-4,-111,997,2,25,-1
3120,-137,-4,973,12,24,1
3121,-143,70,1013,6,1,-2
3122,-86,83,999,-10,-16,-9
3123,53,47,1004,-25,-25,-12
3124,138,-18,1013,-35,-16,-11
3125,108,-82,998,-31,7,-5
3126,14,-98,978,-22,23,0
3127,-122,-63,996,-8,25,2
3128,-149,-28,990,-3,7,-3
3129,-109,13,984,-3,-13,-9
3130,41,39,1011,-7,-26,-11
3131,126,15,1026,-17,-16,-12
3132,130,-11,1001,-25,5,-4
3133,30,-37,987,-25,24,0
3134,-96,-51,991,-20,26,2
3135,-163,-62,984,-15,9,-1
3136,-123,-34,976,-9,-11,-7
3137,13,-16,1017,-6,-26,-12
3138,109,-1,1015,-7,-21,-12
3139,151,15,1005,-11,1,-7
3140,59,10,1003,-19,21,-1
3141,-78,-13,1011,-24,28,1
3142,-159,-40,969,-23,14,0
3143,-140,-45,975,-18,-9,-4
3144,-16,-53,1004,-13,-28,-12
3145,92,-36,1016,-7,-23,-12
3146,162,-1,1004,-7,-5,-9
3147,79,18,1012,-10,20,-3
3148,-46,15,1008,-16,28,1
3149,-159,-4,973,-25,18,2
3150,-153,-33,988,-23,-3,-5
3151,-55,-62,999,-18,-23,-11
3152,81,-54,991,-10,-28,-13
3153,161,-28,1010,-5,-13,-12
3154,102,1,1012,-8,16,-3
3155,-20,19,1007,-13,30,1
3156,-145,17,982,-20,24,2
3157,-167,-15,990,-22,1,-1
3158,-85,-44,987,-21,-21,-10
3159,62,-55,1005,-17,-27,-12
3160,151,-44,1000,-11,-16,-12
3161,128,-23,1003,-7,10,-5
3162,11,5,999,-10,27,-1
3163,-124,20,992,-15,27,3
3164,-167,-8,987,-21,7,-2
3165,-121,-25,982,-23,-16,-7
3166,45,-42,1007,-17,-31,-12
3167,129,-54,1011,-15,-20,-12
3168,148,-33,1006,-10,4,-7
3169,43,-4,1000,-9,25,-2
3170,-103,6,992,-15,29,4
3171,-168,0,986,-18,10,-1
3172,-133,-13,982,-20,-11,-7
3173,7,-35,1006,-19,-27,-13
3174,113,-47,1010,-14,-22,-13
3175,159,-32,1003,-13,-3,-8
3176,68,-10,1009,-12,22,-3
3177,-74,-5,1004,-15,30,1
3178,-170,-2,972,-17,17,0
3179,-146,-7,985,-16,-8,-5
3180,-26,-34,1005,-17,-28,-12
3181,198,-182,503,9,-9,-4
3182,366,326,-47,1438,156,24
3183,-39,255,1245,55,-108,4
3184,-300,-184,-169,-1028,28,3
3185,-106,-665,-72,-562,62,-78
3186,-547,-316,1033,-35,-36,-30
3187,342,-27,1215,65,-69,-10
3188,43,-93,651,82,-10,-65
3189,180,567,1078,70,-47,53
3190,193,311,1383,-24,9,-25
3191,-27,59,703,-75,55,-19
3192,-196,-114,951,-85,27,50
3193,-112,-244,1229,-41,-4,-37
3194,-115,-421,741,-22,-8,-7
3195,56,6,1012,56,-28,3
3196,119,27,1180,31,-15,-28
3197,139,160,899,21,17,-6
3198,-30,195,998,-15,29,16
3199,-122,79,1077,-45,22,-14
3200,-95,-112,948,-55,3,-4
3201,-122,-150,930,-34,-17,-1
3202,40,-162,1071,-13,-30,-19
3203,143,-100,985,10,-12,-18
3204,80,49,978,12,12,2
3205,16,133,1055,-4,20,-9
3206,-53,90,1013,-29,20,-7
3207,-153,48,940,-55,8,8
3208,-123,-16,1020,-66,-15,-6
3209,-6,-61,1013,-51,-27,-15
3210,40,-49,946,-43,-19,-6
3211,122,-24,1024,-34,-9,-10
3212,77,-63,1027,-35,10,-7
3213,-6,-56,949,-24,20,1
3214,-121,-51,995,-17,14,1
3215,-119,-38,1001,-12,-2,-6
3216,-57,-33,976,-10,-14,-9
3217,48,2,999,-8,-19,-12
3218,127,9,1027,-11,-9,-11
3219,94,7,996,-16,10,-5
3220,-26,-3,1010,-23,23,3
3221,-115,-20,990,-25,19,-2
3222,-140,-54,981,-22,3,-4
3223,-78,-55,986,-16,-18,-8
3224,61,-47,1015,-8,-24,-14
3225,137,-18,994,-6,-12,-11
3226,99,11,1002,-8,10,-4
3227,6,23,1018,-15,23,-2
3228,-118,7,985,-27,24,2
3229,-154,-28,981,-25,5,-3
3230,-102,-63,993,-21,-17,-10
3231,47,-58,1000,-12,-27,-12
3232,129,-46,1003,-8,-17,-11
3233,125,-13,1015,-6,5,-7
3234,32,17,996,-10,23,-2
3235,-104,25,986,-17,27,2
3236,-166,-8,995,-23,9,-1
3237,-121,-31,985,-23,-14,-8
3238,20,-57,998,-19,-29,-12
3239,115,-57,1011,-11,-20,-12
3240,150,-29,1005,-7,0,-6
3241,54,2,1003,-9,22,-2
3242,-86,16,1002,-15,28,3
3243,-168,5,975,-20,15,-2
3244,-137,-11,979,-20,-9,-6
3245,-17,-44,1005,-18,-28,-12
3246,102,-51,1006,-14,-25,-13
3247,161,-39,1007,-11,-5,-9
3248,77,-8,1005,-9,20,-3
3249,-57,3,1003,-12,29,1
3250,-158,11,978,-18,19,0
3251,-157,-6,988,-20,-3,-4
3252,-47,-37,995,-19,-25,-12
3253,85,-43,999,-15,-26,-12
3254,163,-37,1008,-10,-11,-10
3255,97,-19,1012,-11,15,-3
3256,-19,-1,1005,-12,28,1
3257,-149,10,977,-15,24,1
3258,-161,-6,993,-19,0,-3
3259,-82,-35,994,-19,-23,-9
3260,69,-40,1001,-17,-29,-14
3261,157,-40,1011,-13,-15,-11
3262,118,-28,1001,-9,10,-5
3263,10,-1,995,-12,26,-2
3264,-133,8,994,-16,27,3
3265,-167,-9,991,-18,5,-2
3266,-113,-29,981,-18,-18,-8
3267,47,-35,1002,-16,-30,-12
3268,133,-44,1020,-15,-19,-12
3269,145,-27,1007,-11,4,-6
3270,31,-3,996,-11,27,-1
3271,-105,8,989,-14,28,2
3272,-176,-11,989,-19,10,-2
3273,-131,-14,975,-19,-13,-7
3274,16,-38,1015,-17,-28,-13
3275,118,-47,1010,-15,-22,-14
3276,157,-29,1001,-12,-1,-8
3277,62,-5,1005,-11,23,-2
3278,-81,-1,1006,-14,30,2
3279,-166,-4,972,-17,15,-1
3280,-144,-11,979,-19,-8,-5
3281,-20,-39,1007,-18,-28,-11
3282,175,-99,405,11,-25,-10
3283,237,841,352,652,79,-2
3284,-4,-28,1533,-230,-43,-1
3285,-432,-61,262,-564,6,23
3286,3,-510,87,-363,-19,-57
3287,-510,-872,684,-7,-22,18
3288,404,-280,1494,207,-61,-51
3289,79,-154,1107,109,-23,-42
3290,121,500,732,123,-20,2
3291,337,618,1415,52,12,-32
3292,-200,355,886,-78,64,8
3293,-79,105,887,-115,20,31
3294,-160,-361,1186,-100,-5,-23
3295,-165,-487,789,-63,-24,-1
3296,163,-302,987,38,-37,-12
3297,85,-122,1092,61,-2,-24
3298,137,175,956,62,17,-5
3299,21,304,1059,28,33,-2
3300,-177,245,1011,-34,29,2
3301,-122,57,993,-66,-2,-4
3302,-90,-168,979,-67,-21,-13
3303,33,-233,978,-44,-25,-7
3304,167,-203,1007,-2,-13,-19
3305,105,-76,992,16,18,-4
3306,28,116,1006,19,29,2
3307,-85,159,1031,-4,28,-2
3308,-169,128,959,-36,13,4
3309,-113,39,997,-55,-11,-1
3310,28,-100,1027,-58,-24,-14
3311,78,-177,961,-38,-14,-8
3312,129,-157,980,-9,0,-8
3313,27,-90,1014,8,24,-5
3314,-66,28,1000,16,25,1
3315,-140,100,985,3,13,0
3316,-128,107,1002,-16,-6,-4
3317,-22,31,1009,-32,-24,-10
3318,77,-56,1003,-38,-22,-13
3319,133,-106,988,-28,-7,-10
3320,77,-108,998,-14,15,-5
3321,-37,-67,997,-3,24,-1
3322,-131,12,980,0,19,0
3323,-136,45,1005,-3,0,-5
3324,-65,44,997,-16,-18,-10
3325,66,12,1012,-24,-24,-13
3326,142,-37,1001,-27,-11,-12
3327,98,-66,996,-23,11,-4
3328,0,-63,1004,-15,23,-1
3329,-126,-38,981,-11,23,0
3330,-149,-16,990,-7,6,-4
3331,-96,4,992,-10,-16,-8
3332,47,11,1016,-14,-26,-13
3333,132,-6,1005,-15,-16,-11
3334,120,-22,1005,-19,7,-6
3335,30,-25,992,-21,24,-1
3336,-108,-34,989,-19,27,1
3337,-165,-41,986,-16,9,-3
3338,-119,-31,986,-13,-13,-9
3339,27,-21,1009,-10,-27,-12
3340,113,-12,1003,-10,-19,-11
3341,146,2,1014,-12,0,-7
3342,51,4,1006,-15,21,-1
3343,-89,-10,993,-21,28,2
3344,-166,-31,981,-22,13,-1
3345,-138,-34,974,-18,-10,-4
3346,-9,-45,1007,-14,-27,-12
3347,98,-34,1013,-7,-22,-13
3348,161,-5,1003,-10,-4,-8
3349,75,11,1010,-13,20,-3
3350,-60,7,1008,-14,28,0
3351,-157,-7,973,-22,17,-1
3352,-156,-26,991,-22,-4,-6
3353,-43,-51,993,-17,-25,-11
3354,89,-50,999,-11,-24,-14
3355,160,-22,1006,-7,-9,-13
3356,97,-3,1014,-11,16,-6
3357,-25,8,1007,-14,29,0
3358,-149,11,972,-20,23,1
3359,-163,-13,994,-21,1,-4
3360,-80,-48,992,-21,-23,-10
3361,69,-49,1006,-16,-28,-12
3362,157,-43,1006,-11,-15,-11
3363,119,-20,1003,-7,11,-5
3364,7,3,1000,-10,26,0
3365,-135,16,990,-17,27,2
3366,-164,-8,995,-22,4,-3
3367,-113,-34,979,-22,-18,-8
3368,51,-39,1002,-17,-30,-12
3369,141,-48,1016,-14,-19,-13
3370,142,-29,1005,-10,6,-7
3371,39,-1,996,-12,26,-1
3372,-112,9,994,-16,29,4
3373,-172,-4,987,-17,7,-3
3374,-132,-19,980,-20,-18,-7
3375,19,-38,1008,-11,-32,-14
3376,120,-48,1010,-13,-22,-14
3377,285,89,183,21,-6,-1
3378,86,860,943,129,60,-7
3379,-171,-184,1014,-393,-16,24
3380,-507,-31,219,-252,43,38
3381,59,-516,69,-176,-67,-58
3382,-499,-1217,978,-4,-43,60
3383,559,-435,1285,267,-74,-98
3384,-52,-155,1223,217,23,-63
3385,277,554,771,139,-18,-16
3386,292,732,1525,83,34,-40
3387,-234,510,686,-68,67,24
3388,-206,185,1078,-132,21,43
3389,-104,-407,1120,-123,-22,-45
3390,-128,-600,738,-66,-28,9
3391,266,-320,1007,39,-46,-16
3392,102,-198,1128,70,18,-26
3393,106,219,898,76,35,4
3394,-112,363,1102,37,46,11
3395,-204,281,1026,-29,20,-7
3396,-104,32,951,-70,-12,-2
3397,24,-178,1014,-61,-29,-17
3398,128,-283,993,-38,-18,-11
3399,181,-210,968,8,7,-14
3400,-4,-35,1001,27,36,4
3401,-97,147,1032,21,35,1
3402,-137,159,1007,-7,17,-9
3403,-141,153,952,-37,-7,-5
3404,17,18,1040,-59,-28,-12
3405,93,-105,1017,-59,-18,-14
3406,66,-147,941,-47,2,-3
3407,21,-134,988,-19,11,-4
3408,-67,-84,1001,-2,18,-2
3409,-85,-16,970,4,6,-2
3410,-75,63,1009,4,-8,-6
3411,7,70,1023,-13,-18,-12
3412,54,27,998,-24,-13,-9
3413,97,-20,1009,-29,-2,-7
3414,41,-68,994,-31,15,-3
3415,-50,-81,994,-18,19,-3
3416,-124,-61,981,-10,9,-3
3417,-109,-13,987,-4,-6,-5
3418,-22,2,1004,-6,-19,-11
3419,69,19,1012,-12,-17,-11
3420,130,14,1009,-17,-4,-8
3421,69,-6,1003,-22,13,-4
3422,-37,-34,999,-23,22,0
3423,-129,-41,985,-22,16,-1
3424,-130,-53,991,-18,-1,-3
3425,-58,-47,986,-11,-19,-8
3426,74,-23,1011,-6,-23,-12
3427,138,-4,1007,-8,-10,-11
3428,93,13,1000,-13,14,-3
3429,-7,5,1014,-19,24,-1
3430,-126,-5,983,-24,20,2
3431,-145,-44,985,-23,3,-4
3432,-96,-61,991,-18,-16,-9
3433,57,-47,1009,-11,-27,-12
3434,134,-31,1004,-5,-15,-11
3435,119,0,1003,-7,9,-6
3436,22,18,1001,-14,26,-2
3437,-114,18,995,-19,27,2
3438,-164,-20,988,-24,7,-2
3439,-118,-39,978,-22,-14,-7
3440,24,-54,1003,-15,-28,-13
3441,118,-50,1015,-10,-18,-13
3442,146,-18,1007,-6,2,-8
3443,52,13,1001,-9,23,-3
3444,-89,18,1000,-15,29,2
3445,-166,1,980,-20,13,-1
3446,-138,-18,982,-24,-9,-5
3447,-5,-51,1008,-20,-28,-12
3448,100,-56,1003,-13,-23,-12
3449,160,-32,1002,-10,-6,-9
3450,76,-6,1012,-11,20,-3
3451,-58,9,1006,-11,29,2
3452,-162,10,975,-18,18,1
3453,-153,-5,989,-20,-5,-4
3454,-46,-43,996,-21,-25,-11
3455,92,-49,1000,-16,-27,-13
3456,273,-98,794,-5,-14,-10
3457,252,1039,243,62,59,11
3458,-116,7,1668,-221,30,5
3459,-601,75,332,-243,16,50
3460,-28,-570,370,-195,-47,-42
3461,-379,-858,461,-73,-59,9
3462,75,-821,1191,151,-57,-39
3463,448,-265,1326,260,-28,-138
3464,32,204,899,151,23,-24
3465,514,762,1223,136,1,-31
3466,-155,676,1093,0,83,8
3467,-302,348,800,-128,45,42
3468,-175,-247,1205,-126,-10,-15
3469,-111,-582,824,-91,-34,-18
3470,139,-460,910,6,-43,1
3471,258,-269,1136,79,-10,-33
3472,78,94,943,84,40,-1
3473,-25,367,1023,61,47,12
3474,-222,315,1094,-5,32,-4
3475,-146,134,919,-58,0,-2
3476,-8,-128,1013,-61,-25,-13
3477,93,-268,1010,-43,-23,-14
3478,188,-239,969,0,1,-13
3479,53,-80,996,30,32,-3
3480,-90,95,1041,29,41,0
3481,-118,173,988,11,25,-15
3482,-129,153,968,-22,4,-11
3483,-62,38,1008,-52,-22,-6
3484,57,-90,1032,-52,-24,-16
3485,101,-146,961,-44,-6,-8
3486,-38,-55,989,-25,10,-4
3487,-105,14,1007,-20,6,-3
3488,-108,52,974,-29,-4,-4
3489,-18,13,1011,-34,-23,-7
3490,60,-44,1014,-36,-27,-12
3491,105,-91,983,-29,-15,-10
3492,93,-88,992,-15,5,-6
3493,16,-65,1009,-8,22,-5
3494,-68,-10,982,0,24,-1
3495,-130,48,985,-5,10,-2
3496,-102,44,1019,-15,-11,-7
3497,-32,9,994,-24,-22,-8
3498,80,-32,1005,-29,-19,-11
3499,115,-72,1011,-25,-4,-11
3500,77,-74,989,-14,12,-3
3501,-15,-42,981,-9,21,-1
3502,-118,5,1000,-4,18,0
3503,-129,12,1000,-12,1,-6
3504,-83,12,984,-17,-15,-8
3505,52,-6,1012,-19,-22,-11
3506,113,-43,1018,-23,-12,-12
3507,113,-47,998,-18,7,-5
3508,21,-38,991,-13,21,-2
3509,-95,-20,996,-12,23,-1
3510,-150,-16,980,-12,8,-2
3511,-108,0,985,-13,-10,-7
3512,16,-16,1015,-16,-25,-11
3513,97,-28,1003,-14,-20,-10
3514,137,-23,1002,-14,-2,-7
3515,50,-18,1004,-15,20,-2
3516,-69,-18,1007,-15,24,1
3517,-152,-12,974,-17,13,0
3518,-131,-15,985,-16,-8,-4
3519,-26,-32,1002,-15,-24,-11
3520,85,-27,1004,-12,-22,-12
3521,149,-20,1008,-13,-7,-10
3522,77,-4,1009,-12,17,-2
3523,-37,-3,1003,-18,28,0
3524,-145,-2,976,-20,20,0
3525,-147,-21,994,-18,-3,-4
3526,-65,-44,996,-16,-22,-10
3527,75,-39,1003,-11,-26,-12
3528,148,-29,1003,-9,-11,-11
3529,106,-10,1006,-10,13,-3
3530,-7,4,1005,-14,27,0
3531,-132,8,985,-19,22,3
3532,-159,-20,994,-22,4,-1
3533,-99,-39,981,-19,-17,-8
3534,57,-43,1009,-14,-28,-12
3535,137,-45,1009,-10,-17,-13
3536,132,-22,1012,-9,7,-5
3537,26,4,993,-12,25,0
3538,-111,7,991,-15,27,2
3539,-167,-13,989,-19,8,-2
3540,-120,-22,984,-21,-13,-6
3541,24,-42,1007,-17,-29,-12
3542,112,-48,1011,-14,-21,-11
3543,153,-29,1003,-9,0,-7
3544,56,-4,1005,-10,22,-1
3545,-84,3,1006,-14,29,2
3546,-166,2,975,-17,14,-2
3547,-137,-12,980,-20,-10,-5
3548,-16,-41,1004,-19,-27,-11
3549,101,-45,1008,-15,-23,-13
3550,160,-32,1008,-12,-5,-9
3551,75,-10,1004,-8,18,-3
3552,-50,-4,1006,-14,29,2
3553,-159,6,974,-18,19,1
3554,-150,-6,993,-19,-3,-4
3555,-53,-36,997,-22,-24,-10
3556,85,-37,1003,-15,-28,-12
3557,157,-36,1004,-13,-11,-11
3558,69,-23,989,-14,13,-5
3559,-53,-11,1019,-14,18,-3
3560,-145,4,980,-19,13,-1
3561,-116,-3,995,-15,-5,-5
3562,-27,-20,998,-16,-22,-10
3563,67,-28,1014,-17,-23,-13
3564,106,-47,995,-11,-11,-16
3565,411,-455,675,1,27,-25
3566,142,25,1204,109,166,-45
3567,-417,358,1433,4,-16,92
3568,-187,336,490,-51,3,74
3569,-578,-113,615,-62,28,-69
3570,-56,25,1454,-40,-98,-18
3571,549,-313,984,-51,-74,-54
3572,211,-191,814,14,21,-32
3573,232,31,1099,10,19,20
3574,-7,-32,1265,16,70,-17
3575,-287,69,646,-3,79,16
3576,-385,130,1028,-17,5,10
3577,-76,16,1151,-25,-58,-27
3578,-20,-11,855,-42,-42,-8
3579,295,-102,1032,-33,-51,-16
3580,221,-80,1149,-18,3,-11
3581,45,-94,871,-20,42,6
3582,-181,29,1015,-1,35,9
3583,-223,42,1043,-16,5,0
3584,-145,46,906,-26,-20,-6
3585,-7,29,1006,-32,-46,-6
3586,100,-15,1067,-38,-42,-17
3587,150,-101,958,-41,-13,-16
3588,79,-118,980,-23,11,2
3589,-16,-63,1037,-8,18,-2
3590,-90,-52,970,1,14,-4
3591,-148,30,960,4,-2,0
3592,-25,60,1051,-7,-20,-12
3593,84,24,1003,-20,-16,-16
3594,109,0,970,-24,-3,-4
3595,63,-37,1023,-27,12,-4
3596,-51,-74,1002,-25,23,-1
3597,-135,-68,962,-16,12,1
3598,-142,-36,990,-6,-6,-6
3599,2,-13,1013,-5,-22,-14
3600,93,11,1003,-6,-20,-12
3601,134,27,1013,-13,-3,-8
3602,76,10,1010,-20,17,-5
3603,-67,-15,988,-24,26,3
3604,-155,-47,984,-24,14,0
3605,-133,-60,983,-19,-7,-7
3606,-15,-57,993,-12,-23,-10
3607,86,-28,1011,-5,-23,-12
3608,158,0,1016,-4,-6,-10
3609,83,24,1000,-13,18,-1
3610,-54,14,1008,-20,28,4
3611,-153,-11,986,-25,18,0
3612,-146,-40,974,-25,-5,-4
3613,-45,-66,990,-18,-24,-10
3614,86,-57,1010,-12,-25,-13
3615,161,-25,1003,-5,-10,-11
3616,92,9,1004,-6,15,-4
3617,-30,21,1016,-13,28,1
3618,-144,14,980,-22,23,2
3619,-157,-14,982,-24,1,-2
3620,-80,-52,995,-22,-22,-10
3621,73,-58,1008,-14,-27,-14
3622,155,-49,995,-11,-12,-12
3623,114,-16,1007,-5,12,-5
3624,-1,14,1009,-9,27,0
3625,-134,24,985,-17,26,4
3626,-163,0,990,-23,7,-2
3627,-107,-33,985,-22,-16,-9
3628,51,-42,1006,-17,-29,-12
3629,139,-54,1011,-15,-18,-12
3630,133,-32,1006,-9,6,-6
3631,35,-1,992,-11,28,-1
3632,-113,12,992,-13,28,3
3633,-171,0,986,-19,9,-1
3634,-128,-17,986,-20,-13,-7
3635,21,-40,1008,-18,-28,-12
3636,118,-48,1009,-14,-19,-12
3637,153,-35,1002,-9,0,-9
3638,60,-10,1007,-11,21,-2
3639,-82,1,1003,-13,30,2
3640,-266,-19,912,-18,17,-1
3641,-297,-15,1000,-2,-18,-8
3642,57,-23,1084,-19,-63,-16
3643,293,-33,985,-14,-41,-23
3644,367,-20,992,2,6,-12
3645,85,-15,1046,-9,50,5
3646,-182,-10,976,-4,64,8
3647,-338,-18,955,-9,38,3
3648,-127,-101,873,-20,-13,-11
3649,718,354,728,5,63,-23
3650,-356,302,1796,-91,42,88
3651,58,172,609,-130,-71,28
3652,-91,-649,504,-120,92,-126
3653,-713,-520,867,58,46,-118
3654,299,-105,1351,64,-102,-49
3655,143,-223,914,65,-20,-19
3656,57,543,904,58,-6,49
3657,392,189,1327,-23,4,-21
3658,-65,187,971,-40,75,-8
3659,-133,-157,726,-96,41,34
3660,-172,-238,1233,-23,3,-21
3661,-135,-236,858,-12,-5,-15
3662,-80,-129,867,23,-19,1
3663,82,73,1208,44,-31,-16
3664,126,102,969,7,4,-10
3665,76,111,954,-5,13,-4
3666,-10,61,1109,-23,11,-5
3667,-43,-52,950,-36,15,-14
3668,-111,-106,922,-22,5,-6
3669,-112,-99,1034,-11,-12,-5
3670,-22,-64,998,0,-16,-11
3671,20,-5,961,6,-16,-6
3672,41,57,1049,1,-15,-5
3673,9,87,1022,-14,-8,-11
3674,-73,71,946,-38,-8,-1
3675,-81,15,1024,-44,-17,-5
3676,-10,-82,1012,-46,-25,-9
3677,32,-123,954,-33,-22,-5
3678,57,-118,998,-12,-17,-8
3679,70,-78,1020,1,-3,-10
3680,61,2,980,6,8,-7
3681,-17,62,1003,0,15,-2
3682,-56,74,1023,-14,12,-4
3683,-95,34,978,-29,5,-3
3684,-77,-27,993,-34,-8,-4
3685,-22,-96,1007,-30,-18,-9
3686,69,-103,988,-16,-14,-10
3687,93,-68,990,-4,-1,-8
3688,58,-6,1015,4,12,-7
3689,-14,41,997,-2,17,-4
3690,-111,63,986,-15,17,1
3691,-118,18,1011,-28,1,-5
3692,-75,-44,984,-31,-14,-8
3693,52,-73,989,-25,-21,-10
3694,106,-82,1020,-13,-13,-11
3695,105,-54,1003,-7,6,-7
3696,18,3,984,-3,21,-3
3697,-99,35,1002,-8,23,2
3698,-139,19,998,-18,6,-4
3699,-105,-4,980,-24,-11,-6
3700,22,-37,1009,-22,-24,-10
3701,97,-67,1010,-19,-18,-13
3702,136,-55,994,-11,0,-8
3703,44,-22,1005,-9,19,-1
3704,-75,0,1009,-8,26,0
3705,-150,12,974,-13,14,-2
3706,-125,8,979,-19,-8,-6
3707,-20,-25,1011,-19,-23,-11
3708,93,-45,1012,-19,-21,-12
3709,146,-42,998,-14,-3,-9
3710,72,-26,1005,-11,18,-1
3711,-47,-11,1006,-12,29,2
3712,-153,3,975,-16,17,1
3713,-145,0,994,-16,-3,-5
3714,-55,-24,1000,-18,-22,-9
3715,82,-29,996,-17,-26,-12
3716,149,-34,1007,-12,-10,-11
3717,96,-24,1009,-14,14,-3
3718,-19,-13,1000,-13,28,0
3719,-140,3,982,-16,22,2
3720,-157,-13,990,-19,1,-3
3721,-86,-25,991,-17,-19,-9
3722,64,-30,1013,-17,-27,-13
3723,140,-35,1006,-14,-14,-11
3724,125,-28,1005,-11,9,-4
3725,13,-7,997,-14,25,-1
3726,-117,1,991,-16,26,3
3727,-167,-14,990,-18,6,-3
3728,-115,-21,980,-18,-17,-8
3729,37,-33,1013,-13,-30,-13
3730,125,-40,1009,-15,-18,-12
3731,143,-23,1008,-11,5,-6
3732,50,-6,1003,-13,23,-1
3733,-98,-2,996,-16,29,3
3734,-167,-11,974,-19,13,0
3735,-133,-20,987,-19,-10,-5
3736,2,-39,1005,-15,-29,-13
3737,108,-40,1010,-11,-22,-14
3738,160,-22,1008,-11,-3,-8
3739,109,-65,968,-14,22,-2
3740,1031,-391,296,54,135,-56
3741,-1145,424,1798,38,190,51
3742,-20,377,556,-99,-178,183
3743,-247,-288,324,-121,61,62
3744,-903,-355,838,30,-5,-112
3745,636,49,1606,37,-166,-50
3746,564,-372,757,22,-10,-73
3747,45,421,833,52,55,56
3748,221,96,1413,-28,23,6
3749,-189,114,1001,-10,95,-32
3750,-429,-25,477,-67,51,19
3751,-192,-163,1408,-28,-51,-16
3752,-6,-113,938,-12,-52,-31
3753,146,-173,771,-6,-33,-5
3754,343,54,1270,31,-26,-17
3755,63,32,1014,-6,46,4
3756,-79,68,830,-6,52,1
3757,-306,56,1146,-19,16,4
3758,-127,-27,924,-30,-21,-15
3759,-4,-83,935,-25,-36,-14
3760,142,-44,1084,-15,-40,-7
3761,192,-37,1039,-14,-4,-16
3762,45,-32,925,-13,25,2
3763,-173,32,1037,-12,25,10
3764,-143,4,997,-20,2,-11
3765,-100,1,940,-22,-18,-6
3766,-8,9,1004,-26,-38,-3
3767,153,-4,1083,-27,-34,-16
3768,81,0,952,-36,-3,-1
3769,-65,35,993,-41,8,12
3770,-98,-33,1021,-45,1,-6
3771,-82,-111,954,-39,-10,-4
3772,16,-111,977,-19,-26,-6
3773,88,-92,1032,-5,-20,-16
3774,122,-23,985,3,-2,-7
3775,46,47,1011,1,18,0
3776,-52,61,1019,-14,27,-2
3777,-132,37,979,-26,18,0
3778,-128,-11,991,-31,-5,-4
3779,-54,-75,1000,-29,-24,-10
3780,78,-89,990,-18,-26,-12
3781,136,-71,997,-8,-7,-10
3782,90,-20,1012,-1,14,-4
3783,-5,20,1000,-4,24,-1
3784,-127,47,982,-13,21,2
3785,-154,18,1008,-21,1,-2
3786,-89,-25,990,-27,-18,-10
3787,52,-59,996,-23,-26,-11
3788,134,-70,1010,-17,-16,-11
3789,124,-60,1011,-9,7,-6
3790,26,-10,984,-5,25,-1
3791,-112,19,996,-8,27,3
3792,-161,16,998,-16,7,-2
3793,-117,-1,973,-22,-14,-7
3794,28,-29,1011,-23,-27,-12
3795,116,-55,1015,-19,-18,-12
3796,147,-47,995,-13,1,-8
3797,52,-24,995,-11,20,-3
3798,-86,-9,1008,-13,29,3
3799,-161,3,977,-15,15,0
3800,-137,-1,985,-18,-9,-5
3801,-8,-24,1006,-17,-28,-12
3802,97,-37,1009,-17,-22,-12
3803,153,-33,1004,-16,-3,-8
3804,69,-22,1010,-11,20,-2
3805,-51,-16,1004,-12,27,2
3806,-158,-1,975,-15,17,0
3807,-141,-7,990,-16,-4,-5
3808,-52,-30,996,-18,-22,-12
3809,84,-31,1003,-14,-26,-12
3810,156,-30,1009,-12,-11,-11
3811,91,-15,1008,-13,15,-3
3812,-21,-7,1004,-14,28,0
3813,-145,-2,983,-17,22,2
3814,-156,-16,988,-20,0,-3
3815,-83,-31,991,-18,-20,-10
3816,70,-35,1011,-15,-26,-13
3817,144,-32,1004,-11,-14,-11
3818,120,-20,1002,-11,9,-4
3819,5,-4,1001,-14,26,-1
3820,-124,6,989,-18,27,2
3821,-165,-14,990,-20,7,-3
3822,-112,-27,980,-19,-17,-8
3823,44,-40,1008,-17,-29,-13
3824,129,-44,1015,-13,-18,-13
3825,140,-25,1004,-10,4,-5
3826,41,1,997,-9,24,-1
3827,-107,4,996,-16,28,3
3828,293,-261,583,-13,30,-14
3829,147,595,1109,14,197,3
3830,-563,129,1454,-113,-74,128
3831,89,90,376,-126,-45,37
3832,-338,-779,371,-68,87,-180
3833,-576,-162,1300,107,-38,-111
3834,825,-258,1296,26,-127,-52
3835,-98,3,779,76,40,15
3836,288,462,962,18,-11,56
3837,105,136,1502,-13,49,-28
3838,-197,182,599,-64,77,13
3839,-220,-223,916,-91,6,31
3840,-57,-173,1293,-6,-38,-29
3841,-89,-270,718,-22,-3,-23
3842,87,-71,974,37,-29,-8
3843,86,87,1273,31,-11,0
3844,33,73,829,-2,26,-10
3845,-29,115,1031,-4,10,2
3846,-44,35,1087,-27,-3,-11
3847,-18,-79,895,-32,2,-20
3848,-24,-114,971,-15,-13,-7
3849,-41,-72,1070,-5,-8,-7
3850,12,-71,958,3,-2,-14
3851,-71,9,974,8,-4,2
3852,-2,78,1051,-2,-15,-7
3853,33,39,1005,-12,-14,-16
3854,-37,57,950,-25,-11,3
3855,-43,52,1035,-39,-18,-1
3856,-14,-38,1008,-47,-17,-7
3857,-20,-104,944,-45,-16,0
3858,18,-96,1018,-26,-18,-5
3859,42,-95,1019,-13,-11,-9
3860,46,-42,961,-3,-4,-6
3861,43,20,1016,1,1,-5
3862,11,47,1016,-9,11,-6
3863,-48,32,992,-21,12,0
3864,-96,2,989,-26,3,-4
3865,-75,-50,991,-30,-7,-6
3866,-8,-86,993,-20,-16,-10
3867,50,-72,995,-10,-12,-9
3868,106,-28,1012,-5,0,-10
3869,47,13,997,-4,14,-5
3870,-40,36,1012,-11,19,0
3871,-113,27,987,-21,12,-1
3872,-108,-17,991,-28,-1,-4
3873,-48,-62,992,-25,-18,-7
3874,66,-69,1001,-17,-22,-11
3875,124,-59,997,-9,-8,-9
3876,74,-16,1004,-6,12,-4
3877,-9,12,1012,-7,21,-2
3878,-119,29,983,-14,18,0
3879,-135,4,992,-22,2,-3
3880,-79,-32,999,-22,-16,-8
3881,55,-52,1004,-21,-24,-11
3882,124,-59,1001,-14,-13,-10
3883,108,-41,1009,-9,7,-5
3884,15,-8,999,-9,23,-2
3885,-107,16,988,-12,25,3
3886,-154,3,992,-17,7,-2
3887,-106,-11,985,-20,-15,-8
3888,32,-31,1011,-17,-27,-11
3889,115,-47,1007,-19,-17,-12
3890,132,-40,1008,-13,4,-7
3891,42,-11,996,-9,22,-2
3892,-95,-2,997,-15,25,2
3893,-157,-2,980,-16,11,-1
3894,-129,-5,985,-18,-9,-5
3895,4,-26,1004,-18,-27,-13
3896,98,-40,1010,-14,-22,-13
3897,153,-26,1006,-13,-2,-8
3898,63,-19,1010,-14,22,-2
3899,-63,-5,1002,-14,28,1
3900,-156,-9,971,-17,16,0
3901,-144,-10,994,-17,-5,-5
3902,-32,-35,998,-18,-23,-11
3903,90,-37,1000,-15,-23,-13
3904,159,-27,1008,-11,-9,-9
3905,88,-12,1012,-13,17,-2
3906,-33,-7,1002,-15,28,1
3907,-148,1,979,-18,20,1
3908,-157,-16,997,-19,-2,-4
3909,-68,-37,988,-17,-24,-10
3910,79,-38,1005,-13,-27,-12
3911,154,-30,1006,-12,-12,-12
3912,112,-21,1005,-10,13,-5
3913,-5,0,997,-12,27,0
3914,-128,-17,975,-14,25,3
3915,861,-389,300,27,74,-42
3916,-816,440,1661,26,193,30
3917,-94,394,767,-98,-173,151
3918,-50,-106,359,-147,47,45
3919,-695,-585,807,-33,42,-101
3920,363,45,1553,42,-122,-14
3921,666,-502,786,15,-15,-77
3922,-216,370,884,77,63,52
3923,225,185,1285,-13,-2,25
3924,-186,151,1115,-10,84,-38
3925,-320,27,505,-73,42,24
3926,-74,-181,1301,-38,-43,-6
3927,83,-131,1056,-12,-35,-42
3928,-7,-199,703,-11,1,-2
3929,186,10,1242,34,-22,-10
3930,-27,18,1059,3,33,1
3931,-48,51,772,3,32,-2
3932,-126,83,1173,-6,-3,-1
3933,-13,29,993,-24,-14,-16
3934,11,-62,881,-27,-9,-14
3935,18,-59,1080,-18,-20,-3
3936,11,-62,1036,-15,0,-9
3937,-23,-74,917,-9,9,-7
3938,-107,7,1021,-2,-4,5
3939,0,21,1036,-6,-19,-14
3940,30,18,950,-14,-16,-12
3941,15,41,1006,-23,-15,0
3942,31,4,1060,-31,-9,-12
3943,-62,-36,949,-37,1,0
3944,-153,-39,963,-32,-10,4
3945,-126,-56,1026,-26,-33,-11
3946,20,-62,981,-19,-42,-16
3947,149,-37,989,-11,-38,-14
3948,200,-17,1039,-8,-14,-13
3949,115,-4,990,-11,18,-5
3950,-66,21,983,-15,34,6
3951,-184,-9,1012,-21,21,-2
3952,-180,-28,961,-21,-4,-4
3953,-33,-42,990,-15,-29,-10
3954,100,-41,1027,-12,-30,-16
3955,179,-25,1012,-10,-9,-12
3956,104,0,989,-13,18,-3
3957,-60,10,1019,-16,31,3
3958,-161,-10,982,-19,21,0
3959,-171,-24,958,-19,-1,-3
3960,-41,-39,1009,-16,-28,-12
3961,88,-51,1015,-13,-30,-15
3962,170,-19,998,-9,-10,-10
3963,105,-3,1010,-12,18,-4
3964,-32,0,1019,-16,31,2
3965,-155,-6,966,-20,23,3
3966,-167,-15,985,-18,-1,-4
3967,-63,-46,998,-18,-24,-10
3968,75,-45,997,-14,-29,-13
3969,165,-30,1007,-9,-13,-11
3970,111,-10,1022,-10,14,-3
3971,-5,4,1004,-13,28,1
3972,-145,8,976,-18,26,2
3973,-170,-10,992,-20,2,-3
3974,-95,-45,989,-21,-23,-10
3975,63,-44,1008,-14,-31,-13
3976,156,-36,1001,-12,-16,-12
3977,130,-19,1005,-8,11,-5
3978,9,5,1004,-10,27,1
3979,-131,14,993,-17,27,3
3980,-170,-15,986,-19,6,-3
3981,-123,-32,983,-19,-17,-8
3982,51,-38,1004,-15,-32,-13
3983,135,-47,1015,-11,-18,-13
3984,145,-23,1009,-10,5,-6
3985,37,-2,998,-12,26,0
3986,-104,8,985,-14,28,3
3987,-175,-7,987,-18,10,-1
3988,-133,-18,985,-21,-13,-7
3989,15,-42,1008,-19,-30,-13
3990,117,-43,1011,-13,-22,-13
3991,161,-30,1004,-10,-2,-8
3992,60,-5,1005,-10,22,-1
3993,-75,0,1006,-14,30,3
3994,-173,0,973,-17,15,1
3995,-142,-11,980,-20,-10,-5
3996,-20,-44,1007,-18,-28,-12
3997,99,-44,1006,-14,-24,-13
3998,164,-34,1006,-12,-5,-10
3999,82,-11,1012,-10,19,-3
4000,-48,0,999,-13,29,1
4001,-160,5,981,-17,20,1
4002,-154,-16,993,-19,-3,-4
4003,-60,-35,988,-18,-25,-10
4004,88,-38,1006,-14,-28,-13
4005,150,-37,1000,-10,-10,-11
4006,82,-54,983,-9,19,-2
4007,982,-204,345,29,104,-33
4008,-798,697,1673,-4,236,92
4009,-265,287,846,-157,-159,151
4010,-40,-295,334,-163,35,5
4011,-583,-729,605,-23,52,-120
4012,-39,-224,1521,86,-101,-55
4013,691,-456,994,72,-64,-60
4014,-100,384,787,106,55,54
4015,308,407,1209,13,4,43
4016,-110,327,1312,-9,77,-22
4017,-300,127,485,-106,54,21
4018,-225,-308,1159,-86,-34,17
4019,10,-200,1157,-15,-50,-41
4020,31,-359,696,-14,-5,-33
4021,272,-18,1133,61,-28,-9
4022,70,104,1175,27,24,13
4023,-45,122,792,8,49,-6
4024,-204,145,1101,-9,13,6
4025,-149,9,1009,-37,-16,-9
4026,-43,-111,900,-31,-25,-26
4027,107,-141,1033,-13,-38,-13
4028,136,-93,1063,2,-11,-13
4029,82,-59,953,11,18,-10
4030,-116,39,1004,12,20,5
4031,-134,69,1019,-1,3,-8
4032,-104,37,951,-10,-13,-15
4033,-48,42,973,-24,-32,-3
4034,87,6,1067,-29,-39,-14
4035,102,-31,1001,-32,-18,-11
4036,8,-19,964,-33,2,5
4037,-77,15,1024,-33,0,2
4038,-101,-37,995,-37,-8,-4
4039,-53,-54,961,-31,-24,-3
4040,59,-49,1020,-24,-31,-9
4041,130,-59,1002,-20,-16,-13
4042,107,-46,987,-12,7,-5
4043,12,-11,1005,-9,22,-1
4044,-104,2,996,-14,23,0
4045,-147,0,989,-16,6,-3
4046,-115,-12,988,-19,-14,-8
4047,36,-21,1010,-17,-28,-13
4048,121,-44,1008,-16,-19,-12
4049,126,-31,1006,-13,3,-6
4050,42,-23,993,-14,23,-3
4051,-92,-4,987,-15,27,2
4052,-164,-14,993,-17,9,-1
4053,-124,-12,986,-13,-13,-9
4054,9,-30,1002,-13,-27,-12
4055,105,-30,1007,-14,-19,-12
4056,149,-26,1014,-14,-1,-9
4057,64,-17,999,-12,20,-2
4058,-75,-7,1001,-18,28,4
4059,-161,-17,978,-17,14,0
4060,-137,-20,974,-16,-8,-5
4061,-19,-35,1008,-15,-26,-12
4062,92,-34,1012,-13,-23,-13
4063,159,-20,1007,-14,-7,-11
4064,83,-11,1003,-13,18,-3
4065,-48,-4,1003,-16,26,3
4066,-154,-6,983,-18,19,2
4067,-147,-22,992,-18,-3,-4
4068,-55,-41,987,-17,-21,-10
4069,83,-37,1002,-13,-27,-14
4070,155,-26,1009,-11,-12,-11
4071,98,-9,1011,-12,16,-3
4072,-19,2,1004,-13,28,0
4073,-142,2,980,-18,23,1
4074,-158,-18,987,-19,2,-3
4075,-90,-44,989,-18,-20,-10
4076,65,-40,1012,-13,-26,-12
4077,149,-37,1003,-11,-14,-12
4078,123,-14,1002,-9,9,-5
4079,9,3,999,-12,24,0
4080,-124,8,994,-18,26,1
4081,-164,-15,990,-20,7,-2
4082,-117,-29,977,-19,-17,-8
4083,44,-40,1012,-15,-29,-14
4084,130,-40,1013,-12,-18,-14
4085,142,-25,1008,-12,5,-7
4086,46,0,998,-10,24,-2
4087,-107,5,997,-15,27,3
4088,-165,-10,977,-19,8,-2
4089,-134,-19,987,-20,-12,-6
4090,10,-39,1006,-19,-27,-12
4091,109,-48,1007,-15,-21,-14
4092,158,-29,1003,-11,-2,-8
4093,64,-4,1009,-10,21,-2
4094,-94,-1,998,-28,20,4
4095,-181,-4,976,-26,6,-2
4096,-140,-14,981,-29,-19,-8
4097,-9,-45,995,-22,-36,-13
4098,96,-43,1009,-20,-28,-15
4099,204,-104,947,-2,-3,-12
4100,1103,-144,459,36,106,-39
4101,-810,554,1797,-30,185,95
4102,-189,365,654,-134,-103,145
4103,-199,-340,426,-171,68,9
4104,-868,-558,726,-11,32,-93
4105,246,-211,1427,64,-141,-57
4106,517,-393,985,55,-51,-53
4107,63,377,807,88,30,41
4108,473,288,1323,9,10,3
4109,-171,316,1127,-20,102,-4
4110,-315,38,561,-110,57,44
4111,-275,-299,1248,-66,-27,14
4112,-117,-179,984,-11,-37,-46
4113,14,-323,748,0,-27,-41
4114,295,24,1224,60,-46,-10
4115,167,105,1053,18,23,3
4116,19,140,868,3,49,-5
4117,-195,120,1135,-20,21,14
4118,-208,-13,938,-44,-1,-6
4119,-90,-132,912,-32,-25,-21
4120,40,-139,1057,-11,-43,-11
4121,174,-84,1027,2,-22,-17
4122,146,-21,958,9,7,-10
4123,-54,84,1049,3,22,10
4124,-120,72,999,-14,15,-7
4125,-169,28,941,-27,-3,-7
4126,-103,-10,992,-32,-33,-5
4127,51,-68,1050,-28,-41,-18
4128,113,-68,971,-22,-25,-13
4129,48,-22,986,-15,-7,-3
4130,10,0,1040,-18,2,-6
4131,-58,-9,968,-21,5,-2
4132,-65,1,982,-22,-6,-2
4133,-26,-43,1025,-20,-15,-11
4134,43,-47,979,-16,-15,-9
4135,91,-39,994,-11,-6,-8
4136,56,-21,1017,-11,11,-6
4137,-11,-7,997,-11,19,-2
4138,-100,19,980,-12,14,-1
4139,-117,4,1010,-19,-3,-3
4140,-66,-30,991,-20,-17,-9
4141,45,-43,996,-19,-19,-11
4142,110,-43,1006,-14,-10,-10
4143,94,-35,999,-9,7,-6
4144,8,-9,993,-10,18,-3
4145,-107,16,998,-14,19,1
4146,-135,-4,1003,-17,5,-4
4147,-99,-19,976,-20,-13,-7
4148,38,-32,1004,-17,-25,-12
4149,115,-46,1019,-14,-16,-13
4150,118,-37,998,-13,4,-6
4151,32,-10,992,-10,21,-3
4152,-91,1,995,-14,23,1
4153,-150,-8,984,-16,9,-2
4154,-115,-13,985,-17,-11,-7
4155,11,-30,1012,-16,-24,-11
4156,102,-44,1006,-14,-19,-12
4157,136,-29,999,-12,0,-8
4158,57,-9,1005,-13,20,-3
4159,-71,-10,1010,-16,28,2
4160,-152,-3,970,-16,15,0
4161,-135,-14,981,-17,-7,-5
4162,-21,-32,1006,-15,-26,-11
4163,86,-39,1006,-15,-22,-13
4164,152,-26,1005,-13,-6,-11
4165,76,-12,1012,-12,17,-3
4166,-40,-2,1001,-14,26,0
4167,-150,0,978,-18,19,1
4168,-145,-14,993,-19,-3,-3
4169,-60,-38,996,-17,-22,-10
4170,76,-38,998,-13,-25,-12
4171,152,-28,1008,-11,-13,-11
4172,99,-13,1008,-11,13,-4
4173,-13,2,1002,-14,27,0
4174,-135,8,984,-17,23,2
4175,-156,-17,990,-19,2,-4
4176,-95,-36,988,-19,-19,-10
4177,59,-37,1009,-16,-27,-13
4178,100,-47,968,-9,-12,-12
4179,-89,-58,953,0,1,-11
4180,-36,6,1081,-28,-31,-11
4181,40,19,978,-5,-2,-8
4182,113,23,1002,-21,-15,-12
4183,47,-13,1032,-36,-11,-3
4184,-23,-28,982,-21,6,-5
4185,-88,-71,956,-14,17,-5
4186,-106,-46,1017,-12,-3,-13
4187,143,-223,830,-3,-19,-28
4188,769,154,743,42,125,-39
4189,-588,380,1719,-36,51,88
4190,-174,386,355,-117,-48,73
4191,-365,-503,585,-124,54,-95
4192,-432,-258,1351,3,-36,-26
4193,630,-389,966,-20,-106,-37
4194,258,-177,863,83,23,-56
4195,46,285,1075,53,21,56
4196,132,234,1266,10,48,-26
4197,-327,127,767,-35,78,11
4198,-298,32,932,-63,1,35
4199,51,-179,1230,-35,-42,-56
4200,54,-249,760,-21,-23,-9
4201,181,-73,1030,18,-21,2
4202,112,-30,1182,23,19,-22
4203,-65,54,851,8,47,13
4204,-176,131,1009,-1,22,9
4205,-143,39,1096,-19,-11,-16
4206,-1,-22,900,-31,-23,-10
4207,66,-70,992,-22,-29,-10
4208,119,-73,1082,-14,-11,-13
4209,71,-73,955,-11,14,-4
4210,-91,15,959,-6,23,8
4211,-136,37,1062,-13,6,-2
4212,-113,36,958,-22,-12,-7
4213,-97,49,957,-30,-30,-2
4214,31,15,1067,-36,-43,-12
4215,127,-60,1012,-43,-25,-13
4216,126,-85,934,-35,-3,-3
4217,46,-88,1027,-21,13,-1
4218,-76,-89,1008,-12,19,-4
4219,-150,-23,937,-4,6,2
4220,-71,21,1023,0,-14,-10
4221,22,28,1018,-10,-19,-13
4222,126,33,989,-15,-14,-8
4223,102,5,1017,-25,5,-6
4224,-9,-40,1014,-29,20,0
4225,-115,-67,960,-24,20,0
4226,-153,-62,982,-15,2,-2
4227,-58,-50,1005,-8,-20,-12
4228,54,-19,995,-3,-23,-12
4229,139,22,1015,-5,-12,-10
4230,102,31,1020,-13,11,-6
4231,-14,8,998,-22,25,2
4232,-131,-16,977,-28,21,3
4233,-152,-53,1000,-25,1,-3
4234,-71,-78,975,-18,-21,-10
4235,57,-55,995,-8,-27,-13
4236,151,-16,1020,-1,-15,-13
4237,110,12,1010,-7,12,-4
4238,0,30,1005,-15,28,1
4239,-134,17,990,-23,24,1
4240,-156,-23,989,-27,3,-2
4241,-98,-62,982,-22,-18,-9
4242,54,-63,1008,-13,-26,-13
4243,139,-48,1011,-7,-16,-12
4244,132,-14,998,-5,7,-5
4245,18,17,1000,-10,24,0
4246,-118,27,997,-17,27,3
4247,-169,-1,994,-22,8,-1
4248,-120,-31,974,-24,-15,-8
4249,35,-54,1004,-17,-29,-14
4250,126,-58,1013,-13,-20,-13
4251,143,-38,1006,-9,4,-7
4252,47,4,995,-6,24,-2
4253,-99,17,994,-12,29,3
4254,-169,7,987,-19,12,-2
4255,-133,-8,978,-22,-10,-7
4256,5,-40,1009,-21,-26,-13
4257,109,-55,1010,-15,-22,-13
4258,156,-38,1001,-11,-2,-8
4259,70,-13,1005,-12,23,-1
4260,-75,1,1015,-12,31,2
4261,-163,4,971,-15,17,0
4262,-142,-4,984,-18,-8,-5
4263,-30,-33,1002,-17,-27,-10
4264,99,-40,1005,-15,-24,-12
4265,145,-38,993,-15,-8,-10
4266,47,-26,1009,-12,14,-5
4267,-60,-16,1011,-2,29,-1
4268,-137,-2,971,-8,18,-3
4269,-102,0,999,-14,-7,-3
4270,-39,-24,1010,-15,-22,-12
4271,83,-45,987,-18,-25,-14
4272,839,-487,481,19,33,-43
4273,-163,481,1534,64,199,19
4274,-281,336,1120,-80,-58,127
4275,-183,41,436,-113,58,28
4276,-731,-490,609,-44,51,-102
4277,-79,17,1510,30,-111,-28
4278,591,-457,918,-8,-73,-63
4279,73,113,865,72,26,4
4280,387,157,1163,8,4,28
4281,11,168,1257,17,89,-25
4282,-212,92,607,-45,88,28
4283,-430,-62,1035,-51,10,21
4284,-148,-64,1137,-17,-55,-21
4285,-104,-149,813,-35,-30,-19
4286,267,-131,1050,4,-56,-17
4287,283,17,1169,14,-5,-5
4288,143,-16,874,-4,48,-5
4289,-116,82,1069,5,46,7
4290,-234,10,1003,-20,24,0
4291,-218,-13,888,-16,0,-15
4292,-133,-23,969,-18,-42,-10
4293,54,-28,1091,-18,-54,-7
4294,209,-28,995,-17,-27,-20
4295,169,-60,987,-15,3,-6
4296,29,-5,1067,-6,22,-2
4297,-119,-41,961,-13,25,-7
4298,-185,-3,941,-6,5,-5
4299,-157,15,1008,-15,-25,-4
4300,-15,28,1003,-20,-40,-8
4301,94,49,989,-28,-39,-9
4302,115,42,1029,-40,-21,-5
4303,74,0,1033,-46,-1,-2
4304,-40,-77,960,-52,10,2
4305,-113,-98,989,-33,0,0
4306,-100,-108,992,-21,-15,-6
4307,13,-60,984,-7,-22,-10
4308,119,-11,1001,0,-18,-13
4309,126,24,1021,-2,0,-8
4310,47,49,997,-13,17,-2
4311,-90,27,1002,-24,23,3
4312,-151,-29,994,-32,9,0
4313,-130,-69,965,-28,-11,-6
4314,15,-78,1001,-15,-27,-13
4315,110,-61,1014,-7,-21,-12
4316,144,-16,1001,-2,1,-8
4317,54,31,1004,-7,22,-1
4318,-85,40,1003,-16,27,3
4319,-155,5,981,-26,13,0
4320,-141,-26,981,-27,-8,-6
4321,0,-65,1003,-22,-27,-13
4322,101,-78,1005,-13,-23,-14
4323,155,-38,998,-6,-5,-8
4324,70,-1,1014,-7,19,-3
4325,-56,16,1010,-12,29,2
4326,-158,19,969,-20,18,0
4327,-148,1,988,-23,-6,-6
4328,-39,-48,1005,-21,-26,-11
4329,93,-56,993,-17,-25,-13
4330,159,-47,1007,-11,-8,-10
4331,95,-24,1014,-7,16,-3
4332,-35,-3,1003,-10,29,2
4333,-148,16,974,-16,22,3
4334,-159,0,999,-18,0,-3
4335,-66,-25,990,-22,-22,-9
4336,73,-43,1001,-19,-28,-12
4337,157,-39,1006,-15,-14,-11
4338,110,-35,1007,-13,12,-5
4339,-5,-9,999,-11,27,0
4340,-136,6,980,-15,23,3
4341,-165,-9,997,-18,3,-4
4342,-102,-21,986,-18,-18,-10
4343,58,-29,1006,-16,-28,-14
4344,144,-37,1013,-13,-17,-13
4345,131,-27,1008,-10,7,-4
4346,28,-9,991,-14,25,-2
4347,-116,1,995,-15,27,3
4348,-174,-11,981,-18,8,-2
4349,-122,-23,988,-19,-15,-8
4350,29,-32,1006,-14,-28,-11
4351,120,-38,1015,-14,-19,-13
4352,152,-23,1006,-9,1,-8
4353,48,0,1003,-12,22,0
4354,-88,0,996,-17,29,2
4355,-172,-10,984,-18,14,-1
4356,-134,-20,976,-18,-10,-6
4357,-9,-41,1005,-15,-28,-11
4358,110,-43,1011,-12,-24,-13
4359,159,-25,1005,-11,-4,-8
4360,69,-2,1008,-12,20,-3
4361,-73,-4,1007,-15,28,2
4362,-161,-28,950,-17,14,-3
4363,684,-518,393,27,48,-44
4364,-593,332,1613,77,148,5
4365,-13,316,855,-51,-131,102
4366,-192,43,386,-82,62,13
4367,-423,-258,982,-23,-3,-72
4368,316,126,1428,-20,-90,15
4369,496,-446,778,-19,1,-83
4370,-128,112,896,39,41,49
4371,45,18,1270,-6,10,8
4372,-100,6,1011,13,64,-40
4373,-281,56,650,-26,33,43
4374,-64,32,1249,-18,-38,-6
4375,115,1,1034,-12,-33,-40
4376,27,-59,794,-35,-4,12
4377,104,-33,1203,-9,-11,-15
4378,-46,-111,998,-21,25,-5
4379,-54,-61,840,-3,21,2
4380,-82,16,1129,6,-5,-7
4381,31,12,1002,-4,-11,-15
4382,35,48,914,-11,-4,-6
4383,-26,45,1049,-21,-4,-1
4384,-25,-13,1045,-32,0,-9
4385,-64,-68,915,-34,3,-3
4386,-62,-55,1012,-23,-11,0
4387,31,-60,1047,-16,-21,-15
4388,63,-21,949,-10,-13,-7
4389,23,44,1001,-3,-1,1
4390,-25,41,1065,-27,4,-4
4391,-128,30,940,-37,2,2
4392,-164,10,961,-45,-19,3
4393,-26,-70,1041,-39,-40,-14
4394,101,-125,984,-30,-37,-15
4395,200,-96,973,-14,-20,-11
4396,139,-58,1040,0,10,-8
4397,-5,1,998,1,31,2
4398,-157,56,969,-5,29,5
4399,-189,47,1009,-17,6,-3
4400,-105,-4,983,-26,-22,-10
4401,60,-35,997,-25,-33,-12
4402,163,-63,1021,-22,-21,-14
4403,144,-69,1000,-17,8,-7
4404,13,-37,994,-10,29,1
4405,-133,1,996,-8,28,3
4406,-172,6,990,-11,8,-1
4407,-128,4,973,-17,-16,-8
4408,42,-2,1021,-18,-32,-13
4409,146,-34,1017,-19,-21,-15
4410,143,-44,993,-16,4,-7
4411,41,-29,995,-16,24,0
4412,-107,-21,998,-14,30,2
4413,-173,-23,979,-15,11,0
