sequence,AccelerometerX,AccelerometerY,AccelerometerZ,GyroscopeX,GyroscopeY,GyroscopeZ
0,35,85,533,-12,13,-6
1,-174,68,382,4,20,-8
2,20,15,283,-3,8,1
3,9,10,386,-22,-6,-9
4,20,-13,516,-10,-10,-9
5,-76,-51,683,-6,-2,2
6,24,-21,552,-27,-12,-13
7,-45,125,531,12,20,-10
8,-115,106,435,-16,7,3
9,-120,-57,354,0,-1,-7
10,44,68,313,-21,4,-2
11,4,-59,512,-30,-14,-6
12,-27,-25,552,-12,-7,-5
13,-8,-74,706,-11,-11,-11
14,-59,197,566,-1,9,-5
15,-19,-30,264,-21,-4,1
16,-158,-35,479,-5,1,-8
17,-45,61,306,-38,8,0
18,34,-112,447,-11,-3,-6
19,-5,2,651,-11,-12,-9
20,-24,-51,735,-15,-2,-4
21,-9,110,413,-13,-1,-9
22,-14,6,487,-29,0,-3
23,-150,-81,395,-11,28,-5
24,-73,39,360,-29,12,-5
25,26,-74,425,2,6,-6
26,40,-54,557,-11,-7,-8
27,-55,-61,707,-16,-7,-2
28,71,88,586,1,-8,-14
29,-66,134,513,-17,25,-8
30,-11,-161,261,-15,12,1
31,-53,-26,573,-3,2,-10
32,-103,-27,319,-29,2,-2
33,77,-76,548,-17,-10,-7
34,-16,-44,696,-19,-11,-8
35,61,42,665,-12,-7,-7
36,-65,185,504,-13,5,-6
37,41,-164,300,-1,0,-2
38,-2,-39,510,-17,8,-2
39,-45,-16,365,-38,5,1
40,5,-5,449,-3,-5,-6
41,35,-12,647,-25,-8,-7
42,-66,-13,714,-8,3,-4
43,60,35,248,-34,-8,-8
44,-41,-21,602,-6,-2,-6
45,-14,12,566,-22,29,-5
46,96,-89,306,-29,15,-5
47,-64,63,394,11,1,-8
48,28,-19,560,-33,-12,-7
49,-59,14,578,-5,-1,-3
50,80,-46,449,-3,-9,-14
51,-43,-15,492,-1,21,-8
52,-12,61,443,-9,3,4
53,60,55,364,-13,-3,-5
54,56,-24,228,-13,4,1
55,-5,-23,510,-25,-11,-5
56,9,12,606,-11,-7,-8
57,-105,38,546,-6,0,-8
58,1,-25,347,-10,-2,-2
59,10,43,583,-14,3,-4
60,-102,162,351,-29,27,-11
61,-7,-27,182,-12,10,-1
62,14,-2,413,-8,-5,-9
63,13,-9,509,-17,-6,-10
64,-99,12,664,-3,1,-1
65,-2,-49,418,-23,-13,-15
66,-28,66,562,0,21,-8
67,-130,71,437,-11,8,2
68,-101,9,275,-12,-2,-4
69,63,54,274,-14,-2,-5
70,24,-63,485,-35,-12,-6
71,-27,-54,516,-12,-1,-2
72,-34,-67,681,-6,-12,-12
73,-66,192,557,6,11,-4
74,-8,-68,265,-28,-1,3
75,-149,-63,442,-4,-2,-8
76,-67,105,286,-30,7,-1
77,43,-101,431,-20,-3,-6
78,8,-26,626,-4,-9,-9
79,0,-74,744,-14,-5,-6
80,-54,162,417,-5,0,-7
81,0,-35,443,-34,7,-4
82,-120,-117,377,-6,26,-10
83,-57,40,391,-15,8,-2
84,3,-69,442,-12,2,-7
85,41,-27,546,-4,-6,-11
86,-39,-94,730,-16,-7,0
87,71,105,527,-11,-10,-14
88,-58,121,509,-9,24,-8
89,-13,-183,309,-16,9,2
90,-11,-28,551,-4,-3,-8
91,-84,-32,347,-36,-2,-2
92,47,-39,581,-15,-12,-7
93,-30,-29,656,-13,-8,-5
94,90,15,644,-18,-8,-9
95,-82,153,541,-7,11,-5
96,29,-124,341,-33,-4,-2
97,15,4,538,-7,17,-9
98,-2,-54,321,-37,11,-2
99,2,-1,489,-7,1,-7
100,9,6,660,-15,-12,-10
101,-41,0,646,-5,-6,-2
102,99,-59,235,-27,-1,-12
103,-53,-16,651,-5,14,-7
104,-8,130,558,-8,2,1
105,95,-124,190,-22,2,0
106,-51,40,408,-7,-2,-6
107,27,-45,591,-16,-11,-8
108,-84,64,577,-18,-3,-2
109,22,-84,407,-13,-9,-12
110,-11,-11,564,-3,6,-4
111,-35,126,412,-16,14,-1
112,-49,21,275,-9,24,-11
113,34,64,244,-16,7,-3
114,20,-74,456,-12,-7,-5
115,-1,-34,566,-14,-8,-7
116,-76,-73,603,-7,-6,-8
117,-43,92,548,-17,7,-7
118,53,-36,407,4,3,-2
119,-221,-8,352,-31,7,-1
120,-16,85,260,-39,5,1
121,-1,-41,353,-9,-4,-8
122,38,-36,585,-20,-11,-8
123,-37,-166,702,3,1,-4
124,16,67,377,-33,-6,-13
125,-34,75,504,-9,12,-6
126,-74,-198,331,-24,10,-2
127,-66,-3,407,-12,7,-3
128,12,-42,410,7,-3,-7
129,28,-32,521,-36,-14,-8
130,-12,-76,627,-10,-1,-5
131,96,76,549,-11,-9,-12
132,-88,118,525,7,6,-1
133,57,-207,258,-24,11,-1
134,43,39,484,-18,22,-13
135,-51,-90,251,6,10,-3
136,25,14,524,-33,-8,-6
137,1,-11,675,-10,-2,-7
138,-33,30,519,-11,-8,-8
139,70,-84,287,-24,3,-10
140,-43,-43,598,-2,7,-5
141,83,138,426,-26,0,0
142,3,-82,115,-33,-4,1
143,0,7,488,-12,-4,-8
144,12,-32,551,-25,-11,-8
145,-86,47,633,-1,0,-2
146,-3,-112,268,-20,-11,-13
147,14,-2,600,-12,17,-2
148,-110,115,436,-29,10,-4
149,-40,21,215,-2,1,-9
150,37,35,273,0,-1,-5
151,29,-51,494,-32,-10,-8
152,-32,-78,498,-3,1,-3
153,-16,-65,625,-7,-13,-13
154,-61,177,566,-2,7,-2
155,9,-138,249,-32,6,-1
156,-134,-85,334,-2,21,-14
157,-58,112,258,-29,10,-1
158,37,-102,416,-20,-1,-8
159,16,-33,590,-7,-6,-9
160,45,-111,717,-15,-7,-4
161,-38,156,343,-8,3,-12
162,5,-85,340,-5,17,-6
163,9,-173,383,-14,1,3
164,-70,11,368,-42,-4,0
165,14,-52,431,-18,1,-8
166,32,2,545,-19,-14,-8
167,-44,-53,662,-10,-7,1
168,76,41,364,-15,-13,-14
169,-73,5,461,-17,17,-3
170,10,-114,488,-26,8,-3
171,118,30,412,33,12,-12
172,-63,-1,248,-32,4,-1
173,34,-8,580,-10,-8,-8
174,-43,-17,535,-12,-8,-5
175,20,21,464,-15,-10,-10
176,-15,-99,396,0,11,-5
177,38,72,464,-20,1,1
178,70,81,360,-3,17,-9
179,-12,20,148,-40,11,-3
180,25,-41,465,-3,1,-5
181,1,0,572,-9,-12,-11
182,-80,-44,617,-7,-8,-3
183,-3,-36,351,-15,0,-11
184,28,48,603,-19,15,-5
185,-201,54,354,2,0,-1
186,23,0,224,-28,0,-1
187,11,20,320,-19,-1,-5
188,30,-37,522,-13,-12,-8
189,-63,-101,562,-25,-5,-2
190,47,-36,594,-22,-8,-11
191,-91,151,530,11,9,-3
192,-58,-59,253,-3,19,1
193,-129,-131,344,-27,18,-11
194,-24,98,281,-6,5,-6
195,46,-108,474,-15,-10,-6
196,-10,-66,615,-19,-11,-8
197,62,-62,673,6,-3,-8
198,-77,232,496,-28,12,-9
199,48,-172,240,-9,4,0
200,-57,-95,425,0,0,-2
201,-34,-31,430,-54,1,4
202,4,-40,428,-4,-8,-8
203,33,-8,629,-25,-12,-9
204,-47,-25,726,-18,2,-3
205,94,81,262,-21,-2,-7
206,-47,-22,555,-1,3,-5
207,10,-65,523,-17,29,-7
208,79,-81,293,-21,15,-5
209,-44,61,395,13,1,-7
210,32,-25,571,-32,-12,-7
211,-70,0,589,-6,-1,-3
212,75,-38,423,-15,-13,-13
213,-30,-49,489,-8,16,-6
214,-1,66,431,-18,5,4
215,79,56,334,-30,2,-4
216,52,-7,230,-14,5,-2
217,-10,-29,514,-34,-9,-5
218,13,-13,612,-8,-4,-8
219,-117,-17,555,1,-2,-8
220,-18,-27,427,-20,4,-6
221,57,23,560,-17,4,-6
222,-155,106,307,0,8,-8
223,8,10,220,-13,2,0
224,16,-20,418,-12,-8,-9
225,16,-24,557,-31,-10,-9
226,-77,-125,658,-9,1,-2
227,46,16,401,-23,-13,-9
228,-29,71,529,20,6,-4
229,-132,-84,346,-28,21,-5
230,-106,-24,299,-13,11,-8
231,34,14,317,-1,4,-9
232,33,-66,509,-29,-9,-6
233,-19,-104,585,-4,-4,-2
234,63,-8,636,-13,-15,-12
235,-51,196,505,-15,15,-8
236,77,-265,183,-28,6,3
237,-33,5,510,-18,-10,-5
238,-86,-71,335,-22,6,2
239,44,-50,501,-21,-5,-7
240,16,-15,665,-9,-7,-8
241,-8,27,655,-6,-4,-6
242,39,21,312,-16,-1,-9
243,-43,-118,487,-28,12,-3
244,83,33,593,-6,12,-10
245,8,-64,196,-4,6,0
246,-21,39,473,-26,-6,-9
247,32,-30,548,-15,-8,-10
248,-74,40,620,-15,-1,0
249,46,-118,258,-25,-15,-12
250,5,-1,573,9,8,-6
251,-28,114,450,-24,18,-1
252,69,16,253,-12,9,-11
253,38,19,258,-24,7,-5
254,1,-32,548,-13,-4,-6
255,-21,-34,505,-10,-8,-4
256,-50,-40,618,-2,-13,-11
257,-59,30,629,-9,17,-9
258,28,-23,360,-29,6,3
259,-132,4,371,-8,-10,-7
260,-51,119,244,-37,6,3
261,41,-87,424,-18,-4,-6
262,-2,-6,622,-9,-11,-11
263,13,-172,691,-16,-1,-4
264,-30,64,371,-16,-2,-9
265,-15,28,468,-32,0,-5
266,-113,-178,346,-3,15,-6
267,-37,47,347,-12,7,-2
268,12,-78,408,-17,0,-6
269,31,-41,562,-16,-8,-8
270,-40,-99,668,-28,-4,-1
271,127,97,495,-28,-14,-11
272,-68,72,478,1,8,-4
273,40,-233,324,-5,21,-1
274,71,31,518,-8,19,-12
275,-92,-32,215,-15,8,-5
276,62,-23,583,-13,-8,-6
277,-20,-30,642,-22,-11,-6
278,24,45,485,-10,-8,-7
279,-12,-105,381,-9,12,-8
280,47,-20,501,0,7,0
281,111,81,408,-26,5,-3
282,-38,-8,157,-45,5,1
283,4,-3,479,-8,-4,-7
284,30,-37,579,-18,-12,-9
285,-70,-42,625,1,-2,-5
286,-12,-76,318,-31,-4,-14
287,13,39,634,4,14,-9
288,-147,-2,376,-22,0,3
289,20,-6,236,-29,0,0
290,-2,45,313,-9,-2,-5
291,16,-31,515,-23,-13,-8
292,-28,-142,520,-15,-4,-3
293,68,-53,588,-11,-11,-12
294,-114,171,561,-8,7,-1
295,-44,-140,210,-30,0,-3
296,-57,-115,351,-1,13,-13
297,-57,44,311,-6,3,-2
298,42,-97,478,-20,-9,-6
299,-20,-43,629,-16,-5,-7
300,114,-14,628,-11,-4,-8
301,-39,147,421,-7,1,-3
302,29,-190,322,4,4,-5
303,24,-69,476,-23,29,-10
304,-23,-22,299,-12,13,-2
305,19,-20,420,-7,-5,-8
306,26,-3,618,-24,-7,-10
307,-87,-18,653,-3,1,-3
308,95,-39,150,-23,-11,-14
309,-4,-63,603,17,16,-10
310,-18,64,545,-39,9,6
311,134,-38,244,-35,-5,-1
312,-67,64,290,0,2,-7
313,43,-62,568,-29,-10,-6
314,-56,-24,514,-9,-2,-3
315,-34,-3,490,-9,-14,-14
316,-52,-16,567,-8,16,-1
317,10,32,369,-34,5,-1
318,-47,4,295,18,7,-16
319,-42,125,251,-3,6,1
320,17,-69,399,-33,-9,-7
321,19,-24,579,-9,-6,-8
322,-34,-141,643,-16,-5,-5
323,-70,136,489,-2,-1,-6
324,38,15,491,-4,3,-5
325,-213,-81,295,-25,20,-5
326,22,42,282,-25,3,-2
327,-18,-27,385,-11,2,-9
328,18,0,540,-17,-8,-9
329,-42,-180,663,-8,-2,-1
330,87,43,492,-14,-11,-14
331,-59,111,501,-7,21,-6
332,-81,-179,312,-25,6,3
333,-30,-25,446,4,-3,-4
334,-21,-51,390,-20,1,-2
335,41,-37,558,-29,-11,-6
336,-40,-35,636,-11,-5,-3
337,110,43,591,-15,-12,-12
338,-71,107,504,-12,8,-2
339,54,-180,315,-33,2,-3
340,1,43,503,29,26,-15
341,7,-68,265,-28,10,0
342,21,-15,501,-11,-1,-6
343,18,0,664,-5,-9,-8
344,-97,26,608,-19,-7,-3
345,108,-79,201,-14,5,-9
346,-13,-33,622,-4,14,-6
347,0,168,518,-15,4,5
348,66,-107,141,-35,-1,-1
349,-32,47,444,-14,2,-7
350,47,-61,560,-15,-12,-9
351,-85,63,590,-12,-3,-1
352,-42,-100,403,-5,-8,-14
353,-5,29,553,-19,17,-5
354,-47,108,394,-18,6,-2
355,-79,2,284,11,6,-12
356,27,76,281,-34,2,-2
357,12,-51,489,-10,-6,-8
358,0,-54,541,-19,-9,-7
359,-44,-101,634,-13,-10,-9
360,-81,151,587,-5,7,-6
361,30,-50,325,-3,3,-4
362,-157,-64,357,-18,17,-9
363,-19,71,293,-37,8,-2
364,-5,-60,400,-3,-1,-7
365,16,-13,620,-16,-10,-11
366,4,-137,694,-6,-4,-3
367,23,75,376,-19,-1,-13
368,-17,44,492,4,11,-8
369,-56,-201,373,-18,-1,3
370,-54,4,404,-42,-8,-1
371,27,-70,449,-11,-5,-5
372,22,-17,571,-25,-15,-7
373,-47,-47,660,-17,-4,-3
374,115,61,483,-17,-8,-14
375,-59,20,490,-11,7,-3
376,23,-137,385,-18,11,-4
377,79,71,509,-2,18,-14
378,-34,-57,226,-3,5,-4
379,40,-18,567,-19,-9,-6
380,-24,-13,677,-18,-6,-7
381,-44,64,491,-13,-5,-8
382,60,-119,314,-18,6,-6
383,26,-1,568,-2,3,-3
384,67,141,401,-37,17,-4
385,-26,-21,136,-29,7,0
386,30,-6,458,-10,-5,-8
387,38,-57,595,-21,-10,-9
388,-87,1,662,4,-1,-3
389,-20,-64,345,-27,-9,-13
390,16,44,622,5,15,-7
391,-127,16,405,-29,2,3
392,-42,9,263,-32,-7,-2
393,14,56,309,-2,-2,-7
394,32,-59,506,-34,-12,-8
395,-15,-138,540,-16,0,-3
396,25,-54,635,-11,-11,-14
397,-110,195,566,-6,10,-1
398,-9,-150,202,-21,10,-3
399,-60,-96,359,9,18,-16
400,-75,49,339,6,7,-2
401,23,-85,465,-29,-10,-7
402,-2,-38,644,-14,-6,-8
403,91,-35,692,-16,-7,-6
404,-18,172,403,-12,-2,-7
405,-4,-148,344,-3,6,-4
406,42,-109,430,-27,19,-4
407,-33,-17,323,-23,4,0
408,13,-38,463,-13,-1,-8
409,15,16,600,-16,-7,-9
410,-64,-37,689,-3,-3,-1
411,77,-15,252,-19,-14,-13
412,-50,-55,551,-9,22,-6
413,-29,8,569,-32,5,3
414,138,20,331,-13,-10,-5
415,-50,12,275,-17,0,-4
416,40,-40,611,-31,-10,-7
417,-65,0,545,-13,-4,-4
418,-1,17,511,-14,-14,-12
419,-27,-62,505,-6,9,-3
420,20,47,418,-36,4,-1
421,-26,55,330,24,18,-15
422,-55,97,227,-22,8,0
423,32,-84,438,-28,-6,-7
424,16,-13,615,-4,-8,-9
425,-46,-135,662,-29,-7,-4
426,-40,93,427,-9,-3,-9
427,59,7,514,-7,7,-6
428,-197,-110,312,-11,26,-4
429,0,66,291,-32,6,-4
430,-15,-19,369,-6,3,-7
431,40,-34,543,-13,-8,-7
432,-32,-188,642,-12,-4,0
433,100,55,538,-11,-12,-16
434,-80,131,457,-11,20,-9
435,6,-256,274,-23,8,8
436,15,-31,502,-34,-8,-6
437,-80,-38,345,-21,6,-4
438,48,-35,575,-19,-11,-7
439,-27,-39,623,-7,-8,-6
440,115,11,551,8,-6,-10
441,-94,-4,468,-8,15,-6
442,25,-105,423,-36,-5,1
443,87,62,494,15,-3,-9
444,2,-42,244,-39,2,2
445,-4,0,508,-19,-9,-6
446,12,-1,628,-6,-11,-10
447,-88,15,580,-17,-1,-4
448,74,-123,236,-16,-1,-7
449,26,11,677,-12,-5,-4
450,-117,164,369,12,26,-7
451,77,-67,164,-19,9,-4
452,-12,57,390,-7,-2,-5
453,25,-52,551,-16,-10,-8
454,-67,-75,546,-22,-6,-2
455,48,-56,568,-22,-11,-10
456,-37,109,604,1,9,-7
457,-43,-69,291,-4,17,3
458,-138,-91,305,-32,11,-12
459,1,118,276,-9,8,-5
460,40,-104,483,-15,-8,-5
461,-9,-78,618,-17,-8,-6
462,82,-97,642,3,-8,-8
463,-66,212,501,-12,12,-7
464,66,-198,243,-3,7,0
465,-11,-99,440,-36,6,-2
466,-31,-39,405,-42,5,0
467,2,-40,454,-7,-4,-9
468,35,-2,635,-18,-11,-9
469,-51,-38,679,-3,1,-1
470,92,-22,224,-24,-5,-11
471,-65,-54,572,-1,14,-8
472,33,30,553,-29,-1,3
473,118,-79,240,-25,-3,0
474,-68,77,391,-1,-1,-7
475,16,-42,603,-26,-11,-7
476,-73,-7,555,-10,-2,-5
477,36,-54,426,-13,-10,-15
478,-34,-45,598,-3,7,-3
479,-20,72,371,-10,7,-3
480,-40,8,254,2,14,-13
481,10,76,278,7,6,-2
482,1,-60,456,-23,-11,-7
483,2,-33,600,-19,-7,-8
484,-21,-142,595,-12,-6,-6
485,-43,110,506,-14,0,-4
486,35,-36,465,2,3,-5
487,-181,-82,281,-21,26,-11
488,21,52,295,-12,11,-3
489,-3,-61,393,-5,-5,-10
490,23,-15,600,-22,-8,-9
491,-31,-157,690,0,-1,-3
492,112,73,374,-31,-16,-12
493,5,39,495,17,17,-7
494,-3,-228,414,-34,16,4
495,-26,-3,423,-32,0,-2
496,-23,-31,385,-5,4,-8
497,60,-39,585,-26,-9,-8
498,-53,-46,634,-6,-2,-2
499,80,28,491,-1,-14,-15
500,-75,-78,502,-17,16,-8
501,54,-102,431,-29,5,4
502,94,112,435,-9,-10,-7
503,-3,-33,238,-21,2,0
504,-7,-19,529,-21,-6,-6
505,38,-33,633,-14,-8,-7
506,-117,-36,569,1,-5,-7
507,9,-65,387,-16,0,-6
508,88,-3,642,-27,1,-4
509,-142,78,289,-8,-3,-5
510,24,-27,196,-18,2,2
511,-21,23,449,-15,-4,-9
512,27,-29,535,-19,-10,-10
513,-43,-185,611,-16,-1,-2
514,75,-15,466,-20,-11,-13
515,-57,109,501,-2,11,-3
516,-74,-149,302,-22,8,-4
517,-55,-60,311,22,9,-9
518,8,-20,349,-18,1,-4
519,13,-56,549,-29,-9,-8
520,-13,-83,592,-13,-5,-6
521,135,8,582,-20,-10,-11
522,-76,137,518,2,13,-4
523,71,-234,289,-25,4,-3
524,29,29,497,19,22,-16
525,-7,-86,270,-36,9,-1
526,32,-26,516,-20,-4,-7
527,19,12,667,2,-8,-9
528,-76,32,587,-24,-9,-2
529,116,-136,218,-9,1,-8
530,28,-44,634,4,10,-6
531,29,164,432,-1,29,-4
532,67,-110,128,-37,3,-5
533,-24,61,447,-11,1,-7
534,40,-65,575,-17,-10,-9
535,-66,-35,607,-11,-9,-1
536,4,-96,502,-17,-12,-13
537,13,38,639,-6,16,-7
538,-43,-59,361,-21,14,6
539,-132,-31,279,-39,-4,-8
540,30,114,307,-17,7,-5
541,16,-66,524,-21,-11,-6
542,22,-106,564,-13,-11,-5
543,65,-145,612,6,-10,-10
544,-98,199,530,-21,15,-9
545,40,-194,239,-24,7,4
546,3,-80,424,-21,-6,-5
547,-32,-71,421,-40,5,0
548,-8,-66,491,-12,-1,-7
549,9,11,665,-11,-11,-10
550,-3,-27,639,2,-6,-4
551,111,-75,279,-13,-2,-13
552,-49,-61,568,-8,10,-4
553,70,55,550,-21,0,4
554,84,-98,164,-41,-4,-1
555,-38,52,431,-8,-1,-9
556,21,-44,645,-13,-12,-7
557,-85,-10,580,-5,-4,-3
558,39,-101,417,-3,-9,-15
559,17,-49,685,-14,13,-5
560,-2,-13,392,-26,-5,4
561,-98,-2,232,-19,-6,-6
562,18,101,294,-23,4,-2
563,29,-87,506,-20,-9,-6
564,5,-82,620,-12,-8,-7
565,38,-168,606,7,-1,-9
566,-75,150,498,-20,7,-6
567,28,-136,301,-22,-6,-2
568,-40,-124,347,-6,2,-5
569,-6,-18,430,-39,1,2
570,-34,-81,443,-8,-7,-7
571,39,-15,649,-8,-10,-8
572,1,-56,691,-5,1,-2
573,111,28,276,-22,-5,-10
574,-58,-33,539,9,8,-5
575,75,-75,560,-26,3,0
576,93,-87,260,-26,0,-2
577,-47,76,399,3,-3,-7
578,32,-40,636,-22,-11,-7
579,-76,-45,583,-6,2,-3
580,55,-45,413,-4,-7,-15
581,-18,-90,650,-5,8,-2
582,18,0,386,-24,-3,0
583,-38,12,232,-3,-2,-10
584,11,75,292,-18,0,-2
585,8,-61,485,-13,-9,-6
586,-1,-55,626,-16,-8,-8
587,44,-196,610,2,-2,-8
588,-51,103,451,-17,3,-3
589,15,-69,400,-19,-1,-4
590,-67,-145,303,9,9,-6
591,18,8,382,-18,2,2
592,-15,-85,436,0,-6,-9
593,17,-5,621,-25,-7,-10
594,-6,-99,702,-1,1,-3
595,137,59,294,-19,-9,-11
596,-32,-35,514,12,5,-5
597,52,-137,560,-33,3,2
598,98,-39,327,-16,-2,-3
599,-47,56,345,4,-2,-7
600,65,-55,618,-26,-7,-8
601,-84,-57,601,-10,1,-2
602,40,7,446,4,-9,-15
603,-17,-112,614,1,11,-2
604,57,-38,404,-40,-2,3
605,-14,33,269,10,0,-9
606,-33,96,267,-13,7,1
607,13,-64,449,-26,-6,-7
608,18,-54,609,-13,-6,-7
609,39,-225,667,-5,-2,-6
610,-66,117,430,-7,-2,-5
611,11,-16,415,-20,2,-4
612,-65,-196,285,11,7,-6
613,20,16,353,-18,2,1
614,-27,-68,447,-15,-4,-7
615,20,3,567,-25,-4,-9
616,1,-140,693,-11,2,-2
617,144,70,365,-15,-13,-12
618,-66,23,527,6,8,-5
619,32,-189,483,-18,6,-2
620,120,-10,387,11,9,-8
621,-36,1,299,-13,0,-5
622,52,-39,641,-33,-8,-8
623,-82,-19,586,-10,-3,-4
624,57,19,475,-13,-12,-12
625,-6,-134,531,-5,8,-4
626,70,0,446,-30,0,-1
627,35,68,328,24,17,-14
628,-29,70,226,-11,10,1
629,23,-70,483,-24,-5,-8
630,1,-20,627,-4,-5,-10
631,-8,-188,681,-22,-3,-6
632,-30,87,433,-9,0,-8
633,51,-2,495,-6,2,-7
634,-120,-189,330,13,24,-11
635,0,60,316,-6,11,-2
636,-21,-43,390,-25,-4,-8
637,33,-26,558,-15,-9,-11
638,-6,-186,672,-22,-4,-2
639,138,69,486,-22,-12,-12
640,-81,86,484,0,9,-6
641,67,-266,407,-19,10,-7
642,106,2,493,12,14,-10
643,-71,-18,277,-25,3,-2
644,47,-23,623,-22,-6,-7
645,-44,-25,608,-15,-7,-5
646,70,28,492,-22,-11,-9
647,-18,-153,503,-8,13,-6
648,87,0,452,-15,3,-4
649,77,77,322,30,28,-15
650,-23,27,177,-28,7,0
651,9,-44,512,-16,-6,-8
652,-1,0,624,-12,-11,-10
653,-5,-193,650,-31,-3,-3
654,5,25,407,-17,-3,-9
655,41,42,566,-4,-1,-7
656,-137,-162,333,12,32,-10
657,-13,61,282,-12,11,-6
658,5,-37,340,-10,0,-7
659,20,-45,568,-18,-11,-10
660,-18,-171,633,-26,-6,-2
661,146,62,516,-15,-8,-12
662,-77,90,470,4,9,-7
663,55,-283,330,0,19,-3
664,88,26,530,8,20,-12
665,-95,-39,236,-30,3,-5
666,70,-45,591,-15,-8,-6
667,-21,-27,652,-21,-10,-5
668,45,54,517,-23,-10,-8
669,-12,-139,438,-12,10,-6
670,108,-22,481,-7,10,-4
671,110,69,376,19,30,-14
672,-41,-5,188,-34,9,-2
673,5,-4,496,-8,-6,-6
674,23,-25,619,-21,-13,-9
675,-14,-163,670,-25,-3,-3
676,6,12,413,-24,-6,-9
677,28,67,643,4,3,-8
678,-129,-131,370,9,35,-7
679,-39,32,271,-36,12,-5
680,3,11,345,12,0,-8
681,9,-36,563,-25,-21,-10
682,9,-178,618,-19,-6,-3
683,144,24,536,-26,-12,-10
684,-83,74,554,0,12,-3
685,39,-271,314,-5,10,-4
686,93,39,534,7,23,-14
687,-72,-72,250,-13,5,-2
688,52,-50,589,-27,-11,-4
689,-23,-12,699,-23,-8,-7
690,9,65,518,-21,0,-8
691,37,-170,413,-18,2,-1
692,126,-48,561,4,-7,-5
693,69,104,387,28,30,-13
694,-45,-25,144,-22,7,0
695,21,2,499,-6,-8,-7
696,32,-55,631,-26,-7,-8
697,-11,-196,696,-6,4,-6
698,27,27,375,-30,-9,-10
699,-6,61,561,9,0,-5
700,-58,-181,374,-12,4,0
701,-64,7,309,-10,4,-4
702,-5,-10,358,0,-1,-6
703,23,-65,560,-26,-8,-7
704,18,-145,637,-9,-1,-3
705,145,68,502,-3,-7,-14
706,-93,38,560,-8,10,-5
707,88,-221,351,-44,-1,4
708,115,79,468,-8,-9,-8
709,-9,-80,262,-14,3,0
710,15,-15,588,-22,-6,-6
711,14,-33,677,-6,-2,-6
712,-91,-19,507,4,-5,-7
713,39,-136,425,-15,2,-6
714,109,-45,629,-28,-1,-1
715,-89,94,304,-23,-3,-2
716,-15,-22,183,-30,-2,3
717,21,-2,475,-10,-6,-9
718,16,-33,587,-16,-4,-8
719,-24,-209,687,2,2,1
720,73,6,370,-16,-9,-13
721,-37,48,512,3,12,-4
722,-41,-222,382,-50,1,7
723,-41,11,388,-22,-8,-1
724,-16,-59,389,-9,1,-3
725,34,-73,577,-19,-6,-6
726,-22,-63,652,-1,-1,-2
727,122,59,521,4,-10,-14
728,-87,-27,532,-12,12,-6
729,91,-179,413,-45,6,3
730,97,107,450,-16,-11,-5
731,-4,-45,264,-23,3,2
732,0,-15,556,-17,-5,-6
733,32,-40,669,0,-3,-8
734,-100,-69,594,3,-8,-6
735,27,-80,435,-16,-2,-9
736,116,-15,662,-27,9,-3
737,-131,29,341,-27,-3,-1
738,25,-18,223,-38,-5,3
739,-24,13,480,-16,-3,-10
740,16,-31,579,-12,-7,-9
741,-17,-219,670,-3,-4,0
742,77,3,466,-17,-11,-15
743,-65,94,508,-2,14,-5
744,-41,-221,337,-41,7,6
745,-12,-4,421,-36,-14,-6
746,-31,-67,387,-15,5,-5
747,35,-58,609,-20,-7,-7
748,-38,-50,637,-9,-5,0
749,145,22,529,9,-12,-12
750,-81,-76,506,-25,14,-8
751,48,-119,426,-38,6,5
752,105,112,433,-25,-10,-7
753,-13,-27,243,-40,5,0
754,2,-38,552,-13,-1,-7
755,24,-15,656,-14,-10,-9
756,-121,-106,608,-2,-11,-4
757,23,-76,392,-19,1,-13
758,118,-9,643,-15,19,-5
759,-199,-77,355,-21,8,1
760,29,31,248,-59,-4,-1
761,-30,15,413,-6,4,-9
762,41,-43,566,-21,-10,-9
763,-22,-222,610,-10,-7,1
764,91,35,512,-12,-14,-17
765,-95,120,461,-13,21,-8
766,10,-270,270,-24,16,7
767,17,-6,493,-53,-7,-8
768,-80,-38,349,-18,9,-5
769,45,-48,585,-14,-8,-5
770,-16,-49,632,-17,-11,-4
771,132,0,522,8,-9,-10
772,-90,-67,482,-23,16,-11
773,32,-73,458,-28,8,5
774,132,79,434,-27,-5,-7
775,-24,-22,224,-48,5,1
776,-10,-18,531,-6,-3,-6
777,13,-14,644,-14,-13,-9
778,-93,-86,621,4,-4,-2
779,22,-95,351,-12,0,-12
780,64,31,675,-16,15,-3
781,-184,-27,406,-17,0,4
782,44,1,225,-39,-3,-2
783,-10,15,381,-5,1,-8
784,30,-55,580,-15,-10,-7
785,-43,-182,596,-2,-3,-2
786,92,6,574,-1,-7,-15
787,-96,122,517,-16,15,-5
788,-26,-240,260,-28,-4,5
789,-19,-44,449,-19,-6,-5
790,-82,-17,344,-25,1,-1
791,65,-91,539,-17,-9,-6
792,-9,-38,685,-7,-8,-6
793,129,41,590,-4,-2,-9
794,-75,42,454,-14,12,-6
795,45,-165,396,-35,-11,-1
796,106,25,509,18,0,-6
797,-29,-24,263,-31,3,5
798,-4,24,478,-14,-7,-7
799,34,-30,632,-17,-12,-8
800,-98,-35,638,-8,0,-2
801,38,-123,215,-24,-5,-9
802,32,27,669,0,2,-5
803,-122,96,399,-6,5,-2
804,54,-34,208,-20,1,-3
805,-24,59,363,-6,-4,-6
806,6,-37,531,-24,-10,-6
807,-32,-144,526,-16,-2,-3
808,85,-43,584,-6,-12,-11
809,-114,181,589,-11,8,0
810,-39,-163,224,-19,6,-2
811,-63,-132,336,10,15,-13
812,-49,62,307,-10,1,-1
813,36,-104,484,-22,-10,-6
814,-9,-56,631,-19,-7,-8
815,125,-21,624,-7,-6,-8
816,-38,143,416,-16,-5,-3
817,31,-206,340,7,1,-4
818,40,-52,503,-7,32,-12
819,-27,-30,306,-13,15,-1
820,22,-13,441,-6,-4,-9
821,24,-11,625,-24,-11,-7
822,-77,-4,698,-1,-2,-3
823,105,-64,173,-28,-14,-10
824,8,-25,647,20,14,-8
825,-26,127,528,-36,23,2
826,127,-39,239,-29,7,-2
827,-45,75,300,1,5,-9
828,44,-71,582,-30,-10,-6
829,-45,-75,537,-1,1,-3
830,-23,-36,558,-11,-13,-13
831,-56,42,644,-14,23,-9
832,-10,-47,340,-37,6,3
833,-85,-67,314,-25,-9,-5
834,-44,159,277,-27,-3,0
835,31,-78,429,-27,-10,-7
836,14,-46,590,-6,-5,-6
837,31,-184,672,-8,-5,-7
838,-109,189,448,-22,1,-6
839,-13,-38,398,-30,4,-4
840,-126,-181,285,7,12,-10
841,12,27,371,-2,5,1
842,-19,-62,435,-24,-6,-8
843,22,8,554,-19,-9,-9
844,-17,-135,699,-12,-1,-1
845,121,125,380,-13,-15,-12
846,-32,59,509,14,9,-5
847,-27,-190,370,-30,17,-1
848,55,-7,418,-19,9,-6
849,-52,-33,313,-10,7,-6
850,49,-12,592,-10,-4,-6
851,-72,-2,615,-11,-6,-4
852,76,9,540,-4,-13,-14
853,-46,-11,451,-9,23,-8
854,0,-54,492,-39,8,3
855,43,112,498,17,-5,-11
856,-10,-34,228,-41,4,3
857,3,-20,479,-28,-7,-7
858,20,-5,635,-13,-10,-8
859,-129,38,603,-23,-4,-4
860,88,-63,193,-5,-4,-7
861,15,38,637,-10,-4,-5
862,-89,218,447,-14,24,-5
863,67,-70,173,-45,0,-5
864,-20,65,438,-7,4,-8
865,52,-58,511,-15,-10,-9
866,-90,53,607,-17,-6,-1
867,-42,-103,470,-14,-9,-14
868,-26,114,536,-15,26,-6
869,-71,152,387,-9,12,2
870,-97,-49,293,10,7,-11
871,39,104,268,-20,2,-2
872,20,-44,488,-9,-8,-6
873,-4,-17,507,-17,-9,-5
874,-79,-95,688,2,-4,-9
875,-74,200,616,-2,12,-8
876,17,16,322,-5,4,0
877,-185,-53,440,-17,0,-3
878,-25,71,272,-56,0,4
879,6,-23,389,-5,-6,-4
880,17,-9,605,-27,-12,-9
881,-53,-116,684,-11,1,-4
882,-32,109,415,-23,-7,-5
883,-53,90,554,4,-10,-4
884,-172,-62,376,-23,26,-2
885,-65,10,314,-41,10,-4
886,31,-26,382,10,2,-8
887,22,-37,521,-30,-12,-7
888,-39,-81,600,-9,-1,-2
889,23,33,636,-16,-8,-12
890,-92,177,550,-13,24,-3
891,-35,-87,243,-9,12,-3
892,-87,-42,512,-7,16,-15
893,-79,-20,361,5,9,-4
894,76,-79,515,-24,-10,-6
895,-37,-37,689,-8,-7,-7
896,31,40,679,-3,-3,-9
897,-41,200,442,-12,15,-10
898,15,-139,335,-2,7,-6
899,-84,-50,459,-7,2,-6
900,-28,24,448,-12,2,3
901,22,-53,426,-14,-7,-7
902,32,-9,639,-27,-9,-8
903,-81,-21,777,0,2,-2
904,70,147,284,-21,-14,-10
905,16,-1,581,32,7,-8
906,-51,-80,419,-48,5,4
907,5,-36,415,-28,-7,1
908,-42,21,382,-8,2,-6
909,57,-29,548,-39,-8,-7
910,-51,0,650,-7,-2,-2
911,11,35,619,-12,-19,-14
912,-31,153,504,-8,2,0
913,55,-136,285,-46,1,1
914,-31,76,570,-11,10,-11
915,-20,-74,300,-17,3,-1
916,12,26,476,-30,-3,-9
917,29,-16,654,-7,-4,-8
918,-83,65,667,-28,-12,-5
919,51,116,285,-26,-13,-7
920,-23,-105,547,-36,0,1
921,20,109,545,-13,24,-7
922,-22,-72,274,-14,4,-1
923,-14,29,449,-10,2,-9
924,45,-13,539,-9,-7,-11
925,-65,32,668,-15,-3,0
926,14,42,350,-19,-16,-12
927,27,42,545,-27,11,-1
928,-30,23,472,-28,14,2
929,62,27,468,-30,3,-12
930,-82,-32,283,-19,4,-5
931,47,0,579,-12,-5,-9
932,-30,-1,553,-18,-9,-6
933,24,44,595,-4,-12,-10
934,8,137,438,-28,13,-3
935,0,-60,377,-33,-1,4
936,-4,87,592,-7,20,-13
937,-20,-64,289,-34,7,-2
938,13,6,455,-1,-1,-9
939,19,4,653,-22,-11,-11
940,-64,66,643,-3,-3,-5
941,64,75,206,-27,-7,-4
942,25,-21,636,-13,-7,-1
943,-55,124,531,-15,18,1
944,26,-105,310,-35,3,-4
945,-27,35,434,12,1,-10
946,42,-17,565,-29,-10,-7
947,-63,64,620,-12,-2,-3
948,19,36,507,-7,-11,-13
949,34,69,492,7,3,1
950,12,-9,306,-15,-2,2
951,-28,71,560,-28,-1,-7
952,-64,-74,281,-3,0,-4
953,46,1,557,-27,-12,-5
954,-25,-9,681,-23,-5,-5
955,-36,144,624,10,-2,-8
956,-22,69,390,-3,10,-9
957,-2,-129,317,2,8,-7
958,-47,50,486,-14,15,-9
959,-48,29,436,-18,11,4
960,20,-32,422,-23,-6,-9
961,35,-36,636,-20,-9,-8
962,-100,61,710,-2,0,-1
963,28,82,330,-45,-15,-11
964,-34,42,520,-2,16,-2
965,-96,96,375,-50,15,5
966,-113,-51,470,-21,-2,-3
967,-6,6,457,-5,1,-7
968,56,-89,509,-31,-9,-10
969,-36,0,504,-12,3,-2
970,-48,72,716,10,-14,-15
971,-35,272,533,5,22,-10
972,-7,11,193,-17,16,-3
973,-121,-37,572,26,22,-16
974,-73,107,284,-65,6,5
975,56,-94,466,-3,-5,-8
976,9,-5,596,6,-8,-8
977,-24,-11,616,-31,-5,-3
978,11,26,336,15,-4,-8
979,64,151,593,2,-3,-5
980,-190,238,513,23,27,-12
981,-28,-43,320,-39,7,-2
982,5,97,408,-16,1,-7
983,62,-36,478,16,-8,-8
984,-105,48,594,-35,-6,3
985,54,-20,447,-1,-11,-15
986,98,20,376,20,15,-9
987,32,67,327,20,22,1
988,-20,65,548,-18,15,-14
989,-98,-23,304,-21,9,-1
990,48,-57,624,-7,-10,-7
991,-23,-33,486,-22,-4,-5
992,11,106,634,12,2,-8
993,-70,180,551,-21,28,-10
994,57,0,310,-39,0,-1
995,-101,110,412,-18,9,0
996,-43,9,336,-26,2,5
997,81,-7,363,-10,-10,-10
998,45,-37,532,-35,-12,-10
999,-89,76,638,-19,3,3
1000,97,-120,166,-32,-26,-14
1001,118,68,442,53,12,-8
1002,-27,118,480,-33,23,-2
1003,-37,9,459,-15,11,0
1004,-111,30,441,-9,1,-5
1005,63,-85,523,-50,-9,-11
1006,-85,-70,373,2,4,4
1007,58,70,643,-9,-29,-18
1008,-12,48,628,-4,8,-5
1009,26,25,381,-29,-2,4
1010,-125,50,628,8,7,-12
1011,-120,24,301,-69,8,7
1012,58,-53,504,1,-2,-10
1013,2,3,428,-4,-16,-8
1014,-67,48,741,-29,2,-1
1015,41,-59,428,-10,13,-20
1016,2,4,550,-12,31,-4
1017,-61,168,395,13,13,-7
1018,-37,-102,279,-16,-4,-7
1019,28,119,308,-1,2,-7
1020,82,-49,543,-26,-1,-13
1021,-141,-46,513,-5,3,3
1022,97,-53,623,7,-15,-22
1023,-92,-20,523,13,60,-15
1024,3,67,220,18,13,8
1025,1,-43,489,15,-12,-19
1026,-68,154,188,20,15,0
1027,69,-45,480,-47,-11,-8
1028,-26,-41,478,-27,2,-5
1029,-21,41,753,13,-2,-10
1030,-11,-102,494,-27,0,-3
1031,35,-68,513,-46,0,1
1032,-61,117,492,-16,52,-23
1033,-86,-119,349,-24,15,9
1034,-9,112,382,-24,-2,-9
1035,63,-30,367,0,0,-12
1036,-97,24,565,-25,3,7
1037,181,-65,513,3,-16,-23
1038,-83,-18,534,-9,46,-11
1039,-87,-76,485,29,40,0
1040,-79,-130,497,37,30,-20
1041,-171,71,404,-21,8,3
1042,75,-86,464,-14,-10,-9
1043,-81,-43,363,-20,-4,-5
1044,48,-8,662,-29,-4,-10
1045,2,-35,580,-9,22,-5
1046,-30,8,318,-58,-4,-4
1047,-25,144,441,-56,51,-15
1048,-120,-26,311,-20,11,10
1049,7,32,448,-35,-15,-14
1050,48,-34,423,-20,-2,-10
1051,-103,36,776,13,4,6
1052,144,-133,427,-56,-30,-20
1053,-106,-97,701,54,14,-6
1054,-71,-72,562,-9,-10,4
1055,-20,-162,427,13,-1,-14
1056,-143,45,455,-1,14,2
1057,84,-70,493,-33,-17,-11
1058,-95,-66,350,-4,-1,2
1059,89,-36,735,-15,-7,-12
1060,-32,-44,679,3,-2,2
1061,59,-115,346,-23,-40,4
1062,-49,66,595,12,-16,-6
1063,-110,-12,292,-22,-10,0
1064,-20,52,402,-3,-6,-12
1065,43,-59,463,-35,-3,-10
1066,-79,108,769,4,0,6
1067,189,-112,338,-24,-31,-17
1068,-42,117,703,22,2,0
1069,-3,187,401,5,-13,3
1070,-6,-69,442,24,2,-13
1071,-97,44,519,-20,9,-2
1072,77,-99,491,-35,-23,-11
1073,-88,-31,394,0,-3,4
1074,119,26,779,-21,-6,-16
1075,-50,-75,709,-6,43,-14
1076,15,-73,294,-35,19,4
1077,3,-72,696,-82,21,-10
1078,-166,-21,537,-41,4,12
1079,43,-79,559,-11,-8,-13
1080,37,-8,432,-24,-8,-12
1081,-82,45,753,22,-4,8
1082,166,-194,408,-32,-16,-22
1083,-102,-69,753,47,39,-11
1084,-89,16,625,1,56,-13
1085,-28,-173,530,-1,35,0
1086,-106,14,525,-22,6,0
1087,91,-65,528,-24,-11,-13
1088,-94,-54,443,5,3,8
1089,115,19,794,4,-18,-15
1090,-110,-72,701,16,30,-13
1091,30,-138,352,7,27,-3
1092,-34,-59,783,-45,48,-14
1093,-157,-29,598,-38,15,13
1094,44,-72,614,6,-8,-11
1095,33,-5,518,-19,-8,-10
1096,-73,78,803,17,10,3
1097,169,-198,427,-32,-5,-16
1098,-97,-9,814,-30,21,-3
1099,-45,146,587,-70,-17,13
1100,-25,-130,606,-64,-32,-3
1101,-67,1,687,-18,9,-8
1102,73,-100,648,-19,-10,-15
1103,-111,-47,551,-27,-3,3
1104,122,31,772,-6,-19,-19
1105,-25,-44,781,2,9,-6
1106,83,63,318,24,16,-8
1107,54,95,771,33,55,-21
1108,-133,-7,635,-20,11,6
1109,51,-68,728,10,-5,-12
1110,32,-57,588,-31,3,-7
1111,-84,5,885,-7,12,1
1112,169,-186,435,-19,-15,-13
1113,0,25,818,-5,-6,3
1114,3,82,414,14,-25,0
1115,-4,-72,723,20,1,-11
1116,-101,111,508,-14,13,-3
1117,90,-52,578,-15,-13,-11
1118,-93,-52,642,-6,-2,5
1119,83,-5,875,-20,-3,-17
1120,-64,-52,817,-5,4,6
1121,77,-90,578,-35,-31,-1
1122,-84,46,920,43,-3,-10
1123,-100,-15,664,-16,-3,4
1124,45,-51,622,-15,-2,-12
1125,38,-20,637,-19,6,-7
1126,-93,44,857,-4,13,1
1127,130,-127,432,-15,-17,-17
1128,-119,59,858,24,3,3
1129,23,89,530,14,5,-8
1130,-28,-50,702,29,21,-13
1131,-33,45,719,-34,2,2
1132,80,-134,694,-3,-9,-12
1133,-88,-25,679,-29,2,2
1134,80,-18,808,-32,-2,-13
1135,8,-167,750,20,30,-10
1136,124,-19,557,-14,9,-8
1137,-64,108,821,-45,44,-14
1138,-37,-49,624,3,14,11
1139,1,18,627,-35,-12,-14
1140,32,-19,634,-3,-13,-11
1141,-99,8,870,5,-6,9
1142,155,-128,541,-25,-22,-20
1143,-191,-1,877,9,9,6
1144,18,18,569,-52,-31,6
1145,-62,-25,718,-20,-8,-10
1146,-37,49,706,-11,3,-2
1147,88,-153,702,-25,-10,-14
1148,-51,-17,744,-7,7,-4
1149,16,13,849,-20,10,-12
1150,4,-194,690,10,23,-7
1151,128,3,617,10,11,-14
1152,-48,116,812,-19,48,-16
1153,-35,-89,663,-15,12,9
1154,-15,55,642,-25,-8,-13
1155,48,-26,609,-14,-15,-9
1156,-100,-18,843,-19,-9,12
1157,170,-108,616,-21,-24,-22
1158,-215,3,929,-6,9,4
1159,14,-3,512,-70,-27,7
1160,-37,1,756,-11,-10,-9
1161,-53,39,727,-9,-3,0
1162,98,-149,689,-34,-8,-11
1163,-47,-13,769,11,14,-4
1164,-6,33,882,-26,10,-10
1165,22,-219,577,2,11,-6
1166,94,14,630,23,8,-11
1167,-49,111,833,0,57,-15
1168,-36,-96,632,-37,12,10
1169,-37,63,612,-4,-4,-10
1170,76,-34,635,-19,-20,-10
1171,-112,-29,777,-29,-7,13
1172,156,-85,660,10,-16,-21
1173,-211,5,928,-18,6,8
1174,24,-47,423,-70,-21,9
1175,-19,15,793,24,-14,-12
1176,-83,45,743,-27,-2,1
1177,94,-129,651,-41,-3,-12
1178,-35,-16,761,7,11,-5
1179,-6,25,958,-28,1,-8
1180,49,-219,503,-27,4,-12
1181,56,29,704,13,26,-8
1182,-31,97,903,-28,42,-8
1183,-25,-108,649,-68,2,4
1184,-47,58,590,28,3,-12
1185,65,-38,700,-31,-17,-12
1186,-104,-28,700,-4,0,7
1187,106,-44,691,21,-9,-22
1188,-164,19,882,10,10,2
1189,53,-45,372,-5,-7,-2
1190,-32,63,837,37,16,-18
1191,-89,46,742,-27,14,7
1192,122,-131,671,-43,-12,-12
1193,-10,-27,733,-13,-11,-4
1194,-12,28,978,-22,-13,0
1195,35,-188,461,-47,-13,-7
1196,-12,23,765,-6,-3,0
1197,-23,86,912,-60,-14,4
1198,-25,-113,707,-32,-8,0
1199,-72,61,575,-8,-9,-11
1200,59,-44,747,-38,-1,-9
1201,-78,-41,664,-7,12,3
1202,1,-6,645,-19,-18,-20
1203,-95,-8,786,-38,38,-3
1204,86,-32,393,-39,1,4
1205,-55,96,816,-3,-2,-10
1206,-111,-11,685,-64,11,8
1207,96,-70,693,16,0,-16
1208,4,-3,697,-5,-5,-8
1209,-56,22,946,-30,6,-3
1210,44,-182,477,0,10,-18
1211,-127,5,849,12,30,-10
1212,-64,92,838,-52,24,-7
1213,-55,-104,712,-15,5,3
1214,0,7,682,-5,-4,-10
1215,65,-77,744,-23,-6,-8
1216,-81,-74,690,21,8,1
1217,7,3,700,-8,-6,-20
1218,-77,-86,744,19,32,-8
1219,121,-25,580,29,20,-7
1220,-54,76,890,-20,29,-13
1221,-74,-29,666,-29,5,8
1222,29,-24,679,20,-7,-14
1223,42,-5,748,-21,-13,-9
1224,-66,60,801,5,5,2
1225,52,-118,380,4,-2,-18
1226,-113,83,807,3,33,-11
1227,-15,66,611,-21,26,-7
1228,-48,-76,717,-22,2,-1
1229,-2,53,683,-19,4,-6
1230,75,-84,676,6,-3,-9
1231,-69,-64,696,-15,-1,1
1232,58,-3,845,-11,-2,-16
1233,-150,-9,759,13,32,-8
1234,6,-75,586,-25,5,-5
1235,-63,65,908,-21,16,-8
1236,-93,-61,733,-11,3,7
1237,69,-64,730,-12,-8,-14
1238,13,-33,753,-2,1,-7
1239,-100,-22,852,3,15,1
1240,66,-153,444,-43,-8,-20
1241,-78,60,830,-25,23,1
1242,-2,26,757,-31,-19,8
1243,-30,-36,824,-30,-4,-8
1244,-103,4,631,-14,19,-3
1245,40,-48,757,-11,-7,-10
1246,-19,-39,732,-26,-7,-2
1247,-68,84,760,-5,-2,-10
1248,-29,-39,511,-35,-2,2
1249,64,27,652,-28,-16,-1
1250,-53,154,831,7,11,-14
1251,-53,-112,680,-17,5,4
1252,13,62,724,-31,-6,-11
1253,58,-13,692,-27,-5,-9
1254,-82,-28,791,-24,-12,10
1255,120,-26,541,-12,-26,-21
1256,-136,127,810,29,24,-8
1257,37,-59,548,-13,17,-1
1258,-47,-10,773,-47,7,-7
1259,-69,29,728,14,-6,1
1260,110,-138,665,-30,-12,-9
1261,-25,-10,793,7,0,-4
1262,-9,8,922,1,11,-10
1263,-53,-43,475,-41,2,-5
1264,-44,-33,727,-28,0,-1
1265,-46,102,904,13,1,-7
1266,-114,-104,613,-52,7,2
1267,34,-65,776,6,3,-11
1268,28,-33,732,-37,-8,-10
1269,-100,-93,722,-30,-6,8
1270,103,-56,704,11,-20,-23
1271,-189,124,873,5,20,-5
1272,19,-45,584,-18,3,-5
1273,-39,23,880,-2,10,-7
1274,-108,-25,814,-24,-3,6
1275,33,-75,697,-20,-8,-10
1276,-16,-22,827,20,-5,-6
1277,-52,-11,903,-37,7,-6
1278,10,-72,385,-17,-2,-8
1279,-84,83,753,0,-8,0
1280,-41,104,917,-48,19,-7
1281,-40,-99,735,2,10,-2
1282,-65,16,695,-12,-8,-8
1283,11,-39,839,-64,-10,-9
1284,-53,-92,656,5,0,5
1285,-1,31,628,21,-19,-21
1286,-83,109,750,-28,32,-5
1287,68,-18,680,-6,0,-4
1288,-69,85,902,17,-6,-13
1289,-90,-49,773,-59,13,8
1290,21,-72,728,21,6,-15
1291,12,-3,806,-14,-7,-8
1292,-77,43,783,-25,-2,0
1293,91,4,318,-37,-21,-13
1294,-57,127,766,29,16,-7
1295,-38,49,775,-30,15,0
1296,-32,-86,826,-17,-5,1
1297,-62,74,645,-9,-6,-7
1298,51,-58,792,-8,-6,-6
1299,-36,-78,676,-7,-4,0
1300,17,78,695,-32,0,-19
1301,-41,141,531,-2,-1,5
1302,75,-79,666,-19,-12,-4
1303,-60,144,910,-44,32,-11
1304,-94,-47,725,-9,-2,8
1305,38,-47,744,-31,-24,-12
1306,52,-17,809,-23,-6,-9
1307,-55,-10,774,0,9,0
1308,94,26,400,-25,-12,-17
1309,-53,161,795,-13,-1,5
1310,17,-27,656,-22,10,-3
1311,-42,-32,860,-51,17,-7
1312,-71,55,675,-25,-2,-1
1313,67,-99,801,-21,-16,-8
1314,-5,-42,761,-41,-13,-3
1315,30,60,774,23,5,-13
1316,8,40,486,-10,10,2
1317,65,-2,703,-62,-17,-2
1318,-65,151,826,-1,33,-14
1319,-69,-140,742,-30,5,6
1320,14,-14,791,-61,-11,-11
1321,40,-16,787,10,-5,-9
1322,-57,-53,752,-36,-4,5
1323,112,27,500,11,-13,-24
1324,-43,154,810,20,9,6
1325,26,-65,590,-80,5,-3
1326,-39,4,878,-19,25,-13
1327,-84,37,715,-2,-6,3
1328,69,-113,767,-83,-21,-10
1329,-3,-12,856,16,0,-8
1330,15,91,856,-3,4,-11
1331,42,-43,344,-38,-9,-2
1332,32,55,748,7,-16,-2
1333,-42,128,887,-45,36,-10
1334,-67,-132,714,-80,2,4
1335,-10,9,774,9,-13,-10
1336,55,-35,829,-50,-19,-10
1337,-57,-85,657,-16,1,3
1338,85,50,626,35,3,-23
1339,-34,185,771,-34,6,7
1340,75,-108,563,-39,-8,-2
1341,-66,78,907,-3,16,-12
1342,-106,14,763,-74,-6,7
1343,71,-111,738,-11,-12,-10
1344,10,-1,852,-1,-14,-7
1345,-9,35,830,-51,6,-3
1346,87,-2,337,5,1,-11
1347,-15,129,791,14,-5,-3
1348,-35,75,852,-73,16,1
1349,-46,-128,822,-9,-8,4
1350,-67,72,718,-18,-18,-10
1351,38,-67,819,-26,-5,-5
1352,-26,-95,662,12,1,0
1353,70,61,667,-49,-5,-18
1354,-44,214,646,-6,8,1
1355,94,-54,691,4,-4,-3
1356,-63,106,900,-28,1,-7
1357,-106,-26,773,-7,-4,10
1358,4,-80,796,7,-13,-15
1359,30,-8,857,-14,-6,-7
1360,-45,-13,750,-12,6,3
1361,129,37,416,-47,-20,-15
1362,-77,214,833,10,29,-8
1363,-7,45,808,7,-4,-1
1364,-46,-68,853,-7,-6,-6
1365,-89,58,744,0,16,-5
1366,12,-91,861,-4,-1,-11
1367,-34,-58,729,-11,-3,1
1368,19,39,734,-6,-20,-9
1369,26,148,515,-23,6,-1
1370,48,41,776,-29,8,-9
1371,-67,130,888,-12,30,-17
1372,-96,-59,792,15,18,4
1373,-8,-42,848,-49,-5,-12
1374,3,-41,841,-27,3,-10
1375,-90,-104,802,11,6,4
1376,137,16,522,-5,-16,-22
1377,-112,219,712,10,-5,5
1378,37,-12,785,-44,7,0
1379,-43,2,867,-86,14,-8
1380,-126,45,780,14,-14,2
1381,21,-161,880,-68,-27,-7
1382,-16,-26,837,-5,-7,-7
1383,-23,9,847,4,17,-12
1384,-4,60,402,-59,4,-4
1385,31,32,729,37,5,-12
1386,-46,83,922,10,-4,1
1387,-103,-79,702,-64,-5,6
1388,-51,-30,905,63,3,-17
1389,4,-68,900,-32,-6,-8
1390,-76,-101,714,-16,-7,9
1391,81,6,735,-3,-25,-17
1392,-65,170,696,-38,29,4
1393,55,-139,602,-46,8,-4
1394,-33,0,815,26,22,-19
1395,-149,14,897,-43,13,6
1396,21,-150,804,-49,-2,-11
1397,-29,-8,857,7,-1,-7
1398,-43,-32,963,-25,6,-6
1399,56,-58,391,2,-11,-15
1400,65,45,756,57,2,-8
1401,-33,38,886,-78,0,7
1402,-27,-161,710,-10,-18,5
1403,-101,21,869,19,-10,-12
1404,12,-41,858,-42,-8,-3
1405,-35,-86,690,24,-2,3
1406,92,38,758,-45,-29,-15
1407,-26,66,705,-50,18,5
1408,105,-104,613,-19,0,-6
1409,-52,70,896,-27,30,-20
1410,-98,-18,833,-53,16,5
1411,0,-92,866,-22,-11,-10
1412,24,6,893,-43,-16,-11
1413,-35,5,746,-10,15,-2
1414,120,-17,502,-7,2,-18
1415,-26,146,840,-13,23,-9
1416,-13,41,853,21,4,-4
1417,-40,-92,858,4,2,-8
1418,-87,89,828,-7,17,-5
1419,17,-98,904,4,6,-10
1420,-33,-64,758,-25,-5,-1
1421,62,27,782,22,-7,-14
1422,9,75,507,12,5,-3
1423,57,-25,764,-23,-10,-5
1424,-56,84,871,-12,-9,3
1425,-90,-72,821,4,-4,6
1426,-12,-47,931,-26,-14,-14
1427,-11,-52,894,19,-2,-9
1428,-96,-57,846,-15,-6,10
1429,109,-27,661,-14,-30,-18
1430,-32,81,693,13,5,5
1431,25,-92,723,-75,-1,4
1432,-21,-42,754,-56,6,-6
1433,-129,49,893,17,-19,1
1434,23,-123,881,-70,-24,-6
1435,-19,-8,841,21,-6,-8
1436,-15,96,887,-14,-13,0
1437,47,-120,456,-74,-13,-3
1438,80,-18,750,22,-2,-6
1439,-53,111,945,-38,22,-5
1440,-49,-113,763,-89,-3,4
1441,-55,39,949,17,-16,-11
1442,34,-29,928,-42,-22,-7
1443,-64,-121,621,-23,-12,8
1444,127,90,680,-4,-26,-17
1445,-74,124,774,-47,22,7
1446,87,-90,682,-39,-3,1
1447,-55,29,900,-4,-1,-11
1448,-110,20,886,-88,-11,6
1449,24,-136,905,-7,-15,-9
1450,-6,-15,876,4,-13,-8
1451,-65,9,932,-42,-16,9
1452,50,-107,470,-11,-28,-10
1453,48,53,733,-2,7,-2
1454,-49,42,849,-59,1,11
1455,-4,-133,716,5,-22,0
1456,-100,64,954,-16,-11,-9
1457,17,-54,911,-15,-5,-7
1458,-39,-89,694,3,0,0
1459,76,99,782,2,-19,-16
1460,-54,-20,665,-11,4,-5
1461,87,-124,736,-9,-7,-4
1462,-72,51,915,-14,4,-10
1463,-92,-13,877,11,9,4
1464,-6,-49,950,-12,1,-11
1465,25,-29,901,-27,3,-11
1466,-75,-56,810,9,19,2
1467,144,16,603,-39,-5,-21
1468,-63,65,724,20,24,-3
1469,2,-69,755,-2,25,-4
1470,4,-88,714,-52,13,-16
1471,-137,59,922,-17,10,0
1472,32,-111,950,-25,-12,-8
1473,-13,-27,800,-29,-16,-3
1474,-2,92,865,16,-17,-4
1475,2,-99,576,-47,-2,-1
1476,79,-66,715,1,7,-5
1477,-69,67,900,14,-10,4
1478,-45,-106,791,-67,-10,6
1479,-50,35,1001,47,0,-16
1480,31,-34,940,-19,-2,-14
1481,-81,-117,689,-35,1,2
1482,137,62,728,33,5,-25
1483,-60,78,775,-1,30,-2
1484,56,-152,585,-68,3,-6
1485,-23,-6,782,32,28,-19
1486,-123,34,935,-57,4,5
1487,20,-113,904,-48,-9,-7
1488,-8,8,841,34,-10,-10
1489,-48,76,868,-45,-15,6
1490,65,-136,479,-5,-24,-13
1491,30,-40,810,25,10,-8
1492,-55,19,919,-43,11,0
1493,-23,-163,816,26,5,-8
1494,-91,98,938,-14,11,-6
1495,23,-75,950,-41,-3,-9
1496,-34,-102,685,2,-3,5
1497,59,66,840,-53,-12,-15
1498,-57,-19,679,-2,16,7
1499,82,-107,596,13,-8,-1
1500,-46,29,811,-33,-5,-6
1501,-83,-6,839,16,8,8
1502,-14,-61,980,-7,0,-12
1503,35,0,904,-40,0,-15
1504,-83,-13,733,18,15,7
1505,154,-64,613,-74,-23,-18
1506,-93,28,848,5,13,0
1507,18,-29,738,9,-2,9
1508,-10,-101,746,-55,-18,-7
1509,-133,66,901,44,10,-1
1510,24,-136,983,-19,-3,-11
1511,-14,-35,781,-64,2,-7
1512,-12,113,885,30,15,-9
1513,-16,-107,572,-52,-11,-1
1514,74,-88,652,4,-2,-5
1515,-75,21,913,54,4,-2
1516,-36,-134,776,-74,3,7
1517,-64,38,1015,41,10,-12
1518,35,-30,922,-13,-3,-11
1519,-99,-81,681,-74,-5,14
1520,107,50,797,30,-25,-21
1521,-83,-47,711,-33,23,-3
1522,32,-148,505,-27,8,-5
1523,-47,-22,832,68,34,-24
1524,-111,68,904,-87,4,8
1525,27,-106,943,-11,-8,-7
1526,19,-1,859,19,-12,-10
1527,-55,57,900,-30,6,-3
1528,146,-102,435,8,-4,-13
1529,-42,-17,716,2,-1,-3
1530,-78,18,739,-61,-6,12
1531,22,-143,654,18,-19,-6
1532,-124,107,936,-2,10,-6
1533,46,-62,947,-31,-2,-11
1534,-60,-114,667,0,-8,5
1535,70,77,815,-28,-25,-14
1536,-46,-62,608,-9,22,-7
1537,77,-147,611,-35,-4,-2
1538,-93,90,707,-71,6,-6
1539,-73,-62,751,3,-6,10
1540,-25,-24,973,-38,-12,-13
1541,47,-2,869,-27,3,-14
1542,-125,-51,723,12,-5,15
1543,184,-34,626,-62,-37,-21
1544,-128,-26,704,3,43,-8
1545,3,-93,555,-61,-13,13
1546,-31,-61,663,-72,-23,-8
1547,-140,115,855,44,16,2
1548,47,-131,929,-60,-12,-9
1549,-8,-21,833,7,-9,-7
1550,-28,108,897,16,2,-9
1551,90,-137,365,-60,-11,-5
1552,-55,-89,644,21,-25,-3
1553,-76,39,767,32,33,-7
1554,-1,-144,679,-27,7,-7
1555,-102,102,900,43,3,-7
1556,73,-65,947,-78,-9,-12
1557,-79,-75,636,-13,1,9
1558,95,78,787,32,-28,-17
1559,-161,-15,630,-101,35,-5
1560,5,-109,409,-14,-9,6
1561,-83,-33,971,16,-21,-9
1562,-101,-12,834,-89,-10,10
1563,-11,-67,979,42,0,-11
1564,27,-21,795,-49,-7,-16
1565,-123,29,763,-8,5,14
1566,139,-145,572,-7,-17,-22
1567,-75,19,765,-89,48,-9
1568,9,-98,519,35,-6,12
1569,-109,-206,621,-2,-22,-17
1570,-169,94,828,-38,-8,3
1571,69,-142,909,4,-8,-13
1572,-37,-30,765,-73,-5,-3
1573,-9,93,822,50,-7,-10
1574,47,-130,351,-18,-11,-2
1575,-80,-125,539,-42,-42,-1
1576,-106,104,883,8,50,-12
1577,-7,-143,731,-112,6,7
1578,-106,77,850,27,16,-9
1579,74,-72,860,-9,-6,-16
1580,-144,-83,608,-52,-8,14
1581,133,15,704,54,-29,-22
1582,-124,47,771,-86,22,2
1583,103,-133,418,-77,-9,6
1584,-216,-18,612,31,46,-24
1585,-115,19,669,-106,7,10
1586,4,-86,937,44,13,-13
1587,43,-7,819,-36,-3,-17
1588,-114,34,793,-28,-11,12
1589,146,-124,498,26,-30,-21
1590,-212,134,454,-59,-22,4
1591,-10,-18,448,-38,-5,11
1592,-13,-185,616,-73,-15,-16
1593,-164,105,804,-34,2,7
1594,93,-153,830,12,-15,-16
1595,-56,-18,781,-57,-9,-3
1596,-5,79,856,3,10,-16
1597,18,-123,320,10,22,-10
1598,-163,-69,430,0,22,-13
1599,-113,10,873,103,45,-6
1600,-11,-137,583,-67,-13,-5
1601,-123,41,875,-13,-2,-4
1602,92,-56,770,-20,-8,-15
1603,-134,-39,685,-57,1,12
1604,118,33,722,67,-11,-24
1605,-145,-72,540,-30,-7,6
1606,2,-117,329,-11,-46,6
1607,-89,29,894,55,-13,-20
1608,-115,9,689,-100,8,13
1609,-9,-59,883,37,-7,-15
1610,45,5,771,-43,-16,-14
1611,-112,38,746,-7,-6,13
1612,160,-88,541,2,-22,-21
1613,-204,-86,510,-59,-22,5
1614,-42,1,538,-20,-33,12
1615,47,-90,839,-79,-25,-16
1616,-212,122,748,16,25,4
1617,88,-116,791,7,-10,-15
1618,-54,-10,834,-50,-10,-4
1619,6,116,825,37,-17,-5
1620,41,-175,324,-57,-12,-4
1621,-112,-103,487,-6,-38,-2
1622,-109,119,870,-5,-20,0
1623,33,-133,694,-83,-18,-1
1624,-156,97,776,49,10,-8
1625,100,-63,755,-59,-19,-17
1626,-125,-48,749,-15,5,7
1627,109,51,744,37,-11,-25
1628,-113,-67,516,-31,2,4
1629,-27,-134,362,41,-28,-3
1630,-105,35,830,50,7,-15
1631,-59,-22,676,-58,-12,7
1632,-28,-42,857,2,-7,-10
1633,59,-18,715,-59,-10,-12
1634,-139,6,835,10,16,7
1635,176,-44,617,-29,-12,-25
1636,-295,2,492,28,49,-11
1637,-51,-75,360,28,35,4
1638,36,-99,675,-30,26,-21
1639,-166,86,801,28,10,10
1640,73,-131,719,-39,-13,-11
1641,-30,-9,826,-8,2,-4
1642,-14,67,908,13,-3,-1
1643,68,-85,309,-74,-8,-9
1644,-239,9,473,-13,-2,-5
1645,-106,54,693,-99,14,-1
1646,31,-184,484,-70,-17,0
1647,-117,81,786,41,16,-6
1648,110,-102,670,-69,-20,-15
1649,-122,-74,828,30,13,4
1650,100,54,790,-4,-14,-21
1651,-85,48,459,-4,-3,1
1652,-16,-15,388,40,-22,-4
1653,-167,-123,686,19,-14,-10
1654,-29,-124,482,-17,-5,1
1655,-42,-1,850,-23,0,-9
1656,68,-33,664,-39,-10,-14
1657,-142,-62,789,9,8,9
1658,185,-20,674,-49,-16,-24
1659,-151,160,659,39,60,-10
1660,14,-93,228,-17,24,0
1661,-181,-129,570,9,37,-18
1662,-140,61,633,6,11,10
1663,62,-90,842,-54,-18,-12
1664,-20,-8,782,25,2,-7
1665,-49,51,832,-28,-1,4
1666,110,-90,445,-51,-12,-12
1667,-47,70,650,-16,15,-6
1668,-141,79,508,-111,22,1
1669,-90,-156,538,-27,-8,-3
1670,-158,130,632,-3,16,0
1671,96,-90,800,-33,-20,-16
1672,-114,-43,799,15,7,3
1673,91,70,743,-29,-23,-11
1674,-63,-20,585,-15,-5,1
1675,93,-25,585,-55,-29,0
1676,-241,203,567,-58,-17,-3
1677,-50,-108,543,-15,-13,5
1678,-90,76,798,-33,3,-12
1679,66,-42,764,6,-15,-16
1680,-153,-56,730,-31,-1,12
1681,164,0,703,-10,-31,-25
1682,-110,118,754,5,1,5
1683,54,-68,281,-100,-41,11
1684,-175,64,616,31,-32,-19
1685,-126,57,614,-56,3,14
1686,23,-47,944,-29,-5,-14
1687,1,0,765,5,-12,-12
1688,-82,44,796,-45,-18,7
1689,126,-89,526,0,-26,-21
1690,-61,68,699,-10,-11,0
1691,-94,80,466,-77,-23,14
1692,-76,-91,609,-20,-30,-13
1693,-173,130,658,-44,8,5
1694,82,-97,882,-14,-12,-17
1695,-78,-31,817,-27,2,0
1696,58,56,776,-15,-20,-8
1697,-43,-74,550,-26,3,-6
1698,68,-6,595,-80,-14,-2
1699,-178,121,630,-31,33,-7
1700,-50,-123,513,-66,-17,4
1701,-110,69,776,-1,3,-9
1702,89,-69,784,6,-3,-18
1703,-152,-56,736,-47,9,8
1704,150,13,709,15,-13,-23
1705,-143,86,692,-16,48,-8
1706,102,-120,329,-30,15,-2
1707,-179,-80,628,81,52,-21
1708,-99,17,616,-74,-2,4
1709,-7,-67,957,21,0,-9
1710,36,-20,778,-1,-9,-11
1711,-100,9,860,-27,4,6
1712,136,-106,545,25,-9,-17
1713,-148,108,536,8,-12,3
1714,-3,-33,470,-15,-26,12
1715,1,-201,631,-30,-20,-13
1716,-143,114,748,-48,0,5
1717,81,-127,848,-1,-15,-14
1718,-56,-23,821,-37,-3,-1
1719,4,44,888,-3,0,-9
1720,-8,-139,372,-24,20,-12
1721,-125,-33,466,-33,17,-10
1722,-95,12,853,56,51,-5
1723,4,-129,657,-44,-4,-8
1724,-112,60,908,10,12,-4
1725,83,-60,794,-12,-9,-12
1726,-133,-44,711,-39,-2,13
1727,109,0,740,33,-23,-20
1728,-121,-62,596,-63,18,1
1729,68,-111,433,-58,-12,3
1730,-86,38,840,22,45,-21
1731,-91,15,745,-78,5,10
1732,-22,-47,985,25,4,-12
1733,36,-25,813,-35,-13,-14
1734,-102,30,776,-5,-2,7
1735,164,-84,590,9,-14,-19
1736,-85,62,775,-31,-9,6
1737,-57,23,471,-12,0,5
1738,-82,-80,619,-57,3,-14
1739,-159,123,702,-28,5,6
1740,71,-134,933,4,-14,-14
1741,-44,-31,836,-43,-7,-5
1742,7,63,878,28,-2,-11
1743,2,-134,388,-7,-6,-3
1744,-41,34,483,-8,-30,-3
1745,-28,51,795,14,8,0
1746,12,-181,600,-101,-4,6
1747,-114,65,877,35,-1,-6
1748,88,-63,813,-30,-21,-15
1749,-126,-39,727,-36,2,6
1750,106,0,750,48,-7,-27
1751,-146,-67,592,-29,3,6
1752,32,-96,392,-4,-29,3
1753,-90,23,962,6,5,-15
1754,-91,6,797,-84,-2,14
1755,-23,-57,982,20,-7,-13
1756,39,-20,816,-55,-17,-13
1757,-108,25,784,4,5,6
1758,182,-83,587,5,-12,-20
1759,-93,57,796,-21,-12,6
1760,-52,24,499,0,-1,4
1761,-77,-77,626,-80,0,-14
1762,-154,120,720,-27,8,6
1763,65,-136,944,-8,-12,-13
1764,-36,-32,835,-46,-12,-5
1765,1,66,899,34,-10,-3
1766,6,-139,389,-51,3,-6
1767,-73,11,466,-72,-22,-1
1768,-74,30,843,27,48,-15
1769,10,-167,671,-86,-3,-2
1770,-118,58,933,27,21,-8
1771,80,-53,852,-16,-7,-14
1772,-128,-67,673,-45,-5,10
1773,111,14,736,34,-17,-19
1774,-108,-37,674,-68,47,-7
1775,72,-149,442,-27,8,0
1776,-91,6,747,76,20,-16
1777,-87,14,709,-63,-7,5
1778,-20,-59,1013,37,1,-10
1779,43,-27,838,-37,-3,-11
1780,-112,54,790,-25,13,4
1781,136,-123,552,18,-11,-21
1782,-106,76,610,18,14,-5
1783,40,-9,491,18,-1,10
1784,-7,-187,677,-46,-14,-13
1785,-155,107,827,-32,-4,5
1786,73,-117,922,-1,-18,-13
1787,-41,-29,805,-42,-4,-4
1788,-3,82,841,20,-6,-9
1789,11,-124,379,-27,-3,-3
1790,-6,-112,590,-56,-30,0
1791,-92,85,908,5,42,-14
1792,-5,-128,753,-86,3,1
1793,-107,64,871,25,20,-10
1794,71,-72,900,-12,-11,-15
1795,-138,-65,648,-45,-8,11
1796,133,17,735,24,-19,-21
1797,-124,13,754,-59,44,-9
1798,123,-127,427,-41,1,1
1799,-135,-50,686,95,18,-18
1800,-109,4,727,-69,-5,7
1801,-5,-73,975,31,0,-12
1802,44,-3,827,-24,-2,-12
1803,-108,28,820,-34,13,2
1804,152,-157,492,32,-7,-20
1805,-188,-26,577,23,17,-5
1806,-52,23,628,3,-3,10
1807,-5,-141,914,-45,-19,-13
1808,-165,116,826,-47,-7,6
1809,61,-122,955,2,-20,-13
1810,-44,-33,817,-47,-6,-3
1811,33,75,814,15,-7,-10
1812,8,-53,534,-9,0,-2
1813,53,-64,733,-53,-32,0
1814,-154,118,707,-2,31,-13
1815,-57,-137,554,-99,-5,4
1816,-99,54,850,4,15,-8
1817,94,-56,866,-4,-10,-15
1818,-138,-64,742,-49,-9,11
1819,139,8,733,32,-23,-23
1820,-182,22,585,-61,43,-6
1821,27,-131,319,-68,-1,2
1822,-76,-56,892,96,33,-21
1823,-120,10,812,-79,1,7
1824,8,-78,977,25,2,-11
1825,23,-2,800,-7,-2,-10
1826,-100,36,759,-52,9,6
1827,148,-125,490,32,-5,-20
1828,-80,-42,737,-9,38,-10
1829,-73,-11,560,14,4,11
1830,-14,-106,717,22,-7,-15
1831,-161,125,745,-44,-2,5
1832,68,-128,979,16,-13,-13
1833,-46,-38,797,-30,1,-1
1834,17,89,803,-9,9,-15
1835,-17,-99,464,38,10,-3
1836,19,2,467,-3,-21,-7
1837,-27,27,779,9,-10,4
1838,-19,-169,583,-87,-18,3
1839,-111,38,905,-1,-3,-7
1840,88,-39,814,-3,-17,-17
1841,-146,-67,686,-44,-6,9
1842,121,21,706,35,-13,-27
1843,-141,-54,594,-17,4,7
1844,40,-99,414,-65,-26,6
1845,-58,4,964,15,5,-19
1846,-122,27,794,-106,3,13
1847,4,-80,983,15,5,-12
1848,20,-12,812,-11,-11,-16
1849,-97,55,803,-27,-12,9
1850,152,-121,527,14,-19,-19
1851,-70,34,803,-60,-1,1
1852,-54,15,559,-49,18,-3
1853,-86,-134,582,4,4,-18
1854,-160,109,745,-69,10,1
1855,71,-126,938,21,1,-15
1856,-49,-36,816,-33,-9,-3
1857,31,59,853,-7,-22,-6
1858,-8,-96,445,-12,8,-7
1859,-73,-18,418,-112,-7,-3
1860,-97,21,858,26,59,-16
1861,-16,-147,650,-25,4,0
1862,-105,42,939,-28,6,-8
1863,80,-40,825,13,-1,-15
1864,-138,-70,676,-64,0,13
1865,118,6,722,8,-23,-21
1866,-104,-42,653,-24,43,-8
1867,76,-156,407,-77,0,2
1868,-57,5,808,98,34,-20
1869,-112,35,720,-58,10,8
1870,6,-83,1003,12,-3,-9
1871,23,-17,819,14,0,-8
1872,-100,68,798,-58,12,6
1873,126,-145,488,21,-1,-18
1874,-69,58,670,3,34,-10
1875,10,-20,573,-2,-4,10
1876,-32,-176,625,34,-7,-14
1877,-154,105,821,-40,2,4
1878,72,-108,920,3,-15,-13
1879,-61,-30,799,-18,-1,1
1880,28,48,834,-16,4,-14
1881,-4,-139,471,38,13,-3
1882,-36,-78,532,-8,-15,-4
1883,-107,93,939,2,-6,-1
1884,-10,-127,795,-70,-13,4
1885,-104,41,932,-17,2,-8
1886,65,-59,872,6,-12,-16
1887,-138,-66,693,-47,-9,12
1888,153,-2,729,17,-27,-24
1889,-96,66,852,-24,15,4
1890,75,-135,419,-94,-9,-1
1891,-135,-2,665,49,32,-23
1892,-111,31,717,-72,9,9
1893,2,-87,971,-3,5,-10
1894,35,-14,843,11,0,-11
1895,-99,46,877,-60,0,6
1896,146,-179,448,10,-12,-18
1897,-162,17,540,-19,36,-10
1898,-69,20,717,-11,7,10
1899,-4,-169,863,56,-2,-16
1900,-146,106,889,-48,-2,3
1901,62,-107,939,-2,-12,-12
1902,-72,-55,793,-8,5,0
1903,56,73,774,-23,-4,-16
1904,-1,-40,579,53,9,-2
1905,57,-89,743,-20,-21,-2
1906,-158,143,688,-25,17,-9
1907,-44,-114,611,-60,-10,4
1908,-82,37,911,-44,3,-10
1909,75,-46,878,15,-9,-16
1910,-142,-62,785,-41,-4,13
1911,168,-23,733,-2,-26,-21
1912,-168,47,596,-11,45,-5
1913,8,-127,338,-94,-4,5
1914,-70,-77,907,81,20,-22
1915,-123,41,846,-34,10,8
1916,20,-86,961,-28,-8,-12
1917,11,-14,826,26,1,-11
1918,-82,63,815,-57,7,-1
1919,150,-119,463,14,-7,-18
1920,-46,-30,811,65,11,-7
1921,-94,90,625,-75,2,7
1922,-52,-140,655,-1,-19,-10
1923,-141,114,779,-67,3,-1
1924,80,-105,933,-10,-11,-15
1925,-74,-47,808,-5,-5,2
1926,50,52,823,-31,-23,-9
1927,-40,-77,513,-4,17,-4
1928,-13,-58,461,-80,-7,-5
1929,-115,10,875,3,36,-16
1930,-41,-135,759,28,13,2
1931,-73,24,977,-40,-2,-7
1932,54,-25,830,18,-1,-13
1933,-130,-68,689,-31,10,9
1934,162,-8,702,-17,-7,-26
1935,-102,17,837,66,20,0
1936,32,-99,437,-59,-9,6
1937,-98,11,694,13,-11,-14
1938,-125,62,740,-55,-4,7
1939,23,-94,974,-50,-5,-10
1940,28,-13,872,32,-4,-10
1941,-71,56,929,-46,-5,7
1942,117,-177,424,-25,-12,-15
1943,-125,35,526,-6,24,-8
1944,-82,21,772,-51,5,5
1945,4,-193,820,51,6,-14
1946,-152,103,888,-18,5,0
1947,62,-94,931,-40,-14,-12
1948,-90,-65,759,20,5,3
1949,84,75,796,-33,-14,-17
1950,-18,-14,642,23,2,4
1951,58,-125,740,-28,-21,-5
1952,-147,105,647,-64,39,-19
1953,-54,-99,674,22,12,8
1954,-54,13,926,-50,-2,-9
1955,62,-34,855,14,-3,-12
1956,-136,-38,799,-13,13,7
1957,183,-37,671,-42,-12,-24
1958,-172,-41,633,76,32,-7
1959,-10,-64,481,-47,-1,6
1960,-45,-66,973,2,-10,-11
1961,-121,71,865,-15,-4,7
1962,20,-110,956,-67,-12,-10
1963,-2,-23,865,34,0,-9
1964,-42,75,851,-30,1,2
1965,86,-159,468,-47,-9,-15
1966,-10,-12,774,37,29,-12
1967,-35,38,722,-55,-1,13
1968,-34,-190,664,23,-16,-9
1969,-127,95,870,-2,3,-3
1970,71,-67,902,-68,-13,-11
1971,-94,-79,743,24,2,5
1972,81,45,784,-20,-26,-15
1973,-56,-74,573,-40,13,0
1974,67,-118,593,-9,-10,-3
1975,-64,14,732,-31,17,-9
1976,-53,-63,748,17,12,1
1977,-47,-8,1008,-10,-2,-9
1978,67,-42,874,-47,-10,-14
1979,-144,-22,819,31,5,10
1980,172,-83,695,-49,-30,-22
1981,-145,60,601,-2,17,4
1982,-8,-77,475,-28,0,2
1983,-21,-133,879,-18,21,-20
1984,-135,73,857,43,22,5
1985,28,-116,951,-66,-15,-10
1986,-23,-13,883,-3,-2,-7
1987,-6,85,870,24,-4,-3
1988,87,-131,504,-60,-9,-6
1989,-22,-36,850,33,-6,-3
1990,-65,60,740,-18,24,-5
1991,-37,-167,648,-38,10,-6
1992,-113,82,859,56,14,-7
1993,64,-69,908,-83,-17,-12
1994,-83,-69,712,16,1,6
1995,98,28,777,23,-16,-18
1996,-58,-37,641,-76,11,4
1997,63,-133,537,10,-15,-1
1998,-63,2,786,-5,22,-13
1999,-63,-26,775,-24,10,3
2000,-35,-26,1030,18,2,-10
2001,61,-33,878,-65,-12,-12
2002,-116,5,837,29,3,11
2003,143,-124,648,-30,-24,-19
2004,-138,74,587,-50,24,-5
2005,-13,-21,630,16,-2,9
2006,-15,-134,928,-39,-15,-12
2007,-146,89,885,-8,3,0
2008,43,-122,987,-18,-7,-11
2009,-23,-33,860,-41,-7,-5
2010,-13,108,867,20,5,-5
2011,9,-149,518,-59,-4,-10
2012,24,-43,674,21,12,-10
2013,-7,79,853,-8,16,0
2014,-8,-161,694,-102,-16,1
2015,-101,43,964,49,6,-9
2016,59,-52,910,-41,-13,-12
2017,-106,-71,645,-20,4,4
2018,131,24,755,34,-4,-26
2019,-85,27,855,-50,13,7
2020,94,-144,609,9,-11,-4
2021,-92,29,705,33,31,-20
2022,-94,0,803,-71,5,8
2023,-3,-65,1011,34,1,-9
2024,36,-9,868,-45,-12,-11
2025,-99,10,775,-14,-1,11
2026,158,-87,539,13,-17,-18
2027,-83,-38,768,-42,26,-7
2028,-24,24,665,6,3,12
2029,-3,-109,686,-38,-16,-11
2030,-130,96,848,-35,6,0
2031,52,-98,1013,21,-3,-13
2032,-33,-43,838,-38,-5,-2
2033,24,56,886,15,0,-14
2034,28,-93,534,12,9,-2
2035,45,-65,695,-50,-10,-4
2036,-70,32,786,46,27,-10
2037,-20,-103,735,-4,6,0
2038,-73,29,1009,-30,-3,-8
2039,57,-39,949,13,-6,-13
2040,-116,-73,785,-53,-2,9
2041,147,9,788,12,-13,-23
2042,-71,-24,726,7,25,-3
2043,47,-105,511,-66,3,-4
2044,-47,-36,882,41,22,-20
2045,-100,46,866,-47,-1,6
2046,14,-87,1042,-20,-7,-9
2047,23,-21,894,26,-1,-11
2048,-62,45,963,-53,-2,3
2049,120,-186,519,-7,-14,-16
2050,-12,21,696,21,18,-7
2051,-56,22,815,-81,18,-9
2052,0,-138,844,29,8,-6
2053,-115,88,945,-45,-9,-2
2054,47,-84,987,-26,-10,-11
2055,-58,-82,832,8,2,2
2056,65,67,862,-38,-8,-15
2057,-12,-61,674,27,14,-2
2058,77,-59,655,-2,-2,-6
2059,-59,31,793,-40,15,-10
2060,-58,-56,832,35,13,0
2061,-30,-12,1064,-46,-2,-9
2062,49,-32,913,-3,-3,-10
2063,-114,-30,855,11,8,4
2064,183,-19,672,-47,-16,-20
2065,-95,34,776,36,11,0
2066,23,-61,673,-27,-6,1
2067,-16,-47,751,-38,7,-11
2068,-103,72,893,31,-1,3
2069,28,-100,1016,-64,-17,-9
2070,-4,-22,886,-10,-6,-5
2071,3,80,896,16,8,-6
2072,56,-72,553,-59,-5,-8
2073,-28,-39,893,44,11,-6
2074,-5,75,878,9,12,2
2075,-28,-125,728,-56,-7,0
2076,-82,35,983,33,8,-7
2077,33,-57,971,-43,-16,-10
2078,-78,-42,718,-21,-2,8
2079,88,14,849,24,-11,-18
2080,-61,-26,802,-51,21,0
2081,84,-90,628,-2,1,1
2082,-76,4,943,22,5,-9
2083,-100,1,901,-59,4,9
2084,-3,-80,1060,33,-2,-10
2085,27,-26,896,-30,-13,-9
2086,-72,14,913,-28,3,1
2087,150,-47,566,18,-7,-12
2088,-39,51,845,-6,9,-2
2089,-30,41,818,-13,15,-2
2090,-20,-111,766,-7,6,-7
2091,-87,64,967,-51,-1,-3
2092,33,-73,974,4,-1,-10
2093,-48,-56,822,-24,-4,0
2094,50,52,874,-13,-9,-11
2095,0,-74,696,2,15,-8
2096,63,-71,804,-27,4,-2
2097,-76,68,913,-25,6,-3
2098,-71,-55,884,9,-1,2
2099,-22,-15,1024,-44,-8,-9
2100,30,-42,925,-13,-1,-8
2101,-84,-37,882,-9,4,3
2102,142,-10,683,-26,-14,-18
2103,-94,131,879,-2,21,-2
2104,18,-20,850,-25,6,3
2105,-42,-26,895,-54,1,-6
2106,-104,50,869,16,0,-1
2107,25,-114,1009,-40,-7,-9
2108,-14,-28,921,2,4,-7
2109,-11,-2,924,17,-4,-5
2110,21,0,580,-52,-5,-8
2111,10,16,860,34,10,-9
2112,-33,76,936,-6,1,-4
2113,-69,-82,787,-40,-1,3
2114,-43,11,957,26,1,-11
2115,18,-71,888,-43,-1,-9
2116,-80,-85,829,-1,-1,7
2117,101,-62,769,10,-19,-18
2118,-113,157,900,-6,24,-5
2119,41,-62,671,-13,8,0
2120,-41,10,914,-2,-8,-7
2121,-118,19,877,-44,-2,4
2122,15,-88,856,-10,-4,-11
2123,-10,-34,883,2,4,-6
2124,-30,-18,943,-17,-1,-7
2125,22,-75,523,-32,-5,-4
2126,-57,82,848,8,-8,-2
2127,-31,106,933,-28,11,-7
2128,-40,-89,794,-9,3,-3
2129,-88,45,759,3,-4,-9
2130,22,-74,826,-48,-8,-9
2131,-57,-46,757,-4,0,5
2132,8,2,674,11,-15,-18
2133,-56,17,826,-27,4,3
2134,75,-37,579,-13,-16,-1
2135,-55,98,903,22,12,-14
2136,-94,1,702,-38,12,6
2137,24,-42,806,-10,-4,-12
2138,-3,-13,825,-28,-8,-5
2139,-41,26,932,-19,-6,1
2140,49,-148,527,-13,-10,-10
2141,-66,9,864,-23,2,-3
2142,-27,54,846,-54,-4,5
2143,-59,-91,706,-26,-16,-2
2144,-15,2,736,-24,-4,-10
2145,53,-120,737,-8,0,-9
2146,-73,-30,823,-3,7,-1
2147,48,6,780,-24,-10,-17
2148,-46,-75,835,-5,18,-2
2149,130,-42,523,19,12,-8
2150,-43,87,869,36,28,-16
2151,-83,-4,702,-44,-3,5
2152,1,-8,791,15,-4,-12
2153,13,-26,795,-30,1,-8
2154,-47,-2,919,-23,2,-3
2155,85,-178,599,-7,-8,-13
2156,-118,-13,929,-28,15,-7
2157,-46,61,806,-4,28,-13
2158,-26,-121,741,21,27,-3
2159,-72,18,686,-45,-3,-3
2160,67,-94,713,4,-4,-11
2161,-78,-34,801,-17,4,3
2162,111,17,826,-41,-11,-17
2163,-47,-1,805,9,22,-4
2164,74,-6,462,0,1,-5
2165,2,94,854,8,21,-14
2166,-101,-6,681,-6,6,4
2167,16,-66,819,-7,0,-11
2168,15,-46,731,-21,-4,-6
2169,-50,35,993,1,6,-1
2170,125,-129,562,-24,-6,-12
2171,4,30,874,10,6,0
2172,-1,72,514,-24,-14,9
2173,-21,-75,700,-43,-18,-4
2174,-102,98,700,-12,9,-6
2175,49,-87,705,-34,-12,-13
2176,-89,-31,843,-17,-5,2
2177,108,-15,857,-8,-16,-19
2178,-31,-67,942,-9,19,-7
2179,112,-58,474,12,9,-6
2180,-55,96,787,1,17,-14
2181,-77,-4,662,1,8,1
2182,-10,-13,748,-3,3,-11
2183,17,-44,738,-50,-8,-7
2184,-62,-12,978,24,-5,7
2185,107,-128,664,-29,-16,-18
2186,-11,17,918,-4,29,-5
2187,3,16,587,9,36,-11
2188,-4,-68,790,-5,22,-5
2189,-113,91,612,-24,2,-1
2190,59,-81,707,-16,-9,-13
2191,-88,-38,820,-34,-5,5
2192,97,-29,884,11,-17,-14
2193,-32,-48,961,-4,8,-9
2194,91,-78,483,-26,4,-2
2195,-58,89,770,13,30,-14
2196,-83,-6,633,0,13,2
2197,-15,-16,727,-9,-7,-12
2198,21,-50,730,-38,-2,-7
2199,-59,2,1002,-19,6,-4
2200,114,-119,607,-30,-15,-13
2201,-33,40,891,4,4,-1
2202,-8,72,500,-3,-14,6
2203,-12,-68,659,-13,-15,-8
2204,-107,83,668,0,9,-7
2205,47,-89,713,-20,-18,-12
2206,-82,-40,786,-19,-15,3
2207,123,1,864,19,-12,-12
2208,-31,30,872,-12,20,-12
2209,69,8,347,-12,13,-3
2210,28,100,761,-6,26,-14
2211,-92,-10,697,-25,8,3
2212,-7,-58,790,10,-4,-9
2213,27,-41,704,-20,-10,-8
2214,-51,47,965,5,4,0
2215,130,-126,604,-12,3,-12
2216,-57,-10,885,-10,22,-5
2217,-54,35,723,-32,32,-9
2218,-19,-156,664,-13,20,1
2219,-118,22,687,-31,3,-1
2220,48,-79,685,7,-7,-10
2221,-72,-71,688,-6,4,1
2222,88,-22,920,-9,-4,-15
2223,-58,-36,865,-1,27,-10
2224,68,-120,550,-30,15,-1
2225,-56,37,780,-4,34,-17
2226,-103,0,580,-52,10,6
2227,-18,-40,697,0,-7,-9
2228,25,-37,704,-21,-15,-9
2229,-39,26,949,3,-3,7
2230,120,-108,511,-7,-6,-17
2231,-18,55,767,17,22,-9
2232,15,156,599,-16,9,1
2233,-13,-95,641,-4,9,-6
2234,-91,39,698,9,11,-6
2235,51,-83,671,-50,-12,-8
2236,-69,-59,723,-10,0,3
2237,88,4,897,-13,-18,-17
2238,-59,-49,912,-46,5,1
2239,46,-134,564,-15,-7,1
2240,-62,0,842,-19,4,-14
2241,-110,-5,595,-66,3,6
2242,4,-58,693,1,-3,-11
2243,0,-14,668,-23,-20,-9
2244,-16,20,925,18,-3,5
2245,109,-110,513,-6,-6,-16
2246,-27,61,674,12,13,-7
2247,17,94,651,-13,4,10
2248,-26,-104,621,-6,-16,-7
2249,-100,41,675,17,-1,-8
2250,43,-80,668,-25,-2,-8
2251,-67,-93,706,4,5,1
2252,88,-14,856,14,-13,-16
2253,-47,-23,846,-5,25,-6
2254,23,-127,405,-15,1,3
2255,-39,40,616,13,2,-10
2256,-107,16,609,-10,11,3
2257,24,-68,721,-15,-9,-9
2258,-9,-12,684,13,-3,-6
2259,1,36,985,1,0,2
2260,65,-137,666,-11,0,-15
2261,-27,-14,721,-11,8,-5
2262,-59,-24,842,-6,2,5
2263,-41,-96,613,-30,-5,-3
2264,-83,38,677,1,-3,-8
2265,33,-71,631,-24,-19,-9
2266,-80,-36,699,-15,-3,4
2267,136,-26,704,-8,-21,-13
2268,-45,61,821,-7,2,-3
2269,33,-50,445,-31,2,-3
2270,-50,-59,697,-35,11,-9
2271,-124,30,694,-14,2,1
2272,15,-75,695,-47,-12,-8
2273,-13,-38,729,-5,1,-6
2274,23,1,826,-18,6,-10
2275,38,-52,525,-1,4,-10
2276,17,6,528,-25,12,-2
2277,2,81,594,10,12,-2
2278,-95,-41,592,-6,8,0
2279,-59,4,809,-12,-3,-9
2280,25,-43,657,-3,-22,-9
2281,-73,-39,815,-31,-7,2
2282,137,-67,701,-49,-8,-15
2283,-42,50,618,13,10,-2
2284,21,24,437,-28,5,-2
2285,-23,-21,544,-5,14,-11
2286,-135,61,659,-6,10,-1
2287,35,-95,790,-11,-11,-8
2288,-48,-31,761,-17,-8,-5
2289,53,5,803,-37,-3,-11
2290,12,-30,641,-4,5,-2
2291,46,-25,410,-34,-2,-2
2292,-19,82,555,2,16,-5
2293,-105,-16,674,-11,6,0
2294,-26,-16,816,-13,-5,-9
2295,12,-46,720,-38,-13,-8
2296,-40,-4,866,1,6,-1
2297,107,-80,517,0,-1,-15
2298,-12,37,645,-11,13,-7
2299,-32,61,605,-25,12,4
2300,-69,-61,660,-11,-7,-6
2301,-107,19,740,-51,0,-3
2302,24,-76,755,6,-8,-9
2303,-55,-41,711,-13,-4,-2
2304,102,-3,857,-32,-13,-14
2305,-18,41,762,-9,13,-5
2306,25,-34,586,-12,-3,3
2307,-89,36,836,9,6,-11
2308,-114,-21,635,-9,3,1
2309,-9,-63,830,-23,-5,-6
2310,-1,-17,804,0,-4,-9
2311,-19,18,902,-26,-4,-5
2312,68,-97,618,-49,-4,-8
2313,-23,23,741,32,3,-5
2314,-24,60,520,-39,10,3
2315,-31,-99,563,-7,1,-4
2316,-71,50,732,-11,-7,-9
2317,15,-61,770,-37,-20,-6
2318,-57,-50,795,13,3,-3
2319,111,-44,786,-24,-4,-17
2320,0,50,619,4,24,-9
2321,25,12,411,-23,10,-5
2322,-80,10,782,-47,6,-8
2323,-118,-6,692,22,10,-1
2324,3,-61,792,-65,-8,-7
2325,-9,-34,825,7,4,-8
2326,21,-1,855,-8,-7,-7
2327,-4,-30,668,-44,-8,-6
2328,24,-19,634,-12,7,-2
2329,-45,45,542,4,4,-2
2330,-62,-23,564,-57,-8,2
2331,-40,0,758,-3,-4,-9
2332,12,-33,733,-30,-4,-11
2333,-43,-11,825,-22,-8,2
2334,129,-52,587,-12,-21,-14
2335,-20,76,645,-20,9,-4
2336,-38,88,730,-1,5,6
2337,-47,-47,681,-48,-10,-7
2338,-66,15,585,-27,0,-3
2339,8,-54,815,2,-1,-7
2340,-39,-40,785,-42,-4,-5
2341,81,-39,847,0,-6,-13
2342,4,32,606,-42,19,-13
2343,41,17,441,-29,14,-4
2344,-88,92,736,10,14,-11
2345,-77,-37,655,-75,-4,1
2346,-14,-54,798,15,-1,-8
2347,-2,-21,838,-32,-15,-9
2348,0,1,928,-20,-12,-1
2349,57,-70,529,5,-7,-9
2350,-7,38,719,-22,0,-5
2351,-49,96,578,-32,15,-3
2352,-41,-49,649,-23,11,-2
2353,-51,-26,738,-9,-1,-8
2354,12,-52,749,-26,-20,-7
2355,-48,-7,874,-6,-8,0
2356,109,-7,764,-5,-14,-11
2357,-24,47,685,-13,8,-6
2358,3,-13,444,-28,7,-1
2359,-47,28,702,-20,11,-9
2360,-85,-57,580,-8,5,-4
2361,15,-66,776,-35,-9,-7
2362,-27,-33,868,-26,-9,-7
2363,51,19,849,-29,-1,-11
2364,29,60,542,-10,8,-6
2365,12,-52,595,-2,5,-5
2366,9,23,693,-25,9,-6
2367,-3,-51,473,-16,9,2
2368,7,-21,670,-19,-3,-8
2369,20,-44,782,-28,-15,-7
2370,-48,5,845,-17,-4,-4
2371,82,-72,362,-29,-11,-9
2372,-23,11,692,8,17,-8
2373,-41,105,650,-33,18,-3
2374,50,-50,369,-16,12,-3
2375,-40,50,473,-2,-2,-7
2376,27,-65,718,-41,-15,-6
2377,-64,-103,696,-10,0,-5
2378,41,-21,691,-32,-9,-13
2379,-60,122,728,1,10,-7
2380,0,-126,335,-16,7,-3
2381,-35,-59,444,-17,17,-12
2382,-66,68,424,7,13,0
2383,18,-77,567,-35,-8,-8
2384,-12,-56,772,-8,-6,-7
2385,127,-38,728,3,1,-8
2386,32,13,446,-10,4,-3
2387,-31,-106,502,-8,1,-1
2388,139,19,592,0,0,-3
2389,20,-38,275,-35,-7,2
2390,-13,-6,652,-6,-4,-9
2391,20,-31,705,-21,-6,-7
2392,-81,-70,744,-24,-1,0
2393,73,-103,435,-20,-18,-14
2394,53,22,678,-12,15,-7
2395,-55,-98,451,-14,26,-5
2396,-77,42,373,2,17,-7
2397,0,21,424,-15,-4,-5
2398,32,-77,655,-32,-9,-7
2399,-17,-126,668,13,-1,0
2400,174,22,577,-6,-11,-14
2401,-55,-59,552,0,13,-8
2402,97,-182,411,-31,12,1
2403,133,143,486,-25,2,-9
2404,-12,7,341,-22,5,-1
2405,10,-45,688,-27,-8,-8
2406,27,-25,722,-1,-2,-7
2407,-48,-147,679,-29,0,-9
2408,11,27,531,9,-1,-6
2409,41,31,522,-22,-4,-1
2410,-64,-152,329,-6,-6,-1
2411,8,47,452,-40,0,1
2412,-39,-58,569,-16,-2,-9
2413,11,-38,667,-18,-6,-9
2414,6,-98,740,-25,0,-4
2415,155,-93,339,-7,-11,-13
2416,-30,-90,629,-6,17,-5
2417,31,41,535,9,11,-1
2418,110,-17,290,13,9,-7
2419,-37,61,424,-14,-1,-4
2420,39,-48,716,-32,-8,-8
2421,-46,-134,640,-5,-5,1
2422,116,-23,633,-1,-17,-11
2423,-62,100,604,-32,20,-8
2424,27,-235,318,-7,21,-2
2425,98,30,581,-6,18,-16
2426,-118,-60,422,2,6,1
2427,20,-84,672,-33,-11,-8
2428,16,-50,756,3,-3,-5
2429,-34,-28,660,1,-10,-2
2430,93,-162,429,-27,-3,-12
2431,114,-20,715,-24,9,-4
2432,-114,-20,383,-40,18,-10
2433,31,16,332,-17,2,1
2434,-19,5,606,-25,-6,-8
2435,14,-38,679,-6,-7,-9
2436,19,-184,678,-7,0,-1
2437,181,-31,454,-12,-12,-14
2438,-73,-28,551,27,12,-4
2439,107,-140,518,-54,1,6
2440,113,-2,445,-33,-13,-5
2441,-33,18,455,-20,3,-8
2442,29,-56,792,-17,-7,-8
2443,-85,-100,645,-24,-2,-5
2444,76,-40,651,-13,-13,-14
2445,-12,22,675,10,13,-3
2446,3,-135,360,-37,-6,5
2447,-9,-48,449,22,-7,-11
2448,-94,65,435,-33,8,1
2449,32,-98,591,-23,-7,-7
2450,2,-70,766,-18,-9,-8
2451,95,-4,737,-25,-11,-7
2452,57,-144,353,-22,1,-8
2453,12,-78,656,-1,14,-6
2454,98,84,489,7,11,-10
2455,13,-58,207,-27,6,0
2456,-26,39,660,-24,-8,-8
2457,32,-31,710,-17,-8,-10
2458,-28,-154,707,4,-5,4
2459,129,-11,501,-26,-17,-15
2460,-75,58,574,-15,22,-6
2461,36,-180,447,-11,29,-7
2462,46,-6,501,0,14,-9
2463,-91,-38,461,-20,0,-5
2464,32,-74,750,-21,-6,-7
2465,-76,-77,677,4,-4,2
2466,110,-23,546,-6,-14,-12
2467,43,-127,642,-9,12,-11
2468,46,-101,521,-39,14,3
2469,-29,-8,390,-17,6,-10
2470,-52,139,408,-31,6,2
2471,32,-83,601,-16,-2,-7
2472,-8,-39,751,-3,-4,-8
2473,140,-130,730,-28,-1,-7
2474,21,-6,410,27,1,-7
2475,-17,-123,482,-23,-1,0
2476,183,-82,608,-1,-5,0
2477,11,-55,300,-36,0,0
2478,-39,2,671,-18,-1,-10
2479,38,-45,711,-19,-12,-8
2480,-73,-92,721,-23,-4,-1
2481,80,-116,491,-21,-15,-13
2482,15,20,724,-13,18,-6
2483,-21,-81,422,10,10,-2
2484,-75,-14,403,9,11,-8
2485,1,30,442,-20,0,-2
2486,12,-66,683,-19,-9,-7
2487,-15,-90,681,-3,-7,0
2488,197,-10,603,-6,-18,-11
2489,-60,-72,580,-34,14,-10
2490,52,-121,447,-23,18,0
2491,128,117,474,-10,11,-13
2492,-15,31,326,-36,4,0
2493,28,-60,697,-16,-5,-7
2494,14,6,763,-4,-4,-9
2495,-5,-145,749,-14,-4,-4
2496,21,18,493,15,0,-10
2497,3,19,521,-37,-1,0
2498,-20,-188,455,-15,0,-1
2499,-23,74,485,-49,0,0
2500,-55,-31,582,-12,1,-9
2501,27,-60,679,-23,-11,-9
2502,-25,-85,771,-32,-2,-3
2503,117,-89,416,-2,-6,-12
2504,-4,-67,649,6,14,-5
2505,44,-9,546,3,-3,3
2506,59,-25,327,-5,2,-6
2507,-32,59,445,-21,3,-4
2508,16,-47,747,-27,-13,-8
2509,-19,-127,694,-24,-7,-3
2510,115,-61,649,-15,-15,-12
2511,-31,35,641,-27,19,-6
2512,23,-217,366,7,15,-1
2513,91,40,565,20,15,-14
2514,-47,-84,436,-20,5,2
2515,-10,-88,723,-24,-9,-6
2516,11,-14,783,3,-8,-7
2517,-57,-74,726,-11,-13,-2
2518,99,-136,485,-36,-3,-14
2519,101,10,719,-24,17,-5
2520,-120,-88,464,-16,22,-11
2521,17,68,438,-24,5,0
2522,-16,5,601,-18,-2,-6
2523,23,-55,702,3,-4,-8
2524,2,-131,733,-1,-10,3
2525,186,-30,542,-14,-17,-17
2526,-84,-20,590,-15,16,-6
2527,87,-36,546,-36,22,-1
2528,105,27,466,-14,2,-7
2529,-26,56,468,-40,4,-4
2530,23,-50,817,-2,-1,-7
2531,-29,-90,726,-9,-7,-1
2532,95,-61,731,8,-10,-11
2533,-21,43,665,-11,10,-10
2534,-5,-136,399,-54,8,4
2535,68,7,584,-4,3,-11
2536,-127,-22,493,-50,4,0
2537,-7,-80,710,-5,-1,-8
2538,-5,-36,814,-6,-8,-8
2539,-20,-2,744,-9,-10,-4
2540,117,-182,435,-1,-2,-15
2541,89,-20,751,-36,8,-2
2542,-75,-20,521,-26,12,-7
2543,26,16,396,-39,0,-2
2544,-35,16,654,-14,4,-9
2545,27,-49,727,-1,-4,-9
2546,12,-147,733,-14,-9,2
2547,171,-32,579,6,-12,-18
2548,-90,-1,591,-6,10,-7
2549,90,-79,526,-46,14,0
2550,92,9,513,-17,-2,-8
2551,-24,43,498,-36,6,-4
2552,26,-50,823,0,-5,-8
2553,-24,-93,729,-17,-11,-3
2554,93,-62,726,10,-6,-12
2555,-14,39,659,-9,10,-12
2556,-7,-139,392,-57,11,5
2557,65,2,581,1,9,-11
2558,-131,-18,499,-56,8,0
2559,-3,-81,721,-8,-1,-9
2560,-5,-38,815,-4,-7,-8
2561,-19,-2,744,-7,-12,-2
2562,115,-181,438,-3,-3,-15
2563,88,-9,753,-41,5,-3
2564,-88,-27,521,-20,18,-9
2565,23,32,414,-41,1,0
2566,-29,16,658,-20,1,-8
2567,26,-60,723,6,-3,-8
2568,7,-126,733,-11,-12,4
2569,176,-37,570,-7,-18,-20
2570,-89,-10,592,-21,17,-7
2571,84,-23,540,-43,21,-3
2572,90,15,489,0,7,-8
2573,-28,49,512,-40,1,-5
2574,19,-54,829,5,0,-8
2575,-31,-95,744,-9,-10,-1
2576,113,-73,733,-3,-20,-12
2577,-31,61,665,-24,13,-12
2578,10,-166,386,-40,17,-2
2579,91,6,603,11,19,-14
2580,-111,-46,506,-23,7,3
2581,-8,-86,758,-31,-8,-8
2582,2,-26,811,11,-2,-6
2583,-41,-52,774,-37,-19,-1
2584,101,-142,500,-27,-2,-11
2585,60,16,717,4,18,-4
2586,-92,-85,497,-5,19,-9
2587,12,70,534,11,14,0
2588,-19,6,664,-30,-8,-8
2589,18,-62,715,-10,-6,-9
2590,-12,-62,805,-15,0,-1
2591,150,-54,511,-29,-14,-13
2592,-46,-40,671,10,20,-4
2593,52,58,575,10,8,3
2594,65,-49,406,-6,8,-7
2595,-33,70,542,-4,6,-3
2596,17,-46,804,-41,-16,-8
2597,-14,-132,741,-13,0,-5
2598,158,-52,705,-16,-6,-12
2599,-15,-7,678,6,14,-2
2600,37,-184,424,8,-1,7
2601,84,62,597,-4,-9,-10
2602,-4,-73,467,-42,10,2
2603,25,-76,796,-1,-3,-7
2604,4,-9,825,-24,-12,-7
2605,-14,-125,792,3,0,-6
2606,71,-46,557,5,0,-11
2607,6,3,589,-35,1,-1
2608,-17,-174,548,-2,7,-3
2609,-32,61,594,-61,-2,2
2610,-59,-7,686,-6,3,-8
2611,29,-58,736,-5,-4,-9
2612,-38,-38,839,-10,-11,3
2613,100,-120,502,12,-10,-18
2614,34,-31,749,-27,15,-6
2615,-2,5,573,-42,23,-4
2616,-15,-28,450,-6,4,-8
2617,-20,66,598,-49,-1,-6
2618,13,-61,757,10,0,-9
2619,-17,-67,749,-15,-3,0
2620,179,14,670,-13,-25,-13
2621,-43,-70,655,-7,21,-7
2622,45,-82,523,-14,18,1
2623,56,103,521,17,14,-15
2624,-49,43,465,-1,9,1
2625,25,-66,769,-44,-16,-8
2626,-9,-27,849,9,-1,-7
2627,111,-139,812,-40,4,-7
2628,52,-43,544,-2,-1,-6
2629,-13,-52,567,15,4,-1
2630,113,-63,644,-2,-2,0
2631,11,-81,410,-41,4,2
2632,-23,6,764,-5,1,-9
2633,33,-41,784,-18,-11,-6
2634,-25,-99,816,5,-10,3
2635,115,-104,594,-8,-10,-17
2636,-49,43,668,-16,17,-6
2637,20,-131,502,-44,24,-5
2638,34,2,627,-13,4,-7
2639,-116,2,569,-37,-2,-5
2640,23,-71,797,-8,1,-9
2641,-78,-77,783,-15,-2,0
2642,106,-31,650,-17,-27,-14
2643,13,-70,743,-3,16,-6
2644,4,-87,484,-1,13,3
2645,-15,-24,560,11,9,-13
2646,-80,112,600,-6,10,1
2647,25,-84,698,-31,-15,-9
2648,-12,-54,843,-8,-7,-6
2649,51,64,801,-12,6,-7
2650,77,-159,478,3,2,-9
2651,65,-34,742,-26,-2,0
2652,-20,36,496,-15,6,-5
2653,14,-17,427,-53,-1,2
2654,-28,15,769,-17,0,-9
2655,8,-32,762,-2,-2,-8
2656,28,-54,793,-11,-12,4
2657,158,-61,530,-11,-19,-18
2658,-78,-36,672,-27,22,-6
2659,42,87,589,-21,24,-4
2660,68,-37,448,8,11,-7
2661,-32,54,614,-15,-7,-8
2662,34,-51,813,-34,-9,-7
2663,-45,-149,749,-3,5,-6
2664,164,-18,734,-35,-8,-14
2665,-16,-20,690,27,12,-3
2666,50,-201,417,-18,-1,4
2667,85,72,621,0,-7,-9
2668,-37,-57,495,-38,6,0
2669,31,-64,785,-16,-6,-6
2670,2,-25,846,-6,-6,-3
2671,16,-146,790,11,-11,-5
2672,42,1,608,-17,2,-13
2673,-9,-19,545,-36,11,-3
2674,44,-130,529,-37,20,-14
2675,-28,6,572,-4,9,2
2676,-64,-22,761,-28,-10,-10
2677,18,-39,757,-1,0,-10
2678,-48,-37,833,-22,-5,-2
2679,117,-141,471,-34,-18,-15
2680,4,-19,742,4,20,-4
2681,-42,-39,552,0,12,2
2682,-35,27,553,-1,12,-4
2683,-32,28,591,0,0,-8
2684,38,-87,739,-43,-14,-6
2685,-42,-74,788,-7,0,-3
2686,127,26,606,-18,-4,-14
2687,7,-104,710,12,12,-2
2688,58,-75,518,-30,2,5
2689,15,-11,428,-9,-8,-7
2690,-42,105,528,-35,1,0
2691,13,-61,703,-20,-5,-8
2692,-11,-57,831,-3,-1,-4
2693,171,-70,765,3,-14,-5
2694,0,-47,495,-14,-5,-13
2695,-31,-74,538,-39,8,-3
2696,125,77,600,-43,24,-13
2697,1,-53,360,-4,8,2
2698,2,-3,769,-34,-13,-11
2699,14,-30,803,-8,0,-9
2700,-2,-111,778,6,-2,2
2701,104,-45,496,-49,-22,-16
2702,-42,26,628,-15,15,-4
2703,51,-155,561,-23,39,-2
2704,11,-4,568,-11,20,-6
2705,-101,-5,551,-1,-1,-6
2706,41,-89,781,-49,-15,-5
2707,-90,-87,761,1,-3,-1
2708,111,-42,596,-22,-15,-13
2709,3,-57,802,-29,23,-6
2710,12,-77,439,13,10,3
2711,-11,-55,477,1,8,-13
2712,-62,118,541,-3,11,2
2713,13,-75,650,-23,-8,-7
2714,-18,-66,823,-23,-7,-6
2715,135,16,729,-20,-7,-8
2716,33,-117,442,-11,5,-6
2717,8,-75,646,-13,9,0
2718,71,96,497,27,3,-5
2719,-4,-33,300,-31,2,2
2720,-11,-7,728,-8,-3,-8
2721,7,-16,778,-22,-7,-7
2722,14,-143,748,-38,-1,-5
2723,137,-51,459,4,-7,-10
2724,-49,-21,609,7,12,-3
2725,108,-139,562,-7,2,4
2726,51,-40,499,1,-2,-4
2727,-47,12,528,-17,-1,-6
2728,46,-77,789,-14,-5,-7
2729,-92,-108,715,-26,1,-4
2730,120,-46,617,-21,-12,-14
2731,-34,0,760,18,13,-2
2732,-9,-112,361,-37,-2,6
2733,15,-74,482,21,-6,-9
2734,-99,77,496,-33,2,1
2735,17,-81,635,-23,-9,-8
2736,-17,-73,810,-5,-2,-7
2737,110,6,687,-45,-6,-10
2738,39,-141,416,9,1,-5
2739,24,-75,637,-17,3,1
2740,59,76,465,19,2,-3
2741,-3,-30,263,-24,0,1
2742,-17,-4,692,-25,-6,-8
2743,9,-24,754,-13,-7,-9
2744,-4,-148,725,-32,-3,-5
2745,120,-28,423,-11,-12,-13
2746,-48,-17,594,7,15,-5
2747,87,-156,540,3,6,0
2748,33,-18,486,4,5,-5
2749,-65,-4,502,-8,1,-6
2750,48,-88,756,-28,-5,-9
2751,-95,-94,680,-9,-2,0
2752,91,-39,545,1,-17,-15
2753,29,-71,780,-17,19,-10
2754,23,-107,432,4,18,-2
2755,-29,-58,389,-13,19,-15
2756,-57,150,430,-8,4,-1
2757,13,-74,573,-37,-12,-6
2758,-15,-72,746,-3,-3,-5
2759,178,-87,701,8,-9,-6
2760,6,-15,422,-17,0,-9
2761,-33,-120,477,-12,12,-2
2762,189,24,556,-41,14,-7
2763,8,-35,256,-18,0,3
2764,-11,0,675,-19,-9,-10
2765,25,-26,713,-5,-4,-9
2766,-78,-86,693,-21,4,-3
2767,62,-93,424,-15,-14,-11
2768,27,22,679,17,12,-4
2769,-45,-145,443,-13,4,3
2770,-78,38,389,5,6,-7
2771,0,1,399,-15,1,-5
2772,40,-91,636,-41,-10,-7
2773,-6,-130,662,-5,-3,1
2774,172,31,570,-1,-19,-14
2775,-90,-49,551,-25,21,-8
2776,104,-155,413,-18,21,-1
2777,126,116,455,-24,8,-10
2778,-10,34,307,-13,4,0
2779,4,-49,661,-26,-8,-7
2780,46,-27,701,6,-2,-9
2781,-93,-155,632,-32,-2,-7
2782,1,5,540,11,-3,-7
2783,104,21,569,-26,-6,0
2784,-124,-177,335,18,7,-7
2785,32,54,379,-7,9,0
2786,-37,-38,506,-30,-6,-8
2787,14,-28,629,-18,-11,-8
2788,31,-162,701,4,-5,3
2789,175,6,413,-22,-14,-14
2790,-74,-23,539,10,20,-8
2791,68,-80,537,-49,11,3
2792,135,7,364,-40,-16,-7
2793,-35,36,386,-22,2,-7
2794,34,-67,741,-18,-3,-8
2795,-86,-106,587,-17,0,-2
2796,14,-49,576,-2,-17,-13
2797,16,-39,689,-12,17,-9
2798,32,-146,422,-16,18,-1
2799,-62,-57,426,9,26,-13
2800,-71,142,335,-28,4,0
2801,38,-103,510,-20,-10,-7
2802,10,-42,699,7,-8,-8
2803,98,-134,715,-43,1,-6
2804,12,44,387,10,3,-7
2805,6,-134,454,-16,-4,-1
2806,124,-109,553,13,14,-9
2807,-10,-24,314,3,15,0
2808,-19,-5,582,-41,-5,-5
2809,39,-50,640,-4,-12,-8
2810,-68,-52,683,-12,-6,1
2811,86,-148,341,-23,-10,-11
2812,22,-22,639,-9,10,-4
2813,-20,12,528,-40,-9,6
2814,18,23,291,-8,-9,-7
2815,20,46,353,-24,5,-3
2816,5,-51,619,-29,-8,-6
2817,-7,-115,580,-11,-13,-2
2818,47,-84,606,-6,-17,-11
2819,-56,134,607,-22,22,-8
2820,1,-184,275,-36,14,2
2821,3,4,495,-12,-9,-9
2822,-57,-59,396,-47,5,1
2823,14,-96,554,2,2,-8
2824,27,-26,688,-28,-5,-9
2825,-5,9,698,-16,-2,-2
2826,82,-119,262,-14,1,-12
2827,-26,-71,600,2,22,-5
2828,67,149,557,4,37,-7
2829,45,-53,147,-50,4,-3
2830,-22,40,511,-2,1,-7
2831,63,-76,631,3,-4,-10
2832,-104,-74,584,-26,1,-2
2833,46,-101,474,14,-8,-14
2834,15,83,664,-2,5,-3
2835,-2,-133,359,-2,16,1
2836,-89,-83,339,27,21,-11
2837,0,87,301,-47,1,-1
2838,11,-68,560,10,-8,-6
2839,26,-130,564,-19,-9,-5
2840,104,-89,594,3,-3,-10
2841,-62,110,520,2,5,-2
2842,71,-228,297,-24,-14,3
2843,40,8,472,36,19,-15
2844,28,-70,324,-46,6,3
2845,3,-14,546,-9,-6,-7
2846,31,-3,655,6,-15,-11
2847,-74,-11,631,-16,-5,-3
2848,143,-177,184,-8,-7,-7
2849,5,8,698,-5,-9,-2
2850,-76,159,516,-5,12,-6
2851,99,-47,157,-21,9,-2
2852,-20,41,416,-10,-4,-5
2853,28,-62,593,-17,-12,-7
2854,-79,-92,543,-8,-2,-1
2855,83,-53,551,-10,-13,-11
2856,-52,150,653,1,-2,-1
2857,-26,-126,312,-17,2,0
2858,-87,-106,353,1,16,-13
2859,-27,81,286,-23,1,-2
2860,41,-93,517,-8,-8,-6
2861,-1,-106,615,-15,-4,-5
2862,95,-61,634,0,-4,-8
2863,-36,127,486,-9,1,-2
2864,63,-223,325,-6,-8,-2
2865,23,-28,464,13,29,-13
2866,13,-29,349,-41,6,1
2867,2,-3,494,7,-5,-8
2868,37,-28,634,-22,-8,-9
2869,-70,-21,662,3,2,-3
2870,117,-127,166,-17,-11,-7
2871,-14,19,667,12,-6,-3
2872,-57,136,530,-5,26,-6
2873,114,-41,208,-31,5,-6
2874,-38,68,377,7,-1,-6
2875,15,-53,573,-27,-8,-8
2876,-44,-114,489,-2,2,-2
2877,75,-58,556,-1,-11,-13
2878,-61,159,693,8,-1,1
2879,-28,-123,271,-11,10,1
2880,-59,-139,345,9,17,-15
2881,-41,91,269,-2,2,-2
2882,30,-72,488,-24,-8,-5
2883,-2,-92,599,-9,-2,-7
2884,101,-80,625,1,-5,-8
2885,-24,98,415,-1,-7,-1
2886,10,-208,356,4,-4,-3
2887,19,-38,456,-5,27,-12
2888,15,-18,325,-15,9,0
2889,15,-20,474,-6,-3,-7
2890,34,-29,618,-35,-8,-9
2891,-76,-5,694,4,3,-3
2892,100,-68,161,-10,-10,-9
2893,-20,-22,653,28,9,-4
2894,-42,117,591,-29,27,-2
2895,107,0,251,-29,6,-4
2896,-43,65,316,7,2,-8
2897,45,-79,585,-54,-10,-8
2898,-55,-94,499,2,3,-4
2899,-12,-51,556,-23,-12,-14
2900,-50,72,653,7,21,-9
2901,5,-89,332,-12,14,0
2902,-63,-126,409,-33,7,-8
2903,-53,158,271,0,7,-1
2904,19,-62,438,-46,-8,-5
2905,16,-66,603,-7,-5,-8
2906,25,-170,655,-22,-3,-8
2907,-86,170,452,-27,8,-10
2908,-32,-103,396,-16,14,-6
2909,-51,-137,380,-40,4,-2
2910,9,4,446,-10,1,1
2911,-8,-35,485,-35,-5,-9
2912,20,-4,571,-11,-12,-10
2913,-29,-67,720,-18,-2,0
2914,109,50,296,-31,-13,-12
2915,-90,-49,589,-4,24,-9
2916,-22,-29,543,-40,5,3
2917,139,15,299,5,-9,-5
2918,-54,19,311,-33,-1,-4
2919,43,-51,625,-19,-9,-7
2920,-91,-28,509,-14,-7,-1
2921,-1,-51,506,-14,-17,-9
2922,15,-69,467,-26,15,-4
2923,10,38,431,-62,-5,5
2924,-24,-1,442,19,-6,-13
2925,-53,144,211,-46,-1,1
2926,35,-99,429,-22,-8,-7
2927,30,-2,592,4,-9,-8
2928,-50,-158,646,-15,-11,-1
2929,-34,149,433,-11,-5,-6
2930,33,34,507,-31,-6,0
2931,-151,-198,387,18,15,-8
2932,5,72,317,-19,10,0
2933,-36,-25,380,-31,-2,-7
2934,47,-23,534,0,-3,-9
2935,-20,-197,634,-12,0,-2
2936,117,67,468,-8,-12,-12
2937,-98,61,498,2,5,-2
2938,25,-205,347,-19,18,0
2939,87,-12,452,-10,13,-10
2940,-80,-9,332,-36,5,-3
2941,41,-23,596,-6,-3,-6
2942,-37,-28,604,-23,-4,-4
2943,66,-8,558,-19,-5,-12
2944,-64,-55,418,4,18,-9
2945,-12,27,521,-10,12,-1
2946,73,80,483,-9,8,-8
2947,1,40,183,-59,4,-1
2948,-3,-41,526,6,2,-6
2949,25,-9,607,-26,-11,-9
2950,-136,-91,585,-32,-6,-3
2951,30,-86,283,-22,1,-14
2952,34,71,630,-16,18,-9
2953,-206,-17,472,-14,0,2
2954,67,8,225,-48,-2,-2
2955,-17,7,341,10,5,-7
2956,36,-37,556,-22,-12,-8
2957,-90,-124,543,-15,-8,0
2958,75,-20,577,-1,-10,-11
2959,-107,178,608,-29,12,-3
2960,-48,-128,275,-10,0,0
2961,-60,-79,442,-1,11,-11
2962,-72,40,316,-23,1,-1
2963,61,-81,507,-8,-9,-7
2964,-9,-89,610,-16,-5,-5
2965,72,-16,649,-1,-1,-9
2966,-33,168,453,-4,1,-1
2967,37,-220,280,0,-4,-3
2968,-13,-37,476,-14,25,-10
2969,12,-20,363,-36,9,0
2970,-6,0,469,16,0,-8
2971,39,-24,636,-44,-11,-9
2972,-93,-23,708,-7,4,-4
2973,86,-28,169,-15,0,-11
2974,-66,-20,655,21,17,-11
2975,-37,119,589,-35,6,5
2976,129,-63,249,-45,-4,0
2977,-62,72,387,3,1,-7
2978,22,-40,579,-43,-15,-4
2979,-100,2,512,-3,-1,-1
2980,11,-105,462,-16,-15,-12
2981,-29,34,551,-24,14,-4
2982,-49,109,400,-42,-2,-1
2983,-48,-50,370,6,8,-12
2984,8,102,273,-6,1,-2
2985,16,-64,470,-24,-10,-6
2986,-1,-11,590,-7,-4,-8
2987,-73,-128,598,0,-3,-8
2988,-17,140,530,-5,-1,-2
2989,30,25,476,1,2,-2
2990,-197,-110,393,-30,22,-8
2991,32,39,285,-11,9,1
2992,-14,-27,394,-10,-1,-9
2993,35,-18,590,-36,-9,-8
2994,-75,-156,658,-3,3,-2
2995,76,50,377,-32,-11,-13
2996,-30,31,570,12,23,-10
2997,-87,-122,373,-35,9,2
2998,-24,-13,484,-15,-8,-4
2999,-8,-11,446,-15,-3,-5
3000,55,-45,549,-34,-11,-6
3001,-44,-45,659,3,0,-2
3002,65,52,614,-12,-16,-12
3003,-50,82,526,-11,6,-2
3004,65,-176,368,-49,2,-1
3005,-1,71,498,20,17,-16
3006,13,-47,283,-9,10,1
3007,2,4,533,-35,-8,-9
3008,30,-24,668,-2,-2,-9
3009,-103,24,651,-18,-1,-9
3010,97,-34,243,-9,1,-8
3011,-51,-10,640,4,10,-6
3012,-15,186,582,-17,9,-2
3013,27,-73,177,-41,-5,0
3014,-22,27,493,-37,-5,-7
3015,24,-34,534,-1,-11,-7
3016,-106,65,616,-24,-6,3
3017,-13,-148,320,-12,-12,-12
3018,-3,95,567,-12,12,-4
3019,-80,168,528,-30,8,-2
3020,-38,2,336,21,12,-12
3021,38,34,284,-31,5,-4
3022,7,-40,549,-11,-3,-8
3023,-36,-6,490,-11,-5,-4
3024,-83,-60,673,-15,-11,-12
3025,-29,124,618,0,21,-9
3026,20,25,346,-12,11,1
3027,-132,-93,549,4,-4,-7
3028,-40,99,232,-65,-3,3
3029,32,-71,439,-3,-5,-6
3030,-5,-5,650,-11,-14,-9
3031,-58,-121,681,-12,-5,-1
3032,-7,103,437,6,-3,-6
3033,-24,67,583,-22,-9,-1
3034,-166,-92,451,7,23,-8
3035,-29,47,343,-32,11,-3
3036,5,-52,397,-3,4,-9
3037,40,-52,570,-8,-11,-9
3038,-58,-100,661,-26,-5,-1
3039,61,67,585,-14,-4,-14
3040,-51,115,543,-6,23,-11
3041,-33,-165,288,-21,4,4
3042,-1,-2,564,-37,-7,-6
3043,-91,-6,372,-23,1,-1
3044,71,-55,565,-13,-10,-6
3045,-29,-49,699,-21,-8,-5
3046,48,52,682,17,-2,-8
3047,-18,148,450,-25,2,1
3048,22,-184,366,-20,-12,-3
3049,4,-2,520,-1,27,-12
3050,20,-5,332,-28,9,-1
3051,-7,12,469,14,0,-9
3052,32,-23,645,-30,-12,-8
3053,-93,-6,725,-11,4,-7
3054,84,-17,174,-23,2,-12
3055,-71,0,656,19,20,-11
3056,-58,126,614,-39,4,2
3057,127,-72,276,-42,-5,0
3058,-62,63,387,10,0,-6
3059,26,-33,572,-43,-13,-7
3060,-100,37,520,2,-3,0
3061,12,-103,465,-11,-11,-12
3062,-16,45,486,-2,6,2
3063,-52,153,449,-21,6,-1
3064,-21,-20,419,-20,17,-14
3065,30,90,254,10,8,-4
3066,7,-56,473,-32,-10,-8
3067,8,13,588,-17,-4,-7
3068,-137,-67,565,-7,-2,-10
3069,17,59,453,-24,7,-10
3070,20,112,539,-16,14,-5
3071,-204,-33,446,-11,6,-7
3072,25,27,219,-13,1,2
3073,7,-24,385,-34,-8,-7
3074,19,-11,573,-16,-7,-10
3075,-131,-45,633,3,4,-2
3076,57,1,472,-18,-11,-11
3077,-45,144,629,38,10,-5
3078,-108,12,443,-50,6,4
3079,-125,-50,331,-17,0,-2
3080,38,33,308,-5,5,-7
3081,39,-47,509,-42,-11,-6
3082,-39,-73,515,9,-1,0
3083,-62,-60,696,-10,-19,-12
3084,-55,272,627,-12,8,0
3085,1,-81,224,-41,1,2
3086,-144,-33,597,-4,13,-13
3087,-70,21,335,-5,7,-2
3088,47,-82,478,-30,-4,-8
3089,7,-36,651,-3,-7,-8
3090,-35,-37,712,-28,-11,-4
3091,-30,164,401,-22,1,-12
3092,-37,-45,488,-35,15,-5
3093,-123,-69,448,20,23,-11
3094,-36,32,448,-11,9,-4
3095,-10,-47,475,-14,-1,-8
3096,51,-40,560,-7,-7,-10
3097,-49,-89,701,-29,-2,0
3098,51,123,527,-15,-10,-16
3099,-53,101,547,-12,26,-10
3100,-50,-98,318,-4,12,2
3101,16,-33,551,-4,-6,-9
3102,-64,-4,396,-49,-4,0
3103,47,-42,587,1,-6,-8
3104,-32,-50,627,-36,-7,-4
3105,37,47,696,6,-2,-10
3106,-20,173,504,8,11,-5
3107,2,-165,261,-3,0,0
3108,-60,-3,570,10,0,-7
3109,19,-45,401,-73,-3,3
3110,-12,-15,502,4,-6,-7
3111,9,-9,696,-16,-11,-9
3112,-68,40,750,-10,1,-1
3113,97,88,262,4,-3,-7
3114,-43,-53,641,5,-7,-3
3115,-41,31,495,-16,16,1
3116,1,-71,316,-53,3,-1
3117,-11,19,470,15,3,-8
3118,27,-27,590,-19,-11,-7
3119,-66,33,673,-13,-4,0
3120,24,39,526,0,-11,-12
3121,-12,34,512,-13,2,2
3122,-2,-45,442,-26,2,2
3123,-15,77,494,-31,12,-9
3124,-27,-66,261,5,7,-4
3125,37,-25,577,-22,-15,-6
3126,-27,-12,695,-22,-9,-7
3127,-31,107,616,1,-6,-8
3128,36,74,339,-30,1,-3
3129,-31,-123,497,-35,-4,-3
3130,0,112,565,-7,27,-10
3131,-17,-18,299,-8,10,-1
3132,9,-17,443,-11,-4,-9
3133,40,-37,621,-17,-9,-8
3134,-85,56,727,-2,-1,-1
3135,34,77,198,-34,-18,-11
3136,9,-40,630,-4,9,-5
3137,-41,74,596,-38,18,-5
3138,54,-44,381,-9,8,-8
3139,-89,35,371,-4,1,-8
3140,67,-47,552,-29,-14,-7
3141,-47,6,590,2,0,0
3142,5,38,615,-19,-19,-13
3143,7,114,427,-18,16,-1
3144,32,-46,420,-36,8,0
3145,-50,63,578,17,17,-14
3146,0,-36,295,-8,9,-1
3147,-6,-17,524,-22,-7,-9
3148,27,-21,648,2,-8,-8
3149,-70,97,679,-18,-12,-3
3150,65,88,258,-15,-6,-7
3151,-33,-89,557,-62,-2,1
3152,0,126,551,-11,16,-7
3153,-21,-74,311,-16,8,-2
3154,-28,10,492,-16,1,-8
3155,46,-23,549,-6,-10,-11
3156,-49,48,697,-17,-4,0
3157,-8,67,391,1,-14,-13
3158,5,25,517,-10,5,0
3159,-21,4,455,-47,-1,7
3160,10,0,485,-11,-1,-8
3161,-84,-19,337,-31,7,-4
3162,40,-25,611,-11,-3,-6
3163,-31,-9,599,-14,-6,-3
3164,-13,100,666,-6,-3,-10
3165,-27,117,449,1,11,-6
3166,-13,-106,252,-2,-4,1
3167,-87,49,583,21,8,-10
3168,0,-43,401,-62,1,3
3169,-9,-16,497,9,-2,-6
3170,9,-11,679,-26,-10,-9
3171,-93,82,702,-30,1,-1
3172,60,64,311,-27,-1,-14
3173,-9,-4,597,6,19,-11
3174,-70,66,365,-21,23,-3
3175,-56,-29,449,-55,2,-1
3176,15,-10,505,14,0,-5
3177,21,-56,575,-42,-11,-6
3178,-45,6,603,-7,-4,0
3179,-13,111,629,-13,-17,-12
3180,-56,130,551,-23,15,0
3181,-12,8,222,-31,4,4
3182,-126,-41,590,-28,8,-8
3183,-76,-2,376,1,6,-3
3184,50,-104,573,-26,-12,-6
3185,-23,-33,642,-11,-3,-6
3186,-27,63,626,2,1,-12
3187,-24,224,525,7,6,-8
3188,-6,45,405,10,1,-5
3189,-192,0,507,-22,10,-9
3190,-20,-13,382,3,8,2
3191,16,-64,427,-26,-4,-9
3192,18,-25,605,-22,-7,-7
3193,-85,34,634,11,-1,1
3194,21,-49,498,-54,-24,-11
3195,-44,196,644,-9,17,-4
3196,-74,169,496,-43,9,5
3197,-122,-57,431,-30,-8,-6
3198,70,90,333,-7,-1,-7
3199,36,-41,533,-29,-9,-10
3200,-68,-1,489,-15,4,-3
3201,-20,27,664,7,-8,-15
3202,69,129,437,-11,26,-11
3203,15,100,502,-20,21,-1
3204,-134,120,673,27,18,-16
3205,-28,39,327,-90,-1,5
3206,29,-59,550,15,-1,-6
3207,8,3,653,-2,-8,-7
3208,-66,95,704,-18,2,-3
3209,58,-39,242,29,-1,-8
3210,73,-30,466,-5,-6,-5
3211,-51,138,511,41,29,-11
3212,-84,-48,441,-32,7,0
3213,-22,19,503,-22,-2,-6
3214,55,-66,574,19,-7,-8
3215,-86,32,611,-47,-7,4
3216,-4,95,647,17,-11,-13
3217,-53,133,496,0,-1,1
3218,9,7,278,-11,6,-1
3219,-114,-133,559,19,14,-12
3220,-75,82,301,-46,3,-2
3221,55,-117,605,7,-5,-6
3222,-29,-34,572,-35,-8,-3
3223,-9,-1,556,3,-11,-9
3224,-6,116,538,1,-6,-2
3225,47,92,541,-12,-7,-3
3226,-140,178,568,-24,22,-14
3227,-79,-3,408,-25,14,2
3228,57,-2,453,1,-10,-9
3229,38,-33,600,-39,-9,-6
3230,-82,71,725,23,7,-2
3231,57,-63,237,-5,-8,-16
3232,94,11,442,31,22,-10
3233,-24,138,450,-30,31,-6
3234,-71,-13,491,10,7,-1
3235,-79,31,464,-27,0,-5
3236,55,-80,594,-32,-6,-9
3237,-49,-59,464,11,8,1
3238,4,67,692,-36,-20,-14
3239,-55,172,608,-30,12,0
3240,54,10,283,-37,-11,7
3241,-113,15,565,7,-8,-14
3242,-80,84,319,-5,9,2
3243,89,-67,545,-25,-11,-9
3244,0,-2,586,3,-8,-7
3245,-44,63,765,10,9,-4
3246,66,-126,239,-13,8,-19
3247,41,37,345,12,26,-7
3248,-10,85,440,10,-2,9
3249,-99,7,379,-50,-5,-1
3250,-43,6,519,29,2,-9
3251,52,-85,604,-35,-19,-7
3252,-117,-16,449,-11,2,2
3253,101,4,450,14,-1,-25
3254,66,30,572,-1,46,-14
3255,-15,73,542,7,-3,11
3256,-119,-2,713,-35,-12,-7
3257,-73,2,368,22,9,-5
3258,42,-72,584,-26,-5,-6
3259,-26,-44,489,-14,1,-6
3260,10,36,613,-6,4,-10
3261,-31,43,569,-30,-6,4
3262,19,-27,516,-46,-8,-1
3263,-90,168,450,-13,35,-23
3264,-77,-98,371,-3,17,5
3265,40,45,411,-24,-9,-12
3266,53,-21,475,-40,-9,-11
3267,-125,-6,703,2,15,2
3268,111,-81,502,4,-6,-24
3269,-93,16,591,-11,40,-10
3270,-37,129,380,4,8,7
3271,-21,-123,459,20,1,-14
3272,-63,138,225,-38,7,0
3273,69,-46,606,-12,-15,-13
3274,-73,-64,351,-19,-1,2
3275,40,-1,757,-1,5,-21
3276,-78,-8,553,-14,35,-10
3277,67,-73,306,-27,-3,2
3278,-46,68,579,17,33,-23
3279,-110,12,326,-40,12,4
3280,22,11,368,2,-5,-8
3281,31,-49,434,-10,-7,-9
3282,-75,113,670,-22,-13,11
3283,136,-172,422,-33,-29,-13
3284,-33,-38,639,46,28,-12
3285,-166,2,664,-13,-5,14
3286,-55,-157,495,10,-20,-7
3287,-107,97,399,-8,1,-9
3288,74,-85,410,-60,-17,-7
3289,-108,-110,391,4,-1,8
3290,116,21,690,3,-33,-14
3291,-91,104,626,-15,31,-9
3292,-4,0,250,-10,5,1
3293,13,71,527,54,12,-20
3294,-139,21,397,-36,15,10
3295,60,-94,527,-10,-14,-10
3296,0,12,414,-21,-3,-11
3297,-127,34,825,-30,17,-2
3298,76,-234,371,-18,-6,-11
3299,-26,-50,588,15,-20,-1
3300,-82,-100,737,-51,-14,8
3301,-14,-167,384,-7,-6,-2
3302,-90,89,382,4,-7,-11
3303,52,-89,499,-58,-5,-11
3304,-132,-117,422,13,13,4
3305,123,-4,689,-11,-15,-22
3306,-48,-38,777,-25,4,2
3307,92,-164,237,-5,-15,4
3308,-30,3,580,40,4,-20
3309,-144,44,333,-25,21,11
3310,52,-44,406,-22,-15,-12
3311,-21,-4,536,17,-9,-5
3312,-22,16,792,-15,10,-4
3313,115,-197,434,-42,-8,-15
3314,-7,70,491,21,-4,2
3315,0,130,589,-28,-13,6
3316,-26,-150,449,1,-9,-1
3317,-110,177,360,40,-3,-10
3318,94,-92,512,-60,-11,-8
3319,-135,-102,429,3,14,1
3320,139,16,581,-10,-7,-24
3321,-4,-7,778,-34,3,5
3322,109,-94,247,-2,-10,-1
3323,-30,79,599,57,27,-22
3324,-130,65,522,-41,19,12
3325,93,-53,396,-38,-21,-11
3326,-17,-14,544,18,-11,-5
3327,-62,-4,736,-33,6,3
3328,30,-220,434,2,-10,-13
3329,-34,30,570,15,-14,0
3330,-31,58,829,-3,-2,3
3331,-15,-165,541,-3,-8,-4
3332,-63,6,507,-3,-4,-4
3333,53,-52,710,-38,-4,-5
3334,-93,-49,523,16,11,-1
3335,85,63,614,1,5,-26
3336,-99,49,789,-3,36,0
3337,109,4,316,-5,19,-9
3338,11,148,781,-1,41,-18
3339,-143,13,705,-47,14,8
3340,134,-94,594,12,-6,-16
3341,-11,18,611,-6,-12,-7
3342,-71,0,881,-37,-12,9
3343,55,-203,527,32,-15,-19
3344,-131,39,776,3,18,-8
3345,-45,62,840,-57,39,-13
3346,-30,-169,635,7,22,0
3347,-35,-36,670,12,2,-13
3348,57,-77,792,-30,-14,-5
3349,-59,-111,580,23,-3,3
3350,56,44,700,-10,7,-22
3351,-102,33,714,-5,31,-3
3352,83,-20,619,-7,-8,2
3353,-52,79,864,-16,-4,-7
3354,-89,-67,734,-43,3,10
3355,8,-113,725,-22,-10,-11
3356,30,-7,800,-34,5,-13
3357,-64,-9,773,8,0,11
3358,117,-3,374,-47,-30,-17
3359,-107,225,792,3,27,-9
3360,0,21,819,-26,-4,-1
3361,-11,-98,770,-36,-11,-7
3362,-91,19,708,-31,25,-4
3363,9,-114,818,15,4,-13
3364,-11,-56,612,-29,-7,-1
3365,28,83,738,-21,-25,-7
3366,24,160,497,-25,6,-2
3367,57,51,739,-54,6,-9
3368,-47,161,864,1,9,-9
3369,-91,-101,772,2,6,7
3370,-8,-57,802,-46,-5,-12
3371,3,-26,832,-20,14,-12
3372,-79,-85,752,7,3,6
3373,187,70,543,1,-23,-20
3374,-98,215,662,30,-2,0
3375,39,-50,780,-26,2,4
3376,-30,-24,764,-50,1,-6
3377,-166,14,815,56,2,-4
3378,6,-170,872,-52,-17,-4
3379,-18,-18,769,6,-6,-9
3380,-65,37,902,13,-17,2
3381,35,-70,436,-79,-15,2
3382,122,2,667,22,-15,-6
3383,-47,82,867,-19,-1,3
3384,-28,-116,645,-103,2,9
3385,-55,-16,947,53,0,-16
3386,13,1,917,-28,-8,-9
3387,-79,-94,567,-30,-9,8
3388,102,44,704,71,-4,-23
3389,-53,27,810,-25,45,-6
3390,108,-136,636,-49,-3,-3
3391,-53,3,830,71,18,-21
3392,-114,57,915,-65,14,11
3393,41,-130,845,7,-2,-10
3394,-5,21,797,16,-8,-9
3395,-72,40,938,-77,-14,13
3396,81,-173,493,3,-23,-10
3397,-3,49,632,-1,13,-8
3398,-77,-2,772,-40,10,0
3399,37,-145,716,41,5,-9
3400,-97,106,984,-20,12,-2
3401,29,-67,905,3,-13,-3
3402,-43,-100,633,-5,-15,4
3403,94,111,830,-10,-20,-12
3404,-28,-65,595,-6,26,-6
3405,65,-161,612,-69,-20,-3
3406,-68,85,675,-66,25,-16
3407,-87,-83,813,-3,7,10
3408,-22,-55,959,-56,-20,-14
3409,36,13,857,-39,-4,-15
3410,-110,-56,688,24,5,13
3411,186,-58,635,-86,-30,-19
3412,-103,-48,771,27,41,-10
3413,15,-96,539,-12,17,0
3414,-60,-22,615,-99,6,-17
3415,-150,85,913,64,7,3
3416,54,-139,895,-81,-16,-11
3417,-11,-16,788,-2,-2,-7
3418,-19,109,869,40,-18,-1
3419,91,-168,391,-96,-12,-10
3420,-37,-108,650,13,-5,-7
3421,-65,55,727,-3,1,8
3422,2,-156,627,-77,-18,-2
3423,-114,106,916,60,11,-9
3424,86,-55,947,-88,-11,-12
3425,-68,-76,638,-13,3,11
3426,108,73,779,27,-20,-18
3427,-144,30,647,-107,30,-8
3428,6,-99,393,-8,-8,5
3429,-78,-35,943,29,-5,-10
3430,-100,-17,825,-86,-14,9
3431,-14,-80,952,44,-10,-14
3432,24,-16,760,-76,-9,-15
3433,-143,24,756,19,0,14
3434,184,-126,573,-5,-30,-22
3435,-78,47,830,-91,5,1
3436,-18,-46,505,35,24,5
3437,-110,-157,597,-1,21,-19
3438,-177,127,815,-26,21,6
3439,83,-163,905,33,6,-13
3440,-9,-24,771,-61,-11,-5
3441,-9,125,849,26,-3,-2
3442,29,-102,366,-48,10,-9
3443,-154,-21,410,-62,16,-7
3444,-96,11,905,93,51,-1
3445,15,-159,574,-77,-27,0
3446,-125,29,877,24,8,-6
3447,93,-42,796,3,6,-15
3448,-134,-59,621,-74,-6,13
3449,131,62,692,76,-28,-24
3450,-115,-68,579,-54,1,5
3451,-14,-143,359,-61,-43,11
3452,-70,14,840,2,4,-21
3453,-113,5,699,-97,9,21
3454,6,-97,857,44,-16,-19
3455,43,18,753,-62,-12,-16
3456,-114,49,708,12,-3,14
3457,201,-82,522,-4,-23,-24
3458,-211,-68,545,-61,-13,4
3459,-79,-24,514,-16,-43,17
3460,58,-118,725,-76,-33,-12
3461,-214,113,776,3,15,4
3462,116,-178,693,-20,-22,-14
3463,-58,-10,796,-27,-11,-7
3464,10,107,903,4,17,-8
3465,79,-81,296,-61,18,-18
3466,-224,-27,471,28,29,-14
3467,-167,45,844,-20,83,-16
3468,42,-140,409,-88,13,0
3469,-59,77,871,95,21,-6
3470,93,-70,664,-72,-22,-10
3471,-136,-100,714,23,7,6
3472,98,72,742,6,-1,-23
3473,-74,65,597,-62,53,-12
3474,-4,-42,386,42,18,-9
3475,-190,112,570,-126,54,-21
3476,-96,-93,543,29,28,18
3477,11,-20,814,-4,-5,-18
3478,26,19,742,-56,5,-15
3479,-146,-74,790,56,11,13
3480,227,-11,675,-66,-39,-25
3481,-146,0,690,27,-13,9
3482,-52,-90,393,-29,-33,24
3483,-23,-10,714,14,-46,-30
3484,-124,88,718,8,9,15
3485,115,-105,673,-66,-31,-12
3486,-28,-11,738,13,-6,-7
3487,-73,68,886,-17,0,5
3488,125,-89,507,-62,-15,-13
3489,-70,114,634,3,10,-5
3490,-122,209,537,-84,-41,32
3491,-162,-216,506,-33,-53,-12
3492,-180,90,654,-30,15,4
3493,114,-113,737,-32,-31,-15
3494,-102,-71,789,-15,-5,4
3495,64,38,922,-7,-15,-12
3496,10,23,514,-37,0,-9
3497,-124,-12,530,-62,-17,5
3498,-221,36,868,6,-64,7
3499,-24,-161,295,-73,-23,9
3500,25,8,829,-11,-8,-7
3501,80,2,747,-8,-11,-14
3502,-146,-94,732,-33,0,13
3503,160,6,857,20,-17,-25
3504,-80,25,716,-19,1,9
3505,-6,-75,444,-10,-37,8
3506,-55,40,834,76,-4,-28
3507,-68,1,553,-51,-12,11
3508,71,-62,829,14,-7,-13
3509,19,44,691,-52,-3,-15
3510,-133,-14,814,-12,5,12
3511,170,-48,734,8,-16,-25
3512,-93,130,809,-5,17,0
3513,-52,-1,462,57,47,-4
3514,-106,-92,658,-59,28,-33
3515,-227,69,652,29,31,9
3516,103,-110,691,-36,-13,-15
3517,-53,-23,800,-23,3,-2
3518,-13,88,897,11,7,-3
3519,88,-77,534,-75,5,-18
3520,-85,86,673,36,24,-12
3521,-173,178,665,-106,45,-6
3522,-109,-219,466,-40,-5,-1
3523,-101,86,651,17,19,-3
3524,95,-82,738,-55,-18,-10
3525,-115,-89,840,24,2,6
3526,83,43,902,-26,-15,-16
3527,-22,30,614,-17,5,-6
3528,-68,-32,543,-74,-10,2
3529,-226,33,847,-26,-44,7
3530,-18,-127,389,-43,-17,7
3531,23,0,840,-28,-9,-11
3532,75,10,730,5,-13,-17
3533,-139,-101,756,-24,0,13
3534,167,-7,841,3,-23,-26
3535,-87,46,754,-4,10,4
3536,3,-74,460,-43,-39,15
3537,-48,24,809,58,-24,-24
3538,-102,17,622,-63,-7,18
3539,75,-81,821,-32,-12,-13
3540,-4,43,696,11,6,-12
3541,-99,20,859,-27,3,11
3542,164,-49,719,13,-17,-21
3543,-76,132,728,18,-6,7
3544,-75,82,497,10,0,5
3545,-113,-114,610,39,-9,-30
3546,-239,70,644,-25,9,8
3547,105,-152,752,8,-7,-14
3548,-70,-25,813,-30,10,-1
3549,4,54,953,23,2,-3
3550,65,-50,475,-15,-10,-5
3551,-136,76,599,34,-8,1
3552,-187,79,763,65,46,-9
3553,-73,-207,377,-52,-2,-15
3554,-22,90,693,68,15,-3
3555,88,-58,773,-68,-12,-15
3556,-127,-105,794,-6,6,10
3557,120,38,867,17,-9,-20
3558,-32,-31,638,-25,11,0
3559,-23,-59,534,91,9,-3
3560,-99,23,827,-39,52,-28
3561,-9,-56,505,31,25,10
3562,39,-34,815,12,1,-12
3563,39,54,702,-58,0,-13
3564,-146,-76,746,23,13,13
3565,159,7,756,-50,-19,-26
3566,-85,131,857,53,37,-1
3567,-20,-47,392,-1,24,-9
3568,-121,-16,656,2,50,-31
3569,-217,25,663,16,25,10
3570,68,-92,772,-64,-13,-14
3571,-4,-8,744,38,12,-8
3572,-68,46,921,-55,3,5
3573,129,-57,609,13,-2,-21
3574,-136,111,621,27,25,-6
3575,-98,83,576,-43,66,-11
3576,-126,-185,471,43,24,-23
3577,-120,85,689,-56,23,4
3578,99,-122,784,24,-4,-17
3579,-87,-43,813,-36,8,5
3580,55,27,983,-8,0,-12
3581,51,-91,519,19,15,-11
3582,-91,-4,571,-30,8,-6
3583,-121,22,935,58,94,-21
3584,21,-104,426,-65,6,-5
3585,-15,23,816,17,12,-8
3586,74,0,728,-13,-4,-18
3587,-151,-89,727,-59,3,12
3588,123,50,823,41,-5,-24
3589,-73,82,776,-39,16,0
3590,10,-26,524,42,15,-3
3591,-114,62,660,25,53,-28
3592,-182,-41,619,-50,17,8
3593,9,-58,825,51,-3,-15
3594,42,-29,737,-71,0,-13
3595,-130,-59,859,33,11,12
3596,168,-36,773,3,-18,-22
3597,-211,162,602,-6,-5,8
3598,-39,-18,326,42,-4,14
3599,-162,-117,629,-2,-21,-28
3600,-81,32,681,12,15,11
3601,108,-131,723,-8,-15,-13
3602,-41,-4,823,-12,-1,-5
3603,-13,53,912,14,-1,3
3604,155,-157,521,-63,-16,-10
3605,-63,21,676,15,1,-4
3606,-121,91,763,-56,-29,23
3607,23,-120,612,-32,-46,-11
3608,-151,85,727,-23,11,1
3609,112,-63,670,-39,-24,-11
3610,-114,-72,785,-18,-3,5
3611,72,91,846,-18,-10,-16
3612,-20,-5,575,-20,21,-9
3613,16,21,563,-78,4,-4
3614,-216,188,658,-28,20,-2
3615,-91,-178,439,-65,-8,6
3616,-42,30,759,-27,4,-11
3617,59,-8,764,9,-15,-17
3618,-138,-122,784,-74,-2,13
3619,170,5,849,30,-11,-27
3620,-125,43,616,-19,40,-8
3621,-32,-121,340,-64,27,-2
3622,-123,-8,817,47,46,-27
3623,-32,-3,609,-118,20,10
3624,72,-96,863,36,0,-17
3625,-6,38,688,-31,-2,-13
3626,-97,17,836,-36,7,7
3627,168,-64,689,45,0,-25
3628,-91,116,746,-47,15,-3
3629,-85,22,527,47,61,-5
3630,-83,-111,646,-21,26,-27
3631,-217,85,672,-20,23,5
3632,115,-143,722,39,-5,-20
3633,-69,-20,811,-76,4,-2
3634,13,70,955,49,9,-7
3635,68,-61,456,-21,-2,-8
3636,-130,84,593,17,-3,-2
3637,-178,77,739,87,62,-11
3638,-80,-209,391,-73,-3,-11
3639,-34,91,695,77,15,-4
3640,88,-56,788,-47,-7,-16
3641,-131,-102,797,6,10,10
3642,134,45,851,41,-9,-19
3643,-32,-52,638,-35,-4,5
3644,-11,-38,563,47,-13,6
3645,-77,36,814,29,-19,-12
3646,-36,-41,567,-25,-2,7
3647,5,-31,811,28,-3,-12
3648,43,29,703,-38,-15,-12
3649,-142,-66,780,12,4,14
3650,153,-7,772,-22,-26,-22
3651,-92,160,732,-23,16,0
3652,-17,2,275,-73,-19,21
3653,-177,16,604,9,-44,-16
3654,-191,17,649,-63,7,13
3655,51,-107,806,-37,-19,-14
3656,-4,5,794,-3,-16,-9
3657,-62,3,972,-53,2,1
3658,182,-94,541,-10,1,-19
3659,-190,43,565,-23,25,-10
3660,-132,-17,667,-63,58,-4
3661,4,-128,542,-6,7,-15
3662,-84,78,820,-64,26,3
3663,102,-98,725,34,-2,-18
3664,-89,-36,773,-46,2,3
3665,33,85,861,0,-2,-11
3666,11,-46,641,42,14,-3
3667,32,44,640,-26,-17,-3
3668,-131,155,706,84,56,-17
3669,-138,-179,562,-30,-9,-3
3670,-104,43,710,-6,3,-4
3671,78,-45,746,46,2,-14
3672,-138,-109,784,-75,-5,15
3673,145,24,875,47,-16,-21
3674,-125,126,568,-39,13,2
3675,-43,-96,340,-69,-46,15
3676,-205,-18,754,60,-24,-14
3677,-21,-55,491,-75,-15,19
3678,67,-84,869,-14,-18,-15
3679,10,21,729,-13,-13,-10
3680,-116,-15,811,-33,-1,10
3681,193,-67,697,-28,-13,-26
3682,-104,58,803,-30,38,-13
3683,-63,-36,507,-31,19,3
3684,-49,-69,658,-96,11,-13
3685,-192,90,706,35,24,7
3686,116,-121,675,-86,-18,-17
3687,-46,-19,822,6,6,-6
3688,-6,66,922,5,6,-5
3689,105,-64,463,-56,-3,-16
3690,-132,90,609,90,19,-7
3691,-160,97,651,-22,59,-17
3692,-107,-240,423,-3,18,-9
3693,-72,104,697,50,16,-3
3694,96,-77,780,-93,-14,-16
3695,-124,-83,833,66,23,7
3696,129,64,859,-32,-19,-15
3697,-5,-76,576,-11,-2,1
3698,-21,-47,599,44,-13,6
3699,-92,49,859,-8,-27,-8
3700,-27,-54,549,30,2,6
3701,-20,-14,833,-19,-9,-10
3702,63,7,704,-29,-15,-13
3703,-138,-88,770,9,4,13
3704,148,14,816,-40,-27,-23
3705,-88,158,672,-21,28,-5
3706,5,-18,290,-95,-15,16
3707,-177,21,609,2,-29,-17
3708,-165,6,591,-71,8,16
3709,35,-88,866,-12,-13,-17
3710,6,14,781,-18,-9,-12
3711,-73,-9,940,-18,12,4
3712,187,-103,631,2,-4,-23
3713,-190,31,561,-25,20,-7
3714,-97,-32,603,20,61,-6
3715,18,-95,603,-15,21,-24
3716,-116,83,792,-45,22,4
3717,100,-126,704,40,-4,-18
3718,-78,-23,814,-54,6,-1
3719,13,85,888,33,-4,-4
3720,27,-74,593,-4,-1,-4
3721,15,73,636,-27,-31,2
3722,-125,219,651,45,-19,6
3723,-132,-206,534,-54,-27,0
3724,-141,86,672,28,4,-4
3725,74,-48,803,-17,-15,-11
3726,-122,-94,818,-44,-7,10
3727,151,28,858,-2,-7,-23
3728,-93,10,584,-38,35,-10
3729,-82,-91,410,22,19,-4
3730,-156,1,818,-55,60,-23
3731,11,-33,579,-22,17,9
3732,25,-59,856,12,-5,-15
3733,24,18,698,-51,5,-14
3734,-144,-32,809,69,13,11
3735,156,-33,712,-38,-27,-21
3736,-92,141,766,4,2,6
3737,-37,-1,273,-38,-26,21
3738,-153,-9,601,-21,-56,-20
3739,-209,60,673,-9,5,10
3740,80,-103,762,-57,-19,-13
3741,-22,-10,840,-13,-13,-5
3742,-19,31,967,-31,3,-2
3743,152,-113,459,-43,4,-18
3744,-191,3,543,41,26,-10
3745,-147,26,729,-68,66,-15
3746,30,-147,522,2,15,-6
3747,-98,82,822,-8,19,1
3748,101,-67,689,-34,-4,-16
3749,-119,-64,792,36,16,3
3750,63,87,817,-44,-19,-13
3751,-21,-17,650,43,5,-1
3752,54,11,625,3,-18,4
3753,-164,193,599,9,-28,-8
3754,-156,-171,549,28,1,5
3755,-92,34,758,-39,-7,-8
3756,74,-20,774,3,-16,-13
3757,-140,-115,812,-22,1,15
3758,158,18,866,-25,-23,-23
3759,-143,101,583,-16,31,-11
3760,-39,-113,343,-99,-5,12
3761,-164,-30,758,2,-7,-17
3762,-42,-8,608,-68,8,13
3763,62,-97,872,6,-13,-18
3764,-5,24,719,-42,-9,-14
3765,-92,13,847,-13,7,6
3766,158,-56,697,8,-9,-22
3767,-79,113,745,-7,6,2
3768,-85,24,462,51,32,0
3769,-92,-112,671,22,6,-29
3770,-219,104,668,-16,14,7
3771,110,-131,775,26,-12,-12
3772,-62,-18,852,-32,-7,-2
3773,28,49,989,6,-2,-2
3774,77,-48,442,-49,6,-13
3775,-183,11,554,-24,6,-6
3776,-164,15,809,-62,16,-1
3777,-7,-162,432,-90,-12,6
3778,-33,66,810,27,5,-7
3779,88,-48,704,-65,-7,-17
3780,-129,-85,791,7,9,8
3781,103,62,795,13,-15,-22
3782,-64,49,724,-30,-4,4
3783,21,-15,530,5,-23,2
3784,-133,113,567,18,-17,-12
3785,-158,-83,638,-19,-7,7
3786,-29,4,825,9,-2,-12
3787,44,-6,795,-59,-20,-9
3788,-131,-52,873,-3,7,9
3789,196,-12,743,-37,-10,-25
3790,-194,-8,600,15,34,-8
3791,-66,-100,400,13,25,-5
3792,-44,-53,721,-26,37,-23
3793,-93,53,793,43,31,10
3794,80,-111,717,-71,-21,-13
3795,-24,-8,804,46,8,-6
3796,-44,54,936,-30,4,1
3797,114,-78,506,-46,-5,-14
3798,-73,104,619,33,25,-13
3799,-102,117,546,-112,48,-5
3800,-93,-225,490,1,-1,-11
3801,-144,104,672,-37,16,1
3802,93,-85,824,-11,-8,-17
3803,-119,-55,854,18,9,2
3804,115,69,824,-43,-15,-13
3805,7,-124,552,4,17,-11
3806,17,-36,639,-74,5,-4
3807,-118,59,830,-41,27,-9
3808,-38,-101,631,-55,-7,4
3809,-101,26,778,-36,1,-11
3810,92,-41,744,8,-5,-18
3811,-143,-79,823,-45,2,11
3812,148,37,835,11,-17,-24
3813,-166,77,539,-32,34,-9
3814,-29,-108,321,-100,-2,8
3815,-121,-42,743,8,6,-21
3816,-65,13,670,-100,9,13
3817,44,-100,875,13,-5,-16
3818,3,3,725,-23,-4,-13
3819,-96,8,853,-20,4,8
3820,138,-63,637,-6,-6,-22
3821,-93,129,620,-52,32,-12
3822,-50,67,363,-29,22,6
3823,-88,-162,546,-80,1,-16
3824,-168,108,657,-19,23,7
3825,91,-132,838,0,-15,-17
3826,-89,-15,887,-33,1,-3
3827,45,76,839,27,7,-8
3828,52,-172,499,-58,12,-15
3829,9,-21,630,2,17,-9
3830,-121,86,783,-19,60,-12
3831,-26,-150,661,-107,4,1
3832,-143,91,704,72,17,-7
3833,103,-60,768,-56,-21,-14
3834,-129,-68,829,1,6,7
3835,143,51,835,23,-3,-24
3836,-107,-4,538,-55,35,-9
3837,-61,-97,394,78,24,-7
3838,-141,-10,802,-33,52,-21
3839,-20,-14,649,-12,17,7
3840,0,-60,859,52,5,-13
3841,43,-30,712,-73,-19,-8
3842,-134,-33,893,45,11,8
3843,178,-51,699,-34,-10,-25
3844,-190,171,536,13,14,0
3845,-4,-49,259,76,13,9
3846,-101,-143,588,-18,-9,-24
3847,-129,75,709,42,20,8
3848,88,-127,767,-35,-10,-13
3849,-47,-4,864,-22,-2,-3
3850,-16,63,835,32,-7,1
3851,88,-81,498,-64,-22,-8
3852,-2,61,682,24,-9,-1
3853,-136,173,515,-38,-17,15
3854,-77,-173,608,-49,-43,-9
3855,-179,129,666,-2,9,-1
3856,96,-74,850,-62,-15,-14
3857,-129,-71,835,2,8,4
3858,133,73,782,-14,-16,-18
3859,-22,-123,536,-38,26,-7
3860,23,-65,621,-22,10,-8
3861,-117,52,746,-84,56,-17
3862,-55,-95,677,3,7,9
3863,-80,23,808,-42,-3,-11
3864,80,-21,744,12,-4,-13
3865,-140,-54,815,-20,7,12
3866,165,25,740,-9,-18,-27
3867,-162,-45,550,58,14,2
3868,-23,-104,342,-29,-23,11
3869,-44,-23,809,80,-1,-23
3870,-120,63,757,-27,6,12
3871,47,-112,791,-61,-20,-14
3872,6,-5,776,30,2,-10
3873,-71,45,921,-44,2,8
3874,140,-87,454,-26,-12,-17
3875,-228,44,495,-21,19,-8
3876,-96,-1,609,-117,12,4
3877,0,-145,538,-23,-13,-14
3878,-129,97,854,-55,24,3
3879,98,-141,739,9,-9,-16
3880,-89,-35,822,-21,-6,2
3881,59,50,850,-15,-5,-15
3882,-5,-43,457,37,21,-5
3883,-24,69,446,4,-4,-6
3884,-136,7,694,88,39,-9
3885,-42,-167,404,-11,-10,0
3886,-68,50,820,-14,-1,-4
3887,85,-46,749,24,-2,-15
3888,-162,-68,736,-66,1,15
3889,132,21,728,21,-24,-21
3890,-102,90,710,-28,16,1
3891,70,-59,291,-109,-34,13
3892,-131,79,590,7,-9,-20
3893,-148,14,616,-96,3,17
3894,17,-56,925,-11,-13,-16
3895,6,5,812,-19,-14,-13
3896,-92,16,790,-20,13,2
3897,180,-88,597,14,5,-22
3898,-74,15,675,-10,30,-11
3899,-82,-12,438,48,44,0
3900,-11,-114,736,-24,13,-23
3901,-208,135,699,-6,16,5
3902,109,-116,804,24,-3,-16
3903,-68,-12,878,-63,-1,0
3904,30,82,853,40,-13,-4
3905,48,-161,376,-43,-7,-1
3906,-78,-80,529,-38,-30,-1
3907,-123,108,853,-5,-12,5
3908,34,-134,669,-99,-28,3
3909,-134,86,761,21,-3,-6
3910,98,-69,728,-42,-15,-13
3911,-124,-71,820,-23,11,5
3912,118,50,786,0,-7,-24
3913,-126,16,513,-47,33,-9
3914,-68,-96,363,31,15,-6
3915,-137,-4,785,-74,53,-20
3916,-10,-11,657,-1,22,7
3917,-3,-59,876,28,1,-13
3918,46,-33,716,-61,-15,-10
3919,-138,-33,882,45,10,10
3920,188,-58,668,-28,-18,-23
3921,-202,160,494,28,1,5
3922,1,-53,244,51,-6,15
3923,-89,-158,591,-12,-32,-23
3924,-127,75,731,11,6,8
3925,86,-126,757,-25,-5,-14
3926,-37,-4,840,-23,1,-4
3927,-29,64,826,22,-8,0
3928,82,-96,461,-84,-19,-9
3929,-15,60,655,-8,3,-5
3930,-128,183,498,-116,1,6
3931,-78,-202,566,-33,-24,-2
3932,-170,130,672,-25,7,-3
3933,94,-74,840,-41,-13,-14
3934,-132,-71,815,11,13,2
3935,127,78,761,-40,-10,-21
3936,-20,-101,548,5,32,-11
3937,37,-63,615,1,12,-12
3938,-123,62,663,-55,71,-22
3939,-89,-102,673,58,13,6
3940,-71,27,793,-58,-9,-9
3941,74,-7,764,19,-8,-11
3942,-135,-59,796,-22,7,14
3943,173,26,738,-32,-19,-26
3944,-164,-46,567,63,16,3
3945,-35,-101,330,-33,-24,13
3946,-27,-15,781,76,-8,-26
3947,-110,59,758,-9,10,14
3948,56,-112,771,-72,-23,-13
3949,0,-1,773,28,1,-10
3950,-74,34,921,-43,-6,10
3951,151,-75,466,-30,-21,-16
3952,-221,80,479,8,2,-1
3953,-77,-15,569,-94,-31,22
3954,-36,-178,483,-15,-32,-14
3955,-128,102,813,-42,21,7
3956,102,-134,743,-30,-14,-17
3957,-91,-32,803,-8,2,-1
3958,38,69,795,-16,-12,-10
3959,-5,-68,532,-34,16,-12
3960,14,37,544,-64,3,-4
3961,-150,176,602,-45,20,-6
3962,-75,-205,471,-99,-9,4
3963,-91,66,738,33,16,-9
3964,68,-27,827,-7,-7,-16
3965,-150,-82,734,-41,1,7
3966,173,29,766,37,-10,-25
3967,-82,-42,676,-63,42,-10
3968,28,-99,440,-18,24,-1
3969,-82,0,737,-33,37,-22
3970,-140,17,677,-94,15,11
3971,13,-59,822,59,-1,-16
3972,41,-10,792,-60,-14,-10
3973,-100,5,856,8,10,6
3974,185,-59,654,6,-1,-27
3975,-242,34,499,-52,38,-12
3976,-91,-30,497,61,54,-1
3977,8,-106,630,-93,15,-23
3978,-136,96,849,34,30,5
3979,103,-154,701,9,-14,-15
3980,-73,-10,853,-54,-11,-2
3981,10,64,906,48,15,-9
3982,54,-104,432,-62,9,-14
3983,-63,103,541,43,21,-11
3984,-153,65,610,49,74,-12
3985,-61,-221,449,-82,3,-7
3986,-95,106,704,106,27,-5
3987,94,-68,784,-84,-22,-11
3988,-126,-82,794,9,6,8
3989,127,62,750,31,-1,-21
3990,-53,-1,677,-56,20,-4
3991,28,-40,569,106,21,-4
3992,-114,55,604,-13,38,-16
3993,-126,-72,678,3,11,5
3994,-35,14,811,59,7,-11
3995,55,-11,788,-75,-17,-8
3996,-134,-37,855,40,10,11
3997,187,-4,702,-29,-16,-24
3998,-177,-43,574,11,9,3
3999,-56,-77,407,50,1,11
4000,-1,-42,749,0,-5,-23
4001,-117,83,811,32,21,12
4002,71,-112,726,-47,-16,-12
4003,-15,-20,831,-11,-4,-5
4004,-32,40,966,17,-1,5
4005,113,-72,418,-58,-23,-10
4006,-167,64,506,36,-4,0
4007,-86,11,641,-23,-24,15
4008,-31,-196,460,-19,-36,-13
4009,-122,97,769,0,13,2
4010,109,-103,724,-59,-21,-14
4011,-120,-46,850,-4,1,3
4012,84,59,782,-14,-19,-16
4013,-43,-14,578,-33,13,-8
4014,58,19,560,-52,2,-5
4015,-161,146,594,-51,20,-12
4016,-49,-131,517,-53,-10,4
4017,-93,49,810,-23,8,-11
4018,68,-28,764,5,-7,-17
4019,-142,-64,798,-41,4,8
4020,158,6,729,13,-7,-25
4021,-74,79,717,33,23,1
4022,26,-99,316,-26,-14,5
4023,-80,27,724,103,14,-21
4024,-154,45,683,-61,1,11
4025,16,-54,945,-24,-13,-13
4026,2,1,798,11,-2,-10
4027,-68,29,841,-55,4,2
4028,145,-121,520,12,-2,-19
4029,-54,-15,650,-6,30,-12
4030,-94,2,520,-5,41,-1
4031,17,-94,783,39,15,-19
4032,-183,122,710,-57,5,4
4033,95,-97,899,19,-9,-16
4034,-70,-28,876,-30,2,1
4035,62,48,800,-34,-2,-12
4036,-11,-103,471,26,20,-9
4037,57,-54,642,-23,6,-10
4038,-127,91,726,68,47,-2
4039,-12,-102,680,-41,-7,-3
4040,-117,61,822,-9,1,-6
4041,97,-58,836,12,-10,-15
4042,-147,-43,784,-46,3,11
4043,144,6,732,27,-12,-22
4044,-92,68,766,2,10,8
4045,76,-94,399,-61,-36,6
4046,-111,57,663,37,8,-20
4047,-86,28,683,-97,-2,13
4048,-15,-57,1024,9,-7,-12
4049,33,-25,830,-25,-15,-14
4050,-94,3,852,-36,9,1
4051,129,-100,572,15,3,-21
4052,-73,91,653,-9,30,-6
4053,15,-14,479,48,12,10
4054,-23,-151,646,-8,-12,-13
4055,-153,102,810,-32,-2,3
4056,78,-123,898,5,-7,-13
4057,-58,-27,868,-43,1,-1
4058,13,46,899,-4,2,-10
4059,9,-158,420,-19,12,-9
4060,-35,-25,569,-5,12,-10
4061,-105,62,947,63,23,6
4062,2,-137,779,-61,-12,-3
4063,-113,55,919,24,3,-7
4064,81,-54,847,-18,-11,-13
4065,-120,-54,738,-42,9,7
4066,132,9,767,23,-6,-24
4067,-99,15,770,-10,21,5
4068,69,-108,510,5,-11,2
4069,-85,51,707,41,8,-16
4070,-80,17,745,-85,-10,10
4071,-13,-63,1046,27,-7,-12
4072,34,-25,878,-40,-13,-12
4073,-103,8,890,-6,9,7
4074,139,-129,559,3,-9,-18
4075,-86,83,600,-33,-1,0
4076,-21,-20,567,-23,3,-4
4077,-16,-173,797,-20,11,-16
4078,-146,97,869,-35,16,3
4079,69,-107,953,16,-3,-14
4080,-39,-21,856,-49,-13,-2
4081,28,56,845,4,-1,-11
4082,0,-86,543,1,18,-6
4083,35,-84,753,-20,7,-8
4084,-75,112,754,38,7,-1
4085,-21,-119,654,-96,-21,1
4086,-89,41,949,14,3,-7
4087,76,-61,913,-11,-9,-15
4088,-122,-70,821,-49,0,9
4089,132,7,775,39,-14,-22
4090,-96,-41,693,-27,28,-5
4091,64,-70,502,-34,-4,3
4092,-66,-30,1000,45,0,-14
4093,-100,10,876,-97,-9,6
4094,-5,-68,1065,19,-2,-12
4095,22,-24,863,-26,-10,-12
4096,-93,47,893,-30,3,0
4097,108,-141,555,14,-6,-15
4098,-34,38,753,-11,18,-3
4099,-14,31,687,-26,13,-9
4100,-14,-141,821,2,4,-11
4101,-125,70,931,-59,4,0
4102,47,-93,992,26,-5,-11
4103,-53,-38,854,-35,-8,1
4104,49,52,839,-7,-14,-9
4105,-5,-79,710,5,12,-8
4106,70,-42,786,-70,-2,-4
4107,-62,49,817,26,3,-5
4108,-43,-106,801,-51,-13,0
4109,-65,8,1036,-29,-1,-9
4110,45,-32,894,23,-5,-12
4111,-101,-44,793,-37,-2,9
4112,148,-21,761,1,-17,-21
4113,-75,12,935,10,27,-6
4114,54,-51,587,-79,-4,0
4115,-49,-32,876,27,8,-14
4116,-99,36,907,-41,-1,5
4117,1,-82,1034,-42,-7,-9
4118,-7,-20,907,18,-2,-8
4119,-34,51,956,-40,-5,-1
4120,66,-158,552,-6,-9,-10
4121,3,29,838,27,8,-5
4122,-42,43,885,-48,11,3
4123,-32,-111,910,-8,-1,-4
4124,-97,60,971,-13,2,-4
4125,30,-76,990,-37,-9,-9
4126,-50,-84,876,15,-6,2
4127,77,6,857,-20,-16,-15
4128,-39,35,807,-16,9,1
4129,36,-64,716,3,-1,-3
4130,-25,41,856,-18,11,-8
4131,-68,-16,921,-21,1,3
4132,-22,-29,1058,-17,-8,-10
4133,20,-25,935,-46,-10,-10
4134,-44,15,925,0,10,-2
4135,112,-89,695,-16,-5,-16
4136,-50,34,960,-38,11,-7
4137,3,-4,849,9,6,-1
4138,-45,-54,932,-34,2,-6
4139,-93,47,934,-18,0,-1
4140,16,-80,1031,-13,-7,-11
4141,-22,-41,945,-44,-9,-3
4142,48,13,950,21,-5,-10
4143,-7,-26,794,-10,5,-5
4144,24,10,913,-9,1,-6
4145,-59,78,913,-11,18,-9
4146,-68,-57,891,-20,7,2
4147,-41,-7,1012,-20,-1,-10
4148,13,-43,895,-10,-10,-8
4149,-47,-34,932,-18,-5,4
4150,96,-54,779,1,-11,-20
4151,-70,64,989,-8,19,-3
4152,20,-22,755,-20,2,-2
4153,-45,5,928,-20,2,-7
4154,-89,45,853,-16,-3,0
4155,12,-82,947,-31,-10,-9
4156,-23,-19,921,5,2,-6
4157,32,33,938,-27,5,-11
4158,2,-80,655,-21,1,-8
4159,26,14,829,-23,8,-5
4160,-36,84,924,-2,21,-5
4161,-42,-58,677,-54,4,3
4162,-31,0,861,17,4,-10
4163,17,-62,794,-24,-12,-7
4164,-68,-31,954,-10,-5,4
4165,97,-32,810,19,-9,-18
4166,-67,-6,1054,-17,13,0
4167,36,-75,642,-13,-6,1
4168,-36,-2,927,2,-10,-8
4169,-99,20,817,-30,1,2
4170,24,-71,803,-18,1,-13
4171,-26,-22,878,-21,-3,-3
4172,33,18,1008,5,-8,-4
4173,20,-86,702,-6,-8,-8
4174,-17,38,852,-8,2,-5
4175,-28,60,908,-1,11,-1
4176,-36,-97,700,-55,-4,3
4177,-64,-6,842,-7,-12,-9
4178,28,-69,783,-19,-12,-10
4179,-65,-19,914,-17,5,0
4180,121,-22,849,-6,-11,-17
4181,-47,39,1009,-20,18,-6
4182,59,-32,517,-29,1,-5
4183,-40,1,798,21,23,-16
4184,-96,36,858,-17,12,-1
4185,36,-78,852,-28,-12,-13
4186,-31,-23,865,5,-4,-4
4187,40,20,1043,-23,-8,-5
4188,48,-77,698,-26,5,-13
4189,-4,39,809,9,12,-5
4190,-9,78,859,-1,10,-3
4191,-26,-95,693,-6,-3,-4
4192,-75,15,880,-3,3,-9
4193,34,-72,784,-20,-7,-10
4194,-67,-17,928,-6,1,2
4195,110,-7,865,-8,-6,-14
4196,-56,20,1055,-2,14,-1
4197,29,-49,645,-51,4,-5
4198,-53,-47,920,-5,22,-8
4199,-117,38,886,-14,5,3
4200,20,-70,855,-42,-12,-10
4201,-20,-19,872,14,3,-5
4202,17,-9,1058,-18,-2,-4
4203,31,-93,797,-17,0,-13
4204,-1,-4,870,-10,9,-2
4205,-40,26,826,-17,23,-6
4206,-44,-57,675,-20,4,-2
4207,-65,14,861,-10,2,-6
4208,28,-57,795,-15,-10,-10
4209,-61,-19,956,-21,-4,-1
4210,120,-31,851,-26,-12,-13
4211,-42,48,961,10,6,1
4212,5,-37,642,-44,2,-6
4213,-30,-49,880,-14,17,-9
4214,-106,35,846,-14,2,0
4215,11,-72,854,-44,-13,-8
4216,-17,-32,913,0,-1,-7
4217,37,-8,970,-29,-1,-8
4218,23,-43,753,-10,-1,-7
4219,36,-9,701,-16,1,-4
4220,-49,74,764,-12,13,-8
4221,-66,-61,744,-14,4,0
4222,-48,-1,917,-13,-3,-9
4223,16,-41,758,-16,-9,-8
4224,-51,-42,950,-12,-7,-1
4225,115,-61,849,-29,-12,-13
4226,-19,33,808,17,7,0
4227,2,16,567,-35,8,-6
4228,-28,-44,693,-6,10,-10
4229,-109,44,818,-18,6,-2
4230,21,-89,854,-10,-9,-8
4231,-35,-27,870,-13,-8,-5
4232,58,-9,902,-28,-4,-11
4233,11,-14,770,-1,10,-3
4234,51,-30,565,-18,-2,-2
4235,-66,68,705,3,15,-3
4236,-87,-26,860,-17,-3,-1
4237,-24,-28,896,-22,-6,-11
4238,13,-46,801,-20,-6,-7
4239,-20,-1,953,-11,-4,-1
4240,98,-64,656,-18,-17,-11
4241,-20,27,846,8,8,-2
4242,-63,36,804,-21,6,-6
4243,-49,-64,811,-21,3,-6
4244,-83,18,769,-2,3,-5
4245,19,-63,883,-35,-9,-7
4246,-36,-38,873,-12,-2,-2
4247,70,-8,963,-18,-15,-13
4248,-20,-7,824,-24,6,-3
4249,20,-46,526,5,0,5
4250,-37,26,783,-9,3,-7
4251,-78,9,737,-39,2,1
4252,-8,-59,910,-4,-5,-8
4253,-15,-22,876,-38,-15,-8
4254,26,-3,914,12,-8,-3
4255,62,-67,626,-3,-4,-4
4256,-1,39,824,0,2,-6
4257,-63,68,902,10,16,-2
4258,-54,-53,742,-15,3,-2
4259,-68,-3,807,-15,-6,-8
4260,14,-59,880,-16,-12,-7
4261,-47,-40,942,-17,-6,-2
4262,104,-41,852,-17,-11,-10
4263,-10,26,751,4,3,-2
4264,-8,44,571,-45,0,-1
4265,-70,36,833,-25,12,-5
4266,-91,-1,780,-2,5,-2
4267,3,-72,908,-41,-14,-8
4268,-21,-27,929,11,-4,-6
4269,41,-22,915,-6,-3,-8
4270,9,-21,756,-11,3,-2
4271,41,-28,664,6,2,-4
4272,-85,88,680,-29,4,-5
4273,-57,-9,818,-14,4,0
4274,-34,-37,835,-18,-3,-10
4275,7,-36,847,-20,-4,-7
4276,-17,-32,968,15,-1,-1
4277,65,-36,651,-19,-12,-9
4278,15,8,829,-2,6,-4
4279,-50,25,684,-24,23,-5
4280,-33,-16,732,-13,9,-3
4281,-78,-8,752,-1,0,-6
4282,12,-58,809,-37,-12,-7
4283,-29,-51,902,-11,-2,-5
4284,75,-23,841,-22,-5,-12
4285,-4,82,675,8,2,-1
4286,12,-66,660,-16,4,-5
4287,26,29,740,-15,15,-10
4288,-34,-18,532,-7,12,1
4289,-1,-52,806,-31,-7,-9
4290,2,-34,867,-11,-7,-8
4291,13,-19,847,-3,-3,-7
4292,44,-25,607,-12,0,-6
4293,46,27,759,-19,2,-2
4294,-62,-10,568,15,3,-4
4295,33,-1,442,-38,-2,0
4296,-42,0,664,-10,0,-9
4297,12,-29,768,-11,-7,-6
4298,-29,-149,815,-16,-9,-1
4299,159,-10,588,-17,-14,-13
4300,-31,14,645,-18,19,-8
4301,0,-150,534,-30,23,-7
4302,53,-9,528,-3,10,-4
4303,-82,-30,533,-22,-1,-5
4304,18,-66,753,-15,-4,-8
4305,-79,-65,751,3,-2,-2
4306,90,-33,627,-2,-10,-11
4307,41,-99,680,-6,14,-5
4308,44,-84,547,-53,6,4
4309,-32,-35,483,-6,-5,-9
4310,-50,133,475,-34,5,-1
4311,13,-80,665,-15,-2,-9
4312,-5,-38,788,-3,-6,-7
4313,108,-98,772,-20,-4,-7
4314,37,-29,475,-1,1,-9
4315,-18,-92,537,-39,-1,2
4316,136,2,667,-3,-6,-2
4317,17,-54,345,-42,-3,-1
4318,-30,18,738,-17,1,-10
4319,27,-45,752,-11,-6,-11
4320,-36,-89,802,-17,-3,-3
4321,112,-103,566,2,-9,-11
4322,-38,34,696,-3,9,-2
4323,-12,-114,482,-29,-2,5
4324,-6,4,556,-24,-10,-6
4325,-73,8,548,-31,3,-4
4326,14,-70,750,-6,-5,-9
4327,-52,-61,779,-20,-7,-5
4328,114,2,613,-7,-8,-14
4329,26,-116,673,5,10,-3
4330,54,-85,546,-60,-3,7
4331,-12,-7,487,11,-9,-8
4332,-46,105,509,-61,3,1
4333,14,-70,728,-4,-1,-8
4334,-15,-35,824,-6,-7,-8
4335,132,-85,785,-10,-12,-6
4336,34,-59,497,17,5,-11
4337,-19,-59,587,-50,9,-1
4338,119,68,659,-24,11,-6
4339,3,-62,359,-34,0,2
4340,-27,18,790,-35,-5,-8
4341,36,-47,796,13,-4,-10
4342,-21,-114,805,-16,-12,3
4343,122,-81,589,-15,-16,-18
4344,-50,55,663,-3,22,-8
4345,35,-137,504,-58,26,-5
4346,41,-10,612,4,12,-6
4347,-102,-9,581,-27,-7,-6
4348,17,-73,816,-28,-4,-8
4349,-80,-78,773,2,2,-3
4350,104,-37,668,-39,-17,-13
4351,15,-58,764,8,18,-6
4352,1,-91,508,6,10,3
4353,-5,-34,595,-1,8,-11
4354,-79,104,611,2,12,2
4355,18,-72,713,-39,-14,-8
4356,-15,-50,850,-12,-5,-8
4357,59,55,821,-6,7,-6
4358,67,-146,491,-3,2,-5
4359,52,-46,755,-3,2,1
4360,-9,46,544,-2,-5,-3
4361,7,-37,436,-47,0,2
4362,-31,18,803,-8,-1,-10
4363,10,-33,794,-13,-9,-7
4364,22,-73,797,-10,-14,3
4365,156,-69,589,1,-15,-18
4366,-67,-5,706,-26,15,-7
4367,32,84,618,-51,23,-6
4368,50,-35,509,-1,6,-5
4369,-27,27,659,-27,-6,-6
4370,26,-57,865,-18,-4,-8
4371,-48,-123,805,-6,2,-2
4372,138,-38,775,-38,-18,-12
4373,3,12,746,11,16,-4
4374,36,-164,478,3,5,3
4375,55,52,677,2,6,-10
4376,-92,-34,577,-8,10,1
4377,21,-66,862,-28,-11,-8
4378,-9,-39,883,-15,-7,-5
4379,16,-80,853,12,-6,-5
4380,49,-22,681,-18,4,-12
4381,-2,-11,640,-39,6,-4
4382,14,-103,620,-34,16,-10
4383,-34,-5,666,-16,6,2
4384,-37,-18,844,-34,-8,-10
4385,8,-42,829,-5,-3,-9
4386,-32,-23,908,-28,-3,-4
4387,110,-116,608,-26,-15,-10
4388,2,0,801,25,12,-6
4389,-35,-52,690,-10,4,4
4390,-33,-17,735,-17,3,-4
4391,-84,30,734,-20,-2,-7
4392,29,-77,836,-15,-7,-6
4393,-58,-38,892,-12,-6,2
4394,91,-5,740,-4,-22,-13
4395,6,-52,858,-34,19,-10
4396,-12,-54,617,-23,17,0
4397,-14,-48,657,-1,15,-10
4398,-83,83,785,4,8,1
4399,10,-62,825,-28,-12,-8
4400,-20,-38,929,-9,-3,-3
4401,46,40,857,10,-10,-6
4402,40,-107,683,-28,2,-13
4403,14,-43,813,-16,8,-5
4404,-50,3,621,-35,18,-10
4405,-37,0,765,-9,9,0
4406,-4,-24,899,-16,-9,-11
4407,-11,-48,876,-32,-8,-8
4408,-14,42,962,17,-2,0
4409,94,-114,650,-23,-7,-16
4410,-9,-18,886,-11,9,-4
4411,-31,16,729,-34,21,-8
4412,-25,-69,751,-35,11,-2
4413,-54,39,865,10,0,-8
4414,19,-71,862,-45,-9,-8
4415,-53,-27,945,0,-3,0
4416,98,-13,785,1,-19,-15
4417,-12,-24,897,-41,17,-9
4418,-20,-15,686,-1,15,0
4419,0,-72,795,-11,15,-8
4420,-109,38,886,-19,3,-1
4421,23,-78,899,-5,-5,-7
4422,-38,-30,966,-23,-2,-3
4423,43,8,907,-26,-9,-11
4424,20,-27,867,0,2,-3
4425,22,-42,738,-16,0,0
4426,-50,-40,746,-3,8,-7
4427,-96,10,885,-33,4,2
4428,-1,-43,942,-20,-11,-10
4429,-2,-49,932,-24,-12,-8
4430,0,1,984,3,-6,-2
4431,59,-66,784,-22,-5,-14
4432,-6,32,894,-4,17,-5
4433,-20,27,840,0,18,-1
4434,-84,-66,738,-33,13,0
4435,-50,4,939,-12,-1,-8
4436,8,-50,948,-14,-13,-6
4437,-45,-16,958,-8,-7,-1
4438,114,-70,876,0,-4,-13
4439,-27,-5,917,-27,12,-4
4440,-12,33,788,-20,14,-4
4441,-38,-49,763,-11,12,-6
4442,-94,36,913,-26,2,-4
4443,20,-66,942,-6,-11,-5
4444,-37,-34,936,-6,-8,-4
4445,81,-4,920,4,-3,-10
4446,0,-27,917,-13,13,-9
4447,17,-47,784,-31,8,0
4448,-50,1,833,0,13,-9
4449,-113,15,961,-19,10,1
4450,18,-63,994,-28,-11,-11
4451,-30,-24,951,-4,-10,-4
4452,32,-1,1003,-3,-17,-2
4453,45,-39,887,-20,4,-9
4454,4,1,905,1,14,-4
4455,-9,22,819,-5,6,-1
4456,-107,-26,804,-18,7,0
4457,-24,-12,1008,-21,-7,-9
4458,-6,-40,936,-18,-2,-7
4459,-2,14,980,-23,-3,-5
4460,83,-88,833,-9,-2,-9
4461,-6,3,945,-8,7,-2
4462,-21,3,854,-31,15,-3
4463,-74,-49,911,-10,13,-1
4464,-68,18,987,-13,-3,-8
4465,13,-71,944,-31,-12,-7
4466,-43,-23,949,-18,-6,-3
4467,96,-27,949,-30,-16,-13
4468,-21,25,1009,0,0,-4
4469,7,4,815,-36,7,-6
4470,-40,-19,822,-26,17,-9
4471,-102,26,952,-7,6,-2
4472,13,-69,972,-28,-13,-10
4473,-40,-35,977,-26,-9,-4
4474,52,1,978,-28,-9,-9
4475,13,-16,973,-11,3,-4
4476,23,-30,823,-18,-1,-7
4477,-11,1,846,-23,14,-10
4478,-123,14,930,-14,14,1
4479,-1,-41,1038,-24,-6,-10
4480,-22,-38,959,-17,-5,-7
4481,31,22,1008,-13,-1,-6
4482,56,-86,846,-14,6,-12
4483,11,13,967,-5,15,-3
4484,-23,-21,819,14,8,0
4485,-99,-21,902,-36,4,0
4486,-38,-8,1010,-1,-4,-9
4487,0,-50,949,-17,-11,-6
4488,-14,0,975,-12,-12,0
4489,104,-66,887,-16,-12,-10
4490,-15,12,977,-14,9,-3
4491,-2,-14,837,-11,10,-7
4492,-77,-46,920,-20,11,-3
4493,-72,18,985,-11,0,-6
4494,2,-58,991,-10,-3,-5
4495,-27,-34,931,-1,-7,-1
4496,94,-21,963,7,-14,-12
4497,0,-11,993,-17,3,-5
4498,4,-43,830,-13,11,-5
4499,-46,-14,903,-30,17,-7
4500,-114,19,994,-5,6,-2
4501,6,-62,1005,-15,-6,-8
4502,-29,-38,968,-4,-4,-3
4503,77,4,966,6,-15,-8
4504,28,-36,923,-18,-7,-7
4505,25,-36,913,-17,7,-5
4506,-36,-14,849,-4,22,-7
4507,-128,3,983,-25,10,1
4508,-4,-42,1024,-20,-12,-9
4509,-29,-37,967,-16,-13,-7
4510,39,22,1007,-31,-9,-8
4511,58,-80,868,-21,3,-11
4512,8,14,978,-7,11,-4
4513,-13,-24,847,-16,-4,-4
4514,-102,-21,913,-37,12,1
4515,-37,-11,1002,-8,-1,-7
4516,-9,-48,964,-1,-4,-7
4517,-7,6,1011,-7,-14,-1
4518,81,-61,896,-12,-11,-12
4519,2,25,1040,-11,9,-4
4520,-6,18,857,-5,7,2
4521,-71,-40,909,-6,3,-3
4522,-62,9,971,-26,0,-6
4523,0,-62,979,-5,1,-7
4524,-29,-32,953,-6,-7,-1
4525,84,-30,953,-2,-16,-11
4526,-12,26,1043,-12,6,-5
4527,5,4,920,-27,6,0
4528,-58,-16,958,3,9,-5
4529,-91,11,1001,-19,-3,-2
4530,1,-58,1008,-23,-9,-7
4531,-25,-42,955,8,-4,-5
4532,77,-7,967,-22,-16,-7
4533,13,-18,936,-22,4,-8
4534,24,-40,851,-18,8,-4
4535,-26,-10,885,-24,4,-6
4536,-107,9,954,-34,10,0
4537,-11,-52,1029,-13,-8,-12
4538,-27,-27,971,-27,-17,-6
4539,29,0,996,-12,-2,-9
4540,46,-31,923,-1,2,-8
4541,15,6,995,-22,5,-3
4542,-29,22,945,13,9,-2
4543,-110,-22,969,-29,7,1
4544,-26,-14,1021,-16,-5,-8
4545,-15,-44,963,5,-4,-5
4546,15,19,1001,-32,-12,-7
4547,74,-76,866,-10,-7,-7
4548,19,20,981,2,5,-6
4549,5,7,864,-19,18,-1
4550,-89,-34,878,0,11,-2
4551,-56,3,991,-31,-8,-6
4552,-10,-57,968,4,-8,-4
4553,-21,-22,986,-13,-4,-5
4554,101,-49,922,-35,-6,-11
4555,0,10,978,-3,4,-3
4556,1,-46,855,-4,2,1
4557,-65,-33,943,-26,9,-2
4558,-77,13,969,-6,6,-3
4559,-7,-55,1006,-35,-12,-8
4560,-24,-38,934,-12,-11,-3
4561,68,-17,965,8,-3,-11
4562,6,9,1029,-12,17,-7
4563,0,-51,876,-15,15,-5
4564,-46,-15,939,-35,14,-5
4565,-113,10,979,-2,4,-3
4566,-5,-44,1006,-23,-8,-9
4567,-15,-41,969,0,-2,-5
4568,45,-4,973,-20,-11,-10
4569,22,-1,1023,-28,-1,-8
4570,7,-23,897,-18,0,-3
4571,-47,2,985,-27,5,-7
4572,-112,-7,1002,-23,6,0
4573,-19,-41,1021,-12,-7,-10
4574,-15,-29,976,-32,-8,-8
4575,33,0,1004,6,-13,-7
4576,44,-34,935,-35,-4,-6
4577,10,9,995,-7,2,-4
4578,-37,-1,928,3,3,-4
4579,-108,-29,972,-41,2,1
4580,-29,-15,1032,0,-1,-10
4581,-6,-44,965,-30,-5,-8
4582,8,10,1022,-18,-10,-5
4583,68,-63,889,-9,-9,-9
4584,-6,33,1032,-24,0,-6
4585,-29,-4,970,-28,7,-2
4586,-91,-47,945,-17,9,0
4587,-53,-1,1006,-19,-7,-6
4588,-8,-47,977,-6,-5,-6
4589,-11,-12,984,-10,-3,-5
4590,83,-51,913,-22,-3,-11
4591,-9,23,1026,-19,14,-7
4592,-21,-32,905,-20,16,-6
4593,-60,-47,922,-25,13,-1
4594,-75,1,971,-22,0,-4
4595,-8,-56,999,-21,-13,-8
4596,-26,-48,967,-17,-13,-2
4597,86,-31,967,-3,-15,-10
4598,15,1,1008,-9,0,-4
4599,-14,-48,820,-24,5,-3
4600,-36,-19,883,-19,7,-4
4601,-94,10,919,-19,0,-4
4602,-4,-65,1010,-6,-11,-7
4603,-24,-55,947,-4,-2,-6
4604,80,-12,1004,6,0,-9
4605,36,-8,1006,0,7,-5
4606,11,-30,799,-4,7,-1
4607,-32,17,811,12,9,-7
4608,-105,5,879,-34,11,0
4609,-3,-54,1001,-10,-2,-7
4610,-9,-43,963,9,-7,-7
4611,46,8,982,-21,-8,-7
4612,43,-13,997,17,10,-8
4613,9,-21,892,0,12,-3
4614,-47,-21,888,-2,10,-3
4615,-122,-8,912,-14,4,1
4616,-21,-38,994,-16,-7,-8
4617,-14,-40,977,-6,-1,-8
4618,19,-13,1021,6,1,-6
4619,57,-53,875,-5,-7,-8
4620,8,-10,946,5,5,-3
4621,-6,-79,811,-14,9,-4
4622,-73,-9,846,-28,11,1
4623,-45,-18,995,-18,-3,-8
4624,5,-54,963,4,-12,-7
4625,2,-6,1013,-1,-11,-1
4626,95,-67,846,-9,-9,-10
4627,9,23,941,-9,7,-3
4628,-14,25,788,-39,13,-4
4629,-79,-52,731,-31,10,-3
4630,-66,3,954,-8,-3,-7
4631,0,-45,960,-29,-17,-7
4632,-23,-18,968,-15,-12,-4
4633,91,-49,890,-30,-13,-12
4634,-12,7,1001,-27,14,-9
4635,-1,-82,825,-8,13,-1
4636,-17,-75,814,-18,9,-4
4637,-77,4,923,-21,1,-5
4638,-2,-60,1001,-27,-3,-7
4639,-36,-47,910,-19,-4,-5
4640,108,-35,938,-21,-3,-12
4641,25,9,936,26,12,-5
4642,-10,-39,671,-14,11,1
4643,-3,15,697,-16,9,-4
4644,-101,16,860,-14,2,-3
4645,2,-52,983,-11,-11,-6
4646,-15,-51,903,-2,-10,-5
4647,63,5,972,16,-6,-10
4648,18,-11,1039,-30,2,-7
4649,15,-105,798,-31,6,-2
4650,-22,-54,814,-23,9,-8
4651,-99,1,888,-17,10,-3
4652,-4,-53,983,-29,-9,-9
4653,-17,-45,951,-28,-11,-7
4654,46,-8,978,-36,-11,-9
4655,56,-25,891,-7,0,-10
4656,15,-81,752,-12,10,-2
4657,34,16,702,4,12,-4
4658,-111,11,809,-24,7,1
4659,-18,-34,975,-12,-9,-7
4660,0,-45,937,-6,-3,-7
4661,12,29,1008,3,1,-4
4662,63,-51,915,-4,-2,-8
4663,13,-42,935,-12,5,-1
4664,-28,-70,751,-24,10,-6
4665,-68,-48,837,-19,12,0
4666,-35,-11,985,-25,-6,-8
4667,-4,-40,961,-16,-13,-7
4668,-3,-17,1021,-22,-12,-5
4669,94,-80,829,-25,-12,-12
4670,-10,14,877,-11,12,-7
4671,36,-45,738,-12,14,-2
4672,-32,-17,715,-18,12,-3
4673,-55,0,956,-9,-6,-6
4674,12,-56,940,-24,-6,-7
4675,-27,12,951,-12,2,-5
4676,113,-65,856,-4,-3,-11
4677,-12,-10,1017,8,6,-4
4678,-24,-51,795,-20,10,-3
4679,-29,-86,730,-23,9,-2
4680,-77,8,939,-20,2,-6
4681,5,-51,988,-13,-14,-5
4682,-53,-49,938,-4,-9,-3
4683,106,-39,923,-9,-18,-13
4684,15,-2,925,-28,8,-10
