sequence,AccelerometerX,AccelerometerY,AccelerometerZ,GyroscopeX,GyroscopeY,GyroscopeZ
0,-40,-32,909,-15,-13,-4
1,77,39,765,5,0,-12
2,-78,-108,907,-22,16,12
3,133,-6,944,-5,-8,-28
4,-56,31,895,-21,2,18
5,21,-1,535,-79,-35,21
6,66,11,941,-95,-29,12
7,-154,41,720,-36,25,6
8,74,-118,957,-31,-24,-15
9,-16,-17,881,5,-13,-11
10,-42,26,1041,-12,-6,10
11,135,-74,747,-29,-5,-24
12,-69,89,871,-5,34,-12
13,-43,65,721,31,43,-23
14,-124,-153,752,41,18,-38
15,-178,67,807,-9,18,3
16,97,-119,757,-15,-10,-12
17,-78,-51,908,-14,8,-3
18,64,42,1050,15,-5,-10
19,17,-125,760,-33,-1,-2
20,10,71,810,-20,-14,6
21,2,141,949,-139,-7,19
22,10,-129,671,-67,-6,0
23,-39,32,891,6,-4,-10
24,82,-61,850,-21,-20,-16
25,-93,-101,893,-35,6,9
26,122,47,983,-14,-14,-26
27,-104,54,832,16,13,2
28,28,-38,592,-9,-20,4
29,-130,17,948,12,-41,16
30,-150,-34,646,-79,-7,10
31,-7,-66,910,-3,-10,-9
32,44,-2,832,-27,-11,-12
33,-74,-25,941,-42,-2,11
34,143,-33,853,-12,-14,-26
35,-77,101,980,25,12,1
36,1,88,556,2,-20,19
37,35,-83,843,-3,-44,1
38,-163,51,762,-51,8,9
39,94,-119,830,-21,-20,-12
40,-37,-23,926,-29,-2,-6
41,29,25,1078,-18,-7,-5
42,62,-131,691,-20,-2,-13
43,-62,71,839,20,-4,2
44,-76,96,874,-85,-25,28
45,-5,-148,684,-90,-38,-1
46,-95,63,915,-15,9,-6
47,96,-77,811,-37,-16,-15
48,-92,-85,951,-25,4,3
49,111,52,1022,15,-17,-20
50,-75,-44,755,-54,13,4
51,-24,-7,674,-42,1,-8
52,-171,-61,974,-30,64,-30
53,-74,-76,599,-31,3,-4
54,-47,-30,999,20,0,-10
55,63,-27,758,-10,1,-10
56,-78,-62,948,-17,9,13
57,148,7,937,-9,-21,-23
58,-105,109,817,22,15,5
59,9,-68,480,-28,-25,13
60,-102,-91,911,-35,-32,5
61,-170,47,745,-63,6,6
62,51,-113,917,-26,-18,-12
63,-18,-7,819,-15,-5,-11
64,-1,37,1049,-29,-6,5
65,88,-54,704,-4,1,-19
66,-23,80,829,34,17,-9
67,-12,25,780,23,-12,11
68,-67,-173,693,-12,-23,-6
69,-162,76,910,-39,6,5
70,104,-102,788,-35,-23,-10
71,-90,-60,913,-25,5,1
72,94,61,991,-33,-14,-12
73,-58,11,755,12,19,-2
74,40,2,686,9,-13,-6
75,-33,6,962,-63,-39,26
76,-85,-100,573,-58,-8,5
77,-63,-15,986,-34,-3,-9
78,77,-25,772,-11,-17,-16
79,-95,-79,943,-21,11,7
80,132,27,930,-15,-8,-28
81,-107,60,807,-14,7,15
82,7,-65,472,-73,-15,4
83,-87,-80,970,-75,12,-11
84,-123,34,712,-24,20,-4
85,33,-106,1013,-16,-10,-12
86,2,0,816,12,-7,-13
87,-12,-12,1106,-7,-10,10
88,85,-103,693,-10,-5,-20
89,-130,37,784,11,37,-12
90,-159,-30,749,45,19,-10
91,-39,-186,777,44,-9,-18
92,-105,89,888,-21,3,6
93,101,-125,849,-25,-15,-7
94,-84,-50,923,-14,12,0
95,101,17,1011,-3,-4,-13
96,-84,-113,671,-25,4,3
97,-48,-9,761,-41,-21,3
98,16,38,930,-64,47,-15
99,-47,-118,608,-19,9,-11
100,-69,4,1024,12,3,-10
101,77,-31,827,-26,-17,-14
102,-106,-73,917,-16,10,7
103,143,24,889,-27,-14,-24
104,-47,35,994,17,14,11
105,73,-58,543,-57,-25,3
106,7,-40,909,-69,3,1
107,-124,32,684,-44,12,-2
108,32,-97,1081,-12,-14,-12
109,9,-1,855,-10,-7,-13
110,-30,2,1094,-35,1,4
111,85,-83,724,-12,-6,-18
112,-5,77,880,13,-7,9
113,2,23,733,-97,-4,10
114,-9,-158,786,-71,-6,-10
115,-132,91,900,-17,16,-6
116,94,-130,891,-21,-22,-12
117,-78,-54,914,-9,3,-5
118,89,16,1048,-28,-4,-15
119,-57,-112,657,-2,9,3
120,-60,-21,749,-35,-31,3
121,-25,23,929,-85,28,-3
122,-30,-125,619,-40,6,-9
123,-76,8,1039,4,4,-12
124,74,-38,834,-9,-14,-14
125,-103,-75,895,-6,10,5
126,138,18,885,-1,-8,-27
127,-15,32,1003,-35,12,17
128,91,-77,536,-54,-10,-6
129,-52,-8,939,-5,40,-32
130,-140,29,719,-7,19,-2
131,35,-101,1103,-6,-7,-9
132,12,-3,859,-2,-5,-9
133,-22,-13,1143,6,-2,8
134,78,-100,708,-5,-4,-19
135,-103,70,848,-21,30,-1
136,-125,-22,772,24,18,-14
137,-17,-182,834,30,-2,-17
138,-111,85,902,-21,4,3
139,86,-126,910,-27,-13,-7
140,-72,-52,924,-21,5,-2
141,69,28,969,-23,-21,-6
142,-65,-58,734,-4,14,-4
143,47,-9,808,10,-5,-13
144,-13,62,979,-72,-11,22
145,-37,-112,599,-61,-9,-1
146,-56,-4,1051,-12,-3,-10
147,69,-41,842,-12,-13,-12
148,-90,-73,979,-6,13,7
149,125,17,952,4,-6,-26
150,-82,24,865,-47,17,10
151,3,-68,558,-19,0,-10
152,-82,-101,1057,52,25,-27
153,-119,28,776,-20,9,5
154,28,-106,1098,-12,-8,-7
155,-2,-2,857,-16,-4,-11
156,-23,11,1054,-34,-3,4
157,76,-92,697,-26,-12,-15
158,0,33,973,8,-6,6
159,2,51,841,-64,13,-6
160,-9,-134,801,-14,8,-16
161,-128,72,937,-11,12,-6
162,69,-109,945,-22,-15,-10
163,-59,-54,953,-16,-2,-2
164,100,3,1082,-19,-21,-9
165,-55,-70,753,1,14,-1
166,-33,-35,804,-12,-9,-9
167,-29,12,973,-42,20,-5
168,-38,-91,703,-17,7,-5
169,-49,-17,1079,-11,2,-7
170,46,-36,871,-15,-9,-11
171,-66,-60,999,-19,1,5
172,137,-4,953,-35,-19,-21
173,-21,38,956,-3,10,11
174,33,-61,612,-30,-3,-8
175,-15,-65,1074,21,18,-19
176,-119,31,852,-17,6,1
177,23,-109,1093,-25,-10,-6
178,0,-12,897,-2,-1,-9
179,-3,9,1100,7,2,5
180,67,-107,700,-10,1,-17
181,83,11,998,19,17,-9
182,-57,36,954,-58,10,2
183,17,-149,865,-32,-6,-4
184,-98,36,1002,-19,5,-6
185,51,-82,951,-17,-10,-6
186,-55,-57,918,4,5,0
187,89,17,986,-14,-5,-18
188,-2,-27,918,-24,19,0
189,95,-56,816,-23,-3,-9
190,-67,-16,1019,-39,-4,4
191,-71,-60,805,-40,0,0
192,-20,-48,1137,-17,-4,-8
193,32,-20,900,-9,-5,-10
194,-55,-22,1025,-4,6,5
195,127,-65,857,-9,-8,-23
196,19,0,1061,-14,23,-3
197,8,-7,715,-45,1,-6
198,15,-98,1040,-42,1,-3
199,-110,43,892,-15,3,-5
200,32,-115,1050,-24,-12,-6
201,-19,-22,946,-8,-4,-7
202,35,9,1097,1,-10,2
203,24,-97,752,-4,2,-5
204,66,14,972,13,0,-8
205,-46,22,993,15,20,-7
206,-3,-119,854,-25,2,-4
207,-60,11,1028,-10,-1,-5
208,38,-71,947,-16,-7,-6
209,-41,-66,926,5,5,1
210,102,-4,1029,11,-6,-19
211,-89,-26,948,-17,27,-4
212,20,-71,726,-11,6,-10
213,-23,-18,1063,5,20,-12
214,-90,-1,834,-30,4,-1
215,-5,-85,1097,-6,-3,-6
216,15,-23,918,-4,-1,-10
217,-23,-20,1098,4,5,4
218,103,-94,754,4,1,-17
219,-27,40,1030,4,20,-5
220,-36,5,927,-4,17,-8
221,-29,-97,947,-1,7,-7
222,-87,30,1000,-18,1,-2
223,28,-89,1015,-16,-9,-2
224,-22,-54,930,-17,-3,-2
225,59,-24,1069,-20,-14,-5
226,-32,-45,889,-25,1,3
227,69,-34,902,-35,-9,-6
228,-39,22,1021,-49,11,-5
229,-68,-66,813,-30,1,-1
230,-20,-37,1082,-13,-4,-10
231,21,-37,919,-5,-4,-7
232,-49,-33,979,-8,-3,9
233,120,-62,832,-7,-19,-13
234,-9,28,1011,-11,2,10
235,13,-6,754,-54,-3,-4
236,1,-77,1027,-42,5,-5
237,-97,31,899,-27,2,-5
238,21,-118,1039,-11,-9,-4
239,-16,-33,944,3,-2,-8
240,48,-26,1112,-29,-14,1
241,21,-54,735,-28,-4,-4
242,37,13,966,-19,-10,-3
243,-41,40,1057,-31,20,-12
244,-53,-98,871,-25,9,-6
245,-43,-4,1059,-1,1,-10
246,26,-60,974,-30,-12,-7
247,-43,-104,899,-15,-1,-1
248,95,-37,1008,-24,-7,-23
249,-74,9,996,-6,24,-4
250,47,-55,786,-25,-3,-3
251,-39,-15,1059,7,2,-2
252,-104,14,893,-39,6,2
253,14,-101,1062,-20,-9,-7
254,0,-16,941,8,-4,-10
255,-7,-49,1141,-34,-5,5
256,63,-109,730,-30,-9,-10
257,5,39,1061,-27,4,-5
258,-35,24,980,-17,3,-3
259,-29,-108,901,-2,6,-1
260,-56,28,990,-20,-1,-7
261,13,-69,975,-18,-7,-6
262,-26,-99,887,-9,-1,-1
263,89,-38,1038,-29,-14,-12
264,-72,38,969,-21,20,-5
265,63,-65,804,-23,-6,-8
266,-37,26,1049,-38,3,-1
267,-105,-11,850,-41,3,1
268,9,-73,1071,-19,-7,-8
269,9,-21,921,-8,-8,-8
270,-14,-50,1112,3,4,1
271,106,-99,789,-10,-7,-17
272,-40,72,1078,-5,8,4
273,-26,4,948,-7,2,-6
274,-17,-95,945,-3,8,-4
275,-79,34,973,-20,1,-4
276,22,-99,964,-27,-4,-4
277,-34,-54,880,-9,1,-5
278,95,-43,1015,-33,-5,-11
279,-27,-9,851,-12,8,1
280,49,-25,817,4,-1,-7
281,-76,44,978,5,23,-14
282,-99,-64,824,-4,11,2
283,0,-53,1021,-5,-7,-11
284,11,-42,912,-34,-4,-8
285,-40,0,972,-24,-1,4
286,75,-78,724,-37,-12,-17
287,-30,44,925,0,9,7
288,10,-18,698,8,7,-7
289,-29,-82,864,18,13,-7
290,-94,46,833,-19,3,-2
291,27,-115,941,-21,-7,-4
292,-23,-35,932,-17,2,-7
293,59,-5,1055,-30,2,-13
294,-37,-24,852,-24,9,-2
295,34,-49,951,-36,0,-4
296,-46,39,1031,-38,3,4
297,-94,-40,829,-50,2,3
298,-7,-26,1017,-7,-4,-12
299,12,-51,847,-6,-6,-6
300,-42,0,936,11,-1,7
301,70,-76,799,20,-17,-20
302,-59,39,920,11,15,1
303,24,-40,587,12,10,-6
304,-29,-92,871,18,11,-13
305,-96,26,776,-19,-2,-2
306,34,-118,872,-16,-7,-7
307,-29,-20,930,-29,0,-7
308,43,39,1054,-29,3,-12
309,-10,-91,742,-35,8,-11
310,22,-41,974,-44,7,-8
311,-57,23,1033,-42,23,-9
312,-89,-51,783,-48,0,-3
313,-19,-27,957,-6,-4,-14
314,24,-68,839,-9,-9,-7
315,-56,-1,866,-15,-6,10
316,62,-39,825,-2,-23,-15
317,-73,47,913,-29,3,14
318,37,-64,497,-48,-13,4
319,-34,-81,873,-15,-4,5
320,-110,22,768,-38,0,-2
321,28,-120,849,-21,-7,-6
322,-23,-19,926,1,5,-8
323,45,37,1115,21,-1,-5
324,19,-128,744,17,-2,-8
325,14,-10,998,29,2,-6
326,-43,-5,995,32,14,-7
327,-71,-116,787,-14,3,1
328,-31,-9,882,-16,-12,-10
329,29,-72,842,-22,-7,-7
330,-62,-22,804,-25,10,-1
331,45,-1,860,-27,-2,-22
332,-84,32,913,8,35,-5
333,45,-78,543,-27,7,-19
334,-42,-38,917,-2,26,-19
335,-115,11,801,-13,8,-1
336,36,-134,901,-30,-19,-6
337,-20,-24,896,-2,-7,-5
338,47,40,1093,-41,-10,3
339,44,-139,658,-48,-1,-8
340,16,22,939,-28,-5,0
341,-8,-14,894,-96,3,-3
342,-58,-160,744,-49,11,3
343,-40,11,810,-2,0,-13
344,15,-77,874,-19,-9,-5
345,-46,-52,820,2,-7,7
346,65,13,911,4,-20,-13
347,-104,-35,973,-32,9,14
348,59,-62,644,-43,-24,5
349,-42,9,993,-47,-16,3
350,-124,3,838,-41,12,0
351,40,-130,950,-16,-1,-10
352,-12,-23,847,-2,-4,-9
353,-16,86,1035,24,-6,4
354,26,-120,595,-9,-15,-12
355,-7,23,882,30,6,3
356,-19,14,811,-15,-8,10
357,-45,-163,687,-32,-9,6
358,-60,14,796,-13,-8,-10
359,25,-82,839,-25,1,-6
360,-43,-65,869,-7,11,0
361,106,30,965,22,-11,-25
362,-78,-41,1037,27,21,0
363,57,-103,705,23,6,-10
364,-63,-10,1045,61,20,-18
365,-142,-30,808,-42,-1,5
366,36,-106,908,-17,-20,-8
367,-2,-21,843,-16,-4,-9
368,-20,81,983,-42,11,-3
369,7,-123,573,-14,9,-20
370,-19,25,907,-8,15,-10
371,-36,45,822,-30,29,-19
372,-46,-122,730,-7,18,-6
373,-44,-11,868,-7,-4,-10
374,33,-96,845,-37,-18,-4
375,-44,-56,847,-16,-6,3
376,129,19,967,-25,-13,-12
377,-61,-36,917,-61,18,5
378,81,-96,621,-57,-21,-1
379,-36,-48,953,-71,5,1
380,-136,-49,740,-32,13,2
381,25,-93,870,-5,-3,-10
382,7,-23,874,1,-9,-10
383,-31,59,1008,17,-8,10
384,24,-156,585,-11,-15,-16
385,-41,17,967,43,8,4
386,-34,44,824,5,-9,0
387,-33,-112,779,2,-1,-3
388,-56,-4,911,-17,0,-9
389,33,-107,837,-37,-6,-7
390,-50,-38,809,0,1,-3
391,101,10,981,-17,-4,-21
392,-33,-46,824,-34,35,-6
393,73,-83,654,-14,1,-13
394,-37,0,936,-64,18,-11
395,-124,-70,720,-22,10,3
396,15,-75,879,-9,-9,-10
397,14,-29,902,-22,-7,-7
398,-41,29,1008,1,-8,14
399,50,-129,632,-21,-20,-17
400,-63,36,967,26,5,8
401,-13,16,779,2,-3,-7
402,-16,-105,832,4,4,-7
403,-81,14,916,-24,-2,-6
404,30,-116,863,-31,-10,-6
405,-46,-36,829,-11,-1,-4
406,102,-6,982,-31,2,-17
407,-16,-56,779,-30,20,-2
408,65,-53,736,-45,-13,-9
409,-50,0,919,-60,6,2
410,-112,-101,721,-33,8,5
411,13,-62,915,1,-3,-12
412,9,-35,878,-14,-5,-6
413,-50,23,938,9,0,8
414,53,-95,663,9,-16,-20
415,-58,32,906,21,19,-3
416,6,-14,671,-6,21,-10
417,-33,-102,831,-7,12,-14
418,-86,24,840,-25,-2,-4
419,38,-131,885,-32,-16,-6
420,-30,-35,891,-28,-7,-4
421,85,-4,1033,-21,-19,0
422,-12,-41,788,-8,4,0
423,48,-45,857,8,-5,-1
424,-58,20,995,23,12,-14
425,-101,-106,790,-21,7,3
426,-1,-34,935,-22,-10,-14
427,11,-46,852,-22,-2,-8
428,-52,9,853,-13,6,2
429,84,-69,733,-42,-7,-24
430,-50,64,874,-29,12,9
431,27,-33,520,-41,-14,0
432,-38,-100,838,-1,-1,1
433,-99,22,796,-19,8,-5
434,24,-130,869,-4,-2,-4
435,-27,-20,933,8,-1,-7
436,23,-7,1055,17,11,-16
437,-22,-47,665,-15,7,-9
438,5,-22,924,-44,0,-6
439,-39,44,1039,-46,-3,7
440,-93,-61,711,-33,10,8
441,-1,-33,1018,16,0,-15
442,15,-59,913,-5,-9,-1
443,-57,-94,776,16,7,1
444,174,-55,852,19,-2,-31
445,-99,69,870,-38,9,15
446,28,-61,607,-28,-9,-7
447,-39,-40,991,33,14,-15
448,-127,30,874,-27,11,3
449,20,-153,907,-3,-2,-10
450,-11,-29,948,2,4,-11
451,11,-2,960,-55,-9,12
452,67,-122,430,-28,7,-13
453,9,74,772,0,15,-13
454,-44,46,935,-1,-2,3
455,-44,-142,702,-12,2,6
456,-31,37,937,3,-7,-11
457,0,-71,982,-5,-7,0
458,-31,-105,686,-22,2,2
459,108,-81,829,-41,-8,-20
460,-2,82,779,-33,34,-5
461,64,-105,556,-19,-5,-4
462,-45,0,985,53,3,-11
463,-151,32,818,-25,5,9
464,40,-154,920,-1,-12,-7
465,1,-16,967,10,-2,-11
466,-46,-61,945,-51,-8,19
467,140,-151,479,-57,-26,-6
468,13,27,830,-12,-3,3
469,-57,8,974,-88,21,-6
470,-16,-147,775,-51,3,-7
471,-77,83,947,-3,5,-13
472,12,-115,984,-41,-6,-2
473,-23,-155,787,-18,-2,-2
474,71,-70,983,-37,0,-21
475,-72,-25,787,-66,3,7
476,33,-110,669,-56,-17,-7
477,-20,112,1061,-67,34,-15
478,-116,-51,735,-39,13,-2
479,25,-80,1058,3,-8,-17
480,9,-27,981,3,-12,-7
481,-71,-8,919,-22,-11,17
482,93,-89,712,-16,-25,-16
483,12,41,888,33,9,-4
484,-9,-64,705,31,-5,1
485,5,-177,950,7,-14,-10
486,-141,83,843,-38,7,5
487,45,-143,1005,-24,-14,-6
488,-15,-66,918,-42,-9,-7
489,24,-24,1046,-39,-15,4
490,-4,-91,689,-31,-4,0
491,-35,-13,813,-16,-20,-4
492,-15,69,1038,37,2,-4
493,-33,-141,630,-41,-7,2
494,-41,14,1055,-29,-7,-10
495,44,-35,918,-7,-13,-8
496,-78,-118,804,-23,-5,13
497,135,-28,838,25,-23,-20
498,-105,-11,884,24,40,-8
499,32,-99,627,-4,16,-16
500,-44,27,982,18,35,-24
501,-146,35,817,-34,13,1
502,37,-116,1052,6,-8,-6
503,8,4,906,-8,0,-11
504,-55,18,1019,-42,10,0
505,86,-131,561,-21,-12,-13
506,10,-4,917,-33,-8,12
507,-36,37,937,-19,-13,7
508,-41,-150,815,-30,-13,-5
509,-101,64,972,-30,0,-5
510,55,-83,966,-18,-13,-6
511,-57,-63,866,7,4,-2
512,60,8,948,11,-8,-18
513,9,-14,820,-26,24,-3
514,97,-84,753,-25,0,-11
515,-50,-15,1014,-58,2,5
516,-80,-74,776,-33,1,0
517,-13,-44,1106,-14,-5,-10
518,38,-16,915,-21,-7,-12
519,-69,-13,984,-10,-2,13
520,132,-88,837,-4,-18,-18
521,25,-2,984,30,30,-4
522,4,-22,656,-6,14,-10
523,18,-119,1036,4,28,-16
524,-117,56,870,-1,10,-1
525,35,-118,1026,-27,-13,-6
526,-20,-21,945,-12,0,-8
527,19,-10,1103,-29,-4,-6
528,20,-102,704,-34,-4,-7
529,58,25,928,-18,-8,-2
530,-62,4,988,-41,-3,4
531,-27,-122,816,-29,-5,1
532,-60,14,1014,-18,-3,-8
533,39,-69,941,-25,-11,-9
534,-43,-79,922,-15,-4,4
535,106,-14,1016,16,-15,-15
536,-86,-7,925,-5,20,3
537,15,-67,741,-4,-6,-9
538,-20,-9,1049,15,11,-9
539,-91,-2,845,-41,3,0
540,1,-90,1094,-21,-7,-6
541,12,-20,923,-8,-7,-11
542,-27,-6,1072,-10,-5,9
543,101,-97,741,-5,-11,-11
544,2,28,1029,12,7,2
545,-29,26,925,-20,1,3
546,9,-112,932,-23,-1,-3
547,-89,29,985,-30,2,-5
548,27,-95,1007,-35,-11,-8
549,-24,-54,930,-17,-4,-5
550,56,-24,1070,-23,-3,-18
551,-43,-51,885,-18,17,-9
552,36,-40,906,-6,4,-13
553,-29,21,1022,6,17,-12
554,-63,-57,826,-12,8,-2
555,3,-39,1080,-16,-5,-11
556,4,-31,935,-26,-7,-7
557,-63,-21,1016,-27,0,2
558,109,-88,859,-38,-10,-22
559,9,5,1036,-18,18,-4
560,34,-8,765,-5,2,-8
561,-34,-43,1035,-7,6,-8
562,-92,37,909,-16,6,0
563,4,-111,1035,-32,-6,-3
564,-19,-51,938,-16,-5,-7
565,43,-6,1049,21,-7,-3
566,24,-68,748,-5,-1,-1
567,37,18,998,12,0,-3
568,-32,51,994,-37,18,-6
569,-59,-86,881,-27,6,-4
570,-41,-13,1042,-10,-3,-11
571,22,-74,960,-29,-13,-7
572,-34,-72,890,-8,-1,2
573,109,-30,945,7,-3,-22
574,-37,24,982,19,19,7
575,45,-39,733,-14,4,-9
576,-52,-3,1050,-23,13,-10
577,-103,13,909,-18,5,-3
578,11,-106,1047,-26,-6,-7
579,0,-39,934,-23,-8,-7
580,15,-6,1039,7,-6,3
581,58,-91,687,-19,-4,-10
582,10,29,973,-11,4,-3
583,-12,42,929,-28,-1,-1
584,-58,-107,895,-24,0,1
585,-51,18,961,-22,-3,-9
586,6,-81,957,-16,-5,-4
587,-26,-63,852,3,4,-2
588,83,-2,953,-9,-7,-21
589,-56,19,911,-21,12,5
590,68,-61,699,-9,-4,-3
591,-36,-9,959,26,11,-4
592,-98,-9,815,-26,8,4
593,11,-83,1040,-19,-7,-6
594,-3,-16,920,-5,-2,-9
595,-6,-9,1084,-22,8,-4
596,88,-103,735,-28,-3,-13
597,-21,36,1076,-9,7,2
598,-34,47,971,-24,-3,5
599,-33,-94,876,-18,1,2
600,-67,22,950,-14,5,-7
601,23,-101,915,-21,-5,-5
602,-39,-60,849,6,2,0
603,73,0,983,11,-6,-17
604,-49,-8,825,-24,25,-6
605,76,-66,686,-14,2,-10
606,-42,25,949,-59,13,-7
607,-119,-39,730,-35,6,1
608,8,-75,939,-20,-14,-10
609,16,-38,909,-12,-9,-7
610,-35,15,1025,-9,-10,14
611,76,-117,646,-23,-19,-13
612,-44,47,970,25,7,8
613,-20,12,801,-2,9,-10
614,-20,-103,814,17,12,-9
615,-87,18,917,-29,-3,-8
616,30,-112,883,-34,-9,-5
617,-45,-36,842,-13,0,-4
618,107,-16,990,-41,2,-14
619,-16,-43,779,-28,15,3
620,54,-53,754,-57,-15,-5
621,-60,9,934,-22,-4,5
622,-114,-110,739,-39,9,6
623,19,-64,925,8,-1,-14
624,12,-29,898,-6,-3,-7
625,-58,30,903,14,8,3
626,64,-88,627,33,-11,-26
627,-40,58,867,-7,27,-8
628,10,-20,618,-29,13,-5
629,-20,-90,799,-48,8,-9
630,-109,27,818,2,5,-1
631,23,-125,872,-27,-15,-2
632,-20,-40,901,-26,-14,-3
633,62,-25,1049,12,-29,4
634,-18,-11,738,-6,16,-7
635,19,-52,875,12,3,-18
636,-57,48,1033,-62,19,-10
637,-101,-79,769,-30,2,1
638,13,-42,1029,-15,-12,-12
639,4,-35,922,-39,-12,-4
640,-64,-86,786,9,-7,9
641,204,-109,750,13,-28,-25
642,-104,111,828,-58,14,6
643,7,-38,610,-31,-11,-5
644,-32,-71,942,0,-2,-7
645,-121,60,870,-3,9,2
646,9,-161,916,-11,-11,-1
647,-7,-45,904,20,-3,-10
648,4,-3,932,-66,11,3
649,55,-70,361,-40,14,-13
650,46,0,710,23,18,-15
651,-40,54,994,-9,-7,4
652,-59,-136,685,-18,1,8
653,-51,24,1000,-1,-15,-13
654,0,-32,984,-23,-12,-1
655,-48,-155,621,-36,-6,8
656,153,-87,753,-63,-22,-11
657,-32,59,808,-80,9,11
658,62,-138,574,-33,2,-7
659,-50,-14,988,-16,25,-25
660,-158,89,918,-7,15,4
661,46,-182,918,-13,-5,-11
662,-2,-28,955,-27,-3,-9
663,-7,-81,982,1,27,-7
664,91,-168,498,-43,-5,-16
665,-54,24,816,-52,-3,2
666,-65,91,1010,-48,41,-10
667,3,-145,741,-20,14,-10
668,-73,56,1032,16,8,-16
669,12,-69,993,-27,-7,3
670,-27,-154,721,-27,-14,6
671,74,63,931,5,-25,-5
672,-56,-1,752,8,14,-4
673,92,-173,625,62,3,-15
674,-73,-45,1045,103,17,-21
675,-137,-25,786,-30,12,13
676,28,-106,1043,2,-14,-9
677,26,-35,952,-34,-14,-2
678,-60,-40,935,-1,-16,16
679,108,-147,692,2,-21,-22
680,-93,113,920,41,65,-23
681,-65,-67,624,-25,28,0
682,35,-227,847,-49,15,-15
683,-161,127,856,6,13,0
684,62,-174,911,-25,-8,-8
685,-31,-70,874,-22,-5,-7
686,-8,26,996,-14,-36,8
687,17,-146,622,-3,27,-14
688,-53,54,735,55,36,-31
689,-147,-55,987,-102,-13,21
690,-43,-214,557,-65,-6,5
691,-51,37,988,-13,-3,-16
692,60,-26,892,-5,-6,-12
693,-88,-115,713,-49,5,11
694,125,65,818,-42,-23,-22
695,-46,30,848,70,40,-7
696,181,-165,412,-26,-21,-1
697,-43,-13,936,-67,-17,17
698,-161,20,754,-74,6,11
699,64,-174,981,-18,-22,-12
700,11,22,876,3,-7,-12
701,-61,9,1002,15,11,3
702,132,-170,553,-2,-9,-20
703,-113,13,764,-84,-23,33
704,-69,-27,636,-118,32,-11
705,-30,-227,673,-53,15,-31
706,-181,138,834,3,27,-4
707,113,-138,816,-16,-15,-11
708,-79,-53,927,10,3,-5
709,61,79,943,-13,5,-19
710,-68,-84,650,34,10,1
711,-2,-39,712,39,-28,-5
712,41,182,883,-102,-64,49
713,-16,-207,447,-52,-13,10
714,-44,12,987,-47,-12,-14
715,75,10,820,-6,-17,-9
716,-118,-126,778,-9,13,10
717,168,64,881,17,-8,-38
718,-113,80,953,13,-8,32
719,96,6,414,-101,-69,21
720,69,46,790,-39,-42,25
721,-146,0,617,-93,3,10
722,80,-148,971,-53,-26,-19
723,-1,42,858,6,0,-16
724,-72,-12,970,-49,1,16
725,159,-110,737,-24,-6,-27
726,-120,75,838,-16,54,-20
727,-46,106,631,8,56,-24
728,126,-128,666,3,36,-46
729,-184,107,808,43,38,4
730,117,-159,803,-9,-13,-10
731,-105,-48,948,21,2,-2
732,25,54,1111,-13,-19,3
733,-8,-145,646,-55,23,-12
734,-52,77,727,-5,27,-19
735,-128,80,942,-26,78,-38
736,-28,-177,528,-35,21,-16
737,-114,11,920,53,16,-10
738,85,-38,778,-53,-13,-13
739,-53,-131,826,16,13,10
740,137,81,896,35,-11,-30
741,-109,28,895,-58,0,26
742,76,16,563,-67,-35,12
743,-62,128,862,-87,-39,27
744,-117,-83,590,-81,-12,9
745,46,-83,908,-8,-14,-14
746,35,4,812,-15,-4,-10
747,-92,-75,962,-22,-1,15
748,108,-46,892,-19,-29,-26
749,-111,88,850,-5,48,-14
750,-65,-23,576,12,31,-26
751,-67,-55,885,25,54,-45
752,-165,77,781,1,16,12
753,72,-153,780,-51,-27,-11
754,3,-12,894,-3,6,-4
755,-20,64,1046,-25,8,-1
756,104,-98,682,-29,-9,-14
757,-30,90,912,64,-6,6
758,-53,229,775,-7,-40,26
759,14,-200,660,-29,-19,2
760,-124,68,817,-2,14,4
761,100,-95,760,-48,-18,-11
762,-89,-93,924,22,6,5
763,58,65,1045,-1,-15,-14
764,-42,-67,738,-66,15,2
765,9,33,720,-47,0,-2
766,-158,67,1023,-116,30,-9
767,-96,-112,527,-67,-2,-6
768,-84,-30,935,29,10,-13
769,66,11,812,-39,-16,-11
770,-74,-101,825,-22,-2,17
771,156,21,903,-1,-23,-29
772,-82,48,939,18,32,0
773,50,34,519,36,5,-10
774,42,39,844,119,7,-33
775,-132,27,678,-58,-3,21
776,61,-107,915,2,-9,-10
777,16,-19,863,-29,11,-9
778,-62,-11,1039,-16,9,10
779,98,-98,826,14,-17,-24
780,-77,151,747,-52,-10,20
781,-68,42,666,-115,-21,25
782,-78,-114,785,-89,-10,6
783,-189,94,829,-24,4,2
784,74,-124,722,-9,-31,-14
785,-31,-41,900,27,6,-1
786,29,85,1047,-28,-5,-2
787,46,-163,736,-21,12,-15
788,22,94,849,3,13,-19
789,-15,234,871,7,68,-39
790,54,-171,676,-9,30,-13
791,-77,57,851,23,8,-5
792,104,-63,827,-60,-24,-11
793,-101,-116,895,-8,3,10
794,103,76,965,-23,-8,-27
795,-83,39,785,13,21,3
796,78,-29,626,56,-13,-3
797,-167,67,901,53,-35,-5
798,-133,-51,606,-35,11,16
799,-15,-54,889,-11,-3,-15
800,57,16,769,-50,-2,-14
801,-95,-76,920,23,6,14
802,138,-34,886,-12,-16,-31
803,-65,38,946,-67,9,22
804,15,3,545,-97,-19,22
805,73,-16,854,-100,-34,3
806,-184,74,763,-51,14,6
807,109,-144,872,-6,-12,-16
808,-22,-29,918,4,-4,-6
809,-33,74,1073,-10,-14,7
810,120,-98,662,-29,-10,-22
811,-27,93,837,-11,34,-16
812,-48,117,737,-14,65,-28
813,-79,-187,648,19,16,-33
814,-154,94,829,-15,7,4
815,97,-115,695,-18,-14,-13
816,-96,-82,891,-42,7,5
817,32,39,1099,-5,-8,-15
818,-21,-105,743,4,5,-3
819,11,82,736,25,-1,-13
820,-58,121,1043,105,20,-15
821,-45,-133,572,-21,-15,5
822,-73,-2,909,-31,-8,-4
823,67,-11,862,-10,4,-15
824,-88,-121,825,-40,16,14
825,150,44,923,18,-16,-31
826,-88,42,927,-9,-1,22
827,76,22,528,-63,-38,13
828,-51,95,836,0,-32,14
829,-120,20,630,-85,-9,14
830,42,-104,915,-17,-17,-18
831,33,-24,788,13,4,-16
832,-93,-31,972,-25,10,11
833,107,-69,902,16,-12,-31
834,-79,127,784,-45,-1,18
835,-49,6,593,-115,-19,19
836,-60,-90,833,-73,-16,2
837,-193,97,794,-42,5,1
838,65,-124,740,-5,-19,-17
839,-3,-33,880,21,9,-6
840,-2,39,1082,-12,-2,-6
841,65,-184,721,-20,-5,-9
842,1,88,884,-38,-6,2
843,-52,158,878,-152,9,13
844,100,-166,715,-64,-16,-4
845,-115,70,872,-13,8,-8
846,101,-61,789,9,-11,-14
847,-98,-116,922,11,7,6
848,94,89,922,10,-16,-24
849,-47,-37,801,-31,15,6
850,76,6,738,-71,-3,-3
851,-124,133,888,-109,25,-3
852,-99,-80,571,-54,-3,1
853,-19,-30,873,16,6,-16
854,68,-20,765,20,-4,-9
855,-108,-116,878,-17,-2,16
856,109,10,1005,20,-17,-34
857,-92,81,855,-63,26,4
858,51,-55,545,-81,4,0
859,-98,-21,973,-54,21,-25
860,-195,55,713,-42,17,4
861,34,-112,909,14,-6,-18
862,21,15,812,3,-12,-6
863,-50,11,1039,-14,-7,11
864,154,-128,824,-7,-11,-25
865,-47,77,912,-42,30,-10
866,-37,128,687,-46,34,-11
867,130,-107,792,-39,30,-32
868,-160,103,804,15,21,4
869,113,-153,785,1,-20,-13
870,-74,-59,962,-10,-9,4
871,39,100,1046,2,-8,-6
872,28,-116,677,-39,11,-14
873,18,77,806,-15,13,-17
874,-72,133,860,-30,63,-36
875,-75,-179,627,-28,24,-10
876,-84,44,814,50,3,-6
877,80,-43,776,-41,-23,-5
878,-101,-129,870,-7,-1,15
879,67,44,1015,11,-15,-24
880,-81,3,871,-52,30,-1
881,62,-3,662,5,8,-20
882,-106,44,997,-43,66,-41
883,-118,-34,643,14,19,8
884,-15,-61,917,13,-13,-14
885,48,25,819,-12,-13,-5
886,-94,-64,921,-2,5,19
887,159,-23,868,-15,-21,-28
888,-68,46,1012,-19,38,-6
889,16,32,537,-31,24,-24
890,75,-30,835,7,48,-42
891,-172,77,769,13,15,11
892,99,-146,850,-26,-20,-12
893,-19,-21,920,15,3,-1
894,-31,68,1078,-29,-3,9
895,115,-117,679,-21,-9,-21
896,-31,77,875,8,31,-13
897,-43,108,774,-21,57,-29
898,-90,-174,687,60,25,-31
899,-166,78,810,-18,7,6
900,94,-112,738,-21,-17,-10
901,-84,-74,907,-18,3,8
902,40,63,1113,-29,-16,-9
903,-19,-102,761,4,15,-8
904,4,68,757,6,10,-16
905,-57,121,1064,112,57,-37
906,-56,-129,611,5,0,-2
907,-60,4,895,-12,-4,-2
908,66,-22,846,-33,-7,-13
909,-97,-108,817,-50,10,13
910,147,38,953,4,-15,-31
911,-96,47,954,10,14,11
912,58,27,564,-7,-16,4
913,-24,73,898,84,-24,0
914,-143,-17,607,-82,-9,15
915,43,-100,904,-12,-13,-13
916,33,-15,865,-15,7,-15
917,-84,-18,971,-24,7,12
918,119,-68,879,16,-16,-28
919,-75,107,871,-42,-8,21
920,-43,11,596,-96,-18,21
921,-90,-78,869,-70,-30,7
922,-178,89,785,-47,4,0
923,62,-127,766,12,-16,-14
924,-8,-15,910,14,7,-5
925,8,56,1080,-9,-9,1
926,80,-156,759,-19,-5,-12
927,9,104,930,-34,5,-4
928,-30,173,846,-126,44,-13
929,79,-153,725,-31,9,-13
930,-93,67,847,-1,2,-7
931,104,-82,808,-14,-20,-11
932,-94,-103,914,-9,9,9
933,99,89,976,-13,-17,-16
934,-67,-6,769,-7,24,-6
935,50,-9,717,6,7,-20
936,-144,71,925,52,70,-50
937,-159,-118,582,16,12,5
938,-12,-19,846,-23,-14,-6
939,60,-5,796,-18,-4,-12
940,-95,-89,908,-32,14,13
941,127,-4,958,-17,-15,-30
942,-84,38,878,27,12,13
943,21,-25,557,-27,-34,12
944,18,3,959,22,-32,4
945,-143,34,706,-42,11,13
946,61,-123,905,-39,-19,-12
947,-14,-8,878,28,-1,-11
948,-55,28,1022,-19,2,12
949,143,-80,745,-17,-7,-22
950,-82,83,851,-31,20,2
951,-51,78,668,-87,20,-7
952,-93,-189,705,-54,21,-28
953,-166,75,764,22,28,-2
954,102,-142,734,-32,-23,-15
955,-76,-45,891,-10,-4,0
956,26,68,1103,-17,-5,-11
957,7,-131,740,-5,13,-9
958,-14,70,786,42,3,-9
959,-81,119,1003,90,-3,1
960,-39,-149,633,-24,-23,2
961,-71,21,884,-7,5,-3
962,72,-45,818,-22,-1,-11
963,-102,-105,846,-18,8,11
964,130,45,954,37,-17,-24
965,-114,28,865,-69,9,18
966,60,-24,599,-77,-17,2
967,-112,73,881,-109,13,9
968,-145,-63,617,-53,-1,2
969,43,-71,879,3,-15,-16
970,33,0,822,-2,-8,-8
971,-93,-52,959,-29,3,15
972,115,-54,919,-12,-21,-26
973,-104,84,886,-1,38,-13
974,-61,-10,594,24,24,-25
975,-59,-63,926,41,48,-42
976,-144,76,773,12,18,12
977,64,-132,815,-47,-28,-12
978,-11,-13,906,-11,4,-4
979,-25,60,1053,-24,9,-2
980,105,-96,705,-18,-4,-15
981,-40,95,934,55,-2,5
982,-59,213,803,-16,-38,28
983,13,-188,694,-41,-25,1
984,-123,69,792,-8,13,1
985,95,-92,777,-43,-19,-12
986,-82,-93,909,19,2,2
987,54,70,1047,-5,-13,-16
988,-42,-54,765,-47,14,2
989,10,25,745,-39,-4,2
990,-147,70,1016,-128,10,2
991,-87,-114,543,-59,2,-6
992,-66,-21,936,35,7,-14
993,70,18,840,-34,-18,-10
994,-69,-88,847,-15,-5,17
995,159,19,935,-10,-23,-26
996,-80,59,984,-8,41,-7
997,51,31,542,26,22,-19
998,75,48,900,105,31,-47
999,-143,23,671,-30,7,12
1000,59,-103,932,6,-9,-12
1001,16,-22,888,-33,7,-9
1002,-67,2,1004,-22,6,10
1003,121,-88,822,9,-13,-24
1004,-59,130,826,-2,-5,16
1005,-37,38,644,-36,-23,25
1006,-110,-106,780,-17,-42,4
1007,-174,84,789,-60,-4,5
1008,78,-112,735,6,-12,-10
1009,-29,-25,919,-4,12,-3
1010,19,74,1053,-1,-5,-2
1011,50,-167,737,-31,-6,-6
1012,15,78,848,-41,-4,-2
1013,-16,175,915,-137,32,-1
1014,36,-147,718,-41,10,-5
1015,-72,54,834,0,-3,-10
1016,98,-64,836,-5,-18,-10
1017,-103,-103,882,-7,9,11
1018,111,63,931,-13,-17,-21
1019,-79,0,810,-18,24,-7
1020,69,-43,683,22,9,-22
1021,-138,68,876,35,71,-52
1022,-149,-84,601,30,24,9
1023,0,-48,845,-13,-17,-10
1024,42,7,814,-36,-10,-10
1025,-93,-73,941,-22,9,11
1026,120,-30,942,-28,-12,-31
1027,-68,65,873,47,21,9
1028,-24,-12,590,14,-27,11
1029,-13,-15,930,19,-33,-8
1030,-171,63,765,-16,19,16
1031,71,-132,863,-53,-18,-14
1032,-15,-15,876,6,0,-11
1033,-33,54,1041,-4,1,3
1034,118,-98,683,-43,-7,-16
1035,-49,73,908,-26,9,8
1036,-34,158,742,-131,-2,17
1037,-76,-188,680,-93,-12,-11
1038,-161,76,792,-1,19,-4
1039,97,-115,742,-28,-21,-14
1040,-81,-70,924,0,-5,5
1041,42,43,1117,-14,-17,-12
1042,-15,-98,734,-15,19,-7
1043,-9,75,735,23,15,-16
1044,-97,100,1060,120,44,-34
1045,-64,-129,599,-7,-7,0
1046,-61,1,908,-8,2,-3
1047,66,-33,840,-17,3,-14
1048,-105,-100,832,-36,8,12
1049,140,36,914,47,-14,-27
1050,-100,50,899,-61,8,14
1051,77,2,551,-78,-18,6
1052,-111,45,864,-101,14,0
1053,-164,-30,631,-51,8,4
1054,50,-103,872,-9,-20,-18
1055,28,-13,833,-9,-10,-10
1056,-84,-26,998,-22,8,8
1057,115,-88,879,-18,-9,-29
1058,-102,72,783,36,6,4
1059,-75,31,660,23,-19,14
1060,-15,-91,829,14,-42,-12
1061,-155,86,804,-51,9,13
1062,93,-148,786,-14,-14,-12
1063,-64,-32,949,-12,2,-3
1064,13,86,1033,-5,-12,2
1065,67,-81,654,-41,1,-13
1066,-22,81,826,3,24,-16
1067,-89,103,819,25,70,-43
1068,-122,-197,617,19,31,-15
1069,-101,55,828,27,4,-2
1070,92,-51,748,-56,-12,-12
1071,-83,-96,880,8,17,9
1072,93,46,952,9,-11,-23
1073,-37,-75,796,-53,5,15
1074,10,26,694,-50,-13,4
1075,13,92,886,-145,-3,15
1076,-92,-68,602,-71,-4,-1
1077,24,-34,948,9,-2,-17
1078,58,-25,867,-35,-12,-13
1079,-85,-88,924,-22,4,10
1080,133,1,914,1,-16,-36
1081,-97,177,743,19,9,11
1082,15,-38,489,-13,-37,17
1083,-168,-41,823,-7,-47,-1
1084,-186,70,724,-43,6,21
1085,38,-116,831,-40,-21,-14
1086,27,10,815,20,-4,-6
1087,-38,49,1026,-31,-1,9
1088,132,-116,728,-36,-8,-21
1089,-21,98,878,48,32,-16
1090,-33,214,710,46,36,-27
1091,132,-139,670,103,13,-32
1092,-150,107,838,-34,9,11
1093,112,-126,766,2,-4,-10
1094,-89,-83,937,-1,15,5
1095,31,26,1105,-16,-16,-7
1096,-26,-72,672,-28,12,-2
1097,-25,86,668,-52,2,-1
1098,-142,60,979,-90,54,-14
1099,-79,-148,513,-56,17,-6
1100,-96,0,915,16,3,-13
1101,61,-14,820,-46,-19,-17
1102,-54,-111,828,-16,5,12
1103,139,50,899,6,-12,-33
1104,-98,65,929,7,9,16
1105,79,56,517,-27,-33,10
1106,5,93,800,24,-45,11
1107,-106,13,652,-85,-13,17
1108,46,-87,910,-4,-8,-14
1109,32,-22,803,0,-1,-8
1110,-89,-53,1022,-30,0,16
1111,92,-94,899,10,-15,-23
1112,-112,123,755,-30,36,-13
1113,-91,10,620,-10,36,-21
1114,-58,-90,813,10,58,-40
1115,-173,87,796,19,21,9
1116,63,-133,744,-48,-25,-17
1117,-12,-23,936,-10,2,-3
1118,7,83,1008,-11,4,-7
1119,75,-110,685,-29,-2,-9
1120,-6,101,884,46,-9,3
1121,-63,290,791,-41,-44,37
1122,40,-179,644,-87,-43,4
1123,-95,74,859,9,14,-4
1124,98,-62,730,-39,-12,-13
1125,-90,-118,903,4,-1,10
1126,36,29,1019,8,-27,-16
1127,-70,0,751,-64,25,-1
1128,10,7,633,-16,14,-19
1129,-170,52,927,-8,88,-52
1130,-110,-60,585,12,7,5
1131,-51,-48,925,-10,-10,-11
1132,76,14,806,-32,-2,-12
1133,-64,-92,861,-26,12,14
1134,153,0,871,-2,-18,-34
1135,-84,94,943,48,19,9
1136,45,75,514,20,-23,10
1137,64,13,792,49,-25,-10
1138,-157,59,744,-34,7,23
1139,69,-113,877,-47,-19,-15
1140,-10,-17,818,14,6,-9
1141,-46,21,1078,-14,9,7
1142,61,-113,751,-15,-9,-20
1143,-56,175,719,-24,-2,12
1144,-88,56,759,-139,-21,23
1145,-82,-130,672,-106,-8,-7
1146,-181,103,859,6,21,-2
1147,77,-97,714,-32,-26,-15
1148,-18,-61,905,17,-8,4
1149,40,44,997,-29,-16,-5
1150,13,-128,750,-42,14,-13
1151,40,74,832,-1,17,-18
1152,31,246,908,65,72,-46
1153,45,-155,659,-7,18,-10
1154,-69,33,862,31,11,-7
1155,75,-51,809,-54,-13,-13
1156,-92,-107,850,-28,-2,14
1157,86,60,974,7,-11,-30
1158,-86,116,796,2,18,8
1159,55,-37,540,29,-8,3
1160,-179,34,857,53,-38,4
1161,-168,-10,636,-87,-10,18
1162,20,-81,901,12,-3,-17
1163,58,8,777,-36,7,-10
1164,-84,-52,926,4,1,13
1165,127,-83,847,4,-23,-25
1166,-66,42,925,-79,9,14
1167,-11,26,605,-102,9,0
1168,120,-38,811,-72,15,-14
1169,-162,82,804,-22,5,3
1170,118,-132,809,-13,-23,-15
1171,-37,-46,941,-2,4,-1
1172,-26,93,1080,-33,-2,-2
1173,77,-72,646,-12,-5,-16
1174,-20,129,786,64,18,-13
1175,-89,125,836,80,12,-12
1176,-135,-194,526,32,2,-9
1177,-145,77,875,-10,2,6
1178,95,-51,696,-54,-16,-12
1179,-54,-100,893,13,11,7
1180,74,17,945,-11,-11,-18
1181,-25,-109,788,-41,7,7
1182,25,51,752,-62,-14,1
1183,25,105,910,-137,20,0
1184,-34,-78,617,-46,3,-1
1185,-22,-18,922,9,4,-16
1186,65,-36,827,-31,-15,-13
1187,-106,-96,874,-14,0,14
1188,123,27,955,-15,-17,-33
1189,-92,167,768,34,32,3
1190,66,-47,480,27,-12,-3
1191,-194,-14,841,95,-13,-20
1192,-212,51,663,-53,-5,24
1193,47,-116,894,-21,-11,-14
1194,40,8,794,7,6,-7
1195,-57,-9,973,-36,1,14
1196,143,-131,793,-6,-13,-22
1197,-52,76,852,-63,17,-4
1198,-26,121,695,-70,32,-10
1199,157,-98,752,-42,34,-29
1200,-168,104,834,12,24,3
1201,109,-145,755,-24,-20,-19
1202,-83,-58,924,-24,-3,0
1203,5,76,1069,5,2,-16
1204,9,-48,648,-14,0,-1
1205,1,107,711,31,-18,2
1206,-133,120,907,-49,-41,34
1207,-121,-177,501,-82,-39,9
1208,-106,46,871,-29,-2,-9
1209,72,-10,765,-6,-10,-12
1210,-43,-116,841,-34,0,14
1211,118,19,890,8,-22,-22
1212,-65,-25,912,-48,32,-10
1213,68,57,631,20,20,-22
1214,87,114,818,65,76,-57
1215,-96,-21,690,6,24,17
1216,27,-55,940,-8,-13,-18
1217,42,-21,783,-35,-1,-9
1218,-93,-57,936,-2,12,12
1219,92,-39,907,-7,-10,-31
1220,-91,182,732,-7,-4,25
1221,-45,-10,509,-90,-30,27
1222,-134,-61,788,-98,-55,7
1223,-200,82,769,-58,10,7
1224,62,-125,774,-30,-17,-19
1225,21,-19,877,6,0,-3
1226,-25,48,1017,-25,-13,2
1227,114,-127,691,-40,-5,-17
1228,-3,95,895,21,31,-20
1229,-37,251,807,55,54,-39
1230,141,-152,672,74,21,-21
1231,-135,86,886,-11,5,7
1232,97,-83,714,-28,-9,-12
1233,-86,-103,912,-9,14,6
1234,34,66,1028,-4,-7,-22
1235,-42,18,701,-10,2,9
1236,11,44,656,-21,-20,10
1237,-167,74,953,-153,-42,31
1238,-116,-96,507,-70,-4,7
1239,-70,-25,902,-10,-4,-17
1240,65,16,784,-14,-19,-13
1241,-52,-109,841,-10,-4,16
1242,152,3,897,-32,-19,-27
1243,-77,54,953,-6,40,-11
1244,52,48,529,12,18,-21
1245,111,80,828,129,40,-53
1246,-139,33,731,-29,14,16
1247,50,-84,922,2,-3,-14
1248,18,-36,838,-27,4,-8
1249,-61,1,1009,-15,1,10
1250,76,-96,846,11,-12,-23
1251,-80,188,690,-40,-2,20
1252,-84,42,664,-115,-20,22
1253,-92,-116,725,-99,-16,3
1254,-189,99,831,-30,5,1
1255,71,-112,717,-17,-25,-15
1256,-15,-37,923,10,2,-1
1257,26,70,981,-34,-3,-9
1258,37,-129,734,-2,8,-15
1259,17,105,867,23,8,-17
1260,-6,281,854,117,26,-20
1261,82,-178,665,-1,1,-5
1262,-89,65,851,24,10,-5
1263,95,-60,772,-33,-7,-13
1264,-90,-126,901,4,6,10
1265,50,45,995,26,-17,-21
1266,-79,57,761,-82,16,12
1267,16,-20,597,-47,-4,-8
1268,-181,27,888,-106,49,-19
1269,-120,-32,631,-32,4,5
1270,-25,-62,903,-6,-8,-18
1271,71,25,795,-33,-6,-11
1272,-76,-63,886,-21,11,10
1273,155,-17,844,-5,-11,-33
1274,-81,102,968,29,11,12
1275,25,107,529,3,-28,22
1276,59,-10,758,-29,-54,0
1277,-166,65,777,-43,12,18
1278,91,-126,807,-41,-21,-15
1279,-26,-27,865,13,-4,-3
1280,-26,11,1125,-16,-10,6
1281,52,-149,686,-58,-8,-18
1282,-79,147,740,17,27,-18
1283,-139,68,859,5,57,-39
1284,-48,-139,630,81,26,-29
1285,-158,82,901,-11,12,4
1286,80,-75,727,-18,-8,-15
1287,-39,-78,940,-3,14,5
1288,70,72,935,11,-8,-17
1289,-28,-35,773,-20,0,7
1290,28,57,754,-43,-14,9
1291,-54,197,859,-158,-15,24
1292,-64,-122,542,-76,-3,2
1293,-41,4,866,-5,1,-16
1294,58,-18,769,-37,-20,-16
1295,-95,-123,870,-15,1,13
1296,79,-23,970,-20,-11,-34
1297,-91,64,790,31,24,4
1298,-9,-17,533,18,-17,-2
1299,-79,-12,915,89,-22,-13
1300,-157,34,692,-56,-5,23
1301,28,-92,926,-1,-6,-12
1302,10,-29,873,3,2,-7
1303,-71,24,949,-31,-2,16
1304,146,-84,815,-15,-17,-22
1305,-75,162,808,-47,29,-9
1306,-15,69,608,-14,37,-20
1307,-118,-130,662,-4,47,-38
1308,-175,98,810,13,25,5
1309,97,-129,712,-28,-18,-18
1310,-52,-50,895,-21,2,0
1311,-3,25,1025,23,5,-13
1312,24,-156,690,-27,-1,-2
1313,-22,110,778,27,-12,5
1314,-52,141,959,-115,-33,39
1315,28,-162,636,-103,-42,8
1316,-99,50,896,-10,1,-9
1317,94,-64,815,-15,-12,-11
1318,-98,-105,894,-30,0,12
1319,92,80,931,-6,-22,-22
1320,-77,98,782,-23,26,-8
1321,66,-37,628,51,14,-21
1322,-187,36,792,92,42,-49
1323,-144,-54,593,26,20,21
1324,10,-53,885,-3,-11,-15
1325,66,11,743,-31,-2,-10
1326,-79,-88,896,11,11,13
1327,118,-62,865,-19,-14,-28
1328,-75,62,880,-38,2,25
1329,-12,-14,575,-114,-20,17
1330,97,-17,830,-102,-22,-2
1331,-178,65,767,-45,15,7
1332,88,-133,859,-19,-19,-20
1333,-28,-34,903,2,-4,-3
1334,-32,86,1067,-13,-9,5
1335,102,-83,668,-21,-8,-23
1336,-32,148,771,44,35,-18
1337,-66,116,755,60,39,-30
1338,-126,-190,560,84,8,-23
1339,-163,95,865,-32,3,10
1340,92,-100,707,-21,-8,-11
1341,-52,-72,888,-27,11,8
1342,37,8,1003,-7,-3,-18
1343,-20,-101,730,-4,0,10
1344,-1,79,770,-42,-29,9
1345,0,95,977,-133,-44,35
1346,-12,-110,597,-53,-8,10
1347,-65,2,912,-33,-10,-16
1348,68,-35,851,8,-13,-15
1349,-111,-99,842,-7,5,16
1350,142,45,951,2,-14,-25
1351,-88,104,831,-35,30,-9
1352,82,-40,503,-16,10,-15
1353,-149,47,808,13,64,-49
1354,-174,11,618,6,29,10
1355,43,-96,934,3,-12,-18
1356,29,-13,769,-27,-13,-7
1357,-81,-57,959,-11,5,9
1358,84,-115,866,-24,-7,-26
1359,-108,109,804,41,12,6
1360,-55,9,672,23,-17,16
1361,33,-73,790,18,-47,-11
1362,-176,96,808,-34,14,15
1363,81,-145,777,-22,-5,-16
1364,-66,-34,949,-25,4,0
1365,1,89,1021,19,-8,-4
1366,81,-107,679,-56,-6,-5
1367,-10,105,846,-40,3,0
1368,-88,219,819,-126,36,-2
1369,-70,-179,567,-58,-2,-3
1370,-105,58,859,12,6,-7
1371,84,-61,734,-14,-12,-12
1372,-91,-107,890,-28,5,10
1373,39,3,971,-18,-19,-25
1374,-64,-13,773,13,19,-3
1375,-3,22,684,56,2,-12
1376,-117,31,929,77,1,-26
1377,-98,-46,629,7,8,19
1378,-33,-38,940,-24,-12,-12
1379,49,-23,829,-17,-3,-10
1380,-93,-71,874,12,9,14
1381,160,-5,910,-8,-15,-26
1382,-85,133,865,-55,15,13
1383,52,21,493,-101,0,1
1384,-113,-6,765,-56,22,-21
1385,-193,52,718,-30,23,6
1386,71,-120,876,-15,-15,-19
1387,-17,-16,811,-10,-6,-5
1388,-45,-11,1040,-18,-3,1
1389,73,-143,750,-14,-7,-22
1390,-86,138,765,52,8,3
1391,-68,56,814,-11,-32,19
1392,0,-119,698,0,-36,-1
1393,-176,103,866,-55,-2,10
1394,91,-123,769,-18,-15,-13
1395,-80,-75,949,19,7,4
1396,55,87,997,-37,-13,-5
1397,-1,-15,719,-15,15,-11
1398,12,74,724,-10,14,-19
1399,-105,104,871,90,82,-47
1400,-130,-151,534,7,16,-5
1401,-67,9,853,16,7,-8
1402,63,-27,792,-20,-7,-14
1403,-76,-101,844,-18,6,13
1404,113,-15,920,39,-9,-27
1405,-67,7,886,-66,10,18
1406,12,24,573,-81,-19,4
1407,58,9,861,-112,21,-5
1408,-116,10,694,-44,8,8
1409,35,-76,948,-9,-14,-21
1410,40,-30,856,-19,-10,-9
1411,-81,-15,966,-18,7,7
1412,102,-63,879,-9,-10,-28
1413,-90,183,720,35,1,15
1414,-39,24,574,-42,-31,26
1415,-130,-95,746,-55,-60,2
1416,-183,94,771,-57,6,12
1417,78,-122,725,-13,-18,-16
1418,-2,-13,897,-16,-1,0
1419,1,61,990,-17,-9,-3
1420,81,-127,727,-25,0,-16
1421,2,105,901,53,23,-18
1422,-50,272,842,103,32,-25
1423,107,-165,666,20,9,-8
1424,-114,77,868,17,6,2
1425,95,-67,744,-43,-11,-11
1426,-90,-110,925,18,12,11
1427,42,20,965,3,-15,-17
1428,-65,23,720,-74,15,4
1429,-14,-2,637,-30,7,-13
1430,-172,47,888,-44,72,-35
1431,-116,-47,591,6,11,5
1432,-37,-31,942,-1,0,-13
1433,68,-4,796,-36,-6,-11
1434,-79,-74,876,-15,10,14
1435,157,-3,896,0,-15,-31
1436,-90,122,920,-14,3,23
1437,52,72,480,-85,-36,22
1438,-13,2,753,-92,-38,8
1439,-182,46,741,-53,9,13
1440,75,-109,891,-45,-26,-20
1441,-15,-27,823,8,-7,-4
1442,-42,-30,1040,-22,2,4
1443,70,-150,734,-34,-10,-22
1444,-113,141,750,63,13,-7
1445,-89,52,836,30,0,-3
1446,-15,-126,660,74,-16,-15
1447,-192,103,875,-44,1,13
1448,84,-140,749,-13,-9,-11
1449,-86,-71,936,14,11,4
1450,57,94,985,-27,-16,-7
1451,1,-33,708,-8,13,-8
1452,32,75,712,-30,10,-9
1453,-86,145,799,-25,73,-39
1454,-106,-166,539,-16,22,-5
1455,-59,27,851,13,9,-10
1456,62,-21,780,-45,-16,-17
1457,-88,-122,860,-12,5,12
1458,94,-25,932,11,-7,-33
1459,-74,37,867,-10,8,19
1460,-23,16,581,-44,-29,11
1461,-18,6,891,-45,-44,21
1462,-115,4,696,-95,-17,17
1463,7,-89,955,-4,-8,-18
1464,32,-21,855,-7,-4,-6
1465,-88,0,934,-33,-2,14
1466,138,-48,853,-2,-21,-26
1467,-70,153,785,-14,37,-14
1468,4,19,511,42,30,-25
1469,-135,-108,686,60,47,-44
1470,-174,72,773,27,21,15
1471,95,-107,737,-38,-20,-17
1472,-22,-20,874,-7,7,-2
1473,-13,18,1045,17,7,-5
1474,60,-163,682,-44,-6,-4
1475,-56,103,834,-8,-10,7
1476,-54,128,930,-149,-16,32
1477,61,-164,631,-106,-36,0
1478,-139,63,912,7,15,-9
1479,91,-66,767,-29,-19,-13
1480,-92,-100,926,-19,-3,7
1481,69,85,931,-8,-20,-23
1482,-59,61,739,-18,23,-7
1483,55,0,654,40,9,-19
1484,-169,30,753,107,47,-49
1485,-140,-84,565,26,3,17
1486,-14,-10,898,-23,-9,-13
1487,73,16,747,-13,5,-10
1488,-84,-112,885,-13,15,13
1489,113,-48,909,-5,-13,-31
1490,-82,49,862,-7,5,21
1491,1,-16,571,-90,-34,24
1492,45,-9,873,-88,-31,8
1493,-173,42,740,-43,20,16
1494,49,-112,929,-29,-20,-19
1495,-19,-18,880,28,-9,-7
1496,-52,52,1020,-17,-3,10
1497,141,-67,745,-34,-7,-22
1498,-44,130,773,-15,26,-13
1499,-45,111,629,-21,40,-20
1500,-90,-175,599,1,22,-36
1501,-174,82,815,5,31,5
1502,100,-115,712,-27,-13,-17
1503,-87,-54,873,-29,-8,7
1504,-6,4,1082,-1,-10,-10
1505,-6,-116,693,-8,13,-8
1506,-26,85,762,48,13,-13
1507,-75,96,1018,116,23,-20
1508,-57,-147,599,-25,-18,3
1509,-108,17,903,13,10,-2
1510,63,-24,846,-43,2,-13
1511,-93,-100,849,-43,6,12
1512,123,58,917,22,-18,-28
1513,-68,39,913,-24,8,16
1514,56,45,605,0,-12,6
1515,6,134,741,21,-37,15
1516,-121,-36,665,-99,-19,18
1517,23,-47,945,10,-3,-20
1518,48,-20,767,-46,7,-14
1519,-100,-43,907,1,9,10
1520,91,-44,909,7,-16,-29
1521,-80,182,794,-42,-2,20
1522,-32,16,546,-73,-19,25
1523,-119,-42,784,-92,-44,6
1524,-191,79,786,-70,3,4
1525,65,-124,805,-1,-10,-21
1526,2,-7,877,-2,4,-4
1527,-32,31,1070,11,-6,-2
1528,115,-149,693,-31,-11,-15
1529,-28,83,889,-33,11,2
1530,-52,157,854,-110,26,3
1531,96,-137,670,-77,-11,-13
1532,-143,65,893,-4,10,-6
1533,94,-74,767,-9,-12,-15
1534,-81,-89,919,-9,-1,10
1535,70,91,981,1,-19,-15
1536,-24,-10,739,-28,15,-7
1537,39,45,718,-25,15,-15
1538,-136,81,792,42,84,-54
1539,-112,-120,527,-7,5,2
1540,-52,-5,857,14,3,-6
1541,61,-23,752,-13,-7,-8
1542,-95,-125,872,-46,0,21
1543,76,-24,987,15,-20,-27
1544,-95,68,847,-7,32,-5
1545,23,-31,575,27,22,-13
1546,-79,-17,905,143,37,-46
1547,-165,19,687,-63,6,23
1548,7,-100,956,13,-8,-15
1549,20,3,842,-51,-2,-5
1550,-84,18,949,-36,-4,14
1551,155,-78,822,3,-11,-24
1552,-57,107,906,9,18,-4
1553,-41,129,587,75,13,0
1554,119,-72,725,40,-19,-24
1555,-170,72,793,-44,11,17
1556,99,-118,756,-18,-10,-17
1557,-66,-46,891,-61,0,1
1558,-22,112,1058,9,-3,-9
1559,47,-66,664,-28,-2,-7
1560,9,119,811,35,3,-2
1561,-125,172,852,68,-13,15
1562,-133,-177,532,-62,-29,2
1563,-109,49,854,11,9,-3
1564,79,-47,745,-56,-8,-17
1565,-74,-95,888,-20,7,8
1566,60,9,973,12,-11,-28
1567,-52,-42,818,-23,10,10
1568,21,16,740,24,-11,3
1569,-36,38,927,-23,-57,18
1570,-95,-44,656,-64,-4,16
1571,-33,-48,962,1,-2,-19
1572,46,-21,835,-50,-5,-16
1573,-97,-73,851,3,5,8
1574,162,-5,914,-8,-13,-33
1575,-79,111,920,-8,11,20
1576,41,69,481,-39,-40,21
1577,-5,3,750,-74,-51,7
1578,-199,39,700,-51,12,14
1579,66,-113,895,-27,-13,-22
1580,-7,-22,795,-5,-3,-12
1581,-56,54,1044,-8,8,2
1582,90,-94,769,-24,-8,-21
1583,-32,169,775,13,-5,12
1584,-71,96,735,-79,-41,29
1585,-99,-123,629,-68,-32,5
1586,-179,102,856,-23,10,-1
1587,78,-118,729,-29,-16,-19
1588,-51,-42,880,-4,7,-1
1589,13,22,1081,-13,-1,-15
1590,11,-142,714,-16,-1,1
1591,2,74,817,13,-17,0
1592,-25,112,1007,-72,-35,30
1593,0,-135,635,-60,-27,7
1594,-98,14,882,-33,-1,-15
1595,69,-33,856,-14,-4,-22
1596,-109,-100,842,-27,10,10
1597,125,51,933,-1,-15,-30
1598,-66,29,916,2,10,12
1599,52,34,615,-20,-17,6
1600,-14,108,750,-1,-46,14
1601,-126,-34,657,-94,-11,14
1602,16,-53,941,-3,-4,-21
1603,46,-28,771,-40,1,-16
1604,-103,-19,878,-13,2,8
1605,118,-34,913,-8,-14,-28
1606,-74,160,848,7,13,11
1607,-14,20,529,7,-23,21
1608,-131,-29,767,-23,-50,-3
1609,-189,82,770,-47,12,13
1610,74,-145,794,-36,-12,-21
1611,-9,-18,841,-22,2,-7
1612,-44,18,1117,-6,1,-4
1613,78,-152,697,-34,-7,-14
1614,-41,101,867,47,7,2
1615,-61,79,909,-2,-31,20
1616,28,-141,665,-43,-31,4
1617,-167,55,896,-10,9,1
1618,77,-80,785,-67,-17,-16
1619,-89,-78,921,-5,11,3
1620,67,76,988,-27,-9,-19
1621,-12,-70,783,-13,6,2
1622,41,69,767,40,-10,-8
1623,-22,196,833,36,-12,-2
1624,-33,-118,595,-3,-11,15
1625,-56,-8,883,-46,-7,-9
1626,68,-34,797,-31,-5,-15
1627,-101,-95,804,-38,8,16
1628,114,45,988,-8,-18,-28
1629,-93,116,844,27,24,1
1630,74,-35,529,7,1,-7
1631,-169,50,819,118,10,-31
1632,-180,16,618,-71,1,21
1633,33,-112,926,-20,-10,-16
1634,22,-18,761,-41,-4,-7
1635,-92,-29,983,-28,0,15
1636,97,-104,892,-7,-15,-24
1637,-86,114,865,-3,29,-10
1638,-36,-4,667,65,26,-15
1639,-10,-76,810,38,17,-38
1640,-179,72,804,5,17,18
1641,57,-126,795,-42,-22,-12
1642,-42,-15,924,-32,-7,2
1643,-11,61,1075,4,0,-2
1644,87,-153,708,-52,-2,-12
1645,0,92,889,11,16,-16
1646,-78,231,842,-22,61,-39
1647,109,-163,665,22,24,-11
1648,-118,46,863,23,4,0
1649,92,-60,770,-30,-17,-5
1650,-92,-99,895,15,8,12
1651,82,89,935,-4,-11,-22
1652,-42,-31,803,-39,8,5
1653,64,-7,730,-51,-5,-4
1654,-139,132,798,-105,26,-8
1655,-111,-77,583,-39,2,2
1656,-27,-20,876,17,7,-18
1657,72,-26,745,9,-4,-10
1658,-102,-84,819,-15,1,12
1659,117,19,970,3,-14,-32
1660,-87,137,853,-18,13,19
1661,65,-46,526,-49,-36,17
1662,-116,11,855,-46,-37,8
1663,-186,47,703,-58,7,14
1664,36,-124,943,-34,-16,-23
1665,1,-3,785,-5,2,-14
1666,-64,4,1044,-24,4,8
1667,95,-138,840,-19,-12,-24
1668,-68,145,865,21,20,-9
1669,-32,14,757,51,24,-12
1670,25,-93,792,72,3,-29
1671,-184,81,831,-31,13,17
1672,70,-129,810,-14,-12,-11
1673,-63,-30,925,-36,-12,8
1674,16,62,1098,6,-1,-9
1675,53,-178,732,-39,3,-6
1676,13,79,871,-14,5,-5
1677,-45,195,913,-114,34,-11
1678,66,-156,692,-28,8,-1
1679,-99,33,859,13,5,-9
1680,90,-55,836,-3,-8,-11
1681,-106,-100,873,11,13,10
1682,103,68,931,-16,-14,-24
1683,-51,-15,892,-5,7,11
1684,59,-2,716,10,-15,2
1685,-46,154,779,-19,-43,15
1686,-99,-51,659,-59,1,14
1687,-8,-30,920,-10,-4,-19
1688,53,-34,784,-52,-13,-16
1689,-103,-61,827,-5,8,15
1690,156,-8,938,-2,-9,-27
1691,-81,90,918,-16,34,-2
1692,32,-12,517,-1,19,-22
1693,-104,-18,827,71,39,-45
1694,-186,51,711,-19,8,18
1695,54,-134,884,-26,-12,-11
1696,-1,-23,801,20,-2,2
1697,-53,51,1055,-33,0,7
1698,90,-116,804,-3,-8,-20
1699,-38,142,848,-28,6,4
1700,-46,25,814,-105,4,6
1701,-49,-113,734,-74,2,-16
1702,-154,93,876,-3,17,-2
1703,76,-107,776,-1,-14,-16
1704,-65,-40,915,18,3,1
1705,34,34,1095,-6,-2,-14
1706,17,-131,785,-25,3,0
1707,3,66,870,-13,-16,-2
1708,-22,96,1005,-122,-13,17
1709,22,-134,727,-55,-9,5
1710,-74,33,880,-19,-3,-15
1711,67,-50,867,-11,-8,-16
1712,-99,-85,863,2,12,9
1713,123,43,950,-3,-12,-27
1714,-56,22,903,-34,6,13
1715,57,-3,649,-62,-17,-1
1716,-93,78,855,-95,12,-4
1717,-135,-15,678,-36,3,5
1718,12,-68,937,-2,-8,-20
1719,41,-32,808,-2,-6,-10
1720,-88,-38,983,-9,4,12
1721,95,-58,949,-16,-21,-25
1722,-87,103,828,-26,25,-5
1723,-58,-17,651,4,14,-23
1724,-52,-50,903,45,40,-39
1725,-157,75,788,25,17,11
1726,80,-126,855,-46,-21,-16
1727,-33,-35,955,1,4,-5
1728,-15,60,1035,18,10,-5
1729,88,-74,708,-31,-4,-11
1730,-19,74,899,-6,3,4
1731,-52,162,844,-113,24,-5
1732,-86,-164,652,-35,1,-15
1733,-132,65,876,5,17,-6
1734,90,-84,733,-38,-15,-17
1735,-94,-85,918,-13,6,5
1736,87,23,977,8,-9,-24
1737,-24,-69,775,-20,7,8
1738,-4,52,739,-40,-9,4
1739,-21,95,924,-127,3,11
1740,-47,-82,622,-61,-1,-2
1741,-30,-18,924,-3,1,-17
1742,73,-41,858,-43,-13,-17
1743,-95,-104,934,-8,5,10
1744,108,16,978,24,-14,-32
1745,-94,115,711,-52,13,14
1746,-20,-74,499,-69,-6,9
1747,-150,-30,904,-83,9,-12
1748,-179,51,701,-54,19,3
1749,34,-117,894,-10,-15,-22
1750,15,1,863,-23,-4,-12
1751,-48,37,974,-2,0,7
1752,133,-59,777,-2,-9,-20
1753,-45,120,813,-74,10,3
1754,-18,142,668,-68,34,-10
1755,-77,-141,593,-36,28,-28
1756,-166,96,857,4,25,-4
1757,101,-118,710,-15,-16,-21
1758,-60,-51,904,-9,7,1
1759,39,33,932,18,-9,-6
1760,8,-144,708,-36,16,-8
1761,-8,54,739,-18,13,-13
1762,22,206,922,1,81,-43
1763,31,-163,572,-27,26,-7
1764,-74,35,917,54,15,-12
1765,80,-38,761,-35,-11,-13
1766,-91,-142,874,-6,8,16
1767,60,18,953,35,-14,-23
1768,-124,127,731,-94,19,14
1769,-31,-53,463,-50,-6,-4
1770,-222,29,764,-134,38,-8
1771,-155,12,650,-45,11,8
1772,-20,-115,894,-18,-16,-25
1773,67,19,794,-35,-12,-10
1774,-79,-29,865,-1,10,11
1775,158,-56,793,-21,-13,-31
1776,-65,120,918,73,28,-8
1777,-17,106,520,91,4,-5
1778,145,8,673,58,2,-36
1779,-178,64,797,31,31,24
1780,127,-120,770,-55,-22,-17
1781,-42,-51,855,-17,1,0
1782,-38,116,1061,16,7,-1
1783,64,-98,633,-44,0,-12
1784,-1,145,782,94,18,-10
1785,-113,158,776,71,23,-22
1786,-104,-202,493,16,4,-10
1787,-140,73,857,1,6,7
1788,91,-82,686,-73,-22,-8
1789,-97,-107,856,0,5,12
1790,38,62,974,6,-7,-20
1791,-40,-55,737,-37,14,1
1792,49,53,743,-31,1,-7
1793,-92,36,933,-112,28,-7
1794,-79,-80,584,-48,4,-1
1795,-69,-39,941,25,11,-17
1796,58,2,794,2,-4,-15
1797,-82,-109,854,-10,1,16
1798,100,5,967,8,-22,-28
1799,-94,94,922,1,29,2
1800,65,-33,596,18,4,-11
1801,-16,5,957,115,17,-39
1802,-153,18,711,-49,2,22
1803,18,-104,987,7,-3,-10
1804,15,5,815,-21,-8,1
1805,-97,-11,1007,-27,2,11
1806,166,-109,849,-9,-10,-28
1807,-72,87,970,-9,4,13
1808,-28,-8,646,-71,-20,21
1809,83,-59,886,-61,-32,3
1810,-156,76,815,-59,2,3
1811,74,-137,807,-27,-9,-21
1812,-53,-27,921,-24,8,-4
1813,-13,55,1095,13,0,-5
1814,88,-179,722,-33,-7,-11
1815,-8,78,949,-9,11,-13
1816,-74,181,852,-57,54,-32
1817,77,-167,721,6,18,-12
1818,-112,48,874,7,-1,-6
1819,86,-68,796,-9,-9,-11
1820,-88,-103,908,23,12,8
1821,83,90,944,-27,-17,-19
1822,-32,-65,868,-6,13,3
1823,51,19,785,31,-4,-9
1824,-41,137,851,30,-13,-6
1825,-64,-80,657,-7,2,19
1826,-28,-29,922,-32,-14,-11
1827,71,-39,804,-39,-17,-10
1828,-103,-105,793,-17,10,13
1829,149,15,954,-3,-9,-35
1830,-84,54,960,-29,12,10
1831,52,-26,528,-82,-21,5
1832,-78,7,863,-78,4,-12
1833,-167,28,694,-35,22,5
1834,32,-101,944,-1,-9,-22
1835,27,-34,806,-6,-5,-13
1836,-73,43,943,-6,0,9
1837,145,-84,861,-19,-12,-23
1838,-60,129,889,13,23,-6
1839,-31,78,652,52,11,-2
1840,-67,-101,771,34,-9,-21
1841,-163,84,829,-29,11,15
1842,72,-144,773,-25,-10,-11
1843,-57,-44,890,-43,-9,4
1844,-28,65,1089,19,0,-6
1845,35,-115,763,-41,2,-8
1846,-7,116,868,-13,11,-8
1847,-70,69,997,-45,48,-28
1848,-39,-148,693,-25,17,-8
1849,-95,43,886,25,2,-7
1850,67,-37,835,-21,-14,-9
1851,-91,-71,917,7,7,10
1852,100,22,962,3,-10,-24
1853,-40,-52,926,-47,6,4
1854,38,20,793,-27,0,-10
1855,20,84,898,-62,52,-29
1856,-55,-43,758,-5,10,5
1857,-13,-28,933,1,-3,-16
1858,57,-42,831,-11,-10,-8
1859,-92,-50,904,-15,0,14
1860,148,-9,945,-5,-20,-27
1861,-60,129,855,-11,32,-5
1862,35,-22,555,9,13,-18
1863,-131,-22,858,96,29,-38
1864,-192,46,727,-12,8,19
1865,61,-109,889,-33,-15,-14
1866,-19,-22,853,16,8,-5
1867,-33,16,1035,-25,6,4
1868,120,-125,780,-7,-7,-17
1869,-43,76,837,-17,4,7
1870,-33,87,786,-94,20,-1
1871,94,-113,768,-26,15,-22
1872,-154,92,848,-9,22,0
1873,102,-114,791,-18,-16,-17
1874,-76,-70,945,-13,0,3
1875,39,36,1086,6,-7,-16
1876,-21,-41,698,-19,11,0
1877,-27,78,672,-46,-9,3
1878,-127,45,972,-85,37,-14
1879,-80,-121,534,-32,13,-6
1880,-74,2,942,12,6,-16
1881,66,-31,834,-23,-11,-19
1882,-95,-84,860,-6,5,11
1883,139,38,944,11,-19,-25
1884,-100,144,851,-61,31,-7
1885,100,-35,488,0,22,-18
1886,-174,9,789,84,63,-56
1887,-185,18,648,4,29,12
1888,48,-98,935,42,0,-16
1889,42,15,803,-7,-6,-5
1890,-77,7,885,-2,4,12
1891,149,-77,816,-19,-13,-25
1892,-86,74,871,42,27,-7
1893,-22,160,586,72,-5,4
1894,160,-86,679,28,-35,-19
1895,-156,82,844,-28,8,22
1896,117,-110,719,-13,-15,-10
1897,-67,-46,898,-37,-6,4
1898,-12,21,1000,2,0,-11
1899,20,-162,598,-19,0,-10
1900,-112,86,688,48,0,-8
1901,-127,114,939,105,-13,8
1902,-70,-197,459,-43,-37,6
1903,-148,49,927,26,8,4
1904,87,-85,726,-65,-15,-4
1905,-93,-119,882,-36,-4,14
1906,113,98,864,14,-22,-22
1907,-93,101,786,-95,29,-4
1908,94,-6,544,-12,17,-25
1909,-176,124,653,-63,96,-43
1910,-111,-106,541,-12,2,7
1911,15,-34,905,5,-4,-21
1912,52,15,660,-28,-7,-5
1913,-107,-116,843,-18,5,19
1914,94,-43,874,-6,-31,-31
1915,-94,152,795,-60,30,2
1916,30,-77,462,-112,8,3
1917,-99,-30,766,-67,9,-16
1918,-202,66,714,-46,13,6
1919,24,-142,880,8,-11,-21
1920,6,1,761,14,5,-10
1921,-58,30,1052,-23,-5,6
1922,92,-157,695,-11,-14,-21
1923,-42,160,835,44,24,-9
1924,-49,52,780,38,42,-23
1925,29,-127,728,107,16,-31
1926,-192,86,848,-29,7,17
1927,74,-108,756,3,-10,-7
1928,-44,-45,870,-12,-1,7
1929,9,80,1087,-38,-16,-6
1930,22,-128,674,2,5,-3
1931,27,113,832,30,3,-12
1932,-55,91,1004,103,35,-18
1933,18,-148,678,-9,-7,1
1934,-90,13,889,2,2,-1
1935,55,3,820,-14,-12,-5
1936,-89,-114,839,-36,-5,15
1937,74,41,956,-12,-17,-23
1938,-51,46,915,-12,19,3
1939,68,-6,696,31,1,-11
1940,-30,6,937,81,21,-29
1941,-89,-34,759,-16,8,18
1942,0,-68,957,7,-8,-15
1943,34,25,801,-24,-10,-5
1944,-107,-69,906,-14,0,16
1945,125,-39,880,-29,-24,-27
1946,-44,143,1041,11,31,-5
1947,34,-80,594,23,1,-13
1948,-14,-22,974,53,11,-25
1949,-169,46,800,-9,10,22
1950,49,-139,922,-32,-15,-12
1951,-2,3,868,29,-6,1
1952,-50,38,1107,-35,-1,3
1953,135,-118,778,-31,-13,-20
1954,-62,130,990,33,14,2
1955,-42,9,815,-21,-16,14
1956,23,-131,860,-11,-23,2
1957,-129,72,895,-44,-2,5
1958,74,-117,821,-41,-17,-16
1959,-54,-39,921,-25,0,4
1960,33,42,1056,-9,1,-16
1961,15,-117,816,-32,2,-6
1962,-3,54,916,-31,-10,-6
1963,-18,108,979,-70,39,-23
1964,8,-140,742,-38,16,-4
1965,-64,22,887,19,3,-13
1966,59,-49,872,-5,-16,-10
1967,-95,-80,834,4,5,11
1968,117,38,959,-2,-6,-27
1969,-52,10,930,-33,5,15
1970,51,-12,654,-49,-23,2
1971,-71,70,873,-94,-10,7
1972,-140,-15,693,-53,-3,7
1973,11,-61,950,-5,-3,-20
1974,42,-32,812,3,-4,-9
1975,-91,-25,915,-1,2,10
1976,96,-52,958,-9,-15,-28
1977,-79,138,849,-43,11,8
1978,-34,-6,586,-78,11,-1
1979,-56,-23,840,-71,5,-15
1980,-179,82,795,-31,9,2
1981,73,-123,816,-19,-17,-16
1982,-11,-7,916,13,0,0
1983,-36,51,1041,-25,-8,1
1984,112,-130,704,-19,-10,-18
1985,-3,82,912,25,27,-21
1986,-64,218,833,12,60,-42
1987,128,-134,650,83,21,-26
1988,-124,59,899,-37,-1,0
1989,83,-80,723,-39,-11,-11
1990,-82,-101,889,-8,16,9
1991,38,94,977,-34,-10,-19
1992,-36,25,730,38,16,-3
1993,48,49,681,29,3,-16
1994,-167,98,818,125,43,-38
1995,-120,-129,487,23,-5,14
1996,-53,-18,863,-56,-6,-8
1997,53,-19,730,-4,-2,-11
1998,-101,-138,834,-56,7,18
1999,73,-26,969,11,-17,-28
2000,-107,98,851,6,34,-10
2001,56,-44,532,-14,22,-19
2002,-74,-3,865,106,64,-59
2003,-175,20,652,-49,17,14
2004,-2,-123,961,6,-8,-17
2005,35,17,782,-4,-12,-3
2006,-89,-22,952,-22,2,13
2007,143,-121,806,1,-11,-27
2008,-70,100,903,2,1,18
2009,-28,-6,620,-46,-30,27
2010,101,-68,825,-22,-53,4
2011,-186,65,768,-64,7,7
2012,64,-133,766,-27,-5,-21
2013,-42,-4,882,-22,1,-3
2014,-26,76,1091,-12,1,-8
2015,106,-190,626,-18,-9,-5
2016,-14,126,890,29,1,6
2017,-82,90,875,-43,-33,35
2018,75,-179,700,-68,-39,4
2019,-146,38,861,-26,6,-5
2020,69,-29,725,-50,-20,-11
2021,-73,-83,859,-27,-3,8
2022,39,57,944,-18,-20,-19
2023,-17,-59,691,-36,16,-1
2024,63,47,781,-6,6,-21
2025,-64,17,935,9,70,-40
2026,-31,-106,660,-14,2,1
2027,-44,-23,955,7,6,-12
2028,44,2,715,3,4,-13
2029,-112,-129,659,-50,9,17
2030,86,-13,893,24,-5,-35
2031,-147,86,847,-5,44,3
2032,110,-69,548,-2,6,-13
2033,-30,58,918,27,42,-36
2034,-123,20,703,-38,12,12
2035,12,-117,1048,18,-1,-17
2036,51,-64,766,-41,-4,-11
2037,-112,49,753,-29,5,19
2038,80,-72,684,-47,-20,-24
2039,-121,107,1044,-63,5,15
2040,-16,-100,468,-43,-19,8
2041,-27,-118,952,-10,-16,-8
2042,-138,66,831,-36,6,13
2043,49,-133,837,-10,-8,-12
2044,22,10,795,4,-1,-6
2045,-101,40,972,19,15,-4
2046,60,-192,526,4,-3,-20
2047,-33,100,995,-16,29,-6
2048,-51,92,693,-41,-7,10
2049,28,-153,850,-41,-14,-2
2050,-118,93,902,-20,4,2
2051,58,-99,843,-10,-9,-11
2052,-45,-62,853,-3,-2,3
2053,37,108,984,32,1,-16
2054,93,-124,610,-41,-3,-2
2055,-57,15,939,-8,9,-10
2056,-106,51,827,-13,-1,5
2057,-78,-176,681,-45,-12,6
2058,-72,29,899,-2,3,-9
2059,56,-62,863,-7,-5,-14
2060,-86,-109,696,2,5,9
2061,3,72,896,49,-9,-28
2062,-113,-32,780,-63,10,15
2063,-13,-51,811,-45,-14,-10
2064,-76,-27,918,18,3,-12
2065,-72,-56,797,-20,2,11
2066,-30,-42,1022,0,-4,-14
2067,63,24,832,-8,-4,-13
2068,-89,-128,791,0,7,10
2069,108,-25,934,29,-12,-35
2070,-94,56,1013,-39,26,13
2071,88,-42,639,-19,-14,-1
2072,-11,9,1000,27,-6,-9
2073,-107,15,822,-56,-3,14
2074,10,-93,1060,-9,1,-11
2075,37,-20,875,15,-4,-8
2076,-83,-10,910,-5,1,14
2077,171,-126,807,-4,-21,-22
2078,-48,88,1010,-7,34,-3
2079,-42,-27,597,-45,-10,4
2080,-73,-104,920,-54,-7,-3
2081,-121,84,767,-27,5,1
2082,32,-139,903,-34,-10,-11
2083,-4,-30,858,-2,-8,-4
2084,-63,73,983,-53,-6,-1
2085,58,-183,666,-44,-16,-8
2086,-49,37,1022,54,6,-3
2087,-48,89,822,-21,15,-15
2088,48,-159,880,32,13,-11
2089,-98,62,970,-9,0,-1
2090,53,-63,885,-26,-5,-11
2091,-46,-70,900,15,9,1
2092,43,70,950,9,0,-21
2093,58,-90,713,4,15,1
2094,-37,-4,919,0,11,-12
2095,-79,22,902,-55,26,-11
2096,-60,-138,686,-48,3,2
2097,-66,-6,956,-4,2,-16
2098,33,-6,817,-39,-12,-14
2099,-94,-94,642,-37,1,14
2100,58,-2,892,-16,-5,-32
2101,-108,-11,897,-51,8,19
2102,70,-55,677,-34,-25,-4
2103,-47,62,907,9,-8,-6
2104,-90,-21,741,-49,-3,16
2105,1,-65,1040,12,-6,-16
2106,48,-3,855,-9,-7,-11
2107,-114,-24,763,-8,5,14
2108,173,-57,746,41,-15,-33
2109,-61,86,1047,13,50,-4
2110,1,-102,469,-55,-3,-4
2111,-85,-79,911,-7,5,-15
2112,-150,53,762,-64,7,8
2113,30,-137,911,-10,-6,-15
2114,21,-5,740,8,-6,-7
2115,-133,78,877,-24,-7,13
2116,51,-188,590,7,-22,-23
2117,-183,36,939,-8,46,-17
2118,-57,-39,540,-13,-4,12
2119,-14,-167,856,-46,-17,-2
2120,-153,68,815,-38,2,6
2121,37,-107,759,-11,-7,-10
2122,-20,-46,801,-7,-4,-4
2123,-76,34,932,26,24,-16
2124,21,-247,423,-18,-15,-2
2125,-29,51,927,-3,-20,13
2126,-144,100,770,-96,23,-6
2127,21,-204,670,-41,-4,-9
2128,-143,29,896,-7,8,-13
2129,57,-49,740,-6,-6,-5
2130,-69,-124,694,-9,-1,8
2131,-18,-9,799,67,4,-38
2132,-83,-153,510,13,-7,25
2133,10,-11,816,3,-42,4
2134,-119,49,802,-48,-15,20
2135,-52,-161,477,-54,-12,16
2136,-126,-54,969,-32,-12,-16
2137,9,10,702,-62,-2,-24
2138,-180,-183,503,-9,11,22
2139,-55,23,744,64,-40,-26
2140,-186,12,656,-73,-28,48
2141,-9,-89,530,-42,-36,3
2142,-222,63,588,76,14,-28
2143,-96,13,439,-14,5,29
2144,3,-38,981,37,-14,-18
2145,45,46,758,-5,-7,-12
2146,-129,-189,501,12,-16,32
2147,65,-142,681,38,-48,-27
2148,-111,42,875,51,-1,35
2149,119,-103,421,-100,-44,6
2150,-196,14,578,-115,5,-2
2151,-54,79,615,-65,3,18
2152,40,-67,980,-43,-20,-20
2153,23,101,726,34,-24,-7
2154,-152,-103,612,11,22,6
2155,63,-187,617,29,2,-56
2156,-65,-15,925,-68,15,28
2157,107,25,499,-103,-8,-4
2158,-159,-16,688,-60,15,-29
2159,-115,51,557,-48,11,9
2160,-9,-159,783,14,5,-23
2161,-113,-20,650,20,9,-17
2162,-86,40,735,-50,-4,17
2163,-97,-189,599,-65,-21,-27
2164,-160,52,935,17,40,-13
2165,29,-119,632,37,9,-21
2166,-71,-52,706,43,23,-29
2167,-88,94,777,19,12,15
2168,59,-87,819,-30,-16,-12
2169,-10,65,804,19,-9,6
2170,-72,38,952,20,21,-10
2171,98,-175,653,12,-6,-23
2172,-83,11,1015,16,-1,20
2173,38,72,698,-78,-15,8
2174,-148,-93,716,-55,-7,6
2175,-107,60,749,-30,5,-2
2176,40,-144,702,-28,-6,-19
2177,-123,-37,773,34,8,-7
2178,-156,96,801,-58,20,-15
2179,-110,-254,562,-33,-8,-9
2180,-138,45,982,80,3,6
2181,-13,0,753,-38,-19,15
2182,-19,-144,718,-3,-4,9
2183,-84,97,838,-23,2,-4
2184,37,-28,780,-32,-6,-16
2185,-39,-19,708,1,7,-6
2186,-57,218,1079,-69,10,-12
2187,77,-203,590,-50,-5,-4
2188,-19,55,1051,85,2,-5
2189,-9,17,705,-14,-22,17
2190,-74,-166,615,-40,-8,8
2191,-81,64,872,-2,9,-12
2192,25,-63,810,-38,-4,-16
2193,-72,-40,740,-13,-3,-4
2194,-39,-13,822,-66,12,-23
2195,11,-170,495,-35,3,5
2196,-55,-41,1019,49,-5,-4
2197,-79,149,810,-27,-22,19
2198,-41,-100,591,-60,-21,15
2199,-82,4,812,-13,7,-17
2200,-3,-41,722,-12,13,-18
2201,-141,-135,612,-12,0,3
2202,-161,53,688,-80,-3,-27
2203,-113,-124,651,10,7,12
2204,-26,-15,899,30,-9,-10
2205,-63,32,812,29,-7,7
2206,-75,-120,568,-4,-7,22
2207,-78,-8,891,-45,-12,-20
2208,-8,137,790,-50,8,-18
2209,-55,-99,694,-41,-1,19
2210,55,46,848,-15,-43,-12
2211,-81,-79,704,-54,21,3
2212,60,-18,897,-44,0,-28
2213,-116,23,697,-17,64,-45
2214,-98,-22,569,5,5,13
2215,-26,-66,849,-17,-11,-19
2216,12,7,764,39,-5,-2
2217,-85,-77,470,-45,5,12
2218,-103,-60,704,11,8,-56
2219,-127,-24,807,32,17,17
2220,60,-71,786,32,-3,-7
2221,-96,4,762,69,2,-14
2222,-104,0,664,-38,6,24
2223,-26,-53,921,-6,-10,-17
2224,17,140,797,-59,-9,-1
2225,-81,-95,688,-13,1,21
2226,91,-40,768,70,-22,-36
2227,-110,-12,861,-64,7,30
2228,62,-15,730,-72,-33,0
2229,-178,25,742,-58,-10,4
2230,-86,31,651,-47,5,13
2231,25,-132,891,-24,-8,-23
2232,-60,8,720,21,10,-19
2233,-87,19,590,-36,2,14
2234,-100,-130,636,-73,-27,-24
2235,-176,59,929,22,44,-7
2236,75,-139,619,-29,9,-23
2237,-127,-18,746,57,39,-38
2238,-84,77,729,-27,5,12
2239,10,-62,919,-13,-8,-15
2240,6,104,748,2,-16,5
2241,-120,-20,790,-5,16,6
2242,105,-151,662,44,-10,-41
2243,-109,-5,939,-7,4,31
2244,73,35,646,-19,-20,12
2245,-164,0,768,5,-21,2
2246,-99,72,687,-43,5,12
2247,23,-153,756,-34,-5,-17
2248,-112,-11,740,-31,4,-11
2249,-107,110,814,-14,-10,24
2250,-50,-176,564,-40,-30,-13
2251,-132,112,955,-46,26,-3
2252,24,-93,586,-81,-11,-12
2253,-108,-73,713,-65,10,-6
2254,-58,87,760,-9,12,-3
2255,51,-108,827,-19,-6,-15
2256,-20,58,814,63,3,-6
2257,-92,36,909,-75,15,-5
2258,30,-216,520,-37,-11,-17
2259,-99,3,995,50,29,-10
2260,9,86,782,7,24,-18
2261,-99,-40,774,48,20,-17
2262,-97,119,740,-15,5,4
2263,33,-74,694,-21,-8,-4
2264,-172,-66,722,-23,-18,8
2265,-160,191,964,67,16,-16
2266,11,-233,577,-28,-9,-5
2267,-56,95,1020,12,2,15
2268,-1,-5,643,-53,-22,14
2269,-81,-141,646,-58,-14,9
2270,-48,63,840,-12,5,-8
2271,23,-96,816,-30,1,-15
2272,-56,-5,769,-14,4,-3
2273,-35,0,901,-70,-11,-7
2274,24,-198,496,-60,1,-8
2275,-76,-10,1059,58,15,-21
2276,-72,169,845,31,21,-29
2277,-71,-96,701,-4,12,1
2278,-64,63,796,24,3,-7
2279,6,-8,735,-62,-14,-2
2280,-168,-141,680,-14,-4,13
2281,-167,163,841,43,-21,-10
2282,-64,-171,648,-56,9,3
2283,-15,57,963,-25,1,-16
2284,-7,11,720,-79,23,-29
2285,-33,-128,647,-28,15,4
2286,-33,33,905,29,7,-18
2287,33,65,862,-25,-17,-1
2288,-31,-48,697,16,-2,13
2289,16,-2,835,73,8,-43
2290,-6,-95,672,-51,8,19
2291,12,-26,973,-38,-12,-1
2292,-108,76,761,-127,-4,-4
2293,-69,-56,611,-51,3,10
2294,-13,-54,838,13,6,-23
2295,-2,0,778,12,0,-12
2296,-135,-113,503,-4,2,7
2297,-138,-29,714,7,14,-53
2298,-130,-66,768,-13,13,22
2299,9,-73,823,31,-13,0
2300,-61,51,808,-23,-33,11
2301,-85,-59,667,-51,1,19
2302,-18,-53,918,-7,-2,-22
2303,29,136,776,-59,2,-17
2304,-51,-67,729,-50,-11,21
2305,104,22,841,-20,-36,-20
2306,-126,-7,871,-50,36,-8
2307,102,-28,769,22,7,-26
2308,-158,-36,674,24,35,-41
2309,-79,1,675,-6,15,16
2310,24,-91,943,24,-3,-19
2311,-5,44,766,-34,-21,2
2312,-92,-45,516,28,9,14
2313,-65,-181,720,48,-11,-44
2314,-128,-25,890,-45,13,28
2315,29,-61,695,-62,-28,1
2316,-52,36,834,-81,-1,-4
2317,-139,64,745,-38,13,8
2318,11,-94,932,-19,-7,-23
2319,-7,95,706,13,-4,-15
2320,-114,50,855,-15,14,3
2321,105,-43,742,-65,-4,-38
2322,-115,69,1008,63,18,16
2323,89,-62,588,8,-22,5
2324,-142,-75,760,14,-5,-5
2325,-62,41,748,-11,14,16
2326,38,-144,945,-48,-12,-18
2327,-3,42,813,-35,-2,-16
2328,-100,19,775,-40,7,14
2329,21,-170,650,-77,-16,-23
2330,-95,3,1013,66,31,-3
2331,-12,-6,709,34,-11,1
2332,-126,-34,830,15,-10,-9
2333,-104,99,761,-15,16,10
2334,41,-162,752,-31,-2,-17
2335,-89,-28,771,-27,-3,-11
2336,-193,89,854,-55,10,0
2337,-56,-202,626,-38,-9,-18
2338,-158,78,1006,41,11,10
2339,-5,19,781,-54,-15,9
2340,3,-77,839,-46,-10,6
2341,-112,123,890,-33,-2,-4
2342,36,-118,786,-19,-8,-11
2343,-57,-27,808,28,2,-6
2344,-100,154,977,46,15,-10
2345,76,-190,663,-36,-11,-19
2346,-66,108,1080,-6,20,-10
2347,-1,26,788,3,14,-18
2348,16,-126,788,43,12,-7
2349,-51,93,948,-20,-7,-2
2350,38,-78,839,-43,-8,-12
2351,-14,-74,815,-32,6,1
2352,0,187,1077,-34,21,-24
2353,43,-125,674,-62,-1,-2
2354,-14,86,1048,-23,-8,2
2355,-19,64,815,19,40,-36
2356,-4,-146,740,1,24,-4
2357,-27,61,968,23,1,-8
2358,50,-29,864,-59,-16,-5
2359,-24,-106,833,-34,-3,10
2360,51,135,1025,-40,8,-22
2361,-24,-67,754,-63,5,10
2362,28,40,993,-40,-15,3
2363,-17,57,823,51,46,-42
2364,-6,-119,721,-16,5,3
2365,-17,11,1008,6,4,-11
2366,47,11,899,-51,-3,-10
2367,-40,-96,746,-52,-9,16
2368,96,73,991,-16,1,-34
2369,-68,37,871,-82,25,10
2370,65,-37,904,-31,-4,-12
2371,-19,46,838,82,8,-26
2372,-44,-33,726,-14,8,17
2373,15,-40,1016,-12,-13,-16
2374,58,18,902,-37,4,-16
2375,-74,-71,691,-23,17,9
2376,118,27,899,33,3,-48
2377,-130,112,998,-24,45,-6
2378,83,-64,737,-11,-9,-2
2379,0,17,805,2,-22,6
2380,-95,36,771,-69,-3,22
2381,43,-91,1009,1,-4,-20
2382,39,24,794,-15,9,-17
2383,-110,-32,760,30,11,17
2384,94,-75,818,24,-23,-39
2385,-122,111,1061,53,48,-4
2386,69,-103,605,-48,-23,5
2387,32,-48,781,-25,-14,6
2388,-136,59,803,-55,11,18
2389,31,-118,949,-11,-11,-20
2390,11,20,715,44,10,-14
2391,-120,57,887,29,21,4
2392,121,-142,758,31,-9,-37
2393,-132,140,1046,14,50,-15
2394,27,-114,609,11,-20,10
2395,19,-79,740,11,-24,-2
2396,-113,83,830,-26,19,17
2397,70,-119,825,-44,-9,-16
2398,-2,7,768,-7,3,-10
2399,-83,155,1053,-42,31,-8
2400,130,-188,699,-22,-4,-24
2401,-67,141,1066,-50,6,19
2402,12,-60,593,-22,23,-17
2403,-11,-122,673,-19,23,-28
2404,-78,134,871,17,20,6
2405,78,-115,811,-27,-18,-5
2406,-2,32,796,-4,-19,7
2407,-42,92,1058,41,-10,10
2408,97,-232,612,-49,-15,-13
2409,-6,65,1081,46,29,-25
2410,16,34,660,12,-5,-2
2411,-70,-162,581,27,-5,3
2412,-104,99,850,-19,-1,1
2413,50,-118,733,-67,-10,-14
2414,-66,-54,782,-19,9,7
2415,-38,-10,849,-66,-18,2
2416,0,-213,498,-41,-6,3
2417,-67,-24,1019,70,-3,-9
2418,-98,159,786,-72,-24,24
2419,-80,-130,547,-67,-21,11
2420,-94,22,817,-7,9,-14
2421,10,-70,670,-31,4,-18
2422,-166,-124,669,-9,-2,1
2423,-232,45,695,-45,19,-36
2424,-120,-179,613,-32,-4,13
2425,-88,-19,894,-4,-18,4
2426,-39,138,879,-118,4,4
2427,-49,-157,612,-43,0,12
2428,-70,10,880,1,-6,-20
2429,3,77,752,-1,-1,-16
2430,-98,-121,705,2,9,6
2431,-13,167,879,-13,25,-48
2432,-78,-76,781,-16,2,26
2433,61,-5,940,-18,-25,6
2434,-71,-1,689,-123,-1,2
2435,-36,-86,654,-39,10,9
2436,-14,-1,955,1,-1,-24
2437,35,62,855,5,-5,-14
2438,-80,-111,620,-14,4,8
2439,23,-93,830,18,17,-51
2440,-4,-55,819,-38,7,26
2441,23,-64,861,-13,-19,2
2442,-160,57,740,-94,-17,5
2443,-113,-2,648,-60,-3,13
2444,-2,-73,915,2,2,-25
2445,-15,19,715,23,9,-13
2446,-152,-69,487,-32,5,5
2447,-190,-89,758,36,2,-51
2448,-191,-14,864,-39,6,31
2449,-38,-65,750,-73,-20,1
2450,-18,50,841,-66,17,-13
2451,-136,22,767,-33,5,11
2452,22,-92,943,-1,-10,-21
2453,-30,69,713,41,0,-6
2454,-128,-9,740,14,12,13
2455,54,-34,802,11,-16,-41
2456,-116,114,1014,-37,30,7
2457,70,-89,641,-46,3,-16
2458,-34,-44,776,52,31,-43
2459,-55,36,833,-26,10,10
2460,34,-89,960,-6,-5,-17
2461,45,56,799,-14,-2,-6
2462,-91,58,920,-51,-15,21
2463,193,-104,831,-28,-24,-22
2464,-79,76,1085,47,17,7
2465,56,-55,626,-51,-13,10
2466,-64,-93,779,-52,-19,0
2467,-77,69,840,-43,3,3
2468,60,-122,926,-4,-4,-15
2469,10,35,884,21,0,-9
2470,-81,84,938,18,1,2
2471,99,-166,713,13,-19,-25
2472,-14,68,1086,0,28,-10
2473,30,0,682,-1,-6,7
2474,-65,-175,788,6,-21,1
2475,-86,94,856,-44,-2,5
2476,52,-139,890,-5,-1,-16
2477,-17,25,878,-13,10,-8
2478,-41,68,985,22,15,-13
2479,77,-197,665,-14,-1,-17
2480,-7,67,1075,33,25,-13
2481,15,11,754,-59,-18,14
2482,-61,-178,745,-31,-13,2
2483,-72,79,924,-19,2,-4
2484,49,-107,912,-30,-9,-15
2485,-38,-8,880,6,3,-4
2486,-10,87,1095,32,3,-15
2487,51,-147,697,-5,-11,-2
2488,16,61,1052,29,-12,-7
2489,9,49,843,-42,33,-29
2490,-30,-149,764,-22,20,-3
2491,-43,39,983,12,1,-9
2492,61,-69,925,-20,-15,-7
2493,-61,-98,887,-17,-6,6
2494,66,95,1032,-26,9,-29
2495,-18,-22,849,-16,17,-3
2496,52,21,970,-24,-3,-16
2497,-18,170,943,-64,17,-9
2498,-23,-92,757,-44,9,0
2499,-49,-7,1024,7,2,-16
2500,32,-33,871,-7,-18,-8
2501,-88,-111,758,-20,-3,9
2502,44,20,951,-17,-4,-32
2503,-112,-9,926,-25,32,-2
2504,-27,-73,796,1,-3,-14
2505,-159,4,860,-34,27,-27
2506,-100,-40,745,3,11,7
2507,-24,-38,1030,-10,-1,-14
2508,74,-16,909,-21,-7,-18
2509,-89,-79,921,-2,8,12
2510,124,-3,1039,24,-15,-27
2511,-91,39,1105,-30,22,5
2512,79,-19,702,-33,-8,-5
2513,5,23,984,-37,3,-16
2514,-89,20,866,-32,8,3
2515,1,-76,1099,-9,-1,-16
2516,5,-15,875,-16,-4,-13
2517,-71,5,1015,-9,-3,3
2518,124,-79,939,-30,-19,-19
2519,-68,49,1082,-1,24,-9
2520,17,-29,731,10,5,2
2521,-10,-38,1026,12,2,-13
2522,-103,43,900,-18,8,5
2523,23,-107,1056,-24,-9,-14
2524,-7,-32,941,-22,-8,-6
2525,-3,42,1150,-24,-6,-9
2526,76,-98,836,-27,-4,-8
2527,-16,42,1057,25,11,-6
2528,-27,21,919,-49,4,-5
2529,23,-99,982,-31,4,-9
2530,-86,28,987,-12,6,-3
2531,36,-82,991,-20,-8,-12
2532,-41,-52,961,-13,0,-1
2533,56,1,1078,-10,0,-16
2534,-9,-71,887,-18,6,-2
2535,35,35,1032,-13,-7,-8
2536,-48,39,1061,-36,2,-3
2537,-15,-60,894,-29,-3,0
2538,-56,-23,1027,-10,-2,-9
2539,23,-48,968,-15,-8,-8
2540,-50,-49,980,-8,4,3
2541,86,-2,1018,-6,-11,-15
2542,-33,-8,1048,-24,3,2
2543,54,-18,908,-18,-5,-10
2544,-34,15,1068,-38,20,-14
2545,-67,-13,922,-16,7,0
2546,-11,-55,1064,-8,-6,-12
2547,15,-29,917,-27,-8,-9
2548,-41,-31,1027,-5,1,-3
2549,92,-26,968,-20,-11,-16
2550,-16,15,1080,-9,13,-6
2551,-1,17,768,-5,-1,0
2552,-28,-42,965,-23,-10,-7
2553,-130,22,926,-19,7,1
2554,43,-96,983,-25,-14,-17
2555,-26,-30,949,-12,-4,-4
2556,23,9,1083,-14,-5,-11
2557,52,-66,846,-27,-2,-8
2558,24,51,940,13,3,-4
2559,-51,66,965,-72,3,-5
2560,41,-107,820,-28,-2,-8
2561,-108,33,997,-11,14,-3
2562,70,-77,883,-10,-11,-11
2563,-76,-39,993,-6,2,5
2564,101,0,965,-4,-9,-18
2565,-44,-25,855,-17,12,3
2566,48,19,832,-31,-5,-7
2567,-15,58,967,17,35,-18
2568,-33,-65,765,-16,-4,4
2569,-49,-27,1048,-20,5,-6
2570,47,-48,858,-3,-5,-7
2571,-77,-37,969,-19,4,8
2572,124,-15,931,-10,-12,-19
2573,-44,82,1060,-23,12,6
2574,47,-62,614,-33,3,-5
2575,-79,-13,968,22,19,-15
2576,-123,25,869,-23,4,10
2577,24,-97,1059,-22,-6,-7
2578,-12,-30,900,-1,2,-2
2579,-7,10,1152,-33,-5,1
2580,81,-109,685,-14,-9,-5
2581,-58,0,908,19,7,-4
2582,-55,38,912,-71,9,-1
2583,7,-154,825,-9,-6,-9
2584,-110,33,1007,-37,8,1
2585,49,-82,933,-20,-9,-8
2586,-62,-49,951,-14,-2,4
2587,78,22,993,-30,-15,-16
2588,-51,22,879,2,11,8
2589,65,-20,823,-10,-5,-6
2590,-48,-46,1037,-26,18,-6
2591,-36,-50,844,-15,1,6
2592,-40,-46,1105,-19,-3,-6
2593,34,-36,883,-21,-8,-7
2594,-65,-38,973,-8,4,8
2595,132,-22,934,-17,-19,-16
2596,-38,65,1042,16,25,2
2597,22,-32,685,-27,3,-7
2598,3,-94,1048,-3,19,-12
2599,-102,41,932,-3,11,3
2600,23,-115,1046,-37,-11,-7
2601,-16,-27,942,-9,-5,-3
2602,11,37,1107,-33,-5,-5
2603,51,-90,684,-28,-2,2
2604,38,74,975,10,-3,-3
2605,-70,-1,1018,-36,4,10
2606,17,-139,865,-37,-10,2
2607,-83,16,1031,-14,2,-5
2608,40,-76,947,-30,-9,-6
2609,-54,-93,910,-4,0,8
2610,99,-4,1029,21,-16,-17
2611,-82,32,897,-12,18,3
2612,-8,-48,683,6,7,-8
2613,-57,-7,997,11,28,-14
2614,-94,-11,827,-14,8,8
2615,-10,-84,1101,-9,-4,-7
2616,36,-31,912,-18,-4,-4
2617,-61,-15,1055,10,10,5
2618,150,-105,704,0,-11,-18
2619,-88,5,912,-11,24,-5
2620,-23,60,748,-21,22,-4
2621,-25,-68,870,-14,16,-13
2622,-123,70,959,0,8,3
2623,43,-117,973,-13,-9,-5
2624,-36,-48,876,-1,1,-1
2625,19,24,940,16,6,-19
2626,1,-42,764,-18,12,-1
2627,46,-51,872,-26,4,-7
2628,-19,38,991,-58,22,-3
2629,-53,-95,787,-38,6,5
2630,-46,-24,1097,7,-1,-10
2631,43,-32,923,-28,-5,-10
2632,-88,-66,798,-20,9,3
2633,111,3,925,-7,-3,-27
2634,-66,102,904,-26,12,23
2635,49,-93,535,-74,-27,11
2636,-48,-110,967,-2,-18,-8
2637,-146,76,863,-50,7,10
2638,44,-163,1005,-42,-13,-12
2639,-3,-20,923,16,-6,-6
2640,-48,33,1126,-7,-12,8
2641,109,-187,494,-26,-10,-17
2642,-119,119,861,38,37,-22
2643,-130,53,885,-106,20,4
2644,20,-233,655,-40,-7,5
2645,-120,100,1013,4,3,-4
2646,52,-75,904,-41,-15,-2
2647,-62,-123,799,7,4,9
2648,49,65,927,32,-20,-17
2649,-47,28,769,-62,29,-1
2650,-11,-68,589,-40,-7,-8
2651,-185,-98,877,-30,-26,11
2652,-115,-46,675,-49,-4,13
2653,9,-80,1029,-21,-4,-18
2654,22,-3,811,-34,3,-13
2655,-116,-47,772,-7,-9,22
2656,115,-58,731,-55,-39,-19
2657,-49,-5,903,51,78,-34
2658,63,-26,349,6,-26,22
2659,-99,-190,666,20,-45,-3
2660,-191,97,907,-44,10,18
2661,110,-216,756,-36,-16,-7
2662,-60,-25,878,-3,-1,-7
2663,-3,113,981,-67,0,-5
2664,119,-157,387,-7,14,-24
2665,-224,60,628,161,28,-38
2666,-232,65,837,61,-28,32
2667,-46,-303,271,-7,-27,3
2668,-129,19,1005,38,23,-3
2669,98,-56,677,-67,-22,-4
2670,-128,-136,784,-13,3,10
2671,114,107,816,-24,-2,-37
2672,-139,53,625,55,61,-25
2673,-46,-70,392,149,14,-23
2674,-217,5,647,154,46,-52
2675,-86,-50,384,19,23,33
2676,21,-140,977,-15,-15,-9
2677,33,-11,678,-17,-15,-3
2678,-110,-120,796,-2,2,28
2679,197,6,808,-61,-37,-26
2680,-103,215,829,-86,41,3
2681,55,100,292,-139,-8,15
2682,-42,-11,584,-76,-10,-4
2683,-208,76,678,-72,11,9
2684,117,-167,795,-17,-14,-21
2685,-43,-26,716,22,9,-11
2686,-49,119,1033,-39,-12,7
2687,116,-132,631,-9,-14,-23
2688,-13,129,796,60,12,-3
2689,-62,114,665,45,34,-20
2690,-27,-197,539,82,9,-22
2691,-177,96,873,-38,2,17
2692,93,-130,672,-12,-13,-8
2693,-90,-103,800,11,6,9
2694,67,106,942,-38,-19,-10
2695,-8,-143,619,-10,10,-6
2696,36,82,804,10,7,-17
2697,-63,100,834,66,64,-35
2698,-19,-148,551,-6,2,-4
2699,-76,1,921,19,5,-4
2700,54,-51,770,9,-4,-10
2701,-107,-158,692,-34,0,16
2702,105,45,865,43,-16,-26
2703,-116,-11,881,-83,16,14
2704,91,-45,593,-52,-12,-4
2705,-26,57,802,-79,19,-6
2706,-113,-9,635,-27,3,8
2707,9,-88,1011,-32,-11,-19
2708,61,-45,770,-20,-3,-15
2709,-131,-56,740,-35,6,17
2710,150,-9,768,-35,-22,-31
2711,-107,2,1047,34,42,-8
2712,13,-96,426,-14,8,-17
2713,1,-52,913,43,33,-36
2714,-149,71,799,-2,11,12
2715,59,-151,901,-38,-10,-14
2716,-13,16,811,24,4,-10
2717,-92,85,1054,-27,20,1
2718,154,-168,620,7,-3,-26
2719,-62,145,984,47,31,-11
2720,-30,8,699,0,26,-10
2721,31,-179,869,33,13,-22
2722,-126,105,891,-26,10,4
2723,48,-136,773,-3,-5,-14
2724,-43,-36,822,-28,1,0
2725,-20,77,994,-3,12,-16
2726,-1,-146,586,-20,12,-13
2727,26,96,971,19,14,-16
2728,-59,116,899,-19,36,-17
2729,18,-149,752,-23,8,-4
2730,-81,31,949,11,3,-10
2731,59,-73,873,-46,-10,-15
2732,-87,-125,770,-8,4,8
2733,39,108,903,-27,-3,-30
2734,-80,-68,887,-31,17,2
2735,-6,-35,810,-13,-3,-18
2736,-50,6,942,-57,24,-16
2737,-67,-54,819,-23,0,4
2738,-19,-24,1022,-19,-3,-16
2739,45,-1,857,-25,-9,-14
2740,-102,-89,834,-42,4,9
2741,133,-29,912,3,-16,-36
2742,-68,105,1068,-32,26,2
2743,24,-79,654,-37,2,-9
2744,-41,-51,1028,1,19,-28
2745,-127,33,809,-42,8,4
2746,15,-104,1022,2,-3,-16
2747,18,-1,817,-19,-1,-13
2748,-76,11,982,-21,10,5
2749,109,-105,836,22,-7,-27
2750,-56,108,1018,-10,24,-7
2751,3,19,757,42,14,-5
2752,-30,-98,977,28,5,-18
2753,-112,70,890,-34,3,4
2754,39,-127,920,8,-5,-9
2755,-28,-38,889,-22,-10,-1
2756,-7,68,1066,-7,-7,-5
2757,74,-96,799,-18,-4,-9
2758,-1,59,1014,-18,2,-9
2759,-57,102,986,2,34,-18
2760,-54,-123,846,-1,13,-8
2761,-75,28,961,3,1,-7
2762,42,-67,908,-23,-11,-9
2763,-54,-71,917,-3,2,3
2764,66,34,1019,-19,-12,-19
2765,-29,-1,955,-2,10,1
2766,51,-11,879,5,-4,-6
2767,-65,28,1017,-54,-21,3
2768,-94,-33,838,-33,3,4
2769,-20,-27,1021,-11,-2,-15
2770,35,-34,886,-28,-9,-10
2771,-67,-56,982,2,-1,2
2772,114,-20,976,-23,-16,-23
2773,-39,37,998,-3,12,2
2774,33,-34,687,-43,-8,-1
2775,13,-4,972,-50,-5,-19
2776,-141,26,849,-27,15,4
2777,36,-87,999,-4,-9,-16
2778,-9,-32,921,-16,-7,-5
2779,-14,16,1086,-9,-5,0
2780,83,-59,837,-18,-6,-15
2781,0,84,876,16,5,-3
2782,-67,37,853,-56,-9,9
2783,-54,-101,769,-77,-19,-9
2784,-140,64,934,-14,4,-3
2785,79,-109,855,-27,-17,-17
2786,-76,-47,972,-16,5,1
2787,70,27,997,2,-9,-14
2788,-15,3,861,-24,10,-6
2789,38,39,818,-14,1,-11
2790,-116,57,918,56,37,-13
2791,-109,-101,726,-26,-8,0
2792,-73,-2,970,-9,6,-4
2793,65,-61,821,-18,-9,-9
2794,-93,-46,987,-31,0,10
2795,120,9,941,8,-16,-17
2796,-83,101,953,-22,26,0
2797,63,-61,592,-14,-1,-1
2798,-116,-16,951,38,6,0
2799,-124,3,791,-64,-11,7
2800,8,-68,1036,-11,-4,-10
2801,17,-28,868,-15,0,-7
2802,-37,1,1082,-19,1,2
2803,98,-84,837,1,-8,-15
2804,-99,57,856,-20,5,-1
2805,-70,-13,755,-9,20,0
2806,22,-119,929,11,5,-12
2807,-123,56,934,-18,5,6
2808,62,-96,968,-23,-9,-8
2809,-59,-47,964,-16,3,2
2810,56,15,993,2,-10,-7
2811,-10,-82,774,-19,5,-3
2812,40,1,904,-10,3,-9
2813,-50,117,896,-22,12,5
2814,-4,-99,779,-42,-6,4
2815,-70,-5,1042,-17,-1,-4
2816,51,-51,909,-19,-10,-7
2817,-69,-63,982,-12,5,7
2818,119,-1,977,12,-8,-19
2819,-92,28,904,-31,18,-1
2820,-12,-58,646,-19,-7,-1
2821,-49,-63,1034,-14,4,0
2822,-97,8,852,-52,-2,7
2823,2,-88,1118,-12,-9,-11
2824,18,-23,903,-22,-10,-6
2825,-37,20,1057,-17,0,5
2826,103,-79,770,-21,-12,-11
2827,3,82,958,12,10,1
2828,-29,-21,817,-31,13,-7
2829,11,-155,886,3,11,-13
2830,-122,62,977,-18,13,2
2831,55,-106,968,-12,-11,-6
2832,-46,-46,912,-21,-2,5
2833,51,34,960,8,-14,-5
2834,-22,-20,841,-20,17,-3
2835,79,-9,839,-2,6,-13
2836,-38,5,978,-45,17,3
2837,-49,-84,751,-53,3,6
2838,-52,-32,1094,-8,3,-11
2839,57,-25,871,-15,-12,-5
2840,-105,-62,785,-8,-2,17
2841,120,-11,882,9,-27,-23
2842,-37,29,1036,-16,49,-6
2843,80,-104,499,-39,2,3
2844,-30,-38,892,-45,-8,-4
2845,-160,63,871,-52,7,9
2846,42,-156,995,-15,-10,-14
2847,-2,17,900,6,-5,-6
2848,-58,83,939,22,8,-3
2849,73,-152,509,-35,-13,-11
2850,-35,-44,895,-61,4,7
2851,-31,118,761,20,-2,6
2852,-80,-222,587,3,-11,-13
2853,-133,48,1075,-21,2,-3
2854,74,-91,819,-57,-19,-6
2855,-87,-91,767,7,6,3
2856,92,58,860,37,-15,-24
2857,-60,-35,676,-95,16,22
2858,-37,-87,541,-64,-4,-8
2859,-82,-72,712,99,82,-57
2860,-105,-90,487,21,14,17
2861,-17,-25,1048,14,-9,-18
2862,37,10,749,-20,2,-10
2863,-132,-82,698,28,7,26
2864,177,8,722,-2,-50,-25
2865,-115,40,963,-174,4,45
2866,58,15,160,-142,21,-5
2867,12,-35,521,-85,32,-34
2868,-212,166,753,-31,9,16
2869,122,-188,786,-29,-15,-13
2870,-6,-4,784,-5,10,-8
2871,-52,120,930,14,20,-9
2872,144,-177,506,41,1,-27
2873,0,59,696,157,-8,-17
2874,-89,330,722,92,29,-17
2875,123,-216,286,99,10,-18
2876,-199,97,876,-7,1,22
2877,146,-104,587,-50,-21,-10
2878,-114,-149,856,29,23,4
2879,98,138,901,-70,-7,-18
2880,-53,-85,654,38,27,-6
2881,87,77,607,26,-5,-23
2882,-134,120,753,-2,97,-47
2883,-62,-126,403,4,10,-2
2884,-61,-13,917,-1,8,-4
2885,80,-36,673,16,-4,-14
2886,-135,-179,711,-18,6,19
2887,152,61,855,49,-13,-32
2888,-118,26,890,-53,27,11
2889,95,-40,510,-66,-20,2
2890,-36,41,845,-76,11,-8
2891,-141,26,602,-45,9,11
2892,20,-122,1027,-19,-11,-20
2893,60,-45,772,-25,-7,-14
2894,-116,-3,825,-8,9,11
2895,153,-58,766,-32,-11,-33
2896,-92,44,1029,66,31,-6
2897,4,-52,468,33,2,-4
2898,21,-59,900,39,5,-27
2899,-145,86,791,5,15,13
2900,72,-156,859,-28,-12,-16
2901,0,-26,875,2,-1,-7
2902,-72,132,1050,23,2,1
2903,136,-165,653,-48,-13,-11
2904,-65,99,1040,16,4,4
2905,-59,31,781,-89,-22,16
2906,38,-177,834,-56,-18,-5
2907,-115,72,929,0,10,-4
2908,57,-77,789,-35,-13,-12
2909,-66,-53,894,-7,-5,5
2910,29,90,1060,-8,-20,-15
2911,14,-79,744,-58,5,-6
2912,6,67,926,11,8,-14
2913,-36,27,1016,-28,33,-27
2914,-23,-114,763,-36,1,-5
2915,-52,5,960,30,8,-13
2916,40,-13,869,-32,-5,-16
2917,-81,-82,805,-9,9,9
2918,95,21,996,37,-9,-28
2919,-70,48,973,-32,9,10
2920,60,-39,747,-20,-10,-1
2921,-54,0,1018,-17,-10,1
2922,-107,-11,826,-65,-8,9
2923,5,-63,1023,0,-6,-16
2924,32,-21,862,-32,-2,-14
2925,-88,-18,941,-21,6,7
2926,132,-52,937,-2,-12,-25
2927,-54,78,1039,-5,7,5
2928,2,-33,716,-50,-6,1
2929,-30,-25,1013,-44,-10,-9
2930,-126,50,878,-43,4,1
2931,41,-110,949,-3,-6,-16
2932,-12,-22,937,-11,0,-7
2933,-18,25,1108,-2,-5,-3
2934,84,-95,824,-1,-4,-14
2935,-17,62,1000,3,13,-7
2936,-48,34,973,18,2,-2
2937,5,-105,839,0,-3,-4
2938,-111,50,960,-16,0,-1
2939,55,-80,892,-40,-15,-13
2940,-63,-54,964,1,5,2
2941,74,28,987,-28,-11,-16
2942,-3,-21,901,-6,6,1
2943,32,18,852,-2,-9,-3
2944,-91,123,953,-86,-12,3
2945,-89,-80,711,-26,8,3
2946,-43,-17,946,-15,-1,-12
2947,51,-48,870,-25,-15,-9
2948,-82,-51,974,-4,3,8
2949,126,-15,979,-26,-14,-22
2950,-58,37,901,7,16,7
2951,14,-25,623,-45,-20,6
2952,-28,10,942,-59,-14,-2
2953,-138,19,777,-45,2,9
2954,27,-59,1006,-32,-13,-16
2955,8,-32,900,-24,-9,-6
2956,-36,3,1064,-15,-2,4
2957,106,-100,828,-37,-11,-17
2958,-104,74,760,-12,24,-12
2959,-99,-36,734,32,23,-6
2960,-42,-146,772,18,5,-19
2961,-160,84,888,3,17,12
2962,89,-108,839,-20,-11,-9
2963,-81,-46,945,-17,5,7
2964,37,43,1090,9,-16,-6
2965,-10,-83,627,-54,9,-6
2966,-122,43,705,-3,12,-11
2967,-154,-23,919,77,57,-27
2968,-54,-162,539,-20,0,-2
2969,-96,10,979,32,14,-2
2970,83,-55,798,-55,-16,-10
2971,-102,-87,909,-16,2,16
2972,102,41,941,2,-21,-18
2973,-133,67,753,-54,44,-7
2974,-92,-76,445,56,17,-15
2975,-201,-80,774,95,41,-46
2976,-126,8,618,-13,18,20
2977,7,-143,981,7,-1,-13
2978,29,-23,815,-62,-7,-6
2979,-95,-23,934,12,-6,19
2980,123,-78,779,-50,-29,-17
2981,-200,184,619,-103,28,12
2982,-110,20,428,-97,30,-17
2983,-77,-162,543,-58,51,-31
2984,-168,125,812,30,23,8
2985,107,-234,661,-25,-27,-15
2986,-49,-41,919,30,14,-3
2987,5,127,952,-7,-13,11
2988,86,-133,611,-93,-25,5
2989,27,150,729,-53,-9,6
2990,-100,366,721,-218,-13,43
2991,26,-238,365,-74,-32,3
2992,-119,93,913,-44,5,-9
2993,128,-56,609,-15,-17,-12
2994,-122,-152,840,-12,9,9
2995,73,140,871,12,-8,-32
2996,-78,-26,723,-3,7,16
2997,105,22,617,32,-18,0
2998,-136,52,757,100,5,-25
2999,-93,-85,484,-19,3,25
3000,-25,-55,953,-15,-8,-10
3001,68,-7,658,-20,-16,-7
3002,-128,-149,690,-33,1,24
3003,179,23,856,-19,-27,-32
3004,-122,69,881,3,35,1
3005,95,-66,448,3,9,-15
3006,-36,-4,831,72,40,-47
3007,-172,50,648,-28,14,16
3008,26,-136,1007,20,1,-15
3009,26,-53,725,0,1,-12
3010,-106,23,849,3,12,12
3011,118,-113,704,18,-16,-28
3012,-83,63,938,-25,-3,19
3013,-17,-7,485,-45,-19,21
3014,43,-98,816,-25,-24,-4
3015,-149,104,787,-42,-1,11
3016,69,-191,819,-26,-14,-10
3017,-14,-46,865,15,-4,-5
3018,-44,177,987,-24,-9,1
3019,121,-192,602,-44,-22,-5
3020,-52,86,991,-15,-4,0
3021,-82,53,779,-99,-13,14
3022,44,-204,799,-38,-15,-4
3023,-102,50,918,-22,2,-8
3024,54,-40,733,-12,-12,-11
3025,-67,-69,839,-18,-3,5
3026,12,56,912,15,-23,-20
3027,-43,-42,693,-19,3,12
3028,63,30,888,-7,-19,-6
3029,-50,54,940,1,-7,0
3030,-29,-102,698,-15,-1,10
3031,-47,-22,989,-8,-2,-13
3032,57,-31,844,-6,-7,-14
3033,-101,-123,672,-11,8,9
3034,32,49,927,38,-7,-36
3035,-130,0,992,-3,29,0
3036,21,-84,629,7,1,-13
3037,-40,-10,994,7,29,-28
3038,-105,-2,801,-29,6,6
3039,7,-77,1072,3,-8,-19
3040,44,0,853,-40,-6,-15
3041,-118,-14,906,-1,14,5
3042,149,-85,839,-23,-11,-33
3043,-79,112,1095,-10,24,0
3044,-7,-70,622,-54,-2,-8
3045,-45,-93,1002,-34,3,-19
3046,-128,67,820,-21,3,-1
3047,32,-125,938,-29,-9,-17
3048,10,-13,868,-2,-3,-12
3049,-65,66,1019,-40,4,-9
3050,103,-129,697,-15,-12,-18
3051,-33,63,1056,-19,12,-7
3052,-24,77,831,-60,7,-9
3053,7,-124,907,-29,2,-15
3054,-97,66,951,-19,5,-7
3055,44,-94,908,-2,-6,-15
3056,-40,-70,882,-21,0,-3
3057,18,58,1008,-3,1,-15
3058,-5,-105,814,12,7,-5
3059,17,42,985,-15,4,-9
3060,-25,69,983,49,9,-4
3061,-23,-103,851,-21,-8,2
3062,-53,7,994,-29,-3,-8
3063,38,-57,925,-1,-4,-13
3064,-69,-77,840,-46,-2,5
3065,105,11,1010,2,-10,-25
3066,-53,0,1023,-8,14,1
3067,40,-25,778,-17,-5,-6
3068,-23,45,996,16,-12,-3
3069,-96,-25,846,-61,-6,8
3070,0,-56,1033,3,-2,-15
3071,28,-49,880,-19,-4,-12
3072,-75,-17,944,-17,-1,5
3073,120,-28,980,12,-16,-20
3074,-35,59,1033,-15,21,-4
3075,-11,4,703,10,5,-3
3076,-71,-13,960,14,2,-16
3077,-145,40,892,-9,9,8
3078,54,-105,940,-31,-16,-14
3079,-21,-27,951,-18,-1,-3
3080,0,23,1087,-12,-3,-6
3081,75,-83,819,-40,-8,-8
3082,5,64,935,12,3,1
3083,-68,72,920,-79,3,3
3084,38,-116,774,-53,-7,-6
3085,-124,53,943,0,15,-2
3086,74,-77,865,-21,-13,-13
3087,-75,-52,973,-25,0,7
3088,81,34,1030,-3,-9,-16
3089,-25,14,792,-27,6,3
3090,1,14,759,-35,-7,-1
3091,-114,-21,971,-46,32,-16
3092,-74,-68,661,-36,3,3
3093,-45,-24,991,6,9,-8
3094,59,-59,823,-20,-6,-7
3095,-96,-61,967,-21,6,10
3096,121,6,961,-5,-12,-20
3097,-108,182,787,7,10,15
3098,19,-92,502,-92,-29,13
3099,-154,-36,871,-63,-6,1
3100,-164,26,727,-71,7,9
3101,38,-121,953,-34,-12,-15
3102,-10,-26,872,11,-7,-3
3103,-48,30,1022,-31,6,1
3104,81,-79,698,-19,-6,-14
3105,-131,179,697,15,-18,14
3106,-99,56,687,-158,-33,33
3107,-82,-166,579,-97,-23,4
3108,-179,99,905,-41,10,-5
3109,96,-162,717,-28,-25,-16
3110,-88,-67,923,20,4,0
3111,39,84,938,-45,-2,-15
3112,-30,5,666,30,21,-12
3113,46,76,615,60,2,-20
3114,-130,72,791,132,4,-2
3115,-114,-205,457,-38,-28,12
3116,-73,0,930,-24,0,-4
3117,69,-13,764,-20,-5,-7
3118,-69,-122,790,-50,2,14
3119,143,67,869,26,-13,-35
3120,-88,100,959,22,2,22
3121,93,33,430,-45,-33,14
3122,65,134,698,84,-44,9
3123,-146,-5,623,-136,-21,30
3124,59,-85,1008,-4,-12,-15
3125,36,4,724,-1,-3,-7
3126,-99,-57,949,-69,-8,19
3127,83,-103,854,9,-19,-24
3128,-112,141,745,-65,35,-13
3129,-68,-5,531,-68,29,-13
3130,-48,-120,677,-21,51,-29
3131,-216,96,820,-18,14,6
3132,63,-140,740,-45,-29,-14
3133,-5,-20,891,26,2,1
3134,-3,54,1017,-26,-1,1
3135,79,-189,670,-36,-2,-10
3136,1,108,832,-5,12,-13
3137,-92,238,868,-154,40,-5
3138,103,-172,595,-13,7,-9
3139,-168,32,899,-8,7,-4
3140,89,-55,750,-7,-11,-11
3141,-112,-113,903,15,12,8
3142,92,100,911,-23,-15,-24
3143,-41,-51,823,16,11,9
3144,64,27,725,43,-10,-3
3145,-66,192,843,32,-23,-2
3146,-68,-84,592,-9,3,18
3147,-35,-39,945,-30,-11,-12
3148,75,-31,773,-42,-17,-9
3149,-117,-105,790,-18,10,13
3150,158,22,933,4,-11,-36
3151,-89,60,948,-49,9,9
3152,51,-52,505,-78,-27,7
3153,-55,31,847,-73,-5,-8
3154,-166,38,673,-48,16,4
3155,37,-109,963,-9,-14,-24
3156,29,-30,798,-26,-6,-16
3157,-81,21,926,7,8,7
3158,161,-94,826,-3,-9,-26
3159,-55,83,902,-23,26,-12
3160,-31,66,633,16,29,-18
3161,-28,-121,759,-4,24,-37
3162,-160,92,833,24,24,5
3163,82,-138,778,-4,-10,-11
3164,-49,-43,892,9,0,1
3165,-15,99,1021,-2,-4,-7
3166,81,-105,745,-21,0,-8
3167,2,90,910,39,6,-7
3168,-72,129,920,38,-7,11
3169,-52,-158,662,-48,-20,2
3170,-100,51,914,18,9,-2
3171,78,-61,828,-63,-18,-12
3172,-89,-80,897,-23,3,10
3173,47,53,975,15,-8,-21
3174,-41,0,900,-51,12,2
3175,50,-9,778,-19,3,-10
3176,-78,35,985,-38,46,-34
3177,-95,-46,734,-17,2,3
3178,-21,-14,980,-8,0,-14
3179,50,-22,841,2,-4,-7
3180,-96,-64,934,-9,5,12
3181,139,-17,928,-2,-18,-28
3182,-67,39,985,-34,14,1
3183,25,6,574,-55,10,-9
3184,61,27,895,5,29,-37
3185,-168,44,788,-39,16,8
3186,58,-102,949,4,-8,-18
3187,-2,-29,874,-23,-3,-7
3188,-58,49,1030,-31,2,3
3189,109,-58,765,-4,-8,-20
3190,-25,154,805,12,10,-4
3191,-71,97,750,13,-7,9
3192,-102,-148,599,25,-27,-3
3193,-191,98,878,-62,2,11
3194,85,-129,735,8,-8,-7
3195,-47,-30,915,3,7,6
3196,34,67,990,-53,-14,-4
3197,16,-113,716,-17,14,-11
3198,15,65,752,-28,11,-17
3199,-27,298,898,49,85,-46
3200,19,-161,551,-17,20,-5
3201,-101,4,934,35,13,-11
3202,89,-56,743,-45,-15,-12
3203,-103,-132,821,-8,16,16
3204,85,43,953,32,-7,-29
3205,-99,145,799,-5,4,25
3206,82,-62,446,7,-22,11
3207,-186,34,710,83,-42,0
3208,-151,-45,592,-85,-5,29
3209,11,-100,942,44,-4,-18
3210,30,1,720,-60,4,-11
3211,-119,-73,864,-12,5,14
3212,98,-93,826,-8,-19,-30
3213,-90,107,882,18,38,-11
3214,-5,-49,498,52,31,-24
3215,-15,-48,796,36,43,-48
3216,-205,72,766,7,16,20
3217,49,-158,800,-42,-24,-10
3218,-17,-12,826,17,4,2
3219,-56,89,1076,-23,2,4
3220,97,-190,584,-36,-11,-13
3221,-24,157,846,63,15,-12
3222,-76,63,791,26,44,-26
3223,51,-170,698,54,13,-20
3224,-175,63,892,-3,6,11
3225,73,-93,696,-27,-12,-6
3226,-111,-77,832,35,9,8
3227,37,56,959,-4,-8,-15
3228,-18,-131,559,-38,2,11
3229,39,88,784,-28,-13,2
3230,-57,45,891,-120,-18,19
3231,4,-158,624,-50,-1,11
3232,-69,3,960,-6,0,-12
3233,42,-27,774,-52,-17,-10
3234,-103,-145,655,-21,-5,17
3235,59,-13,861,-23,-21,-22
3236,-130,6,839,-81,17,6
3237,101,-61,559,-44,-19,-12
3238,-32,45,825,-98,15,-9
3239,-98,-24,675,-17,6,10
3240,0,-85,1030,-35,-6,-17
3241,58,-37,790,-17,-10,-9
3242,-124,17,703,-16,0,16
3243,159,-27,705,-38,-40,-28
3244,-104,97,1040,-30,4,20
3245,3,-141,408,-51,-25,8
3246,-29,-74,941,24,-8,-12
3247,-148,47,821,-29,8,16
3248,31,-147,863,-28,-14,-16
3249,8,18,722,14,-6,-12
3250,-120,36,925,0,20,0
3251,71,-175,512,-28,-11,-31
3252,-71,122,937,-15,38,-10
3253,-65,24,563,-43,-14,9
3254,42,-132,838,-42,-12,-7
3255,-135,95,828,-1,8,2
3256,65,-160,803,-35,-12,-11
3257,-60,-29,803,6,-6,-7
3258,-36,108,964,51,32,-18
3259,107,-134,464,-44,-11,-6
3260,-17,93,917,-12,-7,-1
3261,-107,173,779,-17,23,-19
3262,-13,-201,641,-2,0,-11
3263,-106,57,897,17,2,-9
3264,68,-83,805,-47,-7,-16
3265,-66,-128,732,-22,5,4
3266,67,150,802,-46,-26,-10
3267,0,-74,655,-28,27,-9
3268,-61,-76,776,27,16,-31
3269,-200,76,731,53,20,-16
3270,-71,-146,556,-6,-8,13
3271,-59,-3,949,-3,-3,-10
3272,68,-29,830,-27,1,-18
3273,-96,-89,600,-42,5,20
3274,121,25,816,-8,-32,-22
3275,-73,43,881,-100,36,2
3276,-11,-111,541,-19,0,-22
3277,-203,52,714,-35,48,-34
3278,-128,-25,575,1,17,8
3279,-2,-76,1000,-3,-8,-19
3280,61,40,804,11,-10,-10
3281,-130,-98,734,-12,20,9
3282,129,-123,768,-6,-9,-39
3283,-51,181,961,71,52,-20
3284,75,-4,549,-17,6,-18
3285,11,63,811,46,42,-39
3286,-187,20,750,-35,16,9
3287,47,-134,961,6,-5,-18
3288,-39,-19,728,11,-2,-12
3289,-156,-28,782,-52,-1,17
3290,75,-191,675,-23,-19,-27
3291,-139,42,934,-33,41,-13
3292,-32,-25,528,-57,-20,6
3293,-119,-150,802,-18,-13,-6
3294,-129,105,771,-46,11,5
3295,78,-141,927,-23,-13,-13
3296,-12,-49,871,23,-5,-3
3297,-94,127,1075,-24,15,-13
3298,166,-152,648,44,5,-14
3299,-4,107,1026,47,3,-1
3300,-45,184,758,-47,24,-16
3301,38,-103,762,63,17,-20
3302,-140,79,903,-51,10,3
3303,65,-90,806,0,-6,-16
3304,-73,-45,848,-27,3,1
3305,-48,1,920,2,-11,-2
3306,-22,-188,561,-32,-13,4
3307,-47,36,971,-36,-13,-4
3308,-121,49,807,-18,-1,9
3309,-84,-157,711,-48,-20,-2
3310,-73,40,956,-34,-1,-6
3311,68,-68,938,5,-10,-9
3312,-71,-96,907,-41,-3,6
3313,71,58,1014,-3,3,-26
3314,-10,-20,841,21,17,9
3315,49,-1,919,-21,-11,-11
3316,-44,165,917,41,35,-15
3317,-17,-106,763,-23,-4,7
3318,-54,-30,1017,-26,-1,-9
3319,44,-4,935,19,-5,-6
3320,-80,-77,838,-40,0,10
3321,114,8,1005,-8,-9,-26
3322,-83,-23,998,11,25,8
3323,55,-27,781,-5,-6,-6
3324,-70,7,931,28,2,-7
3325,-80,-20,833,-51,2,11
3326,-22,-62,1102,0,0,-12
3327,44,-11,898,-32,-10,-9
3328,-89,-40,859,-4,4,11
3329,128,-13,957,5,-18,-22
3330,-95,37,1042,-43,19,1
3331,55,-70,630,-23,5,-8
3332,-48,-16,1011,20,17,-21
3333,-108,18,875,-39,3,7
3334,6,-96,1113,2,1,-11
3335,15,-12,924,-9,-2,-8
3336,-45,29,1061,-14,-1,6
3337,109,-75,890,-10,-14,-14
3338,-56,49,1049,-13,16,-4
3339,-14,-29,787,-31,1,3
3340,20,-54,1021,-35,-6,-6
3341,-103,38,926,-37,-2,1
3342,32,-96,1008,-20,-8,-9
3343,-25,-27,963,-18,-3,-3
3344,13,25,1122,-25,-6,-9
3345,54,-101,802,-31,-7,-2
3346,-21,73,1057,8,1,-7
3347,-59,43,898,-17,10,-2
3348,-89,-115,849,-17,0,-3
3349,-84,16,962,-13,2,-2
3350,40,-56,962,-35,-13,-7
3351,-43,-62,919,-20,-1,6
3352,50,37,1054,-23,-7,-16
3353,-35,-40,886,-32,8,4
3354,46,4,949,-35,-3,-6
3355,-70,90,1006,-51,11,-6
3356,-64,-61,809,-43,3,3
3357,-37,-30,1008,-6,3,-11
3358,43,-41,910,0,-7,-3
3359,-74,-72,801,-27,-4,12
3360,119,26,1037,4,-15,-22
3361,-86,40,999,-61,13,5
3362,61,-54,704,-32,-7,-7
3363,-66,39,981,-35,28,-26
3364,-132,7,799,-15,16,6
3365,20,-96,1034,3,-4,-13
3366,40,-32,838,-7,-12,-2
3367,-94,13,885,-5,3,8
3368,135,-59,923,-39,-14,-22
3369,-67,133,984,25,23,-2
3370,-12,4,642,20,-4,9
3371,-29,-79,867,-7,-19,-8
3372,-161,83,862,-16,11,11
3373,61,-145,812,-54,-7,-11
3374,-25,-22,890,-44,-5,0
3375,-45,57,1086,24,0,-1
3376,55,-139,728,-68,-8,-11
3377,-20,140,929,-3,20,-13
3378,-68,78,916,-52,55,-30
3379,0,-179,639,4,11,-12
3380,-145,36,924,7,3,-1
3381,64,-47,768,-19,-12,-4
3382,-67,-78,893,-6,6,10
3383,48,66,973,-16,-7,-23
3384,-21,-54,819,-5,0,15
3385,30,-3,753,11,-17,5
3386,-33,91,940,-15,-43,20
3387,-43,-103,568,-36,4,20
3388,-87,-80,939,-19,-4,-15
3389,48,28,805,-49,-12,-16
3390,-84,-107,784,-25,14,15
3391,146,2,895,21,-8,-37
3392,-88,86,957,-36,9,26
3393,71,-91,482,-33,-39,14
3394,-9,7,923,18,-25,9
3395,-156,7,694,-69,6,23
3396,2,-142,957,-40,-17,-17
3397,16,50,726,-11,-16,-5
3398,-96,0,873,-48,-6,18
3399,155,-161,694,-51,-24,-26
3400,-76,157,900,-24,32,-11
3401,8,-60,478,-80,0,-4
3402,47,-107,896,-55,14,-21
3403,-149,109,806,-1,17,3
3404,59,-171,763,-60,-12,-13
3405,-49,-48,746,-1,-3,-6
3406,-121,77,952,-63,-8,1
3407,4,-236,428,-72,-23,-6
3408,-48,76,911,-5,5,0
3409,-75,91,647,-87,-22,23
3410,64,-200,680,-34,-15,-3
3411,-124,58,902,-13,2,0
3412,45,-105,707,-22,-11,-12
3413,-78,-60,812,26,-4,0
3414,6,113,885,19,21,-29
3415,25,-100,441,-52,12,1
3416,34,70,813,-25,-1,-10
3417,-80,150,795,11,3,1
3418,12,-196,580,-29,-7,12
3419,-60,23,1003,9,1,-7
3420,41,-31,786,-55,8,-23
3421,-52,-101,533,-49,-5,18
3422,93,112,708,-40,-24,-14
3423,-108,26,702,-35,46,-6
3424,11,-103,563,52,-1,-28
3425,-168,78,727,42,31,-32
3426,-78,-46,494,7,11,21
3427,9,-46,961,13,-9,-16
3428,59,58,774,-52,-32,0
3429,-127,-137,535,0,28,10
3430,168,-61,630,22,0,-66
3431,-174,255,884,116,57,-11
3432,115,-155,355,-27,-9,-13
3433,-67,26,668,-21,47,-34
3434,-184,29,543,-60,22,9
3435,-84,-196,915,7,-10,-27
3436,-199,-16,539,-62,12,-23
3437,-194,6,550,-15,36,7
3438,-24,-149,513,-43,15,-51
3439,-253,64,944,-71,45,7
3440,10,-74,423,-19,14,-28
3441,6,-9,648,122,46,-61
3442,-218,30,579,-32,22,15
3443,-57,-188,745,-45,-23,-15
3444,-240,-16,608,19,-3,2
3445,-135,139,894,7,14,1
3446,8,-127,561,46,-22,-35
3447,-114,98,948,-43,5,21
3448,33,-81,513,-122,-8,2
3449,-108,-90,647,-38,7,-9
3450,-84,106,740,-35,3,-2
3451,67,-139,762,-39,-9,-24
3452,-62,19,812,28,9,-13
3453,-94,31,869,-16,-14,9
3454,-38,-224,556,-15,-21,-16
3455,-107,24,935,-1,9,5
3456,-46,57,809,-100,-14,-4
3457,-98,-24,758,-48,7,-4
3458,-108,122,794,-5,9,-10
3459,52,-37,785,-42,-8,-22
3460,-63,-2,790,15,6,-8
3461,-67,183,1072,-42,-5,-7
3462,89,-175,685,-48,-7,-9
3463,-47,63,1051,15,16,-16
3464,-25,50,709,-25,21,-27
3465,-125,-147,721,39,17,-14
3466,-64,39,862,-17,0,-5
3467,32,-110,829,-26,-8,-11
3468,-54,-16,813,-16,-2,8
3469,-91,4,882,-11,-19,-2
3470,-37,-173,587,-46,-11,-8
3471,-132,-24,1032,-14,10,-15
3472,-87,172,846,-5,24,-27
3473,-40,-98,782,1,18,-3
3474,-63,44,863,3,-2,-10
3475,7,-32,813,-40,-11,-9
3476,-109,-113,763,-20,-4,5
3477,-154,107,828,-29,-12,-13
3478,-51,-95,755,-5,8,-1
3479,-58,20,985,25,-5,-12
3480,-13,117,892,-53,-11,-1
3481,-41,-84,810,-27,-1,10
3482,-36,15,943,-22,-6,-15
3483,15,28,916,-4,-3,-9
3484,-85,-96,752,1,5,7
3485,-17,103,885,21,-14,-21
3486,-58,7,876,-25,13,4
3487,33,-11,949,21,2,-12
3488,-20,116,905,-70,-14,6
3489,-70,-45,815,-29,4,10
3490,-25,-25,992,-18,-8,-14
3491,32,-21,919,-8,-2,-6
3492,-75,-78,710,2,2,13
3493,18,41,907,21,-18,-21
3494,-71,50,956,-3,4,18
3495,-9,-36,821,-9,-8,-7
3496,-28,104,862,15,25,-25
3497,-97,-32,810,-19,10,12
3498,-5,-65,1022,-7,-3,-13
3499,22,-2,867,-46,-13,-10
3500,-112,-60,698,-16,9,8
3501,0,-84,873,-13,-9,-26
3502,-124,4,949,40,28,8
3503,-29,-91,568,-30,-1,-8
3504,-172,-55,849,46,22,-24
3505,-144,25,771,-37,10,13
3506,30,-94,1050,-13,-3,-11
3507,21,-9,880,-17,-1,-9
3508,-88,37,986,-9,2,12
3509,126,-111,878,1,-18,-18
3510,-80,66,1069,-37,-1,15
3511,3,-19,652,-44,-10,9
3512,6,-31,877,-11,-18,-4
3513,-146,70,886,-51,2,5
3514,49,-125,944,-9,-10,-13
3515,2,-31,868,-8,-5,0
3516,-85,65,953,-25,7,-7
3517,3,-177,622,3,-6,-10
3518,-131,61,968,7,1,1
3519,-98,31,635,-5,-1,3
3520,-108,-168,734,24,-10,-5
3521,-122,85,853,-53,1,5
3522,75,-142,908,3,-8,-7
3523,-51,-53,884,-3,-4,7
3524,2,104,1081,-31,9,-15
3525,103,-85,651,-2,-1,0
3526,15,60,969,18,-5,-1
3527,-89,200,831,15,-2,8
3528,21,-185,688,-29,-14,1
3529,-109,31,918,2,6,-2
3530,79,-43,840,-38,-14,-6
3531,-81,-68,822,-9,0,11
3532,29,7,924,11,3,-28
3533,-43,-160,683,-29,1,22
3534,50,-2,895,-13,-25,3
3535,-64,77,861,-27,-22,13
3536,-27,-123,667,-34,-10,16
3537,-60,-23,1026,-30,-4,-11
3538,45,11,785,-34,-11,-13
3539,-150,-129,615,-18,4,19
3540,-32,-3,836,32,-16,-33
3541,-168,-14,807,-65,-6,39
3542,6,-83,672,-52,-27,4
3543,-203,-1,698,-7,-23,3
3544,-120,-56,623,-65,-5,18
3545,-9,-53,1038,6,-7,-17
3546,73,45,811,-71,-14,-11
3547,-135,-77,697,-12,21,12
3548,152,-59,772,51,-1,-49
3549,-91,157,948,61,26,7
3550,87,-65,563,-19,-6,-8
3551,-30,88,772,31,43,-41
3552,-169,22,667,-60,14,14
3553,2,-130,965,32,-3,-21
3554,-112,-2,610,-34,8,-22
3555,-188,-10,566,60,21,15
3556,-53,-192,626,39,-20,-40
3557,-223,44,900,71,24,2
3558,-36,-7,411,-43,-7,11
3559,-120,-30,671,-87,-2,-15
3560,-165,100,622,-29,14,13
3561,37,-172,787,-33,-17,-13
3562,-84,-19,721,-17,-9,1
3563,-143,-12,741,-24,-27,32
3564,1,-272,505,-67,-42,-14
3565,-132,-3,932,48,-15,12
3566,-40,80,579,-124,-12,8
3567,-96,-85,642,-62,-7,-11
3568,-154,88,667,-11,7,-2
3569,31,-163,657,-16,-14,-19
3570,-153,-62,731,38,6,-10
3571,-170,40,771,24,22,-23
3572,-96,-275,502,-35,-9,-17
3573,-156,23,963,-8,13,-1
3574,-74,133,809,-57,35,-23
3575,-37,-104,688,13,14,-25
3576,-141,94,799,-10,12,-3
3577,53,-52,689,10,-3,-9
3578,-163,-75,730,15,-6,4
3579,-122,178,917,50,7,-16
3580,4,-184,683,-35,-8,-9
3581,-22,110,1025,-31,11,-9
3582,-29,25,764,-18,35,-33
3583,-34,-176,661,19,15,-6
3584,-43,49,901,-11,-1,-4
3585,43,-9,855,-9,-7,-5
3586,-22,-42,823,-3,-1,12
3587,19,89,991,5,-20,-11
3588,26,-137,701,-8,2,-4
3589,20,28,1056,-2,6,-18
3590,-65,-1,770,47,4,-5
3591,-89,-134,719,-27,-11,7
3592,-30,1,939,-14,1,-10
3593,40,-27,870,-29,-3,-14
3594,-58,-59,763,-43,-4,7
3595,0,-37,855,-36,1,-27
3596,-16,-77,751,-14,8,11
3597,-27,-44,970,-45,-10,-3
3598,-153,16,775,-9,36,-32
3599,-114,-83,729,-24,2,4
3600,-11,-24,951,-4,4,-15
3601,28,13,863,3,-4,-5
3602,-97,-73,668,-42,-10,18
3603,17,-82,895,3,-22,-21
3604,-64,-37,852,-17,1,17
3605,2,-74,824,-42,-12,-9
3606,-187,-35,775,16,39,-36
3607,-128,-33,749,-10,6,14
3608,3,-38,1012,-16,-7,-13
3609,42,14,849,-10,-7,-8
3610,-86,-67,672,-48,9,10
3611,82,-91,899,-5,-8,-32
3612,-64,29,979,-45,33,-3
3613,45,-77,652,-37,-7,2
3614,-113,-74,844,-14,-11,1
3615,-102,22,766,-71,-4,14
3616,33,-88,1078,-10,-9,-17
3617,44,0,876,6,1,-6
3618,-119,19,887,-30,2,19
3619,131,-109,831,-22,-36,-19
3620,-90,126,1075,-82,1,16
3621,42,-76,575,-24,-11,7
3622,-1,-34,823,39,-13,-9
3623,-143,62,822,-60,2,17
3624,52,-113,953,-17,-14,-15
3625,7,-13,819,0,0,-7
3626,-148,119,847,-27,-4,17
3627,92,-184,693,-46,-32,-13
3628,-135,65,964,-59,-21,25
3629,-63,81,664,-26,-6,-4
3630,-24,-33,716,63,1,-22
3631,-171,77,750,-42,12,12
3632,72,-142,685,-28,-11,-16
3633,-140,-45,765,4,1,-5
3634,-180,59,817,31,1,1
3635,-53,-249,448,-10,-9,-7
3636,-152,29,946,103,-4,2
3637,-120,138,620,-142,9,5
3638,-69,-169,549,-25,4,-14
3639,-158,85,778,-2,19,0
3640,56,-120,661,-46,-14,-7
3641,-101,-52,760,2,-11,11
3642,-86,-18,815,-75,-32,8
3643,-24,-242,409,-62,-17,16
3644,-74,-10,946,-3,-24,6
3645,-97,164,717,-120,40,-21
3646,-64,-152,471,-18,1,-6
3647,-122,51,817,-16,-2,-10
3648,34,-87,674,-1,-14,-5
3649,-135,-94,670,14,2,16
3650,-131,-33,690,39,-34,-20
3651,-70,-166,516,12,16,-2
3652,-59,-61,881,-9,8,-28
3653,-115,205,855,92,24,-18
3654,-54,-89,525,-8,-8,10
3655,-108,-21,824,-21,-1,-10
3656,-17,-6,632,-56,-5,-5
3657,-221,-162,625,-42,-7,23
3658,-141,109,742,11,-47,-10
3659,-127,-87,761,-42,26,1
3660,31,-5,849,-20,1,-27
3661,-67,-3,768,76,48,-38
3662,-62,-74,561,-5,-1,19
3663,-53,-11,928,-16,-9,-12
3664,29,120,837,-13,-9,2
3665,-74,-97,668,-20,1,22
3666,57,-25,822,77,-14,-47
3667,-69,-64,778,-48,7,29
3668,45,-49,838,-65,-15,-3
3669,-136,31,713,-85,15,-8
3670,-100,12,585,-49,-4,14
3671,-24,-88,887,-18,-11,-23
3672,-41,11,693,40,19,-20
3673,-114,-67,501,-78,0,15
3674,-137,-52,711,-34,-20,-31
3675,-180,14,864,-3,28,-2
3676,50,-98,732,7,3,-15
3677,-89,-5,755,84,24,-34
3678,-93,22,705,-40,9,19
3679,-2,-74,950,6,-7,-17
3680,21,148,793,-53,-20,2
3681,-88,-51,713,-4,1,17
3682,99,-88,755,59,-17,-42
3683,-101,-16,924,-44,12,28
3684,73,-9,659,-69,-30,6
3685,-173,-1,742,-47,-7,0
3686,-94,59,673,-49,9,10
3687,25,-142,886,-6,-5,-25
3688,-100,3,680,2,3,-20
3689,-118,53,628,-45,3,12
3690,-104,-162,614,-70,-18,-26
3691,-174,72,960,27,37,-11
3692,47,-128,605,-2,-1,-25
3693,-94,-26,767,38,30,-32
3694,-84,71,760,3,8,12
3695,33,-75,886,-38,-16,-14
3696,13,101,774,-8,-9,1
3697,-88,29,882,9,9,6
3698,107,-166,669,29,-24,-28
3699,-109,18,992,-29,1,23
3700,45,56,667,-66,-14,5
3701,-171,-72,766,-23,-9,0
3702,-98,77,740,-49,3,0
3703,52,-154,756,-10,-6,-20
3704,-103,-19,785,17,5,-14
3705,-192,103,805,-85,10,-6
3706,-102,-225,595,5,-9,-23
3707,-148,71,984,33,19,-8
3708,-8,-38,712,28,13,-10
3709,-19,-109,782,55,6,-14
3710,-61,91,859,-37,-2,2
3711,36,-52,815,-13,-2,-15
3712,-4,13,784,-41,-5,-2
3713,-50,170,1092,-39,-11,1
3714,116,-178,678,-24,-10,-12
3715,-45,62,1089,20,21,-16
3716,-27,3,723,18,16,-19
3717,-114,-169,771,37,10,-6
3718,-53,56,887,-16,-4,-3
3719,25,-94,876,-26,-4,-13
3720,-20,-7,829,-29,3,2
3721,-33,0,924,-41,0,-10
3722,20,-164,599,-20,-7,-3
3723,-83,-13,1055,28,3,-6
3724,-105,85,764,-72,-9,-1
3725,-122,-150,772,-32,-7,4
3726,-54,29,892,-13,-1,-12
3727,19,-53,858,-2,-3,-10
3728,-73,-64,804,8,-4,4
3729,-94,-10,866,17,-11,-10
3730,-60,-109,699,-1,7,-1
3731,-73,-61,967,-4,5,-13
3732,-106,66,767,-52,-7,-2
3733,-115,-115,779,-38,-2,7
3734,-41,-4,943,-16,-1,-13
3735,19,-17,934,7,1,-7
3736,-58,-79,770,2,2,7
3737,15,-11,947,18,-16,-18
3738,-59,-30,873,-15,-1,10
3739,5,-52,886,-15,-12,-8
3740,-112,-15,836,21,14,-16
3741,-109,-53,788,-15,5,10
3742,-16,-32,1047,-11,-7,-12
3743,33,-28,937,-22,-8,-8
3744,-57,-51,909,-8,6,10
3745,117,-16,1049,19,-10,-21
3746,-76,3,1079,-30,6,9
3747,71,-44,793,-37,-16,-5
3748,-31,19,1012,-22,9,-7
3749,-84,0,875,-32,1,8
3750,4,-68,1116,-24,-8,-13
3751,31,-17,917,-25,-9,-6
3752,-61,-7,975,-3,4,7
3753,121,-33,965,0,-9,-17
3754,-64,54,1105,-17,12,3
3755,22,-65,684,-31,4,-9
3756,-17,-24,1020,-6,18,-18
3757,-109,26,880,-15,9,9
3758,22,-101,1080,-26,-9,-9
3759,0,-26,938,-7,-2,-2
3760,-31,45,1115,-16,-2,3
3761,97,-96,845,-25,-9,-10
3762,-59,46,1019,-6,13,-4
3763,-32,-10,830,-40,2,7
3764,18,-66,1003,-29,-3,-5
3765,-105,48,953,-22,3,2
3766,37,-96,989,-26,-10,-9
3767,-35,-38,956,-23,-2,1
3768,26,13,1138,-22,-5,-7
3769,56,-82,777,-27,-4,3
3770,-3,54,1018,18,-1,-7
3771,-74,75,910,-5,18,-3
3772,-91,-119,817,-21,2,-3
3773,-81,9,957,-8,3,-3
3774,41,-61,948,-34,-13,-4
3775,-47,-82,877,-24,-3,9
3776,60,61,967,-14,-15,-18
3777,-53,-41,902,-34,3,9
3778,68,2,890,-23,-11,-3
3779,-64,84,947,-66,-15,7
3780,-60,-62,809,-47,-1,6
3781,-31,-37,1002,-11,-1,-13
3782,66,-41,885,-45,-13,-15
3783,-99,-96,739,-22,9,11
3784,94,10,987,3,-9,-28
3785,-108,40,1044,9,25,9
3786,52,-44,583,-26,-14,0
3787,-23,7,961,57,-7,-5
3788,-130,30,812,-63,-3,16
3789,30,-102,1022,-41,-13,-12
3790,36,-44,840,-10,-8,-7
3791,-100,32,874,-45,8,8
3792,122,-98,821,-5,-8,-28
3793,-89,67,1012,24,18,2
3794,-27,39,562,16,-2,10
3795,36,-96,872,17,-19,-9
3796,-143,89,844,-49,4,11
3797,73,-187,813,-30,-11,-10
3798,-24,-55,882,-20,-8,1
3799,-39,121,954,-32,6,-6
3800,76,-182,661,-13,0,-12
3801,-26,67,998,57,9,-11
3802,-107,145,759,49,16,-7
3803,58,-197,688,-5,-3,-3
3804,-104,37,913,9,3,3
3805,64,-104,769,-47,-17,-1
3806,-67,-104,874,10,-3,13
3807,57,137,854,-3,-27,-12
3808,-15,-75,781,-65,11,7
3809,19,-20,806,-41,-5,-11
3810,-59,46,890,-103,5,-3
3811,-45,-110,654,-54,-4,2
3812,-51,-62,968,6,7,-19
3813,36,52,742,-43,-8,-13
3814,-65,-98,733,-40,-4,20
3815,106,-2,843,5,-30,-30
3816,-113,115,885,-91,25,6
3817,118,-93,554,-65,-17,-5
3818,-24,-20,946,-45,11,-12
3819,-135,23,731,-62,7,11
3820,25,-128,1034,-4,-5,-18
3821,33,-12,685,-28,-14,-8
3822,-144,-14,719,-15,-3,18
3823,31,-114,709,-26,-34,-25
3824,-150,60,977,-5,-7,20
3825,-15,-91,393,5,-8,5
3826,19,-70,891,15,-1,-25
3827,-151,78,785,-3,12,14
3828,60,-169,820,-27,-8,-15
3829,-6,7,817,-10,3,-15
3830,-114,63,951,-35,21,4
3831,135,-167,444,-72,-20,-9
3832,-6,156,955,19,-9,9
3833,-60,127,622,-35,11,-8
3834,42,-177,743,17,7,-19
3835,-131,105,893,2,12,2
3836,53,-149,751,-46,-7,-12
3837,-47,-100,747,-26,1,2
3838,48,201,884,-24,-36,0
3839,89,-161,443,-61,16,-6
3840,-95,4,850,24,26,-26
3841,-175,128,719,42,20,-11
3842,-43,-219,554,-19,-8,2
3843,-79,65,924,43,12,-6
3844,54,-44,797,-79,-3,-14
3845,-75,-104,654,-23,-7,12
3846,121,124,744,22,-44,-14
3847,-43,4,653,-122,-5,26
3848,19,-53,653,-49,-8,0
3849,-166,200,790,-100,-10,8
3850,-77,-95,427,-68,-13,5
3851,-39,-42,945,-9,-2,-23
3852,62,29,797,-54,10,-29
3853,-60,-193,494,-9,-3,20
3854,67,-118,796,74,-40,-32
3855,-147,59,822,-65,-27,52
3856,85,-130,524,-33,-31,-3
3857,-155,2,704,94,38,-49
3858,-127,0,644,-53,12,21
3859,-32,-136,1035,57,-3,-23
3860,48,122,721,-6,10,-28
3861,-123,-45,715,51,10,21
3862,140,-103,686,50,-19,-43
3863,-117,118,974,96,43,0
3864,69,-109,499,-75,-36,12
3865,-30,-25,726,-55,-13,-1
3866,-158,9,723,-38,15,19
3867,-15,-136,905,-26,-15,-18
3868,-79,38,638,40,-16,-9
3869,-153,77,826,2,8,10
3870,102,-134,694,18,-20,-37
3871,-134,133,1028,-20,51,-13
3872,18,-103,569,33,-2,-9
3873,-44,-83,743,45,7,-27
3874,-91,54,809,8,20,17
3875,76,-95,829,-50,-20,-14
3876,6,28,794,-23,-6,-2
3877,-72,96,1062,-17,-9,17
3878,142,-173,707,-49,-26,-22
3879,-43,64,1083,48,18,-8
3880,13,-7,635,-18,-15,4
3881,-112,-146,766,-7,-25,-3
3882,-75,68,857,-37,0,0
3883,59,-134,855,-34,-6,-19
3884,-32,11,874,-8,3,-5
3885,-46,7,967,-39,5,-16
3886,54,-185,640,-26,-7,-9
3887,-44,21,1071,1,5,2
3888,-86,37,738,-51,21,-21
3889,-126,-180,770,16,12,-14
3890,-96,61,888,-22,4,-5
3891,28,-88,863,0,-5,-9
3892,-35,-31,895,-2,-6,4
3893,-11,22,954,-25,-12,-10
3894,7,-147,649,-18,-7,1
3895,-33,6,1037,12,-3,-7
3896,-108,30,781,2,26,-21
3897,-134,-147,762,6,11,-4
3898,-68,30,950,-5,0,-7
3899,41,-56,934,-30,-12,-9
3900,-55,-64,913,-25,-3,2
3901,53,7,1010,-18,1,-24
3902,-13,-57,841,-8,15,0
3903,52,9,1000,-21,2,-11
3904,-24,22,870,-45,22,-11
3905,-40,-83,803,-40,1,2
3906,-42,-13,1034,-2,7,-12
3907,41,-50,926,-9,-9,-11
3908,-74,-58,911,-24,0,8
3909,99,-1,989,-15,-4,-26
3910,-54,10,987,0,20,5
3911,63,-49,857,-2,-5,-8
3912,-26,66,884,13,-5,-4
3913,-72,-61,817,-31,1,9
3914,-22,-46,1063,-7,2,-12
3915,36,-15,915,-23,-9,-7
3916,-68,-55,956,-13,4,6
3917,113,-10,1024,2,-9,-23
3918,-64,-20,1094,1,18,5
3919,41,-33,718,-31,-7,-3
3920,-19,-7,1031,-22,2,-12
3921,-91,3,873,-46,3,5
3922,5,-77,1112,-16,-2,-12
3923,13,-15,919,-3,-6,-5
3924,-55,1,1068,-11,6,2
3925,117,-68,948,-3,-1,-17
3926,-38,-8,1057,-1,7,2
3927,1,-4,763,-23,8,-6
3928,18,-54,1014,6,14,-14
3929,-93,30,914,-12,8,6
3930,29,-97,1016,-25,-6,-9
3931,-6,-39,960,-8,0,-2
3932,-7,19,1078,-6,4,-4
3933,77,-100,807,-36,-3,-4
3934,-43,94,1075,-2,5,-3
3935,-60,22,868,-41,-1,7
3936,-41,-94,892,-37,-8,-3
3937,-93,25,974,-19,3,-1
3938,31,-65,974,-29,-10,-8
3939,-46,-49,948,-14,-1,3
3940,45,8,1106,-7,-1,-13
3941,-15,-32,861,-15,10,3
3942,30,31,968,-7,3,-7
3943,-73,69,998,28,23,-6
3944,-87,-89,804,-26,-3,5
3945,-57,-15,994,-13,4,-4
3946,30,-32,934,-28,-9,-11
3947,-67,-89,844,-37,3,10
3948,77,12,1029,7,-6,-22
3949,-72,83,972,-5,18,5
3950,53,-45,752,-3,-3,0
3951,-97,40,988,23,-16,3
3952,-126,-9,804,-72,-4,13
3953,14,-76,1004,0,-3,-13
3954,29,-21,858,-58,-4,-11
3955,-103,-41,907,-12,6,13
3956,105,-56,926,8,-15,-24
3957,-75,121,1014,-50,4,12
3958,-7,-46,628,-70,4,-1
3959,-29,-47,950,-54,3,-14
3960,-162,74,847,-37,7,4
3961,62,-131,849,-4,-5,-14
3962,-7,-8,904,7,7,-4
3963,-58,45,1094,-31,-6,2
3964,96,-138,738,-4,-11,-15
3965,-40,130,960,30,17,-9
3966,-61,55,882,37,13,-6
3967,40,-156,743,25,-4,-5
3968,-165,45,910,-41,0,5
3969,58,-85,768,-35,-17,-10
3970,-46,-47,908,-19,7,8
3971,43,53,1010,0,3,-20
3972,17,-105,771,-28,0,8
3973,18,38,814,-41,-17,6
3974,-24,87,967,-142,-28,26
3975,-10,-148,576,-50,8,8
3976,-99,-59,932,4,3,-18
3977,38,16,834,-27,-8,-20
3978,-97,-99,763,-16,11,11
3979,136,10,887,41,-6,-36
3980,-49,56,971,-59,8,27
3981,68,-72,547,-47,-34,10
3982,-25,7,932,-46,-22,12
3983,-127,-22,684,-71,-1,17
3984,-14,-143,965,-23,-8,-19
3985,29,65,732,-24,-11,-8
3986,-106,-33,802,-42,-7,19
3987,145,-114,716,-42,-35,-24
3988,-79,143,946,-39,33,-3
3989,39,-87,435,-97,-8,-1
3990,26,-66,925,-34,9,-16
3991,-162,97,800,-36,11,5
3992,64,-184,840,-42,-15,-12
3993,-12,-52,722,21,-5,-6
3994,-130,103,918,-25,-14,7
3995,-6,-218,465,6,-27,-18
3996,-132,60,950,46,-2,2
3997,-80,16,570,-21,20,-7
3998,51,-209,788,42,6,-24
3999,-160,70,845,-22,10,3
4000,38,-84,677,-31,-4,-13
4001,-18,-44,791,-24,0,0
4002,-71,25,944,-39,-38,1
4003,-30,-181,349,-10,10,-8
4004,67,77,886,75,21,-30
4005,-125,193,821,-27,-8,15
4006,46,-200,600,-59,-20,6
4007,-102,21,913,9,6,-11
4008,77,-25,768,-33,0,-19
4009,-45,-122,655,-11,2,4
4010,7,-81,769,-70,0,-18
4011,-110,-19,581,-11,45,-9
4012,151,-38,720,35,17,-37
4013,-108,184,833,36,72,-41
4014,-46,-146,436,3,-3,11
4015,-107,-113,943,6,-5,-17
4016,-2,-16,709,35,-10,2
4017,-132,-198,374,-73,2,20
4018,-27,-55,756,-13,5,-44
4019,-175,17,733,-46,78,-18
4020,14,-90,453,-20,-12,-12
4021,-233,20,575,-3,-17,4
4022,-85,69,550,-51,-7,23
4023,31,-34,1033,-8,-10,-20
4024,35,109,756,-12,-27,2
4025,-129,-118,614,-51,-21,40
4026,76,-177,672,-42,-71,-25
4027,-89,68,957,31,0,23
4028,108,-88,400,-75,-32,10
4029,-188,3,662,-100,-11,-8
4030,-79,87,679,-22,13,12
4031,57,-87,972,-11,-16,-26
4032,-29,61,708,27,-7,-19
4033,-132,-93,708,-8,22,-1
4034,49,-204,643,-15,-1,-47
4035,-71,0,956,33,4,22
4036,21,32,594,-45,-23,15
4037,-168,-15,716,-66,-29,-3
4038,-130,73,687,-36,12,5
4039,40,-147,762,-29,-7,-23
4040,-124,-40,730,-49,-2,-14
4041,-155,97,793,-11,-14,7
4042,-55,-195,686,-46,-25,-29
4043,-119,91,983,-14,37,-11
4044,-4,-54,714,30,16,-17
4045,-25,-98,798,-2,9,-23
4046,-58,72,858,24,12,6
4047,78,-65,862,-24,-11,-12
4048,22,5,872,-15,-7,0
4049,-72,103,1058,22,-4,7
4050,120,-168,746,-42,-15,-15
4051,-44,61,1083,-7,24,-8
4052,-21,17,721,14,7,-10
4053,-110,-144,812,21,-1,-7
4054,-77,65,892,-40,-3,2
4055,29,-100,904,-19,1,-13
4056,-29,-6,892,-26,4,0
4057,-33,30,988,-34,6,-17
4058,65,-161,648,-49,-9,-4
4059,-37,16,1077,1,5,0
4060,-79,35,781,-1,24,-18
4061,-130,-158,776,15,11,-3
4062,-85,50,920,-11,0,-3
4063,22,-62,913,-36,-9,-9
4064,-40,-42,899,-28,-2,3
4065,4,21,995,-26,10,-26
4066,20,-102,719,-28,7,-5
4067,21,14,1027,-14,11,-10
4068,-29,22,848,-60,-1,2
4069,-78,-108,771,-62,-6,8
4070,-51,7,976,-11,0,-12
4071,45,-52,947,-6,-9,-4
4072,-66,-46,885,-23,-2,7
4073,73,19,978,-27,-10,-26
4074,-52,2,882,-20,19,2
4075,86,-36,918,-28,1,-13
4076,-27,130,913,-64,29,-13
4077,-52,-71,757,-33,5,5
4078,-35,-22,1042,-3,1,-15
4079,48,-22,810,-28,-15,-11
4080,-104,-101,680,-35,4,15
4081,-9,-29,869,35,-7,-30
4082,-154,20,906,-24,6,24
4083,-28,-96,646,-10,-15,2
4084,-220,-16,745,77,-6,-9
4085,-149,-25,680,-73,-4,19
4086,12,-75,1040,16,-5,-14
4087,55,-1,876,-14,-6,-4
4088,-122,-31,820,-39,7,12
4089,120,-101,825,-8,-14,-30
4090,-29,150,991,36,44,-5
4091,84,-13,592,-44,6,-12
4092,19,11,835,31,44,-34
4093,-181,35,780,-55,11,12
4094,43,-139,951,13,-3,-13
4095,-57,-23,727,-7,2,-7
4096,-188,-5,751,-61,-11,25
4097,28,-188,635,-35,-30,-18
4098,-180,65,899,-91,37,4
4099,-56,8,412,-58,-21,13
4100,-114,-112,723,-18,-19,-2
4101,-157,130,782,-68,7,11
4102,92,-151,841,-30,-18,-10
4103,14,-12,789,-28,-10,-2
4104,-119,118,989,-70,41,-18
4105,141,-254,469,7,11,-31
4106,-73,170,922,-24,52,-34
4107,-45,-30,595,18,-14,21
4108,-7,-160,606,-18,-21,2
4109,-254,96,796,-28,-3,11
4110,50,-83,737,23,-15,-10
4111,-87,-28,648,10,-8,-4
4112,-90,232,999,119,20,-25
4113,48,-258,448,-44,2,-17
4114,-2,120,977,18,28,-29
4115,-52,-5,691,65,41,-28
4116,-48,-139,486,37,19,-6
4117,-192,139,839,-8,18,1
4118,29,3,771,-75,-32,6
4119,-87,-47,721,-21,-3,18
4120,18,11,885,86,14,-33
4121,-14,-179,398,-58,-11,25
4122,-20,-10,874,-24,-26,8
4123,-74,127,780,-143,-17,21
4124,-35,-78,481,-28,-2,14
4125,-121,-22,722,-34,-4,-18
4126,12,-58,609,-58,-6,-13
4127,-194,-126,689,-19,2,6
4128,-54,132,840,34,-4,-38
4129,-102,-120,533,19,12,25
4130,16,35,894,12,-25,-4
4131,-9,18,673,15,-11,0
4132,-48,-55,509,-1,4,17
4133,-53,50,850,-56,-7,-17
4134,-12,1,722,-42,-19,0
4135,-155,-37,611,-47,-11,13
4136,-18,32,645,-39,18,-54
4137,-92,-83,606,11,32,5
4138,94,55,845,-2,-10,-23
4139,-83,-27,757,-21,50,-35
4140,-73,0,530,-16,3,11
4141,-49,12,886,-9,0,-19
4142,-31,96,843,56,9,-14
4143,-109,-67,586,-45,-14,21
4144,21,-36,711,37,-37,-16
4145,-45,39,657,-60,8,29
4146,119,-7,777,-28,-22,-8
4147,-100,23,830,23,-8,0
4148,-54,10,555,-26,8,21
4149,-23,-77,851,-9,-13,-25
4150,6,133,804,-63,-23,-3
4151,-78,-145,654,-50,12,16
4152,-2,-31,772,-14,-3,-54
4153,-80,105,717,-51,34,4
4154,105,-13,744,-1,-10,-20
4155,-79,103,826,-65,25,-11
4156,-43,37,582,-33,3,14
4157,-11,-124,830,1,-2,-24
4158,12,110,792,-18,10,-18
4159,-86,-146,741,9,11,7
4160,22,-10,715,54,-12,-48
4161,-102,66,778,26,29,16
4162,83,5,712,-23,-13,-19
4163,-139,108,810,52,37,-43
4164,-74,39,589,-31,10,13
4165,40,-136,862,16,-1,-22
4166,-10,48,779,21,2,-15
4167,-110,-22,879,-21,-9,24
4168,72,35,684,-28,-45,-20
4169,-141,17,873,-48,20,19
4170,53,35,634,-25,-26,0
4171,-167,46,750,-12,-15,7
4172,-78,36,607,-34,-4,13
4173,52,-134,861,-22,-10,-24
4174,-37,26,736,-36,-2,-7
4175,-107,91,825,22,15,3
4176,-9,-10,639,12,-15,-42
4177,-148,54,945,47,29,14
4178,36,1,556,18,-1,-14
4179,-187,-50,729,31,14,-25
4180,-48,31,659,12,5,13
4181,67,-126,875,-34,-15,-14
4182,-46,47,803,-2,-9,4
4183,-147,72,803,9,21,-2
4184,-76,-220,623,19,-13,-35
4185,-170,35,982,33,16,16
4186,-4,-45,696,31,2,-4
4187,-67,-25,786,15,4,-15
4188,-62,80,786,0,6,10
4189,50,-64,843,-38,-9,-12
4190,4,46,817,-36,-3,-5
4191,-68,68,1072,-12,-9,17
4192,160,-149,708,-61,-28,-19
4193,-83,52,1044,-30,24,-6
4194,4,76,672,-52,0,-14
4195,-166,-154,784,-59,14,-11
4196,-82,45,806,18,15,-4
4197,26,-124,828,-41,-11,-7
4198,-31,-10,838,-3,-20,1
4199,-130,43,907,20,-9,9
4200,-58,-206,578,-51,-21,-15
4201,-163,-7,1038,2,27,-13
4202,-63,138,786,-17,25,-21
4203,-46,-81,802,29,8,-11
4204,-90,84,839,-26,-2,-2
4205,14,-96,757,-27,4,-11
4206,-116,-63,759,-19,7,1
4207,-198,63,831,-19,20,-21
4208,-48,-187,564,-46,-7,1
4209,-158,8,1001,-20,1,3
4210,-82,210,866,-46,42,-31
4211,-24,-118,730,16,18,-2
4212,-80,63,884,1,-4,-8
4213,11,-43,731,-37,-9,-6
4214,-141,-122,706,-27,6,7
4215,-195,59,784,-50,7,-17
4216,-59,-133,645,-49,-8,6
4217,-128,-38,938,-41,-12,1
4218,-72,239,894,23,48,-38
4219,-54,-120,658,-24,9,4
4220,-42,9,915,15,1,-12
4221,3,-14,704,-54,-8,-10
4222,-189,-152,589,-16,-1,12
4223,-179,18,758,-30,16,-31
4224,-118,-73,760,-51,16,14
4225,-96,-85,836,-41,-6,-10
4226,-100,232,880,75,40,-42
4227,-87,-64,628,-2,1,14
4228,-22,-53,929,-23,-11,-15
4229,-15,-14,672,-31,-1,-13
4230,-186,-147,499,-45,11,16
4231,-157,-39,785,7,-6,-42
4232,-157,-25,869,-82,23,11
4233,-78,-81,751,1,-3,-14
4234,-75,176,812,56,32,-43
4235,-136,-5,665,-3,15,15
4236,0,-94,950,-15,-14,-18
4237,-63,-7,643,-55,-5,-12
4238,-180,-80,512,-37,15,8
4239,-134,-101,731,-17,-1,-40
4240,-207,14,941,-82,26,10
4241,-40,-76,644,-8,5,-9
4242,-63,115,803,86,25,-45
4243,-170,51,691,-48,11,16
4244,14,-143,910,-15,-5,-21
4245,-122,-26,606,-44,5,-12
4246,-194,-2,612,-32,6,13
4247,-104,-159,678,-56,-13,-28
4248,-231,57,970,-54,-2,26
4249,-23,-46,621,-61,13,-16
4250,-17,15,770,17,28,-43
4251,-184,61,713,-35,6,6
4252,15,-159,769,-25,-16,-16
4253,-168,-22,667,7,4,-3
4254,-175,102,792,-1,-16,23
4255,-9,-206,665,-3,-36,-21
4256,-151,134,1000,43,25,-22
4257,-1,-93,641,-3,-15,13
4258,-12,-105,712,7,-34,-3
4259,-155,62,788,-40,15,8
4260,51,-76,760,-17,-2,-22
4261,-43,36,756,-8,7,-11
4262,-104,197,1058,-79,4,-4
4263,107,-207,642,-9,-13,-9
4264,-65,80,1044,41,-1,4
4265,-8,1,627,-63,-21,20
4266,-90,-132,623,-34,-18,9
4267,-90,91,854,-33,4,-1
4268,55,-129,769,-29,-10,-19
4269,-75,-19,769,-3,9,-5
4270,-43,-4,880,-74,1,-13
4271,10,-221,509,-30,-3,-2
4272,-98,-11,1032,79,3,-6
4273,-91,140,786,-19,-21,16
4274,-76,-104,648,-21,-8,8
4275,-111,45,818,5,7,-8
4276,15,-78,680,-58,-12,-16
4277,-185,-113,712,-6,2,0
4278,-226,75,804,-59,-1,-15
4279,-76,-180,655,-21,4,0
4280,-93,40,965,47,-2,-5
4281,-29,78,902,-13,-21,13
4282,-26,-150,685,-51,-17,13
4283,-34,31,925,-16,3,-12
4284,25,40,787,-26,2,-12
4285,-38,-121,747,-11,-6,6
4286,6,174,949,-23,13,-35
4287,-24,-75,786,-25,1,15
4288,36,54,999,-41,-10,4
4289,-45,7,768,-79,25,-21
4290,-42,-138,716,-25,13,7
4291,-8,-2,970,8,2,-15
4292,44,69,879,-16,-13,-2
4293,-44,-46,727,-13,-16,17
4294,40,3,976,12,-26,-14
4295,-17,-52,891,-23,9,4
4296,59,-24,940,34,-7,-6
4297,-81,-38,747,-88,-32,14
4298,-82,-52,754,-47,1,12
4299,4,-38,1019,-17,-1,-18
4300,40,42,926,-10,-2,-7
4301,-72,-61,672,-8,-3,13
4302,82,-64,948,38,-18,-31
4303,-60,13,991,-12,23,3
4304,61,-60,760,-17,-9,-1
4305,-87,-41,762,-22,-19,7
4306,-98,0,790,-63,-5,19
4307,15,-67,1057,-3,-3,-14
4308,41,38,892,-1,5,-8
4309,-113,-11,784,-1,-3,19
4310,121,-108,903,8,-30,-25
4311,-63,43,1114,40,11,16
4312,90,-84,594,-79,-11,-4
4313,-83,-41,825,-38,26,-23
4314,-102,46,825,-33,14,6
4315,30,-79,1038,-16,-7,-15
4316,45,5,840,10,-15,-7
4317,-109,64,962,-53,-3,11
4318,161,-137,857,-50,-12,-26
4319,-76,100,1063,-41,26,-5
4320,16,-82,642,-23,-16,7
4321,10,-51,833,15,-23,-10
4322,-125,86,869,-38,13,5
4323,65,-123,876,-24,-7,-18
4324,4,-25,829,5,-3,-9
4325,-128,119,893,-6,-11,13
4326,93,-199,645,-61,-35,-13
4327,-115,46,944,-18,5,11
4328,-79,115,747,-11,-3,-9
4329,1,-82,696,49,-17,-17
4330,-157,69,804,-53,8,0
4331,69,-153,664,-16,1,-18
4332,-137,-52,771,0,6,-5
4333,-174,26,856,25,-17,-1
4334,-40,-243,420,-64,-37,2
4335,-141,16,950,39,-14,9
4336,-156,137,680,-53,45,-28
4337,-92,-182,494,-20,1,-17
4338,-131,82,835,-3,5,-11
4339,66,-98,681,-66,-7,-13
4340,-91,-70,761,-48,15,4
4341,-52,-25,806,-11,26,-36
4342,-14,-196,440,-90,7,-6
4343,-37,-6,918,-14,11,-13
4344,-107,124,711,92,44,-36
4345,-69,-140,436,-40,-2,0
4346,-93,53,893,53,14,-14
4347,51,-51,714,-86,-9,-16
4348,-103,-103,653,-28,0,10
4349,-82,-89,722,-47,-13,-14
4350,-45,-116,604,-23,0,18
4351,-39,-81,848,27,-28,-2
4352,-141,158,791,-127,-26,24
4353,-63,-53,462,-54,-3,18
4354,-91,-48,842,0,-2,-19
4355,-22,-23,643,-24,3,-19
4356,-194,-160,533,-31,2,13
4357,-198,0,739,-45,1,-32
4358,-147,-62,826,10,19,13
4359,-8,-59,803,56,-17,-5
4360,-59,38,824,-16,-32,10
4361,-85,-70,642,-38,9,19
4362,-27,-64,932,-6,-3,-19
4363,44,127,781,-82,-12,-13
4364,-56,-67,749,-19,-10,24
4365,126,-5,918,-2,-32,-20
4366,-82,-10,897,-67,32,0
4367,61,-35,792,-4,-2,-16
4368,-175,-36,697,-3,32,-40
4369,-109,-19,716,2,19,19
4370,20,-82,970,2,-4,-12
4371,-15,32,775,-44,-23,2
4372,-127,-30,586,25,6,16
4373,-99,-151,776,35,-11,-32
4374,-147,-15,910,-37,15,14
4375,-42,-41,750,-46,-4,-5
4376,-50,76,888,-34,21,-24
4377,-132,59,827,-25,14,9
4378,24,-99,931,-6,-2,-14
4379,-31,33,759,-9,-15,-1
4380,-129,36,760,21,-2,18
4381,18,-78,787,-8,-27,-24
4382,-107,89,1053,-8,33,-1
4383,45,-52,731,3,-6,-5
4384,-14,-11,915,28,4,-11
4385,-93,53,915,-5,6,11
4386,22,-110,949,-36,-11,-13
4387,13,-30,911,-15,1,-10
4388,-100,101,912,-32,17,-3
4389,121,-136,826,-14,-8,-26
4390,-49,136,1053,-29,25,-3
4391,8,-1,778,-4,-7,1
4392,0,-39,885,-8,-11,-6
4393,-100,71,930,-16,7,1
4394,30,-130,886,-16,-3,-12
4395,3,-42,930,-1,1,-9
4396,-112,104,942,16,-2,3
4397,105,-164,680,-41,-24,-10
4398,-87,100,1024,37,2,2
4399,-62,137,795,1,10,-17
4400,-1,-130,814,36,0,-13
4401,-111,73,928,-29,2,-3
4402,51,-128,760,-21,-1,-15
4403,-91,-22,831,-10,8,-3
4404,-102,24,887,5,-15,-6
4405,-70,-175,533,-55,-19,7
4406,-104,31,973,-34,-18,1
4407,-149,98,752,30,-6,-6
4408,-137,-156,551,-40,-17,-5
4409,-87,60,924,-3,-1,-14
4410,94,-51,785,-21,-17,-13
4411,-77,-59,818,-13,-6,10
4412,-4,10,965,-66,-45,-4
4413,-58,-85,660,-108,-7,14
4414,82,4,894,-30,-10,-3
4415,-54,48,798,69,18,-29
4416,-34,-167,516,-9,-10,6
4417,-92,-12,987,8,12,-16
4418,23,81,768,-7,5,-21
4419,-63,-131,674,-1,10,12
4420,36,71,851,89,-15,-44
4421,-119,-3,812,-16,49,-6
4422,65,-60,751,75,2,-18
4423,-85,52,767,-37,-43,21
4424,-89,-80,546,-23,4,24
4425,-84,-90,956,17,-1,-18
4426,16,111,732,-17,10,-19
4427,-74,-80,699,-23,16,8
4428,66,21,853,9,7,-53
4429,-169,51,936,-66,6,37
4430,101,-89,660,-56,-22,1
4431,-145,-5,662,-97,32,-12
4432,-52,-3,698,-24,7,18
4433,5,-39,988,-8,-13,-21
4434,1,89,754,17,6,-16
4435,-121,-100,644,-37,16,9
4436,30,-164,751,-35,-8,-38
4437,-43,-25,911,67,16,16
4438,7,-29,643,-29,-26,5
4439,-152,53,788,43,-10,3
4440,-129,56,693,-53,5,18
4441,6,-132,885,-54,-23,-22
4442,-113,-12,651,-28,5,-15
4443,-163,34,701,-28,-3,22
4444,-85,-144,713,-33,-30,-20
4445,-140,96,990,10,38,-11
4446,42,-92,660,-9,5,-23
4447,-48,-47,795,68,36,-32
4448,-68,52,821,-6,10,16
4449,55,-84,897,-50,-21,-14
4450,35,53,804,4,8,-4
4451,-75,61,984,-13,-7,23
4452,148,-138,804,-30,-24,-16
4453,-62,68,1049,6,30,-13
4454,26,5,630,29,4,-11
4455,-128,-139,789,28,12,-21
4456,-106,53,802,-2,17,8
4457,52,-138,857,-45,-10,-15
4458,-8,-9,864,-12,3,-11
4459,-97,48,897,-44,9,5
4460,-11,-194,618,-49,-11,-12
4461,-109,12,1032,36,-1,7
4462,-74,86,700,-86,-23,7
4463,-131,-114,757,-56,-3,3
4464,-110,69,810,-17,10,-4
4465,27,-126,717,-13,-12,-7
4466,-84,-15,786,28,-11,0
4467,-186,65,850,26,4,-7
4468,-83,-221,541,-30,-4,-13
4469,-177,3,1001,50,22,-19
4470,-115,173,816,-9,-15,8
4471,-84,-116,697,-14,-7,7
4472,-87,58,853,1,3,-7
4473,26,-75,683,-44,-6,-14
4474,-144,-62,715,8,13,-2
4475,-249,59,802,12,25,-31
4476,-93,-165,556,-45,11,-8
4477,-153,-13,934,2,18,-12
4478,-118,230,918,72,16,-15
4479,-56,-141,648,-22,1,5
4480,-57,29,891,11,6,-9
4481,17,-36,690,-58,-3,-18
4482,-161,-130,647,4,9,4
4483,-234,27,737,-29,16,-37
4484,-100,-112,700,-48,22,7
4485,-112,-40,868,-36,6,-6
4486,-83,214,967,79,45,-43
4487,-56,-100,617,-11,1,10
4488,-30,-30,915,-1,6,-11
4489,-18,-16,669,-58,2,-17
4490,-193,-166,557,-43,-4,18
4491,-154,13,782,-2,-12,-23
4492,-129,-39,839,-50,-2,24
4493,-39,-61,824,-49,-10,-4
4494,-41,140,921,-49,43,-34
4495,-106,-49,696,-17,0,11
4496,-5,-77,946,-3,-5,-17
4497,-11,20,683,-10,-8,-2
4498,-138,-101,582,-44,-12,24
4499,-44,-25,821,36,-35,-24
4500,-152,38,964,24,10,10
4501,42,-67,756,-54,-16,-1
4502,-5,34,833,-25,-16,9
4503,-109,-5,783,-80,-9,16
4504,29,-106,985,-10,-12,-20
4505,29,44,752,29,16,-12
4506,-118,-14,758,-5,13,9
4507,94,-63,821,9,-19,-40
4508,-116,101,1048,-5,47,-4
4509,62,-86,634,-7,4,-8
4510,-26,-29,814,99,11,-20
4511,-89,49,844,-46,-2,22
4512,42,-87,965,-40,-17,-12
4513,43,22,782,-31,4,-9
4514,-111,86,926,-52,13,10
4515,169,-113,851,-22,-9,-26
4516,-98,124,1080,-33,6,23
4517,37,-65,608,-52,9,-16
4518,-55,-60,809,11,38,-30
4519,-76,75,870,-3,11,9
4520,68,-110,897,-31,-20,-10
4521,16,4,869,13,-4,2
4522,-64,120,1031,-55,-10,22
4523,132,-156,766,-31,-26,-14
4524,-33,95,1086,25,-7,12
4525,30,-18,667,-94,-5,-1
4526,-68,-106,831,-60,14,-8
4527,-68,86,902,-12,11,-4
4528,64,-107,890,-10,-17,-9
4529,-29,6,855,15,-7,-1
4530,-49,126,1094,3,-7,8
4531,80,-173,703,-18,-19,-10
4532,1,83,1101,55,-5,-2
4533,18,7,767,-114,0,-1
4534,-53,-143,820,-49,-1,-9
4535,-51,72,952,-7,13,-10
4536,52,-79,908,-11,-10,-9
4537,-42,-30,843,13,-8,3
4538,3,109,1113,-22,-21,0
4539,18,-144,670,-43,-3,1
4540,9,63,1016,-7,-11,0
4541,-18,60,883,29,26,-30
4542,-39,-139,789,-5,9,-8
4543,-44,55,978,14,2,-10
4544,64,-45,869,-53,-12,-13
4545,-67,-120,819,-10,4,1
4546,33,115,934,12,10,-36
4547,8,-79,741,18,22,1
4548,36,9,898,6,-8,-15
4549,-39,221,906,-80,30,-14
4550,-44,-57,691,-35,13,0
4551,-31,14,1012,17,5,-17
4552,29,30,756,-23,-15,-11
4553,-138,-167,611,-33,-3,15
4554,-67,46,828,-21,6,-40
4555,-102,-13,804,-29,53,-9
4556,-34,-79,754,6,-5,-18
4557,-168,119,827,-30,-36,14
4558,-108,-29,579,-43,5,13
4559,2,-48,980,-8,-1,-21
4560,4,11,687,6,-4,-11
4561,-188,-106,511,5,-11,27
4562,-59,-47,809,-9,-43,-22
4563,-162,15,926,-11,3,33
4564,-44,-115,572,-56,-17,-6
4565,-201,20,783,-32,35,-38
4566,-116,34,607,-17,19,12
4567,41,-119,976,-21,-10,-17
4568,-23,64,691,-14,-14,-5
4569,-141,-46,616,-50,-6,22
4570,34,-170,764,-67,-24,-23
4571,-100,20,1022,-34,-3,28
4572,-3,-71,520,-68,5,-7
4573,-194,-65,774,-1,29,-41
4574,-137,88,691,-27,11,10
4575,51,-152,885,-15,-10,-13
4576,-66,35,709,1,-4,-1
4577,-131,-36,756,-33,-20,28
4578,21,-228,659,-36,-33,-16
4579,-125,-2,992,37,3,12
4580,-48,-2,614,-73,-11,16
4581,-119,-64,757,-73,-19,3
4582,-135,107,770,-28,7,5
4583,73,-163,735,2,2,-15
4584,-98,-26,782,7,6,-6
4585,-172,47,817,14,11,-6
4586,-58,-227,575,11,-13,-21
4587,-156,14,956,-23,33,-9
4588,-61,79,771,41,20,-8
4589,-53,-56,762,37,-3,-13
4590,-133,133,816,-41,-3,8
4591,56,-136,660,-13,-5,-8
4592,-112,-52,751,-48,0,1
4593,-196,87,826,-57,-2,-2
