sequence,AccelerometerX,AccelerometerY,AccelerometerZ,GyroscopeX,GyroscopeY,GyroscopeZ
0,-122,-45,977,-20,3,12
1,-41,-34,983,-12,-13,0
2,42,-5,1021,-3,-17,-11
3,89,-2,1001,-12,-6,-11
4,66,-19,996,-17,8,-8
5,-20,-16,1001,-16,19,8
6,-92,-14,991,-25,12,15
7,-107,-46,983,-20,-2,8
8,-23,-25,1011,-12,-14,-1
9,62,-6,1000,-12,-14,-12
10,90,-9,1000,-11,-3,-15
11,48,-25,997,-18,10,-6
12,-48,-9,1003,-17,16,8
13,-104,-27,991,-20,9,14
14,-88,-34,995,-20,-6,7
15,0,-30,993,-10,-15,-6
16,80,-2,1011,-8,-12,-12
17,79,0,992,-16,1,-13
18,16,-36,1010,-16,14,-5
19,-60,-12,1000,-19,14,9
20,-112,-31,980,-21,7,11
21,-66,-39,991,-15,-10,4
22,23,-17,1007,-9,-15,-8
23,89,1,1003,-10,-9,-14
24,72,-17,995,-17,6,-12
25,-2,-28,1010,-16,15,-1
26,-82,-17,992,-18,14,11
27,-116,-35,981,-20,1,10
28,-36,-29,988,-13,-14,-1
29,46,-7,1022,-7,-15,-10
30,94,-3,996,-14,-5,-14
31,59,-30,1005,-16,9,-11
32,-28,-14,991,-15,17,4
33,-97,-28,997,-20,11,11
34,-103,-34,977,-17,-3,7
35,-22,-29,1023,-12,-14,-3
36,72,3,990,-8,-14,-12
37,91,-14,1007,-13,-2,-14
38,43,-19,999,-17,11,-8
39,-59,-19,1004,-20,17,7
40,-106,-27,990,-21,9,9
41,-89,-31,992,-18,-6,4
42,11,-26,996,-10,-16,-8
43,85,3,1011,-8,-13,-14
44,76,-7,993,-17,2,-14
45,19,-30,1014,-17,15,-7
46,-81,-15,993,-20,16,7
47,-110,-37,982,-20,4,6
48,-55,-33,989,-14,-11,-4
49,25,-12,1006,-11,-16,-11
50,102,0,1004,-13,-9,-14
51,66,-22,1002,-18,8,-11
52,-17,-25,994,-16,15,-3
53,-98,-23,1000,-17,13,3
54,-112,-38,972,-19,0,4
55,-29,-22,1000,-11,-15,-6
56,67,-12,1014,-9,-17,-13
57,104,-5,1004,-13,-4,-10
58,49,-23,998,-17,11,-6
59,-54,-24,996,-17,19,2
60,-111,-25,988,-19,10,6
61,-95,-39,987,-16,-6,1
62,-3,-18,1010,-10,-18,-6
63,93,-6,1006,-9,-15,-12
64,94,-6,994,-13,0,-10
65,22,-21,1006,-16,15,-5
66,-78,-16,994,-18,17,5
67,-117,-38,997,-21,6,9
68,-75,-33,982,-16,-10,2
69,19,-25,1009,-9,-19,-8
70,107,4,999,-10,-12,-12
71,74,-10,1006,-18,5,-9
72,3,-20,1004,-17,17,-2
73,-89,-29,997,-21,15,9
74,-119,-43,977,-20,2,9
75,-49,-31,989,-13,-12,-1
76,45,-15,1010,-7,-18,-9
77,95,7,1007,-10,-7,-11
78,72,-13,993,-18,9,-9
79,-22,-27,1005,-18,17,2
80,-94,-20,993,-18,12,11
81,-112,-45,975,-19,-1,6
82,-36,-22,1000,-12,-15,-2
83,68,-11,1011,-8,-17,-11
84,100,-4,1005,-12,-3,-14
85,53,-20,989,-16,13,-8
86,-41,-15,1005,-18,18,5
87,-106,-29,983,-22,10,12
88,-106,-41,990,-18,-5,8
89,-5,-23,1007,-12,-16,-4
90,82,-1,1004,-8,-15,-11
91,87,-15,998,-14,0,-13
92,28,-22,998,-16,14,-5
93,-63,-22,1005,-16,17,9
94,-111,-21,988,-19,7,13
95,-76,-40,985,-17,-7,5
96,11,-18,1004,-8,-16,-6
97,88,7,999,-9,-13,-12
98,77,-23,1002,-16,4,-12
99,7,-19,1006,-15,14,0
100,-77,-19,993,-20,14,11
101,-118,-42,980,-19,3,10
102,-50,-30,990,-14,-12,2
103,33,-15,1006,-9,-16,-10
104,94,5,1014,-10,-8,-12
105,67,-16,996,-18,7,-10
106,-19,-24,998,-16,16,1
107,-87,-22,999,-20,10,10
108,-111,-39,980,-20,-1,7
109,-29,-24,995,-11,-13,-2
110,65,-6,1021,-12,-15,-10
111,97,-2,994,-14,-4,-13
112,51,-25,1003,-18,12,-8
113,-52,-11,997,-18,18,4
114,-112,-28,993,-22,10,8
115,-86,-44,984,-20,-5,2
116,-10,-19,1010,-10,-15,-6
117,97,-6,994,-8,-15,-13
118,86,-2,1009,-13,2,-12
119,25,-16,989,-18,17,-6
120,-79,-18,1011,-18,19,3
121,-118,-29,984,-19,5,4
122,-75,-36,988,-15,-10,-3
123,33,-24,1002,-11,-18,-14
124,106,-6,1007,-10,-11,-11
125,86,2,998,-14,6,-8
126,-18,-21,1016,-19,21,-3
127,-97,-25,984,-19,16,0
128,-122,-33,986,-18,2,-1
129,-40,-20,978,-13,-15,-11
130,64,-13,1023,-11,-18,-14
131,116,-6,1004,-15,-7,-9
132,61,-12,1001,-17,12,-4
133,-43,-24,994,-21,20,-1
134,-127,-37,992,-18,13,-1
135,-108,-29,971,-14,-6,-8
136,-16,-11,1017,-12,-19,-13
137,110,-2,1002,-14,-19,-14
138,103,-19,1010,-19,1,-7
139,37,-17,996,-19,16,-1
140,-93,-35,997,-20,22,3
141,-133,-37,981,-17,8,-2
142,-87,-24,995,-15,-11,-7
143,31,-13,1005,-12,-22,-13
144,119,-6,1005,-13,-15,-10
145,99,-15,1005,-16,5,-6
146,-1,-19,1001,-17,20,2
147,-119,-31,992,-18,19,2
148,-130,-32,988,-16,2,-5
149,-56,-18,991,-12,-16,-9
150,62,-14,1003,-12,-22,-13
151,129,-6,1011,-13,-10,-9
152,75,-14,1003,-16,11,-1
153,-33,-27,1002,-18,22,2
154,-129,-43,986,-18,16,2
155,-127,-25,979,-10,-3,-4
156,-17,-21,997,-11,-20,-11
157,88,0,1012,-11,-19,-13
158,126,-5,1015,-15,-5,-7
159,58,-13,1001,-19,13,-1
160,-70,-32,985,-20,23,3
161,-134,-38,990,-18,11,-1
162,-115,-31,984,-13,-8,-7
163,16,-12,1011,-11,-22,-12
164,114,-8,1010,-11,-18,-12
165,122,-9,996,-16,1,-5
166,23,-22,1008,-18,19,1
167,-107,-28,981,-19,23,2
168,-141,-29,995,-17,8,-1
169,-86,-26,987,-14,-11,-10
170,46,-12,1014,-10,-22,-16
171,134,-10,1001,-13,-14,-11
172,96,-10,1000,-18,10,-5
173,-9,-20,1010,-20,23,1
174,-127,-30,981,-21,22,2
175,-140,-36,981,-18,4,-5
176,-43,-26,1002,-12,-18,-12
177,67,-7,995,-14,-20,-15
178,137,-8,1013,-15,-7,-10
179,74,-3,1011,-18,13,-1
180,-45,-34,988,-22,25,1
181,-142,-34,996,-17,17,-2
182,-128,-33,974,-17,-4,-7
183,-12,-15,995,-11,-21,-15
184,98,-6,1017,-13,-20,-13
185,133,-9,1011,-17,-2,-8
186,49,-21,1001,-20,17,-1
187,-88,-34,984,-19,25,4
188,-140,-40,987,-16,10,-4
189,-110,-30,986,-11,-10,-8
190,18,-3,1012,-10,-24,-13
191,127,-6,1013,-13,-18,-12
192,116,-12,1001,-17,4,-5
193,12,-26,1000,-20,20,2
194,-118,-29,986,-20,23,3
195,-148,-37,988,-16,6,-3
196,-70,-20,996,-11,-16,-11
197,51,-17,1001,-11,-23,-13
198,132,0,1013,-12,-13,-10
199,97,-14,1001,-18,9,-3
200,-33,-26,1001,-19,23,4
201,-125,-32,990,-19,17,0
202,-137,-43,978,-15,1,-3
203,-37,-15,997,-9,-19,-11
204,84,-13,1005,-12,-23,-12
205,133,-1,1018,-12,-7,-8
206,69,-15,995,-18,14,-1
207,-60,-25,1007,-19,26,2
208,-135,-47,978,-18,15,0
209,-133,-26,976,-14,-5,-7
210,3,-10,1006,-9,-25,-14
211,106,-5,1013,-11,-20,-12
212,130,0,1012,-16,0,-7
213,40,-27,1001,-21,19,1
214,-100,-33,983,-19,25,3
215,-140,-35,982,-17,8,-3
216,-111,-31,996,-12,-11,-8
217,39,-4,1010,-12,-24,-14
218,131,-5,1013,-12,-16,-12
219,108,-10,993,-16,6,-2
220,7,-24,1008,-20,23,2
221,-125,-34,979,-20,23,3
222,-153,-29,993,-16,4,-3
223,-59,-30,990,-13,-16,-12
224,60,-12,1007,-11,-22,-13
225,140,-5,1006,-14,-11,-9
226,88,-17,1002,-17,12,-3
227,-36,-28,1005,-18,26,3
228,-132,-32,984,-19,18,0
229,-134,-25,985,-13,-2,-6
230,-30,-20,994,-12,-21,-11
231,84,-8,1010,-9,-20,-15
232,131,-7,1013,-13,-6,-9
233,65,-17,998,-20,14,-1
234,-63,-37,1000,-18,24,3
235,-140,-32,982,-15,13,-1
236,-129,-30,980,-15,-6,-7
237,8,-11,998,-9,-24,-12
238,105,-7,1023,-12,-20,-11
239,134,-10,1001,-15,-2,-6
240,35,-23,1003,-17,19,0
241,-92,-27,987,-17,23,3
242,-149,-42,985,-14,9,-2
243,-95,-21,990,-11,-12,-9
244,28,-11,1020,-10,-23,-12
245,133,-2,998,-12,-17,-12
246,103,-15,1013,-16,6,-3
247,10,-15,989,-20,21,1
248,-131,-42,997,-19,22,4
249,-139,-33,977,-14,3,-4
250,-59,-30,1002,-13,-17,-9
251,60,-12,996,-8,-23,-14
252,134,-8,1012,-13,-11,-9
253,86,-9,1003,-16,11,-3
254,-30,-25,1001,-19,24,4
255,-136,-32,988,-18,17,0
256,-133,-29,979,-15,-1,-5
257,-30,-15,996,-11,-19,-11
258,79,-8,1006,-12,-23,-12
259,141,-11,1011,-15,-7,-8
260,62,-9,1007,-18,16,0
261,-58,-37,985,-20,25,2
262,-139,-33,993,-15,14,0
263,-129,-23,977,-15,-5,-6
264,2,-12,998,-11,-21,-14
265,111,-6,1026,-15,-21,-12
266,131,-11,993,-17,0,-5
267,34,-20,1010,-18,19,1
268,-94,-36,984,-21,23,1
269,-155,-35,988,-15,10,-2
270,-96,-23,982,-13,-12,-10
271,37,-8,1026,-11,-24,-13
272,136,-4,993,-12,-16,-11
273,107,-12,1008,-18,7,-5
274,4,-24,1000,-19,23,-1
275,-133,-33,982,-18,24,3
276,-141,-37,994,-15,3,-5
277,-63,-23,993,-10,-17,-11
278,67,-11,1000,-11,-24,-13
279,142,-4,1008,-14,-11,-10
280,87,-13,1009,-18,11,-3
281,-43,-20,994,-19,24,4
282,-136,-45,991,-19,17,-1
283,-135,-31,977,-14,-2,-6
284,-20,-19,992,-12,-22,-12
285,90,-7,1014,-10,-21,-14
286,139,-6,1011,-14,-4,-8
287,56,-19,1001,-17,17,0
288,-76,-26,983,-19,24,3
289,-143,-38,992,-16,12,-2
290,-118,-27,979,-13,-7,-8
291,12,-9,1006,-9,-24,-12
292,119,-3,1020,-12,-20,-12
293,125,-12,1000,-17,2,-5
294,24,-21,995,-20,20,1
295,-112,-25,996,-20,22,2
296,-141,-36,980,-17,6,-4
297,-91,-31,997,-13,-11,-9
298,54,-10,1007,-12,-24,-14
299,129,-11,1015,-11,-13,-11
300,106,-9,991,-16,8,-3
301,-14,-25,1009,-19,24,2
302,-127,-30,982,-18,20,1
303,-144,-29,984,-18,3,-4
304,-50,-23,1003,-12,-19,-11
305,77,-16,996,-10,-23,-14
306,136,-2,1017,-13,-8,-10
307,85,-16,996,-19,14,-3
308,-46,-29,1009,-19,27,2
309,-138,-38,975,-17,17,1
310,-135,-30,982,-13,-2,-7
311,-9,-16,997,-11,-22,-13
312,96,2,1012,-10,-19,-12
313,135,-8,1014,-16,-3,-9
314,52,-17,1005,-20,17,-1
315,-78,-32,982,-19,24,3
316,-144,-44,992,-17,13,-1
317,-112,-22,981,-11,-9,-9
318,17,-17,1010,-9,-22,-14
319,126,3,1012,-12,-17,-13
320,114,-19,1001,-17,4,-6
321,23,-21,1002,-19,19,0
322,-119,-27,989,-19,22,3
323,-144,-31,981,-16,5,-4
324,-79,-25,1000,-13,-14,-11
325,48,-7,1001,-11,-24,-14
326,139,-9,1011,-15,-13,-11
327,99,-11,1001,-18,10,-3
328,-25,-28,1003,-19,23,3
329,-127,-31,981,-17,19,1
330,-143,-32,990,-14,2,-4
331,-38,-13,989,-11,-21,-11
332,72,-3,1011,-12,-23,-13
333,141,-10,1009,-14,-8,-9
334,66,-12,1001,-18,14,0
335,-53,-36,1003,-19,24,1
336,-139,-40,983,-16,15,0
337,-126,-28,977,-13,-5,-6
338,-2,-9,1003,-10,-23,-12
339,97,-14,1013,-12,-20,-12
340,135,-7,1011,-15,-2,-7
341,47,-22,1003,-21,18,0
342,-87,-26,978,-18,25,2
343,-150,-29,999,-16,12,0
344,-103,-28,974,-14,-11,-8
345,19,-6,1025,-9,-23,-12
346,131,-17,1001,-14,-19,-12
347,121,-14,1001,-15,4,-5
348,14,-24,1007,-18,20,3
349,-121,-26,982,-20,22,3
350,-150,-37,994,-14,6,-6
351,-71,-20,986,-12,-16,-11
352,55,-14,1010,-11,-23,-14
353,141,-6,1006,-12,-13,-12
354,99,-8,1006,-19,10,-2
355,-29,-24,1003,-18,26,3
356,-134,-34,984,-19,20,2
357,-146,-35,985,-17,0,-4
358,-34,-24,992,-12,-21,-12
359,87,-12,1009,-9,-22,-14
360,139,1,1010,-13,-8,-8
361,77,-13,1005,-18,15,-1
362,-66,-27,1001,-20,26,3
363,-143,-37,978,-17,15,0
364,-131,-31,981,-15,-6,-7
365,-1,-14,1003,-11,-23,-12
366,106,-9,1008,-12,-19,-13
367,136,-9,1014,-17,0,-7
368,40,-23,1001,-19,19,2
369,-96,-24,981,-20,25,4
370,-146,-39,987,-19,10,-2
371,-113,-21,988,-13,-11,-9
372,34,-8,1017,-12,-26,-13
373,130,-8,1000,-13,-18,-12
374,118,-11,1007,-18,6,-4
375,6,-31,997,-21,23,1
376,-124,-30,989,-18,22,2
377,-150,-37,986,-14,5,-4
378,-62,-14,998,-12,-17,-10
379,61,-18,1002,-11,-24,-13
380,140,0,1005,-13,-12,-10
381,92,-16,1010,-18,11,-2
382,-33,-24,999,-18,25,3
383,-133,-40,986,-19,19,1
384,-143,-31,987,-14,-1,-4
385,-31,-25,991,-12,-21,-11
386,86,-7,1013,-11,-23,-14
387,137,-8,1010,-14,-7,-9
388,68,-9,1001,-18,16,-2
389,-64,-24,996,-20,25,4
390,-141,-42,984,-17,14,0
391,-135,-25,981,-13,-6,-6
392,9,-17,995,-11,-23,-13
393,110,-6,1024,-11,-19,-13
394,131,-4,1007,-17,-1,-5
395,40,-22,1000,-19,20,0
396,-103,-24,988,-18,26,3
397,-143,-35,983,-18,9,-3
398,-107,-28,995,-14,-11,-8
399,35,-6,1012,-13,-24,-14
400,134,-11,1006,-13,-15,-14
401,112,-12,1004,-15,6,-4
402,5,-18,998,-20,22,2
403,-130,-32,993,-19,22,1
404,-145,-26,990,-16,3,-4
405,-62,-30,990,-14,-16,-12
406,70,-9,1005,-11,-24,-14
407,139,-11,1010,-16,-11,-9
408,85,-9,999,-17,13,-4
409,-35,-26,1009,-19,25,2
410,-140,-28,984,-18,19,1
411,-136,-36,973,-16,-2,-5
412,-21,-20,1003,-12,-22,-13
413,87,-15,1001,-12,-23,-12
414,142,-3,1014,-15,-5,-10
415,59,-21,1005,-19,16,0
416,-68,-18,989,-19,25,3
417,-147,-43,991,-19,14,0
418,-122,-21,970,-14,-7,-8
419,7,-12,1016,-10,-23,-14
420,128,-14,1005,-14,-20,-14
421,121,-13,1014,-16,2,-4
422,34,-22,989,-19,19,0
423,-108,-31,997,-20,26,2
424,-141,-29,976,-17,7,-3
425,-98,-19,1000,-13,-12,-9
426,49,-12,1013,-12,-24,-14
427,131,-9,1002,-13,-14,-11
428,106,-15,1009,-17,8,-5
429,-4,-24,997,-19,24,1
430,-128,-29,984,-18,22,1
431,-142,-24,992,-14,3,-5
432,-53,-27,995,-13,-17,-11
433,74,-8,1003,-12,-22,-14
434,134,-10,1012,-17,-10,-11
435,80,-6,997,-17,13,-3
436,-48,-42,1009,-21,25,1
437,-141,-30,973,-17,18,0
438,-130,-30,986,-14,-2,-7
439,-3,-17,995,-13,-22,-13
440,86,-8,1014,-10,-19,-10
441,139,-4,1011,-15,-4,-9
442,49,-23,1007,-20,18,1
443,-80,-31,978,-20,25,2
444,-141,-37,995,-20,12,-3
445,-111,-25,977,-15,-11,-10
446,18,-13,1008,-12,-23,-12
447,129,-7,1016,-12,-17,-12
448,115,-19,1000,-17,5,-5
449,19,-23,999,-18,20,0
450,-117,-26,988,-19,24,2
451,-147,-34,980,-15,7,-4
452,-76,-27,1000,-13,-15,-11
453,47,-3,1008,-11,-23,-15
454,142,-6,1010,-13,-14,-12
455,96,-18,1002,-18,9,-3
456,-23,-33,996,-20,25,2
457,-131,-35,991,-18,20,0
458,-138,-28,985,-15,0,-6
459,-35,-19,998,-10,-20,-13
460,79,-6,1009,-13,-23,-15
461,134,-1,1004,-15,-8,-9
462,68,-20,1004,-19,14,-2
463,-55,-28,997,-19,24,2
464,-142,-37,985,-18,15,0
465,-119,-28,979,-14,-7,-7
466,-8,-17,998,-12,-22,-12
467,103,-6,1011,-11,-21,-13
468,128,-10,1020,-16,-2,-6
469,45,-24,993,-22,18,0
470,-87,-32,988,-19,25,3
471,-145,-31,987,-15,10,-1
472,-104,-23,981,-12,-11,-9
473,26,-7,1013,-10,-23,-12
474,126,-5,1015,-14,-16,-11
475,114,-19,998,-15,5,-4
476,10,-26,999,-17,23,1
477,-117,-29,987,-19,22,3
478,-142,-35,983,-13,4,-3
479,-74,-14,999,-10,-15,-9
480,63,-12,1004,-11,-22,-12
481,132,-8,1014,-14,-12,-11
482,90,-15,993,-17,8,-2
483,-22,-25,1008,-18,23,2
484,-127,-27,985,-18,19,1
485,-146,-26,983,-15,1,-6
486,-36,-23,1002,-11,-19,-12
487,87,-11,1004,-11,-23,-12
488,126,-5,1006,-13,-7,-6
489,78,-19,1004,-18,13,-2
490,-62,-30,1005,-18,26,4
491,-134,-32,973,-17,14,0
492,-129,-26,989,-13,-4,-6
493,0,-13,997,-13,-23,-12
494,100,-9,1007,-11,-20,-12
495,131,-14,1018,-14,-2,-7
496,46,-14,995,-19,16,0
497,-93,-29,987,-19,24,4
498,-139,-33,981,-18,8,-2
499,-111,-23,998,-15,-12,-9
500,30,-13,1006,-11,-25,-14
501,121,-8,1007,-14,-16,-11
502,119,-12,1009,-16,4,-4
503,12,-27,996,-19,21,2
504,-116,-29,981,-19,23,1
505,-148,-31,1000,-15,4,-3
506,-69,-21,986,-13,-16,-10
507,57,-13,1007,-12,-24,-13
508,135,-6,1010,-12,-13,-11
509,97,-14,1003,-18,10,-3
510,-30,-22,998,-19,24,3
511,-134,-33,989,-19,18,1
512,-139,-33,983,-16,-1,-5
513,-32,-23,996,-9,-19,-10
514,85,-10,1005,-11,-21,-13
515,135,-6,1008,-14,-7,-9
516,70,-12,1004,-17,15,-1
517,-64,-26,1002,-20,25,2
518,-137,-33,980,-17,15,-1
519,-133,-27,985,-13,-4,-7
520,0,-16,995,-12,-23,-13
521,110,-11,1017,-11,-21,-14
522,132,-8,1012,-15,-1,-7
523,38,-14,998,-18,20,1
524,-93,-34,986,-18,24,2
525,-147,-32,982,-16,8,-2
526,-110,-32,989,-13,-12,-8
527,37,-9,1011,-12,-24,-14
528,129,-14,1014,-14,-15,-11
529,120,-7,992,-16,5,-4
530,-1,-22,1011,-20,23,2
531,-119,-18,979,-19,21,2
532,-151,-34,993,-20,3,-3
533,-62,-27,996,-13,-19,-12
534,64,-22,998,-11,-23,-13
535,144,-5,1013,-12,-13,-11
536,87,-11,999,-18,10,-1
537,-31,-23,1007,-17,24,2
538,-135,-32,982,-20,19,1
539,-137,-28,983,-15,-2,-4
540,-27,-20,991,-12,-21,-13
541,84,-13,1017,-12,-22,-14
542,142,-7,1002,-15,-7,-9
543,63,-14,1007,-19,16,0
544,-70,-28,997,-20,26,3
545,-140,-37,980,-17,13,-1
546,-127,-29,982,-13,-7,-7
547,2,-8,996,-11,-24,-14
548,125,-16,1024,-13,-20,-15
549,121,-5,1008,-15,1,-5
550,39,-17,1002,-19,18,0
551,-103,-32,984,-21,24,2
552,-152,-32,982,-19,9,-2
553,-91,-21,991,-13,-13,-11
554,39,-17,1020,-13,-23,-15
555,137,-8,1001,-13,-16,-11
556,110,-14,1005,-16,7,-5
557,-6,-26,998,-19,23,2
558,-133,-23,988,-20,22,2
559,-141,-39,990,-16,2,-3
560,-59,-22,996,-15,-18,-9
561,74,-14,999,-11,-25,-14
562,140,-14,1018,-12,-10,-9
563,82,-9,989,-17,12,-1
564,-49,-30,1010,-18,26,1
565,-134,-27,985,-18,18,0
566,-134,-39,972,-16,-2,-6
567,-17,-14,1010,-10,-21,-13
568,97,-18,998,-11,-22,-13
569,136,-1,1019,-10,-5,-8
570,51,-22,994,-20,17,0
571,-73,-19,998,-18,25,2
572,-142,-39,982,-16,11,-2
573,-122,-17,977,-15,-8,-8
574,22,-18,1011,-11,-24,-13
575,113,-11,1011,-13,-18,-12
576,122,-18,1004,-17,3,-5
577,29,-18,1004,-17,20,0
578,-112,-29,983,-19,24,4
579,-147,-25,979,-15,7,-3
580,-84,-25,1006,-13,-15,-10
581,44,-13,1010,-13,-24,-12
582,134,-13,1001,-13,-15,-11
583,105,-15,1007,-15,7,-4
584,-16,-18,995,-18,23,2
585,-128,-35,989,-18,20,2
586,-144,-23,989,-14,1,-4
587,-51,-27,996,-13,-18,-11
588,80,-12,1006,-9,-24,-13
589,134,-7,996,-14,-9,-7
590,75,-8,1012,-16,14,-2
591,-42,-28,999,-19,25,4
592,-147,-34,983,-19,18,2
593,-134,-32,983,-14,-3,-6
594,-15,-30,996,-9,-21,-12
595,95,-7,1007,-10,-21,-13
596,139,-7,1009,-12,-4,-8
597,52,-11,1008,-17,18,0
598,-79,-27,981,-20,26,4
599,-147,-35,994,-17,13,-2
600,-112,-26,981,-14,-9,-7
601,17,-12,1003,-10,-23,-14
602,127,-18,1018,-13,-18,-12
603,122,-15,1002,-15,4,-5
604,19,-20,1002,-17,21,1
605,-116,-25,982,-19,23,3
606,-148,-25,988,-16,6,-4
607,-80,-29,992,-14,-16,-9
608,47,-9,1014,-11,-25,-13
609,143,-17,1000,-14,-13,-12
610,94,-16,1012,-14,10,-4
611,-10,-24,984,-17,22,1
612,-137,-30,996,-17,22,1
613,-139,-23,987,-16,1,-5
614,-46,-21,993,-13,-18,-11
615,75,-15,1007,-11,-22,-13
616,145,-11,1007,-14,-9,-9
617,69,-20,1001,-17,15,-1
618,-50,-28,1006,-17,25,3
619,-137,-27,992,-17,15,0
620,-131,-30,967,-13,-4,-4
621,-10,-10,1010,-12,-23,-11
622,101,-19,1002,-13,-21,-12
623,130,-8,1019,-13,-4,-7
624,54,-22,992,-19,17,1
625,-86,-22,995,-18,26,3
626,-138,-40,981,-18,12,-2
627,-119,-16,986,-13,-8,-8
628,22,-13,1006,-11,-25,-14
629,121,-9,1016,-14,-17,-12
630,127,-22,993,-17,3,-5
631,15,-20,1009,-17,22,2
632,-113,-36,978,-19,23,3
633,-153,-24,988,-12,6,-3
634,-73,-28,997,-13,-16,-10
635,48,-7,1003,-12,-22,-14
636,140,-13,1009,-13,-14,-10
637,99,-14,1004,-15,10,-2
638,-21,-24,994,-18,24,4
639,-131,-31,988,-19,20,3
640,-140,-34,989,-15,1,-4
641,-42,-25,991,-10,-20,-9
642,79,-17,1008,-10,-22,-10
643,127,-15,1007,-12,-8,-4
644,70,-13,1000,-13,13,1
645,-34,-24,1002,-16,24,4
646,-137,-28,992,-15,17,4
647,-124,-31,972,-15,-4,-3
648,-22,-30,996,-10,-21,-7
649,85,-16,1012,-9,-20,-7
650,123,-12,1016,-13,-2,-3
651,61,-13,989,-14,17,2
652,-61,-20,1000,-16,22,7
653,-121,-37,993,-20,12,11
654,-112,-47,974,-18,-5,10
655,-12,-37,1014,-11,-20,7
656,82,-24,1014,-12,-15,5
657,92,-37,984,-14,1,11
658,46,-6,997,-14,12,21
659,-38,-1,1012,-19,16,26
660,-95,-26,982,-20,10,25
661,-98,-41,997,-20,-4,23
662,-18,-28,999,-10,-13,14
663,47,-6,1000,-10,-10,10
664,76,-3,989,-14,-2,12
665,45,5,1008,-16,8,14
666,-30,-13,1004,-21,12,18
667,-93,-39,988,-23,5,19
668,-76,-52,992,-16,-6,13
669,-2,-37,1000,-9,-12,3
670,56,-9,994,-9,-6,2
671,68,-2,998,-13,2,8
672,24,-1,1010,-16,9,13
673,-44,-6,999,-21,11,17
674,-93,-42,985,-21,4,17
675,-58,-33,986,-16,-8,9
676,18,-30,1008,-11,-11,-1
677,63,-19,1002,-11,-5,-4
678,64,-7,992,-15,4,4
679,2,-6,1007,-15,11,10
680,-70,-14,992,-20,10,17
681,-95,-33,989,-19,0,15
682,-29,-34,1006,-10,-12,2
683,50,-16,1004,-8,-9,-7
684,66,-21,988,-15,0,-5
685,43,-5,1005,-14,6,2
686,-28,-1,998,-17,13,10
687,-89,-24,1005,-23,9,14
688,-82,-34,982,-20,-5,9
689,-2,-34,1005,-12,-13,-3
690,67,-8,1000,-12,-10,-10
691,66,-14,995,-15,3,-8
692,23,-16,1004,-15,11,1
693,-56,1,1007,-17,13,10
694,-99,-35,979,-23,6,11
695,-61,-40,999,-18,-9,5
696,19,-22,994,-11,-14,-8
697,87,-4,1007,-13,-7,-12
698,59,-14,998,-15,6,-8
699,0,-17,1004,-14,13,4
700,-78,-6,998,-17,12,11
701,-111,-40,982,-22,2,9
702,-34,-30,987,-13,-14,0
703,50,-17,1018,-8,-15,-10
704,87,-8,1000,-13,-5,-11
705,55,-14,999,-15,9,-8
706,-29,-7,1001,-16,15,3
707,-99,-19,987,-24,12,9
708,-100,-42,990,-19,-2,2
709,-12,-24,1010,-12,-15,-7
710,80,-16,999,-11,-14,-13
711,96,-9,1001,-13,0,-12
712,27,-25,1000,-17,15,-5
713,-65,-7,995,-16,17,3
714,-110,-24,998,-20,6,4
715,-82,-33,984,-20,-7,-1
716,20,-27,1005,-11,-16,-10
717,101,-7,1004,-12,-12,-12
718,82,-5,999,-16,6,-8
719,4,-21,1007,-17,19,-4
720,-99,-13,993,-19,18,3
721,-119,-31,979,-21,3,-1
722,-49,-30,998,-15,-14,-9
723,53,-23,998,-13,-18,-14
724,112,-9,1011,-11,-7,-10
725,71,-14,1002,-15,11,-5
726,-40,-22,1001,-19,22,1
727,-115,-31,984,-18,14,1
728,-124,-23,987,-17,-3,-4
729,-13,-24,991,-13,-20,-11
730,84,-11,1017,-10,-18,-12
731,118,-10,1003,-15,-2,-8
732,45,-17,1005,-17,16,-3
733,-75,-21,983,-20,22,3
734,-139,-34,989,-17,10,0
735,-98,-31,993,-14,-10,-6
736,11,-18,1009,-12,-20,-11
737,116,-13,1004,-11,-16,-10
738,110,-14,1003,-14,2,-5
739,12,-15,1000,-18,19,0
740,-105,-25,992,-19,21,4
741,-134,-31,992,-17,4,2
742,-76,-39,992,-15,-14,1
743,46,-25,994,-8,-23,-10
744,119,-15,1016,-9,-12,-10
745,85,-7,997,-13,8,-4
746,-8,-22,1004,-14,20,3
747,-95,-22,998,-21,17,13
748,-129,-47,977,-20,1,14
749,-42,-38,989,-12,-16,4
750,46,-21,1013,-7,-18,-5
751,98,-4,1006,-9,-5,-6
752,69,-22,995,-16,9,-1
753,-9,-13,1003,-15,17,11
754,-86,-17,1000,-18,12,20
755,-107,-43,974,-21,0,17
756,-38,-28,1002,-12,-13,7
757,53,-5,1013,-9,-15,-7
758,86,-27,996,-15,-2,-10
759,54,-14,997,-13,7,1
760,-20,-5,1003,-16,12,13
761,-89,-25,992,-20,10,19
762,-103,-36,991,-17,-2,15
763,-18,-27,1008,-10,-13,3
764,56,-10,1006,-9,-11,-10
765,77,-18,985,-14,0,-9
766,45,-21,1008,-15,9,1
767,-51,6,1000,-16,14,15
768,-94,-26,997,-21,7,18
769,-77,-34,989,-18,-5,11
770,-5,-26,998,-11,-13,-2
771,72,-12,999,-11,-10,-12
772,63,-19,995,-14,3,-8
773,24,-14,1010,-15,10,4
774,-59,-14,1001,-19,13,14
775,-105,-30,983,-19,4,17
776,-50,-32,988,-15,-10,8
777,15,-18,1005,-11,-13,-6
778,80,-8,1005,-13,-6,-12
779,62,-18,995,-16,6,-7
780,-5,-15,1004,-16,13,6
781,-76,-14,996,-20,11,14
782,-105,-35,978,-23,1,13
783,-37,-25,998,-12,-12,3
784,48,-13,1020,-10,-14,-9
785,83,-14,987,-13,-3,-11
786,51,-24,1002,-15,9,-5
787,-32,-8,1002,-15,13,8
788,-94,-22,990,-20,9,14
789,-92,-41,988,-20,-3,8
790,-6,-29,1010,-11,-14,-2
791,68,-10,1003,-7,-11,-9
792,77,-22,992,-13,1,-10
793,34,-17,1000,-13,11,-1
794,-56,-4,1008,-16,15,14
795,-100,-23,987,-22,7,16
796,-74,-40,994,-16,-7,7
797,5,-14,996,-10,-15,-4
798,80,-7,1007,-13,-10,-10
799,68,-20,991,-15,4,-9
800,20,-13,1012,-16,11,1
801,-69,-9,1006,-19,12,13
802,-105,-32,972,-21,4,12
803,-53,-33,998,-16,-10,4
804,26,-19,999,-10,-14,-8
805,88,-10,1013,-12,-7,-12
806,66,-19,990,-16,7,-9
807,-14,-14,999,-14,15,5
808,-82,-9,1003,-19,12,12
809,-109,-37,979,-20,1,8
810,-38,-22,1001,-13,-13,-1
811,70,-14,1011,-12,-15,-12
812,89,-13,999,-13,-1,-12
813,41,-9,991,-16,11,-8
814,-48,-11,1006,-19,17,2
815,-110,-17,988,-19,9,6
816,-93,-37,992,-21,-5,1
817,10,-35,1010,-14,-16,-11
818,93,-11,994,-10,-14,-13
819,90,-5,1000,-14,2,-10
820,15,-13,1012,-18,16,-4
821,-98,-18,985,-19,19,3
822,-118,-20,997,-18,5,-2
823,-56,-34,987,-16,-11,-9
824,39,-19,1004,-12,-17,-13
825,113,-9,1004,-13,-9,-11
826,74,-11,1004,-17,9,-5
827,-21,-26,1003,-19,21,-1
828,-118,-24,992,-19,17,0
829,-124,-28,977,-15,0,-5
830,-25,-15,999,-14,-16,-13
831,78,-17,1009,-16,-18,-13
832,120,-11,1007,-16,-5,-10
833,55,-17,1006,-18,14,-3
834,-66,-31,984,-18,23,1
835,-129,-32,991,-17,12,-2
836,-108,-34,980,-15,-6,-8
837,8,-7,1010,-10,-19,-14
838,115,-16,1009,-13,-16,-13
839,117,-8,1004,-14,2,-7
840,20,-18,996,-19,20,0
841,-106,-24,995,-19,22,0
842,-138,-31,984,-18,8,-4
843,-76,-28,994,-17,-13,-10
844,40,-19,1003,-14,-21,-14
845,128,-13,1011,-13,-13,-13
846,92,-16,996,-18,8,-5
847,-15,-24,1006,-17,22,1
848,-120,-32,987,-18,19,0
849,-135,-22,986,-16,2,-5
850,-35,-25,996,-11,-17,-12
851,69,-11,1009,-12,-19,-13
852,137,-10,999,-16,-7,-12
853,61,-15,1012,-17,15,-3
854,-46,-36,995,-20,24,1
855,-136,-36,984,-17,17,-1
856,-118,-18,985,-13,-6,-7
857,-9,-12,997,-11,-20,-14
858,91,-3,1016,-12,-20,-14
859,125,-17,1012,-17,-4,-8
860,41,-16,996,-17,18,-3
861,-83,-35,986,-19,24,2
862,-138,-33,982,-17,11,-4
863,-105,-24,990,-13,-8,-9
864,21,-3,1012,-12,-21,-14
865,112,-10,1010,-14,-15,-13
866,116,-20,997,-17,4,-7
867,3,-24,1009,-19,20,1
868,-109,-35,975,-18,20,0
869,-140,-25,1000,-13,4,-4
870,-71,-17,993,-13,-15,-10
871,61,-10,1004,-12,-23,-15
872,129,-11,1012,-15,-12,-10
873,79,-15,996,-18,10,-4
874,-22,-35,1003,-19,21,1
875,-136,-36,987,-17,18,3
876,-132,-29,980,-14,-1,-5
877,-20,-20,999,-8,-20,-13
878,76,-5,1008,-11,-22,-13
879,132,-10,1001,-15,-7,-9
880,61,-17,1013,-17,14,-1
881,-60,-34,992,-19,24,4
882,-135,-37,986,-16,14,-1
883,-114,-35,975,-12,-6,-7
884,0,-6,1007,-8,-22,-13
885,109,-12,1008,-13,-19,-13
886,123,-15,1015,-14,0,-6
887,36,-15,995,-17,18,2
888,-95,-35,985,-17,24,2
889,-140,-34,982,-16,9,-1
890,-102,-23,996,-11,-11,-8
891,40,-10,1008,-10,-23,-12
892,125,-3,1012,-12,-15,-11
893,112,-16,997,-16,6,-4
894,2,-32,1003,-18,22,1
895,-122,-28,985,-17,21,3
896,-146,-31,983,-14,5,-4
897,-63,-24,1002,-10,-16,-11
898,69,2,1005,-9,-22,-14
899,132,-8,1004,-16,-11,-11
900,83,-12,1009,-17,11,-2
901,-34,-34,1001,-19,24,2
902,-136,-33,979,-18,17,1
903,-132,-36,991,-13,-2,-6
904,-22,-10,987,-10,-20,-13
905,81,-8,1016,-12,-21,-14
906,140,0,1005,-13,-5,-10
907,54,-19,1012,-19,17,-1
908,-67,-29,987,-20,23,2
909,-141,-43,986,-17,14,-1
910,-119,-24,982,-14,-7,-7
911,11,-12,998,-13,-23,-14
912,110,-4,1019,-11,-17,-14
913,126,-7,1014,-14,1,-5
914,34,-29,986,-19,19,0
915,-101,-22,997,-19,24,3
916,-143,-40,980,-17,9,-1
917,-97,-25,984,-10,-10,-11
918,40,-7,1017,-12,-23,-12
919,129,-4,1014,-13,-15,-12
920,111,-18,994,-17,6,-4
921,-7,-29,1007,-21,23,2
922,-117,-37,982,-17,21,0
923,-145,-28,988,-15,4,-4
924,-58,-16,997,-13,-17,-12
925,70,-11,1004,-11,-23,-14
926,135,-9,1007,-15,-10,-9
927,79,-17,1001,-18,11,-3
928,-30,-35,1006,-19,24,1
929,-137,-41,981,-19,16,1
930,-130,-20,978,-14,-1,-6
931,-24,-17,1003,-11,-21,-12
932,86,-3,1006,-13,-22,-13
933,135,-10,1010,-15,-6,-8
934,56,-15,1004,-19,17,0
935,-71,-36,994,-22,25,3
936,-134,-39,984,-16,13,-1
937,-127,-24,982,-12,-7,-7
938,13,-5,996,-9,-24,-14
939,109,-3,1025,-12,-18,-11
940,132,-17,999,-18,0,-5
941,26,-21,1005,-18,20,1
942,-100,-39,985,-20,23,2
943,-145,-30,984,-14,9,-3
944,-95,-25,990,-12,-13,-10
945,43,-3,1018,-10,-23,-14
946,137,-6,1003,-14,-15,-13
947,102,-15,1003,-16,8,-4
948,-4,-26,1003,-19,22,1
949,-132,-35,985,-19,21,1
950,-141,-29,988,-15,2,-4
951,-59,-25,998,-10,-18,-11
952,75,-11,1000,-9,-23,-14
953,136,-5,1011,-12,-9,-9
954,79,-12,998,-18,12,-2
955,-43,-30,1008,-19,25,3
956,-135,-33,979,-18,18,1
957,-130,-28,979,-13,-2,-6
958,-22,-19,1004,-11,-21,-12
959,89,-9,1000,-11,-21,-13
960,136,-5,1012,-14,-4,-8
961,58,-14,1006,-19,16,-1
962,-64,-32,983,-20,25,2
963,-145,-33,992,-16,13,0
964,-125,-26,979,-15,-7,-8
965,11,-5,1005,-10,-23,-14
966,115,-15,1018,-14,-19,-14
967,130,-19,1003,-16,1,-6
968,22,-22,999,-17,21,1
969,-96,-33,991,-19,22,2
970,-150,-32,974,-16,10,-2
971,-92,-18,1001,-12,-12,-10
972,46,-5,1013,-12,-23,-15
973,126,-7,1001,-14,-13,-11
974,101,-20,1004,-18,8,-3
975,-4,-34,997,-19,22,0
976,-133,-30,985,-18,20,2
977,-140,-29,991,-15,1,-4
978,-44,-22,998,-10,-18,-12
979,67,-8,1000,-11,-22,-14
980,138,0,1017,-14,-10,-11
981,70,-22,997,-18,14,-1
982,-47,-28,1007,-19,24,4
983,-132,-44,979,-19,16,1
984,-130,-27,984,-12,-4,-5
985,-12,-18,991,-10,-23,-12
986,99,-9,1017,-9,-21,-15
987,131,-8,1010,-14,-3,-6
988,51,-14,998,-17,18,0
989,-78,-33,993,-18,26,3
990,-137,-38,986,-15,12,-2
991,-121,-23,982,-11,-8,-7
992,24,-15,1007,-10,-24,-14
993,116,-4,1022,-14,-17,-12
994,122,-15,995,-15,3,-5
995,22,-26,1006,-18,21,1
996,-117,-29,990,-19,23,4
997,-140,-33,974,-15,6,-4
998,-83,-25,1006,-11,-14,-10
999,48,-3,1006,-11,-24,-13
1000,135,-10,1007,-14,-14,-11
1001,101,-15,1003,-18,8,-3
1002,-18,-23,1002,-18,25,2
1003,-125,-38,982,-18,20,2
1004,-144,-33,989,-14,1,-4
1005,-44,-20,994,-12,-18,-11
1006,75,-13,1007,-10,-22,-15
1007,139,2,1006,-14,-8,-9
1008,71,-18,1004,-18,13,-2
1009,-53,-22,999,-18,24,3
1010,-142,-43,986,-20,15,1
1011,-125,-26,973,-13,-4,-7
1012,-10,-17,1005,-11,-23,-11
1013,96,-7,1010,-10,-22,-14
1014,130,-12,1012,-16,-3,-7
1015,47,-15,1000,-18,17,0
1016,-81,-37,986,-22,27,4
1017,-140,-36,988,-18,12,-1
1018,-110,-23,978,-14,-8,-6
1019,18,-7,1014,-10,-23,-13
1020,127,-6,1011,-16,-17,-11
1021,114,-14,1003,-16,3,-4
1022,23,-25,996,-19,20,1
1023,-118,-30,993,-18,23,2
1024,-139,-32,974,-12,5,-3
1025,-78,-25,1004,-14,-13,-9
1026,51,-4,1010,-10,-23,-12
1027,139,-10,1005,-14,-12,-10
1028,90,-13,1004,-17,9,-2
1029,-19,-29,999,-17,22,3
1030,-127,-30,991,-16,18,1
1031,-144,-27,984,-16,1,-3
1032,-41,-20,995,-10,-19,-12
1033,80,-12,1008,-12,-23,-14
1034,134,-5,1004,-14,-9,-8
1035,72,-9,1007,-18,13,-2
1036,-53,-38,1005,-20,24,2
1037,-137,-30,977,-15,15,1
1038,-129,-28,979,-15,-6,-5
1039,-7,-11,1003,-13,-24,-13
1040,103,-13,1008,-13,-21,-13
1041,126,-2,1015,-16,-2,-6
1042,49,-23,1004,-20,16,0
1043,-80,-30,981,-19,24,2
1044,-146,-36,991,-17,10,0
1045,-106,-32,986,-13,-11,-10
1046,23,-7,1011,-10,-23,-13
1047,126,-11,1010,-14,-16,-12
1048,118,-17,1003,-14,4,-6
1049,12,-26,1000,-19,21,1
1050,-117,-22,980,-18,21,2
1051,-139,-33,992,-16,5,-3
1052,-76,-22,997,-12,-14,-9
1053,59,-7,1004,-12,-24,-14
1054,136,-9,1009,-13,-12,-12
1055,93,-16,1002,-17,10,-4
1056,-24,-22,995,-19,25,2
1057,-136,-35,990,-19,19,1
1058,-133,-35,989,-16,0,-5
1059,-32,-17,991,-12,-19,-11
1060,81,-8,1009,-12,-22,-14
1061,138,-8,1008,-14,-6,-10
1062,60,-13,1001,-19,16,0
1063,-65,-29,998,-21,24,2
1064,-137,-39,989,-19,14,0
1065,-126,-31,973,-16,-6,-5
1066,2,-8,1004,-12,-22,-13
1067,116,-18,1013,-14,-21,-15
1068,123,-2,1017,-14,1,-5
1069,40,-23,993,-19,19,0
1070,-101,-25,996,-18,25,3
1071,-141,-37,977,-19,10,-2
1072,-108,-25,991,-13,-12,-9
1073,38,-10,1013,-12,-25,-13
1074,129,-16,1011,-13,-15,-12
1075,109,-10,991,-15,5,-3
1076,4,-25,1006,-19,22,3
1077,-122,-26,985,-18,21,2
1078,-146,-34,981,-16,4,-3
1079,-66,-16,1003,-11,-18,-12
1080,65,-21,1001,-12,-24,-14
1081,139,-6,1011,-12,-12,-11
1082,84,-17,1000,-18,11,-2
1083,-27,-26,1000,-18,25,1
1084,-136,-34,988,-18,18,2
1085,-136,-12,983,-15,-1,-6
1086,-22,-17,1000,-14,-21,-14
1087,83,-15,1004,-16,-22,-14
1088,136,-10,1007,-16,-5,-9
1089,62,-24,1006,-18,16,-2
1090,-63,-29,994,-21,23,3
1091,-138,-36,984,-17,13,-2
1092,-125,-22,981,-14,-5,-7
1093,7,-10,999,-12,-24,-14
1094,110,-5,1012,-14,-19,-13
1095,125,-18,1016,-18,1,-6
1096,36,-20,998,-19,18,-1
1097,-102,-41,980,-20,23,2
1098,-141,-29,987,-18,7,-3
1099,-94,-24,993,-13,-12,-10
1100,39,-7,1013,-12,-23,-14
1101,132,-7,1010,-15,-14,-11
1102,104,-24,999,-16,6,-4
1103,-9,-28,997,-19,22,0
1104,-122,-37,984,-19,21,0
1105,-142,-21,997,-13,3,-4
1106,-45,-17,986,-11,-17,-10
1107,65,-5,1014,-11,-22,-12
1108,138,-13,1004,-17,-10,-8
1109,69,-18,1004,-19,13,-1
1110,-39,-37,993,-19,23,3
1111,-137,-36,994,-17,16,1
1112,-125,-22,975,-12,-4,-6
1113,-16,-10,1002,-10,-21,-12
1114,96,-11,1011,-13,-21,-13
1115,126,-12,1002,-14,-3,-7
1116,55,-21,1001,-17,15,-1
1117,-76,-36,999,-19,23,3
1118,-134,-32,979,-14,10,-1
1119,-118,-28,983,-13,-8,-7
1120,14,1,1000,-11,-23,-14
1121,117,-18,1023,-13,-18,-12
1122,120,-11,999,-15,4,-4
1123,23,-20,1006,-19,21,2
1124,-92,-35,980,-18,22,1
1125,-149,-25,986,-16,9,0
1126,-90,-24,992,-15,-13,-11
1127,48,-14,1017,-13,-23,-14
1128,127,-11,1002,-12,-14,-10
1129,111,-9,994,-15,7,-4
1130,-8,-30,1014,-18,23,2
1131,-129,-20,969,-20,20,3
1132,-143,-29,1001,-16,2,-4
1133,-50,-19,997,-13,-18,-11
1134,71,-17,998,-13,-22,-12
1135,141,-11,1012,-13,-10,-11
1136,72,-16,997,-20,13,-1
1137,-35,-27,1001,-18,24,3
1138,-144,-29,987,-19,20,3
1139,-125,-26,976,-15,-3,-6
1140,-16,-20,1006,-11,-21,-12
1141,88,-10,1002,-13,-21,-12
1142,133,-8,1013,-15,-5,-8
1143,52,-25,1003,-18,17,-1
1144,-74,-23,989,-18,23,4
1145,-136,-37,989,-15,11,-2
1146,-119,-20,978,-14,-7,-7
1147,14,-16,1008,-10,-23,-13
1148,119,-7,1013,-12,-18,-13
1149,125,-25,1009,-16,3,-5
1150,24,-16,995,-14,20,1
1151,-111,-31,990,-17,23,3
1152,-140,-27,976,-15,6,-4
1153,-98,-16,1000,-12,-12,-10
1154,55,-12,1013,-14,-23,-15
1155,128,-16,1006,-13,-12,-11
1156,106,-16,997,-17,8,-4
1157,-14,-31,1006,-19,24,1
1158,-123,-26,980,-17,20,2
1159,-146,-21,992,-15,3,-4
1160,-45,-24,995,-14,-18,-13
1161,66,-10,1004,-11,-22,-14
1162,143,-10,1008,-15,-11,-10
1163,74,-19,998,-19,14,-1
1164,-47,-28,1007,-18,24,3
1165,-134,-37,978,-19,16,-1
1166,-136,-26,986,-12,-2,-6
1167,-8,-11,994,-11,-23,-13
1168,91,-10,1011,-12,-19,-14
1169,141,-9,1010,-15,-4,-8
1170,45,-16,1005,-18,18,1
1171,-76,-36,983,-19,24,4
1172,-145,-37,991,-15,11,-1
1173,-115,-18,978,-12,-10,-8
1174,19,-7,1008,-10,-24,-14
1175,123,-1,1016,-14,-18,-11
1176,118,-20,1000,-18,3,-4
1177,23,-32,1002,-17,20,0
1178,-113,-30,983,-18,22,4
1179,-146,-31,986,-14,6,-4
1180,-79,-21,995,-12,-14,-10
1181,53,-7,1015,-13,-24,-13
1182,134,-8,1004,-13,-15,-11
1183,94,-25,1003,-17,9,-4
1184,-12,-23,998,-17,24,2
1185,-136,-32,985,-17,20,3
1186,-133,-22,987,-15,1,-6
1187,-43,-27,1002,-12,-18,-11
1188,73,-6,997,-10,-23,-13
1189,136,-17,1007,-14,-9,-9
1190,71,-12,1007,-16,12,-2
1191,-48,-26,995,-18,25,4
1192,-131,-34,989,-17,15,-1
1193,-134,-25,980,-14,-4,-5
1194,-8,-16,993,-12,-23,-14
1195,94,-15,1010,-11,-20,-14
1196,132,-7,1012,-14,-3,-7
1197,49,-26,998,-19,17,-1
1198,-78,-27,993,-16,23,3
1199,-146,-37,981,-17,11,0
1200,-111,-20,984,-12,-9,-9
1201,19,-8,1013,-12,-23,-12
1202,124,-14,1006,-15,-17,-12
1203,117,-15,1007,-13,3,-5
1204,21,-23,1001,-19,20,0
1205,-114,-32,985,-17,23,3
1206,-149,-30,983,-15,6,-3
1207,-75,-16,999,-13,-16,-11
1208,52,-14,1009,-12,-24,-14
1209,135,-7,1002,-13,-12,-10
1210,94,-17,1006,-18,8,-4
1211,-14,-29,990,-18,24,3
1212,-138,-27,995,-18,21,4
1213,-133,-33,984,-15,0,-4
1214,-45,-21,995,-11,-18,-9
1215,77,-15,1009,-11,-22,-12
1216,134,-9,1001,-13,-7,-7
1217,72,-13,1005,-14,14,-1
1218,-49,-26,1004,-18,23,4
1219,-140,-31,985,-15,17,0
1220,-124,-33,979,-14,-6,-7
1221,-15,-12,994,-11,-22,-11
1222,96,-16,1019,-12,-20,-12
1223,136,-5,1010,-14,-4,-7
1224,47,-16,995,-19,19,1
1225,-76,-28,991,-19,25,2
1226,-144,-43,990,-17,11,0
1227,-115,-27,972,-12,-9,-7
1228,17,-13,1022,-9,-22,-13
1229,117,-8,1006,-12,-18,-10
1230,118,-8,999,-14,3,-5
1231,24,-16,1008,-17,20,0
1232,-106,-25,986,-21,24,4
1233,-148,-38,983,-18,8,-2
1234,-82,-27,995,-13,-14,-8
1235,41,-15,1013,-12,-22,-11
1236,132,-7,997,-14,-13,-10
1237,99,-7,1011,-16,6,-5
1238,-1,-15,997,-18,21,1
1239,-126,-33,989,-21,21,4
1240,-137,-33,987,-18,1,1
1241,-53,-31,990,-13,-18,-7
1242,61,-25,1005,-12,-22,-11
1243,133,-3,1006,-11,-11,-10
1244,80,-4,1007,-16,9,-3
1245,-32,-23,1002,-19,23,4
1246,-122,-32,991,-21,15,8
1247,-129,-41,974,-19,-2,6
1248,-30,-35,995,-13,-19,-3
1249,82,-16,1013,-11,-20,-12
1250,116,3,1019,-12,-3,-8
1251,59,-18,988,-18,15,-3
1252,-55,-12,999,-17,21,9
1253,-113,-35,985,-23,12,12
1254,-116,-44,984,-17,-4,6
1255,-1,-23,1006,-9,-18,-5
1256,89,-7,1016,-9,-16,-12
1257,99,-14,996,-13,1,-10
1258,34,-15,997,-16,15,0
1259,-65,-9,1004,-19,17,10
1260,-116,-35,990,-23,8,13
1261,-83,-44,988,-17,-7,4
1262,11,-23,1010,-9,-18,-7
1263,96,-2,1001,-9,-11,-12
1264,75,-14,1000,-16,6,-9
1265,19,-18,1000,-16,15,-1
1266,-77,-15,1005,-19,16,13
1267,-110,-30,977,-22,5,12
1268,-64,-40,998,-14,-11,4
1269,27,-13,999,-9,-17,-8
1270,90,3,1004,-12,-9,-14
1271,69,-25,1001,-18,7,-11
1272,-4,-23,1004,-15,16,2
1273,-86,-24,996,-16,14,12
1274,-110,-33,977,-19,1,9
1275,-38,-28,990,-13,-14,-1
1276,44,-8,1019,-7,-16,-9
1277,92,-11,999,-14,-6,-14
1278,54,-30,996,-15,10,-11
1279,-27,-17,1000,-16,15,8
1280,-92,-23,993,-21,10,15
1281,-103,-33,981,-19,-2,10
1282,-18,-27,1013,-12,-15,-1
1283,68,-4,1001,-9,-14,-12
1284,83,-18,996,-16,0,-14
1285,45,-34,999,-17,11,-6
1286,-56,-7,1002,-15,15,9
1287,-102,-25,994,-20,8,13
1288,-82,-34,993,-17,-5,7
1289,4,-16,1001,-10,-15,-5
1290,79,0,1002,-12,-11,-13
1291,70,-26,997,-17,3,-14
1292,23,-20,1001,-15,13,-3
1293,-63,-19,1003,-18,15,12
1294,-108,-29,985,-21,6,13
1295,-54,-34,986,-17,-9,2
1296,21,-21,1011,-8,-14,-10
1297,82,8,998,-12,-7,-14
1298,71,-23,1001,-17,6,-14
1299,-1,-23,1003,-17,15,0
1300,-84,-20,999,-18,13,11
1301,-101,-35,976,-19,0,10
1302,-40,-22,997,-14,-12,-1
1303,43,-10,1008,-9,-14,-11
1304,94,-7,1007,-12,-5,-16
1305,52,-23,995,-16,10,-12
1306,-31,-16,993,-16,17,3
1307,-94,-23,999,-21,10,11
1308,-102,-28,977,-18,-2,6
1309,-8,-26,1016,-12,-14,-7
1310,72,1,1004,-9,-13,-13
1311,85,-11,991,-15,0,-15
1312,34,-31,1004,-17,13,-11
1313,-75,-18,1000,-16,16,4
1314,-102,-16,986,-20,5,8
1315,-76,-33,1001,-17,-8,0
1316,16,-29,1001,-10,-16,-9
1317,94,-1,998,-11,-12,-13
1318,70,-23,1005,-16,4,-12
1319,4,-29,996,-14,15,-5
1320,-89,-17,1006,-15,16,5
1321,-109,-30,975,-20,2,8
1322,-52,-29,999,-15,-12,1
1323,46,-17,1005,-11,-18,-12
1324,98,-8,1001,-13,-8,-13
1325,60,-23,1002,-15,7,-10
1326,-18,-25,999,-16,16,0
1327,-89,-20,998,-18,12,9
1328,-115,-38,974,-20,-1,9
1329,-22,-29,1002,-11,-16,-2
1330,62,-5,1011,-8,-15,-12
1331,91,-7,1005,-15,-2,-14
1332,56,-26,992,-15,11,-11
1333,-49,-20,1000,-15,18,4
1334,-97,-26,984,-20,10,13
1335,-97,-35,1000,-14,-5,5
1336,-6,-19,1000,-11,-16,-5
1337,78,1,1012,-9,-14,-12
1338,85,-17,992,-15,-1,-17
1339,36,-30,1004,-19,14,-8
1340,-66,-14,994,-17,16,7
1341,-111,-29,999,-19,7,10
1342,-76,-33,988,-17,-7,2
1343,9,-21,999,-9,-14,-7
1344,94,-4,1009,-11,-12,-14
1345,74,-9,994,-16,5,-15
1346,6,-32,1008,-17,18,-5
1347,-82,-8,999,-18,15,7
1348,-109,-27,977,-21,3,8
1349,-50,-31,991,-16,-13,-3
1350,39,-17,1008,-12,-18,-13
1351,96,-3,1003,-13,-9,-13
1352,62,-19,1000,-17,8,-11
1353,-25,-26,996,-17,17,-2
1354,-105,-18,996,-12,8,3
1355,-105,-28,972,-16,-7,0
1356,-28,-21,1005,-12,-15,-7
1357,78,-14,1007,-10,-16,-14
1358,99,-12,1006,-17,-2,-12
1359,48,-23,997,-14,11,-6
1360,-66,-23,996,-16,19,-1
1361,-117,-23,978,-19,10,3
1362,-96,-26,1001,-14,-8,-1
1363,14,-18,1007,-12,-17,-11
1364,98,-10,1001,-12,-15,-12
1365,95,-15,1000,-15,2,-8
1366,15,-22,1002,-19,18,-3
1367,-93,-32,988,-16,20,3
1368,-122,-20,997,-17,4,1
1369,-65,-32,991,-16,-12,-4
1370,42,-18,1004,-10,-18,-12
1371,113,-7,1006,-13,-11,-11
1372,80,-14,997,-16,8,-7
1373,-18,-29,1006,-17,20,0
1374,-113,-27,991,-18,16,4
1375,-118,-35,976,-15,0,1
1376,-34,-24,1000,-12,-16,-7
1377,67,-8,1001,-12,-19,-13
1378,115,-9,1009,-12,-5,-11
1379,65,-13,998,-17,12,-7
1380,-50,-30,999,-18,22,1
1381,-113,-24,986,-16,12,4
1382,-115,-33,981,-19,-4,1
1383,-7,-20,1001,-11,-18,-7
1384,87,-14,1014,-12,-17,-13
1385,113,-11,1001,-15,0,-10
1386,39,-29,1001,-15,16,-6
1387,-73,-21,991,-16,20,3
1388,-121,-25,989,-17,9,6
1389,-91,-29,990,-16,-8,3
1390,9,-12,1008,-11,-18,-8
1391,106,-6,1007,-10,-15,-14
1392,90,-17,995,-17,3,-10
1393,17,-35,999,-15,19,-4
1394,-94,-16,995,-16,18,6
1395,-121,-32,995,-21,5,8
1396,-60,-26,986,-14,-11,1
1397,29,-21,1009,-10,-18,-9
1398,107,4,1003,-11,-10,-14
1399,78,-24,996,-18,8,-13
1400,-11,-21,1007,-18,20,-2
1401,-97,-22,999,-19,14,8
1402,-114,-30,973,-18,0,5
1403,-44,-27,1000,-15,-14,-4
1404,53,-7,1004,-11,-18,-13
1405,104,-6,1012,-15,-6,-13
1406,67,-16,998,-19,11,-8
1407,-40,-25,991,-18,19,1
1408,-106,-27,1001,-17,12,4
1409,-111,-33,977,-19,-3,1
1410,-15,-20,1003,-12,-17,-8
1411,83,-11,1017,-12,-17,-14
1412,103,-7,997,-14,0,-11
1413,40,-22,999,-17,14,-6
1414,-78,-22,995,-19,20,2
1415,-115,-26,988,-16,7,2
1416,-88,-26,992,-17,-9,-2
1417,16,-21,1012,-12,-17,-12
1418,110,-8,998,-12,-14,-14
1419,84,-19,1002,-16,5,-8
1420,12,-18,1001,-18,18,-2
1421,-108,-28,995,-19,18,4
1422,-115,-27,992,-17,2,1
1423,-59,-30,993,-15,-13,-3
1424,46,-16,995,-11,-20,-11
1425,112,-7,1014,-13,-10,-12
1426,74,-13,993,-16,10,-6
1427,-29,-24,1009,-17,21,-1
1428,-104,-26,989,-17,15,2
1429,-122,-32,984,-16,-1,2
1430,-27,-24,981,-13,-17,-7
1431,65,-10,1025,-10,-17,-13
1432,116,-4,1000,-13,-6,-11
1433,49,-19,1003,-19,15,-6
1434,-47,-27,994,-18,21,1
1435,-120,-24,996,-17,12,4
1436,-109,-32,973,-19,-5,0
1437,-1,-19,1011,-11,-19,-9
1438,93,-12,1017,-12,-16,-11
1439,112,-11,991,-14,1,-8
1440,34,-23,1012,-15,16,-4
1441,-84,-24,982,-18,20,2
1442,-125,-25,992,-16,8,5
1443,-84,-31,987,-17,-9,-1
1444,15,-20,1015,-11,-18,-9
1445,117,-8,998,-10,-15,-12
1446,85,-16,1003,-15,6,-7
1447,9,-19,995,-16,18,-3
1448,-102,-17,1000,-16,19,4
1449,-124,-29,984,-20,3,6
1450,-55,-32,996,-14,-15,-3
1451,44,-18,1003,-11,-18,-13
1452,117,-4,1002,-13,-10,-12
1453,72,-14,1004,-17,11,-8
1454,-27,-27,1006,-19,19,-1
1455,-105,-25,988,-18,14,4
1456,-118,-30,984,-17,-1,1
1457,-27,-22,990,-16,-15,-8
1458,62,-13,1014,-12,-15,-13
1459,113,-8,1008,-15,-5,-11
1460,53,-19,1000,-19,15,-6
1461,-55,-31,986,-17,20,2
1462,-114,-25,995,-18,11,2
1463,-113,-34,982,-15,-6,-2
1464,0,-8,997,-11,-20,-9
1465,97,-15,1019,-13,-17,-12
1466,96,-18,994,-14,1,-8
1467,32,-26,999,-16,16,-4
1468,-92,-27,997,-17,21,2
1469,-122,-27,988,-15,6,3
1470,-74,-30,987,-15,-11,-3
1471,26,-16,1017,-9,-20,-9
1472,111,-5,995,-12,-13,-12
1473,83,-19,1007,-15,6,-8
1474,6,-24,989,-15,18,-1
1475,-106,-23,1006,-16,17,6
1476,-114,-31,976,-21,2,7
1477,-52,-38,996,-15,-12,0
1478,44,-15,1005,-9,-20,-9
1479,107,-3,1003,-11,-10,-11
1480,69,-13,1001,-15,9,-10
1481,-19,-20,1006,-18,19,1
1482,-91,-26,990,-18,12,8
1483,-124,-35,981,-18,1,8
1484,-34,-37,988,-13,-16,-2
1485,61,-9,1018,-6,-17,-11
1486,102,-2,1005,-13,-4,-12
1487,59,-23,999,-14,13,-10
1488,-31,-22,992,-16,16,5
1489,-109,-24,997,-20,10,15
1490,-100,-46,974,-18,-5,8
1491,-19,-20,1012,-10,-14,-3
1492,70,-8,1007,-8,-15,-11
1493,94,-10,997,-12,-1,-14
1494,44,-31,1002,-18,13,-6
1495,-56,-11,999,-15,17,11
1496,-104,-32,990,-19,7,16
1497,-92,-33,997,-16,-6,11
1498,9,-24,995,-10,-16,-1
1499,74,-1,1016,-9,-12,-9
1500,79,-22,979,-16,2,-9
1501,25,-36,1013,-13,13,0
1502,-60,-4,998,-15,13,15
1503,-107,-31,987,-19,5,17
1504,-62,-35,992,-15,-10,9
1505,10,-15,1004,-11,-14,-2
1506,76,-4,995,-13,-9,-12
1507,69,-27,998,-17,5,-9
1508,10,-21,1012,-15,13,5
1509,-66,-12,991,-18,12,17
1510,-106,-33,986,-20,3,17
1511,-48,-23,989,-13,-12,5
1512,25,-3,1008,-10,-13,-8
1513,84,-10,1011,-15,-5,-17
1514,64,-27,990,-17,7,-10
1515,-12,-12,998,-15,15,2
1516,-84,-20,996,-21,12,12
1517,-103,-25,985,-20,0,10
1518,-25,-24,1004,-15,-11,-1
1519,59,-7,1008,-10,-13,-12
1520,87,-17,995,-14,-2,-15
1521,46,-27,999,-16,12,-11
1522,-54,-13,997,-15,16,4
1523,-98,-16,996,-16,8,10
1524,-86,-39,992,-18,-4,4
1525,1,-18,995,-10,-13,-6
1526,81,-3,1013,-10,-12,-14
1527,79,-14,992,-15,3,-14
1528,15,-29,1000,-18,15,-6
1529,-70,-15,1006,-16,15,6
1530,-111,-29,986,-20,6,10
1531,-60,-38,982,-15,-9,1
1532,26,-19,1010,-9,-16,-11
1533,94,1,1004,-11,-11,-14
1534,70,-12,995,-16,7,-15
1535,-5,-35,1005,-17,17,-4
1536,-87,-15,1000,-17,14,9
1537,-111,-38,971,-22,2,9
1538,-41,-26,997,-12,-13,-3
1539,51,-9,1014,-8,-15,-12
1540,98,-5,1006,-12,-5,-15
1541,58,-24,995,-17,9,-13
1542,-32,-21,1001,-15,17,-1
1543,-99,-21,991,-19,12,9
1544,-109,-37,983,-18,-2,7
1545,-15,-22,1012,-11,-15,-5
1546,73,-6,1005,-11,-13,-12
1547,93,-12,992,-14,-2,-14
1548,40,-24,1004,-18,12,-10
1549,-63,-17,994,-16,17,3
1550,-104,-17,997,-17,8,9
1551,-87,-40,991,-19,-6,2
1552,13,-23,1001,-9,-17,-10
1553,88,-2,1009,-12,-12,-13
1554,80,-16,995,-16,4,-13
1555,12,-21,1005,-15,16,-7
1556,-82,-20,1001,-17,16,2
1557,-115,-24,976,-19,5,5
1558,-62,-34,998,-16,-11,-3
1559,39,-22,1002,-10,-17,-12
1560,98,-2,1003,-12,-10,-11
1561,75,-11,1005,-18,6,-9
1562,-21,-24,1004,-18,18,-1
1563,-101,-22,991,-18,14,5
1564,-115,-36,978,-19,0,2
1565,-32,-27,993,-13,-14,-5
1566,68,-18,1018,-10,-17,-13
1567,108,-12,1000,-12,-6,-11
1568,53,-8,1006,-15,12,-7
1569,-52,-26,990,-18,20,1
1570,-114,-25,991,-19,11,7
1571,-105,-35,986,-18,-5,3
1572,-6,-30,1015,-11,-16,-8
1573,95,-11,995,-9,-15,-12
1574,107,-13,1003,-12,0,-10
1575,28,-11,1003,-15,15,-6
1576,-75,-22,992,-19,20,5
1577,-122,-31,998,-19,6,9
1578,-80,-36,984,-18,-10,4
1579,16,-29,1006,-9,-19,-9
1580,108,2,1005,-10,-16,-11
1581,81,-12,1000,-15,5,-10
1582,6,-23,1004,-13,16,-2
1583,-88,-26,997,-19,16,11
1584,-121,-35,984,-19,4,13
1585,-55,-41,985,-15,-13,4
1586,34,-18,1012,-7,-18,-9
1587,103,3,1007,-9,-9,-13
1588,72,-10,990,-16,8,-9
1589,-14,-22,1008,-19,16,6
1590,-87,-18,998,-18,13,15
1591,-112,-44,970,-21,1,12
1592,-41,-30,996,-11,-14,3
1593,52,-16,1017,-9,-17,-9
1594,98,-10,1001,-13,-4,-11
1595,57,-17,989,-15,9,-4
1596,-25,-10,1006,-16,15,10
1597,-96,-18,993,-23,11,17
1598,-104,-40,984,-21,-2,12
1599,-23,-32,1008,-14,-14,1
1600,68,-8,1008,-8,-15,-10
1601,90,-12,988,-13,-1,-13
1602,42,-20,1001,-15,13,-5
1603,-47,-8,1009,-16,16,11
1604,-100,-24,993,-22,9,15
1605,-82,-40,983,-20,-5,10
1606,-1,-33,1006,-11,-14,-3
1607,76,3,1001,-8,-11,-12
1608,73,-20,995,-16,3,-12
1609,15,-22,1009,-14,12,1
1610,-60,-15,996,-18,13,15
1611,-104,-34,988,-20,5,15
1612,-58,-31,984,-15,-9,7
1613,17,-16,1011,-9,-15,-4
1614,84,-9,998,-10,-9,-12
1615,60,-20,998,-15,7,-7
1616,2,-18,1000,-15,12,6
1617,-77,-19,1003,-18,11,17
1618,-109,-39,970,-21,0,17
1619,-41,-35,1007,-13,-13,7
1620,43,-9,1006,-7,-15,-6
1621,81,-20,1006,-13,-3,-10
1622,56,-19,988,-13,7,-2
1623,-23,-8,1010,-14,13,12
1624,-83,-13,988,-20,9,20
1625,-94,-43,994,-18,-2,15
1626,-23,-28,1004,-13,-13,4
1627,56,-12,1004,-10,-12,-7
1628,77,-28,988,-13,-2,-9
1629,43,-15,1007,-14,9,3
1630,-38,-2,999,-14,14,16
1631,-92,-21,1002,-20,9,19
1632,-77,-34,985,-19,-5,14
1633,-9,-25,997,-11,-12,2
1634,66,-16,1002,-12,-10,-9
1635,67,-23,992,-12,2,-8
1636,24,-16,1009,-15,11,6
1637,-50,-13,1007,-18,11,16
1638,-97,-24,977,-20,5,20
1639,-59,-34,997,-19,-8,13
1640,11,-27,1000,-11,-13,-1
1641,62,-16,1006,-11,-7,-7
1642,70,-20,989,-16,2,-2
1643,5,-13,1008,-12,12,10
1644,-64,-15,992,-18,11,20
1645,-96,-31,988,-22,2,21
1646,-43,-27,993,-12,-10,12
1647,27,-19,1015,-14,-12,-1
1648,71,-36,988,-14,-4,-4
1649,57,-13,1002,-11,6,3
1650,-16,-9,997,-16,12,16
1651,-70,-15,999,-17,9,24
1652,-91,-33,995,-20,-2,21
1653,-24,-30,998,-16,-10,11
1654,41,-27,1003,-10,-11,-1
1655,67,-21,989,-14,-3,1
1656,48,-11,1005,-13,7,8
1657,-31,-1,1005,-14,12,19
1658,-79,-13,1000,-20,7,25
1659,-73,-34,992,-19,-4,18
1660,-14,-33,997,-13,-9,6
1661,56,-23,993,-12,-8,-3
1662,65,-19,1000,-11,0,-3
1663,30,0,1013,-12,8,7
1664,-42,-5,998,-19,12,17
1665,-97,-21,994,-20,6,21
1666,-53,-25,978,-19,-7,11
1667,0,-19,1011,-12,-10,-3
1668,68,-14,999,-13,-7,-12
1669,65,-13,996,-16,5,-9
1670,2,-10,998,-17,12,2
1671,-65,-8,1008,-19,11,12
1672,-101,-32,982,-23,3,11
1673,-35,-28,995,-17,-9,0
1674,45,-14,1014,-12,-12,-11
1675,83,-8,996,-12,-2,-14
1676,51,-21,1000,-17,8,-10
1677,-41,-10,997,-17,16,0
1678,-96,-12,998,-21,10,8
1679,-86,-35,987,-20,-3,2
1680,0,-28,1001,-14,-13,-11
1681,77,-6,1003,-13,-12,-15
1682,84,-12,998,-16,2,-11
1683,17,-18,1001,-19,16,-8
1684,-75,-13,997,-18,18,-1
1685,-114,-16,999,-18,8,-2
1686,-64,-32,982,-18,-7,-9
1687,28,-24,1005,-13,-15,-15
1688,106,-12,1003,-13,-11,-12
1689,72,-17,997,-13,3,-11
1690,-12,-21,1008,-9,14,-9
1691,-103,-27,988,-19,15,-4
1692,-108,-18,982,-13,2,-8
1693,-42,-19,990,-18,-11,-12
1694,54,-10,1012,-14,-18,-15
1695,112,-20,1009,-17,-6,-12
1696,60,-24,999,-20,10,-7
1697,-49,-32,990,-19,20,-1
1698,-110,-31,992,-16,13,-6
1699,-111,-19,983,-16,-3,-8
1700,-13,-8,1007,-12,-16,-13
1701,89,-9,1009,-16,-18,-13
1702,103,-19,999,-19,-2,-10
1703,38,-29,1002,-18,15,-4
1704,-81,-34,987,-19,20,-1
1705,-126,-20,989,-15,7,-5
1706,-83,-26,1003,-14,-10,-10
1707,25,-16,996,-14,-18,-13
1708,109,-10,1014,-13,-14,-12
1709,95,-15,997,-17,4,-6
1710,-1,-27,1003,-18,21,0
1711,-109,-32,986,-19,18,0
1712,-133,-33,1000,-17,2,-3
1713,-45,-22,980,-11,-15,-11
1714,56,-11,1019,-11,-20,-12
1715,129,-1,998,-14,-11,-9
1716,71,-19,1009,-18,12,-3
1717,-40,-30,1001,-18,22,3
1718,-126,-38,988,-16,15,-1
1719,-122,-34,973,-12,-3,-6
1720,-16,-11,1002,-11,-19,-12
1721,95,-10,1004,-11,-20,-14
1722,121,-3,1021,-13,-3,-8
1723,52,-18,996,-18,16,-2
1724,-79,-30,987,-19,24,3
1725,-133,-36,989,-17,10,-1
1726,-109,-25,983,-12,-8,-8
1727,19,-16,1011,-10,-23,-14
1728,115,-6,1009,-14,-16,-12
1729,114,-12,1004,-15,6,-7
1730,21,-21,1003,-18,20,1
1731,-113,-30,987,-18,23,2
1732,-139,-23,986,-17,6,-4
1733,-79,-27,998,-16,-14,-11
1734,50,-8,1006,-11,-25,-14
1735,127,-14,1005,-15,-13,-10
1736,94,-13,1005,-16,8,-4
1737,-16,-26,996,-18,23,3
1738,-129,-26,989,-17,19,1
1739,-136,-26,983,-15,1,-4
1740,-44,-18,1000,-11,-18,-11
1741,73,-11,1001,-14,-22,-14
1742,127,-12,1009,-15,-7,-10
1743,73,-22,1000,-18,12,-2
1744,-54,-28,1002,-19,24,3
1745,-135,-36,981,-18,14,1
1746,-129,-22,980,-14,-5,-5
1747,-6,-16,998,-12,-22,-12
1748,92,-10,1013,-12,-20,-12
1749,135,-15,1014,-14,-3,-7
1750,41,-19,996,-17,19,0
1751,-81,-33,995,-18,23,4
1752,-134,-30,977,-17,11,0
1753,-117,-26,990,-13,-9,-6
1754,25,-6,1012,-10,-24,-13
1755,125,-13,1009,-13,-16,-12
1756,111,-18,1000,-15,3,-5
1757,16,-27,1002,-18,21,2
1758,-114,-28,986,-16,23,3
1759,-146,-26,986,-14,5,-2
1760,-75,-17,997,-14,-15,-10
1761,54,-16,1005,-12,-22,-12
1762,131,-13,1007,-12,-14,-10
1763,94,-12,999,-16,9,-3
1764,-17,-19,1013,-16,23,3
1765,-127,-30,971,-18,20,2
1766,-140,-31,1002,-15,2,-4
1767,-37,-26,984,-12,-18,-11
1768,70,-10,1013,-11,-20,-14
1769,143,-14,998,-14,-9,-10
1770,65,-3,1014,-15,14,-2
1771,-41,-24,989,-19,25,2
1772,-143,-31,998,-18,16,1
1773,-120,-24,964,-17,-6,-6
1774,-13,-26,1009,-15,-20,-13
1775,100,-13,1004,-13,-21,-15
1776,124,-10,1021,-14,-1,-7
1777,52,-18,994,-18,16,-1
1778,-90,-19,989,-19,24,3
1779,-136,-36,985,-18,10,-4
1780,-112,-27,987,-15,-10,-9
1781,24,-12,1010,-12,-23,-15
1782,120,-15,1013,-15,-17,-12
1783,115,-13,993,-16,4,-6
1784,12,-28,1007,-19,21,1
1785,-112,-22,984,-19,22,2
1786,-151,-33,987,-16,7,-3
1787,-67,-19,999,-14,-15,-11
1788,53,-16,1006,-11,-22,-13
1789,137,-11,1000,-14,-12,-11
1790,91,-21,1012,-15,9,-4
1791,-26,-22,994,-16,23,3
1792,-130,-36,987,-17,18,-1
1793,-132,-22,986,-16,1,-5
1794,-41,-15,996,-14,-19,-11
1795,87,-13,1003,-12,-21,-14
1796,137,-14,1013,-14,-6,-8
1797,66,-14,1002,-18,15,-1
1798,-51,-32,1005,-19,25,2
1799,-142,-33,982,-16,16,1
1800,-123,-26,976,-14,-4,-6
1801,0,-12,1006,-10,-23,-14
1802,103,-9,1011,-12,-20,-13
1803,131,-13,1017,-15,-2,-8
1804,40,-18,991,-19,18,-1
1805,-91,-32,992,-17,26,3
1806,-142,-27,979,-17,11,-2
1807,-115,-28,993,-13,-8,-7
1808,35,-7,1010,-11,-24,-15
1809,125,-15,1013,-13,-16,-13
1810,117,-11,997,-14,5,-5
1811,2,-27,1006,-17,22,2
1812,-117,-24,983,-18,21,1
1813,-150,-27,989,-16,5,-2
1814,-62,-26,991,-13,-16,-12
1815,56,-17,1010,-11,-22,-13
1816,138,-6,998,-13,-13,-10
1817,83,-15,1010,-17,11,-4
1818,-25,-30,996,-17,23,2
1819,-139,-26,987,-19,19,2
1820,-133,-30,979,-15,-2,-6
1821,-26,-18,1004,-12,-21,-12
1822,84,-17,1002,-14,-23,-14
1823,135,0,1014,-12,-6,-8
1824,66,-26,998,-19,16,-2
1825,-67,-28,998,-18,25,2
1826,-139,-31,980,-17,14,0
1827,-120,-29,985,-13,-6,-10
1828,8,-9,997,-11,-23,-13
1829,105,-7,1018,-14,-17,-13
1830,132,-11,1011,-17,1,-8
1831,25,-20,998,-19,20,0
1832,-88,-30,981,-19,23,0
1833,-142,-38,987,-17,9,-4
1834,-97,-20,989,-13,-11,-9
1835,38,-12,1010,-12,-22,-14
1836,130,-7,1013,-12,-16,-12
1837,103,-12,993,-16,5,-4
1838,-1,-32,1000,-19,22,-1
1839,-121,-23,993,-18,21,1
1840,-141,-28,978,-16,4,-4
1841,-58,-23,1004,-14,-17,-12
1842,65,-15,995,-13,-22,-14
1843,132,-7,1013,-13,-10,-10
1844,86,-14,1001,-18,11,-3
1845,-40,-29,1004,-18,25,3
1846,-129,-33,984,-17,17,1
1847,-132,-32,981,-14,0,-6
1848,-31,-15,1002,-12,-20,-12
1849,90,-10,1004,-11,-21,-15
1850,129,-6,1015,-13,-4,-8
1851,57,-19,995,-18,15,-1
1852,-64,-27,1004,-19,24,2
1853,-143,-41,978,-17,13,0
1854,-125,-22,981,-13,-7,-8
1855,18,-13,1003,-12,-25,-14
1856,108,-9,1018,-12,-18,-12
1857,129,-11,1008,-17,0,-5
1858,21,-23,998,-18,19,1
1859,-101,-30,987,-19,22,3
1860,-146,-34,980,-17,7,-2
1861,-86,-20,997,-12,-13,-10
1862,42,-12,1015,-14,-24,-13
1863,136,-11,1001,-11,-15,-12
1864,102,-20,1005,-15,7,-2
1865,-2,-24,996,-17,21,1
1866,-127,-30,986,-16,21,2
1867,-143,-20,992,-15,3,-4
1868,-50,-21,996,-14,-17,-12
1869,63,-8,1006,-11,-22,-14
1870,147,-14,1005,-16,-11,-9
1871,68,-14,1008,-18,13,-1
1872,-41,-34,997,-19,23,3
1873,-136,-28,988,-15,18,-1
1874,-130,-24,981,-13,-2,-4
1875,-19,-11,1001,-12,-20,-12
1876,90,-15,999,-14,-20,-14
1877,128,-6,1019,-15,-4,-6
1878,56,-22,995,-18,17,-1
1879,-74,-29,997,-18,24,1
1880,-138,-38,984,-17,12,-1
1881,-115,-26,981,-15,-9,-8
1882,15,-8,1002,-12,-21,-13
1883,106,-7,1017,-13,-17,-12
1884,128,-20,1006,-16,2,-6
1885,19,-19,997,-18,20,-1
1886,-100,-29,987,-19,23,1
1887,-148,-32,987,-16,7,-4
1888,-87,-20,984,-14,-12,-10
1889,46,-6,1025,-12,-23,-16
1890,129,-14,1002,-16,-13,-11
1891,98,-9,995,-15,9,-5
1892,-9,-33,1006,-20,23,0
1893,-129,-28,984,-17,20,2
1894,-140,-27,985,-15,2,-5
1895,-46,-17,1006,-13,-18,-13
1896,69,-16,998,-14,-22,-13
1897,138,-11,1004,-15,-9,-10
1898,65,-15,1010,-18,13,-1
1899,-45,-26,993,-19,24,0
1900,-130,-41,992,-19,16,-1
1901,-133,-20,977,-13,-4,-5
1902,-3,-20,999,-12,-22,-14
1903,92,-14,1007,-13,-20,-14
1904,123,-11,1008,-15,-3,-6
1905,48,-19,1003,-18,17,-3
1906,-77,-29,998,-20,24,4
1907,-140,-32,975,-16,10,-2
1908,-113,-27,991,-15,-9,-9
1909,21,-17,1001,-10,-24,-12
1910,113,-11,1012,-12,-17,-12
1911,126,-17,1011,-13,2,-5
1912,18,-20,996,-15,21,2
1913,-110,-22,980,-18,22,3
1914,-143,-25,990,-16,4,-3
1915,-86,-23,992,-13,-14,-8
1916,47,-7,1012,-14,-24,-12
1917,139,-18,1009,-13,-14,-11
1918,100,-19,1000,-15,8,-2
1919,-19,-27,992,-17,23,2
1920,-127,-24,993,-15,19,0
1921,-138,-25,990,-15,1,-3
1922,-52,-18,997,-13,-18,-11
1923,83,-15,1001,-12,-22,-15
1924,129,-14,1017,-14,-7,-9
1925,72,-17,988,-17,13,-1
1926,-47,-25,1017,-17,24,2
1927,-137,-38,975,-18,16,0
1928,-127,-16,983,-12,-3,-6
1929,-5,-24,1000,-12,-23,-12
1930,87,-10,1010,-11,-20,-12
1931,130,-7,1005,-15,-4,-8
1932,45,-24,1008,-18,17,-1
1933,-72,-27,983,-18,23,2
1934,-141,-31,992,-17,11,-2
1935,-111,-20,981,-16,-8,-8
1936,18,-14,1003,-13,-22,-13
1937,119,-15,1016,-12,-17,-13
1938,114,-25,1003,-17,4,-4
1939,22,-19,996,-16,20,1
1940,-104,-34,991,-18,23,2
1941,-141,-18,978,-14,6,-3
1942,-90,-18,1001,-15,-13,-9
1943,55,-12,1010,-14,-23,-14
1944,123,-13,1010,-14,-13,-10
1945,100,-18,993,-17,7,-5
1946,-12,-30,1009,-18,23,1
1947,-128,-28,977,-18,19,1
1948,-142,-24,995,-15,1,-3
1949,-38,-18,999,-14,-18,-12
1950,70,-17,1002,-15,-22,-11
1951,140,-7,1002,-16,-10,-10
1952,65,-21,1014,-17,14,-3
1953,-49,-26,992,-17,25,1
1954,-140,-37,989,-18,16,-1
1955,-124,-17,984,-13,-4,-7
1956,-5,-21,995,-14,-21,-13
1957,98,-7,1008,-12,-20,-12
1958,125,-12,1017,-16,-2,-6
1959,51,-27,991,-19,17,-2
1960,-85,-34,995,-17,25,4
1961,-133,-25,984,-17,9,-3
1962,-110,-28,985,-15,-9,-10
1963,29,-1,1005,-10,-24,-12
1964,111,-15,1018,-15,-14,-11
1965,121,-16,1000,-15,4,-7
1966,5,-24,1004,-19,21,2
1967,-104,-28,981,-19,21,1
1968,-145,-28,990,-15,6,-1
1969,-77,-23,995,-14,-15,-10
1970,53,-14,1012,-12,-24,-13
1971,136,-17,1007,-12,-13,-10
1972,92,-16,1000,-16,10,-3
1973,-15,-28,1003,-18,22,1
1974,-135,-22,980,-18,19,1
1975,-136,-24,994,-15,1,-5
1976,-38,-17,998,-13,-20,-12
1977,77,-15,1003,-13,-23,-13
1978,134,-14,1006,-13,-8,-10
1979,62,-16,1007,-19,14,-1
1980,-43,-30,997,-19,25,1
1981,-145,-31,987,-17,16,1
1982,-121,-21,977,-14,-6,-7
1983,-5,-16,1003,-15,-22,-13
1984,93,-11,1004,-14,-20,-12
1985,127,-16,1014,-17,-2,-7
1986,48,-25,1001,-18,17,-1
1987,-88,-25,984,-18,24,4
1988,-133,-24,987,-16,9,-4
1989,-109,-23,993,-16,-9,-9
1990,29,-1,994,-12,-23,-12
1991,113,-23,1024,-16,-15,-13
1992,117,-15,999,-18,4,-6
1993,12,-30,997,-19,22,2
1994,-108,-32,985,-19,22,0
1995,-148,-29,989,-14,6,-2
1996,-67,-18,996,-12,-16,-12
1997,52,-8,1013,-12,-22,-13
1998,134,-4,1007,-14,-12,-10
1999,86,-29,1003,-17,10,-4
2000,-23,-24,991,-17,22,2
2001,-132,-36,990,-17,18,1
2002,-130,-26,990,-15,-1,-5
2003,-34,-17,996,-13,-19,-12
2004,73,-10,1005,-11,-21,-14
2005,142,-16,1009,-15,-7,-10
2006,54,-17,1001,-16,16,-1
2007,-56,-27,1002,-18,23,2
2008,-135,-36,988,-17,14,-1
2009,-121,-24,974,-12,-5,-6
2010,-2,-9,1004,-12,-22,-13
2011,101,-12,1014,-13,-19,-14
2012,119,-14,1008,-15,-1,-6
2013,39,-20,1004,-17,17,0
2014,-87,-37,985,-18,24,1
2015,-138,-27,986,-16,9,-2
2016,-110,-21,980,-13,-10,-7
2017,33,-2,1015,-12,-24,-14
2018,121,-17,1011,-15,-16,-11
2019,109,-17,1001,-15,5,-5
2020,9,-29,1005,-16,22,1
2021,-119,-25,979,-18,22,3
2022,-145,-29,989,-14,4,-4
2023,-65,-16,999,-11,-16,-12
2024,55,-13,1012,-14,-21,-13
2025,136,-9,1003,-13,-12,-10
2026,89,-31,1006,-19,10,-2
2027,-27,-26,994,-18,23,2
2028,-141,-29,983,-15,18,1
2029,-127,-25,998,-15,-2,-8
2030,-37,-20,988,-10,-19,-12
2031,88,-6,1008,-3,-27,-18
2032,131,-16,1009,-15,-7,-9
2033,58,-19,994,-17,15,-1
2034,-57,-29,1006,-18,23,2
2035,-135,-37,990,-17,13,-1
2036,-123,-16,971,-12,-6,-6
2037,7,-20,1006,-13,-23,-14
2038,101,-7,1010,-13,-19,-12
2039,126,-18,1008,-16,-3,-8
2040,40,-22,1004,-17,17,0
2041,-85,-34,981,-18,24,4
2042,-143,-30,987,-13,11,-2
2043,-100,-13,989,-12,-10,-9
2044,28,-9,1011,-11,-22,-13
2045,124,-4,1011,-13,-16,-12
2046,111,-26,1007,-17,5,-4
2047,8,-24,996,-17,22,1
2048,-112,-34,979,-18,22,2
2049,-146,-24,994,-14,5,-5
2050,-67,-24,994,-14,-16,-10
2051,56,-8,1007,-12,-22,-14
2052,132,-11,1011,-14,-12,-11
2053,84,-21,1000,-16,11,-4
2054,-27,-24,994,-19,24,2
2055,-140,-33,989,-18,18,1
2056,-129,-22,990,-13,-1,-7
2057,-29,-18,994,-12,-19,-11
2058,82,-4,1009,-11,-21,-14
2059,134,-16,1003,-16,-6,-9
2060,58,-18,1007,-18,16,-2
2061,-67,-36,990,-20,24,3
2062,-134,-25,992,-15,13,-3
2063,-123,-38,976,-15,-6,-5
2064,1,-4,998,-11,-22,-15
2065,112,-11,1016,-14,-19,-14
2066,124,-8,1009,-16,1,-7
2067,34,-22,995,-20,19,1
2068,-97,-36,991,-19,23,2
2069,-141,-34,979,-16,8,-3
2070,-98,-24,989,-13,-12,-10
2071,37,-2,1016,-10,-24,-14
2072,131,-13,1005,-16,-14,-12
2073,108,-24,1005,-16,7,-5
2074,-1,-18,999,-17,21,1
2075,-121,-31,982,-19,20,1
2076,-141,-25,987,-13,4,-3
2077,-64,-18,1000,-15,-16,-11
2078,67,-17,1008,-13,-24,-15
2079,131,-9,1006,-12,-11,-9
2080,89,-23,1000,-18,11,-3
2081,-40,-37,998,-18,24,3
2082,-130,-19,985,-15,17,2
2083,-136,-24,992,-15,-2,-6
2084,-20,-12,995,-11,-21,-12
2085,83,-9,1010,-13,-21,-12
2086,138,-9,1002,-17,-6,-7
2087,51,-22,1006,-17,16,0
2088,-60,-27,997,-18,24,2
2089,-146,-33,984,-18,14,-1
2090,-112,-24,980,-13,-7,-8
2091,1,-12,1004,-12,-22,-12
2092,106,-14,1009,-11,-18,-13
2093,125,-14,1016,-15,1,-5
2094,30,-17,996,-18,18,0
2095,-86,-29,983,-17,23,1
2096,-144,-32,991,-16,10,-2
2097,-100,-15,982,-13,-12,-9
2098,36,-12,1013,-11,-23,-13
2099,127,-16,1014,-14,-16,-11
2100,112,-21,993,-17,6,-4
2101,3,-27,1009,-16,22,1
2102,-124,-27,979,-17,22,3
2103,-143,-24,988,-15,5,-4
2104,-62,-22,1000,-13,-17,-11
2105,65,-7,1005,-12,-23,-12
2106,139,-11,1007,-14,-11,-10
2107,81,-21,1001,-18,11,-2
2108,-35,-27,998,-19,23,3
2109,-139,-37,986,-16,18,2
2110,-137,-25,990,-14,-2,-6
2111,-22,-16,989,-13,-20,-13
2112,93,-9,1017,-12,-22,-13
2113,131,-8,994,-17,-5,-8
2114,54,-17,1010,-20,16,-3
2115,-66,-37,997,-18,24,2
2116,-142,-29,981,-17,14,-1
2117,-113,-32,987,-12,-7,-7
2118,12,-1,993,-11,-23,-12
2119,105,-20,1015,-15,-17,-12
2120,123,-1,1017,-14,1,-6
2121,28,-37,992,-21,19,1
2122,-95,-20,987,-16,23,2
2123,-139,-43,987,-19,8,-1
2124,-94,-17,985,-11,-11,-11
2125,36,-9,1016,-11,-23,-12
2126,130,-13,1007,-13,-15,-11
2127,106,-18,1004,-16,7,-4
2128,-6,-25,999,-18,21,1
2129,-124,-29,981,-18,23,1
2130,-141,-23,993,-13,3,-5
2131,-60,-22,995,-14,-16,-11
2132,69,-17,1008,-13,-23,-14
2133,133,-8,1009,-12,-10,-9
2134,83,-27,995,-17,12,-1
2135,-36,-20,1003,-16,25,4
2136,-141,-32,981,-20,18,2
2137,-125,-21,986,-16,-2,-7
2138,-25,-18,1002,-13,-20,-10
2139,88,-12,1000,-13,-22,-14
2140,135,-16,1009,-15,-4,-10
2141,53,-22,1005,-17,15,-1
2142,-67,-26,991,-19,24,1
2143,-138,-31,992,-16,14,-2
2144,-115,-20,974,-14,-7,-6
2145,8,-11,1006,-11,-23,-13
2146,109,-13,1011,-12,-19,-13
2147,122,-16,1014,-15,2,-6
2148,33,-27,993,-19,19,0
2149,-100,-26,988,-16,22,1
2150,-136,-35,986,-16,9,-4
2151,-98,-23,988,-11,-10,-9
2152,36,0,1017,-11,-23,-13
2153,131,-15,1008,-16,-14,-12
2154,98,-17,998,-16,7,-4
2155,5,-26,999,-18,21,-1
2156,-127,-31,988,-18,22,2
2157,-141,-26,988,-15,4,-3
2158,-58,-23,1000,-13,-16,-12
2159,65,-9,1006,-11,-22,-12
2160,131,-7,1006,-13,-10,-9
2161,86,-19,999,-17,12,-4
2162,-40,-32,1008,-19,23,3
2163,-136,-27,976,-16,17,0
2164,-132,-30,990,-14,-1,-7
2165,-12,-11,1004,-12,-20,-12
2166,82,-17,1000,-15,-19,-12
2167,135,-6,1009,-14,-6,-9
2168,55,-19,1010,-19,16,0
2169,-65,-27,986,-19,25,1
2170,-135,-31,994,-17,13,0
2171,-116,-21,974,-15,-7,-8
2172,0,-18,1001,-12,-21,-13
2173,114,-14,1010,-11,-20,-14
2174,116,-11,1016,-16,1,-6
2175,33,-19,989,-20,18,-1
2176,-98,-22,993,-19,23,2
2177,-138,-38,984,-18,8,-4
2178,-98,-23,992,-12,-11,-8
2179,37,-14,1012,-13,-23,-15
2180,123,-16,1008,-12,-14,-11
2181,108,-13,998,-16,7,-4
2182,-6,-29,1001,-19,23,3
2183,-119,-24,984,-18,22,1
2184,-146,-31,990,-17,4,-4
2185,-53,-14,992,-14,-17,-12
2186,62,-18,1013,-13,-22,-13
2187,135,-5,1002,-13,-11,-10
2188,82,-20,1002,-18,12,-3
2189,-36,-28,996,-18,23,2
2190,-135,-32,984,-17,16,0
2191,-128,-27,983,-14,-2,-7
2192,-27,-18,1002,-11,-19,-11
2193,91,-4,1004,-12,-22,-15
2194,129,-18,1010,-17,-4,-8
2195,56,-16,999,-18,16,-1
2196,-65,-31,1000,-20,24,2
2197,-145,-38,979,-16,13,0
2198,-112,-21,984,-13,-7,-7
2199,11,-11,1002,-12,-22,-13
2200,104,-8,1011,-14,-17,-12
2201,126,-14,1018,-15,1,-6
2202,29,-27,992,-19,21,0
2203,-103,-28,989,-18,23,3
2204,-137,-38,986,-17,5,-4
2205,-93,-27,991,-14,-12,-9
2206,44,-2,1013,-11,-23,-13
2207,130,-15,1012,-12,-14,-12
2208,99,-10,994,-16,7,-3
2209,-8,-23,1005,-19,22,0
2210,-127,-30,984,-18,21,0
2211,-141,-33,987,-15,1,-3
2212,-50,-26,999,-13,-18,-12
2213,67,-18,1002,-12,-22,-13
2214,139,-9,1014,-13,-10,-10
2215,72,-14,993,-18,14,-3
2216,-40,-22,1008,-17,24,1
2217,-137,-28,982,-17,17,1
2218,-134,-21,985,-16,-2,-6
2219,-10,-17,1000,-14,-21,-13
2220,88,-16,1007,-15,-19,-13
2221,137,-12,1010,-16,-3,-8
2222,49,-23,1002,-19,18,-1
2223,-74,-28,998,-19,25,2
2224,-137,-33,980,-16,12,-2
2225,-116,-27,984,-13,-7,-8
2226,16,-2,1004,-11,-24,-14
2227,113,-15,1014,-14,-18,-13
2228,119,-16,1009,-16,2,-7
2229,20,-24,996,-19,20,-1
2230,-102,-37,989,-18,23,1
2231,-135,-31,978,-15,8,-3
2232,-99,-21,997,-14,-14,-9
2233,58,-7,1013,-13,-25,-15
2234,124,-18,1010,-14,-13,-12
2235,97,-10,990,-15,7,-4
2236,-3,-36,1010,-19,22,0
2237,-126,-21,977,-16,20,2
2238,-144,-27,991,-15,2,-3
2239,-36,-13,1003,-12,-18,-13
2240,60,-21,998,-14,-20,-13
2241,139,-6,1006,-14,-10,-10
2242,69,-24,1006,-17,14,-2
2243,-49,-25,994,-18,24,2
2244,-131,-32,990,-18,15,2
2245,-130,-28,983,-13,-3,-6
2246,-13,-14,993,-12,-23,-12
2247,91,-13,1010,-13,-22,-13
2248,126,-12,1006,-14,-4,-7
2249,46,-20,1006,-18,17,-1
2250,-68,-29,993,-18,23,3
2251,-140,-32,985,-14,11,-1
2252,-110,-20,982,-12,-9,-8
2253,15,-6,1003,-12,-22,-12
2254,112,-12,1015,-14,-15,-11
2255,116,-19,1008,-16,4,-5
2256,21,-22,1000,-17,19,0
2257,-103,-34,984,-17,23,1
2258,-141,-22,983,-15,7,-4
2259,-81,-21,999,-14,-13,-10
2260,42,-7,1013,-13,-22,-14
2261,130,-14,1005,-15,-13,-11
2262,97,-17,994,-18,9,-4
2263,-18,-35,1009,-20,23,2
2264,-122,-24,978,-17,19,1
2265,-142,-27,994,-15,1,-4
2266,-42,-16,999,-13,-18,-13
2267,77,-13,1001,-11,-20,-13
2268,131,-10,1005,-16,-7,-8
2269,74,-15,1006,-15,13,-3
2270,-55,-36,1000,-18,24,1
2271,-134,-26,983,-16,15,-1
2272,-131,-29,985,-14,-5,-6
2273,0,-13,997,-10,-22,-13
2274,95,-14,1009,-13,-20,-13
2275,127,-9,1009,-14,-2,-8
2276,45,-26,1006,-18,17,-1
2277,-83,-32,985,-18,25,3
2278,-140,-34,990,-14,10,-2
2279,-103,-16,977,-12,-10,-9
2280,17,-9,1005,-13,-22,-14
2281,124,-6,1014,-14,-16,-13
2282,110,-17,1010,-17,4,-5
2283,16,-31,995,-18,20,1
2284,-116,-29,986,-17,22,2
2285,-139,-33,982,-14,5,-5
2286,-79,-20,1001,-12,-14,-8
2287,52,-4,1015,-12,-24,-14
2288,130,-12,1006,-15,-12,-10
2289,98,-15,998,-16,9,-5
2290,-18,-20,1003,-20,23,2
2291,-129,-35,975,-19,20,1
2292,-139,-23,999,-15,1,-4
2293,-32,-25,995,-13,-19,-13
2294,69,-19,999,-12,-21,-14
2295,135,-9,1012,-13,-8,-9
2296,63,-20,998,-17,13,-3
2297,-50,-20,999,-17,23,1
2298,-138,-31,989,-17,14,-1
2299,-119,-25,977,-15,-4,-6
2300,-6,-12,1002,-14,-21,-11
2301,95,-17,1008,-14,-18,-14
2302,122,-19,1011,-14,-1,-6
2303,39,-18,998,-19,18,0
2304,-79,-34,990,-19,24,1
2305,-135,-31,983,-16,11,-2
2306,-107,-10,987,-14,-10,-7
2307,29,-12,1001,-13,-22,-14
2308,114,-19,1023,-14,-16,-12
2309,112,-23,993,-18,5,-5
2310,2,-23,1005,-16,21,1
2311,-104,-30,979,-17,21,2
2312,-141,-26,986,-13,6,-3
2313,-71,-18,997,-13,-15,-11
2314,53,-3,1015,-13,-22,-14
2315,129,-15,1005,-13,-12,-10
2316,88,-19,1000,-16,9,-4
2317,-23,-31,998,-20,22,2
2318,-128,-29,986,-16,19,2
2319,-133,-26,990,-16,0,-4
2320,-32,-14,997,-13,-20,-13
2321,80,-12,1010,-12,-22,-13
2322,127,-3,998,-17,-7,-7
2323,67,-26,1009,-18,14,-4
2324,-58,-31,996,-19,23,3
2325,-142,-25,988,-17,14,1
2326,-106,-32,972,-14,-6,-9
2327,-11,-5,1011,-11,-21,-12
2328,108,-8,996,-15,-20,-14
2329,119,-20,1020,-15,0,-6
2330,39,-18,996,-17,18,0
2331,-86,-38,986,-18,24,0
2332,-139,-33,989,-16,10,-2
2333,-101,-21,982,-14,-10,-9
2334,36,-6,1007,-11,-23,-16
2335,122,-10,1021,-13,-15,-11
2336,106,-22,991,-17,8,-5
2337,3,-28,1005,-19,21,1
2338,-118,-28,981,-18,20,2
2339,-135,-29,990,-14,4,-5
2340,-63,-19,998,-13,-16,-10
2341,58,-7,1009,-13,-22,-14
2342,135,-13,1007,-14,-11,-11
2343,76,-13,998,-17,10,-3
2344,-27,-24,1000,-18,23,1
2345,-135,-38,986,-17,17,1
2346,-129,-22,983,-13,0,-6
2347,-25,-24,1010,-12,-20,-12
2348,88,-11,992,-14,-22,-13
2349,126,-12,1016,-13,-5,-8
2350,60,-14,996,-17,15,-2
2351,-68,-29,1010,-17,25,4
2352,-134,-32,972,-17,13,0
2353,-117,-23,990,-14,-8,-7
2354,15,-13,993,-12,-24,-14
2355,93,-13,1011,-13,-16,-13
2356,128,-9,1018,-15,-1,-7
2357,27,-29,995,-19,20,0
2358,-89,-20,981,-19,22,3
2359,-139,-32,996,-18,9,-2
2360,-93,-23,975,-13,-11,-10
2361,32,-11,1017,-13,-22,-12
2362,126,-12,1013,-13,-16,-12
2363,108,-21,998,-16,5,-4
2364,0,-20,1004,-17,22,0
2365,-120,-26,980,-17,20,3
2366,-140,-34,990,-13,1,-7
2367,-60,-20,995,-15,-17,-13
2368,62,-12,1012,-10,-21,-14
2369,138,-15,1001,-17,-11,-12
2370,81,-18,1008,-14,11,-2
2371,-34,-19,992,-19,22,1
2372,-139,-26,993,-17,17,0
2373,-129,-23,985,-15,-1,-5
2374,-25,-21,997,-16,-20,-11
2375,85,-16,1006,-12,-22,-14
2376,135,-11,1007,-14,-6,-9
2377,55,-24,1005,-17,18,-2
2378,-69,-25,998,-18,25,2
2379,-141,-35,985,-17,13,-1
2380,-119,-14,984,-13,-8,-8
2381,13,-17,997,-14,-22,-12
2382,109,-10,1016,-14,-18,-13
2383,117,-20,1011,-16,2,-6
2384,26,-27,992,-18,20,-1
2385,-97,-30,991,-17,23,1
2386,-139,-33,982,-16,7,-2
2387,-95,-15,990,-14,-12,-10
2388,41,-6,1014,-12,-23,-14
2389,133,-16,1014,-15,-14,-11
2390,96,-23,990,-18,8,-3
2391,-6,-26,1003,-19,22,1
2392,-123,-31,979,-18,20,2
2393,-142,-20,989,-14,2,-4
2394,-48,-22,1002,-13,-19,-12
2395,70,-12,1008,-12,-22,-13
2396,133,-17,1004,-13,-11,-8
2397,77,-16,1004,-16,11,-1
2398,-44,-20,997,-18,23,3
2399,-126,-28,986,-18,15,0
2400,-131,-18,989,-15,-3,-5
2401,-19,-23,997,-13,-21,-12
2402,94,-18,1006,-13,-19,-13
2403,129,-21,1008,-14,-3,-8
2404,40,-12,1002,-16,17,-2
2405,-62,-28,1000,-19,23,1
2406,-139,-25,979,-16,13,-1
2407,-111,-20,988,-15,-8,-9
2408,15,-16,992,-13,-23,-13
2409,106,-26,1018,-13,-18,-13
2410,121,-17,1006,-15,1,-5
2411,26,-24,1006,-16,20,-1
2412,-95,-27,979,-18,22,3
2413,-145,-24,988,-16,8,-3
2414,-88,-16,992,-12,-12,-9
2415,38,-7,1010,-13,-23,-12
2416,135,-13,1010,-15,-16,-12
2417,96,-29,1002,-16,7,-3
2418,-4,-27,995,-17,21,1
2419,-130,-30,983,-17,21,0
2420,-138,-21,993,-13,2,-4
2421,-47,-23,995,-12,-17,-11
2422,71,-9,1004,-11,-21,-13
2423,135,-13,1010,-14,-9,-10
2424,79,-16,1000,-16,13,-3
2425,-48,-31,1000,-19,24,3
2426,-132,-26,985,-16,16,0
2427,-128,-31,986,-14,-3,-6
2428,-13,-15,998,-9,-22,-12
2429,90,-5,1005,-13,-20,-13
2430,138,-11,1013,-15,-4,-8
2431,46,-13,1002,-16,17,0
2432,-76,-33,991,-19,24,1
2433,-140,-34,989,-15,12,-1
2434,-121,-27,974,-14,-10,-7
2435,19,-13,1013,-9,-25,-15
2436,112,-16,1004,-13,-17,-12
2437,125,-6,1017,-14,0,-6
2438,26,-29,995,-17,20,1
2439,-112,-24,985,-17,23,2
2440,-137,-34,981,-16,5,-4
2441,-95,-18,1000,-13,-13,-9
2442,45,-20,1008,-14,-23,-12
2443,130,-12,1010,-11,-15,-9
2444,98,-14,1002,-16,7,-3
2445,1,-20,997,-16,21,0
2446,-123,-24,986,-17,20,2
2447,-141,-27,994,-16,3,-4
2448,-54,-25,997,-13,-16,-10
2449,69,-23,998,-12,-22,-12
2450,131,-12,1013,-13,-9,-8
2451,78,-12,1000,-16,12,-2
2452,-34,-13,1001,-16,23,2
2453,-135,-28,988,-18,17,1
2454,-124,-22,978,-16,-2,-6
2455,-14,-29,1002,-13,-20,-12
2456,78,-16,999,-12,-20,-13
2457,133,-17,1017,-14,-5,-9
2458,52,-7,1001,-16,18,-1
2459,-69,-24,994,-20,25,3
2460,-134,-34,986,-18,13,-1
2461,-116,-26,984,-15,-6,-8
2462,13,-21,998,-12,-22,-13
2463,108,-9,1014,-12,-16,-13
2464,120,-15,1013,-14,1,-7
2465,28,-15,994,-16,19,-1
2466,-105,-22,988,-18,23,3
2467,-142,-28,986,-16,7,-4
2468,-92,-27,991,-13,-12,-9
2469,45,-14,1013,-13,-23,-14
2470,135,-15,1009,-14,-14,-12
2471,101,-16,997,-14,7,-3
2472,-18,-18,1002,-19,22,1
2473,-125,-28,977,-20,20,1
2474,-143,-23,999,-14,2,-5
2475,-46,-22,990,-15,-18,-10
2476,70,-20,1012,-11,-22,-13
2477,140,-13,1003,-14,-10,-10
2478,70,-20,1001,-17,15,-2
2479,-48,-21,1000,-17,24,2
2480,-136,-30,991,-20,16,0
2481,-125,-20,973,-15,-4,-6
2482,-11,-24,1003,-13,-21,-13
2483,94,-17,1007,-12,-21,-15
2484,137,-12,1007,-14,-2,-8
2485,46,-14,1010,-17,20,-1
2486,-75,-25,986,-19,25,3
2487,-143,-28,989,-15,12,-2
2488,-114,-32,980,-15,-9,-7
2489,20,-8,1002,-11,-23,-12
2490,123,-19,1016,-13,-18,-13
2491,116,-15,1009,-15,3,-4
2492,23,-24,993,-19,20,1
2493,-114,-24,990,-17,23,2
2494,-144,-33,978,-16,5,-3
2495,-85,-23,997,-13,-14,-11
2496,60,-10,1018,-11,-24,-13
2497,132,-9,1003,-13,-13,-10
2498,103,-14,999,-16,9,-4
2499,-19,-28,1006,-19,24,2
2500,-136,-26,972,-18,19,3
2501,-138,-35,998,-16,0,-5
2502,-43,-19,994,-11,-19,-12
2503,80,-8,1007,-10,-21,-13
2504,140,-10,1008,-13,-7,-9
2505,67,-12,1003,-18,15,-1
2506,-51,-30,997,-21,26,3
2507,-144,-34,989,-18,16,1
2508,-125,-31,974,-14,-4,-7
2509,-7,-21,1003,-11,-21,-13
2510,102,-12,1012,-11,-20,-13
2511,129,-6,1009,-15,-1,-7
2512,40,-19,1004,-18,19,-2
2513,-82,-29,989,-18,25,2
2514,-150,-39,986,-15,10,-2
2515,-103,-23,981,-14,-11,-9
2516,26,-12,1012,-10,-24,-14
2517,121,-18,1010,-12,-17,-13
2518,120,-12,1008,-14,4,-5
2519,9,-29,999,-17,21,1
2520,-118,-22,979,-16,22,2
2521,-141,-36,990,-16,5,-4
2522,-79,-13,993,-12,-14,-9
2523,55,-12,1014,-14,-23,-13
2524,141,-18,1009,-12,-12,-11
2525,95,-18,997,-17,9,-2
2526,-25,-24,999,-17,24,1
2527,-133,-27,986,-17,18,0
2528,-142,-24,992,-15,1,-5
2529,-35,-20,991,-13,-19,-12
2530,77,-16,1013,-12,-21,-13
2531,138,-8,1001,-14,-9,-8
2532,66,-25,1007,-18,15,-2
2533,-52,-28,995,-17,24,3
2534,-144,-35,993,-16,15,1
2535,-116,-22,969,-13,-6,-5
2536,-11,-14,1011,-12,-21,-10
2537,103,-2,1004,-11,-20,-12
2538,131,-17,1019,-14,-1,-6
2539,39,-15,991,-18,19,1
2540,-86,-30,989,-19,24,2
2541,-138,-44,989,-16,10,-3
2542,-117,-18,976,-13,-9,-6
2543,33,-13,1011,-10,-23,-15
2544,125,-13,1019,-13,-18,-10
2545,116,-11,996,-15,3,-4
2546,17,-21,1005,-17,21,-2
2547,-120,-33,988,-18,23,3
2548,-142,-25,976,-15,5,-3
2549,-78,-23,1006,-12,-15,-11
2550,59,-8,1013,-11,-25,-13
2551,133,-9,1004,-13,-13,-9
2552,96,-24,999,-16,9,-4
2553,-28,-25,1006,-18,23,3
2554,-125,-31,977,-17,18,2
2555,-141,-28,998,-13,2,-4
2556,-32,-17,990,-11,-21,-11
2557,81,-5,1009,-11,-22,-13
2558,136,-15,1007,-16,-8,-8
2559,62,-11,997,-18,15,-1
2560,-50,-38,1009,-19,25,0
2561,-144,-34,975,-16,16,0
2562,-123,-28,982,-14,-6,-7
2563,0,-18,1001,-12,-23,-13
2564,104,-12,1009,-10,-20,-12
2565,133,-3,1015,-13,-2,-6
2566,34,-17,1002,-19,19,0
2567,-84,-30,982,-19,25,2
2568,-144,-36,988,-16,12,-1
2569,-111,-30,983,-16,-11,-9
2570,35,-9,1013,-8,-24,-14
2571,126,-9,1011,-13,-17,-11
2572,118,-13,1005,-17,5,-5
2573,10,-20,999,-15,22,1
2574,-120,-28,983,-18,22,1
2575,-148,-23,986,-14,5,-3
2576,-77,-31,996,-15,-15,-10
2577,59,-8,1004,-12,-24,-14
2578,136,-11,1010,-11,-13,-12
2579,93,-16,1003,-16,9,-4
2580,-15,-26,995,-18,24,2
2581,-142,-25,991,-17,21,1
2582,-140,-27,981,-17,0,-4
2583,-37,-19,1002,-12,-19,-11
2584,78,-18,998,-13,-23,-14
2585,140,-2,1016,-13,-8,-10
2586,74,-23,1001,-17,14,-1
2587,-62,-23,1002,-19,26,3
2588,-138,-39,979,-18,15,-1
2589,-131,-29,983,-13,-4,-6
2590,-2,-16,991,-12,-23,-13
2591,103,-4,1016,-10,-20,-15
2592,139,-13,1018,-15,-1,-7
2593,43,-15,992,-20,19,0
2594,-89,-34,989,-17,25,2
2595,-152,-33,985,-16,10,-1
2596,-99,-24,980,-13,-12,-9
2597,20,-9,1012,-11,-24,-13
2598,134,-15,1015,-15,-18,-12
2599,117,-11,1003,-15,5,-6
2600,6,-29,993,-18,21,0
2601,-120,-28,995,-16,22,1
2602,-143,-29,975,-14,5,-4
2603,-79,-23,1000,-13,-15,-10
2604,68,-9,1013,-11,-26,-16
2605,133,-9,1004,-14,-13,-10
2606,89,-19,1002,-17,10,-3
2607,-27,-25,1005,-18,24,2
2608,-135,-35,981,-18,18,2
2609,-141,-27,984,-14,-1,-5
2610,-31,-21,1004,-10,-19,-11
2611,81,-11,998,-13,-21,-13
2612,135,-8,1012,-13,-7,-9
2613,67,-15,1006,-17,15,-1
2614,-59,-27,1001,-19,25,2
2615,-140,-35,979,-16,14,-1
2616,-122,-24,982,-14,-7,-7
2617,-4,-13,994,-11,-23,-14
2618,101,-5,1018,-12,-19,-14
2619,131,-14,1014,-17,-2,-8
2620,46,-22,995,-19,19,0
2621,-89,-23,986,-17,25,3
2622,-146,-39,983,-19,11,-2
2623,-112,-25,984,-13,-10,-8
2624,30,-11,1010,-12,-26,-13
2625,134,-11,1015,-12,-18,-12
2626,114,-13,999,-15,6,-5
2627,11,-22,1001,-18,22,0
2628,-125,-31,985,-19,24,3
2629,-149,-35,989,-16,5,-3
2630,-70,-24,991,-13,-16,-12
2631,59,-13,1007,-12,-24,-13
2632,142,-10,1012,-11,-13,-11
2633,94,-13,999,-16,12,-3
2634,-30,-19,1001,-19,26,4
2635,-140,-33,988,-18,20,0
2636,-134,-33,983,-16,-1,-6
2637,-42,-17,996,-10,-19,-12
2638,88,-8,1010,-13,-23,-14
2639,139,-14,1009,-15,-6,-7
2640,67,-11,999,-17,16,1
2641,-57,-35,1003,-20,25,2
2642,-148,-34,985,-18,15,0
2643,-126,-28,973,-13,-6,-7
2644,1,-12,1004,-9,-23,-14
2645,106,-4,1013,-12,-20,-12
2646,132,-8,1014,-15,0,-8
2647,44,-25,1000,-17,19,-1
2648,-100,-27,985,-18,25,4
2649,-141,-34,981,-16,8,-3
2650,-105,-27,992,-12,-11,-8
2651,34,-6,1004,-12,-23,-13
2652,131,-9,1020,-14,-16,-12
2653,116,-10,997,-15,5,-4
2654,-3,-22,1007,-19,23,1
2655,-114,-32,978,-20,21,1
2656,-161,-34,999,-16,5,-3
2657,-58,-21,980,-14,-18,-13
2658,59,-19,1023,-12,-23,-14
2659,144,-5,997,-12,-14,-11
2660,84,-14,1014,-16,11,-2
2661,-28,-23,991,-19,25,2
2662,-146,-31,993,-20,20,1
2663,-135,-26,978,-16,-2,-7
2664,-34,-20,997,-11,-21,-11
2665,94,-10,1010,-13,-23,-15
2666,136,-14,1006,-15,-6,-8
2667,58,-18,1002,-17,16,-2
2668,-66,-29,1002,-18,25,2
2669,-140,-40,978,-17,14,0
2670,-123,-20,980,-13,-7,-6
2671,8,-10,1000,-12,-25,-13
2672,106,-2,1019,-13,-19,-12
2673,129,-12,1008,-18,0,-6
2674,29,-22,1002,-19,20,0
2675,-95,-36,978,-19,23,3
2676,-146,-41,988,-16,9,-4
2677,-92,-26,988,-11,-13,-10
2678,33,-6,1015,-9,-23,-14
2679,136,-2,1012,-13,-17,-10
2680,105,-11,999,-14,7,-3
2681,2,-27,998,-19,22,2
2682,-129,-29,993,-18,20,1
2683,-140,-29,980,-13,2,-4
2684,-67,-32,1001,-15,-17,-11
2685,76,-6,1003,-9,-25,-15
2686,131,-10,1011,-13,-10,-9
2687,85,-9,995,-17,12,-3
2688,-42,-26,1012,-18,25,2
2689,-139,-32,973,-21,16,2
2690,-138,-35,988,-16,-3,-5
2691,-14,-22,997,-10,-23,-13
2692,81,-9,1006,-11,-21,-11
2693,141,0,1005,-12,-6,-9
2694,55,-18,1013,-18,15,-1
2695,-73,-28,987,-20,23,3
2696,-143,-32,986,-17,11,0
2697,-119,-35,983,-16,-8,-7
2698,14,-12,995,-10,-23,-12
2699,119,-13,1015,-13,-20,-13
2700,121,-9,1012,-14,1,-6
2701,34,-22,1001,-18,20,0
2702,-105,-31,978,-17,26,3
2703,-147,-26,984,-17,7,-2
2704,-89,-26,994,-19,-11,-8
2705,42,-11,1014,-12,-21,-12
2706,135,-14,1005,-16,-15,-11
2707,110,-16,1007,-14,6,-5
2708,-5,-29,991,-18,24,2
2709,-130,-24,993,-19,21,2
2710,-145,-30,978,-15,2,-5
2711,-59,-19,1006,-13,-17,-11
2712,75,-16,995,-12,-25,-14
2713,137,-5,1014,-12,-10,-11
2714,78,-12,999,-18,12,-3
2715,-40,-27,1003,-18,25,2
2716,-137,-36,978,-18,17,0
2717,-137,-26,990,-14,-3,-6
2718,-12,-21,993,-10,-21,-14
2719,89,-9,1012,-11,-20,-12
2720,138,-10,1005,-14,-3,-8
2721,49,-21,1006,-17,18,-1
2722,-68,-32,987,-19,24,4
2723,-144,-31,992,-16,13,0
2724,-117,-27,974,-16,-9,-7
2725,17,-11,1002,-11,-24,-14
2726,112,-5,1018,-13,-17,-13
2727,125,-18,1007,-18,2,-7
2728,27,-23,999,-17,20,-1
2729,-111,-24,984,-18,24,2
2730,-141,-31,980,-17,8,-4
2731,-93,-27,992,-12,-14,-9
2732,51,-10,1021,-10,-25,-15
2733,133,-10,1001,-13,-14,-12
2734,104,-13,1004,-15,6,-6
2735,-8,-26,998,-20,23,2
2736,-132,-24,984,-19,21,2
2737,-146,-30,991,-16,2,-5
2738,-48,-23,998,-13,-20,-11
2739,78,-21,1003,-11,-24,-14
2740,137,-7,1006,-13,-9,-10
2741,75,-18,1010,-18,12,-2
2742,-40,-21,996,-16,25,2
2743,-141,-33,982,-19,17,1
2744,-130,-27,982,-14,-4,-7
2745,-15,-25,999,-11,-21,-13
2746,89,-10,1004,-12,-20,-13
2747,132,-10,1010,-14,-3,-7
2748,58,-14,1007,-17,17,-2
2749,-76,-32,984,-18,25,2
2750,-144,-22,991,-14,12,-1
2751,-112,-30,975,-18,-8,-7
2752,10,-13,1005,-10,-23,-14
2753,124,-18,1016,-12,-18,-14
2754,118,-18,1012,-15,3,-6
2755,19,-23,989,-16,20,1
2756,-104,-26,992,-17,22,1
2757,-145,-26,980,-17,8,-2
2758,-86,-20,997,-14,-14,-10
2759,45,-9,1014,-13,-23,-14
2760,136,-14,1009,-14,-13,-11
2761,96,-18,996,-15,9,-5
2762,-6,-25,1006,-18,23,1
2763,-135,-29,980,-19,21,2
2764,-141,-21,991,-15,1,-4
2765,-48,-26,995,-13,-19,-11
2766,70,-10,1003,-11,-22,-12
2767,137,-12,1010,-15,-10,-9
2768,77,-14,1002,-18,14,-2
2769,-46,-30,1004,-18,24,2
2770,-147,-31,978,-16,16,0
2771,-123,-33,985,-14,-4,-7
2772,-13,-8,993,-11,-22,-11
2773,92,-18,1014,-13,-20,-14
2774,142,-10,1011,-14,-5,-8
2775,44,-15,1002,-17,18,1
2776,-77,-29,996,-19,24,2
2777,-144,-37,981,-16,12,-2
2778,-114,-20,981,-13,-9,-7
2779,16,-12,1004,-12,-24,-13
2780,131,-7,1016,-12,-18,-14
2781,116,-26,1011,-16,4,-4
2782,21,-14,987,-16,20,0
2783,-112,-35,999,-18,23,3
2784,-137,-24,969,-14,6,-5
2785,-88,-23,1004,-12,-13,-9
2786,56,-9,1013,-13,-24,-15
2787,130,-13,1003,-14,-12,-12
2788,99,-17,1003,-15,8,-4
2789,-8,-21,998,-19,23,1
2790,-136,-28,987,-18,21,1
2791,-140,-22,985,-16,1,-5
2792,-48,-27,1004,-14,-18,-13
2793,80,-15,997,-12,-22,-14
2794,136,-14,1006,-14,-7,-10
2795,72,-14,1010,-16,14,-2
2796,-49,-21,995,-17,26,2
2797,-143,-27,987,-19,16,0
2798,-127,-28,978,-15,-5,-8
2799,-9,-20,997,-12,-23,-14
2800,99,-19,1007,-12,-19,-14
2801,127,-6,1014,-14,-2,-8
2802,57,-26,997,-19,17,-3
2803,-89,-17,995,-17,25,3
2804,-140,-36,981,-16,11,-1
2805,-117,-16,984,-13,-9,-8
2806,19,-13,1007,-13,-25,-13
2807,123,-18,1017,-14,-17,-13
2808,122,-19,1003,-16,3,-6
2809,14,-18,997,-17,21,1
2810,-110,-32,988,-20,22,1
2811,-148,-31,977,-14,6,-3
2812,-83,-20,1002,-14,-15,-10
2813,63,-11,1008,-12,-24,-16
2814,129,-7,1012,-12,-12,-11
2815,101,-11,992,-19,8,-3
2816,-22,-27,1007,-19,25,2
2817,-128,-30,981,-18,19,2
2818,-145,-25,991,-16,1,-5
2819,-38,-24,999,-12,-20,-13
2820,79,-17,1006,-11,-21,-14
2821,139,-7,1001,-13,-7,-10
2822,69,-21,1009,-18,14,-1
2823,-55,-27,998,-19,25,3
2824,-138,-31,982,-18,16,0
2825,-129,-27,987,-13,-5,-7
2826,-6,-11,993,-14,-21,-13
2827,104,-17,1019,-12,-19,-14
2828,128,-6,1000,-15,-1,-7
2829,41,-20,1010,-18,19,-1
2830,-80,-25,979,-18,24,3
2831,-153,-33,992,-16,11,0
2832,-104,-24,976,-13,-12,-8
2833,24,-15,1017,-9,-24,-13
2834,122,-11,1005,-13,-17,-11
2835,117,-22,1010,-14,5,-6
2836,15,-20,998,-16,20,1
2837,-117,-26,979,-18,23,2
2838,-143,-32,989,-14,5,-4
2839,-77,-17,995,-12,-15,-9
2840,55,-9,1008,-12,-23,-13
2841,138,-11,1010,-13,-14,-11
2842,86,-20,1003,-18,10,-2
2843,-18,-25,993,-18,24,2
2844,-136,-30,987,-17,20,2
2845,-138,-26,990,-15,0,-5
2846,-32,-21,995,-11,-22,-12
2847,76,-7,1005,-12,-23,-13
2848,137,-7,1010,-14,-9,-10
2849,62,-19,999,-19,15,-1
2850,-58,-33,1002,-19,24,3
2851,-134,-36,986,-18,15,0
2852,-127,-27,976,-14,-5,-5
2853,4,-19,1002,-11,-23,-13
2854,100,-10,1011,-10,-19,-12
2855,128,-9,1010,-13,0,-6
2856,41,-16,1001,-17,20,1
2857,-89,-25,985,-18,25,2
2858,-140,-28,986,-17,11,-2
2859,-107,-20,980,-15,-10,-10
2860,31,-14,1014,-13,-23,-13
2861,122,-16,1008,-13,-16,-13
2862,115,-20,1007,-14,4,-6
2863,14,-21,999,-14,22,1
2864,-117,-24,983,-18,23,2
2865,-145,-29,987,-12,5,-4
2866,-74,-16,995,-12,-15,-10
2867,52,-14,1012,-11,-23,-14
2868,140,-1,1000,-12,-12,-10
2869,90,-28,1012,-19,12,-3
2870,-20,-20,986,-17,23,1
2871,-141,-34,995,-19,21,1
2872,-134,-30,986,-15,0,-6
2873,-37,-16,994,-10,-19,-12
2874,85,-10,1004,-12,-22,-15
2875,131,-5,1010,-15,-7,-7
2876,69,-19,1001,-16,14,-4
2877,-57,-27,1001,-21,25,3
2878,-141,-32,989,-16,15,0
2879,-123,-29,970,-15,-6,-8
2880,-7,-23,1007,-14,-23,-12
2881,106,-6,1006,-11,-20,-14
2882,126,-12,1018,-16,0,-8
2883,47,-14,1000,-19,17,-1
2884,-90,-26,983,-20,26,2
2885,-145,-41,990,-20,10,-3
2886,-106,-20,983,-15,-11,-9
2887,28,-9,1015,-12,-23,-15
2888,131,-11,1010,-14,-17,-13
2889,111,-17,1003,-16,6,-5
2890,9,-24,996,-18,21,0
2891,-122,-29,990,-19,22,1
2892,-146,-33,976,-15,5,-5
2893,-70,-14,1005,-12,-15,-11
2894,64,-16,1004,-13,-24,-15
2895,136,-8,1008,-13,-12,-11
2896,94,-16,1001,-17,10,-3
2897,-37,-29,999,-19,25,2
2898,-133,-34,982,-18,20,0
2899,-138,-30,991,-16,0,-6
2900,-28,-11,990,-9,-21,-12
2901,93,-11,1015,-13,-22,-14
2902,132,-16,1001,-15,-5,-10
2903,57,-11,1006,-17,15,-1
2904,-62,-34,1000,-20,25,2
2905,-145,-33,977,-17,15,-1
2906,-123,-23,983,-14,-7,-7
2907,17,-15,999,-13,-23,-14
2908,95,-10,1017,-13,-18,-10
2909,138,-15,1005,-17,-1,-7
2910,27,-25,1010,-18,22,2
2911,-96,-27,975,-18,23,3
2912,-142,-30,992,-15,9,-3
2913,-98,-18,988,-14,-12,-8
2914,29,-9,1011,-12,-22,-14
2915,136,-12,1007,-14,-15,-13
2916,103,-21,1009,-17,7,-3
2917,1,-24,985,-18,23,0
2918,-126,-38,998,-18,22,2
2919,-140,-20,977,-14,2,-3
2920,-68,-18,1001,-12,-16,-11
2921,70,-5,1009,-10,-23,-14
2922,133,-12,1003,-13,-11,-9
2923,82,-21,1004,-19,11,-4
2924,-37,-32,998,-20,23,3
2925,-140,-33,985,-18,18,0
2926,-127,-34,985,-14,-3,-7
2927,-26,-10,999,-9,-20,-12
2928,91,-5,1010,-13,-22,-13
2929,131,-11,1006,-16,-5,-8
2930,52,-21,1005,-18,16,-1
2931,-59,-33,997,-20,22,2
2932,-145,-35,986,-16,12,0
2933,-114,-21,977,-13,-8,-7
2934,9,-10,1005,-12,-23,-13
2935,105,-12,1015,-12,-19,-12
2936,128,-14,1012,-16,-1,-5
2937,32,-25,997,-17,19,-1
2938,-93,-32,983,-17,23,2
2939,-149,-27,986,-16,8,-3
2940,-92,-26,985,-14,-13,-10
2941,35,-6,1022,-10,-24,-14
2942,130,-9,1000,-15,-16,-12
2943,109,-15,1011,-15,7,-5
2944,-2,-29,993,-19,20,1
2945,-129,-31,990,-18,20,2
2946,-136,-26,981,-16,1,-5
2947,-62,-25,1008,-12,-17,-11
2948,74,-8,1000,-11,-24,-13
2949,131,-7,1011,-13,-10,-8
2950,81,-13,999,-17,11,-1
2951,-40,-25,1001,-18,26,3
2952,-138,-37,981,-17,17,1
2953,-137,-22,986,-14,-2,-5
2954,-12,-23,998,-11,-21,-14
2955,85,-13,1008,-13,-20,-11
2956,139,-12,1003,-14,-5,-9
2957,50,-16,1011,-17,18,-2
2958,-67,-26,996,-20,25,4
2959,-145,-36,982,-17,14,0
2960,-116,-20,983,-14,-8,-7
2961,11,-16,999,-12,-23,-15
2962,116,-5,1019,-11,-19,-12
2963,117,-15,1012,-17,2,-4
2964,31,-24,994,-19,19,0
2965,-105,-35,983,-17,24,3
2966,-141,-28,986,-15,7,-2
2967,-86,-19,990,-11,-12,-10
2968,37,-3,1017,-12,-24,-13
2969,135,-10,1010,-15,-15,-12
2970,97,-24,998,-17,8,-3
2971,-6,-21,998,-18,22,2
2972,-128,-34,990,-19,20,0
2973,-136,-29,983,-14,2,-4
2974,-56,-21,1000,-13,-18,-11
2975,71,-6,1002,-10,-23,-14
2976,139,-13,1012,-13,-11,-10
2977,73,-13,998,-18,12,-2
2978,-39,-27,1000,-19,24,2
2979,-138,-36,990,-16,18,0
2980,-132,-27,975,-14,-3,-4
2981,-12,-16,1005,-10,-22,-12
2982,95,-11,1012,-13,-22,-12
2983,128,-4,1000,-14,-4,-7
2984,58,-19,1011,-19,17,-1
2985,-78,-36,994,-21,23,3
2986,-143,-27,978,-17,13,-2
2987,-113,-34,989,-15,-8,-9
2988,16,-2,998,-11,-24,-12
2989,112,-12,1012,-13,-18,-12
2990,127,-15,1013,-16,1,-7
2991,17,-21,999,-20,20,2
2992,-100,-32,979,-19,23,3
2993,-149,-36,986,-17,9,-1
2994,-83,-17,995,-11,-14,-10
2995,43,-9,1010,-13,-24,-14
2996,136,-5,1013,-15,-15,-12
2997,105,-28,995,-18,7,-3
2998,-12,-23,996,-18,23,1
2999,-130,-31,987,-19,20,1
3000,-137,-23,988,-15,2,-6
3001,-55,-20,1000,-14,-18,-10
3002,80,-15,1002,-11,-23,-14
3003,133,-16,1014,-14,-8,-10
3004,73,-15,992,-16,13,-3
3005,-45,-28,1010,-18,26,2
3006,-134,-32,982,-18,16,1
3007,-127,-23,981,-14,-3,-6
3008,-18,-23,1006,-10,-22,-12
3009,92,-5,1005,-11,-21,-13
3010,126,-13,1009,-15,-3,-7
3011,50,-19,1005,-17,16,0
3012,-70,-34,991,-20,24,1
3013,-144,-33,983,-16,12,-2
3014,-111,-23,980,-14,-8,-8
3015,12,-10,1006,-11,-22,-14
3016,114,-8,1014,-12,-17,-11
3017,119,-11,1010,-17,3,-5
3018,25,-23,996,-17,20,0
3019,-103,-26,982,-18,21,3
3020,-144,-32,984,-17,6,-3
3021,-88,-22,988,-13,-13,-10
3022,48,-12,1022,-11,-24,-14
3023,128,-10,1000,-14,-15,-11
3024,105,-19,1004,-16,6,-6
3025,-8,-26,999,-18,22,3
3026,-132,-13,983,-19,21,1
3027,-137,-35,991,-16,1,-5
3028,-51,-17,1001,-13,-17,-11
3029,74,-18,997,-12,-22,-13
3030,137,-10,1012,-13,-10,-10
3031,76,-21,1002,-17,13,-2
3032,-47,-22,995,-17,24,2
3033,-142,-29,992,-20,17,-1
3034,-126,-25,979,-17,-4,-6
3035,-14,-17,1001,-12,-22,-12
3036,95,-16,1003,-14,-20,-13
3037,134,-9,1017,-13,-2,-9
3038,55,-19,995,-15,15,-3
3039,-90,-31,1000,-17,24,1
3040,-129,-32,981,-16,10,-3
3041,-120,-27,981,-13,-7,-8
3042,21,-8,1002,-12,-25,-15
3043,122,-19,1015,-13,-19,-12
3044,116,-11,1010,-14,3,-6
3045,23,-27,995,-19,20,-1
3046,-112,-26,990,-18,23,2
3047,-140,-35,974,-17,6,-3
3048,-90,-19,1007,-12,-15,-11
3049,56,-9,1006,-13,-24,-14
3050,130,-7,1016,-14,-12,-11
3051,102,-26,991,-18,8,-4
3052,-17,-23,1008,-17,23,1
3053,-129,-37,981,-19,18,2
3054,-146,-15,990,-13,1,-3
3055,-41,-23,998,-12,-19,-12
3056,79,-12,1005,-12,-22,-13
3057,136,-9,1008,-14,-9,-9
3058,76,-17,1001,-18,13,-3
3059,-55,-29,1005,-18,25,4
3060,-136,-30,975,-18,16,0
3061,-127,-30,989,-16,-3,-6
3062,-8,-17,991,-11,-22,-12
3063,94,-15,1013,-11,-21,-14
3064,135,-2,1009,-14,-4,-9
3065,42,-21,1002,-20,19,1
3066,-79,-32,993,-19,25,1
3067,-148,-32,985,-15,12,-1
3068,-107,-27,980,-15,-10,-10
3069,20,-9,1006,-11,-23,-13
3070,128,-11,1017,-15,-16,-13
3071,116,-18,1004,-16,4,-6
3072,13,-21,1000,-18,21,1
3073,-112,-30,983,-19,24,1
3074,-143,-29,985,-16,6,-4
3075,-83,-18,996,-12,-15,-8
3076,61,-9,1012,-13,-22,-13
3077,131,-10,1010,-13,-12,-9
3078,97,-21,995,-18,10,-3
3079,-17,-32,1001,-20,24,2
3080,-138,-23,984,-17,20,2
3081,-142,-22,991,-14,0,-5
3082,-33,-19,999,-12,-20,-14
3083,69,-10,1006,-12,-22,-12
3084,143,-6,1003,-15,-8,-10
3085,63,-22,1009,-18,14,-1
3086,-59,-28,992,-20,24,3
3087,-138,-46,987,-17,14,-1
3088,-126,-21,979,-13,-5,-6
3089,-1,-22,1000,-11,-23,-13
3090,103,-6,1011,-11,-20,-15
3091,129,-8,1009,-16,-1,-6
3092,41,-20,999,-18,19,0
3093,-89,-28,991,-17,23,3
3094,-141,-35,984,-15,9,-1
3095,-110,-23,977,-14,-10,-8
3096,33,-6,1009,-11,-25,-15
3097,122,-15,1015,-14,-16,-12
3098,115,-12,1003,-15,6,-5
3099,9,-29,999,-18,22,1
3100,-116,-25,984,-18,22,1
3101,-139,-36,977,-14,4,-4
3102,-80,-14,1004,-11,-16,-10
3103,57,-10,1010,-14,-24,-14
3104,137,-11,1008,-11,-12,-13
3105,90,-19,1003,-17,9,-2
3106,-27,-24,992,-19,24,2
3107,-130,-35,990,-19,19,0
3108,-144,-25,987,-14,0,-5
3109,-36,-16,999,-13,-22,-13
3110,84,-19,1009,-11,-23,-14
3111,135,-1,1008,-15,-7,-8
3112,61,-19,999,-18,14,-2
3113,-49,-26,1004,-19,24,1
3114,-146,-37,988,-20,15,1
3115,-122,-32,968,-14,-6,-8
3116,-8,-16,1016,-10,-22,-12
3117,103,-9,999,-12,-20,-13
3118,128,-9,1014,-15,-1,-7
3119,45,-17,1000,-18,18,-1
3120,-85,-29,993,-20,25,4
3121,-149,-33,976,-18,11,-1
3122,-110,-27,991,-14,-11,-9
3123,29,-10,997,-12,-24,-13
3124,117,-12,1017,-13,-16,-12
3125,127,-16,1011,-15,4,-6
3126,4,-20,996,-17,23,2
3127,-106,-28,978,-19,23,1
3128,-147,-25,993,-14,7,-3
3129,-75,-27,987,-13,-15,-10
3130,57,-5,1024,-11,-23,-15
3131,138,-15,998,-14,-13,-10
3132,91,-5,1008,-14,9,-3
3133,-16,-30,993,-20,24,2
3134,-144,-24,987,-16,21,2
3135,-136,-29,990,-17,-1,-6
3136,-40,-21,1000,-12,-20,-12
3137,84,-15,999,-11,-22,-13
3138,141,-6,1010,-16,-7,-9
3139,67,-22,998,-19,15,-2
3140,-61,-24,1000,-20,26,2
3141,-142,-32,987,-19,16,1
3142,-125,-31,979,-14,-5,-7
3143,2,-14,997,-13,-22,-12
3144,97,-7,1019,-11,-20,-12
3145,132,-16,1003,-15,-2,-7
3146,37,-19,1005,-20,20,1
3147,-90,-28,987,-19,23,3
3148,-136,-30,987,-15,10,-4
3149,-107,-24,982,-15,-10,-8
3150,24,-4,1010,-10,-24,-12
3151,125,-20,1013,-14,-17,-13
3152,112,-18,1008,-15,4,-5
3153,15,-16,996,-17,21,0
3154,-112,-30,983,-21,22,1
3155,-146,-34,988,-16,5,-3
3156,-73,-22,994,-13,-15,-11
3157,53,-19,1015,-12,-23,-13
3158,136,-8,999,-12,-13,-11
3159,95,-18,1012,-16,10,-4
3160,-18,-15,988,-18,23,3
3161,-139,-28,993,-18,19,1
3162,-131,-26,985,-16,-2,-6
3163,-52,-28,1002,-15,-19,-10
3164,91,-16,998,-12,-23,-16
3165,137,-19,1012,-13,-6,-9
3166,63,-12,1002,-15,15,-1
3167,-50,-26,999,-17,26,2
3168,-146,-24,986,-18,15,0
3169,-122,-23,979,-15,-7,-7
3170,0,-17,1000,-12,-22,-14
3171,97,-16,1011,-13,-20,-12
3172,129,-7,1013,-15,-1,-6
3173,44,-28,1000,-19,18,1
3174,-88,-25,985,-18,25,3
3175,-142,-34,993,-17,9,-1
3176,-104,-28,978,-14,-11,-9
3177,22,-8,1009,-9,-24,-11
3178,129,-8,1018,-13,-18,-14
3179,107,-17,1004,-16,6,-4
3180,17,-16,995,-17,20,0
3181,-120,-26,986,-19,23,3
3182,-143,-31,980,-17,4,-3
3183,-76,-25,1003,-14,-15,-11
3184,57,-22,1010,-11,-24,-13
3185,135,-10,1006,-13,-13,-11
3186,94,-17,998,-15,11,-4
3187,-19,-19,1002,-18,24,2
3188,-134,-27,981,-18,18,1
3189,-140,-24,997,-14,-1,-6
3190,-37,-23,995,-14,-21,-12
3191,79,-15,1004,-12,-23,-13
3192,135,-12,1009,-13,-9,-10
3193,73,-19,1000,-17,13,-1
3194,-53,-28,1005,-19,25,3
3195,-145,-26,981,-16,15,-1
3196,-123,-22,982,-14,-4,-8
3197,-4,-15,1002,-13,-23,-12
3198,99,-7,1005,-13,-20,-15
3199,132,-14,1013,-14,-2,-8
3200,44,-17,1001,-19,18,0
3201,-87,-30,987,-20,25,2
3202,-142,-35,988,-16,10,-3
3203,-111,-16,982,-15,-11,-9
3204,31,-19,1004,-12,-24,-15
3205,123,-8,1023,-14,-16,-11
3206,119,-20,1000,-18,5,-4
3207,12,-23,1001,-16,22,0
3208,-112,-19,985,-20,22,3
3209,-152,-28,981,-16,6,-5
3210,-75,-29,1001,-12,-17,-13
3211,51,-12,1011,-12,-24,-14
3212,144,-12,997,-14,-13,-11
3213,93,-17,1010,-15,10,-3
3214,-18,-18,992,-19,22,0
3215,-139,-30,983,-17,20,0
3216,-135,-22,991,-15,0,-6
3217,-41,-25,995,-15,-18,-11
3218,83,-9,1006,-12,-22,-15
3219,135,-21,1008,-15,-8,-9
3220,64,-13,999,-17,14,-2
3221,-52,-30,1003,-19,24,2
3222,-147,-30,983,-16,15,-2
3223,-117,-25,979,-13,-5,-8
3224,-8,-13,1003,-13,-22,-13
3225,106,-15,1003,-14,-20,-13
3226,128,-13,1020,-14,-2,-7
3227,45,-25,991,-21,18,0
3228,-90,-28,995,-18,25,2
3229,-141,-31,986,-18,8,-3
3230,-112,-23,984,-15,-10,-8
3231,32,-7,1007,-9,-23,-14
3232,123,-13,1020,-14,-16,-11
3233,116,-29,997,-16,4,-4
3234,15,-17,1002,-16,20,2
3235,-119,-28,985,-18,24,3
3236,-146,-25,977,-15,5,-3
3237,-65,-20,1007,-13,-17,-11
3238,55,-7,1013,-13,-23,-14
3239,141,-14,1001,-15,-12,-11
3240,86,-21,1007,-17,11,-3
3241,-26,-28,993,-20,23,3
3242,-137,-31,986,-17,19,1
3243,-135,-21,991,-16,1,-5
3244,-37,-23,999,-14,-20,-13
3245,90,-11,1005,-10,-22,-15
3246,129,-11,1009,-14,-6,-8
3247,67,-16,994,-17,15,-2
3248,-61,-36,1010,-18,25,3
3249,-138,-24,980,-17,14,0
3250,-121,-25,979,-15,-5,-7
3251,1,-11,1006,-11,-24,-13
3252,96,-17,1008,-14,-19,-11
3253,134,-11,1008,-14,-2,-8
3254,34,-25,1004,-18,19,2
3255,-91,-23,983,-15,23,3
3256,-136,-36,992,-16,10,-2
3257,-110,-24,981,-14,-9,-8
3258,34,-1,1010,-12,-24,-13
3259,122,-15,1015,-13,-15,-12
3260,117,-15,1003,-16,4,-4
3261,7,-30,997,-19,21,2
3262,-121,-23,984,-17,22,3
3263,-140,-34,981,-14,5,-3
3264,-78,-22,1001,-10,-16,-11
3265,66,-7,1010,-11,-24,-14
3266,132,-13,1006,-13,-11,-11
3267,92,-15,1001,-16,9,-2
3268,-29,-29,992,-18,24,2
3269,-137,-27,991,-18,18,2
3270,-132,-28,987,-14,-3,-6
3271,-43,-23,997,-12,-19,-11
3272,92,-15,1006,-11,-23,-13
3273,136,-13,1005,-14,-6,-7
3274,63,-3,999,-16,15,-1
3275,-54,-22,1005,-19,25,1
3276,-146,-35,987,-18,16,1
3277,-125,-24,968,-17,-5,-6
3278,0,-26,1015,-11,-23,-16
3279,103,-11,999,-10,-20,-14
3280,129,-7,1014,-14,0,-7
3281,46,-17,1003,-16,21,-2
3282,-92,-22,987,-20,26,5
3283,-149,-27,981,-19,11,-2
3284,-96,-23,993,-16,-11,-10
3285,22,-11,1000,-13,-23,-14
3286,131,-19,1015,-14,-17,-14
3287,117,-19,1007,-15,5,-4
3288,5,-24,992,-17,23,1
3289,-112,-25,985,-19,22,1
3290,-151,-27,988,-15,5,-3
3291,-63,-19,992,-14,-16,-10
3292,52,-12,1015,-15,-23,-13
3293,150,-11,1004,-14,-15,-12
3294,83,-22,1003,-17,11,-1
3295,-26,-24,993,-19,23,2
3296,-132,-35,993,-17,20,1
3297,-142,-19,982,-15,0,-5
3298,-35,-22,999,-14,-20,-13
3299,88,-12,1009,-12,-21,-15
3300,138,-11,1000,-15,-6,-7
3301,61,-15,1003,-17,14,-2
3302,-59,-31,1008,-20,24,2
3303,-147,-29,972,-17,14,-1
3304,-117,-29,984,-14,-7,-8
3305,9,-21,1005,-12,-23,-13
3306,100,-8,1004,-11,-18,-12
3307,129,-13,1014,-14,-1,-8
3308,35,-19,1003,-18,20,1
3309,-89,-26,978,-19,23,5
3310,-150,-30,989,-15,8,-2
3311,-92,-26,985,-14,-13,-9
3312,27,-5,1008,-11,-24,-12
3313,130,-16,1011,-14,-17,-12
3314,116,-16,1012,-15,6,-5
3315,2,-25,989,-18,22,2
3316,-128,-26,989,-20,22,3
3317,-137,-26,988,-14,3,-4
3318,-79,-22,996,-12,-15,-9
3319,76,-9,1014,-13,-25,-16
3320,134,-15,1011,-12,-12,-9
3321,91,-13,994,-18,10,-2
3322,-34,-30,1005,-19,24,1
3323,-143,-28,980,-18,18,2
3324,-139,-32,990,-16,-2,-5
3325,-25,-17,999,-10,-20,-12
3326,86,-8,1007,-11,-20,-12
3327,147,-17,1002,-15,-7,-8
3328,52,-16,1006,-17,16,1
3329,-65,-24,1000,-18,22,2
3330,-147,-33,985,-17,13,-2
3331,-115,-28,977,-13,-9,-8
3332,5,-16,1005,-11,-23,-13
3333,112,-10,1012,-11,-18,-13
3334,123,-11,1010,-15,1,-6
3335,35,-17,999,-19,19,1
3336,-96,-35,989,-19,24,3
3337,-147,-32,979,-17,9,-2
3338,-101,-25,991,-15,-11,-9
3339,35,-9,1009,-12,-24,-14
3340,128,-16,1014,-13,-15,-12
3341,111,-14,1003,-15,6,-4
3342,0,-26,1002,-17,22,1
3343,-119,-27,979,-18,22,2
3344,-146,-28,988,-16,3,-4
3345,-63,-25,998,-13,-17,-12
3346,58,-9,1015,-11,-24,-14
3347,145,-16,1002,-13,-12,-13
3348,81,-13,1009,-16,10,-3
3349,-23,-23,989,-18,24,1
3350,-139,-31,993,-18,20,1
3351,-137,-25,983,-15,-1,-5
3352,-27,-19,1001,-13,-20,-13
3353,89,-18,1004,-12,-21,-13
3354,132,-11,1005,-13,-5,-8
3355,66,-17,1003,-16,15,-1
3356,-65,-31,1004,-17,26,3
3357,-140,-30,979,-16,15,-2
3358,-121,-16,984,-14,-7,-7
3359,5,-15,997,-13,-22,-12
3360,108,-13,1014,-13,-19,-13
3361,123,-19,1006,-16,0,-7
3362,37,-20,1002,-19,18,0
3363,-91,-38,982,-18,24,3
3364,-146,-31,990,-15,9,-3
3365,-98,-24,983,-13,-11,-9
3366,30,-5,1008,-10,-22,-13
3367,130,-9,1020,-13,-16,-12
3368,113,-18,999,-17,6,-5
3369,2,-22,1000,-18,22,1
3370,-123,-26,981,-18,20,3
3371,-147,-34,989,-15,2,-4
3372,-61,-24,992,-13,-18,-11
3373,65,-10,1020,-10,-21,-13
3374,143,-12,1001,-10,-12,-9
3375,83,-16,1004,-18,11,-2
3376,-29,-27,993,-17,23,2
3377,-136,-23,991,-19,19,1
3378,-136,-27,985,-15,-1,-6
3379,-21,-9,999,-10,-21,-11
3380,85,-20,1006,-16,-21,-13
3381,134,-13,1002,-14,-4,-10
3382,55,-20,1010,-18,16,0
3383,-64,-26,989,-19,24,2
3384,-137,-36,989,-17,14,-1
3385,-122,-17,984,-11,-7,-7
3386,8,-12,995,-13,-23,-13
3387,104,-13,1017,-12,-19,-13
3388,128,-10,1007,-16,0,-5
3389,33,-25,1000,-19,19,-1
3390,-93,-27,985,-19,24,3
3391,-146,-31,988,-16,8,-1
3392,-93,-19,981,-13,-13,-10
3393,32,-9,1016,-12,-24,-12
3394,131,-12,1010,-13,-15,-12
3395,102,-25,1004,-14,7,-4
3396,2,-18,993,-17,21,2
3397,-121,-28,989,-17,23,1
3398,-144,-27,981,-14,4,-5
3399,-65,-14,1005,-13,-17,-10
3400,68,-16,1011,-14,-22,-14
3401,135,-17,1001,-15,-10,-9
3402,85,-20,1005,-16,11,-2
3403,-39,-22,996,-18,24,4
3404,-132,-34,983,-18,17,1
3405,-140,-20,994,-14,-1,-6
3406,-20,-23,995,-12,-21,-13
3407,85,-14,1006,-11,-21,-14
3408,135,-9,1003,-14,-6,-8
3409,56,-12,1009,-17,16,-1
3410,-59,-31,992,-19,25,1
3411,-148,-25,992,-16,15,-1
3412,-114,-23,967,-15,-6,-6
3413,3,-15,1013,-12,-22,-12
3414,108,-10,1001,-12,-20,-13
3415,121,-16,1017,-15,1,-6
3416,37,-23,997,-17,18,0
3417,-99,-31,985,-18,24,4
3418,-138,-33,987,-16,6,-3
3419,-104,-22,987,-14,-11,-8
3420,38,-7,1010,-11,-24,-15
3421,129,-13,1017,-13,-15,-12
3422,109,-12,997,-16,6,-4
3423,1,-25,1000,-18,23,1
3424,-124,-29,983,-20,21,1
3425,-141,-22,985,-15,4,-3
3426,-65,-27,1003,-15,-15,-12
3427,63,-9,1008,-12,-23,-14
3428,142,-13,1004,-13,-12,-10
3429,87,-18,1003,-16,12,-3
3430,-41,-22,995,-18,25,2
3431,-129,-32,985,-17,18,-1
3432,-136,-20,996,-15,-1,-4
3433,-27,-19,989,-12,-20,-11
3434,94,-14,1019,-10,-22,-15
3435,128,-19,995,-14,-6,-7
3436,55,-16,1005,-17,15,-2
3437,-55,-28,1006,-17,24,1
3438,-148,-32,975,-18,14,0
3439,-112,-17,983,-12,-7,-10
3440,7,-17,1006,-13,-23,-13
3441,101,-7,1009,-13,-18,-12
3442,126,-20,1011,-16,0,-7
3443,30,-17,1008,-17,19,0
3444,-87,-34,970,-19,24,3
3445,-148,-31,998,-17,8,-2
3446,-90,-21,979,-14,-12,-8
3447,31,-7,1014,-11,-23,-14
3448,136,-14,1012,-15,-16,-12
3449,102,-17,1010,-16,8,-4
3450,1,-31,981,-18,21,1
3451,-125,-27,998,-18,22,3
3452,-137,-32,983,-15,3,-3
3453,-70,-12,999,-15,-15,-10
3454,70,-17,1011,-11,-23,-15
3455,134,-9,1007,-13,-11,-10
3456,78,-24,996,-18,12,-2
3457,-31,-25,1002,-16,23,2
3458,-140,-36,986,-18,17,2
3459,-129,-13,983,-15,-3,-4
3460,-25,-21,1008,-13,-20,-12
3461,89,-17,1002,-13,-22,-12
3462,128,-13,1005,-14,-5,-7
3463,61,-24,1002,-17,15,-2
3464,-69,-24,1006,-18,25,4
3465,-140,-37,971,-16,13,-1
3466,-113,-17,992,-13,-7,-6
3467,7,-14,999,-12,-23,-12
3468,113,-12,1005,-13,-17,-14
3469,123,-13,1020,-15,1,-5
3470,28,-15,994,-19,20,1
3471,-90,-36,982,-20,24,2
3472,-152,-31,992,-18,9,-1
3473,-88,-24,985,-15,-13,-10
3474,38,-19,1015,-9,-23,-13
3475,131,-5,1007,-12,-16,-11
3476,109,-20,1005,-17,7,-4
3477,-2,-14,1002,-16,21,2
3478,-125,-23,981,-20,20,2
3479,-146,-32,991,-16,4,-5
3480,-61,-18,1001,-14,-17,-10
3481,71,-25,1005,-13,-21,-14
3482,137,-11,1009,-10,-11,-9
3483,82,-17,998,-18,11,-2
3484,-32,-30,999,-17,25,1
3485,-140,-23,988,-16,18,0
3486,-134,-23,989,-15,-2,-7
3487,-20,-20,1000,-11,-21,-12
3488,92,-23,1000,-13,-21,-13
3489,129,-9,1012,-13,-4,-8
3490,59,-19,995,-16,16,-2
3491,-66,-27,1011,-18,24,3
3492,-149,-35,967,-18,12,1
3493,-112,-23,993,-12,-7,-9
3494,11,-24,998,-13,-23,-12
3495,101,-3,1006,-11,-18,-13
3496,134,-18,1021,-15,0,-7
3497,20,-17,995,-19,21,2
3498,-94,-31,980,-17,23,3
3499,-140,-33,992,-16,8,-5
3500,-98,-22,983,-14,-12,-8
3501,48,-7,1012,-12,-24,-15
3502,126,-17,1017,-15,-14,-10
3503,106,-14,998,-16,8,-4
3504,-3,-25,1000,-17,22,0
3505,-127,-27,987,-19,21,1
3506,-141,-28,983,-16,3,-4
3507,-59,-27,1000,-14,-17,-12
3508,69,-11,1012,-13,-23,-13
3509,137,-18,1006,-13,-10,-10
3510,85,-11,1002,-15,11,-2
3511,-40,-23,999,-18,24,2
3512,-137,-23,982,-18,18,0
3513,-128,-29,992,-18,-2,-5
3514,-25,-19,994,-12,-20,-11
3515,89,-19,1008,-12,-21,-14
3516,141,-12,1006,-13,-6,-8
3517,45,-19,1000,-16,17,0
3518,-62,-28,1003,-17,23,1
3519,-143,-32,983,-16,14,1
3520,-114,-18,981,-14,-7,-7
3521,15,-14,1004,-14,-23,-12
3522,108,-15,1011,-12,-18,-13
3523,117,-20,1014,-16,2,-5
3524,33,-26,991,-17,19,0
3525,-98,-25,996,-15,23,3
3526,-140,-26,974,-16,7,-2
3527,-98,-19,1000,-13,-13,-10
3528,41,-14,1003,-13,-24,-13
3529,123,-13,1015,-13,-14,-12
3530,112,-23,998,-15,5,-6
3531,0,-21,1003,-18,23,2
3532,-119,-28,980,-19,22,2
3533,-147,-25,991,-14,3,-3
3534,-57,-19,999,-14,-18,-11
3535,67,-18,1006,-13,-22,-13
3536,135,-13,1006,-14,-11,-9
3537,82,-20,1005,-16,11,-3
3538,-34,-27,995,-16,24,4
3539,-142,-27,984,-17,19,2
3540,-128,-24,994,-14,-3,-6
3541,-24,-19,995,-11,-20,-10
3542,90,-15,1005,-11,-22,-13
3543,132,-14,1006,-13,-6,-9
3544,55,-17,1002,-17,16,-1
3545,-65,-27,1000,-20,24,3
3546,-146,-26,984,-18,13,-1
3547,-107,-29,977,-15,-8,-7
3548,0,-14,1003,-11,-21,-12
3549,110,-15,1009,-12,-19,-13
3550,127,-10,1020,-12,2,-6
3551,29,-25,990,-18,20,2
3552,-99,-25,988,-15,25,2
3553,-137,-35,989,-16,7,-3
3554,-105,-13,985,-13,-14,-8
3555,43,-11,1016,-12,-24,-14
3556,131,-13,1011,-12,-16,-12
3557,104,-20,998,-16,7,-3
3558,3,-22,1000,-17,23,0
3559,-127,-27,986,-19,23,3
3560,-135,-26,983,-15,4,-3
3561,-65,-26,1007,-13,-16,-9
3562,70,-15,1002,-13,-23,-13
3563,135,-12,1011,-13,-11,-10
3564,84,-20,1002,-18,12,-3
3565,-35,-22,997,-15,24,1
3566,-136,-30,987,-17,18,0
3567,-133,-24,989,-14,-2,-5
3568,-23,-26,994,-11,-20,-11
3569,81,-16,1010,-12,-21,-13
3570,132,-5,1003,-13,-6,-6
3571,61,-8,1005,-16,16,-1
3572,-63,-32,998,-20,24,4
3573,-143,-34,987,-17,13,-1
3574,-117,-32,974,-16,-8,-6
3575,0,-14,1009,-10,-21,-12
3576,107,-9,1005,-11,-19,-12
3577,121,-9,1023,-15,-1,-4
3578,43,-15,991,-18,19,1
3579,-99,-30,987,-19,26,4
3580,-139,-31,987,-17,8,-2
3581,-110,-29,991,-13,-13,-8
3582,37,-9,1007,-10,-24,-11
3583,123,-13,1019,-12,-14,-11
3584,116,-12,996,-13,6,-6
3585,3,-26,1002,-20,22,2
3586,-126,-18,984,-18,21,2
3587,-143,-34,990,-16,3,-3
3588,-68,-26,994,-14,-16,-10
3589,59,-13,1011,-11,-23,-12
3590,143,-19,1005,-12,-12,-12
3591,81,-13,1004,-15,12,-2
3592,-25,-12,997,-18,24,3
3593,-141,-34,992,-19,19,2
3594,-137,-20,980,-15,-3,-5
3595,-33,-31,1003,-14,-21,-13
3596,88,-15,1003,-13,-22,-14
3597,134,-13,1005,-15,-6,-8
3598,63,-18,1006,-16,15,-2
3599,-59,-25,999,-18,25,2
3600,-142,-32,984,-16,15,-1
3601,-124,-22,977,-14,-6,-6
3602,1,-11,1005,-11,-22,-13
3603,105,-10,1008,-15,-19,-12
3604,130,-19,1017,-16,0,-7
3605,46,-17,992,-19,20,-1
3606,-100,-31,991,-19,26,2
3607,-142,-28,985,-17,10,-3
3608,-110,-25,987,-14,-11,-9
3609,38,-9,1009,-11,-25,-15
3610,127,-13,1013,-15,-16,-11
3611,111,-17,996,-16,6,-4
3612,3,-27,1002,-17,22,0
3613,-120,-24,984,-19,21,1
3614,-148,-26,990,-15,4,-3
3615,-68,-18,995,-15,-16,-12
3616,63,-19,1010,-12,-22,-14
3617,136,-9,1006,-13,-12,-11
3618,83,-24,998,-18,11,-4
3619,-27,-22,1004,-17,23,2
3620,-139,-27,982,-18,19,3
3621,-133,-22,987,-15,-1,-5
3622,-30,-17,1000,-10,-21,-10
3623,86,-12,1003,-13,-22,-13
3624,129,-13,1006,-13,-5,-9
3625,68,-15,1007,-18,15,0
3626,-68,-28,997,-20,26,4
3627,-138,-30,983,-17,15,0
3628,-122,-30,983,-15,-7,-7
3629,4,-15,998,-12,-22,-15
3630,105,-9,1016,-11,-21,-13
3631,132,-17,1010,-14,-1,-7
3632,33,-20,998,-18,20,1
3633,-93,-29,988,-19,24,3
3634,-147,-37,980,-16,9,-2
3635,-99,-14,993,-13,-13,-10
3636,36,-9,1015,-12,-25,-13
3637,131,-13,1008,-14,-16,-12
3638,111,-15,1000,-16,6,-4
3639,0,-27,1000,-19,22,0
3640,-123,-32,984,-18,22,1
3641,-146,-30,986,-15,5,-4
3642,-66,-18,1002,-13,-16,-11
3643,64,-13,1003,-11,-23,-15
3644,141,-11,1009,-14,-12,-10
3645,87,-12,999,-17,13,-3
3646,-39,-24,1002,-19,24,2
3647,-139,-39,981,-20,17,1
3648,-141,-30,991,-14,-3,-5
3649,-20,-22,994,-11,-21,-13
3650,87,-16,1010,-10,-22,-13
3651,136,-3,1006,-12,-6,-8
3652,58,-17,1007,-18,16,-1
3653,-68,-25,996,-18,24,3
3654,-143,-38,983,-16,14,0
3655,-122,-29,978,-14,-8,-7
3656,7,-23,1003,-10,-24,-12
3657,115,-9,1010,-11,-19,-13
3658,123,-10,1018,-15,0,-4
3659,36,-16,995,-18,21,1
3660,-99,-32,984,-19,24,3
3661,-149,-27,987,-18,10,0
3662,-100,-25,992,-14,-13,-8
3663,34,-12,1009,-10,-24,-13
3664,130,-16,1017,-12,-17,-12
3665,116,-17,997,-12,6,-4
3666,0,-18,1002,-17,24,3
3667,-123,-17,988,-18,23,2
3668,-149,-25,985,-16,5,-3
3669,-63,-22,1003,-15,-17,-11
3670,65,-18,1003,-13,-23,-13
3671,137,-22,1007,-14,-12,-10
3672,87,-19,1001,-15,10,-2
3673,-26,-23,999,-18,24,2
3674,-136,-26,985,-18,19,0
3675,-133,-19,986,-14,-3,-5
3676,-29,-23,999,-12,-20,-12
3677,85,-10,1002,-14,-21,-13
3678,132,-22,1008,-14,-6,-8
3679,62,-9,1003,-16,16,-2
3680,-56,-29,998,-20,24,1
3681,-136,-27,985,-16,15,-1
3682,-130,-27,981,-17,-6,-6
3683,6,-14,994,-14,-23,-14
3684,101,-18,1022,-14,-19,-11
3685,132,-11,1004,-15,0,-8
3686,39,-26,1006,-17,20,-1
3687,-96,-23,981,-17,24,3
3688,-146,-31,986,-17,10,-3
3689,-102,-27,990,-14,-11,-10
3690,30,-7,1010,-12,-24,-13
3691,133,-17,1014,-13,-16,-13
3692,114,-14,1000,-14,6,-4
3693,1,-30,996,-18,22,1
3694,-121,-18,987,-18,23,1
3695,-151,-36,990,-16,4,-4
3696,-69,-9,996,-12,-18,-12
3697,65,-20,1006,-12,-24,-14
3698,139,-7,1014,-12,-13,-10
3699,92,-14,995,-18,10,-2
3700,-36,-27,998,-18,26,1
3701,-133,-27,991,-19,18,1
3702,-145,-28,977,-17,0,-6
3703,-25,-20,1003,-13,-22,-14
3704,86,-13,1007,-14,-23,-14
3705,135,-11,1002,-15,-5,-9
3706,64,-12,1005,-18,16,-1
3707,-69,-35,1002,-21,25,2
3708,-142,-25,982,-17,14,-1
3709,-120,-37,977,-14,-7,-7
3710,5,-15,1006,-11,-23,-13
3711,109,-15,1007,-12,-20,-13
3712,125,-9,1019,-20,0,-6
3713,43,-23,991,-15,18,-1
3714,-104,-25,991,-17,24,3
3715,-134,-31,984,-17,7,-3
3716,-111,-25,990,-12,-11,-9
3717,39,-7,1013,-10,-24,-13
3718,128,-14,1007,-14,-14,-13
3719,110,-14,1001,-16,7,-5
3720,5,-17,1001,-16,22,0
3721,-126,-25,983,-18,22,2
3722,-146,-26,986,-14,3,-3
3723,-59,-24,999,-15,-17,-12
3724,66,-19,1004,-13,-22,-13
3725,140,-12,1006,-12,-11,-9
3726,79,-18,1004,-16,11,-3
3727,-31,-17,999,-17,23,2
3728,-138,-32,987,-18,18,1
3729,-135,-24,982,-17,-2,-5
3730,-30,-24,1005,-11,-21,-11
3731,90,-16,998,-11,-23,-14
3732,134,-8,1009,-13,-5,-8
3733,64,-13,1008,-17,15,-2
3734,-70,-28,996,-20,26,4
3735,-148,-27,981,-16,13,0
3736,-115,-24,980,-14,-8,-8
3737,8,-19,1006,-12,-22,-13
3738,114,-10,1003,-12,-20,-12
3739,120,-12,1020,-15,2,-6
3740,41,-21,997,-18,19,0
3741,-103,-22,983,-17,24,3
3742,-141,-35,985,-17,9,-4
3743,-104,-25,992,-12,-13,-8
3744,40,-10,1012,-11,-25,-14
3745,132,-15,1008,-13,-16,-12
3746,108,-17,1001,-16,6,-3
3747,6,-24,998,-19,22,2
3748,-126,-26,984,-19,23,2
3749,-141,-28,993,-15,3,-3
3750,-64,-25,993,-15,-16,-10
3751,69,-17,1008,-12,-22,-13
3752,130,-11,1010,-12,-11,-9
3753,89,-14,998,-17,11,-4
3754,-35,-19,1005,-19,26,3
3755,-128,-26,982,-19,18,1
3756,-138,-33,988,-15,-1,-5
3757,-29,-20,990,-12,-22,-11
3758,86,-19,1014,-13,-23,-14
3759,139,-11,1003,-13,-6,-8
3760,57,-10,1003,-16,15,0
3761,-56,-24,1001,-20,24,1
3762,-148,-38,987,-17,14,1
3763,-118,-23,970,-15,-8,-8
3764,0,-24,1010,-12,-24,-13
3765,105,-11,1011,-11,-20,-11
3766,132,-13,1007,-15,0,-6
3767,36,-19,1004,-17,19,0
3768,-90,-19,984,-19,24,3
3769,-142,-34,980,-16,10,-2
3770,-109,-21,992,-12,-10,-8
3771,34,-10,1017,-12,-24,-14
3772,131,-17,1004,-15,-16,-10
3773,112,-11,1000,-16,6,-4
3774,5,-23,1006,-19,22,0
3775,-122,-25,978,-18,22,3
3776,-149,-29,997,-15,4,-3
3777,-61,-25,994,-14,-17,-11
3778,63,-20,1003,-11,-23,-13
3779,137,-5,1013,-13,-12,-9
3780,87,-16,998,-17,11,-3
3781,-34,-24,1005,-17,24,1
3782,-134,-28,982,-20,18,1
3783,-137,-30,987,-16,-1,-7
3784,-25,-19,1000,-10,-21,-13
3785,83,-19,1006,-12,-22,-14
3786,137,-8,1005,-13,-6,-9
3787,61,-24,1004,-17,16,-1
3788,-57,-18,997,-19,25,2
3789,-146,-32,985,-17,15,0
3790,-121,-20,980,-14,-7,-8
3791,0,-18,1002,-13,-23,-12
3792,114,-15,1013,-12,-21,-13
3793,127,-16,1012,-15,1,-6
3794,44,-20,994,-17,20,-2
3795,-101,-24,991,-18,26,4
3796,-148,-28,977,-17,9,-3
3797,-99,-26,996,-14,-13,-9
3798,37,-14,1014,-12,-24,-13
3799,126,-16,1002,-12,-15,-12
3800,123,-16,1009,-14,6,-6
3801,-4,-24,995,-16,24,1
3802,-125,-21,980,-19,23,1
3803,-143,-27,1001,-15,3,-3
3804,-65,-22,985,-13,-16,-11
3805,69,-17,1009,-11,-23,-14
3806,139,-15,1007,-13,-11,-11
3807,82,-17,999,-16,13,-2
3808,-29,-21,1007,-16,25,1
3809,-133,-28,984,-18,18,0
3810,-137,-21,985,-14,-1,-5
3811,-31,-18,996,-12,-21,-13
3812,87,-20,1011,-14,-22,-14
3813,136,-8,1002,-12,-6,-8
3814,64,-19,1007,-19,16,-1
3815,-67,-21,996,-20,25,2
3816,-140,-40,980,-16,14,-1
3817,-123,-19,980,-14,-8,-8
3818,6,-18,1002,-13,-24,-13
3819,107,-5,1016,-11,-19,-14
3820,131,-19,1008,-16,0,-7
3821,35,-17,998,-18,19,-2
3822,-102,-27,991,-18,24,4
3823,-142,-30,977,-18,9,-3
3824,-112,-24,998,-14,-11,-10
3825,48,-15,1015,-13,-26,-14
3826,124,-15,1003,-13,-14,-10
3827,115,-17,1001,-17,5,-4
3828,-3,-25,1005,-19,23,1
3829,-127,-24,980,-16,21,1
3830,-146,-20,992,-15,2,-4
3831,-56,-24,995,-14,-17,-12
3832,65,-18,1005,-11,-24,-13
3833,137,-9,1003,-11,-12,-11
3834,84,-20,1008,-17,12,-2
3835,-35,-24,997,-17,24,2
3836,-135,-22,987,-18,18,0
3837,-138,-33,982,-16,-1,-6
3838,-24,-14,1000,-11,-21,-12
3839,86,-15,1007,-12,-22,-13
3840,142,-12,1012,-13,-5,-8
3841,57,-14,1001,-17,16,1
3842,-64,-33,998,-19,25,1
3843,-145,-30,986,-16,15,0
3844,-120,-26,975,-13,-7,-7
3845,5,-13,1010,-10,-24,-14
3846,117,-13,1007,-12,-18,-12
3847,127,-13,1016,-15,1,-5
3848,33,-23,992,-18,20,2
3849,-99,-23,991,-18,24,2
3850,-148,-29,976,-17,9,-3
3851,-104,-22,995,-13,-12,-9
3852,50,-13,1016,-12,-25,-15
3853,132,-14,1007,-12,-14,-11
3854,108,-14,1000,-16,6,-5
3855,0,-24,1006,-17,24,-1
3856,-124,-27,979,-19,22,2
3857,-146,-21,993,-17,4,-4
3858,-62,-27,994,-15,-17,-11
3859,66,-14,1007,-10,-24,-14
3860,140,-12,1006,-14,-12,-11
3861,80,-10,1006,-16,12,-2
3862,-31,-28,1002,-19,25,2
3863,-144,-25,984,-19,19,1
3864,-131,-33,979,-16,-2,-7
3865,-25,-16,1005,-12,-21,-12
3866,91,-21,999,-12,-21,-14
3867,138,-2,1013,-12,-5,-10
3868,59,-17,1004,-19,16,1
3869,-68,-22,990,-18,26,1
3870,-140,-34,992,-17,13,-2
3871,-125,-22,974,-16,-7,-7
3872,12,-16,1005,-14,-24,-14
3873,112,-15,1013,-13,-18,-12
3874,122,-11,1010,-14,2,-6
3875,36,-22,995,-19,20,0
3876,-107,-22,991,-20,26,3
3877,-140,-41,978,-18,8,-4
3878,-95,-25,993,-12,-13,-10
3879,42,-8,1019,-12,-25,-13
3880,136,-12,1005,-14,-16,-11
3881,102,-21,1004,-16,6,-3
3882,-5,-17,991,-18,22,2
3883,-128,-30,991,-19,21,1
3884,-141,-28,988,-15,1,-5
3885,-59,-20,998,-12,-19,-11
3886,78,-17,1002,-11,-24,-14
3887,137,-12,1009,-13,-8,-9
3888,79,-10,1000,-16,13,-3
3889,-40,-24,1003,-20,26,3
3890,-140,-35,988,-20,18,1
3891,-133,-28,977,-14,-2,-5
3892,-20,-23,1000,-11,-21,-12
3893,89,-10,1009,-12,-20,-12
3894,142,-11,1007,-15,-4,-8
3895,57,-20,1006,-17,18,-2
3896,-82,-24,993,-19,26,4
3897,-135,-35,983,-16,12,-3
3898,-127,-24,983,-16,-7,-5
3899,21,-11,998,-11,-23,-13
3900,115,-13,1021,-12,-18,-12
3901,122,-11,1003,-16,3,-6
3902,30,-31,1001,-18,21,0
3903,-113,-25,988,-17,23,3
3904,-137,-29,979,-18,6,-2
3905,-94,-24,999,-12,-13,-9
3906,43,-7,1014,-13,-23,-11
3907,136,-12,1001,-12,-14,-11
3908,99,-15,1009,-17,7,-4
3909,-3,-30,994,-19,22,1
3910,-131,-19,987,-18,21,1
3911,-139,-32,989,-17,1,-5
3912,-54,-16,996,-13,-18,-11
3913,73,-22,997,-14,-22,-13
3914,138,-8,1012,-13,-10,-9
3915,80,-17,998,-18,14,-1
3916,-44,-20,1004,-18,26,3
3917,-138,-33,984,-21,18,1
3918,-133,-27,980,-15,-3,-6
3919,-18,-21,1000,-12,-22,-12
3920,94,-11,1008,-12,-20,-12
3921,132,-15,1010,-14,-3,-9
3922,59,-15,1002,-18,17,-1
3923,-82,-30,998,-18,25,3
3924,-137,-32,978,-16,12,-3
3925,-125,-23,992,-15,-8,-7
3926,20,-14,989,-13,-23,-14
3927,111,-9,1028,-12,-17,-12
3928,129,-15,998,-17,0,-5
3929,22,-22,1005,-18,21,0
3930,-102,-32,986,-19,22,1
3931,-150,-32,987,-17,6,-1
3932,-84,-27,988,-13,-15,-11
3933,42,-11,1023,-12,-22,-14
3934,140,-11,995,-11,-14,-12
3935,100,-14,1011,-15,9,-4
3936,-6,-22,988,-19,22,2
3937,-137,-28,990,-18,22,3
3938,-138,-28,988,-15,2,-4
3939,-54,-20,1002,-13,-18,-11
3940,73,-22,995,-10,-23,-14
3941,139,-8,1017,-13,-10,-10
3942,84,-18,993,-15,14,-4
3943,-55,-21,1009,-17,25,3
3944,-132,-30,983,-18,16,0
3945,-133,-26,983,-16,-3,-6
3946,-16,-21,995,-13,-22,-14
3947,96,-8,1012,-11,-22,-13
3948,133,-14,1010,-13,-4,-8
3949,59,-11,997,-17,16,0
3950,-80,-30,999,-19,26,3
3951,-140,-31,979,-16,11,-2
3952,-116,-37,985,-16,-9,-9
3953,12,-4,1004,-10,-24,-13
3954,123,-10,1017,-14,-19,-12
3955,117,-13,1004,-16,2,-5
3956,28,-15,1002,-19,20,2
3957,-107,-28,989,-19,24,3
3958,-155,-37,974,-19,7,-3
3959,-83,-28,998,-13,-15,-11
3960,38,-16,1019,-12,-23,-13
3961,140,-13,997,-13,-15,-13
3962,110,-9,1005,-14,8,-4
3963,-12,-20,1004,-18,23,2
3964,-133,-28,976,-19,21,1
3965,-149,-27,999,-16,2,-4
3966,-53,-26,989,-13,-18,-12
3967,74,-17,1008,-11,-23,-13
3968,145,-20,1003,-12,-9,-10
3969,75,-9,1008,-15,14,-2
3970,-39,-25,1001,-17,24,2
3971,-142,-29,988,-17,17,0
3972,-134,-22,976,-15,-3,-6
3973,-15,-19,1003,-11,-21,-11
3974,88,-12,1008,-12,-21,-12
3975,133,-10,1008,-15,-5,-8
3976,62,-28,1005,-19,16,-1
3977,-88,-21,988,-18,27,4
3978,-129,-36,986,-15,11,-3
3979,-125,-25,984,-13,-8,-6
3980,13,-5,997,-12,-23,-13
3981,124,-10,1025,-13,-19,-14
3982,124,-19,1003,-18,1,-5
3983,22,-14,997,-19,20,1
3984,-100,-34,990,-20,23,2
3985,-151,-34,984,-16,8,-2
3986,-92,-24,986,-12,-13,-9
3987,46,-5,1028,-11,-24,-15
3988,141,-18,998,-14,-15,-13
3989,100,-11,1001,-14,8,-4
3990,-2,-17,1006,-19,22,1
3991,-135,-32,982,-19,22,3
3992,-141,-24,985,-16,2,-5
3993,-54,-36,1004,-13,-18,-12
3994,72,-10,996,-8,-23,-15
3995,142,-19,1008,-13,-9,-10
3996,76,-6,1004,-13,14,-2
3997,-39,-27,1001,-20,25,3
3998,-139,-28,987,-17,17,-1
3999,-137,-28,978,-15,-3,-3
4000,-13,-23,997,-12,-22,-13
4001,90,-14,1012,-11,-21,-14
4002,137,-12,1006,-14,-4,-8
4003,55,-5,1010,-15,17,-1
4004,-72,-31,984,-20,24,2
4005,-143,-23,992,-16,14,0
4006,-121,-29,978,-17,-7,-7
4007,18,-10,1004,-10,-23,-13
4008,116,-16,1021,-14,-18,-12
4009,127,-16,998,-16,2,-6
4010,20,-23,1004,-17,21,0
4011,-105,-23,982,-19,24,3
4012,-147,-30,985,-17,8,-3
4013,-86,-28,992,-14,-14,-10
4014,43,-8,1020,-13,-23,-13
4015,141,-16,1000,-13,-15,-12
4016,99,-15,1004,-16,9,-4
4017,-5,-23,1002,-21,22,1
4018,-135,-24,986,-20,21,2
4019,-140,-29,990,-19,1,-4
4020,-50,-27,1002,-15,-18,-11
4021,77,-17,1001,-11,-23,-13
4022,140,-15,1008,-13,-10,-10
4023,69,-8,1003,-16,13,-2
4024,-43,-21,1001,-19,25,2
4025,-143,-29,985,-20,18,1
4026,-124,-31,978,-14,-6,-5
4027,-22,-25,1001,-11,-22,-13
4028,97,-14,1010,-13,-22,-13
4029,135,-21,1009,-14,-4,-8
4030,53,-14,999,-15,17,-1
4031,-77,-28,993,-19,24,2
4032,-146,-24,982,-16,12,-1
4033,-118,-23,986,-14,-10,-8
4034,20,-9,1004,-11,-25,-13
4035,119,-26,1011,-16,-18,-13
4036,128,-16,1009,-15,3,-6
4037,18,-24,998,-17,21,2
4038,-108,-25,982,-18,23,1
4039,-146,-22,989,-16,6,-3
4040,-84,-21,994,-14,-14,-9
4041,48,-11,1010,-13,-24,-13
4042,135,-18,1008,-13,-14,-11
4043,101,-16,1001,-17,9,-5
4044,-13,-29,993,-19,24,2
4045,-129,-28,992,-17,22,0
4046,-146,-25,991,-16,3,-4
4047,-43,-20,994,-11,-18,-12
4048,72,-21,1002,-11,-22,-14
4049,139,-8,1013,-13,-10,-8
4050,72,-14,994,-17,13,-2
4051,-54,-21,1007,-19,25,3
4052,-136,-34,980,-19,15,0
4053,-131,-27,976,-9,-7,-8
4054,-6,-23,1003,-9,-24,-14
4055,94,-13,1007,-12,-21,-13
4056,128,-16,1007,-15,-3,-6
4057,47,-7,1005,-18,17,0
4058,-77,-28,985,-20,24,1
4059,-147,-27,990,-18,10,-1
4060,-112,-32,979,-16,-11,-9
4061,26,-16,1010,-10,-24,-15
4062,116,-18,1009,-12,-17,-13
4063,125,-12,1007,-14,3,-6
4064,15,-24,1002,-15,21,1
4065,-114,-14,980,-18,23,4
4066,-143,-34,988,-17,7,-3
4067,-87,-21,995,-14,-14,-8
4068,47,-14,1006,-14,-24,-13
4069,144,-17,1010,-12,-15,-11
4070,96,-13,1000,-15,10,-3
4071,-15,-19,994,-20,24,1
4072,-125,-26,993,-17,20,-1
4073,-140,-21,986,-17,1,-4
4074,-44,-28,999,-15,-19,-12
4075,75,-26,1008,-11,-23,-15
4076,139,-12,997,-13,-7,-9
4077,72,-11,1012,-15,14,-3
4078,-44,-16,997,-19,25,2
4079,-148,-25,990,-18,18,1
4080,-124,-28,973,-14,-6,-8
4081,-10,-20,1007,-13,-22,-13
4082,94,-17,1000,-14,-20,-12
4083,138,-12,1018,-13,-3,-8
4084,50,-23,1000,-18,18,-1
4085,-85,-23,985,-16,26,3
4086,-140,-29,994,-14,10,-1
4087,-119,-20,980,-13,-7,-7
4088,26,-9,1004,-12,-24,-14
4089,121,-13,1022,-15,-17,-13
4090,120,-23,1000,-17,4,-5
4091,18,-26,995,-17,21,0
4092,-115,-20,994,-18,22,3
4093,-144,-30,981,-17,5,-3
4094,-84,-25,996,-13,-14,-12
4095,53,-15,1018,-10,-24,-13
4096,139,-13,999,-13,-13,-12
4097,92,-12,1003,-17,10,-2
4098,-19,-19,998,-18,24,1
4099,-133,-28,986,-18,19,0
4100,-142,-21,989,-15,0,-6
4101,-39,-18,999,-13,-19,-12
4102,76,-23,1006,-13,-23,-15
4103,136,-13,1001,-14,-8,-9
4104,68,-20,1009,-16,14,-2
4105,-53,-17,1003,-18,24,3
4106,-144,-29,980,-20,16,1
4107,-121,-27,987,-15,-5,-8
4108,-2,-20,994,-15,-23,-11
4109,104,-12,1010,-14,-20,-14
4110,128,-20,1014,-15,-1,-7
4111,43,-18,998,-18,17,1
4112,-88,-31,983,-18,24,1
4113,-141,-24,995,-16,11,-2
4114,-105,-22,978,-16,-11,-8
4115,29,-9,1010,-11,-24,-14
4116,124,-21,1015,-13,-17,-12
4117,111,-15,1004,-15,5,-6
4118,12,-33,996,-17,20,0
4119,-119,-15,985,-15,23,1
4120,-138,-31,986,-18,5,-3
4121,-78,-17,999,-11,-15,-10
4122,56,-16,1009,-13,-23,-13
4123,139,-20,1012,-13,-13,-12
4124,81,-18,993,-15,10,-2
4125,-20,-21,998,-19,23,1
4126,-133,-26,994,-16,19,0
4127,-140,-22,979,-14,-1,-4
4128,-34,-16,1005,-12,-19,-12
4129,78,-24,1002,-12,-22,-14
4130,133,-12,1003,-13,-7,-8
4131,67,-17,1003,-18,15,-2
4132,-54,-30,1005,-16,23,2
4133,-143,-29,979,-15,14,2
4134,-123,-22,984,-12,-5,-8
4135,0,-16,1001,-11,-22,-13
4136,93,-11,1007,-11,-19,-12
4137,128,-13,1011,-15,-2,-6
4138,41,-21,1004,-17,17,-1
4139,-88,-24,986,-16,23,3
4140,-141,-25,990,-17,10,-3
4141,-105,-21,986,-16,-12,-10
4142,32,-13,1006,-12,-24,-14
4143,126,-24,1016,-15,-16,-11
4144,108,-26,998,-16,6,-2
4145,6,-27,999,-15,21,2
4146,-114,-18,985,-15,22,1
4147,-137,-18,988,-14,6,-5
4148,-69,-10,996,-14,-14,-10
4149,58,-6,1018,-15,-22,-13
4150,127,-25,996,-15,-11,-10
4151,76,-25,1004,-16,10,-2
4152,-23,-34,992,-19,21,0
4153,-129,-30,992,-15,18,0
4154,-122,-19,989,-13,-1,-7
4155,-32,-17,1003,-12,-19,-11
4156,79,-16,1000,-12,-21,-12
4157,123,-9,1005,-13,-6,-8
4158,61,-21,1005,-17,14,-1
4159,-54,-20,1001,-18,24,3
4160,-129,-32,980,-19,13,0
4161,-119,-23,982,-12,-6,-6
4162,4,-21,999,-12,-22,-12
4163,90,-21,1011,-11,-17,-12
4164,127,-15,1010,-13,-1,-6
4165,35,-18,1000,-17,19,-1
4166,-80,-20,988,-18,22,1
4167,-139,-18,988,-17,9,-1
4168,-102,-15,986,-16,-9,-9
4169,29,-21,1012,-14,-22,-14
4170,109,-21,1000,-14,-15,-11
4171,110,-22,1009,-14,4,-6
4172,12,-29,997,-16,19,0
4173,-106,-14,985,-17,21,2
4174,-134,-17,989,-17,5,-5
4175,-73,-18,1000,-16,-15,-10
4176,52,-11,1002,-14,-22,-12
4177,126,-30,1010,-15,-12,-10
4178,81,-19,996,-16,9,-3
4179,-16,-21,1004,-16,22,0
4180,-128,-24,984,-16,18,0
4181,-127,-21,990,-15,0,-5
4182,-29,-22,1002,-13,-18,-12
4183,65,-21,999,-13,-20,-13
4184,130,-15,1005,-14,-8,-9
4185,60,-23,1011,-18,15,-1
4186,-50,-25,994,-16,24,2
4187,-131,-23,990,-18,15,-1
4188,-111,-26,982,-14,-3,-8
4189,-5,-7,994,-13,-19,-12
4190,93,-22,1012,-14,-20,-12
4191,113,-16,1011,-12,-1,-6
4192,37,-17,990,-18,17,-1
4193,-74,-29,998,-18,21,0
4194,-131,-25,985,-16,9,-1
4195,-98,-17,984,-15,-9,-8
4196,19,-14,1014,-10,-22,-13
4197,111,-15,1004,-13,-16,-11
4198,103,-26,1005,-14,5,-4
4199,13,-17,996,-15,21,2
4200,-105,-24,995,-19,22,1
4201,-131,-19,980,-16,5,-4
4202,-74,-22,1004,-14,-14,-11
4203,55,-18,1003,-13,-22,-14
4204,119,-24,1004,-12,-11,-9
4205,89,-16,997,-15,8,-4
4206,-21,-22,1002,-18,22,2
4207,-125,-17,985,-19,18,1
4208,-127,-15,993,-18,0,-6
4209,-35,-28,1000,-15,-17,-11
4210,73,-20,997,-14,-20,-13
4211,121,-21,1006,-15,-8,-9
4212,64,-20,1004,-15,13,-3
4213,-45,-20,1004,-16,23,1
4214,-131,-25,987,-17,14,-1
4215,-109,-20,979,-14,-5,-7
4216,-11,-20,999,-12,-20,-12
4217,87,-14,1002,-13,-19,-13
4218,118,-20,1019,-15,-2,-7
4219,42,-11,994,-16,16,-1
4220,-70,-22,993,-17,23,2
4221,-135,-30,985,-18,10,-2
4222,-104,-21,987,-15,-10,-8
4223,15,-18,1009,-12,-22,-13
4224,110,-20,1007,-14,-16,-11
4225,115,-23,1004,-14,1,-6
4226,16,-19,999,-15,19,0
4227,-101,-16,985,-16,20,-1
4228,-136,-22,991,-16,6,-4
4229,-70,-22,993,-15,-13,-10
4230,41,-16,1008,-14,-21,-12
4231,122,-25,999,-14,-13,-12
4232,91,-23,1008,-16,8,-4
4233,-14,-21,992,-18,21,2
4234,-118,-15,996,-17,19,-1
4235,-127,-30,984,-16,2,-6
4236,-40,-13,999,-12,-17,-11
4237,66,-27,1000,-14,-20,-11
4238,122,-17,1006,-13,-8,-8
4239,66,-20,1001,-16,12,-2
4240,-50,-14,1007,-16,22,1
4241,-124,-29,985,-17,14,-1
4242,-118,-23,984,-14,-4,-6
4243,-8,-21,994,-13,-20,-11
4244,95,-18,1010,-12,-16,-13
4245,110,-21,1013,-14,-1,-7
4246,46,-11,990,-17,17,-1
4247,-81,-22,995,-17,23,1
4248,-130,-15,990,-18,9,-2
4249,-92,-25,981,-17,-10,-9
4250,15,-15,1013,-13,-21,-13
4251,114,-25,1006,-18,-15,-12
4252,102,-30,1000,-13,4,-7
4253,15,-19,1000,-16,18,0
4254,-107,-16,992,-16,20,0
4255,-129,-19,987,-14,5,-4
4256,-69,-19,998,-16,-14,-9
4257,49,-22,1001,-14,-22,-13
4258,121,-16,1007,-14,-12,-9
4259,82,-28,996,-17,9,-4
4260,-20,-18,1005,-16,21,1
4261,-116,-24,991,-18,17,0
4262,-126,-26,986,-13,1,-7
4263,-41,-15,999,-11,-17,-11
4264,72,-16,999,-16,-20,-14
4265,119,-15,1011,-13,-6,-9
4266,64,-14,995,-16,13,-2
4267,-56,-26,1015,-18,24,0
4268,-117,-29,972,-18,13,-2
4269,-117,-21,991,-14,-4,-7
4270,4,-20,989,-14,-21,-15
4271,81,-22,1014,-13,-17,-11
4272,116,-16,1012,-13,-1,-6
4273,32,-19,999,-18,17,0
4274,-73,-19,991,-17,22,0
4275,-131,-26,986,-18,9,-2
4276,-98,-14,985,-16,-9,-9
4277,29,-23,1018,-16,-21,-12
4278,108,-14,1000,-15,-15,-10
4279,103,-27,1002,-15,3,-4
4280,13,-17,1001,-15,19,0
4281,-113,-18,985,-19,21,1
4282,-126,-18,988,-15,4,-6
4283,-73,-29,999,-15,-13,-9
4284,57,-16,995,-13,-21,-13
4285,123,-25,1017,-12,-12,-9
4286,83,-10,989,-15,8,-3
4287,-26,-26,1015,-17,21,1
4288,-126,-15,981,-17,18,-1
4289,-129,-24,989,-19,1,-5
4290,-25,-22,999,-14,-19,-13
4291,76,-26,1002,-16,-20,-12
4292,123,-17,1001,-13,-6,-10
4293,54,-21,1009,-16,13,-1
4294,-61,-20,990,-17,23,2
4295,-135,-28,989,-15,12,-1
4296,-103,-18,981,-15,-8,-8
4297,2,-17,1001,-14,-20,-12
4298,106,-16,1009,-13,-18,-12
4299,109,-31,1013,-14,1,-6
4300,29,-19,994,-15,17,0
4301,-92,-20,985,-17,21,1
4302,-136,-24,989,-16,7,-5
4303,-80,-14,989,-15,-12,-10
4304,32,-15,1016,-14,-21,-12
4305,116,-23,996,-14,-15,-10
4306,95,-36,1007,-16,6,-5
4307,3,-25,995,-13,21,1
4308,-124,-10,984,-15,21,0
4309,-124,-16,998,-15,3,-7
4310,-59,-16,992,-17,-15,-10
4311,59,-18,999,-14,-21,-11
4312,125,-26,1005,-15,-10,-10
4313,72,-25,1003,-17,11,-2
4314,-28,-25,994,-14,23,0
4315,-129,-29,993,-18,16,-1
4316,-116,-10,986,-12,-3,-6
4317,-20,-20,993,-12,-18,-11
4318,77,-15,1007,-14,-19,-13
4319,123,-23,1009,-15,-5,-8
4320,48,-22,1004,-16,16,-1
4321,-66,-29,994,-18,22,1
4322,-130,-19,993,-14,11,-3
4323,-108,-17,978,-16,-7,-8
4324,15,-9,1002,-13,-20,-14
4325,100,-26,1017,-14,-17,-12
4326,114,-23,998,-16,3,-5
4327,20,-28,1006,-14,18,1
4328,-90,-25,978,-15,20,1
4329,-139,-17,994,-14,7,-4
4330,-77,-18,991,-13,-13,-10
4331,34,-4,1016,-14,-20,-12
4332,124,-21,998,-16,-14,-11
4333,91,-31,1000,-16,7,-5
4334,-6,-25,1002,-17,20,2
4335,-125,-23,985,-15,19,1
4336,-129,-17,995,-13,1,-5
4337,-45,-17,995,-14,-18,-11
4338,67,-10,1002,-12,-21,-12
4339,130,-18,1005,-16,-8,-9
4340,68,-19,1003,-17,13,-2
4341,-47,-32,997,-17,23,1
4342,-126,-20,986,-18,14,-2
4343,-125,-21,983,-15,-4,-7
4344,-4,-14,999,-13,-22,-14
4345,89,-19,1011,-14,-20,-12
4346,112,-19,1004,-15,-3,-7
4347,53,-31,998,-19,14,-2
4348,-75,-30,998,-16,23,2
4349,-131,-13,980,-14,10,-1
4350,-105,-15,991,-16,-9,-10
4351,25,-7,1006,-13,-23,-12
4352,101,-22,1006,-16,-16,-10
4353,112,-27,1012,-17,2,-6
4354,16,-38,998,-16,19,0
4355,-103,-21,979,-16,21,1
4356,-124,-16,993,-14,5,-4
4357,-81,-13,1000,-13,-12,-10
4358,51,-11,1003,-14,-20,-12
4359,121,-20,1014,-13,-12,-9
4360,81,-25,990,-17,7,-3
4361,-24,-33,996,-16,20,1
4362,-112,-25,988,-14,17,-1
4363,-122,-13,997,-12,1,-5
4364,-25,-13,993,-13,-17,-13
4365,69,-16,1008,-11,-18,-12
4366,113,-19,1000,-15,-7,-7
4367,47,-30,993,-16,12,-2
4368,-53,-31,1003,-16,21,0
4369,-117,-18,989,-16,11,-2
4370,-100,-12,984,-13,-4,-8
4371,4,-4,1010,-15,-18,-12
4372,75,-19,997,-17,-15,-10
4373,98,-28,1010,-16,-1,-6
4374,29,-36,998,-18,14,0
4375,-72,-23,988,-15,19,0
4376,-109,-20,995,-13,6,-3
4377,-87,-11,992,-13,-7,-9
4378,30,-12,1003,-12,-19,-12
4379,95,-21,1007,-15,-12,-9
4380,82,-29,1003,-17,3,-3
4381,7,-32,992,-15,17,-1
4382,-96,-20,989,-15,19,1
4383,-111,-3,992,-13,3,-6
4384,-52,-24,1002,-15,-11,-11
4385,47,-16,1007,-14,-18,-12
4386,104,-25,1002,-15,-9,-9
4387,63,-37,999,-14,9,-4
4388,-32,-27,996,-16,19,1
4389,-108,-11,992,-16,14,-2
4390,-106,-5,998,-14,-2,-8
4391,-14,-12,999,-12,-16,-13
4392,70,-24,996,-18,-16,-12
4393,92,-27,1006,-16,-3,-6
4394,38,-42,992,-16,11,-2
4395,-56,-26,1005,-13,19,0
4396,-107,-22,983,-13,10,-5
4397,-83,3,990,-10,-5,-8
4398,13,0,1003,-13,-18,-11
4399,76,-24,996,-15,-12,-11
4400,88,-34,1019,-17,1,-6
4401,15,-38,986,-17,15,1
4402,-81,-23,984,-13,18,1
4403,-102,-14,1000,-14,5,-5
4404,-70,7,994,-12,-8,-10
4405,30,-9,1000,-16,-17,-12
4406,93,-31,1018,-18,-10,-10
