sequence,AccelerometerX,AccelerometerY,AccelerometerZ,GyroscopeX,GyroscopeY,GyroscopeZ
0,180,25,994,-17,11,-2
1,18,15,1007,-13,33,2
2,-160,6,990,-17,30,3
3,-212,-2,981,-13,5,-2
4,-134,11,972,-4,-24,-7
5,73,41,1017,1,-33,-11
6,195,34,1018,-19,-19,-10
7,190,31,996,-9,10,-4
8,46,17,1002,-22,30,1
9,-144,6,988,-10,31,2
10,-213,-3,986,-10,8,-2
11,-149,16,975,-14,-19,-6
12,47,33,1009,-8,-32,-12
13,187,36,1020,-19,-21,-10
14,200,30,1008,-17,5,-3
15,72,23,991,-14,30,0
16,-130,3,996,-17,33,3
17,-216,2,976,-11,10,-1
18,-164,9,982,-14,-16,-6
19,25,29,1016,-12,-33,-11
20,168,36,1010,-13,-22,-9
21,219,35,1006,-16,2,-6
22,81,16,1000,-14,28,2
23,-103,6,997,-14,33,4
24,-213,-3,972,-15,16,1
25,-176,15,977,-11,-12,-5
26,3,28,1018,-16,-33,-10
27,151,31,1012,-15,-26,-12
28,225,40,998,-13,-1,-7
29,105,19,1008,-15,27,0
30,-84,2,998,-14,35,3
31,-210,0,973,-11,18,-1
32,-185,13,971,-11,-9,-5
33,-25,26,1014,-11,-31,-11
34,149,37,1016,-16,-27,-11
35,218,38,1011,-14,-4,-7
36,122,26,1000,-17,23,0
37,-66,-1,997,-15,35,3
38,-201,1,971,-12,20,1
39,-198,2,979,-13,-7,-4
40,-52,31,1007,-10,-31,-9
41,127,32,1007,-15,-31,-11
42,226,47,1017,-16,-9,-7
43,135,24,1008,-17,21,1
44,-36,8,998,-15,35,1
45,-193,-3,969,-14,24,2
46,-210,4,981,-12,-3,-3
47,-72,15,1001,-13,-29,-9
48,118,36,1008,-14,-31,-10
49,218,44,1009,-13,-11,-9
50,150,30,1016,-17,19,-2
51,-15,9,1007,-16,34,1
52,-180,1,964,-12,26,2
53,-208,0,978,-11,1,-3
54,-100,12,1000,-13,-27,-8
55,108,42,1008,-13,-34,-10
56,220,38,1009,-16,-14,-8
57,170,31,1006,-15,15,-1
58,2,17,1021,-15,34,2
59,-187,0,974,-15,28,2
60,-222,-3,960,-10,2,-3
61,-116,13,997,-11,-27,-8
62,102,43,1025,-14,-35,-10
63,228,38,1006,-15,-16,-8
64,181,31,1001,-16,15,-2
65,14,9,1003,-15,34,2
66,-168,3,991,-14,30,4
67,-227,3,985,-9,5,-1
68,-137,0,968,-10,-21,-8
69,90,43,1021,-11,-36,-8
70,219,28,1015,-16,-18,-7
71,200,13,1007,-13,14,-3
72,13,-55,997,-16,40,-6
73,-185,-2,973,4,31,1
74,-232,115,769,-3,36,-23
75,-143,96,581,-233,187,-95
76,160,-54,444,-108,89,-47
77,161,-44,794,12,-8,-3
78,190,-9,450,-231,41,11
79,60,-56,578,158,78,2
80,-109,11,630,-70,6,6
81,-255,18,833,-34,8,6
82,-178,82,905,105,3,-10
83,0,82,985,-133,-34,-9
84,190,58,967,45,-31,-14
85,250,10,990,-20,-11,2
86,112,-24,990,-83,29,-2
87,-110,-56,946,51,59,5
88,-232,-23,975,-51,10,3
89,-199,28,994,8,-25,-4
90,3,62,988,19,-32,-10
91,179,57,1014,-56,-20,-8
92,235,44,1002,15,9,-5
93,101,34,1014,-27,21,3
94,-112,-11,994,-23,28,5
95,-237,-5,973,7,24,1
96,-182,-4,976,-33,-10,-6
97,-20,22,1011,-2,-36,-10
98,168,42,1018,-10,-34,-11
99,247,42,1010,-25,-4,-5
100,126,35,997,-2,31,2
101,-72,-6,1010,-22,41,4
102,-232,-1,968,-11,23,1
103,-211,5,961,-5,-10,-3
104,-42,25,1022,-19,-34,-8
105,140,44,1011,-11,-29,-11
106,241,44,1014,-20,-8,-8
107,136,25,1004,-22,24,1
108,-48,0,1008,-10,37,1
109,-207,-21,945,-18,24,2
110,-230,3,978,-6,-4,-5
111,-92,-49,1014,-7,-31,-17
112,133,-32,1002,-2,-37,-19
113,269,89,1011,13,-13,-7
114,186,105,1022,-6,22,-2
115,-22,92,1020,-13,40,4
116,-212,37,959,-23,29,4
117,-262,-18,966,-29,0,-1
118,-100,-45,1006,-21,-33,-10
119,130,-22,1004,-15,-37,-14
120,259,8,1001,-6,-15,-10
121,184,75,1005,-2,20,-4
122,-7,75,995,-7,32,-8
123,-203,42,948,-31,46,-4
124,-246,16,893,-25,3,-9
125,-111,-12,942,-24,-29,-11
126,93,4,1006,-28,-39,-11
127,242,12,1012,-5,-17,-11
128,194,13,995,-25,12,-2
129,27,24,1004,1,29,1
130,-174,14,997,-15,32,4
131,-251,19,973,-15,6,-2
132,-137,11,965,-5,-28,-7
133,83,64,1029,-24,-41,-9
134,221,30,1023,-16,-18,-10
135,233,6,984,-26,10,-1
136,77,-98,928,-15,35,4
137,-142,-87,983,14,45,-1
138,-273,-14,952,15,24,-3
139,-208,127,982,25,-17,-6
140,32,179,1024,-9,-45,-11
141,210,134,1023,-31,-31,-13
142,239,64,999,-32,7,2
143,64,-66,982,-15,21,-9
144,-103,-134,992,-24,40,-2
145,-245,-109,950,21,12,-5
146,-159,-4,941,-4,-11,-11
147,0,70,1022,19,-33,-10
148,184,139,1004,6,-29,-15
149,221,92,999,-26,-5,-3
150,84,90,1015,-4,27,2
151,-105,-26,1004,-42,36,3
152,-229,-57,965,-18,15,0
153,-183,-55,975,-9,-20,-4
154,16,0,1028,-10,-40,-12
155,174,34,1009,4,-24,-12
156,228,85,996,-7,4,-4
157,97,74,1016,-14,28,1
158,-111,37,996,-16,32,4
159,-224,-8,966,-28,15,0
160,-190,-21,982,-16,-11,-6
161,1,-14,1013,-15,-36,-11
162,166,12,1009,-9,-28,-13
163,233,41,1006,-2,-2,-6
164,110,48,1006,-13,28,0
165,-90,32,1002,-11,36,2
166,-226,22,967,-15,18,0
167,-195,14,978,-18,-13,-5
168,-25,8,1011,-16,-34,-9
169,153,12,1014,-17,-29,-10
170,238,23,1006,-12,-5,-7
171,125,21,1004,-10,25,0
172,-64,14,999,-10,37,3
173,-214,18,969,-7,22,1
174,-204,22,980,-13,-7,-4
175,-49,24,1004,-15,-32,-9
176,138,31,1011,-18,-31,-11
177,232,26,1010,-17,-8,-8
178,133,15,1010,-14,23,0
179,-35,0,1001,-13,33,1
180,-201,3,963,-10,25,2
181,-206,19,981,-8,-4,-3
182,-76,22,1006,-14,-29,-9
183,125,46,1007,-14,-32,-11
184,224,32,1007,-17,-9,-9
185,150,22,1012,-17,19,-1
186,-15,1,1012,-16,33,2
187,-185,1,965,-12,26,2
188,-212,1,973,-10,0,-2
189,-95,17,1000,-10,-26,-8
190,105,46,1017,-16,-32,-10
191,217,40,999,-17,-12,-10
192,166,24,1008,-17,15,-2
193,2,11,1008,-15,32,2
194,-172,2,982,-13,27,3
195,-211,-3,978,-11,3,-2
196,-119,18,983,-10,-24,-6
197,91,43,1022,-14,-34,-10
198,203,37,1013,-14,-15,-10
199,179,29,995,-16,12,-3
200,31,15,1002,-14,33,0
201,-162,6,995,-13,31,2
202,-210,0,979,-13,5,-3
203,-141,11,977,-13,-20,-6
204,72,39,1010,-13,-34,-11
205,194,34,1021,-15,-18,-10
206,194,30,1003,-15,8,-4
207,47,17,996,-13,31,0
208,-140,6,989,-12,31,3
209,-219,-2,981,-10,10,0
210,-147,16,982,-12,-18,-7
211,44,32,1009,-12,-33,-10
212,180,34,1015,-15,-20,-11
213,204,32,1004,-16,5,-4
214,67,16,997,-14,28,0
215,-117,3,993,-12,32,2
216,-215,-1,972,-9,13,-1
217,-159,19,979,-10,-16,-6
218,18,30,1023,-12,-34,-12
219,164,35,1009,-15,-23,-11
220,211,31,1000,-14,3,-6
221,87,19,1001,-13,29,1
222,-98,0,1004,-13,34,3
223,-210,5,963,-12,15,-1
224,-173,12,977,-13,-11,-5
225,-4,30,1018,-12,-31,-10
226,148,36,1016,-16,-24,-11
227,215,34,1005,-14,-2,-7
228,101,24,1006,-15,25,-1
229,-71,3,995,-14,32,1
230,-207,1,969,-9,19,1
231,-183,16,984,-12,-9,-4
232,-31,23,1005,-14,-30,-9
233,139,35,1012,-16,-28,-11
234,222,38,1011,-16,-5,-8
235,112,22,1009,-16,23,0
236,-47,3,995,-15,33,3
237,-199,0,967,-10,22,0
238,-196,12,984,-10,-5,-4
239,-59,20,1004,-14,-29,-7
240,130,43,1009,-15,-29,-10
241,213,35,1007,-15,-8,-9
242,136,25,1016,-15,20,-1
243,-28,5,1008,-14,32,2
244,-189,5,964,-11,24,3
245,-199,4,977,-11,-1,-4
246,-86,20,1004,-12,-26,-8
247,114,40,1008,-13,-31,-11
248,214,35,1008,-15,-12,-10
249,149,25,1002,-16,17,-1
250,-3,10,1011,-14,32,-1
251,-175,6,981,-12,27,1
252,-208,1,969,-10,2,-3
253,-105,17,991,-11,-24,-8
254,94,35,1028,-13,-31,-10
255,202,37,1002,-14,-15,-9
256,177,21,1002,-15,13,-3
257,12,17,999,-14,32,2
258,-158,8,993,-13,29,1
259,-208,-1,984,-12,3,-2
260,-131,15,974,-10,-22,-6
261,77,35,1012,-13,-33,-11
262,191,35,1024,-14,-18,-11
263,188,25,998,-15,9,-3
264,46,16,996,-13,30,0
265,-141,4,993,-14,30,3
266,-213,6,983,-10,9,-1
267,-146,12,979,-12,-18,-7
268,48,35,1011,-11,-33,-10
269,183,36,1012,-15,-20,-11
270,204,25,1009,-17,7,-5
271,63,20,998,-14,29,1
272,-124,4,988,-16,32,3
273,-215,1,981,-10,12,-1
274,-160,16,977,-11,-15,-5
275,25,33,1020,-13,-34,-10
276,165,33,1012,-16,-23,-10
277,215,35,1000,-15,3,-4
278,83,12,1000,-16,28,0
279,-106,5,1000,-12,33,2
280,-205,0,967,-11,14,-1
281,-175,17,978,-9,-12,-4
282,1,27,1015,-13,-32,-10
283,139,68,1020,-14,-24,-11
284,221,30,949,-25,-5,-5
285,94,-4,1044,-15,23,-1
286,-65,21,970,-7,24,6
287,-179,-37,840,-19,8,4
288,-211,11,910,4,-1,-1
289,-24,39,1037,-16,-28,-7
290,130,45,990,-21,-32,-9
291,234,42,997,-4,-10,-7
292,137,20,997,-29,28,2
293,-55,-33,1017,-16,44,0
294,-210,-26,964,1,25,-2
295,-279,128,1020,-28,-8,-5
296,-150,19,628,110,-163,-20
297,229,-119,437,-93,8,64
298,228,2,658,210,-68,10
299,76,29,252,-130,13,39
300,-4,-15,574,-191,106,22
301,-179,32,672,328,65,-9
302,-128,-4,401,-507,31,-13
303,-6,77,599,400,-38,-14
304,55,53,834,-227,-81,-20
305,144,8,810,-116,28,-12
306,66,26,866,292,99,-2
307,-4,-26,994,-376,-4,6
308,-155,-41,1031,274,-5,-9
309,-210,23,930,-71,5,2
310,-101,26,995,-128,10,-8
311,111,60,1021,213,-11,-14
312,110,182,768,-218,-64,10
313,148,0,453,98,-1,11
314,0,48,650,-35,52,18
315,-81,-37,457,-117,12,3
316,-175,-120,406,132,-11,-1
317,-95,36,543,-82,-63,2
318,58,121,607,16,3,-11
319,161,71,867,-5,22,-10
320,107,115,638,-52,-23,6
321,105,-5,775,-10,-3,-6
322,-142,-70,907,-11,51,2
323,-197,-33,873,-33,41,5
324,-126,-33,715,10,-24,-11
325,58,-29,820,0,-55,-9
326,173,16,776,-4,-6,-10
327,115,212,874,20,33,-6
328,-12,-138,465,-37,0,22
329,-111,-25,329,-10,44,-5
330,-87,-69,498,-63,0,-1
331,-191,-81,379,11,-13,-5
332,17,-64,353,6,-9,-59
333,75,-58,415,-102,3,-18
334,303,90,374,62,36,-6
335,73,33,416,-59,41,0
336,-167,113,605,-11,52,8
337,-138,-87,765,-36,8,-11
338,-235,-8,648,-12,-11,5
339,25,-5,606,-17,-44,-12
340,171,25,710,8,-9,-21
341,135,160,802,-87,33,-5
342,106,-47,602,-35,75,-24
343,-59,-5,738,-23,55,-2
344,-212,108,459,-57,60,-9
345,-127,-124,387,-17,54,-37
346,-83,83,678,-17,1,-10
347,148,52,705,-44,-85,-31
348,219,-9,683,41,9,-17
349,93,42,931,-52,62,8
350,-36,13,941,14,37,-11
351,-174,0,897,-8,-17,4
352,-235,48,951,-13,-28,4
353,-18,17,1013,-1,-1,-17
354,110,14,981,-37,-6,-5
355,208,56,999,-1,-31,-6
356,155,-5,1047,-16,-1,-4
357,-40,6,979,-21,44,5
358,-183,1,943,0,45,1
359,-204,13,1024,-16,-8,-3
360,-73,31,981,-12,-45,-7
361,111,41,991,-12,-26,-12
362,216,34,1033,-21,2,-8
363,149,21,1012,-14,19,-1
364,-8,0,995,-15,24,0
365,-185,1,982,-11,22,4
366,-200,8,970,-9,5,-3
367,-102,14,990,-15,-21,-8
368,101,51,1023,-9,-35,-10
369,217,36,1006,-15,-18,-10
370,159,23,994,-15,17,-3
371,3,12,1016,-12,36,1
372,-168,2,991,-13,27,1
373,-208,-3,960,-9,0,-3
374,-119,17,983,-10,-21,-7
375,86,36,1029,-15,-31,-10
376,204,36,1010,-15,-15,-10
377,177,25,993,-17,10,-3
378,28,18,1008,-14,31,2
379,-152,5,992,-14,30,3
380,-212,-2,977,-12,6,-2
381,-142,11,975,-13,-20,-7
382,68,38,1014,-12,-35,-11
383,192,33,1017,-14,-17,-10
384,191,28,1007,-15,10,-4
385,49,19,997,-15,29,2
386,-139,6,984,-13,30,3
387,-215,2,984,-11,9,-3
388,-152,12,976,-12,-16,-6
389,46,34,1013,-12,-32,-10
390,180,33,1016,-14,-21,-11
391,204,32,1007,-15,5,-5
392,69,16,1001,-13,28,0
393,-121,6,990,-12,32,4
394,-217,-2,970,-11,14,-1
395,-164,18,983,-12,-15,-6
396,19,29,1019,-14,-34,-10
397,163,34,1013,-15,-24,-10
398,214,33,1003,-14,1,-6
399,87,21,1000,-15,27,0
400,-100,-1,1002,-14,33,2
401,-211,0,971,-11,15,-1
402,-171,15,971,-13,-11,-5
403,-5,25,1016,-13,-30,-10
404,150,34,1019,-14,-25,-10
405,219,38,1006,-14,-3,-5
406,105,17,1000,-16,25,0
407,-75,1,1002,-11,33,2
408,-204,0,968,-12,18,0
409,-185,14,979,-12,-8,-5
410,-32,23,1009,-13,-30,-9
411,134,38,1015,-15,-27,-11
412,219,39,1010,-15,-6,-8
413,116,19,1008,-15,23,0
414,-47,4,993,-14,32,2
415,-195,2,964,-12,22,1
416,-192,11,985,-12,-5,-4
417,-62,22,1006,-13,-29,-9
418,129,37,1006,-15,-30,-10
419,216,34,1006,-12,-8,-8
420,136,28,1016,-15,20,0
421,-27,5,1006,-15,32,2
422,-184,5,965,-13,25,2
423,-201,2,973,-10,-1,-3
424,-89,19,1004,-13,-26,-7
425,111,36,1017,-15,-31,-11
426,216,35,1002,-13,-12,-8
427,152,22,1004,-16,17,-1
428,-1,10,1015,-13,31,1
429,-173,6,975,-13,27,2
430,-204,4,970,-12,3,-3
431,-111,15,994,-10,-25,-7
432,94,41,1023,-13,-34,-9
433,204,34,1008,-16,-15,-10
434,170,24,1000,-14,13,-2
435,20,13,1004,-15,32,0
436,-160,8,992,-12,29,2
437,-210,1,979,-8,5,-2
438,-131,11,980,-12,-21,-7
439,73,40,1010,-10,-33,-10
440,190,35,1020,-16,-17,-9
441,187,24,1001,-16,10,-3
442,42,17,994,-12,32,2
443,-140,7,991,-13,31,3
444,-215,-1,986,-10,8,-2
445,-140,17,977,-12,-20,-6
446,52,34,1016,-13,-33,-9
447,178,37,1015,-15,-19,-11
448,198,29,1005,-15,7,-5
449,62,17,999,-13,29,-1
450,-123,6,989,-12,32,2
451,-210,2,977,-10,11,-1
452,-158,16,980,-11,-16,-5
453,28,34,1021,-15,-34,-10
454,163,30,1011,-16,-22,-12
455,205,33,998,-14,3,-7
456,85,15,1003,-15,28,-1
457,-103,0,1001,-10,34,2
458,-206,5,964,-12,15,0
459,-168,18,981,-11,-12,-5
460,-1,30,1015,-12,-30,-8
461,150,31,1013,-16,-24,-10
462,215,36,1007,-13,-2,-7
463,95,18,1002,-15,25,-1
464,-73,1,998,-15,32,2
465,-203,0,972,-10,18,2
466,-180,18,972,-12,-10,-4
467,-26,25,1016,-12,-30,-9
468,141,36,1008,-15,-27,-10
469,213,36,1011,-16,-4,-7
470,120,22,1008,-14,23,-1
471,-56,2,997,-13,34,2
472,-192,1,964,-11,21,2
473,-195,8,987,-9,-6,-3
474,-51,27,1005,-11,-30,-10
475,131,33,1004,-13,-30,-11
476,211,38,1011,-15,-8,-8
477,134,22,1011,-17,20,-1
478,-30,6,1010,-14,33,2
479,-186,6,964,-12,23,2
480,-199,7,977,-10,-2,-3
481,-82,17,1003,-12,-27,-8
482,114,40,1012,-15,-31,-11
483,215,36,1005,-15,-11,-10
484,152,22,1002,-15,16,-2
485,-11,13,1013,-14,33,2
486,-172,3,979,-12,27,2
487,-203,3,972,-11,2,-3
488,-108,17,987,-12,-24,-8
489,98,40,1026,-13,-32,-11
490,204,33,1007,-15,-14,-9
491,170,25,994,-16,14,-1
492,35,29,961,-6,30,8
493,-177,18,926,-14,32,11
494,-211,-30,905,-14,9,-2
495,-133,38,859,-18,-26,0
496,72,19,871,-2,-27,-11
497,199,32,927,-25,-17,-7
498,217,35,949,-9,7,-3
499,22,2,977,-19,37,3
500,-155,26,1003,-8,35,3
501,-238,-8,978,-16,8,-4
502,-156,-38,970,-17,-27,-9
503,73,-8,1030,-1,-38,-13
504,206,60,1026,-1,-17,-12
505,143,143,819,-6,13,-12
506,145,-10,691,-64,15,14
507,-118,30,807,13,53,7
508,-225,83,763,-56,34,-28
509,-119,-148,544,-73,-5,-77
510,-50,-3,668,9,13,-45
511,191,-44,513,1,-127,-19
512,264,86,279,270,-169,5
513,84,50,514,50,-91,-2
514,-78,42,740,26,-85,5
515,-212,-19,922,113,-27,15
516,-248,26,803,-67,-42,24
517,21,-15,983,67,-76,-1
518,147,15,994,-67,-29,7
519,268,-60,891,23,-6,1
520,127,54,880,10,42,4
521,-172,-71,579,-9,24,30
522,-221,-118,269,50,-21,-15
523,-225,27,599,-112,-49,5
524,-63,-150,397,22,-39,-3
525,196,-100,282,-31,-21,-16
526,184,43,664,-38,-7,5
527,232,87,732,-26,36,-42
528,-46,-115,265,-196,213,-15
529,-224,47,493,-221,88,-20
530,-262,79,318,-45,71,-25
531,-68,7,99,-49,-5,-25
532,84,-23,520,-54,-38,-9
533,284,32,608,19,21,-37
534,166,-22,455,23,41,4
535,-62,297,732,51,28,47
536,-150,-85,513,-1,1,23
537,-261,-48,470,-15,-54,26
538,-160,53,634,-79,-28,-6
539,211,-73,519,39,-10,-16
540,192,-12,497,-55,-13,3
541,195,49,615,48,0,-11
542,27,68,720,4,36,1
543,-260,280,807,-43,85,13
544,-214,-87,372,-11,12,-9
545,-121,-22,443,-65,-87,-4
546,48,-79,456,-36,-50,-3
547,308,-52,393,5,23,-25
548,187,9,394,26,46,7
549,15,125,449,44,0,0
550,-148,72,566,-40,8,-3
551,-306,88,749,-25,30,8
552,-151,17,900,-20,-12,-10
553,83,-20,913,-39,-59,-15
554,211,-16,789,-12,-39,-6
555,253,-35,743,-17,22,-10
556,57,-5,826,-10,50,1
557,-158,39,861,11,26,5
558,-241,41,945,-9,3,-4
559,-189,62,963,-8,-13,-3
560,45,63,997,-24,-27,-12
561,197,9,1032,-31,-25,-13
562,223,2,1006,-15,-6,-2
563,93,-23,971,-18,28,-1
564,-125,-18,992,-6,44,4
565,-234,11,984,-3,19,1
566,-181,44,976,-8,-19,-7
567,10,66,1016,-9,-38,-9
568,176,55,1021,-22,-25,-11
569,231,23,1010,-24,3,-6
570,95,0,999,-18,27,2
571,-100,-25,1001,-16,32,1
572,-217,-18,968,-8,18,-1
573,-183,20,970,-6,-9,-4
574,-2,45,1025,-10,-32,-11
575,151,58,1019,-12,-28,-11
576,222,52,998,-18,-4,-6
577,108,18,1001,-18,25,-1
578,-81,-14,1008,-17,36,4
579,-209,-16,959,-12,18,-1
580,-189,4,975,-8,-9,-5
581,-27,26,1016,-11,-33,-9
582,142,46,1019,-12,-28,-11
583,221,51,1013,-16,-4,-7
584,119,32,1006,-19,24,1
585,-56,-2,992,-17,34,3
586,-204,-7,966,-14,22,2
587,-193,1,988,-11,-7,-4
588,-49,16,1006,-10,-28,-8
589,132,38,1005,-14,-30,-10
590,220,43,1013,-14,-8,-9
591,130,34,1011,-16,21,-1
592,-37,9,1002,-15,33,2
593,-189,1,960,-13,23,3
594,-200,2,983,-13,-4,-2
595,-75,13,1003,-12,-28,-9
596,119,36,1009,-13,-30,-12
597,220,35,1004,-15,-10,-8
598,145,27,1008,-14,20,-2
599,-16,12,1011,-15,34,3
600,-176,5,974,-12,27,3
601,-209,1,970,-12,0,-2
602,-96,15,997,-11,-27,-9
603,104,38,1024,-12,-32,-12
604,209,35,1000,-13,-14,-11
605,168,22,1000,-14,15,-3
606,3,13,1003,-13,33,1
607,-169,8,992,-13,27,2
608,-204,1,976,-9,3,-2
609,-125,15,980,-11,-23,-6
610,87,40,1019,-14,-34,-10
611,198,31,1016,-15,-18,-9
612,184,25,995,-15,10,-3
613,32,15,995,-12,33,1
614,-149,8,994,-13,29,3
615,-213,-3,983,-11,7,-2
616,-138,17,980,-12,-22,-7
617,63,33,1010,-14,-34,-11
618,185,37,1020,-14,-18,-11
619,197,25,1004,-16,7,-5
620,53,18,995,-15,30,0
621,-129,2,991,-14,32,3
622,-212,3,980,-11,11,-2
623,-151,13,980,-12,-16,-6
624,34,36,1016,-11,-33,-10
625,172,34,1012,-15,-21,-10
626,205,31,1002,-15,4,-5
627,74,15,1001,-17,28,1
628,-111,1,996,-12,32,2
629,-211,1,972,-11,14,-1
630,-163,16,981,-10,-15,-5
631,11,28,1015,-10,-33,-9
632,155,36,1013,-15,-25,-10
633,219,34,1002,-14,1,-6
634,88,21,1000,-16,27,0
635,-88,-3,1002,-16,32,3
636,-207,0,970,-11,16,-1
637,-176,19,973,-10,-12,-4
638,-14,28,1011,-11,-31,-10
639,144,35,1019,-15,-25,-12
640,215,42,1004,-17,-4,-7
641,111,22,1004,-15,25,-1
642,-65,0,999,-14,34,2
643,-198,1,965,-13,20,0
644,-185,8,985,-13,-7,-4
645,-42,27,1008,-12,-30,-8
646,136,39,1006,-15,-28,-11
647,215,34,1011,-16,-6,-8
648,124,25,1011,-16,21,0
649,-36,5,1005,-15,33,2
650,-188,1,964,-12,22,2
651,-198,6,978,-11,-4,-3
652,-70,22,1006,-12,-29,-9
653,122,39,1010,-12,-30,-12
654,214,38,1000,-15,-10,-9
655,146,24,1013,-16,18,-2
656,-18,8,1008,-15,32,1
657,-178,4,971,-11,26,2
658,-201,1,970,-13,0,-2
659,-100,18,998,-11,-25,-7
660,103,40,1017,-13,-31,-9
661,209,33,1010,-16,-15,-9
662,163,21,994,-14,15,-2
663,3,13,1013,-12,31,0
664,-165,9,984,-12,27,3
665,-212,51,1009,-5,2,1
666,-115,-11,833,-7,-15,-13
667,92,18,992,-10,-22,-27
668,185,46,859,-24,-15,-17
669,191,-17,937,-6,14,-10
670,29,67,974,-12,36,1
671,-152,-10,967,-10,20,2
672,-189,13,921,0,3,-3
673,-168,14,969,-17,-16,-2
674,66,36,1009,-12,-33,-12
675,179,31,1025,-14,-23,-9
676,195,15,969,-20,-1,-2
677,68,-4,1003,-12,30,0
678,-118,-27,1019,-13,35,3
679,-223,-22,962,0,13,0
680,-158,223,919,-159,-14,-30
681,52,-188,428,-102,79,75
682,188,-48,460,-334,103,-7
683,142,-20,237,-43,93,-72
684,107,-122,174,-405,97,-30
685,-82,-23,420,135,160,-33
686,-244,-18,417,-149,69,-37
687,-69,41,431,-78,-28,-28
688,-59,108,627,165,-10,-15
689,174,42,487,-177,-14,-16
690,218,38,779,86,25,-8
691,82,2,662,-92,63,-72
692,-23,1,445,-313,136,-67
693,-185,-71,175,-12,278,-108
694,-195,86,612,-130,81,-36
695,2,80,489,-106,-85,-19
696,51,-18,645,252,-31,-23
697,265,35,642,-272,18,-26
698,96,-4,475,254,71,34
699,-51,-113,424,-123,-63,40
700,-81,-67,435,-139,-35,42
701,-288,-30,550,129,24,5
702,-33,-220,540,-153,-34,-2
703,75,-17,232,71,-31,7
704,172,19,123,-35,-19,-56
705,73,-196,-15,-252,131,-41
706,-29,-6,350,-8,156,-37
707,-167,-128,357,-58,59,-45
708,-180,48,763,-293,48,-107
709,-265,-270,140,-90,119,-92
710,117,8,222,-127,-19,-119
711,104,127,-18,160,230,-65
712,250,79,257,-203,37,-43
713,26,-53,204,10,-240,-6
714,-170,66,684,138,-66,-28
715,-152,111,317,-233,362,3
716,-377,-81,127,-241,-22,3
717,83,-116,278,119,-292,10
718,124,-114,259,-214,-168,-38
719,165,-44,439,-55,211,-8
720,122,-123,360,96,347,-11
721,-119,23,473,-42,-155,-16
722,-194,59,504,105,-74,-2
723,-262,245,646,-82,245,-15
724,-39,67,606,-105,62,-35
725,199,-31,525,76,-212,-23
726,133,-44,499,-81,-137,-16
727,199,-118,504,-27,144,-25
728,-75,-101,653,36,184,7
729,-232,34,626,-54,-71,-8
730,-132,76,599,116,-145,-11
731,-108,180,633,-49,3,2
732,153,128,769,-39,72,-17
733,231,13,850,-2,-10,-7
734,85,-33,757,-80,-79,11
735,-26,-95,794,16,22,-4
736,-198,-88,854,-25,93,1
737,-191,7,865,-1,15,0
738,-6,74,1011,37,-73,-16
739,105,116,1029,-32,-56,-5
740,208,114,989,-8,24,-6
741,116,29,1007,-33,51,-1
742,-85,-21,997,-35,11,8
743,-169,-66,946,-3,-5,-4
744,-185,-45,966,-19,3,-4
745,-20,15,993,-2,-9,-9
746,136,50,1010,-1,-25,-13
747,199,89,1011,-15,-23,-5
748,115,76,1005,-11,18,-1
749,-63,14,1002,-27,45,3
750,-202,-16,955,-24,25,3
751,-176,-28,981,-15,-17,-6
752,-37,-18,1016,-14,-36,-9
753,131,25,1010,-6,-22,-12
754,219,50,1011,-8,1,-9
755,117,57,1003,-11,21,-1
756,-52,37,996,-12,29,2
757,-197,13,973,-20,24,1
758,-196,1,986,-17,-2,-3
759,-49,-6,1003,-16,-30,-10
760,126,8,1016,-14,-34,-11
761,222,32,1014,-9,-11,-8
762,137,28,1005,-12,24,-2
763,-34,29,998,-11,36,2
764,-188,21,969,-12,24,2
765,-208,14,986,-15,-4,-2
766,-81,12,1002,-17,-28,-7
767,118,25,1011,-16,-32,-11
768,219,18,1003,-14,-13,-10
769,152,17,1005,-13,17,-3
770,-8,14,1012,-12,35,0
771,-178,17,975,-11,28,3
772,-210,17,972,-12,0,-2
773,-104,20,1003,-13,-27,-7
774,94,37,1024,-17,-35,-9
775,212,26,1004,-15,-15,-10
776,172,12,989,-14,15,-2
777,9,10,1011,-13,33,0
778,-163,11,993,-11,30,3
779,-212,6,975,-10,4,-3
780,-125,20,981,-11,-24,-7
781,76,44,1024,-12,-34,-11
782,201,32,1012,-18,-18,-10
783,180,17,993,-17,12,-2
784,36,12,996,-14,32,1
785,-148,0,995,-11,30,2
786,-214,4,987,-9,7,-3
787,-143,18,975,-11,-20,-6
788,57,42,1014,-11,-33,-10
789,184,33,1013,-14,-20,-10
790,194,26,1003,-16,6,-3
791,61,11,999,-15,31,0
792,-128,4,990,-13,31,3
793,-212,-4,981,-10,10,-2
794,-155,16,984,-12,-15,-5
795,34,38,1018,-11,-33,-11
796,167,35,1007,-14,-22,-11
797,208,37,1001,-15,4,-6
798,78,15,1003,-15,28,1
799,-108,2,998,-12,32,3
800,-206,-2,972,-10,14,0
801,-172,18,980,-12,-14,-4
802,7,29,1016,-12,-32,-10
803,154,36,1014,-15,-23,-11
804,218,38,996,-14,1,-6
805,98,21,1007,-14,27,0
806,-85,-1,1003,-14,32,2
807,-210,2,969,-11,16,0
808,-176,11,977,-9,-10,-6
809,-20,29,1013,-13,-31,-9
810,145,35,1011,-14,-26,-11
811,219,37,1011,-15,-4,-6
812,110,24,1005,-16,23,1
813,-60,1,996,-12,33,0
814,-201,0,970,-10,21,2
815,-190,9,984,-11,-7,-2
816,-43,21,1003,-11,-30,-9
817,134,35,1008,-15,-28,-11
818,217,42,1011,-15,-6,-8
819,125,23,1013,-18,21,-1
820,-35,9,1005,-14,33,1
821,-189,-2,962,-11,23,2
822,-196,9,982,-10,-4,-3
823,-71,15,1003,-14,-27,-7
824,119,39,1008,-12,-31,-10
825,216,36,1006,-15,-11,-9
826,142,24,1007,-14,18,-2
827,-12,11,1015,-13,32,2
828,-179,4,970,-13,25,3
829,-201,4,965,-10,0,-2
830,-98,16,1000,-12,-24,-8
831,100,41,1016,-13,-31,-10
832,212,36,1008,-15,-13,-10
833,163,21,998,-15,16,-1
834,6,15,1012,-13,31,1
835,-164,3,986,-14,26,2
836,-211,2,973,-10,2,-2
837,-119,16,980,-11,-22,-7
838,83,41,1023,-11,-33,-10
839,198,36,1012,-16,-16,-9
840,183,27,1002,-15,12,-3
841,30,11,999,-15,32,1
842,-151,11,996,-13,29,4
843,-205,9,990,1,-1,8
844,-139,11,937,-32,-20,-5
845,66,50,1022,-12,-32,-14
846,185,8,998,-40,-14,-9
847,190,29,1005,13,8,-5
848,51,11,1008,-39,28,2
849,-124,5,988,-2,32,1
850,-212,2,973,-2,11,-2
851,-146,22,988,-35,-18,-6
852,37,37,1021,3,-29,-12
853,168,39,1004,-29,-22,-12
854,203,28,1003,-21,3,-5
855,79,8,1003,-4,28,1
856,-103,-6,991,-35,33,0
857,-203,-2,971,-3,18,-2
858,-169,22,985,-14,-16,-7
859,-1,31,1018,-14,-34,-10
860,146,41,1011,-13,-21,-11
861,216,34,1001,-17,-2,-6
862,104,21,1002,-19,23,0
863,-75,-5,1003,-14,31,3
864,-203,-7,969,-13,20,0
865,-188,14,972,-10,-6,-7
866,-32,24,1011,-9,-30,-11
867,134,43,1028,-16,-28,-10
868,217,36,993,-12,-6,-9
869,65,47,893,-22,27,-10
870,-45,-35,913,-7,30,-12
871,-152,33,660,-25,28,-5
872,-161,-7,833,5,1,-13
873,-21,50,890,-17,-29,-10
874,89,20,943,-11,-33,-10
875,155,28,986,-15,-11,-6
876,106,16,994,-8,5,3
877,-6,8,990,1,15,5
878,-127,-6,978,-32,13,6
879,-136,-58,969,17,5,0
880,-81,-44,1012,-19,-15,-1
881,89,197,933,-37,10,-42
882,-118,28,176,-63,-86,-69
883,7,-40,326,46,7,-110
884,-55,-185,105,60,-68,0
885,118,141,107,-302,128,11
886,-177,-114,304,325,58,-1
887,-95,144,94,-123,-26,7
888,-11,-35,317,-215,-24,-26
889,75,175,421,313,46,-20
890,161,96,247,-435,41,5
891,75,29,655,248,32,-30
892,-116,0,711,-122,3,13
893,-143,-38,840,-160,4,-13
894,-144,-81,910,250,41,-19
895,9,-46,917,-244,-44,-1
896,139,-3,1049,161,-28,-19
897,208,209,1021,6,-2,-14
898,23,70,609,-115,18,6
899,-67,-10,836,169,27,2
900,-250,-46,665,-167,-21,2
901,-152,-33,703,85,-14,-5
902,22,106,753,18,-25,-3
903,170,24,761,-109,-34,-11
904,175,-21,572,68,10,-15
905,27,48,655,-97,36,0
906,-124,-44,516,-3,57,-25
907,-146,-30,581,25,3,-2
908,-227,16,597,-50,-26,-12
909,55,67,689,48,-27,-18
910,125,84,838,-28,-15,-3
911,189,94,920,-27,-14,-6
912,135,-4,993,6,12,-1
913,-127,-3,938,-42,33,7
914,-199,-43,900,-9,23,0
915,-160,-18,959,-7,-13,-7
916,-18,19,936,-19,-44,-3
917,167,54,1002,9,-26,-13
918,210,62,1032,-20,7,-5
919,90,57,977,-16,30,2
920,-73,2,995,-13,27,-1
921,-218,-9,983,-23,9,2
922,-169,-3,953,-9,-7,-5
923,-22,-6,1009,-14,-22,-11
924,135,34,1014,-13,-28,-9
925,230,49,1012,-7,-9,-9
926,108,44,1010,-15,24,0
927,-68,22,993,-13,38,3
928,-196,4,969,-14,23,-1
929,-200,5,984,-17,-10,-3
930,-41,13,1011,-12,-33,-10
931,140,16,1014,-16,-27,-11
932,215,34,1004,-12,-5,-7
933,132,28,1018,-13,22,-3
934,-40,12,1012,-13,31,1
935,-195,17,959,-10,23,3
936,-200,13,978,-13,-4,-4
937,-75,15,1002,-16,-28,-7
938,124,36,1007,-13,-33,-10
939,214,25,1008,-15,-11,-8
940,146,18,1008,-16,19,0
941,-14,7,1007,-12,32,1
942,-182,11,973,-11,25,1
943,-207,7,971,-10,0,-2
944,-102,21,994,-12,-25,-7
945,101,40,1023,-18,-33,-10
946,211,31,1009,-16,-14,-10
947,167,16,1000,-14,14,-3
948,9,9,1007,-13,33,1
949,-165,8,988,-12,29,2
950,-208,5,972,-11,3,-2
951,-126,20,982,-12,-23,-7
952,80,43,1015,-11,-33,-11
953,196,31,1020,-16,-17,-10
954,183,22,998,-16,9,-3
955,37,13,999,-13,31,1
956,-143,1,986,-12,30,2
957,-215,0,983,-8,9,-2
958,-138,16,978,-12,-19,-7
959,54,43,1012,-13,-32,-10
960,181,37,1021,-16,-20,-10
961,197,29,1009,-18,5,-4
962,59,14,994,-14,28,0
963,-127,1,989,-13,32,3
964,-213,-4,978,-11,12,-1
965,-154,20,984,-12,-15,-5
966,27,31,1017,-13,-33,-11
967,168,38,1015,-12,-22,-11
968,205,33,1001,-16,3,-5
969,80,21,999,-13,28,0
970,-107,-4,1001,-14,31,3
971,-205,-1,965,-11,15,0
972,-168,16,981,-12,-12,-4
973,0,30,1018,-12,-31,-10
974,149,34,1015,-14,-24,-10
975,212,39,1009,-14,0,-7
976,95,21,999,-15,25,-1
977,-75,0,998,-12,33,2
978,-203,0,967,-11,18,1
979,-176,15,978,-8,-9,-5
980,-28,24,1011,-12,-29,-10
981,139,36,1011,-14,-27,-12
982,214,38,1011,-14,-7,-8
983,115,23,1006,-15,22,0
984,-53,0,996,-14,33,2
985,-189,1,964,-11,21,1
986,-190,10,985,-10,-6,-3
987,-57,23,1004,-14,-30,-10
988,130,35,1007,-13,-29,-11
989,209,37,1005,-13,-8,-7
990,133,22,1011,-16,18,-1
991,-27,9,1011,-13,31,2
992,-184,6,962,-11,24,2
993,-196,6,975,-10,-1,-4
994,-88,16,1004,-12,-26,-7
995,111,40,1015,-14,-32,-11
996,209,34,1004,-15,-12,-9
997,151,23,1002,-14,16,-2
998,-3,13,1011,-14,32,1
999,-168,6,985,-13,27,2
1000,-204,3,975,-12,2,-2
1001,-111,13,986,-13,-23,-7
1002,87,40,1021,-13,-32,-10
1003,200,33,1016,-16,-15,-11
1004,174,23,993,-13,12,-4
1005,23,18,999,-13,32,1
1006,-150,4,993,-14,29,2
1007,-211,-3,985,-12,6,-2
1008,-127,17,976,-11,-20,-6
1009,65,40,1013,-13,-33,-10
1010,185,34,1014,-15,-17,-10
1011,191,23,1009,-16,8,-3
1012,46,16,992,-15,30,1
1013,-137,7,989,-13,32,3
1014,-209,0,979,-12,9,-2
1015,-150,18,985,-11,-17,-5
1016,43,34,1012,-13,-34,-11
1017,166,30,1013,-10,-21,-11
1018,205,35,1000,2,3,-8
1019,66,14,998,-4,30,0
1020,-111,3,998,-20,30,2
1021,-209,1,970,-7,12,-1
1022,-161,19,983,-10,-13,-6
1023,12,28,1014,-19,-32,-9
1024,155,32,1018,-12,-23,-10
1025,219,71,999,-2,2,2
1026,81,11,853,-16,33,7
1027,-85,-7,793,-12,32,3
1028,-219,-1,870,-53,30,-8
1029,-162,-10,831,0,-4,-8
1030,-27,26,998,-22,-28,-12
1031,149,33,941,-10,-33,-14
1032,214,45,993,-20,2,-7
1033,111,36,984,-13,21,1
1034,-55,4,1001,-18,33,3
1035,-190,-5,963,-18,20,-1
1036,-194,2,983,-10,-7,-2
1037,-49,20,1005,-17,-31,-10
1038,121,9,988,-9,-28,-10
1039,202,8,1008,-10,-7,-10
1040,133,-36,1023,-14,17,-1
1041,-40,189,1035,46,26,-6
1042,-62,-160,437,13,-27,17
1043,-122,93,432,163,-56,39
1044,-139,75,280,-112,-12,33
1045,77,-96,180,210,-112,15
1046,216,52,433,-232,-69,45
1047,179,-3,802,231,27,-2
1048,45,33,606,-189,92,20
1049,-177,42,713,-20,3,7
1050,-211,32,759,124,-49,-7
1051,-103,26,966,-244,0,0
1052,44,29,961,173,60,-18
1053,207,-36,990,-136,-32,-12
1054,204,-100,956,-17,-56,0
1055,33,110,874,136,44,13
1056,-132,-168,120,-175,134,19
1057,-189,-211,224,17,60,47
1058,-201,-122,140,-48,-83,18
1059,214,-77,100,45,-94,-6
1060,154,-76,218,-46,107,16
1061,234,25,457,17,43,-16
1062,69,-48,343,-24,-24,5
1063,-193,101,657,-13,6,5
1064,-203,-69,618,60,72,-9
1065,-145,-37,840,-104,29,-6
1066,74,299,954,101,-77,-5
1067,23,-187,245,-94,27,-6
1068,66,160,168,-125,-2,-9
1069,-46,-185,353,1,144,5
1070,-27,-94,722,26,-14,-17
1071,-197,-52,717,-65,-23,8
1072,-181,247,466,46,11,-19
1073,-139,8,574,78,-49,-14
1074,64,148,720,-28,-41,15
1075,214,11,662,27,-80,-20
1076,91,-25,555,-88,26,-5
1077,-51,-123,366,-41,57,25
1078,-195,-100,570,35,8,-13
1079,-100,-16,582,-68,-34,-6
1080,-70,114,586,102,-2,-1
1081,108,182,825,-36,-15,-16
1082,185,223,936,-53,-3,-2
1083,80,1,881,43,20,12
1084,-28,-76,1068,-112,12,10
1085,-181,-158,870,-2,34,-10
1086,-136,-105,715,-23,25,-5
1087,-28,-2,891,4,-27,-13
1088,111,120,943,20,-17,-19
1089,210,140,939,-14,4,-11
1090,55,151,1014,-6,38,0
1091,-38,31,1008,-56,20,-1
1092,-170,-47,935,-11,4,-1
1093,-180,-84,967,-40,-7,-1
1094,-26,-67,993,3,-19,-12
1095,120,3,988,1,-20,-11
1096,189,75,982,-7,-10,-7
1097,126,101,1058,12,16,-3
1098,-44,73,994,-35,32,3
1099,-185,39,945,-16,26,2
1100,-188,-20,1002,-26,-5,-2
1101,-76,-37,1001,-29,-32,-7
1102,122,-19,997,-3,-28,-12
1103,210,9,1010,-17,-5,-9
1104,149,37,1007,0,18,-4
1105,-12,50,1014,-2,30,-1
1106,-178,55,989,-18,24,3
1107,-203,25,963,-13,2,-3
1108,-102,7,985,-24,-23,-8
1109,92,13,1028,-19,-33,-10
1110,211,-1,1013,-13,-16,-11
1111,174,3,991,-13,14,-4
1112,17,20,1003,-4,33,1
1113,-156,27,997,-9,27,2
1114,-213,28,981,-9,4,-3
1115,-132,35,973,-13,-21,-7
1116,74,34,1016,-19,-33,-11
1117,191,18,1016,-19,-19,-9
1118,195,5,1006,-17,8,-4
1119,47,2,995,-10,32,0
1120,-137,6,982,-7,33,4
1121,-215,8,984,-10,10,-2
1122,-153,34,982,-9,-17,-6
1123,44,49,1013,-16,-34,-8
1124,177,35,1012,-18,-22,-11
1125,194,23,1008,-19,4,-3
1126,75,3,997,-16,28,0
1127,-119,-9,992,-10,33,2
1128,-211,0,969,-8,13,-2
1129,-159,22,987,-9,-13,-6
1130,18,45,1018,-11,-33,-10
1131,155,43,1015,-14,-23,-9
1132,214,37,1005,-18,2,-5
1133,84,14,997,-19,27,1
1134,-88,-8,1003,-14,31,2
1135,-209,-10,971,-10,16,0
1136,-171,16,977,-10,-11,-5
1137,-6,30,1013,-11,-30,-9
1138,143,42,1017,-14,-24,-10
1139,217,44,1011,-16,-3,-7
1140,104,22,1002,-17,26,0
1141,-72,-2,990,-16,34,2
1142,-202,-5,973,-11,20,1
1143,-184,10,980,-10,-7,-4
1144,-35,21,1008,-10,-30,-9
1145,134,40,1010,-12,-27,-10
1146,214,42,1013,-15,-6,-6
1147,121,27,1007,-15,24,0
1148,-45,1,1001,-16,32,3
1149,-190,1,962,-11,22,1
1150,-197,8,987,-13,-4,-4
1151,-64,18,999,-12,-27,-10
1152,124,39,1012,-13,-29,-11
1153,216,36,1004,-16,-9,-8
1154,135,23,1008,-16,19,0
1155,-18,9,1014,-14,33,1
1156,-181,3,971,-13,26,2
1157,-196,7,970,-12,-1,-3
1158,-91,13,1001,-11,-25,-8
1159,108,43,1022,-14,-32,-11
1160,209,30,1004,-15,-13,-9
1161,160,23,1004,-13,15,-2
1162,3,14,1007,-13,32,1
1163,-167,9,987,-11,28,1
1164,-204,0,974,-12,3,-3
1165,-119,14,985,-12,-22,-7
1166,86,41,1020,-12,-32,-10
1167,197,33,1014,-16,-14,-9
1168,180,25,997,-17,13,-4
1169,26,10,996,-15,32,1
1170,-150,9,990,-12,29,2
1171,-214,-4,985,-12,7,-1
1172,-133,19,974,-10,-21,-6
1173,57,39,1007,-12,-33,-9
1174,187,35,1019,-14,-18,-10
1175,191,28,1007,-16,9,-3
1176,51,17,993,-15,28,0
1177,-134,2,990,-13,32,2
1178,-213,-1,981,-11,11,-2
1179,-150,17,982,-12,-17,-6
1180,40,38,1016,-13,-32,-11
1181,167,37,1016,-15,-21,-11
1182,207,33,999,-14,4,-6
1183,71,13,1001,-15,28,-1
1184,-106,-1,1000,-12,31,3
1185,-207,3,968,-11,13,0
1186,-161,19,979,-11,-13,-5
1187,7,29,1020,-12,-32,-9
1188,153,34,1010,-16,-23,-10
1189,213,36,1010,-16,-1,-6
1190,93,19,1001,-15,25,1
1191,-82,-2,998,-13,32,2
1192,-206,-1,970,-12,18,0
1193,-175,18,980,-9,-10,-5
1194,-17,24,1008,-12,-30,-9
1195,140,39,1014,-15,-26,-9
1196,212,37,1008,-16,-5,-7
1197,110,18,1007,-15,23,-1
1198,-59,0,993,-11,34,2
1199,-196,2,966,-10,22,0
1200,-186,11,989,-12,-7,-4
1201,-52,25,999,-13,-30,-8
1202,131,38,1009,-16,-28,-11
1203,213,35,1010,-14,-7,-7
1204,125,26,1010,-17,20,1
1205,-34,34,1020,-24,32,-2
1206,-186,-5,946,-22,33,-15
1207,-184,-9,990,-29,12,-15
1208,-85,47,995,8,-24,-20
1209,120,-2,999,-44,-29,-16
1210,210,41,1002,15,-7,-13
1211,148,22,1014,-11,6,-3
1212,-12,16,1007,-28,26,2
1213,-167,13,987,12,25,1
1214,-206,0,970,-29,0,-1
1215,-106,4,980,-5,-27,-8
1216,92,11,1033,-7,-34,-9
1217,195,-11,1001,-27,-15,-9
1218,192,151,1087,-4,16,-13
1219,27,-15,503,-30,26,-19
1220,-132,-21,579,71,-2,21
1221,-229,-104,257,4,1,20
1222,-104,-51,443,-7,-16,14
1223,61,54,340,48,-55,-10
1224,152,1,654,-42,-35,-6
1225,238,28,951,-11,49,-8
1226,19,58,920,14,45,7
1227,-125,20,881,-47,6,1
1228,-234,-22,919,9,10,-6
1229,-173,-26,949,-26,4,-5
1230,-7,193,1097,-46,-24,-21
1231,254,-280,341,-1,-22,-12
1232,100,-45,325,-56,-69,0
1233,87,-24,341,-14,132,-82
1234,-33,-128,275,-308,261,-24
1235,-260,-103,528,198,-25,0
1236,-214,-29,584,-78,-205,0
1237,11,45,699,-17,-8,-14
1238,158,92,714,33,147,-10
1239,249,89,791,-103,-22,-7
1240,123,18,842,71,-120,0
1241,-65,-48,905,-45,17,8
1242,-196,-103,919,-51,140,4
1243,-194,-39,862,67,35,-4
1244,-62,-169,196,20,-112,72
1245,47,97,418,-109,-54,82
1246,161,93,539,142,-13,112
1247,179,174,750,-197,31,78
1248,-22,-47,757,130,-16,62
1249,-256,32,495,-28,1,29
1250,-153,-58,445,-111,5,7
1251,-140,39,772,151,17,-5
1252,113,74,817,-146,-24,-2
1253,235,58,693,26,-22,-19
1254,117,28,801,17,11,-2
1255,-3,-61,1024,-142,39,5
1256,-174,68,1069,110,46,-5
1257,-192,-97,654,-53,-24,10
1258,-23,41,394,-143,-17,13
1259,58,-20,228,138,-12,-10
1260,194,-44,623,-114,-17,-10
1261,161,72,600,-14,34,2
1262,-24,144,464,66,62,-5
1263,-135,40,444,-250,-3,-3
1264,-208,-20,353,159,40,5
1265,-101,-6,506,-86,-36,-14
1266,119,-110,473,-125,-49,-10
1267,164,0,660,184,21,-12
1268,181,34,888,-150,3,-3
1269,30,109,934,98,33,-4
1270,-179,116,807,-2,30,5
1271,-203,157,910,-104,5,-2
1272,-154,-76,869,44,-3,-8
1273,74,22,1060,-109,-49,-9
1274,196,-144,943,-7,-17,-17
1275,215,-51,973,27,16,-6
1276,71,-9,988,-39,29,2
1277,-151,87,1031,59,42,-3
1278,-216,104,979,-19,5,2
1279,-189,114,971,-26,-17,-5
1280,31,51,1018,-6,-32,-10
1281,176,-12,1033,-57,-25,-11
1282,214,-49,994,-13,1,-6
1283,97,-58,994,-5,24,-2
1284,-94,-22,990,-15,32,1
1285,-221,25,970,22,23,-1
1286,-175,86,986,-12,-10,-6
1287,-9,87,1021,-16,-34,-9
1288,148,64,1008,-17,-27,-9
1289,216,10,1007,-39,-5,-6
1290,107,-26,1001,-15,26,0
1291,-72,-53,993,-17,34,2
1292,-196,-21,964,-5,17,-2
1293,-178,29,984,8,-7,-4
1294,-29,68,1016,-9,-28,-9
1295,133,71,1022,-12,-26,-10
1296,214,58,1009,-20,-7,-7
1297,115,10,998,-28,21,1
1298,-55,-27,995,-15,34,3
1299,-192,-29,973,-14,22,1
1300,-185,-1,974,-7,-7,-5
1301,-44,29,1009,-5,-30,-10
1302,126,55,1015,-12,-29,-11
1303,208,62,1013,-10,-7,-6
1304,124,36,1005,-17,21,-1
1305,-42,0,998,-17,33,2
1306,-182,-9,963,-14,23,1
1307,-194,-8,989,-14,-3,-4
1308,-70,10,1003,-11,-27,-9
1309,123,35,1007,-10,-29,-11
1310,209,47,1005,-14,-10,-9
1311,137,36,1018,-14,19,-1
1312,-18,17,1007,-15,33,1
1313,-183,8,971,-13,25,3
1314,-196,-4,971,-14,-2,-3
1315,-97,2,999,-13,-25,-8
1316,109,36,1017,-12,-32,-11
1317,207,30,1005,-15,-12,-9
1318,162,29,997,-12,15,-3
1319,0,18,1009,-12,32,1
1320,-166,16,990,-11,27,2
1321,-205,1,976,-12,3,-2
1322,-115,11,980,-14,-23,-7
1323,82,33,1019,-15,-32,-9
1324,198,28,1019,-16,-15,-11
1325,176,22,993,-14,12,-3
1326,28,19,994,-13,31,0
1327,-149,10,993,-12,29,2
1328,-214,0,985,-12,7,-1
1329,-135,19,976,-12,-20,-7
1330,57,35,1014,-12,-32,-10
1331,181,35,1013,-16,-18,-11
1332,193,23,1008,-17,6,-5
1333,55,16,998,-14,28,0
1334,-127,1,991,-14,30,4
1335,-209,0,978,-11,10,-3
1336,-149,18,983,-12,-16,-6
1337,34,36,1020,-13,-33,-10
1338,167,34,1010,-14,-20,-10
1339,203,32,997,-16,4,-5
1340,77,17,1005,-16,28,0
1341,-103,-3,998,-14,32,2
1342,-207,1,970,-10,14,0
1343,-160,17,980,-11,-14,-5
1344,1,28,1016,-12,-32,-10
1345,151,33,1016,-15,-25,-11
1346,213,36,1002,-15,-1,-7
1347,96,20,1004,-16,25,-1
1348,-78,0,993,-14,31,3
1349,-204,3,975,-10,18,0
1350,-174,15,981,-11,-9,-3
1351,-28,25,1005,-12,-30,-8
1352,142,32,1012,-16,-28,-11
1353,210,37,1014,4,-6,-10
1354,115,24,1009,-3,22,-2
1355,-51,0,998,-16,33,1
1356,-193,5,963,-13,20,1
1357,-188,12,987,-10,-8,-4
1358,-57,22,1004,-16,-27,-8
1359,127,38,1004,-12,-28,-11
1360,215,35,1007,-14,-9,-8
1361,127,20,1012,-18,19,0
1362,-24,8,1009,-12,31,1
1363,-180,2,967,-13,25,2
1364,-197,8,971,-11,-2,-4
1365,-82,18,1004,-11,-26,-9
1366,107,43,1019,-14,-31,-10
1367,206,35,1001,-15,-12,-8
1368,154,21,1003,-14,16,-2
1369,-5,11,1011,-14,32,1
1370,-167,4,983,-13,26,3
1371,-200,0,975,-11,2,-3
1372,-109,18,983,-9,-24,-7
1373,90,43,1021,-14,-31,-10
1374,197,34,1017,-16,-15,-10
1375,169,22,994,-16,13,-2
1376,26,12,998,-14,30,-1
1377,-153,4,993,-12,29,3
1378,-205,3,983,-11,4,-3
1379,-129,17,975,-13,-20,-7
1380,65,41,1014,-12,-33,-10
1381,184,39,1016,-17,-17,-10
1382,187,22,1009,-18,8,-3
1383,46,14,993,-15,30,1
1384,-131,1,988,-14,29,3
1385,-208,0,984,-10,9,-2
1386,-146,18,982,-12,-16,-5
1387,41,36,1016,-12,-32,-9
1388,167,30,1011,-16,-20,-10
1389,199,34,1003,-16,4,-5
1390,70,14,1002,-16,29,0
1391,-111,1,997,-14,32,1
1392,-206,0,967,-10,13,-2
1393,-161,19,984,-10,-13,-6
1394,10,29,1019,-15,-31,-9
1395,155,33,1012,-12,-23,-11
1396,210,38,1007,-15,1,-7
1397,90,19,1002,-14,27,0
1398,-88,0,1003,-13,32,3
1399,-202,4,968,-10,17,1
1400,-174,24,979,-11,-10,-5
1401,-11,66,946,-31,-37,-15
1402,139,6,875,-9,-29,-7
1403,207,60,942,-12,-25,0
1404,112,-20,942,-7,18,3
1405,-46,9,929,-21,29,4
1406,-202,-9,934,0,18,5
1407,-175,14,936,-18,-12,-6
1408,-61,31,999,-1,-25,-7
1409,123,33,997,-27,-26,-9
1410,213,-21,1016,-10,-10,-8
1411,133,-3,1001,-7,17,-1
1412,17,198,955,40,18,33
1413,-195,-122,454,187,-45,66
1414,-222,27,622,179,-110,50
1415,-189,122,444,-339,-57,85
1416,142,-64,472,416,-23,-8
1417,224,49,833,-332,-41,24
1418,185,-9,807,-63,51,7
1419,57,1,796,304,61,-8
1420,-184,34,981,-435,10,14
1421,-228,38,1005,301,51,-14
1422,-161,31,932,-116,-25,-13
1423,78,15,925,-144,-47,-8
1424,230,-71,1036,226,0,-20
1425,209,-53,918,-228,0,-6
1426,86,152,450,163,51,21
1427,-221,8,322,-54,180,28
1428,-270,40,292,-129,-30,9
1429,-192,23,535,136,11,-9
1430,63,-2,436,-199,-11,-9
1431,170,-7,566,103,-7,-10
1432,277,20,912,-71,-14,-16
1433,49,15,775,-31,47,7
1434,-154,7,800,41,60,0
1435,-249,-52,977,-77,9,-7
1436,-182,-46,915,23,-16,-10
1437,60,334,1127,27,-33,-17
1438,213,-134,445,-138,-20,-16
1439,235,155,810,181,-49,-5
1440,73,-51,729,-236,32,4
1441,-81,-207,699,134,27,-1
1442,-250,-61,365,31,26,-1
1443,-200,208,377,-155,7,-21
1444,4,216,361,142,-12,-21
1445,133,54,613,-220,-12,-7
1446,232,-22,479,-4,-2,-21
1447,147,-86,622,15,28,1
1448,-65,-192,612,-142,32,3
1449,-195,-72,680,206,41,-15
1450,-199,82,675,-100,-8,-1
1451,-84,287,680,62,-30,-1
1452,100,158,538,27,-15,1
1453,215,53,701,-173,-16,4
1454,122,-119,660,54,8,-8
1455,15,-188,652,-113,38,7
1456,-186,-123,645,24,30,-1
1457,-164,6,746,44,6,-11
1458,-79,130,907,-35,-31,-7
1459,68,201,958,59,-21,-11
1460,199,144,946,-71,-11,-9
1461,116,40,903,-31,11,0
1462,-11,-74,851,-28,23,1
1463,-149,-124,899,-47,23,-1
1464,-183,-84,903,24,10,-3
1465,-67,6,984,-6,-21,-10
1466,99,91,1019,9,-31,-11
1467,182,136,1004,5,-12,-8
1468,132,100,1018,-31,17,-2
1469,-15,27,1014,-23,32,2
1470,-160,-34,967,-34,20,3
1471,-180,-73,973,-22,-2,-3
1472,-88,-47,1004,-4,-21,-7
1473,100,20,1014,-6,-28,-12
1474,198,61,1005,1,-11,-11
1475,151,80,1003,-5,13,-2
1476,0,63,1009,-18,31,1
1477,-170,27,986,-21,29,3
1478,-200,-19,973,-23,1,-1
1479,-112,-27,981,-17,-25,-9
1480,86,2,1016,-10,-32,-11
1481,196,18,1012,-9,-13,-10
1482,175,36,993,-5,14,-4
1483,29,51,1003,-8,31,1
1484,-150,38,997,-13,29,2
1485,-213,12,987,-17,6,-2
1486,-136,6,980,-19,-21,-7
1487,58,11,1008,-16,-34,-10
1488,187,13,1018,-15,-19,-10
1489,194,15,1010,-13,9,-4
1490,56,27,991,-10,30,-1
1491,-131,18,990,-13,32,2
1492,-218,20,984,-11,9,-1
1493,-154,22,984,-16,-18,-6
1494,34,33,1012,-16,-34,-9
1495,170,19,1012,-16,-21,-10
1496,210,19,1000,-13,4,-5
1497,82,12,1002,-13,30,0
1498,-110,4,998,-11,33,3
1499,-209,10,974,-9,13,-1
1500,-170,24,978,-9,-14,-5
1501,4,39,1017,-13,-33,-9
1502,155,31,1019,-16,-24,-10
1503,216,31,999,-16,0,-6
1504,97,13,1001,-17,26,-1
1505,-87,-5,1005,-13,33,3
1506,-208,4,971,-9,17,0
1507,-182,18,976,-11,-9,-5
1508,-23,29,1011,-12,-32,-8
1509,143,39,1013,-15,-28,-10
1510,218,38,1008,-16,-4,-7
1511,113,21,1006,-14,24,0
1512,-57,-2,995,-15,34,1
1513,-199,-2,968,-10,21,0
1514,-191,8,981,-10,-8,-4
1515,-52,25,1004,-11,-29,-8
1516,133,40,1010,-14,-28,-10
1517,215,39,1007,-15,-7,-8
1518,130,24,1017,-16,21,0
1519,-37,3,1006,-14,33,3
1520,-185,0,963,-11,24,0
1521,-202,4,980,-11,-2,-4
1522,-77,20,1002,-12,-28,-8
1523,116,38,1015,-13,-30,-9
1524,214,38,998,-16,-11,-9
1525,146,25,1012,-15,18,-2
1526,-7,10,1011,-14,32,2
1527,-176,3,975,-15,28,3
1528,-201,2,967,-10,1,-4
1529,-108,14,994,-12,-25,-7
1530,103,41,1022,-14,-32,-10
1531,202,35,1009,-15,-14,-9
1532,166,24,994,-15,14,-3
1533,13,13,1007,-13,32,1
1534,-160,8,992,-14,29,4
1535,-211,0,978,-12,4,-2
1536,-124,15,977,-13,-22,-7
1537,74,37,1014,-14,-31,-10
1538,195,39,1016,-15,-16,-10
1539,182,21,1005,-16,9,-2
1540,41,19,993,-13,29,0
1541,-143,5,991,-13,30,3
1542,-215,0,985,-9,8,-1
1543,-142,18,977,-11,-17,-6
1544,54,34,1011,-14,-32,-10
1545,180,31,1018,-15,-19,-10
1546,196,26,1007,-16,6,-4
1547,63,16,998,-13,28,0
1548,-122,4,992,-14,32,2
1549,-213,3,974,-11,11,-1
1550,-153,18,984,-10,-16,-6
1551,24,30,1019,-14,-33,-9
1552,161,33,1011,-14,-22,-11
1553,214,30,1000,-16,1,-6
1554,78,19,1000,-14,29,0
1555,-96,0,1001,-14,32,3
1556,-211,0,967,-9,15,0
1557,-166,19,973,-11,-12,-4
1558,-1,29,1018,-12,-30,-9
1559,148,34,1014,-14,-24,-12
1560,215,37,1008,-15,-2,-7
1561,98,20,1000,-13,25,1
1562,-77,0,998,-12,34,2
1563,-199,-1,970,-13,18,1
1564,-188,17,981,-11,-8,-4
1565,-25,25,1006,-12,-30,-9
1566,136,34,1014,-15,-27,-10
1567,214,38,1009,-15,-7,-8
1568,119,23,1011,-15,21,-2
1569,-48,4,1000,-14,32,2
1570,-194,-1,959,-11,22,2
1571,-194,11,985,-11,-6,-3
1572,-59,20,1007,-13,-29,-8
1573,126,41,1004,-14,-29,-10
1574,212,35,1007,-14,-7,-8
1575,136,24,1013,-14,19,-2
1576,-25,4,1011,-14,33,1
1577,-177,3,967,-13,25,1
1578,-201,2,975,-10,-1,-4
1579,-85,12,931,-11,-27,-8
1580,127,104,1119,-6,-30,-8
1581,192,-24,979,-32,-11,-10
1582,148,33,955,-8,15,-4
1583,8,-22,1029,-16,30,4
1584,-176,22,977,-14,27,0
1585,-171,-8,966,-7,0,-3
1586,-135,27,997,-12,-19,-4
1587,86,40,1037,-18,-33,-11
1588,200,15,1000,-9,-14,-13
1589,163,39,990,-15,11,0
1590,29,22,1009,-9,30,-1
1591,-145,64,950,-22,35,-4
1592,-206,-10,857,-5,7,11
1593,-111,-2,808,-76,-15,-7
1594,40,0,831,8,-34,4
1595,187,28,877,-35,-29,-2
1596,193,24,984,-23,4,2
1597,63,35,900,23,29,0
1598,-139,13,945,-53,39,6
1599,-221,28,992,13,17,-2
1600,-156,13,968,-30,-22,-7
1601,38,20,1021,-26,-35,-10
1602,165,13,1016,0,-15,-11
1603,219,22,1003,-30,3,-7
1604,74,-10,989,-5,28,1
1605,-99,-7,1023,-4,31,2
1606,-212,-52,954,-13,16,-2
1607,-176,210,1060,50,-5,3
1608,4,-99,492,114,-162,-18
1609,146,-37,657,239,-123,14
1610,157,-89,203,158,-208,75
1611,149,-15,689,-14,-76,73
1612,-83,12,559,331,14,60
1613,-210,-46,430,-246,-59,37
1614,-141,48,606,59,-16,13
1615,-104,49,839,103,-9,7
1616,131,205,955,-217,-36,-10
1617,183,-72,549,288,-37,-4
1618,157,48,460,-86,-74,-4
1619,-41,-30,804,112,1,6
1620,-163,-131,534,49,-3,2
1621,-173,-26,851,-66,-30,12
1622,-87,-42,967,84,-25,0
1623,125,-46,991,-21,-52,-5
1624,174,195,664,17,-3,0
1625,74,111,496,40,1,15
1626,-38,85,442,-19,-9,20
1627,-181,-70,838,-3,24,-8
1628,-145,-77,847,-37,25,13
1629,-149,-75,742,2,-40,-6
1630,117,-74,493,19,-51,-21
1631,180,59,906,-1,1,0
1632,180,41,683,72,3,1
1633,57,-37,126,-3,-8,13
1634,-183,1,428,-24,-12,13
1635,-220,190,471,76,2,2
1636,-162,-96,371,9,-88,-10
1637,66,140,1040,-55,-88,-1
1638,187,-175,601,-29,-83,-27
1639,243,71,478,81,-12,-2
1640,68,-42,570,-52,41,7
1641,-147,2,395,88,25,-1
1642,-208,-13,439,-53,-13,3
1643,-235,126,726,82,-28,-1
1644,66,156,916,-68,-32,-1
1645,198,109,738,-115,-29,-3
1646,205,-84,545,4,4,9
1647,93,-73,548,-80,21,-4
1648,-84,-99,535,4,45,4
1649,-223,-64,795,23,36,1
1650,-172,46,866,-25,-10,-10
1651,1,128,959,44,-33,-11
1652,140,166,952,-28,-24,-9
1653,217,84,1013,-37,4,-8
1654,82,10,1001,-18,28,1
1655,-93,-78,963,-53,24,3
1656,-205,-88,999,2,15,-2
1657,-164,-40,984,-3,-13,-4
1658,13,33,1003,-2,-29,-12
1659,146,93,1021,13,-19,-13
1660,207,111,1013,-21,-2,-5
1661,93,66,1007,-20,24,0
1662,-100,4,998,-23,31,4
1663,-201,-42,968,-30,14,0
1664,-169,-48,967,-11,-8,-6
1665,-3,-8,1016,-12,-33,-10
1666,152,29,1023,-6,-26,-13
1667,214,72,1001,-2,-1,-7
1668,104,69,1002,-15,24,0
1669,-82,31,1005,-13,33,3
1670,-206,3,967,-17,17,1
1671,-183,-11,971,-20,-9,-5
1672,-28,-11,1007,-14,-30,-10
1673,150,5,1018,-13,-27,-12
1674,222,33,1012,-8,-6,-8
1675,120,44,1010,-7,22,-1
1676,-53,24,998,-12,33,2
1677,-208,23,958,-12,22,2
1678,-195,12,987,-15,-6,-3
1679,-53,10,1010,-18,-30,-9
1680,134,19,999,-16,-31,-11
1681,226,20,1014,-13,-8,-9
1682,137,20,1014,-13,21,-1
1683,-31,14,1004,-12,33,0
1684,-190,18,960,-7,25,1
1685,-208,20,980,-11,-2,-2
1686,-82,24,1000,-15,-27,-8
1687,111,34,1021,-31,-34,-10
1688,220,23,1003,-14,-13,-9
1689,154,8,1005,-19,15,-2
1690,-2,4,1009,-10,32,0
1691,-181,9,977,-9,28,3
1692,-204,11,967,-10,2,-3
1693,-114,27,995,-9,-24,-7
1694,97,46,1024,-17,-33,-11
1695,206,30,1014,-18,-15,-9
1696,175,18,992,-15,14,-3
1697,16,10,1006,-16,32,1
1698,-155,4,990,-11,30,2
1699,-215,0,979,-10,5,-2
1700,-125,23,982,-11,-23,-7
1701,71,43,1017,-13,-32,-10
1702,191,40,1019,-16,-19,-11
1703,189,24,1000,-17,11,-3
1704,40,12,995,-14,30,0
1705,-136,3,987,-13,29,4
1706,-209,-3,985,-8,9,-1
1707,-147,17,979,-13,-18,-6
1708,50,40,1014,-12,-32,-12
1709,175,33,1017,-16,-21,-10
1710,201,30,1000,-16,5,-4
1711,66,17,1000,-15,29,1
1712,-123,2,990,-15,33,4
1713,-207,-2,977,-11,11,0
1714,-165,15,984,-9,-15,-5
1715,22,33,1021,-12,-35,-9
1716,165,35,1013,-13,-22,-11
1717,207,38,998,-14,3,-5
1718,87,17,999,-17,27,0
1719,-101,-6,1004,-14,33,2
1720,-208,2,963,-10,15,-1
1721,-173,17,986,-13,-12,-4
1722,-4,30,1015,-12,-32,-10
1723,150,34,1015,-14,-25,-10
1724,218,37,1004,-14,-1,-6
1725,103,22,1002,-16,25,0
1726,-76,0,998,-14,32,1
1727,-207,0,970,-12,19,1
1728,-179,15,980,-11,-9,-5
1729,-30,25,1009,-12,-30,-8
1730,139,37,1011,-13,-27,-11
1731,215,40,1011,-16,-6,-7
1732,120,25,1007,-16,24,-1
1733,-48,1,999,-14,34,1
1734,-193,3,964,-11,21,1
1735,-194,7,989,-11,-7,-4
1736,-59,18,1004,-12,-29,-9
1737,127,39,1004,-13,-28,-11
1738,215,40,1010,-13,-8,-9
1739,137,27,1012,-16,20,-1
1740,-26,7,1009,-15,32,2
1741,-185,2,966,-13,24,1
1742,-199,2,974,-11,-3,-5
1743,-84,16,1002,-10,-27,-10
1744,108,40,1012,-13,-31,-11
1745,213,37,1003,-14,-12,-10
1746,156,25,1007,-16,16,-1
1747,-4,11,1009,-15,32,2
1748,-169,3,979,-13,27,2
1749,-203,1,974,-12,1,-2
1750,-112,15,983,-11,-23,-7
1751,93,41,1026,-11,-31,-11
1752,203,35,1010,-15,-15,-9
1753,172,24,992,-16,14,-3
1754,23,15,1004,-14,31,1
1755,-157,7,996,-15,29,3
1756,-207,1,977,-10,4,-2
1757,-131,15,982,-9,-21,-7
1758,70,41,1014,-14,-32,-10
1759,189,31,1016,-15,-17,-11
1760,192,27,1006,-16,10,-4
1761,42,20,995,-13,31,0
1762,-142,22,1001,-16,30,0
1763,-222,6,965,-25,1,-12
1764,-144,-2,990,-5,-27,-5
1765,44,46,984,39,-44,4
1766,179,10,956,-45,-30,-5
1767,202,37,1001,-11,5,-3
1768,68,13,994,-21,32,2
1769,-116,6,977,-23,31,2
1770,-212,7,989,-2,14,0
1771,-161,24,986,-22,-15,-4
1772,13,29,1009,-11,-33,-9
1773,160,32,1009,-18,-22,-10
1774,211,28,1009,-19,-2,-5
1775,97,13,1001,-13,24,0
1776,-81,-12,988,-19,32,3
1777,-199,0,975,-8,19,0
1778,-182,24,1000,-13,-8,-4
1779,-29,36,1006,-15,-31,-10
1780,137,32,999,-16,-29,-10
1781,218,51,1023,-19,-6,-7
1782,123,17,1012,-18,24,0
1783,-42,-22,963,-17,35,3
1784,-194,-31,980,-10,21,3
1785,-192,-54,1001,-5,-6,-1
1786,-73,219,995,29,-22,-8
1787,173,49,328,-79,8,-26
1788,212,-18,346,29,-51,-9
1789,-27,-80,364,-176,74,-7
1790,-44,-216,170,-26,228,-25
1791,-274,-189,228,-34,52,-17
1792,-139,-107,418,-1,-254,-19
1793,-81,-2,537,61,115,-25
1794,47,83,608,-122,-5,-21
1795,246,46,827,57,-233,-19
1796,122,163,883,50,-183,15
1797,15,-85,95,461,126,183
1798,-75,-103,299,32,170,111
1799,-211,-19,385,283,-175,94
1800,-72,-195,228,-215,-334,59
1801,27,-2,270,-71,174,29
1802,161,-12,547,167,253,11
1803,261,31,715,-276,-224,9
1804,-25,110,438,206,-230,20
1805,-95,-150,301,-60,223,31
1806,-185,43,-88,-295,355,84
1807,-228,64,325,175,-64,11
1808,78,-38,228,-148,-140,-5
1809,243,-79,304,-48,201,-24
1810,192,-55,306,-34,442,-11
1811,141,68,696,-17,292,1
1812,-161,-458,331,137,-95,-1
1813,-206,156,63,-55,-81,-11
1814,-194,56,160,-93,222,4
1815,-1,-8,204,25,-123,-35
1816,187,-36,161,-25,-171,-9
1817,160,-147,315,-48,-10,-7
1818,184,0,782,47,126,-19
1819,-120,-18,223,-104,156,-4
1820,-189,72,33,-58,34,-9
1821,-226,46,387,-23,-34,-10
1822,-22,89,633,-97,14,-27
1823,134,43,794,-27,85,-21
1824,229,201,512,12,8,-6
1825,170,-99,315,-17,-62,45
1826,-86,111,669,63,35,37
1827,-233,-116,628,-121,80,20
1828,-191,-7,544,48,43,-3
1829,-48,35,822,-29,-66,-1
1830,125,43,829,-34,-63,-16
1831,295,16,746,21,39,-17
1832,98,34,785,-62,59,5
1833,-42,-15,941,3,12,-3
1834,-214,0,921,2,-2,-2
1835,-226,52,888,-24,0,-1
1836,-40,30,966,2,-8,-13
1837,131,54,984,-26,-39,-13
1838,233,34,978,-19,-28,-8
1839,152,12,1018,-7,22,-4
1840,-50,-20,1000,-23,49,3
1841,-197,-11,944,-7,28,-1
1842,-220,5,996,-2,-14,-4
1843,-65,41,1016,-11,-38,-8
1844,129,47,997,-8,-25,-12
1845,225,53,1006,-17,-4,-8
1846,151,34,1026,-22,15,-1
1847,-27,-8,1003,-12,30,3
1848,-198,-11,960,-16,26,3
1849,-209,-6,983,-10,0,-3
1850,-80,13,997,-10,-29,-9
1851,118,46,1012,-12,-34,-12
1852,227,51,1011,-11,-12,-9
1853,154,36,1008,-17,20,-2
1854,-13,11,1006,-17,33,2
1855,-185,-4,974,-11,25,2
1856,-212,-5,973,-14,-1,-3
1857,-97,7,989,-8,-24,-10
1858,104,42,1016,-12,-30,-11
1859,222,40,1009,-12,-14,-10
1860,164,34,1009,-14,15,-2
1861,4,16,1009,-17,32,1
1862,-174,6,978,-12,29,2
1863,-213,-4,968,-12,2,-4
1864,-114,6,993,-12,-24,-9
1865,86,38,1022,-12,-34,-11
1866,210,36,1007,-15,-17,-10
1867,180,29,999,-14,13,-3
1868,22,22,1008,-15,32,1
1869,-156,9,992,-13,30,2
1870,-216,-3,974,-12,6,-1
1871,-139,12,975,-13,-21,-6
1872,71,33,1017,-13,-33,-11
1873,194,35,1022,-12,-18,-10
1874,194,25,998,-15,8,-3
1875,52,20,997,-14,30,1
1876,-142,7,994,-14,29,4
1877,-217,0,982,-9,7,-1
1878,-152,14,980,-12,-19,-6
1879,47,35,1011,-13,-35,-10
1880,180,32,1016,-15,-19,-11
1881,206,29,1011,-16,4,-4
1882,68,20,994,-13,29,1
1883,-117,2,992,-13,33,3
1884,-216,-1,973,-10,13,-1
1885,-164,19,984,-11,-14,-6
1886,24,33,1019,-14,-33,-11
1887,161,36,1010,-14,-24,-10
1888,217,34,999,-15,1,-5
1889,88,16,1006,-14,29,2
1890,-98,-1,996,-14,33,3
1891,-208,-2,971,-13,16,-2
1892,-173,20,975,-11,-12,-5
1893,-9,29,1014,-12,-32,-9
1894,153,41,1021,-14,-26,-11
1895,214,36,1004,-17,-3,-6
1896,106,21,997,-17,24,0
1897,-75,-1,1002,-13,32,1
1898,-204,-2,970,-9,18,-2
1899,-185,12,974,-10,-8,-4
1900,-30,24,1011,-13,-30,-9
1901,137,39,1015,-14,-28,-12
1902,216,40,1012,-15,-5,-7
1903,121,24,1006,-16,23,-1
1904,-48,2,999,-14,34,2
1905,-191,-1,963,-13,21,1
1906,-196,6,988,-12,-4,-4
1907,-59,23,1004,-12,-29,-10
1908,125,36,1007,-15,-29,-11
1909,215,38,1006,-15,-9,-9
1910,136,26,1011,-17,20,-2
1911,-25,8,1010,-14,33,1
1912,-186,4,963,-12,26,4
1913,-198,5,977,-11,-1,-3
1914,-90,13,1001,-12,-26,-9
1915,108,39,1014,-13,-31,-11
1916,214,34,1004,-14,-12,-9
1917,153,24,1003,-16,17,-1
1918,0,15,1010,-15,32,1
1919,-173,7,983,-13,27,2
1920,-208,6,970,-12,3,-1
1921,-110,15,988,-12,-25,-7
1922,88,39,1025,-14,-33,-9
1923,206,34,1008,-16,-16,-9
1924,177,20,995,-15,13,-4
1925,22,18,1001,-15,32,1
1926,-160,7,996,-12,30,2
1927,-209,0,978,-12,5,-2
1928,-136,16,975,-14,-21,-5
1929,72,37,1014,-11,-33,-11
1930,190,41,1014,-16,-17,-10
1931,194,18,995,-18,9,-5
1932,41,22,1003,-14,32,1
1933,-136,0,999,-14,30,3
1934,-213,4,982,-11,10,-2
1935,-146,7,983,-13,-17,-6
1936,48,37,1001,-12,-31,-11
1937,169,30,1018,-18,-18,-10
1938,206,36,1009,-11,5,-6
1939,65,18,1005,-19,28,0
1940,-118,4,987,-13,32,2
1941,-213,0,978,-14,12,-2
1942,-166,18,981,-14,-16,-6
1943,18,26,1011,-12,-35,-10
1944,166,35,1013,-17,-24,-10
1945,213,33,999,-14,1,-6
1946,92,21,1005,-16,27,0
1947,-100,0,1003,-15,34,3
1948,-211,3,967,-11,16,-1
1949,-178,21,986,-14,-12,-5
1950,-16,24,995,-15,-32,-9
1951,153,41,1021,-13,-26,-10
1952,213,32,1015,-21,-2,-8
1953,123,16,993,-14,24,1
1954,-55,0,1005,-15,34,4
1955,-209,-17,950,-15,22,0
1956,-188,4,970,-5,-6,-3
1957,-44,14,1034,-11,-29,-8
1958,118,-25,1008,-13,-27,-15
1959,244,162,683,52,-105,-10
1960,168,-61,380,191,-163,143
1961,-40,-12,394,412,-176,134
1962,-191,-96,332,205,-188,148
1963,-115,39,113,43,-154,104
1964,-25,-12,272,104,-87,66
1965,176,41,489,-6,-27,16
1966,111,110,734,-13,-9,25
1967,178,54,886,-2,-10,9
1968,-3,-14,883,-55,34,2
1969,-156,-88,822,-18,60,7
1970,-232,97,590,35,-19,-1
1971,-4,-95,448,-151,-35,-22
1972,99,-134,149,128,-23,-24
1973,181,-136,356,-28,-51,-34
1974,174,-62,8,-11,3,-4
1975,49,71,314,47,70,-7
1976,-31,97,423,-68,11,-13
1977,-236,-94,541,34,-29,1
1978,-138,-20,653,23,-37,-11
1979,8,277,366,-166,11,-121
1980,155,3,268,167,12,-152
1981,40,76,367,-298,-31,-109
1982,69,25,447,283,0,-40
1983,-162,97,482,-77,-3,11
1984,-218,-82,614,-132,-6,11
1985,-74,-24,371,234,-21,-9
1986,-41,173,482,-128,-89,3
1987,147,-34,499,148,-37,-39
1988,161,164,228,36,31,-72
1989,43,21,501,-46,-28,-24
1990,-115,-127,489,127,-24,-10
1991,-182,-104,804,-30,-20,-4
1992,-207,-163,892,-20,-26,11
1993,84,235,856,92,-51,-20
1994,54,-128,108,-80,-49,-2
1995,169,224,498,-9,-19,-15
1996,23,151,357,17,28,4
1997,36,-6,225,-75,-5,11
1998,-198,-185,707,-5,24,-2
1999,-194,-93,358,20,1,-11
2000,2,93,425,-55,-22,16
2001,44,-11,101,-14,20,26
2002,189,131,798,-118,67,12
2003,100,6,684,40,45,10
2004,-19,-120,570,-155,14,14
2005,-225,190,795,57,55,9
2006,-209,-179,115,-14,29,37
2007,-38,101,321,-29,6,24
2008,85,-54,573,-92,-13,11
2009,269,37,714,26,36,-13
2010,135,-37,870,-113,34,9
2011,-79,-25,596,30,53,-1
2012,-130,-37,715,-27,16,-14
2013,-247,51,864,-20,16,2
2014,-61,112,928,16,-17,-14
2015,131,146,1018,-4,-44,-7
2016,183,74,701,3,-44,2
2017,132,-106,758,-34,1,0
2018,-8,-43,564,26,31,0
2019,-156,-77,796,-19,7,9
2020,-202,-8,962,17,-4,-4
2021,-73,37,997,13,-29,-7
2022,85,125,939,-8,-26,-7
2023,211,105,945,-6,-8,-10
2024,139,68,1017,-32,18,1
2025,-10,-6,1001,-35,30,2
2026,-177,-61,954,-17,26,2
2027,-194,-45,958,-19,-4,-2
2028,-76,-24,926,0,-25,-9
2029,101,45,955,-2,-24,-11
2030,207,86,1019,-10,-9,-8
2031,146,74,1024,-10,16,-2
2032,-10,40,1003,-17,30,3
2033,-180,1,973,-18,30,4
2034,-201,-32,975,-25,-1,-3
2035,-105,-21,992,-11,-23,-7
2036,105,15,1015,-10,-30,-12
2037,213,34,1009,-12,-13,-10
2038,170,54,1010,-5,16,-3
2039,4,42,1020,-16,33,2
2040,-170,28,981,-16,25,2
2041,-214,-3,965,-15,3,-3
2042,-119,-1,984,-18,-25,-8
2043,84,16,1024,-13,-33,-11
2044,209,23,1010,-15,-17,-11
2045,180,22,995,-12,12,-4
2046,31,30,1007,-8,31,1
2047,-160,21,996,-11,30,3
2048,-215,12,973,-10,5,-2
2049,-141,16,973,-13,-20,-7
2050,68,31,1013,-16,-33,-11
2051,194,22,1026,-16,-19,-10
2052,197,17,1005,-15,7,-5
2053,50,15,996,-11,30,1
2054,-138,11,990,-12,31,3
2055,-222,8,981,-10,12,-1
2056,-152,23,977,-12,-18,-6
2057,43,37,1012,-14,-33,-11
2058,178,33,1018,-16,-20,-11
2059,209,24,1010,-17,4,-5
2060,70,11,998,-16,28,1
2061,-116,-1,987,-12,33,2
2062,-216,-1,972,-9,14,-1
2063,-164,19,981,-11,-14,-5
2064,18,38,1023,-13,-33,-10
2065,164,39,1012,-17,-24,-10
2066,214,35,1003,-15,1,-5
2067,92,16,1004,-16,26,0
2068,-96,-5,999,-15,32,4
2069,-209,-3,964,-12,17,0
2070,-177,13,977,-11,-12,-5
2071,-8,28,1019,-11,-32,-11
2072,150,41,1020,-13,-26,-11
2073,218,41,1007,-15,-4,-7
2074,107,24,1002,-16,24,0
2075,-72,0,997,-15,34,2
2076,-201,-2,970,-12,19,0
2077,-188,11,975,-10,-7,-4
2078,-31,25,1012,-10,-30,-10
2079,137,35,1014,-14,-28,-11
2080,219,38,1012,-13,-6,-7
2081,123,24,1006,-14,22,-1
2082,-49,4,993,-13,34,3
2083,-196,3,968,-11,22,1
2084,-194,7,987,-12,-6,-5
2085,-59,19,1003,-11,-29,-9
2086,130,34,1009,-14,-30,-11
2087,214,37,1012,-14,-9,-8
2088,137,29,1011,-15,19,0
2089,-30,7,1008,-15,34,2
2090,-186,4,962,-11,24,3
2091,-204,2,979,-11,-1,-3
2092,-85,17,1004,-12,-26,-7
2093,107,37,1011,-14,-30,-10
2094,216,37,1005,-16,-11,-9
2095,148,24,1004,-14,17,-1
2096,-2,12,1011,-13,31,1
2097,-172,2,978,-14,27,3
2098,-207,4,969,-10,2,-3
2099,-112,14,995,-13,-24,-8
2100,94,40,1023,-14,-33,-10
2101,203,37,1008,-14,-15,-10
2102,173,22,993,-15,13,-2
2103,16,13,1006,-13,32,1
2104,-155,6,989,-14,28,1
2105,-212,1,983,-11,4,-2
2106,-125,14,973,-10,-23,-8
2107,68,42,1020,-14,-33,-10
2108,194,33,1013,-15,-18,-11
2109,184,23,1007,-16,10,-4
2110,45,13,987,-16,30,0
2111,-142,5,994,-13,31,2
2112,-212,1,987,-13,8,-2
2113,-147,15,978,-11,-18,-7
2114,49,39,1012,-13,-34,-11
2115,177,34,1016,-15,-20,-10
2116,203,27,1008,-16,6,-5
2117,64,16,996,-14,29,0
2118,-119,7,992,-14,32,3
2119,-211,-2,975,-13,13,0
2120,-160,20,986,-11,-14,-5
2121,23,30,1017,-15,-33,-10
2122,161,35,1011,-14,-22,-11
2123,213,33,998,-15,1,-6
2124,83,17,1005,-16,27,0
2125,-98,2,1000,-13,32,2
2126,-207,0,969,-11,15,-1
2127,-175,16,977,-10,-11,-4
2128,-3,26,1016,-14,-32,-10
2129,148,34,1017,-15,-25,-10
2130,217,38,1002,-14,-2,-6
2131,103,23,1003,-15,26,-1
2132,-79,0,1001,-12,34,3
2133,-202,1,968,-11,18,0
2134,-185,10,981,-12,-9,-4
2135,-32,25,1004,-13,-30,-8
2136,140,33,1012,-15,-27,-11
2137,214,41,1016,-13,-5,-7
2138,117,25,1003,-18,22,0
2139,-48,2,997,-12,34,1
2140,-198,1,968,-13,22,2
2141,-193,8,985,-12,-5,-4
2142,-56,18,1004,-13,-30,-9
2143,124,44,1007,-15,-29,-9
2144,214,35,1009,-15,-9,-10
2145,137,24,1013,-15,20,-1
2146,-27,9,1006,-14,33,1
2147,-182,5,968,-11,24,2
2148,-200,4,979,-11,-2,-3
2149,-85,21,997,-12,-26,-8
2150,109,44,1014,-12,-31,-10
2151,211,49,996,-18,-13,-8
2152,159,8,1006,-15,16,-3
2153,-4,17,1025,-13,31,1
2154,-167,-2,973,-18,27,2
2155,-204,-1,968,-6,3,-3
2156,-106,15,987,-10,-24,-7
2157,84,45,1026,-15,-32,-9
2158,203,25,1012,-15,-15,-10
2159,166,5,994,-17,13,-5
2160,19,-1,999,-8,32,-2
2161,-149,21,1002,-6,28,4
2162,-215,56,847,55,3,11
2163,-141,65,744,-8,-39,2
2164,75,9,746,98,-49,-12
2165,193,3,839,-58,-35,-5
2166,189,-2,749,47,10,-12
2167,40,-17,827,-47,20,3
2168,-95,21,750,-38,13,3
2169,-232,21,922,63,13,-1
2170,-167,46,946,-76,-14,-4
2171,24,59,1034,8,-30,-9
2172,177,39,1012,-10,-31,-10
2173,215,2,944,-62,-6,-3
2174,104,-34,960,29,39,-1
2175,-104,-55,1006,-42,38,6
2176,-221,-74,951,10,14,-7
2177,-196,170,858,-13,-15,-21
2178,18,39,489,-171,1,-44
2179,108,-84,397,12,-19,-64
2180,132,-1,513,1,60,2
2181,81,-53,481,-76,-3,0
2182,-110,-75,497,58,26,1
2183,-188,-35,524,-27,41,-7
2184,-215,22,776,8,28,0
2185,-19,58,948,1,-51,-12
2186,158,50,993,-1,-54,-12
2187,223,87,701,-51,12,-25
2188,99,88,375,-98,75,-13
2189,-39,-215,805,-49,90,-43
2190,-233,-59,608,3,-11,-15
2191,-149,-65,591,-15,29,-28
2192,-92,-33,838,-93,19,-21
2193,164,74,978,124,-37,-24
2194,233,52,824,-140,-48,-10
2195,118,70,959,105,33,-3
2196,-50,43,1021,-61,56,6
2197,-207,6,982,-47,15,0
2198,-229,-54,919,57,-23,0
2199,-73,-53,1013,-81,-48,-16
2200,131,-83,999,39,-16,-18
2201,221,194,1036,6,0,-24
2202,170,-160,463,-253,54,-99
2203,42,128,278,159,83,-34
2204,-136,-20,534,-308,100,11
2205,-205,-100,411,197,-1,-30
2206,-97,-83,811,-201,-21,-4
2207,97,2,581,-7,-45,-25
2208,245,28,695,157,31,-23
2209,182,83,813,-252,24,4
2210,59,22,927,240,23,-9
2211,-183,-64,848,-161,26,5
2212,-278,1,768,32,19,-3
2213,-166,45,863,101,-1,-10
2214,85,260,1029,-182,-55,-14
2215,228,-8,738,50,14,-53
2216,234,68,669,-165,-7,-25
2217,15,-113,668,-25,70,3
2218,-133,-51,620,176,10,-18
2219,-244,-82,803,-229,-39,7
2220,-170,36,717,193,-2,-11
2221,79,22,952,-18,-30,-12
2222,173,118,962,-111,-37,-3
2223,229,93,936,172,-4,-5
2224,59,55,983,-171,23,5
2225,-141,54,982,27,51,9
2226,-242,-65,944,8,14,-2
2227,-170,-77,839,-120,-42,-3
2228,26,6,761,100,-28,-13
2229,227,30,791,-65,-19,-16
2230,210,7,929,3,12,-2
2231,92,77,946,44,26,-3
2232,-125,35,982,-68,28,5
2233,-256,59,983,34,25,1
2234,-172,8,977,-40,-13,-8
2235,11,13,1015,-34,-40,-10
2236,185,-2,1018,11,-28,-11
2237,241,2,1018,-41,-2,-9
2238,101,2,998,5,36,0
2239,-105,20,992,-1,39,5
2240,-227,22,983,-23,14,1
2241,-200,42,978,6,-11,-3
2242,-8,43,1020,-27,-35,-10
2243,163,24,1019,-19,-27,-10
2244,237,17,993,-11,-3,-7
2245,117,-4,996,-25,25,-2
2246,-80,-7,1017,-4,37,2
2247,-218,2,962,-10,19,0
2248,-199,28,965,-9,-9,-5
2249,-32,41,1015,-6,-32,-8
2250,146,48,1020,-21,-30,-12
2251,235,35,1005,-16,-5,-8
2252,127,16,999,-18,25,0
2253,-60,-13,1003,-18,33,2
2254,-207,-13,969,-8,22,1
2255,-203,13,976,-10,-6,-4
2256,-48,29,1004,-8,-30,-9
2257,135,49,1015,-13,-30,-12
2258,226,47,1006,-18,-8,-7
2259,133,26,1015,-15,22,-1
2260,-37,-1,999,-17,33,3
2261,-198,-7,963,-12,23,2
2262,-201,2,988,-10,-3,-3
2263,-76,18,1002,-12,-28,-9
2264,127,41,1006,-12,-31,-12
2265,222,39,1006,-12,-10,-8
2266,147,34,1013,-16,18,-1
2267,-16,7,1012,-15,33,2
2268,-185,-1,968,-13,24,3
2269,-209,1,969,-11,-2,-4
2270,-96,8,1003,-10,-26,-9
2271,106,40,1011,-12,-31,-10
2272,221,38,1005,-13,-13,-10
2273,163,30,1006,-14,15,-2
2274,0,15,1014,-14,33,2
2275,-173,5,982,-15,28,3
2276,-210,-2,969,-11,3,-2
2277,-118,14,988,-12,-24,-7
2278,90,36,1019,-13,-33,-9
2279,209,36,1009,-16,-16,-10
2280,179,24,995,-16,13,-2
2281,27,18,1006,-13,32,1
2282,-158,9,997,-12,30,2
2283,-214,0,974,-10,6,-3
2284,-136,9,979,-10,-21,-7
2285,69,42,1013,-14,-34,-10
2286,195,33,1018,-17,-18,-10
2287,193,24,1004,-14,8,-3
2288,46,16,997,-14,30,2
2289,-137,6,991,-11,32,3
2290,-216,-3,982,-11,9,-2
2291,-153,17,978,-12,-18,-7
2292,47,38,1008,-12,-32,-11
2293,178,36,1021,-15,-20,-11
2294,204,31,1005,-16,5,-3
2295,68,15,1000,-15,29,0
2296,-124,3,990,-14,33,3
2297,-215,-1,974,-9,13,-1
2298,-160,17,985,-10,-15,-5
2299,18,31,1015,-12,-34,-9
2300,166,34,1012,-14,-25,-11
2301,212,33,1002,-14,1,-5
2302,86,21,1001,-15,27,2
2303,-96,-1,1001,-13,33,2
2304,-208,2,967,-10,14,-1
2305,-177,15,975,-11,-11,-3
2306,-2,27,1017,-13,-32,-9
2307,147,32,1018,-16,-25,-11
2308,221,41,1001,-13,-4,-7
2309,105,21,1003,-15,26,-1
2310,-73,1,1002,-13,33,2
2311,-204,-1,965,-13,19,1
2312,-187,9,980,-11,-8,-4
2313,-35,26,1010,-9,-30,-9
2314,142,37,1013,-15,-27,-11
2315,215,42,1014,-17,-5,-8
2316,121,24,1008,-16,21,-2
2317,-47,0,997,-15,34,2
2318,-198,0,964,-10,23,2
2319,-195,6,986,-13,-5,-4
2320,-59,18,1006,-11,-29,-9
2321,125,37,1005,-12,-30,-11
2322,217,41,1015,-15,-8,-8
2323,135,26,1011,-15,19,0
2324,-24,4,1008,-15,32,1
2325,-186,3,966,-13,26,2
2326,-203,3,974,-12,-2,-2
2327,-84,16,1004,-12,-27,-8
2328,114,37,1012,-15,-29,-10
2329,217,40,1004,-14,-11,-10
2330,152,22,1006,-16,17,-2
2331,-6,11,1013,-16,31,1
2332,-174,5,976,-14,28,2
2333,-207,0,966,-10,1,-3
2334,-107,16,996,-12,-25,-8
2335,94,39,1023,-14,-33,-9
2336,206,35,1008,-15,-14,-9
2337,170,23,998,-15,14,-2
2338,18,15,1002,-14,32,2
2339,-157,6,993,-14,27,3
2340,-211,2,977,-11,4,-2
2341,-130,16,980,-13,-22,-8
2342,71,39,1014,-12,-33,-11
2343,189,35,1017,-15,-18,-10
2344,190,19,1002,-17,9,-3
2345,43,18,995,-15,32,2
2346,-135,5,990,-14,31,3
2347,-216,2,986,-13,10,-1
2348,-145,18,980,-12,-19,-7
2349,48,34,1012,-12,-32,-9
2350,174,31,1012,-16,-19,-10
2351,197,28,1008,-15,5,-5
2352,67,15,998,-13,28,1
2353,-121,4,986,-12,32,3
2354,-210,2,978,-9,11,-2
2355,-158,16,983,-11,-15,-6
2356,17,32,1013,-11,-33,-10
2357,166,35,1015,-14,-23,-10
2358,213,32,998,-16,3,-6
2359,83,20,1003,-16,28,0
2360,-94,-1,1001,-16,31,2
2361,-214,3,969,-11,16,1
2362,-169,17,976,-10,-12,-6
2363,-5,26,1018,-13,-31,-10
2364,152,35,1014,-15,-26,-11
2365,217,35,1006,-16,-1,-6
2366,102,23,1000,-15,25,-1
2367,-76,-1,999,-11,32,1
2368,-202,2,970,-24,15,1
2369,-185,13,976,-16,-9,-3
2370,-25,25,1009,-14,-30,-9
2371,134,34,1016,-12,-26,-11
2372,216,37,1007,-17,-6,-7
2373,118,20,1010,-14,23,-1
2374,-48,4,994,-13,32,1
2375,-196,1,964,-11,22,0
2376,-191,12,989,-9,-6,-4
2377,-61,22,1000,-12,-29,-8
2378,128,37,1007,-15,-29,-11
2379,212,33,1010,-13,-9,-8
2380,136,28,1009,-15,20,-1
2381,-26,7,1008,-12,32,1
2382,-185,2,966,-13,24,3
2383,-199,6,975,-11,-2,-2
2384,-81,15,1001,-14,-26,-8
2385,111,37,1015,-14,-30,-10
2386,212,36,998,-14,-12,-9
2387,150,33,1018,-17,17,-2
2388,-5,24,996,-24,23,2
2389,-176,0,983,0,19,2
2390,-206,3,969,-7,-5,-3
2391,-101,0,1001,-16,-23,-10
2392,95,40,1015,-1,-32,-11
2393,203,31,1000,-26,-16,-8
2394,176,28,998,-6,15,-3
2395,8,29,1019,-13,31,2
2396,-165,13,978,-22,27,3
2397,-204,-9,980,-6,5,-3
2398,-128,17,987,-19,-23,-5
2399,78,21,1007,-13,-34,-11
2400,201,24,1017,-13,-17,-9
2401,177,29,1009,-20,10,-2
2402,48,13,991,-6,32,-1
2403,-139,7,993,-12,31,4
2404,-211,-2,970,-14,8,0
2405,-147,-24,981,-9,-15,-10
2406,35,4,1002,-7,-30,-14
2407,176,133,953,7,-19,-18
2408,193,37,462,-55,-16,-20
2409,46,16,623,3,40,-33
2410,-125,39,644,-129,48,-25
2411,-191,-48,592,-29,40,-13
2412,-177,-25,673,46,-2,-15
2413,29,64,739,-96,-40,-14
2414,145,35,789,30,-11,-17
2415,217,78,902,-3,2,-8
2416,84,54,971,-64,22,2
2417,-97,-19,911,34,36,0
2418,-197,-32,918,-55,11,5
2419,-162,-43,856,-4,-14,-6
2420,-5,-68,920,13,-28,-16
2421,113,186,1043,-58,-16,-15
2422,219,60,528,-59,3,-59
2423,114,55,673,-71,14,-37
2424,-83,73,584,33,45,5
2425,-151,-55,600,-73,27,1
2426,-186,-62,588,31,-38,-4
2427,-50,-29,834,-13,-33,-8
2428,137,40,904,-3,-17,-10
2429,197,80,936,-1,-2,-5
2430,151,90,915,-11,9,2
2431,-41,-40,969,-13,26,3
2432,-180,28,671,-5,26,23
2433,-213,90,751,63,-9,20
2434,-86,-118,776,-4,-39,6
2435,92,2,512,-41,-43,-4
2436,240,42,928,20,9,-1
2437,143,-5,964,-45,17,3
2438,26,40,985,7,31,0
2439,-203,7,945,-27,35,6
2440,-232,43,936,-5,6,-4
2441,-102,18,1004,-21,-18,-10
2442,78,31,1012,-28,-40,-12
2443,223,22,985,-4,-18,-11
2444,159,-19,981,-26,18,-7
2445,13,-32,1016,-3,32,-2
2446,-134,-54,950,1,25,-1
2447,-204,17,947,6,6,-3
2448,-139,214,927,-41,-10,-39
2449,38,14,484,-92,21,-78
2450,163,39,566,-106,47,-98
2451,168,-45,635,-204,70,-62
2452,96,-62,400,106,29,-59
2453,-126,-74,700,-155,11,-22
2454,-226,-13,692,178,5,-16
2455,-151,46,875,-18,-25,-9
2456,31,137,792,-19,-68,-4
2457,206,62,889,95,-49,-7
2458,207,-1,979,-138,3,10
2459,52,-114,986,69,40,5
2460,-130,-66,1020,-18,22,4
2461,-212,5,988,-21,-5,3
2462,-177,103,948,79,-2,-6
2463,38,232,1063,-79,-28,-24
2464,165,45,820,-124,27,-43
2465,201,34,943,55,-28,-27
2466,74,-91,793,-144,20,-10
2467,-99,-68,788,63,52,-8
2468,-204,-86,938,12,-2,-4
2469,-172,70,1009,-67,-30,-2
2470,34,61,961,119,-31,-14
2471,138,84,1022,-95,-28,-5
2472,204,20,1030,-4,2,-3
2473,89,-11,996,31,24,-2
2474,-99,0,984,-87,21,7
2475,-197,3,993,58,22,-3
2476,-173,83,999,-38,-10,-6
2477,-11,15,955,-30,-39,-14
2478,157,32,1039,25,-25,-14
2479,198,25,833,-53,-14,-6
2480,122,0,845,4,21,0
2481,-90,-21,926,-1,36,5
2482,-202,14,973,-28,9,1
2483,-170,-15,940,15,-13,-4
2484,-30,29,1036,-18,-32,-5
2485,153,18,1016,-12,-24,-11
2486,216,42,987,3,2,-9
2487,107,59,1004,-22,22,2
2488,-66,32,1023,-7,32,2
2489,-207,13,969,-18,21,2
2490,-191,5,955,-23,-7,-3
2491,-31,3,1023,-9,-30,-10
2492,136,9,1013,-21,-30,-12
2493,225,30,1002,-11,-4,-8
2494,127,26,1011,-7,24,-1
2495,-55,19,997,-15,33,3
2496,-202,14,972,-7,22,0
2497,-205,21,983,-13,-6,-4
2498,-52,18,1003,-17,-30,-9
2499,131,23,1006,-14,-28,-10
2500,223,28,1008,-18,-8,-9
2501,143,19,1015,-15,21,-3
2502,-32,4,999,-11,34,0
2503,-197,9,965,-11,25,1
2504,-206,15,986,-9,-3,-4
2505,-78,25,999,-13,-28,-8
2506,119,36,1007,-14,-30,-11
2507,219,34,1012,-14,-11,-9
2508,152,19,1009,-18,18,-1
2509,-14,4,1012,-13,34,1
2510,-179,4,969,-11,26,2
2511,-211,9,973,-10,1,-3
2512,-93,18,997,-12,-25,-8
2513,101,43,1012,-14,-31,-10
2514,216,37,1003,-15,-13,-9
2515,164,22,1006,-16,16,-2
2516,-1,13,1013,-15,32,3
2517,-169,0,980,-12,28,2
2518,-211,-2,970,-10,3,-2
2519,-121,14,985,-10,-25,-8
2520,89,42,1023,-12,-32,-10
2521,206,37,1010,-16,-15,-9
2522,179,29,996,-16,12,-2
2523,20,16,1009,-15,32,2
2524,-157,5,992,-12,29,2
2525,-213,-5,973,-12,5,-2
2526,-136,12,979,-11,-22,-7
2527,70,38,1020,-13,-34,-10
2528,200,36,1015,-15,-19,-11
2529,188,27,998,-15,10,-4
2530,46,22,998,-13,32,1
2531,-143,4,997,-13,31,3
2532,-220,1,982,-12,8,-1
2533,-151,11,974,-12,-18,-6
2534,51,37,1010,-12,-32,-10
2535,184,36,1018,-17,-20,-11
2536,205,32,1011,-15,6,-5
2537,63,16,995,-14,30,0
2538,-125,3,987,-11,32,2
2539,-219,-2,982,-9,12,0
2540,-166,16,977,-11,-16,-6
2541,30,29,1017,-14,-33,-12
2542,169,37,1012,-13,-23,-11
2543,210,37,1004,-15,2,-5
2544,87,19,1004,-16,30,0
2545,-111,0,995,-14,34,4
2546,-210,0,967,-12,13,-1
2547,-173,13,984,-12,-13,-5
2548,5,30,1014,-11,-33,-9
2549,153,33,1015,-16,-24,-11
2550,218,37,1002,-17,0,-6
2551,94,20,1000,-14,26,0
2552,-81,3,1005,-14,33,1
2553,-215,-1,968,-12,17,2
2554,-180,18,971,-11,-10,-5
2555,-19,21,1016,-13,-32,-10
2556,141,35,1017,-13,-27,-11
2557,222,38,1010,-14,-5,-7
2558,114,21,1000,-14,25,-1
2559,-63,4,1000,-12,33,3
2560,-202,-1,967,-10,21,1
2561,-194,10,979,-11,-7,-5
2562,-41,18,1007,-12,-30,-10
2563,128,39,1007,-13,-29,-12
2564,223,39,1014,-14,-7,-7
2565,126,22,1010,-15,21,-1
2566,-43,6,1000,-12,34,3
2567,-188,-1,962,-11,24,0
2568,-202,10,988,-11,-2,-2
2569,-70,20,998,-14,-27,-8
2570,121,39,1015,-14,-30,-10
2571,214,35,1002,-14,-9,-8
2572,141,23,1015,-16,18,-1
2573,-16,6,1007,-14,32,1
2574,-183,3,969,-13,26,1
2575,-200,2,971,-10,1,-3
2576,-98,13,1002,-13,-24,-7
2577,103,43,1015,-14,-32,-11
2578,210,34,1002,-15,-12,-10
2579,162,26,1005,-16,16,-1
2580,3,10,1013,-13,33,1
2581,-167,5,983,-12,27,2
2582,-208,-1,971,-13,2,-2
2583,-118,15,987,-10,-23,-8
2584,88,39,1025,-15,-32,-11
2585,202,37,1008,-15,-15,-10
2586,177,26,997,-15,13,-1
2587,26,14,1002,-14,33,2
2588,-156,5,995,-13,30,3
2589,-211,0,979,-12,5,-2
2590,-135,14,979,-10,-20,-6
2591,70,39,1009,-12,-34,-10
2592,189,35,1025,-14,-17,-11
2593,193,29,999,-16,9,-4
2594,45,18,995,-14,31,2
2595,-138,7,989,-13,31,2
2596,-217,-2,985,-12,8,-1
2597,-149,17,977,-13,-18,-6
2598,44,33,1010,-13,-33,-10
2599,180,37,1019,-13,-21,-12
2600,201,27,1005,-15,6,-5
2601,67,23,996,-13,28,0
2602,-118,1,994,-15,33,3
2603,-217,3,975,-11,13,0
2604,-162,10,981,-13,-15,-6
2605,20,30,1019,-13,-33,-11
2606,164,36,1010,-13,-22,-10
2607,215,33,1001,-17,3,-5
2608,87,20,1003,-16,28,1
2609,-99,0,999,-13,33,3
2610,-211,-1,969,-11,15,-1
2611,-175,15,975,-11,-11,-5
2612,-2,25,1016,-12,-31,-9
2613,151,34,1015,-16,-25,-10
2614,220,37,1006,-15,-2,-7
2615,103,23,1001,-15,25,-1
2616,-77,1,999,-14,32,2
2617,-204,-2,972,-11,18,0
2618,-185,11,972,-13,-10,-4
2619,-30,24,1012,-11,-30,-9
2620,142,36,1014,-13,-27,-11
2621,218,38,1011,-15,-5,-8
2622,123,24,1006,-14,24,-1
2623,-56,3,993,-15,35,2
2624,-196,3,968,-11,22,-1
2625,-197,5,981,-10,-5,-5
2626,-62,27,1010,-10,-29,-9
2627,135,60,1012,-22,-30,-13
2628,209,22,1017,-20,-3,-17
2629,137,34,995,-14,17,-6
2630,-25,-13,1010,-19,28,0
2631,-187,2,964,-1,23,1
2632,-194,3,985,-13,-5,-3
2633,-87,24,1004,-9,-26,-8
2634,106,44,1005,-13,-33,-10
2635,212,44,1004,-18,-14,-8
2636,152,22,1009,-17,15,0
2637,3,6,1007,-17,32,2
2638,-172,3,985,-14,29,3
2639,-208,-9,956,-12,3,-2
2640,-105,15,995,-10,-25,-6
2641,96,44,1038,-12,-31,-9
2642,202,26,999,-15,-14,-10
2643,172,-4,997,-13,16,-4
2644,0,-19,998,-5,34,-2
2645,-142,117,713,88,28,38
2646,-215,53,460,-166,13,25
2647,-132,-11,539,29,-63,-53
2648,89,34,573,14,-38,-3
2649,210,40,605,-30,4,1
2650,198,-28,643,26,11,-6
2651,89,30,907,-87,23,1
2652,-185,24,928,66,45,5
2653,-229,28,976,-35,12,-2
2654,-169,51,989,-40,-19,-3
2655,49,47,988,40,-42,-12
2656,197,-1,992,-89,-28,-8
2657,234,-8,1011,25,14,-7
2658,72,-58,1008,-23,36,3
2659,-124,-44,980,-17,32,-4
2660,-198,140,625,-31,18,-54
2661,-113,22,401,30,9,-39
2662,14,-8,418,-237,0,-16
2663,156,79,341,110,-17,-35
2664,218,46,498,-88,19,-14
2665,99,-62,507,-62,16,-12
2666,-27,-47,833,118,47,-13
2667,-272,3,853,-165,31,9
2668,-175,30,803,115,-7,-18
2669,-20,16,930,-52,-43,-10
2670,137,1,841,-34,-28,-17
2671,224,86,811,38,24,-6
2672,37,32,324,-95,24,19
2673,-90,-94,379,28,17,-10
2674,-178,-96,247,-155,38,17
2675,-157,-5,389,78,28,-10
2676,-9,-40,828,-35,-67,-14
2677,190,80,688,-47,-58,-12
2678,197,71,870,117,17,-7
2679,127,77,982,-130,51,9
2680,-53,32,950,37,26,9
2681,-254,-15,883,9,-8,-3
2682,-216,-23,935,-119,-11,-1
2683,-70,-4,1008,97,-3,-12
2684,151,11,996,-101,-38,-15
2685,255,46,1028,10,-26,-10
2686,155,-10,994,28,19,-5
2687,-28,-89,1022,-68,46,0
2688,-206,2,707,58,40,-30
2689,-282,93,422,-120,61,0
2690,-95,-33,269,-38,-55,-36
2691,71,22,481,-110,-1,-22
2692,205,-26,506,-53,-9,-21
2693,173,-11,1006,-29,36,-3
2694,81,-6,620,-9,13,-7
2695,-161,-136,686,60,34,3
2696,-268,17,509,-44,35,0
2697,-156,100,772,58,-7,-28
2698,18,92,327,-102,-24,-34
2699,217,55,481,-17,-22,-35
2700,190,-9,628,-48,29,-18
2701,63,-92,316,-80,44,-2
2702,-137,-121,815,73,28,-6
2703,-169,115,831,-34,-15,-13
2704,-190,6,665,-131,74,-68
2705,47,193,654,47,42,-63
2706,166,45,607,-235,11,-42
2707,181,21,578,67,36,-28
2708,85,-43,848,-56,31,-8
2709,-134,-36,659,-94,27,-4
2710,-154,-111,666,82,8,-13
2711,-171,26,630,-58,-23,-3
2712,15,14,834,36,-27,-8
2713,168,18,851,45,-21,-14
2714,188,99,853,-54,-2,-4
2715,85,215,913,-20,34,12
2716,-98,52,588,-96,54,15
2717,-208,-32,628,-98,34,20
2718,-192,-123,788,53,10,-10
2719,73,-9,651,-119,-38,-11
2720,163,-13,605,17,12,-16
2721,231,83,744,21,23,-15
2722,67,79,827,-69,32,-1
2723,-130,83,836,38,34,0
2724,-215,-27,876,-59,6,-3
2725,-188,-101,763,-14,-6,-5
2726,22,-80,936,36,-30,-13
2727,184,69,1037,-26,-29,-16
2728,235,187,875,21,9,19
2729,90,122,465,-46,26,-5
2730,-92,67,527,-85,79,12
2731,-205,7,507,27,22,-3
2732,-158,-47,324,-73,-43,-5
2733,-31,-28,163,-55,-24,-14
2734,187,24,508,-9,-6,-16
2735,215,57,631,-28,2,-7
2736,117,86,846,20,-9,-2
2737,-74,11,929,-32,32,1
2738,-235,19,973,-33,49,0
2739,-197,-13,971,-2,-5,-4
2740,-25,-88,876,-27,-62,-11
2741,153,-64,770,4,-35,-11
2742,237,25,787,18,21,-11
2743,143,121,869,5,40,-3
2744,-83,221,747,-36,31,6
2745,-237,62,394,45,-6,-20
2746,-217,-22,785,-91,-23,-10
2747,-63,-64,706,-40,-21,-6
2748,168,-77,691,93,-45,-11
2749,243,7,738,-95,-47,-3
2750,183,44,943,73,20,1
2751,-56,51,1006,-1,58,7
2752,-228,68,960,-57,30,6
2753,-235,41,980,45,-13,-2
2754,-93,31,1005,-74,-46,-6
2755,128,-17,995,-10,-24,-12
2756,246,-1,991,-3,-1,-12
2757,176,-15,954,-50,11,0
2758,1,7,1022,30,33,1
2759,-192,10,982,-26,30,4
2760,-241,33,955,-8,9,-1
2761,-118,32,1005,6,-23,-9
2762,98,28,1019,-36,-40,-11
2763,237,1,999,5,-16,-12
2764,185,14,1005,-12,17,-3
2765,15,30,1023,-10,34,1
2766,-170,35,970,6,30,3
2767,-234,35,963,-20,5,-1
2768,-138,29,995,-12,-22,-7
2769,85,32,1022,-19,-35,-12
2770,221,14,1000,-26,-21,-9
2771,191,2,1003,-8,12,-3
2772,41,-4,1022,-16,34,1
2773,-162,5,979,-8,35,3
2774,-226,18,968,-3,8,-1
2775,-150,31,992,-12,-24,-7
2776,64,57,1021,-13,-37,-9
2777,209,34,1005,-21,-19,-12
2778,200,18,1002,-19,11,-3
2779,48,-1,1003,-12,31,1
2780,-148,-3,996,-13,32,2
2781,-221,-4,976,-7,9,-1
2782,-155,19,972,-6,-18,-7
2783,52,46,1012,-11,-33,-11
2784,191,51,1022,-13,-21,-10
2785,206,32,999,-18,5,-3
2786,65,16,997,-15,31,0
2787,-133,-3,994,-14,33,3
2788,-220,-13,985,-13,11,-1
2789,-165,10,974,-10,-17,-5
2790,35,37,1009,-8,-34,-10
2791,181,46,1019,-14,-22,-11
2792,211,35,1004,-17,4,-4
2793,81,26,997,-17,28,1
2794,-115,0,994,-14,33,2
2795,-221,-7,977,-10,13,0
2796,-169,7,977,-12,-14,-4
2797,15,29,1017,-13,-33,-11
2798,167,38,1011,-13,-24,-12
2799,219,40,1002,-15,2,-7
2800,95,25,1000,-15,27,1
2801,-101,2,1003,-15,34,3
2802,-212,-3,969,-12,16,0
2803,-184,11,975,-12,-11,-4
2804,-3,25,1018,-12,-33,-11
2805,151,33,1017,-15,-25,-10
2806,224,41,999,-13,-2,-7
2807,107,26,1005,-14,26,0
2808,-78,3,1004,-15,33,4
2809,-208,-2,967,-11,19,2
2810,-187,11,974,-12,-8,-3
2811,-31,21,1009,-12,-30,-10
2812,141,33,1015,-14,-26,-10
2813,222,40,1010,-13,-6,-7
2814,123,23,1003,-15,22,-1
2815,-55,2,995,-12,34,2
2816,-199,1,967,-12,21,2
2817,-198,11,983,-12,-6,-2
2818,-54,19,1002,-13,-30,-9
2819,127,34,1008,-15,-28,-11
2820,223,40,1010,-14,-8,-9
2821,134,25,1010,-15,21,-1
2822,-28,6,1004,-15,33,2
2823,-190,3,965,-12,24,2
2824,-204,9,979,-12,-3,-4
2825,-82,19,1003,-13,-27,-9
2826,116,39,1006,-14,-30,-9
2827,217,38,1005,-15,-11,-8
2828,155,26,1012,-16,17,0
2829,-10,7,1013,-14,32,2
2830,-178,7,970,-14,26,4
2831,-208,1,971,-10,2,-2
2832,-105,16,998,-14,-24,-8
2833,100,42,1019,-15,-32,-11
2834,211,39,1005,-17,-15,-10
2835,171,25,1000,-17,14,-1
2836,5,12,1009,-15,33,1
2837,-163,5,988,-13,27,2
2838,-213,-5,974,-13,4,-2
2839,-122,13,983,-11,-23,-7
2840,79,41,1017,-14,-33,-10
2841,200,37,1014,-15,-16,-10
2842,183,28,998,-14,11,-3
2843,34,19,997,-15,30,2
2844,-148,3,995,-13,28,3
2845,-213,-1,983,-12,6,-2
2846,-141,11,977,-11,-20,-8
2847,62,35,1009,-12,-33,-11
2848,186,37,1021,-13,-19,-11
2849,197,31,1006,-15,7,-5
2850,53,20,995,-14,30,1
2851,-128,2,989,-14,32,2
2852,-218,-7,982,-12,11,-1
2853,-153,15,977,-12,-16,-6
2854,32,34,1019,-12,-34,-10
2855,170,35,1012,-15,-23,-11
2856,208,34,1003,-14,4,-5
2857,79,20,1001,-15,29,0
2858,-112,0,997,-16,32,2
2859,-210,-2,970,-11,12,-1
2860,-169,11,978,-13,-13,-5
2861,11,32,1019,-12,-33,-11
2862,153,34,1011,-15,-24,-11
2863,216,39,1000,-16,1,-6
2864,101,21,1008,-16,27,0
2865,-90,2,997,-15,33,4
2866,-210,-3,969,-13,17,-1
2867,-177,11,977,-13,-11,-5
2868,-20,23,1013,-13,-32,-9
2869,147,36,1010,-14,-26,-11
2870,216,36,1017,-15,-4,-7
2871,115,25,999,-16,24,0
2872,-68,0,996,-13,34,1
2873,-198,3,970,-10,19,0
2874,-193,12,981,-12,-8,-3
2875,-37,23,1004,-14,-30,-10
2876,131,36,1012,-14,-28,-10
2877,220,38,1009,-13,-8,-7
2878,127,19,1008,-19,21,-1
2879,-40,7,1005,-13,33,1
2880,-188,0,961,-10,23,2
2881,-201,7,982,-12,-3,-4
2882,-68,20,1004,-12,-29,-8
2883,121,37,1008,-13,-30,-11
2884,215,36,1004,-14,-9,-8
2885,144,25,1011,-17,18,-1
2886,-14,8,1013,-15,32,1
2887,-178,4,970,-12,26,2
2888,-205,2,969,-10,1,-3
2889,-97,18,1000,-11,-25,-8
2890,100,40,1017,-14,-32,-10
2891,207,36,1003,-15,-14,-9
2892,163,23,1001,-14,15,-2
2893,5,11,1009,-14,32,-1
2894,-166,6,985,-11,28,3
2895,-207,0,974,-12,3,-1
2896,-119,15,984,-12,-22,-8
2897,82,40,1021,-14,-33,-10
2898,197,33,1014,-14,-17,-10
2899,179,26,994,-15,12,-3
2900,33,13,1001,-15,32,0
2901,-150,8,996,-12,30,3
2902,-205,1,978,-12,7,-2
2903,-141,14,979,-9,-18,-7
2904,60,40,1010,-12,-33,-11
2905,188,33,1017,-17,-20,-10
2906,190,29,1006,-14,8,-4
2907,57,17,996,-15,29,0
2908,-138,36,995,-24,32,0
2909,-224,1,941,-19,20,-18
2910,-139,10,994,-40,3,-22
2911,24,29,976,9,-25,-17
2912,182,11,949,-56,-16,-16
2913,217,25,991,-14,10,-9
2914,80,21,1002,10,25,-1
2915,-118,16,981,-45,28,1
2916,-228,-1,969,16,17,-2
2917,-174,33,993,-23,-15,-4
2918,15,32,1025,-25,-39,-10
2919,167,22,998,5,-26,-11
2920,230,36,1014,-39,-1,-3
2921,93,1,1001,-4,31,0
2922,-80,-18,986,-9,32,4
2923,-202,0,965,-20,15,5
2924,-192,-28,994,5,-5,-7
2925,-29,-24,1000,-11,-26,-16
2926,110,183,641,-102,-22,-7
2927,183,88,570,-46,4,-10
2928,125,20,537,-206,12,-32
2929,-19,11,424,-136,31,-60
2930,-181,-44,627,-31,89,-26
2931,-203,-63,731,-65,0,-9
2932,-25,45,962,101,-44,-15
2933,72,49,811,-86,-54,-10
2934,235,113,771,72,-10,-7
2935,120,64,940,-64,21,2
2936,-15,2,936,-24,19,3
2937,-158,-60,970,11,15,9
2938,-181,-11,950,-44,-3,-4
2939,-121,-80,562,-75,20,-27
2940,91,20,373,-34,61,-11
2941,125,20,625,32,-12,-16
2942,123,-45,346,-26,56,-26
2943,-13,-3,485,-117,92,-5
2944,-198,18,594,144,43,-5
2945,-166,-37,788,-189,-11,-8
2946,-105,6,796,94,-23,-11
2947,87,21,922,-1,-25,-11
2948,176,49,1007,-88,-6,-14
2949,141,54,969,95,15,-4
2950,20,58,943,-95,5,3
2951,-123,-13,962,8,23,-1
2952,-214,-40,935,7,20,-2
2953,-143,-90,979,-57,-18,-13
2954,67,-96,1017,55,-37,-17
2955,211,32,509,-149,58,-29
2956,178,-39,229,-91,-8,-76
2957,151,75,385,-53,156,11
2958,-166,-68,377,-149,12,-58
2959,-162,-1,413,122,6,-4
2960,-170,-31,293,-169,-57,-7
2961,14,-49,336,215,-58,-32
2962,129,75,448,-128,-5,3
2963,226,92,647,30,0,1
2964,148,-1,856,33,4,-3
2965,-99,-63,882,-100,16,19
2966,-255,-131,996,102,49,-4
2967,-210,12,956,-40,3,-10
2968,-48,121,632,107,-96,104
2969,119,78,336,205,-184,4
2970,201,37,474,-391,-31,131
2971,76,-51,277,299,29,54
2972,-12,-105,450,-116,-3,37
2973,-223,-122,595,-97,37,26
2974,-146,21,609,210,46,-11
2975,-61,27,732,-274,-20,-7
2976,113,143,898,111,3,-17
2977,226,-11,942,1,-8,-17
2978,119,-13,801,-155,21,-2
2979,-39,127,995,105,68,-12
2980,-247,-145,560,-232,134,-21
2981,-187,63,613,-134,69,-47
2982,-87,-123,417,-128,38,-36
2983,152,4,447,-56,21,-45
2984,226,-11,493,21,2,-19
2985,198,105,601,-118,31,-18
2986,-17,-39,597,79,54,-3
2987,-222,53,700,-34,30,-3
2988,-216,-96,806,-50,-5,-6
2989,-103,-70,809,79,-32,-16
2990,135,50,802,-57,-49,-14
2991,206,83,589,-48,7,-37
2992,139,102,352,25,52,-4
2993,10,-21,590,-100,35,6
2994,-189,-44,373,31,48,-8
2995,-101,-88,486,-37,-4,-3
2996,-114,-36,323,30,-15,-10
2997,139,9,390,-32,-29,-16
2998,194,118,453,11,11,-7
2999,171,82,563,10,28,-2
3000,4,16,745,-38,34,1
3001,-185,-100,883,8,35,2
3002,-208,-108,962,-5,1,-4
3003,-104,92,944,10,-25,-14
3004,72,116,646,-105,-17,-14
3005,193,213,311,-44,-22,-24
3006,155,25,516,-70,52,-1
3007,7,0,353,19,46,-4
3008,-125,-48,387,-126,-27,16
3009,-252,-54,584,70,-23,-5
3010,-113,0,849,-36,14,-11
3011,44,77,922,-19,4,-9
3012,183,96,947,30,-42,-11
3013,201,70,975,-64,-24,-4
3014,34,-5,930,2,47,2
3015,-124,-133,982,-25,53,3
3016,-192,-138,951,-15,0,-4
3017,-156,-30,941,59,-31,-9
3018,47,164,1031,8,-27,-11
3019,175,196,1051,5,1,-12
3020,180,211,991,-21,10,-5
3021,47,22,987,-64,13,4
3022,-132,-88,1005,-31,21,5
3023,-201,-167,975,-31,14,-2
3024,-136,-95,958,3,-10,-7
3025,53,12,1011,25,-33,-11
3026,180,116,1025,4,-22,-13
3027,186,145,1017,1,10,-4
3028,47,125,1004,-21,33,2
3029,-129,20,986,-37,29,3
3030,-217,-54,972,-27,7,-1
3031,-149,-79,982,-25,-19,-6
3032,42,-43,1017,-8,-32,-12
3033,177,11,1006,2,-20,-12
3034,215,72,999,-1,3,-6
3035,74,86,1010,-3,30,0
3036,-120,63,1001,-17,35,5
3037,-225,18,965,-23,14,1
3038,-174,-11,978,-23,-18,-5
3039,12,-23,1016,-23,-35,-9
3040,169,-13,1012,-14,-17,-10
3041,228,19,1003,-11,2,-6
3042,102,39,1001,-1,27,0
3043,-91,39,1007,-12,32,3
3044,-218,38,968,-10,18,1
3045,-190,30,977,-17,-10,-4
3046,-28,15,1008,-22,-33,-8
3047,148,8,1015,-16,-29,-12
3048,229,12,1010,-16,-5,-7
3049,123,10,1003,-10,25,0
3050,-50,3,997,-6,37,3
3051,-210,19,969,-9,23,2
3052,-198,35,981,-9,-7,-4
3053,-58,31,1008,-16,-30,-9
3054,135,38,1006,-20,-31,-10
3055,225,25,1009,-18,-8,-8
3056,139,11,1011,-15,21,0
3057,-30,-5,1007,-11,35,1
3058,-190,1,964,-8,25,1
3059,-212,16,978,-8,-2,-2
3060,-82,32,1003,-13,-28,-8
3061,112,45,1012,-15,-31,-10
3062,221,39,1002,-17,-11,-9
3063,154,16,1009,-17,18,-1
3064,-8,0,1011,-15,33,1
3065,-176,-5,977,-12,27,3
3066,-208,1,969,-8,2,-3
3067,-113,17,991,-10,-24,-7
3068,97,52,1025,-14,-33,-11
3069,210,39,1004,-17,-15,-9
3070,169,26,996,-15,14,-1
3071,15,9,1007,-15,32,2
3072,-160,2,995,-13,30,3
3073,-209,-5,972,-10,3,-3
3074,-132,11,980,-9,-21,-7
3075,75,43,1016,-12,-33,-10
3076,193,37,1016,-15,-18,-9
3077,187,27,1002,-15,11,-2
3078,42,17,995,-14,31,2
3079,-143,4,995,-13,31,2
3080,-213,-3,983,-11,8,-1
3081,-147,12,978,-12,-19,-8
3082,53,37,1007,-10,-32,-11
3083,180,37,1019,-14,-18,-11
3084,202,33,1007,-15,7,-3
3085,63,16,998,-15,29,1
3086,-119,2,990,-14,31,3
3087,-218,-4,978,-11,12,-1
3088,-156,18,983,-13,-18,-5
3089,26,29,1017,-13,-32,-10
3090,167,35,1012,-14,-21,-12
3091,211,33,1001,-15,3,-7
3092,79,20,1007,-14,26,-1
3093,-101,-2,997,-14,33,2
3094,-212,0,969,-12,13,-1
3095,-166,16,978,-11,-13,-5
3096,-1,26,1014,-14,-31,-9
3097,150,38,1015,-16,-24,-11
3098,212,35,1004,-14,-1,-5
3099,103,20,1000,-16,24,0
3100,-78,-2,1004,-14,34,3
3101,-203,6,968,-11,17,0
3102,-181,13,979,-10,-10,-5
3103,-29,29,1007,-12,-30,-9
3104,136,37,1012,-15,-26,-11
3105,214,38,1011,-17,-5,-7
3106,118,20,1006,-17,22,0
3107,-48,3,995,-14,33,1
3108,-197,-2,966,-13,22,1
3109,-194,11,986,-9,-5,-3
3110,-59,21,1001,-13,-28,-8
3111,127,41,1008,-14,-28,-10
3112,213,37,1008,-14,-9,-8
3113,132,24,1010,-17,19,-1
3114,-25,6,1011,-15,33,1
3115,-181,1,966,-12,25,2
3116,-198,4,974,-9,-1,-3
3117,-86,17,999,-10,-27,-8
3118,108,45,1018,-14,-31,-11
3119,214,37,1001,-15,-12,-8
3120,150,22,1002,-16,16,-3
3121,-4,10,1013,-15,31,1
3122,-171,1,982,-11,27,2
3123,-205,2,968,-10,3,-3
3124,-109,13,989,-10,-22,-6
3125,88,43,1026,-16,-32,-10
3126,203,33,1009,-15,-15,-11
3127,171,23,1001,-14,13,-3
3128,22,13,1000,-15,32,2
3129,-153,8,992,-14,29,3
3130,-211,0,985,-11,5,-2
3131,-129,17,973,-9,-21,-8
3132,66,38,1016,-12,-33,-11
3133,189,36,1018,-16,-18,-11
3134,190,25,1008,-16,8,-4
3135,47,17,992,-13,30,1
3136,-136,4,991,-14,31,2
3137,-211,1,985,-10,10,-1
3138,-150,17,977,-11,-17,-5
3139,46,35,1017,-13,-33,-10
3140,169,36,1013,-14,-20,-10
3141,203,30,1003,-17,3,-5
3142,71,14,999,-16,28,0
3143,-113,1,993,-13,32,3
3144,-210,0,970,-10,14,-1
3145,-162,21,984,-10,-14,-5
3146,14,34,1015,-13,-32,-10
3147,152,34,1015,-17,-23,-11
3148,214,34,1000,-16,0,-6
3149,93,15,999,-15,26,0
3150,-90,-2,1003,-14,33,2
3151,-204,4,970,-8,16,1
3152,-170,17,975,-11,-11,-4
3153,-21,30,1014,-12,-31,-9
3154,144,32,1014,-14,-26,-10
3155,214,36,1012,-17,-5,-6
3156,111,21,999,-15,24,0
3157,-59,2,997,-12,34,2
3158,-199,2,965,-13,20,1
3159,-189,15,986,-10,-7,-4
3160,-43,22,1003,-14,-30,-9
3161,126,36,1006,-15,-30,-10
3162,217,36,1009,-14,-6,-9
3163,124,21,1012,-18,21,0
3164,-32,5,999,-16,32,2
3165,-184,4,967,-12,24,1
3166,-198,10,979,-11,-3,-4
3167,-75,18,1007,-12,-27,-9
3168,115,41,1007,-16,-30,-10
3169,211,36,1004,-15,-11,-9
3170,148,22,1012,-17,17,-1
3171,-11,12,1013,-14,32,2
3172,-171,2,973,-12,26,1
3173,-203,3,970,-11,2,-2
3174,-102,17,997,-11,-23,-7
3175,97,41,1021,-14,-31,-11
3176,205,34,1004,-15,-14,-9
3177,167,25,995,-15,14,-3
3178,9,14,1012,-13,31,1
3179,-159,7,990,-13,28,3
3180,-206,-2,976,-12,4,-2
3181,-127,16,981,-12,-23,-7
3182,75,39,1017,-13,-35,-10
3183,192,37,1013,-14,-17,-10
3184,184,26,1004,-17,10,-3
3185,37,15,992,-15,30,1
3186,-142,7,992,-12,30,3
3187,-212,-3,985,-14,8,-1
3188,-142,16,979,-12,-19,-6
3189,55,35,1010,-14,-33,-10
3190,174,36,1015,-14,-19,-10
3191,202,29,1009,-16,5,-4
3192,54,32,999,-15,29,1
3193,-123,14,979,-14,26,6
3194,-213,-12,983,-9,8,2
3195,-153,19,991,-14,-21,-3
3196,32,15,999,-22,-36,-9
3197,158,26,1014,-7,-20,-9
3198,216,41,1016,-20,2,-5
3199,82,23,997,-14,29,0
3200,-104,8,988,-11,33,2
3201,-206,-4,968,-18,17,0
3202,-163,22,994,-7,-11,-3
3203,1,4,992,-17,-32,-10
3204,156,2,1024,-12,-23,-14
3205,197,9,1008,-7,3,-9
3206,78,123,1042,-19,25,-10
3207,-63,17,516,-2,27,-39
3208,-203,4,598,-152,21,-31
3209,-192,25,718,45,-22,-1
3210,14,-48,733,-34,-55,-11
3211,167,-20,503,-49,-48,-11
3212,221,24,789,82,-16,-6
3213,94,50,866,-81,26,2
3214,-83,31,896,18,33,3
3215,-184,62,916,26,14,3
3216,-191,15,997,-84,-15,-2
3217,-42,3,936,40,-19,-11
3218,137,-14,982,-51,-28,-6
3219,212,-39,991,-18,-10,-10
3220,141,-50,951,37,24,-8
3221,-37,207,550,-138,39,-26
3222,-188,7,385,-127,45,-53
3223,-198,-131,405,7,24,-44
3224,-133,-36,521,-133,-16,-16
3225,96,30,423,33,-69,-18
3226,195,-51,292,-37,-4,-17
3227,180,-16,468,-6,41,-8
3228,-30,29,760,10,44,11
3229,-147,20,659,-12,-5,2
3230,-189,-11,809,8,-16,-1
3231,-123,81,714,0,-17,7
3232,45,87,531,4,-66,8
3233,213,-21,266,-39,-65,-7
3234,133,11,549,73,-49,2
3235,56,-17,627,-54,35,0
3236,-144,-26,927,-18,42,16
3237,-177,14,800,43,-13,0
3238,-135,11,832,-90,-39,1
3239,37,69,1001,52,-16,-6
3240,165,77,957,-51,0,-10
3241,162,35,984,-35,5,-8
3242,45,12,974,18,16,3
3243,-93,-1,995,-63,24,-1
3244,-193,-48,982,7,22,-3
3245,-150,-16,954,-9,-10,-7
3246,14,-75,1041,-24,-37,-18
3247,133,154,1033,34,-25,-20
3248,177,-271,219,-241,24,-41
3249,127,132,299,38,65,-17
3250,-159,-21,388,-158,89,-3
3251,-99,9,511,25,43,-27
3252,-157,-143,464,-82,-15,-8
3253,6,64,517,11,-49,-14
3254,204,-47,526,51,-3,-21
3255,204,36,634,-90,18,-2
3256,119,-37,756,76,29,1
3257,-84,0,828,2,17,15
3258,-200,103,201,106,-62,38
3259,-176,-30,182,-27,-44,9
3260,-40,-41,357,69,-27,-4
3261,130,-100,132,-31,-79,-6
3262,244,-76,560,0,-58,-5
3263,177,125,873,217,-36,106
3264,-97,84,569,102,-47,63
3265,-252,20,472,-177,-6,52
3266,-263,105,604,6,19,17
3267,-61,-44,367,59,-17,-4
3268,94,-5,385,-209,-35,-8
3269,314,22,567,92,7,-19
3270,167,-15,718,-59,36,1
3271,1,-16,818,-82,29,0
3272,-190,-163,929,97,43,-2
3273,-249,144,940,-60,2,1
3274,-155,-55,485,357,-124,37
3275,40,36,360,254,-111,16
3276,-12,-192,515,140,-156,19
3277,182,-35,279,70,-81,12
3278,68,-165,190,20,-22,52
3279,-173,-33,255,35,-14,24
3280,-175,-104,196,-13,-39,14
3281,-207,85,450,6,-30,12
3282,62,78,590,-2,-27,-3
3283,207,-54,760,-13,-22,-8
3284,192,262,781,13,11,4
3285,-26,-48,472,57,13,25
3286,-97,83,234,89,-34,16
3287,-167,-55,445,-161,39,1
3288,-159,-78,444,-66,-28,-23
3289,81,-39,351,101,-15,-3
3290,149,20,176,-248,-12,-13
3291,245,9,494,242,-4,-24
3292,5,78,731,-167,58,13
3293,-138,89,945,-1,51,-1
3294,-223,-121,886,112,3,-6
3295,-197,-106,682,-178,-32,4
3296,60,263,429,157,-54,-59
3297,136,10,-136,-62,77,76
3298,86,144,329,98,-284,48
3299,41,52,141,-104,-100,2
3300,-138,-19,67,57,247,14
3301,-125,-72,46,-84,28,26
3302,-105,-26,402,106,-48,-3
3303,10,-39,634,7,-28,-3
3304,94,135,560,-117,20,-5
3305,220,78,483,52,-232,-8
3306,132,53,426,-2,-319,9
3307,-66,-192,402,15,-68,8
3308,-186,-162,366,6,466,-4
3309,-195,-31,441,-4,105,-10
3310,-42,288,530,107,-145,-11
3311,112,151,781,-44,-87,-6
3312,202,122,822,-50,144,-4
3313,114,-114,806,-36,116,-12
3314,-21,-12,927,-38,-54,12
3315,-169,-181,835,9,-67,-2
3316,-195,-20,914,14,36,-10
3317,-27,21,970,-9,46,-7
3318,66,159,982,21,-22,-13
3319,228,133,1009,-21,-73,-9
3320,107,123,1012,-21,6,2
3321,-46,-23,992,-40,70,3
3322,-163,-88,968,-40,43,1
3323,-189,-88,970,-2,-29,-4
3324,-44,-33,994,1,-54,-8
3325,118,48,1036,4,-11,-13
3326,201,108,1002,2,16,-7
3327,135,112,1007,-13,14,-1
3328,-37,47,1009,-17,14,3
3329,-193,-4,963,-28,23,4
3330,-188,-49,985,-28,10,-5
3331,-72,-48,996,-12,-25,-9
3332,129,-2,999,-7,-43,-12
3333,219,39,1008,1,-13,-11
3334,137,72,1016,-7,28,-1
3335,-15,60,1009,-15,38,3
3336,-188,33,966,-15,21,2
3337,-211,4,975,-21,-8,-3
3338,-92,-16,1008,-22,-24,-8
3339,106,1,1007,-16,-26,-10
3340,222,11,1000,-12,-15,-9
3341,166,22,1009,-7,13,-1
3342,2,35,1013,-8,35,2
3343,-172,32,981,-13,33,2
3344,-217,19,972,-14,3,-3
3345,-124,16,989,-17,-29,-8
3346,87,29,1024,-19,-37,-11
3347,211,15,1005,-17,-14,-10
3348,187,6,991,-14,15,-3
3349,30,10,1005,-11,32,0
3350,-157,16,997,-9,29,2
3351,-218,13,978,-10,6,-2
3352,-147,27,976,-12,-21,-7
3353,65,44,1016,-15,-35,-10
3354,194,33,1020,-17,-19,-10
3355,197,14,997,-18,9,-5
3356,54,8,997,-14,32,0
3357,-133,-1,995,-11,33,2
3358,-216,0,984,-7,11,-1
3359,-161,21,975,-9,-18,-5
3360,38,45,1014,-12,-34,-11
3361,178,41,1014,-15,-22,-9
3362,208,34,1000,-18,4,-4
3363,77,10,1002,-18,29,0
3364,-114,-4,994,-15,33,4
3365,-213,-5,972,-10,13,-1
3366,-167,16,983,-10,-14,-5
3367,8,35,1018,-12,-33,-9
3368,158,41,1014,-12,-24,-9
3369,219,36,1000,-15,0,-5
3370,90,21,998,-18,26,1
3371,-87,-2,1007,-16,32,1
3372,-208,-3,970,-12,17,0
3373,-176,14,972,-13,-11,-4
3374,-14,26,1015,-11,-33,-11
3375,143,35,1016,4,-25,-13
3376,220,40,1006,-11,-7,-9
3377,112,22,1003,-14,24,-1
3378,-66,0,997,-12,33,3
3379,-199,2,969,-16,20,1
3380,-191,11,983,-8,-7,-4
3381,-41,19,1004,-13,-30,-9
3382,135,35,1012,-13,-28,-10
3383,216,40,1008,-13,-7,-7
3384,129,26,1015,-18,21,-1
3385,-41,4,1001,-12,33,3
3386,-192,2,962,-12,23,3
3387,-198,7,985,-12,-4,-4
3388,-73,18,1003,-10,-27,-9
3389,123,36,1006,-15,-29,-10
3390,216,37,1005,-13,-9,-8
3391,143,26,1012,-15,17,-1
3392,-16,8,1012,-16,32,1
3393,-181,4,968,-11,26,3
3394,-202,1,971,-10,0,-3
3395,-96,18,1000,-11,-24,-8
3396,98,44,1017,-13,-31,-11
3397,210,38,1006,-16,-13,-10
3398,164,22,1000,-16,15,-2
3399,5,14,1009,-11,31,1
3400,-158,2,992,-16,28,3
3401,-209,-2,973,-11,4,-2
3402,-120,15,980,-10,-22,-7
3403,78,40,1021,-13,-32,-11
3404,196,36,1013,-15,-15,-11
3405,182,28,998,-17,11,-4
3406,33,15,999,-15,31,0
3407,-145,7,991,-13,30,2
3408,-209,-7,982,-14,7,-3
3409,-143,12,981,-11,-18,-6
3410,58,37,1005,-11,-32,-11
3411,181,33,1022,-15,-18,-11
3412,196,28,1009,-14,5,-3
3413,58,19,995,-14,29,0
3414,-120,0,988,-13,32,3
3415,-215,0,979,-10,12,0
3416,-153,15,981,-12,-15,-6
3417,27,29,1017,-13,-32,-9
3418,165,36,1012,-15,-23,-11
3419,208,32,997,-15,3,-5
3420,80,20,1008,-15,27,0
3421,-100,0,1000,-14,31,2
3422,-210,4,964,-10,15,0
3423,-169,15,980,-14,-13,-5
3424,-5,27,1016,-12,-32,-10
3425,148,34,1015,-14,-26,-12
3426,218,39,1006,-14,-2,-7
3427,100,21,1001,-14,26,0
3428,-73,1,1001,-13,32,2
3429,-206,-1,972,-11,18,1
3430,-181,15,975,-9,-11,-4
3431,-29,21,1013,-12,-30,-9
3432,135,39,1007,-16,-27,-11
3433,218,40,1014,-14,-6,-7
3434,119,22,1004,-17,22,-2
3435,-50,2,997,-14,33,1
3436,-192,1,963,-12,22,0
3437,-193,8,989,-13,-6,-4
3438,-61,22,1002,-12,-29,-8
3439,125,42,1009,-12,-30,-11
3440,214,34,1005,-13,-9,-9
3441,137,24,1014,-14,20,-1
3442,-21,7,1008,-16,32,2
3443,-180,3,969,-12,24,1
3444,-201,3,973,-13,-1,-4
3445,-91,18,998,-14,-25,-9
3446,111,40,1023,-15,-32,-10
3447,211,35,999,-15,-11,-9
3448,158,22,1001,-16,15,-2
3449,4,15,1012,-13,31,0
3450,-167,6,984,-13,29,0
3451,-202,0,973,-9,3,-3
3452,-117,16,984,-11,-23,-7
3453,89,43,1020,-14,-33,-10
3454,196,32,1013,-15,-15,-10
3455,177,22,998,-14,11,-2
3456,27,15,997,-14,30,1
3457,-149,5,992,-12,29,2
3458,-210,-1,987,-12,6,-2
3459,-136,18,976,-12,-20,-6
3460,60,37,1010,-11,-32,-11
3461,182,34,1020,-16,-18,-9
3462,193,26,1006,-16,7,-4
3463,55,15,996,-16,29,0
3464,-127,2,986,-15,32,3
3465,-211,0,982,-10,11,-2
3466,-152,17,985,-11,-15,-5
3467,33,34,1017,-12,-33,-10
3468,166,36,1011,-14,-21,-11
3469,205,29,1002,-15,3,-4
3470,79,15,1004,-15,29,0
3471,-105,-2,999,-14,33,4
3472,-205,0,967,-11,14,1
3473,-166,16,978,-9,-12,-5
3474,2,30,1018,-12,-31,-10
3475,150,38,1015,-15,-23,-11
3476,215,36,1006,-16,-2,-6
3477,97,20,1002,-18,24,0
3478,-78,-3,999,-13,32,1
3479,-201,-1,967,-12,17,-1
3480,-182,13,980,-12,-8,-4
3481,-23,23,1010,-11,-29,-10
3482,139,38,1012,-14,-26,-11
3483,215,42,1011,-15,-5,-8
3484,114,21,1006,-18,23,0
3485,-46,3,997,-13,32,2
3486,-193,0,967,-11,22,1
3487,-190,10,983,-11,-6,-3
3488,-56,21,1005,-12,-27,-9
3489,125,38,1006,-14,-29,-11
3490,212,36,1007,-15,-9,-7
3491,132,22,1015,-15,20,0
3492,-25,8,1008,-16,32,2
3493,-180,0,967,-13,24,2
3494,-200,6,973,-9,0,-4
3495,-87,18,1004,-12,-26,-8
3496,108,43,1017,-12,-30,-10
3497,210,34,999,-17,-12,-10
3498,155,22,1002,-16,16,-2
3499,1,18,1012,-14,31,1
3500,-172,6,981,-15,27,2
3501,-199,2,971,-10,2,-3
3502,-115,12,985,-10,-23,-7
3503,85,40,1020,-11,-33,-11
3504,199,29,1013,-15,-15,-10
3505,173,26,995,-13,12,-4
3506,28,16,998,-14,30,1
3507,-150,7,997,-11,30,2
3508,-211,-1,981,-10,7,0
3509,-130,18,977,-12,-21,-7
3510,57,34,1013,-12,-33,-10
3511,184,37,1015,-16,-18,-10
3512,192,23,1016,-17,8,-4
3513,52,50,985,-13,27,6
3514,-125,-17,984,-17,24,6
3515,-215,10,990,-17,9,0
3516,-145,-5,984,-13,-15,-4
3517,36,32,1017,-15,-34,-10
3518,169,25,1007,-20,-22,-10
3519,215,25,999,-8,7,-6
3520,65,15,1013,-16,31,1
3521,-118,-6,991,-9,35,0
3522,-213,17,961,-4,12,0
3523,-171,63,1000,-13,-17,-4
3524,-1,55,893,-42,-58,-2
3525,176,11,894,0,-71,20
3526,201,49,940,40,-57,22
3527,125,-46,983,-25,-25,25
3528,-90,-21,973,27,34,8
3529,-214,8,1004,1,18,9
3530,-177,48,987,-33,-12,-3
3531,-35,48,977,9,-33,-8
3532,143,69,1008,-36,-22,-10
3533,210,19,1024,-24,6,-8
3534,124,20,1003,-11,21,0
3535,-44,-54,981,-35,25,3
3536,-172,-18,977,13,24,0
3537,-195,-28,992,-13,6,-3
3538,-66,-17,984,-5,-25,-15
3539,79,168,654,-98,-48,-54
3540,165,161,472,31,-16,-49
3541,128,-80,666,-173,42,-80
3542,32,-62,494,8,46,-34
3543,-168,-60,248,12,51,-1
3544,-194,-81,479,-49,0,-7
3545,-48,-2,565,77,-16,-21
3546,51,60,576,-26,-25,-10
3547,193,102,756,2,-6,-10
3548,138,88,811,8,18,-7
3549,25,11,748,-65,15,3
3550,-144,-95,707,8,33,5
3551,-232,27,912,-34,24,-14
3552,-70,-16,379,-77,-17,-78
3553,87,32,662,-79,18,-63
3554,96,96,193,40,-15,-20
3555,245,-24,174,-139,16,-48
3556,32,-20,378,64,28,-9
3557,-161,-44,297,-22,43,-2
3558,-169,-17,553,-63,33,-14
3559,-197,16,543,56,-7,-14
3560,68,17,771,-22,-61,-20
3561,161,-50,818,5,-16,-29
3562,205,158,624,29,38,-12
3563,49,61,375,-63,64,-10
3564,-123,-81,534,-31,-26,-22
3565,-201,-150,394,-148,50,26
3566,-84,-42,472,128,18,-32
3567,4,-51,692,-137,-78,-21
3568,236,23,585,-22,-30,-12
3569,202,19,632,122,60,-15
3570,121,35,903,-165,36,6
3571,-93,74,847,111,26,-1
3572,-306,2,721,-43,14,-11
3573,-249,54,836,-73,-5,-5
3574,-13,20,1036,65,-18,-21
3575,170,7,967,-111,-63,-22
3576,296,-22,971,23,-24,-12
3577,158,-142,1005,-2,42,-6
3578,-35,-15,975,-45,58,-11
3579,-189,-81,244,46,-3,-6
3580,-263,-213,199,-59,4,-35
3581,-135,94,320,-24,9,-14
3582,166,-47,554,23,-60,-23
3583,242,14,800,-157,-39,-6
3584,240,-147,670,124,40,-11
3585,25,-238,766,-97,63,2
3586,-207,-36,576,123,24,-12
3587,-301,-40,49,10,-78,-5
3588,-202,133,149,148,-58,-22
3589,17,105,136,16,-89,-21
3590,294,-52,375,-80,-78,-2
3591,208,-12,632,64,-15,5
3592,95,33,717,-16,15,52
3593,-216,34,330,-91,124,66
3594,-290,15,501,163,3,54
3595,-128,27,430,-157,-70,16
3596,78,80,334,25,-40,9
3597,203,34,785,-9,0,-5
3598,259,-3,847,-107,1,-9
3599,26,-134,918,40,52,11
3600,-134,-78,893,-18,38,-2
3601,-201,118,829,-110,62,-29
3602,-247,84,586,75,59,-10
3603,-43,-182,323,-173,-23,11
3604,160,62,405,-65,-4,-9
3605,253,-31,583,-73,11,0
3606,91,-117,618,-130,66,2
3607,-87,-110,406,78,65,-12
3608,-209,-222,697,-112,11,-4
3609,-212,12,911,76,-6,-16
3610,-10,255,751,2,-31,-42
3611,98,218,606,-63,-23,-48
3612,183,-143,634,-15,-16,-17
3613,61,50,414,81,-10,-13
3614,-16,-126,494,-168,21,4
3615,-183,-209,387,144,36,-2
3616,-153,-114,252,-85,-13,-13
3617,4,-133,558,8,-58,-4
3618,133,68,761,128,-42,-12
3619,216,415,745,-75,-8,-7
3620,36,93,147,322,138,24
3621,-67,330,130,-367,159,-9
3622,-235,32,248,-26,64,-31
3623,-150,-75,263,-102,68,-41
3624,-20,-89,178,-121,13,-33
3625,99,-96,84,71,29,-46
3626,288,-36,375,-18,-7,-33
3627,103,-6,414,19,30,-6
3628,-102,71,456,52,40,2
3629,-249,117,470,-3,21,-4
3630,-230,188,401,3,-2,-1
3631,-39,109,463,-6,-49,-6
3632,154,41,745,-45,-42,-12
3633,239,-61,937,-39,5,-4
3634,146,-83,983,-18,20,1
3635,-42,-99,1009,-12,25,2
3636,-208,-18,925,26,25,0
3637,-217,74,949,14,7,-4
3638,-57,131,973,-6,-24,-10
3639,115,113,985,-13,-33,-10
3640,224,60,978,-35,-11,-9
3641,138,-20,949,-29,22,-2
3642,-33,-73,950,-26,35,2
3643,-182,-75,950,-12,21,-1
3644,-200,-11,966,9,-4,-3
3645,-60,53,1004,3,-26,-10
3646,115,96,1009,-6,-24,-11
3647,214,98,1014,-14,-9,-7
3648,138,51,1017,-28,15,-1
3649,-36,-18,1000,-23,30,4
3650,-191,-43,959,-20,23,2
3651,-196,-40,974,-10,-2,-3
3652,-68,-1,995,-2,-24,-9
3653,116,50,1010,-4,-27,-12
3654,213,77,1022,-9,-10,-10
3655,141,66,1018,-16,19,0
3656,-22,26,1007,-20,30,2
3657,-185,-5,968,-18,24,3
3658,-204,-23,975,-18,0,-3
3659,-90,-14,994,-13,-25,-8
3660,110,22,1010,-11,-30,-10
3661,218,44,1011,-8,-13,-9
3662,159,47,1014,-11,16,-2
3663,-1,37,1012,-16,32,3
3664,-175,19,974,-15,27,3
3665,-212,-3,964,-15,2,-3
3666,-115,2,992,-15,-23,-8
3667,97,22,1020,-16,-32,-11
3668,210,26,1010,-13,-16,-11
3669,182,24,1002,-11,11,-2
3670,15,24,1013,-9,32,2
3671,-161,21,985,-11,29,2
3672,-216,6,974,-12,6,-1
3673,-138,18,975,-13,-22,-7
3674,72,31,1023,-16,-33,-11
3675,200,27,1022,-18,-20,-10
3676,193,17,997,-15,8,-2
3677,48,13,994,-12,30,1
3678,-143,6,995,-10,32,4
3679,-215,4,978,-10,10,-2
3680,-152,24,975,-12,-17,-5
3681,50,38,1013,-14,-33,-10
3682,176,35,1019,-15,-21,-11
3683,201,26,1013,-18,3,-3
3684,71,11,994,-14,28,1
3685,-120,-3,988,-11,34,3
3686,-214,1,976,-9,14,-2
3687,-164,21,986,-8,-13,-6
3688,20,37,1014,-11,-33,-11
3689,158,36,1018,-14,-22,-11
3690,212,38,999,-14,1,-6
3691,86,14,1002,-17,27,0
3692,-91,-2,999,-15,32,2
3693,-210,-7,969,-12,15,0
3694,-170,20,972,-8,-11,-5
3695,-14,28,1019,-11,-31,-9
3696,149,42,1021,-14,-27,-10
3697,212,37,1006,-15,-4,-6
3698,109,25,997,-15,23,-1
3699,-69,-4,999,-14,34,2
3700,-203,-1,967,-10,20,0
3701,-183,13,978,-12,-7,-5
3702,-39,24,1010,-12,-29,-9
3703,133,39,1012,-15,-29,-10
3704,214,37,1014,-16,-7,-8
3705,121,26,1003,-14,22,1
3706,-42,1,1002,-14,33,2
3707,-190,0,961,-12,24,1
3708,-193,6,987,-8,-4,-4
3709,-61,20,1007,2,-26,-9
3710,116,41,1005,-11,-30,-10
3711,214,39,1004,-11,-8,-9
3712,137,20,1015,-17,19,-1
3713,-18,10,1009,-15,31,2
3714,-174,1,968,-13,25,1
3715,-202,6,975,-12,0,-3
3716,-98,16,1000,-13,-26,-8
3717,103,40,1019,-13,-31,-11
3718,204,33,1003,-16,-12,-8
3719,164,25,998,-14,15,-3
3720,5,11,1009,-14,32,1
3721,-163,11,985,-12,27,2
3722,-204,-3,977,-12,2,-3
3723,-118,15,981,-11,-22,-8
3724,79,39,1018,-12,-32,-9
3725,197,33,1017,-15,-17,-9
3726,178,26,998,-15,11,-2
3727,35,16,993,-12,30,0
3728,-145,5,995,-13,29,2
3729,-212,0,985,-11,8,-4
3730,-140,18,979,-12,-18,-7
3731,56,34,1009,-14,-33,-10
3732,179,36,1020,-15,-20,-10
3733,197,26,1006,-17,5,-5
3734,57,18,995,-13,29,0
3735,-122,0,989,-13,32,3
3736,-209,1,979,-11,12,-2
3737,-156,16,983,-11,-16,-6
3738,26,33,1021,-12,-34,-9
3739,160,36,1012,-15,-21,-9
3740,208,32,997,-13,3,-6
3741,82,18,1002,-15,26,0
3742,-98,-1,1001,-12,30,2
3743,-210,0,967,-9,15,-1
3744,-167,16,976,-12,-11,-4
3745,-3,30,1018,-10,-30,-9
3746,147,32,1014,-16,-25,-11
3747,210,43,1008,-14,-3,-6
3748,102,21,1000,-16,25,-1
3749,-74,0,1000,-15,32,2
3750,-200,0,968,-10,18,0
3751,-178,13,983,-12,-10,-5
3752,-32,21,1007,-11,-30,-7
3753,135,40,1009,-12,-26,-10
3754,213,38,1012,-15,-7,-9
3755,114,24,1012,-14,21,-1
3756,-46,3,994,-15,33,2
3757,-190,-1,967,-14,22,2
3758,-189,8,986,-9,-7,-5
3759,-64,21,1003,-15,-29,-9
3760,126,38,1006,-15,-29,-10
3761,208,41,1007,-13,-8,-8
3762,135,23,1009,-16,19,-1
3763,-25,9,1012,-14,31,2
3764,-178,4,967,-12,24,3
3765,-195,2,972,-12,0,-2
3766,-93,19,1000,-12,-23,-8
3767,108,41,1019,-13,-30,-11
3768,203,33,1005,-15,-12,-8
3769,160,24,998,-16,14,-2
3770,4,12,1011,-12,32,1
3771,-164,7,986,-12,28,3
3772,-203,-2,976,-10,3,-2
3773,-119,18,981,-11,-23,-6
3774,80,41,1020,-13,-32,-9
3775,192,33,1014,-16,-15,-11
3776,178,23,1000,-16,11,-3
3777,31,16,995,-14,29,0
3778,-145,7,993,-14,28,2
3779,-202,-1,984,-12,5,-2
3780,-142,19,976,-12,-19,-6
3781,62,36,1012,-14,-33,-11
3782,174,34,1019,-15,-19,-10
3783,194,30,1001,-17,6,-4
3784,60,15,1002,-15,30,0
3785,-125,0,991,-12,31,4
3786,-208,-1,973,-10,12,-2
3787,-153,17,988,-11,-16,-6
3788,27,36,1016,-13,-32,-10
3789,163,36,1013,-14,-21,-11
3790,204,33,999,-13,3,-6
3791,81,17,1001,-15,26,-1
3792,-97,-4,1000,-14,31,2
3793,-207,4,968,-11,16,0
3794,-161,15,977,-12,-12,-6
3795,-9,28,1016,-12,-31,-9
3796,147,40,1011,-15,-25,-10
3797,216,37,1011,-18,-3,-8
3798,97,21,996,-15,25,1
3799,-71,-2,996,-14,32,2
3800,-199,0,974,-11,19,1
3801,-183,16,982,-11,-8,-3
3802,-29,23,1004,-12,-29,-10
3803,132,34,1010,-14,-27,-10
3804,215,41,1013,-13,-6,-7
3805,119,18,1005,-15,22,-1
3806,-45,7,999,-14,33,2
3807,-186,1,966,-11,19,0
3808,-194,11,984,-10,-4,-4
3809,-63,22,1007,-14,-28,-9
3810,121,37,1005,-16,-29,-11
3811,210,38,1007,-15,-8,-8
3812,144,23,1010,-18,19,-1
3813,-22,9,1015,-15,33,1
3814,-174,2,966,-12,25,2
3815,-201,2,974,-10,1,-3
3816,-94,18,996,-12,-25,-8
3817,101,41,1024,-12,-31,-11
3818,206,34,1001,-16,-13,-10
3819,157,23,1000,-14,16,-2
3820,5,14,1008,-15,31,1
3821,-162,6,987,-14,27,4
3822,-203,-2,976,-11,3,-1
3823,-119,14,982,-12,-21,-6
3824,80,44,1019,-12,-33,-10
3825,193,34,1014,-15,-17,-9
3826,180,23,998,-15,11,-3
3827,33,18,997,-13,31,1
3828,-144,7,992,-15,28,3
3829,-203,-1,984,-12,6,-3
3830,-141,17,975,-9,-19,-6
3831,58,34,1011,-12,-32,-9
3832,177,34,1020,-13,-18,-10
3833,197,28,1004,-15,7,-4
3834,58,18,997,-14,28,1
3835,-127,4,987,-13,31,4
3836,-210,-1,979,-10,12,-2
3837,-156,13,984,-11,-16,-6
3838,27,31,1016,-12,-33,-10
3839,168,35,1012,-14,-22,-11
3840,206,38,999,-15,3,-4
3841,81,17,1003,-15,28,0
3842,-104,1,999,-14,33,2
3843,-207,1,969,-11,14,-1
3844,-167,18,982,-10,-12,-5
3845,-1,25,1011,-14,-33,-10
3846,150,34,1020,-13,-24,-10
3847,218,33,1004,-16,-3,-6
3848,99,20,1002,-15,25,1
3849,-73,2,1003,-15,32,2
3850,-205,2,970,-10,19,0
3851,-177,15,975,-12,-9,-5
3852,-32,24,1009,-13,-30,-10
3853,141,40,1012,-16,-27,-11
3854,216,32,1010,-15,-5,-8
3855,107,39,1021,-15,22,0
3856,-54,14,977,-19,31,3
3857,-192,0,953,-16,19,-2
3858,-195,10,985,-14,-9,-2
3859,-43,0,994,-19,-30,-7
3860,122,31,995,-12,-26,-9
3861,215,23,1005,-12,-8,-9
3862,145,29,1021,-15,18,1
3863,-25,0,998,-10,35,2
3864,-178,-14,970,-11,28,-2
3865,-224,-5,945,-8,1,-5
3866,-83,45,1002,-1,-29,-8
3867,90,107,1008,-21,-26,-7
3868,212,77,891,-14,-26,10
3869,162,-4,884,-74,12,31
3870,11,-6,903,21,29,19
3871,-143,-57,872,-54,20,10
3872,-228,-22,978,-14,14,-2
3873,-125,19,952,27,-14,-7
3874,81,77,999,-52,-32,-9
3875,201,70,1015,17,-17,-8
3876,186,50,999,-31,9,-3
3877,52,-14,1017,-39,33,3
3878,-148,-50,989,12,35,4
3879,-223,-98,963,-30,8,-9
3880,-162,127,950,10,-24,5
3881,44,83,474,-137,-23,50
3882,201,33,756,-118,12,6
3883,209,17,606,157,-43,-5
3884,110,-48,733,-216,20,11
3885,-129,-46,942,113,72,0
3886,-202,-71,897,-10,-19,-1
3887,-172,1,870,-95,-43,1
3888,0,52,997,148,-13,-10
3889,185,81,1018,-125,-21,-7
3890,221,-8,993,13,5,-7
3891,84,-10,965,47,21,-3
3892,-120,124,575,54,32,65
3893,-247,-136,466,113,7,36
3894,-222,-41,541,-69,6,48
3895,54,-84,484,-41,-54,2
3896,167,19,834,10,7,-20
3897,245,-10,878,-94,21,-8
3898,155,18,880,46,61,-8
3899,-127,-8,917,-57,49,4
3900,-177,-41,955,2,22,-6
3901,-199,16,866,10,15,-31
3902,-66,86,370,-93,-6,-55
3903,102,-7,479,-12,17,-71
3904,172,92,518,-108,21,-12
3905,160,21,415,-10,25,-12
3906,-59,-54,693,-29,3,-16
3907,-181,-37,560,-42,22,7
3908,-164,-2,667,23,50,-1
3909,-35,11,827,-36,-25,-3
3910,127,88,886,-3,-54,-5
3911,155,61,983,2,-4,-14
3912,82,64,1019,-42,43,2
3913,-42,18,986,-20,34,3
3914,-133,-43,942,-24,-7,-6
3915,-166,-39,993,-28,-14,1
3916,-50,-56,982,7,-7,-12
3917,102,-135,1023,-11,-12,-16
3918,209,7,447,6,-23,-24
3919,180,21,416,-20,-14,6
3920,-99,250,641,97,-9,-2
3921,-146,142,330,-161,18,1
3922,-102,-63,415,66,7,-5
3923,-142,-83,899,-53,-34,0
3924,123,-76,878,-36,-48,-18
3925,167,-75,711,91,14,-10
3926,127,260,918,-46,0,-17
3927,27,-167,180,-164,132,-124
3928,-100,264,331,68,147,-79
3929,-262,-29,627,-249,13,-64
3930,-91,-157,462,9,38,-51
3931,34,-212,610,47,-29,-24
3932,177,125,669,-150,-8,-58
3933,97,-55,592,307,-18,-92
3934,10,40,595,-175,74,8
3935,-150,87,444,-1,-118,-29
3936,-198,-40,289,99,6,7
3937,-172,-9,581,-232,-77,-1
3938,46,-5,521,279,-34,-16
3939,184,-42,645,-203,-57,-8
3940,187,-93,691,91,-7,3
3941,139,-121,661,72,28,5
3942,-66,86,808,-208,51,-26
3943,-324,1,545,-61,111,-26
3944,-178,-77,398,-161,26,-28
3945,-73,115,365,-76,15,-27
3946,185,27,309,24,-20,-31
3947,165,-87,167,-99,11,-16
3948,94,1,378,7,24,-6
3949,-6,-118,330,-39,11,0
3950,-147,-88,530,-13,-8,7
3951,-165,-187,594,67,20,-1
3952,-176,229,675,-9,-13,-33
3953,-5,-126,30,3,-122,-83
3954,117,89,645,64,-45,30
3955,102,114,68,-43,-52,4
3956,56,-8,36,88,15,14
3957,2,-133,48,-127,-45,43
3958,-223,-73,172,99,6,20
3959,-77,-115,162,-48,-5,-6
3960,-19,38,279,-12,-30,-8
3961,200,17,380,39,-33,-14
3962,239,-153,741,-8,31,1
3963,73,311,926,-111,45,18
3964,-44,216,135,-88,6,61
3965,7,21,322,-333,-23,215
3966,-52,15,163,136,33,151
3967,-2,-48,354,246,-114,61
3968,131,46,397,-441,-197,45
3969,107,52,496,273,120,-7
3970,190,-57,734,-202,141,-7
3971,-32,-142,738,-222,-55,19
3972,-88,-109,647,373,-493,-1
3973,-108,-244,608,-261,-15,-1
3974,-65,-213,728,96,-85,-11
3975,81,120,852,173,-183,-26
3976,99,339,607,-103,-429,-26
3977,-39,429,647,186,-11,17
3978,-79,79,898,-198,192,-3
3979,-174,-41,940,-86,28,-7
3980,-39,-186,986,51,-251,13
3981,31,-127,932,-130,-110,-4
3982,127,-120,841,54,132,-26
3983,192,-43,907,-12,88,-17
3984,113,18,1023,-1,-52,0
3985,-41,49,1018,93,-42,6
3986,-208,258,980,-40,57,9
3987,-228,-20,925,-30,62,-17
3988,-68,193,983,-13,-42,3
3989,140,6,995,-107,-103,-14
3990,180,-72,934,2,-7,-14
3991,170,-79,1005,-44,51,2
3992,-17,-58,990,-13,47,4
3993,-156,-38,1023,34,-2,-2
3994,-199,63,961,-6,-15,-2
3995,-82,112,990,8,-1,-8
3996,95,116,1026,-20,-10,-11
3997,177,68,1022,-41,-23,-8
3998,143,-2,973,-17,-2,-1
3999,-19,-58,996,-32,34,6
4000,-151,-78,1000,-14,34,0
4001,-183,-40,960,5,1,-4
4002,-46,42,1003,0,-35,-9
4003,89,87,1020,4,-25,-11
4004,190,99,1010,-14,0,-9
4005,121,67,993,-23,20,-1
4006,-40,7,1002,-20,23,5
4007,-164,-45,988,-25,15,0
4008,-186,-47,968,-13,0,-3
4009,-40,-14,1007,-4,-24,-10
4010,108,27,1021,-3,-28,-12
4011,201,71,995,-1,-10,-8
4012,131,66,1001,-10,21,-2
4013,-46,38,1012,-17,35,4
4014,-186,6,977,-15,21,2
4015,-190,-12,970,-19,-6,-3
4016,-56,-15,1014,-12,-29,-8
4017,116,10,1010,-10,-28,-11
4018,215,32,1005,-8,-7,-7
4019,141,46,998,-4,20,-2
4020,-36,36,1012,-10,34,2
4021,-185,27,969,-13,25,2
4022,-204,19,980,-17,0,-3
4023,-67,6,1006,-18,-29,-9
4024,109,10,1008,-15,-31,-11
4025,222,26,1010,-14,-11,-9
4026,145,20,1005,-12,19,-1
4027,-14,12,999,-12,33,3
4028,-184,14,972,-9,26,2
4029,-211,25,985,-11,-1,-3
4030,-90,21,1000,-16,-28,-8
4031,103,35,1005,-15,-32,-10
4032,217,28,1006,-16,-13,-10
4033,160,18,1012,-16,17,-2
4034,3,-3,1008,-13,33,2
4035,-169,7,972,-9,27,3
4036,-211,9,976,-8,1,-2
4037,-113,25,995,-11,-25,-8
4038,89,45,1019,-14,-33,-10
4039,207,41,1001,-15,-15,-10
4040,174,21,1002,-17,14,-3
4041,18,6,1014,-13,33,2
4042,-158,-2,984,-13,29,3
4043,-209,-4,971,-10,5,-3
4044,-132,17,985,-9,-21,-7
4045,77,46,1021,-13,-34,-11
4046,198,43,1009,-15,-17,-10
4047,182,23,995,-15,12,-4
4048,37,18,1002,-15,31,1
4049,-141,0,999,-15,30,3
4050,-212,-9,984,-10,7,-2
4051,-146,12,972,-21,-18,-5
4052,56,43,1009,-14,-31,-9
4053,183,38,1022,-18,-19,-10
4054,197,33,1001,-9,7,-3
4055,61,16,995,-22,30,0
4056,-129,5,990,-11,32,3
4057,-215,-8,984,-11,9,-3
4058,-154,11,979,-14,-18,-6
4059,32,32,1012,-8,-31,-10
4060,169,40,1014,-15,-21,-11
4061,208,35,1005,-16,4,-5
4062,78,22,1001,-13,29,1
4063,-109,0,996,-17,33,3
4064,-210,-5,973,-13,14,-1
4065,-168,16,977,-11,-15,-5
4066,5,29,1015,-13,-32,-10
4067,155,34,1018,-13,-25,-12
4068,214,40,997,-16,-1,-6
4069,96,21,1003,-13,26,0
4070,-80,0,1007,-14,33,3
4071,-210,-1,966,-12,18,0
4072,-174,16,975,-9,-10,-4
4073,-22,21,1012,-13,-30,-10
4074,141,38,1014,-14,-26,-11
4075,216,36,1011,-16,-4,-7
4076,116,24,1001,-17,24,0
4077,-56,0,1000,-14,32,3
4078,-193,0,969,-11,21,0
4079,-190,10,982,-10,-6,-4
4080,-48,24,1006,-11,-29,-9
4081,125,35,1005,-15,-29,-10
4082,216,40,1011,-12,-7,-9
4083,130,25,1014,-16,20,0
4084,-30,5,1005,-15,32,1
4085,-182,-1,966,-11,24,1
4086,-201,7,981,-12,-3,-4
4087,-82,22,1002,-11,-27,-9
4088,112,40,1009,-12,-29,-11
4089,211,39,1005,-16,-11,-9
4090,150,21,1009,-16,17,-3
4091,-8,8,1014,-14,32,-1
4092,-171,2,972,-13,26,2
4093,-204,-2,972,-10,3,-3
4094,-107,16,991,-9,-23,-8
4095,94,44,1023,-13,-33,-9
4096,203,39,1007,-15,-15,-10
4097,169,26,999,-15,13,-2
4098,16,12,1001,-15,31,0
4099,-158,2,995,-16,29,2
4100,-204,-3,975,-9,4,-2
4101,-130,15,978,-9,-21,-8
4102,75,42,1017,-12,-32,-10
4103,185,40,1018,-14,-16,-11
4104,186,30,1002,-18,9,-5
4105,44,14,995,-15,30,1
4106,-139,4,989,-14,29,3
4107,-211,-7,984,-13,8,-2
4108,-145,15,979,-11,-17,-6
4109,48,37,1011,-11,-34,-10
4110,173,38,1017,-15,-20,-11
4111,197,32,1007,-15,4,-4
4112,66,15,997,-15,28,0
4113,-119,0,991,-13,32,3
4114,-208,-1,975,-8,12,0
4115,-156,18,982,-11,-15,-5
4116,17,32,1016,-11,-32,-10
4117,158,40,1014,-14,-22,-10
4118,205,35,997,-15,2,-6
4119,84,21,1000,-16,28,-2
4120,-94,-1,1007,-13,33,2
4121,-204,0,966,-8,16,0
4122,-168,14,974,-11,-11,-5
4123,-13,28,1015,-12,-30,-9
4124,143,40,1017,-14,-25,-11
4125,214,38,1010,-15,-2,-7
4126,102,22,1000,-14,25,0
4127,-62,-1,999,-15,32,2
4128,-195,-2,969,-12,20,1
4129,-186,13,981,-11,-7,-5
4130,-37,22,1009,-14,-28,-9
4131,127,35,1010,-13,-28,-10
4132,211,38,1008,-15,-8,-7
4133,122,26,1014,-16,21,0
4134,-38,3,1000,-13,33,0
4135,-187,2,963,-11,23,1
4136,-192,8,987,-11,-4,-3
4137,-70,20,1004,-13,-27,-8
4138,116,37,1007,-16,-28,-11
4139,208,36,1006,-15,-10,-8
4140,143,24,1011,-16,17,0
4141,-14,9,1008,-13,31,2
4142,-174,4,974,-12,26,1
4143,-200,2,969,-9,1,-3
4144,-99,17,997,-12,-25,-8
4145,98,42,1022,-13,-32,-11
4146,206,36,1003,-16,-14,-9
4147,165,20,1001,-17,14,-1
4148,9,10,1009,-12,30,1
4149,-159,6,986,-12,28,3
4150,-202,-1,978,-12,4,-3
4151,-120,17,980,-11,-22,-8
4152,79,42,1017,-15,-32,-11
4153,189,34,1016,-16,-16,-11
4154,178,25,996,-17,10,-3
4155,40,13,998,-15,30,1
4156,-145,4,995,-13,29,4
4157,-208,0,981,-13,7,-1
4158,-137,17,978,-12,-18,-5
4159,49,42,1011,-11,-32,-9
4160,179,35,1018,-16,-19,-11
4161,193,27,1006,-17,7,-4
4162,63,15,996,-14,29,1
4163,-120,1,993,-13,32,3
4164,-211,-2,976,-11,11,-2
4165,-154,18,983,-10,-16,-6
4166,27,33,1018,-12,-34,-10
4167,159,38,1008,-13,-22,-11
4168,208,33,1003,-16,2,-5
4169,79,19,1002,-16,28,0
4170,-101,-2,996,-14,31,3
4171,-208,0,968,-10,14,-1
4172,-167,14,980,-13,-13,-6
4173,2,30,1017,-13,-29,-10
4174,148,38,1014,-15,-22,-11
4175,214,36,1004,-16,-2,-6
4176,97,21,999,-17,25,2
4177,-78,-5,1003,-12,32,2
4178,-201,-1,969,-10,19,1
4179,-182,13,976,-10,-9,-3
4180,-28,25,1009,-11,-30,-10
4181,137,37,1015,-17,-27,-10
4182,216,39,1010,-17,-5,-7
4183,115,25,1003,-16,22,-1
4184,-50,0,997,-15,34,3
4185,-192,2,967,-11,21,2
4186,-193,9,983,-11,-5,-3
4187,-54,18,1006,-12,-30,-8
4188,127,37,1008,-13,-30,-11
4189,211,39,1009,-14,-7,-9
4190,134,29,1013,-17,21,-2
4191,-26,5,1007,-15,32,1
4192,-182,3,962,-13,24,2
4193,-214,30,984,-12,-4,-3
4194,-89,32,937,-19,-27,-7
4195,108,25,986,-25,-26,-9
4196,217,43,1028,-11,-11,-10
4197,176,-11,968,-31,15,-2
4198,8,-12,927,-4,39,3
4199,-171,-39,992,-15,32,0
4200,-221,-13,977,-4,5,-6
4201,-124,49,992,16,-24,-6
4202,85,95,1015,-18,-34,-11
4203,217,106,928,-36,-12,-8
4204,153,53,835,-31,15,-7
4205,6,-21,940,-45,30,-3
4206,-153,-26,843,10,23,5
4207,-197,-68,741,-40,2,-6
4208,-113,1,864,3,-18,-3
4209,78,52,986,6,-32,-8
4210,202,54,971,-26,-20,-10
4211,198,53,1013,-3,14,6
4212,53,23,1011,-25,36,3
4213,-152,0,985,-25,37,4
4214,-246,-3,940,-1,13,0
4215,-179,15,954,-23,-20,-5
4216,59,33,1018,-15,-37,-11
4217,181,41,1022,-11,-21,-10
4218,230,39,1004,-25,3,-6
4219,85,16,995,-11,33,1
4220,-123,0,978,-21,36,4
4221,-229,-15,981,-14,15,-3
4222,-186,8,987,-10,-14,-5
4223,8,32,1003,-19,-34,-11
4224,163,41,1016,-13,-25,-13
4225,203,41,997,-17,-4,-7
4226,90,-31,989,-18,23,-3
4227,-78,-108,1001,-5,33,-2
4228,-208,136,958,35,15,12
4229,-92,-141,336,190,-108,64
4230,-22,110,392,-67,-45,10
4231,13,-50,464,52,-42,11
4232,188,-22,670,-218,-6,19
4233,83,-4,838,90,16,-7
4234,-33,-63,742,-115,62,13
4235,-81,-86,726,-58,40,-2
4236,-170,0,844,104,13,0
4237,-79,17,996,-120,-20,-13
4238,58,-38,928,90,1,-17
4239,172,46,895,-28,6,-11
4240,100,-42,775,7,-5,-10
4241,6,-45,191,69,-17,-9
4242,-193,55,285,-118,-29,16
4243,-158,-177,64,114,-12,-11
4244,-65,-147,543,-55,-41,3
4245,41,13,717,220,-104,95
4246,188,-25,201,240,-238,59
4247,114,4,549,-48,-127,120
4248,29,55,557,253,-15,48
4249,-100,62,597,-79,-6,46
4250,-203,-79,533,-77,-16,17
4251,-101,-13,572,86,-9,3
4252,12,3,676,-132,-4,2
4253,147,62,611,33,4,-8
4254,204,-129,750,-8,-4,-9
4255,95,-65,920,-67,24,3
4256,-77,-56,762,-90,83,30
4257,-229,-141,342,-2,-14,9
4258,-197,117,654,409,-60,68
4259,-41,52,237,-3,-69,1
4260,152,97,289,-112,-24,14
4261,78,38,194,35,-26,7
4262,142,3,294,-151,-37,6
4263,3,-97,320,-53,-4,18
4264,-98,-121,388,27,39,12
4265,-94,-377,452,-51,43,-4
4266,-119,134,760,122,13,-25
4267,-4,-256,-8,139,-135,-37
4268,25,65,589,214,-120,57
4269,128,172,52,133,-100,74
4270,28,68,-61,-38,-66,54
4271,-84,-53,-23,26,-34,67
4272,-214,-44,170,48,-33,46
4273,-77,-113,224,-179,-26,12
4274,-35,-60,445,148,-18,-12
4275,156,-106,754,-164,-57,-6
4276,287,-338,775,66,-11,-3
4277,110,169,811,209,147,36
4278,45,236,85,147,241,-116
4279,-57,-136,123,-616,435,-76
4280,-110,215,470,243,274,-97
4281,-46,79,169,-546,121,-59
4282,80,25,232,-131,157,-47
4283,130,132,722,-18,11,-64
4284,152,-73,962,-347,-27,-30
4285,-17,-81,653,135,63,-16
4286,-35,-130,657,-130,39,-7
4287,-10,-493,478,-87,-12,-10
4288,-48,-345,163,248,-26,-5
4289,134,-60,176,51,34,-34
4290,50,108,665,253,56,-32
4291,29,425,809,57,42,14
4292,-133,310,434,-89,-7,2
4293,-214,358,583,71,-3,5
4294,-135,-110,801,-216,-33,-1
4295,-47,-31,577,-24,-18,-6
4296,152,-232,852,-44,-49,2
4297,179,45,696,-104,-42,-4
4298,185,-151,700,51,9,-25
4299,44,-168,768,-25,36,14
4300,-47,52,895,41,41,7
4301,-235,77,938,73,38,-5
4302,-167,190,984,-26,-13,-9
4303,-24,214,960,9,-21,-7
4304,99,120,1030,-42,-18,-12
4305,141,-5,1041,-84,-9,-9
4306,35,-66,964,-18,8,1
4307,-50,-109,971,-48,3,15
4308,-86,-105,1004,-9,5,-3
4309,-59,-59,979,17,1,-16
4310,43,10,984,-1,-10,-18
4311,106,92,1026,26,2,-12
4312,77,130,1034,-2,12,-3
4313,-14,119,994,-20,17,3
4314,-120,45,990,-19,15,2
4315,-153,-18,983,-40,-4,0
4316,-34,-41,1006,-24,-19,-6
4317,67,1,1000,-17,-25,-8
4318,136,-4,977,-22,-12,-12
4319,146,-15,992,-3,13,-9
4320,31,-12,1007,-3,29,7
4321,-99,1,1017,1,27,5
4322,-184,59,1020,3,11,-3
4323,-115,41,873,-12,-17,-6
4324,29,75,987,-5,-23,-10
4325,154,83,1055,-23,-12,-11
4326,129,25,999,-31,5,-5
4327,37,-25,986,-15,19,4
4328,-105,-62,997,-22,21,5
4329,-169,-42,972,4,10,-2
4330,-67,1,982,7,-12,-9
4331,37,58,1020,1,-23,-8
4332,160,89,1016,0,-12,-8
4333,137,70,993,-17,12,-4
4334,-10,34,995,-17,25,4
4335,-133,-16,1005,-17,20,1
4336,-174,-37,980,-18,1,-2
4337,-63,-18,986,-3,-22,-7
4338,79,9,1018,-4,-23,-11
4339,186,51,1005,-4,-9,-8
4340,136,57,996,-3,17,-3
4341,-22,45,1013,-13,30,4
4342,-167,19,986,-13,20,3
4343,-183,12,971,-13,-2,-4
4344,-67,2,1006,-15,-26,-9
4345,95,18,1014,-13,-28,-11
4346,205,30,1002,-15,-9,-9
4347,141,28,999,-11,19,-3
4348,-20,15,1010,-11,31,3
4349,-174,12,977,-12,23,1
4350,-195,14,969,-11,0,-2
4351,-77,19,1007,-12,-25,-8
4352,93,25,1012,-16,-30,-10
4353,206,39,1011,-14,-12,-8
4354,149,25,1004,-17,17,-1
4355,-7,4,1001,-13,33,1
4356,-173,2,974,-10,26,2
4357,-204,9,985,-12,0,-3
4358,-94,18,999,-9,-25,-8
4359,98,37,1001,-15,-31,-11
4360,208,36,1013,-15,-12,-9
4361,157,29,1013,-17,16,-2
4362,8,6,1009,-16,31,1
4363,-165,2,970,-10,27,2
4364,-210,3,975,-10,3,-2
4365,-111,13,996,-13,-22,-7
4366,82,39,1012,-14,-32,-11
4367,205,40,1003,-13,-17,-9
4368,171,24,1005,-15,13,-2
4369,25,15,1012,-14,30,1
4370,-158,4,989,-15,29,3
4371,-206,-2,970,-11,6,-2
4372,-138,9,983,-10,-21,-7
4373,69,41,1022,-14,-33,-10
4374,194,40,1014,-14,-18,-10
4375,186,31,995,-16,10,-3
4376,49,19,1005,-14,32,1
4377,-142,6,997,-14,32,3
4378,-213,-5,981,-14,8,-1
4379,-149,8,976,-11,-18,-8
4380,48,36,1008,-12,-33,-9
4381,183,39,1019,-15,-21,-10
4382,195,29,1007,-16,5,-3
4383,69,21,992,-14,28,0
4384,-119,1,993,-15,32,3
4385,-216,-4,982,-10,11,-2
4386,-162,13,982,-12,-16,-7
4387,25,31,1011,-12,-33,-10
4388,165,39,1015,-14,-22,-10
4389,211,33,1003,-13,-2,-8
4390,88,20,1000,-25,22,0
4391,-96,0,998,-16,33,4
4392,-211,-4,971,-15,16,-1
4393,-173,13,977,-9,-12,-5
4394,-2,28,1016,-14,-33,-10
4395,145,35,1014,-15,-24,-11
4396,219,40,1002,-13,-1,-7
4397,105,22,998,-18,25,1
4398,-73,-2,1008,-14,34,3
4399,-204,-3,967,-12,19,1
4400,-185,10,975,-12,-8,-4
4401,-30,24,1010,-9,-31,-11
4402,133,36,1015,-13,-29,-12
4403,220,44,1013,-12,-6,-8
4404,125,23,1005,-14,22,-1
4405,-49,2,998,-13,33,2
4406,-197,-3,967,-13,21,1
4407,-195,6,985,-11,-5,-4
4408,-65,19,1001,-12,-29,-9
4409,125,42,1005,-12,-30,-11
4410,214,41,1012,-15,-9,-9
4411,141,29,1009,-15,20,-1
4412,-19,6,1008,-15,33,2
4413,-179,0,966,-11,25,2
4414,-207,0,974,-11,-1,-2
4415,-92,15,1002,-11,-26,-8
4416,105,39,1013,-13,-31,-11
4417,212,42,1001,-13,-12,-10
4418,160,28,1007,-15,16,-1
4419,5,13,1014,-16,31,1
4420,-165,4,978,-14,27,3
4421,-207,-1,967,-13,2,-3
4422,-119,14,990,-10,-23,-8
4423,88,40,1021,-13,-33,-11
4424,197,39,1011,-16,-16,-9
4425,180,23,996,-17,12,-3
4426,31,13,1005,-14,33,1
4427,-145,8,994,-15,30,4
4428,-215,-5,982,-13,6,-1
4429,-137,18,973,-10,-19,-6
4430,55,37,1010,-13,-33,-11
4431,185,39,1022,-14,-20,-11
4432,194,25,1006,-16,7,-4
4433,59,17,990,-14,28,1
4434,-125,1,995,-14,31,4
4435,-212,-4,982,-11,12,-1
4436,-159,16,977,-12,-16,-6
4437,29,36,1015,-12,-32,-10
4438,162,38,1014,-15,-21,-10
4439,209,31,1001,-16,2,-5
4440,82,16,999,-16,26,1
4441,-103,2,1002,-14,34,3
4442,-210,-2,969,-12,15,-1
4443,-171,13,977,-10,-12,-5
4444,0,31,1019,-11,-31,-10
4445,149,37,1014,-13,-24,-11
4446,218,40,1003,-17,-1,-7
4447,103,23,1000,-17,25,0
4448,-79,0,1003,-12,32,2
4449,-202,-4,969,-12,18,-1
4450,-183,13,975,-12,-7,-3
4451,-32,25,1010,-11,-29,-9
4452,135,37,1018,-15,-27,-11
4453,213,43,1008,-15,-7,-7
4454,118,23,1004,-15,22,-1
4455,-45,1,999,-14,33,3
4456,-191,-2,965,-13,22,0
4457,-194,11,985,-10,-4,-3
4458,-62,17,1005,-12,-29,-9
4459,125,38,1006,-13,-31,-12
4460,210,38,1009,-14,-10,-9
4461,138,29,1013,-15,18,-1
4462,-20,7,1010,-16,31,2
4463,-179,3,964,-15,24,3
4464,-202,2,975,-10,0,-3
4465,-91,13,1000,-11,-25,-8
4466,106,42,1018,-13,-31,-11
4467,207,40,998,-16,-12,-10
4468,161,27,1007,-16,16,-2
4469,6,13,1011,-15,32,1
4470,-166,6,981,-11,29,3
4471,-199,-2,972,-10,4,-2
4472,-122,14,984,-10,-21,-7
4473,85,40,1019,-13,-33,-10
4474,196,34,1017,-16,-16,-11
4475,177,29,995,-16,11,-3
4476,31,17,999,-13,30,-1
4477,-148,6,996,-13,30,2
4478,-208,-1,983,-12,7,-1
4479,-138,15,975,-13,-20,-5
4480,55,36,1011,-13,-33,-11
4481,177,37,1018,-15,-19,-10
4482,199,27,1005,-15,7,-5
4483,56,17,996,-12,29,0
4484,-122,7,989,-10,33,4
4485,-211,-1,981,-12,12,-1
4486,-158,17,980,-12,-15,-5
4487,27,33,1018,-14,-34,-11
4488,163,33,1013,-16,-22,-10
4489,208,30,1000,-15,2,-5
4490,84,20,1003,-15,27,0
4491,-99,0,1002,-13,32,3
4492,-206,0,968,-10,16,0
4493,-172,17,975,-13,-11,-4
4494,-4,28,1020,-13,-30,-10
4495,146,39,1014,-15,-25,-12
4496,218,34,1003,-18,-2,-7
4497,101,18,1000,-16,24,0
4498,-71,-6,1003,-13,32,2
4499,-198,-2,971,-10,19,0
4500,-183,13,977,-13,-8,-3
4501,-34,26,1010,-11,-29,-10
4502,132,36,1012,-16,-28,-10
4503,208,42,1010,-16,-6,-7
4504,127,21,1009,-17,22,-1
4505,-41,0,999,-16,33,2
4506,-187,2,960,-13,22,3
4507,-193,4,991,-11,-5,-5
4508,-66,20,1003,-11,-28,-9
4509,123,40,1004,-13,-29,-12
4510,209,40,1009,-12,-9,-10
4511,141,27,1016,-15,18,-2
4512,-13,7,1008,-14,31,1
4513,-180,1,968,-14,24,2
4514,-203,2,974,-11,0,-4
4515,-98,16,1000,-12,-25,-8
4516,100,41,1018,-13,-32,-11
4517,208,36,1003,-15,-14,-10
4518,159,22,1000,-18,15,-1
4519,7,14,1011,-14,32,1
4520,-163,3,988,-15,29,3
