sequence,AccelerometerX,AccelerometerY,AccelerometerZ,GyroscopeX,GyroscopeY,GyroscopeZ
0,-472,61,896,-25,42,15
1,-423,-20,923,-27,-31,-6
2,11,-120,1045,-21,-85,-16
3,430,-117,1078,9,-61,-3
4,455,-35,1018,21,7,4
5,109,56,995,23,65,14
6,-314,85,928,-18,65,20
7,-509,30,891,-32,8,5
8,-247,-88,992,-31,-64,-14
9,264,-134,1073,-7,-87,-12
10,494,-76,1059,30,-29,1
11,324,4,988,15,39,10
12,-113,86,972,13,73,18
13,-472,73,901,-31,44,17
14,-421,-26,920,-36,-32,-4
15,8,-113,1047,-18,-85,-16
16,431,-103,1087,15,-62,-4
17,456,-45,1012,14,6,5
18,103,56,984,24,64,12
19,-316,93,938,-13,64,22
20,-505,20,894,-38,6,7
21,-246,-85,987,-31,-63,-12
22,268,-122,1086,2,-86,-11
23,490,-85,1047,17,-28,2
24,316,7,985,24,42,9
25,-114,95,983,11,72,19
26,-472,64,895,-35,41,15
27,-417,-37,921,-36,-32,-6
28,15,-113,1048,-14,-84,-14
29,434,-113,1083,10,-63,-3
30,455,-55,1002,18,7,5
31,101,65,992,31,65,13
32,-318,93,944,-19,65,19
33,-506,13,884,-37,8,5
34,-242,-79,989,-24,-66,-13
35,271,-119,1094,-2,-85,-10
36,493,-97,1033,10,-27,2
37,315,13,992,34,40,9
38,-122,101,988,7,73,18
39,-472,53,883,-39,43,16
40,-420,-25,924,-27,-34,-5
41,20,-106,1057,-18,-85,-16
42,436,-123,1077,6,-61,-4
43,448,-43,1006,24,7,5
44,103,75,1000,27,65,14
45,-321,84,927,-25,64,21
46,-507,21,886,-29,6,5
47,-237,-70,1000,-30,-65,-12
48,274,-132,1083,-6,-84,-9
49,493,-92,1035,16,-27,1
50,312,20,1002,33,41,9
51,-120,84,976,-3,73,20
52,-475,57,885,-29,41,16
53,-417,-20,935,-30,-32,-7
54,25,-121,1046,-24,-86,-14
55,434,-119,1078,15,-62,-3
56,451,-32,1011,25,7,4
57,99,63,999,21,65,14
58,-324,76,923,-21,65,19
59,-507,27,895,-28,6,5
60,-237,-82,998,-36,-67,-13
61,276,-136,1073,-1,-85,-10
62,493,-78,1048,24,-26,3
63,313,16,1001,24,41,10
64,-123,80,966,-1,73,17
65,-479,68,894,-21,41,15
66,-414,-25,930,-37,-34,-6
67,20,-122,1045,-17,-85,-14
68,436,-107,1086,16,-62,-3
69,452,-36,1012,18,7,6
70,97,60,989,21,65,14
71,-322,88,928,-15,64,20
72,-506,31,901,-31,5,6
73,-236,-93,984,-36,-65,-13
74,276,-123,1084,6,-85,-11
75,495,-75,1049,17,-28,1
76,313,6,989,25,42,8
77,-126,89,974,5,73,18
78,-477,70,898,-28,40,16
79,-410,-35,921,-41,-34,-6
80,26,-118,1045,-12,-86,-15
81,436,-105,1090,14,-61,-3
82,451,-46,1007,14,8,5
83,91,60,989,24,66,13
84,-327,91,932,-18,63,20
85,-508,14,888,-37,6,6
86,-232,-93,990,-30,-66,-14
87,283,-123,1090,5,-84,-10
88,495,-87,1043,12,-27,1
89,307,12,988,31,42,8
90,-130,100,981,7,73,19
91,-481,62,889,-36,40,17
92,-412,-35,920,-35,-35,-6
93,29,-111,1056,-12,-87,-15
94,441,-121,1084,8,-60,-2
95,448,-48,1004,24,10,6
96,88,77,997,30,67,13
97,-330,84,929,-27,64,20
98,-507,18,888,-32,5,5
99,-232,-75,998,-26,-66,-14
100,289,-125,1089,-4,-85,-10
101,493,-87,1037,16,-26,3
102,306,22,996,31,43,10
103,-133,93,977,-2,74,19
104,-481,57,880,-32,41,16
105,-411,-29,931,-32,-35,-6
106,29,-118,1054,-17,-85,-14
107,441,-123,1077,9,-60,-4
108,448,-38,1008,28,10,6
109,89,73,999,22,67,13
110,-331,83,924,-25,65,19
111,-511,26,892,-29,6,4
112,-228,-80,1001,-32,-68,-15
113,286,-134,1082,-3,-83,-9
114,494,-88,1037,18,-26,3
115,310,20,1001,29,43,9
116,-135,82,970,-3,72,18
117,-483,57,883,-25,40,15
118,-409,-23,934,-31,-34,-6
119,35,-122,1048,-21,-85,-15
120,441,-114,1081,16,-59,-3
121,450,-30,1015,22,9,5
122,91,64,993,18,66,14
123,-332,81,922,-20,65,20
124,-507,29,898,-25,4,4
125,-230,-87,998,-35,-66,-14
126,288,-133,1076,1,-84,-9
127,496,-76,1050,22,-27,3
128,307,14,995,25,43,9
129,-135,88,968,5,73,18
130,-483,73,893,-27,40,16
131,-408,-30,930,-41,-35,-6
132,33,-126,1043,-19,-85,-16
133,442,-107,1091,17,-60,-3
134,449,-43,1005,15,10,6
135,89,57,987,24,66,14
136,-336,94,931,-14,63,20
137,-503,19,894,-38,4,6
138,-228,-90,993,-30,-67,-15
139,290,-119,1086,5,-84,-11
140,496,-80,1048,13,-26,4
141,303,10,983,26,44,9
142,-136,94,976,7,73,20
143,-486,64,892,-33,40,18
144,-405,-42,920,-37,-35,-7
145,37,-117,1049,-12,-88,-16
146,446,-110,1094,13,-59,-4
147,445,-45,999,18,11,5
148,84,71,992,29,67,13
149,-340,94,935,-21,65,21
150,-506,14,885,-37,4,3
151,-225,-82,996,-24,-68,-16
152,296,-121,1096,0,-84,-9
153,496,-91,1036,11,-25,2
154,298,18,992,33,44,9
155,-142,98,982,1,72,19
156,-485,54,877,-38,40,17
157,-406,-34,928,-29,-36,-8
158,44,-113,1056,-15,-86,-15
159,446,-119,1085,10,-59,-3
160,445,-39,1002,22,11,6
161,79,78,1003,26,67,14
162,-343,82,923,-25,63,21
163,-509,12,888,-33,4,5
164,-220,-82,1003,-27,-68,-15
165,302,-132,1085,-2,-84,-9
166,496,-88,1038,19,-24,2
167,300,26,998,33,44,10
168,-145,92,977,-4,73,21
169,-491,52,873,-30,39,15
170,-399,-26,938,-27,-36,-8
171,46,-119,1057,-22,-87,-13
172,449,-121,1076,12,-59,-4
173,445,-29,1011,26,10,5
174,77,64,994,19,67,15
175,-346,77,916,-24,64,21
176,-509,25,897,-27,3,4
177,-216,-90,1003,-32,-69,-14
178,301,-134,1079,3,-83,-9
179,496,-71,1046,24,-25,2
180,298,22,997,27,43,9
181,-148,88,968,-1,73,19
182,-491,66,883,-25,38,15
183,-401,-34,937,-39,-37,-6
184,50,-129,1042,-19,-87,-14
185,451,-107,1088,19,-59,-3
186,445,-35,1008,20,11,5
187,76,59,990,22,67,14
188,-349,92,922,-18,62,21
189,-507,31,902,-32,2,3
190,-214,-97,987,-38,-69,-14
191,304,-125,1086,9,-83,-9
192,500,-72,1054,15,-24,2
193,296,5,985,21,45,10
194,-151,85,969,7,73,19
195,-496,71,893,-27,38,16
196,-398,-43,928,-42,-37,-8
197,52,-125,1045,-12,-85,-15
198,455,-102,1098,19,-59,-3
199,443,-45,996,13,12,6
200,71,68,992,29,68,14
201,-354,98,927,-20,63,20
202,-506,11,892,-39,2,3
203,-212,-97,987,-27,-68,-14
204,306,-115,1101,8,-82,-9
205,499,-86,1039,9,-23,2
206,286,15,991,34,45,9
207,-154,104,980,4,73,17
208,-490,58,881,-35,37,15
209,-399,-40,929,-32,-38,-8
210,62,-108,1060,-10,-86,-15
211,457,-115,1088,5,-58,-2
212,438,-43,996,24,13,6
213,70,78,1000,26,68,14
214,-357,88,925,-27,61,21
215,-503,10,885,-33,1,2
216,-208,-84,1001,-25,-69,-14
217,313,-126,1095,-1,-82,-9
218,504,-91,1031,14,-23,3
219,282,25,999,35,47,9
220,-153,95,976,-3,71,20
221,-501,55,874,-33,38,16
222,-395,-33,935,-32,-39,-9
223,66,-119,1059,-16,-85,-15
224,457,-118,1083,11,-57,-2
225,442,-34,1003,27,13,5
226,66,74,1003,20,67,15
227,-360,79,913,-22,60,20
228,-506,23,893,-26,1,3
229,-204,-88,999,-31,-71,-13
230,319,-133,1083,-1,-81,-8
231,499,-80,1041,19,-22,2
232,282,27,1002,29,46,10
233,-161,85,968,-8,72,20
234,-499,57,874,-26,36,14
235,-390,-29,942,-33,-40,-8
236,69,-129,1052,-18,-87,-14
237,456,-113,1082,16,-56,0
238,436,-21,1013,24,14,7
239,62,69,994,14,69,14
240,-366,82,906,-21,61,19
241,-501,24,905,-29,-1,4
242,-196,-100,998,-36,-71,-14
243,321,-133,1079,6,-81,-8
244,499,-71,1049,23,-22,3
245,275,22,998,24,48,11
246,-171,87,961,-2,72,19
247,-502,68,886,-26,35,14
248,-384,-40,935,-40,-41,-9
249,77,-129,1051,-14,-87,-14
250,464,-106,1091,17,-54,-2
251,435,-36,1004,17,17,7
252,53,65,991,20,69,14
253,-373,88,915,-18,60,19
254,-506,16,898,-34,-1,3
255,-188,-101,994,-33,-73,-14
256,332,-123,1093,9,-81,-8
257,500,-72,1050,16,-19,3
258,271,16,989,25,48,9
259,-176,97,966,3,71,20
260,-509,68,888,-32,34,13
261,-378,-54,926,-43,-42,-9
262,82,-125,1059,-7,-86,-13
263,469,-104,1097,14,-55,-1
264,434,-41,994,16,16,7
265,51,73,997,29,69,15
266,-379,96,921,-22,60,21
267,-501,3,890,-40,-3,2
268,-187,-96,992,-23,-73,-14
269,338,-115,1105,6,-81,-8
270,499,-84,1031,10,-20,3
271,263,27,999,34,49,9
272,-180,99,975,-1,70,20
273,-506,45,869,-38,33,14
274,-380,-40,936,-28,-43,-10
275,95,-113,1070,-10,-88,-15
276,470,-116,1079,9,-54,-1
277,424,-28,1002,31,18,6
278,43,83,1007,20,67,16
279,-385,76,903,-29,59,20
280,-501,10,892,-32,-4,1
281,-168,-88,1007,-24,-73,-15
282,343,-135,1090,-1,-78,-8
283,496,-79,1032,23,-17,1
284,257,36,1009,30,51,11
285,-191,92,963,-7,71,21
286,-508,51,872,-31,33,13
287,-366,-36,946,-32,-45,-11
288,105,-126,1064,-15,-87,-13
289,472,-114,1073,15,-51,-2
290,424,-22,1009,27,19,5
291,33,74,996,17,69,14
292,-395,82,909,-24,60,20
293,-499,14,896,-33,-7,1
294,-161,-93,1008,-28,-77,-15
295,351,-131,1090,5,-78,-9
296,498,-70,1037,21,-16,3
297,251,31,1009,26,51,11
298,-199,90,953,-8,72,20
299,-513,56,877,-28,31,12
300,-365,-45,945,-34,-46,-10
301,111,-127,1059,-14,-86,-14
302,475,-104,1082,18,-52,-2
303,422,-23,1006,25,20,7
304,26,73,992,15,70,15
305,-400,82,905,-22,58,19
306,-495,10,901,-36,-8,1
307,-154,-101,1003,-25,-75,-15
308,355,-128,1088,7,-78,-8
309,499,-65,1044,21,-14,3
310,244,27,1001,22,52,11
311,-203,93,954,-3,71,19
312,-513,59,886,-30,30,12
313,-358,-56,940,-39,-47,-10
314,120,-130,1061,-6,-86,-13
315,476,-98,1085,19,-50,-2
316,417,-29,999,17,23,8
317,17,76,993,21,69,16
318,-407,94,914,-22,56,20
319,-491,1,897,-43,-10,2
320,-144,-105,1000,-25,-76,-16
321,364,-118,1097,13,-77,-8
322,498,-72,1035,13,-12,3
323,231,29,1000,29,54,10
324,-209,102,959,-4,70,21
325,-518,49,878,-37,28,12
326,-351,-56,939,-32,-50,-10
327,134,-122,1073,-7,-87,-12
328,480,-108,1074,12,-49,0
329,412,-28,994,23,25,7
330,10,90,1005,25,70,15
331,-414,81,908,-31,57,19
332,-491,-3,892,-33,-12,0
333,-137,-90,1011,-20,-76,-15
334,371,-126,1095,2,-77,-7
335,499,-82,1020,18,-12,3
336,224,42,1015,37,53,10
337,-219,94,961,-12,69,21
338,-521,40,865,-32,28,12
339,-346,-43,953,-28,-51,-9
340,143,-124,1077,-14,-88,-13
341,479,-114,1059,10,-47,0
342,404,-18,1002,33,26,6
343,2,82,1006,16,69,17
344,-420,67,897,-31,57,20
345,-492,8,906,-28,-14,0
346,-121,-93,1019,-28,-77,-14
347,373,-131,1079,-1,-75,-6
348,491,-67,1026,27,-9,2
349,217,41,1013,23,54,11
350,-226,87,945,-11,71,21
351,-516,50,881,-28,25,10
352,-339,-47,948,-35,-52,-10
353,156,-129,1064,-11,-86,-13
354,483,-94,1053,17,-44,0
355,405,1,999,25,29,7
356,4,90,984,5,74,16
357,-419,93,920,-27,59,20
358,-483,13,927,-48,-13,0
359,-114,-119,1026,-40,-75,-16
360,364,-151,1086,-3,-73,-7
361,490,-99,1029,15,-8,5
362,200,-11,1008,22,56,13
363,-245,56,946,1,68,18
364,-515,39,884,-12,19,9
365,-329,-43,946,-19,-56,-10
366,169,-87,1077,9,-89,-13
367,482,-52,1075,20,-44,-1
368,389,12,1009,17,29,6
369,-16,92,997,3,71,16
370,-438,75,919,-35,54,20
371,-483,-32,893,-50,-17,0
372,-111,-145,1009,-25,-78,-16
373,381,-140,1081,21,-76,-7
374,492,-66,1021,29,-9,6
375,200,50,999,38,54,9
376,-227,121,947,1,67,19
377,-505,76,893,-34,20,10
378,-304,-38,959,-36,-55,-11
379,179,-114,1074,-15,-85,-11
380,479,-107,1058,5,-40,-1
381,384,-43,998,13,31,9
382,-38,52,984,15,71,17
383,-439,53,913,-20,51,18
384,-468,-29,894,-31,-21,-4
385,-82,-92,1026,-2,-80,-15
386,394,-89,1097,14,-72,-4
387,478,-41,1018,18,-3,4
388,146,-76,1074,28,59,10
389,-184,-1008,5,-181,78,-31
390,-605,1094,721,974,-15,-4
391,-263,349,167,-608,-64,27
392,-6,134,922,244,-99,-30
393,403,669,1083,-15,-89,-3
394,567,-26,725,-333,4,58
395,404,1,886,-32,76,50
396,-289,-25,969,-208,116,1
397,-362,-538,1043,-186,44,17
398,-348,-601,547,-64,-3,10
399,-154,-193,1271,223,-54,-25
400,357,-288,879,-35,-54,14
401,92,-173,1049,204,1,8
402,-160,-46,306,49,9,-76
403,-80,499,1074,374,-51,-44
404,-98,265,752,-104,-40,9
405,82,453,931,119,-46,33
406,331,43,1097,-266,-25,28
407,302,48,805,23,31,-11
408,115,497,1108,-37,53,13
409,-283,-248,949,-355,90,-4
410,-331,-544,761,-131,21,6
411,-201,-169,934,73,-39,23
412,103,-294,1304,-28,-42,-18
413,349,-615,540,-80,-10,-10
414,27,193,1209,400,16,30
415,-168,324,964,-31,28,3
416,-293,54,816,-6,-6,-20
417,-163,258,1025,85,-50,-22
418,495,38,984,-115,-75,-18
419,297,-394,552,-120,52,-93
420,131,338,799,228,30,81
421,-282,557,1075,-35,35,96
422,-351,-159,512,-323,34,-71
423,-298,-624,706,-62,-41,-25
424,135,25,1147,149,-86,20
425,304,-262,1279,-91,-34,-10
426,457,-324,569,14,15,4
427,-25,323,1242,275,55,26
428,-313,260,926,-114,57,17
429,-483,-84,802,-46,-4,-18
430,-187,186,1049,77,-76,-17
431,325,56,1182,-82,-92,19
432,487,-182,921,-91,-8,15
433,290,21,1046,48,43,7
434,-77,48,1071,-60,71,19
435,-466,-140,755,-102,55,19
436,-475,-126,912,18,-27,-7
437,-19,-188,1048,-11,-88,-15
438,291,-318,681,-99,-58,-13
439,297,-465,328,281,-9,-39
440,2,613,431,376,-11,37
441,-188,542,1062,113,21,29
442,-304,198,221,-175,29,-90
443,-275,329,1112,89,-60,10
444,429,450,729,-155,-58,35
445,317,235,1349,-192,5,66
446,284,-187,474,-302,76,-5
447,74,-229,1242,-83,62,17
448,-461,-533,667,-227,87,58
449,-434,-590,746,1,7,-16
450,-339,-531,945,101,-62,-40
451,281,-136,1181,246,-99,-28
452,334,117,1112,131,-33,21
453,109,275,884,146,-5,-22
454,-22,338,858,29,-1,-33
455,-53,-249,200,-194,83,-40
456,239,-96,418,138,-138,69
457,343,737,289,487,-122,88
458,183,1030,1082,-147,15,-54
459,390,-483,593,-556,38,-31
460,290,-51,315,37,58,0
461,-440,635,1454,111,116,25
462,-360,-877,-234,-659,20,-2
463,-176,-277,1248,253,-40,-4
464,101,-337,656,-127,-38,17
465,306,-353,770,51,-10,9
466,-9,221,1143,182,38,-4
467,-133,459,1040,14,11,6
468,-208,182,955,-119,-11,34
469,-58,26,1020,-61,-38,-22
470,332,-297,1125,-103,-48,-12
471,312,-842,570,-151,2,-34
472,111,-344,623,344,82,3
473,-365,787,971,280,23,93
474,-495,325,1145,-133,-8,9
475,-302,-138,402,-122,-42,-58
476,197,456,1306,245,-119,-17
477,709,-121,936,-324,-47,41
478,391,-364,823,-59,64,3
479,-32,-115,1150,95,85,-10
480,-406,51,839,-21,64,46
481,-636,-32,979,-13,3,4
482,-230,-207,698,-27,-83,-31
483,295,-28,1301,114,-100,-9
484,513,-216,993,-52,-31,-7
485,319,204,936,199,18,3
486,13,298,1186,-13,67,-7
487,-384,33,655,-116,63,5
488,-463,129,1173,22,-16,7
489,-61,-131,949,-132,-72,-14
490,361,-139,1084,14,-61,-1
491,373,-214,993,-68,-3,13
492,159,-299,869,26,60,-3
493,-338,81,937,119,49,22
494,-442,182,1124,45,-5,6
495,-130,7,723,-56,-59,-8
496,233,201,1359,105,-75,2
497,460,-35,884,-151,-17,2
498,261,0,1050,25,41,6
499,-188,-87,1094,-72,63,13
500,-200,-438,228,-130,21,-90
501,-490,-147,827,184,27,-4
502,-125,517,1104,207,-108,36
503,429,-311,486,-311,-71,-35
504,217,-129,860,234,22,-37
505,230,467,1075,75,4,22
506,-81,-152,623,-221,45,28
507,-442,138,894,124,55,-29
508,-192,1,1178,-101,-57,-8
509,233,-184,871,-60,-61,23
510,224,-37,1065,42,1,2
511,272,-67,938,-31,9,7
512,-145,44,1033,20,50,26
513,-377,-69,703,-61,36,-10
514,-271,-15,1061,48,-44,0
515,69,-22,1013,-12,-67,12
516,405,-51,1025,-15,-40,1
517,321,-11,1090,45,13,12
518,35,128,977,0,60,11
519,-304,7,828,-77,51,5
520,-440,111,965,35,-5,4
521,-173,-793,684,-306,-85,-9
522,354,107,566,669,-100,-7
523,243,552,497,-65,-58,16
524,442,170,1051,109,-27,52
525,63,339,488,-84,76,-15
526,-375,407,859,54,68,-55
527,21,34,789,-254,-22,-9
528,-136,-726,29,-312,34,-24
529,131,318,1207,392,-22,26
530,253,189,828,-278,4,36
531,-209,-496,592,-161,54,-8
532,-149,-314,385,82,19,4
533,-311,222,1284,153,-32,11
534,-76,-438,652,-222,-51,-23
535,307,-147,1017,243,-58,-24
536,305,223,1082,97,-16,10
537,192,184,976,-3,15,36
538,-205,82,856,-7,65,-33
539,-321,324,1063,68,9,-57
540,-113,-6,893,-199,-36,-9
541,63,-79,1053,-14,-31,26
542,303,-24,1152,-36,-33,23
543,328,-160,960,-84,22,8
544,-50,-144,921,-21,68,1
545,-347,-50,893,15,40,17
546,-417,-118,949,-28,-13,4
547,-146,-198,929,21,-65,-18
548,336,-25,1120,98,-79,-5
549,418,56,1106,47,-18,6
550,221,133,948,36,35,2
551,-82,223,961,7,59,-12
552,-391,112,968,-80,45,-15
553,-317,-86,869,-92,-23,-1
554,7,-44,1110,3,-65,-1
555,346,-162,1039,-71,-43,-4
556,384,-191,969,-3,12,12
557,20,-13,1017,44,56,20
558,-349,-118,972,-16,51,-3
559,-507,-759,163,-139,-1,-23
560,-243,586,1094,612,-107,22
561,322,434,812,-230,-103,37
562,389,122,1092,34,-38,16
563,366,-75,927,-135,21,-26
564,122,-120,486,-31,66,-20
565,-167,452,1130,89,69,30
566,-483,-13,800,-267,41,13
567,98,-402,855,-87,-49,-40
568,62,-735,326,-26,14,-76
569,119,461,1012,344,-29,116
570,-18,157,864,-155,1,66
571,-246,-67,859,-34,39,-128
572,-123,-165,820,39,-49,-20
573,87,202,945,73,-46,37
574,120,98,1254,-67,-22,6
575,446,-140,710,-48,-13,14
576,35,225,1165,65,58,6
577,-247,-43,912,-165,53,8
578,-398,-165,799,-17,6,4
579,-306,53,1003,29,-54,-5
580,225,-207,1094,-84,-82,1
581,461,-241,987,8,-29,2
582,335,54,1056,113,25,11
583,-11,114,1029,-23,70,23
584,-423,61,814,-28,54,16
585,-320,-367,336,-191,-11,-13
586,-162,-207,301,344,-73,7
587,343,592,591,213,-148,17
588,219,410,1239,-32,-40,24
589,537,26,564,-181,43,-27
590,78,121,838,5,36,5
591,-184,392,921,-16,104,12
592,-402,-345,899,-416,25,7
593,-142,-407,739,93,-31,0
594,137,-107,1206,-39,-39,-2
595,201,-464,887,-62,6,11
596,83,-161,898,126,8,14
597,-334,129,1109,168,34,-8
598,-96,-410,311,-206,-34,-55
599,-156,-8,482,374,-46,-11
600,190,943,1138,243,-78,57
601,297,225,812,-285,-47,26
602,242,-117,780,-75,32,-55
603,127,45,826,-26,52,-60
604,-158,171,954,-60,58,51
605,-422,-179,934,-216,18,30
606,-43,-570,678,-79,-26,-45
607,122,-28,1258,165,-45,14
608,283,-177,910,-66,-6,21
609,29,-216,806,30,37,0
610,-334,250,1160,229,22,-13
611,-217,123,937,-96,-32,9
612,-66,-21,903,24,-45,-3
613,309,135,1151,45,-62,2
614,363,8,1080,-58,-5,22
615,162,28,929,-21,51,-4
616,-151,77,998,-25,54,-8
617,-411,-70,840,-100,31,17
618,-352,-177,1011,-32,-34,1
619,80,-173,982,15,-78,-19
620,425,-57,1109,43,-48,9
621,347,-60,973,6,16,26
622,22,150,982,73,55,7
623,-345,249,1015,-5,51,1
624,-444,-32,916,-108,-10,3
625,16,-991,423,-202,-59,-20
626,94,479,742,707,-94,-4
627,476,488,623,-202,-48,39
628,155,153,988,57,13,23
629,-10,453,780,-22,34,-41
630,-74,254,915,-127,36,-43
631,-16,-122,863,-247,28,38
632,-182,-362,758,-160,-5,18
633,231,-327,1113,25,-15,-11
634,81,-357,725,-87,34,16
635,-134,-205,901,113,19,23
636,-267,-22,972,72,10,14
637,-457,-339,1126,27,-24,-25
638,-20,-833,43,249,-110,-81
639,-77,1092,772,1459,-155,-10
640,419,39,24,-485,-43,92
641,90,177,551,613,-56,73
642,-204,744,538,371,-35,-5
643,2,309,554,29,-67,-86
644,119,167,462,194,-72,-19
645,69,392,356,14,-8,26
646,268,761,1322,148,-29,91
647,326,99,169,-460,7,8
648,59,352,1131,141,73,-58
649,-31,481,633,-306,70,-54
650,-153,178,897,-360,66,-15
651,-156,465,992,-305,72,21
652,86,437,1130,-500,23,28
653,396,-1008,379,-831,48,-7
654,111,338,473,648,142,-6
655,-179,125,589,-681,34,99
656,-554,-294,516,46,61,2
657,-360,-394,507,-310,-20,-80
658,-24,-740,610,134,-83,-29
659,383,31,1310,154,-79,-35
660,350,-241,827,-31,1,21
661,71,200,829,236,30,-19
662,-217,572,1096,116,16,-27
663,-325,-1215,361,-390,-7,-42
664,-204,931,1095,1073,-47,-59
665,95,821,920,-356,-120,26
666,314,-318,402,-177,-27,56
667,222,723,1142,274,7,48
668,-16,292,892,-308,18,25
669,93,-403,786,-285,41,-37
670,-102,-231,749,0,60,-41
671,48,394,1443,37,-10,40
672,103,-205,847,-295,33,45
673,-44,-210,1008,-12,44,-5
674,-160,-439,855,-123,14,5
675,-279,-637,962,64,16,-4
676,-421,-815,-138,71,-32,-49
677,-34,1055,1196,872,-137,19
678,322,21,150,-468,-78,52
679,258,451,1088,449,-50,-15
680,314,415,964,-111,-6,15
681,156,58,473,-74,34,3
682,-158,604,1264,107,71,-22
683,-295,107,698,-407,39,-29
684,190,-39,1109,-140,-10,-5
685,144,-1,1055,-162,27,41
686,64,-166,1064,-153,36,25
687,-55,-701,964,-227,54,11
688,-472,-1083,-137,-7,41,-29
689,-469,929,916,924,-86,23
690,40,168,94,-425,-84,34
691,103,424,1143,417,-110,-39
692,503,382,955,-68,-70,3
693,461,155,718,-11,-6,45
694,118,411,930,32,87,42
695,-248,268,534,-286,95,-12
696,-112,208,1603,-79,33,-22
697,-151,-548,375,-466,18,18
698,58,-192,1353,172,-7,6
699,98,-523,761,-275,11,9
700,17,-565,792,100,22,15
701,-222,-782,210,21,30,-65
702,-411,611,1010,708,-45,28
703,-119,540,832,-42,-128,74
704,193,178,751,61,-95,-23
705,440,407,1106,169,-58,21
706,437,309,729,-129,-12,33
707,136,323,1186,7,72,14
708,-184,243,489,-252,92,-44
709,-43,253,1461,-92,32,-30
710,-177,-573,821,-485,35,24
711,-6,-663,153,5,24,3
712,115,136,670,208,-33,4
713,-129,120,1077,-8,30,23
714,-241,-406,436,-200,4,0
715,-187,70,1220,300,-61,-18
716,130,147,1090,-35,-52,-9
717,367,-200,771,-85,-36,24
718,343,264,1087,203,19,16
719,29,290,1035,-102,64,14
720,-325,-28,957,-117,58,-5
721,-456,-58,785,-49,-4,-4
722,-187,-282,1217,-40,-61,3
723,160,-784,47,-198,-83,38
724,434,133,1017,488,-30,-24
725,277,618,1143,109,-3,1
726,0,29,582,-249,52,-3
727,-309,280,987,184,59,-30
728,-301,353,911,-143,-20,-15
729,-118,-554,882,-273,-42,54
730,182,-294,730,76,-43,-7
731,516,354,1393,214,-35,-15
732,105,-184,951,-290,71,42
733,-289,-566,412,-37,69,19
734,-446,403,1069,362,-28,-25
735,-176,124,900,-176,-39,-11
736,153,-390,614,-107,-71,23
737,368,158,1161,257,-48,-2
738,345,286,1230,-32,24,12
739,47,-209,514,-213,55,12
740,-363,166,1006,186,55,-21
741,-403,250,1164,-88,-13,1
742,-82,-260,827,-177,-58,4
743,256,-173,1085,50,-58,-15
744,483,-70,1109,7,-10,23
745,118,-245,919,-64,55,28
746,-144,-705,562,-108,65,-15
747,-576,580,837,706,-5,-25
748,-215,657,591,-141,-68,-11
749,-13,122,1015,28,-101,20
750,352,460,928,7,-80,40
751,478,288,1119,-123,-8,42
752,454,-115,646,-224,47,38
753,-141,48,950,-61,113,2
754,-423,-383,1163,-248,62,0
755,-250,-670,490,-91,-8,9
756,-201,-161,1265,201,-41,-13
757,300,-271,896,-23,-49,1
758,157,-37,996,167,-3,21
759,-337,-1248,240,-178,2,-19
760,-176,726,372,1439,-41,-25
761,-147,437,326,-317,-122,-32
762,30,6,510,488,-124,15
763,278,764,741,217,-68,31
764,192,201,967,52,-57,36
765,372,344,543,141,-29,11
766,-154,185,554,-17,59,-15
767,-56,547,914,135,5,-30
768,-60,268,871,-355,-7,1
769,158,324,1020,-25,37,12
770,220,565,1106,-280,4,30
771,96,-624,534,-525,79,8
772,-71,1,105,162,102,-41
773,-215,946,1029,-38,17,-12
774,-205,-244,-282,-608,50,4
775,88,577,1504,-14,-11,-26
776,302,-841,805,-703,-8,47
777,281,-702,683,13,69,48
778,-304,-1541,93,-183,77,-25
779,-376,906,1326,1032,1,-95
780,-372,141,422,-489,-59,-54
781,-86,180,1109,355,-70,-36
782,68,625,1195,-13,-99,0
783,331,165,872,-42,-74,15
784,581,257,952,-49,-8,42
785,55,-559,907,-303,93,44
786,-293,-109,551,138,97,0
787,-241,367,1225,28,-20,-20
788,-133,-125,448,-168,-7,-10
789,183,-11,1408,31,-39,17
790,170,-632,268,-191,15,32
791,-46,426,1442,359,13,-15
792,-264,-322,541,-346,29,-19
793,-144,-38,853,237,-37,10
794,13,188,1248,4,-46,21
795,279,-141,890,-58,-33,-3
796,305,190,1207,116,6,-18
797,79,225,934,-48,43,-4
798,-185,-17,1010,-119,51,21
799,-451,-162,652,-77,21,7
800,-217,23,1247,41,-63,-19
801,288,-733,1012,-189,-66,3
802,294,-597,4,271,-3,-18
803,144,1197,1345,831,-32,27
804,-120,-251,-162,-603,28,29
805,-413,620,1024,549,17,-105
806,-259,357,643,-218,-73,-13
807,225,122,451,-56,-94,44
808,251,735,1495,43,-5,99
809,383,130,761,-474,15,54
810,525,-23,1231,-104,47,13
811,-135,-183,724,-295,147,5
812,-475,-674,1058,-224,73,0
813,-391,-1165,467,-128,4,-5
814,-506,-514,-2,463,-43,-69
815,279,917,1125,609,-135,23
816,132,-60,164,-245,-82,30
817,25,564,1095,523,-23,-76
818,50,320,942,-35,-62,-35
819,213,128,494,63,-47,-6
820,60,453,1121,49,38,70
821,-29,-79,479,-345,15,82
822,147,223,996,108,7,60
823,99,351,214,-149,25,-54
824,-110,424,974,47,25,-96
825,99,277,546,-396,51,-95
826,-250,-588,1427,-459,67,7
827,47,-640,547,-37,-15,52
828,51,-154,1336,26,11,-4
829,-55,-737,668,-189,46,-22
830,123,-389,534,183,-11,39
831,-427,-344,102,56,39,12
832,-317,336,682,514,-76,-16
833,-145,670,888,274,-151,18
834,309,195,631,-86,-80,-20
835,485,296,974,189,-46,70
836,322,427,703,-104,12,35
837,36,389,1197,0,71,2
838,-154,273,513,-264,64,-66
839,-14,220,1239,-131,20,-48
840,-2,-97,1159,-349,50,16
841,19,-581,941,-250,25,24
842,0,-515,915,-2,30,2
843,-154,-294,1011,16,47,-21
844,-338,-446,534,-3,9,6
845,-349,-291,999,138,-63,-37
846,32,-523,740,34,-89,41
847,61,-59,576,321,-78,29
848,497,809,1135,491,-104,-42
849,276,143,956,-203,20,-19
850,-64,-69,269,128,61,-24
851,-356,814,1224,320,-13,-8
852,-93,326,734,-271,-8,-10
853,62,196,895,-136,-35,10
854,225,505,1322,-109,-7,38
855,476,-138,1212,-420,37,51
856,-88,-484,406,-287,113,48
857,-220,-256,862,38,37,-51
858,-367,-317,1115,-80,27,6
859,-293,-853,410,-158,-26,-22
860,114,-270,1391,346,-77,-16
861,322,-193,873,11,-35,36
862,-22,-54,725,200,-1,13
863,-80,437,1179,328,-28,-43
864,-178,118,660,-53,-28,-32
865,-153,292,933,202,-38,-13
866,165,312,918,-86,-73,44
867,360,216,987,-20,-33,60
868,224,217,1011,-120,41,22
869,42,51,718,-145,55,-23
870,0,317,957,-51,38,-72
871,-201,40,1259,-242,69,-18
872,-222,-685,659,-352,10,38
873,40,-424,1156,116,-27,-5
874,83,-338,971,-25,8,-8
875,146,-774,772,-59,-4,27
876,-164,-195,270,410,46,-4
877,-348,931,1238,496,-73,-26
878,-230,220,716,-43,-98,2
879,150,174,590,137,-99,4
880,308,658,1402,288,-94,39
881,578,268,649,-308,-20,52
882,178,76,872,-36,77,37
883,-109,584,780,-19,76,-58
884,-136,338,1240,-324,37,-47
885,83,-232,940,-363,64,-36
886,-135,-456,1183,-222,18,31
887,53,-558,822,-78,26,23
888,-98,-884,1152,-124,42,-18
889,-282,-562,-196,485,23,-3
890,-512,1069,724,720,-49,-3
891,-148,149,306,-254,-152,-20
892,167,275,797,362,-137,-6
893,206,507,741,232,-56,28
894,661,453,707,-6,-114,51
895,337,-88,650,-157,51,60
896,-89,457,453,113,142,-49
897,-289,784,1457,-110,8,-27
898,51,-71,217,-532,24,-49
899,181,152,1402,8,38,-20
900,136,-1012,39,-612,67,17
901,-170,647,1279,584,37,38
902,-347,-412,-53,-658,63,5
903,-378,98,1442,317,-37,-64
904,-41,-542,397,-373,-58,29
905,229,-249,1302,223,-62,-7
906,467,-96,1166,29,-27,-21
907,251,27,812,74,50,13
908,-162,246,1068,77,64,17
909,-414,-477,1029,-130,19,7
910,-508,-373,-114,264,-27,-54
911,-120,1294,1404,552,-151,-30
912,333,-250,253,-589,-91,27
913,466,446,1158,387,-36,63
914,160,549,1139,-176,23,59
915,217,195,763,-204,45,-15
916,13,-426,1199,-288,93,-23
917,-380,-609,46,-40,64,3
918,-33,383,1517,170,-44,35
919,-104,-508,161,-314,36,-5
920,70,183,1456,245,-30,-15
921,-27,-178,640,-207,4,33
922,-129,-332,1287,113,2,-11
923,-214,-751,-229,-34,-21,-41
924,-14,1249,1275,899,-99,8
925,236,-136,-54,-658,-41,40
926,165,651,1154,513,-26,-38
927,197,237,1022,-334,11,-7
928,64,-272,53,-151,28,-9
929,-143,757,1445,261,47,-9
930,-212,-33,677,-553,32,3
931,176,-238,1334,-22,-33,16
932,159,-351,643,-201,25,22
933,30,-286,1250,33,38,0
934,-107,-519,627,-135,35,36
935,-407,-313,1048,214,23,-3
936,-281,-944,-98,-105,-42,-54
937,-271,1333,1181,1356,-148,12
938,369,65,-115,-686,-104,77
939,117,275,814,573,-51,-25
940,294,716,1087,70,-55,-13
941,241,-160,285,-210,6,7
942,-22,655,941,326,63,1
943,-313,497,751,-377,31,-8
944,201,343,1162,-91,-23,10
945,290,349,662,-355,22,-4
946,231,348,1454,-187,91,-7
947,-147,-1156,609,-760,94,52
948,-410,-214,799,462,54,25
949,-260,-196,255,-324,5,-64
950,-342,-574,773,105,-47,-49
951,411,-220,987,112,-85,14
952,222,248,1300,234,-16,33
953,54,229,901,-5,19,-53
954,45,214,876,45,-4,-18
955,-187,351,978,29,27,20
956,-274,173,1058,-169,-7,11
957,196,-140,1147,-100,-56,-15
958,315,-153,881,-69,-2,3
959,146,-121,1090,-32,35,20
960,-71,-365,803,-108,52,30
961,-492,-414,640,25,36,10
962,-407,-26,812,195,-63,-21
963,189,267,1049,119,-90,-3
964,337,132,1132,1,-46,20
965,378,-174,636,-83,-2,31
966,17,243,1039,184,43,-24
967,-28,548,926,33,35,-31
968,-325,104,963,-244,41,-1
969,-267,-211,934,-145,-18,8
970,163,-284,1121,-44,-62,2
971,235,-529,755,-122,-5,13
972,242,-294,844,151,21,-7
973,-59,355,1019,220,44,25
974,-512,151,1030,-112,31,1
975,-237,-192,719,-55,-47,-23
976,63,293,1203,205,-78,10
977,419,79,1057,-155,-54,15
978,404,-197,951,-73,22,7
979,64,88,1022,76,64,-2
980,-309,98,1042,-75,52,16
981,-462,-228,719,-128,16,10
982,-275,-133,1005,69,-62,-9
983,247,-89,1160,14,-89,-17
984,455,-207,1020,-13,-27,6
985,289,-29,885,78,39,12
986,-54,316,1031,115,51,8
987,-432,86,1022,-104,48,31
988,-468,-165,677,-80,-21,-4
989,115,259,1279,191,-104,-39
990,349,-227,1351,-231,-45,33
991,352,-533,289,-46,16,39
992,171,507,1230,337,27,-30
993,-245,89,1079,-182,67,11
994,-488,-367,220,-198,31,34
995,-237,339,1312,334,-84,-34
996,303,16,1186,-209,-72,-3
997,352,-475,595,-130,-6,24
998,276,111,1132,259,16,-10
999,-63,87,554,-118,66,34
1000,-397,-21,715,-15,35,-12
1001,-365,257,1124,110,-29,-12
1002,30,-44,1005,-172,-70,1
1003,333,-265,1026,-32,-51,-8
1004,446,26,1098,90,4,8
1005,78,-37,954,-87,61,29
1006,-300,-706,449,-181,55,2
1007,-400,11,499,514,11,-11
1008,-353,836,831,89,-73,-7
1009,157,226,1142,-61,-128,29
1010,429,131,646,-109,-45,-6
1011,355,373,1264,109,12,9
1012,389,62,679,-308,35,32
1013,-269,-307,882,-144,120,28
1014,-474,-200,1011,-27,38,0
1015,-154,-496,885,-129,-52,-14
1016,-58,-324,961,119,-21,-9
1017,342,-50,1007,102,-52,11
1018,122,43,1019,83,13,20
1019,-181,244,985,91,33,-23
1020,-187,-168,1148,-34,-14,-8
1021,-243,-745,-252,-64,-63,-8
1022,-19,1161,931,904,-95,1
1023,353,161,174,-589,-50,26
1024,216,306,939,300,-16,-14
1025,-1,535,927,-90,39,-4
1026,70,145,535,-228,4,-17
1027,34,325,1131,-78,42,12
1028,-197,-329,851,-474,61,9
1029,311,-383,1205,44,-34,20
1030,-7,-845,930,-252,66,20
1031,-221,-727,-59,256,55,-13
1032,-241,718,1360,398,-41,47
1033,-507,47,395,-219,-22,15
1034,-66,536,1326,322,-100,-52
1035,300,193,886,-152,-112,-15
1036,660,238,1089,52,-47,46
1037,426,58,929,-201,74,56
1038,-20,197,1027,3,111,-7
1039,-427,-1008,472,-426,76,-10
1040,-547,290,651,584,23,5
1041,-245,242,822,-327,-90,18
1042,240,-230,886,67,-76,-9
1043,478,-66,1198,-17,-27,-19
1044,111,-135,578,16,24,3
1045,16,436,1297,189,27,-10
1046,-306,-233,519,-269,49,4
1047,-295,194,1156,217,-28,4
1048,147,115,1175,-152,-63,4
1049,260,-219,919,-51,-7,-11
1050,244,59,1016,49,7,12
1051,-30,56,956,-63,49,33
1052,-409,-213,941,-105,41,-7
1053,-281,-227,820,35,-31,-19
1054,68,62,1151,79,-74,11
1055,373,-39,1027,-24,-40,9
1056,343,-16,1003,16,17,-3
1057,-16,163,1051,48,58,5
1058,-329,-617,569,-264,49,8
1059,-573,69,189,652,5,-17
1060,-66,1080,867,190,-152,37
1061,28,-139,31,-343,-57,18
1062,394,758,1124,282,-68,-56
1063,513,17,956,-381,-22,62
1064,325,109,278,-26,93,42
1065,-240,349,1387,-99,112,2
1066,-359,-596,481,-442,50,1
1067,-104,-466,1027,68,-16,35
1068,-193,-277,982,5,-6,-7
1069,262,-454,974,-12,-41,-22
1070,-3,-161,848,163,15,34
1071,-480,-172,962,40,3,25
1072,-171,-199,421,354,-72,90
1073,17,744,457,331,-158,-15
1074,210,52,349,4,-62,-6
1075,471,856,1054,296,-48,-62
1076,371,45,1143,-303,8,9
1077,144,130,58,34,105,-1
1078,-381,837,1254,95,82,-23
1079,-301,317,455,-471,34,-68
1080,100,-13,1393,-279,-4,-12
1081,121,-332,997,-292,17,39
1082,208,-496,1070,-165,12,28
1083,-55,-727,861,-143,81,-2
1084,-178,-326,829,133,48,-18
1085,-486,-428,575,-26,11,25
1086,-352,-549,963,138,-79,-30
1087,286,-55,852,265,-126,-9
1088,139,263,831,245,-43,6
1089,262,605,1148,231,-64,-27
1090,237,275,984,-76,-12,-9
1091,-148,-294,396,-102,73,42
1092,-318,423,810,191,8,53
1093,63,672,1072,-45,-71,13
1094,308,283,1161,-221,-10,-12
1095,406,-42,850,-229,47,-18
1096,13,-287,806,-287,76,56
1097,-192,-464,699,-80,79,32
1098,-466,-291,859,5,35,-10
1099,-492,-958,577,-183,-31,11
1100,313,-138,883,439,-108,-15
1101,274,593,1491,233,-36,1
1102,207,-142,483,-233,4,-18
1103,46,284,1176,284,5,-25
1104,-265,571,998,29,30,-6
1105,-108,144,817,-224,-18,20
1106,64,-60,1214,-80,-18,6
1107,279,-227,937,-157,-21,15
1108,223,-297,929,-18,24,3
1109,-55,-89,991,20,59,28
1110,-440,-234,781,-69,33,34
1111,-339,-194,911,113,-30,-22
1112,-203,-65,676,13,-82,9
1113,381,-19,1076,142,-87,-23
1114,422,226,1178,128,-44,5
1115,195,-11,658,-80,24,45
1116,-74,294,853,109,54,-12
1117,-263,356,1162,-18,30,-33
1118,-155,-48,588,-218,2,10
1119,-12,32,1288,-2,-26,12
1120,313,-175,1061,-121,-36,3
1121,230,-328,770,-105,36,20
1122,-81,-104,971,81,60,3
1123,-308,23,1045,17,14,15
1124,-424,-243,751,-96,-7,-3
1125,-73,-76,1042,145,-74,-22
1126,396,62,1124,37,-83,8
1127,414,1,970,9,6,17
1128,196,-551,509,-188,33,-11
1129,-102,56,561,596,51,-59
1130,-429,634,661,25,23,-59
1131,-408,311,945,146,-76,5
1132,-28,429,484,-145,-82,10
1133,184,536,1343,33,-67,58
1134,734,109,676,-378,-53,53
1135,305,-67,819,-95,76,70
1136,-22,74,1088,-144,134,2
1137,-288,-898,714,-412,46,1
1138,-430,-499,757,179,46,31
1139,-246,-285,998,-15,-44,-29
1140,171,-398,1041,127,-68,-2
1141,120,104,920,199,-15,23
1142,-95,85,1288,181,-11,-24
1143,-101,-1020,-211,-183,-48,-26
1144,-327,1046,731,1206,-82,-7
1145,176,194,-75,-503,-64,28
1146,203,418,1048,513,-98,-3
1147,222,618,958,-66,-19,-8
1148,216,51,584,-129,21,-15
1149,36,484,938,148,26,-2
1150,-260,343,486,-319,65,-24
1151,-54,534,1362,-59,13,12
1152,293,-260,933,-602,4,21
1153,85,-808,-78,-170,67,47
1154,47,1233,1198,542,39,24
1155,-152,-406,-74,-841,69,-44
1156,-337,-284,904,107,28,-24
1157,-359,-327,652,-169,-20,33
1158,127,-459,1158,16,-87,-41
1159,380,-476,855,17,-24,1
1160,258,-12,956,219,22,18
1161,-22,247,1176,93,33,7
1162,-345,232,768,24,37,5
1163,-393,312,982,20,-22,-13
1164,-14,165,1080,-61,-86,-3
1165,464,-604,1087,-211,-53,12
1166,296,-351,-108,220,22,-12
1167,132,1000,1296,406,4,-4
1168,-259,-149,55,-478,52,-5
1169,-342,594,961,334,21,-82
1170,-192,-519,804,-496,-41,1
1171,141,-56,639,290,-59,22
1172,369,350,973,-105,-28,36
1173,220,-325,710,-161,36,21
1174,60,-41,1149,64,47,0
1175,-320,84,754,1,51,19
1176,-503,-95,1060,-84,-6,-17
1177,-42,-268,873,-18,-82,-13
1178,353,32,1080,124,-55,16
1179,338,73,1023,-25,-6,12
1180,265,28,1025,-14,37,-5
1181,-233,101,948,16,69,3
1182,-454,120,953,-49,15,6
1183,-228,-140,881,-104,-49,4
1184,102,-90,1102,39,-64,-10
1185,433,-145,1082,-47,-43,-3
1186,340,-115,971,21,30,9
1187,68,-1064,265,-233,63,11
1188,-548,771,740,1037,60,10
1189,-429,681,286,-365,-56,7
1190,-449,-15,320,104,-107,-48
1191,386,862,1145,163,-117,-67
1192,531,0,1046,-388,-80,83
1193,633,157,532,26,44,69
1194,-84,-46,928,-263,117,65
1195,-114,-349,724,-126,84,3
1196,-154,-171,590,-123,11,-28
1197,-501,-81,834,91,45,6
1198,142,-341,941,-199,-74,-20
1199,128,-260,860,154,-11,29
1200,-14,243,1098,90,15,-15
1201,-35,-232,807,-122,-17,-2
1202,-163,107,1065,179,-6,6
1203,1,140,999,-31,-35,-13
1204,324,8,1141,-1,-38,6
1205,252,83,890,-28,29,17
1206,-9,181,1163,11,50,3
1207,18,-496,318,-406,11,-40
1208,-273,-79,773,602,67,-16
1209,-338,464,72,-19,-85,77
1210,-340,724,1288,295,-130,-10
1211,718,36,548,-454,-52,-103
1212,353,-184,893,59,-23,63
1213,354,502,642,94,48,48
1214,-114,119,1173,-314,92,25
1215,-356,-486,533,-189,79,-13
1216,-232,-354,935,-18,-34,-1
1217,-167,-181,1358,93,-6,-2
1218,302,-455,656,-140,-56,-4
1219,75,38,1041,309,6,18
1220,-43,311,1128,25,15,-2
1221,-173,-277,972,-75,-4,3
1222,-257,-157,299,1,-32,41
1223,120,305,976,274,-67,-22
1224,409,530,1179,71,-67,-15
1225,248,60,574,-284,46,9
1226,35,195,1171,86,74,-21
1227,-218,-76,1029,-250,34,12
1228,-470,-497,385,-193,19,70
1229,-93,-262,1009,130,-47,-55
1230,286,5,1262,105,-69,-23
1231,261,-414,689,-181,3,46
1232,53,-10,841,294,43,-6
1233,-124,488,1110,104,0,-15
1234,-372,-34,709,-164,15,17
1235,-172,96,1011,78,-43,-11
1236,219,184,1270,4,-84,-4
1237,435,-143,897,-141,-11,25
1238,246,-59,939,-2,46,16
1239,-53,45,1065,1,57,4
1240,-406,-82,906,-92,50,3
1241,-456,-220,904,-28,-17,-1
1242,-72,-227,964,16,-83,1
1243,377,-23,1056,114,-72,-9
1244,436,167,1113,63,-9,-2
1245,168,141,958,-17,49,10
1246,-197,200,986,-12,62,-2
1247,-427,69,932,-89,22,7
1248,-254,-178,895,-111,-43,5
1249,138,-230,1080,-1,-69,-15
1250,404,-135,1062,33,-33,0
1251,377,-362,1066,-38,31,14
1252,8,-571,213,98,37,-51
1253,-400,405,1169,668,49,-76
1254,-452,433,393,-84,-80,-37
1255,-170,324,713,158,-102,-6
1256,16,496,592,43,-71,27
1257,472,572,958,-93,-128,51
1258,489,14,721,-247,-1,97
1259,168,359,567,-88,88,11
1260,172,320,1451,-201,76,-16
1261,-158,-850,310,-587,104,14
1262,-141,-343,1173,170,33,34
1263,-194,-486,820,-209,25,9
1264,-129,-1210,180,-63,18,34
1265,-317,181,998,557,-40,53
1266,-129,400,767,46,-64,-60
1267,-114,277,1167,137,-70,-37
1268,226,149,660,-32,-92,-26
1269,452,388,1284,165,-63,20
1270,461,297,928,-149,33,42
1271,185,-402,1067,-186,102,27
1272,-397,-748,174,135,70,55
1273,-539,1397,1250,998,-24,-16
1274,-269,-244,-334,-792,-71,-104
1275,233,282,704,429,-122,-63
1276,219,775,869,28,-31,55
1277,353,240,349,-309,-26,47
1278,216,204,1055,-44,17,40
1279,61,274,390,-235,94,-32
1280,75,180,1460,-185,72,8
1281,-275,-963,267,-545,65,23
1282,78,-218,1365,246,7,-4
1283,-113,-429,754,-257,42,7
1284,-71,-502,751,83,21,13
1285,-392,-201,824,118,-4,43
1286,-311,1,1184,169,-70,-55
1287,98,65,1134,107,-94,-16
1288,250,10,784,77,-69,13
1289,575,-762,312,-122,-35,-10
1290,66,744,943,767,29,-21
1291,-30,326,293,-358,10,-26
1292,-413,118,663,234,21,-75
1293,-149,352,674,-71,-6,-58
1294,-109,-66,768,-192,-53,40
1295,352,471,1085,67,-39,70
1296,58,121,908,-312,24,46
1297,401,125,1034,-26,3,-27
1298,97,-268,758,-307,78,15
1299,-398,-285,1084,-69,98,16
1300,-257,-587,932,-155,-27,13
1301,-141,-385,907,122,-7,-26
1302,140,-96,1116,110,-48,-3
1303,259,-113,814,39,-13,41
1304,-125,309,1142,207,24,-8
1305,-235,281,984,-29,-3,-39
1306,-70,142,954,-19,-45,-7
1307,130,113,946,-55,-35,19
1308,357,82,1156,-44,-19,36
1309,256,-72,1085,-128,34,4
1310,-75,-162,911,-62,70,-5
1311,-242,-296,1020,-41,43,27
1312,-460,-990,-132,-127,3,19
1313,-453,1109,922,979,-98,4
1314,206,211,38,-519,-104,-1
1315,222,383,1081,395,-100,-66
1316,483,431,1032,-143,-32,-8
1317,257,-29,495,-134,28,30
1318,96,536,1050,114,78,16
1319,-225,118,934,-428,90,-9
1320,-109,-704,798,-221,24,24
1321,14,-419,478,47,10,38
1322,-44,220,1161,148,17,-47
1323,-67,-399,516,-253,10,29
1324,-260,-88,999,172,-6,7
1325,-191,98,1097,64,-39,-22
1326,125,-85,914,-42,-60,-18
1327,335,-73,1007,51,-43,17
1328,394,275,1198,126,11,15
1329,80,177,1009,-113,59,1
1330,-294,62,905,-45,63,-5
1331,-434,79,903,-62,12,8
1332,-310,-156,960,-103,-52,-5
1333,149,-373,975,-64,-78,-22
1334,501,-445,463,-115,-52,-38
1335,156,-329,755,413,96,-50
1336,-335,583,156,250,27,73
1337,-611,645,1036,228,-36,-12
1338,-106,131,158,-259,-18,-160
1339,-259,324,1229,155,-83,-16
1340,561,372,733,-191,-75,55
1341,377,155,1292,-186,6,100
1342,369,-72,467,-164,82,-9
1343,82,-129,1266,-164,67,20
1344,-530,-543,774,-211,116,49
1345,-403,-742,576,-57,-7,-11
1346,-427,-679,697,109,-51,0
1347,334,60,872,359,-110,-2
1348,170,528,1275,249,-50,26
1349,90,194,570,-104,-7,-60
1350,58,229,1401,146,-36,-58
1351,-2,168,521,-114,12,-8
1352,8,153,1007,6,7,34
1353,237,344,1083,-37,-3,36
1354,141,-78,1104,-262,51,-9
1355,33,-146,831,-27,51,-2
1356,-251,-56,1065,-101,37,23
1357,-441,-509,653,-168,21,22
1358,-295,-367,935,117,-58,-22
1359,140,-248,1116,75,-86,-27
1360,458,-98,1065,142,-51,7
1361,288,190,1019,136,10,11
1362,42,390,1042,99,30,-1
1363,-234,325,918,-52,47,-23
1364,-349,209,928,-74,9,-27
1365,-86,78,1099,-106,-50,9
1366,331,-566,600,-241,-43,32
1367,250,-388,437,150,23,-1
1368,122,453,1061,195,32,-13
1369,-269,211,1073,-67,42,36
1370,-420,-147,582,-183,8,-11
1371,-47,-328,1156,98,-72,-16
1372,22,-322,-34,-117,-38,-31
1373,259,492,1308,434,-44,31
1374,156,402,668,-80,8,33
1375,10,238,521,-94,24,-1
1376,-210,297,1121,18,31,-57
1377,-84,-83,774,-277,-13,-8
1378,-14,-324,957,-71,-19,71
1379,115,-263,969,-46,-16,-15
1380,315,-366,1116,-3,-4,-16
1381,7,-208,746,45,62,39
1382,-283,142,1025,147,18,15
1383,-396,64,969,-8,-6,-3
1384,-207,27,908,30,-59,-17
1385,231,153,1206,71,-94,-7
1386,518,25,1015,-57,-32,11
1387,345,-827,377,-205,42,29
1388,-170,424,865,545,71,-11
1389,-331,656,609,-167,22,-43
1390,-479,48,668,-74,-11,-51
1391,-24,280,1125,-38,-57,-40
1392,204,-1085,805,-388,-73,67
1393,370,182,389,628,-12,69
1394,59,887,906,-82,16,-13
1395,23,-228,478,-194,49,-55
1396,-211,322,794,68,13,-20
1397,-376,294,1261,-25,6,-7
1398,285,-292,643,-326,-73,24
1399,210,-244,1009,72,2,34
1400,206,-29,1192,-21,30,-1
1401,12,-419,817,-149,41,14
1402,-486,-76,892,172,49,7
1403,-320,60,939,27,-43,-9
1404,-35,-112,1043,5,-76,6
1405,318,43,1041,95,-61,-13
1406,421,188,1174,63,-15,-3
1407,253,-233,1154,-74,44,10
1408,-296,-978,-229,-67,56,10
1409,-467,1430,1524,986,-11,-5
1410,-346,-16,-148,-757,-44,-33
1411,1,299,1084,374,-108,-29
1412,360,710,1280,-92,-70,44
1413,484,89,817,-292,-12,57
1414,408,123,1109,-100,62,28
1415,-91,-151,822,-291,129,5
1416,-334,-490,1261,-147,56,25
1417,-353,-1367,2,-208,20,17
1418,-256,268,1482,612,-35,-28
1419,210,-182,553,-298,-64,14
1420,63,246,1118,387,-18,14
1421,-95,566,1168,25,-25,-60
1422,21,86,787,-104,-39,-40
1423,130,82,1024,-3,-9,21
1424,142,-228,679,-191,6,49
1425,297,300,1422,225,2,20
1426,88,-999,453,-500,73,-38
1427,-364,639,724,853,50,-5
1428,-268,578,487,-420,-44,39
1429,-385,-88,495,-1,-30,-36
1430,141,523,1379,44,-66,-75
1431,454,-419,730,-363,-62,67
1432,456,40,1009,158,30,41
1433,111,-51,1128,-167,69,-3
1434,-236,-346,762,-76,82,26
1435,-609,-194,777,-1,26,20
1436,-410,-73,1096,114,-59,-26
1437,206,-223,939,-52,-103,-12
1438,401,28,1095,188,-50,7
1439,483,-163,1188,-9,0,-7
1440,-72,-541,-3,-22,62,-44
1441,-327,968,1140,669,15,-34
1442,-375,9,-181,-451,-36,6
1443,-204,637,1041,395,-62,-59
1444,198,522,1203,-291,-63,21
1445,582,-158,699,-305,-41,61
1446,370,286,1277,79,67,50
1447,-71,-27,846,-357,105,9
1448,-204,-668,1044,-224,51,19
1449,-617,-955,297,-152,48,66
1450,-340,-600,438,383,-77,26
1451,422,299,560,252,-119,-72
1452,26,411,822,245,-6,-20
1453,127,405,856,-6,-46,-41
1454,25,126,1027,48,-10,-8
1455,-69,364,547,67,14,9
1456,-16,506,1094,-63,-26,49
1457,367,284,1268,-238,11,10
1458,322,-141,968,-270,64,5
1459,-9,-47,1009,-62,66,31
1460,-242,-350,1054,-266,81,19
1461,-469,-610,602,-94,39,16
1462,-449,-671,512,13,-40,-40
1463,-34,-525,953,215,-88,-24
1464,477,183,1110,315,-97,11
1465,135,268,1080,91,-25,16
1466,112,377,893,139,0,-57
1467,-24,348,1087,2,-7,-52
1468,-142,163,566,-46,17,1
1469,54,55,648,-158,5,25
1470,79,-103,817,-78,-2,-1
1471,358,315,624,52,5,23
1472,-40,326,1436,-92,64,33
1473,-240,-467,499,-400,51,8
1474,-369,-591,947,45,0,19
1475,-371,-554,526,-87,-32,27
1476,319,-481,651,217,-103,-55
1477,411,507,1295,422,-25,21
1478,76,248,674,-194,26,15
1479,29,199,1147,153,13,-45
1480,-228,448,745,-12,25,-37
1481,-235,145,1092,-116,-6,10
1482,6,-239,971,-248,-29,38
1483,320,-151,927,79,-37,-1
1484,258,78,1307,-18,17,10
1485,25,-566,775,-235,65,6
1486,-268,-257,703,141,28,70
1487,-547,-33,891,88,-1,-5
1488,-136,58,1011,135,-82,-45
1489,213,96,789,9,-89,-4
1490,308,70,1190,89,-52,23
1491,356,157,1020,23,4,6
1492,14,34,712,-65,40,4
1493,-174,221,1024,62,45,-10
1494,-231,142,1111,-124,32,1
1495,-67,-124,915,-130,-38,8
1496,224,-20,1100,26,-23,-7
1497,228,-210,1026,-145,18,13
1498,11,-235,844,12,35,20
1499,-265,62,1010,58,39,1
1500,-389,-42,965,-41,-7,-13
1501,-112,-229,844,-34,-70,-5
1502,285,31,1143,133,-65,-2
1503,482,-334,1115,-96,-26,13
1504,30,-218,158,168,49,-41
1505,-124,745,996,521,14,-51
1506,-366,311,551,-62,-17,-18
1507,-295,242,532,40,-27,-25
1508,-187,597,1067,152,-72,2
1509,447,458,901,-301,-115,42
1510,564,-14,989,-210,17,99
1511,299,266,698,-113,90,15
1512,54,-84,1413,-273,87,3
1513,-335,-869,307,-348,111,35
1514,-473,-354,1154,123,15,14
1515,-310,-601,700,-87,-42,-32
1516,143,-473,1078,175,-69,-25
1517,100,-892,683,32,-51,22
1518,-198,84,13,956,-28,-56
1519,-68,947,667,409,-149,-61
1520,-55,-385,3,68,-48,-19
1521,-13,748,638,570,-116,4
1522,139,479,1039,118,-109,57
1523,515,279,404,7,-32,28
1524,51,308,774,176,11,15
1525,17,525,538,42,25,-50
1526,-110,342,1173,-135,16,-28
1527,-9,148,381,-201,24,-36
1528,61,654,1343,-59,11,23
1529,208,405,1017,-418,42,45
1530,180,-1083,200,-654,61,-16
1531,-86,877,996,659,87,-32
1532,-33,271,118,-893,44,-29
1533,-303,101,635,-103,65,-20
1534,15,111,1425,-489,37,-22
1535,226,-1293,598,-464,-22,61
1536,137,-336,1047,165,58,22
1537,-189,-1434,184,-294,68,-64
1538,-55,467,987,887,27,-47
1539,-755,-105,306,-380,-37,-27
1540,-106,397,1294,547,-118,8
1541,76,410,760,-190,-107,5
1542,153,210,876,184,-92,-44
1543,781,568,1300,-2,-66,-2
1544,178,-682,721,-419,74,15
1545,-103,140,428,326,119,-32
1546,-217,730,1457,-43,19,-14
1547,-131,-340,334,-385,29,3
1548,-10,38,1275,90,-16,26
1549,4,-312,895,-213,10,3
1550,73,-312,1009,18,-4,7
1551,-287,-165,749,17,29,6
1552,-138,-614,835,-19,-37,-18
1553,-79,-382,58,290,-39,-17
1554,179,944,1132,446,-88,25
1555,151,56,433,-263,-43,12
1556,192,594,1117,308,-5,-56
1557,24,98,779,-270,11,-10
1558,18,227,646,57,23,-9
1559,-138,259,1293,-229,46,3
1560,-37,-189,894,-214,0,3
1561,352,-44,1048,-35,-15,30
1562,-13,-108,1094,-137,63,19
1563,-72,-542,800,-192,39,18
1564,-335,-368,745,82,25,33
1565,-459,-120,1110,113,-19,-31
1566,-18,-1174,22,-189,-81,-55
1567,38,949,983,1052,-99,14
1568,399,405,406,-358,-104,47
1569,149,194,893,340,4,-23
1570,19,523,864,45,8,-51
1571,-55,47,596,-87,-13,-15
1572,37,614,951,134,24,9
1573,-155,440,936,-352,18,18
1574,371,292,1322,-155,-11,26
1575,403,-9,877,-383,63,28
1576,-102,-196,1117,-164,102,34
1577,88,-1172,67,-475,78,-57
1578,-755,30,535,619,56,48
1579,-274,193,105,-130,-98,40
1580,-79,117,1493,245,-101,-36
1581,457,-79,405,-81,-88,-27
1582,187,494,1038,328,-63,16
1583,248,341,943,-119,25,-43
1584,34,-8,467,-152,15,2
1585,-19,231,1090,61,66,30
1586,-124,101,1169,-227,22,22
1587,123,-233,1034,-94,-9,-10
1588,52,-223,763,-94,39,13
1589,-157,-132,1114,17,25,29
1590,-246,-392,719,-118,0,20
1591,-387,-240,953,133,-19,-45
1592,81,-46,1150,117,-89,-16
1593,414,-29,914,51,-62,31
1594,322,243,1145,152,11,9
1595,150,357,1048,14,31,-17
1596,-77,-220,263,-458,69,-81
1597,-238,-130,1373,785,-16,-3
1598,51,-130,-417,-376,-95,167
1599,-609,1071,679,1002,-123,16
1600,449,951,614,-427,-95,-219
1601,541,-797,620,-444,-74,59
1602,349,671,557,462,65,-29
1603,-219,967,1401,-78,57,-17
1604,7,-199,-164,-647,17,-48
1605,317,-126,892,-67,46,-43
1606,-210,156,1383,-131,98,21
1607,115,-1043,397,-506,21,27
1608,-217,-226,1144,324,61,15
1609,-189,184,934,-75,40,-34
1610,-343,-883,93,-248,-7,43
1611,-457,-204,1136,327,-84,-17
1612,345,81,1608,176,-128,-36
1613,252,-240,446,-59,-37,6
1614,302,415,1058,392,-31,-17
1615,274,578,1405,11,-4,26
1616,-229,86,427,-181,87,2
1617,-387,370,1254,97,19,-35
1618,112,-241,385,-458,-47,-17
1619,138,-650,333,46,-1,4
1620,243,870,986,429,5,40
1621,14,88,1084,-385,25,20
1622,-131,-568,174,-123,43,-4
1623,-376,284,1002,178,11,-12
1624,-170,-390,882,-273,-54,11
1625,194,-501,729,50,-58,-19
1626,334,105,1274,267,-19,1
1627,286,140,1037,-38,18,18
1628,-59,16,802,-1,58,10
1629,-420,-122,964,46,28,20
1630,-261,-272,-282,-100,-6,60
1631,-105,616,827,408,-140,26
1632,450,409,942,-12,-87,-5
1633,500,83,426,-170,-31,41
1634,243,312,923,129,55,-41
1635,150,328,851,-223,68,-20
1636,-265,-371,646,-288,99,41
1637,-554,-191,895,5,24,3
1638,-121,-305,1225,-74,-56,-22
1639,150,-520,688,-51,-29,-6
1640,263,-84,1082,195,-33,15
1641,128,31,1047,56,24,22
1642,-286,104,947,58,34,-18
1643,-246,-31,901,36,-34,-7
1644,-36,-81,464,-41,-37,11
1645,256,345,1166,233,-67,10
1646,338,357,1046,-54,-17,12
1647,136,215,912,-130,55,-13
1648,-94,-46,1000,-142,50,-18
1649,-285,-145,789,-112,27,22
1650,-308,-320,1069,-96,-15,20
1651,29,-493,868,-36,-55,-29
1652,324,-229,1091,141,-39,2
1653,224,-391,1126,51,26,26
1654,-147,-808,-74,98,-3,-18
1655,-438,1076,869,939,-30,-32
1656,-273,77,70,-404,-55,-38
1657,-64,337,984,458,-131,-10
1658,209,633,868,48,-74,41
1659,490,298,698,-140,-67,60
1660,346,276,878,-21,21,51
1661,35,349,552,-168,93,-28
1662,-56,531,1311,-85,43,-36
1663,27,72,395,-536,62,-43
1664,-24,-109,1668,-187,83,2
1665,3,-708,473,-428,24,45
1666,30,-411,1289,83,44,12
1667,-236,-408,834,-147,81,-1
1668,-319,-564,428,-10,-2,9
1669,-454,-459,828,144,-58,4
1670,17,-564,1503,177,-107,-48
1671,254,-947,-24,97,-90,-3
1672,114,967,1288,917,-85,0
1673,303,424,916,-124,-44,-24
1674,-21,-32,501,222,-8,-32
1675,-256,584,922,337,-1,-24
1676,-82,510,1015,-74,-54,-1
1677,209,320,1208,-72,-44,35
1678,179,-49,916,-218,13,32
1679,160,193,804,3,11,9
1680,195,455,938,-66,24,-21
1681,-114,61,602,-312,87,-43
1682,-146,575,1003,-77,55,-32
1683,17,-170,1586,-583,35,32
1684,94,-931,286,-246,31,12
1685,145,2,1368,108,18,18
1686,-135,-703,565,-334,79,4
1687,-147,-434,867,142,32,23
1688,-629,-321,608,39,-5,27
1689,-197,-211,1303,193,-106,-67
1690,314,57,1188,180,-103,12
1691,213,196,806,129,-50,26
1692,359,492,1309,174,-38,-21
1693,161,-710,189,-320,37,-46
1694,-298,399,892,604,57,-46
1695,-188,518,425,-231,-42,9
1696,-195,342,730,103,-35,-11
1697,265,665,1100,-137,-26,-22
1698,417,-248,933,-458,1,51
1699,253,88,928,57,78,43
1700,-264,-181,1020,-317,82,10
1701,-283,-726,774,-169,48,-2
1702,-309,-505,672,43,-11,15
1703,-153,-410,1064,108,-53,-17
1704,353,-330,1159,116,-64,-25
1705,93,183,1011,264,2,9
1706,-256,-129,493,-81,-2,9
1707,-158,-44,638,308,-38,19
1708,-29,454,466,162,-71,3
1709,-21,491,689,197,-73,4
1710,382,737,1162,-62,-55,-43
1711,405,-151,858,-383,13,14
1712,330,353,695,118,78,9
1713,-164,580,1531,-206,108,4
1714,-419,-529,757,-531,89,-13
1715,-231,-653,728,-74,-15,23
1716,-160,-342,1101,60,-23,9
1717,213,-681,864,-119,-34,-28
1718,152,-386,960,228,1,20
1719,-136,172,1031,227,14,1
1720,-185,2,765,-1,-10,-15
1721,-252,208,651,204,-53,-16
1722,93,579,1061,122,-77,2
1723,345,333,1167,-92,-55,13
1724,390,112,824,-139,10,-5
1725,245,199,1020,-45,67,6
1726,-177,3,1131,-217,92,27
1727,-478,-474,785,-227,43,12
1728,-321,-403,932,41,-25,-13
1729,26,-391,1036,6,-65,-13
1730,391,-645,537,-27,-41,12
1731,116,43,800,373,13,14
1732,-110,805,1217,241,14,-11
1733,-242,184,791,-195,-10,-28
1734,-118,160,735,42,-28,-23
1735,102,222,981,-55,-36,37
1736,329,-480,956,-325,-10,46
1737,373,51,277,246,14,-19
1738,-68,666,1553,124,68,7
1739,-311,-625,164,-559,59,5
1740,-407,-163,1109,247,-17,36
1741,-295,-34,874,-77,-38,-36
1742,346,-504,1102,-61,-100,-32
1743,416,-162,768,167,-7,33
1744,179,472,1275,217,25,19
1745,-81,90,959,-162,42,-8
1746,-481,-344,613,-47,51,17
1747,-342,26,230,116,-61,57
1748,244,490,930,155,-112,-46
1749,485,125,1268,-99,-33,-2
1750,371,-44,548,-146,15,27
1751,33,29,1091,55,77,-7
1752,-232,-206,103,-222,70,40
1753,-417,-33,876,107,-1,-6
1754,-361,-285,798,-98,-29,6
1755,227,-290,558,47,-89,-19
1756,421,248,1104,215,-38,-29
1757,251,30,990,-107,28,49
1758,-76,-130,528,-22,50,11
1759,-377,545,1245,224,29,-50
1760,-196,-94,890,-305,-26,19
1761,36,-232,788,-8,-49,9
1762,328,209,1245,114,-42,-13
1763,355,-156,952,-195,28,24
1764,-90,-250,792,-36,60,8
1765,-341,53,1066,123,32,-4
1766,-239,-851,487,-257,-5,-1
1767,-314,422,743,696,-86,-5
1768,352,587,690,-109,-108,0
1769,270,178,1060,47,-44,16
1770,252,380,680,-15,-10,-30
1771,124,354,951,-42,34,-23
1772,105,1,645,-257,69,44
1773,-388,-121,934,-148,51,27
1774,6,-269,1144,-75,-22,-13
1775,114,-467,713,-135,15,5
1776,-62,-245,1021,110,11,15
1777,24,-164,890,23,6,30
1778,-375,-87,971,77,12,-5
1779,-224,32,1037,131,-55,-38
1780,-43,-1271,125,-205,-96,-24
1781,-64,1179,726,1585,-110,23
1782,427,242,238,-656,-113,32
1783,-27,102,535,603,29,8
1784,-35,680,468,133,-36,-47
1785,-168,174,796,86,-71,-51
1786,173,412,382,91,-8,3
1787,-36,357,577,-142,-22,27
1788,296,671,1139,68,-20,43
1789,283,246,555,-456,32,17
1790,123,218,951,-46,65,-37
1791,-38,473,686,-365,86,-50
1792,-157,268,1065,-410,104,-22
1793,-98,-347,1460,-582,58,12
1794,33,-1310,61,-332,15,24
1795,-140,1250,1442,1143,30,25
1796,-139,-567,-134,-930,12,-8
1797,-186,258,1090,552,-1,47
1798,-497,389,461,-240,-16,-21
1799,17,128,1115,121,-115,-82
1800,576,-284,629,-241,-75,19
1801,420,155,884,232,9,78
1802,320,364,1363,-85,66,39
1803,-257,-333,595,-278,106,-29
1804,-478,36,1004,162,34,-4
1805,-463,22,846,-129,-36,14
1806,-32,-1088,767,-226,-81,-7
1807,321,-30,144,635,-65,-30
1808,244,1012,1110,198,-52,-5
1809,173,-267,343,-268,4,-14
1810,-1,495,951,363,9,-46
1811,-330,370,869,-103,28,-2
1812,-1,425,752,-82,-23,9
1813,175,-277,1113,-333,-11,37
1814,268,-126,349,82,28,16
1815,261,499,1291,-41,16,22
1816,-250,-441,536,-387,104,4
1817,-339,-329,983,15,23,12
1818,-454,-402,739,-50,-28,25
1819,49,-284,1214,111,-86,-55
1820,361,-293,948,35,-52,7
1821,373,-223,998,179,2,9
1822,-41,-575,5,-41,48,-39
1823,-344,837,960,736,-15,-30
1824,-308,77,-114,-365,-32,-14
1825,-238,529,1013,433,-73,-76
1826,252,623,1180,-174,-95,20
1827,465,-48,544,-322,-27,89
1828,368,627,1361,137,47,72
1829,92,146,720,-488,81,1
1830,-11,-359,1174,-195,96,-11
1831,-448,-681,591,-291,66,39
1832,-647,-1145,411,-119,-16,61
1833,63,-85,688,736,-104,38
1834,207,354,217,-23,-43,-103
1835,1,155,758,273,-47,-37
1836,73,552,909,128,-14,-47
1837,-176,156,993,5,-13,22
1838,70,404,441,115,-44,17
1839,181,559,1240,-74,-26,47
1840,359,386,1048,-221,27,13
1841,295,49,1044,-324,60,-5
1842,-103,31,1000,-112,114,5
1843,-347,-428,966,-376,61,23
1844,-381,-778,726,-93,12,21
1845,-247,-540,802,41,-24,-53
1846,97,-597,1078,97,-69,-44
1847,365,-361,622,127,-40,7
1848,-75,-205,393,272,18,1
1849,-246,703,697,489,-45,-25
1850,-234,441,1144,137,-88,-21
1851,0,146,210,-5,-57,-55
1852,205,593,1453,211,-82,47
1853,566,289,687,-250,-23,71
1854,154,425,1212,3,51,52
1855,-19,417,753,-228,78,-48
1856,16,50,999,-288,40,-69
1857,-136,-511,699,-447,86,0
1858,-228,-768,731,-84,30,8
1859,93,23,1192,220,-20,15
1860,-75,-425,783,-277,24,-1
1861,-26,-446,654,156,11,36
1862,-292,179,1068,158,-11,17
1863,-288,-234,1179,-22,-46,-29
1864,89,-186,622,86,-72,-5
1865,283,517,1176,345,-77,5
1866,401,251,1176,-119,-29,46
1867,120,28,612,-67,61,-8
1868,-107,456,1180,119,43,-46
1869,-168,70,847,-269,26,7
1870,-235,-125,928,-121,18,24
1871,19,-193,1136,-76,-45,-3
1872,279,-386,1007,-81,-13,4
1873,116,-320,942,8,32,10
1874,-60,-102,887,98,26,19
1875,-362,15,977,51,23,10
1876,-334,2,894,53,-32,-18
1877,78,113,1134,83,-87,-9
1878,322,56,1100,5,-49,12
1879,367,75,912,11,-10,20
1880,163,171,1020,22,40,-2
1881,-151,218,998,-51,72,-13
1882,-364,20,923,-141,28,-3
1883,-254,-177,1037,-80,-35,17
1884,83,-324,933,-78,-54,-11
1885,365,-185,1042,68,-30,-10
1886,253,-71,1031,24,24,29
1887,-112,-30,930,21,55,9
1888,-379,51,961,50,23,-2
1889,-337,103,881,25,-34,3
1890,56,-94,1169,-7,-76,-6
1891,286,-506,328,-126,-67,-53
1892,-52,496,1141,835,22,-26
1893,61,528,442,-240,-10,40
1894,-119,-3,657,44,0,8
1895,-420,547,544,139,18,-31
1896,-12,643,978,-121,-75,-38
1897,565,-84,939,-373,-62,60
1898,340,-47,714,-142,88,36
1899,214,139,1407,-37,61,22
1900,-59,-668,394,-466,87,36
1901,-486,-338,1028,132,101,32
1902,-602,-380,514,-118,-5,-4
1903,-279,-725,898,58,-108,-53
1904,308,-49,1428,351,-105,-9
1905,332,130,981,78,-52,12
1906,181,132,936,145,-22,-39
1907,-12,-762,484,-128,5,-25
1908,-251,321,376,945,13,23
1909,-216,863,513,-82,-47,0
1910,-64,61,578,120,-109,-9
1911,327,750,885,191,-80,-67
1912,203,101,987,-199,-1,8
1913,325,340,567,60,7,18
1914,-205,395,1043,-186,56,26
1915,-43,-198,747,-229,64,-13
1916,-165,-566,-389,-317,-17,30
1917,81,1335,1173,685,10,13
1918,139,63,-24,-885,39,-12
1919,170,189,1000,91,24,-68
1920,-95,52,1170,-379,105,-33
1921,-323,-824,666,-373,28,34
1922,-129,-686,874,42,-30,27
1923,-65,-480,920,54,-4,-49
1924,271,-420,1037,113,-35,-4
1925,63,-159,715,132,6,41
1926,-229,490,1317,326,21,-23
1927,-280,-696,919,-261,-48,-18
1928,-280,35,74,727,-81,2
1929,53,1346,1231,469,-142,28
1930,270,-354,75,-446,-69,7
1931,400,652,1243,512,-57,-11
1932,115,337,918,-170,8,13
1933,139,285,570,32,31,-27
1934,-184,356,1141,-132,48,-15
1935,-71,-127,761,-231,41,-11
1936,31,-256,440,-286,0,45
1937,148,752,1224,302,11,-2
1938,62,293,753,-534,47,-23
1939,177,65,969,-153,51,-40
1940,-290,-366,1223,-412,82,11
1941,-290,-1225,469,-254,17,9
1942,-8,-448,1098,235,-29,-25
1943,62,-456,785,-24,-12,-19
1944,210,-204,1067,227,-11,38
1945,-104,102,1079,174,13,8
1946,-326,-787,4,-144,7,-70
1947,-329,868,913,913,-110,-20
1948,126,118,104,-418,-132,29
1949,78,448,929,469,-35,10
1950,452,798,1177,-126,-51,28
1951,314,-554,368,-467,2,42
1952,120,521,948,407,94,-15
1953,-272,564,783,-332,59,-38
1954,-21,117,876,-214,22,-44
1955,28,-155,1163,-373,53,-8
1956,34,-505,984,-145,16,42
1957,105,-443,997,-105,31,23
1958,-146,-566,984,-26,64,-10
1959,-153,-1289,-137,-139,30,-4
1960,-662,1009,1103,1174,-80,51
1961,19,485,372,-378,-123,11
1962,-33,224,977,359,-117,-36
1963,494,452,771,82,-102,-46
1964,446,220,927,29,-49,31
1965,321,319,768,34,52,38
1966,-212,291,626,-189,92,-15
1967,-155,715,1395,51,45,-38
1968,255,-100,703,-585,1,-15
1969,-109,-642,243,-281,96,60
1970,-163,66,714,246,13,7
1971,103,105,427,-185,31,-21
1972,-518,-275,993,-113,50,-33
1973,-195,-593,493,-122,-57,12
1974,66,-169,1151,213,-72,5
1975,313,-163,1173,12,-31,-33
1976,411,-166,770,62,-4,12
1977,-21,445,1197,259,58,14
1978,-243,419,945,-81,34,-1
1979,-361,66,831,-110,2,-15
1980,-162,-89,671,-112,-55,-4
1981,213,-400,262,-63,-46,-35
1982,237,342,491,385,-63,19
1983,73,688,945,98,3,54
1984,20,178,367,-322,54,-38
1985,-205,-32,1045,-31,15,-26
1986,-123,15,634,-108,10,9
1987,28,-200,1296,-110,-49,45
1988,155,-466,556,-122,5,-21
1989,296,-192,1174,131,8,4
1990,-125,-92,925,-11,54,41
1991,-298,-131,920,56,22,-3
1992,-485,-375,474,-45,-7,39
1993,-158,190,665,313,-120,-15
1994,449,511,1224,118,-101,-42
1995,397,87,875,-122,-13,31
1996,239,-45,776,-44,21,22
1997,-3,265,998,74,61,-1
1998,-89,107,665,-155,50,-15
1999,-442,-48,1244,-87,30,4
2000,-85,-263,832,-129,-38,-1
2001,238,-53,1180,83,-44,7
2002,184,-253,825,-141,2,5
2003,127,-187,992,92,33,17
2004,-307,13,982,33,36,13
2005,-380,-20,987,40,-15,-21
2006,-57,-42,895,17,-61,10
2007,274,129,1146,98,-72,9
2008,344,35,1066,-43,-16,20
2009,213,72,928,17,33,-8
2010,-65,170,1075,2,46,-23
2011,-302,12,791,-117,45,4
2012,-317,-30,984,-38,-11,12
2013,-7,-198,1134,-60,-63,-10
2014,288,-280,1027,-19,-32,-7
2015,341,-68,842,49,-4,16
2016,63,186,1109,99,48,19
2017,-328,89,883,-82,53,3
2018,-408,-75,954,-30,-13,-11
2019,-116,-91,927,-8,-61,1
2020,334,0,1117,37,-70,0
2021,430,-44,1061,-16,-8,11
2022,178,17,972,0,55,7
2023,-81,-844,491,-241,42,-22
2024,-185,115,631,848,61,-45
2025,-376,440,534,-212,-76,-46
2026,-132,437,1142,336,-91,19
2027,186,400,472,-239,-56,26
2028,137,450,1123,103,-84,35
2029,569,325,636,-278,-26,42
2030,186,-177,672,-269,87,37
2031,-35,104,1181,-26,108,-8
2032,-177,-829,637,-464,29,10
2033,-80,-462,870,217,42,34
2034,-162,-128,992,-54,-6,8
2035,-83,-406,792,41,0,14
2036,-210,38,900,178,-19,7
2037,-250,111,1272,169,-46,-35
2038,26,-1020,-131,-222,-85,-8
2039,-77,1147,854,1261,-117,0
2040,496,210,68,-584,-65,40
2041,117,200,799,434,2,-14
2042,53,718,1025,76,-4,-46
2043,-12,-9,475,-214,15,-50
2044,-24,463,893,174,30,-12
2045,-374,-890,545,-587,16,19
2046,104,651,843,707,-19,66
2047,256,626,386,-517,-45,13
2048,71,-42,631,-10,27,-47
2049,162,707,762,-124,41,-53
2050,-75,-62,1166,-464,69,-22
2051,-34,-364,981,-269,52,-4
2052,-87,-544,989,-179,10,40
2053,48,-582,951,-34,31,-3
2054,76,-568,925,-38,15,0
2055,-261,-1581,7,-55,44,47
2056,-510,1160,1266,1206,-46,-27
2057,-220,764,1136,-290,-131,-85
2058,40,-462,300,-24,-91,-32
2059,216,803,1084,543,-104,19
2060,463,630,1342,-106,-80,65
2061,500,-7,510,-250,25,63
2062,-23,246,823,18,101,-20
2063,-160,572,1402,-14,65,-55
2064,-72,-858,-254,-670,34,-42
2065,-50,825,1240,583,29,-14
2066,24,-59,286,-760,26,53
2067,33,-411,1242,49,41,21
2068,-217,-665,231,-279,26,-1
2069,-234,-20,1287,325,-8,-25
2070,-224,-715,475,-297,-19,9
2071,4,-125,1172,395,-78,-18
2072,349,97,1268,44,-52,-8
2073,174,0,775,94,-8,11
2074,95,369,1198,191,-5,-23
2075,-128,74,826,-55,21,-24
2076,-262,258,857,130,9,-25
2077,-198,304,1010,-96,-44,12
2078,193,143,1133,-94,-52,30
2079,414,125,1116,-116,-14,42
2080,280,56,885,-119,48,21
2081,49,-46,1244,-145,83,-3
2082,-375,-455,611,-244,72,15
2083,-435,-231,964,99,0,17
2084,-233,-374,982,-92,-53,-14
2085,266,-363,1027,116,-71,-17
2086,354,33,1017,158,-23,15
2087,211,-552,868,-67,29,-6
2088,-336,-38,-161,569,58,-39
2089,-206,1109,1006,547,-94,-6
2090,-330,-381,-412,-451,-60,-4
2091,42,1115,1356,618,-96,-74
2092,422,62,656,-523,-103,68
2093,526,104,271,45,16,76
2094,-40,846,1397,70,81,38
2095,-27,176,313,-482,32,-39
2096,230,69,1214,-185,40,-50
2097,-138,-303,1068,-373,113,-7
2098,-16,-725,1045,-231,8,49
2099,-57,-1461,116,-237,61,27
2100,-406,144,442,942,52,-7
2101,-164,509,405,-149,-70,76
2102,-388,226,548,235,-60,38
2103,-107,828,1329,135,-97,-96
2104,250,-34,915,-186,-124,31
2105,704,381,637,152,-77,48
2106,451,367,1203,-146,46,60
2107,180,-310,443,-306,143,12
2108,-495,-486,382,-162,137,24
2109,-334,350,733,343,10,-50
2110,-206,260,696,-173,-31,-15
2111,-35,-253,1020,-186,-27,-21
2112,375,-277,804,11,-44,27
2113,36,145,1136,83,28,7
2114,-123,-303,866,-185,31,-16
2115,-151,-260,677,91,-6,32
2116,-190,125,1223,121,-25,-1
2117,229,-130,1029,-55,-47,-23
2118,258,67,922,89,-3,6
2119,183,-239,583,-158,24,-16
2120,-233,-190,413,235,58,-51
2121,-335,582,309,247,-37,4
2122,-531,661,1250,71,-45,-34
2123,328,207,532,-269,-94,-47
2124,407,-183,983,-191,-48,49
2125,574,97,741,57,58,74
2126,10,183,1202,-191,62,52
2127,-280,-555,655,-259,102,-19
2128,-405,-369,728,33,33,9
2129,-568,-250,1044,45,-40,5
2130,176,-825,678,-85,-109,-14
2131,226,2,1075,433,-45,7
2132,289,592,960,232,-64,-60
2133,84,98,924,-85,0,-22
2134,-134,25,440,55,54,4
2135,-260,463,939,108,-34,6
2136,115,375,1216,-34,-47,41
2137,318,35,921,-250,3,1
2138,258,130,1129,5,28,-1
2139,150,-38,964,-236,64,17
2140,-349,-300,954,-130,89,25
2141,-436,-429,724,-100,3,-1
2142,-279,-419,1017,53,-47,-6
2143,198,-328,1053,78,-68,-16
2144,357,-55,1063,169,-42,11
2145,129,164,1009,123,14,4
2146,-114,265,1008,79,15,-13
2147,-251,207,880,12,-4,-18
2148,-162,195,910,-11,-28,-9
2149,162,177,1228,-45,-50,23
2150,366,-35,987,-134,-17,27
2151,311,39,1023,-20,39,9
2152,-15,-65,1038,-136,75,-4
2153,-389,-298,826,-109,60,17
2154,-490,-270,856,2,-4,11
2155,-199,-278,1050,37,-71,-25
2156,330,-192,972,77,-83,-5
2157,401,119,1154,170,-23,14
2158,201,233,1020,38,20,-5
2159,-93,159,868,-24,48,-23
2160,-301,229,947,25,31,-17
2161,-238,177,1037,-92,-19,10
2162,114,-88,1052,-115,-50,11
2163,277,-146,1053,-46,-19,-7
2164,275,-122,980,-46,24,12
2165,-59,-163,954,-49,53,30
2166,-384,-197,837,1,37,5
2167,-132,-730,586,-108,-3,-60
2168,-372,416,932,950,-41,-54
2169,204,563,556,-168,-99,6
2170,140,133,850,214,-51,70
2171,99,439,250,63,-25,20
2172,45,623,1128,131,-48,-47
2173,294,-46,281,-383,-3,5
2174,13,225,659,-1,43,13
2175,255,755,1629,-66,48,31
2176,236,-558,260,-686,69,35
2177,39,-108,1078,161,80,5
2178,-262,-215,981,-310,86,21
2179,-427,-845,610,-195,57,23
2180,-600,-658,591,112,-30,-5
2181,-317,-577,740,132,-117,-41
2182,641,-255,1488,378,-140,-27
2183,159,-804,30,-22,-27,37
2184,-26,1137,1183,1097,-63,-20
2185,117,208,334,-346,-32,-48
2186,-203,-131,448,417,-28,-73
2187,-151,868,1045,362,-45,-18
2188,87,414,1025,-201,-61,41
2189,345,258,1081,-4,-28,61
2190,-4,-1191,250,-341,8,33
2191,13,1036,1100,1076,0,14
2192,-28,302,-94,-673,-26,-58
2193,-194,-59,599,186,50,-85
2194,47,881,882,-40,-10,3
2195,99,250,1074,-341,-30,49
2196,401,375,726,-163,37,19
2197,39,329,927,-339,67,-6
2198,146,370,831,-284,79,-23
2199,-159,-283,1351,-676,123,-22
2200,-326,-1078,918,-281,52,4
2201,60,-632,867,-65,-17,11
2202,-154,-1219,922,-157,51,-10
2203,175,-257,-6,692,16,-33
2204,-383,922,1290,356,-40,-16
2205,-153,295,992,-21,-65,-53
2206,-193,429,1030,145,-89,-10
2207,-253,145,395,43,-82,-17
2208,705,792,1350,211,-152,23
2209,608,16,1017,-428,-11,101
2210,298,133,496,-31,154,-7
2211,-111,597,1785,-36,97,-23
2212,-231,-1276,-206,-643,86,-5
2213,-475,745,1460,721,8,38
2214,-286,-301,189,-620,-25,5
2215,197,-296,1210,216,-60,-14
2216,46,157,835,13,-15,-15
2217,153,161,1123,57,-17,-12
2218,62,-231,710,-174,14,27
2219,-182,-1153,148,-119,21,-6
2220,-112,696,873,873,-39,-21
2221,138,449,572,-357,-65,-6
2222,35,82,673,173,-31,-34
2223,221,682,923,58,-1,-32
2224,-97,-11,623,-325,16,20
2225,27,83,1046,-4,42,-12
2226,-161,-241,934,-287,14,20
2227,294,-52,995,85,-27,15
2228,131,-37,1097,-148,33,28
2229,-91,-362,875,-103,59,6
2230,-193,-295,789,2,13,18
2231,-461,-195,1190,124,8,-6
2232,-215,-938,-113,-125,-61,-42
2233,-175,1235,941,1137,-129,10
2234,424,147,13,-565,-85,49
2235,196,293,889,450,-42,-24
2236,160,576,1056,9,-4,-21
2237,107,-69,356,-180,6,-3
2238,-9,616,1023,229,47,0
2239,-288,472,757,-411,45,-3
2240,277,-41,1283,-199,-13,38
2241,66,-690,-33,-336,31,85
2242,3,666,810,441,61,-3
2243,-19,-271,-73,-641,18,-18
2244,-436,-216,1248,46,54,-50
2245,-264,-477,389,-152,-5,39
2246,60,-188,1074,103,-88,-15
2247,232,-339,1062,-8,-18,-21
2248,364,-210,586,76,10,9
2249,-75,306,1291,229,29,11
2250,-269,302,849,-38,28,-4
2251,-299,79,862,-58,-11,-1
2252,-94,181,1103,50,-68,-8
2253,412,-568,495,-321,-47,-2
2254,142,-76,548,388,12,-18
2255,125,735,574,146,-9,15
2256,-211,349,1036,-135,40,6
2257,-233,44,384,-197,43,-52
2258,-245,-85,975,-63,-49,-13
2259,308,-185,930,-75,-38,42
2260,219,-219,995,-89,-9,23
2261,257,-329,885,13,31,-9
2262,-52,-70,987,47,63,27
2263,-534,-40,905,28,39,15
2264,-389,-282,919,3,-47,6
2265,-170,-133,555,63,-70,38
2266,450,378,1183,290,-135,-54
2267,500,98,1148,-95,-17,12
2268,221,-124,599,-49,48,33
2269,-10,339,931,102,41,-71
2270,-241,222,890,-48,67,-39
2271,-292,302,725,-63,6,23
2272,-182,126,1329,-173,-40,-13
2273,393,-486,609,-237,-35,10
2274,225,-292,1063,15,24,32
2275,-98,-416,920,-50,44,3
2276,-216,-245,887,114,30,17
2277,-567,-68,777,51,-10,17
2278,119,77,1049,170,-107,-51
2279,290,192,1249,81,-50,31
2280,204,47,880,-25,-12,38
2281,198,309,1096,110,-7,-18
2282,-33,186,880,-91,45,-21
2283,-178,70,793,-87,37,10
2284,-232,23,1289,-96,-3,17
2285,162,-256,883,-110,-37,-4
2286,189,-170,1077,1,-2,2
2287,134,-232,924,-46,26,12
2288,-82,-122,940,49,37,30
2289,-469,-14,896,37,23,-4
2290,-253,-40,989,44,-54,-26
2291,106,0,1004,44,-79,7
2292,375,73,1120,62,-51,8
2293,369,47,1014,-15,4,16
2294,101,154,970,30,53,-5
2295,-204,161,1031,-43,62,-19
2296,-424,-22,778,-122,22,13
2297,-242,-81,1057,-22,-48,0
2298,162,-182,1088,-51,-65,-15
2299,409,-254,986,-22,-27,2
2300,286,-92,980,60,29,23
2301,-100,39,977,30,64,13
2302,-433,26,902,14,32,2
2303,-376,49,929,16,-33,-5
2304,19,29,1065,12,-83,-5
2305,413,-3,1082,-2,-61,-5
2306,403,6,1013,-2,6,13
2307,129,99,1006,0,57,11
2308,-247,17,950,-70,65,3
2309,-480,-74,842,-48,18,10
2310,-260,-96,1008,-12,-55,-5
2311,207,-190,1071,-20,-79,-15
2312,429,-104,1016,56,-30,4
2313,405,-370,985,-50,18,16
2314,-176,-102,143,151,88,-46
2315,-360,797,926,399,-18,-46
2316,-391,398,779,-89,-17,-16
2317,-59,271,642,-69,-76,-1
2318,241,436,1382,5,-88,41
2319,614,-1,691,-311,-5,45
2320,350,-132,855,-82,56,58
2321,-221,-23,1041,-121,109,2
2322,-323,-687,888,-269,46,5
2323,-421,-496,627,123,6,25
2324,-41,-821,490,-68,-67,-65
2325,104,89,907,551,-48,10
2326,109,710,889,116,-52,52
2327,-103,320,1169,61,-29,-57
2328,17,-71,510,-96,-27,-102
2329,1,54,925,156,-41,-58
2330,301,638,1146,91,-26,71
2331,128,166,952,-319,26,73
2332,252,143,979,-6,47,-22
2333,133,258,974,-195,55,-9
2334,-374,-232,1198,-234,96,15
2335,-409,-847,345,-278,10,5
2336,-323,-300,1177,239,-46,-18
2337,203,-347,966,-57,-72,-24
2338,403,-297,1023,132,-34,17
2339,171,177,991,221,25,7
2340,-161,-111,724,-63,9,-106
2341,-411,-319,205,440,35,-332
2342,-70,784,826,323,-131,-82
2343,45,99,523,-73,-14,108
2344,-101,763,946,163,-9,113
2345,64,198,902,-224,-63,127
2346,324,455,640,9,-26,19
2347,-45,478,1394,-159,38,-43
2348,225,-31,463,-409,24,-51
2349,177,-216,1399,-208,64,40
2350,-28,-802,597,-301,58,42
2351,72,-878,737,-38,60,-91
2352,-409,-274,956,246,61,72
2353,-272,287,907,156,-42,98
2354,-429,-393,1095,-182,-61,-86
2355,12,-502,207,387,-55,-367
2356,202,715,1230,343,-151,23
2357,507,168,798,-87,-34,184
2358,135,585,973,158,35,135
2359,-92,247,770,-128,34,54
2360,19,493,763,-22,8,-65
2361,-140,360,1589,-223,40,-90
2362,35,-941,342,-527,31,-133
2363,195,-146,1493,310,-11,57
2364,57,43,721,-230,33,141
2365,-25,-400,1080,-46,37,-52
2366,-377,-265,649,38,44,5
2367,-362,-91,938,78,-35,-16
2368,-108,26,1235,89,-84,4
2369,284,-66,745,10,-69,1
2370,422,167,1197,145,-42,3
2371,345,268,1135,15,24,19
2372,-13,226,806,-72,70,-16
2373,-300,217,1103,-40,62,-30
2374,-710,-523,828,-320,3,-48
2375,93,-712,358,185,-59,-135
2376,248,480,951,215,-99,152
2377,393,304,968,8,-25,135
2378,134,352,788,-67,27,-27
2379,44,1,919,-94,63,-84
2380,-265,-23,1077,-123,40,-1
2381,-254,-385,800,-144,2,-5
2382,-6,-171,920,79,-37,34
2383,192,33,1192,22,-29,15
2384,-142,-651,690,-183,6,-38
2385,63,-499,110,369,44,-197
2386,-185,632,831,300,-90,64
2387,92,320,612,112,-56,123
2388,-151,556,745,24,-16,35
2389,134,304,988,-37,-47,12
2390,652,404,951,-142,-44,-4
2391,184,222,1250,-142,97,-4
2392,-39,18,544,-295,111,2
2393,-334,-562,1157,-256,55,-20
2394,-586,-1257,28,-141,8,-84
2395,-157,787,1323,974,-81,-4
2396,306,312,522,-414,-87,61
2397,193,-70,972,228,-44,20
2398,16,380,566,76,1,-107
2399,69,81,951,27,-29,-66
2400,162,369,791,54,4,57
2401,-357,-355,463,-348,35,16
2402,239,323,842,319,-44,3
2403,323,327,535,-312,4,30
2404,67,305,1162,101,53,27
2405,-42,300,815,-340,74,-23
2406,-394,-783,1032,-364,55,-11
2407,-336,-790,617,20,-20,16
2408,-66,-959,130,9,-54,-19
2409,322,406,1247,633,-90,3
2410,288,418,639,1,-17,38
2411,-31,397,1055,146,9,7
2412,-309,298,927,7,10,-65
2413,-39,49,452,-89,-58,-35
2414,195,333,943,119,-40,54
2415,267,477,1166,-176,23,53
2416,273,8,1121,-281,46,14
2417,163,-89,706,-129,70,-27
2418,-296,-33,1212,-108,80,15
2419,-400,-656,592,-305,37,45
2420,-405,-649,811,57,-34,-13
2421,14,-610,1008,115,-84,-43
2422,256,-462,235,130,-39,39
2423,93,231,1222,515,-43,7
2424,-168,252,519,39,-48,37
2425,-164,235,748,303,-20,-40
2426,-179,312,547,179,-71,-40
2427,268,556,871,150,-102,-22
2428,462,372,1155,-103,-14,53
2429,210,217,496,-174,59,35
2430,36,637,1440,54,49,12
2431,-29,261,465,-417,64,-66
2432,-25,-153,986,-249,66,-64
2433,-370,-500,751,-426,72,44
2434,100,-460,944,3,-32,-5
2435,5,-251,846,0,19,0
2436,-6,-566,1085,-106,29,-15
2437,-158,-893,234,-11,-24,200
2438,-336,440,1145,515,-37,14
2439,19,345,1045,-3,-41,-136
2440,62,61,805,0,-70,-28
2441,341,296,1153,136,-47,15
2442,308,554,1204,31,-6,44
2443,292,-214,717,-306,58,21
2444,-319,-125,587,-50,104,-10
2445,-407,226,1030,50,13,-40
2446,-227,24,764,-110,-42,35
2447,34,-191,1080,-149,-45,-14
2448,525,-584,944,-65,-56,13
2449,167,-124,836,108,58,30
2450,-182,10,1059,70,45,-17
2451,-351,143,915,80,13,11
2452,-318,-16,903,-60,-29,12
2453,73,50,1092,85,-80,-6
2454,458,147,1154,12,-52,-16
2455,308,-40,934,-69,24,27
2456,78,188,996,38,51,11
2457,-293,63,988,-111,56,-3
2458,-454,-136,850,-91,12,4
2459,174,-1084,436,-180,-55,-45
2460,-168,300,955,776,-1,-15
2461,137,469,610,-262,-63,64
2462,-32,137,762,92,-19,22
2463,-5,502,674,4,-20,-49
2464,-26,231,1091,-133,-28,-51
2465,375,-241,699,-258,7,54
2466,6,-202,862,-69,26,62
2467,267,-133,1360,13,12,-15
2468,-1,-484,656,-218,84,7
2469,-392,-71,952,216,49,27
2470,-358,32,888,-19,-30,24
2471,-367,-230,937,-16,-45,-13
2472,109,12,1114,166,-104,-36
2473,469,98,1107,36,-74,0
2474,479,48,1010,27,6,12
2475,205,257,930,48,53,8
2476,-209,315,1093,-37,89,-8
2477,-524,-15,884,-190,39,-2
2478,-328,-112,903,-37,-49,5
2479,73,-194,1108,-68,-73,-11
2480,449,-386,956,-53,-43,-3
2481,371,-190,988,85,19,18
2482,-49,75,1043,87,65,9
2483,-368,47,900,-5,41,13
2484,-505,-276,761,-66,-39,-65
2485,21,-580,-126,197,-26,-510
2486,164,550,759,465,-92,-108
2487,306,279,564,-61,-34,169
2488,-61,522,856,155,48,122
2489,-326,298,721,-32,14,66
2490,-74,384,586,-77,-70,-25
2491,114,505,1489,-62,-20,-24
2492,400,-190,630,-499,7,-15
2493,420,-70,1306,46,28,59
2494,167,-123,756,-284,99,56
2495,-163,-544,1089,-161,96,23
2496,-569,-455,590,-28,81,40
2497,-701,-392,741,48,-23,-39
2498,-220,-372,1096,145,-134,-52
2499,412,-72,1132,179,-122,5
2500,399,93,1137,154,-48,8
2501,265,333,975,159,-20,-43
2502,83,379,1151,54,18,-45
2503,-154,131,550,-83,46,-19
2504,-491,112,931,-69,2,-78
2505,275,-660,488,-166,-9,-357
2506,231,91,740,196,-38,44
2507,222,616,796,193,1,194
2508,-157,731,764,-155,49,71
2509,-243,-271,654,-389,62,-9
2510,-230,-463,841,-139,-27,-26
2511,122,-424,1306,60,-49,-74
2512,190,-645,500,-93,11,-3
2513,240,201,1176,318,-18,106
2514,112,327,1174,19,29,45
2515,-495,89,730,-77,76,-55
2516,-558,-126,1135,19,-45,-44
2517,-14,-701,-81,-171,-86,-140
2518,266,79,908,438,-119,30
2519,646,433,604,51,-38,143
2520,206,736,1190,109,17,51
2521,-11,92,562,-288,86,-84
2522,-19,52,621,-60,35,-79
2523,-248,334,1540,-1,62,-2
2524,-296,-839,254,-516,0,13
2525,125,-180,1345,317,-37,-18
2526,-219,-1102,346,-347,-27,-58
2527,19,622,1373,1001,-69,25
2528,-99,436,115,-441,-14,91
2529,-266,218,1088,313,-17,29
2530,-239,244,747,-60,-68,-21
2531,247,-525,94,-70,-117,-89
2532,673,921,1434,501,-47,43
2533,225,72,536,-516,101,67
2534,-46,538,1150,218,60,9
2535,-195,335,775,-363,57,-61
2536,-157,-722,606,-405,48,-67
2537,141,-126,371,342,-60,33
2538,187,381,160,-145,-56,44
2539,513,71,985,68,19,19
2540,97,132,310,-238,46,-15
2541,-355,-70,667,37,95,-23
2542,-283,-193,405,-193,4,35
2543,-348,-278,606,42,-46,6
2544,171,-215,773,10,-63,-43
2545,480,-198,951,39,-37,22
2546,186,34,976,106,30,29
2547,-127,258,939,54,53,-14
2548,-355,-292,640,-129,23,4
2549,-402,-56,355,125,-36,14
2550,28,666,1264,232,-85,-6
2551,340,160,823,-161,-59,13
2552,384,81,809,-89,-8,-5
2553,206,107,1218,-14,61,-11
2554,-92,14,838,-168,68,33
2555,-400,-580,1096,-171,38,41
2556,-475,-1009,-49,-47,-26,81
2557,26,479,1190,634,-97,-73
2558,363,220,477,-187,-45,-75
2559,169,217,923,162,-22,18
2560,18,453,1062,24,14,16
2561,-117,375,769,-91,11,-8
2562,158,-276,999,-193,10,22
2563,-184,-471,195,-237,16,141
2564,234,345,1438,387,-19,-33
2565,222,23,448,-318,35,-82
2566,-190,-125,1170,22,51,-7
2567,-251,-141,655,-94,8,65
2568,-382,97,1138,92,-19,-14
2569,-67,-396,926,-181,-66,-38
2570,433,-288,890,120,-64,3
2571,373,178,1271,156,2,26
2572,159,121,861,-44,47,1
2573,-327,-666,786,-134,69,97
2574,-609,301,560,328,-7,221
2575,-134,637,1018,4,-90,-80
2576,172,-190,640,-147,-70,-92
2577,612,200,1150,95,-61,0
2578,363,119,1199,-99,33,62
2579,157,197,737,-57,88,18
2580,-361,-188,1025,-214,82,-10
2581,-612,-292,832,-35,29,2
2582,-250,-288,1035,-30,-67,-11
2583,156,-310,996,53,-81,-20
2584,521,-123,1017,89,-45,11
2585,510,-511,648,-27,38,58
2586,-353,174,785,306,92,20
2587,-477,703,908,169,10,-80
2588,-436,223,683,-39,-74,-73
2589,193,382,839,-6,-97,-55
2590,385,268,1684,-140,-39,60
2591,525,-237,376,-304,26,61
2592,151,129,1282,83,49,40
2593,-238,-593,760,-373,112,20
2594,-446,-653,661,59,22,40
2595,-434,-17,993,168,-36,-35
2596,75,-114,1210,49,-83,-27
2597,328,-86,895,56,-51,10
2598,181,384,1117,225,-18,-8
2599,98,299,1029,-54,5,-26
2600,-100,39,698,-96,39,-8
2601,-210,248,1226,35,8,10
2602,142,-62,1040,-185,-37,15
2603,189,-205,1003,-53,8,3
2604,136,-788,448,-173,35,29
2605,-228,161,1107,394,39,23
2606,-350,296,744,-81,4,-25
2607,-385,74,969,38,-34,-19
2608,145,48,1047,-50,-91,-4
2609,428,61,1073,42,-64,20
2610,489,41,1042,-74,23,24
2611,231,-343,904,-110,71,10
2612,-348,-219,282,-26,98,-18
2613,-576,275,1099,242,24,-2
2614,-463,322,897,-34,-79,16
2615,170,-92,811,-151,-95,-13
2616,472,-75,1063,68,-57,-14
2617,513,118,1115,-8,-3,9
2618,136,-157,851,-138,83,26
2619,-380,-20,901,47,82,12
2620,-495,-97,943,-73,-7,3
2621,-254,-217,961,5,-44,-12
2622,227,-84,1048,57,-87,-14
2623,459,27,1080,70,-37,10
2624,237,78,979,-1,39,8
2625,-130,143,975,29,54,-3
2626,-372,124,963,-45,22,6
2627,-256,-38,920,-69,-30,6
2628,121,-111,1063,-25,-65,-5
2629,360,-135,1046,-16,-27,0
2630,270,-94,1001,4,29,8
2631,-67,2,949,16,52,15
2632,-377,37,921,1,34,15
2633,-368,-47,901,-26,-26,-2
2634,-5,-79,1054,21,-74,-16
2635,377,-38,1087,27,-57,-4
2636,267,-103,1105,-19,2,-5
2637,300,-558,541,-115,51,-233
2638,-156,-62,972,324,40,-164
2639,-285,612,873,143,4,60
2640,-449,586,1197,-26,-15,65
2641,-104,183,698,-212,-53,28
2642,437,-1,1190,-93,-78,23
2643,482,-45,1140,-90,10,24
2644,41,-330,760,-205,70,16
2645,-219,-399,987,-7,57,11
2646,-366,-310,758,4,12,28
2647,-268,-270,1043,75,-40,-6
2648,174,-118,1102,132,-66,-22
2649,242,242,1072,171,-36,4
2650,112,286,998,35,-2,-8
2651,9,235,869,-6,18,-12
2652,-208,256,1009,-31,24,2
2653,-307,-685,467,-332,-28,-102
2654,331,-388,904,308,-68,-59
2655,351,500,628,110,-21,127
2656,140,542,1318,47,16,94
2657,-36,127,381,-276,80,-62
2658,-317,-130,1129,-57,45,-69
2659,-269,-79,945,-76,-17,47
2660,-42,-301,969,-136,-52,21
2661,265,-443,946,24,-30,-27
2662,367,-128,1059,88,-1,14
2663,-31,-52,971,48,46,30
2664,-295,165,967,102,39,-11
2665,-430,83,896,5,-17,1
2666,-23,-761,89,-214,-70,-74
2667,201,4,930,479,-144,-30
2668,668,626,436,163,-98,80
2669,370,516,1275,25,15,72
2670,28,135,366,-200,105,-17
2671,-193,206,770,-31,48,-38
2672,-81,584,1417,13,34,-25
2673,-217,-442,756,-558,32,0
2674,83,-296,979,126,-22,20
2675,173,-116,1115,-162,5,12
2676,-42,-671,742,-140,38,28
2677,-227,-345,772,138,26,14
2678,-398,-69,1110,154,-28,-27
2679,-97,-130,1067,90,-63,-12
2680,224,-520,-107,-55,-88,18
2681,216,490,691,838,-108,3
2682,449,398,275,-120,-49,34
2683,18,238,1019,232,12,-17
2684,-183,351,462,41,36,-41
2685,-26,307,661,-30,-18,-18
2686,43,607,1252,36,-8,23
2687,52,397,757,-365,23,10
2688,239,377,1285,-112,4,11
2689,386,144,696,-423,49,-19
2690,-211,-367,1307,-317,136,32
2691,-357,-970,535,-321,46,30
2692,-208,-619,1117,85,-8,-30
2693,-156,-549,699,20,8,-50
2694,97,-559,887,116,-52,-11
2695,112,-19,1232,307,-38,37
2696,-153,378,1172,208,0,-33
2697,-259,-952,135,-190,-52,22
2698,-99,782,1136,895,-95,44
2699,140,393,378,-260,-97,34
2700,216,351,821,304,-47,-9
2701,467,675,1263,-58,-33,-41
2702,204,-52,751,-242,33,-36
2703,93,396,818,95,87,-11
2704,-358,488,885,-279,79,-8
2705,-40,91,1374,-256,44,-10
2706,-313,-983,-115,-537,10,235
2707,131,763,1268,682,-42,7
2708,282,-162,201,-642,46,-123
2709,-136,-684,915,-13,51,-18
2710,-276,-213,535,96,-4,77
2711,-272,262,1267,187,-27,-15
2712,89,-457,681,-243,-46,-33
2713,328,-14,915,278,-44,13
2714,225,495,1436,130,14,15
2715,17,111,728,-173,36,-19
2716,-254,59,930,9,37,-22
2717,-333,175,1000,-30,-13,23
2718,-41,-155,1074,-165,-56,5
2719,276,-393,918,-48,-41,-20
2720,359,-66,1137,102,-3,6
2721,164,-157,981,-50,43,35
2722,-240,-439,611,-72,65,91
2723,-579,220,953,314,-4,-7
2724,-136,459,955,62,-73,-88
2725,75,151,1089,-92,-67,5
2726,503,-21,1001,-70,-51,28
2727,395,198,1066,41,9,22
2728,133,94,1035,-134,85,8
2729,-369,-341,820,-211,78,6
2730,-493,-187,933,77,3,7
2731,-240,-216,973,-48,-53,-14
2732,207,-338,1013,24,-74,-15
2733,467,-53,1010,144,-38,14
2734,182,182,1104,91,38,10
2735,-127,144,926,-6,45,-5
2736,-322,263,893,49,15,-14
2737,-274,255,1089,-42,-29,4
2738,224,-658,494,-290,-63,4
2739,223,69,1108,344,-10,-5
2740,275,398,1006,-63,5,5
2741,-71,-22,901,-126,55,21
2742,-332,-24,834,-53,39,0
2743,-329,-25,1021,-12,-38,-18
2744,15,-285,1006,-112,-56,4
2745,335,-321,886,22,-42,-1
2746,392,22,1235,144,-2,4
2747,62,17,904,-36,63,18
2748,-308,131,966,68,53,11
2749,-451,192,894,-1,-11,7
2750,-214,29,999,-60,-59,-11
2751,256,-141,1045,-43,-79,-11
2752,497,-57,1087,24,-31,3
2753,339,-45,1014,-29,45,14
2754,-69,-15,942,-9,77,20
2755,-481,27,919,-13,50,18
2756,-495,-62,904,-33,-24,-7
2757,-72,-151,998,-6,-88,-18
2758,405,-73,1096,55,-79,-3
2759,503,-15,1034,19,-6,9
2760,196,77,992,33,55,8
2761,-223,158,997,-2,70,9
2762,-496,54,878,-66,26,12
2763,-330,-57,948,-42,-50,-6
2764,152,-142,1077,-23,-85,-15
2765,454,-155,1050,0,-40,1
2766,283,-73,1002,28,24,4
2767,268,-585,300,-173,60,-294
2768,-487,-296,800,336,70,-163
2769,-382,775,514,257,-38,97
2770,-360,745,1424,6,-54,67
2771,47,-5,342,-334,-58,25
2772,440,150,1264,44,-82,35
2773,544,101,1178,-102,11,45
2774,11,-241,723,-267,85,30
2775,-237,-464,1011,-42,56,-5
2776,-299,-366,756,-14,10,20
2777,-233,-308,1124,66,-28,8
2778,155,-222,924,94,-49,-20
2779,142,255,1106,220,-26,6
2780,13,300,995,13,-4,-9
2781,-51,174,866,-18,1,-32
2782,-242,121,1148,-4,-5,-15
2783,180,-568,409,-280,-39,-155
2784,262,-171,999,292,-25,11
2785,165,641,844,109,15,148
2786,-55,523,1176,-94,28,48
2787,-212,-98,650,-263,55,-73
2788,-296,-294,947,-87,-11,-38
2789,-84,-167,1176,13,-52,52
2790,211,-553,811,-179,-44,-24
2791,397,-515,908,185,7,-45
2792,99,311,1007,205,28,93
2793,-222,371,1167,51,41,21
2794,-575,-331,467,-192,18,-77
2795,-104,-368,544,159,-96,-95
2796,301,495,667,250,-151,55
2797,502,492,1267,71,-52,115
2798,351,224,537,-237,25,15
2799,268,154,1157,-3,63,-51
2800,53,143,808,-189,101,-7
2801,-607,-419,961,-272,93,2
2802,-452,-452,713,20,-20,4
2803,1,-31,1146,71,-81,0
2804,3,-892,728,-187,-44,-10
2805,466,-271,585,461,-17,-43
2806,-123,833,1195,256,-17,41
2807,-81,210,834,-36,-2,12
2808,-249,60,855,0,-34,-26
2809,-71,-117,416,-15,-48,-41
2810,482,598,1202,248,-76,38
2811,312,348,1041,-241,32,63
2812,107,311,665,-94,66,4
2813,-33,3,854,-262,75,-22
2814,-292,-731,496,-300,66,-8
2815,-137,-76,572,151,-39,35
2816,-58,4,1000,-7,-10,3
2817,189,-630,546,-231,-28,-30
2818,255,-51,855,323,2,55
2819,-247,321,1259,35,45,14
2820,-256,-351,639,-188,-8,-32
2821,-174,103,917,283,-33,-7
2822,86,604,1326,101,-76,13
2823,438,-91,968,-278,-37,19
2824,320,-43,872,57,47,-9
2825,-16,282,1258,6,49,1
2826,-268,-302,869,-244,58,29
2827,-782,-1168,-66,-155,7,135
2828,-335,969,772,981,-167,10
2829,344,-23,-7,-554,-101,-106
2830,278,348,1033,457,-51,-31
2831,466,534,999,-128,-20,14
2832,86,54,793,-88,70,32
2833,-112,429,704,47,85,7
2834,-290,413,994,-244,27,-39
2835,-9,-156,1512,-258,23,-23
2836,147,-616,281,-288,-4,33
2837,-1,-39,1503,204,14,8
2838,61,-576,591,-320,40,18
2839,-293,-420,835,165,21,31
2840,-427,-90,1013,117,-22,-25
2841,-270,-1080,374,-149,-82,178
2842,-36,503,1115,762,-97,207
2843,443,634,357,34,-144,-87
2844,337,191,845,214,-64,-105
2845,348,293,406,33,33,-120
2846,-97,310,1016,91,21,-47
2847,20,213,420,-75,49,37
2848,-234,637,1124,-3,32,35
2849,-13,616,1263,-201,5,-19
2850,248,129,754,-456,-6,-29
2851,279,71,1139,-124,74,-4
2852,-258,-563,788,-529,81,52
2853,-264,-1190,722,-144,26,79
2854,-274,-618,768,134,-16,31
2855,138,-449,787,157,-40,-75
2856,147,-33,1352,267,-9,14
2857,-47,120,830,76,2,22
2858,-266,490,1131,266,-18,-47
2859,-50,151,820,-69,-70,-55
2860,31,-200,525,-4,-41,5
2861,87,725,1054,269,-24,29
2862,217,575,1525,-181,-41,48
2863,485,-180,539,-361,23,-14
2864,117,209,1175,81,86,-18
2865,-273,-140,983,-336,84,40
2866,-416,-825,710,-224,25,40
2867,-404,-493,931,131,-12,-18
2868,72,-355,1030,86,-88,-42
2869,402,-133,1036,171,-45,21
2870,145,269,1032,186,14,23
2871,-111,432,1129,97,7,-32
2872,-182,253,873,-57,-3,-37
2873,-20,113,804,-27,-19,3
2874,305,-183,682,-255,-39,-11
2875,32,-289,652,115,65,-6
2876,54,748,757,225,-10,58
2877,-200,170,1053,-313,23,-21
2878,-144,-485,488,-193,13,19
2879,-326,-26,984,92,-17,11
2880,31,-349,1294,-94,-82,-36
2881,414,-555,596,-51,-27,-4
2882,285,110,1165,321,17,31
2883,80,303,1139,-7,31,22
2884,-301,45,795,-41,69,0
2885,-530,296,977,86,-6,-13
2886,-130,175,1030,-85,-86,-8
2887,283,-190,994,-132,-65,10
2888,480,-144,1036,15,-18,1
2889,339,-91,1145,-26,36,9
2890,-90,-132,873,-39,88,22
2891,-456,-5,855,39,46,21
2892,-516,-25,923,-11,-24,3
2893,-120,-170,994,-9,-82,-22
2894,369,-29,1135,96,-86,-12
2895,496,46,1042,27,-21,6
2896,271,108,952,19,46,14
2897,-136,205,1000,3,74,7
2898,-492,62,928,-95,40,4
2899,-335,-87,918,-58,-39,3
2900,74,-140,1061,-30,-76,-8
2901,418,-201,1034,-17,-43,-3
2902,370,-134,980,20,21,13
2903,-21,39,1019,56,60,11
2904,-364,52,917,-9,46,13
2905,-424,25,873,2,-16,4
2906,-94,8,1056,7,-73,-12
2907,351,-56,1090,-13,-64,-10
2908,412,-5,1012,10,-4,3
2909,319,-417,602,-143,44,-179
2910,-235,-351,783,193,92,-148
2911,-422,510,540,176,14,93
2912,-489,743,1604,102,-52,57
2913,0,-114,402,-399,-68,-31
2914,452,-15,1248,121,-73,0
2915,553,4,1150,-128,6,44
2916,58,-261,820,-154,73,29
2917,-275,-265,947,19,71,4
2918,-438,-206,841,-11,10,12
2919,-295,-227,1048,39,-52,3
2920,200,-129,967,90,-74,-19
2921,160,22,1222,127,-42,-4
2922,198,-297,365,-92,0,-84
2923,0,157,878,304,-8,-22
2924,-97,728,1061,202,-7,40
2925,-154,320,647,-263,-6,26
2926,-18,-163,899,-122,-17,-3
2927,408,-30,912,-29,-37,14
2928,438,319,1031,57,36,54
2929,-100,-20,1020,-297,96,22
2930,-414,-452,745,-142,64,-11
2931,-419,-332,871,24,-10,9
2932,-238,-456,923,-24,-58,-27
2933,321,-241,997,158,-87,4
2934,366,199,1102,198,-22,20
2935,-212,-437,664,-139,17,-48
2936,74,-15,690,432,-29,-89
2937,-129,613,948,124,-26,-23
2938,-156,284,942,41,-19,35
2939,107,558,885,-11,-57,38
2940,246,308,1244,-166,-19,29
2941,429,80,940,-199,21,-1
2942,108,-30,981,-144,87,-12
2943,-247,1,1035,-159,85,13
2944,-357,-499,959,-245,18,29
2945,-248,-982,345,-154,1,20
2946,23,-269,738,356,-110,-17
2947,565,371,858,241,-27,10
2948,-106,289,826,-34,34,6
2949,-39,163,774,72,-1,-42
2950,-207,161,1013,2,-16,-8
2951,-148,68,679,-41,-6,13
2952,253,267,1085,-19,-66,30
2953,374,140,1137,-42,10,20
2954,220,6,894,-180,47,17
2955,-176,-363,1013,-167,70,-4
2956,-367,-231,772,35,38,22
2957,-454,-164,900,-25,-31,10
2958,-9,-357,1019,13,-78,-32
2959,369,-164,981,116,-60,0
2960,356,187,1132,157,-9,11
2961,147,245,1005,15,32,-1
2962,-157,200,921,0,55,-13
2963,-494,-1044,94,-280,11,74
2964,-327,761,913,750,-72,50
2965,102,418,210,-370,-130,-78
2966,383,37,642,107,-44,-30
2967,552,455,1127,-60,29,-6
2968,61,-35,841,-230,57,36
2969,-82,184,934,-11,108,21
2970,-515,-360,970,-335,44,-8
2971,-196,-487,877,31,-39,1
2972,77,-307,976,-19,-39,5
2973,207,-229,1063,114,-22,-5
2974,191,-108,858,35,0,19
2975,-238,157,1073,185,44,-4
2976,-267,-391,530,-161,-23,96
2977,-252,255,876,348,-57,42
2978,235,666,982,99,-100,-90
2979,402,93,982,-171,-40,-25
2980,419,184,1000,-32,43,6
2981,-16,232,961,-116,68,18
2982,-176,33,993,-151,77,26
2983,-486,-474,870,-286,28,6
2984,-184,-452,1000,75,-46,-24
2985,198,-348,1014,-5,-55,-6
2986,162,-904,606,-42,-11,143
2987,-44,174,1021,453,-1,116
2988,-159,798,995,216,-12,-157
2989,-207,151,897,-94,-50,-135
2990,174,160,640,9,-45,-41
2991,216,513,1406,54,-30,67
2992,420,93,675,-276,13,80
2993,188,178,1238,-53,78,19
2994,-245,-244,1209,-252,96,-27
2995,-392,-611,433,-220,17,69
2996,-354,-293,1060,161,-13,-8
2997,188,-871,639,-134,-64,-20
2998,28,-81,1166,416,-23,2
2999,112,583,1048,194,-35,-17
3000,-65,402,1095,38,-24,-44
3001,22,133,666,-82,-21,-39
3002,-123,319,927,58,-9,-18
3003,191,325,1298,-104,-11,43
3004,271,-297,952,-319,5,56
3005,236,-153,1021,66,38,-1
3006,38,26,1006,-81,69,-11
3007,-434,-280,897,-133,63,28
3008,-461,-341,652,-28,-10,18
3009,-334,-169,1048,112,-64,-27
3010,253,-164,1117,60,-103,-26
3011,498,-123,955,63,-49,17
3012,431,-196,789,80,19,25
3013,-69,125,719,157,61,-2
3014,-305,530,857,157,39,-76
3015,-464,386,906,24,-20,-57
3016,-82,336,729,-144,-61,-39
3017,272,220,1532,-121,-47,40
3018,511,-279,500,-311,-7,51
3019,233,7,1264,68,43,45
3020,-64,-701,621,-340,103,0
3021,-497,-574,602,138,43,27
3022,-496,251,840,252,-29,15
3023,-147,-80,1351,-85,-87,-37
3024,401,-231,729,76,-85,-8
3025,299,476,1157,265,-45,0
3026,257,230,1055,-104,23,-17
3027,-19,79,689,-72,50,-6
3028,-320,249,1145,22,47,-3
3029,-141,-34,1070,-188,-22,15
3030,117,-265,969,-86,-29,3
3031,180,-165,987,7,-6,-3
3032,158,-182,1022,-42,22,21
3033,-203,-209,827,2,40,20
3034,-399,7,966,105,6,-20
3035,-142,-44,973,4,-59,-1
3036,182,13,1030,68,-68,7
3037,409,121,1119,55,-30,-1
3038,295,170,1050,1,30,7
3039,-26,168,977,-47,61,2
3040,-364,79,903,-72,50,10
3041,-412,-92,902,-106,-13,8
3042,-106,-299,985,-62,-66,-14
3043,334,-288,1063,20,-63,-13
3044,346,-613,518,-85,-11,-64
3045,250,-336,579,331,62,-118
3046,-328,645,682,214,36,77
3047,-426,594,1236,117,-21,57
3048,-287,261,357,-181,-36,-66
3049,8,314,1249,68,-97,-35
3050,769,123,1118,-223,-62,43
3051,378,-101,945,-153,64,83
3052,47,-24,1031,-78,93,-6
3053,-232,-435,991,-233,71,2
3054,-619,-563,725,-11,55,43
3055,-404,-705,395,-21,-61,-72
3056,104,-79,1306,387,-111,23
3057,372,430,1105,163,-68,48
3058,145,212,808,-3,-27,-29
3059,84,232,1076,115,-2,-90
3060,-39,39,646,-117,24,-69
3061,-41,291,1126,104,2,39
3062,43,209,1217,-152,-1,37
3063,157,-178,809,-164,14,-29
3064,202,48,1118,40,25,18
3065,-154,1,893,-146,55,26
3066,-335,-230,934,-90,23,13
3067,-349,-325,758,-52,-25,-5
3068,8,-199,1199,89,-75,-23
3069,402,-293,931,-14,-49,8
3070,239,-553,543,6,12,-11
3071,-73,-11,830,402,22,-15
3072,-73,285,302,45,-37,24
3073,-379,309,826,274,-20,-5
3074,-145,513,478,23,-42,-37
3075,162,148,951,-126,-101,30
3076,466,284,1042,4,-28,56
3077,265,346,923,-187,35,29
3078,219,183,1125,-108,65,0
3079,7,-66,713,-331,103,-16
3080,-531,-478,1188,-192,74,9
3081,-243,-734,596,-112,-17,20
3082,-84,-353,1203,135,-33,-12
3083,162,-340,907,59,-36,-8
3084,206,-65,875,167,-12,32
3085,-169,429,1174,225,18,-4
3086,-210,378,1000,-12,-26,-32
3087,-11,109,855,-64,-47,-13
3088,246,238,1129,31,-38,29
3089,376,136,1105,-140,1,45
3090,209,-115,1019,-135,60,2
3091,-284,-1252,415,-329,60,131
3092,-328,487,727,944,4,224
3093,-173,101,2,-552,-83,-45
3094,-118,246,1058,455,-63,-53
3095,378,499,845,-143,-71,-30
3096,355,174,1136,28,-53,33
3097,360,304,642,-88,32,26
3098,77,36,826,-182,91,11
3099,-355,120,1342,-51,91,-6
3100,-317,-690,572,-395,1,-7
3101,-108,-220,1113,253,-20,0
3102,153,-195,934,-145,-46,3
3103,255,-408,850,61,5,28
3104,-111,77,1064,162,33,-8
3105,-279,237,1100,105,-2,-26
3106,-21,-514,1125,-124,-34,59
3107,-289,-619,-171,102,-65,439
3108,-40,1296,1446,638,-60,160
3109,181,80,107,-529,-105,-137
3110,480,125,693,273,-77,-232
3111,375,593,1101,55,16,-160
3112,108,-35,351,-371,74,-85
3113,97,88,1007,-3,97,6
3114,-348,44,1055,-247,82,15
3115,18,-131,1052,-39,-6,16
3116,-185,-262,776,-208,44,-2
3117,-203,-292,968,32,12,-8
3118,-173,-867,577,-179,-34,80
3119,-331,-269,1006,312,-57,37
3120,417,205,1272,207,-91,-115
3121,201,44,795,44,-28,11
3122,289,379,1065,162,-4,19
3123,43,547,1245,42,23,-8
3124,-136,214,640,-149,45,-34
3125,-17,-236,854,-182,18,5
3126,-353,-69,1068,-45,23,37
3127,167,57,756,-15,-47,-32
3128,33,186,1250,41,-3,0
3129,196,-319,802,-315,4,2
3130,35,-274,903,99,18,46
3131,-369,64,998,20,45,-10
3132,-200,-489,815,-138,-43,-30
3133,54,-131,1058,212,-48,11
3134,258,194,1128,97,-42,7
3135,314,83,1055,2,3,-7
3136,21,213,896,40,47,4
3137,-276,328,1074,5,39,1
3138,-328,17,889,-170,-9,4
3139,-115,-184,954,-64,-50,-3
3140,576,-748,614,-165,-63,14
3141,186,-393,543,293,44,17
3142,-106,844,865,274,40,-18
3143,-385,419,952,-41,-6,-20
3144,-173,125,389,-143,-18,-100
3145,-256,353,1448,82,-51,-13
3146,413,-123,650,-318,-61,43
3147,432,-214,1190,-5,-29,85
3148,242,-37,997,-44,76,-14
3149,71,-416,992,-157,62,3
3150,-529,-231,747,71,75,43
3151,-521,-14,919,76,-20,-8
3152,-219,-201,1049,-10,-85,-14
3153,292,-36,1053,127,-97,-7
3154,451,143,1121,92,-43,2
3155,351,194,1011,31,17,-14
3156,22,208,890,-25,59,-10
3157,-334,227,979,-37,69,3
3158,-376,-12,989,-154,-10,11
3159,-52,-189,1006,-61,-57,-6
3160,257,-205,1051,-36,-42,-12
3161,367,-229,972,-13,-6,14
3162,73,-119,934,32,48,27
3163,-325,23,963,61,51,1
3164,-383,1,924,8,-13,-1
3165,-144,30,972,44,-62,-1
3166,299,83,1135,33,-70,-7
3167,439,18,1038,-26,-15,5
3168,206,101,1006,7,47,12
3169,-142,117,988,-45,62,8
3170,-432,-43,859,-96,34,11
3171,-357,-186,899,-56,-33,-2
3172,71,-230,1070,4,-78,-16
3173,410,-181,1066,37,-50,0
3174,374,-25,989,64,14,12
3175,30,152,1019,60,57,13
3176,-356,164,930,-14,51,12
3177,-448,77,899,-37,-8,1
3178,-133,-9,1026,-30,-73,-10
3179,352,-110,1082,-39,-71,-4
3180,470,-123,1016,-13,-9,8
3181,222,-21,1009,16,51,12
3182,-198,18,965,-15,69,17
3183,-503,-17,847,-24,32,12
3184,-375,-66,933,-4,-47,-10
3185,96,-108,1082,13,-89,-15
3186,463,-80,1081,26,-54,-1
3187,411,28,1002,38,15,8
3188,66,144,1017,19,62,11
3189,-378,56,1016,-52,61,10
3190,-347,-371,584,-129,6,-97
3191,-416,-179,867,153,-52,28
3192,263,223,1091,96,-105,74
3193,361,154,1040,-17,-51,11
3194,303,-16,921,-18,14,-28
3195,126,140,928,-3,39,-16
3196,-193,186,1132,-24,67,13
3197,-325,-45,827,-163,12,23
3198,-111,-309,1044,-62,-32,-16
3199,172,-233,1004,23,-32,-3
3200,237,-17,1037,48,-9,23
3201,42,-94,935,-16,31,2
3202,-277,58,904,72,31,3
3203,-270,104,1023,12,-27,4
3204,-18,-15,984,-26,-50,-8
3205,143,-566,681,-124,-50,-22
3206,425,-156,694,301,-14,-29
3207,84,646,1087,122,14,48
3208,-159,294,907,-65,45,22
3209,-236,388,810,-61,17,-39
3210,-228,-58,1176,-213,-17,-18
3211,24,-875,1001,-228,-62,35
3212,327,-470,210,246,-10,41
3213,305,702,785,278,-20,0
3214,192,123,978,-154,32,-5
3215,-267,104,546,-66,79,-8
3216,-499,359,1233,103,6,-50
3217,87,-123,737,-287,-74,27
3218,156,-256,926,-22,-14,45
3219,303,-106,1128,3,-10,-18
3220,201,-322,945,-101,37,7
3221,-323,-144,814,85,65,19
3222,-368,101,977,84,-13,3
3223,-232,-91,954,-45,-48,7
3224,126,-17,1058,86,-71,-21
3225,430,-59,1292,56,-43,-6
3226,155,-525,80,-213,9,74
3227,-153,434,1037,639,39,-4
3228,-168,577,481,-106,-12,-34
3229,-265,242,923,15,-27,-81
3230,-54,453,941,-57,-30,-34
3231,428,59,993,-280,-51,48
3232,557,-239,1029,-47,26,97
3233,-144,-399,257,-336,105,110
3234,-245,-182,1145,242,36,-66
3235,-299,-16,226,-135,30,-53
3236,-519,-133,1102,71,-21,-9
3237,238,-296,955,-78,-114,6
3238,323,136,1121,217,-34,-5
3239,371,-76,1014,-71,15,-20
3240,28,-760,375,-156,38,179
3241,-566,574,1097,518,48,119
3242,-297,631,427,-109,-54,-120
3243,36,33,949,-71,-83,-103
3244,526,125,855,-27,-32,-13
3245,286,196,1029,-88,10,80
3246,245,14,868,-134,72,44
3247,-191,-481,1082,-209,83,8
3248,-689,-504,438,-41,35,67
3249,-225,-107,955,174,-64,-66
3250,-4,30,1109,98,-73,-23
3251,462,-222,975,-60,-66,30
3252,249,-13,910,138,11,30
3253,54,578,1312,254,13,-67
3254,-160,-24,624,-286,26,-10
3255,-214,133,996,129,37,-5
3256,-157,245,1222,-120,-49,32
3257,293,-153,945,-105,-31,-5
3258,241,-107,1068,-52,16,1
3259,73,-108,909,-38,35,11
3260,-196,-254,923,-91,41,34
3261,-484,-194,865,58,20,-11
3262,-168,-115,1025,49,-78,-18
3263,230,-72,1037,65,-69,7
3264,369,83,1098,94,-27,7
3265,259,176,984,36,12,7
3266,-48,301,1006,23,56,-11
3267,-305,173,913,-104,41,-14
3268,-313,16,944,-88,-17,5
3269,9,-131,1066,-96,-56,3
3270,288,-289,1034,-69,-37,-8
3271,368,-262,969,0,5,10
3272,52,-88,967,50,55,25
3273,-321,-20,928,22,51,13
3274,-392,-159,969,35,-5,-4
3275,-116,-450,320,-120,-66,34
3276,0,229,1039,450,-56,-18
3277,313,687,1055,50,-76,-12
3278,271,94,779,-148,-10,2
3279,118,261,991,12,40,-12
3280,-79,250,938,-132,54,0
3281,-125,-164,1078,-208,17,37
3282,-173,-422,827,-157,-1,-5
3283,133,-319,1137,74,-17,-16
3284,130,-284,877,-51,3,19
3285,-38,-150,916,111,22,22
3286,-244,77,975,89,14,5
3287,-306,126,986,61,-27,-23
3288,2,90,1020,16,-72,-5
3289,355,139,1072,40,-55,9
3290,398,111,1076,-40,-1,23
3291,203,107,992,-43,59,8
3292,-207,33,1012,-89,73,-3
3293,-470,-110,807,-89,29,14
3294,-371,-220,915,-58,-40,1
3295,48,-330,1013,-6,-85,-18
3296,444,-210,1091,83,-59,-6
3297,393,-3,1011,89,13,9
3298,70,204,1020,84,56,13
3299,-309,246,930,-6,54,14
3300,-475,159,917,-40,5,1
3301,-182,10,1017,-69,-66,-12
3302,311,-119,1089,-52,-75,-7
3303,478,-167,1007,-39,-15,9
3304,275,-99,992,6,47,15
3305,-168,-52,964,-9,74,18
3306,-505,-39,861,3,37,12
3307,-414,-48,920,13,-41,-7
3308,47,-56,1066,30,-91,-13
3309,444,-26,1106,32,-63,-4
3310,435,46,1008,27,5,3
3311,115,160,1014,20,60,9
3312,-290,112,936,-61,66,15
3313,-487,-11,885,-67,13,8
3314,-231,-134,999,-50,-61,-11
3315,254,-206,1067,-15,-75,-11
3316,457,-152,1016,25,-24,6
3317,266,-2,998,50,39,14
3318,-146,83,987,15,65,14
3319,-457,64,880,-11,33,10
3320,-426,-126,854,-61,-49,-42
3321,295,-750,422,-38,-54,-217
3322,196,200,978,324,-44,104
3323,127,607,1157,134,-34,155
3324,46,204,579,-189,6,-35
3325,-78,122,976,49,16,-93
3326,10,146,1059,-109,10,-24
3327,-77,-199,1194,-175,0,47
3328,194,-199,721,-30,-9,21
3329,194,-6,1286,33,17,-6
3330,-77,-333,660,-173,52,33
3331,-248,-129,944,114,22,10
3332,-464,17,1057,54,-11,-16
3333,-87,-149,825,-24,-76,-12
3334,269,-6,1139,114,-77,4
3335,420,117,1101,60,-26,6
3336,320,161,982,15,20,15
3337,10,272,993,-1,70,-13
3338,-353,142,1003,-103,62,-10
3339,-419,-141,780,-152,-1,5
3340,-195,-157,1120,-5,-62,3
3341,153,-542,1002,-99,-67,-10
3342,431,-744,-35,26,-39,-11
3343,235,466,925,513,-6,39
3344,42,580,648,33,0,32
3345,-256,300,774,-86,37,-32
3346,-316,246,821,16,11,-42
3347,256,393,1151,-103,-87,15
3348,240,-505,850,-312,23,69
3349,278,-148,385,134,12,33
3350,146,551,974,52,15,-33
3351,-88,-215,676,-287,77,13
3352,-470,-329,644,-96,20,18
3353,-271,-61,1138,148,-41,-22
3354,276,-237,853,-127,-66,-5
3355,240,-445,657,27,-7,17
3356,234,126,1075,233,13,2
3357,-137,299,935,27,36,8
3358,-409,106,820,-37,21,-6
3359,-156,209,931,30,-54,-15
3360,177,232,1165,-17,-69,19
3361,395,-70,959,-182,-10,17
3362,307,-185,1022,-43,34,-4
3363,-49,-64,1018,-28,63,18
3364,-413,-474,847,-142,47,32
3365,-500,-484,307,66,1,1
3366,-113,339,1210,307,-113,-23
3367,322,195,1133,-1,-78,1
3368,373,68,809,-41,-23,-3
3369,32,-670,382,-146,5,96
3370,-202,450,797,571,56,170
3371,-257,584,342,-186,-22,-7
3372,-261,187,738,89,-61,-77
3373,391,525,1116,-51,-46,-93
3374,399,25,1124,-238,-4,32
3375,417,10,533,-127,56,83
3376,-122,159,1352,-100,118,40
3377,-447,-418,825,-290,74,-10
3378,-416,-639,625,-97,-7,-14
3379,-425,-307,1001,175,-31,-28
3380,351,-409,1024,-18,-123,-34
3381,396,-129,1085,230,-25,21
3382,149,295,1024,150,23,-19
3383,55,106,1254,55,3,-22
3384,-296,-68,308,-120,30,61
3385,-324,501,1062,289,-8,-3
3386,104,347,1329,-78,-87,-19
3387,150,-814,-66,-420,-10,208
3388,31,677,1321,536,-2,95
3389,240,394,454,-328,-34,-131
3390,205,-315,927,-134,59,-100
3391,-324,-167,1065,-87,65,-10
3392,-92,-160,1051,-1,-41,40
3393,87,-231,909,-67,13,28
3394,14,-157,960,55,-1,-18
3395,72,-399,935,-48,-2,79
3396,-338,143,953,223,27,10
3397,-141,372,1039,107,-50,-109
3398,66,-46,933,-90,-58,23
3399,200,56,993,-11,-13,81
3400,321,229,1297,77,-27,7
3401,255,112,862,-116,37,-21
3402,-90,-98,967,-121,82,-15
3403,-467,-47,934,-19,31,28
3404,-339,-169,913,-90,-33,-9
3405,-95,-350,985,-29,-60,-27
3406,429,-186,1040,95,-76,-4
3407,438,-9,1064,70,4,24
3408,33,137,992,55,65,11
3409,-82,-212,888,-59,42,21
3410,-603,63,608,76,32,49
3411,-253,480,972,145,-61,-54
3412,117,273,1170,-69,-84,-14
3413,469,-79,956,-200,-37,8
3414,385,-97,1077,-5,16,17
3415,132,-138,910,-100,74,34
3416,-438,-401,783,-113,68,26
3417,-452,-66,938,159,-1,-33
3418,-220,-15,1113,3,-70,-5
3419,282,-171,996,0,-76,-7
3420,435,118,1038,134,-33,4
3421,190,244,1027,27,34,6
3422,-96,111,940,-80,56,1
3423,-378,42,962,-32,29,-2
3424,-217,-10,976,-54,-38,6
3425,271,-808,508,-221,-56,31
3426,125,-73,875,352,9,-3
3427,200,646,982,144,-15,-28
3428,-205,165,948,-175,46,5
3429,-238,0,647,-71,16,-11
3430,-192,198,1161,41,-59,-11
3431,215,-194,993,-195,-42,20
3432,315,-399,926,-70,-9,11
3433,295,-87,1164,134,15,0
3434,-83,-45,932,-59,72,23
3435,-421,-221,760,1,45,15
3436,-443,-105,599,56,-28,3
3437,-130,273,943,179,-87,-13
3438,320,253,1291,6,-85,-1
3439,470,-33,802,-119,-30,0
3440,363,135,1186,84,26,13
3441,1,226,925,-95,92,13
3442,-453,-176,983,-186,59,8
3443,-448,-249,741,-29,-7,-3
3444,-87,-137,1147,24,-70,-17
3445,321,-325,945,-48,-62,-3
3446,438,-400,713,36,-12,1
3447,36,-20,726,233,65,-9
3448,-288,617,976,160,22,16
3449,-375,362,1006,-74,-17,4
3450,-98,102,762,-123,-39,-25
3451,265,82,1268,-32,-71,13
3452,500,-142,907,-158,-10,30
3453,191,-193,995,-67,64,12
3454,-185,-223,947,-37,70,9
3455,-465,-298,828,-44,29,18
3456,-482,-277,899,66,-29,-6
3457,100,-10,1051,146,-109,-20
3458,396,151,1230,101,-62,6
3459,365,94,897,-6,0,-2
3460,131,246,1029,82,33,-4
3461,-183,253,991,-70,65,-10
3462,-366,12,851,-121,17,3
3463,-147,-259,757,-96,-42,-31
3464,213,-629,791,-61,-24,-69
3465,226,336,832,291,-27,113
3466,144,439,1307,-18,13,60
3467,-138,-114,558,-226,52,-43
3468,-341,-14,1120,78,6,-18
3469,-142,-65,939,-101,-43,22
3470,153,-279,1005,-52,-55,2
3471,364,-213,947,49,-10,-9
3472,257,-94,1126,38,20,-1
3473,-106,-158,833,19,70,-5
3474,-430,433,892,195,22,42
3475,-411,300,1105,-78,-43,2
3476,30,-260,763,-166,-67,-46
3477,389,6,1151,112,-70,9
3478,471,-28,1204,-41,-1,37
3479,78,-302,622,-193,73,7
3480,-132,-83,704,209,38,5
3481,-435,597,1094,152,26,16
3482,-480,-387,755,-395,-24,-23
3483,248,-214,775,232,-104,2
3484,375,362,1517,88,-47,26
3485,365,-246,654,-227,36,-3
3486,120,-96,993,102,47,1
3487,-424,318,1028,102,61,-1
3488,-379,-57,941,-190,-12,15
3489,-176,-234,766,-12,-50,-4
3490,288,72,1327,116,-83,-15
3491,460,-149,960,-108,-10,9
3492,181,-43,942,60,51,9
3493,-169,175,1000,43,52,12
3494,-438,46,920,-76,27,11
3495,-333,-112,876,-47,-38,-8
3496,143,-55,1121,43,-83,-15
3497,431,-82,1081,-25,-40,8
3498,361,-56,924,8,26,14
3499,-14,85,1053,34,63,10
3500,-402,47,904,-44,50,9
3501,-441,-32,888,-26,-17,1
3502,-97,-33,1014,3,-76,-12
3503,383,-89,1105,-16,-72,-5
3504,452,-85,1001,0,0,7
3505,178,55,1031,35,53,9
3506,-226,69,955,-31,65,17
3507,-498,-10,853,-41,23,10
3508,-322,-71,966,-14,-53,-12
3509,168,-137,1079,-8,-87,-13
3510,489,-274,1143,24,-37,6
3511,-17,-908,56,-183,14,259
3512,-328,788,783,882,-24,170
3513,-148,274,98,-386,-10,-56
3514,-247,68,865,312,-72,-127
3515,160,741,854,159,-101,-84
3516,408,251,850,-225,-40,37
3517,471,144,692,-80,32,113
3518,-6,653,981,-48,71,34
3519,54,357,1422,-293,94,-37
3520,-242,-678,466,-543,79,-37
3521,-441,-394,1208,86,11,13
3522,-37,-610,761,-215,-27,-10
3523,87,-723,1006,56,-24,-19
3524,194,-301,850,202,-11,18
3525,-69,108,1141,197,14,17
3526,-257,248,1049,127,-6,-15
3527,-211,332,844,70,-51,-19
3528,158,83,1256,35,-69,-2
3529,344,-508,253,-269,-41,164
3530,13,511,1008,480,18,43
3531,144,687,721,-122,-10,-106
3532,41,15,637,-182,14,-141
3533,3,159,972,-61,55,-64
3534,-351,-240,968,-312,31,48
3535,224,-446,767,-24,-44,51
3536,-21,-129,1096,-5,17,-11
3537,148,-751,777,-138,24,22
3538,-156,-172,837,255,22,53
3539,-388,485,1146,249,0,-44
3540,-223,179,984,-86,-55,-15
3541,199,-144,951,-40,-72,15
3542,279,208,1109,137,-50,42
3543,422,302,956,-19,-5,0
3544,188,62,1081,-106,66,-10
3545,-298,-80,827,-156,92,-1
3546,-375,-91,1014,-3,2,-2
3547,-350,-117,960,-68,-24,3
3548,133,-394,931,-86,-80,-22
3549,450,-178,1089,139,-44,15
3550,237,78,1046,54,35,13
3551,-62,49,938,15,46,-2
3552,-345,153,925,42,28,12
3553,-369,198,946,-2,-20,4
3554,51,13,1098,-75,-77,-17
3555,378,-120,1029,-44,-46,-3
3556,383,-17,1057,3,13,10
3557,100,-59,964,-56,56,18
3558,-319,-96,882,-29,65,20
3559,-498,-92,895,-2,6,1
3560,-121,-418,931,-39,-76,-6
3561,158,-389,542,36,-54,21
3562,333,423,1150,374,-51,-21
3563,205,443,1168,-12,-6,-2
3564,4,108,588,-145,53,-13
3565,-255,334,1277,66,23,-16
3566,-134,76,831,-216,-6,15
3567,45,-298,1105,-153,-30,29
3568,178,-310,920,-28,-12,-22
3569,280,-244,1081,-2,10,6
3570,-68,-295,832,-23,62,37
3571,-374,-27,921,136,24,7
3572,-374,151,999,85,-25,-13
3573,-108,75,1046,2,-73,-13
3574,380,50,1056,34,-83,-2
3575,456,148,1068,33,-12,23
3576,275,169,970,-49,48,19
3577,-122,76,1035,-82,79,-9
3578,-475,-74,850,-99,48,6
3579,-400,-165,924,-52,-31,6
3580,-14,-307,1018,-49,-77,-16
3581,415,-255,1028,62,-61,-4
3582,397,-36,1034,83,5,13
3583,61,123,1011,69,57,7
3584,-290,186,931,17,51,13
3585,-450,160,905,-19,0,6
3586,-167,33,1036,-52,-66,-11
3587,319,-403,821,-139,-76,-28
3588,429,-441,258,115,-1,-47
3589,89,563,691,247,48,58
3590,-128,442,1043,-46,34,51
3591,-392,-9,543,-231,28,-31
3592,-382,55,1241,64,-31,-35
3593,293,-202,894,-186,-86,16
3594,352,-335,1021,-21,-25,30
3595,324,-155,1014,42,37,-8
3596,-6,-194,1040,-8,57,15
3597,-478,-162,763,34,58,9
3598,-427,282,876,196,-31,4
3599,-152,205,1257,-29,-85,-5
3600,354,-158,895,-83,-79,-17
3601,493,124,1138,113,-26,7
3602,289,141,1039,-57,37,11
3603,-36,21,851,-73,79,7
3604,-495,-17,978,-62,61,7
3605,-396,-133,895,-54,-33,-2
3606,-31,-208,1091,-26,-73,-12
3607,372,-210,966,29,-51,-4
3608,418,-49,1058,64,-5,21
3609,50,89,982,45,60,11
3610,-301,-122,676,-71,43,-53
3611,-338,-183,730,97,3,-59
3612,-180,522,831,176,-61,66
3613,147,404,1446,-67,-72,60
3614,438,-311,551,-309,-16,-54
3615,279,-97,1197,167,28,-34
3616,-48,82,846,-115,61,55
3617,-409,-218,978,-90,41,27
3618,-370,-238,710,-1,-20,-18
3619,11,-107,1262,90,-73,-23
3620,329,-142,970,-19,-52,16
3621,345,79,1059,145,-1,-2
3622,48,241,965,9,41,6
3623,-259,121,1003,-27,43,1
3624,-442,-89,917,-68,6,1
3625,-162,-451,314,-153,-70,0
3626,358,126,1200,353,-94,13
3627,458,417,929,-41,-16,35
3628,172,64,888,-116,43,21
3629,-126,-97,982,-103,89,-43
3630,-297,-82,682,-18,13,-10
3631,-322,97,1138,47,-18,41
3632,-36,-344,777,-201,-55,-20
3633,418,-187,1049,147,-50,-2
3634,272,40,1033,14,13,20
3635,-12,9,1019,30,53,4
3636,-296,60,828,-6,31,2
3637,-392,162,1050,56,-14,0
3638,-23,-31,975,-100,-70,-1
3639,309,-116,1082,15,-50,0
3640,420,38,1038,18,-7,5
3641,169,2,1008,-44,53,12
3642,-222,2,884,-24,67,15
3643,-485,6,923,-21,19,7
3644,-300,-131,962,-54,-50,-9
3645,148,-202,1037,7,-83,-13
3646,468,-48,1072,69,-42,3
3647,364,60,1015,26,26,17
3648,-13,133,980,7,68,11
3649,-401,121,928,-32,53,5
3650,-452,41,927,-49,-16,4
3651,-83,-654,537,-191,-73,-15
3652,283,2,794,331,-57,6
3653,477,383,995,32,-35,12
3654,117,105,946,-72,47,26
3655,-86,236,819,3,67,-25
3656,-400,60,1049,-111,17,-22
3657,-474,-1176,240,-296,-22,199
3658,-196,634,964,816,-73,114
3659,426,367,361,-261,-137,-148
3660,432,35,924,128,-20,-58
3661,306,414,738,4,66,-36
3662,-196,363,1016,-64,31,5
3663,-29,172,601,-160,62,38
3664,-309,10,1229,-200,33,7
3665,75,-273,1106,-108,-39,-11
3666,206,-440,763,-173,19,11
3667,-116,-273,1066,98,39,10
3668,-30,-298,747,-56,-7,32
3669,-366,-495,1080,90,19,11
3670,-313,-747,101,-24,-65,137
3671,-51,639,1131,699,-123,0
3672,390,541,673,-33,-83,-112
3673,414,68,692,73,-49,-59
3674,201,487,1008,141,29,-6
3675,-128,285,792,-157,65,5
3676,-77,153,716,-47,28,35
3677,-129,178,696,-252,16,81
3678,-32,248,1414,-72,28,41
3679,359,-160,292,-333,-17,-35
3680,19,-115,1159,35,54,13
3681,-200,-598,660,-344,56,36
3682,-234,-496,884,110,0,-5
3683,-445,-421,823,-1,-11,7
3684,146,-372,1075,156,-86,-48
3685,381,106,1202,269,-57,22
3686,36,329,932,98,8,17
3687,50,276,1050,43,-6,-36
3688,-138,199,952,46,-1,-48
3689,-184,254,725,-10,1,-16
3690,71,376,1274,-56,-41,29
3691,348,-29,1113,-226,-10,27
3692,281,-45,917,-77,39,23
3693,-10,-51,1147,-110,67,0
3694,-278,-464,803,-197,55,13
3695,-478,-323,720,46,15,24
3696,-293,-324,1025,28,-63,-24
3697,226,-278,1073,105,-93,-14
3698,399,75,1108,186,-36,4
3699,224,224,1014,89,3,3
3700,16,355,1010,72,30,-19
3701,-237,292,838,-53,40,-21
3702,-258,267,1026,-62,2,-11
3703,26,-50,1155,-189,-49,16
3704,432,-548,887,-129,-28,20
3705,133,-558,395,-53,48,37
3706,-30,222,1024,326,45,-28
3707,-423,360,960,-5,25,12
3708,-440,-77,719,-161,-10,-25
3709,-46,21,1196,108,-104,1
3710,413,140,1053,-21,-74,2
3711,508,-241,978,-140,3,29
3712,256,19,986,94,60,11
3713,-189,78,1078,-57,70,5
3714,-541,-110,790,-71,55,10
3715,-423,-105,849,-3,-47,2
3716,8,-81,1137,39,-96,-11
3717,526,-324,821,-73,-66,-18
3718,407,-405,450,63,32,-39
3719,-11,559,898,397,35,19
3720,-293,603,1120,-24,21,22
3721,-314,111,407,-205,19,-75
3722,-229,188,1502,10,-61,-16
3723,385,-161,748,-226,-54,31
3724,395,-142,1243,-5,-16,46
3725,142,-210,783,-110,64,-8
3726,-45,-320,990,-30,58,17
3727,-575,-177,796,36,45,35
3728,-375,-113,967,71,-49,-24
3729,48,-86,1083,65,-86,-6
3730,394,115,1086,117,-67,5
3731,386,157,1053,19,-7,8
3732,139,274,981,40,49,0
3733,-200,222,960,-92,57,-2
3734,-395,-3,914,-113,23,11
3735,-182,-157,993,-93,-45,7
3736,170,-274,1065,-42,-54,-12
3737,371,-262,988,-2,-17,6
3738,202,-109,970,61,33,27
3739,-211,-73,976,11,56,15
3740,-446,15,844,74,7,2
3741,-263,91,860,65,-51,-8
3742,122,-117,870,-41,-74,-15
3743,448,255,1031,162,-53,35
3744,339,376,1180,-16,15,55
3745,81,158,873,-154,67,-1
3746,-307,-200,1082,-153,59,-12
3747,-304,-492,505,-115,16,-32
3748,-280,-95,1106,144,-48,45
3749,200,57,1176,36,-73,20
3750,403,-131,901,-54,-20,-13
3751,183,54,1043,112,35,12
3752,-141,164,1152,2,42,19
3753,-398,-326,435,-196,19,4
3754,-213,92,870,267,-52,-1
3755,240,381,1202,-8,-70,12
3756,317,-225,953,-196,-16,12
3757,255,-175,757,57,36,4
3758,9,319,1153,98,39,25
3759,-362,-58,913,-178,48,24
3760,-425,-232,779,-34,-13,-10
3761,-58,-28,1089,85,-77,-14
3762,389,-125,1066,-52,-59,3
3763,425,-111,921,47,5,7
3764,160,210,1079,87,53,17
3765,-351,-38,831,-129,71,28
3766,-505,-185,805,-4,-4,32
3767,-35,344,748,192,-77,-12
3768,100,61,1240,-154,-61,0
3769,510,-526,580,-154,-25,10
3770,379,264,1141,280,26,41
3771,-200,232,1087,-129,88,11
3772,-338,-300,641,-154,37,24
3773,-528,52,985,129,-20,16
3774,-32,-34,1154,-58,-87,-24
3775,441,-333,936,-64,-63,5
3776,419,19,1044,158,4,17
3777,186,200,1094,16,51,29
3778,-281,34,874,-75,76,21
3779,-533,66,863,15,13,6
3780,-271,30,1058,-34,-65,-8
3781,216,-182,1026,-71,-84,-9
3782,504,-135,1032,39,-33,3
3783,337,22,1078,25,38,18
3784,-56,67,932,-18,70,21
3785,-467,48,912,-25,52,17
3786,-477,-48,878,-44,-26,-8
3787,-43,-160,1039,-14,-88,-16
3788,424,-724,387,-130,-63,21
3789,334,121,748,429,-4,9
3790,213,779,939,137,20,-2
3791,-236,96,1067,-170,71,15
3792,-440,-396,130,-277,28,148
3793,-329,420,972,395,-84,91
3794,473,215,418,-229,-51,-16
3795,317,185,1164,52,-25,16
3796,371,-197,800,-255,37,12
3797,8,-11,980,68,86,24
3798,-492,-90,951,-133,55,24
3799,-419,-464,646,-106,-22,1
3800,-172,-240,1144,133,-60,2
3801,381,-199,1091,86,-90,-18
3802,372,-725,306,-107,-2,142
3803,-44,518,984,563,40,95
3804,-123,753,594,-18,-6,-27
3805,-324,98,679,-111,12,-19
3806,2,499,882,72,-47,4
3807,189,289,1255,-225,-59,54
3808,602,-521,828,-268,20,62
3809,-34,-253,834,-66,61,71
3810,-83,-120,1133,90,57,-69
3811,-439,-130,729,-74,47,16
3812,-527,-353,953,-37,-31,27
3813,60,-442,903,27,-116,31
3814,325,267,1171,364,-50,-52
3815,415,117,1007,-72,-25,-3
3816,145,80,819,59,35,33
3817,-108,455,1085,93,55,14
3818,-399,256,923,-134,31,13
3819,-131,-97,956,-183,-36,18
3820,109,-67,1132,7,-48,5
3821,373,-162,1040,-92,-19,-9
3822,204,-302,917,-68,37,15
3823,-129,-123,908,49,57,27
3824,-399,-56,933,20,19,11
3825,-373,-120,904,6,-28,-6
3826,81,-3,1028,96,-86,-10
3827,392,166,1189,76,-54,-1
3828,397,111,1000,-32,12,8
3829,77,198,971,2,56,17
3830,-282,179,1009,-63,58,0
3831,-424,-65,864,-134,9,2
3832,-210,-266,948,-84,-54,-6
3833,264,-293,1071,5,-72,-10
3834,558,-513,1029,-10,-21,17
3835,134,-393,347,39,72,56
3836,-223,567,1136,426,56,-17
3837,-501,694,1002,-4,6,8
3838,-362,51,577,-274,-27,0
3839,93,110,1308,52,-113,31
3840,599,52,1037,-124,-60,6
3841,597,-527,504,-273,41,14
3842,-69,-485,707,160,125,6
3843,-328,462,501,240,59,40
3844,-808,391,1085,-24,-1,39
3845,-154,-527,380,-320,-93,-13
3846,307,351,1488,432,-110,23
3847,554,77,903,-278,-21,-28
3848,440,-298,948,-34,36,8
3849,-80,189,997,111,94,34
3850,-474,98,995,-101,45,13
3851,-514,-349,767,-149,-9,-7
3852,-39,-125,989,131,-87,-16
3853,385,46,1273,45,-78,-10
3854,489,-171,853,-67,5,2
3855,106,157,1033,143,62,10
3856,-300,244,1055,-36,51,14
3857,-441,-49,801,-109,12,3
3858,-221,-64,964,5,-59,-11
3859,304,-69,1168,-6,-79,-11
3860,458,-184,982,-57,-10,0
3861,228,-17,991,69,48,3
3862,-177,115,1017,1,60,20
3863,-473,-16,825,-55,32,15
3864,-359,-59,913,2,-44,-14
3865,118,-64,1111,11,-88,-18
3866,483,-81,1071,-1,-46,-5
3867,395,-154,982,-3,20,-15
3868,125,-618,166,-145,85,-182
3869,-520,209,541,414,89,79
3870,-597,1146,849,165,-47,184
3871,-276,-66,763,-498,-84,5
3872,404,-149,810,153,-89,-18
3873,609,348,1277,-65,-42,10
3874,378,-512,857,-293,73,9
3875,-84,-233,798,63,96,19
3876,-556,2,1078,73,58,18
3877,-447,-732,336,-234,-15,-48
3878,-232,-85,871,369,-89,46
3879,420,790,1324,266,-114,19
3880,498,7,793,-311,0,-62
3881,175,-86,866,93,63,-38
3882,-192,470,1160,60,46,51
3883,-382,15,949,-200,19,12
3884,-247,-341,750,-136,-37,-19
3885,227,-133,1151,106,-61,-10
3886,368,-132,1092,-83,-19,18
3887,130,-343,849,21,44,-2
3888,-160,-345,323,-45,47,27
3889,-365,280,791,363,-21,27
3890,-68,680,939,18,-44,-3
3891,177,137,1057,-156,-56,-12
3892,336,-325,724,-165,-12,-5
3893,349,80,1094,140,24,10
3894,-118,31,826,-157,76,35
3895,-453,-288,921,-72,36,17
3896,-344,-77,683,66,-28,-25
3897,-125,-53,1231,10,-75,-7
3898,508,-334,729,-65,-70,-9
3899,461,146,1267,230,6,16
3900,79,224,962,-46,74,-2
3901,-238,77,1001,-24,51,30
3902,-567,181,832,-21,21,17
3903,-257,-53,1015,-92,-71,-19
3904,264,-285,964,-75,-84,-17
3905,479,-136,1156,68,-28,-4
3906,401,-76,942,-10,41,10
3907,-100,58,1033,42,77,27
3908,-493,96,839,-10,51,22
3909,-514,17,943,-25,-28,-11
3910,-71,-67,1001,-12,-93,-19
3911,497,-5,1130,27,-81,-7
3912,560,-6,1046,-20,10,-1
3913,172,4,1020,-24,74,14
3914,-292,75,940,-19,79,29
3915,-573,4,879,-57,26,7
3916,-352,-420,911,-88,-57,-10
3917,109,-595,63,-36,-110,20
3918,543,406,1176,500,-41,-34
3919,403,342,901,-43,24,11
3920,-160,-216,87,-334,77,168
3921,-361,694,826,547,36,86
3922,-281,549,383,-365,-25,-8
3923,-33,-64,1242,-39,-61,-32
3924,351,-270,661,-213,-36,0
3925,399,21,1298,122,6,-1
3926,110,-410,708,-275,67,20
3927,-212,-197,880,128,75,27
3928,-553,-157,977,6,19,16
3929,-384,-871,166,-134,-68,88
3930,130,429,1230,583,-120,-10
3931,670,616,727,-15,-48,-79
3932,214,496,1201,1,50,9
3933,70,193,825,-219,44,26
3934,-261,361,1170,41,51,4
3935,-508,-1069,699,-514,22,97
3936,-319,-124,526,359,-112,221
3937,667,6,700,-69,-78,-179
3938,264,147,640,259,48,-66
3939,91,464,1016,-44,21,71
3940,-122,365,1082,28,37,30
3941,-498,350,797,-126,43,-37
3942,-193,-368,789,-260,-64,-21
3943,284,-860,1039,-99,-80,94
3944,267,-168,851,249,-3,11
3945,454,273,1102,137,31,-119
3946,-262,244,978,-25,70,63
3947,-341,-69,963,-109,18,59
3948,-477,20,741,-8,-35,40
3949,92,124,1108,95,-86,-84
3950,529,-114,994,-102,-49,4
3951,287,-53,1071,-31,25,50
3952,206,-79,985,33,55,-36
3953,-438,289,1046,49,81,33
3954,-463,-209,640,-227,-5,26
3955,-284,-190,1052,88,-72,-14
3956,253,14,1137,52,-86,-45
3957,550,-101,1025,-27,-36,-1
3958,626,-411,1047,-7,41,34
3959,-240,-169,239,-13,108,114
3960,-528,577,1121,339,62,-21
3961,-706,496,602,-117,-43,17
3962,-107,51,987,-165,-101,-30
3963,582,-58,1169,-29,-116,11
3964,594,-1,1079,-77,3,-27
3965,268,-491,849,-194,89,-9
3966,-206,-100,1036,139,87,43
3967,-538,-243,790,-90,42,41
3968,-614,-310,715,44,-35,17
3969,181,103,1201,215,-130,-45
3970,401,457,1328,152,-60,4
3971,451,-13,817,-206,18,-18
3972,283,-394,643,-51,55,57
3973,-540,372,699,240,75,31
3974,-391,416,745,-84,-8,-33
3975,-268,31,1144,-111,-60,-21
3976,373,-298,751,-171,-95,-2
3977,487,30,1260,123,-5,-15
3978,287,-457,655,-260,54,8
3979,-253,-536,349,93,92,34
3980,-540,407,851,316,14,19
3981,-425,488,1106,53,-54,-22
3982,148,-86,742,-230,-96,-26
3983,609,249,1252,204,-77,23
3984,389,265,1166,-150,52,-22
3985,36,-379,768,-235,69,3
3986,-414,-39,946,87,65,35
3987,-490,-128,857,-84,0,-19
3988,-152,-454,903,-50,-74,-27
3989,304,-151,1104,157,-83,3
3990,453,151,1161,114,-18,-2
3991,175,114,911,-9,48,0
3992,-198,284,1000,62,52,27
3993,-427,211,950,-80,13,15
3994,-235,-125,939,-122,-48,-22
3995,242,-184,1044,-14,-72,-7
3996,441,-124,1096,-7,-22,3
3997,265,-163,942,-24,44,8
3998,-170,-14,955,49,67,26
3999,-471,74,922,15,28,17
4000,-377,-56,874,-31,-42,-8
4001,77,-46,1053,43,-88,-15
4002,485,35,1152,37,-57,-4
4003,447,18,1014,-22,21,4
4004,39,98,1002,8,73,19
4005,-485,-52,1080,-78,55,12
4006,-345,-844,6,-169,14,-148
4007,-340,250,989,426,-77,81
4008,388,841,1325,103,-118,67
4009,525,-103,676,-364,-8,-61
4010,253,22,906,142,61,-30
4011,-43,282,1227,-104,49,50
4012,-440,-337,708,-239,59,36
4013,-437,-333,752,2,-9,-18
4014,-94,-322,1015,34,-86,-26
4015,416,-162,1231,104,-72,-2
4016,391,-59,817,43,4,5
4017,104,287,1152,182,46,4
4018,-445,158,1202,-80,46,20
4019,-382,-485,75,-169,-5,-76
4020,-80,388,1151,369,-91,27
4021,479,649,1249,-39,-73,30
4022,479,-153,760,-331,16,-25
4023,27,-192,912,39,82,-20
4024,-145,-237,809,-146,53,-8
4025,-545,-286,653,9,26,62
4026,-340,119,969,122,-53,9
4027,124,-295,1100,-116,-88,-49
4028,433,-215,852,139,-37,-21
4029,413,367,1211,161,1,21
4030,99,194,1104,-65,70,-1
4031,-395,131,782,-52,62,22
4032,-494,154,960,-28,-7,-9
4033,-142,-138,1025,-131,-73,-11
4034,308,-234,947,-32,-71,-8
4035,277,-1006,325,-189,-23,-74
4036,350,38,754,560,27,-54
4037,46,868,414,54,33,24
4038,-307,575,1362,16,28,-6
4039,-338,88,263,-307,10,-26
4040,23,230,1381,116,-81,-12
4041,355,-163,862,-321,-30,4
4042,311,-397,1009,-52,28,-12
4043,-6,-331,961,-26,55,7
4044,-252,-155,942,49,48,13
4045,-465,-178,780,-3,7,20
4046,-165,-824,155,-91,-80,-54
4047,244,306,647,653,-92,-8
4048,446,914,496,58,-63,-7
4049,89,330,935,-196,43,-64
4050,117,253,381,-12,62,-70
4051,-199,656,847,16,22,-1
4052,-393,-140,876,-421,23,3
4053,-57,-825,617,-243,-37,0
4054,203,-318,1120,204,-41,-3
4055,296,-297,1092,-51,0,-2
4056,6,-617,292,-22,56,21
4057,-271,442,1229,438,21,10
4058,-342,488,1020,-33,-27,3
4059,-73,83,856,-95,-44,-11
4060,308,275,1151,79,-67,-8
4061,512,216,1266,-112,-12,3
4062,154,-284,757,-251,80,17
4063,-207,-675,437,-123,61,46
4064,-544,-4,824,276,23,70
4065,-214,221,638,44,-65,-26
4066,-36,-4,1406,77,-68,-6
4067,224,-540,-239,-213,-64,104
4068,421,1007,1457,679,-38,-62
4069,287,643,424,-341,69,-99
4070,-202,-81,797,-210,65,-16
4071,-483,115,967,-15,19,35
4072,-168,-78,1048,-177,-38,-32
4073,89,-654,786,-204,-41,-9
4074,245,-1160,720,-60,-28,98
4075,19,-24,502,490,-4,177
4076,215,765,721,223,15,-213
4077,-307,525,665,40,49,-97
4078,-147,486,814,-110,-39,7
4079,14,302,1293,-94,-43,15
4080,279,105,696,-181,-1,-24
4081,324,-782,870,-296,8,37
4082,-181,-510,508,67,61,87
4083,-100,121,973,139,29,-81
4084,-595,-62,733,-18,15,-16
4085,15,-434,942,-60,-91,32
4086,190,152,1074,254,-68,36
4087,506,370,1222,95,-12,-92
4088,142,120,748,-137,50,44
4089,-75,227,1157,53,46,32
4090,-502,-84,952,-144,29,41
4091,-452,-166,598,-155,-43,65
4092,339,-107,1233,138,-110,-79
4093,447,-59,1108,-12,-9,-5
4094,286,-174,905,-103,29,56
4095,226,-216,933,74,63,-5
4096,-636,413,952,201,88,16
4097,-377,-109,621,-253,-30,29
4098,-303,-76,1085,121,-77,32
4099,414,87,969,-11,-84,-31
4100,493,77,1159,39,-14,-2
4101,259,-101,946,-130,54,19
4102,-159,111,1014,96,67,22
4103,-566,78,903,-114,39,6
4104,-369,-210,783,-62,-53,-22
4105,130,-115,1207,46,-91,-7
4106,448,-93,977,-15,-53,4
4107,481,-43,1047,36,28,-18
4108,-33,171,1022,43,74,30
4109,-396,123,939,-70,53,19
4110,-120,-1058,89,-284,-23,35
4111,-440,256,609,620,-17,91
4112,301,763,465,-74,-105,-30
4113,182,640,1196,157,-24,-22
4114,289,152,668,-410,28,-11
4115,55,155,1215,85,21,26
4116,-267,-37,800,-306,45,4
4117,-260,-726,695,-183,10,-60
4118,-33,-448,1132,108,-46,-26
4119,238,-371,960,22,-48,1
4120,238,-122,1049,167,22,6
4121,15,262,924,140,22,23
4122,-303,412,1092,78,17,13
4123,-300,200,872,-93,-13,-8
4124,43,-201,754,-84,-70,-31
4125,352,-324,202,-16,-35,-16
4126,354,533,847,227,18,39
4127,54,314,1202,-144,47,17
4128,-287,-283,583,-271,56,-12
4129,-459,-6,1001,118,6,8
4130,-179,-179,948,-155,-67,-8
4131,211,-583,870,-60,-74,-23
4132,461,-133,1176,202,-19,-3
4133,306,132,1066,73,30,15
4134,-99,164,942,17,70,26
4135,-432,323,911,43,42,36
4136,-460,142,964,-105,-40,-7
4137,-3,-149,993,-78,-80,-33
4138,445,-101,1111,2,-61,-9
4139,521,-153,1022,-46,4,7
4140,47,-563,641,-113,77,-18
4141,-257,-450,348,179,89,-16
4142,-522,899,731,362,-31,92
4143,-282,599,1347,-119,-66,27
4144,252,-309,394,-323,-72,-64
4145,494,359,1363,295,-52,-3
4146,650,-622,630,-464,47,-83
4147,-240,-347,740,210,136,51
4148,-547,678,932,113,27,133
4149,-498,-301,958,-311,-41,-29
4150,-225,-412,639,77,-64,-65
4151,485,-82,1106,140,-93,-54
4152,476,118,1110,35,-24,78
4153,245,-52,774,-27,49,-24
4154,-198,217,842,139,70,8
4155,-516,483,976,-4,9,49
4156,-213,-238,761,-266,-42,-30
4157,76,-144,920,82,-67,-14
4158,527,21,1235,5,-48,-4
4159,348,-309,773,-160,41,21
4160,-116,-71,975,139,79,10
4161,-468,156,1037,22,36,19
4162,-429,-125,770,-75,-30,-1
4163,-36,-51,988,73,-85,-15
4164,451,81,1239,59,-75,-8
4165,510,3,985,-48,11,7
4166,134,109,998,31,72,8
4167,-302,150,1004,-45,66,27
4168,-539,-62,818,-105,17,10
4169,-326,-201,925,-38,-62,-20
4170,252,-215,1076,14,-98,-21
4171,526,-48,1087,60,-35,13
4172,386,92,1013,30,42,10
4173,-184,-214,940,-81,74,18
4174,-310,-519,-230,-8,56,13
4175,-289,751,737,445,-83,40
4176,117,775,953,-37,-87,3
4177,458,-62,743,-366,-30,-31
4178,417,35,931,108,27,-4
4179,49,-115,746,-261,66,44
4180,-291,-584,586,7,54,68
4181,-127,439,345,216,-29,-32
4182,-427,262,1104,17,-18,-55
4183,293,-506,312,-284,-88,-18
4184,382,-152,639,253,-48,56
4185,245,240,485,110,64,-19
4186,106,274,642,-48,36,-6
4187,-503,469,1111,62,42,47
4188,-397,-49,689,-310,-8,-37
4189,13,-298,929,-26,-84,-18
4190,405,-205,995,-44,-61,16
4191,421,-387,896,-53,27,-3
4192,57,-202,1039,96,61,6
4193,-298,134,939,101,51,32
4194,-481,-178,768,-65,7,29
4195,-274,-397,552,71,-64,14
4196,-202,-529,-116,-24,-103,191
4197,103,1110,760,817,-83,57
4198,464,820,96,-366,-5,-115
4199,229,435,958,29,44,-35
4200,-97,594,948,-230,78,12
4201,-359,-239,931,-379,34,10
4202,-172,-644,534,-228,12,6
4203,-25,-527,1180,-1,-43,-54
4204,201,-639,853,-31,6,-13
4205,69,-323,785,155,12,10
4206,-120,-376,1368,149,2,38
4207,-294,-321,-106,26,-25,154
4208,-84,908,1289,585,-48,-55
4209,242,758,604,-115,-63,-54
4210,312,637,1088,-54,-4,29
4211,257,284,1043,-257,38,36
4212,-3,-929,939,-349,56,112
4213,-534,-176,226,138,35,392
4214,21,-366,684,-178,-86,-81
4215,-15,-28,519,407,8,-151
4216,222,448,1075,-39,-46,5
4217,357,-60,794,-91,-18,44
4218,17,620,955,204,61,-15
4219,-160,-5,1036,-260,49,20
4220,-552,-879,96,-296,-22,188
4221,-118,261,1255,427,-69,-79
4222,390,90,694,-117,-34,-129
4223,337,25,1092,9,-21,52
4224,313,-276,792,-140,36,106
4225,-282,403,1163,266,80,-26
4226,-375,-17,696,-231,22,-62
4227,-435,-46,880,26,-43,50
4228,141,-111,1163,-65,-86,-21
4229,654,-598,947,-48,-55,7
4230,250,-252,491,47,64,40
4231,47,666,1068,410,56,-37
4232,-600,639,996,-140,59,16
4233,-407,-326,751,-295,-23,-2
4234,-145,-276,714,-36,-113,54
4235,471,162,1082,197,-70,-81
4236,521,-162,767,-218,2,-3
4237,190,-150,974,38,62,26
4238,-125,-29,976,11,69,33
4239,-587,128,901,7,57,16
4240,-424,-190,661,-101,-50,-22
4241,4,19,1227,149,-99,-20
4242,719,-977,299,-265,-89,20
4243,131,329,761,699,81,33
4244,57,1147,546,-6,43,-31
4245,-486,498,954,-100,43,18
4246,-545,140,569,-330,7,21
4247,-123,49,1407,-17,-124,23
4248,583,-432,826,-297,-85,-40
4249,468,-638,942,-51,34,-20
4250,259,-398,1073,73,67,7
4251,-185,-120,898,89,66,40
4252,-588,160,905,116,68,36
4253,-219,-518,236,-216,-69,-5
4254,-210,254,595,561,-85,45
4255,458,1027,479,161,-108,16
