sequence,AccelerometerX,AccelerometerY,AccelerometerZ,GyroscopeX,GyroscopeY,GyroscopeZ
0,-84,190,981,-1045,17,34
1,-63,151,950,-1057,6,26
2,0,143,952,-1066,-6,12
3,60,151,960,-1068,-2,7
4,67,157,970,-1096,10,14
5,27,180,971,-1105,24,24
6,-49,184,982,-1133,28,36
7,-69,157,967,-1142,18,36
8,-59,115,955,-1149,9,29
9,13,97,958,-1147,0,19
10,64,101,965,-1165,6,17
11,64,111,971,-1174,18,23
12,5,116,981,-1185,28,33
13,-58,115,986,-1197,30,42
14,-81,86,965,-1208,19,48
15,-49,56,961,-1211,10,42
16,1,45,962,-1209,4,34
17,66,67,962,-1213,6,30
18,56,74,986,-1217,17,32
19,17,76,979,-1227,26,44
20,-45,72,986,-1243,30,63
21,-33,44,961,-1269,23,100
22,-17,18,935,-1288,23,135
23,-14,39,963,-1294,28,152
24,-11,83,976,-1306,25,158
25,-22,76,973,-1323,24,161
26,-41,77,966,-1325,23,163
27,-79,79,990,-1337,20,163
28,-49,48,948,-1347,10,155
29,15,34,961,-1350,4,139
30,61,44,979,-1350,9,120
31,65,57,973,-1353,18,105
32,28,51,964,-1365,28,103
33,-66,-18,1010,-1379,31,111
34,-530,-1704,1840,-1150,-23,72
35,-181,-599,1237,-534,-203,24
36,-51,-197,170,-486,-164,-12
37,-151,-204,60,-460,-235,-99
38,951,-698,1078,-367,-149,65
39,717,-658,965,-244,134,146
40,-37,-184,693,-137,283,162
41,-438,-381,748,-93,243,54
42,-636,-712,1633,7,64,-188
43,-328,56,458,61,-34,-284
44,90,-143,718,27,-37,-310
45,60,-406,1013,81,16,-280
46,-295,-250,1177,144,22,-239
47,158,-102,958,145,-40,-290
48,45,-118,934,152,9,-247
49,33,13,863,159,31,-214
50,68,-183,1150,168,12,-213
51,87,74,988,189,10,-201
52,5,56,974,150,26,-195
53,-22,-12,1026,141,21,-177
54,-145,45,1079,138,9,-158
55,-21,161,1035,106,-5,-155
56,3,94,1067,59,0,-155
57,46,152,1042,38,3,-140
58,78,125,1062,8,-5,-133
59,65,164,1072,-23,4,-110
60,-11,133,1073,-67,10,-89
61,-41,160,1100,-102,4,-68
62,-28,163,1081,-154,-2,-56
63,17,195,1075,-196,-6,-39
64,54,175,1060,-243,-8,-27
65,76,166,1084,-282,-4,-11
66,21,178,1058,-322,5,7
67,-28,163,1088,-360,5,18
68,-73,172,1070,-397,2,14
69,-61,182,1062,-432,0,6
70,-20,176,1050,-473,-6,-6
71,13,167,1059,-505,-7,-5
72,30,141,1055,-543,-7,0
73,0,135,1064,-575,-4,13
74,-42,134,1057,-608,-5,16
75,-51,129,1066,-639,-10,9
76,-43,138,1047,-670,-11,-1
77,2,151,1034,-704,-11,-7
78,39,123,1048,-734,-8,-9
79,21,119,1057,-763,-4,-1
80,-6,104,1042,-796,-4,8
81,-51,89,1056,-822,-5,13
82,-63,122,1043,-850,-13,6
83,-37,117,1043,-882,-15,-6
84,17,124,1039,-911,-14,-16
85,43,129,1039,-945,-7,-16
86,26,107,1031,-976,-4,-7
87,-6,79,1056,-1004,-5,6
88,-49,96,1045,-1032,-7,10
89,-58,98,1047,-1064,-14,8
90,-19,102,1037,-1095,-19,-4
91,7,81,1024,-1126,-15,-6
92,50,77,1007,-1154,-11,-5
93,24,30,1021,-1178,-5,8
94,0,8,1022,-1196,-7,15
95,-51,0,1026,-1211,-9,20
96,-37,4,1011,-1233,-15,17
97,-5,-4,998,-1248,-16,8
98,22,-16,970,-1262,-10,4
99,55,-44,976,-1275,-5,7
100,25,-76,968,-1283,1,16
101,-10,-108,997,-1281,2,23
102,-65,-117,989,-1282,-4,27
103,-49,-115,972,-1283,-14,21
104,-8,-118,947,-1286,-17,12
105,17,-133,935,-1280,-14,10
106,41,-167,922,-1273,-7,8
107,18,-209,939,-1262,1,14
108,-28,-236,959,-1244,3,13
109,-64,-230,951,-1223,-3,11
110,-51,-239,931,-1210,-12,3
111,-7,-234,913,-1193,-16,-1
112,35,-228,897,-1172,-12,-3
113,48,-268,915,-1153,-5,-3
114,19,-289,919,-1127,6,-2
115,-38,-305,942,-1099,8,-2
116,-70,-283,940,-1077,2,-2
117,-56,-283,924,-1052,-7,-9
118,-11,-268,900,-1031,-11,-14
119,28,-271,903,-1009,-7,-18
120,31,-302,904,-988,2,-21
121,-1,-340,925,-959,9,-16
122,-48,-342,935,-927,6,-14
123,-52,-315,933,-901,-3,-13
124,-20,-304,923,-878,-11,-16
125,25,-287,916,-857,-8,-19
126,58,-281,895,-840,3,-27
127,34,-330,920,-815,17,-32
128,-5,-336,928,-784,20,-24
129,-71,-341,947,-758,12,-11
130,-51,-302,943,-737,-4,-3
131,-25,-297,935,-722,-13,-2
132,27,-308,899,-703,-10,-4
133,55,-322,909,-679,2,-6
134,22,-355,909,-655,12,-1
135,-26,-396,933,-624,16,3
136,-79,-405,931,-594,8,5
137,-73,-400,907,-558,-4,1
138,-23,-384,880,-524,-12,-7
139,11,-419,877,-489,-9,-11
140,50,-435,863,-449,-2,-14
141,22,-482,878,-405,10,-9
142,-21,-510,891,-352,12,-9
143,-58,-518,888,-298,7,-8
144,-44,-515,863,-245,-2,-9
145,1,-495,851,-194,-7,-13
146,27,-508,835,-141,0,-13
147,42,-541,839,-82,8,-15
148,10,-571,850,-20,13,-16
149,-35,-581,865,49,13,-13
150,-59,-559,872,115,6,-15
151,-45,-545,853,172,-2,-20
152,14,-517,831,230,-3,-26
153,46,-516,841,289,5,-29
154,42,-529,843,347,13,-28
155,6,-548,867,408,19,-24
156,-46,-537,876,470,16,-21
157,-58,-491,875,524,8,-21
158,-39,-477,874,577,3,-26
159,14,-436,855,623,3,-33
160,45,-435,862,665,11,-35
161,34,-444,877,714,19,-32
162,-10,-440,903,757,22,-24
163,-66,-418,904,801,17,-18
164,-62,-374,908,840,6,-23
165,-34,-338,909,872,2,-33
166,14,-331,887,901,7,-45
167,45,-325,884,936,15,-59
168,32,-334,898,981,28,-76
169,-18,-327,909,1024,41,-95
170,-90,-334,919,1061,43,-118
171,-84,-302,917,1095,36,-142
172,-48,-269,898,1127,31,-165
173,9,-258,897,1152,33,-180
174,21,-265,904,1172,42,-188
175,-10,-274,929,1193,48,-178
176,-47,-272,954,1213,40,-169
177,-63,-236,952,1229,31,-163
178,-43,-209,936,1240,24,-164
179,8,-166,940,1247,24,-169
180,31,-185,942,1251,32,-171
181,32,-177,934,1262,38,-168
182,-7,-172,950,1272,42,-163
183,-55,-166,963,1279,40,-160
184,-81,-135,982,1286,30,-162
185,-60,-97,962,1282,23,-171
186,-5,-65,956,1279,20,-182
187,26,-61,960,1275,25,-191
188,17,-68,986,1267,31,-189
189,-9,-74,992,1261,35,-180
190,-56,-61,1007,1254,31,-169
191,-54,-21,1007,1239,22,-166
192,-40,-16,1003,1219,19,-165
193,17,0,984,1197,19,-162
194,47,-11,1000,1177,21,-154
195,31,-18,1001,1162,24,-135
196,-5,-27,1026,1143,24,-115
197,-52,-37,1024,1123,18,-96
198,-44,6,1013,1106,8,-83
199,-8,5,1011,1082,4,-79
200,40,-4,993,1063,6,-73
201,59,-10,990,1050,9,-62
202,31,-28,1003,1039,13,-46
203,-5,-46,1021,1025,12,-28
204,-59,-49,1003,1017,10,-15
205,-40,-33,996,1007,0,-14
206,1,-37,971,1002,-3,-18
207,43,-49,960,1003,1,-19
208,56,-70,967,1006,7,-18
209,16,-101,979,1011,12,-6
210,-24,-121,970,1023,12,3
211,-59,-134,960,1034,9,4
212,-41,-136,929,1054,3,-4
213,11,-147,922,1076,3,-15
214,31,-179,918,1105,9,-25
215,20,-199,899,1138,13,-23
216,-5,-234,902,1176,13,-21
217,-43,-238,899,1221,12,-22
218,-64,-245,885,1269,8,-33
219,-2,1239,1556,1262,-8,-46
220,-26,1102,1385,546,-44,-7
221,-66,89,1,345,-44,42
222,76,-461,-150,450,-157,48
223,281,-9,511,518,-173,151
224,1347,414,1725,595,54,109
225,-566,689,1774,434,420,52
226,-566,9,522,233,107,343
227,-169,-521,339,306,-77,500
228,-227,225,831,422,-48,464
229,-375,714,1678,325,12,284
230,-311,-120,981,186,10,114
231,-176,-299,554,305,-72,200
232,128,297,1181,403,-86,204
233,155,174,1277,314,-40,62
234,246,-286,827,319,-20,24
235,309,-66,933,414,-12,34
236,142,51,1194,408,39,19
237,-150,-79,913,384,60,-1
238,-202,-87,975,415,16,-5
239,-203,-63,1002,438,-13,-6
240,-130,-23,1006,443,-23,-8
241,8,-81,955,452,-45,-17
242,135,-14,1042,474,-42,-14
243,135,37,987,470,-14,-6
244,68,-1,1037,470,8,-9
245,-45,21,985,477,12,-4
246,-63,0,1016,475,6,-11
247,-46,-37,969,480,-1,-29
248,-8,-22,1000,491,-9,-28
249,31,-6,977,494,-9,-22
250,0,14,1020,499,-2,-15
251,-37,19,995,501,1,-3
252,-67,-6,1023,503,-2,-2
253,-39,-34,982,514,-12,-11
254,23,-58,999,525,-18,-19
255,78,-64,988,544,-14,-28
256,71,-53,1013,561,0,-27
257,15,-31,997,572,11,-22
258,-64,-36,1027,585,14,-19
259,-102,-55,999,600,5,-19
260,-81,-93,1001,621,-10,-27
261,1,-107,978,649,-21,-34
262,52,-98,1008,677,-21,-35
263,69,-87,1015,700,-9,-32
264,17,-73,1014,723,3,-25
265,-47,-64,1010,746,7,-20
266,-79,-80,1011,770,0,-27
267,-65,-98,991,800,-13,-39
268,6,-103,982,829,-24,-49
269,62,-77,993,856,-19,-53
270,51,-43,1005,878,-9,-48
271,6,-14,1012,892,1,-37
272,-71,-8,1000,908,4,-32
273,-82,-3,989,925,-6,-35
274,-61,-23,983,941,-19,-47
275,7,-22,975,964,-27,-62
276,49,9,972,985,-25,-76
277,37,37,993,999,-14,-84
278,-28,75,998,1015,-8,-94
279,-70,77,996,1022,-13,-99
280,-67,72,973,1027,-24,-110
281,-30,74,961,1039,-31,-126
282,18,92,956,1043,-38,-143
283,69,125,976,1037,-35,-148
284,53,158,970,1027,-22,-131
285,11,189,988,1005,-10,-102
286,-57,194,976,981,-3,-74
287,-69,201,961,959,-11,-57
288,-32,203,954,939,-19,-55
289,16,197,961,924,-24,-65
290,49,223,951,905,-21,-68
291,44,244,971,883,-10,-60
292,1,260,982,853,-1,-39
293,-46,260,981,825,2,-18
294,-65,244,953,798,-2,-14
295,-22,241,942,779,-12,-22
296,27,245,950,760,-17,-32
297,56,261,971,737,-12,-34
298,25,278,966,710,0,-26
299,-35,285,981,683,9,-14
300,-65,286,976,656,2,-6
301,-61,262,962,636,-8,-14
302,2,246,936,614,-17,-27
303,58,258,953,595,-16,-33
304,61,281,969,572,-7,-28
305,17,304,981,543,6,-18
306,-50,309,976,514,10,-10
307,-77,302,971,489,2,-9
308,-51,273,956,465,-11,-18
309,12,254,953,443,-17,-29
310,64,276,944,424,-14,-30
311,55,290,979,399,-2,-22
312,7,306,982,372,9,-11
313,-69,306,980,347,11,-2
314,-75,291,966,321,1,-6
315,-41,262,954,301,-11,-18
316,32,246,938,284,-17,-28
317,73,271,966,267,-12,-29
318,55,297,972,242,4,-17
319,-8,307,992,216,13,-5
320,-73,304,975,191,12,2
321,-81,281,970,168,2,-3
322,-25,266,945,150,-11,-14
323,25,251,955,132,-14,-21
324,70,274,959,113,-9,-18
325,33,303,977,89,4,-6
326,-19,319,994,64,13,4
327,-79,313,977,38,10,6
328,-59,285,958,14,-2,-1
329,-3,274,945,-6,-13,-12
330,55,276,955,-26,-12,-17
331,69,296,964,-50,-2,-11
332,30,329,975,-77,11,0
333,-40,339,982,-104,18,10
334,-74,321,984,-133,14,12
335,-58,284,951,-157,3,3
336,6,273,939,-178,-8,-8
337,63,278,955,-198,-6,-12
338,68,292,978,-222,4,-7
339,18,317,972,-249,17,7
340,-46,324,984,-277,23,16
341,-73,303,970,-304,18,15
342,-58,265,960,-325,6,5
343,13,250,947,-344,-3,-4
344,68,263,957,-359,-2,-8
345,62,274,971,-384,19,4
346,8,295,993,-403,27,14
347,-59,293,979,-430,25,21
348,-71,261,970,-450,15,18
349,-37,232,953,-467,5,8
350,24,208,955,-479,-1,-2
351,77,223,959,-492,4,-3
352,50,244,979,-510,15,4
353,-6,259,987,-527,24,15
354,-76,247,990,-547,24,21
355,-73,217,971,-562,14,18
356,-35,190,952,-570,2,6
357,28,168,957,-579,0,-2
358,66,187,967,-590,5,2
359,42,205,986,-599,17,13
360,-24,220,1000,-612,25,25
361,-81,200,989,-627,21,30
362,-70,163,958,-633,11,22
363,-17,150,962,-637,1,11
364,40,148,965,-639,-2,3
365,61,151,978,-644,4,5
366,26,182,981,-654,14,15
367,-40,202,1002,-663,18,24
368,-76,187,988,-676,13,26
369,-71,147,963,-687,3,20
370,-6,151,951,-687,-6,9
371,45,155,975,-694,-9,2
372,63,164,981,-703,0,5
373,23,196,978,-716,15,17
374,-43,202,996,-731,19,27
375,-74,195,980,-748,14,30
376,-63,161,960,-761,3,24
377,-4,153,954,-767,-5,12
378,55,182,967,-778,-5,7
379,53,188,975,-796,4,11
380,15,206,983,-814,14,20
381,-53,215,984,-835,19,33
382,-64,201,972,-855,12,35
383,-47,170,964,-872,3,28
384,13,152,947,-885,-3,19
385,60,172,966,-900,2,13
386,56,191,971,-919,11,17
387,4,200,992,-942,22,25
388,-55,193,983,-961,24,33
389,-67,175,965,-985,15,38
390,-20,144,950,-1002,5,34
391,15,132,946,-1012,3,27
392,58,165,965,-1029,8,23
393,36,176,983,-1048,18,24
394,-5,181,987,-1069,22,37
395,-48,168,977,-1101,23,57
396,-33,138,953,-1132,18,79
397,4,119,941,-1162,13,106
398,30,118,950,-1185,22,130
399,29,146,962,-1210,30,146
400,-5,161,975,-1239,35,165
401,-51,138,971,-1270,34,186
402,-80,127,966,-1292,29,209
403,-78,89,942,-1316,20,223
404,-21,71,952,-1332,12,223
405,14,73,962,-1338,12,214
406,34,76,980,-1345,17,206
407,11,80,973,-1355,23,202
408,-30,64,974,-1366,26,208
409,-60,45,968,-1380,23,218
410,-56,11,952,-1385,17,216
411,-15,0,962,-1384,10,203
412,26,13,981,-1379,9,186
413,35,17,981,-1378,14,175
414,5,8,977,-1385,22,176
415,-498,-914,1428,-1341,13,167
416,-203,-1431,1764,-693,-186,50
417,-10,-16,566,-416,-182,73
418,-196,-15,-114,-458,-207,-47
419,265,-504,569,-404,-262,-32
420,1290,-633,1244,-289,-73,114
421,160,-595,942,-183,240,197
422,-5,140,264,-108,301,205
423,-607,-723,1253,-96,264,48
424,-675,-516,1356,57,42,-203
425,-222,125,555,53,-53,-295
426,231,-282,785,37,-32,-358
427,-209,-287,921,93,40,-311
428,-127,-292,1158,133,4,-289
429,22,-292,1054,174,-37,-334
430,6,150,735,192,10,-275
431,89,-205,970,158,25,-286
432,71,-194,1176,224,15,-268
433,38,108,877,234,7,-268
434,111,-23,994,195,21,-266
435,-118,-75,1032,212,29,-244
436,-134,98,1038,215,8,-231
437,4,74,1025,173,-8,-248
438,65,158,1160,149,5,-224
439,185,356,1232,61,10,-170
440,102,248,1091,-49,-4,-73
441,44,224,935,-99,-17,-18
442,-26,89,1116,-121,2,-11
443,-125,149,1132,-135,14,-53
444,-92,162,1045,-174,6,-94
445,-24,189,959,-203,-3,-98
446,3,165,1067,-227,-8,-90
447,40,163,1106,-263,-11,-86
448,22,157,1106,-305,-2,-78
449,-12,176,1052,-347,3,-68
450,-18,176,1076,-387,-2,-52
451,19,195,1077,-427,-7,-48
452,44,191,1093,-472,-2,-43
453,57,200,1054,-518,3,-38
454,19,169,1075,-556,5,-22
455,-26,173,1074,-600,5,-7
456,-74,166,1090,-643,0,3
457,-47,192,1070,-685,-10,-3
458,-18,190,1068,-728,-12,-7
459,38,185,1051,-768,-11,-13
460,50,165,1065,-809,-5,-4
461,18,148,1055,-848,-2,7
462,-14,118,1060,-884,-4,18
463,-61,131,1053,-913,-4,21
464,-51,131,1053,-948,-10,9
465,-21,130,1036,-980,-9,-3
466,5,100,1023,-1010,-8,-8
467,31,93,1021,-1038,-8,-2
468,3,69,1023,-1066,-6,10
469,-17,49,1045,-1086,-7,15
470,-59,53,1037,-1109,-9,13
471,-44,57,1011,-1130,-12,4
472,2,48,1013,-1153,-14,-5
473,17,44,1000,-1174,-9,-7
474,28,18,992,-1196,-7,-3
475,3,-14,1010,-1209,-5,6
476,-42,-26,1016,-1219,-5,12
477,-66,-16,1006,-1235,-12,13
478,-40,-31,994,-1246,-18,3
479,5,-17,979,-1258,-18,-7
480,36,-33,974,-1271,-11,-12
481,44,-76,973,-1280,-4,-11
482,8,-110,964,-1282,-1,-2
483,-40,-129,977,-1276,-5,7
484,-53,-116,984,-1275,-16,8
485,-42,-123,971,-1276,-24,2
486,-1,-110,944,-1277,-23,-7
487,36,-110,947,-1280,-15,-16
488,30,-143,957,-1281,-3,-28
489,-7,-196,958,-1275,9,-38
490,-72,-203,954,-1259,9,-42
491,-88,-172,949,-1247,-7,-41
492,-57,-158,971,-1245,-18,-50
493,-9,-143,963,-1251,-16,-75
494,34,-149,946,-1260,0,-109
495,23,-202,940,-1259,19,-143
496,-14,-259,934,-1248,33,-165
497,-85,-292,924,-1222,33,-169
498,-77,-275,931,-1196,16,-167
499,-40,-262,935,-1178,2,-164
500,16,-256,914,-1167,0,-170
501,76,-278,912,-1156,11,-189
502,67,-336,898,-1134,35,-205
503,30,-386,886,-1098,51,-209
504,-37,-421,894,-1049,51,-197
505,-55,-411,888,-1000,38,-175
506,-26,-378,891,-960,17,-155
507,25,-373,892,-929,8,-140
508,70,-380,874,-900,11,-136
509,61,-424,873,-859,26,-136
510,16,-463,889,-808,40,-131
511,-42,-469,888,-753,39,-119
512,-59,-449,891,-701,24,-101
513,-22,-405,886,-661,7,-86
514,22,-405,888,-631,2,-81
515,55,-420,878,-596,12,-86
516,34,-459,867,-553,26,-93
517,-11,-496,878,-498,38,-94
518,-63,-489,891,-439,34,-87
519,-63,-462,887,-389,16,-76
520,-15,-435,882,-351,3,-69
521,29,-414,875,-316,3,-68
522,61,-464,879,-283,14,-75
523,38,-498,864,-229,30,-82
524,-26,-530,867,-170,38,-78
525,-54,-519,881,-108,26,-66
526,-56,-495,882,-54,8,-47
527,-1,-448,877,-14,-7,-34
528,59,-443,869,23,-3,-33
529,69,-479,866,66,14,-40
530,22,-507,866,121,30,-46
531,-53,-523,868,183,32,-44
532,-78,-497,884,243,16,-32
533,-60,-463,895,289,-5,-17
534,2,-426,877,325,-15,-8
535,55,-406,874,361,-11,-14
536,64,-437,888,398,9,-29
537,19,-468,886,446,27,-40
538,-59,-478,894,499,32,-39
539,-76,-432,896,547,18,-31
540,-40,-385,897,582,-1,-22
541,12,-353,899,610,-8,-22
542,57,-347,907,631,3,-35
543,37,-374,903,658,23,-51
544,-20,-398,918,700,37,-59
545,-87,-378,909,741,33,-53
546,-87,-338,917,776,13,-39
547,-30,-276,924,796,-5,-30
548,29,-263,935,805,-8,-34
549,68,-267,930,817,5,-47
550,42,-304,928,834,25,-57
551,-18,-324,928,863,35,-54
552,-72,-309,930,896,27,-36
553,-66,-270,931,915,4,-19
554,3,-232,933,928,-10,-12
555,51,-225,933,938,-5,-11
556,56,-249,937,950,10,-15
557,18,-261,938,970,21,-16
558,-47,-276,948,988,22,-11
559,-69,-241,957,1005,10,-7
560,-55,-227,943,1017,-1,-9
561,16,-201,920,1028,-4,-15
562,41,-202,928,1039,5,-18
563,43,-228,940,1054,13,-19
564,0,-237,964,1071,19,-11
565,-60,-225,960,1085,15,-4
566,-61,-187,952,1097,4,-5
567,-38,-160,950,1104,0,-11
568,12,-149,940,1110,3,-21
569,40,-144,941,1115,13,-23
570,19,-173,961,1121,19,-18
571,-5,-168,980,1131,19,-8
572,-59,-156,968,1137,15,-2
573,-43,-125,970,1141,8,-4
574,-11,-110,959,1142,7,-14
575,32,-125,944,1143,12,-19
576,41,-124,945,1150,17,-19
577,4,-147,960,1155,24,-9
578,-32,-153,972,1166,19,-1
579,-72,-145,974,1176,13,3
580,-54,-117,953,1181,8,-6
581,-12,-109,946,1188,5,-19
582,24,-115,942,1196,11,-29
583,24,-124,944,1205,15,-28
584,-4,-129,950,1216,16,-22
585,-40,-146,961,1231,11,-25
586,-42,-108,949,1253,8,-38
587,-25,-116,936,1266,11,-61
588,4,-107,928,1282,15,-86
589,12,-126,915,1307,19,-109
590,15,-147,899,1338,21,-127
591,-13,-161,912,1367,24,-134
592,-59,-191,923,1399,21,-142
593,-75,-175,923,1433,13,-153
594,-39,-169,887,1460,4,-167
595,39,-169,874,1495,0,-185
596,80,-178,894,1532,9,-197
597,49,-203,898,1574,22,-203
598,-15,-204,876,1622,27,-209
599,-68,-186,853,1670,21,-224
600,86,1565,1716,1536,-26,-203
601,-163,876,913,469,-59,-103
602,-116,218,4,278,-86,-161
603,-167,-346,-320,374,-247,-221
604,50,-95,220,458,-315,-137
605,871,230,993,530,-270,-146
606,1386,590,1799,486,193,-250
607,122,168,249,300,656,-232
608,-1446,59,1394,286,466,-29
609,-974,407,874,211,-124,399
610,22,-141,657,183,-273,491
611,571,62,1052,310,-122,309
612,-74,699,1473,290,136,161
613,-368,-4,803,126,75,101
614,-153,-236,865,199,-69,168
615,24,262,963,273,-19,157
616,-134,111,1244,188,35,30
617,-4,-213,789,188,-31,19
618,138,-9,990,260,-43,61
619,131,75,1154,251,3,22
620,-150,-120,965,234,19,22
621,7,-44,904,256,-16,47
622,5,-88,1096,277,-10,11
623,-35,-55,967,286,3,5
624,1,-18,980,295,-13,9
625,47,-64,1048,313,-13,-4
626,-74,27,973,320,3,8
627,-35,-27,1032,317,-7,13
628,-48,-88,1004,333,-17,0
629,38,-54,994,348,-17,9
630,58,-93,993,366,-12,-5
631,57,-73,1037,385,-4,-4
632,3,-54,966,399,6,1
633,-38,-88,1055,415,9,-8
634,-93,-93,987,434,0,-7
635,-47,-132,1018,458,-11,-8
636,17,-145,981,487,-19,-19
637,62,-120,1021,516,-13,-16
638,65,-108,996,539,0,-16
639,4,-93,1042,564,10,-18
640,-60,-88,988,584,8,-13
641,-75,-110,1043,608,-1,-18
642,-55,-139,989,636,-13,-26
643,16,-156,1001,668,-19,-27
644,75,-126,992,701,-17,-32
645,48,-114,1024,729,-3,-27
646,3,-89,1004,752,7,-20
647,-81,-94,1021,778,7,-21
648,-78,-94,993,806,-5,-25
649,-57,-107,1002,833,-16,-34
650,21,-111,975,863,-23,-43
651,65,-73,996,891,-20,-42
652,63,-46,1002,909,-5,-33
653,-7,-35,1014,928,7,-24
654,-75,-29,999,947,6,-19
655,-86,-47,998,966,-5,-26
656,-38,-58,974,988,-18,-39
657,15,-67,977,1012,-23,-47
658,63,-32,983,1031,-17,-47
659,30,8,991,1049,-4,-39
660,-16,24,1006,1061,2,-29
661,-86,29,998,1070,0,-25
662,-73,17,974,1085,-12,-31
663,-24,8,964,1098,-24,-45
664,39,5,978,1116,-27,-52
665,67,32,974,1126,-18,-50
666,36,60,993,1132,-4,-39
667,-34,72,988,1138,3,-27
668,-83,75,999,1145,-2,-24
669,-83,53,969,1152,-15,-32
670,-21,51,951,1162,-26,-46
671,35,63,955,1176,-29,-60
672,58,94,979,1182,-22,-58
673,42,135,975,1178,-9,-46
674,-20,151,983,1171,-1,-33
675,-68,169,974,1167,-5,-23
676,-73,164,953,1161,-15,-30
677,-8,167,932,1156,-27,-47
678,40,193,944,1153,-26,-57
679,56,220,963,1146,-17,-58
680,25,257,966,1118,-7,-45
681,-32,276,974,1094,-1,-27
682,-60,270,960,1071,-4,-15
683,-63,255,943,1049,-12,-20
684,3,245,937,1033,-22,-29
685,54,259,935,1013,-20,-36
686,63,276,960,994,-7,-30
687,15,289,966,970,2,-19
688,-54,293,970,948,5,-7
689,-74,287,959,928,-5,-9
690,-49,256,957,909,-16,-21
691,14,227,929,898,-25,-35
692,70,250,942,886,-20,-38
693,55,275,964,867,-6,-28
694,3,294,977,849,6,-15
695,-72,298,973,828,6,-10
696,-74,285,956,806,-6,-14
697,-36,267,937,793,-18,-28
698,27,261,938,781,-25,-41
699,70,292,942,761,-20,-39
700,49,324,961,740,-4,-25
701,-7,357,978,714,6,-12
702,-72,361,969,684,5,-5
703,-72,348,942,657,-7,-9
704,-22,345,929,631,-20,-22
705,35,342,935,607,-24,-31
706,67,439,983,574,-17,-28
707,43,609,1106,517,-7,-14
708,-37,543,936,442,5,-5
709,-93,537,840,397,-2,-11
710,-84,606,891,329,-26,-34
711,-18,625,934,239,-45,-65
712,15,571,885,152,-53,-108
713,41,547,876,77,-50,-149
714,51,566,888,2,-40,-171
715,33,541,936,-71,-29,-177
716,13,504,923,-127,-21,-170
717,5,448,917,-165,-22,-157
718,50,448,917,-188,-24,-144
719,93,458,948,-217,-14,-120
720,79,456,926,-260,4,-88
721,26,436,934,-305,35,-41
722,-70,442,949,-351,52,13
723,-157,380,936,-392,39,49
724,-134,375,967,-405,5,48
725,-27,444,1053,-439,-19,17
726,53,358,965,-494,-12,-12
727,49,296,875,-513,-1,-12
728,53,359,935,-530,5,21
729,-3,427,1009,-568,19,39
730,-53,399,982,-614,26,32
731,-57,327,921,-644,12,19
732,14,317,912,-657,-5,7
733,76,355,946,-684,-2,4
734,55,366,955,-724,18,13
735,-18,362,962,-757,29,29
736,-83,356,972,-786,22,41
737,-87,337,961,-815,8,42
738,-35,296,929,-837,-2,28
739,14,259,930,-859,-6,20
740,75,276,942,-880,-1,24
741,50,287,965,-899,14,33
742,0,288,984,-922,25,45
743,-64,262,978,-943,24,55
744,-61,224,949,-955,13,57
745,-25,196,945,-962,4,49
746,19,181,947,-965,3,43
747,49,189,957,-972,7,44
748,38,204,975,-983,18,52
749,4,201,1000,-999,24,70
750,-7,184,999,-1024,26,104
751,14,142,963,-1059,28,161
752,50,125,941,-1083,39,212
753,44,138,946,-1098,57,249
754,31,168,978,-1114,71,278
755,-10,174,987,-1138,77,307
756,-60,167,982,-1154,77,337
757,-90,151,978,-1165,68,363
758,-86,123,946,-1177,61,372
759,-40,111,941,-1175,52,362
760,8,121,961,-1169,48,344
761,23,131,977,-1163,50,326
762,14,144,981,-1160,54,316
763,-24,141,987,-1160,56,314
764,-36,135,972,-1166,51,317
765,-36,102,956,-1171,48,312
766,0,90,952,-1166,44,296
767,29,117,956,-1164,46,282
768,24,125,977,-1160,50,270
769,-11,141,990,-1167,52,270
770,-59,130,979,-1174,52,278
771,-69,115,965,-1183,45,285
772,-55,89,956,-1191,36,284
773,-13,79,947,-1189,32,270
774,32,104,967,-1184,32,254
775,24,120,979,-1186,36,242
776,-2,120,989,-1195,37,241
777,-47,105,978,-1202,41,245
778,-50,96,965,-1212,33,250
779,-27,79,955,-1217,27,244
780,2,72,958,-1215,22,229
781,39,105,965,-1217,23,210
782,23,127,979,-1221,27,196
783,-16,135,983,-1230,31,189
784,-60,125,978,-1246,28,189
785,-57,109,955,-1259,21,186
786,-22,97,947,-1268,13,172
787,16,92,964,-1273,10,153
788,47,109,970,-1281,13,137
789,31,114,974,-1293,23,131
790,-7,96,983,-1310,27,137
791,-57,80,968,-1329,25,151
792,-57,44,948,-1346,21,162
793,-20,23,959,-1353,15,158
794,3,16,975,-1355,15,151
795,27,16,976,-1355,15,142
796,10,15,976,-1360,21,143
797,-24,0,978,-1365,24,150
798,-173,-196,1052,-1371,22,166
799,-508,-1789,1881,-1051,-78,87
800,21,-553,1013,-394,-212,48
801,-72,-214,11,-335,-159,21
802,-245,-155,-137,-272,-262,-59
803,1283,-830,1228,-202,-213,94
804,889,-933,1140,-52,150,227
805,-23,-155,556,108,381,287
806,-725,-406,463,165,339,189
807,-992,-920,1653,290,55,-123
808,-182,-107,420,423,-130,-269
809,372,-231,707,412,-92,-286
810,615,610,1695,414,40,-209
811,-336,526,1430,-41,65,1
812,-51,118,338,-116,-35,-38
813,189,-239,866,-44,10,-116
814,-174,-20,1380,-27,74,-27
815,-85,-241,1028,-38,2,-10
816,-54,41,584,15,-3,-20
817,-125,72,1215,4,-2,-28
818,46,-34,1197,-32,-19,-20
819,-56,9,778,-35,1,1
820,60,-10,931,-27,-3,-8
821,74,-85,1224,-22,4,-22
822,58,-19,904,-24,11,-7
823,-55,-35,878,-20,13,7
824,-106,20,1121,-8,10,-9
825,-108,-31,1021,-27,-3,-14
826,-18,34,909,-21,-10,-12
827,59,11,1041,-27,-10,-16
828,89,3,1051,-30,-2,-21
829,45,4,964,-37,10,-16
830,-56,-4,949,-31,15,-17
831,-81,22,1028,-16,7,-46
832,-81,60,1025,-18,6,-77
833,-91,75,993,-25,3,-102
834,-48,118,998,-33,-6,-127
835,-10,112,1020,-45,-11,-164
836,46,119,1023,-55,-10,-198
837,46,106,1043,-68,2,-222
838,-4,125,1047,-79,14,-233
839,-68,152,1050,-102,15,-240
840,-55,166,1060,-133,3,-253
841,-5,207,1060,-167,-4,-265
842,47,200,1076,-210,1,-272
843,30,165,1091,-254,13,-260
844,-36,172,1084,-295,17,-235
845,-90,192,1085,-339,10,-210
846,-78,214,1110,-392,-2,-194
847,-34,227,1108,-449,-8,-185
848,29,236,1099,-508,-6,-176
849,54,239,1090,-564,-1,-166
850,36,205,1080,-614,3,-145
851,-4,197,1086,-660,4,-117
852,-59,195,1102,-712,-1,-94
853,-47,211,1092,-765,-9,-86
854,-18,196,1089,-820,-11,-83
855,26,181,1059,-868,-12,-76
856,66,177,1046,-910,-9,-66
857,51,136,1056,-949,-4,-48
858,6,108,1068,-984,-2,-32
859,-41,108,1054,-1018,-6,-21
860,-30,110,1046,-1053,-12,-15
861,-5,100,1034,-1087,-16,-17
862,22,80,1017,-1113,-13,-20
863,54,67,1014,-1137,-9,-21
864,16,32,1011,-1162,-1,-13
865,-22,6,1010,-1173,-2,-2
866,-60,10,1023,-1188,-10,6
867,-35,26,1014,-1207,-18,2
868,1,26,1005,-1225,-19,-10
869,17,46,1005,-1247,-13,-25
870,41,17,1019,-1283,-5,-52
871,-1,-43,993,-1303,13,-73
872,-68,-79,983,-1305,15,-81
873,-111,-66,964,-1304,2,-77
874,-88,-56,979,-1306,-15,-77
875,-26,-25,997,-1321,-24,-93
876,14,-25,1006,-1340,-16,-121
877,39,-47,976,-1361,3,-154
878,13,-106,967,-1373,20,-179
879,-42,-155,961,-1367,28,-189
880,-81,-159,955,-1356,18,-184
881,-62,-147,954,-1348,2,-178
882,-6,-127,955,-1349,-7,-179
883,48,-137,953,-1353,-3,-191
884,67,-180,944,-1353,15,-208
885,45,-229,912,-1342,32,-219
886,-13,-269,920,-1315,42,-215
887,-53,-275,926,-1284,34,-199
888,-55,-255,925,-1257,17,-180
889,-6,-227,927,-1242,1,-167
890,52,-219,927,-1234,-1,-166
891,67,-257,919,-1225,12,-173
892,54,-298,904,-1201,30,-178
893,-10,-339,914,-1169,43,-172
894,-42,-323,910,-1128,34,-157
895,-49,-307,926,-1097,18,-140
896,-7,-281,915,-1081,4,-124
897,51,-275,908,-1069,-1,-120
898,70,-325,911,-1049,12,-122
899,39,-353,900,-1016,28,-121
900,-23,-386,896,-976,39,-110
901,-42,-368,913,-932,25,-95
902,-31,-343,920,-900,8,-74
903,8,-325,906,-880,-4,-56
904,61,-323,900,-862,-5,-49
905,66,-368,898,-838,9,-45
906,33,-408,890,-796,23,-40
907,-42,-428,904,-746,25,-26
908,-61,-407,912,-706,8,-7
909,-29,-382,914,-675,-12,7
910,14,-381,893,-649,-19,15
911,54,-395,878,-620,-13,17
912,41,-420,861,-583,4,17
913,2,-463,900,-538,15,14
914,-49,-482,908,-491,16,10
915,-61,-485,896,-447,6,8
916,-24,-470,867,-404,-5,5
917,5,-477,843,-359,-7,12
918,39,-501,830,-307,-3,16
919,32,-540,854,-251,5,19
920,-12,-566,883,-190,13,18
921,-44,-562,888,-129,14,12
922,-45,-548,860,-72,8,6
923,-5,-518,831,-16,1,2
924,25,-513,822,39,1,2
925,36,-526,849,97,9,2
926,4,-542,863,154,17,3
927,-46,-543,891,215,19,1
928,-71,-511,893,270,10,-5
929,-66,-479,870,318,2,-9
930,-7,-444,850,364,-3,-17
931,35,-439,863,408,0,-19
932,36,-450,879,450,7,-16
933,7,-463,901,496,14,-14
934,-44,-459,909,541,16,-11
935,-56,-423,902,580,9,-12
936,-33,-407,893,618,2,-17
937,15,-394,877,653,0,-17
938,41,-386,868,688,6,-16
939,29,-413,892,726,14,-13
940,-12,-425,912,765,16,-9
941,-65,-422,907,806,15,-8
942,-68,-386,903,843,6,-14
943,-39,-361,892,875,0,-21
944,11,-358,873,907,0,-26
945,39,-349,882,939,7,-25
946,16,-357,906,970,13,-22
947,-16,-355,928,1002,14,-19
948,-64,-336,936,1032,10,-17
949,-53,-290,928,1055,2,-20
950,-16,-254,910,1075,-2,-29
951,32,-250,912,1091,2,-34
952,55,-240,921,1106,9,-31
953,17,-236,935,1120,16,-24
954,-19,-246,970,1134,16,-18
955,-63,-219,968,1146,10,-13
956,-55,-187,947,1155,3,-17
957,0,-157,938,1158,0,-25
958,28,-168,944,1163,6,-28
959,33,-170,933,1171,12,-26
960,1,-196,959,1176,15,-19
961,-39,-204,961,1190,12,-20
962,-54,-185,955,1213,8,-34
963,-22,-154,933,1225,11,-57
964,9,-158,928,1236,20,-80
965,21,-176,927,1252,32,-95
966,5,-200,934,1268,34,-97
967,-20,-208,937,1284,34,-88
968,-59,-211,947,1298,27,-75
969,-59,-192,966,1308,18,-65
970,-37,-182,942,1317,11,-64
971,31,-165,911,1326,9,-64
972,58,-183,905,1341,11,-64
973,77,-207,917,1366,12,-56
974,55,-213,926,1393,20,-45
975,-15,-218,938,1422,28,-45
976,-53,-192,913,1448,29,-56
977,-46,-195,892,1480,18,-77
978,13,-181,841,1517,9,-102
979,74,-183,856,1559,8,-120
980,79,-215,885,1602,18,-129
981,20,-216,922,1646,29,-132
982,-54,-215,883,1687,31,-140
983,-50,-179,858,1732,17,-155
984,9,-156,840,1777,3,-171
985,91,-168,849,1817,0,-180
986,117,-173,888,1862,11,-178
987,51,-176,912,1897,25,-170
988,-17,-170,882,1932,24,-167
989,-48,-169,841,1974,11,-165
990,49,1347,1563,1899,-16,-146
991,-172,1052,1024,594,-16,-88
992,-97,154,4,252,-16,-60
993,34,-550,-363,386,-215,-29
994,54,-148,226,441,-299,165
995,395,-583,125,566,-295,277
996,313,-437,914,738,-207,402
997,1749,983,1906,836,146,401
998,-75,533,1620,687,812,128
999,-1467,927,1178,393,496,301
1000,-548,-240,335,213,-36,577
1001,182,-573,133,332,-103,587
1002,-543,-44,577,528,-72,626
1003,-382,1085,1869,473,-69,516
1004,-585,170,1370,208,11,176
1005,-97,-610,467,276,-11,212
1006,-91,-144,361,469,-74,283
1007,216,364,1698,519,-102,209
1008,150,190,1153,418,-3,39
1009,177,-360,894,442,24,28
1010,60,-203,752,562,-13,74
1011,-10,161,1306,581,12,69
1012,-53,-102,885,518,30,-9
1013,-95,-267,1033,567,3,-9
1014,-35,-13,824,627,-15,26
1015,-86,-20,1226,622,-6,9
1016,-78,-50,879,622,-11,-1
1017,-89,-98,1040,642,-27,26
1018,50,-31,956,670,-39,12
1019,22,-56,1099,690,-25,-14
1020,162,-57,909,699,-19,-20
1021,60,-78,1066,727,-2,-27
1022,60,-11,970,742,14,-10
1023,-127,-44,1031,744,21,-8
1024,-89,-66,980,769,3,-12
1025,-134,-84,989,789,-17,-16
1026,36,-85,981,812,-31,-25
1027,23,-70,989,834,-25,-32
1028,94,-27,1005,851,-13,-17
1029,-11,-33,1005,865,-1,-14
1030,-32,-24,1032,882,1,-8
1031,-83,-48,970,898,-6,-11
1032,-17,-90,1014,924,-16,-20
1033,-15,-95,949,951,-21,-27
1034,54,-80,1019,978,-18,-27
1035,3,-51,973,999,-9,-24
1036,-27,-44,1041,1023,-3,-12
1037,-92,-50,978,1043,-10,-9
1038,-68,-76,1018,1070,-20,-12
1039,-18,-68,950,1100,-30,-23
1040,49,-94,1017,1130,-32,-31
1041,81,-48,952,1158,-23,-32
1042,46,-32,1017,1183,-9,-23
1043,-7,1,976,1203,1,-18
1044,-85,-11,1027,1224,-3,-16
1045,-64,-14,952,1248,-15,-23
1046,-28,-29,982,1271,-27,-40
1047,49,-12,946,1294,-30,-49
1048,58,12,981,1314,-21,-47
1049,50,71,973,1327,-8,-36
1050,-36,83,996,1337,0,-27
1051,-59,93,982,1345,-4,-24
1052,-83,66,961,1353,-17,-34
1053,1,71,931,1367,-28,-47
1054,37,77,950,1378,-27,-56
1055,69,107,970,1385,-17,-52
1056,18,149,959,1385,-3,-40
1057,-28,158,980,1385,0,-30
1058,-82,166,963,1386,-7,-27
1059,-58,144,955,1386,-17,-37
1060,-14,128,917,1391,-28,-53
1061,53,146,941,1394,-26,-59
1062,58,172,941,1395,-18,-54
1063,30,199,984,1391,-6,-43
1064,-48,207,955,1384,1,-30
1065,-73,208,960,1381,-7,-27
1066,-67,184,935,1379,-17,-40
1067,-4,160,917,1381,-29,-58
1068,37,191,914,1390,-29,-72
1069,20,212,949,1394,-22,-78
1070,-23,245,957,1399,-19,-89
1071,-85,250,961,1400,-26,-102
1072,-74,415,1095,1395,-42,-113
1073,-39,777,1360,1326,-64,-120
1074,-124,692,1063,1209,-83,-140
1075,-127,559,943,1145,-133,-215
1076,-112,425,812,1105,-168,-277
1077,-76,316,825,1083,-193,-297
1078,-93,379,902,1065,-206,-282
1079,-61,435,966,1018,-212,-242
1080,-47,421,947,974,-214,-215
1081,-17,398,892,938,-214,-195
1082,91,452,901,902,-210,-185
1083,196,508,979,853,-182,-164
1084,209,449,888,789,-130,-128
1085,189,383,857,751,-75,-92
1086,211,447,909,730,-30,-57
1087,200,470,934,689,16,-30
1088,152,432,869,651,53,-15
1089,97,454,861,618,83,-12
1090,53,520,904,577,100,-4
1091,-32,540,932,522,109,7
1092,-107,510,906,465,104,26
1093,-151,485,894,415,87,44
1094,-126,497,881,371,61,48
1095,-106,492,875,327,34,40
1096,-76,494,863,285,11,29
1097,-68,505,885,243,-3,25
1098,-54,530,916,196,-16,32
1099,-44,506,930,143,-23,44
1100,-28,460,896,98,-30,54
1101,19,441,878,63,-33,51
1102,89,473,895,31,-31,40
1103,116,488,915,-9,-16,28
1104,124,480,910,-52,4,28
1105,68,471,897,-94,29,39
1106,56,477,906,-136,47,54
1107,29,465,914,-180,59,64
1108,26,470,896,-216,63,62
1109,24,494,887,-257,66,54
1110,29,515,896,-302,65,44
1111,11,525,909,-356,66,45
1112,-18,501,905,-412,67,58
1113,-18,479,899,-465,66,74
1114,-11,465,885,-507,59,84
1115,3,464,873,-550,50,82
1116,37,486,879,-599,42,75
1117,38,498,887,-652,39,74
1118,28,496,899,-711,39,82
1119,9,477,916,-768,43,101
1120,1,451,899,-819,46,119
1121,17,422,883,-864,46,134
1122,31,413,883,-901,45,139
1123,59,430,887,-938,46,144
1124,56,443,907,-983,55,150
1125,54,431,944,-1032,70,165
1126,26,384,930,-1075,86,188
1127,27,332,914,-1105,98,211
1128,44,320,907,-1122,109,223
1129,62,322,918,-1135,117,228
1130,120,358,994,-1154,133,225
1131,236,392,1157,-1160,186,184
1132,-78,410,1279,-1143,256,118
1133,-466,184,1091,-1141,185,96
1134,-432,103,1060,-1090,34,82
1135,-237,45,950,-1043,-21,4
1136,-123,-9,869,-1017,-4,-55
1137,-82,-3,887,-1002,-4,-26
1138,-37,77,1016,-987,-20,41
1139,-17,148,1088,-962,-18,68
1140,0,133,1024,-949,-10,57
1141,47,51,935,-930,-12,33
1142,120,29,932,-899,-10,12
1143,171,94,978,-874,7,5
1144,104,104,1001,-863,34,9
1145,-8,120,1002,-852,50,16
1146,-133,126,978,-840,41,21
1147,-145,110,979,-828,19,21
1148,-118,85,957,-814,-1,8
1149,-39,60,958,-799,-15,-1
1150,41,89,967,-783,-18,3
1151,69,121,1002,-771,-4,16
1152,36,143,999,-764,9,27
1153,-19,141,1006,-761,16,32
1154,-31,124,977,-751,11,25
1155,2,111,975,-741,4,8
1156,38,100,964,-731,1,-7
1157,67,116,975,-725,8,-9
1158,25,147,970,-722,21,-2
1159,-37,169,1013,-723,28,9
1160,-90,174,989,-728,23,19
1161,-84,138,975,-728,8,13
1162,-15,129,955,-725,-5,1
1163,44,121,964,-723,-5,-6
1164,86,141,978,-723,4,-1
1165,47,172,983,-728,18,9
1166,-13,180,998,-736,27,16
1167,-68,177,993,-742,23,19
1168,-67,143,972,-747,12,12
1169,-8,133,949,-749,1,-4
1170,41,141,972,-748,-1,-10
1171,59,168,967,-755,7,-6
1172,27,203,991,-767,20,5
1173,-32,215,986,-781,25,16
1174,-58,206,986,-798,19,18
1175,-51,170,951,-809,8,7
1176,13,159,957,-818,1,-5
1177,67,184,956,-831,4,-10
1178,57,196,977,-847,15,-7
1179,6,229,977,-871,29,4
1180,-66,236,994,-894,29,13
1181,-82,226,966,-916,19,14
1182,-59,198,954,-938,10,6
1183,5,180,940,-955,2,-5
1184,56,210,952,-976,4,-4
1185,53,236,965,-1003,17,7
1186,-6,248,984,-1034,28,20
1187,-68,245,977,-1066,28,28
1188,-72,210,956,-1094,18,27
1189,-27,184,938,-1114,8,18
1190,17,178,940,-1132,1,7
1191,63,200,948,-1159,6,5
1192,33,218,960,-1186,21,7
1193,-22,232,979,-1218,27,20
1194,-68,229,978,-1255,23,37
1195,-22,196,944,-1301,12,69
1196,23,163,907,-1342,11,105
1197,38,199,933,-1371,25,123
1198,17,242,957,-1414,33,132
1199,-10,242,954,-1465,37,154
1200,-50,217,942,-1511,35,185
1201,-84,215,938,-1558,32,220
1202,-73,193,915,-1606,27,243
1203,-29,166,924,-1648,18,253
1204,11,182,917,-1679,15,260
1205,28,190,953,-1712,18,266
1206,5,199,944,-1753,26,272
1207,-50,181,950,-1792,31,288
1208,-64,152,930,-1833,26,306
1209,-65,113,920,-1866,21,316
1210,-410,-360,1124,-1880,12,312
1211,-478,-1659,1920,-1245,-211,111
1212,117,494,877,-690,-306,15
1213,-103,275,-47,-872,-244,-178
1214,-324,33,138,-921,-365,-320
1215,1580,-559,1469,-888,-236,-126
1216,458,-684,1118,-794,201,20
1217,-174,362,378,-758,330,119
1218,251,-189,503,-819,280,11
1219,-273,-993,1739,-700,287,-121
1220,-820,-100,826,-606,109,-179
1221,-93,-272,925,-635,-40,-181
1222,-254,-36,539,-603,-26,-175
1223,-238,-166,988,-589,-21,-95
1224,229,-407,1179,-567,-54,-166
1225,-30,-148,1161,-500,-15,-127
1226,122,138,558,-546,-17,-127
1227,274,-412,1177,-546,9,-106
1228,-30,-137,912,-459,35,-63
1229,-56,-69,1036,-469,1,-54
1230,164,-113,948,-478,-10,-68
1231,-82,-84,1015,-463,31,-34
1232,4,8,876,-471,19,-46
1233,-31,-201,1098,-467,12,-39
1234,-91,19,955,-448,7,-22
1235,-106,-78,1040,-471,-10,-32
1236,1,-22,989,-472,-14,-35
1237,-10,-30,1032,-481,-14,-31
1238,87,13,977,-492,-12,-28
1239,82,-47,1039,-508,0,-14
1240,49,-1,996,-511,8,2
1241,-23,-25,1039,-527,10,14
1242,-39,21,1031,-537,3,15
1243,-56,27,1034,-558,1,5
1244,-4,80,1008,-576,2,-7
1245,-1,56,1041,-599,7,-11
1246,1,83,1032,-624,5,-5
1247,-26,53,1055,-656,1,5
1248,-39,76,1056,-679,-6,11
1249,-37,98,1067,-714,-10,6
1250,-10,108,1045,-748,-9,-4
1251,42,108,1044,-782,-8,-11
1252,65,103,1046,-819,1,-2
1253,29,80,1048,-853,7,10
1254,-14,64,1056,-886,5,24
1255,-71,49,1054,-916,0,29
1256,-72,73,1037,-945,-8,24
1257,-46,50,1030,-978,-12,10
1258,0,32,1009,-1003,-9,2
1259,34,13,1002,-1027,-4,2
1260,21,-23,1008,-1047,-1,14
1261,-11,-54,1015,-1062,-3,21
1262,-59,-65,1013,-1072,-6,23
1263,-46,-55,998,-1084,-11,17
1264,-10,-63,982,-1094,-13,5
1265,12,-92,963,-1100,-10,0
1266,37,-108,964,-1105,-4,1
1267,9,-139,964,-1107,-1,11
1268,-27,-167,986,-1101,-3,17
1269,-63,-158,978,-1099,-7,18
1270,-42,-152,967,-1095,-11,8
1271,5,-139,958,-1092,-11,-4
1272,26,-141,950,-1090,-5,-7
1273,47,-158,944,-1088,1,-8
1274,10,-187,962,-1085,7,1
1275,-38,-195,982,-1078,4,8
1276,-69,-189,983,-1074,-4,9
1277,-49,-180,959,-1072,-13,2
1278,-6,-159,943,-1069,-14,-5
1279,28,-173,940,-1067,-8,-9
1280,26,-206,953,-1064,0,-7
1281,0,-225,948,-1058,3,-3
1282,-50,-242,966,-1046,0,1
1283,-63,-214,960,-1037,-7,2
1284,-45,-219,958,-1031,-16,-6
1285,7,-200,932,-1025,-18,-12
1286,38,-214,931,-1020,-9,-15
1287,41,-258,925,-1012,-1,-13
1288,5,-299,935,-994,3,-2
1289,-35,-316,947,-972,-2,5
1290,-47,-303,945,-956,-12,9
1291,-22,-315,926,-937,-17,5
1292,17,-322,899,-916,-14,2
1293,55,-339,876,-894,-6,2
1294,43,-396,888,-861,1,6
1295,-1,-438,903,-825,3,13
1296,-58,-459,907,-782,-1,16
1297,-63,-450,896,-742,-13,11
1298,-35,-458,875,-702,-17,5
1299,0,-470,845,-655,-17,1
1300,45,-492,835,-606,-10,0
1301,33,-532,848,-550,-2,5
1302,-4,-565,859,-490,4,7
1303,-47,-579,873,-426,1,5
1304,-47,-567,860,-365,-5,0
1305,-18,-543,834,-305,-8,-6
1306,17,-556,820,-246,-5,-9
1307,41,-560,815,-181,2,-9
1308,20,-582,829,-119,10,-8
1309,-9,-602,872,-51,10,-9
1310,-53,-578,875,14,8,-14
1311,-48,-543,855,74,3,-20
1312,-5,-494,849,128,-1,-25
1313,25,-483,844,177,4,-26
1314,44,-485,862,227,14,-25
1315,12,-486,881,276,20,-20
1316,-38,-485,908,323,19,-16
1317,-66,-451,905,368,10,-17
1318,-59,-429,897,407,2,-18
1319,-5,-391,873,442,-3,-23
1320,35,-394,884,474,2,-24
1321,32,-417,893,508,10,-21
1322,2,-424,895,546,14,-16
1323,-37,-445,915,583,16,-9
1324,-57,-412,915,622,7,-7
1325,-46,-394,894,656,-3,-15
1326,10,-381,876,688,-3,-20
1327,36,-378,884,724,3,-23
1328,28,-393,890,756,9,-19
1329,-9,-404,911,793,12,-14
1330,-62,-395,913,829,8,-11
1331,-65,-360,915,861,-2,-12
1332,-38,-335,909,889,-7,-21
1333,10,-330,898,914,-5,-29
1334,44,-311,885,941,2,-32
1335,25,-333,918,967,10,-25
1336,-4,-326,935,993,10,-21
1337,-63,-313,940,1018,7,-17
1338,-52,-274,936,1038,-1,-19
1339,-30,-242,931,1054,-4,-28
1340,25,-237,910,1068,-1,-38
1341,45,-227,929,1083,8,-37
1342,17,-224,937,1094,16,-32
1343,-19,-229,970,1108,13,-27
1344,-64,-207,968,1120,8,-23
1345,-59,-166,963,1123,1,-25
1346,-4,-140,948,1124,-3,-34
1347,29,-158,956,1125,2,-36
1348,52,-150,942,1128,9,-34
1349,14,-180,965,1131,15,-23
1350,-15,-178,978,1137,13,-16
1351,-60,-177,976,1141,10,-12
1352,-36,-151,949,1144,6,-15
1353,2,-140,944,1150,7,-22
1354,40,-158,939,1158,7,-30
1355,26,-178,936,1167,16,-28
1356,-10,-204,937,1183,17,-26
1357,-38,-228,931,1216,13,-45
1358,-38,-187,936,1248,16,-68
1359,-49,-201,917,1268,27,-98
1360,-12,-200,902,1296,31,-128
1361,1,-218,894,1326,35,-149
1362,2,-228,900,1359,37,-155
1363,-35,-242,901,1388,37,-155
1364,-57,-260,925,1421,33,-155
1365,-63,-241,919,1451,28,-160
1366,-36,-224,894,1481,22,-170
1367,15,-223,863,1509,23,-184
1368,55,-249,879,1546,27,-197
1369,48,-265,861,1594,32,-204
1370,13,-277,883,1644,35,-206
1371,-55,-271,856,1690,36,-215
1372,-61,-244,861,1745,27,-234
1373,-35,-223,842,1795,19,-264
1374,18,-214,839,1844,19,-295
1375,44,-194,830,1899,26,-325
1376,-5,-211,857,1950,36,-346
1377,-79,-186,844,2005,34,-366
1378,-123,-169,822,2062,19,-394
1379,75,765,1264,2104,-4,-416
1380,236,1641,1682,1017,-105,-222
1381,-620,417,-265,210,-61,-231
1382,-62,-392,-499,347,-291,-417
1383,-409,-9,-108,474,-422,-371
1384,701,-443,459,591,-469,-297
1385,1655,1163,1885,673,-109,-343
1386,589,138,518,320,539,-267
1387,-161,-473,-110,343,606,-201
1388,-677,722,1433,514,448,-39
1389,-1149,996,1766,256,75,172
1390,-225,-343,333,157,-119,223
1391,-12,-762,8,376,-175,298
1392,635,1115,1731,501,-67,377
1393,-283,506,1337,143,176,151
1394,-445,-650,416,78,57,91
1395,93,-150,554,277,-95,213
1396,211,290,1746,310,-4,113
1397,-264,-187,711,197,77,16
1398,-107,-406,737,300,-16,51
1399,160,-122,1175,400,-62,23
1400,-42,-105,1268,382,17,21
1401,0,-414,714,412,18,21
1402,31,-292,1172,534,-19,-3
1403,105,-165,998,566,-8,18
1404,-53,-272,1080,586,31,10
1405,-111,-286,943,648,10,-7
1406,-139,-272,1049,707,-13,-1
1407,25,-291,1022,763,-28,-19
1408,-5,-320,1061,828,-21,-31
1409,124,-247,946,883,-17,-14
1410,45,-236,1062,937,-2,-25
1411,8,-167,1023,982,8,-34
1412,-120,-186,991,1018,6,-49
1413,-59,-205,1017,1077,-13,-78
1414,-80,-186,993,1138,-31,-107
1415,77,-167,1000,1188,-40,-128
1416,84,-139,991,1240,-31,-150
1417,90,-69,1009,1277,-12,-151
1418,3,-57,983,1297,-3,-159
1419,-60,-70,1016,1325,-2,-165
1420,-103,-66,942,1358,-14,-176
1421,-44,-76,1002,1397,-34,-194
1422,1,-70,939,1436,-45,-218
1423,88,-21,998,1463,-37,-223
1424,67,11,957,1478,-26,-222
1425,5,38,993,1483,-13,-212
1426,-71,49,948,1486,-14,-204
1427,-88,26,984,1491,-26,-206
1428,-51,37,926,1512,-40,-216
1429,11,35,965,1533,-48,-226
1430,64,85,943,1548,-49,-235
1431,39,116,978,1548,-35,-233
1432,9,126,957,1541,-24,-227
1433,-72,110,977,1539,-24,-221
1434,-70,105,931,1544,-37,-219
1435,-35,102,943,1556,-53,-232
1436,29,109,927,1570,-59,-246
1437,54,164,946,1574,-55,-253
1438,45,219,955,1556,-44,-248
1439,-22,238,962,1528,-30,-236
1440,-65,230,952,1502,-29,-219
1441,-87,217,927,1479,-37,-208
1442,-31,233,906,1467,-53,-202
1443,23,263,942,1451,-58,-201
1444,50,307,951,1423,-50,-192
1445,32,337,953,1382,-31,-177
1446,-22,331,948,1339,-18,-156
1447,-77,326,938,1303,-15,-136
1448,-74,310,932,1276,-28,-125
1449,-14,297,905,1252,-41,-125
1450,45,318,922,1234,-45,-127
1451,63,351,939,1208,-34,-124
1452,35,386,983,1166,-17,-112
1453,-44,376,950,1119,-3,-94
1454,-81,353,939,1083,-6,-81
1455,-82,331,920,1056,-18,-77
1456,-15,542,1111,1029,-33,-78
1457,68,704,1170,930,-37,-80
1458,101,509,878,842,-26,-55
1459,209,524,845,804,-38,11
1460,218,674,1038,733,-28,113
1461,222,610,1029,620,6,220
1462,173,407,842,544,50,307
1463,177,341,762,528,89,372
1464,157,543,912,509,131,415
1465,127,702,1052,427,181,429
1466,47,588,949,315,226,443
1467,0,439,829,241,252,471
1468,-36,437,841,208,261,488
1469,-57,539,969,161,260,493
1470,-83,517,947,92,247,490
1471,-71,396,857,38,224,481
1472,-88,351,789,15,197,484
1473,-124,429,906,-4,168,492
1474,-153,472,952,-51,139,492
1475,-114,357,903,-94,109,488
1476,-62,334,851,-106,92,466
1477,-47,417,936,-113,86,418
1478,-39,499,992,-153,82,361
1479,-36,417,924,-208,79,314
1480,-31,346,868,-235,77,287
1481,-52,394,942,-250,80,264
1482,-69,441,999,-286,78,234
1483,-58,377,933,-329,71,199
1484,-32,312,872,-351,67,169
1485,-39,337,888,-363,57,147
1486,-73,414,961,-392,41,145
1487,-128,396,983,-439,27,144
1488,-150,285,934,-470,17,133
1489,-216,252,914,-468,0,108
1490,-229,252,948,-462,-35,72
1491,-212,213,921,-456,-80,28
1492,-187,185,909,-437,-120,-13
1493,-177,204,945,-419,-153,-37
1494,-98,271,1047,-412,-180,-47
1495,161,301,1168,-432,-173,-40
1496,335,172,1059,-455,-108,-17
1497,338,140,963,-446,-29,5
1498,271,269,1054,-445,15,21
1499,132,263,1058,-466,43,15
1500,-45,208,969,-464,61,-7
1501,-187,212,926,-453,47,-10
1502,-219,231,938,-460,12,-7
1503,-174,229,944,-470,-17,-14
1504,-78,226,942,-475,-39,-15
1505,44,260,963,-483,-47,-9
1506,110,300,980,-494,-32,3
1507,106,310,999,-518,-6,17
1508,47,295,983,-539,13,26
1509,12,262,971,-552,14,23
1510,12,246,945,-561,11,11
1511,26,215,958,-567,9,-4
1512,25,217,943,-577,14,-6
1513,-14,244,969,-584,18,6
1514,-62,254,991,-598,19,19
1515,-98,239,990,-611,12,22
1516,-66,201,951,-618,-2,17
1517,10,183,957,-618,-13,3
1518,72,189,962,-617,-12,-4
1519,93,194,977,-622,1,0
1520,50,223,974,-631,18,9
1521,-30,236,987,-637,28,19
1522,-79,233,984,-650,22,22
1523,-91,198,960,-657,8,13
1524,-26,202,943,-661,-4,-1
1525,30,209,965,-668,-9,-7
1526,60,231,969,-677,0,0
1527,26,253,973,-693,13,16
1528,-24,259,988,-710,19,28
1529,-66,247,975,-729,14,36
1530,-45,206,959,-739,5,26
1531,6,181,952,-745,-2,8
1532,62,199,955,-752,-2,3
1533,61,203,967,-764,9,11
1534,16,225,992,-775,21,19
1535,-64,222,982,-792,25,31
1536,-77,202,971,-803,15,32
1537,-58,163,967,-811,2,23
1538,3,138,953,-815,-4,12
1539,55,152,964,-817,-2,10
1540,52,163,981,-822,10,18
1541,3,179,985,-828,20,30
1542,-56,172,1000,-836,21,38
1543,-64,150,977,-848,12,39
1544,-31,119,958,-851,5,31
1545,11,108,954,-845,-1,20
1546,50,133,972,-845,1,15
1547,36,154,975,-852,11,17
1548,-6,166,1003,-857,18,25
1549,-56,168,990,-870,17,34
1550,-44,157,977,-887,10,41
1551,8,145,957,-910,5,51
1552,28,134,944,-928,14,68
1553,23,183,953,-941,24,82
1554,-8,230,989,-963,28,102
1555,-42,233,1000,-993,27,121
1556,-69,216,968,-1022,24,141
1557,-62,188,942,-1048,15,152
1558,-19,180,944,-1068,11,151
1559,15,195,960,-1087,12,143
1560,38,186,967,-1107,18,138
1561,22,203,961,-1127,25,144
1562,-17,203,973,-1153,28,158
1563,-46,195,975,-1180,27,173
1564,-50,163,950,-1207,25,179
1565,-12,149,937,-1223,22,173
1566,8,167,956,-1235,25,160
1567,9,174,960,-1256,28,154
1568,-1,172,966,-1276,27,160
1569,-33,164,974,-1300,28,171
1570,-43,145,960,-1324,23,182
1571,-32,115,951,-1341,24,182
1572,-4,101,950,-1353,20,175
1573,36,126,950,-1364,21,165
1574,31,127,959,-1380,26,157
1575,8,126,969,-1399,28,159
1576,-34,115,965,-1420,29,167
1577,-45,99,965,-1436,24,173
1578,-23,71,952,-1448,21,168
1579,1,55,961,-1456,22,158
1580,34,80,948,-1464,22,145
1581,19,84,972,-1476,26,140
1582,-8,80,965,-1492,27,145
1583,-62,63,971,-1508,24,154
1584,-48,42,947,-1530,19,160
1585,-195,-498,1218,-1532,18,159
1586,-469,-1671,1911,-977,-98,15
1587,-254,96,780,-552,-172,-108
1588,-275,11,-79,-668,-160,-286
1589,-98,-387,405,-658,-213,-349
1590,1092,-712,1227,-577,-40,-183
1591,196,-799,1033,-411,220,-209
1592,-191,-8,474,-323,247,-196
1593,-421,-866,882,-304,145,-293
1594,-253,-588,1170,-71,-24,-298
1595,-69,119,546,-66,-71,-249
1596,294,-445,1105,-116,-26,-254
1597,-83,-386,996,-33,26,-253
1598,-30,-180,960,28,-13,-245
1599,188,-66,919,25,-19,-303
1600,6,-190,1017,24,44,-302
1601,-33,-145,820,51,44,-315
1602,-4,-269,1052,107,19,-300
1603,-78,-14,814,155,4,-268
1604,-2,-80,1040,151,-2,-255
1605,29,-74,1012,168,1,-260
1606,4,51,1042,168,5,-257
1607,117,119,969,138,11,-280
1608,46,-62,1093,114,32,-277
1609,-32,47,931,130,20,-243
1610,-28,20,1031,126,-1,-206
1611,12,136,1012,116,-8,-179
1612,5,104,1120,79,1,-168
1613,86,156,1064,45,2,-172
1614,61,157,1066,6,11,-161
1615,47,143,1035,-30,16,-143
1616,-28,114,1094,-62,16,-117
1617,-67,155,1069,-97,1,-99
1618,-40,165,1088,-144,-6,-91
1619,8,172,1075,-187,-7,-87
1620,38,163,1070,-227,-6,-79
1621,83,193,1061,-267,-1,-70
1622,43,155,1085,-311,8,-55
1623,-15,172,1083,-345,10,-41
1624,-57,174,1086,-388,3,-32
1625,-41,185,1083,-433,-3,-29
1626,-6,204,1067,-478,-5,-32
1627,29,183,1066,-522,-4,-31
1628,49,174,1068,-562,0,-26
1629,9,157,1062,-601,3,-14
1630,-27,154,1081,-639,1,-2
1631,-63,150,1081,-680,-3,2
1632,-42,158,1052,-720,-9,-3
1633,6,156,1050,-756,-11,-11
1634,29,146,1048,-790,-6,-15
1635,28,113,1044,-826,-2,-11
1636,6,86,1040,-855,1,0
1637,-44,77,1048,-879,-3,9
1638,-60,91,1038,-906,-11,10
1639,-42,74,1039,-934,-14,-1
1640,2,86,1018,-955,-13,-13
1641,21,55,1018,-982,-8,-16
1642,30,27,1011,-1002,-5,-10
1643,-12,-4,1008,-1019,-4,3
1644,-38,-11,1013,-1026,-9,9
1645,-55,-4,1023,-1041,-14,9
1646,-26,-6,1002,-1054,-18,-3
1647,14,-2,994,-1064,-12,-15
1648,44,-4,982,-1083,-4,-18
1649,28,-52,999,-1097,2,-23
1650,-5,-102,988,-1100,5,-21
1651,-64,-107,970,-1096,-2,-11
1652,-60,-80,969,-1088,-20,-1
1653,-22,-78,989,-1093,-28,-1
1654,22,-63,997,-1101,-21,-13
1655,56,-74,979,-1114,-5,-38
1656,24,-126,958,-1122,12,-57
1657,-19,-184,949,-1111,17,-58
1658,-86,-188,943,-1090,5,-41
1659,-65,-160,962,-1074,-15,-26
1660,-10,-134,978,-1068,-28,-21
1661,41,-119,970,-1073,-20,-34
1662,77,-130,958,-1079,-1,-60
1663,43,-191,944,-1075,22,-79
1664,-25,-241,934,-1053,31,-80
1665,-97,-251,935,-1025,19,-62
1666,-82,-221,942,-999,-5,-38
1667,-26,-189,954,-987,-24,-24
1668,36,-176,956,-985,-25,-26
1669,83,-201,949,-985,-8,-45
1670,52,-246,928,-970,17,-62
1671,-13,-293,933,-944,29,-65
1672,-73,-300,924,-913,22,-50
1673,-69,-290,928,-884,1,-30
1674,-13,-253,929,-863,-18,-16
1675,46,-253,929,-852,-20,-13
1676,87,-287,926,-835,-5,-20
1677,59,-328,907,-810,16,-26
1678,-6,-366,913,-772,27,-20
1679,-56,-358,922,-732,18,-6
1680,-56,-346,928,-701,-1,6
1681,1,-318,908,-675,-11,9
1682,35,-329,899,-652,-5,7
1683,48,-358,895,-620,7,7
1684,8,-382,902,-582,16,6
1685,-47,-407,926,-542,16,7
1686,-75,-388,938,-506,8,7
1687,-62,-371,898,-473,-3,-1
1688,-5,-366,890,-439,-5,-4
1689,23,-367,878,-400,1,-5
1690,28,-405,900,-362,1,-5
1691,14,-436,912,-325,10,-1
1692,-38,-453,909,-281,10,5
1693,-39,-439,885,-235,3,4
1694,-16,-452,889,-189,0,2
1695,16,-450,853,-142,1,0
1696,52,-474,854,-91,7,-2
1697,32,-510,860,-36,14,0
1698,-25,-544,876,23,17,5
1699,-82,-548,860,90,9,8
1700,-84,-538,862,152,-2,4
1701,-42,-520,833,216,-8,-8
1702,15,-529,825,280,-8,-18
1703,52,-535,830,346,-2,-23
1704,26,-553,847,413,8,-19
1705,-6,-574,864,483,10,-16
1706,-57,-556,866,552,8,-11
1707,-52,-530,841,614,-1,-14
1708,-5,-497,833,679,-2,-26
1709,26,-499,835,740,6,-32
1710,32,-494,834,802,13,-34
1711,-4,-503,855,867,17,-32
1712,-46,-498,884,927,14,-28
1713,-86,-458,875,982,7,-27
1714,-63,-424,860,1035,-3,-34
1715,-1,-379,858,1082,-7,-46
1716,37,-366,871,1125,2,-53
1717,46,-360,876,1167,12,-57
1718,18,-365,900,1206,19,-49
1719,-31,-351,904,1247,16,-40
1720,-64,-305,916,1282,9,-33
1721,-47,-266,906,1309,1,-36
1722,11,-228,898,1330,0,-47
1723,47,-215,920,1348,8,-57
1724,42,-186,953,1357,20,-73
1725,9,-234,954,1365,31,-90
1726,-70,-227,925,1389,35,-91
1727,-109,-176,908,1414,21,-87
1728,-79,-138,901,1442,4,-107
1729,14,-89,924,1460,8,-138
1730,32,-120,949,1471,31,-165
1731,-11,-130,927,1488,42,-174
1732,-35,-136,928,1513,36,-171
1733,-70,-98,940,1533,26,-159
1734,-55,-40,979,1535,20,-160
1735,-16,-37,1009,1520,21,-172
1736,15,-41,971,1507,25,-174
1737,42,-21,942,1502,27,-168
1738,25,-38,970,1493,32,-149
1739,3,-43,1016,1483,28,-126
1740,-52,-42,1015,1469,22,-105
1741,-26,7,996,1452,13,-91
1742,6,17,980,1430,10,-82
1743,52,-1,976,1418,12,-76
1744,58,-11,981,1410,17,-65
1745,21,-13,986,1403,21,-49
1746,-23,-15,996,1396,20,-35
1747,-69,-8,990,1390,16,-28
1748,-55,6,977,1383,8,-35
1749,-6,13,966,1377,4,-46
1750,34,-8,961,1375,7,-52
1751,168,465,1197,1400,16,-52
1752,41,1870,1903,930,10,-45
1753,-440,830,339,176,-2,-108
1754,-70,318,-157,23,-134,-171
1755,-241,208,-61,-53,-239,-166
1756,824,358,1003,-143,-210,-118
1757,1127,801,1721,-213,148,-326
1758,167,111,1020,-324,524,-377
1759,-1446,-795,1147,-304,251,99
1760,-434,167,982,-5,-248,648
1761,368,73,657,-31,-161,559
1762,-27,194,1365,-20,80,314
1763,-192,-37,1068,13,41,78
1764,136,42,914,55,-31,41
1765,-24,188,863,47,36,90
1766,-297,247,1160,-40,15,145
1767,-26,-49,890,-83,-45,156
1768,-45,-141,1027,-34,-11,145
1769,21,-42,996,-17,-12,109
1770,150,-172,1045,0,-18,71
1771,148,-33,941,24,7,65
1772,-15,-16,1043,11,22,98
1773,-70,-77,987,-1,12,130
1774,-159,-106,1004,-1,10,164
1775,-119,-113,970,5,0,193
1776,-81,-116,1018,11,-11,208
1777,31,-145,993,25,-18,221
1778,65,-134,1032,49,-14,222
1779,79,-137,1024,78,-4,205
1780,6,-178,1029,107,4,193
1781,-33,-198,1015,142,4,185
1782,-65,-254,1023,184,-7,175
1783,-27,-288,1028,238,-11,157
1784,3,-302,1033,302,-15,124
1785,62,-304,1040,369,-15,90
1786,41,-292,1036,437,-10,59
1787,13,-297,1039,501,-5,39
1788,-51,-305,1030,563,-6,19
1789,-42,-319,1035,626,-13,0
1790,-8,-316,1017,693,-21,-22
1791,48,-303,1033,755,-22,-33
1792,53,-266,994,806,-14,-36
1793,7,-222,1030,852,0,-30
1794,-59,-204,1012,893,2,-26
1795,-96,-198,1034,932,-5,-23
1796,-66,-205,985,972,-16,-26
1797,3,-195,1002,1012,-24,-34
1798,66,-180,995,1052,-21,-40
1799,78,-143,1010,1084,-11,-37
1800,35,-99,996,1112,4,-31
1801,-38,-85,1012,1135,10,-28
1802,-84,-84,993,1155,5,-27
1803,-73,-105,985,1180,-9,-34
1804,-6,-102,967,1206,-21,-42
1805,43,-86,987,1233,-21,-46
1806,55,-52,985,1252,-10,-42
1807,18,-22,994,1265,0,-33
1808,-45,-18,985,1279,4,-28
1809,-75,-14,995,1292,-1,-27
1810,-71,-33,963,1308,-15,-35
1811,6,-33,955,1325,-25,-48
1812,45,2,975,1344,-32,-57
1813,71,18,977,1345,-1,-50
1814,30,55,984,1356,6,-34
1815,-55,84,977,1359,3,-24
1816,-96,99,970,1360,-8,-29
1817,-79,87,951,1360,-23,-47
1818,-3,81,931,1367,-38,-61
1819,61,126,949,1365,-35,-66
1820,67,170,961,1352,-18,-53
1821,29,207,975,1329,-2,-36
1822,-61,213,958,1308,3,-23
1823,-81,245,954,1292,-6,-19
1824,-64,229,947,1269,-19,-29
1825,5,223,933,1248,-28,-42
1826,51,257,926,1224,-24,-41
1827,53,287,949,1191,-12,-29
1828,0,313,964,1159,0,-13
1829,-70,325,963,1123,2,2
1830,-80,311,962,1090,-8,2
1831,-41,289,928,1061,-20,-11
1832,27,261,928,1033,-26,-21
1833,73,283,936,1007,-22,-18
1834,47,311,956,975,-6,-4
1835,-9,327,971,942,3,8
1836,-76,305,977,912,1,12
1837,-72,286,943,888,-11,5
1838,-17,249,943,869,-24,-8
1839,40,240,945,851,-26,-16
1840,74,250,950,831,-17,-14
1841,47,269,971,812,-3,-5
1842,-21,276,987,793,6,5
1843,-71,264,977,776,1,9
1844,-72,224,957,763,-10,-2
1845,-9,208,941,755,-21,-16
1846,47,204,954,749,-23,-26
1847,70,220,971,742,-15,-25
1848,34,254,965,731,0,-13
1849,-27,267,977,718,5,-4
1850,-71,275,986,706,-2,-5
1851,-66,252,958,694,-13,-17
1852,7,246,931,681,-22,-31
1853,61,272,949,671,-21,-37
1854,72,310,963,650,-9,-30
1855,34,352,969,624,6,-18
1856,-40,374,969,597,13,-9
1857,-69,388,960,563,5,-8
1858,-63,369,945,532,-9,-18
1859,11,365,925,502,-19,-30
1860,72,395,929,466,-16,-31
1861,75,426,946,429,-1,-23
1862,25,462,962,383,13,-9
1863,-46,469,951,333,19,2
1864,-69,471,951,288,9,1
1865,-44,448,937,242,-3,-9
1866,9,431,928,200,-11,-19
1867,61,485,951,151,-9,-18
1868,38,492,948,96,3,-8
1869,-2,500,923,46,16,7
1870,-64,484,925,-9,18,17
1871,-52,458,927,-59,8,17
1872,-19,427,928,-101,-3,7
1873,36,412,934,-138,-8,-2
1874,77,433,953,-180,-2,-4
1875,56,456,972,-226,13,3
1876,-11,451,966,-272,27,16
1877,-74,436,947,-316,25,24
1878,-79,416,944,-356,15,21
1879,-25,396,934,-397,1,12
1880,26,367,937,-429,-1,3
1881,63,370,936,-461,3,7
1882,37,388,955,-496,15,20
1883,-11,396,970,-532,24,31
1884,-60,366,974,-568,23,37
1885,-53,323,945,-597,12,31
1886,-3,302,939,-617,3,16
1887,43,293,941,-635,2,9
1888,56,292,961,-656,8,7
1889,21,307,963,-678,20,18
1890,-39,309,984,-700,24,32
1891,-67,283,977,-724,18,40
1892,-61,232,950,-737,9,35
1893,2,211,938,-743,1,21
1894,56,213,960,-747,2,11
1895,61,217,961,-756,10,12
1896,25,224,984,-763,19,18
1897,-48,226,984,-772,24,22
1898,-70,205,975,-781,17,26
1899,-56,173,959,-786,6,16
1900,-5,147,954,-783,-3,4
1901,49,171,951,-784,-1,0
1902,36,184,979,-786,9,4
1903,-8,198,984,-794,17,16
1904,-76,194,991,-801,19,26
1905,-75,171,981,-808,7,28
1906,-37,141,963,-810,-4,22
1907,25,117,952,-804,-8,16
1908,65,139,968,-802,-2,14
1909,48,159,979,-803,10,19
1910,-2,170,1001,-806,19,27
1911,-55,155,1001,-815,19,37
1912,-41,137,975,-823,11,47
1913,12,123,963,-830,4,55
1914,57,120,960,-839,10,73
1915,72,146,961,-844,24,85
1916,25,190,986,-852,38,98
1917,-30,209,1007,-869,41,112
1918,-68,187,985,-888,36,126
1919,-63,157,952,-900,27,131
1920,-18,149,945,-903,21,121
1921,12,156,960,-904,20,102
1922,37,167,978,-908,21,89
1923,23,181,981,-916,26,85
1924,-15,183,986,-930,31,94
1925,-42,163,986,-947,30,111
1926,-40,135,961,-964,25,123
1927,1,118,948,-973,23,126
1928,35,127,965,-980,27,125
1929,34,139,980,-989,32,129
1930,6,150,984,-1003,39,144
1931,-40,142,986,-1019,41,164
1932,-58,127,969,-1039,35,185
1933,-48,101,959,-1050,32,197
1934,-6,89,964,-1055,27,195
1935,30,112,966,-1059,28,188
1936,25,117,978,-1065,33,189
1937,-7,118,989,-1077,38,198
1938,-57,122,981,-1090,39,212
1939,-61,99,970,-1105,32,226
1940,-37,66,956,-1114,26,230
1941,0,62,956,-1115,23,227
1942,35,92,978,-1115,25,218
1943,19,111,982,-1123,32,215
1944,-15,107,982,-1135,35,219
1945,-66,97,982,-1146,32,224
1946,-62,80,967,-1157,25,229
1947,-15,58,959,-1159,19,219
1948,13,44,967,-1157,16,204
1949,42,70,974,-1158,20,187
1950,20,74,979,-1164,27,180
1951,-27,72,997,-1170,29,184
1952,-69,51,975,-1183,27,194
1953,-52,19,956,-1189,19,200
1954,-21,7,963,-1190,13,196
1955,6,21,979,-1184,13,186
1956,19,27,984,-1183,16,172
1957,0,38,986,-1185,19,168
1958,-45,39,976,-1191,21,170
1959,-65,22,986,-1196,17,171
1960,-50,2,956,-1200,8,167
1961,6,9,978,-1199,4,153
1962,44,31,979,-1197,7,136
1963,-199,-423,1206,-1197,11,123
1964,-350,-1683,1918,-792,-108,33
1965,29,-138,950,-396,-192,6
1966,70,-81,201,-461,-132,-68
1967,128,-342,499,-444,-122,-91
1968,949,-446,1068,-362,37,3
1969,113,-600,1053,-258,252,-54
1970,-653,-238,834,-167,184,-146
1971,-258,-498,871,-119,-2,-247
1972,-203,-259,897,-14,-7,-214
1973,-375,14,653,-5,3,-208
1974,11,-401,1226,-11,-35,-235
1975,25,-223,1054,59,-29,-249
1976,74,98,813,71,-10,-229
1977,229,-152,946,36,-1,-251
1978,57,-232,1124,95,25,-202
1979,-31,86,873,116,14,-185
1980,50,-17,1069,89,13,-183
1981,-69,20,996,89,25,-177
1982,-67,82,1057,74,15,-174
1983,23,77,996,42,1,-180
1984,-58,80,1073,24,9,-151
1985,-37,128,1037,-9,-4,-136
1986,-34,90,1138,-43,-13,-114
1987,33,192,1054,-83,-18,-101
1988,78,162,1099,-136,-10,-82
1989,126,186,1064,-175,-7,-65
1990,91,162,1098,-220,6,-37
1991,51,174,1062,-264,9,-13
1992,-40,142,1099,-304,9,13
1993,-60,190,1058,-339,0,18
1994,-55,158,1070,-379,-3,8
1995,7,188,1041,-412,-2,-10
1996,10,155,1061,-448,2,-12
1997,33,151,1062,-482,1,-4
1998,0,131,1072,-519,1,13
1999,-21,156,1060,-547,-1,17
2000,-32,152,1074,-587,-1,11
2001,-14,161,1053,-619,0,-1
2002,20,163,1056,-656,1,-5
2003,46,166,1057,-694,4,-1
2004,16,145,1064,-732,6,14
2005,-17,142,1065,-768,4,21
2006,-66,142,1074,-803,3,22
2007,-60,167,1058,-839,-3,14
2008,-22,157,1059,-880,-4,2
2009,20,147,1055,-915,-3,-3
2010,47,146,1042,-954,-1,2
2011,26,116,1048,-991,3,16
2012,-13,89,1058,-1022,2,27
2013,-64,94,1044,-1052,2,29
2014,-51,91,1037,-1083,-3,19
2015,-15,83,1018,-1109,-4,7
2016,10,58,1005,-1135,-1,2
2017,39,46,1006,-1156,1,6
2018,4,11,1007,-1177,2,19
2019,-25,0,1023,-1191,-2,25
2020,-64,-1,1017,-1209,-7,25
2021,-44,0,1002,-1225,-8,14
2022,-7,1,990,-1240,-8,4
2023,21,-11,983,-1254,-5,1
2024,35,-47,981,-1267,-2,4
2025,5,-66,985,-1275,2,17
2026,-36,-88,995,-1282,-1,25
2027,-59,-94,990,-1285,-6,25
2028,-35,-102,963,-1289,-11,12
2029,5,-108,958,-1290,-10,3
2030,32,-125,931,-1286,-2,0
2031,31,-179,946,-1286,3,10
2032,0,-211,933,-1269,-5,17
2033,-53,-238,956,-1252,-7,25
2034,-64,-227,939,-1238,-15,22
2035,-44,-245,923,-1223,-17,9
2036,2,-251,893,-1198,-15,-3
2037,32,-269,899,-1176,-9,-7
2038,21,-315,904,-1149,-5,-1
2039,-10,-341,909,-1116,-5,6
2040,-59,-355,920,-1082,-10,13
2041,-56,-338,902,-1049,-17,8
2042,-29,-355,902,-1015,-20,-1
2043,9,-347,880,-978,-18,-8
2044,38,-368,871,-942,-11,-11
2045,22,-400,879,-901,-7,-7
2046,-21,-430,900,-857,-5,1
2047,-65,-420,904,-809,-9,3
2048,-56,-395,903,-768,-16,-3
2049,-18,-390,890,-730,-18,-14
2050,19,-394,863,-687,-12,-20
2051,51,-401,874,-643,-6,-21
2052,23,-426,885,-604,2,-13
2053,-13,-449,910,-555,4,-5
2054,-65,-449,910,-510,-3,-1
2055,-53,-435,891,-468,-12,-3
2056,-3,-431,866,-421,-17,-13
2057,27,-450,859,-375,-11,-14
2058,54,-482,855,-325,-2,-15
2059,23,-514,869,-271,7,-8
2060,-23,-533,884,-210,8,-2
2061,-58,-536,875,-150,1,0
2062,-47,-534,853,-90,-7,-5
2063,-4,-511,835,-29,-9,-13
2064,37,-533,826,30,-2,-18
2065,42,-559,843,99,7,-17
2066,2,-569,843,166,14,-13
2067,-32,-583,861,235,13,-10
2068,-59,-554,869,305,6,-12
2069,-51,-535,851,368,3,-18
2070,14,-502,833,430,0,-30
2071,37,-506,841,493,7,-32
2072,34,-502,847,553,14,-28
2073,-1,-513,871,612,16,-23
2074,-53,-495,882,674,13,-19
2075,-57,-453,884,725,4,-21
2076,-30,-431,873,775,0,-29
2077,20,-411,860,821,3,-35
2078,52,-398,855,866,11,-37
2079,35,-427,876,916,20,-33
2080,-9,-418,899,964,22,-26
2081,-67,-408,890,1011,17,-25
2082,-64,-368,884,1058,10,-39
2083,-30,-357,866,1113,8,-77
2084,31,-330,840,1175,21,-122
2085,43,-333,851,1229,44,-162
2086,-18,-352,872,1279,61,-187
2087,-82,-356,900,1328,60,-206
2088,-124,-334,902,1376,46,-220
2089,-94,-268,892,1414,35,-232
2090,-34,-230,891,1437,30,-246
2091,20,-239,911,1455,35,-249
2092,31,-224,914,1474,41,-244
2093,-1,-213,927,1492,42,-230
2094,-23,-191,948,1509,41,-220
2095,-56,-170,960,1519,34,-212
2096,-39,-125,936,1525,29,-212
2097,0,-101,945,1527,27,-220
2098,30,-97,925,1532,33,-225
2099,8,-105,940,1539,40,-225
2100,-30,-96,945,1544,38,-221
2101,-56,-119,971,1549,28,-223
2102,-52,-79,967,1555,22,-216
2103,-39,-80,957,1548,18,-218
2104,27,-52,939,1544,17,-222
2105,53,-81,959,1545,23,-222
2106,35,-78,955,1552,32,-212
2107,-21,-80,950,1557,35,-197
2108,-77,-81,966,1563,29,-188
2109,-90,-41,968,1566,19,-188
2110,-63,-32,957,1562,13,-197
2111,0,-29,938,1560,10,-208
2112,36,-39,949,1565,14,-209
2113,17,-43,945,1570,18,-203
2114,-13,-55,975,1577,20,-195
2115,-67,-45,956,1582,18,-190
2116,-64,80,977,1591,11,-196
2117,57,1755,1824,1342,-52,-161
2118,-94,948,800,300,-102,-101
2119,47,320,84,188,-123,-204
2120,-92,-192,-105,175,-216,-253
2121,245,-188,371,202,-204,-156
2122,378,-28,634,265,-115,-121
2123,1168,323,1798,284,158,-153
2124,276,714,1149,206,546,-202
2125,-1083,-34,1437,63,343,83
2126,-528,183,431,83,-106,516
2127,-1,-116,634,106,-154,560
2128,147,374,1306,141,-19,353
2129,-474,444,1448,83,114,185
2130,-257,-300,627,51,-25,208
2131,-34,-64,938,192,-87,225
2132,98,309,1115,211,-17,115
2133,84,-105,1126,118,1,9
2134,213,-252,818,197,-27,26
2135,95,55,1121,263,5,48
2136,-42,-59,1038,211,31,7
2137,-204,-234,931,249,11,-15
2138,-4,-89,997,296,-24,-14
2139,-13,-155,1072,306,-17,-32
2140,-1,-156,949,331,-6,-10
2141,-30,-79,1034,359,-14,5
2142,-21,-127,1054,378,-14,-4
2143,-74,-145,973,398,-14,-1
2144,20,-164,1032,430,-24,-6
2145,29,-175,1007,467,-24,-18
2146,80,-135,1004,492,-10,-17
2147,31,-128,1001,521,-4,-25
2148,-10,-100,1043,545,2,-22
2149,-90,-101,980,563,0,-16
2150,-71,-120,1036,592,-10,-21
2151,-52,-125,986,614,-23,-23
2152,43,-137,1018,640,-25,-26
2153,78,-117,983,668,-16,-31
2154,58,-103,1026,691,0,-23
2155,0,-88,999,712,7,-17
2156,-76,-99,1044,736,5,-15
2157,-76,-111,978,759,-6,-19
2158,-29,-130,1014,790,-14,-29
2159,36,-136,980,822,-18,-37
2160,64,-107,1005,849,-11,-35
2161,50,-85,990,873,1,-30
2162,-16,-74,1031,896,11,-23
2163,-67,-68,1002,916,7,-19
2164,-75,-108,1000,942,-2,-27
2165,-14,-95,972,976,-16,-43
2166,43,-111,1007,998,-11,-49
2167,75,-87,978,1027,-6,-47
2168,23,-53,1009,1051,4,-36
2169,-37,-33,999,1067,7,-30
2170,-94,-36,1012,1090,3,-30
2171,-85,-61,974,1110,-12,-38
2172,-29,-62,965,1139,-22,-58
2173,23,-47,979,1172,-24,-83
2174,26,-18,991,1207,-19,-110
2175,4,11,1001,1233,-15,-128
2176,-27,11,986,1250,-18,-133
2177,-53,-4,994,1270,-22,-138
2178,-62,-9,959,1296,-26,-157
2179,-16,-12,961,1322,-39,-185
2180,39,0,963,1348,-43,-211
2181,47,21,979,1372,-36,-221
2182,29,49,983,1387,-28,-216
2183,-45,54,982,1395,-22,-206
2184,-65,61,968,1409,-30,-202
2185,-68,43,961,1421,-38,-213
2186,-21,29,937,1443,-49,-239
2187,18,68,944,1468,-53,-264
2188,37,94,968,1478,-50,-271
2189,9,111,974,1481,-43,-260
2190,-44,125,968,1484,-37,-238
2191,-55,121,968,1483,-38,-222
2192,-57,124,947,1486,-41,-211
2193,-32,125,919,1488,-50,-216
2194,20,140,932,1485,-58,-222
2195,40,179,944,1477,-52,-215
2196,30,196,981,1462,-40,-189
2197,-20,206,977,1445,-30,-149
2198,-37,209,943,1427,-28,-117
2199,-20,209,925,1415,-31,-112
2200,9,203,915,1410,-33,-123
2201,32,241,934,1402,-34,-129
2202,31,283,954,1390,-29,-120
2203,-11,291,967,1366,-18,-103
2204,-61,300,944,1348,-15,-84
2205,-79,288,927,1330,-25,-82
2206,-41,303,902,1313,-37,-95
2207,22,686,1259,1285,-48,-108
2208,35,821,1241,1160,-51,-98
2209,-57,725,959,1054,-45,-112
2210,-68,576,876,986,-69,-158
2211,-66,496,848,932,-86,-171
2212,-43,415,854,890,-96,-163
2213,-24,437,886,852,-101,-147
2214,28,480,899,803,-98,-126
2215,26,460,914,751,-87,-109
2216,33,471,896,705,-72,-76
2217,11,454,902,655,-52,-35
2218,33,460,933,612,-38,10
2219,13,421,920,566,-23,46
2220,62,423,902,528,-12,69
2221,65,421,884,492,2,71
2222,84,459,912,456,17,77
2223,73,465,925,413,34,81
2224,40,452,957,368,49,100
2225,34,423,916,323,66,121
2226,40,384,914,293,76,134
2227,40,384,892,268,84,133
2228,53,423,915,238,89,126
2229,50,449,926,205,99,115
2230,15,450,950,168,107,115
2231,-12,429,931,127,112,127
2232,-29,385,917,93,112,137
2233,-17,378,908,68,108,140
2234,-17,380,907,45,103,129
2235,1,414,918,21,96,112
2236,-23,431,924,-10,90,94
2237,-36,431,937,-40,84,86
2238,-59,402,929,-74,77,82
2239,-52,371,919,-100,66,81
2240,-27,360,895,-120,55,66
2241,-5,373,913,-136,43,42
2242,4,396,921,-155,38,12
2243,-2,424,928,-180,30,-7
2244,-21,419,937,-211,29,-16
2245,-32,393,936,-244,26,-17
2246,-30,354,914,-268,23,-19
2247,3,350,908,-287,17,-27
2248,27,377,914,-305,16,-39
2249,28,412,929,-330,18,-51
2250,11,427,933,-363,21,-50
2251,-16,430,931,-400,26,-39
2252,-28,423,911,-438,27,-23
2253,-28,401,903,-474,27,-9
2254,-13,417,881,-508,20,-1
2255,6,459,872,-552,8,9
2256,5,495,872,-609,-6,29
2257,-5,525,885,-679,-19,60
2258,-20,526,887,-756,-23,93
2259,-4,490,888,-833,-21,129
2260,21,476,871,-894,-14,159
2261,30,485,887,-949,0,178
2262,80,523,886,-1009,12,192
2263,73,533,890,-1079,35,212
2264,-66,576,1015,-1148,51,248
2265,-280,509,1100,-1220,24,317
2266,-271,355,1081,-1233,-22,350
2267,-190,528,1263,-1180,-24,232
2268,-94,437,1104,-1203,-28,54
2269,132,125,796,-1225,-61,-28
2270,312,53,803,-1186,-56,-11
2271,330,209,1014,-1174,11,48
2272,129,264,1102,-1206,83,96
2273,-96,173,996,-1223,101,97
2274,-145,94,899,-1199,61,59
2275,-88,59,896,-1158,23,16
2276,-32,97,947,-1140,13,1
2277,-30,129,985,-1145,20,14
2278,-78,108,997,-1142,21,26
2279,-88,99,992,-1127,8,37
2280,-33,67,968,-1103,-9,30
2281,63,30,964,-1079,-14,13
2282,154,10,961,-1052,1,21
2283,130,62,998,-1024,26,50
2284,45,114,1008,-1017,48,71
2285,-84,106,997,-1015,55,67
2286,-131,70,971,-1004,40,51
2287,-120,23,962,-983,16,31
2288,-34,9,961,-956,-4,21
2289,38,48,971,-937,-7,22
2290,47,76,990,-929,5,29
2291,2,100,999,-929,19,33
2292,-61,80,1001,-924,21,30
2293,-58,61,989,-912,10,21
2294,-19,39,977,-892,-1,8
2295,36,33,965,-876,-2,-3
2296,72,69,977,-864,3,-4
2297,37,107,975,-861,18,3
2298,-31,137,1007,-864,28,15
2299,-100,150,1001,-868,23,26
2300,-91,137,968,-876,10,25
2301,-32,126,949,-878,-3,11
2302,18,130,957,-881,-7,6
2303,66,157,969,-892,-1,8
2304,45,183,991,-905,13,20
2305,-6,212,996,-928,24,40
2306,-41,209,993,-957,23,62
2307,-3,181,958,-997,16,98
2308,47,154,926,-1042,23,143
2309,46,185,930,-1067,40,175
2310,10,239,981,-1102,50,208
2311,-21,266,972,-1152,53,240
2312,-58,240,970,-1195,53,271
2313,-80,229,946,-1235,51,300
2314,-80,223,929,-1269,42,312
2315,-36,205,931,-1296,33,304
2316,1,214,939,-1318,29,288
2317,17,213,954,-1337,30,272
2318,1,217,971,-1360,32,260
2319,-31,213,978,-1385,33,258
2320,-32,176,948,-1415,31,258
2321,-26,121,938,-1436,29,254
2322,8,107,930,-1445,27,242
2323,28,121,954,-1455,25,230
2324,20,131,964,-1467,27,220
2325,-15,118,974,-1486,31,216
2326,-60,101,964,-1501,32,217
2327,-61,88,949,-1516,25,221
2328,-22,49,941,-1525,16,209
2329,-4,35,941,-1522,12,190
2330,39,74,962,-1522,11,170
2331,26,73,986,-1530,14,151
2332,-7,75,978,-1536,20,143
2333,-55,55,970,-1550,21,142
2334,-106,-37,963,-1562,17,140
2335,-750,-1691,1803,-1303,-78,69
2336,30,-198,1420,-598,-280,-41
2337,-12,212,295,-681,-166,-196
2338,-254,289,-55,-727,-240,-425
2339,935,-438,1117,-750,-196,-345
2340,1032,-585,1232,-670,126,-218
2341,-69,-8,796,-619,394,-98
2342,-676,-364,661,-627,345,-181
2343,-818,-868,1511,-449,50,-344
2344,-201,266,415,-328,-115,-335
2345,255,-17,817,-428,-90,-371
2346,252,-396,1218,-439,27,-291
2347,-403,-363,1261,-402,55,-248
2348,71,-18,866,-375,-57,-286
2349,136,-39,849,-405,-27,-249
2350,149,-124,932,-410,35,-204
2351,-34,-308,1080,-373,39,-186
2352,37,-79,976,-322,-8,-164
2353,-2,-9,916,-338,-3,-151
2354,-22,-84,1015,-350,16,-138
2355,-97,-106,1045,-342,8,-154
2356,28,15,991,-332,-5,-152
2357,60,-2,952,-352,4,-154
2358,27,-23,1010,-353,18,-134
2359,-31,-73,1041,-355,7,-129
2360,-34,6,1040,-357,-4,-114
2361,-15,21,1005,-383,-3,-107
2362,24,24,1039,-401,3,-99
2363,52,20,1019,-419,3,-100
2364,77,25,1035,-435,14,-87
2365,46,24,1013,-457,17,-72
2366,-1,13,1042,-473,16,-47
2367,-41,52,1039,-487,3,-37
2368,-20,71,1065,-524,-7,-33
2369,13,103,1036,-547,-2,-37
2370,31,108,1048,-580,4,-34
2371,50,114,1036,-612,6,-32
2372,6,120,1059,-640,11,-20
2373,-36,127,1083,-677,8,-15
2374,-65,139,1093,-717,2,-14
2375,-45,170,1060,-760,-4,-16
2376,6,168,1070,-810,-5,-18
2377,39,180,1062,-856,-1,-14
2378,45,149,1076,-904,2,-3
2379,18,137,1075,-951,4,12
2380,-29,127,1081,-992,4,24
2381,-52,143,1073,-1033,-3,27
2382,-38,143,1056,-1079,-6,19
2383,2,144,1040,-1121,-4,8
2384,26,144,1044,-1163,0,7
2385,12,105,1051,-1205,1,14
2386,-13,88,1044,-1240,3,23
2387,-58,88,1058,-1277,-3,31
2388,-48,98,1040,-1315,-10,24
2389,-26,87,1037,-1352,-11,13
2390,13,86,1014,-1387,-7,8
2391,44,65,1011,-1423,-2,8
2392,30,29,1003,-1453,3,17
2393,-19,-4,1023,-1480,0,32
2394,-66,-4,1013,-1505,-5,36
2395,-56,4,1013,-1529,-13,30
2396,-20,2,994,-1555,-14,16
2397,5,-6,967,-1578,-8,8
2398,38,-28,964,-1600,-2,7
2399,11,-77,982,-1618,0,15
2400,-23,-95,978,-1628,-6,24
2401,-78,-111,994,-1640,-13,30
2402,-45,-95,963,-1652,-21,21
2403,-13,-115,952,-1666,-23,12
2404,20,-126,920,-1670,-16,4
2405,45,-174,927,-1678,-10,4
2406,19,-216,928,-1673,-6,13
2407,-28,-252,952,-1662,-6,21
2408,-54,-247,930,-1655,-14,24
2409,-42,-261,919,-1647,-20,19
2410,10,-254,896,-1635,-16,8
2411,29,-279,885,-1621,-8,1
2412,43,-324,877,-1603,1,-2
2413,8,-373,889,-1576,7,5
2414,-44,-401,895,-1545,6,12
2415,-73,-398,894,-1512,-3,13
2416,-49,-411,867,-1482,-12,4
2417,-10,-411,840,-1450,-12,-3
2418,27,-424,825,-1410,-4,-11
2419,26,-477,832,-1371,3,-13
2420,2,-526,839,-1323,8,-9
2421,-51,-549,868,-1265,7,-5
2422,-63,-527,848,-1217,-4,-6
2423,-41,-547,850,-1164,-10,-13
2424,13,-608,874,-1115,-6,-16
2425,123,-967,1085,-1027,13,-25
2426,25,-839,871,-871,60,-49
2427,-126,-583,624,-750,100,-114
2428,-178,-613,628,-668,107,-173
2429,-104,-749,793,-587,102,-203
2430,-91,-785,849,-483,105,-239
2431,-111,-593,749,-386,102,-274
2432,-65,-475,675,-335,90,-309
2433,-19,-614,791,-301,81,-328
2434,8,-710,854,-233,79,-330
2435,-25,-659,842,-148,83,-326
2436,-51,-494,764,-84,80,-330
2437,-12,-485,791,-52,69,-331
2438,82,-575,871,-19,65,-324
2439,104,-553,873,32,77,-308
2440,62,-470,798,73,91,-294
2441,61,-515,846,100,100,-274
2442,26,-560,871,137,111,-253
2443,-11,-541,859,190,112,-239
2444,3,-473,834,236,103,-236
2445,12,-477,822,272,98,-227
2446,43,-507,818,311,92,-212
2447,31,-554,828,359,93,-187
2448,13,-579,818,425,90,-161
2449,-31,-543,822,499,85,-140
2450,-147,-513,856,558,65,-137
2451,-208,-421,877,591,11,-167
2452,-102,-421,936,598,-45,-191
2453,32,-402,997,588,-60,-148
2454,21,-381,1005,565,-47,-71
2455,31,-463,1040,569,-54,-37
2456,124,-384,1014,606,-58,-24
2457,172,-297,946,621,-32,-18
2458,178,-281,877,620,8,-21
2459,125,-332,880,627,39,-17
2460,30,-402,933,654,51,-6
2461,-98,-393,958,679,41,16
2462,-174,-372,922,694,15,24
2463,-151,-360,906,713,-12,19
2464,-96,-339,882,735,-22,2
2465,-12,-359,881,762,-21,-22
2466,52,-377,890,789,-9,-38
2467,45,-411,914,816,2,-37
2468,15,-423,913,848,5,-29
2469,-27,-414,916,879,2,-16
2470,-20,-389,908,907,-4,-14
2471,1,-361,886,935,-2,-17
2472,34,-380,880,963,4,-23
2473,23,-392,873,995,13,-23
2474,-21,-408,878,1028,18,-20
2475,-63,-437,908,1066,10,-20
2476,-95,-416,899,1106,1,-21
2477,-77,-401,877,1144,-9,-30
2478,1,-385,860,1178,-12,-43
2479,36,-409,858,1218,-4,-49
2480,53,-420,848,1263,5,-47
2481,19,-456,873,1304,14,-42
2482,-16,-472,873,1356,13,-38
2483,-53,-456,875,1409,9,-39
2484,-45,-460,823,1463,5,-56
2485,17,-456,788,1536,8,-96
2486,62,-458,780,1614,27,-132
2487,23,-502,789,1691,50,-167
2488,-32,-527,785,1774,66,-201
2489,-103,-560,800,1864,70,-237
2490,-108,-514,773,1960,65,-277
2491,-105,-488,742,2050,63,-323
2492,-39,-468,709,2137,63,-370
2493,-7,-474,708,2232,66,-413
2494,17,-461,724,2330,69,-444
2495,-16,-451,768,2419,74,-469
2496,-57,-421,781,2500,81,-493
2497,-79,-380,779,2578,79,-521
2498,-56,-314,757,2651,74,-556
2499,-16,-275,712,2713,68,-591
2500,40,-263,744,2771,65,-617
2501,-1,-264,783,2829,74,-626
2502,-62,-256,832,2877,79,-630
2503,-144,-229,815,2927,72,-642
2504,-128,-152,793,2969,54,-655
2505,-70,-87,741,3001,36,-675
2506,-15,-108,780,3033,23,-692
2507,7,-122,810,3064,18,-698
2508,-93,424,1055,3143,19,-683
2509,493,1806,1846,1889,-179,-359
2510,-604,364,-240,424,-142,-63
2511,100,-292,-396,418,-292,-167
2512,-664,128,-182,562,-453,-106
2513,480,-720,171,623,-537,2
2514,-259,-271,328,797,-477,-34
2515,264,-589,473,968,-399,120
2516,-12,-46,168,1027,-287,133
2517,226,-428,840,1152,-175,115
2518,1547,1255,1702,1213,64,31
2519,1381,1088,1607,909,654,-218
2520,-158,-272,-104,726,865,-287
2521,-173,-226,107,794,709,-172
2522,-568,496,1116,897,566,-76
2523,-1501,1084,1812,747,168,184
2524,-563,-68,200,610,-194,474
2525,-228,-813,97,739,-296,486
2526,147,15,573,953,-304,495
2527,1136,383,1754,1016,-26,325
2528,154,415,1226,908,386,113
2529,-808,278,815,742,265,236
2530,-349,-69,725,649,-61,331
2531,-55,-115,1068,730,-80,272
2532,-188,115,993,803,17,182
2533,-146,115,1089,745,-10,128
2534,75,-190,908,766,-89,120
2535,214,-34,982,841,-50,123
2536,207,11,1071,869,14,87
2537,-9,-76,1072,883,29,88
2538,11,-52,935,899,3,120
2539,-12,-177,992,938,7,101
2540,-51,-78,968,997,14,67
2541,-67,-26,998,1020,-4,42
2542,-11,-61,1024,1039,-24,6
2543,-35,-49,986,1064,-24,-6
2544,7,-89,969,1085,-18,1
2545,-12,-56,1025,1121,-23,4
2546,41,-49,992,1139,-18,14
2547,69,-45,975,1170,-14,6
2548,67,-19,988,1197,-5,-4
2549,11,29,947,1204,2,-5
2550,-43,44,1006,1211,7,-20
2551,-106,32,995,1221,-5,-35
2552,-81,22,984,1235,-21,-38
2553,0,18,943,1257,-33,-49
2554,64,37,971,1273,-30,-50
2555,89,70,950,1277,-13,-40
2556,44,91,987,1283,5,-31
2557,-36,127,984,1285,12,-19
2558,-75,117,991,1287,3,-17
2559,-77,97,954,1296,-13,-30
2560,-5,86,936,1302,-24,-39
2561,53,100,937,1302,-21,-42
2562,55,118,969,1306,-7,-32
2563,16,144,978,1306,5,-15
2564,-59,146,988,1306,10,-3
2565,-72,137,964,1312,0,-1
2566,-53,103,955,1316,-16,-11
2567,19,81,928,1327,-21,-28
2568,68,106,945,1338,-20,-38
2569,70,133,956,1342,-9,-40
2570,18,148,979,1349,3,-37
2571,-50,157,977,1357,5,-30
2572,-67,153,974,1362,-6,-36
2573,-29,132,943,1372,-16,-47
2574,24,110,930,1385,-20,-56
2575,57,134,930,1395,-16,-52
2576,33,183,945,1400,-2,-40
2577,-16,203,986,1397,7,-30
2578,-88,214,960,1395,5,-24
2579,-90,194,940,1397,-11,-32
2580,-34,572,1233,1390,-31,-46
2581,1,738,1305,1295,-49,-47
2582,7,638,1073,1211,-78,-38
2583,9,420,869,1154,-111,-34
2584,3,237,751,1143,-125,-8
2585,6,305,865,1161,-124,27
2586,4,468,1025,1143,-105,52
2587,34,490,1003,1080,-74,62
2588,25,350,874,1027,-47,68
2589,40,327,798,1009,-33,83
2590,52,416,889,992,-23,101
2591,58,512,997,943,-1,120
2592,34,479,986,880,28,140
2593,15,356,888,840,46,157
2594,26,308,838,825,50,174
2595,62,377,881,815,48,189
2596,70,454,960,784,57,198
2597,63,442,962,736,78,211
2598,18,388,911,697,101,232
2599,1,372,904,674,115,258
2600,-10,376,907,650,121,271
2601,7,394,930,627,118,268
2602,17,425,911,600,118,258
2603,10,423,915,568,125,245
2604,-10,431,906,541,129,238
2605,-54,426,926,507,132,239
2606,-54,436,926,475,127,241
2607,-58,411,908,448,115,238
2608,-39,404,874,423,99,226
2609,-27,435,879,399,83,208
2610,-22,469,898,368,71,193
2611,-35,491,931,328,64,191
2612,-52,480,925,285,61,195
2613,-60,443,901,248,55,198
2614,-26,439,881,220,43,194
2615,-11,441,878,192,35,181
2616,25,475,898,163,29,166
2617,27,498,908,122,31,157
2618,18,509,931,80,36,158
2619,0,488,913,36,43,168
2620,2,451,895,-2,44,172
2621,20,465,876,-30,43,164
2622,49,490,891,-65,46,149
2623,66,514,904,-104,48,135
2624,57,519,903,-148,57,130
2625,36,521,904,-198,67,138
2626,26,504,908,-243,77,147
2627,15,483,898,-284,85,152
2628,37,487,881,-321,86,145
2629,63,498,881,-360,87,130
2630,66,525,883,-402,91,119
2631,53,531,910,-456,98,124
2632,12,526,904,-507,107,135
2633,4,503,901,-558,112,150
2634,-6,469,877,-603,111,161
2635,8,458,871,-639,106,163
2636,36,482,879,-679,94,163
2637,34,487,893,-728,88,168
2638,27,491,885,-779,88,184
2639,0,451,905,-831,90,210
2640,7,450,899,-877,91,233
2641,16,447,897,-918,93,242
2642,33,424,885,-957,92,242
2643,50,439,883,-997,91,239
2644,52,462,893,-1039,95,245
2645,33,457,928,-1089,104,261
2646,13,428,925,-1137,117,280
2647,5,390,894,-1176,128,298
2648,19,372,896,-1205,134,300
2649,27,381,898,-1228,142,291
2650,42,400,920,-1255,148,283
2651,35,387,913,-1292,156,283
2652,22,350,923,-1327,167,295
2653,-97,385,1024,-1349,179,311
2654,-457,376,1178,-1385,141,335
2655,-606,80,956,-1379,27,368
2656,-589,170,988,-1300,-92,332
2657,-416,177,962,-1267,-183,222
2658,28,177,1148,-1220,-205,82
2659,298,221,1269,-1187,-119,-35
2660,342,58,1047,-1201,-35,-14
2661,295,-77,843,-1165,4,54
2662,276,13,922,-1099,35,74
2663,190,141,1025,-1076,81,49
2664,-3,119,1047,-1087,111,18
2665,-190,60,962,-1073,100,3
2666,-297,72,944,-1034,60,1
2667,-278,103,918,-1011,8,-8
2668,-185,89,934,-1004,-27,-23
2669,-54,81,924,-992,-48,-32
2670,83,134,984,-983,-51,-19
2671,145,194,1004,-985,-32,-1
2672,131,219,1018,-994,-2,13
2673,58,221,985,-1004,20,22
2674,14,209,969,-1013,25,21
2675,1,193,951,-1019,22,6
2676,-5,178,943,-1025,19,-9
2677,2,189,934,-1036,18,-8
2678,-46,220,949,-1047,20,5
2679,-92,241,982,-1066,17,22
2680,-118,241,972,-1089,5,32
2681,-79,209,951,-1104,-8,28
2682,5,186,951,-1115,-20,18
2683,83,188,954,-1126,-17,15
2684,119,192,962,-1139,-2,21
2685,82,210,971,-1155,21,31
2686,-3,224,984,-1173,35,45
2687,-64,205,982,-1194,33,50
2688,-78,154,947,-1211,21,47
2689,-31,130,931,-1217,10,41
2690,27,136,954,-1225,9,40
2691,47,140,968,-1243,15,55
2692,34,167,970,-1261,26,79
2693,-16,166,992,-1284,35,110
2694,-33,163,968,-1312,36,139
2695,-28,116,947,-1331,36,152
2696,8,101,941,-1338,34,153
2697,34,128,951,-1341,33,145
2698,33,130,971,-1347,38,138
2699,-4,134,983,-1355,41,137
2700,-48,119,979,-1368,41,142
2701,-50,98,953,-1369,34,142
2702,-29,56,957,-1375,28,131
2703,1,36,942,-1367,24,107
2704,36,58,967,-1356,23,83
2705,26,61,982,-1349,26,63
2706,-8,62,985,-1347,29,52
2707,-53,58,985,-1344,29,47
2708,-48,39,965,-1346,22,38
2709,-16,15,948,-1338,16,19
2710,11,12,957,-1326,12,-3
2711,44,45,964,-1323,11,-14
2712,26,56,978,-1327,18,-17
2713,-27,67,995,-1333,26,-15
2714,-69,64,978,-1342,20,-13
2715,-53,19,955,-1341,11,-27
2716,-8,14,951,-1333,4,-55
2717,13,14,964,-1323,1,-88
2718,40,28,974,-1319,1,-109
2719,22,35,986,-1327,6,-106
2720,-12,43,996,-1342,14,-90
2721,-210,-131,1038,-1355,17,-75
2722,-590,-1741,1876,-1092,-83,-80
2723,-163,-128,1287,-550,-248,-65
2724,3,207,328,-601,-221,-246
2725,5,32,249,-616,-290,-437
2726,1038,-490,1256,-584,-185,-334
2727,567,-452,889,-494,122,-225
2728,-76,46,645,-453,274,-132
2729,133,-117,586,-492,278,-130
2730,-707,-937,1812,-420,240,-219
2731,-650,-71,763,-304,20,-345
2732,-34,-42,635,-328,-73,-388
2733,137,-248,723,-308,-47,-374
2734,-122,-287,1192,-276,23,-242
2735,-62,-277,1210,-273,-5,-271
2736,-67,-115,1037,-258,-20,-278
2737,113,115,683,-295,-3,-239
2738,186,-309,1141,-299,13,-205
2739,20,-47,985,-245,19,-156
2740,8,-3,1040,-269,0,-148
2741,38,-40,985,-287,10,-141
2742,-140,-8,1045,-289,23,-118
2743,0,74,983,-305,-2,-126
2744,35,-22,1080,-326,-1,-120
2745,40,105,991,-344,13,-97
2746,21,2,1058,-377,2,-79
2747,20,55,1065,-391,-3,-47
2748,-30,60,1073,-427,-2,-19
2749,29,100,1047,-458,-7,-7
2750,47,78,1054,-492,-2,-3
2751,67,99,1022,-513,6,4
2752,47,75,1031,-542,9,15
2753,-1,63,1040,-565,11,30
2754,-71,58,1052,-587,7,33
2755,-72,94,1044,-609,-3,26
2756,-57,70,1037,-639,-6,16
2757,13,101,1023,-661,-9,7
2758,49,73,1040,-690,-6,8
2759,49,71,1042,-713,0,19
2760,5,55,1036,-740,3,30
2761,-29,54,1048,-763,4,36
2762,-60,74,1049,-789,-1,34
2763,-32,77,1029,-816,-5,26
2764,8,67,1031,-841,-5,19
2765,40,72,1016,-865,1,20
2766,10,37,1020,-893,5,26
2767,-25,20,1036,-911,3,34
2768,-77,8,1034,-931,-3,34
2769,-65,43,1021,-949,-10,30
2770,-27,28,1018,-974,-13,19
2771,16,21,1003,-994,-10,13
2772,51,17,997,-1013,-3,13
2773,17,-25,1013,-1032,5,22
2774,-24,-28,1010,-1044,4,27
2775,-76,-42,1024,-1058,0,30
2776,-60,-27,1005,-1072,-10,22
2777,-17,-31,995,-1085,-13,13
2778,16,-46,972,-1097,-12,9
2779,48,-57,981,-1109,-5,13
2780,29,-88,979,-1118,3,21
2781,-21,-113,1011,-1120,5,30
2782,-59,-99,996,-1124,1,28
2783,-49,-110,981,-1131,-6,23
2784,0,-101,961,-1132,-11,13
2785,19,-119,949,-1135,-7,17
2786,45,-141,939,-1133,-5,20
2787,8,-178,961,-1129,1,29
2788,-34,-199,975,-1124,1,33
2789,-63,-208,983,-1113,-4,30
2790,-43,-212,941,-1106,-12,26
2791,0,-215,911,-1090,-16,31
2792,41,-221,900,-1069,-16,45
2793,51,-245,927,-1052,-14,67
2794,23,-269,943,-1033,-9,86
2795,-20,-299,964,-1010,-9,94
2796,-48,-273,950,-988,-15,99
2797,-43,-271,912,-967,-21,101
2798,3,-261,901,-945,-27,104
2799,38,-261,902,-926,-25,109
2800,26,-298,926,-910,-18,115
2801,-2,-314,942,-890,-15,114
2802,-57,-342,948,-862,-13,111
2803,-63,-315,924,-833,-18,102
2804,-49,-305,914,-810,-24,97
2805,0,-298,896,-786,-31,94
2806,34,-290,906,-766,-30,95
2807,34,-315,938,-745,-27,100
2808,0,-325,951,-729,-21,99
2809,-47,-331,954,-705,-16,92
2810,-55,-307,939,-685,-19,82
2811,-30,-289,928,-665,-22,76
2812,9,-301,913,-649,-24,74
2813,39,-297,918,-634,-21,79
2814,13,-326,913,-616,-15,84
2815,-10,-357,948,-590,-12,85
2816,-67,-369,943,-563,-12,87
2817,-49,-367,926,-534,-21,87
2818,-11,-351,896,-504,-31,92
2819,30,-354,879,-476,-35,111
2820,59,-377,883,-445,-33,130
2821,41,-400,904,-410,-27,151
2822,-19,-416,931,-373,-27,160
2823,-47,-416,929,-338,-31,158
2824,-56,-418,908,-303,-36,154
2825,-13,-391,871,-269,-43,157
2826,26,-405,867,-236,-45,161
2827,37,-426,884,-200,-39,164
2828,4,-452,899,-166,-29,161
2829,-41,-481,923,-121,-23,145
2830,-73,-470,918,-79,-24,123
2831,-62,-461,875,-38,-25,101
2832,-14,-452,849,7,-27,87
2833,28,-444,852,47,-24,81
2834,23,-468,881,86,-16,74
2835,-12,-483,903,127,-3,60
2836,-66,-496,915,170,2,37
2837,-78,-462,886,216,3,8
2838,-66,-454,879,258,1,-17
2839,-11,-438,858,302,-1,-35
2840,23,-443,859,345,3,-40
2841,11,-459,883,388,7,-32
2842,-33,-460,908,433,6,-24
2843,-60,-442,904,473,0,-25
2844,-52,-411,913,512,-5,-31
2845,-11,-372,892,547,-6,-41
2846,32,-384,886,580,-2,-49
2847,49,-372,881,615,5,-52
2848,14,-395,900,656,13,-57
2849,-9,-377,917,699,16,-62
2850,-67,-373,932,734,17,-73
2851,-55,-338,918,767,15,-90
2852,-17,-315,906,795,13,-108
2853,27,-317,902,822,17,-116
2854,32,-311,895,845,24,-113
2855,-4,-325,920,868,29,-102
2856,-45,-327,949,892,23,-94
2857,-70,-303,950,914,14,-90
2858,-46,-273,927,933,6,-96
2859,12,-247,917,946,7,-101
2860,44,-261,913,962,13,-105
2861,39,-272,924,986,22,-101
2862,6,-277,936,1006,26,-95
2863,-44,-283,949,1027,26,-91
2864,-68,-255,952,1048,17,-92
2865,-49,-238,932,1061,10,-100
2866,13,-224,908,1077,9,-107
2867,43,-234,923,1094,14,-107
2868,39,-253,925,1110,21,-100
2869,5,-274,943,1131,24,-90
2870,-41,-284,932,1153,20,-81
2871,-41,-266,919,1182,7,-77
2872,1,-258,896,1212,-4,-76
2873,75,-257,876,1244,-6,-75
2874,125,-260,893,1275,6,-73
2875,76,-294,904,1305,25,-71
2876,11,-313,931,1338,37,-74
2877,-87,-347,895,1377,36,-88
2878,-91,-305,853,1429,20,-103
2879,-43,-306,838,1477,3,-119
2880,46,-303,828,1529,-3,-129
2881,104,-292,851,1582,8,-134
2882,79,-297,898,1626,30,-133
2883,-7,-291,906,1663,43,-137
2884,-92,-283,895,1705,40,-150
2885,-95,-244,854,1746,25,-165
2886,-23,-200,839,1788,10,-179
2887,63,-215,860,1823,8,-188
2888,78,-210,902,1857,24,-186
2889,9,-202,910,1883,43,-180
2890,-74,-210,933,1905,46,-181
2891,-129,-186,881,1930,34,-182
2892,-84,-151,858,1960,14,-185
2893,18,-112,864,1985,1,-189
2894,68,-127,921,2009,7,-187
2895,42,-99,916,2028,22,-182
2896,-36,-100,920,2043,28,-181
2897,-91,269,1010,2083,22,-185
2898,0,1852,1892,1528,-48,-136
2899,-583,586,147,364,-58,-101
2900,14,-154,-247,316,-234,-124
2901,-322,-202,-229,437,-408,-54
2902,416,-590,320,502,-426,116
2903,745,190,1043,664,-277,170
2904,1301,533,1612,665,214,135
2905,253,466,283,485,627,64
2906,-463,137,1137,467,585,142
2907,-1440,1151,1645,335,207,338
2908,-494,21,883,137,-136,477
2909,0,-661,87,254,-192,444
2910,376,554,1453,425,-84,468
2911,21,688,1427,279,113,251
2912,-386,-355,946,141,53,168
2913,33,-221,372,275,-59,317
2914,100,140,1501,328,8,269
2915,-126,42,999,259,51,165
2916,-119,-297,800,254,-10,232
2917,187,-108,961,328,-33,237
2918,-206,-35,1283,357,23,202
2919,-29,-93,853,335,-6,215
2920,20,-323,1020,386,-29,201
2921,69,-148,1006,482,-6,183
2922,-27,-6,1091,500,5,166
2923,63,-210,1009,517,-10,127
2924,-69,-151,954,581,-4,119
2925,-5,-93,1051,614,1,121
2926,-110,-150,1059,644,-13,93
2927,5,-168,970,689,-22,92
2928,52,-164,981,746,-22,79
2929,102,-84,1075,783,-12,79
2930,9,-75,940,794,3,91
2931,5,-96,1045,816,6,81
2932,-94,-99,985,840,-1,67
2933,-50,-139,1026,863,-11,65
2934,4,-143,958,901,-27,41
2935,54,-140,1038,936,-23,30
2936,90,-101,952,955,-12,20
2937,37,-105,1050,975,4,3
2938,-44,-108,964,995,5,-15
2939,-76,-141,1047,1028,-6,-32
2940,-49,-178,984,1072,-22,-49
2941,4,-171,1005,1118,-28,-54
2942,66,-140,959,1158,-23,-57
2943,43,-115,1020,1194,-9,-58
2944,12,-53,976,1224,-2,-49
2945,-75,-41,1021,1248,-1,-46
2946,-82,-11,980,1273,-11,-48
2947,-81,-21,990,1294,-23,-57
2948,7,-9,948,1314,-33,-70
2949,45,24,964,1329,-30,-75
2950,70,57,966,1337,-18,-67
2951,16,86,989,1337,-5,-52
2952,-33,100,968,1335,1,-35
2953,-68,107,977,1336,-7,-33
2954,-37,93,963,1336,-16,-43
2955,2,69,932,1347,-22,-65
2956,47,94,947,1363,-20,-89
2957,16,118,961,1376,-12,-108
2958,-12,144,993,1384,-12,-118
2959,-63,123,968,1382,-18,-121
2960,-52,111,959,1388,-27,-128
2961,-33,119,935,1404,-36,-149
2962,19,104,957,1411,-42,-173
2963,57,129,944,1420,-41,-186
2964,46,150,959,1421,-30,-179
2965,8,174,969,1416,-21,-164
2966,-60,175,973,1406,-18,-145
2967,-68,159,941,1399,-26,-137
2968,-37,152,940,1401,-35,-146
2969,2,140,925,1410,-40,-164
2970,28,173,946,1417,-40,-173
2971,31,204,965,1409,-35,-165
2972,-9,214,965,1398,-27,-148
2973,-45,226,957,1388,-25,-132
2974,-63,205,937,1381,-29,-129
2975,-19,215,917,1380,-39,-144
2976,16,197,928,1386,-44,-167
2977,32,219,943,1388,-41,-176
2978,12,251,949,1382,-35,-171
2979,-30,452,1138,1366,-33,-156
2980,-33,811,1385,1279,-48,-127
2981,-94,675,1059,1154,-58,-128
2982,-26,466,922,1075,-95,-195
2983,6,315,831,1049,-109,-250
2984,46,258,857,1040,-108,-271
2985,17,387,939,1026,-97,-261
2986,-6,458,978,973,-83,-226
2987,-22,448,949,910,-74,-193
2988,-44,378,871,861,-71,-169
2989,-16,378,833,825,-74,-161
2990,13,466,897,791,-77,-169
2991,22,530,929,732,-74,-172
2992,23,551,926,655,-68,-164
2993,-8,491,887,580,-60,-149
2994,-2,468,856,512,-53,-130
2995,18,493,880,452,-46,-118
2996,42,496,903,391,-44,-112
2997,68,566,907,322,-40,-110
2998,76,541,891,242,-24,-108
2999,59,543,882,164,-11,-95
3000,36,522,881,87,2,-69
3001,40,551,910,18,17,-52
3002,43,556,914,-55,24,-47
3003,57,524,864,-127,30,-45
3004,71,514,851,-186,36,-52
3005,71,559,881,-248,48,-50
3006,40,582,917,-326,61,-31
3007,11,572,925,-403,70,-6
3008,-7,514,887,-474,78,13
3009,12,492,836,-529,81,19
3010,19,490,869,-567,78,16
3011,32,529,902,-613,72,16
3012,17,535,898,-664,72,21
3013,-2,503,890,-712,69,36
3014,-22,472,875,-755,68,55
3015,-26,446,876,-784,66,66
3016,-4,481,911,-812,60,65
3017,29,468,889,-846,55,59
3018,35,443,873,-879,55,58
3019,30,465,890,-909,60,67
3020,2,485,924,-951,67,86
3021,-7,458,915,-998,75,112
3022,-126,414,969,-1029,69,142
3023,-259,322,975,-1029,21,202
3024,-355,232,843,-989,-54,264
3025,-336,307,938,-923,-130,266
3026,-87,579,1357,-880,-129,133
3027,28,570,1360,-915,-41,-46
3028,85,165,884,-973,-15,-48
3029,197,43,696,-933,-36,34
3030,276,232,891,-903,-6,74
3031,206,366,1083,-952,58,70
3032,-22,297,1025,-1011,97,59
3033,-170,229,931,-1012,76,55
3034,-207,233,935,-999,31,50
3035,-144,239,921,-1010,4,43
3036,-61,203,927,-1035,-5,38
3037,-3,183,942,-1040,-8,41
3038,56,235,970,-1042,-9,55
3039,83,263,1000,-1060,3,65
3040,72,245,1004,-1079,16,79
3041,40,233,973,-1107,38,117
3042,33,200,952,-1139,48,156
3043,39,200,951,-1165,56,189
3044,33,211,940,-1193,67,220
3045,21,227,955,-1221,74,250
3046,-25,253,953,-1250,80,284
3047,-67,263,968,-1282,81,317
3048,-92,256,966,-1312,74,344
3049,-78,219,931,-1340,69,357
3050,-27,203,920,-1355,62,351
3051,15,204,935,-1366,60,340
3052,23,213,949,-1377,63,331
3053,10,229,968,-1389,66,329
3054,-27,214,982,-1411,68,340
3055,-31,200,957,-1434,69,353
3056,-30,160,939,-1456,66,362
3057,2,138,926,-1468,66,360
3058,17,164,932,-1474,67,356
3059,6,181,953,-1486,67,353
3060,-26,190,971,-1502,67,355
3061,-70,179,968,-1520,65,358
3062,-65,174,946,-1538,59,358
3063,-46,133,935,-1548,52,346
3064,-14,117,917,-1550,45,323
3065,14,139,940,-1547,40,299
3066,1,157,963,-1552,39,277
3067,-19,148,972,-1562,39,264
3068,-51,126,978,-1572,36,254
3069,-39,113,954,-1579,34,246
3070,-10,87,942,-1581,32,224
3071,5,72,938,-1577,31,197
3072,24,95,942,-1575,28,174
3073,2,112,956,-1579,26,158
3074,-29,115,989,-1587,26,149
3075,-54,112,970,-1601,26,145
3076,-20,83,954,-1615,24,135
3077,12,71,938,-1620,25,121
3078,33,88,936,-1624,25,106
3079,29,102,944,-1634,24,94
3080,7,121,965,-1653,28,89
3081,-28,122,987,-1679,33,95
3082,-28,106,982,-1703,37,110
3083,0,67,946,-1733,43,122
3084,-1053,-1023,1458,-1693,7,108
3085,-344,-1407,1921,-965,-425,43
3086,318,290,693,-668,-371,12
3087,122,411,-49,-761,-266,-270
3088,455,-164,611,-818,-242,-371
3089,1605,-457,1392,-799,39,-263
3090,282,-374,920,-739,428,-185
3091,-601,-130,585,-726,486,-176
3092,-1185,-1109,1216,-587,166,-381
3093,-355,-110,770,-332,-129,-403
3094,42,277,308,-397,-132,-417
3095,444,-484,1317,-456,-27,-357
3096,-323,-487,1387,-418,82,-287
3097,-239,-137,1073,-391,-6,-326
3098,186,35,579,-420,-36,-337
3099,153,-266,982,-419,22,-254
3100,-20,-264,951,-367,30,-192
3101,21,-213,1187,-323,-18,-178
3102,91,11,851,-328,-13,-177
3103,-27,-101,1001,-352,30,-155
3104,-9,-110,945,-333,21,-170
3105,-20,-104,1046,-308,8,-163
3106,96,19,897,-315,11,-162
3107,-7,-125,1034,-323,26,-147
3108,-41,-75,996,-312,13,-133
3109,-61,-79,1063,-314,-5,-122
3110,30,2,960,-325,-6,-110
3111,32,-40,1040,-343,3,-97
3112,87,-8,995,-352,9,-82
3113,72,-50,1047,-364,14,-62
3114,46,18,989,-373,17,-38
3115,-40,-31,1051,-394,19,-21
3116,-44,38,1034,-403,11,-15
3117,-51,21,1041,-427,5,-17
3118,12,82,1005,-449,2,-17
3119,18,40,1034,-473,1,-15
3120,39,61,1039,-492,3,-6
3121,-16,45,1049,-519,5,2
3122,-36,73,1056,-539,2,8
3123,-54,81,1067,-573,-1,5
3124,-36,104,1045,-601,-4,3
3125,15,105,1039,-637,-6,-1
3126,47,96,1046,-667,-3,4
3127,19,87,1041,-697,4,14
3128,-21,69,1067,-728,4,24
3129,-68,68,1049,-757,-1,24
3130,-57,78,1048,-786,-8,19
3131,-24,87,1030,-815,-11,8
3132,18,58,1025,-845,-8,2
3133,50,56,1023,-868,-2,3
3134,8,43,1031,-896,2,16
3135,-23,16,1039,-920,0,20
3136,-74,21,1045,-939,-3,23
3137,-58,49,1019,-966,-10,13
3138,-10,36,1017,-990,-11,0
3139,15,37,1010,-1010,-8,-6
3140,29,24,1018,-1038,-3,-2
3141,3,4,1018,-1060,-2,9
3142,-36,-7,1035,-1082,-6,17
3143,-71,-7,1023,-1103,-11,18
3144,-41,-11,1003,-1124,-17,9
3145,5,-10,1001,-1144,-16,-1
3146,28,-19,980,-1160,-9,-3
3147,37,-61,986,-1178,-6,3
3148,3,-90,997,-1188,-4,14
3149,-44,-92,1002,-1195,-6,22
3150,-64,-102,997,-1204,-14,19
3151,-41,-110,976,-1213,-20,7
3152,9,-107,950,-1216,-17,0
3153,36,-128,952,-1219,-12,-2
3154,40,-169,960,-1221,-6,3
3155,4,-200,960,-1217,-4,13
3156,-45,-205,968,-1207,-6,17
3157,-51,-198,955,-1203,-12,16
3158,-27,-209,945,-1196,-15,9
3159,15,-206,925,-1187,-13,5
3160,53,-222,923,-1177,-8,2
3161,35,-255,921,-1164,-5,7
3162,-1,-283,943,-1148,-3,16
3163,-59,-289,946,-1129,-7,18
3164,-52,-262,941,-1108,-12,16
3165,-22,-266,930,-1097,-16,3
3166,14,-260,908,-1081,-12,-3
3167,47,-265,907,-1066,-5,-4
3168,34,-292,937,-1051,1,2
3169,-16,-302,945,-1032,2,10
3170,-60,-294,954,-1015,-3,11
3171,-52,-269,941,-1002,-10,6
3172,-16,-250,924,-990,-13,-2
3173,13,-260,919,-980,-9,-7
3174,40,-277,930,-968,-5,-5
3175,9,-297,931,-957,2,1
3176,-30,-329,960,-939,3,5
3177,-66,-309,943,-921,-2,8
3178,-49,-309,921,-909,-12,3
3179,15,-314,923,-891,-14,-4
3180,29,-309,897,-876,-7,-2
3181,56,-344,899,-858,0,2
3182,26,-378,913,-838,7,10
3183,-30,-395,935,-808,10,19
3184,-51,-384,927,-781,3,15
3185,-51,-389,910,-759,-2,11
3186,-4,-375,872,-732,-5,4
3187,25,-393,887,-705,-3,6
3188,30,-415,879,-677,2,11
3189,-5,-460,902,-641,6,17
3190,-41,-467,906,-603,5,18
3191,-62,-463,908,-567,2,17
3192,-38,-447,874,-527,-5,6
3193,11,-451,872,-495,-5,3
3194,49,-449,850,-458,1,3
3195,30,-487,870,-417,8,10
3196,8,-519,886,-374,11,12
3197,-59,-530,895,-326,11,16
3198,-55,-501,880,-279,4,12
3199,-27,-497,869,-239,0,6
3200,20,-488,841,-194,-1,4
3201,43,-500,842,-151,6,6
3202,26,-520,864,-104,13,10
3203,-12,-539,888,-55,16,12
3204,-68,-526,896,-4,13,12
3205,-64,-492,881,40,5,4
3206,-20,-460,862,79,-2,-7
3207,4,-457,857,117,0,-8
3208,24,-453,863,154,3,-7
3209,-2,-478,894,192,5,-2
3210,-43,-478,916,231,4,3
3211,-70,-458,908,266,-2,2
3212,-43,-445,890,303,-8,-4
3213,3,-417,878,335,-8,-11
3214,39,-425,872,366,-4,-14
3215,49,-445,883,401,3,-10
3216,4,-457,892,434,9,0
3217,-46,-465,910,473,8,5
3218,-69,-441,910,510,1,-1
3219,-62,-427,895,543,-4,-9
3220,-10,-398,866,572,-6,-20
3221,29,-408,884,604,-2,-25
3222,17,-421,899,635,5,-21
3223,-10,-428,907,671,6,-17
3224,-53,-420,914,703,4,-15
3225,-56,-382,921,733,-2,-18
3226,-41,-367,897,759,-5,-29
3227,19,-356,897,783,-4,-36
3228,50,-349,888,806,4,-37
3229,22,-364,913,833,11,-29
3230,-12,-376,931,858,9,-25
3231,-58,-361,929,884,7,-20
3232,-58,-321,916,908,0,-26
3233,-26,-304,918,923,-4,-36
3234,26,-307,901,943,-2,-43
3235,52,-307,910,963,7,-41
3236,16,-317,922,979,14,-29
3237,-19,-329,938,1000,12,-23
3238,-65,-327,942,1023,6,-21
3239,-50,-286,930,1041,1,-25
3240,-11,-280,909,1056,-1,-35
3241,37,-301,902,1078,4,-42
3242,38,-311,891,1100,11,-41
3243,11,-327,911,1127,15,-33
3244,-32,-350,928,1155,13,-29
3245,-68,-350,906,1191,7,-39
3246,-19,-335,869,1243,0,-80
3247,58,-297,862,1288,12,-117
3248,58,-336,862,1328,37,-148
3249,33,-362,864,1373,52,-167
3250,-31,-384,879,1423,57,-177
3251,-85,-372,875,1475,50,-183
3252,-106,-338,871,1521,38,-194
3253,-82,-329,851,1561,23,-213
3254,17,-301,836,1607,10,-235
3255,110,-298,866,1653,17,-241
3256,110,-301,885,1688,40,-240
3257,43,-305,905,1721,60,-231
3258,-55,-308,905,1754,67,-231
3259,-104,-275,885,1794,55,-245
3260,-81,-226,823,1835,37,-268
3261,10,-208,820,1874,24,-289
3262,85,-208,856,1909,28,-302
3263,61,-221,913,1941,47,-298
3264,-16,-211,937,1964,60,-291
3265,-117,-199,913,1982,57,-289
3266,-106,-138,876,2005,38,-292
3267,-52,-112,871,2022,19,-298
3268,36,-108,887,2033,12,-292
3269,65,-115,938,2044,19,-280
3270,12,-109,964,2047,34,-259
3271,-61,-99,944,2050,36,-246
3272,-93,-84,911,2057,25,-237
3273,-56,-49,897,2064,9,-230
3274,32,-23,917,2071,1,-222
3275,68,-57,951,2074,6,-216
3276,66,-37,934,2078,16,-209
3277,-58,399,1063,2113,22,-205
3278,101,1851,1906,1410,-66,-131
3279,-401,516,109,354,-48,-65
3280,200,-91,-188,308,-159,-67
3281,-240,-1,-147,392,-280,4
3282,556,-490,313,466,-293,159
3283,145,-241,356,547,-186,229
3284,1121,135,1526,695,-6,375
3285,1296,1148,1745,628,505,205
3286,-1266,992,1748,376,712,162
3287,-792,277,461,96,94,528
3288,-27,-272,354,100,-82,670
3289,-111,-397,207,260,-41,620
3290,-655,1052,1593,280,-13,573
3291,-482,591,1485,38,-17,266
3292,-393,-326,783,-4,-17,165
3293,39,-95,338,151,-86,278
3294,153,366,1608,205,-85,224
3295,319,186,1102,114,-20,74
3296,236,-353,828,132,20,58
3297,311,-72,922,236,18,80
3298,-138,84,1260,227,60,70
3299,-98,-111,906,168,55,62
3300,-251,-296,909,202,22,96
3301,-145,-102,953,267,-10,135
3302,-166,-37,1106,273,-24,98
3303,55,-188,1006,300,-37,46
3304,0,-129,971,361,-31,21
3305,123,-81,1091,395,-27,7
3306,4,-158,1036,416,-15,-15
3307,51,-169,1011,448,-4,-10
3308,-7,-211,976,484,-3,-16
3309,37,-177,1066,528,-3,-19
3310,-17,-169,955,555,2,-27
3311,-21,-182,1059,595,5,-32
3312,-94,-147,981,631,-5,-29
3313,-84,-166,1053,661,-13,-22
3314,-63,-190,968,699,-23,-35
3315,18,-194,1040,741,-30,-37
3316,83,-185,980,781,-27,-42
3317,90,-176,1063,820,-10,-42
3318,31,-143,975,854,5,-35
3319,-54,-143,1052,888,11,-33
3320,-100,-144,988,925,2,-35
3321,-101,-177,1019,962,-10,-45
3322,-11,-178,954,1011,-26,-65
3323,14,-170,1023,1066,-27,-93
3324,56,-127,995,1113,-23,-116
3325,25,-131,1035,1149,-16,-126
3326,-7,-124,987,1190,-10,-128
3327,-65,-119,1020,1232,-11,-134
3328,-54,-146,977,1278,-22,-160
3329,-20,-156,977,1329,-34,-195
3330,53,-143,975,1384,-39,-228
3331,39,-129,1003,1434,-32,-250
3332,27,-100,1002,1473,-26,-254
3333,-54,-115,986,1508,-22,-254
3334,-60,-103,986,1551,-30,-257
3335,-75,-118,970,1596,-43,-279
3336,-11,-114,951,1646,-55,-312
3337,10,-81,949,1695,-58,-348
3338,23,-47,979,1733,-57,-365
3339,-17,-16,964,1762,-53,-368
3340,-65,-12,980,1786,-52,-361
3341,-84,11,949,1809,-59,-360
3342,-64,16,945,1836,-71,-372
3343,-18,24,905,1864,-81,-399
3344,20,58,938,1889,-86,-422
3345,18,119,928,1903,-80,-426
3346,-10,153,970,1900,-74,-412
3347,-57,166,934,1896,-71,-396
3348,-82,171,920,1895,-76,-391
3349,-50,201,900,1898,-88,-402
3350,-21,194,901,1899,-98,-427
3351,23,240,900,1899,-100,-445
3352,10,274,929,1882,-94,-440
3353,-9,315,934,1855,-90,-423
3354,-64,314,931,1831,-87,-400
3355,-62,309,900,1807,-94,-387
3356,-43,325,882,1786,-102,-395
3357,17,832,1311,1752,-114,-406
3358,2,1172,1462,1552,-140,-373
3359,-31,861,1124,1341,-165,-371
3360,-49,342,663,1254,-173,-406
3361,-35,197,613,1270,-174,-407
3362,2,435,866,1285,-176,-388
3363,44,672,1113,1206,-161,-358
3364,66,531,964,1094,-137,-325
3365,34,393,798,1051,-115,-297
3366,45,408,755,1026,-97,-271
3367,25,504,906,982,-78,-237
3368,53,595,1008,920,-64,-194
3369,16,518,961,848,-47,-159
3370,42,419,823,801,-35,-142
3371,38,405,796,773,-24,-141
3372,76,504,888,737,-14,-135
3373,49,551,967,685,5,-122
3374,23,543,964,623,20,-91
3375,-7,456,884,555,30,-64
3376,0,414,838,533,38,-48
3377,4,439,867,503,38,-49
3378,26,503,918,466,40,-53
3379,4,526,926,420,45,-53
3380,-12,510,920,370,48,-41
3381,-59,456,882,324,49,-22
3382,-63,450,885,287,44,-4
3383,-52,460,895,252,35,0
3384,-37,466,901,216,24,-1
3385,-25,471,887,181,16,-10
3386,-27,480,888,142,10,-12
3387,-41,490,905,104,10,-2
3388,-59,473,923,59,5,16
3389,-54,446,902,20,-2,31
3390,-28,432,880,-14,-10,37
3391,4,447,880,-39,-16,32
3392,12,479,910,-74,-15,24
3393,12,496,909,-114,-10,26
3394,-1,495,930,-158,-5,40
3395,-5,460,914,-204,1,62
3396,-8,423,902,-239,5,79
3397,20,425,890,-265,9,90
3398,47,458,899,-296,17,91
3399,54,480,914,-333,25,89
3400,37,482,922,-378,36,96
3401,15,473,916,-419,49,112
3402,11,445,915,-458,59,134
3403,8,418,907,-492,66,153
3404,24,419,891,-517,71,157
3405,44,447,903,-547,75,152
3406,41,471,908,-585,83,149
3407,24,465,919,-629,92,153
3408,-4,434,932,-672,99,166
3409,-10,401,918,-705,104,184
3410,8,357,905,-729,106,198
3411,19,343,905,-740,107,197
3412,35,375,922,-752,108,193
3413,24,396,925,-776,113,186
3414,5,371,954,-804,119,188
3415,-15,332,937,-829,123,203
3416,-21,278,929,-841,126,218
3417,1,267,930,-839,123,227
3418,1,270,938,-835,121,228
3419,7,291,944,-836,119,226
3420,-20,293,939,-846,113,228
3421,-32,269,947,-854,112,239
3422,-51,251,957,-855,109,257
3423,-58,224,961,-854,106,270
3424,-37,216,944,-842,102,273
3425,-138,314,1032,-833,89,265
3426,-298,306,1018,-868,33,241
3427,-375,47,824,-888,-59,192
3428,-430,-38,820,-834,-152,128
3429,-406,81,1022,-772,-238,55
3430,54,347,1495,-759,-278,-24
3431,453,256,1452,-835,-192,-63
3432,467,-98,901,-849,-61,-24
3433,404,-216,689,-742,1,46
3434,420,-56,906,-623,50,124
3435,269,224,1199,-593,121,195
3436,-63,262,1186,-644,166,218
3437,-287,92,938,-655,139,164
3438,-287,-6,825,-600,72,74
3439,-234,35,847,-539,11,7
3440,-200,143,940,-508,-26,-49
3441,-139,238,1054,-525,-56,-86
3442,-27,174,1064,-568,-72,-76
3443,116,103,983,-579,-61,-32
3444,184,119,975,-554,-29,8
3445,196,189,970,-542,2,27
3446,177,226,982,-555,25,18
3447,91,222,969,-562,50,-3
3448,-27,235,992,-566,60,-11
3449,-126,249,994,-574,48,-5
3450,-163,229,964,-583,26,-2
3451,-121,238,916,-599,3,-7
3452,-59,228,918,-610,-10,-14
3453,19,269,946,-628,-15,-6
3454,38,314,987,-654,-4,12
3455,22,319,1006,-681,11,28
3456,-21,309,993,-707,14,42
3457,-18,278,946,-729,10,41
3458,20,258,930,-749,5,20
3459,59,256,942,-767,9,6
3460,56,255,958,-788,18,7
3461,14,276,979,-809,28,22
3462,-65,292,984,-832,33,42
3463,-99,276,975,-860,22,51
3464,-89,235,936,-879,7,41
3465,-15,203,939,-890,-5,25
3466,62,217,953,-902,-5,18
3467,79,214,976,-917,7,26
3468,52,225,983,-936,24,39
3469,-30,211,991,-950,32,51
3470,-48,190,973,-964,26,62
3471,-34,144,965,-976,18,60
3472,10,98,939,-968,15,58
3473,37,148,958,-954,19,65
3474,15,197,986,-963,23,78
3475,-32,207,980,-985,26,85
3476,-77,185,985,-1002,25,85
3477,-59,162,967,-1015,14,89
3478,-12,136,958,-1018,8,97
3479,35,138,948,-1020,10,107
3480,53,181,965,-1030,19,119
3481,25,224,971,-1051,29,133
3482,-16,239,986,-1087,35,146
3483,-46,210,976,-1126,36,158
3484,-52,171,944,-1155,34,175
3485,-17,165,947,-1178,29,190
3486,-6,168,940,-1192,28,192
3487,11,203,955,-1214,28,195
3488,8,213,958,-1245,32,197
3489,-15,196,983,-1281,36,203
3490,-33,162,967,-1312,37,219
3491,-18,108,952,-1337,34,239
3492,7,104,935,-1349,33,255
3493,25,127,948,-1360,37,264
3494,16,158,960,-1386,40,269
3495,-11,163,961,-1423,43,272
3496,-40,137,960,-1465,45,291
3497,-53,109,948,-1500,43,323
3498,-60,87,937,-1522,40,351
3499,-42,91,934,-1542,33,371
3500,-8,115,936,-1563,32,380
3501,-21,126,950,-1581,32,384
3502,-40,135,964,-1608,33,395
3503,-80,131,969,-1636,30,412
3504,-72,117,931,-1659,24,425
3505,-45,74,929,-1681,17,424
3506,-16,73,926,-1691,13,412
3507,23,105,960,-1701,8,396
3508,30,110,973,-1718,12,379
3509,-506,-477,1220,-1722,14,360
3510,-423,-1677,1930,-1055,-235,140
3511,182,211,797,-510,-264,51
3512,60,72,27,-574,-155,-76
3513,-443,226,-73,-593,-206,-140
3514,1012,-189,754,-639,-198,-72
3515,1150,-1141,1648,-529,99,24
3516,297,64,748,-402,428,254
3517,-1038,-423,865,-407,419,114
3518,-1049,-492,1455,-298,27,-269
3519,-31,122,521,-306,-137,-343
3520,432,-308,954,-351,-38,-290
3521,-133,-196,934,-315,58,-207
3522,-167,-315,1170,-314,-7,-192
3523,317,-294,1115,-290,-67,-215
3524,18,25,837,-275,11,-103
3525,109,-43,811,-316,17,-99
3526,171,-364,1225,-273,16,-101
3527,3,55,910,-222,25,-72
3528,49,9,934,-265,18,-90
3529,-41,-153,971,-249,32,-86
3530,-232,-18,1031,-217,23,-74
3531,-62,44,987,-237,-8,-110
3532,-42,-27,1043,-251,1,-118
3533,-14,87,975,-259,3,-120
3534,62,6,1046,-275,-7,-125
3535,87,74,1024,-284,-2,-104
3536,31,52,1077,-315,9,-82
3537,0,70,1055,-344,10,-66
3538,-25,89,1080,-372,5,-53
3539,0,129,1039,-408,1,-47
3540,17,121,1050,-446,4,-42
3541,35,140,1046,-477,6,-34
3542,-8,116,1071,-514,10,-27
3543,-46,140,1066,-548,5,-19
3544,-92,134,1080,-587,-3,-19
3545,-61,180,1072,-627,-10,-23
3546,-17,178,1070,-673,-13,-31
3547,33,191,1064,-718,-10,-35
3548,47,179,1074,-763,-3,-32
3549,12,184,1067,-808,1,-19
3550,-28,162,1106,-854,-4,-10
3551,-58,193,1091,-901,-8,-5
3552,-57,202,1077,-954,-14,-8
3553,11,219,1069,-1005,-18,-21
3554,15,204,1071,-1057,-10,-22
3555,28,194,1063,-1106,-5,-16
3556,-2,165,1077,-1159,-5,-4
3557,-42,160,1082,-1204,-10,5
3558,-61,180,1078,-1252,-18,6
3559,-36,172,1066,-1302,-22,-2
3560,16,183,1043,-1353,-20,-14
3561,33,164,1048,-1402,-11,-17
3562,25,129,1036,-1445,-6,-12
3563,-8,84,1041,-1486,-6,2
3564,-51,80,1050,-1519,-13,13
3565,-59,92,1038,-1558,-25,17
3566,-22,76,1026,-1597,-29,7
3567,15,82,1005,-1633,-24,-3
3568,44,66,983,-1669,-12,-9
3569,30,-4,991,-1699,-5,-8
3570,-2,-45,992,-1718,-4,4
3571,-66,-55,987,-1732,-12,18
3572,-49,-45,982,-1752,-25,23
3573,-12,-69,981,-1771,-30,17
3574,25,-66,936,-1784,-22,10
3575,51,-98,927,-1797,-11,1
3576,27,-158,921,-1804,1,-3
3577,-23,-241,921,-1797,2,-3
3578,-71,-256,924,-1775,-12,11
3579,-52,-254,917,-1766,-31,25
3580,7,-273,903,-1755,-41,32
3581,33,-281,870,-1733,-31,36
3582,53,-302,850,-1713,-20,29
3583,48,-367,861,-1685,-7,24
3584,19,-425,903,-1651,0,24
3585,-42,-437,886,-1612,-1,28
3586,-40,-441,853,-1571,-12,28
3587,-7,-446,834,-1532,-19,29
3588,18,-459,809,-1484,-16,38
3589,37,-485,807,-1433,-10,42
3590,20,-534,837,-1377,-2,45
3591,-28,-555,858,-1320,0,40
3592,-53,-558,865,-1264,-4,33
3593,-52,-556,828,-1210,-11,23
3594,-13,-540,797,-1154,-14,15
3595,27,-544,797,-1094,-9,11
3596,44,-567,821,-1037,0,12
3597,19,-601,844,-977,8,9
3598,18,-764,966,-913,13,4
3599,59,-947,1023,-806,25,7
3600,-125,-719,675,-681,37,20
3601,-99,-669,561,-587,21,44
3602,-60,-869,662,-467,34,78
3603,-60,-863,676,-285,59,78
3604,-184,-781,638,-119,73,39
3605,-245,-729,624,34,59,-13
3606,-224,-686,751,170,30,-76
3607,-134,-634,835,281,-4,-145
3608,-22,-453,817,348,-17,-183
3609,146,-382,924,354,-16,-178
3610,175,-356,1032,319,6,-143
3611,136,-271,1070,256,18,-110
3612,95,-243,1068,168,10,-97
3613,117,-238,1041,83,-3,-74
3614,135,-293,945,39,1,-45
3615,128,-287,918,47,10,-13
3616,88,-301,926,55,19,19
3617,4,-343,965,65,29,37
3618,-81,-328,968,76,23,33
3619,-155,-328,932,84,10,22
3620,-127,-331,902,96,-12,11
3621,-60,-342,931,112,-27,5
3622,17,-348,937,133,-28,0
3623,62,-365,934,146,-18,-3
3624,58,-399,915,164,-6,1
3625,9,-430,916,191,1,9
3626,-19,-435,924,223,0,15
3627,-32,-445,910,250,-4,15
3628,4,-428,871,278,-7,11
3629,22,-452,864,315,-2,9
3630,6,-482,868,355,5,8
3631,-31,-513,874,401,10,5
3632,-79,-529,888,452,9,0
3633,-82,-501,878,500,0,-9
3634,-53,-489,867,544,-7,-20
3635,16,-476,848,587,-7,-29
3636,54,-481,854,632,0,-31
3637,45,-493,866,681,10,-28
3638,7,-516,894,724,15,-22
3639,-53,-506,875,775,15,-18
3640,-54,-473,875,822,7,-20
3641,-27,-450,863,865,2,-26
3642,13,-461,849,904,6,-31
3643,44,-461,844,950,12,-36
3644,10,-484,863,995,17,-28
3645,-23,-498,872,1044,16,-25
3646,-67,-495,877,1097,9,-23
3647,-54,-463,863,1144,2,-28
3648,-8,-433,846,1189,0,-37
3649,42,-446,845,1232,7,-47
3650,52,-439,842,1279,18,-46
3651,12,-450,853,1323,27,-38
3652,-21,-453,885,1373,23,-35
3653,-66,-424,884,1417,16,-29
3654,-58,-382,858,1459,8,-35
3655,-7,-343,855,1493,5,-48
3656,26,-352,855,1531,15,-58
3657,22,-347,855,1570,23,-63
3658,-28,-372,854,1616,24,-74
3659,-32,-352,871,1686,23,-112
3660,-44,-309,868,1742,36,-157
3661,-55,-298,860,1789,53,-212
3662,-35,-279,826,1834,65,-264
3663,-10,-291,839,1885,74,-309
3664,-34,-286,829,1937,80,-339
3665,-64,-280,847,1985,81,-357
3666,-100,-297,873,2026,74,-377
3667,-113,-253,887,2063,62,-390
3668,-91,-206,839,2091,50,-415
3669,21,-206,834,2115,35,-442
3670,128,-204,851,2143,36,-444
3671,133,-223,899,2171,55,-423
3672,61,-220,922,2190,73,-393
3673,-62,-204,906,2209,77,-371
3674,-94,-133,872,2231,58,-366
3675,-59,-91,859,2240,35,-376
3676,18,-97,856,2254,22,-387
3677,78,-100,905,2269,24,-388
3678,38,-107,939,2277,39,-368
3679,-50,-94,941,2285,47,-350
3680,-132,-61,904,2291,39,-342
3681,-96,-11,885,2292,16,-350
3682,-16,16,894,2296,0,-363
3683,76,-12,947,2297,-1,-368
3684,64,531,1143,2327,13,-359
3685,240,1827,1887,1437,-78,-217
3686,-485,672,20,337,-70,-123
3687,60,71,-188,251,-222,-243
3688,-470,334,-115,266,-346,-251
3689,423,-305,276,237,-404,-190
3690,-97,-31,398,271,-337,-216
3691,298,-326,509,342,-250,-95
3692,900,671,1074,348,-94,-83
3693,1476,704,1722,279,398,-308
3694,143,233,230,118,788,-357
3695,-488,88,820,68,741,-196
3696,-1811,568,1828,59,252,217
3697,-581,461,1019,-72,-284,710
3698,140,-359,199,-47,-345,652
3699,613,233,1240,99,-205,509
3700,787,435,1069,107,173,252
3701,-633,185,1594,72,339,91
3702,-564,7,554,31,16,301
3703,-58,-232,755,69,-96,392
3704,-17,122,1184,139,10,223
3705,-427,224,1157,87,56,144
3706,11,-235,771,21,-47,167
3707,-11,-245,1110,152,-58,181
3708,-7,193,1045,181,-5,186
3709,57,-162,1064,111,-15,129
3710,182,-411,906,193,-21,107
3711,76,-42,1054,274,8,128
3712,79,-155,1143,260,21,87
3713,-112,-352,941,308,12,72
3714,-87,-201,963,374,3,107
3715,-143,-275,1112,407,-7,76
3716,-76,-312,1007,469,-21,58
3717,15,-296,968,543,-33,45
3718,123,-290,1112,614,-29,3
3719,32,-232,998,674,-15,-14
3720,61,-261,1044,722,-10,-19
3721,-31,-281,1031,777,-5,-32
3722,-47,-247,1018,830,-3,-23
3723,-27,-255,982,876,-11,-36
3724,7,-248,1046,931,-17,-50
3725,20,-190,957,977,-16,-45
3726,19,-164,1043,1013,-7,-41
3727,-53,-132,990,1048,-2,-36
3728,-71,-114,1031,1079,-9,-26
3729,-42,-127,971,1107,-20,-41
3730,18,-115,995,1143,-25,-52
3731,84,-79,950,1165,-22,-56
3732,73,-54,1025,1187,-7,-57
3733,22,2,969,1201,8,-43
3734,-63,16,1009,1210,11,-34
3735,-87,25,977,1220,1,-39
3736,-81,14,973,1230,-13,-46
3737,19,4,935,1239,-25,-57
3738,56,40,982,1247,-23,-63
3739,72,86,963,1247,-10,-51
3740,17,90,1008,1241,5,-37
3741,-53,110,972,1242,2,-31
3742,-73,88,974,1234,12,-26
3743,-35,64,962,1240,-6,-36
3744,-6,55,948,1251,-21,-55
3745,40,85,949,1258,-24,-71
3746,20,104,967,1260,-20,-81
3747,-14,124,991,1265,-13,-84
3748,-69,121,985,1263,-12,-79
3749,-61,99,976,1262,-18,-80
3750,-31,88,937,1274,-27,-96
3751,18,77,957,1286,-35,-120
3752,48,97,951,1295,-35,-140
3753,38,122,975,1297,-27,-136
3754,0,126,982,1291,-16,-123
3755,-65,123,982,1289,-14,-104
3756,-75,122,949,1292,-21,-101
3757,-43,120,942,1299,-33,-121
3758,1,118,939,1311,-40,-147
3759,29,151,957,1319,-41,-165
3760,29,193,967,1315,-35,-165
3761,-11,211,975,1306,-27,-153
3762,-58,219,970,1294,-26,-140
3763,-74,211,939,1285,-31,-138
3764,-32,215,911,1281,-43,-157
3765,14,219,938,1280,-48,-181
3766,34,246,946,1273,-46,-192
3767,23,263,962,1258,-40,-187
3768,-21,270,962,1239,-33,-173
3769,-54,275,961,1221,-34,-160
3770,-62,252,932,1206,-42,-160
3771,-24,239,917,1199,-52,-177
3772,21,266,918,1194,-57,-197
3773,35,290,955,1180,-54,-203
3774,18,311,976,1154,-46,-190
3775,-38,306,958,1128,-38,-164
3776,-51,347,985,1108,-40,-143
3777,-44,655,1254,1057,-57,-130
3778,-38,596,1069,959,-72,-119
3779,-100,575,914,904,-95,-156
3780,-94,535,922,843,-125,-216
3781,-68,436,913,787,-145,-236
3782,-71,377,899,751,-154,-225
3783,-53,345,886,716,-159,-196
3784,-10,382,921,688,-161,-171
3785,25,394,947,654,-159,-158
3786,57,414,911,615,-149,-148
3787,79,407,905,576,-134,-137
3788,98,442,950,540,-112,-124
3789,115,442,971,496,-85,-92
3790,118,401,923,455,-54,-60
3791,127,368,883,424,-27,-41
3792,137,392,887,400,1,-36
3793,150,444,941,370,30,-34
3794,108,466,929,328,58,-25
3795,45,456,915,286,81,-11
3796,6,465,940,241,92,4
3797,-21,438,927,199,96,14
3798,-6,421,894,163,93,15
3799,-1,409,882,130,89,1
3800,2,432,904,101,85,-12
3801,-4,456,937,66,82,-19
3802,-31,443,946,21,83,-10
3803,-38,400,926,-13,82,1
3804,-42,345,919,-42,76,7
3805,-18,339,898,-58,67,5
3806,9,356,913,-73,53,-3
3807,9,386,943,-91,43,-3
3808,-3,382,944,-120,39,5
3809,-28,360,936,-147,38,17
3810,-27,326,941,-167,34,32
3811,-18,311,928,-178,29,43
3812,-7,303,928,-184,19,47
3813,16,336,930,-194,12,44
3814,14,351,929,-214,16,43
3815,11,361,968,-235,23,45
3816,-18,354,962,-265,37,53
3817,-9,333,951,-292,48,59
3818,0,313,931,-311,56,56
3819,12,312,937,-325,61,49
3820,29,347,934,-343,64,37
3821,19,365,949,-367,71,33
3822,-6,373,956,-396,80,38
3823,-31,354,953,-423,87,53
3824,-40,330,931,-448,89,69
3825,-29,327,907,-469,80,78
3826,-4,336,905,-484,71,80
3827,3,371,918,-506,66,81
3828,-5,405,924,-541,64,97
3829,-20,410,933,-581,64,124
3830,-18,389,932,-624,65,157
3831,-21,368,902,-656,69,185
3832,-15,403,925,-686,68,202
3833,-121,466,982,-733,51,207
3834,-206,347,904,-788,1,211
3835,-270,219,810,-801,-57,207
3836,-374,279,904,-784,-112,184
3837,-243,435,1181,-784,-159,122
3838,42,520,1387,-809,-141,10
3839,238,320,1103,-865,-93,-41
3840,345,126,774,-865,-61,-1
3841,386,200,806,-831,-24,49
3842,323,369,1004,-849,46,83
3843,60,412,1089,-909,112,91
3844,-190,353,1005,-954,110,78
3845,-255,274,886,-965,54,50
3846,-196,235,852,-957,6,10
3847,-98,310,895,-974,-16,-9
3848,-39,346,949,-1016,-19,11
3849,-15,358,991,-1056,-16,40
3850,-18,379,991,-1084,-14,66
3851,34,345,951,-1114,-13,72
3852,109,270,924,-1136,-7,64
3853,172,244,914,-1137,13,87
3854,180,314,952,-1148,38,138
3855,88,357,962,-1181,69,182
3856,-42,360,958,-1223,89,193
3857,-129,337,963,-1264,78,194
3858,-118,276,941,-1311,53,206
3859,-33,232,907,-1353,35,234
3860,15,215,897,-1376,40,262
3861,24,278,946,-1397,51,278
3862,-1,329,983,-1440,60,282
3863,-28,284,982,-1489,59,283
3864,-23,215,938,-1531,56,293
3865,-8,153,904,-1549,56,309
3866,15,168,928,-1549,56,315
3867,27,212,956,-1560,57,310
3868,6,213,955,-1583,59,295
3869,-15,198,942,-1609,61,283
3870,-60,168,948,-1634,60,280
3871,-67,155,935,-1651,54,285
3872,-60,121,945,-1667,45,287
3873,-15,110,926,-1667,36,278
3874,19,137,935,-1665,36,264
3875,21,155,952,-1674,40,248
3876,-12,157,967,-1691,46,236
3877,-50,122,957,-1711,44,238
3878,-52,89,941,-1728,40,252
3879,-25,59,925,-1733,33,263
3880,-6,53,938,-1731,32,267
3881,25,90,948,-1733,32,264
3882,4,88,957,-1749,39,261
3883,-27,71,955,-1764,43,265
3884,-73,39,950,-1778,42,282
3885,-62,7,939,-1792,34,301
3886,-32,-10,935,-1794,25,314
3887,0,-16,950,-1792,23,320
3888,9,3,956,-1791,26,318
3889,-13,0,963,-1798,31,321
3890,-49,-30,968,-1810,33,338
3891,-77,-63,956,-1812,28,368
3892,-69,-98,942,-1813,22,400
3893,-820,-1060,1442,-1734,-9,381
3894,148,-1311,1803,-791,-352,146
3895,92,49,417,-472,-238,201
3896,-121,-57,-208,-482,-271,92
3897,-331,-216,41,-424,-344,177
3898,1137,-606,963,-350,-315,273
3899,553,-1067,1477,-168,7,460
3900,168,114,378,-34,221,632
3901,159,-273,617,-17,253,494
3902,282,-383,812,80,302,406
3903,-160,-159,982,128,372,405
3904,-935,-705,1785,177,204,98
3905,-594,-22,815,195,-59,-222
3906,84,64,405,168,-87,-281
3907,221,-302,833,193,-38,-295
3908,47,-194,1342,219,46,-180
3909,-152,-296,1354,166,30,-219
3910,24,-38,1028,127,-5,-246
3911,9,-11,647,84,7,-190
3912,118,-208,1175,79,14,-110
3913,-43,-95,1134,93,15,-84
3914,15,32,1017,66,6,-75
3915,93,25,872,36,-3,-77
3916,-21,-45,1048,51,16,-30
3917,-71,55,1025,40,12,-25
3918,-88,11,1131,23,5,-30
3919,-68,125,931,2,-1,-40
3920,-8,86,1063,-22,-8,-39
3921,38,112,1019,-37,-12,-41
3922,29,112,1102,-65,-4,-35
3923,19,154,1020,-95,-2,-29
3924,-41,112,1105,-129,3,-15
3925,-44,209,1047,-161,-2,-14
3926,-42,175,1107,-206,-3,-15
3927,24,259,1055,-247,-5,-25
3928,18,220,1101,-296,2,-21
3929,32,257,1070,-342,3,-17
3930,-27,220,1111,-393,5,-5
3931,-55,260,1090,-441,0,0
3932,-67,244,1129,-499,-3,-2
3933,-30,284,1077,-553,-9,-11
3934,12,250,1090,-610,-8,-14
3935,52,259,1083,-659,-7,-10
3936,30,221,1101,-715,-1,4
3937,-5,207,1086,-763,-1,14
3938,-64,192,1085,-809,-2,19
3939,-55,207,1063,-853,-9,12
3940,-36,182,1069,-899,-12,4
3941,14,165,1051,-938,-12,-3
3942,45,146,1041,-975,-9,0
3943,18,113,1038,-1009,-7,11
3944,-12,79,1047,-1039,-7,21
3945,-55,74,1040,-1063,-9,22
3946,-54,84,1025,-1090,-15,17
3947,-8,63,1021,-1114,-17,5
3948,19,44,1003,-1135,-13,2
3949,46,38,1005,-1155,-10,4
3950,19,7,1000,-1173,-4,14
3951,-17,-20,1021,-1182,-4,21
3952,-59,-7,1011,-1196,-7,24
3953,-49,-11,1005,-1211,-13,19
3954,1,0,989,-1224,-15,5
3955,21,-11,981,-1236,-8,2
3956,44,-29,970,-1251,-5,5
3957,13,-62,992,-1258,0,16
3958,-24,-67,1008,-1261,-3,22
3959,-64,-62,1000,-1270,-8,23
3960,-41,-60,980,-1279,-13,15
3961,1,-45,972,-1288,-13,6
3962,35,-52,957,-1297,-8,3
3963,36,-76,975,-1305,-3,7
3964,7,-90,979,-1311,1,13
3965,-48,-99,998,-1315,-1,17
3966,-74,-71,995,-1321,-10,16
3967,-57,-71,984,-1331,-18,6
3968,-14,-59,970,-1343,-18,0
3969,20,-48,960,-1356,-16,-5
3970,27,-99,969,-1369,-10,-4
3971,1,-123,976,-1372,-7,1
3972,-46,-138,992,-1377,-9,8
3973,-44,-118,971,-1382,-18,9
3974,-21,-140,970,-1387,-24,6
3975,26,-135,934,-1390,-22,4
3976,57,-158,925,-1391,-13,8
3977,53,-194,931,-1387,-6,12
3978,10,-245,960,-1379,2,20
3979,-53,-250,949,-1365,0,24
3980,-58,-243,939,-1357,-10,25
3981,-23,-250,915,-1342,-16,20
3982,5,-260,891,-1327,-14,24
3983,39,-265,894,-1309,-10,29
3984,29,-295,921,-1290,-7,33
3985,0,-313,941,-1272,-3,33
3986,-52,-317,946,-1255,-1,29
3987,-36,-305,916,-1239,-6,17
3988,-7,-300,902,-1223,-8,7
3989,14,-304,883,-1204,-3,3
3990,35,-327,892,-1184,2,3
3991,9,-356,908,-1160,8,10
3992,-42,-368,937,-1132,6,13
3993,-74,-354,924,-1110,0,12
3994,-57,-355,915,-1089,-8,5
3995,-10,-331,890,-1066,-11,-1
3996,23,-354,884,-1045,-8,-4
3997,47,-381,892,-1019,-1,0
3998,15,-411,897,-992,7,8
3999,-24,-436,911,-958,7,12
4000,-53,-420,904,-925,1,15
4001,-43,-430,887,-894,-6,12
4002,0,-430,866,-860,-9,13
4003,21,-434,855,-821,-6,23
4004,21,-462,864,-783,-4,32
4005,-5,-499,882,-744,-2,42
4006,-26,-611,957,-698,-4,46
4007,19,-783,1007,-620,-6,51
4008,-86,-637,745,-521,-5,74
4009,-39,-632,636,-442,-29,107
4010,31,-809,723,-342,-42,162
4011,34,-827,703,-187,-29,202
4012,-70,-710,613,-34,-8,207
4013,-138,-718,655,95,-5,207
4014,-165,-735,823,212,-18,186
4015,-185,-611,865,304,-45,133
4016,-95,-434,826,338,-78,83
4017,84,-424,938,313,-91,76
4018,127,-426,1026,271,-76,94
4019,115,-393,991,228,-67,85
4020,145,-427,961,206,-56,47
4021,165,-495,929,222,-18,8
4022,102,-496,858,279,31,-24
4023,29,-492,815,331,56,-36
4024,-58,-541,830,375,54,-20
4025,-137,-567,859,432,32,4
4026,-161,-552,896,489,1,13
4027,-145,-511,870,538,-21,3
4028,-82,-495,844,585,-27,-23
4029,23,-483,846,636,-22,-53
4030,74,-490,859,685,-6,-65
4031,83,-501,864,729,6,-59
4032,54,-510,869,773,12,-41
4033,-4,-513,877,821,12,-20
4034,-41,-474,886,869,5,-12
4035,-49,-452,876,908,0,-16
4036,-7,-426,856,947,2,-29
4037,15,-419,859,988,8,-38
4038,7,-436,870,1024,14,-36
4039,-15,-443,878,1067,14,-32
4040,-54,-431,899,1111,10,-27
4041,-51,-389,903,1143,1,-28
4042,-30,-361,899,1172,-4,-32
4043,40,-329,874,1198,-4,-40
4044,69,-326,886,1220,8,-41
4045,52,-338,888,1246,22,-36
4046,7,-352,929,1274,27,-27
4047,-54,-336,914,1303,21,-20
4048,-61,-300,926,1326,10,-17
4049,-34,-263,911,1343,5,-25
4050,20,-269,894,1356,8,-33
4051,46,-269,889,1375,16,-37
4052,15,-286,908,1398,24,-31
4053,-14,-302,930,1419,22,-23
4054,-62,-299,929,1440,22,-14
4055,-52,-259,918,1463,8,-17
4056,0,-240,901,1481,6,-27
4057,50,-257,895,1498,17,-35
4058,55,-262,886,1521,28,-34
4059,15,-282,891,1551,35,-29
4060,-32,-305,906,1585,32,-31
4061,-61,-275,893,1629,28,-49
4062,-43,-255,872,1666,31,-81
4063,-19,-235,869,1698,37,-118
4064,4,-265,857,1735,48,-151
4065,-2,-275,851,1782,53,-173
4066,-34,-274,854,1822,52,-186
4067,-59,-278,884,1864,46,-204
4068,-62,-263,890,1903,38,-223
4069,-31,-222,869,1935,30,-249
4070,41,-190,850,1959,25,-281
4071,104,-212,872,1989,32,-303
4072,95,-232,883,2022,49,-309
4073,34,-243,872,2058,61,-300
4074,-55,-226,872,2101,60,-293
4075,-94,-175,868,2138,45,-300
4076,-76,-128,851,2165,30,-325
4077,-13,-116,850,2183,18,-359
4078,35,-133,875,2206,18,-391
4079,16,-150,883,2237,27,-404
4080,-19,-141,893,2270,30,-404
4081,-78,-124,880,2300,28,-407
4082,-158,128,921,2333,19,-422
4083,28,1810,1836,1895,-93,-359
4084,-320,756,473,500,-133,-222
4085,127,173,169,314,-182,-329
4086,-249,58,-116,283,-307,-391
4087,358,-247,550,216,-310,-306
4088,119,-113,431,239,-211,-319
4089,158,-507,847,255,-80,-203
4090,255,222,390,252,41,-135
4091,207,-455,949,236,177,-158
4092,259,83,300,265,280,-157
4093,256,-90,714,235,368,-153
4094,363,-289,416,267,426,-220
4095,-1085,483,1302,325,431,-134
4096,-1292,1022,1918,264,-191,410
4097,-160,360,1121,235,-496,602
4098,249,-80,237,270,-412,330
4099,264,109,708,280,-339,104
4100,1005,-41,1188,354,-120,-205
4101,395,-323,969,455,213,-475
4102,551,-216,705,546,383,-487
4103,-271,-258,1172,617,461,-446
4104,-922,126,1663,678,186,-56
4105,-379,-10,757,728,-141,334
4106,158,-383,577,802,-139,281
4107,-2,42,609,882,-29,153
4108,-47,334,1621,878,71,35
4109,-452,-22,1264,821,39,-17
4110,-148,-242,783,898,-49,99
4111,67,-126,667,983,-46,70
4112,45,31,1214,994,-15,-6
4113,49,-10,919,933,-13,15
4114,104,-211,1147,967,-23,23
4115,8,-132,911,1047,-9,21
4116,-43,-33,1083,1072,3,29
4117,16,-156,935,1073,-3,-19
4118,-32,-221,1038,1131,-6,-44
4119,81,-102,893,1171,-15,-32
4120,4,-177,1092,1200,-7,-35
4121,-4,-91,951,1241,-3,-24
4122,-113,-128,1025,1263,7,-13
4123,-37,-142,994,1303,-13,-22
4124,-76,-137,1001,1347,-20,-29
4125,67,-151,948,1387,-27,-45
4126,27,-140,980,1427,-22,-62
4127,71,-62,968,1462,-15,-48
4128,-23,-50,1010,1483,-4,-42
4129,-43,-41,1009,1508,-1,-36
4130,-98,-25,948,1534,-10,-37
4131,-13,-37,966,1562,-25,-54
4132,-12,-42,937,1593,-27,-77
4133,51,0,953,1620,-24,-83
4134,0,27,958,1643,-18,-91
4135,-17,54,999,1658,-16,-84
4136,-63,59,956,1670,-21,-79
4137,-50,25,970,1689,-25,-88
4138,-35,50,901,1716,-33,-115
4139,12,34,943,1745,-38,-149
4140,23,66,923,1774,-44,-182
4141,26,89,966,1792,-41,-193
4142,4,99,947,1808,-37,-196
4143,-49,111,978,1823,-37,-196
4144,-70,113,906,1841,-43,-214
4145,-45,104,910,1863,-58,-253
4146,-17,111,891,1893,-70,-301
4147,-12,142,927,1919,-76,-337
4148,-11,174,923,1932,-82,-356
4149,-57,186,951,1939,-84,-360
4150,-58,187,917,1942,-87,-359
4151,-71,169,919,1948,-95,-371
4152,-26,188,873,1962,-107,-394
4153,33,905,1493,1937,-120,-407
4154,91,1196,1706,1717,-142,-359
4155,44,623,1143,1501,-123,-348
4156,7,-87,453,1472,-95,-361
4157,9,-92,488,1601,-71,-374
4158,46,383,967,1675,-55,-379
4159,32,688,1308,1594,-53,-337
4160,47,467,1062,1468,-63,-265
4161,18,154,693,1441,-45,-248
4162,15,108,652,1485,-26,-244
4163,-22,374,914,1507,-14,-227
4164,-23,553,1143,1452,-22,-183
4165,-39,412,1004,1380,-23,-157
4166,-11,205,781,1363,-21,-155
4167,-4,208,737,1396,-23,-173
4168,-19,400,917,1405,-28,-179
4169,-44,487,1027,1358,-33,-169
4170,-85,408,973,1313,-36,-152
4171,-83,290,820,1293,-43,-137
4172,-70,286,803,1300,-57,-141
4173,-51,356,884,1302,-74,-155
4174,-45,433,945,1283,-89,-168
4175,-43,433,928,1253,-99,-174
4176,-69,382,871,1226,-107,-173
4177,-72,362,867,1215,-116,-166
4178,-74,378,894,1204,-127,-166
4179,-34,416,905,1188,-140,-173
4180,-6,423,905,1172,-150,-192
4181,7,428,880,1153,-154,-215
4182,9,447,870,1135,-155,-228
4183,-1,472,895,1111,-154,-231
4184,-9,484,910,1081,-153,-226
