sequence,AccelerometerX,AccelerometerY,AccelerometerZ,GyroscopeX,GyroscopeY,GyroscopeZ
0,-6,-20,1000,-18,-1,-6
1,-5,-21,998,-15,-1,-6
2,-7,-20,998,-12,3,-5
3,-7,-20,1000,-16,-1,-6
4,-8,-20,1001,-13,2,-4
5,-8,-21,1000,-19,4,-4
6,-4,-20,999,-19,4,-4
7,-8,-20,1000,-20,-2,-5
8,-7,-22,1000,-20,-2,-5
9,-8,-21,998,-14,1,-5
10,-6,-20,999,-18,1,-6
11,-7,-21,1000,-14,0,-5
12,-7,-21,999,-16,2,-5
13,-6,-22,1000,-18,2,-6
14,-8,-18,999,-15,1,-5
15,-8,-19,999,-18,1,-4
16,-7,-20,999,-15,2,-5
17,-6,-21,998,-15,1,-5
18,-8,-19,999,-17,0,-5
19,-8,-20,1000,-15,0,-5
20,-7,-20,999,-16,-1,-5
21,-6,-21,998,-17,1,-4
22,-7,-21,999,-15,0,-6
23,-7,-21,1000,-17,2,-5
24,-8,-21,999,-17,1,-6
25,-7,-20,1000,-16,0,-5
26,-6,-20,998,-16,1,-5
27,-6,-20,999,-16,0,-6
28,-8,-21,999,-19,-1,-6
29,-7,-20,1000,-17,1,-5
30,-6,-21,999,-16,-1,-5
31,-8,-22,1000,-17,0,-4
32,-7,-22,1000,-17,0,-6
33,-6,-18,998,-18,2,-5
34,-6,-20,998,-16,2,-5
35,-6,-20,1001,-17,0,-5
36,-5,-21,1000,-17,1,-5
37,-7,-21,999,-17,1,-5
38,-7,-22,999,-17,0,-5
39,-7,-21,998,-17,0,-5
40,-7,-21,1001,-17,0,-5
41,-6,-19,999,-16,0,-6
42,-8,-21,999,-16,-1,-5
43,-5,-22,999,-17,-1,-6
44,-6,-20,999,-17,1,-4
45,-9,-19,1001,-17,2,-5
46,-9,-18,1000,-16,0,-4
47,-7,-20,1000,-15,1,-4
48,-6,-20,1000,-15,0,-4
49,-7,-20,1000,-16,0,-4
50,-8,-20,998,-15,0,-5
51,-7,-21,998,-16,1,-4
52,-7,-22,1000,-17,1,-5
53,-6,-22,1000,-16,0,-5
54,-6,-21,1001,-15,0,-5
55,-6,-21,999,-16,0,-5
56,-9,-22,998,-17,0,-5
57,-9,-22,999,-14,0,-6
58,-10,-19,999,-16,1,-4
59,-9,-20,1001,-16,1,-6
60,-5,-21,999,-15,2,-5
61,-9,-21,1000,-17,0,-6
62,-7,-22,1000,-16,-1,-5
63,-6,-20,998,-17,0,-5
64,-8,-19,1000,-15,1,-6
65,-8,-20,1001,-16,-1,-6
66,-9,-22,1000,-16,1,-7
67,-8,-20,1000,-17,-1,-7
68,-8,-21,1000,-16,1,-6
69,-6,-21,999,-15,0,-6
70,-7,-20,999,-17,-1,-5
71,-9,-21,999,-17,1,-6
72,-7,-19,1000,-16,1,-5
73,-6,-20,999,-15,2,-5
74,-6,-20,999,-16,1,-6
75,-6,-20,1001,-15,0,-6
76,-7,-21,1001,-17,0,-6
77,-8,-20,999,-16,-1,-4
78,-6,-22,999,-16,-1,-5
79,-8,-20,998,-16,0,-5
80,-9,-21,998,-16,1,-5
81,-7,-21,998,-17,0,-6
82,-6,-21,998,-16,1,-4
83,-5,-21,999,-16,1,-5
84,-4,-21,999,-17,1,-5
85,-7,-21,1000,-18,1,-5
86,-5,-21,999,-16,1,-5
87,-7,-22,1000,-17,1,-5
88,-7,-22,1000,-18,1,-6
89,-9,-22,1000,-15,1,-6
90,-8,-20,999,-18,1,-4
91,-8,-21,999,-17,0,-4
92,-6,-21,1001,-16,1,-5
93,-9,-21,1000,-18,0,-5
94,-7,-21,998,-15,-1,-6
95,-8,-21,1001,-16,1,-5
96,-8,-21,999,-17,2,-4
97,-6,-23,1000,-17,2,-5
98,-6,-22,999,-17,0,-4
99,-7,-20,999,-17,-1,-4
100,-6,-19,998,-18,0,-5
101,-6,-19,1000,-16,1,-6
102,-6,-21,999,-15,0,-5
103,-8,-22,1000,-15,0,-5
104,-7,-22,998,-17,0,-4
105,-6,-21,998,-15,2,-5
106,-6,-21,1000,-17,1,-5
107,-7,-20,1000,-15,0,-6
108,-8,-21,1000,-17,1,-6
109,-9,-19,999,-16,-1,-6
110,-8,-21,1001,-15,0,-5
111,-8,-21,999,-16,0,-5
112,-8,-20,999,-18,-1,-5
113,-8,-20,999,-17,0,-5
114,-9,-18,1000,-16,2,-6
115,-8,-21,999,-17,1,-5
116,-8,-20,998,-16,1,-5
117,-8,-20,1000,-15,2,-5
118,-6,-21,1000,-16,0,-5
119,-7,-20,998,-16,0,-6
120,-11,-20,999,-16,0,-5
121,-7,-20,1000,-16,0,-5
122,-8,-22,998,-18,1,-4
123,-7,-21,1000,-16,0,-5
124,-7,-21,1000,-17,0,-6
125,-9,-20,1000,-16,0,-6
126,-5,-21,1000,-16,-1,-6
127,-6,-20,998,-17,0,-5
128,-7,-20,998,-16,2,-5
129,-7,-20,999,-16,0,-5
130,-8,-21,999,-17,2,-5
131,-7,-20,1000,-15,0,-6
132,-7,-20,999,-16,0,-5
133,-7,-21,999,-16,1,-5
134,-7,-19,1000,-16,0,-5
135,-7,-22,998,-17,1,-4
136,-8,-20,1000,-16,1,-5
137,-10,-21,999,-17,0,-5
138,-7,-20,999,-17,0,-5
139,-8,-20,999,-15,0,-6
140,-6,-21,998,-17,1,-5
141,-6,-21,999,-15,0,-6
142,-7,-20,998,-16,0,-6
143,-7,-19,999,-16,0,-6
144,-7,-22,1000,-16,0,-5
145,-6,-20,999,-18,0,-6
146,-8,-20,999,-17,0,-5
147,-8,-21,1001,-16,1,-6
148,-7,-19,999,-17,1,-6
149,-6,-22,1000,-17,2,-5
150,-8,-20,1001,-17,0,-4
151,-8,-23,999,-18,0,-5
152,-7,-21,999,-17,0,-6
153,-8,-21,1001,-16,1,-6
154,-8,-20,1000,-17,0,-6
155,-6,-20,999,-17,0,-5
156,-8,-20,1000,-16,0,-5
157,-8,-20,999,-16,0,-6
158,-7,-21,999,-16,0,-7
159,-6,-20,999,-16,0,-6
160,-7,-19,999,-15,0,-5
161,-7,-20,999,-16,-1,-6
162,-7,-22,1000,-16,-1,-6
163,-7,-20,999,-16,0,-5
164,-8,-20,999,-17,0,-5
165,-7,-22,999,-16,0,-5
166,-8,-20,999,-15,2,-4
167,-9,-20,999,-15,1,-6
168,-6,-20,998,-17,0,-5
169,-8,-21,999,-16,1,-5
170,-6,-21,1001,-17,-1,-5
171,-7,-19,999,-17,0,-5
172,-7,-20,1000,-17,1,-5
173,-8,-22,1000,-16,1,-5
174,-8,-20,999,-16,1,-5
175,-8,-19,1001,-16,0,-5
176,-7,-20,1000,-17,1,-5
177,-8,-20,1001,-17,0,-5
178,-8,-19,999,-15,1,-5
179,-7,-22,999,-17,1,-6
180,-6,-21,998,-16,0,-6
181,-5,-21,999,-16,-1,-6
182,-6,-20,1000,-16,0,-6
183,-6,-21,1000,-17,0,-4
184,-7,-21,1000,-16,0,-5
185,-7,-21,1000,-16,1,-6
186,-9,-21,1000,-16,0,-4
187,-7,-20,1000,-17,1,-5
188,-7,-21,1000,-17,0,-5
189,-7,-20,1000,-15,0,-5
190,-6,-20,999,-17,0,-5
191,-5,-21,999,-17,0,-6
192,-7,-21,1001,-16,0,-6
193,-8,-19,1000,-16,1,-5
194,-8,-20,999,-16,1,-5
195,-5,-22,1000,-16,0,-5
196,-7,-21,1001,-17,0,-5
197,-7,-22,999,-17,0,-5
198,-7,-19,999,-16,1,-5
199,-6,-21,998,-17,0,-4
200,-8,-22,999,-18,-1,-5
201,-6,-20,1001,-15,1,-6
202,-8,-21,1000,-16,0,-6
203,-9,-22,999,-17,0,-6
204,-7,-21,999,-16,0,-6
205,-10,-19,999,-17,0,-6
206,-9,-20,998,-16,1,-5
207,-7,-21,999,-17,1,-5
208,-7,-21,1000,-17,0,-6
209,-7,-20,1000,-16,0,-5
210,-7,-20,999,-17,-1,-5
211,-8,-21,1001,-16,-1,-6
212,-6,-19,999,-16,0,-6
213,-7,-21,999,-15,0,-5
214,-6,-22,1000,-15,1,-5
215,-7,-22,999,-17,1,-6
216,-7,-20,999,-16,1,-5
217,-9,-19,1000,-16,1,-4
218,-8,-19,1000,-17,1,-5
219,-6,-21,998,-15,0,-6
220,-8,-21,1001,-16,-1,-5
221,-7,-21,999,-17,1,-5
222,-7,-21,1000,-16,1,-5
223,-9,-20,1001,-16,0,-5
224,-7,-20,999,-16,0,-5
225,-7,-21,1000,-16,0,-5
226,-8,-21,1000,-17,0,-6
227,-6,-21,999,-18,0,-6
228,-7,-20,1000,-17,1,-6
229,-6,-20,999,-17,1,-6
230,-6,-21,1000,-16,1,-5
231,-7,-19,1000,-18,0,-5
232,-7,-22,1000,-17,1,-5
233,-6,-21,1000,-15,1,-6
234,-6,-19,1000,-17,1,-6
235,-6,-21,999,-17,1,-5
236,-7,-21,999,-17,1,-5
237,-7,-20,999,-16,0,-5
238,-8,-18,1000,-14,0,-5
239,-7,-21,1000,-16,1,-4
240,-7,-22,999,-15,0,-6
241,-7,-21,998,-16,1,-5
242,-7,-22,1000,-16,0,-6
243,-9,-18,1000,-16,0,-4
244,-8,-20,1000,-17,0,-6
245,-7,-21,1001,-17,1,-5
246,-7,-21,999,-17,2,-5
247,-6,-20,999,-16,1,-6
248,-7,-21,999,-17,0,-5
249,-8,-20,999,-16,0,-6
250,-8,-19,1001,-16,1,-5
251,-9,-22,1000,-17,1,-4
252,-7,-21,1000,-16,0,-4
253,-6,-20,999,-16,0,-5
254,-7,-22,999,-16,-1,-5
255,-6,-22,999,-15,0,-5
256,-6,-20,1001,-15,2,-7
257,-7,-20,1000,-18,1,-7
258,-6,-22,998,-18,0,-6
259,-6,-20,999,-18,-1,-5
260,-6,-20,999,-17,0,-5
261,-6,-20,999,-16,1,-5
262,-7,-22,999,-17,0,-5
263,-5,-19,1000,-16,0,-5
264,-7,-20,999,-15,0,-6
265,-5,-23,1000,-14,0,-4
266,-7,-20,999,-15,0,-5
267,-6,-21,1000,-17,-1,-5
268,-6,-21,1001,-17,-1,-4
269,-6,-21,998,-16,2,-5
270,-5,-21,998,-17,1,-5
271,-6,-22,1000,-16,1,-5
272,-5,-22,999,-17,1,-5
273,-5,-22,1000,-16,1,-6
274,-8,-21,1000,-17,1,-6
275,-7,-21,998,-14,2,-6
276,-8,-19,1001,-16,0,-6
277,-7,-22,999,-15,1,-6
278,-8,-20,999,-15,1,-6
279,-9,-21,999,-16,0,-6
280,-8,-20,999,-16,1,-6
281,-9,-20,999,-18,1,-5
282,-8,-19,1000,-18,1,-5
283,-8,-20,1000,-16,0,-5
284,-6,-20,1000,-17,1,-5
285,-8,-19,998,-16,1,-4
286,-6,-20,1000,-15,0,-6
287,-6,-20,998,-17,0,-6
288,-8,-20,999,-17,1,-5
289,-8,-21,1000,-16,1,-5
290,-8,-22,999,-17,0,-6
291,-7,-19,1000,-16,0,-4
292,-6,-18,998,-16,0,-5
293,-8,-21,999,-17,1,-5
294,-5,-21,1000,-16,1,-6
295,-6,-21,999,-17,-1,-5
296,-8,-21,999,-17,2,-6
297,-10,-20,999,-17,0,-5
298,-7,-19,999,-17,1,-5
299,-7,-20,1000,-16,1,-5
300,-7,-20,1000,-16,1,-5
301,-5,-22,998,-16,0,-5
302,-7,-19,999,-16,1,-5
303,-7,-19,999,-15,0,-5
304,-8,-20,999,-16,0,-4
305,-7,-21,998,-16,1,-6
306,-7,-19,999,-16,1,-6
307,-8,-20,998,-17,0,-5
308,-9,-20,1000,-16,0,-5
309,-8,-20,999,-17,-1,-6
310,-7,-22,999,-16,0,-5
311,-7,-20,998,-16,0,-5
312,-8,-20,999,-16,0,-4
313,-6,-21,999,-17,1,-6
314,-5,-19,1000,-16,0,-7
315,-6,-20,999,-16,1,-5
316,-5,-20,1000,-17,1,-5
317,-7,-21,999,-15,1,-4
318,-7,-19,1000,-16,0,-5
319,-7,-21,1000,-16,1,-4
320,-6,-21,1000,-17,0,-5
321,-7,-19,998,-16,0,-5
322,-5,-19,998,-15,1,-5
323,-6,-20,999,-16,1,-6
324,-7,-21,999,-16,1,-5
325,-8,-21,999,-16,1,-5
326,-9,-20,999,-16,1,-5
327,-8,-19,998,-16,1,-5
328,-8,-21,999,-16,0,-4
329,-8,-19,1001,-15,0,-5
330,-6,-21,1000,-16,1,-5
331,-6,-21,1000,-16,0,-5
332,-8,-20,1000,-19,0,-5
333,-7,-20,999,-18,0,-5
334,-7,-21,1000,-17,-1,-5
335,-7,-20,1000,-18,1,-4
336,-8,-21,1000,-16,0,-5
337,-7,-21,999,-17,0,-4
338,-7,-21,1000,-17,1,-3
339,-6,-20,1000,-16,-1,-6
340,-7,-20,1000,-16,0,-6
341,-8,-22,1000,-17,0,-6
342,-8,-20,1001,-16,-1,-5
343,-8,-21,1000,-16,1,-7
344,-7,-20,1000,-12,1,-7
345,-7,-20,999,-16,0,-6
346,-8,-21,998,-17,1,-5
347,-8,-20,1000,-17,0,-5
348,-8,-20,998,-16,0,-5
349,-8,-21,999,-18,0,-5
350,-9,-21,999,-16,2,-5
351,-8,-20,1001,-15,0,-4
352,-8,-22,1000,-17,0,-5
353,-7,-19,1000,-17,1,-5
354,-7,-20,999,-18,1,-4
355,-9,-20,1000,-16,1,-5
356,-8,-20,1000,-14,1,-5
357,-8,-20,999,-16,0,-6
358,-8,-19,999,-15,0,-6
359,-7,-20,999,-16,1,-6
360,-7,-20,999,-15,1,-6
361,-7,-21,999,-17,1,-6
362,-7,-20,999,-17,2,-5
363,-7,-21,998,-17,1,-5
364,-6,-21,1000,-17,0,-6
365,-7,-20,1000,-16,1,-5
366,-7,-20,999,-17,2,-5
367,-7,-19,1000,-15,1,-5
368,-7,-20,999,-16,1,-4
369,-10,-20,1000,-14,1,-5
370,-8,-20,1000,-17,1,-6
371,-8,-20,1000,-16,0,-6
372,-7,-20,998,-17,0,-5
373,-5,-21,1000,-17,0,-5
374,-5,-19,999,-16,0,-5
375,-8,-21,1000,-18,1,-5
376,-6,-21,999,-17,1,-5
377,-7,-21,999,-16,-1,-4
378,-7,-21,1000,-16,0,-5
379,-9,-19,999,-16,1,-4
380,-7,-20,999,-17,1,-5
381,-7,-20,1000,-17,0,-6
382,-6,-19,1000,-16,1,-6
383,-6,-20,1000,-17,1,-6
384,-5,-20,1000,-18,0,-5
385,-9,-19,999,-17,1,-5
386,-8,-19,1000,-18,1,-4
387,-5,-21,1000,-17,0,-4
388,-7,-21,998,-18,0,-5
389,-7,-22,1000,-16,1,-5
390,-7,-19,999,-18,2,-5
391,-6,-21,999,-17,1,-4
392,-6,-20,1000,-17,1,-5
393,-7,-21,998,-15,1,-5
394,-9,-20,999,-17,1,-6
395,-8,-20,999,-17,1,-5
396,-7,-21,1000,-17,1,-5
397,-7,-21,1000,-16,1,-5
398,-6,-22,1000,-16,2,-5
399,-7,-21,997,-16,1,-5
400,-7,-22,999,-17,1,-6
401,-6,-20,1000,-17,1,-5
402,-8,-19,999,-17,1,-5
403,-6,-21,998,-16,0,-6
404,-7,-21,999,-15,2,-5
405,-6,-20,1000,-16,1,-5
406,-6,-22,1000,-16,0,-6
407,-7,-21,999,-16,-1,-6
408,-7,-21,998,-17,0,-5
409,-7,-20,999,-16,0,-4
410,-6,-22,999,-16,1,-5
411,-6,-20,1000,-16,0,-5
412,-8,-20,999,-16,1,-5
413,-10,-20,1000,-17,1,-5
414,-7,-19,1001,-17,1,-5
415,-7,-21,1001,-17,1,-5
416,-8,-22,999,-16,0,-6
417,-6,-21,998,-16,-1,-5
418,-8,-19,998,-16,0,-5
419,-6,-21,999,-15,0,-6
420,-7,-20,1000,-16,1,-5
421,-7,-21,999,-16,1,-4
422,-6,-21,999,-15,1,-4
423,-6,-20,999,-16,0,-5
424,-6,-21,999,-16,-1,-5
425,-7,-20,1001,-17,0,-5
426,-7,-20,999,-17,-1,-5
427,-8,-20,1000,-17,0,-4
428,-8,-20,999,-17,0,-6
429,-8,-20,1000,-17,1,-5
430,-8,-20,1000,-16,0,-6
431,-7,-21,1000,-18,0,-5
432,-9,-22,1001,-17,0,-3
433,-8,-21,998,-16,1,-4
434,-8,-20,999,-18,1,-5
435,-8,-21,999,-16,0,-5
436,-6,-21,1000,-17,0,-6
437,-9,-21,999,-16,0,-6
438,-8,-19,1000,-17,1,-5
439,-7,-19,999,-16,1,-5
440,-8,-21,999,-16,1,-5
441,-8,-21,1000,-16,1,-6
442,-8,-21,999,-17,1,-6
443,-6,-22,1000,-17,0,-5
444,-6,-20,999,-17,-1,-4
445,-9,-19,999,-16,-1,-5
446,-8,-21,999,-16,0,-5
447,-7,-20,999,-17,1,-6
448,-7,-20,1000,-15,1,-5
449,-7,-21,1000,-16,0,-6
450,-6,-19,1000,-17,0,-5
451,-9,-17,999,-15,0,-5
452,-8,-19,999,-17,0,-5
453,-8,-19,999,-16,1,-5
454,-6,-22,999,-17,1,-5
455,-8,-21,999,-17,1,-6
456,-7,-21,998,-15,0,-6
457,-6,-19,999,-17,1,-6
458,-7,-21,1000,-17,0,-5
459,-7,-22,1000,-15,0,-5
460,-6,-19,1000,-17,1,-4
461,-8,-20,999,-16,0,-4
462,-5,-21,999,-16,1,-5
463,-6,-23,1000,-16,1,-5
464,-7,-23,998,-15,2,-6
465,-6,-20,999,-16,0,-5
466,-8,-20,1000,-17,2,-4
467,-8,-20,1000,-17,0,-5
468,-7,-19,1000,-16,-1,-6
469,-7,-19,998,-16,1,-5
470,-6,-21,1001,-16,1,-5
471,-7,-22,999,-18,-1,-5
472,-8,-21,999,-16,1,-5
473,-7,-20,1000,-18,0,-5
474,-7,-20,1001,-16,0,-5
475,-7,-18,1000,-17,0,-5
476,-7,-20,1000,-17,0,-6
477,-7,-21,1001,-17,0,-7
478,-5,-21,999,-17,1,-4
479,-8,-19,1000,-17,2,-6
480,-7,-20,999,-16,1,-5
481,-7,-21,999,-14,1,-5
482,-6,-21,999,-17,-1,-4
483,-7,-21,1001,-18,-2,-5
484,-7,-20,999,-17,0,-6
485,-9,-21,1000,-16,0,-6
486,-5,-20,998,-16,1,-5
487,-8,-22,1001,-16,1,-5
488,-6,-20,1001,-16,0,-5
489,-7,-20,998,-17,0,-5
490,-7,-21,999,-18,0,-5
491,-6,-19,999,-18,-1,-6
492,-6,-22,999,-17,1,-5
493,-8,-21,999,-17,1,-5
494,-8,-19,1001,-17,1,-5
495,-6,-21,999,-17,1,-5
496,-7,-21,1000,-17,0,-5
497,-5,-20,1000,-18,1,-5
498,-7,-21,1001,-17,0,-5
499,-7,-22,998,-17,1,-5
500,-10,-20,1000,-17,2,-5
501,-8,-21,999,-17,1,-5
502,-7,-20,998,-15,1,-5
503,-6,-21,998,-18,1,-6
504,-8,-22,999,-17,0,-5
505,-7,-21,999,-16,-1,-4
506,-6,-21,1000,-16,0,-5
507,-7,-21,1000,-16,0,-6
508,-8,-20,1000,-16,-1,-6
509,-9,-20,999,-16,0,-5
510,-8,-20,1000,-17,2,-5
511,-7,-22,999,-18,0,-4
512,-8,-21,1001,-18,0,-5
513,-7,-19,999,-16,1,-6
514,-8,-21,1000,-18,2,-5
515,-7,-21,999,-18,1,-5
516,-6,-20,999,-17,-1,-5
517,-7,-20,999,-17,0,-5
518,-7,-19,998,-15,0,-6
519,-8,-20,999,-20,1,-6
520,-6,-21,999,-18,0,-5
521,-5,-20,1000,-15,1,-5
522,-6,-22,1001,-17,0,-5
523,-7,-20,998,-19,0,-5
524,-6,-20,999,-17,0,-5
525,-5,-20,999,-16,1,-5
526,-6,-20,999,-17,0,-5
527,-7,-22,999,-17,1,-4
528,-6,-20,999,-18,0,-6
529,-6,-21,999,-18,2,-5
530,-6,-21,999,-17,0,-5
531,-5,-21,998,-18,1,-4
532,-5,-21,999,-16,0,-5
533,-7,-21,999,-16,-1,-5
534,-5,-22,999,-17,0,-5
535,-8,-19,999,-16,0,-5
536,-7,-20,999,-17,1,-5
537,-6,-19,1000,-16,0,-5
538,-7,-20,998,-17,0,-5
539,-7,-22,999,-17,-1,-6
540,-8,-20,999,-17,0,-4
541,-9,-22,1000,-17,1,-4
542,-6,-20,999,-16,1,-5
543,-8,-20,1000,-16,0,-5
544,-6,-21,998,-17,1,-4
545,-6,-22,999,-16,2,-5
546,-6,-22,999,-15,1,-5
547,-6,-20,1000,-18,0,-4
548,-5,-21,1000,-19,0,-5
549,-9,-22,999,-19,0,-6
550,-7,-19,999,-16,1,-5
551,-6,-19,1000,-18,-1,-6
552,-7,-20,999,-18,0,-5
553,-7,-19,999,-16,0,-6
554,-5,-21,999,-17,1,-5
555,-8,-20,998,-17,2,-4
556,-6,-21,998,-18,0,-4
557,-7,-23,1000,-16,0,-6
558,-6,-21,1000,-16,1,-5
559,-8,-21,1000,-17,0,-5
560,-7,-21,999,-17,-1,-5
561,-7,-22,999,-17,1,-4
562,-5,-20,999,-18,-1,-6
563,-5,-21,998,-16,-2,-6
564,-7,-21,1000,-17,0,-5
565,-7,-20,1001,-18,0,-6
566,-7,-22,999,-16,0,-5
567,-9,-20,1000,-18,1,-4
568,-9,-21,999,-15,-1,-5
569,-7,-20,1000,-18,-1,-6
570,-6,-18,999,-17,1,-6
571,-8,-22,1000,-16,0,-5
572,-8,-21,1000,-18,1,-5
573,-8,-22,999,-18,2,-5
574,-8,-22,999,-16,0,-6
575,-6,-20,999,-17,0,-6
576,-6,-22,998,-18,1,-6
577,-7,-21,1000,-17,-1,-4
578,-8,-21,1000,-17,0,-4
579,-10,-20,1000,-18,1,-5
580,-10,-20,999,-18,1,-4
581,-6,-19,999,-17,-1,-4
582,-8,-20,1000,-19,-1,-5
583,-7,-23,999,-18,0,-5
584,-6,-20,999,-15,0,-6
585,-7,-23,999,-17,0,-4
586,-7,-22,999,-18,-1,-4
587,-6,-20,1001,-16,0,-6
588,-6,-19,999,-17,-1,-6
589,-6,-19,999,-18,0,-5
590,-6,-19,1001,-18,0,-6
591,-6,-23,1000,-18,0,-6
592,-5,-22,999,-17,1,-5
593,-7,-22,1000,-17,0,-5
594,-9,-20,999,-17,-1,-6
595,-7,-18,1000,-16,0,-5
596,-8,-18,999,-18,-1,-5
597,-9,-19,1000,-17,-1,-4
598,-7,-20,1000,-18,1,-4
599,-7,-22,999,-17,1,-4
600,-7,-21,999,-18,1,-4
601,-8,-23,999,-16,1,-4
602,-8,-21,1000,-17,0,-5
603,-5,-19,1000,-18,0,-5
604,-7,-20,999,-18,0,-5
605,-6,-20,998,-17,0,-4
606,-6,-21,1000,-17,0,-5
607,-8,-23,1000,-17,0,-5
608,-5,-24,1000,-17,-1,-4
609,-6,-23,999,-16,-1,-4
610,-5,-19,1000,-18,-1,-5
611,-7,-20,999,-17,1,-5
612,-9,-19,1000,-17,0,-5
613,-9,-22,999,-18,0,-5
614,-7,-22,999,-18,1,-5
615,-6,-20,1000,-17,0,-5
616,-7,-20,999,-17,0,-5
617,-8,-21,1001,-18,0,-5
618,-7,-19,999,-18,1,-3
619,-5,-20,1000,-18,0,-4
620,-7,-19,999,-19,-1,-5
621,-8,-19,1000,-18,-1,-6
622,-8,-22,1000,-18,1,-5
623,-7,-23,1000,-18,0,-5
624,-8,-20,1000,-18,1,-5
625,-6,-20,1000,-19,-1,-5
626,-9,-20,1000,-19,0,-5
627,-8,-19,998,-18,0,-6
628,-9,-20,1000,-19,1,-6
629,-8,-21,999,-18,1,-5
630,-6,-20,999,-18,0,-6
631,-7,-22,1001,-18,0,-4
632,-6,-21,1000,-18,0,-5
633,-6,-19,998,-19,0,-5
634,-8,-21,1000,-20,-1,-4
635,-7,-19,1000,-19,-2,-5
636,-8,-20,1000,-20,0,-4
637,-6,-22,999,-17,0,-6
638,-5,-22,1000,-18,-1,-4
639,-7,-21,999,-18,0,-5
640,-6,-20,1000,-18,0,-5
641,-8,-21,1000,-19,-1,-4
642,-6,-22,999,-19,-1,-6
643,-5,-20,999,-18,-1,-5
644,-6,-22,998,-19,-1,-5
645,-8,-21,999,-18,0,-5
646,-6,-22,1000,-20,-1,-6
647,-7,-22,1000,-18,-1,-5
648,-7,-22,999,-18,0,-5
649,-8,-20,999,-18,0,-6
650,-7,-20,998,-17,-1,-5
651,-5,-21,999,-17,-1,-5
652,-5,-22,1001,-18,-1,-5
653,-7,-21,1000,-18,0,-5
654,-6,-22,999,-18,-1,-6
655,-8,-22,998,-17,0,-4
656,-6,-20,999,-18,0,-5
657,-8,-21,1000,-17,1,-6
658,-7,-22,1001,-18,1,-6
659,-8,-20,998,-17,0,-5
660,-9,-22,1001,-18,-1,-6
661,-6,-20,999,-19,0,-6
662,-6,-22,1000,-20,-1,-5
663,-7,-22,997,-18,0,-5
664,-7,-22,999,-18,-1,-5
665,-8,-21,1000,-18,1,-6
666,-8,-22,999,-18,0,-5
667,-6,-20,1000,-19,0,-4
668,-6,-20,999,-16,-1,-6
669,-6,-21,998,-19,0,-6
670,-6,-20,1000,-18,-1,-5
671,-5,-22,999,-18,0,-4
672,-6,-20,997,-17,0,-4
673,-7,-21,1000,-18,0,-5
674,-8,-22,999,-19,1,-5
675,-6,-21,1000,-17,0,-6
676,-6,-19,1000,-18,0,-5
677,-7,-20,998,-18,0,-4
678,-6,-22,1000,-17,0,-5
679,-7,-21,1000,-17,0,-4
680,-6,-22,1001,-18,1,-5
681,-6,-21,999,-15,-1,-6
682,-8,-21,1000,-11,5,-4
683,-7,-20,999,-19,1,-4
684,-7,-21,1000,-15,0,-6
685,-8,-21,999,-21,-1,-6
686,-6,-21,999,-16,-1,-4
687,-7,-20,999,-16,0,-6
688,-6,-22,999,-18,0,-5
689,-7,-21,999,-16,1,-5
690,-6,-21,1000,-17,-1,-7
691,-8,-21,1000,-18,0,-5
692,-8,-21,998,-17,1,-5
693,-8,-21,1000,-19,1,-5
694,-5,-22,998,-17,1,-4
695,-7,-20,1000,-16,0,-6
696,-7,-21,998,-16,0,-6
697,-5,-21,1000,-16,-1,-4
698,-6,-23,998,-18,0,-4
699,-6,-21,999,-19,0,-4
700,-6,-21,999,-16,0,-5
701,-6,-21,1000,-16,0,-5
702,-7,-22,999,-18,0,-5
703,-6,-21,999,-18,0,-5
704,-6,-22,999,-19,-1,-5
705,-3,-23,1000,-18,0,-4
706,1,-23,1000,-18,0,-4
707,1,-26,999,-16,1,-5
708,-1,-24,999,-15,2,-5
709,-4,-23,1001,-16,1,-4
710,-3,-21,999,-15,2,-4
711,-8,-20,999,-17,2,-4
712,-7,-21,1000,-18,1,-5
713,-7,-22,996,-17,1,-3
714,-7,-22,998,-16,0,-5
715,-10,-23,1000,-16,1,-5
716,-12,-22,997,-18,0,-5
717,-12,-21,999,-17,0,-4
718,-11,-18,998,-17,0,-5
719,-9,-18,998,-18,1,-4
720,-11,-20,998,-17,2,-4
721,-10,-20,1000,-15,0,-5
722,-10,-22,999,-17,0,-6
723,-11,-22,998,-15,1,-5
724,-11,-19,1000,-15,1,-5
725,-12,-15,999,-16,1,-5
726,-11,-18,998,-16,0,-4
727,-10,-17,1000,-15,0,-6
728,-9,-18,999,-17,0,-5
729,-11,-17,1000,-18,0,-6
730,-10,-21,1000,-16,1,-6
731,-11,-18,999,-15,1,-5
732,-7,-19,1001,-16,1,-6
733,-5,-19,1000,-16,0,-7
734,-5,-19,999,-17,1,-6
735,-4,-19,1001,-17,-1,-5
736,-4,-23,999,-18,0,-5
737,-3,-23,999,-17,0,-4
738,-5,-23,1000,-18,1,-6
739,-4,-25,1000,-17,0,-5
740,-4,-23,1000,-16,1,-5
741,-5,-22,999,-17,0,-5
742,-3,-24,999,-16,1,-5
743,-4,-24,998,-16,0,-5
744,-6,-22,999,-18,0,-5
745,-6,-23,999,-16,0,-5
746,-6,-23,998,-17,0,-4
747,-4,-21,998,-17,0,-4
748,-6,-23,999,-16,1,-5
749,-8,-23,999,-16,0,-5
750,-6,-23,999,-16,0,-5
751,-6,-23,999,-18,0,-4
752,-6,-21,999,-16,0,-4
753,-7,-19,1000,-16,0,-5
754,-7,-19,1000,-17,2,-5
755,-8,-18,1001,-16,1,-5
756,-7,-19,999,-17,0,-5
757,-8,-18,1000,-17,1,-6
758,-9,-20,999,-17,1,-5
759,-8,-19,1001,-20,0,-6
760,-9,-19,1001,-17,0,-6
761,-8,-19,999,-17,1,-6
762,-9,-20,1000,-15,1,-5
763,-8,-22,998,-16,0,-5
764,-8,-20,1000,-18,1,-5
765,-8,-24,998,-17,1,-5
766,-8,-23,1000,-16,1,-5
767,-7,-22,999,-17,0,-5
768,-8,-21,1000,-16,0,-5
769,-6,-24,999,-18,2,-5
770,-5,-22,999,-17,0,-5
771,-7,-22,1002,-15,1,-5
772,-6,-20,998,-17,1,-5
773,-5,-22,1000,-17,0,-5
774,-4,-22,1001,-16,0,-5
775,-5,-22,999,-17,-1,-5
776,-7,-22,999,-16,1,-6
777,-5,-22,999,-16,-1,-5
778,-4,-22,1000,-17,0,-6
779,-5,-22,998,-16,0,-6
780,-4,-21,1000,-15,0,-6
781,-6,-21,998,-17,-1,-4
782,-6,-21,999,-16,-1,-5
783,-5,-20,1000,-16,0,-5
784,-7,-20,1000,-17,1,-6
785,-7,-21,999,-16,3,-6
786,-8,-22,1000,-15,0,-4
787,-8,-21,998,-15,2,-5
788,-7,-21,999,-16,1,-3
789,-9,-20,999,-15,1,-7
790,-10,-20,999,-17,0,-6
791,-10,-20,1000,-16,0,-5
792,-9,-20,999,-16,0,-6
793,-8,-20,998,-17,0,-5
794,-8,-20,1000,-16,-1,-6
795,-9,-19,1000,-16,0,-5
796,-7,-20,999,-16,1,-4
797,-8,-23,999,-16,0,-4
798,-8,-21,998,-15,0,-4
799,-9,-21,998,-16,-1,-5
800,-6,-20,1000,-17,-1,-6
801,-6,-19,998,-17,0,-6
802,-7,-20,998,-17,1,-5
803,-8,-20,1000,-17,-1,-6
804,-7,-21,1000,-16,0,-5
805,-5,-23,999,-16,1,-6
806,-3,-21,999,-17,1,-5
807,-6,-21,999,-17,2,-4
808,-6,-22,999,-16,0,-5
809,-7,-22,999,-17,1,-5
810,-6,-23,999,-15,1,-3
811,-6,-21,1001,-14,0,-5
812,-6,-22,1000,-16,1,-5
813,-6,-23,1001,-16,1,-6
814,-6,-23,1000,-16,1,-5
815,-6,-21,999,-16,-1,-5
816,-6,-22,999,-17,0,-5
817,-7,-21,999,-16,0,-6
818,-6,-22,999,-16,0,-5
819,-5,-22,1000,-17,2,-3
820,-6,-21,1001,-17,0,-4
821,-7,-20,1000,-17,0,-4
822,-8,-21,999,-17,0,-4
823,-7,-20,1000,-16,0,-5
824,-9,-19,1000,-16,0,-6
825,-6,-19,999,-16,1,-7
826,-6,-20,1000,-17,1,-5
827,-9,-18,1000,-17,2,-5
828,-7,-18,1000,-16,2,-6
829,-8,-21,1001,-17,0,-5
830,-7,-20,1000,-17,0,-5
831,-7,-21,1001,-17,1,-5
832,-6,-20,1000,-17,0,-5
833,-8,-21,999,-17,1,-5
834,-10,-19,999,-16,1,-5
835,-8,-20,999,-17,0,-6
836,-8,-21,999,-16,0,-6
837,-10,-22,1000,-17,0,-6
838,-9,-22,999,-17,1,-5
839,-7,-22,999,-17,0,-5
840,-6,-21,999,-16,0,-6
841,-6,-22,1000,-15,1,-5
842,-6,-22,1000,-16,1,-5
843,-6,-22,1000,-16,-1,-6
844,-6,-23,1001,-15,-1,-6
845,-8,-22,1000,-18,0,-5
846,-8,-21,999,-16,1,-6
847,-5,-20,999,-16,0,-5
848,-6,-21,999,-16,0,-6
849,-7,-21,1000,-17,1,-7
850,-7,-18,999,-17,1,-6
851,-6,-21,998,-16,1,-4
852,-6,-20,1000,-15,1,-5
853,-7,-21,997,-15,1,-6
854,-6,-22,1000,-14,1,-5
855,-7,-21,999,-15,1,-4
856,-7,-20,1000,-15,0,-4
857,-6,-20,999,-16,1,-5
858,-7,-21,1001,-17,0,-6
859,-7,-21,1000,-16,2,-5
860,-7,-21,999,-16,0,-5
861,-8,-20,999,-18,1,-5
862,-9,-20,1000,-17,0,-5
863,-8,-20,999,-17,0,-5
864,-7,-19,999,-16,1,-5
865,-9,-20,999,-16,1,-5
866,-7,-21,999,-17,1,-6
867,-7,-23,999,-17,1,-6
868,-9,-22,1000,-16,0,-5
869,-7,-21,998,-15,1,-6
870,-6,-22,999,-17,0,-4
871,-6,-21,1000,-16,1,-5
872,-6,-21,1000,-16,1,-4
873,-5,-22,998,-15,0,-5
874,-6,-23,999,-14,-1,-5
875,-6,-21,998,-16,1,-4
876,-6,-21,999,-16,2,-5
877,-6,-21,999,-15,2,-5
878,-6,-22,999,-16,0,-4
879,-4,-22,999,-17,0,-6
880,-6,-22,998,-17,1,-6
881,-6,-22,999,-16,1,-6
882,-5,-23,1000,-17,1,-6
883,-5,-22,1000,-17,2,-4
884,-6,-21,1000,-15,0,-6
885,-5,-23,999,-16,0,-4
886,-7,-23,1001,-16,1,-5
887,-6,-20,998,-17,1,-6
888,-7,-20,1000,-17,1,-6
889,-6,-20,998,-16,1,-6
890,-7,-22,1000,-15,1,-5
891,-7,-22,999,-17,1,-6
892,-7,-20,999,-16,0,-7
893,-7,-22,1000,-15,0,-5
894,-8,-20,1000,-17,1,-6
895,-7,-21,1000,-16,0,-6
896,-8,-20,999,-17,1,-6
897,-8,-20,1000,-17,1,-5
898,-8,-21,999,-16,2,-5
899,-9,-23,1000,-16,1,-5
900,-7,-23,1000,-15,1,-5
901,-8,-22,999,-16,0,-5
902,-7,-20,998,-16,0,-6
903,-7,-22,998,-16,-1,-6
904,-7,-22,999,-15,1,-5
905,-6,-22,1000,-14,3,-4
906,-6,-22,999,-16,1,-5
907,-9,-23,999,-16,0,-6
908,-7,-20,998,-16,1,-5
909,-9,-21,999,-15,1,-5
910,-8,-21,1001,-14,0,-5
911,-7,-21,1000,-16,1,-5
912,-6,-21,1000,-14,0,-6
913,-7,-20,999,-14,1,-6
914,-7,-21,999,-17,1,-7
915,-7,-23,1000,-17,1,-6
916,-7,-22,999,-15,1,-5
917,-6,-23,999,-15,1,-6
918,-6,-21,999,-16,1,-5
919,-7,-20,998,-16,1,-5
920,-6,-20,998,-17,1,-5
921,-5,-21,1000,-16,1,-5
922,-6,-22,1000,-16,1,-6
923,-6,-21,1000,-16,-1,-6
924,-6,-21,999,-15,0,-5
925,-6,-21,999,-17,1,-6
926,-7,-22,999,-16,0,-5
927,-6,-22,999,-18,0,-5
928,-6,-21,1000,-15,1,-5
929,-6,-20,1001,-17,1,-4
930,-6,-22,999,-15,1,-5
931,-7,-22,999,-16,0,-5
932,-7,-21,1001,-17,1,-6
933,-7,-20,999,-16,2,-4
934,-7,-20,999,-15,1,-4
935,-8,-19,999,-16,0,-5
936,-7,-22,998,-14,1,-5
937,-8,-20,999,-15,1,-4
938,-6,-22,1000,-15,2,-6
939,-8,-20,999,-16,2,-6
940,-8,-22,998,-16,2,-5
941,-7,-20,999,-17,1,-6
942,-8,-22,1000,-17,1,-6
943,-8,-22,999,-16,1,-6
944,-9,-21,999,-17,0,-4
945,-8,-21,998,-16,1,-6
946,-8,-21,998,-16,1,-6
947,-8,-21,1000,-15,0,-6
948,-5,-21,999,-16,1,-5
949,-7,-21,999,-14,2,-6
950,-4,-22,998,-15,2,-6
951,-7,-21,999,-14,0,-5
952,-7,-20,998,-16,1,-5
953,-7,-21,1001,-14,1,-7
954,-8,-23,999,-15,1,-5
955,-7,-22,999,-15,1,-5
956,-5,-21,998,-15,1,-5
957,-6,-21,999,-15,1,-5
958,-7,-22,1000,-14,2,-5
959,-7,-20,1000,-14,1,-5
960,-6,-20,999,-14,2,-6
961,-6,-21,999,-16,2,-6
962,-6,-21,999,-15,1,-6
963,-7,-20,999,-15,1,-6
964,-8,-20,999,-15,2,-5
965,-9,-20,998,-15,2,-6
966,-7,-18,1000,-14,1,-6
967,-7,-21,1000,-15,1,-6
968,-6,-21,999,-15,1,-6
969,-8,-20,999,-15,0,-6
970,-7,-22,1000,-15,1,-7
971,-7,-20,998,-14,2,-6
972,-6,-20,998,-14,1,-5
973,-6,-20,1000,-15,0,-4
974,-7,-21,999,-14,0,-5
975,-7,-19,999,-15,1,-5
976,-7,-18,999,-16,1,-5
977,-8,-20,1000,-15,1,-6
978,-7,-22,998,-15,1,-6
979,-5,-21,1000,-16,1,-6
980,-7,-21,999,-15,2,-5
981,-7,-20,1000,-15,1,-5
982,-5,-20,999,-15,2,-5
983,-6,-21,1000,-15,1,-6
984,-5,-18,999,-15,2,-6
985,-6,-19,1000,-14,1,-5
986,-7,-22,998,-14,2,-4
987,-6,-21,999,-15,3,-5
988,-6,-22,999,-15,2,-6
989,-6,-19,999,-15,2,-6
990,-8,-19,1000,-14,1,-5
991,-6,-21,1001,-15,0,-5
992,-6,-21,1000,-15,0,-5
993,-5,-21,999,-14,2,-5
994,-5,-21,999,-12,1,-6
995,-6,-19,1000,-14,2,-5
996,-6,-21,1000,-15,1,-5
997,-5,-20,1000,-15,1,-5
998,-8,-20,999,-15,1,-5
999,-7,-21,998,-14,1,-6
1000,-7,-21,1000,-16,1,-5
1001,-8,-22,1000,-14,1,-6
1002,-5,-21,1001,-15,2,-5
1003,-7,-23,998,-16,1,-4
1004,-8,-21,999,-13,1,-6
1005,-6,-22,999,-14,1,-5
1006,-5,-21,999,-15,2,-5
1007,-6,-21,1000,-14,3,-4
1008,-7,-21,999,-15,1,-6
1009,-8,-20,1001,-14,1,-5
1010,-6,-20,998,-14,2,-4
1011,-7,-21,999,-16,2,-5
1012,-5,-20,997,-14,2,-5
1013,-6,-20,999,-15,1,-6
1014,-7,-19,1000,-14,1,-6
1015,-7,-20,999,-15,0,-5
1016,-6,-23,997,-18,2,-5
1017,-8,-22,1000,-13,7,-3
1018,-8,-22,999,-14,2,-5
1019,-8,-21,998,-16,2,-6
1020,-6,-18,1000,-15,2,-5
1021,-9,-21,1001,-16,1,-6
1022,-7,-20,1000,-15,1,-5
1023,-8,-19,1001,-16,1,-5
1024,-7,-21,1000,-15,1,-6
1025,-6,-20,1000,-16,1,-6
1026,-5,-20,1001,-15,1,-6
1027,-7,-20,1000,-15,1,-5
1028,-7,-20,1001,-15,1,-4
1029,-6,-20,999,-16,0,-5
1030,-7,-19,1000,-15,0,-6
1031,-6,-18,999,-16,0,-6
1032,-5,-21,999,-15,2,-5
1033,-8,-20,1000,-15,0,-5
1034,-8,-20,1000,-14,1,-5
1035,-6,-22,999,-16,2,-5
1036,-8,-21,999,-16,1,-5
1037,-8,-20,1000,-16,2,-5
1038,-6,-20,999,-15,1,-5
1039,-8,-21,999,-14,1,-5
1040,-5,-22,999,-15,1,-5
1041,-8,-21,999,-15,2,-6
1042,-9,-20,1000,-15,1,-5
1043,-9,-19,1002,-15,2,-5
1044,-6,-20,1000,-15,1,-6
1045,-7,-18,1000,-15,1,-6
1046,-5,-21,999,-15,0,-5
1047,-6,-22,999,-15,1,-6
1048,-7,-22,1000,-15,1,-5
1049,-8,-20,999,-14,1,-5
1050,-8,-17,999,-15,1,-6
1051,-9,-17,1000,-14,1,-5
1052,-9,-19,999,-16,1,-5
1053,-8,-19,1000,-15,2,-6
1054,-9,-22,999,-14,1,-6
1055,-7,-22,999,-14,1,-6
1056,-5,-22,997,-14,0,-6
1057,-6,-21,999,-14,2,-5
1058,-8,-19,1000,-15,1,-6
1059,-8,-19,1000,-15,1,-5
1060,-7,-18,999,-15,1,-4
1061,-7,-21,998,-16,1,-5
1062,-6,-23,999,-16,1,-6
1063,-7,-22,1000,-16,0,-6
1064,-8,-21,999,-16,1,-6
1065,-8,-20,999,-16,0,-5
1066,-7,-19,999,-15,2,-5
1067,-9,-20,998,-15,1,-5
1068,-6,-20,999,-14,1,-6
1069,-6,-22,998,-16,2,-5
1070,-5,-24,999,-16,2,-5
1071,-8,-23,1000,-16,1,-5
1072,-8,-20,999,-14,2,-5
1073,-6,-19,999,-13,1,-6
1074,-8,-19,998,-15,0,-6
1075,-7,-20,1000,-16,1,-6
1076,-7,-22,999,-14,1,-5
1077,-7,-24,999,-16,0,-6
1078,-6,-20,999,-15,1,-5
1079,-8,-22,999,-14,1,-5
1080,-9,-21,999,-16,0,-4
1081,-6,-19,998,-14,1,-6
1082,-7,-19,1001,-15,2,-5
1083,-6,-20,999,-16,1,-4
1084,-7,-22,1000,-15,1,-6
1085,-7,-22,998,-16,0,-7
1086,-6,-22,999,-15,0,-6
1087,-7,-19,999,-15,0,-7
1088,-6,-17,999,-15,-1,-5
1089,-7,-21,1001,-15,1,-4
1090,-7,-19,998,-15,0,-6
1091,-7,-20,999,-17,0,-6
1092,-6,-22,1000,-14,1,-5
1093,-8,-22,999,-14,1,-4
1094,-7,-21,999,-15,1,-5
1095,-6,-20,998,-16,1,-5
1096,-8,-19,998,-15,1,-5
1097,-7,-19,1000,-15,2,-5
1098,-9,-20,1000,-17,1,-5
1099,-6,-20,999,-16,1,-5
1100,-6,-21,1000,-16,1,-5
1101,-6,-21,1000,-16,0,-5
1102,-6,-21,999,-15,0,-5
1103,-7,-19,999,-16,0,-6
1104,-8,-20,999,-17,-1,-5
1105,-7,-20,999,-16,1,-6
1106,-7,-21,1000,-16,2,-7
1107,-7,-21,999,-16,1,-6
1108,-7,-20,1000,-16,1,-5
1109,-7,-22,999,-17,1,-5
1110,-6,-20,1000,-16,0,-5
1111,-7,-20,1000,-15,0,-7
1112,-6,-19,1001,-16,0,-6
1113,-8,-22,1000,-16,1,-5
1114,-7,-22,1000,-16,0,-5
1115,-7,-20,1000,-16,1,-5
1116,-7,-22,999,-16,1,-6
1117,-6,-20,999,-16,1,-5
1118,-8,-20,999,-16,1,-5
1119,-9,-20,1000,-17,1,-5
1120,-8,-19,1000,-16,0,-6
1121,-6,-21,1000,-17,0,-6
1122,-8,-18,999,-17,1,-5
1123,-7,-22,999,-17,1,-5
1124,-6,-19,1000,-18,-1,-7
1125,-7,-20,1000,-16,-1,-7
1126,-5,-21,999,-16,0,-5
1127,-5,-20,998,-16,0,-5
1128,-7,-21,1000,-17,1,-5
1129,-4,-19,999,-16,1,-5
1130,-6,-20,1001,-15,0,-6
1131,-6,-21,1000,-17,1,-6
1132,-7,-21,1000,-15,0,-6
1133,-7,-21,999,-17,2,-4
1134,-6,-20,999,-16,2,-5
1135,-5,-21,999,-16,0,-5
1136,-7,-20,999,-16,0,-6
1137,-7,-21,999,-15,0,-7
1138,-8,-21,997,-17,1,-5
1139,-8,-21,999,-15,1,-5
1140,-7,-21,1001,-16,1,-5
1141,-9,-20,998,-16,1,-6
1142,-8,-21,999,-16,1,-5
1143,-5,-22,999,-15,1,-4
1144,-6,-20,999,-16,1,-4
1145,-7,-20,1001,-17,0,-5
1146,-7,-21,1000,-16,1,-5
1147,-6,-21,1000,-16,-1,-5
1148,-8,-20,999,-18,0,-5
1149,-5,-19,998,-17,1,-4
1150,-6,-21,999,-16,1,-5
1151,-7,-19,1000,-16,1,-4
1152,-8,-22,999,-16,1,-5
1153,-7,-19,999,-16,1,-4
1154,-7,-19,1000,-16,1,-4
1155,-8,-19,999,-16,1,-4
1156,-6,-20,999,-17,0,-5
1157,-8,-18,1000,-16,0,-5
1158,-7,-19,1001,-17,-1,-5
1159,-7,-19,999,-16,0,-6
1160,-9,-22,998,-15,1,-5
1161,-6,-21,999,-16,0,-5
1162,-7,-19,999,-16,0,-4
1163,-6,-20,999,-16,1,-5
1164,-6,-21,999,-16,0,-6
1165,-8,-20,1000,-16,1,-5
1166,-8,-19,998,-17,0,-6
1167,-7,-21,999,-14,0,-5
1168,-8,-20,999,-15,1,-5
1169,-6,-19,1000,-17,0,-4
1170,-8,-20,999,-17,2,-4
1171,-7,-20,998,-16,0,-5
1172,-7,-21,999,-16,0,-4
1173,-8,-20,998,-16,0,-4
1174,-7,-20,999,-16,0,-4
1175,-8,-21,999,-17,0,-6
1176,-7,-21,1000,-16,0,-5
1177,-8,-21,999,-16,0,-6
1178,-6,-23,999,-16,0,-5
1179,-8,-22,999,-15,0,-5
1180,-9,-21,1000,-16,1,-5
1181,-8,-19,999,-15,1,-5
1182,-6,-21,1000,-17,0,-5
1183,-6,-19,999,-15,0,-5
1184,-8,-20,1000,-15,1,-5
1185,-6,-20,998,-17,1,-4
1186,-7,-21,997,-16,1,-5
1187,-8,-19,999,-15,0,-5
1188,-9,-20,1000,-15,1,-6
1189,-7,-20,999,-15,1,-4
1190,-7,-20,1001,-16,0,-5
1191,-6,-19,999,-17,0,-5
1192,-8,-22,999,-17,1,-5
1193,-8,-20,1001,-15,1,-5
1194,-9,-21,999,-14,0,-5
1195,-8,-19,1000,-16,0,-5
1196,-7,-20,1000,-17,0,-5
1197,-7,-20,1000,-16,0,-5
1198,-7,-22,1000,-17,1,-5
1199,-8,-22,998,-16,1,-5
1200,-6,-21,999,-16,1,-5
1201,-6,-21,999,-15,2,-5
1202,-4,-23,1000,-16,0,-5
1203,-6,-22,999,-18,1,-5
1204,-7,-19,1000,-17,3,-6
1205,-9,-20,1000,-15,1,-5
1206,-8,-20,999,-17,2,-4
1207,-8,-19,1000,-16,1,-5
1208,-6,-20,1001,-17,1,-5
1209,-7,-20,1000,-16,3,-6
1210,-8,-20,1001,-16,1,-5
1211,-6,-19,1000,-16,-1,-5
1212,-7,-19,999,-16,1,-6
1213,-8,-19,999,-17,0,-5
1214,-8,-20,999,-15,0,-6
1215,-6,-19,999,-14,0,-6
1216,-6,-22,1000,-16,0,-5
1217,-7,-20,1001,-16,0,-5
1218,-7,-19,999,-17,0,-5
1219,-8,-19,1000,-17,1,-5
1220,-7,-18,998,-17,1,-6
1221,-6,-20,999,-17,1,-5
1222,-6,-21,999,-18,1,-5
1223,-7,-19,997,-17,0,-5
1224,-7,-19,999,-16,0,-6
1225,-9,-20,1000,-17,2,-6
1226,-8,-20,1000,-16,0,-4
1227,-8,-21,999,-17,-1,-5
1228,-9,-19,1000,-17,1,-4
1229,-8,-20,999,-16,1,-6
1230,-8,-20,999,-16,1,-6
1231,-8,-20,999,-14,1,-6
1232,-8,-20,999,-16,0,-5
1233,-7,-20,999,-17,0,-4
1234,-7,-20,998,-14,0,-5
1235,-7,-19,998,-16,1,-5
1236,-8,-19,998,-16,0,-5
1237,-8,-20,1000,-16,1,-6
1238,-7,-19,998,-17,0,-5
1239,-6,-21,1000,-16,-2,-5
1240,-6,-21,1000,-17,0,-6
1241,-9,-21,1000,-17,0,-5
1242,-7,-21,999,-17,1,-4
1243,-6,-21,999,-16,2,-4
1244,-7,-20,999,-17,1,-6
1245,-7,-20,999,-15,0,-6
1246,-5,-20,998,-16,0,-4
1247,-7,-20,998,-17,1,-5
1248,-7,-20,999,-16,0,-6
1249,-6,-21,999,-18,0,-6
1250,-6,-20,999,-17,0,-6
1251,-8,-21,1000,-17,0,-6
1252,-7,-20,1001,-17,1,-6
1253,-7,-19,1001,-15,1,-5
1254,-7,-21,999,-16,1,-6
1255,-6,-20,1000,-17,0,-5
1256,-6,-21,998,-16,1,-4
1257,-7,-21,1000,-16,0,-6
1258,-5,-20,999,-16,-1,-6
1259,-6,-20,999,-17,0,-6
1260,-8,-21,1000,-16,1,-5
1261,-7,-20,1000,-17,1,-5
1262,-6,-20,1000,-16,1,-4
1263,-8,-20,998,-18,0,-5
1264,-6,-22,999,-16,0,-6
1265,-6,-21,1000,-18,0,-6
1266,-7,-21,999,-17,1,-6
1267,-8,-18,999,-17,0,-5
1268,-6,-20,999,-17,1,-5
1269,-9,-21,999,-16,1,-5
1270,-7,-22,998,-17,0,-5
1271,-6,-19,999,-17,1,-4
1272,-6,-20,998,-14,1,-5
1273,-6,-20,998,-16,0,-4
1274,-7,-21,999,-16,0,-6
1275,-8,-20,1000,-17,1,-5
1276,-8,-22,999,-16,0,-5
1277,-8,-21,1000,-16,1,-4
1278,-6,-20,999,-17,2,-5
1279,-8,-20,999,-16,1,-5
1280,-8,-20,1000,-17,1,-5
1281,-9,-20,1000,-17,0,-5
1282,-9,-19,1000,-16,-1,-6
1283,-8,-21,999,-15,2,-6
1284,-9,-20,999,-16,0,-6
1285,-8,-21,999,-16,1,-6
1286,-7,-20,1000,-17,-1,-5
1287,-8,-19,1000,-16,-1,-6
1288,-8,-20,998,-15,0,-6
1289,-7,-19,1000,-17,0,-6
1290,-7,-19,1000,-15,0,-5
1291,-7,-21,1000,-15,0,-6
1292,-7,-21,999,-16,1,-5
1293,-7,-21,998,-17,1,-4
1294,-8,-20,999,-16,2,-5
1295,-7,-21,998,-16,1,-5
1296,-9,-22,1001,-17,0,-5
1297,-6,-22,999,-15,1,-4
1298,-7,-21,999,-16,0,-5
1299,-7,-21,1000,-17,1,-5
1300,-8,-21,1000,-17,0,-6
1301,-8,-20,999,-16,0,-5
1302,-7,-20,999,-18,1,-5
1303,-7,-19,1000,-16,0,-5
1304,-8,-20,1000,-18,-1,-6
1305,-7,-18,999,-18,0,-5
1306,-7,-18,998,-16,1,-5
1307,-7,-20,999,-17,0,-6
1308,-6,-20,998,-17,-1,-6
1309,-9,-22,1001,-16,1,-6
1310,-7,-20,999,-15,0,-5
1311,-7,-20,998,-16,0,-4
1312,-8,-20,999,-17,0,-4
1313,-6,-20,1000,-17,1,-5
1314,-6,-20,999,-16,0,-5
1315,-6,-22,999,-16,1,-4
1316,-8,-22,998,-17,0,-5
1317,-9,-21,1000,-16,0,-6
1318,-7,-22,998,-17,0,-6
1319,-8,-22,1000,-16,1,-5
1320,-9,-20,999,-16,0,-4
1321,-8,-22,999,-16,0,-5
1322,-7,-21,1000,-16,2,-4
1323,-8,-19,1000,-18,0,-5
1324,-7,-20,999,-17,1,-5
1325,-9,-20,998,-15,1,-4
1326,-7,-20,997,-17,2,-5
1327,-8,-20,1000,-17,0,-4
1328,-7,-20,998,-17,0,-6
1329,-7,-21,999,-14,0,-6
1330,-8,-21,1000,-17,0,-4
1331,-8,-19,1000,-18,0,-4
1332,-8,-18,1000,-17,0,-5
1333,-6,-19,1000,-16,1,-6
1334,-6,-18,998,-17,0,-5
1335,-6,-19,1000,-14,0,-5
1336,-8,-20,998,-18,1,-5
1337,-7,-19,998,-18,1,-5
1338,-7,-21,1000,-16,1,-5
1339,-5,-20,1000,-16,0,-5
1340,-7,-20,1000,-16,-1,-6
1341,-7,-22,999,-16,0,-6
1342,-9,-22,999,-16,1,-5
1343,-6,-22,999,-16,0,-5
1344,-8,-20,1001,-17,0,-6
1345,-7,-20,1000,-16,0,-6
1346,-7,-20,999,-16,1,-4
1347,-7,-19,999,-15,1,-4
1348,-7,-19,999,-16,1,-5
1349,-8,-19,998,-17,0,-5
1350,-9,-19,1000,-16,0,-5
1351,-7,-20,997,-17,-5,-7
1352,-8,-18,999,-21,-3,-6
1353,-8,-20,1000,-12,1,-7
1354,-7,-20,999,-19,1,-5
1355,-7,-21,999,-17,0,-5
1356,-6,-20,1001,-14,-1,-5
1357,-6,-22,1000,-18,1,-4
1358,-8,-22,999,-13,1,-5
1359,-5,-21,999,-16,0,-5
1360,-6,-21,1000,-18,-1,-4
1361,-6,-21,998,-15,0,-5
1362,-7,-20,999,-18,0,-5
1363,-7,-20,999,-16,1,-5
1364,-7,-20,1002,-15,1,-6
1365,-8,-21,1001,-16,1,-6
1366,-6,-20,999,-14,1,-6
1367,-7,-20,1000,-16,1,-5
1368,-6,-20,999,-16,0,-5
1369,-7,-21,999,-15,1,-5
1370,-8,-21,999,-16,1,-6
1371,-9,-19,998,-17,1,-5
1372,-7,-19,998,-17,0,-4
1373,-6,-19,998,-16,-1,-6
1374,-6,-20,999,-16,1,-5
1375,-7,-20,1000,-16,0,-5
1376,-7,-21,999,-16,0,-5
1377,-7,-21,999,-17,1,-6
1378,-8,-21,999,-17,0,-5
1379,-7,-19,999,-18,0,-5
1380,-9,-20,998,-16,0,-5
1381,-5,-21,999,-16,0,-5
1382,-6,-20,1000,-15,0,-7
1383,-8,-20,999,-15,1,-5
1384,-8,-20,999,-17,0,-4
1385,-7,-19,999,-17,0,-5
1386,-7,-21,999,-17,1,-5
1387,-7,-20,999,-16,0,-5
1388,-8,-22,1000,-16,-1,-5
1389,-8,-20,1000,-16,0,-4
1390,-7,-21,999,-18,1,-4
1391,-7,-20,999,-15,0,-5
1392,-7,-21,999,-15,0,-5
1393,-7,-20,1001,-17,0,-5
1394,-7,-19,1001,-16,1,-5
1395,-8,-21,999,-18,1,-5
1396,-7,-21,1000,-17,1,-5
1397,-7,-21,999,-17,1,-5
1398,-6,-22,1000,-16,1,-4
1399,-6,-20,1000,-15,0,-6
1400,-6,-21,999,-16,0,-5
1401,-6,-19,999,-15,1,-5
1402,-8,-21,997,-17,0,-5
1403,-9,-21,999,-15,-1,-4
1404,-7,-21,998,-15,1,-5
1405,-8,-20,1000,-16,0,-5
1406,-6,-21,999,-16,0,-5
1407,-5,-21,999,-16,1,-6
1408,-6,-20,998,-17,0,-5
1409,-8,-20,1000,-17,0,-5
1410,-7,-21,1000,-16,1,-4
1411,-7,-20,998,-15,2,-5
1412,-7,-20,999,-17,0,-6
1413,-8,-21,999,-16,0,-5
1414,-7,-19,999,-17,0,-6
1415,-5,-19,999,-15,0,-7
1416,-6,-21,999,-15,1,-6
1417,-6,-21,1000,-16,0,-6
1418,-8,-21,998,-16,-1,-5
1419,-5,-21,1000,-17,0,-6
1420,-6,-19,999,-18,1,-5
1421,-7,-20,1000,-17,0,-5
1422,-8,-20,999,-15,1,-5
1423,-8,-21,999,-16,0,-6
1424,-5,-19,999,-16,1,-4
1425,-7,-19,998,-16,2,-6
1426,-6,-22,999,-16,1,-6
1427,-6,-20,998,-17,1,-6
1428,-6,-20,999,-16,-1,-6
1429,-8,-20,999,-16,0,-5
1430,-7,-20,1000,-17,0,-5
1431,-8,-21,998,-16,0,-5
1432,-7,-22,1002,-16,1,-5
1433,-6,-21,999,-17,1,-6
1434,-6,-22,998,-16,0,-5
1435,-8,-19,1000,-15,-1,-5
1436,-8,-19,1001,-16,-1,-5
1437,-8,-20,1000,-16,0,-4
1438,-7,-20,999,-16,1,-5
1439,-6,-19,999,-17,2,-5
1440,-7,-21,999,-16,0,-4
1441,-7,-22,1000,-16,2,-6
1442,-6,-21,999,-17,0,-6
1443,-7,-22,998,-17,1,-6
1444,-7,-21,998,-17,2,-4
1445,-7,-19,1000,-15,1,-5
1446,-7,-21,1000,-18,1,-6
1447,-7,-20,999,-16,1,-4
1448,-7,-21,998,-15,1,-5
1449,-8,-20,1000,-17,0,-5
1450,-9,-21,998,-16,1,-5
1451,-8,-22,998,-14,1,-5
1452,-7,-21,998,-17,0,-6
1453,-7,-21,999,-16,0,-6
1454,-7,-21,999,-15,1,-5
1455,-8,-22,999,-17,0,-6
1456,-7,-22,1000,-16,0,-6
1457,-9,-21,998,-16,-1,-5
1458,-7,-20,1000,-17,0,-6
1459,-9,-21,999,-16,0,-5
1460,-8,-21,1000,-16,0,-4
1461,-9,-22,1000,-15,0,-5
1462,-8,-21,998,-17,1,-6
1463,-8,-21,1001,-17,1,-4
1464,-8,-21,1000,-16,2,-5
1465,-7,-20,1002,-17,1,-5
1466,-8,-21,1000,-16,0,-6
1467,-7,-19,1000,-17,1,-6
1468,-7,-21,999,-18,1,-5
1469,-7,-20,999,-15,1,-5
1470,-6,-20,998,-15,0,-6
1471,-8,-20,1000,-16,0,-5
1472,-8,-20,1001,-17,0,-5
1473,-6,-21,998,-16,1,-5
1474,-8,-22,999,-18,0,-5
1475,-8,-20,998,-16,0,-5
1476,-6,-19,998,-17,0,-5
1477,-8,-22,998,-16,0,-4
1478,-6,-20,1000,-18,-1,-5
1479,-6,-20,999,-17,0,-6
1480,-6,-20,1001,-17,2,-5
1481,-9,-20,1001,-16,0,-5
1482,-8,-20,1000,-14,1,-5
1483,-7,-19,1001,-16,2,-5
1484,-9,-20,998,-16,1,-6
1485,-7,-22,999,-15,1,-4
1486,-8,-20,1001,-17,0,-6
1487,-9,-20,999,-17,0,-6
1488,-9,-21,999,-16,0,-4
1489,-10,-20,1000,-16,0,-6
1490,-9,-19,999,-15,1,-4
1491,-8,-20,1001,-15,1,-5
1492,-7,-21,999,-17,0,-3
1493,-9,-21,998,-16,0,-4
1494,-8,-22,1000,-19,0,-6
1495,-6,-21,998,-16,2,-5
1496,-8,-21,1000,-15,1,-4
1497,-8,-20,998,-17,1,-5
1498,-8,-21,1000,-16,-1,-5
1499,-8,-22,1000,-17,0,-5
1500,-9,-20,999,-16,1,-4
1501,-8,-22,999,-16,0,-3
1502,-8,-20,1000,-16,0,-4
1503,-7,-20,999,-17,0,-5
1504,-8,-19,1000,-15,-1,-6
1505,-7,-20,1000,-17,1,-6
1506,-7,-20,1000,-16,2,-6
1507,-8,-19,999,-17,0,-6
1508,-7,-20,1000,-18,1,-6
1509,-8,-21,999,-17,1,-4
1510,-6,-21,1000,-18,2,-5
1511,-7,-21,1000,-18,0,-5
1512,-7,-20,998,-17,0,-6
1513,-8,-20,1000,-16,1,-6
1514,-8,-20,999,-17,1,-5
1515,-7,-20,998,-16,1,-4
1516,-6,-20,1000,-16,1,-5
1517,-9,-20,999,-16,1,-7
1518,-10,-20,999,-16,1,-6
1519,-6,-18,1000,-17,1,-5
1520,-6,-20,999,-17,2,-5
1521,-8,-20,1001,-17,1,-6
1522,-6,-21,998,-16,1,-6
1523,-9,-19,999,-16,0,-6
1524,-7,-21,999,-16,-1,-5
1525,-8,-19,998,-17,0,-5
1526,-9,-20,998,-18,0,-5
1527,-6,-20,1000,-16,2,-6
1528,-7,-22,999,-17,0,-5
1529,-7,-21,999,-16,-1,-5
1530,-6,-20,1000,-17,0,-5
1531,-7,-21,998,-16,0,-6
1532,-8,-21,1000,-16,2,-5
1533,-9,-20,1000,-14,1,-5
1534,-7,-19,999,-16,0,-5
1535,-8,-21,998,-15,1,-6
1536,-6,-21,999,-16,0,-6
1537,-7,-22,999,-15,0,-6
1538,-6,-20,997,-18,1,-5
1539,-6,-20,999,-18,1,-6
1540,-8,-21,999,-16,0,-6
1541,-8,-19,998,-16,0,-6
1542,-5,-19,999,-17,0,-6
1543,-7,-21,999,-16,1,-6
1544,-6,-21,999,-16,1,-5
1545,-7,-20,1000,-16,1,-5
1546,-8,-20,999,-17,0,-5
1547,-6,-20,999,-15,1,-5
1548,-7,-20,999,-16,0,-6
1549,-8,-22,999,-16,0,-5
1550,-8,-20,1000,-15,1,-4
1551,-9,-22,999,-15,0,-5
1552,-9,-19,999,-17,0,-5
1553,-8,-20,1000,-17,0,-6
1554,-8,-20,997,-16,0,-6
1555,-7,-20,999,-17,1,-4
1556,-6,-20,1000,-17,0,-5
1557,-9,-21,1000,-17,0,-6
1558,-6,-20,998,-16,1,-5
1559,-8,-23,999,-16,1,-6
1560,-8,-21,1000,-15,2,-5
1561,-7,-24,998,-17,0,-5
1562,-8,-22,999,-17,0,-5
1563,-9,-21,1000,-15,-1,-6
1564,-6,-19,999,-16,0,-5
1565,-6,-20,1001,-16,1,-6
1566,-7,-22,999,-16,1,-5
1567,-6,-19,1000,-16,0,-6
1568,-6,-20,999,-17,1,-6
1569,-7,-21,999,-16,-1,-6
1570,-7,-21,1000,-17,0,-6
1571,-8,-20,1001,-16,0,-6
1572,-8,-20,1000,-16,0,-6
1573,-7,-20,999,-16,0,-5
1574,-5,-21,999,-16,0,-5
1575,-5,-19,998,-17,0,-5
1576,-5,-21,998,-17,-1,-5
1577,-8,-22,1000,-17,0,-5
1578,-6,-20,1001,-16,0,-5
1579,-7,-20,1000,-17,0,-5
1580,-8,-19,999,-16,1,-5
1581,-7,-21,999,-17,1,-5
1582,-5,-20,1000,-17,1,-6
1583,-4,-22,999,-16,0,-4
1584,-7,-22,999,-17,2,-4
1585,-8,-22,998,-15,2,-4
1586,-7,-22,1000,-16,0,-5
1587,-7,-21,999,-16,1,-5
1588,-8,-20,999,-14,1,-6
1589,-8,-20,999,-16,0,-5
1590,-8,-20,998,-16,0,-5
1591,-8,-20,999,-16,2,-5
1592,-8,-20,999,-16,0,-6
1593,-8,-19,998,-16,0,-6
1594,-9,-18,999,-16,0,-6
1595,-8,-19,1000,-15,0,-7
1596,-9,-19,998,-16,0,-6
1597,-8,-21,998,-18,1,-4
1598,-9,-20,999,-16,0,-5
1599,-6,-21,1000,-16,0,-5
1600,-8,-21,998,-16,0,-5
1601,-8,-21,999,-17,-1,-4
1602,-8,-21,999,-16,0,-6
1603,-5,-20,999,-18,1,-5
1604,-7,-21,997,-17,0,-6
1605,-9,-21,998,-16,1,-6
1606,-8,-20,1000,-16,0,-6
1607,-6,-22,1001,-16,1,-5
1608,-7,-21,1000,-15,0,-6
1609,-8,-20,1001,-17,-1,-5
1610,-9,-20,999,-16,0,-4
1611,-8,-20,999,-17,1,-4
1612,-7,-19,1001,-15,0,-5
1613,-8,-22,999,-17,0,-5
1614,-8,-21,999,-16,1,-5
1615,-8,-21,1000,-17,0,-5
1616,-6,-20,999,-15,0,-4
1617,-8,-20,999,-16,-1,-5
1618,-6,-21,999,-15,2,-5
1619,-7,-19,1001,-16,1,-5
1620,-6,-22,999,-18,1,-4
1621,-6,-21,999,-15,-1,-5
1622,-6,-21,999,-18,1,-5
1623,-8,-18,1001,-15,0,-6
1624,-7,-20,1000,-17,-1,-4
1625,-6,-19,1000,-17,0,-5
1626,-7,-21,998,-16,0,-6
1627,-8,-22,999,-16,1,-5
1628,-7,-20,998,-16,1,-5
1629,-9,-20,999,-16,0,-6
1630,-8,-21,1000,-17,1,-5
1631,-8,-20,999,-15,1,-6
1632,-6,-20,998,-17,1,-5
1633,-8,-20,1000,-16,0,-5
1634,-8,-20,998,-16,1,-5
1635,-8,-21,1000,-15,-1,-6
1636,-9,-22,1000,-16,0,-5
1637,-8,-21,1000,-17,0,-6
1638,-6,-19,998,-16,0,-6
1639,-8,-21,999,-17,0,-5
1640,-7,-19,998,-16,1,-5
1641,-9,-20,999,-16,2,-4
1642,-7,-19,999,-16,0,-4
1643,-7,-21,1000,-17,1,-4
1644,-8,-21,1000,-16,0,-5
1645,-7,-20,999,-15,2,-6
1646,-8,-19,1000,-17,0,-6
1647,-7,-20,999,-14,0,-5
1648,-10,-19,1000,-17,1,-5
1649,-8,-18,1000,-16,0,-6
1650,-9,-18,999,-15,2,-6
1651,-8,-18,1000,-17,1,-5
1652,-9,-19,999,-17,1,-6
1653,-6,-21,1001,-16,0,-5
1654,-6,-20,999,-17,0,-4
1655,-7,-20,999,-16,0,-5
1656,-7,-20,999,-18,-1,-5
1657,-6,-21,1000,-17,0,-5
1658,-8,-21,1000,-17,-1,-6
1659,-8,-20,999,-17,0,-5
1660,-7,-20,999,-14,1,-4
1661,-6,-21,999,-16,0,-4
1662,-7,-22,999,-17,-1,-5
1663,-6,-21,1000,-16,1,-5
1664,-8,-20,999,-17,0,-5
1665,-6,-21,998,-17,1,-5
1666,-7,-20,998,-16,0,-5
1667,-7,-21,1001,-16,0,-5
1668,-8,-21,998,-16,0,-6
1669,-8,-20,999,-17,-1,-6
1670,-7,-22,999,-17,0,-5
1671,-6,-23,997,-16,1,-6
1672,-9,-21,999,-17,1,-5
1673,-6,-21,998,-16,0,-5
1674,-9,-20,999,-16,0,-5
1675,-6,-22,1000,-17,2,-5
1676,-8,-20,1000,-17,0,-4
1677,-8,-20,998,-17,1,-5
1678,-9,-22,1000,-15,1,-5
1679,-6,-19,998,-16,0,-5
1680,-7,-21,999,-17,1,-5
1681,-8,-19,999,-16,2,-5
1682,-7,-19,1000,-15,1,-5
1683,-9,-21,997,-16,0,-5
1684,-7,-19,999,-15,0,-5
1685,-6,-21,999,-15,0,-6
1686,-7,-21,999,-17,0,-6
1687,-7,-19,1000,-17,1,-5
1688,-6,-20,999,-17,0,-5
1689,-6,-21,1000,-14,2,-5
1690,-7,-22,998,-3,2,-7
1691,-6,-20,1001,-12,-1,-6
1692,-6,-21,999,-16,0,-5
1693,-7,-21,1000,-15,1,-6
1694,-7,-20,999,-19,0,-5
1695,-7,-20,1000,-16,1,-6
1696,-7,-20,1000,-16,0,-5
1697,-8,-20,1001,-17,1,-5
1698,-9,-21,999,-15,1,-6
1699,-7,-21,999,-17,1,-5
1700,-8,-19,997,-15,0,-5
1701,-6,-20,1000,-15,1,-4
1702,-7,-19,999,-17,0,-6
1703,-9,-21,999,-16,0,-4
1704,-8,-20,1000,-15,-1,-6
1705,-8,-19,999,-16,0,-6
1706,-8,-19,1000,-17,0,-6
1707,-9,-19,999,-16,1,-6
1708,-8,-19,999,-17,0,-5
1709,-7,-21,998,-18,0,-5
1710,-8,-20,999,-17,0,-6
1711,-9,-21,999,-15,1,-6
1712,-7,-19,1000,-16,1,-6
1713,-9,-19,1000,-17,2,-5
1714,-7,-21,1000,-17,1,-5
1715,-8,-21,1000,-15,-1,-6
1716,-6,-21,1000,-17,1,-6
1717,-8,-20,999,-16,0,-5
1718,-7,-21,1000,-14,0,-5
1719,-8,-20,999,-16,1,-6
1720,-9,-20,999,-16,0,-5
1721,-8,-21,998,-16,0,-5
1722,-8,-20,1000,-16,1,-6
1723,-7,-21,998,-15,0,-5
1724,-6,-20,998,-15,0,-5
1725,-8,-21,999,-17,0,-5
1726,-7,-21,1000,-17,0,-5
1727,-7,-20,1000,-16,0,-6
1728,-8,-20,999,-15,-1,-6
1729,-7,-20,1000,-17,0,-6
1730,-9,-21,1001,-17,2,-6
1731,-7,-19,999,-16,0,-5
1732,-7,-20,999,-16,1,-6
1733,-6,-21,1000,-17,2,-6
1734,-4,-21,1000,-17,1,-5
1735,-6,-19,999,-16,2,-5
1736,-6,-20,998,-15,1,-5
1737,-7,-20,998,-16,0,-5
1738,-8,-22,999,-17,1,-5
1739,-8,-21,1000,-17,0,-5
1740,-7,-20,999,-17,0,-6
1741,-8,-20,999,-16,1,-5
1742,-6,-21,999,-17,0,-6
1743,-8,-21,998,-17,1,-5
1744,-8,-21,999,-17,0,-5
1745,-8,-21,1000,-17,0,-5
1746,-7,-20,998,-15,0,-5
1747,-7,-20,999,-17,0,-4
1748,-7,-20,1000,-15,0,-3
1749,-8,-20,998,-18,0,-5
1750,-7,-20,999,-17,2,-5
1751,-6,-20,999,-17,1,-5
1752,-8,-21,999,-16,1,-5
1753,-6,-20,1001,-17,0,-5
1754,-10,-20,1000,-18,-1,-5
1755,-9,-20,1000,-16,-1,-5
1756,-8,-20,999,-17,-1,-4
1757,-11,-22,1000,-16,0,-6
1758,-9,-20,1000,-17,1,-6
1759,-7,-20,999,-16,2,-4
1760,-9,-21,999,-15,2,-5
1761,-8,-20,1000,-16,1,-5
1762,-9,-21,997,-17,0,-6
1763,-8,-23,1000,-17,0,-5
1764,-7,-20,999,-16,-1,-5
1765,-8,-22,998,-17,1,-5
1766,-7,-22,999,-15,0,-6
1767,-8,-22,1000,-15,0,-6
1768,-7,-22,1000,-17,-1,-5
1769,-7,-21,999,-15,0,-5
1770,-6,-21,999,-16,2,-5
1771,-6,-22,998,-15,0,-5
1772,-7,-22,1000,-13,0,-6
1773,-7,-21,999,-16,0,-5
1774,-7,-21,1000,-16,0,-6
1775,-5,-20,999,-16,0,-6
1776,-6,-19,998,-17,1,-6
1777,-7,-21,1000,-14,1,-6
1778,-8,-22,999,-15,1,-6
1779,-7,-21,998,-16,1,-4
1780,-6,-20,999,-16,0,-3
1781,-6,-21,999,-15,1,-4
1782,-7,-20,1000,-17,1,-6
1783,-7,-20,999,-19,1,-5
1784,-5,-21,999,-17,0,-5
1785,-6,-19,998,-17,0,-6
1786,-7,-20,999,-16,2,-6
1787,-9,-21,998,-17,1,-5
1788,-8,-19,1000,-17,1,-5
1789,-8,-22,1001,-17,1,-7
1790,-9,-21,999,-16,1,-5
1791,-9,-20,999,-17,2,-5
1792,-7,-19,998,-16,1,-5
1793,-7,-21,1000,-16,1,-6
1794,-8,-23,999,-15,1,-5
1795,-7,-20,1000,-16,0,-6
1796,-8,-20,1000,-17,0,-5
1797,-9,-20,999,-15,2,-5
1798,-5,-19,999,-16,1,-6
1799,-6,-21,1000,-16,0,-5
1800,-7,-21,999,-16,0,-6
1801,-8,-22,1000,-16,1,-6
1802,-7,-20,1000,-16,1,-6
1803,-7,-22,1000,-16,0,-5
1804,-7,-22,1001,-16,1,-6
1805,-7,-18,1001,-14,0,-6
1806,-7,-20,1001,-16,0,-6
1807,-7,-20,1000,-16,1,-4
1808,-6,-19,998,-16,0,-5
1809,-8,-20,998,-18,1,-4
1810,-6,-21,1000,-17,2,-5
1811,-8,-22,999,-17,1,-4
1812,-6,-19,999,-16,1,-5
1813,-8,-20,999,-16,1,-6
1814,-7,-20,1000,-16,1,-6
1815,-9,-19,999,-16,0,-6
1816,-7,-22,999,-17,1,-6
1817,-6,-21,999,-17,1,-5
1818,-5,-21,999,-16,1,-5
1819,-8,-20,1000,-17,1,-6
1820,-9,-22,998,-16,0,-6
1821,-9,-20,1001,-15,1,-6
1822,-6,-21,1000,-16,1,-5
1823,-7,-22,999,-19,1,-5
1824,-7,-20,1000,-17,0,-6
1825,-8,-20,1001,-17,0,-6
1826,-6,-20,1000,-16,0,-5
1827,-6,-20,999,-18,1,-6
1828,-6,-19,998,-17,0,-6
1829,-7,-21,999,-17,0,-5
1830,-7,-21,999,-18,0,-4
1831,-6,-20,999,-17,0,-4
1832,-8,-19,998,-16,1,-6
1833,-9,-21,998,-17,0,-5
1834,-9,-21,998,-16,0,-5
1835,-8,-21,1000,-15,0,-5
1836,-7,-20,999,-17,0,-4
1837,-10,-21,1000,-18,1,-5
1838,-8,-21,998,-16,0,-5
1839,-8,-20,998,-18,1,-6
1840,-8,-21,997,-17,1,-4
1841,-7,-20,999,-17,0,-4
1842,-8,-20,999,-15,-1,-7
1843,-9,-22,999,-16,0,-5
1844,-9,-20,1000,-17,1,-5
1845,-9,-20,999,-16,0,-6
1846,-6,-19,999,-19,1,-5
1847,-8,-21,1000,-15,1,-6
1848,-6,-20,1000,-17,1,-4
1849,-5,-20,1000,-17,0,-6
1850,-6,-20,1000,-17,1,-5
1851,-8,-20,1000,-16,1,-5
1852,-9,-21,999,-17,0,-5
1853,-7,-20,999,-16,1,-4
1854,-6,-20,998,-16,1,-4
1855,-7,-20,999,-16,1,-5
1856,-8,-19,1000,-17,0,-5
1857,-6,-20,1000,-17,1,-5
1858,-8,-22,1000,-15,1,-5
1859,-8,-20,998,-17,1,-4
1860,-7,-21,1000,-16,1,-5
1861,-6,-21,998,-16,1,-7
1862,-8,-20,997,-16,1,-5
1863,-7,-20,1000,-15,1,-5
1864,-7,-22,999,-16,1,-5
1865,-9,-22,998,-17,1,-5
1866,-8,-18,998,-16,1,-6
1867,-6,-21,1001,-16,1,-5
1868,-8,-22,999,-16,1,-4
1869,-8,-19,999,-16,-1,-4
1870,-8,-19,998,-16,0,-5
1871,-7,-20,1000,-17,1,-5
1872,-6,-21,998,-15,1,-5
1873,-7,-20,999,-16,0,-6
1874,-7,-21,998,-15,0,-5
1875,-7,-21,999,-16,0,-6
1876,-6,-20,1000,-16,0,-6
1877,-8,-20,1000,-18,-1,-5
1878,-7,-19,1000,-16,-1,-5
1879,-7,-19,1001,-17,0,-6
1880,-9,-21,999,-15,-1,-6
1881,-9,-21,999,-16,0,-6
1882,-6,-21,1000,-17,0,-6
1883,-6,-20,998,-16,0,-6
1884,-8,-19,1000,-18,0,-6
1885,-10,-20,1000,-17,0,-5
1886,-8,-20,998,-14,0,-5
1887,-8,-20,1000,-15,0,-6
1888,-9,-21,1000,-17,0,-5
1889,-9,-19,999,-16,0,-4
1890,-7,-20,998,-16,0,-5
1891,-8,-22,1000,-16,0,-4
1892,-9,-20,1000,-18,1,-6
1893,-7,-21,998,-17,1,-5
1894,-9,-20,999,-16,0,-6
1895,-7,-22,998,-17,0,-5
1896,-8,-20,999,-17,1,-6
1897,-7,-22,998,-17,1,-6
1898,-9,-20,1000,-17,2,-5
1899,-7,-21,1000,-17,0,-4
1900,-7,-21,1001,-17,0,-4
1901,-10,-20,1000,-18,0,-6
1902,-10,-20,999,-16,1,-5
1903,-7,-21,1001,-17,2,-5
1904,-7,-21,1000,-16,1,-5
1905,-7,-21,1000,-16,-1,-5
1906,-7,-19,999,-16,0,-6
1907,-9,-23,1000,-16,1,-6
1908,-9,-19,999,-17,1,-6
1909,-6,-20,999,-16,2,-4
1910,-8,-19,1000,-18,0,-4
1911,-6,-20,999,-16,1,-5
1912,-5,-20,1000,-16,0,-6
1913,-7,-22,1000,-17,0,-6
1914,-8,-21,999,-16,0,-5
1915,-7,-20,999,-16,0,-6
1916,-8,-21,999,-16,2,-4
1917,-8,-19,1000,-15,1,-5
1918,-8,-21,1000,-16,0,-6
1919,-6,-22,1000,-15,1,-7
1920,-6,-21,999,-17,1,-5
1921,-7,-21,1000,-16,3,-6
1922,-9,-21,1000,-18,1,-6
1923,-7,-20,1000,-17,1,-5
1924,-7,-20,999,-17,1,-5
1925,-8,-21,1000,-17,0,-6
1926,-8,-19,1000,-16,1,-5
1927,-10,-21,1000,-17,0,-4
1928,-7,-20,999,-17,1,-5
1929,-7,-18,999,-15,2,-5
1930,-6,-20,1001,-16,1,-5
1931,-7,-21,999,-16,0,-5
1932,-7,-22,999,-16,0,-5
1933,-9,-20,999,-18,0,-5
1934,-7,-19,998,-17,0,-5
1935,-6,-19,998,-16,0,-5
1936,-8,-19,1000,-17,0,-6
1937,-8,-20,998,-16,-1,-6
1938,-5,-22,999,-17,0,-5
1939,-8,-20,998,-17,1,-5
1940,-6,-21,1000,-17,1,-5
1941,-8,-20,997,-17,0,-6
1942,-7,-20,999,-17,0,-5
1943,-6,-21,999,-15,0,-6
1944,-7,-19,999,-18,0,-6
1945,-6,-21,998,-17,0,-5
1946,-6,-22,999,-17,1,-6
1947,-8,-19,999,-17,1,-6
1948,-6,-18,1001,-17,0,-5
1949,-8,-19,999,-18,0,-4
1950,-7,-21,998,-16,2,-4
1951,-6,-20,999,-15,0,-4
1952,-6,-20,998,-18,1,-5
1953,-7,-21,999,-17,0,-6
1954,-6,-20,999,-17,0,-5
1955,-6,-22,1000,-16,1,-5
1956,-6,-20,1000,-15,0,-6
1957,-8,-20,999,-16,1,-5
1958,-7,-22,999,-17,0,-5
1959,-6,-21,1000,-15,0,-6
1960,-8,-21,998,-16,0,-5
1961,-7,-23,1000,-16,0,-5
1962,-6,-20,998,-16,0,-6
1963,-7,-20,999,-16,0,-5
1964,-6,-21,998,-16,0,-6
1965,-7,-20,999,-14,0,-5
1966,-7,-20,998,-16,1,-5
1967,-8,-20,999,-16,1,-5
1968,-9,-20,998,-16,0,-5
1969,-9,-20,999,-17,-1,-5
1970,-9,-19,1000,-17,0,-5
1971,-9,-19,999,-16,0,-5
1972,-7,-21,999,-16,0,-6
1973,-6,-21,998,-17,0,-6
1974,-7,-21,999,-16,0,-5
1975,-7,-22,1000,-16,0,-4
1976,-8,-21,999,-17,1,-6
1977,-9,-20,998,-17,0,-5
1978,-7,-20,999,-18,2,-5
1979,-6,-20,1000,-17,1,-5
1980,-7,-19,999,-17,0,-5
1981,-6,-20,998,-17,1,-5
1982,-7,-19,1000,-15,1,-5
1983,-6,-20,997,-17,1,-5
1984,-7,-22,998,-17,0,-5
1985,-5,-21,998,-16,0,-6
1986,-6,-21,998,-15,0,-7
1987,-8,-20,999,-17,1,-6
1988,-7,-22,1000,-16,1,-5
1989,-8,-21,998,-16,0,-5
1990,-7,-20,999,-16,0,-7
1991,-6,-20,1000,-17,1,-5
1992,-7,-21,1000,-16,1,-5
1993,-6,-20,1000,-16,1,-4
1994,-7,-22,999,-15,2,-5
1995,-7,-19,1000,-16,2,-5
1996,-8,-20,999,-14,0,-5
1997,-9,-21,999,-17,1,-5
1998,-8,-19,999,-16,0,-6
1999,-8,-21,998,-16,1,-6
2000,-8,-20,1000,-17,1,-6
2001,-7,-20,998,-17,1,-5
2002,-7,-21,1001,-17,1,-4
2003,-6,-21,1000,-16,1,-5
2004,-6,-21,1000,-16,-1,-6
2005,-7,-20,999,-15,0,-5
2006,-8,-20,1000,-16,0,-5
2007,-6,-21,999,-15,0,-5
2008,-8,-19,999,-16,1,-5
2009,-9,-20,1001,-16,0,-5
2010,-8,-20,1000,-16,1,-4
2011,-9,-19,1000,-16,-1,-5
2012,-7,-19,999,-16,0,-6
2013,-8,-19,1000,-16,1,-6
2014,-9,-18,1000,-17,1,-4
2015,-9,-21,1000,-14,1,-5
2016,-7,-21,998,-17,1,-6
2017,-6,-21,1000,-17,1,-4
2018,-7,-19,999,-17,1,-5
2019,-8,-22,1000,-17,0,-5
2020,-7,-21,1000,-16,1,-6
2021,-7,-20,1000,-17,1,-5
2022,-8,-20,998,-15,0,-5
2023,-9,-20,999,-14,1,-5
2024,-9,-19,999,-17,1,-5
2025,-6,-19,1000,-17,1,-5
2026,-9,-20,1000,-16,1,-6
2027,-7,-20,998,-16,0,-6
2028,-7,-18,1000,-16,-1,-6
2029,-6,-19,1000,-16,-1,-6
2030,-8,-19,998,-17,0,-5
2031,-7,-20,999,-17,5,-4
2032,-7,-19,999,-14,4,-4
2033,-7,-22,999,-14,2,-5
2034,-9,-20,998,-17,1,-5
2035,-8,-20,999,-15,1,-6
2036,-9,-21,1000,-15,1,-5
2037,-7,-22,1000,-16,0,-5
2038,-7,-20,999,-15,0,-6
2039,-8,-21,1000,-18,-1,-6
2040,-7,-20,999,-16,0,-6
2041,-8,-21,999,-15,0,-6
2042,-8,-21,999,-18,0,-4
2043,-9,-21,998,-16,2,-5
2044,-6,-19,999,-16,1,-5
2045,-6,-22,999,-17,0,-6
2046,-9,-21,999,-16,1,-5
2047,-8,-20,999,-15,0,-5
2048,-9,-19,999,-17,0,-7
2049,-7,-21,999,-17,0,-5
2050,-8,-21,999,-15,1,-5
2051,-8,-22,997,-16,0,-4
2052,-6,-21,1000,-16,1,-5
2053,-8,-19,999,-16,1,-6
2054,-9,-21,998,-15,1,-5
2055,-7,-21,998,-17,1,-6
2056,-6,-20,1000,-16,1,-5
2057,-7,-19,1000,-16,1,-6
2058,-7,-21,998,-17,1,-6
2059,-8,-20,999,-16,1,-5
2060,-8,-20,998,-16,1,-6
2061,-7,-20,999,-17,0,-5
2062,-7,-21,998,-16,1,-5
2063,-6,-22,1000,-17,1,-6
2064,-5,-21,1000,-16,0,-5
2065,-7,-20,1000,-16,0,-5
2066,-7,-21,998,-18,0,-5
2067,-6,-22,999,-16,0,-6
2068,-8,-21,999,-15,0,-5
2069,-8,-21,998,-17,0,-5
2070,-7,-21,999,-19,1,-5
2071,-7,-20,999,-18,0,-5
2072,-6,-21,999,-16,0,-4
2073,-8,-20,999,-16,0,-4
2074,-8,-21,999,-16,1,-6
2075,-8,-20,998,-16,2,-6
2076,-8,-20,1000,-16,1,-5
2077,-6,-21,999,-15,0,-5
2078,-9,-19,998,-17,0,-5
2079,-7,-20,1001,-16,-1,-5
2080,-7,-21,999,-16,1,-5
2081,-9,-21,1000,-17,1,-5
2082,-7,-21,1000,-17,0,-6
2083,-7,-22,999,-16,0,-5
2084,-6,-21,999,-18,1,-4
2085,-8,-20,999,-17,1,-5
2086,-8,-20,1000,-16,1,-5
2087,-8,-20,999,-16,-1,-6
2088,-9,-20,1000,-16,0,-5
2089,-6,-19,998,-16,1,-5
2090,-7,-21,997,-17,1,-5
2091,-6,-19,999,-17,1,-5
2092,-6,-19,999,-17,1,-5
2093,-7,-22,1000,-16,1,-5
2094,-7,-21,1000,-16,0,-6
2095,-5,-21,999,-17,0,-5
2096,-6,-20,1000,-18,2,-4
2097,-6,-19,998,-16,1,-5
2098,-6,-20,1000,-16,-1,-6
2099,-7,-19,998,-17,0,-6
2100,-7,-19,999,-17,0,-6
2101,-7,-20,999,-16,0,-5
2102,-9,-18,1000,-17,0,-6
2103,-7,-19,999,-16,1,-6
2104,-8,-20,1000,-17,3,-5
2105,-9,-19,1000,-16,1,-6
2106,-8,-19,999,-16,0,-6
2107,-9,-19,1000,-17,0,-5
2108,-9,-18,999,-18,-2,-6
2109,-8,-20,999,-16,0,-5
2110,-8,-20,999,-16,2,-5
2111,-9,-20,999,-18,1,-4
2112,-7,-21,1000,-18,-1,-5
2113,-7,-21,999,-16,2,-5
2114,-6,-20,999,-16,1,-7
2115,-7,-19,1000,-15,1,-6
2116,-6,-22,999,-17,1,-5
2117,-8,-21,999,-17,2,-5
2118,-8,-21,998,-17,1,-4
2119,-9,-21,1000,-17,1,-4
2120,-7,-22,1000,-16,0,-5
2121,-7,-21,1000,-15,1,-5
2122,-7,-20,1000,-17,0,-5
2123,-8,-20,999,-15,1,-3
2124,-6,-20,999,-16,0,-6
2125,-7,-20,998,-16,0,-5
2126,-5,-21,999,-16,1,-5
2127,-5,-22,999,-18,1,-5
2128,-7,-22,1000,-15,0,-6
2129,-7,-22,999,-15,1,-5
2130,-7,-20,999,-15,1,-6
2131,-8,-21,999,-15,1,-4
2132,-8,-21,999,-16,2,-5
2133,-7,-20,999,-16,0,-6
2134,-6,-22,998,-15,-1,-6
2135,-8,-18,1000,-16,2,-6
2136,-7,-20,999,-17,1,-5
2137,-7,-20,998,-15,1,-5
2138,-8,-20,998,-17,1,-5
2139,-8,-22,999,-16,-1,-5
2140,-9,-20,999,-17,-1,-6
2141,-8,-21,999,-15,1,-5
2142,-7,-21,998,-16,2,-4
2143,-8,-19,1000,-15,0,-5
2144,-8,-20,999,-18,0,-4
2145,-9,-21,1000,-16,2,-6
2146,-9,-19,1001,-16,1,-5
2147,-7,-20,997,-15,1,-6
2148,-7,-20,1001,-15,1,-6
2149,-9,-20,999,-16,1,-5
2150,-7,-18,1000,-17,0,-6
2151,-8,-19,998,-17,-1,-6
2152,-8,-20,998,-16,-1,-6
2153,-9,-19,999,-17,-1,-5
2154,-9,-20,999,-17,0,-5
2155,-9,-20,998,-16,1,-5
2156,-7,-21,1000,-17,1,-6
2157,-7,-20,999,-16,1,-4
2158,-7,-19,997,-17,1,-6
2159,-6,-19,999,-16,0,-7
2160,-7,-19,998,-16,1,-6
2161,-8,-20,998,-17,1,-5
2162,-6,-20,998,-17,0,-5
2163,-6,-20,1000,-16,0,-5
2164,-8,-20,1000,-17,0,-5
2165,-9,-19,1000,-16,-1,-5
2166,-6,-19,999,-15,0,-5
2167,-9,-20,1000,-16,1,-6
2168,-6,-20,999,-16,1,-4
2169,-7,-21,1000,-17,1,-5
2170,-6,-21,1000,-17,1,-5
2171,-6,-20,1001,-17,1,-6
2172,-5,-22,1000,-15,0,-6
2173,-6,-22,1002,-15,1,-6
2174,-6,-21,999,-16,1,-5
2175,-7,-21,999,-15,1,-5
2176,-5,-22,998,-17,1,-5
2177,-8,-21,999,-17,2,-5
2178,-6,-22,1000,-17,0,-5
2179,-4,-19,998,-17,1,-4
2180,-8,-21,998,-17,1,-5
2181,-7,-21,999,-14,1,-4
2182,-6,-21,1000,-17,1,-5
2183,-8,-20,1000,-17,1,-5
2184,-7,-20,998,-15,2,-5
2185,-7,-18,1000,-16,1,-5
2186,-8,-20,1000,-16,1,-5
2187,-8,-21,999,-17,1,-5
2188,-9,-19,999,-17,-1,-6
2189,-9,-20,1000,-15,1,-5
2190,-8,-19,1002,-15,1,-5
2191,-9,-18,1001,-16,1,-5
2192,-8,-18,999,-14,1,-6
2193,-8,-20,999,-16,2,-4
2194,-8,-19,999,-16,1,-5
2195,-8,-18,999,-17,0,-7
2196,-7,-19,1000,-17,1,-6
2197,-7,-19,999,-17,1,-6
2198,-8,-18,999,-16,1,-6
2199,-8,-19,999,-16,0,-7
2200,-9,-20,999,-17,0,-5
2201,-8,-20,999,-17,1,-7
2202,-7,-22,999,-16,1,-5
2203,-7,-21,998,-17,0,-5
2204,-7,-21,999,-16,1,-5
2205,-7,-20,999,-16,2,-6
2206,-8,-20,999,-16,1,-6
2207,-7,-21,998,-16,2,-5
2208,-8,-19,998,-17,1,-5
2209,-8,-20,1000,-16,0,-6
2210,-7,-23,999,-16,1,-6
2211,-7,-20,998,-15,1,-5
2212,-8,-21,999,-15,1,-4
2213,-8,-21,999,-16,1,-5
2214,-6,-21,999,-16,0,-7
2215,-7,-19,999,-16,1,-5
2216,-6,-20,999,-16,0,-6
2217,-6,-21,999,-16,1,-6
2218,-6,-21,999,-14,1,-5
2219,-9,-21,1001,-15,0,-6
2220,-6,-21,999,-14,0,-5
2221,-6,-20,997,-14,0,-7
2222,-6,-20,998,-17,0,-5
2223,-7,-21,1001,-17,1,-5
2224,-7,-21,999,-17,1,-5
2225,-8,-22,1000,-17,0,-6
2226,-7,-19,1000,-17,0,-6
2227,-7,-21,999,-16,-1,-5
2228,-5,-20,999,-17,1,-5
2229,-7,-20,999,-16,2,-6
2230,-7,-20,999,-15,0,-5
2231,-6,-18,998,-16,1,-6
2232,-6,-21,999,-17,0,-4
2233,-8,-19,999,-17,1,-6
2234,-8,-20,1001,-16,1,-6
2235,-9,-20,1000,-18,1,-6
2236,-6,-21,999,-17,0,-6
2237,-7,-22,999,-16,1,-5
2238,-6,-20,1000,-16,1,-4
2239,-8,-20,999,-16,1,-6
2240,-8,-19,999,-18,1,-6
2241,-9,-20,999,-16,1,-6
2242,-7,-20,1000,-16,0,-4
2243,-7,-19,999,-17,0,-5
2244,-7,-21,999,-17,0,-5
2245,-6,-20,999,-15,0,-5
2246,-6,-20,998,-18,2,-6
2247,-8,-21,999,-17,-1,-5
2248,-6,-20,1000,-17,0,-4
2249,-7,-20,1000,-16,1,-6
2250,-9,-21,1000,-17,0,-5
2251,-9,-20,999,-16,0,-6
2252,-6,-20,1000,-17,0,-5
2253,-7,-19,998,-16,0,-6
2254,-7,-22,998,-17,0,-5
2255,-7,-19,1000,-17,1,-5
2256,-5,-22,1000,-16,-1,-5
2257,-6,-22,999,-16,0,-5
2258,-9,-22,998,-16,1,-5
2259,-7,-20,999,-16,0,-6
2260,-4,-22,1000,-16,0,-6
2261,-6,-21,999,-17,2,-6
2262,-6,-20,999,-16,1,-5
2263,-8,-20,1000,-15,1,-6
2264,-8,-22,1001,-16,1,-6
2265,-7,-21,1000,-17,0,-5
2266,-7,-21,998,-15,0,-4
2267,-7,-20,1000,-18,2,-4
2268,-7,-21,1000,-17,-1,-5
2269,-6,-21,1000,-17,-1,-6
2270,-5,-21,1000,-17,0,-6
2271,-6,-19,998,-17,1,-5
2272,-9,-21,999,-16,1,-4
2273,-7,-20,999,-16,0,-5
2274,-8,-20,999,-15,1,-6
2275,-8,-20,999,-17,0,-6
2276,-8,-21,999,-17,1,-5
2277,-9,-21,998,-16,1,-5
2278,-8,-19,999,-16,0,-5
2279,-7,-21,1000,-16,1,-5
2280,-8,-21,999,-16,2,-7
2281,-8,-20,998,-15,2,-6
2282,-8,-19,998,-17,0,-5
2283,-7,-20,1000,-15,0,-6
2284,-9,-21,998,-16,1,-6
2285,-8,-20,1001,-15,1,-6
2286,-8,-20,1000,-16,2,-5
2287,-8,-22,1000,-18,1,-5
2288,-7,-19,1000,-17,1,-5
2289,-9,-20,999,-17,1,-5
2290,-9,-21,1000,-15,0,-6
2291,-8,-20,998,-16,0,-5
2292,-6,-18,1000,-16,1,-6
2293,-9,-18,998,-18,2,-5
2294,-8,-20,1000,-17,2,-5
2295,-8,-20,999,-16,-1,-6
2296,-7,-19,1000,-17,0,-6
2297,-8,-20,1000,-17,-1,-5
2298,-9,-21,999,-17,-1,-5
2299,-9,-20,1000,-16,0,-5
2300,-8,-21,1001,-15,1,-5
2301,-8,-20,999,-17,-1,-4
2302,-7,-20,999,-16,0,-5
2303,-8,-20,998,-17,0,-5
2304,-8,-20,999,-15,0,-5
2305,-7,-21,999,-16,1,-5
2306,-8,-21,1000,-16,1,-5
2307,-9,-20,999,-17,0,-5
2308,-7,-21,998,-18,0,-5
2309,-8,-18,999,-17,0,-5
2310,-8,-20,999,-15,-1,-5
2311,-8,-20,1000,-16,1,-5
2312,-7,-21,999,-17,0,-5
2313,-6,-21,1000,-16,1,-5
2314,-8,-21,998,-17,-1,-6
2315,-7,-20,999,-17,0,-6
2316,-7,-20,1000,-17,2,-5
2317,-7,-22,998,-16,0,-5
2318,-5,-19,998,-15,0,-5
2319,-8,-21,1001,-16,0,-6
2320,-6,-20,998,-16,0,-6
2321,-8,-19,998,-16,0,-5
2322,-6,-20,1000,-17,0,-6
2323,-6,-21,998,-16,0,-6
2324,-7,-22,1000,-18,2,-6
2325,-7,-23,999,-16,1,-5
2326,-7,-21,999,-15,0,-6
2327,-7,-21,998,-17,0,-5
2328,-8,-20,1000,-17,0,-5
2329,-7,-20,999,-16,0,-5
2330,-8,-20,999,-16,1,-5
2331,-9,-21,999,-17,2,-5
2332,-9,-19,999,-15,1,-5
2333,-7,-20,999,-17,1,-5
2334,-7,-19,1000,-17,0,-5
2335,-8,-20,1000,-17,1,-6
2336,-8,-20,999,-16,1,-5
2337,-8,-21,999,-16,0,-6
2338,-7,-20,1000,-16,1,-7
2339,-7,-19,999,-14,-1,-6
2340,-8,-20,1000,-14,-1,-6
2341,-8,-20,999,-18,1,-4
2342,-9,-21,1000,-17,0,-5
2343,-9,-21,1000,-15,1,-5
2344,-7,-21,1001,-16,1,-6
2345,-8,-19,999,-15,1,-6
2346,-7,-21,1000,-16,0,-5
2347,-7,-21,1000,-17,0,-5
2348,-8,-20,999,-16,1,-6
2349,-8,-20,1000,-16,0,-4
2350,-5,-19,1000,-17,0,-6
2351,-7,-21,999,-16,0,-7
2352,-8,-22,998,-15,0,-6
2353,-7,-20,999,-17,0,-5
2354,-8,-21,1000,-16,1,-6
2355,-8,-20,998,-16,1,-6
2356,-8,-20,999,-17,0,-6
2357,-9,-22,1000,-15,0,-6
2358,-8,-21,999,-16,1,-6
2359,-6,-21,998,-15,1,-6
2360,-7,-20,999,-17,1,-5
2361,-6,-20,1000,-17,1,-5
2362,-7,-21,1000,-17,0,-6
2363,-7,-22,999,-16,0,-6
2364,-7,-21,998,-16,0,-6
2365,-8,-20,998,-18,-1,-6
2366,-6,-21,1001,-23,-1,-4
2367,-7,-19,1000,-16,2,-4
2368,-6,-19,998,-20,-1,-4
2369,-6,-19,999,-15,0,-6
2370,-7,-22,999,-15,0,-5
2371,-7,-22,999,-18,2,-6
2372,-5,-20,1000,-14,0,-5
2373,-7,-20,1000,-19,0,-5
2374,-7,-20,1001,-18,1,-5
2375,-8,-19,1000,-16,1,-5
2376,-7,-21,1000,-19,2,-5
2377,-7,-22,1000,-16,1,-6
2378,-5,-19,998,-16,1,-5
2379,-5,-19,999,-17,-1,-5
2380,-6,-20,998,-15,1,-5
2381,-6,-21,1000,-16,1,-5
2382,-6,-21,1000,-15,0,-6
2383,-7,-22,999,-15,1,-5
2384,-7,-21,1000,-16,2,-5
2385,-8,-21,999,-14,0,-5
2386,-7,-20,998,-17,-1,-6
2387,-8,-21,1000,-17,0,-5
2388,-9,-22,1000,-16,1,-6
2389,-9,-20,999,-17,2,-4
2390,-6,-21,999,-17,2,-4
2391,-8,-19,999,-17,0,-5
2392,-7,-20,999,-17,0,-5
2393,-7,-22,1001,-16,1,-6
2394,-7,-20,999,-15,1,-6
2395,-7,-19,999,-16,0,-6
2396,-11,-19,999,-17,0,-5
2397,-9,-19,1000,-17,0,-6
2398,-7,-21,1001,-16,0,-6
2399,-7,-21,999,-15,1,-5
2400,-9,-21,997,-16,1,-6
2401,-11,-19,998,-15,1,-4
2402,-8,-20,999,-15,2,-5
2403,-8,-20,1000,-17,1,-6
2404,-8,-18,1000,-16,0,-7
2405,-9,-22,999,-16,1,-5
2406,-7,-20,999,-18,1,-6
2407,-5,-19,1000,-17,1,-6
2408,-7,-20,998,-17,0,-6
2409,-7,-19,999,-17,0,-6
2410,-7,-20,1000,-17,0,-7
2411,-7,-21,999,-16,1,-5
2412,-9,-22,999,-16,-1,-6
2413,-8,-22,998,-17,0,-6
2414,-8,-20,998,-15,0,-5
2415,-7,-21,999,-16,0,-5
2416,-8,-21,1000,-17,0,-5
2417,-8,-21,999,-18,-1,-5
2418,-6,-21,1001,-17,1,-5
2419,-8,-22,998,-16,0,-5
2420,-7,-21,999,-16,1,-4
2421,-7,-20,999,-16,0,-4
2422,-8,-20,998,-16,1,-5
2423,-7,-22,1001,-15,1,-6
2424,-7,-21,999,-17,1,-5
2425,-8,-21,999,-16,2,-5
2426,-8,-22,1000,-15,1,-5
2427,-7,-22,999,-15,1,-6
2428,-10,-19,999,-15,1,-5
2429,-9,-20,1001,-16,1,-6
2430,-7,-20,999,-16,2,-7
2431,-8,-20,998,-16,0,-6
2432,-8,-20,998,-17,1,-5
2433,-7,-20,999,-16,1,-5
2434,-8,-19,1000,-16,0,-5
2435,-8,-21,1001,-15,0,-5
2436,-9,-21,1000,-14,1,-6
2437,-8,-20,1000,-16,0,-6
2438,-7,-21,999,-17,0,-4
2439,-6,-20,1000,-17,1,-6
2440,-9,-21,1000,-15,1,-4
2441,-7,-20,1000,-16,1,-5
2442,-8,-21,1000,-17,1,-6
2443,-9,-20,1001,-17,1,-6
2444,-8,-22,1001,-17,1,-6
2445,-6,-21,998,-16,0,-5
2446,-6,-21,1000,-17,-1,-6
2447,-8,-19,1000,-16,1,-6
2448,-6,-20,999,-17,2,-5
2449,-8,-22,999,-17,1,-5
2450,-7,-21,999,-15,1,-4
2451,-8,-21,999,-18,-1,-5
2452,-8,-21,1000,-17,0,-5
2453,-6,-20,999,-16,1,-5
2454,-6,-20,999,-16,1,-5
2455,-6,-21,999,-16,1,-5
2456,-7,-20,1000,-17,0,-5
2457,-7,-21,998,-16,0,-6
2458,-7,-20,999,-16,1,-5
2459,-7,-20,1001,-17,0,-5
2460,-7,-20,1000,-17,0,-5
2461,-7,-19,999,-15,1,-6
2462,-8,-20,1000,-16,1,-5
2463,-7,-20,999,-17,1,-5
2464,-9,-23,998,-17,0,-5
2465,-8,-19,999,-16,-1,-6
2466,-7,-21,1000,-17,0,-6
2467,-7,-19,999,-17,0,-4
2468,-8,-21,999,-16,0,-4
2469,-9,-21,999,-16,0,-6
2470,-7,-21,999,-17,0,-5
2471,-7,-20,999,-17,1,-5
2472,-7,-21,1000,-17,1,-5
2473,-8,-20,998,-17,1,-5
2474,-7,-20,1000,-14,1,-6
2475,-7,-20,999,-16,0,-6
2476,-6,-21,998,-17,2,-5
2477,-8,-21,1000,-16,1,-6
2478,-9,-21,999,-16,0,-4
2479,-6,-21,999,-14,1,-5
2480,-7,-21,999,-14,1,-5
2481,-7,-20,1000,-15,0,-6
2482,-8,-20,1000,-15,1,-6
2483,-7,-20,1000,-15,1,-5
2484,-9,-22,999,-15,2,-5
2485,-8,-20,1000,-17,1,-5
2486,-8,-21,1000,-18,-1,-6
2487,-7,-20,1000,-16,-1,-5
2488,-9,-21,1000,-17,0,-5
2489,-7,-21,999,-18,1,-5
2490,-9,-20,1000,-18,1,-4
2491,-7,-19,998,-17,1,-5
2492,-7,-21,999,-17,0,-5
2493,-8,-20,998,-16,1,-5
2494,-7,-20,998,-15,2,-4
2495,-7,-20,1000,-16,1,-5
2496,-8,-20,1000,-15,1,-7
2497,-8,-20,999,-16,1,-5
2498,-8,-21,999,-17,1,-5
2499,-7,-19,998,-17,1,-5
2500,-8,-20,997,-16,0,-5
2501,-8,-21,999,-17,0,-5
2502,-7,-21,998,-16,1,-5
2503,-7,-21,1000,-18,0,-5
2504,-9,-21,998,-17,1,-5
2505,-5,-20,999,-17,1,-6
2506,-8,-20,997,-16,0,-6
2507,-7,-21,1001,-16,1,-5
2508,-9,-20,999,-17,0,-4
2509,-9,-20,999,-15,1,-4
2510,-7,-22,998,-17,0,-4
2511,-7,-21,1000,-17,1,-5
2512,-8,-21,999,-15,1,-5
2513,-7,-20,998,-16,2,-5
2514,-7,-19,1000,-16,1,-6
2515,-7,-20,998,-15,1,-5
2516,-8,-19,1001,-16,1,-5
2517,-6,-20,1002,-16,1,-5
2518,-6,-19,998,-17,1,-6
2519,-7,-21,1000,-16,1,-5
2520,-8,-20,999,-15,0,-7
2521,-9,-20,998,-14,1,-6
2522,-8,-19,1000,-16,1,-6
2523,-7,-18,999,-16,2,-6
2524,-7,-20,999,-15,0,-6
2525,-8,-20,999,-16,2,-6
2526,-8,-21,999,-16,1,-6
2527,-8,-21,1000,-17,0,-5
2528,-9,-23,997,-16,0,-5
2529,-6,-22,998,-16,0,-6
2530,-9,-21,999,-17,0,-6
2531,-8,-20,998,-17,0,-5
2532,-8,-21,999,-17,1,-5
2533,-8,-21,1001,-17,2,-5
2534,-7,-21,999,-17,1,-5
2535,-9,-19,1000,-17,0,-5
2536,-8,-21,999,-17,1,-6
2537,-9,-18,999,-17,1,-6
2538,-7,-19,1001,-16,0,-5
2539,-8,-20,1001,-15,0,-4
2540,-7,-21,1000,-16,1,-5
2541,-6,-20,999,-18,0,-5
2542,-6,-19,999,-14,0,-6
2543,-9,-18,999,-17,1,-5
2544,-6,-19,1000,-15,-1,-5
2545,-7,-20,1000,-16,0,-6
2546,-7,-20,999,-17,0,-7
2547,-6,-20,999,-16,1,-5
2548,-8,-21,999,-17,0,-5
2549,-7,-22,1000,-16,2,-6
2550,-8,-20,1000,-17,-1,-5
2551,-8,-20,1000,-16,0,-6
2552,-7,-21,999,-16,1,-6
2553,-8,-19,1000,-17,1,-5
2554,-8,-22,998,-17,0,-5
2555,-7,-21,999,-16,0,-4
2556,-9,-22,999,-15,0,-5
2557,-9,-21,1000,-15,0,-4
2558,-6,-19,998,-15,1,-4
2559,-8,-20,998,-16,0,-5
2560,-7,-20,1000,-16,0,-6
2561,-6,-21,1000,-16,1,-5
2562,-7,-20,1000,-16,0,-6
2563,-8,-20,1000,-16,-1,-5
2564,-7,-21,999,-17,1,-5
2565,-8,-21,999,-17,0,-5
2566,-5,-20,1001,-17,0,-6
2567,-8,-21,1000,-15,0,-6
2568,-7,-20,998,-16,-1,-5
2569,-8,-20,1000,-16,0,-5
2570,-8,-21,998,-15,0,-6
2571,-7,-20,999,-15,0,-6
2572,-7,-21,1001,-16,0,-4
2573,-9,-20,999,-15,0,-4
2574,-7,-22,998,-16,1,-5
2575,-8,-22,999,-16,0,-6
2576,-8,-20,997,-17,-1,-5
2577,-8,-19,1000,-16,0,-6
2578,-8,-22,1000,-14,1,-6
2579,-8,-20,999,-16,0,-6
2580,-7,-19,1000,-16,2,-5
2581,-10,-19,999,-15,2,-5
2582,-9,-20,998,-16,0,-6
2583,-9,-21,998,-17,1,-6
2584,-8,-20,998,-17,0,-5
2585,-8,-20,1000,-17,-1,-5
2586,-7,-19,999,-17,0,-5
2587,-7,-20,1000,-17,0,-4
2588,-8,-21,999,-16,0,-6
2589,-7,-20,1000,-17,0,-5
2590,-7,-21,1001,-16,0,-5
2591,-7,-21,999,-16,0,-6
2592,-8,-19,999,-15,-1,-5
2593,-7,-20,998,-16,0,-5
2594,-7,-21,1000,-16,1,-6
2595,-7,-21,999,-16,1,-5
2596,-9,-18,1000,-18,1,-5
2597,-8,-20,1000,-17,1,-5
2598,-6,-19,998,-16,0,-6
2599,-6,-21,998,-18,0,-6
2600,-6,-20,999,-15,0,-6
2601,-5,-19,1000,-15,1,-6
2602,-5,-21,999,-16,1,-5
2603,-8,-21,998,-16,1,-5
2604,-7,-22,999,-16,1,-5
2605,-8,-20,998,-17,1,-5
2606,-6,-20,1000,-15,0,-6
2607,-9,-22,1000,-16,0,-6
2608,-6,-22,998,-17,0,-6
2609,-6,-22,998,-17,1,-6
2610,-7,-21,1000,-16,-1,-6
2611,-7,-23,999,-16,0,-5
2612,-8,-20,999,-17,0,-4
2613,-8,-19,999,-17,1,-6
2614,-6,-21,1000,-15,1,-6
2615,-7,-21,998,-18,1,-5
2616,-7,-22,1000,-16,1,-5
2617,-7,-20,999,-16,1,-6
2618,-8,-20,1000,-16,1,-6
2619,-8,-20,1000,-17,1,-6
2620,-8,-20,1001,-17,-1,-6
2621,-7,-19,999,-17,1,-5
2622,-8,-20,1000,-15,1,-5
2623,-7,-21,999,-16,2,-5
2624,-7,-20,999,-18,1,-5
2625,-7,-20,999,-16,1,-5
2626,-7,-22,1001,-17,1,-6
2627,-8,-19,999,-17,1,-5
2628,-7,-21,1000,-16,-1,-6
2629,-9,-19,1000,-15,-1,-6
2630,-7,-20,999,-16,0,-6
2631,-8,-20,997,-16,0,-5
2632,-6,-20,998,-17,0,-6
2633,-5,-21,998,-17,0,-5
2634,-6,-21,998,-16,2,-5
2635,-6,-21,1000,-16,1,-5
2636,-7,-20,1000,-17,0,-4
2637,-8,-20,1001,-16,0,-6
2638,-5,-20,997,-17,1,-5
2639,-7,-21,999,-16,1,-5
2640,-7,-21,999,-17,0,-6
2641,-7,-18,999,-17,0,-6
2642,-8,-20,998,-16,1,-6
2643,-8,-21,999,-17,1,-5
2644,-8,-21,1000,-18,-1,-4
2645,-8,-20,998,-16,-1,-5
2646,-8,-20,998,-15,0,-5
2647,-6,-20,1000,-16,1,-4
2648,-7,-20,998,-17,0,-4
2649,-6,-22,997,-17,0,-5
2650,-7,-20,1000,-16,1,-7
2651,-7,-21,999,-17,1,-6
2652,-8,-21,999,-17,2,-5
2653,-6,-20,998,-17,0,-6
2654,-8,-20,999,-17,0,-5
2655,-7,-20,999,-17,1,-6
2656,-6,-21,999,-17,1,-5
2657,-6,-20,1000,-17,1,-4
2658,-8,-22,998,-16,2,-5
2659,-7,-20,999,-18,2,-5
2660,-7,-21,1000,-16,0,-5
2661,-6,-21,999,-15,1,-5
2662,-8,-19,999,-16,0,-6
2663,-7,-19,999,-16,0,-5
2664,-8,-20,1000,-15,1,-6
2665,-9,-22,999,-16,2,-7
2666,-9,-22,1001,-16,0,-6
2667,-11,-21,999,-16,0,-6
2668,-7,-21,999,-15,0,-7
2669,-7,-20,1001,-15,1,-5
2670,-6,-19,999,-17,0,-5
2671,-8,-20,999,-17,2,-5
2672,-8,-20,1000,-17,1,-5
2673,-8,-21,1000,-17,0,-6
2674,-9,-20,999,-18,1,-5
2675,-8,-20,1000,-16,1,-4
2676,-7,-19,1000,-16,1,-5
2677,-8,-21,999,-16,1,-6
2678,-8,-22,1000,-16,1,-6
2679,-8,-20,998,-17,1,-6
2680,-7,-19,999,-16,0,-6
2681,-5,-19,998,-17,0,-5
2682,-7,-21,998,-15,1,-4
2683,-9,-21,999,-16,1,-5
2684,-8,-20,999,-16,0,-6
2685,-9,-21,999,-17,0,-5
2686,-8,-22,1000,-17,1,-6
2687,-8,-22,999,-18,1,-5
2688,-9,-20,999,-16,0,-4
2689,-7,-20,999,-16,1,-5
2690,-7,-19,998,-17,1,-5
2691,-8,-21,1000,-15,0,-6
2692,-7,-20,999,-15,2,-5
2693,-8,-20,999,-16,1,-6
2694,-7,-20,999,-17,0,-6
2695,-5,-19,997,-15,1,-6
2696,-6,-22,997,-15,0,-6
2697,-6,-22,999,-15,0,-5
2698,-6,-21,999,-16,-1,-5
2699,-8,-20,1000,-18,1,-5
2700,-7,-21,1000,-15,1,-5
2701,-7,-20,998,-17,2,-5
2702,-7,-20,999,-16,1,-6
2703,-8,-20,999,-16,1,-6
2704,-9,-22,999,-13,2,-6
2705,-8,-20,999,-14,-4,-8
2706,-7,-19,1000,-20,-1,-5
2707,-7,-20,999,-17,1,-4
2708,-6,-19,1000,-17,0,-5
2709,-8,-21,1000,-14,2,-6
2710,-7,-20,1000,-18,0,-5
2711,-9,-20,999,-16,0,-5
2712,-8,-21,998,-15,1,-6
2713,-6,-20,999,-18,0,-4
2714,-8,-20,998,-16,1,-5
2715,-7,-21,999,-16,0,-5
2716,-9,-21,998,-16,1,-5
2717,-6,-20,998,-15,0,-6
2718,-7,-20,998,-16,-1,-5
2719,-8,-20,1000,-15,0,-4
2720,-7,-21,999,-15,0,-4
2721,-6,-20,998,-16,1,-7
2722,-7,-19,999,-17,1,-6
2723,-8,-20,998,-15,0,-6
2724,-9,-20,1000,-17,0,-6
2725,-8,-19,1000,-16,0,-6
2726,-7,-20,998,-16,0,-5
2727,-7,-20,997,-17,1,-5
2728,-7,-22,999,-16,1,-5
2729,-6,-21,1000,-17,2,-5
2730,-7,-22,1000,-17,1,-6
2731,-8,-21,1000,-16,1,-5
2732,-9,-22,1000,-16,1,-4
2733,-6,-20,1000,-17,1,-4
2734,-6,-21,1000,-17,-1,-5
2735,-6,-20,1001,-17,0,-4
2736,-7,-18,999,-17,0,-4
2737,-8,-20,999,-17,0,-5
2738,-8,-22,998,-16,1,-5
2739,-6,-21,1000,-17,0,-6
2740,-6,-22,998,-16,0,-5
2741,-7,-20,999,-15,-1,-7
2742,-6,-21,1000,-18,1,-5
2743,-8,-22,1000,-15,1,-6
2744,-8,-19,1000,-16,0,-5
2745,-8,-19,998,-17,0,-5
2746,-8,-19,1000,-17,-1,-6
2747,-8,-18,1001,-17,0,-6
2748,-6,-20,1000,-18,0,-6
2749,-7,-19,999,-15,1,-6
2750,-7,-19,1000,-17,0,-5
2751,-7,-20,998,-16,1,-5
2752,-9,-20,1000,-16,2,-6
2753,-6,-22,1001,-16,1,-5
2754,-6,-21,1000,-17,2,-5
2755,-7,-20,999,-17,1,-5
2756,-8,-20,999,-16,0,-5
2757,-8,-22,997,-16,0,-5
2758,-6,-21,998,-16,0,-5
2759,-7,-19,999,-15,0,-4
2760,-6,-21,999,-17,1,-4
2761,-9,-22,999,-15,1,-4
2762,-8,-21,999,-16,1,-3
2763,-7,-20,1001,-17,0,-5
2764,-6,-21,999,-16,1,-7
2765,-8,-20,1000,-16,0,-6
2766,-9,-19,1000,-16,0,-5
2767,-8,-20,1000,-18,1,-5
2768,-8,-19,1000,-16,1,-6
2769,-7,-20,1000,-16,1,-6
2770,-8,-21,1001,-15,1,-5
2771,-6,-21,998,-15,1,-5
2772,-7,-21,999,-17,0,-5
2773,-8,-19,999,-16,0,-4
2774,-8,-20,999,-16,1,-4
2775,-6,-21,1001,-16,0,-5
2776,-7,-19,999,-16,1,-5
2777,-7,-20,1000,-15,0,-5
2778,-8,-20,999,-15,2,-5
2779,-6,-20,999,-17,1,-5
2780,-9,-21,999,-16,0,-5
2781,-6,-20,1000,-15,0,-6
2782,-8,-19,1000,-16,0,-6
2783,-7,-20,998,-16,1,-5
2784,-8,-20,999,-17,0,-6
2785,-9,-19,1000,-15,-1,-7
2786,-8,-20,1000,-17,1,-5
2787,-7,-22,1000,-17,1,-6
2788,-7,-20,1000,-15,0,-7
2789,-8,-21,999,-16,0,-5
2790,-6,-21,999,-15,-1,-5
2791,-5,-20,1000,-14,0,-5
2792,-7,-19,1000,-16,0,-6
2793,-8,-19,998,-15,2,-6
2794,-8,-22,997,-16,1,-5
2795,-7,-20,999,-15,1,-6
2796,-7,-18,999,-17,1,-5
2797,-7,-20,1001,-16,0,-6
2798,-7,-20,1000,-17,1,-6
2799,-8,-22,998,-17,1,-5
2800,-5,-20,999,-17,0,-6
2801,-5,-21,998,-17,0,-6
2802,-7,-19,998,-16,1,-6
2803,-5,-20,1000,-16,1,-5
2804,-9,-21,999,-15,1,-5
2805,-9,-20,1000,-17,0,-5
2806,-8,-20,999,-19,0,-5
2807,-8,-20,1000,-17,2,-5
2808,-6,-22,999,-18,1,-4
2809,-7,-20,1000,-16,1,-4
2810,-4,-21,997,-16,1,-4
2811,-7,-20,999,-15,0,-5
2812,-7,-20,999,-15,1,-6
2813,-8,-19,1000,-16,1,-6
2814,-8,-20,1000,-15,0,-5
2815,-9,-19,1000,-16,1,-5
2816,-6,-21,999,-16,1,-5
2817,-7,-18,999,-16,1,-5
2818,-7,-21,999,-15,1,-4
2819,-8,-20,999,-16,1,-4
2820,-8,-20,999,-17,-1,-5
2821,-9,-19,1000,-16,1,-5
2822,-8,-20,1002,-17,1,-6
2823,-8,-19,999,-16,1,-5
2824,-7,-19,999,-17,0,-5
2825,-7,-20,999,-16,1,-6
2826,-7,-20,999,-15,1,-5
2827,-9,-21,1000,-17,0,-5
2828,-8,-20,999,-16,1,-5
2829,-8,-20,999,-16,1,-6
2830,-5,-20,999,-16,1,-6
2831,-6,-20,1000,-17,0,-5
2832,-7,-20,1000,-18,1,-5
2833,-7,-21,999,-16,1,-5
2834,-7,-20,999,-16,1,-6
2835,-5,-20,999,-18,0,-5
2836,-5,-22,999,-16,0,-5
2837,-7,-22,998,-16,1,-5
2838,-7,-22,998,-14,0,-6
2839,-6,-21,999,-16,1,-5
2840,-6,-21,999,-16,1,-5
2841,-6,-21,999,-17,1,-4
2842,-7,-21,1000,-16,1,-6
2843,-7,-19,999,-16,0,-5
2844,-6,-21,998,-15,1,-4
2845,-9,-21,999,-17,2,-5
2846,-8,-21,1001,-16,1,-6
2847,-10,-21,999,-16,0,-5
2848,-8,-20,1001,-16,0,-5
2849,-7,-20,999,-15,0,-6
2850,-6,-20,999,-18,-1,-5
2851,-7,-19,1000,-16,1,-5
2852,-8,-20,997,-17,2,-5
2853,-7,-19,1000,-16,2,-5
2854,-7,-21,998,-16,0,-4
2855,-7,-21,1001,-16,1,-5
2856,-7,-21,1000,-17,1,-5
2857,-8,-20,999,-17,2,-4
2858,-8,-18,998,-17,2,-4
2859,-5,-18,1001,-16,1,-4
2860,-8,-19,998,-15,1,-5
2861,-8,-21,999,-15,0,-4
2862,-7,-22,1000,-15,2,-6
2863,-7,-22,999,-16,2,-5
2864,-5,-22,998,-16,2,-5
2865,-7,-21,1000,-16,1,-6
2866,-7,-21,1000,-17,1,-5
2867,-8,-20,1000,-17,0,-7
2868,-7,-19,1000,-16,1,-6
2869,-6,-22,999,-16,-1,-5
2870,-6,-20,1000,-17,0,-5
2871,-7,-21,1000,-15,1,-5
2872,-8,-22,998,-17,-1,-5
2873,-6,-20,998,-14,0,-5
2874,-8,-19,999,-16,0,-4
2875,-7,-19,999,-17,1,-5
2876,-8,-19,998,-17,2,-5
2877,-7,-20,1000,-16,2,-5
2878,-7,-20,998,-15,1,-5
2879,-8,-22,998,-16,2,-5
2880,-8,-22,999,-18,1,-4
2881,-7,-22,999,-16,2,-5
2882,-8,-20,1000,-17,1,-5
2883,-9,-18,1000,-16,1,-5
2884,-10,-17,1000,-14,1,-5
2885,-9,-20,1000,-15,1,-5
2886,-9,-20,1000,-16,0,-4
2887,-8,-21,1000,-17,1,-5
2888,-7,-21,999,-16,1,-6
2889,-8,-20,998,-16,2,-5
2890,-9,-20,998,-15,1,-5
2891,-8,-20,998,-16,1,-6
2892,-8,-19,998,-15,1,-5
2893,-8,-21,999,-15,0,-5
2894,-7,-21,999,-16,0,-6
2895,-6,-21,999,-18,0,-5
2896,-6,-22,1000,-16,0,-5
2897,-7,-23,999,-16,0,-6
2898,-8,-19,1000,-17,0,-5
2899,-5,-20,1000,-16,-1,-6
2900,-7,-21,998,-17,-1,-5
2901,-8,-21,1000,-18,0,-6
2902,-6,-21,1000,-17,0,-6
2903,-6,-22,1000,-16,1,-4
2904,-6,-20,999,-16,1,-4
2905,-6,-20,999,-16,1,-5
2906,-6,-20,1000,-15,1,-6
2907,-5,-21,999,-18,1,-5
2908,-5,-21,999,-14,2,-6
2909,-6,-18,998,-14,1,-6
2910,-6,-22,998,-16,0,-5
2911,-7,-21,998,-16,1,-4
2912,-8,-21,999,-17,2,-5
2913,-7,-19,998,-18,1,-5
2914,-5,-21,998,-16,0,-5
2915,-8,-21,997,-17,0,-5
2916,-6,-22,999,-15,1,-6
2917,-7,-22,1000,-16,2,-6
2918,-8,-21,999,-17,0,-5
2919,-9,-19,998,-16,0,-6
2920,-10,-19,999,-17,1,-6
2921,-11,-18,999,-17,-1,-5
2922,-7,-21,998,-17,1,-4
2923,-7,-21,999,-16,1,-4
2924,-8,-21,999,-16,1,-5
2925,-8,-21,999,-17,1,-6
2926,-7,-19,1001,-18,1,-6
2927,-8,-19,1000,-16,0,-4
2928,-9,-20,999,-16,1,-4
2929,-6,-19,1000,-16,-1,-5
2930,-6,-22,1001,-16,0,-6
2931,-6,-22,1001,-16,1,-6
2932,-8,-20,999,-17,0,-5
2933,-7,-19,1000,-18,0,-4
2934,-7,-19,1000,-18,0,-5
2935,-6,-19,1000,-16,0,-5
2936,-9,-19,1000,-17,-1,-5
2937,-9,-20,998,-16,0,-4
2938,-8,-20,998,-17,0,-4
2939,-8,-24,999,-17,0,-5
2940,-6,-22,999,-17,-2,-5
2941,-6,-21,998,-16,0,-4
2942,-7,-20,999,-15,1,-5
2943,-6,-19,999,-17,1,-4
2944,-6,-20,1000,-16,1,-6
2945,-9,-19,997,-16,1,-6
2946,-9,-20,998,-16,0,-5
2947,-8,-22,1000,-18,1,-5
2948,-8,-20,1000,-18,1,-5
2949,-8,-18,999,-17,0,-5
2950,-6,-18,999,-16,0,-5
2951,-10,-19,1000,-16,2,-5
2952,-8,-20,1000,-15,0,-5
2953,-7,-19,998,-17,0,-5
2954,-7,-21,998,-17,1,-5
2955,-8,-20,998,-16,1,-5
2956,-8,-21,999,-15,0,-6
2957,-9,-21,999,-18,1,-5
2958,-8,-18,1001,-16,1,-6
2959,-8,-19,998,-16,-1,-6
2960,-8,-19,999,-17,0,-6
2961,-7,-20,999,-16,1,-5
2962,-8,-21,998,-17,1,-6
2963,-7,-21,998,-16,1,-6
2964,-9,-20,998,-17,0,-7
2965,-9,-21,998,-17,-1,-6
2966,-5,-20,999,-16,0,-6
2967,-6,-20,999,-16,1,-6
2968,-7,-21,998,-17,-1,-6
2969,-6,-22,999,-16,0,-6
2970,-6,-24,999,-17,1,-5
2971,-5,-22,998,-16,0,-6
2972,-6,-22,998,-17,1,-5
2973,-6,-21,1000,-15,1,-5
2974,-6,-19,999,-15,2,-5
2975,-7,-21,1001,-16,0,-5
2976,-8,-20,999,-16,1,-6
2977,-6,-22,1000,-16,2,-6
2978,-7,-21,1000,-16,1,-6
2979,-8,-18,999,-16,1,-7
2980,-8,-19,999,-17,2,-4
2981,-8,-19,1000,-15,1,-4
2982,-8,-18,1000,-17,0,-4
2983,-9,-21,999,-16,0,-5
2984,-8,-20,999,-18,1,-6
2985,-7,-23,998,-18,1,-5
2986,-7,-23,999,-17,1,-5
2987,-8,-22,1000,-15,2,-4
2988,-9,-20,999,-15,1,-4
2989,-8,-18,998,-16,0,-5
2990,-8,-18,999,-16,0,-5
2991,-7,-19,999,-17,0,-4
2992,-9,-20,999,-15,0,-5
2993,-9,-21,999,-16,-1,-6
2994,-8,-21,999,-16,0,-6
2995,-7,-21,999,-15,1,-4
2996,-7,-20,999,-17,1,-6
2997,-8,-18,1000,-16,1,-6
2998,-6,-19,1000,-16,0,-6
2999,-7,-21,999,-17,0,-6
3000,-5,-21,998,-16,1,-5
3001,-8,-23,999,-16,0,-5
3002,-6,-23,999,-16,1,-6
3003,-8,-19,1000,-17,1,-5
3004,-8,-20,999,-16,0,-6
3005,-7,-19,999,-17,1,-5
3006,-8,-20,999,-17,0,-6
3007,-7,-21,1000,-18,0,-6
3008,-6,-21,998,-17,0,-7
3009,-7,-22,1001,-16,2,-6
3010,-7,-22,998,-17,0,-6
3011,-5,-20,1000,-15,0,-6
3012,-7,-20,998,-14,0,-5
3013,-7,-20,998,-16,1,-5
3014,-8,-21,999,-16,1,-5
3015,-7,-22,998,-16,0,-6
3016,-8,-21,999,-16,-1,-6
3017,-6,-23,998,-15,1,-5
3018,-7,-23,998,-16,1,-5
3019,-9,-20,999,-17,1,-6
3020,-8,-20,1000,-16,1,-6
3021,-9,-20,999,-16,1,-6
3022,-6,-20,1000,-16,2,-7
3023,-8,-19,1000,-17,0,-5
3024,-9,-19,1000,-16,0,-6
3025,-9,-17,1000,-16,1,-6
3026,-8,-21,998,-15,0,-5
3027,-10,-19,1000,-16,0,-6
3028,-8,-21,998,-15,1,-7
3029,-6,-19,1000,-17,0,-6
3030,-7,-20,1000,-16,0,-6
3031,-8,-19,1001,-14,1,-6
3032,-8,-20,1000,-17,0,-6
3033,-6,-19,1001,-16,0,-6
3034,-7,-19,999,-16,0,-5
3035,-7,-21,999,-18,2,-4
3036,-7,-22,999,-16,1,-5
3037,-6,-20,1000,-17,2,-6
3038,-5,-22,1001,-14,1,-6
3039,-8,-22,1001,-20,-4,-7
3040,-8,-20,1001,-16,1,-5
3041,-7,-20,999,-17,0,-5
3042,-6,-21,1000,-15,0,-5
3043,-6,-20,999,-17,0,-5
3044,-6,-21,1000,-17,1,-7
3045,-6,-20,999,-15,1,-6
3046,-4,-23,998,-17,-1,-5
3047,-3,-21,1000,-16,0,-6
3048,-2,-22,999,-16,0,-5
3049,-4,-22,999,-16,1,-4
3050,-6,-23,998,-17,0,-6
3051,-7,-21,999,-15,0,-5
3052,-6,-22,998,-17,2,-4
3053,-5,-20,1000,-16,1,-6
3054,-4,-23,997,-16,0,-6
3055,-6,-21,1000,-17,-1,-4
3056,-7,-21,999,-16,1,-5
3057,-6,-20,1000,-16,0,-5
3058,-7,-21,999,-15,0,-5
3059,-7,-23,1001,-14,1,-6
3060,-6,-19,998,-17,1,-4
3061,-10,-20,999,-17,0,-4
3062,-9,-19,1000,-15,1,-5
3063,-7,-21,1000,-15,1,-5
3064,-8,-20,1000,-15,0,-6
3065,-8,-20,998,-17,1,-5
3066,-7,-19,1000,-16,1,-5
3067,-8,-20,998,-16,0,-4
3068,-8,-19,999,-16,2,-5
3069,-7,-20,998,-15,2,-5
3070,-8,-21,998,-14,0,-6
3071,-9,-20,1000,-16,0,-6
3072,-8,-19,998,-16,2,-4
3073,-9,-20,998,-16,1,-5
3074,-8,-19,997,-15,1,-6
3075,-7,-21,999,-15,1,-6
3076,-8,-21,998,-17,1,-6
3077,-8,-20,999,-17,2,-5
3078,-8,-20,999,-17,0,-6
3079,-10,-22,998,-16,1,-6
3080,-6,-20,1000,-15,1,-6
3081,-8,-22,999,-16,1,-6
3082,-7,-20,999,-16,2,-5
3083,-8,-20,1000,-16,1,-6
3084,-6,-20,998,-16,0,-5
3085,-7,-18,998,-16,0,-5
3086,-7,-19,999,-18,1,-5
3087,-8,-19,999,-16,-1,-5
3088,-7,-21,1000,-16,1,-5
3089,-6,-21,1000,-16,2,-5
3090,-8,-22,999,-16,0,-6
3091,-7,-21,997,-18,0,-5
3092,-8,-20,1000,-16,1,-4
3093,-6,-21,1001,-16,0,-6
3094,-7,-20,999,-15,2,-6
3095,-8,-19,997,-14,1,-5
3096,-6,-21,999,-16,0,-5
3097,-6,-20,999,-15,0,-6
3098,-8,-20,999,-15,0,-5
3099,-10,-22,1000,-17,2,-5
3100,-8,-21,999,-16,2,-5
3101,-9,-20,999,-16,2,-6
3102,-7,-19,999,-15,1,-5
3103,-8,-18,1000,-15,0,-4
3104,-7,-21,999,-16,0,-5
3105,-6,-19,999,-14,1,-6
3106,-7,-22,1000,-14,2,-6
3107,-8,-21,1000,-16,1,-6
3108,-7,-20,1000,-15,1,-6
3109,-5,-21,1000,-16,2,-6
3110,-5,-20,1001,-16,2,-5
3111,-6,-20,1000,-16,1,-6
3112,-6,-22,998,-16,1,-6
3113,-6,-22,998,-14,1,-6
3114,-7,-22,1001,-14,0,-5
3115,-5,-20,1000,-16,1,-5
3116,-6,-21,1000,-17,0,-5
3117,-6,-22,999,-14,0,-5
3118,-7,-22,998,-18,0,-5
3119,-8,-20,1002,-16,0,-6
3120,-8,-21,1000,-15,1,-5
3121,-6,-19,999,-16,0,-5
3122,-7,-20,1000,-17,1,-5
3123,-9,-19,999,-16,2,-5
3124,-8,-19,999,-17,0,-5
3125,-7,-21,998,-17,0,-5
3126,-7,-19,998,-16,0,-6
3127,-9,-20,999,-16,0,-6
3128,-7,-20,1000,-17,0,-5
3129,-8,-21,1000,-16,0,-6
3130,-9,-20,999,-17,0,-5
3131,-8,-19,999,-17,-1,-5
3132,-7,-19,998,-18,1,-4
3133,-7,-19,1000,-17,-1,-5
3134,-8,-20,999,-17,-1,-6
3135,-8,-19,999,-16,-1,-5
3136,-8,-20,999,-16,-1,-6
3137,-9,-20,998,-17,1,-5
3138,-7,-20,997,-19,1,-5
3139,-8,-19,999,-16,0,-6
3140,-9,-19,998,-16,0,-5
3141,-9,-18,998,-17,0,-4
3142,-7,-20,999,-16,0,-5
3143,-8,-22,999,-16,0,-5
3144,-10,-19,1000,-16,1,-5
3145,-8,-22,999,-17,1,-5
3146,-8,-22,999,-16,1,-6
3147,-7,-20,1000,-15,0,-6
3148,-9,-20,998,-15,-1,-5
3149,-9,-22,1000,-16,0,-6
3150,-7,-18,999,-17,2,-7
3151,-5,-21,999,-16,1,-5
3152,-5,-22,998,-15,1,-6
3153,-6,-19,999,-17,1,-7
3154,-6,-20,999,-18,0,-6
3155,-8,-20,999,-17,0,-4
3156,-6,-22,1000,-16,1,-5
3157,-8,-21,1000,-16,1,-6
3158,-5,-22,998,-17,1,-6
3159,-6,-22,998,-18,0,-5
3160,-6,-22,998,-16,1,-5
3161,-5,-20,999,-17,0,-5
3162,-5,-22,999,-17,1,-5
3163,-8,-21,1001,-17,0,-4
3164,-6,-21,999,-16,1,-5
3165,-9,-22,999,-17,0,-4
3166,-5,-20,998,-16,1,-6
3167,-7,-20,999,-16,1,-6
3168,-5,-20,1000,-17,0,-5
3169,-7,-22,1000,-17,1,-5
3170,-8,-22,999,-16,2,-5
3171,-9,-20,999,-16,1,-5
3172,-9,-21,999,-16,1,-5
3173,-8,-19,998,-15,-1,-5
3174,-7,-21,999,-15,0,-5
3175,-6,-20,999,-16,0,-4
3176,-9,-17,999,-15,0,-5
3177,-10,-19,1002,-15,2,-7
3178,-9,-20,999,-16,1,-5
3179,-9,-22,999,-16,1,-6
3180,-8,-20,1000,-17,1,-5
3181,-11,-18,1001,-17,0,-6
3182,-9,-19,1000,-18,0,-5
3183,-9,-19,1001,-17,0,-6
3184,-7,-20,1001,-17,0,-6
3185,-8,-18,1001,-17,0,-6
3186,-8,-19,1000,-17,0,-6
3187,-6,-20,999,-16,0,-5
3188,-5,-21,1000,-18,0,-5
3189,-7,-20,999,-14,0,-5
3190,-7,-22,999,-17,1,-6
3191,-5,-22,1000,-16,0,-6
3192,-5,-22,1000,-15,1,-6
3193,-8,-22,999,-17,-1,-6
3194,-6,-22,998,-16,-1,-5
3195,-6,-22,1000,-16,-1,-5
3196,-5,-21,999,-17,1,-6
3197,-6,-22,998,-16,1,-6
3198,-6,-21,998,-17,0,-6
3199,-6,-20,999,-18,1,-5
3200,-8,-20,998,-16,2,-5
3201,-8,-20,999,-18,1,-6
3202,-10,-20,998,-18,0,-6
3203,-8,-22,998,-16,2,-5
3204,-9,-21,1000,-15,1,-7
3205,-10,-20,999,-15,1,-6
3206,-8,-21,1000,-17,1,-5
3207,-9,-20,999,-15,0,-5
3208,-9,-18,998,-15,0,-6
3209,-10,-21,1000,-16,0,-6
3210,-9,-19,1000,-16,0,-6
3211,-8,-19,999,-17,1,-5
3212,-9,-19,999,-18,1,-5
3213,-6,-20,1000,-15,1,-6
3214,-6,-20,1000,-16,0,-6
3215,-6,-21,1000,-16,1,-5
3216,-8,-21,999,-15,1,-6
3217,-7,-19,999,-17,1,-5
3218,-7,-20,1001,-18,1,-6
3219,-8,-22,1000,-16,2,-4
3220,-6,-20,1000,-16,1,-5
3221,-6,-21,1001,-14,0,-7
3222,-7,-23,1001,-16,0,-6
3223,-8,-20,998,-15,1,-5
3224,-8,-19,1000,-15,1,-6
3225,-8,-19,998,-17,1,-6
3226,-7,-19,999,-16,2,-6
3227,-6,-20,1000,-16,1,-5
3228,-8,-20,1000,-16,1,-5
3229,-8,-22,1000,-17,1,-5
3230,-8,-19,1000,-16,0,-5
3231,-7,-20,1000,-17,0,-6
3232,-8,-22,999,-16,0,-6
3233,-5,-20,1000,-16,0,-5
3234,-8,-19,1000,-16,1,-6
3235,-8,-18,1000,-14,-1,-5
3236,-7,-19,1000,-17,0,-5
3237,-7,-20,1000,-16,1,-6
3238,-6,-19,1000,-16,0,-6
3239,-7,-18,999,-16,0,-6
3240,-7,-20,999,-15,1,-7
3241,-7,-19,998,-17,1,-5
3242,-5,-18,1000,-16,1,-7
3243,-6,-20,999,-15,0,-5
3244,-7,-22,1000,-17,0,-6
3245,-8,-22,1000,-18,0,-6
3246,-5,-20,999,-17,0,-6
3247,-6,-20,998,-17,0,-5
3248,-7,-20,999,-16,-1,-5
3249,-7,-21,999,-16,-1,-6
3250,-6,-20,999,-17,0,-5
3251,-7,-20,1000,-17,0,-6
3252,-9,-21,998,-16,0,-4
3253,-7,-19,999,-16,0,-6
3254,-8,-21,998,-15,0,-5
3255,-8,-20,999,-18,0,-6
3256,-8,-20,999,-17,0,-5
3257,-7,-20,998,-16,0,-5
3258,-7,-22,999,-17,-1,-6
3259,-6,-19,1000,-17,0,-6
3260,-7,-20,1000,-17,1,-6
3261,-7,-19,1000,-16,0,-5
3262,-8,-20,998,-16,1,-5
3263,-7,-22,999,-16,0,-5
3264,-9,-21,1001,-17,-1,-4
3265,-9,-19,999,-16,-1,-5
3266,-6,-23,999,-17,1,-5
3267,-8,-20,999,-16,1,-6
3268,-6,-20,999,-17,2,-5
3269,-8,-19,998,-16,1,-5
3270,-7,-19,997,-16,1,-5
3271,-7,-20,1000,-16,1,-5
3272,-8,-20,999,-16,2,-6
3273,-9,-21,999,-15,0,-5
3274,-6,-20,999,-15,1,-6
3275,-7,-20,997,-17,1,-5
3276,-7,-20,999,-17,0,-5
3277,-7,-19,999,-16,-1,-5
3278,-7,-18,1000,-16,0,-5
3279,-7,-19,1000,-15,0,-6
3280,-8,-20,998,-17,1,-5
3281,-7,-20,999,-16,0,-6
3282,-8,-21,998,-15,-1,-6
3283,-6,-20,999,-16,0,-5
3284,-7,-19,998,-16,1,-5
3285,-8,-21,1000,-17,0,-4
3286,-7,-22,999,-15,1,-6
3287,-7,-20,1000,-17,0,-6
3288,-8,-20,1000,-18,1,-6
3289,-8,-18,998,-17,2,-6
3290,-9,-21,999,-16,1,-6
3291,-8,-18,1000,-17,-1,-4
3292,-6,-19,999,-16,0,-6
3293,-8,-18,1000,-17,0,-5
3294,-7,-18,999,-16,1,-5
3295,-6,-20,1001,-17,1,-6
3296,-6,-19,999,-17,1,-5
3297,-6,-19,999,-16,0,-6
3298,-5,-19,999,-16,1,-6
3299,-7,-20,1000,-16,1,-6
3300,-7,-22,1000,-15,0,-6
3301,-8,-21,999,-16,2,-6
3302,-6,-19,999,-17,1,-4
3303,-6,-20,1000,-16,1,-5
3304,-7,-22,999,-18,1,-6
3305,-6,-20,999,-16,0,-5
3306,-6,-19,999,-16,1,-5
3307,-7,-20,998,-17,-1,-5
3308,-7,-19,999,-15,1,-6
3309,-6,-21,998,-16,0,-5
3310,-7,-21,999,-16,0,-5
3311,-7,-20,1000,-14,1,-6
3312,-8,-21,999,-16,-1,-5
3313,-7,-21,998,-16,1,-6
3314,-9,-20,998,-17,0,-6
3315,-8,-22,998,-18,0,-6
3316,-7,-20,999,-17,1,-5
3317,-7,-22,999,-16,1,-6
3318,-8,-18,997,-16,0,-4
3319,-7,-20,999,-17,0,-5
3320,-9,-21,999,-16,-1,-6
3321,-8,-21,999,-17,0,-6
3322,-8,-19,1000,-17,0,-5
3323,-8,-20,1000,-18,1,-5
3324,-7,-21,999,-16,1,-5
3325,-6,-21,1000,-18,0,-6
3326,-7,-20,999,-17,1,-5
3327,-8,-18,1000,-18,1,-4
3328,-7,-19,999,-16,1,-5
3329,-6,-21,998,-16,1,-6
3330,-6,-20,1000,-15,1,-6
3331,-6,-21,1000,-14,2,-5
3332,-5,-21,999,-17,0,-6
3333,-6,-21,1000,-17,2,-6
3334,-6,-20,1000,-15,3,-6
3335,-8,-21,998,-16,0,-6
3336,-8,-21,998,-15,1,-6
3337,-7,-20,999,-15,0,-6
3338,-7,-20,998,-17,0,-4
3339,-8,-19,1000,-16,2,-4
3340,-7,-21,1000,-17,0,-6
3341,-6,-23,998,-16,1,-5
3342,-7,-21,999,-16,0,-4
3343,-10,-21,1000,-16,1,-5
3344,-7,-22,999,-16,0,-6
3345,-8,-23,998,-17,1,-5
3346,-9,-19,1001,-16,-1,-5
3347,-8,-20,999,-16,2,-6
3348,-6,-20,998,-16,1,-5
3349,-5,-20,998,-15,1,-5
3350,-7,-19,1000,-15,0,-6
3351,-6,-21,999,-17,1,-6
3352,-8,-19,999,-16,2,-6
3353,-8,-21,1000,-17,0,-5
3354,-7,-20,1000,-17,0,-5
3355,-7,-20,999,-17,0,-4
3356,-8,-20,998,-15,1,-6
3357,-10,-21,999,-15,1,-4
3358,-8,-20,998,-16,0,-6
3359,-8,-21,998,-16,0,-5
3360,-5,-21,998,-16,1,-5
3361,-8,-21,998,-16,0,-5
3362,-6,-19,999,-16,0,-5
3363,-5,-20,998,-17,1,-5
3364,-6,-20,999,-17,1,-6
3365,-8,-22,1000,-16,1,-6
3366,-7,-19,998,-16,1,-6
3367,-7,-20,999,-17,1,-5
3368,-7,-21,999,-16,2,-5
3369,-8,-18,999,-17,2,-6
3370,-7,-19,999,-16,0,-6
3371,-8,-18,999,-17,0,-5
3372,-8,-18,1001,-17,1,-5
3373,-9,-19,999,-19,3,-4
3374,-4,-19,1000,-11,3,-5
3375,-6,-23,1000,-12,1,-6
3376,-8,-20,1000,-18,-1,-5
3377,-6,-20,999,-16,0,-5
3378,-7,-19,999,-15,0,-5
3379,-7,-20,1000,-18,0,-5
3380,-7,-21,1000,-14,1,-5
3381,-8,-20,1000,-16,0,-5
3382,-7,-21,998,-18,0,-6
3383,-6,-21,999,-15,0,-5
3384,-7,-20,999,-17,0,-6
3385,-9,-22,999,-16,0,-5
3386,-7,-21,998,-17,1,-6
3387,-6,-21,1000,-17,1,-6
3388,-7,-19,999,-16,1,-6
3389,-7,-21,999,-16,1,-6
3390,-8,-20,1001,-15,-1,-6
3391,-8,-21,1000,-16,0,-6
3392,-7,-20,998,-16,1,-4
3393,-8,-20,999,-16,1,-5
3394,-9,-19,998,-17,1,-6
3395,-9,-20,1000,-16,0,-6
3396,-8,-20,998,-16,0,-5
3397,-8,-21,998,-15,1,-5
3398,-6,-20,999,-17,1,-6
3399,-8,-19,1000,-17,-1,-5
3400,-8,-19,1000,-16,0,-5
3401,-6,-20,999,-16,0,-5
3402,-7,-21,997,-19,0,-6
3403,-7,-20,999,-18,0,-5
3404,-7,-21,999,-16,0,-5
3405,-8,-23,1000,-16,0,-4
3406,-8,-21,1000,-16,0,-6
3407,-6,-21,999,-16,-1,-5
3408,-5,-19,1000,-18,0,-5
3409,-7,-20,999,-16,0,-6
3410,-7,-20,999,-17,0,-5
3411,-9,-19,999,-16,0,-5
3412,-8,-18,999,-16,1,-6
3413,-8,-19,999,-18,1,-5
3414,-8,-19,998,-16,0,-6
3415,-9,-20,998,-17,0,-6
3416,-8,-19,999,-17,1,-4
3417,-8,-20,1001,-14,1,-5
3418,-6,-19,999,-17,0,-5
3419,-8,-21,999,-17,0,-6
3420,-10,-21,1000,-15,1,-4
3421,-8,-20,999,-17,1,-5
3422,-7,-19,999,-14,0,-5
3423,-9,-19,999,-14,0,-5
3424,-7,-21,998,-16,1,-5
3425,-9,-18,1000,-16,-1,-5
3426,-10,-20,1000,-16,0,-6
3427,-9,-20,1001,-16,0,-6
3428,-8,-22,999,-17,-1,-6
3429,-8,-21,998,-17,1,-6
3430,-10,-21,999,-16,-1,-5
3431,-8,-20,999,-16,0,-6
3432,-7,-20,999,-14,0,-5
3433,-7,-21,1000,-16,0,-6
3434,-6,-21,1000,-17,0,-6
3435,-6,-21,999,-17,0,-6
3436,-6,-21,1000,-16,0,-6
3437,-6,-22,1000,-16,0,-6
3438,-6,-22,1000,-17,1,-5
3439,-7,-21,999,-16,1,-6
3440,-8,-21,999,-15,1,-6
3441,-6,-21,999,-15,0,-6
3442,-7,-19,998,-16,-1,-5
3443,-7,-21,1000,-15,0,-6
3444,-8,-19,1001,-17,0,-6
3445,-7,-21,999,-16,0,-5
3446,-5,-20,1001,-16,0,-6
3447,-7,-21,999,-17,1,-5
3448,-7,-21,998,-15,0,-6
3449,-6,-21,1000,-17,2,-5
3450,-7,-20,999,-15,1,-6
3451,-6,-22,999,-15,-1,-5
3452,-7,-22,999,-17,1,-4
3453,-8,-21,999,-16,1,-5
3454,-6,-21,999,-16,0,-5
3455,-8,-20,1001,-17,1,-6
3456,-9,-19,1000,-17,-1,-6
3457,-8,-20,1000,-17,1,-6
3458,-10,-19,999,-16,1,-4
3459,-9,-20,999,-16,1,-5
3460,-7,-21,999,-16,0,-5
3461,-9,-22,999,-16,0,-5
3462,-8,-21,999,-16,1,-5
3463,-7,-19,998,-16,0,-5
3464,-7,-22,997,-16,-1,-5
3465,-7,-22,999,-17,0,-4
3466,-8,-21,1000,-18,0,-5
3467,-7,-20,998,-16,0,-7
3468,-9,-19,1000,-16,0,-6
3469,-9,-21,998,-16,0,-5
3470,-8,-21,999,-16,-1,-5
3471,-9,-20,998,-17,0,-5
3472,-8,-21,999,-16,1,-5
3473,-8,-20,999,-17,1,-6
3474,-7,-21,998,-16,2,-5
3475,-7,-21,1000,-16,1,-5
3476,-7,-19,1001,-16,2,-5
3477,-6,-19,998,-16,0,-6
3478,-7,-21,999,-16,1,-5
3479,-7,-21,1000,-17,-2,-5
3480,-6,-20,1000,-15,-1,-5
3481,-5,-20,999,-16,-1,-5
3482,-7,-21,998,-16,-1,-5
3483,-9,-20,1001,-15,0,-6
3484,-7,-22,998,-17,0,-6
3485,-8,-21,1000,-16,1,-7
3486,-7,-20,1000,-17,1,-5
3487,-7,-20,1000,-16,1,-5
3488,-8,-20,1000,-16,0,-5
3489,-8,-19,1000,-16,0,-5
3490,-8,-19,999,-16,0,-6
3491,-9,-20,998,-16,-1,-5
3492,-8,-21,999,-16,1,-4
3493,-8,-21,999,-16,1,-5
3494,-6,-22,999,-18,1,-6
3495,-8,-19,998,-17,0,-5
3496,-7,-19,999,-18,0,-5
3497,-7,-20,1000,-16,1,-6
3498,-9,-21,1000,-16,0,-6
3499,-8,-20,999,-16,2,-6
3500,-8,-21,1000,-16,1,-6
3501,-7,-20,999,-17,1,-5
3502,-8,-20,999,-16,0,-6
3503,-7,-22,999,-16,1,-6
3504,-9,-21,998,-18,0,-6
3505,-6,-19,999,-15,1,-6
3506,-6,-21,1000,-16,1,-5
3507,-8,-20,1000,-17,1,-5
3508,-7,-22,999,-16,0,-6
3509,-7,-19,998,-16,2,-4
3510,-7,-19,998,-16,1,-5
3511,-7,-19,1000,-15,0,-5
3512,-7,-19,999,-16,1,-5
3513,-8,-20,999,-16,1,-5
3514,-6,-20,999,-16,1,-5
3515,-5,-19,1000,-17,1,-6
3516,-7,-20,1001,-16,0,-5
3517,-7,-20,999,-16,1,-5
3518,-8,-19,1000,-16,1,-6
3519,-7,-20,1000,-16,1,-5
3520,-9,-19,999,-16,1,-5
3521,-7,-21,1000,-16,1,-5
3522,-7,-20,999,-15,1,-6
3523,-9,-20,1000,-16,-1,-5
3524,-8,-21,1000,-18,0,-5
3525,-8,-21,999,-15,1,-6
3526,-6,-20,999,-17,-1,-4
3527,-6,-19,998,-15,0,-5
3528,-8,-21,999,-16,0,-6
3529,-8,-19,1000,-16,0,-5
3530,-6,-20,1000,-16,2,-6
3531,-8,-21,998,-16,0,-6
3532,-9,-20,999,-17,0,-5
3533,-7,-19,998,-16,0,-4
3534,-8,-21,997,-18,1,-6
3535,-7,-20,1000,-18,0,-5
3536,-7,-20,998,-16,0,-6
3537,-8,-20,1000,-16,0,-5
3538,-7,-20,999,-16,0,-5
3539,-8,-18,1000,-16,0,-6
3540,-8,-20,1000,-18,1,-4
3541,-7,-20,999,-16,1,-6
3542,-6,-21,1000,-16,0,-5
3543,-6,-21,1000,-16,0,-5
3544,-9,-20,999,-16,1,-5
3545,-7,-20,999,-16,0,-6
3546,-7,-19,999,-17,0,-5
3547,-7,-21,999,-16,1,-6
3548,-7,-20,998,-16,2,-6
3549,-8,-20,1000,-17,1,-5
3550,-6,-21,1000,-17,0,-5
3551,-6,-22,999,-17,0,-6
3552,-7,-19,998,-17,1,-6
3553,-9,-19,999,-15,1,-5
3554,-7,-20,999,-16,0,-5
3555,-10,-22,998,-17,1,-5
3556,-8,-20,997,-16,0,-6
3557,-8,-21,999,-16,0,-6
3558,-7,-21,999,-16,1,-5
3559,-8,-20,999,-17,-1,-7
3560,-9,-19,1000,-18,-1,-6
3561,-9,-20,999,-15,-1,-5
3562,-7,-20,999,-18,0,-6
3563,-7,-21,999,-17,-1,-7
3564,-6,-22,999,-17,1,-5
3565,-8,-21,999,-17,0,-6
3566,-6,-20,999,-16,0,-5
3567,-6,-21,999,-16,1,-5
3568,-6,-21,999,-17,0,-6
3569,-6,-22,997,-17,0,-5
3570,-9,-21,999,-17,0,-7
3571,-8,-23,998,-16,0,-7
3572,-9,-22,998,-16,1,-6
3573,-6,-20,999,-16,0,-5
3574,-7,-22,999,-16,-1,-5
3575,-6,-20,1000,-17,0,-6
3576,-7,-20,999,-17,1,-5
3577,-8,-21,999,-17,1,-5
3578,-9,-21,998,-17,1,-4
3579,-8,-21,1000,-17,0,-6
3580,-6,-20,998,-17,1,-5
3581,-8,-22,1000,-16,0,-6
3582,-7,-21,999,-16,1,-6
3583,-6,-20,999,-15,0,-6
3584,-6,-20,999,-15,1,-5
3585,-7,-20,1001,-15,0,-6
3586,-9,-19,999,-16,1,-6
3587,-9,-19,1000,-17,0,-5
3588,-7,-21,999,-17,1,-5
3589,-7,-21,999,-17,0,-4
3590,-6,-20,998,-16,0,-5
3591,-7,-18,999,-16,0,-6
3592,-6,-21,998,-16,0,-5
3593,-6,-21,998,-17,1,-5
3594,-7,-19,999,-15,1,-6
3595,-7,-20,999,-17,1,-6
3596,-7,-20,998,-17,1,-5
3597,-6,-22,1000,-15,2,-4
3598,-6,-21,1000,-16,0,-6
3599,-9,-20,999,-15,0,-5
3600,-6,-20,999,-18,0,-6
3601,-5,-20,1000,-16,0,-5
3602,-6,-19,1000,-17,0,-5
3603,-9,-20,999,-17,0,-5
3604,-8,-20,999,-16,1,-5
3605,-8,-21,999,-16,0,-4
3606,-7,-19,999,-17,-1,-6
3607,-7,-21,1000,-17,1,-5
3608,-8,-20,998,-17,1,-4
3609,-8,-19,1000,-16,0,-6
3610,-8,-19,999,-17,2,-5
3611,-7,-19,999,-16,1,-6
3612,-7,-21,1000,-16,0,-7
3613,-7,-20,1000,-15,0,-5
3614,-8,-19,998,-16,1,-5
3615,-8,-22,999,-16,0,-4
3616,-8,-21,1000,-17,1,-5
3617,-7,-20,999,-17,0,-5
3618,-6,-20,999,-17,1,-5
3619,-6,-20,999,-16,0,-5
3620,-8,-20,999,-16,0,-6
3621,-7,-20,1000,-17,1,-6
3622,-6,-21,998,-17,0,-5
3623,-7,-21,998,-16,0,-6
3624,-8,-19,999,-16,0,-6
3625,-7,-20,1000,-17,0,-5
3626,-8,-21,998,-15,1,-4
3627,-9,-20,999,-17,1,-6
3628,-8,-21,1000,-16,0,-6
3629,-7,-19,1000,-16,0,-6
3630,-7,-21,1000,-14,0,-5
3631,-6,-20,1000,-15,0,-6
3632,-10,-19,1000,-16,0,-6
3633,-9,-21,998,-17,0,-5
3634,-7,-19,998,-17,0,-5
3635,-9,-21,997,-16,0,-5
3636,-8,-18,1001,-17,0,-5
3637,-9,-20,999,-18,0,-5
3638,-7,-18,999,-16,0,-5
3639,-8,-20,999,-15,-1,-6
3640,-7,-23,1000,-17,0,-5
3641,-7,-22,1000,-17,-1,-6
3642,-8,-20,999,-15,1,-7
3643,-7,-21,1000,-16,0,-5
3644,-8,-20,1000,-16,0,-5
3645,-7,-22,1000,-15,1,-6
3646,-7,-22,999,-16,1,-6
3647,-8,-22,999,-15,0,-5
3648,-6,-20,998,-16,3,-5
3649,-7,-20,999,-16,2,-5
3650,-7,-22,999,-16,2,-5
3651,-8,-21,1000,-16,2,-6
3652,-7,-20,999,-16,0,-5
3653,-7,-20,1000,-15,1,-5
3654,-9,-19,998,-17,0,-6
3655,-9,-19,998,-16,0,-6
3656,-9,-19,999,-15,0,-5
3657,-7,-20,998,-17,0,-5
3658,-7,-19,1000,-17,-1,-5
3659,-8,-19,1000,-17,0,-6
3660,-8,-20,999,-17,0,-5
3661,-6,-19,999,-16,0,-5
3662,-5,-20,999,-17,-1,-5
3663,-8,-20,997,-16,0,-5
3664,-7,-20,999,-16,0,-5
3665,-7,-19,999,-18,1,-6
3666,-8,-21,1000,-15,0,-6
3667,-7,-20,998,-18,1,-4
3668,-8,-20,998,-17,1,-5
3669,-8,-23,999,-17,2,-5
3670,-6,-21,999,-18,0,-6
3671,-8,-20,1000,-16,0,-4
3672,-7,-20,1000,-17,0,-5
3673,-6,-20,997,-17,1,-4
3674,-7,-21,998,-16,0,-5
3675,-7,-21,999,-18,1,-5
3676,-8,-21,999,-16,1,-5
3677,-7,-19,999,-17,0,-4
3678,-8,-20,998,-18,0,-5
3679,-8,-21,998,-17,1,-5
3680,-6,-19,999,-17,-1,-5
3681,-7,-19,1000,-16,-1,-5
3682,-8,-20,998,-16,0,-5
3683,-8,-20,999,-17,0,-5
3684,-7,-20,999,-16,1,-6
3685,-5,-19,1000,-17,0,-6
3686,-6,-20,999,-16,2,-5
3687,-7,-20,1000,-15,0,-5
3688,-6,-20,999,-16,2,-5
3689,-6,-21,999,-15,1,-6
3690,-6,-22,1000,-15,1,-6
3691,-6,-21,998,-16,1,-5
3692,-6,-20,999,-17,1,-5
3693,-7,-21,1000,-16,2,-5
3694,-9,-21,998,-16,0,-6
3695,-9,-22,999,-17,0,-7
3696,-7,-21,1000,-16,0,-6
3697,-5,-21,1000,-17,2,-5
3698,-8,-22,1001,-16,0,-6
3699,-7,-22,1000,-16,0,-5
3700,-8,-19,998,-16,0,-5
3701,-6,-21,998,-17,1,-4
3702,-6,-20,1000,-15,1,-5
3703,-6,-18,999,-18,-1,-5
3704,-7,-20,1000,-16,0,-6
3705,-9,-20,999,-16,0,-5
3706,-8,-20,999,-17,-1,-5
3707,-7,-21,999,-17,1,-5
3708,-5,-19,999,-17,0,-5
3709,-6,-21,999,-17,0,-6
3710,-6,-21,999,-15,-1,-6
3711,-7,-21,1000,-18,1,-4
3712,-8,-20,1000,-20,0,-5
3713,-8,-21,998,-13,-1,-7
3714,-6,-20,997,-20,-1,-6
3715,-5,-19,999,-17,1,-6
3716,-7,-21,1001,-15,1,-5
3717,-8,-21,999,-18,0,-5
3718,-6,-19,999,-15,1,-5
3719,-7,-19,1000,-17,1,-5
3720,-7,-18,1000,-16,2,-5
3721,-7,-21,1000,-16,1,-5
3722,-7,-20,998,-18,0,-6
3723,-10,-20,1000,-16,1,-6
3724,-8,-21,1000,-17,1,-7
3725,-10,-20,1000,-17,0,-6
3726,-6,-20,1001,-15,1,-6
3727,-8,-18,1000,-17,1,-5
3728,-6,-20,1000,-15,1,-5
3729,-7,-20,999,-15,1,-5
3730,-8,-21,999,-17,0,-6
3731,-8,-22,999,-16,1,-7
3732,-8,-20,1000,-17,1,-6
3733,-6,-20,1000,-15,1,-6
3734,-7,-21,998,-16,0,-6
3735,-7,-20,997,-17,-1,-5
3736,-7,-21,999,-16,0,-6
3737,-7,-20,999,-16,0,-5
3738,-8,-19,1000,-17,1,-5
3739,-8,-21,1001,-17,0,-5
3740,-7,-20,999,-17,1,-6
3741,-8,-21,1000,-17,0,-6
3742,-8,-20,999,-17,0,-4
3743,-8,-20,1001,-15,1,-5
3744,-7,-21,999,-16,0,-6
3745,-7,-21,1000,-16,0,-6
3746,-7,-19,1000,-15,1,-6
3747,-7,-20,1000,-17,2,-6
3748,-8,-21,1001,-17,0,-5
3749,-8,-21,1000,-16,0,-5
3750,-7,-20,999,-16,1,-5
3751,-8,-20,1000,-16,0,-6
3752,-7,-19,999,-17,0,-6
3753,-7,-22,1000,-16,1,-5
3754,-8,-22,1000,-15,1,-6
3755,-8,-19,1000,-15,2,-7
3756,-9,-21,998,-15,1,-6
3757,-6,-20,1000,-17,1,-5
3758,-6,-20,999,-15,0,-6
3759,-7,-18,998,-14,-1,-5
3760,-8,-20,999,-16,0,-6
3761,-9,-18,998,-16,1,-4
3762,-7,-20,999,-19,2,-5
3763,-8,-18,998,-17,1,-6
3764,-8,-20,998,-16,1,-6
3765,-9,-20,999,-18,1,-5
3766,-9,-20,1000,-16,1,-5
3767,-8,-20,998,-17,1,-5
3768,-6,-19,1000,-17,0,-5
3769,-6,-21,998,-18,1,-5
3770,-7,-22,999,-17,-1,-5
3771,-7,-21,1000,-16,-1,-5
3772,-8,-19,999,-14,0,-5
3773,-8,-18,1000,-16,0,-5
3774,-7,-21,999,-15,0,-5
3775,-8,-21,1000,-16,0,-5
3776,-9,-19,999,-16,0,-5
3777,-7,-21,998,-17,0,-5
3778,-7,-20,999,-18,1,-6
3779,-7,-19,999,-18,0,-5
3780,-7,-18,999,-17,0,-5
3781,-6,-20,999,-15,0,-5
3782,-8,-21,999,-15,0,-6
3783,-5,-20,1000,-17,0,-7
3784,-8,-20,1000,-18,0,-5
3785,-6,-21,1000,-17,1,-5
3786,-7,-21,1000,-16,0,-5
3787,-7,-19,998,-16,2,-5
3788,-7,-19,1000,-16,1,-5
3789,-7,-21,998,-16,2,-6
3790,-8,-19,999,-16,1,-6
3791,-10,-19,999,-17,0,-6
3792,-10,-20,1000,-17,1,-5
3793,-9,-19,999,-17,0,-4
3794,-8,-18,999,-16,0,-5
3795,-10,-21,999,-17,-1,-6
3796,-8,-21,1000,-18,1,-5
3797,-8,-21,1000,-15,1,-5
3798,-7,-21,998,-16,1,-7
3799,-7,-21,1000,-16,-1,-7
3800,-8,-21,999,-17,1,-6
3801,-8,-20,1000,-16,1,-4
3802,-7,-21,999,-16,1,-6
3803,-9,-20,999,-16,1,-6
3804,-7,-19,1000,-16,1,-4
3805,-7,-19,999,-15,1,-6
3806,-6,-20,999,-16,-1,-6
3807,-7,-20,1000,-16,0,-7
3808,-8,-19,999,-17,-1,-6
3809,-9,-20,998,-16,0,-5
3810,-9,-22,999,-14,0,-6
3811,-9,-22,1000,-15,0,-6
3812,-8,-22,999,-17,1,-5
3813,-5,-22,998,-17,2,-6
3814,-6,-22,999,-17,0,-6
3815,-7,-22,999,-16,1,-6
3816,-6,-20,999,-17,0,-5
3817,-6,-20,999,-16,0,-5
3818,-6,-21,999,-17,1,-6
3819,-7,-19,1001,-17,0,-5
3820,-7,-22,999,-16,1,-5
3821,-8,-21,1000,-15,2,-5
3822,-8,-20,998,-14,0,-5
3823,-8,-22,1000,-16,0,-5
3824,-8,-21,1000,-16,1,-5
3825,-8,-21,999,-17,1,-5
3826,-8,-20,999,-16,0,-5
3827,-9,-20,1000,-15,0,-6
3828,-10,-20,1000,-15,1,-5
3829,-10,-21,998,-16,1,-6
3830,-8,-21,1000,-16,1,-5
3831,-8,-20,999,-17,1,-5
3832,-7,-20,1000,-15,1,-5
3833,-10,-19,1000,-16,0,-6
3834,-6,-19,999,-15,1,-6
3835,-7,-19,997,-17,0,-5
3836,-7,-20,999,-16,-1,-7
3837,-8,-20,999,-16,1,-6
3838,-8,-21,999,-16,1,-6
3839,-8,-20,999,-16,0,-6
3840,-9,-19,999,-17,0,-5
3841,-8,-20,997,-17,1,-5
3842,-8,-21,1000,-17,1,-5
3843,-7,-19,999,-15,1,-6
3844,-8,-20,999,-16,1,-5
3845,-7,-19,999,-16,1,-6
3846,-5,-21,999,-16,1,-5
3847,-6,-20,998,-17,0,-6
3848,-6,-21,998,-17,1,-6
3849,-7,-20,1000,-16,0,-5
3850,-8,-21,1000,-17,1,-5
3851,-6,-21,999,-16,0,-5
3852,-7,-19,1000,-16,0,-5
3853,-8,-20,1000,-16,0,-5
3854,-6,-20,998,-17,0,-5
3855,-7,-20,1000,-17,1,-6
3856,-8,-19,999,-16,1,-4
3857,-6,-20,1000,-18,1,-4
3858,-8,-19,999,-16,0,-6
3859,-7,-20,998,-16,0,-7
3860,-9,-19,1001,-16,0,-6
3861,-8,-19,1000,-15,1,-5
3862,-7,-20,999,-15,0,-6
3863,-8,-21,1000,-16,0,-6
3864,-7,-21,998,-15,2,-5
3865,-6,-20,998,-16,1,-6
3866,-9,-20,998,-17,0,-6
3867,-8,-22,999,-16,0,-5
3868,-7,-21,999,-17,-1,-5
3869,-7,-21,999,-16,1,-5
3870,-6,-21,1000,-16,1,-6
3871,-6,-21,1000,-17,0,-6
3872,-7,-19,1000,-17,1,-5
3873,-8,-22,998,-16,1,-6
3874,-8,-20,999,-15,-1,-6
3875,-6,-22,999,-15,0,-6
3876,-9,-21,998,-15,1,-5
3877,-8,-21,1000,-14,0,-6
3878,-7,-20,1000,-16,0,-4
3879,-7,-20,999,-17,2,-6
3880,-6,-21,998,-15,0,-7
3881,-7,-21,998,-14,1,-5
3882,-8,-19,999,-17,2,-5
3883,-7,-19,999,-16,1,-4
3884,-8,-20,997,-16,0,-5
3885,-8,-20,1000,-15,1,-6
3886,-9,-20,1000,-17,1,-6
3887,-7,-20,1000,-16,1,-5
3888,-7,-21,1000,-16,1,-6
3889,-7,-19,999,-17,1,-4
3890,-6,-20,1000,-16,1,-5
3891,-9,-20,998,-16,0,-6
3892,-8,-21,998,-15,1,-6
3893,-8,-19,998,-16,2,-5
3894,-6,-19,999,-16,1,-4
3895,-5,-20,999,-17,1,-5
3896,-7,-20,999,-18,0,-4
3897,-8,-20,998,-17,0,-4
3898,-7,-20,999,-17,-1,-5
3899,-6,-20,999,-17,1,-6
3900,-6,-21,999,-16,2,-6
3901,-6,-20,999,-16,1,-4
3902,-7,-20,999,-17,1,-4
3903,-6,-19,1000,-17,1,-5
3904,-8,-20,999,-17,0,-5
3905,-7,-20,1001,-16,2,-5
3906,-8,-19,1000,-16,1,-6
3907,-7,-19,999,-16,0,-6
3908,-7,-21,999,-15,1,-6
3909,-7,-21,999,-17,0,-6
3910,-6,-22,998,-17,0,-4
3911,-7,-21,999,-17,1,-5
3912,-7,-19,1000,-14,1,-5
3913,-7,-19,1000,-16,1,-5
3914,-8,-22,998,-18,1,-5
3915,-7,-19,997,-17,1,-4
3916,-9,-22,999,-16,1,-4
3917,-8,-20,999,-17,0,-4
3918,-8,-22,999,-17,0,-4
3919,-6,-21,999,-17,0,-6
3920,-9,-21,1001,-18,0,-6
3921,-8,-20,999,-15,0,-5
3922,-8,-20,999,-16,0,-6
3923,-7,-19,1000,-16,0,-6
3924,-6,-20,999,-17,0,-5
3925,-8,-21,1000,-17,0,-4
3926,-8,-19,998,-15,1,-6
3927,-8,-19,1000,-17,1,-5
3928,-6,-20,999,-17,1,-5
3929,-7,-20,999,-15,0,-5
3930,-7,-20,1000,-16,-1,-5
3931,-8,-21,1000,-14,0,-5
3932,-7,-21,998,-16,0,-5
3933,-8,-20,999,-18,0,-4
3934,-7,-20,999,-15,2,-6
3935,-7,-19,999,-16,0,-6
3936,-8,-19,999,-16,1,-6
3937,-9,-20,999,-15,1,-6
3938,-7,-22,999,-17,1,-5
3939,-7,-20,1001,-17,0,-5
3940,-9,-21,1000,-17,-1,-6
3941,-7,-20,999,-17,1,-5
3942,-5,-19,1000,-15,0,-4
3943,-7,-20,999,-16,0,-5
3944,-6,-20,1000,-15,1,-6
3945,-7,-20,999,-16,0,-5
3946,-7,-22,1000,-15,0,-6
3947,-7,-18,999,-16,-1,-6
3948,-5,-20,999,-16,1,-6
3949,-10,-22,1000,-15,0,-6
3950,-8,-18,999,-16,1,-5
3951,-8,-19,1001,-16,1,-6
3952,-10,-22,998,-15,2,-6
3953,-6,-21,999,-16,1,-5
3954,-7,-20,999,-16,2,-5
3955,-8,-20,999,-16,0,-6
3956,-7,-20,1000,-16,1,-6
3957,-8,-19,998,-17,1,-6
3958,-6,-21,999,-16,1,-6
3959,-6,-21,999,-17,0,-5
3960,-6,-21,999,-16,1,-5
3961,-7,-20,998,-17,2,-6
3962,-8,-21,999,-16,1,-6
3963,-8,-21,999,-17,1,-5
3964,-8,-19,1001,-16,2,-6
3965,-7,-20,1000,-15,2,-6
3966,-7,-20,1000,-17,1,-5
3967,-7,-20,1000,-16,1,-4
3968,-9,-18,999,-16,0,-5
3969,-9,-19,999,-16,1,-6
3970,-7,-21,999,-18,1,-5
3971,-9,-20,1000,-17,1,-5
3972,-8,-20,1000,-16,1,-5
3973,-8,-21,999,-17,0,-6
3974,-8,-20,997,-17,0,-5
3975,-8,-21,999,-17,-1,-5
3976,-8,-19,1000,-16,0,-5
3977,-8,-20,999,-16,0,-5
3978,-7,-22,999,-17,0,-5
3979,-9,-22,999,-16,0,-5
3980,-9,-22,999,-17,1,-6
3981,-7,-22,999,-16,0,-6
3982,-8,-22,999,-15,1,-5
3983,-8,-20,998,-16,1,-6
3984,-10,-19,1000,-15,0,-5
3985,-7,-18,999,-16,0,-6
3986,-8,-20,1000,-18,0,-6
3987,-7,-20,999,-17,0,-6
3988,-8,-20,999,-17,1,-4
3989,-9,-21,999,-17,0,-5
3990,-7,-20,999,-16,1,-4
3991,-6,-20,998,-16,-1,-6
3992,-6,-21,998,-17,0,-4
3993,-6,-23,1000,-17,0,-6
3994,-5,-22,1000,-15,-1,-5
3995,-7,-21,999,-17,1,-5
3996,-5,-22,999,-18,1,-5
3997,-4,-20,999,-15,1,-6
3998,-5,-22,1000,-17,-1,-6
3999,-7,-22,998,-16,1,-5
4000,-8,-19,1000,-15,1,-4
4001,-9,-21,998,-16,1,-6
4002,-8,-20,999,-14,1,-6
4003,-8,-21,998,-16,1,-5
4004,-8,-21,999,-16,0,-6
4005,-8,-22,998,-15,2,-5
4006,-8,-19,999,-17,0,-5
4007,-9,-20,1000,-18,0,-5
4008,-9,-20,1000,-17,0,-6
4009,-8,-20,998,-17,1,-6
4010,-7,-20,999,-17,1,-5
4011,-8,-20,999,-18,0,-4
4012,-7,-21,1000,-16,1,-5
4013,-8,-21,998,-15,0,-6
4014,-8,-20,999,-15,2,-5
4015,-9,-19,998,-14,0,-4
4016,-8,-19,997,-16,0,-6
4017,-7,-21,999,-16,1,-5
4018,-7,-19,999,-16,1,-4
4019,-7,-19,999,-16,1,-6
4020,-6,-21,999,-16,0,-7
4021,-8,-20,998,-16,2,-6
4022,-8,-20,1000,-17,1,-5
4023,-9,-21,1000,-16,1,-5
4024,-8,-21,1000,-16,0,-6
4025,-7,-20,999,-17,1,-4
4026,-6,-22,1000,-17,2,-5
4027,-7,-21,999,-18,0,-5
4028,-7,-21,999,-16,0,-5
4029,-7,-20,1000,-16,0,-6
4030,-8,-21,1000,-16,0,-5
4031,-8,-20,1001,-17,2,-5
4032,-7,-20,1000,-17,1,-5
4033,-6,-21,999,-18,0,-4
4034,-7,-20,1000,-18,-1,-7
4035,-8,-23,999,-17,1,-6
4036,-8,-21,999,-17,0,-5
4037,-6,-20,999,-17,0,-5
4038,-6,-20,1001,-16,1,-6
4039,-7,-21,999,-16,0,-5
4040,-8,-19,1001,-15,1,-5
4041,-7,-21,999,-16,1,-5
4042,-9,-20,1000,-16,-1,-5
4043,-7,-20,999,-16,1,-5
4044,-8,-19,1000,-17,1,-6
4045,-7,-21,999,-18,0,-5
4046,-6,-19,997,-17,0,-5
4047,-8,-20,997,-16,-1,-5
4048,-7,-20,999,-17,0,-6
4049,-9,-20,1000,-18,1,-6
4050,-7,-22,998,-15,0,-5
4051,-8,-21,1000,-15,0,-6
4052,-7,-20,1000,-16,0,-6
4053,-8,-20,999,-17,-1,-5
4054,-7,-20,998,-17,3,-6
4055,-8,-19,999,-16,1,-7
4056,-7,-21,998,-15,1,-5
4057,-6,-20,999,-17,0,-6
4058,-8,-20,999,-15,0,-4
4059,-8,-20,999,-16,-1,-5
4060,-7,-20,1000,-16,1,-6
4061,-7,-20,999,-15,1,-6
4062,-5,-19,999,-16,1,-6
4063,-5,-20,998,-17,-1,-6
4064,-6,-21,999,-16,1,-6
4065,-8,-22,999,-15,0,-6
4066,-7,-22,999,-14,2,-5
4067,-8,-22,998,-16,2,-5
4068,-6,-21,998,-15,1,-4
4069,-8,-20,999,-15,2,-5
4070,-8,-19,1000,-15,0,-5
4071,-8,-19,1000,-16,0,-6
4072,-8,-19,999,-15,-1,-5
4073,-7,-18,998,-15,0,-5
4074,-8,-21,999,-16,1,-5
4075,-8,-19,1000,-15,1,-6
4076,-7,-19,999,-17,1,-6
4077,-8,-20,999,-16,1,-5
4078,-6,-20,999,-16,0,-5
4079,-8,-21,999,-16,0,-6
4080,-8,-18,999,-17,1,-5
4081,-9,-21,999,-16,1,-6
4082,-8,-20,999,-16,0,-5
4083,-7,-21,999,-17,0,-5
4084,-6,-20,998,-17,0,-5
4085,-6,-20,999,-17,0,-6
4086,-8,-18,999,-15,0,-6
4087,-7,-20,999,-15,2,-6
4088,-9,-21,999,-16,1,-6
4089,-7,-23,999,-15,1,-6
4090,-7,-20,1000,-15,0,-5
4091,-6,-21,998,-15,1,-7
4092,-9,-19,1000,-16,1,-5
4093,-7,-22,999,-15,0,-7
4094,-6,-22,999,-15,0,-7
4095,-7,-22,999,-17,1,-5
4096,-5,-20,999,-17,2,-6
4097,-6,-21,1000,-18,2,-6
4098,-5,-21,1000,-16,0,-6
4099,-6,-21,998,-17,0,-6
4100,-7,-22,1000,-17,2,-5
4101,-8,-20,1000,-16,0,-5
4102,-7,-19,1000,-16,-1,-5
4103,-8,-18,1000,-17,0,-5
4104,-6,-18,998,-17,1,-6
4105,-7,-20,1000,-15,1,-5
4106,-9,-20,1001,-15,0,-5
4107,-7,-20,1000,-15,0,-6
4108,-9,-19,999,-16,1,-6
4109,-7,-20,1000,-17,0,-5
4110,-7,-20,998,-17,0,-4
4111,-8,-20,998,-15,1,-4
4112,-10,-19,999,-16,0,-4
4113,-8,-20,999,-16,1,-6
4114,-9,-21,999,-14,1,-6
4115,-7,-22,1000,-16,1,-5
4116,-7,-22,999,-16,1,-7
4117,-6,-21,999,-15,1,-6
4118,-7,-20,999,-17,1,-4
4119,-8,-19,999,-16,2,-6
4120,-8,-22,1000,-16,1,-6
4121,-7,-20,999,-16,0,-5
4122,-8,-21,999,-16,0,-5
4123,-7,-20,1000,-16,0,-6
4124,-7,-21,999,-15,0,-5
4125,-9,-22,998,-15,0,-6
4126,-8,-20,999,-15,0,-7
4127,-8,-19,999,-18,2,-6
4128,-8,-19,999,-17,2,-5
4129,-5,-22,998,-16,-1,-6
4130,-8,-20,999,-16,-1,-5
4131,-8,-20,999,-16,0,-6
4132,-7,-18,1000,-15,2,-5
4133,-6,-21,998,-17,1,-5
4134,-7,-20,999,-17,0,-5
4135,-8,-18,999,-19,1,-6
4136,-9,-22,998,-17,1,-5
4137,-7,-19,999,-16,1,-4
4138,-6,-22,999,-17,1,-5
4139,-5,-21,1000,-16,1,-5
4140,-6,-20,998,-16,1,-6
4141,-9,-21,998,-15,0,-6
4142,-5,-21,1000,-16,0,-6
4143,-6,-20,999,-15,0,-6
4144,-9,-20,999,-15,0,-5
4145,-7,-20,999,-16,1,-6
4146,-6,-20,998,-16,1,-5
4147,-7,-21,999,-15,1,-5
4148,-8,-21,999,-17,0,-6
4149,-8,-20,999,-17,1,-5
4150,-7,-20,998,-17,1,-5
4151,-8,-20,999,-16,2,-5
4152,-9,-19,999,-14,1,-5
4153,-8,-20,999,-16,1,-6
4154,-7,-20,999,-18,0,-7
4155,-9,-20,1000,-17,2,-6
4156,-7,-20,999,-16,2,-6
4157,-6,-20,1000,-15,0,-6
4158,-7,-20,1000,-16,0,-6
4159,-8,-19,998,-16,0,-6
4160,-8,-20,1000,-16,-1,-6
4161,-6,-21,998,-17,0,-5
4162,-6,-21,1000,-16,0,-6
4163,-7,-21,999,-16,1,-5
4164,-8,-22,998,-17,0,-6
4165,-9,-19,998,-15,0,-5
4166,-7,-19,998,-15,0,-5
4167,-6,-19,998,-17,1,-7
4168,-7,-19,997,-16,2,-6
4169,-7,-18,1000,-15,2,-6
4170,-8,-20,999,-15,1,-5
4171,-7,-21,999,-16,1,-4
4172,-9,-21,998,-17,0,-5
4173,-8,-20,1000,-17,1,-6
4174,-8,-20,998,-16,0,-6
4175,-6,-20,999,-17,1,-5
4176,-6,-20,999,-16,1,-5
4177,-5,-19,1000,-16,1,-5
4178,-7,-22,1000,-16,1,-5
4179,-6,-19,999,-17,1,-6
4180,-7,-19,998,-15,0,-5
4181,-8,-21,999,-16,-1,-6
4182,-7,-21,999,-16,0,-5
4183,-7,-21,1000,-16,0,-5
4184,-7,-21,999,-17,-1,-5
4185,-7,-21,999,-16,0,-5
4186,-7,-21,999,-16,0,-6
4187,-8,-22,998,-16,1,-6
4188,-8,-20,1000,-15,-1,-7
4189,-7,-20,999,-15,-1,-6
4190,-7,-20,1000,-18,1,-5
4191,-7,-21,1000,-16,1,-5
4192,-6,-19,998,-16,1,-4
4193,-9,-20,998,-16,1,-6
4194,-7,-21,999,-15,0,-6
4195,-8,-20,1000,-16,0,-5
4196,-8,-20,1000,-17,0,-6
4197,-8,-21,1000,-15,-1,-4
4198,-6,-20,998,-16,0,-4
4199,-7,-21,1000,-17,-1,-5
4200,-7,-18,1000,-16,0,-6
4201,-5,-20,1001,-17,-1,-6
4202,-7,-21,999,-17,0,-6
4203,-5,-19,1000,-16,1,-6
4204,-6,-21,999,-16,0,-5
4205,-6,-20,998,-15,1,-5
4206,-6,-23,999,-16,1,-5
4207,-6,-21,999,-15,1,-6
4208,-8,-21,1000,-14,1,-6
4209,-6,-19,998,-15,1,-7
4210,-9,-17,998,-17,1,-6
4211,-8,-19,998,-16,1,-5
4212,-9,-20,999,-16,0,-6
4213,-9,-19,999,-17,0,-5
4214,-7,-20,998,-17,0,-6
4215,-8,-20,997,-18,0,-5
4216,-8,-21,998,-16,1,-4
4217,-8,-21,1000,-18,2,-4
4218,-8,-20,999,-17,1,-5
4219,-7,-21,999,-16,1,-5
4220,-7,-19,999,-15,-1,-6
4221,-7,-20,1001,-17,0,-5
4222,-8,-20,999,-16,0,-7
4223,-8,-20,998,-16,1,-5
4224,-7,-20,999,-17,1,-6
4225,-8,-21,999,-15,1,-5
4226,-8,-21,999,-15,0,-6
4227,-7,-20,999,-16,0,-5
4228,-8,-20,999,-15,0,-5
4229,-7,-21,1001,-16,1,-6
4230,-9,-19,1000,-17,1,-7
4231,-8,-21,999,-18,1,-6
4232,-8,-22,1000,-18,0,-6
4233,-6,-22,1000,-16,0,-5
4234,-6,-22,999,-17,2,-5
4235,-6,-19,998,-15,1,-4
4236,-9,-22,999,-16,1,-5
4237,-6,-21,1001,-16,1,-5
4238,-7,-20,1000,-15,0,-6
4239,-6,-22,999,-16,-1,-6
4240,-6,-21,998,-16,1,-6
4241,-6,-22,999,-18,1,-6
4242,-7,-20,998,-17,1,-7
4243,-8,-19,999,-16,-1,-5
4244,-6,-21,999,-15,0,-5
4245,-6,-21,999,-17,1,-5
4246,-8,-21,998,-16,0,-5
4247,-7,-20,999,-17,0,-5
4248,-8,-21,999,-16,0,-6
4249,-5,-20,998,-16,-1,-7
4250,-6,-20,998,-17,1,-6
4251,-6,-22,1000,-16,0,-6
4252,-8,-20,998,-16,0,-5
4253,-7,-21,997,-17,1,-5
4254,-7,-22,1000,-17,1,-5
4255,-10,-19,999,-16,1,-5
4256,-7,-20,999,-16,1,-5
4257,-8,-20,1000,-16,2,-5
4258,-7,-20,1000,-15,1,-5
4259,-9,-18,998,-16,0,-5
4260,-9,-21,999,-17,0,-5
4261,-9,-20,999,-17,0,-5
4262,-8,-20,999,-14,0,-6
4263,-8,-19,999,-17,0,-6
4264,-7,-21,999,-15,0,-7
4265,-8,-19,998,-16,1,-7
4266,-8,-21,998,-16,1,-6
4267,-9,-21,999,-15,1,-6
4268,-8,-20,998,-16,2,-6
4269,-6,-20,999,-15,1,-6
4270,-9,-21,1001,-17,1,-6
4271,-8,-19,999,-16,1,-6
4272,-7,-18,999,-16,0,-6
4273,-9,-20,999,-16,0,-5
4274,-7,-19,999,-16,0,-6
4275,-7,-19,998,-16,0,-6
4276,-9,-20,999,-17,0,-7
4277,-8,-21,999,-15,0,-6
4278,-7,-20,1000,-16,0,-5
4279,-6,-20,1000,-15,0,-6
4280,-6,-21,1001,-16,0,-5
4281,-7,-20,999,-15,0,-5
4282,-6,-21,999,-15,1,-5
4283,-6,-21,999,-15,0,-5
4284,-8,-20,999,-17,1,-5
4285,-8,-20,999,-16,1,-5
4286,-6,-21,999,-19,-1,-5
4287,-7,-19,999,-16,1,-5
4288,-6,-19,999,-16,1,-6
4289,-7,-21,1000,-16,1,-6
4290,-6,-22,999,-16,1,-5
4291,-7,-20,999,-16,0,-5
4292,-7,-20,997,-16,0,-5
4293,-6,-20,998,-16,0,-6
4294,-5,-22,1000,-16,0,-5
4295,-7,-19,999,-17,0,-5
4296,-5,-20,999,-17,1,-5
4297,-7,-21,999,-17,1,-6
4298,-7,-21,1000,-17,1,-5
4299,-8,-21,999,-17,1,-6
4300,-7,-21,999,-16,1,-5
4301,-9,-20,1000,-17,1,-6
4302,-7,-21,1001,-16,0,-6
4303,-9,-21,999,-16,0,-6
4304,-8,-22,999,-17,0,-6
4305,-7,-20,999,-16,1,-4
4306,-7,-21,999,-17,1,-5
4307,-6,-20,998,-17,1,-5
4308,-6,-21,999,-16,0,-6
4309,-8,-20,999,-16,1,-5
4310,-8,-21,998,-16,1,-5
4311,-8,-21,999,-14,0,-6
4312,-8,-20,999,-16,1,-6
4313,-6,-20,999,-15,-1,-6
4314,-8,-19,999,-15,0,-5
4315,-6,-21,998,-14,1,-5
4316,-7,-21,1000,-15,1,-5
4317,-9,-21,999,-16,2,-5
4318,-6,-21,998,-16,2,-6
4319,-8,-19,997,-18,3,-5
4320,-6,-20,998,-16,2,-5
4321,-7,-20,1000,-17,2,-5
4322,-8,-20,998,-15,2,-5
4323,-7,-20,998,-16,1,-6
4324,-7,-22,999,-14,1,-5
4325,-7,-19,1002,-15,1,-5
4326,-7,-19,999,-17,0,-5
4327,-7,-19,1000,-14,0,-6
4328,-7,-21,998,-17,0,-6
4329,-7,-21,999,-16,0,-6
4330,-9,-20,999,-16,0,-5
4331,-7,-21,999,-16,0,-6
4332,-9,-20,1000,-17,0,-5
4333,-9,-20,998,-16,1,-6
4334,-8,-19,1000,-17,0,-6
4335,-9,-20,998,-16,0,-6
4336,-8,-20,999,-16,0,-6
4337,-7,-20,999,-16,1,-6
4338,-7,-20,1000,-15,-1,-6
4339,-7,-20,999,-18,1,-5
4340,-7,-21,998,-16,2,-5
4341,-7,-20,999,-17,1,-5
4342,-9,-22,1000,-16,1,-6
4343,-7,-20,998,-16,0,-6
4344,-9,-21,998,-16,0,-5
4345,-7,-21,1000,-16,0,-6
4346,-9,-22,999,-17,1,-5
4347,-8,-20,998,-16,1,-6
4348,-6,-21,998,-16,0,-6
4349,-9,-20,999,-17,-1,-6
4350,-7,-20,999,-16,1,-6
4351,-6,-20,999,-15,0,-6
4352,-7,-21,997,-16,1,-5
4353,-7,-20,999,-15,0,-6
4354,-9,-20,999,-15,0,-7
4355,-8,-20,998,-17,2,-5
4356,-8,-20,998,-16,0,-5
4357,-6,-20,999,-15,0,-4
4358,-7,-20,999,-16,0,-5
4359,-6,-20,1000,-17,1,-5
4360,-7,-20,1000,-17,1,-7
4361,-7,-19,999,-16,1,-6
4362,-8,-19,1001,-16,1,-4
4363,-7,-20,999,-17,1,-5
4364,-7,-18,999,-18,0,-5
4365,-8,-20,999,-16,0,-5
4366,-7,-21,999,-17,1,-5
4367,-7,-21,1000,-17,1,-6
4368,-5,-20,999,-17,0,-5
4369,-6,-22,1000,-17,1,-4
4370,-7,-21,1000,-18,1,-4
4371,-7,-21,1000,-16,1,-5
4372,-7,-21,1000,-17,-2,-5
4373,-8,-20,998,-16,0,-6
4374,-6,-20,998,-13,-1,-6
4375,-5,-21,998,-16,-1,-5
4376,-6,-20,998,-16,0,-7
4377,-9,-19,999,-18,1,-6
4378,-9,-20,1000,-17,1,-5
4379,-8,-19,998,-17,1,-6
4380,-8,-18,998,-16,1,-5
4381,-7,-19,999,-15,0,-6
4382,-8,-20,998,-16,1,-6
4383,-8,-19,999,-16,1,-5
4384,-7,-18,999,-17,1,-5
4385,-7,-20,1000,-15,0,-6
4386,-7,-19,998,-15,1,-5
4387,-8,-19,998,-16,0,-5
4388,-7,-19,999,-19,0,-5
4389,-11,-21,1000,-20,2,-5
4390,-8,-22,1000,-16,1,-6
4391,-6,-22,998,-17,1,-6
4392,-8,-19,998,-14,1,-6
4393,-8,-19,1000,-17,0,-6
4394,-6,-22,1000,-16,1,-5
4395,-7,-21,1000,-15,1,-6
4396,-7,-20,1000,-17,1,-6
4397,-8,-19,1000,-15,1,-5
4398,-7,-21,999,-17,1,-6
4399,-7,-20,1000,-15,1,-5
4400,-8,-20,999,-15,1,-5
4401,-8,-20,999,-17,1,-7
4402,-4,-22,1000,-14,2,-6
4403,-8,-21,1000,-18,2,-5
4404,-8,-21,1000,-16,0,-5
4405,-8,-19,998,-16,1,-5
4406,-6,-20,1000,-18,0,-6
4407,-7,-20,999,-17,0,-6
4408,-7,-19,999,-16,1,-6
4409,-7,-19,998,-15,1,-6
4410,-8,-20,998,-15,1,-6
4411,-5,-21,999,-17,1,-6
4412,-7,-21,999,-17,1,-5
4413,-6,-21,999,-16,0,-6
4414,-7,-19,998,-18,1,-5
4415,-8,-20,998,-18,0,-4
4416,-7,-20,1000,-16,0,-5
4417,-9,-20,999,-16,0,-5
4418,-7,-19,998,-17,0,-5
4419,-8,-19,999,-16,1,-6
4420,-6,-21,1000,-17,1,-5
4421,-8,-21,999,-16,0,-5
4422,-8,-21,998,-16,1,-5
4423,-8,-19,999,-16,1,-6
4424,-7,-20,998,-16,0,-5
4425,-8,-18,999,-16,1,-6
4426,-9,-19,1000,-17,-2,-6
4427,-8,-22,999,-16,1,-6
4428,-7,-21,997,-15,1,-5
4429,-8,-21,999,-16,1,-6
4430,-6,-23,999,-16,1,-6
4431,-6,-22,999,-17,-1,-6
4432,-7,-20,998,-15,1,-7
4433,-9,-20,998,-16,0,-5
4434,-6,-20,1000,-15,0,-6
4435,-8,-19,1000,-14,1,-5
4436,-6,-17,999,-15,2,-5
4437,-6,-19,1000,-16,2,-5
4438,-7,-21,1001,-16,1,-5
4439,-7,-19,1000,-16,1,-5
4440,-8,-20,1000,-17,1,-6
4441,-8,-19,1000,-16,0,-6
4442,-7,-20,999,-16,1,-5
4443,-7,-20,1000,-15,0,-6
4444,-6,-22,1000,-15,1,-6
4445,-7,-21,1000,-16,1,-6
4446,-7,-22,1000,-17,1,-5
4447,-7,-20,999,-18,0,-4
4448,-6,-19,1000,-18,0,-6
4449,-9,-19,1000,-16,0,-7
4450,-9,-18,998,-16,1,-5
4451,-7,-19,998,-16,1,-5
4452,-9,-19,1000,-17,0,-6
4453,-8,-21,998,-16,1,-5
4454,-6,-18,1000,-16,0,-6
4455,-8,-19,999,-15,0,-5
4456,-5,-19,998,-16,1,-4
4457,-5,-21,999,-16,0,-5
4458,-6,-21,999,-17,1,-6
4459,-8,-20,1000,-17,1,-6
4460,-7,-20,1001,-17,0,-5
4461,-6,-20,998,-16,0,-5
4462,-6,-20,999,-15,0,-5
4463,-8,-19,999,-15,0,-5
4464,-7,-20,1000,-17,0,-6
4465,-7,-21,998,-15,1,-7
4466,-8,-21,998,-16,0,-5
4467,-7,-20,998,-16,0,-5
4468,-8,-21,998,-16,1,-5
4469,-9,-19,1000,-18,1,-5
4470,-6,-19,1000,-16,0,-6
4471,-6,-19,999,-17,0,-6
4472,-7,-22,998,-17,0,-6
4473,-6,-20,999,-17,0,-5
4474,-6,-20,999,-16,0,-5
4475,-7,-21,999,-14,1,-5
4476,-8,-20,999,-18,1,-5
4477,-8,-21,1001,-16,1,-4
4478,-6,-22,999,-17,1,-5
4479,-8,-22,998,-17,2,-5
4480,-9,-21,1001,-18,1,-6
4481,-8,-21,1000,-16,0,-6
4482,-6,-21,1000,-17,-1,-5
4483,-7,-20,1000,-16,1,-4
4484,-8,-19,999,-16,0,-5
4485,-9,-20,999,-15,0,-6
4486,-9,-19,1000,-16,1,-6
4487,-8,-18,999,-16,2,-7
4488,-8,-21,1000,-16,1,-6
4489,-7,-21,1000,-16,0,-6
4490,-6,-20,999,-15,-1,-6
4491,-5,-20,998,-15,1,-6
4492,-7,-21,999,-17,1,-5
4493,-9,-20,999,-16,0,-5
4494,-7,-22,999,-15,-1,-6
4495,-8,-22,997,-17,1,-5
4496,-7,-19,999,-16,1,-6
4497,-7,-22,999,-15,0,-7
4498,-9,-20,1000,-16,1,-5
4499,-8,-21,998,-15,2,-7
4500,-8,-21,999,-16,1,-6
4501,-8,-19,999,-16,1,-6
4502,-7,-21,1000,-16,1,-6
4503,-8,-22,1000,-17,0,-6
4504,-8,-22,999,-16,-1,-5
4505,-7,-20,999,-16,2,-5
4506,-6,-22,999,-14,1,-5
4507,-8,-20,1000,-15,1,-6
4508,-8,-19,1000,-16,1,-6
4509,-6,-20,1000,-15,1,-5
4510,-6,-19,999,-16,1,-5
4511,-8,-19,1001,-15,1,-5
4512,-6,-20,999,-16,1,-4
4513,-6,-21,1000,-18,0,-6
4514,-6,-21,1000,-15,0,-5
4515,-8,-20,1000,-17,0,-6
4516,-7,-22,999,-15,0,-6
4517,-6,-19,999,-16,0,-6
4518,-6,-21,999,-17,0,-4
4519,-4,-20,997,-17,0,-5
4520,-7,-21,1000,-17,0,-6
4521,-6,-21,1000,-16,1,-6
4522,-7,-19,999,-16,2,-6
4523,-7,-21,999,-17,0,-5
4524,-4,-22,1000,-17,0,-5
4525,-6,-21,998,-16,1,-6
4526,-8,-21,999,-18,0,-5
4527,-8,-23,1000,-16,0,-5
4528,-7,-20,1001,-15,0,-5
4529,-8,-21,1001,-15,1,-5
4530,-8,-20,1000,-17,0,-5
4531,-10,-19,1000,-15,0,-6
4532,-9,-19,1000,-16,0,-5
4533,-7,-19,999,-16,0,-5
4534,-8,-19,999,-16,1,-5
4535,-8,-19,999,-16,1,-6
4536,-8,-20,999,-16,1,-6
4537,-7,-19,998,-16,0,-5
4538,-6,-19,999,-18,-1,-5
4539,-8,-20,999,-15,0,-5
4540,-7,-20,1000,-15,0,-5
4541,-9,-21,999,-16,2,-5
4542,-8,-21,998,-16,1,-5
4543,-9,-21,1000,-15,2,-7
4544,-6,-20,1000,-15,2,-5
4545,-7,-19,1000,-15,1,-5
4546,-9,-21,999,-16,1,-6
4547,-7,-20,999,-16,1,-6
4548,-7,-20,999,-17,2,-6
4549,-8,-22,999,-16,1,-6
4550,-8,-19,998,-16,1,-6
4551,-9,-19,1000,-16,0,-6
4552,-7,-20,998,-15,0,-5
4553,-7,-20,1000,-16,0,-5
4554,-7,-21,999,-18,0,-5
4555,-5,-22,999,-16,0,-6
4556,-7,-20,1000,-15,1,-7
4557,-6,-19,1000,-17,-1,-6
4558,-6,-21,999,-16,-1,-4
4559,-7,-21,999,-15,0,-6
4560,-4,-21,1000,-15,0,-5
4561,-8,-20,1000,-16,0,-4
4562,-6,-20,1001,-16,0,-5
4563,-7,-20,997,-17,0,-5
4564,-5,-21,999,-16,0,-5
4565,-7,-19,998,-17,-1,-5
4566,-7,-20,999,-17,1,-5
4567,-7,-20,998,-16,-1,-4
4568,-6,-20,999,-16,1,-6
4569,-10,-20,1000,-15,0,-5
4570,-6,-21,1000,-17,0,-6
4571,-8,-20,1000,-16,0,-5
4572,-9,-21,999,-17,0,-5
4573,-11,-19,999,-16,0,-5
4574,-7,-20,1000,-16,0,-5
4575,-7,-23,1000,-15,1,-5
4576,-7,-22,999,-16,-1,-6
4577,-7,-20,1000,-16,0,-6
4578,-6,-21,998,-16,0,-6
4579,-8,-20,999,-16,0,-5
4580,-7,-22,999,-17,0,-6
4581,-8,-20,1001,-16,0,-5
4582,-8,-19,999,-16,0,-5
4583,-8,-21,998,-16,1,-4
4584,-7,-20,999,-16,1,-5
4585,-7,-20,998,-16,-1,-5
4586,-6,-20,999,-16,0,-5
4587,-8,-21,999,-17,0,-5
4588,-7,-21,1000,-15,1,-4
4589,-6,-22,998,-16,0,-5
4590,-6,-21,1000,-16,1,-5
4591,-7,-20,998,-16,-1,-5
4592,-7,-20,998,-17,-1,-6
4593,-9,-20,999,-17,0,-4
4594,-6,-23,999,-17,1,-5
4595,-8,-19,1000,-15,1,-6
4596,-8,-20,1000,-15,0,-5
4597,-9,-18,999,-16,1,-6
4598,-8,-19,998,-17,0,-6
4599,-9,-19,1001,-16,1,-6
4600,-7,-20,998,-17,2,-5
4601,-8,-20,998,-16,0,-5
4602,-7,-20,999,-17,0,-6
4603,-8,-19,1000,-16,1,-7
4604,-8,-19,998,-16,1,-6
4605,-8,-20,998,-18,1,-5
4606,-7,-20,998,-15,0,-6
4607,-7,-20,998,-17,0,-6
4608,-9,-20,999,-16,0,-5
4609,-7,-19,999,-14,0,-5
4610,-6,-19,998,-16,1,-5
4611,-9,-20,1001,-16,0,-4
4612,-6,-20,999,-14,-1,-5
4613,-5,-22,999,-17,1,-6
4614,-6,-21,999,-17,2,-5
4615,-8,-21,999,-17,1,-5
4616,-6,-21,1000,-17,0,-6
4617,-6,-21,999,-16,0,-7
4618,-8,-20,999,-16,1,-6
4619,-6,-19,1000,-16,0,-6
4620,-7,-23,998,-17,0,-5
4621,-6,-22,998,-17,0,-4
4622,-6,-23,999,-16,1,-5
4623,-7,-21,998,-16,0,-5
4624,-8,-20,999,-17,1,-5
4625,-7,-19,1000,-16,0,-5
4626,-6,-19,999,-15,1,-5
4627,-6,-19,998,-15,1,-6
4628,-7,-20,1000,-16,0,-6
4629,-7,-21,999,-16,2,-5
4630,-7,-22,999,-17,1,-5
4631,-8,-22,998,-16,0,-5
4632,-6,-21,999,-17,0,-5
4633,-7,-19,1000,-17,0,-5
4634,-9,-20,999,-17,1,-5
4635,-7,-21,999,-15,0,-5
4636,-9,-21,999,-15,1,-5
4637,-9,-21,998,-15,0,-6
4638,-6,-21,999,-16,1,-6
4639,-7,-21,999,-15,1,-5
4640,-7,-20,1001,-16,1,-4
4641,-9,-19,1000,-15,-1,-5
4642,-9,-20,999,-17,-1,-6
4643,-10,-22,1000,-15,0,-6
4644,-8,-20,1000,-17,1,-6
4645,-8,-19,1000,-16,-1,-5
4646,-7,-20,998,-16,-1,-4
4647,-8,-21,999,-16,-1,-6
4648,-9,-19,999,-16,-1,-5
4649,-7,-19,999,-17,1,-5
4650,-7,-20,999,-16,1,-5
4651,-8,-22,1001,-17,0,-6
4652,-7,-21,999,-15,0,-6
4653,-9,-18,998,-16,1,-5
4654,-8,-19,1000,-17,1,-5
4655,-7,-19,998,-16,1,-5
4656,-7,-21,997,-16,1,-5
4657,-9,-20,999,-16,0,-6
4658,-6,-21,999,-16,1,-6
4659,-7,-20,999,-17,0,-6
4660,-8,-19,1000,-16,0,-6
4661,-9,-20,997,-15,0,-6
4662,-7,-20,1000,-15,0,-5
4663,-7,-20,999,-14,0,-4
4664,-7,-20,999,-15,0,-5
4665,-6,-21,999,-17,1,-7
4666,-6,-23,999,-15,1,-6
4667,-7,-22,998,-16,0,-6
4668,-9,-20,999,-16,1,-6
4669,-6,-19,999,-16,2,-5
4670,-8,-21,1001,-16,1,-5
4671,-8,-22,999,-16,0,-5
4672,-8,-21,1000,-16,1,-5
4673,-7,-20,1000,-15,1,-6
4674,-7,-20,1000,-17,1,-5
4675,-8,-22,1000,-16,1,-5
4676,-7,-22,1000,-16,1,-6
4677,-8,-20,999,-18,1,-5
4678,-7,-22,999,-17,0,-5
4679,-4,-23,999,-16,-1,-6
4680,-7,-22,1000,-16,0,-6
4681,-7,-21,1000,-15,0,-6
4682,-5,-22,999,-16,0,-5
4683,-7,-22,998,-16,0,-4
4684,-7,-22,999,-16,1,-4
4685,-7,-21,999,-16,1,-5
4686,-6,-20,1000,-17,1,-5
4687,-7,-20,1000,-18,1,-5
4688,-8,-22,1001,-17,2,-5
4689,-7,-21,998,-17,0,-5
4690,-5,-21,998,-16,0,-5
4691,-7,-21,1001,-16,0,-4
4692,-4,-21,1000,-17,0,-5
4693,-7,-21,1000,-15,0,-5
4694,-7,-19,999,-16,0,-5
4695,-6,-21,998,-15,-1,-6
4696,-7,-20,999,-16,0,-5
4697,-9,-22,1000,-16,0,-5
4698,-8,-21,1000,-15,1,-6
4699,-8,-20,999,-16,0,-4
4700,-9,-19,998,-15,1,-4
4701,-10,-20,1001,-16,1,-6
4702,-9,-20,1000,-16,-1,-5
4703,-9,-19,1000,-16,1,-6
4704,-8,-20,998,-16,1,-6
4705,-7,-19,999,-17,-1,-5
4706,-7,-19,998,-16,1,-6
4707,-9,-20,998,-17,0,-6
4708,-9,-20,998,-16,2,-5
4709,-8,-18,998,-15,0,-5
4710,-7,-19,998,-17,0,-5
4711,-8,-20,998,-18,1,-4
4712,-10,-20,1000,-17,1,-6
4713,-9,-19,1001,-17,0,-6
4714,-6,-20,999,-16,0,-6
4715,-6,-21,998,-16,1,-6
4716,-7,-20,1000,-16,1,-5
4717,-6,-20,998,-14,2,-6
4718,-7,-21,1000,-17,0,-6
4719,-6,-20,999,-16,1,-6
4720,-6,-21,998,-16,-1,-6
4721,-7,-19,998,-17,1,-5
4722,-7,-21,998,-17,0,-5
4723,-8,-22,998,-18,-2,-6
4724,-7,-20,1000,-21,-2,-7
4725,-7,-20,998,-16,3,-4
4726,-6,-20,998,-16,0,-5
4727,-8,-20,998,-16,1,-5
4728,-7,-19,999,-14,0,-6
4729,-7,-21,998,-17,0,-5
4730,-8,-22,1000,-17,1,-6
4731,-8,-20,999,-16,1,-6
4732,-6,-20,1000,-18,1,-5
4733,-7,-18,1000,-15,2,-6
4734,-6,-20,999,-17,1,-4
4735,-6,-20,1000,-14,1,-5
4736,-8,-22,999,-15,1,-5
4737,-8,-20,1001,-15,-1,-5
4738,-7,-19,999,-15,1,-6
4739,-7,-20,999,-17,1,-6
4740,-5,-20,1001,-16,1,-5
4741,-6,-19,999,-16,1,-5
4742,-6,-19,999,-17,1,-6
4743,-8,-19,999,-16,1,-6
4744,-7,-19,998,-18,0,-5
4745,-7,-21,999,-18,0,-5
4746,-6,-21,998,-16,0,-4
4747,-8,-23,999,-17,-1,-6
4748,-8,-20,999,-15,0,-7
4749,-7,-19,999,-17,1,-5
4750,-6,-19,1000,-17,0,-5
