sequence,AccelerometerX,AccelerometerY,AccelerometerZ,GyroscopeX,GyroscopeY,GyroscopeZ
0,-14,33,994,-9,23,-1
1,-124,42,993,-13,28,1
2,-136,1,996,-27,4,-3
3,-74,-44,982,-24,-14,-8
4,61,-63,1003,-13,-26,-12
5,120,-60,1011,-12,-18,-12
6,99,-14,1004,1,10,-7
7,1,29,995,-10,26,-2
8,-116,41,989,-17,26,2
9,-139,6,992,-25,8,-3
10,-91,-33,984,-26,-8,-5
11,48,-65,1006,-14,-27,-12
12,107,-65,1005,-13,-18,-13
13,110,-19,1005,-1,3,-7
14,26,25,999,-6,20,-4
15,-107,37,999,-17,28,2
16,-137,15,977,-21,11,-3
17,-101,-25,987,-26,-10,-7
18,23,-64,999,-19,-27,-12
19,100,-68,1011,-9,-21,-13
20,123,-28,1000,-5,-1,-8
21,30,18,1007,-4,22,-3
22,-82,37,1004,-13,28,2
23,-143,21,976,-22,14,-1
24,-109,-16,985,-23,-6,-5
25,-3,-68,1001,-21,-24,-10
26,96,-68,998,-10,-21,-12
27,130,-33,1009,-3,-5,-9
28,44,14,1007,-4,17,-3
29,-61,32,1004,-12,27,1
30,-143,32,979,-21,19,1
31,-118,-12,994,-24,-2,-5
32,-25,-63,994,-22,-23,-10
33,86,-67,993,-13,-24,-12
34,134,-43,1006,-5,-9,-11
35,58,1,1009,-5,16,-4
36,-40,36,1002,-8,27,0
37,-141,42,983,-20,23,2
38,-126,-3,993,-25,-1,-5
39,-46,-57,992,-23,-21,-11
40,76,-66,1004,-14,-26,-12
41,130,-51,1001,-6,-12,-12
42,80,-6,999,-3,12,-5
43,-23,34,1003,-6,26,-1
44,-129,44,989,-18,24,2
45,-133,0,997,-24,5,-3
46,-70,-47,983,-24,-17,-9
47,60,-67,1005,-15,-27,-14
48,127,-65,1004,-6,-16,-13
49,91,-17,1004,-2,8,-6
50,1,32,995,-7,25,-1
51,-121,45,991,-17,27,3
52,-140,5,996,-25,7,-1
53,-87,-35,982,-25,-14,-8
54,52,-64,1004,-17,-27,-13
55,115,-66,1007,-9,-17,-12
56,111,-21,1007,-2,3,-8
57,17,27,997,-6,24,-2
58,-109,42,995,-14,27,2
59,-143,13,986,-24,11,-2
60,-101,-24,986,-26,-11,-7
61,32,-65,1004,-19,-27,-11
62,104,-68,1007,-9,-19,-13
63,125,-25,1002,-1,-1,-8
64,27,21,1004,-7,22,-3
65,-89,37,1005,-13,29,2
66,-144,19,975,-23,12,-1
67,-106,-16,981,-24,-7,-6
68,9,-66,1005,-19,-26,-12
69,97,-70,1002,-11,-21,-14
70,133,-30,1006,-3,-3,-10
71,42,14,1005,-6,20,-3
72,-69,35,1005,-10,27,0
73,-145,28,979,-21,17,0
74,-119,-12,992,-26,-3,-4
75,-9,-64,995,-21,-24,-11
76,88,-68,995,-12,-22,-11
77,133,-41,1001,-4,-7,-10
78,56,6,1015,-5,16,-3
79,-48,32,1003,-12,29,1
80,-142,35,982,-21,21,1
81,-125,-9,991,-25,-1,-5
82,-38,-58,995,-21,-21,-12
83,85,-65,998,-13,-23,-12
84,132,-49,1005,-5,-9,-11
85,71,-1,1005,-2,14,-3
86,-28,30,1002,-9,26,0
87,-134,42,985,-19,22,2
88,-132,-5,993,-23,2,-4
89,-60,-52,988,-23,-18,-10
90,71,-64,1004,-15,-26,-12
91,133,-53,1006,-7,-15,-12
92,84,-8,1001,-4,10,-5
93,-8,37,997,-8,26,-1
94,-132,41,990,-19,25,1
95,-134,-2,994,-25,4,-3
96,-79,-46,982,-24,-16,-8
97,55,-63,1004,-15,-28,-13
98,123,-61,1013,-7,-17,-12
99,101,-15,1008,-3,7,-7
100,7,32,990,-8,24,-2
101,-114,39,995,-17,26,1
102,-144,3,986,-24,8,-2
103,-91,-34,989,-25,-11,-7
104,39,-63,1006,-17,-26,-12
105,106,-66,1004,-9,-18,-13
106,119,-20,1005,-2,2,-9
107,22,21,1005,-6,22,-2
108,-97,39,999,-16,28,2
109,-142,12,980,-24,12,-3
110,-104,-23,982,-24,-9,-6
111,16,-67,1003,-19,-26,-12
112,98,-68,1006,-10,-21,-12
113,131,-27,1003,-3,-3,-9
114,34,20,1003,-4,20,-3
115,-73,35,1007,-13,27,1
116,-142,25,978,-23,15,-1
117,-115,-16,987,-25,-5,-5
118,-4,-64,999,-20,-24,-12
119,92,-68,995,-12,-23,-12
120,133,-34,1005,-3,-7,-9
121,51,11,1010,-5,17,-4
122,-58,33,1002,-11,28,2
123,-137,33,981,-21,20,-1
124,-125,-11,1001,-24,-3,-4
125,-29,-61,985,-20,-23,-11
126,84,-67,1001,-12,-25,-14
127,137,-45,1002,-4,-10,-12
128,67,3,1007,-3,16,-5
129,-33,32,1004,-10,27,-1
130,-140,39,984,-19,21,1
131,-127,-3,992,-24,1,-5
132,-53,-57,994,-23,-18,-10
133,74,-63,1003,-12,-24,-13
134,132,-53,1004,-7,-14,-12
135,80,-4,998,-4,12,-4
136,-17,31,1002,-11,26,-1
137,-125,41,988,-19,24,2
138,-137,-2,994,-25,5,-3
139,-72,-44,983,-24,-18,-9
140,60,-63,1005,-15,-26,-13
141,125,-57,1008,-7,-16,-13
142,97,-17,1006,-3,8,-6
143,5,32,992,-7,25,-2
144,-118,41,989,-16,25,3
145,-141,5,992,-25,6,-3
146,-89,-37,984,-26,-12,-7
147,44,-65,1004,-15,-27,-12
148,113,-67,1008,-10,-18,-13
149,111,-19,1004,-1,4,-7
150,21,27,1000,-7,22,-3
151,-102,41,999,-17,27,1
152,-143,10,981,-22,11,-1
153,-102,-22,984,-26,-9,-4
154,26,-67,1007,-19,-25,-12
155,99,-67,1006,-10,-19,-12
156,127,-26,1002,-2,-1,-9
157,32,21,1008,-6,22,-3
158,-87,35,1004,-11,28,0
159,-141,21,976,-23,14,-2
160,-110,-17,986,-25,-7,-6
161,0,-68,1001,-20,-24,-12
162,97,-65,1003,-13,-21,-13
163,132,-33,1006,-5,-4,-10
164,44,15,1008,-4,18,-4
165,-63,31,1005,-12,27,1
166,-140,28,981,-22,17,-1
167,-121,-12,995,-25,-3,-5
168,-20,-62,994,-22,-23,-11
169,87,-69,996,-12,-24,-13
170,136,-39,1004,-4,-10,-11
171,58,5,1012,-5,16,-3
172,-40,33,1006,-11,28,0
173,-141,35,979,-20,21,2
174,-129,-5,995,-24,-1,-5
175,-42,-56,995,-22,-20,-11
176,76,-66,1001,-14,-24,-12
177,133,-49,1000,-6,-11,-12
178,75,-3,1002,-2,11,-5
179,-22,34,998,-9,25,0
180,-128,41,992,-19,24,1
181,-132,-5,997,-24,4,-4
182,-64,-48,984,-23,-19,-10
183,65,-63,1005,-16,-27,-14
184,126,-56,1008,-5,-15,-11
185,91,-12,1004,-3,9,-6
186,-2,34,992,-8,26,-1
187,-122,42,991,-17,26,1
188,-137,0,994,-24,6,-3
189,-86,-41,984,-24,-15,-8
190,55,-65,1004,-15,-27,-12
191,112,-64,1011,-7,-16,-13
192,107,-15,1003,-2,5,-7
193,15,28,1001,-6,23,-2
194,-111,39,996,-16,26,2
195,-140,7,983,-24,10,-1
196,-97,-26,988,-26,-10,-6
197,31,-66,1005,-19,-26,-13
198,105,-65,1003,-9,-19,-13
199,121,-23,1005,-2,0,-9
200,26,24,1004,-7,21,-2
201,-88,33,1003,-15,28,0
202,-145,17,972,-24,13,-2
203,-111,-15,983,-24,-8,-5
204,9,-69,1000,-20,-25,-12
205,95,-67,1005,-10,-20,-12
206,131,-27,1004,-3,-3,-9
207,38,16,1004,-5,20,-2
208,-69,36,1005,-14,27,0
209,-143,27,977,-23,17,0
210,-117,-13,995,-26,-4,-5
211,-15,-67,995,-21,-23,-13
212,90,-67,993,-11,-25,-13
213,133,-37,1005,-2,-9,-11
214,59,11,1014,-3,16,-4
215,-51,33,1003,-12,27,-1
216,-140,36,980,-20,20,0
217,-127,-8,998,-25,-3,-4
218,-39,-62,989,-22,-22,-10
219,82,-69,1001,-13,-24,-12
220,133,-48,1001,-5,-10,-12
221,73,-2,1003,-2,13,-5
222,-27,35,1003,-8,25,-1
223,-132,41,985,-19,22,2
224,-132,0,995,-25,3,-3
225,-64,-54,986,-24,-19,-9
226,67,-63,1006,-15,-28,-13
227,129,-55,1008,-8,-16,-13
228,86,-11,999,-5,8,-5
229,-6,28,997,-9,24,-2
230,-125,41,994,-16,26,1
231,-137,2,989,-23,6,-2
232,-81,-36,985,-24,-15,-8
233,57,-65,1006,-14,-26,-13
234,118,-60,1005,-9,-15,-12
235,107,-21,1006,-4,6,-6
236,10,26,998,-7,23,-1
237,-112,39,988,-15,26,3
238,-143,9,991,-23,10,-1
239,-93,-28,988,-25,-11,-6
240,34,-62,1002,-19,-27,-11
241,108,-65,1007,-9,-18,-12
242,116,-20,1005,-2,1,-8
243,25,23,1003,-6,21,-3
244,-91,36,1005,-14,28,2
245,-144,18,975,-24,13,0
246,-104,-18,982,-24,-9,-4
247,13,-67,1006,-20,-26,-11
248,94,-68,1004,-10,-20,-12
249,129,-29,1003,-3,-3,-9
250,37,18,1005,-4,20,-3
251,-73,38,1003,-12,27,1
252,-143,26,978,-21,15,-2
253,-116,-15,994,-24,-6,-4
254,-8,-62,995,-20,-24,-12
255,89,-67,998,-10,-24,-12
256,134,-38,1005,-3,-8,-9
257,51,9,1011,-4,19,-4
258,-53,33,1007,-10,27,0
259,-138,33,978,-19,20,1
260,-128,-11,996,-24,-1,-4
261,-32,-58,991,-22,-21,-10
262,81,-67,1000,-13,-24,-12
263,134,-45,1002,-5,-10,-11
264,67,0,1007,-4,13,-4
265,-33,35,1004,-9,26,-1
266,-134,37,983,-20,24,1
267,-129,-4,997,-24,2,-4
268,-61,-55,989,-22,-19,-9
269,74,-64,1007,-13,-25,-13
270,124,-55,1002,-6,-13,-13
271,86,-5,1001,-1,10,-6
272,-11,30,1000,-9,25,-1
273,-126,43,989,-18,26,2
274,-136,0,996,-26,5,-3
275,-78,-41,983,-24,-16,-9
276,57,-64,1004,-14,-27,-11
277,121,-60,1009,-7,-15,-14
278,100,-17,1009,-4,7,-6
279,7,31,992,-6,24,-2
280,-114,41,992,-16,26,2
281,-140,7,989,-23,9,-1
282,-92,-32,984,-25,-12,-7
283,40,-65,1008,-19,-27,-13
284,106,-65,1003,-9,-18,-12
285,116,-19,1004,-2,1,-7
286,23,24,1003,-7,21,-2
287,-96,37,1003,-17,28,2
288,-144,14,976,-24,13,-1
289,-105,-21,983,-25,-9,-6
290,21,-68,1004,-19,-26,-13
291,94,-70,1002,-9,-20,-13
292,128,-28,1006,-3,-1,-9
293,36,23,1009,-5,21,-3
294,-81,36,1000,-12,26,0
295,-137,23,975,-22,14,0
296,-117,-18,992,-24,-5,-5
297,-1,-63,992,-20,-23,-11
298,89,-69,1002,-12,-21,-12
299,132,-35,1003,-4,-8,-9
300,49,10,1005,-4,16,-4
301,-57,36,1007,-12,27,0
302,-137,34,978,-21,18,0
303,-123,-11,1001,-26,-3,-4
304,-30,-58,986,-24,-24,-10
305,83,-69,1002,-12,-26,-13
306,136,-44,999,-5,-10,-11
307,60,0,1007,-4,15,-3
308,-34,37,1006,-10,25,-1
309,-140,34,983,-20,22,2
310,-129,0,989,-24,0,-3
311,-52,-60,994,-24,-19,-11
312,75,-62,1003,-14,-24,-12
313,130,-52,999,-6,-12,-11
314,83,-8,1005,-3,11,-7
315,-16,29,994,-8,27,-2
316,-130,46,990,-18,26,2
317,-135,-1,996,-25,4,-3
318,-77,-42,984,-23,-16,-8
319,62,-62,1003,-16,-27,-12
320,123,-58,1011,-8,-14,-12
321,100,-17,1006,-4,8,-5
322,4,29,992,-7,25,-2
323,-116,40,990,-17,26,2
324,-143,5,990,-22,7,-1
325,-89,-33,984,-24,-12,-8
326,47,-63,1010,-17,-26,-12
327,109,-67,1001,-7,-18,-13
328,113,-18,1011,-1,3,-8
329,25,23,998,-7,22,-3
330,-104,37,1002,-16,28,2
331,-144,11,979,-24,12,-2
332,-101,-25,986,-25,-11,-5
333,21,-67,1001,-18,-27,-11
334,102,-63,1007,-10,-20,-13
335,124,-29,1005,-3,-1,-9
336,34,24,1004,-5,20,-3
337,-83,35,1009,-13,27,1
338,-144,21,973,-23,14,-1
339,-112,-17,985,-25,-7,-5
340,-2,-66,1000,-19,-24,-11
341,94,-68,1000,-12,-22,-13
342,136,-32,1004,-3,-7,-10
343,42,15,1011,-5,16,-4
344,-57,37,1000,-10,26,-1
345,-141,27,980,-18,21,0
346,-117,-7,996,-25,-4,-4
347,-28,-67,993,-21,-23,-10
348,89,-65,996,-11,-25,-12
349,132,-42,1004,-4,-9,-10
350,62,5,1007,-4,15,-4
351,-39,32,1006,-11,26,-2
352,-141,42,979,-20,21,1
353,-128,-7,993,-23,0,-5
354,-47,-56,997,-22,-20,-10
355,75,-68,998,-13,-25,-13
356,133,-51,1003,-7,-12,-12
357,75,-6,1003,-3,12,-4
358,-17,32,998,-8,24,-1
359,-133,40,993,-19,25,2
360,-133,0,995,-24,4,-3
361,-72,-47,985,-23,-16,-8
362,67,-61,1004,-13,-27,-12
363,123,-58,1010,-5,-16,-12
364,96,-15,1004,-5,8,-7
365,-3,29,995,-8,26,-2
366,-114,40,987,-15,26,1
367,-142,4,994,-24,6,-2
368,-84,-32,984,-23,-14,-8
369,48,-67,1006,-17,-26,-12
370,111,-64,1007,-9,-17,-13
371,108,-19,1007,-2,4,-7
372,20,25,997,-7,22,-3
373,-104,36,996,-14,26,3
374,-144,11,981,-23,11,0
375,-96,-25,987,-26,-11,-7
376,24,-62,1005,-18,-26,-12
377,102,-62,1002,-8,-20,-12
378,123,-27,1008,-3,-2,-9
379,32,20,999,-7,21,-3
380,-87,35,1007,-14,27,1
381,-144,20,975,-22,13,-2
382,-110,-17,986,-24,-8,-5
383,4,-63,1000,-21,-24,-12
384,95,-67,1005,-12,-22,-12
385,134,-26,1007,-3,-4,-9
386,40,13,1004,-5,19,-3
387,-66,37,1008,-13,28,1
388,-141,23,976,-23,18,-1
389,-119,-13,994,-26,-2,-5
390,-16,-64,995,-22,-23,-11
391,86,-65,993,-11,-22,-13
392,135,-40,1005,-4,-9,-11
393,57,7,1017,-5,15,-4
394,-41,33,1001,-11,26,0
395,-141,33,982,-19,20,2
396,-125,-6,995,-24,-2,-4
397,-41,-58,993,-22,-21,-10
398,78,-63,1000,-14,-25,-12
399,132,-49,1003,-5,-11,-13
400,74,-3,1001,-3,12,-5
401,-28,36,1001,-9,26,-2
402,-131,41,988,-19,24,1
403,-134,-4,995,-25,3,-4
404,-63,-51,988,-23,-17,-10
405,66,-63,1001,-16,-27,-13
406,127,-55,1009,-6,-15,-11
407,88,-10,1004,-2,9,-5
408,-5,31,990,-8,25,-2
409,-121,43,995,-18,25,1
410,-141,1,991,-24,5,-3
411,-83,-41,985,-24,-15,-8
412,52,-67,1006,-15,-27,-11
413,116,-63,1012,-8,-15,-12
414,106,-13,1006,-3,6,-6
415,10,28,997,-7,22,-2
416,-108,43,995,-16,27,3
417,-144,8,986,-23,10,-2
418,-95,-28,987,-24,-12,-8
419,30,-66,1004,-17,-26,-12
420,105,-67,1004,-7,-19,-12
421,117,-22,1004,-2,1,-7
422,27,22,1002,-8,23,-3
423,-90,38,1008,-16,26,1
424,-142,20,970,-24,13,-2
425,-107,-20,984,-24,-7,-6
426,10,-69,1006,-18,-25,-11
427,94,-68,1001,-12,-21,-12
428,135,-32,1007,-3,-4,-10
429,38,17,1004,-4,19,-3
430,-69,36,1004,-13,26,2
431,-142,28,981,-23,17,0
432,-120,-12,994,-26,-4,-5
433,-12,-67,992,-21,-23,-12
434,90,-68,996,-11,-23,-12
435,134,-37,1004,-4,-7,-11
436,52,7,1011,-4,16,-4
437,-51,34,1007,-12,27,-1
438,-137,35,983,-21,19,1
439,-124,-9,993,-25,-2,-5
440,-33,-59,997,-22,-23,-11
441,79,-64,999,-12,-25,-12
442,133,-49,1000,-7,-10,-10
443,72,-2,1007,-3,14,-4
444,-30,33,1002,-8,27,-1
445,-136,42,986,-20,22,2
446,-128,-5,996,-23,3,-4
447,-62,-49,990,-23,-18,-10
448,74,-64,1004,-14,-26,-13
449,127,-55,1005,-6,-14,-12
450,88,-8,1003,-3,10,-5
451,-8,30,997,-9,26,-2
452,-128,42,992,-19,26,2
453,-138,0,995,-23,6,-3
454,-81,-41,983,-24,-16,-9
455,58,-63,1004,-15,-27,-13
456,121,-61,1010,-8,-17,-12
457,103,-19,1011,-4,6,-7
458,7,25,990,-6,23,-2
459,-113,42,995,-14,25,2
460,-144,7,988,-23,9,-2
461,-93,-29,986,-25,-12,-7
462,41,-64,1005,-19,-27,-13
463,101,-65,1005,-8,-19,-12
464,120,-20,1003,-2,0,-8
465,20,21,1004,-7,22,-2
466,-92,38,1003,-14,28,1
467,-144,14,980,-23,12,-2
468,-103,-20,982,-25,-8,-5
469,13,-67,1004,-19,-26,-11
470,96,-65,1008,-11,-21,-13
471,129,-27,1004,-4,-4,-9
472,38,18,1008,-4,20,-3
473,-77,35,1003,-12,28,0
474,-141,25,980,-22,15,-1
475,-116,-15,988,-25,-6,-6
476,-4,-67,997,-20,-25,-13
477,89,-69,998,-10,-22,-13
478,133,-36,1003,-4,-8,-10
479,52,8,1011,-5,17,-2
480,-54,34,1003,-12,28,1
481,-142,32,980,-21,19,0
482,-117,-7,996,-24,-3,-5
483,-34,-64,991,-23,-23,-10
484,84,-68,994,-12,-23,-13
485,131,-47,1005,-6,-8,-11
486,63,1,1004,-5,14,-5
487,-33,32,1003,-11,25,-1
488,-137,41,984,-20,21,2
489,-125,-3,993,-25,2,-4
490,-56,-56,994,-23,-18,-9
491,73,-65,1002,-14,-26,-13
492,128,-55,1004,-6,-14,-13
493,82,-7,1002,-3,9,-5
494,-14,31,998,-8,26,-1
495,-127,42,993,-17,25,1
496,-135,-1,994,-22,5,-2
497,-73,-41,985,-23,-17,-7
498,60,-65,1001,-16,-26,-12
499,119,-61,1012,-7,-16,-12
500,100,-15,1006,-4,8,-5
501,7,29,992,-8,23,-1
502,-112,43,990,-16,26,2
503,-142,4,994,-23,7,-3
504,-89,-30,984,-24,-13,-8
505,42,-65,1005,-19,-26,-11
506,110,-65,1006,-9,-18,-13
507,114,-21,1005,-3,2,-8
508,18,27,999,-8,21,-2
509,-98,35,1006,-16,28,1
510,-145,12,973,-24,13,-1
511,-99,-22,984,-25,-10,-7
512,22,-66,1006,-19,-26,-13
513,97,-65,1001,-9,-20,-13
514,127,-25,1008,-3,0,-11
515,29,21,1007,-5,21,-3
516,-76,37,1002,-13,27,1
517,-141,20,978,-22,13,-1
518,-117,-14,989,-26,-5,-6
519,1,-66,1000,-19,-25,-13
520,88,-68,998,-12,-22,-12
521,134,-30,1004,-4,-7,-9
522,48,8,1008,-5,18,-4
523,-61,37,1003,-11,27,1
524,-137,32,981,-22,20,0
525,-123,-9,996,-24,-3,-6
526,-27,-63,988,-22,-24,-11
527,83,-66,999,-12,-24,-12
528,135,-46,1002,-5,-9,-11
529,65,2,1006,-4,15,-3
530,-38,35,1005,-9,27,0
531,-137,43,982,-20,20,0
532,-129,-6,995,-23,1,-5
533,-55,-55,988,-23,-19,-9
534,79,-67,1006,-14,-26,-12
535,130,-53,1001,-5,-13,-12
536,79,-4,998,-2,11,-4
537,-17,31,1002,-9,26,-2
538,-132,43,990,-18,25,2
539,-135,0,993,-25,5,-3
540,-73,-44,986,-23,-17,-8
541,63,-64,1001,-14,-27,-12
542,129,-59,1011,-7,-16,-12
543,94,-18,1008,-5,8,-6
544,3,33,993,-6,25,-2
545,-118,40,990,-17,26,2
546,-141,4,991,-24,7,-2
547,-86,-36,986,-25,-14,-7
548,47,-65,1003,-17,-26,-12
549,111,-64,1007,-10,-18,-11
550,113,-15,1008,-2,2,-7
551,19,25,999,-7,22,-3
552,-102,38,998,-15,26,2
553,-143,12,982,-24,12,-1
554,-100,-26,982,-25,-10,-6
555,26,-67,1006,-18,-26,-12
556,99,-65,1007,-10,-19,-12
557,126,-23,1002,-3,-1,-9
558,31,21,1008,-5,21,-3
559,-86,39,1003,-14,27,1
560,-142,19,976,-21,15,0
561,-112,-17,987,-25,-8,-5
562,0,-68,999,-20,-24,-10
563,93,-67,1002,-11,-22,-12
564,133,-32,1005,-6,-6,-9
565,42,15,1005,-4,19,-3
566,-60,34,1005,-11,28,0
567,-141,27,978,-22,19,1
568,-120,-10,996,-25,-2,-3
569,-20,-63,994,-22,-23,-11
570,88,-65,996,-11,-23,-12
571,133,-42,1003,-5,-8,-11
572,60,5,1008,-5,17,-5
573,-43,32,1005,-10,27,0
574,-139,36,979,-21,21,0
575,-125,-8,998,-25,-1,-4
576,-46,-59,991,-23,-20,-10
577,76,-66,1003,-16,-25,-13
578,134,-50,1000,-5,-12,-12
579,75,-2,1003,-1,11,-4
580,-22,33,1000,-9,25,-2
581,-134,40,989,-19,24,2
582,-130,-3,997,-25,4,-3
583,-72,-48,984,-25,-17,-8
584,66,-63,1002,-13,-27,-12
585,122,-58,1013,-7,-14,-11
586,98,-11,1001,-5,9,-5
587,-2,31,996,-7,26,-1
588,-117,44,991,-17,24,2
589,-142,2,995,-25,5,-3
590,-85,-36,981,-25,-14,-7
591,50,-67,1007,-17,-26,-12
592,116,-65,1010,-9,-17,-13
593,106,-22,1005,-2,3,-7
594,17,27,1000,-7,22,-3
595,-106,40,997,-16,27,2
596,-144,8,984,-22,12,-2
597,-96,-27,985,-27,-10,-7
598,30,-63,1007,-18,-26,-13
599,101,-69,1001,-9,-20,-13
600,121,-24,1007,-3,-1,-8
601,30,18,1005,-7,21,-4
602,-90,38,1003,-16,28,0
603,-143,19,976,-22,11,-2
604,-111,-17,984,-24,-8,-6
605,9,-64,1001,-20,-26,-11
606,93,-68,1005,-12,-20,-14
607,132,-33,1004,-4,-3,-9
608,43,14,1007,-3,19,-3
609,-68,35,1004,-11,27,1
610,-139,28,981,-21,17,1
611,-119,-13,993,-25,-4,-4
612,-18,-63,992,-22,-24,-11
613,90,-67,994,-12,-24,-13
614,133,-38,1005,-4,-10,-11
615,54,6,1005,-5,18,-4
616,-47,31,1008,-11,28,-2
617,-138,34,975,-19,21,1
618,-123,-5,997,-24,-1,-4
619,-36,-60,994,-21,-21,-10
620,80,-68,1000,-12,-24,-12
621,132,-45,1000,-6,-11,-11
622,74,-1,1003,-1,13,-7
623,-30,33,1003,-8,25,-1
624,-131,39,986,-18,22,2
625,-132,-7,999,-24,2,-4
626,-61,-51,986,-24,-19,-8
627,68,-64,1003,-14,-25,-13
628,131,-54,1009,-6,-14,-13
629,84,-10,1001,-2,9,-5
630,-5,33,995,-9,24,-2
631,-124,41,994,-19,26,2
632,-135,1,992,-24,6,-2
633,-86,-42,983,-24,-16,-8
634,56,-64,1004,-15,-27,-13
635,116,-63,1010,-9,-15,-12
636,104,-14,1005,-2,5,-7
637,9,26,996,-5,22,-3
638,-110,44,992,-15,26,2
639,-146,6,986,-24,9,-2
640,-93,-30,990,-24,-11,-8
641,31,-66,1001,-17,-26,-13
642,110,-68,1006,-8,-20,-13
643,119,-20,1006,-2,-1,-7
644,26,26,1006,-6,22,-3
645,-94,40,1004,-15,28,1
646,-144,17,976,-22,13,-1
647,-108,-17,983,-26,-9,-4
648,14,-70,1007,-19,-27,-12
649,96,-73,1002,-10,-22,-12
650,132,-29,1007,-3,-2,-9
651,35,19,1004,-5,21,-3
652,-73,37,1005,-12,26,0
653,-143,28,979,-22,16,-1
654,-118,-16,990,-27,-4,-5
655,-7,-67,997,-20,-23,-12
656,90,-72,994,-13,-23,-12
657,130,-39,1005,-3,-7,-10
658,51,7,1009,-4,16,-4
659,-52,37,1005,-11,29,0
660,-139,35,979,-21,20,1
661,-123,-5,995,-24,-3,-6
662,-30,-60,994,-24,-23,-12
663,82,-67,997,-12,-25,-12
664,131,-47,1004,-6,-9,-10
665,69,-2,1005,-4,14,-4
666,-33,32,1002,-9,25,-1
667,-135,38,986,-19,23,0
668,-128,-2,997,-24,1,-3
669,-55,-49,990,-24,-19,-9
670,69,-62,1004,-15,-26,-12
671,128,-56,1000,-6,-14,-12
672,83,-12,1005,-3,9,-6
673,-12,32,991,-9,25,-2
674,-127,43,995,-17,25,2
675,-132,1,993,-24,6,-2
676,-82,-40,984,-22,-16,-9
677,61,-63,1003,-15,-27,-13
678,115,-60,1014,-8,-17,-12
679,103,-16,1003,-4,6,-6
680,4,26,995,-8,23,-2
681,-112,42,988,-15,25,1
682,-141,3,992,-26,8,-1
683,-94,-28,983,-11,-9,-7
684,42,-63,1006,-12,-25,-12
685,108,-65,1003,-9,-20,-12
686,115,-20,1006,-2,1,-7
687,26,25,1000,-8,20,-2
688,-99,36,1005,-14,28,2
689,-142,15,978,-22,11,-2
690,-105,-25,986,-23,-10,-5
691,19,-63,1004,-18,-27,-11
692,98,-68,1005,-11,-20,-11
693,128,-21,1003,-5,-1,-10
694,37,18,1008,-4,20,-3
695,-78,39,1000,-12,28,2
696,-144,20,979,-21,14,0
697,-116,-15,988,-25,-5,-5
698,-4,-69,994,-21,-25,-11
699,90,-67,1002,-10,-23,-13
700,133,-35,1005,-2,-7,-10
701,49,10,1007,-4,18,-4
702,-57,39,1005,-13,28,0
703,-144,32,983,-20,19,0
704,-125,-14,991,-25,-1,-4
705,-29,-62,994,-23,-22,-10
706,84,-68,998,-12,-26,-13
707,135,-46,1004,-5,-10,-11
708,65,3,1005,-4,15,-5
709,-39,35,1006,-8,25,-1
710,-136,39,980,-21,21,0
711,-131,-5,997,-24,2,-3
712,-51,-56,989,-22,-19,-10
713,74,-66,1006,-15,-27,-13
714,133,-51,1000,-6,-14,-11
715,80,-4,1003,-2,10,-4
716,-19,32,996,-10,25,0
717,-125,44,992,-19,25,1
718,-141,0,994,-25,5,-2
719,-71,-43,983,-23,-18,-10
720,63,-66,1007,-15,-26,-13
721,123,-58,1006,-6,-16,-13
722,97,-17,1010,-3,8,-6
723,2,29,991,-7,25,-2
724,-119,42,986,-15,26,1
725,-139,2,996,-23,8,-4
726,-92,-34,984,-24,-13,-6
727,48,-65,1005,-15,-26,-13
728,112,-62,1008,-8,-17,-13
729,109,-15,1004,-1,2,-7
730,22,26,999,-6,23,-2
731,-101,36,1003,-16,27,2
732,-142,10,975,-24,12,-1
733,-98,-26,986,-24,-11,-7
734,24,-66,1004,-17,-27,-13
735,99,-64,1000,-9,-19,-13
736,126,-21,1009,-3,-1,-9
737,29,21,1003,-6,20,-2
738,-81,39,1003,-13,27,1
739,-143,20,979,-23,13,-1
740,-112,-13,984,-25,-7,-5
741,3,-65,999,-21,-24,-11
742,91,-66,1002,-11,-22,-14
743,131,-31,1006,-4,-6,-10
744,46,12,1007,-4,18,-4
745,-61,35,1005,-11,27,0
746,-141,32,980,-21,18,0
747,-121,-11,996,-25,-4,-5
748,-21,-61,991,-20,-23,-11
749,87,-68,997,-11,-23,-12
750,136,-40,1003,-4,-9,-9
751,61,4,1009,-3,15,-4
752,-40,35,1007,-9,26,-2
753,-140,37,982,-21,21,2
754,-124,-7,994,-24,-1,-5
755,-49,-60,994,-24,-21,-11
756,82,-64,1003,-12,-26,-12
757,130,-52,1001,-5,-12,-12
758,81,-3,1001,-2,11,-6
759,-22,31,1001,-10,24,-1
760,-129,43,988,-19,24,2
761,-133,-4,997,-26,4,-2
762,-69,-51,985,-22,-17,-11
763,64,-65,1003,-14,-27,-12
764,124,-55,1007,-6,-15,-13
765,93,-10,1007,-3,7,-6
766,-1,31,989,-10,25,-1
767,-119,40,993,-17,27,3
768,-140,0,990,-24,7,-4
769,-88,-37,984,-24,-14,-8
770,49,-66,1002,-15,-27,-13
771,113,-62,1013,-7,-17,-11
772,111,-16,1002,-1,3,-8
773,16,28,1001,-5,23,-3
774,-107,39,994,-15,28,2
775,-141,7,986,-25,10,-2
776,-98,-26,984,-25,-10,-8
777,29,-68,1005,-18,-26,-12
778,103,-68,1003,-8,-20,-13
779,122,-25,1006,-1,0,-9
780,30,24,1005,-6,22,-2
781,-86,38,1007,-14,29,2
782,-144,21,973,-22,14,0
783,-108,-19,987,-24,-9,-6
784,4,-68,998,-21,-26,-12
785,95,-68,1007,-11,-22,-14
786,132,-32,1006,-4,-4,-9
787,43,17,1004,-3,18,-3
788,-68,38,1007,-11,28,0
789,-143,32,978,-22,19,-1
790,-118,-14,995,-26,-4,-4
791,-16,-65,994,-22,-24,-11
792,89,-69,995,-12,-24,-14
793,135,-41,1006,-4,-8,-11
794,58,8,1008,-4,17,-3
795,-47,35,1005,-11,27,0
796,-140,37,981,-20,21,2
797,-127,-6,995,-24,-1,-4
798,-36,-59,995,-22,-21,-11
799,76,-69,1002,-13,-23,-11
800,132,-48,997,-7,-10,-11
801,72,-7,1005,-3,14,-4
802,-26,34,1002,-8,25,0
803,-133,41,988,-20,22,2
804,-131,-1,994,-25,4,-3
805,-61,-48,988,-22,-19,-10
806,68,-63,1006,-15,-26,-12
807,125,-55,1003,-6,-15,-12
808,90,-13,1004,-4,9,-6
809,-6,29,993,-9,24,-2
810,-122,40,993,-18,25,2
811,-138,0,994,-24,5,-3
812,-82,-39,982,-23,-15,-7
813,54,-58,1004,-14,-27,-12
814,118,-59,1012,-9,-16,-13
815,103,-19,1005,-6,5,-6
816,10,27,993,-8,21,-3
817,-111,36,991,-16,26,2
818,-141,6,985,-23,10,-2
819,-94,-28,988,-25,-12,-6
820,37,-64,1005,-17,-28,-12
821,108,-62,1004,-9,-19,-12
822,118,-19,1003,-4,1,-8
823,24,25,1005,-7,21,-2
824,-97,34,1002,-15,26,1
825,-143,16,976,-22,12,-1
826,-105,-26,983,-25,-8,-6
827,15,-65,1004,-18,-25,-12
828,102,-65,1003,-10,-20,-13
829,126,-20,1010,-2,-2,-9
830,38,20,1001,-6,20,-3
831,-78,37,1008,-12,26,1
832,-143,22,973,-22,15,0
833,-116,-21,993,-25,-6,-6
834,-7,-68,993,-20,-24,-10
835,89,-65,998,-11,-25,-13
836,136,-34,1003,-3,-7,-11
837,47,12,1012,-5,18,-3
838,-51,36,1004,-13,28,0
839,-143,33,979,-22,20,0
840,-121,-12,994,-27,-4,-5
841,-32,-63,994,-22,-23,-11
842,79,-63,996,-13,-26,-12
843,136,-46,1002,-5,-11,-11
844,65,3,1009,-4,15,-6
845,-33,40,1003,-9,26,-1
846,-135,41,983,-20,23,1
847,-132,-5,994,-26,3,-4
848,-55,-57,989,-25,-20,-10
849,75,-68,1007,-14,-26,-13
850,131,-58,1000,-6,-13,-11
851,87,-2,1001,-1,8,-6
852,-16,36,1000,-9,25,0
853,-127,48,990,-18,26,2
854,-134,-1,997,-26,5,-3
855,-75,-46,981,-25,-16,-10
856,63,-69,1004,-14,-26,-13
857,122,-63,1008,-7,-16,-12
858,97,-14,1008,-3,7,-6
859,8,31,994,-8,24,-2
860,-119,43,988,-16,26,3
861,-140,7,991,-24,7,-4
862,-91,-31,987,-26,-13,-9
863,45,-67,1001,-17,-26,-14
864,112,-67,1010,-9,-18,-13
865,115,-20,1000,-1,1,-7
866,20,24,1003,-7,23,-2
867,-98,40,998,-16,29,2
868,-146,15,983,-22,13,-1
869,-101,-20,981,-24,-10,-6
870,24,-69,1009,-20,-26,-12
871,102,-69,1000,-10,-20,-12
872,126,-29,1006,-2,-1,-10
873,34,20,1004,-3,21,-4
874,-85,39,1004,-13,28,1
875,-141,25,981,-22,15,-1
876,-114,-15,982,-25,-7,-5
877,2,-66,1002,-20,-25,-11
878,93,-70,1001,-12,-23,-13
879,133,-34,1005,-4,-6,-9
880,45,9,1006,-4,17,-4
881,-65,34,1008,-11,27,0
882,-140,33,975,-20,18,0
883,-120,-5,998,-25,-2,-5
884,-23,-61,989,-21,-23,-10
885,87,-65,998,-12,-23,-12
886,138,-44,1004,-6,-9,-10
887,59,2,1009,-5,17,-4
888,-43,34,1007,-10,28,-1
889,-141,33,979,-19,22,0
890,-125,-4,993,-24,0,-4
891,-39,-57,994,-22,-21,-10
892,76,-61,1006,-13,-25,-14
893,136,-49,997,-7,-12,-12
894,72,-5,1006,-3,13,-5
895,-24,31,995,-10,26,-1
896,-134,39,991,-20,25,1
897,-134,-4,993,-25,4,-3
898,-66,-48,991,-22,-18,-9
899,70,-62,1001,-14,-27,-13
900,126,-55,1008,-7,-15,-11
901,93,-8,1002,-3,9,-5
902,-5,31,998,-9,25,-2
903,-123,40,984,-19,26,2
904,-138,-3,1000,-23,5,-4
905,-86,-41,979,-23,-16,-8
906,56,-64,1005,-14,-28,-12
907,119,-60,1014,-7,-16,-13
908,106,-13,1003,-3,5,-6
909,12,31,998,-7,22,-2
910,-112,39,992,-16,26,3
911,-141,8,986,-23,9,-2
912,-96,-32,989,-26,-11,-6
913,32,-65,1002,-17,-26,-12
914,106,-64,1007,-8,-19,-12
915,120,-20,1003,-2,1,-7
916,27,27,1006,-7,21,-2
917,-90,34,1003,-14,27,0
918,-145,14,978,-22,13,0
919,-107,-22,980,-24,-9,-6
920,11,-65,1006,-18,-27,-13
921,96,-68,1003,-10,-21,-13
922,129,-30,1007,-4,-3,-10
923,40,16,1005,-5,19,-3
924,-75,39,1005,-12,28,1
925,-139,26,979,-22,17,-1
926,-119,-13,989,-24,-4,-4
927,-8,-66,998,-21,-24,-13
928,88,-67,1002,-12,-22,-13
929,133,-33,1001,-3,-8,-10
930,53,12,1010,-4,17,-5
931,-58,34,1008,-13,28,0
932,-141,34,975,-20,20,0
933,-121,-9,999,-25,-1,-4
934,-28,-60,993,-22,-23,-10
935,83,-65,998,-12,-25,-12
936,135,-47,1000,-5,-11,-11
937,67,0,1011,-4,14,-4
938,-32,34,1001,-8,27,-1
939,-138,42,983,-19,21,1
940,-130,-4,996,-23,1,-4
941,-55,-51,994,-22,-20,-10
942,76,-67,1003,-16,-26,-13
943,130,-54,1001,-7,-12,-13
944,86,-6,1001,-2,9,-5
945,-18,31,999,-8,25,0
946,-130,45,990,-17,25,0
947,-134,2,997,-25,6,-3
948,-76,-44,983,-23,-17,-8
949,63,-63,1003,-16,-27,-12
950,126,-63,1009,-7,-16,-13
951,95,-14,1004,-3,8,-6
952,1,30,994,-6,24,-1
953,-121,41,990,-17,26,2
954,-139,4,991,-25,7,-2
955,-91,-33,980,-25,-13,-7
956,50,-66,1004,-17,-26,-13
957,114,-64,1009,-8,-18,-13
958,109,-20,1004,-1,4,-8
959,22,26,1002,-6,22,-3
960,-107,40,996,-15,27,2
961,-145,13,982,-23,12,-2
962,-104,-24,985,-25,-10,-8
963,27,-65,1006,-19,-28,-14
964,104,-66,1000,-9,-21,-13
965,125,-25,1012,-2,-1,-9
966,35,22,1002,-5,21,-3
967,-88,36,1006,-13,29,2
968,-146,20,976,-22,14,-1
969,-114,-17,985,-26,-7,-6
970,9,-66,1000,-19,-26,-13
971,96,-66,1006,-12,-21,-13
972,135,-30,1005,-3,-4,-10
973,39,13,1008,-5,19,-3
974,-67,35,1006,-11,28,1
975,-143,25,978,-22,18,0
976,-118,-12,992,-24,-4,-6
977,-14,-65,997,-21,-24,-12
978,89,-66,993,-9,-24,-13
979,133,-39,1008,-5,-8,-10
980,57,7,1009,-5,18,-5
981,-46,33,1005,-12,29,-1
982,-139,36,978,-21,21,0
983,-126,-8,996,-26,-1,-5
984,-32,-56,991,-22,-21,-12
985,79,-67,998,-13,-24,-13
986,136,-47,1006,-6,-11,-12
987,69,0,1003,-3,14,-5
988,-32,36,1003,-11,26,0
989,-136,38,986,-20,22,2
990,-132,-1,993,-23,2,-4
991,-60,-53,993,-24,-18,-11
992,68,-65,1002,-14,-26,-11
993,131,-53,1003,-4,-13,-11
994,85,-12,1004,-4,9,-5
995,-9,32,996,-8,25,-2
996,-125,44,990,-17,26,2
997,-135,3,997,-25,5,-3
998,-80,-42,984,-25,-16,-9
999,59,-63,1002,-16,-28,-12
1000,118,-64,1011,-7,-17,-13
1001,103,-17,1007,-4,6,-7
1002,9,26,992,-8,24,-2
1003,-117,45,987,-16,26,1
1004,-145,4,995,-24,8,-3
1005,-92,-32,983,-25,-13,-7
1006,39,-66,1006,-17,-26,-12
1007,113,-65,1007,-8,-19,-14
1008,114,-22,1006,-2,1,-7
1009,21,26,997,-6,22,-2
1010,-100,37,1007,-15,27,1
1011,-146,13,973,-23,13,-1
1012,-105,-23,984,-24,-9,-5
1013,24,-67,1006,-19,-27,-12
1014,101,-68,1004,-10,-21,-13
1015,130,-25,1005,-4,-2,-9
1016,35,20,1009,-6,21,-2
1017,-83,35,1003,-13,32,3
1018,-145,22,975,-24,15,0
1019,-111,-15,985,-25,-6,-6
1020,0,-68,999,-20,-23,-12
1021,95,-68,999,-11,-21,-13
1022,136,-32,1006,-4,-5,-10
1023,46,14,1006,-4,17,-3
1024,-62,40,1007,-11,28,1
1025,-144,28,978,-22,20,-1
1026,-120,-12,997,-24,-3,-3
1027,-24,-66,991,-21,-24,-11
1028,89,-66,996,-11,-25,-12
1029,133,-41,1003,-4,-9,-9
1030,63,7,1010,-3,16,-4
1031,-42,33,1005,-12,27,-1
1032,-140,36,979,-20,21,2
1033,-129,-9,993,-23,-1,-3
1034,-45,-61,992,-23,-22,-10
1035,79,-65,1003,-14,-26,-13
1036,133,-46,999,-5,-11,-10
1037,76,-2,1003,-4,13,-4
1038,-22,30,1001,-8,26,-1
1039,-133,42,988,-20,24,2
1040,-133,-2,991,-25,4,-3
1041,-68,-51,994,-24,-17,-10
1042,67,-67,999,-16,-26,-12
1043,130,-54,1010,-6,-15,-12
1044,92,-11,1004,-5,10,-5
1045,0,31,996,-8,26,-2
1046,-124,45,988,-16,26,3
1047,-142,2,996,-24,6,-3
1048,-82,-39,982,-25,-14,-9
1049,52,-66,1006,-16,-26,-13
1050,121,-61,1008,-7,-17,-12
1051,110,-18,1011,-1,5,-7
1052,13,29,989,-7,24,-2
1053,-112,42,999,-15,27,1
1054,-145,9,985,-24,10,-2
1055,-97,-31,986,-25,-11,-7
1056,37,-64,1004,-19,-27,-13
1057,103,-69,1004,-9,-18,-12
1058,123,-20,1002,-3,0,-8
1059,27,22,1005,-5,21,-4
1060,-92,41,1004,-14,28,1
1061,-143,17,977,-24,14,-1
1062,-109,-18,983,-26,-9,-6
1063,16,-67,1004,-19,-27,-12
1064,97,-69,1004,-10,-20,-13
1065,129,-28,1003,-3,-2,-9
1066,38,16,1007,-2,19,-4
1067,-76,39,1003,-12,27,1
1068,-142,25,978,-22,16,0
1069,-117,-12,991,-25,-6,-6
1070,-8,-66,993,-21,-25,-11
1071,91,-68,1004,-11,-23,-13
1072,132,-38,1004,-3,-6,-10
1073,53,10,1010,-4,18,-4
1074,-56,35,1008,-11,28,0
1075,-139,34,978,-21,21,1
1076,-124,-8,999,-26,-2,-3
1077,-35,-63,991,-22,-23,-11
1078,83,-65,996,-12,-25,-14
1079,137,-47,1005,-4,-11,-10
1080,65,4,1008,-3,14,-4
1081,-36,34,1004,-10,26,-2
1082,-138,41,980,-19,21,2
1083,-131,-3,996,-25,1,-4
1084,-55,-56,991,-23,-20,-11
1085,75,-71,1003,-14,-24,-13
1086,134,-51,1000,-7,-13,-11
1087,82,-6,1002,-3,11,-5
1088,-16,31,999,-8,25,-2
1089,-130,42,988,-18,24,1
1090,-136,1,997,-25,5,-3
1091,-75,-44,982,-25,-17,-9
1092,64,-63,1003,-15,-27,-13
1093,126,-58,1009,-5,-15,-12
1094,97,-17,1004,-4,7,-6
1095,0,29,994,-8,25,-2
1096,-119,41,988,-17,26,3
1097,-142,6,991,-24,7,-3
1098,-88,-32,986,-24,-13,-9
1099,48,-60,1005,-17,-25,-12
1100,116,-63,1009,-9,-18,-12
1101,110,-21,1006,-3,2,-7
1102,19,27,997,-7,22,-3
1103,-108,39,994,-14,28,1
1104,-143,8,983,-22,11,0
1105,-104,-25,985,-25,-11,-7
1106,31,-62,1005,-19,-28,-12
1107,103,-64,1003,-9,-20,-14
1108,124,-24,1005,-3,1,-9
1109,30,23,1004,-6,21,-2
1110,-90,38,1004,-15,28,2
1111,-144,16,978,-24,13,0
1112,-110,-23,981,-26,-7,-5
1113,9,-64,1001,-17,-25,-12
1114,95,-67,1006,-10,-21,-13
1115,132,-22,1004,-5,-3,-8
1116,42,16,1004,-8,20,-2
1117,-69,36,1009,-13,27,0
1118,-139,23,978,-23,17,0
1119,-121,-16,993,-25,-3,-5
1120,-10,-66,998,-20,-24,-11
1121,88,-68,992,-12,-25,-13
1122,137,-31,1005,-3,-9,-11
1123,54,9,1010,-5,17,-4
1124,-47,36,1004,-12,27,0
1125,-141,30,981,-20,22,0
1126,-128,-9,994,-26,-1,-5
1127,-37,-62,991,-22,-21,-11
1128,82,-65,998,-11,-24,-12
1129,135,-45,1002,-5,-9,-11
1130,73,0,1005,-3,14,-5
1131,-29,35,1002,-9,27,-1
1132,-139,42,984,-20,24,3
1133,-129,-6,995,-25,2,-3
1134,-61,-54,986,-25,-18,-10
1135,76,-66,1009,-15,-25,-13
1136,132,-57,1001,-7,-14,-12
1137,85,-6,999,-2,9,-6
1138,-11,33,999,-8,24,-2
1139,-133,44,992,-18,25,2
1140,-135,0,993,-24,5,-2
1141,-77,-44,985,-22,-17,-9
1142,61,-66,1002,-15,-27,-13
1143,127,-62,1014,-8,-16,-12
1144,100,-18,1004,-3,6,-6
1145,4,30,995,-6,24,-3
1146,-112,43,990,-15,28,2
1147,-147,7,992,-24,8,-2
1148,-86,-31,984,-25,-13,-9
1149,44,-65,1008,-17,-26,-13
1150,111,-61,1002,-9,-18,-13
1151,116,-26,1008,-2,2,-7
1152,17,25,998,-7,21,-2
1153,-101,39,1002,-15,28,2
1154,-142,12,980,-23,11,-2
1155,-105,-22,985,-25,-9,-6
1156,26,-64,1005,-19,-27,-12
1157,100,-67,1004,-9,-20,-13
1158,129,-24,1004,-5,-1,-8
1159,31,16,1007,-6,21,-3
1160,-82,36,1003,-14,27,2
1161,-144,18,975,-23,13,-2
1162,-112,-10,986,-23,-7,-7
1163,1,-64,1001,-20,-26,-12
1164,95,-65,1002,-12,-22,-14
1165,134,-34,1006,-5,-5,-9
1166,46,12,1006,-6,17,-3
1167,-63,36,1005,-13,27,-1
1168,-146,27,976,-21,18,1
1169,-121,-13,996,-24,-3,-5
1170,-18,-63,990,-20,-24,-12
1171,88,-65,995,-11,-25,-12
1172,137,-36,1006,-5,-9,-10
1173,60,8,1010,-4,15,-3
1174,-44,32,1005,-11,27,0
1175,-138,33,980,-21,22,1
1176,-125,-8,991,-25,-1,-4
1177,-43,-57,993,-23,-21,-10
1178,78,-67,1002,-13,-25,-13
1179,134,-47,1000,-7,-11,-12
1180,76,-2,1003,-5,12,-5
1181,-24,33,1004,-10,26,-1
1182,-136,43,986,-20,23,2
1183,-130,-2,998,-23,4,-3
1184,-64,-53,984,-24,-17,-9
1185,67,-64,1004,-14,-26,-12
1186,130,-54,1007,-5,-16,-12
1187,87,-10,1003,-2,10,-6
1188,-3,30,998,-8,25,-2
1189,-125,43,991,-18,27,2
1190,-139,1,995,-25,7,-1
1191,-81,-40,982,-25,-15,-8
1192,51,-66,1007,-15,-27,-12
1193,119,-60,1008,-6,-16,-12
1194,105,-18,1013,-4,6,-7
1195,10,32,991,-6,23,-2
1196,-110,42,994,-16,28,2
1197,-143,6,986,-24,10,-2
1198,-94,-29,987,-26,-10,-7
1199,43,-66,1003,-18,-26,-12
1200,104,-67,1006,-8,-18,-11
1201,120,-15,1004,-1,1,-8
1202,22,18,1004,-6,21,-2
1203,-94,41,1001,-14,28,1
1204,-145,14,979,-24,12,-1
1205,-106,-16,980,-23,-10,-6
1206,17,-66,1006,-19,-25,-12
1207,99,-70,1005,-11,-18,-12
1208,127,-32,1003,-5,-1,-9
1209,37,19,1006,-5,20,-3
1210,-77,37,1007,-13,28,1
1211,-144,24,978,-23,17,1
1212,-116,-13,987,-25,-5,-6
1213,-6,-66,1000,-20,-23,-12
1214,95,-68,998,-11,-22,-13
1215,133,-36,1004,-5,-7,-8
1216,48,8,1010,-4,17,-4
1217,-55,36,1007,-11,28,-1
1218,-142,30,974,-19,19,0
1219,-124,-9,1000,-24,-4,-5
1220,-26,-59,988,-23,-22,-10
1221,86,-66,997,-12,-25,-12
1222,136,-44,1005,-5,-10,-11
1223,64,0,1007,-5,15,-5
1224,-37,33,1002,-10,27,0
1225,-139,37,982,-19,21,0
1226,-127,-4,995,-22,1,-4
1227,-52,-54,993,-22,-20,-10
1228,76,-61,1002,-15,-25,-13
1229,131,-52,1004,-8,-13,-12
1230,80,-4,1000,-3,12,-5
1231,-18,28,1003,-10,27,-1
1232,-130,43,987,-18,25,2
1233,-134,-4,995,-26,5,-2
1234,-72,-45,983,-23,-18,-9
1235,61,-64,1006,-15,-26,-13
1236,128,-57,1006,-6,-15,-13
1237,93,-13,1006,-2,8,-6
1238,3,35,992,-8,24,-2
1239,-123,38,992,-17,26,3
1240,-139,6,992,-25,7,-2
1241,-89,-40,987,-25,-14,-7
1242,48,-63,1002,-15,-26,-12
1243,116,-65,1012,-9,-17,-12
1244,114,-16,1001,-1,4,-8
1245,14,27,1000,-6,23,-3
1246,-106,42,994,-15,28,1
1247,-144,8,982,-23,11,-1
1248,-99,-24,986,-23,-12,-7
1249,32,-67,1006,-18,-26,-13
1250,105,-66,1003,-9,-20,-13
1251,123,-24,1005,-2,1,-8
1252,28,22,1007,-5,21,-5
1253,-89,39,1002,-14,28,1
1254,-144,19,977,-24,13,-1
1255,-108,-20,982,-25,-7,-6
1256,10,-64,1003,-19,-26,-12
1257,97,-69,1005,-13,-22,-13
1258,131,-29,1008,-4,-3,-9
1259,44,16,1005,-6,19,-3
1260,-69,32,1006,-11,28,1
1261,-140,29,977,-21,17,-1
1262,-120,-15,994,-25,-4,-6
1263,-12,-59,995,-20,-24,-12
1264,90,-69,998,-13,-24,-13
1265,133,-38,1001,-3,-8,-11
1266,55,6,1011,-5,16,-4
1267,-45,34,1003,-10,27,-1
1268,-142,33,980,-19,22,1
1269,-123,-4,993,-24,-1,-6
1270,-37,-60,993,-23,-22,-11
1271,82,-62,996,-13,-25,-13
1272,134,-50,1005,-7,-10,-11
1273,70,0,1005,-3,12,-4
1274,-33,31,1004,-8,25,-1
1275,-134,44,983,-19,21,1
1276,-134,-2,996,-25,3,-4
1277,-56,-46,988,-22,-18,-9
1278,71,-62,1006,-14,-26,-12
1279,134,-56,1003,-6,-13,-11
1280,81,-13,1002,-3,9,-5
1281,-11,27,993,-9,24,-2
1282,-129,41,993,-16,25,2
1283,-136,4,994,-24,6,-3
1284,-76,-41,985,-25,-15,-8
1285,59,-61,1003,-14,-27,-12
1286,124,-61,1012,-8,-16,-13
1287,103,-18,1003,-3,7,-6
1288,3,26,993,-7,25,-2
1289,-115,43,988,-15,26,3
1290,-141,7,990,-23,8,-2
1291,-94,-29,984,-24,-12,-8
1292,44,-63,1008,-17,-25,-12
1293,110,-66,1003,-8,-19,-12
1294,118,-20,1007,-4,2,-7
1295,19,21,1000,-7,22,-2
1296,-101,38,999,-15,28,2
1297,-145,12,978,-23,12,-1
1298,-105,-22,985,-25,-10,-6
1299,25,-60,1003,-19,-28,-13
1300,100,-67,1006,-10,-21,-13
1301,130,-24,1003,-5,-1,-9
1302,30,17,1007,-5,22,-4
1303,-82,35,1003,-13,27,1
1304,-146,19,977,-23,14,0
1305,-115,-16,984,-26,-7,-5
1306,2,-66,1002,-19,-24,-12
1307,94,-66,1002,-13,-21,-12
1308,136,-30,1005,-4,-4,-9
1309,42,13,1007,-5,19,-3
1310,-57,35,1007,-11,27,0
1311,-143,33,976,-21,18,0
1312,-119,-13,995,-25,-3,-6
1313,-21,-65,994,-22,-24,-12
1314,84,-69,994,-11,-25,-12
1315,136,-40,1006,-5,-9,-11
1316,60,3,1010,-5,16,-4
1317,-40,35,1001,-11,26,1
1318,-141,36,983,-20,22,1
1319,-126,-7,991,-24,0,-4
1320,-45,-59,992,-23,-22,-10
1321,77,-66,1004,-13,-25,-12
1322,134,-50,998,-6,-12,-12
1323,78,-2,1003,-2,12,-6
1324,-24,32,1000,-8,25,-1
1325,-133,43,990,-20,24,2
1326,-129,-5,994,-25,3,-2
1327,-68,-49,990,-23,-17,-10
1328,68,-63,1001,-14,-26,-13
1329,125,-56,1005,-6,-14,-13
1330,92,-14,1008,-4,10,-6
1331,-2,33,990,-7,25,-2
1332,-121,43,993,-18,25,2
1333,-144,2,994,-24,6,-3
1334,-80,-40,983,-24,-16,-8
1335,52,-66,1003,-16,-27,-12
1336,116,-61,1010,-7,-16,-12
1337,108,-18,1008,-2,4,-8
1338,13,27,992,-7,23,-3
1339,-110,43,992,-15,27,1
1340,-143,7,989,-25,10,-3
1341,-96,-29,980,-26,-11,-7
1342,32,-64,1009,-18,-27,-11
1343,105,-65,1003,-8,-20,-12
1344,122,-22,1002,-3,1,-7
1345,26,26,1004,-7,22,-3
1346,-94,37,1003,-16,29,1
1347,-143,16,976,-23,13,-1
1348,-112,-21,982,-25,-9,-5
1349,15,-65,1005,-19,-27,-12
1350,96,-70,1006,-10,-20,-13
1351,133,-27,1001,-4,0,-7
1352,39,20,1010,-10,25,1
1353,-74,37,1002,-12,28,1
1354,-144,24,975,-24,16,-1
1355,-116,-14,994,-24,-5,-6
1356,-8,-68,993,-20,-24,-12
1357,95,-67,1000,-12,-23,-13
1358,135,-34,1006,-3,-8,-11
1359,51,13,1009,-5,17,-4
1360,-53,33,1005,-11,28,-1
1361,-147,35,981,-21,20,1
1362,-123,-8,990,-25,-2,-3
1363,-32,-65,995,-23,-23,-10
1364,88,-63,998,-11,-26,-12
1365,134,-45,1003,-7,-10,-11
1366,68,5,1009,-4,15,-5
1367,-32,32,1003,-11,26,-1
1368,-139,42,978,-20,23,1
1369,-136,-7,996,-25,2,-3
1370,-53,-54,991,-22,-18,-10
1371,70,-67,1006,-13,-25,-12
1372,137,-51,1002,-6,-15,-12
1373,85,-13,1004,-2,10,-5
1374,-15,33,993,-9,25,-1
1375,-129,41,996,-18,25,2
1376,-137,0,993,-23,6,-3
1377,-74,-45,981,-24,-17,-8
1378,64,-66,1005,-12,-29,-13
1379,122,-58,1009,-6,-16,-12
1380,102,-15,1006,-5,6,-7
1381,1,26,991,-7,24,-1
1382,-117,45,987,-15,27,3
1383,-142,3,993,-24,8,-2
1384,-91,-34,982,-24,-13,-8
1385,48,-62,1003,-18,-27,-12
1386,113,-66,1010,-8,-18,-14
1387,116,-17,1000,-2,2,-7
1388,22,26,999,-7,22,-2
1389,-109,36,999,-15,28,2
1390,-142,12,978,-24,11,-1
1391,-106,-25,984,-25,-9,-7
1392,26,-68,1006,-18,-27,-13
1393,101,-66,1003,-10,-21,-12
1394,129,-24,1006,-3,-2,-8
1395,32,24,1007,-7,21,-3
1396,-85,37,1002,-14,28,2
1397,-142,18,976,-22,14,-1
1398,-113,-19,988,-24,-8,-5
1399,3,-67,996,-21,-25,-11
1400,97,-70,1007,-11,-21,-13
1401,133,-31,1002,-4,-6,-9
1402,42,15,1008,-5,18,-3
1403,-65,37,1006,-11,26,0
1404,-143,29,978,-22,19,2
1405,-120,-12,996,-24,-2,-4
1406,-18,-67,992,-21,-23,-12
1407,90,-69,997,-10,-23,-12
1408,133,-38,1001,-2,-8,-10
1409,56,11,1010,-4,17,-3
1410,-42,33,1006,-10,28,0
1411,-141,37,979,-21,21,1
1412,-124,-4,993,-25,-2,-4
1413,-39,-61,994,-23,-20,-11
1414,76,-65,1002,-13,-24,-12
1415,134,-51,1001,-6,-11,-13
1416,75,-4,1005,-1,13,-5
1417,-24,33,998,-9,26,-1
1418,-131,44,988,-18,24,1
1419,-137,-3,1001,-25,3,-3
1420,-63,-48,982,-24,-18,-9
1421,65,-65,1008,-14,-26,-13
1422,128,-58,1004,-7,-15,-13
1423,89,-15,1005,-2,9,-5
1424,-4,33,988,-7,25,-2
1425,-123,44,996,-16,25,2
1426,-137,2,992,-24,5,-3
1427,-84,-38,984,-25,-16,-8
1428,55,-64,1005,-16,-26,-13
1429,115,-66,1009,-9,-16,-14
1430,105,-17,1005,-5,4,-6
1431,11,24,995,-6,23,-2
1432,-110,40,992,-15,25,2
1433,-143,6,984,-24,8,-2
1434,-96,-26,986,-25,-12,-7
1435,38,-63,1007,-19,-27,-12
1436,105,-65,1004,-10,-19,-13
1437,117,-21,1005,-4,1,-7
1438,28,22,1004,-7,22,-3
1439,-94,34,1004,-13,28,3
1440,-141,18,973,-22,13,-1
1441,-106,-21,989,-24,-9,-6
1442,17,-65,1001,-18,-25,-12
1443,94,-64,1006,-10,-20,-12
1444,132,-27,1006,-4,-3,-9
1445,33,18,1005,-5,20,-3
1446,-70,34,1004,-13,27,1
1447,-145,23,980,-23,16,0
1448,-116,-16,990,-23,-5,-5
1449,-10,-62,994,-19,-24,-11
1450,90,-66,998,-11,-24,-13
1451,137,-37,1006,-4,-7,-12
1452,50,6,1006,-6,17,-3
1453,-51,35,1009,-12,27,0
1454,-142,31,978,-20,20,1
1455,-124,-6,996,-26,-1,-4
1456,-30,-60,994,-22,-22,-11
1457,83,-65,998,-11,-24,-12
1458,135,-47,1000,-5,-10,-10
1459,66,-1,1008,-4,14,-4
1460,-31,33,1002,-9,26,0
1461,-136,41,983,-19,22,2
1462,-129,-5,996,-23,2,-4
1463,-55,-55,991,-23,-19,-9
1464,69,-63,1004,-15,-26,-12
1465,132,-54,1004,-5,-14,-12
1466,80,-10,1002,-4,10,-6
1467,-10,33,995,-9,27,-1
1468,-127,40,997,-17,26,3
1469,-138,0,991,-25,4,-3
1470,-77,-42,986,-24,-17,-9
1471,61,-62,1003,-16,-28,-13
1472,116,-61,1010,-8,-15,-12
1473,105,-16,1005,-4,7,-6
1474,3,29,996,-7,24,-2
1475,-115,43,986,-16,26,2
1476,-140,3,994,-23,7,-2
1477,-94,-31,984,-25,-14,-8
1478,42,-61,1006,-18,-27,-12
1479,112,-64,1006,-10,-19,-13
1480,111,-20,1008,-4,2,-7
1481,21,27,998,-6,21,-3
1482,-102,35,1002,-16,26,2
1483,-139,12,977,-22,11,-2
1484,-103,-22,984,-24,-10,-8
1485,24,-62,1005,-19,-28,-13
1486,101,-63,1006,-10,-20,-12
1487,124,-25,1002,-5,-2,-8
1488,32,18,1008,-8,21,-3
1489,-85,34,1004,-12,27,1
1490,-142,16,971,-23,14,0
1491,-113,-15,991,-24,-8,-5
1492,4,-62,996,-19,-25,-12
1493,91,-66,1002,-11,-21,-14
1494,135,-31,1004,-5,-6,-10
1495,43,12,1009,-5,18,-4
1496,-59,32,1003,-13,28,1
1497,-144,28,977,-22,19,1
1498,-119,-12,995,-26,-4,-5
1499,-21,-66,993,-22,-23,-11
1500,89,-61,995,-11,-25,-12
1501,133,-42,1006,-5,-8,-11
1502,63,7,1009,-5,16,-4
1503,-44,32,1006,-11,28,0
1504,-140,38,978,-20,21,1
1505,-128,-12,997,-24,0,-4
1506,-44,-58,989,-22,-20,-11
1507,80,-66,1003,-13,-24,-12
1508,134,-45,999,-5,-12,-11
1509,76,-5,1002,-3,12,-5
1510,-21,35,1002,-7,25,0
1511,-132,38,989,-19,24,2
1512,-131,-1,994,-25,3,-3
1513,-70,-50,985,-24,-17,-9
1514,66,-59,1003,-14,-27,-13
1515,126,-59,1008,-7,-16,-12
1516,92,-9,1005,-2,9,-7
1517,-2,29,991,-10,26,-2
1518,-120,42,992,-17,27,2
1519,-139,0,990,-25,7,-1
1520,-87,-35,985,-25,-15,-8
1521,53,-65,1004,-16,-26,-12
1522,115,-60,1010,-8,-17,-12
1523,111,-18,1007,-4,3,-6
1524,16,24,998,-6,22,-3
1525,-110,39,995,-16,28,2
1526,-142,9,982,-23,11,-2
1527,-99,-25,986,-24,-10,-6
1528,35,-66,1004,-18,-27,-12
1529,103,-64,1005,-7,-19,-14
1530,122,-23,1002,-4,-1,-8
1531,29,20,1007,-5,21,-2
1532,-88,35,1003,-14,29,3
1533,-145,18,976,-24,14,-1
1534,-110,-19,986,-26,-9,-6
1535,9,-66,1002,-20,-26,-11
1536,96,-67,1003,-11,-22,-13
1537,128,-28,1007,-3,-4,-9
1538,41,14,1007,-5,19,-3
1539,-71,38,1005,-12,26,1
1540,-139,27,979,-22,16,0
1541,-119,-14,993,-25,-5,-4
1542,-14,-70,994,-22,-24,-11
1543,87,-66,995,-11,-23,-13
1544,132,-38,1003,-3,-7,-11
1545,54,6,1011,-5,17,-4
1546,-47,35,1004,-10,27,-1
1547,-142,36,980,-20,20,0
1548,-126,-10,998,-25,-2,-5
1549,-39,-61,991,-23,-22,-10
1550,81,-68,1000,-14,-25,-14
1551,133,-48,1002,-4,-11,-11
1552,71,0,1001,-3,12,-5
1553,-29,31,1006,-8,25,-1
1554,-136,44,984,-20,23,2
1555,-130,-3,998,-27,2,-3
1556,-64,-53,988,-24,-19,-9
1557,74,-63,1005,-14,-26,-12
1558,127,-57,1004,-7,-15,-13
1559,87,-10,1004,-2,10,-5
1560,-6,29,993,-7,25,-2
1561,-124,40,991,-18,25,2
1562,-138,4,993,-24,4,-3
1563,-79,-38,984,-25,-17,-10
1564,54,-62,1004,-16,-26,-12
1565,121,-59,1009,-8,-16,-13
1566,103,-21,1008,-4,7,-7
1567,10,28,991,-6,23,-3
1568,-112,41,995,-16,26,1
1569,-141,7,985,-22,8,-2
1570,-94,-28,990,-24,-11,-7
1571,39,-63,1002,-18,-26,-12
1572,103,-66,1005,-9,-18,-13
1573,122,-22,1006,-3,1,-9
1574,20,24,1005,-7,23,-2
1575,-94,36,1003,-14,29,2
1576,-142,13,980,-22,12,-2
1577,-104,-19,977,-25,-10,-6
1578,12,-67,1006,-18,-27,-12
1579,97,-65,1008,-11,-21,-13
1580,126,-26,1005,-4,-2,-9
1581,40,17,1003,-5,20,-3
1582,-75,33,1010,-13,27,1
1583,-137,25,972,-22,15,0
1584,-119,-14,994,-24,-5,-5
1585,-9,-63,996,-19,-24,-11
1586,90,-69,995,-11,-24,-13
1587,131,-31,1005,-3,-8,-11
1588,51,12,1011,-5,16,-2
1589,-53,31,1006,-12,27,-1
1590,-143,31,976,-21,20,2
1591,-124,-9,997,-23,-1,-4
1592,-32,-64,993,-20,-22,-10
1593,80,-65,995,-11,-23,-12
1594,137,-41,1001,-6,-10,-11
1595,66,-2,1008,-3,14,-5
1596,-32,36,998,-9,25,0
1597,-135,38,986,-20,22,1
1598,-128,-5,996,-26,1,-4
1599,-54,-52,989,-24,-19,-9
1600,75,-64,1005,-14,-26,-13
1601,126,-53,1005,-7,-15,-11
1602,83,-7,1003,-4,9,-5
1603,-13,34,996,-9,26,-3
1604,-126,42,994,-17,25,1
1605,-132,0,992,-25,4,-4
1606,-77,-46,982,-24,-17,-8
1607,61,-61,1003,-15,-27,-11
1608,120,-62,1011,-9,-16,-11
1609,100,-15,1009,-2,7,-6
1610,9,30,993,-8,24,-2
1611,-114,42,992,-17,26,2
1612,-141,6,989,-23,8,-2
1613,-91,-27,988,-26,-11,-6
1614,40,-67,1006,-18,-27,-13
1615,107,-65,1004,-7,-19,-13
1616,115,-21,1004,-3,0,-7
1617,22,25,1002,-6,21,-2
1618,-93,38,1002,-14,27,1
1619,-146,18,977,-23,13,-1
1620,-102,-21,980,-25,-10,-7
1621,15,-68,1006,-20,-27,-12
1622,100,-69,1002,-10,-21,-13
1623,127,-30,1005,-4,-2,-9
1624,37,19,1004,-5,20,-3
1625,-77,38,1005,-12,28,1
1626,-142,27,978,-22,14,-2
1627,-117,-13,990,-26,-6,-5
1628,-6,-64,998,-22,-24,-12
1629,89,-70,999,-11,-22,-13
1630,137,-37,1002,-4,-7,-10
1631,50,8,1012,-4,17,-4
1632,-54,35,1005,-12,28,1
1633,-145,32,978,-20,19,1
1634,-120,-8,998,-24,-2,-4
1635,-31,-59,993,-22,-23,-9
1636,87,-67,995,-12,-25,-14
1637,133,-46,1006,-6,-10,-11
1638,64,1,1006,-3,14,-4
1639,-40,34,1003,-10,27,-1
1640,-137,39,983,-20,23,1
1641,-131,-5,997,-25,0,-4
1642,-54,-51,989,-23,-20,-10
1643,73,-66,1005,-15,-26,-13
1644,130,-54,1003,-5,-13,-12
1645,81,-8,1003,-3,12,-5
1646,-13,33,993,-8,26,-1
1647,-129,41,995,-18,26,1
1648,-133,1,991,-25,5,-4
1649,-76,-40,985,-23,-17,-9
1650,61,-59,1004,-15,-27,-12
1651,121,-63,1011,-7,-15,-12
1652,101,-15,1008,-3,7,-6
1653,5,26,994,-6,24,-2
1654,-115,42,988,-16,26,3
1655,-141,6,993,-25,8,-2
1656,-87,-32,985,-22,-11,-8
1657,44,-64,1009,-16,-25,-13
1658,111,-63,1003,-7,-19,-12
1659,115,-19,1007,-2,0,-8
1660,23,22,1000,-7,23,-3
1661,-101,36,1001,-16,28,1
1662,-142,16,979,-25,12,-1
1663,-104,-25,980,-25,-9,-6
1664,23,-63,1005,-17,-28,-13
1665,99,-67,1004,-9,-20,-13
1666,128,-21,1006,-4,-1,-8
1667,33,19,1004,-6,20,-2
1668,-81,38,1006,-13,27,1
1669,-140,20,972,-22,14,-1
1670,-115,-16,992,-25,-5,-6
1671,-1,-65,997,-19,-24,-12
1672,88,-70,997,-12,-22,-12
1673,133,-32,1005,-4,-7,-9
1674,45,13,1008,-4,18,-3
1675,-53,35,1003,-11,28,0
1676,-140,31,980,-22,19,1
1677,-121,-9,992,-25,-3,-4
1678,-27,-63,995,-21,-24,-10
1679,85,-65,997,-12,-24,-12
1680,131,-46,1004,-5,-9,-11
1681,67,1,1007,-3,15,-4
1682,-37,34,1002,-11,25,1
1683,-135,41,981,-20,21,2
1684,-127,-9,998,-25,0,-4
1685,-53,-54,988,-23,-19,-9
1686,77,-64,1005,-14,-25,-13
1687,131,-51,1005,-5,-13,-12
1688,77,-9,997,-3,12,-4
1689,-11,33,1001,-8,24,-2
1690,-130,43,990,-17,26,2
1691,-130,0,992,-15,14,-2
1692,-74,-45,988,-24,-17,-8
1693,64,-64,1000,-14,-27,-12
1694,121,-58,1015,-7,-17,-12
1695,96,-13,1003,-3,7,-5
1696,4,31,994,-7,24,-2
1697,-117,40,989,-16,25,2
1698,-143,3,991,-24,7,-3
1699,-85,-35,987,-26,-12,-8
1700,41,-65,1005,-15,-26,-11
1701,112,-60,1003,-8,-19,-12
1702,113,-18,1009,-3,3,-8
1703,19,30,997,-6,22,-2
1704,-101,37,1004,-17,27,1
1705,-144,11,976,-24,12,-1
1706,-101,-25,982,-25,-11,-6
1707,24,-69,1007,-18,-28,-12
1708,98,-68,1004,-9,-19,-12
1709,128,-21,1006,-4,-1,-8
1710,32,19,1007,-5,21,-3
1711,-82,37,1004,-14,29,3
1712,-142,20,975,-22,13,0
1713,-113,-14,989,-24,-6,-6
1714,0,-67,999,-20,-25,-12
1715,92,-67,1002,-12,-21,-12
1716,133,-35,1003,-4,-6,-9
1717,42,12,1008,-5,17,-4
1718,-58,33,1005,-13,26,-1
1719,-145,33,979,-21,18,1
1720,-120,-9,994,-26,-4,-4
1721,-24,-64,993,-22,-24,-11
1722,86,-65,993,-11,-26,-12
1723,130,-44,1004,-6,-8,-11
1724,61,2,1008,-5,16,-4
1725,-38,33,1003,-9,28,-1
1726,-138,38,980,-21,21,2
1727,-125,-4,1001,-24,1,-5
1728,-50,-55,988,-24,-20,-11
1729,76,-64,1004,-14,-27,-13
1730,129,-52,999,-6,-13,-11
1731,81,-7,1003,-3,10,-5
1732,-19,30,997,-8,24,-2
1733,-131,43,993,-18,24,2
1734,-131,-2,992,-24,3,-4
1735,-74,-44,984,-24,-16,-8
1736,65,-59,1004,-16,-27,-12
1737,120,-58,1011,-7,-15,-12
1738,94,-13,1008,-4,8,-5
1739,2,25,993,-7,24,-2
1740,-119,37,987,-17,25,2
1741,-137,4,993,-23,7,-2
1742,-90,-30,985,-24,-13,-8
1743,50,-63,1005,-18,-26,-13
1744,110,-62,1008,-9,-18,-13
1745,114,-16,1005,-3,3,-7
1746,20,25,999,-8,22,-1
1747,-106,34,1000,-14,27,2
1748,-140,9,979,-23,11,-3
1749,-101,-27,983,-23,-10,-8
1750,27,-61,1005,-17,-26,-12
1751,97,-62,1004,-10,-18,-11
1752,128,-22,1003,-4,0,-9
1753,28,21,1006,-5,22,-2
1754,-81,37,1003,-14,28,1
1755,-141,14,977,-24,13,0
1756,-113,-18,987,-24,-7,-4
1757,1,-67,1000,-20,-24,-12
1758,95,-65,998,-10,-21,-14
1759,133,-27,1005,-4,-5,-9
1760,43,16,1009,-5,18,-3
1761,-63,33,1005,-12,26,0
1762,-141,31,978,-21,17,0
1763,-121,-11,997,-24,-4,-4
1764,-19,-66,993,-21,-24,-12
1765,86,-69,996,-11,-24,-12
1766,135,-40,1004,-5,-8,-11
1767,59,6,1012,-6,15,-4
1768,-42,37,1000,-12,26,0
1769,-145,36,982,-20,20,2
1770,-121,-6,993,-24,0,-4
1771,-48,-58,992,-24,-19,-10
1772,80,-64,1002,-14,-24,-12
1773,129,-53,1002,-5,-10,-12
1774,77,-3,999,-2,12,-5
1775,-23,32,1002,-8,24,0
1776,-128,45,988,-19,24,2
1777,-131,-2,996,-24,3,-3
1778,-69,-47,985,-24,-19,-8
1779,65,-64,1001,-14,-27,-12
1780,127,-57,1010,-7,-15,-14
1781,90,-14,1007,-5,8,-6
1782,0,33,991,-9,25,-2
1783,-118,37,989,-19,26,2
1784,-141,7,996,-23,6,-3
1785,-82,-35,982,-25,-16,-8
1786,48,-62,1007,-17,-27,-11
1787,111,-63,1008,-8,-16,-12
1788,109,-21,1006,-1,3,-7
1789,18,25,995,-6,21,-2
1790,-105,39,1000,-14,27,3
1791,-140,16,979,-23,12,-1
1792,-98,-25,985,-25,-11,-7
1793,27,-62,1006,-18,-26,-11
1794,100,-71,1004,-9,-19,-12
1795,124,-22,1005,-1,1,-9
1796,28,17,1004,-7,22,-3
1797,-83,38,1006,-14,26,1
1798,-144,18,974,-24,13,-2
1799,-108,-14,988,-25,-7,-6
1800,3,-64,997,-20,-24,-11
1801,94,-66,1005,-11,-23,-13
1802,132,-31,1002,-4,-5,-9
1803,41,12,1007,-4,18,-4
1804,-63,32,1003,-13,27,0
1805,-142,28,979,-21,18,0
1806,-116,-10,993,-24,-3,-5
1807,-24,-61,998,-22,-23,-10
1808,90,-61,993,-10,-24,-12
1809,132,-41,1005,-5,-8,-11
1810,57,4,1010,-6,15,-4
1811,-41,30,1005,-12,27,-1
1812,-139,34,979,-22,20,2
1813,-127,-6,998,-24,0,-3
1814,-42,-53,992,-24,-20,-10
1815,78,-63,1004,-13,-24,-13
1816,131,-47,998,-7,-12,-11
1817,76,-5,1004,-5,13,-5
1818,-19,33,997,-9,27,-1
1819,-132,39,991,-19,24,1
1820,-135,-1,994,-25,3,-4
1821,-68,-48,985,-20,-17,-9
1822,62,-62,1004,-13,-27,-12
1823,127,-58,1010,-7,-15,-13
1824,91,-10,1003,-3,9,-7
1825,-3,28,991,-8,25,-3
1826,-119,41,991,-15,25,2
1827,-137,1,992,-24,6,-2
1828,-84,-38,987,-23,-13,-10
1829,51,-61,1005,-15,-25,-11
1830,113,-60,1005,-9,-17,-12
1831,109,-17,1006,-2,3,-8
1832,18,29,997,-6,21,-3
1833,-107,35,998,-16,27,2
1834,-142,6,981,-22,10,-2
1835,-98,-26,982,-23,-12,-6
1836,31,-65,1005,-18,-28,-13
1837,101,-63,1006,-10,-21,-12
1838,123,-22,1002,-4,0,-8
1839,29,18,1006,-7,21,-2
1840,-85,35,1005,-14,27,2
1841,-140,16,975,-22,13,-2
1842,-110,-19,989,-24,-8,-5
1843,8,-65,998,-20,-27,-12
1844,96,-64,1003,-10,-22,-13
1845,130,-29,1002,-7,-5,-9
1846,40,14,1008,-5,19,-4
1847,-67,33,1004,-11,26,0
1848,-139,28,979,-22,16,-1
1849,-117,-14,993,-25,-3,-6
1850,-19,-65,994,-19,-22,-11
1851,89,-63,994,-11,-23,-11
1852,134,-39,1007,-4,-8,-11
1853,58,9,1009,-4,17,-5
1854,-44,34,1007,-9,28,-1
1855,-137,38,976,-21,20,0
1856,-129,-9,1000,-25,-2,-5
1857,-44,-60,986,-22,-21,-10
1858,79,-65,1007,-12,-25,-13
1859,131,-44,997,-5,-12,-12
1860,75,-7,1007,-2,11,-5
1861,-24,36,995,-9,24,-1
1862,-131,43,993,-18,24,1
1863,-131,-5,996,-26,3,-3
1864,-67,-48,987,-23,-17,-8
1865,65,-61,1001,-14,-26,-12
1866,130,-58,1011,-7,-15,-13
1867,88,-14,1003,-2,8,-5
1868,-1,31,992,-8,24,-2
1869,-122,40,990,-17,26,3
1870,-138,5,994,-24,6,-3
1871,-87,-39,984,-25,-15,-8
1872,52,-64,1003,-15,-27,-13
1873,113,-63,1009,-9,-17,-11
1874,106,-16,1007,-3,5,-6
1875,16,25,998,-6,23,-2
1876,-105,37,999,-16,27,2
1877,-142,13,982,-22,10,-2
1878,-95,-26,985,-26,-11,-6
1879,28,-66,1006,-19,-26,-12
1880,101,-69,1001,-9,-20,-13
1881,121,-23,1009,-2,-1,-9
1882,31,19,1004,-7,21,-2
1883,-89,37,1006,-14,28,2
1884,-140,19,976,-22,14,0
1885,-108,-17,987,-24,-7,-5
1886,7,-65,1001,-21,-25,-12
1887,92,-68,1002,-12,-21,-13
1888,136,-30,1002,-5,-5,-10
1889,37,13,1007,-4,18,-3
1890,-66,38,1005,-12,26,2
1891,-141,24,979,-22,18,0
1892,-119,-13,993,-24,-4,-6
1893,-15,-61,993,-21,-24,-12
1894,89,-63,998,-10,-23,-13
1895,131,-39,1002,-4,-8,-10
1896,57,4,1012,-4,16,-3
1897,-46,31,1004,-10,26,0
1898,-138,36,977,-19,19,2
1899,-123,-7,998,-23,-1,-4
1900,-43,-54,991,-22,-21,-11
1901,79,-62,1003,-14,-23,-13
1902,134,-49,1003,-6,-11,-12
1903,74,-3,999,-3,12,-5
1904,-24,31,1002,-9,25,-1
1905,-131,41,988,-18,23,2
1906,-129,-2,996,-25,3,-4
1907,-68,-45,983,-23,-17,-11
1908,68,-62,1007,-15,-26,-13
1909,128,-57,1002,-7,-14,-11
1910,90,-11,1009,-5,10,-5
1911,-2,30,993,-8,25,-2
1912,-121,42,988,-18,25,3
1913,-139,3,995,-24,5,-3
1914,-82,-36,985,-23,-15,-10
1915,52,-65,1004,-15,-26,-12
1916,113,-63,1011,-8,-16,-12
1917,109,-19,1003,-2,4,-7
1918,13,27,997,-7,22,-2
1919,-106,37,992,-16,26,2
1920,-142,10,983,-22,11,-2
1921,-94,-25,986,-24,-11,-6
1922,30,-65,1005,-18,-26,-12
1923,103,-65,1004,-10,-20,-13
1924,120,-23,1007,-4,1,-9
1925,29,22,1003,-7,20,-4
1926,-91,35,1007,-14,29,1
1927,-143,21,972,-22,14,-3
1928,-108,-20,986,-24,-9,-5
1929,8,-66,1002,-19,-25,-12
1930,96,-66,1004,-10,-21,-14
1931,130,-29,1004,-3,-3,-9
1932,40,17,1007,-3,19,-4
1933,-63,34,1003,-12,28,-1
1934,-145,28,978,-22,18,-1
1935,-112,-11,994,-25,-4,-6
1936,-19,-65,994,-20,-23,-12
1937,90,-65,992,-11,-24,-12
1938,135,-41,1009,-3,-9,-11
1939,55,6,1005,-5,16,-4
1940,-45,36,1003,-10,27,-1
1941,-140,36,982,-19,21,-1
1942,-125,-7,994,-25,-1,-4
1943,-41,-58,995,-22,-20,-11
1944,78,-66,1003,-13,-24,-13
1945,133,-48,1001,-6,-10,-11
1946,73,-6,1002,-2,11,-4
1947,-23,36,1002,-7,25,-2
1948,-129,40,986,-19,24,1
1949,-129,0,997,-23,3,-4
1950,-66,-47,986,-22,-17,-8
1951,66,-62,1005,-14,-25,-12
1952,124,-56,1005,-8,-14,-12
1953,87,-16,1007,-4,8,-6
1954,0,29,991,-7,23,-1
1955,-123,42,990,-16,25,2
1956,-139,7,994,-24,5,-2
1957,-84,-35,987,-24,-14,-8
1958,52,-62,1000,-17,-26,-11
1959,116,-64,1012,-11,-16,-13
1960,107,-18,1005,-3,4,-7
1961,15,25,994,-5,22,-3
1962,-108,37,997,-17,27,2
1963,-143,8,985,-22,10,-2
1964,-94,-24,984,-25,-12,-8
1965,30,-64,1009,-18,-27,-12
1966,101,-65,1001,-9,-19,-11
1967,123,-24,1006,-3,0,-8
1968,27,20,1002,-7,22,-2
1969,-86,33,1006,-12,27,2
1970,-143,20,976,-20,13,-2
1971,-109,-18,985,-24,-8,-5
1972,8,-63,1000,-19,-25,-12
1973,96,-68,1006,-12,-21,-13
1974,133,-29,1003,-5,-3,-9
1975,40,14,1007,-5,20,-3
1976,-65,36,1004,-13,26,1
1977,-147,27,978,-23,17,0
1978,-113,-12,993,-25,-3,-5
1979,-17,-66,995,-21,-23,-11
1980,90,-64,994,-12,-23,-12
1981,137,-38,1006,-5,-8,-10
1982,54,10,1011,-4,17,-5
1983,-44,35,1003,-12,27,0
1984,-142,34,982,-21,21,2
1985,-124,-9,994,-25,-2,-3
1986,-40,-61,996,-21,-22,-11
1987,79,-63,1001,-12,-27,-13
1988,131,-48,1002,-7,-12,-10
1989,73,0,1004,-2,13,-4
1990,-29,35,999,-9,26,-2
1991,-132,43,988,-21,23,1
1992,-130,-5,994,-26,4,-3
1993,-65,-50,989,-25,-19,-9
1994,70,-67,1001,-15,-27,-13
1995,125,-59,1007,-7,-15,-12
1996,86,-7,1005,-3,9,-6
1997,-3,34,993,-8,26,-3
1998,-120,42,989,-17,25,1
1999,-137,5,994,-24,6,-3
2000,-81,-36,984,-25,-15,-9
2001,51,-69,1002,-17,-26,-13
2002,117,-66,1009,-7,-17,-12
2003,108,-18,1007,-2,5,-6
2004,13,30,994,-5,23,-3
2005,-106,42,994,-16,26,3
2006,-143,9,984,-25,10,-2
2007,-96,-27,987,-26,-10,-7
2008,33,-67,1002,-19,-26,-11
2009,104,-69,1005,-8,-19,-12
2010,120,-21,1006,-3,-2,-8
2011,28,24,1005,-7,22,-3
2012,-90,36,1005,-14,28,1
2013,-143,22,977,-23,14,-1
2014,-109,-18,984,-25,-7,-6
2015,14,-68,1000,-18,-25,-13
2016,91,-72,1005,-12,-20,-12
2017,128,-29,1003,-2,-4,-9
2018,42,11,1006,-4,18,-4
2019,-66,39,1007,-13,27,0
2020,-143,28,975,-23,18,0
2021,-117,-13,997,-25,-5,-5
2022,-17,-66,993,-21,-22,-11
2023,91,-65,993,-13,-22,-12
2024,131,-43,1009,-4,-8,-10
2025,56,9,1009,-3,16,-3
2026,-45,33,1005,-12,28,0
2027,-139,38,981,-19,21,0
2028,-128,-8,992,-24,-2,-5
2029,-37,-61,994,-22,-23,-12
2030,77,-69,1004,-13,-25,-13
2031,137,-49,999,-3,-13,-12
2032,72,-2,1004,-2,8,-6
2033,-24,37,1000,-10,23,-2
2034,-132,44,987,-19,22,2
2035,-129,-5,994,-24,4,-2
2036,-63,-49,989,-24,-18,-9
2037,67,-64,1004,-13,-26,-12
2038,123,-58,1005,-6,-15,-11
2039,93,-11,1006,-3,8,-6
2040,-6,27,994,-9,25,-1
2041,-122,44,989,-16,25,2
2042,-137,0,993,-25,5,-4
2043,-81,-36,982,-25,-15,-8
2044,56,-64,1005,-15,-26,-12
2045,115,-62,1011,-7,-16,-14
2046,103,-20,1005,-3,6,-7
2047,11,25,998,-6,22,-3
2048,-109,36,992,-16,26,2
2049,-138,9,987,-22,9,-2
2050,-94,-26,987,-25,-11,-7
2051,35,-62,1004,-19,-27,-11
2052,104,-66,1002,-11,-18,-12
2053,118,-22,1007,-3,1,-9
2054,26,20,1002,-6,22,-3
2055,-90,35,1006,-14,28,2
2056,-140,18,975,-23,12,0
2057,-106,-15,984,-24,-9,-5
2058,12,-66,1003,-19,-26,-11
2059,96,-67,1007,-11,-21,-11
2060,129,-29,1000,-6,-3,-8
2061,37,11,1010,-4,19,-4
2062,-68,38,1001,-10,26,0
2063,-138,26,979,-21,16,-1
2064,-114,-10,993,-24,-5,-4
2065,-16,-64,996,-20,-23,-10
2066,91,-64,992,-11,-23,-12
2067,129,-41,1009,-4,-9,-11
2068,56,6,1005,-5,15,-5
2069,-46,30,1008,-9,27,-1
2070,-138,38,977,-20,21,1
2071,-122,-8,996,-24,-1,-4
2072,-39,-53,996,-22,-22,-10
2073,80,-64,1000,-16,-25,-12
2074,134,-49,1003,-7,-10,-12
2075,71,-7,1004,-3,13,-5
2076,-31,33,1000,-7,26,0
2077,-132,41,990,-19,23,1
2078,-129,-2,997,-23,4,-3
2079,-65,-46,988,-24,-19,-10
2080,69,-63,1003,-15,-26,-13
2081,126,-56,1007,-6,-14,-11
2082,91,-12,1002,-3,8,-6
2083,-9,32,993,-8,24,-1
2084,-120,41,992,-17,25,2
2085,-133,3,994,-23,6,-3
2086,-83,-36,985,-23,-15,-6
2087,56,-61,1004,-17,-26,-12
2088,110,-63,1010,-9,-15,-12
2089,101,-16,1002,-2,5,-7
2090,14,25,1000,-7,22,-4
2091,-110,38,993,-16,27,2
2092,-140,7,983,-23,10,-3
2093,-97,-27,992,-24,-10,-7
2094,34,-64,1001,-17,-27,-11
2095,100,-64,1005,-8,-18,-13
2096,120,-22,1004,-3,-1,-7
2097,27,19,1005,-7,23,-2
2098,-88,33,1002,-14,29,2
2099,-143,17,978,-23,13,-1
2100,-107,-17,982,-23,-8,-6
2101,8,-65,1000,-19,-25,-12
2102,97,-64,1004,-10,-20,-14
2103,126,-27,1005,-4,-2,-9
2104,41,16,1003,-5,18,-4
2105,-67,34,1008,-13,27,0
2106,-140,25,974,-24,17,0
2107,-117,-14,994,-26,-4,-5
2108,-13,-62,993,-20,-23,-12
2109,86,-66,996,-11,-23,-13
2110,133,-38,1005,-4,-8,-11
2111,53,6,1010,-5,17,-3
2112,-44,35,1004,-11,27,-1
2113,-135,34,982,-22,20,1
2114,-126,-6,996,-25,-3,-3
2115,-37,-59,992,-24,-21,-10
2116,77,-68,1004,-13,-24,-13
2117,130,-49,999,-5,-12,-11
2118,73,-8,1004,-2,12,-4
2119,-26,34,1001,-9,26,-2
2120,-127,42,988,-20,23,1
2121,-132,-3,994,-25,3,-4
2122,-66,-48,989,-23,-18,-10
2123,66,-66,1002,-15,-27,-12
2124,122,-58,1007,-7,-15,-12
2125,91,-13,1008,-3,10,-6
2126,-4,32,993,-9,25,-2
2127,-120,44,985,-17,25,1
2128,-137,4,996,-23,6,-3
2129,-81,-36,982,-25,-14,-8
2130,51,-65,1007,-17,-25,-12
2131,116,-63,1008,-8,-16,-13
2132,105,-19,1004,-3,5,-7
2133,15,25,995,-5,23,-3
2134,-107,40,998,-15,27,2
2135,-138,15,982,-24,10,-2
2136,-96,-25,989,-25,-12,-7
2137,30,-66,1002,-18,-27,-12
2138,101,-68,1005,-9,-19,-13
2139,120,-24,1006,-4,0,-9
2140,27,19,1005,-7,22,-3
2141,-85,35,1002,-12,29,2
2142,-141,20,981,-22,13,-1
2143,-106,-15,984,-25,-9,-5
2144,7,-68,1000,-20,-26,-12
2145,94,-66,1005,-10,-19,-12
2146,130,-32,1004,-5,-3,-9
2147,39,12,1009,-5,19,-4
2148,-62,34,1003,-12,26,0
2149,-142,30,978,-20,18,0
2150,-113,-11,994,-25,-3,-5
2151,-22,-62,991,-23,-22,-11
2152,90,-68,995,-13,-23,-13
2153,129,-42,1006,-3,-7,-11
2154,55,3,1005,-5,16,-3
2155,-42,34,1006,-11,27,-1
2156,-141,37,978,-20,21,0
2157,-123,-2,994,-24,0,-4
2158,-41,-56,997,-24,-21,-11
2159,74,-65,998,-15,-24,-13
2160,133,-49,999,-6,-11,-12
2161,69,-9,1004,-3,12,-5
2162,-21,31,997,-8,24,-2
2163,-129,41,994,-18,24,1
2164,-130,0,995,-24,5,-4
2165,-63,-43,986,-22,-17,-9
2166,65,-59,1004,-14,-26,-12
2167,123,-59,1006,-7,-15,-11
2168,93,-15,1006,-5,10,-5
2169,-6,28,991,-7,25,-1
2170,-117,41,989,-16,25,1
2171,-136,4,994,-24,5,-3
2172,-84,-35,982,-25,-14,-7
2173,49,-62,1007,-17,-26,-13
2174,111,-63,1006,-10,-16,-12
2175,108,-16,1005,-3,4,-6
2176,13,24,999,-7,21,-3
2177,-105,35,998,-16,27,1
2178,-137,7,981,-21,11,-2
2179,-97,-26,985,-23,-10,-6
2180,32,-62,1006,-17,-27,-13
2181,98,-65,1003,-10,-20,-12
2182,122,-17,1004,-3,-2,-8
2183,28,16,1008,-9,21,-3
2184,-88,35,1000,-15,27,2
2185,-137,15,977,-24,13,-1
2186,-111,-17,989,-25,-7,-4
2187,8,-67,996,-19,-24,-11
2188,90,-65,1008,-11,-21,-12
2189,133,-27,1004,-4,-6,-10
2190,40,13,1003,-5,18,-4
2191,-61,34,1009,-12,26,0
2192,-139,22,979,-22,18,-1
2193,-118,-11,995,-24,-2,-5
2194,-24,-61,990,-22,-23,-10
2195,87,-64,996,-12,-25,-14
2196,129,-40,1003,-4,-8,-10
2197,57,5,1008,-4,15,-4
2198,-39,31,1005,-11,27,-1
2199,-137,37,978,-19,21,1
2200,-123,-6,997,-23,-1,-4
2201,-49,-55,991,-21,-20,-11
2202,76,-61,1004,-14,-25,-13
2203,129,-50,1000,-7,-10,-11
2204,76,-4,1001,-2,13,-4
2205,-16,32,1001,-9,24,-2
2206,-132,45,988,-18,24,1
2207,-132,-3,994,-23,5,-3
2208,-68,-47,984,-23,-17,-9
2209,62,-63,1003,-15,-28,-11
2210,124,-56,1010,-9,-16,-12
2211,96,-16,1010,-5,9,-7
2212,-2,33,990,-8,25,-1
2213,-117,39,993,-17,26,1
2214,-138,2,990,-24,8,-3
2215,-86,-33,983,-24,-13,-7
2216,49,-63,1007,-17,-26,-13
2217,109,-64,1007,-9,-18,-12
2218,114,-19,1006,-2,3,-7
2219,17,25,1002,-6,22,-2
2220,-104,37,997,-15,27,2
2221,-140,9,984,-23,11,-3
2222,-99,-21,981,-25,-12,-7
2223,25,-67,1005,-19,-28,-13
2224,101,-69,1005,-8,-21,-12
2225,123,-22,1005,-4,-1,-8
2226,35,18,1004,-5,22,-3
2227,-82,38,1005,-12,27,2
2228,-141,23,974,-23,14,0
2229,-111,-13,991,-25,-5,-6
2230,-2,-68,999,-20,-24,-11
2231,94,-64,996,-11,-21,-13
2232,129,-35,1006,-4,-6,-10
2233,43,14,1009,-4,18,-4
2234,-56,35,1007,-12,28,1
2235,-139,34,978,-22,20,-1
2236,-120,-8,997,-26,-3,-4
2237,-23,-64,992,-21,-23,-11
2238,83,-64,994,-12,-24,-12
2239,133,-40,1002,-5,-8,-10
2240,62,0,1010,-4,16,-4
2241,-36,33,1000,-11,24,0
2242,-134,37,982,-21,21,1
2243,-127,-9,997,-23,0,-6
2244,-48,-52,987,-24,-20,-10
2245,72,-63,1006,-15,-24,-11
2246,129,-52,1002,-6,-13,-11
2247,82,-8,1003,-3,10,-4
2248,-14,32,996,-10,25,-1
2249,-125,41,992,-19,24,1
2250,-126,-2,997,-25,3,-3
2251,-76,-43,982,-23,-16,-7
2252,59,-64,1006,-15,-26,-12
2253,120,-61,1009,-7,-16,-12
2254,97,-13,1009,-3,8,-5
2255,8,31,992,-9,23,-2
2256,-115,40,992,-16,25,2
2257,-139,7,985,-23,6,-2
2258,-90,-28,989,-25,-12,-7
2259,44,-65,1004,-17,-25,-12
2260,105,-67,999,-8,-18,-12
2261,116,-19,1008,-1,1,-8
2262,19,22,1001,-6,21,-4
2263,-92,41,1003,-15,28,1
2264,-140,13,978,-23,12,-1
2265,-103,-18,984,-23,-10,-5
2266,17,-64,999,-20,-25,-12
2267,93,-68,1009,-10,-18,-13
2268,128,-31,1002,-6,-2,-8
2269,35,15,1006,-5,20,-3
2270,-76,34,1003,-13,26,0
2271,-138,27,978,-22,15,-1
2272,-113,-13,993,-25,-4,-4
2273,-10,-61,993,-22,-24,-12
2274,92,-68,1000,-12,-24,-14
2275,129,-42,1000,-4,-8,-10
2276,50,8,1009,-5,16,-3
2277,-48,33,1009,-11,26,-1
2278,-140,37,975,-21,20,1
2279,-120,-6,996,-25,-2,-5
2280,-35,-57,996,-22,-21,-12
2281,81,-66,999,-13,-23,-11
2282,131,-50,995,-6,-10,-11
2283,65,-6,1008,-3,14,-5
2284,-27,31,998,-9,25,-1
2285,-133,42,986,-18,23,1
2286,-126,-2,996,-25,2,-3
2287,-58,-49,991,-25,-17,-9
2288,70,-60,1000,-16,-26,-13
2289,127,-59,1011,-6,-15,-12
2290,84,-15,1002,-4,9,-5
2291,-9,28,994,-10,25,-2
2292,-124,43,990,-17,24,2
2293,-133,2,998,-22,4,-3
2294,-77,-34,981,-24,-16,-8
2295,52,-61,1008,-17,-26,-12
2296,117,-61,1008,-9,-15,-12
2297,102,-20,1006,-4,6,-6
2298,9,25,994,-8,22,-2
2299,-111,35,996,-15,25,2
2300,-141,5,984,-22,9,-3
2301,-97,-22,986,-24,-11,-6
2302,37,-62,1007,-18,-26,-12
2303,103,-65,1003,-10,-19,-12
2304,117,-21,1004,-3,1,-8
2305,26,21,1007,-8,22,-4
2306,-95,33,1003,-15,29,2
2307,-140,17,973,-22,13,-2
2308,-106,-20,986,-24,-8,-7
2309,11,-63,1001,-18,-25,-11
2310,97,-66,1005,-11,-19,-12
2311,128,-29,1006,-5,-3,-9
2312,39,14,1007,-5,19,-3
2313,-69,31,1004,-11,27,0
2314,-139,23,978,-22,17,-1
2315,-113,-14,993,-25,-3,-5
2316,-21,-64,994,-21,-24,-10
2317,90,-62,994,-12,-23,-12
2318,129,-41,1005,-5,-7,-11
2319,54,7,1010,-5,17,-2
2320,-46,30,1006,-11,26,0
2321,-140,36,978,-20,20,1
2322,-123,-10,994,-24,-2,-3
2323,-39,-57,995,-21,-20,-11
2324,79,-62,1001,-13,-23,-12
2325,129,-46,1001,-6,-11,-10
2326,70,-4,1005,-3,13,-4
2327,-22,32,995,-9,25,-1
2328,-134,41,991,-19,24,0
2329,-129,-3,994,-24,2,-4
2330,-65,-47,984,-22,-17,-9
2331,66,-62,1002,-15,-27,-13
2332,123,-56,1012,-6,-15,-11
2333,91,-11,1002,-3,8,-5
2334,-2,31,991,-8,26,-2
2335,-117,40,993,-17,26,1
2336,-137,4,989,-24,6,-3
2337,-83,-36,986,-26,-13,-8
2338,52,-65,1009,-16,-25,-13
2339,112,-64,1003,-10,-16,-12
2340,108,-18,1007,-3,4,-6
2341,11,26,999,-6,22,-2
2342,-104,38,1001,-15,26,0
2343,-140,13,981,-23,12,-2
2344,-96,-24,983,-25,-11,-7
2345,28,-67,1008,-19,-26,-12
2346,97,-66,1002,-9,-20,-13
2347,123,-23,1005,-4,-1,-9
2348,29,18,1005,-6,21,-4
2349,-85,36,1002,-13,26,1
2350,-140,22,980,-22,13,-1
2351,-109,-17,988,-25,-8,-5
2352,1,-64,996,-20,-24,-12
2353,94,-65,1003,-11,-21,-13
2354,128,-32,1001,-4,-5,-10
2355,44,11,1009,-5,19,-3
2356,-61,36,1006,-13,27,1
2357,-139,33,977,-22,18,0
2358,-122,-10,996,-25,-3,-4
2359,-24,-60,994,-20,-23,-11
2360,87,-66,995,-12,-24,-13
2361,132,-42,1003,-6,-9,-11
2362,62,0,1007,-5,16,-4
2363,-39,29,1000,-9,26,-1
2364,-138,37,981,-19,21,2
2365,-128,-2,997,-22,1,-4
2366,-51,-55,992,-19,-20,-12
2367,78,-64,1004,-14,-19,-12
2368,129,-51,1003,-7,-11,-11
2369,80,-10,1001,-4,11,-5
2370,-18,28,999,-7,25,-2
2371,-127,42,990,-18,25,2
2372,-132,-2,997,-24,4,-4
2373,-76,-42,981,-22,-16,-8
2374,65,-61,1004,-15,-26,-11
2375,117,-63,1013,-7,-14,-12
2376,101,-15,1006,-4,7,-5
2377,0,27,993,-8,23,-1
2378,-113,41,990,-16,25,2
2379,-137,4,989,-24,9,-2
2380,-87,-30,987,-25,-12,-8
2381,43,-64,1006,-16,-26,-12
2382,106,-63,1006,-8,-17,-12
2383,115,-17,1002,-2,1,-8
2384,20,26,1006,-6,22,-3
2385,-97,35,1003,-15,29,1
2386,-140,13,975,-22,13,-3
2387,-101,-21,983,-25,-10,-7
2388,18,-66,1003,-18,-26,-12
2389,98,-62,1006,-10,-19,-12
2390,128,-28,1003,-4,-1,-10
2391,32,18,1005,-5,21,-3
2392,-74,35,1003,-14,27,1
2393,-141,23,979,-22,14,-1
2394,-115,-17,990,-26,-5,-5
2395,-6,-64,1001,-20,-23,-11
2396,89,-66,994,-10,-23,-13
2397,132,-36,1004,-4,-8,-10
2398,51,9,1011,-5,16,-5
2399,-54,31,1003,-11,28,-1
2400,-139,31,981,-20,19,-1
2401,-120,-10,996,-23,-2,-4
2402,-34,-60,992,-22,-21,-10
2403,83,-65,1003,-12,-24,-12
2404,129,-44,999,-5,-10,-10
2405,68,0,1005,-5,14,-4
2406,-35,33,1001,-9,26,-1
2407,-133,42,989,-20,21,0
2408,-125,-4,997,-24,1,-5
2409,-62,-51,988,-22,-18,-9
2410,77,-61,1005,-14,-27,-13
2411,121,-55,1007,-6,-13,-11
2412,84,-8,1000,-3,10,-5
2413,-8,29,999,-9,25,-1
2414,-124,41,988,-17,25,2
2415,-134,3,995,-25,6,-3
2416,-78,-38,985,-24,-15,-8
2417,55,-67,1003,-16,-27,-11
2418,116,-57,1007,-9,-14,-13
2419,100,-19,1008,-2,6,-7
2420,10,28,994,-6,24,-2
2421,-109,40,995,-16,26,3
2422,-142,11,985,-23,8,-1
2423,-89,-29,987,-24,-12,-8
2424,34,-66,1003,-18,-26,-12
2425,105,-68,1005,-8,-19,-12
2426,121,-22,1004,-3,1,-7
2427,22,21,1001,-6,23,-2
2428,-88,38,1007,-14,28,2
2429,-143,18,976,-23,12,-1
2430,-105,-20,982,-26,-10,-7
2431,10,-70,1004,-19,-26,-12
2432,94,-67,1000,-11,-20,-13
2433,128,-27,1007,-3,-3,-9
2434,37,17,1006,-3,20,-3
2435,-71,37,1003,-13,27,1
2436,-144,29,977,-22,17,0
2437,-118,-16,997,-26,-6,-4
2438,-12,-64,990,-22,-23,-11
2439,89,-67,999,-11,-22,-13
2440,135,-39,1004,-4,-8,-10
2441,52,6,1010,-5,17,-3
2442,-47,35,1003,-11,28,-1
2443,-139,35,983,-20,20,0
2444,-123,-6,990,-25,-1,-5
2445,-41,-57,998,-23,-22,-11
2446,81,-68,1002,-15,-23,-13
2447,129,-50,1000,-6,-10,-11
2448,71,-5,1002,-3,12,-3
2449,-26,34,1003,-8,24,-1
2450,-127,40,986,-19,25,1
2451,-128,-4,998,-24,4,-5
2452,-66,-48,983,-23,-18,-9
2453,71,-61,1006,-15,-26,-12
2454,121,-57,1006,-7,-15,-11
2455,92,-11,1007,-3,9,-6
2456,-4,30,993,-9,25,-2
2457,-119,41,987,-16,25,1
2458,-136,1,996,-24,5,-3
2459,-83,-36,984,-24,-15,-7
2460,51,-62,1004,-16,-26,-13
2461,113,-64,1010,-8,-17,-13
2462,104,-15,1001,-3,4,-7
2463,19,25,1001,-6,23,-3
2464,-105,35,997,-16,27,3
2465,-140,11,977,-24,11,-2
2466,-99,-25,989,-24,-10,-7
2467,27,-66,1004,-19,-27,-12
2468,97,-68,1005,-10,-19,-12
2469,121,-23,1006,-3,0,-8
2470,30,21,1007,-5,21,-3
2471,-85,38,1001,-13,28,1
2472,-142,23,976,-22,13,-2
2473,-107,-19,987,-25,-7,-6
2474,1,-69,1000,-19,-24,-11
2475,97,-65,1001,-10,-21,-12
2476,130,-34,1004,-4,-4,-10
2477,41,13,1007,-3,19,-4
2478,-61,32,1005,-11,28,-1
2479,-141,32,977,-20,18,-1
2480,-117,-12,996,-26,-5,-4
2481,-22,-61,994,-23,-24,-10
2482,83,-67,995,-11,-24,-11
2483,132,-42,1003,-5,-9,-11
2484,60,2,1009,-4,17,-5
2485,-38,34,1003,-10,27,-1
2486,-136,37,980,-21,20,0
2487,-126,-4,999,-23,0,-4
2488,-50,-55,988,-23,-21,-9
2489,75,-63,1007,-12,-24,-13
2490,126,-51,1002,-7,-12,-10
2491,78,-6,1002,-3,10,-6
2492,-19,31,995,-10,25,-1
2493,-127,45,992,-18,23,1
2494,-132,-4,994,-25,5,-3
2495,-73,-43,986,-23,-17,-8
2496,62,-66,1001,-15,-27,-13
2497,123,-59,1012,-6,-14,-12
2498,98,-15,1004,-3,8,-6
2499,2,31,995,-6,24,-2
2500,-118,40,986,-17,26,2
2501,-141,3,993,-24,6,-2
2502,-88,-36,990,-24,-13,-8
2503,43,-67,1004,-17,-26,-11
2504,111,-65,1007,-9,-17,-12
2505,114,-17,1006,-1,2,-8
2506,21,24,1000,-6,23,-2
2507,-102,37,1001,-15,28,2
2508,-140,12,980,-22,12,-1
2509,-103,-23,982,-23,-11,-6
2510,24,-68,1004,-20,-27,-12
2511,100,-68,1008,-10,-20,-12
2512,125,-25,1004,-5,-1,-8
2513,32,19,1007,-6,21,-3
2514,-76,32,1004,-12,28,2
2515,-143,24,973,-24,16,1
2516,-108,-15,994,-24,-6,-6
2517,-4,-68,998,-19,-24,-10
2518,95,-66,997,-10,-22,-11
2519,130,-35,1008,-4,-6,-9
2520,48,11,1010,-5,18,-3
2521,-55,30,1005,-12,27,-1
2522,-143,33,977,-21,19,1
2523,-119,-10,999,-24,-4,-4
2524,-28,-63,990,-22,-23,-11
2525,82,-65,1000,-12,-25,-12
2526,136,-48,1004,-5,-10,-11
2527,63,0,1004,-4,15,-4
2528,-37,35,1002,-9,26,0
2529,-133,40,986,-18,20,1
2530,-129,-6,992,-25,1,-4
2531,-52,-51,991,-22,-19,-11
2532,74,-65,1004,-14,-26,-12
2533,129,-51,1003,-5,-12,-11
2534,79,-7,1001,-3,11,-4
2535,-12,30,998,-8,26,-2
2536,-124,40,991,-19,25,2
2537,-134,0,995,-25,5,-2
2538,-77,-43,984,-24,-16,-9
2539,61,-62,1005,-13,-26,-12
2540,115,-60,1007,-9,-15,-12
2541,103,-15,1011,-2,7,-8
2542,5,29,992,-8,24,-2
2543,-111,40,989,-15,25,2
2544,-142,3,991,-22,9,-3
2545,-89,-26,986,-24,-13,-7
2546,38,-63,1007,-18,-26,-12
2547,109,-67,1005,-7,-18,-13
2548,116,-19,1007,-2,3,-7
2549,21,26,1000,-5,22,-2
2550,-95,37,1004,-15,27,2
2551,-141,14,976,-24,12,-2
2552,-104,-20,982,-25,-10,-5
2553,17,-65,1002,-19,-27,-11
2554,96,-68,1007,-10,-19,-12
2555,127,-26,1001,-3,-2,-9
2556,35,15,1009,-5,21,-4
2557,-74,37,1003,-13,27,1
2558,-142,26,978,-23,16,0
2559,-113,-15,993,-25,-4,-5
2560,-10,-66,995,-21,-24,-11
2561,90,-68,995,-10,-23,-12
2562,134,-38,1006,-1,-8,-10
2563,50,12,1009,-3,18,-4
2564,-51,35,1006,-12,27,-1
2565,-139,36,979,-19,20,0
2566,-122,-8,995,-25,-2,-4
2567,-34,-59,993,-23,-21,-11
2568,78,-68,1001,-13,-24,-12
2569,134,-46,1000,-4,-10,-10
2570,69,-2,1005,-1,13,-4
2571,-30,36,1002,-8,25,-1
2572,-137,39,987,-19,23,2
2573,-125,0,995,-26,2,-4
2574,-59,-52,990,-22,-19,-8
2575,71,-58,1002,-14,-25,-13
2576,128,-58,1009,-7,-13,-12
2577,83,-8,1002,-4,11,-6
2578,-11,29,992,-10,26,-2
2579,-124,40,996,-17,25,0
2580,-139,0,991,-24,5,-2
2581,-79,-39,983,-23,-16,-9
2582,57,-66,1007,-15,-26,-11
2583,116,-61,1007,-7,-15,-12
2584,103,-15,1008,-4,5,-5
2585,4,28,995,-7,23,-1
2586,-111,39,991,-16,25,3
2587,-141,5,988,-24,9,-3
2588,-91,-26,985,-24,-11,-8
2589,40,-66,1003,-19,-26,-13
2590,104,-66,1005,-8,-19,-12
2591,121,-21,1004,-3,0,-8
2592,22,23,1004,-6,23,-3
2593,-93,33,1003,-14,28,2
2594,-138,16,978,-22,11,-1
2595,-104,-19,983,-23,-8,-5
2596,15,-64,1003,-17,-25,-12
2597,97,-66,1009,-11,-21,-12
2598,128,-29,1001,-4,-3,-9
2599,36,12,1007,-6,18,-3
2600,-70,36,1002,-12,25,1
2601,-144,25,980,-20,16,-1
2602,-113,-14,994,-25,-5,-6
2603,-16,-63,997,-20,-23,-11
2604,96,-62,994,-12,-22,-13
2605,129,-41,1006,-5,-8,-10
2606,57,8,1010,-4,15,-5
2607,-50,27,1004,-11,29,-1
2608,-142,38,982,-18,20,0
2609,-123,-9,995,-25,-3,-4
2610,-36,-56,993,-21,-22,-11
2611,80,-64,1000,-12,-24,-13
2612,133,-45,1002,-6,-11,-12
2613,69,-4,1001,-3,13,-5
2614,-29,33,1001,-11,26,0
2615,-133,38,986,-19,24,1
2616,-129,-5,997,-23,2,-4
2617,-62,-47,987,-22,-19,-9
2618,67,-61,1005,-14,-25,-13
2619,127,-53,1009,-7,-14,-12
2620,88,-10,1005,-4,10,-5
2621,-7,30,995,-9,26,-2
2622,-123,37,991,-17,26,2
2623,-139,1,994,-23,5,-2
2624,-81,-38,982,-24,-16,-8
2625,52,-63,1006,-15,-27,-12
2626,116,-62,1007,-9,-15,-13
2627,106,-16,1007,-5,6,-7
2628,9,28,995,-7,23,-1
2629,-111,41,993,-18,26,2
2630,-141,5,985,-24,9,-1
2631,-92,-28,986,-24,-12,-7
2632,37,-66,1003,-20,-27,-12
2633,103,-67,1005,-7,-19,-12
2634,122,-18,1005,-1,0,-7
2635,25,21,1003,-8,23,-3
2636,-88,35,1005,-14,28,2
2637,-141,18,974,-22,13,-1
2638,-107,-17,984,-24,-8,-6
2639,8,-68,1004,-19,-25,-12
2640,97,-67,1000,-12,-21,-13
2641,130,-31,1008,-4,-3,-10
2642,39,16,1007,-4,19,-2
2643,-67,37,1005,-12,26,1
2644,-145,27,976,-22,16,-1
2645,-115,-12,997,-25,-4,-4
2646,-14,-65,991,-21,-25,-11
2647,90,-65,995,-12,-23,-12
2648,132,-41,1005,-4,-8,-10
2649,56,8,1012,-5,16,-4
2650,-46,31,1002,-10,27,-1
2651,-141,39,982,-19,19,0
2652,-123,-6,996,-26,-1,-4
2653,-40,-59,993,-24,-21,-9
2654,82,-66,1004,-13,-25,-12
2655,131,-54,999,-7,-11,-11
2656,72,0,1000,-1,13,-3
2657,-27,33,1001,-8,25,0
2658,-132,43,987,-19,23,1
2659,-128,-5,994,-24,4,-3
2660,-64,-46,987,-25,-17,-9
2661,70,-64,1002,-16,-26,-12
2662,125,-58,1009,-6,-14,-11
2663,89,-12,1002,-3,10,-6
2664,-5,30,996,-8,26,-2
2665,-119,41,990,-16,25,4
2666,-140,2,993,-25,6,-1
2667,-81,-35,986,-26,-15,-8
2668,53,-64,1006,-16,-25,-12
2669,115,-60,1007,-9,-15,-11
2670,103,-21,1010,-3,5,-6
2671,15,30,996,-6,22,-2
2672,-110,38,995,-16,27,2
2673,-138,12,984,-22,11,-3
2674,-98,-27,986,-24,-10,-7
2675,33,-63,1005,-18,-26,-13
2676,101,-66,1004,-8,-17,-12
2677,123,-22,1007,-1,0,-8
2678,24,22,1002,-6,22,-2
2679,-86,39,1004,-13,28,1
2680,-142,17,978,-23,13,-1
2681,-104,-19,983,-23,-8,-6
2682,9,-67,1000,-19,-26,-12
2683,98,-68,1004,-11,-22,-15
2684,128,-28,1002,-4,-4,-9
2685,42,17,1007,-7,19,-2
2686,-67,37,1005,-13,28,1
2687,-141,27,979,-24,17,-1
2688,-118,-13,995,-27,-3,-6
2689,-16,-66,994,-22,-23,-12
2690,90,-67,997,-11,-24,-13
2691,134,-42,1001,-4,-8,-11
2692,54,10,1014,-5,17,-4
2693,-45,36,1001,-11,26,0
2694,-141,38,982,-20,21,1
2695,-125,-6,992,-24,-2,-4
2696,-41,-59,997,-23,-21,-9
2697,81,-68,1000,-12,-24,-12
2698,131,-50,1006,-6,-9,-11
2699,77,-3,997,-3,13,-4
2700,-30,34,1005,-7,24,-2
2701,-130,44,986,-18,25,3
2702,-129,-1,998,-23,14,-1
2703,-64,-49,985,-23,-18,-10
2704,68,-66,1003,-14,-26,-12
2705,125,-58,1006,-8,-15,-12
2706,86,-17,1004,-2,9,-6
2707,-4,31,995,-8,24,-2
2708,-126,40,989,-18,26,2
2709,-131,4,994,-23,5,-4
2710,-84,-35,985,-25,-14,-8
2711,53,-60,1001,-17,-27,-12
2712,112,-65,1011,-10,-17,-13
2713,105,-17,1003,-4,5,-7
2714,11,23,997,-7,23,-1
2715,-107,38,996,-15,25,2
2716,-141,10,981,-23,8,-1
2717,-93,-21,984,-23,-12,-9
2718,29,-65,1008,-19,-26,-12
2719,101,-65,1001,-9,-18,-12
2720,121,-25,1007,-4,0,-9
2721,26,20,1003,-6,22,-3
2722,-87,37,1003,-13,27,1
2723,-143,18,978,-22,12,-2
2724,-109,-16,982,-25,-8,-5
2725,12,-66,1004,-19,-25,-11
2726,92,-68,1004,-11,-22,-13
2727,131,-29,1001,-4,-4,-10
2728,41,14,1008,-5,20,-4
2729,-65,35,1004,-12,28,1
2730,-139,29,980,-21,19,0
2731,-118,-12,994,-25,-3,-5
2732,-17,-63,993,-23,-25,-11
2733,92,-66,995,-11,-24,-12
2734,129,-40,1005,-3,-8,-11
2735,60,7,1008,-4,16,-4
2736,-47,33,1005,-9,28,-1
2737,-139,38,976,-18,21,1
2738,-122,-6,998,-23,-2,-4
2739,-44,-57,991,-23,-20,-10
2740,82,-63,999,-14,-25,-13
2741,135,-52,1006,-6,-11,-12
2742,69,-4,992,-3,13,-4
2743,-24,31,1009,-8,25,-1
2744,-132,41,985,-20,23,3
2745,-132,-1,996,-24,3,-3
2746,-63,-45,990,-23,-17,-9
2747,63,-61,1001,-16,-26,-12
2748,127,-59,1008,-8,-15,-12
2749,87,-13,1008,-3,9,-5
2750,-1,32,991,-8,25,-1
2751,-119,39,990,-18,26,2
2752,-140,3,995,-25,5,-3
2753,-80,-37,981,-26,-16,-8
2754,51,-63,1008,-16,-26,-12
2755,113,-61,1007,-10,-16,-11
2756,109,-16,1009,-4,6,-7
2757,15,24,996,-8,22,-3
2758,-108,37,997,-16,26,2
2759,-141,6,981,-23,11,-2
2760,-96,-22,986,-24,-11,-7
2761,31,-66,1004,-18,-27,-11
2762,103,-64,1004,-9,-19,-12
2763,120,-22,1003,-4,0,-8
2764,27,20,1002,-6,22,-3
2765,-89,37,1005,-14,28,1
2766,-141,16,976,-22,13,-1
2767,-109,-19,982,-24,-9,-6
2768,11,-66,1003,-20,-27,-12
2769,95,-66,1002,-13,-21,-13
2770,130,-27,1004,-4,-4,-8
2771,37,16,1008,-4,20,-3
2772,-68,36,1005,-12,27,1
2773,-143,27,979,-23,17,0
2774,-116,-15,995,-26,-3,-5
2775,-13,-65,993,-21,-23,-11
2776,84,-66,996,-12,-24,-12
2777,132,-39,1004,-4,-9,-11
2778,54,4,1012,-5,17,-4
2779,-48,39,1002,-12,27,1
2780,-139,35,988,-20,20,0
2781,-122,-9,994,-24,-3,-5
2782,-41,-59,994,-23,-21,-10
2783,83,-66,1004,-12,-24,-13
2784,130,-49,1000,-6,-11,-10
2785,71,-2,999,-2,12,-5
2786,-28,33,1004,-8,25,-2
2787,-135,43,982,-20,23,1
2788,-127,-1,995,-25,2,-4
2789,-62,-50,986,-23,-18,-9
2790,68,-63,1003,-16,-26,-12
2791,127,-56,1004,-6,-14,-13
2792,85,-15,1005,-3,11,-5
2793,-3,31,990,-7,25,-2
2794,-125,44,990,-17,26,2
2795,-137,4,992,-26,4,-2
2796,-79,-34,984,-24,-16,-9
2797,56,-62,1004,-17,-26,-12
2798,116,-62,1010,-9,-16,-13
2799,101,-19,1007,-4,6,-7
2800,13,24,996,-6,22,-3
2801,-110,39,992,-15,26,2
2802,-138,8,987,-23,10,-2
2803,-92,-22,989,-25,-9,-7
2804,33,-64,1006,-19,-26,-13
2805,103,-63,1004,-9,-19,-12
2806,120,-27,1006,-4,0,-9
2807,27,17,1005,-7,22,-4
2808,-90,35,1003,-15,28,1
2809,-141,18,978,-20,12,-1
2810,-107,-19,984,-24,-9,-5
2811,13,-63,1000,-20,-25,-12
2812,96,-69,1006,-11,-19,-13
2813,130,-30,1003,-5,-3,-9
2814,38,15,1005,-5,19,-3
2815,-68,33,1001,-12,27,1
2816,-142,25,979,-22,17,-1
2817,-114,-13,989,-26,-3,-5
2818,-10,-63,995,-21,-22,-12
2819,91,-66,994,-12,-23,-12
2820,132,-38,1003,-3,-8,-11
2821,53,7,1011,-6,18,-4
2822,-51,33,1006,-11,27,-1
2823,-139,35,979,-21,19,1
2824,-126,-6,996,-26,-2,-4
2825,-38,-58,993,-22,-22,-10
2826,82,-69,1004,-12,-25,-12
2827,133,-46,1002,-5,-11,-10
2828,71,0,1006,-4,13,-5
2829,-31,34,1001,-9,24,-1
2830,-136,38,989,-19,23,1
2831,-129,-7,993,-25,3,-3
2832,-62,-50,989,-22,-18,-10
2833,72,-64,1006,-16,-26,-11
2834,126,-58,1006,-7,-14,-12
2835,86,-9,1003,-2,10,-6
2836,-8,31,997,-7,24,-3
2837,-123,40,987,-18,25,1
2838,-137,2,996,-23,4,-4
2839,-80,-41,984,-23,-17,-9
2840,55,-62,1001,-14,-27,-12
2841,115,-62,1011,-6,-17,-13
2842,104,-11,1007,-2,6,-7
2843,10,28,994,-6,24,-1
2844,-114,43,991,-16,25,3
2845,-141,5,986,-24,9,-2
2846,-93,-28,983,-23,-11,-7
2847,34,-66,1005,-19,-27,-12
2848,102,-64,1003,-8,-19,-13
2849,120,-19,1004,-2,0,-7
2850,21,25,1005,-6,22,-3
2851,-96,37,1003,-13,28,1
2852,-145,14,978,-22,12,-3
2853,-103,-18,981,-25,-10,-6
2854,13,-67,1007,-19,-26,-12
2855,98,-69,1006,-10,-21,-12
2856,126,-29,1005,-4,-3,-9
2857,34,17,1007,-4,20,-3
2858,-71,36,1005,-12,26,1
2859,-140,23,976,-23,16,0
2860,-110,-14,996,-25,-6,-4
2861,-11,-66,992,-21,-24,-11
2862,92,-66,999,-12,-23,-13
2863,132,-37,1002,-4,-8,-9
2864,52,11,1012,-5,17,-3
2865,-52,30,1003,-12,28,1
2866,-138,32,979,-20,20,1
2867,-120,-7,995,-24,-2,-3
2868,-33,-59,990,-22,-23,-10
2869,82,-61,1000,-14,-24,-12
2870,134,-45,1001,-6,-8,-11
2871,65,1,1003,-4,14,-4
2872,-29,33,1003,-10,26,-1
2873,-137,40,983,-19,20,2
2874,-129,-3,994,-24,1,-4
2875,-58,-53,991,-22,-19,-10
2876,70,-61,1005,-14,-26,-11
2877,132,-50,1003,-7,-15,-12
2878,85,-8,1008,-4,10,-5
2879,-10,31,993,-9,26,-2
2880,-126,40,996,-18,25,1
2881,-138,2,998,-25,5,-3
2882,-74,-42,981,-24,-17,-10
2883,56,-64,1009,-16,-26,-13
2884,120,-62,1010,-9,-15,-13
2885,102,-18,1009,-4,7,-7
2886,9,28,993,-7,23,-1
2887,-115,42,989,-15,26,4
2888,-137,4,990,-23,8,-3
2889,-95,-29,984,-25,-11,-7
2890,43,-66,1004,-17,-26,-12
2891,106,-68,1004,-8,-18,-12
2892,117,-19,999,-2,1,-7
2893,21,25,1004,-6,23,-3
2894,-98,37,1002,-15,28,2
2895,-144,16,973,-24,11,-2
2896,-104,-19,981,-25,-10,-7
2897,17,-65,1002,-20,-27,-12
2898,100,-68,1004,-10,-20,-12
2899,124,-24,1007,-5,-3,-8
2900,35,17,1005,-6,19,-2
2901,-77,35,1004,-12,26,1
2902,-143,27,980,-24,15,-1
2903,-113,-14,995,-25,-6,-5
2904,-5,-65,996,-21,-23,-11
2905,92,-68,1001,-13,-22,-12
2906,133,-38,1004,-5,-7,-9
2907,48,7,1011,-5,16,-3
2908,-56,35,1007,-12,26,0
2909,-138,30,980,-21,19,0
2910,-121,-14,993,-24,-3,-4
2911,-31,-63,995,-21,-23,-10
2912,83,-66,999,-12,-25,-13
2913,132,-46,1000,-4,-10,-11
2914,65,1,1006,-4,14,-4
2915,-32,33,1002,-10,25,-2
2916,-135,39,981,-20,21,2
2917,-129,-3,995,-24,2,-3
2918,-54,-51,990,-24,-18,-9
2919,72,-62,1002,-15,-26,-11
2920,129,-52,1002,-7,-14,-11
2921,83,-6,1002,-2,10,-4
2922,-12,30,994,-9,26,-2
2923,-130,43,991,-18,26,1
2924,-135,1,997,-24,5,-4
2925,-76,-41,982,-25,-16,-9
2926,59,-62,1004,-14,-26,-13
2927,122,-60,1013,-7,-16,-12
2928,100,-19,1008,-4,7,-5
2929,5,28,995,-7,24,0
2930,-115,40,992,-16,25,2
2931,-140,6,993,-25,7,-2
2932,-89,-31,987,-26,-13,-8
2933,43,-65,1007,-18,-26,-12
2934,111,-64,1009,-7,-18,-13
2935,112,-23,1005,-3,1,-7
2936,21,25,1002,-6,22,-3
2937,-97,34,1005,-15,26,1
2938,-142,18,977,-22,12,-1
2939,-99,-25,983,-25,-9,-6
2940,21,-65,1004,-17,-26,-12
2941,97,-65,1001,-10,-20,-12
2942,129,-26,1008,-5,-1,-9
2943,29,18,1001,-6,21,-2
2944,-76,37,1004,-12,27,1
2945,-142,21,974,-21,15,-1
2946,-112,-12,992,-24,-6,-5
2947,0,-64,991,-20,-24,-13
2948,88,-64,1001,-12,-22,-12
2949,135,-32,1002,-5,-6,-9
2950,43,8,1009,-5,18,-3
2951,-57,36,1002,-12,27,1
2952,-138,28,980,-21,20,-1
2953,-118,-9,993,-24,-2,-6
2954,-26,-59,994,-22,-23,-10
2955,83,-63,1001,-12,-25,-14
2956,134,-45,1003,-7,-8,-12
2957,63,2,1006,-4,16,-6
2958,-35,29,1008,-9,26,-1
2959,-134,38,981,-19,21,1
2960,-128,-4,998,-24,0,-4
2961,-49,-51,995,-23,-20,-10
2962,73,-65,1006,-16,-25,-12
2963,126,-51,1002,-6,-12,-11
2964,82,-9,1001,-3,10,-6
2965,-12,30,1000,-10,26,-1
2966,-130,41,986,-18,25,3
2967,-132,0,997,-24,4,-3
2968,-77,-43,982,-23,-17,-7
2969,61,-57,1001,-14,-28,-11
2970,121,-57,1011,-8,-15,-13
2971,95,-13,1004,-3,9,-6
2972,3,30,992,-7,25,-2
2973,-117,40,991,-16,25,2
2974,-138,6,990,-23,7,-3
2975,-87,-32,986,-25,-12,-8
2976,46,-65,1005,-17,-27,-11
2977,107,-61,1006,-7,-18,-12
2978,115,-19,1007,-3,2,-8
2979,17,26,998,-6,23,-2
2980,-102,36,1000,-18,27,2
2981,-143,14,981,-25,11,-2
2982,-98,-25,982,-24,-9,-6
2983,23,-67,1006,-21,-27,-13
2984,100,-68,1007,-11,-21,-13
2985,127,-27,1002,-3,-2,-10
2986,30,16,1007,-6,21,-3
2987,-81,42,1007,-12,27,2
2988,-141,21,978,-22,15,-2
2989,-111,-18,987,-25,-7,-5
2990,0,-69,998,-19,-25,-12
2991,95,-68,1001,-11,-22,-13
2992,130,-32,1003,-2,-6,-9
2993,45,16,1008,-2,17,-4
2994,-59,34,1007,-12,27,0
2995,-140,36,978,-21,19,0
2996,-117,-12,996,-26,-3,-5
2997,-24,-63,991,-21,-23,-11
2998,85,-66,997,-12,-24,-12
2999,133,-42,1002,-5,-10,-11
3000,58,7,1006,-4,16,-4
3001,-38,36,1005,-10,27,1
3002,-137,39,982,-21,21,1
3003,-127,-3,993,-25,0,-3
3004,-49,-57,994,-24,-20,-10
3005,80,-66,1003,-13,-25,-12
3006,128,-52,1000,-6,-12,-10
3007,80,-5,1003,-4,12,-5
3008,-21,32,998,-8,26,-1
3009,-130,45,988,-18,24,0
3010,-130,0,999,-26,3,-5
3011,-70,-47,981,-25,-17,-9
3012,66,-65,1007,-16,-26,-11
3013,122,-60,1009,-8,-15,-11
3014,94,-17,1008,-3,8,-5
3015,2,28,990,-7,25,-2
3016,-117,40,993,-15,25,2
3017,-138,6,989,-23,8,-2
3018,-87,-32,987,-25,-14,-8
3019,45,-63,1002,-17,-26,-14
3020,113,-66,1008,-10,-17,-13
3021,108,-19,1003,-2,3,-7
3022,21,25,1001,-5,22,-4
3023,-101,38,996,-15,27,2
3024,-142,13,979,-22,11,-2
3025,-100,-22,985,-24,-10,-7
3026,29,-63,1005,-19,-28,-12
3027,100,-69,1002,-10,-20,-11
3028,126,-23,1005,-4,-1,-7
3029,32,18,1008,-6,21,-3
3030,-85,37,999,-12,27,2
3031,-144,23,978,-22,14,-1
3032,-108,-13,988,-26,-8,-5
3033,0,-67,999,-21,-25,-11
3034,98,-66,1006,-12,-21,-13
3035,131,-38,1005,-5,-5,-10
3036,45,14,1003,-4,18,-3
3037,-66,33,1010,-12,27,0
3038,-140,32,974,-22,16,0
3039,-119,-14,998,-33,-3,-3
3040,-20,-60,993,-22,-22,-11
3041,91,-66,998,-10,-24,-13
3042,136,-42,1003,-5,-9,-9
3043,57,4,1012,-4,16,-4
3044,-41,36,1005,-11,27,-1
3045,-145,36,982,-20,21,1
3046,-124,-3,995,-24,-2,-5
3047,-47,-59,994,-23,-21,-10
3048,81,-60,1000,-13,-24,-13
3049,133,-51,1003,-7,-10,-12
3050,74,0,999,-3,13,-4
3051,-19,31,1001,-8,26,-2
3052,-130,42,988,-19,25,3
3053,-133,-1,995,-25,4,-4
3054,-65,-48,988,-23,-17,-9
3055,64,-64,1002,-15,-26,-11
3056,127,-56,1009,-6,-14,-12
3057,88,-14,1008,-5,9,-5
3058,-1,31,988,-9,24,-2
3059,-122,42,993,-17,26,2
3060,-139,3,992,-26,7,-3
3061,-83,-36,985,-24,-15,-9
3062,51,-64,1007,-17,-26,-12
3063,112,-63,1006,-10,-16,-12
3064,109,-17,1009,-2,5,-7
3065,15,24,996,-7,21,-2
3066,-107,40,999,-15,26,1
3067,-141,10,981,-23,10,-2
3068,-98,-24,987,-25,-11,-7
3069,30,-67,1005,-19,-26,-13
3070,102,-66,1004,-8,-20,-12
3071,123,-22,1005,-3,0,-9
3072,32,22,1005,-7,21,-3
3073,-89,36,1004,-13,28,2
3074,-144,17,975,-21,13,-1
3075,-110,-21,986,-24,-8,-7
3076,8,-67,1001,-18,-25,-12
3077,99,-65,1001,-11,-21,-13
3078,135,-31,1006,-4,-4,-9
3079,37,15,1006,-4,20,-3
3080,-67,35,1004,-13,26,0
3081,-144,24,982,-21,18,0
3082,-118,-10,989,-24,-4,-5
3083,-15,-63,997,-20,-24,-12
3084,90,-65,994,-11,-24,-13
3085,134,-37,1005,-4,-8,-10
3086,54,8,1010,-5,18,-3
3087,-48,34,1006,-11,27,0
3088,-140,33,978,-21,20,2
3089,-125,-12,995,-24,-1,-3
3090,-37,-59,993,-23,-23,-11
3091,82,-65,1003,-13,-24,-13
3092,130,-45,1002,-6,-10,-12
3093,75,0,1003,-5,13,-6
3094,-29,34,1000,-10,27,-2
3095,-132,40,987,-20,23,2
3096,-132,-6,995,-25,4,-4
3097,-64,-51,987,-23,-17,-10
3098,72,-64,1007,-13,-26,-12
3099,126,-54,1006,-7,-15,-11
3100,88,-11,1004,-2,10,-7
3101,-6,31,995,-7,25,-2
3102,-124,41,987,-17,25,3
3103,-138,2,995,-24,6,-2
3104,-83,-38,984,-24,-16,-9
3105,53,-64,1002,-16,-27,-14
3106,119,-61,1014,-8,-16,-13
3107,106,-17,1004,-2,5,-6
3108,9,27,996,-7,22,-2
3109,-111,39,992,-17,26,1
3110,-142,7,986,-25,8,-2
3111,-94,-28,985,-25,-11,-7
3112,34,-63,1005,-19,-27,-12
3113,106,-64,1006,-8,-19,-12
3114,119,-22,1001,-3,1,-8
3115,25,24,1005,-7,22,-3
3116,-93,36,1005,-13,28,1
3117,-141,16,975,-23,13,-1
3118,-105,-19,986,-25,-10,-5
3119,11,-67,999,-20,-25,-11
3120,100,-66,1006,-11,-20,-14
3121,128,-28,1006,-4,-3,-8
3122,40,18,1005,-5,20,-4
3123,-72,36,1009,-13,27,0
3124,-144,24,974,-23,16,0
3125,-114,-18,993,-26,-5,-4
3126,-12,-68,993,-21,-24,-11
3127,90,-68,995,-9,-24,-13
3128,137,-37,1003,-3,-8,-11
3129,48,11,1015,-5,19,-3
3130,-45,38,1002,-12,28,1
3131,-142,32,984,-20,21,0
3132,-124,-7,990,-26,-2,-4
3133,-35,-63,994,-22,-22,-11
3134,82,-67,999,-12,-25,-12
3135,134,-46,1001,-5,-11,-11
3136,72,5,1004,-4,14,-5
3137,-32,33,1003,-11,26,0
3138,-134,43,982,-21,22,2
3139,-132,-8,999,-25,1,-4
3140,-59,-51,985,-23,-20,-10
3141,71,-68,1006,-14,-25,-12
3142,132,-52,1004,-6,-14,-11
3143,81,-8,1001,-4,10,-5
3144,-9,33,996,-9,26,-1
3145,-130,40,994,-18,25,2
3146,-136,2,988,-26,4,-2
3147,-79,-41,988,-25,-16,-9
3148,61,-66,1002,-16,-27,-13
3149,119,-64,1011,-8,-14,-12
3150,101,-16,1008,-4,7,-5
3151,7,28,995,-8,24,-2
3152,-112,43,988,-16,26,2
3153,-143,8,989,-24,9,-3
3154,-91,-29,988,-24,-11,-8
3155,44,-67,1004,-18,-27,-12
3156,105,-64,1005,-10,-18,-13
3157,119,-22,1004,-1,1,-8
3158,22,21,1002,-6,22,-3
3159,-99,38,1001,-15,27,2
3160,-142,15,982,-22,13,-3
3161,-104,-17,980,-23,-10,-6
3162,20,-62,1002,-18,-27,-12
3163,99,-67,1009,-12,-20,-14
3164,128,-28,1003,-5,-2,-7
3165,34,18,1006,-5,20,-4
3166,-76,36,1005,-13,27,1
3167,-142,23,976,-23,14,0
3168,-111,-11,990,-24,-6,-4
3169,-3,-66,997,-20,-24,-12
3170,92,-62,1001,-12,-23,-13
3171,130,-36,1004,-5,-7,-9
3172,47,12,1010,-5,18,-3
3173,-57,31,1006,-12,26,0
3174,-142,29,980,-21,18,0
3175,-122,-10,998,-25,-3,-4
3176,-26,-62,993,-22,-23,-11
3177,83,-65,997,-11,-24,-13
3178,135,-42,1003,-4,-10,-11
3179,64,1,1010,-3,15,-4
3180,-37,35,1002,-10,26,-1
3181,-137,36,984,-20,21,1
3182,-126,-6,994,-23,1,-4
3183,-53,-56,993,-24,-19,-10
3184,79,-67,1004,-14,-25,-13
3185,129,-52,1001,-5,-13,-11
3186,80,-5,1000,-3,11,-5
3187,-16,33,998,-8,25,-1
3188,-131,39,991,-20,25,2
3189,-135,-2,992,-25,5,-2
3190,-72,-47,985,-23,-16,-8
3191,62,-66,1002,-14,-27,-13
3192,122,-57,1007,-9,-14,-12
3193,93,-17,1007,-3,9,-6
3194,1,34,991,-8,25,-3
3195,-117,40,988,-18,27,3
3196,-139,5,993,-23,6,-3
3197,-91,-35,986,-25,-12,-7
3198,49,-64,1003,-17,-26,-12
3199,110,-66,1012,-9,-16,-12
3200,114,-14,1002,-3,4,-7
3201,19,24,1005,-7,23,-3
3202,-106,41,995,-15,28,2
3203,-140,11,983,-22,11,-2
3204,-98,-25,983,-24,-11,-6
3205,25,-70,1008,-20,-27,-11
3206,106,-69,1004,-9,-21,-14
3207,122,-24,1006,-4,0,-7
3208,36,23,1001,-6,20,-3
3209,-84,36,1011,-14,27,1
3210,-143,23,972,-23,13,-1
3211,-111,-20,988,-26,-8,-7
3212,3,-70,998,-19,-26,-13
3213,93,-69,1000,-11,-21,-13
3214,131,-29,1005,-4,-4,-10
3215,42,14,1006,-4,18,-3
3216,-63,37,1004,-12,27,1
3217,-143,31,980,-23,17,-1
3218,-117,-14,993,-26,-4,-5
3219,-17,-62,991,-21,-23,-11
3220,86,-68,993,-12,-23,-12
3221,136,-42,1004,-3,-8,-11
3222,53,4,1009,-5,17,-4
3223,-41,35,1004,-9,27,-1
3224,-142,36,980,-20,21,1
3225,-125,-1,994,-25,-1,-5
3226,-45,-55,993,-24,-20,-10
3227,80,-65,1001,-14,-25,-13
3228,132,-50,1003,-7,-11,-12
3229,76,-4,1002,-2,12,-5
3230,-25,30,1004,-9,26,-1
3231,-133,41,985,-21,23,1
3232,-132,-2,998,-23,4,-4
3233,-68,-47,984,-24,-18,-9
3234,70,-61,1006,-14,-27,-13
3235,126,-56,1007,-6,-15,-11
3236,89,-12,1006,-3,8,-5
3237,-3,28,993,-7,25,-2
3238,-126,38,989,-16,25,3
3239,-138,4,992,-24,5,-2
3240,-83,-36,986,-23,-15,-8
3241,56,-63,999,-17,-26,-12
3242,116,-62,1013,-8,-17,-13
3243,105,-14,1005,-2,4,-7
3244,13,24,997,-6,23,-2
3245,-109,42,992,-15,27,2
3246,-143,3,984,-24,9,-2
3247,-91,-26,986,-24,-12,-8
3248,32,-66,1003,-19,-26,-11
3249,104,-63,1004,-10,-20,-12
3250,119,-21,1005,-3,0,-7
3251,26,23,1003,-7,21,-2
3252,-91,35,1003,-15,28,2
3253,-144,15,976,-24,12,-1
3254,-105,-19,984,-26,-9,-7
3255,12,-68,1003,-20,-25,-11
3256,96,-69,1006,-10,-21,-12
3257,133,-32,1003,-4,-3,-8
3258,37,16,1007,-3,20,-3
3259,-71,39,1004,-12,27,1
3260,-142,24,979,-25,17,0
3261,-118,-13,993,-25,-4,-4
3262,-8,-67,993,-22,-24,-11
3263,91,-67,998,-10,-23,-13
3264,134,-39,1002,-4,-8,-10
3265,55,13,1011,-4,17,-5
3266,-53,34,1007,-12,26,0
3267,-137,39,975,-22,20,2
3268,-125,-9,1001,-24,-2,-3
3269,-35,-58,990,-22,-23,-10
3270,82,-70,1002,-12,-24,-13
3271,134,-48,998,-5,-9,-11
3272,68,-1,1006,-4,14,-3
3273,-29,35,1001,-9,25,-1
3274,-139,40,984,-19,22,2
3275,-126,-2,994,-26,1,-2
3276,-56,-57,992,-23,-18,-9
3277,70,-62,1002,-14,-26,-12
3278,129,-55,1006,-6,-14,-13
3279,84,-7,1000,-2,10,-5
3280,-11,29,998,-9,25,0
3281,-124,44,989,-19,25,1
3282,-136,-3,994,-25,4,-3
3283,-78,-38,981,-22,-17,-9
3284,61,-64,1005,-15,-26,-12
3285,120,-62,1008,-7,-15,-13
3286,100,-17,1009,-3,7,-7
3287,8,28,993,-8,23,-3
3288,-115,41,990,-16,26,2
3289,-140,5,988,-24,8,-2
3290,-89,-30,990,-25,-12,-7
3291,41,-67,1000,-18,-26,-10
3292,109,-66,1006,-9,-18,-12
3293,113,-21,1007,-1,0,-7
3294,24,25,997,-7,21,-4
3295,-99,33,1005,-15,29,0
3296,-140,17,977,-23,11,-2
3297,-104,-23,984,-24,-9,-4
3298,20,-65,1002,-18,-27,-12
3299,99,-71,1010,-11,-21,-12
3300,130,-25,1000,-3,-2,-10
3301,32,17,1003,-5,20,-2
3302,-76,40,1007,-12,26,2
3303,-145,20,975,-23,14,-1
3304,-113,-12,988,-23,-6,-5
3305,0,-69,1002,-21,-25,-12
3306,94,-66,996,-11,-21,-12
3307,131,-33,1008,-6,-5,-8
3308,51,13,1009,-6,17,-4
3309,-59,32,1006,-13,28,0
3310,-140,34,977,-21,20,1
3311,-123,-15,998,-25,-3,-4
3312,-26,-62,991,-22,-22,-11
3313,86,-67,1001,-12,-25,-12
3314,134,-39,1000,-4,-10,-10
3315,66,4,1010,-5,15,-4
3316,-37,33,1003,-10,26,0
3317,-140,37,982,-20,20,2
3318,-127,-9,992,-25,0,-4
3319,-55,-58,995,-22,-21,-10
3320,80,-64,998,-14,-24,-11
3321,132,-51,1006,-6,-12,-12
3322,76,-2,999,-2,11,-3
3323,-14,30,998,-8,26,-1
3324,-130,45,989,-19,24,2
3325,-133,0,994,-26,4,-2
3326,-73,-46,987,-23,-18,-10
3327,65,-65,1003,-14,-28,-11
3328,122,-57,1008,-8,-15,-11
3329,95,-14,1011,-4,9,-6
3330,0,29,989,-8,24,-2
3331,-116,41,989,-17,24,0
3332,-142,2,994,-23,7,-3
3333,-88,-32,985,-24,-13,-7
3334,48,-65,1004,-17,-26,-12
3335,109,-65,1010,-7,-16,-11
3336,112,-17,1003,-2,3,-7
3337,20,22,1000,-6,23,-3
3338,-106,42,1000,-15,27,2
3339,-143,13,979,-25,11,-2
3340,-98,-26,984,-25,-9,-7
3341,26,-67,1005,-19,-27,-12
3342,101,-68,1006,-8,-20,-13
3343,124,-22,1006,-2,-1,-8
3344,30,22,1003,-6,23,-4
3345,-85,38,1008,-14,27,0
3346,-142,17,975,-23,14,-1
3347,-110,-15,986,-24,-6,-6
3348,7,-65,998,-20,-24,-11
3349,94,-65,1002,-10,-22,-12
3350,134,-31,1003,-3,-5,-9
3351,44,12,1008,-4,18,-4
3352,-64,36,1003,-13,26,0
3353,-141,28,980,-21,18,0
3354,-118,-12,995,-25,-3,-4
3355,-23,-63,991,-21,-24,-11
3356,91,-66,996,-10,-25,-14
3357,131,-42,1007,-5,-9,-10
3358,63,7,1005,-4,16,-3
3359,-45,31,1009,-11,28,0
3360,-140,37,974,-20,21,1
3361,-129,-7,999,-24,0,-5
3362,-42,-56,989,-22,-21,-11
3363,78,-65,1007,-13,-24,-12
3364,139,-47,997,-6,-10,-11
3365,70,-5,1005,-1,12,-3
3366,-22,37,998,-10,25,-2
3367,-136,38,993,-20,23,1
3368,-129,-2,992,-24,3,-4
3369,-67,-48,988,-23,-17,-9
3370,71,-61,1002,-13,-26,-13
3371,125,-61,1008,-7,-14,-12
3372,91,-10,1004,-3,9,-6
3373,-3,27,995,-7,24,-4
3374,-121,41,986,-12,28,1
3375,-138,0,994,-21,8,-2
3376,-82,-33,982,-25,-14,-7
3377,52,-66,1007,-18,-26,-13
3378,116,-58,1008,-7,-16,-12
3379,106,-17,1004,-5,4,-6
3380,17,27,1000,-7,21,-2
3381,-109,38,995,-16,27,3
3382,-144,10,983,-26,11,-2
3383,-93,-28,987,-25,-10,-8
3384,28,-62,1007,-19,-27,-12
3385,103,-64,1002,-9,-20,-13
3386,122,-23,1010,-3,0,-8
3387,28,18,1003,-8,22,-2
3388,-88,37,1006,-13,29,2
3389,-147,17,977,-22,14,-1
3390,-105,-15,985,-23,-7,-6
3391,8,-65,1002,-18,-25,-11
3392,97,-65,1007,-10,-21,-13
3393,131,-31,1003,-5,-3,-8
3394,39,16,1008,-5,19,-3
3395,-71,34,1004,-12,26,2
3396,-140,26,979,-22,16,-1
3397,-116,-14,993,-26,-5,-4
3398,-14,-61,994,-22,-23,-11
3399,91,-68,996,-12,-23,-12
3400,132,-41,1001,-5,-8,-10
3401,55,10,1012,-3,15,-4
3402,-48,35,1004,-12,28,-1
3403,-141,32,978,-20,21,0
3404,-124,-6,995,-24,-2,-5
3405,-36,-60,993,-22,-23,-12
3406,81,-65,1000,-12,-25,-13
3407,133,-45,998,-5,-11,-11
3408,73,0,1002,-3,12,-4
3409,-28,35,1003,-9,26,-2
3410,-133,38,983,-20,22,2
3411,-132,-1,997,-24,3,-3
3412,-62,-52,987,-25,-19,-9
3413,72,-64,1004,-15,-27,-13
3414,129,-55,1006,-6,-15,-11
3415,83,-9,1005,-3,9,-5
3416,-5,28,996,-9,25,-2
3417,-126,43,991,-18,25,3
3418,-136,3,993,-24,5,-3
3419,-83,-39,986,-26,-14,-9
3420,58,-65,1003,-17,-27,-12
3421,116,-61,1010,-8,-16,-12
3422,103,-17,1008,-3,6,-5
3423,14,29,993,-7,22,-2
3424,-116,41,991,-17,28,3
3425,-139,8,988,-24,9,-2
3426,-95,-28,987,-24,-12,-7
3427,38,-65,1002,-19,-27,-12
3428,107,-65,1007,-9,-18,-13
3429,120,-23,1004,-3,0,-8
3430,21,23,1002,-6,23,-3
3431,-92,39,1003,-13,28,1
3432,-146,18,979,-23,13,-2
3433,-103,-17,979,-25,-10,-7
3434,13,-67,1005,-19,-26,-13
3435,104,-66,1008,-10,-21,-13
3436,125,-30,1005,-4,-2,-9
3437,41,17,1006,-3,20,-4
3438,-75,37,1008,-12,29,1
3439,-141,27,974,-21,16,0
3440,-118,-14,993,-25,-5,-5
3441,-5,-64,996,-20,-25,-12
3442,90,-65,995,-11,-25,-12
3443,135,-39,1007,-6,-7,-9
3444,49,7,1009,-3,17,-4
3445,-52,33,1005,-12,28,0
3446,-140,33,979,-20,19,-1
3447,-122,-7,997,-23,-2,-4
3448,-33,-59,993,-24,-22,-10
3449,80,-64,998,-12,-25,-12
3450,136,-48,999,-6,-10,-10
3451,70,1,1009,-3,14,-4
3452,-34,34,1000,-9,26,1
3453,-136,43,985,-20,22,2
3454,-131,-5,995,-24,3,-3
3455,-58,-49,992,-23,-19,-9
3456,72,-67,1003,-17,-26,-12
3457,129,-53,1004,-7,-14,-12
3458,87,-8,999,-3,10,-5
3459,-13,32,999,-9,26,-1
3460,-126,39,989,-20,25,1
3461,-135,-1,998,-24,5,-3
3462,-80,-41,982,-24,-15,-9
3463,61,-65,1003,-14,-27,-13
3464,122,-61,1011,-7,-16,-12
3465,98,-13,1009,-2,7,-6
3466,10,25,992,-8,24,-3
3467,-115,42,994,-16,26,3
3468,-142,8,985,-25,8,-3
3469,-90,-35,990,-27,-12,-10
3470,42,-65,1003,-18,-27,-12
3471,109,-66,1007,-8,-17,-13
3472,115,-18,1006,-2,3,-7
3473,21,21,1002,-7,23,-2
3474,-100,38,998,-15,30,2
3475,-145,12,981,-23,12,-2
3476,-97,-23,981,-25,-10,-6
3477,19,-67,1003,-18,-26,-12
3478,100,-65,1004,-8,-20,-12
3479,125,-27,1007,-4,-2,-8
3480,33,18,1004,-6,21,-3
3481,-79,36,1005,-12,27,1
3482,-143,24,977,-22,16,0
3483,-107,-19,986,-25,-7,-6
3484,-4,-65,999,-20,-25,-12
3485,92,-64,999,-12,-22,-13
3486,135,-35,1007,-4,-6,-10
3487,46,12,1006,-5,18,-4
3488,-58,34,1008,-12,27,1
3489,-140,31,976,-22,19,0
3490,-124,-9,996,-24,-1,-4
3491,-20,-58,990,-22,-23,-12
3492,83,-70,1000,-12,-23,-12
3493,136,-43,1000,-4,-9,-10
3494,58,-2,1009,-5,16,-4
3495,-37,38,1003,-11,26,-2
3496,-137,39,983,-21,21,1
3497,-127,-4,992,-24,1,-5
3498,-49,-54,992,-22,-20,-11
3499,75,-66,1004,-15,-25,-12
3500,129,-50,1003,-7,-12,-12
3501,82,-8,1000,-3,11,-5
3502,-17,31,1001,-7,25,-1
3503,-126,44,985,-20,24,1
3504,-134,-2,999,-24,4,-3
3505,-75,-44,984,-25,-18,-9
3506,64,-62,1005,-16,-27,-12
3507,122,-61,1009,-8,-15,-12
3508,100,-15,1007,-4,8,-6
3509,2,27,993,-8,25,-3
3510,-119,41,988,-18,25,1
3511,-138,6,993,-23,6,-3
3512,-89,-31,986,-25,-14,-7
3513,46,-62,1005,-17,-26,-13
3514,114,-65,1009,-10,-16,-13
3515,108,-19,1005,-4,2,-6
3516,23,23,999,-7,22,-3
3517,-106,34,1000,-16,27,2
3518,-142,14,976,-23,11,-1
3519,-103,-24,987,-23,-10,-7
3520,27,-65,1003,-17,-28,-13
3521,99,-65,1002,-9,-21,-12
3522,127,-24,1005,-4,-1,-8
3523,31,15,1003,-7,21,-4
3524,-86,37,1005,-12,28,2
3525,-142,19,976,-23,14,-1
3526,-110,-17,985,-25,-8,-5
3527,3,-67,1000,-21,-24,-11
3528,93,-63,1002,-11,-21,-12
3529,134,-31,1005,-4,-6,-11
3530,42,10,1008,-5,18,-3
3531,-61,34,1005,-13,28,1
3532,-140,28,979,-21,19,-2
3533,-120,-10,994,-26,-4,-4
3534,-21,-62,994,-22,-24,-11
3535,89,-67,998,-12,-23,-12
3536,134,-43,1003,-5,-8,-10
3537,59,5,1011,-4,16,-3
3538,-44,34,1001,-11,26,1
3539,-136,40,980,-17,20,2
3540,-126,-6,995,-24,-1,-3
3541,-48,-55,991,-23,-20,-9
3542,79,-66,1004,-14,-25,-12
3543,129,-50,1001,-6,-12,-12
3544,78,-5,1000,-3,12,-5
3545,-23,32,1004,-8,26,-1
3546,-131,42,988,-18,23,3
3547,-131,0,995,-22,3,-4
3548,-69,-48,984,-24,-18,-9
3549,65,-60,1004,-15,-27,-12
3550,124,-59,1007,-8,-15,-13
3551,92,-15,1008,-4,9,-7
3552,0,28,991,-8,26,-1
3553,-123,41,992,-16,27,2
3554,-136,3,991,-24,5,-2
3555,-89,-35,985,-25,-14,-7
3556,53,-63,1004,-16,-27,-12
3557,113,-65,1012,-9,-17,-13
3558,108,-18,1001,-3,3,-8
3559,16,22,1002,-7,22,-3
3560,-107,41,994,-15,27,0
3561,-144,7,984,-24,11,-1
3562,-96,-23,985,-25,-12,-8
3563,31,-66,1005,-19,-28,-12
3564,104,-63,1003,-9,-21,-12
3565,122,-23,1007,-5,-1,-8
3566,29,21,1005,-6,24,-2
3567,-90,37,1007,-14,29,3
3568,-144,20,973,-22,12,-2
3569,-108,-20,986,-25,-8,-6
3570,11,-65,998,-19,-24,-13
3571,98,-64,1009,-11,-21,-13
3572,131,-32,1004,-4,-4,-8
3573,37,13,1006,-4,18,-3
3574,-66,35,1006,-12,28,0
3575,-144,27,978,-23,17,-1
3576,-117,-13,994,-26,-5,-5
3577,-15,-63,996,-21,-23,-11
3578,88,-64,992,-11,-23,-12
3579,136,-39,1004,-5,-8,-10
3580,53,5,1013,-5,17,-4
3581,-45,35,1000,-11,27,0
3582,-144,34,983,-21,20,0
3583,-125,-7,994,-25,-2,-4
3584,-39,-57,994,-22,-22,-10
3585,80,-62,1001,-11,-25,-12
3586,132,-48,1001,-7,-11,-11
3587,75,-2,1002,-3,13,-5
3588,-26,32,999,-8,25,-1
3589,-130,42,988,-20,23,1
3590,-132,-4,998,-24,3,-4
3591,-66,-49,986,-23,-19,-9
3592,66,-60,1005,-12,-27,-12
3593,126,-57,1008,-7,-15,-13
3594,87,-13,1005,-4,10,-5
3595,-5,29,993,-9,26,-2
3596,-120,40,990,-17,26,1
3597,-140,-1,994,-23,6,-3
3598,-84,-34,984,-23,-15,-8
3599,51,-67,1006,-15,-26,-12
3600,120,-59,1008,-9,-15,-12
3601,105,-20,1007,-3,5,-6
3602,14,29,995,-7,22,-3
3603,-107,38,994,-16,26,1
3604,-141,9,983,-23,10,-2
3605,-94,-27,988,-24,-11,-7
3606,33,-64,1007,-18,-26,-12
3607,103,-66,1002,-9,-20,-11
3608,121,-23,1007,-3,0,-7
3609,29,23,1003,-6,22,-3
3610,-88,34,1004,-16,28,2
3611,-144,19,976,-24,12,-1
3612,-106,-20,983,-25,-8,-6
3613,11,-65,1003,-19,-25,-11
3614,96,-65,1004,-11,-21,-14
3615,127,-29,1001,-5,-4,-10
3616,42,17,1009,-3,19,-2
3617,-71,34,1005,-12,26,1
3618,-141,30,979,-22,17,1
3619,-117,-15,995,-26,-5,-5
3620,-11,-62,993,-21,-23,-10
3621,92,-67,996,-12,-22,-13
3622,129,-37,1006,-4,-8,-11
3623,53,10,1008,-6,17,-2
3624,-50,33,1008,-12,28,0
3625,-139,37,978,-20,20,0
3626,-123,-6,995,-23,-1,-4
3627,-35,-58,998,-22,-22,-11
3628,77,-66,999,-14,-24,-11
3629,133,-47,999,-7,-10,-12
3630,70,-3,1007,-3,12,-4
3631,-29,33,1000,-8,26,-1
3632,-135,41,985,-19,22,1
3633,-132,0,996,-24,3,-2
3634,-61,-51,987,-24,-18,-9
3635,73,-64,1005,-15,-26,-13
3636,126,-54,1004,-8,-15,-11
3637,90,-13,1003,-3,9,-6
3638,-9,27,995,-9,25,-2
3639,-125,42,989,-17,26,2
3640,-137,1,997,-24,5,-3
3641,-80,-37,981,-24,-16,-7
3642,57,-61,1005,-15,-26,-11
3643,120,-59,1009,-10,-15,-12
3644,104,-15,1006,-4,6,-6
3645,10,32,993,-8,23,-3
3646,-113,38,995,-17,26,2
3647,-141,7,984,-22,8,-2
3648,-94,-31,988,-24,-13,-7
3649,38,-62,1005,-19,-27,-11
3650,107,-65,1003,-8,-17,-13
3651,119,-21,1006,-3,3,-9
3652,23,23,1007,-5,23,-2
3653,-96,37,1002,-14,28,1
3654,-144,13,980,-23,12,-2
3655,-106,-21,979,-26,-10,-5
3656,15,-67,1006,-20,-26,-12
3657,98,-67,1004,-12,-19,-13
3658,129,-26,1009,-4,-2,-9
3659,40,19,1002,-6,19,-3
3660,-79,36,1006,-13,27,1
3661,-139,26,975,-24,16,0
3662,-115,-20,993,-26,-4,-5
3663,-5,-65,993,-19,-24,-12
3664,91,-69,997,-10,-23,-14
3665,136,-33,1002,-3,-8,-11
3666,46,10,1010,-5,17,-4
3667,-48,39,1004,-11,28,0
3668,-143,28,980,-20,21,1
3669,-117,-5,996,-25,-2,-4
3670,-34,-63,994,-23,-22,-11
3671,84,-62,996,-12,-24,-12
3672,134,-48,1004,-8,-10,-11
3673,68,0,1005,-2,14,-4
3674,-33,34,1000,-10,26,0
3675,-135,41,984,-20,22,0
3676,-132,-9,998,-25,2,-5
3677,-54,-53,987,-24,-19,-9
3678,74,-67,1006,-15,-26,-12
3679,131,-52,1004,-5,-14,-12
3680,86,-6,1001,-2,11,-5
3681,-13,31,998,-9,26,-1
3682,-126,43,992,-19,25,2
3683,-136,0,994,-25,4,-4
3684,-76,-42,980,-25,-18,-10
3685,61,-63,1004,-14,-27,-13
3686,120,-58,1009,-8,-15,-12
3687,99,-14,1007,-4,7,-5
3688,5,28,994,-8,24,-2
3689,-113,39,985,-16,26,2
3690,-141,4,992,-23,8,-3
3691,-87,-29,986,-24,-13,-9
3692,43,-64,1008,-18,-26,-13
3693,109,-63,1004,-10,-18,-12
3694,112,-17,1008,-2,1,-7
3695,23,26,1000,-8,22,-3
3696,-98,37,1005,-15,28,2
3697,-140,13,975,-22,12,-1
3698,-102,-22,985,-24,-10,-6
3699,22,-66,1004,-18,-27,-13
3700,97,-67,1004,-10,-19,-13
3701,128,-26,1007,-4,1,-8
3702,33,14,1007,-6,21,-2
3703,-76,36,1004,-13,27,2
3704,-145,22,977,-22,14,-1
3705,-110,-15,989,-23,-7,-6
3706,-2,-67,997,-21,-25,-12
3707,94,-64,997,-11,-23,-13
3708,131,-37,1008,-6,-6,-9
3709,46,11,1004,-5,19,-4
3710,-57,34,1007,-12,27,0
3711,-140,30,977,-20,20,-1
3712,-121,-9,995,-21,-3,-5
3713,-28,-60,993,-32,-28,-11
3714,84,-65,997,-15,-23,-13
3715,133,-44,1003,-4,-10,-11
3716,64,1,1010,-4,16,-4
3717,-35,31,1003,-9,26,-1
3718,-137,39,982,-20,21,1
3719,-130,-5,995,-27,1,-3
3720,-53,-54,992,-22,-19,-9
3721,76,-66,1005,-14,-25,-13
3722,131,-52,1002,-7,-12,-12
3723,82,-6,1000,-2,10,-5
3724,-19,32,998,-9,25,-1
3725,-127,43,992,-19,24,2
3726,-138,0,997,-25,4,-3
3727,-71,-42,981,-24,-17,-8
3728,62,-63,1009,-14,-27,-12
3729,122,-60,1009,-8,-16,-13
3730,97,-15,1009,-3,7,-6
3731,1,29,990,-9,24,-1
3732,-121,42,990,-16,26,2
3733,-137,1,992,-24,8,-3
3734,-93,-32,985,-25,-13,-7
3735,52,-64,1005,-16,-26,-12
3736,107,-64,1009,-9,-17,-12
3737,109,-18,1003,-2,2,-9
3738,19,20,1004,-8,22,-4
3739,-102,37,1000,-16,26,2
3740,-138,14,977,-22,10,-1
3741,-97,-25,985,-24,-10,-6
3742,20,-62,1004,-19,-26,-11
3743,101,-67,1005,-10,-20,-13
3744,122,-24,1006,-3,0,-9
3745,33,19,1006,-6,21,-3
3746,-81,36,1007,-12,27,1
3747,-138,17,975,-23,13,-1
3748,-112,-15,988,-23,-8,-6
3749,0,-66,998,-20,-25,-12
3750,94,-63,1000,-11,-22,-13
3751,131,-30,1003,-5,-6,-10
3752,45,13,1009,-5,18,-4
3753,-58,30,1006,-13,26,1
3754,-143,31,976,-21,19,0
3755,-116,-11,1001,-25,-2,-4
3756,-26,-63,991,-21,-22,-11
3757,87,-66,994,-12,-25,-13
3758,134,-42,1005,-4,-9,-12
3759,62,2,1007,-4,15,-5
3760,-37,35,1002,-10,26,-1
3761,-143,38,983,-19,22,1
3762,-125,-5,993,-24,1,-4
3763,-49,-55,995,-24,-19,-10
3764,77,-68,1003,-15,-25,-13
3765,133,-52,1004,-8,-12,-11
3766,79,-7,1001,-1,12,-4
3767,-20,35,998,-8,26,-1
3768,-130,46,992,-19,23,1
3769,-137,3,995,-24,4,-2
3770,-69,-44,982,-24,-17,-9
3771,65,-65,1006,-16,-26,-13
3772,123,-61,1006,-8,-15,-13
3773,99,-17,1009,-4,8,-6
3774,0,31,991,-6,25,-1
3775,-117,42,990,-16,26,2
3776,-141,7,995,-24,7,-2
3777,-89,-33,985,-26,-14,-8
3778,49,-66,1006,-17,-26,-12
3779,110,-67,1006,-10,-17,-13
3780,112,-21,1004,-3,3,-8
3781,19,26,1002,-5,22,-3
3782,-106,41,997,-15,28,2
3783,-141,12,985,-23,11,-2
3784,-97,-19,982,-25,-11,-6
3785,27,-64,1006,-19,-27,-11
3786,101,-71,1004,-9,-19,-13
3787,119,-28,1007,-4,-1,-9
3788,32,17,1001,-5,22,-4
3789,-87,38,1009,-13,28,1
3790,-137,24,972,-23,12,-2
3791,-113,-13,990,-24,-6,-6
3792,8,-64,998,-22,-25,-11
3793,94,-69,1002,-12,-21,-12
3794,132,-30,1001,-5,-6,-9
3795,42,10,1010,-4,17,-4
3796,-59,32,1001,-11,27,0
3797,-142,28,978,-21,18,0
3798,-116,-9,995,-25,-5,-5
3799,-23,-60,993,-23,-24,-12
3800,89,-66,995,-11,-24,-11
3801,134,-42,1002,-6,-9,-10
3802,60,0,1013,-4,16,-4
3803,-40,37,1001,-10,26,0
3804,-141,37,982,-20,20,1
3805,-123,-9,997,-24,-2,-5
3806,-48,-57,992,-22,-21,-10
3807,80,-62,1004,-13,-25,-12
3808,133,-51,1004,-5,-12,-11
3809,75,-1,998,-2,12,-4
3810,-24,30,1002,-10,26,-1
3811,-131,42,989,-20,24,1
3812,-132,-5,993,-24,4,-5
3813,-68,-48,987,-24,-17,-10
3814,61,-61,1004,-13,-27,-11
3815,131,-56,1008,-8,-14,-12
3816,92,-11,1008,-4,9,-5
3817,-1,33,989,-9,26,-1
3818,-120,40,993,-18,25,2
3819,-144,0,990,-24,5,-3
3820,-84,-37,984,-25,-15,-8
3821,53,-65,1009,-16,-27,-12
3822,113,-59,1006,-8,-17,-12
3823,112,-14,1011,-1,3,-8
3824,15,28,999,-6,22,-2
3825,-107,36,995,-15,28,1
3826,-141,7,984,-24,10,-4
3827,-98,-26,986,-24,-10,-8
3828,27,-65,1003,-17,-25,-12
3829,104,-65,1007,-8,-20,-13
3830,120,-24,1005,-2,0,-8
3831,30,23,1005,-6,22,-3
3832,-89,35,1006,-12,27,2
3833,-141,19,973,-22,13,0
3834,-112,-18,988,-25,-8,-5
3835,9,-66,999,-21,-25,-12
3836,96,-66,1005,-11,-21,-12
3837,132,-27,1002,-4,-3,-10
3838,41,15,1007,-5,20,-3
3839,-65,36,1003,-12,27,0
3840,-142,30,978,-23,18,0
3841,-116,-14,995,-25,-3,-4
3842,-17,-64,993,-22,-23,-11
3843,90,-67,995,-11,-24,-12
3844,132,-40,1005,-4,-8,-11
3845,57,4,1006,-5,16,-5
3846,-45,34,1006,-11,27,0
3847,-139,39,979,-19,21,2
3848,-125,-6,995,-26,0,-4
3849,-41,-56,993,-23,-21,-11
3850,79,-64,1004,-14,-24,-13
3851,131,-50,998,-7,-11,-11
3852,76,-3,1005,-3,12,-4
3853,-28,30,998,-8,25,-1
3854,-129,40,989,-17,23,0
3855,-133,-2,999,-23,4,-3
3856,-65,-47,982,-24,-17,-9
3857,65,-62,1005,-15,-27,-12
3858,125,-57,1007,-7,-15,-11
3859,94,-12,1006,-5,9,-6
3860,-2,29,993,-7,26,-3
3861,-123,40,987,-18,25,2
3862,-135,2,992,-24,6,-3
3863,-86,-36,987,-24,-15,-7
3864,53,-61,1005,-17,-26,-12
3865,113,-61,1006,-8,-16,-12
3866,109,-18,1004,-4,2,-7
3867,13,24,997,-6,23,-2
3868,-106,38,996,-15,26,2
3869,-145,10,982,-24,10,-1
3870,-90,-24,988,-25,-11,-7
3871,30,-65,1004,-18,-25,-12
3872,102,-63,1005,-11,-19,-12
3873,119,-24,1005,-3,-1,-9
3874,27,22,1004,-5,21,-3
3875,-87,34,1003,-14,27,1
3876,-141,19,976,-23,13,-1
3877,-108,-20,985,-25,-8,-6
3878,8,-65,1002,-19,-25,-12
3879,94,-67,1001,-12,-21,-12
3880,132,-26,1005,-4,-4,-10
3881,39,15,1007,-5,18,-3
3882,-65,34,1002,-11,27,0
3883,-146,28,980,-21,18,0
3884,-115,-11,994,-26,-4,-5
3885,-15,-67,994,-22,-23,-11
3886,91,-66,993,-12,-24,-13
3887,133,-41,1006,-4,-9,-11
3888,58,8,1009,-5,17,-5
3889,-46,37,1006,-11,26,1
3890,-141,39,978,-20,20,0
3891,-126,-4,996,-24,-2,-4
3892,-39,-58,990,-22,-22,-11
3893,81,-66,1006,-13,-25,-14
3894,133,-50,1000,-6,-11,-12
3895,73,-4,1001,-1,14,-5
3896,-26,33,1002,-8,26,-1
3897,-136,46,985,-18,25,2
3898,-129,-1,995,-24,3,-4
3899,-62,-48,986,-24,-19,-9
3900,68,-60,1005,-16,-26,-13
3901,129,-58,1007,-6,-16,-12
3902,86,-12,1005,-3,9,-6
3903,-7,31,995,-7,25,0
3904,-123,40,991,-18,25,3
3905,-140,3,993,-24,5,-4
3906,-77,-38,983,-24,-15,-8
3907,53,-62,1008,-16,-27,-11
3908,115,-64,1006,-7,-16,-11
3909,102,-18,1011,-3,5,-6
3910,11,27,996,-8,23,-3
3911,-110,41,998,-16,26,2
3912,-137,7,983,-24,10,-1
3913,-97,-26,986,-25,-9,-7
3914,37,-66,1006,-19,-25,-13
3915,100,-68,1003,-7,-19,-12
3916,123,-20,1005,-3,-1,-7
3917,26,21,1007,-7,23,-3
3918,-88,39,1001,-13,27,0
3919,-144,16,978,-23,12,-2
3920,-106,-17,983,-24,-9,-6
3921,9,-70,1005,-18,-26,-11
3922,98,-67,1000,-10,-21,-12
3923,124,-30,1007,-3,-3,-8
3924,40,18,1002,-6,19,-4
3925,-73,35,1006,-13,27,-1
3926,-139,27,975,-21,14,-1
3927,-117,-15,999,-26,-6,-6
3928,-11,-64,992,-23,-24,-11
3929,90,-67,999,-10,-23,-13
3930,134,-35,1002,-3,-8,-11
3931,54,8,1012,-5,16,-5
3932,-48,38,1003,-10,27,-1
3933,-139,34,980,-23,20,2
3934,-124,-5,996,-26,-2,-4
3935,-37,-64,993,-24,-22,-10
3936,82,-64,1000,-12,-24,-12
3937,133,-49,1000,-6,-11,-11
3938,73,0,1004,-2,14,-4
3939,-32,33,1001,-9,24,-1
3940,-134,44,985,-20,22,2
3941,-132,-4,998,-25,4,-3
3942,-59,-49,988,-23,-19,-9
3943,70,-66,1003,-15,-25,-12
3944,130,-56,1008,-6,-15,-12
3945,85,-13,1003,-5,9,-6
3946,-9,32,994,-9,26,-2
3947,-126,41,990,-19,25,2
3948,-139,0,993,-25,4,-3
3949,-78,-41,983,-24,-16,-8
3950,53,-63,1003,-15,-26,-12
3951,121,-61,1011,-9,-17,-13
3952,104,-15,1007,-4,6,-6
3953,6,29,994,-10,24,-1
3954,-108,37,993,-16,26,2
3955,-143,4,987,-24,9,-2
3956,-94,-28,985,-25,-13,-8
3957,36,-65,1010,-17,-26,-13
3958,107,-64,1000,-11,-18,-12
3959,116,-20,1004,-2,2,-7
3960,23,22,1006,-7,22,-2
3961,-93,36,1004,-15,28,2
3962,-141,16,976,-23,12,-1
3963,-104,-22,985,-25,-9,-5
3964,19,-67,1006,-19,-27,-13
3965,94,-66,999,-10,-20,-12
3966,130,-26,1009,-4,-3,-9
3967,34,17,1005,-6,20,-2
3968,-73,36,1003,-13,27,1
3969,-142,24,979,-24,16,0
3970,-115,-13,992,-25,-5,-5
3971,-5,-66,990,-21,-24,-11
3972,89,-68,1002,-11,-23,-11
3973,134,-37,1005,-2,-9,-10
3974,48,9,1010,-5,19,-4
3975,-49,34,1007,-11,28,0
3976,-141,34,978,-21,22,0
3977,-122,-6,996,-25,-1,-5
3978,-33,-61,994,-23,-22,-10
3979,80,-67,1000,-13,-25,-14
3980,134,-47,1001,-7,-11,-12
3981,68,0,1008,-2,14,-4
3982,-28,36,998,-8,26,0
3983,-137,43,988,-19,23,2
3984,-127,-5,993,-26,2,-4
3985,-55,-51,992,-24,-18,-10
3986,69,-65,1000,-14,-27,-12
3987,131,-57,1009,-5,-15,-13
3988,84,-8,1000,-4,10,-4
3989,-12,31,995,-9,25,-1
3990,-125,44,995,-17,26,2
3991,-135,0,993,-25,5,-4
3992,-76,-41,982,-24,-17,-8
3993,58,-63,1004,-16,-27,-11
3994,120,-62,1010,-9,-16,-12
3995,104,-17,1005,-3,7,-6
3996,3,30,996,-6,24,-2
3997,-113,41,988,-17,27,2
3998,-142,4,990,-25,8,-2
3999,-90,-31,984,-24,-12,-7
4000,43,-64,1007,-17,-27,-12
4001,106,-65,1003,-9,-19,-13
4002,118,-18,1006,-2,1,-8
4003,22,25,1002,-7,22,-2
4004,-102,37,1002,-14,27,3
4005,-142,16,978,-22,12,-2
4006,-108,-21,984,-24,-10,-6
4007,19,-64,1002,-18,-27,-12
4008,96,-74,1007,-10,-20,-13
4009,127,-26,1002,-4,-1,-9
4010,35,13,1007,-6,21,-3
4011,-78,39,1002,-12,28,2
4012,-142,22,977,-23,15,0
4013,-116,-14,988,-26,-5,-5
4014,-1,-68,1000,-21,-24,-12
4015,92,-66,993,-10,-22,-12
4016,133,-34,1006,-5,-6,-9
4017,48,9,1007,-3,18,-4
4018,-60,31,1005,-11,27,-1
4019,-141,35,977,-21,20,2
4020,-123,-9,999,-26,-2,-4
4021,-25,-56,991,-23,-23,-11
4022,84,-66,997,-14,-25,-13
4023,136,-41,1005,-4,-10,-10
4024,61,-2,1005,-4,15,-4
4025,-38,31,1002,-10,27,0
4026,-141,38,981,-20,21,2
4027,-125,-5,997,-24,0,-5
4028,-51,-55,993,-23,-20,-10
4029,74,-59,1004,-14,-25,-12
4030,134,-51,1004,-7,-12,-12
4031,76,-5,996,-3,13,-5
4032,-16,28,1000,-9,25,-1
4033,-130,38,992,-19,25,2
4034,-132,-3,993,-24,5,-3
4035,-71,-48,984,-22,-17,-9
4036,62,-59,1006,-15,-27,-13
4037,125,-58,1009,-7,-15,-12
4038,95,-13,1007,-4,8,-6
4039,1,30,992,-9,25,-2
4040,-117,41,991,-16,25,2
4041,-140,3,990,-26,7,-4
4042,-89,-35,987,-24,-14,-7
4043,50,-64,1002,-17,-28,-11
4044,113,-65,1008,-8,-17,-13
4045,113,-16,1008,-2,3,-7
4046,17,28,1001,-6,23,-2
4047,-104,40,995,-14,28,2
4048,-144,9,982,-23,12,-1
4049,-97,-25,984,-24,-11,-6
4050,28,-68,1006,-18,-28,-12
4051,104,-65,1004,-8,-20,-12
4052,125,-25,1006,-3,-1,-10
4053,27,23,1005,-6,23,-2
4054,-86,37,1003,-18,31,4
4055,-144,20,977,-23,13,-1
4056,-110,-19,983,-25,-8,-6
4057,6,-66,1003,-20,-25,-11
4058,98,-70,1000,-11,-22,-13
4059,130,-29,1005,-5,-4,-10
4060,46,10,1007,-5,18,-3
4061,-71,35,1003,-12,27,0
4062,-140,30,981,-21,18,-2
4063,-122,-16,996,-26,-4,-5
4064,-16,-62,989,-22,-24,-12
4065,92,-67,1000,-12,-24,-13
4066,134,-40,1005,-3,-8,-9
4067,57,5,1010,-5,16,-5
4068,-47,37,1006,-10,28,-1
4069,-141,34,978,-20,20,1
4070,-126,-7,996,-24,-1,-4
4071,-38,-59,993,-23,-21,-9
4072,82,-63,1002,-13,-24,-12
4073,134,-47,1000,-7,-12,-10
4074,73,-1,1003,-4,13,-4
4075,-27,32,1001,-10,26,-1
4076,-137,41,985,-20,23,2
4077,-133,-2,996,-24,2,-3
4078,-59,-51,988,-23,-19,-9
4079,70,-61,1002,-14,-27,-12
4080,130,-54,1009,-5,-14,-13
4081,90,-10,1004,-3,9,-7
4082,-9,31,991,-9,25,-1
4083,-126,43,991,-18,26,3
4084,-135,-2,995,-24,5,-3
4085,-81,-40,982,-23,-15,-7
4086,58,-65,1005,-16,-26,-13
4087,118,-60,1012,-7,-15,-12
4088,110,-16,1007,-3,5,-7
4089,6,30,995,-8,23,-2
4090,-111,40,994,-15,27,2
4091,-142,6,988,-25,9,-3
4092,-94,-29,985,-25,-12,-8
4093,36,-64,1008,-17,-28,-12
4094,110,-67,1003,-10,-18,-12
4095,119,-22,1005,-2,1,-8
4096,30,22,1006,-7,23,-3
4097,-98,36,1004,-15,29,1
4098,-144,15,976,-22,12,-1
4099,-105,-21,987,-25,-9,-7
4100,16,-65,1002,-19,-28,-12
4101,100,-66,1007,-11,-21,-13
4102,130,-27,1006,-4,-2,-10
4103,38,16,1003,-5,21,-3
4104,-78,37,1006,-12,28,2
4105,-142,26,978,-21,16,-1
4106,-122,-16,993,-23,-5,-5
4107,-1,-64,996,-19,-24,-11
4108,94,-68,1001,-11,-22,-13
4109,135,-36,1002,-4,-7,-10
4110,47,10,1013,-4,18,-4
4111,-54,34,1004,-11,27,0
4112,-144,30,980,-22,19,1
4113,-123,-8,994,-24,-2,-4
4114,-29,-65,993,-22,-23,-12
4115,87,-62,998,-11,-24,-13
4116,133,-43,1005,-7,-9,-11
4117,68,4,1005,-5,15,-5
4118,-38,33,1007,-10,28,0
4119,-141,40,979,-19,23,2
4120,-128,-9,1000,-23,0,-3
4121,-52,-56,988,-23,-20,-10
4122,75,-65,1005,-15,-26,-12
4123,135,-46,1003,-7,-13,-12
4124,80,-6,1001,-2,12,-4
4125,-14,30,999,-9,26,-1
4126,-132,40,993,-19,26,2
4127,-136,-2,992,-26,4,-3
4128,-72,-47,987,-23,-17,-10
4129,62,-63,1002,-14,-26,-12
4130,126,-60,1012,-7,-14,-12
4131,97,-13,1005,-4,8,-6
4132,1,31,992,-7,25,-2
4133,-119,41,991,-17,26,3
4134,-140,2,991,-23,8,-3
4135,-91,-35,984,-25,-13,-7
4136,49,-67,1007,-16,-26,-11
4137,114,-64,1006,-9,-16,-11
4138,111,-18,1005,-1,3,-5
4139,17,28,999,-6,22,-1
4140,-105,40,995,-16,27,2
4141,-144,13,982,-24,11,-1
4142,-98,-25,988,-25,-11,-7
4143,30,-72,1005,-20,-27,-13
4144,104,-67,1003,-9,-20,-12
4145,122,-27,1008,-3,1,-8
4146,30,21,1007,-6,22,-4
4147,-89,37,1001,-15,27,2
4148,-142,21,980,-23,14,-1
4149,-111,-20,985,-26,-7,-5
4150,9,-68,1001,-19,-24,-13
4151,96,-70,1005,-11,-21,-14
4152,130,-30,1005,-4,-4,-11
4153,41,14,1005,-4,20,-4
4154,-67,38,1007,-12,28,0
4155,-143,30,977,-22,18,-1
4156,-119,-12,997,-24,-3,-5
4157,-14,-63,993,-20,-24,-10
4158,88,-65,992,-11,-25,-12
4159,137,-42,1008,-4,-10,-11
4160,54,7,1007,-5,16,-4
4161,-46,33,1005,-11,28,0
4162,-143,35,982,-21,20,1
4163,-127,-5,992,-26,-2,-4
4164,-37,-57,994,-22,-22,-11
4165,78,-64,1001,-13,-26,-11
4166,137,-47,1000,-5,-11,-11
4167,72,-4,1006,-3,14,-4
4168,-29,33,1001,-9,26,-1
4169,-135,40,987,-19,22,1
4170,-132,-3,995,-24,2,-3
4171,-60,-48,988,-24,-18,-9
4172,74,-65,1008,-15,-27,-12
4173,130,-57,1003,-7,-15,-11
4174,88,-10,1001,-4,10,-4
4175,-11,33,996,-7,25,-1
4176,-127,43,993,-17,26,2
4177,-136,-1,992,-24,5,-3
4178,-80,-38,982,-25,-18,-10
4179,59,-64,1005,-16,-28,-13
4180,120,-59,1009,-8,-18,-12
4181,103,-15,1006,-2,6,-7
4182,7,28,994,-6,24,-3
4183,-112,38,988,-14,25,1
4184,-141,4,988,-23,8,-3
4185,-93,-32,987,-25,-12,-8
4186,44,-63,1004,-18,-26,-12
4187,109,-65,1006,-9,-18,-12
4188,117,-18,1006,-3,2,-8
4189,23,23,1001,-7,22,-1
4190,-101,37,999,-15,28,1
4191,-141,13,981,-24,12,-2
4192,-105,-19,980,-24,-10,-6
4193,24,-66,1009,-18,-27,-13
4194,99,-63,1002,-10,-21,-12
4195,128,-27,1009,-5,-3,-9
4196,32,17,1004,-5,20,-2
4197,-81,34,1003,-13,28,1
4198,-144,20,980,-23,15,-1
4199,-115,-16,989,-25,-7,-5
4200,3,-64,996,-19,-26,-13
4201,94,-66,1005,-12,-23,-13
4202,137,-34,1003,-3,-7,-10
4203,45,12,1008,-4,18,-4
4204,-62,31,1005,-12,28,0
4205,-141,32,978,-20,20,-1
4206,-122,-9,996,-24,-2,-4
4207,-21,-63,991,-22,-22,-10
4208,88,-63,995,-11,-24,-11
4209,133,-40,1004,-3,-10,-10
4210,59,6,1006,-5,16,-5
4211,-42,29,1006,-12,26,-1
4212,-144,35,975,-19,22,2
4213,-127,-6,996,-24,1,-4
4214,-42,-61,993,-21,-21,-11
4215,76,-60,1003,-13,-25,-11
4216,136,-48,1001,-7,-11,-13
4217,75,-3,1004,-3,13,-5
4218,-24,32,996,-9,26,0
4219,-136,40,990,-19,24,1
4220,-136,-4,993,-25,3,-4
4221,-66,-48,986,-22,-18,-9
4222,68,-59,1004,-14,-26,-13
4223,127,-55,1012,-6,-15,-11
4224,91,-12,1000,-4,8,-6
4225,-6,30,997,-9,26,-1
4226,-124,42,991,-18,26,2
4227,-140,0,993,-24,4,-4
4228,-82,-38,980,-24,-16,-8
4229,54,-66,1008,-16,-27,-13
4230,119,-61,1006,-7,-17,-12
4231,107,-18,1008,-3,5,-7
4232,9,31,998,-7,22,-2
4233,-109,37,990,-17,27,2
4234,-142,6,987,-23,10,-4
4235,-96,-30,985,-25,-11,-6
4236,38,-65,1005,-17,-28,-13
4237,106,-67,1005,-9,-21,-13
4238,122,-20,1001,-3,1,-8
4239,29,22,1006,-7,23,-3
4240,-96,37,1003,-14,29,2
4241,-144,13,977,-23,13,0
4242,-109,-23,981,-25,-8,-6
4243,16,-67,1006,-20,-26,-12
4244,103,-66,1002,-11,-19,-13
4245,126,-27,1006,-3,-2,-8
4246,39,14,1006,-7,20,-3
4247,-78,34,1005,-12,29,2
4248,-142,22,972,-24,16,1
4249,-117,-15,996,-26,-6,-6
4250,-2,-63,994,-23,-24,-11
4251,90,-67,1000,-11,-22,-13
4252,135,-35,1006,-4,-6,-10
4253,48,7,1011,-5,18,-3
4254,-56,35,1004,-13,28,1
4255,-146,34,981,-21,20,0
4256,-122,-10,996,-25,-2,-4
4257,-28,-58,990,-23,-23,-9
4258,86,-66,999,-12,-25,-13
4259,136,-45,1002,-6,-9,-11
4260,64,2,1008,-5,16,-4
4261,-37,33,1001,-10,27,0
4262,-139,41,983,-20,22,1
4263,-128,-6,992,-24,0,-3
4264,-52,-55,991,-24,-20,-8
4265,77,-65,1003,-13,-26,-12
4266,136,-53,1001,-6,-12,-10
4267,80,-6,999,-3,10,-4
4268,-20,34,1001,-9,24,0
4269,-132,42,992,-20,24,1
4270,-137,0,994,-25,4,-3
4271,-71,-48,984,-24,-19,-8
4272,68,-61,1007,-14,-28,-12
4273,128,-58,1005,-7,-16,-13
4274,96,-12,1010,-4,9,-5
4275,-2,28,993,-8,26,-2
4276,-120,42,988,-16,27,1
4277,-140,0,995,-23,6,-2
4278,-89,-34,987,-24,-15,-8
4279,53,-65,1003,-16,-27,-13
4280,112,-66,1010,-9,-18,-12
4281,112,-16,1004,-3,4,-6
4282,18,26,998,-7,23,-3
4283,-107,39,992,-16,27,2
4284,-144,8,982,-23,12,-2
4285,-98,-27,982,-24,-12,-8
4286,31,-63,1004,-17,-26,-12
4287,110,-63,1003,-9,-20,-13
4288,121,-27,1007,-2,0,-8
4289,30,22,1003,-7,22,-2
4290,-90,34,1006,-15,29,2
4291,-146,19,973,-23,13,-1
4292,-111,-19,982,-24,-8,-7
4293,12,-63,1003,-17,-26,-12
4294,95,-66,1000,-11,-21,-13
4295,134,-27,1005,-5,-4,-10
4296,39,12,1010,-6,19,-3
4297,-72,36,999,-11,27,2
4298,-144,23,981,-22,17,0
4299,-118,-15,992,-25,-4,-5
4300,-9,-63,993,-20,-24,-11
4301,93,-67,999,-11,-23,-12
4302,136,-38,1006,-4,-7,-11
4303,54,10,1007,-5,17,-4
4304,-54,34,1008,-12,29,1
4305,-143,31,980,-22,20,0
4306,-126,-9,997,-24,-3,-5
4307,-31,-63,992,-22,-24,-11
4308,83,-64,1002,-11,-26,-13
4309,138,-44,1001,-5,-9,-11
4310,68,4,1001,-5,15,-3
4311,-33,34,1004,-9,28,0
4312,-136,39,982,-20,23,1
4313,-133,-7,991,-23,2,-3
4314,-56,-55,992,-24,-18,-9
4315,75,-63,1006,-16,-26,-12
4316,134,-49,1000,-6,-14,-11
4317,86,-2,1002,-3,11,-4
4318,-14,32,1001,-11,26,-1
4319,-127,42,989,-18,26,2
4320,-140,-3,995,-26,4,-3
4321,-76,-45,983,-24,-17,-9
4322,63,-64,1003,-15,-27,-12
4323,124,-59,1011,-7,-16,-12
4324,101,-14,1005,-4,7,-5
4325,3,29,995,-7,25,-1
4326,-116,43,990,-18,26,1
4327,-143,3,993,-25,7,-2
4328,-92,-32,985,-25,-14,-7
4329,46,-67,1004,-18,-26,-12
4330,114,-64,1010,-8,-17,-12
4331,114,-16,1003,-2,2,-7
4332,18,24,1004,-7,23,-2
4333,-104,37,995,-16,28,2
4334,-145,10,981,-23,12,-3
4335,-99,-25,986,-25,-10,-6
4336,25,-66,1000,-21,-27,-12
4337,106,-63,1008,-10,-21,-13
4338,124,-27,999,-4,-1,-8
4339,33,23,1008,-6,21,-3
4340,-86,32,1003,-15,28,1
4341,-146,23,977,-23,14,-1
4342,-114,-16,984,-26,-8,-7
4343,5,-66,1001,-20,-25,-13
4344,98,-70,1005,-10,-20,-13
4345,132,-32,1006,-4,-5,-9
4346,46,14,1007,-5,18,-3
4347,-66,36,1007,-12,27,0
4348,-147,28,977,-21,19,0
4349,-118,-13,993,-25,-4,-5
4350,-19,-60,993,-21,-24,-12
4351,90,-68,994,-12,-25,-13
4352,137,-40,1007,-3,-9,-10
4353,57,4,1008,-5,16,-4
4354,-45,32,1003,-11,27,1
4355,-144,35,985,-19,21,2
4356,-125,-4,990,-24,-1,-3
4357,-38,-56,995,-21,-22,-10
4358,82,-62,1001,-13,-25,-13
4359,136,-48,1001,-6,-9,-11
4360,72,-3,1002,-4,14,-3
4361,-32,30,1004,-10,24,0
4362,-138,41,983,-18,22,3
4363,-129,-6,995,-24,2,-4
4364,-63,-49,992,-23,-18,-9
4365,75,-59,1003,-16,-27,-12
4366,132,-53,1006,-7,-14,-10
4367,87,-9,1000,-3,10,-5
4368,-12,25,997,-9,26,-1
4369,-128,39,992,-18,26,2
4370,-138,-1,995,-24,6,-1
4371,-79,-39,983,-23,-17,-9
4372,60,-63,1006,-14,-28,-13
4373,121,-55,1011,-7,-15,-12
4374,103,-14,1007,-5,7,-5
4375,4,26,996,-8,24,-2
4376,-118,38,987,-17,27,3
4377,-143,5,992,-23,9,-1
4378,-91,-31,987,-24,-13,-6
4379,42,-64,1005,-17,-29,-11
4380,115,-62,1006,-8,-19,-12
4381,115,-21,1007,-3,2,-7
4382,25,26,999,-9,23,-1
4383,-100,34,1001,-15,29,1
4384,-148,11,978,-23,13,-1
4385,-104,-23,982,-25,-10,-5
4386,21,-64,1003,-17,-27,-12
4387,103,-63,1005,-10,-20,-13
4388,128,-24,1004,-4,-1,-9
4389,35,21,1004,-1,27,-1
4390,-85,33,1005,-15,27,1
4391,-147,20,974,-21,13,-1
4392,-111,-16,985,-24,-6,-6
4393,2,-66,1001,-20,-25,-12
4394,97,-66,999,-9,-21,-12
4395,134,-31,1006,-5,-6,-10
4396,44,12,1006,-5,19,-3
4397,-63,36,1005,-11,28,1
4398,-146,30,979,-21,19,1
4399,-119,-14,992,-24,-3,-5
4400,-20,-63,996,-22,-23,-11
4401,88,-66,993,-13,-24,-12
4402,136,-41,1004,-5,-8,-11
4403,58,7,1012,-5,17,-4
4404,-45,34,1001,-12,28,0
4405,-141,35,984,-21,20,1
4406,-127,-6,994,-24,-1,-4
4407,-40,-57,994,-22,-21,-9
4408,78,-65,1000,-13,-24,-11
4409,134,-49,1001,-6,-10,-11
4410,76,-3,1003,-3,11,-4
4411,-28,30,998,-9,26,-1
4412,-129,43,988,-20,22,1
4413,-134,-2,998,-24,2,-4
4414,-63,-42,985,-23,-19,-9
4415,67,-65,1005,-16,-26,-12
4416,127,-57,1009,-6,-14,-11
4417,87,-11,1000,-3,11,-5
4418,-5,27,998,-8,26,-2
4419,-123,41,991,-17,25,3
4420,-137,2,993,-23,7,-3
4421,-82,-38,985,-24,-15,-8
4422,57,-63,1006,-16,-27,-13
4423,118,-62,1009,-9,-16,-12
4424,105,-16,1008,-4,5,-5
4425,13,27,995,-7,22,-3
4426,-114,39,989,-16,26,2
4427,-144,6,988,-25,9,-1
4428,-96,-31,990,-23,-12,-7
4429,39,-64,1003,-17,-27,-12
4430,106,-63,1006,-8,-20,-14
4431,117,-22,1005,-2,1,-9
4432,25,23,1004,-7,22,-3
4433,-96,36,1002,-14,28,2
4434,-143,17,976,-23,13,-1
4435,-101,-21,983,-25,-10,-6
4436,14,-65,1006,-20,-28,-12
4437,100,-65,1003,-10,-21,-12
4438,130,-28,1007,-6,-2,-10
4439,37,19,1004,-5,20,-3
4440,-76,35,1004,-14,27,0
4441,-143,25,976,-21,14,-1
4442,-115,-15,989,-24,-6,-4
4443,0,-66,997,-21,-24,-12
4444,89,-68,997,-11,-23,-12
4445,134,-31,1005,-4,-7,-9
4446,47,9,1009,-5,18,-3
4447,-56,33,1003,-11,27,1
4448,-139,27,980,-20,19,1
4449,-123,-11,994,-25,-3,-6
4450,-27,-63,992,-22,-24,-11
4451,83,-64,995,-11,-24,-12
4452,137,-40,1004,-5,-10,-12
4453,63,4,1007,-6,14,-4
4454,-37,32,1005,-10,27,0
4455,-137,39,982,-20,20,1
4456,-129,-10,993,-23,1,-4
4457,-50,-55,997,-22,-20,-11
4458,75,-67,1003,-14,-26,-12
4459,132,-49,999,-6,-13,-11
4460,82,-7,1005,-3,11,-4
4461,-16,36,999,-8,25,-2
4462,-133,38,986,-21,25,2
4463,-132,-1,1000,-25,5,-3
4464,-73,-49,980,-24,-17,-8
4465,65,-62,1008,-14,-27,-14
4466,129,-60,1008,-6,-15,-13
4467,97,-11,1008,-2,9,-6
4468,0,32,991,-7,26,-2
4469,-121,43,991,-15,27,3
4470,-140,3,994,-23,8,-2
4471,-89,-37,982,-25,-13,-7
4472,53,-63,1007,-17,-26,-12
4473,115,-68,1007,-8,-17,-13
4474,110,-13,1006,-2,4,-7
4475,19,24,1001,-7,22,-3
4476,-109,42,994,-16,27,2
4477,-141,11,983,-23,10,-1
4478,-100,-25,985,-25,-10,-8
4479,29,-66,1004,-19,-26,-11
4480,103,-69,1005,-10,-19,-12
4481,117,-24,1005,-1,-2,-7
4482,31,20,1003,-6,22,-3
4483,-88,38,1007,-14,30,1
4484,-144,22,975,-22,13,0
4485,-104,-15,985,-25,-8,-6
