sequence,AccelerometerX,AccelerometerY,AccelerometerZ,GyroscopeX,GyroscopeY,GyroscopeZ
0,53,9,1007,-2,17,-4
1,-50,34,1005,-13,23,-1
2,-137,36,979,-20,23,1
3,-123,-8,998,-22,0,-5
4,-31,-61,994,-19,-21,-11
5,80,-70,1001,-11,-25,-13
6,134,-48,1002,7,-10,-13
7,65,0,1003,2,14,-5
8,-31,35,1003,-9,25,0
9,-133,40,984,-19,23,2
10,-128,-5,998,-25,3,-3
11,-59,-49,989,-23,-17,-8
12,67,-58,1008,-14,-24,-13
13,130,-49,1004,-5,-13,-11
14,83,-9,1003,-3,8,-7
15,-11,29,992,-9,25,-3
16,-120,37,991,-20,25,1
17,-134,-2,990,-24,6,-3
18,-79,-41,983,-24,-15,-7
19,57,-58,1004,-14,-26,-13
20,115,-56,1010,-8,-15,-13
21,105,-12,1010,-5,6,-7
22,8,27,996,-8,22,-2
23,-110,34,988,-15,26,2
24,-140,1,990,-22,8,-3
25,-94,-31,987,-22,-10,-5
26,41,-60,1001,-18,-26,-11
27,103,-61,1007,-9,-17,-12
28,111,-14,1002,-2,1,-7
29,23,23,1007,-8,21,-4
30,-93,36,1002,-17,26,1
31,-139,11,978,-25,11,-1
32,-103,-25,984,-25,-9,-5
33,16,-67,1004,-19,-26,-11
34,96,-67,1001,-10,-20,-14
35,125,-24,1006,-3,-3,-8
36,35,19,1007,-6,19,-2
37,-74,37,1007,-14,28,1
38,-140,21,980,-21,16,-1
39,-114,-15,994,-23,-4,-5
40,-6,-68,995,-19,-23,-11
41,90,-69,997,-9,-22,-13
42,131,-35,1002,-3,-7,-9
43,49,12,1009,-5,17,-4
44,-50,35,1002,-11,28,-1
45,-142,33,981,-20,21,0
46,-118,-9,999,-27,-3,-5
47,-31,-64,996,-22,-22,-11
48,83,-63,994,-11,-25,-12
49,133,-43,1006,-6,-9,-10
50,64,4,1003,-4,14,-4
51,-37,34,1000,-10,24,0
52,-133,39,983,-21,20,-1
53,-129,-6,993,-25,2,-3
54,-50,-55,990,-23,-18,-10
55,69,-64,1009,-14,-25,-12
56,129,-50,1001,-6,-13,-11
57,80,-6,1004,-3,10,-5
58,-15,30,996,-9,25,-1
59,-125,43,989,-17,26,3
60,-132,-6,996,-24,6,-2
61,-75,-46,979,-25,-16,-7
62,58,-63,1005,-14,-26,-12
63,119,-55,1010,-6,-16,-12
64,95,-12,1012,-4,7,-7
65,6,31,991,-8,24,-2
66,-116,40,990,-17,26,2
67,-134,1,991,-24,8,-2
68,-89,-35,984,-24,-12,-7
69,40,-64,1001,-16,-26,-12
70,109,-62,1007,-9,-19,-14
71,110,-15,1007,-2,2,-7
72,19,26,1003,-8,21,-2
73,-97,40,1003,-16,28,2
74,-140,11,977,-26,12,-2
75,-100,-24,983,-23,-9,-7
76,24,-68,1004,-18,-26,-13
77,99,-65,1001,-9,-21,-12
78,124,-24,1006,-4,-3,-9
79,33,18,1005,-6,20,-4
80,-81,35,1008,-13,28,1
81,-139,20,977,-23,14,-1
82,-113,-15,992,-23,-7,-5
83,4,-64,996,-21,-24,-11
84,90,-70,997,-13,-20,-12
85,135,-31,1005,-5,-7,-10
86,43,13,1007,-5,16,-4
87,-56,38,1004,-12,26,1
88,-142,27,982,-23,19,1
89,-118,-10,997,-25,-1,-4
90,-26,-64,994,-22,-21,-10
91,84,-61,997,-11,-24,-13
92,129,-43,1004,-6,-10,-10
93,62,6,1007,-4,14,-5
94,-41,30,1003,-11,26,0
95,-133,36,980,-19,21,1
96,-125,-7,999,-23,1,-4
97,-51,-51,995,-22,-17,-10
98,76,-65,1007,-15,-24,-13
99,128,-47,1002,-7,-12,-12
100,75,-4,998,-3,11,-5
101,-19,31,1000,-8,25,-2
102,-129,38,989,-18,25,2
103,-133,-1,993,-24,5,-3
104,-68,-45,987,-23,-17,-9
105,60,-58,1006,-15,-26,-12
106,123,-52,1007,-7,-16,-11
107,90,-17,1009,-4,6,-6
108,3,29,992,-9,23,-1
109,-117,37,992,-17,27,3
110,-137,4,993,-24,7,-2
111,-88,-36,985,-25,-12,-7
112,48,-59,1002,-17,-25,-12
113,107,-59,1008,-8,-16,-12
114,108,-9,1006,-3,3,-7
115,16,23,1002,-10,22,-3
116,-104,36,1000,-16,27,1
117,-140,3,980,-24,11,-1
118,-94,-29,985,-24,-10,-8
119,25,-66,999,-18,-25,-12
120,99,-63,1003,-9,-18,-13
121,121,-19,1004,-3,-1,-8
122,26,27,1008,-6,22,-3
123,-83,39,1003,-14,27,0
124,-143,17,980,-23,14,-1
125,-106,-21,985,-26,-8,-4
126,3,-70,1001,-19,-25,-12
127,100,-70,1003,-10,-22,-13
128,127,-28,1003,-3,-4,-9
129,40,17,1002,-5,18,-4
130,-64,37,1007,-13,25,0
131,-141,29,977,-23,18,0
132,-118,-16,998,-25,-2,-6
133,-14,-65,996,-21,-24,-12
134,86,-67,992,-12,-24,-11
135,133,-36,1004,-4,-9,-10
136,54,5,1010,-3,15,-3
137,-43,37,997,-10,25,-1
138,-138,33,983,-21,21,0
139,-124,-6,993,-25,-2,-5
140,-42,-60,996,-22,-20,-10
141,82,-66,1005,-11,-24,-12
142,129,-49,999,-6,-13,-10
143,74,0,1000,-2,11,-5
144,-25,30,998,-8,25,-2
145,-129,43,988,-19,22,2
146,-129,-6,993,-26,3,-4
147,-65,-47,989,-23,-16,-11
148,65,-60,1005,-15,-25,-11
149,124,-57,1010,-6,-13,-11
150,89,-10,1005,-3,9,-5
151,-4,32,993,-8,24,-2
152,-120,43,991,-18,26,1
153,-133,1,995,-25,6,-3
154,-83,-36,983,-25,-14,-7
155,51,-65,1004,-16,-25,-12
156,114,-63,1012,-6,-17,-13
157,102,-13,1005,-3,5,-7
158,14,29,1002,-9,22,-3
159,-110,38,991,-17,26,3
160,-137,4,986,-24,10,-3
161,-93,-28,986,-22,-9,-8
162,30,-66,1001,-17,-25,-11
163,101,-62,1003,-8,-19,-12
164,116,-20,1006,-4,-1,-7
165,29,24,1004,-7,20,-4
166,-89,35,1009,-14,27,1
167,-143,16,975,-22,13,-2
168,-103,-20,986,-25,-9,-7
169,10,-66,1002,-18,-26,-11
170,95,-66,1004,-10,-20,-12
171,127,-27,1004,-3,-3,-9
172,35,16,1006,-7,19,-3
173,-69,36,1002,-13,26,2
174,-141,24,982,-21,16,1
175,-114,-14,994,-25,-4,-4
176,-12,-64,996,-20,-22,-11
177,89,-69,996,-12,-23,-12
178,131,-37,1004,-4,-8,-9
179,53,6,1009,-4,16,-3
180,-49,34,1001,-10,26,0
181,-139,33,981,-19,20,0
182,-123,-9,995,-24,0,-5
183,-34,-56,995,-21,-21,-10
184,80,-66,1003,-12,-25,-13
185,129,-45,1001,-5,-10,-10
186,69,0,1002,-3,14,-5
187,-30,32,999,-9,25,-1
188,-134,40,984,-19,22,2
189,-124,-7,994,-26,1,-4
190,-61,-54,992,-23,-17,-9
191,68,-60,1005,-13,-25,-12
192,125,-48,1008,-6,-14,-12
193,86,-9,1004,-4,8,-5
194,-6,30,994,-9,24,-2
195,-123,36,991,-17,25,1
196,-133,-2,995,-24,6,-3
197,-80,-41,981,-24,-14,-8
198,55,-60,1003,-13,-26,-13
199,112,-60,1014,-7,-14,-13
200,100,-13,1008,-4,5,-7
201,10,27,996,-6,23,-3
202,-111,38,990,-16,25,1
203,-138,0,989,-23,9,-2
204,-92,-30,984,-25,-10,-6
205,35,-64,1004,-18,-25,-11
206,105,-61,1005,-8,-17,-12
207,114,-18,1004,-4,0,-6
208,23,27,1005,-7,22,-3
209,-95,32,1006,-15,28,1
210,-140,17,977,-23,12,-2
211,-104,-22,983,-25,-10,-7
212,16,-63,1003,-19,-26,-12
213,97,-66,1000,-12,-20,-12
214,125,-24,1004,-5,-2,-10
215,35,20,1006,-5,20,-4
216,-76,34,1006,-11,27,0
217,-140,22,978,-22,15,-1
218,-111,-12,994,-26,-4,-5
219,-3,-67,995,-21,-23,-12
220,91,-66,1000,-12,-22,-13
221,135,-36,1001,-3,-6,-11
222,48,12,1010,-3,16,-5
223,-52,34,1002,-12,26,0
224,-139,32,980,-21,20,1
225,-120,-12,997,-26,-3,-4
226,-33,-62,993,-22,-21,-11
227,84,-65,998,-13,-23,-13
228,134,-46,1002,-6,-10,-11
229,63,3,1003,-3,14,-5
230,-33,30,1006,-9,26,-1
231,-133,40,976,-20,22,2
232,-128,-6,997,-24,2,-2
233,-53,-51,993,-24,-19,-9
234,69,-64,1008,-14,-26,-12
235,130,-50,1003,-6,-13,-12
236,81,-13,1004,-5,11,-4
237,-11,34,992,-7,24,0
238,-128,39,994,-19,26,2
239,-133,-1,992,-26,5,-3
240,-76,-44,982,-24,-15,-8
241,59,-57,1007,-14,-27,-13
242,117,-60,1011,-7,-15,-12
243,98,-15,1008,-3,7,-7
244,5,30,995,-7,24,-1
245,-116,39,988,-17,27,3
246,-137,2,989,-24,9,-3
247,-92,-33,987,-26,-11,-7
248,46,-64,1001,-18,-26,-13
249,108,-64,1008,-8,-18,-13
250,111,-14,1003,-3,0,-6
251,22,27,1006,-6,21,-2
252,-98,34,1001,-17,26,3
253,-142,11,979,-23,12,-2
254,-99,-26,984,-24,-8,-6
255,20,-67,1003,-17,-25,-11
256,101,-66,1004,-8,-21,-12
257,123,-23,1005,-4,-2,-9
258,33,21,1006,-6,19,-2
259,-78,37,1007,-14,27,1
260,-138,19,978,-23,15,-2
261,-111,-17,990,-26,-6,-4
262,0,-68,996,-20,-23,-12
263,93,-67,1001,-12,-20,-14
264,129,-28,1003,-3,-6,-10
265,44,14,1003,-4,16,-5
266,-58,35,1006,-13,26,0
267,-138,30,977,-22,20,0
268,-118,-14,998,-24,-2,-4
269,-24,-62,994,-20,-22,-11
270,83,-68,997,-11,-24,-12
271,131,-40,999,-4,-10,-11
272,61,4,1007,-3,15,-4
273,-37,34,1000,-11,26,0
274,-134,38,982,-20,21,0
275,-129,-7,995,-25,0,-4
276,-47,-56,996,-23,-19,-10
277,74,-67,1004,-14,-24,-12
278,129,-49,1005,-7,-11,-12
279,77,-5,997,-4,11,-6
280,-17,33,1003,-9,25,-2
281,-129,41,985,-18,25,2
282,-130,-1,998,-24,6,-2
283,-70,-47,981,-23,-17,-9
284,58,-61,1008,-13,-27,-12
285,125,-55,1008,-8,-15,-12
286,90,-17,1011,-5,8,-5
287,2,30,990,-9,24,-2
288,-119,38,989,-16,25,2
289,-135,4,989,-24,6,-3
290,-88,-36,985,-24,-13,-7
291,45,-62,1006,-14,-26,-11
292,108,-64,1007,-7,-17,-11
293,108,-12,1005,-1,3,-7
294,20,25,1004,-10,22,-3
295,-100,36,998,-16,27,2
296,-141,6,981,-22,12,-1
297,-96,-23,986,-25,-10,-7
298,27,-66,1002,-18,-26,-11
299,101,-61,1003,-7,-20,-12
300,121,-22,1004,-4,-1,-7
301,30,20,1004,-6,21,-3
302,-83,32,1007,-14,28,2
303,-141,17,977,-22,14,-1
304,-109,-18,987,-24,-5,-5
305,4,-65,999,-20,-24,-11
306,93,-64,999,-12,-22,-12
307,128,-28,1004,-4,-4,-10
308,42,13,1005,-5,18,-3
309,-64,32,1004,-13,27,1
310,-140,23,979,-21,17,0
311,-115,-12,996,-24,-3,-4
312,-19,-60,993,-21,-23,-11
313,87,-61,997,-11,-23,-14
314,131,-36,1002,-4,-8,-10
315,56,6,1004,-4,15,-4
316,-42,34,1005,-12,27,-1
317,-138,34,976,-20,21,1
318,-122,-11,998,-25,-1,-4
319,-44,-56,993,-23,-21,-10
320,76,-59,1007,-14,-24,-12
321,131,-46,1001,-7,-11,-11
322,73,-2,998,-3,11,-4
323,-22,31,998,-10,25,-1
324,-130,38,988,-19,23,2
325,-130,-7,992,-25,3,-4
326,-69,-47,988,-23,-16,-8
327,65,-59,1004,-15,-26,-12
328,122,-54,1012,-8,-14,-12
329,92,-9,1006,-2,8,-6
330,-2,30,995,-9,25,-3
331,-115,37,988,-17,24,3
332,-134,0,992,-25,7,-1
333,-85,-37,983,-24,-14,-7
334,46,-64,1004,-15,-25,-12
335,107,-60,1008,-10,-17,-11
336,105,-13,1006,-3,4,-7
337,15,26,1000,-6,23,-3
338,-105,38,994,-16,26,2
339,-136,7,985,-24,11,-2
340,-95,-29,987,-24,-10,-6
341,26,-64,1000,-18,-25,-12
342,102,-63,1003,-8,-19,-13
343,116,-18,1006,-1,0,-9
344,32,23,1004,-5,24,-3
345,-86,34,1009,-17,41,6
346,-137,14,974,-22,15,0
347,-106,-20,987,-23,-7,-5
348,8,-66,997,-20,-24,-12
349,92,-65,1001,-12,-20,-13
350,132,-28,1004,-4,-5,-10
351,38,17,1009,-4,18,-3
352,-64,38,1002,-12,26,0
353,-140,23,981,-23,19,0
354,-115,-14,997,-25,-2,-4
355,-15,-66,992,-22,-23,-10
356,88,-65,998,-11,-24,-13
357,132,-38,1003,-4,-10,-10
358,54,11,1008,-6,16,-4
359,-47,33,1006,-12,27,0
360,-137,33,975,-22,20,2
361,-126,-11,997,-24,-1,-4
362,-37,-59,996,-23,-19,-10
363,77,-69,1004,-13,-23,-12
364,133,-44,1000,-5,-10,-12
365,69,-3,1004,-3,14,-3
366,-22,33,996,-10,24,-1
367,-132,36,988,-20,23,3
368,-129,-4,993,-26,4,-2
369,-64,-51,991,-24,-18,-8
370,65,-60,1001,-14,-26,-12
371,126,-53,1012,-8,-14,-12
372,87,-11,1002,-4,8,-6
373,-3,30,996,-9,24,-1
374,-122,41,989,-16,25,3
375,-135,-1,990,-24,6,-2
376,-85,-38,984,-23,-14,-8
377,52,-62,1001,-15,-26,-12
378,113,-59,1015,-10,-15,-13
379,103,-16,1006,-3,5,-6
380,15,28,996,-5,22,-2
381,-105,35,999,-17,27,2
382,-143,6,982,-23,10,-2
383,-90,-27,990,-27,-11,-6
384,30,-63,1001,-18,-26,-11
385,107,-63,1003,-8,-20,-12
386,117,-24,1006,-2,0,-9
387,26,24,1006,-5,21,-3
388,-90,37,1005,-14,28,0
389,-141,13,980,-22,13,-2
390,-103,-21,982,-24,-8,-6
391,12,-67,1002,-19,-26,-11
392,94,-63,1003,-10,-21,-11
393,130,-24,1001,-5,-4,-9
394,34,21,1010,-6,18,-3
395,-73,36,1001,-13,26,1
396,-142,21,980,-23,16,1
397,-113,-18,996,-25,-5,-4
398,-11,-63,992,-20,-22,-10
399,90,-66,1000,-10,-23,-13
400,131,-35,1005,-1,-8,-9
401,51,14,1007,-5,16,-2
402,-46,33,1006,-12,26,-1
403,-139,32,979,-21,20,1
404,-122,-7,997,-25,-1,-3
405,-33,-64,995,-21,-21,-10
406,80,-63,1004,-11,-22,-12
407,132,-43,997,-5,-8,-10
408,68,1,1005,-3,14,-6
409,-26,34,1000,-11,25,-1
410,-136,41,980,-20,22,1
411,-127,-9,997,-27,2,-4
412,-60,-53,990,-22,-17,-9
413,72,-62,1006,-13,-25,-12
414,126,-52,1006,-6,-13,-12
415,83,-6,1003,-2,8,-5
416,-5,31,994,-9,25,-2
417,-125,41,991,-17,25,2
418,-133,0,994,-23,4,-4
419,-78,-45,982,-23,-16,-9
420,53,-62,1002,-15,-26,-12
421,116,-59,1013,-7,-17,-12
422,98,-12,1009,-3,6,-7
423,8,31,990,-6,23,-1
424,-112,38,997,-16,25,2
425,-135,2,985,-23,8,-4
426,-88,-33,987,-23,-11,-7
427,37,-62,1006,-17,-26,-12
428,105,-62,1006,-9,-18,-12
429,113,-15,1002,-2,2,-8
430,20,26,1010,-6,21,-2
431,-91,34,1001,-16,26,1
432,-142,11,980,-23,13,-2
433,-102,-21,981,-24,-10,-6
434,18,-67,1007,-18,-26,-13
435,95,-63,1000,-10,-20,-11
436,123,-22,1004,-4,-2,-9
437,38,18,1009,-7,20,-4
438,-78,35,1001,-13,28,2
439,-138,23,979,-22,15,-1
440,-114,-21,999,-25,-4,-5
441,-6,-65,989,-21,-24,-11
442,93,-69,1001,-11,-22,-13
443,131,-32,1001,-3,-7,-10
444,47,14,1004,-6,16,-4
445,-53,33,1006,-11,27,-1
446,-141,30,978,-21,18,1
447,-118,-11,997,-24,-3,-5
448,-31,-62,997,-22,-22,-10
449,83,-67,995,-12,-24,-11
450,132,-42,1004,-6,-11,-11
451,60,3,1003,-3,13,-4
452,-31,35,1001,-11,26,-1
453,-136,35,981,-21,23,1
454,-126,-5,995,-25,2,-3
455,-54,-54,995,-22,-18,-9
456,74,-63,1005,-14,-24,-13
457,128,-50,1005,-7,-13,-11
458,80,-5,1002,-2,11,-4
459,-15,35,994,-10,25,-2
460,-124,40,992,-20,25,1
461,-132,-3,991,-26,4,-3
462,-74,-44,984,-23,-16,-9
463,58,-60,1008,-16,-26,-12
464,118,-55,1010,-8,-15,-12
465,95,-12,1010,-4,7,-6
466,5,32,993,-9,23,-3
467,-112,37,991,-18,25,2
468,-141,-1,993,-23,8,-1
469,-89,-32,982,-24,-12,-7
470,44,-67,1004,-17,-26,-11
471,104,-60,1004,-7,-17,-11
472,114,-10,1008,-3,2,-8
473,19,24,1003,-7,22,-2
474,-101,35,1006,-16,26,3
475,-139,4,978,-24,11,-2
476,-101,-26,983,-24,-9,-6
477,21,-66,1001,-19,-26,-11
478,97,-64,1004,-9,-21,-13
479,125,-22,1007,-4,0,-8
480,30,22,1003,-6,22,-3
481,-76,35,1006,-13,26,1
482,-140,18,975,-23,14,-1
483,-114,-20,991,-25,-7,-4
484,0,-69,999,-20,-23,-12
485,95,-66,999,-11,-21,-11
486,133,-29,1003,-3,-6,-9
487,44,12,1008,-5,17,-4
488,-58,35,1002,-14,26,1
489,-140,26,979,-22,19,1
490,-121,-9,1000,-25,-2,-4
491,-22,-65,994,-21,-22,-11
492,84,-64,998,-11,-23,-12
493,132,-43,1005,-5,-11,-11
494,60,5,1006,-4,14,-5
495,-38,32,1001,-11,26,-1
496,-137,37,979,-20,22,1
497,-126,-7,997,-25,1,-3
498,-50,-58,994,-22,-20,-9
499,74,-61,1005,-12,-25,-13
500,125,-49,1000,-6,-12,-10
501,77,-3,1001,-3,10,-6
502,-17,28,999,-9,24,-1
503,-131,39,988,-18,23,1
504,-130,-3,995,-26,3,-4
505,-72,-48,985,-22,-17,-8
506,63,-58,1005,-15,-26,-12
507,122,-55,1012,-7,-15,-13
508,90,-9,1007,-3,8,-6
509,0,32,990,-9,25,-2
510,-116,37,990,-18,27,2
511,-139,1,990,-25,7,-2
512,-81,-36,987,-24,-14,-8
513,44,-64,1004,-17,-26,-12
514,109,-59,1009,-8,-17,-11
515,109,-13,1008,-3,2,-8
516,15,23,1000,-7,22,-2
517,-101,40,997,-16,25,2
518,-140,5,983,-22,11,-3
519,-94,-27,981,-24,-10,-6
520,26,-66,1006,-17,-27,-12
521,98,-62,1000,-9,-20,-13
522,119,-19,1008,-4,-1,-9
523,27,23,1003,-7,21,-3
524,-84,36,1010,-13,29,3
525,-138,14,972,-23,14,1
526,-107,-23,990,-24,-6,-5
527,3,-65,999,-20,-24,-10
528,90,-66,1000,-11,-21,-12
529,127,-25,1005,-3,-5,-9
530,42,17,1006,-6,18,-2
531,-61,34,1005,-13,27,0
532,-141,24,979,-22,18,0
533,-118,-13,998,-25,-3,-4
534,-21,-63,995,-21,-22,-10
535,89,-61,996,-10,-25,-12
536,132,-38,1004,-5,-8,-11
537,58,6,1009,-6,16,-4
538,-41,30,1001,-11,26,0
539,-137,31,981,-19,22,1
540,-127,-8,993,-23,0,-4
541,-44,-56,996,-22,-20,-9
542,76,-62,1006,-13,-24,-11
543,129,-45,1004,-7,-11,-10
544,74,0,999,-2,13,-5
545,-19,33,999,-9,25,-1
546,-132,40,989,-19,24,3
547,-130,-7,993,-25,4,-3
548,-70,-49,983,-25,-16,-8
549,64,-60,1011,-14,-26,-12
550,125,-53,1007,-6,-14,-12
551,91,-10,1012,-4,9,-6
552,-3,33,990,-8,24,-2
553,-119,39,989,-17,25,1
554,-137,-2,996,-23,5,-1
555,-82,-37,980,-22,-14,-7
556,49,-62,1006,-15,-25,-12
557,111,-62,1008,-8,-16,-12
558,104,-15,1008,-2,4,-7
559,13,27,998,-7,22,-2
560,-104,37,1002,-15,25,1
561,-138,8,978,-25,11,-2
562,-96,-29,988,-24,-10,-5
563,28,-65,1001,-18,-26,-12
564,97,-65,1005,-10,-19,-13
565,123,-17,1002,-4,-1,-8
566,22,22,1009,-7,22,-3
567,-84,34,1003,-14,28,2
568,-139,14,981,-24,13,0
569,-105,-19,982,-26,-7,-5
570,9,-70,1005,-20,-25,-12
571,92,-65,999,-11,-20,-12
572,126,-29,1007,-3,-5,-9
573,41,17,1003,-5,17,-4
574,-67,32,1003,-13,27,1
575,-137,26,980,-21,18,1
576,-114,-16,1000,-25,-4,-5
577,-17,-59,989,-21,-21,-11
578,88,-67,1001,-12,-22,-12
579,130,-40,1002,-5,-7,-10
580,55,7,1008,-3,17,-4
581,-42,33,1003,-12,26,0
582,-138,33,981,-19,19,0
583,-124,-7,992,-24,-1,-4
584,-42,-59,998,-23,-20,-10
585,78,-61,1001,-14,-24,-12
586,129,-50,1001,-7,-10,-12
587,72,-1,1001,-3,12,-5
588,-25,30,1002,-8,25,-1
589,-133,39,983,-20,22,2
590,-128,-7,998,-24,3,-3
591,-63,-48,984,-24,-17,-9
592,65,-61,1006,-14,-25,-12
593,125,-54,1009,-7,-14,-12
594,87,-11,1007,-5,9,-5
595,-5,29,991,-8,24,-2
596,-119,40,995,-16,25,0
597,-134,-2,988,-24,5,-3
598,-81,-37,982,-24,-14,-8
599,53,-64,1007,-14,-26,-11
600,108,-58,1010,-9,-16,-11
601,103,-11,1007,-3,4,-6
602,14,25,1000,-7,21,-3
603,-107,34,991,-17,27,2
604,-138,5,988,-22,10,-1
605,-93,-26,984,-24,-10,-7
606,32,-63,1004,-18,-25,-12
607,101,-60,1002,-9,-18,-11
608,115,-18,1006,-5,-2,-8
609,29,22,1005,-7,19,-4
610,-91,31,1007,-14,28,1
611,-137,13,977,-22,13,-2
612,-108,-21,987,-23,-8,-5
613,11,-63,999,-18,-25,-11
614,92,-63,1004,-11,-20,-12
615,129,-27,1003,-6,-3,-10
616,37,17,1007,-6,18,-4
617,-68,32,1003,-14,26,1
618,-140,19,980,-21,16,-1
619,-112,-16,997,-24,-4,-5
620,-13,-61,996,-19,-23,-10
621,85,-61,995,-9,-21,-13
622,131,-33,1005,-4,-8,-11
623,51,5,1007,-6,17,-4
624,-48,31,1002,-13,27,0
625,-137,31,981,-21,20,2
626,-123,-9,994,-25,-1,-4
627,-36,-56,995,-22,-21,-10
628,80,-63,1004,-12,-23,-11
629,129,-46,1002,-5,-12,-10
630,72,0,1002,-4,12,-5
631,-30,29,1001,-10,25,-1
632,-130,40,983,-19,23,0
633,-128,-9,998,-25,4,-3
634,-62,-47,983,-23,-16,-8
635,68,-63,1009,-15,-26,-12
636,124,-53,1006,-7,-14,-11
637,86,-13,1004,-3,9,-6
638,-4,33,997,-7,23,-2
639,-121,39,992,-15,26,2
640,-135,2,990,-23,5,-3
641,-78,-37,984,-23,-16,-9
642,53,-61,1002,-17,-26,-12
643,117,-64,1009,-8,-15,-12
644,98,-19,1012,-4,6,-8
645,9,27,993,-6,22,-3
646,-108,38,995,-15,27,2
647,-138,7,988,-23,9,-3
648,-91,-30,983,-24,-11,-6
649,35,-64,1006,-17,-26,-12
650,101,-64,1002,-9,-19,-13
651,113,-18,1006,-1,0,-8
652,25,19,1006,-7,21,-3
653,-90,36,1006,-15,28,1
654,-139,14,976,-22,14,-2
655,-101,-18,986,-22,-8,-6
656,10,-63,999,-20,-26,-11
657,96,-63,1006,-10,-20,-13
658,127,-29,1000,-6,-3,-8
659,36,16,1005,-6,18,-4
660,-71,32,1004,-13,25,1
661,-141,22,978,-21,16,0
662,-113,-12,994,-25,-5,-5
663,-10,-61,998,-21,-23,-11
664,94,-62,992,-13,-23,-12
665,132,-38,1008,-6,-8,-10
666,52,9,1006,-4,17,-3
667,-52,28,1006,-11,29,0
668,-140,31,974,-21,21,1
669,-121,-6,1000,-24,-1,-4
670,-33,-58,994,-22,-22,-10
671,79,-59,1005,-11,-23,-12
672,136,-44,999,-6,-10,-12
673,63,-5,1007,-5,13,-4
674,-27,32,998,-9,24,-1
675,-138,38,988,-19,22,1
676,-126,-6,993,-23,3,-2
677,-59,-52,995,-23,-17,-9
678,71,-59,1005,-14,-25,-12
679,125,-51,1005,-8,-12,-13
680,86,-6,1006,-4,11,-5
681,-15,27,995,-11,26,0
682,-126,37,987,-24,28,4
683,-132,-3,998,-26,7,-2
684,-79,-41,977,-23,-16,-7
685,56,-59,1005,-14,-27,-11
686,116,-58,1015,-8,-15,-13
687,98,-14,1008,-5,5,-7
688,7,28,994,-8,23,-2
689,-111,36,993,-17,26,3
690,-136,4,981,-25,8,-2
691,-90,-33,991,-25,-12,-7
692,38,-60,1002,-16,-25,-12
693,104,-63,1006,-8,-17,-13
694,115,-17,1004,-1,1,-8
695,20,24,1006,-7,22,-3
696,-92,37,1008,-15,28,1
697,-143,9,974,-24,13,-1
698,-102,-21,984,-26,-9,-6
699,18,-68,1006,-19,-26,-11
700,97,-60,998,-10,-20,-12
701,126,-22,1009,-4,-2,-8
702,35,18,1004,-7,19,-3
703,-76,33,1005,-14,27,2
704,-139,18,978,-23,15,0
705,-114,-18,994,-24,-5,-5
706,-5,-66,993,-19,-24,-12
707,91,-64,1002,-11,-23,-11
708,131,-34,998,-5,-7,-10
709,48,11,1011,-5,17,-4
710,-53,34,1002,-12,27,-1
711,-143,29,982,-20,19,1
712,-118,-9,995,-25,-2,-4
713,-34,-59,999,-22,-23,-10
714,82,-66,993,-12,-25,-12
715,129,-42,1006,-5,-9,-10
716,63,1,1002,-3,14,-4
717,-31,34,1003,-9,25,-2
718,-137,38,978,-22,22,2
719,-127,-6,997,-24,0,-3
720,-56,-55,990,-23,-18,-10
721,71,-62,1007,-13,-24,-12
722,131,-51,1007,-8,-13,-12
723,81,-9,1001,-4,9,-5
724,-11,33,995,-9,25,0
725,-125,38,993,-18,25,1
726,-134,1,993,-25,5,-3
727,-76,-43,983,-24,-15,-8
728,54,-62,1002,-15,-26,-12
729,120,-57,1014,-8,-16,-13
730,100,-13,1007,-4,5,-6
731,4,26,996,-8,22,-2
732,-110,39,989,-16,26,0
733,-139,1,991,-25,8,-3
734,-87,-32,985,-25,-10,-7
735,38,-63,1004,-18,-25,-11
736,104,-61,1003,-10,-17,-12
737,114,-18,1007,-3,1,-7
738,23,23,1005,-8,21,-3
739,-96,36,1002,-16,27,1
740,-139,11,981,-23,13,-2
741,-101,-24,981,-23,-9,-5
742,20,-64,1005,-18,-26,-12
743,96,-65,1005,-10,-21,-13
744,121,-24,1002,-4,-2,-9
745,33,20,1006,-5,19,-3
746,-78,34,1006,-13,26,2
747,-135,19,977,-23,14,0
748,-116,-19,993,-23,-4,-4
749,-1,-65,998,-20,-24,-11
750,87,-66,998,-12,-22,-12
751,130,-28,1003,-4,-6,-9
752,47,14,1008,-5,17,-4
753,-54,33,1004,-14,27,0
754,-140,28,978,-24,19,0
755,-120,-12,996,-25,-3,-4
756,-29,-62,995,-23,-24,-11
757,86,-63,995,-12,-24,-11
758,130,-40,1006,-5,-10,-10
759,68,4,1004,-6,14,-4
760,-36,31,1002,-11,27,-1
761,-136,35,981,-20,21,2
762,-125,-9,998,-24,1,-3
763,-54,-53,993,-21,-19,-8
764,73,-63,1009,-14,-25,-12
765,131,-48,1003,-8,-13,-13
766,76,-3,1002,-3,10,-5
767,-15,36,998,-10,24,-1
768,-125,36,991,-19,25,2
769,-130,-6,992,-24,6,-4
770,-74,-48,986,-24,-16,-8
771,60,-60,1003,-14,-27,-12
772,119,-57,1011,-8,-15,-11
773,94,-9,1012,-5,7,-7
774,5,35,989,-9,23,-1
775,-112,39,993,-17,25,2
776,-138,1,989,-25,8,-2
777,-87,-37,984,-25,-12,-7
778,46,-65,1003,-17,-26,-12
779,104,-62,1005,-9,-17,-12
780,112,-17,1005,-2,2,-7
781,19,25,1004,-8,21,-2
782,-97,40,1000,-15,26,2
783,-139,10,981,-23,12,-2
784,-98,-26,983,-25,-9,-5
785,21,-66,1003,-19,-26,-11
786,95,-64,1001,-10,-20,-11
787,123,-26,1006,-4,-2,-8
788,32,18,1004,-6,20,-2
789,-79,35,1005,-14,27,2
790,-138,19,980,-23,15,-1
791,-112,-16,989,-24,-7,-5
792,0,-64,998,-21,-23,-11
793,93,-64,1000,-13,-20,-13
794,130,-33,1000,-4,-6,-9
795,44,13,1010,-5,17,-4
796,-61,32,1007,-11,27,1
797,-139,27,977,-20,20,1
798,-119,-13,1000,-24,-2,-4
799,-26,-60,993,-20,-22,-10
800,86,-61,998,-12,-23,-12
801,133,-42,1004,-5,-8,-10
802,59,5,1006,-4,16,-4
803,-39,29,999,-11,26,-1
804,-136,35,984,-19,20,1
805,-126,-9,990,-25,-1,-3
806,-49,-56,996,-22,-20,-11
807,73,-60,1008,-13,-25,-12
808,129,-43,999,-6,-13,-11
809,79,-3,1003,-3,11,-6
810,-18,27,999,-9,24,-2
811,-125,38,984,-19,25,1
812,-130,-7,996,-25,4,-4
813,-72,-44,984,-23,-16,-8
814,61,-59,1002,-15,-26,-13
815,118,-53,1013,-8,-16,-13
816,93,-11,1009,-4,7,-6
817,4,27,992,-9,22,-2
818,-112,37,989,-17,26,2
819,-136,1,992,-24,8,-1
820,-87,-36,984,-24,-13,-7
821,43,-62,1005,-18,-26,-13
822,105,-55,1007,-9,-17,-12
823,110,-16,1008,-5,2,-7
824,20,24,1003,-8,21,-2
825,-99,33,1004,-17,27,1
826,-139,6,979,-25,12,-1
827,-99,-25,985,-25,-8,-6
828,27,-63,1004,-19,-26,-11
829,97,-61,1004,-9,-20,-13
830,123,-22,1007,-4,-1,-8
831,32,21,1005,-7,20,-4
832,-82,31,1005,-14,27,1
833,-139,16,976,-23,15,-1
834,-109,-22,989,-26,-5,-4
835,1,-64,998,-19,-24,-11
836,93,-65,1002,-10,-21,-13
837,131,-31,1002,-4,-6,-10
838,43,18,1004,-6,16,-2
839,-59,35,1005,-13,27,0
840,-142,26,979,-23,20,1
841,-117,-14,998,-25,-1,-4
842,-24,-60,996,-23,-21,-10
843,82,-64,997,-13,-24,-12
844,132,-42,999,-5,-9,-10
845,61,3,1010,-6,15,-4
846,-38,31,999,-11,25,0
847,-136,34,980,-21,20,1
848,-126,-8,995,-25,1,-4
849,-51,-55,995,-23,-18,-9
850,79,-62,1005,-14,-25,-13
851,124,-49,1004,-8,-13,-11
852,79,-3,1001,-4,11,-5
853,-19,27,999,-10,26,-2
854,-128,37,989,-18,25,1
855,-129,-2,993,-24,4,-3
856,-72,-46,985,-24,-17,-9
857,63,-59,1005,-15,-26,-11
858,124,-54,1015,-9,-15,-12
859,89,-11,1005,-5,8,-5
860,4,27,996,-10,24,-3
861,-118,37,989,-18,25,3
862,-136,0,991,-25,6,-2
863,-84,-37,988,-24,-13,-8
864,47,-59,1003,-16,-26,-12
865,107,-58,1008,-10,-17,-11
866,108,-16,1006,-5,3,-7
867,16,22,998,-8,22,-3
868,-101,34,1001,-16,26,2
869,-140,6,979,-24,13,-1
870,-99,-26,984,-23,-8,-5
871,24,-61,1005,-18,-25,-12
872,97,-62,1005,-11,-20,-12
873,121,-20,1002,-5,-1,-8
874,30,16,1008,-7,21,-4
875,-83,30,1004,-15,27,2
876,-139,14,979,-23,12,-1
877,-109,-16,987,-24,-7,-5
878,6,-66,1001,-20,-24,-11
879,96,-62,1000,-12,-21,-12
880,128,-29,1004,-5,-5,-10
881,42,13,1005,-8,17,-5
882,-60,28,1004,-13,27,0
883,-142,25,979,-22,18,1
884,-113,-16,996,-25,-2,-5
885,-20,-59,996,-22,-22,-11
886,87,-61,995,-13,-23,-12
887,133,-37,1007,-7,-8,-10
888,56,3,1004,-6,16,-3
889,-40,33,1001,-10,26,-2
890,-141,30,981,-19,20,1
891,-125,-10,992,-23,0,-4
892,-47,-58,996,-25,-19,-9
893,76,-61,1008,-16,-25,-12
894,130,-48,1000,-7,-12,-11
895,78,-2,1005,-4,12,-5
896,-22,31,997,-11,25,0
897,-130,40,991,-20,24,1
898,-130,-10,990,-25,4,-3
899,-73,-48,985,-22,-16,-9
900,66,-58,1008,-14,-28,-13
901,121,-58,1010,-7,-14,-12
902,94,-11,1007,-5,9,-5
903,-2,24,994,-10,24,-2
904,-116,37,989,-18,25,2
905,-137,-2,995,-25,7,-1
906,-85,-34,983,-23,-15,-8
907,47,-63,1002,-17,-26,-12
908,111,-58,1009,-8,-17,-13
909,107,-17,1006,-3,3,-7
910,17,28,1003,-8,22,-1
911,-106,37,999,-15,28,1
912,-139,7,982,-23,12,-2
913,-99,-26,984,-24,-10,-6
914,27,-62,1002,-18,-25,-11
915,98,-64,1002,-10,-19,-12
916,121,-21,1005,-3,-1,-9
917,25,23,1005,-8,22,-3
918,-83,33,1009,-15,27,2
919,-141,15,974,-23,12,-1
920,-104,-21,987,-24,-7,-6
921,5,-64,1001,-21,-24,-11
922,93,-63,999,-11,-20,-12
923,132,-28,1004,-4,-4,-9
924,38,11,1006,-4,18,-3
925,-62,32,1003,-12,27,-1
926,-140,22,983,-23,18,-1
927,-116,-17,993,-24,-3,-6
928,-17,-60,998,-21,-22,-11
929,82,-63,994,-11,-23,-12
930,135,-42,1002,-3,-8,-10
931,55,2,1009,-4,15,-3
932,-44,30,999,-12,26,0
933,-138,31,982,-20,21,1
934,-123,-12,996,-22,1,-4
935,-40,-52,995,-22,-20,-9
936,78,-61,1004,-14,-24,-12
937,127,-44,1001,-6,-10,-11
938,74,-3,1000,-4,12,-5
939,-24,29,1000,-9,25,-2
940,-132,35,989,-22,23,2
941,-132,-5,991,-24,4,-3
942,-67,-46,989,-23,-16,-8
943,65,-56,1003,-14,-27,-12
944,122,-51,1013,-7,-14,-12
945,92,-9,1006,-5,8,-6
946,-4,30,995,-10,25,-2
947,-121,35,987,-17,26,1
948,-133,-6,995,-24,5,-3
949,-81,-37,982,-23,-13,-8
950,52,-63,1003,-16,-27,-12
951,113,-57,1011,-8,-17,-12
952,103,-14,1006,-4,4,-6
953,15,27,997,-8,21,-3
954,-106,33,998,-16,25,1
955,-142,2,981,-24,10,-3
956,-96,-30,988,-24,-9,-6
957,32,-66,1001,-19,-26,-11
958,102,-61,1002,-7,-18,-12
959,120,-17,1005,-3,1,-7
960,28,23,1005,-7,21,-3
961,-87,33,1007,-14,27,2
962,-141,11,974,-24,11,-1
963,-109,-23,986,-24,-8,-5
964,10,-65,1002,-19,-25,-11
965,94,-64,1000,-9,-21,-12
966,129,-23,1004,-4,-4,-9
967,38,17,1006,-6,19,-3
968,-69,31,1003,-13,27,1
969,-140,24,982,-23,17,0
970,-116,-19,994,-26,-3,-5
971,-14,-63,996,-20,-22,-11
972,91,-62,994,-11,-23,-12
973,131,-35,1008,-3,-8,-11
974,55,7,1005,-6,16,-4
975,-52,31,1004,-12,28,0
976,-136,28,977,-21,21,1
977,-124,-11,999,-25,-1,-3
978,-36,-57,992,-22,-22,-9
979,78,-62,1006,-13,-25,-12
980,132,-44,999,-8,-10,-11
981,70,-1,1005,-4,13,-4
982,-26,30,997,-10,26,-1
983,-132,35,989,-20,21,2
984,-130,-6,991,-24,3,-2
985,-64,-49,991,-22,-17,-9
986,70,-61,1006,-14,-26,-12
987,124,-50,1007,-7,-14,-12
988,86,-7,1005,-4,9,-5
989,-5,29,994,-8,25,-1
990,-123,33,987,-16,25,3
991,-132,-2,994,-23,5,-2
992,-80,-42,983,-25,-14,-8
993,55,-55,1004,-15,-27,-13
994,114,-58,1010,-8,-17,-13
995,102,-12,1009,-4,6,-6
996,11,27,994,-8,23,-2
997,-108,36,995,-16,26,1
998,-141,0,984,-25,9,-2
999,-92,-28,982,-25,-10,-7
1000,35,-66,1003,-17,-26,-13
1001,104,-60,1003,-10,-19,-12
1002,118,-14,1004,-3,0,-8
1003,22,21,1008,-8,22,-3
1004,-90,35,1004,-14,27,2
1005,-141,7,977,-23,12,-1
1006,-103,-22,984,-23,-8,-6
1007,14,-68,999,-19,-25,-11
1008,95,-65,1005,-11,-21,-13
1009,130,-29,1002,-4,-4,-9
1010,35,17,1009,-5,21,-2
1011,-72,35,1001,-13,28,2
1012,-140,21,983,-23,15,0
1013,-115,-18,992,-26,-4,-4
1014,-9,-65,998,-21,-23,-11
1015,93,-64,999,-11,-22,-13
1016,131,-39,1000,-4,-7,-9
1017,52,11,1008,-1,12,-6
1018,-50,30,1005,-6,24,-2
1019,-143,33,978,-21,19,0
1020,-122,-9,997,-24,-2,-6
1021,-37,-55,998,-21,-22,-11
1022,81,-65,1000,-14,-24,-12
1023,133,-44,1003,-5,-11,-11
1024,65,-1,1004,-5,14,-5
1025,-29,30,999,-11,25,-2
1026,-137,36,985,-19,23,2
1027,-129,-6,994,-24,3,-3
1028,-61,-50,993,-23,-18,-10
1029,71,-57,1006,-13,-26,-13
1030,127,-48,1006,-6,-14,-11
1031,84,-7,1004,-3,10,-5
1032,-9,27,995,-9,25,-1
1033,-126,34,986,-17,24,1
1034,-134,-8,993,-25,5,-3
1035,-78,-41,983,-22,-16,-9
1036,55,-61,1004,-15,-26,-13
1037,117,-56,1015,-6,-15,-12
1038,102,-13,1012,-6,6,-5
1039,8,27,993,-7,22,-1
1040,-113,35,991,-16,26,3
1041,-136,-2,987,-24,8,-2
1042,-95,-34,985,-24,-10,-7
1043,41,-63,1000,-17,-26,-12
1044,106,-60,1009,-8,-18,-12
1045,115,-14,1001,-2,2,-8
1046,24,27,1007,-6,21,-3
1047,-95,34,1007,-15,27,2
1048,-140,11,976,-24,11,-2
1049,-100,-28,982,-24,-10,-6
1050,17,-67,1003,-18,-25,-12
1051,97,-63,1000,-10,-18,-13
1052,125,-21,1007,-4,0,-9
1053,36,23,1006,-7,22,-1
1054,-76,35,1004,-14,28,1
1055,-140,18,980,-23,16,0
1056,-114,-20,993,-25,-4,-4
1057,-5,-65,993,-20,-22,-10
1058,88,-66,1001,-11,-23,-12
1059,133,-31,1002,-4,-9,-9
1060,47,11,1008,-5,17,-2
1061,-52,35,1004,-11,27,0
1062,-139,30,981,-22,19,-1
1063,-123,-13,994,-24,-2,-4
1064,-32,-60,998,-21,-22,-11
1065,86,-65,999,-11,-24,-12
1066,132,-44,1001,-5,-8,-11
1067,63,4,1003,-5,14,-4
1068,-33,33,1007,-10,25,-3
1069,-137,33,978,-20,22,1
1070,-130,-5,998,-23,3,-4
1071,-52,-54,993,-23,-19,-10
1072,73,-61,1004,-16,-25,-11
1073,131,-47,1002,-8,-13,-10
1074,83,-7,1006,-3,10,-4
1075,-13,30,992,-10,25,-1
1076,-128,40,991,-20,25,2
1077,-134,-3,994,-24,5,-2
1078,-76,-45,981,-23,-14,-9
1079,62,-56,1005,-15,-26,-12
1080,118,-54,1014,-9,-15,-12
1081,100,-10,1010,-3,7,-6
1082,3,23,991,-8,24,-2
1083,-113,38,991,-17,25,1
1084,-138,0,991,-22,8,-2
1085,-90,-32,982,-24,-13,-7
1086,44,-64,1005,-18,-27,-11
1087,109,-60,1007,-10,-17,-12
1088,109,-12,1001,-3,1,-7
1089,20,24,1006,-9,22,-3
1090,-97,31,1003,-16,27,1
1091,-141,6,973,-22,11,-1
1092,-99,-23,985,-25,-9,-7
1093,22,-65,1006,-18,-26,-12
1094,96,-63,1002,-10,-20,-13
1095,127,-22,1006,-4,-1,-10
1096,30,18,1008,-6,23,-3
1097,-77,38,1005,-13,27,2
1098,-142,16,979,-23,16,-1
1099,-112,-17,990,-25,-6,-5
1100,-3,-68,998,-21,-24,-11
1101,94,-62,999,-11,-22,-12
1102,130,-32,1005,-4,-6,-8
1103,47,12,1005,-6,18,-4
1104,-59,31,1005,-12,27,1
1105,-139,30,979,-22,18,1
1106,-121,-14,1000,-25,-3,-5
1107,-27,-60,995,-22,-22,-10
1108,86,-61,996,-14,-24,-12
1109,133,-41,1003,-6,-8,-10
1110,60,4,1007,-6,14,-4
1111,-35,31,1000,-11,24,-2
1112,-139,32,981,-19,20,1
1113,-126,-11,991,-25,0,-3
1114,-50,-53,1000,-23,-19,-9
1115,75,-61,1003,-12,-25,-11
1116,130,-49,1004,-8,-12,-12
1117,81,-2,1002,-3,11,-5
1118,-19,28,999,-8,25,-1
1119,-126,40,985,-20,25,2
1120,-134,-9,995,-24,5,-3
1121,-72,-46,980,-24,-17,-8
1122,62,-61,1007,-15,-26,-13
1123,122,-53,1011,-7,-15,-13
1124,98,-10,1009,-5,6,-7
1125,0,30,994,-9,23,-2
1126,-115,35,988,-16,25,2
1127,-138,0,992,-24,8,-3
1128,-84,-38,981,-25,-12,-8
1129,47,-62,1004,-16,-27,-12
1130,114,-63,1009,-9,-18,-13
1131,108,-14,1004,-3,2,-7
1132,20,26,1003,-7,21,-3
1133,-103,31,1001,-16,26,2
1134,-141,7,978,-23,12,-2
1135,-96,-29,987,-24,-10,-7
1136,25,-62,1001,-18,-25,-12
1137,100,-62,1003,-11,-19,-13
1138,119,-20,1003,-4,-1,-10
1139,28,21,1007,-8,21,-1
1140,-81,34,1005,-13,26,1
1141,-144,16,977,-23,15,0
1142,-109,-20,987,-26,-7,-5
1143,2,-66,1003,-20,-24,-12
1144,96,-64,998,-11,-21,-12
1145,131,-25,1004,-4,-5,-9
1146,38,13,1005,-6,18,-4
1147,-62,35,1004,-14,26,1
1148,-141,25,978,-24,17,0
1149,-117,-15,996,-25,-2,-5
1150,-17,-63,997,-19,-21,-11
1151,85,-62,996,-11,-24,-14
1152,134,-39,1002,-5,-9,-10
1153,58,6,1010,-4,17,-4
1154,-42,29,997,-12,26,0
1155,-139,33,980,-21,22,0
1156,-124,-9,997,-24,0,-4
1157,-47,-57,992,-22,-19,-9
1158,78,-62,1005,-13,-24,-12
1159,131,-47,1003,-7,-13,-10
1160,78,-1,1001,-4,12,-5
1161,-21,27,996,-7,25,0
1162,-132,39,988,-18,24,2
1163,-131,-6,994,-26,4,-4
1164,-69,-44,986,-23,-17,-9
1165,63,-60,1005,-15,-27,-12
1166,127,-54,1010,-8,-14,-13
1167,92,-11,1005,-4,9,-5
1168,-1,29,992,-7,24,-3
1169,-121,33,992,-17,25,2
1170,-139,0,992,-24,6,-2
1171,-85,-38,984,-24,-13,-7
1172,49,-60,1006,-15,-26,-12
1173,108,-60,1007,-8,-17,-11
1174,106,-15,1008,-3,4,-7
1175,14,22,997,-8,22,-2
1176,-105,38,1001,-17,27,3
1177,-142,2,982,-25,10,-2
1178,-96,-26,985,-24,-11,-6
1179,30,-63,1002,-19,-26,-11
1180,103,-62,1006,-7,-20,-13
1181,121,-18,1006,-4,-1,-8
1182,29,22,1006,-8,22,-2
1183,-87,34,1009,-15,28,1
1184,-140,10,977,-24,14,-1
1185,-111,-21,984,-23,-8,-5
1186,10,-68,1003,-18,-25,-11
1187,95,-61,1003,-10,-21,-12
1188,130,-24,1001,-4,-4,-9
1189,42,17,1008,-6,18,-4
1190,-69,31,1007,-14,27,0
1191,-140,20,973,-22,17,-1
1192,-118,-18,999,-25,-3,-5
1193,-16,-65,994,-21,-22,-11
1194,91,-64,998,-12,-24,-13
1195,132,-33,1005,-4,-9,-9
1196,52,11,1008,-6,16,-3
1197,-43,31,1001,-13,27,-1
1198,-140,27,983,-20,20,0
1199,-129,-11,992,-23,-1,-3
1200,-39,-57,998,-21,-21,-11
1201,77,-64,1001,-13,-24,-12
1202,135,-43,1000,-7,-11,-11
1203,75,0,1003,-4,12,-5
1204,-26,32,998,-9,24,-1
1205,-136,36,985,-20,24,2
1206,-130,-8,994,-24,3,-3
1207,-66,-51,988,-22,-17,-8
1208,70,-61,1005,-13,-25,-12
1209,125,-53,1011,-6,-14,-12
1210,87,-7,1004,-3,8,-6
1211,-4,29,995,-10,23,-2
1212,-123,39,991,-17,24,2
1213,-135,-1,992,-23,6,-2
1214,-81,-38,983,-24,-15,-8
1215,52,-64,1002,-16,-27,-11
1216,115,-56,1010,-8,-16,-13
1217,103,-14,1012,-5,4,-8
1218,10,27,994,-6,23,-2
1219,-110,39,995,-15,26,2
1220,-138,4,985,-23,10,-2
1221,-94,-30,985,-23,-9,-6
1222,34,-65,1000,-18,-26,-12
1223,101,-64,1008,-8,-19,-12
1224,115,-18,999,-4,1,-8
1225,27,21,1007,-8,21,-3
1226,-90,36,1008,-15,27,1
1227,-141,16,978,-23,12,-1
1228,-101,-24,981,-25,-9,-5
1229,9,-65,1005,-18,-25,-11
1230,98,-60,1000,-10,-20,-13
1231,128,-27,1005,-5,-3,-9
1232,38,16,1004,-6,18,-2
1233,-70,32,1007,-12,26,0
1234,-141,20,979,-22,16,-1
1235,-118,-18,995,-25,-3,-4
1236,-7,-62,996,-20,-23,-12
1237,89,-65,996,-12,-24,-12
1238,135,-33,1004,-4,-9,-10
1239,51,9,1011,-6,16,-4
1240,-51,34,1000,-12,26,0
1241,-142,27,981,-20,21,1
1242,-119,-12,995,-26,-2,-4
1243,-38,-59,995,-21,-21,-9
1244,86,-62,1001,-13,-26,-13
1245,132,-46,1004,-6,-11,-11
1246,71,0,1001,-4,13,-4
1247,-32,30,1000,-9,26,-1
1248,-134,41,981,-20,22,1
1249,-129,-9,994,-26,2,-4
1250,-56,-47,991,-22,-17,-10
1251,69,-61,1007,-16,-25,-13
1252,132,-50,1007,-7,-14,-14
1253,83,-12,1004,-4,9,-7
1254,-8,30,993,-9,25,-2
1255,-124,38,994,-18,25,2
1256,-132,-2,992,-24,4,-2
1257,-80,-38,981,-23,-16,-7
1258,58,-61,1003,-14,-26,-13
1259,116,-57,1017,-9,-15,-13
1260,103,-16,1004,-5,7,-7
1261,6,25,997,-8,22,-4
1262,-108,37,990,-16,25,2
1263,-141,2,988,-25,8,-1
1264,-89,-31,983,-26,-12,-7
1265,39,-64,1006,-17,-27,-12
1266,105,-58,1001,-9,-18,-12
1267,114,-19,1007,-3,0,-7
1268,27,25,1006,-6,20,-3
1269,-97,31,1000,-17,27,2
1270,-143,8,977,-23,12,-2
1271,-100,-25,983,-25,-10,-6
1272,16,-63,999,-20,-25,-11
1273,98,-64,1004,-8,-21,-12
1274,125,-21,1004,-5,-2,-8
1275,34,19,1005,-7,19,-2
1276,-77,31,1006,-14,25,2
1277,-137,16,978,-22,13,-1
1278,-116,-21,992,-25,-5,-5
1279,0,-64,997,-19,-24,-12
1280,91,-64,1000,-11,-23,-14
1281,134,-28,1002,-3,-7,-10
1282,46,12,1009,-5,16,-4
1283,-55,33,1004,-12,26,1
1284,-141,27,980,-22,18,-1
1285,-119,-13,997,-25,-2,-4
1286,-31,-64,996,-22,-21,-10
1287,84,-63,999,-10,-24,-12
1288,133,-41,1005,-4,-9,-10
1289,63,3,1005,-4,16,-4
1290,-34,32,1001,-12,26,-1
1291,-141,35,981,-21,20,2
1292,-129,-10,992,-24,0,-3
1293,-52,-55,998,-20,-19,-10
1294,72,-62,1004,-14,-25,-12
1295,129,-48,1006,-7,-14,-13
1296,79,-5,1003,-4,10,-5
1297,-15,31,994,-10,27,-1
1298,-129,42,991,-19,26,2
1299,-132,-7,994,-24,5,-3
1300,-73,-49,980,-25,-16,-7
1301,57,-60,1006,-14,-26,-12
1302,121,-53,1011,-8,-16,-12
1303,97,-10,1012,-4,6,-5
1304,5,30,988,-8,23,-1
1305,-114,35,995,-17,26,2
1306,-138,0,986,-23,6,-3
1307,-92,-34,986,-24,-13,-7
1308,43,-61,1004,-16,-25,-12
1309,110,-62,1005,-9,-17,-12
1310,110,-12,1005,-3,3,-7
1311,19,24,1004,-8,22,-3
1312,-98,33,998,-17,27,2
1313,-141,6,981,-22,12,-2
1314,-98,-25,982,-24,-10,-6
1315,21,-63,1006,-18,-27,-12
1316,99,-62,998,-8,-21,-13
1317,122,-20,1007,-4,-2,-8
1318,33,20,1005,-8,21,-4
1319,-85,34,1005,-15,26,1
1320,-141,15,979,-22,14,-2
1321,-112,-20,988,-25,-8,-6
1322,0,-64,1000,-19,-24,-11
1323,96,-63,1001,-11,-21,-12
1324,129,-29,1002,-4,-7,-9
1325,42,14,1004,-6,18,-3
1326,-60,34,1004,-13,26,0
1327,-144,25,976,-21,18,1
1328,-118,-16,996,-26,-3,-3
1329,-20,-65,996,-21,-23,-10
1330,83,-65,994,-11,-24,-10
1331,137,-37,1004,-4,-10,-10
1332,57,4,1007,-5,14,-4
1333,-38,36,996,-11,27,-1
1334,-139,34,985,-20,22,1
1335,-128,-11,994,-23,0,-5
1336,-50,-56,994,-23,-19,-10
1337,80,-67,1009,-15,-25,-14
1338,130,-46,1001,-6,-12,-11
1339,80,-4,1001,-2,12,-5
1340,-22,30,1002,-9,26,0
1341,-128,38,986,-19,24,1
1342,-133,-9,995,-25,4,-3
1343,-71,-49,983,-23,-16,-9
1344,64,-60,1010,-15,-26,-13
1345,124,-56,1010,-7,-15,-11
1346,90,-11,1005,-4,9,-5
1347,1,29,995,-9,25,-2
1348,-119,36,990,-17,27,2
1349,-137,0,989,-24,7,-3
1350,-87,-36,985,-25,-13,-7
1351,49,-61,1005,-15,-26,-12
1352,114,-61,1009,0,-23,-17
1353,106,-12,1008,-1,-1,-9
1354,16,26,998,-8,23,-3
1355,-105,35,997,-16,27,2
1356,-141,4,983,-23,11,-1
1357,-97,-24,986,-23,-10,-6
1358,33,-64,1003,-19,-26,-12
1359,97,-59,1002,-10,-19,-13
1360,121,-19,1003,-3,0,-8
1361,26,20,1010,-6,21,-2
1362,-89,31,1002,-15,27,2
1363,-140,14,979,-21,14,-1
1364,-106,-22,983,-24,-8,-4
1365,10,-62,1000,-18,-25,-10
1366,93,-64,1003,-11,-20,-13
1367,127,-24,1006,-3,-5,-9
1368,43,13,1004,-5,19,-4
1369,-70,31,1007,-13,27,1
1370,-140,19,978,-24,18,0
1371,-116,-17,996,-25,-3,-5
1372,-13,-64,994,-20,-22,-12
1373,89,-60,995,-9,-23,-12
1374,133,-35,1005,-4,-9,-10
1375,53,8,1006,-7,16,-2
1376,-45,32,1005,-11,28,2
1377,-140,28,977,-19,21,1
1378,-127,-11,998,-23,-1,-4
1379,-35,-59,997,-23,-23,-9
1380,78,-59,1002,-12,-24,-12
1381,137,-42,998,-5,-11,-10
1382,69,0,1009,-4,12,-4
1383,-29,32,995,-11,25,0
1384,-134,33,989,-21,23,1
1385,-133,-12,992,-24,3,-2
1386,-58,-55,989,-23,-18,-9
1387,72,-61,1008,-14,-26,-12
1388,126,-47,1006,-6,-14,-11
1389,90,-6,1004,-4,8,-6
1390,-10,27,993,-8,25,-2
1391,-125,37,990,-19,24,2
1392,-134,-7,995,-25,5,-4
1393,-86,-42,978,-23,-16,-8
1394,61,-60,1005,-14,-26,-13
1395,116,-56,1015,-9,-15,-13
1396,101,-9,1005,-3,5,-6
1397,9,28,1000,-9,22,-3
1398,-115,33,987,-16,25,1
1399,-139,2,989,-24,9,-3
1400,-91,-36,988,-24,-10,-7
1401,40,-62,1002,-16,-26,-12
1402,109,-57,1004,-8,-18,-12
1403,112,-17,1004,-4,1,-7
1404,21,25,1002,-7,21,-2
1405,-95,30,1008,-15,27,2
1406,-145,9,973,-24,14,-1
1407,-101,-24,988,-24,-9,-6
1408,19,-67,1004,-19,-26,-12
1409,96,-65,1001,-9,-20,-12
1410,128,-20,1004,-5,-2,-8
1411,33,16,1008,-8,21,-3
1412,-77,34,1003,-14,27,2
1413,-143,17,976,-23,15,0
1414,-112,-18,993,-23,-5,-6
1415,-4,-66,996,-19,-24,-11
1416,90,-64,999,-10,-23,-12
1417,137,-33,1004,-5,-8,-10
1418,42,13,1004,-3,18,-3
1419,-57,30,1004,-12,28,0
1420,-141,29,983,-20,19,0
1421,-116,-12,993,-24,-3,-3
1422,-27,-61,997,-22,-22,-9
1423,85,-63,996,-12,-25,-11
1424,133,-43,1007,-5,-10,-9
1425,60,2,1001,-4,15,-4
1426,-37,32,1007,-10,26,-1
1427,-137,32,975,-19,22,1
1428,-126,-12,995,-23,1,-4
1429,-47,-54,994,-22,-18,-9
1430,74,-55,1010,-15,-24,-12
1431,131,-45,999,-7,-12,-11
1432,77,-8,1006,-5,10,-6
1433,-17,25,993,-9,24,-1
1434,-128,37,990,-19,25,1
1435,-134,-7,993,-24,5,-3
1436,-72,-44,985,-22,-18,-8
1437,64,-57,1004,-15,-26,-12
1438,121,-55,1012,-8,-15,-13
1439,95,-8,1006,-3,7,-7
1440,0,26,995,-9,25,-2
1441,-120,37,987,-18,25,2
1442,-137,-4,992,-26,7,-3
1443,-89,-36,986,-23,-14,-7
1444,48,-61,1000,-17,-26,-11
1445,114,-57,1014,-9,-16,-14
1446,106,-18,1005,-4,3,-6
1447,16,26,1001,-7,22,-3
1448,-101,36,1003,-17,27,1
1449,-141,9,978,-23,11,-3
1450,-96,-27,987,-26,-9,-6
1451,26,-65,1001,-19,-26,-11
1452,100,-64,1002,-9,-18,-13
1453,123,-21,1005,-4,-2,-9
1454,28,21,1007,-6,21,-4
1455,-83,34,1004,-14,27,1
1456,-144,13,976,-24,14,-1
1457,-108,-18,985,-25,-7,-5
1458,7,-66,1002,-20,-25,-12
1459,95,-64,999,-11,-21,-13
1460,131,-27,1003,-4,-5,-10
1461,42,12,1007,-7,18,-5
1462,-67,33,1004,-11,27,0
1463,-140,23,980,-21,18,0
1464,-121,-13,997,-25,-2,-5
1465,-17,-61,994,-21,-22,-11
1466,87,-62,995,-11,-24,-13
1467,134,-37,1003,-4,-10,-10
1468,56,4,1008,-6,16,-4
1469,-48,29,1003,-12,28,-1
1470,-139,32,979,-19,20,0
1471,-125,-7,995,-23,-2,-3
1472,-41,-54,994,-23,-21,-9
1473,79,-59,1006,-15,-24,-13
1474,133,-47,999,-7,-10,-12
1475,71,-2,1002,-5,13,-3
1476,-24,27,999,-11,25,-2
1477,-135,36,987,-19,22,1
1478,-131,-9,989,-25,3,-4
1479,-64,-51,994,-22,-18,-9
1480,69,-58,1003,-14,-26,-11
1481,127,-50,1011,-6,-14,-13
1482,88,-9,1004,-4,11,-4
1483,-7,29,993,-9,25,0
1484,-123,33,989,-18,24,1
1485,-136,-6,996,-23,5,-3
1486,-82,-37,980,-24,-15,-8
1487,58,-61,1004,-14,-26,-13
1488,114,-53,1014,-9,-16,-12
1489,102,-13,1005,-5,5,-5
1490,10,27,999,-8,22,-3
1491,-112,33,990,-16,26,2
1492,-136,3,986,-22,10,-3
1493,-93,-34,985,-26,-11,-7
1494,39,-58,1003,-18,-27,-13
1495,106,-61,1006,-9,-19,-13
1496,116,-15,1002,-3,1,-7
1497,23,20,1006,-8,22,-2
1498,-94,31,1005,-16,28,0
1499,-143,9,977,-22,12,-2
1500,-102,-26,983,-24,-9,-6
1501,18,-63,1008,-18,-26,-11
1502,99,-60,1001,-11,-19,-13
1503,127,-25,1008,-4,-3,-8
1504,35,20,1002,-6,18,-4
1505,-79,32,1007,-11,26,0
1506,-140,16,977,-22,12,-2
1507,-113,-20,994,-24,-4,-4
1508,-6,-62,996,-19,-23,-11
1509,89,-60,998,-11,-22,-12
1510,132,-32,1001,-4,-7,-9
1511,46,11,1008,-5,17,-3
1512,-55,29,1003,-14,26,0
1513,-142,23,979,-22,20,0
1514,-119,-14,995,-25,-2,-4
1515,-25,-59,998,-18,-23,-11
1516,83,-59,997,-12,-24,-11
1517,135,-39,1004,-7,-9,-11
1518,61,3,1009,-5,15,-5
1519,-36,29,999,-11,27,-1
1520,-133,29,982,-22,23,0
1521,-132,-13,996,-24,2,-3
1522,-50,-51,993,-21,-19,-10
1523,72,-61,1010,-14,-25,-12
1524,128,-44,1002,-6,-12,-10
1525,82,-5,1003,-5,9,-4
1526,-16,29,997,-11,25,-2
1527,-128,36,987,-18,25,2
1528,-128,-6,995,-24,5,-5
1529,-76,-48,984,-22,-17,-9
1530,62,-58,1004,-13,-26,-12
1531,119,-55,1014,-6,-15,-13
1532,93,-10,1011,-5,7,-6
1533,6,30,991,-10,24,-3
1534,-121,38,992,-17,26,2
1535,-137,0,991,-25,7,-2
1536,-85,-37,984,-24,-12,-7
1537,44,-62,1003,-16,-26,-13
1538,110,-63,1006,-8,-17,-13
1539,110,-17,1007,-2,4,-8
1540,19,24,1002,-8,22,-2
1541,-100,34,999,-16,27,2
1542,-142,6,983,-25,12,-1
1543,-99,-23,982,-22,-9,-6
1544,27,-64,1004,-18,-26,-12
1545,101,-62,1002,-10,-19,-12
1546,120,-20,1005,-3,0,-8
1547,31,17,1007,-6,21,-3
1548,-87,35,1006,-15,26,3
1549,-141,15,978,-23,13,0
1550,-107,-21,987,-23,-7,-5
1551,3,-62,999,-18,-25,-11
1552,95,-63,1004,-12,-22,-13
1553,130,-32,1001,-3,-6,-9
1554,42,15,1004,-5,18,-2
1555,-64,30,1005,-13,25,1
1556,-140,24,978,-22,17,-1
1557,-120,-14,996,-25,-4,-4
1558,-19,-61,994,-21,-24,-11
1559,87,-61,995,-11,-24,-12
1560,132,-35,1005,-5,-9,-10
1561,55,8,1006,-6,16,-3
1562,-42,31,1004,-11,27,0
1563,-142,27,978,-19,21,1
1564,-126,-7,994,-24,-1,-4
1565,-42,-62,997,-22,-21,-11
1566,80,-60,1003,-13,-25,-13
1567,132,-46,1003,-6,-13,-12
1568,74,5,1005,-4,12,-6
1569,-29,31,997,-11,24,-1
1570,-133,35,986,-20,22,1
1571,-131,-11,996,-25,4,-4
1572,-65,-52,985,-21,-16,-9
1573,70,-60,1007,-15,-26,-12
1574,126,-54,1008,-4,-14,-12
1575,86,-4,1002,-3,9,-6
1576,-3,31,997,-10,25,-2
1577,-123,35,989,-18,26,3
1578,-136,-2,993,-23,5,-2
1579,-83,-40,981,-23,-14,-7
1580,55,-65,1005,-15,-27,-12
1581,120,-59,1009,-7,-16,-12
1582,100,-11,1009,-3,5,-7
1583,12,26,995,-7,23,-3
1584,-111,36,993,-15,27,2
1585,-142,2,983,-23,10,-2
1586,-91,-33,990,-24,-11,-8
1587,40,-63,999,-19,-26,-12
1588,105,-62,1005,-8,-18,-11
1589,116,-15,1006,-3,0,-7
1590,25,25,1005,-8,21,-3
1591,-93,35,1004,-15,27,2
1592,-144,10,978,-24,12,-1
1593,-103,-23,980,-24,-8,-5
1594,18,-66,1004,-17,-25,-12
1595,99,-63,1001,-11,-21,-12
1596,126,-26,1006,-4,-2,-9
1597,34,19,1004,-7,21,-4
1598,-81,35,1006,-13,28,2
1599,-142,17,980,-22,15,-1
1600,-113,-17,991,-25,-5,-5
1601,-5,-65,996,-20,-22,-10
1602,96,-64,999,-11,-23,-13
1603,132,-34,1004,-5,-7,-10
1604,46,14,1002,-4,17,-4
1605,-59,30,1009,-12,27,0
1606,-143,29,974,-20,19,0
1607,-124,-14,998,-25,-3,-3
1608,-28,-58,998,-21,-23,-11
1609,84,-64,996,-12,-24,-12
1610,139,-40,1000,-4,-11,-10
1611,61,4,1011,-5,14,-4
1612,-32,30,996,-12,26,0
1613,-138,35,981,-20,21,2
1614,-130,-8,994,-24,1,-3
1615,-51,-55,997,-22,-20,-9
1616,78,-63,1004,-14,-24,-12
1617,131,-46,1003,-6,-13,-12
1618,82,-5,1001,-2,11,-6
1619,-19,28,997,-9,26,-1
1620,-130,37,989,-18,26,1
1621,-134,-8,994,-25,5,-4
1622,-75,-48,984,-23,-17,-8
1623,65,-60,1007,-14,-29,-13
1624,126,-54,1012,-7,-15,-13
1625,94,-11,1007,-5,8,-5
1626,0,29,994,-9,25,-2
1627,-123,37,988,-17,26,2
1628,-138,1,990,-24,6,-3
1629,-85,-37,983,-23,-13,-8
1630,48,-64,1007,-15,-26,-12
1631,114,-59,1008,-8,-17,-12
1632,104,-15,1008,-2,3,-7
1633,16,27,1000,-6,21,-3
1634,-105,33,1000,-15,27,2
1635,-143,8,981,-22,11,0
1636,-95,-27,985,-24,-9,-6
1637,32,-67,1004,-17,-25,-12
1638,98,-63,1001,-10,-19,-11
1639,121,-20,1004,-2,1,-9
1640,28,20,1010,-5,21,-3
1641,-87,36,1003,-14,27,1
1642,-141,17,977,-21,15,0
1643,-109,-22,983,-24,-7,-5
1644,8,-66,999,-18,-25,-11
1645,94,-64,1004,-11,-21,-13
1646,131,-23,1004,-3,-4,-9
1647,40,18,1007,-5,18,-3
1648,-68,34,1004,-12,27,1
1649,-146,21,981,-23,17,1
1650,-117,-17,994,-23,-5,-4
1651,-14,-65,996,-20,-24,-11
1652,91,-66,997,-11,-25,-13
1653,135,-37,1006,-4,-9,-10
1654,52,9,1008,-5,16,-4
1655,-50,31,1005,-11,25,0
1656,-138,30,979,-21,19,1
1657,-127,-11,994,-23,-1,-2
1658,-35,-59,996,-20,-21,-10
1659,83,-64,1003,-12,-25,-11
1660,136,-43,999,-6,-11,-10
1661,71,2,1005,-4,14,-5
1662,-30,27,1000,-10,24,0
1663,-134,38,982,-19,24,3
1664,-129,-10,998,-23,3,-3
1665,-61,-48,990,-22,-17,-10
1666,70,-60,1008,-12,-26,-11
1667,126,-50,1004,-6,-15,-11
1668,89,-5,1002,-2,9,-6
1669,-11,29,995,-9,24,-2
1670,-125,38,991,-18,24,2
1671,-133,-3,993,-22,5,-4
1672,-81,-42,982,-23,-15,-8
1673,58,-60,1003,-13,-27,-12
1674,120,-55,1014,-7,-17,-13
1675,97,-12,1008,-4,5,-6
1676,10,27,997,-9,23,-2
1677,-113,35,986,-16,25,2
1678,-140,1,990,-23,8,-2
1679,-90,-34,984,-25,-11,-6
1680,41,-62,1001,-16,-25,-11
1681,107,-62,1008,-7,-18,-13
1682,113,-14,1010,-2,1,-9
1683,23,25,1000,-9,22,-2
1684,-97,34,1002,-15,28,0
1685,-140,7,979,-23,13,-2
1686,-101,-25,983,-24,-9,-6
1687,22,-64,999,-17,-25,-12
1688,100,-62,1009,-8,-19,-12
1689,126,-19,998,-3,-1,-9
1690,33,21,1009,-5,18,-5
1691,-83,35,1005,-12,28,2
1692,-141,16,975,-22,14,-1
1693,-114,-20,990,-23,-6,-6
1694,0,-65,1000,-21,-24,-11
1695,94,-66,996,-11,-20,-13
1696,134,-28,1006,-4,-5,-9
1697,45,18,1004,-4,18,-3
1698,-62,35,1005,-12,28,1
1699,-143,27,982,-22,20,2
1700,-116,-17,996,-26,-2,-3
1701,-20,-64,996,-21,-23,-10
1702,84,-65,997,-12,-25,-12
1703,133,-36,1004,-3,-9,-10
1704,58,4,1011,-4,15,-3
1705,-43,34,998,-12,28,1
1706,-138,30,982,-19,22,1
1707,-122,-7,996,-22,-1,-4
1708,-47,-58,993,-21,-19,-9
1709,79,-65,1007,-12,-26,-12
1710,130,-52,1002,-7,-12,-11
1711,73,-1,999,-3,13,-4
1712,-22,28,1002,-10,24,-1
1713,-132,41,985,-18,22,2
1714,-132,-3,991,-25,3,-2
1715,-67,-48,993,-23,-17,-10
1716,64,-58,1002,-15,-27,-11
1717,124,-56,1007,-8,-15,-12
1718,87,-14,1009,-3,8,-7
1719,-3,29,993,-10,24,0
1720,-121,38,988,-17,25,2
1721,-136,4,994,-25,6,-3
1722,-82,-37,983,-25,-14,-8
1723,51,-62,1000,-17,-26,-12
1724,115,-58,1019,-9,-16,-12
1725,105,-17,1006,-4,4,-6
1726,10,24,995,-7,22,-2
1727,-107,37,993,-16,25,2
1728,-144,2,985,-22,9,-2
1729,-93,-28,986,-24,-12,-7
1730,35,-62,1007,-19,-27,-12
1731,105,-61,1002,-8,-19,-13
1732,115,-20,1007,-3,0,-7
1733,25,23,1003,-6,21,-3
1734,-96,32,1006,-14,28,1
1735,-139,14,978,-21,13,-1
1736,-105,-23,984,-23,-9,-6
1737,18,-61,1000,-18,-27,-12
1738,96,-62,1005,-9,-20,-13
1739,129,-25,1004,-3,-3,-9
1740,33,17,1007,-5,20,-2
1741,-75,36,1003,-12,28,2
1742,-140,17,981,-22,16,0
1743,-114,-15,988,-24,-5,-4
1744,-6,-64,998,-20,-25,-10
1745,93,-64,997,-10,-23,-13
1746,131,-31,1004,-5,-7,-9
1747,48,12,1008,-5,16,-3
1748,-56,32,1003,-13,26,0
1749,-139,29,979,-21,19,-1
1750,-118,-13,997,-24,-2,-3
1751,-29,-59,994,-19,-21,-10
1752,84,-65,996,-11,-23,-12
1753,135,-40,1004,-6,-9,-12
1754,62,2,1007,-5,15,-5
1755,-34,31,1000,-12,26,-1
1756,-139,34,983,-21,21,0
1757,-125,-7,995,-23,0,-4
1758,-51,-59,995,-23,-19,-10
1759,74,-62,1005,-14,-24,-12
1760,130,-49,1002,-6,-14,-11
1761,78,-4,1002,-4,8,-5
1762,-17,30,998,-8,24,-1
1763,-129,40,988,-18,24,2
1764,-136,-5,993,-26,5,-4
1765,-71,-48,988,-23,-16,-9
1766,61,-64,1001,-15,-26,-12
1767,123,-54,1010,-4,-15,-12
1768,91,-12,1008,-3,8,-7
1769,0,32,992,-8,25,-2
1770,-118,38,987,-17,26,3
1771,-136,1,996,-23,6,-3
1772,-86,-35,981,-25,-13,-7
1773,49,-65,1002,-17,-26,-12
1774,113,-59,1009,-9,-18,-13
1775,105,-15,1006,-2,3,-6
1776,16,30,998,-6,21,-3
1777,-105,37,996,-15,26,2
1778,-142,4,981,-23,11,-1
1779,-94,-29,987,-24,-11,-7
1780,30,-64,1001,-18,-27,-12
1781,102,-62,1004,-10,-20,-12
1782,119,-21,1005,-1,-1,-9
1783,29,24,1005,-6,21,-4
1784,-87,37,1008,-15,27,2
1785,-143,15,977,-24,13,0
1786,-108,-20,984,-24,-9,-5
1787,12,-64,1003,-18,-26,-11
1788,94,-66,1004,-9,-21,-12
1789,130,-29,1003,-5,-4,-9
1790,38,20,1008,-5,18,-3
1791,-71,38,1005,-12,25,0
1792,-141,27,976,-23,17,-1
1793,-115,-14,996,-25,-4,-4
1794,-10,-64,996,-22,-23,-11
1795,89,-65,996,-12,-23,-13
1796,134,-36,1004,-4,-9,-11
1797,50,9,1010,-5,16,-4
1798,-51,36,1002,-13,28,0
1799,-139,31,979,-21,20,0
1800,-126,-8,997,-26,-3,-4
1801,-33,-60,997,-22,-23,-11
1802,80,-63,998,-11,-25,-13
1803,136,-43,1002,-6,-11,-11
1804,68,0,1004,-4,13,-4
1805,-32,36,1003,-9,26,0
1806,-135,34,981,-21,22,2
1807,-133,-5,997,-22,2,-3
1808,-56,-52,990,-22,-17,-9
1809,72,-64,1010,-14,-25,-14
1810,130,-49,1003,-5,-13,-13
1811,83,-4,1003,-3,9,-6
1812,-12,29,1000,-8,24,-2
1813,-128,37,987,-17,26,2
1814,-137,-3,995,-24,6,-4
1815,-76,-44,983,-22,-16,-8
1816,61,-60,1003,-14,-26,-12
1817,122,-55,1013,-6,-15,-12
1818,93,-11,1007,-3,7,-7
1819,4,24,993,-8,23,-3
1820,-118,37,990,-15,26,2
1821,-137,1,992,-23,7,-2
1822,-87,-33,982,-25,-13,-8
1823,44,-65,1003,-16,-26,-13
1824,113,-58,1010,-9,-18,-12
1825,113,-18,1005,-2,2,-7
1826,18,28,1000,-8,22,-2
1827,-101,35,1003,-16,27,2
1828,-143,6,980,-23,12,-1
1829,-94,-27,983,-25,-11,-5
1830,24,-65,1005,-18,-26,-11
1831,100,-61,997,-9,-21,-13
1832,119,-22,1008,-4,-1,-8
1833,32,23,1006,-7,21,-2
1834,-86,37,1007,-14,27,2
1835,-142,15,977,-23,13,0
1836,-108,-20,987,-24,-7,-4
1837,5,-67,1000,-18,-24,-11
1838,94,-65,1002,-10,-22,-12
1839,134,-30,1005,-4,-4,-10
1840,37,15,1006,-4,18,-3
1841,-66,36,1003,-12,26,2
1842,-143,23,981,-23,17,0
1843,-115,-13,992,-26,-3,-4
1844,-14,-61,999,-20,-23,-12
1845,91,-65,992,-12,-24,-14
1846,132,-38,1005,-6,-9,-10
1847,56,10,1005,-4,15,-3
1848,-49,33,1006,-10,27,-1
1849,-139,31,979,-20,20,1
1850,-128,-11,996,-23,-2,-3
1851,-33,-57,995,-21,-22,-10
1852,79,-63,1003,-13,-26,-12
1853,137,-41,1000,-6,-11,-11
1854,69,0,1005,-5,13,-4
1855,-31,34,1002,-9,25,-1
1856,-135,33,978,-19,22,2
1857,-130,-7,996,-25,2,-3
1858,-59,-53,993,-22,-18,-10
1859,69,-63,1007,-14,-26,-13
1860,130,-51,1002,-6,-14,-12
1861,83,-5,1007,-1,9,-6
1862,-9,33,992,-10,24,-1
1863,-129,41,991,-19,26,2
1864,-132,-5,994,-26,6,-2
1865,-80,-45,982,-23,-15,-8
1866,61,-60,1001,-14,-27,-12
1867,119,-58,1018,-9,-16,-12
1868,101,-9,1006,-4,6,-6
1869,6,27,997,-8,24,-2
1870,-112,41,989,-17,25,3
1871,-140,-2,992,-24,8,-3
1872,-89,-33,982,-23,-12,-8
1873,40,-63,1003,-17,-25,-12
1874,109,-59,1007,-8,-17,-12
1875,111,-21,1006,-3,2,-8
1876,21,26,1001,-7,22,-1
1877,-103,35,999,-17,28,2
1878,-141,12,982,-23,12,-2
1879,-99,-25,981,-24,-8,-7
1880,22,-63,1004,-19,-26,-12
1881,99,-64,1005,-9,-21,-12
1882,127,-23,1003,-3,-1,-9
1883,28,20,1008,-6,20,-4
1884,-80,37,1007,-14,27,2
1885,-141,12,978,-23,14,-1
1886,-111,-18,984,-24,-6,-4
1887,7,-67,1001,-18,-25,-11
1888,94,-64,1000,-10,-20,-12
1889,125,-26,1002,-4,-5,-9
1890,44,14,1005,-6,16,-4
1891,-66,32,1004,-13,27,0
1892,-139,27,978,-22,17,0
1893,-119,-13,1002,-26,-3,-5
1894,-19,-64,992,-22,-22,-11
1895,89,-66,996,-11,-23,-11
1896,130,-36,1004,-5,-9,-9
1897,58,6,1008,-4,15,-4
1898,-45,33,1005,-12,27,0
1899,-139,35,977,-20,20,0
1900,-127,-6,1000,-25,0,-4
1901,-40,-60,992,-23,-22,-10
1902,76,-63,1003,-13,-26,-11
1903,139,-44,1002,-6,-11,-12
1904,68,0,1002,-4,12,-4
1905,-26,29,998,-9,25,-1
1906,-132,37,986,-19,23,3
1907,-131,-8,993,-24,4,-3
1908,-61,-47,991,-22,-18,-9
1909,68,-63,1006,-15,-26,-13
1910,125,-50,1006,-7,-15,-12
1911,88,-8,1001,-5,7,-5
1912,-7,29,997,-9,25,-1
1913,-123,37,988,-17,25,2
1914,-134,-7,994,-25,5,-3
1915,-80,-43,982,-23,-16,-7
1916,54,-58,1003,-16,-26,-12
1917,119,-57,1012,-9,-16,-13
1918,100,-14,1011,-4,5,-7
1919,12,30,994,-9,23,-3
1920,-111,36,994,-17,27,2
1921,-141,2,987,-24,8,-1
1922,-90,-36,985,-25,-12,-6
1923,39,-65,1006,-16,-26,-11
1924,105,-62,1003,-9,-19,-13
1925,116,-17,1008,-2,1,-9
1926,24,26,1003,-8,21,-3
1927,-96,42,1003,-15,28,2
1928,-143,11,977,-23,13,-2
1929,-103,-25,986,-25,-8,-6
1930,19,-69,1001,-20,-26,-12
1931,100,-67,1005,-10,-20,-12
1932,126,-26,1001,-5,-3,-8
1933,33,23,1007,-5,20,-4
1934,-79,40,1007,-13,26,0
1935,-142,21,978,-24,16,0
1936,-110,-19,990,-26,-5,-5
1937,0,-71,1000,-19,-23,-11
1938,93,-66,996,-11,-21,-13
1939,131,-34,1007,-4,-5,-10
1940,46,15,1003,-4,16,-4
1941,-62,33,1007,-11,28,0
1942,-135,28,980,-22,18,0
1943,-122,-12,1000,-26,-3,-3
1944,-22,-58,990,-20,-22,-11
1945,86,-67,1000,-12,-23,-13
1946,134,-38,999,-4,-9,-9
1947,58,4,1009,-4,17,-4
1948,-39,33,1003,-12,26,0
1949,-137,33,974,-21,20,2
1950,-126,-5,999,-24,-1,-4
1951,-45,-57,993,-24,-21,-10
1952,74,-61,1004,-14,-25,-12
1953,133,-46,1004,-6,-11,-11
1954,71,-1,1003,-3,11,-5
1955,-20,30,999,-9,24,-1
1956,-132,37,986,-20,25,1
1957,-130,-4,995,-25,4,-4
1958,-65,-50,986,-23,-18,-9
1959,62,-57,1007,-14,-26,-12
1960,126,-55,1008,-6,-14,-12
1961,88,-10,1007,-1,9,-5
1962,-2,27,992,-10,23,-2
1963,-125,37,990,-17,25,1
1964,-132,-2,993,-24,6,-2
1965,-85,-37,978,-24,-14,-8
1966,55,-59,1005,-16,-26,-12
1967,114,-58,1011,-9,-16,-11
1968,104,-13,1004,-3,4,-7
1969,12,27,1000,-7,22,-3
1970,-110,34,993,-15,27,2
1971,-140,5,982,-22,9,-2
1972,-94,-30,988,-25,-11,-7
1973,36,-61,1000,-18,-26,-12
1974,103,-63,1006,-9,-19,-12
1975,117,-18,1005,-2,0,-8
1976,24,22,1008,-8,21,-2
1977,-91,35,1003,-15,27,1
1978,-139,10,979,-24,13,-3
1979,-105,-17,982,-24,-8,-5
1980,16,-66,1002,-19,-25,-12
1981,96,-65,1007,-10,-21,-12
1982,127,-25,999,-3,-2,-8
1983,35,18,1009,-5,21,-4
1984,-72,33,1006,-12,28,0
1985,-142,22,976,-21,16,-1
1986,-112,-15,993,-25,-5,-5
1987,-8,-66,1001,-20,-23,-11
1988,95,-62,993,-10,-23,-13
1989,133,-34,1004,-4,-7,-10
1990,48,11,1008,-5,17,-3
1991,-55,34,1003,-13,27,0
1992,-141,26,980,-20,20,0
1993,-124,-9,999,-24,-2,-3
1994,-25,-63,993,-23,-22,-10
1995,84,-66,998,-11,-24,-12
1996,134,-40,1001,-4,-10,-10
1997,64,4,1008,-5,14,-5
1998,-36,32,1001,-11,26,0
1999,-140,38,979,-21,22,1
2000,-125,-8,999,-23,0,-5
2001,-53,-55,993,-23,-19,-9
2002,77,-65,1004,-14,-24,-12
2003,129,-47,1002,-5,-13,-13
2004,81,-5,1002,-3,9,-5
2005,-16,32,997,-9,25,-1
2006,-128,40,991,-20,25,1
2007,-134,0,993,-24,5,-3
2008,-71,-45,985,-23,-17,-7
2009,62,-63,1003,-15,-26,-11
2010,122,-57,1014,-7,-15,-12
2011,92,-17,1006,-4,8,-6
2012,3,28,993,-8,23,-2
2013,-116,36,990,-17,25,2
2014,-139,3,990,-23,6,-3
2015,-84,-35,983,-25,-13,-8
2016,46,-61,1004,-15,-26,-12
2017,106,-62,1005,-7,-17,-11
2018,110,-17,1009,-3,3,-9
2019,14,26,999,-8,21,-3
2020,-105,37,996,-16,26,2
2021,-138,2,984,-25,11,-2
2022,-98,-27,982,-24,-10,-6
2023,31,-61,1005,-17,-26,-12
2024,98,-64,1002,-8,-19,-12
2025,122,-20,1003,-2,-1,-8
2026,29,19,1007,-8,22,-5
2027,-89,34,1007,-13,27,2
2028,-139,15,974,-23,12,-1
2029,-107,-20,984,-22,-7,-4
2030,7,-64,1001,-18,-26,-11
2031,96,-62,1002,-11,-20,-13
2032,128,-28,1003,-7,-12,-12
2033,41,15,1009,-5,17,-3
2034,-70,33,1002,-12,27,1
2035,-142,21,980,-20,18,-1
2036,-117,-16,997,-24,-3,-5
2037,-13,-64,993,-21,-23,-11
2038,89,-64,996,-11,-23,-12
2039,132,-34,1005,-5,-9,-11
2040,56,6,1007,-7,16,-4
2041,-49,33,1004,-13,27,0
2042,-142,32,979,-19,20,0
2043,-127,-13,996,-25,-2,-4
2044,-32,-60,992,-21,-20,-10
2045,81,-65,1003,-12,-23,-12
2046,134,-41,1003,-5,-10,-11
2047,67,3,1007,-3,13,-5
2048,-29,32,996,-10,26,-1
2049,-136,36,986,-20,24,2
2050,-127,-9,994,-24,3,-3
2051,-60,-54,989,-23,-17,-8
2052,74,-58,1008,-12,-26,-13
2053,126,-52,1008,-7,-15,-11
2054,85,-1,1000,-3,10,-5
2055,-13,26,998,-8,25,0
2056,-125,39,992,-19,25,2
2057,-132,-4,992,-25,5,-2
2058,-79,-41,981,-24,-15,-8
2059,57,-59,1004,-15,-27,-12
2060,119,-55,1013,-7,-15,-13
2061,98,-14,1008,-5,8,-5
2062,9,27,994,-7,23,0
2063,-112,40,992,-16,25,4
2064,-139,0,988,-24,9,-2
2065,-90,-34,988,-24,-11,-8
2066,43,-59,1002,-17,-25,-12
2067,103,-58,1005,-9,-18,-11
2068,115,-13,1007,-1,3,-7
2069,21,24,1004,-8,20,-2
2070,-99,31,1002,-15,28,2
2071,-138,8,982,-23,12,-2
2072,-101,-24,982,-25,-9,-6
2073,20,-63,1003,-18,-26,-12
2074,98,-64,1005,-9,-21,-12
2075,123,-17,999,-3,-2,-8
2076,34,18,1008,-6,20,-3
2077,-81,35,1008,-13,27,2
2078,-138,16,973,-22,14,-1
2079,-112,-19,989,-25,-8,-6
2080,0,-66,1000,-18,-24,-9
2081,96,-63,997,-10,-20,-13
2082,131,-30,1003,-3,-5,-10
2083,44,17,1007,-5,18,-3
2084,-62,33,1003,-13,26,1
2085,-141,29,979,-21,19,1
2086,-119,-14,1001,-25,-2,-4
2087,-22,-63,991,-21,-22,-10
2088,85,-68,997,-11,-23,-11
2089,132,-38,1004,-4,-10,-9
2090,61,6,1005,-5,16,-4
2091,-39,33,1004,-10,27,-1
2092,-137,38,979,-20,21,1
2093,-128,-7,997,-25,0,-2
2094,-48,-56,993,-22,-18,-9
2095,77,-61,1007,-13,-24,-12
2096,132,-47,1004,-6,-12,-11
2097,75,-4,999,-4,12,-4
2098,-19,27,1001,-10,25,-1
2099,-130,38,988,-19,23,2
2100,-134,-5,992,-24,5,-3
2101,-67,-44,990,-22,-18,-10
2102,62,-59,1004,-14,-26,-11
2103,128,-49,1010,-6,-14,-13
2104,89,-10,1009,-4,8,-5
2105,0,27,991,-8,25,-1
2106,-123,36,991,-17,25,3
2107,-136,0,990,-24,6,-3
2108,-84,-39,985,-22,-14,-7
2109,51,-60,1000,-15,-26,-13
2110,111,-56,1015,-8,-16,-12
2111,110,-11,1006,-4,3,-7
2112,11,27,1000,-8,22,-1
2113,-103,38,993,-16,27,2
2114,-140,1,987,-25,12,-2
2115,-94,-28,980,-25,-9,-7
2116,32,-66,1004,-18,-26,-12
2117,104,-62,1005,-10,-20,-12
2118,115,-20,1002,-2,-1,-7
2119,27,26,1005,-6,22,-3
2120,-89,36,1010,-16,27,2
2121,-137,14,973,-23,14,0
2122,-107,-21,985,-25,-7,-6
2123,10,-68,1001,-19,-25,-12
2124,94,-67,1002,-10,-20,-12
2125,128,-28,1002,-5,-3,-9
2126,40,16,1010,-6,19,-3
2127,-68,34,1002,-12,26,0
2128,-138,24,978,-24,16,0
2129,-115,-15,1000,-23,-3,-4
2130,-13,-66,993,-21,-22,-10
2131,88,-68,995,-11,-24,-11
2132,128,-34,1005,-3,-8,-10
2133,55,8,1008,-6,16,-4
2134,-48,36,1003,-11,27,0
2135,-139,32,977,-21,21,2
2136,-122,-8,999,-25,-1,-4
2137,-37,-60,992,-22,-20,-10
2138,79,-67,1002,-13,-24,-12
2139,135,-47,1000,-6,-11,-12
2140,66,1,1005,-2,15,-4
2141,-25,34,1001,-8,25,-1
2142,-137,38,986,-20,23,1
2143,-127,-4,993,-25,2,-3
2144,-61,-52,991,-23,-17,-8
2145,66,-61,1003,-14,-25,-12
2146,130,-53,1008,-7,-14,-12
2147,86,-10,1002,-1,9,-6
2148,-6,31,997,-6,23,-1
2149,-126,44,989,-18,25,2
2150,-136,-1,994,-25,6,-4
2151,-77,-40,980,-24,-15,-9
2152,53,-61,1005,-14,-26,-13
2153,116,-58,1011,-8,-15,-12
2154,102,-15,1012,-5,6,-6
2155,4,32,991,-6,22,-1
2156,-112,38,993,-15,27,2
2157,-139,1,988,-24,7,-1
2158,-94,-34,983,-24,-11,-6
2159,44,-60,1006,-18,-26,-13
2160,103,-65,1008,-9,-18,-12
2161,113,-13,999,-2,1,-6
2162,21,20,1010,-8,23,-2
2163,-99,32,1001,-15,28,1
2164,-139,11,979,-24,12,0
2165,-101,-22,983,-23,-9,-5
2166,14,-64,1007,-16,-25,-11
2167,100,-62,998,-10,-21,-12
2168,124,-26,1008,-6,-2,-10
2169,35,19,1006,-6,19,-3
2170,-75,30,1005,-13,26,1
2171,-140,19,978,-21,14,0
2172,-111,-17,992,-25,-5,-3
2173,-3,-63,998,-19,-23,-11
2174,90,-65,994,-13,-22,-12
2175,130,-29,1005,-6,-7,-10
2176,47,12,1008,-5,18,-4
2177,-55,31,1005,-11,27,0
2178,-137,25,975,-21,20,0
2179,-121,-14,1000,-23,-2,-3
2180,-27,-57,991,-22,-23,-10
2181,82,-65,1000,-13,-25,-13
2182,135,-37,1001,-6,-10,-11
2183,62,5,1007,-6,16,-4
2184,-32,33,1001,-12,26,0
2185,-139,32,981,-22,20,1
2186,-126,-9,990,-26,0,-2
2187,-52,-58,996,-23,-19,-9
2188,77,-61,1006,-13,-26,-12
2189,129,-48,1007,-5,-13,-12
2190,77,-1,1000,-3,10,-5
2191,-16,30,998,-8,25,-2
2192,-130,38,990,-19,25,2
2193,-133,-7,990,-23,4,-3
2194,-69,-47,984,-24,-17,-9
2195,57,-58,1003,-14,-26,-11
2196,122,-55,1014,-7,-15,-13
2197,93,-10,1009,-6,7,-7
2198,1,31,990,-9,23,-1
2199,-115,39,990,-18,26,3
2200,-136,-3,991,-25,8,-2
2201,-87,-36,983,-25,-12,-8
2202,44,-64,1006,-16,-25,-12
2203,104,-60,1004,-8,-17,-13
2204,111,-15,1009,-2,2,-7
2205,20,27,1003,-7,23,-3
2206,-100,38,999,-18,27,2
2207,-139,7,980,-24,12,-2
2208,-99,-26,988,-25,-10,-4
2209,25,-67,1000,-20,-27,-11
2210,99,-63,1005,-8,-20,-12
2211,123,-21,1003,-4,-1,-8
2212,32,24,1008,-6,22,-3
2213,-82,34,1008,-14,27,1
2214,-141,19,977,-25,13,-1
2215,-110,-20,989,-26,-7,-5
2216,3,-66,1000,-21,-24,-13
2217,95,-65,998,-11,-22,-14
2218,130,-31,1008,-5,-6,-9
2219,39,15,1004,-6,18,-3
2220,-59,33,1007,-13,28,1
2221,-141,27,978,-23,19,2
2222,-117,-10,997,-25,-3,-4
2223,-18,-62,995,-23,-22,-11
2224,86,-65,998,-14,-22,-12
2225,134,-41,998,-6,-9,-11
2226,58,3,1014,-6,15,-5
2227,-42,34,996,-12,26,1
2228,-141,33,982,-20,20,0
2229,-126,-6,997,-25,-1,-3
2230,-48,-55,994,-24,-19,-8
2231,84,-64,1003,-16,-25,-13
2232,128,-49,1008,-7,-11,-12
2233,75,-4,996,-4,11,-5
2234,-24,27,1000,-10,27,-2
2235,-133,40,989,-21,24,2
2236,-127,-5,991,-26,4,-3
2237,-66,-46,990,-23,-16,-9
2238,65,-58,1005,-16,-26,-11
2239,126,-52,1009,-9,-14,-11
2240,90,-13,1009,-6,9,-6
2241,-1,25,990,-10,25,-3
2242,-123,33,990,-18,27,2
2243,-135,0,992,-25,7,-2
2244,-84,-39,979,-25,-13,-7
2245,50,-55,1006,-16,-24,-12
2246,112,-56,1010,-10,-16,-11
2247,105,-16,1006,-5,6,-8
2248,15,24,999,-9,24,-2
2249,-109,31,996,-17,26,2
2250,-136,2,984,-23,9,-2
2251,-98,-26,986,-25,-10,-5
2252,30,-63,1003,-16,-25,-12
2253,102,-59,1006,-9,-19,-11
2254,119,-19,1003,-6,0,-7
2255,28,21,1006,-9,21,-2
2256,-86,30,1008,-15,28,2
2257,-142,15,975,-22,13,-1
2258,-103,-24,983,-23,-8,-6
2259,6,-65,1007,-19,-25,-12
2260,98,-61,999,-12,-21,-13
2261,129,-26,1004,-6,-3,-8
2262,38,17,1006,-5,19,-3
2263,-70,31,1007,-15,27,1
2264,-142,22,976,-23,18,0
2265,-116,-21,999,-25,-3,-4
2266,-11,-63,996,-21,-23,-12
2267,87,-67,995,-12,-25,-13
2268,135,-31,1005,-3,-9,-11
2269,52,7,1009,-6,15,-4
2270,-48,38,1002,-11,27,0
2271,-139,30,978,-23,20,1
2272,-124,-12,995,-24,-2,-5
2273,-38,-64,996,-20,-21,-10
2274,80,-61,1002,-12,-23,-13
2275,131,-42,1000,-6,-10,-10
2276,72,4,1001,-3,14,-5
2277,-32,34,1001,-8,26,1
2278,-135,36,983,-19,22,2
2279,-131,-10,994,-25,3,-4
2280,-59,-54,989,-22,-18,-9
2281,71,-59,1004,-14,-27,-12
2282,125,-51,1009,-7,-14,-12
2283,86,-6,1005,-3,9,-5
2284,-6,29,995,-9,25,-3
2285,-124,39,987,-17,26,1
2286,-134,-4,994,-25,6,-3
2287,-83,-43,981,-24,-15,-9
2288,53,-63,1002,-15,-26,-11
2289,118,-59,1016,-8,-15,-13
2290,100,-13,1005,-4,5,-7
2291,11,27,995,-6,24,-2
2292,-111,38,996,-16,25,2
2293,-141,2,982,-25,9,-2
2294,-90,-35,988,-24,-9,-7
2295,35,-66,1006,-17,-26,-12
2296,106,-61,1002,-9,-20,-13
2297,116,-18,1005,-2,-1,-8
2298,23,23,1006,-6,22,-2
2299,-92,36,1005,-15,28,0
2300,-145,8,978,-20,13,-1
2301,-103,-20,980,-23,-9,-6
2302,12,-67,1006,-19,-27,-11
2303,96,-64,998,-9,-20,-12
2304,129,-25,1005,-5,-4,-10
2305,32,16,1007,-5,19,-3
2306,-72,34,1002,-13,27,1
2307,-142,20,979,-24,16,-1
2308,-114,-18,996,-24,-4,-5
2309,-9,-60,993,-21,-24,-11
2310,92,-64,999,-11,-24,-12
2311,130,-35,1003,-3,-8,-10
2312,50,9,1011,-4,17,-4
2313,-52,27,1002,-10,27,1
2314,-140,29,980,-21,20,0
2315,-121,-8,997,-25,-2,-4
2316,-32,-57,998,-22,-22,-9
2317,85,-62,997,-11,-25,-13
2318,130,-44,1005,-6,-10,-12
2319,68,4,1002,-4,12,-4
2320,-33,29,997,-9,26,-2
2321,-135,34,981,-19,22,0
2322,-128,-9,998,-24,1,-3
2323,-53,-49,990,-22,-19,-10
2324,74,-61,1009,-15,-26,-12
2325,129,-44,1006,-7,-13,-11
2326,80,-9,1000,-3,11,-5
2327,-13,24,995,-10,24,-1
2328,-126,36,992,-17,25,2
2329,-134,-5,991,-23,5,-3
2330,-75,-41,983,-21,-17,-9
2331,56,-57,1003,-14,-26,-11
2332,118,-51,1015,-9,-15,-12
2333,100,-13,1008,-5,7,-7
2334,4,27,995,-8,24,-3
2335,-114,34,989,-17,26,1
2336,-139,-3,987,-24,9,-2
2337,-87,-32,983,-23,-13,-7
2338,41,-63,1005,-17,-26,-12
2339,104,-57,1003,-8,-18,-12
2340,114,-14,1009,-3,2,-7
2341,19,25,1002,-7,21,-2
2342,-98,32,1004,-16,28,1
2343,-142,6,977,-22,12,-2
2344,-99,-27,982,-23,-10,-6
2345,20,-68,1003,-17,-25,-11
2346,93,-62,1002,-10,-19,-11
2347,129,-21,1006,-4,-3,-8
2348,31,16,1006,-6,20,-2
2349,-79,37,1004,-13,27,1
2350,-142,17,981,-22,14,-1
2351,-115,-17,990,-24,-4,-5
2352,0,-64,1000,-19,-24,-11
2353,93,-62,999,-11,-22,-13
2354,133,-31,1004,-4,-6,-9
2355,46,14,1008,-6,17,-3
2356,-60,32,1003,-13,26,0
2357,-141,25,978,-22,18,1
2358,-121,-12,999,-24,-3,-4
2359,-24,-59,992,-22,-22,-10
2360,84,-64,1002,-11,-24,-12
2361,135,-40,1002,-5,-10,-10
2362,63,6,1007,-5,15,-4
2363,-40,32,1000,-10,26,1
2364,-136,36,983,-20,21,1
2365,-131,-13,994,-23,2,-4
2366,-48,-54,993,-19,-19,-10
2367,78,-65,1008,-22,-23,-10
2368,131,-47,1002,-12,-9,-10
2369,82,-7,1001,-4,11,-6
2370,-21,31,998,-10,26,-1
2371,-130,42,989,-19,25,1
2372,-132,-3,997,-24,5,-3
2373,-69,-47,983,-23,-16,-8
2374,60,-60,1004,-14,-27,-12
2375,127,-55,1012,-7,-15,-13
2376,90,-12,1005,-5,8,-5
2377,0,33,992,-9,23,-2
2378,-118,35,994,-17,24,3
2379,-139,-1,986,-23,6,-1
2380,-86,-35,988,-23,-14,-7
2381,45,-59,1005,-16,-26,-12
2382,109,-60,1005,-8,-17,-14
2383,111,-14,1009,-3,2,-8
2384,19,22,1000,-8,21,-4
2385,-102,32,1001,-15,27,2
2386,-141,5,977,-24,13,-1
2387,-101,-27,984,-24,-10,-6
2388,27,-62,1004,-18,-26,-13
2389,99,-59,1001,-10,-20,-13
2390,125,-21,1005,-3,-2,-10
2391,32,18,1005,-7,21,-3
2392,-85,31,1008,-15,27,1
2393,-138,13,979,-22,14,-1
2394,-112,-20,987,-22,-7,-5
2395,6,-60,998,-18,-25,-11
2396,94,-62,1004,-10,-22,-13
2397,133,-27,1002,-5,-7,-10
2398,40,11,1005,-6,18,-4
2399,-64,34,1007,-11,27,0
2400,-139,23,975,-23,18,0
2401,-117,-14,1002,-24,-2,-6
2402,-22,-62,992,-23,-23,-11
2403,90,-62,997,-11,-23,-13
2404,135,-37,1003,-4,-9,-11
2405,57,7,1008,-5,16,-4
2406,-44,32,1002,-13,27,-1
2407,-139,29,980,-20,19,0
2408,-124,-9,994,-24,-1,-4
2409,-43,-57,994,-22,-19,-10
2410,77,-59,1005,-11,-24,-13
2411,130,-42,1002,-5,-12,-11
2412,71,0,1000,-5,10,-5
2413,-21,30,999,-10,24,-1
2414,-129,34,987,-19,23,2
2415,-130,-6,993,-25,3,-3
2416,-68,-48,987,-22,-17,-10
2417,65,-59,1006,-13,-27,-12
2418,125,-53,1010,-6,-16,-12
2419,92,-7,1007,-5,7,-7
2420,-1,26,991,-9,25,-2
2421,-123,38,989,-17,25,2
2422,-138,-6,992,-25,6,-4
2423,-84,-37,984,-23,-14,-8
2424,53,-61,1004,-17,-26,-13
2425,114,-59,1013,-8,-16,-13
2426,104,-11,1008,-3,4,-7
2427,15,25,998,-7,22,-3
2428,-110,32,1000,-16,26,3
2429,-137,0,980,-24,9,-2
2430,-95,-31,987,-23,-11,-8
2431,30,-64,1001,-17,-25,-12
2432,105,-60,1007,-7,-19,-12
2433,120,-17,1005,-2,-1,-7
2434,24,20,1003,-8,22,-2
2435,-87,32,1011,-14,28,1
2436,-143,13,973,-23,13,-1
2437,-108,-19,984,-25,-8,-6
2438,12,-65,1006,-17,-25,-11
2439,92,-64,996,-10,-20,-12
2440,131,-27,1003,-4,-4,-10
2441,37,16,1007,-4,19,-4
2442,-66,35,1002,-13,26,0
2443,-142,23,978,-23,17,-1
2444,-115,-13,998,-24,-3,-4
2445,-13,-59,996,-20,-24,-10
2446,92,-65,997,-12,-23,-12
2447,133,-34,1004,-4,-7,-11
2448,53,3,1008,-7,17,-4
2449,-50,30,1002,-12,26,0
2450,-139,31,980,-21,19,0
2451,-126,-6,995,-22,0,-5
2452,-37,-58,996,-22,-20,-10
2453,77,-62,1002,-13,-24,-12
2454,135,-44,1003,-7,-11,-11
2455,70,-4,1000,-4,14,-4
2456,-25,31,1001,-11,25,-1
2457,-136,32,984,-21,23,1
2458,-131,-7,997,-24,4,-3
2459,-60,-50,989,-22,-17,-8
2460,68,-59,1008,-12,-26,-12
2461,129,-45,1008,-5,-14,-11
2462,84,-9,1004,-6,10,-5
2463,-7,27,992,-10,24,-2
2464,-123,33,991,-18,25,1
2465,-134,-2,994,-23,6,-3
2466,-78,-43,981,-23,-15,-7
2467,57,-56,1004,-14,-26,-12
2468,115,-55,1013,-8,-14,-11
2469,103,-11,1007,-5,6,-7
2470,9,25,997,-10,23,-2
2471,-112,35,994,-18,26,1
2472,-139,0,988,-25,8,-3
2473,-94,-32,984,-24,-12,-7
2474,38,-62,1005,-18,-29,-11
2475,102,-59,1003,-8,-19,-12
2476,114,-12,1005,-3,0,-6
2477,24,24,1003,-8,21,-3
2478,-94,30,1008,-15,28,0
2479,-141,7,974,-21,11,-2
2480,-103,-26,983,-23,-9,-6
2481,16,-63,1007,-18,-26,-12
2482,95,-61,1000,-10,-19,-12
2483,128,-26,1004,-5,-2,-10
2484,34,17,1008,-6,20,-4
2485,-71,32,999,-14,27,0
2486,-139,19,980,-22,15,-1
2487,-113,-19,994,-25,-4,-4
2488,-5,-62,996,-20,-22,-11
2489,90,-64,999,-10,-23,-13
2490,128,-32,1001,-4,-7,-11
2491,51,10,1012,-5,16,-4
2492,-52,32,998,-11,27,0
2493,-137,30,984,-22,19,1
2494,-120,-15,995,-24,-3,-3
2495,-36,-58,994,-22,-22,-10
2496,81,-64,1001,-13,-25,-12
2497,133,-46,1003,-6,-10,-10
2498,65,1,1002,-5,15,-3
2499,-32,30,1002,-10,25,0
2500,-135,34,978,-19,22,2
2501,-129,-6,1000,-23,1,-3
2502,-57,-51,990,-22,-18,-9
2503,73,-62,1005,-13,-24,-12
2504,129,-49,1008,-6,-14,-12
2505,79,-8,1000,-4,9,-6
2506,-11,27,996,-11,25,-1
2507,-126,37,989,-18,25,1
2508,-136,-4,992,-24,5,-2
2509,-74,-43,983,-24,-16,-8
2510,57,-59,1005,-16,-25,-11
2511,117,-58,1008,-9,-14,-12
2512,101,-15,1014,-4,6,-7
2513,8,27,993,-8,22,-2
2514,-114,37,990,-18,26,2
2515,-140,-2,990,-23,8,-3
2516,-89,-34,986,-24,-12,-6
2517,41,-61,1000,-17,-26,-11
2518,107,-59,1008,-9,-19,-12
2519,113,-14,1002,-1,1,-7
2520,21,22,1002,-7,22,-3
2521,-99,34,1006,-15,27,0
2522,-139,10,976,-22,11,-2
2523,-103,-23,981,-25,-9,-6
2524,21,-66,1007,-19,-25,-10
2525,99,-64,1001,-10,-19,-12
2526,126,-25,1003,-4,-1,-8
2527,32,21,1007,-6,21,-4
2528,-77,34,1005,-13,27,1
2529,-141,22,977,-22,16,1
2530,-110,-19,992,-25,-5,-4
2531,-3,-64,997,-21,-23,-10
2532,95,-62,1000,-10,-24,-12
2533,132,-35,1001,-6,-7,-10
2534,49,11,1010,-6,15,-5
2535,-57,32,1002,-13,28,1
2536,-142,29,979,-21,19,0
2537,-121,-13,997,-24,-3,-3
2538,-28,-62,996,-21,-23,-11
2539,83,-63,999,-12,-24,-12
2540,134,-44,1004,-4,-10,-10
2541,62,2,1006,-5,14,-4
2542,-34,31,1000,-9,27,1
2543,-135,35,981,-20,23,3
2544,-125,-7,994,-24,2,-3
2545,-53,-53,995,-21,-18,-9
2546,72,-62,1005,-14,-24,-13
2547,127,-46,1005,-7,-12,-10
2548,82,-7,1000,-4,10,-4
2549,-16,28,996,-11,24,-2
2550,-125,36,988,-19,25,2
2551,-136,-4,995,-25,4,-4
2552,-71,-43,985,-24,-18,-9
2553,59,-58,1002,-15,-27,-12
2554,121,-52,1014,-9,-15,-12
2555,95,-13,1007,-3,7,-5
2556,1,26,992,-8,24,-1
2557,-112,35,989,-18,24,2
2558,-140,0,990,-23,7,-2
2559,-88,-36,983,-23,-13,-8
2560,41,-59,1006,-16,-24,-11
2561,107,-60,1007,-9,-17,-13
2562,111,-14,1005,-3,2,-7
2563,21,23,1003,-7,21,-3
2564,-101,35,1004,-16,28,3
2565,-141,7,978,-25,12,1
2566,-100,-24,981,-24,-10,-5
2567,20,-66,1005,-18,-26,-11
2568,99,-63,1001,-8,-19,-13
2569,125,-25,1002,-5,-1,-9
2570,32,23,1006,-6,21,-3
2571,-79,35,1006,-13,27,2
2572,-141,17,976,-23,14,0
2573,-112,-20,991,-24,-6,-5
2574,-2,-64,998,-20,-24,-12
2575,94,-64,1000,-11,-22,-12
2576,134,-28,1003,-4,-7,-9
2577,43,14,1006,-5,17,-3
2578,-59,34,1005,-12,26,1
2579,-141,27,979,-21,20,0
2580,-117,-13,997,-24,-1,-4
2581,-25,-61,993,-22,-22,-10
2582,89,-61,998,-12,-25,-11
2583,133,-43,1003,-5,-9,-11
2584,59,5,1009,-4,15,-6
2585,-41,29,998,-11,25,-1
2586,-137,34,984,-19,20,1
2587,-128,-11,995,-24,-1,-3
2588,-50,-53,994,-20,-20,-10
2589,79,-62,1007,-13,-24,-12
2590,127,-47,1001,-6,-12,-12
2591,75,-2,1002,-4,11,-4
2592,-14,28,997,-10,26,-1
2593,-130,37,988,-19,25,2
2594,-131,-6,994,-23,5,-3
2595,-73,-46,986,-22,-16,-9
2596,62,-58,1001,-16,-26,-12
2597,122,-53,1014,-8,-15,-11
2598,94,-10,1010,-4,8,-6
2599,1,27,992,-9,24,-1
2600,-118,35,988,-16,25,2
2601,-136,0,994,-25,7,-3
2602,-88,-32,982,-25,-12,-7
2603,46,-61,1004,-16,-26,-13
2604,108,-61,1009,-8,-17,-13
2605,110,-15,1005,-5,3,-7
2606,19,20,1001,-9,21,-2
2607,-105,37,1002,-17,28,2
2608,-138,7,979,-22,12,-1
2609,-98,-27,986,-24,-9,-6
2610,25,-65,1000,-17,-27,-12
2611,99,-60,1003,-9,-20,-12
2612,124,-22,1004,-4,-2,-7
2613,32,17,1005,-8,21,-3
2614,-83,32,1007,-13,28,2
2615,-142,15,975,-22,14,-1
2616,-111,-17,990,-24,-8,-5
2617,8,-65,999,-19,-24,-11
2618,91,-65,1001,-12,-20,-13
2619,134,-26,999,-4,-5,-10
2620,40,14,1008,-3,19,-3
2621,-59,33,1003,-12,28,0
2622,-142,25,982,-22,18,1
2623,-117,-13,994,-24,-3,-3
2624,-23,-63,999,-20,-23,-10
2625,90,-61,993,-10,-24,-12
2626,130,-42,1004,-4,-8,-11
2627,60,7,1006,-6,16,-5
2628,-43,26,1003,-11,26,0
2629,-136,36,976,-20,21,1
2630,-129,-10,1000,-25,0,-3
2631,-42,-51,994,-21,-20,-8
2632,77,-63,1006,-15,-25,-12
2633,131,-45,1000,-6,-11,-11
2634,76,-4,1004,-3,11,-4
2635,-20,32,996,-10,25,-1
2636,-133,38,990,-18,24,3
2637,-131,-8,991,-24,6,-2
2638,-69,-47,987,-23,-15,-9
2639,64,-61,1003,-15,-26,-12
2640,122,-54,1010,-8,-14,-11
2641,91,-10,1006,-3,9,-6
2642,0,29,991,-7,25,-2
2643,-119,40,991,-17,26,3
2644,-138,1,993,-25,6,-2
2645,-85,-36,980,-26,-13,-8
2646,50,-64,1004,-17,-27,-12
2647,109,-62,1008,-8,-17,-11
2648,109,-16,1011,-3,2,-8
2649,16,23,1000,-8,22,-3
2650,-107,40,998,-16,27,1
2651,-139,3,983,-24,11,-1
2652,-97,-27,984,-25,-10,-6
2653,33,-64,1002,-18,-26,-12
2654,98,-62,1003,-9,-19,-12
2655,124,-16,1003,-3,0,-8
2656,26,20,1006,-7,21,-2
2657,-89,33,1004,-13,28,2
2658,-140,14,976,-23,13,-1
2659,-108,-20,988,-23,-7,-6
2660,8,-63,998,-20,-25,-12
2661,94,-64,1003,-11,-21,-13
2662,129,-28,1004,-5,-4,-9
2663,37,16,1005,-4,19,-4
2664,-65,33,1007,-11,27,1
2665,-141,26,977,-22,17,1
2666,-116,-14,995,-26,-2,-5
2667,-17,-65,997,-21,-23,-11
2668,89,-61,995,-12,-24,-12
2669,135,-39,1004,-4,-8,-10
2670,54,8,1008,-5,16,-3
2671,-48,31,1000,-12,27,1
2672,-139,31,980,-21,21,1
2673,-125,-9,996,-24,-1,-2
2674,-36,-55,996,-22,-21,-10
2675,82,-62,1004,-14,-24,-13
2676,129,-45,1002,-6,-11,-10
2677,72,-1,1001,-4,11,-5
2678,-30,28,1002,-10,25,-1
2679,-133,37,983,-19,24,2
2680,-130,-7,997,-24,2,-3
2681,-65,-46,987,-22,-17,-9
2682,68,-56,1005,-15,-27,-11
2683,127,-50,1008,-7,-13,-11
2684,85,-10,1006,-4,8,-5
2685,-4,28,991,-10,24,-3
2686,-122,33,992,-18,25,1
2687,-133,-3,990,-23,4,-3
2688,-82,-38,984,-23,-16,-8
2689,55,-60,1004,-14,-25,-12
2690,112,-54,1013,-8,-16,-11
2691,105,-9,1006,-3,5,-6
2692,10,26,1000,-9,23,-3
2693,-109,34,991,-17,26,3
2694,-140,-1,984,-23,9,-3
2695,-89,-34,989,-25,-10,-8
2696,33,-60,1000,-15,-25,-12
2697,102,-61,1006,-7,-18,-11
2698,118,-14,1005,-2,0,-9
2699,24,24,1006,-8,22,-4
2700,-92,33,1006,-15,28,1
2701,-141,6,978,-23,13,-2
2702,-104,-28,981,-24,-9,-5
2703,11,-65,1001,-17,-26,-12
2704,96,-62,1005,-10,-19,-13
2705,127,-18,1001,-8,-2,-9
2706,40,20,1006,-5,20,-3
2707,-75,31,1007,-12,27,0
2708,-140,18,979,-23,16,0
2709,-118,-18,993,-25,-4,-5
2710,-12,-65,999,-20,-24,-10
2711,92,-63,992,-11,-24,-13
2712,131,-32,1005,-3,-9,-9
2713,52,11,1008,-5,16,-5
2714,-51,30,1004,-13,27,-1
2715,-140,32,972,-19,19,1
2716,-123,-12,1000,-25,-1,-4
2717,-35,-59,996,-22,-22,-11
2718,80,-64,1003,-12,-25,-12
2719,136,-43,999,-7,-11,-10
2720,64,0,1005,-3,14,-4
2721,-29,29,998,-10,25,-1
2722,-138,36,986,-18,22,1
2723,-125,-5,996,-24,2,-3
2724,-62,-51,990,-24,-17,-9
2725,73,-60,1006,-14,-26,-13
2726,126,-49,1010,-5,-14,-12
2727,81,-10,998,-3,10,-6
2728,-7,27,999,-8,26,-2
2729,-123,38,986,-17,25,2
2730,-135,-1,993,-23,6,-4
2731,-78,-43,981,-23,-15,-9
2732,54,-60,1006,-15,-26,-12
2733,116,-57,1009,-9,-15,-13
2734,101,-15,1011,-4,6,-7
2735,10,26,995,-7,23,-2
2736,-114,34,992,-16,26,2
2737,-139,0,985,-22,9,-2
2738,-90,-29,989,-23,-11,-6
2739,39,-59,1000,-17,-25,-11
2740,102,-59,1007,-10,-18,-11
2741,114,-15,1002,-6,1,-8
2742,23,20,1005,-8,22,-3
2743,-95,33,1003,-15,26,1
2744,-142,12,976,-22,12,-1
2745,-100,-23,986,-23,-10,-7
2746,12,-64,1003,-20,-27,-11
2747,98,-59,1003,-9,-21,-12
2748,129,-26,1005,-5,-2,-9
2749,31,18,1004,-6,20,-3
2750,-69,31,1006,-11,27,1
2751,-145,18,974,-23,16,0
2752,-111,-18,999,-26,-7,-5
2753,-13,-60,996,-20,-25,-10
2754,89,-59,993,-11,-24,-13
2755,135,-35,1007,-4,-9,-11
2756,49,9,1007,-5,18,-4
2757,-49,29,1003,-12,28,-1
2758,-140,29,981,-20,21,0
2759,-123,-13,995,-25,-2,-4
2760,-32,-63,996,-21,-22,-12
2761,79,-60,1005,-12,-24,-12
2762,133,-42,998,-7,-9,-11
2763,73,-1,1007,-4,14,-6
2764,-32,28,997,-10,25,1
2765,-131,36,985,-22,23,2
2766,-132,-10,997,-24,3,-4
2767,-64,-49,985,-23,-16,-8
2768,72,-58,1010,-14,-25,-13
2769,126,-51,1007,-6,-14,-10
2770,84,-3,1004,-4,10,-5
2771,-6,28,994,-9,25,-2
2772,-126,37,990,-18,25,2
2773,-133,-6,990,-25,6,-2
2774,-80,-41,985,-25,-15,-7
2775,55,-58,1003,-14,-27,-11
2776,112,-54,1012,-8,-15,-12
2777,103,-8,1008,-3,4,-7
2778,8,27,999,-9,22,-2
2779,-105,38,994,-16,25,2
2780,-139,-3,981,-24,9,-1
2781,-90,-30,989,-23,-11,-5
2782,31,-63,1002,-17,-24,-11
2783,100,-59,1002,-8,-19,-12
2784,117,-17,1002,-3,1,-8
2785,25,22,1006,-7,21,-3
2786,-89,29,1005,-16,27,2
2787,-140,14,976,-21,14,0
2788,-102,-22,984,-25,-8,-5
2789,10,-68,1003,-19,-25,-13
2790,95,-64,1001,-10,-20,-12
2791,126,-25,1000,-5,-3,-9
2792,38,17,1010,-6,19,-3
2793,-66,33,1002,-12,25,1
2794,-145,25,975,-22,17,2
2795,-111,-16,1000,-26,-4,-4
2796,-19,-63,1001,-21,-23,-10
2797,94,-63,989,-12,-25,-12
2798,133,-41,1010,-6,-8,-10
2799,52,2,1004,-7,16,-4
2800,-45,28,1003,-13,27,0
2801,-141,31,981,-20,20,1
2802,-123,-3,997,-25,-2,-3
2803,-38,-54,998,-21,-20,-11
2804,76,-56,1005,-14,-24,-11
2805,132,-48,1003,-7,-10,-11
2806,66,-10,1002,-3,13,-4
2807,-24,25,993,-8,24,-1
2808,-130,36,995,-19,24,2
2809,-127,-3,993,-23,3,-1
2810,-60,-45,984,-21,-18,-9
2811,65,-56,1008,-12,-27,-12
2812,120,-52,1011,-8,-15,-9
2813,90,-14,1007,-4,9,-7
2814,-6,25,990,-8,24,-2
2815,-119,36,988,-15,24,3
2816,-134,-3,990,-22,6,-4
2817,-86,-33,983,-22,-13,-7
2818,53,-56,1004,-16,-25,-11
2819,109,-59,1008,-9,-16,-13
2820,107,-11,1005,-3,3,-6
2821,16,21,1003,-9,21,-2
2822,-106,29,1000,-18,26,1
2823,-137,3,976,-22,11,-1
2824,-95,-29,989,-24,-9,-6
2825,29,-60,1002,-17,-27,-12
2826,100,-55,1002,-9,-20,-13
2827,120,-14,1003,-6,-1,-8
2828,25,23,1010,-8,22,-2
2829,-81,25,1005,-15,27,1
2830,-140,5,977,-22,13,-1
2831,-107,-24,989,-22,-8,-6
2832,4,-70,999,-18,-24,-12
2833,92,-54,1002,-8,-22,-11
2834,129,-18,1002,-3,-6,-9
2835,41,23,1009,-5,17,-3
2836,-55,34,1002,-16,26,2
2837,-144,18,979,-23,18,0
2838,-116,-21,996,-25,-4,-5
2839,-26,-68,996,-19,-23,-11
2840,86,-62,997,-9,-25,-12
2841,133,-34,1004,-4,-9,-10
2842,63,10,1009,-4,15,-3
2843,-39,35,1000,-11,25,0
2844,-137,37,979,-21,20,2
2845,-126,-17,1000,-24,0,-3
2846,-52,-58,987,-24,-18,-10
2847,73,-67,1007,-15,-24,-13
2848,134,-47,1004,-7,-12,-11
2849,77,-2,1002,-2,11,-4
2850,-16,35,994,-10,24,-2
2851,-129,38,994,-21,25,1
2852,-132,-6,990,-25,4,-2
2853,-74,-46,982,-24,-17,-7
2854,61,-62,1006,-15,-28,-12
2855,119,-61,1011,-8,-14,-13
2856,94,-11,1011,-4,7,-5
2857,2,29,991,-8,23,-3
2858,-115,39,994,-16,26,1
2859,-139,1,986,-24,7,-2
2860,-85,-31,988,-24,-12,-8
2861,41,-62,1006,-18,-25,-13
2862,107,-64,1001,-8,-18,-11
2863,114,-16,1005,-2,1,-8
2864,18,24,1006,-7,22,-4
2865,-97,36,1005,-16,27,1
2866,-137,13,974,-23,10,-3
2867,-98,-22,986,-23,-10,-7
2868,22,-66,1002,-19,-27,-11
2869,96,-65,1003,-11,-19,-12
2870,125,-24,1006,-4,-1,-9
2871,31,13,1005,-6,20,-3
2872,-75,30,1003,-13,26,2
2873,-139,23,977,-22,14,0
2874,-111,-17,999,-24,-5,-5
2875,-7,-65,995,-21,-24,-12
2876,90,-63,994,-12,-22,-12
2877,132,-34,1007,-4,-7,-10
2878,47,8,1007,-6,17,-3
2879,-52,32,1004,-12,26,0
2880,-141,30,977,-20,20,1
2881,-118,-8,998,-24,-4,-5
2882,-38,-55,996,-23,-23,-11
2883,81,-60,1000,-13,-23,-12
2884,129,-45,1004,-6,-9,-10
2885,66,-3,999,-3,14,-3
2886,-32,28,999,-8,25,-1
2887,-132,35,984,-20,21,1
2888,-128,-7,996,-23,2,-4
2889,-54,-44,987,-22,-18,-10
2890,69,-59,1005,-16,-26,-12
2891,125,-50,1010,-7,-14,-12
2892,84,-12,1005,-5,9,-4
2893,-10,27,991,-11,25,-2
2894,-119,33,992,-19,25,2
2895,-133,-6,992,-23,6,-3
2896,-79,-40,980,-23,-14,-8
2897,51,-57,1005,-15,-25,-13
2898,111,-55,1011,-8,-15,-12
2899,102,-13,1005,-4,5,-8
2900,7,26,1000,-9,22,-3
2901,-106,34,996,-17,25,2
2902,-135,-3,981,-22,9,-2
2903,-92,-29,987,-24,-10,-6
2904,35,-65,1003,-17,-25,-11
2905,99,-59,1003,-6,-18,-12
2906,121,-15,1004,-2,-1,-8
2907,23,25,1008,-8,21,-3
2908,-84,32,1006,-16,28,1
2909,-139,10,975,-23,15,0
2910,-107,-23,987,-25,-8,-5
2911,10,-66,1002,-18,-24,-11
2912,94,-65,1001,-10,-20,-12
2913,129,-21,1001,-4,-4,-8
2914,39,18,1008,-7,18,-4
2915,-64,33,1001,-14,26,0
2916,-146,24,979,-23,18,0
2917,-109,-21,1002,-25,-4,-6
2918,-20,-62,992,-19,-23,-11
2919,89,-60,997,-9,-22,-12
2920,133,-36,1004,-5,-8,-12
2921,56,9,1008,-5,16,-4
2922,-42,31,997,-11,26,0
2923,-140,35,982,-18,20,1
2924,-122,-13,995,-25,-1,-2
2925,-43,-61,995,-23,-20,-10
2926,79,-63,1006,-14,-25,-12
2927,131,-45,1002,-7,-11,-11
2928,70,-2,1002,-2,11,-5
2929,-19,33,995,-8,24,-2
2930,-131,39,990,-19,24,2
2931,-127,-5,995,-24,3,-3
2932,-66,-49,984,-23,-17,-9
2933,68,-60,1005,-14,-27,-11
2934,119,-57,1010,-7,-14,-12
2935,91,-10,1010,-4,9,-7
2936,-3,31,988,-9,25,-1
2937,-116,42,994,-16,25,2
2938,-137,-2,993,-25,6,-2
2939,-84,-32,984,-22,-13,-6
2940,48,-62,1005,-18,-25,-12
2941,107,-62,1006,-8,-16,-13
2942,108,-12,1002,-3,2,-6
2943,15,25,1006,-7,22,-2
2944,-102,33,1004,-16,27,2
2945,-140,10,976,-24,10,-1
2946,-95,-25,983,-23,-11,-6
2947,23,-65,1005,-18,-26,-12
2948,103,-61,1000,-8,-20,-11
2949,121,-24,1003,-5,-1,-8
2950,27,21,1007,-5,19,-4
2951,-79,31,1006,-12,26,1
2952,-141,21,975,-23,13,-1
2953,-107,-16,998,-27,-7,-6
2954,0,-66,997,-20,-23,-11
2955,94,-65,996,-11,-22,-12
2956,131,-29,1005,-2,-6,-10
2957,43,9,1006,-5,17,-2
2958,-58,32,1003,-11,26,1
2959,-141,27,981,-21,19,2
2960,-117,-9,999,-24,-4,-3
2961,-26,-61,993,-22,-23,-10
2962,83,-59,1002,-12,-23,-13
2963,132,-45,1002,-6,-11,-11
2964,62,3,1003,-4,14,-4
2965,-37,28,1002,-10,25,0
2966,-134,35,982,-18,22,1
2967,-127,-8,997,-24,4,-4
2968,-56,-52,991,-22,-17,-9
2969,74,-59,1008,-14,-27,-12
2970,126,-51,1006,-5,-13,-10
2971,81,-6,998,-4,11,-4
2972,-13,26,999,-10,25,0
2973,-125,35,988,-19,25,3
2974,-130,-5,994,-23,4,-4
2975,-76,-41,984,-23,-17,-9
2976,58,-59,1004,-14,-26,-13
2977,116,-54,1011,-8,-13,-12
2978,96,-13,1009,-5,6,-5
2979,9,28,996,-7,22,-4
2980,-112,32,990,-16,27,3
2981,-139,1,989,-22,10,-3
2982,-89,-34,987,-24,-12,-7
2983,37,-63,1002,-17,-26,-12
2984,101,-57,1002,-10,-19,-11
2985,118,-17,1008,-2,1,-8
2986,20,25,1003,-7,21,-2
2987,-91,33,1005,-17,27,1
2988,-139,7,977,-24,12,-2
2989,-103,-25,983,-25,-9,-6
2990,17,-65,1004,-19,-26,-13
2991,96,-65,1001,-10,-20,-14
2992,126,-20,1003,-4,-3,-9
2993,37,21,1005,-7,18,-3
2994,-78,31,1003,-12,26,1
2995,-138,22,977,-25,15,-1
2996,-110,-21,995,-24,-3,-6
2997,-9,-59,993,-21,-22,-11
2998,92,-65,994,-12,-22,-13
2999,127,-33,1007,-3,-8,-9
3000,48,8,1005,-6,16,-3
3001,-50,32,1005,-12,27,-1
3002,-138,32,980,-21,21,0
3003,-119,-9,996,-26,-2,-4
3004,-37,-58,996,-21,-21,-10
3005,81,-62,1001,-14,-24,-12
3006,130,-43,1002,-6,-11,-11
3007,67,0,1001,-5,12,-5
3008,-27,30,1000,-10,25,-1
3009,-133,33,987,-22,22,1
3010,-129,-8,995,-24,2,-4
3011,-63,-53,988,-22,-17,-9
3012,68,-62,1009,-14,-25,-11
3013,125,-54,1007,-7,-14,-10
3014,83,-9,1003,-3,10,-5
3015,-4,29,996,-9,24,-1
3016,-126,41,989,-18,24,2
3017,-134,2,992,-25,4,-3
3018,-81,-39,982,-24,-15,-8
3019,54,-60,1003,-14,-27,-12
3020,113,-58,1009,-9,-15,-11
3021,102,-15,1007,-5,5,-6
3022,9,24,996,-8,22,-2
3023,-112,37,996,-16,26,3
3024,-141,1,982,-24,9,-3
3025,-93,-26,991,-23,-11,-7
3026,37,-65,1000,-18,-26,-12
3027,102,-59,1009,-8,-19,-12
3028,118,-19,1002,-4,1,-8
3029,23,21,1006,-8,21,-2
3030,-91,32,1007,-15,27,1
3031,-141,11,975,-22,12,-1
3032,-106,-22,984,-23,-9,-5
3033,14,-64,1004,-17,-25,-11
3034,94,-63,1001,-10,-21,-12
3035,125,-26,1004,-6,-4,-9
3036,37,16,1006,-7,18,-5
3037,-74,34,1005,-13,27,0
3038,-139,21,977,-23,16,0
3039,-117,-19,1002,-26,-6,-5
3040,-11,-62,989,-19,-27,-12
3041,89,-58,998,-13,-23,-11
3042,132,-36,1003,-6,-9,-9
3043,50,11,1010,-5,16,-3
3044,-48,29,1001,-12,27,0
3045,-143,31,980,-20,19,1
3046,-118,-9,996,-24,-2,-4
3047,-36,-59,997,-23,-21,-10
3048,82,-58,1004,-14,-25,-12
3049,132,-45,1002,-6,-9,-12
3050,68,0,1000,-4,12,-4
3051,-29,31,999,-11,24,0
3052,-131,34,985,-20,23,2
3053,-130,-9,995,-25,4,-4
3054,-61,-50,988,-23,-17,-10
3055,67,-60,1007,-14,-24,-12
3056,125,-49,1009,-7,-14,-12
3057,85,-3,1005,-5,10,-5
3058,-4,25,994,-11,24,-2
3059,-122,33,989,-18,25,1
3060,-133,-8,993,-25,8,-1
3061,-81,-42,981,-24,-13,-8
3062,51,-62,1005,-15,-25,-12
3063,116,-55,1012,-8,-17,-13
3064,103,-12,1010,-5,5,-7
3065,12,29,992,-9,24,-3
3066,-110,35,997,-16,26,2
3067,-138,2,981,-25,8,-2
3068,-94,-30,989,-24,-10,-7
3069,38,-63,1001,-19,-26,-12
3070,102,-63,1006,-10,-19,-12
3071,118,-14,1000,-3,0,-8
3072,22,25,1010,-9,21,-2
3073,-89,35,1001,-15,27,1
3074,-145,10,977,-23,12,-1
3075,-103,-21,981,-25,-9,-6
3076,13,-69,1005,-18,-26,-12
3077,99,-61,1001,-10,-20,-12
3078,125,-25,1004,-5,-3,-8
3079,40,23,1005,-5,19,-3
3080,-74,32,1007,-13,27,1
3081,-141,23,976,-21,16,-1
3082,-118,-24,995,-25,-4,-5
3083,-10,-68,993,-20,-25,-12
3084,89,-67,993,-10,-23,-13
3085,134,-32,1006,-4,-8,-10
3086,55,16,1007,-5,16,-5
3087,-50,38,1003,-12,28,0
3088,-142,33,981,-23,20,1
3089,-122,-15,996,-26,-3,-4
3090,-35,-62,995,-23,-23,-9
3091,83,-64,1001,-12,-25,-12
3092,134,-44,1001,-6,-9,-10
3093,68,4,1001,-3,14,-4
3094,-28,37,1000,-9,26,-1
3095,-136,37,985,-21,23,1
3096,-131,-6,993,-24,2,-4
3097,-59,-52,995,-25,-18,-9
3098,70,-66,1006,-16,-25,-13
3099,128,-56,1005,-7,-14,-12
3100,84,-5,1002,-3,10,-6
3101,-7,28,998,-9,24,-2
3102,-125,38,990,-18,24,3
3103,-135,-3,993,-25,5,-3
3104,-78,-43,984,-26,-18,-8
3105,53,-64,1004,-15,-27,-12
3106,121,-61,1010,-8,-16,-12
3107,97,-18,1015,-4,7,-6
3108,10,30,991,-8,22,-2
3109,-113,32,992,-15,26,1
3110,-139,1,992,-22,8,-1
3111,-93,-34,986,-23,-12,-6
3112,42,-58,1002,-15,-25,-12
3113,108,-60,1006,-8,-18,-12
3114,115,-14,1004,-2,1,-7
3115,19,25,1001,-7,21,-1
3116,-94,35,1006,-15,28,2
3117,-144,6,979,-24,13,-1
3118,-103,-20,981,-23,-9,-5
3119,22,-66,1006,-18,-26,-12
3120,101,-59,1003,-9,-19,-13
3121,125,-20,1003,-5,-1,-9
3122,34,22,1008,-8,20,-4
3123,-81,31,1004,-13,28,1
3124,-138,17,973,-21,15,0
3125,-116,-22,993,-24,-7,-6
3126,0,-66,999,-18,-26,-11
3127,93,-65,996,-10,-21,-12
3128,130,-23,1008,-3,-6,-9
3129,44,9,1003,-6,16,-4
3130,-61,27,1007,-13,27,0
3131,-141,24,980,-22,18,1
3132,-119,-17,998,-24,-3,-5
3133,-24,-61,993,-19,-23,-11
3134,87,-64,998,-9,-24,-13
3135,137,-38,1003,-5,-10,-11
3136,60,6,1006,-6,15,-4
3137,-39,34,1002,-11,26,0
3138,-138,26,980,-22,19,0
3139,-128,-10,993,-23,-1,-4
3140,-51,-59,995,-21,-19,-9
3141,82,-61,1005,-11,-23,-13
3142,129,-44,1000,-6,-12,-11
3143,78,1,1003,-4,12,-5
3144,-19,31,998,-10,25,-2
3145,-130,38,986,-20,24,2
3146,-134,-9,995,-26,4,-3
3147,-71,-50,984,-22,-16,-10
3148,63,-60,1004,-15,-26,-12
3149,124,-51,1008,-7,-15,-12
3150,93,-10,1008,-4,8,-6
3151,1,33,994,-8,24,-2
3152,-121,39,987,-19,26,2
3153,-138,-3,994,-25,6,-3
3154,-86,-39,982,-25,-14,-6
3155,48,-64,1001,-15,-25,-13
3156,115,-61,1011,-7,-16,-13
3157,104,-14,1005,-2,5,-6
3158,16,26,999,-8,22,-3
3159,-106,35,998,-16,26,1
3160,-141,6,979,-23,11,-2
3161,-94,-31,986,-24,-9,-7
3162,28,-66,1002,-19,-26,-11
3163,105,-63,998,-11,-20,-13
3164,121,-22,1008,-3,0,-8
3165,25,21,1004,-5,22,-2
3166,-87,34,1006,-14,28,2
3167,-144,11,976,-23,14,-1
3168,-107,-22,985,-23,-8,-5
3169,9,-69,1004,-19,-25,-11
3170,94,-65,1001,-9,-20,-12
3171,133,-28,1007,-3,-5,-9
3172,35,14,1005,-5,19,-2
3173,-71,37,1001,-10,27,2
3174,-142,22,985,-21,17,-1
3175,-117,-17,993,-24,-3,-4
3176,-12,-62,997,-20,-23,-10
3177,94,-64,998,-11,-24,-13
3178,134,-35,1000,-2,-8,-9
3179,53,7,1009,-3,17,-3
3180,-55,32,1005,-11,27,0
3181,-139,30,977,-20,21,0
3182,-124,-8,999,-24,-1,-5
3183,-38,-60,993,-23,-22,-10
3184,86,-65,1003,-11,-24,-14
3185,133,-46,1000,-6,-10,-11
3186,68,0,1001,-3,14,-4
3187,-30,27,1004,-8,25,-2
3188,-141,37,978,-17,23,2
3189,-127,-4,992,-22,2,-4
3190,-59,-54,995,-22,-18,-9
3191,72,-58,1007,-12,-26,-11
3192,131,-51,1004,-7,-12,-13
3193,84,-11,1006,-2,10,-6
3194,-9,29,991,-8,24,0
3195,-126,38,991,-17,25,2
3196,-134,-4,995,-25,6,-2
3197,-76,-39,982,-24,-16,-8
3198,59,-60,1003,-15,-27,-13
3199,119,-53,1014,-6,-17,-12
3200,103,-12,1007,-5,6,-7
3201,5,25,996,-8,25,-2
3202,-114,37,988,-16,27,2
3203,-140,0,993,-25,8,-2
3204,-91,-31,982,-25,-13,-7
3205,41,-62,1005,-16,-27,-12
3206,110,-62,1008,-8,-18,-13
3207,110,-13,1005,-4,2,-6
3208,23,22,1003,-7,22,-3
3209,-101,32,1004,-16,28,2
3210,-142,12,979,-24,13,-1
3211,-98,-29,982,-24,-10,-6
3212,22,-64,1004,-17,-26,-12
3213,98,-60,1001,-9,-21,-14
3214,127,-24,1006,-5,-2,-10
3215,29,18,1006,-6,20,-3
3216,-81,34,1007,-13,26,1
3217,-140,17,978,-22,15,-1
3218,-110,-18,987,-22,-5,-5
3219,4,-63,999,-18,-23,-11
3220,92,-62,1003,-11,-21,-11
3221,133,-30,1000,-6,-6,-9
3222,39,11,1004,-4,17,-4
3223,-63,31,1004,-12,27,0
3224,-141,26,979,-23,19,1
3225,-116,-12,996,-25,-3,-5
3226,-23,-61,995,-23,-22,-11
3227,88,-62,998,-12,-23,-13
3228,131,-43,1001,-6,-9,-10
3229,57,6,1007,-6,15,-4
3230,-42,31,1004,-11,26,-1
3231,-138,31,977,-19,20,0
3232,-127,-6,996,-23,-1,-5
3233,-43,-51,994,-22,-21,-10
3234,77,-60,1008,-15,-24,-13
3235,133,-46,999,-8,-11,-12
3236,74,-1,1002,-4,12,-4
3237,-20,26,999,-12,24,-2
3238,-136,35,984,-19,24,1
3239,-128,-8,994,-24,4,-3
3240,-68,-48,989,-21,-17,-9
3241,66,-56,1004,-13,-26,-12
3242,129,-49,1011,-7,-15,-11
3243,89,-10,1003,-6,9,-5
3244,-1,28,994,-10,24,-2
3245,-122,33,991,-17,26,1
3246,-137,-5,989,-25,6,-3
3247,-81,-41,986,-24,-13,-8
3248,51,-61,1005,-14,-27,-11
3249,114,-56,1011,-7,-16,-12
3250,106,-13,1010,-6,4,-6
3251,13,26,996,-9,21,-3
3252,-108,33,993,-16,27,2
3253,-140,0,987,-23,9,-2
3254,-97,-31,984,-23,-11,-6
3255,38,-64,1007,-17,-26,-11
3256,101,-58,1003,-7,-19,-12
3257,120,-15,1004,-2,0,-8
3258,26,24,1008,-7,22,-2
3259,-94,33,1005,-15,28,1
3260,-140,10,978,-24,13,-2
3261,-107,-28,983,-23,-8,-5
3262,13,-61,1000,-17,-25,-11
3263,94,-63,1006,-10,-20,-12
3264,131,-22,1000,-5,-3,-9
3265,37,21,1006,-6,20,-3
3266,-71,35,1007,-15,27,1
3267,-143,14,977,-24,16,1
3268,-118,-21,989,-24,-5,-5
3269,-5,-70,998,-19,-24,-11
3270,91,-61,997,-10,-22,-12
3271,135,-29,1001,-3,-7,-10
3272,50,18,1012,-5,17,-3
3273,-55,36,1002,-14,27,1
3274,-144,26,979,-20,21,1
3275,-122,-18,996,-25,-3,-5
3276,-31,-67,998,-22,-22,-10
3277,84,-66,994,-11,-25,-12
3278,136,-40,1004,-5,-11,-11
3279,64,8,1005,-3,15,-4
3280,-36,41,1002,-10,27,-1
3281,-140,34,981,-21,23,1
3282,-128,-11,995,-25,1,-3
3283,-48,-58,996,-23,-20,-8
3284,78,-66,1008,-15,-24,-12
3285,130,-50,1003,-5,-11,-11
3286,83,-1,1000,-1,12,-6
3287,-22,32,999,-8,26,-2
3288,-132,43,989,-17,25,1
3289,-133,-4,993,-25,5,-3
3290,-72,-44,985,-25,-17,-8
3291,61,-63,1008,-15,-27,-12
3292,126,-57,1007,-6,-16,-12
3293,91,-13,1009,-3,9,-6
3294,0,28,993,-8,25,-3
3295,-124,40,990,-17,26,3
3296,-137,2,991,-24,6,-1
3297,-87,-39,982,-24,-14,-7
3298,51,-61,1002,-15,-27,-13
3299,116,-61,1010,-8,-18,-13
3300,110,-19,1010,-3,4,-7
3301,16,23,997,-7,22,-2
3302,-105,37,996,-16,27,2
3303,-142,8,985,-23,11,-1
3304,-95,-25,986,-25,-11,-5
3305,29,-61,1000,-19,-25,-10
3306,103,-64,1006,-11,-20,-13
3307,121,-20,1005,-4,-1,-8
3308,28,18,1004,-6,20,-5
3309,-93,35,1007,-13,28,0
3310,-144,11,978,-23,12,-1
3311,-107,-22,982,-22,-9,-5
3312,13,-62,1005,-17,-26,-11
3313,98,-65,1001,-10,-20,-13
3314,130,-26,1005,-4,-4,-9
3315,36,16,1006,-5,19,-3
3316,-72,31,1005,-12,27,1
3317,-143,19,978,-23,17,0
3318,-117,-19,991,-24,-4,-6
3319,-4,-64,998,-20,-24,-12
3320,93,-64,996,-12,-23,-12
3321,134,-30,1005,-3,-8,-10
3322,49,12,1007,-4,17,-4
3323,-58,29,1005,-12,28,0
3324,-141,25,977,-20,21,-1
3325,-122,-15,1000,-24,-1,-4
3326,-26,-58,995,-21,-23,-12
3327,86,-65,996,-11,-24,-13
3328,135,-37,1004,-5,-10,-11
3329,65,3,1004,-4,15,-4
3330,-35,34,1002,-9,26,0
3331,-141,32,980,-20,20,1
3332,-130,-7,994,-25,0,-3
3333,-51,-57,996,-22,-19,-10
3334,80,-60,1003,-13,-25,-13
3335,129,-45,1005,-5,-12,-11
3336,79,-2,999,-4,11,-6
3337,-22,29,1001,-10,24,-2
3338,-132,36,985,-18,24,3
3339,-132,-4,994,-24,4,-3
3340,-66,-44,990,-23,-17,-9
3341,59,-56,1006,-15,-26,-12
3342,130,-50,1011,-7,-16,-13
3343,90,-13,1008,-5,7,-5
3344,0,29,993,-9,24,-2
3345,-123,36,991,-17,26,3
3346,-137,-4,992,-23,7,-3
3347,-84,-39,982,-24,-13,-7
3348,49,-59,1004,-17,-26,-13
3349,116,-56,1014,-9,-18,-13
3350,109,-17,1010,-5,4,-7
3351,10,25,995,-8,23,-1
3352,-103,33,995,-16,26,1
3353,-142,0,987,-23,10,-2
3354,-97,-27,978,-24,-11,-5
3355,37,-64,1008,-18,-26,-12
3356,106,-57,1000,-8,-19,-11
3357,118,-15,1005,-3,1,-8
3358,26,24,1008,-9,21,-3
3359,-96,33,1003,-16,27,3
3360,-141,8,977,-24,13,0
3361,-104,-26,984,-24,-9,-5
3362,16,-61,1003,-18,-26,-10
3363,98,-58,1005,-10,-22,-11
3364,128,-20,1003,-6,-3,-8
3365,37,18,1008,-7,21,-4
3366,-81,31,1005,-15,27,1
3367,-141,15,979,-23,15,0
3368,-117,-22,991,-24,-5,-4
3369,0,-61,996,-18,-23,-12
3370,92,-65,1003,-11,-22,-13
3371,135,-27,1001,-4,-6,-10
3372,45,16,1009,-5,16,-4
3373,-59,33,1006,-11,24,0
3374,-144,24,981,-14,17,-1
3375,-122,-18,995,-14,-10,-9
3376,-24,-64,998,-21,-24,-11
3377,90,-64,993,-11,-24,-11
3378,136,-38,1002,-5,-10,-11
3379,60,8,1010,-4,14,-5
3380,-39,34,1003,-13,26,1
3381,-145,34,978,-21,23,1
3382,-129,-11,997,-24,0,-4
3383,-47,-58,994,-24,-20,-10
3384,79,-64,1000,-13,-26,-13
3385,139,-46,1005,-8,-12,-12
3386,78,2,1002,-3,12,-4
3387,-26,32,997,-10,25,-1
3388,-137,37,986,-22,24,2
3389,-134,-6,991,-24,4,-3
3390,-65,-53,990,-23,-17,-9
3391,68,-60,1010,-15,-28,-12
3392,130,-51,1004,-7,-16,-12
3393,87,-10,1007,-4,9,-6
3394,-6,29,993,-9,24,-2
3395,-129,40,993,-18,26,3
3396,-134,-1,990,-23,5,-3
3397,-85,-42,985,-24,-15,-8
3398,58,-58,1002,-14,-28,-13
3399,122,-57,1015,-9,-17,-13
3400,102,-13,1010,-4,6,-6
3401,4,26,992,-8,24,-2
3402,-114,34,991,-18,25,2
3403,-144,3,988,-22,9,-2
3404,-89,-34,984,-23,-12,-6
3405,46,-61,1005,-18,-26,-12
3406,111,-58,1009,-7,-18,-12
3407,112,-13,1006,-2,3,-8
3408,21,22,1002,-9,23,-2
3409,-107,32,998,-17,29,3
3410,-141,4,982,-24,13,0
3411,-102,-31,986,-25,-9,-7
3412,29,-60,1000,-19,-27,-13
3413,101,-62,1006,-12,-19,-13
3414,122,-18,1003,-2,-2,-8
3415,32,20,1009,-9,20,-3
3416,-88,34,1005,-15,27,1
3417,-146,14,977,-22,14,-2
3418,-111,-26,985,-24,-8,-6
3419,9,-65,999,-18,-25,-12
3420,99,-65,1004,-10,-21,-12
3421,132,-25,1005,-3,-4,-9
3422,41,18,1006,-6,18,-3
3423,-74,36,1004,-14,27,2
3424,-144,20,978,-23,16,1
3425,-118,-20,992,-26,-5,-3
3426,-6,-67,996,-19,-23,-11
3427,89,-66,997,-11,-24,-12
3428,141,-33,1004,-3,-8,-11
3429,49,12,1007,-4,16,-4
3430,-57,38,1003,-11,28,0
3431,-144,26,982,-22,20,1
3432,-126,-14,994,-25,-1,-3
3433,-29,-63,995,-24,-22,-10
3434,85,-64,998,-11,-25,-12
3435,140,-43,1003,-5,-10,-11
3436,64,5,1008,-4,15,-4
3437,-43,30,1003,-11,27,0
3438,-138,31,977,-20,22,0
3439,-136,-8,995,-25,0,-3
3440,-44,-52,992,-22,-21,-10
3441,76,-63,1006,-12,-25,-13
3442,135,-42,998,-6,-13,-11
3443,79,-4,1004,-3,11,-4
3444,-23,30,1000,-9,26,-1
3445,-132,36,981,-21,24,2
3446,-135,-8,995,-24,4,-4
3447,-67,-49,991,-22,-18,-10
3448,66,-63,1008,-15,-27,-13
3449,133,-50,1005,-6,-16,-13
3450,87,-7,1006,-4,10,-5
3451,-1,30,995,-9,24,-3
3452,-129,38,994,-19,27,3
3453,-134,-4,989,-25,7,-1
3454,-86,-43,983,-24,-15,-8
3455,58,-63,1003,-15,-27,-13
3456,123,-58,1015,-9,-16,-11
3457,101,-13,1005,-3,6,-5
3458,8,27,998,-7,24,-1
3459,-111,39,987,-18,27,3
3460,-143,1,992,-25,9,-1
3461,-95,-34,981,-25,-12,-8
3462,40,-65,1003,-16,-26,-12
3463,114,-58,1006,-9,-18,-12
3464,114,-18,1010,-3,1,-8
3465,24,27,999,-7,22,-3
3466,-104,38,998,-17,28,3
3467,-145,6,981,-24,13,-1
3468,-103,-30,987,-25,-9,-6
3469,29,-64,1000,-18,-28,-12
3470,101,-62,1004,-10,-20,-13
3471,126,-21,1002,-3,-2,-9
3472,31,19,1008,-6,20,-4
3473,-89,36,1004,-16,29,2
3474,-143,13,981,-22,14,-2
3475,-111,-21,982,-23,-7,-5
3476,8,-62,1001,-17,-27,-11
3477,97,-63,1006,-10,-23,-12
3478,132,-29,1001,-5,-4,-8
3479,43,15,1006,-4,20,-2
3480,-73,33,1006,-12,28,0
3481,-146,22,979,-23,17,0
3482,-117,-18,987,-24,-5,-5
3483,-8,-63,1001,-20,-24,-10
3484,92,-64,993,-11,-23,-13
3485,139,-34,1007,-5,-8,-11
3486,50,12,1008,-3,16,-4
3487,-59,32,1003,-12,28,1
3488,-141,23,984,-22,20,1
3489,-127,-16,995,-25,-2,-4
3490,-19,-59,992,-21,-22,-10
3491,86,-62,999,-10,-24,-12
3492,141,-36,1001,-5,-10,-11
3493,61,5,1012,-7,15,-5
3494,-43,35,999,-12,26,0
3495,-143,31,982,-21,23,2
3496,-129,-9,995,-24,0,-4
3497,-45,-59,994,-23,-20,-8
3498,82,-63,1000,-14,-25,-12
3499,136,-47,1002,-6,-11,-12
3500,73,3,1002,-4,11,-5
3501,-29,31,1003,-12,25,-1
3502,-139,37,981,-19,23,1
3503,-135,-8,993,-24,3,-4
3504,-62,-51,994,-22,-18,-10
3505,72,-63,1007,-13,-27,-11
3506,134,-51,999,-7,-14,-11
3507,85,-5,1004,-3,10,-4
3508,-12,29,994,-11,25,0
3509,-132,36,991,-21,25,3
3510,-135,-5,992,-25,6,-1
3511,-80,-45,983,-24,-16,-8
3512,63,-61,1005,-13,-27,-13
3513,127,-56,1011,-6,-14,-12
3514,96,-12,1003,-5,7,-7
3515,2,26,996,-9,24,-2
3516,-122,38,987,-16,26,3
3517,-141,0,992,-23,7,-3
3518,-91,-38,981,-24,-14,-8
3519,51,-60,1001,-16,-27,-11
3520,117,-58,1012,-8,-17,-12
3521,109,-13,1009,-4,3,-7
3522,16,23,995,-8,22,-2
3523,-111,38,992,-15,27,2
3524,-143,3,986,-24,11,-2
3525,-96,-28,986,-25,-10,-7
3526,34,-63,998,-17,-26,-12
3527,109,-60,1009,-8,-20,-13
3528,117,-20,1002,-5,0,-6
3529,28,24,1006,-6,20,-3
3530,-94,33,1004,-16,28,2
3531,-146,11,980,-25,13,0
3532,-107,-23,982,-25,-8,-5
3533,18,-66,1004,-19,-27,-10
3534,100,-63,1001,-10,-21,-13
3535,129,-24,1008,-5,-2,-10
3536,35,21,1004,-8,20,-3
3537,-80,33,1008,-12,28,1
3538,-145,18,974,-23,15,0
3539,-116,-24,986,-26,-7,-5
3540,2,-66,1002,-19,-25,-10
3541,97,-66,998,-11,-23,-12
3542,137,-26,1004,-4,-6,-10
3543,43,16,1005,-4,17,-3
3544,-67,34,1005,-13,28,1
3545,-144,19,980,-22,18,0
3546,-124,-17,994,-24,-3,-5
3547,-10,-61,993,-19,-24,-11
3548,87,-64,996,-9,-24,-12
3549,138,-33,999,-4,-10,-11
3550,52,10,1012,-4,17,-4
3551,-48,30,999,-12,26,1
3552,-144,29,983,-21,21,1
3553,-127,-13,995,-25,-2,-3
3554,-33,-59,992,-20,-22,-10
3555,85,-61,996,-12,-26,-14
3556,134,-38,1005,-6,-12,-12
3557,68,8,1006,-4,13,-5
3558,-33,32,1001,-12,27,0
3559,-143,33,978,-21,22,2
3560,-129,-11,995,-25,0,-4
3561,-55,-61,995,-23,-20,-10
3562,76,-60,1007,-12,-25,-12
3563,139,-50,1001,-7,-12,-13
3564,80,-2,998,-3,10,-5
3565,-17,33,1001,-9,25,0
3566,-134,38,990,-19,24,2
3567,-140,-5,989,-27,3,-2
3568,-67,-50,992,-23,-17,-10
3569,65,-61,1007,-14,-27,-12
3570,132,-52,1002,-7,-16,-11
3571,91,-11,1008,-3,8,-6
3572,-5,26,992,-8,24,-1
3573,-122,37,991,-19,27,3
3574,-141,-1,991,-25,6,-2
3575,-85,-42,983,-24,-15,-7
3576,58,-59,1004,-14,-28,-12
3577,118,-56,1013,-8,-17,-11
3578,105,-13,1007,-4,5,-6
3579,8,28,996,-6,23,-3
3580,-114,42,986,-16,27,2
3581,-144,0,992,-24,10,-2
3582,-94,-31,985,-26,-12,-8
3583,42,-60,1001,-18,-26,-12
3584,111,-57,1010,-7,-19,-13
3585,114,-15,1008,-3,2,-6
3586,23,23,1002,-8,21,-2
3587,-104,28,999,-16,28,3
3588,-142,2,980,-21,13,0
3589,-99,-29,982,-24,-10,-6
3590,24,-60,1002,-16,-28,-11
3591,103,-59,1003,-7,-21,-13
3592,125,-18,1006,-3,-1,-9
3593,31,20,1004,-6,21,-1
3594,-86,32,1010,-15,29,2
3595,-145,8,979,-23,15,0
3596,-112,-22,980,-22,-6,-6
3597,11,-63,1004,-17,-25,-12
3598,97,-59,1005,-10,-21,-13
3599,133,-19,1001,-4,-5,-9
3600,44,18,1006,-6,19,-3
3601,-73,36,1009,-14,28,1
3602,-141,18,978,-23,18,0
3603,-123,-20,988,-26,-4,-4
3604,-4,-64,998,-20,-24,-11
3605,90,-64,1000,-12,-23,-12
3606,139,-29,997,-4,-6,-10
3607,48,13,1010,-7,17,-4
3608,-56,37,1002,-15,28,0
3609,-144,25,981,-23,20,1
3610,-125,-16,995,-27,-2,-4
3611,-29,-64,997,-20,-22,-10
3612,90,-67,992,-11,-25,-12
3613,134,-43,1008,-3,-9,-11
3614,66,7,1005,-3,14,-5
3615,-40,30,1007,-9,27,-1
3616,-142,36,976,-19,22,2
3617,-132,-9,998,-24,0,-3
3618,-43,-58,993,-22,-20,-10
3619,77,-64,1002,-13,-25,-12
3620,143,-46,1002,-4,-13,-12
3621,74,-3,1005,-2,12,-3
3622,-27,31,999,-10,26,0
3623,-137,39,987,-19,24,2
3624,-134,-6,992,-24,3,-3
3625,-65,-52,995,-22,-19,-9
3626,71,-65,1004,-14,-27,-12
3627,134,-53,1005,-6,-15,-12
3628,88,-7,1002,-2,10,-4
3629,-8,34,997,-8,26,-3
3630,-128,44,990,-18,27,2
3631,-137,-1,992,-24,6,-2
3632,-79,-42,983,-22,-16,-8
3633,58,-63,1003,-15,-27,-13
3634,126,-57,1011,-7,-15,-11
3635,99,-19,1009,-4,7,-6
3636,8,33,993,-9,22,-2
3637,-116,38,991,-17,27,2
3638,-141,5,990,-24,8,-2
3639,-94,-36,983,-25,-13,-7
3640,48,-62,1000,-16,-27,-11
3641,114,-61,1012,-9,-17,-12
3642,111,-12,1010,-3,2,-8
3643,20,22,996,-8,22,-2
3644,-110,34,995,-17,29,2
3645,-143,4,985,-23,12,-2
3646,-104,-31,984,-24,-10,-7
3647,33,-62,1003,-16,-28,-12
3648,106,-63,1005,-9,-20,-13
3649,124,-18,1005,-2,-1,-9
3650,33,23,1008,-6,21,-2
3651,-93,34,1005,-15,28,2
3652,-147,11,977,-21,15,0
3653,-108,-22,985,-23,-8,-5
3654,15,-64,1002,-20,-26,-12
3655,101,-62,1003,-11,-21,-13
3656,132,-24,1006,-4,-4,-9
3657,39,19,1005,-5,20,-4
3658,-79,34,1008,-13,28,0
3659,-146,21,979,-22,15,0
3660,-116,-16,986,-26,-4,-5
3661,-1,-64,999,-20,-23,-10
3662,95,-62,1001,-11,-23,-13
3663,135,-32,1003,-6,-7,-11
3664,50,15,1006,-5,17,-4
3665,-65,30,1004,-12,28,1
3666,-145,23,977,-20,19,0
3667,-124,-17,996,-25,-3,-4
3668,-19,-61,994,-21,-22,-9
3669,89,-62,997,-10,-23,-12
3670,141,-36,1002,-5,-10,-11
3671,58,9,1008,-5,14,-5
3672,-43,33,1002,-11,26,0
3673,-143,29,978,-20,22,2
3674,-127,-11,994,-24,0,-3
3675,-41,-57,996,-21,-20,-10
3676,80,-62,998,-12,-25,-14
3677,139,-45,1004,-7,-12,-11
3678,74,3,1005,-3,12,-5
3679,-29,33,1001,-11,25,0
3680,-139,34,984,-19,23,3
3681,-135,-8,990,-25,3,-3
3682,-59,-52,996,-24,-21,-10
3683,77,-64,1007,-13,-26,-11
3684,132,-46,999,-5,-14,-11
3685,86,-2,1003,-3,10,-4
3686,-16,34,1000,-10,26,-1
3687,-130,42,984,-20,25,2
3688,-137,-9,994,-26,5,-2
3689,-72,-51,984,-24,-17,-9
3690,62,-63,1005,-15,-28,-11
3691,126,-56,1014,-7,-17,-11
3692,97,-13,1005,-3,7,-6
3693,0,29,997,-8,25,-2
3694,-123,38,989,-17,27,2
3695,-141,-2,994,-25,7,-3
3696,-89,-42,982,-24,-14,-8
3697,50,-66,1004,-15,-28,-13
3698,120,-59,1013,-8,-17,-13
3699,111,-16,1005,-2,5,-7
3700,16,31,999,-6,23,-2
3701,-110,42,989,-16,29,3
3702,-146,8,987,-25,10,0
3703,-97,-31,984,-26,-11,-7
3704,35,-64,1002,-19,-25,-11
3705,108,-64,1002,-8,-20,-12
3706,119,-16,1005,-2,0,-7
3707,27,26,1004,-7,21,-3
3708,-96,39,1002,-16,28,2
3709,-147,10,981,-24,13,-1
3710,-106,-28,983,-25,-7,-6
3711,24,-69,1005,-19,-27,-12
3712,100,-66,1002,-16,-23,-12
3713,129,-24,1008,-3,-2,-8
3714,36,17,1006,-7,20,-3
3715,-85,35,1009,-13,28,2
3716,-144,17,976,-21,16,-1
3717,-114,-20,986,-25,-5,-5
3718,1,-62,999,-19,-25,-9
3719,95,-61,1004,-11,-23,-13
3720,134,-30,1001,-5,-6,-9
3721,46,14,1006,-5,18,-2
3722,-67,34,1003,-13,28,0
3723,-143,23,981,-24,18,0
3724,-124,-13,991,-24,-3,-4
3725,-10,-62,996,-22,-23,-12
3726,91,-62,996,-11,-24,-12
3727,138,-37,1001,-5,-9,-11
3728,52,9,1010,-6,16,-4
3729,-47,28,1001,-11,27,-1
3730,-142,30,981,-20,21,1
3731,-128,-10,995,-24,-2,-4
3732,-32,-55,994,-21,-22,-11
3733,79,-58,998,-14,-24,-12
3734,141,-39,1005,-5,-11,-11
3735,66,4,1004,-7,14,-4
3736,-35,27,1001,-13,26,0
3737,-140,28,983,-21,23,1
3738,-134,-13,993,-25,2,-4
3739,-56,-56,996,-22,-20,-10
3740,79,-66,1009,-14,-26,-13
3741,133,-50,1004,-5,-12,-10
3742,85,-6,1001,-3,12,-5
3743,-18,26,1000,-8,27,-1
3744,-136,39,986,-17,27,3
3745,-133,0,989,-23,4,-3
3746,-69,-42,989,-22,-17,-9
3747,62,-50,1003,-15,-26,-12
3748,132,-46,1007,-9,-16,-12
3749,92,-10,1005,-5,8,-5
3750,-2,27,990,-12,24,-2
3751,-126,37,992,-20,27,0
3752,-137,-4,994,-26,7,-3
3753,-86,-41,983,-26,-13,-8
3754,53,-65,1004,-16,-26,-12
3755,118,-63,1014,-7,-17,-12
3756,109,-23,1007,-3,4,-8
3757,9,25,994,-6,23,-2
3758,-107,40,993,-14,26,1
3759,-142,9,988,-21,9,-3
3760,-94,-26,985,-26,-12,-6
3761,42,-60,1001,-19,-26,-13
3762,111,-64,1006,-9,-19,-13
3763,115,-21,1004,-2,-1,-8
3764,23,18,1005,-7,22,-2
3765,-102,33,998,-13,27,2
3766,-144,12,982,-22,13,-2
3767,-109,-24,984,-23,-8,-6
3768,22,-61,1001,-18,-27,-11
3769,103,-61,1006,-8,-21,-12
3770,128,-22,1002,-4,-2,-10
3771,36,22,1008,-8,20,-3
3772,-85,30,1006,-15,28,1
3773,-143,16,978,-23,15,0
3774,-110,-24,983,-25,-6,-5
3775,6,-60,1003,-18,-26,-11
3776,97,-63,1000,-11,-23,-13
3777,132,-27,1004,-6,-5,-10
3778,43,13,1004,-6,19,-1
3779,-74,30,1003,-13,27,1
3780,-144,17,980,-21,16,1
3781,-121,-15,991,-23,-5,-2
3782,-8,-62,998,-19,-25,-12
3783,93,-63,995,-12,-24,-13
3784,137,-30,1001,-5,-7,-11
3785,53,11,1009,-7,16,-5
3786,-54,32,1002,-12,28,1
3787,-143,28,980,-21,20,0
3788,-124,-13,997,-25,-1,-2
3789,-27,-61,995,-20,-22,-10
3790,85,-65,996,-11,-26,-12
3791,139,-41,1005,-5,-11,-11
3792,66,6,1004,-4,14,-5
3793,-38,30,1004,-10,28,-1
3794,-142,33,976,-21,21,2
3795,-132,-9,994,-24,1,-3
3796,-47,-58,996,-21,-19,-10
3797,79,-60,1004,-12,-25,-13
3798,137,-43,1006,-7,-13,-12
3799,79,0,999,-3,11,-5
3800,-23,33,1001,-11,25,-2
3801,-135,36,985,-21,26,1
3802,-133,-11,991,-27,4,-4
3803,-68,-53,988,-23,-18,-9
3804,68,-59,1006,-14,-26,-13
3805,134,-54,1007,-6,-16,-13
3806,91,-7,1004,-4,9,-5
3807,-5,29,1000,-8,24,-1
3808,-127,38,988,-18,26,2
3809,-139,-3,991,-26,6,-3
3810,-84,-40,981,-22,-15,-8
3811,53,-62,1004,-14,-27,-12
3812,124,-58,1012,-6,-17,-13
3813,106,-12,1012,-5,6,-7
3814,9,29,992,-7,25,-2
3815,-114,35,992,-15,28,2
3816,-141,-2,991,-24,8,-2
3817,-97,-33,983,-25,-11,-6
3818,43,-64,1001,-17,-27,-12
3819,110,-61,1011,-8,-19,-13
3820,117,-17,1006,-4,1,-7
3821,23,25,1006,-7,21,-2
3822,-101,36,998,-16,28,3
3823,-143,5,983,-22,13,0
3824,-105,-28,982,-25,-8,-6
3825,26,-64,1005,-18,-27,-12
3826,105,-61,1001,-8,-21,-12
3827,125,-19,1005,-2,-2,-8
3828,36,21,1010,-7,19,-3
3829,-86,36,1006,-15,28,1
3830,-145,16,977,-23,14,0
3831,-109,-25,987,-25,-6,-5
3832,8,-66,997,-19,-25,-11
3833,96,-64,1006,-10,-21,-12
3834,130,-24,1002,-4,-5,-10
3835,41,19,1006,-5,18,-4
3836,-72,34,1006,-13,27,1
3837,-149,23,977,-23,16,0
3838,-116,-19,989,-27,-4,-5
3839,-8,-68,1000,-20,-24,-13
3840,89,-62,993,-11,-22,-12
3841,137,-33,1005,-3,-7,-10
3842,53,15,1008,-4,17,-3
3843,-54,35,1000,-13,26,0
3844,-144,28,980,-22,19,-1
3845,-124,-13,998,-25,-3,-4
3846,-30,-62,991,-24,-22,-10
3847,84,-68,1002,-11,-25,-12
3848,137,-42,1001,-5,-11,-11
3849,67,8,1009,-5,14,-3
3850,-38,35,1001,-11,27,1
3851,-143,36,980,-20,21,2
3852,-128,-10,994,-26,1,-3
3853,-54,-56,996,-23,-20,-8
3854,76,-63,1005,-12,-24,-12
3855,137,-48,1002,-7,-13,-12
3856,78,-1,1002,-2,11,-5
3857,-19,34,1000,-9,24,0
3858,-133,37,987,-20,23,2
3859,-134,-2,990,-25,3,-2
3860,-70,-49,991,-24,-17,-9
3861,66,-63,1006,-15,-27,-12
3862,127,-53,1007,-7,-16,-12
3863,94,-10,1005,-4,9,-6
3864,-3,27,996,-7,25,-2
3865,-120,40,990,-17,26,2
3866,-141,-1,992,-23,6,-2
3867,-83,-38,983,-23,-15,-7
3868,51,-63,1003,-16,-27,-12
3869,118,-54,1010,-8,-17,-13
3870,106,-15,1013,-3,4,-7
3871,10,24,991,-8,23,-3
3872,-112,36,994,-17,26,2
3873,-140,2,989,-22,10,-2
3874,-97,-32,984,-23,-11,-7
3875,42,-61,1002,-17,-26,-12
3876,108,-59,1009,-9,-19,-13
3877,117,-14,1003,-4,0,-8
3878,21,22,1006,-7,22,-2
3879,-98,30,1000,-16,28,2
3880,-146,3,983,-22,13,0
3881,-104,-23,983,-24,-10,-6
3882,22,-66,1004,-18,-26,-12
3883,99,-57,1002,-8,-22,-13
3884,125,-20,1005,-4,-3,-9
3885,35,21,1009,-6,20,-3
3886,-81,33,1008,-12,28,0
3887,-144,14,974,-23,15,0
3888,-114,-23,986,-25,-8,-5
3889,3,-66,999,-18,-24,-12
3890,93,-63,1002,-10,-20,-13
3891,136,-24,1006,-3,-5,-10
3892,44,19,1003,-5,20,-2
3893,-69,34,1006,-15,28,1
3894,-145,20,982,-23,18,0
3895,-122,-21,990,-26,-2,-4
3896,-12,-65,998,-19,-24,-12
3897,91,-63,1000,-11,-23,-13
3898,135,-34,999,-3,-9,-10
3899,57,12,1010,-6,16,-3
3900,-51,34,1005,-13,27,1
3901,-140,32,976,-23,20,1
3902,-126,-13,997,-25,-1,-4
3903,-33,-59,995,-23,-22,-9
3904,84,-65,996,-11,-25,-13
3905,135,-42,1004,-4,-11,-11
3906,66,3,1005,-3,13,-4
3907,-32,33,1002,-9,26,-1
3908,-137,39,980,-20,21,3
3909,-131,-7,993,-24,1,-4
3910,-55,-56,997,-23,-19,-9
3911,72,-64,1004,-15,-25,-12
3912,136,-50,1006,-6,-12,-12
3913,85,-9,1000,-3,11,-4
3914,-18,34,998,-8,25,-1
3915,-129,39,991,-18,26,0
3916,-138,-1,993,-24,6,-2
3917,-73,-44,986,-23,-16,-7
3918,65,-62,1005,-16,-25,-13
3919,128,-53,1006,-7,-16,-12
3920,94,-13,1009,-3,8,-5
3921,0,29,993,-7,24,-2
3922,-124,38,990,-17,27,2
3923,-142,1,992,-24,7,-3
3924,-84,-38,981,-25,-13,-8
3925,48,-60,1002,-16,-25,-12
3926,117,-61,1009,-9,-18,-13
3927,112,-17,1009,-4,4,-8
3928,11,29,994,-7,23,-2
3929,-104,37,993,-16,28,2
3930,-145,3,990,-24,11,-2
3931,-98,-28,977,-24,-11,-6
3932,32,-63,1004,-19,-26,-12
3933,105,-62,1006,-10,-20,-13
3934,121,-17,998,-4,0,-8
3935,28,23,1007,-8,22,-2
3936,-92,35,1006,-15,28,2
3937,-142,12,973,-23,12,-2
3938,-109,-23,984,-23,-9,-5
3939,13,-64,1005,-18,-26,-10
3940,101,-63,999,-10,-21,-13
3941,125,-24,1009,-3,-3,-9
3942,40,19,1006,-7,19,-3
3943,-78,32,1009,-14,28,2
3944,-147,18,973,-22,16,0
3945,-111,-16,992,-23,-4,-5
3946,-2,-66,998,-19,-24,-11
3947,91,-60,997,-12,-23,-12
3948,135,-32,1006,-4,-8,-10
3949,45,14,1005,-6,17,-3
3950,-60,31,1004,-13,28,0
3951,-141,24,983,-23,20,1
3952,-122,-20,993,-24,-1,-3
3953,-24,-60,994,-20,-22,-11
3954,86,-62,998,-12,-25,-12
3955,136,-38,1001,-4,-10,-10
3956,61,5,1009,-6,14,-3
3957,-43,32,1004,-11,27,1
3958,-140,29,978,-20,22,1
3959,-126,-12,995,-25,1,-3
3960,-46,-59,996,-21,-21,-9
3961,81,-63,1004,-11,-26,-13
3962,136,-43,1000,-6,-12,-11
3963,75,1,1002,-4,12,-6
3964,-25,32,1000,-11,24,-2
3965,-141,38,982,-21,23,3
3966,-131,-10,990,-25,3,-2
3967,-64,-52,995,-23,-17,-9
3968,73,-61,1001,-14,-27,-13
3969,131,-50,1009,-6,-15,-12
3970,87,-6,1003,-5,7,-5
3971,-6,28,996,-8,25,-1
3972,-126,41,990,-19,27,3
3973,-137,-3,994,-26,7,-1
3974,-81,-44,980,-22,-14,-8
3975,56,-62,1005,-16,-27,-11
3976,122,-59,1012,-7,-16,-12
3977,103,-13,1011,-4,7,-5
3978,7,32,993,-8,23,-1
3979,-111,38,991,-16,26,2
3980,-143,2,991,-23,9,-2
3981,-94,-31,982,-25,-12,-6
3982,42,-66,1006,-16,-25,-12
3983,108,-67,1006,-10,-19,-12
3984,117,-21,1008,-3,1,-7
3985,22,22,1001,-6,21,-3
3986,-103,35,1001,-15,27,2
3987,-142,12,980,-22,13,-1
3988,-102,-23,982,-23,-8,-5
3989,25,-61,1004,-17,-27,-12
3990,97,-64,1002,-9,-20,-12
3991,126,-23,1003,-5,-1,-7
3992,32,18,1009,-8,20,-4
3993,-81,33,1005,-14,27,0
3994,-144,13,978,-23,15,0
3995,-112,-16,981,-23,-6,-5
3996,3,-65,1005,-19,-25,-12
3997,96,-63,998,-11,-21,-13
3998,131,-29,1002,-4,-4,-9
3999,44,18,1006,-6,18,-3
4000,-68,31,1005,-13,27,2
4001,-139,22,974,-23,17,0
4002,-121,-16,997,-25,-3,-4
4003,-14,-61,995,-22,-23,-11
4004,87,-66,996,-12,-26,-12
4005,137,-32,1002,-2,-10,-11
4006,56,9,1013,-6,16,-4
4007,-49,33,1003,-12,29,1
4008,-141,30,978,-20,21,1
4009,-128,-14,1002,-25,0,-4
4010,-37,-61,992,-21,-23,-10
4011,80,-61,1005,-11,-25,-12
4012,135,-43,999,-6,-12,-11
4013,68,0,1007,-4,13,-4
4014,-27,30,999,-10,25,0
4015,-140,36,985,-19,22,1
4016,-130,-9,992,-26,2,-4
4017,-55,-54,995,-22,-17,-11
4018,69,-61,1007,-15,-26,-12
4019,133,-46,1005,-6,-14,-11
4020,83,-9,1002,-3,11,-5
4021,-11,28,995,-9,25,-2
4022,-129,39,991,-18,25,2
4023,-135,-4,989,-23,5,-2
4024,-77,-45,984,-23,-15,-8
4025,61,-57,1003,-14,-27,-12
4026,122,-57,1011,-8,-15,-12
4027,100,-11,1009,-2,6,-6
4028,2,27,992,-7,24,-2
4029,-112,37,989,-17,25,2
4030,-136,0,990,-24,7,-2
4031,-88,-34,982,-23,-12,-7
4032,46,-61,1005,-17,-26,-12
4033,111,-59,1010,-8,-18,-13
4034,112,-16,1006,-3,3,-8
4035,23,23,1002,-8,22,-3
4036,-103,35,999,-17,27,2
4037,-145,6,980,-23,12,-1
4038,-101,-27,989,-25,-9,-6
4039,24,-64,1002,-18,-24,-12
4040,101,-61,999,-9,-18,-13
4041,125,-22,1008,-4,-2,-9
4042,32,22,1003,-7,21,-4
4043,-89,35,1005,-16,30,2
4044,-146,11,980,-23,14,-1
4045,-108,-24,981,-25,-6,-5
4046,8,-66,1000,-20,-24,-11
4047,98,-64,1005,-10,-22,-12
4048,133,-27,1003,-5,-4,-9
4049,40,18,1004,-4,19,-3
4050,-73,34,1007,-14,27,0
4051,-140,22,980,-23,17,-1
4052,-119,-18,992,-26,-5,-5
4053,-13,-64,997,-19,-25,-13
4054,96,-67,1000,-20,-32,-14
4055,133,-35,998,-5,-10,-11
4056,53,10,1010,-6,16,-5
4057,-49,32,1006,-11,27,0
4058,-144,31,975,-21,20,1
4059,-126,-7,999,-25,-2,-4
4060,-30,-63,997,-21,-22,-12
4061,80,-63,996,-12,-24,-12
4062,137,-42,1002,-5,-10,-11
4063,66,0,1008,-5,13,-4
4064,-30,32,997,-11,25,-1
4065,-141,34,984,-19,23,2
4066,-129,-6,995,-24,2,-3
4067,-57,-52,995,-22,-19,-9
4068,72,-60,1005,-15,-26,-12
4069,134,-51,1004,-8,-15,-11
4070,84,-8,1001,-3,10,-5
4071,-16,27,996,-8,25,-2
4072,-131,37,992,-20,24,2
4073,-136,-3,991,-24,5,-2
4074,-75,-42,985,-22,-16,-8
4075,61,-56,1007,-16,-27,-13
4076,125,-55,1009,-8,-15,-12
4077,101,-12,1009,-5,6,-5
4078,3,28,993,-9,24,-1
4079,-121,36,989,-16,26,2
4080,-142,0,992,-24,6,-2
4081,-89,-36,983,-26,-15,-7
4082,48,-63,1003,-17,-27,-11
4083,115,-59,1012,-10,-16,-12
4084,109,-17,1007,-3,3,-7
4085,18,27,1000,-7,23,-2
4086,-107,33,996,-17,26,3
4087,-142,9,982,-24,10,-1
4088,-101,-28,987,-25,-10,-5
4089,32,-64,1001,-18,-26,-11
4090,104,-67,1007,-9,-19,-13
4091,123,-20,1001,-1,-1,-8
4092,28,23,1010,-6,22,-3
4093,-85,34,1006,-14,28,1
4094,-149,14,978,-23,15,1
4095,-107,-18,981,-26,-7,-6
4096,7,-67,1008,-18,-25,-11
4097,98,-62,1000,-11,-21,-11
4098,127,-30,1006,-4,-3,-9
4099,38,20,1007,-6,19,-3
4100,-68,32,1006,-12,27,0
4101,-148,24,980,-21,17,0
4102,-114,-17,995,-24,-4,-5
4103,-7,-62,999,-21,-23,-11
4104,91,-66,994,-13,-24,-12
4105,132,-30,1003,-5,-8,-10
4106,54,9,1008,-5,17,-4
4107,-53,31,1007,-12,27,0
4108,-143,30,978,-22,20,1
4109,-123,-9,1000,-24,-1,-4
4110,-32,-60,993,-22,-22,-10
4111,83,-61,1000,-12,-23,-13
4112,135,-41,1000,-5,-11,-12
4113,67,1,1007,-5,13,-5
4114,-33,30,999,-9,26,0
4115,-138,35,983,-18,22,1
4116,-127,-6,994,-24,2,-3
4117,-56,-53,992,-22,-18,-9
4118,71,-60,1007,-15,-25,-12
4119,132,-51,1004,-7,-13,-12
4120,79,-6,1000,-4,10,-4
4121,-13,29,996,-9,24,0
4122,-126,38,990,-19,25,2
4123,-136,-5,991,-24,5,-2
4124,-72,-45,984,-23,-16,-9
4125,59,-62,1005,-14,-27,-13
4126,125,-54,1011,-7,-15,-12
4127,93,-15,1012,-4,7,-7
4128,1,30,990,-7,24,-3
4129,-117,35,992,-16,26,2
4130,-137,-1,991,-24,7,-3
4131,-88,-34,983,-22,-12,-7
4132,49,-61,1002,-16,-27,-11
4133,110,-61,1009,-9,-18,-12
4134,111,-13,1006,-3,3,-6
4135,17,20,1002,-8,22,-2
4136,-104,35,998,-16,27,1
4137,-141,7,983,-23,11,-2
4138,-94,-25,984,-25,-10,-6
4139,26,-63,1004,-18,-28,-12
4140,102,-60,1002,-9,-21,-13
4141,120,-25,1005,-3,-1,-9
4142,29,19,1003,-6,21,-3
4143,-86,33,1006,-14,27,1
4144,-143,15,979,-24,13,-1
4145,-107,-20,981,-25,-7,-5
4146,7,-64,1004,-19,-24,-11
4147,93,-64,1000,-10,-21,-12
4148,130,-27,1004,-4,-5,-10
4149,44,13,1004,-4,18,-4
4150,-68,32,1004,-13,27,2
4151,-141,23,979,-21,19,0
4152,-121,-14,994,-24,-3,-4
4153,-9,-61,996,-21,-23,-10
4154,90,-62,997,-12,-23,-11
4155,132,-35,1002,-6,-8,-9
4156,56,6,1011,-5,16,-4
4157,-49,30,1001,-12,27,0
4158,-139,30,979,-19,22,2
4159,-125,-7,997,-23,-1,-4
4160,-36,-58,995,-23,-22,-11
4161,80,-60,1002,-13,-24,-13
4162,135,-43,1002,-7,-12,-11
4163,69,-2,1004,-4,11,-5
4164,-29,31,1001,-8,24,0
4165,-136,34,983,-20,22,2
4166,-129,-5,994,-23,3,-3
4167,-61,-49,992,-22,-18,-9
4168,69,-63,1008,-15,-26,-12
4169,130,-53,1005,-6,-13,-11
4170,82,-8,1001,-4,9,-4
4171,-10,29,997,-8,24,-2
4172,-123,36,989,-16,25,2
4173,-132,-2,992,-25,5,-2
4174,-79,-43,984,-25,-15,-8
4175,58,-61,1005,-16,-26,-11
4176,117,-54,1008,-9,-15,-13
4177,96,-14,1013,-5,6,-8
4178,8,26,991,-9,23,-4
4179,-115,36,992,-16,26,3
4180,-139,0,988,-23,8,-2
4181,-89,-34,987,-24,-12,-7
4182,44,-56,1003,-17,-25,-11
4183,107,-59,1006,-10,-18,-12
4184,115,-19,1007,-3,1,-8
4185,20,22,1003,-8,22,-2
4186,-98,35,1000,-16,29,3
4187,-143,6,981,-23,13,-2
4188,-100,-24,984,-24,-10,-5
4189,19,-63,1000,-17,-26,-11
4190,104,-63,1007,-9,-21,-13
4191,123,-21,1003,-4,-2,-8
4192,33,21,1006,-7,20,-4
4193,-79,31,1011,-15,27,1
4194,-142,16,974,-22,16,1
4195,-111,-22,988,-25,-5,-6
4196,2,-65,1005,-18,-24,-13
4197,92,-63,997,-12,-21,-12
4198,132,-28,1001,-5,-7,-9
4199,43,14,1012,-6,15,-3
4200,-61,29,1002,-12,26,1
4201,-143,25,981,-22,19,0
4202,-118,-12,997,-24,-3,-4
4203,-23,-60,994,-21,-23,-11
4204,89,-63,996,-11,-24,-13
4205,132,-38,1005,-4,-9,-11
4206,59,4,1005,-5,15,-5
4207,-39,29,1006,-9,26,-1
4208,-141,36,976,-19,20,2
4209,-123,-9,994,-25,0,-3
4210,-44,-58,999,-22,-20,-10
4211,78,-61,1000,-13,-25,-12
4212,135,-43,1003,-6,-12,-12
4213,73,-2,1003,-2,11,-5
4214,-24,31,993,-11,25,0
4215,-131,34,990,-20,23,0
4216,-133,-3,995,-26,4,-2
4217,-67,-49,987,-23,-17,-9
4218,63,-61,1005,-15,-26,-11
4219,127,-53,1010,-7,-15,-12
4220,92,-10,1003,-4,8,-7
4221,-6,30,993,-8,25,-2
4222,-117,40,990,-18,25,2
4223,-142,-5,991,-24,6,-2
4224,-85,-34,977,-23,-15,-7
4225,51,-66,1011,-16,-25,-13
4226,114,-56,1007,-9,-15,-13
4227,103,-13,1010,-4,5,-7
4228,13,27,998,-8,22,-3
4229,-111,34,995,-16,26,2
4230,-142,6,985,-22,10,-2
4231,-95,-29,989,-26,-12,-7
4232,33,-61,1000,-17,-27,-12
4233,105,-62,1005,-9,-20,-12
4234,117,-18,1003,-3,0,-8
4235,28,22,1008,-7,20,-3
4236,-93,31,1005,-16,26,2
4237,-142,15,977,-22,12,-1
4238,-103,-22,982,-25,-8,-6
4239,7,-65,1001,-18,-26,-12
4240,102,-61,1005,-11,-22,-11
4241,125,-25,1004,-5,-3,-9
4242,33,19,1002,-5,20,-3
4243,-72,33,1007,-14,26,0
4244,-143,19,976,-24,16,0
4245,-112,-20,993,-26,-4,-5
4246,-8,-66,999,-19,-23,-11
4247,90,-63,991,-12,-22,-13
4248,134,-28,1006,-4,-6,-10
4249,50,8,1009,-5,17,-4
4250,-53,32,1006,-12,27,1
4251,-140,29,977,-21,19,1
4252,-125,-12,999,-23,-3,-4
4253,-31,-62,993,-22,-22,-11
4254,81,-64,1002,-13,-23,-12
4255,133,-41,1001,-4,-11,-11
4256,65,0,1007,-4,13,-4
4257,-34,32,998,-10,26,0
4258,-138,36,982,-20,22,2
4259,-128,-6,994,-25,2,-3
4260,-57,-53,993,-24,-19,-8
4261,71,-60,1006,-14,-26,-12
4262,129,-50,1001,-7,-15,-12
4263,83,-6,1004,-5,8,-5
4264,-16,29,991,-9,25,-2
4265,-125,38,991,-18,24,1
4266,-133,-3,994,-25,4,-3
4267,-75,-40,979,-24,-16,-7
4268,61,-60,1005,-15,-27,-11
4269,118,-57,1012,-8,-16,-12
4270,98,-13,1006,-6,6,-6
4271,4,26,995,-7,25,-2
4272,-116,38,987,-16,26,3
4273,-138,1,992,-24,7,-2
4274,-89,-31,987,-25,-12,-7
4275,46,-62,1002,-18,-27,-12
4276,111,-62,1007,-9,-18,-13
4277,110,-15,1007,-2,2,-7
4278,21,22,1001,-7,22,-3
4279,-99,32,1003,-15,28,1
4280,-141,8,979,-22,13,0
4281,-98,-24,983,-24,-8,-7
4282,21,-62,1006,-17,-26,-12
4283,99,-61,1002,-9,-20,-13
4284,123,-21,1005,-3,-1,-9
4285,32,17,1006,-9,20,-3
4286,-80,31,1005,-14,26,1
4287,-140,15,975,-23,14,-1
4288,-112,-18,989,-25,-7,-4
4289,0,-63,998,-20,-24,-10
4290,95,-64,1003,-11,-22,-13
4291,128,-29,1000,-5,-5,-9
4292,44,16,1006,-4,17,-3
4293,-61,27,1006,-13,27,2
4294,-142,25,976,-21,19,1
4295,-117,-15,1000,-23,-3,-4
4296,-24,-60,992,-22,-22,-10
4297,87,-64,998,-12,-24,-11
4298,134,-40,1004,-5,-10,-10
4299,57,5,1006,-5,15,-2
4300,-40,30,1002,-13,25,0
4301,-142,32,977,-20,21,1
4302,-125,-9,995,-23,-2,-4
4303,-47,-56,997,-21,-20,-10
4304,77,-61,1004,-13,-24,-12
4305,133,-44,1003,-7,-13,-11
4306,73,-2,1001,-5,13,-3
4307,-19,29,999,-8,25,0
4308,-135,34,987,-19,23,3
4309,-130,-6,993,-25,5,-2
4310,-69,-51,990,-23,-16,-8
4311,65,-58,1004,-14,-27,-11
4312,125,-56,1012,-8,-15,-13
4313,94,-8,1008,-3,9,-4
4314,-1,28,992,-8,25,-1
4315,-120,38,992,-18,25,2
4316,-140,-5,991,-24,6,-2
4317,-85,-39,984,-24,-13,-9
4318,50,-65,1003,-16,-25,-12
4319,117,-56,1009,-8,-16,-12
4320,104,-13,1009,-4,6,-6
4321,14,27,997,-7,23,-1
4322,-106,36,998,-16,27,3
4323,-142,7,981,-25,11,-2
4324,-96,-31,987,-25,-10,-7
4325,32,-64,1004,-19,-28,-12
4326,101,-63,1001,-9,-20,-11
4327,124,-17,1007,-1,-1,-8
4328,25,22,1007,-7,23,-1
4329,-86,38,1006,-13,27,1
4330,-144,12,979,-23,12,-1
4331,-107,-23,981,-27,-7,-5
4332,11,-71,1002,-19,-25,-12
4333,94,-65,1000,-11,-20,-13
4334,132,-32,1004,-3,-3,-10
4335,36,18,1008,-5,19,-4
4336,-69,38,1002,-12,26,1
4337,-140,26,982,-22,15,-2
4338,-117,-16,995,-26,-4,-5
4339,-12,-61,994,-22,-24,-12
4340,90,-68,998,-12,-24,-13
4341,131,-39,1000,-3,-8,-10
4342,57,5,1010,-4,16,-4
4343,-48,34,1004,-11,27,0
4344,-141,32,978,-20,20,2
4345,-125,-6,999,-22,-2,-4
4346,-39,-55,995,-22,-22,-9
4347,77,-63,1004,-14,-24,-13
4348,137,-49,1003,-8,-11,-11
4349,70,-3,1003,-4,14,-4
4350,-27,29,999,-11,25,0
4351,-139,34,988,-19,23,2
4352,-127,-4,992,-25,2,-2
4353,-65,-47,993,-24,-17,-10
4354,74,-55,1005,-15,-27,-13
4355,127,-55,1009,-8,-16,-12
4356,87,-8,1003,-4,9,-6
4357,-10,24,995,-8,25,-2
4358,-122,33,989,-19,25,2
4359,-136,-4,993,-23,6,-3
4360,-79,-37,981,-22,-15,-9
4361,54,-59,1005,-15,-27,-13
4362,116,-55,1008,-9,-16,-12
4363,104,-13,1011,-5,4,-7
4364,8,25,997,-8,22,-1
4365,-110,33,990,-16,26,2
4366,-140,0,987,-22,9,-2
4367,-92,-28,984,-23,-11,-6
4368,39,-64,1004,-16,-25,-12
4369,105,-58,1006,-8,-18,-13
4370,115,-14,1004,-4,-1,-8
4371,24,25,1004,-8,22,-4
4372,-94,30,1008,-15,28,2
4373,-140,9,973,-23,13,-1
4374,-104,-26,986,-23,-8,-6
4375,17,-65,1002,-17,-26,-11
4376,96,-62,1004,-10,-20,-12
4377,129,-23,1003,-3,-4,-9
4378,34,19,1008,-5,19,-3
4379,-75,35,1004,-14,27,2
4380,-144,16,976,-24,17,1
4381,-115,-18,997,-25,-4,-3
4382,-5,-65,998,-20,-22,-10
4383,92,-60,994,-10,-22,-13
4384,136,-30,1006,-3,-8,-11
4385,49,13,1008,-6,16,-3
4386,-53,30,1003,-14,27,1
4387,-142,25,980,-22,20,0
4388,-123,-14,996,-27,-2,-3
4389,-33,-59,994,-24,-31,-12
4390,81,-63,1003,-19,-31,-14
4391,136,-42,999,-5,-11,-11
4392,65,4,1004,-5,15,-4
4393,-34,31,1000,-10,26,-1
4394,-138,35,979,-20,22,2
4395,-126,-6,993,-25,1,-3
4396,-56,-54,993,-23,-18,-9
4397,77,-62,1006,-13,-25,-13
4398,130,-53,1006,-7,-14,-11
4399,78,-2,1000,-3,11,-4
4400,-13,30,996,-10,25,-1
4401,-128,38,990,-18,24,1
4402,-133,-4,992,-24,4,-3
4403,-75,-44,983,-23,-16,-9
4404,59,-58,1005,-13,-26,-13
4405,121,-55,1010,-8,-15,-13
4406,95,-15,1012,-5,7,-6
4407,4,26,991,-9,23,-2
4408,-115,37,992,-16,25,2
4409,-139,0,990,-24,7,-2
4410,-90,-32,986,-24,-13,-7
4411,43,-62,999,-18,-27,-12
4412,109,-62,1009,-9,-18,-14
4413,111,-12,1005,-4,2,-10
4414,19,21,1003,-9,20,-4
4415,-101,34,1003,-16,27,2
4416,-140,7,978,-24,11,-1
4417,-103,-25,985,-24,-9,-6
4418,23,-63,1003,-18,-26,-12
4419,99,-62,1005,-9,-19,-13
4420,124,-22,1002,-3,-2,-8
4421,31,21,1004,-7,21,-3
4422,-78,36,1009,-15,26,2
4423,-143,18,976,-23,15,0
4424,-112,-20,988,-26,-5,-5
4425,0,-66,1001,-20,-22,-10
4426,94,-62,998,-10,-22,-12
4427,128,-30,1003,-5,-6,-10
4428,43,13,1008,-5,16,-4
4429,-60,29,1003,-13,27,0
4430,-143,27,977,-22,19,-1
4431,-119,-12,999,-25,-2,-6
4432,-23,-59,993,-23,-23,-11
4433,86,-61,997,-12,-23,-13
4434,134,-40,1003,-3,-9,-11
4435,58,4,1008,-5,15,-4
4436,-37,30,997,-9,27,0
4437,-142,33,981,-19,20,2
4438,-125,-9,994,-24,0,-4
4439,-46,-56,997,-21,-18,-11
4440,74,-59,1006,-15,-25,-10
4441,133,-44,1002,-7,-12,-11
4442,77,-7,1001,-3,11,-5
4443,-21,31,995,-10,24,-2
4444,-128,34,992,-20,24,1
4445,-132,-6,991,-23,4,-3
4446,-69,-47,986,-21,-17,-10
4447,65,-59,1004,-14,-26,-13
4448,121,-53,1010,-6,-15,-10
4449,92,-11,1005,-4,8,-6
4450,-3,27,994,-9,25,-1
4451,-117,38,987,-17,26,2
4452,-137,-1,992,-23,6,-3
4453,-87,-34,982,-24,-13,-8
4454,55,-64,1004,-16,-26,-13
4455,109,-58,1010,-9,-16,-12
4456,103,-14,1005,-5,2,-6
4457,15,26,1003,-7,21,-3
4458,-104,34,998,-15,27,2
4459,-141,7,978,-24,11,-2
4460,-92,-28,986,-23,-10,-7
4461,25,-64,1000,-17,-26,-11
4462,103,-62,1003,-8,-20,-11
4463,119,-20,1006,-5,-1,-8
4464,29,22,1005,-6,19,-2
4465,-84,34,1007,-14,27,1
4466,-142,15,976,-22,13,-2
4467,-108,-22,986,-25,-7,-6
4468,8,-67,1001,-19,-25,-12
4469,94,-65,1002,-12,-20,-13
4470,129,-26,1001,-5,-4,-10
4471,40,14,1009,-5,20,-4
4472,-64,34,1000,-12,28,0
4473,-142,23,981,-21,19,-1
4474,-113,-17,996,-24,-4,-5
4475,-19,-61,997,-20,-23,-10
4476,89,-62,994,-11,-23,-12
4477,130,-38,1005,-5,-8,-11
4478,57,6,1008,-6,16,-3
4479,-45,34,1001,-11,27,0
4480,-140,33,978,-21,20,1
4481,-123,-8,998,-24,-2,-3
4482,-44,-57,995,-24,-20,-9
4483,79,-61,1006,-15,-25,-13
4484,133,-46,1004,-7,-11,-11
4485,73,-6,999,-3,12,-4
4486,-24,29,999,-11,24,-2
4487,-130,39,988,-20,24,1
4488,-130,-5,993,-26,4,-3
4489,-62,-46,988,-25,-17,-9
