sequence,AccelerometerX,AccelerometerY,AccelerometerZ,GyroscopeX,GyroscopeY,GyroscopeZ
0,474,-120,1046,5,-46,4
1,379,-8,1020,15,28,6
2,-13,73,999,5,70,14
3,-415,98,919,-11,57,18
4,-473,7,897,-24,-14,1
5,-123,-106,1001,-13,-75,-10
6,363,-144,1075,-11,-74,1
7,486,-86,1034,13,-16,5
8,233,35,1019,10,53,7
9,-203,96,968,0,72,18
10,-500,71,880,-18,32,15
11,-351,-34,940,-25,-43,-5
12,101,-131,1048,-10,-86,-8
13,455,-134,1068,-5,-56,4
14,411,-30,1022,21,15,7
15,45,64,988,1,70,12
16,-354,93,932,-5,61,17
17,-481,34,892,-22,2,5
18,-188,-82,999,-15,-66,-9
19,292,-142,1073,-10,-84,-3
20,472,-97,1034,10,-27,5
21,287,12,1007,13,41,7
22,-127,83,972,1,74,16
23,-453,85,911,-14,42,16
24,-400,-15,922,-20,-31,-3
25,6,-122,1040,-14,-82,-10
26,405,-141,1059,-1,-65,2
27,436,-50,1019,11,4,7
28,130,48,999,10,60,12
29,-274,97,956,-6,68,20
30,-492,55,894,-19,13,9
31,-269,-64,966,-21,-58,-9
32,194,-141,1065,-11,-85,-5
33,469,-117,1032,6,-40,5
34,365,0,1024,15,31,8
35,-36,70,990,4,71,14
36,-423,94,925,-11,54,16
37,-461,7,898,-21,-17,0
38,-98,-110,1008,-18,-77,-9
39,370,-140,1071,-5,-75,-1
40,478,-75,1025,12,-12,6
41,215,35,1025,12,55,9
42,-222,90,963,-1,72,18
43,-505,68,880,-16,29,12
44,-339,-41,942,-19,-48,-5
45,123,-132,1045,-14,-85,-7
46,466,-125,1066,2,-54,4
47,410,-26,1024,14,17,7
48,25,66,996,6,72,12
49,-377,97,926,-10,59,19
50,-481,29,889,-22,-2,4
51,-167,-96,1003,-18,-71,-9
52,313,-139,1072,-6,-82,-1
53,478,-92,1037,8,-25,7
54,273,20,1009,12,44,9
55,-155,90,968,-1,75,16
56,-466,81,901,-14,39,16
57,-388,-25,930,-22,-34,-3
58,33,-122,1042,-12,-84,-8
59,420,-136,1059,-2,-63,3
60,431,-51,1018,12,4,8
61,106,55,996,9,64,11
62,-293,98,949,-7,67,18
63,-489,45,897,-18,11,8
64,-252,-69,978,-20,-59,-10
65,218,-139,1067,-10,-86,-5
66,465,-116,1028,4,-36,5
67,344,0,1020,14,35,6
68,-53,77,980,3,73,16
69,-431,89,926,-14,51,18
70,-446,-2,909,-21,-23,-2
71,-76,-108,1012,-15,-78,-8
72,381,-137,1066,-3,-73,0
73,473,-73,1022,11,-9,5
74,190,41,1022,12,58,11
75,-230,94,963,-4,70,19
76,-505,63,885,-19,25,12
77,-325,-47,943,-19,-51,-7
78,143,-135,1050,-13,-85,-6
79,470,-125,1062,5,-50,4
80,400,-15,1024,15,23,7
81,10,74,999,6,71,13
82,-395,92,920,-12,57,18
83,-476,20,893,-20,-6,3
84,-149,-94,1000,-20,-74,-8
85,340,-146,1075,-6,-80,-1
86,480,-89,1037,10,-21,7
87,254,27,1011,12,49,9
88,-176,84,972,-2,73,16
89,-485,79,889,-15,36,14
90,-368,-27,935,-19,-38,-4
91,67,-130,1050,-15,-86,-9
92,433,-133,1061,1,-58,2
93,422,-39,1023,14,7,6
94,76,56,986,8,68,12
95,-317,95,945,-7,66,19
96,-487,42,894,-20,6,7
97,-226,-78,988,-19,-61,-8
98,249,-142,1069,-9,-85,-4
99,466,-106,1029,7,-32,5
100,325,7,1012,14,37,9
101,-83,83,979,3,74,15
102,-439,87,925,-13,47,16
103,-428,-4,910,-22,-25,-2
104,-43,-117,1027,-15,-81,-9
105,389,-139,1060,-3,-71,0
106,462,-62,1019,13,-3,7
107,172,37,1014,8,59,10
108,-246,101,962,0,71,18
109,-502,67,890,-19,22,12
110,-306,-59,950,-20,-54,-6
111,160,-132,1056,-9,-84,-8
112,473,-125,1046,2,-48,5
113,395,-13,1027,17,25,8
114,-7,73,999,3,72,12
115,-405,91,915,-9,56,19
116,-477,14,899,-20,-10,3
117,-131,-108,1001,-19,-75,-10
118,353,-137,1075,-3,-77,-1
119,483,-83,1040,8,-18,6
120,243,31,1014,14,52,8
121,-195,96,970,-5,72,17
122,-496,74,887,-17,34,14
123,-358,-37,938,-23,-41,-5
124,86,-134,1044,-13,-86,-8
125,448,-135,1067,1,-57,2
126,417,-38,1020,15,11,6
127,53,60,991,10,70,12
128,-340,104,941,-9,62,18
129,-482,34,890,-17,3,6
130,-201,-82,996,-19,-64,-10
131,275,-133,1075,-6,-84,-3
132,471,-113,1027,4,-29,6
133,301,16,1013,16,41,8
134,-109,81,968,1,75,16
135,-446,82,920,-14,44,17
136,-414,-8,918,-18,-28,-2
137,-14,-119,1032,-16,-82,-8
138,397,-140,1059,0,-68,1
139,450,-59,1017,12,1,8
140,148,50,1009,11,61,11
141,-262,98,956,-8,70,19
142,-497,57,889,-19,16,9
143,-292,-57,960,-20,-56,-7
144,182,-139,1059,-11,-85,-6
145,470,-123,1039,4,-44,5
146,378,-8,1025,15,29,7
147,-20,72,996,4,72,16
148,-417,96,920,-9,55,18
149,-469,14,900,-23,-15,-1
150,-112,-105,999,-18,-76,-9
151,366,-140,1076,-5,-77,-1
152,481,-86,1031,12,-15,6
153,228,35,1021,12,54,8
154,-209,88,968,-1,71,18
155,-505,71,880,-17,33,13
156,-347,-33,943,-19,-45,-6
157,106,-136,1047,-13,-88,-8
158,458,-127,1066,3,-55,3
159,414,-23,1024,16,14,6
160,36,61,990,5,71,10
161,-360,96,931,-9,63,18
162,-480,35,894,-21,0,5
163,-184,-96,996,-19,-67,-10
164,296,-139,1076,-5,-83,-3
165,470,-101,1030,8,-27,6
166,286,14,1010,14,42,8
167,-134,88,973,1,74,16
168,-454,86,910,-13,39,15
169,-395,-14,928,-21,-29,-2
170,9,-119,1037,-15,-83,-9
171,407,-141,1058,-2,-65,2
172,438,-54,1020,10,4,7
173,127,45,999,9,61,12
174,-277,97,953,-6,69,19
175,-494,52,893,-18,13,9
176,-271,-68,969,-19,-58,-7
177,200,-133,1063,-8,-85,-5
178,470,-113,1032,5,-41,5
179,366,-4,1022,14,31,7
180,-38,77,993,3,73,14
181,-423,95,919,-10,52,18
182,-464,4,903,-22,-18,2
183,-98,-110,1005,-16,-76,-9
184,378,-140,1072,-4,-75,0
185,480,-83,1030,13,-11,6
186,217,39,1022,14,57,9
187,-222,99,966,-1,69,18
188,-509,70,879,-18,30,13
189,-342,-40,944,-20,-49,-6
190,120,-133,1047,-12,-86,-7
191,473,-135,1065,1,-53,4
192,409,-25,1025,15,18,7
193,26,63,993,4,71,13
194,-379,97,927,-10,61,19
195,-486,29,890,-20,-1,5
196,-169,-92,998,-18,-72,-9
197,313,-137,1078,-5,-81,-2
198,480,-103,1028,6,-25,5
199,272,28,1014,16,45,8
200,-150,87,969,-3,75,16
201,-467,75,901,-16,38,16
202,-390,-21,929,-22,-32,-2
203,33,-123,1045,-15,-84,-9
204,417,-142,1057,0,-64,3
205,433,-46,1021,13,5,7
206,108,52,993,9,64,11
207,-290,96,951,-6,67,20
208,-487,49,898,-17,12,8
209,-257,-65,972,-18,-59,-9
210,210,-141,1067,-11,-86,-5
211,461,-113,1032,6,-38,4
212,353,0,1018,14,33,8
213,-48,70,985,4,73,15
214,-426,94,924,-10,52,17
215,-449,5,903,-22,-21,0
216,-88,-109,1013,-17,-76,-9
217,374,-139,1069,-5,-74,-1
218,476,-68,1027,11,-10,6
219,207,36,1024,12,57,10
220,-223,88,961,-3,70,18
221,-505,63,880,-17,28,14
222,-333,-45,949,-21,-49,-6
223,129,-139,1040,-9,-85,-8
224,468,-123,1067,5,-51,3
225,405,-16,1027,15,18,7
226,18,66,996,6,71,12
227,-382,97,925,-10,59,18
228,-480,26,892,-23,-3,5
229,-163,-100,999,-19,-71,-11
230,320,-142,1075,-5,-79,-3
231,472,-90,1035,8,-23,7
232,266,16,1012,13,45,9
233,-162,90,971,-1,76,17
234,-469,80,899,-15,37,15
235,-376,-26,932,-23,-35,-4
236,42,-122,1042,-13,-83,-9
237,418,-130,1061,-1,-62,2
238,425,-46,1022,13,7,7
239,94,50,989,7,66,10
240,-294,98,950,-4,65,19
241,-483,43,897,-21,9,8
242,-243,-74,979,-18,-60,-9
243,219,-134,1068,-8,-85,-5
244,461,-111,1029,5,-35,4
245,343,0,1017,14,34,6
246,-59,83,984,5,71,15
247,-429,89,925,-13,51,18
248,-441,0,910,-18,-22,0
249,-77,-109,1013,-18,-76,-10
250,380,-140,1064,-3,-72,0
251,470,-67,1024,12,-9,6
252,196,41,1023,11,58,9
253,-231,90,962,-4,69,19
254,-506,60,885,-18,26,14
255,-325,-54,941,-19,-49,-8
256,142,-133,1053,-12,-85,-8
257,468,-127,1062,4,-51,4
258,402,-19,1021,15,22,6
259,9,74,998,6,70,13
260,-388,89,919,-11,58,19
261,-476,24,894,-21,-4,4
262,-151,-99,998,-18,-73,-10
263,331,-146,1076,-5,-79,-3
264,475,-86,1036,10,-22,5
265,256,24,1008,14,47,8
266,-171,89,975,-2,74,16
267,-475,74,891,-15,35,14
268,-369,-22,938,-21,-37,-3
269,54,-124,1044,-12,-84,-8
270,426,-135,1063,-1,-61,2
271,418,-40,1019,13,8,7
272,85,55,989,10,66,12
273,-304,94,949,-8,65,20
274,-484,46,896,-19,7,7
275,-233,-77,984,-19,-61,-10
276,235,-140,1069,-7,-86,-4
277,460,-109,1027,8,-34,4
278,335,3,1018,14,35,7
279,-72,77,980,3,72,16
280,-432,88,923,-14,48,18
281,-432,2,913,-19,-25,0
282,-65,-114,1015,-17,-78,-10
283,380,-139,1066,0,-72,0
284,467,-64,1024,10,-7,8
285,185,40,1019,10,57,10
286,-238,94,957,-4,70,18
287,-505,66,888,-17,23,12
288,-319,-58,946,-22,-52,-7
289,146,-139,1051,-10,-84,-9
290,466,-122,1061,4,-50,4
291,398,-15,1025,17,22,7
292,6,79,997,6,70,14
293,-395,97,920,-9,56,19
294,-475,19,895,-23,-6,4
295,-144,-101,999,-16,-73,-10
296,339,-141,1075,-5,-79,-2
297,478,-88,1038,10,-20,6
298,249,25,1009,15,47,8
299,-181,87,963,-1,72,16
300,-479,81,896,-15,35,15
301,-359,-37,932,-20,-39,-5
302,68,-121,1050,-12,-85,-8
303,429,-128,1063,0,-58,3
304,422,-40,1018,12,8,6
305,72,60,985,9,67,12
306,-313,97,941,-10,63,20
307,-479,38,896,-20,5,8
308,-223,-81,987,-19,-62,-9
309,246,-137,1071,-7,-86,-5
310,461,-111,1028,3,-32,6
311,320,11,1011,15,37,7
312,-81,83,974,4,73,15
313,-433,85,925,-14,47,17
314,-426,-5,915,-19,-25,-2
315,-50,-112,1023,-15,-78,-9
316,387,-142,1066,-2,-71,2
317,459,-62,1021,13,-4,7
318,173,43,1014,12,59,9
319,-242,95,963,-2,69,19
320,-500,59,888,-18,21,13
321,-311,-54,949,-20,-54,-8
322,158,-138,1054,-8,-83,-8
323,471,-120,1058,3,-48,5
324,388,-9,1023,16,25,6
325,0,71,995,4,71,15
326,-403,93,918,-10,56,19
327,-471,18,896,-20,-9,3
328,-136,-103,999,-17,-74,-9
329,342,-139,1079,-3,-78,-1
330,480,-86,1037,8,-19,6
331,244,36,1015,15,51,9
332,-185,90,962,-4,72,17
333,-484,77,892,-15,34,15
334,-356,-30,936,-24,-39,-5
335,81,-132,1046,-15,-85,-8
336,431,-128,1067,2,-57,1
337,416,-34,1024,13,10,7
338,62,55,983,8,67,13
339,-323,93,941,-10,62,18
340,-472,34,895,-18,3,6
341,-213,-77,995,-19,-62,-9
342,255,-142,1071,-7,-84,-4
343,462,-102,1031,6,-32,7
344,314,10,1011,15,37,7
345,-90,76,971,1,73,15
346,-435,84,921,-13,45,16
347,-415,-10,918,-19,-25,-1
348,-36,-116,1020,-16,-76,-9
349,386,-135,1067,-1,-70,-1
350,455,-63,1021,10,0,6
351,166,46,1012,14,58,10
352,-248,96,958,-7,67,18
353,-491,56,892,-14,21,11
354,-301,-57,954,-24,-54,-9
355,161,-139,1054,-7,-82,-7
356,468,-113,1057,0,-46,5
357,384,-12,1019,17,25,9
358,-9,77,995,2,72,14
359,-403,95,920,-7,55,18
360,-467,12,899,-25,-13,4
361,-127,-101,999,-15,-74,-9
362,352,-136,1078,-7,-76,-1
363,477,-81,1039,10,-18,6
364,239,31,1013,12,52,9
365,-197,91,964,-2,71,17
366,-486,66,887,-17,33,14
367,-353,-39,937,-21,-40,-5
368,81,-130,1043,-11,-86,-9
369,442,-133,1071,0,-55,4
370,410,-36,1019,16,12,7
371,52,64,984,7,67,12
372,-332,98,943,-5,62,18
373,-477,33,891,-20,3,7
374,-202,-87,995,-19,-66,-10
375,265,-139,1072,-6,-83,-4
376,464,-105,1028,5,-29,5
377,306,12,1011,15,39,9
378,-103,84,971,1,75,16
379,-440,80,920,-14,43,17
380,-414,-8,919,-20,-27,-1
381,-26,-114,1025,-16,-80,-10
382,393,-137,1067,-2,-71,0
383,452,-59,1013,11,0,6
384,160,52,1015,13,60,10
385,-255,98,958,-6,67,20
386,-496,58,890,-17,20,10
387,-298,-56,951,-22,-54,-8
388,172,-140,1058,-10,-85,-7
389,469,-123,1052,3,-46,4
390,384,-9,1020,16,26,7
391,-13,74,995,4,71,15
392,-410,89,917,-10,57,18
393,-469,14,895,-21,-13,2
394,-127,-105,999,-17,-74,-10
395,356,-143,1080,-6,-75,-1
396,480,-82,1035,11,-18,6
397,235,36,1017,13,53,9
398,-199,89,966,-2,71,17
399,-492,70,885,-17,31,14
400,-351,-38,937,-21,-41,-5
401,90,-139,1044,-14,-85,-9
402,441,-130,1072,2,-57,3
403,411,-30,1018,14,12,6
404,52,61,986,8,68,12
405,-337,100,938,-7,62,19
406,-473,36,893,-20,3,7
407,-199,-85,1000,-19,-65,-9
408,269,-140,1075,-6,-83,-4
409,463,-97,1031,6,-29,5
410,301,11,1012,13,38,8
411,-105,80,968,0,74,16
412,-442,89,921,-12,43,17
413,-409,-13,919,-20,-28,-2
414,-18,-116,1029,-16,-80,-10
415,388,-128,1064,0,-69,0
416,451,-60,1014,8,0,6
417,152,53,1010,12,60,11
418,-258,96,955,-6,68,18
419,-494,52,891,-18,19,11
420,-296,-60,956,-19,-54,-8
421,172,-139,1058,-9,-84,-8
422,469,-119,1045,6,-45,5
423,380,-7,1023,14,28,8
424,-16,74,994,6,70,14
425,-412,92,917,-12,55,18
426,-466,12,902,-21,-13,2
427,-125,-108,994,-19,-76,-10
428,362,-141,1080,-3,-75,-1
429,479,-85,1037,10,-17,7
430,229,36,1016,15,54,9
431,-203,93,964,-4,71,17
432,-496,65,881,-17,32,14
433,-348,-38,940,-21,-41,-5
434,98,-131,1047,-10,-86,-8
435,450,-129,1070,0,-58,3
436,411,-27,1023,17,13,7
437,46,66,989,8,70,11
438,-343,96,935,-10,60,19
439,-482,33,893,-21,4,6
440,-192,-87,997,-18,-66,-10
441,277,-141,1075,-5,-82,-2
442,464,-100,1030,6,-28,5
443,298,17,1004,15,40,7
444,-115,86,974,2,75,17
445,-439,81,916,-15,43,17
446,-405,-12,923,-17,-28,-2
447,-15,-116,1028,-17,-81,-8
448,399,-138,1063,-1,-68,1
449,439,-54,1021,12,2,6
450,149,44,1004,10,60,11
451,-260,95,959,-4,69,20
452,-496,55,891,-19,18,9
453,-285,-64,957,-19,-55,-6
454,172,-133,1061,-11,-84,-5
455,468,-123,1043,5,-45,2
456,377,-3,1025,16,29,7
457,-17,69,992,2,71,15
458,-412,91,918,-10,55,18
459,-469,15,900,-21,-12,0
460,-116,-113,997,-17,-75,-9
461,359,-136,1078,-2,-76,-1
462,482,-79,1034,9,-16,5
463,228,34,1019,12,54,9
464,-208,96,969,-4,72,18
465,-493,71,882,-16,32,14
466,-348,-41,942,-22,-43,-5
467,98,-133,1049,-10,-85,-9
468,451,-129,1065,2,-55,3
469,413,-28,1023,16,12,8
470,44,62,988,8,70,13
471,-348,96,936,-9,60,18
472,-478,32,893,-20,1,7
473,-193,-86,997,-19,-66,-9
474,282,-141,1072,-8,-86,-4
475,468,-101,1033,8,-28,5
476,296,10,1007,13,41,8
477,-117,80,971,3,74,16
478,-447,90,918,-16,42,17
479,-408,-16,918,-20,-30,-2
480,-11,-121,1034,-14,-82,-10
481,400,-133,1064,0,-68,0
482,449,-56,1017,12,1,6
483,146,45,1005,9,60,11
484,-259,98,957,-4,69,19
485,-497,52,893,-19,16,10
486,-289,-65,961,-17,-55,-8
487,177,-135,1057,-12,-84,-6
488,474,-123,1044,5,-45,5
489,378,-8,1022,16,30,8
490,-20,77,993,5,70,15
491,-417,97,922,-11,56,18
492,-465,10,900,-20,-14,2
493,-120,-107,998,-18,-76,-10
494,366,-142,1079,-4,-77,-1
495,484,-83,1031,10,-16,7
496,230,34,1016,15,53,8
497,-202,95,969,-4,73,18
498,-499,71,881,-17,34,14
499,-347,-37,938,-20,-44,-6
500,99,-125,1049,-12,-85,-10
501,458,-134,1071,2,-56,3
502,412,-31,1023,15,14,6
503,38,67,988,8,70,11
504,-349,94,934,-10,62,18
505,-482,35,890,-19,1,6
506,-190,-85,1000,-20,-67,-10
507,284,-144,1075,-5,-84,-3
508,469,-105,1028,6,-27,6
509,295,19,1009,16,39,8
510,-119,84,972,0,74,16
511,-448,81,913,-12,43,16
512,-407,-10,922,-20,-30,-3
513,-11,-122,1032,-15,-80,-9
514,400,-141,1065,-1,-68,2
515,446,-54,1017,13,2,7
516,145,48,1006,10,60,11
517,-263,100,955,-5,69,18
518,-493,57,893,-19,16,11
519,-285,-67,959,-21,-56,-7
520,182,-140,1058,-10,-83,-7
521,469,-119,1043,6,-44,4
522,380,-5,1021,16,29,7
523,-22,79,994,4,71,15
524,-417,94,919,-11,55,17
525,-466,13,899,-22,-15,1
526,-117,-112,1002,-17,-76,-9
527,366,-142,1078,-4,-76,0
528,480,-81,1034,12,-15,5
529,230,32,1018,13,54,9
530,-207,94,965,-2,71,18
531,-501,79,885,-18,32,13
532,-345,-40,936,-23,-45,-6
533,104,-131,1051,-12,-85,-8
534,456,-130,1069,0,-55,3
535,413,-36,1020,15,14,6
536,37,61,985,5,72,12
537,-351,99,933,-8,62,18
538,-479,33,893,-20,3,6
539,-193,-89,1001,-18,-66,-9
540,288,-139,1074,-6,-84,-2
541,475,-102,1034,6,-29,6
542,295,12,1006,14,42,7
543,-121,88,970,1,75,15
544,-449,82,915,-14,42,16
545,-406,-15,921,-20,-28,-2
546,-8,-121,1036,-16,-82,-10
547,404,-140,1061,-1,-67,2
548,445,-55,1017,12,2,7
549,142,47,1000,12,62,10
550,-266,102,957,-5,68,19
551,-497,52,890,-19,16,10
552,-282,-64,963,-20,-56,-7
553,185,-134,1061,-11,-84,-6
554,473,-122,1042,3,-43,4
555,373,-6,1024,16,29,7
556,-24,78,993,3,71,14
557,-417,89,917,-11,56,19
558,-469,10,900,-21,-15,1
559,-112,-111,999,-16,-75,-10
560,367,-143,1080,-5,-76,-1
561,484,-81,1033,12,-14,5
562,227,35,1016,14,54,9
563,-211,97,968,-4,71,18
564,-502,68,878,-17,32,12
565,-348,-36,940,-22,-44,-6
566,107,-132,1045,-11,-87,-8
567,460,-133,1069,1,-54,3
568,415,-32,1021,14,15,6
569,37,66,991,7,71,12
570,-356,96,932,-9,60,18
571,-481,33,890,-17,1,5
572,-188,-84,1001,-19,-68,-9
573,294,-144,1076,-8,-84,-3
574,471,-98,1032,8,-26,6
575,292,18,1007,12,41,8
576,-121,82,969,0,75,16
577,-453,85,915,-16,42,16
578,-402,-13,922,-21,-30,-3
579,-2,-119,1038,-14,-81,-8
580,402,-142,1063,-2,-68,1
581,448,-56,1015,12,2,6
582,141,46,1005,12,62,11
583,-270,97,956,-5,68,17
584,-494,57,891,-17,14,9
585,-285,-62,964,-21,-56,-8
586,189,-144,1062,-10,-84,-5
587,470,-117,1041,4,-42,4
588,375,-10,1022,16,30,8
589,-26,75,993,4,71,14
590,-422,93,917,-11,55,18
591,-467,7,898,-24,-17,1
592,-113,-108,1005,-16,-77,-9
593,370,-141,1077,-7,-76,-1
594,483,-77,1031,12,-14,7
595,227,38,1016,12,55,10
596,-214,98,964,-1,72,17
597,-504,71,882,-18,30,13
598,-343,-45,937,-22,-45,-6
599,108,-134,1051,-12,-86,-8
600,460,-131,1066,1,-56,4
601,413,-28,1023,14,15,8
602,35,65,992,5,71,11
603,-358,100,927,-9,60,18
604,-481,35,890,-21,2,6
605,-181,-90,999,-19,-70,-10
606,294,-138,1074,-6,-84,-4
607,472,-103,1034,6,-27,6
608,288,12,1003,13,42,8
609,-130,92,972,2,76,15
610,-455,82,911,-15,41,16
611,-403,-15,925,-19,-30,-2
612,0,-117,1036,-14,-82,-10
613,410,-143,1063,-2,-67,1
614,445,-52,1018,13,3,6
615,133,52,1000,10,62,10
616,-269,97,956,-5,69,20
617,-498,55,894,-19,15,10
618,-279,-69,963,-21,-57,-8
619,189,-137,1065,-9,-85,-5
620,472,-126,1037,4,-41,4
621,375,-9,1020,15,30,7
622,-29,81,994,6,71,15
623,-420,89,921,-13,56,17
624,-468,11,902,-19,-15,0
625,-110,-103,1004,-17,-78,-8
626,370,-145,1076,-7,-76,0
627,482,-79,1033,11,-14,6
628,222,37,1018,13,55,9
629,-212,91,970,-2,71,18
630,-504,71,879,-15,31,13
631,-344,-41,939,-21,-44,-6
632,112,-135,1045,-11,-86,-8
633,464,-125,1074,0,-53,3
634,410,-20,1021,15,16,6
635,30,66,990,5,70,13
636,-364,96,931,-10,60,18
637,-483,33,891,-20,0,4
638,-179,-90,1001,-20,-70,-9
639,301,-142,1074,-6,-83,-3
640,472,-100,1033,6,-25,6
641,286,21,1007,15,42,9
642,-138,85,969,1,76,16
643,-458,85,911,-13,40,14
644,-395,-15,926,-20,-32,-3
645,12,-121,1041,-15,-83,-8
646,409,-140,1059,0,-66,2
647,441,-51,1020,12,4,7
648,128,49,999,10,62,12
649,-279,99,955,-5,68,18
650,-491,51,893,-17,13,9
651,-272,-69,966,-20,-58,-8
652,191,-138,1063,-10,-85,-6
653,471,-120,1035,3,-42,5
654,367,-6,1022,15,33,8
655,-35,78,989,4,71,14
656,-426,97,924,-11,54,16
657,-462,7,901,-23,-18,1
658,-103,-112,1002,-18,-77,-9
659,375,-138,1077,-4,-75,-2
660,482,-79,1031,11,-12,6
661,219,35,1019,13,56,10
662,-221,95,961,-2,70,16
663,-506,69,884,-19,29,13
664,-342,-42,941,-20,-47,-7
665,117,-132,1046,-11,-86,-8
666,470,-129,1069,1,-54,4
667,411,-30,1020,15,18,8
668,32,63,990,6,72,13
669,-371,100,931,-9,61,19
670,-482,25,887,-20,0,5
671,-175,-90,999,-19,-70,-9
672,305,-135,1078,-4,-83,-3
673,478,-102,1032,8,-26,5
674,282,23,1014,17,44,8
675,-142,85,965,-2,75,16
676,-460,83,909,-13,40,16
677,-398,-20,925,-22,-31,-3
678,16,-122,1040,-14,-83,-9
679,413,-138,1062,-2,-65,1
680,437,-50,1017,13,5,5
681,121,53,995,9,63,11
682,-281,98,952,-6,67,18
683,-491,48,894,-21,15,11
684,-265,-67,968,-22,-58,-8
685,203,-136,1068,-8,-85,-4
686,466,-120,1033,2,-40,5
687,365,-3,1021,15,32,7
688,-42,82,990,6,72,14
689,-424,89,920,-15,54,18
690,-459,8,904,-19,-18,1
691,-94,-113,1004,-21,-78,-10
692,378,-148,1075,-2,-75,-1
693,478,-73,1031,11,-11,6
694,215,39,1021,15,56,9
695,-222,97,962,-5,70,18
696,-510,70,879,-16,30,12
697,-334,-41,940,-22,-49,-6
698,126,-136,1049,-12,-84,-7
699,469,-131,1069,0,-52,5
700,410,-21,1021,16,19,7
701,16,65,991,4,72,12
702,-374,97,925,-8,59,18
703,-484,34,891,-21,-1,4
704,-170,-97,1001,-18,-71,-10
705,315,-142,1078,-4,-83,-2
706,474,-95,1034,8,-24,6
707,279,19,1010,13,44,9
708,-154,86,969,0,75,15
709,-465,84,904,-15,39,14
710,-386,-17,931,-22,-33,-2
711,22,-128,1041,-14,-84,-9
712,418,-139,1062,1,-64,1
713,433,-49,1019,11,5,7
714,110,52,993,10,64,11
715,-289,102,952,-4,69,18
716,-492,49,893,-17,12,9
717,-257,-72,974,-21,-58,-8
718,208,-139,1068,-10,-85,-5
719,468,-115,1031,4,-39,6
720,359,-2,1019,15,34,9
721,-51,82,987,4,73,14
722,-426,91,921,-15,52,17
723,-456,5,907,-19,-20,1
724,-91,-109,1008,-17,-77,-11
725,381,-142,1073,-3,-75,0
726,476,-74,1028,9,-10,6
727,210,34,1021,13,56,9
728,-227,100,963,-3,71,18
729,-507,65,880,-18,28,12
730,-333,-46,945,-19,-49,-6
731,126,-132,1048,-11,-84,-8
732,472,-128,1067,1,-51,3
733,407,-22,1020,13,19,8
734,19,73,996,5,72,13
735,-381,91,920,-11,59,17
736,-480,24,893,-19,-2,4
737,-164,-97,998,-17,-71,-11
738,321,-141,1078,-4,-81,-3
739,476,-97,1039,9,-23,6
740,269,22,1003,14,46,8
741,-156,94,970,-1,74,16
742,-470,79,897,-18,38,14
743,-382,-14,937,-21,-34,-3
744,37,-129,1040,-15,-85,-9
745,422,-142,1064,-2,-62,3
746,427,-47,1017,14,6,7
747,104,52,992,9,63,11
748,-297,98,951,-5,68,19
749,-491,43,894,-21,9,8
750,-248,-71,980,-19,-59,-7
751,219,-138,1069,-9,-85,-4
752,469,-117,1031,6,-38,5
753,348,6,1020,16,35,8
754,-55,79,982,1,73,15
755,-430,91,924,-13,53,18
756,-451,2,907,-22,-21,-1
757,-77,-118,1007,-19,-78,-10
758,379,-144,1073,-3,-73,0
759,476,-72,1025,10,-8,6
760,202,41,1018,12,58,9
761,-232,99,964,-4,71,19
762,-505,67,881,-18,27,12
763,-327,-43,946,-22,-51,-7
764,137,-143,1048,-12,-83,-8
765,472,-125,1064,3,-51,5
766,403,-18,1023,15,21,8
767,12,65,991,5,73,13
768,-393,97,921,-10,59,18
769,-479,24,894,-21,-3,4
770,-154,-101,1001,-18,-72,-9
771,331,-139,1078,-5,-80,-3
772,482,-90,1039,9,-21,5
773,263,24,1006,13,48,8
774,-166,91,967,0,75,17
775,-475,84,899,-18,38,16
776,-377,-25,933,-24,-35,-4
777,46,-129,1044,-15,-85,-9
778,428,-135,1062,3,-61,1
779,428,-47,1019,11,7,8
780,90,52,989,10,66,12
781,-299,100,949,-7,67,20
782,-487,49,899,-17,8,8
783,-243,-74,975,-19,-59,-8
784,226,-131,1073,-7,-85,-4
785,467,-112,1027,3,-37,7
786,345,0,1017,14,34,7
787,-65,79,983,2,73,14
788,-430,89,922,-12,50,19
789,-446,-5,908,-21,-22,1
790,-74,-115,1012,-16,-77,-9
791,385,-137,1072,-3,-74,1
792,474,-68,1024,11,-6,7
793,198,41,1017,14,58,8
794,-236,99,966,-4,70,18
795,-509,65,883,-18,26,10
796,-324,-53,944,-22,-52,-7
797,139,-140,1049,-9,-85,-7
798,474,-131,1057,1,-51,4
799,398,-18,1024,17,22,7
800,8,75,998,6,71,13
801,-392,93,920,-11,58,19
802,-484,24,893,-19,-4,2
803,-149,-99,1000,-19,-73,-10
804,336,-138,1077,-5,-80,-1
805,481,-92,1037,9,-22,6
806,259,25,1008,15,48,9
807,-174,89,970,-2,74,18
808,-478,71,893,-16,36,14
809,-372,-23,935,-19,-35,-4
810,57,-126,1043,-13,-85,-8
811,434,-142,1064,0,-61,3
812,422,-34,1021,15,9,6
813,83,56,987,8,67,11
814,-310,96,949,-6,66,18
815,-486,51,896,-18,6,8
816,-232,-79,981,-20,-62,-9
817,238,-142,1071,-9,-84,-4
818,464,-114,1024,4,-33,5
819,334,5,1016,15,36,8
820,-71,79,980,3,74,16
821,-437,88,920,-12,48,17
822,-439,4,915,-20,-25,1
823,-59,-113,1020,-17,-78,-9
824,387,-142,1063,-5,-72,0
825,468,-66,1023,13,-5,6
826,190,36,1017,9,59,10
827,-242,95,960,-1,70,18
828,-506,64,884,-18,24,11
829,-321,-54,948,-19,-52,-7
830,150,-139,1051,-12,-86,-7
831,475,-122,1059,3,-49,4
832,398,-17,1023,14,24,6
833,4,69,1000,4,71,14
834,-400,103,920,-9,58,19
835,-481,20,891,-23,-7,3
836,-146,-101,1002,-18,-73,-9
837,344,-140,1073,-4,-78,-1
838,488,-91,1041,9,-21,7
839,251,22,1012,15,51,8
840,-182,92,967,-2,75,18
841,-489,83,888,-16,35,15
842,-368,-31,933,-20,-38,-6
843,68,-126,1047,-13,-86,-8
844,435,-130,1063,1,-60,3
845,429,-43,1022,11,9,6
846,76,56,989,9,69,12
847,-320,97,945,-8,64,19
848,-487,40,893,-19,7,7
849,-226,-76,986,-18,-62,-9
850,249,-139,1071,-8,-86,-4
851,471,-111,1027,6,-32,6
852,328,7,1013,15,37,7
853,-82,83,977,3,76,14
854,-439,93,925,-13,47,16
855,-433,-7,914,-20,-26,-2
856,-48,-110,1024,-16,-78,-9
857,389,-140,1063,-3,-72,1
858,464,-70,1016,11,-4,7
859,175,45,1018,12,60,11
860,-245,97,962,-5,70,19
861,-505,61,885,-17,23,10
862,-313,-50,948,-20,-54,-7
863,159,-133,1052,-12,-85,-5
864,473,-126,1054,1,-49,4
865,392,-14,1024,15,26,7
866,-2,74,1000,4,71,13
867,-407,93,917,-12,57,19
868,-478,17,893,-20,-8,2
869,-139,-103,1001,-18,-75,-10
870,352,-145,1076,-4,-78,-1
871,485,-87,1037,9,-19,6
872,246,33,1017,16,51,8
873,-192,94,968,-1,73,16
874,-493,75,887,-17,35,14
875,-363,-28,937,-22,-40,-6
876,84,-132,1047,-15,-86,-8
877,448,-137,1064,2,-58,4
878,418,-35,1024,14,12,7
879,59,54,988,5,71,11
880,-336,96,943,-7,63,19
881,-484,41,891,-20,4,7
882,-209,-77,992,-18,-65,-9
883,264,-141,1073,-10,-85,-3
884,469,-106,1030,7,-30,5
885,313,12,1011,14,39,9
886,-99,80,976,2,75,16
887,-445,90,925,-13,46,16
888,-424,-11,913,-21,-27,-2
889,-32,-120,1029,-15,-80,-9
890,394,-137,1060,-1,-69,1
891,461,-63,1020,12,-3,7
892,163,43,1016,11,60,9
893,-258,99,960,-1,70,18
894,-503,59,888,-19,19,10
895,-302,-59,953,-20,-53,-7
896,169,-140,1057,-11,-84,-6
897,473,-125,1048,4,-46,5
898,388,-13,1026,16,28,7
899,-15,76,999,5,71,12
900,-412,99,917,-8,55,17
901,-472,15,899,-23,-11,3
902,-130,-105,996,-15,-75,-10
903,360,-139,1077,-5,-78,-1
904,485,-83,1036,10,-17,6
905,239,27,1015,13,54,9
906,-200,96,971,-1,73,17
907,-500,76,885,-17,35,14
908,-355,-39,936,-22,-43,-5
909,92,-125,1048,-10,-86,-8
910,453,-134,1064,-2,-57,3
911,419,-36,1025,15,12,7
912,52,64,989,7,71,12
913,-342,96,936,-9,61,19
914,-487,42,892,-19,3,6
915,-201,-81,995,-21,-65,-10
916,278,-136,1076,-6,-85,-3
917,469,-105,1028,4,-28,6
918,303,8,1007,14,41,7
919,-110,80,972,2,75,17
920,-447,82,917,-13,45,18
921,-411,-9,918,-19,-28,-2
922,-20,-115,1033,-16,-81,-9
923,400,-137,1062,-1,-68,1
924,449,-56,1016,12,2,7
925,150,45,1009,10,61,10
926,-259,99,959,-5,71,18
927,-501,58,889,-21,18,10
928,-290,-64,956,-20,-55,-9
929,181,-140,1060,-11,-84,-5
930,472,-127,1041,5,-46,5
931,378,-6,1024,16,30,6
932,-18,77,999,6,72,15
933,-423,94,918,-11,54,18
934,-469,17,897,-21,-13,0
935,-116,-107,1003,-19,-76,-9
936,368,-146,1075,-6,-77,-1
937,484,-80,1033,10,-13,6
938,229,32,1018,12,55,10
939,-210,88,969,-2,71,18
940,-507,75,883,-15,34,14
941,-350,-39,935,-21,-45,-6
942,104,-135,1048,-13,-87,-8
943,461,-133,1065,1,-54,3
944,417,-31,1023,16,14,7
945,41,66,993,7,72,12
946,-357,97,931,-9,63,19
947,-487,37,890,-19,0,6
948,-190,-89,1000,-19,-67,-10
949,295,-141,1076,-6,-84,-4
950,474,-100,1029,5,-27,6
951,296,14,1006,14,43,8
952,-128,85,974,0,76,16
953,-456,87,910,-13,42,16
954,-404,-12,923,-20,-30,-2
955,3,-126,1035,-15,-83,-8
956,412,-135,1061,0,-67,3
957,442,-51,1017,11,3,6
958,136,44,1004,10,60,10
959,-273,103,956,-4,69,19
960,-495,55,887,-17,14,9
961,-277,-70,968,-22,-59,-8
962,189,-137,1066,-9,-84,-6
963,470,-118,1033,2,-42,6
964,368,-7,1023,16,30,7
965,-29,79,992,2,72,13
966,-424,95,921,-10,54,18
967,-466,7,900,-22,-16,1
968,-104,-106,1003,-16,-76,-10
969,374,-139,1073,-3,-76,0
970,486,-80,1031,11,-13,7
971,216,36,1022,13,57,9
972,-218,95,967,-3,69,18
973,-507,72,880,-18,31,14
974,-345,-47,934,-23,-47,-6
975,116,-135,1052,-10,-86,-8
976,464,-129,1065,0,-53,4
977,412,-31,1023,14,16,7
978,28,68,995,7,72,12
979,-370,99,929,-11,61,19
980,-483,29,887,-20,-2,4
981,-176,-90,1001,-18,-70,-9
982,309,-139,1076,-6,-82,-2
983,474,-103,1031,8,-26,6
984,284,17,1013,15,44,8
985,-145,88,971,-1,76,17
986,-465,81,904,-16,39,16
987,-394,-14,928,-18,-31,-3
988,22,-123,1038,-16,-83,-9
989,419,-145,1062,-1,-66,4
990,438,-45,1018,14,7,6
991,119,50,996,9,64,11
992,-285,100,955,-5,69,20
993,-496,56,892,-21,13,9
994,-263,-69,971,-20,-59,-9
995,208,-141,1066,-11,-86,-5
996,472,-122,1029,5,-40,5
997,361,-3,1024,16,32,8
998,-44,74,990,2,74,15
999,-426,92,924,-10,52,18
1000,-465,12,905,-21,-19,0
1001,-88,-112,1004,-17,-76,-10
1002,381,-138,1075,-6,-75,1
1003,480,-77,1024,12,-11,5
1004,215,39,1026,13,58,9
1005,-227,95,963,-2,70,19
1006,-510,70,880,-18,29,12
1007,-338,-46,943,-22,-48,-8
1008,130,-144,1048,-12,-88,-8
1009,471,-129,1064,4,-52,4
1010,408,-18,1024,15,19,7
1011,21,64,997,5,71,12
1012,-384,103,928,-8,61,18
1013,-485,29,888,-22,-2,3
1014,-167,-96,1002,-20,-72,-9
1015,322,-137,1074,-11,-79,-3
1016,479,-97,1033,11,-23,6
1017,271,17,1013,14,47,9
1018,-157,84,969,0,76,15
1019,-472,83,900,-17,38,16
1020,-389,-18,931,-18,-34,-3
1021,41,-124,1045,-16,-86,-8
1022,419,-133,1060,3,-64,1
1023,438,-48,1018,10,5,6
1024,104,52,995,13,65,10
1025,-298,101,953,-9,67,19
1026,-488,49,894,-17,11,8
1027,-253,-75,975,-21,-60,-8
1028,221,-143,1067,-9,-87,-5
1029,470,-113,1029,3,-36,5
1030,345,-4,1020,15,34,6
1031,-54,78,985,4,73,15
1032,-433,98,924,-12,52,18
1033,-448,-3,907,-21,-22,-1
1034,-78,-107,1013,-16,-77,-8
1035,382,-140,1066,-3,-73,0
1036,480,-74,1027,11,-9,7
1037,196,41,1021,13,59,9
1038,-233,96,965,-5,69,16
1039,-512,66,885,-19,27,12
1040,-330,-46,946,-21,-50,-7
1041,140,-138,1048,-12,-86,-7
1042,476,-131,1064,3,-51,4
1043,404,-21,1021,15,21,8
1044,14,67,997,7,71,13
1045,-393,99,926,-10,59,18
1046,-485,23,890,-21,-4,3
1047,-157,-95,1001,-18,-74,-10
1048,334,-140,1076,-5,-81,-2
1049,486,-98,1035,9,-23,6
1050,263,22,1012,16,48,9
1051,-167,87,967,-2,77,17
1052,-481,76,896,-15,36,14
1053,-381,-24,932,-22,-34,-4
1054,55,-122,1046,-13,-85,-8
1055,430,-139,1062,-1,-62,2
1056,427,-43,1015,13,8,5
1057,90,55,993,8,68,10
1058,-307,97,949,-8,66,20
1059,-489,50,890,-18,9,8
1060,-240,-74,984,-19,-61,-8
1061,236,-148,1069,-9,-88,-5
1062,467,-108,1027,7,-34,6
1063,339,5,1016,14,34,8
1064,-68,77,984,3,73,16
1065,-437,92,923,-12,51,17
1066,-441,-1,909,-22,-23,0
1067,-64,-112,1021,-16,-78,-8
1068,386,-140,1061,-5,-72,1
1069,470,-70,1023,12,-6,6
1070,193,41,1023,10,59,10
1071,-241,92,961,-3,71,18
1072,-510,68,884,-18,24,11
1073,-320,-53,941,-21,-51,-7
1074,146,-138,1053,-12,-85,-6
1075,475,-124,1060,2,-51,3
1076,403,-19,1020,17,24,6
1077,7,73,999,3,71,14
1078,-399,95,922,-9,58,19
1079,-484,26,894,-23,-5,3
1080,-149,-103,997,-19,-75,-10
1081,345,-140,1075,-5,-78,-2
1082,483,-87,1036,8,-20,6
1083,251,22,1013,12,49,8
1084,-181,96,970,-2,74,18
1085,-483,80,888,-17,35,15
1086,-370,-32,933,-23,-38,-5
1087,66,-127,1048,-12,-85,-8
1088,437,-136,1063,0,-61,3
1089,428,-45,1018,13,8,8
1090,78,60,988,9,69,12
1091,-317,99,948,-9,65,18
1092,-489,41,893,-18,7,6
1093,-227,-73,989,-21,-61,-9
1094,248,-142,1070,-9,-87,-3
1095,471,-111,1028,6,-33,5
1096,328,3,1009,15,38,6
1097,-78,80,982,3,73,16
1098,-439,92,921,-15,49,18
1099,-436,-3,911,-20,-25,-1
1100,-52,-111,1025,-17,-80,-8
1101,391,-143,1064,-3,-72,1
1102,468,-70,1020,10,-4,8
1103,178,44,1016,12,58,10
1104,-240,100,966,-5,70,20
1105,-512,58,883,-20,23,12
1106,-317,-52,952,-18,-53,-7
1107,154,-135,1049,-14,-85,-6
1108,477,-133,1054,4,-51,6
1109,395,-11,1026,17,25,8
1110,1,75,999,5,72,13
1111,-405,93,920,-11,57,18
1112,-481,29,893,-21,-8,2
1113,-141,-102,997,-19,-74,-10
1114,350,-149,1078,-6,-79,-2
1115,485,-87,1032,10,-19,7
1116,251,28,1017,13,50,9
1117,-187,88,972,-1,74,17
1118,-494,80,883,-15,35,14
1119,-364,-30,939,-23,-41,-6
1120,79,-126,1045,-12,-86,-7
1121,441,-133,1062,-1,-58,4
1122,421,-38,1024,14,9,7
1123,67,57,987,6,69,12
1124,-329,97,943,-9,65,18
1125,-486,39,889,-19,5,6
1126,-213,-77,993,-18,-63,-9
1127,256,-144,1072,-7,-86,-4
1128,472,-110,1028,8,-32,5
1129,319,14,1013,15,38,8
1130,-93,79,977,3,73,15
1131,-440,93,924,-12,45,17
1132,-428,-1,915,-21,-25,-1
1133,-38,-121,1025,-17,-80,-8
1134,394,-138,1063,-3,-70,1
1135,459,-65,1014,11,-1,6
1136,172,36,1016,11,59,11
1137,-254,99,960,-3,71,20
1138,-504,60,885,-18,20,10
1139,-305,-60,956,-21,-55,-8
1140,163,-135,1053,-10,-83,-6
1141,475,-123,1048,3,-47,5
1142,391,-9,1032,17,26,7
1143,-10,75,994,1,73,14
1144,-411,99,919,-11,56,19
1145,-478,15,899,-24,-11,2
1146,-132,-107,997,-18,-75,-10
1147,358,-140,1079,-4,-79,-1
1148,486,-88,1034,8,-18,6
1149,244,28,1013,15,53,9
1150,-202,97,974,-2,72,16
1151,-496,75,882,-15,34,14
1152,-360,-33,937,-24,-42,-6
1153,87,-127,1050,-10,-88,-9
1154,457,-137,1067,-1,-56,3
1155,415,-34,1022,15,13,7
1156,57,56,986,7,69,12
1157,-339,100,939,-7,64,20
1158,-489,36,889,-19,3,6
1159,-202,-83,998,-18,-66,-9
1160,272,-140,1073,-6,-84,-2
1161,474,-113,1029,4,-30,6
1162,309,13,1012,16,40,8
1163,-106,84,972,0,75,17
1164,-449,90,921,-12,44,16
1165,-420,-7,918,-22,-27,-3
1166,-25,-117,1031,-16,-82,-9
1167,398,-143,1061,-2,-71,1
1168,459,-61,1017,11,2,7
1169,156,46,1009,10,60,10
1170,-258,98,957,-4,70,18
1171,-503,60,890,-18,20,10
1172,-296,-59,959,-20,-57,-8
1173,173,-138,1057,-11,-85,-5
1174,475,-124,1044,3,-46,6
1175,386,-9,1024,16,26,7
1176,-14,75,998,5,73,15
1177,-421,91,920,-11,57,16
1178,-476,14,896,-20,-14,1
1179,-123,-99,1004,-18,-75,-9
1180,365,-148,1075,-4,-77,-1
1181,487,-81,1034,10,-16,7
1182,232,35,1016,13,56,10
1183,-204,89,968,-3,73,17
1184,-504,79,883,-14,33,12
1185,-354,-34,940,-23,-42,-5
1186,101,-134,1043,-13,-86,-8
1187,456,-133,1067,3,-55,3
1188,420,-33,1021,14,15,7
1189,42,59,990,7,70,12
1190,-355,99,937,-9,62,17
1191,-485,37,889,-18,2,5
1192,-193,-85,997,-19,-68,-9
1193,286,-138,1076,-5,-83,-3
1194,473,-104,1029,6,-27,6
1195,299,16,1013,15,42,8
1196,-123,82,968,1,78,16
1197,-453,82,913,-15,42,15
1198,-408,-14,921,-19,-30,-3
1199,-3,-123,1037,-17,-82,-8
1200,404,-139,1057,0,-68,1
1201,449,-54,1019,13,0,6
1202,138,47,1003,10,62,12
1203,-268,104,957,-4,68,18
1204,-496,58,894,-18,15,9
1205,-282,-68,963,-20,-57,-8
1206,186,-137,1061,-12,-86,-6
1207,471,-122,1033,6,-41,4
1208,376,-10,1028,14,30,8
1209,-29,76,993,6,71,13
1210,-422,96,920,-12,55,18
1211,-471,13,901,-21,-16,1
1212,-110,-104,1000,-18,-77,-10
1213,373,-139,1076,-4,-76,-2
1214,488,-86,1029,9,-15,6
1215,223,37,1022,15,56,8
1216,-216,94,966,-3,72,18
1217,-507,70,881,-19,31,12
1218,-350,-38,940,-19,-47,-7
1219,113,-137,1045,-13,-87,-8
1220,467,-132,1066,2,-55,5
1221,415,-29,1020,14,15,7
1222,36,67,996,8,72,12
1223,-369,100,928,-9,61,19
1224,-487,28,887,-20,0,5
1225,-182,-88,1004,-19,-70,-10
1226,301,-142,1073,-7,-83,-4
1227,477,-103,1032,7,-26,6
1228,284,18,1011,14,44,8
1229,-135,85,968,0,77,17
1230,-462,81,906,-15,41,16
1231,-400,-12,929,-20,-31,-3
1232,12,-122,1038,-16,-84,-9
1233,412,-145,1058,0,-66,2
1234,441,-50,1019,13,4,6
1235,128,47,995,11,63,10
1236,-279,97,957,-5,69,19
1237,-499,56,892,-18,14,10
1238,-270,-63,970,-18,-58,-7
1239,200,-139,1064,-13,-85,-5
1240,474,-119,1032,4,-40,4
1241,364,-4,1024,13,32,7
1242,-38,74,989,5,72,14
1243,-425,96,917,-11,54,18
1244,-465,10,908,-20,-20,0
1245,-99,-108,1006,-18,-77,-9
1246,379,-141,1072,-5,-75,0
1247,484,-77,1027,12,-11,5
1248,215,36,1024,11,57,10
1249,-224,93,963,-2,70,19
1250,-512,74,882,-17,31,14
1251,-341,-40,940,-23,-48,-7
1252,126,-139,1045,-11,-87,-8
1253,468,-126,1069,2,-53,5
1254,409,-27,1021,16,18,7
1255,24,64,1000,5,71,13
1256,-381,100,924,-9,60,18
1257,-484,28,886,-22,-2,4
1258,-170,-94,1006,-20,-72,-10
1259,319,-142,1073,-5,-83,-3
1260,480,-93,1032,7,-26,5
1261,275,18,1011,14,45,8
1262,-154,89,972,-2,76,17
1263,-474,80,901,-15,39,15
1264,-386,-22,929,-20,-34,-3
1265,34,-122,1042,-14,-84,-8
1266,420,-141,1058,0,-64,2
1267,434,-51,1022,14,5,6
1268,103,51,993,9,65,10
1269,-291,104,952,-6,66,19
1270,-491,54,894,-19,9,7
1271,-255,-73,973,-18,-59,-8
1272,218,-136,1067,-8,-86,-4
1273,466,-114,1031,4,-38,5
1274,352,-6,1018,15,34,8
1275,-57,81,986,4,74,16
1276,-432,93,920,-12,52,18
1277,-452,0,908,-20,-20,0
1278,-79,-112,1011,-16,-77,-10
1279,387,-138,1068,-4,-74,0
1280,475,-77,1025,13,-9,6
1281,202,40,1024,13,57,8
1282,-231,102,966,-3,70,18
1283,-510,65,879,-18,26,12
1284,-330,-46,946,-20,-51,-7
1285,140,-138,1047,-13,-86,-7
1286,473,-132,1061,2,-51,5
1287,402,-18,1021,16,22,8
1288,12,68,997,6,72,13
1289,-395,94,924,-9,58,19
1290,-484,26,889,-22,-4,3
1291,-151,-99,1001,-18,-74,-9
1292,336,-140,1079,-6,-80,-1
1293,482,-93,1036,10,-21,7
1294,262,25,1013,13,49,9
1295,-172,90,969,-1,75,17
1296,-482,79,892,-15,36,15
1297,-376,-22,938,-20,-36,-4
1298,58,-129,1042,-14,-86,-8
1299,434,-137,1064,0,-61,3
1300,428,-46,1019,14,8,7
1301,87,57,990,9,67,12
1302,-314,99,945,-6,66,19
1303,-488,44,894,-19,8,8
1304,-231,-70,986,-19,-62,-8
1305,243,-144,1069,-10,-86,-4
1306,466,-111,1028,6,-34,5
1307,331,5,1018,16,35,7
1308,-76,74,980,2,73,16
1309,-441,96,924,-12,49,17
1310,-434,-2,910,-21,-26,-1
1311,-54,-119,1022,-17,-78,-9
1312,388,-139,1063,-4,-72,0
1313,468,-70,1020,12,-5,5
1314,182,40,1021,11,59,11
1315,-244,96,960,-4,70,19
1316,-508,72,888,-16,23,11
1317,-317,-52,950,-22,-54,-8
1318,156,-137,1050,-10,-84,-5
1319,476,-128,1055,3,-49,5
1320,398,-20,1026,16,25,8
1321,0,69,998,6,73,14
1322,-409,96,921,-9,57,18
1323,-482,21,892,-22,-8,3
1324,-140,-103,1000,-18,-76,-9
1325,352,-139,1078,-3,-78,-1
1326,489,-86,1035,9,-20,5
1327,250,25,1014,13,52,9
1328,-190,90,968,-4,74,18
1329,-494,81,887,-15,35,14
1330,-366,-39,935,-22,-39,-5
1331,77,-130,1047,-12,-87,-8
1332,446,-133,1063,1,-59,3
1333,424,-42,1022,14,10,7
1334,63,63,992,10,69,12
1335,-335,101,938,-8,63,19
1336,-486,37,892,-21,4,7
1337,-212,-75,995,-20,-64,-8
1338,266,-144,1073,-9,-85,-4
1339,470,-114,1027,6,-29,6
1340,312,12,1014,13,37,7
1341,-101,78,972,3,76,15
1342,-444,87,923,-13,45,17
1343,-422,-3,911,-17,-28,-1
1344,-25,-117,1030,-16,-80,-10
1345,400,-141,1062,-3,-69,1
1346,457,-59,1021,12,-1,7
1347,157,45,1012,10,62,11
1348,-256,102,960,-3,70,19
1349,-503,55,888,-21,20,10
1350,-297,-58,956,-20,-54,-8
1351,174,-139,1058,-8,-84,-6
1352,475,-128,1040,4,-44,4
1353,383,-5,1026,18,29,8
1354,-12,75,995,4,71,13
1355,-418,93,920,-13,57,19
1356,-477,18,899,-19,-13,2
1357,-120,-105,999,-22,-76,-10
1358,364,-143,1077,-2,-76,-1
1359,483,-83,1031,7,-18,4
1360,233,32,1018,18,54,8
1361,-211,93,972,-6,71,17
1362,-503,73,877,-12,31,13
1363,-350,-32,940,-25,-44,-6
1364,107,-136,1049,-10,-86,-8
1365,461,-131,1067,-1,-55,3
1366,416,-27,1022,16,16,7
1367,39,59,992,5,71,13
1368,-362,101,929,-7,61,17
1369,-485,29,890,-19,1,5
1370,-184,-88,1003,-20,-69,-10
1371,296,-142,1073,-5,-83,-3
1372,473,-103,1028,4,-26,6
1373,288,19,1011,16,42,9
1374,-132,83,970,-3,76,17
1375,-460,84,910,-13,40,16
1376,-402,-14,926,-22,-31,-2
1377,12,-124,1039,-17,-84,-9
1378,409,-142,1059,-2,-66,3
1379,442,-51,1020,12,4,6
1380,125,47,999,9,64,9
1381,-279,99,953,-5,69,18
1382,-498,58,894,-18,13,9
1383,-271,-71,969,-20,-59,-8
1384,201,-138,1067,-9,-86,-6
1385,468,-115,1029,3,-41,6
1386,368,-8,1023,14,32,8
1387,-41,79,989,3,73,15
1388,-426,94,918,-10,54,17
1389,-461,5,907,-21,-19,-1
1390,-98,-109,1003,-16,-78,-10
1391,379,-140,1071,-5,-75,1
1392,480,-76,1030,13,-10,6
1393,216,34,1023,13,56,9
1394,-224,97,967,-1,70,19
1395,-512,67,880,-19,29,12
1396,-336,-45,940,-21,-48,-7
1397,128,-134,1049,-13,-86,-7
1398,474,-131,1068,0,-53,4
1399,408,-21,1021,17,18,8
1400,20,69,998,2,72,14
1401,-386,96,924,-10,60,19
1402,-484,27,887,-21,-2,4
1403,-165,-93,1003,-17,-71,-11
1404,326,-140,1075,-5,-81,-2
1405,482,-98,1036,7,-23,6
1406,265,17,1010,15,47,7
1407,-160,89,969,0,75,17
1408,-479,79,899,-14,38,16
1409,-382,-22,930,-23,-36,-5
1410,47,-121,1044,-12,-85,-8
1411,427,-136,1065,-3,-60,3
1412,430,-48,1014,13,8,6
1413,91,58,990,10,66,11
1414,-303,94,949,-6,67,19
1415,-490,49,896,-17,8,8
1416,-241,-70,980,-21,-60,-9
1417,235,-144,1071,-10,-86,-4
1418,469,-112,1027,3,-35,6
1419,336,5,1013,15,36,6
1420,-71,77,985,3,73,16
1421,-436,94,923,-12,50,18
1422,-441,-1,907,-20,-24,-2
1423,-59,-110,1024,-15,-79,-9
1424,387,-140,1061,-4,-72,0
1425,469,-66,1023,12,-4,7
1426,186,44,1020,11,59,10
1427,-242,90,959,-4,70,18
1428,-509,65,888,-20,23,12
1429,-319,-54,947,-22,-53,-8
1430,156,-141,1050,-11,-86,-6
1431,475,-123,1055,2,-49,4
1432,398,-17,1021,15,25,7
1433,0,72,1000,5,72,13
1434,-407,99,920,-10,58,18
1435,-482,24,895,-22,-8,2
1436,-140,-104,1001,-19,-75,-10
1437,350,-143,1076,-7,-79,-3
1438,490,-87,1036,9,-19,6
1439,246,25,1017,15,51,8
1440,-191,92,969,-1,73,16
1441,-494,78,884,-14,35,14
1442,-365,-31,939,-23,-41,-5
1443,83,-128,1044,-9,-86,-8
1444,446,-131,1066,0,-57,4
1445,426,-38,1021,13,11,7
1446,58,62,992,8,70,12
1447,-340,96,937,-9,65,20
1448,-486,37,895,-18,4,7
1449,-209,-86,993,-21,-66,-9
1450,272,-139,1074,-6,-86,-3
1451,468,-104,1028,4,-30,6
1452,310,7,1010,16,38,7
1453,-109,83,973,1,75,16
1454,-446,89,922,-12,44,16
1455,-418,-11,918,-23,-28,-1
1456,-16,-116,1032,-17,-82,-9
1457,403,-139,1060,-1,-70,0
1458,452,-60,1018,11,1,6
1459,149,47,1006,10,60,10
1460,-265,104,960,-4,70,20
1461,-497,56,890,-18,18,10
1462,-292,-61,961,-18,-56,-9
1463,182,-139,1061,-12,-85,-6
1464,477,-128,1039,4,-43,6
1465,378,-7,1024,16,32,8
1466,-23,79,995,3,72,14
1467,-424,94,919,-12,55,19
1468,-472,15,901,-22,-15,1
1469,-111,-104,1001,-17,-76,-11
1470,370,-143,1077,-5,-78,0
1471,485,-81,1033,12,-13,5
1472,224,33,1019,11,55,8
1473,-213,90,969,-4,71,18
1474,-509,75,882,-16,32,14
1475,-348,-42,936,-21,-46,-5
1476,117,-133,1051,-11,-87,-8
1477,470,-130,1066,1,-53,4
1478,413,-26,1023,17,16,6
1479,31,66,996,5,72,12
1480,-371,100,925,-8,62,19
1481,-487,30,887,-21,-1,5
1482,-169,-90,1002,-17,-72,-9
1483,310,-143,1074,-7,-84,-2
1484,478,-101,1034,7,-26,6
1485,280,22,1014,14,45,8
1486,-151,79,967,-2,75,16
1487,-466,82,904,-14,38,16
1488,-392,-15,929,-19,-32,-3
1489,34,-126,1041,-17,-85,-8
1490,420,-134,1061,0,-64,2
1491,434,-43,1020,12,6,6
1492,108,46,994,8,64,12
1493,-293,102,954,-5,69,19
1494,-489,47,891,-19,10,8
1495,-252,-76,978,-20,-59,-8
1496,220,-144,1069,-8,-85,-5
1497,470,-118,1026,7,-38,5
1498,346,2,1019,17,34,8
1499,-56,77,985,1,73,15
1500,-436,98,925,-9,51,18
1501,-445,3,911,-21,-23,-2
1502,-69,-115,1013,-16,-78,-9
1503,382,-137,1065,-6,-73,0
1504,472,-71,1023,13,-6,6
1505,196,35,1023,10,57,9
1506,-238,95,960,-2,70,19
1507,-508,64,887,-18,26,11
1508,-324,-55,943,-21,-52,-7
1509,147,-135,1051,-10,-86,-7
1510,479,-126,1057,3,-50,4
1511,399,-17,1022,15,22,8
1512,7,72,1001,5,72,14
1513,-401,95,918,-10,59,18
1514,-482,21,890,-22,-8,3
1515,-146,-101,1004,-17,-73,-11
1516,349,-139,1074,-4,-78,-1
1517,485,-91,1037,8,-22,7
1518,250,25,1014,14,51,9
1519,-189,95,969,-2,73,17
1520,-494,74,888,-17,34,15
1521,-364,-32,935,-20,-38,-5
1522,75,-126,1048,-11,-86,-8
1523,448,-139,1065,1,-59,2
1524,422,-34,1022,16,11,7
1525,64,61,985,9,69,12
1526,-331,97,941,-9,64,20
1527,-489,39,888,-18,6,7
1528,-214,-81,992,-20,-64,-9
1529,269,-142,1073,-7,-85,-4
1530,472,-107,1030,7,-30,6
1531,313,11,1012,15,38,6
1532,-100,83,977,1,76,16
1533,-448,87,921,-13,45,17
1534,-418,-5,916,-21,-28,-2
1535,-23,-111,1035,-15,-79,-9
1536,400,-144,1057,-5,-70,1
1537,453,-60,1020,12,0,5
1538,154,43,1007,11,60,11
1539,-258,93,957,-4,69,19
1540,-500,60,891,-16,18,10
1541,-293,-57,958,-20,-55,-8
1542,180,-140,1064,-11,-85,-5
1543,473,-120,1040,4,-45,5
1544,381,-9,1022,16,28,7
1545,-23,73,1002,3,71,14
1546,-418,92,915,-11,56,18
1547,-470,12,900,-21,-15,2
1548,-114,-104,1001,-17,-76,-9
1549,369,-143,1074,-4,-76,-1
1550,483,-74,1035,11,-16,6
1551,228,32,1018,12,55,9
1552,-210,99,970,-2,70,17
1553,-508,74,877,-18,31,13
1554,-345,-44,941,-21,-44,-6
1555,112,-139,1046,-10,-86,-7
1556,467,-132,1066,4,-55,3
1557,414,-26,1023,16,16,8
1558,31,67,992,6,71,13
1559,-372,100,930,-9,61,18
1560,-486,36,890,-20,0,4
1561,-172,-96,998,-19,-71,-8
1562,309,-138,1077,-4,-81,-2
1563,478,-100,1031,7,-25,5
1564,278,15,1011,13,45,7
1565,-149,85,970,-1,76,16
1566,-465,78,903,-15,37,15
1567,-391,-23,925,-20,-33,-3
1568,31,-119,1045,-13,-84,-9
1569,420,-137,1055,-1,-65,2
1570,435,-43,1021,12,6,7
1571,106,53,993,9,65,10
1572,-291,100,951,-7,66,18
1573,-492,49,895,-20,11,9
1574,-252,-74,974,-20,-60,-8
1575,221,-139,1067,-9,-86,-4
1576,468,-119,1031,2,-37,6
1577,347,0,1019,16,34,7
1578,-62,80,983,5,73,15
1579,-429,91,921,-11,50,18
1580,-445,5,911,-19,-22,-1
1581,-70,-110,1018,-18,-78,-11
1582,385,-136,1065,-4,-74,0
1583,471,-73,1021,10,-7,6
1584,194,37,1017,11,59,9
1585,-239,97,966,-2,70,17
1586,-510,60,883,-17,24,10
1587,-323,-50,948,-20,-52,-8
1588,149,-136,1048,-10,-86,-7
1589,477,-129,1062,1,-49,5
1590,397,-12,1025,19,25,6
1591,4,73,998,5,69,13
1592,-404,94,916,-10,58,19
1593,-481,21,892,-21,-8,3
1594,-141,-100,999,-18,-74,-9
1595,350,-145,1080,-6,-77,-1
1596,484,-91,1033,8,-20,6
1597,248,30,1015,14,50,9
1598,-191,87,970,-2,74,18
1599,-491,71,885,-16,34,15
1600,-363,-27,937,-19,-41,-4
1601,84,-130,1047,-15,-86,-7
1602,448,-132,1065,1,-57,4
1603,420,-33,1025,12,11,6
1604,59,55,989,5,69,12
1605,-340,99,938,-8,63,19
1606,-487,38,889,-18,4,5
1607,-204,-86,998,-20,-67,-8
1608,273,-141,1075,-6,-85,-1
1609,469,-106,1027,5,-27,7
1610,303,18,1010,17,39,10
1611,-110,83,974,0,75,16
1612,-448,84,917,-13,44,17
1613,-413,-6,923,-20,-29,-2
1614,-11,-122,1032,-17,-82,-9
1615,400,-142,1059,-3,-68,2
1616,451,-54,1018,12,1,7
1617,142,37,1003,8,62,9
1618,-269,97,960,-4,68,19
1619,-498,60,893,-20,16,10
1620,-285,-67,963,-20,-56,-7
1621,191,-137,1064,-10,-86,-5
1622,469,-116,1033,5,-43,5
1623,373,-8,1024,14,31,7
1624,-30,76,990,4,71,14
1625,-423,92,921,-10,55,18
1626,-468,6,904,-21,-16,0
1627,-104,-112,1002,-16,-76,-9
1628,373,-137,1074,-4,-75,-1
1629,485,-80,1031,10,-12,6
1630,218,35,1022,13,55,8
1631,-219,97,962,-1,72,17
1632,-508,71,881,-14,28,12
1633,-342,-44,943,-21,-48,-7
1634,121,-134,1049,-11,-84,-6
1635,469,-128,1066,2,-54,5
1636,414,-28,1023,14,18,8
1637,25,67,995,6,73,12
1638,-380,98,928,-11,59,18
1639,-486,22,885,-20,-1,4
1640,-168,-93,1003,-18,-72,-10
1641,321,-135,1074,-4,-82,-3
1642,482,-97,1034,7,-24,7
1643,272,21,1009,15,45,8
1644,-154,92,970,-1,74,17
1645,-473,79,899,-16,38,15
1646,-384,-22,929,-20,-34,-4
1647,42,-122,1047,-15,-85,-9
1648,427,-139,1060,0,-62,4
1649,429,-45,1018,13,6,6
1650,96,54,991,11,66,11
1651,-303,96,952,-7,65,19
1652,-491,48,895,-17,8,7
1653,-240,-68,981,-20,-60,-9
1654,233,-141,1070,-10,-87,-4
1655,469,-114,1025,5,-35,5
1656,337,4,1018,14,35,6
1657,-72,76,984,1,73,15
1658,-436,91,920,-11,49,18
1659,-443,-4,909,-20,-24,-1
1660,-56,-114,1022,-15,-81,-8
1661,386,-138,1065,-3,-72,1
1662,470,-69,1021,11,-5,6
1663,187,45,1020,12,59,10
1664,-246,96,961,-5,71,18
1665,-505,63,884,-17,23,11
1666,-318,-48,952,-21,-53,-7
1667,155,-144,1051,-13,-85,-6
1668,477,-122,1054,2,-49,5
1669,392,-11,1023,16,25,7
1670,3,70,1000,3,71,15
1671,-410,99,923,-9,56,19
1672,-480,19,892,-22,-8,3
1673,-135,-105,1001,-18,-75,-9
1674,352,-145,1077,-6,-78,-1
1675,490,-82,1035,10,-19,6
1676,244,25,1015,13,52,9
1677,-196,94,972,-1,73,16
1678,-497,78,880,-17,34,13
1679,-358,-37,941,-22,-41,-5
1680,91,-130,1047,-12,-85,-9
1681,451,-133,1064,1,-57,3
1682,417,-34,1024,14,12,7
1683,50,61,987,7,71,11
1684,-347,100,939,-7,62,17
1685,-487,37,888,-20,4,5
1686,-196,-91,999,-19,-66,-9
1687,277,-141,1072,-11,-84,-2
1688,474,-102,1031,2,-28,6
1689,300,12,1010,13,39,8
1690,-121,83,973,1,76,17
1691,-453,88,914,-11,42,17
1692,-408,-13,920,-26,-30,-3
1693,-2,-120,1036,-12,-82,-10
1694,406,-134,1057,-6,-67,2
1695,447,-60,1016,15,4,7
1696,138,48,1007,7,63,10
1697,-270,101,954,-2,69,18
1698,-495,50,890,-22,14,8
1699,-280,-65,968,-17,-57,-7
1700,195,-138,1062,-12,-87,-6
1701,468,-122,1033,5,-42,5
1702,371,-4,1022,14,30,8
1703,-34,80,991,5,73,15
1704,-425,92,921,-11,53,19
1705,-464,10,903,-22,-16,1
1706,-99,-108,1007,-16,-78,-10
1707,374,-146,1070,-6,-77,-1
1708,482,-80,1028,14,-10,6
1709,214,36,1022,12,57,9
1710,-222,95,966,-1,71,18
1711,-509,71,882,-18,30,12
1712,-340,-40,941,-21,-49,-7
1713,129,-138,1046,-11,-86,-7
1714,471,-130,1067,1,-53,4
1715,409,-25,1022,16,19,6
1716,21,73,997,7,72,12
1717,-387,95,923,-10,59,18
1718,-487,23,886,-20,-3,4
1719,-163,-93,1006,-17,-71,-9
1720,326,-146,1073,-5,-81,-4
1721,481,-95,1036,8,-22,6
1722,269,29,1012,15,47,8
1723,-164,88,969,-2,73,18
1724,-477,80,895,-17,38,16
1725,-379,-19,931,-19,-34,-5
1726,48,-126,1047,-15,-86,-9
1727,431,-141,1061,-1,-61,1
1728,427,-43,1022,14,7,5
1729,92,51,990,9,65,10
1730,-308,101,949,-5,66,18
1731,-493,46,889,-18,7,7
1732,-235,-76,982,-19,-61,-10
1733,239,-138,1071,-8,-86,-6
1734,471,-109,1027,6,-35,5
1735,336,3,1018,15,35,7
1736,-76,80,980,1,75,15
1737,-436,86,922,-12,49,17
1738,-436,0,914,-19,-23,-1
1739,-54,-118,1016,-18,-80,-10
1740,387,-137,1066,-3,-73,1
1741,468,-66,1020,11,-4,8
1742,182,38,1017,11,58,10
1743,-250,100,964,-3,71,18
1744,-504,60,884,-20,23,11
1745,-316,-54,950,-22,-53,-8
1746,156,-138,1054,-11,-84,-7
1747,478,-124,1055,5,-48,5
1748,393,-17,1025,14,25,8
1749,-2,71,998,5,73,14
1750,-410,100,921,-11,57,18
1751,-478,18,894,-22,-10,3
1752,-135,-104,999,-18,-74,-10
1753,355,-140,1077,-3,-79,-2
1754,485,-89,1036,10,-18,6
1755,243,33,1016,15,52,9
1756,-195,100,968,-2,72,17
1757,-497,75,882,-18,36,14
1758,-361,-32,941,-23,-42,-5
1759,89,-136,1042,-13,-88,-7
1760,452,-133,1070,1,-57,5
1761,421,-40,1017,16,12,6
1762,53,59,990,7,69,12
1763,-346,105,938,-7,64,18
1764,-486,37,889,-19,3,7
1765,-201,-82,998,-20,-66,-9
1766,281,-137,1077,-7,-85,-3
1767,472,-111,1026,4,-29,6
1768,303,12,1011,16,40,7
1769,-115,84,972,0,76,16
1770,-452,83,916,-14,42,15
1771,-416,-10,923,-21,-29,-2
1772,-9,-118,1035,-14,-83,-9
1773,406,-141,1059,-1,-69,2
1774,449,-57,1019,11,2,6
1775,151,50,1005,11,60,10
1776,-271,98,957,-6,70,19
1777,-502,55,890,-19,16,9
1778,-287,-56,961,-19,-57,-8
1779,187,-143,1062,-12,-86,-7
1780,476,-127,1039,4,-43,5
1781,371,-5,1021,16,31,7
1782,-24,78,997,5,71,14
1783,-422,96,918,-11,55,19
1784,-469,11,903,-21,-16,1
1785,-104,-108,1001,-17,-76,-9
1786,373,-139,1076,-6,-75,0
1787,483,-79,1029,11,-14,5
1788,221,34,1021,12,57,9
1789,-216,92,966,-2,71,17
1790,-509,70,882,-18,31,13
1791,-344,-38,937,-20,-47,-7
1792,118,-137,1048,-12,-87,-7
1793,466,-134,1064,1,-54,3
1794,413,-25,1026,17,16,7
1795,24,70,995,5,72,13
1796,-373,97,926,-10,60,19
1797,-484,34,889,-21,-2,4
1798,-171,-99,1002,-21,-70,-9
1799,313,-142,1077,-4,-80,-2
1800,479,-96,1032,8,-25,7
1801,275,15,1008,13,46,9
1802,-155,87,974,-1,75,15
1803,-469,82,897,-13,38,16
1804,-388,-19,934,-19,-32,-3
1805,38,-122,1042,-15,-86,-8
1806,424,-137,1059,0,-63,1
1807,434,-46,1021,11,5,6
1808,105,51,991,10,65,10
1809,-297,102,954,-5,67,19
1810,-490,48,892,-19,8,8
1811,-247,-74,977,-21,-61,-9
1812,222,-137,1069,-9,-86,-5
1813,469,-116,1027,5,-36,6
1814,347,3,1021,16,34,8
1815,-61,82,984,2,74,16
1816,-433,93,921,-13,50,17
1817,-449,-2,912,-23,-23,-1
1818,-68,-116,1015,-16,-76,-10
1819,386,-143,1066,-5,-72,0
1820,473,-72,1023,14,-7,6
1821,193,38,1022,12,58,9
1822,-239,99,961,-3,70,17
1823,-510,63,885,-18,26,12
1824,-321,-50,945,-21,-52,-6
1825,148,-135,1052,-10,-85,-8
1826,477,-133,1059,2,-49,4
1827,400,-12,1024,16,23,7
1828,6,72,997,6,70,12
1829,-403,97,923,-10,59,19
1830,-487,21,890,-23,-7,3
1831,-143,-104,998,-19,-75,-10
1832,348,-141,1077,-4,-78,-1
1833,488,-89,1040,10,-20,5
1834,251,30,1011,16,51,7
1835,-186,94,973,-3,74,18
1836,-492,76,886,-16,35,14
1837,-365,-24,934,-19,-39,-6
1838,77,-130,1046,-14,-86,-9
1839,447,-141,1064,0,-58,4
1840,421,-37,1022,14,12,8
1841,62,59,987,8,68,11
1842,-330,99,941,-7,64,18
1843,-488,39,892,-19,5,6
1844,-210,-82,995,-17,-64,-10
1845,267,-140,1075,-8,-84,-3
1846,473,-108,1025,6,-30,6
1847,312,12,1011,14,38,7
1848,-104,77,973,0,76,16
1849,-450,88,920,-14,46,16
1850,-419,-5,918,-20,-29,-1
1851,-21,-121,1032,-16,-81,-8
1852,400,-143,1060,-4,-70,2
1853,456,-60,1019,14,0,6
1854,155,43,1010,12,62,9
1855,-265,98,957,-3,70,18
1856,-503,64,889,-17,19,11
1857,-294,-62,958,-22,-56,-7
1858,180,-138,1063,-9,-86,-6
1859,473,-119,1035,3,-44,6
1860,384,-12,1023,16,28,8
1861,-21,73,997,4,71,15
1862,-421,94,916,-9,56,19
1863,-473,15,898,-22,-16,2
1864,-117,-103,1004,-16,-76,-9
1865,369,-141,1072,-4,-75,-1
1866,486,-80,1033,10,-14,7
1867,226,33,1023,15,56,8
1868,-210,94,965,-3,71,18
1869,-508,76,882,-16,31,14
1870,-347,-47,938,-23,-45,-7
1871,111,-133,1046,-11,-86,-8
1872,466,-129,1068,1,-55,4
1873,418,-31,1019,14,16,7
1874,32,67,998,7,72,12
1875,-373,100,931,-8,60,18
1876,-486,31,888,-21,0,6
1877,-178,-97,999,-19,-70,-9
1878,308,-140,1076,-6,-81,-2
1879,477,-102,1034,6,-25,8
1880,281,16,1011,15,43,8
1881,-146,93,971,2,75,16
1882,-465,77,907,-16,39,16
1883,-395,-16,929,-20,-32,-3
1884,26,-120,1039,-15,-85,-9
1885,420,-138,1064,0,-65,2
1886,435,-50,1013,12,5,6
1887,112,51,998,10,65,11
1888,-292,96,951,-7,67,18
1889,-492,50,896,-17,11,7
1890,-258,-67,975,-19,-58,-8
1891,216,-140,1066,-10,-86,-4
1892,469,-118,1028,5,-36,6
1893,351,2,1021,15,33,7
1894,-53,80,983,5,74,15
1895,-433,90,924,-13,51,17
1896,-452,3,907,-19,-23,0
1897,-77,-108,1017,-18,-79,-9
1898,386,-147,1064,-4,-74,1
1899,474,-72,1029,11,-8,7
1900,197,43,1018,11,58,11
1901,-234,98,964,-4,71,19
1902,-513,67,883,-20,25,11
1903,-323,-51,941,-20,-52,-7
1904,144,-136,1055,-12,-86,-6
1905,476,-127,1058,2,-51,5
1906,402,-18,1024,16,23,7
1907,7,70,998,4,72,14
1908,-400,96,919,-11,59,19
1909,-485,25,889,-21,-6,3
1910,-149,-100,1005,-19,-75,-9
1911,344,-147,1075,-4,-80,-2
1912,486,-87,1037,9,-20,6
1913,253,24,1013,13,50,8
1914,-183,86,968,-2,76,17
1915,-494,84,888,-13,37,15
1916,-367,-29,935,-24,-40,-5
1917,76,-127,1045,-11,-86,-7
1918,443,-132,1064,-1,-59,4
1919,425,-40,1023,16,10,7
1920,66,58,990,8,70,12
1921,-329,96,939,-8,64,18
1922,-488,42,892,-17,5,7
1923,-215,-85,988,-20,-64,-10
1924,264,-138,1078,-4,-86,-5
1925,470,-105,1026,4,-31,6
1926,318,8,1010,16,39,9
1927,-101,84,975,1,75,15
1928,-443,91,920,-11,45,17
1929,-422,-6,919,-22,-27,-1
1930,-27,-118,1029,-16,-81,-9
1931,398,-139,1057,-5,-69,2
1932,457,-64,1020,12,0,7
1933,157,38,1009,10,62,11
1934,-260,98,959,-3,69,18
1935,-503,56,887,-18,18,11
1936,-296,-60,959,-21,-56,-8
1937,175,-129,1060,-10,-85,-7
1938,473,-123,1043,3,-46,5
1939,383,-4,1026,17,29,8
1940,-21,77,996,3,72,14
1941,-420,92,920,-11,56,19
1942,-471,13,901,-21,-14,1
1943,-115,-115,998,-18,-77,-11
1944,369,-143,1076,-3,-77,0
1945,486,-84,1033,10,-16,6
1946,230,36,1020,16,56,8
1947,-212,97,968,-3,72,18
1948,-509,73,883,-17,33,14
1949,-346,-35,937,-23,-45,-6
1950,110,-132,1049,-10,-87,-8
1951,466,-134,1065,0,-55,3
1952,413,-33,1025,14,16,6
1953,30,64,992,6,72,12
1954,-369,97,929,-11,60,19
1955,-489,30,886,-20,0,6
1956,-180,-89,1000,-17,-71,-9
1957,308,-138,1075,-6,-83,-3
1958,479,-102,1032,8,-26,6
1959,283,22,1009,14,45,8
1960,-145,86,971,-2,76,17
1961,-468,81,903,-16,40,16
1962,-394,-13,928,-20,-32,-3
1963,24,-123,1041,-17,-84,-9
1964,420,-144,1060,-1,-66,2
1965,434,-48,1019,12,6,6
1966,111,49,995,8,64,12
1967,-292,98,953,-6,67,17
1968,-494,56,895,-16,11,7
1969,-255,-69,970,-18,-60,-9
1970,219,-139,1075,-10,-88,-5
1971,469,-113,1027,5,-36,6
1972,353,1,1016,14,35,7
1973,-57,76,987,2,73,14
1974,-434,90,920,-12,51,17
1975,-451,2,905,-20,-21,-2
1976,-73,-112,1015,-18,-78,-10
1977,382,-145,1065,-3,-74,0
1978,475,-70,1025,13,-6,7
1979,197,40,1020,12,57,9
1980,-235,96,961,-5,71,16
1981,-509,74,885,-18,27,12
1982,-325,-52,942,-21,-52,-5
1983,147,-138,1054,-11,-84,-7
1984,473,-129,1058,2,-51,4
1985,403,-23,1026,16,21,7
1986,9,71,999,5,72,13
1987,-403,99,920,-8,59,19
1988,-482,24,890,-21,-5,4
1989,-151,-97,1003,-17,-74,-10
1990,343,-141,1074,-6,-80,-2
1991,489,-89,1040,11,-21,7
1992,250,23,1012,14,51,8
1993,-183,93,970,-1,74,15
1994,-491,80,887,-18,36,14
1995,-367,-30,935,-22,-39,-4
1996,71,-126,1046,-11,-86,-7
1997,445,-140,1065,-1,-59,4
1998,424,-41,1022,14,9,7
1999,68,57,987,8,68,11
2000,-325,98,943,-7,64,19
2001,-489,40,892,-18,5,7
2002,-216,-78,989,-20,-64,-9
2003,264,-137,1074,-7,-87,-5
2004,472,-107,1029,5,-31,6
2005,315,8,1011,13,39,8
2006,-99,82,977,1,74,15
2007,-443,81,918,-15,45,16
2008,-423,-9,918,-20,-27,-2
2009,-28,-115,1028,-17,-81,-10
2010,399,-146,1061,-3,-70,1
2011,453,-57,1020,14,0,7
2012,159,50,1010,11,59,9
2013,-260,98,957,-6,70,18
2014,-503,60,890,-18,18,9
2015,-295,-59,957,-21,-56,-8
2016,176,-142,1059,-9,-85,-7
2017,476,-127,1040,3,-45,5
2018,382,-7,1025,16,29,6
2019,-23,73,997,2,72,14
2020,-421,95,920,-10,57,18
2021,-476,15,896,-22,-14,2
2022,-115,-108,999,-17,-77,-10
2023,369,-145,1079,-4,-77,-1
2024,484,-78,1035,11,-15,7
2025,234,37,1018,12,53,9
2026,-210,93,967,-2,72,18
2027,-506,73,879,-18,32,12
2028,-349,-36,942,-20,-46,-5
2029,110,-136,1048,-13,-86,-7
2030,465,-132,1065,3,-54,4
2031,416,-28,1019,11,15,7
2032,36,63,994,9,70,12
2033,-371,100,930,-11,61,18
2034,-484,37,888,-16,0,5
2035,-177,-91,1002,-21,-70,-11
2036,305,-143,1071,-4,-84,-4
2037,477,-97,1034,5,-25,5
2038,284,18,1011,17,44,10
2039,-146,86,968,-2,74,15
2040,-465,85,905,-12,41,16
2041,-397,-20,928,-22,-33,-4
2042,24,-125,1042,-13,-84,-9
2043,415,-136,1059,-1,-63,1
2044,438,-49,1023,11,5,5
2045,112,47,993,11,64,10
2046,-291,99,954,-6,68,19
2047,-491,49,894,-18,11,10
2048,-256,-72,974,-21,-59,-8
2049,215,-136,1068,-8,-85,-6
2050,469,-119,1028,3,-38,4
2051,357,-3,1021,15,33,8
2052,-54,79,984,2,73,15
2053,-432,93,925,-10,52,18
2054,-452,3,907,-23,-21,0
2055,-79,-112,1011,-15,-77,-9
2056,384,-137,1069,-3,-74,-1
2057,477,-75,1023,12,-8,7
2058,200,40,1025,12,58,9
2059,-233,99,962,-2,70,18
2060,-508,66,881,-17,27,12
2061,-327,-44,950,-20,-51,-7
2062,142,-139,1045,-13,-86,-7
2063,477,-128,1062,3,-51,4
2064,401,-23,1024,15,23,6
2065,10,72,996,7,73,14
2066,-399,97,923,-9,59,19
2067,-486,22,890,-20,-5,5
2068,-149,-97,1001,-17,-75,-10
2069,341,-142,1076,-4,-79,-2
2070,488,-98,1036,8,-21,7
2071,256,32,1016,16,50,8
2072,-181,90,968,-4,74,15
2073,-489,77,889,-14,34,15
2074,-368,-27,934,-22,-38,-4
2075,70,-131,1045,-12,-87,-8
2076,443,-134,1066,0,-60,3
2077,426,-42,1015,15,9,6
2078,73,59,992,7,68,12
2079,-326,99,943,-11,65,20
2080,-489,38,893,-18,6,5
2081,-219,-76,991,-20,-63,-9
2082,259,-144,1072,-9,-86,-4
2083,471,-111,1030,4,-32,6
2084,316,15,1012,15,38,8
2085,-96,76,976,3,75,16
2086,-443,90,923,-11,45,17
2087,-426,-2,914,-20,-27,-1
2088,-25,-120,1028,-18,-81,-9
2089,394,-140,1063,-1,-69,1
2090,460,-59,1019,11,0,7
2091,161,41,1012,12,61,11
2092,-259,98,960,-4,70,18
2093,-503,60,886,-17,19,10
2094,-299,-57,959,-23,-55,-7
2095,174,-140,1057,-9,-85,-6
2096,475,-121,1044,4,-46,5
2097,384,-13,1023,15,29,8
2098,-17,73,1000,5,73,13
2099,-422,97,919,-11,56,18
2100,-476,10,896,-22,-14,2
2101,-120,-107,1001,-17,-76,-9
2102,367,-144,1073,-5,-77,-2
2103,489,-80,1033,11,-16,6
2104,231,35,1021,14,55,9
2105,-211,94,968,-2,72,17
2106,-508,77,880,-17,32,14
2107,-352,-38,938,-21,-44,-6
2108,109,-138,1046,-12,-88,-8
2109,462,-132,1067,2,-55,4
2110,419,-33,1024,15,15,7
2111,38,61,991,8,73,12
2112,-366,100,928,-8,61,18
2113,-487,33,890,-18,1,4
2114,-186,-89,1001,-19,-69,-10
2115,306,-134,1073,-6,-84,-2
2116,480,-99,1032,7,-27,5
2117,287,16,1012,14,45,8
2118,-140,89,969,1,75,16
2119,-467,82,906,-14,41,17
2120,-396,-21,927,-21,-32,-3
2121,18,-121,1039,-13,-84,-10
2122,417,-140,1063,0,-64,1
2123,440,-53,1015,13,5,7
2124,118,53,996,10,64,11
2125,-286,101,956,-7,69,19
2126,-496,50,896,-19,10,9
2127,-262,-68,970,-18,-59,-8
2128,212,-137,1068,-12,-86,-4
2129,473,-120,1030,3,-39,7
2130,356,0,1022,16,35,6
2131,-51,76,987,4,74,14
2132,-432,93,922,-12,51,19
2133,-457,1,904,-23,-20,0
2134,-82,-109,1009,-16,-77,-10
2135,384,-141,1070,-5,-74,-1
2136,477,-77,1024,11,-8,6
2137,205,45,1022,14,58,9
2138,-231,97,963,-4,70,19
2139,-512,65,881,-18,27,11
2140,-332,-42,945,-21,-51,-9
2141,143,-140,1050,-13,-86,-5
2142,477,-134,1060,2,-51,4
2143,403,-17,1022,17,22,6
2144,12,65,1000,4,72,14
2145,-397,98,922,-9,58,19
2146,-487,29,892,-21,-5,3
2147,-148,-96,1001,-17,-74,-10
2148,339,-138,1079,-5,-81,-2
2149,488,-92,1036,9,-22,6
2150,259,25,1010,15,50,9
2151,-180,89,971,-3,74,18
2152,-488,74,886,-15,37,15
2153,-374,-30,939,-20,-39,-4
2154,66,-131,1044,-14,-86,-7
2155,439,-135,1062,2,-60,3
2156,424,-36,1022,15,8,5
2157,74,58,987,6,68,10
2158,-323,100,947,-7,66,19
2159,-486,43,892,-19,5,6
2160,-218,-85,988,-19,-63,-9
2161,257,-145,1074,-8,-85,-4
2162,465,-106,1028,7,-32,5
2163,320,6,1011,13,38,8
2164,-93,81,974,3,75,16
2165,-443,94,923,-12,47,17
2166,-426,-5,916,-21,-27,-2
2167,-35,-115,1030,-17,-79,-9
2168,395,-139,1058,-3,-71,0
2169,461,-62,1020,14,-3,7
2170,162,41,1013,9,60,10
2171,-254,99,956,-2,69,19
2172,-505,62,890,-18,19,11
2173,-301,-62,955,-19,-56,-8
2174,174,-133,1057,-10,-85,-6
2175,475,-125,1043,3,-45,5
2176,389,-15,1024,16,28,7
2177,-17,77,997,6,72,15
2178,-420,93,918,-12,57,18
2179,-474,12,897,-21,-14,2
2180,-125,-106,1002,-18,-77,-9
2181,369,-146,1078,-4,-77,0
2182,486,-83,1032,11,-16,8
2183,235,31,1020,13,55,8
2184,-210,100,967,0,72,17
2185,-505,71,880,-18,32,14
2186,-351,-40,940,-21,-44,-5
2187,104,-132,1048,-12,-87,-8
2188,467,-135,1068,1,-55,4
2189,415,-35,1020,13,16,7
2190,38,63,994,7,71,13
2191,-366,100,932,-7,63,19
2192,-488,33,887,-19,0,6
2193,-182,-86,1000,-19,-70,-9
2194,303,-140,1076,-7,-84,-2
2195,474,-103,1030,6,-26,6
2196,285,23,1009,16,43,7
2197,-139,83,971,-3,76,16
2198,-463,82,907,-12,39,16
2199,-399,-11,928,-21,-32,-3
2200,20,-126,1039,-13,-84,-8
2201,417,-141,1058,-1,-65,3
2202,436,-47,1020,15,6,6
2203,116,49,996,9,64,10
2204,-285,98,954,-6,67,19
2205,-496,53,892,-18,11,8
2206,-258,-70,971,-21,-60,-8
2207,216,-139,1070,-9,-86,-4
2208,470,-120,1026,4,-38,6
2209,357,1,1023,17,33,7
2210,-51,77,990,3,73,15
2211,-432,92,918,-9,53,18
2212,-453,7,910,-21,-22,0
2213,-81,-112,1011,-18,-77,-9
2214,382,-144,1070,-5,-74,0
2215,478,-71,1025,11,-9,7
2216,201,36,1019,12,58,10
2217,-235,95,966,-5,70,18
2218,-513,69,879,-16,26,11
2219,-329,-48,943,-21,-51,-6
2220,140,-138,1048,-9,-85,-8
2221,476,-125,1060,3,-51,4
2222,404,-15,1024,16,22,7
2223,8,65,996,4,71,14
2224,-397,100,923,-8,60,18
2225,-485,26,891,-22,-6,3
2226,-150,-107,997,-17,-74,-10
2227,342,-140,1077,-6,-79,-2
2228,489,-94,1035,9,-22,7
2229,257,25,1017,14,49,8
2230,-183,92,970,1,75,16
2231,-485,82,889,-16,34,15
2232,-372,-26,937,-21,-37,-5
2233,72,-128,1044,-15,-87,-8
2234,440,-135,1063,0,-59,3
2235,425,-44,1020,13,10,7
2236,71,56,990,9,69,12
2237,-329,101,943,-7,64,19
2238,-485,40,892,-21,6,8
2239,-218,-82,992,-18,-65,-8
2240,260,-140,1072,-8,-87,-5
2241,471,-111,1030,6,-31,5
2242,317,9,1009,14,37,8
2243,-99,82,975,2,76,14
2244,-444,84,926,-14,45,15
2245,-424,-8,917,-19,-29,0
2246,-32,-113,1031,-16,-79,-10
2247,400,-139,1060,-2,-69,1
2248,458,-62,1016,12,0,7
2249,160,48,1014,12,62,10
2250,-257,97,957,-4,70,19
2251,-506,55,889,-18,18,10
2252,-294,-62,957,-20,-55,-8
2253,173,-137,1058,-13,-85,-5
2254,476,-129,1041,3,-45,4
2255,382,-5,1026,16,29,7
2256,-19,75,996,5,72,14
2257,-417,95,916,-11,56,18
2258,-474,20,903,-22,-15,2
2259,-117,-105,1001,-21,-76,-9
2260,366,-143,1074,-5,-75,-1
2261,484,-85,1031,10,-16,6
2262,231,33,1022,16,54,9
2263,-212,91,967,-4,72,18
2264,-507,69,879,-16,32,14
2265,-350,-32,940,-19,-45,-6
2266,112,-135,1049,-11,-86,-8
2267,465,-130,1070,2,-55,4
2268,415,-27,1022,16,15,7
2269,35,63,990,6,72,12
2270,-368,98,932,-8,61,19
2271,-487,35,892,-21,1,5
2272,-178,-92,1000,-19,-70,-9
2273,307,-144,1075,-6,-83,-2
2274,476,-98,1031,9,-26,6
2275,284,18,1008,14,42,7
2276,-145,84,973,-1,76,15
2277,-467,88,904,-12,39,16
2278,-394,-20,926,-21,-33,-4
2279,24,-127,1043,-12,-83,-8
2280,417,-138,1057,-1,-65,0
2281,438,-48,1022,14,4,6
2282,113,51,995,10,64,10
2283,-292,97,951,-5,67,18
2284,-494,53,896,-18,10,9
2285,-256,-71,975,-21,-60,-8
2286,221,-142,1069,-8,-87,-5
2287,471,-114,1028,5,-37,4
2288,355,0,1022,14,35,8
2289,-60,76,983,4,74,14
2290,-434,96,923,-10,52,18
2291,-454,5,910,-21,-21,1
2292,-79,-117,1008,-15,-77,-10
2293,385,-138,1072,-4,-74,1
2294,479,-76,1019,11,-9,6
2295,201,37,1022,13,58,9
2296,-237,101,966,-2,70,18
2297,-512,65,880,-18,26,12
2298,-328,-47,948,-22,-50,-7
2299,142,-137,1045,-13,-86,-6
2300,478,-127,1062,2,-52,5
2301,403,-21,1024,16,25,7
2302,8,68,997,5,72,13
2303,-403,101,922,-8,58,18
2304,-486,18,886,-22,-6,4
2305,-149,-96,1004,-17,-76,-9
2306,343,-140,1073,-7,-79,-2
2307,488,-95,1036,7,-20,7
2308,254,33,1015,16,50,9
2309,-180,90,967,-4,74,16
2310,-489,78,890,-16,35,15
2311,-370,-29,933,-21,-38,-6
2312,69,-127,1045,-13,-86,-8
2313,443,-135,1063,-1,-60,3
2314,426,-39,1021,15,10,6
2315,70,61,990,8,69,12
2316,-329,97,945,-6,64,19
2317,-489,39,890,-20,6,6
2318,-220,-76,993,-19,-64,-8
2319,260,-146,1071,-10,-87,-5
2320,474,-111,1031,6,-30,6
2321,314,14,1010,14,39,8
2322,-96,79,976,3,73,15
2323,-449,89,922,-14,46,17
2324,-425,-7,913,-19,-27,-2
2325,-28,-116,1030,-16,-81,-10
2326,398,-148,1064,-1,-70,0
2327,455,-58,1019,13,-1,7
2328,164,42,1008,10,60,10
2329,-258,96,960,-4,68,19
2330,-505,63,889,-18,18,9
2331,-294,-59,956,-20,-55,-9
2332,175,-138,1061,-12,-86,-6
2333,477,-126,1040,3,-46,5
2334,384,-11,1026,16,29,7
2335,-18,76,996,4,71,14
2336,-420,94,917,-9,56,18
2337,-477,14,895,-23,-13,2
2338,-118,-107,1000,-16,-77,-9
2339,369,-143,1075,-5,-77,0
2340,490,-78,1036,11,-15,6
2341,236,32,1015,11,54,10
2342,-211,94,969,-2,72,18
2343,-508,74,881,-17,32,14
2344,-352,-38,939,-23,-46,-5
2345,105,-137,1044,-13,-86,-8
2346,464,-129,1067,2,-55,4
2347,415,-33,1021,13,15,8
2348,36,62,994,9,73,11
2349,-364,104,930,-8,61,18
2350,-488,34,887,-19,1,5
2351,-183,-90,1001,-18,-69,-9
2352,304,-136,1076,-5,-84,-2
2353,475,-103,1029,5,-25,7
2354,287,14,1012,14,43,8
2355,-141,88,969,0,76,17
2356,-464,81,907,-14,41,16
2357,-398,-18,925,-21,-32,-3
2358,16,-121,1040,-15,-84,-9
2359,418,-138,1060,-1,-65,1
2360,440,-47,1018,12,3,6
2361,120,49,996,10,64,10
2362,-285,100,956,-4,69,18
2363,-497,51,891,-18,11,10
2364,-262,-70,975,-19,-58,-8
2365,210,-139,1065,-9,-85,-6
2366,469,-119,1032,7,-40,6
2367,355,4,1024,15,35,8
2368,-51,79,987,1,73,16
2369,-431,92,921,-14,52,17
2370,-455,2,904,-16,-20,1
2371,-82,-108,1012,-23,-79,-10
2372,381,-140,1069,3,-74,1
2373,478,-78,1024,6,-8,7
2374,204,43,1023,19,57,9
2375,-233,96,964,-8,72,18
2376,-511,64,882,-16,28,12
2377,-334,-42,941,-21,-51,-7
2378,143,-138,1052,-13,-84,-7
2379,476,-130,1062,2,-51,4
2380,404,-19,1022,14,22,8
2381,12,73,1000,8,73,15
2382,-396,94,921,-13,59,18
2383,-487,24,890,-18,-5,4
2384,-152,-96,1005,-22,-75,-10
2385,336,-145,1075,-4,-80,-2
2386,487,-92,1033,7,-21,7
2387,259,26,1012,15,49,9
2388,-176,87,970,-3,74,17
2389,-484,81,891,-15,38,15
2390,-375,-26,935,-22,-37,-5
2391,64,-130,1045,-14,-88,-8
2392,437,-138,1062,2,-58,4
2393,427,-40,1020,16,9,5
2394,81,58,992,8,67,11
2395,-319,98,942,-7,66,18
2396,-489,46,895,-18,5,7
2397,-230,-79,987,-19,-62,-9
2398,248,-145,1072,-8,-85,-4
2399,471,-109,1029,6,-34,6
2400,326,6,1010,16,38,7
2401,-84,78,979,2,75,16
2402,-441,92,925,-11,47,17
2403,-432,-1,912,-20,-25,-1
2404,-43,-117,1022,-18,-79,-9
2405,391,-137,1062,-1,-71,1
2406,464,-66,1019,10,-1,8
2407,172,43,1018,11,59,10
2408,-253,97,960,-4,71,19
2409,-507,64,883,-18,21,12
2410,-309,-60,956,-20,-56,-7
2411,166,-138,1055,-11,-85,-6
2412,477,-123,1049,3,-48,5
2413,392,-12,1024,16,27,7
2414,-8,75,997,4,73,14
2415,-415,99,920,-9,56,18
2416,-479,17,895,-22,-11,3
2417,-131,-105,1000,-16,-75,-10
2418,363,-138,1076,-6,-78,-1
2419,487,-88,1035,9,-17,6
2420,241,29,1018,14,55,9
2421,-203,94,968,-4,72,18
2422,-503,77,882,-17,34,13
2423,-354,-37,937,-23,-43,-6
2424,94,-130,1045,-10,-86,-9
2425,459,-132,1068,1,-57,3
2426,418,-37,1020,15,13,8
2427,44,67,991,8,71,13
2428,-348,97,934,-9,63,20
2429,-489,34,889,-19,3,6
2430,-194,-84,997,-18,-67,-11
2431,291,-138,1076,-6,-84,-3
2432,474,-107,1030,7,-29,7
2433,301,15,1011,14,42,7
2434,-123,83,973,0,77,16
2435,-458,82,911,-15,42,16
2436,-409,-9,920,-18,-30,-3
2437,-2,-120,1036,-16,-82,-9
2438,412,-141,1060,-1,-67,2
2439,447,-53,1017,13,3,5
2440,139,46,1005,9,61,11
2441,-272,102,956,-4,69,19
2442,-502,55,891,-19,15,9
2443,-284,-64,964,-20,-59,-8
2444,197,-140,1065,-10,-85,-6
2445,475,-122,1033,4,-42,4
2446,373,-5,1025,14,31,8
2447,-34,79,997,5,74,15
2448,-428,93,919,-11,55,19
2449,-469,14,906,-22,-18,1
2450,-101,-112,1005,-17,-76,-10
2451,376,-147,1074,-6,-77,0
2452,485,-78,1027,11,-13,6
2453,218,38,1024,14,58,9
2454,-223,88,964,-3,71,18
2455,-507,75,882,-15,30,13
2456,-344,-38,942,-22,-47,-7
2457,126,-144,1048,-11,-88,-7
2458,471,-125,1068,4,-52,4
2459,413,-30,1018,13,18,7
2460,28,64,998,6,72,13
2461,-384,105,926,-11,62,19
2462,-489,27,887,-20,-1,5
2463,-173,-94,1003,-19,-72,-9
2464,319,-140,1076,-3,-82,-4
2465,482,-100,1034,8,-25,5
2466,278,19,1014,14,44,9
2467,-153,89,969,0,76,17
2468,-472,85,902,-14,38,16
2469,-393,-20,928,-20,-33,-3
2470,31,-122,1044,-16,-86,-9
2471,421,-140,1058,1,-64,2
2472,439,-45,1023,12,5,6
2473,107,48,992,9,64,11
2474,-296,99,954,-7,67,19
2475,-492,48,890,-19,11,9
2476,-255,-75,979,-17,-60,-8
2477,219,-135,1068,-9,-87,-5
2478,472,-115,1025,5,-37,5
2479,351,0,1022,14,34,8
2480,-53,79,985,5,73,14
2481,-435,96,923,-12,51,17
2482,-452,-2,907,-23,-23,-1
2483,-75,-109,1012,-16,-76,-9
2484,383,-141,1066,-6,-75,0
2485,477,-81,1024,12,-9,7
2486,196,43,1021,13,59,9
2487,-236,97,961,-4,70,18
2488,-510,67,885,-16,26,11
2489,-331,-43,942,-20,-50,-7
2490,146,-137,1050,-12,-86,-7
2491,478,-127,1062,3,-51,4
2492,402,-23,1022,14,23,6
2493,7,69,999,6,72,13
2494,-400,97,922,-12,59,18
2495,-484,20,890,-19,-6,2
2496,-155,-95,999,-17,-75,-11
2497,344,-142,1077,-5,-80,-2
2498,486,-90,1041,9,-22,7
2499,258,30,1010,13,49,8
2500,-178,89,970,-2,73,17
2501,-488,77,888,-16,35,15
2502,-371,-28,934,-23,-36,-5
2503,68,-126,1047,-12,-86,-8
2504,439,-138,1062,-2,-61,3
2505,426,-43,1020,14,9,7
2506,79,60,989,8,69,12
2507,-325,96,946,-8,65,19
2508,-490,47,893,-18,6,7
2509,-225,-76,988,-20,-64,-8
2510,253,-145,1068,-9,-86,-3
2511,470,-105,1030,5,-32,5
2512,328,7,1014,14,36,8
2513,-84,77,978,2,76,16
2514,-443,89,920,-12,49,15
2515,-437,-9,910,-20,-26,-2
2516,-45,-116,1026,-17,-79,-9
2517,395,-140,1062,-2,-72,1
2518,465,-62,1019,12,-3,6
2519,177,43,1019,11,60,11
2520,-253,98,959,-3,71,18
2521,-509,66,890,-18,22,11
2522,-309,-54,953,-21,-54,-7
2523,164,-144,1053,-12,-87,-6
2524,477,-128,1048,3,-47,4
2525,394,-13,1026,16,26,7
2526,-8,71,998,5,72,14
2527,-414,97,920,-9,58,18
2528,-481,18,893,-23,-11,2
2529,-133,-105,1000,-17,-74,-9
2530,360,-140,1076,-5,-76,-2
2531,488,-83,1036,10,-18,6
2532,243,24,1017,14,52,9
2533,-201,97,970,-4,73,17
2534,-497,77,879,-16,34,14
2535,-360,-38,940,-22,-41,-5
2536,92,-129,1044,-12,-86,-8
2537,454,-133,1067,1,-59,4
2538,422,-38,1020,15,11,8
2539,53,66,994,8,71,13
2540,-350,99,937,-10,63,19
2541,-490,36,890,-19,4,7
2542,-206,-80,999,-18,-65,-9
2543,283,-146,1070,-7,-86,-3
2544,476,-106,1033,7,-27,7
2545,300,9,1008,14,41,7
2546,-114,84,977,3,77,16
2547,-456,90,918,-13,44,16
2548,-414,-12,917,-20,-30,-4
2549,-13,-115,1035,-15,-83,-9
2550,407,-140,1061,-2,-70,1
2551,456,-63,1017,12,1,6
2552,144,52,1008,12,63,10
2553,-266,100,956,-7,69,20
2554,-502,55,890,-16,17,11
2555,-292,-58,964,-20,-56,-9
2556,186,-143,1058,-11,-86,-6
2557,476,-123,1041,5,-44,5
2558,378,-6,1024,16,30,7
2559,-20,77,995,4,70,14
2560,-427,96,921,-12,56,19
2561,-474,13,895,-22,-15,1
2562,-112,-104,1003,-17,-77,-9
2563,373,-147,1074,-5,-77,-1
2564,491,-82,1031,12,-16,5
2565,225,37,1022,14,56,9
2566,-216,94,968,-1,71,18
2567,-512,72,879,-16,32,13
2568,-348,-38,937,-22,-47,-7
2569,115,-135,1049,-12,-86,-6
2570,470,-132,1065,0,-55,4
2571,416,-27,1021,15,17,6
2572,36,65,993,5,72,13
2573,-372,97,929,-9,61,19
2574,-489,33,888,-21,0,5
2575,-179,-93,1001,-20,-71,-9
2576,307,-140,1075,-5,-84,-2
2577,481,-101,1029,7,-25,5
2578,286,17,1012,15,44,9
2579,-145,84,972,-2,75,17
2580,-466,83,903,-16,41,16
2581,-397,-14,931,-19,-33,-3
2582,20,-128,1040,-15,-85,-9
2583,418,-136,1060,0,-65,1
2584,440,-46,1018,12,4,6
2585,119,47,995,10,64,10
2586,-288,102,955,-6,68,19
2587,-495,54,894,-20,12,10
2588,-264,-74,969,-22,-58,-8
2589,212,-139,1065,-11,-87,-5
2590,471,-119,1028,4,-39,5
2591,359,0,1022,14,34,8
2592,-49,79,990,4,72,13
2593,-429,90,921,-12,52,17
2594,-458,8,909,-20,-19,0
2595,-88,-110,1007,-18,-77,-9
2596,381,-137,1071,-4,-74,0
2597,484,-72,1028,10,-9,7
2598,207,38,1020,11,57,9
2599,-234,97,962,-3,70,18
2600,-513,72,883,-16,27,12
2601,-334,-50,938,-23,-49,-7
2602,137,-135,1052,-11,-85,-8
2603,474,-126,1066,0,-53,5
2604,405,-25,1024,18,20,7
2605,15,74,999,5,73,12
2606,-392,100,921,-10,59,19
2607,-488,24,890,-23,-3,5
2608,-162,-95,1002,-18,-73,-10
2609,331,-140,1075,-5,-83,-2
2610,485,-101,1037,7,-23,7
2611,267,26,1010,15,49,8
2612,-166,88,966,-3,74,17
2613,-483,82,896,-13,38,16
2614,-385,-19,931,-20,-36,-5
2615,49,-126,1044,-13,-87,-9
2616,433,-137,1064,0,-62,3
2617,433,-47,1016,13,6,7
2618,96,55,993,10,66,12
2619,-307,98,950,-8,67,19
2620,-496,44,891,-16,8,7
2621,-242,-72,982,-19,-61,-8
2622,234,-142,1070,-9,-87,-5
2623,475,-116,1028,6,-36,5
2624,338,7,1017,16,36,6
2625,-67,79,983,3,73,15
2626,-437,92,924,-13,49,17
2627,-447,0,908,-20,-24,-2
2628,-62,-113,1017,-16,-79,-9
2629,391,-144,1069,-4,-73,2
2630,470,-71,1022,13,-5,6
2631,191,45,1021,12,58,10
2632,-245,95,963,-2,71,18
2633,-510,68,886,-19,24,10
2634,-322,-50,943,-22,-53,-8
2635,155,-141,1049,-12,-84,-6
2636,477,-125,1057,3,-49,4
2637,399,-16,1024,16,24,8
2638,2,68,998,2,72,13
2639,-407,97,918,-7,58,18
2640,-486,21,889,-21,-7,2
2641,-142,-101,1005,-15,-75,-9
2642,351,-143,1074,-6,-80,-2
2643,491,-88,1037,11,-19,7
2644,253,28,1017,13,50,9
2645,-187,90,966,-2,74,16
2646,-496,79,888,-15,36,13
2647,-366,-27,936,-22,-40,-5
2648,76,-131,1044,-13,-88,-9
2649,443,-138,1066,1,-58,3
2650,424,-37,1022,16,10,7
2651,66,57,990,8,68,11
2652,-329,101,943,-6,65,19
2653,-490,45,890,-18,5,7
2654,-218,-82,992,-20,-64,-9
2655,262,-144,1070,-7,-87,-4
2656,471,-108,1029,6,-32,5
2657,320,7,1013,14,39,6
2658,-95,82,975,2,75,15
2659,-447,96,924,-14,46,17
2660,-427,-10,912,-23,-26,-2
2661,-36,-113,1029,-15,-81,-9
2662,398,-144,1058,-4,-71,1
2663,466,-65,1022,13,-3,7
2664,166,44,1011,10,60,9
2665,-256,100,960,-2,70,19
2666,-511,63,887,-19,21,10
2667,-305,-56,953,-20,-56,-8
2668,168,-138,1057,-12,-86,-7
2669,480,-129,1046,4,-47,5
2670,392,-10,1024,16,27,7
2671,-11,75,997,6,73,13
2672,-417,96,918,-11,57,18
2673,-484,16,897,-20,-11,2
2674,-131,-104,1000,-18,-77,-10
2675,366,-142,1078,-5,-79,-1
2676,491,-88,1032,9,-17,8
2677,243,30,1020,14,53,9
2678,-200,97,969,-1,73,18
2679,-505,73,882,-16,35,13
2680,-359,-33,937,-20,-43,-6
2681,93,-129,1050,-12,-88,-8
2682,459,-140,1064,1,-57,4
2683,421,-33,1019,14,12,7
2684,52,66,988,8,72,12
2685,-346,92,938,-9,63,19
2686,-490,42,893,-17,3,5
2687,-199,-84,994,-20,-67,-8
2688,283,-141,1075,-6,-85,-3
2689,473,-102,1027,7,-29,5
2690,303,12,1010,14,41,8
2691,-119,85,976,0,76,16
2692,-454,86,913,-13,45,16
2693,-415,-12,920,-21,-29,-3
2694,-9,-122,1034,-16,-82,-9
2695,405,-141,1058,-2,-68,1
2696,451,-53,1021,13,1,7
2697,148,48,1007,10,61,10
2698,-270,100,958,-5,70,19
2699,-505,58,891,-20,16,10
2700,-286,-62,962,-22,-58,-8
2701,186,-143,1057,-11,-85,-6
2702,476,-124,1037,5,-43,4
2703,378,-4,1028,17,30,7
2704,-26,72,995,1,74,15
2705,-425,100,919,-10,57,19
2706,-473,13,897,-23,-17,0
2707,-108,-110,1000,-15,-77,-11
2708,373,-140,1077,-2,-76,-2
2709,489,-84,1027,8,-14,7
2710,226,35,1024,16,57,10
2711,-219,95,966,-9,72,17
2712,-509,75,880,-13,31,14
2713,-354,-40,941,-26,-46,-5
2714,115,-141,1044,-9,-88,-8
2715,468,-130,1068,-1,-55,5
2716,417,-32,1022,18,16,7
2717,35,69,997,6,72,13
2718,-372,106,930,-8,63,20
2719,-488,32,888,-21,1,5
2720,-183,-92,1001,-19,-69,-10
2721,303,-140,1075,-6,-83,-3
2722,481,-105,1034,6,-27,6
2723,289,15,1010,17,43,7
2724,-134,85,968,-1,77,17
2725,-463,88,911,-12,41,16
2726,-403,-16,922,-23,-31,-2
2727,12,-120,1041,-12,-85,-9
2728,417,-139,1058,0,-65,2
2729,444,-57,1015,13,3,6
2730,125,51,1003,9,63,11
2731,-281,101,954,-5,68,19
2732,-499,53,891,-21,12,8
2733,-272,-66,966,-19,-59,-9
2734,203,-142,1066,-12,-87,-6
2735,474,-123,1030,4,-41,5
2736,367,-2,1020,17,33,8
2737,-39,81,989,4,73,14
2738,-430,94,925,-11,54,19
2739,-464,9,901,-22,-20,0
2740,-96,-105,1008,-17,-77,-10
2741,379,-147,1072,-6,-76,1
2742,487,-78,1025,13,-12,6
2743,211,42,1025,13,58,10
2744,-224,94,965,-3,72,19
2745,-512,73,881,-16,29,13
2746,-343,-48,940,-22,-48,-7
2747,128,-136,1049,-11,-86,-8
2748,473,-127,1067,2,-54,4
2749,414,-29,1020,16,18,7
2750,23,72,1001,8,72,13
2751,-385,96,925,-10,60,19
2752,-489,33,890,-21,-3,5
2753,-168,-90,1003,-20,-72,-9
2754,324,-147,1073,-7,-82,-1
2755,481,-98,1032,10,-25,6
2756,274,22,1012,14,45,7
2757,-157,82,970,-2,76,17
2758,-472,85,901,-16,38,15
2759,-388,-19,928,-19,-33,-4
2760,37,-126,1045,-13,-86,-8
2761,424,-136,1058,1,-63,2
2762,435,-45,1019,13,6,5
2763,104,47,995,10,64,12
2764,-299,102,950,-4,68,19
2765,-492,50,892,-19,10,8
2766,-256,-72,978,-20,-60,-7
2767,225,-139,1067,-10,-85,-4
2768,470,-113,1028,5,-37,6
2769,350,1,1021,14,34,8
2770,-57,81,985,5,73,16
2771,-436,93,918,-13,49,18
2772,-449,1,911,-20,-22,-1
2773,-73,-117,1011,-19,-79,-10
2774,385,-142,1071,-2,-74,1
2775,477,-73,1024,10,-7,7
2776,199,40,1019,14,58,9
2777,-240,101,966,-3,71,18
2778,-513,73,881,-19,26,12
2779,-328,-52,942,-23,-51,-7
2780,143,-138,1049,-13,-86,-7
2781,481,-129,1062,2,-53,5
2782,407,-26,1023,17,21,7
2783,7,73,999,6,73,12
2784,-397,99,916,-8,59,17
2785,-489,25,891,-22,-6,4
2786,-151,-97,1003,-18,-74,-9
2787,342,-140,1078,-6,-80,-1
2788,489,-98,1034,7,-22,5
2789,262,26,1015,16,50,7
2790,-178,93,969,-3,77,17
2791,-489,83,895,-16,36,14
2792,-380,-31,931,-22,-37,-6
2793,59,-125,1044,-13,-86,-8
2794,439,-140,1062,2,-62,3
2795,430,-46,1021,14,9,6
2796,84,58,991,11,68,10
2797,-315,100,948,-7,65,20
2798,-493,47,893,-19,7,7
2799,-237,-72,981,-19,-63,-9
2800,244,-141,1070,-12,-87,-3
2801,476,-116,1029,5,-34,7
2802,334,3,1013,12,36,7
2803,-79,80,984,3,74,15
2804,-445,89,919,-13,49,17
2805,-442,0,911,-19,-25,-1
2806,-57,-110,1021,-17,-78,-9
2807,393,-146,1065,-4,-73,1
2808,472,-66,1022,12,-4,7
2809,185,44,1020,11,60,10
2810,-247,91,961,-6,70,19
2811,-516,71,886,-16,24,10
2812,-318,-55,943,-24,-53,-7
2813,156,-143,1050,-11,-87,-5
2814,480,-128,1056,1,-49,5
2815,399,-15,1022,16,24,6
2816,0,77,1004,7,72,13
2817,-409,102,919,-8,59,18
2818,-488,26,890,-21,-8,2
2819,-142,-101,1004,-17,-75,-10
2820,352,-144,1077,-4,-79,-1
2821,489,-94,1034,9,-21,6
2822,253,25,1017,15,52,8
2823,-194,94,966,-1,75,17
2824,-495,80,886,-14,35,15
2825,-367,-29,938,-21,-39,-4
2826,78,-127,1048,-12,-87,-8
2827,447,-137,1061,-2,-59,3
2828,427,-36,1023,13,10,6
2829,66,53,987,6,70,11
2830,-335,103,943,-7,65,17
2831,-489,44,890,-18,5,6
2832,-217,-83,991,-21,-65,-9
2833,261,-142,1069,-7,-86,-4
2834,472,-108,1029,4,-31,5
2835,321,2,1013,13,37,8
2836,-95,84,974,2,76,15
2837,-449,93,924,-12,47,16
2838,-429,-12,911,-19,-28,-2
2839,-37,-111,1030,-17,-79,-9
2840,396,-140,1059,-3,-72,0
2841,466,-65,1021,11,-3,8
2842,169,45,1014,13,61,11
2843,-255,95,957,-5,69,18
2844,-508,64,891,-16,19,11
2845,-309,-57,950,-21,-54,-8
2846,170,-139,1055,-10,-86,-6
2847,477,-125,1049,3,-48,6
2848,392,-13,1024,15,28,6
2849,-11,76,1001,5,72,13
2850,-416,97,917,-11,56,19
2851,-481,17,897,-21,-11,2
2852,-133,-103,998,-19,-76,-10
2853,363,-144,1078,-2,-77,0
2854,490,-91,1035,8,-18,7
2855,240,33,1020,15,53,8
2856,-203,94,969,-4,74,17
2857,-503,73,882,-16,33,14
2858,-360,-33,938,-19,-43,-5
2859,96,-131,1049,-13,-86,-8
2860,455,-137,1066,2,-57,5
2861,420,-32,1022,14,13,7
2862,54,65,990,8,71,11
2863,-351,96,936,-10,63,19
2864,-490,37,893,-19,4,6
2865,-200,-85,997,-19,-66,-10
2866,284,-146,1073,-7,-86,-3
2867,477,-106,1031,7,-28,7
2868,305,8,1008,14,40,8
2869,-112,84,976,3,76,16
2870,-455,92,915,-13,45,16
2871,-416,-10,918,-20,-30,-2
2872,-16,-116,1034,-15,-82,-9
2873,405,-145,1059,-3,-68,1
2874,457,-62,1020,13,0,6
2875,149,48,1009,10,62,9
2876,-263,96,954,-4,70,18
2877,-507,60,891,-18,17,9
2878,-295,-59,957,-20,-56,-10
2879,183,-140,1059,-13,-86,-7
2880,477,-121,1042,5,-46,5
2881,387,-8,1025,15,30,6
2882,-23,72,999,4,72,13
2883,-422,95,917,-10,55,18
2884,-477,20,898,-22,-14,1
2885,-118,-112,998,-17,-78,-9
2886,372,-141,1078,-4,-77,0
2887,487,-83,1032,12,-15,7
2888,236,31,1022,14,53,9
2889,-214,98,971,-1,74,18
2890,-508,73,878,-17,32,15
2891,-355,-35,942,-23,-45,-6
2892,107,-134,1044,-11,-87,-8
2893,462,-131,1066,2,-56,4
2894,420,-33,1022,15,14,6
2895,42,60,991,8,73,13
2896,-361,103,931,-8,62,18
2897,-487,36,889,-19,0,6
2898,-192,-86,998,-20,-68,-9
2899,292,-144,1074,-8,-85,-2
2900,480,-102,1031,7,-28,6
2901,298,13,1008,15,42,8
2902,-128,88,974,1,75,15
2903,-458,89,912,-13,41,17
2904,-410,-15,919,-20,-30,-4
2905,-2,-119,1037,-14,-83,-10
2906,412,-141,1057,-4,-67,2
2907,449,-58,1019,13,1,7
2908,142,47,1004,10,61,11
2909,-274,105,955,-4,71,19
2910,-503,56,892,-19,15,9
2911,-286,-63,965,-20,-58,-9
2912,188,-137,1059,-9,-86,-6
2913,477,-128,1040,0,-43,6
2914,377,-7,1022,17,31,8
2915,-30,81,995,3,73,13
2916,-429,93,920,-10,55,18
2917,-475,14,899,-22,-17,0
2918,-109,-105,1001,-16,-78,-9
2919,378,-145,1079,-5,-78,-1
2920,488,-82,1027,13,-13,6
2921,227,37,1022,12,56,8
2922,-217,95,969,-3,72,19
2923,-512,74,876,-16,31,13
2924,-350,-39,939,-22,-47,-6
2925,118,-135,1044,-10,-86,-7
2926,469,-136,1066,2,-55,4
2927,415,-32,1024,17,16,6
2928,34,68,993,4,72,13
2929,-372,97,926,-9,62,18
2930,-490,34,893,-18,0,4
2931,-179,-85,1000,-20,-70,-9
2932,309,-142,1076,-7,-85,-4
2933,480,-99,1030,6,-24,5
2934,287,18,1010,15,45,9
2935,-145,81,971,-3,76,16
2936,-469,88,907,-14,40,16
2937,-403,-14,924,-21,-33,-4
2938,19,-125,1039,-15,-85,-9
2939,420,-138,1057,1,-66,2
2940,446,-49,1020,12,5,7
2941,124,47,998,10,64,11
2942,-283,103,957,-5,71,19
2943,-501,56,889,-19,12,9
2944,-272,-68,969,-21,-59,-9
2945,202,-142,1063,-11,-85,-5
2946,473,-123,1029,4,-42,5
2947,366,-3,1024,17,33,8
2948,-37,76,990,3,73,14
2949,-431,98,920,-11,53,17
2950,-464,9,904,-20,-18,0
2951,-97,-107,1010,-17,-78,-11
2952,378,-140,1069,-4,-77,-1
2953,487,-78,1027,9,-10,7
2954,214,32,1021,15,58,9
2955,-228,97,968,-2,70,18
2956,-516,77,883,-17,31,12
2957,-338,-53,937,-24,-49,-7
2958,127,-134,1049,-10,-87,-6
2959,476,-130,1065,1,-53,4
2960,413,-26,1025,15,17,6
2961,21,75,998,6,72,12
2962,-382,97,920,-12,61,18
2963,-489,27,891,-19,-2,4
2964,-166,-99,999,-18,-71,-10
2965,319,-141,1073,-4,-81,-2
2966,484,-101,1033,8,-25,6
2967,277,22,1009,15,46,9
2968,-160,91,968,-2,75,17
2969,-472,84,904,-14,38,15
2970,-389,-18,928,-21,-32,-3
2971,35,-127,1039,-15,-86,-9
2972,430,-141,1067,0,-65,3
2973,435,-49,1017,12,7,7
2974,106,53,995,11,65,11
2975,-296,104,955,-6,69,19
2976,-496,47,888,-19,10,8
2977,-256,-71,974,-19,-61,-9
2978,221,-139,1069,-8,-85,-5
2979,476,-122,1026,5,-37,6
2980,355,5,1024,16,34,7
2981,-51,79,989,4,74,14
2982,-436,94,922,-13,52,17
2983,-458,8,905,-19,-22,-1
2984,-78,-110,1008,-19,-77,-10
2985,386,-144,1068,-3,-75,0
2986,485,-76,1026,9,-9,6
2987,203,39,1021,14,61,9
2988,-235,92,964,-6,70,19
2989,-515,66,882,-18,28,12
2990,-335,-43,940,-21,-50,-7
2991,139,-138,1051,-10,-87,-6
2992,477,-127,1062,3,-52,3
2993,409,-16,1022,14,21,7
2994,18,71,1002,5,71,13
2995,-395,97,921,-11,60,18
2996,-490,25,886,-20,-4,3
2997,-160,-100,1004,-20,-75,-10
2998,333,-143,1075,-2,-80,-3
2999,486,-98,1036,7,-23,6
3000,266,23,1015,16,48,10
3001,-170,88,968,-1,76,17
3002,-482,84,894,-15,36,15
3003,-381,-20,934,-20,-35,-5
3004,55,-124,1049,-15,-87,-9
3005,432,-135,1062,0,-62,3
3006,432,-44,1019,12,7,7
3007,91,51,987,10,67,12
3008,-310,98,951,-7,66,19
3009,-493,44,889,-18,9,7
3010,-243,-77,986,-20,-62,-8
3011,235,-142,1067,-8,-87,-6
3012,472,-110,1027,8,-35,4
3013,344,3,1018,13,35,6
3014,-68,85,985,5,75,15
3015,-440,98,919,-12,50,17
3016,-444,-1,911,-22,-24,-1
3017,-70,-116,1015,-19,-78,-10
3018,393,-143,1067,-4,-74,0
3019,473,-74,1023,11,-6,8
3020,193,38,1017,13,59,9
3021,-245,100,963,-2,70,19
3022,-514,66,883,-20,25,12
3023,-322,-49,943,-20,-52,-7
3024,149,-131,1054,-12,-87,-8
3025,481,-126,1056,4,-51,3
3026,407,-21,1024,16,24,7
3027,4,70,1000,6,72,13
3028,-401,97,921,-9,58,19
3029,-489,21,890,-22,-7,3
3030,-149,-100,998,-16,-75,-10
3031,350,-138,1079,-6,-80,-1
3032,487,-93,1035,10,-21,7
3033,256,29,1012,15,50,8
3034,-184,95,971,-2,74,18
3035,-489,76,888,-16,36,16
3036,-374,-27,936,-19,-37,-6
3037,69,-125,1045,-14,-87,-8
3038,441,-139,1061,-2,-60,4
3039,426,-43,1020,16,11,6
3040,75,57,990,1,69,12
3041,-321,98,944,-8,64,20
3042,-489,43,894,-17,7,7
3043,-224,-82,985,-22,-64,-10
3044,255,-142,1074,-2,-86,-3
3045,472,-112,1028,0,-32,6
3046,326,8,1013,22,38,6
3047,-89,88,983,-2,74,14
3048,-442,90,920,-10,48,18
3049,-436,-3,911,-23,-27,-1
3050,-44,-115,1027,-14,-81,-10
3051,395,-146,1062,-3,-73,0
3052,469,-68,1021,11,-3,8
3053,175,45,1018,12,60,11
3054,-253,96,958,-4,70,20
3055,-515,65,888,-16,22,11
3056,-313,-52,947,-21,-55,-8
3057,167,-141,1053,-12,-85,-6
3058,481,-128,1052,2,-48,5
3059,399,-13,1024,17,26,7
3060,-5,71,999,5,71,15
3061,-414,95,917,-12,57,19
3062,-481,26,893,-20,-9,3
3063,-137,-104,1002,-18,-76,-10
3064,362,-144,1077,-2,-79,-2
3065,491,-85,1035,9,-17,7
3066,249,27,1017,13,51,8
3067,-198,91,968,0,74,17
3068,-500,80,885,-17,35,14
3069,-365,-33,937,-21,-42,-6
3070,87,-134,1042,-14,-87,-8
3071,450,-133,1065,2,-58,3
3072,429,-37,1024,15,11,6
3073,62,58,990,7,71,12
3074,-341,101,939,-7,64,18
3075,-489,43,894,-20,3,7
3076,-212,-85,990,-19,-64,-10
3077,268,-142,1076,-8,-86,-4
3078,472,-108,1026,6,-30,6
3079,315,6,1013,14,38,8
3080,-104,83,976,5,76,15
3081,-448,92,918,-14,46,17
3082,-423,-7,919,-20,-28,-1
3083,-28,-117,1030,-19,-81,-9
3084,402,-139,1059,-1,-70,1
3085,461,-66,1017,11,-1,7
3086,161,45,1014,12,60,10
3087,-259,104,957,-4,71,18
3088,-507,60,889,-19,19,11
3089,-303,-61,955,-19,-56,-9
3090,175,-141,1054,-13,-86,-7
3091,482,-128,1049,4,-47,7
3092,390,-10,1023,16,29,7
3093,-14,79,998,8,72,13
3094,-420,98,922,-10,56,19
3095,-479,19,893,-24,-13,2
3096,-128,-101,1003,-19,-76,-10
3097,368,-147,1077,-8,-79,0
3098,491,-88,1030,12,-16,8
3099,239,32,1017,13,54,8
3100,-204,93,970,0,73,17
3101,-509,78,878,-16,33,15
3102,-359,-31,939,-20,-44,-6
3103,97,-129,1047,-14,-87,-8
3104,460,-135,1067,2,-57,4
3105,421,-33,1022,15,13,6
3106,49,62,993,6,72,13
3107,-351,99,937,-8,63,20
3108,-491,41,889,-19,2,7
3109,-201,-82,996,-19,-66,-9
3110,285,-144,1076,-9,-86,-4
3111,474,-107,1025,7,-28,6
3112,306,18,1010,15,41,8
3113,-114,81,976,1,75,17
3114,-453,86,915,-13,44,17
3115,-418,-6,921,-22,-29,-3
3116,-15,-120,1035,-16,-83,-9
3117,408,-143,1056,-2,-68,1
3118,455,-55,1022,11,2,7
3119,152,44,1007,7,61,10
3120,-266,100,955,-4,71,18
3121,-506,63,888,-19,16,11
3122,-293,-62,958,-21,-57,-8
3123,184,-141,1062,-12,-86,-6
3124,477,-128,1038,5,-45,5
3125,384,-7,1025,17,29,6
3126,-21,73,994,3,73,13
3127,-427,96,917,-8,55,18
3128,-477,20,901,-22,-14,1
3129,-117,-108,1003,-19,-77,-9
3130,371,-144,1073,-5,-78,0
3131,492,-76,1033,11,-16,6
3132,234,27,1020,11,55,10
3133,-216,95,968,-2,71,18
3134,-508,80,880,-16,33,13
3135,-354,-42,934,-22,-46,-5
3136,108,-133,1052,-11,-88,-8
3137,462,-133,1066,2,-55,3
3138,419,-38,1023,16,15,7
3139,41,62,992,7,71,13
3140,-362,101,930,-7,63,19
3141,-490,34,888,-20,1,6
3142,-191,-83,1002,-17,-69,-9
3143,295,-140,1074,-7,-84,-3
3144,478,-104,1028,7,-28,6
3145,294,16,1013,15,44,8
3146,-127,83,972,-1,76,17
3147,-459,89,911,-13,42,17
3148,-409,-15,923,-21,-30,-2
3149,0,-121,1036,-14,-84,-8
3150,409,-139,1059,1,-68,0
3151,452,-56,1017,12,3,7
3152,140,49,1004,11,61,11
3153,-271,106,958,-4,70,18
3154,-502,57,894,-19,17,10
3155,-287,-62,961,-22,-58,-8
3156,191,-141,1060,-11,-86,-6
3157,477,-129,1035,2,-43,6
3158,379,-6,1023,19,31,7
3159,-30,77,997,4,74,13
3160,-429,92,918,-11,55,17
3161,-473,14,899,-19,-17,1
3162,-109,-101,1003,-17,-76,-9
3163,378,-145,1074,-6,-77,0
3164,486,-81,1033,9,-14,6
3165,230,35,1021,15,56,10
3166,-217,92,968,-1,72,19
3167,-512,72,879,-18,32,12
3168,-350,-40,939,-22,-46,-7
3169,113,-139,1047,-13,-87,-8
3170,468,-133,1066,4,-54,4
3171,416,-27,1021,15,16,7
3172,35,69,994,9,71,12
3173,-369,105,930,-10,61,19
3174,-489,34,886,-20,-1,5
3175,-182,-90,1000,-20,-70,-8
3176,303,-143,1074,-7,-82,-4
3177,478,-105,1032,7,-26,5
3178,284,16,1008,14,43,7
3179,-137,82,970,2,76,16
3180,-463,81,907,-14,40,16
3181,-399,-15,926,-19,-31,-3
3182,15,-126,1041,-16,-83,-10
3183,417,-140,1059,1,-67,1
3184,444,-44,1019,13,3,5
3185,128,48,1001,9,64,10
3186,-282,101,953,-3,69,19
3187,-497,56,891,-19,13,8
3188,-273,-69,969,-19,-58,-9
3189,204,-145,1062,-11,-88,-6
3190,477,-122,1031,5,-40,6
3191,366,-8,1023,15,32,8
3192,-40,75,992,5,71,14
3193,-433,100,923,-10,55,18
3194,-465,11,900,-22,-19,1
3195,-95,-107,1007,-19,-77,-9
3196,380,-143,1074,-5,-75,0
3197,487,-73,1030,10,-13,7
3198,217,35,1020,10,57,10
3199,-227,94,965,-2,73,17
3200,-515,71,878,-17,29,13
3201,-343,-45,939,-22,-48,-6
3202,126,-139,1044,-12,-87,-9
3203,475,-128,1068,4,-54,5
3204,414,-26,1022,16,18,7
3205,23,68,994,9,72,14
3206,-380,107,926,-9,60,19
3207,-486,28,887,-21,-1,4
3208,-171,-95,1004,-19,-72,-9
3209,317,-141,1077,-8,-83,-2
3210,482,-100,1034,8,-24,7
3211,277,21,1011,13,45,8
3212,-149,89,971,0,76,17
3213,-473,81,903,-16,41,16
3214,-393,-19,930,-20,-34,-5
3215,28,-124,1040,-15,-84,-8
3216,423,-140,1062,-2,-65,3
3217,439,-49,1017,13,5,7
3218,111,53,997,9,65,11
3219,-292,102,954,-5,69,19
3220,-496,51,892,-20,11,9
3221,-263,-69,970,-20,-60,-9
3222,217,-144,1066,-11,-88,-6
3223,475,-118,1030,5,-39,6
3224,357,-1,1020,14,34,7
3225,-47,80,986,5,72,14
3226,-437,96,924,-10,53,17
3227,-460,3,904,-22,-20,-1
3228,-84,-108,1010,-14,-78,-9
3229,385,-146,1069,-6,-75,0
3230,483,-78,1026,14,-10,5
3231,210,43,1027,12,58,10
3232,-231,94,964,-3,71,18
3233,-519,72,879,-19,29,13
3234,-337,-46,941,-21,-51,-7
3235,136,-141,1049,-11,-86,-6
3236,479,-130,1064,3,-53,4
3237,413,-24,1020,16,19,7
3238,18,72,999,6,73,12
3239,-389,97,922,-9,58,18
3240,-489,34,891,-20,-3,3
3241,-162,-98,1001,-20,-73,-11
3242,327,-144,1075,-5,-82,-2
3243,484,-97,1036,8,-23,7
3244,274,17,1011,14,47,9
3245,-164,94,973,-2,75,17
3246,-480,83,896,-16,38,15
3247,-386,-21,930,-21,-35,-3
3248,42,-128,1042,-16,-86,-9
3249,432,-138,1059,2,-64,3
3250,434,-43,1018,12,6,7
3251,101,53,994,11,66,11
3252,-302,100,950,-9,69,19
3253,-495,56,892,-17,9,8
3254,-248,-74,979,-21,-59,-10
3255,223,-142,1069,-10,-87,-5
3256,474,-117,1027,4,-38,6
3257,352,-1,1021,13,35,8
3258,-62,79,985,3,73,15
3259,-435,97,922,-11,50,17
3260,-455,3,908,-22,-21,-1
3261,-76,-113,1011,-16,-80,-9
3262,387,-139,1070,-4,-75,0
3263,479,-74,1025,12,-7,7
3264,202,38,1023,11,59,10
3265,-239,99,962,-2,72,19
3266,-513,66,882,-20,27,12
3267,-335,-48,946,-21,-52,-7
3268,143,-139,1045,-11,-86,-7
3269,482,-128,1065,4,-52,4
3270,407,-19,1023,16,22,7
3271,12,70,997,5,73,13
3272,-399,103,924,-10,60,18
3273,-486,24,887,-23,-4,4
3274,-156,-99,1000,-18,-73,-10
3275,339,-143,1076,-7,-81,-3
3276,491,-100,1032,9,-22,6
3277,260,24,1012,15,49,7
3278,-169,91,969,0,74,17
3279,-485,84,893,-15,37,15
3280,-380,-25,935,-20,-36,-4
3281,58,-122,1047,-12,-87,-8
3282,436,-142,1062,-2,-60,4
3283,431,-47,1019,12,9,6
3284,86,58,991,9,67,10
3285,-315,96,948,-7,66,18
3286,-494,42,891,-18,7,6
3287,-237,-74,985,-17,-63,-10
3288,239,-143,1068,-9,-87,-5
3289,472,-112,1030,7,-35,6
3290,340,8,1016,16,36,8
3291,-70,82,984,3,74,16
3292,-442,94,925,-12,49,17
3293,-443,0,908,-23,-23,-1
3294,-64,-114,1018,-17,-77,-9
3295,389,-145,1065,-4,-73,-1
3296,475,-73,1020,12,-6,5
3297,187,43,1021,13,58,9
3298,-242,100,963,-4,70,18
3299,-516,70,882,-16,26,12
3300,-320,-48,945,-21,-54,-8
3301,154,-137,1050,-11,-85,-7
3302,479,-131,1059,2,-49,4
3303,403,-16,1022,16,23,7
3304,4,69,1000,4,74,13
3305,-409,95,922,-11,58,17
3306,-486,25,891,-22,-7,2
3307,-147,-102,1000,-18,-75,-9
3308,348,-143,1074,-5,-80,-2
3309,491,-88,1038,11,-21,7
3310,256,26,1011,11,50,8
3311,-184,94,975,-1,75,16
3312,-493,86,886,-17,37,15
3313,-371,-29,935,-22,-38,-5
3314,67,-131,1045,-15,-87,-9
3315,442,-139,1060,-1,-60,2
3316,429,-43,1021,15,8,7
3317,76,56,992,10,69,11
3318,-326,105,941,-6,66,17
3319,-494,48,896,-19,5,7
3320,-222,-81,986,-21,-62,-8
3321,253,-139,1075,-8,-86,-4
3322,475,-110,1026,4,-32,5
3323,328,1,1016,14,38,9
3324,-88,81,977,1,75,15
3325,-444,92,922,-12,47,17
3326,-438,-4,913,-22,-26,1
3327,-47,-115,1023,-16,-80,-9
3328,398,-146,1058,-3,-72,0
3329,472,-64,1026,12,-4,7
3330,180,39,1013,13,61,11
3331,-254,102,964,-1,71,18
3332,-511,61,885,-18,22,11
3333,-316,-53,949,-21,-55,-7
3334,159,-133,1054,-13,-86,-7
3335,487,-137,1051,1,-49,4
3336,393,-11,1027,17,27,6
3337,-1,75,998,7,72,13
3338,-411,100,917,-10,58,20
3339,-487,23,892,-20,-9,3
3340,-137,-105,1004,-20,-77,-10
3341,355,-142,1077,-3,-79,-1
3342,491,-91,1034,9,-20,7
3343,250,31,1016,14,52,8
3344,-193,97,971,-3,75,18
3345,-500,77,886,-19,35,15
3346,-366,-28,935,-19,-39,-5
3347,81,-130,1050,-15,-86,-8
3348,451,-137,1063,1,-59,4
3349,423,-37,1023,11,10,8
3350,60,60,986,9,70,12
3351,-334,99,944,-8,64,19
3352,-492,42,887,-18,4,7
3353,-212,-79,995,-19,-65,-10
3354,268,-143,1074,-8,-87,-4
3355,472,-109,1025,8,-30,6
3356,317,16,1017,13,38,7
3357,-100,81,970,0,74,16
3358,-450,89,925,-12,46,17
3359,-430,-9,913,-21,-27,-3
3360,-27,-123,1024,-16,-82,-8
3361,399,-142,1063,-1,-70,1
3362,464,-63,1017,13,0,7
3363,163,46,1019,13,61,10
3364,-261,99,958,-3,71,19
3365,-507,67,886,-17,19,11
3366,-303,-56,957,-20,-55,-8
3367,174,-149,1052,-13,-85,-7
3368,481,-125,1046,4,-48,4
3369,388,-10,1027,16,29,8
3370,-14,70,995,7,73,14
3371,-423,101,920,-8,56,19
3372,-481,17,893,-23,-12,3
3373,-125,-104,1001,-17,-77,-9
3374,366,-141,1075,-7,-79,-1
3375,495,-86,1035,10,-16,7
3376,241,30,1018,6,56,11
3377,-206,90,967,-13,73,17
3378,-507,78,883,-17,34,14
3379,-360,-33,936,-22,-44,-5
3380,98,-139,1047,-14,-87,-9
3381,462,-132,1065,6,-56,4
3382,425,-35,1021,10,12,8
3383,53,63,991,14,72,12
3384,-351,105,938,-13,63,19
3385,-492,39,887,-16,3,6
3386,-199,-85,1000,-26,-66,-9
3387,283,-140,1071,-1,-85,-5
3388,479,-109,1031,1,-30,6
3389,302,9,1009,16,41,7
3390,-116,83,976,1,77,16
3391,-456,85,914,-12,44,17
3392,-416,-5,923,-19,-29,-2
3393,-9,-117,1030,-16,-82,-9
3394,406,-139,1063,0,-67,1
3395,455,-57,1018,10,1,8
3396,148,46,1008,11,62,9
3397,-271,101,956,-7,70,18
3398,-501,54,885,-19,16,10
3399,-293,-61,962,-21,-58,-9
3400,185,-142,1057,-11,-86,-7
3401,479,-127,1043,2,-46,6
3402,380,-5,1024,16,31,7
3403,-22,76,994,3,74,14
3404,-423,96,921,-13,55,17
3405,-474,16,896,-22,-15,2
3406,-113,-106,1002,-17,-76,-10
3407,376,-146,1074,-7,-77,1
3408,486,-85,1030,10,-13,7
3409,228,34,1023,14,57,9
3410,-217,90,967,-2,73,18
3411,-513,73,879,-16,32,13
3412,-349,-34,941,-19,-46,-6
3413,115,-133,1046,-12,-87,-7
3414,466,-131,1070,2,-55,5
3415,415,-30,1020,15,15,7
3416,35,65,992,7,72,12
3417,-369,98,929,-9,62,19
3418,-491,33,889,-20,0,5
3419,-182,-90,999,-19,-70,-11
3420,302,-145,1074,-7,-85,-3
3421,481,-105,1030,7,-27,5
3422,291,20,1013,16,44,9
3423,-138,87,970,-1,76,17
3424,-466,90,907,-12,40,15
3425,-402,-7,928,-22,-32,-3
3426,14,-125,1038,-15,-85,-9
3427,415,-142,1059,-2,-66,1
3428,445,-54,1017,14,4,6
3429,129,47,1004,11,63,10
3430,-287,99,952,-7,70,18
3431,-499,55,889,-18,14,8
3432,-273,-66,968,-20,-59,-8
3433,203,-139,1065,-7,-87,-6
3434,476,-117,1036,3,-42,4
3435,368,-2,1022,17,32,8
3436,-38,75,990,4,72,15
3437,-433,97,920,-10,54,17
3438,-464,9,903,-22,-18,0
3439,-98,-114,1006,-19,-77,-9
3440,381,-142,1070,-3,-76,0
3441,488,-86,1026,9,-13,7
3442,215,34,1027,16,58,10
3443,-229,101,964,-4,71,17
3444,-511,72,877,-16,29,13
3445,-340,-39,943,-24,-49,-6
3446,126,-133,1048,-12,-87,-9
3447,475,-133,1066,1,-53,4
3448,413,-30,1021,16,18,5
3449,24,66,997,7,73,12
3450,-388,99,924,-10,61,19
3451,-490,29,890,-19,-3,4
3452,-167,-93,1002,-18,-73,-9
3453,322,-139,1072,-5,-82,-3
3454,488,-98,1039,7,-24,5
3455,271,20,1010,14,46,7
3456,-160,94,974,-2,75,15
3457,-477,80,896,-15,38,16
3458,-389,-21,930,-23,-35,-4
3459,37,-126,1042,-15,-86,-10
3460,429,-144,1060,-1,-64,2
3461,434,-49,1019,14,8,7
3462,102,52,992,11,66,11
3463,-299,100,955,-6,67,19
3464,-497,47,890,-16,10,8
3465,-252,-67,978,-20,-61,-9
3466,229,-139,1068,-9,-88,-4
3467,476,-118,1031,3,-36,6
3468,346,4,1016,18,36,7
3469,-61,76,985,-1,73,15
3470,-439,92,919,-12,52,17
3471,-451,2,908,-23,-23,-1
3472,-73,-115,1013,-18,-79,-10
3473,388,-144,1068,-5,-75,0
3474,481,-71,1020,13,-7,6
3475,197,45,1024,14,58,9
3476,-238,95,961,-4,71,18
3477,-513,68,882,-17,25,12
3478,-328,-45,946,-22,-52,-7
3479,150,-140,1049,-9,-86,-7
3480,478,-131,1061,2,-51,4
3481,403,-16,1024,16,23,6
3482,8,68,999,5,73,14
3483,-405,100,921,-7,59,19
3484,-486,24,889,-21,-8,4
3485,-148,-101,999,-18,-74,-10
3486,344,-144,1074,-5,-81,-2
3487,486,-87,1038,9,-21,6
3488,257,25,1013,16,50,9
3489,-181,87,969,-3,75,17
3490,-488,83,891,-14,35,15
3491,-371,-30,932,-26,-38,-4
3492,67,-133,1047,-13,-87,-8
3493,441,-137,1061,1,-61,2
3494,427,-42,1022,16,9,7
3495,73,58,992,7,68,12
3496,-323,105,947,-6,65,18
3497,-491,45,888,-19,7,7
3498,-225,-82,988,-19,-63,-10
3499,254,-145,1073,-7,-86,-4
3500,474,-110,1029,6,-31,6
3501,326,3,1014,15,36,7
3502,-88,83,979,2,75,16
3503,-449,94,920,-12,49,17
3504,-433,-4,917,-21,-27,-1
3505,-43,-115,1027,-14,-80,-9
3506,398,-138,1061,-3,-72,1
3507,468,-68,1021,13,-4,7
3508,173,39,1014,11,60,10
3509,-255,102,962,0,70,18
3510,-509,61,883,-18,21,11
3511,-312,-56,953,-20,-55,-8
3512,163,-137,1058,-12,-86,-7
3513,482,-129,1048,2,-49,6
3514,392,-11,1025,18,27,8
3515,-7,74,1000,5,72,12
3516,-416,94,919,-8,58,17
3517,-483,18,896,-22,-11,2
3518,-132,-101,1001,-16,-76,-10
3519,364,-144,1071,-6,-79,-2
3520,487,-82,1036,11,-19,7
3521,240,30,1013,13,53,8
3522,-202,96,972,-2,72,17
3523,-505,70,878,-17,35,15
3524,-359,-34,940,-21,-43,-4
3525,94,-128,1049,-12,-87,-7
3526,459,-140,1063,0,-56,4
3527,419,-32,1020,17,12,6
3528,49,66,992,4,70,13
3529,-349,100,936,-9,64,19
3530,-492,40,892,-20,3,6
3531,-202,-82,995,-17,-67,-9
3532,286,-145,1075,-10,-86,-3
3533,475,-107,1030,6,-28,6
3534,303,15,1008,15,41,7
3535,-116,83,973,0,77,16
3536,-458,88,914,-13,43,16
3537,-412,-9,921,-22,-30,-2
3538,-8,-119,1038,-14,-82,-9
3539,408,-145,1057,-3,-69,1
3540,454,-55,1017,15,1,6
3541,145,49,1010,10,61,10
3542,-269,95,958,-5,70,18
3543,-506,63,890,-18,15,10
3544,-285,-65,958,-20,-57,-7
3545,189,-140,1063,-9,-86,-6
3546,478,-125,1036,5,-43,4
3547,378,-4,1025,16,31,8
3548,-29,76,995,3,72,14
3549,-426,94,913,-8,56,18
3550,-474,20,906,-24,-16,1
3551,-109,-113,1001,-18,-78,-11
3552,380,-143,1075,-6,-76,0
3553,487,-82,1030,12,-13,6
3554,227,32,1023,12,55,10
3555,-225,93,967,-3,73,18
3556,-509,76,882,-18,30,14
3557,-346,-39,937,-21,-47,-7
3558,117,-139,1049,-10,-87,-8
3559,473,-130,1064,1,-55,4
3560,414,-27,1026,16,16,6
3561,31,62,993,4,72,12
3562,-375,105,928,-5,60,19
3563,-487,29,887,-21,-2,5
3564,-174,-96,1002,-17,-70,-12
3565,310,-140,1078,-5,-84,-4
3566,484,-103,1030,7,-25,5
3567,281,23,1011,15,44,8
3568,-149,89,968,-2,76,17
3569,-467,80,904,-15,41,16
3570,-398,-17,928,-22,-32,-4
3571,25,-124,1040,-14,-85,-9
3572,425,-137,1061,-1,-64,2
3573,434,-50,1019,13,5,7
3574,115,51,997,10,64,10
3575,-291,101,955,-6,69,18
3576,-494,48,887,-20,10,7
3577,-258,-71,976,-21,-60,-11
3578,213,-136,1069,-8,-86,-5
3579,475,-118,1030,3,-39,6
3580,355,2,1021,17,33,7
3581,-52,80,985,2,72,14
3582,-435,94,922,-11,52,19
3583,-461,3,907,-23,-21,1
3584,-79,-115,1007,-17,-78,-9
3585,383,-144,1069,-5,-74,1
3586,483,-81,1025,12,-8,6
3587,202,48,1025,15,58,8
3588,-236,101,964,-3,71,18
3589,-514,69,878,-17,26,12
3590,-334,-42,944,-23,-51,-6
3591,146,-141,1051,-13,-86,-7
3592,480,-134,1066,2,-52,4
3593,404,-20,1019,17,21,7
3594,12,67,1000,4,73,14
3595,-402,96,922,-8,58,20
3596,-487,30,889,-20,-4,3
3597,-152,-99,1002,-19,-74,-9
3598,342,-143,1077,-6,-81,-2
3599,490,-90,1036,8,-21,5
3600,260,27,1011,13,50,8
3601,-174,95,974,-3,75,17
3602,-491,81,889,-16,37,16
3603,-377,-26,932,-22,-38,-5
3604,62,-129,1052,-14,-86,-8
3605,438,-145,1057,-1,-59,4
3606,429,-40,1023,16,8,6
3607,81,50,985,7,68,11
3608,-317,102,945,-5,66,19
3609,-496,55,899,-18,6,7
3610,-229,-78,983,-19,-64,-9
3611,248,-142,1071,-8,-86,-4
3612,473,-115,1027,4,-34,6
3613,334,2,1012,15,38,7
3614,-86,78,981,1,74,15
3615,-444,94,919,-10,48,18
3616,-439,2,914,-23,-24,-1
3617,-51,-116,1021,-16,-80,-11
3618,393,-141,1066,-4,-73,1
3619,467,-65,1020,13,-3,6
3620,182,39,1015,10,59,9
3621,-250,106,961,-3,71,18
3622,-509,65,881,-19,24,10
3623,-313,-55,954,-22,-55,-6
3624,159,-136,1054,-11,-86,-8
3625,482,-131,1049,1,-48,4
3626,396,-14,1030,19,25,8
3627,-2,73,996,5,72,14
3628,-414,96,917,-9,57,18
3629,-482,24,896,-23,-12,4
3630,-136,-101,998,-17,-74,-8
3631,360,-142,1078,-6,-78,-1
3632,488,-90,1035,11,-19,6
3633,244,26,1016,14,53,9
3634,-201,96,969,0,73,18
3635,-500,77,882,-14,35,14
3636,-360,-38,937,-22,-41,-6
3637,91,-129,1048,-9,-88,-7
3638,457,-133,1066,-2,-57,4
3639,420,-35,1020,15,13,6
3640,52,66,990,7,71,12
3641,-346,98,933,-8,64,20
3642,-491,32,891,-20,3,7
3643,-202,-82,999,-20,-67,-9
3644,283,-147,1071,-6,-84,-4
3645,475,-110,1032,7,-29,6
3646,302,17,1011,16,41,8
3647,-119,86,975,0,76,15
3648,-456,87,915,-12,43,16
3649,-412,-2,922,-20,-29,-2
3650,-11,-116,1035,-17,-83,-9
3651,408,-146,1061,-3,-69,1
3652,449,-58,1018,12,2,8
3653,144,42,1003,10,62,10
3654,-269,94,959,-3,70,19
3655,-505,56,887,-16,16,9
3656,-285,-57,961,-18,-58,-9
3657,188,-140,1059,-9,-84,-5
3658,479,-118,1039,4,-43,6
3659,378,2,1027,17,30,8
3660,-28,77,994,1,74,14
3661,-426,91,921,-11,55,18
3662,-471,10,900,-24,-17,1
3663,-106,-113,1003,-18,-76,-9
3664,374,-148,1071,-3,-77,1
3665,485,-80,1031,12,-14,6
3666,226,35,1020,14,55,8
3667,-220,98,971,-3,71,17
3668,-510,74,875,-15,31,11
3669,-342,-35,944,-22,-48,-7
3670,120,-142,1047,-13,-86,-8
3671,471,-130,1066,1,-52,4
3672,411,-30,1023,16,17,7
3673,28,57,994,4,70,12
3674,-380,101,927,-6,61,19
3675,-489,31,888,-22,-3,4
3676,-172,-88,1003,-16,-72,-9
3677,315,-137,1074,-6,-82,-3
3678,486,-99,1035,7,-26,6
3679,280,23,1011,14,44,9
3680,-151,91,968,-1,76,16
3681,-470,87,904,-14,39,16
3682,-393,-19,929,-23,-33,-2
3683,32,-128,1038,-12,-84,-9
3684,426,-140,1063,-2,-65,2
3685,441,-51,1018,14,7,7
3686,105,51,995,10,66,11
3687,-298,103,951,-5,67,19
3688,-494,50,898,-18,11,9
3689,-253,-70,970,-19,-59,-9
3690,224,-134,1073,-8,-86,-5
3691,470,-115,1029,3,-37,6
3692,351,-4,1019,16,33,6
3693,-61,83,990,3,75,15
3694,-434,91,919,-12,53,18
3695,-452,1,909,-20,-22,-1
3696,-76,-110,1014,-16,-78,-10
3697,386,-143,1066,-3,-74,0
3698,475,-76,1024,10,-7,7
3699,200,37,1020,15,59,9
3700,-237,98,964,-3,71,19
3701,-517,67,879,-17,27,12
3702,-327,-46,947,-22,-52,-7
3703,144,-141,1047,-12,-85,-7
3704,482,-127,1063,2,-52,4
3705,400,-19,1026,17,23,7
3706,7,71,998,6,72,13
3707,-402,100,920,-10,59,20
3708,-491,22,890,-21,-6,3
3709,-148,-100,1004,-19,-75,-11
3710,344,-140,1079,-4,-81,-2
3711,490,-97,1033,8,-23,5
3712,258,27,1016,15,50,7
3713,-184,90,970,-3,77,18
3714,-493,75,888,-17,36,16
3715,-376,-24,936,-14,-37,-5
3716,70,-130,1044,-22,-88,-9
3717,444,-135,1067,6,-60,3
3718,427,-40,1018,10,10,7
3719,75,62,991,10,68,12
3720,-324,98,943,-11,65,20
3721,-491,45,893,-20,6,8
3722,-226,-80,989,-18,-65,-9
3723,258,-147,1071,-11,-87,-4
3724,472,-110,1028,9,-33,6
3725,327,7,1011,11,37,7
3726,-89,81,982,5,76,14
3727,-448,91,920,-17,47,17
3728,-431,-1,914,-17,-29,-2
3729,-38,-119,1025,-20,-79,-10
3730,399,-139,1065,0,-72,1
3731,463,-64,1017,12,-2,7
3732,171,41,1014,10,61,10
3733,-257,96,958,-2,70,19
3734,-509,63,888,-18,21,12
3735,-309,-56,956,-19,-55,-8
3736,174,-142,1054,-12,-87,-7
3737,479,-124,1045,6,-47,6
3738,392,-12,1028,15,27,6
3739,-10,72,996,6,71,12
3740,-418,101,917,-11,59,19
3741,-478,20,899,-21,-12,1
3742,-128,-112,997,-19,-76,-11
3743,365,-145,1077,-7,-76,-1
3744,488,-88,1034,11,-17,6
3745,236,31,1021,13,54,8
3746,-205,95,964,0,73,16
3747,-507,78,881,-18,32,14
3748,-357,-37,939,-22,-45,-5
3749,98,-129,1045,-13,-87,-9
3750,460,-132,1069,0,-57,4
3751,420,-35,1021,14,14,6
3752,44,65,992,8,72,12
3753,-356,101,935,-6,61,18
3754,-489,35,889,-21,3,6
3755,-194,-84,996,-17,-69,-10
3756,292,-139,1077,-8,-86,-4
3757,478,-106,1028,8,-27,5
3758,300,18,1014,15,40,6
3759,-124,84,971,1,76,16
3760,-458,88,913,-13,44,15
3761,-414,-11,923,-21,-31,-3
3762,3,-126,1036,-15,-83,-10
3763,412,-138,1059,-2,-67,1
3764,451,-61,1012,13,0,7
3765,135,53,1008,10,63,10
3766,-276,104,958,-3,70,19
3767,-502,53,892,-20,14,9
3768,-282,-59,966,-19,-58,-9
3769,197,-140,1060,-12,-87,-6
3770,475,-127,1036,4,-41,5
3771,371,-4,1024,16,33,8
3772,-33,74,992,3,71,14
3773,-431,91,917,-9,55,18
3774,-467,13,908,-22,-18,1
3775,-104,-106,1005,-15,-78,-9
3776,379,-144,1074,-6,-76,-1
3777,484,-79,1028,13,-13,7
3778,218,41,1024,13,55,9
3779,-221,94,970,-4,72,18
3780,-512,72,880,-16,30,13
3781,-339,-41,937,-22,-49,-6
3782,128,-141,1052,-11,-86,-8
3783,471,-133,1064,1,-54,3
3784,415,-27,1023,18,18,7
3785,20,71,998,4,73,12
3786,-383,102,921,-6,59,20
3787,-488,34,890,-22,-2,5
3788,-164,-92,1004,-16,-71,-10
3789,324,-144,1075,-8,-82,-3
3790,479,-95,1034,10,-23,6
3791,274,22,1010,12,46,9
3792,-161,81,966,-3,75,18
3793,-477,85,902,-14,39,16
3794,-386,-20,929,-23,-35,-4
3795,43,-127,1042,-12,-86,-8
3796,430,-135,1064,-2,-62,2
3797,435,-50,1016,13,6,6
3798,100,51,998,8,65,10
3799,-304,105,947,-6,68,19
3800,-494,50,890,-21,9,8
3801,-249,-75,980,-21,-60,-10
3802,230,-145,1065,-10,-87,-5
3803,470,-117,1030,5,-36,5
3804,348,0,1021,17,35,8
3805,-65,80,985,3,74,15
3806,-443,96,922,-11,50,17
3807,-444,0,909,-22,-24,-1
3808,-68,-108,1017,-15,-78,-10
3809,390,-143,1065,-5,-74,0
3810,477,-72,1025,12,-7,7
3811,190,36,1017,12,59,9
3812,-241,98,965,-1,70,18
3813,-514,71,881,-17,24,10
3814,-323,-54,945,-22,-53,-9
3815,148,-135,1055,-9,-85,-7
3816,481,-129,1057,1,-51,5
3817,399,-16,1022,20,24,6
3818,2,73,1000,4,72,13
3819,-405,97,919,-9,58,20
3820,-486,22,893,-22,-7,4
3821,-143,-103,999,-18,-75,-10
3822,349,-141,1076,-4,-79,-1
3823,488,-96,1036,9,-19,6
3824,247,31,1015,15,51,7
3825,-190,93,971,-2,74,17
3826,-495,75,883,-16,37,15
3827,-366,-26,937,-21,-40,-6
3828,79,-125,1048,-14,-86,-8
3829,447,-139,1064,1,-58,4
3830,425,-40,1018,13,9,5
3831,62,60,991,7,69,12
3832,-335,101,941,-8,64,19
3833,-491,40,891,-19,3,8
3834,-215,-78,992,-19,-64,-9
3835,269,-140,1073,-8,-86,-5
3836,473,-113,1027,7,-31,5
3837,315,16,1011,15,39,8
3838,-100,79,976,4,74,16
3839,-447,88,919,-13,45,16
3840,-424,-4,916,-20,-27,-3
3841,-20,-119,1031,-17,-82,-9
3842,401,-139,1061,-2,-68,1
3843,457,-60,1017,12,1,6
3844,161,44,1012,10,60,11
3845,-264,98,959,-4,71,18
3846,-503,62,889,-18,18,10
3847,-295,-57,958,-20,-57,-8
3848,184,-144,1056,-14,-85,-6
3849,476,-119,1042,6,-45,5
3850,383,-9,1022,14,29,6
3851,-18,73,997,5,73,16
3852,-427,103,920,-10,56,18
3853,-472,12,897,-22,-14,0
3854,-117,-106,1005,-17,-76,-10
3855,372,-144,1070,-4,-77,0
3856,488,-81,1035,10,-15,7
3857,227,32,1023,13,56,10
3858,-215,89,964,-3,72,18
3859,-512,79,880,-16,32,13
3860,-350,-43,939,-22,-45,-6
3861,111,-136,1046,-13,-88,-7
3862,462,-127,1070,2,-54,4
3863,418,-30,1022,14,14,7
3864,36,64,991,9,72,12
3865,-371,104,933,-11,63,17
3866,-486,33,887,-21,0,5
3867,-184,-93,1002,-20,-70,-9
3868,307,-144,1074,-5,-84,-3
3869,482,-101,1031,7,-27,7
3870,286,13,1012,14,44,8
3871,-140,87,971,3,76,16
3872,-467,91,903,-14,38,16
3873,-399,-21,928,-19,-32,-3
3874,20,-121,1041,-15,-84,-8
3875,419,-138,1062,1,-66,3
3876,441,-54,1018,10,4,7
3877,119,53,997,12,64,10
3878,-287,101,952,-6,68,20
3879,-499,51,896,-17,12,9
3880,-265,-74,970,-20,-59,-9
3881,213,-139,1065,-7,-86,-5
3882,477,-123,1028,3,-40,7
3883,360,4,1024,17,35,7
3884,-50,81,987,3,73,14
3885,-435,94,922,-11,52,19
3886,-463,8,907,-20,-20,0
3887,-83,-114,1007,-20,-79,-9
3888,389,-141,1073,-4,-76,1
3889,480,-77,1022,9,-8,6
3890,207,39,1025,14,59,9
3891,-236,97,964,-4,71,18
3892,-514,66,878,-16,27,13
3893,-335,-45,945,-22,-51,-7
3894,142,-143,1048,-11,-87,-8
3895,477,-128,1065,1,-50,6
3896,405,-18,1023,17,22,7
3897,16,68,997,5,73,13
3898,-403,98,922,-9,60,18
3899,-487,27,889,-20,-6,3
3900,-151,-93,1003,-19,-74,-10
3901,341,-149,1075,-5,-80,-3
3902,490,-97,1034,7,-23,5
3903,257,29,1011,16,51,7
3904,-175,85,970,-1,74,17
3905,-492,86,893,-14,36,16
3906,-379,-27,929,-22,-36,-5
3907,69,-129,1053,-13,-87,-8
3908,438,-136,1061,-1,-60,3
3909,430,-45,1020,12,9,6
3910,78,57,993,10,68,11
3911,-323,100,941,-7,67,19
3912,-492,45,895,-18,7,8
3913,-230,-77,988,-20,-64,-10
3914,253,-144,1067,-7,-87,-5
3915,470,-108,1032,6,-33,6
3916,331,7,1012,13,37,7
3917,-85,76,977,3,75,14
3918,-446,92,923,-13,48,17
3919,-430,-2,915,-21,-25,0
3920,-47,-116,1025,-17,-80,-10
3921,396,-143,1063,-3,-71,1
3922,466,-64,1019,11,-3,6
3923,174,39,1015,11,60,9
3924,-251,99,959,-4,71,18
3925,-509,68,886,-17,22,12
3926,-307,-61,952,-23,-54,-8
3927,166,-137,1055,-8,-86,-6
3928,478,-124,1048,3,-47,5
3929,392,-14,1023,14,27,7
3930,-10,78,1000,6,72,14
3931,-418,94,915,-10,58,19
3932,-479,15,897,-20,-11,2
3933,-126,-102,1000,-17,-76,-10
3934,362,-143,1077,-6,-78,0
3935,491,-89,1034,8,-18,8
3936,235,36,1020,13,53,8
3937,-207,90,967,-2,72,16
3938,-506,75,884,-17,33,14
3939,-353,-37,934,-20,-44,-7
3940,102,-133,1048,-13,-88,-7
3941,458,-131,1067,1,-56,4
3942,419,-31,1021,15,15,6
3943,43,67,996,7,70,12
3944,-357,101,931,-10,63,19
3945,-489,37,892,-20,2,4
3946,-194,-90,999,-21,-69,-11
3947,295,-145,1073,-6,-85,-3
3948,475,-110,1029,6,-28,6
3949,294,19,1011,17,41,8
3950,-128,86,971,0,76,15
3951,-461,86,913,-15,44,16
3952,-405,-10,922,-21,-31,-3
3953,7,-120,1038,-15,-83,-9
3954,414,-149,1057,-3,-67,1
3955,446,-52,1020,15,3,5
3956,129,53,1002,8,62,10
3957,-281,94,953,-5,70,19
3958,-499,57,893,-20,14,10
3959,-274,-68,964,-19,-59,-9
3960,204,-141,1066,-9,-87,-5
3961,477,-118,1036,6,-40,5
3962,368,0,1023,15,32,7
3963,-42,78,990,4,73,13
3964,-434,95,920,-10,53,18
3965,-466,7,904,-23,-20,-1
3966,-92,-109,1012,-16,-78,-11
3967,381,-145,1068,-7,-75,0
3968,484,-78,1029,13,-12,5
3969,215,38,1024,10,57,9
3970,-229,95,965,-3,72,17
3971,-514,74,880,-17,28,12
3972,-334,-44,941,-22,-49,-7
3973,131,-141,1047,-11,-87,-8
3974,476,-128,1067,2,-53,4
3975,411,-25,1022,16,20,6
3976,21,69,998,5,73,13
3977,-390,100,923,-9,60,19
3978,-486,28,890,-21,-3,3
3979,-163,-99,998,-17,-73,-10
3980,330,-142,1076,-5,-82,-2
3981,485,-93,1034,10,-23,6
3982,269,17,1011,12,46,7
3983,-168,95,972,2,76,16
3984,-482,80,892,-14,38,14
3985,-383,-25,934,-20,-35,-4
3986,50,-127,1043,-14,-87,-9
3987,432,-142,1061,0,-62,2
3988,431,-44,1021,15,8,8
3989,87,56,988,9,66,11
3990,-313,102,947,-5,67,19
3991,-491,48,896,-20,7,9
3992,-235,-78,984,-20,-62,-9
3993,243,-143,1068,-8,-86,-5
3994,474,-112,1028,6,-35,7
3995,336,3,1014,13,36,7
3996,-78,84,982,6,76,16
3997,-443,93,923,-14,49,17
3998,-441,-4,909,-20,-25,-1
3999,-54,-111,1020,-17,-79,-10
4000,395,-145,1066,-4,-72,0
4001,473,-73,1022,13,-5,8
4002,184,44,1022,11,60,10
4003,-249,101,961,-1,71,19
4004,-514,65,882,-19,22,13
4005,-316,-51,951,-20,-53,-8
4006,161,-135,1055,-12,-86,-8
4007,481,-132,1052,3,-49,6
4008,396,-11,1022,15,26,6
4009,-3,72,1000,6,72,12
4010,-414,91,920,-9,60,18
4011,-485,22,892,-21,-9,2
4012,-135,-103,1000,-18,-77,-10
4013,360,-143,1075,-5,-78,-1
4014,487,-85,1035,10,-18,7
4015,244,30,1017,12,52,8
4016,-197,92,970,-3,73,18
4017,-499,79,883,-15,34,15
4018,-360,-34,937,-20,-42,-5
4019,90,-134,1047,-15,-87,-10
4020,456,-135,1066,2,-57,3
4021,418,-35,1025,14,12,7
4022,53,66,990,9,70,12
4023,-349,96,935,-9,64,19
4024,-489,39,889,-18,3,7
4025,-198,-82,999,-20,-68,-9
4026,285,-147,1072,-8,-84,-2
4027,472,-102,1033,7,-28,5
4028,300,14,1009,13,40,7
4029,-117,78,972,1,75,16
4030,-458,89,912,-14,42,16
4031,-413,-10,924,-21,-29,-3
4032,0,-126,1039,-16,-83,-9
4033,407,-135,1059,1,-67,2
4034,450,-54,1015,11,1,6
4035,139,46,1008,11,64,11
4036,-276,103,957,-5,70,19
4037,-498,56,891,-18,15,10
4038,-278,-63,968,-21,-57,-9
4039,197,-143,1058,-9,-86,-5
4040,475,-123,1036,5,-42,5
4041,370,-2,1027,15,30,6
4042,-36,77,986,6,71,14
4043,-431,96,920,-12,55,18
4044,-460,11,906,-19,-18,1
4045,-98,-108,1003,-18,-77,-10
4046,378,-141,1074,-3,-75,0
4047,484,-79,1028,10,-12,7
4048,214,36,1021,14,57,10
4049,-226,95,967,-3,72,17
4050,-512,75,879,-17,30,12
4051,-339,-47,940,-23,-48,-6
4052,129,-133,1051,-9,-86,-7
4053,474,-131,1065,0,-56,4
4054,413,-33,1022,18,18,7
4055,19,74,998,2,73,12
4056,-387,100,921,-6,60,18
4057,-488,28,891,-26,-3,4
4058,-164,-94,998,-14,-72,-11
4059,330,-145,1075,-9,-82,-2
4060,485,-101,1037,10,-23,7
4061,269,26,1009,13,46,9
4062,-167,89,968,1,75,16
4063,-480,81,900,-15,39,16
4064,-383,-21,929,-20,-35,-5
4065,51,-127,1045,-14,-86,-9
4066,436,-139,1064,0,-62,4
4067,431,-43,1017,13,8,6
4068,90,56,992,9,66,10
4069,-311,100,949,-7,67,19
4070,-493,46,892,-18,8,8
4071,-237,-77,983,-18,-62,-9
4072,241,-140,1070,-10,-85,-4
4073,471,-117,1030,6,-34,6
4074,338,6,1015,15,35,6
4075,-77,82,981,4,75,16
4076,-442,92,919,-13,49,17
4077,-439,3,915,-19,-25,0
4078,-54,-111,1019,-18,-79,-11
4079,396,-147,1063,-3,-72,1
4080,466,-64,1021,12,-4,6
4081,181,42,1016,11,61,8
4082,-251,95,962,-5,71,19
4083,-510,66,882,-17,22,10
4084,-311,-51,951,-21,-54,-9
4085,163,-144,1051,-12,-85,-6
4086,482,-126,1054,3,-49,6
4087,393,-12,1020,15,27,7
4088,0,71,1000,4,71,14
4089,-417,102,920,-8,58,18
4090,-481,21,891,-21,-11,1
4091,-131,-107,1000,-18,-76,-10
4092,360,-141,1077,-5,-78,-1
4093,491,-88,1037,7,-18,7
4094,240,30,1016,14,53,9
4095,-200,90,970,-2,73,17
4096,-502,74,882,-14,34,14
4097,-359,-33,937,-21,-43,-6
4098,92,-134,1047,-13,-86,-7
4099,455,-134,1068,2,-56,4
4100,419,-26,1027,15,13,6
4101,47,58,987,5,70,10
4102,-354,104,938,-7,63,19
4103,-486,38,893,-19,2,6
4104,-192,-94,997,-23,-67,-9
4105,286,-143,1073,-4,-83,-3
4106,478,-106,1029,6,-28,7
4107,295,16,1009,15,42,8
4108,-124,91,972,0,76,15
4109,-456,91,910,-13,43,16
4110,-404,-16,923,-22,-31,-3
4111,8,-120,1038,-15,-82,-9
4112,413,-144,1054,-3,-68,3
4113,447,-56,1021,13,3,7
4114,129,46,996,9,64,10
4115,-278,101,956,-3,69,19
4116,-503,55,892,-17,13,10
4117,-272,-70,969,-22,-59,-8
4118,202,-134,1064,-9,-87,-5
4119,475,-122,1033,2,-40,5
4120,366,-3,1022,16,34,7
4121,-42,77,992,3,72,13
4122,-432,95,923,-12,54,19
4123,-464,8,903,-21,-19,1
4124,-97,-109,1006,-16,-79,-11
4125,382,-147,1073,-5,-76,1
4126,481,-78,1028,10,-11,6
4127,212,35,1019,13,57,7
4128,-227,101,969,0,72,18
4129,-516,69,876,-17,28,12
4130,-336,-43,943,-21,-50,-9
4131,135,-134,1047,-11,-86,-7
4132,478,-138,1063,1,-54,6
4133,410,-19,1023,17,21,5
4134,19,70,995,6,72,12
4135,-393,94,919,-9,59,19
4136,-488,33,891,-21,-3,4
4137,-160,-99,1000,-17,-73,-10
4138,334,-146,1077,-6,-80,-2
4139,487,-94,1036,8,-23,6
4140,264,29,1011,13,47,8
4141,-172,88,974,-1,75,18
4142,-486,81,890,-14,38,15
4143,-378,-27,933,-21,-37,-5
4144,58,-132,1045,-14,-86,-9
4145,437,-139,1063,1,-60,3
4146,427,-40,1018,16,9,6
4147,80,60,993,9,68,10
4148,-318,101,944,-6,64,19
4149,-492,50,895,-19,6,8
4150,-226,-74,988,-20,-62,-10
4151,248,-148,1068,-10,-87,-4
4152,472,-112,1030,8,-32,6
4153,328,7,1013,14,38,7
4154,-90,78,978,4,75,16
4155,-443,92,922,-12,47,18
4156,-433,-1,916,-19,-26,-1
4157,-38,-117,1027,-17,-82,-11
4158,397,-135,1066,-2,-71,0
4159,465,-62,1016,11,-3,6
4160,172,40,1017,11,60,9
4161,-257,98,961,-2,71,18
4162,-509,63,885,-18,19,11
4163,-306,-62,953,-20,-55,-7
4164,171,-139,1058,-12,-86,-6
4165,477,-126,1046,6,-47,5
4166,391,-10,1028,14,26,7
4167,-12,74,996,7,73,13
4168,-421,100,918,-10,57,18
4169,-479,19,898,-22,-11,2
4170,-123,-106,1001,-19,-76,-10
4171,364,-141,1076,-5,-77,-2
4172,489,-88,1034,10,-17,7
4173,235,30,1018,11,54,9
4174,-209,94,969,0,73,18
4175,-509,76,880,-17,32,13
4176,-356,-40,937,-20,-45,-6
4177,104,-133,1048,-11,-87,-8
4178,463,-130,1071,1,-58,3
4179,419,-32,1019,14,14,6
4180,40,70,994,5,71,11
4181,-362,102,934,-8,61,18
4182,-487,27,887,-21,2,5
4183,-187,-92,1003,-16,-68,-9
4184,300,-145,1072,-8,-84,-3
4185,480,-107,1035,9,-27,6
4186,289,20,1010,15,42,7
4187,-137,92,971,0,76,14
4188,-464,83,908,-16,41,16
4189,-399,-9,927,-21,-33,-2
4190,16,-121,1040,-16,-84,-10
4191,420,-150,1056,-3,-65,2
4192,439,-50,1018,14,4,7
4193,119,49,997,11,64,9
4194,-289,98,954,-4,70,19
4195,-500,53,893,-17,11,8
4196,-262,-65,972,-18,-59,-9
4197,215,-138,1067,-10,-87,-5
4198,474,-119,1032,6,-40,5
4199,359,5,1021,14,34,8
4200,-51,77,987,3,73,15
4201,-435,91,918,-12,52,18
4202,-458,3,904,-22,-21,-2
4203,-81,-115,1015,-17,-79,-10
4204,386,-145,1065,-4,-75,0
4205,477,-71,1026,13,-9,7
4206,205,40,1021,13,57,10
4207,-235,96,964,-2,72,17
4208,-515,72,883,-16,27,12
4209,-330,-45,944,-21,-51,-7
4210,140,-143,1048,-13,-84,-7
4211,478,-132,1064,1,-51,3
4212,402,-18,1023,16,22,6
4213,9,66,998,4,73,12
4214,-402,96,919,-7,59,19
4215,-486,28,891,-21,-6,3
4216,-151,-101,1001,-18,-74,-10
4217,343,-140,1076,-5,-80,-2
4218,490,-86,1036,11,-20,7
4219,255,28,1013,12,50,7
4220,-182,92,970,-2,74,16
4221,-492,80,886,-16,36,15
4222,-371,-33,934,-21,-39,-6
4223,74,-130,1047,-11,-87,-8
4224,442,-137,1063,-1,-59,4
4225,424,-38,1022,15,10,6
4226,69,59,988,9,69,9
4227,-327,99,942,-6,64,19
4228,-488,49,895,-19,5,7
4229,-215,-85,992,-21,-63,-10
4230,264,-138,1072,-6,-85,-3
4231,470,-111,1030,3,-32,5
4232,316,7,1012,16,38,7
4233,-103,81,976,1,76,15
4234,-445,89,920,-11,45,17
4235,-428,-8,915,-22,-28,-2
4236,-28,-113,1030,-14,-81,-10
4237,403,-136,1061,-2,-70,1
4238,461,-64,1017,12,-2,8
4239,155,48,1012,11,60,9
4240,-261,98,956,-2,70,18
4241,-505,56,891,-18,18,10
4242,-298,-62,957,-20,-56,-11
4243,181,-139,1050,-10,-86,-6
4244,476,-127,1046,4,-46,5
4245,385,-5,1025,15,28,6
4246,-17,77,992,5,72,12
4247,-425,92,922,-11,56,18
4248,-473,15,895,-21,-14,2
4249,-114,-107,1003,-16,-76,-10
4250,373,-148,1077,-4,-77,-1
4251,489,-84,1033,10,-14,7
4252,227,34,1019,13,56,8
4253,-212,94,968,-1,72,18
4254,-512,75,881,-18,33,14
4255,-350,-37,941,-22,-47,-8
4256,115,-135,1048,-14,-87,-9
4257,468,-136,1067,1,-55,3
4258,413,-30,1023,15,16,7
4259,30,63,993,5,71,11
4260,-375,98,925,-8,61,19
4261,-490,34,890,-19,-1,5
4262,-177,-88,1002,-16,-71,-9
4263,312,-145,1074,-8,-84,-3
4264,483,-99,1033,8,-26,6
4265,283,25,1009,13,43,6
4266,-149,80,970,-1,75,16
4267,-473,89,906,-12,40,17
4268,-391,-18,924,-22,-33,-4
4269,30,-128,1046,-15,-86,-9
4270,425,-141,1057,-1,-64,2
4271,439,-47,1018,14,5,7
4272,106,54,998,10,64,10
4273,-293,101,947,-6,69,18
4274,-493,57,892,-18,10,8
4275,-253,-71,979,-21,-59,-9
4276,228,-143,1070,-10,-86,-5
4277,470,-113,1029,5,-37,6
4278,348,1,1020,15,34,6
4279,-59,73,982,3,73,13
4280,-438,97,926,-11,50,18
4281,-448,0,908,-22,-23,-1
4282,-71,-114,1016,-15,-79,-11
4283,388,-142,1069,-2,-74,1
4284,476,-70,1023,12,-7,7
4285,190,41,1023,11,58,9
4286,-240,97,961,-4,71,18
4287,-513,73,884,-17,25,12
4288,-324,-56,944,-22,-54,-7
4289,155,-140,1052,-12,-86,-7
4290,479,-124,1057,2,-50,5
4291,400,-18,1026,15,23,6
4292,1,72,997,6,73,12
4293,-407,101,920,-9,58,18
4294,-485,19,890,-21,-8,2
4295,-140,-99,1002,-18,-75,-10
4296,350,-143,1075,-5,-80,-2
4297,494,-93,1037,9,-22,7
4298,250,31,1016,14,51,9
4299,-194,92,970,-2,74,16
4300,-497,79,885,-16,35,15
4301,-365,-29,937,-21,-40,-6
4302,81,-129,1046,-13,-87,-10
4303,451,-137,1068,0,-57,5
4304,421,-35,1023,13,10,7
4305,61,56,986,7,69,12
4306,-340,101,943,-6,63,19
4307,-493,35,887,-20,3,6
4308,-206,-83,998,-18,-66,-10
4309,274,-139,1072,-7,-84,-4
4310,473,-110,1026,7,-29,6
4311,308,19,1015,14,40,8
4312,-109,85,974,2,76,16
4313,-449,82,918,-14,43,18
4314,-420,-8,921,-21,-29,-2
4315,-16,-122,1029,-16,-83,-10
4316,408,-144,1061,-3,-69,2
4317,454,-52,1016,13,1,6
4318,150,45,1008,10,61,9
4319,-271,98,958,-3,70,19
4320,-503,61,891,-18,16,10
4321,-288,-61,958,-19,-58,-9
4322,190,-139,1062,-11,-86,-7
4323,479,-121,1040,2,-44,5
4324,377,-1,1022,16,29,7
4325,-29,76,997,2,73,13
4326,-429,92,921,-9,55,18
4327,-472,12,900,-23,-18,1
4328,-107,-110,1003,-17,-75,-10
4329,376,-143,1075,-3,-76,0
4330,485,-80,1026,13,-13,6
4331,224,43,1024,14,57,8
4332,-221,98,966,-4,72,18
4333,-513,72,881,-17,31,13
4334,-346,-39,939,-23,-47,-7
4335,121,-144,1045,-11,-88,-9
4336,470,-133,1068,3,-53,4
4337,412,-25,1025,16,17,7
4338,29,64,994,6,72,12
4339,-381,105,930,-6,62,19
4340,-487,35,890,-21,-3,5
4341,-172,-93,1002,-19,-72,-10
4342,313,-144,1074,-8,-82,-2
4343,485,-98,1032,9,-26,6
4344,278,18,1010,13,45,8
4345,-154,83,970,0,77,17
4346,-472,85,902,-14,38,16
4347,-390,-20,928,-21,-35,-4
4348,34,-122,1045,-13,-85,-9
4349,425,-135,1061,-1,-65,3
4350,438,-51,1016,13,7,7
4351,105,54,999,9,65,10
4352,-298,100,948,-5,67,19
4353,-496,51,892,-20,9,9
4354,-252,-71,982,-19,-61,-8
4355,226,-143,1063,-11,-86,-5
4356,469,-115,1032,3,-36,5
4357,348,-2,1017,15,34,7
4358,-60,76,982,5,75,15
4359,-438,97,925,-11,50,17
4360,-445,-2,909,-21,-24,0
4361,-73,-108,1016,-16,-77,-11
4362,392,-139,1069,-5,-74,0
4363,478,-73,1021,12,-7,7
4364,191,42,1021,10,59,8
4365,-240,96,961,-2,69,17
4366,-513,61,885,-20,26,12
4367,-325,-51,942,-20,-52,-9
4368,154,-136,1052,-11,-86,-7
4369,479,-130,1056,4,-49,5
4370,400,-11,1025,17,23,6
4371,5,77,999,6,73,12
4372,-406,98,918,-10,59,18
4373,-487,21,891,-23,-8,2
4374,-143,-104,1004,-16,-75,-10
4375,350,-147,1073,-8,-78,-1
4376,489,-91,1037,10,-21,6
4377,251,29,1013,11,51,8
4378,-191,93,970,-1,74,18
4379,-498,79,890,-15,33,15
4380,-363,-25,934,-21,-39,-5
4381,83,-131,1047,-16,-88,-8
4382,446,-137,1067,1,-58,3
4383,425,-37,1021,15,11,6
4384,60,61,990,8,70,11
4385,-338,97,940,-7,64,19
4386,-490,41,893,-18,5,8
4387,-210,-80,994,-19,-66,-10
4388,271,-148,1072,-10,-85,-4
4389,470,-108,1029,9,-27,7
4390,312,16,1013,15,38,7
4391,-108,83,973,-3,76,15
4392,-453,87,917,-10,47,17
4393,-421,-7,917,-26,-29,-2
4394,-21,-122,1030,-13,-80,-10
4395,403,-142,1063,-5,-70,1
4396,460,-53,1020,14,0,6
4397,152,43,1007,8,62,9
4398,-268,98,957,-3,71,19
4399,-504,64,890,-18,18,11
4400,-292,-65,957,-22,-55,-9
4401,185,-142,1058,-11,-86,-7
4402,476,-121,1041,3,-44,5
4403,380,-10,1025,15,30,7
4404,-22,75,998,4,73,13
4405,-428,97,917,-9,56,19
4406,-472,12,902,-22,-17,1
4407,-113,-106,1002,-16,-77,-10
4408,372,-149,1071,-8,-76,-1
4409,489,-78,1036,13,-14,5
4410,227,28,1016,11,56,9
4411,-219,95,967,1,72,17
4412,-512,77,879,-18,32,14
4413,-347,-42,940,-21,-46,-6
4414,116,-131,1050,-13,-88,-8
4415,472,-133,1066,1,-55,4
4416,419,-32,1021,14,17,7
4417,27,69,996,5,72,12
4418,-374,97,926,-8,61,18
4419,-489,30,891,-21,0,5
4420,-179,-94,1001,-17,-71,-10
4421,314,-139,1074,-6,-84,-2
4422,478,-104,1033,9,-25,6
4423,283,20,1014,13,42,7
4424,-147,91,968,1,78,16
4425,-471,79,903,-17,39,17
4426,-394,-20,931,-20,-34,-3
4427,27,-124,1037,-15,-84,-9
4428,422,-141,1063,-2,-65,3
4429,437,-52,1017,12,5,6
4430,108,52,994,8,65,9
4431,-295,101,955,-5,67,19
4432,-497,49,888,-19,10,9
4433,-253,-66,978,-16,-59,-9
4434,221,-141,1067,-13,-88,-5
4435,472,-117,1031,6,-37,7
4436,347,3,1019,14,35,6
4437,-54,76,985,4,73,13
4438,-438,96,924,-13,53,18
4439,-452,0,905,-22,-23,-2
4440,-72,-111,1012,-16,-79,-10
4441,386,-143,1067,-4,-73,0
4442,477,-77,1024,13,-8,6
4443,198,43,1023,12,59,9
4444,-240,93,962,-2,71,18
4445,-514,69,882,-17,24,11
4446,-326,-40,946,-19,-53,-8
4447,152,-146,1047,-13,-86,-7
4448,479,-128,1060,5,-51,5
4449,403,-15,1026,11,23,7
4450,6,65,996,5,72,13
4451,-405,97,919,-11,59,18
4452,-486,23,889,-20,-7,2
4453,-146,-100,1005,-20,-75,-10
4454,347,-147,1072,-5,-80,-2
4455,490,-90,1033,10,-21,6
4456,253,31,1018,13,49,6
4457,-189,90,966,-1,74,17
4458,-493,83,886,-17,36,14
4459,-368,-30,935,-21,-39,-5
4460,78,-133,1049,-15,-86,-9
4461,446,-140,1062,2,-59,2
4462,426,-36,1022,13,10,6
4463,65,54,986,9,70,11
4464,-334,97,940,-7,63,19
4465,-490,45,896,-16,5,7
4466,-212,-81,990,-20,-65,-9
4467,267,-139,1074,-5,-86,-3
4468,472,-106,1029,6,-30,5
4469,316,6,1010,14,39,8
4470,-102,81,979,2,75,17
4471,-448,88,918,-13,46,17
4472,-421,-7,918,-21,-29,-1
4473,-26,-117,1030,-16,-82,-9
4474,405,-144,1059,-2,-70,1
4475,459,-59,1019,12,-1,7
4476,155,43,1012,11,60,8
4477,-260,103,959,-4,70,19
4478,-508,62,887,-18,17,11
4479,-296,-62,961,-21,-56,-9
4480,179,-135,1053,-9,-86,-7
4481,480,-129,1045,3,-46,5
4482,385,-9,1025,18,30,7
4483,-22,76,996,4,71,13
4484,-423,95,920,-10,56,19
