sequence,AccelerometerX,AccelerometerY,AccelerometerZ,GyroscopeX,GyroscopeY,GyroscopeZ
0,199,34,1000,-12,4,-5
1,88,29,1001,-16,27,3
2,-102,12,1002,-31,31,6
3,-200,-7,983,-5,15,-1
4,-183,3,968,-14,-12,-6
5,-2,26,998,3,-30,-11
6,146,36,1027,5,-24,-14
7,209,37,1008,-13,0,-6
8,115,31,993,-17,23,1
9,-64,11,997,-18,32,4
10,-202,-8,985,-14,18,1
11,-194,6,972,-12,-5,-3
12,-37,18,1004,-10,-29,-9
13,116,34,1011,-10,-27,-11
14,218,44,1003,-14,-8,-8
15,139,29,1006,-14,20,-1
16,-34,11,1010,-17,33,3
17,-182,-3,972,-16,21,2
18,-202,4,965,-11,-2,-3
19,-76,12,1007,-10,-26,-9
20,95,34,1019,-12,-29,-11
21,215,44,1008,-15,-12,-9
22,162,38,1001,-15,15,-1
23,-3,13,1010,-16,32,3
24,-167,0,978,-17,26,3
25,-208,-4,973,-14,3,-2
26,-110,5,986,-10,-23,-8
27,78,33,1012,-9,-30,-10
28,199,48,1008,-13,-15,-11
29,171,38,1012,-15,12,-4
30,31,17,1009,-18,30,3
31,-143,5,979,-14,28,3
32,-208,-5,977,-12,6,-2
33,-142,0,988,-11,-19,-6
34,51,33,1008,-11,-32,-10
35,191,43,1005,-13,-21,-11
36,188,37,1007,-16,6,-4
37,63,24,1014,-18,26,0
38,-120,10,991,-16,30,3
39,-202,-11,975,-12,11,-1
40,-165,1,974,-11,-14,-5
41,23,26,1013,-11,-31,-9
42,163,40,1017,-12,-23,-11
43,200,36,999,-14,1,-5
44,96,32,998,-16,25,2
45,-92,11,1004,-18,32,5
46,-202,-7,986,-15,15,1
47,-182,-2,964,-12,-11,-4
48,-7,22,1004,-10,-30,-9
49,139,34,1020,-10,-25,-11
50,212,41,1013,-13,-3,-6
51,123,32,996,-17,22,1
52,-62,12,997,-16,32,4
53,-194,-7,981,-15,19,-1
54,-197,3,971,-12,-4,-3
55,-43,15,1002,-12,-29,-9
56,114,32,1017,-11,-27,-12
57,216,42,999,-13,-8,-9
58,141,35,1005,-15,20,0
59,-28,15,1014,-17,32,3
60,-181,-1,971,-14,23,2
61,-203,6,964,-13,-1,-2
62,-85,7,998,-11,-25,-8
63,90,34,1021,-13,-31,-11
64,213,46,1006,-15,-15,-8
65,161,35,1003,-19,14,-2
66,7,13,1008,-15,31,2
67,-162,1,981,-16,27,4
68,-206,0,977,-14,3,-1
69,-119,8,988,-10,-23,-7
70,70,33,1003,-12,-31,-11
71,197,44,1016,-14,-16,-10
72,176,36,1011,-16,11,-4
73,41,16,1014,-16,29,1
74,-136,8,979,-15,29,3
75,-211,-9,972,-14,8,0
76,-148,2,988,-10,-18,-7
77,41,26,1012,-10,-31,-11
78,183,48,1002,-13,-22,-11
79,194,32,1002,-15,5,-4
80,71,29,1009,-15,27,1
81,-114,13,997,-17,33,5
82,-203,-7,979,-13,13,-1
83,-173,-1,966,-10,-13,-5
84,12,30,1013,-9,-33,-10
85,162,37,1022,-13,-23,-12
86,203,35,1001,-14,1,-7
87,106,33,994,-14,25,0
88,-83,10,1002,-17,33,4
89,-202,-5,987,-15,18,1
90,-190,0,968,-12,-8,-3
91,-19,22,1003,-9,-29,-10
92,132,34,1016,-14,-26,-11
93,210,41,1008,-15,-6,-7
94,131,35,1002,-15,21,0
95,-53,10,1001,-16,33,5
96,-189,-2,974,-14,23,2
97,-199,4,974,-14,-4,-3
98,-59,13,1007,-11,-28,-9
99,107,34,1014,-12,-29,-11
100,215,43,1003,-13,-8,-9
101,148,37,1003,-15,18,-1
102,-16,5,1015,-17,30,5
103,-175,1,973,-16,24,3
104,-203,0,969,-14,2,-2
105,-93,11,994,-11,-24,-8
106,80,32,1017,-12,-30,-11
107,205,49,1012,-14,-15,-10
108,166,33,1008,-15,15,-2
109,20,13,1005,-16,31,2
110,-153,3,980,-14,27,3
111,-207,-1,982,-12,5,-2
112,-129,2,987,-11,-21,-7
113,63,36,1005,-9,-31,-10
114,194,41,1008,-14,-17,-11
115,178,34,1012,-15,8,-3
116,52,24,1011,-16,27,2
117,-128,7,984,-17,29,3
118,-205,-4,971,-12,10,-2
119,-160,1,983,-12,-16,-5
120,33,34,1016,-10,-32,-10
121,175,41,1010,-14,-23,-10
122,199,36,1000,-16,6,-5
123,82,28,1006,-17,26,3
124,-103,10,1000,-18,32,4
125,-201,-11,984,-15,13,1
126,-178,0,964,-12,-11,-4
127,3,26,1003,-10,-29,-10
128,148,36,1026,-11,-24,-11
129,208,38,1007,-15,-2,-6
130,112,35,994,-15,23,0
131,-70,10,996,-15,32,5
132,-197,-7,987,-17,19,1
133,-188,1,969,-13,-8,-3
134,-34,16,1008,-11,-29,-9
135,123,38,1014,-12,-27,-12
136,215,42,1005,-12,-6,-8
137,135,34,1004,-17,20,-1
138,-42,11,1008,-17,33,4
139,-181,-2,973,-13,21,1
140,-199,0,964,-13,-3,-2
141,-69,10,1005,-10,-27,-9
142,101,31,1018,-12,-29,-11
143,213,47,1005,-13,-12,-9
144,153,41,1000,-15,15,-2
145,-9,15,1013,-17,29,4
146,-166,0,975,-15,24,3
147,-210,-1,971,-13,2,-2
148,-99,5,990,-12,-24,-8
149,77,30,1014,-11,-30,-11
150,205,48,1009,-13,-15,-11
151,169,36,1011,-16,11,-3
152,27,22,1010,-17,30,2
153,-147,4,977,-16,28,4
154,-208,-2,977,-15,6,-1
155,-135,1,988,-13,-19,-7
156,52,32,1001,-11,-29,-10
157,191,42,1008,-12,-19,-12
158,186,32,1007,-17,7,-3
159,56,25,1011,-16,26,3
160,-121,7,991,-18,31,4
161,-206,-5,975,-15,11,1
162,-165,-2,970,-12,-16,-5
163,26,31,1021,-9,-32,-10
164,167,40,1011,-12,-22,-10
165,200,36,999,-13,4,-6
166,95,30,997,-17,26,0
167,-99,9,1003,-17,33,4
168,-201,-7,983,-13,16,2
169,-184,-1,968,-11,-10,-4
170,-4,25,998,-10,-30,-10
171,142,36,1024,-13,-26,-12
172,211,40,1010,-16,-5,-8
173,118,31,995,-15,23,0
174,-65,10,997,-15,33,3
175,-195,-5,982,-15,20,1
176,-193,0,972,-12,-6,-4
177,-41,20,1010,-9,-28,-9
178,115,35,1011,-13,-26,-12
179,215,43,1004,-13,-8,-9
180,135,33,1007,-17,19,-1
181,-32,10,1010,-15,32,4
182,-181,-3,972,-14,22,2
183,-199,6,964,-14,-1,-3
184,-82,9,1006,-13,-25,-8
185,92,30,1016,-14,-28,-11
186,213,45,1011,-13,-13,-8
187,158,37,1002,-16,15,-1
188,2,16,1008,-16,31,3
189,-161,4,982,-15,26,3
190,-210,1,976,-14,4,0
191,-112,5,986,-11,-23,-8
192,75,32,1006,-11,-30,-10
193,197,45,1012,-12,-17,-10
194,179,35,1013,-16,10,-4
195,36,18,1010,-14,30,3
196,-139,10,976,-15,29,3
197,-210,-6,980,-11,8,0
198,-146,4,984,-11,-19,-6
199,45,29,1009,-12,-30,-10
200,189,43,1006,-12,-19,-10
201,190,34,1003,-17,7,-4
202,68,28,1013,-14,26,2
203,-116,11,997,-16,31,5
204,-206,-4,973,-14,12,0
205,-167,2,973,-11,-14,-5
206,14,30,1014,-13,-33,-8
207,163,38,1016,-12,-24,-11
208,204,31,999,-14,2,-5
209,98,34,993,-15,26,2
210,-89,8,1001,-18,33,4
211,-201,-6,988,-13,15,1
212,-190,1,966,-14,-9,-4
213,-14,23,1002,-12,-31,-10
214,135,34,1020,-13,-26,-12
215,213,40,1010,-14,-5,-8
216,127,33,1000,-16,21,1
217,-57,10,1000,-18,33,4
218,-192,-4,978,-13,21,0
219,-197,1,971,-12,-5,-3
220,-52,15,1008,-11,-28,-8
221,114,30,1015,-11,-28,-10
222,214,46,999,-13,-9,-9
223,147,38,1008,-15,19,0
224,-23,10,1014,-18,31,5
225,-178,0,970,-14,24,2
226,-204,1,967,-14,1,-2
227,-87,7,999,-12,-25,-8
228,90,32,1017,-11,-29,-11
229,210,42,1009,-14,-13,-10
230,164,36,1006,-15,13,-1
231,12,15,1005,-16,31,3
232,-159,0,980,-16,28,3
233,-207,-1,978,-13,4,-1
234,-125,3,990,-12,-22,-7
235,69,36,1000,-10,-31,-11
236,194,42,1015,-14,-16,-11
237,179,34,1010,-15,11,-4
238,44,22,1011,-14,29,3
239,-131,6,981,-15,29,4
240,-211,-7,975,-14,10,0
241,-150,4,983,-10,-17,-7
242,36,33,1015,-13,-31,-9
243,179,40,1004,-11,-22,-11
244,197,34,1004,-16,3,-4
245,77,24,1006,-16,25,2
246,-105,13,1004,-16,31,5
247,-204,-8,979,-15,13,0
248,-177,3,966,-10,-13,-4
249,9,27,1009,-10,-31,-11
250,153,36,1023,-12,-24,-12
251,207,34,1002,-12,0,-8
252,108,31,995,-16,25,0
253,-79,8,1001,-17,33,4
254,-203,-4,983,-14,17,0
255,-191,2,973,-12,-9,-5
256,-26,21,1002,-10,-29,-8
257,131,35,1014,-11,-27,-12
258,217,39,1009,-15,-8,-7
259,132,31,1000,-15,20,1
260,-45,9,1008,-16,32,4
261,-189,-3,973,-14,21,2
262,-201,5,969,-10,-4,-3
263,-63,14,1009,-13,-29,-9
264,102,32,1016,-11,-27,-11
265,220,45,1004,-14,-10,-9
266,149,34,1003,-15,17,-1
267,-13,13,1016,-14,32,4
268,-167,-3,974,-16,25,2
269,-212,1,970,-12,2,-2
270,-95,7,993,-11,-25,-8
271,83,33,1015,-11,-31,-10
272,208,47,1010,-13,-14,-9
273,167,33,1009,-16,12,-2
274,23,19,1007,-15,31,3
275,-153,3,974,-15,29,5
276,-208,-4,984,-13,5,-1
277,-132,4,986,-12,-20,-7
278,58,30,999,-11,-30,-12
279,194,45,1013,-12,-18,-11
280,182,34,1012,-16,8,-3
281,56,26,1011,-18,27,2
282,-127,6,987,-18,31,4
283,-207,-4,973,-13,10,0
284,-162,-2,979,-11,-16,-5
285,30,29,1015,-10,-32,-10
286,173,40,1012,-12,-22,-11
287,199,35,995,-15,4,-5
288,86,31,1006,-14,28,1
289,-100,12,1003,-15,33,4
290,-204,-7,983,-14,14,0
291,-178,3,964,-10,-12,-6
292,0,24,1003,-10,-29,-10
293,149,37,1024,-13,-25,-12
294,206,36,1006,-16,-3,-8
295,116,32,992,-15,23,-1
296,-72,9,1001,-17,32,4
297,-201,-3,982,-14,18,2
298,-192,0,971,-13,-7,-3
299,-34,18,1010,-9,-30,-9
300,120,36,1011,-11,-27,-10
301,218,40,1002,-14,-7,-8
302,137,36,1011,-14,21,1
303,-38,11,1006,-16,33,5
304,-182,-5,974,-15,22,1
305,-205,0,965,-12,-4,-2
306,-73,13,1008,-10,-28,-9
307,100,32,1015,-13,-29,-11
308,213,47,1008,-13,-12,-8
309,163,36,1002,-17,17,-2
310,-14,10,1013,-16,33,3
311,-162,3,977,-13,25,4
312,-206,-3,977,-14,4,0
313,-104,9,985,-10,-24,-8
314,81,29,1011,-11,-30,-12
315,203,45,1014,-12,-16,-10
316,169,34,1006,-15,13,-2
317,31,21,1012,-15,30,3
318,-150,6,975,-14,29,4
319,-210,-4,979,-13,7,-1
320,-139,2,989,-12,-20,-6
321,52,32,1005,-12,-31,-12
322,188,42,1005,-12,-19,-12
323,183,34,1010,-15,7,-4
324,61,25,1014,-15,27,2
325,-122,6,989,-16,30,3
326,-206,-6,970,-14,11,-1
327,-166,2,978,-10,-14,-6
328,23,32,1018,-13,-32,-11
329,165,38,1013,-13,-22,-12
330,203,34,997,-14,3,-6
331,92,26,1002,-15,25,1
332,-95,14,1002,-17,32,5
333,-203,-6,991,-17,14,0
334,-183,1,963,-11,-10,-5
335,-8,25,1002,-8,-30,-10
336,141,33,1023,-15,-25,-11
337,208,38,1014,-15,-5,-7
338,120,31,991,-16,21,-1
339,-67,10,1000,-16,33,4
340,-192,-5,979,-15,19,0
341,-196,0,975,-14,-6,-3
342,-41,22,1007,-10,-29,-10
343,116,34,1015,-11,-27,-12
344,219,42,999,-12,-8,-10
345,139,35,1006,-13,21,-1
346,-30,14,1015,-5,31,1
347,-178,-5,972,0,23,0
348,-200,0,962,-15,-3,-1
349,-83,7,1001,-4,-25,-8
350,97,30,1022,-17,-30,-11
351,212,44,1006,-10,-12,-9
352,161,35,1002,-16,15,-1
353,2,15,1010,-19,31,3
354,-162,-1,977,-12,27,3
355,-209,0,975,-15,3,-1
356,-113,2,987,-12,-23,-8
357,74,32,1008,-9,-31,-11
358,202,43,1013,-14,-16,-10
359,176,37,1011,-14,11,-3
360,35,23,1011,-17,30,3
361,-142,4,978,-16,29,4
362,-215,-6,975,-12,9,-1
363,-144,0,988,-14,-19,-6
364,45,32,1006,-11,-31,-10
365,189,41,1005,-11,-20,-11
366,192,35,1004,-16,5,-3
367,64,29,1014,-14,25,2
368,-116,12,992,-18,31,4
369,-207,-7,976,-11,13,1
370,-171,2,971,-10,-14,-5
371,21,28,1015,-12,-32,-9
372,164,40,1015,-12,-23,-11
373,203,34,1001,-13,1,-6
374,103,30,995,-16,24,1
375,-93,13,1006,-17,33,4
376,-202,-5,982,-14,16,0
377,-186,0,968,-12,-9,-5
378,-13,23,1001,-10,-31,-9
379,139,33,1019,-13,-26,-11
380,215,38,1011,-16,-5,-6
381,124,33,998,-16,21,-1
382,-56,12,1001,-17,33,3
383,-197,-6,976,-15,20,2
384,-195,3,975,-14,-6,-3
385,-48,13,1011,-10,-29,-10
386,110,34,1012,-11,-27,-12
387,219,41,1002,-13,-8,-9
388,145,38,1005,-17,18,-1
389,-26,12,1012,-16,32,5
390,-177,-1,975,-13,24,2
391,-205,2,961,-13,-1,-1
392,-84,10,999,-11,-26,-8
393,87,32,1021,-13,-29,-11
394,208,46,1007,-13,-14,-10
395,164,35,1004,-16,14,-2
396,7,16,1007,-16,32,2
397,-161,1,978,-15,27,2
398,-206,-3,979,-12,4,-1
399,-121,7,985,-10,-21,-6
400,72,34,1007,-9,-30,-10
401,198,45,1013,-13,-16,-11
402,175,37,1012,-16,11,-3
403,41,22,1012,-18,29,3
404,-138,6,978,-17,28,4
405,-208,-6,972,-13,8,1
406,-152,0,985,-12,-17,-6
407,41,31,1012,-12,-32,-11
408,183,39,1007,-14,-21,-11
409,197,36,1001,-17,6,-6
410,70,24,1012,-15,28,0
411,-111,13,999,-17,32,4
412,-206,-12,978,-14,12,1
413,-175,5,969,-11,-12,-5
414,14,27,1013,-11,-31,-9
415,161,36,1019,-11,-24,-11
416,207,35,1000,-13,-1,-7
417,107,30,994,-15,23,0
418,-83,13,1003,-13,32,4
419,-201,-7,986,-15,16,1
420,-186,5,970,-13,-7,-3
421,-21,22,1001,-10,-29,-9
422,135,34,1017,-10,-27,-11
423,214,38,1013,-13,-6,-7
424,127,34,997,-14,21,0
425,-48,10,1006,-15,33,3
426,-192,-5,973,-15,22,2
427,-197,5,969,-11,-5,-2
428,-54,14,1008,-12,-29,-10
429,106,34,1013,-11,-29,-11
430,219,45,1003,-12,-9,-8
431,143,34,1005,-17,19,-1
432,-23,12,1015,-18,32,4
433,-175,-2,973,-16,24,2
434,-204,0,967,-14,1,-1
435,-92,7,994,-11,-24,-8
436,88,32,1020,-12,-29,-10
437,210,45,1009,-11,-14,-10
438,163,39,1004,-15,14,-1
439,15,18,1005,-17,30,3
440,-158,6,977,-16,28,4
441,-211,-2,980,-13,5,0
442,-126,1,987,-12,-22,-8
443,66,32,1004,-11,-32,-11
444,192,42,1009,-12,-17,-10
445,182,40,1014,-15,9,-3
446,48,22,1013,-18,28,2
447,-132,9,984,-16,29,4
448,-207,-6,970,-13,9,-1
449,-159,0,984,-11,-17,-7
450,36,28,1017,-10,-32,-10
451,176,41,1006,-13,-22,-11
452,197,38,999,-13,4,-7
453,80,25,1008,-15,27,1
454,-106,15,999,-15,32,5
455,-204,-11,984,-15,11,1
456,-177,3,963,-12,-13,-5
457,1,25,1006,-10,-32,-8
458,156,38,1023,-13,-25,-12
459,205,35,1009,-13,-1,-7
460,114,34,989,-16,23,0
461,-78,10,1004,-17,35,5
462,-199,-3,984,-16,18,2
463,-193,0,973,-11,-7,-4
464,-26,21,1003,-9,-30,-10
465,124,31,1012,-14,-26,-11
466,218,42,1006,-13,-7,-9
467,132,32,1004,-16,19,-1
468,-41,10,1006,-15,33,3
469,-185,-4,974,-14,22,2
470,-200,6,967,-13,-2,-2
471,-68,11,1004,-12,-28,-9
472,101,30,1022,-14,-29,-10
473,216,47,1003,-13,-11,-8
474,152,36,1002,-16,16,-2
475,-10,14,1015,-17,31,2
476,-170,-1,972,-14,26,2
477,-206,2,969,-11,2,-2
478,-100,7,992,-10,-24,-7
479,79,33,1011,-11,-31,-11
480,209,42,1013,-13,-15,-10
481,166,37,1007,-16,13,-2
482,29,16,1008,-16,31,3
483,-145,3,976,-16,29,3
484,-210,-1,981,-12,5,1
485,-132,3,984,-10,-21,-7
486,52,30,1005,-11,-31,-10
487,191,43,1008,-13,-19,-10
488,183,34,1009,-16,7,-3
489,57,26,1014,-16,28,2
490,-122,11,987,-15,31,4
491,-204,-8,974,-15,12,0
492,-166,-1,977,-11,-16,-5
493,28,31,1017,-10,-32,-11
494,171,37,1017,-15,-23,-11
495,199,34,994,-13,2,-5
496,90,27,1002,-16,25,0
497,-96,12,1006,-16,31,4
498,-203,-4,982,-13,14,1
499,-183,3,966,-12,-11,-4
500,-5,23,1003,-11,-31,-10
501,141,33,1019,-12,-24,-11
502,210,36,1009,-15,-4,-7
503,118,32,999,-16,21,-1
504,-65,15,994,-17,33,5
505,-195,-5,983,-14,19,2
506,-196,4,973,-13,-7,-4
507,-43,17,1007,-12,-29,-9
508,119,30,1014,-13,-28,-13
509,212,42,998,-13,-8,-9
510,147,33,1007,-17,19,-1
511,-34,10,1016,-16,33,4
512,-181,-3,968,-15,24,2
513,-200,4,969,-12,0,-1
514,-85,10,1000,-10,-26,-7
515,91,31,1017,-12,-29,-11
516,217,45,1012,-16,-14,-10
517,157,32,1000,-15,15,-1
518,11,16,1005,-15,31,2
519,-165,1,981,-16,28,5
520,-209,1,978,-11,4,-1
521,-115,2,989,-14,-23,-7
522,70,32,1005,-11,-30,-10
523,199,42,1010,-15,-17,-10
524,176,35,1015,-16,10,-4
525,39,20,1008,-17,29,3
526,-135,10,981,-15,29,4
527,-209,-7,973,-13,8,-1
528,-150,3,984,-12,-18,-5
529,45,31,1016,-11,-31,-11
530,182,42,1008,-12,-20,-11
531,194,34,1000,-16,6,-4
532,72,26,1009,-16,28,2
533,-114,13,1004,-16,32,4
534,-202,-9,975,-14,12,1
535,-174,3,970,-11,-12,-5
536,14,29,1009,-12,-31,-10
537,157,36,1023,-14,-22,-11
538,204,34,1002,-16,0,-7
539,105,30,992,-15,23,0
540,-82,15,1002,-15,33,4
541,-201,-5,985,-16,17,1
542,-189,5,969,-13,-9,-5
543,-20,21,1007,-11,-30,-10
544,128,35,1014,-12,-27,-11
545,211,39,1005,-15,-5,-9
546,128,32,1005,-15,20,1
547,-47,10,1006,-17,32,4
548,-186,-2,970,-14,22,2
549,-197,6,971,-13,-4,-2
550,-64,14,1007,-10,-28,-10
551,102,31,1020,-14,-27,-11
552,214,44,1004,-14,-10,-9
553,151,35,1006,-15,17,-1
554,-11,12,1010,-15,32,5
555,-172,1,975,-14,25,3
556,-203,2,972,-12,2,-1
557,-102,5,988,-12,-23,-7
558,82,32,1012,-11,-30,-11
559,204,44,1016,-14,-15,-10
560,167,37,1006,-16,13,-2
561,25,14,1009,-15,31,3
562,-149,11,976,-15,29,3
563,-207,-6,982,-12,7,-1
564,-138,2,982,-12,-19,-8
565,60,29,1006,-11,-32,-11
566,192,42,1009,-13,-19,-11
567,183,31,1002,-15,8,-3
568,61,26,1016,-16,27,1
569,-124,11,993,-16,31,4
570,-207,-4,968,-12,11,-1
571,-165,2,978,-12,-15,-6
572,22,30,1016,-9,-31,-11
573,169,39,1013,-12,-22,-12
574,201,33,1001,-15,3,-5
575,92,33,996,-14,26,0
576,-94,9,1005,-17,33,4
577,-202,-9,985,-15,15,1
578,-187,3,965,-11,-11,-4
579,-8,25,1005,-12,-31,-11
580,139,38,1021,-12,-25,-12
581,211,40,1009,-15,-4,-7
582,121,31,998,-17,21,-1
583,-65,9,999,-16,33,4
584,-190,-1,971,-15,19,1
585,-195,4,977,-13,-6,-4
586,-48,18,1008,-11,-28,-10
587,108,30,1012,-14,-27,-10
588,214,45,999,-13,-9,-8
589,141,32,1008,-17,18,-1
590,-23,13,1017,-16,31,3
591,-178,-3,970,-15,24,2
592,-200,4,968,-12,0,-3
593,-90,9,999,-10,-23,-7
594,89,35,1014,-9,-29,-12
595,208,44,1014,-14,-14,-10
596,158,33,1005,-17,13,-2
597,15,16,1005,-15,31,3
598,-153,1,979,-15,27,2
599,-209,-2,982,-11,3,-2
600,-122,5,983,-9,-22,-8
601,64,37,1007,-10,-31,-11
602,194,41,1009,-12,-18,-10
603,179,34,1012,-16,10,-5
604,47,18,1012,-19,27,1
605,-128,10,984,-15,29,4
606,-202,-7,975,-12,9,-1
607,-158,3,978,-11,-16,-7
608,33,32,1020,-11,-32,-9
609,173,39,1009,-15,-23,-11
610,195,33,996,-15,4,-5
611,85,27,1004,-16,26,0
612,-103,9,1005,-16,32,3
613,-201,-7,982,-11,13,1
614,-175,3,967,-10,-11,-5
615,-3,29,1002,-11,-29,-8
616,144,34,1021,-14,-22,-11
617,206,37,1012,-17,-2,-7
618,112,30,991,-16,22,0
619,-67,11,998,-15,33,4
620,-196,-7,981,-13,19,2
621,-188,3,973,-12,-8,-3
622,-37,20,1008,-10,-29,-9
623,118,36,1012,-13,-27,-11
624,213,43,1002,-16,-7,-9
625,131,34,1006,-17,18,-1
626,-36,7,1012,-15,31,4
627,-179,-5,972,-13,22,1
628,-193,1,964,-11,-1,-2
629,-77,12,1005,-10,-25,-9
630,96,35,1015,-12,-28,-11
631,208,43,1012,-15,-13,-10
632,155,41,1003,-16,15,0
633,-1,9,1006,-17,32,3
634,-156,3,980,-15,26,2
635,-207,-3,982,-13,3,0
636,-111,7,986,-10,-22,-8
637,74,31,1006,-12,-29,-9
638,192,44,1008,-12,-16,-11
639,170,34,1015,-17,11,-4
640,39,20,1012,-17,28,2
641,-139,10,978,-15,29,6
642,-202,-4,971,-12,9,-1
643,-150,4,986,-11,-17,-6
644,46,30,1011,-12,-32,-9
645,176,42,1009,-13,-20,-11
646,191,30,995,-16,6,-4
647,70,28,1007,-14,26,1
648,-108,9,1002,-18,31,4
649,-205,-10,977,-15,12,0
650,-169,2,968,-9,-14,-6
651,10,28,1005,-10,-31,-10
652,152,42,1024,-12,-24,-11
653,208,38,1007,-15,-1,-7
654,105,28,992,-17,24,1
655,-77,6,998,-16,32,4
656,-202,-10,984,-14,18,1
657,-190,5,973,-12,-8,-4
658,-26,24,1006,-10,-30,-8
659,125,32,1012,-12,-25,-11
660,216,44,1006,-15,-6,-8
661,132,30,1003,-16,21,0
662,-46,9,1009,-15,32,4
663,-183,-4,969,-15,21,2
664,-200,3,969,-15,-4,-2
665,-64,14,1007,-9,-27,-10
666,100,32,1017,-11,-29,-11
667,213,45,1005,-14,-12,-9
668,148,35,1001,-16,16,-1
669,-6,14,1008,-17,31,3
670,-169,0,977,-16,25,2
671,-209,0,975,-13,1,-2
672,-104,7,985,-12,-24,-8
673,81,35,1009,-10,-31,-12
674,201,47,1014,-13,-17,-10
675,170,35,1009,-17,11,-2
676,27,15,1010,-17,31,3
677,-144,5,978,-14,29,4
678,-208,-6,972,-13,9,1
679,-138,3,991,-11,-19,-7
680,53,33,1008,-19,-33,-11
681,187,43,1007,-11,-21,-13
682,192,34,999,-14,6,-3
683,56,29,1014,-16,29,2
684,-113,8,994,-18,31,2
685,-209,-11,979,-12,10,-1
686,-165,1,967,-10,-15,-6
687,17,27,1016,-10,-31,-10
688,160,40,1019,-11,-22,-12
689,200,34,1001,-16,1,-6
690,98,32,993,-16,24,-1
691,-91,10,1001,-17,33,4
692,-199,-6,987,-13,16,1
693,-184,1,971,-13,-9,-3
694,-17,20,1000,-11,-29,-8
695,135,33,1018,-13,-25,-11
696,207,43,1006,-15,-5,-8
697,125,35,1000,-17,22,0
698,-51,9,1010,-18,33,4
699,-191,0,967,-14,20,2
700,-192,4,973,-12,-5,-4
701,-63,14,1009,-10,-27,-8
702,104,36,1011,-11,-28,-10
703,215,39,1008,-13,-9,-9
704,146,33,1003,-15,18,-2
705,-12,12,1010,-15,31,3
706,-169,1,977,-13,25,2
707,-204,2,968,-15,1,-1
708,-94,11,993,-9,-25,-9
709,84,32,1010,-13,-30,-10
710,206,45,1015,-12,-15,-10
711,164,33,1009,-16,12,-1
712,23,16,1006,-17,31,2
713,-145,4,980,-14,28,3
714,-208,-3,977,-11,6,-2
715,-134,4,988,-14,-20,-7
716,58,32,1010,-9,-32,-11
717,186,45,1005,-13,-20,-11
718,188,33,1006,-16,6,-5
719,56,22,1015,-17,28,1
720,-122,10,988,-17,30,3
721,-201,-7,979,-12,11,0
722,-163,5,972,-11,-17,-5
723,22,29,1015,-12,-33,-10
724,165,36,1019,-13,-23,-12
725,197,34,998,-15,2,-5
726,98,29,997,-16,24,1
727,-94,12,1002,-14,31,4
728,-201,-6,984,-15,14,0
729,-180,1,967,-13,-11,-4
730,-10,25,1005,-10,-29,-9
731,136,36,1015,-14,-25,-12
732,209,42,1011,-13,-4,-8
733,120,33,1001,-16,21,1
734,-59,10,1000,-17,33,4
735,-190,-5,975,-14,20,1
736,-196,3,973,-13,-7,-3
737,-50,16,1008,-13,-29,-8
738,110,33,1017,-12,-29,-10
739,212,46,998,-12,-9,-8
740,143,33,1008,-15,18,-1
741,-23,10,1010,-17,31,4
742,-175,-3,973,-15,23,4
743,-201,3,970,-14,0,-2
744,-94,7,992,-12,-25,-6
745,94,33,1016,-12,-31,-12
746,206,46,1011,-16,-14,-10
747,163,36,1008,-16,14,-3
748,18,13,1010,-18,30,2
749,-156,5,974,-15,28,4
750,-206,-2,980,-13,5,0
751,-124,4,991,-12,-21,-8
752,61,33,999,-10,-29,-10
753,195,45,1008,-12,-18,-10
754,180,32,1010,-16,8,-2
755,52,23,1011,-16,29,3
756,-126,7,989,-15,31,4
757,-209,-6,972,-13,10,0
758,-157,6,976,-12,-17,-6
759,29,31,1021,-11,-32,-11
760,167,39,1015,-13,-22,-11
761,199,32,996,-13,4,-5
762,87,30,1002,-15,26,0
763,-97,8,1002,-16,31,5
764,-202,-4,983,-14,14,1
765,-178,2,965,-12,-11,-5
766,-3,25,1004,-9,-29,-11
767,140,37,1020,-13,-24,-12
768,208,39,1008,-15,-5,-7
769,119,32,1002,-16,22,0
770,-68,10,1000,-16,33,5
771,-189,-3,975,-15,19,1
772,-193,2,975,-14,-6,-4
773,-45,19,1009,-12,-29,-10
774,116,33,1013,-12,-27,-12
775,212,43,1002,-13,-7,-9
776,142,37,1006,-17,18,0
777,-27,12,1013,-15,32,2
778,-175,0,971,-14,23,1
779,-204,2,965,-12,-1,-3
780,-85,12,997,-11,-26,-8
781,89,30,1018,-12,-29,-10
782,204,45,1009,-13,-14,-10
783,159,32,1006,-14,14,-2
784,16,17,1006,-15,30,3
785,-155,4,973,-15,27,3
786,-206,-1,983,-13,4,-3
787,-122,5,989,-11,-21,-7
788,66,34,1000,-10,-31,-10
789,195,41,1009,-12,-18,-11
790,179,31,1013,-15,10,-4
791,49,23,1011,-16,28,1
792,-130,3,983,-15,30,3
793,-206,-2,976,-12,10,-1
794,-157,1,978,-10,-18,-5
795,33,32,1017,-12,-32,-10
796,176,41,1013,-14,-22,-11
797,193,30,994,-14,4,-5
798,84,29,1002,-15,26,1
799,-105,8,1005,-18,32,4
800,-201,-6,982,-13,12,0
801,-175,1,966,-11,-14,-4
802,-1,29,1004,-10,-30,-10
803,145,36,1023,-12,-25,-10
804,210,38,1013,-17,-1,-7
805,109,29,992,-16,23,0
806,-67,11,999,-15,32,5
807,-196,-6,979,-14,19,1
808,-188,4,974,-11,-5,-1
809,-33,20,1009,-10,-28,-9
810,117,34,1011,-11,-27,-11
811,215,42,996,-13,-8,-8
812,132,30,1009,-17,19,0
813,-37,8,1012,-15,32,3
814,-179,-3,972,-15,22,2
815,-200,2,965,-11,-2,-1
816,-80,11,1002,-10,-27,-8
817,96,32,1021,-12,-31,-11
818,208,48,1007,-13,-12,-9
819,157,37,1004,-16,16,-2
820,1,11,1005,-15,31,2
821,-164,0,976,-14,26,3
822,-206,3,981,-11,4,-1
823,-119,6,987,-13,-22,-8
824,76,32,1008,-11,-30,-11
825,196,42,1010,-14,-16,-10
826,172,36,1013,-17,12,-2
827,40,20,1010,-16,29,2
828,-137,10,983,-15,29,4
829,-201,-2,971,-12,9,0
830,-149,1,988,-12,-18,-6
831,44,33,1014,-11,-32,-10
832,178,39,1006,-13,-22,-10
833,194,32,1002,-17,4,-6
834,72,28,1004,-14,26,1
835,-109,13,1000,-16,32,4
836,-202,-8,983,-15,12,0
837,-170,1,961,-10,-14,-5
838,11,31,1007,-10,-31,-10
839,150,36,1025,-12,-23,-11
840,205,35,1005,-13,-2,-7
841,106,29,993,-16,23,1
842,-78,13,1002,-13,33,4
843,-197,-8,984,-14,18,1
844,-186,3,971,-12,-8,-5
845,-27,21,1010,-13,-30,-9
846,130,34,1017,-13,-26,-11
847,210,44,1000,-14,-6,-7
848,129,32,1006,-17,20,0
849,-43,11,1015,-16,34,4
850,-185,-1,963,-13,22,2
851,-196,6,968,-13,-4,-3
852,-67,12,1008,-13,-26,-8
853,99,34,1015,-12,-28,-11
854,214,43,1008,-15,-11,-10
855,149,35,1004,-17,16,0
856,-3,12,1004,-15,31,3
857,-166,1,977,-15,26,4
858,-204,1,976,-15,3,-1
859,-105,6,986,-9,-23,-8
860,78,32,1010,-11,-31,-11
861,196,46,1015,-13,-15,-10
862,170,35,1009,-16,12,-3
863,27,19,1009,-17,29,2
864,-139,6,980,-16,28,4
865,-203,-5,976,-14,6,-1
866,-141,0,986,-12,-18,-7
867,51,35,1012,-9,-30,-11
868,182,42,1003,-12,-20,-11
869,187,32,1005,-15,5,-4
870,64,26,1013,-14,28,0
871,-118,11,997,-17,32,4
872,-201,-9,977,-14,11,-1
873,-166,4,971,-11,-15,-5
874,17,28,1010,-10,-30,-11
875,158,40,1024,-13,-21,-12
876,198,35,1000,-15,2,-6
877,98,30,994,-15,25,0
878,-84,9,1002,-16,32,5
879,-201,-5,986,-15,16,1
880,-178,5,971,-13,-10,-5
881,-19,25,1003,-11,-29,-10
882,132,38,1018,-11,-26,-11
883,210,43,1009,-15,-6,-7
884,123,33,1000,-17,21,0
885,-49,9,1002,-18,32,4
886,-191,-8,975,-15,20,1
887,-197,3,965,-12,-4,-2
888,-54,12,1012,-11,-28,-9
889,106,37,1013,-10,-28,-11
890,214,44,1005,-14,-11,-10
891,146,38,1006,-16,18,-2
892,-22,9,1008,-17,31,5
893,-170,-2,976,-13,23,1
894,-207,-4,970,-15,0,-1
895,-93,11,991,-11,-24,-7
896,88,31,1019,-13,-30,-9
897,205,47,1010,-12,-15,-10
898,162,39,1011,-15,13,-3
899,20,16,1009,-17,30,2
900,-147,3,978,-15,27,1
901,-208,-3,978,-14,5,0
902,-129,1,988,-11,-20,-7
903,65,28,1005,-10,-30,-12
904,191,44,1007,-13,-18,-10
905,185,36,1008,-13,8,-4
906,54,27,1016,-16,28,1
907,-127,14,984,-18,29,4
908,-206,-5,972,-13,10,0
909,-163,0,979,-12,-15,-6
910,28,26,1015,-10,-31,-11
911,175,35,1016,-14,-22,-12
912,202,34,998,-13,4,-6
913,89,33,999,-13,27,2
914,-100,10,1005,-18,31,5
915,-206,-3,985,-16,13,1
916,-178,3,962,-11,-11,-5
917,-4,23,1006,-10,-30,-10
918,142,35,1017,-12,-24,-11
919,208,37,1011,-16,-3,-5
920,121,30,999,-16,22,1
921,-64,6,997,-16,33,4
922,-193,0,975,-15,19,1
923,-196,5,977,-11,-5,-3
924,-46,20,1004,-13,-30,-9
925,117,33,1018,-12,-28,-11
926,217,42,999,-12,-8,-10
927,142,32,1006,-17,19,-1
928,-24,10,1014,-16,31,3
929,-182,-3,969,-13,22,2
930,-200,4,966,-11,-1,-2
931,-87,8,1001,-11,-26,-7
932,94,37,1015,-12,-30,-11
933,210,44,1010,-14,-13,-11
934,163,34,1004,-16,14,-2
935,6,15,1007,-16,31,3
936,-160,4,976,-15,27,3
937,-211,-1,984,-12,4,-1
938,-121,6,984,-12,-23,-8
939,69,33,1005,-13,-32,-9
940,201,43,1012,-13,-17,-11
941,180,34,1011,-16,12,-3
942,43,23,1012,-16,29,1
943,-136,8,983,-16,30,4
944,-207,-8,971,-13,8,0
945,-154,2,985,-11,-18,-6
946,40,31,1016,-12,-31,-12
947,179,43,1010,-15,-22,-11
948,197,33,996,-15,4,-5
949,72,31,1009,-15,28,1
950,-105,11,1003,-17,32,3
951,-205,-10,979,-14,13,0
952,-174,3,965,-11,-13,-3
953,5,25,1007,-10,-31,-10
954,151,38,1022,-11,-23,-11
955,208,38,1005,-13,0,-6
956,107,34,996,-14,23,0
957,-76,13,995,-15,33,4
958,-199,-5,982,-14,18,1
959,-194,0,974,-14,-8,-4
960,-31,18,1008,-11,-29,-9
961,128,32,1010,-12,-28,-11
962,213,44,1004,-12,-7,-7
963,134,35,1004,-17,20,0
964,-40,8,1013,-17,33,4
965,-185,-2,967,-16,22,2
966,-200,4,966,-14,-4,-3
967,-72,13,1006,-10,-28,-9
968,98,33,1016,-12,-28,-11
969,214,46,1009,-13,-12,-9
970,153,32,1003,-15,16,-2
971,-4,13,1004,-15,32,3
972,-165,1,979,-14,25,2
973,-210,2,978,-12,3,0
974,-104,6,987,-10,-22,-8
975,78,31,1009,-13,-31,-11
976,197,44,1013,-13,-16,-10
977,173,33,1012,-14,13,-3
978,31,20,1012,-16,30,3
979,-144,6,978,-15,28,3
980,-206,-2,976,-12,7,-1
981,-139,1,986,-10,-19,-6
982,49,35,1010,-10,-31,-9
983,187,44,1006,-11,-20,-12
984,187,32,1004,-15,6,-3
985,69,26,1009,-15,27,2
986,-118,11,999,-16,32,4
987,-204,-7,973,-12,12,-1
988,-168,1,973,-12,-14,-5
989,16,30,1009,-12,-30,-9
990,159,35,1021,-13,-21,-11
991,205,36,1005,-13,2,-6
992,97,29,989,-19,24,1
993,-83,11,1003,-15,32,3
994,-204,-8,988,-14,15,0
995,-185,4,967,-13,-9,-3
996,-13,16,1007,-10,-30,-10
997,131,34,1016,-12,-26,-11
998,212,42,1002,-15,-6,-7
999,126,31,1004,-17,21,-1
1000,-51,11,1005,-17,33,5
1001,-188,-2,970,-13,21,2
1002,-198,5,970,-13,-4,-4
1003,-57,15,1011,-9,-28,-9
1004,108,32,1013,-11,-27,-11
1005,213,43,1008,-12,-10,-9
1006,148,34,1001,-14,17,0
1007,-13,11,1014,-15,30,3
1008,-168,1,974,-14,23,1
1009,-206,0,973,-12,0,-2
1010,-93,9,987,-12,-24,-8
1011,80,31,1014,-12,-29,-11
1012,207,46,1012,-15,-16,-9
1013,164,34,1007,-15,13,-2
1014,25,17,1008,-17,31,2
1015,-150,2,979,-24,27,4
1016,-207,-3,977,-11,5,-2
1017,-133,1,986,-17,-21,-6
1018,58,34,1009,-5,-31,-10
1019,190,44,1003,-15,-18,-10
1020,182,34,1007,-17,7,-4
1021,55,23,1015,-13,27,2
1022,-124,7,988,-21,29,5
1023,-206,-7,971,-11,10,1
1024,-162,0,977,-13,-15,-6
1025,23,32,1018,-13,-32,-10
1026,165,35,1014,-12,-22,-11
1027,201,36,999,-16,2,-6
1028,89,27,996,-16,26,1
1029,-93,10,1001,-18,31,3
1030,-204,-9,984,-13,14,1
1031,-181,7,968,-10,-10,-3
1032,-3,26,1004,-10,-31,-10
1033,137,38,1017,-13,-24,-11
1034,209,41,1012,-15,-5,-7
1035,117,28,1000,-17,21,-1
1036,-63,8,997,-16,32,5
1037,-188,-5,977,-14,19,1
1038,-192,8,972,-12,-6,-4
1039,-48,17,1007,-12,-29,-10
1040,118,34,1013,-12,-28,-13
1041,211,42,1002,-15,-9,-8
1042,142,35,1003,-18,19,-2
1043,-23,3,1018,-16,31,4
1044,-174,-3,971,-16,23,2
1045,-198,4,970,-11,0,-3
1046,-86,10,997,-11,-24,-10
1047,84,33,1018,-10,-29,-11
1048,208,44,1008,-14,-15,-11
1049,158,34,1009,-15,16,-2
1050,19,15,1006,-16,31,3
1051,-156,3,979,-15,28,4
1052,-199,-2,981,-11,3,-2
1053,-126,4,988,-11,-21,-6
1054,70,36,1004,-12,-31,-10
1055,187,45,1009,-13,-17,-11
1056,180,35,1007,-15,9,-5
1057,46,23,1014,-15,27,1
1058,-126,8,983,-15,28,2
1059,-204,-9,977,-13,10,0
1060,-155,4,974,-10,-16,-6
1061,32,29,1018,-11,-31,-9
1062,175,43,1014,-12,-22,-11
1063,191,36,994,-15,3,-3
1064,86,30,1001,-17,26,0
1065,-102,9,1005,-16,32,4
1066,-200,-5,981,-14,12,0
1067,-175,3,967,-14,-12,-5
1068,-1,28,1006,-10,-28,-9
1069,141,36,1019,-13,-23,-11
1070,206,36,1010,-14,-2,-7
1071,112,29,996,-14,21,0
1072,-67,10,999,-15,32,4
1073,-191,-6,978,-13,20,2
1074,-191,5,976,-12,-6,-3
1075,-40,20,1007,-12,-30,-9
1076,115,36,1014,-12,-27,-11
1077,211,46,1003,-13,-7,-8
1078,135,32,1004,-15,19,-1
1079,-30,7,1016,-17,31,5
1080,-177,-1,971,-15,22,2
1081,-198,2,969,-12,-1,-3
1082,-82,10,1002,-11,-23,-8
1083,89,37,1015,-13,-29,-10
1084,208,43,1012,-14,-14,-10
1085,153,35,1006,-16,15,-1
1086,7,16,1000,-18,31,3
1087,-157,-1,980,-16,27,3
1088,-207,0,982,-13,3,-1
1089,-118,5,985,-12,-22,-9
1090,69,35,1005,-9,-29,-10
1091,191,42,1008,-15,-15,-9
1092,179,33,1011,-16,10,-4
1093,39,20,1009,-16,27,2
1094,-128,9,984,-17,27,3
1095,-204,-4,973,-13,10,-1
1096,-157,4,980,-10,-16,-6
1097,43,31,1017,-12,-31,-11
1098,170,38,1013,-12,-21,-11
1099,198,34,993,-15,4,-5
1100,79,26,1006,-16,28,1
1101,-105,11,1001,-17,32,4
1102,-205,-7,982,-16,13,1
1103,-172,5,969,-12,-12,-6
1104,2,25,1004,-11,-30,-9
1105,147,38,1020,-14,-24,-11
1106,208,35,1013,-17,-3,-7
1107,110,31,998,-15,23,1
1108,-70,10,994,-15,32,6
1109,-191,-5,983,-16,19,1
1110,-189,3,975,-12,-8,-3
1111,-36,17,1007,-11,-29,-10
1112,123,32,1016,-12,-27,-13
1113,214,45,999,-12,-7,-8
1114,134,33,1004,-16,21,-2
1115,-33,12,1017,-16,32,3
1116,-182,0,969,-13,20,2
1117,-198,1,963,-14,-2,-2
1118,-79,7,1004,-11,-25,-9
1119,95,34,1012,-14,-29,-10
1120,211,42,1013,-14,-14,-11
1121,155,35,1005,-15,15,-2
1122,5,12,1006,-15,30,2
1123,-156,4,979,-15,27,3
1124,-208,-1,981,-14,2,-1
1125,-116,6,989,-10,-24,-8
1126,71,30,1004,-13,-31,-10
1127,193,41,1006,-12,-17,-10
1128,178,30,1012,-15,10,-3
1129,42,22,1012,-16,29,1
1130,-134,9,979,-12,29,2
1131,-205,-2,972,-13,10,-2
1132,-151,5,984,-13,-17,-5
1133,39,30,1013,-12,-32,-10
1134,174,38,1011,-13,-21,-12
1135,193,27,997,-15,5,-4
1136,77,29,1001,-13,26,0
1137,-103,7,1005,-16,31,3
1138,-203,-4,980,-12,14,1
1139,-175,7,968,-12,-12,-4
1140,6,28,1005,-12,-30,-10
1141,143,36,1021,-14,-22,-12
1142,210,36,1012,-15,-2,-7
1143,110,30,996,-17,22,0
1144,-70,7,996,-16,33,4
1145,-197,-4,981,-13,19,1
1146,-191,2,977,-11,-7,-4
1147,-35,18,1004,-11,-30,-9
1148,121,32,1016,-11,-27,-11
1149,215,45,1000,-13,-6,-9
1150,134,31,1006,-18,19,0
1151,-34,9,1011,-16,31,3
1152,-182,-4,971,-15,22,3
1153,-195,4,965,-13,-3,-2
1154,-83,10,1003,-14,-24,-7
1155,96,34,1013,-11,-29,-11
1156,211,41,1013,-13,-13,-9
1157,157,38,1003,-15,14,-2
1158,2,12,1005,-15,31,2
1159,-160,6,979,-15,26,3
1160,-207,-2,982,-13,2,-1
1161,-114,9,983,-10,-23,-8
1162,70,31,1009,-12,-31,-10
1163,197,46,1009,-13,-15,-8
1164,175,31,1010,-16,10,-3
1165,40,21,1013,-16,28,2
1166,-135,5,980,-15,29,4
1167,-206,-4,973,-13,9,-1
1168,-148,3,983,-12,-17,-6
1169,37,35,1016,-11,-32,-10
1170,177,40,1011,-15,-22,-10
1171,191,32,997,-17,5,-4
1172,76,25,1002,-16,26,1
1173,-106,7,1007,-17,31,3
1174,-204,-8,981,-14,12,0
1175,-171,4,966,-11,-13,-5
1176,7,31,1005,-12,-30,-10
1177,146,37,1021,-12,-23,-11
1178,207,39,1011,-14,-2,-6
1179,108,29,992,-17,22,1
1180,-72,8,1000,-15,32,3
1181,-192,-6,978,-14,17,0
1182,-190,5,974,-11,-7,-4
1183,-35,21,1012,-12,-30,-10
1184,119,35,1008,-13,-26,-10
1185,212,42,1001,-11,-8,-8
1186,135,30,1009,-15,20,0
1187,-35,11,1009,-17,33,4
1188,-178,-5,970,-14,21,1
1189,-195,6,971,-14,-2,-2
1190,-77,13,1000,-10,-26,-8
1191,96,30,1016,-13,-29,-12
1192,208,46,1012,-13,-14,-10
1193,155,36,1004,-16,15,-2
1194,3,12,1002,-17,31,2
1195,-162,2,976,-16,26,3
1196,-203,0,985,-14,2,-2
1197,-120,5,978,-11,-22,-8
1198,71,33,1010,-10,-30,-10
1199,195,43,1012,-12,-16,-10
1200,172,34,1006,-15,10,-3
1201,42,22,1013,-15,27,1
1202,-138,8,981,-16,30,4
1203,-203,-5,970,-12,9,0
1204,-149,0,984,-12,-17,-6
1205,39,32,1020,-11,-31,-10
1206,178,40,1007,-13,-21,-11
1207,190,28,997,-15,6,-4
1208,78,29,1001,-16,26,2
1209,-103,10,1007,-17,32,3
1210,-201,-8,980,-15,12,0
1211,-172,2,965,-11,-13,-4
1212,2,30,1008,-11,-31,-10
1213,142,36,1022,-14,-24,-9
1214,208,37,1010,-16,-2,-6
1215,107,27,996,-15,24,0
1216,-69,9,996,-15,31,4
1217,-195,-8,980,-13,18,1
1218,-188,7,977,-11,-6,-3
1219,-34,19,1007,-13,-28,-9
1220,119,38,1013,-12,-27,-10
1221,215,43,1000,-13,-6,-8
1222,134,33,1006,-16,20,-3
1223,-38,6,1013,-17,31,3
1224,-179,-5,968,-13,21,2
1225,-197,3,967,-13,-3,-2
1226,-76,11,1000,-10,-25,-7
1227,95,37,1015,-12,-29,-11
1228,210,44,1011,-13,-14,-10
1229,153,38,1003,-16,13,-2
1230,5,11,1004,-17,31,3
1231,-159,1,980,-16,27,2
1232,-204,0,980,-12,3,-1
1233,-114,6,988,-10,-23,-8
1234,75,29,1006,-10,-32,-11
1235,195,44,1008,-11,-17,-10
1236,176,33,1012,-17,9,-4
1237,38,23,1013,-16,28,2
1238,-135,11,980,-15,29,4
1239,-205,-5,971,-13,8,-1
1240,-153,1,981,-9,-16,-6
1241,38,31,1021,-11,-32,-11
1242,179,38,1007,-14,-22,-12
1243,192,30,1000,-14,6,-5
1244,79,29,1000,-16,27,1
1245,-110,12,1007,-15,32,5
1246,-203,-5,980,-14,13,0
1247,-176,1,969,-12,-12,-5
1248,10,27,1001,-10,-31,-11
1249,147,38,1025,-14,-22,-11
1250,208,36,1007,-15,-1,-8
1251,109,30,996,-18,24,-1
1252,-71,12,997,-16,33,3
1253,-198,-6,976,-13,20,1
1254,-183,6,976,-13,-7,-4
1255,-40,19,1006,-11,-30,-9
1256,120,34,1011,-13,-26,-12
1257,215,42,1002,-15,-7,-9
1258,132,33,1002,-15,20,0
1259,-35,5,1015,-18,31,3
1260,-176,0,971,-14,22,2
1261,-196,3,966,-13,-1,-1
1262,-77,12,1000,-12,-25,-8
1263,96,36,1020,-13,-29,-10
1264,205,45,1007,-14,-12,-9
1265,154,33,1006,-14,15,-2
1266,3,11,1006,-15,32,4
1267,-159,0,975,-14,26,3
1268,-202,2,985,-10,3,-2
1269,-115,3,986,-13,-23,-7
1270,73,37,1005,-12,-30,-10
1271,195,44,1009,-12,-16,-9
1272,169,32,1012,-18,11,-2
1273,42,19,1012,-15,27,2
1274,-135,6,981,-15,28,4
1275,-201,-3,970,-15,9,0
1276,-145,0,986,-11,-16,-7
1277,40,36,1014,-13,-31,-11
1278,178,40,1012,-14,-22,-12
1279,194,32,995,-14,3,-5
1280,75,29,1002,-16,27,2
1281,-103,8,1004,-18,32,4
1282,-203,-7,983,-14,12,0
1283,-171,4,964,-14,-14,-5
1284,4,28,1004,-11,-31,-11
1285,144,35,1022,-13,-23,-11
1286,208,34,1012,-17,-2,-7
1287,107,27,992,-15,22,0
1288,-69,11,998,-16,33,4
1289,-193,-4,980,-14,18,0
1290,-191,8,972,-11,-6,-3
1291,-30,19,1009,-13,-29,-10
1292,119,32,1013,-11,-26,-11
1293,212,43,997,-11,-6,-8
1294,135,32,1007,-16,20,-1
1295,-37,9,1015,-16,32,3
1296,-179,0,967,-15,22,2
1297,-196,6,967,-11,-2,-1
1298,-76,12,1002,-12,-25,-8
1299,95,30,1016,-12,-29,-11
1300,208,45,1009,-14,-12,-9
1301,157,36,1003,-14,14,-2
1302,3,12,1004,-14,31,4
1303,-161,4,980,-13,26,3
1304,-205,-1,979,-13,4,-1
1305,-114,5,986,-10,-22,-8
1306,72,33,1005,-11,-32,-11
1307,197,42,1011,-13,-16,-10
1308,175,35,1014,-16,10,-3
1309,39,22,1008,-14,29,2
1310,-134,8,984,-15,29,4
1311,-208,-4,970,-13,8,0
1312,-150,0,982,-9,-16,-6
1313,44,33,1023,-10,-32,-10
1314,173,38,1006,-15,-21,-11
1315,196,33,996,-14,5,-5
1316,73,27,1006,-17,28,2
1317,-106,10,1002,-15,33,5
1318,-201,-12,980,-15,13,1
1319,-173,3,966,-11,-12,-5
1320,7,31,1005,-9,-30,-10
1321,150,36,1024,-13,-23,-12
1322,205,39,1008,-16,0,-6
1323,106,31,993,-16,23,-1
1324,-74,7,1000,-17,31,3
1325,-197,-4,981,-14,18,1
1326,-189,5,972,-14,-7,-3
1327,-30,20,1011,-11,-31,-8
1328,123,34,1011,-13,-26,-10
1329,212,45,999,-12,-7,-8
1330,131,31,1009,-16,19,-1
1331,-40,10,1012,-15,31,3
1332,-179,-4,966,-15,20,3
1333,-194,5,967,-11,-1,-2
1334,-70,14,1007,-10,-25,-7
1335,97,31,1015,-11,-28,-11
1336,212,44,1010,-15,-13,-10
1337,152,34,1003,-15,15,-1
1338,-1,16,1004,-14,30,3
1339,-163,-2,978,-16,27,2
1340,-203,0,985,-11,4,-1
1341,-112,8,982,-12,-22,-7
1342,75,34,1005,-12,-31,-10
1343,196,43,1010,-13,-16,-10
1344,174,32,1012,-16,11,-3
1345,37,16,1010,-18,29,2
1346,-132,6,982,-13,29,3
1347,-204,-3,972,-13,8,-1
1348,-147,3,984,-12,-18,-6
1349,42,31,1019,-11,-31,-10
1350,173,40,1008,-14,-21,-11
1351,195,34,995,-17,4,-5
1352,75,24,1006,-16,27,1
1353,-111,10,1002,-15,31,5
1354,-199,-7,980,-27,7,-1
1355,-170,0,969,-5,-12,-6
1356,10,29,1003,-13,-31,-10
1357,150,36,1025,-12,-24,-11
1358,208,37,1008,-14,-2,-6
1359,107,33,994,-19,23,1
1360,-74,10,994,-15,33,3
1361,-200,-8,984,-15,18,0
1362,-181,4,973,-13,-8,-3
1363,-29,20,1010,-7,-29,-9
1364,125,36,1012,-14,-27,-13
1365,214,40,1003,-13,-6,-10
1366,131,35,1007,-16,20,0
1367,-41,0,1010,-18,33,3
1368,-183,1,971,-11,22,1
1369,-198,2,963,-12,-4,-1
1370,-72,15,1009,-10,-26,-9
1371,102,33,1018,-13,-29,-10
1372,208,44,1005,-15,-12,-8
1373,154,35,1003,-14,15,-2
1374,-4,12,1010,-13,32,3
1375,-163,2,973,-16,27,3
1376,-208,-2,983,-15,3,0
1377,-111,8,989,-11,-23,-7
1378,77,33,1003,-12,-30,-11
1379,197,44,1014,-12,-15,-10
1380,168,37,1012,-18,11,-3
1381,37,20,1011,-17,28,2
1382,-144,4,975,-14,28,5
1383,-207,-6,973,-14,8,1
1384,-145,5,986,-12,-18,-6
1385,44,34,1012,-12,-31,-9
1386,182,44,1009,-13,-21,-11
1387,191,33,998,-13,6,-4
1388,67,22,1006,-16,27,2
1389,-111,9,1003,-16,31,5
1390,-206,-9,979,-13,12,0
1391,-169,4,967,-11,-14,-5
1392,11,30,1005,-11,-31,-8
1393,157,41,1023,-12,-23,-12
1394,203,31,1005,-15,0,-7
1395,103,33,991,-14,23,0
1396,-77,6,1001,-19,32,4
1397,-200,-5,981,-15,17,0
1398,-183,4,972,-11,-9,-3
1399,-27,23,1009,-12,-30,-8
1400,126,35,1012,-12,-27,-11
1401,215,41,1004,-13,-6,-9
1402,131,31,1006,-16,20,-1
1403,-43,5,1008,-18,31,4
1404,-182,-2,968,-15,21,0
1405,-194,1,970,-13,-4,-3
1406,-70,14,1004,-10,-27,-9
1407,100,34,1015,-11,-28,-11
1408,214,47,1006,-16,-11,-9
1409,146,34,1005,-16,17,0
1410,-3,13,1004,-16,30,2
1411,-167,-2,979,-15,26,3
1412,-202,1,974,-13,2,-1
1413,-109,6,987,-9,-23,-7
1414,75,35,1009,-10,-31,-11
1415,196,46,1013,-13,-15,-10
1416,169,36,1011,-15,12,-3
1417,32,18,1010,-15,29,2
1418,-139,4,980,-13,28,2
1419,-209,-6,972,-13,6,-1
1420,-140,1,988,-11,-20,-6
1421,51,30,1013,-10,-30,-10
1422,182,42,1003,-12,-19,-9
1423,186,34,999,-15,6,-4
1424,67,27,1015,-16,27,0
1425,-121,14,997,-16,32,5
1426,-202,-7,976,-13,11,0
1427,-165,1,973,-11,-14,-5
1428,14,28,1006,-11,-31,-9
1429,162,35,1022,-13,-23,-12
1430,202,36,1008,-15,1,-5
1431,103,30,987,-15,25,0
1432,-83,11,1002,-15,33,3
1433,-202,-5,983,-14,15,0
1434,-185,5,974,-12,-9,-4
1435,-16,22,1009,-11,-29,-9
1436,127,33,1013,-13,-26,-11
1437,214,43,1007,-15,-7,-8
1438,123,29,1006,-15,21,-1
1439,-50,10,1006,-16,34,3
1440,-185,-4,971,-13,20,-1
1441,-195,5,969,-11,-4,-3
1442,-64,13,1011,-11,-28,-8
1443,106,34,1014,-11,-28,-11
1444,212,43,1008,-13,-10,-9
1445,148,38,1002,-15,17,-1
1446,-10,14,1009,-15,32,3
1447,-171,2,978,-13,25,3
1448,-209,1,975,-14,2,-1
1449,-98,6,990,-12,-23,-7
1450,83,29,1012,-13,-30,-10
1451,204,41,1011,-12,-14,-10
1452,163,33,1014,-16,13,-2
1453,32,20,1004,-17,29,2
1454,-148,7,981,-15,29,5
1455,-205,1,972,-14,6,-2
1456,-142,0,989,-13,-18,-7
1457,55,31,1011,-12,-31,-11
1458,184,35,1005,-15,-20,-11
1459,189,30,1003,-14,8,-5
1460,57,22,1010,-16,28,2
1461,-117,13,997,-14,32,4
1462,-207,-8,975,-12,11,0
1463,-161,10,968,-11,-13,-5
1464,20,31,1011,-11,-31,-10
1465,160,42,1020,-13,-23,-10
1466,201,31,1001,-14,1,-6
1467,96,27,989,-15,24,0
1468,-84,7,1004,-16,31,3
1469,-197,-5,986,-12,16,-1
1470,-184,7,970,-11,-9,-5
1471,-11,26,1006,-11,-29,-10
1472,132,37,1017,-14,-24,-11
1473,208,44,1005,-14,-5,-6
1474,124,29,1003,-18,20,0
1475,-54,4,1005,-16,33,4
1476,-184,-7,967,-13,21,1
1477,-191,4,974,-11,-5,-2
1478,-58,14,1006,-11,-28,-9
1479,108,36,1017,-11,-27,-11
1480,212,44,1002,-13,-10,-9
1481,143,36,1005,-14,18,-1
1482,-14,9,1008,-15,30,2
1483,-172,0,976,-16,23,1
1484,-200,1,971,-13,1,-2
1485,-94,10,996,-9,-24,-7
1486,83,33,1007,-13,-30,-10
1487,201,41,1016,-13,-15,-9
1488,161,36,1008,-16,13,-1
1489,22,14,1008,-17,31,2
1490,-147,8,976,-14,28,3
1491,-209,-2,980,-14,5,-1
1492,-130,4,990,-11,-21,-7
1493,59,31,1007,-12,-30,-9
1494,187,44,1006,-12,-18,-11
1495,184,33,1007,-16,7,-3
1496,53,23,1014,-16,28,2
1497,-123,11,991,-17,31,4
1498,-205,-5,978,-14,11,0
1499,-157,3,975,-10,-16,-6
1500,26,29,1014,-10,-33,-9
1501,165,37,1020,-12,-24,-11
1502,200,35,999,-16,1,-5
1503,89,29,992,-16,26,2
1504,-94,9,1006,-17,32,4
1505,-202,-9,985,-15,13,0
1506,-182,4,968,-11,-11,-5
1507,-8,27,1004,-12,-30,-10
1508,137,37,1019,-12,-24,-11
1509,210,36,1008,-14,-4,-7
1510,119,30,999,-16,22,0
1511,-60,8,1000,-15,33,4
1512,-191,-4,972,-14,20,2
1513,-191,2,973,-13,-6,-3
1514,-48,18,1011,-13,-29,-8
1515,113,31,1013,-13,-27,-11
1516,213,47,1000,-12,-8,-9
1517,139,38,1007,-16,19,0
1518,-25,11,1013,-17,31,4
1519,-176,-5,970,-16,23,3
1520,-199,2,969,-11,0,-3
1521,-85,8,998,-13,-25,-9
1522,89,32,1015,-13,-29,-10
1523,206,47,1011,-15,-14,-9
1524,157,40,1009,-17,15,-2
1525,15,14,1005,-17,32,2
1526,-157,4,976,-14,27,3
1527,-208,-1,985,-14,4,-1
1528,-123,2,986,-11,-20,-7
1529,67,34,1008,-12,-30,-10
1530,191,43,1008,-15,-16,-10
1531,175,36,1009,-14,9,-4
1532,50,22,1012,-17,27,0
1533,-133,8,987,-14,30,4
1534,-202,-8,967,-15,10,-1
1535,-158,1,983,-13,-16,-6
1536,34,34,1016,-9,-33,-9
1537,170,39,1010,-15,-23,-11
1538,195,34,1001,-14,5,-5
1539,80,26,996,-15,28,1
1540,-98,9,1004,-16,31,4
1541,-206,-11,986,-14,13,2
1542,-172,9,965,-11,-11,-5
1543,0,27,1003,-11,-30,-9
1544,141,40,1021,-14,-25,-10
1545,210,34,1014,-15,-3,-7
1546,114,27,991,-16,23,1
1547,-70,5,1000,-16,33,4
1548,-189,-3,977,-13,17,0
1549,-192,4,975,-10,-6,-3
1550,-40,22,1007,-8,-30,-8
1551,116,33,1014,-13,-28,-11
1552,215,45,999,-13,-9,-9
1553,137,32,1005,-16,19,0
1554,-27,9,1016,-18,31,2
1555,-178,-3,969,-14,23,2
1556,-196,2,966,-12,0,-3
1557,-86,13,1002,-11,-23,-7
1558,92,34,1014,-13,-30,-10
1559,209,46,1012,-14,-14,-10
1560,157,37,1002,-17,15,-1
1561,8,12,1008,-15,31,3
1562,-159,0,975,-14,26,2
1563,-209,-2,981,-11,3,-2
1564,-117,3,988,-9,-22,-9
1565,68,35,1005,-10,-30,-12
1566,196,48,1008,-12,-17,-11
1567,176,34,1014,-17,11,-4
1568,45,23,1010,-16,28,1
1569,-136,6,985,-16,30,4
1570,-205,-4,971,-12,8,-1
1571,-156,0,982,-9,-17,-5
1572,40,32,1017,-11,-33,-10
1573,173,37,1006,-16,-22,-11
1574,200,32,995,-13,4,-6
1575,76,26,1005,-16,27,2
1576,-107,12,1002,-13,33,4
1577,-201,-9,989,-15,12,-1
1578,-174,2,961,-12,-12,-5
1579,0,28,1005,-10,-30,-10
1580,150,32,1026,-14,-23,-11
1581,205,39,1005,-14,0,-6
1582,111,30,995,-15,22,0
1583,-72,11,1002,-15,32,5
1584,-198,-7,977,-14,20,1
1585,-188,6,974,-11,-7,-2
1586,-31,18,1011,-12,-31,-9
1587,119,36,1008,-12,-27,-11
1588,215,44,1002,-13,-7,-9
1589,133,34,1006,-17,20,0
1590,-37,8,1013,-15,32,4
1591,-181,0,967,-14,21,2
1592,-196,1,966,-11,-3,-2
1593,-76,14,1003,-10,-26,-11
1594,95,33,1018,-13,-28,-12
1595,211,48,1009,-14,-13,-10
1596,155,34,1002,-16,16,-3
1597,2,14,1004,-16,33,3
1598,-160,1,977,-16,27,3
1599,-207,0,982,-13,2,-2
1600,-115,7,986,-12,-24,-8
1601,76,33,1004,-11,-31,-10
1602,194,43,1012,-13,-15,-9
1603,177,37,1014,-17,11,-3
1604,35,20,1009,-17,30,2
1605,-136,6,981,-16,28,4
1606,-208,-8,969,-14,7,0
1607,-151,4,986,-11,-18,-5
1608,46,32,1019,-13,-32,-10
1609,176,43,1004,-14,-21,-11
1610,194,34,997,-14,5,-6
1611,72,26,1006,-15,29,1
1612,-110,12,1004,-15,34,5
1613,-204,-8,980,-15,12,0
1614,-173,4,970,-12,-12,-5
1615,11,29,1002,-10,-30,-9
1616,150,37,1026,-13,-24,-11
1617,203,37,1005,-15,-1,-5
1618,105,29,992,-15,23,1
1619,-74,13,996,-17,31,4
1620,-201,-6,981,-14,18,1
1621,-180,5,976,-14,-7,-3
1622,-31,16,1007,-10,-29,-9
1623,123,37,1010,-13,-27,-10
1624,215,42,1005,-13,-7,-7
1625,133,32,1004,-14,20,1
1626,-43,9,1014,-16,32,4
1627,-181,-2,970,-12,22,2
1628,-197,6,963,-11,-4,-1
1629,-72,12,1005,-12,-27,-8
1630,98,33,1017,-12,-29,-12
1631,214,44,1008,-15,-11,-8
1632,154,31,1001,-15,16,-1
1633,-2,14,1009,-16,32,3
1634,-161,4,979,-14,26,4
1635,-207,1,978,-12,2,-1
1636,-108,6,989,-10,-24,-7
1637,77,34,1003,-10,-29,-9
1638,202,38,1012,-15,-16,-10
1639,171,32,1014,-17,13,-2
1640,38,17,1006,-15,30,3
1641,-138,6,980,-15,29,4
1642,-207,1,973,-12,8,0
1643,-148,3,985,-12,-17,-6
1644,48,38,1016,-12,-31,-10
1645,182,40,1004,-14,-21,-10
1646,193,33,999,-17,5,-5
1647,66,22,1007,-15,27,2
1648,-114,11,1001,-13,32,4
1649,-201,-11,980,-14,12,0
1650,-170,5,967,-10,-13,-5
1651,16,33,1008,-11,-32,-10
1652,150,40,1026,-15,-22,-11
1653,206,36,1003,-15,1,-7
1654,100,28,993,-17,24,1
1655,-82,8,998,-15,33,4
1656,-198,-8,984,-13,18,-1
1657,-191,5,973,-13,-7,-3
1658,-22,22,1006,-9,-29,-9
1659,128,33,1015,-14,-25,-11
1660,208,45,1000,-12,-6,-7
1661,132,37,1008,-17,20,0
1662,-47,4,1010,-17,33,3
1663,-186,0,966,-12,21,2
1664,-191,0,970,-13,-5,-2
1665,-69,13,1006,-10,-28,-8
1666,107,33,1015,-11,-29,-11
1667,216,48,1009,-15,-10,-9
1668,145,37,1003,-14,16,-1
1669,-5,13,1007,-15,30,3
1670,-170,-1,979,-15,25,2
1671,-202,0,976,-12,2,-2
1672,-104,5,991,-12,-23,-7
1673,80,37,1007,-12,-31,-12
1674,200,43,1016,-13,-16,-10
1675,167,34,1011,-15,12,-3
1676,31,15,1008,-17,30,3
1677,-140,6,977,-14,29,4
1678,-206,-6,974,-13,6,0
1679,-141,5,986,-11,-19,-6
1680,53,33,1013,-11,-32,-12
1681,186,43,1005,-13,-20,-11
1682,190,32,1000,-15,6,-3
1683,63,27,1009,-15,28,2
1684,-119,10,998,-17,32,3
1685,-204,-6,978,-12,11,-1
1686,-166,1,967,-12,-16,-4
1687,12,30,1006,-9,-32,-10
1688,163,36,1024,-23,-20,-10
1689,200,34,1004,-18,3,-6
1690,101,32,990,-15,25,1
1691,-85,7,1002,-14,33,4
1692,-201,-4,984,-13,17,0
1693,-183,4,972,-10,-10,-4
1694,-17,24,1008,-9,-31,-10
1695,131,35,1013,-13,-26,-11
1696,215,41,1003,-14,-6,-9
1697,119,31,1010,-18,21,0
1698,-47,8,1002,-15,32,3
1699,-189,-4,970,-13,20,2
1700,-190,10,969,-11,-5,-2
1701,-58,14,1011,-11,-27,-9
1702,106,34,1015,-15,-28,-12
1703,209,45,1007,-14,-11,-9
1704,148,31,1003,-16,16,-2
1705,-14,8,1007,-16,31,3
1706,-170,1,977,-13,24,2
1707,-202,0,975,-13,1,-2
1708,-102,13,992,-10,-24,-8
1709,86,34,1005,-10,-31,-10
1710,199,42,1015,-13,-14,-10
1711,165,36,1007,-15,13,-3
1712,26,16,1009,-16,30,1
1713,-144,3,978,-14,28,3
1714,-209,-3,974,-14,6,-1
1715,-133,3,990,-11,-20,-7
1716,54,33,1010,-10,-31,-10
1717,186,43,1002,-12,-20,-10
1718,188,33,1006,-15,8,-4
1719,58,28,1008,-16,28,3
1720,-120,11,997,-16,30,5
1721,-200,-9,980,-13,10,0
1722,-168,5,968,-10,-14,-6
1723,24,31,1011,-11,-32,-11
1724,159,34,1021,-14,-22,-11
1725,203,32,1002,-14,1,-6
1726,95,30,992,-16,24,1
1727,-86,10,1005,-15,32,5
1728,-203,-5,983,-15,16,1
1729,-183,3,970,-13,-9,-5
1730,-14,24,1008,-9,-29,-9
1731,131,36,1015,-13,-26,-11
1732,214,39,1005,-14,-7,-8
1733,123,29,1006,-15,21,1
1734,-52,9,1004,-17,33,4
1735,-186,-5,971,-14,20,2
1736,-197,8,970,-12,-3,-2
1737,-57,15,1010,-12,-28,-8
1738,108,36,1016,-11,-29,-11
1739,210,42,1001,-14,-10,-8
1740,148,36,1006,-16,17,-2
1741,-16,8,1009,-17,31,2
1742,-173,0,974,-14,25,3
1743,-201,0,971,-15,1,-3
1744,-100,9,994,-11,-23,-8
1745,87,35,1010,-12,-30,-10
1746,201,45,1015,-14,-15,-10
1747,169,39,1009,-14,13,-2
1748,25,12,1010,-17,31,2
1749,-146,9,976,-14,29,3
1750,-210,-5,981,-13,5,-1
1751,-132,4,988,-13,-21,-8
1752,53,29,1007,-12,-31,-10
1753,193,44,1005,-12,-18,-10
1754,181,31,1007,-16,7,-3
1755,58,28,1012,-15,27,2
1756,-124,9,993,-17,29,5
1757,-205,-7,973,-13,10,-1
1758,-163,3,975,-12,-16,-6
1759,25,30,1014,-11,-33,-11
1760,165,34,1019,-12,-22,-12
1761,201,35,1000,-14,3,-6
1762,90,30,994,-16,26,1
1763,-94,16,1005,-15,32,4
1764,-203,-7,985,-15,14,0
1765,-181,6,966,-12,-10,-4
1766,-8,22,1004,-12,-29,-9
1767,136,33,1022,-13,-24,-10
1768,212,40,1004,-12,-5,-8
1769,118,33,999,-16,22,0
1770,-59,10,1004,-17,33,5
1771,-192,-3,972,-16,20,3
1772,-195,4,971,-13,-5,-3
1773,-51,15,1010,-12,-29,-10
1774,114,34,1010,-13,-28,-11
1775,216,40,1001,-15,-8,-10
1776,145,36,1006,-17,18,-2
1777,-22,8,1011,-17,32,3
1778,-176,0,973,-14,23,0
1779,-205,1,966,-11,0,-2
1780,-90,10,996,-8,-25,-8
1781,90,34,1014,-12,-30,-10
1782,208,47,1015,-14,-13,-9
1783,165,34,1005,-17,14,-3
1784,13,16,1006,-18,31,3
1785,-154,3,976,-15,28,3
1786,-211,-3,983,-13,4,-1
1787,-128,4,985,-12,-21,-8
1788,66,33,1005,-13,-31,-10
1789,191,44,1009,-12,-16,-11
1790,181,34,1010,-14,8,-4
1791,50,21,1015,-15,28,1
1792,-128,8,985,-14,30,4
1793,-206,-8,972,-14,9,0
1794,-160,1,980,-10,-16,-5
1795,35,32,1016,-10,-33,-9
1796,174,40,1014,-12,-22,-11
1797,196,35,996,-16,5,-5
1798,82,29,998,-15,26,2
1799,-103,10,1005,-17,31,5
1800,-202,-8,985,-15,13,2
1801,-174,0,964,-12,-12,-4
1802,0,26,1003,-9,-31,-11
1803,144,37,1022,-12,-24,-11
1804,209,39,1012,-14,-3,-5
1805,114,33,992,-15,22,1
1806,-69,9,996,-17,33,3
1807,-192,-5,980,-14,18,2
1808,-191,3,971,-12,-7,-3
1809,-36,17,1006,-13,-29,-10
1810,119,32,1015,-12,-27,-11
1811,214,44,996,-12,-6,-8
1812,136,36,1005,-15,20,1
1813,-35,8,1017,-16,32,3
1814,-182,-1,972,-14,22,2
1815,-198,4,963,-13,-2,-3
1816,-80,10,1004,-12,-26,-9
1817,100,34,1016,-11,-29,-12
1818,211,42,1008,-15,-13,-10
1819,157,36,1004,-14,16,-1
1820,0,12,1007,-16,31,3
1821,-160,9,976,-14,27,1
1822,-207,-2,981,-16,2,-1
1823,-110,7,988,-13,-23,-7
1824,72,27,1005,-10,-30,-10
1825,198,45,1011,-11,-16,-9
1826,175,33,1017,-16,11,-2
1827,39,20,1007,-15,28,3
1828,-138,9,982,-15,28,4
1829,-206,-5,972,-14,9,-1
1830,-151,2,986,-13,-18,-5
1831,43,35,1011,-11,-31,-10
1832,180,37,1009,-13,-21,-12
1833,196,36,999,-17,5,-5
1834,69,28,1006,-17,28,2
1835,-108,12,1002,-16,32,3
1836,-208,-11,980,-16,12,0
1837,-173,3,960,-10,-13,-5
1838,12,25,1009,-12,-31,-9
1839,155,37,1026,-11,-23,-11
1840,205,37,1004,-16,1,-5
1841,108,30,991,-17,24,-1
1842,-83,11,997,-15,32,5
1843,-199,-4,984,-13,17,0
1844,-189,3,972,-12,-7,-3
1845,-25,22,1005,-10,-29,-10
1846,131,34,1015,-12,-26,-11
1847,210,42,1003,-13,-6,-7
1848,130,33,1006,-16,21,0
1849,-47,8,1009,-16,31,2
1850,-185,-2,966,-15,20,1
1851,-195,3,970,-12,-3,-2
1852,-64,11,1007,-12,-26,-9
1853,103,36,1018,-9,-28,-12
1854,211,47,1005,-14,-11,-10
1855,150,36,1002,-16,17,-1
1856,-8,12,1012,-16,31,3
1857,-166,1,975,-15,25,4
1858,-204,-2,975,-13,2,-2
1859,-101,7,986,-13,-23,-8
1860,77,31,1014,-10,-30,-11
1861,202,45,1010,-14,-16,-10
1862,169,35,1013,-15,13,-3
1863,26,17,1006,-15,30,2
1864,-147,9,980,-16,29,4
1865,-204,-4,976,-12,7,-2
1866,-144,1,986,-12,-20,-6
1867,57,33,1011,-11,-32,-11
1868,181,35,1005,-13,-19,-10
1869,184,34,1004,-15,6,-5
1870,59,24,1012,-15,25,2
1871,-121,10,997,-14,30,4
1872,-200,-3,977,-12,10,1
1873,-167,5,971,-10,-15,-5
1874,20,31,1011,-12,-32,-9
1875,162,34,1020,-13,-23,-12
1876,201,34,1000,-14,3,-6
1877,95,31,994,-16,26,1
1878,-88,10,1002,-15,32,3
1879,-205,-5,987,-14,16,1
1880,-180,3,968,-13,-10,-5
1881,-13,26,1008,-11,-29,-9
1882,133,33,1014,-14,-25,-10
1883,212,44,1012,-14,-5,-7
1884,124,28,998,-14,21,1
1885,-56,11,1005,-16,33,4
1886,-187,-6,973,-13,20,1
1887,-197,6,971,-11,-5,-2
1888,-52,15,1006,-12,-29,-9
1889,111,31,1016,-12,-29,-11
1890,216,45,1002,-15,-11,-9
1891,148,29,1001,-16,18,-2
1892,-21,11,1013,-16,31,3
1893,-173,0,974,-15,23,2
1894,-202,2,969,-12,1,-3
1895,-96,12,993,-11,-23,-7
1896,88,33,1016,-12,-30,-11
1897,208,43,1012,-13,-14,-10
1898,161,33,1006,-14,14,-1
1899,21,18,1011,-16,30,2
1900,-154,1,974,-15,29,4
1901,-206,-1,982,-12,5,-2
1902,-125,2,987,-12,-21,-7
1903,57,35,1003,-9,-30,-10
1904,199,43,1010,-11,-17,-12
1905,176,32,1009,-15,10,-4
1906,52,26,1009,-16,27,1
1907,-124,7,990,-17,31,3
1908,-209,-4,969,-13,10,-1
1909,-157,3,977,-11,-17,-6
1910,27,29,1020,-11,-33,-10
1911,173,38,1009,-14,-23,-12
1912,197,29,997,-14,4,-5
1913,87,30,999,-17,25,0
1914,-99,9,1006,-14,32,5
1915,-204,-3,983,-13,14,0
1916,-177,4,966,-13,-11,-4
1917,-4,29,1005,-9,-29,-10
1918,141,34,1021,-13,-24,-13
1919,212,36,1014,-15,-4,-8
1920,118,29,996,-15,21,0
1921,-65,8,998,-16,32,3
1922,-193,-6,981,-14,21,1
1923,-195,3,975,-13,-7,-2
1924,-38,18,1009,-11,-31,-10
1925,115,33,1015,-12,-27,-11
1926,217,48,1000,-13,-8,-9
1927,138,36,1009,-14,20,-1
1928,-31,10,1012,-17,31,3
1929,-181,-5,972,-15,22,2
1930,-201,4,966,-12,-2,-1
1931,-85,9,998,-11,-25,-8
1932,96,30,1020,-11,-30,-12
1933,211,45,1012,-13,-13,-10
1934,163,38,1001,-15,15,-1
1935,6,15,1007,-18,32,3
1936,-160,3,980,-14,28,2
1937,-210,-2,979,-14,4,-1
1938,-116,5,987,-11,-22,-7
1939,72,31,1005,-11,-32,-10
1940,197,43,1011,-12,-16,-10
1941,179,35,1013,-14,10,-4
1942,41,20,1013,-15,29,3
1943,-134,8,981,-14,30,4
1944,-207,-4,971,-13,10,-1
1945,-152,3,988,-11,-16,-6
1946,40,34,1017,-10,-31,-11
1947,180,39,1007,-13,-21,-11
1948,194,32,999,-16,4,-5
1949,73,27,1005,-14,27,0
1950,-110,12,1000,-18,32,4
1951,-204,-12,983,-15,12,0
1952,-173,3,966,-12,-13,-5
1953,11,30,1002,-10,-32,-10
1954,151,36,1027,-12,-24,-10
1955,209,39,1007,-14,0,-6
1956,107,31,994,-17,25,1
1957,-78,13,1000,-17,32,5
1958,-200,-6,984,-16,17,2
1959,-186,3,972,-12,-8,-4
1960,-28,20,1008,-10,-30,-10
1961,129,37,1011,-12,-27,-12
1962,211,43,1005,-15,-6,-7
1963,133,33,1003,-17,19,0
1964,-46,7,1011,-18,32,3
1965,-182,-7,965,-15,21,1
1966,-198,4,968,-11,-4,-2
1967,-66,15,1005,-10,-27,-8
1968,100,32,1020,-12,-27,-11
1969,214,44,1006,-15,-12,-9
1970,148,36,1006,-16,16,0
1971,-3,12,1005,-16,30,3
1972,-170,0,978,-16,26,3
1973,-199,1,973,-14,2,-2
1974,-105,3,990,-11,-23,-6
1975,83,36,1007,-11,-32,-11
1976,201,38,1013,-13,-14,-11
1977,166,39,1012,-17,12,-3
1978,27,17,1012,-15,28,2
1979,-147,9,976,-15,28,4
1980,-209,-4,976,-15,7,0
1981,-137,4,990,-13,-18,-6
1982,51,29,1008,-11,-31,-10
1983,186,40,1004,-12,-21,-12
1984,189,31,1003,-15,6,-4
1985,59,27,1011,-15,27,1
1986,-118,10,996,-17,31,4
1987,-207,-3,979,-13,12,0
1988,-163,5,968,-11,-16,-5
1989,21,31,1013,-12,-33,-10
1990,159,34,1021,-15,-23,-11
1991,203,32,997,-17,1,-6
1992,94,28,994,-16,25,0
1993,-88,11,1002,-15,32,5
1994,-200,-8,987,-16,14,1
1995,-181,4,968,-13,-9,-2
1996,-14,24,1006,-12,-30,-9
1997,133,37,1017,-14,-25,-11
1998,209,36,1007,-15,-5,-7
1999,124,35,999,-17,20,1
2000,-53,8,1008,-17,32,3
2001,-187,-4,971,-13,20,1
2002,-194,3,972,-13,-4,-1
2003,-53,16,1007,-10,-28,-9
2004,106,32,1015,-14,-28,-12
2005,214,45,1002,-13,-11,-8
2006,143,33,1005,-17,17,-1
2007,-20,11,1012,-15,31,3
2008,-171,0,973,-15,24,4
2009,-203,5,969,-14,0,-1
2010,-90,7,997,-12,-24,-8
2011,83,32,1013,-11,-29,-10
2012,202,45,1011,-14,-16,-10
2013,165,34,1011,-14,13,-3
2014,21,17,1005,-16,30,5
2015,-150,6,977,-15,29,4
2016,-207,0,982,-12,5,0
2017,-132,4,989,-11,-20,-8
2018,62,33,1003,-10,-31,-12
2019,190,41,1008,-12,-18,-10
2020,185,32,1008,-14,8,-4
2021,54,24,1012,-15,28,2
2022,-129,13,986,-17,31,4
2023,-209,-7,975,-14,11,1
2024,-162,0,975,-11,-16,-6
2025,27,31,1017,-12,-31,-11
2026,175,39,1016,-14,-24,-11
2027,199,37,994,-14,4,-4
2028,88,31,999,-15,27,0
2029,-99,6,1006,-17,32,5
2030,-206,-8,984,-32,12,2
2031,-177,1,964,-12,-10,-4
2032,-3,24,1006,-14,-32,-10
2033,146,39,1018,-8,-26,-12
2034,209,38,1011,-17,-2,-7
2035,117,29,996,-18,22,0
2036,-68,8,999,-15,33,5
2037,-193,-7,976,-17,18,1
2038,-191,2,978,-10,-7,-3
2039,-43,19,1006,-10,-29,-9
2040,117,35,1015,-15,-26,-12
2041,218,44,1001,-14,-7,-8
2042,135,34,1004,-17,20,0
2043,-28,12,1017,-18,32,3
2044,-180,-4,972,-16,24,3
2045,-199,5,963,-14,-1,-2
2046,-80,7,1003,-10,-24,-8
2047,89,31,1018,-10,-30,-10
2048,207,43,1005,-16,-14,-8
2049,157,29,1004,-16,16,-2
2050,5,17,1006,-18,30,3
2051,-157,2,976,-15,27,3
2052,-208,0,985,-11,4,-1
2053,-120,10,983,-12,-22,-7
2054,70,32,1006,-10,-31,-12
2055,195,43,1011,-14,-17,-11
2056,172,31,1010,-18,9,-3
2057,44,21,1013,-17,27,1
2058,-132,5,982,-17,28,3
2059,-208,-3,972,-12,9,-2
2060,-149,2,985,-11,-17,-6
2061,39,35,1016,-11,-31,-10
2062,174,42,1006,-13,-20,-11
2063,196,33,1001,-17,3,-5
2064,75,27,1006,-16,25,1
2065,-105,9,1000,-20,31,5
2066,-202,-9,983,-14,12,0
2067,-172,1,963,-12,-14,-4
2068,6,29,1006,-11,-32,-11
2069,152,38,1027,-14,-24,-12
2070,208,37,1004,-16,0,-6
2071,111,33,990,-16,23,0
2072,-76,8,1006,-17,32,4
2073,-200,-2,980,-14,17,0
2074,-190,2,974,-15,-7,-3
2075,-25,21,1004,-12,-32,-9
2076,123,33,1017,-13,-27,-10
2077,219,43,997,-15,-7,-9
2078,129,29,1013,-18,21,0
2079,-39,10,1008,-17,32,3
2080,-186,-5,971,-14,22,2
2081,-198,6,966,-11,-4,-3
2082,-71,14,1010,-11,-28,-9
2083,103,31,1015,-15,-30,-11
2084,211,42,1011,-14,-12,-8
2085,154,36,998,-18,14,-2
2086,-7,9,1011,-15,31,3
2087,-164,1,977,-14,24,3
2088,-208,0,973,-13,2,-2
2089,-105,10,989,-8,-24,-9
2090,75,34,1008,-12,-31,-9
2091,201,46,1015,-13,-16,-10
2092,170,31,1010,-17,12,-2
2093,29,19,1008,-16,30,4
2094,-142,4,977,-16,29,4
2095,-211,-3,978,-10,6,-1
2096,-137,5,986,-11,-21,-5
2097,47,33,1009,-12,-31,-10
2098,192,44,1005,-11,-21,-11
2099,185,29,1004,-18,8,-2
2100,64,28,1009,-17,27,2
2101,-119,4,997,-18,32,3
2102,-210,-6,974,-12,12,0
2103,-164,2,968,-11,-14,-5
2104,19,29,1018,-11,-32,-10
2105,165,38,1017,-14,-24,-11
2106,207,31,1002,-17,1,-6
2107,94,29,994,-16,25,2
2108,-91,9,1005,-17,32,4
2109,-200,-8,989,-14,16,2
2110,-184,3,965,-11,-9,-3
2111,-11,23,1007,-12,-29,-10
2112,135,37,1017,-12,-25,-11
2113,213,39,1012,-16,-3,-7
2114,124,31,1000,-16,22,0
2115,-62,9,998,-15,34,3
2116,-190,-7,974,-15,20,1
2117,-195,2,975,-12,-5,-3
2118,-50,15,1007,-13,-30,-9
2119,110,33,1016,-13,-27,-11
2120,217,45,1000,-14,-10,-10
2121,142,35,1006,-16,17,1
2122,-18,13,1013,-15,31,3
2123,-180,-2,975,-15,24,2
2124,-206,1,963,-13,-1,-3
2125,-91,1,997,-12,-25,-8
2126,93,34,1016,-10,-30,-11
2127,211,44,1011,-13,-14,-10
2128,161,39,1006,-15,14,-2
2129,13,16,1001,-16,32,3
2130,-159,6,981,-16,28,3
2131,-210,0,981,-14,3,0
2132,-123,4,984,-13,-22,-7
2133,65,30,1004,-11,-30,-11
2134,194,41,1012,-13,-19,-11
2135,178,32,1011,-15,9,-4
2136,47,20,1010,-14,27,2
2137,-132,11,987,-15,29,4
2138,-208,-4,972,-13,10,0
2139,-157,9,981,-11,-16,-5
2140,37,34,1016,-13,-31,-9
2141,173,44,1013,-13,-23,-12
2142,199,27,996,-15,4,-5
2143,76,25,1006,-18,27,1
2144,-99,8,1004,-15,32,3
2145,-205,-8,979,-13,14,-1
2146,-176,7,964,-10,-13,-6
2147,6,27,1008,-10,-29,-11
2148,146,40,1026,-13,-24,-12
2149,208,36,1003,-17,-1,-7
2150,112,28,995,-17,22,-1
2151,-74,7,999,-15,33,5
2152,-196,-8,982,-15,18,1
2153,-193,-1,973,-12,-6,-4
2154,-27,19,1005,-9,-30,-9
2155,126,34,1011,-11,-27,-11
2156,213,43,1003,-13,-7,-9
2157,137,31,1009,-17,18,0
2158,-41,11,1006,-16,32,4
2159,-183,-4,969,-14,20,2
2160,-193,0,969,-11,-4,-3
2161,-73,10,1005,-11,-26,-8
2162,105,31,1016,-12,-31,-12
2163,212,43,1010,-14,-11,-9
2164,153,38,1002,-16,15,0
2165,-5,11,1012,-16,32,3
2166,-171,0,974,-14,26,3
2167,-202,0,976,-11,2,-1
2168,-102,5,990,-9,-25,-8
2169,76,34,1009,-12,-31,-10
2170,203,48,1016,-13,-16,-11
2171,168,36,1011,-16,13,-3
2172,27,23,1006,-16,31,3
2173,-145,8,980,-15,28,3
2174,-211,-3,976,-15,6,-1
2175,-135,-1,986,-11,-20,-7
2176,51,28,1007,-11,-30,-11
2177,186,42,1006,-13,-18,-12
2178,189,32,1007,-15,7,-4
2179,60,23,1013,-16,28,2
2180,-119,15,989,-18,32,3
2181,-206,-6,975,-13,11,0
2182,-166,4,971,-11,-14,-4
2183,21,27,1017,-13,-32,-9
2184,168,38,1016,-14,-23,-11
2185,199,31,992,-16,3,-4
2186,95,28,1001,-15,25,0
2187,-93,12,1007,-16,32,4
2188,-201,-7,980,-14,15,1
2189,-182,2,967,-10,-10,-5
2190,-9,24,1004,-11,-30,-10
2191,140,35,1020,-13,-25,-12
2192,212,30,1009,-16,-3,-7
2193,122,31,999,-15,21,1
2194,-55,14,995,-14,32,4
2195,-193,-7,980,-15,20,2
2196,-189,7,971,-11,-6,-3
2197,-46,13,1008,-13,-29,-9
2198,115,36,1011,-12,-29,-11
2199,213,40,1001,-15,-8,-9
2200,144,33,1008,-16,18,-1
2201,-28,7,1012,-15,32,3
2202,-177,0,974,-14,23,2
2203,-202,4,967,-12,-1,-2
2204,-88,12,996,-11,-26,-9
2205,88,31,1020,-13,-30,-11
2206,209,48,1010,-13,-15,-11
2207,162,33,1003,-15,14,-3
2208,12,16,1007,-16,32,2
2209,-158,3,983,-13,28,3
2210,-206,1,979,-10,3,-3
2211,-122,7,985,-10,-22,-7
2212,73,33,1007,-11,-32,-10
2213,191,42,1014,-12,-17,-9
2214,180,39,1009,-16,10,-4
2215,42,16,1012,-16,30,2
2216,-134,9,979,-13,29,3
2217,-207,-7,972,-12,7,0
2218,-154,0,983,-11,-17,-6
2219,41,31,1014,-12,-32,-10
2220,181,42,1006,-14,-22,-11
2221,195,34,1000,-14,5,-5
2222,76,28,1010,-17,28,1
2223,-113,11,1005,-17,33,4
2224,-203,-9,972,-15,12,1
2225,-174,0,969,-12,-15,-5
2226,13,28,1010,-10,-32,-10
2227,155,38,1019,-14,-23,-12
2228,206,35,1005,-14,0,-5
2229,105,29,992,-13,25,1
2230,-81,12,1002,-16,34,5
2231,-201,-7,986,-15,17,1
2232,-188,4,971,-13,-8,-4
2233,-22,22,1004,-10,-31,-9
2234,132,33,1016,-13,-26,-11
2235,212,39,1009,-16,-6,-8
2236,132,30,1003,-16,20,0
2237,-51,8,1004,-15,33,3
2238,-189,0,970,-14,22,2
2239,-199,5,972,-12,-3,-2
2240,-62,16,1005,-12,-28,-9
2241,107,33,1015,-13,-29,-12
2242,215,44,1004,-12,-9,-10
2243,148,33,1005,-16,18,-1
2244,-17,8,1014,-17,31,4
2245,-171,2,973,-16,24,3
2246,-205,1,969,-13,2,-2
2247,-97,13,992,-10,-24,-7
2248,86,29,1017,-13,-30,-10
2249,204,47,1013,-11,-16,-9
2250,165,32,1003,-15,12,-1
2251,22,16,1007,-15,32,2
2252,-154,4,976,-16,30,4
2253,-206,2,982,-12,6,-1
2254,-133,1,985,-12,-22,-8
2255,58,34,1001,-9,-31,-11
2256,195,41,1008,-14,-19,-11
2257,180,31,1011,-14,9,-5
2258,50,21,1011,-16,27,2
2259,-123,9,988,-14,30,3
2260,-208,-3,974,-13,10,0
2261,-157,7,977,-9,-16,-6
2262,33,28,1019,-13,-32,-10
2263,169,39,1010,-14,-22,-10
2264,204,31,996,-15,4,-4
2265,83,25,1002,-16,27,1
2266,-98,12,1008,-15,33,4
2267,-204,-7,981,-16,13,1
2268,-177,5,963,-12,-13,-5
2269,3,27,1003,-9,-31,-9
2270,144,36,1024,-11,-24,-10
2271,214,33,1007,-15,-2,-7
2272,110,33,996,-16,22,0
2273,-69,11,997,-16,32,3
2274,-196,-9,982,-16,19,2
2275,-192,5,970,-11,-7,-3
2276,-36,19,1009,-12,-29,-9
2277,120,34,1011,-13,-26,-11
2278,216,41,1001,-14,-7,-8
2279,136,32,1008,-16,20,0
2280,-38,9,1009,-14,33,4
2281,-181,-2,971,-13,22,2
2282,-201,2,964,-12,-2,-2
2283,-75,16,1009,-11,-26,-9
2284,97,33,1015,-11,-28,-11
2285,210,47,1005,-14,-13,-9
2286,159,36,1003,-17,15,-3
2287,-3,11,1010,-15,31,2
2288,-163,0,976,-15,26,3
2289,-207,-2,976,-11,3,-2
2290,-108,6,989,-11,-24,-7
2291,74,34,1010,-13,-31,-10
2292,204,44,1015,-12,-17,-12
2293,170,36,1014,-17,12,-3
2294,34,20,1004,-16,30,3
2295,-143,5,981,-14,29,3
2296,-208,-3,980,-13,6,0
2297,-142,0,984,-11,-19,-6
2298,54,30,1011,-13,-31,-11
2299,185,40,1004,-14,-19,-10
2300,189,32,1007,-15,7,-5
2301,61,20,1012,-17,29,3
2302,-123,10,994,-16,32,4
2303,-205,-6,973,-13,11,1
2304,-166,1,969,-13,-15,-5
2305,24,31,1019,-10,-32,-9
2306,169,38,1018,-14,-23,-9
2307,201,31,998,-15,3,-5
2308,97,32,995,-14,26,0
2309,-95,11,1004,-14,32,4
2310,-198,-3,988,-14,14,1
2311,-185,1,965,-13,-11,-3
2312,-10,27,1002,-10,-31,-9
2313,139,34,1021,-14,-25,-11
2314,211,38,1011,-16,-5,-8
2315,123,28,996,-16,22,0
2316,-62,9,1000,-17,33,3
2317,-196,-6,980,-14,19,2
2318,-194,7,973,-12,-5,-3
2319,-49,20,1007,-12,-28,-9
2320,116,37,1013,-10,-27,-12
2321,219,41,1000,-13,-8,-9
2322,139,37,1005,-16,20,0
2323,-28,8,1015,-16,32,3
2324,-178,-2,971,-14,24,2
2325,-202,3,964,-13,-1,-1
2326,-82,11,999,-11,-25,-8
2327,91,31,1020,-12,-29,-11
2328,210,47,1011,-12,-14,-10
2329,161,33,1001,-17,15,-2
2330,7,11,1007,-14,32,3
2331,-158,1,978,-15,26,2
2332,-205,-3,981,-13,4,-1
2333,-116,6,987,-12,-22,-6
2334,72,33,1005,-12,-31,-11
2335,199,43,1012,-13,-16,-11
2336,176,34,1011,-15,11,-4
2337,43,22,1013,-16,29,1
2338,-136,5,979,-16,31,4
2339,-209,-6,974,-12,9,-1
2340,-153,0,981,-13,-17,-5
2341,40,30,1020,-10,-31,-10
2342,183,42,1007,-13,-21,-12
2343,197,32,994,-15,5,-6
2344,73,30,1012,-16,27,2
2345,-114,10,1004,-18,32,5
2346,-205,-8,974,-14,11,0
2347,-176,0,966,-11,-13,-5
2348,6,30,1012,-11,-31,-10
2349,161,34,1024,-13,-24,-13
2350,207,39,999,-15,0,-5
2351,105,30,995,-16,24,1
2352,-80,10,1007,-15,33,3
2353,-206,-6,978,-13,16,0
2354,-188,5,970,-11,-9,-4
2355,-26,23,1009,-11,-31,-9
2356,129,35,1015,-12,-26,-11
2357,213,38,1005,-14,-5,-7
2358,130,30,1006,-15,20,-1
2359,-47,11,1003,-17,33,4
2360,-187,-2,971,-15,22,1
2361,-197,5,966,-13,-5,-3
2362,-65,16,1008,-11,-28,-9
2363,104,33,1017,-13,-29,-11
2364,216,44,1005,-15,-10,-8
2365,152,31,1001,-15,17,-2
2366,-15,15,1014,-16,32,4
2367,-169,-2,976,-15,24,1
2368,-208,0,969,-17,1,-2
2369,-97,11,989,-4,-19,-7
2370,79,32,1016,-13,-30,-10
2371,208,48,1012,-13,-16,-9
2372,166,33,1008,-15,13,-2
2373,26,16,1008,-21,31,2
2374,-150,3,979,-12,29,3
2375,-209,-5,981,-15,5,-2
2376,-133,4,989,-11,-19,-7
2377,58,35,1002,-11,-30,-11
2378,193,43,1012,-15,-19,-11
2379,182,35,1007,-15,9,-4
2380,53,22,1009,-17,27,0
2381,-122,9,991,-17,30,3
2382,-206,-9,969,-12,12,0
2383,-159,6,976,-13,-16,-5
2384,29,29,1017,-10,-32,-9
2385,168,42,1013,-13,-23,-11
2386,202,31,996,-16,3,-5
2387,87,30,1000,-13,27,2
2388,-98,11,1004,-16,31,4
2389,-205,-8,984,-14,14,0
2390,-181,5,964,-10,-11,-4
2391,0,29,1001,-9,-29,-9
2392,143,37,1025,-12,-25,-12
2393,211,38,1009,-16,-4,-6
2394,118,33,995,-15,21,1
2395,-66,8,996,-16,32,4
2396,-196,-4,981,-14,20,1
2397,-192,3,974,-12,-7,-2
2398,-43,20,1006,-10,-29,-9
2399,122,32,1018,-13,-27,-10
2400,212,43,1001,-13,-8,-8
2401,145,35,1007,-19,19,-1
2402,-32,2,1015,-18,33,3
2403,-179,1,969,-13,22,2
2404,-200,-1,965,-14,-1,-3
2405,-81,13,1006,-9,-25,-9
2406,95,34,1015,-12,-28,-10
2407,212,44,1009,-14,-13,-9
2408,158,34,1001,-14,15,-2
2409,2,10,1005,-15,32,2
2410,-162,5,982,-13,27,3
2411,-204,-1,978,-12,3,-1
2412,-114,7,983,-12,-22,-8
2413,70,33,1011,-11,-30,-11
2414,198,43,1011,-15,-17,-10
2415,173,31,1011,-16,11,-4
2416,40,19,1005,-17,29,3
2417,-136,3,984,-17,29,3
2418,-206,-4,969,-12,9,-1
2419,-150,3,988,-10,-17,-6
2420,46,34,1016,-11,-31,-10
2421,183,41,999,-14,-21,-12
2422,195,30,999,-15,4,-4
2423,71,26,1013,-15,27,2
2424,-110,12,1001,-14,33,5
2425,-209,-7,977,-13,13,0
2426,-175,7,966,-11,-14,-5
2427,7,24,1013,-12,-32,-10
2428,154,37,1023,-12,-25,-11
2429,209,35,1006,-16,-1,-7
2430,107,29,990,-17,24,1
2431,-75,9,1003,-15,31,2
2432,-199,-10,986,-15,16,0
2433,-191,3,965,-10,-8,-4
2434,-22,18,1006,-10,-30,-11
2435,124,36,1016,-13,-26,-11
2436,212,43,1003,-15,-7,-9
2437,134,36,1007,-17,22,-1
2438,-48,4,1003,-17,34,5
2439,-185,-4,969,-15,23,3
2440,-198,4,970,-13,-4,-2
2441,-69,11,1007,-11,-27,-8
2442,105,34,1019,-10,-28,-12
2443,214,42,1005,-13,-10,-9
2444,154,34,1003,-15,17,-1
2445,-11,11,1014,-16,32,5
2446,-171,0,976,-14,26,1
2447,-207,0,971,-13,1,-2
2448,-98,9,990,-11,-23,-9
2449,81,34,1013,-12,-30,-12
2450,212,48,1013,-12,-16,-11
2451,165,37,1009,-15,13,-2
2452,30,17,1006,-16,30,2
2453,-150,0,980,-16,29,4
2454,-207,-3,976,-13,5,-1
2455,-137,2,989,-10,-20,-6
2456,55,33,1005,-11,-30,-11
2457,193,40,1007,-11,-19,-12
2458,186,32,1007,-15,7,-4
2459,57,24,1011,-16,27,1
2460,-122,8,994,-16,32,4
2461,-206,-5,972,-13,12,0
2462,-163,0,972,-11,-16,-6
2463,28,31,1018,-11,-32,-11
2464,166,39,1013,-13,-23,-10
2465,204,34,1000,-14,3,-6
2466,89,26,998,-16,26,1
2467,-97,11,1005,-16,32,4
2468,-202,-12,986,-15,13,0
2469,-185,4,966,-11,-10,-4
2470,-3,25,1002,-10,-30,-10
2471,139,33,1024,-11,-24,-13
2472,211,40,1008,-14,-5,-7
2473,119,31,998,-16,22,1
2474,-63,9,999,-16,33,4
2475,-194,-3,972,-15,19,2
2476,-194,4,975,-13,-6,-3
2477,-47,16,1012,-10,-28,-9
2478,116,36,1010,-12,-27,-10
2479,214,43,1001,-12,-8,-9
2480,141,35,1011,-15,19,0
2481,-26,11,1010,-16,31,4
2482,-179,-2,974,-13,23,2
2483,-197,1,963,-12,-1,-3
2484,-84,9,999,-10,-24,-9
2485,93,34,1016,-12,-27,-11
2486,211,46,1015,-14,-14,-10
2487,160,38,1003,-15,15,-2
2488,11,12,1001,-15,32,2
2489,-158,2,982,-16,27,3
2490,-208,-2,979,-12,4,-1
2491,-120,3,984,-11,-23,-7
2492,69,33,1007,-11,-31,-10
2493,198,43,1008,-11,-17,-11
2494,179,33,1014,-15,10,-3
2495,42,23,1011,-16,29,3
2496,-137,7,982,-16,30,3
2497,-206,-6,972,-11,10,-1
2498,-153,0,979,-12,-17,-6
2499,40,32,1015,-11,-31,-10
2500,183,39,1013,-14,-21,-11
2501,195,35,995,-14,6,-4
2502,77,27,1006,-15,28,2
2503,-109,10,1006,-16,32,5
2504,-206,-5,977,-13,13,1
2505,-173,0,970,-10,-12,-5
2506,7,31,1009,-10,-30,-9
2507,153,35,1023,-13,-23,-11
2508,209,37,1008,-14,-1,-7
2509,110,27,993,-16,24,1
2510,-78,11,999,-16,33,4
2511,-204,-7,985,-14,18,0
2512,-190,6,971,-11,-8,-4
2513,-30,17,1007,-11,-30,-10
2514,130,34,1010,-13,-26,-12
2515,212,39,1006,-14,-6,-8
2516,135,33,1005,-17,21,0
2517,-42,8,1009,-18,35,5
2518,-183,0,969,-14,22,2
2519,-200,2,966,-13,-3,-2
2520,-66,15,1007,-11,-27,-9
2521,100,30,1016,-12,-29,-11
2522,214,48,1011,-12,-12,-9
2523,153,35,1003,-16,15,0
2524,-7,12,1008,-17,32,3
2525,-167,-1,980,-15,26,3
2526,-205,-3,973,-12,3,-1
2527,-101,8,988,-9,-23,-8
2528,81,33,1010,-10,-31,-10
2529,203,46,1016,-13,-16,-10
2530,170,35,1009,-15,14,-2
2531,30,21,1009,-18,30,3
2532,-145,6,979,-15,27,3
2533,-210,-5,973,-14,7,0
2534,-140,3,987,-12,-19,-6
2535,51,29,1010,-10,-30,-12
2536,184,44,1005,-12,-18,-11
2537,188,33,1006,-14,6,-5
2538,62,27,1014,-14,27,1
2539,-120,10,992,-16,30,5
2540,-205,-9,972,-12,11,-1
2541,-165,0,975,-9,-15,-5
2542,19,30,1012,-11,-32,-8
2543,163,38,1018,-14,-24,-11
2544,205,32,1000,-14,2,-6
2545,91,31,995,-15,24,2
2546,-89,9,1003,-14,33,4
2547,-203,-5,986,-16,16,2
2548,-185,7,964,-12,-10,-4
2549,-10,23,1005,-11,-30,-10
2550,133,36,1020,-13,-24,-11
2551,211,38,1005,-16,-5,-8
2552,125,28,1003,-14,22,-1
2553,-59,10,1000,-14,34,4
2554,-188,-4,972,-14,21,0
2555,-195,4,976,-11,-4,-5
2556,-52,18,1009,-12,-29,-10
2557,112,33,1014,-11,-28,-11
2558,216,47,1005,-14,-8,-9
2559,143,36,1005,-15,19,0
2560,-21,11,1013,-14,32,3
2561,-173,-2,973,-14,23,2
2562,-206,2,971,-13,-1,-2
2563,-88,9,994,-10,-25,-9
2564,86,26,1018,-12,-28,-12
2565,209,46,1010,-13,-15,-10
2566,163,35,1009,-17,13,-2
2567,17,14,1006,-15,30,3
2568,-151,6,977,-14,27,4
2569,-206,-3,980,-12,4,-2
2570,-130,2,986,-12,-21,-7
2571,65,32,1004,-11,-31,-12
2572,193,40,1009,-12,-18,-11
2573,182,32,1010,-15,8,-4
2574,48,21,1011,-16,28,3
2575,-128,6,984,-14,31,3
2576,-208,-6,974,-13,10,1
2577,-160,10,974,-10,-16,-6
2578,31,29,1021,-10,-32,-9
2579,170,42,1010,-14,-22,-10
2580,195,30,999,-14,3,-6
2581,88,25,1001,-16,26,0
2582,-102,7,1003,-17,32,5
2583,-204,-3,983,-13,14,0
2584,-178,2,967,-12,-12,-4
2585,0,27,1002,-10,-31,-9
2586,146,41,1024,-12,-24,-12
2587,206,34,1013,-16,-3,-8
2588,114,33,992,-14,22,0
2589,-68,9,999,-15,33,4
2590,-198,-4,980,-13,19,2
2591,-193,1,975,-11,-7,-4
2592,-40,20,1009,-11,-29,-8
2593,117,32,1010,-12,-27,-11
2594,219,43,1004,-13,-6,-9
2595,132,32,1005,-18,20,1
2596,-31,10,1014,-16,32,3
2597,-180,-5,971,-13,21,2
2598,-199,6,963,-13,-2,-2
2599,-75,13,1004,-12,-27,-9
2600,94,34,1019,-11,-30,-10
2601,213,44,1006,-13,-14,-10
2602,158,35,1003,-15,16,-3
2603,0,16,1002,-15,32,3
2604,-160,1,981,-15,26,2
2605,-207,-2,979,-14,2,-2
2606,-114,3,984,-11,-22,-6
2607,73,33,1008,-13,-30,-11
2608,193,44,1010,-13,-16,-10
2609,176,32,1013,-16,11,-3
2610,37,19,1013,-16,28,3
2611,-135,6,978,-14,29,5
2612,-207,-6,972,-13,8,1
2613,-148,6,990,-11,-19,-5
2614,44,31,1012,-13,-31,-10
2615,179,43,1006,-14,-21,-11
2616,192,34,1000,-16,6,-3
2617,68,28,1011,-15,27,1
2618,-110,9,998,-18,33,5
2619,-206,-9,979,-14,12,0
2620,-170,3,969,-10,-14,-5
2621,9,29,1008,-11,-31,-9
2622,156,40,1022,-13,-24,-12
2623,206,35,1006,-15,1,-7
2624,104,33,992,-14,24,1
2625,-82,10,1000,-17,32,5
2626,-200,-7,988,-14,16,0
2627,-186,2,970,-13,-9,-4
2628,-19,22,1004,-11,-30,-10
2629,131,33,1017,-11,-26,-12
2630,214,43,1004,-14,-5,-9
2631,127,32,1006,-16,22,0
2632,-51,8,1004,-17,33,4
2633,-189,-6,970,-14,21,1
2634,-193,1,967,-9,-3,-3
2635,-62,16,1010,-13,-28,-7
2636,109,32,1017,-11,-28,-12
2637,217,45,1006,-13,-9,-9
2638,151,34,1002,-19,17,0
2639,-17,10,1013,-13,33,3
2640,-170,-2,976,-14,24,3
2641,-203,0,968,-11,1,-1
2642,-96,9,992,-10,-23,-8
2643,84,33,1013,-13,-31,-11
2644,206,47,1013,-11,-15,-10
2645,166,33,1007,-14,13,-2
2646,22,16,1010,-18,29,3
2647,-150,4,973,-15,28,4
2648,-208,0,980,-13,5,0
2649,-135,0,989,-12,-22,-7
2650,57,33,1005,-11,-31,-10
2651,196,42,1008,-15,-20,-11
2652,181,38,1006,-16,9,-2
2653,57,25,1014,-16,28,2
2654,-125,9,988,-17,30,4
2655,-208,-7,971,-14,11,-1
2656,-163,0,974,-11,-15,-5
2657,25,30,1020,-11,-32,-10
2658,171,41,1014,-11,-23,-11
2659,195,36,999,-15,3,-5
2660,91,31,997,-14,26,1
2661,-96,10,1004,-16,33,4
2662,-204,-6,984,-14,16,1
2663,-186,2,966,-13,-11,-4
2664,-5,24,1003,-11,-32,-10
2665,138,31,1021,-13,-27,-11
2666,210,37,1007,-14,-4,-8
2667,120,31,998,-14,22,-1
2668,-63,12,1000,-14,33,3
2669,-193,-4,976,-13,19,1
2670,-195,4,975,-11,-7,-3
2671,-45,21,1007,-10,-29,-9
2672,117,32,1016,-12,-27,-10
2673,219,44,997,-12,-7,-9
2674,139,32,1009,-19,20,0
2675,-25,12,1014,-17,32,4
2676,-179,-4,972,-15,24,2
2677,-200,3,965,-13,-1,-3
2678,-88,9,999,-11,-24,-9
2679,92,32,1018,-12,-29,-10
2680,207,46,1009,-16,-14,-10
2681,162,35,1006,-14,14,-3
2682,11,16,1006,-17,32,3
2683,-155,2,977,-14,28,2
2684,-209,-2,984,-13,5,-1
2685,-120,5,985,-13,-21,-7
2686,63,28,1003,-11,-29,-11
2687,196,44,1009,-12,-17,-11
2688,177,31,1014,-15,10,-3
2689,47,23,1009,-16,28,2
2690,-135,7,985,-14,31,3
2691,-205,-3,972,-12,10,-1
2692,-157,1,983,-11,-16,-5
2693,39,34,1019,-11,-31,-10
2694,173,38,1007,-15,-21,-11
2695,195,31,997,-15,5,-5
2696,79,29,1007,-16,25,1
2697,-103,12,1001,-16,32,4
2698,-204,-4,980,-15,15,1
2699,-175,0,967,-12,-12,-5
2700,3,25,1001,-9,-31,-9
2701,148,38,1025,-14,-23,-11
2702,207,38,1008,-15,-2,-6
2703,107,31,992,-20,24,0
2704,-72,11,996,-17,33,3
2705,-200,-6,984,-15,19,1
2706,-191,6,972,-11,-7,-3
2707,-32,19,1005,-12,-29,-9
2708,126,37,1014,-11,-27,-11
2709,212,40,1002,-16,-7,-7
2710,133,35,1007,-16,20,-2
2711,-41,7,1011,-17,32,3
2712,-186,-3,966,-14,20,2
2713,-196,5,965,-11,-3,-2
2714,-71,11,1008,-11,-25,-9
2715,101,36,1017,-10,-28,-12
2716,209,44,1006,-14,-11,-9
2717,153,35,1001,-17,16,-3
2718,-7,11,1007,-14,32,3
2719,-166,3,976,-16,26,4
2720,-204,-1,977,-11,3,-2
2721,-105,5,987,-11,-23,-8
2722,81,32,1009,-13,-30,-10
2723,198,45,1012,-12,-15,-11
2724,169,33,1014,-17,12,-3
2725,33,20,1012,-15,29,2
2726,-143,8,976,-15,28,3
2727,-206,-1,975,-11,7,-1
2728,-142,3,987,-11,-19,-6
2729,49,34,1010,-13,-30,-10
2730,187,39,1008,-14,-19,-11
2731,191,37,999,-16,7,-4
2732,62,25,1008,-16,27,1
2733,-115,9,998,-16,31,3
2734,-203,-7,976,-14,11,0
2735,-171,-1,970,-10,-14,-5
2736,21,31,1013,-9,-32,-10
2737,158,37,1018,-14,-23,-11
2738,201,35,1002,-15,2,-6
2739,101,31,995,-16,25,0
2740,-88,8,1002,-16,32,5
2741,-199,-4,981,-15,15,1
2742,-186,1,971,-12,-9,-3
2743,-18,22,1004,-12,-29,-9
2744,135,34,1017,-12,-26,-11
2745,210,41,1005,-13,-5,-8
2746,122,31,1004,-14,21,0
2747,-48,10,1004,-16,34,3
2748,-191,-1,971,-13,21,3
2749,-191,3,972,-13,-5,-3
2750,-58,13,1008,-12,-28,-8
2751,105,30,1012,-13,-27,-10
2752,217,47,1007,-13,-10,-9
2753,144,34,1005,-17,17,0
2754,-13,13,1009,-13,31,3
2755,-172,0,975,-15,24,2
2756,-205,2,971,-12,1,-1
2757,-96,7,989,-11,-24,-7
2758,82,33,1013,-11,-31,-11
2759,206,46,1014,-14,-16,-11
2760,163,32,1008,-15,12,-2
2761,25,15,1007,-16,31,2
2762,-150,4,980,-13,28,4
2763,-207,-2,979,-11,5,-2
2764,-135,4,989,-13,-19,-7
2765,59,32,1005,-13,-32,-11
2766,191,42,1008,-12,-19,-12
2767,183,32,1007,-15,7,-4
2768,56,25,1014,-14,27,2
2769,-124,10,990,-16,31,4
2770,-206,-9,972,-14,10,0
2771,-161,4,977,-10,-16,-5
2772,27,33,1019,-14,-31,-9
2773,169,39,1015,-15,-23,-12
2774,202,32,996,-14,1,-8
2775,89,29,998,-15,26,1
2776,-95,10,1001,-16,33,4
2777,-201,-6,990,-14,15,0
2778,-182,5,963,-13,-10,-3
2779,-4,27,1003,-11,-30,-11
2780,140,35,1021,-14,-25,-12
2781,209,41,1007,-15,-4,-7
2782,120,30,996,-16,22,1
2783,-63,12,1002,-15,33,5
2784,-192,-7,972,-15,19,0
2785,-196,2,975,-11,-5,-4
2786,-46,16,1010,-12,-29,-8
2787,118,34,1014,-13,-28,-10
2788,215,42,998,-13,-7,-8
2789,140,34,1007,-16,19,0
2790,-27,10,1016,-16,32,4
2791,-179,0,970,-14,22,2
2792,-196,5,969,-11,-1,-2
2793,-88,8,1000,-10,-23,-9
2794,93,32,1016,-13,-30,-11
2795,210,43,1012,-15,-14,-9
2796,161,36,1007,-13,15,-2
2797,9,15,1004,-16,31,3
2798,-155,5,979,-12,27,3
2799,-210,0,979,-12,4,0
2800,-124,4,987,-13,-22,-6
2801,70,31,1004,-11,-30,-11
2802,195,44,1011,-15,-16,-11
2803,176,32,1009,-14,11,-3
2804,48,23,1017,-18,28,3
2805,-133,6,980,-16,30,4
2806,-205,-2,971,-13,8,-1
2807,-156,-1,985,-14,-17,-7
2808,35,33,1014,-11,-33,-10
2809,177,37,1010,-14,-22,-11
2810,197,32,998,-12,4,-5
2811,75,26,1003,-15,27,4
2812,-108,12,1002,-16,31,4
2813,-208,-6,984,-14,13,0
2814,-173,2,966,-10,-14,-6
2815,6,24,1003,-11,-31,-10
2816,150,36,1026,-12,-24,-11
2817,211,36,1010,-16,-1,-6
2818,108,32,993,-16,24,1
2819,-77,8,1000,-15,33,4
2820,-199,-6,988,-14,17,2
2821,-192,4,968,-12,-8,-4
2822,-27,21,1008,-10,-30,-9
2823,125,38,1017,-13,-27,-11
2824,218,44,999,-12,-7,-8
2825,132,34,1005,-17,20,-1
2826,-43,10,1012,-17,34,4
2827,-182,-4,967,-14,20,2
2828,-200,2,964,-13,-4,-3
2829,-68,14,1007,-10,-26,-9
2830,99,34,1018,-11,-28,-11
2831,213,45,1003,-14,-12,-9
2832,155,36,1002,-14,15,-2
2833,-7,12,1008,-15,31,3
2834,-167,0,975,-15,27,2
2835,-208,-1,975,-12,2,-1
2836,-107,7,986,-11,-23,-6
2837,81,30,1010,-12,-30,-11
2838,203,47,1013,-14,-16,-10
2839,168,38,1010,-16,12,-2
2840,33,16,1010,-17,29,2
2841,-147,5,977,-15,29,3
2842,-207,-2,974,-13,6,-2
2843,-142,0,991,-12,-19,-8
2844,51,33,1010,-11,-31,-11
2845,188,41,1005,-13,-19,-11
2846,189,37,1006,-14,6,-4
2847,59,23,1011,-16,27,3
2848,-121,10,994,-17,32,3
2849,-207,-5,974,-13,11,1
2850,-165,2,973,-12,-15,-5
2851,24,28,1016,-10,-31,-11
2852,165,37,1017,-14,-22,-10
2853,207,35,999,-14,3,-5
2854,99,28,995,-13,26,1
2855,-94,13,1001,-16,32,4
2856,-201,-7,990,-16,14,0
2857,-184,2,962,-12,-10,-4
2858,-11,24,1001,-11,-31,-10
2859,144,34,1022,-14,-27,-11
2860,211,39,1009,-14,-4,-7
2861,127,30,998,-17,21,0
2862,-61,6,999,-16,34,4
2863,-193,-1,975,-13,21,2
2864,-196,3,971,-12,-5,-2
2865,-50,19,1009,-12,-28,-11
2866,116,32,1014,-12,-28,-11
2867,216,43,1003,-13,-8,-9
2868,144,32,1005,-15,18,0
2869,-26,9,1017,-17,32,3
2870,-174,-1,973,-14,23,2
2871,-205,2,964,-13,0,-1
2872,-87,11,999,-10,-24,-9
2873,87,33,1018,-12,-29,-11
2874,212,47,1008,-13,-14,-10
2875,160,34,1007,-13,15,-2
2876,10,16,1003,-15,32,2
2877,-154,0,983,-13,27,2
2878,-210,-2,978,-13,4,-1
2879,-123,4,986,-11,-22,-8
2880,71,33,1004,-10,-31,-11
2881,193,44,1009,-12,-16,-11
2882,183,31,1012,-16,9,-4
2883,43,20,1010,-16,28,1
2884,-129,9,980,-15,28,3
2885,-207,-7,976,-14,9,0
2886,-155,4,979,-12,-17,-5
2887,37,31,1018,-10,-32,-10
2888,177,42,1010,-11,-21,-13
2889,195,31,996,-15,5,-6
2890,77,29,1007,-16,26,1
2891,-103,7,1002,-17,32,4
2892,-202,-9,980,-14,13,-1
2893,-175,4,968,-10,-13,-5
2894,5,27,1006,-10,-31,-9
2895,150,38,1022,-11,-24,-11
2896,207,36,1008,-14,-2,-6
2897,105,32,995,-14,22,0
2898,-70,8,995,-16,32,2
2899,-202,-8,987,-14,18,1
2900,-189,7,971,-12,-7,-4
2901,-30,20,1008,-9,-29,-10
2902,123,35,1009,-12,-27,-11
2903,211,41,1005,-14,-6,-8
2904,134,32,1007,-14,21,-1
2905,-46,6,1008,-17,33,5
2906,-179,1,968,-13,20,1
2907,-196,4,969,-12,-3,-1
2908,-69,13,1005,-11,-25,-9
2909,102,31,1015,-11,-27,-12
2910,208,47,1008,-13,-11,-9
2911,154,34,1002,-15,18,-1
2912,-6,12,1009,-16,33,3
2913,-164,2,977,-14,26,2
2914,-206,2,977,-11,3,-3
2915,-103,6,988,-13,-23,-9
2916,76,30,1009,-12,-30,-11
2917,202,44,1014,-14,-15,-10
2918,171,32,1012,-16,12,-2
2919,29,17,1007,-14,30,3
2920,-143,3,979,-15,28,3
2921,-208,-2,976,-13,6,-1
2922,-141,3,988,-13,-18,-7
2923,50,36,1008,-13,-30,-11
2924,188,40,1005,-11,-19,-12
2925,187,33,1001,-16,6,-5
2926,59,24,1013,-15,26,2
2927,-116,9,995,-15,31,4
2928,-205,-7,974,-13,12,1
2929,-163,0,970,-10,-14,-6
2930,18,26,1015,-11,-33,-11
2931,163,38,1016,-13,-24,-11
2932,200,34,1000,-15,1,-6
2933,97,31,994,-18,24,2
2934,-89,8,1001,-15,33,5
2935,-201,-5,985,-13,17,0
2936,-182,1,970,-11,-10,-3
2937,-13,24,1003,-11,-29,-8
2938,134,34,1016,-12,-25,-11
2939,209,38,1010,-14,-6,-7
2940,122,32,999,-16,21,0
2941,-56,11,1001,-16,33,3
2942,-188,-5,975,-15,20,1
2943,-194,2,971,-12,-4,-2
2944,-51,17,1008,-9,-28,-8
2945,114,31,1016,-13,-27,-12
2946,211,45,1002,-13,-7,-8
2947,148,36,1004,-16,17,-2
2948,-20,13,1017,-15,31,2
2949,-173,1,970,-14,24,2
2950,-204,0,970,-12,0,-3
2951,-90,9,996,-9,-25,-8
2952,86,30,1012,-11,-29,-11
2953,208,47,1013,-15,-14,-10
2954,162,36,1006,-16,14,-1
2955,16,19,1008,-17,32,3
2956,-154,4,977,-17,28,3
2957,-209,-2,979,-15,4,-1
2958,-126,1,990,-14,-22,-7
2959,61,33,1004,-11,-31,-11
2960,195,46,1007,-13,-17,-11
2961,182,36,1010,-16,10,-5
2962,45,27,1012,-16,29,3
2963,-125,7,987,-16,30,4
2964,-206,-7,971,-12,11,0
2965,-157,2,975,-11,-16,-6
2966,32,29,1022,-12,-32,-9
2967,171,39,1011,-11,-22,-10
2968,200,33,996,-14,4,-5
2969,83,26,1003,-15,27,1
2970,-104,12,1005,-16,32,4
2971,-199,-8,980,-16,14,0
2972,-181,3,967,-11,-12,-4
2973,0,26,1005,-12,-31,-9
2974,145,35,1021,-14,-24,-12
2975,207,37,1010,-16,-3,-6
2976,116,30,995,-15,22,-1
2977,-66,8,996,-16,33,4
2978,-195,-2,976,-13,19,2
2979,-188,6,976,-13,-6,-4
2980,-38,17,1007,-12,-29,-8
2981,119,32,1013,-14,-27,-10
2982,213,44,1002,-11,-7,-8
2983,135,33,1005,-16,20,0
2984,-30,9,1012,-16,31,4
2985,-181,-3,969,-15,22,2
2986,-198,4,964,-12,-1,-3
2987,-75,12,1003,-11,-25,-9
2988,92,34,1016,-12,-29,-11
2989,213,44,1007,-14,-14,-10
2990,152,33,1004,-15,15,-1
2991,5,14,1005,-16,32,3
2992,-158,1,978,-13,26,2
2993,-209,1,982,-12,3,-2
2994,-116,8,986,-12,-22,-7
2995,73,33,1006,-12,-30,-12
2996,191,44,1011,-14,-15,-9
2997,173,34,1011,-15,10,-4
2998,40,17,1015,-18,28,2
2999,-137,9,979,-15,29,5
3000,-203,-4,972,-13,8,-1
3001,-153,0,989,-11,-17,-7
3002,40,34,1012,-9,-31,-10
3003,176,41,1010,-13,-21,-10
3004,193,35,997,-13,5,-5
3005,74,26,1006,-15,27,1
3006,-107,15,1000,-16,31,3
3007,-205,-8,982,-12,12,0
3008,-165,5,964,-11,-13,-6
3009,6,27,1004,-12,-30,-9
3010,151,41,1022,-10,-22,-11
3011,203,34,1012,-15,0,-6
3012,106,30,989,-14,22,0
3013,-73,13,999,-14,32,4
3014,-196,-9,983,-14,17,0
3015,-185,5,973,-11,-9,-3
3016,-27,20,1006,-11,-30,-9
3017,126,36,1017,-12,-26,-11
3018,216,42,999,-11,-5,-8
3019,130,32,1005,-15,20,0
3020,-40,7,1013,-17,33,4
3021,-182,-2,968,-15,21,2
3022,-196,8,965,-12,-2,-2
3023,-70,15,1007,-10,-27,-10
3024,98,33,1017,-13,-28,-11
3025,209,44,1007,-14,-13,-8
3026,151,33,1002,-16,16,-2
3027,-1,9,1010,-16,31,2
3028,-162,1,972,-15,26,4
3029,-204,-1,983,-13,3,-1
3030,-108,10,983,-12,-24,-8
3031,75,31,1007,-11,-32,-10
3032,200,46,1013,-13,-15,-9
3033,168,34,1015,-17,12,-3
3034,36,19,1008,-17,29,2
3035,-144,5,978,-14,29,3
3036,-208,-2,975,-13,7,-1
3037,-144,0,987,-1,-19,-9
3038,46,31,1014,0,-31,-11
3039,179,42,1006,-15,-20,-10
3040,192,30,999,-16,4,-4
3041,62,27,1009,-13,28,2
3042,-112,8,1000,-21,31,3
3043,-203,-12,980,-12,13,0
3044,-169,2,966,-11,-14,-5
3045,15,28,1007,-11,-31,-9
3046,152,40,1023,-10,-23,-11
3047,202,35,1004,-17,1,-6
3048,101,32,994,-15,24,0
3049,-79,11,994,-16,32,5
3050,-199,-5,986,-16,16,0
3051,-184,7,973,-11,-8,-4
3052,-26,19,1005,-13,-30,-8
3053,127,35,1015,-14,-26,-11
3054,211,40,1003,-14,-4,-8
3055,126,34,1006,-17,21,-1
3056,-46,6,1010,-16,32,4
3057,-183,-1,972,-12,20,2
3058,-193,2,964,-13,-3,-3
3059,-68,14,1009,-9,-26,-9
3060,102,35,1017,-13,-30,-11
3061,211,43,1008,-16,-11,-10
3062,147,35,1001,-16,16,-1
3063,-6,8,1008,-16,30,3
3064,-162,3,979,-15,26,2
3065,-203,-3,978,-12,2,-1
3066,-102,9,987,-11,-23,-8
3067,78,30,1007,-10,-29,-10
3068,195,46,1011,-12,-14,-10
3069,167,33,1013,-17,12,-2
3070,29,21,1012,-17,29,4
3071,-140,7,978,-15,28,4
3072,-201,-6,974,-13,6,-1
3073,-144,2,987,-12,-18,-7
3074,52,33,1015,-14,-31,-11
3075,181,40,1007,-11,-20,-11
3076,188,36,997,-13,5,-5
3077,65,24,1009,-15,27,0
3078,-113,11,998,-15,32,4
3079,-203,-5,982,-16,11,1
3080,-167,1,970,-11,-15,-5
3081,12,29,1007,-11,-31,-10
3082,155,33,1020,-12,-23,-11
3083,202,34,1006,-12,-1,-6
3084,104,29,994,-16,23,1
3085,-81,10,996,-16,32,4
3086,-197,-8,984,-14,18,0
3087,-182,6,977,-11,-6,-3
3088,-27,24,1008,-11,-31,-7
3089,125,32,1012,-13,-27,-11
3090,211,42,1002,-12,-6,-8
3091,125,30,1007,-18,21,0
3092,-40,8,1011,-15,34,3
3093,-181,-6,970,-15,21,2
3094,-191,7,965,-15,-3,-2
3095,-67,15,1009,-10,-26,-9
3096,96,34,1012,-12,-28,-11
3097,207,44,1011,-16,-12,-10
3098,148,33,1003,-14,15,-2
3099,-2,10,1003,-18,29,2
3100,-159,2,980,-16,26,2
3101,-201,0,980,-12,3,0
3102,-108,10,988,-11,-22,-8
3103,77,36,1007,-11,-29,-11
3104,192,43,1009,-12,-14,-10
3105,170,34,1012,-16,12,-3
3106,34,18,1011,-18,28,1
3107,-134,7,983,-16,28,3
3108,-201,-8,971,-14,8,-1
3109,-148,0,984,-9,-16,-6
3110,45,33,1017,-10,-30,-10
3111,176,43,1011,-13,-20,-10
3112,191,34,996,-12,6,-4
3113,72,27,1001,-17,27,2
3114,-109,9,1001,-16,30,3
3115,-200,-8,984,-13,12,-1
3116,-165,7,964,-12,-14,-4
3117,7,27,1005,-8,-29,-10
3118,146,36,1021,-12,-22,-11
3119,199,37,1006,-16,0,-6
3120,110,32,995,-15,22,-1
3121,-74,6,997,-17,31,4
3122,-192,-5,972,-12,18,1
3123,-182,8,982,-12,-8,-3
3124,-36,22,1004,-11,-29,-9
3125,120,33,1014,-10,-25,-12
3126,210,42,1002,-14,-7,-8
3127,129,34,1003,-15,19,0
3128,-28,3,1015,-17,30,2
3129,-175,-2,969,-14,22,1
3130,-195,5,968,-10,-2,-3
3131,-74,11,999,-11,-25,-8
3132,91,36,1018,-12,-29,-8
3133,207,44,1007,-14,-13,-9
3134,149,33,1011,-15,14,-1
3135,5,13,1001,-16,30,4
3136,-155,5,977,-15,28,2
3137,-201,-3,983,-14,2,-1
3138,-122,7,988,-12,-23,-6
3139,72,31,1005,-11,-29,-12
3140,187,41,1010,-14,-15,-9
3141,175,33,1007,-15,10,-3
3142,44,21,1012,-16,28,1
3143,-130,13,986,-15,29,4
3144,-203,-7,974,-13,9,1
3145,-150,6,978,-12,-15,-6
3146,34,32,1016,-12,-31,-10
3147,167,38,1014,-13,-21,-11
3148,193,30,998,-15,4,-5
3149,81,29,996,-16,26,1
3150,-98,8,1000,-16,30,4
3151,-199,-3,985,-14,12,0
3152,-174,7,972,-12,-11,-3
3153,-2,26,1004,-12,-30,-10
3154,135,33,1019,-15,-24,-10
3155,203,38,1002,-15,-4,-7
3156,115,25,1005,-15,20,-1
3157,-61,5,1002,-14,32,4
3158,-186,-3,968,-13,19,1
3159,-183,7,977,-11,-6,-4
3160,-52,20,1008,-10,-28,-9
3161,113,35,1016,-12,-26,-12
3162,206,44,1007,-14,-7,-9
3163,136,32,1005,-17,16,-1
3164,-21,6,1008,-13,31,2
3165,-170,0,975,-14,23,3
3166,-193,4,975,-11,0,-3
3167,-90,12,991,-11,-23,-7
3168,88,35,1010,-12,-29,-10
3169,195,43,1011,-13,-14,-9
3170,158,30,1013,-17,14,-1
3171,19,14,1008,-16,30,2
3172,-143,10,975,-15,27,4
3173,-199,-3,977,-11,6,-1
3174,-136,5,990,-11,-18,-5
3175,62,35,1013,-12,-30,-11
3176,180,40,1004,-13,-19,-10
3177,181,33,996,-15,6,-4
3178,56,24,1012,-16,28,0
3179,-119,9,998,-16,31,4
3180,-201,-7,977,-13,11,0
3181,-159,5,969,-11,-14,-5
3182,18,31,1009,-12,-30,-9
3183,154,39,1021,-13,-22,-11
3184,200,32,1007,-15,1,-7
3185,95,30,992,-16,24,-1
3186,-85,7,996,-19,31,5
3187,-196,-4,983,-14,17,0
3188,-181,2,979,-12,-8,-3
3189,-21,22,1007,-10,-29,-10
3190,127,29,1015,-14,-26,-11
3191,208,44,1000,-13,-5,-8
3192,125,33,1008,-16,21,-1
3193,-47,9,1012,-16,32,4
3194,-185,-2,966,-15,19,1
3195,-189,6,968,-15,-5,-3
3196,-66,11,1007,-12,-26,-9
3197,103,36,1017,-12,-29,-12
3198,208,42,1007,-14,-12,-9
3199,145,35,1005,-14,16,-1
3200,-2,10,1005,-17,30,4
3201,-163,1,976,-14,25,3
3202,-202,0,981,-14,2,-1
3203,-105,8,993,-11,-22,-8
3204,79,34,1001,-11,-30,-11
3205,195,42,1010,-11,-15,-10
3206,169,32,1013,-17,11,-3
3207,33,20,1007,-16,27,3
3208,-132,8,982,-16,28,3
3209,-204,-7,974,-14,7,-2
3210,-145,5,978,-11,-18,-8
3211,44,31,1021,-12,-31,-11
3212,173,39,1010,-12,-20,-10
3213,193,31,997,-14,5,-5
3214,73,26,998,-15,27,0
3215,-109,8,1005,-15,31,3
3216,-199,-7,984,-14,11,0
3217,-169,4,968,-12,-12,-4
3218,6,27,1007,-11,-30,-10
3219,144,34,1023,-12,-21,-11
3220,200,36,1009,-15,-1,-7
3221,106,28,999,-17,22,0
3222,-68,4,996,-16,33,3
3223,-194,-4,973,-16,19,0
3224,-185,11,974,-10,-7,-3
3225,-40,19,1011,-12,-29,-10
3226,118,35,1012,-12,-28,-10
3227,209,40,1002,-12,-6,-7
3228,133,30,1003,-16,20,-1
3229,-30,6,1011,-17,30,2
3230,-173,0,971,-14,22,1
3231,-197,1,970,-11,-1,-3
3232,-81,13,993,-10,-23,-7
3233,94,36,1013,-13,-28,-11
3234,200,44,1006,-14,-14,-11
3235,155,33,1011,-15,13,-3
3236,13,17,1007,-16,30,3
3237,-151,4,974,-14,27,3
3238,-199,-1,980,-13,4,-2
3239,-125,6,990,-11,-21,-6
3240,67,38,1010,-10,-31,-10
3241,185,42,1006,-14,-17,-10
3242,180,34,1005,-15,9,-4
3243,49,18,1012,-16,27,1
3244,-123,11,990,-17,29,4
3245,-198,-8,978,-13,9,-1
3246,-153,8,973,-11,-15,-6
3247,27,31,1011,-10,-30,-9
3248,161,38,1020,-13,-21,-10
3249,198,32,1004,-15,2,-5
3250,85,30,990,-17,24,1
3251,-88,8,1000,-16,30,4
3252,-197,-6,986,-15,15,1
3253,-176,7,972,-13,-9,-5
3254,-10,19,1009,-11,-29,-10
3255,131,34,1010,-13,-24,-11
3256,205,37,1003,-16,-4,-8
3257,118,31,1007,-15,21,-1
3258,-55,5,1004,-18,32,4
3259,-186,-3,967,-13,19,1
3260,-186,7,971,-13,-5,-2
3261,-61,15,1007,-13,-27,-8
3262,108,32,1015,-12,-27,-11
3263,206,43,1007,-15,-9,-8
3264,140,32,1002,-16,16,-1
3265,-8,8,1004,-15,31,1
3266,-169,0,976,-14,25,2
3267,-192,1,983,-11,1,-1
3268,-98,7,987,-11,-23,-8
3269,81,36,1006,-13,-31,-10
3270,196,43,1013,-14,-14,-9
3271,165,30,1012,-15,12,-3
3272,29,18,1006,-16,28,3
3273,-137,9,980,-15,27,4
3274,-203,-6,975,-13,6,-1
3275,-139,6,982,-13,-19,-7
3276,51,34,1023,-10,-32,-10
3277,176,41,1005,-15,-20,-11
3278,189,32,999,-15,6,-4
3279,68,27,1001,-16,27,0
3280,-111,11,1004,-18,31,4
3281,-199,-10,981,-16,12,0
3282,-166,6,969,-10,-14,-5
3283,12,27,1004,-10,-29,-10
3284,148,36,1021,-13,-23,-11
3285,203,36,1009,-16,-1,-7
3286,103,29,995,-17,22,0
3287,-78,7,995,-14,32,4
3288,-193,-5,976,-13,18,0
3289,-182,3,976,-11,-7,-3
3290,-36,18,1008,-11,-29,-9
3291,121,34,1012,-13,-27,-12
3292,209,42,1004,-12,-5,-8
3293,127,34,1003,-15,20,0
3294,-36,7,1015,-18,30,3
3295,-179,-2,969,-12,20,1
3296,-194,2,971,-13,-2,-3
3297,-80,15,998,-12,-25,-8
3298,95,37,1012,-13,-29,-11
3299,203,40,1012,-15,-13,-10
3300,149,31,1008,-15,15,-2
3301,11,12,1006,-17,31,1
3302,-155,3,975,-13,26,2
3303,-201,0,978,-13,3,-2
3304,-121,10,992,-10,-21,-8
3305,67,36,1006,-11,-29,-11
3306,188,39,1005,-13,-17,-11
3307,175,30,1005,-16,9,-4
3308,46,20,1011,-17,26,0
3309,-120,7,992,-15,29,3
3310,-196,-8,975,-14,9,-1
3311,-151,5,971,-12,-16,-5
3312,33,33,1014,-11,-32,-9
3313,160,39,1018,-12,-21,-9
3314,195,32,1003,-16,2,-5
3315,87,27,993,-16,24,0
3316,-90,6,997,-15,30,4
3317,-198,-9,984,-12,13,-1
3318,-174,6,972,-13,-9,-3
3319,-9,24,1006,-9,-28,-8
3320,129,39,1012,-13,-24,-10
3321,206,41,1005,-15,-4,-7
3322,119,29,1007,-18,22,-1
3323,-55,6,1007,-18,31,3
3324,-185,-3,966,-16,19,2
3325,-184,5,970,-12,-5,-4
3326,-62,12,1007,-8,-26,-9
3327,107,38,1016,-10,-27,-11
3328,205,46,1009,-13,-8,-10
3329,139,36,1003,-15,16,-1
3330,-16,11,1002,-17,31,3
3331,-167,0,977,-16,25,2
3332,-197,0,982,-13,1,-1
3333,-100,6,985,-12,-23,-8
3334,82,35,1006,-13,-30,-11
3335,189,41,1010,-13,-15,-11
3336,165,34,1013,-17,11,-3
3337,29,20,1008,-16,28,2
3338,-140,9,981,-15,28,4
3339,-199,-6,970,-12,6,0
3340,-139,5,986,-11,-18,-6
3341,51,30,1022,-11,-31,-10
3342,174,37,1009,-14,-19,-11
3343,189,30,995,-15,6,-4
3344,68,25,1005,-16,27,1
3345,-110,8,1001,-17,30,4
3346,-198,-6,981,-14,11,-1
3347,-163,8,969,-13,-14,-5
3348,12,30,1006,-10,-30,-9
3349,147,34,1020,-15,-22,-11
3350,203,33,1009,-15,-1,-6
3351,104,26,997,-14,22,0
3352,-72,6,998,-17,31,3
3353,-189,-5,973,-12,18,0
3354,-179,9,980,-11,-8,-4
3355,-31,22,1010,-12,-29,-8
3356,120,34,1012,-14,-27,-11
3357,208,42,1001,-14,-6,-8
3358,124,29,1006,-19,20,0
3359,-32,8,1007,-16,30,4
3360,-173,-1,973,-14,22,3
3361,-193,7,971,-11,-1,-3
3362,-81,11,997,-10,-24,-9
3363,93,36,1014,-12,-28,-10
3364,197,42,1011,-15,-13,-10
3365,150,33,1010,-15,14,-4
3366,15,14,1006,-16,30,0
3367,-154,4,976,-13,26,2
3368,-202,-2,978,-12,2,-2
3369,-119,6,992,-13,-21,-7
3370,62,37,1008,-11,-30,-11
3371,185,42,1006,-13,-17,-11
3372,174,28,1002,-14,9,-5
3373,46,20,1009,-14,27,2
3374,-122,8,994,-16,28,4
3375,-200,-8,976,-12,10,0
3376,-153,7,972,-27,-18,-4
3377,28,33,1014,-17,-33,-10
3378,162,38,1019,-11,-20,-11
3379,197,32,1005,-22,2,-5
3380,89,29,989,-10,24,0
3381,-89,8,1001,-15,30,4
3382,-197,-7,984,-19,13,0
3383,-174,5,973,-9,-9,-4
3384,-8,22,1007,-13,-31,-10
3385,128,36,1014,-13,-24,-11
3386,209,43,1003,-11,-4,-7
3387,118,30,1005,-21,22,0
3388,-53,8,1008,-18,32,4
3389,-182,-4,969,-17,20,1
3390,-184,3,967,-13,-4,-2
3391,-58,10,1008,-11,-26,-8
3392,101,33,1018,-11,-27,-11
3393,207,46,1007,-14,-9,-7
3394,142,34,1005,-15,17,-1
3395,-7,11,1002,-15,31,1
3396,-167,1,979,-16,25,2
3397,-198,0,982,-11,2,-3
3398,-102,6,990,-10,-23,-7
3399,79,34,999,-10,-30,-10
3400,194,41,1013,-12,-14,-11
3401,167,32,1012,-16,13,-3
3402,27,21,1011,-19,29,2
3403,-136,7,977,-15,27,4
3404,-207,-4,975,-12,9,1
3405,-140,6,984,-13,-17,-6
3406,47,29,1018,-11,-30,-10
3407,174,37,1013,-11,-20,-9
3408,188,30,991,-13,6,-3
3409,70,26,1003,-15,27,0
3410,-110,9,1003,-15,31,4
3411,-205,-3,982,-13,12,-1
3412,-161,3,967,-13,-12,-6
3413,5,30,1006,-9,-29,-10
3414,145,35,1017,-16,-22,-11
3415,206,36,1012,-17,-1,-7
3416,103,28,993,-16,22,2
3417,-72,6,996,-17,32,4
3418,-193,-4,977,-15,16,0
3419,-186,8,975,-11,-8,-3
3420,-29,21,1012,-17,-29,-9
3421,116,30,1015,-14,-27,-11
3422,215,44,998,-13,-6,-8
3423,132,28,1010,-20,21,-1
3424,-37,8,1008,-16,31,3
3425,-172,-2,975,-15,21,0
3426,-196,4,971,-12,-1,-3
3427,-81,16,995,-9,-24,-7
3428,98,33,1015,-14,-29,-11
3429,201,43,1008,-15,-13,-9
3430,151,33,1009,-17,14,0
3431,10,12,1007,-17,30,3
3432,-155,3,977,-14,26,4
3433,-200,-4,975,-13,3,0
3434,-122,10,992,-11,-21,-7
3435,66,35,1009,-11,-30,-10
3436,189,44,1003,-15,-15,-9
3437,180,29,1003,-16,9,-3
3438,44,20,1010,-16,27,1
3439,-120,7,990,-16,29,3
3440,-201,-11,980,-15,10,0
3441,-153,6,968,-11,-16,-6
3442,28,33,1015,-11,-32,-10
3443,160,37,1019,-12,-22,-11
3444,195,32,1003,-15,3,-5
3445,91,29,991,-15,24,1
3446,-94,6,999,-16,30,4
3447,-198,-4,983,-13,14,0
3448,-177,3,976,-11,-10,-3
3449,-10,23,1008,-10,-30,-10
3450,131,33,1014,-11,-26,-11
3451,210,44,1001,-15,-5,-7
3452,115,32,1006,-18,21,1
3453,-52,5,1008,-17,32,4
3454,-185,-3,966,-15,19,2
3455,-189,5,969,-11,-4,-2
3456,-61,15,1010,-10,-25,-9
3457,105,34,1013,-12,-26,-10
3458,211,45,1008,-15,-10,-8
3459,143,34,1004,-16,17,-1
3460,-12,12,1000,-15,31,2
3461,-165,0,979,-14,26,1
3462,-200,0,982,-12,2,-1
3463,-98,11,990,-12,-25,-8
3464,82,32,1006,-12,-31,-11
3465,194,44,1009,-12,-15,-10
3466,166,31,1014,-17,13,-2
3467,27,19,1003,-16,29,2
3468,-141,4,982,-14,29,4
3469,-198,-5,973,-13,6,-1
3470,-145,4,980,-11,-16,-5
3471,48,33,1021,-11,-31,-10
3472,171,36,1014,-14,-20,-11
3473,190,36,993,-14,4,-5
3474,69,21,1002,-15,27,2
3475,-109,11,1003,-14,30,3
3476,-199,-7,983,-13,12,-1
3477,-166,6,965,-12,-11,-6
3478,7,27,1010,-10,-29,-9
3479,147,37,1018,-13,-22,-10
3480,200,35,1009,-15,-1,-5
3481,106,31,999,-15,23,1
3482,-73,6,1000,-16,33,4
3483,-191,-3,966,-13,18,1
3484,-183,7,979,-11,-8,-2
3485,-37,19,1012,-12,-29,-9
3486,116,33,1009,-13,-26,-10
3487,209,41,1002,-15,-8,-9
3488,129,33,1008,-17,19,-1
3489,-26,3,1007,-18,30,3
3490,-179,0,970,-14,22,2
3491,-192,4,978,-13,-1,-3
3492,-84,10,994,-10,-24,-9
3493,96,37,1010,-12,-29,-10
3494,201,41,1015,-16,-14,-10
3495,151,32,1011,-16,15,-3
3496,16,14,1001,-17,31,2
3497,-151,6,978,-15,27,3
3498,-204,0,971,-13,3,-1
3499,-124,1,991,-11,-22,-8
3500,64,36,1012,-11,-29,-10
3501,181,40,1002,-12,-17,-10
3502,181,31,1000,-13,7,-4
3503,49,22,1011,-16,28,2
3504,-119,10,993,-15,30,4
3505,-200,-8,984,-14,11,0
3506,-159,8,968,-12,-14,-5
3507,26,32,1010,-12,-31,-10
3508,159,34,1025,-15,-20,-11
3509,196,32,1002,-17,2,-5
3510,95,24,991,-15,24,0
3511,-89,9,999,-14,32,4
3512,-195,-4,982,-13,14,-1
3513,-177,7,979,-13,-9,-5
3514,-18,26,1006,-11,-30,-10
3515,131,34,1013,-12,-25,-11
3516,210,42,1001,-14,-5,-7
3517,119,30,1007,-18,20,0
3518,-45,6,1011,-16,33,3
3519,-182,-6,969,-13,21,2
3520,-185,6,969,-10,-4,-3
3521,-66,16,1005,-8,-24,-10
3522,100,36,1017,-11,-26,-11
3523,206,46,1010,-15,-11,-9
3524,146,33,1005,-15,16,-2
3525,-7,9,1002,-16,31,3
3526,-161,0,977,-15,26,2
3527,-200,-2,985,-13,2,-1
3528,-109,6,984,-11,-22,-6
3529,79,35,1009,-10,-30,-10
3530,191,42,1009,-14,-14,-10
3531,166,32,1008,-15,10,-3
3532,37,20,1013,-17,27,2
3533,-132,8,981,-16,29,4
3534,-200,-8,974,-11,8,-1
3535,-147,4,981,-11,-16,-6
3536,43,29,1019,-9,-31,-10
3537,171,40,1012,-12,-21,-11
3538,188,35,996,-15,5,-4
3539,80,26,999,-16,26,1
3540,-106,10,1003,-16,30,4
3541,-200,-4,983,-13,12,1
3542,-170,5,973,-12,-12,-5
3543,1,28,1005,-9,-29,-9
3544,140,35,1017,-14,-24,-11
3545,209,38,1008,-17,-3,-7
3546,110,30,1002,-15,23,1
3547,-67,8,997,-17,33,3
3548,-192,-3,969,-13,18,2
3549,-183,4,978,-11,-7,-4
3550,-42,19,1005,-11,-29,-9
3551,112,34,1016,-12,-27,-12
3552,213,49,1008,-15,-8,-8
3553,132,33,1003,-16,20,0
3554,-25,10,1008,-15,31,3
3555,-170,-4,976,-14,23,1
3556,-200,2,974,-11,1,-2
3557,-83,8,990,-9,-24,-8
3558,92,33,1016,-12,-30,-10
3559,197,46,1011,-13,-14,-9
3560,158,33,1010,-16,14,-4
3561,16,18,1013,-18,30,2
3562,-153,2,970,-14,27,4
3563,-202,-4,976,-11,4,-2
3564,-131,2,989,-12,-21,-7
3565,58,38,1013,-9,-30,-10
3566,185,38,1004,-16,-17,-10
3567,179,32,1001,-14,7,-4
3568,53,23,1007,-16,27,1
3569,-121,7,997,-16,30,3
3570,-200,-4,982,-13,9,-1
3571,-157,7,967,-12,-15,-4
3572,23,32,1010,-10,-31,-11
3573,151,36,1021,-14,-22,-11
3574,200,38,1008,-15,1,-7
3575,94,31,994,-14,25,0
3576,-85,7,993,-15,30,4
3577,-196,-4,979,-17,15,0
3578,-176,7,977,-12,-10,-3
3579,-18,23,1007,-12,-30,-9
3580,128,33,1013,-13,-24,-10
3581,213,42,996,-12,-5,-8
3582,118,31,1009,-16,21,1
3583,-45,3,1010,-16,32,3
3584,-180,-2,968,-12,19,2
3585,-189,7,968,-13,-4,-2
3586,-67,11,1006,-11,-26,-7
3587,100,30,1017,-13,-26,-10
3588,205,45,1006,-13,-12,-8
3589,149,32,1007,-16,15,-1
3590,0,9,1006,-17,32,3
3591,-158,1,974,-15,27,3
3592,-199,-1,987,-13,2,-1
3593,-110,11,989,-11,-22,-6
3594,76,33,1005,-9,-29,-9
3595,190,42,1009,-14,-14,-8
3596,168,29,1011,-17,10,-2
3597,40,19,1010,-14,27,2
3598,-133,5,983,-14,27,3
3599,-201,-2,977,-12,8,-2
3600,-144,6,977,-11,-16,-7
3601,37,37,1017,-11,-31,-9
3602,167,39,1015,-13,-21,-11
3603,191,30,996,-14,3,-4
3604,73,27,994,-16,27,1
3605,-101,9,1001,-15,30,5
3606,-204,-8,985,-15,12,-1
3607,-167,11,971,-11,-12,-6
3608,2,27,1006,-9,-29,-9
3609,135,38,1014,-15,-22,-11
3610,205,36,1010,-15,-3,-7
3611,108,29,998,-18,21,0
3612,-66,6,1003,-17,31,5
3613,-184,-6,969,-13,19,0
3614,-186,3,974,-11,-5,-4
3615,-44,17,1010,-10,-29,-10
3616,115,32,1018,-11,-26,-10
3617,213,41,1002,-15,-8,-7
3618,138,35,1005,-15,19,0
3619,-25,10,1012,-16,30,4
3620,-169,-3,971,-15,23,1
3621,-195,2,980,-13,-1,-4
3622,-87,5,989,-11,-25,-8
3623,93,34,1011,-11,-30,-11
3624,201,42,1009,-12,-14,-10
3625,155,38,1013,-17,15,-1
3626,23,15,1006,-18,29,3
3627,-150,5,976,-15,27,5
3628,-195,-3,971,-12,3,-1
3629,-132,4,993,-10,-19,-6
3630,63,35,1010,-11,-30,-10
3631,181,38,1004,-11,-17,-11
3632,185,34,1002,-14,7,-3
3633,55,24,1008,-18,29,2
3634,-118,9,996,-15,29,3
3635,-202,-7,982,-15,11,1
3636,-156,7,969,-11,-14,-6
3637,18,28,1007,-10,-30,-9
3638,158,40,1026,-13,-22,-10
3639,195,30,1004,-17,1,-6
3640,93,31,992,-14,24,-1
3641,-83,6,999,-17,31,4
3642,-201,-4,977,-14,16,1
3643,-175,5,978,-11,-9,-4
3644,-21,23,1011,-9,-29,-9
3645,123,37,1010,-10,-25,-11
3646,214,41,1003,-13,-6,-8
3647,119,30,1006,-15,21,0
3648,-43,7,1010,-15,31,4
3649,-183,-4,968,-13,20,2
3650,-191,5,968,-12,-3,-2
3651,-69,11,1005,-13,-25,-8
3652,107,31,1016,-12,-28,-11
3653,204,44,1006,-13,-12,-9
3654,150,33,1006,-15,15,-2
3655,0,11,1004,-17,31,2
3656,-165,5,975,-16,25,4
3657,-198,0,982,-14,2,-2
3658,-110,4,995,-11,-22,-8
3659,79,36,1000,-12,-29,-11
3660,196,40,1012,-14,-14,-11
3661,174,34,1009,-17,11,-3
3662,36,16,1008,-17,28,1
3663,-134,10,986,-14,29,4
3664,-204,-4,975,-13,8,-1
3665,-144,5,980,-11,-18,-7
3666,39,34,1019,-11,-31,-9
3667,172,41,1011,-14,-21,-11
3668,193,26,999,-15,6,-5
3669,72,27,994,-15,27,2
3670,-105,9,1002,-16,31,4
3671,-202,-5,987,-15,12,0
3672,-170,9,967,-10,-12,-3
3673,5,29,1005,-11,-31,-10
3674,139,36,1023,-15,-22,-10
3675,204,37,1003,-14,-2,-5
3676,108,28,1004,-17,21,0
3677,-68,3,999,-16,31,4
3678,-191,-1,971,-13,18,1
3679,-184,7,977,-12,-8,-4
3680,-42,21,1011,-9,-29,-8
3681,118,36,1012,-13,-26,-11
3682,212,44,1004,-15,-6,-8
3683,132,34,1006,-16,20,-1
3684,-28,8,1009,-16,31,4
3685,-174,2,974,-14,22,2
3686,-200,0,971,-13,-1,-1
3687,-81,11,992,-11,-25,-8
3688,91,32,1015,-12,-30,-11
3689,203,45,1012,-11,-14,-10
3690,157,29,1008,-16,14,-3
3691,17,18,1009,-17,30,3
3692,-150,3,977,-14,27,3
3693,-202,-2,975,-12,4,-3
3694,-122,1,993,-13,-22,-8
3695,61,34,1004,-11,-30,-11
3696,187,42,1007,-13,-17,-10
3697,182,31,1002,-13,8,-4
3698,48,25,1012,-14,28,2
3699,-119,9,997,-16,30,3
3700,-206,-8,979,-11,11,0
3701,-152,5,967,-11,-16,-5
3702,26,31,1016,-10,-31,-9
3703,158,39,1019,-14,-21,-10
3704,201,34,1007,-15,3,-5
3705,87,25,989,-16,25,2
3706,-90,8,997,-16,31,3
3707,-198,-10,988,-15,14,0
3708,-177,9,968,-11,-9,-4
3709,-10,27,1010,-8,-29,-9
3710,132,35,1011,-1,-22,-11
3711,206,42,1001,-12,-4,-6
3712,120,30,1007,-16,21,0
3713,-52,4,1009,-16,32,4
3714,-183,-2,963,-12,19,0
3715,-190,7,972,-12,-5,-3
3716,-61,16,1008,-10,-26,-8
3717,105,34,1014,-11,-26,-11
3718,206,46,1010,-14,-9,-8
3719,143,36,1003,-15,15,0
3720,-10,12,1006,-17,30,3
3721,-167,-2,976,-15,24,2
3722,-201,-1,981,-12,1,-2
3723,-100,6,987,-10,-24,-8
3724,84,35,1008,-10,-29,-10
3725,196,46,1014,-13,-15,-9
3726,166,30,1010,-17,12,-4
3727,32,16,1014,-17,28,1
3728,-145,4,979,-14,27,4
3729,-202,-1,972,-12,6,-3
3730,-137,0,988,-13,-18,-8
3731,51,35,1015,-9,-30,-10
3732,183,40,1008,-14,-19,-11
3733,186,31,1000,-17,7,-4
3734,65,25,1002,-16,27,2
3735,-115,4,1001,-17,31,4
3736,-204,-5,981,-12,11,0
3737,-162,3,966,-11,-13,-6
3738,16,30,1009,-7,-30,-11
3739,151,39,1020,-12,-22,-11
3740,208,33,1012,-18,0,-7
3741,96,26,991,-16,23,2
3742,-84,6,996,-15,32,4
3743,-197,-6,984,-13,17,1
3744,-183,7,976,-11,-7,-2
3745,-23,20,1007,-11,-29,-9
3746,126,35,1014,-13,-25,-10
3747,211,44,999,-13,-5,-8
3748,126,34,1009,-15,21,0
3749,-46,9,1009,-17,32,3
3750,-183,0,968,-15,20,2
3751,-195,3,968,-13,-3,-2
3752,-69,10,1002,-14,-26,-8
3753,105,31,1018,-13,-28,-11
3754,207,46,1008,-15,-12,-10
3755,147,31,1006,-16,15,-2
3756,0,16,1004,-16,32,3
3757,-165,1,975,-17,27,3
3758,-202,0,984,-12,1,-2
3759,-110,5,987,-13,-23,-7
3760,77,32,1007,-11,-29,-11
3761,195,39,1007,-14,-14,-11
3762,169,34,1012,-16,11,-3
3763,39,21,1008,-15,28,3
3764,-139,8,989,-13,29,5
3765,-198,-5,968,-12,8,0
3766,-154,1,982,-12,-18,-5
3767,48,34,1021,-11,-33,-11
3768,174,37,1010,-15,-21,-11
3769,195,38,994,-15,3,-5
3770,74,25,1002,-16,28,1
3771,-107,12,1004,-16,33,3
3772,-204,-7,982,-14,13,1
3773,-168,4,969,-13,-13,-5
3774,8,23,1002,-10,-30,-10
3775,146,37,1020,-11,-22,-11
3776,209,38,1008,-15,-2,-6
3777,108,31,1002,-16,24,2
3778,-69,11,993,-15,31,5
3779,-194,-2,974,-15,18,1
3780,-185,5,980,-11,-6,-4
3781,-39,17,1010,-12,-29,-10
3782,120,34,1011,-13,-26,-11
3783,210,39,1004,-13,-6,-8
3784,132,32,1004,-15,20,-1
3785,-33,8,1011,-16,32,4
3786,-179,2,973,-13,22,2
3787,-194,5,965,-11,-2,-2
3788,-82,12,999,-11,-25,-8
3789,96,37,1015,-12,-29,-11
3790,205,42,1014,-14,-13,-11
3791,154,32,1004,-14,15,-2
3792,6,13,1006,-16,31,3
3793,-153,2,975,-14,26,3
3794,-201,-1,984,-14,2,-1
3795,-116,7,986,-11,-23,-7
3796,66,38,1005,-10,-30,-11
3797,189,39,1005,-15,-17,-9
3798,176,33,1009,-14,8,-4
3799,45,19,1009,-16,27,1
3800,-128,6,988,-15,30,3
3801,-202,-9,974,-14,11,-1
3802,-153,7,974,-12,-16,-6
3803,35,33,1020,-12,-33,-11
3804,168,40,1015,-15,-22,-12
3805,195,31,996,-16,4,-5
3806,80,26,996,-16,26,1
3807,-99,10,1009,-16,30,4
3808,-197,-8,982,-13,12,-1
3809,-172,5,968,-11,-11,-4
3810,0,27,1009,-10,-30,-10
3811,138,37,1018,-11,-24,-12
3812,208,40,1009,-14,-4,-8
3813,109,28,1003,-15,21,0
3814,-64,8,998,-15,32,3
3815,-192,-4,970,-15,19,1
3816,-188,7,977,-12,-6,-3
3817,-42,14,1008,-12,-31,-10
3818,115,36,1015,-12,-27,-12
3819,213,45,1001,-12,-6,-8
3820,132,34,1008,-18,19,-1
3821,-28,9,1009,-15,31,3
3822,-180,-3,973,-14,23,2
3823,-196,2,969,-15,0,-4
3824,-88,9,997,-12,-23,-6
3825,97,35,1011,-12,-30,-11
3826,203,43,1014,-13,-14,-9
3827,158,40,1006,-14,15,-2
3828,13,13,1006,-18,31,2
3829,-158,5,974,-14,27,4
3830,-207,-2,982,-13,3,0
3831,-124,4,988,-12,-21,-8
3832,66,32,1008,-9,-30,-10
3833,192,44,1004,-15,-17,-10
3834,179,31,1006,-16,8,-3
3835,49,23,1016,-17,27,1
3836,-129,9,990,-17,29,4
3837,-202,-6,975,-14,10,-1
3838,-158,-1,975,-11,-16,-5
3839,30,32,1013,-12,-32,-9
3840,170,36,1022,-12,-22,-12
3841,199,34,998,-14,5,-6
3842,84,28,994,-15,28,1
3843,-96,10,1004,-14,33,4
3844,-208,-8,983,-15,14,0
3845,-173,7,970,-11,-11,-5
3846,-7,22,1007,-11,-29,-9
3847,140,40,1014,-14,-24,-11
3848,210,37,1008,-15,-4,-7
3849,113,30,1002,-14,22,-1
3850,-62,10,1001,-17,33,4
3851,-195,-7,967,-14,20,1
3852,-189,6,976,-13,-6,-2
3853,-46,14,1009,-12,-28,-9
3854,113,35,1014,-13,-27,-11
3855,217,42,1003,-13,-7,-10
3856,136,36,1009,-15,21,-1
3857,-25,11,1007,-18,30,2
3858,-171,0,979,-16,23,1
3859,-204,1,971,-12,1,-1
3860,-92,10,987,-11,-23,-8
3861,93,33,1020,-12,-30,-10
3862,203,45,1008,-15,-14,-9
3863,160,33,1009,-16,15,-3
3864,19,16,1010,-14,31,2
3865,-157,6,975,-16,28,3
3866,-203,-4,980,-12,4,-2
3867,-132,4,992,-13,-22,-6
3868,62,38,1005,-13,-31,-11
3869,190,39,1011,-11,-17,-11
3870,182,32,1003,-16,8,-3
3871,52,20,1010,-16,27,2
3872,-124,8,993,-15,30,3
3873,-205,-7,974,-13,11,0
3874,-157,4,970,-10,-15,-7
3875,23,34,1018,-12,-31,-10
3876,165,38,1017,-14,-23,-11
3877,198,36,997,-14,3,-6
3878,88,28,995,-17,24,1
3879,-91,9,1003,-15,31,4
3880,-200,-11,988,-12,13,1
3881,-177,6,966,-13,-10,-3
3882,-10,26,1010,-10,-29,-10
3883,138,37,1016,-13,-25,-12
3884,206,39,1005,-15,-3,-6
3885,121,34,1005,-14,22,0
3886,-59,7,1005,-18,33,4
3887,-187,-4,965,-13,21,1
3888,-192,0,975,-12,-5,-3
3889,-52,16,1010,-10,-28,-9
3890,110,31,1014,-11,-27,-10
3891,217,46,1006,-13,-9,-9
3892,139,36,1005,-17,17,0
3893,-19,10,1009,-15,30,3
3894,-170,-1,974,-15,23,3
3895,-201,1,975,-12,1,-2
3896,-93,8,991,-10,-23,-8
3897,86,31,1012,-11,-30,-11
3898,200,44,1014,-15,-15,-10
3899,162,34,1013,-14,14,-2
3900,20,15,1003,-16,30,1
3901,-152,8,976,-14,27,3
3902,-204,-4,982,-12,5,-2
3903,-133,1,989,-11,-21,-8
3904,58,34,1006,-9,-31,-10
3905,192,39,1006,-13,-18,-11
3906,178,32,1003,-15,8,-4
3907,55,25,1012,-15,26,1
3908,-123,8,995,-16,30,3
3909,-206,-5,973,-12,10,0
3910,-158,7,975,-10,-15,-6
3911,26,28,1013,-11,-32,-8
3912,164,37,1018,-11,-22,-10
3913,202,35,1001,-14,3,-5
3914,90,30,993,-16,25,1
3915,-93,10,1001,-17,31,4
3916,-204,-7,987,-15,14,1
3917,-177,2,967,-12,-11,-4
3918,-10,22,1010,-10,-30,-9
3919,137,37,1014,-11,-25,-12
3920,208,36,1012,-15,-5,-7
3921,121,32,1000,-14,20,0
3922,-63,5,1001,-16,32,4
3923,-189,0,972,-12,19,1
3924,-193,5,971,-13,-5,-2
3925,-50,16,1011,-10,-29,-11
3926,113,29,1014,-10,-28,-11
3927,213,42,1005,-13,-9,-9
3928,143,33,1004,-16,18,0
3929,-23,9,1011,-14,30,3
3930,-174,2,974,-15,23,2
3931,-204,0,972,-13,1,-2
3932,-89,9,993,-11,-25,-8
3933,86,32,1012,-10,-30,-9
3934,206,47,1012,-15,-15,-10
3935,160,29,1013,-17,14,-2
3936,19,16,1005,-15,30,2
3937,-151,5,980,-15,27,2
3938,-207,-4,977,-11,5,-1
3939,-132,6,991,-13,-20,-7
3940,64,33,1005,-11,-31,-10
3941,187,41,1006,-14,-16,-11
3942,185,36,1005,-16,8,-4
3943,46,22,1012,-16,27,1
3944,-123,16,994,-14,29,3
3945,-202,-14,972,-13,9,0
3946,-164,8,972,-8,-16,-6
3947,28,29,1018,-12,-32,-10
3948,168,39,1020,-12,-23,-12
3949,197,33,994,-14,3,-4
3950,92,32,998,-16,25,0
3951,-98,8,1003,-16,32,5
3952,-200,-5,984,-12,14,1
3953,-178,5,970,-12,-10,-4
3954,-6,26,1005,-10,-30,-10
3955,138,34,1017,-12,-25,-11
3956,208,40,1007,-15,-3,-7
3957,119,30,1004,-15,21,0
3958,-58,5,1003,-15,31,3
3959,-192,-2,970,-14,19,2
3960,-190,2,974,-10,-6,-3
3961,-53,18,1009,-11,-29,-8
3962,111,32,1011,-13,-27,-11
3963,214,45,1007,-13,-7,-9
3964,141,36,1003,-18,19,0
3965,-21,10,1011,-15,30,3
3966,-173,-4,976,-13,24,1
3967,-201,1,970,-13,1,-2
3968,-90,8,993,-9,-23,-8
3969,90,32,1014,-13,-30,-11
3970,202,46,1013,-13,-14,-8
3971,161,37,1008,-16,13,-2
3972,14,13,1007,-18,31,2
3973,-152,4,974,-15,28,2
3974,-206,-2,981,-14,4,-1
3975,-130,5,986,-11,-20,-7
3976,62,35,1007,-10,-30,-10
3977,193,44,1006,-12,-17,-10
3978,177,31,1008,-15,8,-3
3979,53,27,1013,-14,26,2
3980,-128,8,990,-16,30,3
3981,-205,-6,972,-14,10,0
3982,-156,0,977,-13,-16,-6
3983,29,33,1019,-12,-31,-9
3984,171,39,1013,-14,-22,-11
3985,196,34,1001,-14,3,-5
3986,87,30,994,-15,27,2
3987,-99,12,1005,-17,32,4
3988,-200,-8,985,-15,13,-1
3989,-179,0,968,-13,-12,-5
3990,0,26,1004,-10,-30,-10
3991,141,35,1022,-13,-24,-11
3992,209,39,1009,-15,-3,-5
3993,114,29,1000,-16,22,2
3994,-62,8,998,-17,33,5
3995,-195,-8,974,-13,19,2
3996,-185,9,977,-11,-7,-3
3997,-45,14,1011,-14,-29,-7
3998,119,37,1009,-11,-28,-12
3999,214,35,1005,-14,-7,-8
4000,138,38,1004,-17,20,-1
4001,-27,7,1015,-18,32,4
4002,-176,0,972,-13,23,2
4003,-200,2,968,-12,0,-1
4004,-86,13,996,-11,-24,-9
4005,89,30,1018,-13,-28,-11
4006,208,45,1010,-14,-13,-9
4007,157,34,1007,-14,15,-2
4008,17,16,1006,-15,31,1
4009,-158,7,977,-15,27,3
4010,-205,-1,982,-14,4,-1
4011,-126,1,988,-12,-22,-8
4012,64,32,1002,-9,-30,-10
4013,195,41,1010,-13,-18,-11
4014,177,32,1009,-15,8,-4
4015,50,23,1010,-15,27,1
4016,-126,9,988,-16,29,3
4017,-209,-8,970,-14,9,1
4018,-155,2,980,-10,-17,-6
4019,31,29,1020,-11,-32,-10
4020,170,40,1011,-13,-21,-10
4021,201,31,999,-15,3,-5
4022,82,29,998,-15,26,1
4023,-101,11,1009,-16,31,3
4024,-201,-5,982,-14,13,1
4025,-176,4,963,-12,-11,-4
4026,1,26,1005,-11,-29,-10
4027,139,37,1025,-14,-23,-11
4028,210,32,1008,-16,-4,-7
4029,114,25,997,-15,22,-1
4030,-65,6,997,-16,32,5
4031,-193,-9,974,-13,19,1
4032,-186,11,978,-11,-7,-4
4033,-43,18,1008,-12,-29,-9
4034,118,37,1011,-12,-26,-12
4035,214,42,1003,-15,-6,-8
4036,135,33,1005,-17,20,1
4037,-29,5,1015,-17,31,4
4038,-173,-4,972,-13,22,2
4039,-197,3,966,-11,-1,-1
4040,-79,15,999,-10,-24,-8
4041,88,35,1016,-12,-28,-11
4042,206,49,1008,-12,-13,-10
4043,153,36,1008,-16,15,0
4044,8,16,1006,-16,31,3
4045,-156,1,978,-15,27,3
4046,-205,-5,986,-12,3,-1
4047,-118,3,986,-11,-22,-7
4048,65,33,1003,-11,-30,-10
4049,194,41,1008,-14,-16,-11
4050,171,35,1013,-15,11,-3
4051,45,24,1006,-15,28,2
4052,-131,8,987,-19,31,4
4053,-204,-5,973,-15,8,1
4054,-152,1,976,-6,-16,-7
4055,35,30,1021,-13,-31,-10
4056,168,39,1010,-16,-21,-10
4057,198,32,996,-11,4,-5
4058,77,24,1000,-21,25,2
4059,-103,14,1002,-15,32,3
4060,-202,-10,983,-13,13,0
4061,-176,5,967,-12,-12,-4
4062,0,25,1002,-7,-29,-10
4063,141,37,1025,-15,-23,-12
4064,209,32,1008,-14,-2,-8
4065,112,32,998,-15,23,0
4066,-69,6,997,-18,31,4
4067,-197,-4,977,-12,19,1
4068,-186,5,976,-14,-8,-4
4069,-40,16,1009,-13,-29,-8
4070,122,36,1012,-12,-27,-12
4071,217,41,1004,-15,-8,-9
4072,132,32,1003,-15,19,-1
4073,-34,8,1018,-17,32,3
4074,-181,-3,970,-15,22,1
4075,-197,2,968,-10,-1,-2
4076,-77,12,1003,-11,-26,-7
4077,93,37,1017,-13,-27,-11
4078,211,46,1011,-14,-13,-10
4079,155,35,1007,-15,15,-1
4080,2,14,1000,-16,31,3
4081,-160,1,983,-14,27,2
4082,-204,-2,981,-12,3,-1
4083,-117,8,982,-12,-23,-7
4084,73,30,1009,-12,-31,-10
4085,193,44,1009,-13,-17,-10
4086,175,36,1011,-16,10,-4
4087,37,17,1010,-17,28,2
4088,-136,12,985,-15,28,5
4089,-202,-11,968,-15,9,-1
4090,-152,5,984,-10,-18,-6
4091,41,33,1020,-12,-31,-11
4092,171,41,1008,-12,-20,-11
4093,196,29,996,-16,5,-3
4094,75,30,1007,-16,27,2
4095,-105,11,1001,-15,31,4
4096,-204,-9,982,-16,12,0
4097,-172,5,967,-12,-14,-4
4098,6,26,1003,-10,-30,-10
4099,148,34,1022,-12,-23,-12
4100,206,37,1011,-16,-1,-6
4101,110,27,995,-15,22,0
4102,-73,9,993,-16,32,4
4103,-196,-3,980,-15,19,0
4104,-186,5,978,-11,-8,-5
4105,-33,19,1009,-11,-31,-10
4106,121,36,1011,-11,-27,-11
4107,215,43,1002,-13,-6,-8
4108,134,32,1003,-14,21,-1
4109,-38,9,1013,-16,32,4
4110,-177,-1,969,-16,23,1
4111,-198,1,965,-11,-1,-2
4112,-76,17,1000,-10,-27,-8
4113,98,30,1023,-14,-29,-11
4114,211,46,1012,-13,-13,-9
4115,154,35,1004,-16,16,-1
4116,2,14,1003,-15,31,2
4117,-165,2,979,-15,26,3
4118,-208,-2,978,-12,3,-1
4119,-114,6,986,-10,-24,-7
4120,78,35,1006,-10,-31,-10
4121,197,45,1011,-12,-15,-11
4122,173,33,1015,-14,12,-4
4123,34,18,1009,-17,29,2
4124,-139,9,980,-16,30,4
4125,-205,-8,975,-14,8,0
4126,-150,5,982,-12,-18,-5
4127,49,32,1019,-12,-32,-10
4128,179,42,1007,-12,-21,-10
4129,192,32,997,-15,5,-5
4130,73,27,1006,-15,27,1
4131,-116,6,1002,-16,32,5
4132,-204,-5,981,-13,11,0
4133,-173,2,964,-11,-13,-5
4134,11,32,1008,-9,-32,-10
4135,154,38,1023,-13,-24,-11
4136,208,33,1008,-18,-1,-7
4137,105,31,993,-16,24,1
4138,-78,8,999,-16,32,4
4139,-202,-2,980,-15,17,-1
4140,-186,6,975,-12,-8,-5
4141,-29,23,1008,-11,-30,-10
4142,128,35,1013,-11,-26,-12
4143,216,42,1001,-14,-5,-7
4144,130,30,1010,-17,22,-1
4145,-40,4,1009,-16,32,5
4146,-185,-4,967,-14,22,3
4147,-196,7,966,-13,-2,-2
4148,-72,15,1009,-11,-27,-9
4149,102,37,1015,-11,-28,-11
4150,214,45,1009,-14,-11,-8
4151,153,34,1006,-18,16,-2
4152,-3,9,1004,-16,31,3
4153,-164,-1,979,-14,26,2
4154,-206,0,979,-11,2,0
4155,-110,9,989,-12,-22,-8
4156,80,35,1007,-12,-30,-9
4157,198,48,1010,-14,-15,-10
4158,172,37,1016,-17,12,-3
4159,31,17,1009,-19,29,3
4160,-144,6,979,-15,29,3
4161,-204,-8,972,-14,7,-1
4162,-144,6,989,-11,-19,-7
4163,53,34,1010,-12,-31,-9
4164,182,43,1011,-14,-20,-12
4165,191,30,998,-15,5,-5
4166,64,27,1004,-14,27,0
4167,-113,7,999,-18,31,4
4168,-205,-6,982,-15,11,1
4169,-165,1,965,-10,-14,-6
4170,11,25,1010,-11,-31,-9
4171,158,36,1020,-13,-23,-11
4172,202,33,1006,-16,1,-5
4173,101,33,993,-17,24,1
4174,-85,9,1000,-15,33,4
4175,-199,-7,986,-13,18,1
4176,-187,5,972,-12,-8,-4
4177,-19,21,1011,-12,-31,-10
4178,131,31,1011,-15,-26,-11
4179,213,45,1005,-15,-5,-7
4180,128,30,1007,-15,21,-1
4181,-47,7,1008,-17,32,3
4182,-186,-4,965,-13,20,3
4183,-195,4,970,-12,-4,-3
4184,-65,14,1008,-12,-28,-8
4185,105,34,1015,-10,-28,-11
4186,215,45,1007,-14,-11,-9
4187,147,33,1002,-17,18,-1
4188,-7,14,1007,-16,32,3
4189,-168,-1,979,-16,25,3
4190,-205,2,974,-13,2,-2
4191,-105,7,990,-11,-23,-7
4192,79,34,1008,-13,-30,-10
4193,199,45,1016,-15,-15,-9
4194,167,33,1008,-16,14,-1
4195,29,17,1010,-17,30,2
4196,-142,4,978,-16,28,5
4197,-210,-4,973,-13,7,-2
4198,-142,2,991,-10,-18,-7
4199,49,36,1011,-11,-31,-9
4200,183,41,1006,-15,-19,-10
4201,188,33,999,-14,6,-5
4202,59,23,1013,-15,28,1
4203,-118,10,998,-15,31,4
4204,-203,-9,976,-14,11,0
4205,-165,5,972,-10,-14,-6
4206,20,32,1010,-11,-32,-10
4207,157,36,1022,-12,-22,-12
4208,206,35,1004,-15,2,-6
4209,95,29,992,-14,26,2
4210,-84,9,996,-16,31,3
4211,-197,-7,988,-15,15,1
4212,-184,7,970,-11,-9,-4
4213,-13,21,1003,-11,-30,-9
4214,133,38,1019,-12,-25,-11
4215,213,41,999,-15,-5,-8
4216,127,33,1010,-17,21,0
4217,-52,7,1004,-17,32,6
4218,-188,-4,966,-13,21,2
4219,-190,2,971,-11,-5,-4
4220,-61,12,1010,-10,-28,-8
4221,111,36,1016,-10,-28,-11
4222,213,44,1005,-14,-9,-9
4223,145,37,1004,-17,17,-1
4224,-14,8,1009,-17,31,4
4225,-175,1,974,-16,24,3
4226,-203,-1,973,-12,1,-3
4227,-99,9,992,-11,-24,-7
4228,86,35,1007,-12,-32,-11
4229,204,43,1018,-15,-14,-10
4230,164,33,1008,-18,13,-2
4231,21,18,1009,-17,29,2
4232,-147,4,978,-15,27,4
4233,-209,-4,977,-11,5,-1
4234,-129,4,987,-10,-20,-6
4235,52,33,1009,-11,-30,-10
4236,189,42,1008,-14,-19,-12
4237,183,31,1001,-15,6,-4
4238,57,25,1011,-16,26,0
4239,-120,10,997,-16,30,2
4240,-206,-5,975,-14,11,-1
4241,-159,3,967,-11,-15,-6
4242,24,26,1018,-11,-31,-9
4243,164,40,1020,-13,-23,-10
4244,200,31,999,-15,2,-6
4245,94,33,996,-16,24,1
4246,-94,7,999,-16,32,4
4247,-198,-4,987,-14,15,-2
4248,-180,2,969,-14,-10,-3
4249,-11,26,1006,-10,-30,-8
4250,137,35,1018,-14,-25,-11
4251,208,38,1006,-14,-4,-7
4252,126,30,1006,-16,21,0
4253,-58,7,1006,-16,31,3
4254,-190,0,966,-13,19,1
4255,-190,1,976,-11,-5,-3
4256,-54,19,1010,-10,-28,-9
4257,112,36,1012,-13,-28,-11
4258,216,42,1010,-14,-8,-9
4259,140,33,1003,-15,18,-1
4260,-18,10,1006,-15,31,2
4261,-173,-2,979,-14,25,3
4262,-203,0,970,-13,1,-1
4263,-90,11,992,-9,-24,-7
4264,87,34,1010,-11,-28,-9
4265,204,44,1013,-16,-14,-10
4266,161,36,1011,-14,13,-3
4267,14,16,1007,-17,30,2
4268,-150,6,974,-14,27,3
4269,-209,-3,981,-10,3,-2
4270,-132,5,986,-11,-22,-7
4271,60,31,1006,-10,-30,-11
4272,191,41,1006,-14,-17,-12
4273,183,32,1005,-15,9,-3
4274,52,25,1012,-16,28,1
4275,-124,9,990,-16,29,3
4276,-206,-5,973,-11,10,-1
4277,-156,3,974,-11,-16,-5
4278,29,29,1016,-11,-33,-10
4279,167,39,1018,-12,-22,-11
4280,201,32,995,-16,3,-5
4281,87,30,997,-16,25,1
4282,-96,6,1002,-16,31,5
4283,-202,-6,985,-14,14,1
4284,-176,2,968,-10,-11,-5
4285,-1,28,1007,-11,-31,-10
4286,138,33,1017,-14,-25,-12
4287,210,42,1012,-13,-4,-7
4288,119,27,1002,-17,22,1
4289,-64,6,998,-16,33,3
4290,-190,-4,973,-14,19,2
4291,-190,3,973,-12,-6,-3
4292,-47,18,1009,-10,-28,-8
4293,114,35,1015,-14,-27,-11
4294,213,46,1003,-13,-7,-8
4295,137,33,1004,-18,19,-1
4296,-28,9,1011,-17,31,3
4297,-174,-4,976,-15,23,3
4298,-202,2,969,-12,-1,-2
4299,-87,8,995,-8,-25,-8
4300,89,37,1015,-11,-30,-10
4301,205,47,1013,-14,-14,-10
4302,159,34,1006,-16,14,-2
4303,14,16,1008,-14,30,2
4304,-152,3,975,-14,27,3
4305,-208,-3,980,-13,4,-1
4306,-124,6,991,-13,-22,-8
4307,65,28,1004,-12,-30,-11
4308,187,43,1007,-12,-18,-11
4309,182,35,1009,-15,9,-4
4310,45,24,1012,-15,28,2
4311,-123,8,988,-16,29,4
4312,-204,-8,976,-13,10,-1
4313,-155,3,973,-11,-15,-5
4314,31,29,1020,-11,-32,-11
4315,172,39,1020,-13,-23,-11
4316,197,31,994,-16,3,-5
4317,88,33,1000,-13,26,0
4318,-100,10,1005,-18,32,4
4319,-204,-6,982,-14,14,0
4320,-175,3,968,-13,-11,-4
4321,-4,24,1006,-10,-30,-9
4322,143,34,1016,-13,-25,-13
4323,212,40,1010,-14,-4,-6
4324,117,30,1000,-17,22,1
4325,-63,7,998,-14,34,5
4326,-196,-4,972,-15,19,1
4327,-193,1,975,-12,-7,-4
4328,-42,15,1012,-10,-30,-10
4329,116,33,1010,-12,-28,-11
4330,216,45,1003,-12,-7,-8
4331,141,34,1007,-18,20,-1
4332,-29,10,1007,-16,32,3
4333,-177,-2,976,-15,24,2
4334,-200,-2,967,-13,-1,-2
4335,-89,8,992,-11,-24,-7
4336,94,34,1017,-11,-29,-11
4337,205,48,1017,-14,-15,-9
4338,161,36,1003,-15,14,-3
4339,8,15,1005,-15,32,2
4340,-159,5,979,-15,28,3
4341,-208,-6,978,-13,4,-2
4342,-122,6,988,-12,-22,-7
4343,64,30,1005,-11,-31,-10
4344,193,41,1010,-13,-18,-11
4345,181,33,1009,-17,9,-4
4346,46,22,1011,-15,28,2
4347,-129,12,990,-16,30,3
4348,-203,-9,972,-12,10,-1
4349,-159,3,975,-11,-16,-6
4350,35,33,1021,-11,-32,-10
4351,171,39,1013,-13,-22,-10
4352,195,34,994,-16,4,-3
4353,84,26,998,-16,27,3
4354,-103,7,1005,-16,32,5
4355,-203,-8,979,-13,12,0
4356,-175,4,970,-11,-13,-4
4357,3,28,1006,-10,-31,-11
4358,143,37,1015,-13,-25,-11
4359,209,39,1014,-14,-4,-7
4360,114,29,999,-17,23,1
4361,-68,8,998,-16,33,5
4362,-194,-7,971,-14,18,1
4363,-192,4,978,-12,-7,-3
4364,-42,17,1010,-10,-30,-10
4365,118,30,1012,-11,-28,-12
4366,213,44,1002,-15,-7,-8
4367,138,34,1005,-16,19,-1
4368,-30,8,1015,-15,31,4
4369,-178,-1,969,-15,22,3
4370,-198,3,968,-11,-1,-2
4371,-82,11,998,-10,-24,-8
4372,94,33,1016,-12,-29,-11
4373,207,44,1013,-15,-13,-10
4374,155,32,1003,-16,15,-1
4375,10,13,1010,-16,31,2
4376,-155,4,977,-15,27,3
4377,-207,0,980,-14,4,-1
4378,-116,5,989,-12,-22,-8
4379,62,35,1002,-12,-31,-11
4380,196,41,1008,-13,-18,-12
4381,174,30,1012,-17,8,-3
4382,45,21,1008,-15,27,1
4383,-129,9,991,-15,29,3
4384,-203,-6,970,-13,10,-1
4385,-154,4,978,-11,-15,-5
4386,38,34,1019,-11,-31,-10
4387,166,38,1013,-12,-22,-11
4388,197,32,995,-13,3,-6
4389,81,26,996,-16,27,1
4390,-100,9,1005,-16,30,3
4391,-200,-11,982,-31,11,0
4392,-176,3,967,-14,-9,-4
4393,-1,26,1003,-15,-31,-9
4394,139,38,1022,-9,-24,-11
4395,207,40,1010,-18,-4,-7
4396,113,31,1000,-18,21,0
4397,-66,8,997,-13,33,4
4398,-191,-6,975,-17,19,2
4399,-184,6,978,-10,-5,-4
4400,-46,16,1010,-11,-28,-9
4401,117,33,1011,-13,-27,-12
4402,211,42,1004,-12,-8,-9
4403,135,37,1003,-18,18,-1
4404,-28,8,1012,-17,30,4
4405,-174,-1,970,-13,22,2
4406,-197,0,968,-14,-1,-2
4407,-80,11,998,-10,-24,-8
4408,89,33,1017,-12,-29,-10
4409,205,47,1009,-14,-14,-11
4410,154,34,1009,-15,14,-2
4411,9,15,1002,-17,30,2
4412,-158,2,981,-17,26,3
4413,-202,-2,982,-13,2,-1
4414,-125,4,987,-10,-23,-7
4415,71,34,1005,-9,-31,-12
4416,190,43,1007,-12,-16,-10
4417,174,33,1007,-16,9,-3
4418,43,19,1013,-17,28,2
4419,-128,9,985,-15,29,3
4420,-204,-8,974,-14,9,0
4421,-153,5,975,-10,-17,-5
4422,34,27,1019,-12,-31,-9
4423,171,40,1015,-14,-22,-9
4424,194,35,994,-14,3,-5
4425,86,28,1001,-16,25,1
4426,-106,10,1004,-16,31,6
4427,-200,-1,982,-15,12,0
4428,-175,0,968,-14,-11,-4
4429,0,27,1003,-9,-29,-9
4430,141,33,1018,-11,-25,-11
4431,209,36,1011,-15,-3,-8
4432,113,30,998,-14,23,1
4433,-68,9,997,-16,33,3
4434,-192,-4,976,-15,19,2
4435,-191,6,972,-11,-6,-2
4436,-43,21,1009,-11,-29,-9
4437,116,31,1013,-12,-28,-11
4438,214,43,1001,-13,-8,-9
4439,137,32,1005,-17,20,-2
4440,-29,9,1014,-17,32,3
4441,-175,-1,973,-16,21,1
4442,-197,3,967,-11,0,-2
4443,-82,9,998,-11,-25,-8
4444,93,36,1018,-13,-29,-10
4445,210,45,1011,-13,-13,-10
4446,155,33,1006,-14,15,-2
4447,7,15,1005,-18,32,2
4448,-152,1,977,-16,27,1
4449,-206,-3,981,-13,3,-2
4450,-124,7,986,-10,-22,-7
4451,68,34,1008,-11,-31,-11
4452,193,45,1005,-11,-17,-11
4453,175,33,1011,-15,9,-2
4454,47,23,1014,-16,27,1
4455,-131,7,986,-16,28,3
4456,-199,-8,974,-13,10,-1
4457,-156,3,979,-11,-16,-5
4458,38,30,1014,-9,-32,-10
4459,168,38,1020,-11,-21,-11
4460,195,34,995,-15,4,-5
4461,80,28,1000,-16,25,2
4462,-101,11,1001,-15,30,4
4463,-205,-7,984,-13,13,1
4464,-169,5,970,-11,-11,-5
4465,-3,26,1005,-10,-30,-8
4466,139,38,1014,-13,-25,-11
4467,202,35,1010,-14,-3,-6
4468,112,31,1001,-17,21,0
4469,-65,7,997,-16,32,4
4470,-190,-2,972,-14,20,1
4471,-185,5,975,-10,-5,-2
4472,-46,21,1007,-11,-27,-8
4473,116,32,1018,-14,-26,-12
4474,209,46,1002,-12,-7,-9
4475,136,32,1003,-17,18,-1
4476,-28,6,1012,-18,29,4
4477,-175,-2,972,-14,23,4
4478,-196,0,972,-13,-1,-1
4479,-87,10,992,-11,-24,-7
4480,90,36,1018,-10,-29,-11
4481,204,47,1010,-14,-16,-9
4482,155,34,1012,-16,14,-2
4483,15,17,1005,-17,31,3
4484,-151,3,978,-16,26,3
4485,-204,-1,976,-11,3,0
4486,-122,4,993,-11,-22,-7
4487,66,34,1007,-13,-31,-11
4488,186,42,1001,-14,-17,-11
4489,179,32,1009,-15,8,-4
4490,45,22,1012,-15,27,1
4491,-122,10,990,-15,30,2
4492,-205,-6,975,-14,10,-1
4493,-154,5,974,-11,-16,-6
4494,28,33,1013,-9,-32,-10
4495,164,41,1019,-12,-22,-11
4496,198,30,1002,-15,2,-5
4497,86,30,993,-16,25,1
4498,-94,6,1001,-15,31,4
4499,-196,-5,988,-13,15,-1
4500,-176,7,967,-12,-9,-4
4501,-8,25,1008,-11,-30,-9
4502,133,34,1019,-15,-25,-10
4503,206,41,1007,-14,-5,-7
4504,118,29,1003,-16,20,0
4505,-58,8,1005,-17,33,4
4506,-183,-4,970,-14,19,2
4507,-192,4,971,-13,-5,-2
4508,-50,17,1010,-11,-27,-9
4509,113,33,1017,-11,-26,-11
4510,210,46,1004,-15,-8,-9
4511,138,33,1001,-16,18,-1
4512,-16,8,1013,-16,31,3
4513,-173,0,973,-15,23,4
4514,-199,-1,976,-13,1,-2
4515,-92,8,992,-10,-24,-7
4516,88,31,1008,-12,-30,-10
4517,198,42,1013,-13,-14,-10
4518,161,32,1014,-16,13,-2
4519,20,18,1006,-16,28,3
4520,-145,2,979,-13,27,3
4521,-203,0,975,-13,6,-1
4522,-132,1,987,-14,-21,-7
4523,59,34,1017,-13,-30,-11
4524,185,39,1002,-13,-18,-10
4525,185,31,1002,-14,5,-3
4526,58,25,1009,-15,27,0
4527,-123,10,1001,-16,32,5
4528,-199,-4,973,-14,10,0
4529,-163,3,976,-12,-14,-6
4530,22,33,1005,-11,-32,-9
4531,156,36,1023,-14,-22,-11
4532,202,34,1003,-16,2,-6
4533,92,32,993,-17,24,1
4534,-86,10,996,-15,31,3
4535,-203,-7,983,-15,16,0
4536,-180,3,973,-13,-9,-5
4537,-16,20,1010,-12,-29,-8
4538,130,35,1013,-13,-26,-11
4539,210,41,1002,-12,-6,-7
4540,120,28,1006,-15,21,0
4541,-51,6,1008,-18,32,4
4542,-189,-2,968,-12,19,2
4543,-189,5,968,-12,-5,-3
4544,-64,11,1008,-13,-27,-9
4545,107,35,1019,-12,-27,-11
4546,207,41,1007,-15,-10,-8
