sequence,AccelerometerX,AccelerometerY,AccelerometerZ,GyroscopeX,GyroscopeY,GyroscopeZ
0,-120,-14,994,-22,-9,-5
1,12,-45,1013,-18,-26,-12
2,115,-50,1000,-16,-18,-12
3,145,-29,1011,-9,3,-7
4,45,-7,1006,-13,23,-1
5,-77,2,1005,-19,14,-4
6,-162,10,968,-18,11,-1
7,-128,-7,1001,-21,-10,-7
8,-11,-44,1003,-19,-26,-10
9,107,-45,1001,-14,-22,-11
10,150,-40,1006,-12,-4,-10
11,56,-8,1013,-10,22,-2
12,-56,5,999,-14,27,0
13,-161,12,976,-18,16,0
14,-135,-7,990,-20,-7,-6
15,-33,-39,999,-22,-24,-13
16,99,-46,1009,-16,-23,-11
17,148,-41,1001,-11,-7,-9
18,75,-18,1009,-10,18,-3
19,-44,12,1004,-11,27,-1
20,-154,16,981,-18,19,1
21,-142,-9,992,-19,-4,-5
22,-56,-37,989,-20,-23,-9
23,93,-42,1008,-18,-25,-12
24,150,-50,1010,-13,-9,-10
25,93,-21,998,-9,14,-3
26,-31,2,1001,-12,27,0
27,-143,21,995,-16,19,1
28,-149,-7,993,-21,-1,-3
29,-72,-26,982,-21,-21,-9
30,82,-43,1014,-16,-26,-12
31,138,-52,1011,-14,-10,-10
32,106,-29,1004,-10,14,-4
33,-12,1,996,-10,27,-2
34,-139,17,986,-16,23,3
35,-153,0,998,-19,0,-3
36,-85,-26,990,-21,-19,-8
37,67,-41,1004,-18,-27,-12
38,130,-51,1016,-14,-13,-12
39,121,-25,1002,-11,9,-4
40,5,-1,995,-12,26,-1
41,-126,14,990,-15,25,3
42,-165,0,991,-19,5,-3
43,-94,-18,990,-20,-17,-9
44,47,-43,1012,-17,-28,-12
45,125,-50,1005,-15,-15,-12
46,130,-27,1007,-11,5,-7
47,19,0,1000,-13,27,-2
48,-113,7,998,-14,26,1
49,-165,5,977,-18,8,-3
50,-107,-13,992,-21,-15,-7
51,30,-47,1010,-19,-29,-13
52,118,-50,1010,-14,-17,-12
53,140,-25,1007,-11,4,-6
54,34,-7,1000,-12,25,-3
55,-96,5,1002,-13,25,1
56,-165,8,968,-19,10,-1
57,-118,-12,998,-21,-10,-7
58,11,-47,1008,-19,-26,-11
59,112,-45,1001,-14,-20,-12
60,149,-33,1009,-10,-1,-7
61,44,-7,1005,-11,22,-1
62,-75,4,1002,-13,27,1
63,-164,10,971,-17,14,-1
64,-126,-10,998,-21,-9,-6
65,-9,-42,1002,-19,-27,-11
66,107,-48,999,-15,-23,-12
67,151,-37,1006,-11,-4,-10
68,59,-13,1016,-10,21,-2
69,-63,7,1002,-13,27,1
70,-157,11,974,-18,17,-1
71,-136,-9,993,-19,-7,-4
72,-32,-40,999,-18,-24,-10
73,105,-45,1008,-16,-24,-13
74,149,-43,1006,-12,-6,-10
75,73,-15,1003,-11,18,-3
76,-49,5,1009,-13,27,-1
77,-149,19,981,-17,19,1
78,-144,-9,991,-21,-3,-5
79,-50,-34,995,-21,-24,-10
80,93,-43,1011,-16,-26,-12
81,147,-47,1004,-14,-9,-11
82,85,-22,1005,-10,14,-3
83,-31,7,1001,-11,27,0
84,-145,16,989,-19,22,2
85,-148,-5,996,-20,-1,-4
86,-71,-34,982,-21,-22,-9
87,83,-38,1010,-18,-28,-11
88,143,-51,1011,-15,-11,-10
89,102,-28,1007,-11,12,-5
90,-10,1,989,-12,27,0
91,-142,18,992,-15,22,2
92,-155,-6,998,-21,0,-3
93,-81,-22,986,-22,-20,-8
94,69,-41,1007,-18,-28,-12
95,130,-51,1014,-15,-12,-12
96,121,-28,1004,-10,8,-5
97,3,1,990,-11,26,0
98,-127,15,992,-16,25,2
99,-160,2,992,-21,4,-3
100,-93,-18,988,-22,-19,-8
101,51,-43,1007,-20,-27,-13
102,125,-52,1010,-13,-14,-12
103,131,-30,1002,-10,7,-5
104,19,0,1001,-10,26,-1
105,-112,9,1002,-16,26,2
106,-166,3,974,-19,7,-3
107,-102,-14,994,-20,-15,-8
108,35,-43,1012,-18,-29,-12
109,119,-49,1004,-14,-18,-11
110,143,-30,1011,-11,4,-6
111,31,-6,1002,-12,25,-1
112,-98,9,995,-15,26,2
113,-171,6,974,-22,10,-1
114,-113,-12,991,-22,-13,-8
115,15,-48,1011,-20,-27,-12
116,116,-47,1003,-15,-18,-13
117,148,-31,1011,-11,2,-8
118,38,-6,1006,-12,24,0
119,-86,7,1000,-14,27,1
120,-161,9,971,-21,13,-2
121,-127,-11,998,-23,-11,-5
122,-4,-46,1003,-21,-27,-11
123,111,-51,1003,-15,-21,-12
124,146,-34,1002,-11,-3,-8
125,56,-10,1015,-12,21,-3
126,-62,6,1002,-16,27,-1
127,-167,15,970,-19,16,0
128,-132,-9,996,-21,-7,-6
129,-28,-44,1001,-21,-26,-11
130,103,-44,1001,-16,-23,-13
131,149,-46,1009,-13,-5,-10
132,69,-11,1008,-7,19,-2
133,-47,7,1006,-12,27,1
134,-157,14,976,-21,18,0
135,-140,-9,994,-21,-4,-7
136,-49,-40,993,-21,-22,-10
137,95,-42,1014,-15,-23,-11
138,152,-48,1004,-12,-7,-10
139,83,-21,1002,-10,16,-3
140,-30,5,1001,-14,26,-2
141,-150,18,992,-19,21,1
142,-146,-7,991,-21,-2,-4
143,-69,-34,990,-22,-23,-9
144,88,-43,1007,-17,-26,-11
145,144,-51,1012,-13,-10,-11
146,103,-23,1002,-11,14,-4
147,-20,7,996,-13,28,0
148,-143,18,990,-17,23,3
149,-152,-8,996,-22,-1,-4
150,-82,-27,983,-22,-20,-9
151,75,-43,1008,-19,-27,-12
152,135,-54,1013,-15,-11,-11
153,120,-24,1001,-12,11,-3
154,-1,3,995,-12,26,0
155,-135,14,992,-16,25,2
156,-157,-1,992,-21,3,-4
157,-95,-21,989,-21,-18,-8
158,58,-44,1009,-18,-28,-13
159,127,-55,1008,-13,-14,-12
160,128,-27,1002,-10,7,-5
161,14,-3,998,-13,25,-2
162,-118,8,996,-16,26,1
163,-164,4,981,-19,7,-2
164,-106,-13,990,-21,-15,-7
165,39,-46,1012,-20,-28,-12
166,120,-54,1007,-15,-17,-12
167,142,-25,1006,-10,4,-7
168,29,-6,1005,-11,24,-1
169,-104,11,996,-15,26,2
170,-163,8,978,-20,8,-1
171,-115,-8,990,-21,-12,-7
172,20,-46,1008,-20,-27,-12
173,118,-51,1006,-17,-19,-13
174,142,-35,1005,-12,2,-8
175,44,-8,1005,-9,23,-3
176,-88,3,998,-13,26,1
177,-163,14,968,-20,13,-1
178,-127,-11,1002,-21,-10,-6
179,2,-45,1002,-21,-26,-13
180,112,-51,1004,-16,-20,-11
181,146,-35,1005,-9,-2,-8
182,52,-12,1012,-12,22,-2
183,-70,4,1005,-13,27,1
184,-162,12,968,-18,15,0
185,-133,-8,1002,-20,-8,-5
186,-22,-39,999,-21,-26,-10
187,103,-47,1005,-16,-23,-13
188,155,-43,1008,-12,-5,-8
189,63,-13,1008,-11,20,-1
190,-51,7,1008,-14,28,-1
191,-164,15,975,-18,18,1
192,-137,-10,991,-22,-7,-5
193,-41,-41,997,-21,-23,-9
194,100,-40,1010,-17,-24,-12
195,148,-47,1002,-14,-7,-10
196,79,-18,1002,-9,17,-3
197,-42,4,1004,-11,28,0
198,-149,21,988,-17,20,1
199,-145,-11,991,-22,-2,-4
200,-59,-35,989,-20,-22,-10
201,86,-44,1010,-16,-26,-10
202,148,-54,1007,-11,-9,-10
203,95,-24,1003,-9,15,-3
204,-20,6,997,-11,29,0
205,-145,20,991,-17,22,2
206,-151,-3,998,-21,0,-4
207,-81,-30,979,-21,-20,-9
208,78,-41,1012,-16,-27,-12
209,137,-53,1009,-15,-12,-10
210,115,-28,1006,-11,11,-3
211,-6,2,991,-11,26,0
212,-133,22,991,-14,23,1
213,-161,-1,996,-20,2,-3
214,-91,-23,986,-22,-19,-9
215,61,-50,1012,-18,-28,-13
216,128,-52,1007,-12,-15,-11
217,126,-24,1006,-9,8,-4
218,11,2,995,-11,25,-1
219,-127,12,994,-15,25,2
220,-163,4,988,-20,6,-3
221,-98,-19,991,-22,-17,-8
222,45,-44,1008,-17,-28,-12
223,123,-51,1008,-13,-17,-12
224,137,-27,1004,-10,4,-6
225,23,-1,1001,-11,25,0
226,-107,10,995,-15,26,1
227,-168,4,981,-20,6,-3
228,-109,-13,986,-20,-16,-7
229,26,-47,1015,-18,-27,-13
230,119,-54,1008,-14,-19,-13
231,141,-30,1007,-10,1,-8
232,38,-3,1002,-9,23,-1
233,-92,4,1001,-14,27,0
234,-162,13,968,-20,11,-2
235,-124,-14,999,-21,-11,-6
236,7,-45,1004,-19,-27,-12
237,111,-54,1003,-15,-20,-12
238,148,-36,1009,-9,-2,-8
239,50,-9,1007,-10,21,-3
240,-75,6,1001,-13,27,0
241,-161,18,969,-18,15,-1
242,-133,-7,1000,-20,-9,-7
243,-17,-42,996,-21,-27,-11
244,105,-51,1007,-16,-21,-11
245,154,-42,1002,-11,-4,-9
246,61,-16,1011,-10,21,-2
247,-53,9,1005,-12,28,0
248,-164,18,972,-18,17,1
249,-135,-4,991,-21,-7,-5
250,-44,-40,1001,-21,-24,-11
251,103,-45,1005,-16,-23,-12
252,147,-54,1002,-13,-5,-9
253,76,-14,1005,-7,19,-2
254,-39,2,1006,-14,27,-1
255,-154,23,981,-18,20,1
256,-143,-8,993,-21,-3,-4
257,-59,-35,992,-20,-21,-10
258,91,-45,1008,-16,-25,-12
259,145,-51,1007,-12,-10,-11
260,93,-26,1001,-9,16,-3
261,-24,6,999,-11,27,0
262,-145,18,992,-16,21,1
263,-147,-5,999,-20,-1,-5
264,-77,-27,980,-21,-22,-8
265,81,-41,1011,-15,-28,-12
266,141,-53,1016,-13,-12,-10
267,108,-29,1002,-10,13,-3
268,-6,3,994,-11,27,-1
269,-136,13,990,-17,23,2
270,-156,4,994,-20,2,-3
271,-88,-23,991,-21,-18,-8
272,64,-41,1004,-16,-26,-13
273,130,-54,1011,-13,-13,-12
274,121,-26,1003,-8,8,-6
275,7,-3,993,-12,25,-2
276,-125,14,996,-14,25,1
277,-164,2,987,-20,5,-1
278,-96,-15,988,-21,-17,-7
279,42,-44,1014,-17,-27,-11
280,124,-51,1004,-13,-16,-12
281,133,-31,1006,-10,6,-6
282,24,-2,1001,-11,26,-1
283,-110,8,1001,-13,27,2
284,-165,11,973,-19,7,-3
285,-111,-10,993,-21,-13,-7
286,28,-45,1010,-19,-28,-12
287,116,-52,1010,-14,-17,-12
288,140,-30,1005,-11,2,-7
289,35,-7,1004,-10,24,-2
290,-93,5,1000,-14,27,1
291,-165,12,970,-20,11,-1
292,-119,-10,995,-20,-11,-7
293,6,-47,1009,-19,-27,-11
294,113,-50,1002,-16,-21,-13
295,146,-38,1009,-11,-1,-10
296,45,-7,1008,-10,21,-1
297,-74,3,1002,-14,28,0
298,-162,14,971,-19,13,-1
299,-129,-7,996,-22,-9,-6
300,-12,-43,1000,-19,-28,-12
301,106,-50,999,-16,-22,-12
302,152,-40,1006,-11,-4,-9
303,60,-14,1013,-10,21,-3
304,-57,8,1003,-12,27,0
305,-159,15,973,-18,17,0
306,-138,-6,992,-20,-7,-6
307,-36,-43,999,-21,-24,-11
308,101,-44,1010,-15,-24,-13
309,150,-50,999,-12,-6,-10
310,77,-12,1009,-8,17,-3
311,-44,6,1002,-12,27,0
312,-152,20,985,-19,19,2
313,-144,-8,992,-21,-3,-4
314,-56,-33,992,-20,-23,-11
315,90,-46,1009,-18,-26,-12
316,148,-49,1008,-12,-8,-12
317,91,-23,1003,-10,15,-4
318,-26,8,1000,-12,28,-1
319,-145,23,992,-17,21,1
320,-153,-6,996,-24,-1,-4
321,-74,-31,981,-22,-22,-10
322,81,-44,1007,-16,-28,-13
323,141,-54,1009,-12,-11,-11
324,111,-27,1005,-9,12,-4
325,-13,7,994,-10,28,0
326,-136,21,990,-16,23,1
327,-160,-4,998,-21,1,-5
328,-87,-26,982,-22,-21,-9
329,66,-48,1011,-17,-27,-11
330,136,-52,1013,-14,-12,-11
331,125,-26,1004,-8,10,-6
332,9,1,994,-10,26,-2
333,-130,16,996,-14,26,3
334,-167,2,984,-20,5,-3
335,-97,-17,992,-22,-17,-9
336,50,-44,1009,-18,-28,-12
337,123,-57,1006,-14,-16,-12
338,138,-30,1004,-8,6,-7
339,18,-4,1000,-11,26,-1
340,-111,11,1000,-15,27,1
341,-169,7,977,-19,8,-2
342,-106,-10,989,-21,-16,-7
343,30,-49,1013,-19,-28,-13
344,120,-53,1008,-16,-16,-11
345,144,-32,1006,-9,7,-5
346,35,-4,1003,-11,24,-2
347,-96,6,998,-11,27,0
348,-164,13,973,-18,10,-1
349,-121,-10,995,-25,-11,-6
350,10,-44,1008,-18,-26,-12
351,113,-52,1002,-16,-19,-11
352,149,-33,1011,-9,-1,-8
353,45,-10,1005,-10,21,-2
354,-78,6,1001,-13,26,1
355,-163,12,970,-18,12,-1
356,-131,-8,998,-21,-10,-6
357,-11,-42,1002,-22,-26,-12
358,109,-51,1000,-15,-23,-13
359,150,-40,1004,-11,-4,-10
360,58,-15,1012,-9,20,-2
361,-59,8,1004,-11,28,-1
362,-160,12,974,-16,16,0
363,-139,-3,991,-19,-7,-6
364,-31,-41,1003,-22,-25,-10
365,101,-43,1006,-16,-23,-11
366,151,-48,1004,-12,-5,-11
367,74,-20,1004,-9,17,-3
368,-42,6,1004,-10,26,0
369,-155,19,982,-18,17,2
370,-144,-8,994,-20,-6,-5
371,-56,-38,991,-21,-23,-10
372,92,-42,1013,-17,-25,-11
373,150,-49,1006,-12,-10,-10
374,92,-22,1002,-9,15,-3
375,-28,7,999,-12,27,-1
376,-148,20,994,-17,23,2
377,-150,-8,995,-22,-1,-4
378,-71,-33,983,-22,-21,-10
379,80,-42,1012,-15,-27,-12
380,144,-52,1011,-14,-10,-9
381,106,-27,1008,-9,13,-4
382,-9,6,990,-11,26,-1
383,-137,21,995,-18,23,1
384,-155,-3,993,-19,1,-5
385,-86,-26,986,-22,-20,-9
386,64,-45,1009,-18,-28,-13
387,129,-55,1011,-14,-13,-11
388,123,-28,1002,-9,8,-4
389,9,1,994,-12,25,-1
390,-130,15,996,-15,25,2
391,-159,4,986,-18,5,-3
392,-100,-17,997,-20,-17,-9
393,47,-44,1007,-18,-28,-11
394,122,-59,1009,-15,-15,-11
395,135,-27,1004,-9,6,-5
396,21,-7,1001,-13,24,-2
397,-113,11,998,-14,26,1
398,-167,10,977,-18,8,-2
399,-107,-13,988,-20,-15,-7
400,29,-48,1014,-18,-28,-13
401,116,-52,1007,-15,-17,-13
402,142,-32,1008,-11,3,-8
403,33,-5,1000,-10,24,-2
404,-91,6,1000,-12,27,1
405,-164,10,972,-19,11,-1
406,-117,-10,997,-20,-11,-6
407,3,-45,1005,-20,-26,-12
408,112,-51,1002,-13,-20,-13
409,145,-35,1008,-11,-1,-10
410,47,-6,1009,-11,22,-2
411,-75,6,999,-14,28,0
412,-162,13,973,-19,15,-1
413,-129,-10,998,-22,-8,-7
414,-15,-44,999,-22,-25,-12
415,110,-50,1002,-15,-22,-12
416,148,-41,1006,-9,-4,-9
417,59,-13,1011,-10,21,-2
418,-62,10,1007,-12,28,0
419,-161,17,968,-18,16,1
420,-134,-5,995,-19,-7,-6
421,-35,-45,1001,-21,-24,-11
422,104,-43,1007,-15,-22,-11
423,150,-51,1004,-14,-5,-10
424,73,-14,1006,-8,19,-2
425,-45,6,1005,-12,26,-1
426,-152,21,984,-18,19,1
427,-142,-5,990,-19,-3,-4
428,-54,-38,994,-22,-21,-11
429,92,-46,1011,-15,-24,-12
430,146,-49,1006,-12,-8,-10
431,90,-25,1001,-9,14,-3
432,-28,8,1001,-10,28,1
433,-146,23,992,-18,22,2
434,-148,-8,992,-21,-1,-4
435,-72,-30,984,-22,-22,-8
436,78,-44,1008,-17,-27,-11
437,145,-54,1014,-14,-12,-11
438,104,-28,1004,-11,13,-4
439,-10,6,993,-10,26,-1
440,-137,16,993,-15,23,2
441,-158,2,996,-20,1,-3
442,-85,-25,984,-22,-19,-9
443,65,-44,1013,-16,-28,-13
444,133,-55,1006,-15,-14,-12
445,123,-29,1007,-9,10,-4
446,8,-2,993,-11,26,-1
447,-127,16,993,-15,26,2
448,-164,2,988,-19,4,-3
449,-96,-16,995,-21,-18,-8
450,45,-45,1005,-19,-29,-13
451,123,-55,1009,-15,-16,-11
452,135,-27,1003,-10,6,-5
453,21,-1,1003,-8,25,-1
454,-110,9,994,-13,25,2
455,-168,5,982,-19,7,-3
456,-106,-11,987,-21,-15,-8
457,28,-47,1017,-18,-28,-11
458,116,-50,1001,-14,-17,-11
459,140,-35,1012,-9,4,-7
460,35,-4,1000,-10,24,-1
461,-90,6,998,-13,26,1
462,-164,12,971,-19,9,-1
463,-121,-12,995,-20,-10,-7
464,6,-47,1007,-19,-24,-12
465,111,-52,1003,-14,-21,-12
466,147,-34,1009,-7,-2,-8
467,47,-8,1006,-11,22,-1
468,-74,5,1004,-14,28,1
469,-161,14,966,-18,13,-2
470,-127,-9,1000,-20,-8,-6
471,-16,-44,999,-19,-27,-11
472,109,-49,1003,-13,-22,-14
473,149,-42,1004,-10,-2,-9
474,60,-9,1010,-9,20,-1
475,-57,4,1007,-14,27,0
476,-161,18,972,-17,16,1
477,-134,-7,993,-21,-8,-4
478,-41,-43,1000,-21,-25,-10
479,102,-45,1007,-16,-24,-13
480,148,-48,1004,-13,-7,-9
481,78,-16,1004,-9,17,-3
482,-42,4,1002,-13,26,-1
483,-153,21,982,-20,19,1
484,-144,-7,994,-20,-3,-5
485,-56,-35,989,-21,-21,-10
486,88,-43,1012,-16,-24,-12
487,147,-48,1006,-12,-8,-11
488,91,-28,1002,-11,15,-2
489,-25,6,1001,-11,26,-1
490,-145,16,991,-17,22,0
491,-150,-6,995,-21,-2,-5
492,-75,-28,983,-20,-22,-9
493,82,-44,1011,-16,-27,-13
494,141,-54,1013,-13,-11,-10
495,107,-28,1003,-11,12,-4
496,-8,4,994,-11,26,-2
497,-136,15,990,-14,23,3
498,-160,0,994,-21,1,-3
499,-85,-26,988,-21,-19,-9
500,63,-45,1010,-19,-26,-11
501,131,-52,1008,-13,-14,-11
502,124,-29,1009,-9,8,-5
503,10,0,992,-11,26,-1
504,-125,14,993,-14,25,1
505,-164,5,991,-20,5,-3
506,-98,-21,987,-21,-17,-8
507,43,-46,1012,-19,-28,-13
508,120,-52,1006,-13,-15,-11
509,135,-31,1006,-9,5,-6
510,25,-3,999,-12,25,-2
511,-111,11,1000,-15,27,1
512,-165,9,974,-19,8,-3
513,-112,-13,992,-22,-15,-6
514,26,-46,1013,-19,-29,-12
515,115,-53,1005,-13,-17,-12
516,146,-30,1009,-10,3,-7
517,34,-4,1001,-10,23,-2
518,-89,7,1000,-14,26,0
519,-165,9,973,-19,11,-2
520,-119,-5,996,-21,-10,-7
521,8,-49,1007,-21,-26,-13
522,113,-48,1005,-15,-20,-12
523,150,-38,1005,-11,-1,-8
524,49,-9,1014,-10,21,-2
525,-73,4,998,-13,27,1
526,-165,14,971,-18,14,-1
527,-130,-8,996,-21,-9,-5
528,-18,-43,1001,-20,-26,-12
529,108,-47,1003,-13,-22,-12
530,153,-43,1005,-12,-5,-10
531,60,-13,1013,-9,20,-4
532,-54,6,1000,-11,27,-1
533,-164,16,975,-18,17,1
534,-135,-8,990,-20,-8,-6
535,-39,-40,1002,-21,-25,-10
536,102,-42,1006,-16,-25,-12
537,152,-48,1003,-13,-7,-10
538,74,-17,1005,-10,17,-2
539,-42,6,1005,-11,27,0
540,-150,19,987,-17,18,1
541,-145,-8,991,-21,-4,-5
542,-56,-34,993,-19,-23,-10
543,93,-44,1010,-16,-26,-12
544,151,-46,1007,-12,-10,-10
545,92,-24,1005,-7,14,-2
546,-25,6,998,-12,27,1
547,-147,19,992,-15,22,2
548,-151,-4,999,-20,-1,-4
549,-74,-30,978,-20,-21,-10
550,79,-38,1009,-15,-27,-13
551,144,-56,1014,-14,-11,-11
552,108,-22,1003,-9,13,-4
553,-8,2,992,-12,27,-1
554,-137,20,993,-14,24,2
555,-159,-3,992,-20,4,-4
556,-87,-25,989,-22,-19,-10
557,66,-44,1010,-17,-28,-13
558,131,-54,1005,-14,-12,-10
559,125,-27,1008,-9,9,-5
560,8,1,994,-10,25,-1
561,-127,16,992,-14,25,1
562,-162,6,991,-22,6,-3
563,-97,-18,990,-22,-17,-8
564,46,-49,1011,-19,-29,-12
565,122,-55,1006,-13,-17,-11
566,138,-29,1007,-8,6,-7
567,22,-2,1000,-10,26,-1
568,-113,13,1002,-14,26,2
569,-165,6,975,-22,9,-2
570,-113,-15,987,-21,-15,-8
571,27,-50,1012,-17,-29,-11
572,118,-55,1008,-14,-19,-12
573,147,-30,1006,-10,1,-7
574,35,-6,1003,-10,23,-2
575,-92,12,999,-13,26,1
576,-166,6,971,-19,11,-2
577,-125,-8,995,-21,-13,-7
578,9,-48,1008,-19,-28,-12
579,114,-52,1003,-15,-21,-13
580,148,-36,1004,-9,-1,-8
581,48,-6,1012,-9,22,-2
582,-76,5,998,-14,29,1
583,-162,17,970,-18,14,-2
584,-132,-10,996,-21,-9,-6
585,-13,-43,1003,-21,-27,-12
586,112,-53,999,-14,-22,-12
587,151,-45,1008,-10,-2,-8
588,62,-14,1012,-10,22,0
589,-61,9,1004,-12,28,0
590,-159,17,970,-17,16,0
591,-141,-7,996,-18,-6,-6
592,-36,-41,999,-23,-26,-10
593,104,-48,1012,-15,-23,-11
594,152,-48,1003,-12,-6,-10
595,77,-18,1005,-10,18,-3
596,-44,8,1005,-11,28,0
597,-156,21,985,-19,20,2
598,-144,-7,993,-21,-3,-6
599,-59,-39,991,-21,-23,-10
600,97,-41,1012,-16,-26,-13
601,148,-51,1007,-12,-8,-10
602,91,-22,1001,-8,16,-3
603,-22,6,1000,-12,29,-1
604,-148,20,993,-18,23,2
605,-153,-6,995,-21,-2,-4
606,-74,-34,980,-22,-21,-9
607,79,-42,1010,-16,-27,-12
608,140,-52,1014,-14,-10,-10
609,111,-26,1006,-9,13,-3
610,-7,4,989,-11,27,-1
611,-143,20,993,-16,23,2
612,-160,-2,994,-21,3,-4
613,-84,-25,989,-20,-18,-9
614,63,-43,1010,-16,-28,-13
615,129,-54,1009,-14,-14,-12
616,125,-26,1005,-9,9,-5
617,7,3,995,-11,25,-1
618,-126,14,998,-16,26,1
619,-162,2,987,-19,5,-3
620,-99,-18,986,-21,-16,-8
621,47,-52,1015,-18,-28,-12
622,122,-51,1004,-14,-17,-11
623,136,-29,1004,-10,6,-7
624,23,-1,1003,-10,24,-1
625,-108,13,999,-14,25,3
626,-163,6,975,-20,9,-2
627,-110,-15,991,-20,-14,-6
628,24,-50,1010,-20,-28,-11
629,117,-52,1009,-14,-18,-13
630,145,-31,1007,-10,2,-7
631,35,-2,1004,-9,23,-1
632,-91,8,996,-16,27,2
633,-165,10,972,-21,11,-2
634,-124,-8,999,-21,-11,-6
635,3,-48,1008,-19,-27,-12
636,114,-51,1001,-15,-20,-13
637,149,-36,1008,-10,-2,-8
638,48,-4,1009,-10,22,-2
639,-73,6,1003,-14,28,0
640,-166,17,967,-18,14,-1
641,-132,-9,999,-21,-9,-7
642,-13,-47,1001,-20,-27,-12
643,107,-52,1001,-15,-23,-11
644,152,-39,1008,-11,-4,-10
645,59,-12,1013,-10,21,-2
646,-57,8,1002,-12,28,-1
647,-163,16,975,-19,16,0
648,-137,-4,992,-21,-7,-6
649,-40,-45,998,-20,-25,-11
650,103,-45,1010,-16,-24,-13
651,151,-48,1004,-11,-7,-11
652,82,-16,1003,-8,18,-3
653,-46,8,1008,-11,28,1
654,-153,21,985,-16,19,1
655,-145,-8,992,-21,-3,-5
656,-62,-32,988,-21,-23,-9
657,93,-45,1013,-18,-26,-12
658,145,-50,1004,-11,-10,-12
659,95,-25,1004,-9,15,-4
660,-22,2,999,-11,28,-1
661,-147,22,989,-16,22,2
662,-154,-4,996,-22,-1,-4
663,-73,-29,985,-20,-21,-9
664,75,-42,1010,-16,-27,-12
665,141,-53,1008,-14,-11,-12
666,113,-30,1012,-9,12,-4
667,-6,4,986,-12,26,0
668,-140,14,992,-15,25,2
669,-158,0,996,-19,1,-5
670,-92,-23,987,-22,-17,-8
671,65,-43,1006,-17,-26,-12
672,127,-54,1014,-14,-13,-12
673,130,-28,1002,-9,7,-6
674,8,-3,996,-10,25,-1
675,-124,14,997,-13,25,1
676,-163,-1,984,-19,5,-3
677,-98,-14,987,-21,-17,-8
678,41,-48,1013,-19,-29,-13
679,125,-53,1010,-13,-19,-14
680,136,-32,1002,-8,8,-5
681,23,1,1002,-11,26,-1
682,-106,7,1000,-14,26,1
683,-168,10,971,-19,8,-1
684,-109,-14,993,-23,-15,-8
685,21,-47,1013,-19,-27,-12
686,118,-54,1006,-15,-17,-12
687,146,-32,1010,-9,3,-8
688,33,-3,1003,-9,25,-2
689,-90,6,1002,-14,28,2
690,-169,11,969,-19,10,0
691,-123,-10,998,-21,-11,-7
692,5,-50,1006,-22,-26,-12
693,111,-51,996,-14,-20,-13
694,151,-36,1015,-9,-2,-9
695,47,-6,1008,-9,22,-1
696,-70,9,1001,-13,29,0
697,-165,13,972,-19,16,-1
698,-134,-8,996,-20,-7,-5
699,-13,-48,1003,-22,-26,-11
700,105,-49,1001,-15,-22,-11
701,153,-42,1005,-10,-3,-10
702,65,-13,1013,-9,19,-2
703,-59,10,1004,-11,26,0
704,-158,17,972,-17,16,-2
705,-139,-9,997,-21,-6,-5
706,-36,-37,994,-20,-23,-10
707,100,-49,1011,-15,-23,-12
708,151,-47,1002,-12,-6,-11
709,78,-23,1001,-8,17,-3
710,-39,7,1008,-11,25,-1
711,-154,22,986,-19,20,2
712,-140,-5,995,-20,-2,-5
713,-62,-34,990,-21,-22,-9
714,89,-43,1009,-16,-25,-11
715,147,-55,1009,-13,-10,-11
716,94,-28,1003,-9,16,-4
717,-20,7,993,-11,27,-1
718,-145,21,997,-16,22,0
719,-153,-2,995,-19,-1,-4
720,-79,-27,982,-22,-21,-9
721,78,-47,1010,-16,-27,-12
722,138,-50,1015,-14,-11,-11
723,113,-29,1004,-11,10,-5
724,-2,1,993,-10,26,-1
725,-135,21,988,-17,24,1
726,-161,0,999,-21,3,-4
727,-92,-23,985,-21,-17,-8
728,57,-43,1011,-18,-27,-12
729,130,-55,1007,-15,-14,-11
730,126,-31,1009,-9,7,-5
731,15,2,994,-11,25,-3
732,-125,15,999,-15,27,1
733,-163,5,983,-20,6,-4
734,-105,-17,993,-22,-16,-8
735,46,-46,1007,-19,-30,-13
736,120,-58,1010,-14,-17,-12
737,144,-28,1001,-10,4,-7
738,22,-1,1005,-11,26,1
739,-105,13,997,-13,27,0
740,-171,5,979,-20,9,-2
741,-112,-8,987,-22,-14,-7
742,19,-50,1016,-21,-28,-12
743,123,-54,1002,-16,-19,-12
744,145,-35,1009,-11,3,-7
745,41,-5,1002,-9,25,-2
746,-92,4,1003,-14,27,2
747,-165,13,966,-18,10,-1
748,-123,-11,999,-22,-11,-6
749,5,-45,1004,-20,-28,-12
750,110,-49,999,-15,-20,-12
751,157,-36,1010,-9,-3,-9
752,44,-10,1008,-10,22,-1
753,-72,8,1000,-14,28,1
754,-162,12,975,-17,15,-1
755,-132,-6,992,-21,-9,-6
756,-18,-45,1002,-21,-26,-11
757,106,-49,1007,-15,-23,-11
758,151,-40,1002,-12,-5,-9
759,62,-12,1012,-10,19,-2
760,-55,7,1007,-13,26,-1
761,-160,18,973,-17,18,1
762,-136,-10,991,-19,-7,-6
763,-43,-41,1002,-21,-25,-10
764,105,-45,1007,-16,-24,-13
765,149,-45,1002,-12,-6,-10
766,82,-19,1004,-10,17,-3
767,-42,7,1007,-10,27,-1
768,-153,20,984,-17,20,2
769,-145,-6,997,-22,-3,-4
770,-57,-36,985,-20,-22,-10
771,86,-41,1012,-16,-25,-11
772,149,-49,1009,-14,-10,-10
773,92,-27,1002,-10,14,-2
774,-23,6,995,-12,26,0
775,-142,20,994,-15,22,1
776,-155,-3,997,-20,0,-4
777,-73,-29,982,-20,-21,-9
778,75,-44,1010,-16,-26,-12
779,141,-50,1011,-13,-12,-11
780,114,-31,1008,-9,11,-4
781,-8,3,991,-13,26,0
782,-136,19,990,-16,23,2
783,-160,0,999,-19,2,-5
784,-86,-23,986,-23,-17,-9
785,62,-47,1009,-18,-26,-11
786,129,-55,1010,-14,-15,-10
787,126,-28,1005,-9,8,-5
788,11,0,993,-11,25,-2
789,-123,14,994,-16,25,2
790,-164,2,985,-18,5,-2
791,-99,-15,987,-20,-16,-8
792,41,-47,1012,-18,-29,-12
793,121,-54,1004,-14,-17,-12
794,138,-30,1005,-9,6,-7
795,25,-3,1003,-11,25,-1
796,-107,11,999,-15,26,2
797,-169,8,974,-20,9,-2
798,-111,-13,993,-21,-14,-6
799,20,-46,1011,-18,-28,-11
800,117,-53,1005,-16,-18,-13
801,146,-31,1009,-10,3,-6
802,36,-8,1002,-10,24,-1
803,-89,7,998,-13,26,0
804,-167,12,974,-18,10,-1
805,-121,-7,996,-22,-11,-7
806,2,-48,1006,-21,-25,-12
807,114,-48,1000,-16,-21,-12
808,151,-38,1010,-11,-1,-8
809,50,-7,1008,-10,22,-1
810,-75,6,1005,-13,27,1
811,-162,15,968,-18,15,-1
812,-132,-10,998,-20,-8,-5
813,-17,-44,1002,-20,-27,-12
814,107,-49,1002,-16,-23,-13
815,151,-42,1005,-11,-3,-10
816,61,-13,1014,-11,20,-2
817,-56,7,1004,-12,27,0
818,-158,16,972,-17,17,0
819,-141,-5,993,-21,-6,-5
820,-35,-42,998,-20,-24,-11
821,99,-46,1009,-17,-24,-12
822,146,-47,1003,-12,-6,-10
823,79,-22,1001,-8,18,-3
824,-41,3,1005,-11,27,-1
825,-152,25,986,-16,21,2
826,-144,-9,995,-21,-4,-4
827,-60,-33,988,-21,-23,-10
828,86,-44,1009,-16,-25,-12
829,146,-51,1008,-12,-10,-12
830,92,-27,1002,-8,16,-2
831,-22,5,995,-10,27,0
832,-145,21,998,-14,21,1
833,-151,-3,993,-20,-1,-4
834,-77,-29,985,-23,-22,-9
835,77,-40,1008,-17,-27,-12
836,139,-53,1012,-15,-11,-11
837,112,-29,1006,-9,12,-5
838,-5,4,989,-10,27,-2
839,-134,17,992,-16,23,2
840,-160,1,995,-20,2,-2
841,-87,-23,988,-21,-18,-8
842,62,-45,1012,-18,-27,-13
843,127,-55,1004,-14,-13,-12
844,128,-29,1009,-10,8,-5
845,8,-1,995,-11,26,0
846,-123,13,996,-15,25,2
847,-166,3,984,-19,7,-2
848,-100,-14,989,-21,-17,-8
849,43,-47,1011,-20,-29,-13
850,123,-54,1007,-14,-16,-11
851,142,-30,1005,-10,7,-6
852,24,-3,1000,-12,25,-3
853,-111,10,998,-15,28,1
854,-167,11,977,-18,8,-3
855,-115,-12,989,-22,-15,-6
856,24,-47,1012,-18,-28,-12
857,116,-56,1008,-15,-18,-12
858,148,-30,1008,-10,2,-7
859,35,-6,1002,-9,25,-1
860,-88,7,1000,-13,28,1
861,-167,10,969,-19,12,-1
862,-126,-8,998,-22,-11,-6
863,1,-49,1006,-21,-27,-11
864,114,-53,997,-13,-20,-13
865,150,-36,1008,-9,-2,-8
866,48,-5,1012,-10,21,-1
867,-68,8,1002,-14,29,0
868,-166,10,969,-19,16,-1
869,-130,-6,996,-20,-8,-6
870,-21,-49,1004,-22,-25,-11
871,107,-47,1000,-14,-24,-12
872,151,-46,1006,-11,-5,-9
873,64,-9,1010,-10,19,-2
874,-54,3,1006,-14,28,0
875,-158,22,974,-19,17,0
876,-143,-9,993,-20,-6,-5
877,-37,-41,998,-19,-25,-11
878,96,-49,1012,-16,-25,-11
879,152,-42,1000,-10,-7,-10
880,79,-20,1008,-8,18,-2
881,-37,7,1002,-11,26,0
882,-156,22,987,-18,20,2
883,-144,-8,994,-21,-3,-5
884,-63,-38,987,-21,-23,-10
885,88,-46,1009,-17,-27,-13
886,147,-54,1009,-12,-10,-11
887,99,-24,1003,-9,15,-3
888,-22,5,996,-11,27,-1
889,-147,22,993,-16,22,3
890,-150,-6,997,-20,-1,-4
891,-80,-25,979,-20,-20,-9
892,76,-43,1010,-16,-28,-13
893,140,-53,1014,-14,-12,-11
894,115,-30,1002,-9,12,-4
895,-5,5,993,-10,26,-1
896,-132,19,991,-17,24,1
897,-161,-1,993,-20,3,-5
898,-91,-21,988,-22,-17,-8
899,60,-47,1011,-19,-29,-12
900,129,-56,1007,-14,-14,-11
901,128,-27,1004,-9,8,-4
902,9,1,996,-13,25,-2
903,-121,11,997,-15,26,1
904,-165,1,981,-19,6,-2
905,-101,-15,990,-20,-15,-7
906,40,-50,1013,-18,-28,-12
907,121,-52,1006,-13,-16,-12
908,139,-26,1005,-9,5,-6
909,26,-4,1002,-10,26,-3
910,-107,10,997,-14,28,2
911,-166,8,973,-21,8,-2
912,-116,-12,992,-21,-13,-6
913,25,-51,1011,-20,-28,-11
914,118,-54,1005,-16,-18,-12
915,146,-32,1008,-10,2,-8
916,33,-5,1007,-10,23,-2
917,-89,9,997,-12,28,1
918,-166,10,974,-19,13,-1
919,-123,-8,996,-22,-10,-7
920,3,-50,1004,-20,-27,-12
921,113,-49,1002,-15,-22,-12
922,143,-39,1008,-11,-1,-7
923,49,-6,1010,-11,22,-1
924,-70,4,1004,-13,28,0
925,-163,17,968,-17,16,1
926,-132,-8,996,-22,-8,-6
927,-22,-44,1004,-22,-26,-12
928,105,-46,1002,-15,-22,-12
929,150,-45,1005,-10,-4,-11
930,66,-10,1012,-8,20,-1
931,-55,5,1003,-12,28,1
932,-157,17,977,-17,18,1
933,-138,-7,990,-21,-6,-4
934,-43,-41,995,-22,-24,-11
935,98,-45,1012,-16,-24,-12
936,150,-49,1001,-12,-7,-10
937,85,-15,1001,-8,16,-3
938,-40,7,1004,-12,27,0
939,-151,23,990,-19,20,1
940,-146,-11,990,-21,-2,-4
941,-64,-36,986,-21,-23,-12
942,89,-44,1013,-16,-27,-12
943,147,-52,1006,-12,-10,-10
944,100,-25,1006,-8,14,-3
945,-19,5,996,-11,28,0
946,-148,22,990,-17,23,2
947,-154,-6,1000,-21,-2,-5
948,-81,-28,982,-21,-21,-10
949,78,-46,1009,-18,-27,-12
950,136,-56,1018,-13,-11,-10
951,116,-26,1002,-11,11,-3
952,-1,5,995,-11,26,-2
953,-135,16,993,-17,24,1
954,-160,1,994,-21,3,-3
955,-93,-21,991,-23,-19,-9
956,60,-48,1009,-18,-27,-12
957,129,-58,1010,-13,-13,-11
958,127,-29,1001,-9,8,-4
959,12,0,1002,-10,25,-1
960,-118,16,995,-14,25,1
961,-168,9,979,-19,6,-4
962,-102,-15,990,-21,-16,-8
963,41,-51,1011,-18,-29,-13
964,123,-56,1006,-13,-18,-12
965,137,-32,1002,-9,6,-6
966,32,-3,1004,-9,24,-2
967,-103,11,996,-14,26,1
968,-168,12,974,-19,9,-2
969,-113,-12,992,-22,-14,-7
970,17,-49,1009,-19,-27,-10
971,115,-53,1006,-15,-19,-11
972,147,-34,1007,-10,1,-7
973,37,-3,1006,-9,24,-1
974,-82,6,998,-13,27,0
975,-163,11,975,-19,11,-1
976,-127,-5,993,-22,-10,-6
977,-4,-46,1009,-21,-27,-12
978,112,-50,999,-16,-21,-11
979,147,-39,1006,-9,-2,-9
980,56,-8,1014,-10,21,-2
981,-68,5,1003,-15,28,1
982,-161,20,970,-19,16,-1
983,-133,-10,997,-21,-9,-6
984,-25,-41,999,-22,-26,-11
985,105,-50,1002,-15,-24,-12
986,151,-45,1009,-12,-5,-8
987,65,-14,1006,-9,18,-2
988,-49,8,1006,-12,26,-1
989,-157,18,981,-18,17,0
990,-140,-5,990,-21,-6,-5
991,-48,-39,996,-20,-24,-11
992,97,-46,1010,-16,-24,-11
993,147,-50,1003,-12,-8,-10
994,87,-20,1001,-9,16,-3
995,-40,6,1006,-11,27,0
996,-146,22,986,-17,18,1
997,-150,-7,998,-21,-3,-5
998,-67,-32,982,-20,-22,-11
999,86,-45,1012,-17,-26,-13
1000,147,-55,1009,-14,-10,-10
1001,103,-25,1004,-10,15,-3
1002,-15,4,994,-11,27,-1
1003,-147,18,990,-15,23,2
1004,-153,-1,998,-19,-1,-3
1005,-84,-27,982,-22,-20,-10
1006,75,-44,1008,-17,-28,-13
1007,137,-56,1014,-13,-12,-11
1008,117,-28,1004,-10,11,-5
1009,1,4,993,-12,26,-2
1010,-134,17,991,-17,24,2
1011,-163,1,992,-21,4,-3
1012,-89,-21,989,-21,-17,-7
1013,55,-44,1011,-18,-27,-11
1014,128,-53,1008,-14,-15,-11
1015,129,-29,1002,-8,8,-5
1016,18,-2,997,-12,25,-1
1017,-118,11,998,-12,23,0
1018,-163,5,980,-9,0,-7
1019,-107,-13,989,-14,-22,-10
1020,36,-46,1012,-19,-28,-12
1021,119,-54,1009,-13,-15,-11
1022,142,-31,1006,-11,5,-6
1023,31,-2,1001,-9,25,-2
1024,-102,7,999,-15,25,1
1025,-169,13,974,-20,8,-3
1026,-113,-12,994,-23,-13,-7
1027,14,-46,1008,-19,-27,-12
1028,114,-54,1006,-14,-18,-12
1029,148,-35,1008,-10,-1,-10
1030,40,-8,1008,-10,23,-2
1031,-82,7,998,-12,27,0
1032,-166,15,972,-19,12,0
1033,-127,-8,996,-21,-10,-6
1034,-7,-48,1004,-22,-27,-11
1035,115,-53,1002,-16,-23,-12
1036,151,-39,1007,-10,-4,-8
1037,56,-8,1013,-10,22,-2
1038,-64,5,1005,-12,28,0
1039,-163,18,967,-17,16,0
1040,-137,-9,995,-21,-9,-6
1041,-28,-43,1007,-20,-26,-10
1042,107,-52,1000,-17,-23,-12
1043,153,-44,1006,-13,-4,-9
1044,73,-13,1010,-10,19,-2
1045,-50,12,1004,-12,27,0
1046,-159,18,976,-17,17,1
1047,-145,-7,995,-21,-5,-4
1048,-44,-41,993,-21,-23,-11
1049,98,-48,1015,-16,-25,-13
1050,153,-46,1001,-12,-9,-10
1051,84,-17,1005,-7,17,-3
1052,-34,7,1004,-12,28,0
1053,-157,26,988,-16,21,2
1054,-147,-7,994,-21,-2,-6
1055,-68,-36,983,-22,-23,-10
1056,87,-46,1011,-17,-25,-13
1057,147,-52,1013,-13,-9,-11
1058,101,-25,1004,-10,14,-3
1059,-14,8,993,-9,28,-1
1060,-144,21,994,-16,24,2
1061,-158,-2,992,-22,1,-3
1062,-79,-30,985,-22,-21,-9
1063,73,-45,1005,-17,-28,-13
1064,140,-53,1014,-14,-13,-12
1065,118,-28,1004,-9,10,-5
1066,-3,5,991,-11,26,-1
1067,-133,19,993,-15,24,1
1068,-162,-2,995,-22,4,-4
1069,-93,-22,986,-22,-17,-8
1070,60,-46,1011,-19,-28,-13
1071,128,-52,1007,-13,-15,-11
1072,132,-30,1004,-8,6,-5
1073,15,0,997,-11,25,-2
1074,-122,13,998,-15,25,2
1075,-165,3,983,-20,6,-3
1076,-105,-16,989,-22,-15,-7
1077,40,-44,1014,-18,-28,-12
1078,120,-55,1007,-13,-16,-11
1079,139,-25,1006,-10,5,-5
1080,27,-2,1001,-11,27,-2
1081,-105,6,1001,-15,28,3
1082,-168,6,970,-21,9,-1
1083,-115,-11,995,-21,-13,-7
1084,21,-46,1010,-20,-28,-12
1085,118,-52,1009,-14,-18,-13
1086,147,-34,1006,-10,0,-8
1087,38,-4,1005,-9,24,-1
1088,-88,8,999,-13,27,1
1089,-164,14,970,-18,11,0
1090,-125,-8,999,-22,-11,-6
1091,0,-47,1004,-20,-26,-12
1092,112,-53,1001,-17,-21,-11
1093,150,-40,1007,-10,-2,-9
1094,51,-9,1012,-9,21,-2
1095,-66,8,1000,-13,27,-1
1096,-164,17,970,-18,17,-1
1097,-133,-5,999,-21,-9,-6
1098,-21,-43,1001,-21,-28,-10
1099,105,-51,999,-15,-22,-12
1100,153,-45,1006,-10,-5,-9
1101,65,-12,1010,-8,20,-1
1102,-51,9,1005,-11,28,0
1103,-161,21,976,-17,17,0
1104,-141,-7,991,-19,-6,-7
1105,-41,-38,995,-20,-24,-11
1106,103,-46,1010,-18,-25,-12
1107,149,-49,1003,-14,-7,-9
1108,80,-19,1004,-7,18,-2
1109,-36,7,1006,-12,27,0
1110,-158,24,988,-17,21,2
1111,-142,-9,992,-20,-3,-4
1112,-64,-37,988,-21,-22,-10
1113,91,-41,1008,-16,-26,-12
1114,148,-50,1012,-12,-10,-11
1115,93,-22,1000,-8,15,-4
1116,-20,4,998,-11,28,-1
1117,-147,20,994,-16,22,1
1118,-151,-4,995,-21,0,-5
1119,-78,-31,982,-22,-20,-9
1120,75,-40,1009,-17,-27,-11
1121,140,-52,1013,-15,-11,-12
1122,113,-29,1009,-11,11,-5
1123,-5,4,990,-11,26,-2
1124,-135,20,990,-15,23,1
1125,-159,1,998,-21,3,-3
1126,-92,-23,986,-22,-16,-8
1127,63,-47,1010,-17,-27,-12
1128,133,-57,1011,-13,-14,-12
1129,128,-28,1000,-9,9,-5
1130,13,4,999,-11,25,-1
1131,-129,14,995,-15,25,2
1132,-164,3,984,-21,6,-4
1133,-102,-18,992,-22,-15,-8
1134,44,-48,1009,-20,-28,-11
1135,125,-56,1008,-13,-16,-12
1136,138,-29,1005,-10,6,-6
1137,24,-3,1001,-11,27,-1
1138,-109,13,1001,-13,26,1
1139,-172,10,973,-19,8,-1
1140,-111,-12,992,-21,-15,-7
1141,26,-47,1010,-21,-29,-11
1142,118,-53,1008,-14,-18,-12
1143,144,-36,1008,-11,2,-8
1144,38,-6,1004,-10,24,-1
1145,-93,6,997,-11,27,1
1146,-167,12,973,-18,10,-1
1147,-125,-9,997,-20,-11,-6
1148,7,-45,1004,-19,-27,-12
1149,114,-52,1003,-15,-19,-12
1150,150,-36,1008,-9,-1,-9
1151,46,-7,1009,-9,21,-3
1152,-74,6,1002,-12,27,0
1153,-167,13,972,-19,15,-1
1154,-131,-8,996,-20,-8,-6
1155,-15,-44,1001,-20,-26,-11
1156,109,-48,1003,-15,-21,-13
1157,153,-40,1004,-12,-2,-9
1158,61,-15,1012,-11,20,-3
1159,-60,5,1007,-13,28,1
1160,-162,15,971,-18,17,0
1161,-140,-4,994,-18,-7,-6
1162,-36,-40,1002,-21,-25,-10
1163,101,-43,1004,-15,-22,-11
1164,153,-44,1006,-13,-5,-10
1165,78,-20,1005,-10,18,-3
1166,-43,7,1005,-12,26,1
1167,-154,18,981,-18,18,1
1168,-143,-6,992,-22,-3,-4
1169,-59,-35,994,-22,-23,-9
1170,91,-43,1010,-15,-26,-13
1171,147,-50,1008,-13,-8,-10
1172,90,-24,1001,-10,16,-4
1173,-27,5,1002,-11,29,-2
1174,-150,20,991,-19,24,2
1175,-148,-6,995,-21,-1,-4
1176,-74,-32,981,-20,-20,-10
1177,80,-41,1010,-16,-26,-13
1178,145,-52,1013,-13,-11,-12
1179,103,-27,1004,-11,11,-3
1180,-8,4,995,-11,26,0
1181,-139,15,990,-15,24,1
1182,-159,0,998,-20,0,-3
1183,-84,-28,985,-21,-18,-8
1184,68,-41,1011,-18,-26,-13
1185,133,-53,1013,-13,-12,-11
1186,120,-26,1003,-8,9,-5
1187,6,0,997,-12,26,-1
1188,-126,16,991,-16,24,2
1189,-166,-1,992,-21,6,-4
1190,-94,-20,988,-20,-16,-10
1191,46,-47,1010,-18,-28,-12
1192,127,-51,1008,-13,-16,-12
1193,135,-28,1004,-10,6,-6
1194,21,-2,998,-11,26,0
1195,-118,11,998,-13,27,2
1196,-167,4,977,-19,8,-2
1197,-105,-16,990,-21,-14,-7
1198,26,-48,1012,-18,-27,-12
1199,123,-53,1007,-14,-18,-13
1200,143,-33,1004,-10,4,-7
1201,34,0,1005,-11,24,-2
1202,-97,7,1000,-13,26,1
1203,-168,11,971,-20,9,-3
1204,-120,-13,995,-22,-12,-6
1205,13,-51,1010,-18,-26,-12
1206,118,-51,1003,-14,-19,-12
1207,149,-33,1008,-9,1,-9
1208,44,-6,1008,-10,23,-2
1209,-86,7,998,-13,27,2
1210,-164,12,971,-18,13,-1
1211,-131,-9,1003,-21,-9,-6
1212,-7,-45,999,-21,-26,-12
1213,111,-51,1004,-14,-22,-13
1214,151,-36,1003,-10,-4,-9
1215,58,-11,1016,-9,22,-2
1216,-66,7,999,-13,28,0
1217,-163,15,971,-19,15,0
1218,-136,-7,993,-20,-8,-6
1219,-30,-42,1002,-21,-24,-12
1220,109,-49,1006,-15,-25,-14
1221,150,-45,1004,-11,-5,-9
1222,72,-11,1004,-9,21,-2
1223,-52,6,1010,-12,29,-1
1224,-158,23,976,-17,19,0
1225,-140,-8,993,-22,-5,-5
1226,-48,-37,1000,-21,-25,-11
1227,99,-44,1007,-18,-26,-11
1228,149,-51,1008,-11,-7,-10
1229,89,-21,1004,-9,16,-3
1230,-34,4,996,-11,28,-2
1231,-154,21,993,-16,22,2
1232,-145,-7,995,-22,-3,-4
1233,-69,-32,982,-19,-22,-10
1234,87,-40,1010,-17,-28,-12
1235,148,-52,1014,-13,-9,-11
1236,101,-29,1000,-9,15,-3
1237,-16,7,995,-12,27,-2
1238,-144,17,991,-17,23,1
1239,-156,-1,996,-19,0,-4
1240,-83,-29,983,-21,-21,-10
1241,74,-42,1008,-16,-29,-13
1242,136,-53,1015,-13,-12,-11
1243,116,-29,1006,-11,10,-6
1244,-1,0,992,-12,27,-1
1245,-136,18,991,-15,23,1
1246,-163,-1,995,-20,4,-4
1247,-91,-23,989,-22,-19,-8
1248,59,-44,1009,-17,-28,-12
1249,126,-52,1011,-13,-14,-12
1250,131,-25,1003,-10,8,-5
1251,14,-3,998,-11,27,-1
1252,-121,13,997,-15,27,2
1253,-166,0,983,-18,6,-3
1254,-100,-14,986,-20,-16,-9
1255,39,-48,1016,-17,-28,-13
1256,121,-52,1005,-13,-16,-13
1257,139,-32,1005,-11,4,-7
1258,26,-2,1003,-11,25,-2
1259,-102,8,998,-13,26,1
1260,-168,9,973,-18,8,-1
1261,-113,-12,992,-21,-13,-7
1262,18,-47,1012,-19,-27,-12
1263,115,-50,1003,-16,-19,-11
1264,148,-32,1008,-10,-1,-8
1265,36,-5,1008,-10,22,-2
1266,-85,7,997,-13,26,0
1267,-162,7,973,-19,12,-2
1268,-126,-12,997,-22,-12,-6
1269,-2,-44,1003,-18,-28,-12
1270,115,-51,999,-14,-22,-13
1271,147,-33,1009,-9,-2,-9
1272,55,-8,1012,-11,21,-2
1273,-68,2,1003,-14,29,0
1274,-162,16,970,-17,15,2
1275,-132,-8,997,-21,-9,-5
1276,-24,-44,1002,-20,-26,-10
1277,106,-47,1005,-16,-23,-12
1278,155,-43,1005,-11,-4,-11
1279,65,-14,1007,-9,21,-3
1280,-50,6,1006,-13,28,0
1281,-157,15,976,-18,17,0
1282,-143,-7,992,-19,-6,-4
1283,-46,-39,997,-22,-24,-11
1284,98,-48,1012,-17,-24,-13
1285,152,-48,1002,-11,-7,-10
1286,82,-17,1002,-9,16,-2
1287,-33,6,1007,-11,26,-1
1288,-154,20,985,-19,21,2
1289,-147,-9,995,-22,-1,-6
1290,-65,-36,985,-20,-22,-9
1291,90,-42,1010,-16,-27,-13
1292,147,-51,1009,-13,-11,-10
1293,99,-24,1003,-9,14,-4
1294,-19,7,995,-12,27,0
1295,-142,18,992,-16,23,1
1296,-156,-3,995,-22,1,-4
1297,-78,-30,983,-21,-20,-10
1298,73,-44,1009,-17,-27,-12
1299,136,-53,1013,-14,-12,-11
1300,118,-26,1007,-9,11,-6
1301,-3,2,989,-10,26,-1
1302,-136,21,995,-16,24,2
1303,-159,-1,993,-21,4,-4
1304,-90,-19,986,-22,-18,-9
1305,59,-44,1011,-19,-29,-13
1306,128,-54,1009,-13,-15,-13
1307,130,-28,1003,-8,8,-6
1308,14,0,1000,-11,25,-2
1309,-121,11,998,-15,26,2
1310,-167,5,982,-20,6,-4
1311,-106,-14,987,-22,-17,-8
1312,43,-45,1016,-19,-29,-14
1313,121,-56,1005,-14,-16,-11
1314,141,-31,1001,-10,5,-6
1315,27,-2,1009,-8,25,-1
1316,-106,8,992,-15,26,1
1317,-164,10,977,-19,9,-2
1318,-114,-11,991,-21,-14,-7
1319,18,-44,1010,-19,-27,-11
1320,119,-55,1008,-15,-19,-12
1321,143,-30,1006,-11,0,-7
1322,42,-3,1006,-11,22,-2
1323,-88,6,1002,-13,26,1
1324,-168,10,965,-18,13,0
1325,-125,-10,1000,-20,-10,-7
1326,-5,-46,1006,-21,-25,-11
1327,115,-49,1001,-14,-20,-13
1328,150,-38,1009,-11,-2,-8
1329,50,-6,1013,-10,22,0
1330,-64,5,1001,-13,28,-1
1331,-167,11,972,-19,15,0
1332,-134,-6,992,-20,-9,-7
1333,-23,-46,1004,-21,-25,-11
1334,109,-47,1003,-15,-23,-11
1335,152,-45,1002,-11,-3,-9
1336,68,-11,1012,-9,20,-2
1337,-55,9,1006,-13,27,1
1338,-162,16,976,-20,18,-1
1339,-138,-7,992,-20,-6,-7
1340,-47,-42,995,-21,-24,-11
1341,104,-43,1013,-17,-24,-12
1342,147,-51,1001,-13,-6,-9
1343,83,-17,1000,-7,17,-2
1344,-40,5,1006,-11,27,-1
1345,-152,25,992,-17,21,0
1346,-147,-8,987,-22,-3,-5
1347,-67,-35,991,-21,-22,-10
1348,87,-42,1009,-16,-27,-12
1349,149,-52,1011,-12,-10,-12
1350,97,-24,1001,-8,14,-3
1351,-18,4,997,-11,28,-1
1352,-147,21,988,-21,29,4
1353,-156,-4,997,-21,1,-4
1354,-77,-28,984,-21,-21,-10
1355,74,-46,1007,-16,-27,-11
1356,140,-52,1014,-15,-12,-11
1357,117,-26,1006,-9,12,-5
1358,-6,1,987,-12,27,-1
1359,-134,14,993,-14,24,1
1360,-158,-2,997,-19,4,-4
1361,-89,-17,982,-22,-17,-8
1362,62,-45,1014,-19,-28,-12
1363,127,-53,1010,-13,-15,-12
1364,131,-24,1001,-9,8,-6
1365,10,-3,1001,-11,26,-1
1366,-122,12,996,-14,25,2
1367,-163,1,982,-18,7,-4
1368,-102,-17,989,-20,-15,-9
1369,41,-46,1014,-18,-29,-13
1370,120,-54,1007,-13,-15,-11
1371,134,-26,1010,-12,4,-5
1372,29,-4,1004,-11,25,-2
1373,-110,7,999,-15,26,1
1374,-163,7,973,-20,8,-2
1375,-114,-12,993,-21,-14,-7
1376,25,-50,1010,-18,-27,-12
1377,117,-52,1004,-14,-18,-12
1378,143,-26,1009,-11,1,-8
1379,33,-4,1005,-10,23,-1
1380,-87,8,999,-14,25,0
1381,-167,8,969,-18,11,-1
1382,-119,-11,997,-22,-11,-7
1383,0,-52,1007,-19,-25,-12
1384,112,-46,998,-12,-20,-12
1385,146,-36,1010,-10,0,-8
1386,49,-4,1012,-10,22,-3
1387,-66,7,1003,-15,27,0
1388,-163,16,969,-19,15,0
1389,-133,-15,998,-21,-10,-5
1390,-21,-42,1000,-20,-26,-11
1391,104,-50,1006,-15,-22,-12
1392,150,-43,1002,-10,-4,-10
1393,62,-12,1010,-9,19,-2
1394,-52,11,1006,-13,27,0
1395,-160,20,976,-18,17,2
1396,-136,-11,991,-19,-7,-6
1397,-49,-41,995,-21,-23,-10
1398,100,-45,1012,-16,-24,-13
1399,147,-52,1003,-11,-8,-10
1400,83,-16,1002,-8,16,-2
1401,-36,10,1004,-10,27,-1
1402,-151,23,987,-19,22,1
1403,-145,-8,992,-22,-2,-4
1404,-63,-39,985,-20,-21,-9
1405,87,-43,1014,-16,-27,-12
1406,145,-53,1006,-12,-10,-11
1407,98,-24,1007,-9,15,-3
1408,-18,5,994,-11,27,-2
1409,-144,18,991,-16,23,2
1410,-151,-2,996,-20,0,-4
1411,-81,-30,983,-22,-20,-8
1412,73,-44,1009,-17,-27,-12
1413,133,-51,1009,-14,-10,-11
1414,117,-26,1008,-10,11,-5
1415,2,0,994,-11,26,-1
1416,-135,17,991,-13,24,2
1417,-159,-1,995,-20,4,-4
1418,-90,-21,987,-22,-17,-8
1419,54,-47,1009,-17,-28,-12
1420,129,-53,1009,-13,-15,-11
1421,129,-26,1005,-7,8,-4
1422,16,0,999,-10,25,0
1423,-119,12,997,-15,26,2
1424,-165,7,980,-20,7,-3
1425,-104,-15,991,-21,-15,-8
1426,38,-48,1013,-18,-28,-12
1427,119,-54,1006,-12,-17,-11
1428,140,-29,1009,-9,5,-6
1429,26,-3,1003,-12,26,0
1430,-103,8,997,-14,26,2
1431,-169,6,972,-19,9,-2
1432,-116,-10,991,-22,-13,-8
1433,17,-50,1011,-21,-28,-13
1434,116,-51,1003,-15,-20,-11
1435,147,-31,1010,-9,1,-8
1436,41,-7,1005,-10,24,-3
1437,-89,5,1000,-12,28,2
1438,-162,10,970,-19,12,0
1439,-129,-10,998,-21,-11,-6
1440,-1,-44,1004,-21,-27,-12
1441,109,-50,1001,-14,-21,-11
1442,151,-38,1006,-10,-3,-9
1443,57,-9,1012,-10,21,-2
1444,-67,9,1003,-14,28,1
1445,-163,19,971,-19,16,1
1446,-135,-7,993,-21,-10,-5
1447,-28,-45,1000,-21,-27,-11
1448,107,-49,1007,-16,-23,-12
1449,153,-48,1004,-11,-4,-9
1450,70,-15,1004,-8,19,-2
1451,-51,10,1007,-12,26,0
1452,-160,21,979,-18,17,2
1453,-139,-8,991,-20,-5,-5
1454,-51,-40,997,-21,-23,-10
1455,99,-47,1009,-15,-25,-12
1456,147,-49,1007,-10,-8,-10
1457,84,-20,1000,-9,16,-3
1458,-31,7,1004,-11,27,-1
1459,-151,23,989,-17,20,3
1460,-148,-6,996,-21,-2,-5
1461,-68,-34,984,-20,-22,-10
1462,80,-44,1008,-17,-27,-11
1463,146,-50,1013,-11,-11,-12
1464,100,-27,1007,-10,13,-4
1465,-12,4,992,-11,28,0
1466,-141,17,992,-16,22,1
1467,-158,-1,999,-20,1,-4
1468,-80,-27,985,-21,-19,-9
1469,71,-45,1007,-17,-27,-12
1470,134,-54,1014,-14,-11,-10
1471,118,-28,1005,-8,10,-4
1472,3,1,993,-13,25,0
1473,-131,18,993,-16,24,1
1474,-163,-1,989,-21,5,-3
1475,-92,-18,992,-22,-17,-8
1476,54,-45,1009,-17,-28,-12
1477,126,-53,1006,-13,-16,-12
1478,130,-29,1008,-10,6,-6
1479,20,-5,995,-11,25,-2
1480,-114,7,999,-14,24,1
1481,-166,8,977,-17,7,-1
1482,-107,-14,986,-21,-14,-7
1483,34,-48,1017,-16,-28,-12
1484,117,-49,1007,-14,-17,-11
1485,145,-33,1007,-13,2,-7
1486,29,-6,1004,-11,24,0
1487,-97,10,995,-13,27,2
1488,-165,10,973,-20,10,-2
1489,-121,-11,996,-21,-13,-6
1490,16,-44,1006,-19,-27,-11
1491,113,-54,1006,-15,-21,-12
1492,147,-34,1005,-10,-1,-8
1493,43,-8,1008,-12,22,0
1494,-79,6,1002,-14,27,1
1495,-162,13,970,-19,14,0
1496,-128,-6,999,-20,-8,-6
1497,-12,-47,1003,-21,-25,-11
1498,113,-50,1000,-14,-21,-12
1499,148,-44,1004,-10,-2,-8
1500,62,-7,1014,-10,21,-2
1501,-58,6,1004,-12,28,0
1502,-162,20,969,-17,17,0
1503,-139,-8,995,-21,-8,-6
1504,-36,-43,999,-20,-26,-11
1505,104,-50,1006,-16,-23,-11
1506,154,-46,1002,-10,-6,-10
1507,76,-14,1008,-9,18,-2
1508,-47,9,1002,-13,27,0
1509,-158,21,983,-16,19,1
1510,-144,-9,992,-22,-3,-6
1511,-55,-39,989,-21,-23,-10
1512,94,-46,1014,-15,-27,-12
1513,147,-51,1005,-13,-9,-10
1514,91,-21,1002,-9,16,-2
1515,-27,8,998,-11,28,-1
1516,-146,21,991,-18,22,0
1517,-151,-6,995,-21,0,-4
1518,-72,-31,980,-22,-21,-9
1519,79,-42,1011,-16,-27,-13
1520,139,-53,1012,-14,-10,-12
1521,107,-26,1007,-12,13,-4
1522,-4,7,991,-10,27,-2
1523,-139,19,992,-16,24,3
1524,-158,-1,995,-20,2,-3
1525,-89,-27,989,-23,-19,-9
1526,63,-44,1006,-17,-27,-11
1527,130,-58,1012,-14,-13,-11
1528,129,-25,1005,-8,9,-5
1529,7,0,993,-11,27,-1
1530,-124,18,999,-15,27,1
1531,-167,2,985,-20,7,-2
1532,-97,-16,987,-22,-15,-6
1533,44,-47,1014,-17,-27,-12
1534,123,-55,1007,-14,-17,-11
1535,136,-33,1003,-10,4,-7
1536,21,0,1004,-10,24,-1
1537,-107,11,1000,-14,26,1
1538,-165,10,974,-18,7,-3
1539,-110,-9,993,-21,-15,-7
1540,19,-46,1013,-19,-27,-12
1541,120,-56,1004,-16,-18,-12
1542,142,-33,1010,-10,2,-8
1543,40,-6,1005,-10,23,-2
1544,-87,8,1000,-13,27,2
1545,-165,16,969,-17,13,-1
1546,-126,-11,1000,-21,-10,-7
1547,0,-45,1004,-20,-27,-12
1548,112,-51,997,-16,-21,-12
1549,151,-37,1010,-10,-1,-9
1550,48,-7,1010,-12,21,0
1551,-69,6,1002,-14,27,1
1552,-162,15,973,-19,15,-1
1553,-134,-7,996,-21,-8,-6
1554,-22,-41,1001,-22,-25,-12
1555,107,-52,1007,-17,-24,-13
1556,153,-42,1003,-10,-5,-10
1557,65,-12,1010,-10,19,-3
1558,-51,3,1005,-13,27,0
1559,-157,16,978,-18,17,1
1560,-140,-9,987,-21,-5,-6
1561,-44,-39,996,-20,-23,-10
1562,98,-45,1009,-16,-25,-12
1563,148,-47,1006,-15,-8,-10
1564,86,-22,1003,-9,16,-2
1565,-38,9,1002,-13,28,0
1566,-149,20,989,-19,21,2
1567,-150,-8,998,-21,-2,-4
1568,-64,-35,982,-22,-23,-9
1569,85,-45,1011,-16,-27,-13
1570,145,-53,1009,-13,-10,-10
1571,103,-25,1004,-8,13,-3
1572,-17,8,995,-11,28,0
1573,-144,22,993,-16,23,2
1574,-156,-5,997,-22,1,-5
1575,-81,-29,981,-23,-19,-9
1576,73,-46,1011,-15,-27,-12
1577,134,-55,1010,-12,-12,-13
1578,119,-24,1008,-8,10,-4
1579,2,6,993,-11,25,-1
1580,-133,13,991,-16,24,1
1581,-160,-1,991,-20,4,-4
1582,-94,-20,991,-21,-18,-8
1583,57,-47,1009,-19,-29,-13
1584,127,-52,1008,-14,-15,-12
1585,131,-26,1004,-9,7,-5
1586,17,1,1000,-10,26,-1
1587,-120,8,998,-15,26,2
1588,-160,5,977,-19,7,-3
1589,-103,-15,992,-23,-15,-6
1590,34,-47,1013,-19,-28,-13
1591,120,-57,1006,-14,-18,-12
1592,140,-27,1006,-9,4,-7
1593,31,-5,1004,-9,25,-2
1594,-102,8,999,-14,26,1
1595,-163,10,970,-19,9,-2
1596,-116,-10,998,-21,-11,-7
1597,13,-50,1008,-21,-25,-11
1598,115,-50,1002,-15,-20,-12
1599,147,-35,1007,-10,-2,-8
1600,41,-3,1011,-9,22,-1
1601,-76,2,997,-12,28,0
1602,-167,16,971,-18,14,0
1603,-124,-8,1000,-22,-10,-6
1604,-13,-48,1004,-20,-25,-12
1605,113,-50,1000,-15,-22,-12
1606,148,-39,1007,-10,-3,-9
1607,58,-10,1012,-9,21,-2
1608,-62,10,1005,-13,27,0
1609,-158,16,972,-18,16,0
1610,-135,-9,995,-20,-8,-6
1611,-30,-45,999,-20,-26,-11
1612,101,-48,1006,-15,-24,-11
1613,150,-46,1007,-11,-6,-9
1614,76,-15,1005,-8,19,-3
1615,-46,8,1004,-13,27,-1
1616,-152,21,984,-18,18,1
1617,-143,-10,996,-22,-4,-5
1618,-53,-40,985,-21,-23,-9
1619,91,-48,1013,-16,-26,-11
1620,150,-48,1004,-13,-10,-11
1621,89,-22,1003,-11,15,-4
1622,-27,9,997,-11,27,-1
1623,-150,19,994,-17,21,2
1624,-147,-5,995,-21,-2,-3
1625,-79,-32,983,-22,-22,-10
1626,81,-43,1009,-18,-28,-11
1627,137,-54,1017,-14,-10,-11
1628,110,-26,1002,-11,13,-5
1629,-8,5,996,-11,27,0
1630,-137,21,988,-15,23,2
1631,-160,-2,998,-20,1,-4
1632,-85,-24,989,-22,-18,-8
1633,62,-46,1007,-18,-27,-12
1634,132,-57,1011,-14,-14,-13
1635,121,-31,1002,-8,8,-4
1636,12,3,996,-12,25,-2
1637,-128,14,996,-14,24,2
1638,-161,7,984,-19,5,-2
1639,-101,-18,989,-22,-17,-8
1640,46,-47,1014,-17,-27,-13
1641,123,-56,1006,-14,-17,-11
1642,135,-30,1003,-10,5,-7
1643,22,-2,1005,-10,26,-1
1644,-106,8,998,-13,26,2
1645,-166,11,971,-18,8,-2
1646,-109,-11,995,-20,-14,-7
1647,23,-47,1010,-19,-27,-11
1648,118,-55,1004,-15,-18,-12
1649,143,-31,1008,-11,3,-6
1650,36,-5,1006,-9,24,0
1651,-86,8,998,-12,28,0
1652,-169,15,974,-19,13,-1
1653,-121,-10,996,-21,-10,-7
1654,2,-49,1008,-20,-26,-12
1655,114,-50,999,-15,-20,-11
1656,150,-38,1010,-9,-2,-10
1657,51,-8,1012,-10,23,-2
1658,-72,8,1001,-14,28,0
1659,-164,15,974,-16,15,0
1660,-133,-5,993,-20,-9,-5
1661,-20,-46,1002,-20,-26,-10
1662,108,-49,1003,-15,-23,-12
1663,151,-43,1006,-11,-5,-9
1664,66,-11,1005,-9,19,-3
1665,-54,8,1009,-11,27,0
1666,-160,21,973,-18,18,0
1667,-142,-11,995,-22,-7,-5
1668,-41,-39,994,-23,-24,-10
1669,103,-48,1016,-18,-25,-12
1670,149,-49,1001,-12,-8,-10
1671,85,-20,1003,-7,17,-2
1672,-41,10,1003,-12,29,0
1673,-150,22,988,-17,20,3
1674,-145,-6,996,-21,-3,-5
1675,-66,-37,983,-22,-22,-10
1676,88,-42,1011,-15,-27,-12
1677,145,-53,1012,-14,-10,-11
1678,102,-23,1002,-10,14,-3
1679,-21,7,992,-10,28,-1
1680,-145,19,991,-15,21,0
1681,-151,-4,999,-21,-1,-4
1682,-85,-27,983,-22,-19,-8
1683,73,-44,1011,-17,-28,-13
1684,135,-59,1012,-13,-11,-10
1685,117,-26,1003,-8,10,-4
1686,2,4,996,-11,26,-1
1687,-135,18,992,-15,24,2
1688,-162,2,988,-21,3,-3
1689,-93,-22,995,-20,-17,-9
1690,52,-45,1006,-12,-24,-12
1691,123,-58,1005,-11,-11,-10
1692,132,-31,1005,-10,6,-6
1693,19,4,998,-9,26,0
1694,-114,14,999,-16,27,3
1695,-166,11,982,-20,7,-1
1696,-104,-15,985,-22,-16,-8
1697,38,-52,1015,-19,-28,-13
1698,117,-58,1003,-13,-18,-12
1699,144,-31,1009,-9,4,-8
1700,29,-5,1005,-8,24,-1
1701,-98,14,995,-14,27,3
1702,-164,13,977,-20,11,-1
1703,-119,-10,993,-23,-12,-7
1704,10,-48,1005,-20,-27,-11
1705,115,-55,1007,-16,-20,-13
1706,148,-35,1006,-11,-2,-8
1707,46,-5,1008,-9,23,-2
1708,-78,7,1002,-13,27,0
1709,-161,19,969,-19,13,-2
1710,-128,-7,997,-21,-10,-7
1711,-14,-45,1005,-22,-27,-10
1712,109,-54,995,-16,-22,-12
1713,148,-45,1008,-9,-4,-9
1714,59,-14,1013,-9,21,-2
1715,-58,11,1003,-12,28,1
1716,-158,17,971,-19,16,0
1717,-135,-5,997,-21,-8,-6
1718,-35,-43,997,-23,-24,-11
1719,102,-48,1009,-16,-23,-13
1720,149,-50,1000,-12,-5,-8
1721,79,-18,1003,-7,18,-2
1722,-46,5,1007,-12,26,-1
1723,-154,22,985,-18,19,1
1724,-143,-3,992,-22,-2,-5
1725,-58,-36,991,-21,-23,-10
1726,93,-45,1010,-19,-27,-12
1727,148,-52,1006,-12,-9,-11
1728,89,-25,1002,-9,16,-2
1729,-26,5,1000,-11,28,-1
1730,-148,21,987,-18,22,1
1731,-151,-2,1001,-21,-2,-5
1732,-74,-29,980,-22,-22,-10
1733,76,-43,1008,-17,-26,-12
1734,144,-54,1014,-15,-11,-10
1735,111,-30,1005,-11,13,-4
1736,-8,4,989,-10,26,-1
1737,-138,17,998,-16,23,3
1738,-159,0,991,-20,1,-3
1739,-89,-23,990,-21,-19,-9
1740,65,-44,1012,-18,-28,-12
1741,129,-53,1005,-15,-13,-11
1742,126,-28,1005,-10,7,-6
1743,11,0,997,-10,25,-2
1744,-124,12,995,-13,25,2
1745,-163,3,983,-19,6,-2
1746,-101,-19,992,-22,-15,-8
1747,42,-45,1009,-20,-29,-11
1748,125,-55,1009,-15,-18,-12
1749,136,-28,1007,-8,5,-7
1750,25,-5,1000,-12,26,0
1751,-107,11,1002,-14,26,2
1752,-166,8,972,-20,8,-1
1753,-108,-13,994,-23,-14,-7
1754,22,-46,1013,-18,-27,-11
1755,112,-53,1006,-15,-17,-11
1756,147,-31,1008,-11,1,-7
1757,34,-5,1005,-9,22,-1
1758,-86,8,997,-15,26,0
1759,-164,12,973,-19,11,-1
1760,-126,-9,996,-21,-10,-5
1761,-1,-45,1004,-19,-26,-11
1762,112,-52,1001,-13,-21,-13
1763,146,-38,1006,-10,-1,-8
1764,52,-9,1012,-10,21,-1
1765,-67,5,1003,-12,27,0
1766,-162,15,970,-18,14,0
1767,-133,-8,994,-20,-8,-6
1768,-23,-41,1004,-21,-25,-11
1769,107,-49,1002,-15,-23,-13
1770,151,-42,1004,-10,-4,-9
1771,63,-13,1008,-10,19,-3
1772,-51,7,1003,-11,27,-1
1773,-158,20,976,-19,16,2
1774,-136,-10,992,-20,-5,-7
1775,-46,-38,996,-19,-23,-11
1776,97,-41,1010,-18,-25,-13
1777,148,-47,1006,-12,-9,-10
1778,85,-20,1001,-9,16,-3
1779,-34,1,1003,-12,27,0
1780,-149,20,992,-15,21,2
1781,-146,-4,993,-21,-1,-4
1782,-65,-31,985,-21,-23,-9
1783,84,-44,1009,-16,-26,-11
1784,143,-51,1008,-14,-10,-11
1785,101,-27,1006,-9,13,-4
1786,-14,6,995,-10,27,-1
1787,-144,20,988,-16,23,3
1788,-154,-4,1002,-20,0,-5
1789,-83,-24,983,-23,-19,-9
1790,71,-46,1007,-18,-27,-12
1791,130,-56,1015,-13,-12,-11
1792,118,-28,1003,-11,10,-4
1793,1,-1,995,-10,26,-2
1794,-128,15,994,-15,24,2
1795,-163,3,991,-20,5,-4
1796,-92,-17,988,-20,-16,-8
1797,49,-46,1014,-18,-27,-11
1798,124,-54,1004,-13,-16,-12
1799,134,-32,1006,-9,6,-5
1800,17,-2,998,-10,25,0
1801,-111,10,1002,-14,26,1
1802,-163,8,975,-20,7,-3
1803,-106,-12,991,-21,-14,-6
1804,30,-45,1010,-17,-27,-12
1805,116,-53,1008,-15,-17,-12
1806,141,-30,1006,-11,2,-5
1807,31,-10,1006,-10,22,-2
1808,-94,8,995,-14,25,1
1809,-166,11,975,-20,10,-2
1810,-118,-7,997,-22,-12,-8
1811,11,-45,1008,-21,-27,-13
1812,112,-52,1001,-15,-20,-12
1813,147,-35,1006,-10,-2,-9
1814,43,-8,1012,-10,22,0
1815,-75,6,1002,-14,27,1
1816,-161,13,970,-19,14,0
1817,-125,-9,996,-21,-8,-6
1818,-15,-41,1001,-20,-25,-11
1819,112,-48,1000,-14,-22,-13
1820,150,-41,1006,-13,-5,-9
1821,61,-9,1010,-10,20,-1
1822,-58,6,1005,-14,28,0
1823,-158,15,972,-19,17,0
1824,-138,-11,992,-22,-7,-6
1825,-34,-41,999,-20,-24,-11
1826,100,-49,1010,-16,-23,-10
1827,151,-45,1000,-12,-7,-9
1828,77,-17,1009,-10,17,-3
1829,-37,9,999,-13,26,-1
1830,-156,21,989,-17,20,2
1831,-141,-8,993,-22,-3,-5
1832,-65,-37,989,-21,-23,-10
1833,93,-44,1008,-15,-26,-13
1834,144,-56,1012,-13,-9,-11
1835,96,-23,1002,-8,14,-5
1836,-24,5,998,-12,28,0
1837,-141,23,989,-18,21,2
1838,-152,-8,998,-20,-1,-4
1839,-75,-26,979,-20,-20,-8
1840,73,-46,1013,-18,-25,-12
1841,136,-52,1010,-15,-11,-12
1842,114,-29,1003,-11,11,-5
1843,0,4,994,-10,25,-1
1844,-133,18,992,-16,24,3
1845,-157,4,993,-20,3,-4
1846,-92,-22,990,-22,-17,-7
1847,59,-43,1007,-18,-27,-12
1848,125,-58,1009,-14,-14,-11
1849,131,-29,1002,-9,8,-5
1850,14,-2,1001,-12,26,-2
1851,-119,11,996,-15,26,1
1852,-165,6,980,-20,7,-3
1853,-103,-13,991,-21,-15,-8
1854,36,-49,1014,-18,-28,-12
1855,122,-51,1005,-14,-17,-12
1856,138,-32,1008,-12,4,-6
1857,31,-3,1003,-11,25,-1
1858,-104,6,996,-15,26,2
1859,-163,10,972,-19,9,-2
1860,-116,-13,995,-21,-13,-5
1861,19,-44,1007,-19,-26,-11
1862,117,-52,1003,-14,-18,-12
1863,148,-30,1006,-10,1,-7
1864,38,-7,1007,-11,24,-1
1865,-84,3,1001,-14,26,0
1866,-161,9,966,-19,13,0
1867,-126,-14,1001,-22,-12,-5
1868,-8,-41,1002,-19,-27,-11
1869,113,-49,1004,-14,-22,-12
1870,147,-38,1007,-11,-4,-9
1871,57,-9,1013,-11,20,-2
1872,-59,4,1003,-13,29,1
1873,-166,16,970,-18,16,0
1874,-132,-9,993,-20,-9,-6
1875,-36,-41,1001,-19,-25,-11
1876,103,-48,1006,-15,-23,-12
1877,151,-47,1005,-12,-5,-10
1878,72,-15,1002,-9,19,-3
1879,-45,7,1007,-12,28,0
1880,-156,20,984,-17,20,0
1881,-143,-7,992,-21,-3,-5
1882,-55,-38,994,-22,-23,-10
1883,92,-45,1010,-14,-25,-12
1884,150,-48,1007,-12,-9,-10
1885,88,-25,1002,-9,16,-4
1886,-28,8,995,-11,28,0
1887,-146,21,994,-16,23,1
1888,-152,-6,997,-19,0,-4
1889,-72,-31,980,-21,-22,-9
1890,79,-48,1012,-17,-27,-13
1891,137,-52,1010,-13,-10,-11
1892,113,-24,1008,-9,12,-5
1893,-9,10,992,-11,27,0
1894,-139,19,989,-15,25,2
1895,-157,-4,998,-21,3,-4
1896,-87,-26,988,-23,-19,-7
1897,64,-45,1007,-18,-28,-12
1898,130,-53,1013,-15,-13,-10
1899,122,-24,999,-9,9,-4
1900,11,-1,995,-11,26,-2
1901,-124,10,1001,-15,24,1
1902,-161,4,975,-20,4,-4
1903,-97,-19,995,-22,-17,-9
1904,44,-46,1013,-19,-29,-13
1905,117,-54,1002,-15,-16,-12
1906,138,-30,1007,-11,4,-8
1907,25,-4,1001,-10,26,-1
1908,-101,6,995,-14,27,1
1909,-165,11,976,-20,9,0
1910,-112,-11,995,-21,-13,-6
1911,20,-48,1009,-18,-26,-12
1912,114,-55,1004,-17,-18,-12
1913,145,-32,1010,-10,1,-8
1914,38,-4,1006,-10,23,0
1915,-83,7,1000,-12,27,1
1916,-164,13,970,-19,12,0
1917,-123,-12,997,-22,-10,-5
1918,-5,-46,1005,-20,-27,-12
1919,113,-50,998,-14,-23,-11
1920,146,-41,1006,-10,-2,-9
1921,53,-7,1012,-9,21,-2
1922,-67,8,1006,-12,26,0
1923,-159,18,968,-18,15,1
1924,-135,-10,996,-22,-9,-6
1925,-25,-41,1000,-21,-23,-11
1926,101,-50,1010,-16,-23,-13
1927,148,-46,1000,-11,-6,-10
1928,68,-15,1009,-9,19,-4
1929,-45,8,1006,-12,27,0
1930,-159,22,983,-19,18,2
1931,-136,-7,992,-22,-5,-6
1932,-52,-42,994,-21,-22,-10
1933,96,-43,1009,-14,-25,-12
1934,147,-51,1007,-12,-8,-10
1935,88,-23,1002,-5,15,-3
1936,-31,11,999,-12,27,1
1937,-146,25,993,-17,20,1
1938,-149,-7,996,-22,-3,-4
1939,-68,-33,980,-22,-22,-11
1940,80,-47,1011,-18,-27,-13
1941,139,-53,1009,-13,-11,-12
1942,109,-27,1006,-11,14,-5
1943,-12,3,993,-10,27,-1
1944,-141,24,989,-14,23,2
1945,-154,-1,998,-22,0,-5
1946,-86,-22,984,-22,-19,-8
1947,68,-47,1011,-18,-27,-13
1948,131,-57,1011,-13,-13,-12
1949,120,-27,1004,-8,10,-4
1950,8,0,998,-10,25,-1
1951,-127,16,993,-14,24,2
1952,-160,6,986,-19,5,-3
1953,-94,-19,996,-20,-16,-8
1954,45,-47,1007,-18,-27,-12
1955,121,-57,1009,-14,-16,-12
1956,137,-28,1005,-8,7,-6
1957,22,-1,1002,-10,26,-1
1958,-110,11,996,-15,26,1
1959,-164,6,979,-18,9,-2
1960,-110,-14,989,-21,-12,-6
1961,27,-51,1011,-20,-28,-12
1962,116,-55,1007,-14,-18,-12
1963,143,-29,1008,-9,3,-7
1964,35,-6,1005,-10,24,-1
1965,-89,6,996,-13,26,1
1966,-167,9,969,-19,12,-1
1967,-122,-9,1000,-20,-11,-8
1968,0,-52,1005,-20,-28,-12
1969,116,-48,996,-14,-21,-12
1970,146,-39,1012,-9,-2,-8
1971,49,-7,1007,-9,22,-2
1972,-70,7,1002,-15,28,1
1973,-162,16,972,-18,15,0
1974,-132,-11,994,-20,-10,-6
1975,-22,-43,1000,-19,-26,-11
1976,106,-51,1007,-14,-22,-12
1977,150,-43,1001,-11,-4,-9
1978,66,-13,1008,-9,20,-2
1979,-52,8,1005,-12,26,0
1980,-155,23,977,-19,18,2
1981,-139,-7,991,-21,-6,-5
1982,-44,-37,995,-21,-24,-10
1983,97,-48,1011,-18,-24,-12
1984,150,-48,1003,-13,-8,-11
1985,82,-21,1002,-8,15,-3
1986,-33,9,999,-10,27,-2
1987,-154,22,990,-17,21,1
1988,-145,-5,996,-20,-2,-6
1989,-65,-33,981,-21,-22,-9
1990,86,-42,1010,-16,-26,-13
1991,142,-54,1011,-13,-10,-11
1992,101,-24,1004,-9,14,-5
1993,-19,4,994,-12,27,0
1994,-143,21,989,-15,23,1
1995,-150,-4,998,-21,0,-4
1996,-79,-27,982,-22,-20,-8
1997,71,-43,1010,-18,-27,-12
1998,132,-53,1011,-15,-12,-11
1999,118,-26,1002,-9,8,-5
2000,0,3,996,-10,26,-1
2001,-126,14,994,-16,23,1
2002,-160,0,987,-19,3,-3
2003,-88,-15,993,-20,-18,-8
2004,51,-49,1010,-18,-27,-12
2005,124,-55,1003,-13,-15,-11
2006,125,-29,1006,-10,7,-5
2007,19,-1,1001,-11,24,-3
2008,-112,6,1001,-14,25,2
2009,-162,8,972,-20,8,-3
2010,-106,-13,996,-20,-15,-7
2011,30,-48,1008,-18,-29,-12
2012,117,-55,1006,-16,-19,-11
2013,141,-29,1012,-9,3,-7
2014,31,-7,999,-12,23,-1
2015,-92,8,999,-14,26,2
2016,-163,10,972,-19,10,-2
2017,-119,-10,996,-23,-10,-7
2018,13,-48,1010,-19,-25,-12
2019,110,-49,997,-14,-21,-11
2020,150,-35,1008,-11,-1,-9
2021,41,-7,1014,-9,23,-1
2022,-72,10,994,-13,27,0
2023,-166,11,974,-18,13,-1
2024,-125,-8,995,-22,-11,-6
2025,-13,-44,1002,-21,-26,-12
2026,110,-47,1002,-14,-22,-13
2027,146,-45,1005,-11,-4,-10
2028,60,-11,1009,-10,21,-2
2029,-56,7,1004,-11,27,1
2030,-156,20,973,-19,15,0
2031,-136,-7,992,-22,-6,-5
2032,-39,-39,995,-23,-20,-9
2033,99,-50,1012,1,-20,-14
2034,148,-48,999,-8,-4,-9
2035,76,-18,1002,-9,17,-3
2036,-39,10,1005,-11,26,-2
2037,-155,22,986,-17,21,1
2038,-138,-5,992,-23,-4,-5
2039,-63,-38,989,-19,-22,-9
2040,88,-41,1011,-18,-26,-12
2041,144,-54,1009,-13,-10,-11
2042,94,-25,1003,-8,15,-3
2043,-20,8,993,-10,26,-1
2044,-142,22,993,-14,22,1
2045,-149,0,997,-21,0,-5
2046,-79,-29,982,-23,-20,-8
2047,75,-50,1007,-18,-26,-11
2048,134,-56,1014,-15,-11,-9
2049,114,-26,1004,-8,10,-5
2050,-1,4,994,-10,25,-1
2051,-135,19,991,-15,23,2
2052,-157,4,993,-20,3,-4
2053,-94,-19,991,-24,-17,-8
2054,58,-48,1006,-18,-27,-13
2055,128,-57,1010,-12,-13,-11
2056,128,-27,1003,-8,7,-6
2057,16,1,998,-10,25,-1
2058,-120,10,999,-17,26,1
2059,-164,7,977,-19,6,-3
2060,-103,-12,991,-23,-15,-7
2061,37,-49,1011,-19,-28,-12
2062,115,-56,1006,-13,-16,-10
2063,143,-30,1008,-9,4,-7
2064,28,-3,1007,-10,24,-1
2065,-96,11,990,-14,27,1
2066,-168,8,980,-18,9,-3
2067,-116,-7,995,-21,-12,-7
2068,13,-51,1007,-21,-26,-12
2069,117,-52,1006,-15,-20,-13
2070,143,-36,1009,-9,0,-8
2071,43,-4,1004,-10,23,-2
2072,-83,4,1005,-14,27,1
2073,-165,13,965,-18,14,-1
2074,-127,-12,1000,-20,-9,-7
2075,-7,-45,1005,-20,-26,-11
2076,111,-51,997,-14,-20,-12
2077,149,-38,1007,-12,-2,-7
2078,57,-12,1016,-10,21,-1
2079,-60,6,1000,-13,27,0
2080,-161,16,972,-18,17,0
2081,-134,-9,994,-19,-7,-6
2082,-31,-42,1001,-20,-24,-10
2083,103,-48,1008,-16,-22,-12
2084,153,-46,1004,-12,-4,-10
2085,74,-17,1003,-9,18,-2
2086,-47,10,1004,-13,28,-1
2087,-152,22,989,-19,19,0
2088,-142,-9,989,-21,-4,-4
2089,-53,-40,988,-19,-23,-10
2090,92,-42,1012,-16,-26,-11
2091,147,-51,1007,-12,-9,-9
2092,93,-22,1000,-8,14,-3
2093,-30,6,1001,-11,27,0
2094,-144,25,990,-16,23,1
2095,-151,-9,997,-21,-2,-5
2096,-70,-29,981,-20,-21,-10
2097,81,-45,1012,-16,-28,-12
2098,141,-55,1010,-13,-11,-11
2099,109,-29,1011,-10,14,-4
2100,-7,3,987,-11,26,-2
2101,-137,19,992,-14,24,1
2102,-156,1,998,-19,0,-4
2103,-89,-22,986,-21,-17,-8
2104,67,-45,1009,-19,-27,-11
2105,126,-56,1012,-12,-12,-11
2106,125,-26,999,-8,7,-5
2107,7,0,1000,-11,24,-2
2108,-124,11,996,-16,24,2
2109,-160,4,981,-18,6,-4
2110,-98,-15,995,-21,-16,-7
2111,43,-46,1008,-19,-28,-11
2112,121,-52,1010,-16,-16,-13
2113,133,-30,1003,-12,5,-7
2114,25,-5,1002,-11,25,-2
2115,-105,3,994,-14,25,0
2116,-168,10,976,-17,8,-1
2117,-107,-11,990,-21,-13,-7
2118,21,-51,1013,-18,-26,-13
2119,117,-46,1003,-15,-19,-12
2120,142,-32,1013,-12,2,-8
2121,37,-4,1002,-12,24,-2
2122,-88,2,1000,-14,26,1
2123,-164,9,970,-17,10,-2
2124,-122,-11,998,-21,-11,-6
2125,5,-44,1005,-19,-26,-12
2126,108,-49,999,-14,-20,-11
2127,149,-34,1008,-10,-2,-8
2128,48,-9,1014,-10,21,-2
2129,-67,9,999,-14,28,1
2130,-162,14,973,-18,14,0
2131,-130,-8,994,-21,-9,-6
2132,-23,-44,1003,-20,-26,-13
2133,105,-46,1006,-15,-23,-13
2134,147,-43,1001,-13,-5,-9
2135,66,-11,1012,-8,19,-2
2136,-53,6,1006,-12,27,0
2137,-159,18,976,-18,17,1
2138,-140,-10,995,-20,-6,-5
2139,-49,-36,995,-20,-23,-9
2140,100,-46,1015,-15,-24,-12
2141,151,-48,1002,-10,-8,-10
2142,83,-21,998,-8,16,-1
2143,-32,7,1005,-10,26,-1
2144,-151,18,989,-17,20,2
2145,-144,-6,991,-18,-2,-6
2146,-68,-37,984,-20,-21,-10
2147,85,-40,1011,-15,-26,-11
2148,145,-53,1010,-14,-10,-11
2149,101,-25,1006,-10,14,-4
2150,-18,4,994,-10,27,0
2151,-140,19,989,-15,21,1
2152,-153,-4,1000,-20,0,-4
2153,-79,-23,980,-21,-19,-9
2154,71,-48,1010,-17,-26,-12
2155,131,-52,1010,-13,-12,-12
2156,118,-26,1003,-10,9,-5
2157,5,2,993,-10,26,-1
2158,-132,14,995,-16,24,3
2159,-157,-1,988,-21,4,-3
2160,-93,-20,992,-20,-16,-8
2161,52,-43,1007,-18,-27,-11
2162,127,-54,1011,-14,-15,-13
2163,128,-29,1004,-10,6,-5
2164,21,-1,997,-10,26,-1
2165,-117,11,1002,-14,26,2
2166,-166,6,978,-19,7,-3
2167,-103,-12,988,-22,-15,-8
2168,34,-50,1014,-20,-27,-13
2169,117,-52,1002,-13,-18,-12
2170,138,-34,1013,-9,3,-7
2171,29,-3,1000,-11,24,-1
2172,-97,7,999,-15,26,1
2173,-167,12,971,-19,10,-2
2174,-116,-11,994,-22,-13,-7
2175,15,-49,1011,-20,-27,-11
2176,111,-50,1000,-15,-20,-11
2177,148,-33,1007,-11,-1,-9
2178,42,-4,1010,-10,22,-2
2179,-80,6,996,-14,26,1
2180,-159,12,973,-17,12,-2
2181,-129,-10,997,-23,-9,-4
2182,-10,-41,1001,-20,-26,-12
2183,111,-49,1002,-16,-21,-12
2184,145,-41,1002,-12,-3,-7
2185,60,-11,1012,-9,21,-3
2186,-63,6,1006,-13,29,1
2187,-160,16,967,-18,15,1
2188,-135,-11,997,-20,-7,-5
2189,-35,-38,997,-20,-25,-10
2190,104,-47,1007,-15,-22,-14
2191,151,-47,1002,-11,-5,-10
2192,75,-12,1004,-10,17,-1
2193,-41,5,1007,-12,26,-1
2194,-159,15,982,-18,20,2
2195,-141,-9,994,-21,-5,-6
2196,-59,-39,989,-19,-24,-10
2197,94,-38,1010,-16,-25,-13
2198,148,-50,1007,-13,-8,-10
2199,91,-21,1003,-8,16,-2
2200,-23,4,999,-13,28,0
2201,-147,21,992,-17,22,1
2202,-149,-7,994,-21,-1,-4
2203,-75,-33,979,-19,-22,-10
2204,78,-43,1011,-16,-28,-12
2205,142,-52,1013,-13,-10,-10
2206,108,-27,1006,-11,13,-4
2207,-6,5,991,-11,26,-2
2208,-137,19,992,-16,23,2
2209,-159,-2,996,-21,1,-3
2210,-88,-28,989,-22,-19,-9
2211,64,-44,1010,-16,-28,-11
2212,130,-50,1011,-13,-14,-11
2213,124,-28,1002,-10,9,-4
2214,6,-2,995,-11,25,-1
2215,-123,13,994,-16,26,1
2216,-165,1,983,-21,6,-4
2217,-95,-17,991,-21,-16,-8
2218,44,-48,1011,-20,-28,-12
2219,122,-47,1007,-13,-16,-12
2220,140,-30,1009,-11,5,-6
2221,25,-4,1001,-11,25,-2
2222,-110,9,997,-14,27,1
2223,-168,7,980,-20,8,-3
2224,-110,-12,990,-20,-16,-8
2225,25,-46,1009,-18,-27,-11
2226,122,-50,1011,-15,-17,-12
2227,141,-33,1007,-11,2,-7
2228,34,-4,1005,-12,23,-2
2229,-90,4,1000,-13,27,1
2230,-167,9,971,-18,11,-1
2231,-119,-12,997,-20,-13,-7
2232,7,-47,1010,-20,-28,-11
2233,113,-48,998,-13,-19,-10
2234,147,-35,1009,-9,-1,-8
2235,46,-8,1014,-11,22,-1
2236,-71,6,999,-14,27,1
2237,-166,10,969,-19,15,-1
2238,-130,-10,997,-20,-9,-6
2239,-18,-44,1000,-21,-26,-11
2240,109,-50,1000,-15,-22,-13
2241,150,-39,1009,-10,-3,-9
2242,64,-10,1012,-10,20,-3
2243,-56,10,1005,-11,29,0
2244,-162,16,975,-17,17,0
2245,-139,-8,990,-19,-6,-5
2246,-41,-45,1000,-22,-25,-10
2247,102,-48,1009,-17,-23,-11
2248,150,-49,1001,-11,-6,-9
2249,80,-13,1003,-8,19,-2
2250,-39,10,1007,-10,27,-1
2251,-157,22,985,-18,19,1
2252,-145,-7,992,-22,-3,-5
2253,-58,-38,991,-21,-23,-10
2254,89,-47,1007,-15,-26,-11
2255,151,-53,1011,-12,-9,-10
2256,96,-25,1002,-9,14,-3
2257,-24,12,995,-11,27,-1
2258,-145,24,996,-18,22,2
2259,-155,-5,997,-22,-1,-4
2260,-77,-31,980,-21,-21,-8
2261,81,-46,1015,-15,-27,-13
2262,137,-57,1009,-16,-10,-10
2263,115,-25,1003,-9,12,-4
2264,-4,5,995,-11,26,-1
2265,-139,22,990,-15,25,2
2266,-160,-2,994,-20,2,-4
2267,-91,-23,987,-23,-19,-8
2268,66,-47,1007,-19,-28,-13
2269,127,-59,1010,-12,-13,-12
2270,128,-27,1003,-9,9,-6
2271,12,0,996,-11,25,-1
2272,-129,16,994,-16,26,2
2273,-160,5,987,-19,5,-3
2274,-103,-17,990,-22,-16,-6
2275,44,-45,1007,-19,-29,-12
2276,121,-56,1012,-15,-17,-12
2277,134,-30,1003,-10,7,-5
2278,26,-6,1002,-10,26,0
2279,-106,11,999,-16,25,1
2280,-165,8,974,-19,8,-1
2281,-110,-9,991,-21,-14,-6
2282,21,-50,1011,-20,-27,-12
2283,118,-55,1007,-15,-18,-13
2284,142,-37,1005,-10,2,-7
2285,37,-6,1007,-9,24,-1
2286,-86,7,999,-13,26,2
2287,-170,15,969,-19,11,0
2288,-120,-7,997,-22,-11,-7
2289,2,-47,1006,-20,-28,-12
2290,114,-51,1000,-14,-21,-12
2291,148,-37,1012,-9,-1,-9
2292,51,-8,1009,-10,22,-1
2293,-70,5,998,-14,27,0
2294,-165,18,973,-19,15,-1
2295,-129,-5,999,-22,-10,-6
2296,-19,-41,999,-21,-25,-9
2297,107,-52,1003,-16,-22,-12
2298,153,-45,1007,-11,-4,-10
2299,61,-14,1009,-10,21,-3
2300,-50,8,1004,-13,26,0
2301,-165,20,975,-19,17,1
2302,-135,-3,992,-20,-6,-5
2303,-42,-45,998,-21,-23,-11
2304,100,-45,1009,-16,-24,-13
2305,153,-50,1003,-12,-6,-10
2306,78,-16,1002,-9,18,-3
2307,-40,7,1006,-13,27,0
2308,-158,21,986,-17,19,2
2309,-145,-10,990,-22,-4,-6
2310,-61,-37,993,-21,-23,-11
2311,91,-40,1011,-16,-25,-12
2312,150,-48,1009,-12,-9,-10
2313,95,-23,1006,-10,15,-4
2314,-26,4,994,-12,30,0
2315,-149,19,992,-16,24,3
2316,-155,-7,998,-20,-2,-4
2317,-75,-32,981,-20,-21,-10
2318,78,-42,1009,-15,-27,-12
2319,142,-52,1013,-13,-11,-11
2320,113,-24,1008,-11,12,-4
2321,-10,5,988,-13,27,0
2322,-136,16,993,-15,23,2
2323,-160,-6,994,-20,0,-2
2324,-92,-23,986,-22,-19,-8
2325,66,-48,1013,-17,-27,-13
2326,132,-53,1006,-12,-14,-11
2327,125,-25,1003,-10,9,-5
2328,13,2,999,-10,26,-2
2329,-128,14,992,-16,26,2
2330,-162,1,984,-19,6,-3
2331,-102,-19,992,-22,-16,-8
2332,49,-50,1008,-18,-29,-12
2333,123,-55,1006,-13,-16,-11
2334,139,-28,1008,-9,5,-6
2335,23,1,1001,-11,23,-2
2336,-109,9,998,-15,26,1
2337,-170,11,978,-18,8,-2
2338,-107,-17,987,-23,-15,-8
2339,22,-50,1011,-21,-28,-12
2340,123,-55,1008,-15,-18,-12
2341,147,-35,1007,-10,3,-8
2342,36,-1,1003,-10,23,-1
2343,-94,7,1002,-13,27,1
2344,-167,15,969,-19,11,-2
2345,-124,-9,999,-21,-11,-6
2346,8,-45,1004,-19,-27,-11
2347,113,-54,1001,-14,-20,-11
2348,149,-34,1007,-9,0,-9
2349,47,-9,1012,-10,24,-1
2350,-73,9,1001,-14,28,1
2351,-168,11,969,-18,16,0
2352,-130,-5,1001,-19,-9,-6
2353,-16,-45,1001,-21,-25,-10
2354,107,-48,1003,-14,-22,-12
2355,151,-45,1005,-11,-4,-9
2356,63,-13,1011,-11,20,-3
2357,-55,6,1004,-13,27,1
2358,-161,15,976,-18,17,1
2359,-141,-6,988,-20,-6,-4
2360,-39,-42,1000,-21,-24,-10
2361,103,-46,1009,-17,-25,-12
2362,152,-45,1002,-11,-8,-9
2363,81,-15,1004,-10,16,-1
2364,-42,5,1007,-12,27,0
2365,-155,22,981,-18,20,1
2366,-145,-9,993,-20,-2,-5
2367,-58,-35,990,-19,-25,-11
2368,94,-43,1011,-19,-27,-12
2369,148,-52,1005,-12,-10,-10
2370,92,-24,1004,-9,16,-2
2371,-28,4,995,-11,27,-2
2372,-148,20,993,-16,22,1
2373,-150,-5,994,-21,-1,-4
2374,-77,-28,980,-21,-21,-8
2375,81,-41,1009,-17,-29,-13
2376,142,-55,1016,-15,-10,-12
2377,109,-26,1001,-10,12,-4
2378,-7,0,996,-11,26,-1
2379,-139,20,989,-15,23,2
2380,-157,-1,996,-20,1,-3
2381,-87,-24,986,-23,-18,-8
2382,65,-44,1009,-19,-27,-13
2383,130,-51,1012,-15,-13,-12
2384,125,-29,1004,-9,7,-5
2385,10,0,995,-10,24,-1
2386,-129,15,999,-15,26,2
2387,-165,2,984,-18,5,-4
2388,-100,-18,993,-21,-18,-8
2389,48,-46,1008,-18,-30,-12
2390,125,-55,1011,-13,-15,-11
2391,136,-28,1005,-11,5,-6
2392,22,-2,999,-10,25,-1
2393,-111,7,1002,-14,27,1
2394,-170,8,972,-20,7,-2
2395,-110,-14,994,-21,-14,-8
2396,26,-46,1011,-20,-29,-12
2397,118,-54,1004,-16,-18,-12
2398,147,-32,1011,-11,3,-8
2399,34,-5,1003,-11,25,0
2400,-93,7,998,-12,26,1
2401,-167,8,974,-21,10,0
2402,-122,-9,994,-20,-13,-7
2403,5,-47,1008,-19,-27,-13
2404,115,-48,1000,-16,-20,-12
2405,149,-34,1010,-8,0,-7
2406,48,-8,1007,-11,22,-1
2407,-73,4,1005,-13,27,1
2408,-164,12,968,-18,15,0
2409,-132,-9,995,-22,-9,-6
2410,-14,-45,1006,-19,-26,-11
2411,112,-49,999,-13,-23,-12
2412,154,-40,1008,-9,-4,-9
2413,62,-11,1012,-8,21,-2
2414,-60,6,1005,-12,28,1
2415,-160,16,972,-17,16,0
2416,-143,-9,992,-22,-7,-4
2417,-37,-42,998,-22,-25,-11
2418,106,-49,1009,-15,-24,-11
2419,151,-46,1002,-12,-5,-9
2420,82,-16,1005,-8,18,-4
2421,-42,4,1007,-12,27,-1
2422,-158,24,981,-19,20,1
2423,-144,-9,997,-22,-3,-5
2424,-60,-36,988,-21,-23,-9
2425,88,-42,1011,-16,-25,-11
2426,152,-50,1010,-11,-9,-11
2427,90,-23,1002,-9,15,-3
2428,-18,6,995,-12,27,-1
2429,-151,19,992,-16,23,1
2430,-151,-3,993,-21,0,-5
2431,-77,-32,983,-21,-21,-9
2432,76,-42,1010,-16,-27,-13
2433,141,-53,1013,-14,-11,-11
2434,110,-27,1009,-9,13,-4
2435,-10,3,991,-12,27,-1
2436,-137,17,990,-15,23,2
2437,-162,-5,995,-20,2,-3
2438,-87,-22,989,-21,-19,-9
2439,65,-43,1009,-16,-28,-13
2440,131,-54,1009,-13,-13,-12
2441,123,-25,1006,-9,8,-6
2442,11,0,995,-10,26,-1
2443,-127,14,997,-15,25,1
2444,-162,3,984,-19,5,-3
2445,-102,-21,991,-22,-16,-8
2446,47,-45,1011,-18,-28,-11
2447,123,-57,1009,-13,-15,-12
2448,138,-26,1000,-9,5,-6
2449,23,-2,1003,-9,25,-1
2450,-108,11,997,-14,27,2
2451,-168,4,976,-20,7,-2
2452,-110,-12,989,-21,-14,-7
2453,25,-50,1015,-18,-27,-12
2454,116,-53,1002,-14,-17,-12
2455,146,-33,1007,-10,4,-8
2456,35,-4,1007,-7,24,-3
2457,-91,10,995,-12,27,1
2458,-164,11,976,-20,13,-2
2459,-125,-9,996,-23,-10,-6
2460,5,-49,1002,-19,-25,-12
2461,113,-54,1004,-16,-21,-11
2462,147,-36,1005,-11,-2,-7
2463,50,-10,1010,-10,22,-2
2464,-72,9,1004,-14,28,1
2465,-166,17,970,-19,15,2
2466,-133,-9,993,-22,-9,-6
2467,-20,-44,1004,-22,-26,-11
2468,112,-49,1001,-17,-23,-11
2469,152,-47,1007,-12,-3,-9
2470,64,-9,1009,-11,21,-2
2471,-58,4,1007,-13,28,0
2472,-160,17,973,-16,16,0
2473,-143,-4,995,-20,-7,-5
2474,-39,-38,998,-20,-25,-11
2475,101,-48,1012,-16,-24,-13
2476,151,-48,998,-13,-7,-9
2477,79,-18,1007,-9,18,-2
2478,-42,8,1004,-12,28,-1
2479,-155,17,985,-18,20,1
2480,-147,-7,992,-21,-4,-6
2481,-61,-37,989,-21,-22,-9
2482,93,-41,1009,-16,-27,-11
2483,148,-51,1007,-12,-10,-11
2484,98,-21,1004,-10,15,-4
2485,-24,6,998,-12,30,-1
2486,-147,20,988,-16,23,1
2487,-154,-8,999,-21,-2,-5
2488,-77,-32,978,-21,-21,-9
2489,80,-45,1010,-16,-27,-12
2490,139,-51,1017,-13,-11,-11
2491,116,-23,1005,-10,12,-4
2492,-7,6,991,-10,27,-1
2493,-138,17,992,-16,23,2
2494,-160,-3,996,-20,2,-3
2495,-90,-23,985,-22,-19,-9
2496,64,-47,1012,-18,-28,-12
2497,126,-56,1010,-12,-14,-11
2498,128,-23,1001,-9,7,-5
2499,13,-1,1000,-11,25,-2
2500,-125,17,993,-17,26,2
2501,-163,0,985,-22,7,-3
2502,-101,-15,992,-21,-16,-7
2503,45,-51,1011,-19,-28,-11
2504,122,-56,1005,-13,-16,-12
2505,137,-29,1007,-10,5,-6
2506,26,0,1000,-11,26,-1
2507,-105,8,999,-14,26,2
2508,-165,10,975,-20,8,-2
2509,-111,-11,991,-22,-12,-7
2510,19,-49,1014,-20,-27,-11
2511,119,-55,1002,-15,-18,-11
2512,143,-32,1009,-10,3,-7
2513,40,-7,1004,-10,23,-1
2514,-89,8,1000,-13,26,2
2515,-164,15,971,-19,11,0
2516,-124,-11,998,-21,-10,-6
2517,0,-44,1006,-21,-26,-12
2518,113,-53,1002,-16,-21,-12
2519,147,-39,1011,-9,-2,-9
2520,51,-10,1010,-10,22,-1
2521,-69,7,1005,-13,30,2
2522,-162,19,972,-19,15,1
2523,-135,-10,994,-22,-9,-5
2524,-22,-45,1003,-21,-27,-11
2525,101,-47,1001,-16,-23,-11
2526,152,-45,1007,-10,-5,-11
2527,62,-11,1008,-8,20,-1
2528,-52,6,1007,-13,28,0
2529,-158,18,976,-18,17,1
2530,-142,-8,991,-22,-6,-4
2531,-43,-39,997,-21,-25,-12
2532,98,-47,1013,-17,-26,-11
2533,153,-48,1001,-11,-8,-11
2534,82,-23,1004,-9,16,-3
2535,-37,13,1003,-10,27,1
2536,-153,22,992,-18,22,2
2537,-147,-5,990,-21,-2,-4
2538,-62,-36,986,-22,-22,-9
2539,88,-43,1008,-16,-27,-12
2540,144,-52,1012,-14,-10,-10
2541,101,-26,1005,-9,12,-6
2542,-21,4,994,-11,27,-1
2543,-142,21,989,-16,23,3
2544,-153,-3,1001,-22,0,-4
2545,-78,-27,980,-22,-20,-9
2546,72,-43,1010,-15,-26,-13
2547,133,-57,1012,-14,-10,-11
2548,118,-26,1007,-9,11,-4
2549,-1,2,993,-12,27,-1
2550,-135,19,992,-15,24,2
2551,-160,0,992,-21,3,-4
2552,-94,-20,989,-23,-17,-8
2553,57,-47,1010,-18,-27,-14
2554,129,-54,1007,-14,-14,-13
2555,133,-29,1004,-9,7,-6
2556,15,2,1000,-12,26,0
2557,-120,12,997,-15,26,2
2558,-167,7,979,-20,6,-2
2559,-102,-17,993,-21,-16,-7
2560,37,-50,1011,-17,-28,-13
2561,123,-54,1007,-13,-17,-12
2562,138,-31,1010,-9,4,-7
2563,30,-4,1000,-11,25,-2
2564,-98,8,997,-12,26,1
2565,-167,12,972,-19,10,-1
2566,-116,-11,997,-19,-12,-7
2567,13,-48,1005,-18,-27,-12
2568,116,-53,1007,-14,-19,-12
2569,147,-35,1005,-10,0,-7
2570,42,-6,1007,-10,23,-2
2571,-79,6,1003,-13,27,0
2572,-165,12,967,-19,14,0
2573,-126,-10,1000,-21,-9,-6
2574,-8,-43,1002,-20,-26,-11
2575,112,-53,1000,-12,-22,-12
2576,150,-38,1007,-9,-3,-8
2577,57,-8,1010,-10,21,-2
2578,-64,7,1006,-15,27,1
2579,-163,14,970,-18,17,1
2580,-133,-11,993,-21,-8,-7
2581,-32,-43,1002,-20,-26,-12
2582,103,-47,1008,-17,-24,-11
2583,152,-45,1001,-13,-5,-10
2584,72,-18,1005,-8,18,-2
2585,-46,11,1004,-13,28,-1
2586,-157,20,985,-18,19,0
2587,-139,-8,992,-21,-4,-6
2588,-52,-39,991,-21,-23,-10
2589,95,-43,1010,-16,-25,-13
2590,146,-52,1007,-12,-8,-10
2591,92,-20,999,-9,14,-3
2592,-31,7,998,-11,29,-1
2593,-147,22,995,-18,22,2
2594,-150,-6,994,-21,-2,-4
2595,-72,-29,981,-21,-21,-10
2596,80,-46,1011,-15,-27,-12
2597,142,-53,1011,-13,-10,-11
2598,107,-28,1004,-8,14,-4
2599,-12,6,992,-11,26,0
2600,-136,21,993,-15,24,2
2601,-158,-4,998,-20,2,-5
2602,-89,-23,985,-21,-18,-8
2603,68,-47,1012,-17,-27,-11
2604,130,-54,1008,-13,-14,-11
2605,123,-26,1004,-9,8,-4
2606,10,0,998,-10,26,0
2607,-129,15,994,-16,26,3
2608,-157,5,985,-20,4,-3
2609,-99,-19,992,-21,-17,-9
2610,46,-49,1009,-20,-29,-13
2611,123,-56,1010,-12,-17,-13
2612,138,-28,1005,-9,5,-6
2613,18,1,1002,-10,25,-1
2614,-105,10,999,-15,25,2
2615,-170,7,974,-19,8,-1
2616,-108,-14,989,-22,-16,-8
2617,22,-51,1011,-18,-28,-11
2618,118,-52,1006,-13,-18,-11
2619,141,-32,1011,-11,2,-8
2620,33,-6,1004,-11,23,-2
2621,-85,9,997,-11,25,0
2622,-170,13,972,-19,12,-1
2623,-120,-8,997,-21,-11,-7
2624,3,-51,1006,-20,-28,-11
2625,112,-49,1000,-15,-21,-11
2626,147,-34,1010,-10,-1,-9
2627,49,-6,1009,-10,22,-1
2628,-71,4,1001,-14,28,1
2629,-165,13,972,-17,14,0
2630,-130,-9,995,-22,-9,-5
2631,-21,-44,998,-20,-25,-12
2632,108,-48,1009,-15,-22,-12
2633,151,-43,1001,-12,-3,-9
2634,63,-11,1012,-9,21,-3
2635,-54,6,1006,-13,27,1
2636,-158,17,974,-18,18,1
2637,-139,-8,991,-21,-6,-5
2638,-44,-41,997,-20,-25,-12
2639,105,-45,1009,-17,-24,-11
2640,147,-47,1000,-13,-7,-10
2641,80,-17,1003,-8,16,-3
2642,-40,5,1008,-13,27,-1
2643,-154,18,983,-18,20,1
2644,-147,-9,996,-21,-4,-4
2645,-62,-37,987,-19,-23,-11
2646,89,-43,1007,-15,-26,-12
2647,147,-51,1013,-14,-9,-10
2648,94,-24,1005,-8,15,-3
2649,-18,7,993,-10,27,0
2650,-150,20,993,-17,22,2
2651,-154,-5,999,-23,-1,-4
2652,-76,-29,982,-21,-21,-10
2653,76,-45,1007,-16,-27,-13
2654,138,-54,1015,-13,-11,-13
2655,114,-27,1003,-10,11,-5
2656,-5,7,990,-9,26,-1
2657,-132,16,993,-16,24,3
2658,-161,1,992,-21,4,-3
2659,-90,-22,990,-21,-17,-8
2660,61,-49,1011,-18,-28,-14
2661,129,-57,1006,-12,-14,-13
2662,131,-26,1006,-9,8,-6
2663,14,0,998,-10,27,-1
2664,-118,14,996,-15,26,3
2665,-168,8,978,-20,7,-3
2666,-103,-16,992,-21,-15,-7
2667,38,-47,1011,-19,-27,-13
2668,117,-56,1005,-13,-16,-11
2669,143,-31,1011,-10,4,-7
2670,27,-10,1001,-11,25,-2
2671,-101,12,998,-13,26,0
2672,-168,10,976,-20,10,-1
2673,-115,-7,991,-22,-12,-7
2674,15,-46,1012,-20,-26,-10
2675,116,-51,1004,-15,-18,-12
2676,150,-37,1008,-10,1,-7
2677,38,-6,1003,-8,24,-2
2678,-81,4,1000,-15,28,0
2679,-162,10,970,-17,13,-2
2680,-125,-8,996,-21,-11,-5
2681,-5,-42,1006,-20,-26,-11
2682,110,-49,999,-15,-22,-12
2683,147,-40,1008,-11,-3,-8
2684,57,-11,1012,-9,21,-2
2685,-70,3,1005,-13,28,0
2686,-158,17,965,-17,14,-1
2687,-137,-6,997,-20,-8,-5
2688,-26,-39,1001,-22,-27,-11
2689,105,-45,1005,-14,-22,-12
2690,152,-45,1003,-12,-5,-8
2691,67,-16,1007,-10,19,-2
2692,-45,5,1001,-12,27,-1
2693,-160,19,983,-18,19,3
2694,-138,-4,990,-21,-5,-5
2695,-54,-37,996,-19,-23,-11
2696,99,-43,1011,-16,-25,-13
2697,148,-50,1004,-13,-8,-10
2698,88,-24,1000,-9,17,-4
2699,-32,5,1004,-12,28,0
2700,-145,21,993,-16,21,1
2701,-147,-5,995,-22,2,-3
2702,-74,-28,985,-23,-20,-8
2703,82,-47,1007,-18,-27,-11
2704,146,-51,1014,-13,-10,-11
2705,103,-29,1000,-12,14,-1
2706,-8,3,992,-10,26,-2
2707,-142,15,994,-17,22,3
2708,-155,0,994,-19,0,-3
2709,-86,-26,987,-21,-19,-10
2710,71,-42,1010,-16,-27,-12
2711,133,-55,1012,-14,-13,-10
2712,121,-30,1003,-9,9,-4
2713,4,0,996,-10,26,-1
2714,-129,13,992,-16,26,1
2715,-163,2,988,-20,4,-3
2716,-95,-19,988,-20,-18,-8
2717,48,-46,1012,-18,-28,-12
2718,125,-56,1007,-15,-17,-11
2719,132,-28,1007,-9,7,-5
2720,22,-2,999,-11,26,-2
2721,-110,7,1001,-15,27,1
2722,-166,9,974,-20,8,-2
2723,-110,-14,994,-21,-15,-6
2724,30,-45,1010,-17,-28,-12
2725,120,-55,1008,-16,-18,-13
2726,145,-30,1006,-9,2,-7
2727,34,-9,1004,-10,24,-2
2728,-94,12,997,-14,27,2
2729,-169,10,975,-20,12,-1
2730,-118,-9,995,-22,-12,-7
2731,8,-48,1007,-20,-27,-11
2732,115,-53,1001,-15,-21,-11
2733,147,-37,1009,-9,-2,-8
2734,47,-5,1009,-10,21,-2
2735,-78,7,998,-14,28,0
2736,-161,15,972,-18,14,-1
2737,-132,-8,995,-22,-9,-5
2738,-10,-42,998,-22,-26,-11
2739,111,-55,1006,-15,-21,-13
2740,152,-41,1003,-9,-4,-9
2741,59,-10,1013,-9,22,-1
2742,-59,10,1008,-13,28,0
2743,-163,16,968,-19,17,0
2744,-133,-6,995,-19,-7,-7
2745,-41,-47,998,-21,-24,-10
2746,107,-46,1008,-17,-22,-13
2747,150,-46,1005,-12,-7,-10
2748,74,-15,1003,-9,17,-2
2749,-43,7,1007,-11,28,0
2750,-156,18,984,-18,20,2
2751,-145,-8,993,-22,-3,-5
2752,-54,-35,991,-21,-23,-10
2753,88,-43,1010,-16,-24,-12
2754,153,-48,1009,-12,-9,-11
2755,89,-23,1004,-8,16,-2
2756,-22,7,996,-11,27,-1
2757,-150,18,994,-17,23,1
2758,-154,-4,992,-21,0,-4
2759,-75,-33,982,-22,-21,-9
2760,81,-44,1009,-16,-26,-12
2761,141,-55,1012,-15,-11,-10
2762,112,-30,1007,-10,12,-4
2763,-10,2,986,-10,28,-1
2764,-139,21,995,-16,25,1
2765,-159,-1,998,-22,2,-4
2766,-85,-25,986,-22,-19,-9
2767,64,-46,1007,-19,-27,-13
2768,131,-58,1015,-13,-13,-12
2769,126,-28,1000,-9,9,-4
2770,8,1,994,-10,27,0
2771,-127,16,996,-15,26,2
2772,-165,4,986,-20,5,-3
2773,-96,-18,987,-22,-17,-7
2774,45,-46,1014,-19,-28,-12
2775,123,-53,1005,-14,-15,-12
2776,136,-30,1007,-10,6,-6
2777,21,-4,1001,-12,26,-1
2778,-112,9,996,-14,26,2
2779,-167,8,976,-20,7,-1
2780,-112,-8,989,-20,-15,-8
2781,25,-49,1014,-19,-27,-12
2782,118,-53,1005,-13,-18,-11
2783,145,-33,1007,-10,2,-6
2784,39,-5,1004,-10,23,-2
2785,-91,6,999,-12,27,2
2786,-166,13,972,-19,11,-1
2787,-123,-9,1000,-22,-12,-6
2788,3,-43,1005,-19,-27,-11
2789,116,-52,1000,-15,-22,-11
2790,148,-36,1009,-9,-2,-7
2791,49,-8,1010,-9,23,-1
2792,-71,4,1001,-13,28,1
2793,-165,15,971,-17,14,0
2794,-133,-7,993,-21,-10,-6
2795,-19,-46,1003,-19,-28,-12
2796,111,-46,1000,-15,-22,-12
2797,149,-43,1007,-12,-3,-9
2798,63,-13,1010,-9,20,-3
2799,-57,3,1009,-11,28,1
2800,-159,20,971,-16,16,0
2801,-142,-11,993,-20,-7,-6
2802,-39,-40,998,-20,-23,-11
2803,100,-46,1008,-16,-22,-12
2804,153,-47,1004,-12,-7,-10
2805,79,-17,1001,-9,17,-2
2806,-42,8,1004,-11,27,0
2807,-153,18,985,-18,20,1
2808,-144,-9,992,-19,-3,-5
2809,-56,-37,986,-21,-22,-9
2810,91,-40,1011,-17,-26,-12
2811,148,-48,1012,-13,-10,-10
2812,93,-23,1000,-11,13,-3
2813,-22,4,995,-13,27,0
2814,-148,18,991,-17,21,1
2815,-150,-6,993,-20,-1,-6
2816,-76,-28,984,-20,-21,-12
2817,80,-40,1010,-17,-26,-12
2818,137,-53,1013,-13,-10,-10
2819,114,-25,1005,-11,10,-4
2820,-6,0,990,-11,26,-2
2821,-137,20,991,-15,24,3
2822,-161,-3,996,-22,3,-3
2823,-90,-24,988,-20,-18,-10
2824,62,-47,1008,-17,-28,-14
2825,130,-51,1009,-13,-12,-13
2826,127,-28,1004,-10,9,-5
2827,13,4,995,-12,25,-2
2828,-125,14,998,-16,26,2
2829,-163,7,982,-20,5,-3
2830,-100,-20,991,-22,-17,-8
2831,42,-50,1011,-18,-29,-13
2832,123,-55,1006,-15,-16,-11
2833,139,-30,1007,-9,6,-7
2834,26,0,999,-11,24,-1
2835,-108,13,997,-14,26,1
2836,-165,10,977,-19,6,-2
2837,-112,-11,989,-21,-14,-7
2838,22,-52,1010,-18,-27,-12
2839,119,-56,1008,-14,-18,-11
2840,144,-30,1005,-10,3,-7
2841,38,-5,1003,-8,24,-2
2842,-88,10,1000,-10,26,1
2843,-167,13,971,-19,11,1
2844,-122,-11,994,-23,-9,-5
2845,1,-47,1007,-21,-26,-11
2846,117,-54,1000,-17,-22,-12
2847,145,-38,1009,-10,-2,-8
2848,52,-7,1011,-10,22,-3
2849,-71,5,1004,-13,29,0
2850,-163,17,967,-18,15,0
2851,-134,-4,998,-21,-9,-6
2852,-24,-46,1003,-21,-26,-12
2853,107,-48,1000,-14,-24,-12
2854,152,-43,1009,-13,-4,-9
2855,67,-15,1007,-12,20,-3
2856,-54,3,1008,-11,28,0
2857,-161,19,974,-17,17,2
2858,-139,-6,993,-19,-6,-5
2859,-42,-38,1000,-22,-26,-10
2860,97,-42,1010,-17,-24,-11
2861,154,-47,1003,-13,-6,-11
2862,80,-22,1005,-10,17,-2
2863,-37,7,1003,-13,27,-1
2864,-155,16,989,-18,20,2
2865,-146,-5,993,-19,-3,-5
2866,-61,-37,987,-21,-23,-9
2867,86,-42,1010,-15,-25,-13
2868,148,-49,1010,-13,-10,-11
2869,98,-23,1002,-11,14,-4
2870,-17,2,994,-12,27,0
2871,-148,20,994,-16,22,3
2872,-153,-6,995,-23,-1,-3
2873,-80,-32,983,-21,-22,-9
2874,76,-42,1007,-17,-28,-12
2875,142,-54,1015,-15,-12,-11
2876,115,-24,1006,-8,11,-4
2877,-3,4,992,-10,26,0
2878,-133,16,992,-17,24,1
2879,-162,0,993,-21,3,-2
2880,-90,-20,987,-22,-17,-8
2881,59,-48,1014,-18,-27,-12
2882,131,-55,1006,-13,-12,-11
2883,126,-27,1005,-7,8,-5
2884,15,0,999,-8,24,0
2885,-127,14,996,-15,26,2
2886,-165,7,984,-20,5,-3
2887,-102,-19,990,-22,-16,-8
2888,42,-47,1010,-21,-28,-11
2889,125,-59,1007,-14,-15,-11
2890,138,-29,1007,-8,6,-6
2891,26,-1,999,-13,26,-1
2892,-109,13,1002,-13,27,3
2893,-169,11,971,-21,8,-1
2894,-116,-13,991,-22,-13,-6
2895,20,-52,1012,-20,-29,-12
2896,118,-56,1006,-15,-20,-12
2897,148,-33,1007,-9,1,-8
2898,40,-3,1007,-8,23,-2
2899,-88,10,997,-14,28,1
2900,-171,15,971,-18,13,0
2901,-120,-9,998,-22,-10,-6
2902,1,-48,1005,-19,-26,-11
2903,116,-50,998,-15,-20,-12
2904,150,-41,1012,-11,-2,-8
2905,50,-8,1009,-10,22,-2
2906,-70,5,1003,-13,28,1
2907,-166,17,970,-17,15,0
2908,-134,-8,995,-22,-10,-6
2909,-18,-45,1004,-20,-26,-12
2910,107,-50,1003,-15,-23,-12
2911,155,-45,1003,-11,-5,-10
2912,66,-13,1015,-9,19,-2
2913,-54,9,1002,-13,27,1
2914,-160,20,976,-18,18,1
2915,-141,-7,991,-20,-7,-6
2916,-43,-41,1001,-20,-24,-12
2917,99,-47,1009,-16,-26,-12
2918,148,-51,1002,-13,-7,-11
2919,83,-21,1007,-8,17,-3
2920,-40,6,1002,-11,28,0
2921,-152,23,988,-18,20,0
2922,-148,-10,996,-21,-3,-5
2923,-66,-34,982,-22,-22,-9
2924,92,-47,1012,-17,-27,-13
2925,146,-50,1012,-12,-9,-10
2926,100,-24,1000,-11,14,-3
2927,-19,7,996,-9,28,-2
2928,-145,21,991,-17,24,2
2929,-153,-5,996,-21,0,-3
2930,-78,-30,983,-22,-20,-8
2931,75,-44,1006,-17,-27,-11
2932,141,-56,1013,-13,-11,-11
2933,114,-28,1007,-9,13,-3
2934,-4,4,992,-9,27,-1
2935,-134,18,993,-15,23,1
2936,-163,2,995,-20,3,-3
2937,-88,-19,987,-22,-18,-9
2938,55,-48,1011,-20,-28,-12
2939,130,-52,1007,-14,-15,-11
2940,128,-30,1003,-11,9,-5
2941,14,0,1000,-11,25,-2
2942,-124,11,996,-14,26,2
2943,-164,5,981,-20,7,-3
2944,-105,-16,992,-22,-15,-7
2945,41,-46,1010,-19,-29,-12
2946,121,-55,1007,-14,-16,-12
2947,142,-28,1006,-8,5,-5
2948,26,-2,1002,-9,24,-1
2949,-105,10,999,-13,26,1
2950,-170,4,977,-18,8,-1
2951,-114,-13,988,-20,-14,-6
2952,20,-47,1012,-18,-29,-12
2953,116,-51,1006,-16,-20,-12
2954,147,-31,1008,-12,1,-8
2955,37,-5,1008,-10,25,-2
2956,-86,8,997,-13,27,1
2957,-164,7,972,-20,13,-2
2958,-126,-10,997,-22,-10,-7
2959,0,-47,1006,-20,-26,-11
2960,113,-50,999,-14,-22,-11
2961,149,-35,1009,-9,-3,-9
2962,52,-6,1015,-12,21,-3
2963,-70,5,1001,-14,27,1
2964,-162,14,970,-18,15,0
2965,-134,-7,996,-21,-9,-6
2966,-23,-43,1002,-20,-25,-12
2967,109,-51,1004,-14,-23,-11
2968,150,-42,1004,-11,-4,-9
2969,65,-12,1008,-10,21,-1
2970,-52,9,1005,-13,27,0
2971,-158,20,978,-19,17,1
2972,-140,-7,989,-22,-5,-6
2973,-45,-41,1000,-21,-23,-11
2974,100,-49,1011,-16,-25,-13
2975,147,-49,1003,-10,-7,-10
2976,85,-16,1000,-8,17,-4
2977,-36,12,1009,-12,27,0
2978,-151,21,985,-19,21,3
2979,-145,-9,996,-21,-3,-5
2980,-68,-36,984,-19,-22,-9
2981,91,-41,1010,-16,-26,-12
2982,147,-53,1011,-14,-10,-10
2983,97,-24,1003,-9,14,-3
2984,-18,6,997,-12,27,-1
2985,-144,23,992,-16,22,2
2986,-158,-3,995,-22,-1,-4
2987,-78,-27,984,-23,-22,-8
2988,72,-46,1006,-17,-27,-12
2989,138,-54,1016,-14,-12,-11
2990,117,-33,1005,-8,12,-4
2991,0,5,991,-10,27,0
2992,-131,17,992,-16,23,3
2993,-163,2,996,-19,4,-3
2994,-91,-24,985,-23,-17,-8
2995,56,-44,1014,-19,-27,-12
2996,126,-55,1005,-15,-14,-12
2997,133,-27,1005,-9,8,-5
2998,17,-3,1000,-10,26,-2
2999,-122,12,997,-16,26,1
3000,-164,6,982,-22,7,-3
3001,-106,-15,991,-20,-15,-8
3002,36,-48,1010,-19,-28,-12
3003,119,-53,1010,-14,-16,-12
3004,142,-29,1007,-9,4,-6
3005,26,0,1000,-9,25,-1
3006,-105,10,1000,-15,27,3
3007,-165,9,972,-19,9,-1
3008,-121,-11,991,-20,-13,-6
3009,17,-52,1007,-20,-27,-11
3010,113,-53,1008,-14,-18,-12
3011,150,-34,1003,-10,-1,-7
3012,41,-4,1012,-10,23,-1
3013,-83,11,995,-13,26,1
3014,-165,15,971,-20,12,0
3015,-128,-8,998,-22,-11,-6
3016,-9,-48,1005,-20,-27,-12
3017,115,-53,999,-15,-21,-12
3018,148,-42,1009,-10,-3,-8
3019,56,-9,1011,-11,21,-1
3020,-63,6,1002,-13,28,2
3021,-164,19,969,-20,16,0
3022,-137,-7,995,-21,-8,-5
3023,-29,-44,998,-23,-26,-10
3024,106,-51,1008,-17,-24,-12
3025,154,-48,1003,-11,-5,-9
3026,73,-14,1005,-9,19,-3
3027,-48,9,1007,-13,27,-1
3028,-158,19,980,-17,18,1
3029,-141,-8,987,-21,-5,-5
3030,-50,-38,998,-20,-22,-10
3031,100,-46,1007,-18,-25,-12
3032,148,-52,1005,-13,-7,-10
3033,88,-22,1002,-7,17,-2
3034,-32,6,1005,-11,28,0
3035,-153,24,987,-17,22,3
3036,-148,-7,996,-22,-3,-4
3037,-71,-31,983,-20,-22,-11
3038,84,-46,1010,-17,-26,-12
3039,149,-55,1015,-14,-10,-9
3040,106,-29,1003,-12,19,0
3041,-16,8,992,-24,36,5
3042,-143,20,993,-14,23,2
3043,-159,0,999,-21,0,-3
3044,-84,-28,983,-22,-21,-9
3045,68,-46,1013,-17,-27,-12
3046,141,-56,1010,-14,-12,-11
3047,120,-30,1003,-9,11,-3
3048,5,4,994,-10,27,0
3049,-136,19,993,-15,25,2
3050,-160,2,989,-19,6,-3
3051,-96,-18,989,-21,-18,-7
3052,55,-49,1011,-19,-29,-13
3053,124,-56,1003,-12,-15,-10
3054,135,-30,1005,-10,7,-6
3055,17,-3,1004,-13,27,-1
3056,-115,13,995,-15,27,2
3057,-166,6,980,-21,8,-3
3058,-106,-12,985,-20,-17,-8
3059,30,-44,1016,-19,-29,-11
3060,124,-56,1006,-15,-18,-13
3061,140,-35,1010,-11,5,-6
3062,35,-3,1001,-9,24,-1
3063,-102,8,1002,-14,25,1
3064,-162,10,972,-19,10,-2
3065,-122,-12,997,-21,-12,-7
3066,14,-44,1005,-21,-26,-11
3067,111,-56,1007,-16,-19,-11
3068,151,-32,1007,-10,-1,-7
3069,39,-8,1009,-11,22,-1
3070,-76,8,999,-14,27,0
3071,-167,11,972,-18,13,-1
3072,-129,-6,995,-20,-11,-7
3073,-11,-50,1008,-18,-27,-12
3074,114,-50,996,-14,-21,-12
3075,147,-41,1008,-10,-3,-8
3076,61,-9,1014,-10,21,-2
3077,-60,7,1003,-14,27,1
3078,-163,16,968,-18,16,0
3079,-138,-9,996,-20,-7,-6
3080,-30,-48,999,-21,-26,-11
3081,103,-47,1005,-15,-26,-12
3082,153,-47,1005,-12,-5,-9
3083,73,-13,1006,-8,19,-3
3084,-44,11,1006,-11,27,0
3085,-158,20,980,-17,17,0
3086,-145,-10,995,-20,-4,-5
3087,-52,-38,990,-21,-23,-10
3088,94,-45,1014,-18,-25,-10
3089,154,-49,1003,-12,-9,-11
3090,90,-22,1005,-9,16,-3
3091,-29,9,998,-11,27,0
3092,-153,20,992,-16,21,2
3093,-149,-3,994,-20,-3,-4
3094,-74,-34,982,-21,-23,-9
3095,87,-43,1011,-17,-29,-13
3096,140,-56,1015,-14,-11,-11
3097,108,-25,1004,-10,14,-4
3098,-12,4,995,-10,27,-1
3099,-142,23,991,-14,23,2
3100,-156,-1,997,-21,2,-4
3101,-84,-23,989,-22,-20,-9
3102,70,-46,1006,-17,-27,-13
3103,136,-56,1012,-14,-13,-12
3104,121,-29,1002,-9,9,-4
3105,6,0,997,-10,26,-2
3106,-130,13,994,-15,26,2
3107,-166,4,985,-20,6,-3
3108,-95,-18,992,-22,-17,-7
3109,48,-45,1009,-17,-28,-11
3110,125,-56,1006,-13,-15,-12
3111,136,-29,1006,-10,7,-6
3112,20,-1,1000,-10,26,-1
3113,-113,7,997,-15,26,3
3114,-168,9,978,-19,7,-3
3115,-107,-14,989,-20,-16,-7
3116,30,-48,1011,-18,-27,-12
3117,120,-52,1007,-15,-17,-11
3118,144,-27,1009,-10,2,-7
3119,32,-7,1000,-11,25,-1
3120,-96,7,1002,-13,27,0
3121,-167,9,969,-19,11,-1
3122,-119,-10,998,-22,-11,-6
3123,9,-50,1007,-19,-26,-11
3124,118,-49,1001,-14,-20,-12
3125,147,-36,1011,-10,0,-7
3126,47,-4,1006,-9,22,-2
3127,-77,4,1006,-13,28,0
3128,-166,16,968,-18,14,0
3129,-131,-6,998,-21,-10,-6
3130,-9,-46,1003,-20,-27,-12
3131,106,-49,1000,-14,-22,-12
3132,155,-42,1007,-11,-4,-10
3133,56,-12,1015,-11,21,-3
3134,-56,11,1002,-13,27,0
3135,-163,17,975,-18,16,0
3136,-138,-7,989,-20,-6,-4
3137,-36,-42,1001,-22,-25,-11
3138,102,-46,1012,-16,-25,-13
3139,147,-47,1002,-12,-7,-10
3140,78,-17,1003,-9,18,-3
3141,-46,7,1006,-12,26,0
3142,-157,22,983,-18,19,2
3143,-144,-8,991,-22,-4,-5
3144,-57,-35,992,-20,-24,-12
3145,91,-43,1010,-17,-26,-13
3146,149,-50,1007,-13,-9,-11
3147,93,-26,1008,-9,15,-4
3148,-25,9,993,-10,28,-1
3149,-148,20,996,-18,22,1
3150,-150,-1,993,-21,-2,-4
3151,-76,-34,980,-22,-21,-9
3152,80,-41,1012,-15,-26,-12
3153,139,-54,1012,-13,-9,-10
3154,113,-25,1004,-10,12,-4
3155,-13,2,993,-12,27,-1
3156,-138,20,990,-17,24,2
3157,-158,-6,1000,-21,1,-4
3158,-89,-22,983,-21,-18,-8
3159,66,-46,1012,-18,-27,-13
3160,130,-54,1013,-13,-14,-13
3161,121,-25,1001,-9,9,-5
3162,11,4,996,-10,24,-3
3163,-124,11,997,-16,24,2
3164,-160,3,984,-20,6,-4
3165,-99,-20,992,-22,-17,-8
3166,41,-50,1010,-18,-28,-13
3167,124,-54,1006,-13,-16,-12
3168,134,-28,1007,-10,5,-5
3169,26,1,1001,-10,25,-1
3170,-105,10,997,-16,25,2
3171,-170,10,974,-20,8,-3
3172,-110,-14,990,-23,-14,-7
3173,25,-52,1015,-19,-27,-12
3174,118,-53,1005,-14,-19,-12
3175,146,-32,1011,-10,2,-8
3176,36,-5,1004,-10,23,-1
3177,-90,9,999,-14,27,1
3178,-166,11,974,-20,11,-1
3179,-126,-10,994,-21,-10,-5
3180,4,-46,1005,-18,-26,-12
3181,114,-56,1005,-17,-20,-13
3182,149,-36,1006,-9,-2,-8
3183,47,-11,1012,-10,21,-1
3184,-70,14,1002,-13,26,1
3185,-163,14,971,-20,16,-1
3186,-134,-7,997,-21,-8,-6
3187,-21,-49,999,-20,-27,-11
3188,110,-50,1006,-14,-24,-13
3189,151,-46,1002,-12,-5,-9
3190,69,-9,1013,-10,20,-1
3191,-55,7,1005,-13,28,0
3192,-157,20,974,-17,17,1
3193,-143,-7,995,-20,-4,-5
3194,-41,-39,997,-21,-24,-10
3195,100,-47,1010,-18,-25,-12
3196,151,-50,1002,-13,-7,-10
3197,83,-17,1005,-9,17,-2
3198,-39,10,1004,-11,26,-1
3199,-152,20,989,-17,20,1
3200,-147,-6,991,-21,-5,-5
3201,-66,-37,988,-20,-22,-10
3202,92,-42,1011,-15,-27,-12
3203,146,-55,1008,-14,-10,-10
3204,101,-24,1003,-10,15,-4
3205,-23,5,994,-12,29,0
3206,-149,21,993,-17,23,2
3207,-155,-2,998,-18,0,-4
3208,-77,-28,981,-22,-21,-8
3209,76,-44,1011,-16,-27,-13
3210,141,-54,1013,-15,-12,-12
3211,113,-28,1003,-9,13,-4
3212,-2,5,993,-10,26,-1
3213,-138,18,992,-15,23,3
3214,-160,0,993,-20,3,-4
3215,-91,-25,989,-21,-18,-9
3216,57,-49,1009,-20,-28,-12
3217,130,-55,1007,-15,-15,-13
3218,127,-28,1006,-9,7,-5
3219,13,2,992,-11,25,-1
3220,-120,14,1006,-13,25,2
3221,-166,6,979,-21,7,-1
3222,-104,-21,992,-21,-16,-8
3223,41,-49,1010,-19,-29,-12
3224,119,-54,1007,-14,-17,-12
3225,145,-29,1008,-10,4,-7
3226,26,-3,1005,-11,25,-3
3227,-102,12,991,-14,27,1
3228,-171,12,976,-19,8,-2
3229,-117,-13,994,-22,-15,-6
3230,17,-52,1008,-19,-27,-12
3231,114,-54,1007,-15,-18,-11
3232,148,-35,1005,-12,0,-8
3233,38,-2,1007,-10,25,-1
3234,-83,10,999,-14,28,1
3235,-169,16,974,-18,13,-1
3236,-124,-10,996,-21,-9,-6
3237,0,-45,1006,-20,-25,-12
3238,114,-58,999,-15,-21,-11
3239,148,-38,1008,-9,-2,-8
3240,52,-11,1013,-10,21,-1
3241,-68,12,1002,-13,28,0
3242,-162,14,968,-19,15,0
3243,-132,-3,995,-22,-9,-6
3244,-23,-44,1001,-22,-26,-11
3245,103,-48,1005,-17,-23,-12
3246,155,-48,1000,-12,-5,-10
3247,66,-17,1010,-7,20,-2
3248,-48,11,1001,-11,28,0
3249,-157,20,979,-18,18,1
3250,-143,-5,989,-22,-6,-4
3251,-49,-37,997,-22,-24,-11
3252,99,-49,1011,-19,-25,-12
3253,147,-52,1000,-13,-7,-11
3254,86,-18,1003,-8,18,-2
3255,-38,7,1006,-11,28,1
3256,-149,22,988,-17,21,1
3257,-144,-2,992,-20,-3,-5
3258,-69,-34,988,-23,-22,-10
3259,88,-43,1010,-18,-27,-12
3260,146,-56,1007,-13,-10,-10
3261,103,-24,1004,-9,14,-3
3262,-18,5,997,-11,27,-1
3263,-140,23,990,-15,22,2
3264,-158,-4,1000,-21,0,-4
3265,-79,-25,983,-20,-21,-11
3266,69,-48,1009,-16,-29,-13
3267,137,-53,1015,-14,-13,-12
3268,120,-29,1007,-10,11,-5
3269,-2,2,991,-12,27,0
3270,-131,16,992,-15,25,1
3271,-161,3,997,-19,3,-4
3272,-91,-19,986,-22,-19,-8
3273,57,-47,1012,-19,-29,-11
3274,125,-52,1007,-13,-15,-10
3275,134,-26,1003,-9,6,-5
3276,15,-1,1001,-11,26,-2
3277,-116,12,994,-15,26,1
3278,-166,5,983,-21,7,-3
3279,-106,-15,987,-22,-15,-7
3280,37,-47,1016,-19,-28,-12
3281,120,-52,1005,-15,-15,-11
3282,145,-28,1006,-9,5,-7
3283,29,-3,1000,-10,25,-1
3284,-104,7,998,-15,26,1
3285,-165,8,972,-20,10,-3
3286,-119,-11,993,-22,-12,-6
3287,21,-45,1011,-19,-27,-13
3288,116,-55,1006,-14,-19,-13
3289,149,-32,1008,-10,1,-7
3290,40,-4,1007,-10,23,-1
3291,-83,5,999,-13,27,0
3292,-165,12,971,-19,12,1
3293,-126,-9,996,-21,-10,-7
3294,-3,-46,1003,-20,-26,-10
3295,112,-50,1001,-14,-23,-12
3296,152,-37,1007,-10,-4,-11
3297,56,-11,1012,-10,22,-2
3298,-66,6,1000,-13,29,0
3299,-164,14,974,-19,18,-1
3300,-135,-7,991,-21,-8,-6
3301,-27,-41,1000,-20,-26,-10
3302,108,-49,1006,-17,-24,-12
3303,153,-45,1005,-12,-6,-9
3304,70,-15,1005,-10,18,-4
3305,-56,6,1012,-13,28,0
3306,-160,20,972,-16,18,0
3307,-142,-7,989,-20,-6,-6
3308,-45,-40,999,-21,-25,-11
3309,100,-43,1006,-16,-25,-12
3310,153,-48,1006,-12,-7,-10
3311,82,-20,1003,-8,18,-2
3312,-34,7,1003,-12,28,-2
3313,-155,20,993,-17,20,1
3314,-148,-6,991,-21,-3,-4
3315,-65,-39,988,-22,-22,-10
3316,88,-40,1011,-15,-26,-11
3317,145,-51,1007,-13,-9,-11
3318,102,-24,1008,-8,15,-4
3319,-20,6,992,-11,28,1
3320,-146,22,991,-16,23,2
3321,-156,-9,1000,-21,-1,-3
3322,-79,-27,977,-21,-22,-8
3323,72,-46,1011,-17,-28,-12
3324,145,-53,1013,-11,-12,-13
3325,113,-29,1005,-10,12,-4
3326,0,9,991,-11,26,-2
3327,-138,14,993,-16,23,3
3328,-159,1,995,-19,4,-3
3329,-93,-23,990,-23,-18,-9
3330,59,-46,1008,-19,-27,-13
3331,130,-56,1009,-13,-14,-10
3332,130,-25,1003,-9,7,-5
3333,13,-1,999,-11,26,-1
3334,-120,12,997,-13,27,2
3335,-168,4,981,-19,8,-2
3336,-101,-16,991,-21,-16,-7
3337,42,-49,1012,-20,-28,-12
3338,121,-53,1006,-13,-19,-11
3339,141,-31,1009,-10,5,-6
3340,29,-3,1000,-11,26,-2
3341,-102,9,998,-14,26,2
3342,-168,10,976,-20,10,-1
3343,-118,-12,989,-20,-12,-7
3344,17,-52,1010,-20,-27,-12
3345,117,-55,1010,-15,-20,-13
3346,149,-32,1005,-11,0,-7
3347,42,-5,1007,-11,24,-2
3348,-89,9,1002,-14,28,0
3349,-165,15,969,-19,13,-2
3350,-130,-11,998,-23,-10,-6
3351,1,-46,1005,-21,-27,-11
3352,112,-56,1000,-15,-21,-12
3353,151,-37,1009,-10,-2,-9
3354,48,-7,1009,-10,22,-3
3355,-67,8,1005,-13,27,0
3356,-171,13,970,-17,16,0
3357,-133,-8,993,-21,-10,-5
3358,-22,-49,1002,-21,-27,-11
3359,108,-46,1002,-14,-23,-11
3360,151,-45,1005,-11,-5,-10
3361,67,-13,1009,-11,21,-3
3362,-53,8,1004,-14,29,1
3363,-161,21,977,-16,17,1
3364,-141,-13,990,-21,-6,-5
3365,-43,-39,998,-22,-24,-10
3366,99,-48,1008,-17,-25,-13
3367,155,-47,1006,-12,-9,-11
3368,84,-16,1001,-9,17,-3
3369,-40,8,1004,-12,28,0
3370,-152,22,991,-17,21,1
3371,-149,-9,988,-21,-2,-4
3372,-64,-35,988,-21,-23,-9
3373,89,-42,1013,-16,-27,-11
3374,148,-50,1010,-20,-11,-9
3375,98,-26,1005,-15,16,-2
3376,-20,7,997,-11,28,-1
3377,-146,19,989,-17,23,2
3378,-153,-3,998,-23,-1,-5
3379,-80,-31,982,-21,-21,-8
3380,76,-40,1009,-17,-27,-12
3381,139,-54,1012,-12,-11,-11
3382,117,-24,1007,-9,12,-4
3383,-3,1,994,-12,26,-1
3384,-135,18,988,-14,24,1
3385,-158,1,995,-20,4,-3
3386,-93,-20,989,-22,-18,-8
3387,60,-44,1008,-19,-27,-11
3388,129,-55,1010,-13,-15,-11
3389,126,-29,1001,-11,6,-4
3390,17,-3,998,-12,25,-1
3391,-126,10,996,-16,26,3
3392,-165,6,980,-21,6,-2
3393,-101,-18,993,-20,-16,-9
3394,44,-43,1011,-16,-29,-12
3395,122,-54,1008,-13,-16,-12
3396,140,-28,1005,-11,5,-8
3397,25,-6,1002,-11,24,0
3398,-107,8,995,-14,26,1
3399,-169,7,977,-20,7,-2
3400,-108,-11,989,-21,-15,-8
3401,21,-51,1012,-18,-27,-12
3402,119,-47,1004,-14,-18,-11
3403,144,-33,1013,-11,2,-7
3404,38,-7,1001,-11,23,-2
3405,-89,4,1002,-13,27,1
3406,-165,7,970,-19,11,-2
3407,-125,-9,998,-21,-10,-7
3408,4,-43,1004,-19,-28,-12
3409,114,-50,1003,-13,-20,-12
3410,152,-35,1007,-9,-1,-8
3411,49,-7,1012,-9,23,-1
3412,-75,6,1000,-13,28,2
3413,-165,12,970,-19,15,1
3414,-132,-7,995,-22,-9,-5
3415,-17,-41,1002,-20,-27,-12
3416,108,-48,1002,-16,-23,-12
3417,149,-41,1006,-10,-4,-9
3418,63,-14,1010,-9,21,-2
3419,-55,7,1005,-13,27,2
3420,-159,18,973,-18,17,2
3421,-136,-9,993,-21,-6,-6
3422,-41,-39,999,-20,-24,-10
3423,100,-48,1008,-16,-23,-12
3424,151,-50,1007,-12,-6,-10
3425,83,-19,1000,-8,17,-2
3426,-41,10,1003,-11,28,0
3427,-156,20,990,-17,20,0
3428,-144,-5,989,-21,-3,-5
3429,-61,-39,991,-20,-23,-10
3430,89,-46,1012,-16,-25,-12
3431,147,-53,1006,-13,-10,-11
3432,96,-23,1004,-10,15,-4
3433,-24,6,998,-10,26,0
3434,-146,21,990,-16,21,0
3435,-153,0,999,-21,-1,-5
3436,-78,-30,981,-23,-20,-8
3437,78,-45,1012,-14,-27,-13
3438,138,-54,1012,-13,-11,-12
3439,115,-29,1006,-9,11,-4
3440,-5,3,993,-11,26,-1
3441,-137,19,990,-16,24,2
3442,-160,-2,996,-19,3,-4
3443,-91,-20,990,-21,-18,-9
3444,61,-44,1010,-18,-28,-12
3445,128,-54,1008,-14,-12,-12
3446,130,-30,1009,-10,9,-6
3447,11,-2,992,-10,25,-2
3448,-122,13,996,-15,25,1
3449,-163,4,987,-19,7,-4
3450,-102,-12,987,-20,-16,-7
3451,43,-45,1012,-17,-29,-12
3452,121,-54,1007,-14,-16,-12
3453,142,-32,1008,-9,6,-6
3454,25,-5,999,-13,24,-1
3455,-105,8,1000,-14,26,2
3456,-169,8,974,-19,9,-1
3457,-115,-10,993,-20,-15,-6
3458,21,-46,1012,-20,-28,-11
3459,119,-53,1006,-15,-18,-12
3460,149,-33,1010,-9,2,-7
3461,36,-7,1002,-10,24,-1
3462,-86,7,1001,-12,26,0
3463,-168,11,971,-20,12,-1
3464,-126,-11,999,-22,-10,-6
3465,2,-44,1005,-21,-27,-12
3466,111,-51,1003,-15,-20,-12
3467,150,-38,1006,-10,-1,-9
3468,52,-9,1013,-9,21,-1
3469,-70,8,999,-14,28,1
3470,-162,15,974,-18,15,1
3471,-133,-6,995,-22,-9,-4
3472,-22,-42,1002,-21,-26,-11
3473,111,-50,1003,-15,-21,-12
3474,148,-45,1005,-12,-4,-10
3475,71,-11,1010,-11,20,-2
3476,-56,8,1006,-13,27,-1
3477,-157,17,975,-17,17,0
3478,-143,-7,994,-20,-6,-6
3479,-44,-38,998,-19,-24,-10
3480,100,-48,1010,-17,-24,-12
3481,151,-48,1003,-12,-7,-9
3482,81,-19,1004,-8,19,-2
3483,-38,6,1006,-11,28,0
3484,-152,20,984,-18,21,2
3485,-149,-9,994,-22,-3,-4
3486,-62,-36,987,-23,-22,-10
3487,89,-42,1011,-17,-26,-11
3488,150,-51,1010,-13,-10,-11
3489,96,-23,1004,-9,14,-3
3490,-22,5,992,-11,27,0
3491,-152,20,995,-15,23,2
3492,-151,-6,994,-21,-2,-4
3493,-81,-30,983,-22,-21,-10
3494,79,-42,1008,-16,-27,-12
3495,142,-51,1016,-11,-11,-11
3496,113,-28,1004,-11,11,-3
3497,-5,2,992,-13,27,-1
3498,-139,12,989,-15,25,1
3499,-161,-3,996,-20,2,-4
3500,-90,-21,989,-22,-18,-8
3501,63,-45,1010,-17,-27,-12
3502,131,-53,1009,-14,-14,-10
3503,131,-25,1005,-8,7,-5
3504,9,1,995,-12,26,0
3505,-124,12,998,-15,25,1
3506,-168,1,982,-19,5,-2
3507,-105,-17,990,-22,-19,-9
3508,46,-46,1016,-20,-29,-12
3509,123,-53,1004,-11,-17,-12
3510,140,-28,1005,-10,5,-6
3511,25,-5,1002,-10,25,-1
3512,-109,10,999,-15,27,2
3513,-168,5,976,-19,9,-2
3514,-115,-13,990,-22,-14,-7
3515,26,-48,1013,-19,-29,-11
3516,117,-53,1008,-15,-19,-11
3517,145,-31,1008,-11,2,-7
3518,36,-3,1003,-9,24,-2
3519,-90,8,999,-13,28,1
3520,-167,10,968,-19,12,-1
3521,-125,-12,999,-22,-11,-7
3522,2,-47,1004,-21,-26,-12
3523,117,-56,1005,-14,-20,-12
3524,150,-34,1005,-8,-1,-8
3525,49,-7,1015,-10,23,-2
3526,-73,7,1001,-15,28,1
3527,-165,11,971,-18,15,0
3528,-132,-7,995,-20,-10,-4
3529,-18,-48,1004,-21,-26,-11
3530,108,-49,998,-14,-23,-13
3531,149,-44,1010,-11,-4,-9
3532,64,-9,1006,-10,20,-3
3533,-55,5,1006,-13,27,0
3534,-162,20,970,-17,16,0
3535,-140,-5,994,-22,-6,-6
3536,-41,-41,996,-22,-23,-10
3537,101,-47,1010,-16,-23,-11
3538,154,-47,1001,-12,-6,-11
3539,77,-18,1006,-8,17,-2
3540,-41,10,1003,-12,27,-1
3541,-156,19,987,-17,21,1
3542,-145,-5,991,-20,-4,-5
3543,-64,-36,991,-19,-21,-9
3544,90,-43,1009,-17,-25,-12
3545,147,-52,1009,-13,-9,-9
3546,95,-23,1001,-9,16,-3
3547,-23,2,998,-12,28,-1
3548,-148,22,992,-16,23,1
3549,-151,-8,995,-20,-1,-4
3550,-79,-28,983,-21,-21,-10
3551,79,-40,1010,-18,-28,-13
3552,140,-52,1011,-15,-11,-12
3553,111,-29,1009,-11,13,-4
3554,-7,3,989,-12,27,-1
3555,-140,15,994,-15,24,1
3556,-160,0,994,-19,3,-3
3557,-89,-24,987,-21,-18,-9
3558,61,-42,1011,-17,-27,-13
3559,136,-54,1009,-13,-14,-13
3560,126,-27,1007,-8,8,-5
3561,10,-1,996,-12,26,-2
3562,-127,15,998,-16,27,1
3563,-163,0,984,-21,5,-3
3564,-102,-18,993,-20,-15,-7
3565,47,-44,1010,-18,-30,-12
3566,123,-53,1006,-14,-16,-11
3567,137,-28,1008,-10,7,-5
3568,25,-3,1000,-11,26,-1
3569,-109,9,1000,-16,27,1
3570,-168,8,977,-20,9,-2
3571,-109,-13,991,-20,-14,-7
3572,29,-48,1012,-18,-28,-11
3573,121,-54,1007,-15,-18,-12
3574,144,-32,1008,-10,2,-7
3575,34,-4,1004,-10,23,-1
3576,-92,7,996,-14,27,1
3577,-168,11,972,-19,11,-1
3578,-120,-10,998,-21,-12,-6
3579,7,-49,1005,-19,-27,-12
3580,113,-49,1003,-15,-21,-12
3581,149,-35,1007,-12,-1,-7
3582,48,-8,1012,-10,23,-1
3583,-76,8,1001,-14,28,0
3584,-165,13,970,-16,14,-1
3585,-133,-8,997,-19,-10,-5
3586,-14,-45,1002,-20,-27,-10
3587,109,-49,1004,-14,-22,-12
3588,151,-44,1003,-11,-2,-8
3589,64,-11,1017,-9,20,-3
3590,-59,7,1003,-11,27,-1
3591,-163,18,973,-18,17,1
3592,-134,-11,994,-21,-6,-6
3593,-40,-44,997,-22,-23,-9
3594,101,-45,1011,-17,-23,-11
3595,152,-48,1006,-12,-7,-9
3596,76,-15,1003,-9,18,-3
3597,-42,8,1005,-12,28,0
3598,-157,20,985,-19,21,2
3599,-143,-7,990,-21,-4,-3
3600,-59,-40,993,-21,-23,-10
3601,94,-43,1010,-14,-25,-12
3602,149,-51,1006,-10,-9,-10
3603,96,-25,1003,-9,17,-4
3604,-28,8,997,-10,30,0
3605,-149,20,992,-15,22,1
3606,-153,-7,997,-21,-1,-5
3607,-77,-32,982,-20,-21,-9
3608,80,-42,1009,-15,-27,-12
3609,145,-53,1015,-11,-11,-11
3610,113,-26,1003,-10,13,-4
3611,-11,3,995,-12,27,-1
3612,-138,17,989,-16,23,3
3613,-166,-3,996,-21,1,-4
3614,-85,-25,985,-20,-19,-9
3615,66,-45,1012,-17,-28,-13
3616,136,-55,1007,-15,-15,-12
3617,126,-26,1004,-8,9,-5
3618,8,1,996,-12,27,-1
3619,-130,14,993,-17,26,2
3620,-167,0,988,-20,5,-3
3621,-100,-17,991,-20,-18,-9
3622,47,-47,1014,-18,-29,-13
3623,129,-50,1007,-14,-17,-12
3624,136,-26,1006,-10,6,-7
3625,20,-1,999,-12,27,-2
3626,-112,7,1000,-15,27,1
3627,-169,5,976,-21,8,-2
3628,-107,-11,992,-21,-15,-8
3629,26,-47,1012,-19,-27,-11
3630,119,-52,1006,-16,-18,-13
3631,144,-30,1008,-9,3,-8
3632,34,-3,1002,-10,24,-2
3633,-95,7,1000,-14,26,2
3634,-166,13,971,-18,11,-1
3635,-122,-13,998,-21,-11,-6
3636,8,-48,1004,-19,-27,-12
3637,118,-55,1005,-14,-21,-13
3638,150,-36,1007,-9,-1,-7
3639,46,-3,1012,-9,23,-1
3640,-76,7,1000,-13,27,0
3641,-168,12,970,-19,15,0
3642,-131,-6,997,-21,-10,-7
3643,-17,-45,1003,-20,-26,-12
3644,111,-52,1000,-14,-23,-13
3645,153,-42,1009,-9,-3,-10
3646,62,-10,1015,-12,21,-3
3647,-61,11,1002,-13,28,0
3648,-161,19,972,-18,18,0
3649,-146,-8,992,-22,-6,-5
3650,-30,-44,999,-22,-25,-11
3651,102,-52,1012,-16,-24,-14
3652,152,-47,998,-11,-7,-11
3653,80,-14,1008,-8,18,-3
3654,-45,12,1008,-13,28,1
3655,-158,21,981,-18,20,1
3656,-145,-7,994,-22,-6,-6
3657,-62,-38,989,-21,-23,-10
3658,97,-47,1011,-15,-26,-14
3659,149,-52,1005,-12,-10,-10
3660,94,-21,1001,-8,16,-3
3661,-26,7,1001,-11,28,0
3662,-149,23,993,-18,22,3
3663,-152,-2,995,-22,-1,-4
3664,-75,-30,982,-23,-22,-10
3665,81,-45,1008,-17,-28,-12
3666,142,-55,1013,-13,-11,-11
3667,109,-31,1005,-12,12,-3
3668,-7,4,990,-11,27,-2
3669,-138,22,991,-15,23,1
3670,-162,0,996,-20,2,-4
3671,-88,-26,988,-21,-19,-9
3672,69,-44,1008,-18,-28,-12
3673,132,-55,1009,-15,-13,-10
3674,127,-29,1005,-10,8,-5
3675,7,0,997,-10,25,-1
3676,-129,16,990,-15,25,2
3677,-165,3,990,-19,5,-5
3678,-95,-17,989,-22,-17,-9
3679,49,-46,1011,-20,-29,-11
3680,126,-51,1007,-12,-17,-12
3681,134,-29,1008,-10,5,-6
3682,20,0,997,-11,26,-2
3683,-115,8,1001,-15,27,1
3684,-167,6,973,-20,9,-2
3685,-111,-14,992,-19,-15,-6
3686,27,-46,1011,-18,-30,-12
3687,120,-54,1010,-13,-17,-11
3688,145,-28,1007,-9,4,-7
3689,33,-4,1004,-11,24,-1
3690,-95,7,999,-16,26,1
3691,-168,9,973,-19,11,-1
3692,-123,-7,995,-22,-11,-6
3693,10,-48,1009,-18,-28,-12
3694,115,-49,1004,-14,-20,-11
3695,149,-36,1004,-10,-1,-8
3696,47,-7,1014,-11,22,-2
3697,-77,8,996,-13,27,0
3698,-167,16,970,-19,15,-2
3699,-127,-9,999,-21,-9,-6
3700,-15,-41,1000,-20,-26,-10
3701,114,-52,999,-15,-23,-12
3702,151,-40,1010,-9,-3,-9
3703,62,-11,1010,-9,22,-2
3704,-60,7,1005,-12,29,0
3705,-164,15,971,-20,17,1
3706,-141,-6,991,-19,-8,-6
3707,-35,-44,999,-20,-26,-11
3708,100,-47,1008,-13,-24,-12
3709,157,-45,999,-9,-10,-12
3710,72,-16,1007,-6,16,-4
3711,-43,6,1006,-13,26,0
3712,-159,17,979,-17,19,1
3713,-143,-7,993,-20,-4,-6
3714,-56,-42,992,-22,-23,-10
3715,94,-43,1011,-17,-26,-12
3716,152,-51,1009,-14,-10,-12
3717,91,-17,1000,-9,16,-4
3718,-26,5,1001,-12,27,-1
3719,-151,20,992,-18,23,1
3720,-150,-6,995,-20,-2,-3
3721,-75,-33,981,-22,-22,-9
3722,83,-44,1013,-15,-27,-12
3723,145,-53,1013,-13,-12,-10
3724,107,-21,1003,-9,13,-4
3725,-10,8,996,-9,28,-2
3726,-143,21,988,-15,23,2
3727,-157,-6,998,-19,1,-4
3728,-88,-29,985,-21,-19,-9
3729,65,-46,1010,-17,-27,-12
3730,136,-51,1009,-13,-14,-13
3731,126,-26,1008,-9,9,-6
3732,5,4,991,-11,27,0
3733,-132,15,996,-15,26,2
3734,-166,1,987,-21,5,-3
3735,-99,-22,991,-22,-18,-8
3736,56,-47,1009,-19,-29,-13
3737,124,-56,1007,-14,-15,-11
3738,139,-27,1006,-7,6,-5
3739,18,0,1001,-11,27,0
3740,-114,15,995,-15,27,2
3741,-172,4,979,-20,8,-3
3742,-108,-11,988,-22,-15,-7
3743,32,-55,1014,-20,-27,-11
3744,119,-54,1005,-12,-18,-12
3745,145,-33,1007,-9,3,-6
3746,32,-1,1004,-9,25,-2
3747,-98,10,999,-13,27,1
3748,-167,11,970,-19,10,-2
3749,-122,-13,996,-21,-12,-6
3750,11,-47,1005,-21,-29,-12
3751,117,-57,1005,-16,-20,-13
3752,147,-33,1007,-11,1,-7
3753,44,-8,1012,-10,23,-2
3754,-80,7,1000,-14,27,1
3755,-168,11,972,-18,14,0
3756,-126,-4,996,-20,-10,-6
3757,-13,-45,1004,-22,-26,-11
3758,113,-51,1001,-15,-22,-13
3759,151,-43,1007,-11,-3,-8
3760,57,-11,1011,-9,22,-1
3761,-63,7,1006,-11,29,1
3762,-165,16,971,-17,17,1
3763,-136,-6,994,-20,-8,-5
3764,-29,-42,1001,-21,-26,-12
3765,103,-47,1005,-15,-24,-12
3766,152,-46,1002,-12,-6,-10
3767,76,-19,1006,-8,19,-4
3768,-50,4,1003,-12,27,0
3769,-156,18,982,-17,19,0
3770,-146,-8,992,-18,-5,-5
3771,-52,-29,991,-21,-23,-10
3772,94,-44,1014,-17,-25,-13
3773,149,-48,1003,-13,-8,-9
3774,88,-25,1002,-9,15,-3
3775,-28,5,1001,-11,27,-1
3776,-152,18,992,-17,21,0
3777,-147,-6,991,-20,-1,-6
3778,-73,-35,986,-21,-21,-9
3779,84,-36,1007,-16,-27,-12
3780,145,-53,1015,-13,-11,-11
3781,106,-24,1002,-10,14,-3
3782,-13,3,993,-12,27,0
3783,-139,13,990,-17,24,2
3784,-161,-6,997,-21,1,-3
3785,-81,-27,985,-20,-21,-10
3786,65,-42,1009,-15,-27,-11
3787,135,-52,1010,-14,-12,-11
3788,121,-28,1010,-10,10,-4
3789,2,4,991,-11,26,0
3790,-131,11,993,-16,25,2
3791,-164,-4,991,-20,5,-4
3792,-100,-21,986,-19,-16,-7
3793,56,-46,1013,-16,-27,-13
3794,126,-51,1007,-13,-15,-11
3795,135,-23,1003,-8,6,-7
3796,20,-1,1003,-12,27,-2
3797,-116,8,994,-16,26,1
3798,-169,1,977,-19,7,-3
3799,-105,-14,990,-22,-16,-8
3800,31,-47,1013,-17,-28,-12
3801,122,-50,1007,-14,-17,-12
3802,142,-27,1011,-10,4,-7
3803,31,-2,1001,-10,25,-2
3804,-100,6,998,-13,26,1
3805,-168,7,971,-18,10,-2
3806,-120,-14,992,-22,-12,-6
3807,16,-48,1010,-18,-27,-12
3808,116,-49,1005,-15,-20,-11
3809,149,-31,1011,-10,-1,-8
3810,44,-6,1006,-10,22,-3
3811,-81,7,1001,-14,27,0
3812,-167,14,972,-19,13,-1
3813,-130,-12,998,-22,-11,-6
3814,-1,-49,1005,-19,-26,-12
3815,110,-51,997,-13,-21,-12
3816,154,-37,1008,-10,-3,-9
3817,57,-8,1016,-11,22,-2
3818,-67,11,998,-14,28,0
3819,-163,14,976,-19,16,0
3820,-139,-7,992,-20,-8,-5
3821,-26,-43,1001,-21,-27,-12
3822,105,-52,1009,-17,-23,-13
3823,154,-45,999,-10,-4,-10
3824,74,-15,1009,-9,19,-3
3825,-49,11,1007,-11,27,1
3826,-160,19,981,-17,19,2
3827,-143,-7,987,-21,-6,-6
3828,-54,-43,996,-21,-25,-10
3829,100,-48,1012,-16,-25,-13
3830,150,-53,1001,-12,-7,-11
3831,90,-20,1002,-8,16,-2
3832,-32,11,1002,-12,27,-1
3833,-153,24,991,-18,22,1
3834,-149,-7,992,-21,-1,-3
3835,-70,-35,980,-20,-22,-10
3836,87,-49,1011,-18,-26,-11
3837,142,-53,1011,-12,-11,-10
3838,106,-25,1006,-10,14,-3
3839,-13,8,991,-10,28,-1
3840,-143,24,992,-17,23,3
3841,-157,-2,996,-22,1,-4
3842,-88,-31,986,-23,-19,-8
3843,75,-47,1006,-17,-28,-14
3844,136,-57,1014,-14,-12,-12
3845,122,-25,1002,-7,10,-4
3846,5,2,997,-10,26,-2
3847,-136,21,991,-15,25,1
3848,-164,7,992,-19,5,-5
3849,-94,-19,990,-22,-18,-9
3850,50,-47,1010,-19,-28,-11
3851,129,-57,1007,-14,-15,-12
3852,134,-34,1004,-8,6,-5
3853,17,1,997,-10,25,-1
3854,-117,12,1001,-15,26,1
3855,-170,10,975,-20,7,-2
3856,-104,-12,990,-22,-15,-7
3857,33,-48,1014,-20,-28,-12
3858,121,-55,1007,-14,-18,-11
3859,146,-36,1008,-11,4,-7
3860,31,-5,1002,-9,25,-2
3861,-102,8,997,-12,28,1
3862,-168,9,974,-18,11,-2
3863,-120,-7,995,-23,-12,-7
3864,14,-46,1007,-21,-28,-12
3865,114,-51,1007,-15,-19,-11
3866,150,-35,1005,-10,2,-7
3867,39,-6,1009,-10,24,-2
3868,-77,5,1001,-13,25,0
3869,-166,12,970,-19,14,0
3870,-126,-10,994,-20,-10,-6
3871,-8,-44,1009,-21,-26,-12
3872,109,-52,995,-16,-22,-11
3873,149,-41,1008,-9,-3,-9
3874,58,-10,1015,-9,22,-2
3875,-62,7,1002,-13,29,0
3876,-161,11,971,-17,17,0
3877,-137,-6,992,-20,-7,-5
3878,-31,-41,1001,-22,-26,-12
3879,107,-46,1007,-16,-24,-13
3880,152,-48,1005,-12,-5,-10
3881,72,-18,1007,-9,18,-3
3882,-49,7,1004,-13,26,0
3883,-157,20,980,-19,18,0
3884,-140,-8,992,-21,-5,-6
3885,-49,-37,994,-22,-23,-9
3886,96,-43,1011,-17,-25,-12
3887,148,-51,1006,-13,-9,-9
3888,86,-21,1002,-10,16,-3
3889,-33,5,1002,-13,27,0
3890,-147,19,993,-17,20,2
3891,-150,-7,992,-21,-3,-4
3892,-68,-29,984,-21,-23,-9
3893,86,-42,1011,-17,-26,-12
3894,143,-50,1013,-14,-10,-11
3895,100,-28,1002,-10,13,-2
3896,-12,2,995,-10,27,-1
3897,-143,18,989,-15,22,3
3898,-156,-4,997,-21,0,-4
3899,-82,-29,985,-22,-20,-8
3900,69,-38,1007,-17,-27,-12
3901,134,-53,1012,-15,-12,-12
3902,119,-26,1009,-9,9,-4
3903,5,2,991,-12,25,0
3904,-129,11,995,-17,24,1
3905,-164,1,992,-20,4,-3
3906,-96,-16,987,-22,-16,-8
3907,49,-49,1014,-19,-28,-12
3908,126,-54,1007,-15,-15,-11
3909,135,-28,1002,-9,6,-5
3910,20,-2,1002,-10,26,0
3911,-116,12,1002,-16,26,2
3912,-169,3,973,-21,7,-3
3913,-107,-19,991,-20,-15,-8
3914,33,-50,1015,-18,-29,-12
3915,122,-52,1003,-13,-18,-11
3916,144,-32,1012,-10,4,-7
3917,32,-1,1002,-13,25,-1
3918,-98,5,995,-14,27,2
3919,-170,7,973,-20,10,-2
3920,-117,-9,995,-21,-12,-8
3921,15,-49,1008,-16,-26,-11
3922,116,-52,1003,-16,-19,-11
3923,150,-33,1010,-9,0,-8
3924,40,-6,1007,-11,23,-1
3925,-84,8,1000,-14,28,0
3926,-164,12,971,-19,15,-2
3927,-127,-11,997,-21,-11,-6
3928,-8,-45,1001,-21,-26,-12
3929,112,-51,1006,-15,-22,-13
3930,150,-40,1004,-9,-2,-9
3931,58,-7,1012,-10,22,-2
3932,-66,6,1008,-15,29,0
3933,-162,16,967,-20,16,0
3934,-139,-12,997,-21,-8,-5
3935,-29,-42,998,-21,-24,-11
3936,107,-48,1010,-16,-23,-12
3937,155,-45,1002,-12,-5,-9
3938,72,-10,1008,-9,19,-2
3939,-49,6,1005,-12,28,-1
3940,-158,20,981,-19,20,0
3941,-145,-8,990,-21,-4,-4
3942,-54,-41,997,-22,-23,-10
3943,99,-47,1011,-15,-25,-12
3944,152,-48,1005,-11,-8,-9
3945,90,-20,1004,-9,17,-3
3946,-33,6,1003,-13,28,0
3947,-155,18,990,-18,21,2
3948,-147,-7,996,-21,-2,-5
3949,-74,-35,982,-21,-21,-9
3950,82,-40,1010,-16,-27,-12
3951,146,-55,1013,-13,-11,-11
3952,104,-27,1003,-9,13,-4
3953,-15,5,992,-11,28,0
3954,-143,18,995,-15,22,1
3955,-157,-1,992,-18,0,-4
3956,-86,-26,986,-21,-20,-9
3957,69,-45,1008,-17,-27,-13
3958,133,-56,1012,-14,-12,-12
3959,121,-29,1006,-10,9,-4
3960,0,1,995,-11,25,-2
3961,-128,16,990,-14,25,2
3962,-165,2,992,-19,6,-4
3963,-93,-15,991,-22,-17,-9
3964,51,-50,1007,-19,-28,-13
3965,126,-51,1006,-14,-17,-12
3966,134,-31,1006,-11,6,-6
3967,17,-1,997,-11,25,-1
3968,-116,9,999,-15,25,3
3969,-169,6,976,-18,8,-2
3970,-110,-12,986,-21,-15,-7
3971,36,-45,1016,-20,-29,-12
3972,121,-56,1006,-14,-18,-13
3973,144,-28,1007,-12,4,-6
3974,31,-7,1001,-11,24,-2
3975,-101,9,1001,-13,27,1
3976,-165,10,974,-18,10,-1
3977,-118,-11,992,-22,-12,-7
3978,15,-45,1008,-19,-27,-12
3979,116,-55,1005,-16,-19,-13
3980,147,-32,1007,-11,0,-7
3981,42,-7,1007,-9,23,-1
3982,-80,3,1002,-13,27,1
3983,-165,11,970,-18,14,0
3984,-128,-6,999,-21,-10,-5
3985,-8,-44,1001,-20,-27,-12
3986,112,-48,1001,-13,-22,-12
3987,150,-38,1006,-9,-2,-8
3988,58,-11,1014,-11,21,-2
3989,-64,5,1001,-13,27,0
3990,-166,16,974,-18,16,0
3991,-133,-5,994,-19,-8,-6
3992,-33,-44,999,-20,-24,-11
3993,107,-44,1008,-15,-23,-13
3994,152,-46,1005,-11,-6,-9
3995,70,-12,1004,-8,20,-2
3996,-49,6,1010,-12,27,0
3997,-159,22,977,-18,19,1
3998,-142,-10,991,-20,-3,-6
3999,-51,-37,999,-22,-24,-11
4000,97,-43,1008,-18,-26,-13
4001,151,-46,1003,-12,-8,-10
4002,85,-23,1006,-9,16,-3
4003,-33,7,998,-11,28,0
4004,-150,17,994,-17,21,1
4005,-149,-5,992,-21,-3,-6
4006,-68,-35,984,-19,-22,-10
4007,85,-43,1012,-16,-27,-13
4008,145,-51,1012,-12,-11,-10
4009,104,-27,1004,-10,14,-4
4010,-15,6,992,-12,27,0
4011,-144,21,988,-15,24,2
4012,-156,-5,1001,-21,0,-5
4013,-82,-24,982,-22,-20,-9
4014,71,-44,1009,-16,-27,-12
4015,134,-53,1012,-14,-11,-11
4016,118,-29,1008,-10,10,-5
4017,1,2,991,-11,26,-1
4018,-131,16,993,-15,24,0
4019,-162,0,992,-19,3,-5
4020,-96,-17,990,-21,-19,-8
4021,56,-48,1011,-19,-29,-12
4022,124,-56,1006,-13,-15,-11
4023,134,-27,1002,-8,5,-6
4024,19,-2,1001,-11,25,-2
4025,-117,15,997,-14,25,1
4026,-164,7,976,-21,7,-3
4027,-108,-13,991,-22,-15,-7
4028,31,-48,1006,-19,-28,-12
4029,121,-56,1012,-14,-17,-12
4030,140,-33,1004,-10,3,-7
4031,33,-3,1003,-10,24,-2
4032,-97,10,999,-15,26,0
4033,-166,14,974,-19,10,-2
4034,-120,-9,994,-21,-12,-7
4035,11,-47,1008,-20,-28,-12
4036,116,-57,1005,-15,-19,-13
4037,148,-36,1005,-8,1,-8
4038,45,-7,1006,-10,23,-1
4039,-78,10,1001,-12,28,1
4040,-167,16,970,-19,15,0
4041,-129,-9,998,-22,-10,-5
4042,-10,-48,1004,-22,-26,-12
4043,111,-50,1000,-16,-23,-12
4044,154,-42,1008,-10,-3,-9
4045,58,-11,1010,-10,22,-2
4046,-58,9,1006,-13,27,1
4047,-164,17,975,-18,16,0
4048,-137,-5,989,-21,-8,-5
4049,-29,-45,1003,-20,-26,-11
4050,106,-46,1010,-14,-23,-11
4051,155,-48,999,-16,-5,-8
4052,75,-14,1008,-22,10,-4
4053,-52,9,1006,-14,27,1
4054,-159,23,978,-17,19,1
4055,-143,-11,994,-21,-4,-5
4056,-52,-37,991,-20,-23,-11
4057,96,-45,1012,-15,-26,-13
4058,150,-51,1006,-11,-8,-10
4059,88,-20,999,-8,15,-2
4060,-29,7,1001,-10,27,0
4061,-155,20,991,-17,23,2
4062,-149,-4,993,-21,-2,-5
4063,-74,-36,984,-21,-21,-10
4064,86,-42,1010,-16,-27,-12
4065,146,-53,1014,-14,-11,-10
4066,105,-25,1005,-9,13,-4
4067,-13,6,995,-10,27,-1
4068,-144,22,990,-16,22,1
4069,-158,-1,998,-19,1,-6
4070,-83,-27,986,-21,-20,-9
4071,70,-45,1008,-19,-28,-12
4072,138,-53,1016,-14,-12,-12
4073,122,-27,1004,-9,12,-4
4074,2,2,996,-11,28,-1
4075,-130,18,992,-15,24,1
4076,-162,0,991,-21,4,-3
4077,-90,-17,988,-23,-17,-8
4078,52,-48,1013,-18,-28,-12
4079,122,-52,1003,-13,-15,-11
4080,132,-29,1004,-8,6,-6
4081,18,0,1001,-11,26,-2
4082,-112,7,995,-15,25,1
4083,-164,7,978,-18,6,-4
4084,-104,-13,989,-21,-15,-6
4085,34,-46,1011,-16,-29,-12
4086,117,-53,1007,-13,-16,-11
4087,142,-32,1009,-10,4,-6
4088,30,-6,1004,-9,24,-2
4089,-96,6,995,-12,26,2
4090,-166,9,973,-19,10,-1
4091,-121,-11,995,-20,-12,-6
4092,14,-46,1008,-19,-27,-12
4093,115,-50,1003,-15,-20,-12
4094,148,-33,1007,-10,0,-7
4095,41,-2,1009,-9,24,-1
4096,-80,3,1003,-14,28,1
4097,-164,12,969,-19,14,-1
4098,-127,-12,996,-20,-9,-6
4099,-12,-42,1004,-19,-27,-11
4100,113,-51,1001,-15,-23,-12
4101,148,-40,1004,-10,-3,-9
4102,56,-7,1018,-10,21,-2
4103,-59,8,1000,-13,29,0
4104,-164,15,974,-18,16,1
4105,-134,-5,990,-21,-7,-5
4106,-35,-45,1003,-21,-25,-11
4107,106,-49,1004,-15,-24,-13
4108,152,-45,1006,-11,-4,-10
4109,77,-13,1002,-8,18,-2
4110,-47,11,1011,-10,26,0
4111,-155,19,979,-17,18,1
4112,-146,-9,992,-21,-4,-5
4113,-56,-41,992,-21,-24,-11
4114,95,-47,1011,-15,-27,-12
4115,149,-52,1004,-12,-8,-11
4116,91,-20,1004,-9,15,-3
4117,-27,9,998,-12,26,0
4118,-152,24,994,-18,22,3
4119,-151,-6,993,-21,-1,-4
4120,-72,-35,984,-22,-22,-10
4121,82,-46,1008,-15,-27,-12
4122,142,-52,1014,-13,-10,-11
4123,108,-26,1004,-10,13,-4
4124,-14,6,994,-10,28,0
4125,-141,20,989,-16,25,3
4126,-161,-2,999,-20,2,-4
4127,-85,-23,985,-23,-19,-9
4128,66,-44,1009,-18,-27,-12
4129,134,-55,1010,-13,-12,-12
4130,122,-29,1007,-8,9,-5
4131,7,2,987,-8,26,-1
4132,-132,16,999,-15,25,3
4133,-163,4,984,-19,5,-4
4134,-101,-19,992,-23,-18,-8
4135,49,-47,1008,-18,-29,-13
4136,127,-58,1009,-13,-16,-13
4137,141,-27,1001,-10,6,-6
4138,19,1,999,-10,25,0
4139,-113,12,1001,-14,28,2
4140,-169,6,977,-20,8,-2
4141,-111,-14,991,-21,-15,-7
4142,31,-47,1012,-17,-30,-12
4143,121,-53,1004,-14,-19,-13
4144,147,-31,1009,-10,3,-7
4145,34,-2,1005,-10,23,-1
4146,-93,7,993,-13,27,2
4147,-168,8,976,-19,10,-1
4148,-119,-11,992,-22,-11,-6
4149,9,-48,1009,-19,-28,-11
4150,116,-50,1001,-15,-21,-12
4151,151,-36,1011,-9,-2,-8
4152,47,-4,1008,-11,22,-2
4153,-78,6,1001,-14,27,2
4154,-162,14,969,-19,14,-1
4155,-133,-11,1002,-23,-9,-6
4156,-9,-44,999,-20,-28,-11
4157,111,-54,1002,-13,-22,-12
4158,152,-35,1004,-9,-4,-8
4159,63,-6,1014,-10,21,-2
4160,-61,7,1005,-14,28,2
4161,-163,17,971,-19,16,1
4162,-138,-9,993,-20,-7,-6
4163,-36,-44,1000,-20,-25,-11
4164,105,-49,1009,-15,-23,-12
4165,154,-50,1000,-9,-8,-10
4166,75,-16,1008,-8,17,-1
4167,-43,11,1005,-13,28,0
4168,-160,22,982,-19,20,1
4169,-141,-5,991,-20,-3,-5
4170,-60,-40,992,-22,-22,-11
4171,96,-48,1009,-16,-27,-13
4172,150,-52,1008,-11,-9,-10
4173,90,-25,1003,-7,16,-2
4174,-27,12,998,-10,28,0
4175,-150,21,994,-16,23,1
4176,-151,-3,995,-20,-1,-5
4177,-74,-34,980,-22,-21,-9
4178,79,-45,1008,-16,-27,-12
4179,144,-56,1014,-14,-11,-11
4180,109,-26,1004,-12,12,-4
4181,-10,7,993,-11,27,0
4182,-140,22,990,-16,23,1
4183,-160,-4,997,-20,1,-5
4184,-91,-24,983,-22,-19,-8
4185,68,-47,1012,-19,-29,-14
4186,133,-54,1011,-13,-12,-12
4187,125,-29,1001,-7,8,-6
4188,6,0,999,-9,27,-1
4189,-126,15,995,-15,25,2
4190,-164,4,983,-18,5,-3
4191,-96,-17,995,-21,-16,-10
4192,45,-45,1013,-20,-28,-12
4193,124,-53,1002,-13,-15,-12
4194,138,-32,1010,-9,6,-7
4195,19,0,998,-9,26,-2
4196,-109,9,997,-13,26,1
4197,-167,9,980,-18,7,-2
4198,-112,-10,989,-22,-15,-6
4199,30,-45,1014,-17,-28,-14
4200,114,-55,1008,-16,-18,-12
4201,148,-31,1006,-10,2,-7
4202,34,-9,1005,-10,25,-1
4203,-92,9,996,-14,26,2
4204,-166,8,973,-18,10,-3
4205,-124,-7,998,-21,-11,-6
4206,8,-45,1007,-19,-27,-11
4207,112,-53,1005,-15,-19,-12
4208,151,-36,1005,-12,-1,-7
4209,48,-9,1013,-10,23,-2
4210,-77,3,999,-13,30,0
4211,-171,13,967,-18,15,0
4212,-127,-9,1002,-21,-9,-6
4213,-18,-46,1000,-21,-26,-11
4214,112,-49,1000,-14,-23,-12
4215,152,-43,1010,-10,-4,-10
4216,64,-10,1011,-11,21,-2
4217,-57,7,1005,-14,27,1
4218,-164,16,975,-18,16,1
4219,-140,-11,993,-21,-7,-5
4220,-36,-41,998,-19,-24,-10
4221,102,-46,1010,-16,-24,-12
4222,154,-45,1002,-12,-4,-10
4223,78,-19,1008,-11,19,-3
4224,-45,10,1001,-13,28,-1
4225,-159,16,986,-17,20,1
4226,-150,-10,993,-20,-2,-4
4227,-57,-39,986,-20,-23,-11
4228,95,-41,1014,-15,-27,-13
4229,148,-50,1005,-12,-9,-11
4230,94,-24,1002,-9,16,-4
4231,-25,9,1000,-11,29,0
4232,-146,20,992,-16,22,1
4233,-155,-5,994,-20,-2,-4
4234,-77,-31,984,-21,-22,-9
4235,80,-46,1011,-16,-27,-13
4236,141,-54,1010,-13,-10,-12
4237,113,-26,1005,-8,12,-3
4238,-7,6,992,-11,27,0
4239,-137,21,990,-16,22,2
4240,-161,0,996,-21,1,-3
4241,-88,-24,987,-23,-19,-8
4242,67,-50,1009,-17,-28,-13
4243,130,-56,1007,-13,-13,-11
4244,128,-29,1005,-8,9,-4
4245,7,2,996,-10,26,0
4246,-125,16,993,-15,25,1
4247,-166,2,989,-20,5,-4
4248,-102,-18,988,-23,-17,-7
4249,46,-49,1010,-20,-28,-11
4250,127,-58,1009,-14,-16,-12
4251,134,-27,1003,-8,6,-6
4252,29,0,1003,-10,24,-3
4253,-113,10,999,-14,26,1
4254,-167,10,973,-19,8,-2
4255,-114,-13,994,-21,-14,-7
4256,26,-49,1010,-19,-28,-11
4257,122,-57,1006,-15,-19,-11
4258,144,-30,1008,-12,3,-7
4259,35,-6,1004,-9,22,-2
4260,-91,9,999,-13,26,1
4261,-169,12,972,-19,12,-1
4262,-121,-10,998,-23,-12,-5
4263,6,-47,1005,-21,-28,-11
4264,114,-51,998,-14,-19,-12
4265,151,-35,1012,-10,-1,-8
4266,49,-6,1007,-10,23,-2
4267,-75,6,1005,-13,28,0
4268,-165,15,966,-19,13,0
4269,-129,-4,1002,-21,-9,-5
4270,-17,-48,996,-22,-26,-11
4271,112,-50,1003,-15,-23,-13
4272,152,-43,1006,-11,-4,-9
4273,61,-10,1012,-10,21,-2
4274,-58,7,1004,-13,28,1
4275,-159,22,972,-17,16,1
4276,-140,-6,993,-20,-5,-5
4277,-34,-42,998,-20,-23,-13
4278,97,-50,1012,-18,-23,-12
4279,152,-48,1000,-10,-5,-10
4280,76,-20,1008,-9,17,-1
4281,-38,10,1004,-11,26,0
4282,-155,23,988,-19,21,1
4283,-141,-8,992,-21,-4,-6
4284,-64,-36,989,-20,-23,-9
4285,94,-46,1009,-17,-27,-12
4286,148,-52,1008,-12,-10,-10
4287,98,-23,1001,-9,14,-3
4288,-26,9,997,-11,27,0
4289,-144,19,995,-16,22,2
4290,-156,-4,991,-20,-1,-4
4291,-80,-29,982,-21,-22,-9
4292,81,-42,1009,-16,-27,-13
4293,140,-55,1013,-12,-10,-11
4294,114,-28,1001,-10,12,-3
4295,-6,5,992,-8,28,-2
4296,-137,23,987,-17,23,2
4297,-160,-1,998,-18,3,-5
4298,-91,-21,986,-21,-18,-9
4299,62,-45,1011,-19,-28,-12
4300,132,-58,1009,-14,-14,-11
4301,128,-31,1004,-9,7,-6
4302,13,2,995,-10,25,-1
4303,-124,15,994,-15,26,3
4304,-164,4,989,-20,5,-4
4305,-101,-16,986,-21,-16,-7
4306,42,-48,1013,-18,-29,-12
4307,125,-57,1005,-14,-17,-11
4308,137,-33,1005,-11,7,-5
4309,25,0,1002,-11,26,-2
4310,-113,7,1002,-15,26,1
4311,-168,11,973,-18,8,-2
4312,-115,-12,991,-22,-14,-6
4313,24,-50,1012,-18,-28,-13
4314,119,-54,1007,-15,-19,-11
4315,145,-32,1008,-10,3,-7
4316,36,-5,1004,-11,25,-2
4317,-89,8,997,-15,27,0
4318,-170,12,975,-20,11,0
4319,-124,-11,995,-22,-12,-6
4320,5,-46,1010,-19,-27,-12
4321,115,-48,1000,-15,-21,-13
4322,153,-36,1008,-11,-1,-8
4323,48,-7,1011,-10,23,0
4324,-73,6,1002,-14,29,1
4325,-164,11,970,-20,15,-1
4326,-132,-10,995,-21,-10,-5
4327,-16,-43,1003,-20,-26,-12
4328,108,-52,1005,-15,-23,-13
4329,151,-40,1003,-10,-5,-9
4330,64,-10,1016,-10,21,-2
4331,-56,9,1002,-13,28,1
4332,-161,17,974,-18,16,1
4333,-137,-8,993,-21,-8,-7
4334,-43,-45,997,-21,-24,-11
4335,100,-47,1011,-16,-25,-13
4336,153,-48,1005,-11,-7,-11
4337,78,-13,1003,-8,18,-2
4338,-41,7,1004,-13,27,0
4339,-154,19,988,-18,19,2
4340,-146,-11,988,-19,-3,-4
4341,-57,-36,990,-19,-22,-11
4342,95,-45,1014,-15,-25,-13
4343,148,-48,1005,-11,-9,-12
4344,92,-25,1001,-10,16,-5
4345,-26,6,1000,-11,29,-1
4346,-150,23,987,-18,23,2
4347,-153,-8,1000,-21,0,-4
4348,-73,-29,982,-20,-22,-9
4349,81,-45,1006,-16,-28,-12
4350,139,-50,1015,-11,-11,-11
4351,108,-25,1006,-10,13,-4
4352,-9,4,989,-11,27,1
4353,-138,17,991,-16,23,2
4354,-159,-1,998,-20,2,-4
4355,-88,-25,986,-22,-17,-8
4356,64,-43,1012,-18,-28,-12
4357,129,-54,1011,-14,-13,-11
4358,126,-30,1003,-10,9,-4
4359,11,1,996,-11,27,0
4360,-129,12,995,-15,25,3
4361,-162,6,984,-19,5,-3
4362,-103,-19,991,-21,-16,-9
4363,47,-44,1010,-19,-29,-12
4364,122,-56,1009,-14,-15,-11
4365,137,-28,1004,-8,5,-6
4366,22,-5,1003,-11,25,0
4367,-104,11,1000,-14,26,0
4368,-167,6,973,-19,8,-3
4369,-111,-9,990,-20,-15,-7
4370,27,-49,1015,-20,-27,-11
4371,117,-51,1005,-13,-18,-12
4372,149,-32,1006,-11,2,-7
4373,34,-5,1006,-11,24,-2
4374,-88,6,996,-13,26,1
4375,-166,12,974,-20,11,-2
4376,-121,-12,996,-22,-11,-7
4377,4,-44,1007,-19,-26,-11
4378,112,-48,1002,-16,-20,-12
4379,151,-37,1008,-10,-1,-8
4380,51,-7,1009,-10,23,-1
4381,-75,6,1001,-12,28,1
4382,-161,15,971,-17,16,-1
4383,-131,-8,999,-21,-9,-6
4384,-18,-43,998,-22,-26,-12
4385,111,-55,1004,-16,-22,-13
4386,151,-38,1003,-11,-3,-9
4387,64,-10,1012,-9,21,-1
4388,-55,4,1004,-13,29,0
4389,-164,20,974,-30,21,4
4390,-142,-6,987,-21,-4,-4
4391,-40,-42,1002,-21,-24,-11
4392,104,-47,1006,-15,-25,-12
4393,149,-47,1001,-11,-7,-10
4394,81,-17,1007,-7,18,-2
4395,-42,9,1004,-11,28,0
4396,-156,20,982,-18,21,2
4397,-146,-9,997,-20,-4,-5
4398,-60,-37,984,-21,-22,-10
4399,94,-42,1012,-17,-26,-12
4400,148,-53,1010,-12,-10,-11
4401,94,-24,996,-10,14,-3
4402,-22,6,1000,-11,28,-2
4403,-150,25,995,-17,22,2
4404,-150,-6,992,-22,-1,-5
4405,-81,-34,985,-21,-22,-11
4406,81,-44,1006,-17,-27,-12
4407,143,-57,1013,-13,-11,-12
4408,110,-24,1005,-9,12,-3
4409,-3,2,991,-10,26,-1
4410,-140,19,991,-16,24,2
4411,-162,0,997,-20,1,-3
4412,-87,-26,985,-22,-18,-8
4413,61,-49,1013,-17,-26,-11
4414,129,-55,1008,-15,-13,-11
4415,129,-30,1006,-8,9,-6
4416,9,3,997,-10,27,-1
4417,-128,15,996,-15,26,2
4418,-163,2,984,-18,5,-3
4419,-101,-18,990,-21,-17,-7
4420,46,-45,1006,-18,-28,-13
4421,126,-58,1011,-14,-17,-12
4422,137,-29,1004,-12,4,-7
4423,27,-3,1003,-11,26,-2
4424,-111,9,997,-13,27,2
4425,-167,7,974,-19,7,-4
4426,-113,-13,989,-21,-13,-8
4427,23,-49,1013,-18,-28,-12
4428,118,-55,1005,-14,-17,-12
4429,147,-31,1011,-10,2,-8
4430,36,-4,1003,-10,25,-2
4431,-90,7,999,-13,28,0
4432,-163,7,972,-18,12,-1
