sequence,AccelerometerX,AccelerometerY,AccelerometerZ,GyroscopeX,GyroscopeY,GyroscopeZ
0,-159,-17,969,-16,18,-2
1,-148,-25,985,-21,-3,-6
2,-42,-36,1002,-13,-25,-11
3,97,-23,1001,-8,-29,-12
4,156,-16,1009,-13,-9,-9
5,91,-10,1008,-12,13,-4
6,-27,-7,1005,-11,28,-2
7,-148,-9,975,-22,21,0
8,-151,-32,988,-16,1,-5
9,-73,-34,987,-14,-22,-10
10,78,-25,1013,-11,-28,-13
11,155,-22,1006,-8,-14,-11
12,111,-12,1002,-12,11,-5
13,-2,-2,1001,-13,27,-2
14,-138,-9,991,-18,28,1
15,-164,-27,985,-19,6,-4
16,-98,-32,980,-15,-20,-9
17,58,-27,1005,-11,-29,-13
18,138,-28,1016,-11,-17,-11
19,136,-13,1007,-12,6,-5
20,20,0,995,-14,26,-1
21,-115,-7,991,-18,28,2
22,-169,-24,987,-19,10,-1
23,-115,-30,983,-18,-14,-8
24,33,-33,1008,-12,-29,-14
25,122,-28,1008,-11,-20,-13
26,153,-11,1004,-10,1,-8
27,44,-5,1000,-13,24,-1
28,-97,-10,998,-18,29,4
29,-169,-20,972,-19,14,-1
30,-128,-25,984,-18,-10,-4
31,5,-35,1010,-14,-28,-11
32,114,-30,1009,-9,-22,-14
33,157,-12,1009,-10,-3,-8
34,59,-2,1005,-14,21,-2
35,-70,-9,997,-14,28,1
36,-163,-15,970,-20,16,1
37,-140,-24,988,-17,-7,-7
38,-24,-38,1006,-13,-25,-12
39,105,-26,1003,-11,-27,-12
40,155,-19,1010,-10,-8,-9
41,80,-5,1013,-13,17,-4
42,-44,-11,1003,-17,29,0
43,-155,-10,966,-19,22,0
44,-152,-25,990,-19,-2,-5
45,-56,-35,993,-16,-25,-11
46,91,-29,1009,-13,-28,-13
47,158,-22,1004,-11,-11,-12
48,98,-8,1007,-11,14,-3
49,-19,-5,1003,-17,26,1
50,-150,-7,987,-19,24,2
51,-154,-26,979,-19,1,-4
52,-79,-35,992,-16,-21,-9
53,76,-24,1005,-13,-29,-13
54,150,-25,1011,-13,-14,-12
55,123,-14,1002,-13,10,-5
56,-4,-4,995,-15,28,1
57,-129,-3,991,-18,28,2
58,-168,-27,992,-20,6,-3
59,-101,-27,974,-17,-20,-8
60,56,-28,1011,-12,-31,-13
61,137,-28,1014,-12,-18,-13
62,140,-17,1004,-11,5,-7
63,25,-4,997,-15,25,-1
64,-114,-5,992,-18,28,3
65,-168,-22,982,-20,10,-2
66,-115,-26,986,-19,-12,-7
67,25,-30,1008,-14,-28,-11
68,123,-29,1008,-11,-21,-13
69,148,-12,1004,-12,0,-8
70,49,-5,1002,-16,24,-2
71,-90,-13,1001,-17,29,2
72,-169,-18,966,-19,12,0
73,-131,-22,985,-18,-10,-6
74,-1,-36,1011,-14,-27,-10
75,109,-28,1004,-12,-22,-12
76,160,-14,1009,-11,-5,-10
77,64,-4,1007,-13,21,-2
78,-65,-9,999,-17,29,0
79,-165,-15,969,-19,18,0
80,-144,-25,991,-18,-5,-5
81,-32,-40,997,-17,-25,-11
82,104,-29,1008,-11,-26,-12
83,160,-17,1007,-9,-10,-9
84,84,-2,1011,-13,17,-2
85,-38,-9,1009,-17,30,1
86,-157,-7,969,-21,22,1
87,-156,-32,985,-20,-2,-4
88,-57,-40,998,-17,-24,-9
89,89,-26,1010,-11,-27,-12
90,159,-19,1003,-11,-11,-11
91,104,-7,1006,-13,13,-3
92,-13,-6,1003,-16,26,-1
93,-145,-6,983,-20,24,2
94,-158,-30,988,-19,2,-5
95,-81,-36,986,-16,-20,-9
96,67,-30,1006,-13,-29,-11
97,150,-23,1010,-9,-18,-12
98,124,-17,1010,-12,8,-5
99,6,-1,988,-14,28,-1
100,-128,-8,996,-19,28,2
101,-166,-20,988,-22,6,-2
102,-105,-30,979,-17,-17,-7
103,50,-28,1011,-12,-29,-12
104,132,-30,1012,-11,-18,-12
105,141,-15,1003,-12,4,-7
106,31,-6,998,-14,24,-1
107,-110,-10,991,-17,27,2
108,-170,-20,979,-19,10,-2
109,-118,-27,987,-17,-13,-7
110,19,-30,1009,-14,-29,-12
111,123,-33,1005,-12,-22,-13
112,152,-15,1007,-11,-1,-9
113,51,-6,1000,-14,21,-3
114,-86,-12,999,-16,29,2
115,-165,-14,971,-19,14,-1
116,-134,-20,983,-18,-9,-6
117,-3,-38,1011,-15,-27,-12
118,111,-32,1009,-11,-23,-13
119,156,-17,1003,-13,-6,-9
120,68,-6,1010,-13,19,-1
121,-64,-13,1002,-16,30,2
122,-157,-12,963,-17,19,1
123,-147,-21,995,-17,-4,-4
124,-34,-36,995,-14,-27,-12
125,101,-26,1005,-11,-28,-13
126,158,-22,1004,-11,-9,-10
127,85,-7,1014,-15,19,-2
128,-33,-9,1004,-17,30,0
129,-156,-6,968,-18,22,2
130,-151,-25,990,-18,-2,-4
131,-64,-38,991,-16,-23,-10
132,85,-27,1014,-11,-27,-12
133,160,-21,1002,-11,-12,-13
134,105,-13,1006,-9,13,-4
135,-13,-7,999,-14,27,-1
136,-141,-4,991,-19,25,2
137,-156,-27,986,-18,3,-4
138,-84,-37,981,-15,-19,-10
139,70,-27,1013,-11,-29,-13
140,144,-26,1012,-11,-16,-11
141,124,-16,1002,-11,8,-5
142,9,-2,995,-12,27,-1
143,-131,-4,990,-16,27,3
144,-166,-22,989,-18,6,-3
145,-108,-28,980,-18,-15,-7
146,43,-28,1007,-13,-29,-13
147,129,-31,1011,-12,-18,-13
148,142,-17,1007,-9,5,-6
149,35,-3,991,-14,25,-2
150,-112,-8,998,-16,28,2
151,-170,-20,974,-18,12,-2
152,-118,-22,987,-18,-13,-6
153,20,-32,1011,-13,-29,-11
154,117,-31,1006,-11,-21,-13
155,156,-17,1008,-10,-1,-9
156,50,-5,1000,-14,23,-2
157,-81,-9,1001,-16,29,1
158,-166,-17,969,-18,15,0
159,-136,-22,983,-17,-9,-5
160,-8,-35,1011,-13,-27,-12
161,109,-31,1010,-12,-24,-13
162,159,-17,1003,-12,-4,-10
163,71,-6,1008,-13,20,-3
164,-58,-11,1000,-16,29,1
165,-156,-16,968,-17,20,0
166,-147,-26,990,-17,-4,-4
167,-38,-37,999,-15,-26,-11
168,100,-28,1007,-9,-27,-12
169,157,-15,1003,-11,-10,-9
170,91,-7,1017,-13,17,-3
171,-34,-9,1002,-17,30,0
172,-153,-11,968,-18,23,2
173,-156,-27,989,-18,-1,-4
174,-69,-39,990,-15,-22,-10
175,86,-26,1013,-10,-27,-15
176,152,-21,1006,-9,-13,-12
177,106,-6,1000,-11,13,-4
178,-12,-6,1006,-15,27,-1
179,-142,-1,990,-18,25,3
180,-158,-26,986,-19,3,-4
181,-88,-36,982,-16,-20,-9
182,62,-25,1009,-11,-28,-13
183,147,-25,1011,-11,-17,-13
184,126,-19,1009,-11,8,-5
185,15,0,989,-15,26,0
186,-120,-8,990,-16,27,1
187,-166,-23,990,-19,7,-3
188,-105,-31,981,-17,-16,-7
189,43,-32,1008,-11,-28,-13
190,127,-33,1013,-12,-19,-12
191,144,-14,1001,-11,3,-7
192,36,-2,1000,-14,24,-1
193,-104,-8,995,-17,28,2
194,-166,-20,979,-17,13,-2
195,-123,-26,986,-17,-11,-6
196,16,-32,1010,-13,-29,-12
197,120,-33,1006,-10,-22,-13
198,153,-13,1007,-10,0,-7
199,58,0,1002,-13,22,-1
200,-83,-12,1001,-18,29,2
201,-162,-16,965,-20,15,-1
202,-141,-23,990,-18,-7,-7
203,-10,-39,1004,-15,-27,-12
204,110,-30,1008,-11,-24,-12
205,156,-13,1008,-10,-6,-8
206,69,-1,1007,-12,20,-3
207,-54,-13,1005,-16,30,0
208,-159,-10,964,-19,20,2
209,-147,-25,990,-18,-3,-5
210,-42,-40,999,-15,-25,-11
211,99,-30,999,-11,-27,-12
212,161,-15,1010,-9,-11,-10
213,92,-7,1015,-11,15,-4
214,-30,-5,1000,-15,29,1
215,-152,-9,974,-19,23,2
216,-156,-26,984,-17,1,-5
217,-66,-39,995,-15,-22,-10
218,85,-26,1008,-12,-29,-12
219,155,-21,1007,-9,-13,-10
220,111,-15,1002,-11,11,-4
221,-11,-2,1005,-15,28,0
222,-137,-4,985,-20,27,2
223,-163,-25,990,-19,4,-3
224,-87,-37,977,-17,-19,-8
225,61,-24,1010,-10,-29,-12
226,146,-27,1012,-11,-17,-12
227,127,-17,1006,-11,9,-6
228,17,-2,994,-13,26,-1
229,-124,-4,989,-16,28,2
230,-167,-24,993,-18,8,-4
231,-112,-32,980,-17,-16,-8
232,41,-31,1010,-11,-29,-14
233,130,-33,1010,-10,-19,-13
234,143,-12,1002,-9,2,-7
235,38,-6,1003,-12,24,-2
236,-107,-6,995,-17,29,1
237,-169,-22,975,-18,13,-1
238,-121,-24,988,-17,-11,-7
239,16,-32,1008,-12,-29,-12
240,116,-29,1009,-10,-22,-13
241,154,-12,1008,-10,-1,-8
242,55,-5,1001,-14,23,-2
243,-78,-11,999,-17,29,2
244,-162,-20,966,-19,15,-1
245,-137,-23,985,-16,-8,-6
246,-11,-38,1006,-13,-26,-11
247,107,-30,1008,-9,-23,-12
248,158,-13,1004,-10,-5,-10
249,70,-3,1010,-12,19,-2
250,-54,-9,998,-15,29,1
251,-157,-13,969,-20,21,0
252,-147,-29,988,-17,-3,-5
253,-42,-37,995,-14,-24,-10
254,98,-27,1004,-10,-26,-12
255,157,-16,1006,-8,-9,-11
256,90,-6,1011,-13,17,-3
257,-31,-5,1006,-15,30,0
258,-151,-8,974,-19,24,1
259,-155,-29,984,-18,1,-4
260,-69,-40,993,-15,-21,-9
261,84,-28,1012,-11,-27,-14
262,150,-22,1006,-10,-13,-12
263,110,-11,1005,-10,12,-4
264,-8,-4,1001,-15,27,-2
265,-138,-4,990,-18,26,2
266,-160,-30,988,-20,5,-3
267,-91,-36,980,-16,-19,-9
268,64,-25,1010,-10,-28,-12
269,143,-27,1014,-11,-16,-11
270,131,-11,1006,-11,8,-6
271,15,-3,995,-15,26,-1
272,-122,-4,988,-19,27,3
273,-168,-26,987,-19,9,-1
274,-110,-31,984,-17,-14,-8
275,38,-32,1009,-12,-28,-12
276,129,-28,1008,-10,-19,-12
277,144,-17,1006,-9,3,-6
278,39,1,995,-12,24,-1
279,-101,-11,999,-18,30,2
280,-170,-18,974,-19,12,-2
281,-124,-26,984,-16,-12,-8
282,10,-36,1010,-14,-29,-13
283,116,-30,1006,-10,-23,-13
284,158,-8,1008,-9,-2,-9
285,58,-3,1001,-13,23,-2
286,-82,-9,998,-17,30,2
287,-166,-17,966,-20,16,-2
288,-141,-26,987,-17,-8,-7
289,-13,-37,1007,-11,-27,-12
290,107,-32,1007,-11,-23,-13
291,161,-14,1004,-10,-6,-11
292,75,-6,1012,-11,18,-3
293,-52,-9,1002,-16,30,0
294,-160,-11,968,-19,21,1
295,-146,-25,991,-17,-3,-5
296,-45,-40,998,-16,-24,-9
297,100,-27,1003,-10,-28,-13
298,157,-22,1009,-9,-10,-11
299,96,-5,1010,-11,17,-3
300,-28,-9,1008,-16,29,0
301,-149,-4,972,-18,22,2
302,-158,-29,985,-17,0,-3
303,-69,-40,991,-15,-22,-10
304,78,-27,1011,-10,-28,-12
305,154,-24,1005,-9,-13,-11
306,111,-16,1005,-9,11,-3
307,-6,-2,999,-15,27,0
308,-142,-3,990,-19,27,2
309,-156,-26,984,-20,4,-3
310,-95,-36,981,-16,-18,-9
311,63,-25,1005,-11,-30,-12
312,143,-28,1014,-11,-16,-11
313,130,-16,1006,-10,10,-6
314,14,-3,991,-13,27,-1
315,-122,-3,990,-17,28,2
316,-169,-23,990,-19,8,-3
317,-106,-28,980,-17,-15,-9
318,38,-31,1010,-13,-28,-13
319,133,-30,1010,-10,-20,-13
320,145,-16,1004,-9,2,-8
321,37,-2,998,-15,24,0
322,-106,-10,995,-19,30,2
323,-167,-21,978,-19,12,-1
324,-125,-21,984,-16,-12,-5
325,16,-29,1011,-13,-28,-12
326,116,-33,1009,-11,-22,-12
327,153,-14,1003,-11,-1,-8
328,58,-8,1006,-13,24,-2
329,-83,-12,999,-15,29,1
330,-166,-16,968,-19,15,0
331,-138,-23,986,-16,-8,-7
332,-14,-35,1008,-14,-26,-12
333,110,-28,1008,-12,-24,-14
334,157,-12,1006,-11,-5,-9
335,72,-5,1008,-12,18,-3
336,-55,-12,1001,-17,30,1
337,-161,-14,967,-18,19,0
338,-144,-27,988,-18,-4,-4
339,-38,-38,1000,-14,-25,-11
340,96,-26,998,-10,-26,-13
341,162,-18,1008,-10,-10,-11
342,89,-9,1010,-14,16,-3
343,-32,-6,1004,-15,28,1
344,-150,-11,974,-18,23,1
345,-159,-26,984,-18,-1,-4
346,-63,-36,991,-14,-21,-10
347,85,-27,1014,-9,-23,-11
348,154,-20,1003,-16,-13,-10
349,113,-10,1006,-10,11,-4
350,-12,-4,1003,-16,28,0
351,-140,-1,990,-20,25,1
352,-162,-31,987,-19,4,-3
353,-94,-37,982,-16,-18,-8
354,71,-28,1007,-12,-30,-13
355,146,-27,1016,-10,-17,-12
356,127,-13,999,-13,7,-4
357,16,-4,998,-14,28,-2
358,-130,-3,991,-18,27,3
359,-166,-22,987,-19,7,-3
360,-110,-33,981,-17,-15,-8
361,44,-28,1005,-11,-29,-13
362,132,-34,1014,-11,-19,-13
363,144,-15,1006,-10,3,-5
364,36,2,994,-13,24,-1
365,-107,-5,996,-16,29,1
366,-172,-21,981,-17,13,-1
367,-122,-25,983,-17,-12,-7
368,21,-37,1013,-12,-28,-12
369,115,-32,1004,-9,-22,-12
370,157,-10,1003,-10,-2,-9
371,53,-5,1006,-13,23,-1
372,-87,-9,996,-16,30,1
373,-166,-17,969,-19,15,0
374,-138,-22,986,-16,-8,-6
375,-5,-36,1011,-14,-28,-13
376,112,-32,1009,-12,-24,-13
377,159,-15,1007,-10,-5,-8
378,73,-3,1007,-11,20,-2
379,-64,-9,1001,-15,29,2
380,-163,-12,966,-18,18,1
381,-144,-28,991,-18,-5,-5
382,-36,-38,998,-13,-25,-11
383,103,-30,1000,-11,-26,-13
384,156,-16,1013,-9,-10,-11
385,86,-4,1007,-11,17,-2
386,-38,-9,1009,-15,31,0
387,-153,-9,971,-18,23,1
388,-155,-26,981,-17,0,-3
389,-55,-37,1000,-16,-24,-10
390,86,-26,1007,-11,-27,-12
391,155,-17,1002,-10,-11,-11
392,105,-14,1008,-12,14,-5
393,-16,-3,1003,-14,28,-1
394,-144,-4,980,-19,26,2
395,-160,-27,989,-17,3,-4
396,-85,-39,985,-16,-20,-8
397,72,-27,1008,-12,-30,-13
398,149,-24,1011,-9,-16,-12
399,119,-11,1000,-10,9,-5
400,4,-4,998,-15,28,0
401,-132,-2,992,-18,28,2
402,-165,-28,987,-19,7,-3
403,-105,-35,976,-16,-17,-8
404,54,-26,1013,-10,-29,-13
405,139,-30,1012,-11,-17,-13
406,140,-12,1005,-11,6,-6
407,28,-5,994,-14,25,-2
408,-115,-5,991,-18,28,3
409,-168,-27,982,-20,10,-1
410,-119,-28,988,-17,-13,-7
411,30,-32,1008,-13,-29,-11
412,122,-29,1007,-9,-20,-12
413,153,-13,1008,-8,0,-6
414,50,-3,1000,-13,24,-1
415,-96,-9,998,-17,32,2
416,-172,-20,974,-19,16,0
417,-129,-29,980,-17,-11,-6
418,1,-36,1009,-13,-30,-11
419,116,-29,1011,-10,-23,-14
420,161,-12,1006,-11,-2,-9
421,65,-3,1001,-12,22,-1
422,-75,-10,1002,-15,31,1
423,-168,-16,967,-20,18,0
424,-144,-25,984,-18,-6,-6
425,-17,-37,1007,-14,-27,-12
426,108,-30,1004,-10,-27,-12
427,165,-10,1008,-8,-7,-10
428,77,-4,1011,-14,19,-3
429,-49,-10,1006,-15,30,0
430,-158,-14,968,-20,22,2
431,-154,-24,988,-17,-3,-4
432,-45,-40,999,-14,-24,-10
433,93,-29,1005,-11,-27,-14
434,157,-19,1006,-9,-10,-11
435,98,-7,1015,-13,17,-4
436,-28,-7,1002,-15,30,1
437,-153,-6,971,-19,24,3
438,-156,-29,989,-18,1,-4
439,-74,-38,988,-16,-21,-10
440,80,-27,1010,-11,-29,-14
441,155,-23,1005,-10,-15,-12
442,116,-11,1001,-11,11,-4
443,-9,-3,1001,-15,28,0
444,-138,-2,991,-18,27,1
445,-166,-27,985,-18,5,-3
446,-96,-36,981,-16,-19,-9
447,65,-29,1011,-11,-30,-13
448,147,-29,1013,-9,-17,-11
449,133,-15,1006,-11,7,-5
450,17,0,993,-13,28,0
451,-123,0,990,-17,29,2
452,-168,-24,989,-20,9,-4
453,-113,-33,982,-17,-15,-8
454,43,-29,1005,-12,-30,-12
455,129,-31,1015,-11,-20,-14
456,149,-15,1004,-10,4,-7
457,37,-4,997,-14,26,-1
458,-100,-6,995,-17,30,2
459,-174,-24,978,-17,13,-1
460,-121,-23,982,-18,-12,-7
461,15,-34,1013,-13,-29,-12
462,119,-30,1003,-9,-23,-12
463,154,-17,1007,-10,-2,-8
464,56,-4,1002,-14,23,-1
465,-87,-14,1002,-18,31,4
466,-168,-14,965,-18,16,-1
467,-140,-23,985,-16,-9,-5
468,-6,-34,1008,-12,-28,-12
469,108,-34,1008,-9,-23,-12
470,164,-12,1011,-10,-5,-11
471,69,-6,1004,-13,19,-2
472,-62,-9,999,-15,30,1
473,-161,-14,973,-18,19,1
474,-149,-24,985,-16,-3,-5
475,-35,-40,1001,-15,-25,-11
476,104,-26,1003,-10,-27,-15
477,161,-19,1009,-10,-9,-11
478,89,-6,1013,-12,18,-3
479,-41,-12,1006,-15,29,1
480,-154,-9,968,-18,23,1
481,-157,-25,988,-18,-1,-4
482,-62,-35,994,-16,-24,-9
483,89,-27,1007,-11,-28,-13
484,160,-24,1003,-10,-13,-12
485,105,-11,1009,-11,13,-3
486,-13,-5,1005,-14,28,0
487,-148,-2,980,-19,25,3
488,-160,-28,987,-18,2,-3
489,-86,-38,983,-15,-21,-9
490,73,-25,1012,-11,-29,-13
491,154,-24,1006,-10,-16,-12
492,121,-14,1003,-11,10,-6
493,10,-3,1000,-14,27,-2
494,-136,-2,992,-18,28,3
495,-167,-24,986,-18,7,-2
496,-107,-39,979,-18,-17,-6
497,50,-30,1006,-10,-30,-13
498,142,-29,1019,-10,-18,-12
499,141,-16,1007,-11,5,-6
500,27,-2,992,-14,26,-2
501,-115,-5,993,-17,29,2
502,-173,-21,988,-18,10,-1
503,-119,-31,982,-19,-12,-8
504,33,-32,1010,-12,-30,-13
505,125,-32,1010,-11,-22,-12
506,156,-12,1005,-8,0,-8
507,49,-4,999,-13,24,-2
508,-98,-7,1002,-16,31,3
509,-170,-22,968,-19,16,-2
510,-132,-23,983,-17,-11,-6
511,5,-37,1011,-13,-29,-12
512,116,-31,1008,-10,-23,-15
513,160,-11,1004,-10,-4,-10
514,65,-4,1007,-12,22,-3
515,-74,-8,999,-15,31,1
516,-167,-16,968,-19,18,-1
517,-143,-23,987,-17,-6,-6
518,-21,-36,1004,-13,-26,-12
519,107,-28,1005,-11,-25,-13
520,166,-13,1012,-9,-7,-10
521,80,-1,1008,-12,20,-2
522,-52,-15,1002,-17,30,2
523,-159,-9,967,-19,20,0
524,-151,-29,988,-18,-3,-5
525,-47,-40,999,-13,-24,-10
526,99,-28,1003,-10,-28,-12
527,159,-17,1008,-9,-10,-12
528,95,-6,1011,-13,16,-4
529,-29,-6,1006,-15,31,0
530,-153,-8,973,-20,23,2
531,-155,-29,985,-17,1,-4
532,-72,-41,990,-15,-21,-10
533,83,-26,1012,-11,-28,-13
534,157,-20,1004,-10,-13,-12
535,110,-11,1003,-10,12,-4
536,-5,0,1008,-13,26,0
537,-144,-3,985,-20,26,3
538,-162,-28,987,-19,5,-3
539,-94,-43,982,-15,-19,-9
540,65,-24,1011,-10,-29,-13
541,152,-27,1011,-9,-16,-12
542,127,-11,1009,-9,9,-7
543,16,-1,993,-15,26,-2
544,-130,-3,992,-18,28,2
545,-169,-25,987,-20,7,-2
546,-110,-35,982,-15,-17,-9
547,48,-29,1005,-11,-30,-14
548,136,-28,1017,-11,-19,-13
549,148,-12,1003,-9,6,-7
550,33,-2,995,-15,26,-2
551,-110,-4,995,-17,29,3
552,-181,-25,981,-20,13,0
553,-119,-26,984,-17,-13,-8
554,20,-38,1010,-13,-29,-11
555,122,-25,1005,-11,-22,-14
556,158,-16,1006,-9,-1,-10
557,52,0,1002,-15,24,-1
558,-88,-11,1000,-18,30,2
559,-171,-17,973,-19,16,-1
560,-137,-27,980,-18,-9,-5
561,-3,-36,1011,-12,-27,-12
562,115,-31,1011,-9,-23,-13
563,161,-9,1007,-10,-3,-8
564,71,-4,1005,-13,22,-2
565,-66,-12,1002,-16,31,1
566,-164,-14,964,-19,17,0
567,-148,-26,989,-17,-6,-5
568,-31,-40,1000,-14,-26,-11
569,104,-27,1003,-11,-27,-14
570,163,-17,1011,-10,-8,-10
571,84,-1,1011,-12,17,-2
572,-44,-12,1001,-17,29,0
573,-160,-10,971,-19,22,2
574,-157,-28,984,-19,-2,-2
575,-54,-36,995,-16,-24,-10
576,90,-30,1008,-11,-28,-13
577,162,-19,1004,-11,-12,-11
578,99,-11,1009,-11,15,-3
579,-20,-4,1004,-14,29,-1
580,-152,-7,979,-18,24,2
581,-162,-29,983,-18,1,-3
582,-81,-37,991,-14,-20,-9
583,79,-26,1010,-11,-29,-13
584,153,-23,1007,-10,-15,-12
585,121,-11,1000,-10,10,-5
586,1,-5,1005,-14,29,0
587,-135,-1,989,-17,27,1
588,-166,-27,989,-18,6,-2
589,-100,-37,979,-16,-19,-8
590,58,-27,1008,-11,-29,-12
591,145,-26,1012,-11,-17,-12
592,135,-14,1009,-12,7,-6
593,23,-2,991,-13,26,-1
594,-122,-3,991,-17,29,3
595,-165,-25,987,-19,9,-4
596,-117,-31,982,-16,-13,-8
597,39,-30,1006,-11,-29,-13
598,129,-31,1012,-11,-19,-12
599,151,-15,1002,-9,2,-6
600,43,-2,997,-14,24,-1
601,-102,-6,998,-17,30,1
602,-174,-22,976,-19,14,-2
603,-126,-24,985,-17,-11,-7
604,12,-37,1011,-14,-29,-11
605,120,-29,1010,-11,-23,-13
606,161,-15,1005,-9,-3,-9
607,55,-3,1004,-13,22,-2
608,-79,-12,1003,-17,30,1
609,-172,-16,965,-18,17,0
610,-142,-22,984,-17,-10,-6
611,-11,-36,1009,-14,-27,-12
612,108,-28,1006,-10,-24,-12
613,165,-12,1007,-10,-6,-10
614,74,-3,1009,-12,20,0
615,-60,-11,997,-16,30,3
616,-162,-13,969,-19,19,0
617,-152,-25,989,-19,-4,-5
618,-38,-35,997,-15,-26,-11
619,104,-29,1006,-11,-28,-13
620,161,-18,1008,-9,-10,-11
621,89,-7,1014,-13,17,-3
622,-39,-8,1004,-15,31,2
623,-157,-9,970,-19,22,3
624,-156,-26,985,-17,-1,-4
625,-63,-41,995,-15,-23,-10
626,88,-29,1006,-11,-28,-12
627,158,-22,1008,-9,-12,-11
628,110,-9,1002,-11,14,-4
629,-16,-3,1009,-13,28,-1
630,-145,-4,981,-19,26,3
631,-167,-25,987,-17,4,-3
632,-85,-39,986,-15,-20,-9
633,73,-25,1008,-13,-29,-12
634,151,-22,1012,-9,-18,-12
635,125,-12,1002,-10,8,-5
636,6,-3,1000,-15,28,0
637,-129,0,989,-18,29,3
638,-166,-30,990,-21,7,-3
639,-102,-35,977,-16,-18,-8
640,50,-28,1007,-12,-28,-13
641,142,-26,1016,-10,-18,-13
642,139,-16,1007,-12,7,-5
643,28,0,991,-14,26,-2
644,-115,-9,994,-18,30,2
645,-172,-20,983,-19,10,0
646,-116,-30,986,-17,-14,-7
647,30,-28,1011,-13,-29,-12
648,126,-32,1008,-11,-21,-13
649,156,-12,1007,-9,0,-8
650,43,-6,1001,-13,24,-1
651,-97,-6,999,-17,29,1
652,-172,-22,973,-18,15,-2
653,-134,-20,982,-17,-10,-6
654,9,-35,1013,-12,-29,-12
655,114,-30,1007,-9,-23,-13
656,162,-12,1004,-11,-3,-8
657,65,-6,1006,-15,23,-3
658,-77,-11,999,-16,30,4
659,-166,-15,965,-19,18,1
660,-142,-26,989,-18,-5,-6
661,-20,-37,1004,-14,-27,-11
662,110,-28,1005,-10,-25,-14
663,162,-13,1012,-9,-6,-9
664,78,0,1008,-12,19,0
665,-51,-9,1002,-17,31,1
666,-160,-16,970,-19,22,1
667,-151,-28,985,-18,-3,-5
668,-43,-37,995,-14,-26,-10
669,98,-27,1006,-9,-26,-12
670,160,-13,1005,-10,-9,-10
671,93,-4,1017,-11,16,-3
672,-25,-4,1003,-16,29,0
673,-153,-8,973,-20,23,2
674,-155,-30,986,-19,-1,-4
675,-72,-40,993,-16,-22,-9
676,85,-29,1006,-10,-27,-14
677,150,-23,1008,-10,-14,-11
678,115,-5,1000,-9,11,-4
679,-12,-3,1007,-15,28,-1
680,-141,1,986,-17,27,1
681,-163,-30,985,-14,5,-4
682,-93,-38,980,-14,-18,-8
683,66,-29,1010,-11,-29,-13
684,151,-26,1010,-9,-16,-13
685,127,-16,1007,-10,8,-6
686,15,2,993,-14,27,-2
687,-128,-4,995,-17,28,2
688,-166,-23,988,-20,6,-2
689,-110,-35,977,-16,-16,-9
690,47,-30,1007,-10,-29,-13
691,135,-32,1013,-11,-19,-13
692,147,-11,1006,-9,4,-5
693,34,0,999,-13,25,0
694,-112,-5,992,-17,30,2
695,-172,-23,979,-19,12,-2
696,-121,-29,989,-16,-13,-7
697,21,-34,1007,-14,-30,-11
698,126,-32,1007,-10,-22,-12
699,158,-12,1007,-10,0,-7
700,51,0,1000,-14,23,-1
701,-91,-8,1003,-17,31,2
702,-174,-20,966,-19,15,-1
703,-136,-27,983,-18,-9,-6
704,0,-36,1011,-14,-29,-12
705,112,-36,1007,-10,-24,-13
706,164,-7,1007,-10,-5,-9
707,65,-2,1007,-12,22,-3
708,-66,-6,999,-16,30,0
709,-165,-17,967,-20,18,0
710,-149,-26,989,-17,-6,-5
711,-27,-42,1001,-14,-26,-11
712,104,-31,1006,-10,-25,-13
713,165,-16,1003,-9,-9,-10
714,84,-1,1014,-12,18,-4
715,-42,-9,1002,-17,30,1
716,-160,-9,969,-19,23,0
717,-156,-26,991,-17,-2,-5
718,-57,-40,991,-14,-24,-11
719,94,-26,1003,-10,-29,-14
720,162,-24,1007,-10,-12,-11
721,101,-2,1009,-11,14,-5
722,-19,-5,1005,-15,29,0
723,-149,-7,976,-18,25,2
724,-161,-31,983,-18,1,-3
725,-79,-39,990,-15,-22,-11
726,78,-30,1009,-11,-28,-14
727,153,-20,1008,-9,-15,-13
728,118,-9,1000,-9,9,-5
729,-2,-1,1006,-14,27,-1
730,-135,-4,988,-19,25,0
731,-165,-28,987,-18,6,-3
732,-100,-36,977,-15,-19,-8
733,57,-29,1009,-9,-29,-13
734,145,-27,1011,-10,-18,-13
735,136,-15,1007,-11,6,-7
736,22,1,993,-14,26,0
737,-122,-4,991,-16,28,2
738,-169,-27,985,-18,9,-2
739,-115,-32,982,-15,-14,-9
740,38,-34,1012,-12,-29,-12
741,132,-29,1006,-10,-21,-12
742,150,-13,1006,-10,3,-6
743,39,-2,999,-14,25,-1
744,-105,-2,998,-17,30,3
745,-170,-22,976,-20,13,-2
746,-126,-27,985,-17,-12,-5
747,18,-37,1009,-13,-29,-13
748,120,-31,1007,-9,-21,-14
749,157,-12,1006,-9,-2,-8
750,58,1,1005,-12,23,-2
751,-83,-8,1000,-17,31,3
752,-170,-17,968,-19,16,-1
753,-140,-27,980,-18,-8,-6
754,-10,-39,1012,-13,-29,-12
755,113,-31,1004,-11,-26,-14
756,159,-12,1012,-9,-5,-10
757,74,-2,1006,-11,20,-1
758,-59,-8,1001,-14,30,2
759,-165,-14,969,-21,20,0
760,-151,-28,985,-20,-3,-6
761,-36,-39,1001,-14,-26,-12
762,103,-32,1001,-9,-28,-13
763,164,-16,1008,-7,-11,-12
764,86,-4,1015,-12,17,-2
765,-35,-4,1003,-15,31,1
766,-159,-9,973,-19,23,2
767,-157,-27,981,-17,-1,-4
768,-59,-40,1002,-15,-25,-10
769,93,-31,1001,-12,-29,-13
770,158,-21,1008,-9,-11,-11
771,111,-6,1009,-11,15,-5
772,-21,-2,1006,-14,28,0
773,-144,-2,978,-19,25,2
774,-165,-26,990,-19,3,-4
775,-85,-38,984,-14,-22,-10
776,71,-28,1010,-10,-29,-14
777,155,-26,1006,-8,-17,-13
778,123,-15,1001,-9,10,-5
779,5,1,1002,-14,29,0
780,-134,-4,991,-18,29,3
781,-168,-22,987,-19,7,-3
782,-107,-37,978,-16,-18,-8
783,54,-31,1006,-11,-30,-13
784,143,-30,1013,-11,-18,-12
785,144,-15,1006,-11,5,-5
786,28,0,995,-12,27,-2
787,-119,-1,991,-16,29,3
788,-174,-24,986,-19,10,-1
789,-119,-34,983,-17,-13,-8
790,32,-33,1008,-13,-30,-12
791,129,-32,1005,-9,-21,-14
792,155,-15,1007,-9,0,-7
793,47,0,997,-14,25,-1
794,-102,-6,1000,-18,31,3
795,-171,-19,973,-19,14,-1
796,-131,-26,986,-17,-11,-6
797,9,-37,1008,-13,-29,-13
798,116,-32,1010,-10,-23,-13
799,160,-13,1005,-10,-2,-10
800,60,-2,1008,-14,22,-1
801,-74,-8,999,-17,30,2
802,-172,-17,967,-19,17,-1
803,-144,-23,983,-18,-7,-5
804,-14,-39,1008,-13,-26,-11
805,110,-31,1007,-11,-25,-13
806,163,-16,1008,-12,-6,-10
807,76,-1,1006,-12,19,-3
808,-55,-6,1000,-17,31,2
809,-163,-15,965,-19,21,1
810,-154,-26,988,-17,-3,-5
811,-37,-40,997,-16,-26,-10
812,103,-29,1004,-10,-27,-12
813,160,-14,1006,-9,-10,-10
814,91,-3,1013,-13,17,-4
815,-33,-8,1005,-15,30,1
816,-158,-9,973,-18,23,2
817,-158,-29,984,-17,-2,-4
818,-60,-42,993,-14,-24,-10
819,88,-25,1009,-10,-28,-13
820,161,-20,1003,-9,-13,-11
821,107,-8,1008,-10,14,-3
822,-17,-3,1003,-15,30,1
823,-148,-6,985,-18,26,3
824,-162,-27,984,-18,4,-4
825,-87,-36,984,-15,-19,-9
826,77,-28,1010,-10,-30,-13
827,150,-26,1008,-11,-16,-11
828,127,-13,1001,-9,9,-5
829,4,-2,1003,-14,27,-1
830,-133,0,991,-18,28,3
831,-166,-28,986,-18,6,-2
832,-107,-35,979,-16,-17,-9
833,54,-29,1007,-12,-30,-12
834,143,-28,1015,-10,-18,-12
835,137,-15,1004,-11,5,-6
836,25,-1,995,-12,26,-2
837,-119,-5,990,-18,28,3
838,-171,-25,986,-19,8,-3
839,-121,-29,985,-17,-14,-7
840,34,-32,1004,-13,-28,-12
841,129,-30,1011,-10,-20,-13
842,150,-14,1004,-11,2,-7
843,46,-1,997,-13,24,-1
844,-99,-8,998,-17,30,3
845,-174,-19,976,-19,14,-1
846,-131,-26,984,-18,-11,-6
847,8,-37,1013,-13,-29,-12
848,119,-33,1008,-9,-23,-13
849,158,-14,1007,-9,-3,-9
850,64,-2,1007,-12,21,-2
851,-79,-9,999,-16,31,2
852,-171,-13,969,-18,18,0
853,-140,-25,981,-17,-7,-6
854,-13,-39,1011,-14,-28,-12
855,109,-31,1004,-9,-25,-12
856,164,-16,1008,-9,-6,-10
857,75,-1,1011,-10,19,-2
858,-54,-6,997,-15,31,2
859,-165,-10,968,-20,21,1
860,-151,-27,986,-19,-3,-4
861,-39,-40,1000,-13,-26,-11
862,101,-34,996,-11,-28,-13
863,161,-17,1013,-6,-9,-10
864,90,-6,1010,-11,17,-3
865,-38,-6,1007,-15,30,0
866,-156,-7,971,-19,23,1
867,-160,-28,988,-19,0,-3
868,-57,-40,990,-15,-23,-11
869,82,-29,1007,-10,-28,-13
870,164,-21,1008,-10,-12,-12
871,106,-9,1007,-9,14,-3
872,-15,0,1006,-14,28,0
873,-148,-8,984,-19,25,3
874,-165,-22,982,-19,3,-3
875,-84,-41,989,-17,-21,-9
876,72,-29,1011,-11,-30,-13
877,155,-27,1003,-9,-15,-13
878,126,-16,1004,-9,10,-5
879,0,0,1003,-14,28,-1
880,-133,-1,993,-19,28,2
881,-170,-29,988,-20,6,-3
882,-107,-34,977,-17,-19,-8
883,58,-32,1009,-11,-31,-13
884,144,-31,1015,-9,-18,-13
885,138,-14,1004,-10,5,-6
886,22,-2,996,-14,27,-1
887,-119,-5,988,-18,28,2
888,-174,-23,988,-17,10,-3
889,-118,-32,981,-17,-13,-8
890,34,-29,1011,-11,-30,-13
891,131,-32,1008,-11,-20,-13
892,151,-14,1008,-11,2,-7
893,43,-5,999,-13,25,-1
894,-106,-8,993,-18,30,3
895,-171,-24,979,-18,14,-2
896,-132,-24,987,-15,-10,-8
897,13,-28,1007,-13,-30,-12
898,120,-34,1011,-9,-24,-14
899,159,-14,1003,-10,-1,-8
900,60,-7,1006,-15,23,-2
901,-78,-16,1004,-15,31,1
902,-174,-18,965,-19,17,1
903,-136,-21,983,-16,-8,-5
904,-12,-41,1011,-12,-28,-10
905,113,-29,1008,-10,-25,-13
906,166,-15,1005,-10,-5,-9
907,71,-2,1009,-12,20,-4
908,-57,-13,1000,-16,30,1
909,-164,-15,972,-19,20,0
910,-148,-28,983,-18,-4,-5
911,-35,-36,1003,-13,-26,-12
912,98,-29,999,-9,-26,-14
913,161,-12,1012,-9,-9,-11
914,91,-6,1011,-12,18,-3
915,-41,-9,1007,-16,31,0
916,-155,-10,969,-19,24,2
917,-158,-24,987,-17,-1,-3
918,-58,-36,993,-15,-25,-10
919,88,-31,1007,-10,-27,-13
920,164,-18,1004,-10,-10,-11
921,104,-10,1012,-12,15,-3
922,-16,-2,1007,-16,29,-1
923,-152,-4,980,-18,25,1
924,-158,-26,979,-18,3,-4
925,-81,-42,992,-16,-19,-9
926,79,-29,1006,-11,-28,-13
927,155,-22,1009,-9,-15,-12
928,121,-12,1000,-10,9,-5
929,1,0,1004,-14,27,0
930,-136,-4,989,-19,29,2
931,-166,-29,987,-20,7,-2
932,-100,-38,978,-16,-19,-9
933,57,-28,1009,-11,-30,-12
934,147,-27,1013,-9,-19,-13
935,136,-13,1003,-11,8,-6
936,22,0,998,-14,27,-3
937,-122,-7,985,-18,29,2
938,-173,-26,989,-20,9,-4
939,-113,-33,980,-16,-15,-9
940,36,-29,1012,-11,-28,-12
941,135,-31,1007,-11,-19,-15
942,145,-13,1008,-8,3,-7
943,43,0,995,-14,24,-1
944,-107,-9,997,-19,31,3
945,-170,-19,977,-18,13,-3
946,-127,-29,986,-17,-12,-7
947,18,-31,1009,-11,-29,-12
948,120,-32,1007,-11,-22,-14
949,158,-11,1008,-9,-1,-8
950,60,-6,1004,-13,23,-1
951,-85,-11,999,-16,31,1
952,-168,-18,972,-17,15,-1
953,-137,-26,983,-17,-8,-6
954,-8,-38,1009,-12,-28,-12
955,114,-33,1010,-11,-24,-13
956,161,-12,1005,-10,-5,-10
957,70,-1,1008,-13,21,-2
958,-63,-9,998,-15,31,1
959,-165,-15,968,-19,20,3
960,-147,-25,987,-17,-4,-4
961,-29,-38,1003,-15,-25,-12
962,102,-32,999,-11,-25,-13
963,160,-16,1009,-8,-9,-10
964,86,-1,1011,-12,16,-3
965,-42,-7,1003,-16,30,1
966,-156,-10,968,-20,23,1
967,-154,-29,986,-17,0,-5
968,-52,-40,993,-14,-23,-10
969,89,-30,1005,-10,-28,-13
970,162,-18,1009,-10,-12,-12
971,103,-6,1011,-13,14,-3
972,-22,-4,1006,-16,29,1
973,-151,-3,979,-19,24,1
974,-161,-30,983,-19,1,-4
975,-82,-41,991,-16,-20,-9
976,78,-29,1011,-12,-29,-12
977,156,-24,1006,-10,-14,-11
978,118,-10,1001,-8,11,-5
979,-4,-1,1005,-15,26,0
980,-139,0,988,-19,26,2
981,-166,-27,989,-19,6,-4
982,-99,-37,978,-16,-17,-8
983,60,-27,1008,-11,-30,-13
984,147,-31,1016,-10,-18,-13
985,134,-16,1002,-11,8,-5
986,20,-2,996,-13,27,-2
987,-124,-1,992,-17,28,3
988,-171,-24,987,-20,8,-2
989,-115,-32,979,-16,-15,-8
990,42,-32,1009,-11,-30,-12
991,135,-32,1007,-11,-21,-13
992,150,-15,1010,-9,3,-6
993,41,-3,993,-14,26,-1
994,-107,-4,995,-15,30,3
995,-170,-22,980,-18,13,-2
996,-127,-23,986,-17,-12,-8
997,21,-32,1009,-14,-29,-12
998,120,-32,1009,-10,-22,-13
999,160,-11,1005,-9,-2,-9
1000,57,-5,1002,-13,23,-2
1001,-85,-7,1001,-17,31,2
1002,-170,-17,972,-19,16,0
1003,-140,-23,981,-17,-8,-6
1004,-2,-40,1009,-15,-27,-12
1005,112,-34,1010,-11,-23,-15
1006,163,-13,1005,-9,-4,-9
1007,71,-4,1006,-13,21,-2
1008,-64,-11,1000,-15,30,2
1009,-165,-16,967,-19,18,0
1010,-148,-23,986,-19,-4,-4
1011,-33,-39,1002,-14,-25,-11
1012,101,-27,1005,-12,-26,-13
1013,163,-21,1006,-8,-9,-10
1014,85,-1,1010,-12,18,-2
1015,-44,-12,1004,-12,30,0
1016,-158,-7,970,-18,22,0
1017,-157,-28,988,-17,-2,-4
1018,-50,-34,993,-15,-24,-11
1019,88,-33,1009,-9,-27,-13
1020,162,-13,1002,-8,-13,-11
1021,100,-11,1017,-13,15,-2
1022,-21,0,1002,-16,29,1
1023,-147,-10,979,-21,25,3
1024,-162,-25,982,-19,1,-4
1025,-76,-42,989,-15,-21,-10
1026,82,-29,1013,-11,-30,-14
1027,153,-23,1002,-10,-14,-10
1028,123,-10,1006,-11,10,-4
1029,-4,-3,1004,-13,28,1
1030,-139,1,986,-19,28,3
1031,-166,-33,993,-20,6,-3
1032,-99,-37,973,-17,-19,-8
1033,60,-27,1010,-10,-29,-12
1034,152,-30,1015,-8,-17,-12
1035,133,-15,1005,-10,8,-4
1036,19,5,993,-13,27,-1
1037,-127,-2,996,-19,30,2
1038,-168,-24,987,-19,8,-2
1039,-120,-33,978,-17,-14,-7
1040,44,-32,1011,-11,-29,-14
1041,134,-32,1014,-9,-19,-13
1042,147,-12,1001,-10,2,-8
1043,37,-3,1000,-13,25,-3
1044,-104,-6,995,-18,30,2
1045,-170,-23,975,-19,14,-1
1046,-124,-26,990,-18,-12,-7
1047,17,-34,1008,-12,-29,-13
1048,122,-33,1006,-9,-23,-12
1049,159,-13,1004,-8,-2,-9
1050,59,-2,1004,-13,23,-1
1051,-83,-14,998,-19,31,3
1052,-172,-16,971,-18,16,0
1053,-135,-22,984,-17,-9,-6
1054,-6,-35,1009,-14,-27,-11
1055,108,-31,1010,-10,-25,-13
1056,165,-15,1006,-10,-6,-11
1057,73,-3,1007,-12,21,-3
1058,-67,-10,1000,-15,31,1
1059,-161,-16,970,-19,19,0
1060,-152,-23,986,-17,-4,-3
1061,-30,-36,999,-13,-26,-12
1062,104,-30,1011,-10,-27,-14
1063,160,-15,1004,-8,-10,-10
1064,89,-3,1013,-12,16,-3
1065,-43,-11,1006,-16,30,1
1066,-156,-8,968,-18,23,1
1067,-155,-27,987,-19,0,-4
1068,-57,-37,998,-14,-24,-10
1069,93,-30,1003,-11,-28,-13
1070,159,-23,1008,-9,-11,-11
1071,105,-6,1009,-11,14,-3
1072,-21,-5,1006,-14,29,-1
1073,-149,-1,976,-19,25,2
1074,-162,-27,987,-19,2,-3
1075,-80,-39,988,-16,-21,-9
1076,74,-29,1012,-10,-29,-13
1077,155,-25,1006,-11,-15,-12
1078,120,-17,1002,-11,11,-4
1079,-2,0,1002,-12,28,0
1080,-133,-7,991,-18,28,2
1081,-169,-26,985,-19,7,-3
1082,-99,-33,981,-16,-18,-8
1083,58,-30,1011,-12,-28,-13
1084,146,-28,1011,-9,-17,-12
1085,134,-15,1007,-11,8,-6
1086,20,0,995,-14,28,-1
1087,-120,-5,991,-17,29,4
1088,-172,-25,988,-18,9,-2
1089,-116,-31,980,-17,-14,-7
1090,37,-31,1008,-12,-28,-12
1091,130,-28,1010,-12,-18,-12
1092,149,-14,1005,-11,3,-6
1093,42,-1,998,-12,24,-1
1094,-102,-9,996,-16,30,2
1095,-169,-20,976,-20,13,-1
1096,-125,-27,985,-16,-12,-6
1097,14,-34,1008,-13,-28,-11
1098,120,-33,1007,-9,-22,-12
1099,158,-14,1005,-10,0,-7
1100,63,-7,1004,-15,23,-2
1101,-81,-10,1001,-17,30,1
1102,-171,-18,966,-19,16,0
1103,-140,-25,984,-17,-8,-7
1104,-9,-38,1009,-12,-28,-14
1105,109,-30,1008,-11,-24,-14
1106,165,-11,1009,-10,-4,-10
1107,71,-3,1008,-11,20,-2
1108,-60,-9,999,-18,30,1
1109,-164,-17,969,-20,19,0
1110,-148,-27,987,-17,-4,-4
1111,-33,-39,998,-14,-25,-11
1112,99,-26,1005,-9,-27,-12
1113,161,-17,1005,-9,-11,-10
1114,84,-4,1013,-13,18,-3
1115,-35,-8,1006,-17,30,1
1116,-154,-10,971,-19,23,0
1117,-157,-25,983,-17,-1,-5
1118,-62,-36,995,-14,-24,-9
1119,90,-28,1006,-10,-28,-14
1120,156,-22,1006,-9,-12,-11
1121,105,-6,1005,-10,12,-3
1122,-16,-7,1008,-15,29,0
1123,-146,-3,980,-19,25,2
1124,-164,-30,985,-17,4,-3
1125,-84,-38,990,-15,-21,-10
1126,73,-32,1008,-12,-31,-13
1127,153,-20,1008,-9,-16,-12
1128,122,-12,1003,-12,10,-5
1129,7,0,1003,-13,27,-1
1130,-132,-4,991,-20,27,3
1131,-167,-25,989,-20,8,-2
1132,-104,-40,979,-16,-18,-8
1133,52,-30,1005,-10,-30,-13
1134,144,-32,1017,-11,-18,-12
1135,142,-12,1006,-10,6,-7
1136,22,0,991,-14,26,-2
1137,-115,-2,994,-17,29,1
1138,-170,-22,984,-20,10,-3
1139,-117,-32,983,-18,-13,-8
1140,33,-35,1011,-12,-30,-13
1141,126,-33,1006,-9,-21,-12
1142,154,-9,1004,-9,2,-7
1143,48,-1,1001,-13,24,-1
1144,-98,-5,996,-18,31,3
1145,-170,-22,974,-20,15,-1
1146,-130,-25,983,-18,-10,-7
1147,7,-40,1010,-14,-28,-12
1148,119,-30,1008,-10,-24,-14
1149,161,-15,1009,-10,-2,-9
1150,63,-2,1003,-12,23,-2
1151,-79,-7,1002,-16,31,3
1152,-167,-16,967,-19,16,-2
1153,-142,-25,984,-17,-8,-6
1154,-15,-35,1005,-13,-27,-11
1155,108,-34,1007,-11,-24,-13
1156,160,-13,1006,-8,-6,-10
1157,79,-3,1009,-12,19,-2
1158,-55,-9,1005,-16,31,1
1159,-161,-8,967,-20,21,0
1160,-147,-25,990,-16,-3,-6
1161,-47,-41,997,-14,-25,-11
1162,100,-32,1003,-10,-27,-13
1163,161,-20,1006,-8,-10,-10
1164,91,-3,1015,-11,16,-3
1165,-26,-7,1004,-17,30,0
1166,-157,-8,973,-18,24,1
1167,-156,-24,981,-17,0,-4
1168,-67,-42,997,-15,-22,-9
1169,87,-27,1004,-11,-28,-12
1170,155,-25,1009,-9,-12,-12
1171,112,-9,1003,-10,12,-5
1172,-13,-1,1007,-15,29,0
1173,-142,-1,985,-19,26,2
1174,-165,-26,985,-19,5,-2
1175,-90,-40,982,-15,-19,-10
1176,69,-29,1009,-10,-30,-13
1177,152,-25,1008,-11,-18,-13
1178,129,-12,1006,-12,10,-6
1179,10,-3,998,-15,27,0
1180,-130,-2,991,-18,29,1
1181,-168,-25,992,-19,8,-2
1182,-105,-33,977,-17,-17,-8
1183,50,-31,1009,-12,-31,-13
1184,140,-28,1015,-11,-19,-13
1185,143,-17,1007,-11,6,-7
1186,32,-1,993,-13,25,-2
1187,-113,-4,994,-18,30,3
1188,-172,-23,984,-18,12,-2
1189,-120,-28,984,-17,-12,-7
1190,26,-35,1009,-12,-29,-13
1191,123,-31,1009,-9,-22,-14
1192,154,-12,1002,-9,-1,-8
1193,50,-2,1002,-13,24,-1
1194,-92,-9,1002,-16,31,3
1195,-169,-17,966,-18,15,-1
1196,-134,-28,986,-18,-10,-5
1197,3,-36,1009,-12,-28,-11
1198,114,-31,1008,-10,-23,-12
1199,162,-7,1007,-10,-4,-9
1200,64,-5,1009,-13,22,-2
1201,-72,-7,999,-17,30,2
1202,-166,-21,966,-20,18,1
1203,-145,-24,983,-17,-7,-6
1204,-24,-42,1004,-14,-26,-12
1205,106,-26,1004,-9,-26,-13
1206,161,-17,1013,-10,-8,-9
1207,79,-1,1006,-12,17,-4
1208,-50,-10,1007,-17,30,1
1209,-158,-10,967,-19,21,1
1210,-155,-26,990,-18,-3,-5
1211,-49,-38,995,-15,-25,-11
1212,92,-28,1005,-11,-27,-13
1213,160,-19,1005,-9,-11,-11
1214,99,-6,1012,-10,15,-3
1215,-25,-6,1006,-15,29,1
1216,-152,-5,973,-18,25,2
1217,-160,-29,988,-19,1,-4
1218,-74,-38,989,-15,-20,-10
1219,85,-28,1010,-12,-28,-13
1220,155,-22,1006,-12,-14,-11
1221,116,-9,1000,-11,11,-4
1222,-3,-4,1005,-15,28,-1
1223,-140,-8,988,-21,27,3
1224,-164,-23,987,-19,5,-3
1225,-96,-43,980,-15,-19,-9
1226,61,-24,1010,-9,-30,-13
1227,151,-27,1014,-10,-18,-14
1228,127,-14,1007,-11,8,-4
1229,21,0,994,-13,27,0
1230,-125,-7,991,-18,28,2
1231,-172,-24,990,-19,7,-2
1232,-110,-36,981,-16,-15,-8
1233,40,-31,1010,-12,-29,-12
1234,134,-28,1009,-11,-20,-13
1235,147,-11,1009,-9,3,-7
1236,38,0,996,-14,25,0
1237,-110,-6,993,-18,32,2
1238,-171,-23,980,-21,13,-2
1239,-126,-28,986,-16,-11,-6
1240,23,-31,1008,-13,-30,-12
1241,122,-35,1007,-10,-22,-12
1242,158,-10,1005,-9,-1,-8
1243,53,-2,1004,-15,24,-2
1244,-86,-8,1004,-17,29,2
1245,-170,-15,968,-21,14,0
1246,-135,-25,980,-17,-10,-6
1247,-4,-38,1014,-13,-28,-12
1248,110,-29,1008,-10,-24,-13
1249,164,-14,1005,-10,-5,-9
1250,66,-2,1007,-13,21,-2
1251,-66,-9,997,-15,30,2
1252,-162,-11,968,-20,18,0
1253,-148,-24,989,-18,-5,-5
1254,-29,-38,999,-15,-26,-12
1255,103,-28,1003,-11,-26,-14
1256,159,-19,1012,-9,-9,-11
1257,86,-6,1010,-11,18,-5
1258,-44,-13,1004,-15,32,0
1259,-157,-9,969,-17,22,1
1260,-157,-22,988,-17,0,-4
1261,-53,-36,993,-15,-25,-11
1262,92,-31,1007,-10,-27,-13
1263,161,-20,1005,-9,-11,-11
1264,102,-8,1010,-11,15,-4
1265,-18,-8,1005,-15,27,0
1266,-150,-7,978,-18,23,2
1267,-159,-23,983,-18,1,-4
1268,-82,-40,991,-15,-21,-9
1269,80,-24,1008,-11,-28,-13
1270,156,-25,1006,-11,-15,-11
1271,117,-15,1001,-11,11,-4
1272,0,-9,1002,-14,29,-1
1273,-136,-2,989,-18,27,2
1274,-163,-27,985,-20,6,-2
1275,-98,-35,983,-15,-19,-9
1276,57,-26,1007,-10,-30,-12
1277,144,-25,1014,-11,-18,-12
1278,133,-17,1006,-13,8,-5
1279,22,-1,992,-14,26,1
1280,-122,-5,993,-18,28,3
1281,-169,-22,989,-19,8,-2
1282,-115,-31,980,-18,-14,-7
1283,39,-30,1007,-11,-29,-13
1284,131,-30,1011,-10,-20,-13
1285,151,-13,1005,-9,1,-7
1286,40,-3,998,-14,24,-2
1287,-105,-4,993,-17,30,1
1288,-175,-23,979,-19,15,-1
1289,-123,-27,983,-17,-12,-7
1290,13,-37,1009,-13,-28,-12
1291,123,-30,1006,-9,-24,-14
1292,157,-12,1005,-10,-2,-9
1293,60,0,1005,-14,22,-2
1294,-87,-10,998,-18,31,3
1295,-168,-14,968,-20,15,-2
1296,-138,-28,983,-18,-8,-6
1297,-8,-38,1009,-13,-28,-12
1298,114,-34,1010,-11,-25,-13
1299,160,-11,1010,-9,-4,-9
1300,72,-2,1005,-13,20,-1
1301,-65,-7,1003,-17,30,2
1302,-161,-15,964,-20,19,0
1303,-151,-26,992,-16,-3,-4
1304,-32,-43,999,-14,-26,-10
1305,103,-35,1004,-10,-27,-14
1306,160,-16,1005,-10,-10,-10
1307,86,0,1013,-11,17,-3
1308,-35,-6,1005,-17,30,-1
1309,-158,-8,970,-19,23,1
1310,-153,-25,987,-18,-1,-5
1311,-57,-44,996,-15,-23,-11
1312,88,-30,1002,-10,-29,-13
1313,160,-23,1003,-10,-12,-12
1314,103,-10,1013,-11,13,-4
1315,-13,1,1003,-15,28,1
1316,-148,-4,980,-20,26,2
1317,-159,-24,988,-19,3,-2
1318,-85,-43,986,-16,-20,-9
1319,76,-30,1012,-13,-29,-14
1320,155,-29,1008,-9,-15,-11
1321,124,-9,999,-9,9,-5
1322,1,-2,1006,-13,28,0
1323,-134,2,992,-17,28,2
1324,-168,-25,985,-21,8,-4
1325,-106,-39,978,-17,-17,-9
1326,55,-31,1011,-11,-31,-13
1327,145,-30,1011,-11,-19,-12
1328,138,-14,1007,-9,6,-6
1329,29,0,994,-13,27,-1
1330,-119,-1,992,-17,30,3
1331,-175,-22,987,-19,10,-2
1332,-115,-33,985,-18,-13,-8
1333,35,-32,1008,-12,-31,-12
1334,136,-33,1011,-10,-21,-14
1335,152,-15,1008,-8,0,-6
1336,44,-1,995,-13,24,-1
1337,-108,-7,999,-16,30,2
1338,-171,-18,975,-18,14,-2
1339,-128,-26,984,-17,-11,-6
1340,16,-32,1010,-13,-29,-13
1341,118,-35,1010,-10,-23,-12
1342,161,-13,1002,-9,-2,-9
1343,55,-3,1005,-13,24,-1
1344,-82,-8,1002,-16,32,2
1345,-170,-16,965,-19,17,0
1346,-140,-25,983,-17,-9,-5
1347,-12,-38,1010,-13,-28,-12
1348,111,-31,1003,-11,-25,-13
1349,160,-16,1006,-9,-6,-9
1350,75,-1,1010,-12,19,-3
1351,-58,-12,999,-14,30,1
1352,-162,-11,968,-20,20,0
1353,-147,-26,990,-17,-5,-5
1354,-39,-35,998,-21,-28,-11
1355,103,-31,1003,-7,-31,-15
1356,162,-16,1012,-9,-10,-10
1357,87,-4,1007,-12,18,-2
1358,-34,-9,1008,-16,31,0
1359,-155,-12,972,-18,23,1
1360,-159,-28,982,-15,0,-4
1361,-61,-40,997,-15,-23,-10
1362,86,-25,1007,-10,-27,-12
1363,160,-20,1003,-9,-11,-11
1364,106,-12,1009,-11,15,-3
1365,-15,-4,1002,-15,29,1
1366,-145,-6,986,-19,26,3
1367,-161,-26,985,-19,2,-5
1368,-83,-40,984,-15,-20,-9
1369,74,-28,1012,-12,-29,-13
1370,152,-23,1009,-10,-16,-12
1371,125,-13,1001,-11,9,-5
1372,6,-3,999,-15,27,-1
1373,-132,-1,992,-19,28,1
1374,-165,-27,988,-21,7,-3
1375,-106,-38,976,-17,-18,-8
1376,56,-26,1008,-10,-30,-12
1377,140,-30,1011,-11,-18,-12
1378,141,-13,1010,-10,6,-6
1379,27,-1,991,-14,26,-1
1380,-118,-5,990,-17,29,3
1381,-170,-22,987,-20,9,-2
1382,-118,-29,985,-16,-13,-8
1383,30,-31,1006,-13,-30,-12
1384,129,-32,1009,-10,-21,-13
1385,151,-13,1006,-8,1,-9
1386,48,-1,999,-13,23,-3
1387,-99,-8,1000,-17,30,3
1388,-170,-19,971,-19,14,-1
1389,-133,-27,981,-15,-10,-6
1390,10,-35,1012,-13,-31,-12
1391,111,-31,1008,-10,-23,-12
1392,162,-15,1004,-11,-4,-10
1393,62,-3,1010,-13,21,-2
1394,-75,-12,996,-17,29,2
1395,-164,-17,969,-19,17,-1
1396,-143,-25,984,-18,-7,-6
1397,-21,-36,1005,-13,-25,-12
1398,111,-30,1007,-11,-24,-14
1399,157,-14,1007,-10,-7,-9
1400,79,-4,1009,-13,18,-3
1401,-53,-15,1004,-17,30,0
1402,-158,-12,969,-17,21,1
1403,-151,-28,988,-18,-2,-5
1404,-45,-39,999,-15,-24,-10
1405,98,-28,1000,-11,-27,-13
1406,160,-19,1013,-10,-8,-11
1407,93,-8,1007,-13,17,-3
1408,-30,-7,1008,-15,29,0
1409,-152,-7,972,-18,23,2
1410,-159,-27,985,-18,0,-5
1411,-66,-40,993,-16,-23,-10
1412,81,-32,1007,-12,-28,-13
1413,158,-19,1005,-10,-14,-12
1414,109,-13,1004,-11,11,-3
1415,-7,-2,1002,-15,27,-1
1416,-142,-7,991,-19,26,2
1417,-163,-24,983,-18,6,-3
1418,-90,-39,982,-15,-19,-10
1419,63,-24,1011,-9,-30,-13
1420,147,-28,1007,-11,-17,-14
1421,128,-14,1006,-10,8,-6
1422,12,-2,994,-14,28,-1
1423,-129,-5,994,-18,29,1
1424,-168,-28,988,-19,7,-3
1425,-111,-30,983,-15,-17,-8
1426,49,-30,1005,-13,-31,-13
1427,133,-27,1018,-10,-19,-13
1428,145,-14,1003,-11,4,-6
1429,32,-2,1000,-12,25,-2
1430,-109,-9,989,-17,29,1
1431,-171,-24,982,-18,13,-2
1432,-117,-26,984,-16,-13,-7
1433,24,-31,1012,-13,-29,-12
1434,126,-30,1005,-10,-22,-13
1435,152,-15,1006,-9,-1,-8
1436,54,-4,1002,-15,23,-2
1437,-89,-12,1000,-17,31,3
1438,-170,-15,970,-17,15,0
1439,-134,-25,984,-18,-9,-7
1440,-3,-33,1009,-14,-27,-12
1441,113,-31,1009,-12,-24,-13
1442,166,-13,1009,-11,-5,-10
1443,66,-4,1004,-12,21,-2
1444,-66,-8,1000,-15,30,3
1445,-168,-18,966,-19,18,1
1446,-149,-23,988,-19,-5,-6
1447,-24,-39,1003,-14,-27,-12
1448,104,-30,1005,-12,-26,-13
1449,164,-17,1008,-9,-9,-10
1450,81,-7,1014,-12,18,-2
1451,-46,-10,1003,-15,31,2
1452,-154,-11,970,-18,22,2
1453,-159,-24,988,-16,-2,-4
1454,-52,-35,992,-15,-24,-11
1455,95,-29,1011,-11,-27,-13
1456,158,-20,1003,-11,-13,-10
1457,104,-10,1010,-12,14,-4
1458,-23,-7,1006,-17,30,1
1459,-150,-7,974,-16,24,2
1460,-158,-26,988,-18,2,-5
1461,-76,-35,991,-16,-21,-8
1462,79,-26,1008,-11,-27,-13
1463,153,-21,1008,-11,-14,-11
1464,117,-11,999,-11,10,-3
1465,-3,-6,1003,-16,28,-1
1466,-138,-7,989,-19,27,2
1467,-160,-26,988,-17,5,-4
1468,-99,-37,976,-15,-20,-9
1469,55,-24,1012,-11,-30,-12
1470,146,-25,1015,-12,-18,-12
1471,132,-14,1005,-11,8,-5
1472,23,-2,993,-13,26,-2
1473,-123,-7,993,-17,29,3
1474,-167,-24,987,-20,9,-3
1475,-113,-31,983,-16,-14,-7
1476,36,-26,1009,-12,-29,-12
1477,128,-31,1008,-11,-20,-13
1478,147,-11,1007,-9,4,-6
1479,42,-2,1000,-13,25,0
1480,-102,-7,996,-18,30,2
1481,-170,-24,977,-18,13,-1
1482,-124,-24,983,-18,-11,-6
1483,11,-35,1015,-13,-27,-12
1484,120,-30,1004,-10,-22,-12
1485,153,-14,1008,-7,-1,-9
1486,62,-2,1003,-14,22,-3
1487,-82,-16,1002,-16,29,2
1488,-165,-15,965,-19,17,0
1489,-141,-24,988,-18,-8,-5
1490,-11,-35,1006,-13,-26,-11
1491,109,-31,1009,-10,-23,-12
1492,161,-12,1008,-10,-6,-10
1493,72,-4,1006,-13,19,-2
1494,-56,-10,1002,-16,28,1
1495,-165,-10,970,-19,20,2
1496,-147,-28,990,-19,-4,-6
1497,-40,-38,999,-14,-24,-10
1498,97,-27,1000,-10,-27,-13
1499,162,-19,1012,-8,-9,-12
1500,89,-8,1010,-12,16,-2
1501,-33,-9,1004,-15,30,0
1502,-156,-11,973,-19,24,0
1503,-159,-26,986,-17,-1,-3
1504,-60,-39,993,-15,-24,-10
1505,85,-29,1010,-10,-28,-12
1506,157,-18,1004,-11,-13,-10
1507,110,-11,1007,-12,12,-4
1508,-14,-4,1004,-15,29,0
1509,-143,-5,985,-20,25,3
1510,-158,-30,984,-18,4,-3
1511,-91,-36,987,-15,-21,-8
1512,72,-25,1009,-11,-30,-13
1513,147,-26,1010,-9,-16,-12
1514,127,-10,1001,-11,7,-6
1515,7,-7,997,-15,27,-1
1516,-128,-4,993,-19,28,3
1517,-167,-28,986,-20,8,-4
1518,-104,-31,977,-16,-18,-8
1519,50,-27,1010,-10,-30,-12
1520,137,-28,1013,-10,-19,-12
1521,142,-13,1006,-10,4,-6
1522,29,1,998,-13,24,-1
1523,-113,-8,987,-18,29,2
1524,-172,-25,987,-19,11,-2
1525,-116,-29,983,-17,-13,-8
1526,23,-34,1008,-14,-29,-12
1527,124,-30,1006,-10,-22,-13
1528,154,-12,1008,-10,0,-7
1529,48,0,1001,-15,24,-1
1530,-90,-9,998,-17,31,1
1531,-169,-21,975,-20,15,-2
1532,-135,-25,976,-17,-9,-6
1533,-3,-38,1014,-13,-28,-12
1534,114,-33,1011,-10,-23,-13
1535,161,-11,1001,-9,-4,-9
1536,69,-2,1007,-11,22,-2
1537,-72,-10,1001,-16,30,2
1538,-162,-13,965,-20,17,0
1539,-148,-27,990,-18,-5,-5
1540,-24,-39,1002,-14,-27,-12
1541,107,-35,1003,-11,-26,-13
1542,159,-15,1009,-8,-8,-10
1543,82,-4,1009,-12,18,-3
1544,-41,-6,1006,-14,29,0
1545,-157,-8,964,-18,22,2
1546,-155,-25,991,-18,-2,-4
1547,-52,-42,993,-15,-24,-10
1548,91,-30,1005,-10,-28,-12
1549,159,-18,1006,-11,-11,-11
1550,100,-9,1010,-12,16,-3
1551,-19,-2,1006,-14,30,2
1552,-152,-6,977,-17,25,1
1553,-158,-26,982,-16,2,-5
1554,-78,-42,991,-16,-21,-11
1555,79,-25,1011,-12,-28,-13
1556,155,-27,1006,-11,-14,-13
1557,116,-10,1003,-9,10,-5
1558,-2,-1,1000,-15,28,0
1559,-139,-2,994,-19,28,2
1560,-165,-28,984,-19,5,-3
1561,-96,-38,979,-16,-19,-9
1562,60,-30,1006,-10,-29,-13
1563,146,-29,1014,-9,-17,-13
1564,137,-17,1007,-11,7,-6
1565,19,0,992,-12,28,-1
1566,-123,-5,992,-17,29,3
1567,-172,-20,989,-19,9,-1
1568,-112,-34,981,-19,-15,-8
1569,38,-30,1011,-11,-30,-12
1570,131,-33,1008,-11,-20,-12
1571,147,-16,1007,-9,3,-6
1572,39,-3,996,-14,25,-1
1573,-106,-8,998,-18,30,2
1574,-170,-21,976,-20,14,0
1575,-127,-23,985,-18,-11,-7
1576,15,-35,1012,-12,-30,-12
1577,116,-33,1005,-9,-22,-13
1578,160,-14,1006,-10,-1,-9
1579,55,-4,1005,-12,24,-2
1580,-83,-12,1000,-17,30,2
1581,-168,-15,966,-19,15,-2
1582,-141,-26,986,-18,-7,-7
1583,-11,-34,1006,-14,-26,-11
1584,111,-32,1007,-10,-24,-14
1585,160,-14,1010,-9,-6,-10
1586,74,-2,1007,-12,19,-3
1587,-56,-12,1003,-16,30,0
1588,-163,-14,965,-19,20,0
1589,-152,-26,992,-17,-3,-6
1590,-41,-39,998,-15,-25,-11
1591,97,-28,1003,-10,-27,-12
1592,161,-18,1007,-11,-10,-11
1593,90,-7,1014,-12,17,-3
1594,-33,-9,1002,-16,29,1
1595,-153,-10,972,-19,22,1
1596,-160,-25,986,-18,-1,-4
1597,-66,-41,994,-14,-23,-10
1598,86,-26,1010,-10,-29,-12
1599,157,-21,1003,-12,-13,-11
1600,113,-8,1005,-10,13,-5
1601,-12,-5,1002,-16,28,-1
1602,-142,-5,988,-19,26,2
1603,-162,-28,988,-19,4,-3
1604,-91,-39,980,-15,-19,-8
1605,67,-23,1012,-10,-30,-14
1606,148,-28,1009,-10,-16,-11
1607,128,-13,1004,-10,9,-5
1608,9,-4,995,-14,28,0
1609,-127,-2,988,-18,27,3
1610,-165,-25,992,-19,8,-2
1611,-110,-28,980,-17,-16,-7
1612,47,-30,1008,-11,-29,-13
1613,132,-33,1015,-11,-20,-11
1614,147,-15,999,-9,4,-7
1615,33,-4,998,-13,26,-2
1616,-110,-4,994,-19,29,3
1617,-169,-19,981,-19,13,-2
1618,-125,-22,987,-17,-12,-7
1619,20,-35,1008,-13,-30,-12
1620,122,-34,1010,-9,-22,-12
1621,150,-15,1000,-10,-1,-6
1622,54,-4,1004,-14,24,-2
1623,-89,-14,1001,-16,31,3
1624,-169,-13,964,-17,16,0
1625,-138,-20,988,-16,-8,-5
1626,-8,-35,1010,-13,-28,-11
1627,111,-31,1009,-11,-23,-14
1628,159,-17,1005,-10,-3,-9
1629,69,-6,1008,-12,21,-2
1630,-59,-10,998,-17,28,1
1631,-163,-12,969,-17,19,0
1632,-145,-21,992,-18,-4,-5
1633,-33,-38,999,-16,-24,-11
1634,104,-30,1002,-10,-26,-13
1635,162,-20,1010,-10,-9,-11
1636,84,-7,1013,-14,18,-3
1637,-35,-7,1004,-16,31,1
1638,-155,-9,972,-18,22,1
1639,-155,-26,983,-18,-1,-4
1640,-57,-39,995,-17,-23,-10
1641,88,-28,1007,-11,-27,-13
1642,158,-20,1005,-10,-12,-13
1643,104,-10,1004,-11,13,-5
1644,-15,-5,1005,-14,29,-1
1645,-144,-5,985,-18,26,1
1646,-158,-30,984,-17,3,-4
1647,-84,-37,988,-16,-19,-8
1648,75,-26,1007,-11,-30,-13
1649,148,-27,1012,-10,-15,-12
1650,123,-12,1001,-10,10,-4
1651,5,-3,999,-15,26,-2
1652,-131,-3,988,-18,27,2
1653,-168,-27,992,-18,6,-3
1654,-97,-34,976,-16,-17,-8
1655,51,-27,1011,-10,-29,-12
1656,136,-28,1011,-12,-18,-12
1657,142,-16,1008,-12,5,-6
1658,27,-3,993,-12,26,0
1659,-113,-6,992,-19,29,2
1660,-170,-24,986,-18,11,-2
1661,-121,-26,981,-16,-13,-7
1662,30,-32,1009,-13,-30,-14
1663,121,-31,1011,-10,-21,-11
1664,155,-13,1000,-10,0,-6
1665,51,-2,1004,-13,25,0
1666,-94,-10,999,-16,30,3
1667,-167,-20,968,-19,15,-1
1668,-129,-26,984,-16,-10,-6
1669,-3,-36,1009,-13,-27,-11
1670,115,-32,1010,-11,-23,-13
1671,158,-12,1003,-11,-4,-8
1672,66,-3,1007,-13,21,-3
1673,-66,-14,1000,-18,29,1
1674,-163,-14,966,-20,18,0
1675,-144,-27,989,-19,-4,-6
1676,-27,-40,1003,-14,-27,-12
1677,104,-28,1002,-9,-26,-13
1678,159,-17,1010,-9,-8,-9
1679,83,-2,1011,-13,18,-2
1680,-43,-9,1003,-17,29,0
1681,-157,-11,969,-21,22,2
1682,-154,-27,988,-18,-1,-5
1683,-56,-39,994,-15,-24,-11
1684,89,-27,1004,-10,-27,-13
1685,157,-19,1007,-10,-10,-10
1686,100,-10,1008,-12,16,-3
1687,-19,-6,1003,-14,28,-1
1688,-144,-6,981,-17,17,-2
1689,-156,-29,983,-19,0,-5
1690,-81,-37,986,-15,-20,-10
1691,76,-27,1010,-10,-29,-13
1692,149,-21,1010,-10,-15,-12
1693,119,-12,1000,-11,10,-5
1694,2,-6,1003,-15,27,-1
1695,-130,-5,988,-19,27,3
1696,-165,-29,989,-18,6,-3
1697,-99,-33,977,-17,-19,-9
1698,53,-27,1011,-11,-30,-12
1699,138,-27,1012,-12,-18,-11
1700,138,-13,1008,-10,5,-6
1701,21,-5,993,-14,26,-1
1702,-118,-5,991,-18,29,3
1703,-167,-26,985,-18,10,-2
1704,-116,-28,988,-17,-13,-8
1705,34,-31,1008,-13,-29,-13
1706,123,-27,1010,-9,-19,-13
1707,150,-12,1000,-9,0,-7
1708,44,-2,1004,-16,24,-2
1709,-94,-10,995,-17,30,2
1710,-169,-23,973,-17,14,-1
1711,-131,-26,984,-16,-11,-5
1712,5,-33,1012,-12,-28,-11
1713,115,-29,1007,-10,-23,-13
1714,157,-12,1010,-11,-3,-8
1715,66,-4,1003,-13,22,-2
1716,-76,-12,1002,-16,29,1
1717,-162,-14,965,-18,18,0
1718,-144,-26,986,-16,-6,-5
1719,-21,-38,1005,-14,-26,-10
1720,107,-33,1005,-11,-24,-12
1721,159,-13,1009,-9,-7,-11
1722,76,-3,1008,-14,18,-3
1723,-49,-8,1004,-17,30,1
1724,-159,-10,968,-19,21,2
1725,-148,-27,990,-17,-3,-5
1726,-48,-42,994,-14,-26,-11
1727,97,-31,1002,-11,-28,-12
1728,157,-20,1005,-10,-10,-10
1729,97,-5,1012,-12,15,-4
1730,-23,-7,1005,-16,28,0
1731,-152,-5,978,-19,24,2
1732,-156,-27,983,-17,2,-5
1733,-73,-40,992,-15,-21,-10
1734,79,-30,1009,-11,-28,-12
1735,151,-23,1003,-10,-14,-12
1736,117,-11,1005,-10,10,-5
1737,-5,-5,1001,-14,27,-1
1738,-135,-4,990,-19,27,2
1739,-165,-26,985,-19,5,-3
1740,-96,-36,979,-16,-19,-10
1741,61,-28,1008,-12,-30,-13
1742,145,-27,1012,-12,-18,-12
1743,134,-17,1007,-11,8,-7
1744,20,-4,994,-13,27,-1
1745,-122,0,989,-17,28,2
1746,-167,-25,991,-20,8,-2
1747,-111,-30,978,-17,-15,-8
1748,40,-31,1012,-13,-29,-12
1749,132,-31,1008,-11,-21,-12
1750,144,-13,1006,-9,3,-6
1751,38,-1,997,-12,24,-1
1752,-104,-9,992,-18,29,2
1753,-169,-21,978,-18,13,-1
1754,-123,-24,983,-16,-10,-7
1755,17,-36,1016,-14,-28,-12
1756,117,-28,1005,-10,-23,-14
1757,154,-12,1007,-10,-1,-10
1758,58,-4,1006,-15,23,-2
1759,-85,-11,999,-17,30,2
1760,-164,-18,972,-20,16,-1
1761,-135,-24,985,-16,-9,-6
1762,-10,-34,1009,-13,-26,-12
1763,110,-32,1005,-12,-25,-13
1764,160,-15,1008,-9,-7,-10
1765,72,-1,1008,-12,20,-2
1766,-56,-10,1000,-16,30,1
1767,-164,-12,970,-18,20,1
1768,-147,-24,987,-18,-4,-5
1769,-38,-40,1001,-15,-25,-11
1770,102,-34,1001,-10,-26,-13
1771,159,-16,1010,-9,-9,-10
1772,90,-6,1012,-12,17,-4
1773,-37,-4,1007,-17,30,2
1774,-152,-8,970,-20,23,1
1775,-158,-27,986,-18,0,-4
1776,-61,-38,991,-15,-25,-10
1777,90,-32,1011,-11,-28,-13
1778,156,-21,1004,-10,-11,-11
1779,109,-11,1004,-11,14,-3
1780,-16,-4,1009,-13,31,-1
1781,-148,-6,980,-20,26,3
1782,-159,-25,990,-17,2,-4
1783,-85,-38,985,-15,-21,-9
1784,71,-27,1008,-12,-29,-13
1785,154,-26,1013,-10,-16,-14
1786,119,-16,1000,-11,9,-5
1787,7,-3,1000,-13,27,-3
1788,-132,-5,993,-18,27,2
1789,-166,-22,986,-20,7,-2
1790,-104,-33,979,-17,-17,-8
1791,49,-28,1009,-9,-29,-13
1792,141,-31,1013,-10,-20,-12
1793,142,-16,1005,-10,4,-8
1794,27,0,996,-12,27,0
1795,-114,-4,989,-15,29,2
1796,-172,-25,988,-19,11,-2
1797,-120,-27,978,-17,-14,-8
1798,32,-33,1011,-13,-29,-13
1799,125,-32,1009,-11,-22,-12
1800,155,-11,1003,-8,-1,-8
1801,55,-4,1006,-14,24,-2
1802,-98,-9,994,-17,31,2
1803,-170,-21,972,-19,15,-1
1804,-136,-24,982,-17,-10,-7
1805,0,-32,1008,-12,-29,-13
1806,119,-29,1010,-10,-25,-14
1807,159,-15,1005,-9,-3,-9
1808,68,0,1004,-12,22,-1
1809,-75,-13,1006,-17,30,3
1810,-164,-18,962,-19,17,1
1811,-147,-23,987,-17,-6,-6
1812,-20,-36,1006,-14,-27,-12
1813,104,-29,1006,-10,-25,-13
1814,163,-15,1009,-10,-8,-9
1815,78,-3,1006,-12,18,-2
1816,-48,-12,1006,-16,30,1
1817,-161,-13,965,-18,20,0
1818,-153,-28,992,-17,-3,-5
1819,-45,-38,994,-15,-25,-11
1820,94,-25,1004,-9,-27,-14
1821,163,-19,1006,-10,-10,-11
1822,92,-6,1012,-13,16,-3
1823,-26,-4,1002,-15,29,0
1824,-151,-12,976,-20,24,1
1825,-159,-27,984,-17,1,-4
1826,-71,-40,991,-15,-21,-9
1827,81,-28,1012,-11,-28,-14
1828,154,-19,1000,-10,-12,-10
1829,115,-11,1005,-12,12,-3
1830,-7,-3,1002,-14,29,-1
1831,-140,-6,989,-20,27,2
1832,-164,-30,986,-20,4,-3
1833,-93,-41,983,-16,-18,-7
1834,68,-28,1006,-12,-29,-12
1835,144,-24,1013,-10,-16,-13
1836,133,-11,1005,-11,8,-6
1837,12,-3,995,-14,28,-1
1838,-125,-2,990,-20,29,3
1839,-168,-29,991,-20,7,-3
1840,-110,-36,978,-16,-15,-8
1841,43,-33,1010,-11,-27,-12
1842,137,-29,1012,-11,-18,-14
1843,144,-12,1008,-11,5,-7
1844,33,2,991,-13,23,-1
1845,-111,-6,995,-19,29,2
1846,-169,-25,981,-18,12,-1
1847,-128,-27,981,-17,-12,-7
1848,25,-35,1014,-12,-30,-13
1849,119,-32,1005,-12,-22,-12
1850,157,-13,1004,-8,-1,-8
1851,55,-5,1007,-13,24,-2
1852,-89,-6,997,-17,29,3
1853,-170,-19,969,-19,17,-1
1854,-132,-21,986,-18,-9,-6
1855,-4,-38,1008,-14,-27,-11
1856,117,-32,1011,-11,-23,-14
1857,158,-16,1006,-10,-4,-9
1858,71,-3,1006,-12,21,-2
1859,-68,-14,1002,-16,31,1
1860,-164,-10,965,-18,18,1
1861,-145,-28,989,-18,-5,-5
1862,-29,-37,999,-14,-26,-11
1863,101,-27,1004,-11,-27,-13
1864,163,-17,1007,-9,-8,-10
1865,83,-6,1012,-12,17,-3
1866,-42,-8,1004,-15,30,0
1867,-158,-11,970,-18,22,1
1868,-154,-23,985,-17,-2,-4
1869,-53,-41,996,-15,-24,-11
1870,93,-28,1004,-10,-28,-13
1871,160,-19,1004,-10,-11,-11
1872,100,-8,1012,-12,14,-4
1873,-24,-5,1002,-15,29,1
1874,-150,-4,980,-20,24,1
1875,-157,-28,985,-17,2,-3
1876,-77,-40,986,-16,-21,-10
1877,79,-24,1014,-11,-27,-13
1878,150,-23,1004,-12,-15,-12
1879,121,-10,1002,-10,10,-6
1880,-2,-4,1001,-14,27,-1
1881,-136,-2,989,-19,27,2
1882,-163,-31,989,-19,5,-3
1883,-97,-34,977,-16,-18,-8
1884,59,-23,1009,-12,-30,-13
1885,144,-26,1012,-10,-17,-14
1886,132,-13,1005,-11,7,-6
1887,20,0,996,-14,27,0
1888,-120,-8,988,-18,29,4
1889,-169,-25,989,-19,8,-2
1890,-113,-35,981,-18,-15,-8
1891,36,-30,1008,-13,-29,-12
1892,133,-27,1011,-12,-21,-13
1893,148,-11,1006,-10,2,-6
1894,44,-3,996,-13,23,-1
1895,-104,-8,996,-16,30,2
1896,-171,-21,976,-19,13,-1
1897,-124,-28,985,-17,-11,-4
1898,12,-34,1010,-15,-28,-12
1899,120,-28,1010,-10,-22,-14
1900,157,-13,1005,-10,-2,-9
1901,58,-3,1004,-14,21,-2
1902,-80,-9,1000,-18,31,3
1903,-168,-18,970,-19,16,-1
1904,-140,-25,983,-18,-8,-6
1905,-11,-42,1009,-14,-27,-13
1906,112,-31,1008,-12,-25,-13
1907,165,-13,1006,-9,-6,-9
1908,72,-3,1008,-12,20,-3
1909,-57,-10,1004,-16,30,2
1910,-164,-13,966,-21,20,1
1911,-150,-26,990,-19,-4,-4
1912,-36,-40,1000,-17,-24,-11
1913,98,-32,1002,-11,-27,-13
1914,160,-17,1007,-10,-9,-10
1915,91,-7,1014,-12,17,-4
1916,-33,-6,1004,-16,30,0
1917,-155,-9,967,-19,24,1
1918,-156,-23,988,-17,-2,-5
1919,-65,-38,992,-16,-23,-9
1920,86,-28,1010,-11,-27,-13
1921,159,-24,1006,-9,-12,-12
1922,109,-8,1002,-9,15,-5
1923,-14,-6,1005,-13,28,0
1924,-145,-1,985,-19,26,2
1925,-161,-27,985,-18,4,-4
1926,-89,-35,984,-15,-20,-9
1927,69,-29,1010,-12,-30,-13
1928,153,-27,1008,-10,-17,-11
1929,124,-13,1003,-11,9,-5
1930,9,-3,997,-15,28,-1
1931,-132,-5,995,-17,30,2
1932,-166,-23,985,-19,8,-3
1933,-108,-36,978,-16,-16,-8
1934,51,-27,1008,-11,-30,-13
1935,139,-27,1014,-11,-18,-11
1936,144,-14,1006,-11,6,-7
1937,28,0,997,-14,25,0
1938,-112,-6,988,-18,29,3
1939,-174,-24,989,-19,10,-3
1940,-120,-31,982,-19,-14,-7
1941,31,-30,1010,-11,-29,-13
1942,128,-30,1009,-10,-21,-13
1943,154,-13,1003,-9,1,-8
1944,53,-4,1001,-14,23,-2
1945,-96,-12,1000,-18,30,3
1946,-171,-18,969,-19,15,-2
1947,-133,-26,984,-17,-10,-8
1948,4,-35,1013,-12,-30,-12
1949,114,-30,1008,-10,-23,-13
1950,161,-12,1006,-10,-3,-9
1951,65,-4,1004,-12,22,-1
1952,-73,-11,998,-16,29,0
1953,-165,-19,970,-18,18,0
1954,-148,-24,984,-17,-5,-5
1955,-21,-40,1006,-14,-25,-11
1956,107,-29,1007,-10,-26,-13
1957,161,-15,1007,-10,-8,-9
1958,80,-4,1012,-13,18,-3
1959,-49,-9,1006,-16,30,1
1960,-156,-11,964,-18,23,0
1961,-153,-29,991,-17,-1,-4
1962,-52,-36,995,-14,-25,-9
1963,94,-30,1002,-11,-28,-13
1964,157,-18,1011,-9,-11,-11
1965,99,-7,1009,-12,15,-3
1966,-25,-5,1007,-16,29,0
1967,-152,-7,974,-20,24,2
1968,-159,-29,985,-17,1,-4
1969,-74,-41,990,-15,-22,-10
1970,79,-29,1013,-12,-28,-12
1971,158,-22,1003,-10,-14,-13
1972,113,-11,1005,-11,12,-3
1973,-1,0,1003,-16,27,0
1974,-142,-5,992,-19,28,2
1975,-165,-26,986,-19,5,-3
1976,-97,-39,977,-16,-19,-8
1977,61,-28,1011,-11,-31,-11
1978,147,-29,1011,-11,-17,-11
1979,134,-11,1009,-11,8,-5
1980,17,-1,990,-14,28,0
1981,-124,0,993,-16,29,3
1982,-170,-28,988,-20,9,-2
1983,-111,-29,979,-16,-15,-8
1984,44,-34,1011,-12,-30,-13
1985,131,-27,1011,-11,-20,-12
1986,147,-18,1002,-11,2,-7
1987,39,-2,999,-14,25,-1
1988,-107,-4,992,-17,31,2
1989,-170,-20,979,-18,14,0
1990,-124,-27,983,-17,-12,-6
1991,16,-33,1014,-12,-29,-12
1992,123,-34,1008,-10,-23,-13
1993,153,-12,1003,-10,-2,-8
1994,56,-2,1005,-14,23,-2
1995,-82,-10,1001,-17,30,2
1996,-168,-18,966,-17,16,-1
1997,-138,-26,984,-17,-8,-7
1998,-9,-36,1011,-14,-28,-11
1999,111,-31,1005,-10,-24,-12
2000,164,-13,1011,-10,-5,-8
2001,70,-2,1009,-13,20,-2
2002,-59,-10,997,-16,30,1
2003,-163,-16,967,-19,19,2
2004,-147,-31,989,-17,-4,-5
2005,-35,-40,997,-14,-25,-12
2006,100,-28,1006,-11,-27,-13
2007,160,-15,1005,-9,-10,-11
2008,88,-2,1015,-11,17,-3
2009,-36,-7,1005,-17,31,2
2010,-158,-7,970,-19,24,1
2011,-157,-29,985,-19,0,-4
2012,-62,-41,994,-16,-23,-10
2013,89,-30,1007,-11,-28,-12
2014,159,-20,1003,-10,-13,-12
2015,110,-9,1009,-10,14,-5
2016,-14,-1,1007,-14,29,0
2017,-146,-4,981,-20,25,3
2018,-164,-29,985,-18,3,-4
2019,-86,-41,985,-16,-21,-10
2020,70,-31,1009,-10,-29,-13
2021,157,-26,1007,-10,-17,-13
2022,127,-15,1008,-9,9,-4
2023,6,4,994,-14,29,0
2024,-132,-3,996,-18,29,3
2025,-167,-23,983,-19,6,-3
2026,-107,-38,978,-17,-17,-8
2027,53,-31,1008,-10,-31,-13
2028,139,-36,1012,-9,-19,-13
2029,141,-10,1006,-10,6,-6
2030,31,0,994,-20,28,2
2031,-114,-2,986,-14,31,3
2032,-170,-25,983,-21,11,-1
2033,-120,-29,983,-16,-14,-7
2034,26,-33,1009,-12,-29,-12
2035,125,-31,1007,-10,-22,-13
2036,154,-11,1005,-7,0,-8
2037,50,-2,1003,-14,24,-2
2038,-93,-8,998,-18,30,2
2039,-169,-18,971,-19,15,0
2040,-135,-23,983,-18,-10,-5
2041,1,-39,1009,-13,-30,-12
2042,115,-29,1010,-11,-23,-12
2043,160,-13,1007,-10,-3,-9
2044,68,-3,1006,-11,21,-2
2045,-69,-11,1000,-15,30,2
2046,-167,-14,966,-20,18,-1
2047,-146,-26,991,-17,-5,-6
2048,-26,-40,1003,-14,-26,-10
2049,108,-29,1005,-10,-25,-12
2050,161,-17,1010,-8,-8,-10
2051,82,-2,1009,-13,19,-2
2052,-44,-9,1007,-17,30,1
2053,-163,-9,965,-20,22,2
2054,-152,-27,988,-18,-3,-5
2055,-53,-40,998,-15,-24,-11
2056,93,-31,1001,-10,-27,-13
2057,163,-23,1005,-10,-11,-12
2058,99,-9,1011,-11,15,-4
2059,-23,-3,1001,-14,30,1
2060,-148,-4,979,-19,25,3
2061,-161,-24,986,-19,2,-3
2062,-79,-38,986,-17,-20,-9
2063,79,-30,1011,-12,-28,-13
2064,155,-28,1006,-11,-14,-12
2065,120,-12,1000,-10,11,-5
2066,-2,-4,1001,-14,30,-1
2067,-134,-1,993,-19,28,1
2068,-166,-22,986,-18,5,-3
2069,-99,-37,979,-17,-18,-9
2070,56,-27,1009,-11,-30,-12
2071,143,-29,1013,-11,-18,-12
2072,136,-18,1008,-11,8,-7
2073,25,-3,991,-13,28,-1
2074,-118,-1,991,-20,28,3
2075,-169,-27,985,-20,11,-2
2076,-118,-28,984,-17,-14,-6
2077,38,-30,1007,-12,-29,-13
2078,124,-32,1011,-11,-19,-12
2079,150,-12,1005,-11,1,-6
2080,41,-2,997,-13,24,-2
2081,-102,-13,997,-17,30,1
2082,-171,-26,974,-18,14,-1
2083,-128,-25,984,-17,-10,-6
2084,11,-35,1011,-11,-29,-12
2085,115,-28,1011,-10,-22,-12
2086,158,-12,1004,-9,-2,-9
2087,56,-3,1006,-13,23,-1
2088,-78,-12,997,-17,30,2
2089,-167,-18,968,-19,16,-1
2090,-138,-26,983,-17,-6,-6
2091,-16,-36,1010,-13,-25,-12
2092,108,-31,1005,-11,-24,-14
2093,161,-13,1007,-8,-7,-10
2094,72,-1,1009,-12,20,-4
2095,-54,-13,1000,-16,29,0
2096,-158,-14,970,-19,20,0
2097,-149,-28,987,-18,-4,-4
2098,-38,-36,999,-15,-24,-11
2099,97,-28,1002,-11,-26,-13
2100,157,-17,1008,-9,-9,-10
2101,94,-7,1015,-11,16,-5
2102,-32,-8,1004,-14,30,0
2103,-152,-10,973,-18,23,1
2104,-155,-27,985,-17,1,-3
2105,-69,-40,991,-16,-22,-9
2106,84,-28,1011,-11,-28,-12
2107,152,-21,1003,-9,-12,-10
2108,111,-9,1002,-12,12,-3
2109,-10,-7,1006,-14,28,-1
2110,-143,-2,988,-18,27,1
2111,-163,-29,989,-19,4,-3
2112,-87,-36,980,-14,-20,-9
2113,64,-25,1010,-12,-29,-13
2114,147,-25,1012,-10,-18,-13
2115,126,-15,1007,-9,8,-5
2116,15,-3,991,-15,27,-1
2117,-125,-8,993,-17,29,3
2118,-168,-23,991,-19,7,-2
2119,-108,-29,979,-17,-15,-7
2120,43,-29,1015,-12,-28,-14
2121,132,-30,1011,-11,-19,-13
2122,145,-18,1005,-9,4,-6
2123,34,-1,998,-12,25,-1
2124,-107,-4,993,-18,29,2
2125,-169,-23,982,-19,14,-1
2126,-124,-25,983,-18,-12,-6
2127,18,-36,1006,-13,-30,-13
2128,122,-33,1009,-10,-23,-13
2129,154,-13,1003,-10,-2,-8
2130,56,-1,1005,-12,23,-1
2131,-86,-12,998,-18,29,2
2132,-170,-15,966,-19,15,0
2133,-135,-25,983,-17,-10,-7
2134,-10,-34,1011,-13,-29,-12
2135,113,-32,1008,-10,-24,-14
2136,158,-15,1008,-11,-4,-9
2137,70,-4,1004,-12,20,-2
2138,-62,-12,1002,-15,32,1
2139,-161,-12,963,-19,19,0
2140,-146,-28,993,-18,-6,-5
2141,-32,-35,1000,-14,-25,-12
2142,99,-31,1002,-12,-27,-12
2143,161,-18,1009,-8,-9,-11
2144,84,-6,1014,-11,18,-2
2145,-38,-7,1004,-16,31,1
2146,-151,-9,973,-19,23,1
2147,-156,-26,984,-17,-1,-4
2148,-57,-40,996,-15,-23,-11
2149,87,-29,1007,-10,-27,-13
2150,155,-22,1005,-10,-11,-11
2151,109,-8,1005,-10,14,-4
2152,-17,-5,1006,-14,28,1
2153,-143,0,980,-19,24,2
2154,-159,-32,990,-19,3,-3
2155,-85,-39,981,-16,-20,-9
2156,68,-26,1010,-12,-28,-12
2157,150,-24,1012,-11,-16,-12
2158,122,-14,1001,-11,9,-5
2159,3,-1,997,-15,28,-2
2160,-131,-4,995,-19,27,2
2161,-164,-25,986,-22,6,-2
2162,-103,-37,976,-18,-17,-7
2163,49,-29,1011,-10,-30,-12
2164,140,-30,1012,-11,-18,-12
2165,138,-9,1008,-10,6,-6
2166,28,-1,995,-15,25,-1
2167,-114,-7,991,-17,29,2
2168,-169,-27,983,-18,10,-2
2169,-121,-29,986,-17,-12,-7
2170,30,-33,1007,-13,-29,-13
2171,122,-31,1006,-9,-21,-11
2172,155,-12,1003,-9,0,-8
2173,50,0,1004,-15,24,-2
2174,-92,-9,999,-19,31,2
2175,-169,-18,970,-18,15,-1
2176,-131,-25,984,-17,-10,-6
2177,1,-37,1012,-13,-29,-13
2178,114,-32,1008,-9,-23,-13
2179,157,-11,1006,-10,-5,-9
2180,64,-2,1005,-12,21,-2
2181,-64,-9,1003,-16,29,1
2182,-166,-13,963,-19,18,0
2183,-141,-29,992,-18,-4,-7
2184,-29,-39,1004,-14,-25,-10
2185,104,-27,1002,-9,-26,-13
2186,160,-20,1011,-9,-8,-11
2187,80,-7,1013,-13,18,-2
2188,-43,-7,1003,-16,30,-1
2189,-155,-11,968,-19,23,1
2190,-155,-23,987,-16,-3,-3
2191,-50,-40,993,-15,-25,-11
2192,90,-30,1011,-10,-27,-14
2193,156,-24,1002,-11,-10,-11
2194,99,-9,1009,-11,15,-3
2195,-16,-6,1003,-14,28,1
2196,-146,-1,984,-17,24,2
2197,-154,-28,984,-18,1,-6
2198,-82,-37,988,-14,-19,-9
2199,80,-25,1007,-10,-29,-13
2200,151,-23,1010,-11,-15,-12
2201,119,-15,1003,-11,9,-4
2202,1,-2,998,-15,28,-1
2203,-132,-2,993,-19,27,2
2204,-163,-26,987,-18,6,-3
2205,-100,-35,976,-15,-18,-9
2206,56,-27,1007,-10,-30,-13
2207,138,-29,1015,-11,-17,-13
2208,138,-15,1006,-10,7,-5
2209,22,-2,992,-13,25,-1
2210,-118,-5,991,-17,28,2
2211,-170,-26,984,-19,11,-2
2212,-116,-30,985,-17,-13,-7
2213,30,-31,1010,-13,-29,-12
2214,126,-30,1007,-11,-22,-12
2215,148,-11,1003,-10,1,-7
2216,49,-2,1003,-15,24,-2
2217,-98,-15,998,-18,30,3
2218,-167,-21,968,-18,14,0
2219,-127,-27,986,-17,-9,-6
2220,2,-36,1011,-13,-28,-12
2221,120,-30,1008,-9,-22,-14
2222,154,-8,1007,-11,-3,-9
2223,62,-2,1003,-12,21,-2
2224,-71,-13,1002,-17,30,1
2225,-163,-18,961,-20,18,1
2226,-141,-27,990,-18,-6,-6
2227,-21,-39,1003,-15,-25,-11
2228,102,-25,999,-12,-25,-11
2229,158,-13,1009,-8,-8,-10
2230,76,-2,1013,-12,17,-2
2231,-42,-10,1001,-18,30,0
2232,-159,-15,971,-20,21,0
2233,-150,-28,985,-17,-3,-4
2234,-54,-39,996,-14,-24,-11
2235,95,-27,1006,-11,-27,-13
2236,157,-18,1009,-10,-9,-11
2237,97,-6,1006,-11,15,-3
2238,-21,-4,1006,-16,28,0
2239,-148,-4,981,-19,24,1
2240,-158,-31,984,-18,1,-5
2241,-77,-40,989,-15,-19,-9
2242,76,-27,1010,-12,-28,-12
2243,153,-25,1008,-9,-16,-12
2244,115,-14,1003,-10,10,-4
2245,2,1,999,-15,28,-1
2246,-134,-4,991,-18,29,2
2247,-161,-27,989,-20,5,-2
2248,-98,-36,976,-17,-18,-7
2249,57,-27,1008,-12,-30,-13
2250,139,-27,1013,-12,-18,-12
2251,138,-14,1007,-12,6,-6
2252,22,-1,995,-14,26,-1
2253,-118,-4,986,-17,28,2
2254,-168,-25,989,-18,9,-2
2255,-112,-29,983,-17,-14,-8
2256,32,-33,1011,-14,-28,-12
2257,124,-28,1007,-11,-20,-13
2258,150,-14,1004,-9,2,-7
2259,46,-3,1002,-14,24,-1
2260,-96,-11,1002,-18,30,2
2261,-167,-18,972,-20,14,-2
2262,-129,-24,982,-18,-11,-7
2263,3,-35,1011,-13,-28,-13
2264,115,-33,1011,-10,-22,-13
2265,158,-14,1001,-11,-3,-8
2266,63,-2,1006,-13,22,-3
2267,-72,-12,998,-16,29,2
2268,-165,-15,965,-20,17,0
2269,-137,-26,991,-19,-6,-5
2270,-25,-40,1002,-14,-26,-12
2271,107,-27,1003,-11,-27,-14
2272,160,-17,1011,-10,-8,-10
2273,78,-2,1010,-13,18,-3
2274,-44,-12,1004,-18,31,2
2275,-158,-11,969,-19,22,0
2276,-151,-27,986,-18,-2,-5
2277,-53,-38,999,-15,-25,-11
2278,92,-28,1007,-10,-28,-13
2279,158,-18,1005,-11,-10,-11
2280,100,-12,1009,-13,16,-3
2281,-23,-3,1005,-15,28,-1
2282,-147,-6,979,-19,23,2
2283,-158,-27,986,-18,2,-3
2284,-79,-36,989,-15,-20,-10
2285,76,-25,1013,-12,-28,-12
2286,151,-25,1007,-11,-14,-11
2287,120,-15,1004,-9,9,-3
2288,5,-2,995,-13,27,-1
2289,-131,-4,994,-18,29,2
2290,-162,-26,992,-20,6,-3
2291,-103,-31,972,-16,-19,-8
2292,52,-24,1010,-10,-31,-14
2293,136,-28,1017,-9,-18,-13
2294,138,-13,1004,-12,6,-5
2295,26,-7,992,-15,26,-2
2296,-114,-8,993,-18,28,1
2297,-170,-28,983,-18,11,-3
2298,-114,-26,985,-15,-13,-7
2299,26,-32,1012,-12,-29,-12
2300,121,-26,1006,-10,-21,-13
2301,153,-10,1006,-11,0,-8
2302,49,-4,1002,-15,23,-1
2303,-92,-10,1000,-19,30,2
2304,-165,-23,969,-20,14,-2
2305,-130,-27,984,-15,-10,-5
2306,0,-36,1011,-12,-28,-11
2307,107,-29,1006,-11,-23,-13
2308,158,-12,1008,-11,-4,-10
2309,63,-3,1007,-13,21,-2
2310,-64,-9,998,-17,28,2
2311,-160,-17,971,-19,18,0
2312,-143,-26,987,-19,-6,-4
2313,-25,-41,1001,-14,-25,-12
2314,100,-31,1002,-11,-26,-12
2315,158,-16,1009,-9,-10,-10
2316,86,-2,1010,-12,17,-3
2317,-44,-4,1005,-16,29,0
2318,-152,-8,965,-19,21,0
2319,-153,-28,991,-18,-2,-5
2320,-56,-40,992,-15,-24,-8
2321,88,-29,1008,-11,-28,-14
2322,155,-21,1005,-9,-10,-11
2323,105,-9,1004,-11,13,-3
2324,-18,-2,1004,-15,28,0
2325,-145,-5,981,-19,25,1
2326,-157,-27,989,-17,3,-4
2327,-84,-38,981,-17,-19,-10
2328,72,-31,1011,-10,-28,-14
2329,148,-26,1009,-9,-15,-14
2330,123,-13,1004,-10,10,-5
2331,6,0,997,-13,28,0
2332,-130,-2,990,-16,27,2
2333,-167,-23,987,-19,7,-2
2334,-101,-34,982,-16,-17,-8
2335,50,-31,1007,-12,-31,-13
2336,135,-29,1013,-10,-17,-12
2337,141,-18,1004,-11,5,-6
2338,30,-1,994,-14,26,-1
2339,-112,-6,994,-18,29,2
2340,-168,-19,981,-18,12,-3
2341,-123,-24,983,-17,-11,-6
2342,27,-32,1013,-13,-27,-14
2343,121,-36,1006,-10,-21,-13
2344,154,-14,1005,-8,-2,-7
2345,51,-5,1003,-13,23,-2
2346,-92,-6,1003,-16,30,2
2347,-164,-16,962,-20,15,-1
2348,-137,-20,988,-17,-9,-5
2349,-2,-36,1008,-14,-29,-10
2350,111,-31,1009,-10,-22,-15
2351,158,-18,1005,-10,-4,-10
2352,68,-4,1008,-10,20,-3
2353,-60,-11,1001,-15,30,1
2354,-163,-9,967,-20,19,1
2355,-144,-23,993,-17,-5,-5
2356,-31,-37,995,-15,-25,-11
2357,100,-27,1001,-10,-26,-12
2358,160,-22,1007,-9,-10,-11
2359,87,-5,1016,-12,18,-3
2360,-35,-13,1000,-15,31,1
2361,-152,-8,974,-18,22,0
2362,-151,-22,984,-17,-2,-6
2363,-62,-33,995,-14,-23,-10
2364,85,-27,1007,-12,-28,-13
2365,154,-26,1005,-10,-11,-12
2366,107,-15,1003,-10,13,-3
2367,-11,-7,1004,-14,28,1
2368,-142,-5,987,-20,25,3
2369,-157,-26,987,-24,0,-4
2370,-91,-34,982,-14,-23,-12
2371,64,-23,1006,-10,-28,-13
2372,144,-23,1015,-10,-15,-12
2373,127,-16,1004,-13,9,-7
2374,10,-6,994,-15,28,-1
2375,-127,-6,985,-19,27,3
2376,-165,-28,990,-17,8,-3
2377,-105,-30,980,-15,-16,-9
2378,43,-29,1008,-11,-29,-12
2379,130,-30,1013,-10,-18,-12
2380,141,-13,1002,-11,4,-6
2381,33,-3,999,-15,25,0
2382,-105,-9,995,-18,29,2
2383,-170,-20,978,-20,12,-2
2384,-118,-29,981,-16,-12,-7
2385,17,-34,1013,-12,-29,-11
2386,116,-29,1006,-10,-22,-11
2387,156,-14,1007,-9,0,-7
2388,53,0,1006,-14,23,-2
2389,-78,-8,997,-16,30,2
2390,-163,-20,971,-18,16,-1
2391,-135,-26,983,-18,-8,-5
2392,-11,-40,1009,-12,-25,-10
2393,109,-29,1006,-11,-24,-12
2394,158,-13,1004,-10,-4,-9
2395,69,-6,1012,-11,20,-2
2396,-55,-7,1002,-15,30,1
2397,-161,-10,966,-20,21,-1
2398,-144,-27,993,-17,-4,-5
2399,-43,-38,996,-14,-25,-10
2400,99,-32,1004,-11,-27,-13
2401,156,-21,1004,-10,-9,-10
2402,88,-9,1013,-12,15,-4
2403,-28,-7,1004,-15,28,-1
2404,-150,-4,975,-20,23,2
2405,-153,-25,986,-18,1,-4
2406,-70,-34,991,-15,-20,-11
2407,80,-31,1012,-12,-29,-14
2408,151,-25,1004,-11,-14,-12
2409,110,-14,1002,-11,11,-3
2410,-5,-4,1001,-14,28,0
2411,-136,-3,990,-19,27,2
2412,-159,-23,988,-20,6,-4
2413,-97,-37,979,-15,-17,-8
2414,63,-24,1003,-12,-30,-14
2415,140,-27,1018,-11,-16,-13
2416,133,-16,1004,-12,6,-5
2417,20,-4,994,-14,26,-2
2418,-119,-5,989,-15,29,2
2419,-168,-22,985,-18,9,-2
2420,-107,-30,983,-17,-15,-8
2421,34,-31,1010,-13,-28,-11
2422,127,-30,1007,-10,-19,-13
2423,147,-16,1007,-9,2,-8
2424,42,-2,1000,-14,24,-2
2425,-101,-11,999,-17,30,1
2426,-169,-18,971,-18,14,-3
2427,-124,-26,988,-15,-12,-7
2428,6,-35,1007,-14,-30,-12
2429,113,-33,1010,-10,-22,-13
2430,157,-11,1007,-11,-2,-9
2431,60,-3,1005,-13,21,-1
2432,-72,-10,995,-15,29,1
2433,-164,-17,968,-20,17,1
2434,-139,-24,989,-17,-7,-5
2435,-22,-41,1005,-14,-24,-11
2436,107,-30,1001,-11,-25,-13
2437,158,-17,1009,-9,-7,-10
2438,77,-2,1010,-13,18,-2
2439,-46,-9,1003,-16,29,0
2440,-158,-12,969,-17,21,1
2441,-147,-26,985,-17,-4,-4
2442,-49,-38,998,-15,-25,-11
2443,91,-29,1004,-10,-27,-12
2444,155,-20,1005,-11,-10,-12
2445,97,-8,1006,-11,15,-4
2446,-25,-1,1007,-15,29,-1
2447,-141,-7,983,-19,24,1
2448,-158,-29,983,-18,3,-3
2449,-80,-39,987,-16,-20,-9
2450,75,-26,1009,-11,-28,-13
2451,148,-23,1009,-11,-13,-11
2452,118,-10,1004,-10,10,-5
2453,4,-4,999,-14,28,-1
2454,-135,-3,988,-18,27,4
2455,-163,-26,991,-19,6,-2
2456,-99,-38,980,-17,-18,-6
2457,54,-27,1006,-11,-28,-12
2458,136,-29,1015,-12,-17,-10
2459,137,-13,1007,-10,6,-5
2460,29,0,994,-13,24,-1
2461,-114,-5,992,-17,28,2
2462,-167,-24,982,-20,11,-2
2463,-113,-29,985,-17,-13,-7
2464,26,-34,1010,-14,-29,-12
2465,122,-27,1005,-10,-22,-13
2466,153,-11,1007,-9,0,-7
2467,47,-2,1000,-14,24,-1
2468,-89,-11,1001,-16,30,2
2469,-166,-15,968,-18,14,-1
2470,-130,-24,984,-17,-9,-6
2471,-2,-37,1011,-14,-28,-13
2472,112,-33,1007,-10,-23,-13
2473,159,-11,1009,-9,-4,-9
2474,65,-8,1003,-12,20,-2
2475,-64,-4,1002,-15,29,2
2476,-161,-13,970,-21,19,0
2477,-144,-27,989,-18,-4,-5
2478,-32,-39,1002,-14,-25,-11
2479,102,-29,998,-11,-26,-13
2480,155,-17,1009,-9,-9,-10
2481,85,-7,1012,-12,17,-4
2482,-38,-9,1005,-17,29,0
2483,-152,-11,970,-19,21,1
2484,-152,-27,986,-18,-2,-5
2485,-59,-40,995,-14,-24,-10
2486,87,-26,1009,-11,-27,-12
2487,154,-25,1002,-9,-11,-12
2488,104,-11,1004,-10,13,-3
2489,-13,-5,1003,-15,28,0
2490,-141,-3,987,-18,26,2
2491,-157,-29,985,-20,4,-4
2492,-87,-38,983,-14,-19,-10
2493,68,-25,1009,-10,-29,-13
2494,142,-27,1015,-8,-14,-12
2495,128,-17,1005,-11,7,-6
2496,8,-3,995,-14,26,0
2497,-123,-5,989,-16,28,3
2498,-167,-25,991,-19,7,-3
2499,-105,-31,981,-15,-16,-6
2500,44,-33,1010,-12,-28,-14
2501,130,-28,1012,-10,-18,-13
2502,143,-14,1002,-11,3,-6
2503,35,-2,1000,-15,24,-1
2504,-104,-11,996,-19,28,2
2505,-167,-20,975,-19,12,-2
2506,-120,-26,987,-16,-11,-7
2507,12,-32,1010,-13,-28,-11
2508,115,-34,1006,-11,-22,-13
2509,153,-14,1011,-10,-1,-8
2510,55,-6,1001,-15,23,0
2511,-76,-10,1000,-16,31,1
2512,-162,-12,967,-18,14,-1
2513,-137,-24,985,-17,-7,-6
2514,-12,-37,1010,-12,-26,-12
2515,107,-30,997,-10,-24,-13
2516,155,-17,1010,-9,-7,-10
2517,73,-5,1008,-12,18,-2
2518,-51,-9,1002,-15,28,1
2519,-155,-10,970,-17,20,0
2520,-150,-24,989,-18,-2,-5
2521,-45,-36,998,-15,-24,-11
2522,94,-30,1003,-9,-26,-14
2523,155,-21,1009,-10,-10,-11
2524,93,-9,1008,-12,16,-4
2525,-30,-7,1004,-16,29,-1
2526,-145,-8,980,-19,22,1
2527,-155,-26,985,-18,0,-4
2528,-71,-38,993,-15,-19,-10
2529,81,-25,1014,-12,-27,-13
2530,148,-23,1005,-12,-15,-11
2531,111,-12,1000,-13,10,-5
2532,0,-9,1004,-14,26,-2
2533,-133,-5,988,-18,26,3
2534,-156,-29,987,-19,5,-4
2535,-98,-33,984,-14,-18,-9
2536,58,-26,1004,-10,-29,-13
2537,139,-27,1012,-9,-16,-12
2538,131,-16,1009,-11,7,-6
2539,22,0,990,-13,26,-1
2540,-120,-8,989,-17,29,2
2541,-165,-23,991,-17,8,-3
2542,-110,-31,982,-17,-12,-6
2543,33,-30,1009,-13,-28,-12
2544,127,-32,1010,-11,-19,-13
2545,144,-11,1003,-10,3,-8
2546,43,-5,1002,-13,25,-1
2547,-100,-8,1002,-17,29,1
2548,-166,-18,966,-20,12,-2
2549,-124,-22,988,-17,-12,-7
2550,5,-39,1010,-15,-29,-12
2551,116,-33,1008,-12,-23,-13
2552,154,-14,1009,-11,-2,-8
2553,60,-2,1004,-13,21,-3
2554,-68,-10,999,-15,30,1
2555,-168,-13,968,-18,17,1
2556,-138,-25,990,-19,-6,-5
2557,-22,-43,1005,-16,-25,-11
2558,104,-27,997,-12,-25,-12
2559,158,-20,1010,-10,-7,-10
2560,78,-4,1012,-11,17,-3
2561,-47,-6,1003,-16,29,2
2562,-156,-10,970,-19,22,1
2563,-151,-26,988,-19,-4,-5
2564,-52,-40,992,-15,-24,-10
2565,92,-31,1008,-10,-28,-14
2566,158,-23,1006,-9,-11,-12
2567,100,-6,1005,-11,15,-3
2568,-22,-7,1007,-13,29,0
2569,-143,1,983,-19,24,3
2570,-159,-28,984,-19,2,-4
2571,-80,-36,986,-15,-21,-11
2572,73,-28,1011,-12,-28,-14
2573,146,-27,1005,-9,-16,-13
2574,122,-17,1007,-11,10,-5
2575,4,-2,994,-14,29,-1
2576,-130,-2,994,-17,27,2
2577,-163,-24,992,-19,6,-3
2578,-103,-34,978,-17,-17,-9
2579,52,-29,1008,-11,-30,-14
2580,136,-30,1015,-12,-18,-12
2581,138,-14,1004,-10,6,-4
2582,27,-5,992,-12,25,-1
2583,-116,-7,996,-17,29,4
2584,-166,-23,981,-19,10,-3
2585,-120,-24,987,-18,-12,-7
2586,29,-32,1012,-13,-29,-13
2587,116,-30,1005,-11,-22,-12
2588,149,-12,1004,-10,0,-10
2589,48,-4,1006,-14,24,-3
2590,-89,-11,994,-17,30,1
2591,-164,-22,967,-19,14,-2
2592,-131,-24,987,-15,-8,-5
2593,-4,-36,1004,-14,-27,-12
2594,112,-29,1011,-10,-21,-14
2595,154,-16,1005,-10,-3,-8
2596,67,-3,1006,-12,22,-2
2597,-60,-12,1001,-17,30,1
2598,-163,-10,964,-20,19,1
2599,-142,-27,992,-19,-5,-5
2600,-34,-41,999,-15,-25,-12
2601,106,-28,1002,-10,-26,-13
2602,154,-16,1006,-10,-8,-10
2603,82,-5,1018,-12,18,-3
2604,-33,-10,1000,-16,29,-1
2605,-157,-7,975,-19,22,1
2606,-148,-26,984,-20,-2,-4
2607,-62,-40,997,-16,-21,-9
2608,89,-29,1005,-13,-27,-13
2609,153,-23,1008,-8,-11,-11
2610,110,-14,1002,-12,10,-4
2611,-18,-1,1003,-13,28,0
2612,-137,-1,986,-19,26,2
2613,-163,-28,989,-19,6,-3
2614,-83,-37,975,-16,-19,-10
2615,67,-28,1013,-11,-29,-13
2616,147,-27,1010,-9,-16,-11
2617,123,-15,1003,-11,10,-5
2618,7,-1,998,-13,28,-1
2619,-127,-4,986,-16,29,2
2620,-163,-29,993,-20,8,-3
2621,-105,-29,975,-18,-16,-8
2622,45,-30,1013,-13,-30,-13
2623,129,-33,1008,-12,-17,-11
2624,140,-9,1005,-9,4,-4
2625,37,-1,996,-13,24,-1
2626,-110,-8,995,-18,28,2
2627,-162,-21,978,-18,12,-3
2628,-124,-26,987,-17,-12,-6
2629,22,-36,1010,-13,-29,-12
2630,117,-32,1004,-9,-22,-12
2631,160,-12,1008,-9,-1,-8
2632,49,-1,1005,-13,24,-1
2633,-80,-7,998,-16,30,0
2634,-166,-19,966,-19,16,0
2635,-140,-24,986,-16,-8,-5
2636,-8,-38,1007,-13,-27,-11
2637,111,-36,1008,-9,-23,-14
2638,159,-11,1004,-8,-5,-8
2639,73,-2,1010,-10,18,-3
2640,-56,-6,1004,-14,29,1
2641,-162,-7,966,-20,21,2
2642,-146,-30,991,-18,-3,-3
2643,-42,-39,996,-15,-25,-10
2644,100,-30,1001,-11,-27,-13
2645,157,-23,1007,-9,-10,-11
2646,91,-5,1011,-12,17,-3
2647,-29,-4,1005,-14,30,0
2648,-153,-3,974,-18,23,2
2649,-154,-27,987,-18,0,-4
2650,-69,-41,993,-15,-21,-10
2651,82,-30,1009,-12,-28,-12
2652,154,-24,1007,-11,-13,-12
2653,111,-15,1000,-10,12,-5
2654,-4,0,1001,-14,28,-1
2655,-137,-1,992,-18,26,2
2656,-164,-28,986,-20,4,-3
2657,-94,-34,978,-15,-20,-9
2658,62,-28,1008,-10,-30,-13
2659,141,-30,1014,-10,-16,-12
2660,137,-18,1005,-10,8,-5
2661,15,0,991,-15,27,0
2662,-120,-2,989,-18,28,3
2663,-168,-25,990,-16,8,-2
2664,-110,-26,980,-16,-15,-8
2665,37,-30,1013,-13,-28,-12
2666,127,-32,1007,-8,-18,-13
2667,143,-14,999,-10,2,-7
2668,42,-5,1003,-14,23,-2
2669,-99,-12,995,-17,31,3
2670,-165,-16,971,-18,13,-1
2671,-122,-22,985,-15,-10,-7
2672,6,-32,1011,-12,-28,-12
2673,114,-30,1009,-11,-23,-12
2674,154,-14,1006,-11,-2,-9
2675,59,-5,1004,-14,23,-3
2676,-71,-14,999,-15,29,0
2677,-160,-16,968,-18,17,0
2678,-139,-22,990,-18,-6,-5
2679,-20,-36,1004,-14,-25,-12
2680,104,-28,1002,-13,-24,-14
2681,156,-14,1009,-9,-6,-10
2682,76,-8,1012,-12,18,-3
2683,-48,-8,1003,-17,29,1
2684,-155,-14,970,-18,22,-1
2685,-153,-25,989,-17,-2,-4
2686,-46,-40,996,-15,-25,-10
2687,90,-24,1008,-10,-26,-13
2688,157,-19,1002,-10,-11,-11
2689,98,-9,1011,-10,14,-4
2690,-20,-7,999,-15,28,0
2691,-147,-5,986,-17,24,3
2692,-155,-32,984,-18,2,-4
2693,-81,-37,989,-17,-20,-9
2694,78,-22,1008,-9,-29,-13
2695,146,-24,1013,-11,-15,-11
2696,118,-13,1000,-12,10,-4
2697,1,-4,1000,-16,28,-1
2698,-126,-7,992,-20,26,2
2699,-165,-24,987,-19,7,-3
2700,-101,-34,983,-15,-17,-7
2701,50,-30,1005,-12,-28,-12
2702,136,-29,1015,-12,-17,-13
2703,141,-14,1006,-13,5,-7
2704,26,1,996,-15,25,-2
2705,-110,-4,990,-17,28,3
2706,-175,-22,983,-20,11,-2
2707,-110,-26,989,-19,-13,-7
2708,21,-38,1010,-13,-27,-12
2709,122,-26,1002,-10,-21,-14
2710,152,-20,1011,-8,1,-8
2711,47,0,999,-12,23,-2
2712,-89,-13,1000,-16,31,2
2713,-164,-12,970,-18,15,-1
2714,-132,-23,985,-20,-9,-4
2715,1,-40,1012,-13,-26,-12
2716,109,-35,1007,-10,-23,-12
2717,158,-14,1005,-10,-6,-9
2718,68,-7,1011,-11,20,-3
2719,-63,-7,995,-15,30,2
2720,-160,-11,967,-21,19,0
2721,-143,-23,993,-18,-3,-5
2722,-36,-37,997,-15,-24,-10
2723,104,-32,1004,-11,-25,-13
2724,155,-19,1008,-9,-7,-8
2725,88,-6,1013,-11,18,-2
2726,-40,-11,1006,-16,30,0
2727,-151,-6,969,-18,22,1
2728,-151,-24,986,-17,-2,-5
2729,-65,-34,996,-15,-23,-10
2730,91,-29,1011,-10,-27,-14
2731,151,-22,1005,-12,-11,-11
2732,108,-11,1001,-12,13,-4
2733,-14,-7,1007,-14,27,-1
2734,-141,-6,982,-19,25,2
2735,-160,-25,990,-17,3,-3
2736,-84,-37,982,-16,-20,-10
2737,66,-23,1007,-11,-29,-13
2738,146,-24,1012,-10,-15,-13
2739,125,-14,1008,-11,8,-5
2740,9,-4,988,-15,26,-1
2741,-125,-5,991,-17,28,2
2742,-165,-26,993,-19,8,-3
2743,-108,-27,979,-16,-17,-8
2744,47,-29,1010,-11,-30,-14
2745,128,-32,1016,-12,-18,-12
2746,144,-11,1001,-9,3,-7
2747,33,-5,1001,-14,24,-1
2748,-106,-7,994,-17,27,1
2749,-166,-20,975,-19,12,-2
2750,-121,-25,984,-16,-11,-6
2751,14,-33,1013,-12,-29,-11
2752,119,-31,1008,-9,-23,-12
2753,151,-14,1006,-11,0,-9
2754,54,-2,1005,-14,23,-2
2755,-84,-10,1003,-17,29,2
2756,-165,-15,963,-19,14,0
2757,-132,-25,989,-18,-8,-7
2758,-13,-38,1011,-15,-27,-11
2759,110,-28,1000,-12,-24,-13
2760,157,-17,1012,-10,-6,-9
2761,70,-3,1008,-14,19,-1
2762,-56,-9,1001,-16,30,1
2763,-159,-9,969,-19,21,0
2764,-150,-24,992,-18,-3,-5
2765,-39,-38,995,-15,-23,-11
2766,95,-33,1004,-10,-26,-11
2767,158,-18,1007,-9,-10,-11
2768,95,-9,1011,-12,17,-4
2769,-31,-3,1006,-14,29,0
2770,-151,-7,977,-18,23,1
2771,-157,-27,986,-19,1,-5
2772,-72,-39,989,-17,-21,-9
2773,86,-25,1016,-11,-28,-13
2774,151,-25,1004,-11,-13,-12
2775,113,-11,1002,-10,11,-5
2776,-3,-4,1001,-15,27,-1
2777,-139,-5,988,-19,27,2
2778,-158,-28,986,-19,4,-4
2779,-94,-37,981,-15,-18,-8
2780,61,-25,1007,-11,-29,-13
2781,140,-28,1017,-11,-15,-12
2782,132,-14,1003,-13,8,-6
2783,19,-2,995,-14,26,-1
2784,-119,-5,987,-17,28,3
2785,-167,-24,989,-19,8,-2
2786,-110,-29,984,-17,-15,-8
2787,33,-32,1010,-13,-28,-12
2788,130,-28,1007,-10,-20,-13
2789,146,-16,1005,-10,2,-6
2790,42,0,1001,-14,25,-1
2791,-98,-12,1001,-17,30,2
2792,-169,-16,968,-17,12,-2
2793,-125,-27,989,-16,-10,-8
2794,8,-34,1013,-15,-28,-12
2795,114,-33,1007,-10,-22,-12
2796,159,-13,1009,-8,-3,-8
2797,56,-4,1004,-13,22,-1
2798,-72,-12,996,-17,29,1
2799,-163,-19,971,-19,16,0
2800,-139,-22,987,-19,-7,-5
2801,-21,-40,1003,-14,-25,-12
2802,105,-26,1004,-10,-24,-13
2803,158,-19,1008,-10,-5,-9
2804,75,0,1006,-11,19,-3
2805,-45,-13,1008,-17,30,0
2806,-155,-8,965,-19,21,0
2807,-148,-25,987,-17,-2,-5
2808,-48,-34,997,-16,-24,-11
2809,87,-30,1007,-11,-26,-14
2810,157,-23,1003,-10,-10,-11
2811,97,-12,1009,-10,15,-3
2812,-24,-3,1004,-15,28,0
2813,-145,-6,983,-18,24,1
2814,-155,-25,984,-19,1,-4
2815,-81,-36,988,-15,-18,-8
2816,79,-27,1013,-11,-28,-13
2817,144,-23,1008,-11,-15,-11
2818,116,-10,1002,-10,10,-4
2819,1,-9,1002,-14,27,0
2820,-133,-4,988,-17,27,2
2821,-160,-28,991,-18,6,-3
2822,-105,-33,975,-16,-18,-8
2823,56,-25,1007,-10,-29,-12
2824,135,-29,1016,-10,-16,-11
2825,135,-16,1006,-10,8,-5
2826,27,-3,994,-13,25,-1
2827,-116,-7,991,-16,28,2
2828,-169,-24,985,-20,10,-2
2829,-114,-28,987,-15,-13,-6
2830,27,-32,1007,-13,-28,-11
2831,124,-30,1008,-10,-20,-12
2832,152,-14,1004,-10,0,-8
2833,44,-2,1004,-14,23,-3
2834,-90,-9,999,-18,30,1
2835,-170,-18,970,-19,15,0
2836,-130,-25,981,-17,-10,-6
2837,0,-40,1012,-13,-28,-11
2838,116,-29,1007,-10,-23,-12
2839,156,-13,1005,-10,-2,-8
2840,62,-1,1009,-13,22,-2
2841,-66,-14,999,-17,31,1
2842,-164,-12,971,-18,18,1
2843,-141,-30,989,-18,-6,-5
2844,-30,-36,1003,-14,-25,-11
2845,107,-29,998,-11,-25,-13
2846,156,-16,1012,-9,-8,-10
2847,83,-6,1012,-13,18,-2
2848,-42,-9,1002,-16,30,0
2849,-155,-10,970,-18,21,0
2850,-154,-22,987,-17,-2,-3
2851,-54,-38,994,-15,-24,-11
2852,89,-28,1007,-11,-27,-13
2853,155,-21,1006,-11,-11,-11
2854,103,-11,1005,-12,14,-3
2855,-20,-3,1008,-14,28,0
2856,-143,-6,982,-19,24,2
2857,-158,-26,987,-19,3,-4
2858,-87,-36,984,-16,-21,-9
2859,74,-26,1011,-12,-30,-13
2860,149,-29,1007,-11,-15,-12
2861,122,-13,1006,-10,9,-5
2862,5,-3,996,-15,28,0
2863,-131,-6,991,-17,28,1
2864,-165,-24,990,-18,5,-3
2865,-104,-33,978,-17,-17,-9
2866,53,-28,1007,-10,-29,-13
2867,136,-27,1013,-11,-18,-13
2868,140,-15,1006,-11,6,-7
2869,30,-4,993,-12,25,-1
2870,-112,-9,992,-16,29,2
2871,-170,-22,980,-18,10,-2
2872,-114,-27,985,-16,-13,-7
2873,23,-31,1013,-14,-30,-12
2874,122,-31,1005,-10,-22,-13
2875,152,-16,1005,-10,-1,-8
2876,52,-4,1004,-15,23,-1
2877,-86,-9,997,-17,29,1
2878,-169,-17,970,-19,15,-1
2879,-132,-23,981,-15,-10,-6
2880,-3,-39,1014,-14,-28,-11
2881,113,-32,1006,-11,-24,-13
2882,159,-13,1008,-11,-3,-9
2883,66,-3,1011,-12,21,-2
2884,-63,-11,998,-15,29,1
2885,-161,-10,968,-17,19,0
2886,-145,-26,990,-16,-4,-4
2887,-33,-40,1000,-14,-25,-11
2888,104,-30,1002,-12,-27,-12
2889,156,-17,1010,-8,-9,-10
2890,87,-6,1011,-12,18,-3
2891,-40,-8,1005,-17,29,0
2892,-152,-7,969,-20,22,1
2893,-156,-28,988,-18,-2,-5
2894,-60,-38,991,-15,-23,-11
2895,86,-31,1013,-11,-27,-12
2896,156,-22,1004,-11,-11,-12
2897,105,-12,1003,-9,13,-3
2898,-15,0,1004,-14,29,0
2899,-146,-5,988,-20,27,3
2900,-156,-27,986,-19,4,-4
2901,-91,-38,980,-17,-19,-9
2902,70,-25,1013,-11,-29,-13
2903,145,-31,1010,-9,-16,-13
2904,128,-12,1007,-11,9,-6
2905,9,1,995,-14,28,0
2906,-126,0,986,-19,28,3
2907,-167,-26,990,-20,7,-2
2908,-105,-30,982,-16,-17,-8
2909,46,-31,1008,-13,-29,-12
2910,133,-31,1013,-9,-17,-12
2911,141,-14,1003,-8,4,-6
2912,37,0,998,-12,23,-1
2913,-109,-7,995,-15,29,3
2914,-165,-20,979,-20,12,-1
2915,-126,-28,987,-19,-11,-7
2916,18,-34,1010,-14,-28,-12
2917,119,-35,1008,-9,-22,-13
2918,158,-13,1005,-9,-1,-7
2919,57,-3,1001,-12,23,-2
2920,-82,-8,1002,-15,30,1
2921,-168,-13,966,-19,16,0
2922,-135,-23,986,-19,-8,-5
2923,-11,-40,1006,-14,-27,-11
2924,110,-32,1008,-11,-24,-12
2925,160,-15,1008,-10,-5,-9
2926,71,-7,1007,-11,20,-2
2927,-56,-11,1003,-16,29,1
2928,-160,-12,966,-18,20,0
2929,-146,-22,989,-18,-3,-5
2930,-40,-36,999,-15,-27,-10
2931,99,-31,1001,-11,-27,-12
2932,158,-20,1008,-9,-9,-10
2933,93,-9,1013,-14,17,-3
2934,-35,-10,1005,-16,29,1
2935,-150,-7,973,-20,23,1
2936,-158,-27,984,-17,-1,-4
2937,-65,-36,995,-15,-22,-10
2938,83,-28,1011,-13,-27,-12
2939,152,-21,1007,-8,-12,-11
2940,108,-17,1002,-10,12,-4
2941,-10,-4,1003,-16,27,0
2942,-137,-8,987,-19,26,2
2943,-162,-27,991,-19,5,-3
2944,-87,-35,974,-15,-19,-9
2945,57,-24,1015,-10,-28,-14
2946,145,-28,1009,-11,-16,-12
2947,128,-16,1009,-11,8,-6
2948,16,0,990,-15,26,-1
2949,-122,-5,991,-16,28,3
2950,-164,-24,987,-19,7,-2
2951,-111,-30,981,-17,-15,-7
2952,43,-27,1013,-13,-29,-13
2953,124,-32,1007,-12,-19,-12
2954,145,-10,1005,-10,3,-7
2955,38,-3,1001,-13,23,-1
2956,-103,-12,995,-17,29,2
2957,-167,-22,973,-18,12,-1
2958,-120,-25,988,-16,-12,-6
2959,11,-33,1007,-13,-29,-11
2960,116,-31,1009,-10,-22,-13
2961,150,-12,1006,-11,-1,-7
2962,58,-2,1005,-13,22,-3
2963,-74,-9,1000,-16,29,2
2964,-165,-14,966,-19,17,0
2965,-137,-29,987,-16,-6,-7
2966,-21,-42,1007,-14,-26,-11
2967,108,-29,998,-10,-25,-13
2968,160,-12,1012,-10,-6,-9
2969,76,0,1007,-13,19,-2
2970,-51,-9,1006,-17,30,0
2971,-155,-12,963,-19,21,0
2972,-151,-28,993,-18,-3,-5
2973,-43,-39,991,-15,-26,-10
2974,94,-29,1010,-11,-27,-12
2975,161,-17,1006,-9,-11,-10
2976,93,-6,1006,-12,16,-4
2977,-24,-3,1005,-15,29,-1
2978,-150,-5,978,-19,23,2
2979,-155,-28,983,-18,0,-3
2980,-73,-43,991,-15,-22,-10
2981,82,-28,1011,-12,-28,-13
2982,149,-26,1006,-9,-16,-11
2983,118,-10,1004,-9,10,-4
2984,-4,-2,999,-14,29,0
2985,-135,-1,988,-19,28,1
2986,-164,-28,992,-20,5,-3
2987,-96,-36,976,-17,-19,-9
2988,60,-30,1008,-12,-30,-12
2989,135,-33,1017,-10,-16,-12
2990,137,-17,1005,-11,7,-5
2991,24,0,996,-14,27,-1
2992,-117,-5,989,-16,28,3
2993,-169,-23,985,-19,10,-2
2994,-115,-28,986,-16,-14,-7
2995,29,-30,1011,-12,-30,-12
2996,125,-33,1005,-10,-20,-12
2997,151,-15,1008,-9,3,-9
2998,44,-3,1000,-13,24,-2
2999,-93,-12,1000,-17,31,2
3000,-166,-17,969,-19,14,-2
3001,-130,-23,984,-18,-10,-5
3002,2,-34,1010,-14,-29,-13
3003,110,-31,1009,-12,-23,-13
3004,160,-14,1004,-12,-3,-9
3005,63,-6,1006,-12,21,-2
3006,-66,-12,997,-15,29,1
3007,-161,-14,967,-18,18,1
3008,-141,-21,992,-17,-5,-6
3009,-27,-32,1001,-14,-25,-11
3010,100,-30,1003,-12,-25,-13
3011,156,-20,1005,-8,-8,-10
3012,86,-12,1015,-14,18,-3
3013,-40,-13,1000,-15,30,0
3014,-154,-8,974,-17,23,1
3015,-151,-25,984,-18,-3,-5
3016,-59,-37,1000,-15,-22,-10
3017,91,-26,1005,-13,-27,-12
3018,151,-23,1009,-12,-10,-11
3019,104,-9,1001,-11,13,-3
3020,-16,-4,1007,-14,28,1
3021,-140,-4,982,-19,25,2
3022,-158,-29,986,-18,3,-4
3023,-85,-37,984,-14,-21,-10
3024,70,-26,1009,-10,-29,-12
3025,149,-24,1012,-10,-16,-12
3026,123,-16,1003,-11,9,-5
3027,5,1,995,-14,28,-1
3028,-127,-4,987,-18,27,1
3029,-166,-26,994,-19,6,-3
3030,-101,-33,977,-18,-17,-8
3031,48,-30,1012,-10,-28,-14
3032,132,-28,1013,-9,-17,-12
3033,140,-12,1003,-10,4,-7
3034,33,-1,997,-13,24,-2
3035,-111,-4,994,-18,29,2
3036,-168,-23,978,-19,12,-3
3037,-120,-25,985,-17,-14,-8
3038,21,-35,1015,-11,-26,-13
3039,118,-30,1006,-12,-22,-13
3040,157,-16,1009,-8,0,-8
3041,53,-2,1004,-15,24,0
3042,-86,-9,998,-16,30,2
3043,-164,-16,969,-19,15,-2
3044,-134,-24,983,-20,-8,-5
3045,-8,-38,1009,-13,-26,-11
3046,112,-31,1008,-11,-24,-13
3047,158,-13,1004,-10,-5,-9
3048,71,-2,1011,-11,20,-1
3049,-57,-11,1003,-16,29,1
3050,-158,-11,965,-19,20,0
3051,-146,-26,993,-17,-3,-5
3052,-40,-38,994,-15,-24,-11
3053,98,-32,1003,-9,-27,-15
3054,156,-21,1006,-9,-9,-10
3055,91,-5,1012,-12,17,-2
3056,-29,-7,1007,-17,29,-1
3057,-150,-5,972,-18,24,1
3058,-158,-25,988,-17,0,-4
3059,-71,-40,988,-15,-21,-10
3060,83,-28,1014,-11,-27,-13
3061,152,-25,1003,-11,-13,-11
3062,115,-13,1004,-12,13,-4
3063,-8,-4,1002,-14,29,-1
3064,-135,-2,989,-18,26,1
3065,-160,-29,991,-19,4,-4
3066,-96,-36,974,-16,-18,-9
3067,61,-27,1010,-12,-30,-12
3068,139,-28,1015,-10,-17,-12
3069,134,-13,1008,-11,7,-6
3070,18,-1,991,-13,25,-1
3071,-117,-4,991,-17,28,2
3072,-167,-27,986,-19,9,-2
3073,-113,-29,985,-17,-14,-7
3074,35,-36,1011,-12,-29,-13
3075,121,-29,1007,-9,-19,-11
3076,147,-13,1004,-9,2,-7
3077,45,-2,1003,-13,24,-3
3078,-97,-9,999,-17,28,1
3079,-166,-20,967,-17,14,-2
3080,-125,-26,986,-17,-11,-6
3081,2,-37,1009,-14,-29,-11
3082,111,-32,1007,-10,-21,-13
3083,157,-17,1008,-12,-1,-9
3084,59,-3,1003,-12,21,-1
3085,-69,-8,1001,-15,28,1
3086,-162,-17,970,-19,18,1
3087,-140,-24,989,-18,-6,-5
3088,-23,-39,1003,-13,-26,-12
3089,105,-30,1003,-11,-26,-12
3090,153,-15,1008,-10,-7,-10
3091,80,-4,1014,-14,18,-3
3092,-45,-5,1004,-17,29,0
3093,-156,-11,966,-21,21,1
3094,-149,-28,988,-18,-3,-5
3095,-54,-39,996,-15,-23,-10
3096,91,-30,1007,-9,-26,-13
3097,153,-21,1009,-12,-9,-10
3098,101,-9,1004,-11,15,-4
3099,-19,-8,1000,-14,29,-1
3100,-144,-4,985,-19,25,2
3101,-156,-26,988,-20,3,-3
3102,-79,-36,983,-17,-19,-8
3103,70,-30,1011,-13,-29,-12
3104,149,-27,1011,-10,-15,-11
3105,120,-16,1002,-12,9,-4
3106,9,-1,995,-14,26,-1
3107,-127,-4,993,-17,26,2
3108,-166,-24,989,-19,6,-3
3109,-99,-30,981,-17,-17,-9
3110,49,-32,1010,-12,-29,-13
3111,131,-29,1009,-11,-18,-12
3112,143,-18,1006,-10,4,-6
3113,27,-4,997,-14,25,-2
3114,-109,-8,993,-18,27,1
3115,-169,-19,980,-19,11,-2
3116,-114,-24,985,-16,-13,-7
3117,22,-31,1014,-13,-28,-13
3118,115,-31,1005,-11,-21,-13
3119,154,-15,1008,-11,0,-8
3120,51,-9,1001,-14,24,-1
3121,-85,-10,1004,-15,29,2
3122,-162,-19,965,-18,14,-2
3123,-135,-21,989,-16,-8,-6
3124,-7,-33,1006,-14,-27,-13
3125,108,-29,1008,-12,-21,-14
3126,158,-13,1004,-11,-5,-8
3127,67,-6,1010,-13,19,-1
3128,-57,-11,1000,-17,29,1
3129,-157,-15,966,-19,20,1
3130,-144,-25,991,-18,-4,-4
3131,-42,-39,998,-14,-24,-11
3132,100,-24,1005,-10,-26,-13
3133,154,-21,1006,-10,-9,-9
3134,90,-3,1012,-12,17,-3
3135,-31,-8,1006,-18,30,-1
3136,-149,-7,969,-19,22,1
3137,-151,-33,988,-18,-1,-4
3138,-69,-40,990,-13,-21,-9
3139,84,-27,1012,-10,-27,-13
3140,150,-23,1006,-9,-12,-11
3141,111,-11,1004,-11,11,-3
3142,-1,-2,1002,-15,27,0
3143,-139,-5,989,-19,26,1
3144,-157,-26,988,-18,5,-5
3145,-92,-35,979,-18,-17,-9
3146,57,-26,1006,-11,-29,-13
3147,141,-29,1015,-12,-18,-12
3148,130,-17,1008,-12,7,-5
3149,19,-3,990,-14,26,1
3150,-119,-5,991,-17,27,4
3151,-168,-22,984,-18,9,-2
3152,-110,-28,986,-16,-14,-7
3153,36,-33,1010,-13,-28,-12
3154,123,-32,1008,-10,-19,-12
3155,149,-12,1005,-9,1,-8
3156,41,-5,1001,-15,23,-1
3157,-97,-9,1000,-16,29,2
3158,-169,-18,970,-17,13,-2
3159,-122,-25,986,-16,-12,-7
3160,5,-35,1010,-13,-28,-12
3161,117,-31,1009,-11,-24,-13
3162,151,-13,1009,-10,-2,-8
3163,59,-3,1002,-12,21,-1
3164,-68,-11,1001,-15,29,1
3165,-160,-14,967,-18,17,0
3166,-138,-25,989,-19,-5,-5
3167,-25,-36,1007,-15,-25,-11
3168,102,-28,999,-10,-25,-12
3169,154,-15,1010,-9,-8,-10
3170,79,-9,1012,-13,18,-2
3171,-42,-6,1003,-17,29,1
3172,-155,-11,969,-18,21,1
3173,-147,-26,988,-16,-2,-5
3174,-52,-39,997,-16,-23,-10
3175,89,-30,1007,-12,-27,-12
3176,153,-23,1004,-11,-11,-11
3177,98,-10,1005,-12,14,-3
3178,-18,-5,1002,-14,28,-1
3179,-146,-3,985,-19,23,1
3180,-154,-29,990,-19,3,-3
3181,-81,-38,985,-15,-21,-10
3182,71,-24,1008,-12,-28,-12
3183,147,-26,1014,-8,-15,-12
3184,119,-14,1003,-11,8,-6
3185,7,-3,995,-14,27,0
3186,-126,-4,993,-15,27,2
3187,-165,-23,990,-18,6,-2
3188,-99,-31,978,-16,-17,-7
3189,46,-30,1009,-12,-27,-12
3190,130,-32,1012,-12,-17,-13
3191,142,-17,1002,-10,3,-6
3192,32,-1,998,-14,23,-1
3193,-108,-7,993,-17,30,3
3194,-168,-18,983,-18,12,-1
3195,-120,-27,982,-17,-12,-6
3196,20,-32,1013,-14,-29,-13
3197,122,-32,1007,-11,-21,-12
3198,154,-14,1006,-11,-1,-9
3199,52,-8,1004,-14,23,-1
3200,-81,-10,1002,-15,31,2
3201,-167,-16,966,-20,15,1
3202,-139,-20,988,-15,-8,-6
3203,-6,-38,1009,-13,-26,-11
3204,105,-28,1004,-10,-22,-12
3205,160,-12,1010,-10,-5,-9
3206,69,-7,1009,-15,21,-2
3207,-57,-13,998,-16,29,1
3208,-159,-12,967,-19,19,0
3209,-146,-25,992,-18,-4,-3
3210,-40,-37,997,-15,-24,-11
3211,99,-28,1001,-11,-25,-13
3212,158,-19,1010,-10,-10,-11
3213,90,-8,1006,-12,17,-3
3214,-34,-8,1008,-15,28,0
3215,-149,-8,975,-17,23,2
3216,-156,-29,986,-17,1,-4
3217,-70,-35,993,-15,-22,-9
3218,83,-27,1012,-11,-27,-12
3219,151,-21,1005,-11,-12,-10
3220,110,-12,1002,-11,12,-4
3221,-3,-4,1002,-15,27,-2
3222,-135,-7,988,-20,26,2
3223,-163,-27,989,-19,4,-3
3224,-92,-36,980,-16,-20,-9
3225,60,-24,1009,-11,-30,-12
3226,140,-25,1013,-11,-16,-12
3227,133,-12,1009,-11,9,-6
3228,14,-2,992,-16,27,1
3229,-120,-4,990,-19,27,3
3230,-165,-29,987,-18,8,-3
3231,-108,-30,985,-17,-13,-7
3232,36,-33,1010,-12,-28,-12
3233,123,-33,1006,-9,-19,-13
3234,148,-6,1006,-8,2,-8
3235,39,-1,1002,-14,24,0
3236,-94,-8,995,-16,30,2
3237,-168,-22,971,-21,14,-1
3238,-123,-27,984,-18,-11,-5
3239,7,-37,1013,-13,-28,-12
3240,114,-32,1007,-9,-21,-13
3241,155,-12,1008,-8,-2,-9
3242,57,0,1004,-13,23,-1
3243,-70,-7,1002,-14,29,1
3244,-162,-15,968,-19,17,-1
3245,-137,-27,992,-18,-6,-6
3246,-21,-43,999,-15,-25,-13
3247,107,-31,1004,-9,-25,-13
3248,159,-16,1006,-8,-7,-10
3249,74,-3,1014,-11,18,-3
3250,-44,-7,1002,-15,31,1
3251,-158,-8,970,-18,22,1
3252,-147,-24,987,-17,-3,-4
3253,-57,-41,995,-15,-24,-10
3254,93,-30,1010,-11,-27,-13
3255,156,-26,1003,-10,-10,-12
3256,100,-6,1006,-10,14,-3
3257,-19,-6,1001,-14,27,-1
3258,-144,-3,987,-18,23,2
3259,-157,-30,983,-19,1,-4
3260,-80,-31,986,-15,-21,-11
3261,75,-29,1009,-14,-29,-13
3262,144,-23,1012,-10,-14,-12
3263,121,-18,1005,-12,10,-5
3264,3,-3,997,-15,28,-1
3265,-129,-2,988,-18,26,2
3266,-164,-22,990,-17,6,-3
3267,-102,-31,984,-16,-18,-8
3268,49,-31,1007,-12,-29,-12
3269,130,-32,1012,-12,-18,-12
3270,144,-15,1003,-9,4,-6
3271,27,-2,998,-13,25,0
3272,-110,-3,989,-17,29,1
3273,-167,-22,982,-19,12,-3
3274,-120,-27,982,-17,-13,-7
3275,23,-36,1013,-13,-29,-13
3276,123,-34,1006,-10,-22,-12
3277,151,-13,1004,-10,-1,-7
3278,51,-1,1006,-15,23,-2
3279,-84,-10,999,-16,30,2
3280,-166,-13,966,-18,16,0
3281,-131,-25,989,-16,-10,-7
3282,-10,-40,1007,-14,-27,-12
3283,113,-31,1006,-10,-23,-13
3284,157,-13,1010,-8,-5,-9
3285,67,-2,1003,-12,20,-2
3286,-55,-12,1005,-17,29,2
3287,-160,-11,964,-20,20,1
3288,-142,-27,991,-17,-3,-7
3289,-36,-40,1000,-15,-25,-12
3290,96,-26,1000,-11,-27,-13
3291,160,-20,1011,-8,-10,-13
3292,87,-7,1009,-12,16,-3
3293,-29,-3,1003,-15,29,0
3294,-147,-10,977,-20,23,1
3295,-157,-29,984,-18,0,-4
3296,-68,-39,992,-14,-21,-9
3297,82,-25,1014,-10,-27,-13
3298,149,-22,1005,-10,-13,-11
3299,111,-10,1002,-10,12,-5
3300,-11,-6,1005,-14,27,-2
3301,-135,-2,988,-20,26,2
3302,-161,-34,991,-19,5,-4
3303,-92,-32,976,-15,-18,-9
3304,62,-28,1011,-11,-29,-13
3305,138,-25,1013,-9,-15,-12
3306,130,-18,1006,-12,8,-5
3307,15,-2,994,-15,27,-2
3308,-119,-5,989,-17,28,4
3309,-163,-25,988,-18,9,-3
3310,-113,-28,985,-17,-15,-6
3311,36,-32,1007,-13,-28,-12
3312,123,-32,1012,-11,-19,-12
3313,144,-12,1001,-8,1,-6
3314,44,-3,1003,-13,23,-2
3315,-96,-12,999,-16,30,3
3316,-166,-15,970,-18,13,-1
3317,-123,-28,984,-18,-10,-7
3318,6,-34,1014,-13,-29,-12
3319,113,-32,1007,-11,-23,-13
3320,154,-16,1006,-10,-1,-10
3321,59,-3,1005,-12,21,-3
3322,-68,-10,1000,-15,27,1
3323,-161,-14,969,-20,16,0
3324,-137,-23,989,-18,-6,-5
3325,-26,-38,1001,-14,-25,-11
3326,104,-30,1002,-11,-25,-12
3327,152,-14,1010,-9,-7,-9
3328,82,-7,1012,-13,17,-3
3329,-42,-10,1006,-15,30,0
3330,-155,-7,969,-18,21,1
3331,-147,-26,988,-17,-2,-5
3332,-54,-39,996,-15,-24,-10
3333,88,-28,1007,-11,-26,-13
3334,157,-24,1005,-11,-10,-12
3335,98,-10,1002,-11,14,-3
3336,-18,-4,1005,-14,28,0
3337,-142,-4,982,-20,25,2
3338,-156,-27,990,-19,2,-4
3339,-83,-36,979,-16,-20,-10
3340,68,-26,1010,-11,-29,-12
3341,150,-26,1009,-9,-15,-13
3342,114,-14,1006,-11,9,-5
3343,12,-5,991,-16,26,-2
3344,-129,-5,989,-17,27,2
3345,-163,-25,987,-19,6,-3
3346,-102,-32,984,-16,-15,-8
3347,49,-26,1008,-11,-28,-12
3348,126,-29,1009,-11,-18,-12
3349,144,-13,1007,-11,3,-8
3350,29,-4,993,-13,24,-1
3351,-109,-10,999,-18,29,2
3352,-164,-22,973,-17,12,-2
3353,-120,-23,988,-17,-11,-6
3354,21,-33,1008,-14,-29,-12
3355,114,-29,1008,-8,-21,-13
3356,156,-17,1004,-11,-1,-7
3357,54,-4,1007,-13,24,-2
3358,-83,-11,997,-16,29,0
3359,-162,-16,971,-20,14,-1
3360,-131,-23,985,-18,-8,-7
3361,-10,-34,1007,-13,-27,-12
3362,110,-32,1007,-12,-23,-13
3363,156,-15,1003,-10,-5,-9
3364,71,-6,1012,-12,19,-2
3365,-54,-12,1002,-16,29,0
3366,-157,-11,967,-18,20,1
3367,-147,-20,992,-16,-4,-4
3368,-44,-34,996,-15,-25,-10
3369,98,-29,1005,-10,-26,-13
3370,156,-23,1002,-12,-9,-11
3371,91,-10,1013,-12,17,-4
3372,-24,-6,1005,-15,29,0
3373,-151,-6,975,-18,23,2
3374,-153,-26,986,-18,0,-5
3375,-72,-37,994,-16,-21,-11
3376,78,-25,1006,-8,-31,-16
3377,148,-22,1008,-9,-13,-12
3378,113,-15,1002,-11,11,-5
3379,-3,-7,998,-15,28,-1
3380,-133,-1,990,-17,27,2
3381,-160,-28,992,-19,5,-3
3382,-97,-31,976,-16,-18,-9
3383,58,-29,1008,-11,-28,-12
3384,138,-28,1015,-11,-17,-12
3385,132,-17,1004,-12,7,-6
3386,21,-4,995,-14,26,-2
3387,-115,-7,991,-17,27,2
3388,-167,-21,985,-18,10,-3
3389,-109,-30,985,-16,-15,-8
3390,30,-28,1011,-14,-29,-11
3391,124,-33,1007,-11,-20,-12
3392,149,-12,1004,-11,0,-7
3393,47,-3,1000,-14,24,-2
3394,-96,-11,997,-18,29,1
3395,-163,-18,973,-19,13,-3
3396,-127,-28,981,-17,-11,-6
3397,2,-29,1008,-12,-27,-13
3398,113,-32,1012,-11,-22,-13
3399,153,-12,1004,-10,-3,-8
3400,63,-6,1005,-13,21,-2
3401,-67,-11,1002,-16,28,0
3402,-159,-15,966,-19,17,0
3403,-136,-26,991,-17,-7,-5
3404,-28,-34,1003,-13,-26,-10
3405,105,-31,1000,-11,-25,-13
3406,154,-16,1008,-10,-8,-10
3407,81,-5,1012,-14,18,-2
3408,-40,-11,1011,-16,29,0
3409,-152,-9,966,-18,21,1
3410,-149,-26,987,-18,-3,-5
3411,-58,-42,997,-15,-23,-10
3412,90,-24,1009,-10,-26,-13
3413,152,-22,1004,-10,-11,-11
3414,103,-12,1004,-11,13,-3
3415,-16,-3,1005,-14,28,0
3416,-142,-4,981,-18,25,1
3417,-156,-28,992,-17,4,-3
3418,-83,-37,980,-15,-20,-9
3419,66,-26,1010,-11,-28,-12
3420,149,-27,1012,-10,-15,-13
3421,120,-15,1009,-12,10,-4
3422,10,0,987,-15,27,0
3423,-127,-6,994,-19,27,2
3424,-164,-23,986,-18,6,-3
3425,-105,-32,983,-17,-16,-8
3426,46,-31,1010,-12,-30,-13
3427,129,-34,1010,-12,-19,-13
3428,144,-12,1007,-10,3,-7
3429,33,-4,995,-11,24,-1
3430,-107,-6,996,-18,29,2
3431,-170,-20,981,-20,12,-3
3432,-120,-24,987,-18,-12,-7
3433,18,-35,1008,-14,-28,-12
3434,115,-30,1009,-10,-20,-13
3435,156,-13,1006,-10,0,-9
3436,49,-5,1004,-13,24,-1
3437,-81,-9,995,-14,29,1
3438,-165,-20,969,-18,16,-1
3439,-132,-23,987,-17,-9,-5
3440,-10,-39,1009,-13,-26,-12
3441,105,-28,1005,-13,-24,-14
3442,155,-17,1006,-9,-6,-9
3443,67,-3,1010,-12,19,-3
3444,-57,-10,1000,-18,29,1
3445,-153,-12,972,-19,20,1
3446,-146,-24,986,-18,-4,-5
3447,-44,-36,1001,-17,-25,-11
3448,101,-33,1002,-11,-27,-13
3449,153,-20,1007,-9,-8,-10
3450,93,-8,1009,-12,16,-3
3451,-32,-9,1007,-14,29,0
3452,-149,-3,973,-18,21,3
3453,-154,-25,990,-17,1,-5
3454,-70,-36,989,-16,-20,-11
3455,81,-27,1011,-11,-27,-13
3456,151,-21,1006,-10,-12,-12
3457,111,-15,1001,-10,11,-5
3458,-3,-5,1002,-14,27,-1
3459,-136,-1,988,-17,26,2
3460,-158,-25,988,-19,5,-3
3461,-96,-37,980,-16,-18,-7
3462,59,-27,1005,-11,-30,-12
3463,140,-31,1016,-9,-17,-13
3464,133,-12,1006,-10,7,-5
3465,21,-1,995,-13,25,-1
3466,-119,-6,992,-18,27,2
3467,-169,-21,988,-18,10,-2
3468,-111,-26,985,-17,-14,-8
3469,34,-32,1011,-11,-29,-12
3470,129,-30,1009,-9,-20,-13
3471,146,-14,1003,-8,1,-7
3472,43,-2,1001,-13,23,-1
3473,-96,-12,1002,-17,30,1
3474,-167,-15,968,-17,14,-2
3475,-123,-25,985,-17,-10,-7
3476,6,-34,1011,-14,-29,-12
3477,112,-31,1005,-10,-22,-11
3478,158,-15,1009,-11,-1,-10
3479,60,-8,1006,-12,23,-2
3480,-68,-10,999,-16,29,2
3481,-161,-13,969,-20,17,-1
3482,-142,-21,992,-16,-6,-5
3483,-25,-36,999,-16,-25,-11
3484,103,-28,1008,-11,-26,-12
3485,159,-18,1001,-9,-8,-10
3486,81,-8,1015,-12,19,-4
3487,-43,-11,1003,-16,28,1
3488,-155,-10,970,-17,21,1
3489,-151,-25,986,-16,-2,-5
3490,-61,-36,996,-14,-24,-10
3491,94,-23,1008,-10,-28,-14
3492,151,-25,1006,-12,-10,-12
3493,105,-10,1003,-10,13,-4
3494,-19,-10,1006,-15,28,0
3495,-140,-6,979,-19,24,2
3496,-158,-27,989,-17,2,-4
3497,-84,-34,985,-14,-21,-10
3498,74,-24,1008,-10,-28,-12
3499,145,-23,1013,-10,-16,-12
3500,119,-16,1006,-12,9,-5
3501,8,-3,996,-16,27,-1
3502,-128,-9,986,-17,28,4
3503,-161,-26,993,-17,7,-3
3504,-105,-35,980,-16,-16,-6
3505,48,-26,1011,-12,-30,-12
3506,132,-28,1011,-10,-18,-14
3507,141,-13,1005,-10,3,-6
3508,34,-3,994,-14,23,-2
3509,-110,-9,995,-17,29,2
3510,-167,-21,980,-19,12,-1
3511,-124,-30,981,-16,-12,-6
3512,22,-32,1011,-12,-28,-13
3513,117,-29,1010,-9,-21,-12
3514,155,-13,1003,-10,-2,-8
3515,52,-2,1005,-13,22,-3
3516,-86,-10,997,-17,29,1
3517,-163,-19,968,-19,14,-2
3518,-132,-28,985,-17,-8,-6
3519,-8,-37,1008,-13,-26,-13
3520,109,-33,1006,-11,-23,-14
3521,160,-15,1008,-9,-4,-10
3522,69,-3,1007,-13,20,-3
3523,-59,-12,1003,-16,30,0
3524,-160,-9,968,-19,20,0
3525,-145,-28,986,-18,-4,-6
3526,-38,-41,1002,-14,-24,-11
3527,99,-31,1001,-10,-25,-13
3528,154,-20,1004,-10,-8,-10
3529,90,-5,1016,-12,18,-4
3530,-35,-4,1004,-14,30,0
3531,-150,-7,973,-18,22,1
3532,-153,-28,987,-18,-1,-4
3533,-64,-37,994,-15,-23,-10
3534,84,-28,1010,-12,-27,-12
3535,152,-22,1005,-10,-12,-11
3536,109,-13,1006,-10,11,-5
3537,-8,0,1000,-15,27,-1
3538,-136,-2,990,-19,27,2
3539,-161,-26,989,-19,5,-4
3540,-91,-37,976,-17,-20,-8
3541,66,-28,1010,-10,-29,-12
3542,143,-27,1012,-9,-15,-12
3543,129,-15,1006,-11,8,-6
3544,15,-1,993,-14,25,0
3545,-124,-1,989,-18,27,4
3546,-166,-27,990,-19,8,-2
3547,-110,-32,985,-17,-15,-7
3548,40,-32,1005,-13,-29,-13
3549,129,-32,1015,-10,-19,-13
3550,148,-11,1004,-8,2,-7
3551,36,-1,998,-13,25,-2
3552,-102,-9,998,-18,31,1
3553,-167,-22,973,-19,14,-2
3554,-123,-27,983,-18,-12,-7
3555,10,-38,1014,-14,-30,-12
3556,118,-33,1006,-11,-23,-13
3557,153,-16,1006,-12,-1,-8
3558,59,-1,1007,-12,23,-1
3559,-76,-9,1001,-16,28,2
3560,-160,-14,966,-18,15,-1
3561,-140,-23,989,-17,-8,-6
3562,-19,-38,1002,-14,-27,-11
3563,107,-32,1006,-10,-24,-12
3564,156,-13,1008,-9,-7,-9
3565,77,-8,1011,-12,19,-3
3566,-49,-11,1002,-14,31,0
3567,-159,-9,968,-18,21,2
3568,-150,-23,991,-18,-3,-4
3569,-46,-38,996,-15,-24,-11
3570,92,-28,1005,-11,-28,-12
3571,161,-24,1006,-11,-12,-11
3572,97,-9,1009,-12,15,-2
3573,-21,-7,1001,-15,29,0
3574,-150,-6,984,-18,24,2
3575,-155,-27,986,-17,0,-4
3576,-77,-37,990,-16,-19,-9
3577,77,-27,1009,-13,-27,-14
3578,151,-23,1011,-9,-15,-13
3579,122,-15,998,-10,10,-5
3580,-3,0,1001,-13,27,0
3581,-132,-4,990,-18,28,1
3582,-163,-26,988,-20,7,-2
3583,-99,-34,978,-16,-18,-8
3584,55,-30,1009,-10,-29,-13
3585,141,-27,1015,-10,-18,-11
3586,137,-13,1005,-11,7,-6
3587,26,-1,995,-15,27,-2
3588,-117,-8,991,-17,29,2
3589,-169,-23,983,-18,9,-2
3590,-117,-26,988,-16,-12,-7
3591,31,-32,1007,-12,-29,-13
3592,127,-32,1010,-10,-20,-13
3593,151,-12,1003,-9,0,-7
3594,45,-2,1001,-14,24,0
3595,-91,-13,1000,-17,31,2
3596,-173,-18,970,-19,14,-1
3597,-127,-25,985,-17,-10,-7
3598,3,-38,1013,-13,-28,-12
3599,112,-30,1003,-10,-23,-12
3600,157,-14,1010,-11,-4,-8
3601,61,-6,1008,-13,22,-1
3602,-69,-8,995,-16,30,3
3603,-160,-16,968,-21,17,0
3604,-143,-27,990,-18,-5,-6
3605,-22,-37,1001,-14,-25,-10
3606,104,-31,1004,-8,-25,-14
3607,159,-18,1010,-9,-9,-11
3608,80,-2,1011,-13,19,-1
3609,-45,-9,1007,-16,31,1
3610,-154,-10,966,-19,22,1
3611,-152,-26,990,-16,-2,-5
3612,-56,-37,993,-15,-24,-11
3613,93,-30,1009,-11,-28,-14
3614,154,-23,1006,-10,-11,-10
3615,102,-10,1004,-11,14,-3
3616,-22,-8,1007,-15,28,-1
3617,-145,-4,978,-17,23,2
3618,-159,-26,990,-19,2,-5
3619,-81,-37,985,-16,-20,-9
3620,74,-28,1008,-11,-28,-12
3621,152,-25,1011,-10,-15,-11
3622,119,-15,1001,-12,9,-4
3623,7,-4,997,-15,28,0
3624,-134,-2,993,-17,28,3
3625,-163,-25,987,-19,6,-3
3626,-103,-32,983,-15,-17,-7
3627,51,-25,1007,-10,-29,-12
3628,134,-31,1013,-12,-18,-12
3629,140,-15,1010,-10,4,-6
3630,30,-4,988,-13,26,-2
3631,-113,-7,996,-18,29,2
3632,-170,-27,983,-20,11,-1
3633,-119,-26,985,-16,-11,-7
3634,25,-30,1010,-15,-28,-12
3635,121,-28,1007,-10,-22,-13
3636,154,-14,1005,-10,0,-7
3637,46,-5,1002,-14,24,-1
3638,-91,-10,1001,-15,31,1
3639,-168,-17,965,-20,14,-1
3640,-130,-24,982,-17,-8,-5
3641,-2,-37,1011,-12,-29,-11
3642,113,-29,1008,-11,-23,-13
3643,159,-13,1006,-9,-3,-10
3644,63,-3,1010,-13,22,-3
3645,-63,-14,996,-17,30,1
3646,-167,-14,969,-20,18,1
3647,-144,-26,988,-19,-6,-4
3648,-30,-39,1005,-15,-25,-11
3649,104,-29,999,-10,-26,-13
3650,159,-18,1005,-8,-9,-11
3651,84,-5,1016,-11,17,-4
3652,-41,-8,1002,-16,31,1
3653,-155,-7,970,-19,21,2
3654,-152,-28,989,-18,-3,-4
3655,-59,-37,990,-16,-24,-10
3656,92,-30,1010,-11,-27,-14
3657,153,-17,1005,-9,-11,-11
3658,103,-14,1004,-11,13,-4
3659,-15,-5,1008,-15,28,0
3660,-147,-6,980,-19,24,4
3661,-156,-29,986,-18,3,-4
3662,-86,-39,987,-16,-20,-8
3663,72,-24,1004,-11,-29,-12
3664,147,-25,1016,-8,-15,-12
3665,126,-15,1004,-13,9,-5
3666,5,-3,993,-14,28,-1
3667,-127,-3,992,-17,27,1
3668,-170,-27,992,-19,6,-4
3669,-104,-29,975,-16,-17,-9
3670,49,-33,1012,-12,-29,-12
3671,133,-27,1013,-10,-17,-13
3672,142,-15,1004,-10,4,-7
3673,29,-3,996,-14,25,-2
3674,-110,-8,995,-18,28,2
3675,-168,-21,977,-18,12,-2
3676,-118,-27,987,-16,-12,-8
3677,26,-30,1011,-12,-29,-12
3678,119,-29,1006,-11,-20,-13
3679,153,-13,1004,-10,0,-8
3680,50,-6,1001,-14,24,-1
3681,-86,-10,1002,-18,31,2
3682,-167,-18,966,-18,16,-1
3683,-131,-21,987,-15,-9,-5
3684,-5,-37,1010,-13,-26,-11
3685,111,-28,1008,-10,-23,-13
3686,157,-15,1005,-9,-4,-10
3687,64,-3,1008,-11,21,-3
3688,-58,-14,1002,-16,29,1
3689,-161,-14,967,-19,20,1
3690,-142,-28,991,-18,-4,-6
3691,-35,-36,1001,-14,-25,-10
3692,100,-26,998,-10,-27,-13
3693,155,-17,1010,-9,-10,-10
3694,85,-7,1013,-13,17,-3
3695,-37,-7,1002,-17,30,0
3696,-154,-8,973,-19,22,2
3697,-153,-28,983,-17,-1,-4
3698,-61,-41,995,-14,-22,-10
3699,87,-28,1007,-12,-27,-12
3700,155,-24,1005,-10,-11,-11
3701,104,-9,1004,-10,13,-3
3702,-12,-4,1004,-15,27,1
3703,-142,-2,986,-19,26,2
3704,-159,-32,986,-19,4,-3
3705,-85,-39,983,-16,-20,-9
3706,68,-25,1006,-10,-30,-13
3707,147,-26,1012,-9,-16,-13
3708,126,-13,1006,-12,8,-6
3709,10,-2,993,-15,28,-1
3710,-128,-1,992,-20,26,1
3711,-168,-27,989,-19,5,-4
3712,-102,-35,981,-16,-16,-7
3713,44,-32,1007,-12,-28,-12
3714,133,-32,1015,-9,-18,-14
3715,148,-11,1006,-10,3,-5
3716,33,0,994,-15,26,0
3717,-108,-6,995,-17,28,2
3718,-171,-23,980,-19,12,-2
3719,-120,-28,981,-16,-12,-6
3720,22,-36,1015,-12,-29,-13
3721,118,-31,1006,-10,-22,-12
3722,154,-12,1005,-9,-1,-7
3723,53,-1,1004,-14,23,-1
3724,-84,-10,1004,-18,30,3
3725,-164,-14,963,-19,14,-1
3726,-136,-25,990,-17,-9,-6
3727,-9,-39,1007,-13,-28,-10
3728,114,-31,1009,-9,-23,-12
3729,159,-14,1007,-9,-6,-8
3730,71,-4,1008,-11,20,-3
3731,-62,-11,1000,-16,29,1
3732,-160,-9,970,-18,20,0
3733,-144,-27,988,-18,-3,-4
3734,-40,-38,998,-15,-24,-11
3735,102,-29,1002,-10,-27,-14
3736,157,-20,1008,-9,-9,-11
3737,87,-5,1010,-12,17,-3
3738,-35,-5,1006,-16,29,0
3739,-151,-6,971,-18,23,1
3740,-157,-23,985,-18,0,-5
3741,-61,-37,993,-15,-22,-10
3742,83,-29,1011,-11,-26,-12
3743,152,-24,1000,-11,-12,-11
3744,110,-15,1005,-10,12,-5
3745,-13,-4,1001,-14,27,-1
3746,-137,-1,988,-19,26,3
3747,-159,-29,988,-18,4,-4
3748,-94,-36,977,-16,-19,-8
3749,68,-28,1012,-12,-30,-15
3750,142,-30,1012,-11,-16,-13
3751,128,-16,1003,-10,8,-5
3752,15,-5,994,-14,27,-2
3753,-124,-2,992,-15,27,3
3754,-165,-22,986,-18,7,-2
3755,-105,-31,987,-16,-15,-10
3756,43,-30,1007,-13,-28,-13
3757,133,-30,1010,-12,-19,-13
3758,145,-18,1002,-9,3,-7
3759,35,-2,1002,-11,23,-1
3760,-101,-10,994,-18,30,3
3761,-172,-21,977,-18,13,-1
3762,-120,-21,983,-15,-12,-7
3763,12,-34,1013,-13,-29,-13
3764,117,-28,1006,-11,-22,-13
3765,155,-14,1011,-10,-1,-8
3766,55,-7,999,-13,23,-1
3767,-80,-11,1001,-15,29,2
3768,-160,-17,969,-18,14,-1
3769,-144,-25,987,-16,-8,-6
3770,-9,-37,1006,-13,-27,-13
3771,104,-30,1009,-10,-22,-13
3772,160,-13,1003,-9,-6,-9
3773,73,-5,1016,-12,20,-1
3774,-52,-12,999,-16,29,0
3775,-158,-12,968,-19,20,0
3776,-145,-28,991,-17,-3,-6
3777,-45,-35,996,-14,-24,-10
3778,99,-27,1003,-10,-28,-13
3779,154,-21,1010,-9,-10,-10
3780,94,-8,1008,-12,16,-2
3781,-28,-6,1006,-16,29,0
3782,-147,-9,974,-20,23,2
3783,-156,-28,988,-18,1,-4
3784,-71,-34,988,-15,-22,-10
3785,81,-30,1011,-12,-28,-13
3786,151,-24,1008,-10,-14,-11
3787,112,-12,1001,-8,12,-5
3788,-4,-2,1000,-15,28,0
3789,-136,-4,991,-20,26,3
3790,-160,-27,991,-19,5,-4
3791,-95,-38,977,-16,-19,-9
3792,61,-27,1009,-11,-30,-13
3793,140,-30,1014,-11,-16,-11
3794,134,-10,1008,-11,8,-4
3795,18,-3,992,-15,27,1
3796,-120,-7,989,-18,28,3
3797,-166,-24,989,-19,9,-2
3798,-107,-28,981,-16,-15,-7
3799,36,-32,1011,-12,-28,-12
3800,126,-30,1009,-10,-19,-12
3801,144,-10,1001,-11,2,-7
3802,44,-2,1000,-14,23,-3
3803,-99,-10,1000,-19,30,2
3804,-166,-20,968,-18,12,-3
3805,-121,-27,984,-17,-11,-7
3806,7,-37,1012,-13,-29,-12
3807,114,-29,1005,-10,-22,-13
3808,156,-13,1008,-9,-1,-10
3809,57,0,1005,-12,23,-2
3810,-72,-9,1000,-18,30,1
3811,-165,-16,969,-18,16,0
3812,-137,-26,985,-17,-8,-6
3813,-18,-41,1007,-13,-27,-12
3814,104,-29,1002,-11,-24,-12
3815,159,-18,1009,-9,-8,-9
3816,79,-4,1014,-11,19,-2
3817,-50,-5,1002,-16,30,1
3818,-155,-8,968,-19,21,1
3819,-153,-25,989,-19,-4,-4
3820,-45,-36,993,-17,-26,-11
3821,92,-31,1011,-10,-27,-13
3822,154,-19,999,-11,-10,-9
3823,95,-11,1010,-13,15,-2
3824,-22,-6,1005,-13,29,0
3825,-148,-8,981,-19,25,2
3826,-151,-26,986,-18,1,-5
3827,-85,-37,987,-15,-20,-8
3828,81,-26,1010,-12,-29,-13
3829,145,-28,1012,-11,-13,-11
3830,114,-12,1002,-12,10,-5
3831,1,-6,999,-15,27,-1
3832,-131,-4,991,-17,26,1
3833,-164,-24,989,-19,6,-4
3834,-96,-31,982,-16,-18,-10
3835,53,-27,1008,-11,-29,-12
3836,135,-29,1011,-11,-16,-12
3837,135,-15,1009,-12,6,-6
3838,28,-4,990,-14,25,-2
3839,-115,-9,991,-17,28,2
3840,-165,-26,985,-18,10,-2
3841,-114,-25,982,-15,-13,-6
3842,25,-31,1011,-12,-29,-12
3843,120,-30,1009,-10,-21,-12
3844,146,-13,1005,-10,0,-7
3845,52,-6,998,-14,23,-3
3846,-88,-12,1002,-15,30,1
3847,-167,-19,966,-17,15,-2
3848,-128,-23,985,-16,-8,-6
3849,-3,-34,1012,-12,-26,-12
3850,109,-29,1007,-13,-23,-13
3851,156,-15,1010,-12,-4,-10
3852,65,-10,1004,-14,20,-3
3853,-64,-11,998,-16,28,1
3854,-161,-17,970,-19,17,0
3855,-143,-23,988,-18,-4,-5
3856,-31,-35,996,-15,-25,-11
3857,99,-29,1004,-11,-26,-12
3858,157,-17,1008,-10,-8,-9
3859,86,-7,1014,-11,18,-3
3860,-37,-11,1006,-16,30,0
3861,-152,-12,971,-19,23,1
3862,-150,-27,988,-16,-1,-4
3863,-60,-37,995,-16,-22,-10
3864,89,-24,1015,-12,-27,-13
3865,151,-21,1000,-12,-10,-10
3866,102,-11,1008,-11,14,-3
3867,-14,-9,1004,-16,27,0
3868,-141,-9,983,-19,26,1
3869,-159,-25,988,-18,4,-3
3870,-85,-37,984,-17,-19,-9
3871,72,-24,1008,-10,-29,-13
3872,140,-24,1008,-11,-15,-12
3873,122,-14,1008,-12,9,-6
3874,10,-5,992,-15,27,0
3875,-124,-4,988,-17,28,2
3876,-163,-28,991,-18,6,-3
3877,-105,-31,979,-14,-16,-7
3878,49,-30,1009,-12,-28,-12
3879,128,-31,1016,-11,-18,-11
3880,143,-11,1004,-9,3,-6
3881,36,-1,998,-13,25,-1
3882,-109,-10,992,-20,30,3
3883,-169,-21,979,-17,12,-3
3884,-119,-30,988,-17,-12,-8
3885,16,-32,1006,-11,-29,-12
3886,119,-34,1007,-11,-21,-13
3887,151,-10,1007,-9,-1,-7
3888,54,-3,999,-14,23,-1
3889,-86,-11,1005,-16,30,1
3890,-163,-20,966,-19,15,-1
3891,-135,-23,983,-18,-8,-6
3892,-7,-40,1011,-14,-27,-11
3893,107,-31,1006,-10,-23,-13
3894,159,-15,1007,-11,-6,-9
3895,65,-5,1008,-11,18,-2
3896,-55,-7,1004,-18,27,1
3897,-159,-11,966,-20,21,1
3898,-145,-24,989,-18,-3,-5
3899,-38,-40,999,-16,-25,-12
3900,99,-31,1001,-11,-27,-14
3901,154,-24,1007,-9,-10,-10
3902,87,-6,1013,-10,16,-3
3903,-33,-7,1004,-14,29,1
3904,-150,-5,971,-20,23,2
3905,-153,-28,989,-19,-1,-3
3906,-67,-37,992,-16,-23,-10
3907,82,-30,1014,-13,-27,-14
3908,155,-26,1004,-9,-13,-11
3909,107,-14,1003,-10,12,-4
3910,-8,0,1002,-13,28,-1
3911,-139,-3,991,-18,26,1
3912,-163,-26,984,-19,6,-3
3913,-91,-38,981,-14,-19,-10
3914,64,-27,1011,-11,-28,-12
3915,143,-28,1006,-10,-16,-11
3916,130,-15,1011,-11,9,-6
3917,12,-1,992,-14,28,-1
3918,-123,-3,989,-18,29,2
3919,-167,-23,991,-19,8,-3
3920,-113,-27,979,-18,-16,-7
3921,47,-33,1009,-13,-30,-14
3922,128,-32,1016,-11,-18,-13
3923,143,-13,999,-9,2,-7
3924,39,-1,1003,-13,24,-3
3925,-103,-9,996,-16,30,2
3926,-171,-15,976,-20,13,-2
3927,-122,-27,985,-18,-11,-7
3928,10,-33,1011,-12,-29,-11
3929,122,-33,1008,-11,-22,-12
3930,150,-15,1006,-9,-2,-7
3931,61,-3,1004,-14,22,-2
3932,-80,-12,999,-16,30,1
3933,-165,-13,964,-18,15,-1
3934,-137,-25,988,-16,-8,-6
3935,-16,-37,1008,-13,-26,-11
3936,109,-29,1006,-11,-23,-12
3937,158,-17,1006,-10,-6,-9
3938,73,-6,1010,-13,20,-2
3939,-52,-9,1001,-18,30,2
3940,-161,-12,969,-19,22,0
3941,-146,-27,990,-18,-2,-5
3942,-44,-41,995,-15,-25,-11
3943,98,-25,1002,-10,-26,-13
3944,159,-23,1008,-11,-9,-10
3945,93,-5,1011,-13,16,-4
3946,-29,-10,1000,-17,30,0
3947,-148,-7,980,-18,24,1
3948,-156,-28,982,-19,2,-3
3949,-70,-34,990,-15,-19,-9
3950,84,-28,1013,-12,-26,-12
3951,152,-24,1004,-9,-13,-12
3952,115,-11,1001,-10,11,-5
3953,-8,-3,1005,-15,27,-1
3954,-138,-4,985,-18,26,1
3955,-160,-32,989,-18,4,-4
3956,-95,-36,979,-15,-20,-9
3957,63,-25,1012,-9,-30,-12
3958,144,-25,1011,-12,-17,-12
3959,128,-11,1011,-12,8,-6
3960,18,-3,989,-15,27,-1
3961,-124,-8,989,-19,27,2
3962,-166,-27,987,-19,7,-3
3963,-110,-32,986,-15,-14,-9
3964,38,-28,1007,-13,-29,-12
3965,129,-28,1010,-9,-19,-11
3966,149,-11,1004,-10,3,-7
3967,37,-5,998,-12,24,-2
3968,-100,-9,995,-18,29,1
3969,-172,-25,978,-20,13,-1
3970,-125,-26,978,-16,-11,-5
3971,10,-38,1014,-13,-29,-12
3972,118,-29,1010,-10,-23,-13
3973,155,-12,1001,-11,-1,-7
3974,59,-3,1006,-11,23,-2
3975,-80,-11,1001,-16,31,2
3976,-165,-16,966,-20,17,-1
3977,-138,-28,988,-18,-5,-5
3978,-15,-38,1006,-14,-27,-11
3979,109,-30,1004,-10,-25,-13
3980,155,-14,1012,-8,-6,-9
3981,77,-6,1009,-12,19,-3
3982,-52,-15,1003,-15,30,0
3983,-161,-8,967,-17,21,1
3984,-145,-24,992,-19,-4,-5
3985,-46,-35,996,-16,-24,-10
3986,93,-30,1003,-11,-27,-13
3987,156,-20,1008,-11,-11,-12
3988,92,-8,1010,-13,15,-4
3989,-27,-6,1005,-16,29,0
3990,-148,-4,976,-18,24,2
3991,-155,-26,982,-19,1,-4
3992,-71,-38,995,-15,-22,-10
3993,76,-29,1010,-12,-28,-12
3994,152,-24,1006,-10,-14,-12
3995,115,-18,1003,-11,12,-3
3996,-6,0,1000,-13,27,1
3997,-131,-6,992,-18,27,2
3998,-165,-24,988,-19,6,-3
3999,-96,-32,977,-15,-18,-8
4000,62,-29,1010,-11,-28,-14
4001,140,-30,1013,-10,-17,-12
4002,135,-14,1004,-11,7,-6
4003,17,-6,992,-14,28,-1
4004,-120,-1,989,-16,28,3
4005,-167,-24,989,-19,8,-2
4006,-115,-28,984,-17,-14,-7
4007,39,-32,1008,-13,-29,-12
4008,124,-32,1010,-10,-18,-13
4009,146,-11,1004,-9,3,-7
4010,43,-4,999,-13,24,-2
4011,-99,-11,997,-18,30,2
4012,-166,-20,973,-20,13,-2
4013,-127,-23,984,-17,-11,-8
4014,9,-35,1012,-13,-28,-12
4015,113,-31,1006,-11,-21,-13
4016,156,-14,1008,-10,-2,-9
4017,57,-4,1004,-14,24,-1
4018,-72,-13,1000,-18,30,1
4019,-164,-15,968,-17,17,0
4020,-139,-23,987,-18,-7,-5
4021,-17,-39,1005,-13,-26,-12
4022,105,-31,1007,-11,-25,-12
4023,161,-14,1006,-9,-6,-9
4024,77,-3,1009,-10,19,-2
4025,-49,-6,1002,-15,30,1
4026,-160,-11,971,-19,20,0
4027,-150,-27,987,-18,-3,-5
4028,-43,-38,1000,-15,-24,-12
4029,96,-33,1000,-10,-27,-13
4030,156,-19,1007,-9,-9,-10
4031,95,-8,1012,-12,16,-4
4032,-27,-4,1004,-16,29,0
4033,-149,-5,973,-20,24,2
4034,-157,-25,985,-19,1,-4
4035,-72,-41,990,-15,-22,-10
4036,84,-29,1009,-13,-28,-13
4037,154,-26,1003,-11,-12,-11
4038,114,-12,1004,-10,13,-5
4039,-8,-1,1003,-15,28,0
4040,-140,-2,991,-18,27,2
4041,-160,-28,988,-18,6,-3
4042,-94,-35,982,-15,-18,-9
4043,64,-26,1006,-11,-30,-13
4044,145,-29,1014,-11,-17,-12
4045,134,-15,1007,-12,9,-5
4046,13,0,990,-14,28,0
4047,-119,-4,994,-18,27,2
4048,-172,-24,987,-19,8,-2
4049,-111,-28,977,-18,-16,-9
4050,43,-32,1016,-12,-28,-14
4051,126,-33,1007,-10,-17,-12
4052,151,-11,1008,-13,7,-4
4053,41,-5,998,-13,24,-2
4054,-107,-3,994,-16,30,3
4055,-168,-25,977,-16,13,-2
4056,-131,-27,987,-18,-11,-7
4057,18,-34,1005,-14,-30,-13
4058,118,-34,1010,-9,-23,-12
4059,159,-12,1005,-12,-1,-9
4060,55,-3,1003,-12,23,-3
4061,-78,-12,1001,-17,30,2
4062,-172,-18,966,-21,16,0
4063,-137,-26,987,-16,-8,-6
4064,-12,-41,1007,-12,-27,-11
4065,110,-28,1008,-8,-24,-14
4066,162,-14,1007,-10,-6,-10
4067,70,-2,1007,-11,20,-2
4068,-57,-8,1004,-15,29,0
4069,-162,-13,966,-19,19,0
4070,-151,-26,989,-17,-3,-5
4071,-36,-38,1000,-15,-25,-11
4072,98,-28,1003,-10,-27,-14
4073,162,-20,1006,-8,-11,-11
4074,88,-6,1015,-12,16,-3
4075,-31,-5,1005,-16,30,0
4076,-154,-10,972,-18,23,2
4077,-156,-23,986,-18,-1,-4
4078,-65,-39,994,-16,-23,-11
4079,85,-28,1010,-12,-29,-14
4080,158,-24,1005,-11,-14,-11
4081,110,-9,1004,-9,11,-5
4082,-12,-4,1006,-15,27,-1
4083,-140,-5,985,-18,26,1
4084,-160,-31,985,-19,5,-3
4085,-89,-38,984,-15,-19,-9
4086,67,-24,1010,-10,-29,-11
4087,150,-24,1009,-9,-16,-12
4088,126,-14,1008,-11,8,-5
4089,10,-2,991,-16,27,-1
4090,-129,-6,992,-18,27,3
4091,-168,-26,990,-18,6,-3
4092,-109,-34,978,-16,-16,-7
4093,50,-27,1007,-11,-29,-13
4094,133,-30,1014,-11,-18,-13
4095,146,-13,1006,-12,5,-8
4096,32,-1,996,-13,26,-1
4097,-111,-7,989,-17,29,4
4098,-168,-23,984,-19,13,-2
4099,-123,-26,985,-18,-12,-6
4100,23,-34,1010,-13,-30,-13
4101,122,-34,1008,-10,-23,-13
4102,154,-12,1005,-8,-1,-7
4103,53,-3,1004,-15,24,-1
4104,-87,-11,1003,-17,31,2
4105,-168,-16,967,-19,14,0
4106,-136,-25,980,-19,-10,-7
4107,-2,-37,1013,-14,-29,-13
4108,116,-34,1010,-10,-24,-13
4109,161,-12,1004,-9,-5,-10
4110,69,-2,1008,-12,21,-2
4111,-67,-10,1001,-15,30,1
4112,-165,-15,965,-19,19,1
4113,-145,-27,991,-18,-5,-5
4114,-29,-41,1002,-15,-27,-12
4115,106,-30,1002,-9,-25,-13
4116,162,-16,1011,-8,-8,-10
4117,83,-4,1013,-12,18,-3
4118,-42,-6,1004,-17,31,1
4119,-158,-8,966,-19,22,1
4120,-154,-30,989,-18,-2,-5
4121,-56,-42,995,-15,-23,-11
4122,89,-29,1007,-10,-27,-12
4123,160,-19,1006,-10,-12,-11
4124,101,-8,1010,-10,14,-3
4125,-20,-2,1003,-15,28,0
4126,-151,-5,984,-20,23,2
4127,-157,-26,979,-20,3,-4
4128,-83,-41,993,-17,-20,-10
4129,75,-28,1006,-11,-29,-12
4130,151,-26,1008,-8,-15,-11
4131,122,-13,1003,-9,10,-4
4132,1,-2,998,-13,28,0
4133,-131,0,992,-17,28,1
4134,-167,-25,990,-18,7,-3
4135,-102,-35,976,-16,-19,-9
4136,56,-29,1009,-11,-30,-14
4137,140,-30,1013,-11,-18,-12
4138,141,-16,1006,-12,6,-5
4139,25,-3,993,-13,25,-1
4140,-118,-1,987,-16,28,3
4141,-171,-24,988,-19,9,-4
4142,-116,-27,982,-18,-14,-7
4143,30,-34,1011,-13,-29,-12
4144,129,-31,1008,-10,-22,-14
4145,147,-14,1003,-10,1,-7
4146,49,-3,1002,-13,24,-2
4147,-100,-14,997,-18,31,2
4148,-164,-18,969,-18,15,-1
4149,-129,-26,984,-16,-9,-5
4150,6,-33,1010,-14,-29,-13
4151,116,-34,1010,-11,-22,-13
4152,156,-11,1003,-10,-3,-9
4153,63,-6,1007,-15,21,-2
4154,-74,-8,1001,-15,29,0
4155,-162,-17,964,-19,17,0
4156,-147,-22,987,-18,-6,-6
4157,-18,-36,1005,-15,-25,-11
4158,106,-30,1006,-10,-25,-12
4159,158,-12,1005,-9,-7,-10
4160,78,-6,1014,-13,18,-3
4161,-49,-9,1003,-16,30,1
4162,-160,-10,967,-19,23,2
4163,-148,-25,991,-17,-2,-4
4164,-50,-43,995,-16,-24,-10
4165,94,-26,1006,-10,-27,-13
4166,158,-22,1008,-11,-10,-11
4167,97,-6,1009,-12,16,-3
4168,-25,-6,1005,-16,29,0
4169,-150,-6,972,-20,23,0
4170,-157,-29,988,-18,1,-5
4171,-74,-38,990,-15,-21,-11
4172,80,-29,1011,-12,-29,-14
4173,153,-24,1008,-10,-13,-12
4174,113,-10,1003,-10,12,-4
4175,-2,-4,1001,-15,27,-1
4176,-138,-2,993,-18,28,1
4177,-161,-27,984,-20,6,-3
4178,-97,-37,981,-17,-18,-9
4179,63,-27,1009,-11,-29,-14
4180,144,-28,1010,-12,-16,-13
4181,133,-16,1010,-11,7,-7
4182,19,-2,992,-14,26,-1
4183,-121,0,988,-16,27,3
4184,-169,-26,991,-19,8,-2
4185,-112,-30,981,-17,-15,-9
4186,39,-31,1007,-12,-30,-13
4187,130,-32,1008,-11,-20,-12
4188,148,-12,1009,-10,2,-6
4189,41,1,998,-15,25,0
4190,-104,-9,991,-19,31,2
4191,-170,-21,981,-18,13,-2
4192,-124,-33,982,-17,-11,-7
4193,12,-31,1008,-13,-28,-12
4194,121,-31,1010,-9,-23,-13
4195,155,-16,1007,-10,0,-9
4196,60,-2,1000,-13,22,-2
4197,-81,-8,1004,-14,30,1
4198,-168,-17,967,-19,15,-1
4199,-141,-25,985,-16,-8,-6
4200,-11,-40,1008,-14,-28,-12
4201,111,-33,1008,-10,-25,-14
4202,163,-17,1008,-10,-5,-10
4203,76,-4,1006,-13,21,-2
4204,-58,-7,1003,-15,29,1
4205,-162,-8,965,-18,20,2
4206,-148,-25,993,-18,-3,-5
4207,-38,-41,1000,-15,-25,-11
4208,98,-31,1002,-12,-27,-13
4209,163,-24,1008,-11,-10,-11
4210,91,-8,1013,-12,16,-2
4211,-30,-5,1005,-16,30,1
4212,-151,-6,976,-18,23,1
4213,-159,-22,984,-17,-1,-3
4214,-66,-39,993,-16,-21,-10
4215,84,-29,1013,-10,-28,-12
4216,155,-24,997,-12,-12,-10
4217,113,-14,1006,-11,14,-4
4218,-11,-5,1006,-14,29,1
4219,-145,-1,983,-19,25,3
4220,-157,-28,986,-19,2,-5
4221,-91,-36,983,-16,-19,-8
4222,69,-26,1006,-12,-30,-13
4223,150,-27,1014,-8,-16,-13
4224,128,-18,1000,-11,9,-5
4225,12,0,994,-14,28,-1
4226,-130,-4,995,-17,28,2
4227,-165,-23,984,-21,6,-2
4228,-110,-36,982,-17,-16,-7
4229,48,-27,1007,-10,-30,-13
4230,138,-30,1014,-12,-18,-12
4231,145,-14,1006,-9,4,-6
4232,32,-4,995,-14,25,-1
4233,-108,-6,991,-18,29,2
4234,-175,-24,984,-19,12,-1
4235,-120,-25,985,-17,-14,-8
4236,24,-32,1009,-14,-29,-13
4237,124,-29,1007,-9,-22,-13
4238,158,-14,1004,-10,0,-8
4239,50,-2,1002,-13,24,-2
4240,-91,-11,998,-18,31,2
4241,-172,-17,973,-19,15,-2
4242,-134,-23,980,-17,-10,-5
4243,0,-34,1011,-13,-30,-12
4244,117,-28,1010,-9,-25,-15
4245,155,-11,1006,-10,-4,-7
4246,70,-3,1005,-11,21,-2
4247,-70,-12,1003,-16,30,2
4248,-165,-13,964,-19,18,2
4249,-147,-28,991,-17,-5,-5
4250,-27,-38,1001,-14,-26,-11
4251,107,-27,1003,-10,-26,-13
4252,164,-15,1008,-8,-10,-11
4253,81,-4,1010,-13,17,-2
4254,-45,-10,1006,-17,30,1
4255,-162,-12,969,-19,22,0
4256,-152,-24,985,-16,-3,-6
4257,-52,-40,998,-16,-24,-11
4258,93,-26,1003,-10,-29,-13
4259,163,-19,1008,-10,-13,-11
4260,102,-8,1008,-11,16,-3
4261,-23,-4,1009,-14,30,1
4262,-152,-3,978,-20,25,1
4263,-164,-30,985,-18,2,-3
4264,-77,-37,989,-15,-21,-10
4265,78,-32,1011,-11,-27,-13
4266,155,-24,1006,-10,-14,-12
4267,119,-11,1003,-9,11,-4
4268,-3,-3,1002,-15,29,0
4269,-135,-3,988,-18,28,2
4270,-163,-27,989,-19,5,-3
4271,-100,-38,977,-16,-19,-8
4272,58,-29,1008,-11,-30,-13
4273,143,-29,1016,-11,-17,-13
4274,137,-10,1008,-12,6,-6
4275,22,-1,994,-15,27,-2
4276,-121,-5,988,-18,28,3
4277,-172,-25,989,-20,9,-2
4278,-114,-31,984,-17,-16,-8
4279,36,-33,1011,-12,-29,-13
4280,128,-28,1010,-10,-20,-14
4281,147,-12,1003,-9,1,-8
4282,42,-1,1001,-13,24,-2
4283,-100,-7,997,-17,30,3
4284,-170,-23,976,-20,14,-1
4285,-128,-25,982,-16,-10,-6
4286,10,-35,1012,-13,-29,-11
4287,118,-34,1009,-9,-22,-13
4288,160,-11,1006,-9,-2,-9
4289,62,-4,1004,-12,23,-3
4290,-77,-7,1001,-15,30,2
4291,-164,-19,966,-20,16,0
4292,-143,-23,987,-17,-7,-5
4293,-12,-38,1007,-15,-26,-11
4294,104,-30,1008,-10,-23,-13
4295,159,-17,1005,-10,-5,-9
4296,76,-3,1010,-12,19,-2
4297,-54,-9,1002,-17,30,1
4298,-160,-8,968,-19,21,1
4299,-148,-27,991,-19,-2,-5
4300,-46,-40,993,-16,-25,-11
4301,97,-30,1002,-11,-28,-13
4302,158,-21,1007,-10,-11,-12
4303,94,-7,1011,-13,15,-4
4304,-29,-2,1005,-15,29,0
4305,-152,-6,973,-20,23,2
4306,-159,-24,986,-19,1,-4
4307,-69,-39,991,-16,-21,-10
4308,80,-30,1009,-11,-29,-13
4309,158,-23,1004,-10,-15,-11
4310,115,-14,1002,-10,10,-4
4311,-10,0,1004,-13,27,1
4312,-139,-3,989,-19,27,3
4313,-164,-27,987,-18,7,-2
4314,-98,-34,981,-16,-18,-7
4315,67,-26,1012,-11,-30,-12
4316,148,-32,1011,-11,-17,-11
4317,133,-15,1003,-10,8,-5
4318,16,-3,996,-12,27,-1
4319,-127,-3,989,-17,30,2
4320,-167,-23,987,-19,7,-3
4321,-113,-32,981,-16,-16,-7
4322,44,-32,1008,-13,-30,-12
4323,131,-33,1014,-9,-18,-14
4324,144,-14,1002,-9,4,-7
4325,39,-1,999,-13,25,-1
4326,-105,-8,994,-18,29,3
4327,-172,-23,980,-19,12,-1
4328,-124,-25,984,-16,-11,-6
4329,18,-36,1011,-14,-29,-12
4330,120,-30,1008,-11,-23,-12
4331,153,-14,1005,-9,-2,-7
4332,59,-3,1002,-14,23,-2
4333,-86,-11,1003,-17,30,3
4334,-167,-17,964,-20,15,-1
4335,-139,-25,981,-17,-8,-4
4336,-10,-33,1009,-13,-28,-12
4337,112,-30,1009,-12,-25,-14
4338,161,-13,1005,-11,-5,-10
4339,74,-1,1007,-11,21,-3
4340,-62,-10,1003,-16,31,1
4341,-166,-13,967,-20,19,2
4342,-149,-26,991,-18,-6,-4
4343,-37,-41,1001,-16,-26,-11
4344,101,-30,998,-10,-28,-12
4345,163,-18,1008,-11,-9,-11
4346,86,-3,1012,-12,18,-3
4347,-34,-11,1005,-16,29,1
4348,-159,-8,969,-18,22,1
4349,-156,-25,985,-17,-1,-5
4350,-60,-39,995,-14,-23,-11
4351,87,-25,1004,-10,-28,-14
4352,163,-23,1009,-11,-12,-12
4353,107,-7,1005,-11,15,-4
4354,-19,-6,1002,-15,30,-1
4355,-143,-5,985,-18,25,1
4356,-166,-29,984,-19,5,-3
4357,-83,-36,985,-14,-20,-10
4358,72,-29,1012,-8,-30,-13
4359,152,-22,1007,-10,-16,-11
4360,125,-13,1002,-10,10,-4
4361,3,-2,997,-14,29,0
4362,-132,-3,989,-19,28,2
4363,-165,-28,993,-18,7,-3
4364,-104,-36,976,-16,-19,-7
4365,53,-27,1012,-9,-30,-13
4366,139,-29,1012,-9,-18,-13
4367,139,-10,1008,-12,6,-5
4368,29,-3,993,-15,25,-1
4369,-115,-6,991,-19,29,3
4370,-169,-26,984,-21,10,-2
4371,-117,-27,984,-15,-12,-7
4372,33,-31,1007,-13,-29,-13
4373,123,-29,1010,-8,-21,-13
4374,153,-11,1004,-8,1,-7
4375,46,-6,1003,-14,25,-1
4376,-94,-8,998,-17,32,2
4377,-172,-21,972,-20,15,-2
