sequence,AccelerometerX,AccelerometerY,AccelerometerZ,GyroscopeX,GyroscopeY,GyroscopeZ
0,114,44,998,-8,22,-1
1,-81,32,999,-17,32,4
2,-199,10,993,-14,16,1
3,-193,0,966,-13,-10,-3
4,-14,11,998,-11,-28,-10
5,152,13,1022,-10,-26,-13
6,210,28,1006,-10,-3,-8
7,120,40,995,-17,20,0
8,-77,29,1002,-15,32,4
9,-201,11,988,-18,17,1
10,-191,-1,968,-17,-7,-4
11,-21,6,1001,-10,-28,-8
12,146,15,1013,-12,-27,-11
13,216,24,1014,-12,-4,-7
14,122,41,994,-14,21,0
15,-70,32,1004,-16,31,4
16,-200,6,989,-14,17,2
17,-196,3,967,-15,-7,-2
18,-20,9,999,-11,-27,-9
19,140,16,1017,-9,-25,-11
20,216,27,1010,-12,-5,-8
21,126,35,994,-13,22,-1
22,-66,29,1001,-15,33,4
23,-196,8,990,-16,18,1
24,-198,1,968,-12,-6,-3
25,-25,10,996,-11,-28,-9
26,143,16,1022,-13,-26,-10
27,214,30,1010,-12,-5,-8
28,131,40,993,-15,22,-2
29,-66,32,1004,-16,33,4
30,-197,9,988,-16,19,3
31,-197,0,968,-15,-6,-3
32,-30,6,998,-12,-27,-9
33,136,16,1015,-10,-26,-12
34,217,28,1012,-12,-5,-9
35,130,42,994,-12,20,-2
36,-58,33,1000,-16,32,4
37,-197,8,988,-16,20,2
38,-203,0,968,-17,-5,-1
39,-32,2,1000,-11,-28,-9
40,134,15,1019,-12,-26,-11
41,219,29,1011,-12,-6,-8
42,136,43,997,-11,20,-2
43,-53,33,1002,-16,32,3
44,-194,12,987,-17,20,1
45,-207,4,970,-15,-5,-1
46,-34,1,999,-10,-28,-10
47,125,11,1018,-10,-26,-11
48,220,25,1006,-10,-8,-9
49,140,43,1001,-13,20,-3
50,-51,30,999,-18,32,4
51,-195,13,986,-16,20,1
52,-206,4,972,-15,-5,-2
53,-41,3,999,-14,-28,-8
54,125,11,1017,-11,-27,-11
55,221,25,1011,-10,-9,-8
56,142,40,1003,-13,17,-3
57,-43,32,1000,-14,32,3
58,-193,15,983,-17,22,3
59,-202,8,972,-15,-4,-2
60,-49,-1,998,-12,-26,-8
61,121,16,1014,-11,-26,-10
62,221,22,1013,-11,-8,-8
63,147,40,1000,-13,19,-1
64,-40,29,1002,-15,31,3
65,-192,13,985,-16,21,1
66,-206,5,972,-17,-4,-2
67,-53,3,1003,-13,-26,-8
68,119,14,1015,-11,-28,-10
69,218,24,1008,-12,-9,-8
70,149,41,1001,-13,18,-2
71,-39,30,1006,-18,32,4
72,-187,14,981,-15,22,2
73,-206,2,966,-16,-4,-2
74,-57,5,1004,-14,-27,-8
75,111,12,1015,-12,-28,-11
76,222,31,1007,-11,-9,-9
77,148,36,1001,-15,16,-1
78,-35,32,1006,-16,32,4
79,-182,10,979,-17,22,1
80,-210,2,969,-15,-2,-2
81,-60,5,1004,-13,-28,-8
82,110,10,1014,-12,-28,-11
83,222,32,1006,-9,-9,-10
84,150,40,1003,-16,16,-1
85,-30,35,1008,-15,32,2
86,-185,6,977,-17,22,2
87,-208,6,968,-15,-2,-2
88,-63,0,1003,-13,-26,-8
89,104,11,1017,-9,-27,-11
90,221,32,1001,-8,-10,-8
91,151,45,1005,-11,16,-1
92,-29,32,1012,-15,31,3
93,-181,12,975,-17,22,2
94,-210,4,971,-15,-1,-1
95,-67,-2,1000,-12,-27,-9
96,102,10,1018,-10,-28,-11
97,220,32,1002,-9,-10,-9
98,156,42,1005,-12,16,-2
99,-23,31,1013,-15,32,4
100,-180,15,974,-16,23,3
101,-210,7,970,-17,0,-3
102,-71,-2,1003,-13,-23,-8
103,98,8,1012,-11,-28,-11
104,221,30,1006,-11,-11,-9
105,161,40,1006,-14,16,-3
106,-19,32,1013,-15,33,5
107,-178,15,979,-17,23,3
108,-206,5,966,-15,0,-1
109,-77,-2,1003,-13,-25,-9
110,97,8,1016,-11,-29,-11
111,219,33,1005,-10,-12,-9
112,162,42,1004,-15,15,-3
113,-16,31,1014,-18,31,4
114,-172,12,976,-17,24,2
115,-211,3,967,-15,1,-1
116,-83,-1,998,-12,-24,-7
117,93,8,1020,-8,-29,-11
118,215,33,1004,-9,-13,-9
119,165,41,1002,-14,15,-3
120,-10,34,1022,-17,31,2
121,-174,14,973,-18,24,4
122,-211,6,966,-15,2,-1
123,-84,-6,1000,-15,-24,-8
124,87,7,1014,-11,-28,-11
125,222,32,1008,-10,-13,-10
126,167,42,1005,-14,15,-2
127,-5,39,1012,-14,31,2
128,-171,14,980,-19,24,2
129,-212,6,964,-16,4,0
130,-88,-6,994,-13,-24,-8
131,86,5,1018,-10,-29,-10
132,217,30,1006,-11,-14,-8
133,168,41,1005,-13,14,-1
134,-1,29,1015,-16,31,2
135,-170,17,979,-18,25,2
136,-212,10,968,-16,2,-1
137,-95,-2,994,-14,-24,-7
138,87,8,1017,-12,-29,-9
139,218,27,1009,-10,-13,-8
140,169,37,1003,-15,14,-3
141,2,32,1014,-14,29,2
142,-168,21,976,-17,25,3
143,-215,9,968,-13,2,-1
144,-98,-1,991,-13,-23,-6
145,82,7,1016,-12,-28,-11
146,219,26,1013,-11,-14,-10
147,172,41,1003,-14,13,-2
148,6,30,1013,-15,31,2
149,-167,19,979,-15,26,2
150,-213,8,967,-15,4,0
151,-100,-1,994,-11,-22,-7
152,78,7,1015,-13,-30,-10
153,218,28,1010,-12,-16,-10
154,176,37,1007,-13,13,-3
155,9,29,1009,-16,31,3
156,-162,21,980,-16,26,2
157,-218,11,967,-15,6,-1
158,-104,-1,994,-15,-22,-7
159,76,7,1011,-11,-29,-10
160,214,30,1011,-14,-15,-11
161,177,36,1008,-14,12,-3
162,15,30,1006,-15,30,3
163,-163,19,983,-15,26,3
164,-214,6,972,-15,4,0
165,-112,-3,988,-12,-21,-6
166,78,13,1012,-13,-29,-9
167,215,27,1017,-11,-16,-9
168,176,39,1003,-13,11,-4
169,25,27,1012,-15,28,2
170,-158,20,979,-15,27,3
171,-214,6,973,-14,6,0
172,-114,-3,989,-12,-21,-6
173,66,11,1011,-12,-28,-9
174,212,29,1015,-13,-17,-11
175,179,37,1008,-14,11,-4
176,26,34,1005,-14,30,2
177,-150,20,982,-16,28,2
178,-218,7,974,-13,7,-1
179,-115,-3,987,-14,-20,-7
180,64,9,1011,-11,-29,-10
181,206,30,1010,-12,-17,-10
182,183,36,1013,-12,10,-4
183,31,36,1008,-13,29,2
184,-148,19,980,-17,27,3
185,-211,5,978,-13,7,-1
186,-128,-7,983,-14,-20,-5
187,62,10,1006,-13,-31,-11
188,204,28,1016,-11,-17,-11
189,183,39,1008,-14,9,-4
190,38,30,1007,-15,29,1
191,-148,21,980,-16,28,2
192,-214,5,980,-18,7,0
193,-123,-6,982,-13,-20,-6
194,58,8,1006,-11,-31,-9
195,204,30,1016,-10,-19,-9
196,187,38,1011,-13,8,-3
197,36,33,1004,-15,29,1
198,-144,28,982,-16,28,4
199,-213,4,982,-16,8,0
200,-132,-9,978,-13,-18,-7
201,57,5,1005,-9,-29,-10
202,206,25,1015,-10,-19,-10
203,184,35,1008,-11,9,-3
204,45,36,1009,-14,29,1
205,-144,28,983,-14,29,3
206,-211,9,976,-15,6,1
207,-137,-8,982,-15,-18,-5
208,52,8,1003,-11,-31,-11
209,203,24,1011,-10,-19,-12
210,188,35,1013,-11,9,-4
211,51,36,1010,-14,27,1
212,-135,25,982,-16,28,3
213,-216,11,978,-15,9,1
214,-139,-4,983,-16,-19,-6
215,50,7,1002,-13,-30,-9
216,197,27,1013,-11,-19,-11
217,193,33,1012,-12,9,-5
218,54,31,1016,-14,29,1
219,-134,27,980,-14,29,3
220,-213,7,982,-15,9,0
221,-145,-3,981,-15,-18,-6
222,43,7,1003,-11,-29,-9
223,197,25,1008,-14,-20,-11
224,189,34,1018,-12,7,-5
225,61,33,1011,-15,26,1
226,-130,24,983,-17,29,2
227,-214,10,979,-14,9,1
228,-149,-7,978,-15,-18,-5
229,41,9,1003,-11,-30,-11
230,191,24,1010,-10,-20,-10
231,194,34,1011,-13,5,-6
232,61,34,1015,-16,27,1
233,-131,29,982,-18,29,4
234,-212,6,980,-17,10,1
235,-151,-6,980,-14,-17,-5
236,34,7,1001,-11,-30,-8
237,195,24,1011,-11,-20,-12
238,197,31,1014,-13,5,-5
239,68,37,1011,-15,25,1
240,-129,31,987,-16,31,4
241,-212,5,977,-16,10,1
242,-157,-7,980,-15,-16,-5
243,33,9,1002,-13,-30,-10
244,192,22,1013,-10,-20,-11
245,194,34,1009,-11,6,-5
246,70,38,1014,-14,26,1
247,-119,31,990,-16,31,3
248,-210,9,976,-16,12,2
249,-159,-5,980,-14,-16,-5
250,29,5,1007,-13,-30,-10
251,185,23,1003,-10,-23,-10
252,202,34,1011,-11,4,-6
253,73,36,1016,-15,25,1
254,-119,33,989,-15,31,3
255,-208,2,974,-15,12,-1
256,-167,-4,980,-15,-13,-5
257,27,5,1004,-12,-30,-9
258,186,24,1012,-10,-22,-10
259,199,33,1005,-12,4,-4
260,79,39,1017,-14,25,0
261,-117,32,993,-18,31,4
262,-209,5,971,-16,13,1
263,-164,-6,979,-14,-12,-5
264,19,6,1006,-13,-28,-8
265,185,23,1003,-12,-24,-11
266,204,27,1011,-11,3,-4
267,78,42,1012,-15,24,2
268,-110,25,993,-18,29,4
269,-209,7,978,-15,12,1
270,-172,-4,971,-16,-15,-5
271,21,6,1009,-11,-29,-12
272,179,22,1009,-10,-22,-10
273,202,34,1001,-12,2,-5
274,86,40,1017,-13,25,-1
275,-112,30,996,-20,30,3
276,-205,6,971,-18,13,1
277,-170,-11,979,-13,-13,-6
278,17,8,1009,-11,-31,-9
279,177,19,1011,-10,-23,-12
280,207,33,1001,-12,3,-5
281,87,39,1015,-15,24,1
282,-104,32,995,-17,31,2
283,-210,7,981,-17,13,1
284,-172,-2,970,-13,-14,-5
285,10,6,1014,-13,-30,-9
286,177,19,1006,-10,-23,-11
287,206,27,1005,-11,2,-6
288,93,37,1008,-14,26,-1
289,-108,31,1001,-15,32,3
290,-202,8,976,-15,13,0
291,-178,-5,975,-12,-11,-5
292,10,10,1009,-13,-29,-9
293,174,20,1012,-11,-24,-11
294,209,27,998,-11,0,-7
295,93,38,1011,-14,25,0
296,-101,33,1000,-17,31,3
297,-208,5,974,-16,15,1
298,-177,-4,970,-15,-12,-4
299,7,9,1011,-11,-30,-9
300,167,17,1009,-12,-24,-11
301,209,29,1002,-13,0,-5
302,96,38,1007,-13,23,0
303,-99,32,1002,-17,30,3
304,-203,7,981,-15,14,1
305,-184,-4,968,-15,-11,-4
306,4,7,1010,-10,-30,-10
307,169,15,1013,-10,-23,-12
308,210,30,1002,-11,0,-6
309,102,39,1006,-12,24,-1
310,-97,32,1004,-16,31,3
311,-206,10,980,-17,14,1
312,-189,-5,970,-12,-9,-5
313,0,6,1010,-12,-29,-10
314,163,15,1015,-12,-25,-12
315,209,28,998,-12,0,-8
316,106,42,1008,-15,23,0
317,-96,32,1000,-16,33,4
318,-199,11,986,-15,15,2
319,-188,-6,968,-16,-10,-3
320,-3,8,1007,-10,-28,-9
321,166,15,1012,-11,-26,-11
322,209,29,1001,-11,-1,-5
323,113,41,1000,-13,22,-1
324,-85,34,1007,-16,32,3
325,-205,9,983,-18,16,2
326,-187,-3,968,-14,-10,-4
327,-5,5,1004,-12,-28,-10
328,159,16,1014,-12,-25,-11
329,215,27,1004,-12,-3,-8
330,114,41,1000,-12,24,-2
331,-87,35,1005,-16,31,4
332,-202,8,986,-16,16,0
333,-192,-3,970,-16,-9,-3
334,-9,8,997,-12,-29,-8
335,157,16,1020,-11,-25,-12
336,215,26,1001,-12,-3,-7
337,117,41,999,-14,22,-2
338,-83,33,1002,-17,33,4
339,-204,10,991,-16,17,1
340,-192,0,968,-14,-8,-4
341,-17,3,1000,-14,-28,-8
342,156,15,1017,-12,-27,-11
343,214,21,1008,-12,-3,-7
344,118,43,993,-13,23,-1
345,-78,32,1007,-20,32,3
346,-200,10,988,-17,17,1
347,-194,0,965,-14,-7,-2
348,-19,6,999,-15,-29,-10
349,149,15,1023,-9,-25,-12
350,213,26,1005,-14,-3,-7
351,124,40,996,-14,22,-1
352,-73,33,1004,-16,32,4
353,-199,7,989,-19,17,2
354,-196,3,968,-12,-7,-2
355,-22,5,1002,-11,-28,-9
356,145,16,1014,-12,-26,-12
357,217,22,1011,-10,-5,-8
358,131,42,995,-14,20,-1
359,-70,29,1005,-17,33,4
360,-199,10,987,-15,19,2
361,-200,1,966,-14,-7,-3
362,-23,4,996,-12,-28,-8
363,140,12,1023,-10,-26,-11
364,219,28,1009,-14,-4,-7
365,132,39,998,-14,20,-1
366,-62,34,999,-14,33,5
367,-202,10,991,-16,20,3
368,-198,0,969,-16,-6,-2
369,-31,4,996,-12,-28,-7
370,137,13,1015,-11,-27,-11
371,218,26,1017,-12,-6,-9
372,132,44,995,-13,20,-1
373,-59,33,1000,-15,33,3
374,-195,10,991,-17,19,2
375,-203,0,966,-16,-5,-2
376,-32,5,998,-12,-29,-9
377,134,16,1019,-11,-26,-11
378,217,29,1011,-11,-6,-8
379,137,42,997,-16,20,-1
380,-58,31,1001,-15,33,4
381,-198,10,990,-16,20,3
382,-201,1,969,-16,-5,-3
383,-41,2,1000,-12,-27,-9
384,132,14,1015,-12,-27,-12
385,219,26,1014,-9,-6,-9
386,136,43,996,-14,19,-1
387,-53,30,1000,-16,32,2
388,-195,15,990,-15,20,0
389,-202,0,968,-18,-5,-3
390,-40,5,999,-11,-28,-9
391,131,11,1018,-10,-27,-11
392,221,29,1009,-10,-7,-8
393,137,39,995,-12,19,-2
394,-48,33,1003,-14,34,4
395,-192,10,985,-16,21,2
396,-203,6,969,-14,-3,-2
397,-41,1,1003,-13,-28,-9
398,123,14,1012,-10,-26,-11
399,219,29,1010,-12,-7,-7
400,141,42,1003,-15,18,-1
401,-46,30,999,-15,33,3
402,-187,10,983,-14,20,1
403,-205,2,969,-15,-3,-3
404,-45,3,1004,-12,-28,-8
405,125,11,1016,-12,-27,-11
406,218,27,1010,-10,-8,-8
407,148,40,1002,-14,17,-2
408,-42,31,1002,-17,32,3
409,-187,12,982,-17,21,3
410,-205,4,973,-17,-3,-2
411,-51,1,1000,-14,-26,-8
412,117,11,1013,-13,-26,-12
413,218,27,1009,-12,-8,-9
414,146,36,1003,-12,17,-2
415,-35,32,1004,-16,31,4
416,-190,11,981,-15,22,2
417,-205,8,970,-16,-3,-1
418,-57,1,1003,-14,-27,-8
419,112,10,1013,-9,-28,-10
420,220,31,1009,-13,-10,-9
421,150,39,1004,-13,18,-1
422,-38,33,1002,-14,33,4
423,-187,14,982,-17,21,1
424,-207,3,972,-15,-1,-2
425,-57,-1,997,-11,-25,-7
426,111,11,1016,-10,-27,-11
427,223,30,1007,-10,-9,-9
428,150,41,1002,-16,17,-2
429,-33,34,1006,-15,31,3
430,-186,12,981,-18,21,1
431,-210,4,966,-16,-1,-2
432,-61,-2,1004,-13,-25,-7
433,109,8,1014,-12,-27,-10
434,220,29,1005,-10,-11,-10
435,155,42,1003,-13,15,-2
436,-31,34,1009,-16,31,3
437,-180,14,977,-16,23,2
438,-210,6,972,-18,-1,-1
439,-63,-3,1000,-14,-27,-8
440,106,9,1018,-11,-28,-11
441,220,28,1001,-10,-11,-8
442,157,39,1005,-13,15,-3
443,-24,31,1011,-15,31,3
444,-180,13,977,-17,22,2
445,-208,7,968,-14,0,-2
446,-70,-1,999,-12,-24,-8
447,100,12,1015,-11,-28,-11
448,223,28,1005,-12,-12,-9
449,155,41,1002,-14,17,-2
450,-19,30,1013,-16,31,3
451,-177,13,976,-18,24,3
452,-212,9,967,-16,0,-1
453,-71,0,1003,-13,-25,-8
454,99,10,1018,-11,-28,-8
455,217,31,1002,-12,-11,-9
456,163,36,1006,-14,16,-3
457,-23,29,1011,-16,30,3
458,-173,14,974,-16,23,2
459,-210,6,969,-16,0,-1
460,-76,2,999,-13,-26,-7
461,100,11,1016,-11,-28,-10
462,216,26,1003,-13,-10,-8
463,159,40,1003,-13,16,-2
464,-9,29,1017,-17,31,2
465,-177,19,975,-15,24,2
466,-205,10,967,-14,1,-1
467,-83,0,1001,-13,-24,-8
468,93,10,1014,-12,-29,-10
469,220,26,1005,-11,-13,-9
470,165,40,1004,-14,14,-3
471,-9,29,1014,-17,31,3
472,-177,18,977,-16,25,2
473,-206,2,967,-15,1,-2
474,-85,1,996,-12,-24,-8
475,97,7,1017,-10,-28,-10
476,219,31,1006,-11,-13,-10
477,166,41,1005,-14,14,-4
478,-6,31,1015,-16,31,3
479,-175,18,978,-16,24,2
480,-207,3,964,-16,2,-1
481,-86,2,999,-11,-24,-8
482,85,4,1017,-13,-29,-10
483,223,32,1006,-11,-14,-9
484,168,40,1005,-15,14,-3
485,-4,31,1011,-16,31,1
486,-172,15,981,-16,24,2
487,-210,6,962,-15,2,0
488,-94,-2,1000,-13,-23,-7
489,87,8,1017,-11,-30,-11
490,218,30,1005,-10,-13,-8
491,169,41,1001,-11,15,-2
492,-2,33,1018,-16,31,4
493,-174,18,974,-15,25,3
494,-210,5,965,-14,2,-2
495,-99,-4,993,-14,-23,-8
496,87,7,1016,-10,-30,-12
497,218,25,1009,-12,-14,-9
498,168,41,1003,-13,14,-4
499,5,31,1015,-14,29,1
500,-169,21,979,-16,24,2
501,-214,9,964,-15,3,0
502,-98,-2,996,-14,-22,-7
503,84,4,1016,-11,-29,-10
504,215,29,1006,-12,-15,-10
505,177,39,1004,-14,14,-4
506,6,30,1013,-11,33,3
507,-169,21,974,-16,26,4
508,-215,7,968,-15,3,0
509,-101,-2,994,-13,-24,-7
510,78,5,1013,-13,-30,-11
511,218,29,1011,-9,-15,-11
512,175,38,1006,-13,12,-4
513,11,32,1008,-14,32,2
514,-168,13,982,-16,27,4
515,-212,13,965,-15,5,0
516,-104,-4,994,-13,-22,-6
517,81,12,1014,-11,-31,-10
518,216,27,1013,-11,-15,-9
519,177,38,1005,-12,12,-5
520,10,28,1013,-15,30,3
521,-160,19,976,-16,26,3
522,-216,7,967,-13,5,0
523,-106,0,993,-11,-22,-6
524,72,8,1012,-13,-30,-10
525,215,29,1014,-10,-17,-10
526,176,35,1002,-12,12,-3
527,16,33,1010,-14,29,2
528,-160,15,981,-16,25,2
529,-216,9,970,-16,4,0
530,-107,-3,991,-15,-21,-7
531,71,8,1014,-10,-29,-9
532,213,29,1011,-12,-17,-9
533,175,39,1006,-13,12,-4
534,20,31,1008,-15,29,3
535,-157,19,980,-14,26,2
536,-215,6,970,-14,4,-1
537,-115,-4,989,-12,-20,-6
538,72,4,1013,-13,-30,-11
539,209,30,1013,-10,-16,-10
540,179,43,1003,-12,11,-3
541,23,31,1010,-15,31,1
542,-157,22,980,-16,28,2
543,-214,6,973,-16,5,0
544,-115,-7,988,-11,-21,-7
545,71,7,1010,-12,-28,-11
546,209,29,1013,-11,-17,-11
547,179,40,1008,-13,11,-5
548,29,33,1008,-16,30,2
549,-156,22,983,-15,27,4
550,-214,9,971,-17,5,1
551,-120,-7,988,-13,-21,-7
552,62,4,1007,-11,-30,-10
553,209,28,1018,-11,-18,-10
554,183,37,1006,-10,10,-4
555,32,33,1008,-14,30,1
556,-148,24,982,-15,28,3
557,-217,10,979,-16,7,1
558,-121,-3,983,-14,-20,-6
559,62,5,1009,-11,-30,-11
560,208,26,1016,-11,-17,-11
561,184,31,1006,-12,11,-4
562,33,34,1009,-14,30,2
563,-149,26,980,-16,27,4
564,-214,9,978,-16,6,0
565,-126,-6,984,-15,-20,-7
566,60,8,1010,-11,-30,-10
567,210,26,1015,-10,-18,-10
568,183,33,1007,-12,10,-4
569,39,34,1009,-14,29,2
570,-148,20,981,-16,29,3
571,-214,12,975,-16,6,0
572,-125,-4,988,-13,-20,-6
573,56,9,1002,-12,-29,-11
574,207,25,1014,-11,-19,-10
575,180,34,1010,-14,9,-4
576,39,32,1008,-14,30,1
577,-144,22,977,-16,28,2
578,-215,11,981,-15,7,0
579,-128,-3,984,-14,-19,-6
580,57,5,1007,-13,-29,-10
581,202,26,1008,-11,-19,-11
582,185,34,1015,-11,9,-5
583,41,33,1006,-12,29,1
584,-147,24,981,-16,28,2
585,-211,8,983,-14,7,0
586,-132,-3,983,-14,-19,-6
587,56,9,1003,-10,-29,-9
588,202,24,1014,-10,-16,-11
589,185,40,1012,-13,9,-3
590,45,32,1008,-15,28,1
591,-140,24,984,-16,28,2
592,-215,9,980,-15,8,0
593,-135,-6,980,-14,-18,-6
594,51,5,1007,-11,-28,-10
595,199,23,1012,-10,-18,-11
596,187,37,1012,-13,7,-3
597,50,32,1009,-15,27,1
598,-140,24,982,-16,28,2
599,-213,5,981,-16,7,-1
600,-139,-4,981,-15,-18,-5
601,52,10,1003,-10,-29,-10
602,197,28,1015,-10,-19,-10
603,190,36,1011,-12,8,-5
604,47,35,1012,-15,28,1
605,-136,30,980,-17,28,3
606,-215,5,980,-17,8,0
607,-139,-8,981,-14,-17,-8
608,47,5,1007,-10,-30,-8
609,199,27,1010,-11,-20,-10
610,188,33,1012,-14,7,-5
611,50,36,1011,-17,27,2
612,-133,25,983,-16,29,3
613,-212,7,980,-15,8,0
614,-144,-2,982,-14,-18,-6
615,46,7,1003,-11,-30,-10
616,198,25,1012,-11,-20,-10
617,192,35,1009,-12,8,-4
618,55,35,1014,-15,28,1
619,-132,26,981,-16,29,4
620,-213,7,977,-16,9,1
621,-144,-7,981,-13,-18,-5
622,44,6,1003,-9,-30,-9
623,198,28,1011,-9,-20,-11
624,192,38,1012,-14,7,-4
625,57,38,1013,-16,27,1
626,-126,24,985,-18,29,4
627,-212,5,978,-16,9,1
628,-145,-10,981,-14,-17,-6
629,44,7,1003,-9,-29,-10
630,195,26,1009,-9,-20,-10
631,194,38,1014,-11,7,-5
632,58,37,1014,-14,28,1
633,-131,29,985,-18,29,4
634,-216,8,980,-15,9,1
635,-154,-9,980,-15,-17,-5
636,41,4,999,-11,-31,-10
637,195,25,1014,-11,-21,-10
638,195,37,1010,-13,5,-6
639,62,36,1018,-15,27,-1
640,-132,31,984,-17,30,5
641,-214,6,980,-17,9,0
642,-151,-10,977,-15,-16,-5
643,37,7,1007,-11,-28,-8
644,194,22,1003,-12,-21,-11
645,195,31,1018,-13,5,-5
646,68,41,1011,-16,26,0
647,-132,32,989,-17,31,3
648,-211,9,974,-15,10,0
649,-158,-9,983,-14,-17,-5
650,36,5,1000,-12,-31,-10
651,189,21,1012,-11,-21,-9
652,201,38,1009,-14,5,-5
653,67,33,1016,-16,26,0
654,-122,30,987,-16,30,3
655,-211,6,977,-17,11,0
656,-155,-5,979,-15,-17,-6
657,28,9,1006,-12,-30,-9
658,191,24,1007,-11,-22,-11
659,197,33,1011,-11,5,-5
660,73,33,1010,-16,26,0
661,-121,30,991,-16,31,4
662,-209,8,974,-16,11,1
663,-158,-5,983,-15,-15,-5
664,29,7,1001,-11,-30,-9
665,188,23,1009,-10,-21,-10
666,198,35,1011,-12,5,-5
667,71,38,1015,-16,26,0
668,-118,31,989,-17,30,3
669,-212,8,977,-16,12,2
670,-162,-2,977,-15,-14,-5
671,30,3,1006,-13,-29,-10
672,189,24,1007,-9,-22,-11
673,199,33,1011,-13,4,-7
674,78,38,1016,-14,25,-1
675,-120,31,990,-16,31,4
676,-210,7,973,-15,13,1
677,-169,-7,980,-14,-14,-5
678,24,13,1005,-11,-31,-9
679,186,18,1008,-11,-22,-10
680,204,32,1009,-5,5,-5
681,77,30,1012,-6,27,1
682,-117,30,994,-17,30,4
683,-213,5,976,-16,12,1
684,-163,-4,978,-11,-14,-4
685,20,12,1007,-15,-30,-9
686,183,23,1007,-11,-22,-11
687,203,29,1009,-12,3,-6
688,77,34,1010,-16,25,1
689,-109,27,999,-15,31,4
690,-205,4,977,-17,14,0
691,-170,-4,975,-14,-14,-5
692,21,11,1009,-11,-30,-9
693,178,27,1008,-12,-22,-11
694,204,31,1004,-12,2,-6
695,84,38,1015,-14,25,0
696,-111,28,995,-16,31,3
697,-207,5,973,-13,13,1
698,-170,-8,977,-13,-13,-4
699,17,10,1010,-10,-29,-9
700,181,24,1005,-11,-23,-12
701,203,32,1006,-14,1,-6
702,84,40,1011,-14,24,1
703,-108,31,995,-19,31,4
704,-206,5,977,-17,13,1
705,-172,-9,974,-14,-13,-4
706,16,6,1007,-11,-30,-9
707,179,20,1009,-10,-22,-12
708,208,33,1002,-11,3,-6
709,85,40,1013,-13,25,0
710,-105,32,997,-16,30,3
711,-207,7,980,-17,14,1
712,-176,-6,968,-15,-13,-5
713,15,4,1018,-11,-30,-10
714,175,19,1005,-10,-24,-10
715,206,32,1004,-10,2,-7
716,87,40,1015,-14,25,0
717,-106,32,996,-16,31,3
718,-204,9,976,-16,13,0
719,-178,-6,974,-15,-12,-5
720,11,8,1011,-14,-30,-9
721,175,16,1006,-12,-24,-10
722,204,31,1004,-11,2,-6
723,93,39,1010,-13,26,-1
724,-104,31,999,-16,31,3
725,-206,9,976,-15,13,1
726,-175,-1,976,-14,-12,-3
727,6,7,1011,-11,-29,-8
728,173,24,1004,-14,-23,-10
729,208,23,1007,-12,1,-7
730,91,39,1009,-12,25,0
731,-98,34,999,-17,31,3
732,-207,10,981,-14,15,1
733,-180,-2,970,-14,-12,-5
734,9,9,1012,-13,-31,-11
735,167,18,1007,-11,-24,-10
736,210,31,1000,-14,0,-5
737,96,35,1013,-14,24,0
738,-103,34,999,-15,33,4
739,-203,6,978,-17,15,0
740,-180,-3,970,-13,-10,-5
741,4,7,1015,-13,-28,-9
742,174,21,1007,-11,-22,-11
743,207,29,1004,-9,1,-5
744,98,43,1008,-14,24,0
745,-101,31,1003,-18,32,4
746,-205,5,976,-16,14,1
747,-181,-9,971,-15,-11,-4
748,5,7,1009,-9,-29,-9
749,168,19,1009,-11,-24,-10
750,209,31,1005,-12,0,-7
751,97,37,1009,-14,24,1
752,-98,35,1002,-16,30,4
753,-200,3,979,-18,14,1
754,-185,-4,973,-15,-10,-4
755,5,8,1009,-10,-30,-10
756,167,17,1011,-11,-25,-10
757,210,34,997,-11,-1,-5
758,98,37,1010,-15,24,0
759,-93,34,1002,-18,31,4
760,-203,8,977,-17,14,2
761,-185,-4,972,-15,-11,-5
762,2,6,1012,-12,-29,-9
763,165,18,1009,-11,-24,-11
764,208,29,999,-11,0,-6
765,104,37,1008,-15,23,0
766,-93,35,1000,-15,31,3
767,-203,7,984,-17,15,2
768,-183,0,970,-14,-11,-3
769,-2,8,1006,-10,-29,-8
770,167,21,1009,-10,-25,-11
771,207,28,1003,-12,0,-5
772,105,43,1004,-12,24,0
773,-93,31,1005,-18,31,3
774,-206,9,982,-15,16,1
775,-184,-5,969,-15,-11,-4
776,0,6,1008,-10,-29,-10
777,163,15,1008,-11,-24,-10
778,213,31,1004,-12,-1,-7
779,103,38,1005,-14,23,0
780,-92,36,1001,-16,31,4
781,-205,10,984,-18,14,2
782,-184,-3,970,-13,-10,-2
783,0,5,1006,-12,-30,-9
784,163,18,1012,-10,-25,-10
785,213,27,1001,-12,-1,-7
786,104,42,1006,-14,24,1
787,-95,36,1000,-18,32,3
788,-202,8,985,-16,14,0
789,-182,-7,968,-14,-11,-5
790,-3,7,1009,-11,-28,-9
791,170,13,1017,-12,-26,-11
792,212,26,997,-10,0,-6
793,104,41,1004,-13,24,0
794,-89,37,1009,-16,31,4
795,-206,11,980,-16,16,1
796,-185,-2,967,-16,-9,-4
797,-3,9,1013,-11,-28,-9
798,161,15,1009,-12,-26,-12
799,215,23,998,-10,-1,-8
800,104,40,1007,-12,23,1
801,-87,36,1004,-19,31,3
802,-205,6,985,-16,15,2
803,-188,0,965,-14,-10,-3
804,-4,4,1011,-12,-30,-9
805,162,15,1012,-12,-26,-12
806,209,27,1000,-12,-3,-6
807,112,43,1007,-14,21,-1
808,-91,33,1003,-17,31,5
809,-204,9,982,-17,15,0
810,-190,-5,970,-14,-9,-3
811,-9,5,1005,-11,-29,-8
812,165,16,1014,-11,-26,-12
813,208,27,1001,-13,-2,-7
814,113,43,999,-14,21,-2
815,-90,35,1009,-17,32,4
816,-205,11,977,-17,14,1
817,-190,-9,973,-15,-9,-4
818,-8,6,1003,-11,-30,-8
819,160,14,1013,-10,-25,-11
820,212,25,1004,-10,-1,-8
821,109,36,1001,-12,24,-1
822,-84,39,1004,-17,31,3
823,-205,10,986,-16,16,2
824,-188,0,967,-14,-9,-3
825,-9,4,1007,-14,-27,-8
826,160,19,1011,-11,-25,-11
827,212,23,1004,-13,-2,-7
828,112,39,999,-13,22,-2
829,-84,34,1004,-16,32,4
830,-200,10,986,-18,17,0
831,-190,-4,965,-12,-9,-3
832,-8,9,1004,-12,-29,-8
833,154,14,1018,-13,-25,-10
834,212,26,999,-12,-1,-7
835,112,36,1001,-14,23,-1
836,-81,36,1008,-16,32,4
837,-200,11,986,-15,17,1
838,-190,-1,967,-13,-9,-3
839,-13,8,1007,-13,-29,-9
840,158,15,1015,-12,-26,-11
841,216,25,1002,-15,-1,-7
842,113,42,1000,-13,23,-1
843,-80,36,1007,-15,31,2
844,-203,7,985,-18,15,2
845,-193,0,967,-15,-8,-3
846,-11,4,1008,-13,-28,-9
847,155,15,1013,-11,-26,-11
848,215,23,1002,-13,-3,-7
849,119,41,1004,-13,22,-1
850,-82,33,1002,-13,31,3
851,-199,13,988,-16,16,1
852,-196,-1,967,-17,-8,-2
853,-13,6,1003,-13,-29,-10
854,153,13,1014,-13,-25,-11
855,212,26,1003,-13,-3,-7
856,118,36,1000,-14,22,-1
857,-80,33,1005,-16,32,3
858,-203,12,988,-15,16,1
859,-194,0,971,-16,-9,-3
860,-19,6,999,-13,-30,-9
861,153,10,1018,-12,-27,-12
862,215,27,1006,-12,-3,-7
863,119,41,997,-14,21,0
864,-77,34,1006,-16,32,4
865,-202,9,989,-17,18,2
866,-198,0,964,-15,-7,-3
867,-16,4,1001,-13,-27,-9
868,150,15,1020,-13,-26,-12
869,213,29,999,-12,-4,-7
870,126,41,1000,-12,21,-2
871,-76,34,1006,-16,33,3
872,-200,9,985,-18,17,1
873,-194,-4,969,-14,-7,-3
874,-21,7,999,-13,-28,-9
875,152,14,1018,-10,-27,-11
876,214,25,1005,-11,-3,-7
877,121,42,995,-11,22,-1
878,-74,36,1007,-15,32,4
879,-199,10,988,-17,17,2
880,-195,0,966,-15,-7,-2
881,-17,6,1006,-11,-29,-10
882,149,15,1016,-12,-28,-11
883,217,26,1003,-12,-5,-7
884,122,38,1000,-13,22,-1
885,-75,35,1008,-15,32,3
886,-194,7,985,-15,18,1
887,-199,-1,969,-15,-7,-2
888,-19,5,1000,-14,-27,-9
889,150,15,1018,-12,-26,-12
890,217,23,1005,-12,-4,-8
891,123,44,997,-14,22,-1
892,-70,33,1005,-17,33,4
893,-202,9,989,-16,18,2
894,-198,1,964,-13,-7,-3
895,-22,5,1001,-11,-30,-9
896,145,13,1016,-12,-27,-10
897,218,26,1006,-11,-4,-7
898,128,38,997,-14,21,-1
899,-73,38,1006,-15,32,5
900,-199,9,986,-17,18,2
901,-200,0,969,-15,-8,-3
902,-20,7,998,-11,-30,-8
903,144,14,1017,-11,-27,-10
904,213,28,1008,-10,-4,-8
905,126,39,996,-12,21,-1
906,-68,32,1004,-15,32,4
907,-200,9,990,-17,18,2
908,-199,1,969,-14,-8,-4
909,-26,6,997,-11,-28,-9
910,143,15,1018,-11,-25,-12
911,216,27,1008,-11,-4,-7
912,126,41,995,-12,21,-2
913,-65,32,1006,-16,33,4
914,-198,9,989,-18,19,3
915,-195,0,967,-16,-7,-2
916,-25,3,999,-11,-28,-9
917,140,15,1013,-12,-25,-10
918,219,25,1011,-11,-5,-8
919,128,41,995,-14,21,-1
920,-67,32,1001,-15,32,4
921,-192,10,995,-16,17,0
922,-200,-1,966,-17,-5,-2
923,-24,8,994,-12,-28,-9
924,143,14,1022,-12,-26,-11
925,214,29,1008,-12,-4,-7
926,130,40,992,-13,21,-2
927,-69,36,1005,-15,32,3
928,-200,6,990,-20,17,2
929,-197,-1,966,-14,-6,-3
930,-30,3,997,-10,-28,-7
931,140,15,1017,-11,-26,-10
932,220,29,1009,-12,-4,-8
933,127,41,994,-15,21,-1
934,-65,36,1007,-16,33,3
935,-195,6,991,-19,18,1
936,-201,-1,965,-15,-5,-3
937,-28,3,998,-10,-28,-10
938,139,13,1022,-10,-25,-12
939,212,28,1007,-11,-5,-7
940,133,46,993,-11,20,0
941,-67,34,1005,-16,32,4
942,-193,14,987,-16,17,1
943,-203,-2,970,-16,-7,-4
944,-30,4,994,-14,-28,-10
945,140,8,1023,-11,-27,-10
946,215,28,1004,-12,-7,-7
947,137,40,998,-14,20,-1
948,-62,34,1005,-16,32,4
949,-200,12,986,-17,18,2
950,-198,1,970,-16,-6,-4
951,-33,6,998,-13,-27,-7
952,139,16,1015,-12,-28,-11
953,213,23,1013,-12,-6,-8
954,133,38,994,-15,20,-1
955,-56,32,1004,-17,31,4
956,-197,9,991,-15,19,2
957,-204,3,965,-14,-6,-2
958,-31,7,996,-12,-27,-8
959,134,12,1018,-10,-25,-9
960,218,29,1012,-12,-6,-7
961,135,38,995,-13,20,-2
962,-58,31,1004,-14,33,5
963,-194,9,988,-16,19,2
964,-203,-1,970,-13,-4,-3
965,-32,6,997,-10,-27,-8
966,132,16,1016,-10,-25,-10
967,219,29,1012,-11,-6,-9
968,133,40,996,-14,20,0
969,-57,36,999,-16,33,3
970,-194,5,992,-17,19,2
971,-202,1,967,-15,-6,-2
972,-36,6,996,-11,-29,-8
973,129,14,1018,-10,-27,-10
974,217,27,1011,-13,-7,-6
975,138,39,992,-12,20,-1
976,-56,30,1001,-17,33,5
977,-194,9,988,-16,20,2
978,-205,0,970,-13,-5,-3
979,-39,5,997,-12,-29,-8
980,131,15,1016,-12,-27,-11
981,218,28,1013,-13,-7,-7
982,139,41,994,-11,19,-1
983,-53,33,1002,-15,32,3
984,-196,7,989,-16,19,1
985,-206,0,968,-15,-5,-2
986,-36,2,999,-12,-27,-8
987,127,17,1021,-10,-27,-10
988,220,28,1010,-10,-8,-8
989,138,43,999,-14,20,-2
990,-52,34,998,-15,32,3
991,-193,10,990,-18,20,3
992,-207,-1,970,-16,-5,-1
993,-42,-1,995,-11,-28,-9
994,129,13,1020,-11,-27,-11
995,219,29,1013,-10,-7,-7
996,143,46,997,-14,18,0
997,-52,38,1001,-16,34,3
998,-198,11,988,-16,20,1
999,-207,0,970,-15,-6,-3
1000,-43,-1,995,-12,-28,-7
1001,130,14,1018,-11,-27,-11
1002,221,27,1013,-13,-7,-8
1003,145,40,996,-12,19,-2
1004,-46,35,1003,-17,32,3
1005,-195,12,987,-17,22,2
1006,-202,5,970,-17,-4,-3
1007,-45,2,997,-12,-27,-8
1008,126,12,1018,-9,-27,-12
1009,223,25,1011,-12,-8,-9
1010,145,40,999,-13,19,-2
1011,-45,32,1000,-15,33,3
1012,-194,13,986,-16,21,0
1013,-206,3,970,-14,-4,-2
1014,-47,5,1000,-11,-27,-8
1015,124,13,1015,-1,-30,-14
1016,219,23,1013,-9,-8,-9
1017,148,39,998,-14,17,-2
1018,-44,31,1001,-13,33,4
1019,-190,13,987,-17,21,2
1020,-208,2,971,-15,-4,-3
1021,-50,3,997,-12,-26,-7
1022,123,12,1017,-13,-28,-11
1023,217,30,1010,-9,-8,-8
1024,148,40,1000,-13,18,-2
1025,-40,32,1003,-16,32,4
1026,-189,9,985,-16,20,2
1027,-208,5,972,-17,-4,-2
1028,-54,0,1000,-11,-26,-9
1029,113,14,1013,-11,-27,-11
1030,224,26,1012,-12,-9,-8
1031,144,41,1002,-12,18,-2
1032,-38,33,1000,-18,33,4
1033,-188,10,986,-17,22,2
1034,-213,4,969,-13,-3,0
1035,-55,0,1003,-14,-26,-8
1036,117,10,1018,-11,-26,-11
1037,219,27,1008,-11,-9,-8
1038,153,42,1001,-13,18,-2
1039,-38,29,1006,-15,32,3
1040,-187,18,980,-16,22,2
1041,-211,0,975,-16,-3,-2
1042,-58,1,1000,-13,-27,-8
1043,117,9,1014,-11,-28,-10
1044,218,28,1007,-9,-9,-8
1045,154,39,1004,-13,17,-2
1046,-31,32,1003,-16,32,4
1047,-189,16,980,-16,22,2
1048,-206,5,974,-16,-2,-3
1049,-62,0,1001,-13,-24,-9
1050,109,10,1011,-11,-27,-11
1051,225,25,1013,-12,-10,-9
1052,152,38,998,-14,18,-1
1053,-28,30,1001,-17,32,4
1054,-185,12,986,-15,22,2
1055,-210,3,967,-14,-1,-1
1056,-61,2,998,-13,-26,-9
1057,109,10,1017,-12,-27,-12
1058,219,26,1010,-13,-11,-10
1059,155,40,1002,-14,16,-2
1060,-31,31,1004,-16,31,3
1061,-182,15,987,-14,23,1
1062,-208,5,966,-15,-2,0
1063,-63,1,1003,-14,-27,-8
1064,112,12,1015,-12,-29,-11
1065,217,26,1006,-11,-9,-8
1066,158,39,1002,-14,16,-1
1067,-34,31,1006,-15,33,3
1068,-181,12,979,-15,22,2
1069,-214,4,970,-16,-1,-1
1070,-63,-1,999,-14,-27,-9
1071,110,10,1017,-10,-28,-12
1072,220,30,1002,-10,-9,-9
1073,159,43,1004,-13,16,-2
1074,-31,32,1005,-16,32,3
1075,-182,17,981,-17,22,2
1076,-206,6,968,-16,-1,-3
1077,-67,0,1007,-12,-25,-8
1078,111,8,1011,-12,-29,-11
1079,219,27,1006,-11,-9,-8
1080,157,39,1003,-12,17,-2
1081,-25,29,1009,-16,33,3
1082,-185,16,975,-15,23,2
1083,-210,9,971,-14,-1,-2
1084,-69,4,1006,-14,-26,-9
1085,104,6,1011,-12,-29,-10
1086,220,29,1007,-10,-11,-9
1087,157,35,1002,-14,16,-3
1088,-23,32,1008,-14,31,4
1089,-180,13,980,-15,23,3
1090,-211,7,972,-15,-1,-3
1091,-68,4,1001,-12,-26,-9
1092,101,11,1015,-11,-28,-12
1093,218,29,1008,-11,-11,-8
1094,160,36,1001,-14,15,-2
1095,-23,32,1008,-16,33,3
1096,-178,11,980,-16,23,2
1097,-210,4,967,-14,0,-1
1098,-70,2,1001,-14,-25,-7
1099,102,9,1017,-12,-28,-10
1100,219,33,1005,-8,-10,-9
1101,159,40,1000,-13,17,-2
1102,-20,32,1012,-15,33,2
1103,-180,12,980,-16,23,2
1104,-210,7,967,-14,0,0
1105,-72,-2,1002,-12,-25,-8
1106,100,12,1013,-11,-28,-10
1107,224,28,1004,-9,-12,-9
1108,159,42,1004,-13,15,-4
1109,-20,31,1011,-17,30,3
1110,-178,12,977,-16,23,1
1111,-211,6,970,-16,0,-2
1112,-72,0,1001,-12,-25,-8
1113,99,11,1015,-12,-28,-12
1114,219,30,1004,-11,-11,-9
1115,162,41,1002,-13,15,-3
1116,-17,29,1010,-16,31,3
1117,-178,14,977,-14,23,2
1118,-212,2,969,-17,0,-1
1119,-77,0,1001,-12,-24,-8
1120,99,8,1015,-11,-28,-11
1121,220,32,1004,-11,-12,-11
1122,163,41,1006,-12,15,-2
1123,-17,33,1010,-16,32,4
1124,-180,13,978,-16,24,1
1125,-213,9,968,-16,0,-2
1126,-77,-5,999,-15,-25,-8
1127,99,5,1014,-10,-28,-12
1128,222,28,1006,-8,-12,-9
1129,161,42,1004,-10,16,-3
1130,-13,33,1012,-16,32,2
1131,-181,15,978,-15,24,3
1132,-213,9,967,-13,0,-1
1133,-74,-3,1001,-15,-24,-7
1134,93,7,1013,-11,-28,-11
1135,225,30,1003,-11,-12,-10
1136,161,42,1005,-14,15,-3
1137,-17,31,1011,-14,32,2
1138,-175,16,980,-16,24,2
1139,-212,7,965,-15,1,0
1140,-78,-5,1000,-12,-26,-7
1141,98,9,1021,-11,-30,-10
1142,220,29,999,-12,-12,-9
1143,164,43,1003,-13,15,-3
1144,-14,33,1017,-19,32,3
1145,-179,16,975,-17,24,3
1146,-211,2,967,-15,-1,-1
1147,-82,-5,999,-13,-24,-8
1148,95,9,1016,-10,-29,-11
1149,220,29,1003,-10,-13,-9
1150,167,43,1007,-11,14,-2
1151,-12,33,1010,-16,30,3
1152,-175,18,978,-17,24,2
1153,-215,8,967,-17,2,1
1154,-82,-4,999,-14,-24,-8
1155,95,3,1018,-11,-29,-10
1156,220,27,999,-10,-13,-9
1157,167,38,1007,-11,15,-3
1158,-8,34,1014,-13,32,3
1159,-175,20,975,-14,25,2
1160,-213,11,965,-14,2,-1
1161,-88,0,1001,-14,-23,-7
1162,93,8,1012,-13,-29,-11
1163,222,24,1004,-11,-13,-10
1164,167,38,1007,-14,14,-2
1165,-9,31,1010,-13,31,2
1166,-176,19,980,-13,24,1
1167,-217,10,964,-14,2,0
1168,-83,2,999,-14,-24,-7
1169,93,5,1018,-10,-29,-11
1170,216,30,1004,-10,-13,-10
1171,168,33,1006,-14,14,-4
1172,-8,28,1014,-16,30,3
1173,-174,15,978,-14,24,2
1174,-208,3,967,-15,2,-1
1175,-91,1,998,-12,-23,-7
1176,94,12,1015,-11,-30,-12
1177,216,28,1010,-10,-12,-10
1178,168,44,997,-15,13,-2
1179,-3,29,1019,-17,32,1
1180,-175,15,973,-16,25,2
1181,-213,6,968,-15,2,0
1182,-81,-2,1002,-14,-24,-8
1183,85,10,1014,-12,-30,-10
1184,224,33,1005,-13,-13,-9
1185,169,35,1007,-13,15,-3
1186,-4,35,1010,-17,31,4
1187,-171,13,979,-16,24,2
1188,-214,12,966,-15,2,-1
1189,-88,-3,998,-14,-24,-6
1190,89,12,1017,-11,-28,-10
1191,220,27,1005,-14,-13,-10
1192,169,41,1002,-13,14,-3
1193,-5,31,1016,-16,31,2
1194,-174,20,978,-17,24,3
1195,-212,1,965,-15,2,-2
1196,-89,-5,998,-12,-24,-7
1197,86,8,1015,-10,-29,-10
1198,221,31,1008,-12,-14,-9
1199,170,41,1002,-14,14,-2
1200,-6,32,1012,-15,31,4
1201,-169,15,980,-17,26,3
1202,-216,6,967,-18,3,1
1203,-92,-2,995,-13,-23,-6
1204,87,5,1019,-11,-29,-11
1205,219,28,1005,-9,-13,-10
1206,169,42,1002,-13,15,-3
1207,-1,33,1016,-15,31,3
1208,-173,18,977,-15,25,3
1209,-212,8,964,-17,2,0
1210,-93,-3,1001,-15,-24,-8
1211,84,9,1012,-11,-30,-12
1212,220,26,1006,-12,-14,-10
1213,167,38,1005,-11,14,-3
1214,0,30,1012,-15,31,3
1215,-166,18,980,-16,24,2
1216,-215,8,966,-18,3,0
1217,-91,0,995,-14,-23,-8
1218,84,7,1018,-12,-29,-11
1219,218,32,1005,-12,-13,-9
1220,172,37,1005,-13,13,-3
1221,0,30,1015,-14,31,2
1222,-169,13,976,-15,25,3
1223,-213,11,967,-13,2,-1
1224,-97,-4,996,-13,-23,-7
1225,80,10,1014,-12,-30,-9
1226,217,29,1010,-11,-14,-9
1227,169,39,1005,-12,14,-3
1228,6,27,1015,-14,32,2
1229,-168,18,980,-16,25,2
1230,-213,6,961,-16,3,1
1231,-97,-3,997,-12,-23,-8
1232,79,12,1017,-11,-30,-9
1233,216,29,1004,-10,-15,-10
1234,172,40,1006,-14,12,-3
1235,3,31,1011,-16,29,3
1236,-166,18,979,-17,25,2
1237,-214,9,963,-15,4,1
1238,-98,-1,999,-14,-22,-6
1239,83,12,1012,-13,-29,-12
1240,213,29,1007,-11,-14,-10
1241,177,40,1006,-12,13,-5
1242,2,28,1015,-15,32,2
1243,-164,19,976,-16,25,3
1244,-214,6,970,-16,3,0
1245,-100,-2,991,-12,-22,-8
1246,79,4,1016,-11,-29,-11
1247,216,33,1009,-8,-13,-10
1248,173,40,1001,-13,13,-3
1249,8,32,1014,-15,30,3
1250,-170,18,979,-17,26,3
1251,-212,7,966,-17,4,-1
1252,-98,-7,996,-14,-22,-8
1253,77,9,1012,-10,-30,-11
1254,221,28,1009,-10,-16,-10
1255,171,42,1006,-11,13,-3
1256,9,34,1013,-14,30,2
1257,-164,14,981,-18,25,2
1258,-218,7,965,-16,3,1
1259,-101,-5,992,-14,-23,-7
1260,80,6,1017,-11,-28,-12
1261,215,31,1011,-9,-15,-10
1262,175,41,1002,-12,12,-4
1263,8,30,1016,-15,31,3
1264,-167,19,979,-16,26,3
1265,-213,6,964,-16,2,0
1266,-104,-3,995,-13,-23,-7
1267,78,7,1014,-11,-28,-10
1268,214,30,1011,-12,-15,-10
1269,173,37,1006,-14,12,-3
1270,11,31,1012,-13,30,2
1271,-168,18,979,-17,25,3
1272,-209,9,965,-14,5,0
1273,-109,-2,995,-11,-21,-7
1274,74,6,1011,-13,-30,-11
1275,216,28,1014,-10,-15,-11
1276,174,37,1005,-14,12,-4
1277,11,29,1011,-16,31,3
1278,-161,20,982,-15,26,2
1279,-213,6,966,-18,5,0
1280,-104,-3,992,-13,-22,-8
1281,74,10,1013,-13,-29,-10
1282,214,29,1011,-13,-15,-9
1283,178,39,1001,-13,11,-4
1284,14,30,1013,-14,30,2
1285,-159,20,980,-18,25,1
1286,-213,6,965,-17,4,-1
1287,-110,-1,992,-14,-21,-7
1288,71,6,1014,-12,-29,-11
1289,213,29,1011,-9,-16,-11
1290,178,37,1004,-14,12,-3
1291,15,31,1009,-14,30,3
1292,-158,16,983,-18,26,3
1293,-214,11,966,-16,4,0
1294,-110,-5,989,-12,-21,-8
1295,72,6,1018,-10,-29,-11
1296,215,29,1008,-11,-16,-10
1297,177,41,1003,-11,12,-4
1298,18,34,1014,-14,29,2
1299,-156,19,979,-17,26,3
1300,-212,6,968,-15,6,-1
1301,-112,-2,990,-11,-21,-6
1302,70,8,1015,-11,-29,-10
1303,212,26,1011,-13,-16,-9
1304,177,40,1005,-10,12,-2
1305,21,31,1011,-15,29,3
1306,-159,18,978,-18,26,3
1307,-214,9,973,-16,4,-1
1308,-111,-4,990,-12,-21,-7
1309,67,7,1015,-10,-29,-10
1310,215,28,1010,-11,-16,-9
1311,177,40,1009,-13,12,-3
1312,23,29,1007,-17,29,3
1313,-156,21,984,-16,28,4
1314,-217,8,970,-15,6,0
1315,-116,-4,987,-12,-21,-6
1316,72,9,1015,-12,-29,-10
1317,207,27,1011,-10,-16,-9
1318,181,40,1005,-12,12,-4
1319,25,29,1010,-16,30,2
1320,-157,20,979,-15,27,3
1321,-215,5,970,-17,5,0
1322,-119,-2,988,-11,-21,-6
1323,67,11,1013,-10,-30,-11
1324,211,29,1012,-13,-17,-10
1325,176,41,1007,-12,11,-4
1326,24,32,1010,-16,29,3
1327,-157,18,981,-17,27,2
1328,-215,7,972,-17,5,-1
1329,-113,-5,989,-13,-21,-6
1330,61,6,1013,-10,-30,-10
1331,214,32,1012,-12,-17,-10
1332,178,38,1010,-14,10,-3
1333,24,33,1008,-16,28,2
1334,-157,17,984,-18,26,4
1335,-213,8,968,-14,5,0
1336,-118,-8,987,-14,-20,-6
1337,67,9,1013,-11,-30,-9
1338,205,28,1013,-13,-18,-9
1339,183,41,1008,-13,11,-3
1340,27,32,1010,-14,30,3
1341,-153,22,980,-17,28,3
1342,-216,4,970,-15,6,-1
1343,-120,-4,990,-12,-21,-7
1344,65,6,1007,-13,-30,-10
1345,210,28,1013,-13,-17,-11
1346,184,40,1008,-13,10,-4
1347,29,30,1008,-14,28,2
1348,-152,21,982,-16,27,2
1349,-221,12,974,-15,5,0
1350,-117,-4,983,-15,-20,-7
1351,60,4,1012,-11,-29,-10
1352,214,30,1012,-10,-18,-10
1353,182,36,1009,-19,11,-2
1354,28,33,1002,-17,30,3
1355,-150,20,985,-13,28,2
1356,-217,8,971,-19,5,-1
1357,-125,-1,985,-12,-20,-6
1358,63,10,1011,-12,-30,-10
1359,207,26,1016,-13,-17,-9
1360,183,40,1003,-12,11,-5
1361,30,30,1011,-16,28,2
1362,-151,19,982,-15,27,4
1363,-216,6,972,-15,6,2
1364,-120,0,987,-14,-21,-6
1365,60,6,1011,-10,-29,-10
1366,208,29,1013,-11,-18,-10
1367,186,37,1008,-14,9,-4
1368,33,33,1008,-14,30,2
1369,-147,23,981,-18,29,4
1370,-218,5,977,-16,6,1
1371,-123,-4,982,-13,-20,-7
1372,57,6,1012,-11,-29,-11
1373,206,30,1011,-10,-19,-11
1374,186,37,1008,-14,9,-4
1375,38,34,1009,-15,30,1
1376,-151,20,983,-16,27,3
1377,-215,8,973,-18,5,0
1378,-126,-5,988,-12,-20,-6
1379,57,8,1009,-10,-30,-11
1380,210,25,1014,-10,-18,-11
1381,182,42,1009,-11,10,-4
1382,33,34,1010,-17,29,2
1383,-147,23,981,-17,28,2
1384,-215,8,973,-16,6,0
1385,-123,-6,984,-13,-19,-6
1386,58,6,1007,-10,-30,-10
1387,203,27,1017,-10,-18,-10
1388,187,41,1005,-12,8,-5
1389,34,31,1009,-14,30,3
1390,-144,24,981,-16,26,3
1391,-216,5,976,-15,6,-1
1392,-122,-3,983,-13,-19,-6
1393,57,7,1011,-12,-30,-9
1394,208,28,1014,-11,-19,-11
1395,183,37,1010,-11,9,-2
1396,39,31,1006,-16,30,2
1397,-150,22,983,-16,27,3
1398,-212,6,977,-17,5,0
1399,-125,-2,983,-12,-18,-7
1400,57,9,1007,-12,-29,-10
1401,206,28,1018,-11,-17,-11
1402,181,37,1005,-11,9,-5
1403,39,31,1009,-14,29,1
1404,-145,22,982,-16,27,3
1405,-219,8,977,-16,6,1
1406,-123,-7,985,-14,-20,-6
1407,56,6,1011,-11,-30,-9
1408,203,29,1011,-8,-19,-12
1409,187,38,1013,-12,9,-5
1410,39,35,1009,-14,29,1
1411,-146,24,980,-14,28,3
1412,-213,5,978,-19,7,0
1413,-127,-7,980,-13,-20,-7
1414,55,6,1008,-12,-30,-11
1415,209,27,1014,-11,-19,-11
1416,183,41,1010,-10,9,-3
1417,40,34,1007,-14,28,2
1418,-147,21,985,-17,29,4
1419,-218,4,973,-16,7,1
1420,-131,-8,986,-14,-19,-7
1421,58,10,1008,-10,-30,-11
1422,206,31,1014,-12,-19,-10
1423,192,38,1010,-14,8,-6
1424,38,33,1007,-13,29,3
1425,-146,23,982,-17,28,4
1426,-215,6,978,-16,7,-1
1427,-131,-6,980,-12,-20,-6
1428,52,6,1007,-11,-30,-9
1429,204,28,1014,-9,-19,-11
1430,188,39,1007,-13,9,-3
1431,41,39,1010,-16,29,3
1432,-141,20,980,-18,28,3
1433,-219,7,978,-16,7,1
1434,-129,-6,983,-14,-18,-6
1435,51,6,1007,-12,-30,-10
1436,208,31,1014,-13,-19,-10
1437,186,39,1012,-12,10,-3
1438,46,36,1005,-14,30,3
1439,-144,19,986,-17,28,3
1440,-216,9,976,-15,8,0
1441,-131,-8,981,-14,-19,-6
1442,55,8,1008,-11,-28,-11
1443,204,28,1016,-11,-19,-10
1444,189,35,1007,-13,8,-4
1445,44,34,1011,-16,28,2
1446,-147,25,981,-17,28,3
1447,-218,10,976,-14,7,-1
1448,-135,-9,980,-15,-19,-7
1449,54,6,1007,-12,-31,-10
1450,205,27,1014,-10,-19,-10
1451,187,37,1009,-13,9,-4
1452,48,35,1009,-16,29,1
1453,-144,27,981,-18,29,4
1454,-214,10,976,-16,8,1
1455,-135,-6,983,-14,-18,-7
1456,55,4,1005,-11,-30,-10
1457,204,27,1018,-9,-19,-11
1458,189,35,1007,-14,9,-4
1459,43,34,1011,-13,28,2
1460,-142,26,982,-16,27,3
1461,-218,8,979,-17,7,0
1462,-133,-3,981,-14,-19,-6
1463,52,6,1007,-13,-30,-11
1464,205,26,1013,-10,-20,-12
1465,190,35,1011,-13,8,-4
1466,46,33,1011,-16,29,1
1467,-140,22,982,-15,29,1
1468,-217,11,982,-17,8,1
1469,-133,-7,980,-14,-18,-7
1470,49,9,1009,-9,-30,-11
1471,202,25,1012,-13,-20,-10
1472,187,36,1011,-14,8,-4
1473,47,31,1008,-15,28,1
1474,-141,23,985,-17,28,4
1475,-213,7,974,-15,8,-1
1476,-137,-6,984,-13,-18,-6
1477,54,8,1005,-11,-30,-11
1478,202,30,1018,-10,-19,-11
1479,190,39,1007,-13,8,-4
1480,47,32,1012,-15,29,0
1481,-143,22,980,-17,29,2
1482,-215,6,980,-16,8,0
1483,-134,-6,980,-13,-17,-5
1484,48,6,1007,-10,-29,-9
1485,205,30,1015,-9,-19,-11
1486,187,38,1009,-12,7,-5
1487,48,32,1008,-15,28,3
1488,-141,18,985,-18,28,4
1489,-215,5,978,-15,7,0
1490,-136,-10,982,-12,-18,-6
1491,50,8,1007,-11,-30,-10
1492,203,26,1013,-12,-19,-10
1493,189,42,1010,-14,8,-4
1494,48,31,1010,-14,28,2
1495,-145,23,983,-17,30,3
1496,-216,2,977,-15,7,0
1497,-137,-9,980,-13,-18,-6
1498,53,7,1006,-11,-30,-11
1499,201,29,1014,-10,-18,-10
1500,189,40,1008,-13,8,-4
1501,41,30,1011,-15,30,2
1502,-143,29,979,-16,28,2
1503,-215,1,979,-16,8,1
1504,-132,-6,979,-12,-19,-5
1505,53,7,1006,-10,-30,-11
1506,204,32,1017,-10,-18,-12
1507,184,38,1011,-15,8,-5
1508,48,39,1008,-14,28,1
1509,-145,21,980,-18,28,3
1510,-212,6,975,-17,8,-1
1511,-132,-8,987,-12,-19,-7
1512,49,4,1000,-10,-29,-8
1513,205,28,1018,-9,-19,-10
1514,186,39,1008,-13,8,-4
1515,48,38,1007,-16,28,2
1516,-139,21,983,-15,29,2
1517,-215,9,979,-17,8,0
1518,-132,-9,977,-15,-18,-5
1519,51,4,1007,-12,-29,-10
1520,202,28,1013,-12,-18,-10
1521,191,38,1014,-13,8,-4
1522,44,37,1004,-15,28,1
1523,-143,24,984,-15,28,4
1524,-212,10,980,-14,8,0
1525,-138,-5,982,-14,-18,-5
1526,54,6,1003,-12,-30,-10
1527,200,24,1018,-10,-19,-11
1528,189,38,1005,-13,7,-5
1529,47,32,1010,-13,29,0
1530,-141,28,983,-15,29,3
1531,-214,9,978,-15,9,2
1532,-137,-8,981,-13,-18,-7
1533,51,7,1004,-11,-31,-10
1534,201,25,1015,-11,-19,-10
1535,185,35,1008,-14,7,-5
1536,47,31,1012,-13,28,2
1537,-142,24,980,-16,29,3
1538,-215,6,982,-15,7,0
1539,-136,-3,979,-15,-19,-6
1540,49,3,1006,-12,-28,-9
1541,204,30,1014,-9,-20,-12
1542,190,36,1011,-13,6,-5
1543,49,35,1006,-16,28,2
1544,-138,24,984,-16,29,4
1545,-217,8,978,-17,8,1
1546,-133,-5,980,-12,-18,-6
1547,47,2,1005,-11,-29,-10
1548,203,29,1016,-11,-19,-11
1549,191,38,1012,-12,9,-4
1550,48,32,1007,-14,28,1
1551,-142,25,984,-14,29,4
1552,-215,6,977,-15,9,0
1553,-137,-2,981,-15,-18,-6
1554,50,5,1006,-11,-29,-10
1555,201,30,1013,-10,-18,-10
1556,191,38,1012,-12,8,-4
1557,46,36,1009,-13,29,1
1558,-139,22,981,-17,29,3
1559,-218,7,979,-16,7,1
1560,-136,-6,978,-15,-19,-5
1561,49,7,1007,-10,-29,-11
1562,203,28,1013,-11,-19,-10
1563,188,39,1012,-13,7,-4
1564,48,31,1007,-14,28,2
1565,-141,23,984,-15,28,2
1566,-213,8,977,-15,9,1
1567,-138,-6,980,-13,-19,-6
1568,49,7,1008,-10,-31,-11
1569,200,26,1015,-12,-19,-10
1570,188,38,1006,-12,7,-5
1571,49,31,1013,-16,28,2
1572,-138,26,983,-17,29,4
1573,-217,7,974,-18,8,0
1574,-138,-6,985,-14,-19,-7
1575,46,9,1004,-12,-31,-10
1576,202,28,1013,-10,-20,-11
1577,193,36,1015,-13,8,-6
1578,45,33,1006,-15,29,2
1579,-136,21,982,-17,28,3
1580,-217,7,983,-16,9,1
1581,-138,-3,977,-15,-19,-6
1582,56,7,1008,-12,-30,-11
1583,197,26,1013,-10,-20,-9
1584,192,38,1007,-13,8,-3
1585,51,30,1013,-16,29,2
1586,-146,25,980,-15,29,6
1587,-208,8,979,-16,7,1
1588,-140,-8,983,-14,-19,-6
1589,49,11,1001,-11,-30,-10
1590,205,25,1019,-10,-19,-11
1591,185,37,1005,-13,8,-3
1592,52,30,1012,-16,27,2
1593,-140,24,983,-16,30,3
1594,-218,6,976,-17,8,1
1595,-133,-4,981,-15,-19,-6
1596,44,4,1007,-11,-30,-9
1597,200,26,1011,-11,-20,-11
1598,194,33,1014,-12,8,-4
1599,50,36,1007,-17,29,2
1600,-136,29,981,-17,29,3
1601,-217,6,980,-17,9,1
1602,-141,-8,980,-15,-19,-6
1603,45,3,1004,-11,-31,-10
1604,201,27,1014,-10,-20,-11
1605,193,40,1014,-12,6,-5
1606,54,39,1008,-16,27,2
1607,-136,27,985,-16,29,2
1608,-220,7,977,-15,10,1
1609,-142,-3,980,-15,-18,-6
1610,47,9,1004,-10,-29,-11
1611,202,27,1016,-9,-19,-10
1612,196,38,1011,-12,8,-6
1613,47,34,1011,-16,31,2
1614,-136,29,983,-17,30,2
1615,-218,4,981,-17,8,1
1616,-139,-6,977,-13,-18,-5
1617,48,6,1005,-12,-29,-11
1618,199,29,1018,-10,-19,-10
1619,194,34,1012,-15,7,-4
1620,54,35,1008,-15,28,2
1621,-136,23,983,-15,29,3
1622,-219,9,979,-16,9,1
1623,-138,-6,981,-14,-18,-5
1624,45,8,1004,-11,-29,-10
1625,200,26,1016,-12,-20,-10
1626,191,37,1009,-14,6,-5
1627,53,36,1009,-15,28,2
1628,-135,25,985,-16,30,3
1629,-218,10,980,-15,9,1
1630,-142,-6,975,-16,-17,-5
1631,46,8,1007,-10,-29,-9
1632,197,27,1014,-10,-21,-10
1633,193,37,1010,-13,6,-5
1634,59,38,1013,-15,28,1
1635,-137,30,981,-16,29,3
1636,-215,4,978,-17,8,-1
1637,-144,-6,983,-12,-18,-4
1638,45,10,999,-11,-30,-10
1639,201,22,1018,-10,-19,-10
1640,189,37,1006,-12,9,-4
1641,55,37,1011,-16,29,1
1642,-133,23,985,-14,29,2
1643,-218,7,979,-16,9,1
1644,-139,-6,979,-12,-18,-6
1645,39,3,1003,-11,-29,-10
1646,201,29,1012,-10,-20,-11
1647,191,35,1010,-12,8,-5
1648,55,38,1014,-13,28,0
1649,-134,24,982,-18,29,3
1650,-216,8,976,-15,9,0
1651,-143,-7,983,-14,-17,-7
1652,43,5,1001,-12,-30,-10
1653,195,24,1016,-11,-19,-10
1654,191,33,1009,-13,8,-5
1655,55,37,1011,-16,27,1
1656,-132,26,982,-15,29,3
1657,-212,10,984,-16,9,1
1658,-143,-7,977,-15,-18,-6
1659,41,4,1002,-11,-29,-9
1660,202,23,1015,-10,-20,-10
1661,188,36,1011,-13,7,-3
1662,62,34,1011,-15,26,1
1663,-136,24,983,-16,29,3
1664,-212,12,975,-15,8,1
1665,-146,-8,981,-15,-17,-5
1666,45,9,1002,-12,-30,-9
1667,196,24,1011,-9,-20,-9
1668,193,37,1013,-11,6,-4
1669,57,34,1013,-16,27,2
1670,-135,25,980,-15,29,3
1671,-212,7,980,-16,9,1
1672,-145,-5,982,-14,-17,-5
1673,43,10,999,-10,-30,-9
1674,194,25,1013,-10,-20,-10
1675,189,38,1014,-15,7,-4
1676,56,37,1011,-15,27,2
1677,-131,20,984,-16,29,3
1678,-215,7,983,-17,9,0
1679,-143,-5,976,-12,-18,-7
1680,40,8,1003,-10,-29,-9
1681,198,28,1012,-11,-20,-10
1682,189,35,1013,-12,8,-4
1683,57,37,1007,-15,27,1
1684,-133,23,988,-16,30,4
1685,-211,5,977,-15,10,0
1686,-147,-6,981,-14,-17,-6
1687,44,8,999,-10,-29,-10
1688,193,24,1015,-22,-22,-11
1689,195,39,1012,-8,6,-6
1690,54,34,1013,-15,28,2
1691,-131,26,982,-20,29,3
1692,-213,1,980,-11,10,1
1693,-147,-6,976,-17,-16,-5
1694,43,5,1008,-11,-29,-9
1695,197,27,1007,-8,-19,-12
1696,194,38,1012,-16,7,-5
1697,59,34,1014,-12,27,0
1698,-133,26,984,-16,30,2
1699,-213,5,979,-17,11,0
1700,-148,-6,981,-11,-18,-6
1701,40,8,1005,-13,-30,-9
1702,198,29,1007,-10,-20,-10
1703,193,36,1017,-14,7,-4
1704,63,37,1014,-15,27,1
1705,-130,25,982,-16,29,4
1706,-213,4,978,-19,9,1
1707,-149,-5,983,-14,-18,-5
1708,40,4,995,-14,-30,-9
1709,190,25,1015,-11,-21,-10
1710,197,36,1011,-15,5,-4
1711,61,38,1016,-16,26,1
1712,-123,28,982,-18,30,4
1713,-213,6,984,-15,10,1
1714,-151,-7,978,-15,-17,-5
1715,36,6,1001,-11,-29,-9
1716,194,25,1012,-11,-21,-11
1717,191,35,1012,-10,5,-4
1718,66,35,1011,-14,26,1
1719,-123,27,988,-16,30,4
1720,-213,10,975,-14,11,1
1721,-153,-10,981,-16,-16,-5
1722,36,7,1000,-10,-30,-10
1723,190,23,1012,-10,-20,-10
1724,197,36,1012,-14,4,-6
1725,68,33,1014,-15,26,1
1726,-125,31,987,-14,30,4
1727,-210,5,975,-14,11,1
1728,-157,-6,980,-14,-16,-6
1729,37,5,1004,-13,-31,-11
1730,188,26,1010,-10,-22,-10
1731,200,38,1013,-12,4,-6
1732,65,37,1015,-14,27,1
1733,-121,31,985,-15,31,4
1734,-212,7,979,-16,12,0
1735,-159,-5,979,-16,-15,-4
1736,33,2,1001,-13,-31,-10
1737,189,23,1011,-9,-20,-11
1738,197,32,1011,-10,6,-5
1739,73,38,1018,-14,26,0
1740,-121,30,988,-15,30,4
1741,-210,11,975,-15,12,2
1742,-157,-7,981,-17,-16,-6
1743,29,6,1000,-13,-29,-9
1744,190,21,1009,-9,-22,-10
1745,197,34,1011,-11,3,-5
1746,72,37,1013,-16,25,1
1747,-120,31,988,-17,30,3
1748,-210,6,975,-16,12,1
1749,-161,-4,978,-15,-16,-5
1750,27,6,1003,-11,-30,-10
1751,183,23,1007,-10,-21,-11
1752,201,31,1010,-12,3,-6
1753,75,34,1020,-14,26,1
1754,-116,33,983,-14,30,4
1755,-209,7,976,-16,12,2
1756,-162,-4,981,-13,-13,-5
1757,25,4,1003,-14,-30,-9
1758,188,22,1009,-9,-23,-11
1759,199,31,1009,-13,3,-5
1760,78,38,1015,-15,25,1
1761,-118,29,988,-15,31,3
1762,-211,8,977,-16,14,1
1763,-163,-8,981,-14,-13,-5
1764,21,8,1002,-11,-29,-10
1765,183,22,1011,-10,-22,-12
1766,204,34,1009,-12,5,-6
1767,77,36,1012,-16,26,1
1768,-112,33,992,-16,32,4
1769,-212,8,978,-16,12,1
1770,-166,-5,976,-14,-14,-4
1771,21,5,1006,-11,-30,-10
1772,181,22,1007,-9,-22,-11
1773,206,33,1007,-11,4,-5
1774,82,39,1015,-13,26,0
1775,-114,32,995,-17,30,4
1776,-208,4,974,-16,14,0
1777,-170,-7,978,-13,-13,-3
1778,18,7,1007,-13,-30,-9
1779,183,24,1008,-12,-22,-11
1780,205,32,1004,-12,2,-5
1781,86,37,1012,-13,25,1
1782,-108,30,997,-16,33,4
1783,-209,6,974,-17,14,1
1784,-171,-6,977,-14,-14,-5
1785,15,8,1012,-12,-31,-10
1786,178,20,1003,-9,-24,-11
1787,206,33,1007,-11,3,-5
1788,82,36,1014,-14,25,0
1789,-105,32,993,-16,31,3
1790,-206,5,975,-15,14,1
1791,-175,-4,975,-15,-12,-4
1792,14,8,1009,-12,-29,-10
1793,174,19,1008,-10,-24,-10
1794,206,29,1002,-13,2,-5
1795,93,38,1013,-14,25,0
1796,-106,33,998,-17,30,4
1797,-205,10,974,-16,14,1
1798,-177,-5,977,-15,-12,-4
1799,9,6,1007,-12,-32,-9
1800,174,21,1009,-12,-23,-10
1801,206,28,1003,-10,1,-7
1802,91,39,1009,-14,24,0
1803,-99,36,1002,-18,31,3
1804,-209,4,976,-16,14,1
1805,-180,-5,972,-13,-12,-5
1806,8,3,1007,-12,-29,-10
1807,170,22,1013,-10,-24,-10
1808,211,30,1000,-11,1,-6
1809,96,42,1013,-15,25,0
1810,-101,33,999,-18,32,5
1811,-206,9,979,-17,14,0
1812,-179,-10,973,-16,-11,-4
1813,4,5,1009,-11,-29,-9
1814,170,21,1009,-10,-23,-12
1815,208,29,1005,-13,1,-6
1816,98,43,1006,-12,24,0
1817,-95,33,1003,-18,30,3
1818,-206,5,979,-17,15,1
1819,-179,-6,974,-14,-10,-3
1820,1,4,1007,-11,-29,-10
1821,165,17,1011,-9,-24,-11
1822,216,27,1001,-11,-1,-7
1823,101,43,1007,-13,25,0
1824,-94,36,1004,-15,31,3
1825,-204,8,982,-17,15,1
1826,-184,-3,966,-15,-11,-4
1827,0,8,1007,-12,-29,-8
1828,165,16,1015,-12,-24,-10
1829,212,28,999,-13,-1,-6
1830,104,35,1003,-13,25,0
1831,-90,35,1006,-16,33,4
1832,-203,8,985,-16,15,2
1833,-187,-2,962,-13,-9,-5
1834,-1,10,1014,-10,-29,-9
1835,162,16,1012,-12,-24,-10
1836,210,27,997,-11,-1,-6
1837,107,41,1006,-13,22,-2
1838,-92,31,1005,-17,32,4
1839,-196,11,982,-15,15,1
1840,-189,-6,966,-14,-9,-3
1841,-4,10,1009,-11,-29,-9
1842,159,16,1016,-12,-26,-11
1843,209,27,998,-12,-2,-6
1844,117,40,1005,-14,23,0
1845,-87,32,1003,-17,32,3
1846,-202,9,986,-18,15,1
1847,-190,-3,967,-14,-9,-4
1848,-13,7,1007,-11,-28,-8
1849,163,14,1014,-12,-26,-11
1850,210,30,1005,-12,-3,-7
1851,115,40,998,-13,20,-2
1852,-84,35,1008,-16,31,4
1853,-202,8,985,-16,16,0
1854,-190,0,968,-14,-7,-4
1855,-13,5,1005,-13,-28,-9
1856,152,16,1017,-13,-26,-10
1857,215,24,1002,-12,-3,-7
1858,118,39,998,-11,23,-2
1859,-80,35,1006,-15,32,4
1860,-198,9,985,-18,16,1
1861,-192,2,969,-14,-8,-3
1862,-17,6,1000,-12,-28,-8
1863,147,15,1017,-13,-25,-11
1864,213,25,1003,-12,-3,-7
1865,119,38,999,-13,21,0
1866,-75,32,1006,-15,30,3
1867,-198,9,988,-16,17,1
1868,-195,0,966,-15,-8,-3
1869,-19,8,1001,-10,-28,-9
1870,149,12,1020,-11,-25,-12
1871,215,27,1004,-10,-3,-8
1872,121,40,997,-13,21,-2
1873,-71,34,1005,-18,32,4
1874,-201,8,989,-17,17,1
1875,-194,0,966,-16,-7,-3
1876,-23,2,999,-11,-27,-9
1877,146,17,1021,-11,-27,-11
1878,219,27,1008,-13,-5,-7
1879,124,42,997,-13,21,-2
1880,-70,31,1005,-17,33,2
1881,-197,6,988,-17,18,1
1882,-200,0,966,-17,-7,-2
1883,-22,5,998,-11,-27,-9
1884,140,15,1021,-11,-25,-10
1885,219,29,1004,-11,-6,-6
1886,127,41,996,-14,20,-1
1887,-70,32,1004,-16,31,4
1888,-199,11,992,-15,18,2
1889,-198,0,966,-16,-7,-4
1890,-27,6,998,-12,-27,-9
1891,141,16,1018,-13,-27,-10
1892,215,28,1010,-12,-5,-6
1893,130,41,998,-12,20,-1
1894,-63,34,999,-17,32,5
1895,-200,9,993,-19,19,2
1896,-198,0,966,-16,-6,-2
1897,-31,4,996,-13,-28,-9
1898,139,12,1019,-12,-27,-11
1899,218,28,1009,-11,-4,-7
1900,131,44,995,-13,20,-1
1901,-58,30,1000,-16,33,4
1902,-200,11,989,-16,20,1
1903,-199,3,967,-15,-5,-3
1904,-35,3,1000,-14,-27,-8
1905,135,15,1016,-12,-27,-11
1906,216,23,1013,-11,-6,-7
1907,137,43,993,-13,19,-2
1908,-58,30,1006,-16,32,4
1909,-197,14,985,-16,19,0
1910,-200,-3,968,-17,-4,-2
1911,-32,5,996,-10,-27,-9
1912,131,17,1019,-11,-27,-11
1913,219,29,1011,-10,-7,-8
1914,132,41,993,-13,20,-1
1915,-52,35,1001,-18,32,3
1916,-196,8,986,-16,19,2
1917,-201,1,967,-16,-5,-2
1918,-37,0,998,-12,-28,-8
1919,127,16,1017,-11,-27,-11
1920,218,28,1013,-13,-7,-8
1921,138,43,995,-12,19,-1
1922,-52,34,1001,-16,32,4
1923,-192,11,988,-16,20,1
1924,-204,0,969,-16,-6,-1
1925,-42,2,997,-12,-26,-8
1926,127,10,1019,-11,-26,-13
1927,221,28,1010,-11,-8,-9
1928,138,44,1000,-12,18,-1
1929,-45,38,1002,-15,33,3
1930,-195,10,984,-19,21,3
1931,-206,5,968,-18,-5,-2
1932,-47,-3,1002,-13,-27,-8
1933,123,10,1013,-11,-28,-10
1934,222,26,1012,-10,-8,-8
1935,145,43,1000,-14,19,-1
1936,-43,32,999,-17,33,3
1937,-192,15,988,-17,22,2
1938,-209,2,967,-15,-4,-2
1939,-47,1,1001,-13,-27,-9
1940,123,11,1016,-11,-27,-11
1941,218,31,1007,-10,-8,-8
1942,151,39,1005,-12,18,-2
1943,-43,33,1000,-15,33,4
1944,-190,12,983,-14,20,1
1945,-206,4,972,-16,-2,-1
1946,-56,4,997,-13,-27,-8
1947,124,11,1016,-11,-29,-12
1948,218,27,1012,-10,-9,-8
1949,148,42,995,-12,18,-2
1950,-32,29,1008,-17,32,3
1951,-192,16,980,-17,22,2
1952,-206,3,970,-15,-2,-4
1953,-56,4,1004,-15,-26,-8
1954,110,13,1012,-11,-27,-10
1955,224,28,1011,-11,-10,-9
1956,149,37,1001,-15,18,-2
1957,-36,34,1003,-14,32,3
1958,-187,10,986,-18,21,1
1959,-209,6,969,-17,-1,0
1960,-61,5,1001,-14,-26,-7
1961,111,13,1015,-11,-28,-12
1962,218,27,1009,-11,-9,-9
1963,158,40,1001,-15,17,-2
1964,-35,27,1006,-16,33,3
1965,-184,12,980,-14,23,2
1966,-210,7,969,-16,-2,-1
1967,-60,4,1008,-13,-26,-9
1968,109,13,1011,-12,-27,-10
1969,220,27,1007,-11,-8,-10
1970,154,40,1005,-14,18,-2
1971,-33,31,1003,-16,31,4
1972,-178,13,981,-15,22,2
1973,-210,5,969,-16,-1,0
1974,-64,2,1000,-12,-26,-8
1975,109,11,1015,-11,-27,-11
1976,216,29,1007,-11,-10,-7
1977,156,42,1002,-12,15,-2
1978,-21,25,1012,-18,33,3
1979,-180,11,976,-17,22,3
1980,-207,6,971,-15,0,-2
1981,-66,3,1005,-13,-24,-7
1982,103,12,1012,-10,-27,-11
1983,221,30,1005,-10,-12,-9
1984,155,39,1006,-13,16,-2
1985,-21,31,1008,-16,32,4
1986,-181,12,977,-17,23,3
1987,-207,5,973,-14,0,-1
1988,-70,-1,1001,-12,-25,-7
1989,99,11,1012,-10,-28,-10
1990,222,29,1007,-10,-11,-9
1991,156,42,1004,-13,17,-3
1992,-21,32,1008,-16,31,3
1993,-180,15,980,-17,22,2
1994,-207,5,968,-15,-2,-1
1995,-76,0,997,-13,-26,-8
1996,103,9,1022,-12,-28,-11
1997,218,32,1001,-11,-11,-10
1998,163,43,1002,-13,15,-3
1999,-17,30,1016,-15,31,2
2000,-181,20,978,-15,24,2
2001,-208,3,964,-16,1,-1
2002,-82,-1,999,-13,-23,-7
2003,94,5,1015,-11,-29,-11
2004,222,28,1002,-12,-13,-9
2005,160,43,1004,-13,15,-3
2006,-10,28,1014,-15,31,2
2007,-175,21,978,-15,24,3
2008,-211,2,962,-16,1,0
2009,-82,0,1004,-11,-24,-7
2010,90,6,1015,-13,-29,-9
2011,218,31,1004,-11,-13,-9
2012,164,40,1006,-13,15,-2
2013,-11,29,1015,-16,31,4
2014,-168,14,976,-17,24,3
2015,-212,7,967,-15,2,0
2016,-89,-1,999,-12,-22,-8
2017,90,8,1016,-12,-29,-10
2018,215,30,1005,-11,-13,-9
2019,168,39,1003,-12,14,-3
2020,-4,29,1018,-15,31,2
2021,-167,19,975,-16,24,3
2022,-210,5,967,-15,2,-1
2023,-92,1,996,-12,-23,-7
2024,85,5,1016,-13,-28,-11
2025,216,31,1008,-12,-14,-10
2026,168,37,1000,-13,14,-2
2027,0,32,1017,-14,31,3
2028,-167,17,978,-16,24,3
2029,-213,8,964,-20,2,0
2030,-93,-3,997,-18,-23,-7
2031,80,10,1015,-9,-26,-9
2032,217,28,1007,-15,-13,-9
2033,170,38,1002,-10,14,-2
2034,0,28,1015,-15,30,4
2035,-164,17,976,-18,25,2
2036,-214,5,967,-11,3,-1
2037,-99,-1,992,-13,-25,-8
2038,82,6,1017,-12,-30,-10
2039,216,32,1008,-10,-14,-10
2040,174,38,1003,-15,13,-3
2041,6,29,1011,-13,31,2
2042,-167,19,983,-16,24,4
2043,-213,9,962,-15,3,0
2044,-102,-1,994,-11,-23,-7
2045,77,10,1015,-13,-30,-11
2046,215,28,1011,-11,-16,-10
2047,175,41,1005,-13,13,-4
2048,11,33,1014,-17,30,2
2049,-162,16,981,-16,26,2
2050,-212,6,964,-15,4,0
2051,-107,-5,997,-13,-22,-7
2052,74,8,1011,-11,-30,-11
2053,216,31,1013,-11,-16,-10
2054,179,41,1002,-12,12,-3
2055,9,32,1012,-14,31,2
2056,-159,17,978,-18,24,2
2057,-216,6,969,-14,5,-1
2058,-108,-1,989,-12,-21,-7
2059,73,8,1015,-14,-28,-9
2060,216,33,1010,-11,-17,-9
2061,175,41,1007,-12,12,-2
2062,17,33,1010,-15,31,3
2063,-157,16,983,-17,25,4
2064,-213,6,967,-16,4,1
2065,-111,-5,991,-13,-20,-8
2066,69,7,1013,-10,-29,-10
2067,213,31,1010,-11,-17,-9
2068,180,42,1008,-12,9,-3
2069,18,30,1007,-14,29,1
2070,-157,16,985,-18,27,2
2071,-216,2,970,-16,5,0
2072,-112,-3,988,-13,-21,-7
2073,70,4,1014,-9,-29,-12
2074,210,32,1014,-11,-17,-9
2075,183,41,1003,-13,10,-4
2076,23,33,1014,-14,30,3
2077,-155,16,978,-17,28,3
2078,-218,4,971,-18,7,-1
2079,-117,-5,986,-13,-20,-7
2080,67,6,1013,-11,-29,-10
2081,207,33,1011,-11,-17,-10
2082,182,39,1007,-14,10,-3
2083,28,31,1008,-13,29,2
2084,-156,19,981,-15,28,3
2085,-216,7,972,-16,5,-1
2086,-122,-5,987,-13,-20,-6
2087,65,6,1011,-10,-30,-11
2088,207,29,1015,-10,-17,-12
2089,183,36,1007,-14,10,-5
2090,34,34,1007,-14,29,3
2091,-149,23,984,-17,27,3
2092,-214,11,976,-18,6,-1
2093,-127,-9,982,-13,-18,-7
2094,64,7,1008,-13,-30,-11
2095,208,26,1018,-11,-18,-11
2096,188,40,1006,-12,10,-4
2097,37,35,1008,-15,30,3
2098,-149,25,984,-18,27,3
2099,-217,6,974,-16,7,1
2100,-124,-5,980,-14,-19,-7
2101,55,7,1012,-11,-31,-10
2102,211,26,1012,-10,-19,-11
2103,186,39,1009,-15,9,-3
2104,35,35,1007,-15,27,2
2105,-146,19,983,-17,28,2
2106,-220,5,975,-15,7,0
2107,-129,-3,984,-15,-19,-6
2108,59,4,1010,-12,-29,-11
2109,205,31,1009,-9,-19,-10
2110,188,37,1009,-12,9,-5
2111,40,32,1011,-16,29,2
2112,-147,23,981,-16,27,5
2113,-213,7,975,-18,6,0
2114,-135,-8,985,-14,-19,-6
2115,57,8,1003,-11,-30,-9
2116,203,27,1013,-11,-18,-10
2117,187,37,1011,-13,8,-3
2118,44,36,1007,-16,27,3
2119,-140,22,979,-16,29,3
2120,-218,4,981,-16,7,1
2121,-133,-5,981,-13,-19,-6
2122,52,5,1006,-11,-30,-11
2123,200,31,1013,-10,-18,-10
2124,190,34,1014,-13,8,-5
2125,46,34,1004,-17,28,1
2126,-140,27,986,-17,29,5
2127,-213,8,981,-15,8,0
2128,-141,-7,979,-16,-18,-6
2129,50,9,1005,-11,-28,-10
2130,201,23,1016,-10,-19,-10
2131,189,38,1010,-11,7,-4
2132,52,36,1008,-13,28,1
2133,-139,25,987,-15,29,2
2134,-214,8,973,-16,8,1
2135,-141,-4,984,-13,-19,-6
2136,46,9,1000,-11,-31,-10
2137,197,24,1017,-12,-20,-11
2138,193,33,1010,-14,8,-4
2139,52,35,1011,-17,28,2
2140,-132,26,980,-16,30,3
2141,-218,8,980,-15,10,1
2142,-141,-6,982,-15,-19,-5
2143,44,7,1002,-9,-31,-9
2144,197,27,1014,-11,-21,-10
2145,191,38,1009,-12,7,-5
2146,56,37,1016,-15,28,0
2147,-131,24,981,-20,30,3
2148,-218,7,982,-15,10,1
2149,-146,-8,979,-13,-17,-5
2150,38,8,1003,-11,-29,-9
2151,197,26,1010,-9,-20,-11
2152,192,38,1010,-15,7,-4
2153,61,36,1016,-15,26,0
2154,-130,28,982,-17,28,4
2155,-214,6,982,-16,10,0
2156,-153,-8,979,-15,-16,-5
2157,39,6,1002,-11,-30,-9
2158,195,25,1015,-9,-21,-10
2159,195,34,1010,-12,5,-4
2160,70,37,1014,-14,26,0
2161,-130,28,984,-16,30,4
2162,-213,8,975,-15,10,1
2163,-151,-9,982,-14,-16,-6
2164,36,6,1001,-10,-30,-9
2165,189,22,1008,-11,-20,-10
2166,197,35,1015,-14,6,-4
2167,61,36,1013,-15,26,3
2168,-124,30,983,-17,30,3
2169,-214,4,984,-16,11,1
2170,-157,-4,974,-15,-17,-4
2171,36,3,1003,-11,-30,-10
2172,191,24,1013,-9,-23,-10
2173,194,35,1007,-12,5,-4
2174,75,38,1015,-14,26,-1
2175,-127,31,991,-16,31,5
2176,-211,12,972,-15,12,-1
2177,-158,-9,979,-14,-15,-6
2178,28,9,1003,-11,-30,-8
2179,191,22,1011,-10,-22,-10
2180,204,32,1009,-13,4,-5
2181,70,37,1014,-14,27,2
2182,-121,33,986,-14,31,4
2183,-215,6,978,-14,12,0
2184,-159,-5,978,-14,-15,-4
2185,26,5,1004,-10,-31,-9
2186,189,26,1007,-11,-22,-10
2187,201,28,1011,-13,4,-5
2188,76,38,1014,-15,25,1
2189,-116,28,991,-17,30,3
2190,-209,6,975,-15,11,1
2191,-166,-8,979,-14,-13,-3
2192,22,9,1007,-12,-29,-9
2193,186,22,1007,-10,-21,-10
2194,199,29,1011,-13,3,-5
2195,81,43,1015,-13,24,0
2196,-117,28,994,-16,30,4
2197,-206,8,974,-16,13,2
2198,-170,-8,978,-13,-14,-4
2199,22,10,1006,-11,-30,-10
2200,185,19,1011,-10,-23,-11
2201,202,36,1003,-11,2,-5
2202,83,39,1017,-15,26,0
2203,-115,30,994,-16,32,3
2204,-208,7,972,-16,13,2
2205,-167,-9,978,-13,-13,-5
2206,15,6,1007,-12,-30,-9
2207,183,23,1008,-12,-24,-11
2208,201,30,1004,-11,4,-5
2209,84,41,1013,-15,25,0
2210,-107,29,996,-18,31,4
2211,-209,10,973,-15,13,2
2212,-172,-7,978,-14,-12,-4
2213,17,6,1008,-12,-31,-10
2214,178,19,1003,-10,-23,-10
2215,204,30,1008,-12,2,-6
2216,89,37,1011,-14,25,1
2217,-106,37,996,-17,32,4
2218,-207,8,976,-17,13,1
2219,-177,-3,973,-14,-12,-4
2220,14,5,1009,-14,-29,-9
2221,173,21,1009,-11,-23,-10
2222,210,29,1005,-11,1,-6
2223,90,37,1011,-14,26,0
2224,-104,34,998,-17,31,3
2225,-208,8,977,-17,14,1
2226,-177,-6,974,-14,-12,-5
2227,8,8,1010,-11,-31,-9
2228,177,19,1008,-11,-24,-13
2229,208,26,1003,-11,1,-7
2230,95,40,1008,-14,23,0
2231,-104,32,1003,-18,31,4
2232,-202,11,977,-15,15,3
2233,-180,-7,971,-14,-11,-4
2234,9,11,1011,-11,-30,-11
2235,170,17,1009,-13,-24,-12
2236,209,29,1002,-12,1,-7
2237,98,39,1008,-13,23,-1
2238,-99,33,1001,-16,30,4
2239,-204,7,979,-16,14,2
2240,-183,-5,972,-13,-11,-3
2241,3,9,1011,-12,-30,-10
2242,169,18,1011,-12,-24,-11
2243,211,26,1000,-11,0,-7
2244,101,38,1010,-14,24,0
2245,-97,33,1002,-17,31,4
2246,-204,8,981,-16,16,1
2247,-184,-4,970,-15,-11,-4
2248,0,10,1009,-12,-29,-8
2249,165,20,1010,-13,-24,-12
2250,212,28,1001,-11,0,-6
2251,108,37,1003,-12,23,0
2252,-93,32,1002,-14,33,4
2253,-203,6,979,-15,14,1
2254,-188,-1,970,-13,-10,-3
2255,0,8,1010,-11,-29,-10
2256,160,17,1014,-11,-23,-11
2257,213,31,998,-11,-1,-7
2258,107,37,1004,-13,24,0
2259,-91,34,1004,-16,31,3
2260,-204,3,987,-16,14,2
2261,-187,-3,964,-12,-10,-4
2262,-5,5,1005,-12,-30,-8
2263,161,19,1014,-11,-26,-12
2264,209,25,1001,-11,-1,-8
2265,113,42,1000,-13,22,-2
2266,-90,33,1011,-17,32,4
2267,-200,11,982,-17,14,1
2268,-189,-7,970,-15,-8,-5
2269,-11,11,1002,-11,-29,-9
2270,157,13,1020,-13,-27,-11
2271,215,27,1000,-11,-2,-7
2272,115,40,1002,-14,22,1
2273,-76,37,1005,-14,31,3
2274,-203,6,993,-17,17,1
2275,-193,-2,964,-16,-9,-3
2276,-11,5,1005,-10,-27,-10
2277,156,14,1017,-13,-25,-11
2278,213,30,1002,-12,-3,-7
2279,121,39,999,-11,22,0
2280,-83,34,1005,-17,32,5
2281,-197,9,987,-18,16,1
2282,-196,-4,968,-15,-7,-3
2283,-16,7,1000,-12,-31,-9
2284,151,12,1020,-9,-27,-12
2285,217,30,1003,-11,-4,-7
2286,125,42,998,-13,21,0
2287,-74,34,1006,-16,34,3
2288,-201,4,988,-18,18,0
2289,-196,0,964,-13,-7,-5
2290,-26,6,1005,-10,-28,-10
2291,147,18,1016,-9,-26,-12
2292,213,26,1005,-11,-4,-7
2293,128,42,996,-14,21,-1
2294,-72,30,1007,-16,33,4
2295,-197,9,985,-19,17,1
2296,-201,-1,969,-15,-6,-2
2297,-21,7,997,-11,-29,-8
2298,141,11,1021,-12,-26,-11
2299,220,32,1003,-10,-3,-8
2300,126,37,998,-14,22,-1
2301,-64,34,1004,-13,32,2
2302,-202,7,993,-16,18,1
2303,-197,3,966,-16,-6,-4
2304,-30,3,999,-12,-28,-9
2305,141,16,1017,-11,-27,-11
2306,217,24,1013,-13,-5,-8
2307,132,42,994,-13,21,0
2308,-62,30,1002,-15,32,3
2309,-198,14,991,-18,18,1
2310,-201,1,971,-14,-6,-2
2311,-30,5,995,-10,-27,-9
2312,134,12,1018,-12,-26,-11
2313,220,28,1012,-11,-7,-8
2314,133,42,997,-14,20,-2
2315,-59,32,1000,-17,32,2
2316,-197,13,993,-16,19,1
2317,-203,1,969,-17,-6,-3
2318,-32,4,997,-12,-27,-10
2319,134,11,1020,-11,-26,-11
2320,215,27,1010,-12,-6,-9
2321,136,41,995,-13,19,-3
2322,-56,30,1002,-16,32,3
2323,-195,12,987,-15,19,1
2324,-204,1,969,-16,-4,-3
2325,-39,6,996,-11,-27,-9
2326,129,10,1020,-10,-26,-11
2327,219,28,1012,-12,-8,-8
2328,139,39,995,-14,18,-2
2329,-50,35,1003,-15,30,3
2330,-193,11,986,-16,20,3
2331,-203,2,970,-16,-4,-2
2332,-45,5,1003,-13,-27,-9
2333,123,10,1012,-10,-28,-11
2334,217,24,1009,-12,-7,-10
2335,144,38,1000,-13,17,-2
2336,-45,33,995,-16,31,3
2337,-191,12,989,-17,21,3
2338,-205,5,968,-15,-5,-2
2339,-52,6,999,-12,-27,-9
2340,124,12,1019,-12,-28,-12
2341,216,24,1010,-12,-8,-7
2342,150,39,999,-14,17,-1
2343,-44,31,1003,-15,32,4
2344,-186,16,982,-17,20,1
2345,-206,4,971,-15,-3,-2
2346,-53,8,999,-12,-26,-8
2347,115,10,1017,-11,-26,-11
2348,216,31,1007,-11,-9,-9
2349,143,36,1004,-13,17,-1
2350,-34,28,1002,-15,30,2
2351,-185,8,983,-17,20,4
2352,-202,5,971,-14,-4,-2
2353,-59,0,1002,-13,-26,-8
2354,114,16,1016,-10,-27,-10
2355,216,28,1006,-12,-8,-8
2356,150,42,1001,-14,17,-4
2357,-33,27,1007,-16,32,3
2358,-182,12,977,-15,22,2
2359,-204,2,971,-15,-2,-2
2360,-58,4,1004,-13,-25,-7
2361,110,10,1013,-11,-26,-9
2362,219,32,1003,-11,-10,-9
2363,154,39,1007,-14,17,-3
2364,-33,34,1006,-15,32,3
2365,-179,13,979,-15,21,3
2366,-209,6,971,-16,-1,-2
2367,-65,-3,998,-16,-26,-8
2368,108,8,1017,-15,-27,-10
2369,217,31,1000,-11,-8,-7
2370,156,41,1006,-14,15,-3
2371,-25,29,1013,-14,31,3
2372,-180,16,973,-17,22,3
2373,-207,8,972,-13,0,-1
2374,-72,0,1001,-13,-24,-7
2375,100,12,1011,-12,-29,-10
2376,219,27,1005,-10,-11,-10
2377,152,40,1003,-14,16,-3
2378,-18,30,1009,-16,30,3
2379,-182,11,980,-14,22,2
2380,-206,7,967,-15,-1,0
2381,-73,-1,1002,-12,-24,-6
2382,98,14,1015,-10,-28,-11
2383,222,31,1005,-11,-11,-10
2384,161,45,1005,-12,16,-3
2385,-15,31,1010,-15,31,3
2386,-176,14,981,-16,23,3
2387,-210,2,964,-15,1,0
2388,-81,-4,1001,-14,-25,-8
2389,95,5,1014,-10,-30,-10
2390,217,33,1003,-11,-11,-9
2391,167,43,1006,-13,16,-4
2392,-15,31,1013,-15,32,3
2393,-171,18,975,-18,24,3
2394,-212,4,967,-15,1,-1
2395,-84,-3,998,-14,-25,-9
2396,94,6,1017,-12,-30,-11
2397,218,33,1005,-11,-13,-10
2398,166,40,1004,-11,15,-3
2399,-3,31,1016,-13,31,2
2400,-173,20,978,-16,24,2
2401,-213,8,966,-15,3,-2
2402,-87,-5,997,-14,-23,-7
2403,82,8,1018,-13,-28,-11
2404,220,29,1004,-10,-14,-10
2405,167,41,1005,-13,15,-2
2406,-2,30,1012,-14,31,3
2407,-168,19,981,-17,25,2
2408,-210,5,965,-14,3,0
2409,-94,-4,995,-13,-23,-7
2410,84,6,1017,-12,-29,-10
2411,217,29,1006,-11,-14,-9
2412,173,42,1004,-11,14,-4
2413,1,30,1013,-15,30,2
2414,-165,16,982,-16,24,3
2415,-210,5,965,-15,2,0
2416,-99,-2,993,-13,-22,-8
2417,82,9,1015,-11,-29,-11
2418,215,29,1011,-11,-14,-10
2419,174,41,999,-14,13,-4
2420,6,31,1016,-15,32,2
2421,-160,18,980,-15,25,3
2422,-216,9,967,-16,4,1
2423,-103,0,992,-14,-23,-7
2424,82,6,1016,-12,-29,-10
2425,211,30,1009,-10,-16,-10
2426,177,41,1003,-13,12,-3
2427,14,28,1015,-14,31,2
2428,-159,18,974,-15,26,3
2429,-212,9,970,-15,3,0
2430,-108,-2,992,-14,-22,-8
2431,75,6,1012,-13,-30,-10
2432,214,31,1011,-11,-17,-9
2433,178,36,1008,-12,12,-3
2434,17,31,1006,-16,30,2
2435,-158,18,983,-17,26,3
2436,-210,12,969,-13,4,0
2437,-112,-6,992,-13,-21,-7
2438,72,12,1010,-10,-30,-10
2439,210,29,1018,-9,-17,-10
2440,180,42,1004,-12,11,-3
2441,20,28,1010,-16,31,3
2442,-154,22,983,-17,26,2
2443,-214,7,973,-16,5,0
2444,-114,-5,984,-13,-21,-7
2445,65,9,1012,-12,-30,-11
2446,209,29,1014,-12,-17,-10
2447,179,36,1005,-13,9,-5
2448,26,31,1007,-16,29,2
2449,-157,16,983,-17,27,3
2450,-210,9,976,-15,5,0
2451,-119,-5,986,-14,-20,-6
2452,65,12,1011,-11,-28,-10
2453,209,27,1015,-12,-17,-10
2454,181,37,1005,-13,10,-5
2455,30,31,1009,-16,29,3
2456,-153,19,980,-17,26,3
2457,-213,9,977,-15,6,0
2458,-122,-4,988,-13,-19,-6
2459,61,8,1007,-12,-29,-9
2460,208,25,1015,-11,-18,-10
2461,183,40,1008,-14,10,-5
2462,33,32,1008,-14,30,2
2463,-150,21,980,-15,29,4
2464,-215,4,981,-17,6,0
2465,-125,-2,980,-13,-19,-7
2466,59,5,1011,-13,-31,-11
2467,206,28,1010,-9,-19,-11
2468,183,36,1014,-12,10,-4
2469,39,40,1006,-15,28,2
2470,-144,22,982,-16,29,3
2471,-218,9,976,-17,6,-1
2472,-131,-7,982,-14,-19,-6
2473,55,11,1009,-11,-30,-10
2474,204,29,1013,-12,-19,-9
2475,188,42,1007,-11,9,-4
2476,43,32,1010,-16,29,2
2477,-141,28,983,-16,28,2
2478,-216,8,979,-16,7,0
2479,-135,-6,982,-14,-19,-5
2480,53,3,1005,-10,-30,-9
2481,204,29,1013,-11,-19,-10
2482,190,36,1011,-13,8,-4
2483,51,37,1010,-15,29,2
2484,-144,29,984,-19,28,4
2485,-217,4,979,-16,8,1
2486,-138,-6,981,-14,-18,-6
2487,50,3,1005,-11,-29,-11
2488,204,24,1013,-8,-18,-12
2489,189,34,1012,-12,8,-4
2490,50,37,1009,-14,28,3
2491,-134,25,988,-15,29,3
2492,-217,7,978,-15,8,1
2493,-141,-4,980,-14,-18,-6
2494,46,0,1004,-13,-30,-10
2495,196,25,1012,-11,-19,-11
2496,195,31,1008,-12,6,-6
2497,53,37,1014,-13,27,0
2498,-132,27,980,-14,29,3
2499,-213,10,982,-14,11,0
2500,-149,-5,978,-15,-17,-4
2501,46,4,1003,-10,-30,-10
2502,194,23,1014,-11,-21,-11
2503,194,35,1008,-12,7,-4
2504,59,36,1016,-17,26,1
2505,-130,26,982,-16,30,4
2506,-214,9,980,-15,9,1
2507,-147,-6,982,-15,-16,-6
2508,38,8,999,-11,-29,-9
2509,195,22,1011,-12,-20,-11
2510,193,32,1012,-12,5,-5
2511,65,37,1011,-13,27,0
2512,-126,28,988,-15,29,3
2513,-211,9,973,-17,10,0
2514,-153,-6,983,-14,-15,-6
2515,38,5,1002,-12,-30,-10
2516,189,22,1008,-9,-21,-10
2517,195,32,1012,-13,6,-5
2518,71,38,1019,-14,26,1
2519,-122,27,985,-16,31,3
2520,-209,11,977,-15,11,0
2521,-162,-7,981,-14,-16,-5
2522,32,8,1003,-11,-31,-9
2523,188,22,1010,-10,-20,-10
2524,195,34,1012,-13,6,-4
2525,75,35,1013,-15,25,1
2526,-121,30,988,-17,31,5
2527,-212,9,975,-15,11,1
2528,-164,-5,981,-15,-15,-4
2529,27,9,1006,-12,-30,-9
2530,186,22,1008,-12,-21,-11
2531,201,32,1010,-11,4,-5
2532,73,37,1014,-14,26,2
2533,-115,32,990,-15,29,3
2534,-213,5,975,-17,12,1
2535,-166,-2,978,-13,-15,-5
2536,23,4,1008,-13,-30,-11
2537,180,24,1007,-9,-22,-12
2538,206,34,1005,-13,2,-5
2539,82,35,1014,-15,25,0
2540,-113,32,994,-16,30,4
2541,-208,3,975,-17,13,2
2542,-173,-2,977,-14,-13,-3
2543,24,7,1010,-12,-31,-10
2544,182,23,1006,-11,-23,-11
2545,208,30,1006,-11,2,-6
2546,87,41,1014,-13,25,-1
2547,-111,29,995,-18,30,3
2548,-207,10,974,-13,13,1
2549,-177,-9,976,-15,-14,-5
2550,21,6,1014,-11,-31,-10
2551,178,19,1008,-11,-24,-12
2552,209,30,1002,-12,2,-5
2553,90,37,1013,-13,25,0
2554,-106,35,1000,-16,31,4
2555,-207,11,973,-15,13,1
2556,-174,-8,979,-14,-12,-4
2557,11,4,1005,-13,-29,-8
2558,175,18,1008,-11,-23,-12
2559,208,28,1004,-13,1,-5
2560,93,40,1010,-13,25,0
2561,-100,33,998,-15,32,3
2562,-209,9,978,-15,15,1
2563,-178,-6,970,-14,-12,-4
2564,8,5,1015,-11,-29,-9
2565,169,20,1004,-11,-25,-11
2566,211,25,1003,-11,1,-7
2567,95,40,1007,-13,24,0
2568,-100,31,1002,-15,31,5
2569,-204,7,980,-15,15,0
2570,-184,-2,968,-14,-10,-4
2571,5,11,1010,-11,-30,-10
2572,166,16,1014,-11,-24,-12
2573,211,31,996,-10,1,-6
2574,101,36,1006,-14,24,1
2575,-93,34,1004,-15,31,2
2576,-208,6,980,-17,15,1
2577,-183,0,967,-12,-10,-4
2578,0,5,1012,-12,-29,-10
2579,165,21,1011,-11,-24,-11
2580,211,24,999,-10,-1,-5
2581,107,41,1006,-13,24,-1
2582,-93,32,1005,-18,32,5
2583,-198,12,981,-17,14,2
2584,-189,-3,971,-16,-9,-3
2585,-2,9,1003,-12,-29,-8
2586,160,15,1017,-14,-26,-11
2587,214,28,997,-12,-2,-7
2588,107,38,1004,-11,24,0
2589,-85,36,1005,-16,32,3
2590,-203,7,987,-18,16,2
2591,-186,-4,966,-14,-8,-4
2592,-7,6,1006,-11,-29,-9
2593,158,19,1015,-10,-24,-11
2594,214,30,1004,-12,-1,-6
2595,113,39,998,-14,22,0
2596,-88,34,1005,-13,32,4
2597,-201,5,988,-18,16,2
2598,-194,-5,965,-15,-8,-4
2599,-11,9,1004,-10,-29,-10
2600,151,15,1015,-12,-24,-11
2601,212,29,1005,-10,-2,-7
2602,118,41,1000,-14,22,0
2603,-82,32,1001,-17,32,5
2604,-201,2,988,-16,17,1
2605,-192,0,965,-14,-7,-4
2606,-18,6,1001,-10,-28,-9
2607,150,17,1019,-9,-26,-11
2608,214,28,1007,-12,-3,-7
2609,121,43,994,-15,22,-1
2610,-75,32,1004,-17,33,4
2611,-198,5,992,-18,17,0
2612,-196,0,964,-15,-6,-3
2613,-20,6,999,-10,-28,-9
2614,145,14,1019,-12,-25,-10
2615,212,27,1005,-11,-4,-8
2616,130,41,996,-13,22,-1
2617,-71,32,1002,-14,32,3
2618,-193,13,988,-18,17,1
2619,-201,-5,971,-14,-7,-3
2620,-23,8,994,-11,-29,-8
2621,139,9,1023,-14,-27,-10
2622,216,30,1005,-9,-6,-7
2623,134,40,997,-14,21,-1
2624,-64,38,1002,-15,33,4
2625,-195,8,990,-17,18,2
2626,-201,2,969,-16,-6,-3
2627,-30,3,994,-11,-28,-9
2628,136,12,1019,-11,-25,-9
2629,220,31,1013,-12,-6,-6
2630,135,40,995,-13,19,-2
2631,-55,33,1001,-15,31,2
2632,-196,6,992,-17,18,1
2633,-200,3,969,-15,-5,-3
2634,-34,2,998,-12,-28,-8
2635,130,13,1018,-9,-26,-10
2636,217,27,1010,-13,-6,-7
2637,138,41,998,-14,20,-2
2638,-53,31,1001,-16,32,4
2639,-195,10,987,-17,18,1
2640,-203,2,970,-15,-4,-2
2641,-37,5,999,-12,-27,-8
2642,121,13,1013,-11,-26,-11
2643,219,24,1014,-11,-8,-8
2644,139,42,998,-14,17,-1
2645,-51,36,999,-16,31,3
2646,-192,8,988,-17,19,1
2647,-207,2,969,-16,-4,-3
2648,-42,3,998,-11,-27,-8
2649,121,14,1015,-12,-28,-12
2650,217,27,1015,-10,-8,-8
2651,141,39,996,-15,17,-1
2652,-46,31,1004,-16,32,3
2653,-188,10,987,-14,20,2
2654,-204,5,971,-15,-3,-2
2655,-47,5,997,-13,-27,-8
2656,119,12,1016,-10,-26,-10
2657,217,25,1009,-11,-10,-7
2658,141,39,1002,-15,17,-1
2659,-38,28,1001,-15,31,4
2660,-189,9,984,-16,22,2
2661,-202,6,968,-13,-2,-3
2662,-53,0,1004,-13,-27,-9
2663,117,14,1014,-11,-26,-11
2664,220,25,1010,-12,-9,-9
2665,151,40,1002,-13,18,-3
2666,-37,30,1003,-17,33,4
2667,-184,14,980,-16,21,2
2668,-211,1,974,-14,-2,-1
2669,-55,0,1000,-14,-27,-8
2670,113,9,1015,-11,-27,-11
2671,217,28,1008,-11,-9,-9
2672,153,42,1004,-15,17,-2
2673,-35,33,1006,-15,32,4
2674,-185,14,980,-14,22,2
2675,-208,0,971,-16,-2,-2
2676,-63,0,1002,-13,-26,-8
2677,112,10,1015,-11,-27,-10
2678,218,32,1007,-11,-9,-9
2679,152,40,1002,-13,17,-2
2680,-28,32,1008,-18,31,2
2681,-184,13,978,-17,23,1
2682,-206,5,969,-16,-1,-2
2683,-65,0,1005,-14,-26,-7
2684,107,11,1009,-9,-28,-11
2685,219,29,1007,-11,-11,-9
2686,155,38,1003,-14,15,-2
2687,-26,31,1010,-15,31,4
2688,-176,13,977,-18,21,2
2689,-211,4,969,-15,0,-1
2690,-69,3,1004,-12,-24,-9
2691,97,6,1016,-13,-28,-9
2692,223,31,1001,-9,-11,-10
2693,157,37,1006,-13,16,-3
2694,-18,34,1013,-16,32,3
2695,-175,12,976,-16,24,2
2696,-212,9,968,-17,0,-1
2697,-77,-1,1003,-14,-25,-7
2698,98,8,1014,-14,-28,-11
2699,218,27,1003,-12,-11,-9
2700,160,40,1006,-12,15,-3
2701,-13,29,1011,-17,30,2
2702,-171,14,978,-11,22,2
2703,-209,7,967,6,1,-3
2704,-80,0,1000,-14,-25,-7
2705,93,9,1017,-3,-27,-11
2706,215,27,1002,-19,-13,-8
2707,165,39,1006,-8,14,-4
2708,-11,28,1013,-15,31,3
2709,-173,17,977,-18,24,2
2710,-209,7,966,-11,2,0
2711,-86,0,996,-18,-23,-6
2712,89,11,1018,-11,-30,-10
2713,215,24,1004,-10,-12,-11
2714,162,42,1004,-16,13,-4
2715,-3,27,1015,-13,29,2
2716,-173,16,980,-16,24,3
2717,-208,7,965,-16,1,0
2718,-91,-1,999,-13,-22,-7
2719,83,12,1015,-13,-29,-9
2720,217,26,1009,-11,-14,-10
2721,167,42,1002,-12,14,-3
2722,0,27,1014,-15,31,2
2723,-166,17,982,-16,26,1
2724,-212,7,962,-15,4,0
2725,-95,0,996,-12,-22,-7
2726,80,7,1016,-11,-28,-10
2727,215,31,1007,-11,-13,-10
2728,171,39,1005,-12,14,-3
2729,4,31,1014,-15,31,2
2730,-161,18,981,-16,24,2
2731,-209,7,963,-15,4,0
2732,-103,0,996,-14,-21,-8
2733,84,11,1015,-14,-30,-10
2734,213,24,1010,-13,-15,-9
2735,177,41,999,-14,13,-4
2736,6,30,1015,-13,29,3
2737,-159,19,978,-15,24,2
2738,-213,8,967,-17,2,1
2739,-103,-2,991,-13,-23,-8
2740,74,8,1014,-13,-29,-10
2741,212,31,1011,-12,-15,-10
2742,173,38,1006,-14,12,-3
2743,17,30,1008,-14,30,2
2744,-158,15,982,-17,27,3
2745,-211,8,968,-14,4,-1
2746,-109,-5,991,-13,-20,-6
2747,73,10,1011,-11,-29,-11
2748,212,29,1014,-11,-15,-10
2749,176,42,1005,-13,12,-4
2750,21,32,1008,-14,30,2
2751,-156,22,981,-15,26,2
2752,-215,5,975,-17,5,0
2753,-115,-10,986,-13,-22,-6
2754,69,8,1012,-10,-29,-10
2755,211,31,1014,-11,-16,-10
2756,181,40,1008,-14,12,-3
2757,26,34,1009,-15,29,3
2758,-157,22,982,-16,27,4
2759,-213,3,972,-17,5,1
2760,-114,-1,985,-14,-19,-6
2761,67,5,1009,-12,-30,-10
2762,208,32,1015,-10,-18,-10
2763,182,38,1005,-11,11,-3
2764,29,34,1010,-13,29,1
2765,-153,21,981,-17,28,3
2766,-216,9,974,-17,6,1
2767,-119,-7,984,-12,-20,-7
2768,61,1,1008,-10,-29,-11
2769,209,26,1013,-10,-19,-11
2770,183,35,1010,-12,11,-3
2771,38,35,1010,-15,29,1
2772,-149,26,980,-18,28,3
2773,-213,10,976,-16,6,-1
2774,-126,-4,986,-14,-20,-7
2775,58,7,1006,-11,-28,-10
2776,206,24,1013,-13,-19,-10
2777,183,37,1011,-13,9,-3
2778,43,35,1010,-14,30,1
2779,-141,23,978,-16,29,3
2780,-217,9,981,-15,8,1
2781,-135,-7,980,-15,-19,-6
2782,53,9,1006,-11,-29,-11
2783,202,25,1011,-10,-17,-11
2784,189,37,1012,-12,8,-5
2785,44,30,1008,-15,26,1
2786,-140,25,982,-14,29,3
2787,-213,7,979,-16,7,0
2788,-140,0,980,-14,-18,-5
2789,52,7,1005,-11,-30,-11
2790,200,27,1010,-10,-18,-11
2791,183,36,1010,-13,8,-5
2792,54,34,1011,-15,27,0
2793,-137,23,981,-15,29,3
2794,-214,8,978,-15,9,1
2795,-143,-7,983,-14,-17,-6
2796,47,9,1002,-10,-30,-10
2797,198,27,1010,-11,-20,-10
2798,191,35,1014,-13,8,-4
2799,55,30,1009,-17,27,1
2800,-133,23,981,-16,29,4
2801,-212,5,981,-16,9,2
2802,-143,-6,978,-15,-18,-5
2803,47,11,1006,-12,-30,-10
2804,189,27,1009,-11,-20,-10
2805,189,34,1012,-13,7,-4
2806,63,29,1014,-16,27,0
2807,-132,27,985,-15,28,4
2808,-207,8,975,-15,8,1
2809,-151,-5,982,-13,-17,-5
2810,40,10,998,-12,-31,-11
2811,190,25,1014,-9,-20,-11
2812,196,34,1006,-14,5,-5
2813,60,32,1017,-17,26,1
2814,-124,29,986,-15,30,3
2815,-210,6,976,-16,10,1
2816,-153,-5,979,-12,-18,-6
2817,34,11,1004,-11,-31,-9
2818,192,27,1008,-10,-21,-11
2819,196,36,1011,-13,5,-5
2820,68,34,1016,-18,28,0
2821,-123,29,987,-17,30,3
2822,-211,5,976,-15,10,1
2823,-158,-4,978,-13,-15,-5
2824,28,8,1005,-11,-29,-10
2825,188,26,1010,-9,-21,-11
2826,199,34,1009,-13,5,-4
2827,73,33,1016,-15,26,1
2828,-120,32,991,-15,31,3
2829,-212,5,974,-15,13,0
2830,-161,-8,981,-12,-15,-5
2831,23,9,1004,-11,-29,-10
2832,183,24,1005,-12,-21,-10
2833,199,29,1009,-12,4,-6
2834,76,37,1014,-13,26,-1
2835,-117,30,992,-16,30,3
2836,-208,5,973,-15,12,0
2837,-170,-7,979,-13,-14,-5
2838,24,9,1008,-10,-29,-11
2839,178,20,1007,-11,-23,-11
2840,204,33,1005,-12,3,-6
2841,82,37,1011,-16,24,-1
2842,-114,35,996,-16,31,3
2843,-202,6,975,-17,12,0
2844,-174,-2,975,-14,-12,-5
2845,21,7,1009,-11,-29,-8
2846,179,23,1007,-12,-22,-11
2847,205,32,1003,-12,2,-5
2848,87,34,1011,-15,24,-1
2849,-107,33,999,-16,31,3
2850,-205,3,975,-15,13,2
2851,-171,-4,975,-14,-13,-5
2852,13,7,1008,-14,-30,-9
2853,177,25,1009,-11,-23,-12
2854,208,29,1005,-13,2,-6
2855,93,39,1009,-13,24,0
2856,-104,33,1000,-18,31,5
2857,-205,5,978,-15,14,1
2858,-173,-2,971,-14,-12,-4
2859,10,9,1010,-12,-28,-9
2860,173,20,1010,-12,-23,-12
2861,206,24,1004,-12,2,-7
2862,96,41,1003,-13,25,1
2863,-103,34,1008,-15,32,4
2864,-203,9,976,-16,14,1
2865,-179,-5,973,-15,-12,-3
2866,5,9,1010,-11,-29,-7
2867,164,16,1010,-13,-25,-10
2868,208,26,1002,-11,1,-7
2869,100,41,1006,-12,23,-1
2870,-99,33,1005,-17,31,5
2871,-201,6,980,-16,15,2
2872,-187,-5,966,-15,-10,-3
2873,0,11,1010,-12,-29,-10
2874,162,14,1015,-12,-24,-11
2875,207,26,996,-12,-1,-7
2876,103,36,1004,-12,23,-1
2877,-92,30,1007,-18,31,3
2878,-201,8,979,-16,15,2
2879,-185,-1,967,-16,-9,-4
2880,-5,8,1007,-14,-29,-10
2881,158,20,1016,-11,-24,-11
2882,212,24,1001,-12,-2,-6
2883,111,38,1003,-13,23,0
2884,-84,32,1005,-14,32,3
2885,-203,8,986,-16,16,1
2886,-190,0,966,-14,-9,-4
2887,-6,5,1009,-10,-29,-9
2888,156,20,1016,-12,-24,-12
2889,214,26,1002,-11,-2,-8
2890,121,41,999,-14,23,-2
2891,-84,34,1009,-16,33,4
2892,-199,9,984,-18,17,2
2893,-192,-4,968,-16,-8,-3
2894,-12,8,998,-11,-29,-9
2895,153,13,1019,-12,-24,-10
2896,214,28,1003,-10,-2,-7
2897,119,38,998,-13,22,0
2898,-75,37,1005,-16,34,4
2899,-203,6,991,-15,18,1
2900,-192,-1,965,-15,-9,-4
2901,-20,6,1001,-11,-28,-8
2902,148,17,1017,-11,-25,-10
2903,216,26,1008,-11,-4,-7
2904,121,43,996,-11,22,0
2905,-73,33,1005,-16,32,4
2906,-201,6,991,-15,18,2
2907,-198,0,965,-15,-7,-3
2908,-24,5,1000,-11,-28,-8
2909,142,14,1021,-10,-25,-10
2910,215,28,1007,-10,-4,-8
2911,129,41,994,-13,21,-2
2912,-67,35,1007,-15,32,4
2913,-197,8,988,-17,17,0
2914,-199,-1,965,-13,-8,-2
2915,-27,5,999,-12,-30,-9
2916,140,15,1020,-10,-27,-11
2917,217,28,1008,-10,-5,-9
2918,131,40,994,-13,21,-2
2919,-65,36,1006,-16,32,3
2920,-198,10,989,-17,19,1
2921,-202,0,968,-15,-6,-4
2922,-28,5,998,-11,-27,-9
2923,137,15,1016,-10,-26,-12
2924,221,28,1011,-11,-5,-8
2925,132,43,998,-12,21,-2
2926,-56,34,998,-18,32,3
2927,-196,8,990,-18,19,2
2928,-202,3,965,-17,-6,-2
2929,-32,0,1000,-12,-29,-8
2930,133,13,1018,-11,-27,-11
2931,220,25,1010,-12,-6,-7
2932,140,42,998,-12,19,-3
2933,-54,33,999,-16,32,4
2934,-194,13,988,-16,20,2
2935,-205,1,968,-16,-4,-2
2936,-39,5,999,-13,-27,-8
2937,128,11,1015,-11,-26,-10
2938,221,26,1014,-11,-8,-8
2939,139,39,995,-15,19,-2
2940,-47,32,1001,-15,32,3
2941,-195,8,986,-15,20,2
2942,-208,4,967,-15,-3,-2
2943,-44,0,1000,-11,-28,-10
2944,124,14,1017,-12,-27,-11
2945,219,29,1010,-12,-8,-8
2946,145,40,997,-13,19,-2
2947,-48,30,1005,-18,33,4
2948,-194,9,981,-14,22,2
2949,-210,2,971,-16,-3,-1
2950,-51,0,997,-13,-27,-8
2951,121,14,1017,-10,-28,-10
2952,221,26,1005,-11,-8,-8
2953,147,43,1000,-13,19,-2
2954,-36,34,1005,-16,33,3
2955,-195,8,979,-15,21,3
2956,-204,-1,970,-15,-3,-3
2957,-58,-2,1004,-12,-27,-9
2958,120,15,1011,-9,-28,-11
2959,226,28,1012,-10,-9,-9
2960,150,43,997,-15,18,-2
2961,-36,33,1009,-16,32,3
2962,-187,9,979,-17,23,1
2963,-215,3,971,-16,-2,-2
2964,-54,-3,1000,-13,-28,-10
2965,109,11,1018,-12,-28,-10
2966,225,32,1002,-10,-11,-9
2967,154,40,1006,-14,17,-2
2968,-31,35,1006,-16,32,2
2969,-184,11,978,-17,21,1
2970,-209,6,966,-15,0,-1
2971,-65,0,1005,-15,-26,-7
2972,112,12,1015,-12,-29,-12
2973,217,29,1002,-10,-10,-8
2974,164,43,1004,-13,16,-3
2975,-28,29,1012,-17,32,2
2976,-180,18,971,-14,23,2
2977,-210,3,971,-15,0,-1
2978,-71,3,1002,-13,-25,-8
2979,105,4,1014,-12,-28,-10
2980,215,32,1004,-10,-11,-8
2981,161,40,1004,-13,15,-2
2982,-19,29,1013,-16,31,2
2983,-178,16,976,-16,23,3
2984,-208,10,970,-16,1,-2
2985,-76,-1,1002,-15,-24,-8
2986,95,10,1017,-9,-29,-11
2987,219,30,1001,-13,-12,-10
2988,161,38,1003,-13,15,-4
2989,-13,31,1014,-17,31,3
2990,-176,17,976,-18,23,3
2991,-208,5,966,-14,3,0
2992,-80,-2,997,-13,-25,-8
2993,91,12,1015,-13,-28,-11
2994,220,27,1005,-11,-13,-10
2995,164,37,1002,-13,14,-2
2996,-9,32,1015,-15,30,3
2997,-173,17,976,-16,25,2
2998,-208,7,967,-17,1,-1
2999,-85,-2,998,-13,-24,-9
3000,89,8,1020,-12,-29,-11
3001,220,28,1004,-12,-14,-10
3002,168,41,1003,-13,16,-3
3003,-2,28,1016,-17,31,3
3004,-173,13,973,-16,25,3
3005,-212,7,969,-15,2,0
3006,-92,-2,999,-13,-25,-7
3007,87,10,1013,-10,-30,-10
3008,218,28,1006,-14,-14,-8
3009,167,44,1004,-11,14,-3
3010,0,29,1015,-16,31,2
3011,-169,13,976,-16,26,1
3012,-211,8,967,-16,1,-1
3013,-97,-2,995,-12,-23,-8
3014,83,7,1016,-10,-30,-10
3015,214,29,1010,-10,-14,-8
3016,170,42,1003,-12,14,-2
3017,3,30,1013,-16,30,2
3018,-165,16,978,-16,23,2
3019,-211,3,966,-15,3,1
3020,-100,-2,993,-13,-22,-7
3021,79,6,1018,-10,-30,-11
3022,213,29,1007,-10,-15,-9
3023,173,45,1005,-12,14,-3
3024,5,31,1014,-15,31,1
3025,-163,21,977,-17,26,4
3026,-210,7,969,-15,4,0
3027,-104,-3,990,-13,-20,-7
3028,77,2,1015,-12,-29,-12
3029,216,33,1012,-12,-15,-10
3030,174,39,1006,-15,11,-3
3031,14,33,1008,-15,30,2
3032,-163,16,983,-16,26,3
3033,-212,10,966,-14,3,-1
3034,-111,-3,991,-15,-20,-7
3035,76,8,1015,-12,-31,-10
3036,212,28,1011,-12,-17,-10
3037,181,41,1004,-10,10,-5
3038,19,32,1015,-10,32,3
3039,-159,19,976,-20,25,3
3040,-214,6,973,-13,5,-1
3041,-112,-2,988,-15,-20,-7
3042,68,12,1011,-13,-30,-10
3043,213,28,1010,-8,-18,-11
3044,178,37,1010,-16,10,-3
3045,26,33,1003,-13,30,2
3046,-157,14,986,-17,27,2
3047,-212,11,975,-17,4,0
3048,-119,-5,985,-11,-20,-4
3049,72,14,1012,-12,-30,-11
3050,208,26,1015,-12,-16,-10
3051,183,43,1007,-10,10,-4
3052,27,29,1008,-18,30,2
3053,-154,23,981,-14,29,3
3054,-210,4,972,-17,6,-1
3055,-125,-4,987,-14,-21,-6
3056,62,6,1008,-11,-30,-10
3057,209,28,1013,-11,-17,-11
3058,180,38,1008,-11,11,-4
3059,33,36,1010,-15,29,2
3060,-147,23,978,-18,28,3
3061,-218,6,976,-15,7,0
3062,-124,-6,986,-14,-21,-6
3063,56,5,1002,-12,-30,-10
3064,207,30,1014,-10,-18,-11
3065,183,38,1015,-13,9,-3
3066,39,36,1003,-12,29,2
3067,-144,24,982,-17,29,4
3068,-213,8,984,-17,8,1
3069,-134,-9,978,-14,-18,-6
3070,57,7,1005,-10,-30,-11
3071,201,25,1013,-9,-18,-10
3072,191,40,1010,-10,9,-4
3073,43,31,1007,-16,28,1
3074,-140,26,981,-15,28,4
3075,-213,5,982,-15,8,1
3076,-140,-3,978,-14,-18,-6
3077,52,7,1008,-11,-30,-11
3078,204,26,1011,-10,-19,-11
3079,187,35,1012,-15,9,-5
3080,53,31,1011,-15,28,1
3081,-142,25,982,-18,28,4
3082,-213,5,977,-17,7,1
3083,-139,-5,984,-14,-17,-6
3084,47,6,1002,-11,-29,-10
3085,197,25,1011,-8,-19,-9
3086,189,37,1013,-13,7,-3
3087,53,38,1009,-15,28,2
3088,-133,21,985,-16,29,3
3089,-214,4,977,-16,9,1
3090,-146,-8,981,-13,-17,-6
3091,45,7,1002,-11,-31,-11
3092,194,28,1011,-9,-20,-10
3093,193,37,1010,-11,5,-4
3094,57,37,1014,-16,27,2
3095,-130,25,984,-16,30,4
3096,-213,5,977,-16,10,0
3097,-151,-8,983,-13,-17,-6
3098,39,7,1005,-10,-30,-10
3099,194,24,1010,-10,-20,-11
3100,193,37,1013,-12,7,-4
3101,65,36,1013,-14,27,1
3102,-128,28,984,-16,31,4
3103,-213,7,978,-15,9,-1
3104,-158,-6,981,-15,-17,-6
3105,37,8,1000,-11,-30,-10
3106,191,25,1011,-11,-21,-10
3107,197,32,1010,-12,7,-4
3108,72,35,1013,-16,25,0
3109,-122,28,989,-16,30,3
3110,-211,12,974,-14,10,1
3111,-158,-7,981,-17,-16,-6
3112,30,11,1002,-11,-31,-10
3113,190,23,1009,-9,-22,-11
3114,198,32,1007,-11,5,-6
3115,77,36,1015,-15,25,1
3116,-120,30,987,-17,30,4
3117,-213,8,978,-15,12,0
3118,-161,-7,977,-14,-15,-5
3119,23,11,1005,-12,-31,-9
3120,189,19,1009,-9,-22,-11
3121,198,32,1009,-12,5,-5
3122,78,35,1008,-15,25,-1
3123,-119,31,997,-15,31,3
3124,-209,8,974,-14,12,0
3125,-165,-7,976,-14,-14,-5
3126,20,9,1009,-11,-30,-10
3127,179,21,1007,-13,-22,-11
3128,205,32,1006,-12,3,-6
3129,79,36,1012,-13,25,1
3130,-112,35,997,-17,31,3
3131,-206,2,976,-16,14,1
3132,-173,-4,972,-16,-14,-3
3133,20,3,1014,-10,-31,-11
3134,179,19,1008,-8,-23,-10
3135,203,31,997,-11,3,-6
3136,88,41,1015,-12,24,-1
3137,-113,34,996,-18,31,4
3138,-208,8,972,-17,13,2
3139,-175,-7,977,-14,-14,-5
3140,10,10,1012,-12,-30,-9
3141,178,17,1002,-11,-23,-11
3142,206,25,1008,-12,3,-7
3143,90,39,1008,-14,24,-1
3144,-105,34,1000,-17,31,4
3145,-206,14,976,-16,15,1
3146,-179,-3,971,-14,-11,-3
3147,8,7,1012,-11,-30,-10
3148,173,17,1008,-12,-24,-11
3149,208,26,1002,-12,0,-6
3150,96,36,1011,-13,24,0
3151,-96,36,1001,-17,32,4
3152,-206,9,980,-16,15,1
3153,-182,-1,971,-13,-11,-4
3154,5,9,1012,-11,-30,-9
3155,168,18,1010,-10,-24,-11
3156,209,27,999,-12,0,-6
3157,101,38,1005,-13,23,-1
3158,-99,33,1004,-16,31,4
3159,-201,7,980,-16,15,1
3160,-183,-5,970,-15,-11,-4
3161,1,9,1007,-12,-29,-9
3162,164,18,1015,-12,-26,-12
3163,212,29,1000,-12,-1,-6
3164,104,40,1003,-13,24,-1
3165,-90,32,1006,-17,32,3
3166,-204,5,986,-16,16,1
3167,-184,-2,966,-14,-9,-3
3168,-4,5,1009,-12,-28,-9
3169,161,18,1016,-12,-25,-10
3170,211,27,1002,-12,-1,-6
3171,112,42,999,-14,23,-1
3172,-88,31,1009,-16,33,3
3173,-202,10,982,-18,15,0
3174,-191,-6,968,-14,-9,-4
3175,-8,7,1004,-10,-29,-9
3176,154,11,1019,-11,-26,-11
3177,212,29,1001,-13,-4,-7
3178,118,38,998,-13,22,-1
3179,-82,36,1005,-15,32,3
3180,-201,10,987,-16,17,2
3181,-192,-5,967,-15,-7,-3
3182,-17,8,1004,-11,-28,-9
3183,151,15,1019,-11,-27,-12
3184,213,26,1004,-11,-4,-7
3185,119,40,996,-13,23,-1
3186,-76,33,1005,-17,32,4
3187,-201,6,988,-13,17,3
3188,-194,2,966,-15,-8,-2
3189,-22,7,999,-12,-28,-9
3190,147,14,1022,-12,-25,-11
3191,218,29,1007,-12,-5,-8
3192,123,39,997,-12,21,-1
3193,-69,34,1003,-14,32,4
3194,-195,5,993,-18,18,2
3195,-198,0,966,-14,-6,-2
3196,-22,2,999,-12,-28,-8
3197,141,16,1021,-9,-26,-11
3198,214,25,1003,-12,-5,-7
3199,132,42,998,-13,20,-2
3200,-65,32,1002,-17,33,4
3201,-197,11,987,-16,19,1
3202,-198,-2,973,-16,-6,-3
3203,-30,5,995,-11,-28,-9
3204,139,10,1022,-12,-27,-11
3205,217,24,1011,-11,-6,-8
3206,134,40,995,-14,20,-2
3207,-55,35,1003,-15,33,6
3208,-199,11,989,-17,20,3
3209,-198,1,968,-14,-5,-3
3210,-33,3,997,-11,-26,-8
3211,130,14,1016,-11,-26,-11
3212,220,28,1015,-11,-6,-7
3213,137,40,997,-14,19,0
3214,-55,35,999,-15,32,4
3215,-197,8,991,-15,21,1
3216,-204,6,971,-15,-5,-1
3217,-41,3,994,-11,-28,-8
3218,128,13,1018,-12,-28,-11
3219,218,26,1009,-14,-7,-8
3220,141,38,999,-11,19,-3
3221,-52,32,1002,-16,33,3
3222,-191,11,988,-17,20,2
3223,-207,2,966,-15,-6,-3
3224,-46,5,1000,-14,-29,-9
3225,125,14,1014,-11,-28,-11
3226,219,26,1011,-12,-9,-8
3227,143,43,997,-13,18,-1
3228,-44,28,1004,-15,33,2
3229,-194,14,981,-15,21,2
3230,-208,3,970,-16,-4,-1
3231,-50,3,1003,-13,-28,-7
3232,115,14,1016,-12,-26,-10
3233,220,31,1008,-10,-10,-7
3234,149,37,1000,-15,17,-2
3235,-39,32,1006,-15,32,4
3236,-184,9,979,-18,21,3
3237,-206,3,973,-15,-3,-1
3238,-55,1,1000,-11,-27,-8
3239,115,11,1016,-10,-27,-12
3240,219,33,1003,-10,-9,-7
3241,152,44,1001,-14,18,-2
3242,-36,29,1008,-16,33,2
3243,-183,12,976,-15,21,3
3244,-207,1,972,-15,-1,-1
3245,-64,-1,1001,-12,-26,-8
3246,111,6,1011,-10,-28,-11
3247,223,29,1008,-9,-9,-9
3248,154,38,1005,-13,18,-2
3249,-29,33,1009,-14,32,3
3250,-180,13,976,-15,22,1
3251,-208,6,971,-16,-1,-2
3252,-66,0,1002,-13,-26,-8
3253,101,5,1014,-12,-28,-11
3254,223,30,1004,-9,-11,-9
3255,155,37,1003,-12,16,-3
3256,-22,34,1009,-15,31,3
3257,-180,12,976,-18,23,3
3258,-210,7,968,-15,0,-2
3259,-73,-2,1000,-13,-25,-7
3260,98,6,1015,-11,-30,-11
3261,218,30,1005,-10,-11,-8
3262,161,39,1002,-14,16,-2
3263,-19,32,1014,-17,31,3
3264,-175,12,976,-18,22,2
3265,-208,5,969,-14,0,-2
3266,-78,1,999,-12,-24,-9
3267,94,10,1017,-12,-28,-10
3268,218,29,1004,-11,-11,-9
3269,162,41,1001,-12,15,-2
3270,-10,30,1019,-15,31,2
3271,-172,14,975,-16,24,3
3272,-209,4,964,-15,1,-1
3273,-82,2,1000,-13,-23,-8
3274,89,9,1018,-12,-29,-11
3275,218,32,1005,-10,-12,-10
3276,165,36,1003,-15,15,-2
3277,-4,29,1015,-16,31,3
3278,-169,12,978,-17,24,3
3279,-213,8,965,-16,2,-1
3280,-89,0,997,-11,-23,-7
3281,85,9,1015,-11,-29,-11
3282,217,33,1005,-10,-14,-10
3283,170,39,1004,-15,13,-2
3284,0,30,1013,-15,30,3
3285,-168,15,978,-21,25,3
3286,-214,8,962,-15,2,0
3287,-98,-2,996,-13,-24,-6
3288,83,9,1016,-12,-29,-11
3289,215,27,1008,-11,-13,-10
3290,175,39,1005,-11,14,-3
3291,6,34,1012,-14,31,2
3292,-163,18,979,-17,25,3
3293,-215,10,970,-14,5,0
3294,-103,-1,991,-13,-21,-8
3295,76,5,1013,-12,-29,-11
3296,217,26,1013,-12,-16,-9
3297,170,36,1004,-12,13,-3
3298,19,34,1012,-15,29,3
3299,-163,15,983,-15,27,4
3300,-218,16,967,-15,4,-1
3301,-109,-9,991,-14,-21,-8
3302,72,12,1013,-10,-28,-11
3303,214,26,1012,-12,-15,-9
3304,177,38,1007,-12,13,-4
3305,22,28,1010,-16,30,3
3306,-157,21,981,-17,25,3
3307,-213,12,972,-14,4,0
3308,-115,-7,987,-13,-21,-5
3309,71,13,1012,-10,-29,-9
3310,209,24,1012,-11,-16,-11
3311,180,40,1007,-13,11,-4
3312,27,30,1008,-15,31,3
3313,-158,25,980,-17,28,3
3314,-211,6,975,-15,5,0
3315,-119,-2,984,-13,-20,-6
3316,63,6,1009,-14,-30,-9
3317,212,28,1013,-11,-16,-10
3318,181,36,1009,-15,11,-2
3319,34,31,1005,-15,29,2
3320,-151,20,987,-16,26,4
3321,-213,7,972,-15,5,1
3322,-124,-1,986,-12,-20,-6
3323,61,12,1008,-11,-28,-11
3324,202,30,1015,-11,-17,-10
3325,185,36,1007,-12,9,-4
3326,34,27,1010,-16,29,2
3327,-142,23,980,-16,28,3
3328,-215,7,980,-15,7,0
3329,-131,-2,981,-14,-20,-7
3330,57,9,1009,-11,-30,-10
3331,202,27,1011,-12,-18,-12
3332,182,38,1013,-13,7,-5
3333,47,31,1008,-14,28,2
3334,-145,23,980,-17,29,4
3335,-210,8,980,-13,7,0
3336,-137,-3,983,-12,-17,-6
3337,53,10,1004,-12,-29,-10
3338,202,23,1013,-8,-19,-10
3339,184,38,1012,-11,7,-5
3340,52,31,1011,-14,27,1
3341,-138,27,983,-16,28,3
3342,-215,9,978,-16,8,0
3343,-142,-4,986,-14,-18,-6
3344,51,5,1000,-11,-30,-9
3345,196,24,1011,-12,-19,-10
3346,196,34,1016,-13,7,-6
3347,56,31,1011,-14,28,1
3348,-134,31,982,-17,30,5
3349,-213,7,981,-15,9,1
3350,-150,-4,981,-14,-18,-4
3351,44,5,1000,-13,-30,-10
3352,195,26,1013,-9,-20,-10
3353,192,32,1008,-14,6,-5
3354,64,32,1016,-16,27,0
3355,-130,27,987,-15,29,3
3356,-214,7,974,-14,10,1
3357,-150,-4,983,-15,-17,-6
3358,35,9,1003,-13,-30,-9
3359,190,29,1009,-12,-21,-11
3360,197,28,1013,-14,5,-5
3361,64,34,1013,-15,27,2
3362,-120,29,987,-16,31,3
3363,-210,5,978,-16,10,0
3364,-158,-4,979,-16,-17,-4
3365,31,7,1005,-10,-31,-10
3366,187,23,1009,-11,-23,-11
3367,194,28,1006,-13,6,-5
3368,73,37,1013,-14,27,1
3369,-119,28,995,-16,30,4
3370,-209,9,970,-15,11,1
3371,-164,-8,981,-15,-15,-5
3372,22,11,1007,-10,-31,-9
3373,183,18,1005,-12,-22,-11
3374,204,30,1008,-13,3,-5
3375,77,38,1013,-15,24,0
3376,-113,30,993,-12,31,2
3377,-207,7,979,-20,12,1
3378,-172,-5,973,-12,-13,-4
3379,24,10,1014,-12,-30,-10
3380,177,18,1007,-14,-22,-11
3381,200,34,1000,-9,3,-5
3382,86,32,1013,-17,24,0
3383,-113,36,999,-15,31,4
3384,-203,5,972,-16,14,2
3385,-173,-5,975,-15,-11,-5
3386,15,9,1012,-10,-30,-9
3387,174,21,1006,-11,-22,-11
3388,205,31,1002,-12,2,-6
3389,92,38,1010,-14,24,0
3390,-103,28,1000,-17,32,4
3391,-204,4,973,-14,13,1
3392,-175,-6,974,-13,-12,-5
3393,9,11,1009,-13,-30,-10
3394,168,21,1013,-12,-23,-11
3395,208,32,1000,-11,-1,-7
3396,92,37,1004,-14,24,1
3397,-97,30,1006,-15,31,4
3398,-205,4,981,-18,16,2
3399,-181,-4,970,-14,-10,-4
3400,4,11,1009,-12,-29,-10
3401,161,22,1016,-13,-24,-11
3402,208,28,999,-13,-1,-7
3403,102,39,1005,-13,24,-1
3404,-94,34,1006,-16,32,4
3405,-202,4,981,-15,15,1
3406,-184,-3,971,-15,-9,-4
3407,-4,8,1003,-11,-28,-8
3408,160,17,1016,-11,-24,-11
3409,210,26,1001,-11,-1,-7
3410,107,43,997,-11,23,-1
3411,-85,29,1004,-16,31,2
3412,-202,7,988,-16,16,1
3413,-186,0,966,-16,-10,-3
3414,-8,6,1006,-13,-29,-9
3415,153,16,1015,-12,-25,-10
3416,215,28,1006,-12,-2,-7
3417,114,44,997,-12,22,0
3418,-81,30,1004,-17,32,4
3419,-199,9,991,-17,16,1
3420,-195,-5,963,-15,-8,-2
3421,-13,11,998,-10,-28,-10
3422,147,10,1023,-12,-25,-12
3423,214,33,1005,-10,-3,-8
3424,118,35,994,-15,22,-1
3425,-76,36,1005,-16,33,4
3426,-200,6,989,-19,17,2
3427,-195,-1,966,-15,-8,-4
3428,-21,6,1003,-10,-28,-8
3429,144,15,1016,-12,-25,-9
3430,214,28,1008,-13,-4,-7
3431,126,38,998,-13,20,-1
3432,-70,33,1001,-18,32,4
3433,-193,8,991,-17,18,0
3434,-200,1,967,-15,-6,-2
3435,-28,7,996,-11,-28,-8
3436,139,14,1020,-11,-25,-11
3437,215,24,1009,-11,-5,-8
3438,131,44,996,-14,19,-2
3439,-62,28,1000,-15,32,3
3440,-197,15,988,-17,19,1
3441,-195,0,970,-16,-6,-4
3442,-37,7,997,-12,-27,-9
3443,132,11,1018,-12,-28,-12
3444,215,25,1012,-12,-6,-7
3445,134,40,995,-14,19,-1
3446,-48,29,1000,-17,32,3
3447,-194,12,990,-17,21,2
3448,-198,6,967,-17,-6,-1
3449,-44,4,1001,-11,-27,-10
3450,125,14,1014,-10,-27,-11
3451,215,27,1008,-11,-8,-8
3452,139,42,1002,-13,19,-2
3453,-44,30,1001,-14,32,4
3454,-190,9,985,-17,20,0
3455,-201,3,968,-14,-4,-3
3456,-48,3,1005,-13,-26,-8
3457,124,13,1013,-11,-27,-9
3458,219,27,1009,-12,-8,-7
3459,147,38,1005,-15,17,-2
3460,-45,28,999,-17,32,4
3461,-188,13,982,-16,21,1
3462,-205,5,972,-16,-3,-1
3463,-53,6,1003,-10,-27,-9
3464,117,14,1015,-12,-28,-11
3465,218,27,1006,-10,-9,-8
3466,148,41,1004,-13,17,-2
3467,-37,28,1006,-15,32,3
3468,-187,9,978,-15,22,2
3469,-206,4,967,-12,-2,-1
3470,-57,0,1006,-12,-26,-8
3471,111,14,1012,-11,-26,-12
3472,223,34,1004,-11,-10,-8
3473,148,44,1004,-16,17,-1
3474,-30,27,1007,-15,31,3
3475,-182,9,977,-14,22,2
3476,-205,3,967,-14,0,-1
3477,-64,0,1005,-12,-25,-7
3478,103,9,1014,-11,-28,-10
3479,219,32,1005,-10,-11,-9
3480,153,41,1003,-14,16,-2
3481,-23,33,1012,-17,32,4
3482,-179,12,974,-17,22,4
3483,-206,7,968,-16,0,-2
3484,-70,-3,1005,-13,-25,-9
3485,100,8,1015,-11,-28,-11
3486,222,29,1001,-11,-11,-10
3487,158,43,1006,-11,16,-2
3488,-16,33,1014,-16,32,3
3489,-175,18,978,-17,23,2
3490,-210,6,964,-14,0,-1
3491,-77,0,1002,-13,-24,-7
3492,92,8,1018,-10,-28,-10
3493,220,31,1000,-11,-12,-10
3494,164,41,1010,-14,13,-3
3495,-9,29,1013,-17,30,3
3496,-169,14,976,-16,23,2
3497,-212,9,964,-14,1,0
3498,-87,-1,998,-12,-24,-7
3499,89,8,1018,-11,-28,-9
3500,212,33,1004,-11,-14,-8
3501,170,41,1001,-13,13,-3
3502,-7,30,1018,-17,30,4
3503,-168,17,973,-17,25,3
3504,-209,6,966,-15,2,-1
3505,-95,0,994,-13,-23,-8
3506,83,10,1017,-13,-29,-10
3507,217,33,1008,-11,-13,-9
3508,168,42,1007,-15,13,-3
3509,5,37,1013,-17,30,3
3510,-168,15,980,-18,26,3
3511,-208,3,964,-17,2,-1
3512,-103,-3,996,-12,-22,-6
3513,84,5,1013,-11,-29,-11
3514,213,29,1013,-10,-15,-9
3515,174,41,1002,-11,13,-3
3516,7,32,1014,-15,31,2
3517,-159,21,977,-17,25,2
3518,-212,4,972,-15,4,0
3519,-107,-3,991,-13,-21,-7
3520,72,3,1011,-11,-29,-11
3521,212,30,1011,-11,-16,-10
3522,173,37,1007,-13,12,-4
3523,18,31,1010,-12,31,2
3524,-157,19,978,-15,27,4
3525,-215,11,973,-14,4,-1
3526,-110,-4,990,-14,-22,-6
3527,73,7,1012,-11,-31,-11
3528,208,28,1011,-11,-17,-10
3529,177,36,1006,-13,11,-4
3530,25,31,1012,-15,29,2
3531,-153,16,976,-15,27,3
3532,-214,12,980,-13,6,0
3533,-117,-5,985,-13,-20,-6
3534,62,11,1007,-10,-30,-10
3535,211,31,1016,-13,-19,-11
3536,176,34,1010,-14,11,-4
3537,34,29,1005,-13,28,1
3538,-147,19,984,-16,27,3
3539,-213,11,974,-14,7,0
3540,-121,-8,988,-14,-20,-6
3541,60,11,1006,-11,-28,-9
3542,204,30,1013,-12,-17,-9
3543,186,36,1013,-14,11,-5
3544,35,36,1008,-16,29,2
3545,-141,22,981,-16,28,2
3546,-212,5,982,-13,8,0
3547,-131,-4,982,-13,-18,-7
3548,58,5,1007,-9,-28,-10
3549,199,27,1013,-10,-17,-10
3550,185,38,1011,-14,10,-3
3551,41,33,1011,-15,29,1
3552,-137,22,980,-17,29,3
3553,-217,4,980,-16,9,0
3554,-138,-8,981,-13,-19,-7
3555,50,6,1004,-11,-30,-11
3556,198,27,1012,-10,-20,-10
3557,186,37,1013,-13,7,-5
3558,51,37,1015,-16,28,0
3559,-135,24,981,-13,29,3
3560,-214,5,975,-16,9,1
3561,-144,-5,984,-14,-18,-5
3562,46,6,1002,-13,-32,-10
3563,196,26,1007,-10,-21,-11
3564,192,32,1014,-12,6,-6
3565,59,37,1013,-14,25,0
3566,-129,25,982,-16,28,4
3567,-214,7,978,-16,9,1
3568,-149,-5,982,-14,-17,-5
3569,40,8,1003,-12,-30,-10
3570,194,25,1010,-11,-20,-11
3571,195,33,1012,-11,5,-4
3572,66,38,1013,-16,26,0
3573,-126,30,987,-15,32,3
3574,-212,11,978,-16,10,0
3575,-154,-10,982,-14,-16,-6
3576,31,7,1006,-11,-30,-9
3577,192,20,1009,-10,-21,-10
3578,199,34,1009,-12,5,-6
3579,72,37,1013,-15,26,0
3580,-121,31,990,-16,29,4
3581,-210,8,972,-16,12,2
3582,-165,-7,980,-16,-16,-5
3583,30,7,1007,-12,-31,-10
3584,185,22,1009,-10,-22,-11
3585,203,31,1006,-12,3,-5
3586,76,38,1018,-15,26,0
3587,-114,32,991,-16,31,3
3588,-210,7,974,-18,12,1
3589,-167,-4,975,-13,-13,-4
3590,20,4,1012,-11,-29,-10
3591,182,22,1004,-11,-22,-11
3592,201,28,1004,-12,3,-6
3593,86,39,1014,-15,25,1
3594,-110,29,993,-17,30,4
3595,-209,13,974,-14,12,2
3596,-171,-6,976,-14,-13,-5
3597,16,8,1011,-11,-30,-10
3598,175,22,1003,-11,-24,-9
3599,207,28,1005,-12,3,-6
3600,88,41,1010,-14,25,0
3601,-105,32,999,-16,29,4
3602,-205,7,980,-16,13,2
3603,-180,-4,971,-12,-13,-4
3604,14,8,1013,-12,-30,-9
3605,171,20,1012,-12,-24,-11
3606,207,29,997,-11,0,-7
3607,94,37,1009,-14,23,-1
3608,-101,36,1001,-16,31,4
3609,-202,6,982,-17,13,1
3610,-177,-5,968,-14,-12,-5
3611,2,8,1012,-10,-29,-9
3612,170,21,1012,-11,-24,-11
3613,211,29,999,-12,1,-6
3614,102,39,1005,-14,23,0
3615,-94,34,1006,-15,31,4
3616,-204,6,983,-16,15,1
3617,-181,-3,965,-12,-10,-4
3618,1,9,1011,-10,-29,-9
3619,162,13,1015,-11,-25,-9
3620,207,29,998,-11,-1,-6
3621,109,40,1004,-15,23,0
3622,-92,31,1008,-16,32,5
3623,-201,10,978,-17,15,2
3624,-186,-6,968,-15,-8,-3
3625,-3,9,1006,-12,-30,-8
3626,159,17,1017,-12,-25,-10
3627,210,28,998,-12,-1,-6
3628,111,42,1001,-12,24,0
3629,-83,35,1007,-17,33,4
3630,-202,7,989,-19,17,2
3631,-190,-2,966,-15,-9,-4
3632,-13,6,1000,-12,-29,-9
3633,150,15,1023,-11,-25,-12
3634,215,28,1000,-10,-3,-8
3635,116,42,995,-14,22,-1
3636,-76,34,1009,-16,31,4
3637,-202,10,986,-17,17,2
3638,-192,0,969,-15,-8,-5
3639,-17,4,1000,-11,-28,-10
3640,144,14,1018,-11,-26,-10
3641,215,27,1006,-12,-4,-6
3642,123,42,996,-13,22,0
3643,-69,33,1004,-16,32,4
3644,-200,7,989,-17,18,1
3645,-196,2,967,-16,-6,-2
3646,-20,6,999,-13,-27,-9
3647,139,16,1019,-12,-25,-11
3648,216,26,1009,-13,-6,-7
3649,125,40,996,-12,20,-1
3650,-65,31,999,-17,32,3
3651,-194,9,992,-17,18,1
3652,-201,1,966,-16,-7,-2
3653,-28,2,998,-11,-27,-9
3654,139,13,1021,-11,-26,-11
3655,211,30,1008,-11,-6,-7
3656,133,41,995,-13,19,-3
3657,-60,32,1005,-16,32,3
3658,-198,10,984,-17,18,3
3659,-195,2,973,-16,-5,-2
3660,-36,2,1002,-13,-28,-7
3661,130,14,1013,-12,-26,-11
3662,218,28,1014,-12,-6,-9
3663,134,41,997,-13,20,-1
3664,-51,33,1001,-15,33,3
3665,-195,7,989,-16,20,1
3666,-201,2,969,-15,-4,-2
3667,-40,2,1001,-13,-28,-9
3668,125,13,1016,-12,-26,-11
3669,219,24,1010,-11,-8,-8
3670,139,41,998,-12,20,-2
3671,-50,33,1001,-16,32,3
3672,-191,13,986,-17,21,2
3673,-202,2,968,-14,-2,-1
3674,-47,4,1000,-13,-26,-8
3675,119,13,1016,-11,-27,-11
3676,220,25,1006,-11,-9,-9
3677,141,40,1002,-12,18,-1
3678,-40,31,1000,-15,32,3
3679,-191,10,986,-16,22,1
3680,-201,7,967,-14,-3,-2
3681,-55,2,1004,-12,-26,-8
3682,117,12,1012,-12,-27,-12
3683,217,25,1007,-11,-9,-9
3684,148,42,1004,-13,17,-3
3685,-38,32,1003,-15,31,4
3686,-178,15,983,-15,23,2
3687,-205,6,965,-16,-2,-1
3688,-60,3,1004,-12,-26,-9
3689,111,9,1016,-14,-28,-11
3690,216,27,1003,-11,-10,-10
3691,156,37,1004,-12,15,-3
3692,-33,30,1008,-15,31,3
3693,-179,15,976,-16,22,3
3694,-209,5,973,-16,-1,0
3695,-65,2,1000,-12,-26,-8
3696,107,7,1015,-12,-28,-11
3697,219,30,1004,-10,-11,-8
3698,155,37,1004,-15,15,-2
3699,-24,28,1011,-16,31,2
3700,-179,14,976,-15,22,3
3701,-212,7,970,-14,0,-1
3702,-73,2,999,-12,-26,-8
3703,102,13,1018,-12,-28,-11
3704,220,27,1000,-11,-11,-8
3705,158,40,1005,-12,16,-3
3706,-16,30,1015,-15,31,3
3707,-184,12,974,-17,23,2
3708,-210,9,967,-15,0,-2
3709,-78,-5,999,-12,-24,-8
3710,93,15,1019,-6,-25,-10
3711,223,29,1002,-8,-9,-9
3712,160,43,1003,-14,14,-4
3713,-11,32,1014,-8,33,3
3714,-179,15,980,-26,23,3
3715,-209,4,962,-11,1,0
3716,-86,-3,1001,-12,-24,-8
3717,93,10,1016,-14,-29,-10
3718,219,28,1003,-7,-12,-9
3719,166,42,1004,-17,14,-3
3720,-7,30,1015,-14,31,3
3721,-171,17,977,-16,25,2
3722,-211,7,962,-18,3,-1
3723,-89,-1,1003,-9,-22,-8
3724,89,7,1013,-14,-30,-10
3725,216,29,1008,-11,-13,-9
3726,172,43,1005,-12,13,-3
3727,-3,31,1013,-17,30,3
3728,-167,18,975,-14,24,2
3729,-214,8,971,-15,2,0
3730,-97,0,995,-15,-24,-7
3731,83,6,1016,-12,-29,-11
3732,213,30,1010,-13,-14,-8
3733,174,35,1002,-14,14,-3
3734,8,28,1014,-15,33,2
3735,-165,18,978,-16,25,4
3736,-210,11,966,-14,3,0
3737,-101,-3,995,-12,-21,-7
3738,79,12,1015,-13,-28,-10
3739,211,28,1009,-11,-16,-9
3740,176,38,1008,-14,12,-5
3741,10,26,1010,-13,31,2
3742,-163,18,980,-16,25,2
3743,-209,8,969,-15,5,-1
3744,-111,1,993,-12,-21,-8
3745,74,12,1010,-11,-29,-11
3746,211,27,1013,-10,-15,-11
3747,173,37,1006,-13,11,-3
3748,19,28,1009,-15,29,2
3749,-160,19,983,-14,26,2
3750,-209,8,970,-13,3,-1
3751,-110,-2,991,-11,-22,-8
3752,70,10,1010,-9,-29,-11
3753,211,31,1014,-10,-16,-9
3754,176,40,1002,-13,11,-3
3755,20,27,1009,-14,29,3
3756,-153,15,981,-15,27,3
3757,-213,6,973,-16,5,1
3758,-114,-1,984,-12,-21,-8
3759,68,10,1015,-10,-29,-10
3760,207,29,1010,-11,-16,-10
3761,180,40,1009,-12,10,-4
3762,26,33,1008,-16,30,3
3763,-152,20,982,-17,27,3
3764,-213,4,971,-15,5,-1
3765,-122,-4,985,-13,-20,-6
3766,66,5,1011,-14,-30,-9
3767,208,28,1012,-10,-17,-9
3768,183,39,1010,-14,9,-3
3769,34,34,1007,-15,29,3
3770,-152,25,985,-17,27,3
3771,-214,6,976,-16,6,-1
3772,-125,-6,987,-13,-19,-6
3773,60,3,1005,-11,-29,-11
3774,203,25,1018,-8,-19,-10
3775,184,40,1010,-12,9,-4
3776,36,34,1011,-16,29,1
3777,-143,26,980,-17,28,3
3778,-217,7,978,-16,7,0
3779,-131,-4,981,-14,-19,-6
3780,55,0,1008,-12,-30,-10
3781,203,29,1012,-9,-19,-12
3782,186,35,1011,-14,8,-5
3783,44,36,1012,-15,29,0
3784,-142,24,979,-16,29,3
3785,-215,10,980,-14,8,0
3786,-141,-4,983,-14,-20,-6
3787,52,6,1001,-11,-30,-11
3788,201,27,1017,-11,-19,-11
3789,191,36,1008,-14,7,-5
3790,51,31,1012,-13,28,0
3791,-138,25,981,-17,28,3
3792,-219,8,984,-16,8,1
3793,-137,-5,978,-14,-18,-6
3794,45,5,1004,-12,-30,-10
3795,200,26,1012,-10,-20,-12
3796,191,31,1013,-16,8,-4
3797,57,36,1009,-15,28,0
3798,-133,28,987,-16,29,4
3799,-214,6,979,-14,9,0
3800,-149,-4,977,-16,-17,-6
3801,42,9,1004,-11,-30,-10
3802,193,24,1013,-12,-20,-11
3803,197,34,1008,-14,6,-5
3804,59,31,1016,-15,28,2
3805,-129,28,980,-17,28,4
3806,-215,8,982,-13,10,1
3807,-152,-4,978,-13,-16,-5
3808,37,5,1005,-12,-30,-9
3809,198,24,1007,-11,-21,-11
3810,194,30,1014,-12,7,-5
3811,68,37,1011,-16,27,1
3812,-128,26,989,-15,31,4
3813,-212,10,974,-16,11,1
3814,-154,-8,982,-14,-16,-4
3815,35,11,1003,-12,-31,-9
3816,187,21,1011,-10,-21,-8
3817,201,36,1009,-12,4,-6
3818,66,32,1016,-17,27,3
3819,-120,32,986,-17,31,3
3820,-211,5,977,-16,12,0
3821,-159,-4,980,-14,-15,-5
3822,30,5,1004,-12,-32,-10
3823,185,24,1005,-9,-22,-11
3824,201,35,1015,-13,5,-6
3825,76,35,1012,-15,25,0
3826,-120,32,989,-14,30,3
3827,-209,9,976,-16,12,2
3828,-164,-5,979,-15,-15,-5
3829,26,6,1005,-12,-30,-9
3830,186,26,1007,-12,-22,-10
3831,199,31,1010,-13,3,-6
3832,79,35,1014,-15,26,0
3833,-117,30,992,-19,30,5
3834,-208,7,973,-16,12,0
3835,-166,-6,980,-14,-13,-5
3836,23,9,1005,-12,-30,-10
3837,181,20,1007,-12,-22,-11
3838,202,32,1007,-12,3,-6
3839,81,36,1014,-15,26,1
3840,-109,32,995,-15,31,4
3841,-208,6,975,-16,13,0
3842,-173,-9,975,-14,-13,-5
3843,17,5,1009,-11,-30,-10
3844,179,22,1006,-11,-23,-11
3845,203,31,1005,-12,3,-6
3846,86,36,1015,-15,24,-1
3847,-109,31,997,-18,30,3
3848,-209,8,974,-16,12,1
3849,-176,-9,973,-14,-12,-4
3850,13,8,1011,-12,-31,-9
3851,176,20,1007,-10,-24,-10
3852,206,29,1003,-12,2,-7
3853,91,38,1012,-13,24,-1
3854,-106,32,999,-16,31,4
3855,-201,9,976,-15,14,0
3856,-178,-4,975,-14,-11,-5
3857,6,12,1009,-10,-29,-10
3858,172,17,1006,-12,-24,-13
3859,206,29,1003,-10,2,-6
3860,95,39,1006,-13,25,1
3861,-100,31,1002,-14,32,3
3862,-204,6,979,-15,14,0
3863,-181,-5,969,-15,-12,-4
3864,7,10,1013,-11,-31,-10
3865,169,18,1013,-12,-23,-10
3866,213,31,998,-10,1,-6
3867,99,36,1010,-15,24,0
3868,-97,32,1004,-17,32,5
3869,-201,5,977,-17,15,1
3870,-188,-5,970,-15,-10,-3
3871,3,10,1009,-11,-30,-8
3872,165,17,1011,-12,-24,-10
3873,210,32,997,-12,-1,-5
3874,105,37,1007,-13,23,0
3875,-96,34,1007,-15,33,4
3876,-205,3,976,-19,15,2
3877,-189,-5,970,-13,-9,-2
3878,-5,8,1005,-11,-29,-9
3879,162,23,1015,-10,-24,-11
3880,214,31,1002,-11,-2,-7
3881,105,37,999,-14,23,0
3882,-88,32,1004,-15,32,3
3883,-207,3,986,-18,16,2
3884,-187,-3,963,-15,-10,-4
3885,-5,6,1007,-12,-29,-10
3886,158,20,1014,-10,-25,-11
3887,213,28,1002,-12,-2,-6
3888,111,38,1001,-14,22,0
3889,-86,32,1006,-17,31,4
3890,-196,8,984,-17,16,0
3891,-188,-1,971,-15,-8,-5
3892,-12,11,1004,-11,-28,-9
3893,156,17,1015,-12,-26,-11
3894,212,24,1004,-10,-1,-7
3895,118,38,999,-12,23,-1
3896,-77,35,1006,-17,31,3
3897,-200,9,988,-17,17,1
3898,-189,-2,966,-15,-7,-4
3899,-18,9,1003,-11,-28,-9
3900,152,15,1018,-12,-26,-12
3901,215,27,1004,-11,-4,-7
3902,118,40,995,-11,21,0
3903,-73,34,1004,-16,31,5
3904,-200,7,991,-18,18,2
3905,-197,1,963,-14,-7,-1
3906,-19,1,1001,-12,-28,-9
3907,144,16,1016,-11,-26,-10
3908,213,27,1005,-9,-4,-6
3909,127,39,997,-14,21,0
3910,-73,33,1006,-15,32,5
3911,-196,9,990,-18,17,2
3912,-200,0,968,-15,-6,-2
3913,-25,6,995,-11,-28,-9
3914,141,12,1019,-13,-27,-12
3915,214,28,1008,-12,-5,-7
3916,132,40,995,-14,20,0
3917,-66,30,1003,-16,33,4
3918,-196,9,987,-18,20,2
3919,-198,1,968,-15,-6,-3
3920,-31,8,996,-12,-28,-9
3921,140,16,1021,-11,-26,-10
3922,215,24,1010,-12,-5,-8
3923,132,40,996,-13,20,-2
3924,-61,31,1001,-16,32,4
3925,-199,13,991,-16,18,1
3926,-198,-1,969,-15,-5,-4
3927,-39,3,999,-12,-27,-7
3928,135,16,1016,-11,-26,-12
3929,215,25,1014,-11,-6,-9
3930,135,41,993,-14,19,-1
3931,-57,32,1000,-16,32,4
3932,-191,10,994,-17,20,0
3933,-203,-1,968,-16,-5,-3
3934,-35,8,996,-12,-27,-8
3935,130,12,1022,-12,-25,-10
3936,220,30,1009,-13,-7,-8
3937,139,36,995,-14,19,-1
3938,-50,34,1004,-18,32,3
3939,-192,8,988,-17,20,2
3940,-203,3,965,-15,-4,-2
3941,-43,0,1001,-11,-27,-8
3942,124,15,1015,-9,-27,-10
3943,215,28,1011,-11,-8,-7
3944,141,41,998,-14,18,-1
3945,-45,30,1002,-17,32,3
3946,-186,7,985,-18,20,2
3947,-206,2,967,-13,-2,-1
3948,-48,4,1002,-11,-27,-9
3949,120,13,1016,-11,-27,-11
3950,218,30,1009,-11,-8,-8
3951,146,40,1001,-15,18,-2
3952,-43,30,1004,-16,31,4
3953,-190,11,980,-18,20,3
3954,-208,1,972,-16,-2,-2
3955,-53,0,1003,-13,-27,-8
3956,113,11,1011,-13,-28,-11
3957,219,28,1009,-12,-9,-9
3958,146,41,1002,-11,17,-1
3959,-36,33,1003,-16,32,3
3960,-188,14,983,-15,22,2
3961,-208,7,968,-14,-2,-1
3962,-56,2,1004,-14,-26,-8
3963,106,12,1020,-10,-28,-10
3964,221,26,1004,-13,-11,-9
3965,151,40,1007,-13,16,-2
3966,-33,29,1002,-15,31,3
3967,-180,13,981,-14,23,0
3968,-207,6,970,-14,-1,-2
3969,-66,4,1003,-13,-27,-7
3970,109,10,1016,-12,-28,-12
3971,214,26,1003,-11,-9,-9
3972,157,39,1003,-15,17,-3
3973,-24,27,1010,-17,32,2
3974,-182,16,978,-16,24,2
3975,-205,5,968,-15,0,-1
3976,-73,3,1004,-12,-25,-7
3977,102,12,1013,-11,-28,-10
3978,219,31,1007,-10,-10,-9
3979,158,37,1003,-14,16,-3
3980,-19,30,1012,-16,32,2
3981,-180,13,977,-15,23,4
3982,-211,6,967,-16,0,0
3983,-76,0,1001,-13,-26,-8
3984,96,7,1015,-11,-27,-10
3985,218,32,1001,-12,-12,-10
3986,163,39,1004,-14,14,-4
3987,-18,30,1013,-16,31,2
3988,-174,14,976,-16,23,2
3989,-210,5,969,-14,0,-1
3990,-80,1,1002,-13,-25,-7
3991,94,8,1016,-10,-28,-12
3992,218,30,1007,-11,-12,-10
3993,163,43,1001,-13,15,-2
3994,-7,31,1013,-17,33,3
3995,-175,16,978,-16,24,3
3996,-213,9,964,-15,1,1
3997,-86,-6,1001,-13,-25,-8
3998,90,8,1016,-12,-28,-11
3999,219,27,1004,-11,-13,-9
4000,167,39,1008,-13,15,-3
4001,-6,32,1013,-15,31,2
4002,-169,18,977,-16,24,3
4003,-212,5,964,-17,3,-1
4004,-95,-1,995,-14,-23,-7
4005,86,6,1017,-11,-29,-11
4006,220,27,1007,-12,-14,-10
4007,167,43,1002,-12,13,-2
4008,5,34,1015,-15,30,2
4009,-169,16,981,-15,26,2
4010,-215,9,962,-16,3,0
4011,-98,-6,997,-15,-23,-8
4012,81,6,1016,-12,-29,-10
4013,215,24,1007,-12,-16,-9
4014,177,38,1004,-13,12,-3
4015,6,31,1015,-15,30,3
4016,-166,22,978,-15,25,4
4017,-212,9,969,-15,3,0
4018,-105,1,989,-15,-21,-7
4019,78,3,1017,-12,-29,-11
4020,215,28,1008,-12,-15,-8
4021,173,33,1001,-14,13,-3
4022,16,32,1014,-13,30,2
4023,-165,15,981,-18,26,3
4024,-213,13,968,-13,4,-1
4025,-107,-3,990,-14,-22,-7
4026,74,10,1014,-12,-30,-10
4027,213,27,1012,-11,-16,-10
4028,173,39,1003,-12,12,-4
4029,17,30,1011,-14,29,2
4030,-156,16,981,-17,26,4
4031,-214,8,968,-16,5,-1
4032,-110,-6,990,-13,-22,-7
4033,69,10,1012,-12,-30,-10
4034,210,28,1016,-8,-16,-10
4035,179,38,1003,-12,11,-3
4036,20,33,1011,-14,30,4
4037,-155,17,982,-17,26,3
4038,-216,8,972,-16,5,-1
4039,-116,-6,985,-12,-20,-7
4040,66,9,1014,-10,-30,-10
4041,211,27,1012,-13,-18,-10
4042,178,40,1004,-13,10,-4
4043,28,33,1010,-14,29,2
4044,-150,21,981,-17,26,2
4045,-215,9,975,-15,6,0
4046,-119,-6,985,-14,-20,-7
4047,67,6,1013,-12,-31,-11
4048,207,26,1009,-9,-17,-10
4049,183,41,1008,-13,10,-3
4050,36,32,1012,-15,29,2
4051,-151,27,981,-15,29,4
4052,-216,9,973,-18,7,2
4053,-125,-1,988,-12,-18,-6
4054,62,4,1008,-17,-30,-9
4055,201,29,1011,-8,-17,-10
4056,184,33,1013,-12,9,-5
4057,40,29,1006,-15,28,2
4058,-148,21,978,-14,27,4
4059,-212,6,982,-18,6,-1
4060,-130,-3,983,-13,-20,-5
4061,58,10,1005,-12,-29,-9
4062,204,25,1018,-12,-19,-11
4063,183,38,1010,-12,8,-4
4064,40,33,1006,-16,29,2
4065,-143,22,983,-16,29,2
4066,-216,7,981,-16,8,-1
4067,-130,-6,978,-15,-18,-7
4068,53,4,1007,-11,-30,-9
4069,202,32,1014,-12,-19,-11
4070,186,36,1011,-13,9,-5
4071,45,34,1009,-15,28,2
4072,-139,24,982,-16,28,3
4073,-212,5,980,-17,9,0
4074,-135,-7,981,-13,-18,-7
4075,49,9,1005,-9,-31,-10
4076,200,30,1016,-10,-18,-9
4077,186,38,1009,-11,8,-5
4078,52,35,1012,-13,29,1
4079,-137,21,982,-16,30,3
4080,-215,7,980,-17,8,1
4081,-139,-6,981,-12,-18,-6
4082,47,7,1002,-10,-30,-10
4083,199,26,1014,-11,-20,-11
4084,190,38,1012,-12,7,-5
4085,52,37,1011,-17,28,2
4086,-130,28,984,-15,29,2
4087,-212,8,981,-18,10,1
4088,-146,-8,978,-15,-17,-5
4089,45,6,1002,-10,-29,-11
4090,193,26,1012,-11,-20,-10
4091,193,38,1010,-11,7,-4
4092,61,36,1013,-15,27,2
4093,-131,27,984,-16,29,3
4094,-213,12,979,-14,9,1
4095,-151,-6,981,-15,-16,-5
4096,42,7,1003,-11,-30,-10
4097,192,22,1009,-10,-20,-10
4098,195,36,1014,-12,6,-4
4099,67,32,1014,-17,27,0
4100,-128,30,984,-17,30,4
4101,-209,9,979,-17,10,1
4102,-156,-5,982,-15,-15,-5
4103,35,8,1001,-12,-29,-10
4104,191,22,1011,-10,-21,-10
4105,196,35,1010,-14,6,-5
4106,68,34,1017,-15,26,1
4107,-125,30,984,-17,31,3
4108,-212,7,978,-15,11,1
4109,-157,-6,980,-14,-17,-6
4110,30,8,1002,-11,-30,-10
4111,187,25,1007,-10,-21,-10
4112,195,33,1008,-13,5,-5
4113,73,32,1015,-14,26,1
4114,-120,32,989,-16,30,4
4115,-210,7,976,-16,12,1
4116,-158,-4,981,-15,-15,-6
4117,28,7,1005,-11,-29,-9
4118,185,27,1006,-10,-21,-11
4119,200,33,1011,-14,4,-6
4120,73,35,1017,-15,26,1
4121,-119,30,989,-16,31,3
4122,-210,5,977,-15,12,1
4123,-169,-6,977,-13,-15,-5
4124,26,10,1007,-10,-30,-9
4125,181,23,1008,-11,-22,-11
4126,200,31,1007,-12,3,-5
4127,82,34,1016,-17,24,0
4128,-115,33,994,-16,30,3
4129,-204,4,975,-16,14,-1
4130,-171,-4,980,-13,-12,-4
4131,20,9,1003,-12,-29,-9
4132,184,24,1011,-12,-22,-11
4133,199,32,1006,-13,3,-5
4134,85,37,1015,-15,25,1
4135,-109,27,998,-18,32,3
4136,-207,4,971,-15,14,1
4137,-168,-7,975,-14,-12,-4
4138,12,10,1011,-11,-30,-9
4139,179,22,1004,-11,-23,-11
4140,205,33,1007,-11,1,-6
4141,83,38,1012,-14,25,1
4142,-105,31,1002,-17,30,3
4143,-201,5,974,-16,13,1
4144,-177,-7,972,-13,-13,-5
4145,13,5,1014,-11,-30,-9
4146,172,20,1003,-10,-23,-11
4147,202,33,999,-11,2,-6
4148,96,41,1014,-12,23,0
4149,-112,32,997,-16,31,5
4150,-201,6,974,-17,13,0
4151,-179,-11,975,-14,-11,-4
4152,3,6,1012,-11,-29,-9
4153,176,18,1009,-11,-24,-12
4154,207,34,1002,-10,0,-6
4155,97,40,1008,-13,23,0
4156,-100,33,1004,-15,31,3
4157,-207,7,978,-17,13,1
4158,-176,-7,969,-14,-11,-4
4159,4,4,1009,-11,-29,-10
4160,167,21,1010,-11,-25,-11
4161,210,29,1001,-12,0,-6
4162,99,42,1005,-12,24,1
4163,-93,37,1005,-14,32,4
4164,-205,6,979,-17,14,2
4165,-183,-5,969,-15,-12,-4
4166,0,6,1008,-10,-30,-8
4167,164,19,1015,-11,-24,-11
4168,212,30,1001,-12,0,-7
4169,103,39,1003,-13,24,0
4170,-91,37,1007,-15,32,4
4171,-202,7,983,-16,16,2
4172,-185,-5,965,-14,-10,-3
4173,-2,8,1010,-12,-29,-8
4174,161,16,1014,-11,-25,-10
4175,213,30,999,-10,0,-7
4176,109,40,1000,-14,23,0
4177,-89,35,1009,-15,32,4
4178,-202,5,978,-19,14,1
4179,-191,0,972,-14,-10,-3
4180,-6,8,1004,-12,-30,-8
4181,160,16,1019,-11,-26,-11
4182,212,24,999,-12,-2,-5
4183,113,40,1002,-14,23,0
4184,-83,29,1008,-17,32,3
4185,-204,6,986,-14,17,2
4186,-190,-4,964,-16,-9,-3
4187,-12,5,1008,-11,-29,-10
4188,149,18,1015,-11,-25,-11
4189,212,27,1006,-11,-2,-8
4190,119,37,997,-13,21,-2
4191,-77,34,1002,-16,32,5
4192,-200,7,991,-19,17,2
4193,-194,2,966,-15,-8,-2
4194,-17,1,1000,-11,-28,-10
4195,149,16,1018,-9,-26,-12
4196,214,24,1007,-12,-3,-7
4197,123,44,993,-12,21,0
4198,-71,36,1007,-16,33,4
4199,-197,13,992,-19,18,1
4200,-195,-2,964,-15,-7,-3
4201,-20,3,1001,-12,-29,-11
4202,140,14,1016,-12,-26,-12
4203,217,28,1010,-8,-4,-7
4204,123,41,991,-13,21,0
4205,-67,33,1002,-13,33,3
4206,-196,9,995,-17,19,1
4207,-197,0,966,-15,-7,-3
4208,-23,5,996,-9,-27,-10
4209,140,12,1020,-12,-27,-11
4210,214,27,1008,-9,-5,-8
4211,131,40,994,-14,20,-1
4212,-64,33,1004,-16,32,4
4213,-194,9,988,-16,18,2
4214,-199,1,968,-15,-6,-3
4215,-29,5,998,-12,-28,-8
4216,133,13,1022,-11,-26,-10
4217,217,29,1009,-11,-6,-8
4218,130,38,998,-13,20,-1
4219,-57,33,998,-16,32,4
4220,-195,9,992,-18,19,2
4221,-202,2,966,-14,-6,-3
4222,-35,5,998,-12,-28,-9
4223,128,14,1017,-11,-27,-11
4224,218,31,1011,-11,-7,-8
4225,136,38,995,-14,20,-2
4226,-57,33,1001,-15,31,4
4227,-190,9,987,-16,19,2
4228,-200,2,970,-16,-5,-3
4229,-40,4,998,-12,-28,-10
4230,125,14,1016,-11,-26,-11
4231,215,27,1010,-13,-8,-7
4232,141,43,996,-12,18,-1
4233,-49,34,1001,-16,32,3
4234,-191,12,987,-17,21,2
4235,-202,0,966,-15,-5,-2
4236,-44,4,1000,-13,-26,-7
4237,122,9,1016,-11,-27,-11
4238,220,28,1009,-12,-8,-7
4239,149,40,1002,-13,17,-2
4240,-46,36,1001,-14,32,4
4241,-189,13,984,-18,21,1
4242,-204,3,973,-15,-3,-2
4243,-55,2,1000,-14,-27,-8
4244,124,8,1015,-11,-28,-12
4245,217,23,1012,-12,-8,-8
4246,150,43,997,-14,18,-1
4247,-34,30,1006,-15,31,3
4248,-190,14,983,-16,22,2
4249,-203,9,968,-17,-3,-1
4250,-57,3,1005,-13,-26,-8
4251,111,12,1014,-13,-28,-10
4252,222,25,1006,-10,-9,-9
4253,149,36,1001,-14,17,-2
4254,-33,28,1005,-14,32,2
4255,-180,14,979,-15,22,1
4256,-212,7,969,-16,-3,0
4257,-58,2,1003,-12,-27,-8
4258,104,9,1018,-12,-26,-10
4259,220,27,1000,-11,-10,-9
4260,156,35,1006,-14,16,-3
4261,-31,31,1003,-15,32,4
4262,-182,11,977,-16,23,2
4263,-208,8,970,-14,-1,-2
4264,-70,0,1001,-13,-25,-8
4265,106,14,1012,-9,-27,-12
4266,220,27,1005,-11,-10,-8
4267,156,41,1003,-13,17,-2
4268,-23,25,1013,-16,32,3
4269,-180,14,976,-17,23,2
4270,-210,7,972,-15,-1,0
4271,-73,0,1002,-12,-25,-8
4272,99,12,1015,-10,-29,-10
4273,219,30,1000,-10,-11,-9
4274,159,38,1006,-13,16,-3
4275,-17,29,1009,-17,31,3
4276,-177,15,980,-17,23,2
4277,-211,4,965,-16,0,-3
4278,-79,-2,1002,-12,-24,-9
4279,98,10,1018,-12,-28,-10
4280,213,31,999,-10,-11,-9
4281,168,42,1008,-12,15,-3
4282,-12,26,1014,-16,31,2
4283,-170,17,975,-15,24,1
4284,-205,3,971,-14,2,-1
4285,-88,5,996,-12,-23,-7
4286,94,6,1017,-13,-29,-10
4287,218,29,1005,-12,-12,-9
4288,163,39,1003,-13,15,-3
4289,-2,28,1017,-15,31,2
4290,-175,15,977,-16,25,3
4291,-205,9,965,-14,2,0
4292,-88,-3,1000,-12,-23,-7
4293,82,10,1016,-11,-27,-11
4294,218,32,1005,-12,-13,-10
4295,168,36,1004,-14,14,-2
4296,-2,30,1013,-16,30,3
4297,-167,16,980,-17,25,2
4298,-209,3,966,-14,3,-2
4299,-94,-1,997,-13,-22,-7
4300,82,9,1014,-12,-29,-11
4301,215,28,1011,-11,-14,-10
4302,170,39,1001,-14,13,-3
4303,3,31,1014,-14,30,2
4304,-166,17,980,-15,23,2
4305,-208,10,963,-16,3,1
4306,-101,-4,997,-12,-22,-7
4307,79,10,1013,-11,-29,-11
4308,212,26,1011,-12,-15,-11
4309,171,40,1001,-12,13,-4
4310,10,30,1015,-14,29,3
4311,-159,17,979,-16,25,2
4312,-211,8,968,-16,3,1
4313,-105,-1,993,-12,-21,-8
4314,73,10,1016,-13,-29,-10
4315,212,28,1006,-11,-16,-10
4316,173,41,1005,-14,11,-4
4317,14,30,1011,-15,29,2
4318,-157,19,983,-16,25,4
4319,-209,7,967,-17,5,0
4320,-112,-4,994,-13,-21,-7
4321,74,10,1013,-12,-29,-10
4322,208,27,1013,-10,-16,-10
4323,178,39,1006,-13,12,-3
4324,19,28,1014,-15,30,3
4325,-155,19,977,-16,26,4
4326,-211,10,976,-18,4,0
4327,-114,-1,987,-14,-21,-6
4328,64,6,1007,-11,-29,-9
4329,211,28,1014,-13,-17,-11
4330,177,34,1009,-15,9,-4
4331,28,32,1007,-13,28,2
4332,-155,20,980,-16,26,2
4333,-214,8,976,-16,6,-1
4334,-118,-3,983,-15,-20,-7
4335,59,6,1010,-11,-29,-11
4336,208,31,1017,-11,-18,-11
4337,181,39,1007,-12,10,-4
4338,32,32,1009,-16,28,1
4339,-148,17,984,-16,27,3
4340,-212,7,977,-15,6,0
4341,-126,-7,978,-13,-18,-6
4342,59,10,1012,-13,-29,-10
4343,207,27,1010,-12,-17,-10
4344,183,43,1008,-12,10,-4
4345,38,32,1013,-17,29,2
4346,-147,22,981,-14,28,4
4347,-213,5,975,-16,6,0
4348,-126,-5,985,-13,-19,-8
4349,52,9,1007,-10,-29,-10
4350,206,27,1011,-12,-19,-10
4351,180,38,1013,-12,9,-4
4352,44,36,1009,-15,27,2
4353,-139,24,983,-15,28,3
4354,-217,8,978,-15,7,1
4355,-136,-8,984,-13,-19,-6
4356,55,5,1007,-10,-28,-11
4357,199,29,1013,-10,-18,-9
4358,190,36,1012,-12,8,-5
4359,47,33,1011,-14,30,2
4360,-137,26,979,-17,29,4
4361,-213,4,982,-15,8,-1
4362,-140,-3,982,-14,-19,-6
4363,52,8,1003,-11,-30,-11
4364,197,28,1013,-9,-19,-11
4365,190,35,1009,-12,7,-5
4366,54,34,1016,-12,27,0
4367,-133,22,981,-18,29,3
4368,-212,8,980,-17,10,0
4369,-147,-8,982,-14,-17,-7
4370,45,9,1000,-11,-30,-10
4371,193,27,1012,-10,-20,-9
4372,191,33,1011,-13,7,-5
4373,58,32,1013,-15,27,2
4374,-129,27,983,-15,29,5
4375,-208,6,979,-18,9,1
4376,-152,-5,982,-12,-17,-7
4377,40,11,1000,-12,-31,-12
4378,193,22,1014,-11,-19,-13
4379,192,38,1011,-12,6,-5
4380,66,33,1012,-17,26,2
4381,-125,27,988,-15,30,3
4382,-212,3,974,-15,11,1
4383,-154,-10,982,-15,-16,-5
4384,34,7,1003,-10,-30,-10
4385,190,26,1010,-10,-21,-10
4386,198,34,1007,-12,5,-5
4387,68,37,1018,-14,26,0
4388,-123,29,988,-18,29,4
4389,-212,3,974,-18,12,1
4390,-159,-9,979,-26,-13,-2
4391,31,6,1005,-11,-29,-10
4392,190,22,1008,-11,-21,-12
4393,192,31,1009,-11,5,-5
4394,73,40,1016,-13,25,0
4395,-118,27,993,-17,31,4
4396,-208,10,971,-16,12,2
4397,-163,-9,982,-17,-15,-4
4398,21,11,1005,-10,-30,-10
4399,186,21,1007,-10,-23,-11
4400,200,27,1008,-14,3,-5
4401,77,39,1011,-13,25,1
4402,-111,29,992,-18,28,2
4403,-208,8,977,-17,13,0
4404,-168,-4,974,-13,-12,-4
4405,18,11,1008,-11,-29,-10
4406,180,19,1010,-11,-23,-10
4407,203,34,1001,-12,1,-5
4408,85,41,1012,-16,25,0
4409,-110,30,998,-18,31,4
4410,-208,8,972,-17,14,2
4411,-174,-5,975,-12,-12,-4
4412,17,6,1013,-13,-30,-8
4413,174,21,1003,-11,-24,-11
4414,208,30,1006,-10,1,-7
4415,86,40,1011,-13,25,0
4416,-101,34,999,-16,31,3
4417,-208,8,978,-16,13,1
4418,-178,-5,971,-15,-12,-4
4419,9,4,1013,-12,-30,-8
4420,172,18,1006,-10,-25,-11
4421,209,29,1003,-11,0,-6
4422,98,39,1007,-12,24,-1
4423,-98,35,1003,-15,31,4
4424,-203,9,980,-15,15,0
4425,-185,-2,970,-15,-10,-4
4426,0,6,1007,-14,-30,-9
4427,167,16,1013,-14,-24,-12
4428,209,26,1000,-12,0,-7
4429,104,40,1005,-14,23,-2
4430,-92,33,1004,-16,31,4
4431,-204,8,984,-16,14,2
4432,-185,-1,968,-15,-11,-4
4433,-6,8,1005,-11,-29,-9
4434,163,18,1017,-11,-24,-11
4435,210,27,999,-12,-1,-6
4436,110,39,1001,-12,22,-1
4437,-86,32,1006,-16,31,3
4438,-201,7,984,-17,15,1
4439,-189,0,966,-14,-9,-4
4440,-9,8,1005,-10,-29,-10
4441,156,19,1018,-11,-26,-11
4442,210,27,998,-12,-2,-6
4443,113,36,1000,-14,23,0
4444,-81,30,1005,-16,33,4
4445,-201,8,986,-17,17,2
4446,-190,0,964,-13,-10,-3
4447,-16,10,1004,-11,-29,-8
4448,150,18,1016,-13,-26,-12
4449,213,25,1007,-14,-3,-8
4450,117,36,993,-15,21,-1
4451,-77,33,1005,-17,31,4
4452,-196,5,989,-18,16,1
4453,-200,2,965,-14,-8,-2
4454,-16,5,999,-11,-27,-8
4455,143,15,1020,-12,-26,-11
4456,213,27,1003,-14,-6,-7
4457,122,39,999,-13,21,-1
4458,-70,34,1002,-15,32,4
4459,-200,8,986,-15,18,3
4460,-196,2,967,-14,-6,-3
4461,-26,1,998,-12,-28,-9
4462,139,20,1017,-12,-26,-10
4463,215,25,1009,-13,-5,-7
4464,126,42,997,-12,19,-2
4465,-59,30,1001,-17,31,4
4466,-197,11,992,-15,20,1
4467,-198,1,966,-15,-7,-3
4468,-29,3,994,-12,-29,-9
4469,135,16,1021,-11,-27,-11
4470,216,27,1009,-12,-7,-8
4471,135,39,998,-13,19,-1
4472,-57,32,997,-15,31,4
4473,-194,10,991,-16,19,1
4474,-196,3,969,-16,-5,-3
4475,-36,8,998,-12,-27,-7
4476,132,15,1018,-10,-26,-13
4477,215,25,1012,-11,-6,-8
4478,136,41,994,-13,19,-1
4479,-51,30,1003,-17,31,3
4480,-195,13,984,-16,20,3
4481,-197,2,975,-16,-5,-2
4482,-42,6,1000,-11,-26,-7
4483,122,13,1014,-11,-25,-11
4484,218,27,1013,-11,-7,-10
4485,136,40,997,-12,19,-2
4486,-45,29,999,-16,31,3
4487,-188,14,984,-17,19,0
4488,-203,3,967,-16,-4,-3
4489,-48,2,1003,-13,-26,-9
4490,121,11,1018,-11,-27,-11
4491,213,29,1003,-11,-9,-8
4492,147,43,1004,-13,18,-2
4493,-42,28,1003,-17,32,4
4494,-185,13,979,-16,21,3
4495,-204,1,974,-16,-3,-3
4496,-56,3,1002,-13,-26,-8
4497,114,11,1011,-10,-26,-10
4498,215,33,1005,-12,-9,-8
4499,152,39,1002,-13,17,-3
4500,-35,30,1004,-16,32,3
4501,-186,9,978,-17,22,3
4502,-203,5,971,-15,-2,-2
4503,-59,1,1005,-12,-25,-8
4504,106,14,1012,-10,-26,-11
4505,217,33,1006,-13,-10,-9
4506,152,39,1002,-14,16,-1
4507,-28,28,1009,-18,31,2
4508,-177,10,978,-15,24,2
4509,-209,4,967,-14,0,-1
4510,-66,0,1002,-13,-27,-8
4511,101,12,1016,-12,-28,-11
4512,218,30,1003,-10,-10,-9
4513,160,38,1003,-14,14,-3
4514,-26,30,1012,-15,31,3
4515,-173,15,977,-16,22,2
4516,-205,5,968,-14,1,-1
4517,-75,2,1000,-14,-24,-8
4518,98,9,1020,-13,-28,-10
4519,215,29,999,-11,-12,-9
4520,163,36,1003,-15,14,-2
4521,-14,32,1016,-16,31,4
4522,-176,13,975,-17,22,3
4523,-206,6,966,-15,1,-2
4524,-82,0,1000,-13,-25,-7
4525,89,9,1015,-11,-29,-11
4526,217,29,1004,-10,-13,-11
4527,162,39,1006,-13,15,-2
4528,-7,28,1016,-16,30,3
4529,-172,14,975,-16,22,2
4530,-209,8,968,-15,1,-1
4531,-87,-2,995,-13,-24,-9
4532,85,13,1017,-11,-29,-12
4533,217,28,1005,-11,-14,-10
4534,168,42,1003,-12,14,-3
4535,1,30,1015,-15,31,2
4536,-167,17,981,-16,24,1
4537,-208,5,963,-15,2,0
4538,-97,-4,996,-13,-23,-8
4539,82,8,1018,-10,-29,-12
4540,217,28,1006,-9,-15,-9
4541,169,47,1001,-11,12,-4
4542,6,31,1013,-16,31,3
4543,-162,18,980,-17,25,3
4544,-215,3,965,-16,4,0
4545,-103,0,995,-13,-23,-7
4546,81,3,1016,-12,-29,-11
4547,216,31,1010,-10,-15,-10
4548,178,37,1004,-13,12,-3
4549,10,33,1014,-15,30,2
4550,-159,17,980,-16,26,3
4551,-217,12,968,-16,5,-1
4552,-108,-6,991,-13,-21,-8
4553,72,6,1014,-10,-29,-10
4554,215,27,1011,-11,-16,-10
4555,176,38,1007,-13,12,-2
4556,21,33,1011,-14,30,1
4557,-156,21,980,-18,26,3
