sequence,AccelerometerX,AccelerometerY,AccelerometerZ,GyroscopeX,GyroscopeY,GyroscopeZ
0,88,-4,1018,-13,17,-3
1,-35,-10,1001,-18,31,1
2,-154,-5,970,-17,22,1
3,-154,-28,986,-22,-3,-6
4,-66,-36,994,-15,-21,-9
5,85,-30,1007,-12,-27,-13
6,155,-20,1009,-9,-14,-13
7,106,-10,1006,-9,13,-4
8,-12,-4,1008,-15,30,-1
9,-142,-3,986,-20,25,2
10,-159,-29,982,-12,6,-4
11,-90,-34,984,-15,-19,-10
12,70,-25,1010,-14,-30,-13
13,147,-26,1013,-7,-16,-13
14,123,-18,1005,-12,9,-7
15,13,-4,999,-12,28,-1
16,-126,-4,990,-18,28,2
17,-169,-22,990,-19,8,-2
18,-107,-29,978,-15,-15,-8
19,48,-26,1007,-13,-29,-12
20,133,-30,1016,-8,-19,-13
21,144,-16,1005,-10,4,-7
22,37,-6,996,-15,25,-2
23,-110,-6,995,-15,30,2
24,-166,-22,982,-18,12,-2
25,-121,-24,986,-15,-12,-7
26,19,-29,1005,-13,-28,-11
27,118,-27,1010,-10,-23,-13
28,153,-15,1005,-9,0,-8
29,54,-7,1001,-15,25,-1
30,-82,-15,1002,-17,31,3
31,-171,-18,968,-17,15,0
32,-132,-20,984,-16,-9,-6
33,-3,-33,1010,-12,-28,-12
34,108,-25,1008,-10,-24,-12
35,159,-10,1007,-11,-5,-9
36,67,-8,1008,-14,21,-2
37,-60,-13,996,-16,30,0
38,-161,-18,967,-21,19,0
39,-146,-24,993,-17,-4,-6
40,-32,-35,999,-14,-25,-11
41,99,-25,1004,-9,-26,-13
42,157,-11,1010,-8,-9,-11
43,83,-6,1015,-12,17,-3
44,-38,-11,1004,-19,29,1
45,-156,-16,965,-19,23,2
46,-152,-26,989,-18,-2,-5
47,-61,-40,997,-15,-23,-10
48,89,-22,1011,-8,-27,-14
49,157,-18,1004,-11,-11,-12
50,98,-5,1006,-11,15,-4
51,-16,-5,1008,-15,26,-1
52,-145,-10,983,-20,25,2
53,-156,-30,981,-18,5,-4
54,-85,-40,990,-15,-20,-9
55,70,-24,1008,-10,-29,-12
56,150,-23,1009,-9,-15,-12
57,120,-14,1006,-10,9,-4
58,4,0,996,-12,28,-1
59,-127,-5,996,-19,28,1
60,-165,-28,989,-19,7,-3
61,-106,-35,972,-15,-16,-8
62,51,-27,1010,-11,-28,-14
63,135,-26,1016,-10,-16,-12
64,139,-10,1007,-11,6,-7
65,29,-2,997,-15,26,-1
66,-115,-4,988,-17,29,3
67,-166,-26,991,-19,11,-3
68,-118,-30,982,-16,-11,-8
69,24,-33,1005,-13,-27,-13
70,127,-30,1011,-9,-21,-14
71,148,-13,1002,-8,-1,-8
72,51,0,1004,-13,23,-3
73,-93,-14,1003,-17,31,2
74,-168,-12,968,-18,14,-1
75,-127,-28,984,-17,-9,-7
76,-1,-35,1012,-11,-26,-13
77,114,-31,1004,-11,-23,-14
78,159,-12,1011,-10,-4,-11
79,65,-4,1004,-13,21,-2
80,-66,-10,999,-16,30,1
81,-164,-16,969,-19,19,1
82,-142,-24,989,-17,-6,-5
83,-26,-40,1006,-14,-26,-12
84,99,-25,1001,-11,-25,-13
85,160,-15,1009,-9,-10,-12
86,78,-3,1013,-13,18,-4
87,-40,-10,1003,-17,30,0
88,-153,-16,969,-19,22,-1
89,-155,-26,987,-17,-1,-5
90,-50,-36,995,-15,-24,-11
91,86,-26,1011,-11,-28,-14
92,155,-18,1001,-10,-11,-11
93,100,-9,1013,-11,15,-5
94,-22,-10,1005,-15,28,0
95,-144,-8,980,-17,24,0
96,-153,-32,986,-18,3,-3
97,-85,-32,982,-13,-19,-8
98,78,-22,1017,-11,-28,-13
99,147,-22,1006,-11,-16,-12
100,116,-13,1000,-12,11,-5
101,3,-7,1003,-16,27,-2
102,-133,-7,990,-17,28,2
103,-161,-25,986,-18,7,-3
104,-103,-33,983,-15,-17,-8
105,54,-28,1008,-12,-29,-13
106,139,-24,1014,-12,-16,-12
107,133,-14,1009,-12,7,-6
108,28,-3,990,-13,26,-2
109,-115,-9,993,-16,27,3
110,-167,-24,987,-17,10,-2
111,-117,-31,984,-17,-12,-7
112,31,-29,1006,-12,-28,-12
113,127,-29,1013,-9,-21,-14
114,150,-11,1004,-7,1,-8
115,43,-2,998,-14,23,-1
116,-94,-10,1001,-18,30,2
117,-171,-23,974,-19,14,-1
118,-128,-24,984,-16,-9,-6
119,6,-36,1012,-11,-28,-12
120,112,-26,1008,-10,-22,-12
121,158,-10,1007,-11,-3,-10
122,62,-3,1008,-12,21,-2
123,-72,-11,994,-14,29,2
124,-166,-17,969,-18,18,0
125,-140,-28,987,-18,-6,-4
126,-20,-36,1006,-12,-26,-13
127,104,-29,1003,-11,-25,-13
128,155,-12,1009,-8,-7,-10
129,81,-3,1013,-12,18,-3
130,-48,-10,1002,-15,30,1
131,-159,-11,970,-19,21,0
132,-151,-29,987,-18,-3,-5
133,-48,-38,1000,-14,-24,-10
134,94,-28,1002,-10,-27,-13
135,157,-15,1011,-9,-10,-12
136,93,-6,1009,-12,16,-3
137,-26,-5,1010,-14,29,-1
138,-147,-14,970,-19,23,1
139,-160,-25,987,-16,2,-3
140,-72,-40,994,-17,-20,-10
141,78,-25,1012,-12,-27,-13
142,154,-20,1005,-11,-14,-11
143,114,-12,1006,-9,11,-5
144,-6,-5,1001,-14,29,1
145,-136,-7,991,-18,27,2
146,-161,-27,987,-18,6,-3
147,-98,-36,978,-14,-19,-9
148,61,-24,1010,-10,-30,-13
149,140,-28,1013,-9,-17,-14
150,131,-14,1008,-11,8,-7
151,21,-3,994,-13,26,-2
152,-125,-6,988,-17,27,2
153,-167,-25,991,-19,8,-3
154,-115,-30,979,-17,-16,-7
155,36,-29,1006,-13,-29,-13
156,132,-29,1018,-10,-20,-13
157,147,-14,998,-9,1,-6
158,41,-3,1000,-14,24,-1
159,-104,-11,999,-17,31,2
160,-170,-18,976,-18,14,-2
161,-125,-24,984,-17,-11,-7
162,11,-36,1010,-14,-28,-12
163,118,-28,1009,-9,-23,-13
164,157,-12,1006,-10,-1,-8
165,57,-6,1005,-13,23,-2
166,-78,-14,998,-16,30,1
167,-167,-15,966,-20,16,-1
168,-135,-24,991,-17,-7,-6
169,-15,-34,1007,-13,-26,-11
170,104,-27,1004,-12,-24,-13
171,162,-10,1012,-10,-7,-11
172,71,-6,1009,-13,19,-2
173,-55,-14,1000,-17,30,0
174,-160,-15,967,-18,19,-1
175,-149,-24,989,-16,-4,-4
176,-39,-37,999,-13,-25,-12
177,96,-23,1004,-9,-28,-15
178,158,-17,1005,-10,-10,-10
179,90,-7,1015,-12,16,-4
180,-31,-9,1004,-16,29,1
181,-152,-12,971,-17,22,0
182,-153,-28,984,-19,0,-3
183,-71,-35,994,-15,-22,-10
184,84,-24,1010,-11,-27,-14
185,154,-23,1005,-12,-13,-10
186,109,-10,1001,-9,12,-5
187,-10,-6,1007,-14,27,-1
188,-136,-1,989,-18,26,2
189,-161,-30,983,-18,4,-3
190,-90,-39,984,-16,-19,-9
191,66,-24,1011,-10,-29,-13
192,145,-23,1009,-10,-16,-13
193,128,-16,1010,-12,8,-5
194,12,0,995,-12,26,-1
195,-125,-4,987,-17,28,2
196,-164,-28,996,-18,8,-3
197,-109,-29,976,-14,-15,-7
198,42,-26,1008,-11,-29,-12
199,133,-28,1017,-11,-18,-13
200,143,-16,1002,-11,3,-6
201,37,-1,994,-14,23,-2
202,-107,-11,998,-17,29,3
203,-164,-22,980,-16,14,-2
204,-123,-27,987,-17,-10,-6
205,21,-27,1007,-12,-29,-11
206,115,-30,1012,-10,-20,-13
207,153,-11,1003,-10,-2,-9
208,54,-3,1004,-13,23,-2
209,-83,-10,1001,-16,30,1
210,-164,-20,972,-19,16,0
211,-136,-22,983,-17,-8,-6
212,-7,-38,1010,-12,-28,-13
213,107,-31,1008,-11,-25,-14
214,158,-10,1007,-11,-6,-11
215,73,-5,1009,-12,20,-4
216,-61,-11,1001,-16,29,1
217,-158,-12,969,-20,20,-1
218,-147,-26,988,-18,-3,-5
219,-36,-37,1004,-13,-25,-11
220,99,-25,1002,-10,-26,-14
221,153,-15,1009,-10,-10,-10
222,91,-5,1012,-14,16,-3
223,-37,-16,1008,-17,29,0
224,-152,-13,964,-18,23,2
225,-154,-27,990,-17,-1,-4
226,-61,-34,995,-14,-24,-10
227,90,-23,1005,-12,-27,-13
228,154,-18,1008,-10,-11,-11
229,106,-10,1007,-12,13,-4
230,-13,-8,1008,-15,29,-1
231,-143,-7,977,-19,25,2
232,-157,-29,986,-18,3,-4
233,-86,-38,988,-14,-19,-9
234,69,-22,1007,-12,-29,-12
235,151,-21,1011,-11,-15,-13
236,120,-13,1002,-10,9,-5
237,5,-1,1000,-15,27,-1
238,-129,-5,992,-19,28,2
239,-164,-29,991,-20,6,-2
240,-103,-35,973,-14,-17,-9
241,49,-28,1009,-10,-29,-12
242,140,-25,1016,-10,-17,-13
243,140,-13,1006,-10,6,-6
244,23,2,994,-13,25,-1
245,-115,-8,991,-17,29,3
246,-169,-28,987,-19,11,-2
247,-116,-31,984,-16,-13,-7
248,30,-33,1005,-12,-30,-14
249,126,-27,1014,-10,-21,-13
250,150,-9,1003,-8,0,-7
251,47,0,1001,-13,23,-3
252,-95,-10,999,-19,30,2
253,-171,-21,975,-17,15,-2
254,-126,-26,982,-17,-10,-7
255,6,-38,1014,-13,-27,-13
256,112,-26,1004,-10,-23,-14
257,156,-11,1011,-8,-4,-9
258,67,-3,1002,-13,21,-2
259,-75,-13,1000,-16,30,3
260,-164,-15,967,-19,17,0
261,-142,-25,990,-18,-5,-5
262,-20,-34,1006,-13,-25,-11
263,104,-31,1005,-10,-25,-14
264,160,-10,1010,-9,-7,-10
265,80,-4,1008,-13,19,-3
266,-50,-9,1004,-16,30,0
267,-158,-15,964,-19,20,0
268,-151,-22,992,-17,-3,-5
269,-49,-37,998,-14,-25,-11
270,96,-25,1006,-10,-27,-13
271,160,-20,1007,-10,-10,-11
272,93,-5,1013,-11,15,-4
273,-26,-9,1008,-15,30,0
274,-152,-9,972,-19,23,2
275,-153,-28,985,-18,-1,-4
276,-71,-36,996,-15,-22,-9
277,79,-27,1009,-13,-29,-13
278,154,-21,1009,-9,-14,-12
279,110,-11,1001,-10,12,-4
280,-7,-7,1008,-16,27,-1
281,-139,-6,987,-19,26,2
282,-161,-27,983,-21,6,-3
283,-94,-37,981,-14,-19,-9
284,63,-23,1010,-10,-28,-13
285,145,-21,1011,-11,-16,-11
286,129,-12,1006,-11,8,-5
287,16,-3,994,-15,27,-1
288,-123,-8,992,-18,28,3
289,-169,-29,989,-19,9,-3
290,-110,-33,980,-15,-14,-8
291,44,-29,1003,-12,-29,-13
292,131,-25,1015,-10,-19,-12
293,146,-11,1009,-10,3,-7
294,34,-3,993,-13,24,-2
295,-106,-8,995,-18,29,2
296,-170,-25,984,-19,14,-2
297,-123,-25,983,-17,-11,-7
298,22,-35,1008,-12,-28,-12
299,119,-27,1008,-10,-22,-13
300,156,-10,1004,-12,-1,-8
301,52,-3,1001,-13,23,-2
302,-84,-9,1001,-17,30,2
303,-167,-23,973,-19,16,0
304,-135,-22,982,-17,-9,-6
305,-5,-39,1012,-13,-29,-13
306,110,-30,1009,-10,-24,-14
307,156,-15,1007,-10,-4,-9
308,71,-3,1002,-12,20,-3
309,-62,-11,1002,-14,29,1
310,-160,-12,964,-18,19,0
311,-141,-27,991,-17,-4,-5
312,-30,-37,1003,-12,-25,-10
313,99,-28,1000,-9,-27,-14
314,159,-17,1011,-8,-10,-12
315,86,-3,1014,-12,16,-3
316,-38,-12,1001,-15,30,1
317,-158,-8,970,-19,24,0
318,-154,-26,984,-17,-1,-4
319,-57,-38,1001,-16,-23,-9
320,90,-27,1006,-11,-28,-11
321,154,-17,1006,-9,-12,-13
322,103,-11,1010,-12,13,-6
323,-19,-6,1009,-15,28,0
324,-145,-9,976,-18,25,2
325,-159,-26,986,-17,3,-4
326,-81,-34,989,-14,-20,-10
327,76,-27,1012,-11,-28,-13
328,148,-23,1006,-12,-15,-11
329,117,-16,1002,-10,8,-5
330,0,-4,1005,-15,27,-1
331,-132,-8,986,-19,28,2
332,-162,-26,990,-17,7,-3
333,-98,-38,978,-15,-18,-8
334,55,-25,1007,-11,-30,-11
335,146,-24,1015,-10,-18,-13
336,133,-11,1006,-11,6,-7
337,21,1,992,-14,25,-1
338,-116,-9,992,-17,29,1
339,-170,-32,988,-19,10,-3
340,-114,-33,978,-16,-14,-8
341,36,-29,1008,-11,-28,-12
342,127,-23,1011,-10,-19,-13
343,147,-8,1007,-9,1,-7
344,40,-3,997,-13,24,-2
345,-100,-13,998,-15,30,2
346,-170,-27,975,-19,13,-1
347,-126,-26,988,-15,-10,-7
348,12,-31,1010,-13,-28,-13
349,116,-26,1008,-7,-23,-14
350,156,-10,1007,-10,-3,-9
351,58,-6,1004,-14,23,0
352,-81,-13,1000,-16,31,2
353,-167,-21,968,-19,15,-2
354,-139,-23,986,-15,-8,-5
355,-13,-34,1006,-13,-27,-12
356,108,-29,1012,-11,-23,-13
357,159,-11,1004,-9,-6,-9
358,71,-4,1009,-13,19,-3
359,-54,-11,1004,-15,29,1
360,-161,-17,962,-19,21,1
361,-146,-24,992,-17,-3,-5
362,-38,-40,1001,-14,-25,-11
363,98,-24,1000,-11,-25,-13
364,159,-15,1010,-9,-9,-11
365,87,-3,1014,-13,16,-4
366,-36,-10,1007,-16,30,0
367,-151,-13,969,-17,23,0
368,-159,-24,986,-16,-1,-5
369,-61,-36,995,-14,-22,-11
370,85,-28,1009,-10,-28,-14
371,156,-15,1003,-10,-14,-11
372,105,-10,1009,-12,13,-4
373,-13,-5,1006,-14,28,0
374,-143,-4,982,-18,24,3
375,-158,-28,984,-20,4,-5
376,-88,-38,987,-15,-19,-8
377,74,-25,1012,-10,-28,-14
378,148,-22,1009,-9,-15,-12
379,122,-8,1004,-11,9,-6
380,5,-7,1000,-15,28,-1
381,-133,-5,992,-18,28,2
382,-165,-29,989,-18,7,-2
383,-103,-35,976,-15,-16,-9
384,52,-24,1010,-10,-29,-13
385,139,-26,1016,-9,-18,-11
386,136,-14,1009,-10,6,-7
387,21,-2,991,-15,26,-2
388,-116,-4,993,-18,29,1
389,-169,-27,991,-19,10,-2
390,-117,-32,983,-15,-14,-7
391,32,-29,1006,-11,-29,-12
392,124,-30,1014,-11,-20,-12
393,151,-9,1000,-9,2,-8
394,46,-4,1001,-14,23,-3
395,-97,-7,996,-17,31,3
396,-169,-21,976,-18,15,-2
397,-130,-25,982,-16,-11,-7
398,9,-34,1011,-14,-30,-12
399,114,-27,1005,-10,-24,-13
400,155,-14,1004,-9,-2,-10
401,63,-2,1006,-13,22,-3
402,-77,-11,998,-17,32,2
403,-168,-17,968,-21,16,-1
404,-141,-23,987,-16,-8,-5
405,-20,-38,1005,-14,-25,-11
406,108,-28,1011,-10,-24,-13
407,162,-13,1007,-9,-6,-9
408,77,-2,1008,-12,18,-3
409,-54,-14,1002,-17,31,1
410,-166,-9,968,-18,20,2
411,-148,-27,986,-18,-3,-5
412,-44,-34,1006,-13,-26,-11
413,99,-28,1000,-9,-28,-14
414,160,-15,1009,-8,-10,-11
415,90,-4,1015,-13,17,-3
416,-30,-8,1004,-17,30,0
417,-153,-14,971,-18,24,1
418,-160,-24,981,-17,0,-3
419,-67,-40,996,-14,-22,-10
420,83,-25,1012,-10,-28,-14
421,157,-17,1006,-11,-13,-10
422,111,-8,1010,-12,13,-4
423,-13,-8,1006,-16,26,-1
424,-144,-5,982,-19,26,2
425,-164,-33,983,-19,4,-4
426,-87,-38,986,-13,-18,-10
427,71,-24,1010,-10,-29,-12
428,152,-20,1009,-10,-17,-13
429,125,-11,1005,-13,8,-5
430,7,-3,995,-15,29,0
431,-130,-5,996,-19,29,2
432,-168,-30,988,-20,7,-2
433,-110,-34,974,-16,-18,-8
434,53,-29,1007,-10,-29,-12
435,140,-24,1017,-10,-18,-11
436,142,-11,1006,-11,6,-6
437,28,0,995,-13,27,-2
438,-117,-6,993,-18,28,2
439,-174,-26,989,-18,11,-2
440,-115,-33,982,-18,-13,-8
441,27,-32,1007,-12,-29,-12
442,128,-26,1010,-9,-21,-12
443,152,-11,1008,-11,0,-7
444,48,-2,995,-14,24,-1
445,-98,-10,999,-16,29,2
446,-175,-22,976,-17,15,0
447,-126,-26,983,-16,-10,-7
448,6,-35,1012,-13,-29,-12
449,114,-26,1006,-9,-24,-13
450,161,-11,1011,-10,-3,-9
451,62,-3,1004,-14,23,-3
452,-77,-13,998,-16,31,2
453,-170,-20,971,-17,18,-1
454,-140,-25,983,-16,-7,-5
455,-16,-39,1009,-12,-27,-11
456,106,-26,1008,-10,-24,-14
457,159,-13,1010,-10,-5,-10
458,73,-4,1005,-12,21,-2
459,-51,-13,1004,-16,30,1
460,-160,-15,962,-19,21,1
461,-151,-24,991,-17,-2,-5
462,-40,-36,999,-14,-25,-12
463,97,-29,1004,-10,-27,-13
464,160,-18,1006,-10,-11,-10
465,93,-1,1019,-12,16,-5
466,-33,-10,1000,-17,30,-1
467,-153,-9,972,-18,23,0
468,-159,-28,986,-17,-1,-4
469,-67,-38,991,-14,-22,-10
470,85,-29,1010,-11,-27,-13
471,158,-16,1005,-9,-13,-11
472,109,-8,1008,-11,14,-5
473,-11,-4,1007,-14,28,0
474,-149,-6,980,-18,26,4
475,-161,-29,985,-18,4,-4
476,-90,-40,989,-14,-20,-10
477,74,-24,1010,-12,-30,-13
478,150,-22,1010,-9,-16,-13
479,126,-12,1004,-11,8,-4
480,4,-3,999,-15,28,-1
481,-135,-6,996,-19,28,3
482,-166,-30,986,-19,7,-1
483,-106,-37,974,-16,-16,-8
484,52,-25,1011,-10,-30,-13
485,141,-23,1015,-10,-19,-13
486,141,-12,1007,-12,5,-7
487,24,-2,995,-15,26,0
488,-116,-6,990,-18,28,1
489,-171,-31,995,-20,10,-2
490,-120,-31,974,-17,-14,-8
491,35,-27,1013,-10,-29,-13
492,127,-26,1012,-9,-20,-13
493,150,-11,1004,-9,1,-8
494,46,-1,1001,-14,24,-2
495,-102,-10,999,-18,31,2
496,-168,-21,977,-18,15,-3
497,-132,-31,987,-18,-10,-6
498,10,-30,1009,-13,-29,-12
499,116,-31,1009,-9,-24,-13
500,158,-8,1006,-7,-3,-9
501,65,-4,1001,-12,23,-2
502,-81,-15,1001,-16,30,1
503,-167,-21,967,-19,16,-2
504,-142,-25,984,-17,-6,-6
505,-13,-36,1007,-13,-28,-12
506,106,-32,1009,-9,-24,-12
507,165,-9,1010,-10,-6,-9
508,77,-3,1007,-13,20,-3
509,-61,-8,1003,-16,31,0
510,-160,-17,965,-20,19,0
511,-152,-27,991,-18,-3,-4
512,-34,-35,1000,-13,-25,-12
513,99,-33,1006,-11,-26,-13
514,161,-11,1009,-10,-10,-11
515,88,-4,1017,-12,17,-3
516,-37,-9,1003,-18,30,0
517,-157,-13,969,-19,23,2
518,-155,-29,985,-17,-1,-5
519,-62,-40,999,-14,-23,-11
520,91,-26,1004,-10,-29,-14
521,155,-16,1009,-9,-10,-12
522,108,-5,1009,-12,14,-4
523,-19,-10,1008,-16,29,-1
524,-145,-7,974,-19,25,3
525,-161,-31,987,-17,3,-2
526,-82,-39,989,-16,-20,-11
527,78,-28,1010,-10,-28,-14
528,153,-21,1010,-10,-15,-13
529,120,-11,999,-10,11,-6
530,0,-1,1007,-14,28,-1
531,-134,-3,989,-20,28,2
532,-166,-30,985,-18,7,-3
533,-101,-40,980,-16,-18,-9
534,57,-22,1007,-9,-28,-12
535,144,-22,1014,-10,-18,-13
536,136,-15,1009,-10,6,-6
537,18,-5,992,-13,27,-1
538,-123,-6,992,-16,29,2
539,-170,-26,990,-20,9,-4
540,-116,-30,977,-17,-15,-7
541,41,-27,1007,-12,-30,-12
542,133,-28,1014,-11,-21,-14
543,148,-12,1009,-9,2,-7
544,44,-2,994,-14,24,-2
545,-109,-10,997,-17,30,2
546,-171,-27,985,-18,13,-1
547,-126,-27,984,-16,-10,-5
548,16,-31,1007,-12,-28,-12
549,126,-28,1011,-9,-23,-14
550,156,-10,1004,-9,-1,-9
551,57,-2,1002,-14,24,-3
552,-85,-15,1003,-19,31,1
553,-173,-20,969,-19,17,-1
554,-134,-24,984,-15,-9,-8
555,-6,-37,1014,-12,-29,-11
556,110,-26,1002,-9,-25,-14
557,164,-10,1012,-10,-6,-10
558,70,-1,1004,-14,20,-1
559,-63,-11,998,-16,30,2
560,-167,-20,970,-19,19,-1
561,-151,-25,987,-17,-4,-5
562,-30,-39,1005,-12,-27,-11
563,101,-28,1004,-10,-27,-13
564,161,-12,1008,-8,-9,-12
565,86,-4,1014,-12,17,-3
566,-40,-11,1000,-16,31,2
567,-161,-13,970,-19,24,1
568,-157,-30,990,-17,-1,-4
569,-55,-38,998,-13,-23,-10
570,93,-27,1002,-9,-28,-12
571,159,-17,1009,-9,-12,-11
572,102,-4,1014,-11,14,-5
573,-24,-7,1006,-16,30,0
574,-150,-10,972,-19,25,2
575,-160,-30,983,-17,2,-4
576,-77,-42,990,-15,-21,-11
577,80,-24,1012,-11,-29,-14
578,156,-21,1005,-10,-14,-13
579,112,-5,1004,-10,12,-4
580,-2,-6,1007,-15,27,-2
581,-141,0,989,-20,29,3
582,-165,-32,983,-20,5,-3
583,-96,-38,983,-14,-18,-9
584,65,-27,1010,-11,-29,-13
585,148,-19,1010,-10,-18,-13
586,130,-13,1007,-9,8,-5
587,11,-1,998,-15,27,-1
588,-126,-5,993,-18,29,3
589,-168,-28,988,-20,8,-4
590,-111,-30,974,-17,-16,-8
591,45,-28,1008,-12,-30,-13
592,137,-26,1016,-11,-18,-13
593,145,-15,1008,-10,3,-8
594,30,-2,993,-12,24,-1
595,-106,-6,992,-17,28,1
596,-175,-25,986,-18,12,-1
597,-120,-26,984,-16,-13,-7
598,22,-32,1009,-13,-28,-12
599,121,-28,1006,-10,-22,-12
600,154,-13,1009,-10,-1,-7
601,52,-3,997,-13,23,-2
602,-94,-10,998,-17,30,3
603,-169,-18,979,-20,16,-1
604,-137,-26,981,-16,-10,-6
605,3,-34,1012,-14,-29,-13
606,113,-31,1009,-9,-24,-14
607,161,-11,1003,-9,-3,-8
608,66,-3,1001,-13,21,-3
609,-76,-9,1004,-15,32,2
610,-168,-18,965,-18,17,-1
611,-145,-27,983,-16,-6,-6
612,-18,-37,1012,-12,-27,-12
613,103,-29,1002,-11,-25,-13
614,161,-9,1014,-10,-8,-10
615,79,-3,1006,-12,19,-2
616,-56,-10,1002,-17,30,0
617,-161,-15,967,-20,21,1
618,-155,-27,991,-18,-2,-5
619,-39,-38,999,-14,-25,-13
620,95,-29,1003,-8,-26,-12
621,160,-17,1009,-8,-9,-11
622,93,-3,1015,-12,16,-4
623,-31,-8,1006,-17,29,-2
624,-158,-10,967,-18,24,2
625,-158,-29,986,-17,0,-4
626,-70,-39,996,-14,-23,-10
627,86,-28,1006,-10,-29,-13
628,157,-19,1007,-9,-14,-12
629,107,-8,1008,-11,12,-5
630,-10,-1,1008,-14,28,0
631,-146,-9,985,-20,25,3
632,-160,-28,979,-19,4,-5
633,-89,-41,992,-16,-20,-9
634,68,-23,1005,-10,-29,-13
635,155,-24,1011,-9,-15,-12
636,124,-10,1005,-11,10,-6
637,9,-2,1000,-15,28,0
638,-130,-2,995,-18,29,2
639,-167,-28,988,-22,8,-2
640,-106,-35,970,-17,-17,-9
641,49,-28,1013,-11,-30,-13
642,142,-26,1011,-9,-20,-11
643,141,-13,1008,-11,5,-6
644,26,0,994,-14,27,-1
645,-121,-1,992,-17,31,3
646,-169,-26,988,-20,10,-2
647,-122,-31,979,-17,-14,-6
648,30,-30,1007,-11,-29,-12
649,131,-31,1013,-11,-21,-13
650,149,-10,1009,-9,1,-7
651,48,-1,993,-12,23,-3
652,-103,-11,999,-17,32,2
653,-170,-20,978,-19,15,0
654,-133,-26,983,-16,-10,-5
655,13,-38,1007,-12,-29,-12
656,113,-30,1008,-10,-24,-13
657,161,-12,1004,-9,-3,-9
658,62,-2,1010,-13,22,-1
659,-78,-12,1000,-17,30,2
660,-168,-17,970,-19,17,0
661,-139,-23,987,-16,-7,-7
662,-14,-36,1004,-12,-26,-13
663,108,-28,1012,-10,-24,-14
664,162,-12,1007,-10,-5,-9
665,73,-2,1003,-13,19,-2
666,-59,-11,1003,-17,30,2
667,-161,-20,966,-20,20,0
668,-153,-25,988,-17,-3,-4
669,-30,-38,1002,-12,-25,-11
670,96,-26,1005,-10,-27,-14
671,162,-13,1005,-10,-9,-11
672,86,-3,1016,-12,17,-3
673,-35,-9,1004,-17,31,0
674,-157,-11,969,-18,23,1
675,-155,-25,984,-17,-1,-5
676,-59,-40,1000,-15,-23,-11
677,89,-30,1002,-11,-28,-13
678,155,-16,1009,-10,-13,-11
679,108,-8,1010,-16,15,-3
680,-21,-2,1008,-18,31,1
681,-145,-5,974,-17,26,3
682,-161,-27,984,-19,3,-3
683,-81,-39,990,-16,-21,-9
684,75,-29,1010,-10,-28,-14
685,153,-20,1010,-10,-15,-13
686,120,-10,1003,-9,9,-4
687,4,0,1006,-14,28,-2
688,-136,-7,990,-19,29,2
689,-165,-27,982,-18,7,-4
690,-96,-38,982,-16,-18,-10
691,54,-23,1006,-10,-29,-12
692,146,-25,1014,-10,-18,-12
693,133,-15,1008,-10,7,-5
694,18,-1,993,-14,27,0
695,-121,-6,992,-19,28,1
696,-172,-29,993,-18,9,-3
697,-116,-31,972,-14,-16,-8
698,38,-31,1011,-10,-30,-13
699,135,-25,1013,-9,-20,-13
700,147,-14,1005,-9,2,-7
701,39,0,995,-14,24,-2
702,-106,-6,995,-17,30,2
703,-171,-23,984,-18,13,-2
704,-126,-31,984,-16,-11,-8
705,20,-30,1010,-12,-29,-14
706,122,-28,1009,-11,-22,-14
707,154,-11,1007,-8,-1,-8
708,59,-6,1000,-15,22,-2
709,-89,-10,998,-17,31,2
710,-170,-20,974,-18,16,0
711,-133,-27,982,-16,-9,-7
712,-5,-36,1008,-12,-28,-11
713,109,-25,1007,-8,-24,-13
714,164,-15,1010,-10,-5,-11
715,69,-1,1003,-11,21,-2
716,-61,-10,998,-16,30,2
717,-168,-17,974,-19,19,0
718,-149,-20,981,-18,-5,-4
719,-26,-41,1009,-14,-25,-11
720,102,-28,1003,-10,-26,-14
721,164,-13,1007,-9,-9,-10
722,87,-2,1011,-12,18,-3
723,-49,-10,1006,-17,31,2
724,-157,-14,964,-20,24,1
725,-154,-28,991,-17,-2,-4
726,-48,-34,996,-14,-25,-10
727,93,-29,1003,-10,-27,-12
728,163,-18,1010,-10,-12,-12
729,95,-7,1015,-11,16,-2
730,-23,-6,1005,-17,30,0
731,-154,-12,972,-19,24,1
732,-161,-27,982,-19,0,-5
733,-71,-38,995,-15,-22,-10
734,79,-24,1007,-11,-29,-13
735,160,-21,1005,-10,-14,-13
736,114,-7,1005,-10,11,-4
737,-9,-7,1008,-15,28,0
738,-137,-8,983,-19,26,1
739,-165,-27,983,-18,6,-3
740,-92,-34,984,-16,-19,-10
741,66,-24,1010,-10,-30,-13
742,151,-21,1011,-10,-17,-12
743,128,-13,1003,-10,8,-5
744,8,-4,998,-14,29,-1
745,-126,-7,993,-18,29,1
746,-167,-31,988,-20,9,-3
747,-108,-35,975,-16,-16,-8
748,48,-25,1006,-9,-30,-13
749,137,-26,1016,-10,-20,-13
750,143,-11,1007,-11,5,-6
751,28,-2,997,-13,26,-2
752,-113,-6,991,-19,29,3
753,-173,-26,991,-19,10,-2
754,-123,-32,980,-17,-11,-8
755,28,-31,1008,-13,-29,-12
756,129,-28,1014,-9,-22,-13
757,155,-12,1000,-9,-1,-7
758,52,1,1000,-14,23,-2
759,-99,-11,1000,-17,31,1
760,-172,-23,977,-20,15,-1
761,-133,-30,980,-16,-9,-5
762,5,-32,1014,-12,-28,-11
763,117,-27,1007,-9,-24,-14
764,156,-8,1006,-9,-3,-9
765,68,-4,1005,-14,21,-3
766,-80,-11,1002,-17,31,2
767,-167,-18,964,-21,17,0
768,-145,-24,988,-17,-7,-5
769,-15,-38,1009,-12,-27,-12
770,107,-30,1006,-9,-25,-13
771,165,-10,1012,-8,-8,-10
772,75,0,1003,-13,18,-2
773,-52,-11,1003,-16,30,1
774,-163,-14,968,-20,20,2
775,-152,-27,987,-17,-4,-5
776,-40,-39,1002,-14,-24,-11
777,94,-28,1001,-9,-26,-14
778,162,-13,1010,-7,-10,-12
779,89,-4,1014,-13,16,-5
780,-35,-5,1003,-16,29,0
781,-153,-14,969,-20,24,0
782,-160,-27,989,-18,1,-4
783,-64,-41,993,-16,-24,-10
784,86,-29,1007,-9,-28,-14
785,160,-20,1006,-9,-13,-11
786,107,-7,1010,-11,13,-4
787,-15,-4,1006,-13,28,0
788,-145,-8,979,-18,25,2
789,-165,-28,979,-18,5,-4
790,-83,-40,991,-15,-20,-10
791,75,-26,1013,-12,-29,-13
792,153,-22,1007,-9,-16,-12
793,123,-9,1004,-10,10,-5
794,0,-1,1002,-15,28,-1
795,-132,-5,991,-19,28,2
796,-168,-29,987,-20,7,-3
797,-101,-36,978,-15,-18,-9
798,57,-27,1010,-10,-29,-14
799,146,-23,1015,-9,-18,-13
800,137,-14,1006,-13,7,-5
801,22,0,998,-12,27,-1
802,-123,-5,991,-18,29,3
803,-169,-25,989,-20,9,-2
804,-118,-34,977,-16,-14,-7
805,40,-28,1005,-11,-30,-13
806,136,-29,1016,-9,-20,-14
807,146,-13,1005,-11,2,-6
808,44,-2,994,-12,24,-1
809,-111,-9,999,-18,30,3
810,-174,-25,981,-19,12,-1
811,-125,-30,986,-16,-12,-7
812,16,-28,1007,-13,-29,-13
813,121,-29,1009,-10,-22,-14
814,160,-10,1008,-9,-1,-9
815,57,0,998,-15,24,-2
816,-87,-10,1003,-18,31,1
817,-171,-20,973,-21,17,-1
818,-138,-25,978,-17,-8,-6
819,-5,-34,1011,-12,-29,-12
820,112,-28,1011,-11,-24,-13
821,160,-12,1007,-12,-5,-8
822,70,0,1006,-12,20,-2
823,-70,-13,1001,-17,30,2
824,-164,-18,964,-19,18,0
825,-148,-27,990,-19,-5,-5
826,-25,-39,1006,-13,-27,-12
827,101,-31,1004,-11,-26,-13
828,166,-11,1007,-8,-7,-11
829,85,-3,1014,-11,18,-3
830,-48,-8,999,-18,31,1
831,-161,-15,968,-21,23,2
832,-154,-30,991,-18,-2,-5
833,-51,-37,996,-16,-25,-11
834,96,-26,1004,-9,-29,-13
835,158,-16,1008,-10,-11,-11
836,93,-1,1015,-14,16,-3
837,-27,-9,1005,-17,30,-1
838,-150,-12,971,-20,24,1
839,-158,-28,984,-18,-1,-4
840,-72,-38,994,-15,-22,-10
841,83,-28,1009,-12,-28,-13
842,157,-20,1006,-9,-13,-12
843,111,-8,1005,-11,12,-4
844,-11,-4,1010,-15,28,0
845,-140,-9,980,-19,26,2
846,-164,-32,985,-19,4,-4
847,-92,-38,985,-16,-18,-8
848,68,-26,1012,-11,-29,-14
849,150,-20,1007,-9,-17,-13
850,126,-13,1005,-11,8,-5
851,9,-3,1003,-13,27,-2
852,-127,-8,990,-19,28,2
853,-166,-30,990,-19,7,-3
854,-107,-37,975,-17,-17,-8
855,48,-28,1011,-10,-30,-13
856,139,-24,1014,-10,-19,-12
857,141,-12,1007,-11,5,-7
858,28,3,994,-15,25,-1
859,-118,-6,994,-19,29,2
860,-171,-25,988,-20,10,-1
861,-121,-36,982,-19,-14,-8
862,32,-31,1006,-11,-29,-13
863,130,-30,1011,-11,-21,-14
864,152,-8,1007,-10,1,-7
865,47,0,997,-14,24,-1
866,-100,-6,998,-18,30,3
867,-174,-21,978,-20,14,-1
868,-133,-30,983,-17,-11,-7
869,8,-37,1007,-15,-29,-12
870,119,-32,1014,-10,-24,-14
871,162,-10,1003,-8,-3,-8
872,62,-1,1005,-15,23,-2
873,-81,-6,1002,-17,31,2
874,-174,-16,970,-20,16,-1
875,-141,-29,980,-18,-8,-6
876,-12,-40,1013,-14,-27,-10
877,110,-35,1007,-10,-25,-13
878,163,-12,1009,-10,-6,-9
879,77,1,1009,-13,18,-1
880,-60,-10,999,-16,30,1
881,-165,-14,967,-20,18,1
882,-152,-23,985,-17,-5,-5
883,-35,-42,1005,-16,-26,-12
884,100,-30,1001,-10,-27,-14
885,158,-18,1007,-9,-10,-10
886,91,-4,1014,-12,15,-4
887,-38,-12,1004,-17,30,2
888,-161,-11,967,-21,23,2
889,-154,-27,988,-18,-3,-5
890,-61,-38,999,-14,-25,-10
891,91,-26,999,-11,-28,-13
892,159,-19,1012,-11,-12,-12
893,102,-6,1008,-12,14,-3
894,-19,-6,1007,-16,29,1
895,-148,-8,974,-19,24,1
896,-163,-29,984,-19,2,-4
897,-79,-40,989,-15,-21,-10
898,76,-27,1013,-11,-29,-13
899,152,-20,1003,-12,-14,-12
900,120,-10,1007,-10,10,-6
901,-4,-5,1003,-15,27,0
902,-138,-2,987,-18,27,2
903,-164,-30,987,-20,5,-3
904,-101,-38,980,-18,-18,-8
905,61,-27,1009,-12,-30,-13
906,146,-26,1013,-9,-20,-14
907,130,-14,1003,-11,6,-5
908,15,-1,1001,-15,26,-1
909,-124,-2,992,-19,28,3
910,-172,-26,988,-19,8,-2
911,-111,-36,978,-17,-17,-8
912,41,-31,1009,-12,-29,-12
913,138,-26,1010,-11,-20,-13
914,146,-15,1012,-11,2,-7
915,37,2,992,-16,24,-1
916,-115,-4,994,-17,28,3
917,-169,-26,987,-19,11,-2
918,-125,-33,982,-17,-12,-6
919,25,-32,1005,-12,-29,-13
920,122,-31,1011,-11,-23,-12
921,155,-10,1002,-9,-2,-8
922,52,-1,1001,-13,22,-2
923,-94,-7,1000,-17,29,2
924,-169,-22,973,-20,14,0
925,-136,-26,984,-17,-11,-6
926,2,-41,1010,-13,-30,-12
927,114,-30,1010,-9,-24,-14
928,162,-15,1004,-10,-4,-9
929,67,-1,1007,-13,22,-3
930,-72,-12,1000,-18,30,2
931,-169,-14,971,-18,18,0
932,-142,-26,982,-18,-6,-6
933,-23,-37,1009,-14,-26,-11
934,110,-31,1006,-12,-26,-14
935,158,-13,1010,-10,-6,-11
936,83,-1,1008,-13,18,-4
937,-52,-8,1005,-15,31,1
938,-160,-12,965,-20,20,0
939,-153,-23,994,-19,-3,-4
940,-43,-39,997,-16,-26,-11
941,96,-33,1005,-10,-27,-14
942,162,-16,1008,-8,-12,-11
943,94,-6,1015,-13,16,-3
944,-32,-8,1007,-15,31,1
945,-156,-9,964,-18,23,2
946,-157,-24,987,-17,0,-4
947,-68,-38,994,-15,-23,-11
948,86,-26,1005,-11,-28,-14
949,159,-20,1008,-11,-13,-11
950,108,-8,1008,-12,12,-4
951,-10,-6,1008,-15,30,0
952,-147,-7,979,-21,25,2
953,-160,-28,982,-19,3,-4
954,-86,-36,989,-16,-21,-10
955,70,-25,1012,-13,-29,-12
956,155,-24,1008,-10,-15,-13
957,116,-13,1003,-12,10,-4
958,5,-5,1002,-14,27,-2
959,-133,-7,993,-19,29,2
960,-161,-26,982,-18,7,-3
961,-104,-37,979,-16,-16,-9
962,55,-24,1009,-11,-30,-15
963,143,-26,1015,-11,-18,-13
964,135,-12,1006,-11,5,-7
965,22,-2,995,-14,27,-1
966,-116,-4,993,-19,29,2
967,-167,-30,994,-20,9,-2
968,-118,-33,976,-17,-15,-8
969,35,-30,1006,-13,-30,-13
970,133,-26,1015,-10,-20,-14
971,149,-15,1005,-10,3,-7
972,43,1,996,-13,24,-1
973,-104,-10,997,-18,30,2
974,-173,-20,985,-19,12,-2
975,-124,-30,983,-17,-11,-6
976,18,-36,1009,-13,-29,-12
977,121,-33,1006,-8,-23,-13
978,153,-11,1007,-8,-2,-8
979,57,-3,1001,-15,23,-2
980,-89,-11,1001,-17,31,2
981,-167,-14,970,-19,17,0
982,-142,-26,986,-17,-8,-6
983,-5,-37,1006,-12,-29,-11
984,111,-33,1012,-9,-24,-13
985,162,-10,1008,-10,-5,-8
986,73,-3,1005,-13,21,-3
987,-67,-10,1001,-16,29,1
988,-167,-13,965,-20,18,0
989,-143,-26,988,-18,-5,-6
990,-30,-40,1005,-14,-26,-12
991,105,-27,1006,-11,-27,-13
992,160,-14,1006,-9,-8,-11
993,82,-1,1011,-12,19,-2
994,-42,-8,1003,-18,31,0
995,-160,-14,971,-20,22,0
996,-153,-26,986,-17,-2,-5
997,-49,-41,1001,-14,-23,-10
998,92,-30,1001,-9,-27,-12
999,163,-19,1007,-6,-11,-11
1000,98,-6,1012,-12,16,-3
1001,-28,-4,1007,-16,30,0
1002,-149,-9,970,-21,24,1
1003,-161,-26,986,-17,1,-4
1004,-71,-44,992,-14,-22,-10
1005,79,-29,1012,-9,-28,-14
1006,160,-23,1002,-9,-14,-11
1007,111,-10,1006,-9,12,-5
1008,-7,-1,1009,-16,27,-1
1009,-141,0,987,-18,27,2
1010,-162,-26,984,-19,6,-3
1011,-93,-38,984,-14,-19,-9
1012,65,-26,1010,-11,-29,-14
1013,150,-27,1008,-10,-18,-12
1014,126,-17,1006,-10,9,-4
1015,11,-2,1000,-13,28,-1
1016,-130,-3,995,-16,28,2
1017,-169,-24,988,-18,8,-2
1018,-113,-35,978,-14,-14,-9
1019,49,-25,1007,-10,-30,-14
1020,140,-29,1016,-11,-19,-13
1021,144,-15,1007,-11,5,-7
1022,30,-3,996,-13,27,-2
1023,-110,-8,992,-17,30,2
1024,-175,-25,992,-20,12,-1
1025,-124,-27,978,-15,-13,-7
1026,27,-32,1008,-13,-29,-12
1027,126,-29,1012,-10,-21,-12
1028,152,-13,1002,-9,0,-8
1029,51,-1,1001,-13,24,-2
1030,-95,-11,998,-17,32,2
1031,-170,-20,975,-18,16,-1
1032,-134,-25,985,-16,-8,-5
1033,6,-33,1011,-13,-28,-11
1034,114,-31,1007,-10,-22,-12
1035,162,-11,1003,-11,-4,-9
1036,65,-4,1006,-13,22,-3
1037,-76,-8,999,-16,32,1
1038,-170,-21,971,-19,17,-1
1039,-140,-24,980,-17,-8,-6
1040,-17,-42,1012,-13,-28,-12
1041,107,-26,1006,-9,-26,-12
1042,161,-14,1007,-11,-6,-10
1043,79,0,1008,-12,19,-5
1044,-56,-12,1002,-17,30,1
1045,-160,-14,965,-20,21,0
1046,-149,-26,991,-17,-3,-5
1047,-41,-39,1000,-14,-25,-11
1048,98,-33,1001,-10,-27,-13
1049,161,-15,1010,-8,-11,-11
1050,94,-2,1014,-13,16,-2
1051,-36,-4,1006,-15,30,-1
1052,-153,-11,969,-18,24,0
1053,-159,-28,986,-18,0,-4
1054,-63,-41,997,-15,-23,-10
1055,87,-31,1007,-11,-28,-15
1056,160,-20,1005,-9,-13,-12
1057,107,-5,1008,-11,13,-4
1058,-15,-1,1011,-15,29,0
1059,-144,-6,974,-20,26,2
1060,-166,-26,984,-18,4,-3
1061,-84,-44,988,-17,-20,-9
1062,74,-29,1014,-11,-28,-13
1063,156,-23,1003,-10,-16,-13
1064,119,-10,1008,-9,9,-6
1065,2,1,1004,-15,27,0
1066,-137,-1,992,-20,29,3
1067,-167,-26,987,-18,6,-3
1068,-104,-40,975,-16,-18,-8
1069,58,-25,1009,-12,-30,-13
1070,147,-30,1014,-10,-18,-13
1071,136,-13,1007,-11,7,-6
1072,25,-1,995,-14,27,-1
1073,-119,-2,993,-17,30,3
1074,-172,-23,992,-19,8,-2
1075,-116,-30,977,-17,-14,-7
1076,38,-34,1007,-12,-29,-13
1077,131,-32,1011,-10,-20,-12
1078,151,-18,1007,-9,2,-7
1079,43,-2,995,-13,24,-1
1080,-105,-5,997,-17,29,3
1081,-170,-20,982,-19,13,-1
1082,-130,-23,984,-18,-11,-7
1083,17,-34,1005,-13,-29,-13
1084,115,-34,1008,-11,-22,-14
1085,160,-16,1003,-9,-2,-9
1086,60,-5,1002,-12,21,-2
1087,-81,-12,1001,-17,32,1
1088,-171,-15,972,-19,18,-1
1089,-140,-25,982,-16,-9,-7
1090,-10,-35,1011,-13,-28,-11
1091,109,-30,1010,-11,-24,-14
1092,164,-15,1009,-10,-6,-9
1093,72,-4,1003,-11,19,-3
1094,-60,-11,1002,-15,30,2
1095,-164,-15,971,-19,20,1
1096,-151,-22,986,-17,-5,-5
1097,-30,-38,1005,-14,-26,-11
1098,99,-30,1003,-10,-25,-14
1099,167,-15,1010,-10,-10,-12
1100,85,-4,1009,-12,17,-4
1101,-44,-9,1004,-16,30,1
1102,-152,-14,970,-18,23,1
1103,-160,-30,986,-18,0,-4
1104,-52,-36,999,-17,-23,-11
1105,91,-32,1006,-9,-28,-14
1106,157,-18,1004,-10,-12,-11
1107,101,-4,1013,-12,15,-4
1108,-23,-9,1010,-14,30,0
1109,-146,-7,969,-17,25,2
1110,-160,-34,988,-18,3,-3
1111,-78,-36,992,-15,-20,-9
1112,79,-30,1010,-11,-28,-14
1113,153,-21,1004,-10,-15,-12
1114,115,-9,1004,-9,10,-4
1115,-2,-3,1008,-16,28,-2
1116,-136,-6,985,-21,27,2
1117,-163,-30,986,-19,5,-4
1118,-96,-40,980,-15,-18,-9
1119,63,-28,1009,-9,-29,-13
1120,147,-22,1014,-8,-18,-13
1121,131,-12,1005,-11,9,-6
1122,17,-1,996,-15,28,-1
1123,-125,-4,995,-18,30,3
1124,-168,-30,991,-20,8,-2
1125,-111,-38,975,-14,-17,-9
1126,44,-28,1009,-10,-30,-14
1127,136,-26,1014,-9,-19,-13
1128,147,-12,1009,-9,4,-8
1129,36,-1,993,-14,25,-2
1130,-113,-7,993,-18,29,2
1131,-171,-23,986,-19,12,-3
1132,-124,-30,983,-18,-12,-7
1133,22,-34,1008,-12,-30,-12
1134,125,-32,1010,-10,-22,-14
1135,154,-12,1007,-8,0,-7
1136,56,-1,1000,-14,21,-2
1137,-95,-8,1003,-17,31,3
1138,-172,-21,970,-19,15,-1
1139,-137,-28,984,-17,-10,-7
1140,1,-38,1012,-13,-29,-12
1141,109,-31,1008,-10,-23,-14
1142,162,-9,1009,-9,-5,-11
1143,69,-3,1002,-12,21,-2
1144,-74,-5,1005,-15,29,2
1145,-166,-13,966,-20,18,0
1146,-143,-27,990,-19,-4,-5
1147,-26,-38,1002,-15,-26,-11
1148,105,-36,1009,-10,-25,-13
1149,164,-15,1006,-8,-8,-10
1150,79,1,1008,-9,19,-3
1151,-46,-7,1004,-14,30,-1
1152,-163,-12,968,-19,22,0
1153,-153,-25,986,-19,-2,-4
1154,-44,-42,1005,-15,-24,-11
1155,96,-28,999,-11,-28,-13
1156,161,-19,1006,-9,-11,-11
1157,95,-5,1019,-11,16,-4
1158,-28,-6,1005,-15,30,0
1159,-152,-8,973,-20,25,1
1160,-162,-28,983,-17,1,-4
1161,-70,-40,995,-15,-22,-9
1162,83,-30,1009,-9,-28,-14
1163,157,-19,1003,-9,-13,-12
1164,114,-10,1007,-11,12,-4
1165,-9,-4,1009,-14,30,0
1166,-143,-2,981,-18,25,3
1167,-161,-30,984,-18,4,-4
1168,-96,-41,985,-16,-19,-8
1169,70,-27,1010,-12,-30,-14
1170,150,-26,1011,-10,-17,-12
1171,125,-11,1002,-10,8,-6
1172,12,-1,1002,-13,28,-2
1173,-129,-5,991,-19,29,1
1174,-165,-26,990,-18,8,-2
1175,-110,-36,974,-16,-18,-9
1176,52,-28,1006,-9,-29,-14
1177,137,-29,1016,-9,-18,-14
1178,142,-14,1007,-10,5,-6
1179,30,0,995,-13,26,-2
1180,-115,-4,993,-17,31,2
1181,-171,-27,988,-18,12,-2
1182,-121,-32,983,-17,-12,-8
1183,30,-32,1006,-12,-29,-12
1184,125,-30,1010,-8,-21,-15
1185,153,-11,1007,-8,1,-7
1186,49,-2,997,-12,23,-2
1187,-98,-7,1001,-19,32,2
1188,-171,-18,975,-20,14,-2
1189,-130,-28,985,-16,-9,-8
1190,6,-38,1010,-12,-28,-13
1191,114,-31,1008,-8,-24,-15
1192,160,-12,1003,-8,-2,-10
1193,64,2,1007,-13,21,-2
1194,-75,-10,998,-17,30,1
1195,-167,-17,971,-20,17,0
1196,-141,-27,983,-18,-7,-6
1197,-21,-40,1006,-12,-27,-12
1198,109,-29,1011,-9,-26,-15
1199,163,-11,1005,-9,-7,-9
1200,80,-1,1009,-11,18,-2
1201,-55,-10,1005,-16,30,2
1202,-160,-14,964,-19,21,0
1203,-152,-28,989,-18,-3,-5
1204,-41,-40,1001,-15,-24,-11
1205,98,-30,1000,-10,-27,-14
1206,158,-16,1011,-9,-9,-10
1207,92,-6,1016,-11,17,-4
1208,-33,-7,1005,-16,30,0
1209,-153,-9,969,-18,23,2
1210,-160,-25,988,-16,0,-5
1211,-64,-41,997,-16,-24,-10
1212,85,-29,1006,-9,-29,-12
1213,158,-22,1005,-10,-13,-11
1214,107,-6,1007,-10,13,-5
1215,-11,-3,1008,-16,29,0
1216,-140,-3,982,-20,26,2
1217,-163,-31,983,-18,4,-5
1218,-89,-40,987,-15,-20,-10
1219,71,-27,1010,-11,-30,-13
1220,152,-19,1008,-9,-16,-12
1221,123,-9,1002,-10,9,-5
1222,4,0,1006,-14,28,0
1223,-131,-4,991,-19,29,2
1224,-166,-28,984,-19,8,-3
1225,-104,-39,981,-15,-17,-8
1226,52,-25,1004,-10,-30,-13
1227,143,-28,1018,-11,-18,-12
1228,139,-14,1008,-11,6,-5
1229,26,-1,991,-13,26,0
1230,-114,-5,990,-19,29,2
1231,-173,-26,995,-18,11,-2
1232,-114,-34,976,-17,-14,-8
1233,30,-29,1012,-12,-29,-11
1234,128,-29,1011,-10,-21,-13
1235,150,-14,1006,-9,0,-8
1236,47,-1,999,-13,23,-2
1237,-99,-7,997,-18,30,1
1238,-169,-25,980,-19,14,-2
1239,-132,-25,981,-15,-10,-6
1240,11,-36,1010,-11,-29,-13
1241,115,-33,1009,-8,-24,-15
1242,161,-10,1002,-10,-3,-7
1243,67,-4,1006,-14,22,-3
1244,-80,-10,1000,-16,31,1
1245,-166,-17,968,-18,17,0
1246,-142,-24,984,-17,-6,-5
1247,-16,-40,1006,-13,-27,-12
1248,109,-30,1010,-10,-25,-13
1249,162,-13,1007,-10,-6,-10
1250,79,-1,1009,-13,19,-4
1251,-57,-12,1001,-17,30,0
1252,-161,-13,963,-19,19,0
1253,-151,-28,992,-18,-3,-6
1254,-36,-37,1002,-14,-24,-11
1255,100,-28,1003,-9,-27,-14
1256,160,-13,1006,-8,-10,-12
1257,91,-6,1015,-11,16,-4
1258,-33,-8,1005,-16,29,0
1259,-156,-14,965,-19,24,2
1260,-157,-24,989,-16,0,-3
1261,-58,-41,997,-16,-22,-10
1262,85,-27,1009,-10,-26,-14
1263,157,-22,1003,-10,-12,-12
1264,104,-7,1014,-11,13,-5
1265,-13,-3,1003,-15,28,-1
1266,-145,-6,981,-20,24,1
1267,-159,-26,982,-19,4,-2
1268,-84,-41,990,-15,-20,-10
1269,74,-26,1010,-11,-29,-14
1270,147,-25,1008,-10,-16,-12
1271,124,-11,1004,-10,8,-7
1272,4,-5,1002,-15,28,-1
1273,-134,0,991,-18,28,2
1274,-165,-29,986,-18,6,-3
1275,-103,-34,979,-16,-18,-9
1276,57,-28,1007,-10,-30,-13
1277,144,-25,1014,-10,-18,-13
1278,135,-15,1009,-11,6,-6
1279,27,-2,991,-13,26,-1
1280,-120,-3,993,-17,28,3
1281,-169,-25,991,-19,11,-2
1282,-116,-33,980,-18,-14,-8
1283,37,-31,1006,-12,-28,-13
1284,127,-29,1013,-10,-19,-14
1285,155,-13,1007,-10,2,-9
1286,42,-3,996,-15,24,-1
1287,-102,-7,998,-18,29,2
1288,-172,-23,980,-18,14,0
1289,-128,-27,984,-17,-10,-6
1290,14,-35,1007,-13,-29,-13
1291,119,-33,1009,-10,-23,-14
1292,156,-13,1005,-10,-1,-9
1293,60,0,1002,-14,23,-3
1294,-79,-12,1003,-17,30,1
1295,-170,-14,970,-19,15,0
1296,-138,-25,986,-17,-8,-6
1297,-9,-40,1009,-14,-28,-12
1298,106,-30,1009,-10,-23,-14
1299,161,-11,1007,-10,-6,-11
1300,71,-5,1009,-12,21,-2
1301,-60,-7,997,-15,30,2
1302,-160,-15,970,-19,20,1
1303,-145,-24,989,-18,-4,-4
1304,-35,-42,1004,-14,-24,-11
1305,99,-31,1004,-10,-27,-14
1306,160,-17,1004,-8,-10,-10
1307,85,-3,1018,-10,17,-3
1308,-39,-9,1004,-15,30,-1
1309,-153,-10,966,-18,22,0
1310,-154,-25,989,-17,0,-4
1311,-57,-40,998,-13,-22,-11
1312,87,-31,1006,-9,-28,-13
1313,154,-21,1004,-9,-12,-11
1314,103,-6,1011,-11,14,-3
1315,-20,-5,1006,-15,29,0
1316,-148,-4,979,-19,25,3
1317,-158,-30,983,-18,3,-4
1318,-80,-38,992,-15,-20,-9
1319,76,-28,1009,-11,-28,-13
1320,151,-25,1006,-6,-15,-12
1321,121,-12,1002,-10,10,-5
1322,-5,-3,1005,-14,29,-1
1323,-132,-2,990,-18,28,2
1324,-165,-26,990,-18,7,-3
1325,-101,-33,976,-15,-17,-8
1326,58,-28,1010,-12,-29,-13
1327,143,-29,1015,-9,-18,-13
1328,132,-15,1004,-10,7,-6
1329,24,-2,999,-13,27,-2
1330,-123,-5,992,-18,29,3
1331,-169,-23,988,-19,10,-2
1332,-116,-33,985,-17,-14,-9
1333,40,-28,1005,-11,-29,-14
1334,131,-32,1012,-11,-21,-14
1335,151,-14,1008,-7,3,-8
1336,37,-7,993,-13,25,-1
1337,-102,-10,995,-16,29,1
1338,-174,-20,983,-18,14,-1
1339,-124,-23,981,-16,-11,-8
1340,14,-36,1010,-12,-28,-12
1341,117,-27,1007,-10,-22,-13
1342,159,-13,1008,-10,-1,-9
1343,58,-5,1002,-12,23,-2
1344,-82,-10,999,-17,31,2
1345,-170,-20,970,-18,16,-2
1346,-137,-24,984,-16,-8,-6
1347,-11,-38,1009,-12,-27,-11
1348,109,-27,1008,-10,-24,-14
1349,159,-9,1006,-10,-5,-9
1350,71,-5,1007,-11,21,-3
1351,-59,-14,1002,-15,30,0
1352,-163,-15,965,-17,14,-3
1353,-144,-24,993,-17,-4,-6
1354,-36,-37,999,-14,-24,-11
1355,100,-25,1001,-10,-27,-12
1356,159,-17,1009,-8,-9,-10
1357,85,-4,1014,-13,17,-3
1358,-33,-12,999,-15,29,-2
1359,-157,-13,971,-18,22,0
1360,-157,-24,985,-17,-3,-4
1361,-59,-41,998,-13,-23,-12
1362,87,-26,1006,-11,-28,-12
1363,159,-18,1003,-9,-13,-11
1364,107,-7,1011,-11,14,-4
1365,-17,-5,1006,-16,28,0
1366,-147,-7,980,-19,25,1
1367,-159,-30,983,-18,3,-4
1368,-87,-35,989,-15,-18,-8
1369,78,-27,1010,-10,-28,-14
1370,153,-24,1010,-9,-15,-12
1371,120,-11,1000,-9,9,-5
1372,3,-3,1006,-13,29,-1
1373,-134,-5,992,-17,29,2
1374,-163,-29,985,-18,7,-4
1375,-101,-36,982,-15,-18,-8
1376,54,-27,1004,-11,-29,-12
1377,143,-27,1017,-9,-17,-13
1378,137,-15,1008,-10,6,-6
1379,21,-1,992,-13,26,0
1380,-117,-4,993,-15,29,2
1381,-170,-26,990,-19,10,-2
1382,-114,-29,979,-17,-13,-6
1383,37,-32,1008,-12,-29,-11
1384,126,-32,1011,-9,-20,-14
1385,148,-12,1002,-8,2,-8
1386,45,-2,996,-12,24,-2
1387,-103,-7,1001,-16,30,2
1388,-165,-20,979,-19,14,-2
1389,-133,-26,982,-16,-9,-6
1390,13,-33,1007,-12,-28,-13
1391,115,-34,1012,-8,-22,-15
1392,158,-11,1004,-8,-1,-8
1393,65,-2,1003,-12,23,-3
1394,-77,-9,1004,-16,31,1
1395,-166,-18,964,-20,17,0
1396,-139,-22,988,-16,-8,-6
1397,-16,-37,1008,-14,-27,-12
1398,106,-30,1006,-11,-24,-14
1399,159,-16,1009,-9,-6,-10
1400,75,-4,1008,-12,20,-3
1401,-55,-11,1000,-16,29,0
1402,-163,-17,966,-20,21,0
1403,-149,-24,993,-16,-4,-5
1404,-40,-37,999,-13,-25,-12
1405,93,-25,1006,-9,-25,-13
1406,160,-15,1008,-8,-10,-11
1407,87,-6,1018,-13,16,-3
1408,-32,-8,1001,-17,29,1
1409,-154,-14,972,-20,24,1
1410,-154,-28,984,-17,0,-5
1411,-63,-40,994,-14,-21,-11
1412,83,-24,1009,-9,-27,-14
1413,154,-18,1007,-11,-12,-11
1414,106,-6,1007,-10,13,-4
1415,-15,-5,1009,-13,29,0
1416,-141,-6,982,-20,26,1
1417,-162,-32,983,-18,5,-5
1418,-87,-38,985,-15,-20,-9
1419,72,-26,1009,-10,-29,-13
1420,148,-22,1012,-9,-15,-12
1421,126,-12,1003,-10,9,-5
1422,9,-4,1003,-13,27,0
1423,-130,-4,989,-18,28,3
1424,-165,-28,990,-19,8,-4
1425,-105,-35,977,-16,-17,-8
1426,49,-26,1006,-10,-29,-12
1427,144,-30,1018,-10,-19,-15
1428,136,-15,1007,-10,5,-6
1429,31,1,991,-13,25,-3
1430,-114,-7,997,-17,30,2
1431,-167,-19,986,-18,10,-2
1432,-121,-33,986,-17,-12,-7
1433,27,-33,1008,-14,-29,-13
1434,125,-32,1011,-9,-22,-13
1435,152,-12,1002,-8,1,-8
1436,51,-3,1002,-14,24,-2
1437,-92,-9,1000,-16,30,0
1438,-173,-19,974,-18,15,0
1439,-129,-25,982,-16,-9,-7
1440,0,-41,1013,-12,-28,-12
1441,112,-29,1007,-8,-24,-13
1442,160,-15,1008,-9,-4,-9
1443,66,-1,1006,-11,21,-3
1444,-68,-13,996,-15,30,0
1445,-165,-15,969,-18,18,0
1446,-143,-23,990,-17,-5,-5
1447,-23,-36,1005,-13,-27,-13
1448,102,-32,1007,-11,-25,-14
1449,157,-14,1006,-9,-8,-10
1450,81,-5,1011,-11,19,-4
1451,-49,-12,1003,-14,30,2
1452,-159,-7,966,-19,23,1
1453,-150,-28,994,-18,-2,-5
1454,-47,-36,996,-14,-24,-11
1455,91,-29,1003,-11,-28,-13
1456,161,-19,1006,-8,-11,-12
1457,94,-6,1016,-11,17,-4
1458,-27,-8,1002,-14,29,-1
1459,-148,-9,976,-18,23,2
1460,-155,-26,986,-16,1,-5
1461,-73,-34,990,-14,-22,-11
1462,82,-26,1012,-11,-27,-14
1463,153,-22,1005,-10,-12,-11
1464,115,-12,1000,-10,11,-4
1465,-9,-7,1006,-15,28,-1
1466,-132,-4,988,-17,26,2
1467,-162,-30,986,-18,5,-4
1468,-98,-36,978,-15,-19,-9
1469,61,-25,1011,-10,-29,-14
1470,146,-28,1013,-8,-18,-13
1471,127,-12,1005,-10,7,-5
1472,18,-4,999,-14,27,-2
1473,-126,-7,988,-17,28,1
1474,-167,-22,991,-19,8,-2
1475,-113,-34,978,-16,-15,-8
1476,40,-26,1010,-10,-29,-13
1477,134,-26,1011,-10,-18,-13
1478,142,-14,1008,-8,3,-7
1479,40,-3,995,-13,25,-2
1480,-104,-12,996,-18,30,2
1481,-171,-25,981,-18,13,-2
1482,-124,-26,988,-16,-11,-6
1483,16,-32,1008,-14,-28,-12
1484,118,-29,1006,-9,-21,-13
1485,157,-12,1010,-9,-2,-9
1486,53,-2,1000,-14,21,-3
1487,-82,-11,1000,-16,31,2
1488,-171,-20,973,-18,16,-1
1489,-138,-23,983,-17,-7,-5
1490,-4,-41,1010,-11,-27,-12
1491,105,-28,1008,-11,-23,-13
1492,161,-11,1010,-9,-4,-10
1493,70,-4,1006,-13,21,-3
1494,-61,-9,1001,-17,30,2
1495,-159,-14,966,-19,20,0
1496,-154,-27,994,-17,-3,-4
1497,-29,-38,998,-13,-25,-12
1498,99,-31,1007,-9,-25,-13
1499,159,-11,1005,-9,-10,-9
1500,92,-4,1017,-11,17,-3
1501,-40,-10,1003,-17,29,0
1502,-153,-9,967,-18,22,1
1503,-154,-29,990,-18,-1,-5
1504,-60,-35,993,-14,-23,-9
1505,90,-28,1009,-10,-25,-13
1506,156,-23,1006,-9,-11,-12
1507,105,-6,1008,-12,13,-5
1508,-14,-7,1008,-14,29,-1
1509,-146,-9,981,-18,26,2
1510,-157,-25,981,-18,2,-4
1511,-88,-39,993,-15,-19,-11
1512,75,-22,1010,-12,-30,-13
1513,150,-23,1008,-9,-16,-12
1514,122,-13,1002,-10,9,-6
1515,0,-3,1002,-15,28,-1
1516,-131,-5,992,-18,28,3
1517,-162,-30,983,-19,6,-2
1518,-105,-36,980,-13,-17,-8
1519,55,-25,1006,-9,-30,-13
1520,141,-27,1019,-10,-17,-13
1521,136,-13,1004,-10,6,-6
1522,26,-1,993,-13,26,-2
1523,-116,-5,993,-16,28,2
1524,-168,-25,986,-18,11,-2
1525,-116,-30,984,-15,-12,-8
1526,33,-31,1007,-10,-29,-13
1527,123,-30,1010,-9,-19,-13
1528,148,-12,1005,-8,1,-7
1529,45,-2,1001,-13,23,-1
1530,-100,-8,997,-17,30,2
1531,-170,-20,976,-19,15,-2
1532,-126,-26,984,-17,-9,-6
1533,4,-36,1009,-13,-28,-11
1534,114,-30,1010,-8,-23,-13
1535,156,-14,1005,-11,-3,-9
1536,66,-2,1006,-11,22,-3
1537,-77,-9,1001,-16,30,2
1538,-166,-15,966,-18,18,-1
1539,-144,-25,988,-19,-6,-6
1540,-15,-37,1007,-13,-26,-12
1541,106,-32,1006,-11,-25,-12
1542,165,-11,1008,-9,-6,-11
1543,77,-4,1008,-12,20,-4
1544,-52,-9,1001,-15,30,1
1545,-160,-15,970,-19,22,0
1546,-151,-24,987,-19,-3,-4
1547,-45,-37,1002,-14,-24,-12
1548,98,-24,1003,-10,-27,-14
1549,158,-18,1007,-9,-11,-11
1550,96,-5,1014,-13,16,-5
1551,-35,-12,1006,-16,30,0
1552,-146,-10,966,-18,24,1
1553,-159,-28,989,-16,0,-4
1554,-66,-37,991,-14,-20,-10
1555,84,-26,1011,-10,-26,-13
1556,155,-21,1006,-9,-13,-12
1557,114,-10,1004,-11,12,-4
1558,-10,-7,1009,-14,29,1
1559,-142,-5,983,-19,26,2
1560,-160,-30,987,-18,5,-4
1561,-94,-37,984,-15,-18,-9
1562,68,-26,1006,-10,-29,-13
1563,150,-26,1014,-9,-16,-13
1564,122,-11,1004,-9,9,-5
1565,11,-1,999,-13,28,-1
1566,-127,-5,991,-17,28,1
1567,-166,-26,992,-17,7,-3
1568,-107,-35,977,-15,-16,-8
1569,44,-28,1008,-11,-28,-14
1570,134,-25,1014,-9,-18,-12
1571,142,-13,1008,-10,4,-7
1572,33,-1,992,-12,26,-1
1573,-111,-4,994,-17,30,2
1574,-171,-22,984,-19,12,-2
1575,-122,-33,986,-17,-12,-7
1576,25,-32,1009,-12,-29,-12
1577,119,-32,1009,-9,-22,-13
1578,152,-10,1006,-9,-1,-8
1579,54,-6,1001,-16,24,-2
1580,-89,-8,1001,-17,30,1
1581,-170,-18,970,-19,15,-1
1582,-132,-23,983,-18,-9,-6
1583,-1,-37,1014,-11,-28,-12
1584,109,-28,1003,-10,-24,-13
1585,160,-16,1012,-8,-3,-9
1586,70,-5,1002,-10,21,-3
1587,-67,-11,1001,-16,30,1
1588,-162,-15,966,-17,18,-1
1589,-147,-24,993,-16,-4,-5
1590,-25,-37,1000,-13,-26,-13
1591,99,-31,1006,-8,-26,-14
1592,161,-15,1003,-9,-9,-10
1593,83,-6,1015,-12,18,-3
1594,-43,-8,1002,-14,30,1
1595,-156,-10,968,-19,22,1
1596,-153,-26,986,-16,-2,-5
1597,-54,-36,1000,-15,-23,-12
1598,96,-27,1005,-10,-27,-15
1599,154,-21,1004,-8,-11,-12
1600,103,-7,1010,-11,14,-5
1601,-21,-6,1012,-15,29,0
1602,-147,-6,970,-18,25,2
1603,-158,-31,986,-19,2,-3
1604,-82,-40,991,-15,-20,-10
1605,75,-25,1009,-11,-28,-13
1606,155,-20,1006,-9,-15,-12
1607,118,-14,1007,-11,10,-5
1608,2,-3,998,-16,27,-2
1609,-139,-5,994,-17,29,1
1610,-163,-26,987,-19,6,-2
1611,-98,-36,977,-16,-17,-8
1612,55,-25,1009,-11,-28,-13
1613,143,-26,1015,-10,-17,-13
1614,135,-16,1008,-12,6,-6
1615,20,-2,990,-12,27,0
1616,-116,-4,993,-16,29,2
1617,-171,-28,990,-18,10,-3
1618,-116,-29,981,-17,-14,-8
1619,35,-33,1007,-10,-29,-13
1620,127,-26,1013,-8,-21,-13
1621,151,-8,1001,-8,1,-8
1622,43,-3,1004,-14,24,-2
1623,-102,-13,994,-18,30,1
1624,-170,-25,979,-18,14,-1
1625,-125,-25,982,-17,-10,-5
1626,11,-32,1013,-13,-30,-12
1627,118,-27,1008,-9,-24,-14
1628,155,-12,1008,-9,-2,-7
1629,62,-1,1002,-13,21,-2
1630,-80,-15,999,-17,29,1
1631,-167,-18,970,-18,15,-1
1632,-138,-28,988,-16,-6,-6
1633,-13,-38,1005,-12,-25,-12
1634,107,-30,1007,-9,-23,-13
1635,158,-9,1009,-10,-7,-10
1636,72,-3,1009,-12,19,-2
1637,-49,-10,1001,-16,30,0
1638,-162,-17,966,-19,20,0
1639,-149,-26,990,-18,-4,-4
1640,-41,-38,1000,-15,-25,-10
1641,95,-26,1000,-8,-27,-13
1642,156,-15,1009,-7,-10,-10
1643,93,-6,1014,-11,16,-3
1644,-34,-9,1007,-15,30,0
1645,-150,-4,967,-18,23,1
1646,-158,-29,986,-16,0,-4
1647,-67,-35,992,-14,-21,-10
1648,83,-26,1011,-11,-27,-13
1649,152,-21,1005,-11,-12,-13
1650,108,-10,1004,-10,10,-5
1651,-12,-7,1006,-14,27,-2
1652,-142,-5,988,-18,26,1
1653,-157,-31,983,-18,5,-3
1654,-91,-34,984,-14,-19,-10
1655,66,-22,1010,-11,-30,-13
1656,147,-24,1013,-10,-16,-13
1657,125,-16,1006,-10,8,-6
1658,14,-3,995,-15,27,-2
1659,-127,-4,992,-18,28,1
1660,-166,-29,991,-18,8,-3
1661,-107,-34,979,-16,-17,-8
1662,48,-27,1010,-10,-29,-13
1663,130,-26,1012,-11,-17,-13
1664,144,-14,1007,-9,4,-7
1665,32,-5,994,-13,24,-1
1666,-110,-6,992,-16,28,2
1667,-168,-29,986,-18,13,-3
1668,-122,-23,984,-16,-11,-6
1669,23,-34,1009,-12,-29,-13
1670,117,-28,1009,-9,-21,-13
1671,152,-12,1005,-10,0,-9
1672,50,-5,1002,-14,24,-4
1673,-87,-8,1000,-17,30,2
1674,-167,-25,970,-20,16,-1
1675,-138,-21,985,-16,-9,-5
1676,-2,-36,1013,-13,-28,-12
1677,107,-30,1009,-10,-22,-13
1678,158,-11,1005,-10,-3,-9
1679,67,-5,1010,-11,20,-4
1680,-65,-12,998,-15,29,1
1681,-162,-16,968,-19,18,0
1682,-145,-26,992,-18,-5,-6
1683,-31,-36,1000,-14,-25,-11
1684,102,-27,1005,-10,-26,-13
1685,157,-13,1007,-9,-9,-11
1686,87,-5,1012,-12,17,-5
1687,-40,-12,1005,-15,30,1
1688,-155,-9,968,-18,22,1
1689,-154,-26,987,-16,-1,-6
1690,-59,-40,999,-13,-25,-11
1691,88,-22,1010,-6,-29,-14
1692,156,-23,1005,-13,-12,-12
1693,102,-8,1012,-9,14,-5
1694,-20,-6,1005,-16,27,-1
1695,-147,-5,981,-19,25,1
1696,-157,-28,982,-17,3,-4
1697,-83,-38,989,-14,-20,-10
1698,74,-24,1012,-10,-28,-13
1699,147,-24,1007,-10,-15,-12
1700,121,-9,1005,-10,9,-5
1701,0,-5,1001,-15,27,0
1702,-132,-3,992,-18,28,2
1703,-162,-31,989,-17,7,-3
1704,-104,-33,976,-15,-18,-8
1705,54,-23,1011,-10,-31,-13
1706,140,-26,1016,-9,-17,-13
1707,137,-14,1006,-9,7,-6
1708,25,-4,994,-15,26,-2
1709,-115,-8,993,-17,28,2
1710,-170,-23,988,-17,9,-2
1711,-113,-29,980,-15,-13,-8
1712,29,-30,1010,-11,-28,-12
1713,125,-26,1008,-10,-22,-13
1714,147,-12,1008,-10,2,-8
1715,48,-4,996,-15,23,-1
1716,-98,-13,1002,-18,30,3
1717,-165,-20,973,-16,15,-2
1718,-129,-23,986,-15,-9,-8
1719,6,-33,1007,-12,-28,-13
1720,113,-29,1012,-10,-23,-14
1721,162,-13,1006,-12,-3,-9
1722,60,-3,1005,-12,22,-2
1723,-71,-13,999,-15,31,1
1724,-167,-15,970,-18,18,-1
1725,-140,-25,986,-16,-6,-6
1726,-19,-35,1008,-15,-24,-10
1727,102,-27,1003,-13,-24,-13
1728,158,-11,1008,-10,-6,-11
1729,74,-8,1008,-13,18,-1
1730,-51,-13,1000,-16,30,1
1731,-154,-13,968,-18,22,0
1732,-148,-23,990,-18,-3,-5
1733,-48,-34,998,-13,-25,-11
1734,93,-26,1002,-10,-27,-13
1735,155,-18,1005,-8,-10,-10
1736,96,-7,1011,-12,15,-3
1737,-27,-10,1007,-16,28,0
1738,-150,-8,973,-18,24,1
1739,-156,-32,984,-18,0,-5
1740,-75,-40,993,-13,-21,-10
1741,83,-25,1011,-11,-28,-13
1742,153,-23,1007,-9,-13,-13
1743,109,-8,1004,-9,11,-4
1744,-5,-3,1004,-15,27,-1
1745,-138,-5,991,-20,27,2
1746,-162,-27,985,-18,5,-3
1747,-95,-37,983,-16,-18,-11
1748,61,-26,1006,-11,-29,-13
1749,146,-24,1014,-9,-17,-13
1750,130,-16,1006,-11,9,-7
1751,15,-2,995,-12,26,-2
1752,-123,-4,990,-19,28,2
1753,-167,-26,994,-19,9,-3
1754,-107,-32,976,-17,-15,-8
1755,39,-30,1007,-12,-29,-13
1756,136,-29,1016,-10,-20,-14
1757,141,-16,1005,-9,3,-6
1758,39,1,994,-12,24,-2
1759,-104,-9,1001,-17,29,2
1760,-173,-19,975,-18,11,-2
1761,-121,-26,986,-17,-11,-7
1762,18,-32,1011,-13,-29,-12
1763,117,-26,1006,-9,-22,-13
1764,154,-12,1007,-10,-1,-8
1765,55,-5,1006,-13,24,-2
1766,-80,-14,1002,-16,31,3
1767,-166,-17,966,-19,17,0
1768,-136,-23,990,-16,-9,-4
1769,-11,-33,1005,-12,-27,-12
1770,109,-29,1005,-11,-24,-14
1771,160,-11,1010,-10,-6,-10
1772,69,-6,1005,-12,21,-3
1773,-58,-12,999,-17,30,-1
1774,-162,-16,970,-18,20,0
1775,-146,-23,989,-19,-3,-4
1776,-37,-38,1000,-15,-26,-11
1777,100,-25,1002,-9,-26,-14
1778,157,-11,1010,-10,-9,-10
1779,87,-2,1012,-13,16,-5
1780,-37,-10,1009,-18,28,0
1781,-153,-17,966,-18,22,1
1782,-155,-27,983,-17,0,-5
1783,-63,-36,1000,-15,-22,-11
1784,87,-23,1007,-10,-28,-14
1785,153,-19,1002,-10,-12,-12
1786,107,-7,1008,-10,13,-4
1787,-18,-9,1007,-15,28,0
1788,-141,-5,979,-18,26,1
1789,-161,-31,986,-17,4,-4
1790,-87,-39,983,-15,-20,-9
1791,70,-26,1011,-10,-28,-13
1792,151,-23,1010,-9,-17,-12
1793,122,-11,1003,-9,10,-6
1794,8,-2,998,-14,28,-1
1795,-129,-2,993,-18,27,3
1796,-163,-29,988,-21,7,-3
1797,-108,-35,978,-16,-17,-9
1798,50,-27,1005,-11,-30,-14
1799,138,-26,1018,-11,-18,-13
1800,138,-12,1006,-10,6,-6
1801,27,0,992,-14,25,-2
1802,-111,-6,992,-18,29,2
1803,-173,-27,986,-20,10,-3
1804,-117,-30,982,-17,-13,-8
1805,28,-33,1009,-12,-29,-13
1806,122,-28,1005,-10,-21,-13
1807,152,-9,1006,-8,0,-8
1808,50,-2,1002,-13,22,-1
1809,-96,-11,997,-17,30,3
1810,-165,-18,974,-18,14,-2
1811,-130,-28,983,-17,-10,-7
1812,2,-35,1011,-13,-26,-13
1813,110,-32,1009,-10,-23,-14
1814,156,-12,1006,-9,-4,-10
1815,70,-3,1005,-12,20,-3
1816,-69,-14,998,-15,30,1
1817,-163,-11,968,-20,17,1
1818,-142,-26,989,-18,-6,-5
1819,-27,-36,1003,-14,-26,-11
1820,103,-28,1004,-10,-25,-14
1821,154,-12,1011,-9,-8,-11
1822,79,-7,1009,-13,17,-3
1823,-44,-14,1006,-15,29,-1
1824,-156,-13,970,-18,22,0
1825,-154,-23,986,-15,-2,-4
1826,-51,-34,1004,-15,-23,-11
1827,88,-28,1001,-10,-26,-13
1828,157,-18,1009,-10,-12,-13
1829,101,-10,1007,-14,15,-4
1830,-29,-7,1006,-15,29,0
1831,-141,-11,976,-18,23,0
1832,-163,-29,984,-17,2,-5
1833,-73,-33,991,-14,-21,-10
1834,76,-22,1015,-12,-28,-12
1835,150,-19,1004,-9,-14,-12
1836,113,-16,1006,-11,11,-4
1837,-4,-6,1001,-14,27,-1
1838,-132,-12,992,-18,26,3
1839,-158,-29,982,-18,5,-3
1840,-98,-34,982,-14,-17,-8
1841,59,-20,1006,-11,-28,-13
1842,137,-25,1013,-11,-16,-12
1843,133,-15,1009,-12,6,-6
1844,18,-4,991,-13,26,-2
1845,-115,-7,989,-17,28,1
1846,-169,-27,992,-19,10,-2
1847,-114,-28,980,-15,-14,-7
1848,37,-31,1009,-12,-28,-12
1849,127,-26,1012,-9,-20,-13
1850,148,-16,1006,-10,2,-8
1851,43,-1,995,-14,22,-2
1852,-104,-8,997,-17,29,2
1853,-167,-23,980,-19,14,-2
1854,-126,-26,985,-16,-11,-6
1855,13,-34,1006,-12,-29,-13
1856,117,-30,1013,-9,-22,-13
1857,154,-13,1004,-10,-2,-9
1858,58,0,1004,-13,23,-2
1859,-77,-11,1002,-17,30,2
1860,-165,-15,967,-19,16,-1
1861,-137,-25,989,-17,-7,-5
1862,-15,-36,1006,-12,-28,-11
1863,106,-28,1010,-11,-24,-14
1864,161,-12,1007,-9,-6,-9
1865,72,-5,1007,-13,20,-3
1866,-52,-13,1003,-15,30,0
1867,-158,-15,964,-18,20,1
1868,-149,-24,990,-17,-3,-4
1869,-36,-38,1004,-15,-24,-11
1870,94,-28,1000,-10,-27,-14
1871,160,-14,1008,-10,-9,-11
1872,91,-5,1017,-12,17,-4
1873,-32,-6,1003,-15,30,0
1874,-151,-10,971,-19,24,2
1875,-157,-24,985,-18,0,-4
1876,-69,-42,996,-14,-23,-10
1877,85,-25,1007,-10,-27,-13
1878,153,-18,1006,-9,-13,-11
1879,111,-8,1002,-11,12,-6
1880,-16,-6,1011,-14,28,0
1881,-142,-4,980,-19,26,2
1882,-162,-32,989,-19,3,-4
1883,-87,-36,981,-15,-19,-8
1884,66,-26,1012,-10,-28,-14
1885,154,-23,1009,-10,-17,-14
1886,123,-16,1003,-11,9,-5
1887,9,0,998,-14,28,-1
1888,-126,-8,991,-18,29,1
1889,-162,-24,991,-18,8,-5
1890,-112,-36,976,-17,-16,-8
1891,50,-25,1009,-11,-29,-14
1892,137,-30,1018,-11,-20,-11
1893,140,-10,1005,-10,4,-6
1894,36,-4,994,-14,24,-2
1895,-115,-5,995,-18,30,2
1896,-171,-25,983,-19,12,-1
1897,-121,-28,988,-17,-12,-8
1898,24,-32,1004,-13,-30,-12
1899,120,-27,1010,-8,-22,-13
1900,154,-12,1009,-11,0,-8
1901,53,-3,997,-14,25,-2
1902,-90,-11,1000,-16,33,2
1903,-171,-19,973,-17,16,-1
1904,-134,-24,981,-16,-10,-8
1905,0,-34,1010,-13,-29,-11
1906,111,-28,1010,-10,-23,-12
1907,161,-13,1005,-11,-4,-10
1908,68,-6,1007,-14,20,-2
1909,-66,-8,1000,-18,29,1
1910,-165,-17,967,-20,18,-1
1911,-151,-22,989,-18,-5,-4
1912,-27,-39,1005,-14,-26,-11
1913,102,-29,1003,-10,-26,-13
1914,161,-12,1009,-7,-9,-9
1915,81,-3,1010,-12,18,-3
1916,-45,-9,1000,-17,31,2
1917,-161,-15,967,-19,22,1
1918,-154,-26,989,-18,-2,-4
1919,-51,-39,995,-15,-23,-11
1920,94,-26,1005,-10,-27,-12
1921,158,-16,1008,-9,-11,-10
1922,97,-5,1011,-11,15,-4
1923,-24,-8,1006,-15,29,-1
1924,-150,-8,976,-18,23,2
1925,-160,-30,981,-17,2,-4
1926,-72,-38,994,-15,-20,-10
1927,80,-26,1011,-10,-28,-12
1928,154,-19,1003,-10,-14,-12
1929,115,-10,1006,-9,9,-4
1930,-4,-3,1005,-16,27,-1
1931,-133,-6,987,-20,26,2
1932,-164,-29,988,-18,6,-2
1933,-96,-37,979,-15,-18,-7
1934,59,-23,1013,-10,-29,-12
1935,144,-25,1013,-11,-17,-12
1936,127,-14,1010,-12,8,-6
1937,20,-2,990,-14,25,-2
1938,-124,-8,995,-17,28,2
1939,-167,-25,987,-19,8,-3
1940,-114,-31,982,-17,-15,-7
1941,39,-29,1006,-12,-29,-12
1942,129,-28,1012,-10,-19,-13
1943,148,-13,1008,-10,1,-7
1944,39,-3,993,-13,24,-2
1945,-105,-8,998,-16,30,1
1946,-171,-22,978,-20,14,-2
1947,-125,-27,985,-16,-11,-7
1948,14,-32,1008,-13,-29,-12
1949,115,-27,1011,-9,-22,-12
1950,155,-11,1005,-9,-2,-8
1951,56,-4,1005,-14,24,-2
1952,-79,-14,999,-16,30,1
1953,-172,-15,970,-19,16,0
1954,-135,-23,984,-17,-8,-6
1955,-12,-38,1009,-12,-27,-12
1956,110,-29,1007,-9,-24,-13
1957,160,-11,1007,-10,-6,-9
1958,76,-1,1009,-11,19,-3
1959,-60,-11,1001,-16,29,1
1960,-166,-15,965,-19,20,0
1961,-146,-26,990,-17,-3,-5
1962,-37,-39,1001,-13,-25,-11
1963,99,-27,1001,-11,-27,-13
1964,158,-14,1009,-9,-9,-9
1965,90,-8,1014,-14,16,-2
1966,-35,-6,1004,-17,30,0
1967,-152,-13,969,-19,22,1
1968,-157,-26,985,-18,1,-4
1969,-64,-39,997,-13,-22,-10
1970,86,-26,1009,-11,-27,-13
1971,159,-18,1004,-11,-12,-11
1972,106,-8,1007,-12,12,-3
1973,-15,-6,1009,-16,28,0
1974,-140,-7,983,-20,25,2
1975,-162,-27,982,-19,4,-3
1976,-88,-39,986,-15,-20,-9
1977,70,-23,1012,-10,-30,-13
1978,153,-23,1005,-10,-16,-12
1979,120,-9,1006,-11,8,-5
1980,7,-2,999,-15,27,-1
1981,-129,-6,992,-17,30,2
1982,-165,-29,987,-19,7,-4
1983,-109,-33,978,-14,-15,-8
1984,54,-25,1007,-11,-28,-12
1985,137,-26,1016,-10,-18,-13
1986,140,-14,1007,-12,5,-8
1987,31,-3,995,-13,24,-1
1988,-113,-5,989,-16,29,2
1989,-168,-29,992,-18,11,-2
1990,-120,-28,982,-16,-11,-8
1991,29,-31,1007,-13,-28,-11
1992,121,-27,1012,-10,-21,-13
1993,150,-14,1003,-8,1,-8
1994,50,-4,1001,-14,23,-3
1995,-93,-11,998,-16,30,1
1996,-173,-19,973,-18,15,0
1997,-128,-27,985,-16,-11,-7
1998,5,-35,1010,-11,-29,-12
1999,112,-29,1010,-9,-22,-12
2000,158,-8,1008,-11,-2,-10
2001,61,0,1005,-12,21,-1
2002,-72,-9,999,-15,30,1
2003,-165,-19,969,-20,18,0
2004,-140,-23,990,-17,-4,-5
2005,-22,-39,1006,-15,-25,-11
2006,103,-30,1005,-12,-26,-12
2007,159,-12,1008,-9,-9,-9
2008,76,-4,1011,-11,17,-2
2009,-48,-9,1002,-15,29,2
2010,-157,-15,968,-19,21,0
2011,-151,-24,988,-18,-4,-5
2012,-45,-38,1003,-14,-24,-10
2013,93,-28,1001,-8,-27,-13
2014,157,-17,1005,-9,-11,-11
2015,97,-6,1016,-12,15,-3
2016,-31,-4,1004,-16,29,0
2017,-148,-9,972,-20,22,1
2018,-157,-31,986,-17,0,-4
2019,-75,-36,991,-14,-21,-9
2020,81,-23,1012,-13,-28,-14
2021,152,-24,1003,-10,-13,-11
2022,112,-11,1003,-10,11,-4
2023,-6,-3,1006,-14,28,-2
2024,-138,-5,988,-18,26,3
2025,-162,-31,983,-19,5,-3
2026,-96,-40,982,-15,-18,-10
2027,62,-26,1010,-11,-29,-13
2028,146,-25,1012,-9,-16,-13
2029,133,-11,1007,-11,8,-6
2030,15,0,993,-16,27,-1
2031,-124,-6,994,-17,28,1
2032,-169,-27,991,-26,7,-3
2033,-114,-36,975,-17,-16,-8
2034,47,-30,1010,-13,-29,-13
2035,129,-27,1014,-9,-19,-12
2036,143,-11,1006,-12,3,-6
2037,39,-4,996,-12,24,-1
2038,-108,-10,994,-18,28,1
2039,-171,-21,980,-19,13,-2
2040,-125,-26,989,-14,-12,-8
2041,20,-31,1005,-14,-28,-12
2042,118,-30,1011,-11,-23,-13
2043,159,-9,1009,-10,0,-8
2044,56,-5,1003,-15,23,-2
2045,-85,-14,997,-16,31,1
2046,-171,-18,972,-18,14,0
2047,-135,-21,986,-17,-9,-4
2048,-6,-38,1006,-13,-27,-11
2049,107,-30,1012,-12,-23,-14
2050,161,-13,1007,-10,-5,-9
2051,69,-4,1005,-12,21,-3
2052,-61,-10,1001,-16,31,1
2053,-164,-17,969,-18,18,-2
2054,-148,-24,991,-17,-5,-5
2055,-34,-36,1002,-14,-24,-10
2056,100,-29,1001,-9,-26,-14
2057,158,-14,1013,-8,-10,-11
2058,86,-4,1010,-13,18,-3
2059,-41,-10,1008,-16,30,-1
2060,-155,-14,964,-17,23,1
2061,-157,-25,987,-16,-2,-5
2062,-55,-40,998,-15,-23,-10
2063,88,-24,1008,-10,-27,-14
2064,159,-17,1002,-10,-12,-12
2065,101,-6,1013,-11,14,-4
2066,-17,-4,1006,-14,27,0
2067,-147,-9,979,-19,24,2
2068,-159,-31,986,-17,3,-4
2069,-83,-37,989,-15,-20,-9
2070,75,-22,1010,-10,-29,-13
2071,148,-22,1011,-9,-15,-13
2072,120,-14,1003,-9,10,-6
2073,3,-5,1000,-15,27,-1
2074,-129,-4,990,-18,27,1
2075,-166,-31,990,-19,7,-4
2076,-101,-32,974,-17,-17,-9
2077,53,-27,1008,-10,-29,-13
2078,141,-27,1015,-11,-18,-13
2079,136,-16,1007,-10,5,-6
2080,25,0,989,-14,25,-2
2081,-117,-8,995,-18,28,3
2082,-168,-24,987,-19,9,-3
2083,-120,-30,981,-18,-13,-7
2084,35,-29,1009,-13,-29,-13
2085,122,-30,1012,-11,-19,-13
2086,150,-9,1002,-8,1,-8
2087,47,-6,1001,-14,23,-2
2088,-99,-11,999,-17,31,2
2089,-167,-20,974,-17,13,-2
2090,-129,-26,983,-17,-10,-6
2091,5,-34,1010,-13,-28,-12
2092,112,-30,1008,-9,-22,-14
2093,157,-15,1012,-11,-3,-8
2094,68,-6,1002,-14,22,-3
2095,-76,-12,1001,-15,30,2
2096,-165,-15,968,-20,16,0
2097,-142,-27,989,-17,-6,-6
2098,-20,-34,1004,-13,-25,-11
2099,104,-28,1005,-11,-25,-13
2100,162,-10,1012,-9,-8,-9
2101,79,-5,1004,-14,17,-2
2102,-48,-14,1005,-15,29,0
2103,-155,-16,966,-19,21,0
2104,-153,-25,989,-18,-3,-5
2105,-45,-36,997,-13,-24,-12
2106,95,-25,1007,-10,-28,-13
2107,157,-14,1001,-8,-10,-11
2108,93,-5,1017,-13,15,-3
2109,-30,-10,1003,-16,29,1
2110,-148,-12,972,-18,22,2
2111,-157,-30,983,-17,1,-4
2112,-72,-37,995,-15,-20,-10
2113,81,-26,1009,-11,-26,-14
2114,151,-17,1007,-10,-13,-13
2115,112,-7,1003,-11,10,-4
2116,-9,-7,1006,-15,27,0
2117,-138,-5,986,-19,27,3
2118,-161,-30,984,-19,5,-3
2119,-92,-39,980,-14,-19,-8
2120,64,-23,1010,-10,-28,-13
2121,146,-22,1012,-10,-17,-13
2122,129,-13,1010,-10,7,-7
2123,15,-1,992,-13,27,-3
2124,-125,-6,990,-18,28,3
2125,-167,-26,990,-19,8,-3
2126,-109,-33,979,-18,-14,-7
2127,45,-34,1005,-11,-29,-13
2128,133,-27,1016,-9,-19,-14
2129,142,-13,1005,-10,4,-6
2130,36,2,996,-12,24,-1
2131,-108,-6,997,-18,29,2
2132,-171,-23,982,-18,12,-3
2133,-120,-31,985,-18,-12,-7
2134,18,-34,1009,-13,-29,-12
2135,120,-28,1009,-10,-22,-14
2136,152,-11,1005,-9,0,-9
2137,57,-2,1005,-13,23,-1
2138,-86,-12,999,-17,31,1
2139,-168,-14,969,-18,16,-1
2140,-135,-27,982,-17,-9,-5
2141,-7,-35,1011,-13,-26,-11
2142,109,-32,1009,-10,-25,-13
2143,159,-12,1006,-8,-5,-10
2144,73,-3,1007,-12,19,-3
2145,-62,-9,1000,-15,30,2
2146,-161,-15,966,-20,19,1
2147,-148,-24,990,-18,-4,-6
2148,-32,-41,1004,-13,-24,-12
2149,102,-25,1001,-8,-27,-13
2150,158,-15,1010,-8,-8,-11
2151,86,-4,1012,-12,18,-4
2152,-40,-13,1005,-16,31,1
2153,-153,-12,965,-18,23,0
2154,-155,-28,988,-17,0,-6
2155,-56,-38,996,-15,-22,-12
2156,87,-24,1010,-9,-28,-13
2157,158,-17,1003,-11,-12,-11
2158,100,-9,1011,-11,15,-4
2159,-17,-5,1004,-14,27,0
2160,-146,-7,980,-20,24,2
2161,-157,-32,985,-18,3,-5
2162,-85,-38,986,-14,-20,-9
2163,76,-24,1010,-12,-29,-14
2164,150,-20,1012,-10,-14,-12
2165,122,-12,1004,-11,10,-6
2166,2,-6,999,-16,27,-1
2167,-132,-5,991,-19,28,2
2168,-164,-29,991,-20,7,-4
2169,-105,-32,975,-15,-18,-9
2170,56,-26,1007,-12,-30,-12
2171,139,-27,1016,-9,-18,-13
2172,139,-16,1007,-11,6,-7
2173,30,1,993,-15,25,-1
2174,-115,-8,992,-19,29,3
2175,-167,-25,988,-18,10,-2
2176,-120,-28,983,-18,-13,-7
2177,32,-29,1008,-12,-28,-13
2178,123,-30,1011,-10,-21,-14
2179,148,-12,1001,-7,1,-9
2180,46,-2,1004,-14,22,-3
2181,-95,-12,1000,-17,30,1
2182,-169,-20,970,-17,15,-2
2183,-127,-24,987,-15,-9,-7
2184,3,-33,1009,-11,-28,-12
2185,112,-27,1009,-11,-23,-12
2186,156,-13,1012,-11,-3,-9
2187,63,-7,1000,-14,20,-2
2188,-70,-14,1001,-16,30,1
2189,-165,-16,965,-18,17,0
2190,-143,-25,990,-16,-5,-6
2191,-19,-38,1005,-12,-25,-12
2192,100,-26,1006,-10,-25,-14
2193,160,-15,1008,-10,-8,-11
2194,77,-6,1013,-13,18,-2
2195,-45,-10,1000,-16,30,1
2196,-158,-14,971,-19,21,1
2197,-150,-25,990,-17,-3,-3
2198,-50,-38,997,-16,-23,-10
2199,93,-27,1004,-11,-28,-13
2200,157,-18,1007,-10,-9,-10
2201,93,-5,1011,-12,16,-4
2202,-26,-6,1007,-16,30,1
2203,-146,-7,972,-18,24,1
2204,-159,-28,984,-17,2,-4
2205,-74,-37,992,-15,-22,-9
2206,77,-30,1014,-10,-29,-13
2207,154,-22,999,-11,-14,-12
2208,114,-11,1007,-10,12,-5
2209,-8,-1,1004,-14,29,-1
2210,-135,-4,989,-19,28,2
2211,-161,-29,990,-18,6,-4
2212,-97,-36,977,-15,-18,-9
2213,62,-24,1011,-10,-29,-13
2214,141,-26,1012,-9,-17,-13
2215,133,-11,1007,-11,7,-6
2216,14,-3,992,-13,27,-1
2217,-123,-6,992,-18,29,2
2218,-167,-26,990,-17,10,-2
2219,-113,-31,977,-15,-15,-8
2220,43,-29,1009,-10,-30,-14
2221,126,-25,1015,-11,-19,-13
2222,146,-13,1003,-10,2,-8
2223,39,-6,999,-13,24,-3
2224,-103,-10,993,-18,29,1
2225,-173,-22,981,-19,13,-2
2226,-120,-26,985,-16,-12,-7
2227,13,-32,1007,-11,-26,-12
2228,117,-24,1008,-8,-22,-13
2229,157,-16,1010,-10,-2,-9
2230,51,-2,1000,-14,24,-1
2231,-78,-15,1003,-16,30,0
2232,-168,-17,970,-17,16,-1
2233,-139,-27,982,-17,-7,-5
2234,-10,-35,1013,-12,-28,-13
2235,108,-28,1008,-11,-25,-12
2236,159,-12,1006,-11,-6,-10
2237,71,-5,1008,-11,19,-2
2238,-58,-12,999,-15,29,0
2239,-159,-16,969,-18,19,-1
2240,-148,-26,992,-17,-3,-6
2241,-36,-34,1002,-15,-25,-11
2242,97,-27,1001,-10,-26,-13
2243,156,-15,1007,-10,-10,-11
2244,91,-8,1018,-12,17,-4
2245,-34,-10,1001,-16,31,0
2246,-151,-12,970,-18,23,1
2247,-156,-29,986,-16,0,-5
2248,-66,-37,991,-15,-22,-11
2249,87,-25,1014,-10,-27,-14
2250,152,-18,1004,-9,-12,-12
2251,108,-6,1005,-11,13,-4
2252,-12,-4,1011,-15,28,-1
2253,-142,-7,980,-19,25,3
2254,-157,-32,986,-18,4,-3
2255,-90,-37,985,-14,-18,-9
2256,70,-23,1010,-10,-27,-13
2257,147,-23,1011,-9,-16,-13
2258,123,-12,1006,-10,8,-5
2259,8,0,998,-15,27,-1
2260,-128,-6,993,-20,28,2
2261,-164,-31,991,-19,9,-2
2262,-108,-34,974,-15,-16,-8
2263,48,-28,1008,-11,-29,-13
2264,135,-26,1015,-9,-18,-12
2265,144,-11,1006,-11,5,-6
2266,28,0,995,-13,26,-1
2267,-113,-7,989,-17,29,1
2268,-173,-24,990,-19,10,-2
2269,-118,-30,979,-18,-14,-7
2270,25,-32,1011,-11,-30,-13
2271,125,-28,1006,-9,-21,-13
2272,149,-11,1005,-9,0,-8
2273,51,0,1004,-13,24,-2
2274,-93,-11,1001,-19,31,2
2275,-166,-17,972,-18,15,-2
2276,-131,-27,986,-17,-9,-6
2277,1,-34,1010,-12,-28,-12
2278,113,-28,1008,-8,-23,-12
2279,157,-13,1009,-10,-2,-10
2280,66,-5,1003,-13,21,-3
2281,-67,-9,1001,-15,29,0
2282,-162,-16,965,-18,17,0
2283,-146,-24,991,-17,-4,-6
2284,-24,-38,1002,-14,-25,-11
2285,104,-28,1003,-12,-26,-13
2286,159,-16,1010,-9,-8,-9
2287,86,-6,1010,-12,17,-3
2288,-45,-11,1004,-16,31,0
2289,-159,-10,966,-18,22,1
2290,-151,-26,989,-17,-2,-4
2291,-53,-35,997,-14,-24,-11
2292,92,-28,1005,-10,-28,-14
2293,160,-19,1007,-8,-12,-12
2294,100,-9,1015,-12,15,-4
2295,-23,-7,1004,-15,28,1
2296,-151,-9,974,-19,24,1
2297,-158,-24,986,-18,1,-4
2298,-78,-37,990,-15,-20,-10
2299,80,-23,1015,-13,-28,-14
2300,153,-24,1006,-12,-13,-12
2301,117,-10,1003,-11,10,-5
2302,-2,-5,1002,-14,28,-1
2303,-136,-6,990,-18,27,2
2304,-163,-27,985,-18,5,-4
2305,-102,-35,978,-15,-17,-9
2306,59,-20,1012,-11,-29,-14
2307,148,-27,1015,-10,-17,-12
2308,131,-13,1008,-10,7,-5
2309,20,-6,992,-15,27,-1
2310,-123,-7,990,-16,28,2
2311,-169,-29,990,-18,8,-3
2312,-113,-29,979,-13,-15,-7
2313,40,-28,1010,-10,-30,-13
2314,130,-27,1012,-9,-20,-13
2315,144,-12,1008,-10,3,-7
2316,40,-6,996,-12,24,-1
2317,-105,-9,993,-17,29,3
2318,-171,-23,978,-17,12,-2
2319,-125,-26,985,-16,-11,-6
2320,14,-34,1009,-12,-29,-12
2321,114,-27,1006,-9,-23,-14
2322,156,-12,1010,-9,-1,-9
2323,59,-2,1002,-14,23,-2
2324,-84,-11,1001,-17,30,2
2325,-167,-19,969,-20,15,-1
2326,-137,-26,984,-16,-8,-6
2327,-9,-37,1005,-13,-26,-11
2328,109,-27,1010,-10,-24,-14
2329,160,-10,1008,-10,-4,-9
2330,71,-1,1006,-11,20,-2
2331,-57,-9,1000,-15,29,1
2332,-161,-16,964,-19,20,0
2333,-149,-26,992,-17,-4,-4
2334,-37,-40,998,-14,-26,-12
2335,100,-29,1003,-9,-27,-14
2336,160,-14,1010,-7,-10,-11
2337,86,-6,1012,-12,17,-4
2338,-35,-6,1008,-17,31,0
2339,-156,-7,968,-19,24,1
2340,-155,-27,986,-17,-1,-5
2341,-64,-40,996,-14,-23,-10
2342,87,-29,1007,-9,-28,-14
2343,157,-21,1006,-8,-12,-12
2344,107,-7,1008,-10,13,-4
2345,-14,-2,1003,-15,28,0
2346,-142,-6,983,-19,26,2
2347,-166,-25,982,-19,4,-4
2348,-89,-38,986,-15,-19,-10
2349,71,-28,1013,-13,-29,-13
2350,150,-23,1008,-10,-16,-13
2351,124,-17,1004,-12,9,-6
2352,7,-2,1000,-13,28,-1
2353,-130,-3,989,-18,28,2
2354,-168,-27,991,-19,8,-3
2355,-107,-34,977,-16,-17,-9
2356,48,-28,1008,-10,-29,-13
2357,140,-27,1017,-11,-19,-13
2358,141,-15,1007,-11,3,-6
2359,29,-5,991,-13,24,-1
2360,-116,-10,994,-15,29,2
2361,-168,-26,987,-19,11,-2
2362,-121,-28,984,-18,-12,-7
2363,29,-26,1007,-12,-29,-13
2364,124,-28,1012,-9,-21,-14
2365,151,-9,1001,-9,1,-8
2366,49,-6,1004,-13,25,-1
2367,-95,-10,998,-24,30,3
2368,-169,-22,974,-15,18,0
2369,-130,-26,983,-19,-10,-5
2370,0,-34,1008,-12,-29,-12
2371,114,-28,1009,-7,-23,-14
2372,157,-12,1011,-13,-4,-9
2373,65,-1,1002,-11,22,-2
2374,-71,-13,1001,-16,30,1
2375,-163,-18,967,-20,17,0
2376,-142,-26,987,-16,-5,-5
2377,-22,-36,1009,-14,-25,-10
2378,103,-28,1001,-9,-25,-12
2379,162,-9,1011,-8,-7,-12
2380,79,-6,1012,-14,17,-3
2381,-47,-9,1002,-17,30,1
2382,-156,-18,966,-20,22,1
2383,-155,-24,993,-17,-3,-5
2384,-43,-40,998,-15,-24,-11
2385,90,-25,1004,-10,-26,-13
2386,160,-15,1006,-9,-11,-11
2387,95,-4,1017,-13,17,-4
2388,-26,-8,1003,-18,30,0
2389,-149,-7,973,-20,24,1
2390,-157,-33,986,-18,0,-5
2391,-74,-36,988,-14,-21,-11
2392,83,-30,1014,-11,-28,-14
2393,153,-20,1003,-9,-14,-12
2394,111,-8,1003,-10,11,-5
2395,-7,-2,1007,-16,27,0
2396,-138,-4,988,-19,26,2
2397,-160,-31,982,-20,6,-3
2398,-94,-35,985,-16,-18,-10
2399,66,-26,1007,-11,-29,-13
2400,142,-26,1013,-10,-16,-12
2401,128,-14,1004,-11,7,-4
2402,15,-1,998,-15,27,-2
2403,-120,-5,991,-18,28,2
2404,-166,-24,990,-19,9,-3
2405,-111,-32,981,-15,-16,-8
2406,39,-31,1004,-12,-29,-12
2407,130,-28,1017,-10,-19,-13
2408,144,-13,1006,-11,3,-7
2409,38,-5,995,-14,23,-3
2410,-108,-7,994,-17,28,2
2411,-171,-22,986,-19,12,-1
2412,-124,-28,981,-16,-11,-6
2413,16,-33,1010,-11,-29,-12
2414,120,-28,1008,-10,-23,-13
2415,155,-12,1007,-10,0,-9
2416,56,-4,1003,-14,24,-2
2417,-87,-12,997,-17,29,2
2418,-168,-16,970,-18,15,-1
2419,-135,-24,986,-16,-7,-7
2420,-9,-37,1006,-12,-27,-12
2421,110,-29,1009,-10,-25,-13
2422,159,-12,1010,-10,-5,-10
2423,69,-1,1002,-12,22,-2
2424,-63,-11,1003,-17,30,1
2425,-163,-19,966,-18,20,1
2426,-147,-27,987,-16,-3,-4
2427,-31,-38,1004,-14,-26,-11
2428,103,-28,1002,-9,-27,-14
2429,160,-11,1007,-9,-9,-11
2430,87,-4,1016,-13,18,-4
2431,-42,-10,1005,-17,30,0
2432,-156,-15,966,-18,22,2
2433,-155,-29,987,-17,-2,-4
2434,-57,-39,998,-14,-23,-10
2435,92,-25,1006,-9,-27,-14
2436,156,-20,1004,-10,-10,-11
2437,103,-6,1012,-13,15,-5
2438,-21,-6,1007,-15,29,0
2439,-149,-8,976,-19,25,3
2440,-159,-27,981,-18,4,-3
2441,-83,-35,989,-14,-19,-9
2442,76,-27,1012,-12,-28,-14
2443,152,-25,1006,-10,-15,-13
2444,119,-11,1000,-9,10,-5
2445,0,-5,1002,-14,28,-1
2446,-135,-2,993,-18,27,2
2447,-165,-29,986,-19,6,-3
2448,-103,-32,979,-16,-18,-9
2449,54,-24,1006,-10,-29,-14
2450,144,-26,1015,-10,-18,-14
2451,140,-18,1005,-12,5,-6
2452,23,-1,997,-13,26,-2
2453,-117,-8,991,-17,29,3
2454,-172,-24,992,-19,10,-1
2455,-114,-33,980,-16,-14,-7
2456,30,-27,1005,-11,-27,-12
2457,129,-28,1013,-11,-21,-15
2458,149,-14,1005,-10,1,-8
2459,45,-1,997,-14,23,-2
2460,-100,-10,1002,-18,31,2
2461,-170,-22,976,-18,14,-3
2462,-127,-23,984,-18,-10,-6
2463,7,-32,1010,-12,-28,-12
2464,115,-29,1008,-10,-23,-13
2465,158,-14,1005,-10,-3,-8
2466,65,-3,1004,-12,22,-2
2467,-78,-13,1001,-16,30,2
2468,-166,-13,969,-18,18,-1
2469,-139,-25,988,-18,-7,-5
2470,-15,-35,1006,-15,-25,-13
2471,101,-30,1007,-11,-25,-13
2472,161,-14,1006,-10,-7,-11
2473,74,-4,1012,-10,19,-1
2474,-51,-12,998,-15,30,1
2475,-164,-15,970,-20,23,1
2476,-146,-23,989,-19,-3,-5
2477,-43,-35,1003,-12,-24,-11
2478,101,-23,1002,-8,-26,-13
2479,160,-17,1011,-11,-9,-11
2480,93,-7,1015,-12,16,-4
2481,-33,-13,1007,-16,30,0
2482,-153,-11,968,-18,22,1
2483,-157,-24,989,-17,-1,-5
2484,-62,-39,992,-14,-23,-10
2485,84,-28,1009,-11,-26,-12
2486,160,-19,1007,-10,-12,-12
2487,104,-14,1006,-11,12,-3
2488,-11,-6,1006,-15,29,0
2489,-145,-4,985,-19,25,3
2490,-159,-28,979,-18,4,-2
2491,-89,-35,988,-16,-20,-9
2492,68,-24,1009,-10,-29,-14
2493,148,-23,1008,-10,-15,-13
2494,124,-16,1006,-11,8,-5
2495,6,-3,997,-15,28,0
2496,-127,-8,993,-19,29,2
2497,-169,-25,989,-18,8,-2
2498,-105,-29,975,-15,-18,-7
2499,51,-28,1010,-10,-30,-13
2500,136,-25,1014,-11,-17,-12
2501,142,-14,1008,-12,4,-7
2502,28,-2,994,-14,25,-2
2503,-112,-7,989,-19,28,2
2504,-171,-25,986,-18,10,-2
2505,-121,-28,983,-17,-13,-7
2506,30,-30,1008,-10,-29,-13
2507,126,-25,1011,-9,-21,-14
2508,153,-9,1003,-9,-1,-8
2509,49,-2,999,-13,22,-2
2510,-96,-12,998,-17,30,1
2511,-171,-20,976,-18,15,-1
2512,-129,-27,983,-16,-10,-6
2513,7,-34,1008,-12,-28,-12
2514,111,-25,1010,-10,-23,-14
2515,163,-11,1008,-10,-3,-9
2516,64,-3,1005,-14,23,-1
2517,-74,-12,997,-16,31,2
2518,-169,-21,970,-19,19,-1
2519,-142,-24,984,-16,-7,-6
2520,-19,-34,1009,-11,-26,-12
2521,102,-28,1004,-8,-25,-14
2522,162,-11,1010,-7,-7,-10
2523,80,-3,1009,-12,20,-3
2524,-55,-11,1002,-18,30,0
2525,-159,-10,967,-19,20,1
2526,-156,-27,989,-17,-2,-5
2527,-42,-37,1001,-14,-25,-11
2528,95,-30,1002,-11,-27,-13
2529,159,-13,1007,-9,-9,-11
2530,95,-5,1015,-12,16,-3
2531,-33,-6,1009,-16,30,1
2532,-153,-8,967,-18,22,1
2533,-157,-30,988,-16,0,-4
2534,-68,-37,993,-14,-23,-9
2535,85,-28,1010,-11,-29,-14
2536,156,-20,1003,-10,-13,-12
2537,109,-7,1008,-10,12,-5
2538,-13,-4,1007,-15,28,-1
2539,-143,-5,984,-19,26,1
2540,-165,-28,985,-18,5,-4
2541,-91,-39,983,-16,-19,-10
2542,68,-28,1012,-11,-30,-14
2543,155,-25,1011,-7,-16,-13
2544,126,-12,1005,-9,9,-5
2545,7,0,999,-15,27,-1
2546,-129,-5,994,-19,28,1
2547,-170,-27,986,-19,7,-2
2548,-107,-37,977,-16,-18,-9
2549,51,-26,1009,-10,-31,-12
2550,140,-29,1011,-11,-19,-12
2551,145,-16,1012,-11,5,-6
2552,28,0,992,-14,26,-1
2553,-114,-5,992,-17,30,1
2554,-176,-24,989,-19,11,-2
2555,-121,-26,979,-17,-14,-8
2556,29,-34,1011,-11,-29,-13
2557,126,-30,1006,-10,-21,-13
2558,154,-9,1007,-8,0,-8
2559,47,-5,1001,-14,24,-2
2560,-94,-10,999,-17,31,1
2561,-175,-20,973,-18,15,-1
2562,-131,-22,983,-17,-10,-6
2563,3,-37,1008,-11,-28,-12
2564,113,-28,1007,-10,-22,-13
2565,163,-16,1005,-10,-4,-10
2566,64,-2,1004,-11,23,-2
2567,-73,-12,1002,-17,31,2
2568,-166,-14,965,-18,17,1
2569,-144,-24,987,-17,-7,-6
2570,-18,-40,1004,-14,-26,-12
2571,103,-28,1009,-9,-25,-14
2572,163,-14,1004,-11,-8,-10
2573,79,-3,1012,-11,18,-4
2574,-50,-15,1000,-16,30,1
2575,-161,-11,967,-19,22,1
2576,-152,-27,990,-17,-2,-5
2577,-44,-36,998,-14,-24,-11
2578,98,-29,1004,-9,-26,-12
2579,158,-17,1007,-9,-10,-11
2580,97,-7,1016,-13,18,-5
2581,-33,-4,1004,-15,30,1
2582,-150,-10,969,-17,23,1
2583,-159,-27,987,-17,0,-4
2584,-71,-36,993,-16,-22,-9
2585,83,-29,1013,-10,-29,-15
2586,157,-20,1005,-10,-14,-11
2587,111,-8,1006,-11,11,-4
2588,-8,-5,1006,-14,28,-1
2589,-144,-7,985,-20,26,2
2590,-160,-27,980,-19,4,-3
2591,-97,-39,987,-16,-19,-8
2592,70,-25,1008,-12,-30,-12
2593,148,-26,1012,-10,-16,-11
2594,127,-10,1002,-10,8,-6
2595,11,-5,999,-15,28,-1
2596,-128,-2,992,-17,29,3
2597,-169,-28,988,-19,10,-3
2598,-107,-34,975,-17,-17,-9
2599,47,-30,1008,-11,-30,-12
2600,139,-26,1013,-9,-19,-14
2601,141,-14,1008,-11,4,-7
2602,32,1,993,-14,26,-1
2603,-111,-4,991,-19,29,3
2604,-174,-23,992,-19,12,-2
2605,-120,-31,979,-19,-12,-8
2606,25,-32,1007,-11,-27,-13
2607,125,-30,1009,-9,-21,-14
2608,154,-13,1007,-10,1,-8
2609,50,0,998,-13,24,-2
2610,-94,-10,1001,-19,31,3
2611,-170,-20,972,-21,16,-1
2612,-133,-29,982,-17,-9,-6
2613,1,-35,1010,-13,-28,-13
2614,113,-32,1009,-9,-23,-13
2615,161,-8,1007,-9,-3,-8
2616,67,-5,1006,-13,23,-2
2617,-75,-8,1001,-15,30,3
2618,-165,-20,966,-19,19,1
2619,-145,-21,987,-16,-6,-6
2620,-21,-37,1008,-13,-27,-11
2621,105,-29,1004,-10,-26,-14
2622,163,-13,1006,-10,-7,-10
2623,78,-1,1014,-13,20,-1
2624,-50,-14,1002,-17,30,1
2625,-160,-13,961,-18,21,1
2626,-148,-27,994,-18,-3,-5
2627,-45,-39,999,-15,-24,-12
2628,96,-26,1002,-9,-27,-14
2629,160,-16,1011,-8,-11,-10
2630,95,-8,1012,-14,17,-3
2631,-29,-5,1005,-15,31,1
2632,-154,-9,970,-20,24,3
2633,-160,-27,985,-17,0,-3
2634,-66,-38,996,-15,-23,-9
2635,82,-26,1010,-10,-27,-12
2636,157,-21,1004,-10,-13,-13
2637,112,-11,1011,-12,13,-5
2638,-15,-4,1002,-15,28,0
2639,-142,-5,988,-19,26,2
2640,-159,-29,984,-18,5,-3
2641,-93,-39,982,-14,-18,-10
2642,69,-25,1011,-10,-30,-14
2643,149,-25,1012,-9,-16,-12
2644,130,-11,1004,-12,8,-5
2645,7,-4,1002,-15,27,-1
2646,-129,-4,991,-18,28,2
2647,-167,-30,991,-21,8,-2
2648,-107,-34,974,-15,-16,-9
2649,47,-28,1004,-11,-29,-11
2650,140,-23,1020,-9,-19,-13
2651,142,-11,1004,-10,5,-6
2652,29,-1,996,-13,27,-1
2653,-111,-6,992,-16,29,2
2654,-171,-26,988,-19,12,-2
2655,-118,-28,982,-15,-11,-7
2656,26,-30,1009,-13,-28,-12
2657,126,-28,1007,-9,-22,-14
2658,153,-9,1008,-10,-1,-7
2659,50,-1,997,-13,22,-2
2660,-97,-12,1000,-17,30,1
2661,-168,-22,977,-18,15,-2
2662,-135,-27,978,-17,-10,-5
2663,6,-33,1012,-11,-29,-14
2664,114,-31,1011,-11,-23,-13
2665,158,-8,1001,-11,-4,-9
2666,69,-6,1012,-13,21,-3
2667,-75,-11,997,-16,30,2
2668,-166,-14,966,-18,17,0
2669,-143,-27,988,-17,-7,-6
2670,-24,-37,1005,-13,-25,-11
2671,106,-30,1004,-11,-25,-13
2672,160,-14,1010,-9,-7,-11
2673,78,-1,1007,-12,17,-2
2674,-50,-13,1005,-16,30,0
2675,-162,-12,967,-20,20,1
2676,-154,-26,992,-17,-3,-4
2677,-42,-38,1001,-14,-26,-11
2678,97,-25,1001,-9,-28,-14
2679,156,-15,1009,-9,-11,-11
2680,93,-9,1014,-13,17,-3
2681,-31,-6,1006,-16,31,0
2682,-149,-11,970,-19,24,1
2683,-162,-25,986,-16,1,-4
2684,-67,-36,992,-14,-23,-10
2685,82,-29,1014,-11,-28,-14
2686,156,-20,1003,-9,-13,-12
2687,108,-8,1005,-10,13,-5
2688,-10,-5,1010,-15,29,0
2689,-144,-3,979,-20,26,3
2690,-160,-30,985,-19,3,-4
2691,-91,-37,984,-14,-19,-10
2692,70,-27,1010,-12,-28,-14
2693,150,-23,1012,-9,-17,-13
2694,125,-11,1008,-11,8,-6
2695,11,-5,997,-15,27,-1
2696,-133,-3,996,-18,29,3
2697,-165,-28,987,-20,8,-3
2698,-106,-37,976,-15,-16,-8
2699,50,-26,1006,-12,-30,-13
2700,140,-27,1019,-12,-19,-13
2701,142,-14,1006,-10,3,-6
2702,29,0,995,-14,24,-1
2703,-113,-3,994,-18,33,3
2704,-173,-24,986,-18,11,-2
2705,-121,-31,984,-17,-13,-8
2706,32,-29,1007,-10,-28,-13
2707,124,-29,1012,-11,-20,-14
2708,157,-12,1007,-8,1,-8
2709,44,0,999,-13,24,-1
2710,-95,-10,997,-16,31,1
2711,-174,-21,976,-18,16,-3
2712,-133,-25,981,-17,-10,-6
2713,9,-36,1013,-12,-29,-12
2714,115,-28,1007,-7,-24,-13
2715,163,-8,1005,-8,-3,-8
2716,61,-6,1010,-13,23,-2
2717,-76,-8,998,-16,31,2
2718,-169,-17,968,-20,17,1
2719,-140,-25,987,-18,-7,-6
2720,-20,-38,1007,-13,-27,-11
2721,107,-30,1006,-12,-26,-14
2722,163,-16,1013,-10,-6,-9
2723,80,-2,1003,-11,20,-2
2724,-54,-12,1004,-17,31,0
2725,-163,-13,967,-20,21,0
2726,-153,-27,989,-18,-2,-5
2727,-42,-36,1000,-14,-25,-10
2728,98,-32,1002,-11,-27,-12
2729,163,-15,1008,-9,-11,-12
2730,91,-6,1014,-13,18,-2
2731,-32,-8,1006,-18,29,-1
2732,-155,-12,969,-19,24,1
2733,-161,-25,983,-18,1,-4
2734,-63,-40,997,-15,-23,-10
2735,86,-28,1007,-11,-28,-13
2736,159,-19,1005,-10,-11,-12
2737,106,-6,1010,-11,14,-4
2738,-17,-4,1007,-14,29,1
2739,-147,-9,982,-19,25,2
2740,-161,-29,982,-18,3,-4
2741,-87,-41,988,-16,-21,-10
2742,76,-25,1010,-10,-30,-14
2743,152,-21,1007,-11,-16,-13
2744,122,-11,1004,-11,9,-5
2745,5,-4,1000,-12,27,-1
2746,-135,-2,992,-19,28,2
2747,-164,-28,987,-20,6,-4
2748,-102,-35,979,-16,-17,-9
2749,54,-28,1006,-11,-29,-13
2750,143,-27,1017,-10,-19,-14
2751,139,-18,1009,-11,6,-5
2752,23,0,992,-13,26,-2
2753,-114,-4,995,-18,29,2
2754,-173,-26,988,-18,10,-2
2755,-117,-29,980,-15,-14,-8
2756,35,-30,1009,-11,-30,-12
2757,128,-27,1007,-10,-20,-13
2758,151,-13,1008,-10,4,-7
2759,44,-4,993,-14,24,-1
2760,-104,-10,998,-16,30,2
2761,-168,-21,979,-18,15,-2
2762,-132,-25,984,-17,-10,-5
2763,13,-30,1007,-11,-28,-13
2764,113,-28,1011,-9,-23,-12
2765,160,-7,1002,-9,-3,-7
2766,62,-5,1005,-15,23,-3
2767,-83,-10,995,-17,32,2
2768,-169,-17,972,-20,17,-1
2769,-140,-27,979,-17,-7,-6
2770,-12,-35,1012,-11,-26,-11
2771,111,-30,1009,-10,-24,-14
2772,158,-10,1006,-10,-5,-9
2773,78,-3,1005,-13,19,-3
2774,-63,-13,1004,-16,30,1
2775,-162,-16,962,-21,19,1
2776,-151,-29,994,-18,-3,-5
2777,-35,-40,1001,-13,-24,-11
2778,101,-29,1002,-10,-26,-13
2779,159,-15,1014,-9,-10,-12
2780,87,0,1009,-12,17,-3
2781,-34,-8,1011,-17,30,-1
2782,-158,-12,962,-19,23,1
2783,-158,-27,985,-17,-2,-4
2784,-56,-41,997,-14,-24,-10
2785,83,-27,1004,-9,-28,-12
2786,161,-17,1009,-9,-13,-11
2787,102,-4,1012,-12,14,-4
2788,-19,-3,1004,-16,29,1
2789,-146,-7,975,-20,25,1
2790,-165,-30,983,-17,3,-2
2791,-79,-38,989,-15,-20,-9
2792,74,-29,1014,-11,-28,-13
2793,154,-22,1001,-9,-14,-11
2794,117,-10,1006,-10,10,-5
2795,-1,-1,1005,-16,27,-2
2796,-138,-3,992,-19,28,1
2797,-164,-28,983,-18,6,-4
2798,-103,-36,982,-16,-18,-9
2799,61,-24,1007,-12,-31,-13
2800,144,-27,1018,-11,-18,-13
2801,136,-14,1005,-11,6,-6
2802,21,-5,998,-14,28,-1
2803,-121,-4,989,-17,29,2
2804,-170,-29,993,-19,10,-3
2805,-114,-31,976,-15,-16,-9
2806,39,-30,1006,-12,-30,-13
2807,135,-24,1017,-11,-20,-14
2808,148,-15,1005,-10,3,-7
2809,37,0,998,-12,24,-2
2810,-104,-8,994,-17,29,3
2811,-170,-22,983,-18,14,-1
2812,-125,-26,982,-18,-11,-6
2813,15,-31,1012,-12,-29,-11
2814,122,-32,1006,-12,-24,-13
2815,155,-16,1004,-10,-2,-9
2816,55,-2,1000,-13,23,-2
2817,-88,-12,1002,-18,32,2
2818,-170,-17,969,-18,18,-1
2819,-139,-25,982,-16,-8,-5
2820,-1,-34,1009,-12,-29,-12
2821,110,-29,1011,-10,-25,-13
2822,163,-10,1007,-9,-4,-10
2823,72,-5,1004,-13,21,-3
2824,-65,-11,1002,-15,30,2
2825,-167,-21,967,-18,20,0
2826,-146,-23,987,-16,-5,-5
2827,-30,-37,1005,-14,-26,-10
2828,103,-26,1006,-10,-26,-15
2829,161,-16,1010,-9,-9,-11
2830,86,-3,1009,-12,18,-3
2831,-43,-13,1008,-15,32,0
2832,-159,-14,964,-18,23,-1
2833,-156,-26,990,-18,-2,-5
2834,-49,-37,999,-14,-24,-11
2835,93,-26,1001,-9,-28,-14
2836,161,-15,1010,-9,-12,-11
2837,103,-6,1016,-12,15,-3
2838,-24,-6,1003,-16,31,2
2839,-153,-13,972,-21,26,1
2840,-162,-28,985,-17,1,-4
2841,-73,-40,991,-14,-22,-10
2842,78,-23,1013,-12,-28,-13
2843,157,-19,1005,-10,-13,-11
2844,114,-9,1004,-10,12,-4
2845,-6,-2,1007,-14,27,0
2846,-143,-7,987,-19,26,3
2847,-163,-32,982,-19,5,-4
2848,-97,-42,980,-14,-18,-10
2849,64,-22,1012,-8,-30,-14
2850,151,-22,1009,-10,-19,-13
2851,128,-7,1006,-10,8,-5
2852,12,-2,999,-16,27,0
2853,-127,-5,991,-19,29,1
2854,-168,-32,987,-19,8,-2
2855,-112,-32,975,-15,-16,-9
2856,50,-30,1007,-10,-29,-14
2857,136,-27,1014,-9,-18,-12
2858,144,-11,1006,-12,5,-6
2859,33,1,997,-14,26,0
2860,-112,-6,990,-18,29,3
2861,-172,-26,988,-19,11,-2
2862,-125,-36,983,-18,-12,-7
2863,26,-32,1004,-12,-29,-12
2864,127,-29,1014,-9,-21,-13
2865,156,-9,1005,-6,1,-7
2866,50,1,998,-14,23,-1
2867,-97,-8,998,-20,30,1
2868,-173,-23,978,-20,17,1
2869,-134,-29,981,-18,-9,-6
2870,6,-37,1010,-13,-29,-12
2871,114,-32,1011,-9,-25,-13
2872,163,-12,1005,-9,-5,-9
2873,67,-2,1006,-13,22,-1
2874,-77,-9,1001,-15,31,3
2875,-166,-14,968,-20,19,0
2876,-147,-25,986,-17,-7,-4
2877,-19,-38,1008,-14,-27,-12
2878,108,-33,1007,-11,-26,-14
2879,164,-13,1009,-8,-8,-10
2880,78,-1,1010,-12,19,-2
2881,-54,-12,1003,-15,30,0
2882,-165,-13,967,-20,20,1
2883,-151,-23,989,-18,-3,-5
2884,-41,-38,1001,-13,-25,-12
2885,94,-27,1001,-9,-28,-13
2886,165,-15,1008,-9,-11,-11
2887,94,-5,1018,-11,16,-4
2888,-32,-8,1004,-17,29,0
2889,-156,-12,969,-17,23,2
2890,-158,-27,985,-18,1,-4
2891,-64,-39,997,-14,-23,-10
2892,83,-24,1008,-11,-26,-14
2893,161,-16,1004,-11,-13,-11
2894,109,-7,1011,-13,13,-3
2895,-15,-8,1003,-16,29,1
2896,-146,-7,981,-18,26,2
2897,-166,-31,980,-16,4,-4
2898,-87,-35,988,-13,-20,-10
2899,70,-25,1013,-10,-30,-13
2900,152,-18,1005,-11,-17,-13
2901,124,-12,1005,-10,8,-6
2902,1,-2,1003,-14,28,-1
2903,-129,-5,990,-18,29,1
2904,-168,-28,988,-19,6,-3
2905,-107,-35,974,-16,-17,-8
2906,55,-23,1010,-12,-29,-13
2907,145,-25,1014,-10,-18,-12
2908,136,-11,1007,-11,6,-6
2909,26,0,996,-14,26,-2
2910,-121,-8,991,-17,30,3
2911,-171,-26,987,-19,10,-3
2912,-118,-33,982,-16,-13,-8
2913,38,-30,1008,-11,-29,-13
2914,132,-26,1015,-8,-20,-14
2915,150,-8,1006,-10,1,-9
2916,45,-2,996,-15,24,-2
2917,-105,-10,996,-19,30,1
2918,-174,-26,983,-18,14,-2
2919,-128,-27,982,-16,-11,-6
2920,11,-33,1009,-13,-29,-13
2921,122,-26,1011,-9,-23,-14
2922,159,-14,1006,-9,-1,-8
2923,59,0,1003,-13,23,-1
2924,-82,-12,1004,-19,31,2
2925,-171,-18,970,-20,17,0
2926,-139,-28,979,-17,-7,-6
2927,-11,-39,1013,-12,-26,-11
2928,111,-27,1007,-10,-24,-14
2929,161,-10,1009,-9,-5,-10
2930,78,-1,1007,-12,19,-3
2931,-63,-9,1000,-17,30,3
2932,-161,-18,964,-19,21,-1
2933,-153,-23,991,-17,-4,-6
2934,-32,-39,997,-15,-25,-12
2935,101,-30,1007,-10,-26,-13
2936,162,-12,1005,-9,-9,-11
2937,90,-3,1012,-14,17,-3
2938,-42,-9,1007,-16,30,1
2939,-155,-11,965,-17,23,0
2940,-157,-27,989,-18,-2,-4
2941,-53,-37,995,-15,-23,-12
2942,92,-24,1008,-10,-29,-13
2943,157,-18,1004,-10,-12,-11
2944,105,-6,1011,-12,15,-3
2945,-22,-6,1005,-15,30,0
2946,-147,-5,974,-20,24,1
2947,-162,-27,981,-18,3,-3
2948,-81,-39,992,-18,-21,-8
2949,80,-28,1013,-12,-30,-14
2950,155,-23,1002,-9,-15,-12
2951,119,-10,1006,-10,10,-5
2952,-1,-3,1007,-14,27,-2
2953,-139,-4,986,-19,28,3
2954,-166,-26,985,-18,7,-3
2955,-102,-39,983,-15,-18,-9
2956,61,-27,1008,-10,-31,-13
2957,149,-25,1014,-10,-19,-13
2958,133,-16,1008,-10,8,-6
2959,17,-1,997,-15,27,0
2960,-124,-3,992,-17,28,2
2961,-172,-28,992,-20,9,-3
2962,-115,-31,975,-16,-15,-8
2963,43,-31,1005,-12,-30,-13
2964,135,-28,1015,-10,-20,-12
2965,150,-12,1005,-9,3,-7
2966,41,-2,995,-13,27,-2
2967,-110,-8,992,-16,30,3
2968,-174,-24,987,-19,12,-1
2969,-128,-28,984,-16,-13,-6
2970,22,-30,1007,-13,-30,-11
2971,124,-26,1010,-10,-22,-13
2972,157,-9,1007,-9,-2,-9
2973,55,-4,1001,-14,23,-2
2974,-88,-9,1001,-18,32,1
2975,-172,-22,973,-20,15,-2
2976,-137,-25,982,-16,-9,-6
2977,-1,-35,1010,-12,-28,-13
2978,110,-31,1011,-8,-24,-14
2979,163,-8,1005,-8,-6,-9
2980,69,-1,1008,-13,21,-3
2981,-70,-10,996,-16,29,2
2982,-167,-17,972,-20,18,0
2983,-145,-26,984,-18,-6,-4
2984,-26,-38,1004,-13,-25,-11
2985,104,-30,1009,-10,-25,-14
2986,160,-12,1008,-8,-7,-11
2987,84,-3,1009,-12,18,-4
2988,-53,-11,1003,-16,30,0
2989,-157,-13,965,-20,22,0
2990,-154,-26,990,-18,-2,-4
2991,-49,-40,996,-14,-25,-11
2992,96,-26,1004,-11,-27,-14
2993,159,-17,1009,-8,-10,-11
2994,96,-5,1013,-12,15,-2
2995,-25,-9,1007,-16,30,1
2996,-155,-10,968,-18,24,2
2997,-158,-29,983,-17,1,-4
2998,-66,-41,996,-15,-23,-9
2999,79,-25,1006,-10,-28,-12
3000,158,-21,1007,-11,-13,-11
3001,110,-5,1007,-10,12,-4
3002,-12,-7,1006,-16,28,-1
3003,-138,-5,982,-19,27,2
3004,-168,-32,982,-18,4,-3
3005,-88,-36,984,-13,-21,-10
3006,65,-27,1014,-9,-29,-13
3007,150,-18,1002,-10,-15,-12
3008,128,-15,1009,-10,9,-6
3009,8,1,998,-14,28,0
3010,-130,-3,992,-19,28,2
3011,-168,-29,988,-19,8,-3
3012,-110,-39,975,-16,-18,-8
3013,54,-26,1008,-11,-30,-14
3014,142,-26,1018,-10,-19,-12
3015,145,-13,1008,-11,5,-7
3016,27,0,995,-15,26,-1
3017,-114,-4,990,-18,29,1
3018,-174,-28,991,-18,11,-2
3019,-124,-33,979,-17,-14,-7
3020,30,-33,1007,-11,-31,-14
3021,129,-28,1013,-10,-21,-13
3022,154,-10,1006,-9,1,-8
3023,50,-2,997,-13,25,-2
3024,-103,-6,996,-18,31,1
3025,-174,-22,979,-19,15,-1
3026,-133,-30,982,-18,-11,-6
3027,10,-34,1006,-13,-30,-13
3028,119,-29,1009,-8,-23,-14
3029,162,-11,1008,-11,-3,-9
3030,63,-3,1002,-12,23,-2
3031,-80,-10,1000,-17,30,2
3032,-171,-14,971,-20,17,1
3033,-143,-25,984,-18,-7,-6
3034,-13,-37,1006,-15,-27,-12
3035,108,-33,1011,-9,-25,-14
3036,166,-14,1008,-8,-5,-11
3037,78,-3,1007,-11,20,-3
3038,-58,-10,998,-15,31,1
3039,-166,-13,968,-21,16,-2
3040,-151,-27,988,-18,-6,-7
3041,-39,-38,1002,-14,-26,-12
3042,102,-30,1005,-9,-28,-14
3043,162,-17,1007,-8,-10,-10
3044,93,-4,1013,-13,17,-3
3045,-36,-7,1008,-16,31,1
3046,-160,-11,967,-18,23,2
3047,-159,-28,985,-17,0,-3
3048,-57,-39,999,-16,-24,-9
3049,88,-25,1001,-10,-28,-12
3050,160,-19,1010,-10,-12,-11
3051,105,-7,1011,-12,15,-4
3052,-20,-6,1005,-16,30,0
3053,-147,-11,975,-19,24,1
3054,-163,-29,984,-17,2,-3
3055,-76,-38,991,-15,-20,-10
3056,74,-22,1009,-11,-28,-13
3057,156,-20,1006,-10,-15,-13
3058,119,-12,1005,-10,10,-6
3059,0,-4,1001,-14,27,-1
3060,-138,-3,992,-20,27,2
3061,-163,-27,983,-19,6,-2
3062,-101,-37,983,-14,-18,-8
3063,63,-24,1007,-11,-30,-14
3064,145,-25,1013,-10,-18,-13
3065,131,-15,1003,-10,7,-6
3066,20,-4,1001,-14,27,-2
3067,-123,-5,990,-19,30,2
3068,-172,-27,987,-20,8,-2
3069,-112,-32,981,-15,-16,-9
3070,36,-26,1000,-12,-28,-12
3071,136,-23,1016,-9,-19,-13
3072,147,-19,1013,-11,3,-8
3073,38,1,989,-13,24,-1
3074,-106,-8,997,-18,28,2
3075,-174,-26,985,-20,12,-1
3076,-129,-29,983,-18,-12,-7
3077,20,-31,1008,-12,-30,-14
3078,121,-27,1012,-10,-23,-13
3079,162,-10,1003,-9,-1,-8
3080,52,-2,1001,-13,23,-2
3081,-91,-8,998,-16,31,3
3082,-172,-24,976,-18,17,-1
3083,-139,-27,977,-17,-10,-7
3084,0,-36,1011,-12,-29,-12
3085,114,-28,1012,-10,-25,-13
3086,162,-9,1003,-10,-3,-9
3087,69,0,1008,-13,21,-2
3088,-74,-10,998,-19,30,2
3089,-167,-18,967,-20,18,-1
3090,-148,-29,986,-18,-6,-5
3091,-21,-38,1008,-14,-27,-12
3092,107,-31,1006,-10,-26,-13
3093,161,-11,1008,-8,-8,-10
3094,81,-3,1009,-11,18,-3
3095,-48,-11,1004,-16,31,2
3096,-164,-13,964,-19,21,2
3097,-155,-26,993,-18,-3,-4
3098,-45,-41,995,-14,-24,-10
3099,93,-32,1002,-9,-28,-13
3100,163,-15,1010,-8,-13,-12
3101,93,-7,1014,-10,17,-3
3102,-31,-7,1006,-17,31,1
3103,-153,-10,974,-18,24,2
3104,-160,-29,982,-17,1,-4
3105,-66,-38,998,-15,-23,-10
3106,84,-24,1008,-10,-29,-13
3107,159,-19,1004,-9,-13,-13
3108,113,-9,1009,-9,12,-4
3109,-13,-6,1007,-14,29,0
3110,-143,-4,979,-19,25,2
3111,-164,-27,986,-18,4,-3
3112,-89,-36,983,-16,-19,-9
3113,68,-26,1018,-10,-28,-12
3114,153,-23,1004,-10,-16,-11
3115,126,-10,1003,-11,9,-6
3116,6,-5,1002,-14,28,-2
3117,-134,-3,994,-19,29,3
3118,-162,-30,986,-19,7,-2
3119,-109,-34,979,-14,-17,-8
3120,54,-25,1010,-10,-30,-13
3121,142,-28,1015,-10,-18,-13
3122,143,-12,1004,-11,6,-6
3123,26,-4,995,-14,25,-2
3124,-118,-7,995,-17,29,2
3125,-170,-27,986,-19,11,-3
3126,-120,-29,983,-15,-14,-8
3127,38,-31,1006,-10,-29,-13
3128,131,-26,1014,-9,-21,-14
3129,151,-16,1008,-9,1,-7
3130,45,1,997,-14,24,-2
3131,-108,-13,992,-18,31,2
3132,-171,-21,984,-18,15,-1
3133,-131,-29,981,-17,-10,-7
3134,12,-30,1010,-12,-29,-13
3135,120,-30,1008,-11,-22,-14
3136,155,-10,1005,-9,-3,-9
3137,61,-2,1002,-14,22,-3
3138,-87,-12,1003,-16,30,2
3139,-168,-18,971,-19,15,-2
3140,-141,-23,982,-16,-8,-6
3141,-3,-35,1009,-14,-29,-12
3142,109,-29,1010,-10,-24,-13
3143,163,-10,1005,-9,-5,-9
3144,74,-1,1008,-13,20,-3
3145,-65,-9,1000,-16,32,1
3146,-167,-15,965,-18,21,1
3147,-148,-28,990,-19,-4,-6
3148,-32,-40,1001,-14,-27,-11
3149,105,-29,1003,-10,-28,-13
3150,163,-11,1010,-9,-9,-11
3151,86,-1,1010,-11,17,-4
3152,-42,-10,1004,-16,30,0
3153,-160,-12,968,-18,24,0
3154,-157,-28,985,-17,0,-5
3155,-52,-37,999,-15,-24,-12
3156,91,-29,1001,-10,-27,-13
3157,163,-12,1009,-8,-12,-11
3158,100,-7,1014,-12,15,-3
3159,-24,-1,1004,-16,29,1
3160,-150,-9,974,-19,24,1
3161,-163,-27,983,-17,2,-5
3162,-75,-40,991,-16,-21,-9
3163,82,-25,1012,-10,-30,-14
3164,159,-21,1005,-10,-14,-13
3165,115,-6,1005,-9,12,-4
3166,-7,-1,1009,-14,29,0
3167,-141,-6,987,-19,27,2
3168,-164,-30,981,-18,6,-4
3169,-100,-39,983,-14,-18,-9
3170,65,-22,1012,-11,-30,-14
3171,153,-26,1011,-11,-16,-14
3172,127,-13,1000,-11,8,-5
3173,14,-2,1004,-15,28,-2
3174,-130,-4,992,-18,30,3
3175,-167,-26,986,-20,8,-3
3176,-112,-33,978,-15,-16,-9
3177,48,-28,1003,-9,-31,-15
3178,144,-26,1018,-9,-20,-14
3179,142,-17,1008,-12,4,-7
3180,31,2,991,-13,25,-3
3181,-115,-8,994,-17,29,2
3182,-175,-23,986,-19,11,-1
3183,-120,-33,982,-17,-13,-8
3184,25,-29,1008,-11,-29,-12
3185,125,-27,1011,-10,-21,-13
3186,158,-11,1006,-9,0,-8
3187,49,-2,998,-14,24,-3
3188,-97,-7,995,-18,32,2
3189,-174,-23,980,-19,16,-1
3190,-135,-28,980,-17,-10,-6
3191,8,-34,1009,-12,-28,-13
3192,114,-27,1009,-9,-25,-14
3193,164,-8,1005,-9,-5,-9
3194,66,-5,1006,-13,22,-3
3195,-80,-10,1000,-17,32,2
3196,-171,-18,968,-20,17,-1
3197,-143,-26,984,-16,-8,-5
3198,-16,-36,1005,-12,-27,-12
3199,110,-26,1013,-10,-26,-15
3200,166,-12,1008,-10,-6,-10
3201,77,-3,1001,-12,20,-3
3202,-54,-10,1008,-15,30,1
3203,-162,-13,967,-19,19,0
3204,-150,-26,988,-17,-3,-6
3205,-38,-41,1004,-13,-25,-12
3206,94,-28,999,-10,-27,-13
3207,167,-14,1013,-8,-11,-11
3208,91,-6,1013,-12,16,-4
3209,-36,-8,1004,-15,30,0
3210,-159,-14,967,-20,23,1
3211,-161,-25,989,-17,-1,-4
3212,-57,-38,994,-14,-23,-10
3213,93,-30,1007,-10,-29,-14
3214,162,-18,1006,-7,-14,-12
3215,108,-3,1011,-11,14,-4
3216,-23,-6,1008,-16,30,1
3217,-149,-7,973,-18,25,1
3218,-163,-29,986,-17,3,-2
3219,-81,-36,989,-15,-19,-10
3220,78,-26,1012,-10,-29,-14
3221,157,-20,1006,-8,-15,-13
3222,116,-6,1005,-10,10,-4
3223,0,-3,1006,-15,27,-1
3224,-142,-5,987,-20,28,3
3225,-167,-31,981,-18,5,-3
3226,-99,-39,985,-14,-18,-9
3227,61,-24,1007,-12,-32,-13
3228,151,-23,1011,-9,-18,-13
3229,132,-12,1010,-10,6,-6
3230,19,-1,995,-15,28,0
3231,-127,-4,994,-18,30,3
3232,-172,-29,989,-20,9,-2
3233,-115,-31,976,-15,-16,-6
3234,46,-33,1007,-11,-30,-13
3235,137,-26,1017,-10,-19,-12
3236,152,-11,1003,-9,4,-6
3237,34,0,996,-13,25,0
3238,-110,-5,991,-18,30,4
3239,-173,-26,985,-18,13,-1
3240,-127,-28,982,-17,-12,-6
3241,21,-32,1008,-12,-29,-11
3242,126,-31,1010,-9,-22,-13
3243,155,-10,1003,-7,0,-8
3244,59,-3,1003,-13,23,-2
3245,-94,-8,997,-18,31,3
3246,-175,-20,974,-19,15,-2
3247,-135,-26,983,-17,-10,-6
3248,-1,-36,1008,-13,-28,-12
3249,114,-25,1008,-8,-23,-13
3250,160,-14,1009,-9,-3,-10
3251,69,1,1000,-12,20,-3
3252,-73,-12,1002,-15,31,3
3253,-169,-18,966,-19,18,1
3254,-144,-25,983,-17,-6,-6
3255,-20,-36,1011,-13,-27,-12
3256,106,-27,1002,-11,-25,-14
3257,165,-10,1012,-10,-8,-11
3258,79,-2,1006,-12,19,-2
3259,-51,-9,1002,-16,31,2
3260,-162,-19,968,-18,21,0
3261,-155,-27,985,-18,-2,-5
3262,-36,-38,1003,-13,-25,-11
3263,96,-26,1000,-9,-27,-13
3264,162,-10,1008,-10,-9,-11
3265,92,-4,1016,-11,18,-4
3266,-35,-9,1002,-17,31,1
3267,-153,-12,972,-18,24,0
3268,-162,-27,986,-17,1,-5
3269,-59,-38,994,-15,-23,-11
3270,88,-25,1008,-11,-27,-13
3271,160,-19,1003,-10,-13,-13
3272,107,-7,1013,-12,13,-5
3273,-18,-6,1005,-16,30,1
3274,-145,-7,981,-19,26,2
3275,-163,-32,981,-17,3,-2
3276,-86,-37,990,-14,-20,-10
3277,80,-29,1012,-10,-29,-13
3278,152,-21,1005,-10,-16,-12
3279,120,-9,1006,-11,10,-5
3280,-1,-4,1004,-14,28,-2
3281,-136,-2,992,-20,28,1
3282,-165,-28,981,-19,7,-3
3283,-103,-38,982,-16,-19,-8
3284,60,-27,1010,-11,-32,-14
3285,148,-26,1014,-8,-18,-14
3286,135,-15,1005,-11,8,-5
3287,21,1,997,-13,26,-1
3288,-124,-3,995,-17,29,1
3289,-169,-24,988,-19,8,-3
3290,-118,-34,977,-17,-15,-7
3291,41,-31,1007,-12,-30,-13
3292,136,-31,1017,-10,-19,-14
3293,150,-12,1007,-11,3,-7
3294,39,1,993,-14,25,-1
3295,-111,-6,993,-18,29,2
3296,-173,-24,988,-17,12,-1
3297,-128,-29,981,-17,-12,-6
3298,19,-33,1007,-13,-29,-13
3299,123,-27,1009,-9,-22,-14
3300,160,-13,1007,-10,-1,-8
3301,54,-1,1001,-12,23,-2
3302,-93,-7,1000,-17,31,1
3303,-175,-19,975,-19,15,-2
3304,-135,-25,981,-16,-10,-6
3305,1,-37,1008,-14,-29,-12
3306,115,-31,1010,-9,-24,-13
3307,163,-15,1004,-9,-4,-9
3308,68,-3,1008,-13,21,-2
3309,-70,-12,1002,-15,30,3
3310,-168,-16,966,-18,18,0
3311,-147,-26,984,-17,-5,-5
3312,-25,-37,1009,-13,-27,-12
3313,106,-29,1004,-10,-25,-14
3314,165,-12,1008,-9,-7,-10
3315,82,-3,1008,-11,18,-3
3316,-49,-12,1004,-15,30,2
3317,-164,-15,966,-18,21,0
3318,-156,-23,990,-18,-1,-5
3319,-43,-39,1002,-14,-26,-11
3320,96,-28,1000,-9,-28,-14
3321,165,-14,1013,-9,-11,-12
3322,95,-6,1014,-12,16,-3
3323,-33,-9,1002,-16,30,1
3324,-157,-9,971,-19,24,2
3325,-160,-28,986,-19,0,-6
3326,-65,-40,993,-15,-23,-10
3327,84,-25,1007,-11,-29,-13
3328,158,-17,1005,-8,-14,-11
3329,108,-6,1010,-9,12,-3
3330,-15,-6,1007,-16,29,0
3331,-147,-11,981,-20,26,1
3332,-161,-26,981,-17,2,-4
3333,-87,-38,988,-15,-21,-10
3334,72,-27,1012,-12,-28,-12
3335,156,-20,1007,-9,-17,-12
3336,123,-10,999,-10,9,-4
3337,2,-4,1009,-15,27,-1
3338,-136,-3,991,-19,29,3
3339,-166,-29,981,-20,7,-2
3340,-100,-38,982,-15,-18,-9
3341,59,-28,1007,-9,-30,-14
3342,147,-26,1010,-10,-17,-13
3343,139,-13,1010,-10,6,-6
3344,18,1,998,-15,27,-1
3345,-123,-5,987,-21,30,3
3346,-173,-28,998,-19,9,-3
3347,-116,-35,973,-17,-16,-7
3348,38,-28,1009,-10,-30,-12
3349,134,-28,1016,-10,-21,-13
3350,151,-12,1006,-10,2,-8
3351,38,-3,994,-14,24,-2
3352,-112,-6,996,-18,30,2
3353,-171,-27,984,-19,12,-3
3354,-129,-28,982,-17,-12,-6
3355,20,-32,1006,-13,-30,-12
3356,123,-26,1010,-9,-22,-13
3357,156,-12,1004,-8,0,-8
3358,56,-1,1002,-11,23,-2
3359,-89,-14,1000,-17,31,1
3360,-172,-18,971,-18,16,-1
3361,-138,-27,985,-17,-10,-7
3362,-2,-33,1010,-12,-29,-12
3363,112,-29,1009,-10,-24,-14
3364,161,-11,1008,-10,-4,-10
3365,69,-5,1005,-13,21,-2
3366,-71,-13,999,-15,30,2
3367,-169,-16,970,-20,18,1
3368,-144,-28,981,-17,-6,-5
3369,-22,-35,1009,-12,-27,-11
3370,105,-30,1003,-10,-26,-13
3371,162,-11,1012,-8,-8,-10
3372,79,-3,1009,-12,17,-2
3373,-50,-10,1000,-14,30,2
3374,-160,-16,967,-21,19,1
3375,-156,-27,989,-19,-1,-3
3376,-43,-34,1000,-12,-24,-11
3377,96,-30,1001,-12,-28,-14
3378,162,-16,1010,-7,-11,-11
3379,96,-6,1010,-12,16,-3
3380,-30,-11,1009,-19,29,0
3381,-157,-10,970,-17,23,2
3382,-160,-28,987,-19,0,-4
3383,-65,-40,993,-13,-22,-11
3384,84,-27,1006,-11,-27,-13
3385,158,-17,1006,-10,-14,-12
3386,107,-9,1007,-11,13,-3
3387,-12,-2,1009,-18,29,-1
3388,-147,-8,978,-20,26,2
3389,-166,-28,981,-17,4,-4
3390,-87,-39,989,-16,-21,-10
3391,69,-25,1012,-8,-29,-13
3392,153,-22,1003,-10,-17,-12
3393,124,-7,1011,-10,10,-4
3394,3,-6,997,-15,28,0
3395,-136,-2,994,-20,27,2
3396,-166,-33,986,-20,7,-2
3397,-107,-35,975,-15,-17,-7
3398,58,-26,1011,-12,-30,-12
3399,144,-25,1012,-9,-17,-13
3400,138,-13,1007,-10,5,-7
3401,23,0,991,-13,26,-1
3402,-122,-2,997,-17,28,3
3403,-168,-29,988,-19,9,-2
3404,-119,-32,980,-16,-14,-7
3405,36,-28,1003,-11,-30,-13
3406,133,-27,1016,-10,-19,-13
3407,148,-13,1005,-10,2,-7
3408,43,0,998,-14,24,-2
3409,-104,-9,993,-18,29,2
3410,-174,-21,985,-18,13,-2
3411,-128,-27,986,-17,-11,-7
3412,15,-32,1006,-12,-30,-13
3413,120,-28,1008,-9,-23,-13
3414,161,-14,1006,-9,-2,-10
3415,55,-2,1004,-13,23,-1
3416,-87,-10,996,-17,32,3
3417,-170,-18,976,-17,17,-1
3418,-141,-22,978,-15,-8,-6
3419,-7,-37,1011,-14,-28,-13
3420,114,-29,1015,-9,-24,-13
3421,162,-12,1005,-11,-4,-9
3422,74,-1,1004,-12,21,-2
3423,-68,-13,1004,-16,31,3
3424,-167,-12,965,-20,19,1
3425,-150,-23,983,-18,-5,-5
3426,-28,-38,1009,-14,-26,-11
3427,105,-28,1004,-12,-26,-13
3428,166,-13,1010,-10,-8,-11
3429,86,-5,1011,-12,17,-3
3430,-47,-11,1001,-15,30,1
3431,-162,-11,970,-20,21,1
3432,-158,-23,989,-18,-2,-4
3433,-50,-39,997,-14,-25,-10
3434,95,-27,1001,-10,-28,-13
3435,165,-16,1011,-10,-12,-11
3436,97,-8,1013,-14,16,-3
3437,-26,-6,1007,-15,29,1
3438,-158,-11,969,-19,24,1
3439,-161,-23,983,-19,1,-4
3440,-69,-42,995,-15,-23,-9
3441,82,-27,1005,-10,-28,-14
3442,165,-18,1007,-9,-13,-11
3443,115,-9,1011,-11,12,-4
3444,-12,-3,1004,-17,28,2
3445,-141,-6,983,-19,26,1
3446,-170,-29,981,-19,4,-3
3447,-90,-35,986,-13,-20,-9
3448,69,-27,1014,-10,-30,-13
3449,154,-24,1004,-12,-17,-12
3450,127,-10,1005,-10,8,-6
3451,8,0,1006,-14,27,-2
3452,-133,-5,990,-19,28,3
3453,-165,-30,983,-18,7,-3
3454,-114,-37,981,-16,-17,-8
3455,54,-24,1003,-11,-31,-13
3456,143,-28,1018,-10,-19,-12
3457,142,-9,1006,-10,5,-6
3458,26,-1,995,-14,25,-1
3459,-117,-2,991,-18,29,2
3460,-176,-29,991,-18,11,-1
3461,-119,-34,977,-17,-14,-9
3462,35,-33,1007,-10,-30,-12
3463,134,-25,1015,-9,-21,-12
3464,151,-9,1006,-9,1,-8
3465,44,1,997,-13,23,-2
3466,-106,-8,996,-19,30,2
3467,-175,-26,985,-19,14,-2
3468,-133,-30,981,-17,-11,-8
3469,17,-34,1008,-13,-29,-14
3470,122,-30,1011,-9,-23,-13
3471,161,-8,1006,-8,-2,-7
3472,64,-3,1003,-14,23,-1
3473,-89,-8,1003,-17,33,2
3474,-173,-17,969,-19,16,0
3475,-145,-29,984,-18,-9,-6
3476,-4,-39,1008,-12,-29,-13
3477,112,-32,1006,-11,-25,-14
3478,166,-9,1010,-8,-6,-10
3479,75,0,1005,-12,20,-2
3480,-66,-8,1001,-16,31,2
3481,-167,-15,969,-19,19,0
3482,-151,-26,984,-17,-6,-5
3483,-28,-38,1003,-13,-27,-12
3484,103,-31,1006,-10,-27,-13
3485,166,-16,1010,-9,-9,-10
3486,86,-3,1010,-12,17,-2
3487,-47,-6,1002,-17,30,3
3488,-160,-14,967,-20,22,0
3489,-159,-25,990,-17,-1,-4
3490,-51,-39,998,-15,-25,-12
3491,95,-30,1003,-10,-28,-15
3492,162,-15,1007,-8,-10,-11
3493,99,-6,1017,-11,15,-5
3494,-25,-9,1005,-16,31,0
3495,-152,-10,969,-19,25,2
3496,-162,-27,985,-16,2,-4
3497,-73,-40,994,-15,-22,-10
3498,84,-22,1007,-9,-29,-12
3499,156,-22,1003,-12,-14,-12
3500,117,-7,1009,-9,11,-4
3501,-8,-8,1005,-17,29,1
3502,-143,-2,986,-19,27,3
3503,-166,-33,980,-19,4,-3
3504,-96,-37,987,-17,-20,-9
3505,68,-28,1007,-11,-30,-12
3506,153,-21,1011,-10,-17,-13
3507,130,-12,1003,-9,8,-5
3508,7,-1,1002,-14,27,-1
3509,-129,-5,994,-19,29,2
3510,-173,-30,987,-19,9,-3
3511,-110,-37,978,-16,-17,-9
3512,49,-28,1007,-11,-31,-12
3513,141,-23,1015,-10,-18,-13
3514,144,-15,1009,-12,6,-6
3515,28,0,993,-14,26,-2
3516,-113,-5,995,-19,29,2
3517,-174,-26,985,-20,11,-2
3518,-123,-32,983,-18,-13,-8
3519,31,-30,1008,-12,-30,-14
3520,129,-26,1011,-10,-21,-14
3521,154,-14,1006,-11,0,-8
3522,50,-2,996,-14,24,-2
3523,-99,-9,997,-17,30,2
3524,-174,-21,981,-19,15,-3
3525,-133,-26,984,-16,-11,-7
3526,8,-35,1006,-13,-29,-14
3527,116,-31,1009,-9,-24,-14
3528,160,-13,1005,-9,-2,-9
3529,63,0,1003,-15,22,-2
3530,-81,-9,1003,-17,32,2
3531,-174,-14,970,-20,18,0
3532,-142,-26,978,-17,-8,-7
3533,-15,-40,1011,-13,-27,-13
3534,110,-34,1008,-10,-25,-15
3535,163,-12,1008,-10,-5,-10
3536,76,-3,1006,-11,20,-2
3537,-64,-9,1002,-15,31,1
3538,-164,-15,971,-19,20,0
3539,-155,-27,985,-17,-5,-4
3540,-29,-38,1002,-13,-25,-13
3541,98,-31,1006,-10,-26,-13
3542,167,-13,1008,-9,-10,-11
3543,89,-7,1011,-13,17,-4
3544,-41,-7,1004,-16,30,2
3545,-156,-13,967,-19,23,1
3546,-159,-25,988,-17,-2,-4
3547,-56,-40,996,-15,-25,-11
3548,91,-27,1006,-10,-28,-14
3549,159,-18,1008,-10,-12,-12
3550,102,-7,1015,-12,15,-5
3551,-24,-8,1007,-15,29,0
3552,-149,-5,972,-19,24,2
3553,-168,-24,985,-19,2,-3
3554,-75,-37,993,-15,-21,-9
3555,77,-29,1012,-10,-29,-14
3556,160,-21,1004,-9,-15,-12
3557,117,-11,1007,-10,11,-4
3558,-4,-4,1009,-13,28,0
3559,-140,-5,985,-18,28,2
3560,-167,-26,987,-17,5,-3
3561,-100,-38,981,-15,-19,-7
3562,67,-24,1008,-11,-29,-13
3563,151,-23,1011,-8,-19,-12
3564,134,-10,1005,-9,6,-6
3565,13,-3,1000,-16,28,-1
3566,-127,-5,989,-19,29,3
3567,-172,-28,990,-20,8,-4
3568,-111,-34,974,-16,-16,-9
3569,44,-28,1008,-11,-29,-14
3570,141,-23,1015,-11,-20,-14
3571,145,-15,1008,-11,3,-6
3572,31,3,996,-13,25,0
3573,-114,-5,991,-17,30,2
3574,-175,-27,988,-18,12,-2
3575,-124,-30,978,-16,-13,-7
3576,31,-29,1011,-11,-28,-13
3577,127,-30,1007,-10,-21,-12
3578,156,-7,1006,-10,0,-7
3579,51,-2,998,-14,24,-2
3580,-106,-10,997,-19,32,3
3581,-170,-23,977,-20,14,-2
3582,-136,-34,981,-17,-10,-6
3583,11,-34,1008,-12,-29,-13
3584,120,-30,1010,-9,-25,-13
3585,160,-7,1005,-9,-4,-9
3586,63,-3,1006,-13,21,-1
3587,-79,-12,1002,-17,32,2
3588,-172,-19,973,-20,18,0
3589,-138,-26,985,-16,-7,-6
3590,-17,-37,1010,-12,-26,-12
3591,109,-29,1007,-10,-27,-15
3592,165,-13,1008,-9,-6,-10
3593,76,-2,1007,-10,21,-2
3594,-58,-11,998,-15,30,0
3595,-165,-11,968,-20,20,0
3596,-152,-26,985,-18,-4,-5
3597,-38,-39,1005,-13,-26,-12
3598,101,-31,1005,-9,-26,-14
3599,163,-17,1009,-8,-10,-11
3600,89,-1,1013,-11,17,-3
3601,-36,-8,1004,-16,29,1
3602,-160,-10,968,-18,23,1
3603,-159,-27,988,-19,-1,-3
3604,-59,-39,997,-14,-24,-10
3605,90,-26,1000,-9,-29,-14
3606,159,-17,1011,-8,-13,-11
3607,106,-6,1013,-11,14,-4
3608,-23,-6,1004,-16,30,0
3609,-147,-9,974,-20,25,1
3610,-166,-26,986,-19,3,-3
3611,-78,-38,988,-14,-22,-10
3612,80,-27,1009,-11,-30,-14
3613,156,-18,1005,-10,-15,-11
3614,121,-8,1003,-12,11,-4
3615,-1,-4,1011,-15,28,0
3616,-142,-5,985,-18,27,2
3617,-165,-31,985,-20,6,-4
3618,-100,-40,981,-15,-18,-9
3619,61,-22,1010,-9,-30,-12
3620,152,-25,1012,-10,-18,-14
3621,130,-12,1002,-11,8,-7
3622,16,0,1000,-15,26,0
3623,-130,-7,993,-18,31,2
3624,-173,-26,991,-19,9,-2
3625,-114,-36,976,-17,-17,-8
3626,45,-26,1007,-11,-31,-14
3627,140,-25,1014,-12,-20,-12
3628,147,-11,1009,-10,5,-7
3629,31,-5,996,-16,26,0
3630,-112,-6,989,-19,31,3
3631,-173,-28,989,-18,12,-2
3632,-121,-26,982,-17,-12,-7
3633,24,-32,1008,-9,-29,-13
3634,128,-25,1009,-8,-22,-13
3635,152,-12,1005,-10,0,-6
3636,52,0,1000,-13,23,-2
3637,-97,-12,1000,-18,31,3
3638,-172,-19,974,-19,15,-2
3639,-136,-29,985,-17,-9,-6
3640,7,-35,1010,-13,-29,-12
3641,114,-26,1009,-9,-25,-13
3642,160,-11,1005,-10,-4,-10
3643,68,-2,1004,-12,21,-3
3644,-75,-9,1001,-17,31,1
3645,-170,-15,970,-19,17,0
3646,-141,-28,984,-17,-8,-6
3647,-19,-37,1006,-12,-27,-12
3648,106,-32,1010,-10,-26,-14
3649,167,-13,1006,-9,-7,-11
3650,77,-1,1009,-12,18,-2
3651,-54,-5,999,-16,30,1
3652,-165,-16,969,-18,20,0
3653,-154,-26,988,-18,-2,-5
3654,-37,-42,999,-13,-25,-11
3655,100,-31,1004,-10,-27,-14
3656,163,-16,1008,-8,-12,-11
3657,91,-4,1014,-11,16,-4
3658,-39,-5,1006,-17,30,1
3659,-158,-11,969,-19,24,1
3660,-162,-25,985,-19,-2,-3
3661,-58,-41,995,-15,-24,-10
3662,89,-28,1006,-11,-27,-13
3663,161,-19,1004,-9,-12,-12
3664,105,-7,1014,-10,14,-4
3665,-17,-3,1005,-14,28,0
3666,-149,-6,978,-19,24,1
3667,-164,-27,982,-18,4,-3
3668,-78,-41,992,-15,-20,-10
3669,79,-28,1011,-11,-28,-14
3670,155,-22,1003,-11,-16,-12
3671,123,-9,1005,-10,10,-6
3672,-2,-2,1005,-14,29,1
3673,-138,-3,988,-19,29,3
3674,-167,-29,984,-20,7,-3
3675,-97,-38,979,-15,-19,-9
3676,58,-21,1010,-11,-30,-14
3677,148,-25,1013,-10,-18,-13
3678,133,-10,1004,-10,7,-6
3679,14,-5,999,-15,27,-1
3680,-122,-6,990,-16,29,2
3681,-170,-25,990,-19,10,-2
3682,-114,-32,972,-15,-16,-8
3683,42,-27,1013,-12,-30,-13
3684,140,-25,1013,-11,-20,-13
3685,148,-14,1007,-11,4,-7
3686,36,-1,997,-14,26,-1
3687,-111,-7,991,-16,30,3
3688,-173,-26,989,-18,12,-2
3689,-128,-30,982,-15,-12,-8
3690,24,-28,1006,-11,-30,-13
3691,129,-29,1008,-9,-22,-14
3692,155,-10,1005,-9,1,-7
3693,55,-3,1001,-13,23,-2
3694,-98,-9,997,-19,31,3
3695,-173,-22,977,-21,15,0
3696,-136,-30,986,-17,-9,-6
3697,3,-36,1007,-13,-29,-12
3698,114,-28,1009,-9,-24,-14
3699,163,-11,1009,-10,-4,-9
3700,68,0,1002,-12,22,-2
3701,-75,-10,1004,-16,32,2
3702,-173,-19,970,-18,18,0
3703,-146,-28,978,-17,-6,-6
3704,-13,-41,1012,-13,-28,-13
3705,105,-29,1008,-10,-25,-13
3706,168,-13,1005,-9,-8,-10
3707,78,-2,1011,-11,19,-3
3708,-55,-7,1002,-16,30,1
3709,-164,-13,969,-19,20,0
3710,-154,-27,986,-19,-3,-5
3711,-37,-38,1000,-14,-24,-11
3712,95,-29,1007,-10,-27,-14
3713,163,-15,1007,-1,-12,-13
3714,92,-5,1014,-16,20,-1
3715,-34,-12,1004,-15,30,1
3716,-156,-8,969,-18,24,1
3717,-161,-24,987,-19,1,-4
3718,-63,-35,999,-15,-23,-10
3719,85,-29,1001,-10,-29,-13
3720,160,-18,1008,-10,-13,-12
3721,107,-8,1013,-10,14,-5
3722,-15,-4,1007,-15,29,0
3723,-150,-11,974,-19,25,1
3724,-164,-24,984,-18,4,-4
3725,-84,-37,989,-14,-19,-10
3726,76,-26,1009,-11,-28,-13
3727,157,-23,1007,-10,-16,-12
3728,120,-9,1002,-11,10,-5
3729,-3,-6,1007,-15,27,1
3730,-138,-6,985,-19,28,3
3731,-167,-29,985,-19,7,-3
3732,-98,-38,980,-16,-17,-10
3733,61,-26,1010,-11,-29,-14
3734,151,-26,1009,-10,-18,-11
3735,132,-15,1007,-11,7,-6
3736,18,-4,996,-13,27,-2
3737,-126,-5,992,-18,31,2
3738,-168,-23,991,-19,9,-2
3739,-117,-33,976,-16,-16,-7
3740,44,-27,1003,-10,-32,-13
3741,138,-28,1018,-10,-20,-13
3742,145,-11,1007,-10,4,-7
3743,33,0,993,-15,24,-1
3744,-109,-5,993,-18,29,2
3745,-178,-26,988,-19,13,-1
3746,-125,-26,982,-17,-12,-7
3747,26,-38,1010,-12,-28,-13
3748,126,-26,1010,-8,-23,-13
3749,155,-12,1004,-10,-1,-7
3750,50,0,1002,-14,23,-1
3751,-95,-9,995,-18,30,3
3752,-176,-21,980,-20,16,-2
3753,-134,-29,981,-18,-11,-6
3754,6,-34,1009,-12,-28,-12
3755,117,-29,1010,-10,-24,-13
3756,162,-9,1010,-8,-3,-9
3757,65,-2,1002,-14,22,-2
3758,-79,-9,1002,-18,31,1
3759,-171,-17,970,-19,18,0
3760,-142,-25,982,-16,-7,-6
3761,-12,-37,1013,-11,-28,-13
3762,105,-30,1004,-9,-25,-13
3763,167,-11,1013,-8,-7,-10
3764,75,-4,1004,-13,21,-3
3765,-58,-8,1003,-15,30,1
3766,-162,-19,964,-20,20,0
3767,-155,-24,986,-18,-3,-5
3768,-34,-39,1003,-13,-25,-12
3769,97,-29,1005,-11,-28,-13
3770,163,-17,1007,-9,-10,-10
3771,92,-2,1012,-12,17,-4
3772,-40,-11,1007,-17,31,1
3773,-156,-8,966,-19,23,2
3774,-155,-28,990,-17,0,-3
3775,-59,-37,994,-14,-23,-9
3776,88,-30,1002,-10,-29,-13
3777,159,-18,1011,-9,-11,-10
3778,106,-4,1011,-11,14,-3
3779,-16,-7,1009,-16,29,0
3780,-149,-7,971,-19,25,2
3781,-162,-31,985,-18,2,-4
3782,-80,-38,992,-15,-22,-9
3783,77,-25,1012,-10,-29,-13
3784,157,-20,1005,-9,-15,-13
3785,118,-9,1006,-11,11,-6
3786,-2,-3,1009,-16,28,-1
3787,-140,-4,986,-20,28,3
3788,-169,-30,984,-17,6,-3
3789,-97,-37,986,-16,-18,-10
3790,64,-26,1010,-12,-30,-12
3791,151,-19,1008,-9,-17,-14
3792,129,-13,1008,-10,7,-5
3793,16,-3,997,-14,27,1
3794,-129,-4,996,-18,29,2
3795,-168,-32,988,-18,10,-2
3796,-112,-33,973,-16,-16,-9
3797,46,-27,1009,-13,-30,-13
3798,143,-25,1012,-10,-20,-13
3799,145,-13,1009,-10,4,-7
3800,31,2,992,-13,25,0
3801,-115,-6,992,-18,30,2
3802,-174,-26,991,-21,12,-2
3803,-125,-31,977,-17,-12,-7
3804,29,-36,1007,-13,-29,-14
3805,132,-26,1013,-10,-21,-12
3806,156,-9,1005,-10,0,-8
3807,51,0,1001,-14,24,-3
3808,-102,-4,996,-18,32,3
3809,-175,-27,979,-18,15,-2
3810,-133,-29,984,-19,-10,-6
3811,11,-35,1010,-12,-29,-12
3812,121,-27,1006,-10,-25,-13
3813,161,-9,1010,-8,-4,-9
3814,64,0,1002,-15,22,-1
3815,-84,-9,1003,-18,32,3
3816,-171,-19,969,-18,17,0
3817,-147,-29,979,-17,-7,-6
3818,-6,-39,1013,-12,-27,-12
3819,111,-30,1008,-8,-25,-13
3820,166,-9,1011,-10,-6,-10
3821,75,-1,1005,-12,20,-3
3822,-67,-11,1003,-16,31,2
3823,-161,-18,967,-19,20,-1
3824,-157,-30,987,-17,-3,-4
3825,-30,-37,998,-13,-27,-12
3826,103,-31,1010,-9,-27,-14
3827,165,-9,1008,-10,-10,-10
3828,85,-2,1013,-12,17,-3
3829,-41,-9,1005,-16,30,1
3830,-164,-14,965,-19,22,1
3831,-158,-28,988,-16,-1,-5
3832,-54,-43,998,-15,-24,-10
3833,94,-26,999,-9,-28,-14
3834,163,-17,1008,-9,-12,-13
3835,101,-2,1017,-12,16,-5
3836,-26,-8,1005,-17,31,1
3837,-155,-9,973,-20,25,1
3838,-164,-31,983,-18,1,-4
3839,-74,-41,994,-14,-23,-10
3840,80,-26,1005,-11,-29,-14
3841,159,-17,1010,-8,-14,-13
3842,115,-9,1003,-11,12,-5
3843,-9,-2,1009,-14,29,0
3844,-146,-8,985,-20,27,3
3845,-165,-29,980,-19,6,-3
3846,-94,-39,985,-16,-18,-10
3847,65,-26,1013,-11,-29,-13
3848,154,-24,1007,-10,-17,-14
3849,125,-11,1006,-8,9,-5
3850,8,4,1000,-15,27,0
3851,-132,-5,992,-20,29,3
3852,-170,-28,985,-20,8,-1
3853,-107,-39,976,-16,-18,-8
3854,50,-26,1012,-9,-29,-14
3855,144,-26,1012,-10,-20,-12
3856,141,-12,1006,-9,6,-7
3857,27,0,994,-13,27,-2
3858,-117,-4,993,-18,30,3
3859,-172,-26,988,-18,12,-3
3860,-122,-34,980,-18,-13,-7
3861,36,-31,1003,-10,-30,-13
3862,133,-29,1014,-9,-22,-14
3863,153,-11,1009,-10,1,-7
3864,45,1,995,-13,24,-1
3865,-104,-6,996,-18,31,3
3866,-174,-21,984,-19,13,-2
3867,-134,-30,984,-16,-10,-6
3868,13,-35,1007,-12,-29,-11
3869,121,-31,1008,-9,-23,-12
3870,159,-11,1008,-9,-2,-7
3871,65,-2,1001,-14,23,-2
3872,-88,-9,1006,-17,32,2
3873,-173,-18,966,-20,17,0
3874,-142,-26,986,-18,-8,-6
3875,-9,-38,1006,-12,-29,-12
3876,115,-33,1013,-10,-24,-14
3877,167,-8,1005,-10,-5,-10
3878,75,-2,1004,-12,20,-2
3879,-64,-6,1004,-16,31,2
3880,-174,-14,965,-20,19,1
3881,-154,-26,985,-17,-4,-5
3882,-27,-40,1005,-13,-26,-11
3883,103,-26,1005,-10,-27,-14
3884,170,-13,1008,-10,-9,-12
3885,87,-3,1014,-12,19,-3
3886,-44,-11,1003,-15,32,1
3887,-160,-15,966,-18,24,2
3888,-156,-27,989,-17,-1,-5
3889,-52,-37,998,-13,-24,-12
3890,95,-26,1001,-10,-28,-13
3891,164,-16,1012,-8,-12,-11
3892,103,-4,1013,-12,15,-5
3893,-29,-6,1007,-17,31,0
3894,-154,-12,969,-19,24,2
3895,-165,-30,985,-17,1,-3
3896,-69,-37,992,-13,-23,-10
3897,81,-25,1007,-10,-28,-14
3898,160,-20,1005,-10,-13,-11
3899,115,-7,1010,-12,12,-4
3900,-12,-6,1008,-14,28,0
3901,-142,-6,981,-19,27,2
3902,-167,-33,982,-18,4,-2
3903,-91,-36,984,-14,-20,-10
3904,69,-28,1016,-13,-29,-13
3905,155,-21,1004,-8,-17,-13
3906,127,-13,1007,-10,10,-5
3907,11,-1,1005,-14,29,-2
3908,-135,-8,993,-18,29,3
3909,-167,-27,983,-20,7,-3
3910,-111,-38,979,-16,-17,-9
3911,55,-25,1005,-10,-31,-14
3912,146,-28,1018,-10,-19,-12
3913,140,-13,1004,-10,6,-5
3914,30,0,998,-13,27,-1
3915,-121,-4,989,-17,31,2
3916,-176,-22,992,-19,10,-1
3917,-121,-34,979,-16,-13,-7
3918,33,-34,1004,-12,-28,-13
3919,137,-29,1014,-10,-21,-14
3920,152,-12,1006,-9,2,-7
3921,44,3,993,-11,24,-1
3922,-105,-6,998,-17,31,2
3923,-176,-24,981,-18,15,-1
3924,-130,-29,984,-17,-11,-6
3925,16,-33,1006,-12,-29,-14
3926,119,-30,1011,-8,-23,-14
3927,157,-9,1004,-10,-2,-10
3928,62,-2,1003,-15,23,-1
3929,-89,-12,1001,-16,32,2
3930,-170,-16,974,-20,16,-1
3931,-140,-25,981,-16,-8,-5
3932,-5,-35,1009,-14,-28,-12
3933,111,-32,1012,-10,-24,-15
3934,162,-11,1008,-9,-5,-9
3935,72,-2,1006,-13,22,-3
3936,-67,-14,1003,-16,31,1
3937,-167,-19,965,-18,19,0
3938,-147,-27,986,-16,-6,-6
3939,-27,-36,1007,-14,-26,-11
3940,104,-27,1007,-10,-27,-14
3941,162,-12,1010,-9,-8,-10
3942,84,0,1009,-11,18,-2
3943,-45,-10,1006,-16,31,1
3944,-164,-17,965,-19,22,0
3945,-158,-27,987,-18,-3,-5
3946,-50,-36,998,-15,-25,-11
3947,93,-27,1006,-10,-28,-13
3948,165,-18,1007,-9,-12,-12
3949,94,-5,1016,-12,16,-3
3950,-26,-3,1003,-16,30,-1
3951,-154,-12,973,-19,25,2
3952,-162,-25,981,-18,2,-2
3953,-69,-41,997,-16,-22,-10
3954,84,-29,1004,-10,-28,-14
3955,160,-18,1005,-9,-13,-11
3956,113,-6,1010,-11,12,-4
3957,-12,-4,1006,-15,29,1
3958,-142,-6,979,-21,26,1
3959,-169,-29,986,-19,5,-3
3960,-89,-37,985,-14,-20,-9
3961,71,-27,1011,-12,-30,-12
3962,153,-23,1008,-10,-17,-13
3963,123,-9,1004,-10,8,-6
3964,7,-6,1006,-15,27,-2
3965,-131,-5,988,-19,28,2
3966,-170,-29,988,-19,7,-3
3967,-107,-36,973,-14,-17,-8
3968,51,-27,1007,-10,-30,-13
3969,143,-25,1016,-10,-19,-13
3970,139,-13,1004,-10,6,-7
3971,25,0,996,-15,27,-1
3972,-119,-3,992,-17,29,3
3973,-173,-27,992,-19,10,-3
3974,-120,-32,975,-16,-14,-8
3975,35,-27,1007,-11,-29,-13
3976,134,-24,1016,-9,-20,-14
3977,147,-13,1004,-10,2,-6
3978,44,0,999,-13,23,-1
3979,-106,-10,991,-19,31,2
3980,-174,-22,986,-18,16,0
3981,-130,-29,982,-18,-9,-5
3982,15,-31,1007,-14,-29,-12
3983,118,-29,1009,-8,-24,-14
3984,157,-11,1003,-9,-3,-8
3985,59,-6,1002,-14,23,-1
3986,-86,-12,1001,-17,31,2
3987,-170,-18,971,-18,17,-1
3988,-139,-23,986,-17,-8,-7
3989,-6,-34,1008,-15,-28,-12
3990,109,-29,1011,-9,-24,-13
3991,160,-13,1004,-10,-5,-9
3992,75,-3,1008,-12,20,-3
3993,-69,-9,1000,-15,31,1
3994,-166,-17,964,-20,18,-1
3995,-148,-24,988,-17,-4,-6
3996,-28,-37,1006,-13,-25,-11
3997,102,-29,1006,-10,-27,-14
3998,166,-14,1010,-8,-9,-10
3999,84,-3,1007,-13,18,-1
4000,-45,-9,1006,-17,30,1
4001,-163,-15,966,-19,23,1
4002,-159,-23,987,-17,-2,-4
4003,-48,-39,1000,-15,-24,-10
4004,92,-29,1004,-8,-28,-13
4005,163,-13,1002,-8,-11,-12
4006,98,-6,1020,-12,16,-4
4007,-30,-7,1001,-16,31,1
4008,-156,-9,969,-19,25,1
4009,-163,-30,984,-16,1,-4
4010,-69,-36,997,-14,-23,-10
4011,86,-26,1005,-12,-28,-13
4012,159,-22,1007,-10,-13,-12
4013,114,-5,1006,-11,13,-4
4014,-13,-4,1009,-14,30,0
4015,-143,-5,978,-19,27,3
4016,-170,-31,985,-17,5,-3
4017,-87,-35,984,-15,-20,-10
4018,68,-28,1014,-11,-30,-13
4019,161,-20,1008,-9,-18,-14
4020,123,-15,1003,-11,10,-5
4021,9,-1,1004,-14,28,-1
4022,-135,-9,991,-18,30,3
4023,-166,-25,985,-18,9,-3
4024,-111,-38,979,-17,-18,-8
4025,52,-21,1005,-10,-30,-13
4026,146,-29,1014,-11,-19,-13
4027,141,-14,1008,-9,5,-7
4028,23,-3,995,-13,26,-2
4029,-116,-5,992,-17,29,2
4030,-174,-25,991,-19,10,-1
4031,-119,-30,977,-16,-14,-8
4032,34,-30,1005,-11,-29,-12
4033,130,-27,1011,-9,-21,-13
4034,151,-11,1010,-10,2,-6
4035,48,-5,993,-14,24,-1
4036,-105,-8,997,-17,31,3
4037,-173,-20,981,-20,14,-1
4038,-129,-26,985,-17,-9,-7
4039,15,-33,1007,-14,-30,-13
4040,119,-29,1007,-9,-24,-14
4041,161,-12,1005,-9,-3,-10
4042,61,-2,1005,-13,23,-3
4043,-86,-11,997,-16,32,2
4044,-171,-19,973,-19,18,0
4045,-140,-27,981,-16,-8,-5
4046,-8,-34,1010,-13,-27,-13
4047,111,-29,1010,-11,-24,-14
4048,164,-10,1009,-9,-6,-11
4049,73,-2,1003,-12,21,-3
4050,-69,-11,1002,-17,30,2
4051,-164,-16,967,-19,19,0
4052,-153,-26,983,-17,-4,-4
4053,-26,-34,1005,-14,-25,-12
4054,103,-28,1007,-10,-29,-17
4055,162,-9,1005,-8,-8,-11
4056,85,-3,1013,-13,18,-3
4057,-46,-11,1003,-16,30,2
4058,-156,-15,968,-18,23,1
4059,-155,-28,989,-18,-1,-4
4060,-52,-36,999,-14,-25,-9
4061,95,-27,1002,-10,-29,-14
4062,160,-17,1010,-9,-12,-12
4063,99,-4,1011,-14,15,-4
4064,-26,-10,1008,-17,30,0
4065,-155,-9,971,-17,24,1
4066,-164,-28,984,-16,-1,-5
4067,-66,-41,995,-14,-22,-11
4068,80,-26,1008,-10,-28,-13
4069,162,-18,1006,-10,-14,-13
4070,113,-8,1011,-9,12,-5
4071,-14,-2,1005,-15,28,0
4072,-143,-8,983,-18,26,2
4073,-167,-29,983,-18,3,-3
4074,-88,-39,984,-15,-19,-9
4075,69,-28,1012,-11,-30,-14
4076,153,-21,1007,-9,-17,-12
4077,128,-9,1006,-11,8,-5
4078,7,-4,1001,-15,28,0
4079,-130,-6,995,-19,29,2
4080,-170,-29,985,-20,8,-3
4081,-109,-37,978,-16,-17,-8
4082,50,-27,1011,-11,-30,-12
4083,145,-25,1010,-12,-18,-13
4084,141,-15,1011,-11,6,-6
4085,26,1,993,-12,26,-1
4086,-118,-5,991,-17,30,2
4087,-175,-27,990,-20,10,-2
4088,-122,-30,978,-17,-14,-7
4089,32,-32,1010,-10,-29,-14
4090,134,-31,1009,-10,-21,-13
4091,152,-13,1009,-8,1,-8
4092,43,2,994,-13,24,-2
4093,-105,-5,996,-19,30,1
4094,-174,-20,981,-19,15,-2
4095,-134,-31,981,-18,-10,-6
4096,14,-35,1008,-13,-30,-13
4097,120,-31,1009,-10,-23,-13
4098,162,-10,1006,-10,-2,-9
4099,60,-5,1004,-14,22,-2
4100,-81,-11,999,-17,31,2
4101,-174,-18,972,-20,17,0
4102,-140,-23,979,-17,-7,-6
4103,-11,-38,1011,-14,-27,-12
4104,111,-28,1010,-9,-26,-15
4105,165,-11,1008,-9,-5,-10
4106,78,-2,1005,-12,22,-2
4107,-65,-11,1002,-17,31,1
4108,-167,-13,967,-18,20,0
4109,-151,-25,988,-18,-3,-5
4110,-31,-39,1004,-14,-26,-10
4111,104,-30,1005,-10,-27,-13
4112,165,-12,1010,-9,-9,-11
4113,90,-3,1011,-12,18,-4
4114,-44,-9,1005,-17,30,2
4115,-162,-10,965,-19,23,1
4116,-159,-26,990,-18,0,-5
4117,-54,-40,996,-15,-23,-11
4118,93,-24,1002,-10,-27,-13
4119,163,-20,1008,-10,-12,-12
4120,103,-4,1013,-11,16,-4
4121,-25,-12,1009,-16,31,0
4122,-154,-9,969,-18,25,1
4123,-164,-30,985,-17,2,-4
4124,-75,-35,994,-15,-23,-10
4125,80,-27,1008,-11,-29,-13
4126,160,-19,1006,-10,-15,-12
4127,117,-14,1006,-10,12,-4
4128,-6,-3,1005,-14,28,-1
4129,-137,-8,987,-20,26,2
4130,-165,-30,981,-18,6,-2
4131,-95,-35,981,-15,-19,-9
4132,64,-25,1014,-12,-31,-13
4133,149,-25,1005,-11,-17,-12
4134,132,-12,1007,-12,8,-6
4135,9,-6,1000,-15,29,-1
4136,-128,-7,991,-19,29,3
4137,-167,-29,987,-18,9,-3
4138,-114,-34,977,-15,-17,-8
4139,51,-25,1004,-10,-31,-14
4140,141,-29,1018,-10,-19,-13
4141,145,-8,1008,-11,5,-6
4142,30,-2,997,-14,26,-1
4143,-118,-6,993,-17,29,3
4144,-176,-29,988,-20,11,-2
4145,-125,-34,982,-16,-12,-7
4146,32,-31,1006,-12,-29,-12
4147,131,-26,1011,-8,-21,-12
4148,154,-11,1007,-9,2,-6
4149,47,0,1000,-13,25,-2
4150,-97,-8,995,-18,31,2
4151,-176,-22,983,-18,14,-2
4152,-131,-29,983,-17,-10,-6
4153,8,-35,1006,-12,-30,-11
4154,119,-29,1010,-8,-25,-13
4155,162,-12,1004,-9,-3,-8
4156,67,1,1005,-13,23,-2
4157,-81,-10,1000,-18,33,3
4158,-169,-17,971,-19,19,-1
4159,-146,-26,983,-19,-7,-5
4160,-15,-38,1006,-13,-27,-12
4161,109,-33,1014,-11,-26,-14
4162,161,-11,1002,-10,-5,-11
4163,78,-1,1010,-11,19,-3
4164,-58,-9,1002,-15,30,1
4165,-168,-13,967,-20,21,0
4166,-150,-25,988,-19,-5,-6
4167,-36,-40,1008,-13,-26,-9
4168,102,-26,999,-10,-28,-13
4169,164,-18,1014,-7,-9,-10
4170,88,-2,1010,-12,17,-2
4171,-38,-10,1005,-17,30,1
4172,-158,-13,967,-17,25,1
4173,-159,-26,989,-18,0,-4
4174,-55,-37,993,-15,-24,-11
4175,88,-31,1005,-10,-28,-13
4176,162,-15,1006,-10,-14,-12
4177,101,-9,1016,-10,13,-4
4178,-22,-3,1005,-15,29,0
4179,-149,-11,975,-19,25,2
4180,-165,-28,981,-18,2,-3
4181,-73,-41,994,-15,-21,-11
4182,80,-29,1010,-10,-28,-14
4183,153,-21,1001,-8,-14,-12
4184,117,-6,1010,-9,11,-5
4185,-5,-3,1006,-15,28,-1
4186,-138,-6,985,-19,27,2
4187,-161,-30,984,-20,6,-3
4188,-101,-40,984,-16,-20,-9
4189,68,-27,1009,-10,-29,-13
4190,147,-26,1010,-8,-17,-12
4191,129,-9,1006,-9,7,-5
4192,17,-2,1002,-13,27,0
4193,-130,-1,988,-18,29,2
4194,-165,-28,990,-20,8,-3
4195,-115,-37,977,-16,-16,-9
4196,44,-29,1001,-11,-31,-13
4197,144,-25,1019,-10,-20,-13
4198,142,-17,1010,-10,4,-6
4199,36,0,988,-13,26,-2
4200,-112,-7,996,-18,30,2
4201,-176,-24,988,-18,12,-2
4202,-120,-32,981,-17,-13,-8
4203,27,-32,1006,-12,-27,-12
4204,128,-28,1011,-10,-21,-14
4205,154,-13,1008,-9,0,-8
4206,50,0,999,-13,23,-1
4207,-97,-8,994,-18,30,2
4208,-172,-23,982,-18,15,-2
4209,-135,-27,979,-19,-10,-6
4210,11,-35,1012,-13,-29,-13
4211,116,-31,1009,-9,-24,-14
4212,161,-11,1002,-9,-3,-9
4213,66,-4,1004,-14,23,-3
4214,-79,-12,1002,-18,31,2
4215,-168,-14,969,-18,19,0
4216,-145,-26,980,-17,-7,-5
4217,-15,-35,1009,-12,-29,-12
4218,108,-32,1009,-10,-25,-13
4219,165,-9,1006,-9,-7,-10
4220,80,-5,1008,-12,20,-2
4221,-61,-8,1002,-16,30,1
4222,-165,-14,967,-19,20,0
4223,-153,-25,987,-17,-3,-5
4224,-34,-39,1003,-15,-25,-11
4225,98,-26,1002,-10,-28,-13
4226,162,-12,1008,-10,-10,-11
4227,91,-6,1013,-12,17,-3
4228,-43,-10,1003,-16,30,0
4229,-155,-13,970,-18,23,0
4230,-161,-26,987,-17,0,-3
4231,-59,-35,995,-15,-24,-10
4232,91,-28,1004,-9,-29,-13
4233,157,-15,1006,-11,-12,-10
4234,105,-9,1011,-12,13,-3
4235,-21,-8,1010,-16,28,-1
4236,-149,-10,970,-20,24,2
4237,-162,-26,982,-17,1,-2
4238,-77,-38,997,-14,-22,-10
4239,75,-27,1006,-10,-29,-14
4240,155,-19,1009,-10,-16,-12
4241,120,-10,1006,-11,9,-4
4242,-6,-7,1005,-16,27,1
4243,-136,-7,986,-19,27,1
4244,-170,-29,988,-17,7,-3
4245,-95,-36,976,-15,-17,-8
4246,61,-26,1013,-10,-28,-12
4247,151,-23,1008,-10,-19,-12
4248,132,-13,1005,-12,6,-6
4249,17,0,1001,-12,27,-1
4250,-128,-5,993,-20,30,2
4251,-169,-29,988,-20,11,-2
4252,-113,-36,974,-17,-15,-8
4253,46,-28,1008,-10,-30,-13
4254,137,-27,1013,-10,-20,-12
4255,146,-12,1012,-13,4,-5
4256,35,-1,989,-13,25,-1
4257,-114,-5,993,-17,30,3
4258,-172,-25,987,-19,12,-1
4259,-122,-33,983,-16,-12,-8
4260,23,-31,1007,-11,-29,-13
4261,127,-29,1009,-9,-22,-13
4262,155,-16,1006,-8,-1,-8
4263,51,1,1000,-12,24,-2
4264,-94,-8,999,-17,30,1
4265,-172,-21,974,-19,14,-2
4266,-135,-29,982,-16,-9,-5
4267,6,-35,1012,-13,-28,-12
4268,114,-34,1007,-9,-23,-14
4269,163,-11,1005,-9,-5,-9
4270,65,0,1009,-14,21,-1
4271,-78,-9,999,-18,31,1
4272,-170,-16,969,-19,18,0
4273,-147,-25,982,-16,-8,-5
4274,-15,-41,1008,-14,-28,-10
4275,108,-33,1008,-10,-25,-12
4276,162,-12,1009,-11,-6,-9
4277,79,-4,1007,-11,18,-3
4278,-57,-10,1002,-15,30,1
4279,-165,-14,966,-21,20,0
4280,-150,-23,991,-17,-3,-6
4281,-37,-38,1001,-14,-25,-11
4282,99,-32,1001,-10,-27,-14
4283,163,-13,1013,-9,-10,-12
4284,90,-1,1013,-11,17,-3
4285,-37,-10,1000,-16,31,0
4286,-156,-13,971,-17,24,0
4287,-160,-24,987,-16,-1,-5
4288,-58,-37,994,-15,-24,-10
4289,87,-30,1005,-10,-29,-13
4290,162,-19,1008,-10,-13,-13
4291,103,-10,1012,-14,14,-5
4292,-15,-3,1005,-15,28,0
4293,-151,-10,977,-20,26,3
4294,-160,-26,981,-17,3,-3
4295,-82,-42,994,-15,-21,-10
4296,76,-24,1011,-13,-29,-13
4297,160,-23,1005,-10,-16,-12
4298,118,-8,1002,-9,11,-5
4299,1,-4,1009,-15,28,0
4300,-139,-4,987,-18,29,1
4301,-170,-31,984,-18,7,-3
4302,-98,-38,985,-16,-19,-9
4303,58,-28,1008,-11,-30,-13
4304,153,-22,1010,-9,-19,-13
4305,133,-15,1010,-10,8,-7
4306,18,0,994,-15,27,-1
4307,-128,-4,993,-18,30,2
4308,-170,-26,990,-19,9,-3
4309,-116,-37,973,-17,-16,-8
4310,44,-27,1006,-10,-31,-14
4311,139,-31,1017,-10,-21,-13
4312,145,-12,1006,-10,4,-7
4313,34,-2,994,-13,25,-2
4314,-110,-4,994,-17,29,2
4315,-174,-25,985,-19,12,-1
4316,-121,-28,981,-17,-13,-8
4317,23,-32,1010,-13,-29,-13
4318,126,-28,1007,-8,-22,-14
4319,155,-12,1009,-10,0,-8
4320,54,-2,999,-13,23,-2
4321,-96,-10,996,-16,32,2
4322,-170,-18,980,-19,16,-1
4323,-136,-27,977,-18,-9,-7
4324,5,-34,1008,-13,-28,-14
4325,113,-30,1010,-10,-25,-12
4326,163,-14,1003,-10,-3,-10
4327,68,-4,1007,-13,22,-3
4328,-76,-14,997,-16,32,1
4329,-170,-17,968,-18,18,-1
4330,-144,-25,984,-16,-8,-5
4331,-16,-35,1007,-13,-28,-12
4332,106,-33,1008,-11,-25,-15
4333,166,-9,1009,-9,-7,-10
4334,79,-3,1005,-13,19,-2
4335,-56,-10,1002,-15,30,1
4336,-168,-19,969,-20,20,0
4337,-153,-21,987,-17,-4,-6
4338,-38,-42,999,-14,-26,-12
4339,101,-25,1006,-9,-28,-14
4340,167,-17,1008,-10,-10,-11
4341,89,0,1013,-12,17,-3
4342,-38,-11,1006,-18,32,1
4343,-158,-16,967,-19,23,0
4344,-162,-31,985,-18,-2,-3
4345,-58,-37,998,-13,-24,-12
4346,89,-28,1001,-9,-28,-14
4347,166,-14,1008,-9,-13,-12
4348,103,-3,1014,-12,14,-4
4349,-25,-4,1009,-16,29,0
4350,-151,-11,973,-20,25,2
4351,-165,-32,985,-17,2,-4
4352,-78,-39,990,-15,-21,-9
4353,77,-26,1009,-11,-28,-13
4354,159,-19,1007,-8,-15,-13
4355,121,-7,1008,-9,10,-5
4356,-2,-1,1003,-14,27,0
4357,-139,-7,987,-18,29,2
4358,-170,-30,984,-18,6,-2
4359,-99,-38,984,-14,-19,-9
4360,61,-26,1009,-11,-28,-13
4361,151,-23,1012,-8,-17,-13
4362,132,-11,1004,-10,6,-6
4363,14,0,998,-14,28,-1
4364,-124,-4,994,-18,29,3
4365,-170,-28,987,-19,9,-2
4366,-114,-35,975,-16,-16,-8
4367,45,-27,1008,-9,-31,-13
4368,140,-26,1017,-10,-19,-13
4369,143,-14,1005,-10,4,-7
4370,35,-4,996,-13,23,-2
4371,-112,-4,990,-18,29,3
4372,-174,-22,988,-18,12,-1
4373,-124,-33,981,-17,-11,-6
4374,23,-32,1007,-12,-29,-13
4375,131,-29,1011,-11,-22,-12
4376,155,-12,1009,-8,0,-8
4377,51,-1,995,-14,23,-1
4378,-93,-10,1000,-18,30,2
